"","obj_file","X.x","participant.x","trialN.x","trial_cond","scn_file.x","scn_cat","scn_inst","scn_condition","fillers","obj_cat","obj_cat_num","quadrant","corr_ans","key_resp_trial.keys","key_resp_trial.rt","trial_acc","trial_acc_manual","group.x","practice","X.y","participant.y","OvsN","PE_level","object_cat","scn_file.y","corr_scn_cat","corr_scn_inst","scn_file.1","corr_loc","key_resp_id.keys","key_resp_id.rt","key_resp_conf.keys","key_resp_assoc.keys","key_resp_assoc.rt","key_resp_loc.keys","key_resp_loc.rt","trialN.y","id_acc","assoc.acc","cond_assoc","loc.acc","cond_loc","group.y"
"133","stim/objects/Instruments/electricdrumset.png",1,26,1,0.5,"stim/32.jpeg",3,2,1,NA,"Instruments",1,4,"left","left",0.624000072,1,1,1,1,NA,NA,NA,NA,NA,NA,NA,NA,NA,NA,NA,NA,NA,NA,NA,NA,NA,NA,NA,NA,NA,NA,NA,NA
"25","stim/objects/HouseObjects/doormat.png",2,26,2,0.5,"stim/34.jpeg",3,4,1,NA,"HouseObjects",2,1,"right","right",0.733999968,1,1,1,1,NA,NA,NA,NA,NA,NA,NA,NA,NA,NA,NA,NA,NA,NA,NA,NA,NA,NA,NA,NA,NA,NA,NA,NA
"220","stim/objects/Instruments/harp2.png",3,26,3,0.9,"stim/23.jpeg",2,3,3,NA,"Instruments",1,4,"left","left",0.491999865,1,1,1,1,NA,NA,NA,NA,NA,NA,NA,NA,NA,NA,NA,NA,NA,NA,NA,NA,NA,NA,NA,NA,NA,NA,NA,NA
"97","stim/objects/HouseObjects/hairdryer.png",4,26,4,0.7,"stim/52.jpeg",5,2,2,NA,"HouseObjects",2,3,"right","right",0.633999825,1,1,1,1,NA,NA,NA,NA,NA,NA,NA,NA,NA,NA,NA,NA,NA,NA,NA,NA,NA,NA,NA,NA,NA,NA,NA,NA
"66","stim/objects/HouseObjects/garbagebin2.png",5,26,5,0.9,"stim/13.jpeg",1,3,3,NA,"HouseObjects",2,3,"right","right",0.659999847,1,1,1,1,NA,NA,NA,NA,NA,NA,NA,NA,NA,NA,NA,NA,NA,NA,NA,NA,NA,NA,NA,NA,NA,NA,NA,NA
"113","stim/objects/HouseObjects/handvacuum.png",6,26,6,0.7,"stim/54.jpeg",5,4,2,NA,"HouseObjects",2,4,"right","",NA,0,0,1,1,NA,NA,NA,NA,NA,NA,NA,NA,NA,NA,NA,NA,NA,NA,NA,NA,NA,NA,NA,NA,NA,NA,NA,NA
"17","stim/objects/HouseObjects/dishsoap.png",7,26,7,0.5,"stim/33.jpeg",3,3,1,NA,"HouseObjects",2,3,"right","left",0.740999937,0,0,1,1,NA,NA,NA,NA,NA,NA,NA,NA,NA,NA,NA,NA,NA,NA,NA,NA,NA,NA,NA,NA,NA,NA,NA,NA
"187","stim/objects/Instruments/grandpiano.png",8,26,8,0.5,"stim/44.jpeg",4,4,1,NA,"Instruments",1,3,"left","right",0.648000002,0,0,1,1,NA,NA,NA,NA,NA,NA,NA,NA,NA,NA,NA,NA,NA,NA,NA,NA,NA,NA,NA,NA,NA,NA,NA,NA
"181","stim/objects/Instruments/gong.png",9,26,9,0.5,"stim/43.jpeg",4,3,1,NA,"Instruments",1,1,"left","right",0.611000061,0,0,1,1,NA,NA,NA,NA,NA,NA,NA,NA,NA,NA,NA,NA,NA,NA,NA,NA,NA,NA,NA,NA,NA,NA,NA,NA
"52","stim/objects/HouseObjects/flyswatter2.png",10,26,10,0.9,"stim/12.jpeg",1,2,3,NA,"HouseObjects",2,1,"right","right",0.601000071,1,1,1,1,NA,NA,NA,NA,NA,NA,NA,NA,NA,NA,NA,NA,NA,NA,NA,NA,NA,NA,NA,NA,NA,NA,NA,NA
"26","stim/objects/HouseObjects/doormat.png",11,26,11,0.5,"stim/34.jpeg",3,4,1,NA,"HouseObjects",2,1,"right","left",0.571000099,0,0,1,1,NA,NA,NA,NA,NA,NA,NA,NA,NA,NA,NA,NA,NA,NA,NA,NA,NA,NA,NA,NA,NA,NA,NA,NA
"221","stim/objects/Instruments/harp2.png",12,26,12,0.9,"stim/23.jpeg",2,3,3,NA,"Instruments",1,1,"left","left",0.591999769,1,1,1,1,NA,NA,NA,NA,NA,NA,NA,NA,NA,NA,NA,NA,NA,NA,NA,NA,NA,NA,NA,NA,NA,NA,NA,NA
"47","stim/objects/HouseObjects/flyswatter.png",13,26,13,0.5,"stim/42.jpeg",4,2,1,NA,"HouseObjects",2,3,"right","left",0.871999979,0,0,1,1,NA,NA,NA,NA,NA,NA,NA,NA,NA,NA,NA,NA,NA,NA,NA,NA,NA,NA,NA,NA,NA,NA,NA,NA
"67","stim/objects/HouseObjects/garbagebin2.png",14,26,14,0.9,"stim/13.jpeg",1,3,3,NA,"HouseObjects",2,1,"right","right",0.604000092,1,1,1,1,NA,NA,NA,NA,NA,NA,NA,NA,NA,NA,NA,NA,NA,NA,NA,NA,NA,NA,NA,NA,NA,NA,NA,NA
"188","stim/objects/Instruments/grandpiano.png",15,26,15,0.5,"stim/44.jpeg",4,4,1,NA,"Instruments",1,2,"left","left",0.779999971,1,1,1,1,NA,NA,NA,NA,NA,NA,NA,NA,NA,NA,NA,NA,NA,NA,NA,NA,NA,NA,NA,NA,NA,NA,NA,NA
"33","stim/objects/HouseObjects/dustpan.png",16,26,16,0.5,"stim/41.jpeg",4,1,1,NA,"HouseObjects",2,4,"right","right",0.803999901,1,1,1,1,NA,NA,NA,NA,NA,NA,NA,NA,NA,NA,NA,NA,NA,NA,NA,NA,NA,NA,NA,NA,NA,NA,NA,NA
"80","stim/objects/HouseObjects/glass2.png",17,26,17,0.9,"stim/14.jpeg",1,4,3,NA,"HouseObjects",2,4,"right","",NA,0,0,1,1,NA,NA,NA,NA,NA,NA,NA,NA,NA,NA,NA,NA,NA,NA,NA,NA,NA,NA,NA,NA,NA,NA,NA,NA
"89","stim/objects/HouseObjects/glassmop.png",18,26,18,0.7,"stim/51.jpeg",5,1,2,NA,"HouseObjects",2,1,"right","right",0.80099988,1,1,1,1,NA,NA,NA,NA,NA,NA,NA,NA,NA,NA,NA,NA,NA,NA,NA,NA,NA,NA,NA,NA,NA,NA,NA,NA
"98","stim/objects/HouseObjects/hairdryer.png",19,26,19,0.7,"stim/52.jpeg",5,2,2,NA,"HouseObjects",2,3,"right","right",0.65199995,1,1,1,1,NA,NA,NA,NA,NA,NA,NA,NA,NA,NA,NA,NA,NA,NA,NA,NA,NA,NA,NA,NA,NA,NA,NA,NA
"208","stim/objects/Instruments/harmonica2.png",20,26,20,0.9,"stim/22.jpeg",2,2,3,NA,"Instruments",1,1,"left","left",0.613000154,1,1,1,1,NA,NA,NA,NA,NA,NA,NA,NA,NA,NA,NA,NA,NA,NA,NA,NA,NA,NA,NA,NA,NA,NA,NA,NA
"38","stim/objects/HouseObjects/dustpan2.png",21,26,21,0.9,"stim/11.jpeg",1,1,3,NA,"HouseObjects",2,4,"right","right",0.601999998,1,1,1,1,NA,NA,NA,NA,NA,NA,NA,NA,NA,NA,NA,NA,NA,NA,NA,NA,NA,NA,NA,NA,NA,NA,NA,NA
"222","stim/objects/Instruments/harp2.png",22,26,22,0.9,"stim/23.jpeg",2,3,3,NA,"Instruments",1,4,"left","left",0.503999949,1,1,1,1,NA,NA,NA,NA,NA,NA,NA,NA,NA,NA,NA,NA,NA,NA,NA,NA,NA,NA,NA,NA,NA,NA,NA,NA
"157","stim/objects/Instruments/flute.png",23,26,23,0.5,"stim/34.jpeg",3,4,1,NA,"Instruments",1,2,"left","right",0.578999996,0,0,1,1,NA,NA,NA,NA,NA,NA,NA,NA,NA,NA,NA,NA,NA,NA,NA,NA,NA,NA,NA,NA,NA,NA,NA,NA
"121","stim/objects/Instruments/drums.png",24,26,24,0.5,"stim/31.jpeg",3,1,1,NA,"Instruments",1,2,"left","left",0.632999897,1,1,1,1,NA,NA,NA,NA,NA,NA,NA,NA,NA,NA,NA,NA,NA,NA,NA,NA,NA,NA,NA,NA,NA,NA,NA,NA
"138","stim/objects/Instruments/electricdrumset2.png",25,26,25,0.7,"stim/62.jpeg",6,2,2,NA,"Instruments",1,3,"left","left",0.836999893,1,1,1,1,NA,NA,NA,NA,NA,NA,NA,NA,NA,NA,NA,NA,NA,NA,NA,NA,NA,NA,NA,NA,NA,NA,NA,NA
"53","stim/objects/HouseObjects/flyswatter2.png",26,26,26,0.9,"stim/12.jpeg",1,2,3,NA,"HouseObjects",2,4,"right","right",0.542999983,1,1,1,1,NA,NA,NA,NA,NA,NA,NA,NA,NA,NA,NA,NA,NA,NA,NA,NA,NA,NA,NA,NA,NA,NA,NA,NA
"112","stim/objects/HouseObjects/handbrush2.png",27,26,27,0.1,"stim/23.jpeg",2,3,3,NA,"HouseObjects",2,4,"right","left",0.525999784,0,0,1,1,NA,NA,NA,NA,NA,NA,NA,NA,NA,NA,NA,NA,NA,NA,NA,NA,NA,NA,NA,NA,NA,NA,NA,NA
"39","stim/objects/HouseObjects/dustpan2.png",28,26,28,0.9,"stim/11.jpeg",1,1,3,NA,"HouseObjects",2,1,"right","right",0.546000004,1,1,1,1,NA,NA,NA,NA,NA,NA,NA,NA,NA,NA,NA,NA,NA,NA,NA,NA,NA,NA,NA,NA,NA,NA,NA,NA
"232","stim/objects/Instruments/hihat2.png",29,26,29,0.9,"stim/24.jpeg",2,4,3,NA,"Instruments",1,4,"left","left",0.541000128,1,1,1,1,NA,NA,NA,NA,NA,NA,NA,NA,NA,NA,NA,NA,NA,NA,NA,NA,NA,NA,NA,NA,NA,NA,NA,NA
"223","stim/objects/Instruments/harp2.png",30,26,30,0.9,"stim/23.jpeg",2,3,3,NA,"Instruments",1,2,"left","left",0.638000011,1,1,1,1,NA,NA,NA,NA,NA,NA,NA,NA,NA,NA,NA,NA,NA,NA,NA,NA,NA,NA,NA,NA,NA,NA,NA,NA
"48","stim/objects/HouseObjects/flyswatter.png",31,26,31,0.5,"stim/42.jpeg",4,2,1,NA,"HouseObjects",2,2,"right","right",0.586999893,1,1,1,1,NA,NA,NA,NA,NA,NA,NA,NA,NA,NA,NA,NA,NA,NA,NA,NA,NA,NA,NA,NA,NA,NA,NA,NA
"205","stim/objects/Instruments/harmonica.png",32,26,32,0.3,"stim/52.jpeg",5,2,2,NA,"Instruments",1,1,"left","left",0.624999762,1,1,1,1,NA,NA,NA,NA,NA,NA,NA,NA,NA,NA,NA,NA,NA,NA,NA,NA,NA,NA,NA,NA,NA,NA,NA,NA
"145","stim/objects/Instruments/electricguitar.png",33,26,33,0.5,"stim/33.jpeg",3,3,1,NA,"Instruments",1,4,"left","left",0.687999964,1,1,1,1,NA,NA,NA,NA,NA,NA,NA,NA,NA,NA,NA,NA,NA,NA,NA,NA,NA,NA,NA,NA,NA,NA,NA,NA
"68","stim/objects/HouseObjects/garbagebin2.png",34,26,34,0.9,"stim/13.jpeg",1,3,3,NA,"HouseObjects",2,4,"right","right",0.620999813,1,1,1,1,NA,NA,NA,NA,NA,NA,NA,NA,NA,NA,NA,NA,NA,NA,NA,NA,NA,NA,NA,NA,NA,NA,NA,NA
"233","stim/objects/Instruments/hihat2.png",35,26,35,0.9,"stim/24.jpeg",2,4,3,NA,"Instruments",1,4,"left","left",0.562999964,1,1,1,1,NA,NA,NA,NA,NA,NA,NA,NA,NA,NA,NA,NA,NA,NA,NA,NA,NA,NA,NA,NA,NA,NA,NA,NA
"229","stim/objects/Instruments/hihat.png",36,26,36,0.3,"stim/54.jpeg",5,4,2,NA,"Instruments",1,2,"left","right",0.595000029,0,0,1,1,NA,NA,NA,NA,NA,NA,NA,NA,NA,NA,NA,NA,NA,NA,NA,NA,NA,NA,NA,NA,NA,NA,NA,NA
"162","stim/objects/Instruments/flute2.png",37,26,37,0.7,"stim/64.jpeg",6,4,2,NA,"Instruments",1,4,"left","left",0.693000078,1,1,1,1,NA,NA,NA,NA,NA,NA,NA,NA,NA,NA,NA,NA,NA,NA,NA,NA,NA,NA,NA,NA,NA,NA,NA,NA
"126","stim/objects/Instruments/drums2.png",38,26,38,0.7,"stim/61.jpeg",6,1,2,NA,"Instruments",1,1,"left","right",0.657000065,0,0,1,1,NA,NA,NA,NA,NA,NA,NA,NA,NA,NA,NA,NA,NA,NA,NA,NA,NA,NA,NA,NA,NA,NA,NA,NA
"150","stim/objects/Instruments/electricguitar2.png",39,26,39,0.7,"stim/63.jpeg",6,3,2,NA,"Instruments",1,3,"left","left",0.779000044,1,1,1,1,NA,NA,NA,NA,NA,NA,NA,NA,NA,NA,NA,NA,NA,NA,NA,NA,NA,NA,NA,NA,NA,NA,NA,NA
"163","stim/objects/Instruments/flute2.png",40,26,40,0.7,"stim/64.jpeg",6,4,2,NA,"Instruments",1,2,"left","right",0.633999825,0,0,1,1,NA,NA,NA,NA,NA,NA,NA,NA,NA,NA,NA,NA,NA,NA,NA,NA,NA,NA,NA,NA,NA,NA,NA,NA
"96","stim/objects/HouseObjects/glassmop2.png",41,26,41,0.1,"stim/21.jpeg",2,1,3,NA,"HouseObjects",2,3,"right","left",0.573999882,0,0,1,1,NA,NA,NA,NA,NA,NA,NA,NA,NA,NA,NA,NA,NA,NA,NA,NA,NA,NA,NA,NA,NA,NA,NA,NA
"193","stim/objects/Instruments/guitarcase.png",42,26,42,0.3,"stim/51.jpeg",5,1,2,NA,"Instruments",1,1,"left","left",0.837999821,1,1,1,1,NA,NA,NA,NA,NA,NA,NA,NA,NA,NA,NA,NA,NA,NA,NA,NA,NA,NA,NA,NA,NA,NA,NA,NA
"114","stim/objects/HouseObjects/handvacuum.png",43,26,43,0.7,"stim/54.jpeg",5,4,2,NA,"HouseObjects",2,2,"right","right",0.588999987,1,1,1,1,NA,NA,NA,NA,NA,NA,NA,NA,NA,NA,NA,NA,NA,NA,NA,NA,NA,NA,NA,NA,NA,NA,NA,NA
"158","stim/objects/Instruments/flute.png",44,26,44,0.5,"stim/34.jpeg",3,4,1,NA,"Instruments",1,3,"left","left",0.636999846,1,1,1,1,NA,NA,NA,NA,NA,NA,NA,NA,NA,NA,NA,NA,NA,NA,NA,NA,NA,NA,NA,NA,NA,NA,NA,NA
"196","stim/objects/Instruments/guitarcase2.png",45,26,45,0.9,"stim/21.jpeg",2,1,3,NA,"Instruments",1,2,"left","left",0.840999842,1,1,1,1,NA,NA,NA,NA,NA,NA,NA,NA,NA,NA,NA,NA,NA,NA,NA,NA,NA,NA,NA,NA,NA,NA,NA,NA
"139","stim/objects/Instruments/electricdrumset2.png",46,26,46,0.7,"stim/62.jpeg",6,2,2,NA,"Instruments",1,1,"left","left",0.631999969,1,1,1,1,NA,NA,NA,NA,NA,NA,NA,NA,NA,NA,NA,NA,NA,NA,NA,NA,NA,NA,NA,NA,NA,NA,NA,NA
"90","stim/objects/HouseObjects/glassmop.png",47,26,47,0.7,"stim/51.jpeg",5,1,2,NA,"HouseObjects",2,3,"right","right",0.706999779,1,1,1,1,NA,NA,NA,NA,NA,NA,NA,NA,NA,NA,NA,NA,NA,NA,NA,NA,NA,NA,NA,NA,NA,NA,NA,NA
"159","stim/objects/Instruments/flute.png",48,26,48,0.5,"stim/34.jpeg",3,4,1,NA,"Instruments",1,3,"left","right",0.647000074,0,0,1,1,NA,NA,NA,NA,NA,NA,NA,NA,NA,NA,NA,NA,NA,NA,NA,NA,NA,NA,NA,NA,NA,NA,NA,NA
"105","stim/objects/HouseObjects/handbrush.png",49,26,49,0.7,"stim/53.jpeg",5,3,2,NA,"HouseObjects",2,3,"right","left",0.79399991,0,0,1,1,NA,NA,NA,NA,NA,NA,NA,NA,NA,NA,NA,NA,NA,NA,NA,NA,NA,NA,NA,NA,NA,NA,NA,NA
"14","stim/objects/HouseObjects/cushion2.png",50,26,50,0.3,"stim/62.jpeg",6,2,2,NA,"HouseObjects",2,4,"right","left",0.591999769,0,0,1,1,NA,NA,NA,NA,NA,NA,NA,NA,NA,NA,NA,NA,NA,NA,NA,NA,NA,NA,NA,NA,NA,NA,NA,NA
"75","stim/objects/HouseObjects/glass.png",51,26,51,0.5,"stim/44.jpeg",4,4,1,NA,"HouseObjects",2,1,"right","right",0.59100008,1,1,1,1,NA,NA,NA,NA,NA,NA,NA,NA,NA,NA,NA,NA,NA,NA,NA,NA,NA,NA,NA,NA,NA,NA,NA,NA
"76","stim/objects/HouseObjects/glass.png",52,26,52,0.5,"stim/44.jpeg",4,4,1,NA,"HouseObjects",2,3,"right","left",0.614999771,0,0,1,1,NA,NA,NA,NA,NA,NA,NA,NA,NA,NA,NA,NA,NA,NA,NA,NA,NA,NA,NA,NA,NA,NA,NA,NA
"127","stim/objects/Instruments/drums2.png",53,26,53,0.7,"stim/61.jpeg",6,1,2,NA,"Instruments",1,2,"left","left",0.651000023,1,1,1,1,NA,NA,NA,NA,NA,NA,NA,NA,NA,NA,NA,NA,NA,NA,NA,NA,NA,NA,NA,NA,NA,NA,NA,NA
"197","stim/objects/Instruments/guitarcase2.png",54,26,54,0.9,"stim/21.jpeg",2,1,3,NA,"Instruments",1,1,"left","left",0.60199976,1,1,1,1,NA,NA,NA,NA,NA,NA,NA,NA,NA,NA,NA,NA,NA,NA,NA,NA,NA,NA,NA,NA,NA,NA,NA,NA
"209","stim/objects/Instruments/harmonica2.png",55,26,55,0.9,"stim/22.jpeg",2,2,3,NA,"Instruments",1,4,"left","right",0.493000031,0,0,1,1,NA,NA,NA,NA,NA,NA,NA,NA,NA,NA,NA,NA,NA,NA,NA,NA,NA,NA,NA,NA,NA,NA,NA,NA
"106","stim/objects/HouseObjects/handbrush.png",56,26,56,0.7,"stim/53.jpeg",5,3,2,NA,"HouseObjects",2,3,"right","right",0.674999952,1,1,1,1,NA,NA,NA,NA,NA,NA,NA,NA,NA,NA,NA,NA,NA,NA,NA,NA,NA,NA,NA,NA,NA,NA,NA,NA
"40","stim/objects/HouseObjects/dustpan2.png",57,26,57,0.9,"stim/11.jpeg",1,1,3,NA,"HouseObjects",2,2,"right","right",0.641999722,1,1,1,1,NA,NA,NA,NA,NA,NA,NA,NA,NA,NA,NA,NA,NA,NA,NA,NA,NA,NA,NA,NA,NA,NA,NA,NA
"224","stim/objects/Instruments/harp2.png",58,26,58,0.9,"stim/23.jpeg",2,3,3,NA,"Instruments",1,3,"left","left",0.483999968,1,1,1,1,NA,NA,NA,NA,NA,NA,NA,NA,NA,NA,NA,NA,NA,NA,NA,NA,NA,NA,NA,NA,NA,NA,NA,NA
"134","stim/objects/Instruments/electricdrumset.png",59,26,59,0.5,"stim/32.jpeg",3,2,1,NA,"Instruments",1,4,"left","right",0.797999859,0,0,1,1,NA,NA,NA,NA,NA,NA,NA,NA,NA,NA,NA,NA,NA,NA,NA,NA,NA,NA,NA,NA,NA,NA,NA,NA
"81","stim/objects/HouseObjects/glass2.png",60,26,60,0.9,"stim/14.jpeg",1,4,3,NA,"HouseObjects",2,1,"right","right",0.588999987,1,1,1,1,NA,NA,NA,NA,NA,NA,NA,NA,NA,NA,NA,NA,NA,NA,NA,NA,NA,NA,NA,NA,NA,NA,NA,NA
"9","stim/objects/HouseObjects/cushion.png",61,26,61,0.5,"stim/32.jpeg",3,2,1,NA,"HouseObjects",2,3,"right","right",0.739999771,1,1,1,1,NA,NA,NA,NA,NA,NA,NA,NA,NA,NA,NA,NA,NA,NA,NA,NA,NA,NA,NA,NA,NA,NA,NA,NA
"210","stim/objects/Instruments/harmonica2.png",62,26,62,0.9,"stim/22.jpeg",2,2,3,NA,"Instruments",1,3,"left","left",0.54399991,1,1,1,1,NA,NA,NA,NA,NA,NA,NA,NA,NA,NA,NA,NA,NA,NA,NA,NA,NA,NA,NA,NA,NA,NA,NA,NA
"41","stim/objects/HouseObjects/dustpan2.png",63,26,63,0.9,"stim/11.jpeg",1,1,3,NA,"HouseObjects",2,4,"right","right",0.588000059,1,1,1,1,NA,NA,NA,NA,NA,NA,NA,NA,NA,NA,NA,NA,NA,NA,NA,NA,NA,NA,NA,NA,NA,NA,NA,NA
"194","stim/objects/Instruments/guitarcase.png",64,26,64,0.3,"stim/51.jpeg",5,1,2,NA,"Instruments",1,3,"left","right",0.554999828,0,0,1,1,NA,NA,NA,NA,NA,NA,NA,NA,NA,NA,NA,NA,NA,NA,NA,NA,NA,NA,NA,NA,NA,NA,NA,NA
"91","stim/objects/HouseObjects/glassmop.png",65,26,65,0.7,"stim/51.jpeg",5,1,2,NA,"HouseObjects",2,2,"right","right",0.645999908,1,1,1,1,NA,NA,NA,NA,NA,NA,NA,NA,NA,NA,NA,NA,NA,NA,NA,NA,NA,NA,NA,NA,NA,NA,NA,NA
"61","stim/objects/HouseObjects/garbagebin.png",66,26,66,0.5,"stim/43.jpeg",4,3,1,NA,"HouseObjects",2,1,"right","left",0.717999935,0,0,1,1,NA,NA,NA,NA,NA,NA,NA,NA,NA,NA,NA,NA,NA,NA,NA,NA,NA,NA,NA,NA,NA,NA,NA,NA
"115","stim/objects/HouseObjects/handvacuum.png",67,26,67,0.7,"stim/54.jpeg",5,4,2,NA,"HouseObjects",2,4,"right","right",0.596999884,1,1,1,1,NA,NA,NA,NA,NA,NA,NA,NA,NA,NA,NA,NA,NA,NA,NA,NA,NA,NA,NA,NA,NA,NA,NA,NA
"69","stim/objects/HouseObjects/garbagebin2.png",68,26,68,0.9,"stim/13.jpeg",1,3,3,NA,"HouseObjects",2,1,"right","right",0.580999851,1,1,1,1,NA,NA,NA,NA,NA,NA,NA,NA,NA,NA,NA,NA,NA,NA,NA,NA,NA,NA,NA,NA,NA,NA,NA,NA
"62","stim/objects/HouseObjects/garbagebin.png",69,26,69,0.5,"stim/43.jpeg",4,3,1,NA,"HouseObjects",2,1,"right","left",0.893999815,0,0,1,1,NA,NA,NA,NA,NA,NA,NA,NA,NA,NA,NA,NA,NA,NA,NA,NA,NA,NA,NA,NA,NA,NA,NA,NA
"107","stim/objects/HouseObjects/handbrush.png",70,26,70,0.7,"stim/53.jpeg",5,3,2,NA,"HouseObjects",2,3,"right","right",0.680999994,1,1,1,1,NA,NA,NA,NA,NA,NA,NA,NA,NA,NA,NA,NA,NA,NA,NA,NA,NA,NA,NA,NA,NA,NA,NA,NA
"174","stim/objects/Instruments/flutetrans2.png",71,26,71,0.1,"stim/11.jpeg",1,1,3,NA,"Instruments",1,3,"left","right",0.556999922,0,0,1,1,NA,NA,NA,NA,NA,NA,NA,NA,NA,NA,NA,NA,NA,NA,NA,NA,NA,NA,NA,NA,NA,NA,NA,NA
"99","stim/objects/HouseObjects/hairdryer.png",72,26,72,0.7,"stim/52.jpeg",5,2,2,NA,"HouseObjects",2,4,"right","left",0.683999777,0,0,1,1,NA,NA,NA,NA,NA,NA,NA,NA,NA,NA,NA,NA,NA,NA,NA,NA,NA,NA,NA,NA,NA,NA,NA,NA
"63","stim/objects/HouseObjects/garbagebin.png",73,26,73,0.5,"stim/43.jpeg",4,3,1,NA,"HouseObjects",2,4,"right","left",0.816999912,0,0,1,1,NA,NA,NA,NA,NA,NA,NA,NA,NA,NA,NA,NA,NA,NA,NA,NA,NA,NA,NA,NA,NA,NA,NA,NA
"122","stim/objects/Instruments/drums.png",74,26,74,0.5,"stim/31.jpeg",3,1,1,NA,"Instruments",1,1,"left","right",0.752000093,0,0,1,1,NA,NA,NA,NA,NA,NA,NA,NA,NA,NA,NA,NA,NA,NA,NA,NA,NA,NA,NA,NA,NA,NA,NA,NA
"54","stim/objects/HouseObjects/flyswatter2.png",75,26,75,0.9,"stim/12.jpeg",1,2,3,NA,"HouseObjects",2,4,"right","right",0.579999924,1,1,1,1,NA,NA,NA,NA,NA,NA,NA,NA,NA,NA,NA,NA,NA,NA,NA,NA,NA,NA,NA,NA,NA,NA,NA,NA
"146","stim/objects/Instruments/electricguitar.png",76,26,76,0.5,"stim/33.jpeg",3,3,1,NA,"Instruments",1,1,"left","left",0.740999937,1,1,1,1,NA,NA,NA,NA,NA,NA,NA,NA,NA,NA,NA,NA,NA,NA,NA,NA,NA,NA,NA,NA,NA,NA,NA,NA
"211","stim/objects/Instruments/harmonica2.png",77,26,77,0.9,"stim/22.jpeg",2,2,3,NA,"Instruments",1,3,"left","left",0.568000078,1,1,1,1,NA,NA,NA,NA,NA,NA,NA,NA,NA,NA,NA,NA,NA,NA,NA,NA,NA,NA,NA,NA,NA,NA,NA,NA
"128","stim/objects/Instruments/drums2.png",78,26,78,0.7,"stim/61.jpeg",6,1,2,NA,"Instruments",1,1,"left","left",0.54399991,1,1,1,1,NA,NA,NA,NA,NA,NA,NA,NA,NA,NA,NA,NA,NA,NA,NA,NA,NA,NA,NA,NA,NA,NA,NA,NA
"15","stim/objects/HouseObjects/cushion2.png",79,26,79,0.3,"stim/62.jpeg",6,2,2,NA,"HouseObjects",2,1,"right","left",0.846999884,0,0,1,1,NA,NA,NA,NA,NA,NA,NA,NA,NA,NA,NA,NA,NA,NA,NA,NA,NA,NA,NA,NA,NA,NA,NA,NA
"1","stim/objects/HouseObjects/coffee.png",80,26,80,0.5,"stim/31.jpeg",3,1,1,NA,"HouseObjects",2,4,"right","",NA,0,0,1,1,NA,NA,NA,NA,NA,NA,NA,NA,NA,NA,NA,NA,NA,NA,NA,NA,NA,NA,NA,NA,NA,NA,NA,NA
"182","stim/objects/Instruments/gong.png",81,26,81,0.5,"stim/43.jpeg",4,3,1,NA,"Instruments",1,4,"left","left",0.772000074,1,1,1,1,NA,NA,NA,NA,NA,NA,NA,NA,NA,NA,NA,NA,NA,NA,NA,NA,NA,NA,NA,NA,NA,NA,NA,NA
"16","stim/objects/HouseObjects/cushion2.png",82,26,82,0.3,"stim/62.jpeg",6,2,2,NA,"HouseObjects",2,2,"right","right",0.751999855,1,1,1,1,NA,NA,NA,NA,NA,NA,NA,NA,NA,NA,NA,NA,NA,NA,NA,NA,NA,NA,NA,NA,NA,NA,NA,NA
"140","stim/objects/Instruments/electricdrumset2.png",83,26,83,0.7,"stim/62.jpeg",6,2,2,NA,"Instruments",1,3,"left","right",0.498999834,0,0,1,1,NA,NA,NA,NA,NA,NA,NA,NA,NA,NA,NA,NA,NA,NA,NA,NA,NA,NA,NA,NA,NA,NA,NA,NA
"135","stim/objects/Instruments/electricdrumset.png",84,26,84,0.5,"stim/32.jpeg",3,2,1,NA,"Instruments",1,4,"left","left",0.657999992,1,1,1,1,NA,NA,NA,NA,NA,NA,NA,NA,NA,NA,NA,NA,NA,NA,NA,NA,NA,NA,NA,NA,NA,NA,NA,NA
"55","stim/objects/HouseObjects/flyswatter2.png",85,26,85,0.9,"stim/12.jpeg",1,2,3,NA,"HouseObjects",2,2,"right","right",0.51699996,1,1,1,1,NA,NA,NA,NA,NA,NA,NA,NA,NA,NA,NA,NA,NA,NA,NA,NA,NA,NA,NA,NA,NA,NA,NA,NA
"56","stim/objects/HouseObjects/flyswatter2.png",86,26,86,0.9,"stim/12.jpeg",1,2,3,NA,"HouseObjects",2,2,"right","right",0.436000109,1,1,1,1,NA,NA,NA,NA,NA,NA,NA,NA,NA,NA,NA,NA,NA,NA,NA,NA,NA,NA,NA,NA,NA,NA,NA,NA
"18","stim/objects/HouseObjects/dishsoap.png",87,26,87,0.5,"stim/33.jpeg",3,3,1,NA,"HouseObjects",2,3,"right","left",0.532999992,0,0,1,1,NA,NA,NA,NA,NA,NA,NA,NA,NA,NA,NA,NA,NA,NA,NA,NA,NA,NA,NA,NA,NA,NA,NA,NA
"123","stim/objects/Instruments/drums.png",88,26,88,0.5,"stim/31.jpeg",3,1,1,NA,"Instruments",1,1,"left","left",0.825000048,1,1,1,1,NA,NA,NA,NA,NA,NA,NA,NA,NA,NA,NA,NA,NA,NA,NA,NA,NA,NA,NA,NA,NA,NA,NA,NA
"108","stim/objects/HouseObjects/handbrush.png",89,26,89,0.7,"stim/53.jpeg",5,3,2,NA,"HouseObjects",2,2,"right","right",0.694000006,1,1,1,1,NA,NA,NA,NA,NA,NA,NA,NA,NA,NA,NA,NA,NA,NA,NA,NA,NA,NA,NA,NA,NA,NA,NA,NA
"92","stim/objects/HouseObjects/glassmop.png",90,26,90,0.7,"stim/51.jpeg",5,1,2,NA,"HouseObjects",2,4,"right","left",0.555000067,0,0,1,1,NA,NA,NA,NA,NA,NA,NA,NA,NA,NA,NA,NA,NA,NA,NA,NA,NA,NA,NA,NA,NA,NA,NA,NA
"147","stim/objects/Instruments/electricguitar.png",91,26,91,0.5,"stim/33.jpeg",3,3,1,NA,"Instruments",1,1,"left","right",0.503999949,0,0,1,1,NA,NA,NA,NA,NA,NA,NA,NA,NA,NA,NA,NA,NA,NA,NA,NA,NA,NA,NA,NA,NA,NA,NA,NA
"198","stim/objects/Instruments/guitarcase2.png",92,26,92,0.9,"stim/21.jpeg",2,1,3,NA,"Instruments",1,2,"left","left",0.616999865,1,1,1,1,NA,NA,NA,NA,NA,NA,NA,NA,NA,NA,NA,NA,NA,NA,NA,NA,NA,NA,NA,NA,NA,NA,NA,NA
"22","stim/objects/HouseObjects/dishsoap2.png",93,26,93,0.3,"stim/63.jpeg",6,3,2,NA,"HouseObjects",2,4,"right","left",0.608999729,0,0,1,1,NA,NA,NA,NA,NA,NA,NA,NA,NA,NA,NA,NA,NA,NA,NA,NA,NA,NA,NA,NA,NA,NA,NA,NA
"225","stim/objects/Instruments/harp2.png",94,26,94,0.9,"stim/23.jpeg",2,3,3,NA,"Instruments",1,1,"left","left",0.605000019,1,1,1,1,NA,NA,NA,NA,NA,NA,NA,NA,NA,NA,NA,NA,NA,NA,NA,NA,NA,NA,NA,NA,NA,NA,NA,NA
"70","stim/objects/HouseObjects/garbagebin2.png",95,26,95,0.9,"stim/13.jpeg",1,3,3,NA,"HouseObjects",2,2,"right","right",0.571000099,1,1,1,1,NA,NA,NA,NA,NA,NA,NA,NA,NA,NA,NA,NA,NA,NA,NA,NA,NA,NA,NA,NA,NA,NA,NA,NA
"64","stim/objects/HouseObjects/garbagebin.png",96,26,96,0.5,"stim/43.jpeg",4,3,1,NA,"HouseObjects",2,3,"right","left",0.684999943,0,0,1,1,NA,NA,NA,NA,NA,NA,NA,NA,NA,NA,NA,NA,NA,NA,NA,NA,NA,NA,NA,NA,NA,NA,NA,NA
"100","stim/objects/HouseObjects/hairdryer.png",97,26,97,0.7,"stim/52.jpeg",5,2,2,NA,"HouseObjects",2,1,"right","right",0.553999901,1,1,1,1,NA,NA,NA,NA,NA,NA,NA,NA,NA,NA,NA,NA,NA,NA,NA,NA,NA,NA,NA,NA,NA,NA,NA,NA
"234","stim/objects/Instruments/hihat2.png",98,26,98,0.9,"stim/24.jpeg",2,4,3,NA,"Instruments",1,4,"left","left",0.519999743,1,1,1,1,NA,NA,NA,NA,NA,NA,NA,NA,NA,NA,NA,NA,NA,NA,NA,NA,NA,NA,NA,NA,NA,NA,NA,NA
"57","stim/objects/HouseObjects/flyswatter2.png",99,26,99,0.9,"stim/12.jpeg",1,2,3,NA,"HouseObjects",2,4,"right","right",0.500999928,1,1,1,1,NA,NA,NA,NA,NA,NA,NA,NA,NA,NA,NA,NA,NA,NA,NA,NA,NA,NA,NA,NA,NA,NA,NA,NA
"71","stim/objects/HouseObjects/garbagebin2.png",100,26,100,0.9,"stim/13.jpeg",1,3,3,NA,"HouseObjects",2,3,"right","right",0.574999809,1,1,1,1,NA,NA,NA,NA,NA,NA,NA,NA,NA,NA,NA,NA,NA,NA,NA,NA,NA,NA,NA,NA,NA,NA,NA,NA
"82","stim/objects/HouseObjects/glass2.png",101,26,101,0.9,"stim/14.jpeg",1,4,3,NA,"HouseObjects",2,3,"right","right",0.566999912,1,1,1,1,NA,NA,NA,NA,NA,NA,NA,NA,NA,NA,NA,NA,NA,NA,NA,NA,NA,NA,NA,NA,NA,NA,NA,NA
"235","stim/objects/Instruments/hihat2.png",102,26,102,0.9,"stim/24.jpeg",2,4,3,NA,"Instruments",1,3,"left","left",0.529999733,1,1,1,1,NA,NA,NA,NA,NA,NA,NA,NA,NA,NA,NA,NA,NA,NA,NA,NA,NA,NA,NA,NA,NA,NA,NA,NA
"49","stim/objects/HouseObjects/flyswatter.png",103,26,103,0.5,"stim/42.jpeg",4,2,1,NA,"HouseObjects",2,2,"right","left",0.769000053,0,0,1,1,NA,NA,NA,NA,NA,NA,NA,NA,NA,NA,NA,NA,NA,NA,NA,NA,NA,NA,NA,NA,NA,NA,NA,NA
"129","stim/objects/Instruments/drums2.png",104,26,104,0.7,"stim/61.jpeg",6,1,2,NA,"Instruments",1,3,"left","left",0.613999844,1,1,1,1,NA,NA,NA,NA,NA,NA,NA,NA,NA,NA,NA,NA,NA,NA,NA,NA,NA,NA,NA,NA,NA,NA,NA,NA
"199","stim/objects/Instruments/guitarcase2.png",105,26,105,0.9,"stim/21.jpeg",2,1,3,NA,"Instruments",1,4,"left","left",0.822999954,1,1,1,1,NA,NA,NA,NA,NA,NA,NA,NA,NA,NA,NA,NA,NA,NA,NA,NA,NA,NA,NA,NA,NA,NA,NA,NA
"164","stim/objects/Instruments/flute2.png",106,26,106,0.7,"stim/64.jpeg",6,4,2,NA,"Instruments",1,4,"left","right",0.832000017,0,0,1,1,NA,NA,NA,NA,NA,NA,NA,NA,NA,NA,NA,NA,NA,NA,NA,NA,NA,NA,NA,NA,NA,NA,NA,NA
"116","stim/objects/HouseObjects/handvacuum.png",107,26,107,0.7,"stim/54.jpeg",5,4,2,NA,"HouseObjects",2,4,"right","",NA,0,0,1,1,NA,NA,NA,NA,NA,NA,NA,NA,NA,NA,NA,NA,NA,NA,NA,NA,NA,NA,NA,NA,NA,NA,NA,NA
"72","stim/objects/HouseObjects/garbagebin2.png",108,26,108,0.9,"stim/13.jpeg",1,3,3,NA,"HouseObjects",2,3,"right","right",0.666999817,1,1,1,1,NA,NA,NA,NA,NA,NA,NA,NA,NA,NA,NA,NA,NA,NA,NA,NA,NA,NA,NA,NA,NA,NA,NA,NA
"93","stim/objects/HouseObjects/glassmop.png",109,26,109,0.7,"stim/51.jpeg",5,1,2,NA,"HouseObjects",2,4,"right","left",0.669999838,0,0,1,1,NA,NA,NA,NA,NA,NA,NA,NA,NA,NA,NA,NA,NA,NA,NA,NA,NA,NA,NA,NA,NA,NA,NA,NA
"151","stim/objects/Instruments/electricguitar2.png",110,26,110,0.7,"stim/63.jpeg",6,3,2,NA,"Instruments",1,2,"left","right",0.257999897,0,0,1,1,NA,NA,NA,NA,NA,NA,NA,NA,NA,NA,NA,NA,NA,NA,NA,NA,NA,NA,NA,NA,NA,NA,NA,NA
"130","stim/objects/Instruments/drums2.png",111,26,111,0.7,"stim/61.jpeg",6,1,2,NA,"Instruments",1,4,"left","left",0.634000063,1,1,1,1,NA,NA,NA,NA,NA,NA,NA,NA,NA,NA,NA,NA,NA,NA,NA,NA,NA,NA,NA,NA,NA,NA,NA,NA
"50","stim/objects/HouseObjects/flyswatter.png",112,26,112,0.5,"stim/42.jpeg",4,2,1,NA,"HouseObjects",2,4,"right","right",0.437999964,1,1,1,1,NA,NA,NA,NA,NA,NA,NA,NA,NA,NA,NA,NA,NA,NA,NA,NA,NA,NA,NA,NA,NA,NA,NA,NA
"10","stim/objects/HouseObjects/cushion.png",113,26,113,0.5,"stim/32.jpeg",3,2,1,NA,"HouseObjects",2,1,"right","left",0.493999958,0,0,1,1,NA,NA,NA,NA,NA,NA,NA,NA,NA,NA,NA,NA,NA,NA,NA,NA,NA,NA,NA,NA,NA,NA,NA,NA
"200","stim/objects/Instruments/guitarcase2.png",114,26,114,0.9,"stim/21.jpeg",2,1,3,NA,"Instruments",1,1,"left","left",0.534999847,1,1,1,1,NA,NA,NA,NA,NA,NA,NA,NA,NA,NA,NA,NA,NA,NA,NA,NA,NA,NA,NA,NA,NA,NA,NA,NA
"175","stim/objects/Instruments/frenchhorn.png",115,26,115,0.5,"stim/42.jpeg",4,2,1,NA,"Instruments",1,3,"left","right",0.632999897,0,0,1,1,NA,NA,NA,NA,NA,NA,NA,NA,NA,NA,NA,NA,NA,NA,NA,NA,NA,NA,NA,NA,NA,NA,NA,NA
"206","stim/objects/Instruments/harmonica.png",116,26,116,0.3,"stim/52.jpeg",5,2,2,NA,"Instruments",1,2,"left","right",0.586999893,0,0,1,1,NA,NA,NA,NA,NA,NA,NA,NA,NA,NA,NA,NA,NA,NA,NA,NA,NA,NA,NA,NA,NA,NA,NA,NA
"42","stim/objects/HouseObjects/dustpan2.png",117,26,117,0.9,"stim/11.jpeg",1,1,3,NA,"HouseObjects",2,3,"right","right",0.777999878,1,1,1,1,NA,NA,NA,NA,NA,NA,NA,NA,NA,NA,NA,NA,NA,NA,NA,NA,NA,NA,NA,NA,NA,NA,NA,NA
"226","stim/objects/Instruments/harp2.png",118,26,118,0.9,"stim/23.jpeg",2,3,3,NA,"Instruments",1,3,"left","left",0.505000114,1,1,1,1,NA,NA,NA,NA,NA,NA,NA,NA,NA,NA,NA,NA,NA,NA,NA,NA,NA,NA,NA,NA,NA,NA,NA,NA
"65","stim/objects/HouseObjects/garbagebin.png",119,26,119,0.5,"stim/43.jpeg",4,3,1,NA,"HouseObjects",2,3,"right","right",0.638999939,1,1,1,1,NA,NA,NA,NA,NA,NA,NA,NA,NA,NA,NA,NA,NA,NA,NA,NA,NA,NA,NA,NA,NA,NA,NA,NA
"30","stim/objects/HouseObjects/doormat2.png",120,26,120,0.3,"stim/64.jpeg",6,4,2,NA,"HouseObjects",2,1,"right","left",0.528000116,0,0,1,1,NA,NA,NA,NA,NA,NA,NA,NA,NA,NA,NA,NA,NA,NA,NA,NA,NA,NA,NA,NA,NA,NA,NA,NA
"189","stim/objects/Instruments/grandpiano.png",121,26,121,0.5,"stim/44.jpeg",4,4,1,NA,"Instruments",1,4,"left","left",0.790999889,1,1,1,1,NA,NA,NA,NA,NA,NA,NA,NA,NA,NA,NA,NA,NA,NA,NA,NA,NA,NA,NA,NA,NA,NA,NA,NA
"136","stim/objects/Instruments/electricdrumset.png",122,26,122,0.5,"stim/32.jpeg",3,2,1,NA,"Instruments",1,2,"left","right",0.726000071,0,0,1,1,NA,NA,NA,NA,NA,NA,NA,NA,NA,NA,NA,NA,NA,NA,NA,NA,NA,NA,NA,NA,NA,NA,NA,NA
"11","stim/objects/HouseObjects/cushion.png",123,26,123,0.5,"stim/32.jpeg",3,2,1,NA,"HouseObjects",2,4,"right","",NA,0,0,1,1,NA,NA,NA,NA,NA,NA,NA,NA,NA,NA,NA,NA,NA,NA,NA,NA,NA,NA,NA,NA,NA,NA,NA,NA
"2","stim/objects/HouseObjects/coffee.png",124,26,124,0.5,"stim/31.jpeg",3,1,1,NA,"HouseObjects",2,1,"right","left",0.759000063,0,0,1,1,NA,NA,NA,NA,NA,NA,NA,NA,NA,NA,NA,NA,NA,NA,NA,NA,NA,NA,NA,NA,NA,NA,NA,NA
"160","stim/objects/Instruments/flute.png",125,26,125,0.5,"stim/34.jpeg",3,4,1,NA,"Instruments",1,1,"left","right",0.479999781,0,0,1,1,NA,NA,NA,NA,NA,NA,NA,NA,NA,NA,NA,NA,NA,NA,NA,NA,NA,NA,NA,NA,NA,NA,NA,NA
"190","stim/objects/Instruments/grandpiano.png",126,26,126,0.5,"stim/44.jpeg",4,4,1,NA,"Instruments",1,2,"left","left",0.602999926,1,1,1,1,NA,NA,NA,NA,NA,NA,NA,NA,NA,NA,NA,NA,NA,NA,NA,NA,NA,NA,NA,NA,NA,NA,NA,NA
"131","stim/objects/Instruments/drums2.png",127,26,127,0.7,"stim/61.jpeg",6,1,2,NA,"Instruments",1,4,"left","left",0.536000013,1,1,1,1,NA,NA,NA,NA,NA,NA,NA,NA,NA,NA,NA,NA,NA,NA,NA,NA,NA,NA,NA,NA,NA,NA,NA,NA
"165","stim/objects/Instruments/flute2.png",128,26,128,0.7,"stim/64.jpeg",6,4,2,NA,"Instruments",1,2,"left","right",0.710000038,0,0,1,1,NA,NA,NA,NA,NA,NA,NA,NA,NA,NA,NA,NA,NA,NA,NA,NA,NA,NA,NA,NA,NA,NA,NA,NA
"212","stim/objects/Instruments/harmonica2.png",129,26,129,0.9,"stim/22.jpeg",2,2,3,NA,"Instruments",1,4,"left","left",0.562000036,1,1,1,1,NA,NA,NA,NA,NA,NA,NA,NA,NA,NA,NA,NA,NA,NA,NA,NA,NA,NA,NA,NA,NA,NA,NA,NA
"217","stim/objects/Instruments/harp.png",130,26,130,0.3,"stim/53.jpeg",5,3,2,NA,"Instruments",1,4,"left","left",0.769999981,1,1,1,1,NA,NA,NA,NA,NA,NA,NA,NA,NA,NA,NA,NA,NA,NA,NA,NA,NA,NA,NA,NA,NA,NA,NA,NA
"77","stim/objects/HouseObjects/glass.png",131,26,131,0.5,"stim/44.jpeg",4,4,1,NA,"HouseObjects",2,2,"right","right",0.753999949,1,1,1,1,NA,NA,NA,NA,NA,NA,NA,NA,NA,NA,NA,NA,NA,NA,NA,NA,NA,NA,NA,NA,NA,NA,NA,NA
"227","stim/objects/Instruments/harp2.png",132,26,132,0.9,"stim/23.jpeg",2,3,3,NA,"Instruments",1,1,"left","left",0.56799984,1,1,1,1,NA,NA,NA,NA,NA,NA,NA,NA,NA,NA,NA,NA,NA,NA,NA,NA,NA,NA,NA,NA,NA,NA,NA,NA
"152","stim/objects/Instruments/electricguitar2.png",133,26,133,0.7,"stim/63.jpeg",6,3,2,NA,"Instruments",1,2,"left","left",0.621999979,1,1,1,1,NA,NA,NA,NA,NA,NA,NA,NA,NA,NA,NA,NA,NA,NA,NA,NA,NA,NA,NA,NA,NA,NA,NA,NA
"153","stim/objects/Instruments/electricguitar2.png",134,26,134,0.7,"stim/63.jpeg",6,3,2,NA,"Instruments",1,4,"left","right",0.518999815,0,0,1,1,NA,NA,NA,NA,NA,NA,NA,NA,NA,NA,NA,NA,NA,NA,NA,NA,NA,NA,NA,NA,NA,NA,NA,NA
"78","stim/objects/HouseObjects/glass.png",135,26,135,0.5,"stim/44.jpeg",4,4,1,NA,"HouseObjects",2,3,"right","right",0.602999926,1,1,1,1,NA,NA,NA,NA,NA,NA,NA,NA,NA,NA,NA,NA,NA,NA,NA,NA,NA,NA,NA,NA,NA,NA,NA,NA
"176","stim/objects/Instruments/frenchhorn.png",136,26,136,0.5,"stim/42.jpeg",4,2,1,NA,"Instruments",1,4,"left","right",0.701999903,0,0,1,1,NA,NA,NA,NA,NA,NA,NA,NA,NA,NA,NA,NA,NA,NA,NA,NA,NA,NA,NA,NA,NA,NA,NA,NA
"236","stim/objects/Instruments/hihat2.png",137,26,137,0.9,"stim/24.jpeg",2,4,3,NA,"Instruments",1,1,"left","left",0.480000019,1,1,1,1,NA,NA,NA,NA,NA,NA,NA,NA,NA,NA,NA,NA,NA,NA,NA,NA,NA,NA,NA,NA,NA,NA,NA,NA
"27","stim/objects/HouseObjects/doormat.png",138,26,138,0.5,"stim/34.jpeg",3,4,1,NA,"HouseObjects",2,3,"right","right",0.213999987,1,1,1,1,NA,NA,NA,NA,NA,NA,NA,NA,NA,NA,NA,NA,NA,NA,NA,NA,NA,NA,NA,NA,NA,NA,NA,NA
"31","stim/objects/HouseObjects/doormat2.png",139,26,139,0.3,"stim/64.jpeg",6,4,2,NA,"HouseObjects",2,4,"right","left",0.802999973,0,0,1,1,NA,NA,NA,NA,NA,NA,NA,NA,NA,NA,NA,NA,NA,NA,NA,NA,NA,NA,NA,NA,NA,NA,NA,NA
"83","stim/objects/HouseObjects/glass2.png",140,26,140,0.9,"stim/14.jpeg",1,4,3,NA,"HouseObjects",2,2,"right","left",0.453999996,0,0,1,1,NA,NA,NA,NA,NA,NA,NA,NA,NA,NA,NA,NA,NA,NA,NA,NA,NA,NA,NA,NA,NA,NA,NA,NA
"3","stim/objects/HouseObjects/coffee.png",141,26,141,0.5,"stim/31.jpeg",3,1,1,NA,"HouseObjects",2,1,"right","right",0.653999805,1,1,1,1,NA,NA,NA,NA,NA,NA,NA,NA,NA,NA,NA,NA,NA,NA,NA,NA,NA,NA,NA,NA,NA,NA,NA,NA
"19","stim/objects/HouseObjects/dishsoap.png",142,26,142,0.5,"stim/33.jpeg",3,3,1,NA,"HouseObjects",2,3,"right","right",0.585999966,1,1,1,1,NA,NA,NA,NA,NA,NA,NA,NA,NA,NA,NA,NA,NA,NA,NA,NA,NA,NA,NA,NA,NA,NA,NA,NA
"51","stim/objects/HouseObjects/flyswatter.png",143,26,143,0.5,"stim/42.jpeg",4,2,1,NA,"HouseObjects",2,2,"right","right",0.747999907,1,1,1,1,NA,NA,NA,NA,NA,NA,NA,NA,NA,NA,NA,NA,NA,NA,NA,NA,NA,NA,NA,NA,NA,NA,NA,NA
"169","stim/objects/Instruments/flutetrans.png",144,26,144,0.5,"stim/41.jpeg",4,1,1,NA,"Instruments",1,2,"left","",NA,0,0,1,1,NA,NA,NA,NA,NA,NA,NA,NA,NA,NA,NA,NA,NA,NA,NA,NA,NA,NA,NA,NA,NA,NA,NA,NA
"34","stim/objects/HouseObjects/dustpan.png",145,26,145,0.5,"stim/41.jpeg",4,1,1,NA,"HouseObjects",2,1,"right","left",0.624999762,0,0,1,1,NA,NA,NA,NA,NA,NA,NA,NA,NA,NA,NA,NA,NA,NA,NA,NA,NA,NA,NA,NA,NA,NA,NA,NA
"58","stim/objects/HouseObjects/flyswatter2.png",146,26,146,0.9,"stim/12.jpeg",1,2,3,NA,"HouseObjects",2,3,"right","right",0.379999876,1,1,1,1,NA,NA,NA,NA,NA,NA,NA,NA,NA,NA,NA,NA,NA,NA,NA,NA,NA,NA,NA,NA,NA,NA,NA,NA
"218","stim/objects/Instruments/harp.png",147,26,147,0.3,"stim/53.jpeg",5,3,2,NA,"Instruments",1,1,"left","left",0.56799984,1,1,1,1,NA,NA,NA,NA,NA,NA,NA,NA,NA,NA,NA,NA,NA,NA,NA,NA,NA,NA,NA,NA,NA,NA,NA,NA
"109","stim/objects/HouseObjects/handbrush.png",148,26,148,0.7,"stim/53.jpeg",5,3,2,NA,"HouseObjects",2,3,"right","right",0.453000069,1,1,1,1,NA,NA,NA,NA,NA,NA,NA,NA,NA,NA,NA,NA,NA,NA,NA,NA,NA,NA,NA,NA,NA,NA,NA,NA
"191","stim/objects/Instruments/grandpiano.png",149,26,149,0.5,"stim/44.jpeg",4,4,1,NA,"Instruments",1,3,"left","right",0.704999924,0,0,1,1,NA,NA,NA,NA,NA,NA,NA,NA,NA,NA,NA,NA,NA,NA,NA,NA,NA,NA,NA,NA,NA,NA,NA,NA
"192","stim/objects/Instruments/grandpiano2.png",150,26,150,0.1,"stim/14.jpeg",1,4,3,NA,"Instruments",1,2,"left","right",0.557999849,0,0,1,1,NA,NA,NA,NA,NA,NA,NA,NA,NA,NA,NA,NA,NA,NA,NA,NA,NA,NA,NA,NA,NA,NA,NA,NA
"207","stim/objects/Instruments/harmonica.png",151,26,151,0.3,"stim/52.jpeg",5,2,2,NA,"Instruments",1,1,"left","left",0.405999899,1,1,1,1,NA,NA,NA,NA,NA,NA,NA,NA,NA,NA,NA,NA,NA,NA,NA,NA,NA,NA,NA,NA,NA,NA,NA,NA
"84","stim/objects/HouseObjects/glass2.png",152,26,152,0.9,"stim/14.jpeg",1,4,3,NA,"HouseObjects",2,1,"right","right",0.506000042,1,1,1,1,NA,NA,NA,NA,NA,NA,NA,NA,NA,NA,NA,NA,NA,NA,NA,NA,NA,NA,NA,NA,NA,NA,NA,NA
"20","stim/objects/HouseObjects/dishsoap.png",153,26,153,0.5,"stim/33.jpeg",3,3,1,NA,"HouseObjects",2,2,"right","right",0.463000059,1,1,1,1,NA,NA,NA,NA,NA,NA,NA,NA,NA,NA,NA,NA,NA,NA,NA,NA,NA,NA,NA,NA,NA,NA,NA,NA
"148","stim/objects/Instruments/electricguitar.png",154,26,154,0.5,"stim/33.jpeg",3,3,1,NA,"Instruments",1,3,"left","right",0.604999781,0,0,1,1,NA,NA,NA,NA,NA,NA,NA,NA,NA,NA,NA,NA,NA,NA,NA,NA,NA,NA,NA,NA,NA,NA,NA,NA
"12","stim/objects/HouseObjects/cushion.png",155,26,155,0.5,"stim/32.jpeg",3,2,1,NA,"HouseObjects",2,1,"right","right",0.718999863,1,1,1,1,NA,NA,NA,NA,NA,NA,NA,NA,NA,NA,NA,NA,NA,NA,NA,NA,NA,NA,NA,NA,NA,NA,NA,NA
"43","stim/objects/HouseObjects/dustpan2.png",156,26,156,0.9,"stim/11.jpeg",1,1,3,NA,"HouseObjects",2,3,"right","right",0.744999886,1,1,1,1,NA,NA,NA,NA,NA,NA,NA,NA,NA,NA,NA,NA,NA,NA,NA,NA,NA,NA,NA,NA,NA,NA,NA,NA
"101","stim/objects/HouseObjects/hairdryer.png",157,26,157,0.7,"stim/52.jpeg",5,2,2,NA,"HouseObjects",2,2,"right","right",0.888000011,1,1,1,1,NA,NA,NA,NA,NA,NA,NA,NA,NA,NA,NA,NA,NA,NA,NA,NA,NA,NA,NA,NA,NA,NA,NA,NA
"213","stim/objects/Instruments/harmonica2.png",158,26,158,0.9,"stim/22.jpeg",2,2,3,NA,"Instruments",1,3,"left","left",0.512000084,1,1,1,1,NA,NA,NA,NA,NA,NA,NA,NA,NA,NA,NA,NA,NA,NA,NA,NA,NA,NA,NA,NA,NA,NA,NA,NA
"177","stim/objects/Instruments/frenchhorn.png",159,26,159,0.5,"stim/42.jpeg",4,2,1,NA,"Instruments",1,4,"left","right",0.523999929,0,0,1,1,NA,NA,NA,NA,NA,NA,NA,NA,NA,NA,NA,NA,NA,NA,NA,NA,NA,NA,NA,NA,NA,NA,NA,NA
"183","stim/objects/Instruments/gong.png",160,26,160,0.5,"stim/43.jpeg",4,3,1,NA,"Instruments",1,2,"left","left",0.692000151,1,1,1,1,NA,NA,NA,NA,NA,NA,NA,NA,NA,NA,NA,NA,NA,NA,NA,NA,NA,NA,NA,NA,NA,NA,NA,NA
"154","stim/objects/Instruments/electricguitar2.png",161,26,161,0.7,"stim/63.jpeg",6,3,2,NA,"Instruments",1,3,"left","left",0.636999846,1,1,1,1,NA,NA,NA,NA,NA,NA,NA,NA,NA,NA,NA,NA,NA,NA,NA,NA,NA,NA,NA,NA,NA,NA,NA,NA
"35","stim/objects/HouseObjects/dustpan.png",162,26,162,0.5,"stim/41.jpeg",4,1,1,NA,"HouseObjects",2,4,"right","right",0.467000008,1,1,1,1,NA,NA,NA,NA,NA,NA,NA,NA,NA,NA,NA,NA,NA,NA,NA,NA,NA,NA,NA,NA,NA,NA,NA,NA
"117","stim/objects/HouseObjects/handvacuum.png",163,26,163,0.7,"stim/54.jpeg",5,4,2,NA,"HouseObjects",2,3,"right","right",0.656000137,1,1,1,1,NA,NA,NA,NA,NA,NA,NA,NA,NA,NA,NA,NA,NA,NA,NA,NA,NA,NA,NA,NA,NA,NA,NA,NA
"6","stim/objects/HouseObjects/coffee2.png",164,26,164,0.3,"stim/61.jpeg",6,1,2,NA,"HouseObjects",2,3,"right","left",0.538999796,0,0,1,1,NA,NA,NA,NA,NA,NA,NA,NA,NA,NA,NA,NA,NA,NA,NA,NA,NA,NA,NA,NA,NA,NA,NA,NA
"170","stim/objects/Instruments/flutetrans.png",165,26,165,0.5,"stim/41.jpeg",4,1,1,NA,"Instruments",1,2,"left","right",0.606999874,0,0,1,1,NA,NA,NA,NA,NA,NA,NA,NA,NA,NA,NA,NA,NA,NA,NA,NA,NA,NA,NA,NA,NA,NA,NA,NA
"184","stim/objects/Instruments/gong.png",166,26,166,0.5,"stim/43.jpeg",4,3,1,NA,"Instruments",1,2,"left","left",0.667999983,1,1,1,1,NA,NA,NA,NA,NA,NA,NA,NA,NA,NA,NA,NA,NA,NA,NA,NA,NA,NA,NA,NA,NA,NA,NA,NA
"44","stim/objects/HouseObjects/dustpan2.png",167,26,167,0.9,"stim/11.jpeg",1,1,3,NA,"HouseObjects",2,4,"right","right",0.573999882,1,1,1,1,NA,NA,NA,NA,NA,NA,NA,NA,NA,NA,NA,NA,NA,NA,NA,NA,NA,NA,NA,NA,NA,NA,NA,NA
"178","stim/objects/Instruments/frenchhorn.png",168,26,168,0.5,"stim/42.jpeg",4,2,1,NA,"Instruments",1,3,"left","right",0.673999786,0,0,1,1,NA,NA,NA,NA,NA,NA,NA,NA,NA,NA,NA,NA,NA,NA,NA,NA,NA,NA,NA,NA,NA,NA,NA,NA
"201","stim/objects/Instruments/guitarcase2.png",169,26,169,0.9,"stim/21.jpeg",2,1,3,NA,"Instruments",1,1,"left","left",0.505999804,1,1,1,1,NA,NA,NA,NA,NA,NA,NA,NA,NA,NA,NA,NA,NA,NA,NA,NA,NA,NA,NA,NA,NA,NA,NA,NA
"7","stim/objects/HouseObjects/coffee2.png",170,26,170,0.3,"stim/61.jpeg",6,1,2,NA,"HouseObjects",2,2,"right","left",0.571999788,0,0,1,1,NA,NA,NA,NA,NA,NA,NA,NA,NA,NA,NA,NA,NA,NA,NA,NA,NA,NA,NA,NA,NA,NA,NA,NA
"59","stim/objects/HouseObjects/flyswatter2.png",171,26,171,0.9,"stim/12.jpeg",1,2,3,NA,"HouseObjects",2,1,"right","right",0.467999935,1,1,1,1,NA,NA,NA,NA,NA,NA,NA,NA,NA,NA,NA,NA,NA,NA,NA,NA,NA,NA,NA,NA,NA,NA,NA,NA
"85","stim/objects/HouseObjects/glass2.png",172,26,172,0.9,"stim/14.jpeg",1,4,3,NA,"HouseObjects",2,2,"right","right",0.603999853,1,1,1,1,NA,NA,NA,NA,NA,NA,NA,NA,NA,NA,NA,NA,NA,NA,NA,NA,NA,NA,NA,NA,NA,NA,NA,NA
"166","stim/objects/Instruments/flute2.png",173,26,173,0.7,"stim/64.jpeg",6,4,2,NA,"Instruments",1,3,"left","right",0.761999846,0,0,1,1,NA,NA,NA,NA,NA,NA,NA,NA,NA,NA,NA,NA,NA,NA,NA,NA,NA,NA,NA,NA,NA,NA,NA,NA
"202","stim/objects/Instruments/guitarcase2.png",174,26,174,0.9,"stim/21.jpeg",2,1,3,NA,"Instruments",1,2,"left","",NA,0,0,1,1,NA,NA,NA,NA,NA,NA,NA,NA,NA,NA,NA,NA,NA,NA,NA,NA,NA,NA,NA,NA,NA,NA,NA,NA
"149","stim/objects/Instruments/electricguitar.png",175,26,175,0.5,"stim/33.jpeg",3,3,1,NA,"Instruments",1,4,"left","right",0.421999931,0,0,1,1,NA,NA,NA,NA,NA,NA,NA,NA,NA,NA,NA,NA,NA,NA,NA,NA,NA,NA,NA,NA,NA,NA,NA,NA
"102","stim/objects/HouseObjects/hairdryer.png",176,26,176,0.7,"stim/52.jpeg",5,2,2,NA,"HouseObjects",2,2,"right","right",0.467999935,1,1,1,1,NA,NA,NA,NA,NA,NA,NA,NA,NA,NA,NA,NA,NA,NA,NA,NA,NA,NA,NA,NA,NA,NA,NA,NA
"94","stim/objects/HouseObjects/glassmop.png",177,26,177,0.7,"stim/51.jpeg",5,1,2,NA,"HouseObjects",2,3,"right","left",0.394999981,0,0,1,1,NA,NA,NA,NA,NA,NA,NA,NA,NA,NA,NA,NA,NA,NA,NA,NA,NA,NA,NA,NA,NA,NA,NA,NA
"110","stim/objects/HouseObjects/handbrush.png",178,26,178,0.7,"stim/53.jpeg",5,3,2,NA,"HouseObjects",2,2,"right","right",0.42599988,1,1,1,1,NA,NA,NA,NA,NA,NA,NA,NA,NA,NA,NA,NA,NA,NA,NA,NA,NA,NA,NA,NA,NA,NA,NA,NA
"237","stim/objects/Instruments/hihat2.png",179,26,179,0.9,"stim/24.jpeg",2,4,3,NA,"Instruments",1,3,"left","left",0.457999706,1,1,1,1,NA,NA,NA,NA,NA,NA,NA,NA,NA,NA,NA,NA,NA,NA,NA,NA,NA,NA,NA,NA,NA,NA,NA,NA
"4","stim/objects/HouseObjects/coffee.png",180,26,180,0.5,"stim/31.jpeg",3,1,1,NA,"HouseObjects",2,3,"right","right",0.703999996,1,1,1,1,NA,NA,NA,NA,NA,NA,NA,NA,NA,NA,NA,NA,NA,NA,NA,NA,NA,NA,NA,NA,NA,NA,NA,NA
"203","stim/objects/Instruments/guitarcase2.png",181,26,181,0.9,"stim/21.jpeg",2,1,3,NA,"Instruments",1,2,"left","left",0.56400013,1,1,1,1,NA,NA,NA,NA,NA,NA,NA,NA,NA,NA,NA,NA,NA,NA,NA,NA,NA,NA,NA,NA,NA,NA,NA,NA
"214","stim/objects/Instruments/harmonica2.png",182,26,182,0.9,"stim/22.jpeg",2,2,3,NA,"Instruments",1,4,"left","left",0.610999823,1,1,1,1,NA,NA,NA,NA,NA,NA,NA,NA,NA,NA,NA,NA,NA,NA,NA,NA,NA,NA,NA,NA,NA,NA,NA,NA
"79","stim/objects/HouseObjects/glass.png",183,26,183,0.5,"stim/44.jpeg",4,4,1,NA,"HouseObjects",2,4,"right","right",0.493999958,1,1,1,1,NA,NA,NA,NA,NA,NA,NA,NA,NA,NA,NA,NA,NA,NA,NA,NA,NA,NA,NA,NA,NA,NA,NA,NA
"28","stim/objects/HouseObjects/doormat.png",184,26,184,0.5,"stim/34.jpeg",3,4,1,NA,"HouseObjects",2,1,"right","right",0.569999933,1,1,1,1,NA,NA,NA,NA,NA,NA,NA,NA,NA,NA,NA,NA,NA,NA,NA,NA,NA,NA,NA,NA,NA,NA,NA,NA
"124","stim/objects/Instruments/drums.png",185,26,185,0.5,"stim/31.jpeg",3,1,1,NA,"Instruments",1,2,"left","right",0.501999855,0,0,1,1,NA,NA,NA,NA,NA,NA,NA,NA,NA,NA,NA,NA,NA,NA,NA,NA,NA,NA,NA,NA,NA,NA,NA,NA
"73","stim/objects/HouseObjects/garbagebin2.png",186,26,186,0.9,"stim/13.jpeg",1,3,3,NA,"HouseObjects",2,2,"right","right",0.571000099,1,1,1,1,NA,NA,NA,NA,NA,NA,NA,NA,NA,NA,NA,NA,NA,NA,NA,NA,NA,NA,NA,NA,NA,NA,NA,NA
"23","stim/objects/HouseObjects/dishsoap2.png",187,26,187,0.3,"stim/63.jpeg",6,3,2,NA,"HouseObjects",2,2,"right","left",0.503999949,0,0,1,1,NA,NA,NA,NA,NA,NA,NA,NA,NA,NA,NA,NA,NA,NA,NA,NA,NA,NA,NA,NA,NA,NA,NA,NA
"111","stim/objects/HouseObjects/handbrush.png",188,26,188,0.7,"stim/53.jpeg",5,3,2,NA,"HouseObjects",2,1,"right","right",0.441999912,1,1,1,1,NA,NA,NA,NA,NA,NA,NA,NA,NA,NA,NA,NA,NA,NA,NA,NA,NA,NA,NA,NA,NA,NA,NA,NA
"230","stim/objects/Instruments/hihat.png",189,26,189,0.3,"stim/54.jpeg",5,4,2,NA,"Instruments",1,2,"left","right",0.595999718,0,0,1,1,NA,NA,NA,NA,NA,NA,NA,NA,NA,NA,NA,NA,NA,NA,NA,NA,NA,NA,NA,NA,NA,NA,NA,NA
"141","stim/objects/Instruments/electricdrumset2.png",190,26,190,0.7,"stim/62.jpeg",6,2,2,NA,"Instruments",1,4,"left","left",0.552999973,1,1,1,1,NA,NA,NA,NA,NA,NA,NA,NA,NA,NA,NA,NA,NA,NA,NA,NA,NA,NA,NA,NA,NA,NA,NA,NA
"215","stim/objects/Instruments/harmonica2.png",191,26,191,0.9,"stim/22.jpeg",2,2,3,NA,"Instruments",1,2,"left","",NA,0,0,1,1,NA,NA,NA,NA,NA,NA,NA,NA,NA,NA,NA,NA,NA,NA,NA,NA,NA,NA,NA,NA,NA,NA,NA,NA
"180","stim/objects/Instruments/frenchhorn2.png",192,26,192,0.1,"stim/12.jpeg",1,2,3,NA,"Instruments",1,3,"left","right",0.570999861,0,0,1,1,NA,NA,NA,NA,NA,NA,NA,NA,NA,NA,NA,NA,NA,NA,NA,NA,NA,NA,NA,NA,NA,NA,NA,NA
"13","stim/objects/HouseObjects/cushion.png",193,26,193,0.5,"stim/32.jpeg",3,2,1,NA,"HouseObjects",2,1,"right","right",0.536999941,1,1,1,1,NA,NA,NA,NA,NA,NA,NA,NA,NA,NA,NA,NA,NA,NA,NA,NA,NA,NA,NA,NA,NA,NA,NA,NA
"204","stim/objects/Instruments/guitarcase2.png",194,26,194,0.9,"stim/21.jpeg",2,1,3,NA,"Instruments",1,1,"left","left",0.684000015,1,1,1,1,NA,NA,NA,NA,NA,NA,NA,NA,NA,NA,NA,NA,NA,NA,NA,NA,NA,NA,NA,NA,NA,NA,NA,NA
"185","stim/objects/Instruments/gong.png",195,26,195,0.5,"stim/43.jpeg",4,3,1,NA,"Instruments",1,4,"left","right",0.532999992,0,0,1,1,NA,NA,NA,NA,NA,NA,NA,NA,NA,NA,NA,NA,NA,NA,NA,NA,NA,NA,NA,NA,NA,NA,NA,NA
"238","stim/objects/Instruments/hihat2.png",196,26,196,0.9,"stim/24.jpeg",2,4,3,NA,"Instruments",1,1,"left","left",0.447000027,1,1,1,1,NA,NA,NA,NA,NA,NA,NA,NA,NA,NA,NA,NA,NA,NA,NA,NA,NA,NA,NA,NA,NA,NA,NA,NA
"179","stim/objects/Instruments/frenchhorn.png",197,26,197,0.5,"stim/42.jpeg",4,2,1,NA,"Instruments",1,2,"left","right",0.564999819,0,0,1,1,NA,NA,NA,NA,NA,NA,NA,NA,NA,NA,NA,NA,NA,NA,NA,NA,NA,NA,NA,NA,NA,NA,NA,NA
"21","stim/objects/HouseObjects/dishsoap.png",198,26,198,0.5,"stim/33.jpeg",3,3,1,NA,"HouseObjects",2,4,"right","right",0.518999815,1,1,1,1,NA,NA,NA,NA,NA,NA,NA,NA,NA,NA,NA,NA,NA,NA,NA,NA,NA,NA,NA,NA,NA,NA,NA,NA
"32","stim/objects/HouseObjects/doormat2.png",199,26,199,0.3,"stim/64.jpeg",6,4,2,NA,"HouseObjects",2,2,"right","left",0.557999849,0,0,1,1,NA,NA,NA,NA,NA,NA,NA,NA,NA,NA,NA,NA,NA,NA,NA,NA,NA,NA,NA,NA,NA,NA,NA,NA
"45","stim/objects/HouseObjects/dustpan2.png",200,26,200,0.9,"stim/11.jpeg",1,1,3,NA,"HouseObjects",2,1,"right","right",0.548999786,1,1,1,1,NA,NA,NA,NA,NA,NA,NA,NA,NA,NA,NA,NA,NA,NA,NA,NA,NA,NA,NA,NA,NA,NA,NA,NA
"86","stim/objects/HouseObjects/glass2.png",201,26,201,0.9,"stim/14.jpeg",1,4,3,NA,"HouseObjects",2,4,"right","right",0.410999775,1,1,1,1,NA,NA,NA,NA,NA,NA,NA,NA,NA,NA,NA,NA,NA,NA,NA,NA,NA,NA,NA,NA,NA,NA,NA,NA
"24","stim/objects/HouseObjects/dishsoap2.png",202,26,202,0.3,"stim/63.jpeg",6,3,2,NA,"HouseObjects",2,4,"right","left",0.553999901,0,0,1,1,NA,NA,NA,NA,NA,NA,NA,NA,NA,NA,NA,NA,NA,NA,NA,NA,NA,NA,NA,NA,NA,NA,NA,NA
"167","stim/objects/Instruments/flute2.png",203,26,203,0.7,"stim/64.jpeg",6,4,2,NA,"Instruments",1,1,"left","right",0.404999971,0,0,1,1,NA,NA,NA,NA,NA,NA,NA,NA,NA,NA,NA,NA,NA,NA,NA,NA,NA,NA,NA,NA,NA,NA,NA,NA
"142","stim/objects/Instruments/electricdrumset2.png",204,26,204,0.7,"stim/62.jpeg",6,2,2,NA,"Instruments",1,2,"left","left",0.536999941,1,1,1,1,NA,NA,NA,NA,NA,NA,NA,NA,NA,NA,NA,NA,NA,NA,NA,NA,NA,NA,NA,NA,NA,NA,NA,NA
"228","stim/objects/Instruments/harp2.png",205,26,205,0.9,"stim/23.jpeg",2,3,3,NA,"Instruments",1,4,"left","left",0.518999815,1,1,1,1,NA,NA,NA,NA,NA,NA,NA,NA,NA,NA,NA,NA,NA,NA,NA,NA,NA,NA,NA,NA,NA,NA,NA,NA
"103","stim/objects/HouseObjects/hairdryer.png",206,26,206,0.7,"stim/52.jpeg",5,2,2,NA,"HouseObjects",2,3,"right","right",0.52699995,1,1,1,1,NA,NA,NA,NA,NA,NA,NA,NA,NA,NA,NA,NA,NA,NA,NA,NA,NA,NA,NA,NA,NA,NA,NA,NA
"239","stim/objects/Instruments/hihat2.png",207,26,207,0.9,"stim/24.jpeg",2,4,3,NA,"Instruments",1,1,"left","left",0.506999969,1,1,1,1,NA,NA,NA,NA,NA,NA,NA,NA,NA,NA,NA,NA,NA,NA,NA,NA,NA,NA,NA,NA,NA,NA,NA,NA
"155","stim/objects/Instruments/electricguitar2.png",208,26,208,0.7,"stim/63.jpeg",6,3,2,NA,"Instruments",1,2,"left","right",0.78399992,0,0,1,1,NA,NA,NA,NA,NA,NA,NA,NA,NA,NA,NA,NA,NA,NA,NA,NA,NA,NA,NA,NA,NA,NA,NA,NA
"143","stim/objects/Instruments/electricdrumset2.png",209,26,209,0.7,"stim/62.jpeg",6,2,2,NA,"Instruments",1,3,"left","left",0.460000038,1,1,1,1,NA,NA,NA,NA,NA,NA,NA,NA,NA,NA,NA,NA,NA,NA,NA,NA,NA,NA,NA,NA,NA,NA,NA,NA
"95","stim/objects/HouseObjects/glassmop.png",210,26,210,0.7,"stim/51.jpeg",5,1,2,NA,"HouseObjects",2,4,"right","right",0.528999805,1,1,1,1,NA,NA,NA,NA,NA,NA,NA,NA,NA,NA,NA,NA,NA,NA,NA,NA,NA,NA,NA,NA,NA,NA,NA,NA
"125","stim/objects/Instruments/drums.png",211,26,211,0.5,"stim/31.jpeg",3,1,1,NA,"Instruments",1,2,"left","right",0.444999933,0,0,1,1,NA,NA,NA,NA,NA,NA,NA,NA,NA,NA,NA,NA,NA,NA,NA,NA,NA,NA,NA,NA,NA,NA,NA,NA
"156","stim/objects/Instruments/electricguitar2.png",212,26,212,0.7,"stim/63.jpeg",6,3,2,NA,"Instruments",1,1,"left","left",0.460000038,1,1,1,1,NA,NA,NA,NA,NA,NA,NA,NA,NA,NA,NA,NA,NA,NA,NA,NA,NA,NA,NA,NA,NA,NA,NA,NA
"104","stim/objects/HouseObjects/hairdryer2.png",213,26,213,0.1,"stim/22.jpeg",2,2,3,NA,"HouseObjects",2,2,"right","right",0.430999756,1,1,1,1,NA,NA,NA,NA,NA,NA,NA,NA,NA,NA,NA,NA,NA,NA,NA,NA,NA,NA,NA,NA,NA,NA,NA,NA
"87","stim/objects/HouseObjects/glass2.png",214,26,214,0.9,"stim/14.jpeg",1,4,3,NA,"HouseObjects",2,3,"right","right",0.574999809,1,1,1,1,NA,NA,NA,NA,NA,NA,NA,NA,NA,NA,NA,NA,NA,NA,NA,NA,NA,NA,NA,NA,NA,NA,NA,NA
"88","stim/objects/HouseObjects/glass2.png",215,26,215,0.9,"stim/14.jpeg",1,4,3,NA,"HouseObjects",2,3,"right","right",0.541000128,1,1,1,1,NA,NA,NA,NA,NA,NA,NA,NA,NA,NA,NA,NA,NA,NA,NA,NA,NA,NA,NA,NA,NA,NA,NA,NA
"171","stim/objects/Instruments/flutetrans.png",216,26,216,0.5,"stim/41.jpeg",4,1,1,NA,"Instruments",1,1,"left","left",0.572000027,1,1,1,1,NA,NA,NA,NA,NA,NA,NA,NA,NA,NA,NA,NA,NA,NA,NA,NA,NA,NA,NA,NA,NA,NA,NA,NA
"172","stim/objects/Instruments/flutetrans.png",217,26,217,0.5,"stim/41.jpeg",4,1,1,NA,"Instruments",1,4,"left","right",0.717000008,0,0,1,1,NA,NA,NA,NA,NA,NA,NA,NA,NA,NA,NA,NA,NA,NA,NA,NA,NA,NA,NA,NA,NA,NA,NA,NA
"144","stim/objects/Instruments/electricdrumset2.png",218,26,218,0.7,"stim/62.jpeg",6,2,2,NA,"Instruments",1,4,"left","left",0.623999834,1,1,1,1,NA,NA,NA,NA,NA,NA,NA,NA,NA,NA,NA,NA,NA,NA,NA,NA,NA,NA,NA,NA,NA,NA,NA,NA
"231","stim/objects/Instruments/hihat.png",219,26,219,0.3,"stim/54.jpeg",5,4,2,NA,"Instruments",1,1,"left","right",0.600999832,0,0,1,1,NA,NA,NA,NA,NA,NA,NA,NA,NA,NA,NA,NA,NA,NA,NA,NA,NA,NA,NA,NA,NA,NA,NA,NA
"74","stim/objects/HouseObjects/garbagebin2.png",220,26,220,0.9,"stim/13.jpeg",1,3,3,NA,"HouseObjects",2,1,"right","right",0.613999844,1,1,1,1,NA,NA,NA,NA,NA,NA,NA,NA,NA,NA,NA,NA,NA,NA,NA,NA,NA,NA,NA,NA,NA,NA,NA,NA
"118","stim/objects/HouseObjects/handvacuum.png",221,26,221,0.7,"stim/54.jpeg",5,4,2,NA,"HouseObjects",2,1,"right","right",0.482000113,1,1,1,1,NA,NA,NA,NA,NA,NA,NA,NA,NA,NA,NA,NA,NA,NA,NA,NA,NA,NA,NA,NA,NA,NA,NA,NA
"219","stim/objects/Instruments/harp.png",222,26,222,0.3,"stim/53.jpeg",5,3,2,NA,"Instruments",1,1,"left","right",0.565000057,0,0,1,1,NA,NA,NA,NA,NA,NA,NA,NA,NA,NA,NA,NA,NA,NA,NA,NA,NA,NA,NA,NA,NA,NA,NA,NA
"240","stim/objects/Instruments/hihat2.png",223,26,223,0.9,"stim/24.jpeg",2,4,3,NA,"Instruments",1,2,"left","left",0.55099988,1,1,1,1,NA,NA,NA,NA,NA,NA,NA,NA,NA,NA,NA,NA,NA,NA,NA,NA,NA,NA,NA,NA,NA,NA,NA,NA
"119","stim/objects/HouseObjects/handvacuum.png",224,26,224,0.7,"stim/54.jpeg",5,4,2,NA,"HouseObjects",2,1,"right","right",0.664000034,1,1,1,1,NA,NA,NA,NA,NA,NA,NA,NA,NA,NA,NA,NA,NA,NA,NA,NA,NA,NA,NA,NA,NA,NA,NA,NA
"132","stim/objects/Instruments/drums2.png",225,26,225,0.7,"stim/61.jpeg",6,1,2,NA,"Instruments",1,1,"left","left",0.568999767,1,1,1,1,NA,NA,NA,NA,NA,NA,NA,NA,NA,NA,NA,NA,NA,NA,NA,NA,NA,NA,NA,NA,NA,NA,NA,NA
"137","stim/objects/Instruments/electricdrumset.png",226,26,226,0.5,"stim/32.jpeg",3,2,1,NA,"Instruments",1,3,"left","right",0.651000023,0,0,1,1,NA,NA,NA,NA,NA,NA,NA,NA,NA,NA,NA,NA,NA,NA,NA,NA,NA,NA,NA,NA,NA,NA,NA,NA
"46","stim/objects/HouseObjects/dustpan2.png",227,26,227,0.9,"stim/11.jpeg",1,1,3,NA,"HouseObjects",2,2,"right","right",0.506999969,1,1,1,1,NA,NA,NA,NA,NA,NA,NA,NA,NA,NA,NA,NA,NA,NA,NA,NA,NA,NA,NA,NA,NA,NA,NA,NA
"173","stim/objects/Instruments/flutetrans.png",228,26,228,0.5,"stim/41.jpeg",4,1,1,NA,"Instruments",1,2,"left","right",0.497999907,0,0,1,1,NA,NA,NA,NA,NA,NA,NA,NA,NA,NA,NA,NA,NA,NA,NA,NA,NA,NA,NA,NA,NA,NA,NA,NA
"120","stim/objects/HouseObjects/handvacuum2.png",229,26,229,0.1,"stim/24.jpeg",2,4,3,NA,"HouseObjects",2,3,"right","left",0.493999958,0,0,1,1,NA,NA,NA,NA,NA,NA,NA,NA,NA,NA,NA,NA,NA,NA,NA,NA,NA,NA,NA,NA,NA,NA,NA,NA
"60","stim/objects/HouseObjects/flyswatter2.png",230,26,230,0.9,"stim/12.jpeg",1,2,3,NA,"HouseObjects",2,2,"right","right",0.530999899,1,1,1,1,NA,NA,NA,NA,NA,NA,NA,NA,NA,NA,NA,NA,NA,NA,NA,NA,NA,NA,NA,NA,NA,NA,NA,NA
"36","stim/objects/HouseObjects/dustpan.png",231,26,231,0.5,"stim/41.jpeg",4,1,1,NA,"HouseObjects",2,1,"right","right",0.555999994,1,1,1,1,NA,NA,NA,NA,NA,NA,NA,NA,NA,NA,NA,NA,NA,NA,NA,NA,NA,NA,NA,NA,NA,NA,NA,NA
"195","stim/objects/Instruments/guitarcase.png",232,26,232,0.3,"stim/51.jpeg",5,1,2,NA,"Instruments",1,1,"left","right",0.631000042,0,0,1,1,NA,NA,NA,NA,NA,NA,NA,NA,NA,NA,NA,NA,NA,NA,NA,NA,NA,NA,NA,NA,NA,NA,NA,NA
"168","stim/objects/Instruments/flute2.png",233,26,233,0.7,"stim/64.jpeg",6,4,2,NA,"Instruments",1,4,"left","left",0.493999958,1,1,1,1,NA,NA,NA,NA,NA,NA,NA,NA,NA,NA,NA,NA,NA,NA,NA,NA,NA,NA,NA,NA,NA,NA,NA,NA
"186","stim/objects/Instruments/gong2.png",234,26,234,0.1,"stim/13.jpeg",1,3,3,NA,"Instruments",1,2,"left","right",0.529000044,0,0,1,1,NA,NA,NA,NA,NA,NA,NA,NA,NA,NA,NA,NA,NA,NA,NA,NA,NA,NA,NA,NA,NA,NA,NA,NA
"37","stim/objects/HouseObjects/dustpan.png",235,26,235,0.5,"stim/41.jpeg",4,1,1,NA,"HouseObjects",2,4,"right","right",0.536999941,1,1,1,1,NA,NA,NA,NA,NA,NA,NA,NA,NA,NA,NA,NA,NA,NA,NA,NA,NA,NA,NA,NA,NA,NA,NA,NA
"29","stim/objects/HouseObjects/doormat.png",236,26,236,0.5,"stim/34.jpeg",3,4,1,NA,"HouseObjects",2,3,"right","right",0.654999971,1,1,1,1,NA,NA,NA,NA,NA,NA,NA,NA,NA,NA,NA,NA,NA,NA,NA,NA,NA,NA,NA,NA,NA,NA,NA,NA
"216","stim/objects/Instruments/harmonica2.png",237,26,237,0.9,"stim/22.jpeg",2,2,3,NA,"Instruments",1,2,"left","left",0.517999887,1,1,1,1,NA,NA,NA,NA,NA,NA,NA,NA,NA,NA,NA,NA,NA,NA,NA,NA,NA,NA,NA,NA,NA,NA,NA,NA
"161","stim/objects/Instruments/flute.png",238,26,238,0.5,"stim/34.jpeg",3,4,1,NA,"Instruments",1,2,"left","right",0.49000001,0,0,1,1,NA,NA,NA,NA,NA,NA,NA,NA,NA,NA,NA,NA,NA,NA,NA,NA,NA,NA,NA,NA,NA,NA,NA,NA
"5","stim/objects/HouseObjects/coffee.png",239,26,239,0.5,"stim/31.jpeg",3,1,1,NA,"HouseObjects",2,2,"right","right",0.697999954,1,1,1,1,NA,NA,NA,NA,NA,NA,NA,NA,NA,NA,NA,NA,NA,NA,NA,NA,NA,NA,NA,NA,NA,NA,NA,NA
"8","stim/objects/HouseObjects/coffee2.png",240,26,240,0.3,"stim/61.jpeg",6,1,2,NA,"HouseObjects",2,3,"right","left",0.457999706,0,0,1,1,NA,NA,NA,NA,NA,NA,NA,NA,NA,NA,NA,NA,NA,NA,NA,NA,NA,NA,NA,NA,NA,NA,NA,NA
"540","stim/objects/Instruments/oboe4.png",248,26,241,0.1,"stim/11.jpeg",1,1,3,1,"Instruments",1,4,"left","",NA,0,0,1,0,88,26,1,0.1,1,"stim/11.jpeg",1,1,"stim/11.jpeg",4,"left",1.032000065,4,1,3.559999943,4,1.159999847,88,1,1,1,1,1,1
"473","stim/objects/Instruments/metronome3.png",249,26,242,0.9,"stim/24.jpeg",2,4,3,2,"Instruments",1,1,"left","left",0.378999949,1,1,1,0,NA,NA,NA,NA,NA,NA,NA,NA,NA,NA,NA,NA,NA,NA,NA,NA,NA,NA,NA,NA,NA,NA,NA,NA
"398","stim/objects/HouseObjects/thread3.png",250,26,243,0.7,"stim/53.jpeg",5,3,2,1,"HouseObjects",2,1,"right","",NA,0,0,1,0,99,26,1,0.7,2,"stim/53.jpeg",5,3,"stim/53.jpeg",1,"right",0.665999889,2,4,2.078000069,3,1.148999929,99,0,0,NA,0,NA,1
"414","stim/objects/Instruments/balalaika4.png",251,26,244,0.3,"stim/54.jpeg",5,4,2,1,"Instruments",1,4,"left","right",0.450999975,0,0,1,0,145,26,1,0.3,1,"stim/54.jpeg",5,4,"stim/54.jpeg",4,"left",0.79399991,3,2,2.335999727,1,0.761999846,145,1,0,0,0,0,1
"435","stim/objects/Instruments/cornet4.png",252,26,245,0.7,"stim/64.jpeg",6,4,2,1,"Instruments",1,1,"left","left",0.520999908,1,1,1,0,84,26,1,0.7,1,"stim/64.jpeg",6,4,"stim/64.jpeg",1,"right",1.111000061,2,4,3.427999973,2,1.907999992,84,0,1,NA,0,NA,1
"325","stim/objects/HouseObjects/match3.png",253,26,246,0.9,"stim/13.jpeg",1,3,3,2,"HouseObjects",2,4,"right","right",0.439999819,1,1,1,0,NA,NA,NA,NA,NA,NA,NA,NA,NA,NA,NA,NA,NA,NA,NA,NA,NA,NA,NA,NA,NA,NA,NA,NA
"564","stim/objects/Instruments/tuba4.png",254,26,247,0.9,"stim/23.jpeg",2,3,3,1,"Instruments",1,3,"left","left",0.430999994,1,1,1,0,190,26,1,0.9,1,"stim/23.jpeg",2,3,"stim/23.jpeg",3,"left",0.580999851,4,3,1.910999775,2,0.643999815,190,1,1,1,0,0,1
"252","stim/objects/HouseObjects/basket4.png",255,26,248,0.7,"stim/52.jpeg",5,2,2,1,"HouseObjects",2,2,"right","right",0.407000065,1,1,1,0,29,26,1,0.7,2,"stim/52.jpeg",5,2,"stim/52.jpeg",2,"right",0.881999969,4,3,1.486999989,1,0.921999931,29,0,0,NA,0,NA,1
"359","stim/objects/HouseObjects/pitcher3.png",256,26,249,0.9,"stim/11.jpeg",1,1,3,2,"HouseObjects",2,2,"right","right",0.444999933,1,1,1,0,NA,NA,NA,NA,NA,NA,NA,NA,NA,NA,NA,NA,NA,NA,NA,NA,NA,NA,NA,NA,NA,NA,NA,NA
"507","stim/objects/Instruments/musicstand3.png",257,26,250,0.9,"stim/23.jpeg",2,3,3,2,"Instruments",1,3,"left","left",0.371000051,1,1,1,0,NA,NA,NA,NA,NA,NA,NA,NA,NA,NA,NA,NA,NA,NA,NA,NA,NA,NA,NA,NA,NA,NA,NA,NA
"524","stim/objects/Instruments/oboe3.png",258,26,251,0.9,"stim/21.jpeg",2,1,3,2,"Instruments",1,2,"left","left",0.497999907,1,1,1,0,NA,NA,NA,NA,NA,NA,NA,NA,NA,NA,NA,NA,NA,NA,NA,NA,NA,NA,NA,NA,NA,NA,NA,NA
"385","stim/objects/HouseObjects/safetypin4.png",259,26,252,0.9,"stim/14.jpeg",1,4,3,1,"HouseObjects",2,1,"right","right",0.59800005,1,1,1,0,64,26,1,0.9,2,"stim/14.jpeg",1,4,"stim/14.jpeg",1,"left",1.069000006,2,4,3.102999926,3,1.086999893,64,1,1,1,0,0,1
"545","stim/objects/Instruments/record_player3.png",260,26,253,0.5,"stim/32.jpeg",3,2,1,1,"Instruments",1,1,"left","left",0.537999868,1,1,1,0,60,26,1,0.5,1,"stim/32.jpeg",3,2,"stim/32.jpeg",1,"right",0.711999893,1,4,1.758999825,2,0.604000092,60,0,0,NA,0,NA,1
"508","stim/objects/Instruments/musicstand3.png",261,26,254,0.9,"stim/24.jpeg",2,4,3,2,"Instruments",1,3,"left","right",0.367999792,0,0,1,0,NA,NA,NA,NA,NA,NA,NA,NA,NA,NA,NA,NA,NA,NA,NA,NA,NA,NA,NA,NA,NA,NA,NA,NA
"387","stim/objects/HouseObjects/saw4.png",262,26,255,0.1,"stim/23.jpeg",2,3,3,1,"HouseObjects",2,2,"right","left",0.502000093,0,0,1,0,48,26,1,0.1,2,"stim/23.jpeg",2,3,"stim/23.jpeg",2,"left",1.31799984,4,4,4.32799983,2,0.943000078,48,1,0,0,1,1,1
"411","stim/objects/Instruments/acousticguitar4.png",263,26,256,0.3,"stim/53.jpeg",5,3,2,1,"Instruments",1,3,"left","right",0.502000093,0,0,1,0,184,26,1,0.3,1,"stim/53.jpeg",5,3,"stim/53.jpeg",3,"left",0.68599987,1,1,1.210999727,2,1.085999966,184,1,0,0,0,0,1
"279","stim/objects/HouseObjects/iron3.png",264,26,257,0.7,"stim/52.jpeg",5,2,2,2,"HouseObjects",2,4,"right","right",0.438999891,1,1,1,0,NA,NA,NA,NA,NA,NA,NA,NA,NA,NA,NA,NA,NA,NA,NA,NA,NA,NA,NA,NA,NA,NA,NA,NA
"362","stim/objects/HouseObjects/pitcher3.png",265,26,258,0.9,"stim/12.jpeg",1,2,3,2,"HouseObjects",2,4,"right","right",0.453999758,1,1,1,0,NA,NA,NA,NA,NA,NA,NA,NA,NA,NA,NA,NA,NA,NA,NA,NA,NA,NA,NA,NA,NA,NA,NA,NA
"567","stim/objects/Instruments/vuvuzela3.png",266,26,259,0.3,"stim/54.jpeg",5,4,2,1,"Instruments",1,4,"left","right",0.492999792,0,0,1,0,133,26,1,0.3,1,"stim/54.jpeg",5,4,"stim/54.jpeg",4,"left",1.603999853,4,3,2.087999821,1,0.611999989,133,1,0,0,0,0,1
"293","stim/objects/HouseObjects/knife3.png",267,26,260,0.9,"stim/13.jpeg",1,3,3,2,"HouseObjects",2,1,"right","right",0.529999971,1,1,1,0,NA,NA,NA,NA,NA,NA,NA,NA,NA,NA,NA,NA,NA,NA,NA,NA,NA,NA,NA,NA,NA,NA,NA,NA
"561","stim/objects/Instruments/trumpet3.png",268,26,261,0.3,"stim/51.jpeg",5,1,2,1,"Instruments",1,2,"left","right",0.499999762,0,0,1,0,155,26,1,0.3,1,"stim/51.jpeg",5,1,"stim/51.jpeg",2,"left",0.946999788,2,4,2.381999969,1,0.606999874,155,1,0,0,0,0,1
"265","stim/objects/HouseObjects/bucket3.png",269,26,262,0.5,"stim/42.jpeg",4,2,1,2,"HouseObjects",2,1,"right","right",0.579999924,1,1,1,0,NA,NA,NA,NA,NA,NA,NA,NA,NA,NA,NA,NA,NA,NA,NA,NA,NA,NA,NA,NA,NA,NA,NA,NA
"525","stim/objects/Instruments/oboe3.png",270,26,263,0.9,"stim/23.jpeg",2,3,3,2,"Instruments",1,2,"left","left",0.403999805,1,1,1,0,NA,NA,NA,NA,NA,NA,NA,NA,NA,NA,NA,NA,NA,NA,NA,NA,NA,NA,NA,NA,NA,NA,NA,NA
"342","stim/objects/HouseObjects/pan3.png",271,26,264,0.9,"stim/11.jpeg",1,1,3,2,"HouseObjects",2,1,"right","left",0.443000078,0,0,1,0,NA,NA,NA,NA,NA,NA,NA,NA,NA,NA,NA,NA,NA,NA,NA,NA,NA,NA,NA,NA,NA,NA,NA,NA
"363","stim/objects/HouseObjects/pitcher3.png",272,26,265,0.9,"stim/13.jpeg",1,3,3,2,"HouseObjects",2,3,"right","left",0.468999863,0,0,1,0,NA,NA,NA,NA,NA,NA,NA,NA,NA,NA,NA,NA,NA,NA,NA,NA,NA,NA,NA,NA,NA,NA,NA,NA
"294","stim/objects/HouseObjects/knife3.png",273,26,266,0.9,"stim/12.jpeg",1,2,3,2,"HouseObjects",2,3,"right","right",0.534999847,1,1,1,0,NA,NA,NA,NA,NA,NA,NA,NA,NA,NA,NA,NA,NA,NA,NA,NA,NA,NA,NA,NA,NA,NA,NA,NA
"474","stim/objects/Instruments/metronome3.png",274,26,267,0.9,"stim/23.jpeg",2,3,3,2,"Instruments",1,2,"left","left",0.467999935,1,1,1,0,NA,NA,NA,NA,NA,NA,NA,NA,NA,NA,NA,NA,NA,NA,NA,NA,NA,NA,NA,NA,NA,NA,NA,NA
"563","stim/objects/Instruments/tuba3.png",275,26,268,0.3,"stim/52.jpeg",5,2,2,1,"Instruments",1,4,"left","right",0.615999937,0,0,1,0,33,26,1,0.3,1,"stim/52.jpeg",5,2,"stim/52.jpeg",4,"left",0.937999964,4,4,4.126999855,3,1.071000099,33,1,0,0,0,0,1
"548","stim/objects/Instruments/record4.png",276,26,269,0.1,"stim/14.jpeg",1,4,3,1,"Instruments",1,3,"left","right",0.505999804,0,0,1,0,118,26,1,0.1,1,"stim/14.jpeg",1,4,"stim/14.jpeg",3,"left",0.851000071,4,2,3.774999857,3,0.928999901,118,1,0,0,1,1,1
"509","stim/objects/Instruments/musicstand3.png",277,26,270,0.9,"stim/23.jpeg",2,3,3,2,"Instruments",1,4,"left","left",0.509000063,1,1,1,0,NA,NA,NA,NA,NA,NA,NA,NA,NA,NA,NA,NA,NA,NA,NA,NA,NA,NA,NA,NA,NA,NA,NA,NA
"259","stim/objects/HouseObjects/bottle3.png",278,26,271,0.5,"stim/44.jpeg",4,4,1,2,"HouseObjects",2,2,"right","right",0.661999941,1,1,1,0,NA,NA,NA,NA,NA,NA,NA,NA,NA,NA,NA,NA,NA,NA,NA,NA,NA,NA,NA,NA,NA,NA,NA,NA
"541","stim/objects/Instruments/panflute3.png",279,26,272,0.5,"stim/33.jpeg",3,3,1,1,"Instruments",1,2,"left","right",0.687000036,0,0,1,0,49,26,1,0.5,1,"stim/33.jpeg",3,3,"stim/33.jpeg",2,"left",1.66899991,4,3,2.226999998,1,0.786999941,49,1,1,1,0,0,1
"343","stim/objects/HouseObjects/pan3.png",280,26,273,0.9,"stim/14.jpeg",1,4,3,2,"HouseObjects",2,3,"right","right",0.559999943,1,1,1,0,NA,NA,NA,NA,NA,NA,NA,NA,NA,NA,NA,NA,NA,NA,NA,NA,NA,NA,NA,NA,NA,NA,NA,NA
"444","stim/objects/Instruments/keyboard3.png",281,26,274,0.7,"stim/63.jpeg",6,3,2,2,"Instruments",1,2,"left","left",0.542999744,1,1,1,0,NA,NA,NA,NA,NA,NA,NA,NA,NA,NA,NA,NA,NA,NA,NA,NA,NA,NA,NA,NA,NA,NA,NA,NA
"475","stim/objects/Instruments/metronome3.png",282,26,275,0.9,"stim/21.jpeg",2,1,3,2,"Instruments",1,4,"left","left",0.549000025,1,1,1,0,NA,NA,NA,NA,NA,NA,NA,NA,NA,NA,NA,NA,NA,NA,NA,NA,NA,NA,NA,NA,NA,NA,NA,NA
"307","stim/objects/HouseObjects/knife4.png",283,26,276,0.9,"stim/13.jpeg",1,3,3,1,"HouseObjects",2,2,"right","right",0.523999929,1,1,1,0,183,26,1,0.9,2,"stim/13.jpeg",1,3,"stim/13.jpeg",2,"left",1.008000135,4,3,2.677999735,2,0.512999773,183,1,1,1,1,1,1
"445","stim/objects/Instruments/keyboard3.png",284,26,277,0.7,"stim/61.jpeg",6,1,2,2,"Instruments",1,1,"left","left",0.419999838,1,1,1,0,NA,NA,NA,NA,NA,NA,NA,NA,NA,NA,NA,NA,NA,NA,NA,NA,NA,NA,NA,NA,NA,NA,NA,NA
"427","stim/objects/Instruments/chime3.png",285,26,278,0.5,"stim/42.jpeg",4,2,1,2,"Instruments",1,4,"left","right",0.625,0,0,1,0,NA,NA,NA,NA,NA,NA,NA,NA,NA,NA,NA,NA,NA,NA,NA,NA,NA,NA,NA,NA,NA,NA,NA,NA
"510","stim/objects/Instruments/musicstand3.png",286,26,279,0.9,"stim/22.jpeg",2,2,3,2,"Instruments",1,3,"left","left",0.491999865,1,1,1,0,NA,NA,NA,NA,NA,NA,NA,NA,NA,NA,NA,NA,NA,NA,NA,NA,NA,NA,NA,NA,NA,NA,NA,NA
"551","stim/objects/Instruments/speaker3.png",287,26,280,0.5,"stim/41.jpeg",4,1,1,1,"Instruments",1,4,"left","right",0.398999929,0,0,1,0,180,26,1,0.5,2,"stim/41.jpeg",4,1,"stim/41.jpeg",4,"right",1.129999876,1,2,2.558000088,2,0.325999975,180,0,0,NA,0,NA,1
"308","stim/objects/HouseObjects/lintroller3.png",288,26,281,0.9,"stim/14.jpeg",1,4,3,2,"HouseObjects",2,1,"right","left",0.461999893,0,0,1,0,NA,NA,NA,NA,NA,NA,NA,NA,NA,NA,NA,NA,NA,NA,NA,NA,NA,NA,NA,NA,NA,NA,NA,NA
"364","stim/objects/HouseObjects/pitcher3.png",289,26,282,0.9,"stim/13.jpeg",1,3,3,2,"HouseObjects",2,4,"right","right",0.463999748,1,1,1,0,NA,NA,NA,NA,NA,NA,NA,NA,NA,NA,NA,NA,NA,NA,NA,NA,NA,NA,NA,NA,NA,NA,NA,NA
"457","stim/objects/Instruments/marimba3.png",290,26,283,0.9,"stim/21.jpeg",2,1,3,2,"Instruments",1,2,"left","left",0.5,1,1,1,0,NA,NA,NA,NA,NA,NA,NA,NA,NA,NA,NA,NA,NA,NA,NA,NA,NA,NA,NA,NA,NA,NA,NA,NA
"569","stim/objects/Instruments/xylophone3.png",291,26,284,0.3,"stim/51.jpeg",5,1,2,1,"Instruments",1,1,"left","left",0.626999855,1,1,1,0,67,26,1,0.3,1,"stim/51.jpeg",5,1,"stim/51.jpeg",1,"left",0.744999886,4,2,1.846999884,3,1.47300005,67,1,0,0,0,0,1
"344","stim/objects/HouseObjects/pan3.png",292,26,285,0.9,"stim/14.jpeg",1,4,3,2,"HouseObjects",2,3,"right","right",0.448999882,1,1,1,0,NA,NA,NA,NA,NA,NA,NA,NA,NA,NA,NA,NA,NA,NA,NA,NA,NA,NA,NA,NA,NA,NA,NA,NA
"493","stim/objects/Instruments/musicsheet3.png",293,26,286,0.9,"stim/23.jpeg",2,3,3,2,"Instruments",1,1,"left","left",0.470999956,1,1,1,0,NA,NA,NA,NA,NA,NA,NA,NA,NA,NA,NA,NA,NA,NA,NA,NA,NA,NA,NA,NA,NA,NA,NA,NA
"274","stim/objects/HouseObjects/clothesdryingrack4.png",294,26,287,0.3,"stim/63.jpeg",6,3,2,1,"HouseObjects",2,3,"right","left",0.54399991,0,0,1,0,62,26,1,0.3,2,"stim/63.jpeg",6,3,"stim/63.jpeg",3,"left",1.120999813,3,4,2.049999952,3,0.80099988,62,1,0,0,1,1,1
"446","stim/objects/Instruments/keyboard3.png",295,26,288,0.7,"stim/64.jpeg",6,4,2,2,"Instruments",1,2,"left","left",0.652999878,1,1,1,0,NA,NA,NA,NA,NA,NA,NA,NA,NA,NA,NA,NA,NA,NA,NA,NA,NA,NA,NA,NA,NA,NA,NA,NA
"389","stim/objects/HouseObjects/scale4.png",296,26,289,0.1,"stim/24.jpeg",2,4,3,1,"HouseObjects",2,2,"right","left",0.573999882,0,0,1,0,140,26,1,0.1,2,"stim/24.jpeg",2,4,"stim/24.jpeg",2,"left",1.020999908,4,1,4.003000021,4,0.796000004,140,1,0,0,0,0,1
"399","stim/objects/HouseObjects/thread4.png",297,26,290,0.1,"stim/21.jpeg",2,1,3,1,"HouseObjects",2,3,"right","left",0.501999855,0,0,1,0,124,26,1,0.1,2,"stim/21.jpeg",2,1,"stim/21.jpeg",3,"right",0.926999807,2,1,1.007999897,2,0.768999815,124,0,1,NA,0,NA,1
"290","stim/objects/HouseObjects/key4.png",298,26,291,0.3,"stim/63.jpeg",6,3,2,1,"HouseObjects",2,1,"right","left",0.654999733,0,0,1,0,2,26,1,0.3,2,"stim/63.jpeg",6,3,"stim/63.jpeg",1,"right",0.804999828,1,4,4.25,2,2.285000086,2,0,0,NA,0,NA,1
"328","stim/objects/HouseObjects/match3.png",299,26,292,0.9,"stim/14.jpeg",1,4,3,2,"HouseObjects",2,3,"right","right",0.524999857,1,1,1,0,NA,NA,NA,NA,NA,NA,NA,NA,NA,NA,NA,NA,NA,NA,NA,NA,NA,NA,NA,NA,NA,NA,NA,NA
"423","stim/objects/Instruments/bassguitar4.png",300,26,293,0.7,"stim/64.jpeg",6,4,2,1,"Instruments",1,1,"left","left",0.641000032,1,1,1,0,87,26,1,0.7,1,"stim/64.jpeg",6,4,"stim/64.jpeg",1,"left",0.680999756,3,3,1.26699996,3,2.391000032,87,1,0,0,0,0,1
"452","stim/objects/Instruments/maraca3.png",301,26,294,0.7,"stim/61.jpeg",6,1,2,2,"Instruments",1,4,"left","left",0.732999802,1,1,1,0,NA,NA,NA,NA,NA,NA,NA,NA,NA,NA,NA,NA,NA,NA,NA,NA,NA,NA,NA,NA,NA,NA,NA,NA
"494","stim/objects/Instruments/musicsheet3.png",302,26,295,0.9,"stim/22.jpeg",2,2,3,2,"Instruments",1,3,"left","left",0.585999727,1,1,1,0,NA,NA,NA,NA,NA,NA,NA,NA,NA,NA,NA,NA,NA,NA,NA,NA,NA,NA,NA,NA,NA,NA,NA,NA
"559","stim/objects/Instruments/trombone3.png",303,26,296,0.5,"stim/41.jpeg",4,1,1,1,"Instruments",1,3,"left","right",0.642999887,0,0,1,0,138,26,1,0.5,2,"stim/41.jpeg",4,1,"stim/41.jpeg",3,"left",0.674000025,1,2,1.723999977,1,0.78399992,138,1,0,0,0,0,1
"527","stim/objects/Instruments/oboe3.png",304,26,297,0.9,"stim/24.jpeg",2,4,3,2,"Instruments",1,4,"left","right",0.460000038,0,0,1,0,NA,NA,NA,NA,NA,NA,NA,NA,NA,NA,NA,NA,NA,NA,NA,NA,NA,NA,NA,NA,NA,NA,NA,NA
"555","stim/objects/Instruments/timbal3.png",305,26,298,0.5,"stim/43.jpeg",4,3,1,1,"Instruments",1,1,"left","left",0.717000008,1,1,1,0,127,26,1,0.5,2,"stim/43.jpeg",4,3,"stim/43.jpeg",1,"left",0.884000063,4,3,2.40199995,2,0.761999846,127,1,1,1,0,0,1
"408","stim/objects/Instruments/accordion4.png",306,26,299,0.3,"stim/52.jpeg",5,2,2,1,"Instruments",1,1,"left","left",0.59499979,1,1,1,0,185,26,1,0.3,1,"stim/52.jpeg",5,2,"stim/52.jpeg",1,"left",0.694000006,1,4,0.981999874,3,2.736999989,185,1,0,0,0,0,1
"275","stim/objects/HouseObjects/clothespin3.png",307,26,300,0.7,"stim/52.jpeg",5,2,2,2,"HouseObjects",2,1,"right","left",0.455999851,0,0,1,0,NA,NA,NA,NA,NA,NA,NA,NA,NA,NA,NA,NA,NA,NA,NA,NA,NA,NA,NA,NA,NA,NA,NA,NA
"255","stim/objects/HouseObjects/bleachbottle4.png",308,26,301,0.7,"stim/53.jpeg",5,3,2,1,"HouseObjects",2,1,"right","right",0.611999989,1,1,1,0,123,26,1,0.7,2,"stim/53.jpeg",5,3,"stim/53.jpeg",1,"right",0.650000095,2,3,2.38499999,2,0.937999964,123,0,1,NA,0,NA,1
"495","stim/objects/Instruments/musicsheet3.png",309,26,302,0.9,"stim/24.jpeg",2,4,3,2,"Instruments",1,2,"left","left",0.566999912,1,1,1,0,NA,NA,NA,NA,NA,NA,NA,NA,NA,NA,NA,NA,NA,NA,NA,NA,NA,NA,NA,NA,NA,NA,NA,NA
"280","stim/objects/HouseObjects/iron3.png",310,26,303,0.7,"stim/51.jpeg",5,1,2,2,"HouseObjects",2,3,"right","right",0.634000063,1,1,1,0,NA,NA,NA,NA,NA,NA,NA,NA,NA,NA,NA,NA,NA,NA,NA,NA,NA,NA,NA,NA,NA,NA,NA,NA
"478","stim/objects/Instruments/metronome3.png",311,26,304,0.9,"stim/22.jpeg",2,2,3,2,"Instruments",1,3,"left","left",0.522999763,1,1,1,0,NA,NA,NA,NA,NA,NA,NA,NA,NA,NA,NA,NA,NA,NA,NA,NA,NA,NA,NA,NA,NA,NA,NA,NA
"271","stim/objects/HouseObjects/clothesdryingrack3.png",312,26,305,0.7,"stim/54.jpeg",5,4,2,2,"HouseObjects",2,1,"right","right",0.503999949,1,1,1,0,NA,NA,NA,NA,NA,NA,NA,NA,NA,NA,NA,NA,NA,NA,NA,NA,NA,NA,NA,NA,NA,NA,NA,NA
"461","stim/objects/Instruments/marimba3.png",313,26,306,0.9,"stim/23.jpeg",2,3,3,2,"Instruments",1,2,"left","left",0.467000008,1,1,1,0,NA,NA,NA,NA,NA,NA,NA,NA,NA,NA,NA,NA,NA,NA,NA,NA,NA,NA,NA,NA,NA,NA,NA,NA
"282","stim/objects/HouseObjects/iron4.png",314,26,307,0.3,"stim/61.jpeg",6,1,2,1,"HouseObjects",2,1,"right","left",0.763999939,0,0,1,0,22,26,1,0.3,2,"stim/61.jpeg",6,1,"stim/61.jpeg",1,"right",0.718999863,4,1,0.566999912,1,0.28399992,22,0,1,NA,1,NA,1
"310","stim/objects/HouseObjects/lintroller3.png",315,26,308,0.9,"stim/14.jpeg",1,4,3,2,"HouseObjects",2,1,"right","right",0.555999994,1,1,1,0,NA,NA,NA,NA,NA,NA,NA,NA,NA,NA,NA,NA,NA,NA,NA,NA,NA,NA,NA,NA,NA,NA,NA,NA
"437","stim/objects/Instruments/cymbal3.png",316,26,309,0.7,"stim/63.jpeg",6,3,2,2,"Instruments",1,1,"left","left",0.542999983,1,1,1,0,NA,NA,NA,NA,NA,NA,NA,NA,NA,NA,NA,NA,NA,NA,NA,NA,NA,NA,NA,NA,NA,NA,NA,NA
"381","stim/objects/HouseObjects/rubbergloves4.png",317,26,310,0.9,"stim/12.jpeg",1,2,3,1,"HouseObjects",2,2,"right","right",0.545999765,1,1,1,0,58,26,1,0.9,2,"stim/12.jpeg",1,2,"stim/12.jpeg",2,"left",0.71600008,3,1,1.492000103,3,0.866999865,58,1,0,0,0,0,1
"288","stim/objects/HouseObjects/key3.png",318,26,311,0.7,"stim/51.jpeg",5,1,2,2,"HouseObjects",2,3,"right","right",0.589999914,1,1,1,0,NA,NA,NA,NA,NA,NA,NA,NA,NA,NA,NA,NA,NA,NA,NA,NA,NA,NA,NA,NA,NA,NA,NA,NA
"256","stim/objects/HouseObjects/blender3.png",319,26,312,0.5,"stim/42.jpeg",4,2,1,2,"HouseObjects",2,1,"right","right",0.618999958,1,1,1,0,NA,NA,NA,NA,NA,NA,NA,NA,NA,NA,NA,NA,NA,NA,NA,NA,NA,NA,NA,NA,NA,NA,NA,NA
"392","stim/objects/HouseObjects/spraybottle3.png",320,26,313,0.5,"stim/43.jpeg",4,3,1,1,"HouseObjects",2,1,"right","right",0.585000038,1,1,1,0,68,26,1,0.5,2,"stim/43.jpeg",4,3,"stim/43.jpeg",1,"right",0.869999886,2,4,1.63499999,3,0.650000095,68,0,0,NA,0,NA,1
"570","stim/objects/Instruments/xylophone4.png",321,26,314,0.9,"stim/22.jpeg",2,2,3,1,"Instruments",1,4,"left","left",0.457999945,1,1,1,0,95,26,1,0.9,1,"stim/22.jpeg",2,2,"stim/22.jpeg",4,"right",1.013999939,3,3,3.842000008,2,0.710999727,95,0,0,NA,0,NA,1
"479","stim/objects/Instruments/metronome3.png",322,26,315,0.9,"stim/24.jpeg",2,4,3,2,"Instruments",1,1,"left","right",0.621999741,0,0,1,0,NA,NA,NA,NA,NA,NA,NA,NA,NA,NA,NA,NA,NA,NA,NA,NA,NA,NA,NA,NA,NA,NA,NA,NA
"243","stim/objects/HouseObjects/ashtray4.png",323,26,316,0.7,"stim/53.jpeg",5,3,2,1,"HouseObjects",2,3,"right","right",0.565999985,1,1,1,0,188,26,1,0.7,2,"stim/53.jpeg",5,3,"stim/53.jpeg",3,"right",0.947000027,1,3,1.585999966,2,1.15199995,188,0,1,NA,0,NA,1
"365","stim/objects/HouseObjects/pitcher3.png",324,26,317,0.9,"stim/13.jpeg",1,3,3,2,"HouseObjects",2,2,"right","right",0.516000032,1,1,1,0,NA,NA,NA,NA,NA,NA,NA,NA,NA,NA,NA,NA,NA,NA,NA,NA,NA,NA,NA,NA,NA,NA,NA,NA
"511","stim/objects/Instruments/musicstand3.png",325,26,318,0.9,"stim/21.jpeg",2,1,3,2,"Instruments",1,3,"left","left",0.549000025,1,1,1,0,NA,NA,NA,NA,NA,NA,NA,NA,NA,NA,NA,NA,NA,NA,NA,NA,NA,NA,NA,NA,NA,NA,NA,NA
"528","stim/objects/Instruments/oboe3.png",326,26,319,0.9,"stim/22.jpeg",2,2,3,2,"Instruments",1,2,"left","left",0.625,1,1,1,0,NA,NA,NA,NA,NA,NA,NA,NA,NA,NA,NA,NA,NA,NA,NA,NA,NA,NA,NA,NA,NA,NA,NA,NA
"329","stim/objects/HouseObjects/match3.png",327,26,320,0.9,"stim/13.jpeg",1,3,3,2,"HouseObjects",2,2,"right","right",0.457999945,1,1,1,0,NA,NA,NA,NA,NA,NA,NA,NA,NA,NA,NA,NA,NA,NA,NA,NA,NA,NA,NA,NA,NA,NA,NA,NA
"366","stim/objects/HouseObjects/pitcher3.png",328,26,321,0.9,"stim/13.jpeg",1,3,3,2,"HouseObjects",2,4,"right","right",0.415999889,1,1,1,0,NA,NA,NA,NA,NA,NA,NA,NA,NA,NA,NA,NA,NA,NA,NA,NA,NA,NA,NA,NA,NA,NA,NA,NA
"312","stim/objects/HouseObjects/lintroller3.png",329,26,322,0.9,"stim/11.jpeg",1,1,3,2,"HouseObjects",2,2,"right","right",0.553999901,1,1,1,0,NA,NA,NA,NA,NA,NA,NA,NA,NA,NA,NA,NA,NA,NA,NA,NA,NA,NA,NA,NA,NA,NA,NA,NA
"379","stim/objects/HouseObjects/remote4.png",330,26,323,0.9,"stim/11.jpeg",1,1,3,1,"HouseObjects",2,1,"right","right",0.403999805,1,1,1,0,73,26,1,0.9,2,"stim/11.jpeg",1,1,"stim/11.jpeg",1,"right",0.860999823,1,2,2.187999964,2,0.997999907,73,0,0,NA,0,NA,1
"297","stim/objects/HouseObjects/knife3.png",331,26,324,0.9,"stim/14.jpeg",1,4,3,2,"HouseObjects",2,4,"right","right",0.665999889,1,1,1,0,NA,NA,NA,NA,NA,NA,NA,NA,NA,NA,NA,NA,NA,NA,NA,NA,NA,NA,NA,NA,NA,NA,NA,NA
"394","stim/objects/HouseObjects/teapot3.png",332,26,325,0.5,"stim/44.jpeg",4,4,1,1,"HouseObjects",2,3,"right","left",0.470000029,0,0,1,0,128,26,1,0.5,2,"stim/44.jpeg",4,4,"stim/44.jpeg",3,"right",0.754999876,1,1,1.15899992,1,0.794999838,128,0,0,NA,0,NA,1
"406","stim/objects/Instruments/accordion3.png",333,26,326,0.5,"stim/31.jpeg",3,1,1,2,"Instruments",1,1,"left","right",0.792999744,0,0,1,0,NA,NA,NA,NA,NA,NA,NA,NA,NA,NA,NA,NA,NA,NA,NA,NA,NA,NA,NA,NA,NA,NA,NA,NA
"480","stim/objects/Instruments/metronome3.png",334,26,327,0.9,"stim/24.jpeg",2,4,3,2,"Instruments",1,1,"left","left",0.578999996,1,1,1,0,NA,NA,NA,NA,NA,NA,NA,NA,NA,NA,NA,NA,NA,NA,NA,NA,NA,NA,NA,NA,NA,NA,NA,NA
"258","stim/objects/HouseObjects/blender4.png",335,26,328,0.3,"stim/62.jpeg",6,2,2,1,"HouseObjects",2,1,"right","left",0.529000044,0,0,1,0,198,26,1,0.3,2,"stim/62.jpeg",6,2,"stim/62.jpeg",1,"right",0.523999929,2,2,1.592999935,4,0.569000006,198,0,1,NA,0,NA,1
"346","stim/objects/HouseObjects/pan3.png",336,26,329,0.9,"stim/13.jpeg",1,3,3,2,"HouseObjects",2,1,"right","right",0.559999943,1,1,1,0,NA,NA,NA,NA,NA,NA,NA,NA,NA,NA,NA,NA,NA,NA,NA,NA,NA,NA,NA,NA,NA,NA,NA,NA
"413","stim/objects/Instruments/balalaika3.png",337,26,330,0.5,"stim/33.jpeg",3,3,1,2,"Instruments",1,2,"left","",NA,0,0,1,0,NA,NA,NA,NA,NA,NA,NA,NA,NA,NA,NA,NA,NA,NA,NA,NA,NA,NA,NA,NA,NA,NA,NA,NA
"552","stim/objects/Instruments/speaker4.png",338,26,331,0.9,"stim/21.jpeg",2,1,3,1,"Instruments",1,2,"left","left",0.484999895,1,1,1,0,14,26,1,0.9,1,"stim/21.jpeg",2,1,"stim/21.jpeg",2,"left",0.768999815,4,4,1.197999954,2,0.93599987,14,1,0,0,1,1,1
"330","stim/objects/HouseObjects/match3.png",339,26,332,0.9,"stim/12.jpeg",1,2,3,2,"HouseObjects",2,2,"right","right",0.552000046,1,1,1,0,NA,NA,NA,NA,NA,NA,NA,NA,NA,NA,NA,NA,NA,NA,NA,NA,NA,NA,NA,NA,NA,NA,NA,NA
"453","stim/objects/Instruments/maraca3.png",340,26,333,0.7,"stim/62.jpeg",6,2,2,2,"Instruments",1,1,"left","left",0.565000057,1,1,1,0,NA,NA,NA,NA,NA,NA,NA,NA,NA,NA,NA,NA,NA,NA,NA,NA,NA,NA,NA,NA,NA,NA,NA,NA
"472","stim/objects/Instruments/marimba4.png",341,26,334,0.1,"stim/11.jpeg",1,1,3,1,"Instruments",1,4,"left","right",0.503000021,0,0,1,0,72,26,1,0.1,1,"stim/11.jpeg",1,1,"stim/11.jpeg",4,"left",1.671999931,4,3,6.340999842,3,0.542000055,72,1,0,0,0,0,1
"481","stim/objects/Instruments/metronome3.png",342,26,335,0.9,"stim/23.jpeg",2,3,3,2,"Instruments",1,4,"left","left",0.559000015,1,1,1,0,NA,NA,NA,NA,NA,NA,NA,NA,NA,NA,NA,NA,NA,NA,NA,NA,NA,NA,NA,NA,NA,NA,NA,NA
"395","stim/objects/HouseObjects/teapot4.png",343,26,336,0.1,"stim/23.jpeg",2,3,3,1,"HouseObjects",2,2,"right","left",0.438999891,0,0,1,0,39,26,1,0.1,2,"stim/23.jpeg",2,3,"stim/23.jpeg",2,"right",0.621000051,1,2,4.392999887,3,1.217999935,39,0,0,NA,0,NA,1
"331","stim/objects/HouseObjects/match3.png",344,26,337,0.9,"stim/12.jpeg",1,2,3,2,"HouseObjects",2,2,"right","right",0.470999956,1,1,1,0,NA,NA,NA,NA,NA,NA,NA,NA,NA,NA,NA,NA,NA,NA,NA,NA,NA,NA,NA,NA,NA,NA,NA,NA
"401","stim/objects/HouseObjects/towel4.png",345,26,338,0.1,"stim/22.jpeg",2,2,3,1,"HouseObjects",2,2,"right","left",0.621000051,0,0,1,0,9,26,1,0.1,2,"stim/22.jpeg",2,2,"stim/22.jpeg",2,"left",0.939999819,4,1,1.805999994,1,0.900999784,9,1,0,0,0,0,1
"313","stim/objects/HouseObjects/lintroller3.png",346,26,339,0.9,"stim/12.jpeg",1,2,3,2,"HouseObjects",2,4,"right","right",0.451999903,1,1,1,0,NA,NA,NA,NA,NA,NA,NA,NA,NA,NA,NA,NA,NA,NA,NA,NA,NA,NA,NA,NA,NA,NA,NA,NA
"558","stim/objects/Instruments/triangle4.png",347,26,340,0.9,"stim/24.jpeg",2,4,3,1,"Instruments",1,3,"left","right",0.430000067,0,0,1,0,79,26,1,0.9,1,"stim/24.jpeg",2,4,"stim/24.jpeg",3,"left",1.112999916,4,3,1.690999746,2,1.645999908,79,1,0,0,0,0,1
"402","stim/objects/HouseObjects/vacuumcleaner3.png",348,26,341,0.7,"stim/51.jpeg",5,1,2,1,"HouseObjects",2,1,"right","left",0.565999746,0,0,1,0,130,26,1,0.7,2,"stim/51.jpeg",5,1,"stim/51.jpeg",1,"right",0.700999975,1,3,1.500999928,2,0.921999931,130,0,0,NA,0,NA,1
"565","stim/objects/Instruments/violin3.png",349,26,342,0.3,"stim/53.jpeg",5,3,2,1,"Instruments",1,2,"left","right",0.616999865,0,0,1,0,28,26,1,0.3,1,"stim/53.jpeg",5,3,"stim/53.jpeg",2,"right",1.315000057,2,4,2.334000111,3,0.638999939,28,0,0,NA,0,NA,1
"348","stim/objects/HouseObjects/pan3.png",350,26,343,0.9,"stim/14.jpeg",1,4,3,2,"HouseObjects",2,3,"right","left",0.464999914,0,0,1,0,NA,NA,NA,NA,NA,NA,NA,NA,NA,NA,NA,NA,NA,NA,NA,NA,NA,NA,NA,NA,NA,NA,NA,NA
"341","stim/objects/HouseObjects/match4.png",351,26,344,0.9,"stim/11.jpeg",1,1,3,1,"HouseObjects",2,2,"right","right",0.43599987,1,1,1,0,30,26,1,0.9,2,"stim/11.jpeg",1,1,"stim/11.jpeg",2,"left",0.898000002,4,2,2.875999928,3,1.022000074,30,1,0,0,0,0,1
"430","stim/objects/Instruments/clarinet3.png",352,26,345,0.5,"stim/43.jpeg",4,3,1,2,"Instruments",1,2,"left","right",0.710000038,0,0,1,0,NA,NA,NA,NA,NA,NA,NA,NA,NA,NA,NA,NA,NA,NA,NA,NA,NA,NA,NA,NA,NA,NA,NA,NA
"462","stim/objects/Instruments/marimba3.png",353,26,346,0.9,"stim/24.jpeg",2,4,3,2,"Instruments",1,4,"left","left",0.499999762,1,1,1,0,NA,NA,NA,NA,NA,NA,NA,NA,NA,NA,NA,NA,NA,NA,NA,NA,NA,NA,NA,NA,NA,NA,NA,NA
"530","stim/objects/Instruments/oboe3.png",354,26,347,0.9,"stim/23.jpeg",2,3,3,2,"Instruments",1,3,"left","left",0.443000078,1,1,1,0,NA,NA,NA,NA,NA,NA,NA,NA,NA,NA,NA,NA,NA,NA,NA,NA,NA,NA,NA,NA,NA,NA,NA,NA
"463","stim/objects/Instruments/marimba3.png",355,26,348,0.9,"stim/22.jpeg",2,2,3,2,"Instruments",1,1,"left","left",0.738999844,1,1,1,0,NA,NA,NA,NA,NA,NA,NA,NA,NA,NA,NA,NA,NA,NA,NA,NA,NA,NA,NA,NA,NA,NA,NA,NA
"349","stim/objects/HouseObjects/pan3.png",356,26,349,0.9,"stim/11.jpeg",1,1,3,2,"HouseObjects",2,2,"right","right",0.447999954,1,1,1,0,NA,NA,NA,NA,NA,NA,NA,NA,NA,NA,NA,NA,NA,NA,NA,NA,NA,NA,NA,NA,NA,NA,NA,NA
"244","stim/objects/HouseObjects/ballofstring3.png",357,26,350,0.5,"stim/31.jpeg",3,1,1,2,"HouseObjects",2,3,"right","left",0.450999975,0,0,1,0,NA,NA,NA,NA,NA,NA,NA,NA,NA,NA,NA,NA,NA,NA,NA,NA,NA,NA,NA,NA,NA,NA,NA,NA
"299","stim/objects/HouseObjects/knife3.png",358,26,351,0.9,"stim/14.jpeg",1,4,3,2,"HouseObjects",2,3,"right","right",0.526000023,1,1,1,0,NA,NA,NA,NA,NA,NA,NA,NA,NA,NA,NA,NA,NA,NA,NA,NA,NA,NA,NA,NA,NA,NA,NA,NA
"314","stim/objects/HouseObjects/lintroller3.png",359,26,352,0.9,"stim/11.jpeg",1,1,3,2,"HouseObjects",2,1,"right","right",0.508000135,1,1,1,0,NA,NA,NA,NA,NA,NA,NA,NA,NA,NA,NA,NA,NA,NA,NA,NA,NA,NA,NA,NA,NA,NA,NA,NA
"315","stim/objects/HouseObjects/lintroller3.png",360,26,353,0.9,"stim/13.jpeg",1,3,3,2,"HouseObjects",2,4,"right","right",0.505999804,1,1,1,0,NA,NA,NA,NA,NA,NA,NA,NA,NA,NA,NA,NA,NA,NA,NA,NA,NA,NA,NA,NA,NA,NA,NA,NA
"514","stim/objects/Instruments/musicstand3.png",361,26,354,0.9,"stim/22.jpeg",2,2,3,2,"Instruments",1,1,"left","left",0.482000113,1,1,1,0,NA,NA,NA,NA,NA,NA,NA,NA,NA,NA,NA,NA,NA,NA,NA,NA,NA,NA,NA,NA,NA,NA,NA,NA
"284","stim/objects/HouseObjects/ironingboard3.png",362,26,355,0.7,"stim/52.jpeg",5,2,2,2,"HouseObjects",2,3,"right","right",0.549999952,1,1,1,0,NA,NA,NA,NA,NA,NA,NA,NA,NA,NA,NA,NA,NA,NA,NA,NA,NA,NA,NA,NA,NA,NA,NA,NA
"523","stim/objects/Instruments/musicstand4.png",363,26,356,0.1,"stim/14.jpeg",1,4,3,1,"Instruments",1,2,"left","left",0.500999928,1,1,1,0,132,26,1,0.1,1,"stim/14.jpeg",1,4,"stim/14.jpeg",2,"left",0.85199976,4,1,4.587999821,3,1.546999931,132,1,0,0,0,0,1
"286","stim/objects/HouseObjects/ironingboard4.png",364,26,357,0.3,"stim/62.jpeg",6,2,2,1,"HouseObjects",2,1,"right","left",0.626999855,0,0,1,0,166,26,1,0.3,2,"stim/62.jpeg",6,2,"stim/62.jpeg",1,"right",0.611999989,1,1,0.860999823,2,0.528000116,166,0,0,NA,0,NA,1
"281","stim/objects/HouseObjects/iron3.png",365,26,358,0.7,"stim/53.jpeg",5,3,2,2,"HouseObjects",2,3,"right","right",0.763000011,1,1,1,0,NA,NA,NA,NA,NA,NA,NA,NA,NA,NA,NA,NA,NA,NA,NA,NA,NA,NA,NA,NA,NA,NA,NA,NA
"549","stim/objects/Instruments/saxophone3.png",366,26,359,0.5,"stim/33.jpeg",3,3,1,1,"Instruments",1,3,"left","right",0.50999999,0,0,1,0,11,26,1,0.5,1,"stim/33.jpeg",3,3,"stim/33.jpeg",3,"left",0.688999891,4,3,1.32799983,3,0.92599988,11,1,1,1,1,1,1
"416","stim/objects/Instruments/banjo3.png",367,26,360,0.5,"stim/31.jpeg",3,1,1,2,"Instruments",1,1,"left","left",0.493999958,1,1,1,0,NA,NA,NA,NA,NA,NA,NA,NA,NA,NA,NA,NA,NA,NA,NA,NA,NA,NA,NA,NA,NA,NA,NA,NA
"317","stim/objects/HouseObjects/lintroller3.png",368,26,361,0.9,"stim/12.jpeg",1,2,3,2,"HouseObjects",2,1,"right","right",0.537999868,1,1,1,0,NA,NA,NA,NA,NA,NA,NA,NA,NA,NA,NA,NA,NA,NA,NA,NA,NA,NA,NA,NA,NA,NA,NA,NA
"418","stim/objects/Instruments/bassdrum3.png",369,26,362,0.5,"stim/31.jpeg",3,1,1,2,"Instruments",1,3,"left","left",0.641000032,1,1,1,0,NA,NA,NA,NA,NA,NA,NA,NA,NA,NA,NA,NA,NA,NA,NA,NA,NA,NA,NA,NA,NA,NA,NA,NA
"497","stim/objects/Instruments/musicsheet3.png",370,26,363,0.9,"stim/23.jpeg",2,3,3,2,"Instruments",1,1,"left","left",0.489999771,1,1,1,0,NA,NA,NA,NA,NA,NA,NA,NA,NA,NA,NA,NA,NA,NA,NA,NA,NA,NA,NA,NA,NA,NA,NA,NA
"490","stim/objects/Instruments/musicsheet3.png",371,26,364,0.9,"stim/23.jpeg",2,3,3,2,"Instruments",1,4,"left","left",0.523999929,1,1,1,0,NA,NA,NA,NA,NA,NA,NA,NA,NA,NA,NA,NA,NA,NA,NA,NA,NA,NA,NA,NA,NA,NA,NA,NA
"246","stim/objects/HouseObjects/ballofstring4.png",372,26,365,0.7,"stim/54.jpeg",5,4,2,1,"HouseObjects",2,3,"right","right",0.763999939,1,1,1,0,104,26,1,0.7,2,"stim/54.jpeg",5,4,"stim/54.jpeg",3,"left",0.80099988,4,2,2.931999922,1,1.122999907,104,1,0,0,0,0,1
"421","stim/objects/Instruments/bassguitar3.png",373,26,366,0.5,"stim/44.jpeg",4,4,1,2,"Instruments",1,2,"left","left",0.732999802,1,1,1,0,NA,NA,NA,NA,NA,NA,NA,NA,NA,NA,NA,NA,NA,NA,NA,NA,NA,NA,NA,NA,NA,NA,NA,NA
"499","stim/objects/Instruments/musicsheet3.png",374,26,367,0.9,"stim/22.jpeg",2,2,3,2,"Instruments",1,4,"left","left",0.539000034,1,1,1,0,NA,NA,NA,NA,NA,NA,NA,NA,NA,NA,NA,NA,NA,NA,NA,NA,NA,NA,NA,NA,NA,NA,NA,NA
"264","stim/objects/HouseObjects/broom4.png",375,26,368,0.3,"stim/64.jpeg",6,4,2,1,"HouseObjects",2,4,"right","right",0.664000034,1,1,1,0,107,26,1,0.3,2,"stim/64.jpeg",6,4,"stim/64.jpeg",4,"left",0.893999815,4,4,2.566999912,4,0.65899992,107,1,1,1,1,1,1
"292","stim/objects/HouseObjects/knife3.png",376,26,369,0.9,"stim/14.jpeg",1,4,3,2,"HouseObjects",2,2,"right","right",0.572999954,1,1,1,0,NA,NA,NA,NA,NA,NA,NA,NA,NA,NA,NA,NA,NA,NA,NA,NA,NA,NA,NA,NA,NA,NA,NA,NA
"515","stim/objects/Instruments/musicstand3.png",377,26,370,0.9,"stim/22.jpeg",2,2,3,2,"Instruments",1,1,"left","left",0.470999956,1,1,1,0,NA,NA,NA,NA,NA,NA,NA,NA,NA,NA,NA,NA,NA,NA,NA,NA,NA,NA,NA,NA,NA,NA,NA,NA
"419","stim/objects/Instruments/bassdrum3.png",378,26,371,0.5,"stim/32.jpeg",3,2,1,2,"Instruments",1,1,"left","right",0.681999922,0,0,1,0,NA,NA,NA,NA,NA,NA,NA,NA,NA,NA,NA,NA,NA,NA,NA,NA,NA,NA,NA,NA,NA,NA,NA,NA
"425","stim/objects/Instruments/cello3.png",379,26,372,0.5,"stim/44.jpeg",4,4,1,2,"Instruments",1,3,"left","right",0.819000006,0,0,1,0,NA,NA,NA,NA,NA,NA,NA,NA,NA,NA,NA,NA,NA,NA,NA,NA,NA,NA,NA,NA,NA,NA,NA,NA
"491","stim/objects/Instruments/musicsheet3.png",380,26,373,0.9,"stim/22.jpeg",2,2,3,2,"Instruments",1,2,"left","left",0.503999949,1,1,1,0,NA,NA,NA,NA,NA,NA,NA,NA,NA,NA,NA,NA,NA,NA,NA,NA,NA,NA,NA,NA,NA,NA,NA,NA
"360","stim/objects/HouseObjects/pitcher3.png",381,26,374,0.9,"stim/12.jpeg",1,2,3,2,"HouseObjects",2,2,"right","right",0.569999933,1,1,1,0,NA,NA,NA,NA,NA,NA,NA,NA,NA,NA,NA,NA,NA,NA,NA,NA,NA,NA,NA,NA,NA,NA,NA,NA
"350","stim/objects/HouseObjects/pan3.png",382,26,375,0.9,"stim/12.jpeg",1,2,3,2,"HouseObjects",2,4,"right","right",0.585000038,1,1,1,0,NA,NA,NA,NA,NA,NA,NA,NA,NA,NA,NA,NA,NA,NA,NA,NA,NA,NA,NA,NA,NA,NA,NA,NA
"249","stim/objects/HouseObjects/barbecuelighter4.png",383,26,376,0.7,"stim/51.jpeg",5,1,2,1,"HouseObjects",2,4,"right","right",0.795999765,1,1,1,0,125,26,1,0.7,2,"stim/51.jpeg",5,1,"stim/51.jpeg",4,"left",0.915999889,4,3,1.559000015,2,0.588999748,125,1,0,0,0,0,1
"456","stim/objects/Instruments/marimba3.png",384,26,377,0.9,"stim/23.jpeg",2,3,3,2,"Instruments",1,1,"left","left",0.585000038,1,1,1,0,NA,NA,NA,NA,NA,NA,NA,NA,NA,NA,NA,NA,NA,NA,NA,NA,NA,NA,NA,NA,NA,NA,NA,NA
"351","stim/objects/HouseObjects/pan3.png",385,26,378,0.9,"stim/11.jpeg",1,1,3,2,"HouseObjects",2,4,"right","right",0.487999916,1,1,1,0,NA,NA,NA,NA,NA,NA,NA,NA,NA,NA,NA,NA,NA,NA,NA,NA,NA,NA,NA,NA,NA,NA,NA,NA
"384","stim/objects/HouseObjects/safetypin3.png",386,26,379,0.5,"stim/32.jpeg",3,2,1,1,"HouseObjects",2,3,"right","right",0.832999945,1,1,1,0,45,26,1,0.5,1,"stim/32.jpeg",3,2,"stim/32.jpeg",3,"right",0.538999796,1,1,1.396999836,3,0.586999893,45,0,0,NA,1,NA,1
"429","stim/objects/Instruments/chime4.png",387,26,380,0.7,"stim/62.jpeg",6,2,2,1,"Instruments",1,4,"left","left",0.608999968,1,1,1,0,150,26,1,0.7,1,"stim/62.jpeg",6,2,"stim/62.jpeg",4,"left",1.047999859,2,1,0.80700016,4,1.296999931,150,1,0,0,1,1,1
"353","stim/objects/HouseObjects/pan3.png",388,26,381,0.9,"stim/12.jpeg",1,2,3,2,"HouseObjects",2,3,"right","right",0.528999805,1,1,1,0,NA,NA,NA,NA,NA,NA,NA,NA,NA,NA,NA,NA,NA,NA,NA,NA,NA,NA,NA,NA,NA,NA,NA,NA
"397","stim/objects/HouseObjects/thermometer4.png",389,26,382,0.1,"stim/24.jpeg",2,4,3,1,"HouseObjects",2,1,"right","left",0.549999952,0,0,1,0,6,26,1,0.1,2,"stim/24.jpeg",2,4,"stim/24.jpeg",1,"left",1.145999908,4,3,1.895999908,1,0.869999886,6,1,0,0,1,1,1
"450","stim/objects/Instruments/laud3.png",390,26,383,0.7,"stim/62.jpeg",6,2,2,2,"Instruments",1,3,"left","left",0.601999998,1,1,1,0,NA,NA,NA,NA,NA,NA,NA,NA,NA,NA,NA,NA,NA,NA,NA,NA,NA,NA,NA,NA,NA,NA,NA,NA
"247","stim/objects/HouseObjects/barbecuelighter3.png",391,26,384,0.5,"stim/33.jpeg",3,3,1,2,"HouseObjects",2,1,"right","right",0.582999945,1,1,1,0,NA,NA,NA,NA,NA,NA,NA,NA,NA,NA,NA,NA,NA,NA,NA,NA,NA,NA,NA,NA,NA,NA,NA,NA
"263","stim/objects/HouseObjects/broom3.png",392,26,385,0.5,"stim/41.jpeg",4,1,1,2,"HouseObjects",2,4,"right","left",0.654000044,0,0,1,0,NA,NA,NA,NA,NA,NA,NA,NA,NA,NA,NA,NA,NA,NA,NA,NA,NA,NA,NA,NA,NA,NA,NA,NA
"422","stim/objects/Instruments/bassguitar3.png",393,26,386,0.5,"stim/43.jpeg",4,3,1,2,"Instruments",1,4,"left","left",0.619999886,1,1,1,0,NA,NA,NA,NA,NA,NA,NA,NA,NA,NA,NA,NA,NA,NA,NA,NA,NA,NA,NA,NA,NA,NA,NA,NA
"245","stim/objects/HouseObjects/ballofstring3.png",394,26,387,0.5,"stim/32.jpeg",3,2,1,2,"HouseObjects",2,3,"right","right",0.756999969,1,1,1,0,NA,NA,NA,NA,NA,NA,NA,NA,NA,NA,NA,NA,NA,NA,NA,NA,NA,NA,NA,NA,NA,NA,NA,NA
"532","stim/objects/Instruments/oboe3.png",395,26,388,0.9,"stim/23.jpeg",2,3,3,2,"Instruments",1,3,"left","left",0.449999809,1,1,1,0,NA,NA,NA,NA,NA,NA,NA,NA,NA,NA,NA,NA,NA,NA,NA,NA,NA,NA,NA,NA,NA,NA,NA,NA
"409","stim/objects/Instruments/acousticguitar3.png",396,26,389,0.5,"stim/33.jpeg",3,3,1,2,"Instruments",1,1,"left","right",0.503000021,0,0,1,0,NA,NA,NA,NA,NA,NA,NA,NA,NA,NA,NA,NA,NA,NA,NA,NA,NA,NA,NA,NA,NA,NA,NA,NA
"492","stim/objects/Instruments/musicsheet3.png",397,26,390,0.9,"stim/22.jpeg",2,2,3,2,"Instruments",1,4,"left","left",0.475999832,1,1,1,0,NA,NA,NA,NA,NA,NA,NA,NA,NA,NA,NA,NA,NA,NA,NA,NA,NA,NA,NA,NA,NA,NA,NA,NA
"335","stim/objects/HouseObjects/match3.png",398,26,391,0.9,"stim/11.jpeg",1,1,3,2,"HouseObjects",2,1,"right","right",0.585999966,1,1,1,0,NA,NA,NA,NA,NA,NA,NA,NA,NA,NA,NA,NA,NA,NA,NA,NA,NA,NA,NA,NA,NA,NA,NA,NA
"380","stim/objects/HouseObjects/rubbergloves3.png",399,26,392,0.5,"stim/34.jpeg",3,4,1,1,"HouseObjects",2,3,"right","right",0.634999752,1,1,1,0,42,26,1,0.5,1,"stim/34.jpeg",3,4,"stim/34.jpeg",3,"left",1.135999918,4,4,0.510999918,4,0.372999907,42,1,1,1,0,0,1
"526","stim/objects/Instruments/oboe3.png",400,26,393,0.9,"stim/22.jpeg",2,2,3,2,"Instruments",1,1,"left","left",0.486000061,1,1,1,0,NA,NA,NA,NA,NA,NA,NA,NA,NA,NA,NA,NA,NA,NA,NA,NA,NA,NA,NA,NA,NA,NA,NA,NA
"483","stim/objects/Instruments/metronome3.png",401,26,394,0.9,"stim/21.jpeg",2,1,3,2,"Instruments",1,1,"left","left",0.638000011,1,1,1,0,NA,NA,NA,NA,NA,NA,NA,NA,NA,NA,NA,NA,NA,NA,NA,NA,NA,NA,NA,NA,NA,NA,NA,NA
"318","stim/objects/HouseObjects/lintroller3.png",402,26,395,0.9,"stim/13.jpeg",1,3,3,2,"HouseObjects",2,2,"right","right",0.602999926,1,1,1,0,NA,NA,NA,NA,NA,NA,NA,NA,NA,NA,NA,NA,NA,NA,NA,NA,NA,NA,NA,NA,NA,NA,NA,NA
"300","stim/objects/HouseObjects/knife3.png",403,26,396,0.9,"stim/11.jpeg",1,1,3,2,"HouseObjects",2,3,"right","right",0.571999788,1,1,1,0,NA,NA,NA,NA,NA,NA,NA,NA,NA,NA,NA,NA,NA,NA,NA,NA,NA,NA,NA,NA,NA,NA,NA,NA
"295","stim/objects/HouseObjects/knife3.png",404,26,397,0.9,"stim/11.jpeg",1,1,3,2,"HouseObjects",2,4,"right","right",0.592999935,1,1,1,0,NA,NA,NA,NA,NA,NA,NA,NA,NA,NA,NA,NA,NA,NA,NA,NA,NA,NA,NA,NA,NA,NA,NA,NA
"500","stim/objects/Instruments/musicsheet3.png",405,26,398,0.9,"stim/24.jpeg",2,4,3,2,"Instruments",1,2,"left","left",0.717999935,1,1,1,0,NA,NA,NA,NA,NA,NA,NA,NA,NA,NA,NA,NA,NA,NA,NA,NA,NA,NA,NA,NA,NA,NA,NA,NA
"482","stim/objects/Instruments/metronome3.png",406,26,399,0.9,"stim/22.jpeg",2,2,3,2,"Instruments",1,4,"left","left",0.710999966,1,1,1,0,NA,NA,NA,NA,NA,NA,NA,NA,NA,NA,NA,NA,NA,NA,NA,NA,NA,NA,NA,NA,NA,NA,NA,NA
"407","stim/objects/Instruments/accordion3.png",407,26,400,0.5,"stim/32.jpeg",3,2,1,2,"Instruments",1,1,"left","right",0.526000023,0,0,1,0,NA,NA,NA,NA,NA,NA,NA,NA,NA,NA,NA,NA,NA,NA,NA,NA,NA,NA,NA,NA,NA,NA,NA,NA
"241","stim/objects/HouseObjects/ashtray3.png",408,26,401,0.5,"stim/34.jpeg",3,4,1,2,"HouseObjects",2,2,"right","right",0.662999868,1,1,1,0,NA,NA,NA,NA,NA,NA,NA,NA,NA,NA,NA,NA,NA,NA,NA,NA,NA,NA,NA,NA,NA,NA,NA,NA
"449","stim/objects/Instruments/laud3.png",409,26,402,0.7,"stim/64.jpeg",6,4,2,2,"Instruments",1,3,"left","left",0.700000048,1,1,1,0,NA,NA,NA,NA,NA,NA,NA,NA,NA,NA,NA,NA,NA,NA,NA,NA,NA,NA,NA,NA,NA,NA,NA,NA
"517","stim/objects/Instruments/musicstand3.png",410,26,403,0.9,"stim/23.jpeg",2,3,3,2,"Instruments",1,4,"left","",NA,0,0,1,0,NA,NA,NA,NA,NA,NA,NA,NA,NA,NA,NA,NA,NA,NA,NA,NA,NA,NA,NA,NA,NA,NA,NA,NA
"321","stim/objects/HouseObjects/lintroller3.png",411,26,404,0.9,"stim/13.jpeg",1,3,3,2,"HouseObjects",2,3,"right","right",0.4599998,1,1,1,0,NA,NA,NA,NA,NA,NA,NA,NA,NA,NA,NA,NA,NA,NA,NA,NA,NA,NA,NA,NA,NA,NA,NA,NA
"296","stim/objects/HouseObjects/knife3.png",412,26,405,0.9,"stim/12.jpeg",1,2,3,2,"HouseObjects",2,1,"right","right",0.545999765,1,1,1,0,NA,NA,NA,NA,NA,NA,NA,NA,NA,NA,NA,NA,NA,NA,NA,NA,NA,NA,NA,NA,NA,NA,NA,NA
"336","stim/objects/HouseObjects/match3.png",413,26,406,0.9,"stim/14.jpeg",1,4,3,2,"HouseObjects",2,2,"right","right",0.728999853,1,1,1,0,NA,NA,NA,NA,NA,NA,NA,NA,NA,NA,NA,NA,NA,NA,NA,NA,NA,NA,NA,NA,NA,NA,NA,NA
"554","stim/objects/Instruments/tambourine4.png",414,26,407,0.9,"stim/22.jpeg",2,2,3,1,"Instruments",1,2,"left","left",0.521999836,1,1,1,0,35,26,1,0.9,1,"stim/22.jpeg",2,2,"stim/22.jpeg",2,"left",1.176999807,4,2,1.208999872,3,0.686999798,35,1,1,1,0,0,1
"327","stim/objects/HouseObjects/match3.png",415,26,408,0.9,"stim/14.jpeg",1,4,3,2,"HouseObjects",2,3,"right","right",0.527999878,1,1,1,0,NA,NA,NA,NA,NA,NA,NA,NA,NA,NA,NA,NA,NA,NA,NA,NA,NA,NA,NA,NA,NA,NA,NA,NA
"354","stim/objects/HouseObjects/pan3.png",416,26,409,0.9,"stim/12.jpeg",1,2,3,2,"HouseObjects",2,1,"right","right",0.401000023,1,1,1,0,NA,NA,NA,NA,NA,NA,NA,NA,NA,NA,NA,NA,NA,NA,NA,NA,NA,NA,NA,NA,NA,NA,NA,NA
"476","stim/objects/Instruments/metronome3.png",417,26,410,0.9,"stim/22.jpeg",2,2,3,2,"Instruments",1,1,"left","left",0.585999966,1,1,1,0,NA,NA,NA,NA,NA,NA,NA,NA,NA,NA,NA,NA,NA,NA,NA,NA,NA,NA,NA,NA,NA,NA,NA,NA
"477","stim/objects/Instruments/metronome3.png",418,26,411,0.9,"stim/21.jpeg",2,1,3,2,"Instruments",1,2,"left","left",0.48300004,1,1,1,0,NA,NA,NA,NA,NA,NA,NA,NA,NA,NA,NA,NA,NA,NA,NA,NA,NA,NA,NA,NA,NA,NA,NA,NA
"560","stim/objects/Instruments/trombone4.png",419,26,412,0.9,"stim/21.jpeg",2,1,3,1,"Instruments",1,2,"left","left",0.518999815,1,1,1,0,75,26,1,0.9,1,"stim/21.jpeg",2,1,"stim/21.jpeg",2,"right",1.111000061,1,2,1.019000053,2,0.834000111,75,0,0,NA,1,NA,1
"518","stim/objects/Instruments/musicstand3.png",420,26,413,0.9,"stim/22.jpeg",2,2,3,2,"Instruments",1,4,"left","left",0.846999884,1,1,1,0,NA,NA,NA,NA,NA,NA,NA,NA,NA,NA,NA,NA,NA,NA,NA,NA,NA,NA,NA,NA,NA,NA,NA,NA
"436","stim/objects/Instruments/cymbal3.png",421,26,414,0.7,"stim/61.jpeg",6,1,2,2,"Instruments",1,4,"left","left",0.649999857,1,1,1,0,NA,NA,NA,NA,NA,NA,NA,NA,NA,NA,NA,NA,NA,NA,NA,NA,NA,NA,NA,NA,NA,NA,NA,NA
"369","stim/objects/HouseObjects/pitcher3.png",422,26,415,0.9,"stim/11.jpeg",1,1,3,2,"HouseObjects",2,4,"right","right",0.496999979,1,1,1,0,NA,NA,NA,NA,NA,NA,NA,NA,NA,NA,NA,NA,NA,NA,NA,NA,NA,NA,NA,NA,NA,NA,NA,NA
"262","stim/objects/HouseObjects/broom3.png",423,26,416,0.5,"stim/44.jpeg",4,4,1,2,"HouseObjects",2,4,"right","left",0.569999933,0,0,1,0,NA,NA,NA,NA,NA,NA,NA,NA,NA,NA,NA,NA,NA,NA,NA,NA,NA,NA,NA,NA,NA,NA,NA,NA
"309","stim/objects/HouseObjects/lintroller3.png",424,26,417,0.9,"stim/12.jpeg",1,2,3,2,"HouseObjects",2,3,"right","right",0.485000134,1,1,1,0,NA,NA,NA,NA,NA,NA,NA,NA,NA,NA,NA,NA,NA,NA,NA,NA,NA,NA,NA,NA,NA,NA,NA,NA
"534","stim/objects/Instruments/oboe3.png",425,26,418,0.9,"stim/24.jpeg",2,4,3,2,"Instruments",1,4,"left","right",0.417000055,0,0,1,0,NA,NA,NA,NA,NA,NA,NA,NA,NA,NA,NA,NA,NA,NA,NA,NA,NA,NA,NA,NA,NA,NA,NA,NA
"459","stim/objects/Instruments/marimba3.png",426,26,419,0.9,"stim/24.jpeg",2,4,3,2,"Instruments",1,4,"left","left",0.448999882,1,1,1,0,NA,NA,NA,NA,NA,NA,NA,NA,NA,NA,NA,NA,NA,NA,NA,NA,NA,NA,NA,NA,NA,NA,NA,NA
"460","stim/objects/Instruments/marimba3.png",427,26,420,0.9,"stim/21.jpeg",2,1,3,2,"Instruments",1,3,"left","left",0.475000143,1,1,1,0,NA,NA,NA,NA,NA,NA,NA,NA,NA,NA,NA,NA,NA,NA,NA,NA,NA,NA,NA,NA,NA,NA,NA,NA
"260","stim/objects/HouseObjects/bottle3.png",428,26,421,0.5,"stim/43.jpeg",4,3,1,2,"HouseObjects",2,4,"right","left",0.569000006,0,0,1,0,NA,NA,NA,NA,NA,NA,NA,NA,NA,NA,NA,NA,NA,NA,NA,NA,NA,NA,NA,NA,NA,NA,NA,NA
"403","stim/objects/HouseObjects/vacuumcleaner4.png",429,26,422,0.1,"stim/23.jpeg",2,3,3,1,"HouseObjects",2,4,"right","right",0.475999832,1,1,1,0,3,26,1,0.1,2,"stim/23.jpeg",2,3,"stim/23.jpeg",4,"left",1.286000013,4,1,2.416999817,2,0.998999834,3,1,0,0,0,0,1
"285","stim/objects/HouseObjects/ironingboard3.png",430,26,423,0.7,"stim/54.jpeg",5,4,2,2,"HouseObjects",2,4,"right","left",0.548000097,0,0,1,0,NA,NA,NA,NA,NA,NA,NA,NA,NA,NA,NA,NA,NA,NA,NA,NA,NA,NA,NA,NA,NA,NA,NA,NA
"442","stim/objects/Instruments/doublebass3.png",431,26,424,0.7,"stim/63.jpeg",6,3,2,2,"Instruments",1,2,"left","left",0.687000036,1,1,1,0,NA,NA,NA,NA,NA,NA,NA,NA,NA,NA,NA,NA,NA,NA,NA,NA,NA,NA,NA,NA,NA,NA,NA,NA
"536","stim/objects/Instruments/oboe3.png",432,26,425,0.9,"stim/24.jpeg",2,4,3,2,"Instruments",1,1,"left","left",0.484999895,1,1,1,0,NA,NA,NA,NA,NA,NA,NA,NA,NA,NA,NA,NA,NA,NA,NA,NA,NA,NA,NA,NA,NA,NA,NA,NA
"543","stim/objects/Instruments/pipepiano3.png",433,26,426,0.5,"stim/34.jpeg",3,4,1,1,"Instruments",1,2,"left","right",0.557999849,0,0,1,0,41,26,1,0.5,1,"stim/34.jpeg",3,4,"stim/34.jpeg",2,"left",0.804000139,4,4,1.490999937,4,0.874000072,41,1,1,1,0,0,1
"546","stim/objects/Instruments/record_player4.png",434,26,427,0.1,"stim/11.jpeg",1,1,3,1,"Instruments",1,1,"left","right",0.603999853,0,0,1,0,169,26,1,0.1,1,"stim/11.jpeg",1,1,"stim/11.jpeg",1,"right",0.632999897,1,2,1.512999773,4,1.427999973,169,0,0,NA,0,NA,1
"455","stim/objects/Instruments/maraca4.png",435,26,428,0.7,"stim/61.jpeg",6,1,2,1,"Instruments",1,4,"left","left",0.582999945,1,1,1,0,151,26,1,0.7,1,"stim/61.jpeg",6,1,"stim/61.jpeg",4,"left",1.505000114,4,3,1.63499999,1,0.630000114,151,1,0,0,0,0,1
"250","stim/objects/HouseObjects/basket3.png",436,26,429,0.5,"stim/34.jpeg",3,4,1,2,"HouseObjects",2,1,"right","right",0.51699996,1,1,1,0,NA,NA,NA,NA,NA,NA,NA,NA,NA,NA,NA,NA,NA,NA,NA,NA,NA,NA,NA,NA,NA,NA,NA,NA
"502","stim/objects/Instruments/musicsheet3.png",437,26,430,0.9,"stim/21.jpeg",2,1,3,2,"Instruments",1,3,"left","left",0.598999977,1,1,1,0,NA,NA,NA,NA,NA,NA,NA,NA,NA,NA,NA,NA,NA,NA,NA,NA,NA,NA,NA,NA,NA,NA,NA,NA
"253","stim/objects/HouseObjects/bleachbottle3.png",438,26,431,0.5,"stim/34.jpeg",3,4,1,2,"HouseObjects",2,3,"right","right",0.598999977,1,1,1,0,NA,NA,NA,NA,NA,NA,NA,NA,NA,NA,NA,NA,NA,NA,NA,NA,NA,NA,NA,NA,NA,NA,NA,NA
"248","stim/objects/HouseObjects/barbecuelighter3.png",439,26,432,0.5,"stim/32.jpeg",3,2,1,2,"HouseObjects",2,3,"right","right",0.720999956,1,1,1,0,NA,NA,NA,NA,NA,NA,NA,NA,NA,NA,NA,NA,NA,NA,NA,NA,NA,NA,NA,NA,NA,NA,NA,NA
"375","stim/objects/HouseObjects/pitcher4.png",440,26,433,0.9,"stim/13.jpeg",1,3,3,1,"HouseObjects",2,3,"right","right",0.610999823,1,1,1,0,82,26,1,0.9,2,"stim/13.jpeg",1,3,"stim/13.jpeg",3,"right",0.568999767,2,3,2.076999903,1,0.822999954,82,0,1,NA,0,NA,1
"345","stim/objects/HouseObjects/pan3.png",441,26,434,0.9,"stim/11.jpeg",1,1,3,2,"HouseObjects",2,2,"right","right",0.565999985,1,1,1,0,NA,NA,NA,NA,NA,NA,NA,NA,NA,NA,NA,NA,NA,NA,NA,NA,NA,NA,NA,NA,NA,NA,NA,NA
"261","stim/objects/HouseObjects/bottle4.png",442,26,435,0.3,"stim/63.jpeg",6,3,2,1,"HouseObjects",2,2,"right","left",0.544999838,0,0,1,0,109,26,1,0.3,2,"stim/63.jpeg",6,3,"stim/63.jpeg",2,"right",0.627000093,1,1,2.859999895,3,1.493000031,109,0,0,NA,0,NA,1
"390","stim/objects/HouseObjects/sponge3.png",443,26,436,0.5,"stim/42.jpeg",4,2,1,1,"HouseObjects",2,2,"right","right",0.568999767,1,1,1,0,153,26,1,0.5,2,"stim/42.jpeg",4,2,"stim/42.jpeg",2,"left",0.825999737,3,1,2.360999823,2,0.803999901,153,1,0,0,1,1,1
"311","stim/objects/HouseObjects/lintroller3.png",444,26,437,0.9,"stim/11.jpeg",1,1,3,2,"HouseObjects",2,3,"right","right",0.579999924,1,1,1,0,NA,NA,NA,NA,NA,NA,NA,NA,NA,NA,NA,NA,NA,NA,NA,NA,NA,NA,NA,NA,NA,NA,NA,NA
"270","stim/objects/HouseObjects/clock4.png",445,26,438,0.3,"stim/62.jpeg",6,2,2,1,"HouseObjects",2,2,"right","",NA,0,0,1,0,98,26,1,0.3,2,"stim/62.jpeg",6,2,"stim/62.jpeg",2,"right",0.526999712,1,1,0.605999947,2,0.808999777,98,0,0,NA,1,NA,1
"516","stim/objects/Instruments/musicstand3.png",446,26,439,0.9,"stim/21.jpeg",2,1,3,2,"Instruments",1,2,"left","left",0.519999981,1,1,1,0,NA,NA,NA,NA,NA,NA,NA,NA,NA,NA,NA,NA,NA,NA,NA,NA,NA,NA,NA,NA,NA,NA,NA,NA
"484","stim/objects/Instruments/metronome3.png",447,26,440,0.9,"stim/23.jpeg",2,3,3,2,"Instruments",1,3,"left","left",0.437000036,1,1,1,0,NA,NA,NA,NA,NA,NA,NA,NA,NA,NA,NA,NA,NA,NA,NA,NA,NA,NA,NA,NA,NA,NA,NA,NA
"504","stim/objects/Instruments/musicsheet3.png",448,26,441,0.9,"stim/21.jpeg",2,1,3,2,"Instruments",1,3,"left","left",0.476999998,1,1,1,0,NA,NA,NA,NA,NA,NA,NA,NA,NA,NA,NA,NA,NA,NA,NA,NA,NA,NA,NA,NA,NA,NA,NA,NA
"266","stim/objects/HouseObjects/bucket3.png",449,26,442,0.5,"stim/41.jpeg",4,1,1,2,"HouseObjects",2,2,"right","right",0.396999836,1,1,1,0,NA,NA,NA,NA,NA,NA,NA,NA,NA,NA,NA,NA,NA,NA,NA,NA,NA,NA,NA,NA,NA,NA,NA,NA
"324","stim/objects/HouseObjects/lintroller4.png",450,26,443,0.9,"stim/14.jpeg",1,4,3,1,"HouseObjects",2,4,"right","right",0.586999893,1,1,1,0,134,26,1,0.9,2,"stim/14.jpeg",1,4,"stim/14.jpeg",4,"right",0.881000042,2,3,3.22699976,1,0.927000046,134,0,0,NA,0,NA,1
"529","stim/objects/Instruments/oboe3.png",451,26,444,0.9,"stim/21.jpeg",2,1,3,2,"Instruments",1,1,"left","left",0.47300005,1,1,1,0,NA,NA,NA,NA,NA,NA,NA,NA,NA,NA,NA,NA,NA,NA,NA,NA,NA,NA,NA,NA,NA,NA,NA,NA
"383","stim/objects/HouseObjects/rug4.png",452,26,445,0.9,"stim/13.jpeg",1,3,3,1,"HouseObjects",2,2,"right","right",0.562999964,1,1,1,0,20,26,1,0.9,2,"stim/13.jpeg",1,3,"stim/13.jpeg",2,"right",1.15199995,4,3,1.499000072,3,1.190999985,20,0,1,NA,0,NA,1
"376","stim/objects/HouseObjects/recyclingbin3.png",453,26,446,0.5,"stim/32.jpeg",3,2,1,1,"HouseObjects",2,3,"right","right",0.611999989,1,1,1,0,174,26,1,0.5,1,"stim/32.jpeg",3,2,"stim/32.jpeg",3,"right",1.180999994,1,4,3.747999907,3,0.691999912,174,0,0,NA,1,NA,1
"535","stim/objects/Instruments/oboe3.png",454,26,447,0.9,"stim/21.jpeg",2,1,3,2,"Instruments",1,1,"left","left",0.544999838,1,1,1,0,NA,NA,NA,NA,NA,NA,NA,NA,NA,NA,NA,NA,NA,NA,NA,NA,NA,NA,NA,NA,NA,NA,NA,NA
"320","stim/objects/HouseObjects/lintroller3.png",455,26,448,0.9,"stim/12.jpeg",1,2,3,2,"HouseObjects",2,1,"right","right",0.562999964,1,1,1,0,NA,NA,NA,NA,NA,NA,NA,NA,NA,NA,NA,NA,NA,NA,NA,NA,NA,NA,NA,NA,NA,NA,NA,NA
"268","stim/objects/HouseObjects/clock3.png",456,26,449,0.5,"stim/43.jpeg",4,3,1,2,"HouseObjects",2,1,"right","right",0.532999754,1,1,1,0,NA,NA,NA,NA,NA,NA,NA,NA,NA,NA,NA,NA,NA,NA,NA,NA,NA,NA,NA,NA,NA,NA,NA,NA
"544","stim/objects/Instruments/pipepiano4.png",457,26,450,0.1,"stim/13.jpeg",1,3,3,1,"Instruments",1,3,"left","right",0.527999878,0,0,1,0,25,26,1,0.1,1,"stim/13.jpeg",1,3,"stim/13.jpeg",3,"left",0.801999807,4,3,1.605000019,1,0.572999954,25,1,1,1,0,0,1
"338","stim/objects/HouseObjects/match3.png",458,26,451,0.9,"stim/12.jpeg",1,2,3,2,"HouseObjects",2,1,"right","right",0.576999903,1,1,1,0,NA,NA,NA,NA,NA,NA,NA,NA,NA,NA,NA,NA,NA,NA,NA,NA,NA,NA,NA,NA,NA,NA,NA,NA
"512","stim/objects/Instruments/musicstand3.png",459,26,452,0.9,"stim/23.jpeg",2,3,3,2,"Instruments",1,1,"left","left",0.530999899,1,1,1,0,NA,NA,NA,NA,NA,NA,NA,NA,NA,NA,NA,NA,NA,NA,NA,NA,NA,NA,NA,NA,NA,NA,NA,NA
"438","stim/objects/Instruments/cymbal3.png",460,26,453,0.7,"stim/62.jpeg",6,2,2,2,"Instruments",1,4,"left","right",0.629999876,0,0,1,0,NA,NA,NA,NA,NA,NA,NA,NA,NA,NA,NA,NA,NA,NA,NA,NA,NA,NA,NA,NA,NA,NA,NA,NA
"420","stim/objects/Instruments/bassdrum4.png",461,26,454,0.3,"stim/52.jpeg",5,2,2,1,"Instruments",1,2,"left","right",0.824999809,0,0,1,0,173,26,1,0.3,1,"stim/52.jpeg",5,2,"stim/52.jpeg",2,"left",0.75,3,2,3.241999865,1,0.395999908,173,1,1,1,0,0,1
"298","stim/objects/HouseObjects/knife3.png",462,26,455,0.9,"stim/13.jpeg",1,3,3,2,"HouseObjects",2,2,"right","right",0.529000044,1,1,1,0,NA,NA,NA,NA,NA,NA,NA,NA,NA,NA,NA,NA,NA,NA,NA,NA,NA,NA,NA,NA,NA,NA,NA,NA
"557","stim/objects/Instruments/triangle3.png",463,26,456,0.5,"stim/44.jpeg",4,4,1,1,"Instruments",1,1,"left","left",0.530999899,1,1,1,0,71,26,1,0.5,2,"stim/44.jpeg",4,4,"stim/44.jpeg",1,"right",1.215999842,1,3,1.171000004,3,0.726000071,71,0,0,NA,0,NA,1
"513","stim/objects/Instruments/musicstand3.png",464,26,457,0.9,"stim/24.jpeg",2,4,3,2,"Instruments",1,3,"left","left",0.537999868,1,1,1,0,NA,NA,NA,NA,NA,NA,NA,NA,NA,NA,NA,NA,NA,NA,NA,NA,NA,NA,NA,NA,NA,NA,NA,NA
"373","stim/objects/HouseObjects/pitcher3.png",465,26,458,0.9,"stim/11.jpeg",1,1,3,2,"HouseObjects",2,2,"right","right",0.507999897,1,1,1,0,NA,NA,NA,NA,NA,NA,NA,NA,NA,NA,NA,NA,NA,NA,NA,NA,NA,NA,NA,NA,NA,NA,NA,NA
"332","stim/objects/HouseObjects/match3.png",466,26,459,0.9,"stim/11.jpeg",1,1,3,2,"HouseObjects",2,2,"right","right",0.620999813,1,1,1,0,NA,NA,NA,NA,NA,NA,NA,NA,NA,NA,NA,NA,NA,NA,NA,NA,NA,NA,NA,NA,NA,NA,NA,NA
