"","obj_file","X.x","participant.x","trialN.x","trial_cond","scn_file.x","scn_cat","scn_inst","scn_condition","fillers","obj_cat","obj_cat_num","quadrant","corr_ans","key_resp_trial.keys","key_resp_trial.rt","trial_acc","trial_acc_manual","group.x","practice","X.y","participant.y","OvsN","PE_level","object_cat","scn_file.y","corr_scn_cat","corr_scn_inst","scn_file.1","corr_loc","key_resp_id.keys","key_resp_id.rt","key_resp_conf.keys","key_resp_assoc.keys","key_resp_assoc.rt","key_resp_loc.keys","key_resp_loc.rt","trialN.y","id_acc","assoc.acc","cond_assoc","loc.acc","cond_loc","group.y"
"76","stim/objects/HouseObjects/recyclingbin2.png",1,72,1,0.9,"stim/41.jpeg",4,1,3,NA,"HouseObjects",1,2,"left","",NA,0,0,0,1,NA,NA,NA,NA,NA,NA,NA,NA,NA,NA,NA,NA,NA,NA,NA,NA,NA,NA,NA,NA,NA,NA,NA,NA
"209","stim/objects/Instruments/panflute.png",2,72,2,0.7,"stim/11.jpeg",1,1,2,NA,"Instruments",2,1,"right","right",0.666000128,1,1,0,1,NA,NA,NA,NA,NA,NA,NA,NA,NA,NA,NA,NA,NA,NA,NA,NA,NA,NA,NA,NA,NA,NA,NA,NA
"186","stim/objects/Instruments/musicstand2.png",3,72,3,0.9,"stim/33.jpeg",3,3,3,NA,"Instruments",2,2,"right","",NA,0,0,0,1,NA,NA,NA,NA,NA,NA,NA,NA,NA,NA,NA,NA,NA,NA,NA,NA,NA,NA,NA,NA,NA,NA,NA,NA
"126","stim/objects/Instruments/keyboard2.png",4,72,4,0.3,"stim/21.jpeg",2,1,2,NA,"Instruments",2,4,"right","left",0.611999989,0,0,0,1,NA,NA,NA,NA,NA,NA,NA,NA,NA,NA,NA,NA,NA,NA,NA,NA,NA,NA,NA,NA,NA,NA,NA,NA
"145","stim/objects/Instruments/marimba.png",5,72,5,0.5,"stim/54.jpeg",5,4,1,NA,"Instruments",2,3,"right","",NA,0,0,0,1,NA,NA,NA,NA,NA,NA,NA,NA,NA,NA,NA,NA,NA,NA,NA,NA,NA,NA,NA,NA,NA,NA,NA,NA
"153","stim/objects/Instruments/metronome.png",6,72,6,0.5,"stim/61.jpeg",6,1,1,NA,"Instruments",2,3,"right","right",0.730000257,1,1,0,1,NA,NA,NA,NA,NA,NA,NA,NA,NA,NA,NA,NA,NA,NA,NA,NA,NA,NA,NA,NA,NA,NA,NA,NA
"200","stim/objects/Instruments/oboe2.png",7,72,7,0.9,"stim/34.jpeg",3,4,3,NA,"Instruments",2,3,"right","right",0.637000084,1,1,0,1,NA,NA,NA,NA,NA,NA,NA,NA,NA,NA,NA,NA,NA,NA,NA,NA,NA,NA,NA,NA,NA,NA,NA,NA
"88","stim/objects/HouseObjects/remote2.png",8,72,8,0.9,"stim/42.jpeg",4,2,3,NA,"HouseObjects",1,1,"left","left",0.613000154,1,1,0,1,NA,NA,NA,NA,NA,NA,NA,NA,NA,NA,NA,NA,NA,NA,NA,NA,NA,NA,NA,NA,NA,NA,NA,NA
"187","stim/objects/Instruments/musicstand2.png",9,72,9,0.9,"stim/33.jpeg",3,3,3,NA,"Instruments",2,4,"right","",NA,0,0,0,1,NA,NA,NA,NA,NA,NA,NA,NA,NA,NA,NA,NA,NA,NA,NA,NA,NA,NA,NA,NA,NA,NA,NA,NA
"158","stim/objects/Instruments/metronome2.png",10,72,10,0.9,"stim/31.jpeg",3,1,3,NA,"Instruments",2,3,"right","left",0.656000137,0,0,0,1,NA,NA,NA,NA,NA,NA,NA,NA,NA,NA,NA,NA,NA,NA,NA,NA,NA,NA,NA,NA,NA,NA,NA,NA
"30","stim/objects/HouseObjects/key2.png",11,72,11,0.7,"stim/23.jpeg",2,3,2,NA,"HouseObjects",1,2,"left","left",0.633000374,1,1,0,1,NA,NA,NA,NA,NA,NA,NA,NA,NA,NA,NA,NA,NA,NA,NA,NA,NA,NA,NA,NA,NA,NA,NA,NA
"233","stim/objects/Instruments/record.png",12,72,12,0.7,"stim/13.jpeg",1,3,2,NA,"Instruments",2,1,"right","right",0.629000187,1,1,0,1,NA,NA,NA,NA,NA,NA,NA,NA,NA,NA,NA,NA,NA,NA,NA,NA,NA,NA,NA,NA,NA,NA,NA,NA
"18","stim/objects/HouseObjects/ironingboard2.png",13,72,13,0.7,"stim/22.jpeg",2,2,2,NA,"HouseObjects",1,3,"left","left",0.704000235,1,1,0,1,NA,NA,NA,NA,NA,NA,NA,NA,NA,NA,NA,NA,NA,NA,NA,NA,NA,NA,NA,NA,NA,NA,NA,NA
"1","stim/objects/HouseObjects/iron.png",14,72,14,0.5,"stim/51.jpeg",5,1,1,NA,"HouseObjects",1,1,"left","right",0.60800004,0,0,0,1,NA,NA,NA,NA,NA,NA,NA,NA,NA,NA,NA,NA,NA,NA,NA,NA,NA,NA,NA,NA,NA,NA,NA,NA
"85","stim/objects/HouseObjects/remote.png",15,72,15,0.3,"stim/12.jpeg",1,2,2,NA,"HouseObjects",1,2,"left","right",0.735000134,0,0,0,1,NA,NA,NA,NA,NA,NA,NA,NA,NA,NA,NA,NA,NA,NA,NA,NA,NA,NA,NA,NA,NA,NA,NA,NA
"129","stim/objects/Instruments/laud.png",16,72,16,0.5,"stim/52.jpeg",5,2,1,NA,"Instruments",2,3,"right","left",0.573000193,0,0,0,1,NA,NA,NA,NA,NA,NA,NA,NA,NA,NA,NA,NA,NA,NA,NA,NA,NA,NA,NA,NA,NA,NA,NA,NA
"13","stim/objects/HouseObjects/ironingboard.png",17,72,17,0.5,"stim/52.jpeg",5,2,1,NA,"HouseObjects",1,2,"left","right",0.765000343,0,0,0,1,NA,NA,NA,NA,NA,NA,NA,NA,NA,NA,NA,NA,NA,NA,NA,NA,NA,NA,NA,NA,NA,NA,NA,NA
"134","stim/objects/Instruments/laud2.png",18,72,18,0.3,"stim/22.jpeg",2,2,2,NA,"Instruments",2,4,"right","left",0.560000181,0,0,0,1,NA,NA,NA,NA,NA,NA,NA,NA,NA,NA,NA,NA,NA,NA,NA,NA,NA,NA,NA,NA,NA,NA,NA,NA
"61","stim/objects/HouseObjects/pan.png",19,72,19,0.5,"stim/63.jpeg",6,3,1,NA,"HouseObjects",1,4,"left","right",0.633000135,0,0,0,1,NA,NA,NA,NA,NA,NA,NA,NA,NA,NA,NA,NA,NA,NA,NA,NA,NA,NA,NA,NA,NA,NA,NA,NA
"6","stim/objects/HouseObjects/iron2.png",20,72,20,0.7,"stim/21.jpeg",2,1,2,NA,"HouseObjects",1,1,"left","left",0.56400013,1,1,0,1,NA,NA,NA,NA,NA,NA,NA,NA,NA,NA,NA,NA,NA,NA,NA,NA,NA,NA,NA,NA,NA,NA,NA,NA
"42","stim/objects/HouseObjects/knife2.png",21,72,21,0.7,"stim/24.jpeg",2,4,2,NA,"HouseObjects",1,2,"left","left",0.630000114,1,1,0,1,NA,NA,NA,NA,NA,NA,NA,NA,NA,NA,NA,NA,NA,NA,NA,NA,NA,NA,NA,NA,NA,NA,NA,NA
"121","stim/objects/Instruments/keyboard.png",22,72,22,0.5,"stim/51.jpeg",5,1,1,NA,"Instruments",2,1,"right","right",0.699000359,1,1,0,1,NA,NA,NA,NA,NA,NA,NA,NA,NA,NA,NA,NA,NA,NA,NA,NA,NA,NA,NA,NA,NA,NA,NA,NA
"135","stim/objects/Instruments/laud2.png",23,72,23,0.3,"stim/22.jpeg",2,2,2,NA,"Instruments",2,3,"right","left",0.56400013,0,0,0,1,NA,NA,NA,NA,NA,NA,NA,NA,NA,NA,NA,NA,NA,NA,NA,NA,NA,NA,NA,NA,NA,NA,NA,NA
"100","stim/objects/HouseObjects/rubbergloves2.png",24,72,24,0.9,"stim/43.jpeg",4,3,3,NA,"HouseObjects",1,1,"left","left",0.67200017,1,1,0,1,NA,NA,NA,NA,NA,NA,NA,NA,NA,NA,NA,NA,NA,NA,NA,NA,NA,NA,NA,NA,NA,NA,NA,NA
"37","stim/objects/HouseObjects/knife.png",25,72,25,0.5,"stim/54.jpeg",5,4,1,NA,"HouseObjects",1,4,"left","right",0.812000275,0,0,0,1,NA,NA,NA,NA,NA,NA,NA,NA,NA,NA,NA,NA,NA,NA,NA,NA,NA,NA,NA,NA,NA,NA,NA,NA
"14","stim/objects/HouseObjects/ironingboard.png",26,72,26,0.5,"stim/52.jpeg",5,2,1,NA,"HouseObjects",1,3,"left","left",0.75600028,1,1,0,1,NA,NA,NA,NA,NA,NA,NA,NA,NA,NA,NA,NA,NA,NA,NA,NA,NA,NA,NA,NA,NA,NA,NA,NA
"43","stim/objects/HouseObjects/knife2.png",27,72,27,0.7,"stim/24.jpeg",2,4,2,NA,"HouseObjects",1,4,"left","left",0.674000263,1,1,0,1,NA,NA,NA,NA,NA,NA,NA,NA,NA,NA,NA,NA,NA,NA,NA,NA,NA,NA,NA,NA,NA,NA,NA,NA
"109","stim/objects/HouseObjects/rug.png",28,72,28,0.3,"stim/14.jpeg",1,4,2,NA,"HouseObjects",1,3,"left","",NA,0,0,0,1,NA,NA,NA,NA,NA,NA,NA,NA,NA,NA,NA,NA,NA,NA,NA,NA,NA,NA,NA,NA,NA,NA,NA,NA
"62","stim/objects/HouseObjects/pan.png",29,72,29,0.5,"stim/63.jpeg",6,3,1,NA,"HouseObjects",1,4,"left","right",0.646000147,0,0,0,1,NA,NA,NA,NA,NA,NA,NA,NA,NA,NA,NA,NA,NA,NA,NA,NA,NA,NA,NA,NA,NA,NA,NA,NA
"146","stim/objects/Instruments/marimba.png",30,72,30,0.5,"stim/54.jpeg",5,4,1,NA,"Instruments",2,2,"right","right",0.760000229,1,1,0,1,NA,NA,NA,NA,NA,NA,NA,NA,NA,NA,NA,NA,NA,NA,NA,NA,NA,NA,NA,NA,NA,NA,NA,NA
"167","stim/objects/Instruments/musicsheet.png",31,72,31,0.5,"stim/62.jpeg",6,2,1,NA,"Instruments",2,2,"right","right",0.620000124,1,1,0,1,NA,NA,NA,NA,NA,NA,NA,NA,NA,NA,NA,NA,NA,NA,NA,NA,NA,NA,NA,NA,NA,NA,NA,NA
"101","stim/objects/HouseObjects/rubbergloves2.png",32,72,32,0.9,"stim/43.jpeg",4,3,3,NA,"HouseObjects",1,3,"left","left",0.671000242,1,1,0,1,NA,NA,NA,NA,NA,NA,NA,NA,NA,NA,NA,NA,NA,NA,NA,NA,NA,NA,NA,NA,NA,NA,NA,NA
"159","stim/objects/Instruments/metronome2.png",33,72,33,0.9,"stim/31.jpeg",3,1,3,NA,"Instruments",2,3,"right","right",0.569000006,1,1,0,1,NA,NA,NA,NA,NA,NA,NA,NA,NA,NA,NA,NA,NA,NA,NA,NA,NA,NA,NA,NA,NA,NA,NA,NA
"15","stim/objects/HouseObjects/ironingboard.png",34,72,34,0.5,"stim/52.jpeg",5,2,1,NA,"HouseObjects",1,1,"left","",NA,0,0,0,1,NA,NA,NA,NA,NA,NA,NA,NA,NA,NA,NA,NA,NA,NA,NA,NA,NA,NA,NA,NA,NA,NA,NA,NA
"154","stim/objects/Instruments/metronome.png",35,72,35,0.5,"stim/61.jpeg",6,1,1,NA,"Instruments",2,2,"right","right",0.705000162,1,1,0,1,NA,NA,NA,NA,NA,NA,NA,NA,NA,NA,NA,NA,NA,NA,NA,NA,NA,NA,NA,NA,NA,NA,NA,NA
"195","stim/objects/Instruments/oboe.png",36,72,36,0.5,"stim/64.jpeg",6,4,1,NA,"Instruments",2,2,"right","right",0.611999989,1,1,0,1,NA,NA,NA,NA,NA,NA,NA,NA,NA,NA,NA,NA,NA,NA,NA,NA,NA,NA,NA,NA,NA,NA,NA,NA
"89","stim/objects/HouseObjects/remote2.png",37,72,37,0.9,"stim/42.jpeg",4,2,3,NA,"HouseObjects",1,2,"left","left",0.52699995,1,1,0,1,NA,NA,NA,NA,NA,NA,NA,NA,NA,NA,NA,NA,NA,NA,NA,NA,NA,NA,NA,NA,NA,NA,NA,NA
"77","stim/objects/HouseObjects/recyclingbin2.png",38,72,38,0.9,"stim/41.jpeg",4,1,3,NA,"HouseObjects",1,1,"left","left",0.579000235,1,1,0,1,NA,NA,NA,NA,NA,NA,NA,NA,NA,NA,NA,NA,NA,NA,NA,NA,NA,NA,NA,NA,NA,NA,NA,NA
"122","stim/objects/Instruments/keyboard.png",39,72,39,0.5,"stim/51.jpeg",5,1,1,NA,"Instruments",2,4,"right","",NA,0,0,0,1,NA,NA,NA,NA,NA,NA,NA,NA,NA,NA,NA,NA,NA,NA,NA,NA,NA,NA,NA,NA,NA,NA,NA,NA
"112","stim/objects/HouseObjects/rug2.png",40,72,40,0.9,"stim/44.jpeg",4,4,3,NA,"HouseObjects",1,2,"left","left",0.625000238,1,1,0,1,NA,NA,NA,NA,NA,NA,NA,NA,NA,NA,NA,NA,NA,NA,NA,NA,NA,NA,NA,NA,NA,NA,NA,NA
"160","stim/objects/Instruments/metronome2.png",41,72,41,0.9,"stim/31.jpeg",3,1,3,NA,"Instruments",2,2,"right","right",0.618000031,1,1,0,1,NA,NA,NA,NA,NA,NA,NA,NA,NA,NA,NA,NA,NA,NA,NA,NA,NA,NA,NA,NA,NA,NA,NA,NA
"225","stim/objects/Instruments/record_player.png",42,72,42,0.7,"stim/14.jpeg",1,4,2,NA,"Instruments",2,4,"right","right",0.675000191,1,1,0,1,NA,NA,NA,NA,NA,NA,NA,NA,NA,NA,NA,NA,NA,NA,NA,NA,NA,NA,NA,NA,NA,NA,NA,NA
"25","stim/objects/HouseObjects/key.png",43,72,43,0.5,"stim/53.jpeg",5,3,1,NA,"HouseObjects",1,3,"left","",NA,0,0,0,1,NA,NA,NA,NA,NA,NA,NA,NA,NA,NA,NA,NA,NA,NA,NA,NA,NA,NA,NA,NA,NA,NA,NA,NA
"31","stim/objects/HouseObjects/key2.png",44,72,44,0.7,"stim/23.jpeg",2,3,2,NA,"HouseObjects",1,2,"left","left",0.572000265,1,1,0,1,NA,NA,NA,NA,NA,NA,NA,NA,NA,NA,NA,NA,NA,NA,NA,NA,NA,NA,NA,NA,NA,NA,NA,NA
"150","stim/objects/Instruments/marimba2.png",45,72,45,0.3,"stim/24.jpeg",2,4,2,NA,"Instruments",2,3,"right","left",0.587000132,0,0,0,1,NA,NA,NA,NA,NA,NA,NA,NA,NA,NA,NA,NA,NA,NA,NA,NA,NA,NA,NA,NA,NA,NA,NA,NA
"55","stim/objects/HouseObjects/match.png",46,72,46,0.5,"stim/62.jpeg",6,2,1,NA,"HouseObjects",1,1,"left","right",0.599000216,0,0,0,1,NA,NA,NA,NA,NA,NA,NA,NA,NA,NA,NA,NA,NA,NA,NA,NA,NA,NA,NA,NA,NA,NA,NA,NA
"168","stim/objects/Instruments/musicsheet.png",47,72,47,0.5,"stim/62.jpeg",6,2,1,NA,"Instruments",2,1,"right","right",0.414999962,1,1,0,1,NA,NA,NA,NA,NA,NA,NA,NA,NA,NA,NA,NA,NA,NA,NA,NA,NA,NA,NA,NA,NA,NA,NA,NA
"97","stim/objects/HouseObjects/rubbergloves.png",48,72,48,0.3,"stim/13.jpeg",1,3,2,NA,"HouseObjects",1,1,"left","right",0.565000057,0,0,0,1,NA,NA,NA,NA,NA,NA,NA,NA,NA,NA,NA,NA,NA,NA,NA,NA,NA,NA,NA,NA,NA,NA,NA,NA
"137","stim/objects/Instruments/maraca.png",49,72,49,0.5,"stim/53.jpeg",5,3,1,NA,"Instruments",2,3,"right","right",0.678000212,1,1,0,1,NA,NA,NA,NA,NA,NA,NA,NA,NA,NA,NA,NA,NA,NA,NA,NA,NA,NA,NA,NA,NA,NA,NA,NA
"155","stim/objects/Instruments/metronome.png",50,72,50,0.5,"stim/61.jpeg",6,1,1,NA,"Instruments",2,1,"right","right",0.681000233,1,1,0,1,NA,NA,NA,NA,NA,NA,NA,NA,NA,NA,NA,NA,NA,NA,NA,NA,NA,NA,NA,NA,NA,NA,NA,NA
"138","stim/objects/Instruments/maraca.png",51,72,51,0.5,"stim/53.jpeg",5,3,1,NA,"Instruments",2,4,"right","right",0.607000351,1,1,0,1,NA,NA,NA,NA,NA,NA,NA,NA,NA,NA,NA,NA,NA,NA,NA,NA,NA,NA,NA,NA,NA,NA,NA,NA
"90","stim/objects/HouseObjects/remote2.png",52,72,52,0.9,"stim/42.jpeg",4,2,3,NA,"HouseObjects",1,1,"left","left",0.590000153,1,1,0,1,NA,NA,NA,NA,NA,NA,NA,NA,NA,NA,NA,NA,NA,NA,NA,NA,NA,NA,NA,NA,NA,NA,NA,NA
"102","stim/objects/HouseObjects/rubbergloves2.png",53,72,53,0.9,"stim/43.jpeg",4,3,3,NA,"HouseObjects",1,4,"left","left",0.635000229,1,1,0,1,NA,NA,NA,NA,NA,NA,NA,NA,NA,NA,NA,NA,NA,NA,NA,NA,NA,NA,NA,NA,NA,NA,NA,NA
"113","stim/objects/HouseObjects/rug2.png",54,72,54,0.9,"stim/44.jpeg",4,4,3,NA,"HouseObjects",1,4,"left","left",0.447000265,1,1,0,1,NA,NA,NA,NA,NA,NA,NA,NA,NA,NA,NA,NA,NA,NA,NA,NA,NA,NA,NA,NA,NA,NA,NA,NA
"44","stim/objects/HouseObjects/knife2.png",55,72,55,0.7,"stim/24.jpeg",2,4,2,NA,"HouseObjects",1,3,"left","left",0.607000113,1,1,0,1,NA,NA,NA,NA,NA,NA,NA,NA,NA,NA,NA,NA,NA,NA,NA,NA,NA,NA,NA,NA,NA,NA,NA,NA
"54","stim/objects/HouseObjects/lintroller2.png",56,72,56,0.1,"stim/31.jpeg",3,1,3,NA,"HouseObjects",1,4,"left","",NA,0,0,0,1,NA,NA,NA,NA,NA,NA,NA,NA,NA,NA,NA,NA,NA,NA,NA,NA,NA,NA,NA,NA,NA,NA,NA,NA
"78","stim/objects/HouseObjects/recyclingbin2.png",57,72,57,0.9,"stim/41.jpeg",4,1,3,NA,"HouseObjects",1,1,"left","left",0.67200017,1,1,0,1,NA,NA,NA,NA,NA,NA,NA,NA,NA,NA,NA,NA,NA,NA,NA,NA,NA,NA,NA,NA,NA,NA,NA,NA
"161","stim/objects/Instruments/metronome2.png",58,72,58,0.9,"stim/31.jpeg",3,1,3,NA,"Instruments",2,2,"right","right",0.572000027,1,1,0,1,NA,NA,NA,NA,NA,NA,NA,NA,NA,NA,NA,NA,NA,NA,NA,NA,NA,NA,NA,NA,NA,NA,NA,NA
"7","stim/objects/HouseObjects/iron2.png",59,72,59,0.7,"stim/21.jpeg",2,1,2,NA,"HouseObjects",1,3,"left","left",0.617000103,1,1,0,1,NA,NA,NA,NA,NA,NA,NA,NA,NA,NA,NA,NA,NA,NA,NA,NA,NA,NA,NA,NA,NA,NA,NA,NA
"127","stim/objects/Instruments/keyboard2.png",60,72,60,0.3,"stim/21.jpeg",2,1,2,NA,"Instruments",2,2,"right","left",0.868000269,0,0,0,1,NA,NA,NA,NA,NA,NA,NA,NA,NA,NA,NA,NA,NA,NA,NA,NA,NA,NA,NA,NA,NA,NA,NA,NA
"210","stim/objects/Instruments/panflute.png",61,72,61,0.7,"stim/11.jpeg",1,1,2,NA,"Instruments",2,2,"right","",NA,0,0,0,1,NA,NA,NA,NA,NA,NA,NA,NA,NA,NA,NA,NA,NA,NA,NA,NA,NA,NA,NA,NA,NA,NA,NA,NA
"181","stim/objects/Instruments/musicstand.png",62,72,62,0.5,"stim/63.jpeg",6,3,1,NA,"Instruments",2,1,"right","right",0.603000164,1,1,0,1,NA,NA,NA,NA,NA,NA,NA,NA,NA,NA,NA,NA,NA,NA,NA,NA,NA,NA,NA,NA,NA,NA,NA,NA
"79","stim/objects/HouseObjects/recyclingbin2.png",63,72,63,0.9,"stim/41.jpeg",4,1,3,NA,"HouseObjects",1,1,"left","left",0.761000156,1,1,0,1,NA,NA,NA,NA,NA,NA,NA,NA,NA,NA,NA,NA,NA,NA,NA,NA,NA,NA,NA,NA,NA,NA,NA,NA
"226","stim/objects/Instruments/record_player.png",64,72,64,0.7,"stim/14.jpeg",1,4,2,NA,"Instruments",2,4,"right","",NA,0,0,0,1,NA,NA,NA,NA,NA,NA,NA,NA,NA,NA,NA,NA,NA,NA,NA,NA,NA,NA,NA,NA,NA,NA,NA,NA
"91","stim/objects/HouseObjects/remote2.png",65,72,65,0.9,"stim/42.jpeg",4,2,3,NA,"HouseObjects",1,1,"left","",NA,0,0,0,1,NA,NA,NA,NA,NA,NA,NA,NA,NA,NA,NA,NA,NA,NA,NA,NA,NA,NA,NA,NA,NA,NA,NA,NA
"19","stim/objects/HouseObjects/ironingboard2.png",66,72,66,0.7,"stim/22.jpeg",2,2,2,NA,"HouseObjects",1,1,"left","left",0.588000298,1,1,0,1,NA,NA,NA,NA,NA,NA,NA,NA,NA,NA,NA,NA,NA,NA,NA,NA,NA,NA,NA,NA,NA,NA,NA,NA
"172","stim/objects/Instruments/musicsheet2.png",67,72,67,0.9,"stim/32.jpeg",3,2,3,NA,"Instruments",2,4,"right","",NA,0,0,0,1,NA,NA,NA,NA,NA,NA,NA,NA,NA,NA,NA,NA,NA,NA,NA,NA,NA,NA,NA,NA,NA,NA,NA,NA
"201","stim/objects/Instruments/oboe2.png",68,72,68,0.9,"stim/34.jpeg",3,4,3,NA,"Instruments",2,4,"right","right",0.501000166,1,1,0,1,NA,NA,NA,NA,NA,NA,NA,NA,NA,NA,NA,NA,NA,NA,NA,NA,NA,NA,NA,NA,NA,NA,NA,NA
"147","stim/objects/Instruments/marimba.png",69,72,69,0.5,"stim/54.jpeg",5,4,1,NA,"Instruments",2,3,"right","right",0.437000275,1,1,0,1,NA,NA,NA,NA,NA,NA,NA,NA,NA,NA,NA,NA,NA,NA,NA,NA,NA,NA,NA,NA,NA,NA,NA,NA
"72","stim/objects/HouseObjects/pitcher2.png",70,72,70,0.1,"stim/34.jpeg",3,4,3,NA,"HouseObjects",1,3,"left","right",0.684000254,0,0,0,1,NA,NA,NA,NA,NA,NA,NA,NA,NA,NA,NA,NA,NA,NA,NA,NA,NA,NA,NA,NA,NA,NA,NA,NA
"8","stim/objects/HouseObjects/iron2.png",71,72,71,0.7,"stim/21.jpeg",2,1,2,NA,"HouseObjects",1,1,"left","",NA,0,0,0,1,NA,NA,NA,NA,NA,NA,NA,NA,NA,NA,NA,NA,NA,NA,NA,NA,NA,NA,NA,NA,NA,NA,NA,NA
"227","stim/objects/Instruments/record_player.png",72,72,72,0.7,"stim/14.jpeg",1,4,2,NA,"Instruments",2,3,"right","right",0.575000286,1,1,0,1,NA,NA,NA,NA,NA,NA,NA,NA,NA,NA,NA,NA,NA,NA,NA,NA,NA,NA,NA,NA,NA,NA,NA,NA
"103","stim/objects/HouseObjects/rubbergloves2.png",73,72,73,0.9,"stim/43.jpeg",4,3,3,NA,"HouseObjects",1,1,"left","left",0.57400012,1,1,0,1,NA,NA,NA,NA,NA,NA,NA,NA,NA,NA,NA,NA,NA,NA,NA,NA,NA,NA,NA,NA,NA,NA,NA,NA
"123","stim/objects/Instruments/keyboard.png",74,72,74,0.5,"stim/51.jpeg",5,1,1,NA,"Instruments",2,4,"right","right",0.558000088,1,1,0,1,NA,NA,NA,NA,NA,NA,NA,NA,NA,NA,NA,NA,NA,NA,NA,NA,NA,NA,NA,NA,NA,NA,NA,NA
"156","stim/objects/Instruments/metronome.png",75,72,75,0.5,"stim/61.jpeg",6,1,1,NA,"Instruments",2,2,"right","",NA,0,0,0,1,NA,NA,NA,NA,NA,NA,NA,NA,NA,NA,NA,NA,NA,NA,NA,NA,NA,NA,NA,NA,NA,NA,NA,NA
"56","stim/objects/HouseObjects/match.png",76,72,76,0.5,"stim/62.jpeg",6,2,1,NA,"HouseObjects",1,4,"left","right",0.532000303,0,0,0,1,NA,NA,NA,NA,NA,NA,NA,NA,NA,NA,NA,NA,NA,NA,NA,NA,NA,NA,NA,NA,NA,NA,NA,NA
"232","stim/objects/Instruments/record_player2.png",77,72,77,0.1,"stim/44.jpeg",4,4,3,NA,"Instruments",2,3,"right","left",0.570000172,0,0,0,1,NA,NA,NA,NA,NA,NA,NA,NA,NA,NA,NA,NA,NA,NA,NA,NA,NA,NA,NA,NA,NA,NA,NA,NA
"45","stim/objects/HouseObjects/knife2.png",78,72,78,0.7,"stim/24.jpeg",2,4,2,NA,"HouseObjects",1,4,"left","left",0.583000183,1,1,0,1,NA,NA,NA,NA,NA,NA,NA,NA,NA,NA,NA,NA,NA,NA,NA,NA,NA,NA,NA,NA,NA,NA,NA,NA
"38","stim/objects/HouseObjects/knife.png",79,72,79,0.5,"stim/54.jpeg",5,4,1,NA,"HouseObjects",1,3,"left","right",0.601000071,0,0,0,1,NA,NA,NA,NA,NA,NA,NA,NA,NA,NA,NA,NA,NA,NA,NA,NA,NA,NA,NA,NA,NA,NA,NA,NA
"234","stim/objects/Instruments/record.png",80,72,80,0.7,"stim/13.jpeg",1,3,2,NA,"Instruments",2,4,"right","left",0.518000364,0,0,0,1,NA,NA,NA,NA,NA,NA,NA,NA,NA,NA,NA,NA,NA,NA,NA,NA,NA,NA,NA,NA,NA,NA,NA,NA
"211","stim/objects/Instruments/panflute.png",81,72,81,0.7,"stim/11.jpeg",1,1,2,NA,"Instruments",2,3,"right","",NA,0,0,0,1,NA,NA,NA,NA,NA,NA,NA,NA,NA,NA,NA,NA,NA,NA,NA,NA,NA,NA,NA,NA,NA,NA,NA,NA
"73","stim/objects/HouseObjects/recyclingbin.png",82,72,82,0.3,"stim/11.jpeg",1,1,2,NA,"HouseObjects",1,4,"left","right",0.463000298,0,0,0,1,NA,NA,NA,NA,NA,NA,NA,NA,NA,NA,NA,NA,NA,NA,NA,NA,NA,NA,NA,NA,NA,NA,NA,NA
"26","stim/objects/HouseObjects/key.png",83,72,83,0.5,"stim/53.jpeg",5,3,1,NA,"HouseObjects",1,4,"left","",NA,0,0,0,1,NA,NA,NA,NA,NA,NA,NA,NA,NA,NA,NA,NA,NA,NA,NA,NA,NA,NA,NA,NA,NA,NA,NA,NA
"104","stim/objects/HouseObjects/rubbergloves2.png",84,72,84,0.9,"stim/43.jpeg",4,3,3,NA,"HouseObjects",1,3,"left","left",0.641000032,1,1,0,1,NA,NA,NA,NA,NA,NA,NA,NA,NA,NA,NA,NA,NA,NA,NA,NA,NA,NA,NA,NA,NA,NA,NA,NA
"151","stim/objects/Instruments/marimba2.png",85,72,85,0.3,"stim/24.jpeg",2,4,2,NA,"Instruments",2,2,"right","left",0.5400002,0,0,0,1,NA,NA,NA,NA,NA,NA,NA,NA,NA,NA,NA,NA,NA,NA,NA,NA,NA,NA,NA,NA,NA,NA,NA,NA
"92","stim/objects/HouseObjects/remote2.png",86,72,86,0.9,"stim/42.jpeg",4,2,3,NA,"HouseObjects",1,3,"left","left",0.643000126,1,1,0,1,NA,NA,NA,NA,NA,NA,NA,NA,NA,NA,NA,NA,NA,NA,NA,NA,NA,NA,NA,NA,NA,NA,NA,NA
"16","stim/objects/HouseObjects/ironingboard.png",87,72,87,0.5,"stim/52.jpeg",5,2,1,NA,"HouseObjects",1,2,"left","",NA,0,0,0,1,NA,NA,NA,NA,NA,NA,NA,NA,NA,NA,NA,NA,NA,NA,NA,NA,NA,NA,NA,NA,NA,NA,NA,NA
"105","stim/objects/HouseObjects/rubbergloves2.png",88,72,88,0.9,"stim/43.jpeg",4,3,3,NA,"HouseObjects",1,2,"left","left",0.468000174,1,1,0,1,NA,NA,NA,NA,NA,NA,NA,NA,NA,NA,NA,NA,NA,NA,NA,NA,NA,NA,NA,NA,NA,NA,NA,NA
"80","stim/objects/HouseObjects/recyclingbin2.png",89,72,89,0.9,"stim/41.jpeg",4,1,3,NA,"HouseObjects",1,1,"left","left",0.577000141,1,1,0,1,NA,NA,NA,NA,NA,NA,NA,NA,NA,NA,NA,NA,NA,NA,NA,NA,NA,NA,NA,NA,NA,NA,NA,NA
"114","stim/objects/HouseObjects/rug2.png",90,72,90,0.9,"stim/44.jpeg",4,4,3,NA,"HouseObjects",1,2,"left","left",0.509000301,1,1,0,1,NA,NA,NA,NA,NA,NA,NA,NA,NA,NA,NA,NA,NA,NA,NA,NA,NA,NA,NA,NA,NA,NA,NA,NA
"162","stim/objects/Instruments/metronome2.png",91,72,91,0.9,"stim/31.jpeg",3,1,3,NA,"Instruments",2,4,"right","right",0.683000088,1,1,0,1,NA,NA,NA,NA,NA,NA,NA,NA,NA,NA,NA,NA,NA,NA,NA,NA,NA,NA,NA,NA,NA,NA,NA,NA
"9","stim/objects/HouseObjects/iron2.png",92,72,92,0.7,"stim/21.jpeg",2,1,2,NA,"HouseObjects",1,2,"left","left",0.605000257,1,1,0,1,NA,NA,NA,NA,NA,NA,NA,NA,NA,NA,NA,NA,NA,NA,NA,NA,NA,NA,NA,NA,NA,NA,NA,NA
"86","stim/objects/HouseObjects/remote.png",93,72,93,0.3,"stim/12.jpeg",1,2,2,NA,"HouseObjects",1,1,"left","right",0.634000301,0,0,0,1,NA,NA,NA,NA,NA,NA,NA,NA,NA,NA,NA,NA,NA,NA,NA,NA,NA,NA,NA,NA,NA,NA,NA,NA
"49","stim/objects/HouseObjects/lintroller.png",94,72,94,0.5,"stim/61.jpeg",6,1,1,NA,"HouseObjects",1,1,"left","right",0.622000217,0,0,0,1,NA,NA,NA,NA,NA,NA,NA,NA,NA,NA,NA,NA,NA,NA,NA,NA,NA,NA,NA,NA,NA,NA,NA,NA
"169","stim/objects/Instruments/musicsheet.png",95,72,95,0.5,"stim/62.jpeg",6,2,1,NA,"Instruments",2,4,"right","right",0.601000071,1,1,0,1,NA,NA,NA,NA,NA,NA,NA,NA,NA,NA,NA,NA,NA,NA,NA,NA,NA,NA,NA,NA,NA,NA,NA,NA
"57","stim/objects/HouseObjects/match.png",96,72,96,0.5,"stim/62.jpeg",6,2,1,NA,"HouseObjects",1,3,"left","right",0.640000343,0,0,0,1,NA,NA,NA,NA,NA,NA,NA,NA,NA,NA,NA,NA,NA,NA,NA,NA,NA,NA,NA,NA,NA,NA,NA,NA
"173","stim/objects/Instruments/musicsheet2.png",97,72,97,0.9,"stim/32.jpeg",3,2,3,NA,"Instruments",2,3,"right","right",0.824000359,1,1,0,1,NA,NA,NA,NA,NA,NA,NA,NA,NA,NA,NA,NA,NA,NA,NA,NA,NA,NA,NA,NA,NA,NA,NA,NA
"32","stim/objects/HouseObjects/key2.png",98,72,98,0.7,"stim/23.jpeg",2,3,2,NA,"HouseObjects",1,4,"left","left",0.650000334,1,1,0,1,NA,NA,NA,NA,NA,NA,NA,NA,NA,NA,NA,NA,NA,NA,NA,NA,NA,NA,NA,NA,NA,NA,NA,NA
"202","stim/objects/Instruments/oboe2.png",99,72,99,0.9,"stim/34.jpeg",3,4,3,NA,"Instruments",2,1,"right","right",0.499000311,1,1,0,1,NA,NA,NA,NA,NA,NA,NA,NA,NA,NA,NA,NA,NA,NA,NA,NA,NA,NA,NA,NA,NA,NA,NA,NA
"228","stim/objects/Instruments/record_player.png",100,72,100,0.7,"stim/14.jpeg",1,4,2,NA,"Instruments",2,2,"right","right",0.606000185,1,1,0,1,NA,NA,NA,NA,NA,NA,NA,NA,NA,NA,NA,NA,NA,NA,NA,NA,NA,NA,NA,NA,NA,NA,NA,NA
"81","stim/objects/HouseObjects/recyclingbin2.png",101,72,101,0.9,"stim/41.jpeg",4,1,3,NA,"HouseObjects",1,1,"left","left",0.577000141,1,1,0,1,NA,NA,NA,NA,NA,NA,NA,NA,NA,NA,NA,NA,NA,NA,NA,NA,NA,NA,NA,NA,NA,NA,NA,NA
"33","stim/objects/HouseObjects/key2.png",102,72,102,0.7,"stim/23.jpeg",2,3,2,NA,"HouseObjects",1,1,"left","left",0.596000195,1,1,0,1,NA,NA,NA,NA,NA,NA,NA,NA,NA,NA,NA,NA,NA,NA,NA,NA,NA,NA,NA,NA,NA,NA,NA,NA
"27","stim/objects/HouseObjects/key.png",103,72,103,0.5,"stim/53.jpeg",5,3,1,NA,"HouseObjects",1,4,"left","right",0.572000027,0,0,0,1,NA,NA,NA,NA,NA,NA,NA,NA,NA,NA,NA,NA,NA,NA,NA,NA,NA,NA,NA,NA,NA,NA,NA,NA
"115","stim/objects/HouseObjects/rug2.png",104,72,104,0.9,"stim/44.jpeg",4,4,3,NA,"HouseObjects",1,2,"left","left",0.600000143,1,1,0,1,NA,NA,NA,NA,NA,NA,NA,NA,NA,NA,NA,NA,NA,NA,NA,NA,NA,NA,NA,NA,NA,NA,NA,NA
"212","stim/objects/Instruments/panflute.png",105,72,105,0.7,"stim/11.jpeg",1,1,2,NA,"Instruments",2,1,"right","right",0.585000277,1,1,0,1,NA,NA,NA,NA,NA,NA,NA,NA,NA,NA,NA,NA,NA,NA,NA,NA,NA,NA,NA,NA,NA,NA,NA,NA
"224","stim/objects/Instruments/pipepiano2.png",106,72,106,0.1,"stim/42.jpeg",4,2,3,NA,"Instruments",2,3,"right","left",0.64800024,0,0,0,1,NA,NA,NA,NA,NA,NA,NA,NA,NA,NA,NA,NA,NA,NA,NA,NA,NA,NA,NA,NA,NA,NA,NA,NA
"130","stim/objects/Instruments/laud.png",107,72,107,0.5,"stim/52.jpeg",5,2,1,NA,"Instruments",2,4,"right","right",0.622000217,1,1,0,1,NA,NA,NA,NA,NA,NA,NA,NA,NA,NA,NA,NA,NA,NA,NA,NA,NA,NA,NA,NA,NA,NA,NA,NA
"116","stim/objects/HouseObjects/rug2.png",108,72,108,0.9,"stim/44.jpeg",4,4,3,NA,"HouseObjects",1,4,"left","left",0.531000137,1,1,0,1,NA,NA,NA,NA,NA,NA,NA,NA,NA,NA,NA,NA,NA,NA,NA,NA,NA,NA,NA,NA,NA,NA,NA,NA
"74","stim/objects/HouseObjects/recyclingbin.png",109,72,109,0.3,"stim/11.jpeg",1,1,2,NA,"HouseObjects",1,1,"left","right",0.54700017,0,0,0,1,NA,NA,NA,NA,NA,NA,NA,NA,NA,NA,NA,NA,NA,NA,NA,NA,NA,NA,NA,NA,NA,NA,NA,NA
"46","stim/objects/HouseObjects/knife2.png",110,72,110,0.7,"stim/24.jpeg",2,4,2,NA,"HouseObjects",1,3,"left","left",0.601999998,1,1,0,1,NA,NA,NA,NA,NA,NA,NA,NA,NA,NA,NA,NA,NA,NA,NA,NA,NA,NA,NA,NA,NA,NA,NA,NA
"216","stim/objects/Instruments/panflute2.png",111,72,111,0.1,"stim/41.jpeg",4,1,3,NA,"Instruments",2,1,"right","left",0.63499999,0,0,0,1,NA,NA,NA,NA,NA,NA,NA,NA,NA,NA,NA,NA,NA,NA,NA,NA,NA,NA,NA,NA,NA,NA,NA,NA
"235","stim/objects/Instruments/record.png",112,72,112,0.7,"stim/13.jpeg",1,3,2,NA,"Instruments",2,4,"right","right",0.738000154,1,1,0,1,NA,NA,NA,NA,NA,NA,NA,NA,NA,NA,NA,NA,NA,NA,NA,NA,NA,NA,NA,NA,NA,NA,NA,NA
"139","stim/objects/Instruments/maraca.png",113,72,113,0.5,"stim/53.jpeg",5,3,1,NA,"Instruments",2,3,"right","right",0.606000185,1,1,0,1,NA,NA,NA,NA,NA,NA,NA,NA,NA,NA,NA,NA,NA,NA,NA,NA,NA,NA,NA,NA,NA,NA,NA,NA
"131","stim/objects/Instruments/laud.png",114,72,114,0.5,"stim/52.jpeg",5,2,1,NA,"Instruments",2,2,"right","right",0.872000217,1,1,0,1,NA,NA,NA,NA,NA,NA,NA,NA,NA,NA,NA,NA,NA,NA,NA,NA,NA,NA,NA,NA,NA,NA,NA,NA
"188","stim/objects/Instruments/musicstand2.png",115,72,115,0.9,"stim/33.jpeg",3,3,3,NA,"Instruments",2,1,"right","right",0.619000196,1,1,0,1,NA,NA,NA,NA,NA,NA,NA,NA,NA,NA,NA,NA,NA,NA,NA,NA,NA,NA,NA,NA,NA,NA,NA,NA
"66","stim/objects/HouseObjects/pan2.png",116,72,116,0.1,"stim/33.jpeg",3,3,3,NA,"HouseObjects",1,4,"left","right",0.719000101,0,0,0,1,NA,NA,NA,NA,NA,NA,NA,NA,NA,NA,NA,NA,NA,NA,NA,NA,NA,NA,NA,NA,NA,NA,NA,NA
"39","stim/objects/HouseObjects/knife.png",117,72,117,0.5,"stim/54.jpeg",5,4,1,NA,"HouseObjects",1,4,"left","right",0.664000273,0,0,0,1,NA,NA,NA,NA,NA,NA,NA,NA,NA,NA,NA,NA,NA,NA,NA,NA,NA,NA,NA,NA,NA,NA,NA,NA
"203","stim/objects/Instruments/oboe2.png",118,72,118,0.9,"stim/34.jpeg",3,4,3,NA,"Instruments",2,1,"right","",NA,0,0,0,1,NA,NA,NA,NA,NA,NA,NA,NA,NA,NA,NA,NA,NA,NA,NA,NA,NA,NA,NA,NA,NA,NA,NA,NA
"189","stim/objects/Instruments/musicstand2.png",119,72,119,0.9,"stim/33.jpeg",3,3,3,NA,"Instruments",2,3,"right","right",0.561000109,1,1,0,1,NA,NA,NA,NA,NA,NA,NA,NA,NA,NA,NA,NA,NA,NA,NA,NA,NA,NA,NA,NA,NA,NA,NA,NA
"213","stim/objects/Instruments/panflute.png",120,72,120,0.7,"stim/11.jpeg",1,1,2,NA,"Instruments",2,3,"right","right",0.734000206,1,1,0,1,NA,NA,NA,NA,NA,NA,NA,NA,NA,NA,NA,NA,NA,NA,NA,NA,NA,NA,NA,NA,NA,NA,NA,NA
"34","stim/objects/HouseObjects/key2.png",121,72,121,0.7,"stim/23.jpeg",2,3,2,NA,"HouseObjects",1,3,"left","left",0.598999977,1,1,0,1,NA,NA,NA,NA,NA,NA,NA,NA,NA,NA,NA,NA,NA,NA,NA,NA,NA,NA,NA,NA,NA,NA,NA,NA
"163","stim/objects/Instruments/metronome2.png",122,72,122,0.9,"stim/31.jpeg",3,1,3,NA,"Instruments",2,1,"right","right",0.605999947,1,1,0,1,NA,NA,NA,NA,NA,NA,NA,NA,NA,NA,NA,NA,NA,NA,NA,NA,NA,NA,NA,NA,NA,NA,NA,NA
"170","stim/objects/Instruments/musicsheet.png",123,72,123,0.5,"stim/62.jpeg",6,2,1,NA,"Instruments",2,1,"right","right",0.585000277,1,1,0,1,NA,NA,NA,NA,NA,NA,NA,NA,NA,NA,NA,NA,NA,NA,NA,NA,NA,NA,NA,NA,NA,NA,NA,NA
"93","stim/objects/HouseObjects/remote2.png",124,72,124,0.9,"stim/42.jpeg",4,2,3,NA,"HouseObjects",1,3,"left","left",0.781000137,1,1,0,1,NA,NA,NA,NA,NA,NA,NA,NA,NA,NA,NA,NA,NA,NA,NA,NA,NA,NA,NA,NA,NA,NA,NA,NA
"140","stim/objects/Instruments/maraca.png",125,72,125,0.5,"stim/53.jpeg",5,3,1,NA,"Instruments",2,2,"right","right",0.640000105,1,1,0,1,NA,NA,NA,NA,NA,NA,NA,NA,NA,NA,NA,NA,NA,NA,NA,NA,NA,NA,NA,NA,NA,NA,NA,NA
"142","stim/objects/Instruments/maraca2.png",126,72,126,0.3,"stim/23.jpeg",2,3,2,NA,"Instruments",2,2,"right","left",0.568000317,0,0,0,1,NA,NA,NA,NA,NA,NA,NA,NA,NA,NA,NA,NA,NA,NA,NA,NA,NA,NA,NA,NA,NA,NA,NA,NA
"2","stim/objects/HouseObjects/iron.png",127,72,127,0.5,"stim/51.jpeg",5,1,1,NA,"HouseObjects",1,1,"left","right",0.726000309,0,0,0,1,NA,NA,NA,NA,NA,NA,NA,NA,NA,NA,NA,NA,NA,NA,NA,NA,NA,NA,NA,NA,NA,NA,NA,NA
"229","stim/objects/Instruments/record_player.png",128,72,128,0.7,"stim/14.jpeg",1,4,2,NA,"Instruments",2,1,"right","right",0.620000124,1,1,0,1,NA,NA,NA,NA,NA,NA,NA,NA,NA,NA,NA,NA,NA,NA,NA,NA,NA,NA,NA,NA,NA,NA,NA,NA
"164","stim/objects/Instruments/metronome2.png",129,72,129,0.9,"stim/31.jpeg",3,1,3,NA,"Instruments",2,3,"right","right",0.686000109,1,1,0,1,NA,NA,NA,NA,NA,NA,NA,NA,NA,NA,NA,NA,NA,NA,NA,NA,NA,NA,NA,NA,NA,NA,NA,NA
"63","stim/objects/HouseObjects/pan.png",130,72,130,0.5,"stim/63.jpeg",6,3,1,NA,"HouseObjects",1,1,"left","right",0.660000086,0,0,0,1,NA,NA,NA,NA,NA,NA,NA,NA,NA,NA,NA,NA,NA,NA,NA,NA,NA,NA,NA,NA,NA,NA,NA,NA
"236","stim/objects/Instruments/record.png",131,72,131,0.7,"stim/13.jpeg",1,3,2,NA,"Instruments",2,4,"right","right",0.617000103,1,1,0,1,NA,NA,NA,NA,NA,NA,NA,NA,NA,NA,NA,NA,NA,NA,NA,NA,NA,NA,NA,NA,NA,NA,NA,NA
"217","stim/objects/Instruments/pipepiano.png",132,72,132,0.7,"stim/12.jpeg",1,2,2,NA,"Instruments",2,1,"right","right",0.601000071,1,1,0,1,NA,NA,NA,NA,NA,NA,NA,NA,NA,NA,NA,NA,NA,NA,NA,NA,NA,NA,NA,NA,NA,NA,NA,NA
"67","stim/objects/HouseObjects/pitcher.png",133,72,133,0.5,"stim/64.jpeg",6,4,1,NA,"HouseObjects",1,4,"left","right",0.612000227,0,0,0,1,NA,NA,NA,NA,NA,NA,NA,NA,NA,NA,NA,NA,NA,NA,NA,NA,NA,NA,NA,NA,NA,NA,NA,NA
"3","stim/objects/HouseObjects/iron.png",134,72,134,0.5,"stim/51.jpeg",5,1,1,NA,"HouseObjects",1,2,"left","",NA,0,0,0,1,NA,NA,NA,NA,NA,NA,NA,NA,NA,NA,NA,NA,NA,NA,NA,NA,NA,NA,NA,NA,NA,NA,NA,NA
"110","stim/objects/HouseObjects/rug.png",135,72,135,0.3,"stim/14.jpeg",1,4,2,NA,"HouseObjects",1,4,"left","right",0.635000229,0,0,0,1,NA,NA,NA,NA,NA,NA,NA,NA,NA,NA,NA,NA,NA,NA,NA,NA,NA,NA,NA,NA,NA,NA,NA,NA
"106","stim/objects/HouseObjects/rubbergloves2.png",136,72,136,0.9,"stim/43.jpeg",4,3,3,NA,"HouseObjects",1,2,"left","left",0.726000071,1,1,0,1,NA,NA,NA,NA,NA,NA,NA,NA,NA,NA,NA,NA,NA,NA,NA,NA,NA,NA,NA,NA,NA,NA,NA,NA
"40","stim/objects/HouseObjects/knife.png",137,72,137,0.5,"stim/54.jpeg",5,4,1,NA,"HouseObjects",1,2,"left","right",0.86500001,0,0,0,1,NA,NA,NA,NA,NA,NA,NA,NA,NA,NA,NA,NA,NA,NA,NA,NA,NA,NA,NA,NA,NA,NA,NA,NA
"196","stim/objects/Instruments/oboe.png",138,72,138,0.5,"stim/64.jpeg",6,4,1,NA,"Instruments",2,3,"right","right",0.600000143,1,1,0,1,NA,NA,NA,NA,NA,NA,NA,NA,NA,NA,NA,NA,NA,NA,NA,NA,NA,NA,NA,NA,NA,NA,NA,NA
"117","stim/objects/HouseObjects/rug2.png",139,72,139,0.9,"stim/44.jpeg",4,4,3,NA,"HouseObjects",1,4,"left","left",0.567000151,1,1,0,1,NA,NA,NA,NA,NA,NA,NA,NA,NA,NA,NA,NA,NA,NA,NA,NA,NA,NA,NA,NA,NA,NA,NA,NA
"35","stim/objects/HouseObjects/key2.png",140,72,140,0.7,"stim/23.jpeg",2,3,2,NA,"HouseObjects",1,1,"left","left",0.59100008,1,1,0,1,NA,NA,NA,NA,NA,NA,NA,NA,NA,NA,NA,NA,NA,NA,NA,NA,NA,NA,NA,NA,NA,NA,NA,NA
"190","stim/objects/Instruments/musicstand2.png",141,72,141,0.9,"stim/33.jpeg",3,3,3,NA,"Instruments",2,2,"right","right",0.478000164,1,1,0,1,NA,NA,NA,NA,NA,NA,NA,NA,NA,NA,NA,NA,NA,NA,NA,NA,NA,NA,NA,NA,NA,NA,NA,NA
"197","stim/objects/Instruments/oboe.png",142,72,142,0.5,"stim/64.jpeg",6,4,1,NA,"Instruments",2,3,"right","right",0.498000145,1,1,0,1,NA,NA,NA,NA,NA,NA,NA,NA,NA,NA,NA,NA,NA,NA,NA,NA,NA,NA,NA,NA,NA,NA,NA,NA
"58","stim/objects/HouseObjects/match.png",143,72,143,0.5,"stim/62.jpeg",6,2,1,NA,"HouseObjects",1,3,"left","right",0.507000208,0,0,0,1,NA,NA,NA,NA,NA,NA,NA,NA,NA,NA,NA,NA,NA,NA,NA,NA,NA,NA,NA,NA,NA,NA,NA,NA
"20","stim/objects/HouseObjects/ironingboard2.png",144,72,144,0.7,"stim/22.jpeg",2,2,2,NA,"HouseObjects",1,3,"left","left",0.571000099,1,1,0,1,NA,NA,NA,NA,NA,NA,NA,NA,NA,NA,NA,NA,NA,NA,NA,NA,NA,NA,NA,NA,NA,NA,NA,NA
"94","stim/objects/HouseObjects/remote2.png",145,72,145,0.9,"stim/42.jpeg",4,2,3,NA,"HouseObjects",1,3,"left","left",0.718000174,1,1,0,1,NA,NA,NA,NA,NA,NA,NA,NA,NA,NA,NA,NA,NA,NA,NA,NA,NA,NA,NA,NA,NA,NA,NA,NA
"152","stim/objects/Instruments/marimba2.png",146,72,146,0.3,"stim/24.jpeg",2,4,2,NA,"Instruments",2,2,"right","left",0.700000286,0,0,0,1,NA,NA,NA,NA,NA,NA,NA,NA,NA,NA,NA,NA,NA,NA,NA,NA,NA,NA,NA,NA,NA,NA,NA,NA
"214","stim/objects/Instruments/panflute.png",147,72,147,0.7,"stim/11.jpeg",1,1,2,NA,"Instruments",2,3,"right","right",0.738000154,1,1,0,1,NA,NA,NA,NA,NA,NA,NA,NA,NA,NA,NA,NA,NA,NA,NA,NA,NA,NA,NA,NA,NA,NA,NA,NA
"64","stim/objects/HouseObjects/pan.png",148,72,148,0.5,"stim/63.jpeg",6,3,1,NA,"HouseObjects",1,1,"left","right",0.552000284,0,0,0,1,NA,NA,NA,NA,NA,NA,NA,NA,NA,NA,NA,NA,NA,NA,NA,NA,NA,NA,NA,NA,NA,NA,NA,NA
"204","stim/objects/Instruments/oboe2.png",149,72,149,0.9,"stim/34.jpeg",3,4,3,NA,"Instruments",2,2,"right","right",0.571000338,1,1,0,1,NA,NA,NA,NA,NA,NA,NA,NA,NA,NA,NA,NA,NA,NA,NA,NA,NA,NA,NA,NA,NA,NA,NA,NA
"132","stim/objects/Instruments/laud.png",150,72,150,0.5,"stim/52.jpeg",5,2,1,NA,"Instruments",2,4,"right","",NA,0,0,0,1,NA,NA,NA,NA,NA,NA,NA,NA,NA,NA,NA,NA,NA,NA,NA,NA,NA,NA,NA,NA,NA,NA,NA,NA
"17","stim/objects/HouseObjects/ironingboard.png",151,72,151,0.5,"stim/52.jpeg",5,2,1,NA,"HouseObjects",1,2,"left","right",0.709000111,0,0,0,1,NA,NA,NA,NA,NA,NA,NA,NA,NA,NA,NA,NA,NA,NA,NA,NA,NA,NA,NA,NA,NA,NA,NA,NA
"205","stim/objects/Instruments/oboe2.png",152,72,152,0.9,"stim/34.jpeg",3,4,3,NA,"Instruments",2,3,"right","right",0.757000208,1,1,0,1,NA,NA,NA,NA,NA,NA,NA,NA,NA,NA,NA,NA,NA,NA,NA,NA,NA,NA,NA,NA,NA,NA,NA,NA
"136","stim/objects/Instruments/laud2.png",153,72,153,0.3,"stim/22.jpeg",2,2,2,NA,"Instruments",2,4,"right","left",0.560000181,0,0,0,1,NA,NA,NA,NA,NA,NA,NA,NA,NA,NA,NA,NA,NA,NA,NA,NA,NA,NA,NA,NA,NA,NA,NA,NA
"230","stim/objects/Instruments/record_player.png",154,72,154,0.7,"stim/14.jpeg",1,4,2,NA,"Instruments",2,3,"right","right",0.537000179,1,1,0,1,NA,NA,NA,NA,NA,NA,NA,NA,NA,NA,NA,NA,NA,NA,NA,NA,NA,NA,NA,NA,NA,NA,NA,NA
"28","stim/objects/HouseObjects/key.png",155,72,155,0.5,"stim/53.jpeg",5,3,1,NA,"HouseObjects",1,1,"left","right",0.835000277,0,0,0,1,NA,NA,NA,NA,NA,NA,NA,NA,NA,NA,NA,NA,NA,NA,NA,NA,NA,NA,NA,NA,NA,NA,NA,NA
"148","stim/objects/Instruments/marimba.png",156,72,156,0.5,"stim/54.jpeg",5,4,1,NA,"Instruments",2,2,"right","",NA,0,0,0,1,NA,NA,NA,NA,NA,NA,NA,NA,NA,NA,NA,NA,NA,NA,NA,NA,NA,NA,NA,NA,NA,NA,NA,NA
"82","stim/objects/HouseObjects/recyclingbin2.png",157,72,157,0.9,"stim/41.jpeg",4,1,3,NA,"HouseObjects",1,3,"left","left",0.621999979,1,1,0,1,NA,NA,NA,NA,NA,NA,NA,NA,NA,NA,NA,NA,NA,NA,NA,NA,NA,NA,NA,NA,NA,NA,NA,NA
"98","stim/objects/HouseObjects/rubbergloves.png",158,72,158,0.3,"stim/13.jpeg",1,3,2,NA,"HouseObjects",1,4,"left","right",0.674000263,0,0,0,1,NA,NA,NA,NA,NA,NA,NA,NA,NA,NA,NA,NA,NA,NA,NA,NA,NA,NA,NA,NA,NA,NA,NA,NA
"240","stim/objects/Instruments/record2.png",159,72,159,0.1,"stim/43.jpeg",4,3,3,NA,"Instruments",2,3,"right","left",0.710000277,0,0,0,1,NA,NA,NA,NA,NA,NA,NA,NA,NA,NA,NA,NA,NA,NA,NA,NA,NA,NA,NA,NA,NA,NA,NA,NA
"143","stim/objects/Instruments/maraca2.png",160,72,160,0.3,"stim/23.jpeg",2,3,2,NA,"Instruments",2,1,"right","left",0.598999977,0,0,0,1,NA,NA,NA,NA,NA,NA,NA,NA,NA,NA,NA,NA,NA,NA,NA,NA,NA,NA,NA,NA,NA,NA,NA,NA
"206","stim/objects/Instruments/oboe2.png",161,72,161,0.9,"stim/34.jpeg",3,4,3,NA,"Instruments",2,4,"right","right",0.552000284,1,1,0,1,NA,NA,NA,NA,NA,NA,NA,NA,NA,NA,NA,NA,NA,NA,NA,NA,NA,NA,NA,NA,NA,NA,NA,NA
"231","stim/objects/Instruments/record_player.png",162,72,162,0.7,"stim/14.jpeg",1,4,2,NA,"Instruments",2,3,"right","right",0.713000059,1,1,0,1,NA,NA,NA,NA,NA,NA,NA,NA,NA,NA,NA,NA,NA,NA,NA,NA,NA,NA,NA,NA,NA,NA,NA,NA
"237","stim/objects/Instruments/record.png",163,72,163,0.7,"stim/13.jpeg",1,3,2,NA,"Instruments",2,4,"right","right",0.642000198,1,1,0,1,NA,NA,NA,NA,NA,NA,NA,NA,NA,NA,NA,NA,NA,NA,NA,NA,NA,NA,NA,NA,NA,NA,NA,NA
"50","stim/objects/HouseObjects/lintroller.png",164,72,164,0.5,"stim/61.jpeg",6,1,1,NA,"HouseObjects",1,4,"left","right",0.62100029,0,0,0,1,NA,NA,NA,NA,NA,NA,NA,NA,NA,NA,NA,NA,NA,NA,NA,NA,NA,NA,NA,NA,NA,NA,NA,NA
"118","stim/objects/HouseObjects/rug2.png",165,72,165,0.9,"stim/44.jpeg",4,4,3,NA,"HouseObjects",1,2,"left","left",0.87100029,1,1,0,1,NA,NA,NA,NA,NA,NA,NA,NA,NA,NA,NA,NA,NA,NA,NA,NA,NA,NA,NA,NA,NA,NA,NA,NA
"68","stim/objects/HouseObjects/pitcher.png",166,72,166,0.5,"stim/64.jpeg",6,4,1,NA,"HouseObjects",1,4,"left","right",0.482000113,0,0,0,1,NA,NA,NA,NA,NA,NA,NA,NA,NA,NA,NA,NA,NA,NA,NA,NA,NA,NA,NA,NA,NA,NA,NA,NA
"21","stim/objects/HouseObjects/ironingboard2.png",167,72,167,0.7,"stim/22.jpeg",2,2,2,NA,"HouseObjects",1,3,"left","left",0.551000118,1,1,0,1,NA,NA,NA,NA,NA,NA,NA,NA,NA,NA,NA,NA,NA,NA,NA,NA,NA,NA,NA,NA,NA,NA,NA,NA
"191","stim/objects/Instruments/musicstand2.png",168,72,168,0.9,"stim/33.jpeg",3,3,3,NA,"Instruments",2,2,"right","right",0.794000149,1,1,0,1,NA,NA,NA,NA,NA,NA,NA,NA,NA,NA,NA,NA,NA,NA,NA,NA,NA,NA,NA,NA,NA,NA,NA,NA
"95","stim/objects/HouseObjects/remote2.png",169,72,169,0.9,"stim/42.jpeg",4,2,3,NA,"HouseObjects",1,2,"left","left",0.644000292,1,1,0,1,NA,NA,NA,NA,NA,NA,NA,NA,NA,NA,NA,NA,NA,NA,NA,NA,NA,NA,NA,NA,NA,NA,NA,NA
"119","stim/objects/HouseObjects/rug2.png",170,72,170,0.9,"stim/44.jpeg",4,4,3,NA,"HouseObjects",1,1,"left","left",0.539000273,1,1,0,1,NA,NA,NA,NA,NA,NA,NA,NA,NA,NA,NA,NA,NA,NA,NA,NA,NA,NA,NA,NA,NA,NA,NA,NA
"174","stim/objects/Instruments/musicsheet2.png",171,72,171,0.9,"stim/32.jpeg",3,2,3,NA,"Instruments",2,4,"right","right",0.518000126,1,1,0,1,NA,NA,NA,NA,NA,NA,NA,NA,NA,NA,NA,NA,NA,NA,NA,NA,NA,NA,NA,NA,NA,NA,NA,NA
"51","stim/objects/HouseObjects/lintroller.png",172,72,172,0.5,"stim/61.jpeg",6,1,1,NA,"HouseObjects",1,4,"left","right",0.575000286,0,0,0,1,NA,NA,NA,NA,NA,NA,NA,NA,NA,NA,NA,NA,NA,NA,NA,NA,NA,NA,NA,NA,NA,NA,NA,NA
"175","stim/objects/Instruments/musicsheet2.png",173,72,173,0.9,"stim/32.jpeg",3,2,3,NA,"Instruments",2,1,"right","right",0.496000051,1,1,0,1,NA,NA,NA,NA,NA,NA,NA,NA,NA,NA,NA,NA,NA,NA,NA,NA,NA,NA,NA,NA,NA,NA,NA,NA
"69","stim/objects/HouseObjects/pitcher.png",174,72,174,0.5,"stim/64.jpeg",6,4,1,NA,"HouseObjects",1,3,"left","right",0.594000101,0,0,0,1,NA,NA,NA,NA,NA,NA,NA,NA,NA,NA,NA,NA,NA,NA,NA,NA,NA,NA,NA,NA,NA,NA,NA,NA
"182","stim/objects/Instruments/musicstand.png",175,72,175,0.5,"stim/63.jpeg",6,3,1,NA,"Instruments",2,3,"right","right",0.612000227,1,1,0,1,NA,NA,NA,NA,NA,NA,NA,NA,NA,NA,NA,NA,NA,NA,NA,NA,NA,NA,NA,NA,NA,NA,NA,NA
"107","stim/objects/HouseObjects/rubbergloves2.png",176,72,176,0.9,"stim/43.jpeg",4,3,3,NA,"HouseObjects",1,2,"left","left",0.649000168,1,1,0,1,NA,NA,NA,NA,NA,NA,NA,NA,NA,NA,NA,NA,NA,NA,NA,NA,NA,NA,NA,NA,NA,NA,NA,NA
"157","stim/objects/Instruments/metronome.png",177,72,177,0.5,"stim/61.jpeg",6,1,1,NA,"Instruments",2,3,"right","right",0.786000013,1,1,0,1,NA,NA,NA,NA,NA,NA,NA,NA,NA,NA,NA,NA,NA,NA,NA,NA,NA,NA,NA,NA,NA,NA,NA,NA
"4","stim/objects/HouseObjects/iron.png",178,72,178,0.5,"stim/51.jpeg",5,1,1,NA,"HouseObjects",1,3,"left","left",0.788000107,1,1,0,1,NA,NA,NA,NA,NA,NA,NA,NA,NA,NA,NA,NA,NA,NA,NA,NA,NA,NA,NA,NA,NA,NA,NA,NA
"238","stim/objects/Instruments/record.png",179,72,179,0.7,"stim/13.jpeg",1,3,2,NA,"Instruments",2,2,"right","right",0.585000277,1,1,0,1,NA,NA,NA,NA,NA,NA,NA,NA,NA,NA,NA,NA,NA,NA,NA,NA,NA,NA,NA,NA,NA,NA,NA,NA
"218","stim/objects/Instruments/pipepiano.png",180,72,180,0.7,"stim/12.jpeg",1,2,2,NA,"Instruments",2,1,"right","right",0.538000107,1,1,0,1,NA,NA,NA,NA,NA,NA,NA,NA,NA,NA,NA,NA,NA,NA,NA,NA,NA,NA,NA,NA,NA,NA,NA,NA
"47","stim/objects/HouseObjects/knife2.png",181,72,181,0.7,"stim/24.jpeg",2,4,2,NA,"HouseObjects",1,4,"left","left",0.567000151,1,1,0,1,NA,NA,NA,NA,NA,NA,NA,NA,NA,NA,NA,NA,NA,NA,NA,NA,NA,NA,NA,NA,NA,NA,NA,NA
"183","stim/objects/Instruments/musicstand.png",182,72,182,0.5,"stim/63.jpeg",6,3,1,NA,"Instruments",2,4,"right","right",0.459000111,1,1,0,1,NA,NA,NA,NA,NA,NA,NA,NA,NA,NA,NA,NA,NA,NA,NA,NA,NA,NA,NA,NA,NA,NA,NA,NA
"207","stim/objects/Instruments/oboe2.png",183,72,183,0.9,"stim/34.jpeg",3,4,3,NA,"Instruments",2,2,"right","right",0.452000141,1,1,0,1,NA,NA,NA,NA,NA,NA,NA,NA,NA,NA,NA,NA,NA,NA,NA,NA,NA,NA,NA,NA,NA,NA,NA,NA
"52","stim/objects/HouseObjects/lintroller.png",184,72,184,0.5,"stim/61.jpeg",6,1,1,NA,"HouseObjects",1,2,"left","right",0.476999998,0,0,0,1,NA,NA,NA,NA,NA,NA,NA,NA,NA,NA,NA,NA,NA,NA,NA,NA,NA,NA,NA,NA,NA,NA,NA,NA
"219","stim/objects/Instruments/pipepiano.png",185,72,185,0.7,"stim/12.jpeg",1,2,2,NA,"Instruments",2,1,"right","right",0.584000349,1,1,0,1,NA,NA,NA,NA,NA,NA,NA,NA,NA,NA,NA,NA,NA,NA,NA,NA,NA,NA,NA,NA,NA,NA,NA,NA
"65","stim/objects/HouseObjects/pan.png",186,72,186,0.5,"stim/63.jpeg",6,3,1,NA,"HouseObjects",1,3,"left","right",0.529999971,0,0,0,1,NA,NA,NA,NA,NA,NA,NA,NA,NA,NA,NA,NA,NA,NA,NA,NA,NA,NA,NA,NA,NA,NA,NA,NA
"192","stim/objects/Instruments/musicstand2.png",187,72,187,0.9,"stim/33.jpeg",3,3,3,NA,"Instruments",2,2,"right","right",0.556000233,1,1,0,1,NA,NA,NA,NA,NA,NA,NA,NA,NA,NA,NA,NA,NA,NA,NA,NA,NA,NA,NA,NA,NA,NA,NA,NA
"176","stim/objects/Instruments/musicsheet2.png",188,72,188,0.9,"stim/32.jpeg",3,2,3,NA,"Instruments",2,4,"right","right",0.572000027,1,1,0,1,NA,NA,NA,NA,NA,NA,NA,NA,NA,NA,NA,NA,NA,NA,NA,NA,NA,NA,NA,NA,NA,NA,NA,NA
"193","stim/objects/Instruments/musicstand2.png",189,72,189,0.9,"stim/33.jpeg",3,3,3,NA,"Instruments",2,1,"right","right",0.514000177,1,1,0,1,NA,NA,NA,NA,NA,NA,NA,NA,NA,NA,NA,NA,NA,NA,NA,NA,NA,NA,NA,NA,NA,NA,NA,NA
"198","stim/objects/Instruments/oboe.png",190,72,190,0.5,"stim/64.jpeg",6,4,1,NA,"Instruments",2,3,"right","right",0.490000248,1,1,0,1,NA,NA,NA,NA,NA,NA,NA,NA,NA,NA,NA,NA,NA,NA,NA,NA,NA,NA,NA,NA,NA,NA,NA,NA
"99","stim/objects/HouseObjects/rubbergloves.png",191,72,191,0.3,"stim/13.jpeg",1,3,2,NA,"HouseObjects",1,4,"left","right",0.473999977,0,0,0,1,NA,NA,NA,NA,NA,NA,NA,NA,NA,NA,NA,NA,NA,NA,NA,NA,NA,NA,NA,NA,NA,NA,NA,NA
"177","stim/objects/Instruments/musicsheet2.png",192,72,192,0.9,"stim/32.jpeg",3,2,3,NA,"Instruments",2,3,"right","right",0.54700017,1,1,0,1,NA,NA,NA,NA,NA,NA,NA,NA,NA,NA,NA,NA,NA,NA,NA,NA,NA,NA,NA,NA,NA,NA,NA,NA
"48","stim/objects/HouseObjects/knife2.png",193,72,193,0.7,"stim/24.jpeg",2,4,2,NA,"HouseObjects",1,2,"left","left",0.60400033,1,1,0,1,NA,NA,NA,NA,NA,NA,NA,NA,NA,NA,NA,NA,NA,NA,NA,NA,NA,NA,NA,NA,NA,NA,NA,NA
"29","stim/objects/HouseObjects/key.png",194,72,194,0.5,"stim/53.jpeg",5,3,1,NA,"HouseObjects",1,2,"left","",NA,0,0,0,1,NA,NA,NA,NA,NA,NA,NA,NA,NA,NA,NA,NA,NA,NA,NA,NA,NA,NA,NA,NA,NA,NA,NA,NA
"41","stim/objects/HouseObjects/knife.png",195,72,195,0.5,"stim/54.jpeg",5,4,1,NA,"HouseObjects",1,1,"left","right",0.604000092,0,0,0,1,NA,NA,NA,NA,NA,NA,NA,NA,NA,NA,NA,NA,NA,NA,NA,NA,NA,NA,NA,NA,NA,NA,NA,NA
"178","stim/objects/Instruments/musicsheet2.png",196,72,196,0.9,"stim/32.jpeg",3,2,3,NA,"Instruments",2,4,"right","right",0.531000137,1,1,0,1,NA,NA,NA,NA,NA,NA,NA,NA,NA,NA,NA,NA,NA,NA,NA,NA,NA,NA,NA,NA,NA,NA,NA,NA
"208","stim/objects/Instruments/oboe2.png",197,72,197,0.9,"stim/34.jpeg",3,4,3,NA,"Instruments",2,2,"right","right",0.730000257,1,1,0,1,NA,NA,NA,NA,NA,NA,NA,NA,NA,NA,NA,NA,NA,NA,NA,NA,NA,NA,NA,NA,NA,NA,NA,NA
"220","stim/objects/Instruments/pipepiano.png",198,72,198,0.7,"stim/12.jpeg",1,2,2,NA,"Instruments",2,2,"right","right",0.55700016,1,1,0,1,NA,NA,NA,NA,NA,NA,NA,NA,NA,NA,NA,NA,NA,NA,NA,NA,NA,NA,NA,NA,NA,NA,NA,NA
"22","stim/objects/HouseObjects/ironingboard2.png",199,72,199,0.7,"stim/22.jpeg",2,2,2,NA,"HouseObjects",1,3,"left","left",0.534000158,1,1,0,1,NA,NA,NA,NA,NA,NA,NA,NA,NA,NA,NA,NA,NA,NA,NA,NA,NA,NA,NA,NA,NA,NA,NA,NA
"111","stim/objects/HouseObjects/rug.png",200,72,200,0.3,"stim/14.jpeg",1,4,2,NA,"HouseObjects",1,2,"left","right",0.646000147,0,0,0,1,NA,NA,NA,NA,NA,NA,NA,NA,NA,NA,NA,NA,NA,NA,NA,NA,NA,NA,NA,NA,NA,NA,NA,NA
"10","stim/objects/HouseObjects/iron2.png",201,72,201,0.7,"stim/21.jpeg",2,1,2,NA,"HouseObjects",1,1,"left","left",0.651000023,1,1,0,1,NA,NA,NA,NA,NA,NA,NA,NA,NA,NA,NA,NA,NA,NA,NA,NA,NA,NA,NA,NA,NA,NA,NA,NA
"184","stim/objects/Instruments/musicstand.png",202,72,202,0.5,"stim/63.jpeg",6,3,1,NA,"Instruments",2,2,"right","right",0.847000122,1,1,0,1,NA,NA,NA,NA,NA,NA,NA,NA,NA,NA,NA,NA,NA,NA,NA,NA,NA,NA,NA,NA,NA,NA,NA,NA
"124","stim/objects/Instruments/keyboard.png",203,72,203,0.5,"stim/51.jpeg",5,1,1,NA,"Instruments",2,4,"right","left",0.875,0,0,0,1,NA,NA,NA,NA,NA,NA,NA,NA,NA,NA,NA,NA,NA,NA,NA,NA,NA,NA,NA,NA,NA,NA,NA,NA
"165","stim/objects/Instruments/metronome2.png",204,72,204,0.9,"stim/31.jpeg",3,1,3,NA,"Instruments",2,1,"right","right",0.794000149,1,1,0,1,NA,NA,NA,NA,NA,NA,NA,NA,NA,NA,NA,NA,NA,NA,NA,NA,NA,NA,NA,NA,NA,NA,NA,NA
"179","stim/objects/Instruments/musicsheet2.png",205,72,205,0.9,"stim/32.jpeg",3,2,3,NA,"Instruments",2,4,"right","right",0.85800004,1,1,0,1,NA,NA,NA,NA,NA,NA,NA,NA,NA,NA,NA,NA,NA,NA,NA,NA,NA,NA,NA,NA,NA,NA,NA,NA
"199","stim/objects/Instruments/oboe.png",206,72,206,0.5,"stim/64.jpeg",6,4,1,NA,"Instruments",2,1,"right","right",0.687000275,1,1,0,1,NA,NA,NA,NA,NA,NA,NA,NA,NA,NA,NA,NA,NA,NA,NA,NA,NA,NA,NA,NA,NA,NA,NA,NA
"87","stim/objects/HouseObjects/remote.png",207,72,207,0.3,"stim/12.jpeg",1,2,2,NA,"HouseObjects",1,2,"left","right",0.623000145,0,0,0,1,NA,NA,NA,NA,NA,NA,NA,NA,NA,NA,NA,NA,NA,NA,NA,NA,NA,NA,NA,NA,NA,NA,NA,NA
"108","stim/objects/HouseObjects/rubbergloves2.png",208,72,208,0.9,"stim/43.jpeg",4,3,3,NA,"HouseObjects",1,4,"left","left",0.67200017,1,1,0,1,NA,NA,NA,NA,NA,NA,NA,NA,NA,NA,NA,NA,NA,NA,NA,NA,NA,NA,NA,NA,NA,NA,NA,NA
"96","stim/objects/HouseObjects/remote2.png",209,72,209,0.9,"stim/42.jpeg",4,2,3,NA,"HouseObjects",1,4,"left","left",0.500000238,1,1,0,1,NA,NA,NA,NA,NA,NA,NA,NA,NA,NA,NA,NA,NA,NA,NA,NA,NA,NA,NA,NA,NA,NA,NA,NA
"133","stim/objects/Instruments/laud.png",210,72,210,0.5,"stim/52.jpeg",5,2,1,NA,"Instruments",2,2,"right","right",0.828999996,1,1,0,1,NA,NA,NA,NA,NA,NA,NA,NA,NA,NA,NA,NA,NA,NA,NA,NA,NA,NA,NA,NA,NA,NA,NA,NA
"128","stim/objects/Instruments/keyboard2.png",211,72,211,0.3,"stim/21.jpeg",2,1,2,NA,"Instruments",2,4,"right","left",0.61500001,0,0,0,1,NA,NA,NA,NA,NA,NA,NA,NA,NA,NA,NA,NA,NA,NA,NA,NA,NA,NA,NA,NA,NA,NA,NA,NA
"75","stim/objects/HouseObjects/recyclingbin.png",212,72,212,0.3,"stim/11.jpeg",1,1,2,NA,"HouseObjects",1,2,"left","right",0.736000299,0,0,0,1,NA,NA,NA,NA,NA,NA,NA,NA,NA,NA,NA,NA,NA,NA,NA,NA,NA,NA,NA,NA,NA,NA,NA,NA
"120","stim/objects/HouseObjects/rug2.png",213,72,213,0.9,"stim/44.jpeg",4,4,3,NA,"HouseObjects",1,4,"left","left",0.701000214,1,1,0,1,NA,NA,NA,NA,NA,NA,NA,NA,NA,NA,NA,NA,NA,NA,NA,NA,NA,NA,NA,NA,NA,NA,NA,NA
"171","stim/objects/Instruments/musicsheet.png",214,72,214,0.5,"stim/62.jpeg",6,2,1,NA,"Instruments",2,2,"right","right",0.725000143,1,1,0,1,NA,NA,NA,NA,NA,NA,NA,NA,NA,NA,NA,NA,NA,NA,NA,NA,NA,NA,NA,NA,NA,NA,NA,NA
"125","stim/objects/Instruments/keyboard.png",215,72,215,0.5,"stim/51.jpeg",5,1,1,NA,"Instruments",2,1,"right","right",0.684000254,1,1,0,1,NA,NA,NA,NA,NA,NA,NA,NA,NA,NA,NA,NA,NA,NA,NA,NA,NA,NA,NA,NA,NA,NA,NA,NA
"221","stim/objects/Instruments/pipepiano.png",216,72,216,0.7,"stim/12.jpeg",1,2,2,NA,"Instruments",2,2,"right","right",0.67200017,1,1,0,1,NA,NA,NA,NA,NA,NA,NA,NA,NA,NA,NA,NA,NA,NA,NA,NA,NA,NA,NA,NA,NA,NA,NA,NA
"180","stim/objects/Instruments/musicsheet2.png",217,72,217,0.9,"stim/32.jpeg",3,2,3,NA,"Instruments",2,4,"right","",NA,0,0,0,1,NA,NA,NA,NA,NA,NA,NA,NA,NA,NA,NA,NA,NA,NA,NA,NA,NA,NA,NA,NA,NA,NA,NA,NA
"5","stim/objects/HouseObjects/iron.png",218,72,218,0.5,"stim/51.jpeg",5,1,1,NA,"HouseObjects",1,1,"left","right",0.776000023,0,0,0,1,NA,NA,NA,NA,NA,NA,NA,NA,NA,NA,NA,NA,NA,NA,NA,NA,NA,NA,NA,NA,NA,NA,NA,NA
"83","stim/objects/HouseObjects/recyclingbin2.png",219,72,219,0.9,"stim/41.jpeg",4,1,3,NA,"HouseObjects",1,3,"left","left",0.703000069,1,1,0,1,NA,NA,NA,NA,NA,NA,NA,NA,NA,NA,NA,NA,NA,NA,NA,NA,NA,NA,NA,NA,NA,NA,NA,NA
"23","stim/objects/HouseObjects/ironingboard2.png",220,72,220,0.7,"stim/22.jpeg",2,2,2,NA,"HouseObjects",1,4,"left","left",0.607000113,1,1,0,1,NA,NA,NA,NA,NA,NA,NA,NA,NA,NA,NA,NA,NA,NA,NA,NA,NA,NA,NA,NA,NA,NA,NA,NA
"239","stim/objects/Instruments/record.png",221,72,221,0.7,"stim/13.jpeg",1,3,2,NA,"Instruments",2,1,"right","right",0.715000391,1,1,0,1,NA,NA,NA,NA,NA,NA,NA,NA,NA,NA,NA,NA,NA,NA,NA,NA,NA,NA,NA,NA,NA,NA,NA,NA
"215","stim/objects/Instruments/panflute.png",222,72,222,0.7,"stim/11.jpeg",1,1,2,NA,"Instruments",2,2,"right","right",0.532000065,1,1,0,1,NA,NA,NA,NA,NA,NA,NA,NA,NA,NA,NA,NA,NA,NA,NA,NA,NA,NA,NA,NA,NA,NA,NA,NA
"149","stim/objects/Instruments/marimba.png",223,72,223,0.5,"stim/54.jpeg",5,4,1,NA,"Instruments",2,4,"right","right",0.804000139,1,1,0,1,NA,NA,NA,NA,NA,NA,NA,NA,NA,NA,NA,NA,NA,NA,NA,NA,NA,NA,NA,NA,NA,NA,NA,NA
"185","stim/objects/Instruments/musicstand.png",224,72,224,0.5,"stim/63.jpeg",6,3,1,NA,"Instruments",2,1,"right","right",0.534000158,1,1,0,1,NA,NA,NA,NA,NA,NA,NA,NA,NA,NA,NA,NA,NA,NA,NA,NA,NA,NA,NA,NA,NA,NA,NA,NA
"70","stim/objects/HouseObjects/pitcher.png",225,72,225,0.5,"stim/64.jpeg",6,4,1,NA,"HouseObjects",1,1,"left","right",0.544000149,0,0,0,1,NA,NA,NA,NA,NA,NA,NA,NA,NA,NA,NA,NA,NA,NA,NA,NA,NA,NA,NA,NA,NA,NA,NA,NA
"59","stim/objects/HouseObjects/match.png",226,72,226,0.5,"stim/62.jpeg",6,2,1,NA,"HouseObjects",1,1,"left","right",0.493000269,0,0,0,1,NA,NA,NA,NA,NA,NA,NA,NA,NA,NA,NA,NA,NA,NA,NA,NA,NA,NA,NA,NA,NA,NA,NA,NA
"71","stim/objects/HouseObjects/pitcher.png",227,72,227,0.5,"stim/64.jpeg",6,4,1,NA,"HouseObjects",1,3,"left","right",0.737000227,0,0,0,1,NA,NA,NA,NA,NA,NA,NA,NA,NA,NA,NA,NA,NA,NA,NA,NA,NA,NA,NA,NA,NA,NA,NA,NA
"222","stim/objects/Instruments/pipepiano.png",228,72,228,0.7,"stim/12.jpeg",1,2,2,NA,"Instruments",2,3,"right","right",0.624000072,1,1,0,1,NA,NA,NA,NA,NA,NA,NA,NA,NA,NA,NA,NA,NA,NA,NA,NA,NA,NA,NA,NA,NA,NA,NA,NA
"194","stim/objects/Instruments/musicstand2.png",229,72,229,0.9,"stim/33.jpeg",3,3,3,NA,"Instruments",2,2,"right","right",0.629000187,1,1,0,1,NA,NA,NA,NA,NA,NA,NA,NA,NA,NA,NA,NA,NA,NA,NA,NA,NA,NA,NA,NA,NA,NA,NA,NA
"11","stim/objects/HouseObjects/iron2.png",230,72,230,0.7,"stim/21.jpeg",2,1,2,NA,"HouseObjects",1,1,"left","",NA,0,0,0,1,NA,NA,NA,NA,NA,NA,NA,NA,NA,NA,NA,NA,NA,NA,NA,NA,NA,NA,NA,NA,NA,NA,NA,NA
"84","stim/objects/HouseObjects/recyclingbin2.png",231,72,231,0.9,"stim/41.jpeg",4,1,3,NA,"HouseObjects",1,3,"left","left",0.664000034,1,1,0,1,NA,NA,NA,NA,NA,NA,NA,NA,NA,NA,NA,NA,NA,NA,NA,NA,NA,NA,NA,NA,NA,NA,NA,NA
"53","stim/objects/HouseObjects/lintroller.png",232,72,232,0.5,"stim/61.jpeg",6,1,1,NA,"HouseObjects",1,2,"left","right",0.871999979,0,0,0,1,NA,NA,NA,NA,NA,NA,NA,NA,NA,NA,NA,NA,NA,NA,NA,NA,NA,NA,NA,NA,NA,NA,NA,NA
"166","stim/objects/Instruments/metronome2.png",233,72,233,0.9,"stim/31.jpeg",3,1,3,NA,"Instruments",2,1,"right","right",0.64800024,1,1,0,1,NA,NA,NA,NA,NA,NA,NA,NA,NA,NA,NA,NA,NA,NA,NA,NA,NA,NA,NA,NA,NA,NA,NA,NA
"12","stim/objects/HouseObjects/iron2.png",234,72,234,0.7,"stim/21.jpeg",2,1,2,NA,"HouseObjects",1,2,"left","left",0.519000292,1,1,0,1,NA,NA,NA,NA,NA,NA,NA,NA,NA,NA,NA,NA,NA,NA,NA,NA,NA,NA,NA,NA,NA,NA,NA,NA
"141","stim/objects/Instruments/maraca.png",235,72,235,0.5,"stim/53.jpeg",5,3,1,NA,"Instruments",2,2,"right","right",0.637000084,1,1,0,1,NA,NA,NA,NA,NA,NA,NA,NA,NA,NA,NA,NA,NA,NA,NA,NA,NA,NA,NA,NA,NA,NA,NA,NA
"24","stim/objects/HouseObjects/ironingboard2.png",236,72,236,0.7,"stim/22.jpeg",2,2,2,NA,"HouseObjects",1,4,"left","left",0.601000071,1,1,0,1,NA,NA,NA,NA,NA,NA,NA,NA,NA,NA,NA,NA,NA,NA,NA,NA,NA,NA,NA,NA,NA,NA,NA,NA
"36","stim/objects/HouseObjects/key2.png",237,72,237,0.7,"stim/23.jpeg",2,3,2,NA,"HouseObjects",1,3,"left","left",0.437000036,1,1,0,1,NA,NA,NA,NA,NA,NA,NA,NA,NA,NA,NA,NA,NA,NA,NA,NA,NA,NA,NA,NA,NA,NA,NA,NA
"223","stim/objects/Instruments/pipepiano.png",238,72,238,0.7,"stim/12.jpeg",1,2,2,NA,"Instruments",2,3,"right","right",0.644000292,1,1,0,1,NA,NA,NA,NA,NA,NA,NA,NA,NA,NA,NA,NA,NA,NA,NA,NA,NA,NA,NA,NA,NA,NA,NA,NA
"144","stim/objects/Instruments/maraca2.png",239,72,239,0.3,"stim/23.jpeg",2,3,2,NA,"Instruments",2,1,"right","left",0.811000109,0,0,0,1,NA,NA,NA,NA,NA,NA,NA,NA,NA,NA,NA,NA,NA,NA,NA,NA,NA,NA,NA,NA,NA,NA,NA,NA
"60","stim/objects/HouseObjects/match2.png",240,72,240,0.1,"stim/32.jpeg",3,2,3,NA,"HouseObjects",1,4,"left","right",0.638000011,0,0,0,1,NA,NA,NA,NA,NA,NA,NA,NA,NA,NA,NA,NA,NA,NA,NA,NA,NA,NA,NA,NA,NA,NA,NA,NA
"261","stim/objects/HouseObjects/bottle2.png",248,72,241,0.7,"stim/21.jpeg",2,1,2,1,"HouseObjects",1,1,"left","",NA,0,0,1,0,59,72,1,0.7,1,"stim/21.jpeg",2,1,"stim/21.jpeg",1,"right",0.946999788,2,2,2.746000051,2,1.894000053,59,0,0,NA,0,NA,0
"473","stim/objects/Instruments/flutetrans.png",249,72,242,0.9,"stim/34.jpeg",3,4,3,2,"Instruments",2,3,"right","right",0.538000345,1,1,1,0,NA,NA,NA,NA,NA,NA,NA,NA,NA,NA,NA,NA,NA,NA,NA,NA,NA,NA,NA,NA,NA,NA,NA,NA
"249","stim/objects/HouseObjects/barbecuelighter2.png",250,72,243,0.3,"stim/14.jpeg",1,4,2,1,"HouseObjects",1,3,"left","right",0.779000044,0,0,1,0,27,72,1,0.3,1,"stim/14.jpeg",1,4,"stim/14.jpeg",3,"right",1.701999903,2,2,0.983999968,3,1.664999723,27,0,0,NA,1,NA,0
"391","stim/objects/HouseObjects/sponge2.png",251,72,244,0.9,"stim/43.jpeg",4,3,3,1,"HouseObjects",1,4,"left","left",0.598000288,1,1,1,0,119,72,1,0.9,1,"stim/43.jpeg",4,3,"stim/43.jpeg",4,"left",2.386999846,3,2,1.644999981,4,1.50999999,119,1,0,0,1,1,0
"253","stim/objects/HouseObjects/bleachbottle.png",252,72,245,0.5,"stim/52.jpeg",5,2,1,2,"HouseObjects",1,1,"left","right",0.771000147,0,0,1,0,NA,NA,NA,NA,NA,NA,NA,NA,NA,NA,NA,NA,NA,NA,NA,NA,NA,NA,NA,NA,NA,NA,NA,NA
"385","stim/objects/HouseObjects/safetypin2.png",253,72,246,0.1,"stim/32.jpeg",3,2,3,1,"HouseObjects",1,1,"left","right",0.736000061,0,0,1,0,14,72,1,0.1,1,"stim/32.jpeg",3,2,"stim/32.jpeg",1,"right",1.157999992,2,3,1.089999914,4,1.145999908,14,0,0,NA,0,NA,0
"545","stim/objects/Instruments/harp.png",254,72,247,0.5,"stim/54.jpeg",5,4,1,1,"Instruments",2,4,"right","right",0.537000179,1,1,1,0,82,72,1,0.5,1,"stim/54.jpeg",5,4,"stim/54.jpeg",4,"left",1.519000053,2,4,2.132999897,2,1.313999891,82,1,1,1,0,0,0
"429","stim/objects/Instruments/chime2.png",255,72,248,0.3,"stim/24.jpeg",2,4,2,1,"Instruments",2,1,"right","right",0.570000172,1,1,1,0,55,72,1,0.3,2,"stim/24.jpeg",2,4,"stim/24.jpeg",1,"left",1.353999853,3,3,1.767999887,2,3.241999865,55,1,0,0,0,0,0
"282","stim/objects/HouseObjects/coffee2.png",256,72,249,0.7,"stim/23.jpeg",2,3,2,1,"HouseObjects",1,2,"left","left",0.586000204,1,1,1,0,163,72,1,0.7,1,"stim/23.jpeg",2,3,"stim/23.jpeg",2,"right",0.932999849,2,2,1.005999804,2,2.443999767,163,0,0,NA,1,NA,0
"378","stim/objects/HouseObjects/hairdryer.png",257,72,250,0.5,"stim/54.jpeg",5,4,1,1,"HouseObjects",1,3,"left","right",0.666000128,0,0,1,0,179,72,1,0.5,1,"stim/54.jpeg",5,4,"stim/54.jpeg",3,"left",1.018999815,2,3,1.410000086,4,0.948999882,179,1,0,0,0,0,0
"456","stim/objects/Instruments/flute.png",258,72,251,0.9,"stim/32.jpeg",3,2,3,2,"Instruments",2,2,"right","right",0.747000217,1,1,1,0,NA,NA,NA,NA,NA,NA,NA,NA,NA,NA,NA,NA,NA,NA,NA,NA,NA,NA,NA,NA,NA,NA,NA,NA
"523","stim/objects/Instruments/gong2.png",259,72,252,0.9,"stim/32.jpeg",3,2,3,1,"Instruments",2,2,"right","right",0.521000147,1,1,1,0,41,72,1,0.9,2,"stim/32.jpeg",3,2,"stim/32.jpeg",2,"right",1.815999985,2,2,1.876999855,3,1.836999893,41,0,1,NA,0,NA,0
"491","stim/objects/Instruments/frenchhorn.png",260,72,253,0.9,"stim/32.jpeg",3,2,3,2,"Instruments",2,1,"right","right",0.472000122,1,1,1,0,NA,NA,NA,NA,NA,NA,NA,NA,NA,NA,NA,NA,NA,NA,NA,NA,NA,NA,NA,NA,NA,NA,NA,NA
"403","stim/objects/HouseObjects/vacuumcleaner2.png",261,72,254,0.9,"stim/41.jpeg",4,1,3,1,"HouseObjects",1,2,"left","left",0.588000059,1,1,1,0,94,72,1,0.9,1,"stim/41.jpeg",4,1,"stim/41.jpeg",2,"right",0.914000034,2,4,1.214999914,4,1.039999962,94,0,0,NA,0,NA,0
"325","stim/objects/HouseObjects/flyswatter.png",262,72,255,0.9,"stim/42.jpeg",4,2,3,2,"HouseObjects",1,3,"left","left",0.664000273,1,1,1,0,NA,NA,NA,NA,NA,NA,NA,NA,NA,NA,NA,NA,NA,NA,NA,NA,NA,NA,NA,NA,NA,NA,NA,NA
"326","stim/objects/HouseObjects/flyswatter.png",263,72,256,0.9,"stim/44.jpeg",4,4,3,2,"HouseObjects",1,3,"left","left",0.838000059,1,1,1,0,NA,NA,NA,NA,NA,NA,NA,NA,NA,NA,NA,NA,NA,NA,NA,NA,NA,NA,NA,NA,NA,NA,NA,NA
"327","stim/objects/HouseObjects/flyswatter.png",264,72,257,0.9,"stim/42.jpeg",4,2,3,2,"HouseObjects",1,3,"left","left",0.772000074,1,1,1,0,NA,NA,NA,NA,NA,NA,NA,NA,NA,NA,NA,NA,NA,NA,NA,NA,NA,NA,NA,NA,NA,NA,NA,NA
"361","stim/objects/HouseObjects/glass.png",265,72,258,0.9,"stim/42.jpeg",4,2,3,2,"HouseObjects",1,3,"left","left",0.65500021,1,1,1,0,NA,NA,NA,NA,NA,NA,NA,NA,NA,NA,NA,NA,NA,NA,NA,NA,NA,NA,NA,NA,NA,NA,NA,NA
"393","stim/objects/HouseObjects/spraybottle2.png",266,72,259,0.9,"stim/44.jpeg",4,4,3,1,"HouseObjects",1,1,"left","left",0.779999971,1,1,1,0,162,72,1,0.9,1,"stim/44.jpeg",4,4,"stim/44.jpeg",1,"left",1.282999992,2,3,0.80099988,4,0.802999735,162,1,0,0,0,0,0
"363","stim/objects/HouseObjects/glass.png",267,72,260,0.9,"stim/42.jpeg",4,2,3,2,"HouseObjects",1,4,"left","",NA,0,0,1,0,NA,NA,NA,NA,NA,NA,NA,NA,NA,NA,NA,NA,NA,NA,NA,NA,NA,NA,NA,NA,NA,NA,NA,NA
"457","stim/objects/Instruments/flute.png",268,72,261,0.9,"stim/34.jpeg",3,4,3,2,"Instruments",2,2,"right","right",0.493999958,1,1,1,0,NA,NA,NA,NA,NA,NA,NA,NA,NA,NA,NA,NA,NA,NA,NA,NA,NA,NA,NA,NA,NA,NA,NA,NA
"508","stim/objects/Instruments/gong.png",269,72,262,0.9,"stim/32.jpeg",3,2,3,2,"Instruments",2,3,"right","right",0.572000265,1,1,1,0,NA,NA,NA,NA,NA,NA,NA,NA,NA,NA,NA,NA,NA,NA,NA,NA,NA,NA,NA,NA,NA,NA,NA,NA
"492","stim/objects/Instruments/frenchhorn.png",270,72,263,0.9,"stim/33.jpeg",3,3,3,2,"Instruments",2,4,"right","right",0.508000135,1,1,1,0,NA,NA,NA,NA,NA,NA,NA,NA,NA,NA,NA,NA,NA,NA,NA,NA,NA,NA,NA,NA,NA,NA,NA,NA
"558","stim/objects/Instruments/triangle2.png",271,72,264,0.1,"stim/42.jpeg",4,2,3,1,"Instruments",2,1,"right","left",0.647000074,0,0,1,0,139,72,1,0.1,2,"stim/42.jpeg",4,2,"stim/42.jpeg",1,"left",1.842999935,3,2,1.940999985,2,0.987999916,139,1,1,1,0,0,0
"427","stim/objects/Instruments/chime.png",272,72,265,0.5,"stim/61.jpeg",6,1,1,2,"Instruments",2,3,"right","right",0.585000277,1,1,1,0,NA,NA,NA,NA,NA,NA,NA,NA,NA,NA,NA,NA,NA,NA,NA,NA,NA,NA,NA,NA,NA,NA,NA,NA
"242","stim/objects/HouseObjects/ashtray.png",273,72,266,0.5,"stim/51.jpeg",5,1,1,2,"HouseObjects",1,3,"left","left",0.605000019,1,1,1,0,NA,NA,NA,NA,NA,NA,NA,NA,NA,NA,NA,NA,NA,NA,NA,NA,NA,NA,NA,NA,NA,NA,NA,NA
"328","stim/objects/HouseObjects/flyswatter.png",274,72,267,0.9,"stim/43.jpeg",4,3,3,2,"HouseObjects",1,4,"left","left",0.664000273,1,1,1,0,NA,NA,NA,NA,NA,NA,NA,NA,NA,NA,NA,NA,NA,NA,NA,NA,NA,NA,NA,NA,NA,NA,NA,NA
"493","stim/objects/Instruments/frenchhorn.png",275,72,268,0.9,"stim/34.jpeg",3,4,3,2,"Instruments",2,4,"right","right",0.656000137,1,1,1,0,NA,NA,NA,NA,NA,NA,NA,NA,NA,NA,NA,NA,NA,NA,NA,NA,NA,NA,NA,NA,NA,NA,NA,NA
"291","stim/objects/HouseObjects/doormat.png",276,72,269,0.9,"stim/43.jpeg",4,3,3,2,"HouseObjects",1,1,"left","left",0.527000189,1,1,1,0,NA,NA,NA,NA,NA,NA,NA,NA,NA,NA,NA,NA,NA,NA,NA,NA,NA,NA,NA,NA,NA,NA,NA,NA
"458","stim/objects/Instruments/flute.png",277,72,270,0.9,"stim/32.jpeg",3,2,3,2,"Instruments",2,4,"right","right",0.637000084,1,1,1,0,NA,NA,NA,NA,NA,NA,NA,NA,NA,NA,NA,NA,NA,NA,NA,NA,NA,NA,NA,NA,NA,NA,NA,NA
"541","stim/objects/Instruments/guitarcase.png",278,72,271,0.5,"stim/52.jpeg",5,2,1,1,"Instruments",2,3,"right","right",0.768000364,1,1,1,0,62,72,1,0.5,1,"stim/52.jpeg",5,2,"stim/52.jpeg",3,"right",1.315000057,2,3,3.128999949,2,3.025000095,62,0,0,NA,0,NA,0
"364","stim/objects/HouseObjects/glass.png",279,72,272,0.9,"stim/44.jpeg",4,4,3,2,"HouseObjects",1,4,"left","left",0.529000282,1,1,1,0,NA,NA,NA,NA,NA,NA,NA,NA,NA,NA,NA,NA,NA,NA,NA,NA,NA,NA,NA,NA,NA,NA,NA,NA
"388","stim/objects/HouseObjects/scale.png",280,72,273,0.5,"stim/62.jpeg",6,2,1,1,"HouseObjects",1,2,"left","right",0.755000353,0,0,1,0,178,72,1,0.5,2,"stim/62.jpeg",6,2,"stim/62.jpeg",2,"right",0.92599988,2,3,2.072999954,4,0.933000088,178,0,0,NA,0,NA,0
"274","stim/objects/HouseObjects/clothesdryingrack2.png",281,72,274,0.7,"stim/21.jpeg",2,1,2,1,"HouseObjects",1,3,"left","",NA,0,0,1,0,152,72,1,0.7,1,"stim/21.jpeg",2,1,"stim/21.jpeg",3,"right",1.121000051,2,4,2.950999975,4,0.666999817,152,0,0,NA,0,NA,0
"309","stim/objects/HouseObjects/dustpan.png",282,72,275,0.9,"stim/42.jpeg",4,2,3,2,"HouseObjects",1,4,"left","left",0.713999987,1,1,1,0,NA,NA,NA,NA,NA,NA,NA,NA,NA,NA,NA,NA,NA,NA,NA,NA,NA,NA,NA,NA,NA,NA,NA,NA
"329","stim/objects/HouseObjects/flyswatter.png",283,72,276,0.9,"stim/42.jpeg",4,2,3,2,"HouseObjects",1,2,"left","left",0.707000256,1,1,1,0,NA,NA,NA,NA,NA,NA,NA,NA,NA,NA,NA,NA,NA,NA,NA,NA,NA,NA,NA,NA,NA,NA,NA,NA
"380","stim/objects/HouseObjects/handbrush.png",284,72,277,0.5,"stim/51.jpeg",5,1,1,1,"HouseObjects",1,1,"left","right",0.639000177,0,0,1,0,113,72,1,0.5,1,"stim/51.jpeg",5,1,"stim/51.jpeg",1,"left",1.750999928,2,3,0.764999866,2,2.325999975,113,1,0,0,0,0,0
"459","stim/objects/Instruments/flute.png",285,72,278,0.9,"stim/33.jpeg",3,3,3,2,"Instruments",2,1,"right","right",0.54700017,1,1,1,0,NA,NA,NA,NA,NA,NA,NA,NA,NA,NA,NA,NA,NA,NA,NA,NA,NA,NA,NA,NA,NA,NA,NA,NA
"408","stim/objects/Instruments/accordion2.png",286,72,279,0.7,"stim/13.jpeg",1,3,2,1,"Instruments",2,2,"right","right",0.766000032,1,1,1,0,184,72,1,0.7,2,"stim/13.jpeg",1,3,"stim/13.jpeg",2,"right",1.433000088,2,2,2.601000071,4,0.934000015,184,0,0,NA,0,NA,0
"345","stim/objects/HouseObjects/garbagebin.png",287,72,280,0.9,"stim/44.jpeg",4,4,3,2,"HouseObjects",1,1,"left","left",0.599000216,1,1,1,0,NA,NA,NA,NA,NA,NA,NA,NA,NA,NA,NA,NA,NA,NA,NA,NA,NA,NA,NA,NA,NA,NA,NA,NA
"244","stim/objects/HouseObjects/ballofstring.png",288,72,281,0.5,"stim/52.jpeg",5,2,1,2,"HouseObjects",1,2,"left","right",0.634000301,0,0,1,0,NA,NA,NA,NA,NA,NA,NA,NA,NA,NA,NA,NA,NA,NA,NA,NA,NA,NA,NA,NA,NA,NA,NA,NA
"540","stim/objects/Instruments/grandpiano2.png",289,72,282,0.9,"stim/33.jpeg",3,3,3,1,"Instruments",2,2,"right","right",0.593000174,1,1,1,0,1,72,1,0.9,2,"stim/33.jpeg",3,3,"stim/33.jpeg",2,"right",1.605000019,3,4,7.342000008,4,4.250999928,1,0,0,NA,0,NA,0
"310","stim/objects/HouseObjects/dustpan.png",290,72,283,0.9,"stim/41.jpeg",4,1,3,2,"HouseObjects",1,2,"left","left",0.588000298,1,1,1,0,NA,NA,NA,NA,NA,NA,NA,NA,NA,NA,NA,NA,NA,NA,NA,NA,NA,NA,NA,NA,NA,NA,NA,NA
"506","stim/objects/Instruments/frenchhorn2.png",291,72,284,0.9,"stim/31.jpeg",3,1,3,1,"Instruments",2,1,"right","right",0.621999979,1,1,1,0,196,72,1,0.9,2,"stim/31.jpeg",3,1,"stim/31.jpeg",1,"right",1.329999924,2,3,2.823999882,4,0.816999912,196,0,0,NA,0,NA,0
"358","stim/objects/HouseObjects/garbagebin2.png",292,72,285,0.1,"stim/34.jpeg",3,4,3,1,"HouseObjects",1,4,"left","right",0.642000198,0,0,1,0,102,72,1,0.1,1,"stim/34.jpeg",3,4,"stim/34.jpeg",4,"right",1.221999884,2,2,0.690999985,4,1.340999842,102,0,0,NA,1,NA,0
"509","stim/objects/Instruments/gong.png",293,72,286,0.9,"stim/32.jpeg",3,2,3,2,"Instruments",2,4,"right","right",0.479000092,1,1,1,0,NA,NA,NA,NA,NA,NA,NA,NA,NA,NA,NA,NA,NA,NA,NA,NA,NA,NA,NA,NA,NA,NA,NA,NA
"292","stim/objects/HouseObjects/doormat.png",294,72,287,0.9,"stim/41.jpeg",4,1,3,2,"HouseObjects",1,4,"left","left",0.601000309,1,1,1,0,NA,NA,NA,NA,NA,NA,NA,NA,NA,NA,NA,NA,NA,NA,NA,NA,NA,NA,NA,NA,NA,NA,NA,NA
"262","stim/objects/HouseObjects/broom.png",295,72,288,0.5,"stim/62.jpeg",6,2,1,2,"HouseObjects",1,2,"left","right",0.738000154,0,0,1,0,NA,NA,NA,NA,NA,NA,NA,NA,NA,NA,NA,NA,NA,NA,NA,NA,NA,NA,NA,NA,NA,NA,NA,NA
"415","stim/objects/Instruments/banjo.png",296,72,289,0.5,"stim/54.jpeg",5,4,1,2,"Instruments",2,2,"right","",NA,0,0,1,0,NA,NA,NA,NA,NA,NA,NA,NA,NA,NA,NA,NA,NA,NA,NA,NA,NA,NA,NA,NA,NA,NA,NA,NA
"494","stim/objects/Instruments/frenchhorn.png",297,72,290,0.9,"stim/34.jpeg",3,4,3,2,"Instruments",2,1,"right","right",0.664000273,1,1,1,0,NA,NA,NA,NA,NA,NA,NA,NA,NA,NA,NA,NA,NA,NA,NA,NA,NA,NA,NA,NA,NA,NA,NA,NA
"399","stim/objects/HouseObjects/thread2.png",298,72,291,0.9,"stim/43.jpeg",4,3,3,1,"HouseObjects",1,3,"left","left",0.558000326,1,1,1,0,182,72,1,0.9,1,"stim/43.jpeg",4,3,"stim/43.jpeg",3,"right",1.110999823,2,2,0.717999935,4,1.137000084,182,0,0,NA,0,NA,0
"293","stim/objects/HouseObjects/doormat.png",299,72,292,0.9,"stim/44.jpeg",4,4,3,2,"HouseObjects",1,2,"left","",NA,0,0,1,0,NA,NA,NA,NA,NA,NA,NA,NA,NA,NA,NA,NA,NA,NA,NA,NA,NA,NA,NA,NA,NA,NA,NA,NA
"440","stim/objects/Instruments/doublebass.png",300,72,293,0.7,"stim/14.jpeg",1,4,2,2,"Instruments",2,4,"right","right",0.570000172,1,1,1,0,NA,NA,NA,NA,NA,NA,NA,NA,NA,NA,NA,NA,NA,NA,NA,NA,NA,NA,NA,NA,NA,NA,NA,NA
"365","stim/objects/HouseObjects/glass.png",301,72,294,0.9,"stim/41.jpeg",4,1,3,2,"HouseObjects",1,4,"left","left",0.575000048,1,1,1,0,NA,NA,NA,NA,NA,NA,NA,NA,NA,NA,NA,NA,NA,NA,NA,NA,NA,NA,NA,NA,NA,NA,NA,NA
"286","stim/objects/HouseObjects/cushion2.png",302,72,295,0.7,"stim/24.jpeg",2,4,2,1,"HouseObjects",1,4,"left","left",0.721000195,1,1,1,0,165,72,1,0.7,1,"stim/24.jpeg",2,4,"stim/24.jpeg",4,"right",0.849999905,2,1,3.521999836,4,1.599999905,165,0,0,NA,1,NA,0
"259","stim/objects/HouseObjects/bottle.png",303,72,296,0.5,"stim/61.jpeg",6,1,1,2,"HouseObjects",1,2,"left","right",0.468000174,0,0,1,0,NA,NA,NA,NA,NA,NA,NA,NA,NA,NA,NA,NA,NA,NA,NA,NA,NA,NA,NA,NA,NA,NA,NA,NA
"441","stim/objects/Instruments/doublebass.png",304,72,297,0.7,"stim/12.jpeg",1,2,2,2,"Instruments",2,1,"right","right",0.580000162,1,1,1,0,NA,NA,NA,NA,NA,NA,NA,NA,NA,NA,NA,NA,NA,NA,NA,NA,NA,NA,NA,NA,NA,NA,NA,NA
"495","stim/objects/Instruments/frenchhorn.png",305,72,298,0.9,"stim/34.jpeg",3,4,3,2,"Instruments",2,2,"right","right",0.585000038,1,1,1,0,NA,NA,NA,NA,NA,NA,NA,NA,NA,NA,NA,NA,NA,NA,NA,NA,NA,NA,NA,NA,NA,NA,NA,NA
"389","stim/objects/HouseObjects/scale2.png",306,72,299,0.9,"stim/42.jpeg",4,2,3,1,"HouseObjects",1,4,"left","left",0.565000296,1,1,1,0,38,72,1,0.9,1,"stim/42.jpeg",4,2,"stim/42.jpeg",4,"right",1.086999893,2,2,0.773000002,3,0.930999994,38,0,1,NA,0,NA,0
"377","stim/objects/HouseObjects/glassmop2.png",307,72,300,0.1,"stim/32.jpeg",3,2,3,1,"HouseObjects",1,3,"left","left",0.739000082,1,1,1,0,92,72,1,0.1,1,"stim/32.jpeg",3,2,"stim/32.jpeg",3,"right",2.053999901,2,1,1.166999817,4,1.34499979,92,0,0,NA,0,NA,0
"453","stim/objects/Instruments/electricguitar.png",308,72,301,0.7,"stim/13.jpeg",1,3,2,2,"Instruments",2,2,"right","",NA,0,0,1,0,NA,NA,NA,NA,NA,NA,NA,NA,NA,NA,NA,NA,NA,NA,NA,NA,NA,NA,NA,NA,NA,NA,NA,NA
"418","stim/objects/Instruments/bassdrum.png",309,72,302,0.5,"stim/54.jpeg",5,4,1,2,"Instruments",2,3,"right","",NA,0,0,1,0,NA,NA,NA,NA,NA,NA,NA,NA,NA,NA,NA,NA,NA,NA,NA,NA,NA,NA,NA,NA,NA,NA,NA,NA
"474","stim/objects/Instruments/flutetrans.png",310,72,303,0.9,"stim/32.jpeg",3,2,3,2,"Instruments",2,1,"right","right",0.61400032,1,1,1,0,NA,NA,NA,NA,NA,NA,NA,NA,NA,NA,NA,NA,NA,NA,NA,NA,NA,NA,NA,NA,NA,NA,NA,NA
"346","stim/objects/HouseObjects/garbagebin.png",311,72,304,0.9,"stim/42.jpeg",4,2,3,2,"HouseObjects",1,3,"left","left",0.717000008,1,1,1,0,NA,NA,NA,NA,NA,NA,NA,NA,NA,NA,NA,NA,NA,NA,NA,NA,NA,NA,NA,NA,NA,NA,NA,NA
"475","stim/objects/Instruments/flutetrans.png",312,72,305,0.9,"stim/32.jpeg",3,2,3,2,"Instruments",2,4,"right","right",0.75,1,1,1,0,NA,NA,NA,NA,NA,NA,NA,NA,NA,NA,NA,NA,NA,NA,NA,NA,NA,NA,NA,NA,NA,NA,NA,NA
"554","stim/objects/Instruments/tambourine2.png",313,72,306,0.1,"stim/44.jpeg",4,4,3,1,"Instruments",2,4,"right","left",0.664000273,0,0,1,0,109,72,1,0.1,2,"stim/44.jpeg",4,4,"stim/44.jpeg",4,"left",1.120999813,2,3,2.055000067,4,1.254999876,109,1,0,0,1,1,0
"263","stim/objects/HouseObjects/broom.png",314,72,307,0.5,"stim/61.jpeg",6,1,1,2,"HouseObjects",1,3,"left","right",0.526000023,0,0,1,0,NA,NA,NA,NA,NA,NA,NA,NA,NA,NA,NA,NA,NA,NA,NA,NA,NA,NA,NA,NA,NA,NA,NA,NA
"433","stim/objects/Instruments/cornet.png",315,72,308,0.5,"stim/62.jpeg",6,2,1,2,"Instruments",2,2,"right","right",0.591000319,1,1,1,0,NA,NA,NA,NA,NA,NA,NA,NA,NA,NA,NA,NA,NA,NA,NA,NA,NA,NA,NA,NA,NA,NA,NA,NA
"496","stim/objects/Instruments/frenchhorn.png",316,72,309,0.9,"stim/33.jpeg",3,3,3,2,"Instruments",2,1,"right","right",0.677000046,1,1,1,0,NA,NA,NA,NA,NA,NA,NA,NA,NA,NA,NA,NA,NA,NA,NA,NA,NA,NA,NA,NA,NA,NA,NA,NA
"511","stim/objects/Instruments/gong.png",317,72,310,0.9,"stim/31.jpeg",3,1,3,2,"Instruments",2,3,"right","",NA,0,0,1,0,NA,NA,NA,NA,NA,NA,NA,NA,NA,NA,NA,NA,NA,NA,NA,NA,NA,NA,NA,NA,NA,NA,NA,NA
"250","stim/objects/HouseObjects/basket.png",318,72,311,0.5,"stim/51.jpeg",5,1,1,2,"HouseObjects",1,1,"left","right",0.753000259,0,0,1,0,NA,NA,NA,NA,NA,NA,NA,NA,NA,NA,NA,NA,NA,NA,NA,NA,NA,NA,NA,NA,NA,NA,NA,NA
"330","stim/objects/HouseObjects/flyswatter.png",319,72,312,0.9,"stim/41.jpeg",4,1,3,2,"HouseObjects",1,1,"left","left",0.636000156,1,1,1,0,NA,NA,NA,NA,NA,NA,NA,NA,NA,NA,NA,NA,NA,NA,NA,NA,NA,NA,NA,NA,NA,NA,NA,NA
"308","stim/objects/HouseObjects/dustpan.png",320,72,313,0.9,"stim/43.jpeg",4,3,3,2,"HouseObjects",1,2,"left","left",0.606000185,1,1,1,0,NA,NA,NA,NA,NA,NA,NA,NA,NA,NA,NA,NA,NA,NA,NA,NA,NA,NA,NA,NA,NA,NA,NA,NA
"512","stim/objects/Instruments/gong.png",321,72,314,0.9,"stim/33.jpeg",3,3,3,2,"Instruments",2,3,"right","right",0.602000237,1,1,1,0,NA,NA,NA,NA,NA,NA,NA,NA,NA,NA,NA,NA,NA,NA,NA,NA,NA,NA,NA,NA,NA,NA,NA,NA
"347","stim/objects/HouseObjects/garbagebin.png",322,72,315,0.9,"stim/44.jpeg",4,4,3,2,"HouseObjects",1,3,"left","left",0.692000151,1,1,1,0,NA,NA,NA,NA,NA,NA,NA,NA,NA,NA,NA,NA,NA,NA,NA,NA,NA,NA,NA,NA,NA,NA,NA,NA
"437","stim/objects/Instruments/cymbal.png",323,72,316,0.7,"stim/14.jpeg",1,4,2,2,"Instruments",2,2,"right","right",0.656000137,1,1,1,0,NA,NA,NA,NA,NA,NA,NA,NA,NA,NA,NA,NA,NA,NA,NA,NA,NA,NA,NA,NA,NA,NA,NA,NA
"472","stim/objects/Instruments/flute2.png",324,72,317,0.9,"stim/33.jpeg",3,3,3,1,"Instruments",2,4,"right","right",0.666000128,1,1,1,0,3,72,1,0.9,2,"stim/33.jpeg",3,3,"stim/33.jpeg",4,"right",3.932999849,2,2,1.347000122,4,2.260999918,3,0,0,NA,1,NA,0
"497","stim/objects/Instruments/frenchhorn.png",325,72,318,0.9,"stim/33.jpeg",3,3,3,2,"Instruments",2,3,"right","right",0.498000145,1,1,1,0,NA,NA,NA,NA,NA,NA,NA,NA,NA,NA,NA,NA,NA,NA,NA,NA,NA,NA,NA,NA,NA,NA,NA,NA
"569","stim/objects/Instruments/xylophone.png",326,72,319,0.7,"stim/12.jpeg",1,2,2,1,"Instruments",2,3,"right","right",0.65500021,1,1,1,0,192,72,1,0.7,2,"stim/12.jpeg",1,2,"stim/12.jpeg",3,"right",2.535999775,2,2,0.599999905,4,0.826999903,192,0,1,NA,0,NA,0
"513","stim/objects/Instruments/gong.png",327,72,320,0.9,"stim/34.jpeg",3,4,3,2,"Instruments",2,4,"right","",NA,0,0,1,0,NA,NA,NA,NA,NA,NA,NA,NA,NA,NA,NA,NA,NA,NA,NA,NA,NA,NA,NA,NA,NA,NA,NA,NA
"312","stim/objects/HouseObjects/dustpan.png",328,72,321,0.9,"stim/42.jpeg",4,2,3,2,"HouseObjects",1,1,"left","left",0.674000263,1,1,1,0,NA,NA,NA,NA,NA,NA,NA,NA,NA,NA,NA,NA,NA,NA,NA,NA,NA,NA,NA,NA,NA,NA,NA,NA
"348","stim/objects/HouseObjects/garbagebin.png",329,72,322,0.9,"stim/43.jpeg",4,3,3,2,"HouseObjects",1,3,"left","left",0.555000067,1,1,1,0,NA,NA,NA,NA,NA,NA,NA,NA,NA,NA,NA,NA,NA,NA,NA,NA,NA,NA,NA,NA,NA,NA,NA,NA
"268","stim/objects/HouseObjects/clock.png",330,72,323,0.5,"stim/63.jpeg",6,3,1,2,"HouseObjects",1,4,"left","right",0.666000366,0,0,1,0,NA,NA,NA,NA,NA,NA,NA,NA,NA,NA,NA,NA,NA,NA,NA,NA,NA,NA,NA,NA,NA,NA,NA,NA
"570","stim/objects/Instruments/xylophone2.png",331,72,324,0.1,"stim/44.jpeg",4,4,3,1,"Instruments",2,2,"right","left",0.87100029,0,0,1,0,65,72,1,0.1,2,"stim/44.jpeg",4,4,"stim/44.jpeg",2,"right",1.657999992,2,1,3.772999763,4,1.299000025,65,0,0,NA,0,NA,0
"515","stim/objects/Instruments/gong.png",332,72,325,0.9,"stim/32.jpeg",3,2,3,2,"Instruments",2,1,"right","right",0.594000101,1,1,1,0,NA,NA,NA,NA,NA,NA,NA,NA,NA,NA,NA,NA,NA,NA,NA,NA,NA,NA,NA,NA,NA,NA,NA,NA
"381","stim/objects/HouseObjects/handbrush2.png",333,72,326,0.1,"stim/34.jpeg",3,4,3,1,"HouseObjects",1,3,"left","",NA,0,0,1,0,110,72,1,0.1,1,"stim/34.jpeg",3,4,"stim/34.jpeg",3,"left",1.275000095,2,3,1.41899991,4,0.94299984,110,1,0,0,0,0,0
"290","stim/objects/HouseObjects/dishsoap2.png",334,72,327,0.7,"stim/21.jpeg",2,1,2,1,"HouseObjects",1,4,"left","left",0.568000078,1,1,1,0,13,72,1,0.7,1,"stim/21.jpeg",2,1,"stim/21.jpeg",4,"left",3.697999954,3,1,1.934999943,3,1.546999931,13,1,1,1,0,0,0
"529","stim/objects/Instruments/grandpiano.png",335,72,328,0.9,"stim/33.jpeg",3,3,3,2,"Instruments",2,2,"right","right",0.628000259,1,1,1,0,NA,NA,NA,NA,NA,NA,NA,NA,NA,NA,NA,NA,NA,NA,NA,NA,NA,NA,NA,NA,NA,NA,NA,NA
"548","stim/objects/Instruments/hihat2.png",336,72,329,0.9,"stim/33.jpeg",3,3,3,1,"Instruments",2,3,"right","right",0.666000128,1,1,1,0,60,72,1,0.9,2,"stim/33.jpeg",3,3,"stim/33.jpeg",3,"right",1.13499999,2,2,1.796999931,2,5.244999886,60,0,0,NA,0,NA,0
"416","stim/objects/Instruments/banjo.png",337,72,330,0.5,"stim/53.jpeg",5,3,1,2,"Instruments",2,4,"right","right",0.52300024,1,1,1,0,NA,NA,NA,NA,NA,NA,NA,NA,NA,NA,NA,NA,NA,NA,NA,NA,NA,NA,NA,NA,NA,NA,NA,NA
"428","stim/objects/Instruments/chime.png",338,72,331,0.5,"stim/64.jpeg",6,4,1,2,"Instruments",2,1,"right","right",0.504000187,1,1,1,0,NA,NA,NA,NA,NA,NA,NA,NA,NA,NA,NA,NA,NA,NA,NA,NA,NA,NA,NA,NA,NA,NA,NA,NA
"567","stim/objects/Instruments/vuvuzela.png",339,72,332,0.7,"stim/11.jpeg",1,1,2,1,"Instruments",2,2,"right","left",0.539000034,0,0,1,0,53,72,1,0.7,2,"stim/11.jpeg",1,1,"stim/11.jpeg",2,"left",1.23300004,3,4,2.548999786,4,2.157999992,53,1,0,0,0,0,0
"287","stim/objects/HouseObjects/dishsoap.png",340,72,333,0.7,"stim/21.jpeg",2,1,2,2,"HouseObjects",1,3,"left","left",0.703000069,1,1,1,0,NA,NA,NA,NA,NA,NA,NA,NA,NA,NA,NA,NA,NA,NA,NA,NA,NA,NA,NA,NA,NA,NA,NA,NA
"460","stim/objects/Instruments/flute.png",341,72,334,0.9,"stim/33.jpeg",3,3,3,2,"Instruments",2,2,"right","right",0.641000032,1,1,1,0,NA,NA,NA,NA,NA,NA,NA,NA,NA,NA,NA,NA,NA,NA,NA,NA,NA,NA,NA,NA,NA,NA,NA,NA
"461","stim/objects/Instruments/flute.png",342,72,335,0.9,"stim/34.jpeg",3,4,3,2,"Instruments",2,1,"right","right",0.512000084,1,1,1,0,NA,NA,NA,NA,NA,NA,NA,NA,NA,NA,NA,NA,NA,NA,NA,NA,NA,NA,NA,NA,NA,NA,NA,NA
"313","stim/objects/HouseObjects/dustpan.png",343,72,336,0.9,"stim/43.jpeg",4,3,3,2,"HouseObjects",1,4,"left","left",0.628000259,1,1,1,0,NA,NA,NA,NA,NA,NA,NA,NA,NA,NA,NA,NA,NA,NA,NA,NA,NA,NA,NA,NA,NA,NA,NA,NA
"314","stim/objects/HouseObjects/dustpan.png",344,72,337,0.9,"stim/42.jpeg",4,2,3,2,"HouseObjects",1,4,"left","right",0.45600009,0,0,1,0,NA,NA,NA,NA,NA,NA,NA,NA,NA,NA,NA,NA,NA,NA,NA,NA,NA,NA,NA,NA,NA,NA,NA,NA
"530","stim/objects/Instruments/grandpiano.png",345,72,338,0.9,"stim/33.jpeg",3,3,3,2,"Instruments",2,3,"right","right",0.62100029,1,1,1,0,NA,NA,NA,NA,NA,NA,NA,NA,NA,NA,NA,NA,NA,NA,NA,NA,NA,NA,NA,NA,NA,NA,NA,NA
"386","stim/objects/HouseObjects/saw.png",346,72,339,0.5,"stim/61.jpeg",6,1,1,1,"HouseObjects",1,2,"left","right",0.593000174,0,0,1,0,125,72,1,0.5,2,"stim/61.jpeg",6,1,"stim/61.jpeg",2,"left",1.006999969,2,3,1.114999771,2,0.96600008,125,1,0,0,1,1,0
"550","stim/objects/Instruments/saxophone2.png",347,72,340,0.9,"stim/34.jpeg",3,4,3,1,"Instruments",2,2,"right","right",0.49600029,1,1,1,0,176,72,1,0.9,2,"stim/34.jpeg",3,4,"stim/34.jpeg",2,"right",0.85800004,2,4,1.603999853,2,0.888999939,176,0,1,NA,1,NA,0
"532","stim/objects/Instruments/grandpiano.png",348,72,341,0.9,"stim/34.jpeg",3,4,3,2,"Instruments",2,1,"right","right",0.619000196,1,1,1,0,NA,NA,NA,NA,NA,NA,NA,NA,NA,NA,NA,NA,NA,NA,NA,NA,NA,NA,NA,NA,NA,NA,NA,NA
"498","stim/objects/Instruments/frenchhorn.png",349,72,342,0.9,"stim/31.jpeg",3,1,3,2,"Instruments",2,2,"right","right",0.520000219,1,1,1,0,NA,NA,NA,NA,NA,NA,NA,NA,NA,NA,NA,NA,NA,NA,NA,NA,NA,NA,NA,NA,NA,NA,NA,NA
"350","stim/objects/HouseObjects/garbagebin.png",350,72,343,0.9,"stim/42.jpeg",4,2,3,2,"HouseObjects",1,2,"left","",NA,0,0,1,0,NA,NA,NA,NA,NA,NA,NA,NA,NA,NA,NA,NA,NA,NA,NA,NA,NA,NA,NA,NA,NA,NA,NA,NA
"387","stim/objects/HouseObjects/saw2.png",351,72,344,0.9,"stim/41.jpeg",4,1,3,1,"HouseObjects",1,3,"left","left",0.48300004,1,1,1,0,68,72,1,0.9,1,"stim/41.jpeg",4,1,"stim/41.jpeg",3,"left",2.914999723,2,2,0.828999996,4,0.914000034,68,1,0,0,0,0,0
"516","stim/objects/Instruments/gong.png",352,72,345,0.9,"stim/34.jpeg",3,4,3,2,"Instruments",2,1,"right","right",0.784000158,1,1,1,0,NA,NA,NA,NA,NA,NA,NA,NA,NA,NA,NA,NA,NA,NA,NA,NA,NA,NA,NA,NA,NA,NA,NA,NA
"295","stim/objects/HouseObjects/doormat.png",353,72,346,0.9,"stim/43.jpeg",4,3,3,2,"HouseObjects",1,4,"left","left",0.526000261,1,1,1,0,NA,NA,NA,NA,NA,NA,NA,NA,NA,NA,NA,NA,NA,NA,NA,NA,NA,NA,NA,NA,NA,NA,NA,NA
"551","stim/objects/Instruments/speaker.png",354,72,347,0.5,"stim/64.jpeg",6,4,1,1,"Instruments",2,1,"right","right",0.53000021,1,1,1,0,8,72,1,0.5,2,"stim/64.jpeg",6,4,"stim/64.jpeg",1,"right",1.437999964,2,3,3.627000093,2,2.35199976,8,0,0,NA,0,NA,0
"549","stim/objects/Instruments/saxophone.png",355,72,348,0.5,"stim/52.jpeg",5,2,1,1,"Instruments",2,2,"right","right",0.819000244,1,1,1,0,9,72,1,0.5,1,"stim/52.jpeg",5,2,"stim/52.jpeg",2,"left",1.454999924,3,4,7.021999836,2,2.888999939,9,1,0,0,1,1,0
"499","stim/objects/Instruments/frenchhorn.png",356,72,349,0.9,"stim/32.jpeg",3,2,3,2,"Instruments",2,4,"right","",NA,0,0,1,0,NA,NA,NA,NA,NA,NA,NA,NA,NA,NA,NA,NA,NA,NA,NA,NA,NA,NA,NA,NA,NA,NA,NA,NA
"368","stim/objects/HouseObjects/glass.png",357,72,350,0.9,"stim/42.jpeg",4,2,3,2,"HouseObjects",1,2,"left","left",0.625000238,1,1,1,0,NA,NA,NA,NA,NA,NA,NA,NA,NA,NA,NA,NA,NA,NA,NA,NA,NA,NA,NA,NA,NA,NA,NA,NA
"369","stim/objects/HouseObjects/glass.png",358,72,351,0.9,"stim/42.jpeg",4,2,3,2,"HouseObjects",1,2,"left","left",0.518000364,1,1,1,0,NA,NA,NA,NA,NA,NA,NA,NA,NA,NA,NA,NA,NA,NA,NA,NA,NA,NA,NA,NA,NA,NA,NA,NA
"252","stim/objects/HouseObjects/basket2.png",359,72,352,0.3,"stim/11.jpeg",1,1,2,1,"HouseObjects",1,2,"left","right",0.594000101,0,0,1,0,141,72,1,0.3,1,"stim/11.jpeg",1,1,"stim/11.jpeg",2,"right",0.717999935,2,3,1.05099988,4,1.064999819,141,0,0,NA,0,NA,0
"527","stim/objects/Instruments/grandpiano.png",360,72,353,0.9,"stim/31.jpeg",3,1,3,2,"Instruments",2,2,"right","right",0.444000006,1,1,1,0,NA,NA,NA,NA,NA,NA,NA,NA,NA,NA,NA,NA,NA,NA,NA,NA,NA,NA,NA,NA,NA,NA,NA,NA
"296","stim/objects/HouseObjects/doormat.png",361,72,354,0.9,"stim/42.jpeg",4,2,3,2,"HouseObjects",1,1,"left","left",0.645000219,1,1,1,0,NA,NA,NA,NA,NA,NA,NA,NA,NA,NA,NA,NA,NA,NA,NA,NA,NA,NA,NA,NA,NA,NA,NA,NA
"432","stim/objects/Instruments/clarinet2.png",362,72,355,0.3,"stim/21.jpeg",2,1,2,1,"Instruments",2,1,"right","left",0.588000298,0,0,1,0,189,72,1,0.3,2,"stim/21.jpeg",2,1,"stim/21.jpeg",1,"right",0.782999992,2,1,1.3349998,4,2.921000004,189,0,1,NA,0,NA,0
"444","stim/objects/Instruments/drums.png",363,72,356,0.7,"stim/13.jpeg",1,3,2,2,"Instruments",2,2,"right","right",0.577000141,1,1,1,0,NA,NA,NA,NA,NA,NA,NA,NA,NA,NA,NA,NA,NA,NA,NA,NA,NA,NA,NA,NA,NA,NA,NA,NA
"559","stim/objects/Instruments/trombone.png",364,72,357,0.5,"stim/64.jpeg",6,4,1,1,"Instruments",2,1,"right","right",0.63499999,1,1,1,0,185,72,1,0.5,2,"stim/64.jpeg",6,4,"stim/64.jpeg",1,"right",1.287999868,2,3,1.760999918,4,0.864999771,185,0,0,NA,0,NA,0
"518","stim/objects/Instruments/gong.png",365,72,358,0.9,"stim/34.jpeg",3,4,3,2,"Instruments",2,3,"right","right",0.476000071,1,1,1,0,NA,NA,NA,NA,NA,NA,NA,NA,NA,NA,NA,NA,NA,NA,NA,NA,NA,NA,NA,NA,NA,NA,NA,NA
"288","stim/objects/HouseObjects/dishsoap.png",366,72,359,0.7,"stim/22.jpeg",2,2,2,2,"HouseObjects",1,2,"left","left",0.653000116,1,1,1,0,NA,NA,NA,NA,NA,NA,NA,NA,NA,NA,NA,NA,NA,NA,NA,NA,NA,NA,NA,NA,NA,NA,NA,NA
"568","stim/objects/Instruments/vuvuzela2.png",367,72,360,0.1,"stim/43.jpeg",4,3,3,1,"Instruments",2,3,"right","left",0.673000097,0,0,1,0,35,72,1,0.1,2,"stim/43.jpeg",4,3,"stim/43.jpeg",3,"left",1.796000004,1,1,0.769000053,4,2.338000059,35,1,0,0,0,0,0
"445","stim/objects/Instruments/drums.png",368,72,361,0.7,"stim/12.jpeg",1,2,2,2,"Instruments",2,4,"right","",NA,0,0,1,0,NA,NA,NA,NA,NA,NA,NA,NA,NA,NA,NA,NA,NA,NA,NA,NA,NA,NA,NA,NA,NA,NA,NA,NA
"379","stim/objects/HouseObjects/hairdryer2.png",369,72,362,0.1,"stim/33.jpeg",3,3,3,1,"HouseObjects",1,3,"left","right",0.55700016,0,0,1,0,101,72,1,0.1,1,"stim/33.jpeg",3,3,"stim/33.jpeg",3,"right",1.687999964,2,2,0.587999821,4,1.602999926,101,0,0,NA,0,NA,0
"533","stim/objects/Instruments/grandpiano.png",370,72,363,0.9,"stim/34.jpeg",3,4,3,2,"Instruments",2,4,"right","right",0.465000153,1,1,1,0,NA,NA,NA,NA,NA,NA,NA,NA,NA,NA,NA,NA,NA,NA,NA,NA,NA,NA,NA,NA,NA,NA,NA,NA
"507","stim/objects/Instruments/gong.png",371,72,364,0.9,"stim/31.jpeg",3,1,3,2,"Instruments",2,3,"right","right",0.49000001,1,1,1,0,NA,NA,NA,NA,NA,NA,NA,NA,NA,NA,NA,NA,NA,NA,NA,NA,NA,NA,NA,NA,NA,NA,NA,NA
"524","stim/objects/Instruments/grandpiano.png",372,72,365,0.9,"stim/31.jpeg",3,1,3,2,"Instruments",2,2,"right","right",0.485000134,1,1,1,0,NA,NA,NA,NA,NA,NA,NA,NA,NA,NA,NA,NA,NA,NA,NA,NA,NA,NA,NA,NA,NA,NA,NA,NA
"370","stim/objects/HouseObjects/glass.png",373,72,366,0.9,"stim/43.jpeg",4,3,3,2,"HouseObjects",1,2,"left","left",0.809000015,1,1,1,0,NA,NA,NA,NA,NA,NA,NA,NA,NA,NA,NA,NA,NA,NA,NA,NA,NA,NA,NA,NA,NA,NA,NA,NA
"436","stim/objects/Instruments/cymbal.png",374,72,367,0.7,"stim/13.jpeg",1,3,2,2,"Instruments",2,2,"right","right",0.625000238,1,1,1,0,NA,NA,NA,NA,NA,NA,NA,NA,NA,NA,NA,NA,NA,NA,NA,NA,NA,NA,NA,NA,NA,NA,NA,NA
"359","stim/objects/HouseObjects/glass.png",375,72,368,0.9,"stim/44.jpeg",4,4,3,2,"HouseObjects",1,2,"left","left",0.659000158,1,1,1,0,NA,NA,NA,NA,NA,NA,NA,NA,NA,NA,NA,NA,NA,NA,NA,NA,NA,NA,NA,NA,NA,NA,NA,NA
"525","stim/objects/Instruments/grandpiano.png",376,72,369,0.9,"stim/33.jpeg",3,3,3,2,"Instruments",2,4,"right","right",0.757000208,1,1,1,0,NA,NA,NA,NA,NA,NA,NA,NA,NA,NA,NA,NA,NA,NA,NA,NA,NA,NA,NA,NA,NA,NA,NA,NA
"279","stim/objects/HouseObjects/coffee.png",377,72,370,0.7,"stim/23.jpeg",2,3,2,2,"HouseObjects",1,3,"left","left",0.666000128,1,1,1,0,NA,NA,NA,NA,NA,NA,NA,NA,NA,NA,NA,NA,NA,NA,NA,NA,NA,NA,NA,NA,NA,NA,NA,NA
"490","stim/objects/Instruments/frenchhorn.png",378,72,371,0.9,"stim/31.jpeg",3,1,3,2,"Instruments",2,1,"right","right",0.595000029,1,1,1,0,NA,NA,NA,NA,NA,NA,NA,NA,NA,NA,NA,NA,NA,NA,NA,NA,NA,NA,NA,NA,NA,NA,NA,NA
"562","stim/objects/Instruments/trumpet2.png",379,72,372,0.1,"stim/44.jpeg",4,4,3,1,"Instruments",2,1,"right","left",0.712000132,0,0,1,0,177,72,1,0.1,2,"stim/44.jpeg",4,4,"stim/44.jpeg",1,"left",1.133000135,2,1,1.868000031,4,1.846999884,177,1,0,0,0,0,0
"343","stim/objects/HouseObjects/garbagebin.png",380,72,373,0.9,"stim/42.jpeg",4,2,3,2,"HouseObjects",1,4,"left","left",0.742000341,1,1,1,0,NA,NA,NA,NA,NA,NA,NA,NA,NA,NA,NA,NA,NA,NA,NA,NA,NA,NA,NA,NA,NA,NA,NA,NA
"566","stim/objects/Instruments/violin2.png",381,72,374,0.1,"stim/42.jpeg",4,2,3,1,"Instruments",2,2,"right","left",0.858999968,0,0,1,0,173,72,1,0.1,2,"stim/42.jpeg",4,2,"stim/42.jpeg",2,"right",2.467999935,2,2,0.844000101,4,1.000999928,173,0,1,NA,0,NA,0
"360","stim/objects/HouseObjects/glass.png",382,72,375,0.9,"stim/41.jpeg",4,1,3,2,"HouseObjects",1,2,"left","right",0.56400013,0,0,1,0,NA,NA,NA,NA,NA,NA,NA,NA,NA,NA,NA,NA,NA,NA,NA,NA,NA,NA,NA,NA,NA,NA,NA,NA
"316","stim/objects/HouseObjects/dustpan.png",383,72,376,0.9,"stim/44.jpeg",4,4,3,2,"HouseObjects",1,2,"left","left",0.549000263,1,1,1,0,NA,NA,NA,NA,NA,NA,NA,NA,NA,NA,NA,NA,NA,NA,NA,NA,NA,NA,NA,NA,NA,NA,NA,NA
"383","stim/objects/HouseObjects/handvacuum2.png",384,72,377,0.1,"stim/31.jpeg",3,1,3,1,"HouseObjects",1,2,"left","right",0.566000223,0,0,1,0,164,72,1,0.1,1,"stim/31.jpeg",3,1,"stim/31.jpeg",2,"left",1.236999989,2,3,1.054999828,4,0.869999886,164,1,0,0,0,0,0
"449","stim/objects/Instruments/electricdrumset.png",385,72,378,0.7,"stim/12.jpeg",1,2,2,2,"Instruments",2,1,"right","right",0.57400012,1,1,1,0,NA,NA,NA,NA,NA,NA,NA,NA,NA,NA,NA,NA,NA,NA,NA,NA,NA,NA,NA,NA,NA,NA,NA,NA
"439","stim/objects/Instruments/cymbal2.png",386,72,379,0.3,"stim/23.jpeg",2,3,2,1,"Instruments",2,4,"right","left",0.680999994,0,0,1,0,116,72,1,0.3,2,"stim/23.jpeg",2,3,"stim/23.jpeg",4,"left",3.417000055,2,2,0.648999929,3,1.312999964,116,1,0,0,0,0,0
"564","stim/objects/Instruments/tuba2.png",387,72,380,0.1,"stim/41.jpeg",4,1,3,1,"Instruments",2,3,"right","",NA,0,0,1,0,144,72,1,0.1,2,"stim/41.jpeg",4,1,"stim/41.jpeg",3,"right",2.200999975,2,3,0.94299984,4,1.318999767,144,0,0,NA,0,NA,0
"281","stim/objects/HouseObjects/coffee.png",388,72,381,0.7,"stim/21.jpeg",2,1,2,2,"HouseObjects",1,3,"left","left",0.711000204,1,1,1,0,NA,NA,NA,NA,NA,NA,NA,NA,NA,NA,NA,NA,NA,NA,NA,NA,NA,NA,NA,NA,NA,NA,NA,NA
"298","stim/objects/HouseObjects/doormat.png",389,72,382,0.9,"stim/42.jpeg",4,2,3,2,"HouseObjects",1,1,"left","left",0.571000099,1,1,1,0,NA,NA,NA,NA,NA,NA,NA,NA,NA,NA,NA,NA,NA,NA,NA,NA,NA,NA,NA,NA,NA,NA,NA,NA
"455","stim/objects/Instruments/electricguitar2.png",390,72,383,0.3,"stim/23.jpeg",2,3,2,1,"Instruments",2,1,"right","left",0.528000116,0,0,1,0,147,72,1,0.3,2,"stim/23.jpeg",2,3,"stim/23.jpeg",1,"left",0.932999849,2,3,0.789999962,4,1.40199995,147,1,1,1,0,0,0
"275","stim/objects/HouseObjects/clothespin.png",391,72,384,0.7,"stim/22.jpeg",2,2,2,2,"HouseObjects",1,1,"left","left",0.438000202,1,1,1,0,NA,NA,NA,NA,NA,NA,NA,NA,NA,NA,NA,NA,NA,NA,NA,NA,NA,NA,NA,NA,NA,NA,NA,NA
"241","stim/objects/HouseObjects/ashtray.png",392,72,385,0.5,"stim/52.jpeg",5,2,1,2,"HouseObjects",1,3,"left","right",0.801000118,0,0,1,0,NA,NA,NA,NA,NA,NA,NA,NA,NA,NA,NA,NA,NA,NA,NA,NA,NA,NA,NA,NA,NA,NA,NA,NA
"300","stim/objects/HouseObjects/doormat.png",393,72,386,0.9,"stim/42.jpeg",4,2,3,2,"HouseObjects",1,1,"left","left",0.676000118,1,1,1,0,NA,NA,NA,NA,NA,NA,NA,NA,NA,NA,NA,NA,NA,NA,NA,NA,NA,NA,NA,NA,NA,NA,NA,NA
"301","stim/objects/HouseObjects/doormat.png",394,72,387,0.9,"stim/42.jpeg",4,2,3,2,"HouseObjects",1,4,"left","left",0.599000216,1,1,1,0,NA,NA,NA,NA,NA,NA,NA,NA,NA,NA,NA,NA,NA,NA,NA,NA,NA,NA,NA,NA,NA,NA,NA,NA
"481","stim/objects/Instruments/flutetrans.png",395,72,388,0.9,"stim/33.jpeg",3,3,3,2,"Instruments",2,2,"right","right",0.541000128,1,1,1,0,NA,NA,NA,NA,NA,NA,NA,NA,NA,NA,NA,NA,NA,NA,NA,NA,NA,NA,NA,NA,NA,NA,NA,NA
"502","stim/objects/Instruments/frenchhorn.png",396,72,389,0.9,"stim/31.jpeg",3,1,3,2,"Instruments",2,2,"right","right",0.723000288,1,1,1,0,NA,NA,NA,NA,NA,NA,NA,NA,NA,NA,NA,NA,NA,NA,NA,NA,NA,NA,NA,NA,NA,NA,NA,NA
"466","stim/objects/Instruments/flute.png",397,72,390,0.9,"stim/32.jpeg",3,2,3,2,"Instruments",2,4,"right","right",0.606000185,1,1,1,0,NA,NA,NA,NA,NA,NA,NA,NA,NA,NA,NA,NA,NA,NA,NA,NA,NA,NA,NA,NA,NA,NA,NA,NA
"324","stim/objects/HouseObjects/dustpan2.png",398,72,391,0.1,"stim/32.jpeg",3,2,3,1,"HouseObjects",1,2,"left","right",0.517000198,0,0,1,0,46,72,1,0.1,1,"stim/32.jpeg",3,2,"stim/32.jpeg",2,"right",1.039999962,2,2,0.852999926,2,1.930999756,46,0,1,NA,1,NA,0
"452","stim/objects/Instruments/electricguitar.png",399,72,392,0.7,"stim/11.jpeg",1,1,2,2,"Instruments",2,2,"right","right",0.592000246,1,1,1,0,NA,NA,NA,NA,NA,NA,NA,NA,NA,NA,NA,NA,NA,NA,NA,NA,NA,NA,NA,NA,NA,NA,NA,NA
"280","stim/objects/HouseObjects/coffee.png",400,72,393,0.7,"stim/24.jpeg",2,4,2,2,"HouseObjects",1,4,"left","left",0.612000227,1,1,1,0,NA,NA,NA,NA,NA,NA,NA,NA,NA,NA,NA,NA,NA,NA,NA,NA,NA,NA,NA,NA,NA,NA,NA,NA
"397","stim/objects/HouseObjects/thermometer2.png",401,72,394,0.9,"stim/42.jpeg",4,2,3,1,"HouseObjects",1,1,"left","left",0.774000168,1,1,1,0,77,72,1,0.9,1,"stim/42.jpeg",4,2,"stim/42.jpeg",1,"right",2.181999922,3,2,2.332999945,3,1.132999897,77,0,1,NA,0,NA,0
"344","stim/objects/HouseObjects/garbagebin.png",402,72,395,0.9,"stim/41.jpeg",4,1,3,2,"HouseObjects",1,4,"left","",NA,0,0,1,0,NA,NA,NA,NA,NA,NA,NA,NA,NA,NA,NA,NA,NA,NA,NA,NA,NA,NA,NA,NA,NA,NA,NA,NA
"353","stim/objects/HouseObjects/garbagebin.png",403,72,396,0.9,"stim/41.jpeg",4,1,3,2,"HouseObjects",1,2,"left","left",0.46600008,1,1,1,0,NA,NA,NA,NA,NA,NA,NA,NA,NA,NA,NA,NA,NA,NA,NA,NA,NA,NA,NA,NA,NA,NA,NA,NA
"284","stim/objects/HouseObjects/cushion.png",404,72,397,0.7,"stim/22.jpeg",2,2,2,2,"HouseObjects",1,3,"left","left",0.620000124,1,1,1,0,NA,NA,NA,NA,NA,NA,NA,NA,NA,NA,NA,NA,NA,NA,NA,NA,NA,NA,NA,NA,NA,NA,NA,NA
"526","stim/objects/Instruments/grandpiano.png",405,72,398,0.9,"stim/32.jpeg",3,2,3,2,"Instruments",2,2,"right","",NA,0,0,1,0,NA,NA,NA,NA,NA,NA,NA,NA,NA,NA,NA,NA,NA,NA,NA,NA,NA,NA,NA,NA,NA,NA,NA,NA
"412","stim/objects/Instruments/balalaika.png",406,72,399,0.5,"stim/53.jpeg",5,3,1,2,"Instruments",2,4,"right","right",0.724000216,1,1,1,0,NA,NA,NA,NA,NA,NA,NA,NA,NA,NA,NA,NA,NA,NA,NA,NA,NA,NA,NA,NA,NA,NA,NA,NA
"256","stim/objects/HouseObjects/blender.png",407,72,400,0.5,"stim/64.jpeg",6,4,1,2,"HouseObjects",1,1,"left","right",0.580000162,0,0,1,0,NA,NA,NA,NA,NA,NA,NA,NA,NA,NA,NA,NA,NA,NA,NA,NA,NA,NA,NA,NA,NA,NA,NA,NA
"384","stim/objects/HouseObjects/safetypin.png",408,72,401,0.5,"stim/53.jpeg",5,3,1,1,"HouseObjects",1,3,"left","right",0.536000013,0,0,1,0,159,72,1,0.5,1,"stim/53.jpeg",5,3,"stim/53.jpeg",3,"right",2.088000059,2,4,1.122999907,4,1.521000147,159,0,0,NA,0,NA,0
"390","stim/objects/HouseObjects/sponge.png",409,72,402,0.5,"stim/63.jpeg",6,3,1,1,"HouseObjects",1,1,"left","right",0.570000172,0,0,1,0,71,72,1,0.5,2,"stim/63.jpeg",6,3,"stim/63.jpeg",1,"right",0.888999939,2,1,1.823999882,3,1.287999868,71,0,0,NA,0,NA,0
"423","stim/objects/Instruments/bassguitar2.png",410,72,403,0.3,"stim/22.jpeg",2,2,2,1,"Instruments",2,4,"right","left",0.59800005,0,0,1,0,81,72,1,0.3,2,"stim/22.jpeg",2,2,"stim/22.jpeg",4,"right",1.730000019,2,2,0.536999941,3,1.010999918,81,0,1,NA,0,NA,0
"260","stim/objects/HouseObjects/bottle.png",411,72,404,0.5,"stim/64.jpeg",6,4,1,2,"HouseObjects",1,3,"left","right",0.537000179,0,0,1,0,NA,NA,NA,NA,NA,NA,NA,NA,NA,NA,NA,NA,NA,NA,NA,NA,NA,NA,NA,NA,NA,NA,NA,NA
"283","stim/objects/HouseObjects/cushion.png",412,72,405,0.7,"stim/21.jpeg",2,1,2,2,"HouseObjects",1,2,"left","left",0.589000225,1,1,1,0,NA,NA,NA,NA,NA,NA,NA,NA,NA,NA,NA,NA,NA,NA,NA,NA,NA,NA,NA,NA,NA,NA,NA,NA
"311","stim/objects/HouseObjects/dustpan.png",413,72,406,0.9,"stim/44.jpeg",4,4,3,2,"HouseObjects",1,3,"left","",NA,0,0,1,0,NA,NA,NA,NA,NA,NA,NA,NA,NA,NA,NA,NA,NA,NA,NA,NA,NA,NA,NA,NA,NA,NA,NA,NA
"431","stim/objects/Instruments/clarinet.png",414,72,407,0.5,"stim/61.jpeg",6,1,1,2,"Instruments",2,4,"right","right",0.499000072,1,1,1,0,NA,NA,NA,NA,NA,NA,NA,NA,NA,NA,NA,NA,NA,NA,NA,NA,NA,NA,NA,NA,NA,NA,NA,NA
"351","stim/objects/HouseObjects/garbagebin.png",415,72,408,0.9,"stim/41.jpeg",4,1,3,2,"HouseObjects",1,4,"left","left",0.582000256,1,1,1,0,NA,NA,NA,NA,NA,NA,NA,NA,NA,NA,NA,NA,NA,NA,NA,NA,NA,NA,NA,NA,NA,NA,NA,NA
"463","stim/objects/Instruments/flute.png",416,72,409,0.9,"stim/31.jpeg",3,1,3,2,"Instruments",2,2,"right","left",0.885000229,0,0,1,0,NA,NA,NA,NA,NA,NA,NA,NA,NA,NA,NA,NA,NA,NA,NA,NA,NA,NA,NA,NA,NA,NA,NA,NA
"402","stim/objects/HouseObjects/vacuumcleaner.png",417,72,410,0.3,"stim/14.jpeg",1,4,2,1,"HouseObjects",1,1,"left","right",0.659000158,0,0,1,0,49,72,1,0.3,1,"stim/14.jpeg",1,4,"stim/14.jpeg",1,"right",1.542000055,2,3,3.247999907,4,2.816999912,49,0,0,NA,0,NA,0
"349","stim/objects/HouseObjects/garbagebin.png",418,72,411,0.9,"stim/43.jpeg",4,3,3,2,"HouseObjects",1,3,"left","left",0.61500001,1,1,1,0,NA,NA,NA,NA,NA,NA,NA,NA,NA,NA,NA,NA,NA,NA,NA,NA,NA,NA,NA,NA,NA,NA,NA,NA
"552","stim/objects/Instruments/speaker2.png",419,72,412,0.1,"stim/43.jpeg",4,3,3,1,"Instruments",2,1,"right","left",0.650000095,0,0,1,0,5,72,1,0.1,2,"stim/43.jpeg",4,3,"stim/43.jpeg",1,"right",1.315999746,2,1,2.080000162,3,1.457999945,5,0,0,NA,0,NA,0
"560","stim/objects/Instruments/trombone2.png",420,72,413,0.1,"stim/43.jpeg",4,3,3,1,"Instruments",2,4,"right","left",0.481000185,0,0,1,0,23,72,1,0.1,2,"stim/43.jpeg",4,3,"stim/43.jpeg",4,"left",1.921000004,2,2,0.939999819,3,2.329999924,23,1,0,0,0,0,0
"334","stim/objects/HouseObjects/flyswatter.png",421,72,414,0.9,"stim/41.jpeg",4,1,3,2,"HouseObjects",1,1,"left","left",0.691000223,1,1,1,0,NA,NA,NA,NA,NA,NA,NA,NA,NA,NA,NA,NA,NA,NA,NA,NA,NA,NA,NA,NA,NA,NA,NA,NA
"257","stim/objects/HouseObjects/blender.png",422,72,415,0.5,"stim/63.jpeg",6,3,1,2,"HouseObjects",1,4,"left","right",0.762000322,0,0,1,0,NA,NA,NA,NA,NA,NA,NA,NA,NA,NA,NA,NA,NA,NA,NA,NA,NA,NA,NA,NA,NA,NA,NA,NA
"294","stim/objects/HouseObjects/doormat.png",423,72,416,0.9,"stim/44.jpeg",4,4,3,2,"HouseObjects",1,2,"left","left",0.572000027,1,1,1,0,NA,NA,NA,NA,NA,NA,NA,NA,NA,NA,NA,NA,NA,NA,NA,NA,NA,NA,NA,NA,NA,NA,NA,NA
"563","stim/objects/Instruments/tuba.png",424,72,417,0.7,"stim/13.jpeg",1,3,2,1,"Instruments",2,3,"right","right",0.53000021,1,1,1,0,167,72,1,0.7,2,"stim/13.jpeg",1,3,"stim/13.jpeg",3,"right",0.911999941,2,2,0.81799984,4,1.051999807,167,0,0,NA,0,NA,0
"265","stim/objects/HouseObjects/bucket.png",425,72,418,0.5,"stim/63.jpeg",6,3,1,2,"HouseObjects",1,2,"left","left",0.811000109,1,1,1,0,NA,NA,NA,NA,NA,NA,NA,NA,NA,NA,NA,NA,NA,NA,NA,NA,NA,NA,NA,NA,NA,NA,NA,NA
"278","stim/objects/HouseObjects/clothespin2.png",426,72,419,0.7,"stim/22.jpeg",2,2,2,1,"HouseObjects",1,3,"left","left",0.696000099,1,1,1,0,118,72,1,0.7,1,"stim/22.jpeg",2,2,"stim/22.jpeg",3,"right",1.135999918,2,2,0.597999811,2,0.970000029,118,0,1,NA,0,NA,0
"430","stim/objects/Instruments/clarinet.png",427,72,420,0.5,"stim/62.jpeg",6,2,1,2,"Instruments",2,2,"right","right",0.472000122,1,1,1,0,NA,NA,NA,NA,NA,NA,NA,NA,NA,NA,NA,NA,NA,NA,NA,NA,NA,NA,NA,NA,NA,NA,NA,NA
"409","stim/objects/Instruments/acousticguitar.png",428,72,421,0.5,"stim/52.jpeg",5,2,1,2,"Instruments",2,1,"right","right",0.472000122,1,1,1,0,NA,NA,NA,NA,NA,NA,NA,NA,NA,NA,NA,NA,NA,NA,NA,NA,NA,NA,NA,NA,NA,NA,NA,NA
"407","stim/objects/Instruments/accordion.png",429,72,422,0.5,"stim/51.jpeg",5,1,1,2,"Instruments",2,2,"right","right",0.550000191,1,1,1,0,NA,NA,NA,NA,NA,NA,NA,NA,NA,NA,NA,NA,NA,NA,NA,NA,NA,NA,NA,NA,NA,NA,NA,NA
"465","stim/objects/Instruments/flute.png",430,72,423,0.9,"stim/32.jpeg",3,2,3,2,"Instruments",2,2,"right","right",0.611000299,1,1,1,0,NA,NA,NA,NA,NA,NA,NA,NA,NA,NA,NA,NA,NA,NA,NA,NA,NA,NA,NA,NA,NA,NA,NA,NA
"536","stim/objects/Instruments/grandpiano.png",431,72,424,0.9,"stim/32.jpeg",3,2,3,2,"Instruments",2,3,"right","right",0.784000158,1,1,1,0,NA,NA,NA,NA,NA,NA,NA,NA,NA,NA,NA,NA,NA,NA,NA,NA,NA,NA,NA,NA,NA,NA,NA,NA
"356","stim/objects/HouseObjects/garbagebin.png",432,72,425,0.9,"stim/41.jpeg",4,1,3,2,"HouseObjects",1,3,"left","left",0.594000101,1,1,1,0,NA,NA,NA,NA,NA,NA,NA,NA,NA,NA,NA,NA,NA,NA,NA,NA,NA,NA,NA,NA,NA,NA,NA,NA
"424","stim/objects/Instruments/cello.png",433,72,426,0.5,"stim/63.jpeg",6,3,1,2,"Instruments",2,1,"right","right",0.642000198,1,1,1,0,NA,NA,NA,NA,NA,NA,NA,NA,NA,NA,NA,NA,NA,NA,NA,NA,NA,NA,NA,NA,NA,NA,NA,NA
"510","stim/objects/Instruments/gong.png",434,72,427,0.9,"stim/31.jpeg",3,1,3,2,"Instruments",2,4,"right","",NA,0,0,1,0,NA,NA,NA,NA,NA,NA,NA,NA,NA,NA,NA,NA,NA,NA,NA,NA,NA,NA,NA,NA,NA,NA,NA,NA
"447","stim/objects/Instruments/drums2.png",435,72,428,0.3,"stim/21.jpeg",2,1,2,1,"Instruments",2,3,"right","left",0.736000299,0,0,1,0,64,72,1,0.3,2,"stim/21.jpeg",2,1,"stim/21.jpeg",3,"left",1.564999819,3,3,5.830999851,4,2.02699995,64,1,0,0,0,0,0
"484","stim/objects/Instruments/flutetrans.png",436,72,429,0.9,"stim/34.jpeg",3,4,3,2,"Instruments",2,4,"right","right",0.591000319,1,1,1,0,NA,NA,NA,NA,NA,NA,NA,NA,NA,NA,NA,NA,NA,NA,NA,NA,NA,NA,NA,NA,NA,NA,NA,NA
"468","stim/objects/Instruments/flute.png",437,72,430,0.9,"stim/34.jpeg",3,4,3,2,"Instruments",2,4,"right","right",0.749000072,1,1,1,0,NA,NA,NA,NA,NA,NA,NA,NA,NA,NA,NA,NA,NA,NA,NA,NA,NA,NA,NA,NA,NA,NA,NA,NA
"302","stim/objects/HouseObjects/doormat.png",438,72,431,0.9,"stim/43.jpeg",4,3,3,2,"HouseObjects",1,3,"left","left",0.575000048,1,1,1,0,NA,NA,NA,NA,NA,NA,NA,NA,NA,NA,NA,NA,NA,NA,NA,NA,NA,NA,NA,NA,NA,NA,NA,NA
"357","stim/objects/HouseObjects/garbagebin.png",439,72,432,0.9,"stim/44.jpeg",4,4,3,2,"HouseObjects",1,3,"left","left",0.65500021,1,1,1,0,NA,NA,NA,NA,NA,NA,NA,NA,NA,NA,NA,NA,NA,NA,NA,NA,NA,NA,NA,NA,NA,NA,NA,NA
"519","stim/objects/Instruments/gong.png",440,72,433,0.9,"stim/33.jpeg",3,3,3,2,"Instruments",2,3,"right","right",0.588000059,1,1,1,0,NA,NA,NA,NA,NA,NA,NA,NA,NA,NA,NA,NA,NA,NA,NA,NA,NA,NA,NA,NA,NA,NA,NA,NA
"352","stim/objects/HouseObjects/garbagebin.png",441,72,434,0.9,"stim/42.jpeg",4,2,3,2,"HouseObjects",1,1,"left","left",0.571000099,1,1,1,0,NA,NA,NA,NA,NA,NA,NA,NA,NA,NA,NA,NA,NA,NA,NA,NA,NA,NA,NA,NA,NA,NA,NA,NA
"398","stim/objects/HouseObjects/thread.png",442,72,435,0.3,"stim/12.jpeg",1,2,2,1,"HouseObjects",1,3,"left","right",0.570000172,0,0,1,0,154,72,1,0.3,1,"stim/12.jpeg",1,2,"stim/12.jpeg",3,"right",0.879999876,2,2,1.049000025,4,1.352999926,154,0,1,NA,0,NA,0
"319","stim/objects/HouseObjects/dustpan.png",443,72,436,0.9,"stim/41.jpeg",4,1,3,2,"HouseObjects",1,2,"left","left",0.643000126,1,1,1,0,NA,NA,NA,NA,NA,NA,NA,NA,NA,NA,NA,NA,NA,NA,NA,NA,NA,NA,NA,NA,NA,NA,NA,NA
"556","stim/objects/Instruments/timbal2.png",444,72,437,0.1,"stim/41.jpeg",4,1,3,1,"Instruments",2,1,"right","left",0.509000063,0,0,1,0,70,72,1,0.1,2,"stim/41.jpeg",4,1,"stim/41.jpeg",1,"left",0.987999916,3,3,1.243000031,4,1.964999914,70,1,0,0,0,0,0
"394","stim/objects/HouseObjects/teapot.png",445,72,438,0.5,"stim/61.jpeg",6,1,1,1,"HouseObjects",1,1,"left","right",0.448000193,0,0,1,0,93,72,1,0.5,2,"stim/61.jpeg",6,1,"stim/61.jpeg",1,"right",0.818999767,1,2,1.101999998,4,0.854999781,93,0,0,NA,0,NA,0
"304","stim/objects/HouseObjects/doormat.png",446,72,439,0.9,"stim/44.jpeg",4,4,3,2,"HouseObjects",1,1,"left","left",0.585000277,1,1,1,0,NA,NA,NA,NA,NA,NA,NA,NA,NA,NA,NA,NA,NA,NA,NA,NA,NA,NA,NA,NA,NA,NA,NA,NA
"243","stim/objects/HouseObjects/ashtray2.png",447,72,440,0.3,"stim/12.jpeg",1,2,2,1,"HouseObjects",1,2,"left","right",0.511000156,0,0,1,0,12,72,1,0.3,1,"stim/12.jpeg",1,2,"stim/12.jpeg",2,"right",1.332999945,2,3,1.904000044,4,1.35800004,12,0,0,NA,0,NA,0
"289","stim/objects/HouseObjects/dishsoap.png",448,72,441,0.7,"stim/23.jpeg",2,3,2,2,"HouseObjects",1,1,"left","right",0.634000063,0,0,1,0,NA,NA,NA,NA,NA,NA,NA,NA,NA,NA,NA,NA,NA,NA,NA,NA,NA,NA,NA,NA,NA,NA,NA,NA
"245","stim/objects/HouseObjects/ballofstring.png",449,72,442,0.5,"stim/53.jpeg",5,3,1,2,"HouseObjects",1,3,"left","right",0.558000088,0,0,1,0,NA,NA,NA,NA,NA,NA,NA,NA,NA,NA,NA,NA,NA,NA,NA,NA,NA,NA,NA,NA,NA,NA,NA,NA
"303","stim/objects/HouseObjects/doormat.png",450,72,443,0.9,"stim/41.jpeg",4,1,3,2,"HouseObjects",1,2,"left","left",0.556000233,1,1,1,0,NA,NA,NA,NA,NA,NA,NA,NA,NA,NA,NA,NA,NA,NA,NA,NA,NA,NA,NA,NA,NA,NA,NA,NA
"521","stim/objects/Instruments/gong.png",451,72,444,0.9,"stim/33.jpeg",3,3,3,2,"Instruments",2,2,"right","right",0.520000219,1,1,1,0,NA,NA,NA,NA,NA,NA,NA,NA,NA,NA,NA,NA,NA,NA,NA,NA,NA,NA,NA,NA,NA,NA,NA,NA
"514","stim/objects/Instruments/gong.png",452,72,445,0.9,"stim/34.jpeg",3,4,3,2,"Instruments",2,4,"right","right",0.526000261,1,1,1,0,NA,NA,NA,NA,NA,NA,NA,NA,NA,NA,NA,NA,NA,NA,NA,NA,NA,NA,NA,NA,NA,NA,NA,NA
"272","stim/objects/HouseObjects/clothesdryingrack.png",453,72,446,0.7,"stim/21.jpeg",2,1,2,2,"HouseObjects",1,1,"left","left",0.588000059,1,1,1,0,NA,NA,NA,NA,NA,NA,NA,NA,NA,NA,NA,NA,NA,NA,NA,NA,NA,NA,NA,NA,NA,NA,NA,NA
"476","stim/objects/Instruments/flutetrans.png",454,72,447,0.9,"stim/32.jpeg",3,2,3,2,"Instruments",2,1,"right","right",0.695000172,1,1,1,0,NA,NA,NA,NA,NA,NA,NA,NA,NA,NA,NA,NA,NA,NA,NA,NA,NA,NA,NA,NA,NA,NA,NA,NA
"477","stim/objects/Instruments/flutetrans.png",455,72,448,0.9,"stim/34.jpeg",3,4,3,2,"Instruments",2,4,"right","right",0.592000246,1,1,1,0,NA,NA,NA,NA,NA,NA,NA,NA,NA,NA,NA,NA,NA,NA,NA,NA,NA,NA,NA,NA,NA,NA,NA,NA
"504","stim/objects/Instruments/frenchhorn.png",456,72,449,0.9,"stim/32.jpeg",3,2,3,2,"Instruments",2,2,"right","right",0.509000063,1,1,1,0,NA,NA,NA,NA,NA,NA,NA,NA,NA,NA,NA,NA,NA,NA,NA,NA,NA,NA,NA,NA,NA,NA,NA,NA
"478","stim/objects/Instruments/flutetrans.png",457,72,450,0.9,"stim/32.jpeg",3,2,3,2,"Instruments",2,1,"right","right",0.517000198,1,1,1,0,NA,NA,NA,NA,NA,NA,NA,NA,NA,NA,NA,NA,NA,NA,NA,NA,NA,NA,NA,NA,NA,NA,NA,NA
"401","stim/objects/HouseObjects/towel2.png",458,72,451,0.9,"stim/44.jpeg",4,4,3,1,"HouseObjects",1,3,"left","left",0.63100028,1,1,1,0,175,72,1,0.9,1,"stim/44.jpeg",4,4,"stim/44.jpeg",3,"right",0.950999975,2,3,1.981999874,4,0.737999916,175,0,0,NA,0,NA,0
"443","stim/objects/Instruments/doublebass2.png",459,72,452,0.3,"stim/24.jpeg",2,4,2,1,"Instruments",2,3,"right","left",0.585000038,0,0,1,0,151,72,1,0.3,2,"stim/24.jpeg",2,4,"stim/24.jpeg",3,"left",1.338999987,3,3,0.996999979,4,1.234999895,151,1,0,0,0,0,0
"479","stim/objects/Instruments/flutetrans.png",460,72,453,0.9,"stim/34.jpeg",3,4,3,2,"Instruments",2,3,"right","right",0.560000181,1,1,1,0,NA,NA,NA,NA,NA,NA,NA,NA,NA,NA,NA,NA,NA,NA,NA,NA,NA,NA,NA,NA,NA,NA,NA,NA
"405","stim/objects/HouseObjects/wateringcan2.png",461,72,454,0.9,"stim/42.jpeg",4,2,3,1,"HouseObjects",1,4,"left","left",0.640000105,1,1,1,0,111,72,1,0.9,1,"stim/42.jpeg",4,2,"stim/42.jpeg",4,"right",1.470999956,2,2,0.988999844,4,1.467999935,111,0,1,NA,1,NA,0
"339","stim/objects/HouseObjects/flyswatter.png",462,72,455,0.9,"stim/44.jpeg",4,4,3,2,"HouseObjects",1,3,"left","left",0.562000275,1,1,1,0,NA,NA,NA,NA,NA,NA,NA,NA,NA,NA,NA,NA,NA,NA,NA,NA,NA,NA,NA,NA,NA,NA,NA,NA
"450","stim/objects/Instruments/electricdrumset.png",463,72,456,0.7,"stim/14.jpeg",1,4,2,2,"Instruments",2,2,"right","right",0.593000174,1,1,1,0,NA,NA,NA,NA,NA,NA,NA,NA,NA,NA,NA,NA,NA,NA,NA,NA,NA,NA,NA,NA,NA,NA,NA,NA
"522","stim/objects/Instruments/gong.png",464,72,457,0.9,"stim/32.jpeg",3,2,3,2,"Instruments",2,4,"right","right",0.636000156,1,1,1,0,NA,NA,NA,NA,NA,NA,NA,NA,NA,NA,NA,NA,NA,NA,NA,NA,NA,NA,NA,NA,NA,NA,NA,NA
"485","stim/objects/Instruments/flutetrans.png",465,72,458,0.9,"stim/33.jpeg",3,3,3,2,"Instruments",2,3,"right","right",0.421000242,1,1,1,0,NA,NA,NA,NA,NA,NA,NA,NA,NA,NA,NA,NA,NA,NA,NA,NA,NA,NA,NA,NA,NA,NA,NA,NA
"464","stim/objects/Instruments/flute.png",466,72,459,0.9,"stim/31.jpeg",3,1,3,2,"Instruments",2,4,"right","right",0.419000149,1,1,1,0,NA,NA,NA,NA,NA,NA,NA,NA,NA,NA,NA,NA,NA,NA,NA,NA,NA,NA,NA,NA,NA,NA,NA,NA
"546","stim/objects/Instruments/harp2.png",467,72,460,0.9,"stim/32.jpeg",3,2,3,1,"Instruments",2,1,"right","right",0.508000135,1,1,1,0,143,72,1,0.9,2,"stim/32.jpeg",3,2,"stim/32.jpeg",1,"left",1.123999834,3,3,1.470000029,2,0.970999956,143,1,0,0,0,0,0
"382","stim/objects/HouseObjects/handvacuum.png",468,72,461,0.5,"stim/52.jpeg",5,2,1,1,"HouseObjects",1,4,"left","right",0.792000294,0,0,1,0,83,72,1,0.5,1,"stim/52.jpeg",5,2,"stim/52.jpeg",4,"left",1.426000118,2,2,1.915999889,1,1.303999901,83,1,1,1,0,0,0
"338","stim/objects/HouseObjects/flyswatter.png",469,72,462,0.9,"stim/44.jpeg",4,4,3,2,"HouseObjects",1,3,"left","left",0.600000143,1,1,1,0,NA,NA,NA,NA,NA,NA,NA,NA,NA,NA,NA,NA,NA,NA,NA,NA,NA,NA,NA,NA,NA,NA,NA,NA
