"","participant","trial_index","trial_cond","scn_file","scn_cat","scn_inst","scn_condition","fillers","obj_cat","obj_cat_num","obj_file","quadrant","corr_ans","key_resp_trial.keys","key_resp_trial.rt","trial_acc","trial_acc_manual","group"
"1",72,1,0.9,"stim/41.jpeg",4,1,3,NA,"HouseObjects",1,"stim/objects/HouseObjects/recyclingbin2.png",2,"left","",NA,0,0,0
"2",72,2,0.7,"stim/11.jpeg",1,1,2,NA,"Instruments",2,"stim/objects/Instruments/panflute.png",1,"right","right",0.666000128,1,1,0
"3",72,3,0.9,"stim/33.jpeg",3,3,3,NA,"Instruments",2,"stim/objects/Instruments/musicstand2.png",2,"right","",NA,0,0,0
"4",72,4,0.3,"stim/21.jpeg",2,1,2,NA,"Instruments",2,"stim/objects/Instruments/keyboard2.png",4,"right","left",0.611999989,0,0,0
"5",72,5,0.5,"stim/54.jpeg",5,4,1,NA,"Instruments",2,"stim/objects/Instruments/marimba.png",3,"right","",NA,0,0,0
"6",72,6,0.5,"stim/61.jpeg",6,1,1,NA,"Instruments",2,"stim/objects/Instruments/metronome.png",3,"right","right",0.730000257,1,1,0
"7",72,7,0.9,"stim/34.jpeg",3,4,3,NA,"Instruments",2,"stim/objects/Instruments/oboe2.png",3,"right","right",0.637000084,1,1,0
"8",72,8,0.9,"stim/42.jpeg",4,2,3,NA,"HouseObjects",1,"stim/objects/HouseObjects/remote2.png",1,"left","left",0.613000154,1,1,0
"9",72,9,0.9,"stim/33.jpeg",3,3,3,NA,"Instruments",2,"stim/objects/Instruments/musicstand2.png",4,"right","",NA,0,0,0
"10",72,10,0.9,"stim/31.jpeg",3,1,3,NA,"Instruments",2,"stim/objects/Instruments/metronome2.png",3,"right","left",0.656000137,0,0,0
"11",72,11,0.7,"stim/23.jpeg",2,3,2,NA,"HouseObjects",1,"stim/objects/HouseObjects/key2.png",2,"left","left",0.633000374,1,1,0
"12",72,12,0.7,"stim/13.jpeg",1,3,2,NA,"Instruments",2,"stim/objects/Instruments/record.png",1,"right","right",0.629000187,1,1,0
"13",72,13,0.7,"stim/22.jpeg",2,2,2,NA,"HouseObjects",1,"stim/objects/HouseObjects/ironingboard2.png",3,"left","left",0.704000235,1,1,0
"14",72,14,0.5,"stim/51.jpeg",5,1,1,NA,"HouseObjects",1,"stim/objects/HouseObjects/iron.png",1,"left","right",0.60800004,0,0,0
"15",72,15,0.3,"stim/12.jpeg",1,2,2,NA,"HouseObjects",1,"stim/objects/HouseObjects/remote.png",2,"left","right",0.735000134,0,0,0
"16",72,16,0.5,"stim/52.jpeg",5,2,1,NA,"Instruments",2,"stim/objects/Instruments/laud.png",3,"right","left",0.573000193,0,0,0
"17",72,17,0.5,"stim/52.jpeg",5,2,1,NA,"HouseObjects",1,"stim/objects/HouseObjects/ironingboard.png",2,"left","right",0.765000343,0,0,0
"18",72,18,0.3,"stim/22.jpeg",2,2,2,NA,"Instruments",2,"stim/objects/Instruments/laud2.png",4,"right","left",0.560000181,0,0,0
"19",72,19,0.5,"stim/63.jpeg",6,3,1,NA,"HouseObjects",1,"stim/objects/HouseObjects/pan.png",4,"left","right",0.633000135,0,0,0
"20",72,20,0.7,"stim/21.jpeg",2,1,2,NA,"HouseObjects",1,"stim/objects/HouseObjects/iron2.png",1,"left","left",0.56400013,1,1,0
"21",72,21,0.7,"stim/24.jpeg",2,4,2,NA,"HouseObjects",1,"stim/objects/HouseObjects/knife2.png",2,"left","left",0.630000114,1,1,0
"22",72,22,0.5,"stim/51.jpeg",5,1,1,NA,"Instruments",2,"stim/objects/Instruments/keyboard.png",1,"right","right",0.699000359,1,1,0
"23",72,23,0.3,"stim/22.jpeg",2,2,2,NA,"Instruments",2,"stim/objects/Instruments/laud2.png",3,"right","left",0.56400013,0,0,0
"24",72,24,0.9,"stim/43.jpeg",4,3,3,NA,"HouseObjects",1,"stim/objects/HouseObjects/rubbergloves2.png",1,"left","left",0.67200017,1,1,0
"25",72,25,0.5,"stim/54.jpeg",5,4,1,NA,"HouseObjects",1,"stim/objects/HouseObjects/knife.png",4,"left","right",0.812000275,0,0,0
"26",72,26,0.5,"stim/52.jpeg",5,2,1,NA,"HouseObjects",1,"stim/objects/HouseObjects/ironingboard.png",3,"left","left",0.75600028,1,1,0
"27",72,27,0.7,"stim/24.jpeg",2,4,2,NA,"HouseObjects",1,"stim/objects/HouseObjects/knife2.png",4,"left","left",0.674000263,1,1,0
"28",72,28,0.3,"stim/14.jpeg",1,4,2,NA,"HouseObjects",1,"stim/objects/HouseObjects/rug.png",3,"left","",NA,0,0,0
"29",72,29,0.5,"stim/63.jpeg",6,3,1,NA,"HouseObjects",1,"stim/objects/HouseObjects/pan.png",4,"left","right",0.646000147,0,0,0
"30",72,30,0.5,"stim/54.jpeg",5,4,1,NA,"Instruments",2,"stim/objects/Instruments/marimba.png",2,"right","right",0.760000229,1,1,0
"31",72,31,0.5,"stim/62.jpeg",6,2,1,NA,"Instruments",2,"stim/objects/Instruments/musicsheet.png",2,"right","right",0.620000124,1,1,0
"32",72,32,0.9,"stim/43.jpeg",4,3,3,NA,"HouseObjects",1,"stim/objects/HouseObjects/rubbergloves2.png",3,"left","left",0.671000242,1,1,0
"33",72,33,0.9,"stim/31.jpeg",3,1,3,NA,"Instruments",2,"stim/objects/Instruments/metronome2.png",3,"right","right",0.569000006,1,1,0
"34",72,34,0.5,"stim/52.jpeg",5,2,1,NA,"HouseObjects",1,"stim/objects/HouseObjects/ironingboard.png",1,"left","",NA,0,0,0
"35",72,35,0.5,"stim/61.jpeg",6,1,1,NA,"Instruments",2,"stim/objects/Instruments/metronome.png",2,"right","right",0.705000162,1,1,0
"36",72,36,0.5,"stim/64.jpeg",6,4,1,NA,"Instruments",2,"stim/objects/Instruments/oboe.png",2,"right","right",0.611999989,1,1,0
"37",72,37,0.9,"stim/42.jpeg",4,2,3,NA,"HouseObjects",1,"stim/objects/HouseObjects/remote2.png",2,"left","left",0.52699995,1,1,0
"38",72,38,0.9,"stim/41.jpeg",4,1,3,NA,"HouseObjects",1,"stim/objects/HouseObjects/recyclingbin2.png",1,"left","left",0.579000235,1,1,0
"39",72,39,0.5,"stim/51.jpeg",5,1,1,NA,"Instruments",2,"stim/objects/Instruments/keyboard.png",4,"right","",NA,0,0,0
"40",72,40,0.9,"stim/44.jpeg",4,4,3,NA,"HouseObjects",1,"stim/objects/HouseObjects/rug2.png",2,"left","left",0.625000238,1,1,0
"41",72,41,0.9,"stim/31.jpeg",3,1,3,NA,"Instruments",2,"stim/objects/Instruments/metronome2.png",2,"right","right",0.618000031,1,1,0
"42",72,42,0.7,"stim/14.jpeg",1,4,2,NA,"Instruments",2,"stim/objects/Instruments/record_player.png",4,"right","right",0.675000191,1,1,0
"43",72,43,0.5,"stim/53.jpeg",5,3,1,NA,"HouseObjects",1,"stim/objects/HouseObjects/key.png",3,"left","",NA,0,0,0
"44",72,44,0.7,"stim/23.jpeg",2,3,2,NA,"HouseObjects",1,"stim/objects/HouseObjects/key2.png",2,"left","left",0.572000265,1,1,0
"45",72,45,0.3,"stim/24.jpeg",2,4,2,NA,"Instruments",2,"stim/objects/Instruments/marimba2.png",3,"right","left",0.587000132,0,0,0
"46",72,46,0.5,"stim/62.jpeg",6,2,1,NA,"HouseObjects",1,"stim/objects/HouseObjects/match.png",1,"left","right",0.599000216,0,0,0
"47",72,47,0.5,"stim/62.jpeg",6,2,1,NA,"Instruments",2,"stim/objects/Instruments/musicsheet.png",1,"right","right",0.414999962,1,1,0
"48",72,48,0.3,"stim/13.jpeg",1,3,2,NA,"HouseObjects",1,"stim/objects/HouseObjects/rubbergloves.png",1,"left","right",0.565000057,0,0,0
"49",72,49,0.5,"stim/53.jpeg",5,3,1,NA,"Instruments",2,"stim/objects/Instruments/maraca.png",3,"right","right",0.678000212,1,1,0
"50",72,50,0.5,"stim/61.jpeg",6,1,1,NA,"Instruments",2,"stim/objects/Instruments/metronome.png",1,"right","right",0.681000233,1,1,0
"51",72,51,0.5,"stim/53.jpeg",5,3,1,NA,"Instruments",2,"stim/objects/Instruments/maraca.png",4,"right","right",0.607000351,1,1,0
"52",72,52,0.9,"stim/42.jpeg",4,2,3,NA,"HouseObjects",1,"stim/objects/HouseObjects/remote2.png",1,"left","left",0.590000153,1,1,0
"53",72,53,0.9,"stim/43.jpeg",4,3,3,NA,"HouseObjects",1,"stim/objects/HouseObjects/rubbergloves2.png",4,"left","left",0.635000229,1,1,0
"54",72,54,0.9,"stim/44.jpeg",4,4,3,NA,"HouseObjects",1,"stim/objects/HouseObjects/rug2.png",4,"left","left",0.447000265,1,1,0
"55",72,55,0.7,"stim/24.jpeg",2,4,2,NA,"HouseObjects",1,"stim/objects/HouseObjects/knife2.png",3,"left","left",0.607000113,1,1,0
"56",72,56,0.1,"stim/31.jpeg",3,1,3,NA,"HouseObjects",1,"stim/objects/HouseObjects/lintroller2.png",4,"left","",NA,0,0,0
"57",72,57,0.9,"stim/41.jpeg",4,1,3,NA,"HouseObjects",1,"stim/objects/HouseObjects/recyclingbin2.png",1,"left","left",0.67200017,1,1,0
"58",72,58,0.9,"stim/31.jpeg",3,1,3,NA,"Instruments",2,"stim/objects/Instruments/metronome2.png",2,"right","right",0.572000027,1,1,0
"59",72,59,0.7,"stim/21.jpeg",2,1,2,NA,"HouseObjects",1,"stim/objects/HouseObjects/iron2.png",3,"left","left",0.617000103,1,1,0
"60",72,60,0.3,"stim/21.jpeg",2,1,2,NA,"Instruments",2,"stim/objects/Instruments/keyboard2.png",2,"right","left",0.868000269,0,0,0
"61",72,61,0.7,"stim/11.jpeg",1,1,2,NA,"Instruments",2,"stim/objects/Instruments/panflute.png",2,"right","",NA,0,0,0
"62",72,62,0.5,"stim/63.jpeg",6,3,1,NA,"Instruments",2,"stim/objects/Instruments/musicstand.png",1,"right","right",0.603000164,1,1,0
"63",72,63,0.9,"stim/41.jpeg",4,1,3,NA,"HouseObjects",1,"stim/objects/HouseObjects/recyclingbin2.png",1,"left","left",0.761000156,1,1,0
"64",72,64,0.7,"stim/14.jpeg",1,4,2,NA,"Instruments",2,"stim/objects/Instruments/record_player.png",4,"right","",NA,0,0,0
"65",72,65,0.9,"stim/42.jpeg",4,2,3,NA,"HouseObjects",1,"stim/objects/HouseObjects/remote2.png",1,"left","",NA,0,0,0
"66",72,66,0.7,"stim/22.jpeg",2,2,2,NA,"HouseObjects",1,"stim/objects/HouseObjects/ironingboard2.png",1,"left","left",0.588000298,1,1,0
"67",72,67,0.9,"stim/32.jpeg",3,2,3,NA,"Instruments",2,"stim/objects/Instruments/musicsheet2.png",4,"right","",NA,0,0,0
"68",72,68,0.9,"stim/34.jpeg",3,4,3,NA,"Instruments",2,"stim/objects/Instruments/oboe2.png",4,"right","right",0.501000166,1,1,0
"69",72,69,0.5,"stim/54.jpeg",5,4,1,NA,"Instruments",2,"stim/objects/Instruments/marimba.png",3,"right","right",0.437000275,1,1,0
"70",72,70,0.1,"stim/34.jpeg",3,4,3,NA,"HouseObjects",1,"stim/objects/HouseObjects/pitcher2.png",3,"left","right",0.684000254,0,0,0
"71",72,71,0.7,"stim/21.jpeg",2,1,2,NA,"HouseObjects",1,"stim/objects/HouseObjects/iron2.png",1,"left","",NA,0,0,0
"72",72,72,0.7,"stim/14.jpeg",1,4,2,NA,"Instruments",2,"stim/objects/Instruments/record_player.png",3,"right","right",0.575000286,1,1,0
"73",72,73,0.9,"stim/43.jpeg",4,3,3,NA,"HouseObjects",1,"stim/objects/HouseObjects/rubbergloves2.png",1,"left","left",0.57400012,1,1,0
"74",72,74,0.5,"stim/51.jpeg",5,1,1,NA,"Instruments",2,"stim/objects/Instruments/keyboard.png",4,"right","right",0.558000088,1,1,0
"75",72,75,0.5,"stim/61.jpeg",6,1,1,NA,"Instruments",2,"stim/objects/Instruments/metronome.png",2,"right","",NA,0,0,0
"76",72,76,0.5,"stim/62.jpeg",6,2,1,NA,"HouseObjects",1,"stim/objects/HouseObjects/match.png",4,"left","right",0.532000303,0,0,0
"77",72,77,0.1,"stim/44.jpeg",4,4,3,NA,"Instruments",2,"stim/objects/Instruments/record_player2.png",3,"right","left",0.570000172,0,0,0
"78",72,78,0.7,"stim/24.jpeg",2,4,2,NA,"HouseObjects",1,"stim/objects/HouseObjects/knife2.png",4,"left","left",0.583000183,1,1,0
"79",72,79,0.5,"stim/54.jpeg",5,4,1,NA,"HouseObjects",1,"stim/objects/HouseObjects/knife.png",3,"left","right",0.601000071,0,0,0
"80",72,80,0.7,"stim/13.jpeg",1,3,2,NA,"Instruments",2,"stim/objects/Instruments/record.png",4,"right","left",0.518000364,0,0,0
"81",72,81,0.7,"stim/11.jpeg",1,1,2,NA,"Instruments",2,"stim/objects/Instruments/panflute.png",3,"right","",NA,0,0,0
"82",72,82,0.3,"stim/11.jpeg",1,1,2,NA,"HouseObjects",1,"stim/objects/HouseObjects/recyclingbin.png",4,"left","right",0.463000298,0,0,0
"83",72,83,0.5,"stim/53.jpeg",5,3,1,NA,"HouseObjects",1,"stim/objects/HouseObjects/key.png",4,"left","",NA,0,0,0
"84",72,84,0.9,"stim/43.jpeg",4,3,3,NA,"HouseObjects",1,"stim/objects/HouseObjects/rubbergloves2.png",3,"left","left",0.641000032,1,1,0
"85",72,85,0.3,"stim/24.jpeg",2,4,2,NA,"Instruments",2,"stim/objects/Instruments/marimba2.png",2,"right","left",0.5400002,0,0,0
"86",72,86,0.9,"stim/42.jpeg",4,2,3,NA,"HouseObjects",1,"stim/objects/HouseObjects/remote2.png",3,"left","left",0.643000126,1,1,0
"87",72,87,0.5,"stim/52.jpeg",5,2,1,NA,"HouseObjects",1,"stim/objects/HouseObjects/ironingboard.png",2,"left","",NA,0,0,0
"88",72,88,0.9,"stim/43.jpeg",4,3,3,NA,"HouseObjects",1,"stim/objects/HouseObjects/rubbergloves2.png",2,"left","left",0.468000174,1,1,0
"89",72,89,0.9,"stim/41.jpeg",4,1,3,NA,"HouseObjects",1,"stim/objects/HouseObjects/recyclingbin2.png",1,"left","left",0.577000141,1,1,0
"90",72,90,0.9,"stim/44.jpeg",4,4,3,NA,"HouseObjects",1,"stim/objects/HouseObjects/rug2.png",2,"left","left",0.509000301,1,1,0
"91",72,91,0.9,"stim/31.jpeg",3,1,3,NA,"Instruments",2,"stim/objects/Instruments/metronome2.png",4,"right","right",0.683000088,1,1,0
"92",72,92,0.7,"stim/21.jpeg",2,1,2,NA,"HouseObjects",1,"stim/objects/HouseObjects/iron2.png",2,"left","left",0.605000257,1,1,0
"93",72,93,0.3,"stim/12.jpeg",1,2,2,NA,"HouseObjects",1,"stim/objects/HouseObjects/remote.png",1,"left","right",0.634000301,0,0,0
"94",72,94,0.5,"stim/61.jpeg",6,1,1,NA,"HouseObjects",1,"stim/objects/HouseObjects/lintroller.png",1,"left","right",0.622000217,0,0,0
"95",72,95,0.5,"stim/62.jpeg",6,2,1,NA,"Instruments",2,"stim/objects/Instruments/musicsheet.png",4,"right","right",0.601000071,1,1,0
"96",72,96,0.5,"stim/62.jpeg",6,2,1,NA,"HouseObjects",1,"stim/objects/HouseObjects/match.png",3,"left","right",0.640000343,0,0,0
"97",72,97,0.9,"stim/32.jpeg",3,2,3,NA,"Instruments",2,"stim/objects/Instruments/musicsheet2.png",3,"right","right",0.824000359,1,1,0
"98",72,98,0.7,"stim/23.jpeg",2,3,2,NA,"HouseObjects",1,"stim/objects/HouseObjects/key2.png",4,"left","left",0.650000334,1,1,0
"99",72,99,0.9,"stim/34.jpeg",3,4,3,NA,"Instruments",2,"stim/objects/Instruments/oboe2.png",1,"right","right",0.499000311,1,1,0
"100",72,100,0.7,"stim/14.jpeg",1,4,2,NA,"Instruments",2,"stim/objects/Instruments/record_player.png",2,"right","right",0.606000185,1,1,0
"101",72,101,0.9,"stim/41.jpeg",4,1,3,NA,"HouseObjects",1,"stim/objects/HouseObjects/recyclingbin2.png",1,"left","left",0.577000141,1,1,0
"102",72,102,0.7,"stim/23.jpeg",2,3,2,NA,"HouseObjects",1,"stim/objects/HouseObjects/key2.png",1,"left","left",0.596000195,1,1,0
"103",72,103,0.5,"stim/53.jpeg",5,3,1,NA,"HouseObjects",1,"stim/objects/HouseObjects/key.png",4,"left","right",0.572000027,0,0,0
"104",72,104,0.9,"stim/44.jpeg",4,4,3,NA,"HouseObjects",1,"stim/objects/HouseObjects/rug2.png",2,"left","left",0.600000143,1,1,0
"105",72,105,0.7,"stim/11.jpeg",1,1,2,NA,"Instruments",2,"stim/objects/Instruments/panflute.png",1,"right","right",0.585000277,1,1,0
"106",72,106,0.1,"stim/42.jpeg",4,2,3,NA,"Instruments",2,"stim/objects/Instruments/pipepiano2.png",3,"right","left",0.64800024,0,0,0
"107",72,107,0.5,"stim/52.jpeg",5,2,1,NA,"Instruments",2,"stim/objects/Instruments/laud.png",4,"right","right",0.622000217,1,1,0
"108",72,108,0.9,"stim/44.jpeg",4,4,3,NA,"HouseObjects",1,"stim/objects/HouseObjects/rug2.png",4,"left","left",0.531000137,1,1,0
"109",72,109,0.3,"stim/11.jpeg",1,1,2,NA,"HouseObjects",1,"stim/objects/HouseObjects/recyclingbin.png",1,"left","right",0.54700017,0,0,0
"110",72,110,0.7,"stim/24.jpeg",2,4,2,NA,"HouseObjects",1,"stim/objects/HouseObjects/knife2.png",3,"left","left",0.601999998,1,1,0
"111",72,111,0.1,"stim/41.jpeg",4,1,3,NA,"Instruments",2,"stim/objects/Instruments/panflute2.png",1,"right","left",0.63499999,0,0,0
"112",72,112,0.7,"stim/13.jpeg",1,3,2,NA,"Instruments",2,"stim/objects/Instruments/record.png",4,"right","right",0.738000154,1,1,0
"113",72,113,0.5,"stim/53.jpeg",5,3,1,NA,"Instruments",2,"stim/objects/Instruments/maraca.png",3,"right","right",0.606000185,1,1,0
"114",72,114,0.5,"stim/52.jpeg",5,2,1,NA,"Instruments",2,"stim/objects/Instruments/laud.png",2,"right","right",0.872000217,1,1,0
"115",72,115,0.9,"stim/33.jpeg",3,3,3,NA,"Instruments",2,"stim/objects/Instruments/musicstand2.png",1,"right","right",0.619000196,1,1,0
"116",72,116,0.1,"stim/33.jpeg",3,3,3,NA,"HouseObjects",1,"stim/objects/HouseObjects/pan2.png",4,"left","right",0.719000101,0,0,0
"117",72,117,0.5,"stim/54.jpeg",5,4,1,NA,"HouseObjects",1,"stim/objects/HouseObjects/knife.png",4,"left","right",0.664000273,0,0,0
"118",72,118,0.9,"stim/34.jpeg",3,4,3,NA,"Instruments",2,"stim/objects/Instruments/oboe2.png",1,"right","",NA,0,0,0
"119",72,119,0.9,"stim/33.jpeg",3,3,3,NA,"Instruments",2,"stim/objects/Instruments/musicstand2.png",3,"right","right",0.561000109,1,1,0
"120",72,120,0.7,"stim/11.jpeg",1,1,2,NA,"Instruments",2,"stim/objects/Instruments/panflute.png",3,"right","right",0.734000206,1,1,0
"121",72,121,0.7,"stim/23.jpeg",2,3,2,NA,"HouseObjects",1,"stim/objects/HouseObjects/key2.png",3,"left","left",0.598999977,1,1,0
"122",72,122,0.9,"stim/31.jpeg",3,1,3,NA,"Instruments",2,"stim/objects/Instruments/metronome2.png",1,"right","right",0.605999947,1,1,0
"123",72,123,0.5,"stim/62.jpeg",6,2,1,NA,"Instruments",2,"stim/objects/Instruments/musicsheet.png",1,"right","right",0.585000277,1,1,0
"124",72,124,0.9,"stim/42.jpeg",4,2,3,NA,"HouseObjects",1,"stim/objects/HouseObjects/remote2.png",3,"left","left",0.781000137,1,1,0
"125",72,125,0.5,"stim/53.jpeg",5,3,1,NA,"Instruments",2,"stim/objects/Instruments/maraca.png",2,"right","right",0.640000105,1,1,0
"126",72,126,0.3,"stim/23.jpeg",2,3,2,NA,"Instruments",2,"stim/objects/Instruments/maraca2.png",2,"right","left",0.568000317,0,0,0
"127",72,127,0.5,"stim/51.jpeg",5,1,1,NA,"HouseObjects",1,"stim/objects/HouseObjects/iron.png",1,"left","right",0.726000309,0,0,0
"128",72,128,0.7,"stim/14.jpeg",1,4,2,NA,"Instruments",2,"stim/objects/Instruments/record_player.png",1,"right","right",0.620000124,1,1,0
"129",72,129,0.9,"stim/31.jpeg",3,1,3,NA,"Instruments",2,"stim/objects/Instruments/metronome2.png",3,"right","right",0.686000109,1,1,0
"130",72,130,0.5,"stim/63.jpeg",6,3,1,NA,"HouseObjects",1,"stim/objects/HouseObjects/pan.png",1,"left","right",0.660000086,0,0,0
"131",72,131,0.7,"stim/13.jpeg",1,3,2,NA,"Instruments",2,"stim/objects/Instruments/record.png",4,"right","right",0.617000103,1,1,0
"132",72,132,0.7,"stim/12.jpeg",1,2,2,NA,"Instruments",2,"stim/objects/Instruments/pipepiano.png",1,"right","right",0.601000071,1,1,0
"133",72,133,0.5,"stim/64.jpeg",6,4,1,NA,"HouseObjects",1,"stim/objects/HouseObjects/pitcher.png",4,"left","right",0.612000227,0,0,0
"134",72,134,0.5,"stim/51.jpeg",5,1,1,NA,"HouseObjects",1,"stim/objects/HouseObjects/iron.png",2,"left","",NA,0,0,0
"135",72,135,0.3,"stim/14.jpeg",1,4,2,NA,"HouseObjects",1,"stim/objects/HouseObjects/rug.png",4,"left","right",0.635000229,0,0,0
"136",72,136,0.9,"stim/43.jpeg",4,3,3,NA,"HouseObjects",1,"stim/objects/HouseObjects/rubbergloves2.png",2,"left","left",0.726000071,1,1,0
"137",72,137,0.5,"stim/54.jpeg",5,4,1,NA,"HouseObjects",1,"stim/objects/HouseObjects/knife.png",2,"left","right",0.86500001,0,0,0
"138",72,138,0.5,"stim/64.jpeg",6,4,1,NA,"Instruments",2,"stim/objects/Instruments/oboe.png",3,"right","right",0.600000143,1,1,0
"139",72,139,0.9,"stim/44.jpeg",4,4,3,NA,"HouseObjects",1,"stim/objects/HouseObjects/rug2.png",4,"left","left",0.567000151,1,1,0
"140",72,140,0.7,"stim/23.jpeg",2,3,2,NA,"HouseObjects",1,"stim/objects/HouseObjects/key2.png",1,"left","left",0.59100008,1,1,0
"141",72,141,0.9,"stim/33.jpeg",3,3,3,NA,"Instruments",2,"stim/objects/Instruments/musicstand2.png",2,"right","right",0.478000164,1,1,0
"142",72,142,0.5,"stim/64.jpeg",6,4,1,NA,"Instruments",2,"stim/objects/Instruments/oboe.png",3,"right","right",0.498000145,1,1,0
"143",72,143,0.5,"stim/62.jpeg",6,2,1,NA,"HouseObjects",1,"stim/objects/HouseObjects/match.png",3,"left","right",0.507000208,0,0,0
"144",72,144,0.7,"stim/22.jpeg",2,2,2,NA,"HouseObjects",1,"stim/objects/HouseObjects/ironingboard2.png",3,"left","left",0.571000099,1,1,0
"145",72,145,0.9,"stim/42.jpeg",4,2,3,NA,"HouseObjects",1,"stim/objects/HouseObjects/remote2.png",3,"left","left",0.718000174,1,1,0
"146",72,146,0.3,"stim/24.jpeg",2,4,2,NA,"Instruments",2,"stim/objects/Instruments/marimba2.png",2,"right","left",0.700000286,0,0,0
"147",72,147,0.7,"stim/11.jpeg",1,1,2,NA,"Instruments",2,"stim/objects/Instruments/panflute.png",3,"right","right",0.738000154,1,1,0
"148",72,148,0.5,"stim/63.jpeg",6,3,1,NA,"HouseObjects",1,"stim/objects/HouseObjects/pan.png",1,"left","right",0.552000284,0,0,0
"149",72,149,0.9,"stim/34.jpeg",3,4,3,NA,"Instruments",2,"stim/objects/Instruments/oboe2.png",2,"right","right",0.571000338,1,1,0
"150",72,150,0.5,"stim/52.jpeg",5,2,1,NA,"Instruments",2,"stim/objects/Instruments/laud.png",4,"right","",NA,0,0,0
"151",72,151,0.5,"stim/52.jpeg",5,2,1,NA,"HouseObjects",1,"stim/objects/HouseObjects/ironingboard.png",2,"left","right",0.709000111,0,0,0
"152",72,152,0.9,"stim/34.jpeg",3,4,3,NA,"Instruments",2,"stim/objects/Instruments/oboe2.png",3,"right","right",0.757000208,1,1,0
"153",72,153,0.3,"stim/22.jpeg",2,2,2,NA,"Instruments",2,"stim/objects/Instruments/laud2.png",4,"right","left",0.560000181,0,0,0
"154",72,154,0.7,"stim/14.jpeg",1,4,2,NA,"Instruments",2,"stim/objects/Instruments/record_player.png",3,"right","right",0.537000179,1,1,0
"155",72,155,0.5,"stim/53.jpeg",5,3,1,NA,"HouseObjects",1,"stim/objects/HouseObjects/key.png",1,"left","right",0.835000277,0,0,0
"156",72,156,0.5,"stim/54.jpeg",5,4,1,NA,"Instruments",2,"stim/objects/Instruments/marimba.png",2,"right","",NA,0,0,0
"157",72,157,0.9,"stim/41.jpeg",4,1,3,NA,"HouseObjects",1,"stim/objects/HouseObjects/recyclingbin2.png",3,"left","left",0.621999979,1,1,0
"158",72,158,0.3,"stim/13.jpeg",1,3,2,NA,"HouseObjects",1,"stim/objects/HouseObjects/rubbergloves.png",4,"left","right",0.674000263,0,0,0
"159",72,159,0.1,"stim/43.jpeg",4,3,3,NA,"Instruments",2,"stim/objects/Instruments/record2.png",3,"right","left",0.710000277,0,0,0
"160",72,160,0.3,"stim/23.jpeg",2,3,2,NA,"Instruments",2,"stim/objects/Instruments/maraca2.png",1,"right","left",0.598999977,0,0,0
"161",72,161,0.9,"stim/34.jpeg",3,4,3,NA,"Instruments",2,"stim/objects/Instruments/oboe2.png",4,"right","right",0.552000284,1,1,0
"162",72,162,0.7,"stim/14.jpeg",1,4,2,NA,"Instruments",2,"stim/objects/Instruments/record_player.png",3,"right","right",0.713000059,1,1,0
"163",72,163,0.7,"stim/13.jpeg",1,3,2,NA,"Instruments",2,"stim/objects/Instruments/record.png",4,"right","right",0.642000198,1,1,0
"164",72,164,0.5,"stim/61.jpeg",6,1,1,NA,"HouseObjects",1,"stim/objects/HouseObjects/lintroller.png",4,"left","right",0.62100029,0,0,0
"165",72,165,0.9,"stim/44.jpeg",4,4,3,NA,"HouseObjects",1,"stim/objects/HouseObjects/rug2.png",2,"left","left",0.87100029,1,1,0
"166",72,166,0.5,"stim/64.jpeg",6,4,1,NA,"HouseObjects",1,"stim/objects/HouseObjects/pitcher.png",4,"left","right",0.482000113,0,0,0
"167",72,167,0.7,"stim/22.jpeg",2,2,2,NA,"HouseObjects",1,"stim/objects/HouseObjects/ironingboard2.png",3,"left","left",0.551000118,1,1,0
"168",72,168,0.9,"stim/33.jpeg",3,3,3,NA,"Instruments",2,"stim/objects/Instruments/musicstand2.png",2,"right","right",0.794000149,1,1,0
"169",72,169,0.9,"stim/42.jpeg",4,2,3,NA,"HouseObjects",1,"stim/objects/HouseObjects/remote2.png",2,"left","left",0.644000292,1,1,0
"170",72,170,0.9,"stim/44.jpeg",4,4,3,NA,"HouseObjects",1,"stim/objects/HouseObjects/rug2.png",1,"left","left",0.539000273,1,1,0
"171",72,171,0.9,"stim/32.jpeg",3,2,3,NA,"Instruments",2,"stim/objects/Instruments/musicsheet2.png",4,"right","right",0.518000126,1,1,0
"172",72,172,0.5,"stim/61.jpeg",6,1,1,NA,"HouseObjects",1,"stim/objects/HouseObjects/lintroller.png",4,"left","right",0.575000286,0,0,0
"173",72,173,0.9,"stim/32.jpeg",3,2,3,NA,"Instruments",2,"stim/objects/Instruments/musicsheet2.png",1,"right","right",0.496000051,1,1,0
"174",72,174,0.5,"stim/64.jpeg",6,4,1,NA,"HouseObjects",1,"stim/objects/HouseObjects/pitcher.png",3,"left","right",0.594000101,0,0,0
"175",72,175,0.5,"stim/63.jpeg",6,3,1,NA,"Instruments",2,"stim/objects/Instruments/musicstand.png",3,"right","right",0.612000227,1,1,0
"176",72,176,0.9,"stim/43.jpeg",4,3,3,NA,"HouseObjects",1,"stim/objects/HouseObjects/rubbergloves2.png",2,"left","left",0.649000168,1,1,0
"177",72,177,0.5,"stim/61.jpeg",6,1,1,NA,"Instruments",2,"stim/objects/Instruments/metronome.png",3,"right","right",0.786000013,1,1,0
"178",72,178,0.5,"stim/51.jpeg",5,1,1,NA,"HouseObjects",1,"stim/objects/HouseObjects/iron.png",3,"left","left",0.788000107,1,1,0
"179",72,179,0.7,"stim/13.jpeg",1,3,2,NA,"Instruments",2,"stim/objects/Instruments/record.png",2,"right","right",0.585000277,1,1,0
"180",72,180,0.7,"stim/12.jpeg",1,2,2,NA,"Instruments",2,"stim/objects/Instruments/pipepiano.png",1,"right","right",0.538000107,1,1,0
"181",72,181,0.7,"stim/24.jpeg",2,4,2,NA,"HouseObjects",1,"stim/objects/HouseObjects/knife2.png",4,"left","left",0.567000151,1,1,0
"182",72,182,0.5,"stim/63.jpeg",6,3,1,NA,"Instruments",2,"stim/objects/Instruments/musicstand.png",4,"right","right",0.459000111,1,1,0
"183",72,183,0.9,"stim/34.jpeg",3,4,3,NA,"Instruments",2,"stim/objects/Instruments/oboe2.png",2,"right","right",0.452000141,1,1,0
"184",72,184,0.5,"stim/61.jpeg",6,1,1,NA,"HouseObjects",1,"stim/objects/HouseObjects/lintroller.png",2,"left","right",0.476999998,0,0,0
"185",72,185,0.7,"stim/12.jpeg",1,2,2,NA,"Instruments",2,"stim/objects/Instruments/pipepiano.png",1,"right","right",0.584000349,1,1,0
"186",72,186,0.5,"stim/63.jpeg",6,3,1,NA,"HouseObjects",1,"stim/objects/HouseObjects/pan.png",3,"left","right",0.529999971,0,0,0
"187",72,187,0.9,"stim/33.jpeg",3,3,3,NA,"Instruments",2,"stim/objects/Instruments/musicstand2.png",2,"right","right",0.556000233,1,1,0
"188",72,188,0.9,"stim/32.jpeg",3,2,3,NA,"Instruments",2,"stim/objects/Instruments/musicsheet2.png",4,"right","right",0.572000027,1,1,0
"189",72,189,0.9,"stim/33.jpeg",3,3,3,NA,"Instruments",2,"stim/objects/Instruments/musicstand2.png",1,"right","right",0.514000177,1,1,0
"190",72,190,0.5,"stim/64.jpeg",6,4,1,NA,"Instruments",2,"stim/objects/Instruments/oboe.png",3,"right","right",0.490000248,1,1,0
"191",72,191,0.3,"stim/13.jpeg",1,3,2,NA,"HouseObjects",1,"stim/objects/HouseObjects/rubbergloves.png",4,"left","right",0.473999977,0,0,0
"192",72,192,0.9,"stim/32.jpeg",3,2,3,NA,"Instruments",2,"stim/objects/Instruments/musicsheet2.png",3,"right","right",0.54700017,1,1,0
"193",72,193,0.7,"stim/24.jpeg",2,4,2,NA,"HouseObjects",1,"stim/objects/HouseObjects/knife2.png",2,"left","left",0.60400033,1,1,0
"194",72,194,0.5,"stim/53.jpeg",5,3,1,NA,"HouseObjects",1,"stim/objects/HouseObjects/key.png",2,"left","",NA,0,0,0
"195",72,195,0.5,"stim/54.jpeg",5,4,1,NA,"HouseObjects",1,"stim/objects/HouseObjects/knife.png",1,"left","right",0.604000092,0,0,0
"196",72,196,0.9,"stim/32.jpeg",3,2,3,NA,"Instruments",2,"stim/objects/Instruments/musicsheet2.png",4,"right","right",0.531000137,1,1,0
"197",72,197,0.9,"stim/34.jpeg",3,4,3,NA,"Instruments",2,"stim/objects/Instruments/oboe2.png",2,"right","right",0.730000257,1,1,0
"198",72,198,0.7,"stim/12.jpeg",1,2,2,NA,"Instruments",2,"stim/objects/Instruments/pipepiano.png",2,"right","right",0.55700016,1,1,0
"199",72,199,0.7,"stim/22.jpeg",2,2,2,NA,"HouseObjects",1,"stim/objects/HouseObjects/ironingboard2.png",3,"left","left",0.534000158,1,1,0
"200",72,200,0.3,"stim/14.jpeg",1,4,2,NA,"HouseObjects",1,"stim/objects/HouseObjects/rug.png",2,"left","right",0.646000147,0,0,0
"201",72,201,0.7,"stim/21.jpeg",2,1,2,NA,"HouseObjects",1,"stim/objects/HouseObjects/iron2.png",1,"left","left",0.651000023,1,1,0
"202",72,202,0.5,"stim/63.jpeg",6,3,1,NA,"Instruments",2,"stim/objects/Instruments/musicstand.png",2,"right","right",0.847000122,1,1,0
"203",72,203,0.5,"stim/51.jpeg",5,1,1,NA,"Instruments",2,"stim/objects/Instruments/keyboard.png",4,"right","left",0.875,0,0,0
"204",72,204,0.9,"stim/31.jpeg",3,1,3,NA,"Instruments",2,"stim/objects/Instruments/metronome2.png",1,"right","right",0.794000149,1,1,0
"205",72,205,0.9,"stim/32.jpeg",3,2,3,NA,"Instruments",2,"stim/objects/Instruments/musicsheet2.png",4,"right","right",0.85800004,1,1,0
"206",72,206,0.5,"stim/64.jpeg",6,4,1,NA,"Instruments",2,"stim/objects/Instruments/oboe.png",1,"right","right",0.687000275,1,1,0
"207",72,207,0.3,"stim/12.jpeg",1,2,2,NA,"HouseObjects",1,"stim/objects/HouseObjects/remote.png",2,"left","right",0.623000145,0,0,0
"208",72,208,0.9,"stim/43.jpeg",4,3,3,NA,"HouseObjects",1,"stim/objects/HouseObjects/rubbergloves2.png",4,"left","left",0.67200017,1,1,0
"209",72,209,0.9,"stim/42.jpeg",4,2,3,NA,"HouseObjects",1,"stim/objects/HouseObjects/remote2.png",4,"left","left",0.500000238,1,1,0
"210",72,210,0.5,"stim/52.jpeg",5,2,1,NA,"Instruments",2,"stim/objects/Instruments/laud.png",2,"right","right",0.828999996,1,1,0
"211",72,211,0.3,"stim/21.jpeg",2,1,2,NA,"Instruments",2,"stim/objects/Instruments/keyboard2.png",4,"right","left",0.61500001,0,0,0
"212",72,212,0.3,"stim/11.jpeg",1,1,2,NA,"HouseObjects",1,"stim/objects/HouseObjects/recyclingbin.png",2,"left","right",0.736000299,0,0,0
"213",72,213,0.9,"stim/44.jpeg",4,4,3,NA,"HouseObjects",1,"stim/objects/HouseObjects/rug2.png",4,"left","left",0.701000214,1,1,0
"214",72,214,0.5,"stim/62.jpeg",6,2,1,NA,"Instruments",2,"stim/objects/Instruments/musicsheet.png",2,"right","right",0.725000143,1,1,0
"215",72,215,0.5,"stim/51.jpeg",5,1,1,NA,"Instruments",2,"stim/objects/Instruments/keyboard.png",1,"right","right",0.684000254,1,1,0
"216",72,216,0.7,"stim/12.jpeg",1,2,2,NA,"Instruments",2,"stim/objects/Instruments/pipepiano.png",2,"right","right",0.67200017,1,1,0
"217",72,217,0.9,"stim/32.jpeg",3,2,3,NA,"Instruments",2,"stim/objects/Instruments/musicsheet2.png",4,"right","",NA,0,0,0
"218",72,218,0.5,"stim/51.jpeg",5,1,1,NA,"HouseObjects",1,"stim/objects/HouseObjects/iron.png",1,"left","right",0.776000023,0,0,0
"219",72,219,0.9,"stim/41.jpeg",4,1,3,NA,"HouseObjects",1,"stim/objects/HouseObjects/recyclingbin2.png",3,"left","left",0.703000069,1,1,0
"220",72,220,0.7,"stim/22.jpeg",2,2,2,NA,"HouseObjects",1,"stim/objects/HouseObjects/ironingboard2.png",4,"left","left",0.607000113,1,1,0
"221",72,221,0.7,"stim/13.jpeg",1,3,2,NA,"Instruments",2,"stim/objects/Instruments/record.png",1,"right","right",0.715000391,1,1,0
"222",72,222,0.7,"stim/11.jpeg",1,1,2,NA,"Instruments",2,"stim/objects/Instruments/panflute.png",2,"right","right",0.532000065,1,1,0
"223",72,223,0.5,"stim/54.jpeg",5,4,1,NA,"Instruments",2,"stim/objects/Instruments/marimba.png",4,"right","right",0.804000139,1,1,0
"224",72,224,0.5,"stim/63.jpeg",6,3,1,NA,"Instruments",2,"stim/objects/Instruments/musicstand.png",1,"right","right",0.534000158,1,1,0
"225",72,225,0.5,"stim/64.jpeg",6,4,1,NA,"HouseObjects",1,"stim/objects/HouseObjects/pitcher.png",1,"left","right",0.544000149,0,0,0
"226",72,226,0.5,"stim/62.jpeg",6,2,1,NA,"HouseObjects",1,"stim/objects/HouseObjects/match.png",1,"left","right",0.493000269,0,0,0
"227",72,227,0.5,"stim/64.jpeg",6,4,1,NA,"HouseObjects",1,"stim/objects/HouseObjects/pitcher.png",3,"left","right",0.737000227,0,0,0
"228",72,228,0.7,"stim/12.jpeg",1,2,2,NA,"Instruments",2,"stim/objects/Instruments/pipepiano.png",3,"right","right",0.624000072,1,1,0
"229",72,229,0.9,"stim/33.jpeg",3,3,3,NA,"Instruments",2,"stim/objects/Instruments/musicstand2.png",2,"right","right",0.629000187,1,1,0
"230",72,230,0.7,"stim/21.jpeg",2,1,2,NA,"HouseObjects",1,"stim/objects/HouseObjects/iron2.png",1,"left","",NA,0,0,0
"231",72,231,0.9,"stim/41.jpeg",4,1,3,NA,"HouseObjects",1,"stim/objects/HouseObjects/recyclingbin2.png",3,"left","left",0.664000034,1,1,0
"232",72,232,0.5,"stim/61.jpeg",6,1,1,NA,"HouseObjects",1,"stim/objects/HouseObjects/lintroller.png",2,"left","right",0.871999979,0,0,0
"233",72,233,0.9,"stim/31.jpeg",3,1,3,NA,"Instruments",2,"stim/objects/Instruments/metronome2.png",1,"right","right",0.64800024,1,1,0
"234",72,234,0.7,"stim/21.jpeg",2,1,2,NA,"HouseObjects",1,"stim/objects/HouseObjects/iron2.png",2,"left","left",0.519000292,1,1,0
"235",72,235,0.5,"stim/53.jpeg",5,3,1,NA,"Instruments",2,"stim/objects/Instruments/maraca.png",2,"right","right",0.637000084,1,1,0
"236",72,236,0.7,"stim/22.jpeg",2,2,2,NA,"HouseObjects",1,"stim/objects/HouseObjects/ironingboard2.png",4,"left","left",0.601000071,1,1,0
"237",72,237,0.7,"stim/23.jpeg",2,3,2,NA,"HouseObjects",1,"stim/objects/HouseObjects/key2.png",3,"left","left",0.437000036,1,1,0
"238",72,238,0.7,"stim/12.jpeg",1,2,2,NA,"Instruments",2,"stim/objects/Instruments/pipepiano.png",3,"right","right",0.644000292,1,1,0
"239",72,239,0.3,"stim/23.jpeg",2,3,2,NA,"Instruments",2,"stim/objects/Instruments/maraca2.png",1,"right","left",0.811000109,0,0,0
"240",72,240,0.1,"stim/32.jpeg",3,2,3,NA,"HouseObjects",1,"stim/objects/HouseObjects/match2.png",4,"left","right",0.638000011,0,0,0
