"","obj_file","X.x","participant.x","trialN.x","trial_cond","scn_file.x","scn_cat","scn_inst","scn_condition","fillers","obj_cat","obj_cat_num","quadrant","corr_ans","key_resp_trial.keys","key_resp_trial.rt","trial_acc","trial_acc_manual","group.x","practice","X.y","participant.y","OvsN","PE_level","object_cat","scn_file.y","corr_scn_cat","corr_scn_inst","scn_file.1","corr_loc","key_resp_id.keys","key_resp_id.rt","key_resp_conf.keys","key_resp_assoc.keys","key_resp_assoc.rt","key_resp_loc.keys","key_resp_loc.rt","trialN.y","id_acc","assoc.acc","cond_assoc","loc.acc","cond_loc","group.y"
"220","stim/objects/Instruments/harp2.png",1,71,1,0.9,"stim/23.jpeg",2,3,3,NA,"Instruments",1,3,"left","",NA,0,0,0,1,NA,NA,NA,NA,NA,NA,NA,NA,NA,NA,NA,NA,NA,NA,NA,NA,NA,NA,NA,NA,NA,NA,NA,NA
"138","stim/objects/Instruments/electricdrumset2.png",2,71,2,0.7,"stim/62.jpeg",6,2,2,NA,"Instruments",1,3,"left","left",0.549999952,1,1,0,1,NA,NA,NA,NA,NA,NA,NA,NA,NA,NA,NA,NA,NA,NA,NA,NA,NA,NA,NA,NA,NA,NA,NA,NA
"80","stim/objects/HouseObjects/glass2.png",3,71,3,0.9,"stim/14.jpeg",1,4,3,NA,"HouseObjects",2,3,"right","right",0.669999838,1,1,0,1,NA,NA,NA,NA,NA,NA,NA,NA,NA,NA,NA,NA,NA,NA,NA,NA,NA,NA,NA,NA,NA,NA,NA,NA
"162","stim/objects/Instruments/flute2.png",4,71,4,0.7,"stim/64.jpeg",6,4,2,NA,"Instruments",1,4,"left","left",0.485999823,1,1,0,1,NA,NA,NA,NA,NA,NA,NA,NA,NA,NA,NA,NA,NA,NA,NA,NA,NA,NA,NA,NA,NA,NA,NA,NA
"181","stim/objects/Instruments/gong.png",5,71,5,0.5,"stim/43.jpeg",4,3,1,NA,"Instruments",1,1,"left","right",0.61500001,0,0,0,1,NA,NA,NA,NA,NA,NA,NA,NA,NA,NA,NA,NA,NA,NA,NA,NA,NA,NA,NA,NA,NA,NA,NA,NA
"89","stim/objects/HouseObjects/glassmop.png",6,71,6,0.7,"stim/51.jpeg",5,1,2,NA,"HouseObjects",2,3,"right","left",0.595999956,0,0,0,1,NA,NA,NA,NA,NA,NA,NA,NA,NA,NA,NA,NA,NA,NA,NA,NA,NA,NA,NA,NA,NA,NA,NA,NA
"81","stim/objects/HouseObjects/glass2.png",7,71,7,0.9,"stim/14.jpeg",1,4,3,NA,"HouseObjects",2,4,"right","right",0.821999788,1,1,0,1,NA,NA,NA,NA,NA,NA,NA,NA,NA,NA,NA,NA,NA,NA,NA,NA,NA,NA,NA,NA,NA,NA,NA,NA
"150","stim/objects/Instruments/electricguitar2.png",8,71,8,0.7,"stim/63.jpeg",6,3,2,NA,"Instruments",1,3,"left","left",0.644999981,1,1,0,1,NA,NA,NA,NA,NA,NA,NA,NA,NA,NA,NA,NA,NA,NA,NA,NA,NA,NA,NA,NA,NA,NA,NA,NA
"66","stim/objects/HouseObjects/garbagebin2.png",9,71,9,0.9,"stim/13.jpeg",1,3,3,NA,"HouseObjects",2,1,"right","right",0.592000008,1,1,0,1,NA,NA,NA,NA,NA,NA,NA,NA,NA,NA,NA,NA,NA,NA,NA,NA,NA,NA,NA,NA,NA,NA,NA,NA
"121","stim/objects/Instruments/drums.png",10,71,10,0.5,"stim/31.jpeg",3,1,1,NA,"Instruments",1,2,"left","left",0.578999996,1,1,0,1,NA,NA,NA,NA,NA,NA,NA,NA,NA,NA,NA,NA,NA,NA,NA,NA,NA,NA,NA,NA,NA,NA,NA,NA
"208","stim/objects/Instruments/harmonica2.png",11,71,11,0.9,"stim/22.jpeg",2,2,3,NA,"Instruments",1,4,"left","",NA,0,0,0,1,NA,NA,NA,NA,NA,NA,NA,NA,NA,NA,NA,NA,NA,NA,NA,NA,NA,NA,NA,NA,NA,NA,NA,NA
"126","stim/objects/Instruments/drums2.png",12,71,12,0.7,"stim/61.jpeg",6,1,2,NA,"Instruments",1,4,"left","left",0.578999996,1,1,0,1,NA,NA,NA,NA,NA,NA,NA,NA,NA,NA,NA,NA,NA,NA,NA,NA,NA,NA,NA,NA,NA,NA,NA,NA
"127","stim/objects/Instruments/drums2.png",13,71,13,0.7,"stim/61.jpeg",6,1,2,NA,"Instruments",1,1,"left","left",0.450999975,1,1,0,1,NA,NA,NA,NA,NA,NA,NA,NA,NA,NA,NA,NA,NA,NA,NA,NA,NA,NA,NA,NA,NA,NA,NA,NA
"163","stim/objects/Instruments/flute2.png",14,71,14,0.7,"stim/64.jpeg",6,4,2,NA,"Instruments",1,2,"left","left",0.506999969,1,1,0,1,NA,NA,NA,NA,NA,NA,NA,NA,NA,NA,NA,NA,NA,NA,NA,NA,NA,NA,NA,NA,NA,NA,NA,NA
"145","stim/objects/Instruments/electricguitar.png",15,71,15,0.5,"stim/33.jpeg",3,3,1,NA,"Instruments",1,1,"left","right",0.416999817,0,0,0,1,NA,NA,NA,NA,NA,NA,NA,NA,NA,NA,NA,NA,NA,NA,NA,NA,NA,NA,NA,NA,NA,NA,NA,NA
"196","stim/objects/Instruments/guitarcase2.png",16,71,16,0.9,"stim/21.jpeg",2,1,3,NA,"Instruments",1,1,"left","left",0.5,1,1,0,1,NA,NA,NA,NA,NA,NA,NA,NA,NA,NA,NA,NA,NA,NA,NA,NA,NA,NA,NA,NA,NA,NA,NA,NA
"90","stim/objects/HouseObjects/glassmop.png",17,71,17,0.7,"stim/51.jpeg",5,1,2,NA,"HouseObjects",2,3,"right","left",0.541000128,0,0,0,1,NA,NA,NA,NA,NA,NA,NA,NA,NA,NA,NA,NA,NA,NA,NA,NA,NA,NA,NA,NA,NA,NA,NA,NA
"151","stim/objects/Instruments/electricguitar2.png",18,71,18,0.7,"stim/63.jpeg",6,3,2,NA,"Instruments",1,3,"left","left",0.573999882,1,1,0,1,NA,NA,NA,NA,NA,NA,NA,NA,NA,NA,NA,NA,NA,NA,NA,NA,NA,NA,NA,NA,NA,NA,NA,NA
"67","stim/objects/HouseObjects/garbagebin2.png",19,71,19,0.9,"stim/13.jpeg",1,3,3,NA,"HouseObjects",2,3,"right","right",0.498999834,1,1,0,1,NA,NA,NA,NA,NA,NA,NA,NA,NA,NA,NA,NA,NA,NA,NA,NA,NA,NA,NA,NA,NA,NA,NA,NA
"82","stim/objects/HouseObjects/glass2.png",20,71,20,0.9,"stim/14.jpeg",1,4,3,NA,"HouseObjects",2,3,"right","right",0.529999971,1,1,0,1,NA,NA,NA,NA,NA,NA,NA,NA,NA,NA,NA,NA,NA,NA,NA,NA,NA,NA,NA,NA,NA,NA,NA,NA
"33","stim/objects/HouseObjects/dustpan.png",21,71,21,0.5,"stim/41.jpeg",4,1,1,NA,"HouseObjects",2,4,"right","right",0.588000059,1,1,0,1,NA,NA,NA,NA,NA,NA,NA,NA,NA,NA,NA,NA,NA,NA,NA,NA,NA,NA,NA,NA,NA,NA,NA,NA
"122","stim/objects/Instruments/drums.png",22,71,22,0.5,"stim/31.jpeg",3,1,1,NA,"Instruments",1,1,"left","right",0.755999804,0,0,0,1,NA,NA,NA,NA,NA,NA,NA,NA,NA,NA,NA,NA,NA,NA,NA,NA,NA,NA,NA,NA,NA,NA,NA,NA
"47","stim/objects/HouseObjects/flyswatter.png",23,71,23,0.5,"stim/42.jpeg",4,2,1,NA,"HouseObjects",2,2,"right","left",0.832999945,0,0,0,1,NA,NA,NA,NA,NA,NA,NA,NA,NA,NA,NA,NA,NA,NA,NA,NA,NA,NA,NA,NA,NA,NA,NA,NA
"152","stim/objects/Instruments/electricguitar2.png",24,71,24,0.7,"stim/63.jpeg",6,3,2,NA,"Instruments",1,2,"left","left",0.622999907,1,1,0,1,NA,NA,NA,NA,NA,NA,NA,NA,NA,NA,NA,NA,NA,NA,NA,NA,NA,NA,NA,NA,NA,NA,NA,NA
"193","stim/objects/Instruments/guitarcase.png",25,71,25,0.3,"stim/51.jpeg",5,1,2,NA,"Instruments",1,3,"left","left",0.613999844,1,1,0,1,NA,NA,NA,NA,NA,NA,NA,NA,NA,NA,NA,NA,NA,NA,NA,NA,NA,NA,NA,NA,NA,NA,NA,NA
"139","stim/objects/Instruments/electricdrumset2.png",26,71,26,0.7,"stim/62.jpeg",6,2,2,NA,"Instruments",1,4,"left","left",0.5849998,1,1,0,1,NA,NA,NA,NA,NA,NA,NA,NA,NA,NA,NA,NA,NA,NA,NA,NA,NA,NA,NA,NA,NA,NA,NA,NA
"9","stim/objects/HouseObjects/cushion.png",27,71,27,0.5,"stim/32.jpeg",3,2,1,NA,"HouseObjects",2,1,"right","right",0.701999903,1,1,0,1,NA,NA,NA,NA,NA,NA,NA,NA,NA,NA,NA,NA,NA,NA,NA,NA,NA,NA,NA,NA,NA,NA,NA,NA
"14","stim/objects/HouseObjects/cushion2.png",28,71,28,0.3,"stim/62.jpeg",6,2,2,NA,"HouseObjects",2,4,"right","left",0.580999851,0,0,0,1,NA,NA,NA,NA,NA,NA,NA,NA,NA,NA,NA,NA,NA,NA,NA,NA,NA,NA,NA,NA,NA,NA,NA,NA
"197","stim/objects/Instruments/guitarcase2.png",29,71,29,0.9,"stim/21.jpeg",2,1,3,NA,"Instruments",1,1,"left","left",0.710999727,1,1,0,1,NA,NA,NA,NA,NA,NA,NA,NA,NA,NA,NA,NA,NA,NA,NA,NA,NA,NA,NA,NA,NA,NA,NA,NA
"113","stim/objects/HouseObjects/handvacuum.png",30,71,30,0.7,"stim/54.jpeg",5,4,2,NA,"HouseObjects",2,1,"right","right",0.714999914,1,1,0,1,NA,NA,NA,NA,NA,NA,NA,NA,NA,NA,NA,NA,NA,NA,NA,NA,NA,NA,NA,NA,NA,NA,NA,NA
"34","stim/objects/HouseObjects/dustpan.png",31,71,31,0.5,"stim/41.jpeg",4,1,1,NA,"HouseObjects",2,1,"right","right",0.703999996,1,1,0,1,NA,NA,NA,NA,NA,NA,NA,NA,NA,NA,NA,NA,NA,NA,NA,NA,NA,NA,NA,NA,NA,NA,NA,NA
"164","stim/objects/Instruments/flute2.png",32,71,32,0.7,"stim/64.jpeg",6,4,2,NA,"Instruments",1,4,"left","left",0.57799983,1,1,0,1,NA,NA,NA,NA,NA,NA,NA,NA,NA,NA,NA,NA,NA,NA,NA,NA,NA,NA,NA,NA,NA,NA,NA,NA
"123","stim/objects/Instruments/drums.png",33,71,33,0.5,"stim/31.jpeg",3,1,1,NA,"Instruments",1,2,"left","right",0.838999987,0,0,0,1,NA,NA,NA,NA,NA,NA,NA,NA,NA,NA,NA,NA,NA,NA,NA,NA,NA,NA,NA,NA,NA,NA,NA,NA
"217","stim/objects/Instruments/harp.png",34,71,34,0.3,"stim/53.jpeg",5,3,2,NA,"Instruments",1,4,"left","right",0.802999735,0,0,0,1,NA,NA,NA,NA,NA,NA,NA,NA,NA,NA,NA,NA,NA,NA,NA,NA,NA,NA,NA,NA,NA,NA,NA,NA
"25","stim/objects/HouseObjects/doormat.png",35,71,35,0.5,"stim/34.jpeg",3,4,1,NA,"HouseObjects",2,3,"right","right",0.517999887,1,1,0,1,NA,NA,NA,NA,NA,NA,NA,NA,NA,NA,NA,NA,NA,NA,NA,NA,NA,NA,NA,NA,NA,NA,NA,NA
"61","stim/objects/HouseObjects/garbagebin.png",36,71,36,0.5,"stim/43.jpeg",4,3,1,NA,"HouseObjects",2,3,"right","right",0.628999949,1,1,0,1,NA,NA,NA,NA,NA,NA,NA,NA,NA,NA,NA,NA,NA,NA,NA,NA,NA,NA,NA,NA,NA,NA,NA,NA
"140","stim/objects/Instruments/electricdrumset2.png",37,71,37,0.7,"stim/62.jpeg",6,2,2,NA,"Instruments",1,3,"left","left",0.61500001,1,1,0,1,NA,NA,NA,NA,NA,NA,NA,NA,NA,NA,NA,NA,NA,NA,NA,NA,NA,NA,NA,NA,NA,NA,NA,NA
"75","stim/objects/HouseObjects/glass.png",38,71,38,0.5,"stim/44.jpeg",4,4,1,NA,"HouseObjects",2,3,"right","left",0.619999886,0,0,0,1,NA,NA,NA,NA,NA,NA,NA,NA,NA,NA,NA,NA,NA,NA,NA,NA,NA,NA,NA,NA,NA,NA,NA,NA
"198","stim/objects/Instruments/guitarcase2.png",39,71,39,0.9,"stim/21.jpeg",2,1,3,NA,"Instruments",1,2,"left","left",0.67599988,1,1,0,1,NA,NA,NA,NA,NA,NA,NA,NA,NA,NA,NA,NA,NA,NA,NA,NA,NA,NA,NA,NA,NA,NA,NA,NA
"83","stim/objects/HouseObjects/glass2.png",40,71,40,0.9,"stim/14.jpeg",1,4,3,NA,"HouseObjects",2,4,"right","right",0.538000107,1,1,0,1,NA,NA,NA,NA,NA,NA,NA,NA,NA,NA,NA,NA,NA,NA,NA,NA,NA,NA,NA,NA,NA,NA,NA,NA
"128","stim/objects/Instruments/drums2.png",41,71,41,0.7,"stim/61.jpeg",6,1,2,NA,"Instruments",1,3,"left","left",0.523000002,1,1,0,1,NA,NA,NA,NA,NA,NA,NA,NA,NA,NA,NA,NA,NA,NA,NA,NA,NA,NA,NA,NA,NA,NA,NA,NA
"169","stim/objects/Instruments/flutetrans.png",42,71,42,0.5,"stim/41.jpeg",4,1,1,NA,"Instruments",1,2,"left","right",0.690999985,0,0,0,1,NA,NA,NA,NA,NA,NA,NA,NA,NA,NA,NA,NA,NA,NA,NA,NA,NA,NA,NA,NA,NA,NA,NA,NA
"26","stim/objects/HouseObjects/doormat.png",43,71,43,0.5,"stim/34.jpeg",3,4,1,NA,"HouseObjects",2,3,"right","left",0.875,0,0,0,1,NA,NA,NA,NA,NA,NA,NA,NA,NA,NA,NA,NA,NA,NA,NA,NA,NA,NA,NA,NA,NA,NA,NA,NA
"38","stim/objects/HouseObjects/dustpan2.png",44,71,44,0.9,"stim/11.jpeg",1,1,3,NA,"HouseObjects",2,1,"right","right",0.575000048,1,1,0,1,NA,NA,NA,NA,NA,NA,NA,NA,NA,NA,NA,NA,NA,NA,NA,NA,NA,NA,NA,NA,NA,NA,NA,NA
"192","stim/objects/Instruments/grandpiano2.png",45,71,45,0.1,"stim/14.jpeg",1,4,3,NA,"Instruments",1,2,"left","right",0.546000004,0,0,0,1,NA,NA,NA,NA,NA,NA,NA,NA,NA,NA,NA,NA,NA,NA,NA,NA,NA,NA,NA,NA,NA,NA,NA,NA
"199","stim/objects/Instruments/guitarcase2.png",46,71,46,0.9,"stim/21.jpeg",2,1,3,NA,"Instruments",1,2,"left","left",0.558999777,1,1,0,1,NA,NA,NA,NA,NA,NA,NA,NA,NA,NA,NA,NA,NA,NA,NA,NA,NA,NA,NA,NA,NA,NA,NA,NA
"48","stim/objects/HouseObjects/flyswatter.png",47,71,47,0.5,"stim/42.jpeg",4,2,1,NA,"HouseObjects",2,2,"right","right",0.532000065,1,1,0,1,NA,NA,NA,NA,NA,NA,NA,NA,NA,NA,NA,NA,NA,NA,NA,NA,NA,NA,NA,NA,NA,NA,NA,NA
"141","stim/objects/Instruments/electricdrumset2.png",48,71,48,0.7,"stim/62.jpeg",6,2,2,NA,"Instruments",1,2,"left","left",0.497999907,1,1,0,1,NA,NA,NA,NA,NA,NA,NA,NA,NA,NA,NA,NA,NA,NA,NA,NA,NA,NA,NA,NA,NA,NA,NA,NA
"205","stim/objects/Instruments/harmonica.png",49,71,49,0.3,"stim/52.jpeg",5,2,2,NA,"Instruments",1,1,"left","right",0.549999952,0,0,0,1,NA,NA,NA,NA,NA,NA,NA,NA,NA,NA,NA,NA,NA,NA,NA,NA,NA,NA,NA,NA,NA,NA,NA,NA
"165","stim/objects/Instruments/flute2.png",50,71,50,0.7,"stim/64.jpeg",6,4,2,NA,"Instruments",1,4,"left","left",0.681999922,1,1,0,1,NA,NA,NA,NA,NA,NA,NA,NA,NA,NA,NA,NA,NA,NA,NA,NA,NA,NA,NA,NA,NA,NA,NA,NA
"30","stim/objects/HouseObjects/doormat2.png",51,71,51,0.3,"stim/64.jpeg",6,4,2,NA,"HouseObjects",2,1,"right","left",0.698999882,0,0,0,1,NA,NA,NA,NA,NA,NA,NA,NA,NA,NA,NA,NA,NA,NA,NA,NA,NA,NA,NA,NA,NA,NA,NA,NA
"187","stim/objects/Instruments/grandpiano.png",52,71,52,0.5,"stim/44.jpeg",4,4,1,NA,"Instruments",1,3,"left","right",0.622999907,0,0,0,1,NA,NA,NA,NA,NA,NA,NA,NA,NA,NA,NA,NA,NA,NA,NA,NA,NA,NA,NA,NA,NA,NA,NA,NA
"39","stim/objects/HouseObjects/dustpan2.png",53,71,53,0.9,"stim/11.jpeg",1,1,3,NA,"HouseObjects",2,1,"right","right",0.582000017,1,1,0,1,NA,NA,NA,NA,NA,NA,NA,NA,NA,NA,NA,NA,NA,NA,NA,NA,NA,NA,NA,NA,NA,NA,NA,NA
"52","stim/objects/HouseObjects/flyswatter2.png",54,71,54,0.9,"stim/12.jpeg",1,2,3,NA,"HouseObjects",2,2,"right","right",0.590999842,1,1,0,1,NA,NA,NA,NA,NA,NA,NA,NA,NA,NA,NA,NA,NA,NA,NA,NA,NA,NA,NA,NA,NA,NA,NA,NA
"157","stim/objects/Instruments/flute.png",55,71,55,0.5,"stim/34.jpeg",3,4,1,NA,"Instruments",1,2,"left","right",0.672999859,0,0,0,1,NA,NA,NA,NA,NA,NA,NA,NA,NA,NA,NA,NA,NA,NA,NA,NA,NA,NA,NA,NA,NA,NA,NA,NA
"104","stim/objects/HouseObjects/hairdryer2.png",56,71,56,0.1,"stim/22.jpeg",2,2,3,NA,"HouseObjects",2,2,"right","left",0.730999947,0,0,0,1,NA,NA,NA,NA,NA,NA,NA,NA,NA,NA,NA,NA,NA,NA,NA,NA,NA,NA,NA,NA,NA,NA,NA,NA
"105","stim/objects/HouseObjects/handbrush.png",57,71,57,0.7,"stim/53.jpeg",5,3,2,NA,"HouseObjects",2,3,"right","right",0.592999935,1,1,0,1,NA,NA,NA,NA,NA,NA,NA,NA,NA,NA,NA,NA,NA,NA,NA,NA,NA,NA,NA,NA,NA,NA,NA,NA
"114","stim/objects/HouseObjects/handvacuum.png",58,71,58,0.7,"stim/54.jpeg",5,4,2,NA,"HouseObjects",2,4,"right","right",0.609999895,1,1,0,1,NA,NA,NA,NA,NA,NA,NA,NA,NA,NA,NA,NA,NA,NA,NA,NA,NA,NA,NA,NA,NA,NA,NA,NA
"17","stim/objects/HouseObjects/dishsoap.png",59,71,59,0.5,"stim/33.jpeg",3,3,1,NA,"HouseObjects",2,3,"right","right",0.626999855,1,1,0,1,NA,NA,NA,NA,NA,NA,NA,NA,NA,NA,NA,NA,NA,NA,NA,NA,NA,NA,NA,NA,NA,NA,NA,NA
"15","stim/objects/HouseObjects/cushion2.png",60,71,60,0.3,"stim/62.jpeg",6,2,2,NA,"HouseObjects",2,1,"right","left",0.540999889,0,0,0,1,NA,NA,NA,NA,NA,NA,NA,NA,NA,NA,NA,NA,NA,NA,NA,NA,NA,NA,NA,NA,NA,NA,NA,NA
"53","stim/objects/HouseObjects/flyswatter2.png",61,71,61,0.9,"stim/12.jpeg",1,2,3,NA,"HouseObjects",2,1,"right","right",0.540999889,1,1,0,1,NA,NA,NA,NA,NA,NA,NA,NA,NA,NA,NA,NA,NA,NA,NA,NA,NA,NA,NA,NA,NA,NA,NA,NA
"175","stim/objects/Instruments/frenchhorn.png",62,71,62,0.5,"stim/42.jpeg",4,2,1,NA,"Instruments",1,2,"left","right",0.529000044,0,0,0,1,NA,NA,NA,NA,NA,NA,NA,NA,NA,NA,NA,NA,NA,NA,NA,NA,NA,NA,NA,NA,NA,NA,NA,NA
"186","stim/objects/Instruments/gong2.png",63,71,63,0.1,"stim/13.jpeg",1,3,3,NA,"Instruments",1,2,"left","right",0.605999947,0,0,0,1,NA,NA,NA,NA,NA,NA,NA,NA,NA,NA,NA,NA,NA,NA,NA,NA,NA,NA,NA,NA,NA,NA,NA,NA
"97","stim/objects/HouseObjects/hairdryer.png",64,71,64,0.7,"stim/52.jpeg",5,2,2,NA,"HouseObjects",2,3,"right","right",0.5849998,1,1,0,1,NA,NA,NA,NA,NA,NA,NA,NA,NA,NA,NA,NA,NA,NA,NA,NA,NA,NA,NA,NA,NA,NA,NA,NA
"200","stim/objects/Instruments/guitarcase2.png",65,71,65,0.9,"stim/21.jpeg",2,1,3,NA,"Instruments",1,1,"left","left",0.579999924,1,1,0,1,NA,NA,NA,NA,NA,NA,NA,NA,NA,NA,NA,NA,NA,NA,NA,NA,NA,NA,NA,NA,NA,NA,NA,NA
"229","stim/objects/Instruments/hihat.png",66,71,66,0.3,"stim/54.jpeg",5,4,2,NA,"Instruments",1,2,"left","right",0.618000031,0,0,0,1,NA,NA,NA,NA,NA,NA,NA,NA,NA,NA,NA,NA,NA,NA,NA,NA,NA,NA,NA,NA,NA,NA,NA,NA
"84","stim/objects/HouseObjects/glass2.png",67,71,67,0.9,"stim/14.jpeg",1,4,3,NA,"HouseObjects",2,2,"right","right",0.553999901,1,1,0,1,NA,NA,NA,NA,NA,NA,NA,NA,NA,NA,NA,NA,NA,NA,NA,NA,NA,NA,NA,NA,NA,NA,NA,NA
"221","stim/objects/Instruments/harp2.png",68,71,68,0.9,"stim/23.jpeg",2,3,3,NA,"Instruments",1,1,"left","left",0.642999887,1,1,0,1,NA,NA,NA,NA,NA,NA,NA,NA,NA,NA,NA,NA,NA,NA,NA,NA,NA,NA,NA,NA,NA,NA,NA,NA
"40","stim/objects/HouseObjects/dustpan2.png",69,71,69,0.9,"stim/11.jpeg",1,1,3,NA,"HouseObjects",2,2,"right","right",0.563999891,1,1,0,1,NA,NA,NA,NA,NA,NA,NA,NA,NA,NA,NA,NA,NA,NA,NA,NA,NA,NA,NA,NA,NA,NA,NA,NA
"76","stim/objects/HouseObjects/glass.png",70,71,70,0.5,"stim/44.jpeg",4,4,1,NA,"HouseObjects",2,2,"right","left",0.616999865,0,0,0,1,NA,NA,NA,NA,NA,NA,NA,NA,NA,NA,NA,NA,NA,NA,NA,NA,NA,NA,NA,NA,NA,NA,NA,NA
"133","stim/objects/Instruments/electricdrumset.png",71,71,71,0.5,"stim/32.jpeg",3,2,1,NA,"Instruments",1,3,"left","",NA,0,0,0,1,NA,NA,NA,NA,NA,NA,NA,NA,NA,NA,NA,NA,NA,NA,NA,NA,NA,NA,NA,NA,NA,NA,NA,NA
"54","stim/objects/HouseObjects/flyswatter2.png",72,71,72,0.9,"stim/12.jpeg",1,2,3,NA,"HouseObjects",2,2,"right","right",0.738999844,1,1,0,1,NA,NA,NA,NA,NA,NA,NA,NA,NA,NA,NA,NA,NA,NA,NA,NA,NA,NA,NA,NA,NA,NA,NA,NA
"209","stim/objects/Instruments/harmonica2.png",73,71,73,0.9,"stim/22.jpeg",2,2,3,NA,"Instruments",1,2,"left","right",0.605000019,0,0,0,1,NA,NA,NA,NA,NA,NA,NA,NA,NA,NA,NA,NA,NA,NA,NA,NA,NA,NA,NA,NA,NA,NA,NA,NA
"210","stim/objects/Instruments/harmonica2.png",74,71,74,0.9,"stim/22.jpeg",2,2,3,NA,"Instruments",1,3,"left","left",0.661999941,1,1,0,1,NA,NA,NA,NA,NA,NA,NA,NA,NA,NA,NA,NA,NA,NA,NA,NA,NA,NA,NA,NA,NA,NA,NA,NA
"115","stim/objects/HouseObjects/handvacuum.png",75,71,75,0.7,"stim/54.jpeg",5,4,2,NA,"HouseObjects",2,4,"right","right",0.501999855,1,1,0,1,NA,NA,NA,NA,NA,NA,NA,NA,NA,NA,NA,NA,NA,NA,NA,NA,NA,NA,NA,NA,NA,NA,NA,NA
"158","stim/objects/Instruments/flute.png",76,71,76,0.5,"stim/34.jpeg",3,4,1,NA,"Instruments",1,3,"left","right",0.727999926,0,0,0,1,NA,NA,NA,NA,NA,NA,NA,NA,NA,NA,NA,NA,NA,NA,NA,NA,NA,NA,NA,NA,NA,NA,NA,NA
"98","stim/objects/HouseObjects/hairdryer.png",77,71,77,0.7,"stim/52.jpeg",5,2,2,NA,"HouseObjects",2,3,"right","right",0.575999737,1,1,0,1,NA,NA,NA,NA,NA,NA,NA,NA,NA,NA,NA,NA,NA,NA,NA,NA,NA,NA,NA,NA,NA,NA,NA,NA
"106","stim/objects/HouseObjects/handbrush.png",78,71,78,0.7,"stim/53.jpeg",5,3,2,NA,"HouseObjects",2,3,"right","right",0.614999771,1,1,0,1,NA,NA,NA,NA,NA,NA,NA,NA,NA,NA,NA,NA,NA,NA,NA,NA,NA,NA,NA,NA,NA,NA,NA,NA
"134","stim/objects/Instruments/electricdrumset.png",79,71,79,0.5,"stim/32.jpeg",3,2,1,NA,"Instruments",1,4,"left","left",0.611000061,1,1,0,1,NA,NA,NA,NA,NA,NA,NA,NA,NA,NA,NA,NA,NA,NA,NA,NA,NA,NA,NA,NA,NA,NA,NA,NA
"201","stim/objects/Instruments/guitarcase2.png",80,71,80,0.9,"stim/21.jpeg",2,1,3,NA,"Instruments",1,2,"left","left",0.645999908,1,1,0,1,NA,NA,NA,NA,NA,NA,NA,NA,NA,NA,NA,NA,NA,NA,NA,NA,NA,NA,NA,NA,NA,NA,NA,NA
"202","stim/objects/Instruments/guitarcase2.png",81,71,81,0.9,"stim/21.jpeg",2,1,3,NA,"Instruments",1,4,"left","left",0.437000036,1,1,0,1,NA,NA,NA,NA,NA,NA,NA,NA,NA,NA,NA,NA,NA,NA,NA,NA,NA,NA,NA,NA,NA,NA,NA,NA
"91","stim/objects/HouseObjects/glassmop.png",82,71,82,0.7,"stim/51.jpeg",5,1,2,NA,"HouseObjects",2,4,"right","right",0.565000057,1,1,0,1,NA,NA,NA,NA,NA,NA,NA,NA,NA,NA,NA,NA,NA,NA,NA,NA,NA,NA,NA,NA,NA,NA,NA,NA
"99","stim/objects/HouseObjects/hairdryer.png",83,71,83,0.7,"stim/52.jpeg",5,2,2,NA,"HouseObjects",2,1,"right","right",0.604000092,1,1,0,1,NA,NA,NA,NA,NA,NA,NA,NA,NA,NA,NA,NA,NA,NA,NA,NA,NA,NA,NA,NA,NA,NA,NA,NA
"135","stim/objects/Instruments/electricdrumset.png",84,71,84,0.5,"stim/32.jpeg",3,2,1,NA,"Instruments",1,4,"left","right",0.477999926,0,0,0,1,NA,NA,NA,NA,NA,NA,NA,NA,NA,NA,NA,NA,NA,NA,NA,NA,NA,NA,NA,NA,NA,NA,NA,NA
"68","stim/objects/HouseObjects/garbagebin2.png",85,71,85,0.9,"stim/13.jpeg",1,3,3,NA,"HouseObjects",2,2,"right","right",0.622999907,1,1,0,1,NA,NA,NA,NA,NA,NA,NA,NA,NA,NA,NA,NA,NA,NA,NA,NA,NA,NA,NA,NA,NA,NA,NA,NA
"230","stim/objects/Instruments/hihat.png",86,71,86,0.3,"stim/54.jpeg",5,4,2,NA,"Instruments",1,2,"left","right",0.572999954,0,0,0,1,NA,NA,NA,NA,NA,NA,NA,NA,NA,NA,NA,NA,NA,NA,NA,NA,NA,NA,NA,NA,NA,NA,NA,NA
"6","stim/objects/HouseObjects/coffee2.png",87,71,87,0.3,"stim/61.jpeg",6,1,2,NA,"HouseObjects",2,3,"right","left",0.56099987,0,0,0,1,NA,NA,NA,NA,NA,NA,NA,NA,NA,NA,NA,NA,NA,NA,NA,NA,NA,NA,NA,NA,NA,NA,NA,NA
"232","stim/objects/Instruments/hihat2.png",88,71,88,0.9,"stim/24.jpeg",2,4,3,NA,"Instruments",1,1,"left","left",0.539999962,1,1,0,1,NA,NA,NA,NA,NA,NA,NA,NA,NA,NA,NA,NA,NA,NA,NA,NA,NA,NA,NA,NA,NA,NA,NA,NA
"62","stim/objects/HouseObjects/garbagebin.png",89,71,89,0.5,"stim/43.jpeg",4,3,1,NA,"HouseObjects",2,3,"right","right",0.562000036,1,1,0,1,NA,NA,NA,NA,NA,NA,NA,NA,NA,NA,NA,NA,NA,NA,NA,NA,NA,NA,NA,NA,NA,NA,NA,NA
"142","stim/objects/Instruments/electricdrumset2.png",90,71,90,0.7,"stim/62.jpeg",6,2,2,NA,"Instruments",1,1,"left","left",0.582000017,1,1,0,1,NA,NA,NA,NA,NA,NA,NA,NA,NA,NA,NA,NA,NA,NA,NA,NA,NA,NA,NA,NA,NA,NA,NA,NA
"100","stim/objects/HouseObjects/hairdryer.png",91,71,91,0.7,"stim/52.jpeg",5,2,2,NA,"HouseObjects",2,4,"right","right",0.600999832,1,1,0,1,NA,NA,NA,NA,NA,NA,NA,NA,NA,NA,NA,NA,NA,NA,NA,NA,NA,NA,NA,NA,NA,NA,NA,NA
"69","stim/objects/HouseObjects/garbagebin2.png",92,71,92,0.9,"stim/13.jpeg",1,3,3,NA,"HouseObjects",2,1,"right","right",0.53399992,1,1,0,1,NA,NA,NA,NA,NA,NA,NA,NA,NA,NA,NA,NA,NA,NA,NA,NA,NA,NA,NA,NA,NA,NA,NA,NA
"107","stim/objects/HouseObjects/handbrush.png",93,71,93,0.7,"stim/53.jpeg",5,3,2,NA,"HouseObjects",2,1,"right","right",0.562999964,1,1,0,1,NA,NA,NA,NA,NA,NA,NA,NA,NA,NA,NA,NA,NA,NA,NA,NA,NA,NA,NA,NA,NA,NA,NA,NA
"159","stim/objects/Instruments/flute.png",94,71,94,0.5,"stim/34.jpeg",3,4,1,NA,"Instruments",1,1,"left","left",0.683999777,1,1,0,1,NA,NA,NA,NA,NA,NA,NA,NA,NA,NA,NA,NA,NA,NA,NA,NA,NA,NA,NA,NA,NA,NA,NA,NA
"70","stim/objects/HouseObjects/garbagebin2.png",95,71,95,0.9,"stim/13.jpeg",1,3,3,NA,"HouseObjects",2,1,"right","right",0.5,1,1,0,1,NA,NA,NA,NA,NA,NA,NA,NA,NA,NA,NA,NA,NA,NA,NA,NA,NA,NA,NA,NA,NA,NA,NA,NA
"35","stim/objects/HouseObjects/dustpan.png",96,71,96,0.5,"stim/41.jpeg",4,1,1,NA,"HouseObjects",2,4,"right","right",0.614000082,1,1,0,1,NA,NA,NA,NA,NA,NA,NA,NA,NA,NA,NA,NA,NA,NA,NA,NA,NA,NA,NA,NA,NA,NA,NA,NA
"129","stim/objects/Instruments/drums2.png",97,71,97,0.7,"stim/61.jpeg",6,1,2,NA,"Instruments",1,1,"left","left",0.655999899,1,1,0,1,NA,NA,NA,NA,NA,NA,NA,NA,NA,NA,NA,NA,NA,NA,NA,NA,NA,NA,NA,NA,NA,NA,NA,NA
"174","stim/objects/Instruments/flutetrans2.png",98,71,98,0.1,"stim/11.jpeg",1,1,3,NA,"Instruments",1,3,"left","right",0.537999868,0,0,0,1,NA,NA,NA,NA,NA,NA,NA,NA,NA,NA,NA,NA,NA,NA,NA,NA,NA,NA,NA,NA,NA,NA,NA,NA
"170","stim/objects/Instruments/flutetrans.png",99,71,99,0.5,"stim/41.jpeg",4,1,1,NA,"Instruments",1,2,"left","right",0.563999891,0,0,0,1,NA,NA,NA,NA,NA,NA,NA,NA,NA,NA,NA,NA,NA,NA,NA,NA,NA,NA,NA,NA,NA,NA,NA,NA
"188","stim/objects/Instruments/grandpiano.png",100,71,100,0.5,"stim/44.jpeg",4,4,1,NA,"Instruments",1,3,"left","right",0.654000044,0,0,0,1,NA,NA,NA,NA,NA,NA,NA,NA,NA,NA,NA,NA,NA,NA,NA,NA,NA,NA,NA,NA,NA,NA,NA,NA
"16","stim/objects/HouseObjects/cushion2.png",101,71,101,0.3,"stim/62.jpeg",6,2,2,NA,"HouseObjects",2,2,"right","left",0.58100009,0,0,0,1,NA,NA,NA,NA,NA,NA,NA,NA,NA,NA,NA,NA,NA,NA,NA,NA,NA,NA,NA,NA,NA,NA,NA,NA
"96","stim/objects/HouseObjects/glassmop2.png",102,71,102,0.1,"stim/21.jpeg",2,1,3,NA,"HouseObjects",2,3,"right","left",0.523999929,0,0,0,1,NA,NA,NA,NA,NA,NA,NA,NA,NA,NA,NA,NA,NA,NA,NA,NA,NA,NA,NA,NA,NA,NA,NA,NA
"71","stim/objects/HouseObjects/garbagebin2.png",103,71,103,0.9,"stim/13.jpeg",1,3,3,NA,"HouseObjects",2,3,"right","right",0.621999979,1,1,0,1,NA,NA,NA,NA,NA,NA,NA,NA,NA,NA,NA,NA,NA,NA,NA,NA,NA,NA,NA,NA,NA,NA,NA,NA
"153","stim/objects/Instruments/electricguitar2.png",104,71,104,0.7,"stim/63.jpeg",6,3,2,NA,"Instruments",1,1,"left","left",0.628999949,1,1,0,1,NA,NA,NA,NA,NA,NA,NA,NA,NA,NA,NA,NA,NA,NA,NA,NA,NA,NA,NA,NA,NA,NA,NA,NA
"27","stim/objects/HouseObjects/doormat.png",105,71,105,0.5,"stim/34.jpeg",3,4,1,NA,"HouseObjects",2,1,"right","right",0.769999743,1,1,0,1,NA,NA,NA,NA,NA,NA,NA,NA,NA,NA,NA,NA,NA,NA,NA,NA,NA,NA,NA,NA,NA,NA,NA,NA
"233","stim/objects/Instruments/hihat2.png",106,71,106,0.9,"stim/24.jpeg",2,4,3,NA,"Instruments",1,4,"left","left",0.566999912,1,1,0,1,NA,NA,NA,NA,NA,NA,NA,NA,NA,NA,NA,NA,NA,NA,NA,NA,NA,NA,NA,NA,NA,NA,NA,NA
"234","stim/objects/Instruments/hihat2.png",107,71,107,0.9,"stim/24.jpeg",2,4,3,NA,"Instruments",1,4,"left","left",0.459000111,1,1,0,1,NA,NA,NA,NA,NA,NA,NA,NA,NA,NA,NA,NA,NA,NA,NA,NA,NA,NA,NA,NA,NA,NA,NA,NA
"1","stim/objects/HouseObjects/coffee.png",108,71,108,0.5,"stim/31.jpeg",3,1,1,NA,"HouseObjects",2,1,"right","right",0.577000141,1,1,0,1,NA,NA,NA,NA,NA,NA,NA,NA,NA,NA,NA,NA,NA,NA,NA,NA,NA,NA,NA,NA,NA,NA,NA,NA
"112","stim/objects/HouseObjects/handbrush2.png",109,71,109,0.1,"stim/23.jpeg",2,3,3,NA,"HouseObjects",2,4,"right","left",0.583999872,0,0,0,1,NA,NA,NA,NA,NA,NA,NA,NA,NA,NA,NA,NA,NA,NA,NA,NA,NA,NA,NA,NA,NA,NA,NA,NA
"130","stim/objects/Instruments/drums2.png",110,71,110,0.7,"stim/61.jpeg",6,1,2,NA,"Instruments",1,2,"left","left",0.575999975,1,1,0,1,NA,NA,NA,NA,NA,NA,NA,NA,NA,NA,NA,NA,NA,NA,NA,NA,NA,NA,NA,NA,NA,NA,NA,NA
"101","stim/objects/HouseObjects/hairdryer.png",111,71,111,0.7,"stim/52.jpeg",5,2,2,NA,"HouseObjects",2,2,"right","right",0.522999763,1,1,0,1,NA,NA,NA,NA,NA,NA,NA,NA,NA,NA,NA,NA,NA,NA,NA,NA,NA,NA,NA,NA,NA,NA,NA,NA
"108","stim/objects/HouseObjects/handbrush.png",112,71,112,0.7,"stim/53.jpeg",5,3,2,NA,"HouseObjects",2,3,"right","left",0.569999933,0,0,0,1,NA,NA,NA,NA,NA,NA,NA,NA,NA,NA,NA,NA,NA,NA,NA,NA,NA,NA,NA,NA,NA,NA,NA,NA
"235","stim/objects/Instruments/hihat2.png",113,71,113,0.9,"stim/24.jpeg",2,4,3,NA,"Instruments",1,3,"left","left",0.743999958,1,1,0,1,NA,NA,NA,NA,NA,NA,NA,NA,NA,NA,NA,NA,NA,NA,NA,NA,NA,NA,NA,NA,NA,NA,NA,NA
"92","stim/objects/HouseObjects/glassmop.png",114,71,114,0.7,"stim/51.jpeg",5,1,2,NA,"HouseObjects",2,4,"right","right",0.617999792,1,1,0,1,NA,NA,NA,NA,NA,NA,NA,NA,NA,NA,NA,NA,NA,NA,NA,NA,NA,NA,NA,NA,NA,NA,NA,NA
"55","stim/objects/HouseObjects/flyswatter2.png",115,71,115,0.9,"stim/12.jpeg",1,2,3,NA,"HouseObjects",2,4,"right","right",0.635999918,1,1,0,1,NA,NA,NA,NA,NA,NA,NA,NA,NA,NA,NA,NA,NA,NA,NA,NA,NA,NA,NA,NA,NA,NA,NA,NA
"136","stim/objects/Instruments/electricdrumset.png",116,71,116,0.5,"stim/32.jpeg",3,2,1,NA,"Instruments",1,2,"left","right",0.794999838,0,0,0,1,NA,NA,NA,NA,NA,NA,NA,NA,NA,NA,NA,NA,NA,NA,NA,NA,NA,NA,NA,NA,NA,NA,NA,NA
"22","stim/objects/HouseObjects/dishsoap2.png",117,71,117,0.3,"stim/63.jpeg",6,3,2,NA,"HouseObjects",2,4,"right","left",0.630999804,0,0,0,1,NA,NA,NA,NA,NA,NA,NA,NA,NA,NA,NA,NA,NA,NA,NA,NA,NA,NA,NA,NA,NA,NA,NA,NA
"154","stim/objects/Instruments/electricguitar2.png",118,71,118,0.7,"stim/63.jpeg",6,3,2,NA,"Instruments",1,2,"left","left",0.524999857,1,1,0,1,NA,NA,NA,NA,NA,NA,NA,NA,NA,NA,NA,NA,NA,NA,NA,NA,NA,NA,NA,NA,NA,NA,NA,NA
"182","stim/objects/Instruments/gong.png",119,71,119,0.5,"stim/43.jpeg",4,3,1,NA,"Instruments",1,2,"left","right",0.717000008,0,0,0,1,NA,NA,NA,NA,NA,NA,NA,NA,NA,NA,NA,NA,NA,NA,NA,NA,NA,NA,NA,NA,NA,NA,NA,NA
"10","stim/objects/HouseObjects/cushion.png",120,71,120,0.5,"stim/32.jpeg",3,2,1,NA,"HouseObjects",2,1,"right","right",0.648000002,1,1,0,1,NA,NA,NA,NA,NA,NA,NA,NA,NA,NA,NA,NA,NA,NA,NA,NA,NA,NA,NA,NA,NA,NA,NA,NA
"36","stim/objects/HouseObjects/dustpan.png",121,71,121,0.5,"stim/41.jpeg",4,1,1,NA,"HouseObjects",2,4,"right","right",0.789999962,1,1,0,1,NA,NA,NA,NA,NA,NA,NA,NA,NA,NA,NA,NA,NA,NA,NA,NA,NA,NA,NA,NA,NA,NA,NA,NA
"2","stim/objects/HouseObjects/coffee.png",122,71,122,0.5,"stim/31.jpeg",3,1,1,NA,"HouseObjects",2,2,"right","left",0.745999813,0,0,0,1,NA,NA,NA,NA,NA,NA,NA,NA,NA,NA,NA,NA,NA,NA,NA,NA,NA,NA,NA,NA,NA,NA,NA,NA
"63","stim/objects/HouseObjects/garbagebin.png",123,71,123,0.5,"stim/43.jpeg",4,3,1,NA,"HouseObjects",2,1,"right","",NA,0,0,0,1,NA,NA,NA,NA,NA,NA,NA,NA,NA,NA,NA,NA,NA,NA,NA,NA,NA,NA,NA,NA,NA,NA,NA,NA
"11","stim/objects/HouseObjects/cushion.png",124,71,124,0.5,"stim/32.jpeg",3,2,1,NA,"HouseObjects",2,1,"right","right",0.695999861,1,1,0,1,NA,NA,NA,NA,NA,NA,NA,NA,NA,NA,NA,NA,NA,NA,NA,NA,NA,NA,NA,NA,NA,NA,NA,NA
"236","stim/objects/Instruments/hihat2.png",125,71,125,0.9,"stim/24.jpeg",2,4,3,NA,"Instruments",1,3,"left","left",0.520999908,1,1,0,1,NA,NA,NA,NA,NA,NA,NA,NA,NA,NA,NA,NA,NA,NA,NA,NA,NA,NA,NA,NA,NA,NA,NA,NA
"77","stim/objects/HouseObjects/glass.png",126,71,126,0.5,"stim/44.jpeg",4,4,1,NA,"HouseObjects",2,1,"right","right",0.598999977,1,1,0,1,NA,NA,NA,NA,NA,NA,NA,NA,NA,NA,NA,NA,NA,NA,NA,NA,NA,NA,NA,NA,NA,NA,NA,NA
"109","stim/objects/HouseObjects/handbrush.png",127,71,127,0.7,"stim/53.jpeg",5,3,2,NA,"HouseObjects",2,3,"right","right",0.502999783,1,1,0,1,NA,NA,NA,NA,NA,NA,NA,NA,NA,NA,NA,NA,NA,NA,NA,NA,NA,NA,NA,NA,NA,NA,NA,NA
"56","stim/objects/HouseObjects/flyswatter2.png",128,71,128,0.9,"stim/12.jpeg",1,2,3,NA,"HouseObjects",2,4,"right","right",0.548999786,1,1,0,1,NA,NA,NA,NA,NA,NA,NA,NA,NA,NA,NA,NA,NA,NA,NA,NA,NA,NA,NA,NA,NA,NA,NA,NA
"237","stim/objects/Instruments/hihat2.png",129,71,129,0.9,"stim/24.jpeg",2,4,3,NA,"Instruments",1,4,"left","left",0.786000013,1,1,0,1,NA,NA,NA,NA,NA,NA,NA,NA,NA,NA,NA,NA,NA,NA,NA,NA,NA,NA,NA,NA,NA,NA,NA,NA
"194","stim/objects/Instruments/guitarcase.png",130,71,130,0.3,"stim/51.jpeg",5,1,2,NA,"Instruments",1,1,"left","right",0.562999964,0,0,0,1,NA,NA,NA,NA,NA,NA,NA,NA,NA,NA,NA,NA,NA,NA,NA,NA,NA,NA,NA,NA,NA,NA,NA,NA
"57","stim/objects/HouseObjects/flyswatter2.png",131,71,131,0.9,"stim/12.jpeg",1,2,3,NA,"HouseObjects",2,1,"right","right",0.526000023,1,1,0,1,NA,NA,NA,NA,NA,NA,NA,NA,NA,NA,NA,NA,NA,NA,NA,NA,NA,NA,NA,NA,NA,NA,NA,NA
"211","stim/objects/Instruments/harmonica2.png",132,71,132,0.9,"stim/22.jpeg",2,2,3,NA,"Instruments",1,4,"left","left",0.547999859,1,1,0,1,NA,NA,NA,NA,NA,NA,NA,NA,NA,NA,NA,NA,NA,NA,NA,NA,NA,NA,NA,NA,NA,NA,NA,NA
"12","stim/objects/HouseObjects/cushion.png",133,71,133,0.5,"stim/32.jpeg",3,2,1,NA,"HouseObjects",2,4,"right","right",0.569999933,1,1,0,1,NA,NA,NA,NA,NA,NA,NA,NA,NA,NA,NA,NA,NA,NA,NA,NA,NA,NA,NA,NA,NA,NA,NA,NA
"218","stim/objects/Instruments/harp.png",134,71,134,0.3,"stim/53.jpeg",5,3,2,NA,"Instruments",1,1,"left","right",0.669999838,0,0,0,1,NA,NA,NA,NA,NA,NA,NA,NA,NA,NA,NA,NA,NA,NA,NA,NA,NA,NA,NA,NA,NA,NA,NA,NA
"176","stim/objects/Instruments/frenchhorn.png",135,71,135,0.5,"stim/42.jpeg",4,2,1,NA,"Instruments",1,3,"left","right",0.670999765,0,0,0,1,NA,NA,NA,NA,NA,NA,NA,NA,NA,NA,NA,NA,NA,NA,NA,NA,NA,NA,NA,NA,NA,NA,NA,NA
"222","stim/objects/Instruments/harp2.png",136,71,136,0.9,"stim/23.jpeg",2,3,3,NA,"Instruments",1,1,"left","left",0.575999975,1,1,0,1,NA,NA,NA,NA,NA,NA,NA,NA,NA,NA,NA,NA,NA,NA,NA,NA,NA,NA,NA,NA,NA,NA,NA,NA
"49","stim/objects/HouseObjects/flyswatter.png",137,71,137,0.5,"stim/42.jpeg",4,2,1,NA,"HouseObjects",2,3,"right","right",0.527999878,1,1,0,1,NA,NA,NA,NA,NA,NA,NA,NA,NA,NA,NA,NA,NA,NA,NA,NA,NA,NA,NA,NA,NA,NA,NA,NA
"238","stim/objects/Instruments/hihat2.png",138,71,138,0.9,"stim/24.jpeg",2,4,3,NA,"Instruments",1,1,"left","left",0.476999998,1,1,0,1,NA,NA,NA,NA,NA,NA,NA,NA,NA,NA,NA,NA,NA,NA,NA,NA,NA,NA,NA,NA,NA,NA,NA,NA
"64","stim/objects/HouseObjects/garbagebin.png",139,71,139,0.5,"stim/43.jpeg",4,3,1,NA,"HouseObjects",2,1,"right","right",0.602999926,1,1,0,1,NA,NA,NA,NA,NA,NA,NA,NA,NA,NA,NA,NA,NA,NA,NA,NA,NA,NA,NA,NA,NA,NA,NA,NA
"239","stim/objects/Instruments/hihat2.png",140,71,140,0.9,"stim/24.jpeg",2,4,3,NA,"Instruments",1,2,"left","left",0.59800005,1,1,0,1,NA,NA,NA,NA,NA,NA,NA,NA,NA,NA,NA,NA,NA,NA,NA,NA,NA,NA,NA,NA,NA,NA,NA,NA
"203","stim/objects/Instruments/guitarcase2.png",141,71,141,0.9,"stim/21.jpeg",2,1,3,NA,"Instruments",1,2,"left","left",0.518000126,1,1,0,1,NA,NA,NA,NA,NA,NA,NA,NA,NA,NA,NA,NA,NA,NA,NA,NA,NA,NA,NA,NA,NA,NA,NA,NA
"212","stim/objects/Instruments/harmonica2.png",142,71,142,0.9,"stim/22.jpeg",2,2,3,NA,"Instruments",1,4,"left","left",0.609999895,1,1,0,1,NA,NA,NA,NA,NA,NA,NA,NA,NA,NA,NA,NA,NA,NA,NA,NA,NA,NA,NA,NA,NA,NA,NA,NA
"146","stim/objects/Instruments/electricguitar.png",143,71,143,0.5,"stim/33.jpeg",3,3,1,NA,"Instruments",1,4,"left","right",0.611000061,0,0,0,1,NA,NA,NA,NA,NA,NA,NA,NA,NA,NA,NA,NA,NA,NA,NA,NA,NA,NA,NA,NA,NA,NA,NA,NA
"223","stim/objects/Instruments/harp2.png",144,71,144,0.9,"stim/23.jpeg",2,3,3,NA,"Instruments",1,4,"left","left",0.545000076,1,1,0,1,NA,NA,NA,NA,NA,NA,NA,NA,NA,NA,NA,NA,NA,NA,NA,NA,NA,NA,NA,NA,NA,NA,NA,NA
"58","stim/objects/HouseObjects/flyswatter2.png",145,71,145,0.9,"stim/12.jpeg",1,2,3,NA,"HouseObjects",2,3,"right","right",0.528999805,1,1,0,1,NA,NA,NA,NA,NA,NA,NA,NA,NA,NA,NA,NA,NA,NA,NA,NA,NA,NA,NA,NA,NA,NA,NA,NA
"7","stim/objects/HouseObjects/coffee2.png",146,71,146,0.3,"stim/61.jpeg",6,1,2,NA,"HouseObjects",2,3,"right","left",0.575999975,0,0,0,1,NA,NA,NA,NA,NA,NA,NA,NA,NA,NA,NA,NA,NA,NA,NA,NA,NA,NA,NA,NA,NA,NA,NA,NA
"213","stim/objects/Instruments/harmonica2.png",147,71,147,0.9,"stim/22.jpeg",2,2,3,NA,"Instruments",1,2,"left","left",0.652999878,1,1,0,1,NA,NA,NA,NA,NA,NA,NA,NA,NA,NA,NA,NA,NA,NA,NA,NA,NA,NA,NA,NA,NA,NA,NA,NA
"85","stim/objects/HouseObjects/glass2.png",148,71,148,0.9,"stim/14.jpeg",1,4,3,NA,"HouseObjects",2,3,"right","right",0.60800004,1,1,0,1,NA,NA,NA,NA,NA,NA,NA,NA,NA,NA,NA,NA,NA,NA,NA,NA,NA,NA,NA,NA,NA,NA,NA,NA
"13","stim/objects/HouseObjects/cushion.png",149,71,149,0.5,"stim/32.jpeg",3,2,1,NA,"HouseObjects",2,3,"right","right",0.744999886,1,1,0,1,NA,NA,NA,NA,NA,NA,NA,NA,NA,NA,NA,NA,NA,NA,NA,NA,NA,NA,NA,NA,NA,NA,NA,NA
"37","stim/objects/HouseObjects/dustpan.png",150,71,150,0.5,"stim/41.jpeg",4,1,1,NA,"HouseObjects",2,1,"right","",NA,0,0,0,1,NA,NA,NA,NA,NA,NA,NA,NA,NA,NA,NA,NA,NA,NA,NA,NA,NA,NA,NA,NA,NA,NA,NA,NA
"86","stim/objects/HouseObjects/glass2.png",151,71,151,0.9,"stim/14.jpeg",1,4,3,NA,"HouseObjects",2,1,"right","right",0.557999849,1,1,0,1,NA,NA,NA,NA,NA,NA,NA,NA,NA,NA,NA,NA,NA,NA,NA,NA,NA,NA,NA,NA,NA,NA,NA,NA
"65","stim/objects/HouseObjects/garbagebin.png",152,71,152,0.5,"stim/43.jpeg",4,3,1,NA,"HouseObjects",2,4,"right","right",0.629999876,1,1,0,1,NA,NA,NA,NA,NA,NA,NA,NA,NA,NA,NA,NA,NA,NA,NA,NA,NA,NA,NA,NA,NA,NA,NA,NA
"214","stim/objects/Instruments/harmonica2.png",153,71,153,0.9,"stim/22.jpeg",2,2,3,NA,"Instruments",1,3,"left","left",0.451999903,1,1,0,1,NA,NA,NA,NA,NA,NA,NA,NA,NA,NA,NA,NA,NA,NA,NA,NA,NA,NA,NA,NA,NA,NA,NA,NA
"231","stim/objects/Instruments/hihat.png",154,71,154,0.3,"stim/54.jpeg",5,4,2,NA,"Instruments",1,1,"left","right",0.502000093,0,0,0,1,NA,NA,NA,NA,NA,NA,NA,NA,NA,NA,NA,NA,NA,NA,NA,NA,NA,NA,NA,NA,NA,NA,NA,NA
"102","stim/objects/HouseObjects/hairdryer.png",155,71,155,0.7,"stim/52.jpeg",5,2,2,NA,"HouseObjects",2,2,"right","right",0.779999971,1,1,0,1,NA,NA,NA,NA,NA,NA,NA,NA,NA,NA,NA,NA,NA,NA,NA,NA,NA,NA,NA,NA,NA,NA,NA,NA
"224","stim/objects/Instruments/harp2.png",156,71,156,0.9,"stim/23.jpeg",2,3,3,NA,"Instruments",1,4,"left","left",0.541999817,1,1,0,1,NA,NA,NA,NA,NA,NA,NA,NA,NA,NA,NA,NA,NA,NA,NA,NA,NA,NA,NA,NA,NA,NA,NA,NA
"41","stim/objects/HouseObjects/dustpan2.png",157,71,157,0.9,"stim/11.jpeg",1,1,3,NA,"HouseObjects",2,4,"right","right",0.496000051,1,1,0,1,NA,NA,NA,NA,NA,NA,NA,NA,NA,NA,NA,NA,NA,NA,NA,NA,NA,NA,NA,NA,NA,NA,NA,NA
"59","stim/objects/HouseObjects/flyswatter2.png",158,71,158,0.9,"stim/12.jpeg",1,2,3,NA,"HouseObjects",2,2,"right","right",0.519999981,1,1,0,1,NA,NA,NA,NA,NA,NA,NA,NA,NA,NA,NA,NA,NA,NA,NA,NA,NA,NA,NA,NA,NA,NA,NA,NA
"18","stim/objects/HouseObjects/dishsoap.png",159,71,159,0.5,"stim/33.jpeg",3,3,1,NA,"HouseObjects",2,2,"right","left",0.694999933,0,0,0,1,NA,NA,NA,NA,NA,NA,NA,NA,NA,NA,NA,NA,NA,NA,NA,NA,NA,NA,NA,NA,NA,NA,NA,NA
"103","stim/objects/HouseObjects/hairdryer.png",160,71,160,0.7,"stim/52.jpeg",5,2,2,NA,"HouseObjects",2,3,"right","right",0.575999975,1,1,0,1,NA,NA,NA,NA,NA,NA,NA,NA,NA,NA,NA,NA,NA,NA,NA,NA,NA,NA,NA,NA,NA,NA,NA,NA
"110","stim/objects/HouseObjects/handbrush.png",161,71,161,0.7,"stim/53.jpeg",5,3,2,NA,"HouseObjects",2,2,"right","right",0.682999849,1,1,0,1,NA,NA,NA,NA,NA,NA,NA,NA,NA,NA,NA,NA,NA,NA,NA,NA,NA,NA,NA,NA,NA,NA,NA,NA
"116","stim/objects/HouseObjects/handvacuum.png",162,71,162,0.7,"stim/54.jpeg",5,4,2,NA,"HouseObjects",2,1,"right","",NA,0,0,0,1,NA,NA,NA,NA,NA,NA,NA,NA,NA,NA,NA,NA,NA,NA,NA,NA,NA,NA,NA,NA,NA,NA,NA,NA
"31","stim/objects/HouseObjects/doormat2.png",163,71,163,0.3,"stim/64.jpeg",6,4,2,NA,"HouseObjects",2,2,"right","right",0.617999792,1,1,0,1,NA,NA,NA,NA,NA,NA,NA,NA,NA,NA,NA,NA,NA,NA,NA,NA,NA,NA,NA,NA,NA,NA,NA,NA
"219","stim/objects/Instruments/harp.png",164,71,164,0.3,"stim/53.jpeg",5,3,2,NA,"Instruments",1,1,"left","right",0.602999926,0,0,0,1,NA,NA,NA,NA,NA,NA,NA,NA,NA,NA,NA,NA,NA,NA,NA,NA,NA,NA,NA,NA,NA,NA,NA,NA
"143","stim/objects/Instruments/electricdrumset2.png",165,71,165,0.7,"stim/62.jpeg",6,2,2,NA,"Instruments",1,3,"left","left",0.493999958,1,1,0,1,NA,NA,NA,NA,NA,NA,NA,NA,NA,NA,NA,NA,NA,NA,NA,NA,NA,NA,NA,NA,NA,NA,NA,NA
"177","stim/objects/Instruments/frenchhorn.png",166,71,166,0.5,"stim/42.jpeg",4,2,1,NA,"Instruments",1,4,"left","right",0.529999971,0,0,0,1,NA,NA,NA,NA,NA,NA,NA,NA,NA,NA,NA,NA,NA,NA,NA,NA,NA,NA,NA,NA,NA,NA,NA,NA
"225","stim/objects/Instruments/harp2.png",167,71,167,0.9,"stim/23.jpeg",2,3,3,NA,"Instruments",1,2,"left","left",0.509000063,1,1,0,1,NA,NA,NA,NA,NA,NA,NA,NA,NA,NA,NA,NA,NA,NA,NA,NA,NA,NA,NA,NA,NA,NA,NA,NA
"131","stim/objects/Instruments/drums2.png",168,71,168,0.7,"stim/61.jpeg",6,1,2,NA,"Instruments",1,1,"left","left",0.475999832,1,1,0,1,NA,NA,NA,NA,NA,NA,NA,NA,NA,NA,NA,NA,NA,NA,NA,NA,NA,NA,NA,NA,NA,NA,NA,NA
"117","stim/objects/HouseObjects/handvacuum.png",169,71,169,0.7,"stim/54.jpeg",5,4,2,NA,"HouseObjects",2,3,"right","right",0.596999884,1,1,0,1,NA,NA,NA,NA,NA,NA,NA,NA,NA,NA,NA,NA,NA,NA,NA,NA,NA,NA,NA,NA,NA,NA,NA,NA
"23","stim/objects/HouseObjects/dishsoap2.png",170,71,170,0.3,"stim/63.jpeg",6,3,2,NA,"HouseObjects",2,2,"right","left",0.443999767,0,0,0,1,NA,NA,NA,NA,NA,NA,NA,NA,NA,NA,NA,NA,NA,NA,NA,NA,NA,NA,NA,NA,NA,NA,NA,NA
"78","stim/objects/HouseObjects/glass.png",171,71,171,0.5,"stim/44.jpeg",4,4,1,NA,"HouseObjects",2,3,"right","left",0.473999977,0,0,0,1,NA,NA,NA,NA,NA,NA,NA,NA,NA,NA,NA,NA,NA,NA,NA,NA,NA,NA,NA,NA,NA,NA,NA,NA
"206","stim/objects/Instruments/harmonica.png",172,71,172,0.3,"stim/52.jpeg",5,2,2,NA,"Instruments",1,2,"left","right",0.513999939,0,0,0,1,NA,NA,NA,NA,NA,NA,NA,NA,NA,NA,NA,NA,NA,NA,NA,NA,NA,NA,NA,NA,NA,NA,NA,NA
"42","stim/objects/HouseObjects/dustpan2.png",173,71,173,0.9,"stim/11.jpeg",1,1,3,NA,"HouseObjects",2,4,"right","right",0.544999838,1,1,0,1,NA,NA,NA,NA,NA,NA,NA,NA,NA,NA,NA,NA,NA,NA,NA,NA,NA,NA,NA,NA,NA,NA,NA,NA
"19","stim/objects/HouseObjects/dishsoap.png",174,71,174,0.5,"stim/33.jpeg",3,3,1,NA,"HouseObjects",2,3,"right","right",0.559000015,1,1,0,1,NA,NA,NA,NA,NA,NA,NA,NA,NA,NA,NA,NA,NA,NA,NA,NA,NA,NA,NA,NA,NA,NA,NA,NA
"215","stim/objects/Instruments/harmonica2.png",175,71,175,0.9,"stim/22.jpeg",2,2,3,NA,"Instruments",1,3,"left","left",0.697000027,1,1,0,1,NA,NA,NA,NA,NA,NA,NA,NA,NA,NA,NA,NA,NA,NA,NA,NA,NA,NA,NA,NA,NA,NA,NA,NA
"72","stim/objects/HouseObjects/garbagebin2.png",176,71,176,0.9,"stim/13.jpeg",1,3,3,NA,"HouseObjects",2,3,"right","right",0.518999815,1,1,0,1,NA,NA,NA,NA,NA,NA,NA,NA,NA,NA,NA,NA,NA,NA,NA,NA,NA,NA,NA,NA,NA,NA,NA,NA
"155","stim/objects/Instruments/electricguitar2.png",177,71,177,0.7,"stim/63.jpeg",6,3,2,NA,"Instruments",1,2,"left","right",0.72300005,0,0,0,1,NA,NA,NA,NA,NA,NA,NA,NA,NA,NA,NA,NA,NA,NA,NA,NA,NA,NA,NA,NA,NA,NA,NA,NA
"24","stim/objects/HouseObjects/dishsoap2.png",178,71,178,0.3,"stim/63.jpeg",6,3,2,NA,"HouseObjects",2,4,"right","left",0.600999832,0,0,0,1,NA,NA,NA,NA,NA,NA,NA,NA,NA,NA,NA,NA,NA,NA,NA,NA,NA,NA,NA,NA,NA,NA,NA,NA
"204","stim/objects/Instruments/guitarcase2.png",179,71,179,0.9,"stim/21.jpeg",2,1,3,NA,"Instruments",1,1,"left","left",0.763999939,1,1,0,1,NA,NA,NA,NA,NA,NA,NA,NA,NA,NA,NA,NA,NA,NA,NA,NA,NA,NA,NA,NA,NA,NA,NA,NA
"124","stim/objects/Instruments/drums.png",180,71,180,0.5,"stim/31.jpeg",3,1,1,NA,"Instruments",1,2,"left","right",0.813999891,0,0,0,1,NA,NA,NA,NA,NA,NA,NA,NA,NA,NA,NA,NA,NA,NA,NA,NA,NA,NA,NA,NA,NA,NA,NA,NA
"28","stim/objects/HouseObjects/doormat.png",181,71,181,0.5,"stim/34.jpeg",3,4,1,NA,"HouseObjects",2,1,"right","right",0.901000023,1,1,0,1,NA,NA,NA,NA,NA,NA,NA,NA,NA,NA,NA,NA,NA,NA,NA,NA,NA,NA,NA,NA,NA,NA,NA,NA
"240","stim/objects/Instruments/hihat2.png",182,71,182,0.9,"stim/24.jpeg",2,4,3,NA,"Instruments",1,1,"left","left",0.61899972,1,1,0,1,NA,NA,NA,NA,NA,NA,NA,NA,NA,NA,NA,NA,NA,NA,NA,NA,NA,NA,NA,NA,NA,NA,NA,NA
"8","stim/objects/HouseObjects/coffee2.png",183,71,183,0.3,"stim/61.jpeg",6,1,2,NA,"HouseObjects",2,2,"right","left",0.731999874,0,0,0,1,NA,NA,NA,NA,NA,NA,NA,NA,NA,NA,NA,NA,NA,NA,NA,NA,NA,NA,NA,NA,NA,NA,NA,NA
"32","stim/objects/HouseObjects/doormat2.png",184,71,184,0.3,"stim/64.jpeg",6,4,2,NA,"HouseObjects",2,4,"right","left",0.740999937,0,0,0,1,NA,NA,NA,NA,NA,NA,NA,NA,NA,NA,NA,NA,NA,NA,NA,NA,NA,NA,NA,NA,NA,NA,NA,NA
"216","stim/objects/Instruments/harmonica2.png",185,71,185,0.9,"stim/22.jpeg",2,2,3,NA,"Instruments",1,1,"left","left",0.713999987,1,1,0,1,NA,NA,NA,NA,NA,NA,NA,NA,NA,NA,NA,NA,NA,NA,NA,NA,NA,NA,NA,NA,NA,NA,NA,NA
"226","stim/objects/Instruments/harp2.png",186,71,186,0.9,"stim/23.jpeg",2,3,3,NA,"Instruments",1,1,"left","left",0.569999933,1,1,0,1,NA,NA,NA,NA,NA,NA,NA,NA,NA,NA,NA,NA,NA,NA,NA,NA,NA,NA,NA,NA,NA,NA,NA,NA
"137","stim/objects/Instruments/electricdrumset.png",187,71,187,0.5,"stim/32.jpeg",3,2,1,NA,"Instruments",1,4,"left","right",0.664999962,0,0,0,1,NA,NA,NA,NA,NA,NA,NA,NA,NA,NA,NA,NA,NA,NA,NA,NA,NA,NA,NA,NA,NA,NA,NA,NA
"171","stim/objects/Instruments/flutetrans.png",188,71,188,0.5,"stim/41.jpeg",4,1,1,NA,"Instruments",1,4,"left","right",0.710000038,0,0,0,1,NA,NA,NA,NA,NA,NA,NA,NA,NA,NA,NA,NA,NA,NA,NA,NA,NA,NA,NA,NA,NA,NA,NA,NA
"87","stim/objects/HouseObjects/glass2.png",189,71,189,0.9,"stim/14.jpeg",1,4,3,NA,"HouseObjects",2,1,"right","right",0.671999931,1,1,0,1,NA,NA,NA,NA,NA,NA,NA,NA,NA,NA,NA,NA,NA,NA,NA,NA,NA,NA,NA,NA,NA,NA,NA,NA
"160","stim/objects/Instruments/flute.png",190,71,190,0.5,"stim/34.jpeg",3,4,1,NA,"Instruments",1,3,"left","left",0.478999853,1,1,0,1,NA,NA,NA,NA,NA,NA,NA,NA,NA,NA,NA,NA,NA,NA,NA,NA,NA,NA,NA,NA,NA,NA,NA,NA
"144","stim/objects/Instruments/electricdrumset2.png",191,71,191,0.7,"stim/62.jpeg",6,2,2,NA,"Instruments",1,4,"left","left",0.603999853,1,1,0,1,NA,NA,NA,NA,NA,NA,NA,NA,NA,NA,NA,NA,NA,NA,NA,NA,NA,NA,NA,NA,NA,NA,NA,NA
"125","stim/objects/Instruments/drums.png",192,71,192,0.5,"stim/31.jpeg",3,1,1,NA,"Instruments",1,1,"left","right",0.686999798,0,0,0,1,NA,NA,NA,NA,NA,NA,NA,NA,NA,NA,NA,NA,NA,NA,NA,NA,NA,NA,NA,NA,NA,NA,NA,NA
"60","stim/objects/HouseObjects/flyswatter2.png",193,71,193,0.9,"stim/12.jpeg",1,2,3,NA,"HouseObjects",2,4,"right","right",0.513999939,1,1,0,1,NA,NA,NA,NA,NA,NA,NA,NA,NA,NA,NA,NA,NA,NA,NA,NA,NA,NA,NA,NA,NA,NA,NA,NA
"29","stim/objects/HouseObjects/doormat.png",194,71,194,0.5,"stim/34.jpeg",3,4,1,NA,"HouseObjects",2,1,"right","right",0.60199976,1,1,0,1,NA,NA,NA,NA,NA,NA,NA,NA,NA,NA,NA,NA,NA,NA,NA,NA,NA,NA,NA,NA,NA,NA,NA,NA
"147","stim/objects/Instruments/electricguitar.png",195,71,195,0.5,"stim/33.jpeg",3,3,1,NA,"Instruments",1,3,"left","",NA,0,0,0,1,NA,NA,NA,NA,NA,NA,NA,NA,NA,NA,NA,NA,NA,NA,NA,NA,NA,NA,NA,NA,NA,NA,NA,NA
"166","stim/objects/Instruments/flute2.png",196,71,196,0.7,"stim/64.jpeg",6,4,2,NA,"Instruments",1,1,"left","left",0.765999794,1,1,0,1,NA,NA,NA,NA,NA,NA,NA,NA,NA,NA,NA,NA,NA,NA,NA,NA,NA,NA,NA,NA,NA,NA,NA,NA
"118","stim/objects/HouseObjects/handvacuum.png",197,71,197,0.7,"stim/54.jpeg",5,4,2,NA,"HouseObjects",2,2,"right","right",0.701999903,1,1,0,1,NA,NA,NA,NA,NA,NA,NA,NA,NA,NA,NA,NA,NA,NA,NA,NA,NA,NA,NA,NA,NA,NA,NA,NA
"227","stim/objects/Instruments/harp2.png",198,71,198,0.9,"stim/23.jpeg",2,3,3,NA,"Instruments",1,3,"left","left",0.44900012,1,1,0,1,NA,NA,NA,NA,NA,NA,NA,NA,NA,NA,NA,NA,NA,NA,NA,NA,NA,NA,NA,NA,NA,NA,NA,NA
"3","stim/objects/HouseObjects/coffee.png",199,71,199,0.5,"stim/31.jpeg",3,1,1,NA,"HouseObjects",2,4,"right","right",0.385999918,1,1,0,1,NA,NA,NA,NA,NA,NA,NA,NA,NA,NA,NA,NA,NA,NA,NA,NA,NA,NA,NA,NA,NA,NA,NA,NA
"120","stim/objects/HouseObjects/handvacuum2.png",200,71,200,0.1,"stim/24.jpeg",2,4,3,NA,"HouseObjects",2,3,"right","left",0.480999947,0,0,0,1,NA,NA,NA,NA,NA,NA,NA,NA,NA,NA,NA,NA,NA,NA,NA,NA,NA,NA,NA,NA,NA,NA,NA,NA
"50","stim/objects/HouseObjects/flyswatter.png",201,71,201,0.5,"stim/42.jpeg",4,2,1,NA,"HouseObjects",2,2,"right","right",0.618999958,1,1,0,1,NA,NA,NA,NA,NA,NA,NA,NA,NA,NA,NA,NA,NA,NA,NA,NA,NA,NA,NA,NA,NA,NA,NA,NA
"51","stim/objects/HouseObjects/flyswatter.png",202,71,202,0.5,"stim/42.jpeg",4,2,1,NA,"HouseObjects",2,4,"right","right",0.432999849,1,1,0,1,NA,NA,NA,NA,NA,NA,NA,NA,NA,NA,NA,NA,NA,NA,NA,NA,NA,NA,NA,NA,NA,NA,NA,NA
"167","stim/objects/Instruments/flute2.png",203,71,203,0.7,"stim/64.jpeg",6,4,2,NA,"Instruments",1,2,"left","left",0.525000095,1,1,0,1,NA,NA,NA,NA,NA,NA,NA,NA,NA,NA,NA,NA,NA,NA,NA,NA,NA,NA,NA,NA,NA,NA,NA,NA
"178","stim/objects/Instruments/frenchhorn.png",204,71,204,0.5,"stim/42.jpeg",4,2,1,NA,"Instruments",1,4,"left","right",0.776000023,0,0,0,1,NA,NA,NA,NA,NA,NA,NA,NA,NA,NA,NA,NA,NA,NA,NA,NA,NA,NA,NA,NA,NA,NA,NA,NA
"189","stim/objects/Instruments/grandpiano.png",205,71,205,0.5,"stim/44.jpeg",4,4,1,NA,"Instruments",1,4,"left","",NA,0,0,0,1,NA,NA,NA,NA,NA,NA,NA,NA,NA,NA,NA,NA,NA,NA,NA,NA,NA,NA,NA,NA,NA,NA,NA,NA
"43","stim/objects/HouseObjects/dustpan2.png",206,71,206,0.9,"stim/11.jpeg",1,1,3,NA,"HouseObjects",2,4,"right","right",0.554999828,1,1,0,1,NA,NA,NA,NA,NA,NA,NA,NA,NA,NA,NA,NA,NA,NA,NA,NA,NA,NA,NA,NA,NA,NA,NA,NA
"172","stim/objects/Instruments/flutetrans.png",207,71,207,0.5,"stim/41.jpeg",4,1,1,NA,"Instruments",1,2,"left","right",0.528999805,0,0,0,1,NA,NA,NA,NA,NA,NA,NA,NA,NA,NA,NA,NA,NA,NA,NA,NA,NA,NA,NA,NA,NA,NA,NA,NA
"183","stim/objects/Instruments/gong.png",208,71,208,0.5,"stim/43.jpeg",4,3,1,NA,"Instruments",1,4,"left","right",0.661999941,0,0,0,1,NA,NA,NA,NA,NA,NA,NA,NA,NA,NA,NA,NA,NA,NA,NA,NA,NA,NA,NA,NA,NA,NA,NA,NA
"73","stim/objects/HouseObjects/garbagebin2.png",209,71,209,0.9,"stim/13.jpeg",1,3,3,NA,"HouseObjects",2,2,"right","right",0.453999996,1,1,0,1,NA,NA,NA,NA,NA,NA,NA,NA,NA,NA,NA,NA,NA,NA,NA,NA,NA,NA,NA,NA,NA,NA,NA,NA
"156","stim/objects/Instruments/electricguitar2.png",210,71,210,0.7,"stim/63.jpeg",6,3,2,NA,"Instruments",1,4,"left","right",0.427999735,0,0,0,1,NA,NA,NA,NA,NA,NA,NA,NA,NA,NA,NA,NA,NA,NA,NA,NA,NA,NA,NA,NA,NA,NA,NA,NA
"74","stim/objects/HouseObjects/garbagebin2.png",211,71,211,0.9,"stim/13.jpeg",1,3,3,NA,"HouseObjects",2,4,"right","right",0.517999887,1,1,0,1,NA,NA,NA,NA,NA,NA,NA,NA,NA,NA,NA,NA,NA,NA,NA,NA,NA,NA,NA,NA,NA,NA,NA,NA
"184","stim/objects/Instruments/gong.png",212,71,212,0.5,"stim/43.jpeg",4,3,1,NA,"Instruments",1,4,"left","right",0.444000006,0,0,0,1,NA,NA,NA,NA,NA,NA,NA,NA,NA,NA,NA,NA,NA,NA,NA,NA,NA,NA,NA,NA,NA,NA,NA,NA
"207","stim/objects/Instruments/harmonica.png",213,71,213,0.3,"stim/52.jpeg",5,2,2,NA,"Instruments",1,1,"left","right",0.578999996,0,0,0,1,NA,NA,NA,NA,NA,NA,NA,NA,NA,NA,NA,NA,NA,NA,NA,NA,NA,NA,NA,NA,NA,NA,NA,NA
"185","stim/objects/Instruments/gong.png",214,71,214,0.5,"stim/43.jpeg",4,3,1,NA,"Instruments",1,2,"left","left",0.631000042,1,1,0,1,NA,NA,NA,NA,NA,NA,NA,NA,NA,NA,NA,NA,NA,NA,NA,NA,NA,NA,NA,NA,NA,NA,NA,NA
"180","stim/objects/Instruments/frenchhorn2.png",215,71,215,0.1,"stim/12.jpeg",1,2,3,NA,"Instruments",1,3,"left","right",0.530999899,0,0,0,1,NA,NA,NA,NA,NA,NA,NA,NA,NA,NA,NA,NA,NA,NA,NA,NA,NA,NA,NA,NA,NA,NA,NA,NA
"79","stim/objects/HouseObjects/glass.png",216,71,216,0.5,"stim/44.jpeg",4,4,1,NA,"HouseObjects",2,4,"right","left",0.674000025,0,0,0,1,NA,NA,NA,NA,NA,NA,NA,NA,NA,NA,NA,NA,NA,NA,NA,NA,NA,NA,NA,NA,NA,NA,NA,NA
"4","stim/objects/HouseObjects/coffee.png",217,71,217,0.5,"stim/31.jpeg",3,1,1,NA,"HouseObjects",2,1,"right","right",0.48699975,1,1,0,1,NA,NA,NA,NA,NA,NA,NA,NA,NA,NA,NA,NA,NA,NA,NA,NA,NA,NA,NA,NA,NA,NA,NA,NA
"190","stim/objects/Instruments/grandpiano.png",218,71,218,0.5,"stim/44.jpeg",4,4,1,NA,"Instruments",1,2,"left","left",0.523000002,1,1,0,1,NA,NA,NA,NA,NA,NA,NA,NA,NA,NA,NA,NA,NA,NA,NA,NA,NA,NA,NA,NA,NA,NA,NA,NA
"44","stim/objects/HouseObjects/dustpan2.png",219,71,219,0.9,"stim/11.jpeg",1,1,3,NA,"HouseObjects",2,3,"right","right",0.470999956,1,1,0,1,NA,NA,NA,NA,NA,NA,NA,NA,NA,NA,NA,NA,NA,NA,NA,NA,NA,NA,NA,NA,NA,NA,NA,NA
"5","stim/objects/HouseObjects/coffee.png",220,71,220,0.5,"stim/31.jpeg",3,1,1,NA,"HouseObjects",2,3,"right","left",0.53399992,0,0,0,1,NA,NA,NA,NA,NA,NA,NA,NA,NA,NA,NA,NA,NA,NA,NA,NA,NA,NA,NA,NA,NA,NA,NA,NA
"148","stim/objects/Instruments/electricguitar.png",221,71,221,0.5,"stim/33.jpeg",3,3,1,NA,"Instruments",1,1,"left","right",0.539000034,0,0,0,1,NA,NA,NA,NA,NA,NA,NA,NA,NA,NA,NA,NA,NA,NA,NA,NA,NA,NA,NA,NA,NA,NA,NA,NA
"93","stim/objects/HouseObjects/glassmop.png",222,71,222,0.7,"stim/51.jpeg",5,1,2,NA,"HouseObjects",2,4,"right","right",0.610999823,1,1,0,1,NA,NA,NA,NA,NA,NA,NA,NA,NA,NA,NA,NA,NA,NA,NA,NA,NA,NA,NA,NA,NA,NA,NA,NA
"111","stim/objects/HouseObjects/handbrush.png",223,71,223,0.7,"stim/53.jpeg",5,3,2,NA,"HouseObjects",2,2,"right","right",0.476999998,1,1,0,1,NA,NA,NA,NA,NA,NA,NA,NA,NA,NA,NA,NA,NA,NA,NA,NA,NA,NA,NA,NA,NA,NA,NA,NA
"20","stim/objects/HouseObjects/dishsoap.png",224,71,224,0.5,"stim/33.jpeg",3,3,1,NA,"HouseObjects",2,4,"right","left",0.606999874,0,0,0,1,NA,NA,NA,NA,NA,NA,NA,NA,NA,NA,NA,NA,NA,NA,NA,NA,NA,NA,NA,NA,NA,NA,NA,NA
"179","stim/objects/Instruments/frenchhorn.png",225,71,225,0.5,"stim/42.jpeg",4,2,1,NA,"Instruments",1,3,"left","right",0.571000099,0,0,0,1,NA,NA,NA,NA,NA,NA,NA,NA,NA,NA,NA,NA,NA,NA,NA,NA,NA,NA,NA,NA,NA,NA,NA,NA
"94","stim/objects/HouseObjects/glassmop.png",226,71,226,0.7,"stim/51.jpeg",5,1,2,NA,"HouseObjects",2,2,"right","right",0.529999971,1,1,0,1,NA,NA,NA,NA,NA,NA,NA,NA,NA,NA,NA,NA,NA,NA,NA,NA,NA,NA,NA,NA,NA,NA,NA,NA
"88","stim/objects/HouseObjects/glass2.png",227,71,227,0.9,"stim/14.jpeg",1,4,3,NA,"HouseObjects",2,2,"right","right",0.564999819,1,1,0,1,NA,NA,NA,NA,NA,NA,NA,NA,NA,NA,NA,NA,NA,NA,NA,NA,NA,NA,NA,NA,NA,NA,NA,NA
"45","stim/objects/HouseObjects/dustpan2.png",228,71,228,0.9,"stim/11.jpeg",1,1,3,NA,"HouseObjects",2,3,"right","left",0.522999763,0,0,0,1,NA,NA,NA,NA,NA,NA,NA,NA,NA,NA,NA,NA,NA,NA,NA,NA,NA,NA,NA,NA,NA,NA,NA,NA
"195","stim/objects/Instruments/guitarcase.png",229,71,229,0.3,"stim/51.jpeg",5,1,2,NA,"Instruments",1,1,"left","right",0.467000008,0,0,0,1,NA,NA,NA,NA,NA,NA,NA,NA,NA,NA,NA,NA,NA,NA,NA,NA,NA,NA,NA,NA,NA,NA,NA,NA
"161","stim/objects/Instruments/flute.png",230,71,230,0.5,"stim/34.jpeg",3,4,1,NA,"Instruments",1,2,"left","right",0.389999866,0,0,0,1,NA,NA,NA,NA,NA,NA,NA,NA,NA,NA,NA,NA,NA,NA,NA,NA,NA,NA,NA,NA,NA,NA,NA,NA
"46","stim/objects/HouseObjects/dustpan2.png",231,71,231,0.9,"stim/11.jpeg",1,1,3,NA,"HouseObjects",2,2,"right","right",0.546999931,1,1,0,1,NA,NA,NA,NA,NA,NA,NA,NA,NA,NA,NA,NA,NA,NA,NA,NA,NA,NA,NA,NA,NA,NA,NA,NA
"149","stim/objects/Instruments/electricguitar.png",232,71,232,0.5,"stim/33.jpeg",3,3,1,NA,"Instruments",1,4,"left","left",0.697999716,1,1,0,1,NA,NA,NA,NA,NA,NA,NA,NA,NA,NA,NA,NA,NA,NA,NA,NA,NA,NA,NA,NA,NA,NA,NA,NA
"21","stim/objects/HouseObjects/dishsoap.png",233,71,233,0.5,"stim/33.jpeg",3,3,1,NA,"HouseObjects",2,3,"right","left",0.562999725,0,0,0,1,NA,NA,NA,NA,NA,NA,NA,NA,NA,NA,NA,NA,NA,NA,NA,NA,NA,NA,NA,NA,NA,NA,NA,NA
"95","stim/objects/HouseObjects/glassmop.png",234,71,234,0.7,"stim/51.jpeg",5,1,2,NA,"HouseObjects",2,1,"right","right",0.626999855,1,1,0,1,NA,NA,NA,NA,NA,NA,NA,NA,NA,NA,NA,NA,NA,NA,NA,NA,NA,NA,NA,NA,NA,NA,NA,NA
"119","stim/objects/HouseObjects/handvacuum.png",235,71,235,0.7,"stim/54.jpeg",5,4,2,NA,"HouseObjects",2,4,"right","right",0.509000063,1,1,0,1,NA,NA,NA,NA,NA,NA,NA,NA,NA,NA,NA,NA,NA,NA,NA,NA,NA,NA,NA,NA,NA,NA,NA,NA
"173","stim/objects/Instruments/flutetrans.png",236,71,236,0.5,"stim/41.jpeg",4,1,1,NA,"Instruments",1,1,"left","right",0.626999855,0,0,0,1,NA,NA,NA,NA,NA,NA,NA,NA,NA,NA,NA,NA,NA,NA,NA,NA,NA,NA,NA,NA,NA,NA,NA,NA
"228","stim/objects/Instruments/harp2.png",237,71,237,0.9,"stim/23.jpeg",2,3,3,NA,"Instruments",1,4,"left","left",0.592999935,1,1,0,1,NA,NA,NA,NA,NA,NA,NA,NA,NA,NA,NA,NA,NA,NA,NA,NA,NA,NA,NA,NA,NA,NA,NA,NA
"168","stim/objects/Instruments/flute2.png",238,71,238,0.7,"stim/64.jpeg",6,4,2,NA,"Instruments",1,3,"left","left",0.726000071,1,1,0,1,NA,NA,NA,NA,NA,NA,NA,NA,NA,NA,NA,NA,NA,NA,NA,NA,NA,NA,NA,NA,NA,NA,NA,NA
"191","stim/objects/Instruments/grandpiano.png",239,71,239,0.5,"stim/44.jpeg",4,4,1,NA,"Instruments",1,2,"left","right",0.544999838,0,0,0,1,NA,NA,NA,NA,NA,NA,NA,NA,NA,NA,NA,NA,NA,NA,NA,NA,NA,NA,NA,NA,NA,NA,NA,NA
"132","stim/objects/Instruments/drums2.png",240,71,240,0.7,"stim/61.jpeg",6,1,2,NA,"Instruments",1,4,"left","left",0.513999939,1,1,0,1,NA,NA,NA,NA,NA,NA,NA,NA,NA,NA,NA,NA,NA,NA,NA,NA,NA,NA,NA,NA,NA,NA,NA,NA
"243","stim/objects/HouseObjects/ashtray4.png",248,71,241,0.7,"stim/53.jpeg",5,3,2,1,"HouseObjects",2,3,"right","left",0.65199995,0,0,1,0,98,71,1,0.7,2,"stim/53.jpeg",5,3,"stim/53.jpeg",3,"left",1.332999945,3,4,2.499000072,4,1.804000139,98,1,0,0,0,0,0
"325","stim/objects/HouseObjects/match3.png",249,71,242,0.9,"stim/14.jpeg",1,4,3,2,"HouseObjects",2,3,"right","right",0.57799983,1,1,1,0,NA,NA,NA,NA,NA,NA,NA,NA,NA,NA,NA,NA,NA,NA,NA,NA,NA,NA,NA,NA,NA,NA,NA,NA
"404","stim/objects/HouseObjects/wateringcan3.png",250,71,243,0.7,"stim/52.jpeg",5,2,2,1,"HouseObjects",2,4,"right","right",0.585999966,1,1,1,0,144,71,1,0.7,2,"stim/52.jpeg",5,2,"stim/52.jpeg",4,"right",0.649999857,3,3,1.160000086,1,1.501000166,144,0,0,NA,0,NA,0
"507","stim/objects/Instruments/musicstand3.png",251,71,244,0.9,"stim/23.jpeg",2,3,3,2,"Instruments",1,1,"left","left",0.558999777,1,1,1,0,NA,NA,NA,NA,NA,NA,NA,NA,NA,NA,NA,NA,NA,NA,NA,NA,NA,NA,NA,NA,NA,NA,NA,NA
"291","stim/objects/HouseObjects/knife3.png",252,71,245,0.9,"stim/13.jpeg",1,3,3,2,"HouseObjects",2,4,"right","right",0.494999886,1,1,1,0,NA,NA,NA,NA,NA,NA,NA,NA,NA,NA,NA,NA,NA,NA,NA,NA,NA,NA,NA,NA,NA,NA,NA,NA
"326","stim/objects/HouseObjects/match3.png",253,71,246,0.9,"stim/13.jpeg",1,3,3,2,"HouseObjects",2,4,"right","right",0.427000046,1,1,1,0,NA,NA,NA,NA,NA,NA,NA,NA,NA,NA,NA,NA,NA,NA,NA,NA,NA,NA,NA,NA,NA,NA,NA,NA
"359","stim/objects/HouseObjects/pitcher3.png",254,71,247,0.9,"stim/11.jpeg",1,1,3,2,"HouseObjects",2,2,"right","right",0.556999922,1,1,1,0,NA,NA,NA,NA,NA,NA,NA,NA,NA,NA,NA,NA,NA,NA,NA,NA,NA,NA,NA,NA,NA,NA,NA,NA
"473","stim/objects/Instruments/metronome3.png",255,71,248,0.9,"stim/24.jpeg",2,4,3,2,"Instruments",1,1,"left","left",0.580999851,1,1,1,0,NA,NA,NA,NA,NA,NA,NA,NA,NA,NA,NA,NA,NA,NA,NA,NA,NA,NA,NA,NA,NA,NA,NA,NA
"489","stim/objects/Instruments/metronome4.png",256,71,249,0.1,"stim/12.jpeg",1,2,3,1,"Instruments",1,4,"left","right",0.492000103,0,0,1,0,81,71,1,0.1,1,"stim/12.jpeg",1,2,"stim/12.jpeg",4,"left",1.759000063,3,3,1.042999983,2,0.616999865,81,1,0,0,0,0,0
"429","stim/objects/Instruments/chime4.png",257,71,250,0.7,"stim/62.jpeg",6,2,2,1,"Instruments",1,4,"left","left",0.652999878,1,1,1,0,45,71,1,0.7,1,"stim/62.jpeg",6,2,"stim/62.jpeg",4,"right",0.919000149,2,1,1.770999908,3,2.164999962,45,0,0,NA,0,NA,0
"255","stim/objects/HouseObjects/bleachbottle4.png",258,71,251,0.7,"stim/53.jpeg",5,3,2,1,"HouseObjects",2,1,"right","right",0.529999971,1,1,1,0,135,71,1,0.7,2,"stim/53.jpeg",5,3,"stim/53.jpeg",1,"left",0.784000158,3,2,0.653000116,1,0.734999895,135,1,0,0,1,1,0
"395","stim/objects/HouseObjects/teapot4.png",259,71,252,0.1,"stim/23.jpeg",2,3,3,1,"HouseObjects",2,2,"right","left",0.488999844,0,0,1,0,126,71,1,0.1,2,"stim/23.jpeg",2,3,"stim/23.jpeg",2,"right",0.74000001,3,3,0.840000153,2,0.578000069,126,0,1,NA,1,NA,0
"275","stim/objects/HouseObjects/clothespin3.png",260,71,253,0.7,"stim/54.jpeg",5,4,2,2,"HouseObjects",2,4,"right","right",0.647000074,1,1,1,0,NA,NA,NA,NA,NA,NA,NA,NA,NA,NA,NA,NA,NA,NA,NA,NA,NA,NA,NA,NA,NA,NA,NA,NA
"523","stim/objects/Instruments/musicstand4.png",261,71,254,0.1,"stim/14.jpeg",1,4,3,1,"Instruments",1,2,"left","right",0.566999912,0,0,1,0,151,71,1,0.1,1,"stim/14.jpeg",1,4,"stim/14.jpeg",2,"right",1.932999849,2,2,0.694000006,1,0.881999969,151,0,0,NA,0,NA,0
"563","stim/objects/Instruments/tuba3.png",262,71,255,0.3,"stim/52.jpeg",5,2,2,1,"Instruments",1,4,"left","left",0.766000032,1,1,1,0,121,71,1,0.3,1,"stim/52.jpeg",5,2,"stim/52.jpeg",4,"left",1.323999882,3,3,0.46600008,3,0.919000149,121,1,0,0,0,0,0
"308","stim/objects/HouseObjects/lintroller3.png",263,71,256,0.9,"stim/12.jpeg",1,2,3,2,"HouseObjects",2,1,"right","right",0.480999947,1,1,1,0,NA,NA,NA,NA,NA,NA,NA,NA,NA,NA,NA,NA,NA,NA,NA,NA,NA,NA,NA,NA,NA,NA,NA,NA
"432","stim/objects/Instruments/clarinet4.png",264,71,257,0.7,"stim/63.jpeg",6,3,2,1,"Instruments",1,4,"left","left",0.75999999,1,1,1,0,85,71,1,0.7,1,"stim/63.jpeg",6,3,"stim/63.jpeg",4,"left",1.549000025,3,2,1.480999947,1,0.869999886,85,1,0,0,0,0,0
"508","stim/objects/Instruments/musicstand3.png",265,71,258,0.9,"stim/21.jpeg",2,1,3,2,"Instruments",1,3,"left","left",0.642999887,1,1,1,0,NA,NA,NA,NA,NA,NA,NA,NA,NA,NA,NA,NA,NA,NA,NA,NA,NA,NA,NA,NA,NA,NA,NA,NA
"491","stim/objects/Instruments/musicsheet3.png",266,71,259,0.9,"stim/23.jpeg",2,3,3,2,"Instruments",1,1,"left","left",0.691999912,1,1,1,0,NA,NA,NA,NA,NA,NA,NA,NA,NA,NA,NA,NA,NA,NA,NA,NA,NA,NA,NA,NA,NA,NA,NA,NA
"286","stim/objects/HouseObjects/ironingboard4.png",267,71,260,0.3,"stim/62.jpeg",6,2,2,1,"HouseObjects",2,1,"right","left",0.645999908,0,0,1,0,17,71,1,0.3,2,"stim/62.jpeg",6,2,"stim/62.jpeg",1,"left",1.210999966,3,4,2.131000042,1,1.290999889,17,1,0,0,1,1,0
"342","stim/objects/HouseObjects/pan3.png",268,71,261,0.9,"stim/13.jpeg",1,3,3,2,"HouseObjects",2,3,"right","right",0.589999914,1,1,1,0,NA,NA,NA,NA,NA,NA,NA,NA,NA,NA,NA,NA,NA,NA,NA,NA,NA,NA,NA,NA,NA,NA,NA,NA
"343","stim/objects/HouseObjects/pan3.png",269,71,262,0.9,"stim/11.jpeg",1,1,3,2,"HouseObjects",2,4,"right","right",0.542000055,1,1,1,0,NA,NA,NA,NA,NA,NA,NA,NA,NA,NA,NA,NA,NA,NA,NA,NA,NA,NA,NA,NA,NA,NA,NA,NA
"524","stim/objects/Instruments/oboe3.png",270,71,263,0.9,"stim/22.jpeg",2,2,3,2,"Instruments",1,2,"left","left",0.55099988,1,1,1,0,NA,NA,NA,NA,NA,NA,NA,NA,NA,NA,NA,NA,NA,NA,NA,NA,NA,NA,NA,NA,NA,NA,NA,NA
"309","stim/objects/HouseObjects/lintroller3.png",271,71,264,0.9,"stim/11.jpeg",1,1,3,2,"HouseObjects",2,4,"right","right",0.462999821,1,1,1,0,NA,NA,NA,NA,NA,NA,NA,NA,NA,NA,NA,NA,NA,NA,NA,NA,NA,NA,NA,NA,NA,NA,NA,NA
"344","stim/objects/HouseObjects/pan3.png",272,71,265,0.9,"stim/13.jpeg",1,3,3,2,"HouseObjects",2,3,"right","right",0.575999975,1,1,1,0,NA,NA,NA,NA,NA,NA,NA,NA,NA,NA,NA,NA,NA,NA,NA,NA,NA,NA,NA,NA,NA,NA,NA,NA
"271","stim/objects/HouseObjects/clothesdryingrack3.png",273,71,266,0.7,"stim/53.jpeg",5,3,2,2,"HouseObjects",2,3,"right","right",0.572999954,1,1,1,0,NA,NA,NA,NA,NA,NA,NA,NA,NA,NA,NA,NA,NA,NA,NA,NA,NA,NA,NA,NA,NA,NA,NA,NA
"259","stim/objects/HouseObjects/bottle3.png",274,71,267,0.5,"stim/43.jpeg",4,3,1,2,"HouseObjects",2,4,"right","right",0.77699995,1,1,1,0,NA,NA,NA,NA,NA,NA,NA,NA,NA,NA,NA,NA,NA,NA,NA,NA,NA,NA,NA,NA,NA,NA,NA,NA
"292","stim/objects/HouseObjects/knife3.png",275,71,268,0.9,"stim/12.jpeg",1,2,3,2,"HouseObjects",2,1,"right","right",0.610999823,1,1,1,0,NA,NA,NA,NA,NA,NA,NA,NA,NA,NA,NA,NA,NA,NA,NA,NA,NA,NA,NA,NA,NA,NA,NA,NA
"509","stim/objects/Instruments/musicstand3.png",276,71,269,0.9,"stim/21.jpeg",2,1,3,2,"Instruments",1,2,"left","right",0.506999969,0,0,1,0,NA,NA,NA,NA,NA,NA,NA,NA,NA,NA,NA,NA,NA,NA,NA,NA,NA,NA,NA,NA,NA,NA,NA,NA
"492","stim/objects/Instruments/musicsheet3.png",277,71,270,0.9,"stim/21.jpeg",2,1,3,2,"Instruments",1,4,"left","",NA,0,0,1,0,NA,NA,NA,NA,NA,NA,NA,NA,NA,NA,NA,NA,NA,NA,NA,NA,NA,NA,NA,NA,NA,NA,NA,NA
"456","stim/objects/Instruments/marimba3.png",278,71,271,0.9,"stim/23.jpeg",2,3,3,2,"Instruments",1,1,"left","right",0.680000067,0,0,1,0,NA,NA,NA,NA,NA,NA,NA,NA,NA,NA,NA,NA,NA,NA,NA,NA,NA,NA,NA,NA,NA,NA,NA,NA
"293","stim/objects/HouseObjects/knife3.png",279,71,272,0.9,"stim/11.jpeg",1,1,3,2,"HouseObjects",2,3,"right","right",0.506000042,1,1,1,0,NA,NA,NA,NA,NA,NA,NA,NA,NA,NA,NA,NA,NA,NA,NA,NA,NA,NA,NA,NA,NA,NA,NA,NA
"415","stim/objects/Instruments/banjo3.png",280,71,273,0.5,"stim/34.jpeg",3,4,1,2,"Instruments",1,3,"left","left",0.679999828,1,1,1,0,NA,NA,NA,NA,NA,NA,NA,NA,NA,NA,NA,NA,NA,NA,NA,NA,NA,NA,NA,NA,NA,NA,NA,NA
"294","stim/objects/HouseObjects/knife3.png",281,71,274,0.9,"stim/14.jpeg",1,4,3,2,"HouseObjects",2,4,"right","right",0.570999861,1,1,1,0,NA,NA,NA,NA,NA,NA,NA,NA,NA,NA,NA,NA,NA,NA,NA,NA,NA,NA,NA,NA,NA,NA,NA,NA
"268","stim/objects/HouseObjects/clock3.png",282,71,275,0.5,"stim/43.jpeg",4,3,1,2,"HouseObjects",2,1,"right","right",0.583999872,1,1,1,0,NA,NA,NA,NA,NA,NA,NA,NA,NA,NA,NA,NA,NA,NA,NA,NA,NA,NA,NA,NA,NA,NA,NA,NA
"389","stim/objects/HouseObjects/scale4.png",283,71,276,0.1,"stim/24.jpeg",2,4,3,1,"HouseObjects",2,2,"right","left",0.527999878,0,0,1,0,169,71,1,0.1,2,"stim/24.jpeg",2,4,"stim/24.jpeg",2,"right",0.624000072,3,3,0.532999992,2,0.76699996,169,0,0,NA,1,NA,0
"278","stim/objects/HouseObjects/clothespin4.png",284,71,277,0.3,"stim/64.jpeg",6,4,2,1,"HouseObjects",2,1,"right","left",0.608999968,0,0,1,0,52,71,1,0.3,2,"stim/64.jpeg",6,4,"stim/64.jpeg",1,"right",0.994000196,3,3,2.743000031,3,2.112999916,52,0,0,NA,0,NA,0
"506","stim/objects/Instruments/musicsheet4.png",285,71,278,0.1,"stim/13.jpeg",1,3,3,1,"Instruments",1,1,"left","right",0.552999973,0,0,1,0,138,71,1,0.1,1,"stim/13.jpeg",1,3,"stim/13.jpeg",1,"left",1.427999973,3,2,0.896000147,1,1.493000031,138,1,0,0,1,1,0
"361","stim/objects/HouseObjects/pitcher3.png",286,71,279,0.9,"stim/11.jpeg",1,1,3,2,"HouseObjects",2,1,"right","right",0.574999809,1,1,1,0,NA,NA,NA,NA,NA,NA,NA,NA,NA,NA,NA,NA,NA,NA,NA,NA,NA,NA,NA,NA,NA,NA,NA,NA
"436","stim/objects/Instruments/cymbal3.png",287,71,280,0.7,"stim/63.jpeg",6,3,2,2,"Instruments",1,1,"left","left",0.559999943,1,1,1,0,NA,NA,NA,NA,NA,NA,NA,NA,NA,NA,NA,NA,NA,NA,NA,NA,NA,NA,NA,NA,NA,NA,NA,NA
"384","stim/objects/HouseObjects/safetypin3.png",288,71,281,0.5,"stim/32.jpeg",3,2,1,1,"HouseObjects",2,3,"right","right",0.663999796,1,1,1,0,117,71,1,0.5,1,"stim/32.jpeg",3,2,"stim/32.jpeg",3,"right",1.481999874,4,3,0.7900002,2,0.900000095,117,0,0,NA,0,NA,0
"269","stim/objects/HouseObjects/clock3.png",289,71,282,0.5,"stim/42.jpeg",4,2,1,2,"HouseObjects",2,4,"right","right",0.664000034,1,1,1,0,NA,NA,NA,NA,NA,NA,NA,NA,NA,NA,NA,NA,NA,NA,NA,NA,NA,NA,NA,NA,NA,NA,NA,NA
"406","stim/objects/Instruments/accordion3.png",290,71,283,0.5,"stim/32.jpeg",3,2,1,2,"Instruments",1,1,"left","right",0.663000107,0,0,1,0,NA,NA,NA,NA,NA,NA,NA,NA,NA,NA,NA,NA,NA,NA,NA,NA,NA,NA,NA,NA,NA,NA,NA,NA
"525","stim/objects/Instruments/oboe3.png",291,71,284,0.9,"stim/21.jpeg",2,1,3,2,"Instruments",1,4,"left","left",0.611999989,1,1,1,0,NA,NA,NA,NA,NA,NA,NA,NA,NA,NA,NA,NA,NA,NA,NA,NA,NA,NA,NA,NA,NA,NA,NA,NA
"310","stim/objects/HouseObjects/lintroller3.png",292,71,285,0.9,"stim/14.jpeg",1,4,3,2,"HouseObjects",2,1,"right","right",0.564999819,1,1,1,0,NA,NA,NA,NA,NA,NA,NA,NA,NA,NA,NA,NA,NA,NA,NA,NA,NA,NA,NA,NA,NA,NA,NA,NA
"510","stim/objects/Instruments/musicstand3.png",293,71,286,0.9,"stim/21.jpeg",2,1,3,2,"Instruments",1,3,"left","left",0.667000055,1,1,1,0,NA,NA,NA,NA,NA,NA,NA,NA,NA,NA,NA,NA,NA,NA,NA,NA,NA,NA,NA,NA,NA,NA,NA,NA
"427","stim/objects/Instruments/chime3.png",294,71,287,0.5,"stim/42.jpeg",4,2,1,2,"Instruments",1,4,"left","right",0.617000103,0,0,1,0,NA,NA,NA,NA,NA,NA,NA,NA,NA,NA,NA,NA,NA,NA,NA,NA,NA,NA,NA,NA,NA,NA,NA,NA
"549","stim/objects/Instruments/saxophone3.png",295,71,288,0.5,"stim/33.jpeg",3,3,1,1,"Instruments",1,3,"left","left",0.522999763,1,1,1,0,160,71,1,0.5,1,"stim/33.jpeg",3,3,"stim/33.jpeg",3,"left",2.07400012,3,2,1.165999889,2,3.532000065,160,1,0,0,0,0,0
"284","stim/objects/HouseObjects/ironingboard3.png",296,71,289,0.7,"stim/53.jpeg",5,3,2,2,"HouseObjects",2,2,"right","right",0.50999999,1,1,1,0,NA,NA,NA,NA,NA,NA,NA,NA,NA,NA,NA,NA,NA,NA,NA,NA,NA,NA,NA,NA,NA,NA,NA,NA
"390","stim/objects/HouseObjects/sponge3.png",297,71,290,0.5,"stim/42.jpeg",4,2,1,1,"HouseObjects",2,2,"right","right",0.681999922,1,1,1,0,15,71,1,0.5,2,"stim/42.jpeg",4,2,"stim/42.jpeg",2,"left",0.829999924,4,2,2.018999815,3,1.470999956,15,1,1,1,0,0,0
"264","stim/objects/HouseObjects/broom4.png",298,71,291,0.3,"stim/64.jpeg",6,4,2,1,"HouseObjects",2,4,"right","left",0.627000093,0,0,1,0,10,71,1,0.3,2,"stim/64.jpeg",6,4,"stim/64.jpeg",4,"left",1.684999943,3,4,1.957999945,2,2.05099988,10,1,1,1,0,0,0
"363","stim/objects/HouseObjects/pitcher3.png",299,71,292,0.9,"stim/13.jpeg",1,3,3,2,"HouseObjects",2,2,"right","right",0.585000038,1,1,1,0,NA,NA,NA,NA,NA,NA,NA,NA,NA,NA,NA,NA,NA,NA,NA,NA,NA,NA,NA,NA,NA,NA,NA,NA
"312","stim/objects/HouseObjects/lintroller3.png",300,71,293,0.9,"stim/13.jpeg",1,3,3,2,"HouseObjects",2,4,"right","right",0.54399991,1,1,1,0,NA,NA,NA,NA,NA,NA,NA,NA,NA,NA,NA,NA,NA,NA,NA,NA,NA,NA,NA,NA,NA,NA,NA,NA
"448","stim/objects/Instruments/laud3.png",301,71,294,0.7,"stim/61.jpeg",6,1,2,2,"Instruments",1,3,"left","left",0.641000032,1,1,1,0,NA,NA,NA,NA,NA,NA,NA,NA,NA,NA,NA,NA,NA,NA,NA,NA,NA,NA,NA,NA,NA,NA,NA,NA
"562","stim/objects/Instruments/trumpet4.png",302,71,295,0.9,"stim/22.jpeg",2,2,3,1,"Instruments",1,4,"left","left",0.63499999,1,1,1,0,86,71,1,0.9,1,"stim/22.jpeg",2,2,"stim/22.jpeg",4,"right",1.367000103,3,3,0.825999975,4,2.207000017,86,0,0,NA,1,NA,0
"476","stim/objects/Instruments/metronome3.png",303,71,296,0.9,"stim/21.jpeg",2,1,3,2,"Instruments",1,3,"left","right",0.555999994,0,0,1,0,NA,NA,NA,NA,NA,NA,NA,NA,NA,NA,NA,NA,NA,NA,NA,NA,NA,NA,NA,NA,NA,NA,NA,NA
"457","stim/objects/Instruments/marimba3.png",304,71,297,0.9,"stim/22.jpeg",2,2,3,2,"Instruments",1,1,"left","left",0.743000031,1,1,1,0,NA,NA,NA,NA,NA,NA,NA,NA,NA,NA,NA,NA,NA,NA,NA,NA,NA,NA,NA,NA,NA,NA,NA,NA
"541","stim/objects/Instruments/panflute3.png",305,71,298,0.5,"stim/33.jpeg",3,3,1,1,"Instruments",1,2,"left","right",0.572000027,0,0,1,0,7,71,1,0.5,1,"stim/33.jpeg",3,3,"stim/33.jpeg",2,"right",1.506999969,1,3,1.178999901,3,1.003000021,7,0,1,NA,0,NA,0
"511","stim/objects/Instruments/musicstand3.png",306,71,299,0.9,"stim/21.jpeg",2,1,3,2,"Instruments",1,2,"left","left",0.575999975,1,1,1,0,NA,NA,NA,NA,NA,NA,NA,NA,NA,NA,NA,NA,NA,NA,NA,NA,NA,NA,NA,NA,NA,NA,NA,NA
"258","stim/objects/HouseObjects/blender4.png",307,71,300,0.3,"stim/62.jpeg",6,2,2,1,"HouseObjects",2,1,"right","left",0.559999943,0,0,1,0,171,71,1,0.3,2,"stim/62.jpeg",6,2,"stim/62.jpeg",1,"left",1.965999842,2,3,0.753999949,1,1.055000067,171,1,0,0,1,1,0
"566","stim/objects/Instruments/violin4.png",308,71,301,0.9,"stim/24.jpeg",2,4,3,1,"Instruments",1,3,"left","left",0.621999979,1,1,1,0,107,71,1,0.9,1,"stim/24.jpeg",2,4,"stim/24.jpeg",3,"right",2.882999897,1,2,0.944000006,3,1.970000029,107,0,0,NA,1,NA,0
"241","stim/objects/HouseObjects/ashtray3.png",309,71,302,0.5,"stim/31.jpeg",3,1,1,2,"HouseObjects",2,4,"right","left",0.682999849,0,0,1,0,NA,NA,NA,NA,NA,NA,NA,NA,NA,NA,NA,NA,NA,NA,NA,NA,NA,NA,NA,NA,NA,NA,NA,NA
"440","stim/objects/Instruments/doublebass3.png",310,71,303,0.7,"stim/62.jpeg",6,2,2,2,"Instruments",1,3,"left","left",0.647999763,1,1,1,0,NA,NA,NA,NA,NA,NA,NA,NA,NA,NA,NA,NA,NA,NA,NA,NA,NA,NA,NA,NA,NA,NA,NA,NA
"375","stim/objects/HouseObjects/pitcher4.png",311,71,304,0.9,"stim/13.jpeg",1,3,3,1,"HouseObjects",2,3,"right","right",0.695999861,1,1,1,0,183,71,1,0.9,2,"stim/13.jpeg",1,3,"stim/13.jpeg",3,"right",0.802000046,3,3,0.613000154,2,0.697999954,183,0,1,NA,0,NA,0
"458","stim/objects/Instruments/marimba3.png",312,71,305,0.9,"stim/21.jpeg",2,1,3,2,"Instruments",1,2,"left","left",0.572999954,1,1,1,0,NA,NA,NA,NA,NA,NA,NA,NA,NA,NA,NA,NA,NA,NA,NA,NA,NA,NA,NA,NA,NA,NA,NA,NA
"435","stim/objects/Instruments/cornet4.png",313,71,306,0.7,"stim/64.jpeg",6,4,2,1,"Instruments",1,1,"left","left",0.596999884,1,1,1,0,67,71,1,0.7,1,"stim/64.jpeg",6,4,"stim/64.jpeg",1,"right",1.10800004,3,2,1.190999985,3,0.797999859,67,0,0,NA,0,NA,0
"567","stim/objects/Instruments/vuvuzela3.png",314,71,307,0.3,"stim/54.jpeg",5,4,2,1,"Instruments",1,4,"left","right",0.592999935,0,0,1,0,34,71,1,0.3,1,"stim/54.jpeg",5,4,"stim/54.jpeg",4,"right",0.998999834,3,1,1.26699996,3,1.439999819,34,0,0,NA,0,NA,0
"358","stim/objects/HouseObjects/pan4.png",315,71,308,0.9,"stim/12.jpeg",1,2,3,1,"HouseObjects",2,4,"right","right",0.431999922,1,1,1,0,142,71,1,0.9,2,"stim/12.jpeg",1,2,"stim/12.jpeg",4,"right",2.916000128,3,2,0.601000071,2,0.690999985,142,0,1,NA,0,NA,0
"366","stim/objects/HouseObjects/pitcher3.png",316,71,309,0.9,"stim/12.jpeg",1,2,3,2,"HouseObjects",2,4,"right","right",0.478999853,1,1,1,0,NA,NA,NA,NA,NA,NA,NA,NA,NA,NA,NA,NA,NA,NA,NA,NA,NA,NA,NA,NA,NA,NA,NA,NA
"262","stim/objects/HouseObjects/broom3.png",317,71,310,0.5,"stim/44.jpeg",4,4,1,2,"HouseObjects",2,4,"right","left",0.656999826,0,0,1,0,NA,NA,NA,NA,NA,NA,NA,NA,NA,NA,NA,NA,NA,NA,NA,NA,NA,NA,NA,NA,NA,NA,NA,NA
"569","stim/objects/Instruments/xylophone3.png",318,71,311,0.3,"stim/51.jpeg",5,1,2,1,"Instruments",1,1,"left","right",0.517999887,0,0,1,0,79,71,1,0.3,1,"stim/51.jpeg",5,1,"stim/51.jpeg",1,"left",2.141000032,3,3,1.542999983,3,1.789999962,79,1,0,0,0,0,0
"330","stim/objects/HouseObjects/match3.png",319,71,312,0.9,"stim/11.jpeg",1,1,3,2,"HouseObjects",2,1,"right","right",0.633999825,1,1,1,0,NA,NA,NA,NA,NA,NA,NA,NA,NA,NA,NA,NA,NA,NA,NA,NA,NA,NA,NA,NA,NA,NA,NA,NA
"394","stim/objects/HouseObjects/teapot3.png",320,71,313,0.5,"stim/44.jpeg",4,4,1,1,"HouseObjects",2,3,"right","right",0.630999804,1,1,1,0,133,71,1,0.5,2,"stim/44.jpeg",4,4,"stim/44.jpeg",3,"right",1.200000048,3,3,0.835000038,2,0.665999889,133,0,0,NA,0,NA,0
"287","stim/objects/HouseObjects/key3.png",321,71,314,0.7,"stim/53.jpeg",5,3,2,2,"HouseObjects",2,2,"right","left",0.459000111,0,0,1,0,NA,NA,NA,NA,NA,NA,NA,NA,NA,NA,NA,NA,NA,NA,NA,NA,NA,NA,NA,NA,NA,NA,NA,NA
"249","stim/objects/HouseObjects/barbecuelighter4.png",322,71,315,0.7,"stim/51.jpeg",5,1,2,1,"HouseObjects",2,4,"right","right",0.749000072,1,1,1,0,9,71,1,0.7,2,"stim/51.jpeg",5,1,"stim/51.jpeg",4,"right",2.325000048,1,3,1.02699995,3,1.295000076,9,0,0,NA,0,NA,0
"388","stim/objects/HouseObjects/scale3.png",323,71,316,0.5,"stim/41.jpeg",4,1,1,1,"HouseObjects",2,1,"right","right",0.615999937,1,1,1,0,158,71,1,0.5,2,"stim/41.jpeg",4,1,"stim/41.jpeg",1,"left",0.966999769,3,4,2.814999819,4,1.037999868,158,1,0,0,0,0,0
"296","stim/objects/HouseObjects/knife3.png",324,71,317,0.9,"stim/13.jpeg",1,3,3,2,"HouseObjects",2,1,"right","right",0.679999828,1,1,1,0,NA,NA,NA,NA,NA,NA,NA,NA,NA,NA,NA,NA,NA,NA,NA,NA,NA,NA,NA,NA,NA,NA,NA,NA
"393","stim/objects/HouseObjects/spraybottle4.png",325,71,318,0.1,"stim/22.jpeg",2,2,3,1,"HouseObjects",2,1,"right","left",0.703999996,0,0,1,0,39,71,1,0.1,2,"stim/22.jpeg",2,2,"stim/22.jpeg",1,"right",0.649999857,1,2,1.082999945,2,1.006000042,39,0,1,NA,0,NA,0
"437","stim/objects/Instruments/cymbal3.png",326,71,319,0.7,"stim/61.jpeg",6,1,2,2,"Instruments",1,4,"left","",NA,0,0,1,0,NA,NA,NA,NA,NA,NA,NA,NA,NA,NA,NA,NA,NA,NA,NA,NA,NA,NA,NA,NA,NA,NA,NA,NA
"345","stim/objects/HouseObjects/pan3.png",327,71,320,0.9,"stim/12.jpeg",1,2,3,2,"HouseObjects",2,4,"right","",NA,0,0,1,0,NA,NA,NA,NA,NA,NA,NA,NA,NA,NA,NA,NA,NA,NA,NA,NA,NA,NA,NA,NA,NA,NA,NA,NA
"257","stim/objects/HouseObjects/blender3.png",328,71,321,0.5,"stim/42.jpeg",4,2,1,2,"HouseObjects",2,1,"right","right",0.571000099,1,1,1,0,NA,NA,NA,NA,NA,NA,NA,NA,NA,NA,NA,NA,NA,NA,NA,NA,NA,NA,NA,NA,NA,NA,NA,NA
"346","stim/objects/HouseObjects/pan3.png",329,71,322,0.9,"stim/12.jpeg",1,2,3,2,"HouseObjects",2,1,"right","right",0.427999973,1,1,1,0,NA,NA,NA,NA,NA,NA,NA,NA,NA,NA,NA,NA,NA,NA,NA,NA,NA,NA,NA,NA,NA,NA,NA,NA
"548","stim/objects/Instruments/record4.png",330,71,323,0.1,"stim/14.jpeg",1,4,3,1,"Instruments",1,3,"left","right",0.512999773,0,0,1,0,68,71,1,0.1,1,"stim/14.jpeg",1,4,"stim/14.jpeg",3,"right",2.218999863,3,3,0.738999844,3,1.236000061,68,0,0,NA,1,NA,0
"530","stim/objects/Instruments/oboe3.png",331,71,324,0.9,"stim/21.jpeg",2,1,3,2,"Instruments",1,2,"left","right",0.450000048,0,0,1,0,NA,NA,NA,NA,NA,NA,NA,NA,NA,NA,NA,NA,NA,NA,NA,NA,NA,NA,NA,NA,NA,NA,NA,NA
"452","stim/objects/Instruments/maraca3.png",332,71,325,0.7,"stim/63.jpeg",6,3,2,2,"Instruments",1,3,"left","left",0.551999807,1,1,1,0,NA,NA,NA,NA,NA,NA,NA,NA,NA,NA,NA,NA,NA,NA,NA,NA,NA,NA,NA,NA,NA,NA,NA,NA
"494","stim/objects/Instruments/musicsheet3.png",333,71,326,0.9,"stim/23.jpeg",2,3,3,2,"Instruments",1,4,"left","left",0.584000111,1,1,1,0,NA,NA,NA,NA,NA,NA,NA,NA,NA,NA,NA,NA,NA,NA,NA,NA,NA,NA,NA,NA,NA,NA,NA,NA
"568","stim/objects/Instruments/vuvuzela4.png",334,71,327,0.9,"stim/21.jpeg",2,1,3,1,"Instruments",1,2,"left","left",0.625,1,1,1,0,71,71,1,0.9,1,"stim/21.jpeg",2,1,"stim/21.jpeg",2,"right",0.876999855,3,4,1.032000065,1,1.137000084,71,0,0,NA,0,NA,0
"414","stim/objects/Instruments/balalaika4.png",335,71,328,0.3,"stim/54.jpeg",5,4,2,1,"Instruments",1,4,"left","right",0.480999708,0,0,1,0,42,71,1,0.3,1,"stim/54.jpeg",5,4,"stim/54.jpeg",4,"left",1.891000032,3,3,1.539999962,2,1.134000063,42,1,0,0,0,0,0
"496","stim/objects/Instruments/musicsheet3.png",336,71,329,0.9,"stim/24.jpeg",2,4,3,2,"Instruments",1,2,"left","left",0.554999828,1,1,1,0,NA,NA,NA,NA,NA,NA,NA,NA,NA,NA,NA,NA,NA,NA,NA,NA,NA,NA,NA,NA,NA,NA,NA,NA
"297","stim/objects/HouseObjects/knife3.png",337,71,330,0.9,"stim/12.jpeg",1,2,3,2,"HouseObjects",2,1,"right","right",0.549000025,1,1,1,0,NA,NA,NA,NA,NA,NA,NA,NA,NA,NA,NA,NA,NA,NA,NA,NA,NA,NA,NA,NA,NA,NA,NA,NA
"251","stim/objects/HouseObjects/basket3.png",338,71,331,0.5,"stim/33.jpeg",3,3,1,2,"HouseObjects",2,4,"right","right",0.498999834,1,1,1,0,NA,NA,NA,NA,NA,NA,NA,NA,NA,NA,NA,NA,NA,NA,NA,NA,NA,NA,NA,NA,NA,NA,NA,NA
"551","stim/objects/Instruments/speaker3.png",339,71,332,0.5,"stim/41.jpeg",4,1,1,1,"Instruments",1,4,"left","right",0.67599988,0,0,1,0,136,71,1,0.5,2,"stim/41.jpeg",4,1,"stim/41.jpeg",4,"left",1.937000036,3,1,2.264999866,2,0.548999786,136,1,1,1,0,0,0
"546","stim/objects/Instruments/record_player4.png",340,71,333,0.1,"stim/11.jpeg",1,1,3,1,"Instruments",1,1,"left","right",0.612999916,0,0,1,0,132,71,1,0.1,1,"stim/11.jpeg",1,1,"stim/11.jpeg",1,"left",0.855999947,3,2,0.594000101,2,1.046999931,132,1,0,0,0,0,0
"272","stim/objects/HouseObjects/clothesdryingrack3.png",341,71,334,0.7,"stim/54.jpeg",5,4,2,2,"HouseObjects",2,1,"right","right",0.710999966,1,1,1,0,NA,NA,NA,NA,NA,NA,NA,NA,NA,NA,NA,NA,NA,NA,NA,NA,NA,NA,NA,NA,NA,NA,NA,NA
"526","stim/objects/Instruments/oboe3.png",342,71,335,0.9,"stim/23.jpeg",2,3,3,2,"Instruments",1,3,"left","left",0.579999924,1,1,1,0,NA,NA,NA,NA,NA,NA,NA,NA,NA,NA,NA,NA,NA,NA,NA,NA,NA,NA,NA,NA,NA,NA,NA,NA
"408","stim/objects/Instruments/accordion4.png",343,71,336,0.3,"stim/52.jpeg",5,2,2,1,"Instruments",1,1,"left","",NA,0,0,1,0,66,71,1,0.3,1,"stim/52.jpeg",5,2,"stim/52.jpeg",1,"right",0.77699995,3,3,0.632999897,4,0.855999947,66,0,0,NA,0,NA,0
"348","stim/objects/HouseObjects/pan3.png",344,71,337,0.9,"stim/12.jpeg",1,2,3,2,"HouseObjects",2,1,"right","right",0.657999992,1,1,1,0,NA,NA,NA,NA,NA,NA,NA,NA,NA,NA,NA,NA,NA,NA,NA,NA,NA,NA,NA,NA,NA,NA,NA,NA
"407","stim/objects/Instruments/accordion3.png",345,71,338,0.5,"stim/31.jpeg",3,1,1,2,"Instruments",1,1,"left","right",0.443000078,0,0,1,0,NA,NA,NA,NA,NA,NA,NA,NA,NA,NA,NA,NA,NA,NA,NA,NA,NA,NA,NA,NA,NA,NA,NA,NA
"386","stim/objects/HouseObjects/saw3.png",346,71,339,0.5,"stim/44.jpeg",4,4,1,1,"HouseObjects",2,2,"right","right",0.434999943,1,1,1,0,140,71,1,0.5,2,"stim/44.jpeg",4,4,"stim/44.jpeg",2,"right",0.76699996,1,2,0.655999899,3,0.704999924,140,0,0,NA,0,NA,0
"560","stim/objects/Instruments/trombone4.png",347,71,340,0.9,"stim/21.jpeg",2,1,3,1,"Instruments",1,2,"left","right",0.565999985,0,0,1,0,78,71,1,0.9,1,"stim/21.jpeg",2,1,"stim/21.jpeg",2,"right",1.075000048,3,3,0.645000219,2,0.667000055,78,0,0,NA,1,NA,0
"413","stim/objects/Instruments/balalaika3.png",348,71,341,0.5,"stim/34.jpeg",3,4,1,2,"Instruments",1,4,"left","right",0.566999912,0,0,1,0,NA,NA,NA,NA,NA,NA,NA,NA,NA,NA,NA,NA,NA,NA,NA,NA,NA,NA,NA,NA,NA,NA,NA,NA
"331","stim/objects/HouseObjects/match3.png",349,71,342,0.9,"stim/12.jpeg",1,2,3,2,"HouseObjects",2,2,"right","right",0.632999897,1,1,1,0,NA,NA,NA,NA,NA,NA,NA,NA,NA,NA,NA,NA,NA,NA,NA,NA,NA,NA,NA,NA,NA,NA,NA,NA
"265","stim/objects/HouseObjects/bucket3.png",350,71,343,0.5,"stim/41.jpeg",4,1,1,2,"HouseObjects",2,2,"right","right",0.539999962,1,1,1,0,NA,NA,NA,NA,NA,NA,NA,NA,NA,NA,NA,NA,NA,NA,NA,NA,NA,NA,NA,NA,NA,NA,NA,NA
"381","stim/objects/HouseObjects/rubbergloves4.png",351,71,344,0.9,"stim/12.jpeg",1,2,3,1,"HouseObjects",2,2,"right","right",0.701999903,1,1,1,0,141,71,1,0.9,2,"stim/12.jpeg",1,2,"stim/12.jpeg",2,"right",1.916000128,2,3,0.702000141,2,0.838000059,141,0,0,NA,1,NA,0
"559","stim/objects/Instruments/trombone3.png",352,71,345,0.5,"stim/41.jpeg",4,1,1,1,"Instruments",1,3,"left","right",0.576999903,0,0,1,0,22,71,1,0.5,2,"stim/41.jpeg",4,1,"stim/41.jpeg",3,"left",0.928999901,3,2,1.90899992,2,1.111000061,22,1,0,0,0,0,0
"439","stim/objects/Instruments/cymbal4.png",353,71,346,0.7,"stim/61.jpeg",6,1,2,1,"Instruments",1,1,"left","left",0.678999901,1,1,1,0,103,71,1,0.7,1,"stim/61.jpeg",6,1,"stim/61.jpeg",1,"left",0.950999975,3,2,1.270000219,3,2.383000135,103,1,0,0,0,0,0
"365","stim/objects/HouseObjects/pitcher3.png",354,71,347,0.9,"stim/13.jpeg",1,3,3,2,"HouseObjects",2,3,"right","right",0.570999861,1,1,1,0,NA,NA,NA,NA,NA,NA,NA,NA,NA,NA,NA,NA,NA,NA,NA,NA,NA,NA,NA,NA,NA,NA,NA,NA
"349","stim/objects/HouseObjects/pan3.png",355,71,348,0.9,"stim/13.jpeg",1,3,3,2,"HouseObjects",2,1,"right","right",0.519999981,1,1,1,0,NA,NA,NA,NA,NA,NA,NA,NA,NA,NA,NA,NA,NA,NA,NA,NA,NA,NA,NA,NA,NA,NA,NA,NA
"411","stim/objects/Instruments/acousticguitar4.png",356,71,349,0.3,"stim/53.jpeg",5,3,2,1,"Instruments",1,3,"left","right",0.526000023,0,0,1,0,116,71,1,0.3,1,"stim/53.jpeg",5,3,"stim/53.jpeg",3,"left",0.900000095,4,1,2.352999926,2,1.650000095,116,1,0,0,0,0,0
"401","stim/objects/HouseObjects/towel4.png",357,71,350,0.1,"stim/22.jpeg",2,2,3,1,"HouseObjects",2,2,"right","left",0.779999971,0,0,1,0,93,71,1,0.1,2,"stim/22.jpeg",2,2,"stim/22.jpeg",2,"right",1.036000013,3,1,1.332999945,2,1.323999882,93,0,0,NA,1,NA,0
"497","stim/objects/Instruments/musicsheet3.png",358,71,351,0.9,"stim/22.jpeg",2,2,3,2,"Instruments",1,4,"left","left",0.56799984,1,1,1,0,NA,NA,NA,NA,NA,NA,NA,NA,NA,NA,NA,NA,NA,NA,NA,NA,NA,NA,NA,NA,NA,NA,NA,NA
"350","stim/objects/HouseObjects/pan3.png",359,71,352,0.9,"stim/14.jpeg",1,4,3,2,"HouseObjects",2,4,"right","right",0.530999899,1,1,1,0,NA,NA,NA,NA,NA,NA,NA,NA,NA,NA,NA,NA,NA,NA,NA,NA,NA,NA,NA,NA,NA,NA,NA,NA
"247","stim/objects/HouseObjects/barbecuelighter3.png",360,71,353,0.5,"stim/33.jpeg",3,3,1,2,"HouseObjects",2,1,"right","right",0.567000151,1,1,1,0,NA,NA,NA,NA,NA,NA,NA,NA,NA,NA,NA,NA,NA,NA,NA,NA,NA,NA,NA,NA,NA,NA,NA,NA
"434","stim/objects/Instruments/cornet3.png",361,71,354,0.5,"stim/44.jpeg",4,4,1,2,"Instruments",1,4,"left","left",0.496000051,1,1,1,0,NA,NA,NA,NA,NA,NA,NA,NA,NA,NA,NA,NA,NA,NA,NA,NA,NA,NA,NA,NA,NA,NA,NA,NA
"513","stim/objects/Instruments/musicstand3.png",362,71,355,0.9,"stim/23.jpeg",2,3,3,2,"Instruments",1,3,"left","left",0.505999804,1,1,1,0,NA,NA,NA,NA,NA,NA,NA,NA,NA,NA,NA,NA,NA,NA,NA,NA,NA,NA,NA,NA,NA,NA,NA,NA
"514","stim/objects/Instruments/musicstand3.png",363,71,356,0.9,"stim/22.jpeg",2,2,3,2,"Instruments",1,4,"left","left",0.617000103,1,1,1,0,NA,NA,NA,NA,NA,NA,NA,NA,NA,NA,NA,NA,NA,NA,NA,NA,NA,NA,NA,NA,NA,NA,NA,NA
"379","stim/objects/HouseObjects/remote4.png",364,71,357,0.9,"stim/11.jpeg",1,1,3,1,"HouseObjects",2,1,"right","right",0.496999979,1,1,1,0,21,71,1,0.9,2,"stim/11.jpeg",1,1,"stim/11.jpeg",1,"right",1.269000053,2,3,0.86500001,2,1.531000137,21,0,0,NA,0,NA,0
"552","stim/objects/Instruments/speaker4.png",365,71,358,0.9,"stim/21.jpeg",2,1,3,1,"Instruments",1,2,"left","left",0.476999998,1,1,1,0,47,71,1,0.9,1,"stim/21.jpeg",2,1,"stim/21.jpeg",2,"left",0.897000074,3,4,2.520999908,2,1.085000038,47,1,0,0,1,1,0
"298","stim/objects/HouseObjects/knife3.png",366,71,359,0.9,"stim/12.jpeg",1,2,3,2,"HouseObjects",2,3,"right","right",0.643999815,1,1,1,0,NA,NA,NA,NA,NA,NA,NA,NA,NA,NA,NA,NA,NA,NA,NA,NA,NA,NA,NA,NA,NA,NA,NA,NA
"399","stim/objects/HouseObjects/thread4.png",367,71,360,0.1,"stim/21.jpeg",2,1,3,1,"HouseObjects",2,3,"right","left",0.633999825,0,0,1,0,50,71,1,0.1,2,"stim/21.jpeg",2,1,"stim/21.jpeg",3,"left",0.802999973,3,2,1.620000124,3,2.698999882,50,1,0,0,1,1,0
"461","stim/objects/Instruments/marimba3.png",368,71,361,0.9,"stim/24.jpeg",2,4,3,2,"Instruments",1,4,"left","left",0.52699995,1,1,1,0,NA,NA,NA,NA,NA,NA,NA,NA,NA,NA,NA,NA,NA,NA,NA,NA,NA,NA,NA,NA,NA,NA,NA,NA
"543","stim/objects/Instruments/pipepiano3.png",369,71,362,0.5,"stim/34.jpeg",3,4,1,1,"Instruments",1,2,"left","right",0.51699996,0,0,1,0,129,71,1,0.5,1,"stim/34.jpeg",3,4,"stim/34.jpeg",2,"left",2.078000069,4,2,0.748999834,1,1.058000088,129,1,0,0,0,0,0
"333","stim/objects/HouseObjects/match3.png",370,71,363,0.9,"stim/14.jpeg",1,4,3,2,"HouseObjects",2,3,"right","right",0.486999989,1,1,1,0,NA,NA,NA,NA,NA,NA,NA,NA,NA,NA,NA,NA,NA,NA,NA,NA,NA,NA,NA,NA,NA,NA,NA,NA
"250","stim/objects/HouseObjects/basket3.png",371,71,364,0.5,"stim/34.jpeg",3,4,1,2,"HouseObjects",2,1,"right","right",0.447999954,1,1,1,0,NA,NA,NA,NA,NA,NA,NA,NA,NA,NA,NA,NA,NA,NA,NA,NA,NA,NA,NA,NA,NA,NA,NA,NA
"300","stim/objects/HouseObjects/knife3.png",372,71,365,0.9,"stim/11.jpeg",1,1,3,2,"HouseObjects",2,4,"right","right",0.430999994,1,1,1,0,NA,NA,NA,NA,NA,NA,NA,NA,NA,NA,NA,NA,NA,NA,NA,NA,NA,NA,NA,NA,NA,NA,NA,NA
"499","stim/objects/Instruments/musicsheet3.png",373,71,366,0.9,"stim/24.jpeg",2,4,3,2,"Instruments",1,2,"left","left",0.573999882,1,1,1,0,NA,NA,NA,NA,NA,NA,NA,NA,NA,NA,NA,NA,NA,NA,NA,NA,NA,NA,NA,NA,NA,NA,NA,NA
"405","stim/objects/HouseObjects/wateringcan4.png",374,71,367,0.1,"stim/24.jpeg",2,4,3,1,"HouseObjects",2,4,"right","left",0.578000069,0,0,1,0,106,71,1,0.1,2,"stim/24.jpeg",2,4,"stim/24.jpeg",4,"right",1.693000078,2,3,0.553999901,2,1.203999996,106,0,0,NA,0,NA,0
"282","stim/objects/HouseObjects/iron4.png",375,71,368,0.3,"stim/61.jpeg",6,1,2,1,"HouseObjects",2,1,"right","left",0.429999828,0,0,1,0,62,71,1,0.3,2,"stim/61.jpeg",6,1,"stim/61.jpeg",1,"right",0.835999966,3,3,0.592000008,3,0.565999985,62,0,0,NA,0,NA,0
"369","stim/objects/HouseObjects/pitcher3.png",376,71,369,0.9,"stim/14.jpeg",1,4,3,2,"HouseObjects",2,1,"right","left",0.513000011,0,0,1,0,NA,NA,NA,NA,NA,NA,NA,NA,NA,NA,NA,NA,NA,NA,NA,NA,NA,NA,NA,NA,NA,NA,NA,NA
"327","stim/objects/HouseObjects/match3.png",377,71,370,0.9,"stim/12.jpeg",1,2,3,2,"HouseObjects",2,3,"right","right",0.559999943,1,1,1,0,NA,NA,NA,NA,NA,NA,NA,NA,NA,NA,NA,NA,NA,NA,NA,NA,NA,NA,NA,NA,NA,NA,NA,NA
"474","stim/objects/Instruments/metronome3.png",378,71,371,0.9,"stim/23.jpeg",2,3,3,2,"Instruments",1,2,"left","left",0.631000042,1,1,1,0,NA,NA,NA,NA,NA,NA,NA,NA,NA,NA,NA,NA,NA,NA,NA,NA,NA,NA,NA,NA,NA,NA,NA,NA
"279","stim/objects/HouseObjects/iron3.png",379,71,372,0.7,"stim/53.jpeg",5,3,2,2,"HouseObjects",2,3,"right","right",0.50999999,1,1,1,0,NA,NA,NA,NA,NA,NA,NA,NA,NA,NA,NA,NA,NA,NA,NA,NA,NA,NA,NA,NA,NA,NA,NA,NA
"418","stim/objects/Instruments/bassdrum3.png",380,71,373,0.5,"stim/32.jpeg",3,2,1,2,"Instruments",1,1,"left","left",0.49000001,1,1,1,0,NA,NA,NA,NA,NA,NA,NA,NA,NA,NA,NA,NA,NA,NA,NA,NA,NA,NA,NA,NA,NA,NA,NA,NA
"532","stim/objects/Instruments/oboe3.png",381,71,374,0.9,"stim/24.jpeg",2,4,3,2,"Instruments",1,4,"left","right",0.476000071,0,0,1,0,NA,NA,NA,NA,NA,NA,NA,NA,NA,NA,NA,NA,NA,NA,NA,NA,NA,NA,NA,NA,NA,NA,NA,NA
"421","stim/objects/Instruments/bassguitar3.png",382,71,375,0.5,"stim/43.jpeg",4,3,1,2,"Instruments",1,4,"left","right",0.589999914,0,0,1,0,NA,NA,NA,NA,NA,NA,NA,NA,NA,NA,NA,NA,NA,NA,NA,NA,NA,NA,NA,NA,NA,NA,NA,NA
"490","stim/objects/Instruments/musicsheet3.png",383,71,376,0.9,"stim/22.jpeg",2,2,3,2,"Instruments",1,3,"left","left",0.712999821,1,1,1,0,NA,NA,NA,NA,NA,NA,NA,NA,NA,NA,NA,NA,NA,NA,NA,NA,NA,NA,NA,NA,NA,NA,NA,NA
"450","stim/objects/Instruments/laud3.png",384,71,377,0.7,"stim/62.jpeg",6,2,2,2,"Instruments",1,3,"left","left",0.55099988,1,1,1,0,NA,NA,NA,NA,NA,NA,NA,NA,NA,NA,NA,NA,NA,NA,NA,NA,NA,NA,NA,NA,NA,NA,NA,NA
"378","stim/objects/HouseObjects/remote3.png",385,71,378,0.5,"stim/33.jpeg",3,3,1,1,"HouseObjects",2,2,"right","left",0.680999994,0,0,1,0,4,71,1,0.5,1,"stim/33.jpeg",3,3,"stim/33.jpeg",2,"right",1.398999929,3,3,1.718000174,2,2.028000116,4,0,1,NA,1,NA,0
"449","stim/objects/Instruments/laud3.png",386,71,379,0.7,"stim/64.jpeg",6,4,2,2,"Instruments",1,3,"left","left",0.593999863,1,1,1,0,NA,NA,NA,NA,NA,NA,NA,NA,NA,NA,NA,NA,NA,NA,NA,NA,NA,NA,NA,NA,NA,NA,NA,NA
"290","stim/objects/HouseObjects/key4.png",387,71,380,0.3,"stim/63.jpeg",6,3,2,1,"HouseObjects",2,1,"right","left",0.695999861,0,0,1,0,152,71,1,0.3,2,"stim/63.jpeg",6,3,"stim/63.jpeg",1,"left",1.973999977,3,2,0.674999952,2,0.899999857,152,1,0,0,0,0,0
"360","stim/objects/HouseObjects/pitcher3.png",388,71,381,0.9,"stim/12.jpeg",1,2,3,2,"HouseObjects",2,1,"right","right",0.51699996,1,1,1,0,NA,NA,NA,NA,NA,NA,NA,NA,NA,NA,NA,NA,NA,NA,NA,NA,NA,NA,NA,NA,NA,NA,NA,NA
"409","stim/objects/Instruments/acousticguitar3.png",389,71,382,0.5,"stim/32.jpeg",3,2,1,2,"Instruments",1,2,"left","left",0.523999929,1,1,1,0,NA,NA,NA,NA,NA,NA,NA,NA,NA,NA,NA,NA,NA,NA,NA,NA,NA,NA,NA,NA,NA,NA,NA,NA
"334","stim/objects/HouseObjects/match3.png",390,71,383,0.9,"stim/13.jpeg",1,3,3,2,"HouseObjects",2,4,"right","right",0.506999969,1,1,1,0,NA,NA,NA,NA,NA,NA,NA,NA,NA,NA,NA,NA,NA,NA,NA,NA,NA,NA,NA,NA,NA,NA,NA,NA
"447","stim/objects/Instruments/keyboard4.png",391,71,384,0.7,"stim/63.jpeg",6,3,2,1,"Instruments",1,2,"left","left",0.593999863,1,1,1,0,199,71,1,0.7,1,"stim/63.jpeg",6,3,"stim/63.jpeg",2,"left",0.976000071,3,2,0.809999943,1,1.732000113,199,1,0,0,0,0,0
"422","stim/objects/Instruments/bassguitar3.png",392,71,385,0.5,"stim/44.jpeg",4,4,1,2,"Instruments",1,2,"left","right",0.509999752,0,0,1,0,NA,NA,NA,NA,NA,NA,NA,NA,NA,NA,NA,NA,NA,NA,NA,NA,NA,NA,NA,NA,NA,NA,NA,NA
"500","stim/objects/Instruments/musicsheet3.png",393,71,386,0.9,"stim/23.jpeg",2,3,3,2,"Instruments",1,1,"left","left",0.506000042,1,1,1,0,NA,NA,NA,NA,NA,NA,NA,NA,NA,NA,NA,NA,NA,NA,NA,NA,NA,NA,NA,NA,NA,NA,NA,NA
"460","stim/objects/Instruments/marimba3.png",394,71,387,0.9,"stim/23.jpeg",2,3,3,2,"Instruments",1,3,"left","left",0.593999863,1,1,1,0,NA,NA,NA,NA,NA,NA,NA,NA,NA,NA,NA,NA,NA,NA,NA,NA,NA,NA,NA,NA,NA,NA,NA,NA
"270","stim/objects/HouseObjects/clock4.png",395,71,388,0.3,"stim/62.jpeg",6,2,2,1,"HouseObjects",2,2,"right","left",0.581999779,0,0,1,0,24,71,1,0.3,2,"stim/62.jpeg",6,2,"stim/62.jpeg",2,"right",0.832999945,3,3,0.818000078,2,1.038000107,24,0,0,NA,1,NA,0
"531","stim/objects/Instruments/oboe3.png",396,71,389,0.9,"stim/22.jpeg",2,2,3,2,"Instruments",1,1,"left","left",0.512000084,1,1,1,0,NA,NA,NA,NA,NA,NA,NA,NA,NA,NA,NA,NA,NA,NA,NA,NA,NA,NA,NA,NA,NA,NA,NA,NA
"315","stim/objects/HouseObjects/lintroller3.png",397,71,390,0.9,"stim/13.jpeg",1,3,3,2,"HouseObjects",2,3,"right","right",0.604000092,1,1,1,0,NA,NA,NA,NA,NA,NA,NA,NA,NA,NA,NA,NA,NA,NA,NA,NA,NA,NA,NA,NA,NA,NA,NA,NA
"316","stim/objects/HouseObjects/lintroller3.png",398,71,391,0.9,"stim/14.jpeg",1,4,3,2,"HouseObjects",2,2,"right","left",0.448999882,0,0,1,0,NA,NA,NA,NA,NA,NA,NA,NA,NA,NA,NA,NA,NA,NA,NA,NA,NA,NA,NA,NA,NA,NA,NA,NA
"317","stim/objects/HouseObjects/lintroller3.png",399,71,392,0.9,"stim/13.jpeg",1,3,3,2,"HouseObjects",2,4,"right","right",0.661999702,1,1,1,0,NA,NA,NA,NA,NA,NA,NA,NA,NA,NA,NA,NA,NA,NA,NA,NA,NA,NA,NA,NA,NA,NA,NA,NA
"554","stim/objects/Instruments/tambourine4.png",400,71,393,0.9,"stim/22.jpeg",2,2,3,1,"Instruments",1,2,"left","left",0.54399991,1,1,1,0,187,71,1,0.9,1,"stim/22.jpeg",2,2,"stim/22.jpeg",2,"right",1.684000015,3,2,0.599999905,2,0.733999968,187,0,1,NA,1,NA,0
"515","stim/objects/Instruments/musicstand3.png",401,71,394,0.9,"stim/22.jpeg",2,2,3,2,"Instruments",1,3,"left","left",0.546999931,1,1,1,0,NA,NA,NA,NA,NA,NA,NA,NA,NA,NA,NA,NA,NA,NA,NA,NA,NA,NA,NA,NA,NA,NA,NA,NA
"254","stim/objects/HouseObjects/bleachbottle3.png",402,71,395,0.5,"stim/34.jpeg",3,4,1,2,"HouseObjects",2,3,"right","right",0.612999916,1,1,1,0,NA,NA,NA,NA,NA,NA,NA,NA,NA,NA,NA,NA,NA,NA,NA,NA,NA,NA,NA,NA,NA,NA,NA,NA
"304","stim/objects/HouseObjects/knife3.png",403,71,396,0.9,"stim/11.jpeg",1,1,3,2,"HouseObjects",2,3,"right","left",0.512999773,0,0,1,0,NA,NA,NA,NA,NA,NA,NA,NA,NA,NA,NA,NA,NA,NA,NA,NA,NA,NA,NA,NA,NA,NA,NA,NA
"329","stim/objects/HouseObjects/match3.png",404,71,397,0.9,"stim/12.jpeg",1,2,3,2,"HouseObjects",2,1,"right","right",0.575000048,1,1,1,0,NA,NA,NA,NA,NA,NA,NA,NA,NA,NA,NA,NA,NA,NA,NA,NA,NA,NA,NA,NA,NA,NA,NA,NA
"493","stim/objects/Instruments/musicsheet3.png",405,71,398,0.9,"stim/21.jpeg",2,1,3,2,"Instruments",1,3,"left","left",0.760999918,1,1,1,0,NA,NA,NA,NA,NA,NA,NA,NA,NA,NA,NA,NA,NA,NA,NA,NA,NA,NA,NA,NA,NA,NA,NA,NA
"295","stim/objects/HouseObjects/knife3.png",406,71,399,0.9,"stim/13.jpeg",1,3,3,2,"HouseObjects",2,2,"right","right",0.60199976,1,1,1,0,NA,NA,NA,NA,NA,NA,NA,NA,NA,NA,NA,NA,NA,NA,NA,NA,NA,NA,NA,NA,NA,NA,NA,NA
"382","stim/objects/HouseObjects/rug3.png",407,71,400,0.5,"stim/31.jpeg",3,1,1,1,"HouseObjects",2,4,"right","right",0.662999868,1,1,1,0,29,71,1,0.5,1,"stim/31.jpeg",3,1,"stim/31.jpeg",4,"right",0.93599987,3,3,1.200000048,2,1.625,29,0,0,NA,0,NA,0
"466","stim/objects/Instruments/marimba3.png",408,71,401,0.9,"stim/21.jpeg",2,1,3,2,"Instruments",1,3,"left","left",0.51699996,1,1,1,0,NA,NA,NA,NA,NA,NA,NA,NA,NA,NA,NA,NA,NA,NA,NA,NA,NA,NA,NA,NA,NA,NA,NA,NA
"362","stim/objects/HouseObjects/pitcher3.png",409,71,402,0.9,"stim/13.jpeg",1,3,3,2,"HouseObjects",2,4,"right","right",0.429999828,1,1,1,0,NA,NA,NA,NA,NA,NA,NA,NA,NA,NA,NA,NA,NA,NA,NA,NA,NA,NA,NA,NA,NA,NA,NA,NA
"280","stim/objects/HouseObjects/iron3.png",410,71,403,0.7,"stim/51.jpeg",5,1,2,2,"HouseObjects",2,3,"right","right",0.555999994,1,1,1,0,NA,NA,NA,NA,NA,NA,NA,NA,NA,NA,NA,NA,NA,NA,NA,NA,NA,NA,NA,NA,NA,NA,NA,NA
"483","stim/objects/Instruments/metronome3.png",411,71,404,0.9,"stim/23.jpeg",2,3,3,2,"Instruments",1,3,"left","right",0.633999825,0,0,1,0,NA,NA,NA,NA,NA,NA,NA,NA,NA,NA,NA,NA,NA,NA,NA,NA,NA,NA,NA,NA,NA,NA,NA,NA
"305","stim/objects/HouseObjects/knife3.png",412,71,405,0.9,"stim/13.jpeg",1,3,3,2,"HouseObjects",2,1,"right","right",0.579999924,1,1,1,0,NA,NA,NA,NA,NA,NA,NA,NA,NA,NA,NA,NA,NA,NA,NA,NA,NA,NA,NA,NA,NA,NA,NA,NA
"424","stim/objects/Instruments/cello3.png",413,71,406,0.5,"stim/44.jpeg",4,4,1,2,"Instruments",1,3,"left","right",0.717999935,0,0,1,0,NA,NA,NA,NA,NA,NA,NA,NA,NA,NA,NA,NA,NA,NA,NA,NA,NA,NA,NA,NA,NA,NA,NA,NA
"397","stim/objects/HouseObjects/thermometer4.png",414,71,407,0.1,"stim/24.jpeg",2,4,3,1,"HouseObjects",2,1,"right","left",0.67599988,0,0,1,0,115,71,1,0.1,2,"stim/24.jpeg",2,4,"stim/24.jpeg",1,"right",0.799999952,3,3,0.51699996,2,0.78399992,115,0,0,NA,0,NA,0
"377","stim/objects/HouseObjects/recyclingbin4.png",415,71,408,0.9,"stim/14.jpeg",1,4,3,1,"HouseObjects",2,3,"right","right",0.57799983,1,1,1,0,176,71,1,0.9,2,"stim/14.jpeg",1,4,"stim/14.jpeg",3,"left",2.226000071,3,3,0.805999994,2,0.720999956,176,1,0,0,0,0,0
"253","stim/objects/HouseObjects/bleachbottle3.png",416,71,409,0.5,"stim/31.jpeg",3,1,1,2,"HouseObjects",2,4,"right","left",0.50399971,0,0,1,0,NA,NA,NA,NA,NA,NA,NA,NA,NA,NA,NA,NA,NA,NA,NA,NA,NA,NA,NA,NA,NA,NA,NA,NA
"371","stim/objects/HouseObjects/pitcher3.png",417,71,410,0.9,"stim/13.jpeg",1,3,3,2,"HouseObjects",2,4,"right","left",0.645999908,0,0,1,0,NA,NA,NA,NA,NA,NA,NA,NA,NA,NA,NA,NA,NA,NA,NA,NA,NA,NA,NA,NA,NA,NA,NA,NA
"311","stim/objects/HouseObjects/lintroller3.png",418,71,411,0.9,"stim/12.jpeg",1,2,3,2,"HouseObjects",2,4,"right","right",0.492999792,1,1,1,0,NA,NA,NA,NA,NA,NA,NA,NA,NA,NA,NA,NA,NA,NA,NA,NA,NA,NA,NA,NA,NA,NA,NA,NA
"475","stim/objects/Instruments/metronome3.png",419,71,412,0.9,"stim/22.jpeg",2,2,3,2,"Instruments",1,4,"left","right",0.376999855,0,0,1,0,NA,NA,NA,NA,NA,NA,NA,NA,NA,NA,NA,NA,NA,NA,NA,NA,NA,NA,NA,NA,NA,NA,NA,NA
"561","stim/objects/Instruments/trumpet3.png",420,71,413,0.3,"stim/51.jpeg",5,1,2,1,"Instruments",1,2,"left","right",0.514999866,0,0,1,0,105,71,1,0.3,1,"stim/51.jpeg",5,1,"stim/51.jpeg",2,"right",1.119999886,3,3,1.067000151,3,1.102999926,105,0,0,NA,0,NA,0
"335","stim/objects/HouseObjects/match3.png",421,71,414,0.9,"stim/11.jpeg",1,1,3,2,"HouseObjects",2,1,"right","right",0.576999903,1,1,1,0,NA,NA,NA,NA,NA,NA,NA,NA,NA,NA,NA,NA,NA,NA,NA,NA,NA,NA,NA,NA,NA,NA,NA,NA
"396","stim/objects/HouseObjects/thermometer3.png",422,71,415,0.7,"stim/52.jpeg",5,2,2,1,"HouseObjects",2,2,"right","right",0.56099987,1,1,1,0,74,71,1,0.7,2,"stim/52.jpeg",5,2,"stim/52.jpeg",2,"right",0.950000048,2,3,0.555000067,1,1.752000093,74,0,0,NA,0,NA,0
"274","stim/objects/HouseObjects/clothesdryingrack4.png",423,71,416,0.3,"stim/63.jpeg",6,3,2,1,"HouseObjects",2,3,"right","left",0.736999989,0,0,1,0,36,71,1,0.3,2,"stim/63.jpeg",6,3,"stim/63.jpeg",3,"left",1.067000151,4,3,1.572000027,1,0.779999971,36,1,1,1,0,0,0
"372","stim/objects/HouseObjects/pitcher3.png",424,71,417,0.9,"stim/14.jpeg",1,4,3,2,"HouseObjects",2,2,"right","right",0.475999832,1,1,1,0,NA,NA,NA,NA,NA,NA,NA,NA,NA,NA,NA,NA,NA,NA,NA,NA,NA,NA,NA,NA,NA,NA,NA,NA
"383","stim/objects/HouseObjects/rug4.png",425,71,418,0.9,"stim/13.jpeg",1,3,3,1,"HouseObjects",2,2,"right","",NA,0,0,1,0,84,71,1,0.9,2,"stim/13.jpeg",1,3,"stim/13.jpeg",2,"left",1.492000103,3,2,2.94900012,1,0.950999975,84,1,0,0,0,0,0
"256","stim/objects/HouseObjects/blender3.png",426,71,419,0.5,"stim/43.jpeg",4,3,1,2,"HouseObjects",2,2,"right","right",0.62899971,1,1,1,0,NA,NA,NA,NA,NA,NA,NA,NA,NA,NA,NA,NA,NA,NA,NA,NA,NA,NA,NA,NA,NA,NA,NA,NA
"341","stim/objects/HouseObjects/match4.png",427,71,420,0.9,"stim/11.jpeg",1,1,3,1,"HouseObjects",2,2,"right","right",0.730000019,1,1,1,0,32,71,1,0.9,2,"stim/11.jpeg",1,1,"stim/11.jpeg",2,"right",1.214999914,3,4,1.116999865,4,1.151000023,32,0,0,NA,0,NA,0
"527","stim/objects/Instruments/oboe3.png",428,71,421,0.9,"stim/21.jpeg",2,1,3,2,"Instruments",1,1,"left","left",0.483999968,1,1,1,0,NA,NA,NA,NA,NA,NA,NA,NA,NA,NA,NA,NA,NA,NA,NA,NA,NA,NA,NA,NA,NA,NA,NA,NA
"364","stim/objects/HouseObjects/pitcher3.png",429,71,422,0.9,"stim/14.jpeg",1,4,3,2,"HouseObjects",2,4,"right","right",0.565999985,1,1,1,0,NA,NA,NA,NA,NA,NA,NA,NA,NA,NA,NA,NA,NA,NA,NA,NA,NA,NA,NA,NA,NA,NA,NA,NA
"352","stim/objects/HouseObjects/pan3.png",430,71,423,0.9,"stim/11.jpeg",1,1,3,2,"HouseObjects",2,1,"right","right",0.602999926,1,1,1,0,NA,NA,NA,NA,NA,NA,NA,NA,NA,NA,NA,NA,NA,NA,NA,NA,NA,NA,NA,NA,NA,NA,NA,NA
"518","stim/objects/Instruments/musicstand3.png",431,71,424,0.9,"stim/23.jpeg",2,3,3,2,"Instruments",1,4,"left","left",0.597999811,1,1,1,0,NA,NA,NA,NA,NA,NA,NA,NA,NA,NA,NA,NA,NA,NA,NA,NA,NA,NA,NA,NA,NA,NA,NA,NA
"260","stim/objects/HouseObjects/bottle3.png",432,71,425,0.5,"stim/44.jpeg",4,4,1,2,"HouseObjects",2,2,"right","right",0.554000139,1,1,1,0,NA,NA,NA,NA,NA,NA,NA,NA,NA,NA,NA,NA,NA,NA,NA,NA,NA,NA,NA,NA,NA,NA,NA,NA
"402","stim/objects/HouseObjects/vacuumcleaner3.png",433,71,426,0.7,"stim/51.jpeg",5,1,2,1,"HouseObjects",2,1,"right","right",0.578000069,1,1,1,0,111,71,1,0.7,2,"stim/51.jpeg",5,1,"stim/51.jpeg",1,"right",1.449999809,3,3,0.588999987,2,0.963000059,111,0,0,NA,0,NA,0
"477","stim/objects/Instruments/metronome3.png",434,71,427,0.9,"stim/23.jpeg",2,3,3,2,"Instruments",1,4,"left","right",0.73699975,0,0,1,0,NA,NA,NA,NA,NA,NA,NA,NA,NA,NA,NA,NA,NA,NA,NA,NA,NA,NA,NA,NA,NA,NA,NA,NA
"550","stim/objects/Instruments/saxophone4.png",435,71,428,0.1,"stim/12.jpeg",1,2,3,1,"Instruments",1,4,"left","left",0.612999916,1,1,1,0,63,71,1,0.1,1,"stim/12.jpeg",1,2,"stim/12.jpeg",4,"right",1.69900012,2,2,0.900000095,3,0.948999882,63,0,1,NA,0,NA,0
"433","stim/objects/Instruments/cornet3.png",436,71,429,0.5,"stim/43.jpeg",4,3,1,2,"Instruments",1,3,"left","right",0.551000118,0,0,1,0,NA,NA,NA,NA,NA,NA,NA,NA,NA,NA,NA,NA,NA,NA,NA,NA,NA,NA,NA,NA,NA,NA,NA,NA
"481","stim/objects/Instruments/metronome3.png",437,71,430,0.9,"stim/22.jpeg",2,2,3,2,"Instruments",1,3,"left","left",0.73300004,1,1,1,0,NA,NA,NA,NA,NA,NA,NA,NA,NA,NA,NA,NA,NA,NA,NA,NA,NA,NA,NA,NA,NA,NA,NA,NA
"385","stim/objects/HouseObjects/safetypin4.png",438,71,431,0.9,"stim/14.jpeg",1,4,3,1,"HouseObjects",2,1,"right","right",0.707999945,1,1,1,0,146,71,1,0.9,2,"stim/14.jpeg",1,4,"stim/14.jpeg",1,"right",1.038000107,2,3,0.60800004,2,0.78399992,146,0,0,NA,0,NA,0
"528","stim/objects/Instruments/oboe3.png",439,71,432,0.9,"stim/24.jpeg",2,4,3,2,"Instruments",1,1,"left","left",0.632999897,1,1,1,0,NA,NA,NA,NA,NA,NA,NA,NA,NA,NA,NA,NA,NA,NA,NA,NA,NA,NA,NA,NA,NA,NA,NA,NA
"338","stim/objects/HouseObjects/match3.png",440,71,433,0.9,"stim/13.jpeg",1,3,3,2,"HouseObjects",2,4,"right","right",0.563999891,1,1,1,0,NA,NA,NA,NA,NA,NA,NA,NA,NA,NA,NA,NA,NA,NA,NA,NA,NA,NA,NA,NA,NA,NA,NA,NA
"529","stim/objects/Instruments/oboe3.png",441,71,434,0.9,"stim/24.jpeg",2,4,3,2,"Instruments",1,4,"left","left",0.559999943,1,1,1,0,NA,NA,NA,NA,NA,NA,NA,NA,NA,NA,NA,NA,NA,NA,NA,NA,NA,NA,NA,NA,NA,NA,NA,NA
"503","stim/objects/Instruments/musicsheet3.png",442,71,435,0.9,"stim/24.jpeg",2,4,3,2,"Instruments",1,2,"left","left",0.554999828,1,1,1,0,NA,NA,NA,NA,NA,NA,NA,NA,NA,NA,NA,NA,NA,NA,NA,NA,NA,NA,NA,NA,NA,NA,NA,NA
"444","stim/objects/Instruments/keyboard3.png",443,71,436,0.7,"stim/64.jpeg",6,4,2,2,"Instruments",1,2,"left","left",0.56099987,1,1,1,0,NA,NA,NA,NA,NA,NA,NA,NA,NA,NA,NA,NA,NA,NA,NA,NA,NA,NA,NA,NA,NA,NA,NA,NA
"478","stim/objects/Instruments/metronome3.png",444,71,437,0.9,"stim/23.jpeg",2,3,3,2,"Instruments",1,4,"left","left",0.565999985,1,1,1,0,NA,NA,NA,NA,NA,NA,NA,NA,NA,NA,NA,NA,NA,NA,NA,NA,NA,NA,NA,NA,NA,NA,NA,NA
"453","stim/objects/Instruments/maraca3.png",445,71,438,0.7,"stim/62.jpeg",6,2,2,2,"Instruments",1,1,"left","left",0.503999949,1,1,1,0,NA,NA,NA,NA,NA,NA,NA,NA,NA,NA,NA,NA,NA,NA,NA,NA,NA,NA,NA,NA,NA,NA,NA,NA
"557","stim/objects/Instruments/triangle3.png",446,71,439,0.5,"stim/44.jpeg",4,4,1,1,"Instruments",1,1,"left","left",0.447000027,1,1,1,0,150,71,1,0.5,2,"stim/44.jpeg",4,4,"stim/44.jpeg",1,"left",1.478000164,3,3,0.625999928,2,0.743000031,150,1,0,0,0,0,0
"441","stim/objects/Instruments/doublebass3.png",447,71,440,0.7,"stim/63.jpeg",6,3,2,2,"Instruments",1,2,"left","left",0.523000002,1,1,1,0,NA,NA,NA,NA,NA,NA,NA,NA,NA,NA,NA,NA,NA,NA,NA,NA,NA,NA,NA,NA,NA,NA,NA,NA
"484","stim/objects/Instruments/metronome3.png",448,71,441,0.9,"stim/24.jpeg",2,4,3,2,"Instruments",1,1,"left","left",0.46600008,1,1,1,0,NA,NA,NA,NA,NA,NA,NA,NA,NA,NA,NA,NA,NA,NA,NA,NA,NA,NA,NA,NA,NA,NA,NA,NA
"332","stim/objects/HouseObjects/match3.png",449,71,442,0.9,"stim/12.jpeg",1,2,3,2,"HouseObjects",2,2,"right","right",0.54399991,1,1,1,0,NA,NA,NA,NA,NA,NA,NA,NA,NA,NA,NA,NA,NA,NA,NA,NA,NA,NA,NA,NA,NA,NA,NA,NA
"354","stim/objects/HouseObjects/pan3.png",450,71,443,0.9,"stim/11.jpeg",1,1,3,2,"HouseObjects",2,2,"right","right",0.513000011,1,1,1,0,NA,NA,NA,NA,NA,NA,NA,NA,NA,NA,NA,NA,NA,NA,NA,NA,NA,NA,NA,NA,NA,NA,NA,NA
"479","stim/objects/Instruments/metronome3.png",451,71,444,0.9,"stim/22.jpeg",2,2,3,2,"Instruments",1,1,"left","left",0.552000046,1,1,1,0,NA,NA,NA,NA,NA,NA,NA,NA,NA,NA,NA,NA,NA,NA,NA,NA,NA,NA,NA,NA,NA,NA,NA,NA
"353","stim/objects/HouseObjects/pan3.png",452,71,445,0.9,"stim/14.jpeg",1,4,3,2,"HouseObjects",2,3,"right","right",0.506000042,1,1,1,0,NA,NA,NA,NA,NA,NA,NA,NA,NA,NA,NA,NA,NA,NA,NA,NA,NA,NA,NA,NA,NA,NA,NA,NA
"505","stim/objects/Instruments/musicsheet3.png",453,71,446,0.9,"stim/22.jpeg",2,2,3,2,"Instruments",1,2,"left","left",0.544999838,1,1,1,0,NA,NA,NA,NA,NA,NA,NA,NA,NA,NA,NA,NA,NA,NA,NA,NA,NA,NA,NA,NA,NA,NA,NA,NA
"570","stim/objects/Instruments/xylophone4.png",454,71,447,0.9,"stim/22.jpeg",2,2,3,1,"Instruments",1,4,"left","left",0.422999859,1,1,1,0,153,71,1,0.9,1,"stim/22.jpeg",2,2,"stim/22.jpeg",4,"left",2.605999947,2,2,0.634000063,2,0.838999987,153,1,1,1,0,0,0
"313","stim/objects/HouseObjects/lintroller3.png",455,71,448,0.9,"stim/13.jpeg",1,3,3,2,"HouseObjects",2,2,"right","right",0.335999966,1,1,1,0,NA,NA,NA,NA,NA,NA,NA,NA,NA,NA,NA,NA,NA,NA,NA,NA,NA,NA,NA,NA,NA,NA,NA,NA
"246","stim/objects/HouseObjects/ballofstring4.png",456,71,449,0.7,"stim/54.jpeg",5,4,2,1,"HouseObjects",2,3,"right","left",0.450000048,0,0,1,0,143,71,1,0.7,2,"stim/54.jpeg",5,4,"stim/54.jpeg",3,"left",0.991999865,4,3,0.999000072,2,1.684000015,143,1,0,0,0,0,0
"263","stim/objects/HouseObjects/broom3.png",457,71,450,0.5,"stim/41.jpeg",4,1,1,2,"HouseObjects",2,4,"right","right",0.33100009,1,1,1,0,NA,NA,NA,NA,NA,NA,NA,NA,NA,NA,NA,NA,NA,NA,NA,NA,NA,NA,NA,NA,NA,NA,NA,NA
"502","stim/objects/Instruments/musicsheet3.png",458,71,451,0.9,"stim/21.jpeg",2,1,3,2,"Instruments",1,3,"left","left",0.463999748,1,1,1,0,NA,NA,NA,NA,NA,NA,NA,NA,NA,NA,NA,NA,NA,NA,NA,NA,NA,NA,NA,NA,NA,NA,NA,NA
"285","stim/objects/HouseObjects/ironingboard3.png",459,71,452,0.7,"stim/52.jpeg",5,2,2,2,"HouseObjects",2,3,"right","right",0.52699995,1,1,1,0,NA,NA,NA,NA,NA,NA,NA,NA,NA,NA,NA,NA,NA,NA,NA,NA,NA,NA,NA,NA,NA,NA,NA,NA
"380","stim/objects/HouseObjects/rubbergloves3.png",460,71,453,0.5,"stim/34.jpeg",3,4,1,1,"HouseObjects",2,3,"right","right",0.510999918,1,1,1,0,58,71,1,0.5,1,"stim/34.jpeg",3,4,"stim/34.jpeg",3,"right",0.75,3,3,0.634000063,2,0.849999905,58,0,0,NA,0,NA,0
"512","stim/objects/Instruments/musicstand3.png",461,71,454,0.9,"stim/24.jpeg",2,4,3,2,"Instruments",1,3,"left","left",0.530999899,1,1,1,0,NA,NA,NA,NA,NA,NA,NA,NA,NA,NA,NA,NA,NA,NA,NA,NA,NA,NA,NA,NA,NA,NA,NA,NA
"459","stim/objects/Instruments/marimba3.png",462,71,455,0.9,"stim/24.jpeg",2,4,3,2,"Instruments",1,4,"left","left",0.414000034,1,1,1,0,NA,NA,NA,NA,NA,NA,NA,NA,NA,NA,NA,NA,NA,NA,NA,NA,NA,NA,NA,NA,NA,NA,NA,NA
"242","stim/objects/HouseObjects/ashtray3.png",463,71,456,0.5,"stim/34.jpeg",3,4,1,2,"HouseObjects",2,2,"right","left",0.453999996,0,0,1,0,NA,NA,NA,NA,NA,NA,NA,NA,NA,NA,NA,NA,NA,NA,NA,NA,NA,NA,NA,NA,NA,NA,NA,NA
"276","stim/objects/HouseObjects/clothespin3.png",464,71,457,0.7,"stim/51.jpeg",5,1,2,2,"HouseObjects",2,2,"right","left",0.457999945,0,0,1,0,NA,NA,NA,NA,NA,NA,NA,NA,NA,NA,NA,NA,NA,NA,NA,NA,NA,NA,NA,NA,NA,NA,NA,NA
"252","stim/objects/HouseObjects/basket4.png",465,71,458,0.7,"stim/52.jpeg",5,2,2,1,"HouseObjects",2,2,"right","right",0.480999947,1,1,1,0,148,71,1,0.7,2,"stim/52.jpeg",5,2,"stim/52.jpeg",2,"right",1.601000071,4,4,0.856000185,3,1.116999865,148,0,0,NA,0,NA,0
