"","participant","OvsN","PE_level","object_cat","obj_file","scn_file","corr_scn_cat","corr_scn_inst","scn_file.1","corr_loc","key_resp_id.keys","key_resp_id.rt","key_resp_conf.keys","key_resp_assoc.keys","key_resp_assoc.rt","key_resp_loc.keys","key_resp_loc.rt","trialN","id_acc","assoc.acc","cond_assoc","loc.acc","cond_loc","group"
"1",71,2,0,1,"stim/objects/Instruments/record_player.png","",0,0,"",0,"left",1.471999884,NA,NA,NA,NA,NA,1,0,NA,NA,NA,NA,0
"2",71,2,0,2,"stim/objects/HouseObjects/blender2.png","",0,0,"",0,"left",1.009000063,NA,NA,NA,NA,NA,2,0,NA,NA,NA,NA,0
"3",71,1,0.7,1,"stim/objects/Instruments/doublebass4.png","stim/62.jpeg",6,2,"stim/62.jpeg",3,"left",0.787999868,3,2,1.963000059,3,1.523000002,3,1,1,1,1,1,0
"4",71,1,0.5,1,"stim/objects/HouseObjects/remote3.png","stim/33.jpeg",3,3,"stim/33.jpeg",2,"right",1.398999929,3,3,1.718000174,2,2.028000116,4,0,1,NA,1,NA,0
"5",71,2,0,1,"stim/objects/Instruments/speaker.png","",0,0,"",0,"right",1.697999954,NA,NA,NA,NA,NA,5,1,NA,NA,NA,NA,0
"6",71,1,0.9,1,"stim/objects/Instruments/triangle4.png","stim/24.jpeg",2,4,"stim/24.jpeg",3,"right",1.34800005,3,4,1.792000055,4,1.343000174,6,0,1,NA,0,NA,0
"7",71,1,0.5,1,"stim/objects/Instruments/panflute3.png","stim/33.jpeg",3,3,"stim/33.jpeg",2,"right",1.506999969,1,3,1.178999901,3,1.003000021,7,0,1,NA,0,NA,0
"8",71,2,0,2,"stim/objects/HouseObjects/pan.png","",0,0,"",0,"left",1.648000002,NA,NA,NA,NA,NA,8,0,NA,NA,NA,NA,0
"9",71,1,0.7,2,"stim/objects/HouseObjects/barbecuelighter4.png","stim/51.jpeg",5,1,"stim/51.jpeg",4,"right",2.325000048,1,3,1.02699995,3,1.295000076,9,0,0,NA,0,NA,0
"10",71,1,0.3,2,"stim/objects/HouseObjects/broom4.png","stim/64.jpeg",6,4,"stim/64.jpeg",4,"left",1.684999943,3,4,1.957999945,2,2.05099988,10,1,1,1,0,0,0
"11",71,2,0,1,"stim/objects/Instruments/marimba.png","",0,0,"",0,"right",2.305999994,NA,NA,NA,NA,NA,11,1,NA,NA,NA,NA,0
"12",71,1,0.7,2,"stim/objects/HouseObjects/thread3.png","stim/53.jpeg",5,3,"stim/53.jpeg",1,"right",1.281000137,3,3,1.242000103,3,2.467999935,12,0,1,NA,0,NA,0
"13",71,2,0,2,"stim/objects/HouseObjects/basket2.png","",0,0,"",0,"right",1.861999989,NA,NA,NA,NA,NA,13,1,NA,NA,NA,NA,0
"14",71,2,0,2,"stim/objects/HouseObjects/ballofstring.png","",0,0,"",0,"right",0.970000029,NA,NA,NA,NA,NA,14,1,NA,NA,NA,NA,0
"15",71,1,0.5,2,"stim/objects/HouseObjects/sponge3.png","stim/42.jpeg",4,2,"stim/42.jpeg",2,"left",0.829999924,4,2,2.018999815,3,1.470999956,15,1,1,1,0,0,0
"16",71,2,0,1,"stim/objects/Instruments/trombone.png","",0,0,"",0,"left",1.138000011,NA,NA,NA,NA,NA,16,0,NA,NA,NA,NA,0
"17",71,1,0.3,2,"stim/objects/HouseObjects/ironingboard4.png","stim/62.jpeg",6,2,"stim/62.jpeg",1,"left",1.210999966,3,4,2.131000042,1,1.290999889,17,1,0,0,1,1,0
"18",71,2,0,1,"stim/objects/Instruments/saxophone.png","",0,0,"",0,"left",2.051000118,NA,NA,NA,NA,NA,18,0,NA,NA,NA,NA,0
"19",71,1,0.9,2,"stim/objects/HouseObjects/knife4.png","stim/13.jpeg",1,3,"stim/13.jpeg",2,"left",1.851000071,3,1,1.523000002,1,1.085999966,19,1,0,0,0,0,0
"20",71,2,0,1,"stim/objects/Instruments/musicsheet.png","",0,0,"",0,"left",1.407999992,NA,NA,NA,NA,NA,20,0,NA,NA,NA,NA,0
"21",71,1,0.9,2,"stim/objects/HouseObjects/remote4.png","stim/11.jpeg",1,1,"stim/11.jpeg",1,"right",1.269000053,2,3,0.86500001,2,1.531000137,21,0,0,NA,0,NA,0
"22",71,1,0.5,2,"stim/objects/Instruments/trombone3.png","stim/41.jpeg",4,1,"stim/41.jpeg",3,"left",0.928999901,3,2,1.90899992,2,1.111000061,22,1,0,0,0,0,0
"23",71,2,0,2,"stim/objects/HouseObjects/barbecuelighter2.png","",0,0,"",0,"right",1.125,NA,NA,NA,NA,NA,23,1,NA,NA,NA,NA,0
"24",71,1,0.3,2,"stim/objects/HouseObjects/clock4.png","stim/62.jpeg",6,2,"stim/62.jpeg",2,"right",0.832999945,3,3,0.818000078,2,1.038000107,24,0,0,NA,1,NA,0
"25",71,2,0,2,"stim/objects/HouseObjects/iron.png","",0,0,"",0,"right",2.861000061,NA,NA,NA,NA,NA,25,1,NA,NA,NA,NA,0
"26",71,2,0,1,"stim/objects/Instruments/maraca.png","",0,0,"",0,"left",1.371000051,NA,NA,NA,NA,NA,26,0,NA,NA,NA,NA,0
"27",71,2,0,1,"stim/objects/Instruments/doublebass.png","",0,0,"",0,"left",1.003999949,NA,NA,NA,NA,NA,27,0,NA,NA,NA,NA,0
"28",71,2,0,2,"stim/objects/HouseObjects/thermometer.png","",0,0,"",0,"right",1.282000065,NA,NA,NA,NA,NA,28,1,NA,NA,NA,NA,0
"29",71,1,0.5,1,"stim/objects/HouseObjects/rug3.png","stim/31.jpeg",3,1,"stim/31.jpeg",4,"right",0.93599987,3,3,1.200000048,2,1.625,29,0,0,NA,0,NA,0
"30",71,2,0,2,"stim/objects/HouseObjects/vacuumcleaner.png","",0,0,"",0,"right",5.388999939,NA,NA,NA,NA,NA,30,1,NA,NA,NA,NA,0
"31",71,1,0.1,1,"stim/objects/Instruments/oboe4.png","stim/11.jpeg",1,1,"stim/11.jpeg",4,"left",1.334000111,3,3,2.6650002,2,1.791999817,31,1,0,0,0,0,0
"32",71,1,0.9,2,"stim/objects/HouseObjects/match4.png","stim/11.jpeg",1,1,"stim/11.jpeg",2,"right",1.214999914,3,4,1.116999865,4,1.151000023,32,0,0,NA,0,NA,0
"33",71,2,0,1,"stim/objects/Instruments/acousticguitar.png","",0,0,"",0,"left",1.154000044,NA,NA,NA,NA,NA,33,0,NA,NA,NA,NA,0
"34",71,1,0.3,1,"stim/objects/Instruments/vuvuzela3.png","stim/54.jpeg",5,4,"stim/54.jpeg",4,"right",0.998999834,3,1,1.26699996,3,1.439999819,34,0,0,NA,0,NA,0
"35",71,1,0.1,2,"stim/objects/HouseObjects/sponge4.png","stim/21.jpeg",2,1,"stim/21.jpeg",3,"left",1.143999815,4,4,2.247999907,2,1.803999901,35,1,0,0,0,0,0
"36",71,1,0.3,2,"stim/objects/HouseObjects/clothesdryingrack4.png","stim/63.jpeg",6,3,"stim/63.jpeg",3,"left",1.067000151,4,3,1.572000027,1,0.779999971,36,1,1,1,0,0,0
"37",71,2,0,2,"stim/objects/HouseObjects/iron2.png","",0,0,"",0,"right",1.786000013,NA,NA,NA,NA,NA,37,1,NA,NA,NA,NA,0
"38",71,2,0,2,"stim/objects/HouseObjects/bleachbottle2.png","",0,0,"",0,"right",0.868000031,NA,NA,NA,NA,NA,38,1,NA,NA,NA,NA,0
"39",71,1,0.1,2,"stim/objects/HouseObjects/spraybottle4.png","stim/22.jpeg",2,2,"stim/22.jpeg",1,"right",0.649999857,1,2,1.082999945,2,1.006000042,39,0,1,NA,0,NA,0
"40",71,2,0,2,"stim/objects/HouseObjects/key.png","",0,0,"",0,"left",1.102999926,NA,NA,NA,NA,NA,40,0,NA,NA,NA,NA,0
"41",71,1,0.5,2,"stim/objects/Instruments/tambourine3.png","stim/42.jpeg",4,2,"stim/42.jpeg",3,"left",1.184000015,3,3,1.89199996,2,1.007999897,41,1,0,0,0,0,0
"42",71,1,0.3,1,"stim/objects/Instruments/balalaika4.png","stim/54.jpeg",5,4,"stim/54.jpeg",4,"left",1.891000032,3,3,1.539999962,2,1.134000063,42,1,0,0,0,0,0
"43",71,2,0,1,"stim/objects/Instruments/tambourine.png","",0,0,"",0,"left",1.836999893,NA,NA,NA,NA,NA,43,0,NA,NA,NA,NA,0
"44",71,2,0,2,"stim/objects/HouseObjects/ashtray.png","",0,0,"",0,"right",0.833999872,NA,NA,NA,NA,NA,44,1,NA,NA,NA,NA,0
"45",71,1,0.7,1,"stim/objects/Instruments/chime4.png","stim/62.jpeg",6,2,"stim/62.jpeg",4,"right",0.919000149,2,1,1.770999908,3,2.164999962,45,0,0,NA,0,NA,0
"46",71,2,0,2,"stim/objects/HouseObjects/ironingboard2.png","",0,0,"",0,"left",1.562999964,NA,NA,NA,NA,NA,46,0,NA,NA,NA,NA,0
"47",71,1,0.9,1,"stim/objects/Instruments/speaker4.png","stim/21.jpeg",2,1,"stim/21.jpeg",2,"left",0.897000074,3,4,2.520999908,2,1.085000038,47,1,0,0,1,1,0
"48",71,2,0,1,"stim/objects/Instruments/keyboard2.png","",0,0,"",0,"left",2.110000134,NA,NA,NA,NA,NA,48,0,NA,NA,NA,NA,0
"49",71,2,0,1,"stim/objects/Instruments/chime2.png","",0,0,"",0,"left",1.319999933,NA,NA,NA,NA,NA,49,0,NA,NA,NA,NA,0
"50",71,1,0.1,2,"stim/objects/HouseObjects/thread4.png","stim/21.jpeg",2,1,"stim/21.jpeg",3,"left",0.802999973,3,2,1.620000124,3,2.698999882,50,1,0,0,1,1,0
"51",71,2,0,1,"stim/objects/Instruments/clarinet.png","",0,0,"",0,"left",1.50999999,NA,NA,NA,NA,NA,51,0,NA,NA,NA,NA,0
"52",71,1,0.3,2,"stim/objects/HouseObjects/clothespin4.png","stim/64.jpeg",6,4,"stim/64.jpeg",1,"right",0.994000196,3,3,2.743000031,3,2.112999916,52,0,0,NA,0,NA,0
"53",71,1,0.1,1,"stim/objects/Instruments/pipepiano4.png","stim/13.jpeg",1,3,"stim/13.jpeg",3,"right",2.132999897,1,4,2.481999874,3,1.165999889,53,0,0,NA,1,NA,0
"54",71,2,0,1,"stim/objects/Instruments/vuvuzela.png","",0,0,"",0,"right",1.535000086,NA,NA,NA,NA,NA,54,1,NA,NA,NA,NA,0
"55",71,1,0.7,1,"stim/objects/Instruments/cello4.png","stim/61.jpeg",6,1,"stim/61.jpeg",4,"left",1,3,3,1.166000128,1,1.253999949,55,1,0,0,0,0,0
"56",71,2,0,2,"stim/objects/HouseObjects/clothesdryingrack2.png","",0,0,"",0,"right",0.940999985,NA,NA,NA,NA,NA,56,1,NA,NA,NA,NA,0
"57",71,2,0,1,"stim/objects/Instruments/clarinet2.png","",0,0,"",0,"left",0.80700016,NA,NA,NA,NA,NA,57,0,NA,NA,NA,NA,0
"58",71,1,0.5,1,"stim/objects/HouseObjects/rubbergloves3.png","stim/34.jpeg",3,4,"stim/34.jpeg",3,"right",0.75,3,3,0.634000063,2,0.849999905,58,0,0,NA,0,NA,0
"59",71,1,0.5,2,"stim/objects/HouseObjects/spraybottle3.png","stim/43.jpeg",4,3,"stim/43.jpeg",1,"left",2.56799984,2,3,1.659000158,3,1.167000055,59,1,1,1,0,0,0
"60",71,1,0.3,1,"stim/objects/Instruments/violin3.png","stim/53.jpeg",5,3,"stim/53.jpeg",2,"left",1.181999922,4,3,1.657000065,1,0.858999968,60,1,1,1,0,0,0
"61",71,2,0,1,"stim/objects/Instruments/keyboard.png","",0,0,"",0,"right",1.138999939,NA,NA,NA,NA,NA,61,1,NA,NA,NA,NA,0
"62",71,1,0.3,2,"stim/objects/HouseObjects/iron4.png","stim/61.jpeg",6,1,"stim/61.jpeg",1,"right",0.835999966,3,3,0.592000008,3,0.565999985,62,0,0,NA,0,NA,0
"63",71,1,0.1,1,"stim/objects/Instruments/saxophone4.png","stim/12.jpeg",1,2,"stim/12.jpeg",4,"right",1.69900012,2,2,0.900000095,3,0.948999882,63,0,1,NA,0,NA,0
"64",71,2,0,1,"stim/objects/Instruments/cymbal2.png","",0,0,"",0,"left",2.326000214,NA,NA,NA,NA,NA,64,0,NA,NA,NA,NA,0
"65",71,2,0,2,"stim/objects/HouseObjects/clock2.png","",0,0,"",0,"left",1.599999905,NA,NA,NA,NA,NA,65,0,NA,NA,NA,NA,0
"66",71,1,0.3,1,"stim/objects/Instruments/accordion4.png","stim/52.jpeg",5,2,"stim/52.jpeg",1,"right",0.77699995,3,3,0.632999897,4,0.855999947,66,0,0,NA,0,NA,0
"67",71,1,0.7,1,"stim/objects/Instruments/cornet4.png","stim/64.jpeg",6,4,"stim/64.jpeg",1,"right",1.10800004,3,2,1.190999985,3,0.797999859,67,0,0,NA,0,NA,0
"68",71,1,0.1,1,"stim/objects/Instruments/record4.png","stim/14.jpeg",1,4,"stim/14.jpeg",3,"right",2.218999863,3,3,0.738999844,3,1.236000061,68,0,0,NA,1,NA,0
"69",71,2,0,2,"stim/objects/HouseObjects/knife.png","",0,0,"",0,"right",0.944000006,NA,NA,NA,NA,NA,69,1,NA,NA,NA,NA,0
"70",71,2,0,1,"stim/objects/Instruments/cello2.png","",0,0,"",0,"left",0.985000134,NA,NA,NA,NA,NA,70,0,NA,NA,NA,NA,0
"71",71,1,0.9,1,"stim/objects/Instruments/vuvuzela4.png","stim/21.jpeg",2,1,"stim/21.jpeg",2,"right",0.876999855,3,4,1.032000065,1,1.137000084,71,0,0,NA,0,NA,0
"72",71,1,0.9,2,"stim/objects/HouseObjects/lintroller4.png","stim/14.jpeg",1,4,"stim/14.jpeg",4,"right",1.970000029,3,3,1.68599987,2,1.153000116,72,0,0,NA,0,NA,0
"73",71,2,0,1,"stim/objects/Instruments/triangle.png","",0,0,"",0,"right",1.190000057,NA,NA,NA,NA,NA,73,1,NA,NA,NA,NA,0
"74",71,1,0.7,2,"stim/objects/HouseObjects/thermometer3.png","stim/52.jpeg",5,2,"stim/52.jpeg",2,"right",0.950000048,2,3,0.555000067,1,1.752000093,74,0,0,NA,0,NA,0
"75",71,1,0.1,1,"stim/objects/Instruments/panflute4.png","stim/12.jpeg",1,2,"stim/12.jpeg",3,"left",2.243000031,2,2,0.606999874,3,0.897000074,75,1,1,1,1,1,0
"76",71,2,0,2,"stim/objects/HouseObjects/ballofstring2.png","",0,0,"",0,"right",1.400000095,NA,NA,NA,NA,NA,76,1,NA,NA,NA,NA,0
"77",71,1,0.5,1,"stim/objects/Instruments/record_player3.png","stim/32.jpeg",3,2,"stim/32.jpeg",1,"left",1,3,4,1.981999874,1,1.093999863,77,1,0,0,1,1,0
"78",71,1,0.9,1,"stim/objects/Instruments/trombone4.png","stim/21.jpeg",2,1,"stim/21.jpeg",2,"right",1.075000048,3,3,0.645000219,2,0.667000055,78,0,0,NA,1,NA,0
"79",71,1,0.3,1,"stim/objects/Instruments/xylophone3.png","stim/51.jpeg",5,1,"stim/51.jpeg",1,"left",2.141000032,3,3,1.542999983,3,1.789999962,79,1,0,0,0,0,0
"80",71,2,0,2,"stim/objects/HouseObjects/thread.png","",0,0,"",0,"left",1.000999928,NA,NA,NA,NA,NA,80,0,NA,NA,NA,NA,0
"81",71,1,0.1,1,"stim/objects/Instruments/metronome4.png","stim/12.jpeg",1,2,"stim/12.jpeg",4,"left",1.759000063,3,3,1.042999983,2,0.616999865,81,1,0,0,0,0,0
"82",71,2,0,2,"stim/objects/HouseObjects/key2.png","",0,0,"",0,"right",1.154000044,NA,NA,NA,NA,NA,82,1,NA,NA,NA,NA,0
"83",71,1,0.9,1,"stim/objects/Instruments/tuba4.png","stim/23.jpeg",2,3,"stim/23.jpeg",3,"right",0.676000118,3,3,1.009000063,1,0.810000181,83,0,1,NA,0,NA,0
"84",71,1,0.9,2,"stim/objects/HouseObjects/rug4.png","stim/13.jpeg",1,3,"stim/13.jpeg",2,"left",1.492000103,3,2,2.94900012,1,0.950999975,84,1,0,0,0,0,0
"85",71,1,0.7,1,"stim/objects/Instruments/clarinet4.png","stim/63.jpeg",6,3,"stim/63.jpeg",4,"left",1.549000025,3,2,1.480999947,1,0.869999886,85,1,0,0,0,0,0
"86",71,1,0.9,1,"stim/objects/Instruments/trumpet4.png","stim/22.jpeg",2,2,"stim/22.jpeg",4,"right",1.367000103,3,3,0.825999975,4,2.207000017,86,0,0,NA,1,NA,0
"87",71,1,0.7,1,"stim/objects/Instruments/bassguitar4.png","stim/64.jpeg",6,4,"stim/64.jpeg",1,"left",1.496000051,3,4,1.124000072,3,1.549000025,87,1,1,1,0,0,0
"88",71,2,0,1,"stim/objects/Instruments/bassguitar2.png","",0,0,"",0,"left",1.065999985,NA,NA,NA,NA,NA,88,0,NA,NA,NA,NA,0
"89",71,2,0,2,"stim/objects/HouseObjects/rubbergloves.png","",0,0,"",0,"right",0.906000137,NA,NA,NA,NA,NA,89,1,NA,NA,NA,NA,0
"90",71,2,0,1,"stim/objects/Instruments/musicstand.png","",0,0,"",0,"left",0.76699996,NA,NA,NA,NA,NA,90,0,NA,NA,NA,NA,0
"91",71,2,0,1,"stim/objects/Instruments/maraca2.png","",0,0,"",0,"right",1.183000088,NA,NA,NA,NA,NA,91,1,NA,NA,NA,NA,0
"92",71,1,0.1,2,"stim/objects/HouseObjects/saw4.png","stim/23.jpeg",2,3,"stim/23.jpeg",2,"right",1.269000053,2,3,0.676999807,2,1.389000177,92,0,1,NA,1,NA,0
"93",71,1,0.1,2,"stim/objects/HouseObjects/towel4.png","stim/22.jpeg",2,2,"stim/22.jpeg",2,"right",1.036000013,3,1,1.332999945,2,1.323999882,93,0,0,NA,1,NA,0
"94",71,2,0,2,"stim/objects/HouseObjects/clothespin2.png","",0,0,"",0,"right",1.450000048,NA,NA,NA,NA,NA,94,1,NA,NA,NA,NA,0
"95",71,1,0.7,2,"stim/objects/HouseObjects/towel3.png","stim/54.jpeg",5,4,"stim/54.jpeg",2,"right",0.859999895,4,3,1.065000057,2,0.986999989,95,0,0,NA,1,NA,0
"96",71,2,0,2,"stim/objects/HouseObjects/clock.png","",0,0,"",0,"right",2.022000074,NA,NA,NA,NA,NA,96,1,NA,NA,NA,NA,0
"97",71,2,0,2,"stim/objects/HouseObjects/bleachbottle.png","",0,0,"",0,"right",0.900000095,NA,NA,NA,NA,NA,97,1,NA,NA,NA,NA,0
"98",71,1,0.7,2,"stim/objects/HouseObjects/ashtray4.png","stim/53.jpeg",5,3,"stim/53.jpeg",3,"left",1.332999945,3,4,2.499000072,4,1.804000139,98,1,0,0,0,0,0
"99",71,2,0,2,"stim/objects/HouseObjects/teapot.png","",0,0,"",0,"right",1.582999945,NA,NA,NA,NA,NA,99,1,NA,NA,NA,NA,0
"100",71,2,0,2,"stim/objects/HouseObjects/basket.png","",0,0,"",0,"right",1.572999954,NA,NA,NA,NA,NA,100,1,NA,NA,NA,NA,0
"101",71,2,0,2,"stim/objects/HouseObjects/bottle.png","",0,0,"",0,"left",1.292999983,NA,NA,NA,NA,NA,101,0,NA,NA,NA,NA,0
"102",71,2,0,2,"stim/objects/HouseObjects/broom2.png","",0,0,"",0,"right",1.342000008,NA,NA,NA,NA,NA,102,1,NA,NA,NA,NA,0
"103",71,1,0.7,1,"stim/objects/Instruments/cymbal4.png","stim/61.jpeg",6,1,"stim/61.jpeg",1,"left",0.950999975,3,2,1.270000219,3,2.383000135,103,1,0,0,0,0,0
"104",71,2,0,2,"stim/objects/HouseObjects/barbecuelighter.png","",0,0,"",0,"left",1.51699996,NA,NA,NA,NA,NA,104,0,NA,NA,NA,NA,0
"105",71,1,0.3,1,"stim/objects/Instruments/trumpet3.png","stim/51.jpeg",5,1,"stim/51.jpeg",2,"right",1.119999886,3,3,1.067000151,3,1.102999926,105,0,0,NA,0,NA,0
"106",71,1,0.1,2,"stim/objects/HouseObjects/wateringcan4.png","stim/24.jpeg",2,4,"stim/24.jpeg",4,"right",1.693000078,2,3,0.553999901,2,1.203999996,106,0,0,NA,0,NA,0
"107",71,1,0.9,1,"stim/objects/Instruments/violin4.png","stim/24.jpeg",2,4,"stim/24.jpeg",3,"right",2.882999897,1,2,0.944000006,3,1.970000029,107,0,0,NA,1,NA,0
"108",71,2,0,2,"stim/objects/HouseObjects/match.png","",0,0,"",0,"left",1.549000025,NA,NA,NA,NA,NA,108,0,NA,NA,NA,NA,0
"109",71,2,0,2,"stim/objects/HouseObjects/clothesdryingrack.png","",0,0,"",0,"right",1.134000063,NA,NA,NA,NA,NA,109,1,NA,NA,NA,NA,0
"110",71,1,0.9,1,"stim/objects/Instruments/timbal4.png","stim/23.jpeg",2,3,"stim/23.jpeg",1,"right",0.718000174,3,3,0.500999928,2,0.967000008,110,0,1,NA,0,NA,0
"111",71,1,0.7,2,"stim/objects/HouseObjects/vacuumcleaner3.png","stim/51.jpeg",5,1,"stim/51.jpeg",1,"right",1.449999809,3,3,0.588999987,2,0.963000059,111,0,0,NA,0,NA,0
"112",71,2,0,1,"stim/objects/Instruments/bassguitar.png","",0,0,"",0,"left",1.782999992,NA,NA,NA,NA,NA,112,0,NA,NA,NA,NA,0
"113",71,2,0,1,"stim/objects/Instruments/tuba.png","",0,0,"",0,"right",0.666999817,NA,NA,NA,NA,NA,113,1,NA,NA,NA,NA,0
"114",71,2,0,1,"stim/objects/Instruments/acousticguitar2.png","",0,0,"",0,"left",0.882999897,NA,NA,NA,NA,NA,114,0,NA,NA,NA,NA,0
"115",71,1,0.1,2,"stim/objects/HouseObjects/thermometer4.png","stim/24.jpeg",2,4,"stim/24.jpeg",1,"right",0.799999952,3,3,0.51699996,2,0.78399992,115,0,0,NA,0,NA,0
"116",71,1,0.3,1,"stim/objects/Instruments/acousticguitar4.png","stim/53.jpeg",5,3,"stim/53.jpeg",3,"left",0.900000095,4,1,2.352999926,2,1.650000095,116,1,0,0,0,0,0
"117",71,1,0.5,1,"stim/objects/HouseObjects/safetypin3.png","stim/32.jpeg",3,2,"stim/32.jpeg",3,"right",1.481999874,4,3,0.7900002,2,0.900000095,117,0,0,NA,0,NA,0
"118",71,1,0.5,2,"stim/objects/Instruments/timbal3.png","stim/43.jpeg",4,3,"stim/43.jpeg",1,"right",1.733999968,1,3,0.737999916,2,0.740999937,118,0,1,NA,0,NA,0
"119",71,2,0,1,"stim/objects/Instruments/record.png","",0,0,"",0,"left",3.197999954,NA,NA,NA,NA,NA,119,0,NA,NA,NA,NA,0
"120",71,2,0,2,"stim/objects/HouseObjects/wateringcan.png","",0,0,"",0,"right",0.798000097,NA,NA,NA,NA,NA,120,1,NA,NA,NA,NA,0
"121",71,1,0.3,1,"stim/objects/Instruments/tuba3.png","stim/52.jpeg",5,2,"stim/52.jpeg",4,"left",1.323999882,3,3,0.46600008,3,0.919000149,121,1,0,0,0,0,0
"122",71,1,0.5,1,"stim/objects/Instruments/record3.png","stim/31.jpeg",3,1,"stim/31.jpeg",4,"right",1.423999786,3,3,0.661999941,1,0.86500001,122,0,0,NA,0,NA,0
"123",71,1,0.3,1,"stim/objects/Instruments/bassdrum4.png","stim/52.jpeg",5,2,"stim/52.jpeg",2,"right",1.506999969,3,2,0.650000095,1,1.217000008,123,0,1,NA,0,NA,0
"124",71,1,0.1,2,"stim/objects/HouseObjects/vacuumcleaner4.png","stim/23.jpeg",2,3,"stim/23.jpeg",4,"right",1.193000078,3,4,1.325000048,2,0.78399992,124,0,0,NA,0,NA,0
"125",71,2,0,2,"stim/objects/HouseObjects/lintroller.png","",0,0,"",0,"left",1.693000078,NA,NA,NA,NA,NA,125,0,NA,NA,NA,NA,0
"126",71,1,0.1,2,"stim/objects/HouseObjects/teapot4.png","stim/23.jpeg",2,3,"stim/23.jpeg",2,"right",0.74000001,3,3,0.840000153,2,0.578000069,126,0,1,NA,1,NA,0
"127",71,2,0,2,"stim/objects/HouseObjects/saw.png","",0,0,"",0,"right",1.786999941,NA,NA,NA,NA,NA,127,1,NA,NA,NA,NA,0
"128",71,1,0.7,1,"stim/objects/Instruments/laud4.png","stim/64.jpeg",6,4,"stim/64.jpeg",2,"right",0.616000175,1,2,0.527000189,3,0.698999882,128,0,0,NA,0,NA,0
"129",71,1,0.5,1,"stim/objects/Instruments/pipepiano3.png","stim/34.jpeg",3,4,"stim/34.jpeg",2,"left",2.078000069,4,2,0.748999834,1,1.058000088,129,1,0,0,0,0,0
"130",71,2,0,2,"stim/objects/HouseObjects/bucket2.png","",0,0,"",0,"right",1.813999891,NA,NA,NA,NA,NA,130,1,NA,NA,NA,NA,0
"131",71,2,0,1,"stim/objects/Instruments/cornet.png","",0,0,"",0,"left",1.377000093,NA,NA,NA,NA,NA,131,0,NA,NA,NA,NA,0
"132",71,1,0.1,1,"stim/objects/Instruments/record_player4.png","stim/11.jpeg",1,1,"stim/11.jpeg",1,"left",0.855999947,3,2,0.594000101,2,1.046999931,132,1,0,0,0,0,0
"133",71,1,0.5,2,"stim/objects/HouseObjects/teapot3.png","stim/44.jpeg",4,4,"stim/44.jpeg",3,"right",1.200000048,3,3,0.835000038,2,0.665999889,133,0,0,NA,0,NA,0
"134",71,2,0,1,"stim/objects/Instruments/timbal.png","",0,0,"",0,"right",2.101000071,NA,NA,NA,NA,NA,134,1,NA,NA,NA,NA,0
"135",71,1,0.7,2,"stim/objects/HouseObjects/bleachbottle4.png","stim/53.jpeg",5,3,"stim/53.jpeg",1,"left",0.784000158,3,2,0.653000116,1,0.734999895,135,1,0,0,1,1,0
"136",71,1,0.5,2,"stim/objects/Instruments/speaker3.png","stim/41.jpeg",4,1,"stim/41.jpeg",4,"left",1.937000036,3,1,2.264999866,2,0.548999786,136,1,1,1,0,0,0
"137",71,2,0,1,"stim/objects/Instruments/banjo.png","",0,0,"",0,"right",1.066999912,NA,NA,NA,NA,NA,137,1,NA,NA,NA,NA,0
"138",71,1,0.1,1,"stim/objects/Instruments/musicsheet4.png","stim/13.jpeg",1,3,"stim/13.jpeg",1,"left",1.427999973,3,2,0.896000147,1,1.493000031,138,1,0,0,1,1,0
"139",71,2,0,2,"stim/objects/HouseObjects/ashtray2.png","",0,0,"",0,"right",1.316999912,NA,NA,NA,NA,NA,139,1,NA,NA,NA,NA,0
"140",71,1,0.5,2,"stim/objects/HouseObjects/saw3.png","stim/44.jpeg",4,4,"stim/44.jpeg",2,"right",0.76699996,1,2,0.655999899,3,0.704999924,140,0,0,NA,0,NA,0
"141",71,1,0.9,2,"stim/objects/HouseObjects/rubbergloves4.png","stim/12.jpeg",1,2,"stim/12.jpeg",2,"right",1.916000128,2,3,0.702000141,2,0.838000059,141,0,0,NA,1,NA,0
"142",71,1,0.9,2,"stim/objects/HouseObjects/pan4.png","stim/12.jpeg",1,2,"stim/12.jpeg",4,"right",2.916000128,3,2,0.601000071,2,0.690999985,142,0,1,NA,0,NA,0
"143",71,1,0.7,2,"stim/objects/HouseObjects/ballofstring4.png","stim/54.jpeg",5,4,"stim/54.jpeg",3,"left",0.991999865,4,3,0.999000072,2,1.684000015,143,1,0,0,0,0,0
"144",71,1,0.7,2,"stim/objects/HouseObjects/wateringcan3.png","stim/52.jpeg",5,2,"stim/52.jpeg",4,"right",0.649999857,3,3,1.160000086,1,1.501000166,144,0,0,NA,0,NA,0
"145",71,2,0,1,"stim/objects/Instruments/xylophone.png","",0,0,"",0,"left",1.536000013,NA,NA,NA,NA,NA,145,0,NA,NA,NA,NA,0
"146",71,1,0.9,2,"stim/objects/HouseObjects/safetypin4.png","stim/14.jpeg",1,4,"stim/14.jpeg",1,"right",1.038000107,2,3,0.60800004,2,0.78399992,146,0,0,NA,0,NA,0
"147",71,2,0,1,"stim/objects/Instruments/accordion2.png","",0,0,"",0,"right",0.851000071,NA,NA,NA,NA,NA,147,1,NA,NA,NA,NA,0
"148",71,1,0.7,2,"stim/objects/HouseObjects/basket4.png","stim/52.jpeg",5,2,"stim/52.jpeg",2,"right",1.601000071,4,4,0.856000185,3,1.116999865,148,0,0,NA,0,NA,0
"149",71,2,0,2,"stim/objects/HouseObjects/scale.png","",0,0,"",0,"right",1.653000116,NA,NA,NA,NA,NA,149,1,NA,NA,NA,NA,0
"150",71,1,0.5,2,"stim/objects/Instruments/triangle3.png","stim/44.jpeg",4,4,"stim/44.jpeg",1,"left",1.478000164,3,3,0.625999928,2,0.743000031,150,1,0,0,0,0,0
"151",71,1,0.1,1,"stim/objects/Instruments/musicstand4.png","stim/14.jpeg",1,4,"stim/14.jpeg",2,"right",1.932999849,2,2,0.694000006,1,0.881999969,151,0,0,NA,0,NA,0
"152",71,1,0.3,2,"stim/objects/HouseObjects/key4.png","stim/63.jpeg",6,3,"stim/63.jpeg",1,"left",1.973999977,3,2,0.674999952,2,0.899999857,152,1,0,0,0,0,0
"153",71,1,0.9,1,"stim/objects/Instruments/xylophone4.png","stim/22.jpeg",2,2,"stim/22.jpeg",4,"left",2.605999947,2,2,0.634000063,2,0.838999987,153,1,1,1,0,0,0
"154",71,2,0,2,"stim/objects/HouseObjects/remote.png","",0,0,"",0,"right",10.34800005,NA,NA,NA,NA,NA,154,1,NA,NA,NA,NA,0
"155",71,2,0,2,"stim/objects/HouseObjects/blender.png","",0,0,"",0,"right",2.666000128,NA,NA,NA,NA,NA,155,1,NA,NA,NA,NA,0
"156",71,2,0,1,"stim/objects/Instruments/doublebass2.png","",0,0,"",0,"left",0.751000166,NA,NA,NA,NA,NA,156,0,NA,NA,NA,NA,0
"157",71,2,0,1,"stim/objects/Instruments/metronome.png","",0,0,"",0,"right",1.067000151,NA,NA,NA,NA,NA,157,1,NA,NA,NA,NA,0
"158",71,1,0.5,2,"stim/objects/HouseObjects/scale3.png","stim/41.jpeg",4,1,"stim/41.jpeg",1,"left",0.966999769,3,4,2.814999819,4,1.037999868,158,1,0,0,0,0,0
"159",71,1,0.1,1,"stim/objects/Instruments/marimba4.png","stim/11.jpeg",1,1,"stim/11.jpeg",4,"right",1.898999929,2,3,0.700000048,2,0.615999937,159,0,0,NA,0,NA,0
"160",71,1,0.5,1,"stim/objects/Instruments/saxophone3.png","stim/33.jpeg",3,3,"stim/33.jpeg",3,"left",2.07400012,3,2,1.165999889,2,3.532000065,160,1,0,0,0,0,0
"161",71,2,0,1,"stim/objects/Instruments/bassdrum2.png","",0,0,"",0,"right",1.007999897,NA,NA,NA,NA,NA,161,1,NA,NA,NA,NA,0
"162",71,2,0,2,"stim/objects/HouseObjects/ironingboard.png","",0,0,"",0,"left",1.916000128,NA,NA,NA,NA,NA,162,0,NA,NA,NA,NA,0
"163",71,2,0,2,"stim/objects/HouseObjects/bottle2.png","",0,0,"",0,"right",1.099999905,NA,NA,NA,NA,NA,163,1,NA,NA,NA,NA,0
"164",71,2,0,1,"stim/objects/Instruments/balalaika2.png","",0,0,"",0,"right",1.326999903,NA,NA,NA,NA,NA,164,1,NA,NA,NA,NA,0
"165",71,1,0.3,2,"stim/objects/HouseObjects/bottle4.png","stim/63.jpeg",6,3,"stim/63.jpeg",2,"right",0.933000088,4,3,0.631999969,2,0.789999962,165,0,1,NA,1,NA,0
"166",71,2,0,1,"stim/objects/Instruments/banjo2.png","",0,0,"",0,"left",2.121999979,NA,NA,NA,NA,NA,166,0,NA,NA,NA,NA,0
"167",71,2,0,2,"stim/objects/HouseObjects/sponge.png","",0,0,"",0,"right",0.819000006,NA,NA,NA,NA,NA,167,1,NA,NA,NA,NA,0
"168",71,2,0,2,"stim/objects/HouseObjects/bucket.png","",0,0,"",0,"right",0.782999992,NA,NA,NA,NA,NA,168,1,NA,NA,NA,NA,0
"169",71,1,0.1,2,"stim/objects/HouseObjects/scale4.png","stim/24.jpeg",2,4,"stim/24.jpeg",2,"right",0.624000072,3,3,0.532999992,2,0.76699996,169,0,0,NA,1,NA,0
"170",71,1,0.7,1,"stim/objects/Instruments/maraca4.png","stim/61.jpeg",6,1,"stim/61.jpeg",4,"right",0.934000015,2,3,0.583000183,1,0.824999809,170,0,0,NA,0,NA,0
"171",71,1,0.3,2,"stim/objects/HouseObjects/blender4.png","stim/62.jpeg",6,2,"stim/62.jpeg",1,"left",1.965999842,2,3,0.753999949,1,1.055000067,171,1,0,0,1,1,0
"172",71,2,0,1,"stim/objects/Instruments/laud.png","",0,0,"",0,"right",1.773000002,NA,NA,NA,NA,NA,172,1,NA,NA,NA,NA,0
"173",71,2,0,1,"stim/objects/Instruments/trumpet.png","",0,0,"",0,"left",1.26699996,NA,NA,NA,NA,NA,173,0,NA,NA,NA,NA,0
"174",71,2,0,2,"stim/objects/HouseObjects/broom.png","",0,0,"",0,"left",0.926000118,NA,NA,NA,NA,NA,174,0,NA,NA,NA,NA,0
"175",71,1,0.3,2,"stim/objects/HouseObjects/bucket4.png","stim/61.jpeg",6,1,"stim/61.jpeg",3,"right",1.159999847,3,3,1.871000051,2,0.751000166,175,0,0,NA,0,NA,0
"176",71,1,0.9,2,"stim/objects/HouseObjects/recyclingbin4.png","stim/14.jpeg",1,4,"stim/14.jpeg",3,"left",2.226000071,3,3,0.805999994,2,0.720999956,176,1,0,0,0,0,0
"177",71,1,0.5,1,"stim/objects/HouseObjects/recyclingbin3.png","stim/32.jpeg",3,2,"stim/32.jpeg",3,"right",2.032999992,2,2,0.822000027,2,0.66899991,177,0,1,NA,0,NA,0
"178",71,2,0,1,"stim/objects/Instruments/cornet2.png","",0,0,"",0,"left",1.858999968,NA,NA,NA,NA,NA,178,0,NA,NA,NA,NA,0
"179",71,2,0,1,"stim/objects/Instruments/chime.png","",0,0,"",0,"right",0.99000001,NA,NA,NA,NA,NA,179,1,NA,NA,NA,NA,0
"180",71,2,0,1,"stim/objects/Instruments/oboe.png","",0,0,"",0,"left",0.75,NA,NA,NA,NA,NA,180,0,NA,NA,NA,NA,0
"181",71,2,0,1,"stim/objects/Instruments/cello.png","",0,0,"",0,"left",0.894000053,NA,NA,NA,NA,NA,181,0,NA,NA,NA,NA,0
"182",71,2,0,2,"stim/objects/HouseObjects/clothespin.png","",0,0,"",0,"right",0.919000149,NA,NA,NA,NA,NA,182,1,NA,NA,NA,NA,0
"183",71,1,0.9,2,"stim/objects/HouseObjects/pitcher4.png","stim/13.jpeg",1,3,"stim/13.jpeg",3,"right",0.802000046,3,3,0.613000154,2,0.697999954,183,0,1,NA,0,NA,0
"184",71,2,0,1,"stim/objects/Instruments/violin.png","",0,0,"",0,"left",1.7900002,NA,NA,NA,NA,NA,184,0,NA,NA,NA,NA,0
"185",71,2,0,1,"stim/objects/Instruments/bassdrum.png","",0,0,"",0,"right",1.166999817,NA,NA,NA,NA,NA,185,1,NA,NA,NA,NA,0
"186",71,2,0,2,"stim/objects/HouseObjects/recyclingbin.png","",0,0,"",0,"right",1.083999872,NA,NA,NA,NA,NA,186,1,NA,NA,NA,NA,0
"187",71,1,0.9,1,"stim/objects/Instruments/tambourine4.png","stim/22.jpeg",2,2,"stim/22.jpeg",2,"right",1.684000015,3,2,0.599999905,2,0.733999968,187,0,1,NA,1,NA,0
"188",71,2,0,2,"stim/objects/HouseObjects/rug.png","",0,0,"",0,"right",0.915999889,NA,NA,NA,NA,NA,188,1,NA,NA,NA,NA,0
"189",71,2,0,1,"stim/objects/Instruments/panflute.png","",0,0,"",0,"right",1.093000174,NA,NA,NA,NA,NA,189,1,NA,NA,NA,NA,0
"190",71,2,0,1,"stim/objects/Instruments/balalaika.png","",0,0,"",0,"left",0.782000065,NA,NA,NA,NA,NA,190,0,NA,NA,NA,NA,0
"191",71,2,0,2,"stim/objects/HouseObjects/pitcher.png","",0,0,"",0,"right",1.019999981,NA,NA,NA,NA,NA,191,1,NA,NA,NA,NA,0
"192",71,2,0,1,"stim/objects/Instruments/cymbal.png","",0,0,"",0,"left",0.988999844,NA,NA,NA,NA,NA,192,0,NA,NA,NA,NA,0
"193",71,2,0,2,"stim/objects/HouseObjects/spraybottle.png","",0,0,"",0,"right",1.416999817,NA,NA,NA,NA,NA,193,1,NA,NA,NA,NA,0
"194",71,2,0,2,"stim/objects/HouseObjects/safetypin.png","",0,0,"",0,"right",0.993000031,NA,NA,NA,NA,NA,194,1,NA,NA,NA,NA,0
"195",71,2,0,2,"stim/objects/HouseObjects/towel.png","",0,0,"",0,"right",0.667000055,NA,NA,NA,NA,NA,195,1,NA,NA,NA,NA,0
"196",71,2,0,1,"stim/objects/Instruments/laud2.png","",0,0,"",0,"right",0.76699996,NA,NA,NA,NA,NA,196,1,NA,NA,NA,NA,0
"197",71,1,0.3,1,"stim/objects/Instruments/banjo4.png","stim/51.jpeg",5,1,"stim/51.jpeg",3,"left",0.782999992,3,3,0.624000072,3,0.898000002,197,1,0,0,1,1,0
"198",71,2,0,1,"stim/objects/Instruments/accordion.png","",0,0,"",0,"left",2.932999849,NA,NA,NA,NA,NA,198,0,NA,NA,NA,NA,0
"199",71,1,0.7,1,"stim/objects/Instruments/keyboard4.png","stim/63.jpeg",6,3,"stim/63.jpeg",2,"left",0.976000071,3,2,0.809999943,1,1.732000113,199,1,0,0,0,0,0
"200",71,2,0,1,"stim/objects/Instruments/pipepiano.png","",0,0,"",0,"right",1.609999895,NA,NA,NA,NA,NA,200,1,NA,NA,NA,NA,0
