"","participant","trialN","trial_cond","scn_file","scn_cat","scn_inst","scn_condition","fillers","obj_cat","obj_cat_num","obj_file","quadrant","corr_ans","key_resp_trial.keys","key_resp_trial.rt","trial_acc","trial_acc_manual","group"
"248",71,241,0.7,"stim/53.jpeg",5,3,2,1,"HouseObjects",2,"stim/objects/HouseObjects/ashtray4.png",3,"right","left",0.65199995,0,0,1
"249",71,242,0.9,"stim/14.jpeg",1,4,3,2,"HouseObjects",2,"stim/objects/HouseObjects/match3.png",3,"right","right",0.57799983,1,1,1
"250",71,243,0.7,"stim/52.jpeg",5,2,2,1,"HouseObjects",2,"stim/objects/HouseObjects/wateringcan3.png",4,"right","right",0.585999966,1,1,1
"251",71,244,0.9,"stim/23.jpeg",2,3,3,2,"Instruments",1,"stim/objects/Instruments/musicstand3.png",1,"left","left",0.558999777,1,1,1
"252",71,245,0.9,"stim/13.jpeg",1,3,3,2,"HouseObjects",2,"stim/objects/HouseObjects/knife3.png",4,"right","right",0.494999886,1,1,1
"253",71,246,0.9,"stim/13.jpeg",1,3,3,2,"HouseObjects",2,"stim/objects/HouseObjects/match3.png",4,"right","right",0.427000046,1,1,1
"254",71,247,0.9,"stim/11.jpeg",1,1,3,2,"HouseObjects",2,"stim/objects/HouseObjects/pitcher3.png",2,"right","right",0.556999922,1,1,1
"255",71,248,0.9,"stim/24.jpeg",2,4,3,2,"Instruments",1,"stim/objects/Instruments/metronome3.png",1,"left","left",0.580999851,1,1,1
"256",71,249,0.1,"stim/12.jpeg",1,2,3,1,"Instruments",1,"stim/objects/Instruments/metronome4.png",4,"left","right",0.492000103,0,0,1
"257",71,250,0.7,"stim/62.jpeg",6,2,2,1,"Instruments",1,"stim/objects/Instruments/chime4.png",4,"left","left",0.652999878,1,1,1
"258",71,251,0.7,"stim/53.jpeg",5,3,2,1,"HouseObjects",2,"stim/objects/HouseObjects/bleachbottle4.png",1,"right","right",0.529999971,1,1,1
"259",71,252,0.1,"stim/23.jpeg",2,3,3,1,"HouseObjects",2,"stim/objects/HouseObjects/teapot4.png",2,"right","left",0.488999844,0,0,1
"260",71,253,0.7,"stim/54.jpeg",5,4,2,2,"HouseObjects",2,"stim/objects/HouseObjects/clothespin3.png",4,"right","right",0.647000074,1,1,1
"261",71,254,0.1,"stim/14.jpeg",1,4,3,1,"Instruments",1,"stim/objects/Instruments/musicstand4.png",2,"left","right",0.566999912,0,0,1
"262",71,255,0.3,"stim/52.jpeg",5,2,2,1,"Instruments",1,"stim/objects/Instruments/tuba3.png",4,"left","left",0.766000032,1,1,1
"263",71,256,0.9,"stim/12.jpeg",1,2,3,2,"HouseObjects",2,"stim/objects/HouseObjects/lintroller3.png",1,"right","right",0.480999947,1,1,1
"264",71,257,0.7,"stim/63.jpeg",6,3,2,1,"Instruments",1,"stim/objects/Instruments/clarinet4.png",4,"left","left",0.75999999,1,1,1
"265",71,258,0.9,"stim/21.jpeg",2,1,3,2,"Instruments",1,"stim/objects/Instruments/musicstand3.png",3,"left","left",0.642999887,1,1,1
"266",71,259,0.9,"stim/23.jpeg",2,3,3,2,"Instruments",1,"stim/objects/Instruments/musicsheet3.png",1,"left","left",0.691999912,1,1,1
"267",71,260,0.3,"stim/62.jpeg",6,2,2,1,"HouseObjects",2,"stim/objects/HouseObjects/ironingboard4.png",1,"right","left",0.645999908,0,0,1
"268",71,261,0.9,"stim/13.jpeg",1,3,3,2,"HouseObjects",2,"stim/objects/HouseObjects/pan3.png",3,"right","right",0.589999914,1,1,1
"269",71,262,0.9,"stim/11.jpeg",1,1,3,2,"HouseObjects",2,"stim/objects/HouseObjects/pan3.png",4,"right","right",0.542000055,1,1,1
"270",71,263,0.9,"stim/22.jpeg",2,2,3,2,"Instruments",1,"stim/objects/Instruments/oboe3.png",2,"left","left",0.55099988,1,1,1
"271",71,264,0.9,"stim/11.jpeg",1,1,3,2,"HouseObjects",2,"stim/objects/HouseObjects/lintroller3.png",4,"right","right",0.462999821,1,1,1
"272",71,265,0.9,"stim/13.jpeg",1,3,3,2,"HouseObjects",2,"stim/objects/HouseObjects/pan3.png",3,"right","right",0.575999975,1,1,1
"273",71,266,0.7,"stim/53.jpeg",5,3,2,2,"HouseObjects",2,"stim/objects/HouseObjects/clothesdryingrack3.png",3,"right","right",0.572999954,1,1,1
"274",71,267,0.5,"stim/43.jpeg",4,3,1,2,"HouseObjects",2,"stim/objects/HouseObjects/bottle3.png",4,"right","right",0.77699995,1,1,1
"275",71,268,0.9,"stim/12.jpeg",1,2,3,2,"HouseObjects",2,"stim/objects/HouseObjects/knife3.png",1,"right","right",0.610999823,1,1,1
"276",71,269,0.9,"stim/21.jpeg",2,1,3,2,"Instruments",1,"stim/objects/Instruments/musicstand3.png",2,"left","right",0.506999969,0,0,1
"277",71,270,0.9,"stim/21.jpeg",2,1,3,2,"Instruments",1,"stim/objects/Instruments/musicsheet3.png",4,"left","",NA,0,0,1
"278",71,271,0.9,"stim/23.jpeg",2,3,3,2,"Instruments",1,"stim/objects/Instruments/marimba3.png",1,"left","right",0.680000067,0,0,1
"279",71,272,0.9,"stim/11.jpeg",1,1,3,2,"HouseObjects",2,"stim/objects/HouseObjects/knife3.png",3,"right","right",0.506000042,1,1,1
"280",71,273,0.5,"stim/34.jpeg",3,4,1,2,"Instruments",1,"stim/objects/Instruments/banjo3.png",3,"left","left",0.679999828,1,1,1
"281",71,274,0.9,"stim/14.jpeg",1,4,3,2,"HouseObjects",2,"stim/objects/HouseObjects/knife3.png",4,"right","right",0.570999861,1,1,1
"282",71,275,0.5,"stim/43.jpeg",4,3,1,2,"HouseObjects",2,"stim/objects/HouseObjects/clock3.png",1,"right","right",0.583999872,1,1,1
"283",71,276,0.1,"stim/24.jpeg",2,4,3,1,"HouseObjects",2,"stim/objects/HouseObjects/scale4.png",2,"right","left",0.527999878,0,0,1
"284",71,277,0.3,"stim/64.jpeg",6,4,2,1,"HouseObjects",2,"stim/objects/HouseObjects/clothespin4.png",1,"right","left",0.608999968,0,0,1
"285",71,278,0.1,"stim/13.jpeg",1,3,3,1,"Instruments",1,"stim/objects/Instruments/musicsheet4.png",1,"left","right",0.552999973,0,0,1
"286",71,279,0.9,"stim/11.jpeg",1,1,3,2,"HouseObjects",2,"stim/objects/HouseObjects/pitcher3.png",1,"right","right",0.574999809,1,1,1
"287",71,280,0.7,"stim/63.jpeg",6,3,2,2,"Instruments",1,"stim/objects/Instruments/cymbal3.png",1,"left","left",0.559999943,1,1,1
"288",71,281,0.5,"stim/32.jpeg",3,2,1,1,"HouseObjects",2,"stim/objects/HouseObjects/safetypin3.png",3,"right","right",0.663999796,1,1,1
"289",71,282,0.5,"stim/42.jpeg",4,2,1,2,"HouseObjects",2,"stim/objects/HouseObjects/clock3.png",4,"right","right",0.664000034,1,1,1
"290",71,283,0.5,"stim/32.jpeg",3,2,1,2,"Instruments",1,"stim/objects/Instruments/accordion3.png",1,"left","right",0.663000107,0,0,1
"291",71,284,0.9,"stim/21.jpeg",2,1,3,2,"Instruments",1,"stim/objects/Instruments/oboe3.png",4,"left","left",0.611999989,1,1,1
"292",71,285,0.9,"stim/14.jpeg",1,4,3,2,"HouseObjects",2,"stim/objects/HouseObjects/lintroller3.png",1,"right","right",0.564999819,1,1,1
"293",71,286,0.9,"stim/21.jpeg",2,1,3,2,"Instruments",1,"stim/objects/Instruments/musicstand3.png",3,"left","left",0.667000055,1,1,1
"294",71,287,0.5,"stim/42.jpeg",4,2,1,2,"Instruments",1,"stim/objects/Instruments/chime3.png",4,"left","right",0.617000103,0,0,1
"295",71,288,0.5,"stim/33.jpeg",3,3,1,1,"Instruments",1,"stim/objects/Instruments/saxophone3.png",3,"left","left",0.522999763,1,1,1
"296",71,289,0.7,"stim/53.jpeg",5,3,2,2,"HouseObjects",2,"stim/objects/HouseObjects/ironingboard3.png",2,"right","right",0.50999999,1,1,1
"297",71,290,0.5,"stim/42.jpeg",4,2,1,1,"HouseObjects",2,"stim/objects/HouseObjects/sponge3.png",2,"right","right",0.681999922,1,1,1
"298",71,291,0.3,"stim/64.jpeg",6,4,2,1,"HouseObjects",2,"stim/objects/HouseObjects/broom4.png",4,"right","left",0.627000093,0,0,1
"299",71,292,0.9,"stim/13.jpeg",1,3,3,2,"HouseObjects",2,"stim/objects/HouseObjects/pitcher3.png",2,"right","right",0.585000038,1,1,1
"300",71,293,0.9,"stim/13.jpeg",1,3,3,2,"HouseObjects",2,"stim/objects/HouseObjects/lintroller3.png",4,"right","right",0.54399991,1,1,1
"301",71,294,0.7,"stim/61.jpeg",6,1,2,2,"Instruments",1,"stim/objects/Instruments/laud3.png",3,"left","left",0.641000032,1,1,1
"302",71,295,0.9,"stim/22.jpeg",2,2,3,1,"Instruments",1,"stim/objects/Instruments/trumpet4.png",4,"left","left",0.63499999,1,1,1
"303",71,296,0.9,"stim/21.jpeg",2,1,3,2,"Instruments",1,"stim/objects/Instruments/metronome3.png",3,"left","right",0.555999994,0,0,1
"304",71,297,0.9,"stim/22.jpeg",2,2,3,2,"Instruments",1,"stim/objects/Instruments/marimba3.png",1,"left","left",0.743000031,1,1,1
"305",71,298,0.5,"stim/33.jpeg",3,3,1,1,"Instruments",1,"stim/objects/Instruments/panflute3.png",2,"left","right",0.572000027,0,0,1
"306",71,299,0.9,"stim/21.jpeg",2,1,3,2,"Instruments",1,"stim/objects/Instruments/musicstand3.png",2,"left","left",0.575999975,1,1,1
"307",71,300,0.3,"stim/62.jpeg",6,2,2,1,"HouseObjects",2,"stim/objects/HouseObjects/blender4.png",1,"right","left",0.559999943,0,0,1
"308",71,301,0.9,"stim/24.jpeg",2,4,3,1,"Instruments",1,"stim/objects/Instruments/violin4.png",3,"left","left",0.621999979,1,1,1
"309",71,302,0.5,"stim/31.jpeg",3,1,1,2,"HouseObjects",2,"stim/objects/HouseObjects/ashtray3.png",4,"right","left",0.682999849,0,0,1
"310",71,303,0.7,"stim/62.jpeg",6,2,2,2,"Instruments",1,"stim/objects/Instruments/doublebass3.png",3,"left","left",0.647999763,1,1,1
"311",71,304,0.9,"stim/13.jpeg",1,3,3,1,"HouseObjects",2,"stim/objects/HouseObjects/pitcher4.png",3,"right","right",0.695999861,1,1,1
"312",71,305,0.9,"stim/21.jpeg",2,1,3,2,"Instruments",1,"stim/objects/Instruments/marimba3.png",2,"left","left",0.572999954,1,1,1
"313",71,306,0.7,"stim/64.jpeg",6,4,2,1,"Instruments",1,"stim/objects/Instruments/cornet4.png",1,"left","left",0.596999884,1,1,1
"314",71,307,0.3,"stim/54.jpeg",5,4,2,1,"Instruments",1,"stim/objects/Instruments/vuvuzela3.png",4,"left","right",0.592999935,0,0,1
"315",71,308,0.9,"stim/12.jpeg",1,2,3,1,"HouseObjects",2,"stim/objects/HouseObjects/pan4.png",4,"right","right",0.431999922,1,1,1
"316",71,309,0.9,"stim/12.jpeg",1,2,3,2,"HouseObjects",2,"stim/objects/HouseObjects/pitcher3.png",4,"right","right",0.478999853,1,1,1
"317",71,310,0.5,"stim/44.jpeg",4,4,1,2,"HouseObjects",2,"stim/objects/HouseObjects/broom3.png",4,"right","left",0.656999826,0,0,1
"318",71,311,0.3,"stim/51.jpeg",5,1,2,1,"Instruments",1,"stim/objects/Instruments/xylophone3.png",1,"left","right",0.517999887,0,0,1
"319",71,312,0.9,"stim/11.jpeg",1,1,3,2,"HouseObjects",2,"stim/objects/HouseObjects/match3.png",1,"right","right",0.633999825,1,1,1
"320",71,313,0.5,"stim/44.jpeg",4,4,1,1,"HouseObjects",2,"stim/objects/HouseObjects/teapot3.png",3,"right","right",0.630999804,1,1,1
"321",71,314,0.7,"stim/53.jpeg",5,3,2,2,"HouseObjects",2,"stim/objects/HouseObjects/key3.png",2,"right","left",0.459000111,0,0,1
"322",71,315,0.7,"stim/51.jpeg",5,1,2,1,"HouseObjects",2,"stim/objects/HouseObjects/barbecuelighter4.png",4,"right","right",0.749000072,1,1,1
"323",71,316,0.5,"stim/41.jpeg",4,1,1,1,"HouseObjects",2,"stim/objects/HouseObjects/scale3.png",1,"right","right",0.615999937,1,1,1
"324",71,317,0.9,"stim/13.jpeg",1,3,3,2,"HouseObjects",2,"stim/objects/HouseObjects/knife3.png",1,"right","right",0.679999828,1,1,1
"325",71,318,0.1,"stim/22.jpeg",2,2,3,1,"HouseObjects",2,"stim/objects/HouseObjects/spraybottle4.png",1,"right","left",0.703999996,0,0,1
"326",71,319,0.7,"stim/61.jpeg",6,1,2,2,"Instruments",1,"stim/objects/Instruments/cymbal3.png",4,"left","",NA,0,0,1
"327",71,320,0.9,"stim/12.jpeg",1,2,3,2,"HouseObjects",2,"stim/objects/HouseObjects/pan3.png",4,"right","",NA,0,0,1
"328",71,321,0.5,"stim/42.jpeg",4,2,1,2,"HouseObjects",2,"stim/objects/HouseObjects/blender3.png",1,"right","right",0.571000099,1,1,1
"329",71,322,0.9,"stim/12.jpeg",1,2,3,2,"HouseObjects",2,"stim/objects/HouseObjects/pan3.png",1,"right","right",0.427999973,1,1,1
"330",71,323,0.1,"stim/14.jpeg",1,4,3,1,"Instruments",1,"stim/objects/Instruments/record4.png",3,"left","right",0.512999773,0,0,1
"331",71,324,0.9,"stim/21.jpeg",2,1,3,2,"Instruments",1,"stim/objects/Instruments/oboe3.png",2,"left","right",0.450000048,0,0,1
"332",71,325,0.7,"stim/63.jpeg",6,3,2,2,"Instruments",1,"stim/objects/Instruments/maraca3.png",3,"left","left",0.551999807,1,1,1
"333",71,326,0.9,"stim/23.jpeg",2,3,3,2,"Instruments",1,"stim/objects/Instruments/musicsheet3.png",4,"left","left",0.584000111,1,1,1
"334",71,327,0.9,"stim/21.jpeg",2,1,3,1,"Instruments",1,"stim/objects/Instruments/vuvuzela4.png",2,"left","left",0.625,1,1,1
"335",71,328,0.3,"stim/54.jpeg",5,4,2,1,"Instruments",1,"stim/objects/Instruments/balalaika4.png",4,"left","right",0.480999708,0,0,1
"336",71,329,0.9,"stim/24.jpeg",2,4,3,2,"Instruments",1,"stim/objects/Instruments/musicsheet3.png",2,"left","left",0.554999828,1,1,1
"337",71,330,0.9,"stim/12.jpeg",1,2,3,2,"HouseObjects",2,"stim/objects/HouseObjects/knife3.png",1,"right","right",0.549000025,1,1,1
"338",71,331,0.5,"stim/33.jpeg",3,3,1,2,"HouseObjects",2,"stim/objects/HouseObjects/basket3.png",4,"right","right",0.498999834,1,1,1
"339",71,332,0.5,"stim/41.jpeg",4,1,1,1,"Instruments",1,"stim/objects/Instruments/speaker3.png",4,"left","right",0.67599988,0,0,1
"340",71,333,0.1,"stim/11.jpeg",1,1,3,1,"Instruments",1,"stim/objects/Instruments/record_player4.png",1,"left","right",0.612999916,0,0,1
"341",71,334,0.7,"stim/54.jpeg",5,4,2,2,"HouseObjects",2,"stim/objects/HouseObjects/clothesdryingrack3.png",1,"right","right",0.710999966,1,1,1
"342",71,335,0.9,"stim/23.jpeg",2,3,3,2,"Instruments",1,"stim/objects/Instruments/oboe3.png",3,"left","left",0.579999924,1,1,1
"343",71,336,0.3,"stim/52.jpeg",5,2,2,1,"Instruments",1,"stim/objects/Instruments/accordion4.png",1,"left","",NA,0,0,1
"344",71,337,0.9,"stim/12.jpeg",1,2,3,2,"HouseObjects",2,"stim/objects/HouseObjects/pan3.png",1,"right","right",0.657999992,1,1,1
"345",71,338,0.5,"stim/31.jpeg",3,1,1,2,"Instruments",1,"stim/objects/Instruments/accordion3.png",1,"left","right",0.443000078,0,0,1
"346",71,339,0.5,"stim/44.jpeg",4,4,1,1,"HouseObjects",2,"stim/objects/HouseObjects/saw3.png",2,"right","right",0.434999943,1,1,1
"347",71,340,0.9,"stim/21.jpeg",2,1,3,1,"Instruments",1,"stim/objects/Instruments/trombone4.png",2,"left","right",0.565999985,0,0,1
"348",71,341,0.5,"stim/34.jpeg",3,4,1,2,"Instruments",1,"stim/objects/Instruments/balalaika3.png",4,"left","right",0.566999912,0,0,1
"349",71,342,0.9,"stim/12.jpeg",1,2,3,2,"HouseObjects",2,"stim/objects/HouseObjects/match3.png",2,"right","right",0.632999897,1,1,1
"350",71,343,0.5,"stim/41.jpeg",4,1,1,2,"HouseObjects",2,"stim/objects/HouseObjects/bucket3.png",2,"right","right",0.539999962,1,1,1
"351",71,344,0.9,"stim/12.jpeg",1,2,3,1,"HouseObjects",2,"stim/objects/HouseObjects/rubbergloves4.png",2,"right","right",0.701999903,1,1,1
"352",71,345,0.5,"stim/41.jpeg",4,1,1,1,"Instruments",1,"stim/objects/Instruments/trombone3.png",3,"left","right",0.576999903,0,0,1
"353",71,346,0.7,"stim/61.jpeg",6,1,2,1,"Instruments",1,"stim/objects/Instruments/cymbal4.png",1,"left","left",0.678999901,1,1,1
"354",71,347,0.9,"stim/13.jpeg",1,3,3,2,"HouseObjects",2,"stim/objects/HouseObjects/pitcher3.png",3,"right","right",0.570999861,1,1,1
"355",71,348,0.9,"stim/13.jpeg",1,3,3,2,"HouseObjects",2,"stim/objects/HouseObjects/pan3.png",1,"right","right",0.519999981,1,1,1
"356",71,349,0.3,"stim/53.jpeg",5,3,2,1,"Instruments",1,"stim/objects/Instruments/acousticguitar4.png",3,"left","right",0.526000023,0,0,1
"357",71,350,0.1,"stim/22.jpeg",2,2,3,1,"HouseObjects",2,"stim/objects/HouseObjects/towel4.png",2,"right","left",0.779999971,0,0,1
"358",71,351,0.9,"stim/22.jpeg",2,2,3,2,"Instruments",1,"stim/objects/Instruments/musicsheet3.png",4,"left","left",0.56799984,1,1,1
"359",71,352,0.9,"stim/14.jpeg",1,4,3,2,"HouseObjects",2,"stim/objects/HouseObjects/pan3.png",4,"right","right",0.530999899,1,1,1
"360",71,353,0.5,"stim/33.jpeg",3,3,1,2,"HouseObjects",2,"stim/objects/HouseObjects/barbecuelighter3.png",1,"right","right",0.567000151,1,1,1
"361",71,354,0.5,"stim/44.jpeg",4,4,1,2,"Instruments",1,"stim/objects/Instruments/cornet3.png",4,"left","left",0.496000051,1,1,1
"362",71,355,0.9,"stim/23.jpeg",2,3,3,2,"Instruments",1,"stim/objects/Instruments/musicstand3.png",3,"left","left",0.505999804,1,1,1
"363",71,356,0.9,"stim/22.jpeg",2,2,3,2,"Instruments",1,"stim/objects/Instruments/musicstand3.png",4,"left","left",0.617000103,1,1,1
"364",71,357,0.9,"stim/11.jpeg",1,1,3,1,"HouseObjects",2,"stim/objects/HouseObjects/remote4.png",1,"right","right",0.496999979,1,1,1
"365",71,358,0.9,"stim/21.jpeg",2,1,3,1,"Instruments",1,"stim/objects/Instruments/speaker4.png",2,"left","left",0.476999998,1,1,1
"366",71,359,0.9,"stim/12.jpeg",1,2,3,2,"HouseObjects",2,"stim/objects/HouseObjects/knife3.png",3,"right","right",0.643999815,1,1,1
"367",71,360,0.1,"stim/21.jpeg",2,1,3,1,"HouseObjects",2,"stim/objects/HouseObjects/thread4.png",3,"right","left",0.633999825,0,0,1
"368",71,361,0.9,"stim/24.jpeg",2,4,3,2,"Instruments",1,"stim/objects/Instruments/marimba3.png",4,"left","left",0.52699995,1,1,1
"369",71,362,0.5,"stim/34.jpeg",3,4,1,1,"Instruments",1,"stim/objects/Instruments/pipepiano3.png",2,"left","right",0.51699996,0,0,1
"370",71,363,0.9,"stim/14.jpeg",1,4,3,2,"HouseObjects",2,"stim/objects/HouseObjects/match3.png",3,"right","right",0.486999989,1,1,1
"371",71,364,0.5,"stim/34.jpeg",3,4,1,2,"HouseObjects",2,"stim/objects/HouseObjects/basket3.png",1,"right","right",0.447999954,1,1,1
"372",71,365,0.9,"stim/11.jpeg",1,1,3,2,"HouseObjects",2,"stim/objects/HouseObjects/knife3.png",4,"right","right",0.430999994,1,1,1
"373",71,366,0.9,"stim/24.jpeg",2,4,3,2,"Instruments",1,"stim/objects/Instruments/musicsheet3.png",2,"left","left",0.573999882,1,1,1
"374",71,367,0.1,"stim/24.jpeg",2,4,3,1,"HouseObjects",2,"stim/objects/HouseObjects/wateringcan4.png",4,"right","left",0.578000069,0,0,1
"375",71,368,0.3,"stim/61.jpeg",6,1,2,1,"HouseObjects",2,"stim/objects/HouseObjects/iron4.png",1,"right","left",0.429999828,0,0,1
"376",71,369,0.9,"stim/14.jpeg",1,4,3,2,"HouseObjects",2,"stim/objects/HouseObjects/pitcher3.png",1,"right","left",0.513000011,0,0,1
"377",71,370,0.9,"stim/12.jpeg",1,2,3,2,"HouseObjects",2,"stim/objects/HouseObjects/match3.png",3,"right","right",0.559999943,1,1,1
"378",71,371,0.9,"stim/23.jpeg",2,3,3,2,"Instruments",1,"stim/objects/Instruments/metronome3.png",2,"left","left",0.631000042,1,1,1
"379",71,372,0.7,"stim/53.jpeg",5,3,2,2,"HouseObjects",2,"stim/objects/HouseObjects/iron3.png",3,"right","right",0.50999999,1,1,1
"380",71,373,0.5,"stim/32.jpeg",3,2,1,2,"Instruments",1,"stim/objects/Instruments/bassdrum3.png",1,"left","left",0.49000001,1,1,1
"381",71,374,0.9,"stim/24.jpeg",2,4,3,2,"Instruments",1,"stim/objects/Instruments/oboe3.png",4,"left","right",0.476000071,0,0,1
"382",71,375,0.5,"stim/43.jpeg",4,3,1,2,"Instruments",1,"stim/objects/Instruments/bassguitar3.png",4,"left","right",0.589999914,0,0,1
"383",71,376,0.9,"stim/22.jpeg",2,2,3,2,"Instruments",1,"stim/objects/Instruments/musicsheet3.png",3,"left","left",0.712999821,1,1,1
"384",71,377,0.7,"stim/62.jpeg",6,2,2,2,"Instruments",1,"stim/objects/Instruments/laud3.png",3,"left","left",0.55099988,1,1,1
"385",71,378,0.5,"stim/33.jpeg",3,3,1,1,"HouseObjects",2,"stim/objects/HouseObjects/remote3.png",2,"right","left",0.680999994,0,0,1
"386",71,379,0.7,"stim/64.jpeg",6,4,2,2,"Instruments",1,"stim/objects/Instruments/laud3.png",3,"left","left",0.593999863,1,1,1
"387",71,380,0.3,"stim/63.jpeg",6,3,2,1,"HouseObjects",2,"stim/objects/HouseObjects/key4.png",1,"right","left",0.695999861,0,0,1
"388",71,381,0.9,"stim/12.jpeg",1,2,3,2,"HouseObjects",2,"stim/objects/HouseObjects/pitcher3.png",1,"right","right",0.51699996,1,1,1
"389",71,382,0.5,"stim/32.jpeg",3,2,1,2,"Instruments",1,"stim/objects/Instruments/acousticguitar3.png",2,"left","left",0.523999929,1,1,1
"390",71,383,0.9,"stim/13.jpeg",1,3,3,2,"HouseObjects",2,"stim/objects/HouseObjects/match3.png",4,"right","right",0.506999969,1,1,1
"391",71,384,0.7,"stim/63.jpeg",6,3,2,1,"Instruments",1,"stim/objects/Instruments/keyboard4.png",2,"left","left",0.593999863,1,1,1
"392",71,385,0.5,"stim/44.jpeg",4,4,1,2,"Instruments",1,"stim/objects/Instruments/bassguitar3.png",2,"left","right",0.509999752,0,0,1
"393",71,386,0.9,"stim/23.jpeg",2,3,3,2,"Instruments",1,"stim/objects/Instruments/musicsheet3.png",1,"left","left",0.506000042,1,1,1
"394",71,387,0.9,"stim/23.jpeg",2,3,3,2,"Instruments",1,"stim/objects/Instruments/marimba3.png",3,"left","left",0.593999863,1,1,1
"395",71,388,0.3,"stim/62.jpeg",6,2,2,1,"HouseObjects",2,"stim/objects/HouseObjects/clock4.png",2,"right","left",0.581999779,0,0,1
"396",71,389,0.9,"stim/22.jpeg",2,2,3,2,"Instruments",1,"stim/objects/Instruments/oboe3.png",1,"left","left",0.512000084,1,1,1
"397",71,390,0.9,"stim/13.jpeg",1,3,3,2,"HouseObjects",2,"stim/objects/HouseObjects/lintroller3.png",3,"right","right",0.604000092,1,1,1
"398",71,391,0.9,"stim/14.jpeg",1,4,3,2,"HouseObjects",2,"stim/objects/HouseObjects/lintroller3.png",2,"right","left",0.448999882,0,0,1
"399",71,392,0.9,"stim/13.jpeg",1,3,3,2,"HouseObjects",2,"stim/objects/HouseObjects/lintroller3.png",4,"right","right",0.661999702,1,1,1
"400",71,393,0.9,"stim/22.jpeg",2,2,3,1,"Instruments",1,"stim/objects/Instruments/tambourine4.png",2,"left","left",0.54399991,1,1,1
"401",71,394,0.9,"stim/22.jpeg",2,2,3,2,"Instruments",1,"stim/objects/Instruments/musicstand3.png",3,"left","left",0.546999931,1,1,1
"402",71,395,0.5,"stim/34.jpeg",3,4,1,2,"HouseObjects",2,"stim/objects/HouseObjects/bleachbottle3.png",3,"right","right",0.612999916,1,1,1
"403",71,396,0.9,"stim/11.jpeg",1,1,3,2,"HouseObjects",2,"stim/objects/HouseObjects/knife3.png",3,"right","left",0.512999773,0,0,1
"404",71,397,0.9,"stim/12.jpeg",1,2,3,2,"HouseObjects",2,"stim/objects/HouseObjects/match3.png",1,"right","right",0.575000048,1,1,1
"405",71,398,0.9,"stim/21.jpeg",2,1,3,2,"Instruments",1,"stim/objects/Instruments/musicsheet3.png",3,"left","left",0.760999918,1,1,1
"406",71,399,0.9,"stim/13.jpeg",1,3,3,2,"HouseObjects",2,"stim/objects/HouseObjects/knife3.png",2,"right","right",0.60199976,1,1,1
"407",71,400,0.5,"stim/31.jpeg",3,1,1,1,"HouseObjects",2,"stim/objects/HouseObjects/rug3.png",4,"right","right",0.662999868,1,1,1
"408",71,401,0.9,"stim/21.jpeg",2,1,3,2,"Instruments",1,"stim/objects/Instruments/marimba3.png",3,"left","left",0.51699996,1,1,1
"409",71,402,0.9,"stim/13.jpeg",1,3,3,2,"HouseObjects",2,"stim/objects/HouseObjects/pitcher3.png",4,"right","right",0.429999828,1,1,1
"410",71,403,0.7,"stim/51.jpeg",5,1,2,2,"HouseObjects",2,"stim/objects/HouseObjects/iron3.png",3,"right","right",0.555999994,1,1,1
"411",71,404,0.9,"stim/23.jpeg",2,3,3,2,"Instruments",1,"stim/objects/Instruments/metronome3.png",3,"left","right",0.633999825,0,0,1
"412",71,405,0.9,"stim/13.jpeg",1,3,3,2,"HouseObjects",2,"stim/objects/HouseObjects/knife3.png",1,"right","right",0.579999924,1,1,1
"413",71,406,0.5,"stim/44.jpeg",4,4,1,2,"Instruments",1,"stim/objects/Instruments/cello3.png",3,"left","right",0.717999935,0,0,1
"414",71,407,0.1,"stim/24.jpeg",2,4,3,1,"HouseObjects",2,"stim/objects/HouseObjects/thermometer4.png",1,"right","left",0.67599988,0,0,1
"415",71,408,0.9,"stim/14.jpeg",1,4,3,1,"HouseObjects",2,"stim/objects/HouseObjects/recyclingbin4.png",3,"right","right",0.57799983,1,1,1
"416",71,409,0.5,"stim/31.jpeg",3,1,1,2,"HouseObjects",2,"stim/objects/HouseObjects/bleachbottle3.png",4,"right","left",0.50399971,0,0,1
"417",71,410,0.9,"stim/13.jpeg",1,3,3,2,"HouseObjects",2,"stim/objects/HouseObjects/pitcher3.png",4,"right","left",0.645999908,0,0,1
"418",71,411,0.9,"stim/12.jpeg",1,2,3,2,"HouseObjects",2,"stim/objects/HouseObjects/lintroller3.png",4,"right","right",0.492999792,1,1,1
"419",71,412,0.9,"stim/22.jpeg",2,2,3,2,"Instruments",1,"stim/objects/Instruments/metronome3.png",4,"left","right",0.376999855,0,0,1
"420",71,413,0.3,"stim/51.jpeg",5,1,2,1,"Instruments",1,"stim/objects/Instruments/trumpet3.png",2,"left","right",0.514999866,0,0,1
"421",71,414,0.9,"stim/11.jpeg",1,1,3,2,"HouseObjects",2,"stim/objects/HouseObjects/match3.png",1,"right","right",0.576999903,1,1,1
"422",71,415,0.7,"stim/52.jpeg",5,2,2,1,"HouseObjects",2,"stim/objects/HouseObjects/thermometer3.png",2,"right","right",0.56099987,1,1,1
"423",71,416,0.3,"stim/63.jpeg",6,3,2,1,"HouseObjects",2,"stim/objects/HouseObjects/clothesdryingrack4.png",3,"right","left",0.736999989,0,0,1
"424",71,417,0.9,"stim/14.jpeg",1,4,3,2,"HouseObjects",2,"stim/objects/HouseObjects/pitcher3.png",2,"right","right",0.475999832,1,1,1
"425",71,418,0.9,"stim/13.jpeg",1,3,3,1,"HouseObjects",2,"stim/objects/HouseObjects/rug4.png",2,"right","",NA,0,0,1
"426",71,419,0.5,"stim/43.jpeg",4,3,1,2,"HouseObjects",2,"stim/objects/HouseObjects/blender3.png",2,"right","right",0.62899971,1,1,1
"427",71,420,0.9,"stim/11.jpeg",1,1,3,1,"HouseObjects",2,"stim/objects/HouseObjects/match4.png",2,"right","right",0.730000019,1,1,1
"428",71,421,0.9,"stim/21.jpeg",2,1,3,2,"Instruments",1,"stim/objects/Instruments/oboe3.png",1,"left","left",0.483999968,1,1,1
"429",71,422,0.9,"stim/14.jpeg",1,4,3,2,"HouseObjects",2,"stim/objects/HouseObjects/pitcher3.png",4,"right","right",0.565999985,1,1,1
"430",71,423,0.9,"stim/11.jpeg",1,1,3,2,"HouseObjects",2,"stim/objects/HouseObjects/pan3.png",1,"right","right",0.602999926,1,1,1
"431",71,424,0.9,"stim/23.jpeg",2,3,3,2,"Instruments",1,"stim/objects/Instruments/musicstand3.png",4,"left","left",0.597999811,1,1,1
"432",71,425,0.5,"stim/44.jpeg",4,4,1,2,"HouseObjects",2,"stim/objects/HouseObjects/bottle3.png",2,"right","right",0.554000139,1,1,1
"433",71,426,0.7,"stim/51.jpeg",5,1,2,1,"HouseObjects",2,"stim/objects/HouseObjects/vacuumcleaner3.png",1,"right","right",0.578000069,1,1,1
"434",71,427,0.9,"stim/23.jpeg",2,3,3,2,"Instruments",1,"stim/objects/Instruments/metronome3.png",4,"left","right",0.73699975,0,0,1
"435",71,428,0.1,"stim/12.jpeg",1,2,3,1,"Instruments",1,"stim/objects/Instruments/saxophone4.png",4,"left","left",0.612999916,1,1,1
"436",71,429,0.5,"stim/43.jpeg",4,3,1,2,"Instruments",1,"stim/objects/Instruments/cornet3.png",3,"left","right",0.551000118,0,0,1
"437",71,430,0.9,"stim/22.jpeg",2,2,3,2,"Instruments",1,"stim/objects/Instruments/metronome3.png",3,"left","left",0.73300004,1,1,1
"438",71,431,0.9,"stim/14.jpeg",1,4,3,1,"HouseObjects",2,"stim/objects/HouseObjects/safetypin4.png",1,"right","right",0.707999945,1,1,1
"439",71,432,0.9,"stim/24.jpeg",2,4,3,2,"Instruments",1,"stim/objects/Instruments/oboe3.png",1,"left","left",0.632999897,1,1,1
"440",71,433,0.9,"stim/13.jpeg",1,3,3,2,"HouseObjects",2,"stim/objects/HouseObjects/match3.png",4,"right","right",0.563999891,1,1,1
"441",71,434,0.9,"stim/24.jpeg",2,4,3,2,"Instruments",1,"stim/objects/Instruments/oboe3.png",4,"left","left",0.559999943,1,1,1
"442",71,435,0.9,"stim/24.jpeg",2,4,3,2,"Instruments",1,"stim/objects/Instruments/musicsheet3.png",2,"left","left",0.554999828,1,1,1
"443",71,436,0.7,"stim/64.jpeg",6,4,2,2,"Instruments",1,"stim/objects/Instruments/keyboard3.png",2,"left","left",0.56099987,1,1,1
"444",71,437,0.9,"stim/23.jpeg",2,3,3,2,"Instruments",1,"stim/objects/Instruments/metronome3.png",4,"left","left",0.565999985,1,1,1
"445",71,438,0.7,"stim/62.jpeg",6,2,2,2,"Instruments",1,"stim/objects/Instruments/maraca3.png",1,"left","left",0.503999949,1,1,1
"446",71,439,0.5,"stim/44.jpeg",4,4,1,1,"Instruments",1,"stim/objects/Instruments/triangle3.png",1,"left","left",0.447000027,1,1,1
"447",71,440,0.7,"stim/63.jpeg",6,3,2,2,"Instruments",1,"stim/objects/Instruments/doublebass3.png",2,"left","left",0.523000002,1,1,1
"448",71,441,0.9,"stim/24.jpeg",2,4,3,2,"Instruments",1,"stim/objects/Instruments/metronome3.png",1,"left","left",0.46600008,1,1,1
"449",71,442,0.9,"stim/12.jpeg",1,2,3,2,"HouseObjects",2,"stim/objects/HouseObjects/match3.png",2,"right","right",0.54399991,1,1,1
"450",71,443,0.9,"stim/11.jpeg",1,1,3,2,"HouseObjects",2,"stim/objects/HouseObjects/pan3.png",2,"right","right",0.513000011,1,1,1
"451",71,444,0.9,"stim/22.jpeg",2,2,3,2,"Instruments",1,"stim/objects/Instruments/metronome3.png",1,"left","left",0.552000046,1,1,1
"452",71,445,0.9,"stim/14.jpeg",1,4,3,2,"HouseObjects",2,"stim/objects/HouseObjects/pan3.png",3,"right","right",0.506000042,1,1,1
"453",71,446,0.9,"stim/22.jpeg",2,2,3,2,"Instruments",1,"stim/objects/Instruments/musicsheet3.png",2,"left","left",0.544999838,1,1,1
"454",71,447,0.9,"stim/22.jpeg",2,2,3,1,"Instruments",1,"stim/objects/Instruments/xylophone4.png",4,"left","left",0.422999859,1,1,1
"455",71,448,0.9,"stim/13.jpeg",1,3,3,2,"HouseObjects",2,"stim/objects/HouseObjects/lintroller3.png",2,"right","right",0.335999966,1,1,1
"456",71,449,0.7,"stim/54.jpeg",5,4,2,1,"HouseObjects",2,"stim/objects/HouseObjects/ballofstring4.png",3,"right","left",0.450000048,0,0,1
"457",71,450,0.5,"stim/41.jpeg",4,1,1,2,"HouseObjects",2,"stim/objects/HouseObjects/broom3.png",4,"right","right",0.33100009,1,1,1
"458",71,451,0.9,"stim/21.jpeg",2,1,3,2,"Instruments",1,"stim/objects/Instruments/musicsheet3.png",3,"left","left",0.463999748,1,1,1
"459",71,452,0.7,"stim/52.jpeg",5,2,2,2,"HouseObjects",2,"stim/objects/HouseObjects/ironingboard3.png",3,"right","right",0.52699995,1,1,1
"460",71,453,0.5,"stim/34.jpeg",3,4,1,1,"HouseObjects",2,"stim/objects/HouseObjects/rubbergloves3.png",3,"right","right",0.510999918,1,1,1
"461",71,454,0.9,"stim/24.jpeg",2,4,3,2,"Instruments",1,"stim/objects/Instruments/musicstand3.png",3,"left","left",0.530999899,1,1,1
"462",71,455,0.9,"stim/24.jpeg",2,4,3,2,"Instruments",1,"stim/objects/Instruments/marimba3.png",4,"left","left",0.414000034,1,1,1
"463",71,456,0.5,"stim/34.jpeg",3,4,1,2,"HouseObjects",2,"stim/objects/HouseObjects/ashtray3.png",2,"right","left",0.453999996,0,0,1
"464",71,457,0.7,"stim/51.jpeg",5,1,2,2,"HouseObjects",2,"stim/objects/HouseObjects/clothespin3.png",2,"right","left",0.457999945,0,0,1
"465",71,458,0.7,"stim/52.jpeg",5,2,2,1,"HouseObjects",2,"stim/objects/HouseObjects/basket4.png",2,"right","right",0.480999947,1,1,1
"466",71,459,0.9,"stim/24.jpeg",2,4,3,2,"Instruments",1,"stim/objects/Instruments/oboe3.png",1,"left","left",0.680000067,1,1,1
"467",71,460,0.1,"stim/11.jpeg",1,1,3,1,"Instruments",1,"stim/objects/Instruments/oboe4.png",4,"left","right",0.415999889,0,0,1
"468",71,461,0.9,"stim/14.jpeg",1,4,3,2,"HouseObjects",2,"stim/objects/HouseObjects/lintroller3.png",1,"right","right",0.631000042,1,1,1
"469",71,462,0.9,"stim/23.jpeg",2,3,3,2,"Instruments",1,"stim/objects/Instruments/musicstand3.png",4,"left","",NA,0,0,1
"470",71,463,0.9,"stim/21.jpeg",2,1,3,2,"Instruments",1,"stim/objects/Instruments/metronome3.png",4,"left","left",0.638000011,1,1,1
"471",71,464,0.9,"stim/12.jpeg",1,2,3,2,"HouseObjects",2,"stim/objects/HouseObjects/lintroller3.png",1,"right","left",0.443999767,0,0,1
"472",71,465,0.9,"stim/11.jpeg",1,1,3,2,"HouseObjects",2,"stim/objects/HouseObjects/pitcher3.png",4,"right","right",0.592999935,1,1,1
"473",71,466,0.7,"stim/64.jpeg",6,4,2,1,"Instruments",1,"stim/objects/Instruments/laud4.png",2,"left","left",0.589999914,1,1,1
"474",71,467,0.9,"stim/14.jpeg",1,4,3,2,"HouseObjects",2,"stim/objects/HouseObjects/pitcher3.png",1,"right","right",0.466999769,1,1,1
"475",71,468,0.3,"stim/63.jpeg",6,3,2,1,"HouseObjects",2,"stim/objects/HouseObjects/bottle4.png",2,"right","right",0.444999933,1,1,1
"476",71,469,0.9,"stim/24.jpeg",2,4,3,1,"Instruments",1,"stim/objects/Instruments/triangle4.png",3,"left","left",0.57799983,1,1,1
"477",71,470,0.9,"stim/23.jpeg",2,3,3,1,"Instruments",1,"stim/objects/Instruments/timbal4.png",1,"left","left",0.47300005,1,1,1
"478",71,471,0.7,"stim/62.jpeg",6,2,2,1,"Instruments",1,"stim/objects/Instruments/doublebass4.png",3,"left","left",0.513999939,1,1,1
"479",71,472,0.5,"stim/33.jpeg",3,3,1,2,"Instruments",1,"stim/objects/Instruments/acousticguitar3.png",1,"left","right",0.393999815,0,0,1
"480",71,473,0.7,"stim/51.jpeg",5,1,2,2,"HouseObjects",2,"stim/objects/HouseObjects/key3.png",3,"right","left",0.354999781,0,0,1
"481",71,474,0.9,"stim/24.jpeg",2,4,3,2,"Instruments",1,"stim/objects/Instruments/marimba3.png",1,"left","left",0.576999903,1,1,1
"482",71,475,0.9,"stim/14.jpeg",1,4,3,2,"HouseObjects",2,"stim/objects/HouseObjects/lintroller3.png",2,"right","right",0.882999897,1,1,1
"483",71,476,0.9,"stim/11.jpeg",1,1,3,2,"HouseObjects",2,"stim/objects/HouseObjects/match3.png",3,"right","right",0.605000019,1,1,1
"484",71,477,0.9,"stim/11.jpeg",1,1,3,2,"HouseObjects",2,"stim/objects/HouseObjects/lintroller3.png",1,"right","right",0.513999939,1,1,1
"485",71,478,0.5,"stim/42.jpeg",4,2,1,1,"Instruments",1,"stim/objects/Instruments/tambourine3.png",3,"left","right",0.569999933,0,0,1
"486",71,479,0.5,"stim/31.jpeg",3,1,1,2,"HouseObjects",2,"stim/objects/HouseObjects/ballofstring3.png",3,"right","left",0.605999708,0,0,1
"487",71,480,0.9,"stim/11.jpeg",1,1,3,2,"HouseObjects",2,"stim/objects/HouseObjects/match3.png",2,"right","right",0.388999939,1,1,1
"488",71,481,0.9,"stim/14.jpeg",1,4,3,2,"HouseObjects",2,"stim/objects/HouseObjects/knife3.png",1,"right","right",0.53399992,1,1,1
"489",71,482,0.9,"stim/21.jpeg",2,1,3,2,"Instruments",1,"stim/objects/Instruments/musicsheet3.png",4,"left","left",0.578999996,1,1,1
"490",71,483,0.7,"stim/54.jpeg",5,4,2,2,"HouseObjects",2,"stim/objects/HouseObjects/ironingboard3.png",4,"right","right",0.382999897,1,1,1
"491",71,484,0.9,"stim/14.jpeg",1,4,3,2,"HouseObjects",2,"stim/objects/HouseObjects/match3.png",2,"right","right",0.542999744,1,1,1
"492",71,485,0.9,"stim/23.jpeg",2,3,3,2,"Instruments",1,"stim/objects/Instruments/marimba3.png",2,"left","left",0.578999996,1,1,1
"493",71,486,0.7,"stim/52.jpeg",5,2,2,2,"HouseObjects",2,"stim/objects/HouseObjects/iron3.png",4,"right","right",0.475999832,1,1,1
"494",71,487,0.3,"stim/51.jpeg",5,1,2,1,"Instruments",1,"stim/objects/Instruments/banjo4.png",3,"left","right",0.717999935,0,0,1
"495",71,488,0.9,"stim/14.jpeg",1,4,3,2,"HouseObjects",2,"stim/objects/HouseObjects/knife3.png",3,"right","right",0.54399991,1,1,1
"496",71,489,0.9,"stim/23.jpeg",2,3,3,2,"Instruments",1,"stim/objects/Instruments/musicsheet3.png",1,"left","left",0.496999741,1,1,1
"497",71,490,0.7,"stim/64.jpeg",6,4,2,2,"Instruments",1,"stim/objects/Instruments/doublebass3.png",3,"left","left",0.620999813,1,1,1
"498",71,491,0.9,"stim/22.jpeg",2,2,3,2,"Instruments",1,"stim/objects/Instruments/marimba3.png",3,"left","left",0.549000025,1,1,1
"499",71,492,0.3,"stim/53.jpeg",5,3,2,1,"Instruments",1,"stim/objects/Instruments/violin3.png",2,"left","right",0.538999796,0,0,1
"500",71,493,0.1,"stim/12.jpeg",1,2,3,1,"Instruments",1,"stim/objects/Instruments/panflute4.png",3,"left","right",0.562999725,0,0,1
"501",71,494,0.7,"stim/61.jpeg",6,1,2,2,"Instruments",1,"stim/objects/Instruments/keyboard3.png",1,"left","left",0.565000057,1,1,1
"502",71,495,0.9,"stim/22.jpeg",2,2,3,2,"Instruments",1,"stim/objects/Instruments/oboe3.png",4,"left","left",0.663000107,1,1,1
"503",71,496,0.1,"stim/13.jpeg",1,3,3,1,"Instruments",1,"stim/objects/Instruments/pipepiano4.png",3,"left","right",0.556999922,0,0,1
"504",71,497,0.9,"stim/12.jpeg",1,2,3,2,"HouseObjects",2,"stim/objects/HouseObjects/knife3.png",2,"right","right",0.575999737,1,1,1
"505",71,498,0.9,"stim/12.jpeg",1,2,3,2,"HouseObjects",2,"stim/objects/HouseObjects/pitcher3.png",2,"right","right",0.496999979,1,1,1
"506",71,499,0.9,"stim/14.jpeg",1,4,3,2,"HouseObjects",2,"stim/objects/HouseObjects/match3.png",2,"right","right",0.491999865,1,1,1
"507",71,500,0.9,"stim/21.jpeg",2,1,3,2,"Instruments",1,"stim/objects/Instruments/oboe3.png",1,"left","left",0.664999962,1,1,1
"508",71,501,0.9,"stim/23.jpeg",2,3,3,2,"Instruments",1,"stim/objects/Instruments/oboe3.png",3,"left","left",0.559999943,1,1,1
"509",71,502,0.9,"stim/14.jpeg",1,4,3,2,"HouseObjects",2,"stim/objects/HouseObjects/pan3.png",3,"right","right",0.572000027,1,1,1
"510",71,503,0.5,"stim/42.jpeg",4,2,1,2,"Instruments",1,"stim/objects/Instruments/clarinet3.png",2,"left","right",0.47699976,0,0,1
"511",71,504,0.5,"stim/42.jpeg",4,2,1,2,"HouseObjects",2,"stim/objects/HouseObjects/bucket3.png",1,"right","right",0.566999912,1,1,1
"512",71,505,0.9,"stim/14.jpeg",1,4,3,2,"HouseObjects",2,"stim/objects/HouseObjects/knife3.png",2,"right","right",0.517999887,1,1,1
"513",71,506,0.9,"stim/22.jpeg",2,2,3,2,"Instruments",1,"stim/objects/Instruments/oboe3.png",4,"left","left",0.595999956,1,1,1
"514",71,507,0.9,"stim/22.jpeg",2,2,3,2,"Instruments",1,"stim/objects/Instruments/marimba3.png",2,"left","left",0.492999792,1,1,1
"515",71,508,0.9,"stim/24.jpeg",2,4,3,2,"Instruments",1,"stim/objects/Instruments/marimba3.png",4,"left","left",0.605999947,1,1,1
"516",71,509,0.5,"stim/32.jpeg",3,2,1,2,"HouseObjects",2,"stim/objects/HouseObjects/ballofstring3.png",3,"right","right",0.626999855,1,1,1
"517",71,510,0.7,"stim/61.jpeg",6,1,2,2,"Instruments",1,"stim/objects/Instruments/maraca3.png",4,"left","left",0.595999956,1,1,1
"518",71,511,0.7,"stim/61.jpeg",6,1,2,1,"Instruments",1,"stim/objects/Instruments/maraca4.png",4,"left","left",0.589999914,1,1,1
"519",71,512,0.7,"stim/51.jpeg",5,1,2,2,"HouseObjects",2,"stim/objects/HouseObjects/clothesdryingrack3.png",2,"right","right",0.643999815,1,1,1
"520",71,513,0.7,"stim/61.jpeg",6,1,2,1,"Instruments",1,"stim/objects/Instruments/cello4.png",4,"left","right",0.430999756,0,0,1
"521",71,514,0.5,"stim/31.jpeg",3,1,1,2,"Instruments",1,"stim/objects/Instruments/bassdrum3.png",3,"left","right",0.617999792,0,0,1
"522",71,515,0.9,"stim/13.jpeg",1,3,3,2,"HouseObjects",2,"stim/objects/HouseObjects/pan3.png",4,"right","right",0.628999949,1,1,1
"523",71,516,0.9,"stim/12.jpeg",1,2,3,2,"HouseObjects",2,"stim/objects/HouseObjects/pan3.png",3,"right","right",0.720000029,1,1,1
"524",71,517,0.9,"stim/21.jpeg",2,1,3,2,"Instruments",1,"stim/objects/Instruments/marimba3.png",3,"left","left",0.57799983,1,1,1
"525",71,518,0.9,"stim/22.jpeg",2,2,3,2,"Instruments",1,"stim/objects/Instruments/musicsheet3.png",4,"left","left",0.474999905,1,1,1
"526",71,519,0.7,"stim/62.jpeg",6,2,2,2,"Instruments",1,"stim/objects/Instruments/cymbal3.png",4,"left","left",0.530999899,1,1,1
"527",71,520,0.9,"stim/24.jpeg",2,4,3,2,"Instruments",1,"stim/objects/Instruments/musicstand3.png",2,"left","left",0.53399992,1,1,1
"528",71,521,0.9,"stim/24.jpeg",2,4,3,2,"Instruments",1,"stim/objects/Instruments/metronome3.png",3,"left","left",0.439999819,1,1,1
"529",71,522,0.9,"stim/22.jpeg",2,2,3,2,"Instruments",1,"stim/objects/Instruments/musicstand3.png",1,"left","left",0.522999763,1,1,1
"530",71,523,0.3,"stim/61.jpeg",6,1,2,1,"HouseObjects",2,"stim/objects/HouseObjects/bucket4.png",3,"right","left",0.65199995,0,0,1
"531",71,524,0.5,"stim/32.jpeg",3,2,1,2,"HouseObjects",2,"stim/objects/HouseObjects/barbecuelighter3.png",3,"right","right",0.523000002,1,1,1
"532",71,525,0.9,"stim/24.jpeg",2,4,3,2,"Instruments",1,"stim/objects/Instruments/musicstand3.png",3,"left","left",0.446000099,1,1,1
"533",71,526,0.9,"stim/11.jpeg",1,1,3,2,"HouseObjects",2,"stim/objects/HouseObjects/pan3.png",2,"right","right",0.693000078,1,1,1
"534",71,527,0.1,"stim/21.jpeg",2,1,3,1,"HouseObjects",2,"stim/objects/HouseObjects/sponge4.png",3,"right","left",0.582999945,0,0,1
"535",71,528,0.9,"stim/21.jpeg",2,1,3,2,"Instruments",1,"stim/objects/Instruments/marimba3.png",2,"left","",NA,0,0,1
"536",71,529,0.5,"stim/32.jpeg",3,2,1,1,"Instruments",1,"stim/objects/Instruments/record_player3.png",1,"left","left",0.434999943,1,1,1
"537",71,530,0.5,"stim/41.jpeg",4,1,1,2,"Instruments",1,"stim/objects/Instruments/chime3.png",2,"left","left",0.33100009,1,1,1
"538",71,531,0.9,"stim/21.jpeg",2,1,3,2,"Instruments",1,"stim/objects/Instruments/metronome3.png",2,"left","left",0.529999971,1,1,1
"539",71,532,0.5,"stim/31.jpeg",3,1,1,2,"Instruments",1,"stim/objects/Instruments/banjo3.png",1,"left","right",0.493999958,0,0,1
"540",71,533,0.9,"stim/14.jpeg",1,4,3,2,"HouseObjects",2,"stim/objects/HouseObjects/pan3.png",3,"right","left",0.529999971,0,0,1
"541",71,534,0.9,"stim/24.jpeg",2,4,3,2,"Instruments",1,"stim/objects/Instruments/musicstand3.png",3,"left","left",0.529000044,1,1,1
"542",71,535,0.7,"stim/64.jpeg",6,4,2,1,"Instruments",1,"stim/objects/Instruments/bassguitar4.png",1,"left","left",0.592000008,1,1,1
"543",71,536,0.5,"stim/43.jpeg",4,3,1,1,"HouseObjects",2,"stim/objects/HouseObjects/spraybottle3.png",1,"right","right",0.514999866,1,1,1
"544",71,537,0.1,"stim/23.jpeg",2,3,3,1,"HouseObjects",2,"stim/objects/HouseObjects/vacuumcleaner4.png",4,"right","left",0.570999861,0,0,1
"545",71,538,0.9,"stim/11.jpeg",1,1,3,2,"HouseObjects",2,"stim/objects/HouseObjects/pitcher3.png",2,"right","right",0.489999771,1,1,1
"546",71,539,0.7,"stim/63.jpeg",6,3,2,2,"Instruments",1,"stim/objects/Instruments/keyboard3.png",2,"left","left",0.529000044,1,1,1
"547",71,540,0.5,"stim/31.jpeg",3,1,1,1,"Instruments",1,"stim/objects/Instruments/record3.png",4,"left","right",0.50999999,0,0,1
"548",71,541,0.1,"stim/23.jpeg",2,3,3,1,"HouseObjects",2,"stim/objects/HouseObjects/saw4.png",2,"right","left",0.48300004,0,0,1
"549",71,542,0.9,"stim/12.jpeg",1,2,3,2,"HouseObjects",2,"stim/objects/HouseObjects/lintroller3.png",3,"right","right",0.505999804,1,1,1
"550",71,543,0.9,"stim/22.jpeg",2,2,3,2,"Instruments",1,"stim/objects/Instruments/marimba3.png",4,"left","left",0.588000059,1,1,1
"551",71,544,0.7,"stim/52.jpeg",5,2,2,2,"HouseObjects",2,"stim/objects/HouseObjects/clothespin3.png",1,"right","right",0.480000019,1,1,1
"552",71,545,0.9,"stim/11.jpeg",1,1,3,2,"HouseObjects",2,"stim/objects/HouseObjects/lintroller3.png",3,"right","right",0.532999992,1,1,1
"553",71,546,0.9,"stim/21.jpeg",2,1,3,2,"Instruments",1,"stim/objects/Instruments/metronome3.png",1,"left","left",0.424000025,1,1,1
"554",71,547,0.9,"stim/23.jpeg",2,3,3,2,"Instruments",1,"stim/objects/Instruments/oboe3.png",2,"left","left",0.506999969,1,1,1
"555",71,548,0.9,"stim/14.jpeg",1,4,3,1,"HouseObjects",2,"stim/objects/HouseObjects/lintroller4.png",4,"right","right",0.518000126,1,1,1
"556",71,549,0.5,"stim/43.jpeg",4,3,1,1,"Instruments",1,"stim/objects/Instruments/timbal3.png",1,"left","right",0.467000008,0,0,1
"557",71,550,0.9,"stim/23.jpeg",2,3,3,1,"Instruments",1,"stim/objects/Instruments/tuba4.png",3,"left","left",0.546000004,1,1,1
"558",71,551,0.9,"stim/13.jpeg",1,3,3,2,"HouseObjects",2,"stim/objects/HouseObjects/match3.png",2,"right","right",0.557999849,1,1,1
"559",71,552,0.7,"stim/53.jpeg",5,3,2,1,"HouseObjects",2,"stim/objects/HouseObjects/thread3.png",1,"right","right",0.494999886,1,1,1
"560",71,553,0.9,"stim/11.jpeg",1,1,3,2,"HouseObjects",2,"stim/objects/HouseObjects/lintroller3.png",2,"right","right",0.461999893,1,1,1
"561",71,554,0.5,"stim/43.jpeg",4,3,1,2,"Instruments",1,"stim/objects/Instruments/clarinet3.png",2,"left","right",0.407000065,0,0,1
"562",71,555,0.5,"stim/41.jpeg",4,1,1,2,"Instruments",1,"stim/objects/Instruments/cello3.png",4,"left","right",0.531999826,0,0,1
"563",71,556,0.1,"stim/11.jpeg",1,1,3,1,"Instruments",1,"stim/objects/Instruments/marimba4.png",4,"left","right",0.572000027,0,0,1
"564",71,557,0.9,"stim/24.jpeg",2,4,3,2,"Instruments",1,"stim/objects/Instruments/musicsheet3.png",1,"left","left",0.629999876,1,1,1
"565",71,558,0.9,"stim/12.jpeg",1,2,3,2,"HouseObjects",2,"stim/objects/HouseObjects/pitcher3.png",2,"right","right",0.480000019,1,1,1
"566",71,559,0.9,"stim/22.jpeg",2,2,3,2,"Instruments",1,"stim/objects/Instruments/metronome3.png",1,"left","left",0.563999891,1,1,1
"567",71,560,0.5,"stim/33.jpeg",3,3,1,2,"Instruments",1,"stim/objects/Instruments/balalaika3.png",2,"left","right",0.585999966,0,0,1
"568",71,561,0.9,"stim/23.jpeg",2,3,3,2,"Instruments",1,"stim/objects/Instruments/oboe3.png",1,"left","left",0.572999954,1,1,1
"569",71,562,0.9,"stim/11.jpeg",1,1,3,2,"HouseObjects",2,"stim/objects/HouseObjects/knife3.png",4,"right","right",0.528999805,1,1,1
"570",71,563,0.7,"stim/54.jpeg",5,4,2,1,"HouseObjects",2,"stim/objects/HouseObjects/towel3.png",2,"right","right",0.692000151,1,1,1
"571",71,564,0.9,"stim/22.jpeg",2,2,3,2,"Instruments",1,"stim/objects/Instruments/musicstand3.png",1,"left","left",0.65899992,1,1,1
"572",71,565,0.9,"stim/24.jpeg",2,4,3,2,"Instruments",1,"stim/objects/Instruments/metronome3.png",1,"left","left",0.495000124,1,1,1
"573",71,566,0.3,"stim/52.jpeg",5,2,2,1,"Instruments",1,"stim/objects/Instruments/bassdrum4.png",2,"left","right",0.592999935,0,0,1
"574",71,567,0.5,"stim/32.jpeg",3,2,1,1,"HouseObjects",2,"stim/objects/HouseObjects/recyclingbin3.png",3,"right","right",0.654999971,1,1,1
"575",71,568,0.7,"stim/54.jpeg",5,4,2,2,"HouseObjects",2,"stim/objects/HouseObjects/key3.png",2,"right","right",0.457999945,1,1,1
"576",71,569,0.9,"stim/23.jpeg",2,3,3,2,"Instruments",1,"stim/objects/Instruments/marimba3.png",4,"left","left",0.514999866,1,1,1
"577",71,570,0.9,"stim/13.jpeg",1,3,3,1,"HouseObjects",2,"stim/objects/HouseObjects/knife4.png",2,"right","right",0.407999754,1,1,1
