"","participant","trial_index","trial_cond","scn_file","scn_cat","scn_inst","scn_condition","fillers","obj_cat","obj_cat_num","obj_file","quadrant","corr_ans","key_resp_trial.keys","key_resp_trial.rt","trial_acc","trial_acc_manual","group"
"1",71,1,0.9,"stim/23.jpeg",2,3,3,NA,"Instruments",1,"stim/objects/Instruments/harp2.png",3,"left","",NA,0,0,0
"2",71,2,0.7,"stim/62.jpeg",6,2,2,NA,"Instruments",1,"stim/objects/Instruments/electricdrumset2.png",3,"left","left",0.549999952,1,1,0
"3",71,3,0.9,"stim/14.jpeg",1,4,3,NA,"HouseObjects",2,"stim/objects/HouseObjects/glass2.png",3,"right","right",0.669999838,1,1,0
"4",71,4,0.7,"stim/64.jpeg",6,4,2,NA,"Instruments",1,"stim/objects/Instruments/flute2.png",4,"left","left",0.485999823,1,1,0
"5",71,5,0.5,"stim/43.jpeg",4,3,1,NA,"Instruments",1,"stim/objects/Instruments/gong.png",1,"left","right",0.61500001,0,0,0
"6",71,6,0.7,"stim/51.jpeg",5,1,2,NA,"HouseObjects",2,"stim/objects/HouseObjects/glassmop.png",3,"right","left",0.595999956,0,0,0
"7",71,7,0.9,"stim/14.jpeg",1,4,3,NA,"HouseObjects",2,"stim/objects/HouseObjects/glass2.png",4,"right","right",0.821999788,1,1,0
"8",71,8,0.7,"stim/63.jpeg",6,3,2,NA,"Instruments",1,"stim/objects/Instruments/electricguitar2.png",3,"left","left",0.644999981,1,1,0
"9",71,9,0.9,"stim/13.jpeg",1,3,3,NA,"HouseObjects",2,"stim/objects/HouseObjects/garbagebin2.png",1,"right","right",0.592000008,1,1,0
"10",71,10,0.5,"stim/31.jpeg",3,1,1,NA,"Instruments",1,"stim/objects/Instruments/drums.png",2,"left","left",0.578999996,1,1,0
"11",71,11,0.9,"stim/22.jpeg",2,2,3,NA,"Instruments",1,"stim/objects/Instruments/harmonica2.png",4,"left","",NA,0,0,0
"12",71,12,0.7,"stim/61.jpeg",6,1,2,NA,"Instruments",1,"stim/objects/Instruments/drums2.png",4,"left","left",0.578999996,1,1,0
"13",71,13,0.7,"stim/61.jpeg",6,1,2,NA,"Instruments",1,"stim/objects/Instruments/drums2.png",1,"left","left",0.450999975,1,1,0
"14",71,14,0.7,"stim/64.jpeg",6,4,2,NA,"Instruments",1,"stim/objects/Instruments/flute2.png",2,"left","left",0.506999969,1,1,0
"15",71,15,0.5,"stim/33.jpeg",3,3,1,NA,"Instruments",1,"stim/objects/Instruments/electricguitar.png",1,"left","right",0.416999817,0,0,0
"16",71,16,0.9,"stim/21.jpeg",2,1,3,NA,"Instruments",1,"stim/objects/Instruments/guitarcase2.png",1,"left","left",0.5,1,1,0
"17",71,17,0.7,"stim/51.jpeg",5,1,2,NA,"HouseObjects",2,"stim/objects/HouseObjects/glassmop.png",3,"right","left",0.541000128,0,0,0
"18",71,18,0.7,"stim/63.jpeg",6,3,2,NA,"Instruments",1,"stim/objects/Instruments/electricguitar2.png",3,"left","left",0.573999882,1,1,0
"19",71,19,0.9,"stim/13.jpeg",1,3,3,NA,"HouseObjects",2,"stim/objects/HouseObjects/garbagebin2.png",3,"right","right",0.498999834,1,1,0
"20",71,20,0.9,"stim/14.jpeg",1,4,3,NA,"HouseObjects",2,"stim/objects/HouseObjects/glass2.png",3,"right","right",0.529999971,1,1,0
"21",71,21,0.5,"stim/41.jpeg",4,1,1,NA,"HouseObjects",2,"stim/objects/HouseObjects/dustpan.png",4,"right","right",0.588000059,1,1,0
"22",71,22,0.5,"stim/31.jpeg",3,1,1,NA,"Instruments",1,"stim/objects/Instruments/drums.png",1,"left","right",0.755999804,0,0,0
"23",71,23,0.5,"stim/42.jpeg",4,2,1,NA,"HouseObjects",2,"stim/objects/HouseObjects/flyswatter.png",2,"right","left",0.832999945,0,0,0
"24",71,24,0.7,"stim/63.jpeg",6,3,2,NA,"Instruments",1,"stim/objects/Instruments/electricguitar2.png",2,"left","left",0.622999907,1,1,0
"25",71,25,0.3,"stim/51.jpeg",5,1,2,NA,"Instruments",1,"stim/objects/Instruments/guitarcase.png",3,"left","left",0.613999844,1,1,0
"26",71,26,0.7,"stim/62.jpeg",6,2,2,NA,"Instruments",1,"stim/objects/Instruments/electricdrumset2.png",4,"left","left",0.5849998,1,1,0
"27",71,27,0.5,"stim/32.jpeg",3,2,1,NA,"HouseObjects",2,"stim/objects/HouseObjects/cushion.png",1,"right","right",0.701999903,1,1,0
"28",71,28,0.3,"stim/62.jpeg",6,2,2,NA,"HouseObjects",2,"stim/objects/HouseObjects/cushion2.png",4,"right","left",0.580999851,0,0,0
"29",71,29,0.9,"stim/21.jpeg",2,1,3,NA,"Instruments",1,"stim/objects/Instruments/guitarcase2.png",1,"left","left",0.710999727,1,1,0
"30",71,30,0.7,"stim/54.jpeg",5,4,2,NA,"HouseObjects",2,"stim/objects/HouseObjects/handvacuum.png",1,"right","right",0.714999914,1,1,0
"31",71,31,0.5,"stim/41.jpeg",4,1,1,NA,"HouseObjects",2,"stim/objects/HouseObjects/dustpan.png",1,"right","right",0.703999996,1,1,0
"32",71,32,0.7,"stim/64.jpeg",6,4,2,NA,"Instruments",1,"stim/objects/Instruments/flute2.png",4,"left","left",0.57799983,1,1,0
"33",71,33,0.5,"stim/31.jpeg",3,1,1,NA,"Instruments",1,"stim/objects/Instruments/drums.png",2,"left","right",0.838999987,0,0,0
"34",71,34,0.3,"stim/53.jpeg",5,3,2,NA,"Instruments",1,"stim/objects/Instruments/harp.png",4,"left","right",0.802999735,0,0,0
"35",71,35,0.5,"stim/34.jpeg",3,4,1,NA,"HouseObjects",2,"stim/objects/HouseObjects/doormat.png",3,"right","right",0.517999887,1,1,0
"36",71,36,0.5,"stim/43.jpeg",4,3,1,NA,"HouseObjects",2,"stim/objects/HouseObjects/garbagebin.png",3,"right","right",0.628999949,1,1,0
"37",71,37,0.7,"stim/62.jpeg",6,2,2,NA,"Instruments",1,"stim/objects/Instruments/electricdrumset2.png",3,"left","left",0.61500001,1,1,0
"38",71,38,0.5,"stim/44.jpeg",4,4,1,NA,"HouseObjects",2,"stim/objects/HouseObjects/glass.png",3,"right","left",0.619999886,0,0,0
"39",71,39,0.9,"stim/21.jpeg",2,1,3,NA,"Instruments",1,"stim/objects/Instruments/guitarcase2.png",2,"left","left",0.67599988,1,1,0
"40",71,40,0.9,"stim/14.jpeg",1,4,3,NA,"HouseObjects",2,"stim/objects/HouseObjects/glass2.png",4,"right","right",0.538000107,1,1,0
"41",71,41,0.7,"stim/61.jpeg",6,1,2,NA,"Instruments",1,"stim/objects/Instruments/drums2.png",3,"left","left",0.523000002,1,1,0
"42",71,42,0.5,"stim/41.jpeg",4,1,1,NA,"Instruments",1,"stim/objects/Instruments/flutetrans.png",2,"left","right",0.690999985,0,0,0
"43",71,43,0.5,"stim/34.jpeg",3,4,1,NA,"HouseObjects",2,"stim/objects/HouseObjects/doormat.png",3,"right","left",0.875,0,0,0
"44",71,44,0.9,"stim/11.jpeg",1,1,3,NA,"HouseObjects",2,"stim/objects/HouseObjects/dustpan2.png",1,"right","right",0.575000048,1,1,0
"45",71,45,0.1,"stim/14.jpeg",1,4,3,NA,"Instruments",1,"stim/objects/Instruments/grandpiano2.png",2,"left","right",0.546000004,0,0,0
"46",71,46,0.9,"stim/21.jpeg",2,1,3,NA,"Instruments",1,"stim/objects/Instruments/guitarcase2.png",2,"left","left",0.558999777,1,1,0
"47",71,47,0.5,"stim/42.jpeg",4,2,1,NA,"HouseObjects",2,"stim/objects/HouseObjects/flyswatter.png",2,"right","right",0.532000065,1,1,0
"48",71,48,0.7,"stim/62.jpeg",6,2,2,NA,"Instruments",1,"stim/objects/Instruments/electricdrumset2.png",2,"left","left",0.497999907,1,1,0
"49",71,49,0.3,"stim/52.jpeg",5,2,2,NA,"Instruments",1,"stim/objects/Instruments/harmonica.png",1,"left","right",0.549999952,0,0,0
"50",71,50,0.7,"stim/64.jpeg",6,4,2,NA,"Instruments",1,"stim/objects/Instruments/flute2.png",4,"left","left",0.681999922,1,1,0
"51",71,51,0.3,"stim/64.jpeg",6,4,2,NA,"HouseObjects",2,"stim/objects/HouseObjects/doormat2.png",1,"right","left",0.698999882,0,0,0
"52",71,52,0.5,"stim/44.jpeg",4,4,1,NA,"Instruments",1,"stim/objects/Instruments/grandpiano.png",3,"left","right",0.622999907,0,0,0
"53",71,53,0.9,"stim/11.jpeg",1,1,3,NA,"HouseObjects",2,"stim/objects/HouseObjects/dustpan2.png",1,"right","right",0.582000017,1,1,0
"54",71,54,0.9,"stim/12.jpeg",1,2,3,NA,"HouseObjects",2,"stim/objects/HouseObjects/flyswatter2.png",2,"right","right",0.590999842,1,1,0
"55",71,55,0.5,"stim/34.jpeg",3,4,1,NA,"Instruments",1,"stim/objects/Instruments/flute.png",2,"left","right",0.672999859,0,0,0
"56",71,56,0.1,"stim/22.jpeg",2,2,3,NA,"HouseObjects",2,"stim/objects/HouseObjects/hairdryer2.png",2,"right","left",0.730999947,0,0,0
"57",71,57,0.7,"stim/53.jpeg",5,3,2,NA,"HouseObjects",2,"stim/objects/HouseObjects/handbrush.png",3,"right","right",0.592999935,1,1,0
"58",71,58,0.7,"stim/54.jpeg",5,4,2,NA,"HouseObjects",2,"stim/objects/HouseObjects/handvacuum.png",4,"right","right",0.609999895,1,1,0
"59",71,59,0.5,"stim/33.jpeg",3,3,1,NA,"HouseObjects",2,"stim/objects/HouseObjects/dishsoap.png",3,"right","right",0.626999855,1,1,0
"60",71,60,0.3,"stim/62.jpeg",6,2,2,NA,"HouseObjects",2,"stim/objects/HouseObjects/cushion2.png",1,"right","left",0.540999889,0,0,0
"61",71,61,0.9,"stim/12.jpeg",1,2,3,NA,"HouseObjects",2,"stim/objects/HouseObjects/flyswatter2.png",1,"right","right",0.540999889,1,1,0
"62",71,62,0.5,"stim/42.jpeg",4,2,1,NA,"Instruments",1,"stim/objects/Instruments/frenchhorn.png",2,"left","right",0.529000044,0,0,0
"63",71,63,0.1,"stim/13.jpeg",1,3,3,NA,"Instruments",1,"stim/objects/Instruments/gong2.png",2,"left","right",0.605999947,0,0,0
"64",71,64,0.7,"stim/52.jpeg",5,2,2,NA,"HouseObjects",2,"stim/objects/HouseObjects/hairdryer.png",3,"right","right",0.5849998,1,1,0
"65",71,65,0.9,"stim/21.jpeg",2,1,3,NA,"Instruments",1,"stim/objects/Instruments/guitarcase2.png",1,"left","left",0.579999924,1,1,0
"66",71,66,0.3,"stim/54.jpeg",5,4,2,NA,"Instruments",1,"stim/objects/Instruments/hihat.png",2,"left","right",0.618000031,0,0,0
"67",71,67,0.9,"stim/14.jpeg",1,4,3,NA,"HouseObjects",2,"stim/objects/HouseObjects/glass2.png",2,"right","right",0.553999901,1,1,0
"68",71,68,0.9,"stim/23.jpeg",2,3,3,NA,"Instruments",1,"stim/objects/Instruments/harp2.png",1,"left","left",0.642999887,1,1,0
"69",71,69,0.9,"stim/11.jpeg",1,1,3,NA,"HouseObjects",2,"stim/objects/HouseObjects/dustpan2.png",2,"right","right",0.563999891,1,1,0
"70",71,70,0.5,"stim/44.jpeg",4,4,1,NA,"HouseObjects",2,"stim/objects/HouseObjects/glass.png",2,"right","left",0.616999865,0,0,0
"71",71,71,0.5,"stim/32.jpeg",3,2,1,NA,"Instruments",1,"stim/objects/Instruments/electricdrumset.png",3,"left","",NA,0,0,0
"72",71,72,0.9,"stim/12.jpeg",1,2,3,NA,"HouseObjects",2,"stim/objects/HouseObjects/flyswatter2.png",2,"right","right",0.738999844,1,1,0
"73",71,73,0.9,"stim/22.jpeg",2,2,3,NA,"Instruments",1,"stim/objects/Instruments/harmonica2.png",2,"left","right",0.605000019,0,0,0
"74",71,74,0.9,"stim/22.jpeg",2,2,3,NA,"Instruments",1,"stim/objects/Instruments/harmonica2.png",3,"left","left",0.661999941,1,1,0
"75",71,75,0.7,"stim/54.jpeg",5,4,2,NA,"HouseObjects",2,"stim/objects/HouseObjects/handvacuum.png",4,"right","right",0.501999855,1,1,0
"76",71,76,0.5,"stim/34.jpeg",3,4,1,NA,"Instruments",1,"stim/objects/Instruments/flute.png",3,"left","right",0.727999926,0,0,0
"77",71,77,0.7,"stim/52.jpeg",5,2,2,NA,"HouseObjects",2,"stim/objects/HouseObjects/hairdryer.png",3,"right","right",0.575999737,1,1,0
"78",71,78,0.7,"stim/53.jpeg",5,3,2,NA,"HouseObjects",2,"stim/objects/HouseObjects/handbrush.png",3,"right","right",0.614999771,1,1,0
"79",71,79,0.5,"stim/32.jpeg",3,2,1,NA,"Instruments",1,"stim/objects/Instruments/electricdrumset.png",4,"left","left",0.611000061,1,1,0
"80",71,80,0.9,"stim/21.jpeg",2,1,3,NA,"Instruments",1,"stim/objects/Instruments/guitarcase2.png",2,"left","left",0.645999908,1,1,0
"81",71,81,0.9,"stim/21.jpeg",2,1,3,NA,"Instruments",1,"stim/objects/Instruments/guitarcase2.png",4,"left","left",0.437000036,1,1,0
"82",71,82,0.7,"stim/51.jpeg",5,1,2,NA,"HouseObjects",2,"stim/objects/HouseObjects/glassmop.png",4,"right","right",0.565000057,1,1,0
"83",71,83,0.7,"stim/52.jpeg",5,2,2,NA,"HouseObjects",2,"stim/objects/HouseObjects/hairdryer.png",1,"right","right",0.604000092,1,1,0
"84",71,84,0.5,"stim/32.jpeg",3,2,1,NA,"Instruments",1,"stim/objects/Instruments/electricdrumset.png",4,"left","right",0.477999926,0,0,0
"85",71,85,0.9,"stim/13.jpeg",1,3,3,NA,"HouseObjects",2,"stim/objects/HouseObjects/garbagebin2.png",2,"right","right",0.622999907,1,1,0
"86",71,86,0.3,"stim/54.jpeg",5,4,2,NA,"Instruments",1,"stim/objects/Instruments/hihat.png",2,"left","right",0.572999954,0,0,0
"87",71,87,0.3,"stim/61.jpeg",6,1,2,NA,"HouseObjects",2,"stim/objects/HouseObjects/coffee2.png",3,"right","left",0.56099987,0,0,0
"88",71,88,0.9,"stim/24.jpeg",2,4,3,NA,"Instruments",1,"stim/objects/Instruments/hihat2.png",1,"left","left",0.539999962,1,1,0
"89",71,89,0.5,"stim/43.jpeg",4,3,1,NA,"HouseObjects",2,"stim/objects/HouseObjects/garbagebin.png",3,"right","right",0.562000036,1,1,0
"90",71,90,0.7,"stim/62.jpeg",6,2,2,NA,"Instruments",1,"stim/objects/Instruments/electricdrumset2.png",1,"left","left",0.582000017,1,1,0
"91",71,91,0.7,"stim/52.jpeg",5,2,2,NA,"HouseObjects",2,"stim/objects/HouseObjects/hairdryer.png",4,"right","right",0.600999832,1,1,0
"92",71,92,0.9,"stim/13.jpeg",1,3,3,NA,"HouseObjects",2,"stim/objects/HouseObjects/garbagebin2.png",1,"right","right",0.53399992,1,1,0
"93",71,93,0.7,"stim/53.jpeg",5,3,2,NA,"HouseObjects",2,"stim/objects/HouseObjects/handbrush.png",1,"right","right",0.562999964,1,1,0
"94",71,94,0.5,"stim/34.jpeg",3,4,1,NA,"Instruments",1,"stim/objects/Instruments/flute.png",1,"left","left",0.683999777,1,1,0
"95",71,95,0.9,"stim/13.jpeg",1,3,3,NA,"HouseObjects",2,"stim/objects/HouseObjects/garbagebin2.png",1,"right","right",0.5,1,1,0
"96",71,96,0.5,"stim/41.jpeg",4,1,1,NA,"HouseObjects",2,"stim/objects/HouseObjects/dustpan.png",4,"right","right",0.614000082,1,1,0
"97",71,97,0.7,"stim/61.jpeg",6,1,2,NA,"Instruments",1,"stim/objects/Instruments/drums2.png",1,"left","left",0.655999899,1,1,0
"98",71,98,0.1,"stim/11.jpeg",1,1,3,NA,"Instruments",1,"stim/objects/Instruments/flutetrans2.png",3,"left","right",0.537999868,0,0,0
"99",71,99,0.5,"stim/41.jpeg",4,1,1,NA,"Instruments",1,"stim/objects/Instruments/flutetrans.png",2,"left","right",0.563999891,0,0,0
"100",71,100,0.5,"stim/44.jpeg",4,4,1,NA,"Instruments",1,"stim/objects/Instruments/grandpiano.png",3,"left","right",0.654000044,0,0,0
"101",71,101,0.3,"stim/62.jpeg",6,2,2,NA,"HouseObjects",2,"stim/objects/HouseObjects/cushion2.png",2,"right","left",0.58100009,0,0,0
"102",71,102,0.1,"stim/21.jpeg",2,1,3,NA,"HouseObjects",2,"stim/objects/HouseObjects/glassmop2.png",3,"right","left",0.523999929,0,0,0
"103",71,103,0.9,"stim/13.jpeg",1,3,3,NA,"HouseObjects",2,"stim/objects/HouseObjects/garbagebin2.png",3,"right","right",0.621999979,1,1,0
"104",71,104,0.7,"stim/63.jpeg",6,3,2,NA,"Instruments",1,"stim/objects/Instruments/electricguitar2.png",1,"left","left",0.628999949,1,1,0
"105",71,105,0.5,"stim/34.jpeg",3,4,1,NA,"HouseObjects",2,"stim/objects/HouseObjects/doormat.png",1,"right","right",0.769999743,1,1,0
"106",71,106,0.9,"stim/24.jpeg",2,4,3,NA,"Instruments",1,"stim/objects/Instruments/hihat2.png",4,"left","left",0.566999912,1,1,0
"107",71,107,0.9,"stim/24.jpeg",2,4,3,NA,"Instruments",1,"stim/objects/Instruments/hihat2.png",4,"left","left",0.459000111,1,1,0
"108",71,108,0.5,"stim/31.jpeg",3,1,1,NA,"HouseObjects",2,"stim/objects/HouseObjects/coffee.png",1,"right","right",0.577000141,1,1,0
"109",71,109,0.1,"stim/23.jpeg",2,3,3,NA,"HouseObjects",2,"stim/objects/HouseObjects/handbrush2.png",4,"right","left",0.583999872,0,0,0
"110",71,110,0.7,"stim/61.jpeg",6,1,2,NA,"Instruments",1,"stim/objects/Instruments/drums2.png",2,"left","left",0.575999975,1,1,0
"111",71,111,0.7,"stim/52.jpeg",5,2,2,NA,"HouseObjects",2,"stim/objects/HouseObjects/hairdryer.png",2,"right","right",0.522999763,1,1,0
"112",71,112,0.7,"stim/53.jpeg",5,3,2,NA,"HouseObjects",2,"stim/objects/HouseObjects/handbrush.png",3,"right","left",0.569999933,0,0,0
"113",71,113,0.9,"stim/24.jpeg",2,4,3,NA,"Instruments",1,"stim/objects/Instruments/hihat2.png",3,"left","left",0.743999958,1,1,0
"114",71,114,0.7,"stim/51.jpeg",5,1,2,NA,"HouseObjects",2,"stim/objects/HouseObjects/glassmop.png",4,"right","right",0.617999792,1,1,0
"115",71,115,0.9,"stim/12.jpeg",1,2,3,NA,"HouseObjects",2,"stim/objects/HouseObjects/flyswatter2.png",4,"right","right",0.635999918,1,1,0
"116",71,116,0.5,"stim/32.jpeg",3,2,1,NA,"Instruments",1,"stim/objects/Instruments/electricdrumset.png",2,"left","right",0.794999838,0,0,0
"117",71,117,0.3,"stim/63.jpeg",6,3,2,NA,"HouseObjects",2,"stim/objects/HouseObjects/dishsoap2.png",4,"right","left",0.630999804,0,0,0
"118",71,118,0.7,"stim/63.jpeg",6,3,2,NA,"Instruments",1,"stim/objects/Instruments/electricguitar2.png",2,"left","left",0.524999857,1,1,0
"119",71,119,0.5,"stim/43.jpeg",4,3,1,NA,"Instruments",1,"stim/objects/Instruments/gong.png",2,"left","right",0.717000008,0,0,0
"120",71,120,0.5,"stim/32.jpeg",3,2,1,NA,"HouseObjects",2,"stim/objects/HouseObjects/cushion.png",1,"right","right",0.648000002,1,1,0
"121",71,121,0.5,"stim/41.jpeg",4,1,1,NA,"HouseObjects",2,"stim/objects/HouseObjects/dustpan.png",4,"right","right",0.789999962,1,1,0
"122",71,122,0.5,"stim/31.jpeg",3,1,1,NA,"HouseObjects",2,"stim/objects/HouseObjects/coffee.png",2,"right","left",0.745999813,0,0,0
"123",71,123,0.5,"stim/43.jpeg",4,3,1,NA,"HouseObjects",2,"stim/objects/HouseObjects/garbagebin.png",1,"right","",NA,0,0,0
"124",71,124,0.5,"stim/32.jpeg",3,2,1,NA,"HouseObjects",2,"stim/objects/HouseObjects/cushion.png",1,"right","right",0.695999861,1,1,0
"125",71,125,0.9,"stim/24.jpeg",2,4,3,NA,"Instruments",1,"stim/objects/Instruments/hihat2.png",3,"left","left",0.520999908,1,1,0
"126",71,126,0.5,"stim/44.jpeg",4,4,1,NA,"HouseObjects",2,"stim/objects/HouseObjects/glass.png",1,"right","right",0.598999977,1,1,0
"127",71,127,0.7,"stim/53.jpeg",5,3,2,NA,"HouseObjects",2,"stim/objects/HouseObjects/handbrush.png",3,"right","right",0.502999783,1,1,0
"128",71,128,0.9,"stim/12.jpeg",1,2,3,NA,"HouseObjects",2,"stim/objects/HouseObjects/flyswatter2.png",4,"right","right",0.548999786,1,1,0
"129",71,129,0.9,"stim/24.jpeg",2,4,3,NA,"Instruments",1,"stim/objects/Instruments/hihat2.png",4,"left","left",0.786000013,1,1,0
"130",71,130,0.3,"stim/51.jpeg",5,1,2,NA,"Instruments",1,"stim/objects/Instruments/guitarcase.png",1,"left","right",0.562999964,0,0,0
"131",71,131,0.9,"stim/12.jpeg",1,2,3,NA,"HouseObjects",2,"stim/objects/HouseObjects/flyswatter2.png",1,"right","right",0.526000023,1,1,0
"132",71,132,0.9,"stim/22.jpeg",2,2,3,NA,"Instruments",1,"stim/objects/Instruments/harmonica2.png",4,"left","left",0.547999859,1,1,0
"133",71,133,0.5,"stim/32.jpeg",3,2,1,NA,"HouseObjects",2,"stim/objects/HouseObjects/cushion.png",4,"right","right",0.569999933,1,1,0
"134",71,134,0.3,"stim/53.jpeg",5,3,2,NA,"Instruments",1,"stim/objects/Instruments/harp.png",1,"left","right",0.669999838,0,0,0
"135",71,135,0.5,"stim/42.jpeg",4,2,1,NA,"Instruments",1,"stim/objects/Instruments/frenchhorn.png",3,"left","right",0.670999765,0,0,0
"136",71,136,0.9,"stim/23.jpeg",2,3,3,NA,"Instruments",1,"stim/objects/Instruments/harp2.png",1,"left","left",0.575999975,1,1,0
"137",71,137,0.5,"stim/42.jpeg",4,2,1,NA,"HouseObjects",2,"stim/objects/HouseObjects/flyswatter.png",3,"right","right",0.527999878,1,1,0
"138",71,138,0.9,"stim/24.jpeg",2,4,3,NA,"Instruments",1,"stim/objects/Instruments/hihat2.png",1,"left","left",0.476999998,1,1,0
"139",71,139,0.5,"stim/43.jpeg",4,3,1,NA,"HouseObjects",2,"stim/objects/HouseObjects/garbagebin.png",1,"right","right",0.602999926,1,1,0
"140",71,140,0.9,"stim/24.jpeg",2,4,3,NA,"Instruments",1,"stim/objects/Instruments/hihat2.png",2,"left","left",0.59800005,1,1,0
"141",71,141,0.9,"stim/21.jpeg",2,1,3,NA,"Instruments",1,"stim/objects/Instruments/guitarcase2.png",2,"left","left",0.518000126,1,1,0
"142",71,142,0.9,"stim/22.jpeg",2,2,3,NA,"Instruments",1,"stim/objects/Instruments/harmonica2.png",4,"left","left",0.609999895,1,1,0
"143",71,143,0.5,"stim/33.jpeg",3,3,1,NA,"Instruments",1,"stim/objects/Instruments/electricguitar.png",4,"left","right",0.611000061,0,0,0
"144",71,144,0.9,"stim/23.jpeg",2,3,3,NA,"Instruments",1,"stim/objects/Instruments/harp2.png",4,"left","left",0.545000076,1,1,0
"145",71,145,0.9,"stim/12.jpeg",1,2,3,NA,"HouseObjects",2,"stim/objects/HouseObjects/flyswatter2.png",3,"right","right",0.528999805,1,1,0
"146",71,146,0.3,"stim/61.jpeg",6,1,2,NA,"HouseObjects",2,"stim/objects/HouseObjects/coffee2.png",3,"right","left",0.575999975,0,0,0
"147",71,147,0.9,"stim/22.jpeg",2,2,3,NA,"Instruments",1,"stim/objects/Instruments/harmonica2.png",2,"left","left",0.652999878,1,1,0
"148",71,148,0.9,"stim/14.jpeg",1,4,3,NA,"HouseObjects",2,"stim/objects/HouseObjects/glass2.png",3,"right","right",0.60800004,1,1,0
"149",71,149,0.5,"stim/32.jpeg",3,2,1,NA,"HouseObjects",2,"stim/objects/HouseObjects/cushion.png",3,"right","right",0.744999886,1,1,0
"150",71,150,0.5,"stim/41.jpeg",4,1,1,NA,"HouseObjects",2,"stim/objects/HouseObjects/dustpan.png",1,"right","",NA,0,0,0
"151",71,151,0.9,"stim/14.jpeg",1,4,3,NA,"HouseObjects",2,"stim/objects/HouseObjects/glass2.png",1,"right","right",0.557999849,1,1,0
"152",71,152,0.5,"stim/43.jpeg",4,3,1,NA,"HouseObjects",2,"stim/objects/HouseObjects/garbagebin.png",4,"right","right",0.629999876,1,1,0
"153",71,153,0.9,"stim/22.jpeg",2,2,3,NA,"Instruments",1,"stim/objects/Instruments/harmonica2.png",3,"left","left",0.451999903,1,1,0
"154",71,154,0.3,"stim/54.jpeg",5,4,2,NA,"Instruments",1,"stim/objects/Instruments/hihat.png",1,"left","right",0.502000093,0,0,0
"155",71,155,0.7,"stim/52.jpeg",5,2,2,NA,"HouseObjects",2,"stim/objects/HouseObjects/hairdryer.png",2,"right","right",0.779999971,1,1,0
"156",71,156,0.9,"stim/23.jpeg",2,3,3,NA,"Instruments",1,"stim/objects/Instruments/harp2.png",4,"left","left",0.541999817,1,1,0
"157",71,157,0.9,"stim/11.jpeg",1,1,3,NA,"HouseObjects",2,"stim/objects/HouseObjects/dustpan2.png",4,"right","right",0.496000051,1,1,0
"158",71,158,0.9,"stim/12.jpeg",1,2,3,NA,"HouseObjects",2,"stim/objects/HouseObjects/flyswatter2.png",2,"right","right",0.519999981,1,1,0
"159",71,159,0.5,"stim/33.jpeg",3,3,1,NA,"HouseObjects",2,"stim/objects/HouseObjects/dishsoap.png",2,"right","left",0.694999933,0,0,0
"160",71,160,0.7,"stim/52.jpeg",5,2,2,NA,"HouseObjects",2,"stim/objects/HouseObjects/hairdryer.png",3,"right","right",0.575999975,1,1,0
"161",71,161,0.7,"stim/53.jpeg",5,3,2,NA,"HouseObjects",2,"stim/objects/HouseObjects/handbrush.png",2,"right","right",0.682999849,1,1,0
"162",71,162,0.7,"stim/54.jpeg",5,4,2,NA,"HouseObjects",2,"stim/objects/HouseObjects/handvacuum.png",1,"right","",NA,0,0,0
"163",71,163,0.3,"stim/64.jpeg",6,4,2,NA,"HouseObjects",2,"stim/objects/HouseObjects/doormat2.png",2,"right","right",0.617999792,1,1,0
"164",71,164,0.3,"stim/53.jpeg",5,3,2,NA,"Instruments",1,"stim/objects/Instruments/harp.png",1,"left","right",0.602999926,0,0,0
"165",71,165,0.7,"stim/62.jpeg",6,2,2,NA,"Instruments",1,"stim/objects/Instruments/electricdrumset2.png",3,"left","left",0.493999958,1,1,0
"166",71,166,0.5,"stim/42.jpeg",4,2,1,NA,"Instruments",1,"stim/objects/Instruments/frenchhorn.png",4,"left","right",0.529999971,0,0,0
"167",71,167,0.9,"stim/23.jpeg",2,3,3,NA,"Instruments",1,"stim/objects/Instruments/harp2.png",2,"left","left",0.509000063,1,1,0
"168",71,168,0.7,"stim/61.jpeg",6,1,2,NA,"Instruments",1,"stim/objects/Instruments/drums2.png",1,"left","left",0.475999832,1,1,0
"169",71,169,0.7,"stim/54.jpeg",5,4,2,NA,"HouseObjects",2,"stim/objects/HouseObjects/handvacuum.png",3,"right","right",0.596999884,1,1,0
"170",71,170,0.3,"stim/63.jpeg",6,3,2,NA,"HouseObjects",2,"stim/objects/HouseObjects/dishsoap2.png",2,"right","left",0.443999767,0,0,0
"171",71,171,0.5,"stim/44.jpeg",4,4,1,NA,"HouseObjects",2,"stim/objects/HouseObjects/glass.png",3,"right","left",0.473999977,0,0,0
"172",71,172,0.3,"stim/52.jpeg",5,2,2,NA,"Instruments",1,"stim/objects/Instruments/harmonica.png",2,"left","right",0.513999939,0,0,0
"173",71,173,0.9,"stim/11.jpeg",1,1,3,NA,"HouseObjects",2,"stim/objects/HouseObjects/dustpan2.png",4,"right","right",0.544999838,1,1,0
"174",71,174,0.5,"stim/33.jpeg",3,3,1,NA,"HouseObjects",2,"stim/objects/HouseObjects/dishsoap.png",3,"right","right",0.559000015,1,1,0
"175",71,175,0.9,"stim/22.jpeg",2,2,3,NA,"Instruments",1,"stim/objects/Instruments/harmonica2.png",3,"left","left",0.697000027,1,1,0
"176",71,176,0.9,"stim/13.jpeg",1,3,3,NA,"HouseObjects",2,"stim/objects/HouseObjects/garbagebin2.png",3,"right","right",0.518999815,1,1,0
"177",71,177,0.7,"stim/63.jpeg",6,3,2,NA,"Instruments",1,"stim/objects/Instruments/electricguitar2.png",2,"left","right",0.72300005,0,0,0
"178",71,178,0.3,"stim/63.jpeg",6,3,2,NA,"HouseObjects",2,"stim/objects/HouseObjects/dishsoap2.png",4,"right","left",0.600999832,0,0,0
"179",71,179,0.9,"stim/21.jpeg",2,1,3,NA,"Instruments",1,"stim/objects/Instruments/guitarcase2.png",1,"left","left",0.763999939,1,1,0
"180",71,180,0.5,"stim/31.jpeg",3,1,1,NA,"Instruments",1,"stim/objects/Instruments/drums.png",2,"left","right",0.813999891,0,0,0
"181",71,181,0.5,"stim/34.jpeg",3,4,1,NA,"HouseObjects",2,"stim/objects/HouseObjects/doormat.png",1,"right","right",0.901000023,1,1,0
"182",71,182,0.9,"stim/24.jpeg",2,4,3,NA,"Instruments",1,"stim/objects/Instruments/hihat2.png",1,"left","left",0.61899972,1,1,0
"183",71,183,0.3,"stim/61.jpeg",6,1,2,NA,"HouseObjects",2,"stim/objects/HouseObjects/coffee2.png",2,"right","left",0.731999874,0,0,0
"184",71,184,0.3,"stim/64.jpeg",6,4,2,NA,"HouseObjects",2,"stim/objects/HouseObjects/doormat2.png",4,"right","left",0.740999937,0,0,0
"185",71,185,0.9,"stim/22.jpeg",2,2,3,NA,"Instruments",1,"stim/objects/Instruments/harmonica2.png",1,"left","left",0.713999987,1,1,0
"186",71,186,0.9,"stim/23.jpeg",2,3,3,NA,"Instruments",1,"stim/objects/Instruments/harp2.png",1,"left","left",0.569999933,1,1,0
"187",71,187,0.5,"stim/32.jpeg",3,2,1,NA,"Instruments",1,"stim/objects/Instruments/electricdrumset.png",4,"left","right",0.664999962,0,0,0
"188",71,188,0.5,"stim/41.jpeg",4,1,1,NA,"Instruments",1,"stim/objects/Instruments/flutetrans.png",4,"left","right",0.710000038,0,0,0
"189",71,189,0.9,"stim/14.jpeg",1,4,3,NA,"HouseObjects",2,"stim/objects/HouseObjects/glass2.png",1,"right","right",0.671999931,1,1,0
"190",71,190,0.5,"stim/34.jpeg",3,4,1,NA,"Instruments",1,"stim/objects/Instruments/flute.png",3,"left","left",0.478999853,1,1,0
"191",71,191,0.7,"stim/62.jpeg",6,2,2,NA,"Instruments",1,"stim/objects/Instruments/electricdrumset2.png",4,"left","left",0.603999853,1,1,0
"192",71,192,0.5,"stim/31.jpeg",3,1,1,NA,"Instruments",1,"stim/objects/Instruments/drums.png",1,"left","right",0.686999798,0,0,0
"193",71,193,0.9,"stim/12.jpeg",1,2,3,NA,"HouseObjects",2,"stim/objects/HouseObjects/flyswatter2.png",4,"right","right",0.513999939,1,1,0
"194",71,194,0.5,"stim/34.jpeg",3,4,1,NA,"HouseObjects",2,"stim/objects/HouseObjects/doormat.png",1,"right","right",0.60199976,1,1,0
"195",71,195,0.5,"stim/33.jpeg",3,3,1,NA,"Instruments",1,"stim/objects/Instruments/electricguitar.png",3,"left","",NA,0,0,0
"196",71,196,0.7,"stim/64.jpeg",6,4,2,NA,"Instruments",1,"stim/objects/Instruments/flute2.png",1,"left","left",0.765999794,1,1,0
"197",71,197,0.7,"stim/54.jpeg",5,4,2,NA,"HouseObjects",2,"stim/objects/HouseObjects/handvacuum.png",2,"right","right",0.701999903,1,1,0
"198",71,198,0.9,"stim/23.jpeg",2,3,3,NA,"Instruments",1,"stim/objects/Instruments/harp2.png",3,"left","left",0.44900012,1,1,0
"199",71,199,0.5,"stim/31.jpeg",3,1,1,NA,"HouseObjects",2,"stim/objects/HouseObjects/coffee.png",4,"right","right",0.385999918,1,1,0
"200",71,200,0.1,"stim/24.jpeg",2,4,3,NA,"HouseObjects",2,"stim/objects/HouseObjects/handvacuum2.png",3,"right","left",0.480999947,0,0,0
"201",71,201,0.5,"stim/42.jpeg",4,2,1,NA,"HouseObjects",2,"stim/objects/HouseObjects/flyswatter.png",2,"right","right",0.618999958,1,1,0
"202",71,202,0.5,"stim/42.jpeg",4,2,1,NA,"HouseObjects",2,"stim/objects/HouseObjects/flyswatter.png",4,"right","right",0.432999849,1,1,0
"203",71,203,0.7,"stim/64.jpeg",6,4,2,NA,"Instruments",1,"stim/objects/Instruments/flute2.png",2,"left","left",0.525000095,1,1,0
"204",71,204,0.5,"stim/42.jpeg",4,2,1,NA,"Instruments",1,"stim/objects/Instruments/frenchhorn.png",4,"left","right",0.776000023,0,0,0
"205",71,205,0.5,"stim/44.jpeg",4,4,1,NA,"Instruments",1,"stim/objects/Instruments/grandpiano.png",4,"left","",NA,0,0,0
"206",71,206,0.9,"stim/11.jpeg",1,1,3,NA,"HouseObjects",2,"stim/objects/HouseObjects/dustpan2.png",4,"right","right",0.554999828,1,1,0
"207",71,207,0.5,"stim/41.jpeg",4,1,1,NA,"Instruments",1,"stim/objects/Instruments/flutetrans.png",2,"left","right",0.528999805,0,0,0
"208",71,208,0.5,"stim/43.jpeg",4,3,1,NA,"Instruments",1,"stim/objects/Instruments/gong.png",4,"left","right",0.661999941,0,0,0
"209",71,209,0.9,"stim/13.jpeg",1,3,3,NA,"HouseObjects",2,"stim/objects/HouseObjects/garbagebin2.png",2,"right","right",0.453999996,1,1,0
"210",71,210,0.7,"stim/63.jpeg",6,3,2,NA,"Instruments",1,"stim/objects/Instruments/electricguitar2.png",4,"left","right",0.427999735,0,0,0
"211",71,211,0.9,"stim/13.jpeg",1,3,3,NA,"HouseObjects",2,"stim/objects/HouseObjects/garbagebin2.png",4,"right","right",0.517999887,1,1,0
"212",71,212,0.5,"stim/43.jpeg",4,3,1,NA,"Instruments",1,"stim/objects/Instruments/gong.png",4,"left","right",0.444000006,0,0,0
"213",71,213,0.3,"stim/52.jpeg",5,2,2,NA,"Instruments",1,"stim/objects/Instruments/harmonica.png",1,"left","right",0.578999996,0,0,0
"214",71,214,0.5,"stim/43.jpeg",4,3,1,NA,"Instruments",1,"stim/objects/Instruments/gong.png",2,"left","left",0.631000042,1,1,0
"215",71,215,0.1,"stim/12.jpeg",1,2,3,NA,"Instruments",1,"stim/objects/Instruments/frenchhorn2.png",3,"left","right",0.530999899,0,0,0
"216",71,216,0.5,"stim/44.jpeg",4,4,1,NA,"HouseObjects",2,"stim/objects/HouseObjects/glass.png",4,"right","left",0.674000025,0,0,0
"217",71,217,0.5,"stim/31.jpeg",3,1,1,NA,"HouseObjects",2,"stim/objects/HouseObjects/coffee.png",1,"right","right",0.48699975,1,1,0
"218",71,218,0.5,"stim/44.jpeg",4,4,1,NA,"Instruments",1,"stim/objects/Instruments/grandpiano.png",2,"left","left",0.523000002,1,1,0
"219",71,219,0.9,"stim/11.jpeg",1,1,3,NA,"HouseObjects",2,"stim/objects/HouseObjects/dustpan2.png",3,"right","right",0.470999956,1,1,0
"220",71,220,0.5,"stim/31.jpeg",3,1,1,NA,"HouseObjects",2,"stim/objects/HouseObjects/coffee.png",3,"right","left",0.53399992,0,0,0
"221",71,221,0.5,"stim/33.jpeg",3,3,1,NA,"Instruments",1,"stim/objects/Instruments/electricguitar.png",1,"left","right",0.539000034,0,0,0
"222",71,222,0.7,"stim/51.jpeg",5,1,2,NA,"HouseObjects",2,"stim/objects/HouseObjects/glassmop.png",4,"right","right",0.610999823,1,1,0
"223",71,223,0.7,"stim/53.jpeg",5,3,2,NA,"HouseObjects",2,"stim/objects/HouseObjects/handbrush.png",2,"right","right",0.476999998,1,1,0
"224",71,224,0.5,"stim/33.jpeg",3,3,1,NA,"HouseObjects",2,"stim/objects/HouseObjects/dishsoap.png",4,"right","left",0.606999874,0,0,0
"225",71,225,0.5,"stim/42.jpeg",4,2,1,NA,"Instruments",1,"stim/objects/Instruments/frenchhorn.png",3,"left","right",0.571000099,0,0,0
"226",71,226,0.7,"stim/51.jpeg",5,1,2,NA,"HouseObjects",2,"stim/objects/HouseObjects/glassmop.png",2,"right","right",0.529999971,1,1,0
"227",71,227,0.9,"stim/14.jpeg",1,4,3,NA,"HouseObjects",2,"stim/objects/HouseObjects/glass2.png",2,"right","right",0.564999819,1,1,0
"228",71,228,0.9,"stim/11.jpeg",1,1,3,NA,"HouseObjects",2,"stim/objects/HouseObjects/dustpan2.png",3,"right","left",0.522999763,0,0,0
"229",71,229,0.3,"stim/51.jpeg",5,1,2,NA,"Instruments",1,"stim/objects/Instruments/guitarcase.png",1,"left","right",0.467000008,0,0,0
"230",71,230,0.5,"stim/34.jpeg",3,4,1,NA,"Instruments",1,"stim/objects/Instruments/flute.png",2,"left","right",0.389999866,0,0,0
"231",71,231,0.9,"stim/11.jpeg",1,1,3,NA,"HouseObjects",2,"stim/objects/HouseObjects/dustpan2.png",2,"right","right",0.546999931,1,1,0
"232",71,232,0.5,"stim/33.jpeg",3,3,1,NA,"Instruments",1,"stim/objects/Instruments/electricguitar.png",4,"left","left",0.697999716,1,1,0
"233",71,233,0.5,"stim/33.jpeg",3,3,1,NA,"HouseObjects",2,"stim/objects/HouseObjects/dishsoap.png",3,"right","left",0.562999725,0,0,0
"234",71,234,0.7,"stim/51.jpeg",5,1,2,NA,"HouseObjects",2,"stim/objects/HouseObjects/glassmop.png",1,"right","right",0.626999855,1,1,0
"235",71,235,0.7,"stim/54.jpeg",5,4,2,NA,"HouseObjects",2,"stim/objects/HouseObjects/handvacuum.png",4,"right","right",0.509000063,1,1,0
"236",71,236,0.5,"stim/41.jpeg",4,1,1,NA,"Instruments",1,"stim/objects/Instruments/flutetrans.png",1,"left","right",0.626999855,0,0,0
"237",71,237,0.9,"stim/23.jpeg",2,3,3,NA,"Instruments",1,"stim/objects/Instruments/harp2.png",4,"left","left",0.592999935,1,1,0
"238",71,238,0.7,"stim/64.jpeg",6,4,2,NA,"Instruments",1,"stim/objects/Instruments/flute2.png",3,"left","left",0.726000071,1,1,0
"239",71,239,0.5,"stim/44.jpeg",4,4,1,NA,"Instruments",1,"stim/objects/Instruments/grandpiano.png",2,"left","right",0.544999838,0,0,0
"240",71,240,0.7,"stim/61.jpeg",6,1,2,NA,"Instruments",1,"stim/objects/Instruments/drums2.png",4,"left","left",0.513999939,1,1,0
