"","obj_file","X.x","participant.x","trialN.x","trial_cond","scn_file.x","scn_cat","scn_inst","scn_condition","fillers","obj_cat","obj_cat_num","quadrant","corr_ans","key_resp_trial.keys","key_resp_trial.rt","trial_acc","trial_acc_manual","group.x","practice","X.y","participant.y","OvsN","PE_level","object_cat","scn_file.y","corr_scn_cat","corr_scn_inst","scn_file.1","corr_loc","key_resp_id.keys","key_resp_id.rt","key_resp_conf.keys","key_resp_assoc.keys","key_resp_assoc.rt","key_resp_loc.keys","key_resp_loc.rt","trialN.y","id_acc","assoc.acc","cond_assoc","loc.acc","cond_loc","group.y"
"220","stim/objects/Instruments/trumpet2.png",1,8,1,0.9,"stim/63.jpeg",6,3,3,NA,"Instruments",1,3,"left","",NA,0,0,1,1,NA,NA,NA,NA,NA,NA,NA,NA,NA,NA,NA,NA,NA,NA,NA,NA,NA,NA,NA,NA,NA,NA,NA,NA
"133","stim/objects/Instruments/pipepiano.png",2,8,2,0.5,"stim/12.jpeg",1,2,1,NA,"Instruments",1,2,"left","left",0.848000288,1,1,1,1,NA,NA,NA,NA,NA,NA,NA,NA,NA,NA,NA,NA,NA,NA,NA,NA,NA,NA,NA,NA,NA,NA,NA,NA
"169","stim/objects/Instruments/saxophone.png",3,8,3,0.5,"stim/21.jpeg",2,1,1,NA,"Instruments",1,4,"left","left",0.695000172,1,1,1,1,NA,NA,NA,NA,NA,NA,NA,NA,NA,NA,NA,NA,NA,NA,NA,NA,NA,NA,NA,NA,NA,NA,NA,NA
"105","stim/objects/HouseObjects/thermometer.png",4,8,4,0.7,"stim/33.jpeg",3,3,2,NA,"HouseObjects",2,2,"right","right",0.475000143,1,1,1,1,NA,NA,NA,NA,NA,NA,NA,NA,NA,NA,NA,NA,NA,NA,NA,NA,NA,NA,NA,NA,NA,NA,NA,NA
"229","stim/objects/Instruments/tuba.png",5,8,5,0.3,"stim/34.jpeg",3,4,2,NA,"Instruments",1,3,"left","left",0.77300024,1,1,1,1,NA,NA,NA,NA,NA,NA,NA,NA,NA,NA,NA,NA,NA,NA,NA,NA,NA,NA,NA,NA,NA,NA,NA,NA
"181","stim/objects/Instruments/tambourine.png",6,8,6,0.5,"stim/23.jpeg",2,3,1,NA,"Instruments",1,4,"left","left",0.832000256,1,1,1,1,NA,NA,NA,NA,NA,NA,NA,NA,NA,NA,NA,NA,NA,NA,NA,NA,NA,NA,NA,NA,NA,NA,NA,NA
"17","stim/objects/HouseObjects/rubbergloves.png",7,8,7,0.5,"stim/13.jpeg",1,3,1,NA,"HouseObjects",2,2,"right","left",0.837000132,0,0,1,1,NA,NA,NA,NA,NA,NA,NA,NA,NA,NA,NA,NA,NA,NA,NA,NA,NA,NA,NA,NA,NA,NA,NA,NA
"138","stim/objects/Instruments/pipepiano2.png",8,8,8,0.7,"stim/42.jpeg",4,2,2,NA,"Instruments",1,4,"left","",NA,0,0,1,1,NA,NA,NA,NA,NA,NA,NA,NA,NA,NA,NA,NA,NA,NA,NA,NA,NA,NA,NA,NA,NA,NA,NA,NA
"47","stim/objects/HouseObjects/saw.png",9,8,9,0.5,"stim/22.jpeg",2,2,1,NA,"HouseObjects",2,2,"right","left",0.761000156,0,0,1,1,NA,NA,NA,NA,NA,NA,NA,NA,NA,NA,NA,NA,NA,NA,NA,NA,NA,NA,NA,NA,NA,NA,NA,NA
"175","stim/objects/Instruments/speaker.png",10,8,10,0.5,"stim/22.jpeg",2,2,1,NA,"Instruments",1,3,"left","",NA,0,0,1,1,NA,NA,NA,NA,NA,NA,NA,NA,NA,NA,NA,NA,NA,NA,NA,NA,NA,NA,NA,NA,NA,NA,NA,NA
"9","stim/objects/HouseObjects/remote.png",11,8,11,0.5,"stim/12.jpeg",1,2,1,NA,"HouseObjects",2,1,"right","left",0.703999996,0,0,1,1,NA,NA,NA,NA,NA,NA,NA,NA,NA,NA,NA,NA,NA,NA,NA,NA,NA,NA,NA,NA,NA,NA,NA,NA
"6","stim/objects/HouseObjects/recyclingbin2.png",12,8,12,0.3,"stim/41.jpeg",4,1,2,NA,"HouseObjects",2,3,"right","",NA,0,0,1,1,NA,NA,NA,NA,NA,NA,NA,NA,NA,NA,NA,NA,NA,NA,NA,NA,NA,NA,NA,NA,NA,NA,NA,NA
"10","stim/objects/HouseObjects/remote.png",13,8,13,0.5,"stim/12.jpeg",1,2,1,NA,"HouseObjects",2,2,"right","right",0.680000067,1,1,1,1,NA,NA,NA,NA,NA,NA,NA,NA,NA,NA,NA,NA,NA,NA,NA,NA,NA,NA,NA,NA,NA,NA,NA,NA
"113","stim/objects/HouseObjects/thread.png",14,8,14,0.7,"stim/34.jpeg",3,4,2,NA,"HouseObjects",2,4,"right","left",0.652000189,0,0,1,1,NA,NA,NA,NA,NA,NA,NA,NA,NA,NA,NA,NA,NA,NA,NA,NA,NA,NA,NA,NA,NA,NA,NA,NA
"170","stim/objects/Instruments/saxophone.png",15,8,15,0.5,"stim/21.jpeg",2,1,1,NA,"Instruments",1,4,"left","",NA,0,0,1,1,NA,NA,NA,NA,NA,NA,NA,NA,NA,NA,NA,NA,NA,NA,NA,NA,NA,NA,NA,NA,NA,NA,NA,NA
"150","stim/objects/Instruments/record_player2.png",16,8,16,0.7,"stim/44.jpeg",4,4,2,NA,"Instruments",1,1,"left","",NA,0,0,1,1,NA,NA,NA,NA,NA,NA,NA,NA,NA,NA,NA,NA,NA,NA,NA,NA,NA,NA,NA,NA,NA,NA,NA,NA
"89","stim/objects/HouseObjects/spraybottle.png",17,8,17,0.7,"stim/31.jpeg",3,1,2,NA,"HouseObjects",2,4,"right","left",0.480000019,0,0,1,1,NA,NA,NA,NA,NA,NA,NA,NA,NA,NA,NA,NA,NA,NA,NA,NA,NA,NA,NA,NA,NA,NA,NA,NA
"151","stim/objects/Instruments/record_player2.png",18,8,18,0.7,"stim/44.jpeg",4,4,2,NA,"Instruments",1,1,"left","left",0.562000275,1,1,1,1,NA,NA,NA,NA,NA,NA,NA,NA,NA,NA,NA,NA,NA,NA,NA,NA,NA,NA,NA,NA,NA,NA,NA,NA
"1","stim/objects/HouseObjects/recyclingbin.png",19,8,19,0.5,"stim/11.jpeg",1,1,1,NA,"HouseObjects",2,1,"right","right",0.48900032,1,1,1,1,NA,NA,NA,NA,NA,NA,NA,NA,NA,NA,NA,NA,NA,NA,NA,NA,NA,NA,NA,NA,NA,NA,NA,NA
"187","stim/objects/Instruments/timbal.png",20,8,20,0.5,"stim/24.jpeg",2,4,1,NA,"Instruments",1,3,"left","left",0.475000143,1,1,1,1,NA,NA,NA,NA,NA,NA,NA,NA,NA,NA,NA,NA,NA,NA,NA,NA,NA,NA,NA,NA,NA,NA,NA,NA
"66","stim/objects/HouseObjects/scale2.png",21,8,21,0.9,"stim/53.jpeg",5,3,3,NA,"HouseObjects",2,1,"right","left",0.514000177,0,0,1,1,NA,NA,NA,NA,NA,NA,NA,NA,NA,NA,NA,NA,NA,NA,NA,NA,NA,NA,NA,NA,NA,NA,NA,NA
"75","stim/objects/HouseObjects/sponge.png",22,8,22,0.5,"stim/24.jpeg",2,4,1,NA,"HouseObjects",2,1,"right","left",0.586000204,0,0,1,1,NA,NA,NA,NA,NA,NA,NA,NA,NA,NA,NA,NA,NA,NA,NA,NA,NA,NA,NA,NA,NA,NA,NA,NA
"114","stim/objects/HouseObjects/thread.png",23,8,23,0.7,"stim/34.jpeg",3,4,2,NA,"HouseObjects",2,3,"right","left",0.567000151,0,0,1,1,NA,NA,NA,NA,NA,NA,NA,NA,NA,NA,NA,NA,NA,NA,NA,NA,NA,NA,NA,NA,NA,NA,NA,NA
"38","stim/objects/HouseObjects/safetypin2.png",24,8,24,0.9,"stim/51.jpeg",5,1,3,NA,"HouseObjects",2,4,"right","right",0.543000221,1,1,1,1,NA,NA,NA,NA,NA,NA,NA,NA,NA,NA,NA,NA,NA,NA,NA,NA,NA,NA,NA,NA,NA,NA,NA,NA
"52","stim/objects/HouseObjects/saw2.png",25,8,25,0.9,"stim/52.jpeg",5,2,3,NA,"HouseObjects",2,4,"right","right",0.491000175,1,1,1,1,NA,NA,NA,NA,NA,NA,NA,NA,NA,NA,NA,NA,NA,NA,NA,NA,NA,NA,NA,NA,NA,NA,NA,NA
"196","stim/objects/Instruments/triangle2.png",26,8,26,0.9,"stim/61.jpeg",6,1,3,NA,"Instruments",1,2,"left","left",0.539999962,1,1,1,1,NA,NA,NA,NA,NA,NA,NA,NA,NA,NA,NA,NA,NA,NA,NA,NA,NA,NA,NA,NA,NA,NA,NA,NA
"80","stim/objects/HouseObjects/sponge2.png",27,8,27,0.9,"stim/54.jpeg",5,4,3,NA,"HouseObjects",2,2,"right","right",0.522000313,1,1,1,1,NA,NA,NA,NA,NA,NA,NA,NA,NA,NA,NA,NA,NA,NA,NA,NA,NA,NA,NA,NA,NA,NA,NA,NA
"97","stim/objects/HouseObjects/teapot.png",28,8,28,0.7,"stim/32.jpeg",3,2,2,NA,"HouseObjects",2,4,"right","left",0.496000051,0,0,1,1,NA,NA,NA,NA,NA,NA,NA,NA,NA,NA,NA,NA,NA,NA,NA,NA,NA,NA,NA,NA,NA,NA,NA,NA
"162","stim/objects/Instruments/record2.png",29,8,29,0.7,"stim/43.jpeg",4,3,2,NA,"Instruments",1,1,"left","right",0.443000078,0,0,1,1,NA,NA,NA,NA,NA,NA,NA,NA,NA,NA,NA,NA,NA,NA,NA,NA,NA,NA,NA,NA,NA,NA,NA,NA
"157","stim/objects/Instruments/record.png",30,8,30,0.5,"stim/13.jpeg",1,3,1,NA,"Instruments",1,1,"left","left",0.635000229,1,1,1,1,NA,NA,NA,NA,NA,NA,NA,NA,NA,NA,NA,NA,NA,NA,NA,NA,NA,NA,NA,NA,NA,NA,NA,NA
"115","stim/objects/HouseObjects/thread.png",31,8,31,0.7,"stim/34.jpeg",3,4,2,NA,"HouseObjects",2,2,"right","left",0.56400013,0,0,1,1,NA,NA,NA,NA,NA,NA,NA,NA,NA,NA,NA,NA,NA,NA,NA,NA,NA,NA,NA,NA,NA,NA,NA,NA
"186","stim/objects/Instruments/tambourine2.png",32,8,32,0.1,"stim/53.jpeg",5,3,3,NA,"Instruments",1,4,"left","left",0.666000128,1,1,1,1,NA,NA,NA,NA,NA,NA,NA,NA,NA,NA,NA,NA,NA,NA,NA,NA,NA,NA,NA,NA,NA,NA,NA,NA
"208","stim/objects/Instruments/trombone2.png",33,8,33,0.9,"stim/62.jpeg",6,2,3,NA,"Instruments",1,4,"left","right",0.467000246,0,0,1,1,NA,NA,NA,NA,NA,NA,NA,NA,NA,NA,NA,NA,NA,NA,NA,NA,NA,NA,NA,NA,NA,NA,NA,NA
"18","stim/objects/HouseObjects/rubbergloves.png",34,8,34,0.5,"stim/13.jpeg",1,3,1,NA,"HouseObjects",2,4,"right","left",0.585000038,0,0,1,1,NA,NA,NA,NA,NA,NA,NA,NA,NA,NA,NA,NA,NA,NA,NA,NA,NA,NA,NA,NA,NA,NA,NA,NA
"221","stim/objects/Instruments/trumpet2.png",35,8,35,0.9,"stim/63.jpeg",6,3,3,NA,"Instruments",1,4,"left","left",0.539999962,1,1,1,1,NA,NA,NA,NA,NA,NA,NA,NA,NA,NA,NA,NA,NA,NA,NA,NA,NA,NA,NA,NA,NA,NA,NA,NA
"209","stim/objects/Instruments/trombone2.png",36,8,36,0.9,"stim/62.jpeg",6,2,3,NA,"Instruments",1,1,"left","left",0.555000305,1,1,1,1,NA,NA,NA,NA,NA,NA,NA,NA,NA,NA,NA,NA,NA,NA,NA,NA,NA,NA,NA,NA,NA,NA,NA,NA
"121","stim/objects/Instruments/panflute.png",37,8,37,0.5,"stim/11.jpeg",1,1,1,NA,"Instruments",1,2,"left","right",0.612000227,0,0,1,1,NA,NA,NA,NA,NA,NA,NA,NA,NA,NA,NA,NA,NA,NA,NA,NA,NA,NA,NA,NA,NA,NA,NA,NA
"158","stim/objects/Instruments/record.png",38,8,38,0.5,"stim/13.jpeg",1,3,1,NA,"Instruments",1,3,"left","left",0.583000183,1,1,1,1,NA,NA,NA,NA,NA,NA,NA,NA,NA,NA,NA,NA,NA,NA,NA,NA,NA,NA,NA,NA,NA,NA,NA,NA
"171","stim/objects/Instruments/saxophone.png",39,8,39,0.5,"stim/21.jpeg",2,1,1,NA,"Instruments",1,3,"left","left",0.610000134,1,1,1,1,NA,NA,NA,NA,NA,NA,NA,NA,NA,NA,NA,NA,NA,NA,NA,NA,NA,NA,NA,NA,NA,NA,NA,NA
"106","stim/objects/HouseObjects/thermometer.png",40,8,40,0.7,"stim/33.jpeg",3,3,2,NA,"HouseObjects",2,1,"right","left",0.717000246,0,0,1,1,NA,NA,NA,NA,NA,NA,NA,NA,NA,NA,NA,NA,NA,NA,NA,NA,NA,NA,NA,NA,NA,NA,NA,NA
"193","stim/objects/Instruments/triangle.png",41,8,41,0.3,"stim/31.jpeg",3,1,2,NA,"Instruments",1,2,"left","",NA,0,0,1,1,NA,NA,NA,NA,NA,NA,NA,NA,NA,NA,NA,NA,NA,NA,NA,NA,NA,NA,NA,NA,NA,NA,NA,NA
"104","stim/objects/HouseObjects/teapot2.png",42,8,42,0.1,"stim/62.jpeg",6,2,3,NA,"HouseObjects",2,1,"right","left",0.592000246,0,0,1,1,NA,NA,NA,NA,NA,NA,NA,NA,NA,NA,NA,NA,NA,NA,NA,NA,NA,NA,NA,NA,NA,NA,NA,NA
"232","stim/objects/Instruments/tuba2.png",43,8,43,0.9,"stim/64.jpeg",6,4,3,NA,"Instruments",1,4,"left","left",0.639000177,1,1,1,1,NA,NA,NA,NA,NA,NA,NA,NA,NA,NA,NA,NA,NA,NA,NA,NA,NA,NA,NA,NA,NA,NA,NA,NA
"210","stim/objects/Instruments/trombone2.png",44,8,44,0.9,"stim/62.jpeg",6,2,3,NA,"Instruments",1,4,"left","left",0.548000336,1,1,1,1,NA,NA,NA,NA,NA,NA,NA,NA,NA,NA,NA,NA,NA,NA,NA,NA,NA,NA,NA,NA,NA,NA,NA,NA
"48","stim/objects/HouseObjects/saw.png",45,8,45,0.5,"stim/22.jpeg",2,2,1,NA,"HouseObjects",2,1,"right","left",0.563000202,0,0,1,1,NA,NA,NA,NA,NA,NA,NA,NA,NA,NA,NA,NA,NA,NA,NA,NA,NA,NA,NA,NA,NA,NA,NA,NA
"76","stim/objects/HouseObjects/sponge.png",46,8,46,0.5,"stim/24.jpeg",2,4,1,NA,"HouseObjects",2,2,"right","left",0.535000086,0,0,1,1,NA,NA,NA,NA,NA,NA,NA,NA,NA,NA,NA,NA,NA,NA,NA,NA,NA,NA,NA,NA,NA,NA,NA,NA
"188","stim/objects/Instruments/timbal.png",47,8,47,0.5,"stim/24.jpeg",2,4,1,NA,"Instruments",1,3,"left","left",0.617000103,1,1,1,1,NA,NA,NA,NA,NA,NA,NA,NA,NA,NA,NA,NA,NA,NA,NA,NA,NA,NA,NA,NA,NA,NA,NA,NA
"67","stim/objects/HouseObjects/scale2.png",48,8,48,0.9,"stim/53.jpeg",5,3,3,NA,"HouseObjects",2,2,"right","right",0.714000225,1,1,1,1,NA,NA,NA,NA,NA,NA,NA,NA,NA,NA,NA,NA,NA,NA,NA,NA,NA,NA,NA,NA,NA,NA,NA,NA
"217","stim/objects/Instruments/trumpet.png",49,8,49,0.3,"stim/33.jpeg",3,3,2,NA,"Instruments",1,3,"left","right",0.582000017,0,0,1,1,NA,NA,NA,NA,NA,NA,NA,NA,NA,NA,NA,NA,NA,NA,NA,NA,NA,NA,NA,NA,NA,NA,NA,NA
"211","stim/objects/Instruments/trombone2.png",50,8,50,0.9,"stim/62.jpeg",6,2,3,NA,"Instruments",1,1,"left","left",0.519999981,1,1,1,1,NA,NA,NA,NA,NA,NA,NA,NA,NA,NA,NA,NA,NA,NA,NA,NA,NA,NA,NA,NA,NA,NA,NA,NA
"233","stim/objects/Instruments/tuba2.png",51,8,51,0.9,"stim/64.jpeg",6,4,3,NA,"Instruments",1,3,"left","left",0.559000015,1,1,1,1,NA,NA,NA,NA,NA,NA,NA,NA,NA,NA,NA,NA,NA,NA,NA,NA,NA,NA,NA,NA,NA,NA,NA,NA
"81","stim/objects/HouseObjects/sponge2.png",52,8,52,0.9,"stim/54.jpeg",5,4,3,NA,"HouseObjects",2,3,"right","right",0.572000027,1,1,1,1,NA,NA,NA,NA,NA,NA,NA,NA,NA,NA,NA,NA,NA,NA,NA,NA,NA,NA,NA,NA,NA,NA,NA,NA
"25","stim/objects/HouseObjects/rug.png",53,8,53,0.5,"stim/14.jpeg",1,4,1,NA,"HouseObjects",2,2,"right","left",0.508000374,0,0,1,1,NA,NA,NA,NA,NA,NA,NA,NA,NA,NA,NA,NA,NA,NA,NA,NA,NA,NA,NA,NA,NA,NA,NA,NA
"194","stim/objects/Instruments/triangle.png",54,8,54,0.3,"stim/31.jpeg",3,1,2,NA,"Instruments",1,2,"left","right",0.713000059,0,0,1,1,NA,NA,NA,NA,NA,NA,NA,NA,NA,NA,NA,NA,NA,NA,NA,NA,NA,NA,NA,NA,NA,NA,NA,NA
"152","stim/objects/Instruments/record_player2.png",55,8,55,0.7,"stim/44.jpeg",4,4,2,NA,"Instruments",1,2,"left","left",0.627000093,1,1,1,1,NA,NA,NA,NA,NA,NA,NA,NA,NA,NA,NA,NA,NA,NA,NA,NA,NA,NA,NA,NA,NA,NA,NA,NA
"33","stim/objects/HouseObjects/safetypin.png",56,8,56,0.5,"stim/21.jpeg",2,1,1,NA,"HouseObjects",2,4,"right","left",0.505000114,0,0,1,1,NA,NA,NA,NA,NA,NA,NA,NA,NA,NA,NA,NA,NA,NA,NA,NA,NA,NA,NA,NA,NA,NA,NA,NA
"14","stim/objects/HouseObjects/remote2.png",57,8,57,0.3,"stim/42.jpeg",4,2,2,NA,"HouseObjects",2,2,"right","right",0.457000017,1,1,1,1,NA,NA,NA,NA,NA,NA,NA,NA,NA,NA,NA,NA,NA,NA,NA,NA,NA,NA,NA,NA,NA,NA,NA,NA
"90","stim/objects/HouseObjects/spraybottle.png",58,8,58,0.7,"stim/31.jpeg",3,1,2,NA,"HouseObjects",2,2,"right","left",0.593000174,0,0,1,1,NA,NA,NA,NA,NA,NA,NA,NA,NA,NA,NA,NA,NA,NA,NA,NA,NA,NA,NA,NA,NA,NA,NA,NA
"126","stim/objects/Instruments/panflute2.png",59,8,59,0.7,"stim/41.jpeg",4,1,2,NA,"Instruments",1,2,"left","left",0.616000175,1,1,1,1,NA,NA,NA,NA,NA,NA,NA,NA,NA,NA,NA,NA,NA,NA,NA,NA,NA,NA,NA,NA,NA,NA,NA,NA
"61","stim/objects/HouseObjects/scale.png",60,8,60,0.5,"stim/23.jpeg",2,3,1,NA,"HouseObjects",2,2,"right","",NA,0,0,1,1,NA,NA,NA,NA,NA,NA,NA,NA,NA,NA,NA,NA,NA,NA,NA,NA,NA,NA,NA,NA,NA,NA,NA,NA
"222","stim/objects/Instruments/trumpet2.png",61,8,61,0.9,"stim/63.jpeg",6,3,3,NA,"Instruments",1,4,"left","left",0.497000217,1,1,1,1,NA,NA,NA,NA,NA,NA,NA,NA,NA,NA,NA,NA,NA,NA,NA,NA,NA,NA,NA,NA,NA,NA,NA,NA
"39","stim/objects/HouseObjects/safetypin2.png",62,8,62,0.9,"stim/51.jpeg",5,1,3,NA,"HouseObjects",2,3,"right","right",0.562000275,1,1,1,1,NA,NA,NA,NA,NA,NA,NA,NA,NA,NA,NA,NA,NA,NA,NA,NA,NA,NA,NA,NA,NA,NA,NA,NA
"172","stim/objects/Instruments/saxophone.png",63,8,63,0.5,"stim/21.jpeg",2,1,1,NA,"Instruments",1,2,"left","left",0.463000298,1,1,1,1,NA,NA,NA,NA,NA,NA,NA,NA,NA,NA,NA,NA,NA,NA,NA,NA,NA,NA,NA,NA,NA,NA,NA,NA
"212","stim/objects/Instruments/trombone2.png",64,8,64,0.9,"stim/62.jpeg",6,2,3,NA,"Instruments",1,1,"left","left",0.613000154,1,1,1,1,NA,NA,NA,NA,NA,NA,NA,NA,NA,NA,NA,NA,NA,NA,NA,NA,NA,NA,NA,NA,NA,NA,NA,NA
"205","stim/objects/Instruments/trombone.png",65,8,65,0.3,"stim/32.jpeg",3,2,2,NA,"Instruments",1,2,"left","right",0.532999992,0,0,1,1,NA,NA,NA,NA,NA,NA,NA,NA,NA,NA,NA,NA,NA,NA,NA,NA,NA,NA,NA,NA,NA,NA,NA,NA
"223","stim/objects/Instruments/trumpet2.png",66,8,66,0.9,"stim/63.jpeg",6,3,3,NA,"Instruments",1,2,"left","left",0.580000162,1,1,1,1,NA,NA,NA,NA,NA,NA,NA,NA,NA,NA,NA,NA,NA,NA,NA,NA,NA,NA,NA,NA,NA,NA,NA,NA
"96","stim/objects/HouseObjects/spraybottle2.png",67,8,67,0.1,"stim/61.jpeg",6,1,3,NA,"HouseObjects",2,2,"right","left",0.575000048,0,0,1,1,NA,NA,NA,NA,NA,NA,NA,NA,NA,NA,NA,NA,NA,NA,NA,NA,NA,NA,NA,NA,NA,NA,NA,NA
"163","stim/objects/Instruments/record2.png",68,8,68,0.7,"stim/43.jpeg",4,3,2,NA,"Instruments",1,2,"left","left",0.546000242,1,1,1,1,NA,NA,NA,NA,NA,NA,NA,NA,NA,NA,NA,NA,NA,NA,NA,NA,NA,NA,NA,NA,NA,NA,NA,NA
"62","stim/objects/HouseObjects/scale.png",69,8,69,0.5,"stim/23.jpeg",2,3,1,NA,"HouseObjects",2,4,"right","right",0.745000124,1,1,1,1,NA,NA,NA,NA,NA,NA,NA,NA,NA,NA,NA,NA,NA,NA,NA,NA,NA,NA,NA,NA,NA,NA,NA,NA
"206","stim/objects/Instruments/trombone.png",70,8,70,0.3,"stim/32.jpeg",3,2,2,NA,"Instruments",1,3,"left","right",0.781000137,0,0,1,1,NA,NA,NA,NA,NA,NA,NA,NA,NA,NA,NA,NA,NA,NA,NA,NA,NA,NA,NA,NA,NA,NA,NA,NA
"19","stim/objects/HouseObjects/rubbergloves.png",71,8,71,0.5,"stim/13.jpeg",1,3,1,NA,"HouseObjects",2,3,"right","left",0.666000128,0,0,1,1,NA,NA,NA,NA,NA,NA,NA,NA,NA,NA,NA,NA,NA,NA,NA,NA,NA,NA,NA,NA,NA,NA,NA,NA
"116","stim/objects/HouseObjects/thread.png",72,8,72,0.7,"stim/34.jpeg",3,4,2,NA,"HouseObjects",2,4,"right","left",0.726000071,0,0,1,1,NA,NA,NA,NA,NA,NA,NA,NA,NA,NA,NA,NA,NA,NA,NA,NA,NA,NA,NA,NA,NA,NA,NA,NA
"53","stim/objects/HouseObjects/saw2.png",73,8,73,0.9,"stim/52.jpeg",5,2,3,NA,"HouseObjects",2,2,"right","right",0.614000082,1,1,1,1,NA,NA,NA,NA,NA,NA,NA,NA,NA,NA,NA,NA,NA,NA,NA,NA,NA,NA,NA,NA,NA,NA,NA,NA
"91","stim/objects/HouseObjects/spraybottle.png",74,8,74,0.7,"stim/31.jpeg",3,1,2,NA,"HouseObjects",2,4,"right","left",0.559999943,0,0,1,1,NA,NA,NA,NA,NA,NA,NA,NA,NA,NA,NA,NA,NA,NA,NA,NA,NA,NA,NA,NA,NA,NA,NA,NA
"92","stim/objects/HouseObjects/spraybottle.png",75,8,75,0.7,"stim/31.jpeg",3,1,2,NA,"HouseObjects",2,1,"right","right",0.734000206,1,1,1,1,NA,NA,NA,NA,NA,NA,NA,NA,NA,NA,NA,NA,NA,NA,NA,NA,NA,NA,NA,NA,NA,NA,NA,NA
"40","stim/objects/HouseObjects/safetypin2.png",76,8,76,0.9,"stim/51.jpeg",5,1,3,NA,"HouseObjects",2,2,"right","right",0.684000015,1,1,1,1,NA,NA,NA,NA,NA,NA,NA,NA,NA,NA,NA,NA,NA,NA,NA,NA,NA,NA,NA,NA,NA,NA,NA,NA
"63","stim/objects/HouseObjects/scale.png",77,8,77,0.5,"stim/23.jpeg",2,3,1,NA,"HouseObjects",2,3,"right","left",0.563000202,0,0,1,1,NA,NA,NA,NA,NA,NA,NA,NA,NA,NA,NA,NA,NA,NA,NA,NA,NA,NA,NA,NA,NA,NA,NA,NA
"164","stim/objects/Instruments/record2.png",78,8,78,0.7,"stim/43.jpeg",4,3,2,NA,"Instruments",1,3,"left","left",0.650000334,1,1,1,1,NA,NA,NA,NA,NA,NA,NA,NA,NA,NA,NA,NA,NA,NA,NA,NA,NA,NA,NA,NA,NA,NA,NA,NA
"68","stim/objects/HouseObjects/scale2.png",79,8,79,0.9,"stim/53.jpeg",5,3,3,NA,"HouseObjects",2,1,"right","right",0.589000225,1,1,1,1,NA,NA,NA,NA,NA,NA,NA,NA,NA,NA,NA,NA,NA,NA,NA,NA,NA,NA,NA,NA,NA,NA,NA,NA
"77","stim/objects/HouseObjects/sponge.png",80,8,80,0.5,"stim/24.jpeg",2,4,1,NA,"HouseObjects",2,2,"right","left",0.482000113,0,0,1,1,NA,NA,NA,NA,NA,NA,NA,NA,NA,NA,NA,NA,NA,NA,NA,NA,NA,NA,NA,NA,NA,NA,NA,NA
"224","stim/objects/Instruments/trumpet2.png",81,8,81,0.9,"stim/63.jpeg",6,3,3,NA,"Instruments",1,3,"left","left",0.589000225,1,1,1,1,NA,NA,NA,NA,NA,NA,NA,NA,NA,NA,NA,NA,NA,NA,NA,NA,NA,NA,NA,NA,NA,NA,NA,NA
"197","stim/objects/Instruments/triangle2.png",82,8,82,0.9,"stim/61.jpeg",6,1,3,NA,"Instruments",1,3,"left","left",0.579000235,1,1,1,1,NA,NA,NA,NA,NA,NA,NA,NA,NA,NA,NA,NA,NA,NA,NA,NA,NA,NA,NA,NA,NA,NA,NA,NA
"234","stim/objects/Instruments/tuba2.png",83,8,83,0.9,"stim/64.jpeg",6,4,3,NA,"Instruments",1,3,"left","left",0.519999981,1,1,1,1,NA,NA,NA,NA,NA,NA,NA,NA,NA,NA,NA,NA,NA,NA,NA,NA,NA,NA,NA,NA,NA,NA,NA,NA
"165","stim/objects/Instruments/record2.png",84,8,84,0.7,"stim/43.jpeg",4,3,2,NA,"Instruments",1,3,"left","left",0.565999985,1,1,1,1,NA,NA,NA,NA,NA,NA,NA,NA,NA,NA,NA,NA,NA,NA,NA,NA,NA,NA,NA,NA,NA,NA,NA,NA
"82","stim/objects/HouseObjects/sponge2.png",85,8,85,0.9,"stim/54.jpeg",5,4,3,NA,"HouseObjects",2,1,"right","right",0.594000101,1,1,1,1,NA,NA,NA,NA,NA,NA,NA,NA,NA,NA,NA,NA,NA,NA,NA,NA,NA,NA,NA,NA,NA,NA,NA,NA
"176","stim/objects/Instruments/speaker.png",86,8,86,0.5,"stim/22.jpeg",2,2,1,NA,"Instruments",1,1,"left","right",0.74600029,0,0,1,1,NA,NA,NA,NA,NA,NA,NA,NA,NA,NA,NA,NA,NA,NA,NA,NA,NA,NA,NA,NA,NA,NA,NA,NA
"145","stim/objects/Instruments/record_player.png",87,8,87,0.5,"stim/14.jpeg",1,4,1,NA,"Instruments",1,4,"left","left",0.509000063,1,1,1,1,NA,NA,NA,NA,NA,NA,NA,NA,NA,NA,NA,NA,NA,NA,NA,NA,NA,NA,NA,NA,NA,NA,NA,NA
"192","stim/objects/Instruments/timbal2.png",88,8,88,0.1,"stim/54.jpeg",5,4,3,NA,"Instruments",1,1,"left","right",0.647000074,0,0,1,1,NA,NA,NA,NA,NA,NA,NA,NA,NA,NA,NA,NA,NA,NA,NA,NA,NA,NA,NA,NA,NA,NA,NA,NA
"11","stim/objects/HouseObjects/remote.png",89,8,89,0.5,"stim/12.jpeg",1,2,1,NA,"HouseObjects",2,2,"right","left",0.620000124,0,0,1,1,NA,NA,NA,NA,NA,NA,NA,NA,NA,NA,NA,NA,NA,NA,NA,NA,NA,NA,NA,NA,NA,NA,NA,NA
"218","stim/objects/Instruments/trumpet.png",90,8,90,0.3,"stim/33.jpeg",3,3,2,NA,"Instruments",1,1,"left","",NA,0,0,1,1,NA,NA,NA,NA,NA,NA,NA,NA,NA,NA,NA,NA,NA,NA,NA,NA,NA,NA,NA,NA,NA,NA,NA,NA
"69","stim/objects/HouseObjects/scale2.png",91,8,91,0.9,"stim/53.jpeg",5,3,3,NA,"HouseObjects",2,2,"right","left",0.595000267,0,0,1,1,NA,NA,NA,NA,NA,NA,NA,NA,NA,NA,NA,NA,NA,NA,NA,NA,NA,NA,NA,NA,NA,NA,NA,NA
"153","stim/objects/Instruments/record_player2.png",92,8,92,0.7,"stim/44.jpeg",4,4,2,NA,"Instruments",1,1,"left","left",0.532000065,1,1,1,1,NA,NA,NA,NA,NA,NA,NA,NA,NA,NA,NA,NA,NA,NA,NA,NA,NA,NA,NA,NA,NA,NA,NA,NA
"198","stim/objects/Instruments/triangle2.png",93,8,93,0.9,"stim/61.jpeg",6,1,3,NA,"Instruments",1,4,"left","left",0.531000137,1,1,1,1,NA,NA,NA,NA,NA,NA,NA,NA,NA,NA,NA,NA,NA,NA,NA,NA,NA,NA,NA,NA,NA,NA,NA,NA
"54","stim/objects/HouseObjects/saw2.png",94,8,94,0.9,"stim/52.jpeg",5,2,3,NA,"HouseObjects",2,3,"right","right",0.514000177,1,1,1,1,NA,NA,NA,NA,NA,NA,NA,NA,NA,NA,NA,NA,NA,NA,NA,NA,NA,NA,NA,NA,NA,NA,NA,NA
"112","stim/objects/HouseObjects/thermometer2.png",95,8,95,0.1,"stim/63.jpeg",6,3,3,NA,"HouseObjects",2,4,"right","left",0.551000118,0,0,1,1,NA,NA,NA,NA,NA,NA,NA,NA,NA,NA,NA,NA,NA,NA,NA,NA,NA,NA,NA,NA,NA,NA,NA,NA
"139","stim/objects/Instruments/pipepiano2.png",96,8,96,0.7,"stim/42.jpeg",4,2,2,NA,"Instruments",1,4,"left","left",0.556000233,1,1,1,1,NA,NA,NA,NA,NA,NA,NA,NA,NA,NA,NA,NA,NA,NA,NA,NA,NA,NA,NA,NA,NA,NA,NA,NA
"41","stim/objects/HouseObjects/safetypin2.png",97,8,97,0.9,"stim/51.jpeg",5,1,3,NA,"HouseObjects",2,1,"right","right",0.578000069,1,1,1,1,NA,NA,NA,NA,NA,NA,NA,NA,NA,NA,NA,NA,NA,NA,NA,NA,NA,NA,NA,NA,NA,NA,NA,NA
"15","stim/objects/HouseObjects/remote2.png",98,8,98,0.3,"stim/42.jpeg",4,2,2,NA,"HouseObjects",2,3,"right","left",0.495000124,0,0,1,1,NA,NA,NA,NA,NA,NA,NA,NA,NA,NA,NA,NA,NA,NA,NA,NA,NA,NA,NA,NA,NA,NA,NA,NA
"30","stim/objects/HouseObjects/rug2.png",99,8,99,0.3,"stim/44.jpeg",4,4,2,NA,"HouseObjects",2,2,"right","left",0.583000183,0,0,1,1,NA,NA,NA,NA,NA,NA,NA,NA,NA,NA,NA,NA,NA,NA,NA,NA,NA,NA,NA,NA,NA,NA,NA,NA
"213","stim/objects/Instruments/trombone2.png",100,8,100,0.9,"stim/62.jpeg",6,2,3,NA,"Instruments",1,4,"left","left",0.549000025,1,1,1,1,NA,NA,NA,NA,NA,NA,NA,NA,NA,NA,NA,NA,NA,NA,NA,NA,NA,NA,NA,NA,NA,NA,NA,NA
"235","stim/objects/Instruments/tuba2.png",101,8,101,0.9,"stim/64.jpeg",6,4,3,NA,"Instruments",1,2,"left","left",0.580000162,1,1,1,1,NA,NA,NA,NA,NA,NA,NA,NA,NA,NA,NA,NA,NA,NA,NA,NA,NA,NA,NA,NA,NA,NA,NA,NA
"182","stim/objects/Instruments/tambourine.png",102,8,102,0.5,"stim/23.jpeg",2,3,1,NA,"Instruments",1,4,"left","left",0.820000172,1,1,1,1,NA,NA,NA,NA,NA,NA,NA,NA,NA,NA,NA,NA,NA,NA,NA,NA,NA,NA,NA,NA,NA,NA,NA,NA
"70","stim/objects/HouseObjects/scale2.png",103,8,103,0.9,"stim/53.jpeg",5,3,3,NA,"HouseObjects",2,3,"right","right",0.569000244,1,1,1,1,NA,NA,NA,NA,NA,NA,NA,NA,NA,NA,NA,NA,NA,NA,NA,NA,NA,NA,NA,NA,NA,NA,NA,NA
"122","stim/objects/Instruments/panflute.png",104,8,104,0.5,"stim/11.jpeg",1,1,1,NA,"Instruments",1,4,"left","left",0.565000057,1,1,1,1,NA,NA,NA,NA,NA,NA,NA,NA,NA,NA,NA,NA,NA,NA,NA,NA,NA,NA,NA,NA,NA,NA,NA,NA
"189","stim/objects/Instruments/timbal.png",105,8,105,0.5,"stim/24.jpeg",2,4,1,NA,"Instruments",1,4,"left","left",0.697000265,1,1,1,1,NA,NA,NA,NA,NA,NA,NA,NA,NA,NA,NA,NA,NA,NA,NA,NA,NA,NA,NA,NA,NA,NA,NA,NA
"236","stim/objects/Instruments/tuba2.png",106,8,106,0.9,"stim/64.jpeg",6,4,3,NA,"Instruments",1,2,"left","left",0.62100029,1,1,1,1,NA,NA,NA,NA,NA,NA,NA,NA,NA,NA,NA,NA,NA,NA,NA,NA,NA,NA,NA,NA,NA,NA,NA,NA
"34","stim/objects/HouseObjects/safetypin.png",107,8,107,0.5,"stim/21.jpeg",2,1,1,NA,"HouseObjects",2,3,"right","left",0.69900012,0,0,1,1,NA,NA,NA,NA,NA,NA,NA,NA,NA,NA,NA,NA,NA,NA,NA,NA,NA,NA,NA,NA,NA,NA,NA,NA
"49","stim/objects/HouseObjects/saw.png",108,8,108,0.5,"stim/22.jpeg",2,2,1,NA,"HouseObjects",2,1,"right","right",0.810000181,1,1,1,1,NA,NA,NA,NA,NA,NA,NA,NA,NA,NA,NA,NA,NA,NA,NA,NA,NA,NA,NA,NA,NA,NA,NA,NA
"16","stim/objects/HouseObjects/remote2.png",109,8,109,0.3,"stim/42.jpeg",4,2,2,NA,"HouseObjects",2,2,"right","left",0.526000261,0,0,1,1,NA,NA,NA,NA,NA,NA,NA,NA,NA,NA,NA,NA,NA,NA,NA,NA,NA,NA,NA,NA,NA,NA,NA,NA
"107","stim/objects/HouseObjects/thermometer.png",110,8,110,0.7,"stim/33.jpeg",3,3,2,NA,"HouseObjects",2,4,"right","left",0.505000353,0,0,1,1,NA,NA,NA,NA,NA,NA,NA,NA,NA,NA,NA,NA,NA,NA,NA,NA,NA,NA,NA,NA,NA,NA,NA,NA
"183","stim/objects/Instruments/tambourine.png",111,8,111,0.5,"stim/23.jpeg",2,3,1,NA,"Instruments",1,3,"left","right",0.619000196,0,0,1,1,NA,NA,NA,NA,NA,NA,NA,NA,NA,NA,NA,NA,NA,NA,NA,NA,NA,NA,NA,NA,NA,NA,NA,NA
"93","stim/objects/HouseObjects/spraybottle.png",112,8,112,0.7,"stim/31.jpeg",3,1,2,NA,"HouseObjects",2,3,"right","right",0.715000391,1,1,1,1,NA,NA,NA,NA,NA,NA,NA,NA,NA,NA,NA,NA,NA,NA,NA,NA,NA,NA,NA,NA,NA,NA,NA,NA
"42","stim/objects/HouseObjects/safetypin2.png",113,8,113,0.9,"stim/51.jpeg",5,1,3,NA,"HouseObjects",2,2,"right","right",0.6650002,1,1,1,1,NA,NA,NA,NA,NA,NA,NA,NA,NA,NA,NA,NA,NA,NA,NA,NA,NA,NA,NA,NA,NA,NA,NA,NA
"166","stim/objects/Instruments/record2.png",114,8,114,0.7,"stim/43.jpeg",4,3,2,NA,"Instruments",1,4,"left","left",0.528000116,1,1,1,1,NA,NA,NA,NA,NA,NA,NA,NA,NA,NA,NA,NA,NA,NA,NA,NA,NA,NA,NA,NA,NA,NA,NA,NA
"108","stim/objects/HouseObjects/thermometer.png",115,8,115,0.7,"stim/33.jpeg",3,3,2,NA,"HouseObjects",2,4,"right","right",0.657000065,1,1,1,1,NA,NA,NA,NA,NA,NA,NA,NA,NA,NA,NA,NA,NA,NA,NA,NA,NA,NA,NA,NA,NA,NA,NA,NA
"127","stim/objects/Instruments/panflute2.png",116,8,116,0.7,"stim/41.jpeg",4,1,2,NA,"Instruments",1,1,"left","left",0.620000124,1,1,1,1,NA,NA,NA,NA,NA,NA,NA,NA,NA,NA,NA,NA,NA,NA,NA,NA,NA,NA,NA,NA,NA,NA,NA,NA
"225","stim/objects/Instruments/trumpet2.png",117,8,117,0.9,"stim/63.jpeg",6,3,3,NA,"Instruments",1,1,"left","left",0.578000069,1,1,1,1,NA,NA,NA,NA,NA,NA,NA,NA,NA,NA,NA,NA,NA,NA,NA,NA,NA,NA,NA,NA,NA,NA,NA,NA
"180","stim/objects/Instruments/speaker2.png",118,8,118,0.1,"stim/52.jpeg",5,2,3,NA,"Instruments",1,3,"left","right",0.703000307,0,0,1,1,NA,NA,NA,NA,NA,NA,NA,NA,NA,NA,NA,NA,NA,NA,NA,NA,NA,NA,NA,NA,NA,NA,NA,NA
"83","stim/objects/HouseObjects/sponge2.png",119,8,119,0.9,"stim/54.jpeg",5,4,3,NA,"HouseObjects",2,3,"right","right",0.641000032,1,1,1,1,NA,NA,NA,NA,NA,NA,NA,NA,NA,NA,NA,NA,NA,NA,NA,NA,NA,NA,NA,NA,NA,NA,NA,NA
"199","stim/objects/Instruments/triangle2.png",120,8,120,0.9,"stim/61.jpeg",6,1,3,NA,"Instruments",1,4,"left","left",0.529000282,1,1,1,1,NA,NA,NA,NA,NA,NA,NA,NA,NA,NA,NA,NA,NA,NA,NA,NA,NA,NA,NA,NA,NA,NA,NA,NA
"237","stim/objects/Instruments/tuba2.png",121,8,121,0.9,"stim/64.jpeg",6,4,3,NA,"Instruments",1,1,"left","left",0.671000242,1,1,1,1,NA,NA,NA,NA,NA,NA,NA,NA,NA,NA,NA,NA,NA,NA,NA,NA,NA,NA,NA,NA,NA,NA,NA,NA
"7","stim/objects/HouseObjects/recyclingbin2.png",122,8,122,0.3,"stim/41.jpeg",4,1,2,NA,"HouseObjects",2,4,"right","left",0.551000118,0,0,1,1,NA,NA,NA,NA,NA,NA,NA,NA,NA,NA,NA,NA,NA,NA,NA,NA,NA,NA,NA,NA,NA,NA,NA,NA
"22","stim/objects/HouseObjects/rubbergloves2.png",123,8,123,0.3,"stim/43.jpeg",4,3,2,NA,"HouseObjects",2,4,"right","left",0.57400012,0,0,1,1,NA,NA,NA,NA,NA,NA,NA,NA,NA,NA,NA,NA,NA,NA,NA,NA,NA,NA,NA,NA,NA,NA,NA,NA
"154","stim/objects/Instruments/record_player2.png",124,8,124,0.7,"stim/44.jpeg",4,4,2,NA,"Instruments",1,1,"left","left",0.663000107,1,1,1,1,NA,NA,NA,NA,NA,NA,NA,NA,NA,NA,NA,NA,NA,NA,NA,NA,NA,NA,NA,NA,NA,NA,NA,NA
"55","stim/objects/HouseObjects/saw2.png",125,8,125,0.9,"stim/52.jpeg",5,2,3,NA,"HouseObjects",2,4,"right","left",0.778000116,0,0,1,1,NA,NA,NA,NA,NA,NA,NA,NA,NA,NA,NA,NA,NA,NA,NA,NA,NA,NA,NA,NA,NA,NA,NA,NA
"2","stim/objects/HouseObjects/recyclingbin.png",126,8,126,0.5,"stim/11.jpeg",1,1,1,NA,"HouseObjects",2,2,"right","left",0.657999992,0,0,1,1,NA,NA,NA,NA,NA,NA,NA,NA,NA,NA,NA,NA,NA,NA,NA,NA,NA,NA,NA,NA,NA,NA,NA,NA
"140","stim/objects/Instruments/pipepiano2.png",127,8,127,0.7,"stim/42.jpeg",4,2,2,NA,"Instruments",1,2,"left","left",0.632000208,1,1,1,1,NA,NA,NA,NA,NA,NA,NA,NA,NA,NA,NA,NA,NA,NA,NA,NA,NA,NA,NA,NA,NA,NA,NA,NA
"120","stim/objects/HouseObjects/thread2.png",128,8,128,0.1,"stim/64.jpeg",6,4,3,NA,"HouseObjects",2,4,"right","left",0.63100028,0,0,1,1,NA,NA,NA,NA,NA,NA,NA,NA,NA,NA,NA,NA,NA,NA,NA,NA,NA,NA,NA,NA,NA,NA,NA,NA
"159","stim/objects/Instruments/record.png",129,8,129,0.5,"stim/13.jpeg",1,3,1,NA,"Instruments",1,2,"left","left",0.7900002,1,1,1,1,NA,NA,NA,NA,NA,NA,NA,NA,NA,NA,NA,NA,NA,NA,NA,NA,NA,NA,NA,NA,NA,NA,NA,NA
"109","stim/objects/HouseObjects/thermometer.png",130,8,130,0.7,"stim/33.jpeg",3,3,2,NA,"HouseObjects",2,4,"right","right",0.808000088,1,1,1,1,NA,NA,NA,NA,NA,NA,NA,NA,NA,NA,NA,NA,NA,NA,NA,NA,NA,NA,NA,NA,NA,NA,NA,NA
"43","stim/objects/HouseObjects/safetypin2.png",131,8,131,0.9,"stim/51.jpeg",5,1,3,NA,"HouseObjects",2,4,"right","right",0.680000067,1,1,1,1,NA,NA,NA,NA,NA,NA,NA,NA,NA,NA,NA,NA,NA,NA,NA,NA,NA,NA,NA,NA,NA,NA,NA,NA
"200","stim/objects/Instruments/triangle2.png",132,8,132,0.9,"stim/61.jpeg",6,1,3,NA,"Instruments",1,2,"left","left",0.551000118,1,1,1,1,NA,NA,NA,NA,NA,NA,NA,NA,NA,NA,NA,NA,NA,NA,NA,NA,NA,NA,NA,NA,NA,NA,NA,NA
"128","stim/objects/Instruments/panflute2.png",133,8,133,0.7,"stim/41.jpeg",4,1,2,NA,"Instruments",1,1,"left","right",0.572000265,0,0,1,1,NA,NA,NA,NA,NA,NA,NA,NA,NA,NA,NA,NA,NA,NA,NA,NA,NA,NA,NA,NA,NA,NA,NA,NA
"134","stim/objects/Instruments/pipepiano.png",134,8,134,0.5,"stim/12.jpeg",1,2,1,NA,"Instruments",1,1,"left","left",0.634000063,1,1,1,1,NA,NA,NA,NA,NA,NA,NA,NA,NA,NA,NA,NA,NA,NA,NA,NA,NA,NA,NA,NA,NA,NA,NA,NA
"26","stim/objects/HouseObjects/rug.png",135,8,135,0.5,"stim/14.jpeg",1,4,1,NA,"HouseObjects",2,1,"right","left",0.587000132,0,0,1,1,NA,NA,NA,NA,NA,NA,NA,NA,NA,NA,NA,NA,NA,NA,NA,NA,NA,NA,NA,NA,NA,NA,NA,NA
"146","stim/objects/Instruments/record_player.png",136,8,136,0.5,"stim/14.jpeg",1,4,1,NA,"Instruments",1,3,"left","left",0.588000059,1,1,1,1,NA,NA,NA,NA,NA,NA,NA,NA,NA,NA,NA,NA,NA,NA,NA,NA,NA,NA,NA,NA,NA,NA,NA,NA
"214","stim/objects/Instruments/trombone2.png",137,8,137,0.9,"stim/62.jpeg",6,2,3,NA,"Instruments",1,1,"left","left",0.621999979,1,1,1,1,NA,NA,NA,NA,NA,NA,NA,NA,NA,NA,NA,NA,NA,NA,NA,NA,NA,NA,NA,NA,NA,NA,NA,NA
"184","stim/objects/Instruments/tambourine.png",138,8,138,0.5,"stim/23.jpeg",2,3,1,NA,"Instruments",1,4,"left","right",0.757000208,0,0,1,1,NA,NA,NA,NA,NA,NA,NA,NA,NA,NA,NA,NA,NA,NA,NA,NA,NA,NA,NA,NA,NA,NA,NA,NA
"141","stim/objects/Instruments/pipepiano2.png",139,8,139,0.7,"stim/42.jpeg",4,2,2,NA,"Instruments",1,3,"left","left",0.654000044,1,1,1,1,NA,NA,NA,NA,NA,NA,NA,NA,NA,NA,NA,NA,NA,NA,NA,NA,NA,NA,NA,NA,NA,NA,NA,NA
"190","stim/objects/Instruments/timbal.png",140,8,140,0.5,"stim/24.jpeg",2,4,1,NA,"Instruments",1,2,"left","",NA,0,0,1,1,NA,NA,NA,NA,NA,NA,NA,NA,NA,NA,NA,NA,NA,NA,NA,NA,NA,NA,NA,NA,NA,NA,NA,NA
"226","stim/objects/Instruments/trumpet2.png",141,8,141,0.9,"stim/63.jpeg",6,3,3,NA,"Instruments",1,2,"left","left",0.592000246,1,1,1,1,NA,NA,NA,NA,NA,NA,NA,NA,NA,NA,NA,NA,NA,NA,NA,NA,NA,NA,NA,NA,NA,NA,NA,NA
"160","stim/objects/Instruments/record.png",142,8,142,0.5,"stim/13.jpeg",1,3,1,NA,"Instruments",1,3,"left","left",0.542000294,1,1,1,1,NA,NA,NA,NA,NA,NA,NA,NA,NA,NA,NA,NA,NA,NA,NA,NA,NA,NA,NA,NA,NA,NA,NA,NA
"201","stim/objects/Instruments/triangle2.png",143,8,143,0.9,"stim/61.jpeg",6,1,3,NA,"Instruments",1,4,"left","left",0.572000027,1,1,1,1,NA,NA,NA,NA,NA,NA,NA,NA,NA,NA,NA,NA,NA,NA,NA,NA,NA,NA,NA,NA,NA,NA,NA,NA
"35","stim/objects/HouseObjects/safetypin.png",144,8,144,0.5,"stim/21.jpeg",2,1,1,NA,"HouseObjects",2,4,"right","left",0.60800004,0,0,1,1,NA,NA,NA,NA,NA,NA,NA,NA,NA,NA,NA,NA,NA,NA,NA,NA,NA,NA,NA,NA,NA,NA,NA,NA
"177","stim/objects/Instruments/speaker.png",145,8,145,0.5,"stim/22.jpeg",2,2,1,NA,"Instruments",1,4,"left","left",0.613000154,1,1,1,1,NA,NA,NA,NA,NA,NA,NA,NA,NA,NA,NA,NA,NA,NA,NA,NA,NA,NA,NA,NA,NA,NA,NA,NA
"50","stim/objects/HouseObjects/saw.png",146,8,146,0.5,"stim/22.jpeg",2,2,1,NA,"HouseObjects",2,3,"right","left",0.640000343,0,0,1,1,NA,NA,NA,NA,NA,NA,NA,NA,NA,NA,NA,NA,NA,NA,NA,NA,NA,NA,NA,NA,NA,NA,NA,NA
"71","stim/objects/HouseObjects/scale2.png",147,8,147,0.9,"stim/53.jpeg",5,3,3,NA,"HouseObjects",2,2,"right","left",0.491000175,0,0,1,1,NA,NA,NA,NA,NA,NA,NA,NA,NA,NA,NA,NA,NA,NA,NA,NA,NA,NA,NA,NA,NA,NA,NA,NA
"72","stim/objects/HouseObjects/scale2.png",148,8,148,0.9,"stim/53.jpeg",5,3,3,NA,"HouseObjects",2,1,"right","right",0.603000164,1,1,1,1,NA,NA,NA,NA,NA,NA,NA,NA,NA,NA,NA,NA,NA,NA,NA,NA,NA,NA,NA,NA,NA,NA,NA,NA
"230","stim/objects/Instruments/tuba.png",149,8,149,0.3,"stim/34.jpeg",3,4,2,NA,"Instruments",1,2,"left","left",0.658000231,1,1,1,1,NA,NA,NA,NA,NA,NA,NA,NA,NA,NA,NA,NA,NA,NA,NA,NA,NA,NA,NA,NA,NA,NA,NA,NA
"44","stim/objects/HouseObjects/safetypin2.png",150,8,150,0.9,"stim/51.jpeg",5,1,3,NA,"HouseObjects",2,4,"right","right",0.516000271,1,1,1,1,NA,NA,NA,NA,NA,NA,NA,NA,NA,NA,NA,NA,NA,NA,NA,NA,NA,NA,NA,NA,NA,NA,NA,NA
"51","stim/objects/HouseObjects/saw.png",151,8,151,0.5,"stim/22.jpeg",2,2,1,NA,"HouseObjects",2,1,"right","right",0.713999987,1,1,1,1,NA,NA,NA,NA,NA,NA,NA,NA,NA,NA,NA,NA,NA,NA,NA,NA,NA,NA,NA,NA,NA,NA,NA,NA
"202","stim/objects/Instruments/triangle2.png",152,8,152,0.9,"stim/61.jpeg",6,1,3,NA,"Instruments",1,2,"left","left",0.575000048,1,1,1,1,NA,NA,NA,NA,NA,NA,NA,NA,NA,NA,NA,NA,NA,NA,NA,NA,NA,NA,NA,NA,NA,NA,NA,NA
"219","stim/objects/Instruments/trumpet.png",153,8,153,0.3,"stim/33.jpeg",3,3,2,NA,"Instruments",1,4,"left","right",0.711000204,0,0,1,1,NA,NA,NA,NA,NA,NA,NA,NA,NA,NA,NA,NA,NA,NA,NA,NA,NA,NA,NA,NA,NA,NA,NA,NA
"238","stim/objects/Instruments/tuba2.png",154,8,154,0.9,"stim/64.jpeg",6,4,3,NA,"Instruments",1,2,"left","left",0.548000336,1,1,1,1,NA,NA,NA,NA,NA,NA,NA,NA,NA,NA,NA,NA,NA,NA,NA,NA,NA,NA,NA,NA,NA,NA,NA,NA
"23","stim/objects/HouseObjects/rubbergloves2.png",155,8,155,0.3,"stim/43.jpeg",4,3,2,NA,"HouseObjects",2,4,"right","left",0.726000309,0,0,1,1,NA,NA,NA,NA,NA,NA,NA,NA,NA,NA,NA,NA,NA,NA,NA,NA,NA,NA,NA,NA,NA,NA,NA,NA
"12","stim/objects/HouseObjects/remote.png",156,8,156,0.5,"stim/12.jpeg",1,2,1,NA,"HouseObjects",2,2,"right","left",0.593000174,0,0,1,1,NA,NA,NA,NA,NA,NA,NA,NA,NA,NA,NA,NA,NA,NA,NA,NA,NA,NA,NA,NA,NA,NA,NA,NA
"78","stim/objects/HouseObjects/sponge.png",157,8,157,0.5,"stim/24.jpeg",2,4,1,NA,"HouseObjects",2,2,"right","left",0.620000124,0,0,1,1,NA,NA,NA,NA,NA,NA,NA,NA,NA,NA,NA,NA,NA,NA,NA,NA,NA,NA,NA,NA,NA,NA,NA,NA
"123","stim/objects/Instruments/panflute.png",158,8,158,0.5,"stim/11.jpeg",1,1,1,NA,"Instruments",1,1,"left","left",0.65500021,1,1,1,1,NA,NA,NA,NA,NA,NA,NA,NA,NA,NA,NA,NA,NA,NA,NA,NA,NA,NA,NA,NA,NA,NA,NA,NA
"135","stim/objects/Instruments/pipepiano.png",159,8,159,0.5,"stim/12.jpeg",1,2,1,NA,"Instruments",1,4,"left","right",0.612000227,0,0,1,1,NA,NA,NA,NA,NA,NA,NA,NA,NA,NA,NA,NA,NA,NA,NA,NA,NA,NA,NA,NA,NA,NA,NA,NA
"185","stim/objects/Instruments/tambourine.png",160,8,160,0.5,"stim/23.jpeg",2,3,1,NA,"Instruments",1,1,"left","left",0.697999954,1,1,1,1,NA,NA,NA,NA,NA,NA,NA,NA,NA,NA,NA,NA,NA,NA,NA,NA,NA,NA,NA,NA,NA,NA,NA,NA
"129","stim/objects/Instruments/panflute2.png",161,8,161,0.7,"stim/41.jpeg",4,1,2,NA,"Instruments",1,2,"left","left",0.59700036,1,1,1,1,NA,NA,NA,NA,NA,NA,NA,NA,NA,NA,NA,NA,NA,NA,NA,NA,NA,NA,NA,NA,NA,NA,NA,NA
"207","stim/objects/Instruments/trombone.png",162,8,162,0.3,"stim/32.jpeg",3,2,2,NA,"Instruments",1,2,"left","left",0.715000153,1,1,1,1,NA,NA,NA,NA,NA,NA,NA,NA,NA,NA,NA,NA,NA,NA,NA,NA,NA,NA,NA,NA,NA,NA,NA,NA
"110","stim/objects/HouseObjects/thermometer.png",163,8,163,0.7,"stim/33.jpeg",3,3,2,NA,"HouseObjects",2,1,"right","left",0.766000271,0,0,1,1,NA,NA,NA,NA,NA,NA,NA,NA,NA,NA,NA,NA,NA,NA,NA,NA,NA,NA,NA,NA,NA,NA,NA,NA
"130","stim/objects/Instruments/panflute2.png",164,8,164,0.7,"stim/41.jpeg",4,1,2,NA,"Instruments",1,2,"left","left",0.570000172,1,1,1,1,NA,NA,NA,NA,NA,NA,NA,NA,NA,NA,NA,NA,NA,NA,NA,NA,NA,NA,NA,NA,NA,NA,NA,NA
"45","stim/objects/HouseObjects/safetypin2.png",165,8,165,0.9,"stim/51.jpeg",5,1,3,NA,"HouseObjects",2,3,"right","right",0.63499999,1,1,1,1,NA,NA,NA,NA,NA,NA,NA,NA,NA,NA,NA,NA,NA,NA,NA,NA,NA,NA,NA,NA,NA,NA,NA,NA
"191","stim/objects/Instruments/timbal.png",166,8,166,0.5,"stim/24.jpeg",2,4,1,NA,"Instruments",1,1,"left","left",0.801000118,1,1,1,1,NA,NA,NA,NA,NA,NA,NA,NA,NA,NA,NA,NA,NA,NA,NA,NA,NA,NA,NA,NA,NA,NA,NA,NA
"79","stim/objects/HouseObjects/sponge.png",167,8,167,0.5,"stim/24.jpeg",2,4,1,NA,"HouseObjects",2,2,"right","",NA,0,0,1,1,NA,NA,NA,NA,NA,NA,NA,NA,NA,NA,NA,NA,NA,NA,NA,NA,NA,NA,NA,NA,NA,NA,NA,NA
"31","stim/objects/HouseObjects/rug2.png",168,8,168,0.3,"stim/44.jpeg",4,4,2,NA,"HouseObjects",2,1,"right","left",0.568000078,0,0,1,1,NA,NA,NA,NA,NA,NA,NA,NA,NA,NA,NA,NA,NA,NA,NA,NA,NA,NA,NA,NA,NA,NA,NA,NA
"215","stim/objects/Instruments/trombone2.png",169,8,169,0.9,"stim/62.jpeg",6,2,3,NA,"Instruments",1,1,"left","left",0.623000145,1,1,1,1,NA,NA,NA,NA,NA,NA,NA,NA,NA,NA,NA,NA,NA,NA,NA,NA,NA,NA,NA,NA,NA,NA,NA,NA
"3","stim/objects/HouseObjects/recyclingbin.png",170,8,170,0.5,"stim/11.jpeg",1,1,1,NA,"HouseObjects",2,3,"right","right",0.680000067,1,1,1,1,NA,NA,NA,NA,NA,NA,NA,NA,NA,NA,NA,NA,NA,NA,NA,NA,NA,NA,NA,NA,NA,NA,NA,NA
"239","stim/objects/Instruments/tuba2.png",171,8,171,0.9,"stim/64.jpeg",6,4,3,NA,"Instruments",1,3,"left","left",0.559000254,1,1,1,1,NA,NA,NA,NA,NA,NA,NA,NA,NA,NA,NA,NA,NA,NA,NA,NA,NA,NA,NA,NA,NA,NA,NA,NA
"216","stim/objects/Instruments/trombone2.png",172,8,172,0.9,"stim/62.jpeg",6,2,3,NA,"Instruments",1,1,"left","left",0.600000143,1,1,1,1,NA,NA,NA,NA,NA,NA,NA,NA,NA,NA,NA,NA,NA,NA,NA,NA,NA,NA,NA,NA,NA,NA,NA,NA
"161","stim/objects/Instruments/record.png",173,8,173,0.5,"stim/13.jpeg",1,3,1,NA,"Instruments",1,1,"left","left",0.562000036,1,1,1,1,NA,NA,NA,NA,NA,NA,NA,NA,NA,NA,NA,NA,NA,NA,NA,NA,NA,NA,NA,NA,NA,NA,NA,NA
"117","stim/objects/HouseObjects/thread.png",174,8,174,0.7,"stim/34.jpeg",3,4,2,NA,"HouseObjects",2,3,"right","left",0.440000296,0,0,1,1,NA,NA,NA,NA,NA,NA,NA,NA,NA,NA,NA,NA,NA,NA,NA,NA,NA,NA,NA,NA,NA,NA,NA,NA
"20","stim/objects/HouseObjects/rubbergloves.png",175,8,175,0.5,"stim/13.jpeg",1,3,1,NA,"HouseObjects",2,1,"right","left",0.68900013,0,0,1,1,NA,NA,NA,NA,NA,NA,NA,NA,NA,NA,NA,NA,NA,NA,NA,NA,NA,NA,NA,NA,NA,NA,NA,NA
"98","stim/objects/HouseObjects/teapot.png",176,8,176,0.7,"stim/32.jpeg",3,2,2,NA,"HouseObjects",2,3,"right","left",0.406000137,0,0,1,1,NA,NA,NA,NA,NA,NA,NA,NA,NA,NA,NA,NA,NA,NA,NA,NA,NA,NA,NA,NA,NA,NA,NA,NA
"27","stim/objects/HouseObjects/rug.png",177,8,177,0.5,"stim/14.jpeg",1,4,1,NA,"HouseObjects",2,4,"right","left",0.571000338,0,0,1,1,NA,NA,NA,NA,NA,NA,NA,NA,NA,NA,NA,NA,NA,NA,NA,NA,NA,NA,NA,NA,NA,NA,NA,NA
"195","stim/objects/Instruments/triangle.png",178,8,178,0.3,"stim/31.jpeg",3,1,2,NA,"Instruments",1,3,"left","left",0.640000105,1,1,1,1,NA,NA,NA,NA,NA,NA,NA,NA,NA,NA,NA,NA,NA,NA,NA,NA,NA,NA,NA,NA,NA,NA,NA,NA
"99","stim/objects/HouseObjects/teapot.png",179,8,179,0.7,"stim/32.jpeg",3,2,2,NA,"HouseObjects",2,4,"right","left",0.710000277,0,0,1,1,NA,NA,NA,NA,NA,NA,NA,NA,NA,NA,NA,NA,NA,NA,NA,NA,NA,NA,NA,NA,NA,NA,NA,NA
"227","stim/objects/Instruments/trumpet2.png",180,8,180,0.9,"stim/63.jpeg",6,3,3,NA,"Instruments",1,3,"left","left",0.610000134,1,1,1,1,NA,NA,NA,NA,NA,NA,NA,NA,NA,NA,NA,NA,NA,NA,NA,NA,NA,NA,NA,NA,NA,NA,NA,NA
"94","stim/objects/HouseObjects/spraybottle.png",181,8,181,0.7,"stim/31.jpeg",3,1,2,NA,"HouseObjects",2,3,"right","left",0.508000135,0,0,1,1,NA,NA,NA,NA,NA,NA,NA,NA,NA,NA,NA,NA,NA,NA,NA,NA,NA,NA,NA,NA,NA,NA,NA,NA
"203","stim/objects/Instruments/triangle2.png",182,8,182,0.9,"stim/61.jpeg",6,1,3,NA,"Instruments",1,3,"left","left",0.560000181,1,1,1,1,NA,NA,NA,NA,NA,NA,NA,NA,NA,NA,NA,NA,NA,NA,NA,NA,NA,NA,NA,NA,NA,NA,NA,NA
"147","stim/objects/Instruments/record_player.png",183,8,183,0.5,"stim/14.jpeg",1,4,1,NA,"Instruments",1,1,"left","left",0.584000349,1,1,1,1,NA,NA,NA,NA,NA,NA,NA,NA,NA,NA,NA,NA,NA,NA,NA,NA,NA,NA,NA,NA,NA,NA,NA,NA
"118","stim/objects/HouseObjects/thread.png",184,8,184,0.7,"stim/34.jpeg",3,4,2,NA,"HouseObjects",2,2,"right","left",0.617000103,0,0,1,1,NA,NA,NA,NA,NA,NA,NA,NA,NA,NA,NA,NA,NA,NA,NA,NA,NA,NA,NA,NA,NA,NA,NA,NA
"167","stim/objects/Instruments/record2.png",185,8,185,0.7,"stim/43.jpeg",4,3,2,NA,"Instruments",1,1,"left","left",0.471000195,1,1,1,1,NA,NA,NA,NA,NA,NA,NA,NA,NA,NA,NA,NA,NA,NA,NA,NA,NA,NA,NA,NA,NA,NA,NA,NA
"64","stim/objects/HouseObjects/scale.png",186,8,186,0.5,"stim/23.jpeg",2,3,1,NA,"HouseObjects",2,4,"right","right",0.536000013,1,1,1,1,NA,NA,NA,NA,NA,NA,NA,NA,NA,NA,NA,NA,NA,NA,NA,NA,NA,NA,NA,NA,NA,NA,NA,NA
"84","stim/objects/HouseObjects/sponge2.png",187,8,187,0.9,"stim/54.jpeg",5,4,3,NA,"HouseObjects",2,1,"right","left",0.421000242,0,0,1,1,NA,NA,NA,NA,NA,NA,NA,NA,NA,NA,NA,NA,NA,NA,NA,NA,NA,NA,NA,NA,NA,NA,NA,NA
"8","stim/objects/HouseObjects/recyclingbin2.png",188,8,188,0.3,"stim/41.jpeg",4,1,2,NA,"HouseObjects",2,4,"right","left",0.442000151,0,0,1,1,NA,NA,NA,NA,NA,NA,NA,NA,NA,NA,NA,NA,NA,NA,NA,NA,NA,NA,NA,NA,NA,NA,NA,NA
"173","stim/objects/Instruments/saxophone.png",189,8,189,0.5,"stim/21.jpeg",2,1,1,NA,"Instruments",1,3,"left","left",0.525000095,1,1,1,1,NA,NA,NA,NA,NA,NA,NA,NA,NA,NA,NA,NA,NA,NA,NA,NA,NA,NA,NA,NA,NA,NA,NA,NA
"4","stim/objects/HouseObjects/recyclingbin.png",190,8,190,0.5,"stim/11.jpeg",1,1,1,NA,"HouseObjects",2,2,"right","right",0.546000242,1,1,1,1,NA,NA,NA,NA,NA,NA,NA,NA,NA,NA,NA,NA,NA,NA,NA,NA,NA,NA,NA,NA,NA,NA,NA,NA
"56","stim/objects/HouseObjects/saw2.png",191,8,191,0.9,"stim/52.jpeg",5,2,3,NA,"HouseObjects",2,2,"right","left",0.707000256,0,0,1,1,NA,NA,NA,NA,NA,NA,NA,NA,NA,NA,NA,NA,NA,NA,NA,NA,NA,NA,NA,NA,NA,NA,NA,NA
"65","stim/objects/HouseObjects/scale.png",192,8,192,0.5,"stim/23.jpeg",2,3,1,NA,"HouseObjects",2,1,"right","left",0.556000233,0,0,1,1,NA,NA,NA,NA,NA,NA,NA,NA,NA,NA,NA,NA,NA,NA,NA,NA,NA,NA,NA,NA,NA,NA,NA,NA
"204","stim/objects/Instruments/triangle2.png",193,8,193,0.9,"stim/61.jpeg",6,1,3,NA,"Instruments",1,3,"left","left",0.613000154,1,1,1,1,NA,NA,NA,NA,NA,NA,NA,NA,NA,NA,NA,NA,NA,NA,NA,NA,NA,NA,NA,NA,NA,NA,NA,NA
"57","stim/objects/HouseObjects/saw2.png",194,8,194,0.9,"stim/52.jpeg",5,2,3,NA,"HouseObjects",2,3,"right","right",0.6650002,1,1,1,1,NA,NA,NA,NA,NA,NA,NA,NA,NA,NA,NA,NA,NA,NA,NA,NA,NA,NA,NA,NA,NA,NA,NA,NA
"24","stim/objects/HouseObjects/rubbergloves2.png",195,8,195,0.3,"stim/43.jpeg",4,3,2,NA,"HouseObjects",2,3,"right","left",0.64800024,0,0,1,1,NA,NA,NA,NA,NA,NA,NA,NA,NA,NA,NA,NA,NA,NA,NA,NA,NA,NA,NA,NA,NA,NA,NA,NA
"100","stim/objects/HouseObjects/teapot.png",196,8,196,0.7,"stim/32.jpeg",3,2,2,NA,"HouseObjects",2,1,"right","left",0.715000153,0,0,1,1,NA,NA,NA,NA,NA,NA,NA,NA,NA,NA,NA,NA,NA,NA,NA,NA,NA,NA,NA,NA,NA,NA,NA,NA
"148","stim/objects/Instruments/record_player.png",197,8,197,0.5,"stim/14.jpeg",1,4,1,NA,"Instruments",1,4,"left","left",0.653000116,1,1,1,1,NA,NA,NA,NA,NA,NA,NA,NA,NA,NA,NA,NA,NA,NA,NA,NA,NA,NA,NA,NA,NA,NA,NA,NA
"142","stim/objects/Instruments/pipepiano2.png",198,8,198,0.7,"stim/42.jpeg",4,2,2,NA,"Instruments",1,1,"left","left",0.457000256,1,1,1,1,NA,NA,NA,NA,NA,NA,NA,NA,NA,NA,NA,NA,NA,NA,NA,NA,NA,NA,NA,NA,NA,NA,NA,NA
"101","stim/objects/HouseObjects/teapot.png",199,8,199,0.7,"stim/32.jpeg",3,2,2,NA,"HouseObjects",2,3,"right","left",0.548000336,0,0,1,1,NA,NA,NA,NA,NA,NA,NA,NA,NA,NA,NA,NA,NA,NA,NA,NA,NA,NA,NA,NA,NA,NA,NA,NA
"136","stim/objects/Instruments/pipepiano.png",200,8,200,0.5,"stim/12.jpeg",1,2,1,NA,"Instruments",1,4,"left","left",0.647000313,1,1,1,1,NA,NA,NA,NA,NA,NA,NA,NA,NA,NA,NA,NA,NA,NA,NA,NA,NA,NA,NA,NA,NA,NA,NA,NA
"111","stim/objects/HouseObjects/thermometer.png",201,8,201,0.7,"stim/33.jpeg",3,3,2,NA,"HouseObjects",2,2,"right","left",0.545000076,0,0,1,1,NA,NA,NA,NA,NA,NA,NA,NA,NA,NA,NA,NA,NA,NA,NA,NA,NA,NA,NA,NA,NA,NA,NA,NA
"143","stim/objects/Instruments/pipepiano2.png",202,8,202,0.7,"stim/42.jpeg",4,2,2,NA,"Instruments",1,3,"left","left",0.637000084,1,1,1,1,NA,NA,NA,NA,NA,NA,NA,NA,NA,NA,NA,NA,NA,NA,NA,NA,NA,NA,NA,NA,NA,NA,NA,NA
"73","stim/objects/HouseObjects/scale2.png",203,8,203,0.9,"stim/53.jpeg",5,3,3,NA,"HouseObjects",2,2,"right","right",0.632000208,1,1,1,1,NA,NA,NA,NA,NA,NA,NA,NA,NA,NA,NA,NA,NA,NA,NA,NA,NA,NA,NA,NA,NA,NA,NA,NA
"131","stim/objects/Instruments/panflute2.png",204,8,204,0.7,"stim/41.jpeg",4,1,2,NA,"Instruments",1,1,"left","left",0.551000118,1,1,1,1,NA,NA,NA,NA,NA,NA,NA,NA,NA,NA,NA,NA,NA,NA,NA,NA,NA,NA,NA,NA,NA,NA,NA,NA
"46","stim/objects/HouseObjects/safetypin2.png",205,8,205,0.9,"stim/51.jpeg",5,1,3,NA,"HouseObjects",2,1,"right","right",0.611000061,1,1,1,1,NA,NA,NA,NA,NA,NA,NA,NA,NA,NA,NA,NA,NA,NA,NA,NA,NA,NA,NA,NA,NA,NA,NA,NA
"36","stim/objects/HouseObjects/safetypin.png",206,8,206,0.5,"stim/21.jpeg",2,1,1,NA,"HouseObjects",2,3,"right","left",0.536000252,0,0,1,1,NA,NA,NA,NA,NA,NA,NA,NA,NA,NA,NA,NA,NA,NA,NA,NA,NA,NA,NA,NA,NA,NA,NA,NA
"95","stim/objects/HouseObjects/spraybottle.png",207,8,207,0.7,"stim/31.jpeg",3,1,2,NA,"HouseObjects",2,2,"right","left",0.656000137,0,0,1,1,NA,NA,NA,NA,NA,NA,NA,NA,NA,NA,NA,NA,NA,NA,NA,NA,NA,NA,NA,NA,NA,NA,NA,NA
"124","stim/objects/Instruments/panflute.png",208,8,208,0.5,"stim/11.jpeg",1,1,1,NA,"Instruments",1,1,"left","left",0.735000134,1,1,1,1,NA,NA,NA,NA,NA,NA,NA,NA,NA,NA,NA,NA,NA,NA,NA,NA,NA,NA,NA,NA,NA,NA,NA,NA
"137","stim/objects/Instruments/pipepiano.png",209,8,209,0.5,"stim/12.jpeg",1,2,1,NA,"Instruments",1,3,"left","left",0.805000067,1,1,1,1,NA,NA,NA,NA,NA,NA,NA,NA,NA,NA,NA,NA,NA,NA,NA,NA,NA,NA,NA,NA,NA,NA,NA,NA
"37","stim/objects/HouseObjects/safetypin.png",210,8,210,0.5,"stim/21.jpeg",2,1,1,NA,"HouseObjects",2,3,"right","left",0.705000162,0,0,1,1,NA,NA,NA,NA,NA,NA,NA,NA,NA,NA,NA,NA,NA,NA,NA,NA,NA,NA,NA,NA,NA,NA,NA,NA
"85","stim/objects/HouseObjects/sponge2.png",211,8,211,0.9,"stim/54.jpeg",5,4,3,NA,"HouseObjects",2,4,"right","right",0.711000204,1,1,1,1,NA,NA,NA,NA,NA,NA,NA,NA,NA,NA,NA,NA,NA,NA,NA,NA,NA,NA,NA,NA,NA,NA,NA,NA
"58","stim/objects/HouseObjects/saw2.png",212,8,212,0.9,"stim/52.jpeg",5,2,3,NA,"HouseObjects",2,3,"right","right",0.821000338,1,1,1,1,NA,NA,NA,NA,NA,NA,NA,NA,NA,NA,NA,NA,NA,NA,NA,NA,NA,NA,NA,NA,NA,NA,NA,NA
"102","stim/objects/HouseObjects/teapot.png",213,8,213,0.7,"stim/32.jpeg",3,2,2,NA,"HouseObjects",2,1,"right","",NA,0,0,1,1,NA,NA,NA,NA,NA,NA,NA,NA,NA,NA,NA,NA,NA,NA,NA,NA,NA,NA,NA,NA,NA,NA,NA,NA
"32","stim/objects/HouseObjects/rug2.png",214,8,214,0.3,"stim/44.jpeg",4,4,2,NA,"HouseObjects",2,4,"right","left",0.785000086,0,0,1,1,NA,NA,NA,NA,NA,NA,NA,NA,NA,NA,NA,NA,NA,NA,NA,NA,NA,NA,NA,NA,NA,NA,NA,NA
"155","stim/objects/Instruments/record_player2.png",215,8,215,0.7,"stim/44.jpeg",4,4,2,NA,"Instruments",1,4,"left","right",0.570000172,0,0,1,1,NA,NA,NA,NA,NA,NA,NA,NA,NA,NA,NA,NA,NA,NA,NA,NA,NA,NA,NA,NA,NA,NA,NA,NA
"5","stim/objects/HouseObjects/recyclingbin.png",216,8,216,0.5,"stim/11.jpeg",1,1,1,NA,"HouseObjects",2,2,"right","left",0.700000286,0,0,1,1,NA,NA,NA,NA,NA,NA,NA,NA,NA,NA,NA,NA,NA,NA,NA,NA,NA,NA,NA,NA,NA,NA,NA,NA
"86","stim/objects/HouseObjects/sponge2.png",217,8,217,0.9,"stim/54.jpeg",5,4,3,NA,"HouseObjects",2,2,"right","right",0.609000206,1,1,1,1,NA,NA,NA,NA,NA,NA,NA,NA,NA,NA,NA,NA,NA,NA,NA,NA,NA,NA,NA,NA,NA,NA,NA,NA
"59","stim/objects/HouseObjects/saw2.png",218,8,218,0.9,"stim/52.jpeg",5,2,3,NA,"HouseObjects",2,2,"right","right",0.539000273,1,1,1,1,NA,NA,NA,NA,NA,NA,NA,NA,NA,NA,NA,NA,NA,NA,NA,NA,NA,NA,NA,NA,NA,NA,NA,NA
"178","stim/objects/Instruments/speaker.png",219,8,219,0.5,"stim/22.jpeg",2,2,1,NA,"Instruments",1,4,"left","right",0.569000244,0,0,1,1,NA,NA,NA,NA,NA,NA,NA,NA,NA,NA,NA,NA,NA,NA,NA,NA,NA,NA,NA,NA,NA,NA,NA,NA
"28","stim/objects/HouseObjects/rug.png",220,8,220,0.5,"stim/14.jpeg",1,4,1,NA,"HouseObjects",2,3,"right","left",0.417999983,0,0,1,1,NA,NA,NA,NA,NA,NA,NA,NA,NA,NA,NA,NA,NA,NA,NA,NA,NA,NA,NA,NA,NA,NA,NA,NA
"149","stim/objects/Instruments/record_player.png",221,8,221,0.5,"stim/14.jpeg",1,4,1,NA,"Instruments",1,4,"left","right",0.361999989,0,0,1,1,NA,NA,NA,NA,NA,NA,NA,NA,NA,NA,NA,NA,NA,NA,NA,NA,NA,NA,NA,NA,NA,NA,NA,NA
"125","stim/objects/Instruments/panflute.png",222,8,222,0.5,"stim/11.jpeg",1,1,1,NA,"Instruments",1,2,"left","left",0.519000053,1,1,1,1,NA,NA,NA,NA,NA,NA,NA,NA,NA,NA,NA,NA,NA,NA,NA,NA,NA,NA,NA,NA,NA,NA,NA,NA
"13","stim/objects/HouseObjects/remote.png",223,8,223,0.5,"stim/12.jpeg",1,2,1,NA,"HouseObjects",2,3,"right","right",0.654000044,1,1,1,1,NA,NA,NA,NA,NA,NA,NA,NA,NA,NA,NA,NA,NA,NA,NA,NA,NA,NA,NA,NA,NA,NA,NA,NA
"144","stim/objects/Instruments/pipepiano2.png",224,8,224,0.7,"stim/42.jpeg",4,2,2,NA,"Instruments",1,1,"left","left",0.527000189,1,1,1,1,NA,NA,NA,NA,NA,NA,NA,NA,NA,NA,NA,NA,NA,NA,NA,NA,NA,NA,NA,NA,NA,NA,NA,NA
"228","stim/objects/Instruments/trumpet2.png",225,8,225,0.9,"stim/63.jpeg",6,3,3,NA,"Instruments",1,3,"left","left",0.663000107,1,1,1,1,NA,NA,NA,NA,NA,NA,NA,NA,NA,NA,NA,NA,NA,NA,NA,NA,NA,NA,NA,NA,NA,NA,NA,NA
"156","stim/objects/Instruments/record_player2.png",226,8,226,0.7,"stim/44.jpeg",4,4,2,NA,"Instruments",1,3,"left","left",0.522000074,1,1,1,1,NA,NA,NA,NA,NA,NA,NA,NA,NA,NA,NA,NA,NA,NA,NA,NA,NA,NA,NA,NA,NA,NA,NA,NA
"179","stim/objects/Instruments/speaker.png",227,8,227,0.5,"stim/22.jpeg",2,2,1,NA,"Instruments",1,1,"left","right",0.612000227,0,0,1,1,NA,NA,NA,NA,NA,NA,NA,NA,NA,NA,NA,NA,NA,NA,NA,NA,NA,NA,NA,NA,NA,NA,NA,NA
"168","stim/objects/Instruments/record2.png",228,8,228,0.7,"stim/43.jpeg",4,3,2,NA,"Instruments",1,1,"left","left",0.548000336,1,1,1,1,NA,NA,NA,NA,NA,NA,NA,NA,NA,NA,NA,NA,NA,NA,NA,NA,NA,NA,NA,NA,NA,NA,NA,NA
"240","stim/objects/Instruments/tuba2.png",229,8,229,0.9,"stim/64.jpeg",6,4,3,NA,"Instruments",1,3,"left","left",0.606000185,1,1,1,1,NA,NA,NA,NA,NA,NA,NA,NA,NA,NA,NA,NA,NA,NA,NA,NA,NA,NA,NA,NA,NA,NA,NA,NA
"103","stim/objects/HouseObjects/teapot.png",230,8,230,0.7,"stim/32.jpeg",3,2,2,NA,"HouseObjects",2,1,"right","left",0.681000233,0,0,1,1,NA,NA,NA,NA,NA,NA,NA,NA,NA,NA,NA,NA,NA,NA,NA,NA,NA,NA,NA,NA,NA,NA,NA,NA
"87","stim/objects/HouseObjects/sponge2.png",231,8,231,0.9,"stim/54.jpeg",5,4,3,NA,"HouseObjects",2,1,"right","right",0.616000175,1,1,1,1,NA,NA,NA,NA,NA,NA,NA,NA,NA,NA,NA,NA,NA,NA,NA,NA,NA,NA,NA,NA,NA,NA,NA,NA
"74","stim/objects/HouseObjects/scale2.png",232,8,232,0.9,"stim/53.jpeg",5,3,3,NA,"HouseObjects",2,1,"right","right",0.532000065,1,1,1,1,NA,NA,NA,NA,NA,NA,NA,NA,NA,NA,NA,NA,NA,NA,NA,NA,NA,NA,NA,NA,NA,NA,NA,NA
"29","stim/objects/HouseObjects/rug.png",233,8,233,0.5,"stim/14.jpeg",1,4,1,NA,"HouseObjects",2,1,"right","right",0.633000135,1,1,1,1,NA,NA,NA,NA,NA,NA,NA,NA,NA,NA,NA,NA,NA,NA,NA,NA,NA,NA,NA,NA,NA,NA,NA,NA
"174","stim/objects/Instruments/saxophone2.png",234,8,234,0.1,"stim/51.jpeg",5,1,3,NA,"Instruments",1,4,"left","right",0.715000153,0,0,1,1,NA,NA,NA,NA,NA,NA,NA,NA,NA,NA,NA,NA,NA,NA,NA,NA,NA,NA,NA,NA,NA,NA,NA,NA
"60","stim/objects/HouseObjects/saw2.png",235,8,235,0.9,"stim/52.jpeg",5,2,3,NA,"HouseObjects",2,1,"right","right",0.631000042,1,1,1,1,NA,NA,NA,NA,NA,NA,NA,NA,NA,NA,NA,NA,NA,NA,NA,NA,NA,NA,NA,NA,NA,NA,NA,NA
"132","stim/objects/Instruments/panflute2.png",236,8,236,0.7,"stim/41.jpeg",4,1,2,NA,"Instruments",1,3,"left","left",0.549000025,1,1,1,1,NA,NA,NA,NA,NA,NA,NA,NA,NA,NA,NA,NA,NA,NA,NA,NA,NA,NA,NA,NA,NA,NA,NA,NA
"231","stim/objects/Instruments/tuba.png",237,8,237,0.3,"stim/34.jpeg",3,4,2,NA,"Instruments",1,3,"left","left",0.569000006,1,1,1,1,NA,NA,NA,NA,NA,NA,NA,NA,NA,NA,NA,NA,NA,NA,NA,NA,NA,NA,NA,NA,NA,NA,NA,NA
"88","stim/objects/HouseObjects/sponge2.png",238,8,238,0.9,"stim/54.jpeg",5,4,3,NA,"HouseObjects",2,4,"right","right",0.498000145,1,1,1,1,NA,NA,NA,NA,NA,NA,NA,NA,NA,NA,NA,NA,NA,NA,NA,NA,NA,NA,NA,NA,NA,NA,NA,NA
"21","stim/objects/HouseObjects/rubbergloves.png",239,8,239,0.5,"stim/13.jpeg",1,3,1,NA,"HouseObjects",2,3,"right","left",0.583000183,0,0,1,1,NA,NA,NA,NA,NA,NA,NA,NA,NA,NA,NA,NA,NA,NA,NA,NA,NA,NA,NA,NA,NA,NA,NA,NA
"119","stim/objects/HouseObjects/thread.png",240,8,240,0.7,"stim/34.jpeg",3,4,2,NA,"HouseObjects",2,4,"right","right",0.550000191,1,1,1,1,NA,NA,NA,NA,NA,NA,NA,NA,NA,NA,NA,NA,NA,NA,NA,NA,NA,NA,NA,NA,NA,NA,NA,NA
"324","stim/objects/HouseObjects/dustpan4.png",248,8,241,0.9,"stim/54.jpeg",5,4,3,1,"HouseObjects",2,2,"right","",NA,0,0,1,0,56,8,1,0.9,2,"stim/54.jpeg",5,4,"stim/54.jpeg",2,"right",1.079999924,3,3,0.915999889,3,2.563999891,56,0,0,NA,0,NA,1
"275","stim/objects/HouseObjects/clothespin3.png",249,8,242,0.7,"stim/34.jpeg",3,4,2,2,"HouseObjects",2,4,"right","left",0.669000149,0,0,1,0,NA,NA,NA,NA,NA,NA,NA,NA,NA,NA,NA,NA,NA,NA,NA,NA,NA,NA,NA,NA,NA,NA,NA,NA
"412","stim/objects/Instruments/balalaika3.png",250,8,243,0.5,"stim/14.jpeg",1,4,1,2,"Instruments",1,1,"left","left",0.756000042,1,1,1,0,NA,NA,NA,NA,NA,NA,NA,NA,NA,NA,NA,NA,NA,NA,NA,NA,NA,NA,NA,NA,NA,NA,NA,NA
"342","stim/objects/HouseObjects/garbagebin3.png",251,8,244,0.9,"stim/54.jpeg",5,4,3,2,"HouseObjects",2,2,"right","right",0.496000051,1,1,1,0,NA,NA,NA,NA,NA,NA,NA,NA,NA,NA,NA,NA,NA,NA,NA,NA,NA,NA,NA,NA,NA,NA,NA,NA
"243","stim/objects/HouseObjects/ashtray4.png",252,8,245,0.7,"stim/33.jpeg",3,3,2,1,"HouseObjects",2,1,"right","left",0.654000282,0,0,1,0,53,8,1,0.7,2,"stim/33.jpeg",3,3,"stim/33.jpeg",1,"left",0.998999834,4,2,3.299999952,2,4.328000069,53,1,0,0,0,0,1
"308","stim/objects/HouseObjects/dustpan3.png",253,8,246,0.9,"stim/51.jpeg",5,1,3,2,"HouseObjects",2,2,"right","right",0.70600009,1,1,1,0,NA,NA,NA,NA,NA,NA,NA,NA,NA,NA,NA,NA,NA,NA,NA,NA,NA,NA,NA,NA,NA,NA,NA,NA
"384","stim/objects/HouseObjects/iron3.png",254,8,247,0.5,"stim/12.jpeg",1,2,1,1,"HouseObjects",2,2,"right","right",0.436000109,1,1,1,0,136,8,1,0.5,1,"stim/12.jpeg",1,2,"stim/12.jpeg",2,"right",0.86500001,2,4,4.595999956,4,1.60199976,136,0,0,NA,0,NA,1
"490","stim/objects/Instruments/frenchhorn3.png",255,8,248,0.9,"stim/62.jpeg",6,2,3,2,"Instruments",1,2,"left","left",0.578000307,1,1,1,0,NA,NA,NA,NA,NA,NA,NA,NA,NA,NA,NA,NA,NA,NA,NA,NA,NA,NA,NA,NA,NA,NA,NA,NA
"554","stim/objects/Instruments/maraca4.png",256,8,249,0.9,"stim/62.jpeg",6,2,3,1,"Instruments",1,4,"left","left",0.651000023,1,1,1,0,42,8,1,0.9,1,"stim/62.jpeg",6,2,"stim/62.jpeg",4,"left",3.477999926,3,1,4.221999884,2,4.303999901,42,1,0,0,0,0,1
"271","stim/objects/HouseObjects/clothesdryingrack3.png",257,8,250,0.7,"stim/33.jpeg",3,3,2,2,"HouseObjects",2,4,"right","left",0.724000216,0,0,1,0,NA,NA,NA,NA,NA,NA,NA,NA,NA,NA,NA,NA,NA,NA,NA,NA,NA,NA,NA,NA,NA,NA,NA,NA
"325","stim/objects/HouseObjects/flyswatter3.png",258,8,251,0.9,"stim/53.jpeg",5,3,3,2,"HouseObjects",2,3,"right","right",0.572000027,1,1,1,0,NA,NA,NA,NA,NA,NA,NA,NA,NA,NA,NA,NA,NA,NA,NA,NA,NA,NA,NA,NA,NA,NA,NA,NA
"456","stim/objects/Instruments/flute3.png",259,8,252,0.9,"stim/63.jpeg",6,3,3,2,"Instruments",1,1,"left","left",0.611999989,1,1,1,0,NA,NA,NA,NA,NA,NA,NA,NA,NA,NA,NA,NA,NA,NA,NA,NA,NA,NA,NA,NA,NA,NA,NA,NA
"279","stim/objects/HouseObjects/coffee3.png",260,8,253,0.7,"stim/31.jpeg",3,1,2,2,"HouseObjects",2,4,"right","right",0.503000021,1,1,1,0,NA,NA,NA,NA,NA,NA,NA,NA,NA,NA,NA,NA,NA,NA,NA,NA,NA,NA,NA,NA,NA,NA,NA,NA
"276","stim/objects/HouseObjects/clothespin3.png",261,8,254,0.7,"stim/32.jpeg",3,2,2,2,"HouseObjects",2,1,"right","left",0.743000269,0,0,1,0,NA,NA,NA,NA,NA,NA,NA,NA,NA,NA,NA,NA,NA,NA,NA,NA,NA,NA,NA,NA,NA,NA,NA,NA
"291","stim/objects/HouseObjects/doormat3.png",262,8,255,0.9,"stim/53.jpeg",5,3,3,2,"HouseObjects",2,4,"right","right",0.551000118,1,1,1,0,NA,NA,NA,NA,NA,NA,NA,NA,NA,NA,NA,NA,NA,NA,NA,NA,NA,NA,NA,NA,NA,NA,NA,NA
"491","stim/objects/Instruments/frenchhorn3.png",263,8,256,0.9,"stim/61.jpeg",6,1,3,2,"Instruments",1,1,"left","left",0.622000217,1,1,1,0,NA,NA,NA,NA,NA,NA,NA,NA,NA,NA,NA,NA,NA,NA,NA,NA,NA,NA,NA,NA,NA,NA,NA,NA
"489","stim/objects/Instruments/flutetrans4.png",264,8,257,0.1,"stim/52.jpeg",5,2,3,1,"Instruments",1,4,"left","right",0.417000055,0,0,1,0,59,8,1,0.1,1,"stim/52.jpeg",5,2,"stim/52.jpeg",4,"right",1.00999999,2,2,4.684999943,1,1.223999977,59,0,1,NA,0,NA,1
"292","stim/objects/HouseObjects/doormat3.png",265,8,258,0.9,"stim/51.jpeg",5,1,3,2,"HouseObjects",2,2,"right","right",0.696000099,1,1,1,0,NA,NA,NA,NA,NA,NA,NA,NA,NA,NA,NA,NA,NA,NA,NA,NA,NA,NA,NA,NA,NA,NA,NA,NA
"253","stim/objects/HouseObjects/bleachbottle3.png",266,8,259,0.5,"stim/14.jpeg",1,4,1,2,"HouseObjects",2,3,"right","left",0.542000294,0,0,1,0,NA,NA,NA,NA,NA,NA,NA,NA,NA,NA,NA,NA,NA,NA,NA,NA,NA,NA,NA,NA,NA,NA,NA,NA
"568","stim/objects/Instruments/vuvuzela4.png",267,8,260,0.9,"stim/61.jpeg",6,1,3,1,"Instruments",1,4,"left","left",0.569000244,1,1,1,0,29,8,1,0.9,1,"stim/61.jpeg",6,1,"stim/61.jpeg",4,"right",1.253999949,3,3,4.335999966,2,2.885999918,29,0,0,NA,0,NA,1
"326","stim/objects/HouseObjects/flyswatter3.png",268,8,261,0.9,"stim/52.jpeg",5,2,3,2,"HouseObjects",2,1,"right","right",0.526000261,1,1,1,0,NA,NA,NA,NA,NA,NA,NA,NA,NA,NA,NA,NA,NA,NA,NA,NA,NA,NA,NA,NA,NA,NA,NA,NA
"429","stim/objects/Instruments/chime4.png",269,8,262,0.7,"stim/42.jpeg",4,2,2,1,"Instruments",1,4,"left","left",0.57400012,1,1,1,0,109,8,1,0.7,1,"stim/42.jpeg",4,2,"stim/42.jpeg",4,"right",0.670999765,4,2,0.498999834,1,0.335000038,109,0,1,NA,0,NA,1
"553","stim/objects/Instruments/maraca3.png",270,8,263,0.5,"stim/22.jpeg",2,2,1,1,"Instruments",1,3,"left","right",0.570000172,0,0,1,0,152,8,1,0.5,2,"stim/22.jpeg",2,2,"stim/22.jpeg",3,"left",2.593999863,2,3,3.794999838,2,2.055999994,152,1,0,0,0,0,1
"439","stim/objects/Instruments/cymbal4.png",271,8,264,0.7,"stim/41.jpeg",4,1,2,1,"Instruments",1,2,"left","left",0.632000208,1,1,1,0,91,8,1,0.7,1,"stim/41.jpeg",4,1,"stim/41.jpeg",2,"left",1.866999865,4,1,5.421000004,2,2.725999832,91,1,1,1,1,1,1
"329","stim/objects/HouseObjects/flyswatter3.png",272,8,265,0.9,"stim/53.jpeg",5,3,3,2,"HouseObjects",2,2,"right","right",0.79700017,1,1,1,0,NA,NA,NA,NA,NA,NA,NA,NA,NA,NA,NA,NA,NA,NA,NA,NA,NA,NA,NA,NA,NA,NA,NA,NA
"287","stim/objects/HouseObjects/dishsoap3.png",273,8,266,0.7,"stim/31.jpeg",3,1,2,2,"HouseObjects",2,1,"right","left",0.610000134,0,0,1,0,NA,NA,NA,NA,NA,NA,NA,NA,NA,NA,NA,NA,NA,NA,NA,NA,NA,NA,NA,NA,NA,NA,NA,NA
"493","stim/objects/Instruments/frenchhorn3.png",274,8,267,0.9,"stim/62.jpeg",6,2,3,2,"Instruments",1,4,"left","left",0.647000074,1,1,1,0,NA,NA,NA,NA,NA,NA,NA,NA,NA,NA,NA,NA,NA,NA,NA,NA,NA,NA,NA,NA,NA,NA,NA,NA
"420","stim/objects/Instruments/bassdrum4.png",275,8,268,0.3,"stim/32.jpeg",3,2,2,1,"Instruments",1,3,"left","right",0.452000141,0,0,1,0,119,8,1,0.3,1,"stim/32.jpeg",3,2,"stim/32.jpeg",3,"right",0.926999807,4,2,4.30099988,4,1.828999996,119,0,1,NA,0,NA,1
"524","stim/objects/Instruments/grandpiano3.png",276,8,269,0.9,"stim/64.jpeg",6,4,3,2,"Instruments",1,4,"left","left",0.702000141,1,1,1,0,NA,NA,NA,NA,NA,NA,NA,NA,NA,NA,NA,NA,NA,NA,NA,NA,NA,NA,NA,NA,NA,NA,NA,NA
"474","stim/objects/Instruments/flutetrans3.png",277,8,270,0.9,"stim/64.jpeg",6,4,3,2,"Instruments",1,1,"left","left",0.529000282,1,1,1,0,NA,NA,NA,NA,NA,NA,NA,NA,NA,NA,NA,NA,NA,NA,NA,NA,NA,NA,NA,NA,NA,NA,NA,NA
"506","stim/objects/Instruments/frenchhorn4.png",278,8,271,0.1,"stim/53.jpeg",5,3,3,1,"Instruments",1,4,"left","right",0.642000198,0,0,1,0,9,8,1,0.1,1,"stim/53.jpeg",5,3,"stim/53.jpeg",4,"left",1.648000002,4,2,8.995999813,1,3.38499999,9,1,0,0,0,0,1
"457","stim/objects/Instruments/flute3.png",279,8,272,0.9,"stim/63.jpeg",6,3,3,2,"Instruments",1,3,"left","left",0.559000015,1,1,1,0,NA,NA,NA,NA,NA,NA,NA,NA,NA,NA,NA,NA,NA,NA,NA,NA,NA,NA,NA,NA,NA,NA,NA,NA
"310","stim/objects/HouseObjects/dustpan3.png",280,8,273,0.9,"stim/53.jpeg",5,3,3,2,"HouseObjects",2,4,"right","right",0.651000023,1,1,1,0,NA,NA,NA,NA,NA,NA,NA,NA,NA,NA,NA,NA,NA,NA,NA,NA,NA,NA,NA,NA,NA,NA,NA,NA
"455","stim/objects/Instruments/electricguitar4.png",281,8,274,0.7,"stim/41.jpeg",4,1,2,1,"Instruments",1,3,"left","left",0.552000284,1,1,1,0,154,8,1,0.7,1,"stim/41.jpeg",4,1,"stim/41.jpeg",3,"right",2.363000154,4,2,0.862999916,1,1.753000021,154,0,0,NA,0,NA,1
"294","stim/objects/HouseObjects/doormat3.png",282,8,275,0.9,"stim/53.jpeg",5,3,3,2,"HouseObjects",2,3,"right","right",0.51300025,1,1,1,0,NA,NA,NA,NA,NA,NA,NA,NA,NA,NA,NA,NA,NA,NA,NA,NA,NA,NA,NA,NA,NA,NA,NA,NA
"389","stim/objects/HouseObjects/key4.png",283,8,276,0.1,"stim/64.jpeg",6,4,3,1,"HouseObjects",2,4,"right","left",0.594000101,0,0,1,0,70,8,1,0.1,2,"stim/64.jpeg",6,4,"stim/64.jpeg",4,"right",0.875999928,4,4,0.846999884,2,0.214999914,70,0,1,NA,0,NA,1
"403","stim/objects/HouseObjects/vacuumcleaner4.png",284,8,277,0.1,"stim/63.jpeg",6,3,3,1,"HouseObjects",2,4,"right","left",0.571000099,0,0,1,0,177,8,1,0.1,2,"stim/63.jpeg",6,3,"stim/63.jpeg",4,"right",2.686000109,3,4,1.319000006,2,0.615999937,177,0,0,NA,0,NA,1
"241","stim/objects/HouseObjects/ashtray3.png",285,8,278,0.5,"stim/14.jpeg",1,4,1,2,"HouseObjects",2,1,"right","left",0.761000156,0,0,1,0,NA,NA,NA,NA,NA,NA,NA,NA,NA,NA,NA,NA,NA,NA,NA,NA,NA,NA,NA,NA,NA,NA,NA,NA
"277","stim/objects/HouseObjects/clothespin3.png",286,8,279,0.7,"stim/31.jpeg",3,1,2,2,"HouseObjects",2,1,"right","right",0.591000319,1,1,1,0,NA,NA,NA,NA,NA,NA,NA,NA,NA,NA,NA,NA,NA,NA,NA,NA,NA,NA,NA,NA,NA,NA,NA,NA
"458","stim/objects/Instruments/flute3.png",287,8,280,0.9,"stim/61.jpeg",6,1,3,2,"Instruments",1,1,"left","left",0.605000257,1,1,1,0,NA,NA,NA,NA,NA,NA,NA,NA,NA,NA,NA,NA,NA,NA,NA,NA,NA,NA,NA,NA,NA,NA,NA,NA
"507","stim/objects/Instruments/gong3.png",288,8,281,0.9,"stim/61.jpeg",6,1,3,2,"Instruments",1,1,"left","left",0.603000164,1,1,1,0,NA,NA,NA,NA,NA,NA,NA,NA,NA,NA,NA,NA,NA,NA,NA,NA,NA,NA,NA,NA,NA,NA,NA,NA
"413","stim/objects/Instruments/balalaika3.png",289,8,282,0.5,"stim/13.jpeg",1,3,1,2,"Instruments",1,1,"left","right",0.599000216,0,0,1,0,NA,NA,NA,NA,NA,NA,NA,NA,NA,NA,NA,NA,NA,NA,NA,NA,NA,NA,NA,NA,NA,NA,NA,NA
"311","stim/objects/HouseObjects/dustpan3.png",290,8,283,0.9,"stim/53.jpeg",5,3,3,2,"HouseObjects",2,4,"right","right",0.637000322,1,1,1,0,NA,NA,NA,NA,NA,NA,NA,NA,NA,NA,NA,NA,NA,NA,NA,NA,NA,NA,NA,NA,NA,NA,NA,NA
"476","stim/objects/Instruments/flutetrans3.png",291,8,284,0.9,"stim/63.jpeg",6,3,3,2,"Instruments",1,1,"left","left",0.614000082,1,1,1,0,NA,NA,NA,NA,NA,NA,NA,NA,NA,NA,NA,NA,NA,NA,NA,NA,NA,NA,NA,NA,NA,NA,NA,NA
"258","stim/objects/HouseObjects/blender4.png",292,8,285,0.3,"stim/42.jpeg",4,2,2,1,"HouseObjects",2,2,"right","left",0.692000151,0,0,1,0,163,8,1,0.3,2,"stim/42.jpeg",4,2,"stim/42.jpeg",2,"right",0.905999899,1,2,4.57400012,4,1.773999929,163,0,1,NA,0,NA,1
"341","stim/objects/HouseObjects/flyswatter4.png",293,8,286,0.9,"stim/51.jpeg",5,1,3,1,"HouseObjects",2,1,"right","right",0.589000225,1,1,1,0,132,8,1,0.9,2,"stim/51.jpeg",5,1,"stim/51.jpeg",1,"left",1.576999903,3,2,3.65199995,2,3.456999779,132,1,0,0,0,0,1
"459","stim/objects/Instruments/flute3.png",294,8,287,0.9,"stim/61.jpeg",6,1,3,2,"Instruments",1,2,"left","left",0.663000107,1,1,1,0,NA,NA,NA,NA,NA,NA,NA,NA,NA,NA,NA,NA,NA,NA,NA,NA,NA,NA,NA,NA,NA,NA,NA,NA
"433","stim/objects/Instruments/cornet3.png",295,8,288,0.5,"stim/23.jpeg",2,3,1,2,"Instruments",1,3,"left","right",0.71900034,0,0,1,0,NA,NA,NA,NA,NA,NA,NA,NA,NA,NA,NA,NA,NA,NA,NA,NA,NA,NA,NA,NA,NA,NA,NA,NA
"443","stim/objects/Instruments/doublebass4.png",296,8,289,0.7,"stim/42.jpeg",4,2,2,1,"Instruments",1,4,"left","left",0.533000231,1,1,1,0,45,8,1,0.7,1,"stim/42.jpeg",4,2,"stim/42.jpeg",4,"left",1.056999922,3,3,5.273999929,1,2.502999783,45,1,0,0,0,0,1
"388","stim/objects/HouseObjects/key3.png",297,8,290,0.5,"stim/21.jpeg",2,1,1,1,"HouseObjects",2,4,"right","right",0.81400013,1,1,1,0,114,8,1,0.5,2,"stim/21.jpeg",2,1,"stim/21.jpeg",4,"right",0.821000099,4,2,0.595999956,1,0.239999771,114,0,0,NA,0,NA,1
"434","stim/objects/Instruments/cornet3.png",298,8,291,0.5,"stim/24.jpeg",2,4,1,2,"Instruments",1,3,"left","left",0.71200037,1,1,1,0,NA,NA,NA,NA,NA,NA,NA,NA,NA,NA,NA,NA,NA,NA,NA,NA,NA,NA,NA,NA,NA,NA,NA,NA
"343","stim/objects/HouseObjects/garbagebin3.png",299,8,292,0.9,"stim/52.jpeg",5,2,3,2,"HouseObjects",2,2,"right","right",0.612000227,1,1,1,0,NA,NA,NA,NA,NA,NA,NA,NA,NA,NA,NA,NA,NA,NA,NA,NA,NA,NA,NA,NA,NA,NA,NA,NA
"288","stim/objects/HouseObjects/dishsoap3.png",300,8,293,0.7,"stim/33.jpeg",3,3,2,2,"HouseObjects",2,4,"right","",NA,0,0,1,0,NA,NA,NA,NA,NA,NA,NA,NA,NA,NA,NA,NA,NA,NA,NA,NA,NA,NA,NA,NA,NA,NA,NA,NA
"409","stim/objects/Instruments/acousticguitar3.png",301,8,294,0.5,"stim/13.jpeg",1,3,1,2,"Instruments",1,3,"left","left",0.703000307,1,1,1,0,NA,NA,NA,NA,NA,NA,NA,NA,NA,NA,NA,NA,NA,NA,NA,NA,NA,NA,NA,NA,NA,NA,NA,NA
"543","stim/objects/Instruments/harmonica3.png",302,8,295,0.5,"stim/14.jpeg",1,4,1,1,"Instruments",1,3,"left","right",0.542000055,0,0,1,0,150,8,1,0.5,1,"stim/14.jpeg",1,4,"stim/14.jpeg",3,"right",0.98699975,3,2,0.575000048,1,1.619999886,150,0,0,NA,0,NA,1
"448","stim/objects/Instruments/electricdrumset3.png",303,8,296,0.7,"stim/42.jpeg",4,2,2,2,"Instruments",1,3,"left","",NA,0,0,1,0,NA,NA,NA,NA,NA,NA,NA,NA,NA,NA,NA,NA,NA,NA,NA,NA,NA,NA,NA,NA,NA,NA,NA,NA
"360","stim/objects/HouseObjects/glass3.png",304,8,297,0.9,"stim/52.jpeg",5,2,3,2,"HouseObjects",2,2,"right","right",0.711000204,1,1,1,0,NA,NA,NA,NA,NA,NA,NA,NA,NA,NA,NA,NA,NA,NA,NA,NA,NA,NA,NA,NA,NA,NA,NA,NA
"563","stim/objects/Instruments/oboe3.png",305,8,298,0.3,"stim/32.jpeg",3,2,2,1,"Instruments",1,4,"left","left",0.784000158,1,1,1,0,52,8,1,0.3,1,"stim/32.jpeg",3,2,"stim/32.jpeg",4,"right",1.241999865,3,4,1.041999817,2,0.746999979,52,0,0,NA,0,NA,1
"295","stim/objects/HouseObjects/doormat3.png",306,8,299,0.9,"stim/52.jpeg",5,2,3,2,"HouseObjects",2,2,"right","right",0.494000196,1,1,1,0,NA,NA,NA,NA,NA,NA,NA,NA,NA,NA,NA,NA,NA,NA,NA,NA,NA,NA,NA,NA,NA,NA,NA,NA
"508","stim/objects/Instruments/gong3.png",307,8,300,0.9,"stim/62.jpeg",6,2,3,2,"Instruments",1,2,"left","left",0.502000093,1,1,1,0,NA,NA,NA,NA,NA,NA,NA,NA,NA,NA,NA,NA,NA,NA,NA,NA,NA,NA,NA,NA,NA,NA,NA,NA
"494","stim/objects/Instruments/frenchhorn3.png",308,8,301,0.9,"stim/63.jpeg",6,3,3,2,"Instruments",1,2,"left","right",0.497000217,0,0,1,0,NA,NA,NA,NA,NA,NA,NA,NA,NA,NA,NA,NA,NA,NA,NA,NA,NA,NA,NA,NA,NA,NA,NA,NA
"377","stim/objects/HouseObjects/glassmop4.png",309,8,302,0.9,"stim/54.jpeg",5,4,3,1,"HouseObjects",2,3,"right","right",0.554000139,1,1,1,0,186,8,1,0.9,2,"stim/54.jpeg",5,4,"stim/54.jpeg",3,"right",0.838000059,4,2,0.633999825,1,0.265000105,186,0,0,NA,0,NA,1
"331","stim/objects/HouseObjects/flyswatter3.png",310,8,303,0.9,"stim/54.jpeg",5,4,3,2,"HouseObjects",2,2,"right","right",0.615000248,1,1,1,0,NA,NA,NA,NA,NA,NA,NA,NA,NA,NA,NA,NA,NA,NA,NA,NA,NA,NA,NA,NA,NA,NA,NA,NA
"332","stim/objects/HouseObjects/flyswatter3.png",311,8,304,0.9,"stim/54.jpeg",5,4,3,2,"HouseObjects",2,2,"right","right",0.592000246,1,1,1,0,NA,NA,NA,NA,NA,NA,NA,NA,NA,NA,NA,NA,NA,NA,NA,NA,NA,NA,NA,NA,NA,NA,NA,NA
"544","stim/objects/Instruments/harmonica4.png",312,8,305,0.1,"stim/53.jpeg",5,3,3,1,"Instruments",1,3,"left","right",0.622000217,0,0,1,0,176,8,1,0.1,1,"stim/53.jpeg",5,3,"stim/53.jpeg",3,"right",1.039000034,2,1,2.765999794,3,1.105000019,176,0,0,NA,1,NA,1
"312","stim/objects/HouseObjects/dustpan3.png",313,8,306,0.9,"stim/52.jpeg",5,2,3,2,"HouseObjects",2,4,"right","right",0.565999985,1,1,1,0,NA,NA,NA,NA,NA,NA,NA,NA,NA,NA,NA,NA,NA,NA,NA,NA,NA,NA,NA,NA,NA,NA,NA,NA
"346","stim/objects/HouseObjects/garbagebin3.png",314,8,307,0.9,"stim/51.jpeg",5,1,3,2,"HouseObjects",2,4,"right","right",0.610000134,1,1,1,0,NA,NA,NA,NA,NA,NA,NA,NA,NA,NA,NA,NA,NA,NA,NA,NA,NA,NA,NA,NA,NA,NA,NA,NA
"361","stim/objects/HouseObjects/glass3.png",315,8,308,0.9,"stim/54.jpeg",5,4,3,2,"HouseObjects",2,3,"right","right",0.618000269,1,1,1,0,NA,NA,NA,NA,NA,NA,NA,NA,NA,NA,NA,NA,NA,NA,NA,NA,NA,NA,NA,NA,NA,NA,NA,NA
"362","stim/objects/HouseObjects/glass3.png",316,8,309,0.9,"stim/54.jpeg",5,4,3,2,"HouseObjects",2,1,"right","right",0.666000366,1,1,1,0,NA,NA,NA,NA,NA,NA,NA,NA,NA,NA,NA,NA,NA,NA,NA,NA,NA,NA,NA,NA,NA,NA,NA,NA
"406","stim/objects/Instruments/accordion3.png",317,8,310,0.5,"stim/11.jpeg",1,1,1,2,"Instruments",1,4,"left","",NA,0,0,1,0,NA,NA,NA,NA,NA,NA,NA,NA,NA,NA,NA,NA,NA,NA,NA,NA,NA,NA,NA,NA,NA,NA,NA,NA
"358","stim/objects/HouseObjects/garbagebin4.png",318,8,311,0.9,"stim/52.jpeg",5,2,3,1,"HouseObjects",2,1,"right","right",0.572000265,1,1,1,0,182,8,1,0.9,2,"stim/52.jpeg",5,2,"stim/52.jpeg",1,"right",0.731999874,4,2,0.715999842,1,0.384000063,182,0,1,NA,1,NA,1
"333","stim/objects/HouseObjects/flyswatter3.png",319,8,312,0.9,"stim/51.jpeg",5,1,3,2,"HouseObjects",2,3,"right","right",0.613000154,1,1,1,0,NA,NA,NA,NA,NA,NA,NA,NA,NA,NA,NA,NA,NA,NA,NA,NA,NA,NA,NA,NA,NA,NA,NA,NA
"478","stim/objects/Instruments/flutetrans3.png",320,8,313,0.9,"stim/63.jpeg",6,3,3,2,"Instruments",1,1,"left","left",0.555000305,1,1,1,0,NA,NA,NA,NA,NA,NA,NA,NA,NA,NA,NA,NA,NA,NA,NA,NA,NA,NA,NA,NA,NA,NA,NA,NA
"347","stim/objects/HouseObjects/garbagebin3.png",321,8,314,0.9,"stim/54.jpeg",5,4,3,2,"HouseObjects",2,3,"right","right",0.369000196,1,1,1,0,NA,NA,NA,NA,NA,NA,NA,NA,NA,NA,NA,NA,NA,NA,NA,NA,NA,NA,NA,NA,NA,NA,NA,NA
"427","stim/objects/Instruments/chime3.png",322,8,315,0.5,"stim/21.jpeg",2,1,1,2,"Instruments",1,2,"left","left",0.617000103,1,1,1,0,NA,NA,NA,NA,NA,NA,NA,NA,NA,NA,NA,NA,NA,NA,NA,NA,NA,NA,NA,NA,NA,NA,NA,NA
"359","stim/objects/HouseObjects/glass3.png",323,8,316,0.9,"stim/53.jpeg",5,3,3,2,"HouseObjects",2,2,"right","right",0.265000343,1,1,1,0,NA,NA,NA,NA,NA,NA,NA,NA,NA,NA,NA,NA,NA,NA,NA,NA,NA,NA,NA,NA,NA,NA,NA,NA
"334","stim/objects/HouseObjects/flyswatter3.png",324,8,317,0.9,"stim/51.jpeg",5,1,3,2,"HouseObjects",2,3,"right","left",0.471000195,0,0,1,0,NA,NA,NA,NA,NA,NA,NA,NA,NA,NA,NA,NA,NA,NA,NA,NA,NA,NA,NA,NA,NA,NA,NA,NA
"270","stim/objects/HouseObjects/clock4.png",325,8,318,0.3,"stim/42.jpeg",4,2,2,1,"HouseObjects",2,2,"right","right",0.517000198,1,1,1,0,89,8,1,0.3,2,"stim/42.jpeg",4,2,"stim/42.jpeg",2,"right",1.173999786,3,1,2.420999765,2,1.170000076,89,0,0,NA,1,NA,1
"262","stim/objects/HouseObjects/broom3.png",326,8,319,0.5,"stim/24.jpeg",2,4,1,2,"HouseObjects",2,4,"right","right",0.719000101,1,1,1,0,NA,NA,NA,NA,NA,NA,NA,NA,NA,NA,NA,NA,NA,NA,NA,NA,NA,NA,NA,NA,NA,NA,NA,NA
"296","stim/objects/HouseObjects/doormat3.png",327,8,320,0.9,"stim/52.jpeg",5,2,3,2,"HouseObjects",2,4,"right","right",0.52300024,1,1,1,0,NA,NA,NA,NA,NA,NA,NA,NA,NA,NA,NA,NA,NA,NA,NA,NA,NA,NA,NA,NA,NA,NA,NA,NA
"461","stim/objects/Instruments/flute3.png",328,8,321,0.9,"stim/61.jpeg",6,1,3,2,"Instruments",1,1,"left","left",0.560000181,1,1,1,0,NA,NA,NA,NA,NA,NA,NA,NA,NA,NA,NA,NA,NA,NA,NA,NA,NA,NA,NA,NA,NA,NA,NA,NA
"509","stim/objects/Instruments/gong3.png",329,8,322,0.9,"stim/61.jpeg",6,1,3,2,"Instruments",1,4,"left","left",0.585000038,1,1,1,0,NA,NA,NA,NA,NA,NA,NA,NA,NA,NA,NA,NA,NA,NA,NA,NA,NA,NA,NA,NA,NA,NA,NA,NA
"527","stim/objects/Instruments/grandpiano3.png",330,8,323,0.9,"stim/64.jpeg",6,4,3,2,"Instruments",1,1,"left","left",0.417000294,1,1,1,0,NA,NA,NA,NA,NA,NA,NA,NA,NA,NA,NA,NA,NA,NA,NA,NA,NA,NA,NA,NA,NA,NA,NA,NA
"267","stim/objects/HouseObjects/bucket4.png",331,8,324,0.3,"stim/41.jpeg",4,1,2,1,"HouseObjects",2,1,"right","right",0.548000097,1,1,1,0,39,8,1,0.3,2,"stim/41.jpeg",4,1,"stim/41.jpeg",1,"right",1.069999933,4,1,0.940999985,2,0.745999813,39,0,1,NA,0,NA,1
"462","stim/objects/Instruments/flute3.png",332,8,325,0.9,"stim/64.jpeg",6,4,3,2,"Instruments",1,3,"left","left",0.553000212,1,1,1,0,NA,NA,NA,NA,NA,NA,NA,NA,NA,NA,NA,NA,NA,NA,NA,NA,NA,NA,NA,NA,NA,NA,NA,NA
"528","stim/objects/Instruments/grandpiano3.png",333,8,326,0.9,"stim/63.jpeg",6,3,3,2,"Instruments",1,3,"left","left",0.57400012,1,1,1,0,NA,NA,NA,NA,NA,NA,NA,NA,NA,NA,NA,NA,NA,NA,NA,NA,NA,NA,NA,NA,NA,NA,NA,NA
"463","stim/objects/Instruments/flute3.png",334,8,327,0.9,"stim/63.jpeg",6,3,3,2,"Instruments",1,1,"left","left",0.442000151,1,1,1,0,NA,NA,NA,NA,NA,NA,NA,NA,NA,NA,NA,NA,NA,NA,NA,NA,NA,NA,NA,NA,NA,NA,NA,NA
"510","stim/objects/Instruments/gong3.png",335,8,328,0.9,"stim/62.jpeg",6,2,3,2,"Instruments",1,2,"left","left",0.563000202,1,1,1,0,NA,NA,NA,NA,NA,NA,NA,NA,NA,NA,NA,NA,NA,NA,NA,NA,NA,NA,NA,NA,NA,NA,NA,NA
"348","stim/objects/HouseObjects/garbagebin3.png",336,8,329,0.9,"stim/52.jpeg",5,2,3,2,"HouseObjects",2,3,"right","right",0.50600028,1,1,1,0,NA,NA,NA,NA,NA,NA,NA,NA,NA,NA,NA,NA,NA,NA,NA,NA,NA,NA,NA,NA,NA,NA,NA,NA
"472","stim/objects/Instruments/flute4.png",337,8,330,0.1,"stim/51.jpeg",5,1,3,1,"Instruments",1,3,"left","right",0.52300024,0,0,1,0,2,8,1,0.1,1,"stim/51.jpeg",5,1,"stim/51.jpeg",3,"right",2.245999813,4,2,9.919999838,3,2.957999945,2,0,0,NA,1,NA,1
"479","stim/objects/Instruments/flutetrans3.png",338,8,331,0.9,"stim/61.jpeg",6,1,3,2,"Instruments",1,3,"left","left",0.619000196,1,1,1,0,NA,NA,NA,NA,NA,NA,NA,NA,NA,NA,NA,NA,NA,NA,NA,NA,NA,NA,NA,NA,NA,NA,NA,NA
"552","stim/objects/Instruments/laud4.png",339,8,332,0.9,"stim/61.jpeg",6,1,3,1,"Instruments",1,2,"left","left",0.575000048,1,1,1,0,200,8,1,0.9,1,"stim/61.jpeg",6,1,"stim/61.jpeg",2,"right",0.909999847,3,1,0.733999968,2,0.332999945,200,0,1,NA,1,NA,1
"464","stim/objects/Instruments/flute3.png",340,8,333,0.9,"stim/62.jpeg",6,2,3,2,"Instruments",1,1,"left","left",0.585999966,1,1,1,0,NA,NA,NA,NA,NA,NA,NA,NA,NA,NA,NA,NA,NA,NA,NA,NA,NA,NA,NA,NA,NA,NA,NA,NA
"314","stim/objects/HouseObjects/dustpan3.png",341,8,334,0.9,"stim/54.jpeg",5,4,3,2,"HouseObjects",2,3,"right","right",0.54700017,1,1,1,0,NA,NA,NA,NA,NA,NA,NA,NA,NA,NA,NA,NA,NA,NA,NA,NA,NA,NA,NA,NA,NA,NA,NA,NA
"495","stim/objects/Instruments/frenchhorn3.png",342,8,335,0.9,"stim/64.jpeg",6,4,3,2,"Instruments",1,1,"left","left",0.554000139,1,1,1,0,NA,NA,NA,NA,NA,NA,NA,NA,NA,NA,NA,NA,NA,NA,NA,NA,NA,NA,NA,NA,NA,NA,NA,NA
"335","stim/objects/HouseObjects/flyswatter3.png",343,8,336,0.9,"stim/54.jpeg",5,4,3,2,"HouseObjects",2,4,"right","right",0.545000076,1,1,1,0,NA,NA,NA,NA,NA,NA,NA,NA,NA,NA,NA,NA,NA,NA,NA,NA,NA,NA,NA,NA,NA,NA,NA,NA
"511","stim/objects/Instruments/gong3.png",344,8,337,0.9,"stim/64.jpeg",6,4,3,2,"Instruments",1,2,"left","left",0.337000132,1,1,1,0,NA,NA,NA,NA,NA,NA,NA,NA,NA,NA,NA,NA,NA,NA,NA,NA,NA,NA,NA,NA,NA,NA,NA,NA
"391","stim/objects/HouseObjects/knife4.png",345,8,338,0.1,"stim/61.jpeg",6,1,3,1,"HouseObjects",2,3,"right","left",0.577000141,0,0,1,0,71,8,1,0.1,2,"stim/61.jpeg",6,1,"stim/61.jpeg",3,"left",1.407000065,4,2,3.075999975,2,3.616999865,71,1,0,0,0,0,1
"480","stim/objects/Instruments/flutetrans3.png",346,8,339,0.9,"stim/62.jpeg",6,2,3,2,"Instruments",1,3,"left","left",0.543000221,1,1,1,0,NA,NA,NA,NA,NA,NA,NA,NA,NA,NA,NA,NA,NA,NA,NA,NA,NA,NA,NA,NA,NA,NA,NA,NA
"529","stim/objects/Instruments/grandpiano3.png",347,8,340,0.9,"stim/62.jpeg",6,2,3,2,"Instruments",1,2,"left","left",0.688000202,1,1,1,0,NA,NA,NA,NA,NA,NA,NA,NA,NA,NA,NA,NA,NA,NA,NA,NA,NA,NA,NA,NA,NA,NA,NA,NA
"245","stim/objects/HouseObjects/ballofstring3.png",348,8,341,0.5,"stim/12.jpeg",1,2,1,2,"HouseObjects",2,4,"right","right",0.563000202,1,1,1,0,NA,NA,NA,NA,NA,NA,NA,NA,NA,NA,NA,NA,NA,NA,NA,NA,NA,NA,NA,NA,NA,NA,NA,NA
"259","stim/objects/HouseObjects/bottle3.png",349,8,342,0.5,"stim/23.jpeg",2,3,1,2,"HouseObjects",2,3,"right","left",0.668000221,0,0,1,0,NA,NA,NA,NA,NA,NA,NA,NA,NA,NA,NA,NA,NA,NA,NA,NA,NA,NA,NA,NA,NA,NA,NA,NA
"298","stim/objects/HouseObjects/doormat3.png",350,8,343,0.9,"stim/53.jpeg",5,3,3,2,"HouseObjects",2,2,"right","right",0.627000332,1,1,1,0,NA,NA,NA,NA,NA,NA,NA,NA,NA,NA,NA,NA,NA,NA,NA,NA,NA,NA,NA,NA,NA,NA,NA,NA
"512","stim/objects/Instruments/gong3.png",351,8,344,0.9,"stim/64.jpeg",6,4,3,2,"Instruments",1,2,"left","left",0.578000069,1,1,1,0,NA,NA,NA,NA,NA,NA,NA,NA,NA,NA,NA,NA,NA,NA,NA,NA,NA,NA,NA,NA,NA,NA,NA,NA
"447","stim/objects/Instruments/drums4.png",352,8,345,0.7,"stim/43.jpeg",4,3,2,1,"Instruments",1,4,"left","right",0.620000124,0,0,1,0,31,8,1,0.7,1,"stim/43.jpeg",4,3,"stim/43.jpeg",4,"right",1.991999865,2,4,2.795000076,3,1.586999893,31,0,0,NA,0,NA,1
"317","stim/objects/HouseObjects/dustpan3.png",353,8,346,0.9,"stim/51.jpeg",5,1,3,2,"HouseObjects",2,2,"right","right",0.63100028,1,1,1,0,NA,NA,NA,NA,NA,NA,NA,NA,NA,NA,NA,NA,NA,NA,NA,NA,NA,NA,NA,NA,NA,NA,NA,NA
"349","stim/objects/HouseObjects/garbagebin3.png",354,8,347,0.9,"stim/53.jpeg",5,3,3,2,"HouseObjects",2,4,"right","right",0.590000153,1,1,1,0,NA,NA,NA,NA,NA,NA,NA,NA,NA,NA,NA,NA,NA,NA,NA,NA,NA,NA,NA,NA,NA,NA,NA,NA
"565","stim/objects/Instruments/violin3.png",355,8,348,0.3,"stim/33.jpeg",3,3,2,1,"Instruments",1,1,"left","left",0.56400013,1,1,1,0,33,8,1,0.3,1,"stim/33.jpeg",3,3,"stim/33.jpeg",1,"right",1.570999861,3,2,1.924000025,2,5.187000036,33,0,0,NA,0,NA,1
"430","stim/objects/Instruments/clarinet3.png",356,8,349,0.5,"stim/22.jpeg",2,2,1,2,"Instruments",1,1,"left","right",0.588000059,0,0,1,0,NA,NA,NA,NA,NA,NA,NA,NA,NA,NA,NA,NA,NA,NA,NA,NA,NA,NA,NA,NA,NA,NA,NA,NA
"299","stim/objects/HouseObjects/doormat3.png",357,8,350,0.9,"stim/54.jpeg",5,4,3,2,"HouseObjects",2,4,"right","right",0.601000071,1,1,1,0,NA,NA,NA,NA,NA,NA,NA,NA,NA,NA,NA,NA,NA,NA,NA,NA,NA,NA,NA,NA,NA,NA,NA,NA
"256","stim/objects/HouseObjects/blender3.png",358,8,351,0.5,"stim/22.jpeg",2,2,1,2,"HouseObjects",2,2,"right","left",0.518000126,0,0,1,0,NA,NA,NA,NA,NA,NA,NA,NA,NA,NA,NA,NA,NA,NA,NA,NA,NA,NA,NA,NA,NA,NA,NA,NA
"300","stim/objects/HouseObjects/doormat3.png",359,8,352,0.9,"stim/53.jpeg",5,3,3,2,"HouseObjects",2,2,"right","right",0.624000311,1,1,1,0,NA,NA,NA,NA,NA,NA,NA,NA,NA,NA,NA,NA,NA,NA,NA,NA,NA,NA,NA,NA,NA,NA,NA,NA
"350","stim/objects/HouseObjects/garbagebin3.png",360,8,353,0.9,"stim/51.jpeg",5,1,3,2,"HouseObjects",2,4,"right","right",0.624000072,1,1,1,0,NA,NA,NA,NA,NA,NA,NA,NA,NA,NA,NA,NA,NA,NA,NA,NA,NA,NA,NA,NA,NA,NA,NA,NA
"481","stim/objects/Instruments/flutetrans3.png",361,8,354,0.9,"stim/62.jpeg",6,2,3,2,"Instruments",1,2,"left","left",0.670000076,1,1,1,0,NA,NA,NA,NA,NA,NA,NA,NA,NA,NA,NA,NA,NA,NA,NA,NA,NA,NA,NA,NA,NA,NA,NA,NA
"496","stim/objects/Instruments/frenchhorn3.png",362,8,355,0.9,"stim/64.jpeg",6,4,3,2,"Instruments",1,3,"left","left",0.612000227,1,1,1,0,NA,NA,NA,NA,NA,NA,NA,NA,NA,NA,NA,NA,NA,NA,NA,NA,NA,NA,NA,NA,NA,NA,NA,NA
"452","stim/objects/Instruments/electricguitar3.png",363,8,356,0.7,"stim/42.jpeg",4,2,2,2,"Instruments",1,1,"left","right",0.475000143,0,0,1,0,NA,NA,NA,NA,NA,NA,NA,NA,NA,NA,NA,NA,NA,NA,NA,NA,NA,NA,NA,NA,NA,NA,NA,NA
"272","stim/objects/HouseObjects/clothesdryingrack3.png",364,8,357,0.7,"stim/31.jpeg",3,1,2,2,"HouseObjects",2,1,"right","left",0.584000349,0,0,1,0,NA,NA,NA,NA,NA,NA,NA,NA,NA,NA,NA,NA,NA,NA,NA,NA,NA,NA,NA,NA,NA,NA,NA,NA
"570","stim/objects/Instruments/xylophone4.png",365,8,358,0.9,"stim/62.jpeg",6,2,3,1,"Instruments",1,4,"left","left",0.640000105,1,1,1,0,43,8,1,0.9,1,"stim/62.jpeg",6,2,"stim/62.jpeg",4,"right",1.954999924,2,4,2.245999813,1,0.851999998,43,0,0,NA,0,NA,1
"513","stim/objects/Instruments/gong3.png",366,8,359,0.9,"stim/63.jpeg",6,3,3,2,"Instruments",1,4,"left","right",0.47200036,0,0,1,0,NA,NA,NA,NA,NA,NA,NA,NA,NA,NA,NA,NA,NA,NA,NA,NA,NA,NA,NA,NA,NA,NA,NA,NA
"497","stim/objects/Instruments/frenchhorn3.png",367,8,360,0.9,"stim/61.jpeg",6,1,3,2,"Instruments",1,4,"left","left",0.471000195,1,1,1,0,NA,NA,NA,NA,NA,NA,NA,NA,NA,NA,NA,NA,NA,NA,NA,NA,NA,NA,NA,NA,NA,NA,NA,NA
"514","stim/objects/Instruments/gong3.png",368,8,361,0.9,"stim/64.jpeg",6,4,3,2,"Instruments",1,1,"left","left",0.426000118,1,1,1,0,NA,NA,NA,NA,NA,NA,NA,NA,NA,NA,NA,NA,NA,NA,NA,NA,NA,NA,NA,NA,NA,NA,NA,NA
"418","stim/objects/Instruments/bassdrum3.png",369,8,362,0.5,"stim/12.jpeg",1,2,1,2,"Instruments",1,4,"left","right",0.507000208,0,0,1,0,NA,NA,NA,NA,NA,NA,NA,NA,NA,NA,NA,NA,NA,NA,NA,NA,NA,NA,NA,NA,NA,NA,NA,NA
"561","stim/objects/Instruments/musicstand3.png",370,8,363,0.3,"stim/31.jpeg",3,1,2,1,"Instruments",1,2,"left","right",0.680000305,0,0,1,0,137,8,1,0.3,1,"stim/31.jpeg",3,1,"stim/31.jpeg",2,"right",3.754999876,2,3,3.037999868,3,3.411000013,137,0,0,NA,0,NA,1
"281","stim/objects/HouseObjects/coffee3.png",371,8,364,0.7,"stim/33.jpeg",3,3,2,2,"HouseObjects",2,1,"right","left",0.559000254,0,0,1,0,NA,NA,NA,NA,NA,NA,NA,NA,NA,NA,NA,NA,NA,NA,NA,NA,NA,NA,NA,NA,NA,NA,NA,NA
"337","stim/objects/HouseObjects/flyswatter3.png",372,8,365,0.9,"stim/54.jpeg",5,4,3,2,"HouseObjects",2,3,"right","right",0.578000069,1,1,1,0,NA,NA,NA,NA,NA,NA,NA,NA,NA,NA,NA,NA,NA,NA,NA,NA,NA,NA,NA,NA,NA,NA,NA,NA
"473","stim/objects/Instruments/flutetrans3.png",373,8,366,0.9,"stim/62.jpeg",6,2,3,2,"Instruments",1,2,"left","left",0.621000051,1,1,1,0,NA,NA,NA,NA,NA,NA,NA,NA,NA,NA,NA,NA,NA,NA,NA,NA,NA,NA,NA,NA,NA,NA,NA,NA
"428","stim/objects/Instruments/chime3.png",374,8,367,0.5,"stim/22.jpeg",2,2,1,2,"Instruments",1,1,"left","right",0.624000311,0,0,1,0,NA,NA,NA,NA,NA,NA,NA,NA,NA,NA,NA,NA,NA,NA,NA,NA,NA,NA,NA,NA,NA,NA,NA,NA
"244","stim/objects/HouseObjects/ballofstring3.png",375,8,368,0.5,"stim/11.jpeg",1,1,1,2,"HouseObjects",2,2,"right","left",0.537000179,0,0,1,0,NA,NA,NA,NA,NA,NA,NA,NA,NA,NA,NA,NA,NA,NA,NA,NA,NA,NA,NA,NA,NA,NA,NA,NA
"415","stim/objects/Instruments/banjo3.png",376,8,369,0.5,"stim/14.jpeg",1,4,1,2,"Instruments",1,4,"left","right",0.508000135,0,0,1,0,NA,NA,NA,NA,NA,NA,NA,NA,NA,NA,NA,NA,NA,NA,NA,NA,NA,NA,NA,NA,NA,NA,NA,NA
"309","stim/objects/HouseObjects/dustpan3.png",377,8,370,0.9,"stim/52.jpeg",5,2,3,2,"HouseObjects",2,1,"right","right",0.470999956,1,1,1,0,NA,NA,NA,NA,NA,NA,NA,NA,NA,NA,NA,NA,NA,NA,NA,NA,NA,NA,NA,NA,NA,NA,NA,NA
"567","stim/objects/Instruments/vuvuzela3.png",378,8,371,0.3,"stim/34.jpeg",3,4,2,1,"Instruments",1,4,"left","left",0.519000053,1,1,1,0,60,8,1,0.3,1,"stim/34.jpeg",3,4,"stim/34.jpeg",4,"right",1.06099987,2,4,2.338999987,3,4.717000008,60,0,1,NA,0,NA,1
"532","stim/objects/Instruments/grandpiano3.png",379,8,372,0.9,"stim/63.jpeg",6,3,3,2,"Instruments",1,3,"left","left",0.512000322,1,1,1,0,NA,NA,NA,NA,NA,NA,NA,NA,NA,NA,NA,NA,NA,NA,NA,NA,NA,NA,NA,NA,NA,NA,NA,NA
"307","stim/objects/HouseObjects/doormat4.png",380,8,373,0.9,"stim/53.jpeg",5,3,3,1,"HouseObjects",2,1,"right","right",0.531000137,1,1,1,0,68,8,1,0.9,2,"stim/53.jpeg",5,3,"stim/53.jpeg",1,"left",1.154999733,4,1,1.503000021,2,6.487999916,68,1,0,0,0,0,1
"364","stim/objects/HouseObjects/glass3.png",381,8,374,0.9,"stim/52.jpeg",5,2,3,2,"HouseObjects",2,4,"right","left",0.627000093,0,0,1,0,NA,NA,NA,NA,NA,NA,NA,NA,NA,NA,NA,NA,NA,NA,NA,NA,NA,NA,NA,NA,NA,NA,NA,NA
"249","stim/objects/HouseObjects/barbecuelighter4.png",382,8,375,0.7,"stim/31.jpeg",3,1,2,1,"HouseObjects",2,1,"right","",NA,0,0,1,0,92,8,1,0.7,2,"stim/31.jpeg",3,1,"stim/31.jpeg",1,"right",1.055999994,4,3,0.902999878,2,0.31400013,92,0,0,NA,0,NA,1
"416","stim/objects/Instruments/banjo3.png",383,8,376,0.5,"stim/11.jpeg",1,1,1,2,"Instruments",1,2,"left","left",0.560000181,1,1,1,0,NA,NA,NA,NA,NA,NA,NA,NA,NA,NA,NA,NA,NA,NA,NA,NA,NA,NA,NA,NA,NA,NA,NA,NA
"405","stim/objects/HouseObjects/wateringcan4.png",384,8,377,0.1,"stim/64.jpeg",6,4,3,1,"HouseObjects",2,2,"right","left",0.644000053,0,0,1,0,147,8,1,0.1,2,"stim/64.jpeg",6,4,"stim/64.jpeg",2,"right",0.892999887,3,2,3.16899991,3,0.592999935,147,0,0,NA,0,NA,1
"492","stim/objects/Instruments/frenchhorn3.png",385,8,378,0.9,"stim/61.jpeg",6,1,3,2,"Instruments",1,3,"left","left",0.549000025,1,1,1,0,NA,NA,NA,NA,NA,NA,NA,NA,NA,NA,NA,NA,NA,NA,NA,NA,NA,NA,NA,NA,NA,NA,NA,NA
"407","stim/objects/Instruments/accordion3.png",386,8,379,0.5,"stim/12.jpeg",1,2,1,2,"Instruments",1,4,"left","left",0.692000151,1,1,1,0,NA,NA,NA,NA,NA,NA,NA,NA,NA,NA,NA,NA,NA,NA,NA,NA,NA,NA,NA,NA,NA,NA,NA,NA
"365","stim/objects/HouseObjects/glass3.png",387,8,380,0.9,"stim/53.jpeg",5,3,3,2,"HouseObjects",2,3,"right","right",0.407999992,1,1,1,0,NA,NA,NA,NA,NA,NA,NA,NA,NA,NA,NA,NA,NA,NA,NA,NA,NA,NA,NA,NA,NA,NA,NA,NA
"293","stim/objects/HouseObjects/doormat3.png",388,8,381,0.9,"stim/54.jpeg",5,4,3,2,"HouseObjects",2,3,"right","right",0.455000162,1,1,1,0,NA,NA,NA,NA,NA,NA,NA,NA,NA,NA,NA,NA,NA,NA,NA,NA,NA,NA,NA,NA,NA,NA,NA,NA
"386","stim/objects/HouseObjects/ironingboard3.png",389,8,382,0.5,"stim/24.jpeg",2,4,1,1,"HouseObjects",2,1,"right","left",0.539000034,0,0,1,0,149,8,1,0.5,2,"stim/24.jpeg",2,4,"stim/24.jpeg",1,"right",1.661000013,4,3,0.536000013,2,0.211999893,149,0,0,NA,0,NA,1
"548","stim/objects/Instruments/hihat4.png",390,8,383,0.1,"stim/51.jpeg",5,1,3,1,"Instruments",1,2,"left","right",0.495000124,0,0,1,0,32,8,1,0.1,1,"stim/51.jpeg",5,1,"stim/51.jpeg",2,"right",1.246999979,2,2,4.532999992,2,3.358999968,32,0,0,NA,1,NA,1
"328","stim/objects/HouseObjects/flyswatter3.png",391,8,384,0.9,"stim/53.jpeg",5,3,3,2,"HouseObjects",2,1,"right","left",0.408000231,0,0,1,0,NA,NA,NA,NA,NA,NA,NA,NA,NA,NA,NA,NA,NA,NA,NA,NA,NA,NA,NA,NA,NA,NA,NA,NA
"558","stim/objects/Instruments/metronome4.png",392,8,385,0.9,"stim/64.jpeg",6,4,3,1,"Instruments",1,2,"left","left",0.576000214,1,1,1,0,7,8,1,0.9,1,"stim/64.jpeg",6,4,"stim/64.jpeg",2,"left",1.502999783,4,1,7.105999947,2,1.678999901,7,1,0,0,1,1,1
"556","stim/objects/Instruments/marimba4.png",393,8,386,0.9,"stim/63.jpeg",6,3,3,1,"Instruments",1,3,"left","right",0.457000017,0,0,1,0,102,8,1,0.9,1,"stim/63.jpeg",6,3,"stim/63.jpeg",3,"right",0.919999838,4,2,0.907999754,1,0.548999786,102,0,0,NA,0,NA,1
"465","stim/objects/Instruments/flute3.png",394,8,387,0.9,"stim/64.jpeg",6,4,3,2,"Instruments",1,1,"left","left",0.45600009,1,1,1,0,NA,NA,NA,NA,NA,NA,NA,NA,NA,NA,NA,NA,NA,NA,NA,NA,NA,NA,NA,NA,NA,NA,NA,NA
"404","stim/objects/HouseObjects/wateringcan3.png",395,8,388,0.7,"stim/32.jpeg",3,2,2,1,"HouseObjects",2,3,"right","right",0.614000082,1,1,1,0,168,8,1,0.7,2,"stim/32.jpeg",3,2,"stim/32.jpeg",3,"right",0.893999815,4,4,1.434000015,2,0.930000067,168,0,0,NA,0,NA,1
"436","stim/objects/Instruments/cymbal3.png",396,8,389,0.7,"stim/43.jpeg",4,3,2,2,"Instruments",1,3,"left","left",0.366000175,1,1,1,0,NA,NA,NA,NA,NA,NA,NA,NA,NA,NA,NA,NA,NA,NA,NA,NA,NA,NA,NA,NA,NA,NA,NA,NA
"431","stim/objects/Instruments/clarinet3.png",397,8,390,0.5,"stim/23.jpeg",2,3,1,2,"Instruments",1,1,"left","left",0.594000101,1,1,1,0,NA,NA,NA,NA,NA,NA,NA,NA,NA,NA,NA,NA,NA,NA,NA,NA,NA,NA,NA,NA,NA,NA,NA,NA
"562","stim/objects/Instruments/musicstand4.png",398,8,391,0.9,"stim/62.jpeg",6,2,3,1,"Instruments",1,2,"left","left",0.567000151,1,1,1,0,161,8,1,0.9,1,"stim/62.jpeg",6,2,"stim/62.jpeg",2,"right",0.837999821,3,1,1.438999891,1,2.717000008,161,0,0,NA,0,NA,1
"525","stim/objects/Instruments/grandpiano3.png",399,8,392,0.9,"stim/63.jpeg",6,3,3,2,"Instruments",1,3,"left","left",0.488000154,1,1,1,0,NA,NA,NA,NA,NA,NA,NA,NA,NA,NA,NA,NA,NA,NA,NA,NA,NA,NA,NA,NA,NA,NA,NA,NA
"351","stim/objects/HouseObjects/garbagebin3.png",400,8,393,0.9,"stim/51.jpeg",5,1,3,2,"HouseObjects",2,1,"right","right",0.5400002,1,1,1,0,NA,NA,NA,NA,NA,NA,NA,NA,NA,NA,NA,NA,NA,NA,NA,NA,NA,NA,NA,NA,NA,NA,NA,NA
"302","stim/objects/HouseObjects/doormat3.png",401,8,394,0.9,"stim/51.jpeg",5,1,3,2,"HouseObjects",2,3,"right","left",0.475000143,0,0,1,0,NA,NA,NA,NA,NA,NA,NA,NA,NA,NA,NA,NA,NA,NA,NA,NA,NA,NA,NA,NA,NA,NA,NA,NA
"330","stim/objects/HouseObjects/flyswatter3.png",402,8,395,0.9,"stim/53.jpeg",5,3,3,2,"HouseObjects",2,3,"right","right",0.588000059,1,1,1,0,NA,NA,NA,NA,NA,NA,NA,NA,NA,NA,NA,NA,NA,NA,NA,NA,NA,NA,NA,NA,NA,NA,NA,NA
"394","stim/objects/HouseObjects/match3.png",403,8,396,0.5,"stim/24.jpeg",2,4,1,1,"HouseObjects",2,3,"right","right",0.611000061,1,1,1,0,103,8,1,0.5,2,"stim/24.jpeg",2,4,"stim/24.jpeg",3,"right",1.159999847,4,2,1.31099987,4,0.86199975,103,0,0,NA,0,NA,1
"540","stim/objects/Instruments/grandpiano4.png",404,8,397,0.1,"stim/51.jpeg",5,1,3,1,"Instruments",1,4,"left","right",0.642000198,0,0,1,0,3,8,1,0.1,1,"stim/51.jpeg",5,1,"stim/51.jpeg",4,"left",1.690999746,4,2,8.035000086,4,4.094000101,3,1,0,0,1,1,1
"475","stim/objects/Instruments/flutetrans3.png",405,8,398,0.9,"stim/61.jpeg",6,1,3,2,"Instruments",1,2,"left","left",0.529000282,1,1,1,0,NA,NA,NA,NA,NA,NA,NA,NA,NA,NA,NA,NA,NA,NA,NA,NA,NA,NA,NA,NA,NA,NA,NA,NA
"396","stim/objects/HouseObjects/pan3.png",406,8,399,0.7,"stim/32.jpeg",3,2,2,1,"HouseObjects",2,2,"right","left",0.625000238,0,0,1,0,145,8,1,0.7,2,"stim/32.jpeg",3,2,"stim/32.jpeg",2,"right",0.819999933,3,3,1.052000046,2,0.50999999,145,0,0,NA,1,NA,1
"261","stim/objects/HouseObjects/bottle4.png",407,8,400,0.3,"stim/43.jpeg",4,3,2,1,"HouseObjects",2,3,"right","left",0.704000235,0,0,1,0,167,8,1,0.3,2,"stim/43.jpeg",4,3,"stim/43.jpeg",3,"right",1.128999949,3,2,1.103999853,1,2.957999706,167,0,0,NA,0,NA,1
"320","stim/objects/HouseObjects/dustpan3.png",408,8,401,0.9,"stim/52.jpeg",5,2,3,2,"HouseObjects",2,3,"right","right",0.604000092,1,1,1,0,NA,NA,NA,NA,NA,NA,NA,NA,NA,NA,NA,NA,NA,NA,NA,NA,NA,NA,NA,NA,NA,NA,NA,NA
"366","stim/objects/HouseObjects/glass3.png",409,8,402,0.9,"stim/53.jpeg",5,3,3,2,"HouseObjects",2,2,"right","left",0.57400012,0,0,1,0,NA,NA,NA,NA,NA,NA,NA,NA,NA,NA,NA,NA,NA,NA,NA,NA,NA,NA,NA,NA,NA,NA,NA,NA
"367","stim/objects/HouseObjects/glass3.png",410,8,403,0.9,"stim/54.jpeg",5,4,3,2,"HouseObjects",2,1,"right","right",0.501000166,1,1,1,0,NA,NA,NA,NA,NA,NA,NA,NA,NA,NA,NA,NA,NA,NA,NA,NA,NA,NA,NA,NA,NA,NA,NA,NA
"375","stim/objects/HouseObjects/glass4.png",411,8,404,0.9,"stim/53.jpeg",5,3,3,1,"HouseObjects",2,4,"right","right",0.586000204,1,1,1,0,116,8,1,0.9,2,"stim/53.jpeg",5,3,"stim/53.jpeg",4,"left",1.065999746,4,1,6.335999966,2,5.891000032,116,1,0,0,0,0,1
"466","stim/objects/Instruments/flute3.png",412,8,405,0.9,"stim/62.jpeg",6,2,3,2,"Instruments",1,3,"left","left",0.589000225,1,1,1,0,NA,NA,NA,NA,NA,NA,NA,NA,NA,NA,NA,NA,NA,NA,NA,NA,NA,NA,NA,NA,NA,NA,NA,NA
"421","stim/objects/Instruments/bassguitar3.png",413,8,406,0.5,"stim/24.jpeg",2,4,1,2,"Instruments",1,2,"left","",NA,0,0,1,0,NA,NA,NA,NA,NA,NA,NA,NA,NA,NA,NA,NA,NA,NA,NA,NA,NA,NA,NA,NA,NA,NA,NA,NA
"280","stim/objects/HouseObjects/coffee3.png",414,8,407,0.7,"stim/32.jpeg",3,2,2,2,"HouseObjects",2,2,"right","right",0.507000208,1,1,1,0,NA,NA,NA,NA,NA,NA,NA,NA,NA,NA,NA,NA,NA,NA,NA,NA,NA,NA,NA,NA,NA,NA,NA,NA
"498","stim/objects/Instruments/frenchhorn3.png",415,8,408,0.9,"stim/61.jpeg",6,1,3,2,"Instruments",1,1,"left","left",0.508000135,1,1,1,0,NA,NA,NA,NA,NA,NA,NA,NA,NA,NA,NA,NA,NA,NA,NA,NA,NA,NA,NA,NA,NA,NA,NA,NA
"368","stim/objects/HouseObjects/glass3.png",416,8,409,0.9,"stim/52.jpeg",5,2,3,2,"HouseObjects",2,2,"right","right",0.440000296,1,1,1,0,NA,NA,NA,NA,NA,NA,NA,NA,NA,NA,NA,NA,NA,NA,NA,NA,NA,NA,NA,NA,NA,NA,NA,NA
"551","stim/objects/Instruments/laud3.png",417,8,410,0.5,"stim/21.jpeg",2,1,1,1,"Instruments",1,1,"left","left",0.600000381,1,1,1,0,37,8,1,0.5,2,"stim/21.jpeg",2,1,"stim/21.jpeg",1,"right",0.977999926,3,4,5.431999922,3,3.559999943,37,0,0,NA,0,NA,1
"526","stim/objects/Instruments/grandpiano3.png",418,8,411,0.9,"stim/62.jpeg",6,2,3,2,"Instruments",1,2,"left","left",0.622000217,1,1,1,0,NA,NA,NA,NA,NA,NA,NA,NA,NA,NA,NA,NA,NA,NA,NA,NA,NA,NA,NA,NA,NA,NA,NA,NA
"484","stim/objects/Instruments/flutetrans3.png",419,8,412,0.9,"stim/63.jpeg",6,3,3,2,"Instruments",1,3,"left","left",0.59400034,1,1,1,0,NA,NA,NA,NA,NA,NA,NA,NA,NA,NA,NA,NA,NA,NA,NA,NA,NA,NA,NA,NA,NA,NA,NA,NA
"247","stim/objects/HouseObjects/barbecuelighter3.png",420,8,413,0.5,"stim/12.jpeg",1,2,1,2,"HouseObjects",2,1,"right","right",0.485000134,1,1,1,0,NA,NA,NA,NA,NA,NA,NA,NA,NA,NA,NA,NA,NA,NA,NA,NA,NA,NA,NA,NA,NA,NA,NA,NA
"454","stim/objects/Instruments/electricguitar3.png",421,8,414,0.7,"stim/43.jpeg",4,3,2,2,"Instruments",1,4,"left","right",0.517000198,0,0,1,0,NA,NA,NA,NA,NA,NA,NA,NA,NA,NA,NA,NA,NA,NA,NA,NA,NA,NA,NA,NA,NA,NA,NA,NA
"467","stim/objects/Instruments/flute3.png",422,8,415,0.9,"stim/64.jpeg",6,4,3,2,"Instruments",1,4,"left","left",0.633000135,1,1,1,0,NA,NA,NA,NA,NA,NA,NA,NA,NA,NA,NA,NA,NA,NA,NA,NA,NA,NA,NA,NA,NA,NA,NA,NA
"477","stim/objects/Instruments/flutetrans3.png",423,8,416,0.9,"stim/64.jpeg",6,4,3,2,"Instruments",1,3,"left","left",0.542000055,1,1,1,0,NA,NA,NA,NA,NA,NA,NA,NA,NA,NA,NA,NA,NA,NA,NA,NA,NA,NA,NA,NA,NA,NA,NA,NA
"354","stim/objects/HouseObjects/garbagebin3.png",424,8,417,0.9,"stim/54.jpeg",5,4,3,2,"HouseObjects",2,3,"right","left",0.505000114,0,0,1,0,NA,NA,NA,NA,NA,NA,NA,NA,NA,NA,NA,NA,NA,NA,NA,NA,NA,NA,NA,NA,NA,NA,NA,NA
"499","stim/objects/Instruments/frenchhorn3.png",425,8,418,0.9,"stim/64.jpeg",6,4,3,2,"Instruments",1,3,"left","left",0.522000313,1,1,1,0,NA,NA,NA,NA,NA,NA,NA,NA,NA,NA,NA,NA,NA,NA,NA,NA,NA,NA,NA,NA,NA,NA,NA,NA
"344","stim/objects/HouseObjects/garbagebin3.png",426,8,419,0.9,"stim/52.jpeg",5,2,3,2,"HouseObjects",2,1,"right","right",0.468000174,1,1,1,0,NA,NA,NA,NA,NA,NA,NA,NA,NA,NA,NA,NA,NA,NA,NA,NA,NA,NA,NA,NA,NA,NA,NA,NA
"546","stim/objects/Instruments/harp4.png",427,8,420,0.1,"stim/54.jpeg",5,4,3,1,"Instruments",1,2,"left","right",0.508000135,0,0,1,0,127,8,1,0.1,1,"stim/54.jpeg",5,4,"stim/54.jpeg",2,"right",0.832999945,3,1,3.377000093,2,1.738999844,127,0,0,NA,1,NA,1
"301","stim/objects/HouseObjects/doormat3.png",428,8,421,0.9,"stim/54.jpeg",5,4,3,2,"HouseObjects",2,2,"right","right",0.493000031,1,1,1,0,NA,NA,NA,NA,NA,NA,NA,NA,NA,NA,NA,NA,NA,NA,NA,NA,NA,NA,NA,NA,NA,NA,NA,NA
"385","stim/objects/HouseObjects/iron4.png",429,8,422,0.9,"stim/54.jpeg",5,4,3,1,"HouseObjects",2,2,"right","right",0.517000198,1,1,1,0,50,8,1,0.9,2,"stim/54.jpeg",5,4,"stim/54.jpeg",2,"right",1.055000067,3,2,0.851999998,2,4.219000101,50,0,0,NA,1,NA,1
"327","stim/objects/HouseObjects/flyswatter3.png",430,8,423,0.9,"stim/51.jpeg",5,1,3,2,"HouseObjects",2,4,"right","right",0.627000332,1,1,1,0,NA,NA,NA,NA,NA,NA,NA,NA,NA,NA,NA,NA,NA,NA,NA,NA,NA,NA,NA,NA,NA,NA,NA,NA
"254","stim/objects/HouseObjects/bleachbottle3.png",431,8,424,0.5,"stim/11.jpeg",1,1,1,2,"HouseObjects",2,1,"right","left",0.656000137,0,0,1,0,NA,NA,NA,NA,NA,NA,NA,NA,NA,NA,NA,NA,NA,NA,NA,NA,NA,NA,NA,NA,NA,NA,NA,NA
"399","stim/objects/HouseObjects/pitcher4.png",432,8,425,0.1,"stim/61.jpeg",6,1,3,1,"HouseObjects",2,4,"right","left",0.611000061,0,0,1,0,61,8,1,0.1,2,"stim/61.jpeg",6,1,"stim/61.jpeg",4,"right",0.988999844,4,2,0.593999863,1,0.580000162,61,0,0,NA,0,NA,1
"557","stim/objects/Instruments/metronome3.png",433,8,426,0.5,"stim/24.jpeg",2,4,1,1,"Instruments",1,2,"left","right",0.677000046,0,0,1,0,47,8,1,0.5,2,"stim/24.jpeg",2,4,"stim/24.jpeg",2,"right",0.974999905,3,4,1.011999846,4,2.34499979,47,0,1,NA,0,NA,1
"395","stim/objects/HouseObjects/match4.png",434,8,427,0.1,"stim/63.jpeg",6,3,3,1,"HouseObjects",2,2,"right","left",0.592000246,0,0,1,0,90,8,1,0.1,2,"stim/63.jpeg",6,3,"stim/63.jpeg",2,"left",1.273999929,2,2,4.134000063,3,3.378000021,90,1,0,0,0,0,1
"303","stim/objects/HouseObjects/doormat3.png",435,8,428,0.9,"stim/52.jpeg",5,2,3,2,"HouseObjects",2,3,"right","right",0.643000126,1,1,1,0,NA,NA,NA,NA,NA,NA,NA,NA,NA,NA,NA,NA,NA,NA,NA,NA,NA,NA,NA,NA,NA,NA,NA,NA
"468","stim/objects/Instruments/flute3.png",436,8,429,0.9,"stim/64.jpeg",6,4,3,2,"Instruments",1,4,"left","",NA,0,0,1,0,NA,NA,NA,NA,NA,NA,NA,NA,NA,NA,NA,NA,NA,NA,NA,NA,NA,NA,NA,NA,NA,NA,NA,NA
"265","stim/objects/HouseObjects/bucket3.png",437,8,430,0.5,"stim/22.jpeg",2,2,1,2,"HouseObjects",2,3,"right","left",0.578000307,0,0,1,0,NA,NA,NA,NA,NA,NA,NA,NA,NA,NA,NA,NA,NA,NA,NA,NA,NA,NA,NA,NA,NA,NA,NA,NA
"339","stim/objects/HouseObjects/flyswatter3.png",438,8,431,0.9,"stim/52.jpeg",5,2,3,2,"HouseObjects",2,2,"right","right",0.478000164,1,1,1,0,NA,NA,NA,NA,NA,NA,NA,NA,NA,NA,NA,NA,NA,NA,NA,NA,NA,NA,NA,NA,NA,NA,NA,NA
"283","stim/objects/HouseObjects/cushion3.png",439,8,432,0.7,"stim/32.jpeg",3,2,2,2,"HouseObjects",2,1,"right","left",0.494000196,0,0,1,0,NA,NA,NA,NA,NA,NA,NA,NA,NA,NA,NA,NA,NA,NA,NA,NA,NA,NA,NA,NA,NA,NA,NA,NA
"273","stim/objects/HouseObjects/clothesdryingrack3.png",440,8,433,0.7,"stim/34.jpeg",3,4,2,2,"HouseObjects",2,3,"right","right",0.528000355,1,1,1,0,NA,NA,NA,NA,NA,NA,NA,NA,NA,NA,NA,NA,NA,NA,NA,NA,NA,NA,NA,NA,NA,NA,NA,NA
"470","stim/objects/Instruments/flute3.png",441,8,434,0.9,"stim/61.jpeg",6,1,3,2,"Instruments",1,1,"left","left",0.461000204,1,1,1,0,NA,NA,NA,NA,NA,NA,NA,NA,NA,NA,NA,NA,NA,NA,NA,NA,NA,NA,NA,NA,NA,NA,NA,NA
"419","stim/objects/Instruments/bassdrum3.png",442,8,435,0.5,"stim/11.jpeg",1,1,1,2,"Instruments",1,3,"left","right",0.555000067,0,0,1,0,NA,NA,NA,NA,NA,NA,NA,NA,NA,NA,NA,NA,NA,NA,NA,NA,NA,NA,NA,NA,NA,NA,NA,NA
"440","stim/objects/Instruments/doublebass3.png",443,8,436,0.7,"stim/42.jpeg",4,2,2,2,"Instruments",1,2,"left","left",0.608000278,1,1,1,0,NA,NA,NA,NA,NA,NA,NA,NA,NA,NA,NA,NA,NA,NA,NA,NA,NA,NA,NA,NA,NA,NA,NA,NA
"516","stim/objects/Instruments/gong3.png",444,8,437,0.9,"stim/63.jpeg",6,3,3,2,"Instruments",1,4,"left","left",0.522000074,1,1,1,0,NA,NA,NA,NA,NA,NA,NA,NA,NA,NA,NA,NA,NA,NA,NA,NA,NA,NA,NA,NA,NA,NA,NA,NA
"517","stim/objects/Instruments/gong3.png",445,8,438,0.9,"stim/63.jpeg",6,3,3,2,"Instruments",1,4,"left","left",0.434000254,1,1,1,0,NA,NA,NA,NA,NA,NA,NA,NA,NA,NA,NA,NA,NA,NA,NA,NA,NA,NA,NA,NA,NA,NA,NA,NA
"547","stim/objects/Instruments/hihat3.png",446,8,439,0.5,"stim/12.jpeg",1,2,1,1,"Instruments",1,3,"left","right",0.493000269,0,0,1,0,36,8,1,0.5,1,"stim/12.jpeg",1,2,"stim/12.jpeg",3,"left",1.273999929,4,3,3.789000034,1,2.701999903,36,1,0,0,0,0,1
"503","stim/objects/Instruments/frenchhorn3.png",447,8,440,0.9,"stim/63.jpeg",6,3,3,2,"Instruments",1,3,"left","left",0.532000303,1,1,1,0,NA,NA,NA,NA,NA,NA,NA,NA,NA,NA,NA,NA,NA,NA,NA,NA,NA,NA,NA,NA,NA,NA,NA,NA
"569","stim/objects/Instruments/xylophone3.png",448,8,441,0.3,"stim/31.jpeg",3,1,2,1,"Instruments",1,3,"left","right",0.610000134,0,0,1,0,197,8,1,0.3,1,"stim/31.jpeg",3,1,"stim/31.jpeg",3,"right",0.932999849,3,2,0.951999903,1,0.392999887,197,0,0,NA,0,NA,1
"266","stim/objects/HouseObjects/bucket3.png",449,8,442,0.5,"stim/21.jpeg",2,1,1,2,"HouseObjects",2,4,"right","right",0.741000175,1,1,1,0,NA,NA,NA,NA,NA,NA,NA,NA,NA,NA,NA,NA,NA,NA,NA,NA,NA,NA,NA,NA,NA,NA,NA,NA
"397","stim/objects/HouseObjects/pan4.png",450,8,443,0.1,"stim/64.jpeg",6,4,3,1,"HouseObjects",2,2,"right","left",0.531000137,0,0,1,0,58,8,1,0.1,2,"stim/64.jpeg",6,4,"stim/64.jpeg",2,"left",1.371999979,3,2,3.996999741,2,2.111000061,58,1,0,0,1,1,1
"483","stim/objects/Instruments/flutetrans3.png",451,8,444,0.9,"stim/61.jpeg",6,1,3,2,"Instruments",1,3,"left","left",0.57400012,1,1,1,0,NA,NA,NA,NA,NA,NA,NA,NA,NA,NA,NA,NA,NA,NA,NA,NA,NA,NA,NA,NA,NA,NA,NA,NA
"289","stim/objects/HouseObjects/dishsoap3.png",452,8,445,0.7,"stim/34.jpeg",3,4,2,2,"HouseObjects",2,4,"right","right",0.558000088,1,1,1,0,NA,NA,NA,NA,NA,NA,NA,NA,NA,NA,NA,NA,NA,NA,NA,NA,NA,NA,NA,NA,NA,NA,NA,NA
"536","stim/objects/Instruments/grandpiano3.png",453,8,446,0.9,"stim/62.jpeg",6,2,3,2,"Instruments",1,4,"left","left",0.551000118,1,1,1,0,NA,NA,NA,NA,NA,NA,NA,NA,NA,NA,NA,NA,NA,NA,NA,NA,NA,NA,NA,NA,NA,NA,NA,NA
"284","stim/objects/HouseObjects/cushion3.png",454,8,447,0.7,"stim/33.jpeg",3,3,2,2,"HouseObjects",2,1,"right","right",0.549000263,1,1,1,0,NA,NA,NA,NA,NA,NA,NA,NA,NA,NA,NA,NA,NA,NA,NA,NA,NA,NA,NA,NA,NA,NA,NA,NA
"441","stim/objects/Instruments/doublebass3.png",455,8,448,0.7,"stim/43.jpeg",4,3,2,2,"Instruments",1,2,"left","left",0.472000122,1,1,1,0,NA,NA,NA,NA,NA,NA,NA,NA,NA,NA,NA,NA,NA,NA,NA,NA,NA,NA,NA,NA,NA,NA,NA,NA
"534","stim/objects/Instruments/grandpiano3.png",456,8,449,0.9,"stim/61.jpeg",6,1,3,2,"Instruments",1,1,"left","left",0.510000229,1,1,1,0,NA,NA,NA,NA,NA,NA,NA,NA,NA,NA,NA,NA,NA,NA,NA,NA,NA,NA,NA,NA,NA,NA,NA,NA
"449","stim/objects/Instruments/electricdrumset3.png",457,8,450,0.7,"stim/44.jpeg",4,4,2,2,"Instruments",1,1,"left","left",0.528000116,1,1,1,0,NA,NA,NA,NA,NA,NA,NA,NA,NA,NA,NA,NA,NA,NA,NA,NA,NA,NA,NA,NA,NA,NA,NA,NA
"541","stim/objects/Instruments/guitarcase3.png",458,8,451,0.5,"stim/13.jpeg",1,3,1,1,"Instruments",1,1,"left","",NA,0,0,1,0,128,8,1,0.5,1,"stim/13.jpeg",1,3,"stim/13.jpeg",1,"right",2.836999893,4,4,2.930999994,2,1.066999912,128,0,0,NA,0,NA,1
"502","stim/objects/Instruments/frenchhorn3.png",459,8,452,0.9,"stim/62.jpeg",6,2,3,2,"Instruments",1,2,"left","left",0.38499999,1,1,1,0,NA,NA,NA,NA,NA,NA,NA,NA,NA,NA,NA,NA,NA,NA,NA,NA,NA,NA,NA,NA,NA,NA,NA,NA
"297","stim/objects/HouseObjects/doormat3.png",460,8,453,0.9,"stim/54.jpeg",5,4,3,2,"HouseObjects",2,2,"right","right",0.544000149,1,1,1,0,NA,NA,NA,NA,NA,NA,NA,NA,NA,NA,NA,NA,NA,NA,NA,NA,NA,NA,NA,NA,NA,NA,NA,NA
"504","stim/objects/Instruments/frenchhorn3.png",461,8,454,0.9,"stim/63.jpeg",6,3,3,2,"Instruments",1,1,"left","left",0.281000137,1,1,1,0,NA,NA,NA,NA,NA,NA,NA,NA,NA,NA,NA,NA,NA,NA,NA,NA,NA,NA,NA,NA,NA,NA,NA,NA
"538","stim/objects/Instruments/grandpiano3.png",462,8,455,0.9,"stim/61.jpeg",6,1,3,2,"Instruments",1,1,"left","right",0.39800024,0,0,1,0,NA,NA,NA,NA,NA,NA,NA,NA,NA,NA,NA,NA,NA,NA,NA,NA,NA,NA,NA,NA,NA,NA,NA,NA
"450","stim/objects/Instruments/electricdrumset3.png",463,8,456,0.7,"stim/41.jpeg",4,1,2,2,"Instruments",1,1,"left","left",0.536000252,1,1,1,0,NA,NA,NA,NA,NA,NA,NA,NA,NA,NA,NA,NA,NA,NA,NA,NA,NA,NA,NA,NA,NA,NA,NA,NA
"521","stim/objects/Instruments/gong3.png",464,8,457,0.9,"stim/62.jpeg",6,2,3,2,"Instruments",1,1,"left","right",0.474000216,0,0,1,0,NA,NA,NA,NA,NA,NA,NA,NA,NA,NA,NA,NA,NA,NA,NA,NA,NA,NA,NA,NA,NA,NA,NA,NA
"422","stim/objects/Instruments/bassguitar3.png",465,8,458,0.5,"stim/23.jpeg",2,3,1,2,"Instruments",1,4,"left","right",0.514000177,0,0,1,0,NA,NA,NA,NA,NA,NA,NA,NA,NA,NA,NA,NA,NA,NA,NA,NA,NA,NA,NA,NA,NA,NA,NA,NA
"390","stim/objects/HouseObjects/knife3.png",466,8,459,0.5,"stim/22.jpeg",2,2,1,1,"HouseObjects",2,2,"right","left",0.47200036,0,0,1,0,6,8,1,0.5,2,"stim/22.jpeg",2,2,"stim/22.jpeg",2,"left",4.006999969,4,2,8.687000036,2,6.52699995,6,1,1,1,1,1,1
"357","stim/objects/HouseObjects/garbagebin3.png",467,8,460,0.9,"stim/51.jpeg",5,1,3,2,"HouseObjects",2,1,"right","left",0.482000351,0,0,1,0,NA,NA,NA,NA,NA,NA,NA,NA,NA,NA,NA,NA,NA,NA,NA,NA,NA,NA,NA,NA,NA,NA,NA,NA
"501","stim/objects/Instruments/frenchhorn3.png",468,8,461,0.9,"stim/62.jpeg",6,2,3,2,"Instruments",1,4,"left","left",0.606000185,1,1,1,0,NA,NA,NA,NA,NA,NA,NA,NA,NA,NA,NA,NA,NA,NA,NA,NA,NA,NA,NA,NA,NA,NA,NA,NA
"515","stim/objects/Instruments/gong3.png",469,8,462,0.9,"stim/62.jpeg",6,2,3,2,"Instruments",1,4,"left","left",0.517000198,1,1,1,0,NA,NA,NA,NA,NA,NA,NA,NA,NA,NA,NA,NA,NA,NA,NA,NA,NA,NA,NA,NA,NA,NA,NA,NA
"555","stim/objects/Instruments/marimba3.png",470,8,463,0.5,"stim/23.jpeg",2,3,1,1,"Instruments",1,2,"left","right",0.441000223,0,0,1,0,165,8,1,0.5,2,"stim/23.jpeg",2,3,"stim/23.jpeg",2,"right",0.803999901,4,3,1.011000156,2,0.362999916,165,0,1,NA,1,NA,1
"282","stim/objects/HouseObjects/coffee4.png",471,8,464,0.3,"stim/41.jpeg",4,1,2,1,"HouseObjects",2,3,"right","left",0.565000296,0,0,1,0,166,8,1,0.3,2,"stim/41.jpeg",4,1,"stim/41.jpeg",3,"left",4.625999928,2,2,2.25,4,1.242000103,166,1,0,0,0,0,1
