"","participant","OvsN","PE_level","object_cat","obj_file","scn_file","corr_scn_cat","corr_scn_inst","scn_file.1","corr_loc","key_resp_id.keys","key_resp_id.rt","key_resp_conf.keys","key_resp_assoc.keys","key_resp_assoc.rt","key_resp_loc.keys","key_resp_loc.rt","trialN","id_acc","assoc.acc","cond_assoc","loc.acc","cond_loc","group"
"1",8,1,0.3,1,"stim/objects/Instruments/accordion4.png","stim/32.jpeg",3,2,"stim/32.jpeg",4,"right",0.970999956,3,3,6.878999949,4,5.705999851,1,0,0,NA,1,NA,1
"2",8,1,0.1,1,"stim/objects/Instruments/flute4.png","stim/51.jpeg",5,1,"stim/51.jpeg",3,"right",2.245999813,4,2,9.919999838,3,2.957999945,2,0,0,NA,1,NA,1
"3",8,1,0.1,1,"stim/objects/Instruments/grandpiano4.png","stim/51.jpeg",5,1,"stim/51.jpeg",4,"left",1.690999746,4,2,8.035000086,4,4.094000101,3,1,0,0,1,1,1
"4",8,1,0.3,1,"stim/objects/Instruments/banjo4.png","stim/31.jpeg",3,1,"stim/31.jpeg",3,"right",2.955999851,3,2,3.197999954,3,2.069999933,4,0,0,NA,1,NA,1
"5",8,2,0,1,"stim/objects/Instruments/harp.png","",0,0,"",0,"right",2.600999832,NA,NA,NA,NA,NA,5,1,NA,NA,NA,NA,1
"6",8,1,0.5,2,"stim/objects/HouseObjects/knife3.png","stim/22.jpeg",2,2,"stim/22.jpeg",2,"left",4.006999969,4,2,8.687000036,2,6.52699995,6,1,1,1,1,1,1
"7",8,1,0.9,1,"stim/objects/Instruments/metronome4.png","stim/64.jpeg",6,4,"stim/64.jpeg",2,"left",1.502999783,4,1,7.105999947,2,1.678999901,7,1,0,0,1,1,1
"8",8,2,0,2,"stim/objects/HouseObjects/blender.png","",0,0,"",0,"right",2.487999916,NA,NA,NA,NA,NA,8,1,NA,NA,NA,NA,1
"9",8,1,0.1,1,"stim/objects/Instruments/frenchhorn4.png","stim/53.jpeg",5,3,"stim/53.jpeg",4,"left",1.648000002,4,2,8.995999813,1,3.38499999,9,1,0,0,0,0,1
"10",8,1,0.1,2,"stim/objects/HouseObjects/towel4.png","stim/62.jpeg",6,2,"stim/62.jpeg",2,"right",1.644999981,3,1,4.879999876,2,1.688999891,10,0,0,NA,1,NA,1
"11",8,2,0,2,"stim/objects/HouseObjects/pan.png","",0,0,"",0,"right",2.532999992,NA,NA,NA,NA,NA,11,1,NA,NA,NA,NA,1
"12",8,1,0.7,1,"stim/objects/Instruments/clarinet4.png","stim/43.jpeg",4,3,"stim/43.jpeg",3,"left",1.342999935,4,4,8.462000132,2,4.815000057,12,1,0,0,0,0,1
"13",8,2,0,2,"stim/objects/HouseObjects/bleachbottle2.png","",0,0,"",0,"right",1.372999907,NA,NA,NA,NA,NA,13,1,NA,NA,NA,NA,1
"14",8,2,0,1,"stim/objects/Instruments/banjo2.png","",0,0,"",0,"right",1.20299983,NA,NA,NA,NA,NA,14,1,NA,NA,NA,NA,1
"15",8,2,0,2,"stim/objects/HouseObjects/ashtray.png","",0,0,"",0,"right",1.237999916,NA,NA,NA,NA,NA,15,1,NA,NA,NA,NA,1
"16",8,2,0,1,"stim/objects/Instruments/banjo.png","",0,0,"",0,"left",1.133999825,NA,NA,NA,NA,NA,16,0,NA,NA,NA,NA,1
"17",8,1,0.5,1,"stim/objects/Instruments/keyboard3.png","stim/13.jpeg",1,3,"stim/13.jpeg",2,"left",1.389999866,4,1,5.414999962,4,2.409999847,17,1,0,0,0,0,1
"18",8,2,0,1,"stim/objects/Instruments/bassdrum2.png","",0,0,"",0,"right",1.019000053,NA,NA,NA,NA,NA,18,1,NA,NA,NA,NA,1
"19",8,2,0,1,"stim/objects/Instruments/flutetrans.png","",0,0,"",0,"right",2.423000097,NA,NA,NA,NA,NA,19,1,NA,NA,NA,NA,1
"20",8,2,0,1,"stim/objects/Instruments/drums.png","",0,0,"",0,"right",1.403999805,NA,NA,NA,NA,NA,20,1,NA,NA,NA,NA,1
"21",8,2,0,2,"stim/objects/HouseObjects/cushion2.png","",0,0,"",0,"right",0.940000057,NA,NA,NA,NA,NA,21,1,NA,NA,NA,NA,1
"22",8,1,0.3,2,"stim/objects/HouseObjects/dishsoap4.png","stim/43.jpeg",4,3,"stim/43.jpeg",1,"left",1.055000067,4,2,4.94299984,1,0.765999794,22,1,0,0,1,1,1
"23",8,1,0.3,2,"stim/objects/HouseObjects/broom4.png","stim/44.jpeg",4,4,"stim/44.jpeg",2,"left",1.273999929,3,3,4.102999926,2,2.736000061,23,1,0,0,1,1,1
"24",8,2,0,1,"stim/objects/Instruments/guitarcase.png","",0,0,"",0,"right",1.076999903,NA,NA,NA,NA,NA,24,1,NA,NA,NA,NA,1
"25",8,2,0,1,"stim/objects/Instruments/metronome.png","",0,0,"",0,"right",1.148999929,NA,NA,NA,NA,NA,25,1,NA,NA,NA,NA,1
"26",8,1,0.7,2,"stim/objects/HouseObjects/bleachbottle4.png","stim/33.jpeg",3,3,"stim/33.jpeg",2,"left",1.483999968,3,4,6.759000063,4,2.287999868,26,1,0,0,0,0,1
"27",8,2,0,2,"stim/objects/HouseObjects/dishsoap2.png","",0,0,"",0,"right",0.971999884,NA,NA,NA,NA,NA,27,1,NA,NA,NA,NA,1
"28",8,2,0,1,"stim/objects/Instruments/cornet.png","",0,0,"",0,"left",1.127000093,NA,NA,NA,NA,NA,28,0,NA,NA,NA,NA,1
"29",8,1,0.9,1,"stim/objects/Instruments/vuvuzela4.png","stim/61.jpeg",6,1,"stim/61.jpeg",4,"right",1.253999949,3,3,4.335999966,2,2.885999918,29,0,0,NA,0,NA,1
"30",8,2,0,2,"stim/objects/HouseObjects/flyswatter.png","",0,0,"",0,"right",1.075000048,NA,NA,NA,NA,NA,30,1,NA,NA,NA,NA,1
"31",8,1,0.7,1,"stim/objects/Instruments/drums4.png","stim/43.jpeg",4,3,"stim/43.jpeg",4,"right",1.991999865,2,4,2.795000076,3,1.586999893,31,0,0,NA,0,NA,1
"32",8,1,0.1,1,"stim/objects/Instruments/hihat4.png","stim/51.jpeg",5,1,"stim/51.jpeg",2,"right",1.246999979,2,2,4.532999992,2,3.358999968,32,0,0,NA,1,NA,1
"33",8,1,0.3,1,"stim/objects/Instruments/violin3.png","stim/33.jpeg",3,3,"stim/33.jpeg",1,"right",1.570999861,3,2,1.924000025,2,5.187000036,33,0,0,NA,0,NA,1
"34",8,1,0.7,1,"stim/objects/Instruments/cello4.png","stim/41.jpeg",4,1,"stim/41.jpeg",1,"left",1.445999861,4,4,3.358999968,1,0.742000103,34,1,0,0,1,1,1
"35",8,2,0,2,"stim/objects/HouseObjects/cushion.png","",0,0,"",0,"right",1.023999929,NA,NA,NA,NA,NA,35,1,NA,NA,NA,NA,1
"36",8,1,0.5,1,"stim/objects/Instruments/hihat3.png","stim/12.jpeg",1,2,"stim/12.jpeg",3,"left",1.273999929,4,3,3.789000034,1,2.701999903,36,1,0,0,0,0,1
"37",8,1,0.5,2,"stim/objects/Instruments/laud3.png","stim/21.jpeg",2,1,"stim/21.jpeg",1,"right",0.977999926,3,4,5.431999922,3,3.559999943,37,0,0,NA,0,NA,1
"38",8,2,0,1,"stim/objects/Instruments/frenchhorn.png","",0,0,"",0,"left",1.068999767,NA,NA,NA,NA,NA,38,0,NA,NA,NA,NA,1
"39",8,1,0.3,2,"stim/objects/HouseObjects/bucket4.png","stim/41.jpeg",4,1,"stim/41.jpeg",1,"right",1.069999933,4,1,0.940999985,2,0.745999813,39,0,1,NA,0,NA,1
"40",8,1,0.7,2,"stim/objects/HouseObjects/ballofstring4.png","stim/34.jpeg",3,4,"stim/34.jpeg",4,"right",2.723999977,2,2,2.40899992,4,3.105999947,40,0,0,NA,1,NA,1
"41",8,2,0,2,"stim/objects/HouseObjects/vacuumcleaner.png","",0,0,"",0,"right",0.953000069,NA,NA,NA,NA,NA,41,1,NA,NA,NA,NA,1
"42",8,1,0.9,1,"stim/objects/Instruments/maraca4.png","stim/62.jpeg",6,2,"stim/62.jpeg",4,"left",3.477999926,3,1,4.221999884,2,4.303999901,42,1,0,0,0,0,1
"43",8,1,0.9,1,"stim/objects/Instruments/xylophone4.png","stim/62.jpeg",6,2,"stim/62.jpeg",4,"right",1.954999924,2,4,2.245999813,1,0.851999998,43,0,0,NA,0,NA,1
"44",8,2,0,1,"stim/objects/Instruments/bassguitar.png","",0,0,"",0,"right",0.922999859,NA,NA,NA,NA,NA,44,1,NA,NA,NA,NA,1
"45",8,1,0.7,1,"stim/objects/Instruments/doublebass4.png","stim/42.jpeg",4,2,"stim/42.jpeg",4,"left",1.056999922,3,3,5.273999929,1,2.502999783,45,1,0,0,0,0,1
"46",8,2,0,2,"stim/objects/HouseObjects/ashtray2.png","",0,0,"",0,"left",1.111000061,NA,NA,NA,NA,NA,46,0,NA,NA,NA,NA,1
"47",8,1,0.5,2,"stim/objects/Instruments/metronome3.png","stim/24.jpeg",2,4,"stim/24.jpeg",2,"right",0.974999905,3,4,1.011999846,4,2.34499979,47,0,1,NA,0,NA,1
"48",8,1,0.7,2,"stim/objects/HouseObjects/vacuumcleaner3.png","stim/31.jpeg",3,1,"stim/31.jpeg",3,"left",1.46600008,4,3,3.616999865,3,1.661999941,48,1,0,0,1,1,1
"49",8,2,0,2,"stim/objects/HouseObjects/handbrush.png","",0,0,"",0,"right",0.974999905,NA,NA,NA,NA,NA,49,1,NA,NA,NA,NA,1
"50",8,1,0.9,2,"stim/objects/HouseObjects/iron4.png","stim/54.jpeg",5,4,"stim/54.jpeg",2,"right",1.055000067,3,2,0.851999998,2,4.219000101,50,0,0,NA,1,NA,1
"51",8,1,0.5,1,"stim/objects/HouseObjects/hairdryer3.png","stim/13.jpeg",1,3,"stim/13.jpeg",1,"left",0.99000001,4,2,4.374999762,2,2.284999847,51,1,0,0,0,0,1
"52",8,1,0.3,1,"stim/objects/Instruments/oboe3.png","stim/32.jpeg",3,2,"stim/32.jpeg",4,"right",1.241999865,3,4,1.041999817,2,0.746999979,52,0,0,NA,0,NA,1
"53",8,1,0.7,2,"stim/objects/HouseObjects/ashtray4.png","stim/33.jpeg",3,3,"stim/33.jpeg",1,"left",0.998999834,4,2,3.299999952,2,4.328000069,53,1,0,0,0,0,1
"54",8,1,0.9,1,"stim/objects/Instruments/musicsheet4.png","stim/61.jpeg",6,1,"stim/61.jpeg",1,"left",1.089999914,4,3,6.426999807,2,1.883999825,54,1,0,0,0,0,1
"55",8,2,0,1,"stim/objects/Instruments/electricdrumset.png","",0,0,"",0,"right",1.61199975,NA,NA,NA,NA,NA,55,1,NA,NA,NA,NA,1
"56",8,1,0.9,2,"stim/objects/HouseObjects/dustpan4.png","stim/54.jpeg",5,4,"stim/54.jpeg",2,"right",1.079999924,3,3,0.915999889,3,2.563999891,56,0,0,NA,0,NA,1
"57",8,1,0.7,1,"stim/objects/Instruments/bassguitar4.png","stim/44.jpeg",4,4,"stim/44.jpeg",1,"right",0.808999777,3,4,4.618999958,2,1.497999907,57,0,1,NA,0,NA,1
"58",8,1,0.1,2,"stim/objects/HouseObjects/pan4.png","stim/64.jpeg",6,4,"stim/64.jpeg",2,"left",1.371999979,3,2,3.996999741,2,2.111000061,58,1,0,0,1,1,1
"59",8,1,0.1,1,"stim/objects/Instruments/flutetrans4.png","stim/52.jpeg",5,2,"stim/52.jpeg",4,"right",1.00999999,2,2,4.684999943,1,1.223999977,59,0,1,NA,0,NA,1
"60",8,1,0.3,1,"stim/objects/Instruments/vuvuzela3.png","stim/34.jpeg",3,4,"stim/34.jpeg",4,"right",1.06099987,2,4,2.338999987,3,4.717000008,60,0,1,NA,0,NA,1
"61",8,1,0.1,2,"stim/objects/HouseObjects/pitcher4.png","stim/61.jpeg",6,1,"stim/61.jpeg",4,"right",0.988999844,4,2,0.593999863,1,0.580000162,61,0,0,NA,0,NA,1
"62",8,2,0,2,"stim/objects/HouseObjects/glassmop.png","",0,0,"",0,"right",1.072999954,NA,NA,NA,NA,NA,62,1,NA,NA,NA,NA,1
"63",8,2,0,1,"stim/objects/Instruments/acousticguitar2.png","",0,0,"",0,"right",0.929000139,NA,NA,NA,NA,NA,63,1,NA,NA,NA,NA,1
"64",8,2,0,1,"stim/objects/Instruments/electricguitar.png","",0,0,"",0,"right",1.092000008,NA,NA,NA,NA,NA,64,1,NA,NA,NA,NA,1
"65",8,2,0,2,"stim/objects/HouseObjects/match.png","",0,0,"",0,"left",3.852999926,NA,NA,NA,NA,NA,65,0,NA,NA,NA,NA,1
"66",8,2,0,2,"stim/objects/HouseObjects/clothesdryingrack.png","",0,0,"",0,"right",1.0849998,NA,NA,NA,NA,NA,66,1,NA,NA,NA,NA,1
"67",8,1,0.7,2,"stim/objects/HouseObjects/basket4.png","stim/32.jpeg",3,2,"stim/32.jpeg",2,"right",1.104000092,4,3,0.797999859,1,0.445999861,67,0,0,NA,0,NA,1
"68",8,1,0.9,2,"stim/objects/HouseObjects/doormat4.png","stim/53.jpeg",5,3,"stim/53.jpeg",1,"left",1.154999733,4,1,1.503000021,2,6.487999916,68,1,0,0,0,0,1
"69",8,1,0.1,1,"stim/objects/Instruments/gong4.png","stim/54.jpeg",5,4,"stim/54.jpeg",2,"left",2.445999861,3,2,6.812999964,3,4.536999941,69,1,0,0,0,0,1
"70",8,1,0.1,2,"stim/objects/HouseObjects/key4.png","stim/64.jpeg",6,4,"stim/64.jpeg",4,"right",0.875999928,4,4,0.846999884,2,0.214999914,70,0,1,NA,0,NA,1
"71",8,1,0.1,2,"stim/objects/HouseObjects/knife4.png","stim/61.jpeg",6,1,"stim/61.jpeg",3,"left",1.407000065,4,2,3.075999975,2,3.616999865,71,1,0,0,0,0,1
"72",8,2,0,2,"stim/objects/HouseObjects/clothespin.png","",0,0,"",0,"right",1.279000044,NA,NA,NA,NA,NA,72,1,NA,NA,NA,NA,1
"73",8,1,0.5,1,"stim/objects/HouseObjects/handvacuum3.png","stim/11.jpeg",1,1,"stim/11.jpeg",4,"right",0.875999928,3,2,0.590999842,1,0.346999884,73,0,0,NA,0,NA,1
"74",8,1,0.7,2,"stim/objects/HouseObjects/towel3.png","stim/34.jpeg",3,4,"stim/34.jpeg",2,"right",1.423000097,3,4,2.074999809,2,0.66899991,74,0,1,NA,1,NA,1
"75",8,1,0.1,2,"stim/objects/HouseObjects/ironingboard4.png","stim/63.jpeg",6,3,"stim/63.jpeg",4,"left",1.267999887,4,3,4.247999907,4,3.032999992,75,1,1,1,1,1,1
"76",8,2,0,1,"stim/objects/Instruments/cymbal2.png","",0,0,"",0,"right",1.11899972,NA,NA,NA,NA,NA,76,1,NA,NA,NA,NA,1
"77",8,2,0,2,"stim/objects/HouseObjects/ironingboard.png","",0,0,"",0,"right",0.820999861,NA,NA,NA,NA,NA,77,1,NA,NA,NA,NA,1
"78",8,2,0,2,"stim/objects/HouseObjects/clothespin2.png","",0,0,"",0,"right",1.055999756,NA,NA,NA,NA,NA,78,1,NA,NA,NA,NA,1
"79",8,2,0,2,"stim/objects/HouseObjects/knife.png","",0,0,"",0,"right",1.042999983,NA,NA,NA,NA,NA,79,1,NA,NA,NA,NA,1
"80",8,2,0,1,"stim/objects/Instruments/harmonica.png","",0,0,"",0,"left",1.972999811,NA,NA,NA,NA,NA,80,0,NA,NA,NA,NA,1
"81",8,2,0,2,"stim/objects/HouseObjects/doormat.png","",0,0,"",0,"right",1.046999931,NA,NA,NA,NA,NA,81,1,NA,NA,NA,NA,1
"82",8,1,0.1,1,"stim/objects/Instruments/keyboard4.png","stim/52.jpeg",5,2,"stim/52.jpeg",4,"right",1.121000051,3,1,1.036999702,2,1.118999958,82,0,0,NA,0,NA,1
"83",8,2,0,2,"stim/objects/HouseObjects/bottle.png","",0,0,"",0,"right",1.209000111,NA,NA,NA,NA,NA,83,1,NA,NA,NA,NA,1
"84",8,2,0,1,"stim/objects/Instruments/grandpiano.png","",0,0,"",0,"left",1.434000015,NA,NA,NA,NA,NA,84,0,NA,NA,NA,NA,1
"85",8,2,0,2,"stim/objects/HouseObjects/dustpan.png","",0,0,"",0,"right",0.954999924,NA,NA,NA,NA,NA,85,1,NA,NA,NA,NA,1
"86",8,2,0,1,"stim/objects/Instruments/accordion.png","",0,0,"",0,"right",1.039999723,NA,NA,NA,NA,NA,86,1,NA,NA,NA,NA,1
"87",8,2,0,2,"stim/objects/HouseObjects/glass.png","",0,0,"",0,"right",1.112999916,NA,NA,NA,NA,NA,87,1,NA,NA,NA,NA,1
"88",8,2,0,2,"stim/objects/HouseObjects/bottle2.png","",0,0,"",0,"right",1.117999792,NA,NA,NA,NA,NA,88,1,NA,NA,NA,NA,1
"89",8,1,0.3,2,"stim/objects/HouseObjects/clock4.png","stim/42.jpeg",4,2,"stim/42.jpeg",2,"right",1.173999786,3,1,2.420999765,2,1.170000076,89,0,0,NA,1,NA,1
"90",8,1,0.1,2,"stim/objects/HouseObjects/match4.png","stim/63.jpeg",6,3,"stim/63.jpeg",2,"left",1.273999929,2,2,4.134000063,3,3.378000021,90,1,0,0,0,0,1
"91",8,1,0.7,1,"stim/objects/Instruments/cymbal4.png","stim/41.jpeg",4,1,"stim/41.jpeg",2,"left",1.866999865,4,1,5.421000004,2,2.725999832,91,1,1,1,1,1,1
"92",8,1,0.7,2,"stim/objects/HouseObjects/barbecuelighter4.png","stim/31.jpeg",3,1,"stim/31.jpeg",1,"right",1.055999994,4,3,0.902999878,2,0.31400013,92,0,0,NA,0,NA,1
"93",8,2,0,1,"stim/objects/Instruments/acousticguitar.png","",0,0,"",0,"right",1.174999952,NA,NA,NA,NA,NA,93,1,NA,NA,NA,NA,1
"94",8,2,0,2,"stim/objects/HouseObjects/basket2.png","",0,0,"",0,"right",0.825999737,NA,NA,NA,NA,NA,94,1,NA,NA,NA,NA,1
"95",8,2,0,2,"stim/objects/HouseObjects/key.png","",0,0,"",0,"right",0.754999876,NA,NA,NA,NA,NA,95,1,NA,NA,NA,NA,1
"96",8,2,0,2,"stim/objects/HouseObjects/iron.png","",0,0,"",0,"right",1.21999979,NA,NA,NA,NA,NA,96,1,NA,NA,NA,NA,1
"97",8,2,0,2,"stim/objects/HouseObjects/handvacuum.png","",0,0,"",0,"right",1.068999767,NA,NA,NA,NA,NA,97,1,NA,NA,NA,NA,1
"98",8,1,0.5,1,"stim/objects/HouseObjects/glassmop3.png","stim/12.jpeg",1,2,"stim/12.jpeg",4,"right",1.194999933,3,4,1.236999989,4,1.463999748,98,0,0,NA,1,NA,1
"99",8,1,0.3,2,"stim/objects/HouseObjects/cushion4.png","stim/42.jpeg",4,2,"stim/42.jpeg",2,"right",1.160999775,3,3,1.282999992,2,0.532999754,99,0,0,NA,1,NA,1
"100",8,1,0.5,1,"stim/objects/HouseObjects/handbrush3.png","stim/14.jpeg",1,4,"stim/14.jpeg",2,"right",0.857000113,3,2,1.363999844,4,2.707999945,100,0,0,NA,0,NA,1
"101",8,2,0,1,"stim/objects/Instruments/clarinet2.png","",0,0,"",0,"left",1.54399991,NA,NA,NA,NA,NA,101,0,NA,NA,NA,NA,1
"102",8,1,0.9,1,"stim/objects/Instruments/marimba4.png","stim/63.jpeg",6,3,"stim/63.jpeg",3,"right",0.919999838,4,2,0.907999754,1,0.548999786,102,0,0,NA,0,NA,1
"103",8,1,0.5,2,"stim/objects/HouseObjects/match3.png","stim/24.jpeg",2,4,"stim/24.jpeg",3,"right",1.159999847,4,2,1.31099987,4,0.86199975,103,0,0,NA,0,NA,1
"104",8,2,0,1,"stim/objects/Instruments/xylophone.png","",0,0,"",0,"right",1.048999786,NA,NA,NA,NA,NA,104,1,NA,NA,NA,NA,1
"105",8,2,0,2,"stim/objects/HouseObjects/garbagebin.png","",0,0,"",0,"right",0.985000134,NA,NA,NA,NA,NA,105,1,NA,NA,NA,NA,1
"106",8,1,0.5,2,"stim/objects/HouseObjects/lintroller3.png","stim/23.jpeg",2,3,"stim/23.jpeg",3,"left",1.121999979,3,4,5.052000046,3,4.510999918,106,1,0,0,1,1,1
"107",8,2,0,1,"stim/objects/Instruments/accordion2.png","",0,0,"",0,"right",0.842999935,NA,NA,NA,NA,NA,107,1,NA,NA,NA,NA,1
"108",8,2,0,1,"stim/objects/Instruments/cymbal.png","",0,0,"",0,"right",0.80099988,NA,NA,NA,NA,NA,108,1,NA,NA,NA,NA,1
"109",8,1,0.7,1,"stim/objects/Instruments/chime4.png","stim/42.jpeg",4,2,"stim/42.jpeg",4,"right",0.670999765,4,2,0.498999834,1,0.335000038,109,0,1,NA,0,NA,1
"110",8,2,0,1,"stim/objects/Instruments/electricdrumset2.png","",0,0,"",0,"right",1.197999954,NA,NA,NA,NA,NA,110,1,NA,NA,NA,NA,1
"111",8,2,0,1,"stim/objects/Instruments/keyboard.png","",0,0,"",0,"right",1.023000002,NA,NA,NA,NA,NA,111,1,NA,NA,NA,NA,1
"112",8,2,0,1,"stim/objects/Instruments/chime.png","",0,0,"",0,"right",0.996999741,NA,NA,NA,NA,NA,112,1,NA,NA,NA,NA,1
"113",8,1,0.1,2,"stim/objects/HouseObjects/lintroller4.png","stim/62.jpeg",6,2,"stim/62.jpeg",4,"right",2.612999916,2,3,3.57799983,2,0.881999969,113,0,0,NA,0,NA,1
"114",8,1,0.5,2,"stim/objects/HouseObjects/key3.png","stim/21.jpeg",2,1,"stim/21.jpeg",4,"right",0.821000099,4,2,0.595999956,1,0.239999771,114,0,0,NA,0,NA,1
"115",8,2,0,2,"stim/objects/HouseObjects/ballofstring.png","",0,0,"",0,"right",1.569000006,NA,NA,NA,NA,NA,115,1,NA,NA,NA,NA,1
"116",8,1,0.9,2,"stim/objects/HouseObjects/glass4.png","stim/53.jpeg",5,3,"stim/53.jpeg",4,"left",1.065999746,4,1,6.335999966,2,5.891000032,116,1,0,0,0,0,1
"117",8,1,0.1,1,"stim/objects/Instruments/guitarcase4.png","stim/52.jpeg",5,2,"stim/52.jpeg",2,"right",1.057999849,3,1,2.282999992,2,1.723999977,117,0,0,NA,1,NA,1
"118",8,1,0.3,1,"stim/objects/Instruments/acousticguitar4.png","stim/33.jpeg",3,3,"stim/33.jpeg",3,"left",6.128999949,4,2,1.423999786,4,3.642999887,118,1,0,0,0,0,1
"119",8,1,0.3,1,"stim/objects/Instruments/bassdrum4.png","stim/32.jpeg",3,2,"stim/32.jpeg",3,"right",0.926999807,4,2,4.30099988,4,1.828999996,119,0,1,NA,0,NA,1
"120",8,1,0.9,1,"stim/objects/Instruments/violin4.png","stim/64.jpeg",6,4,"stim/64.jpeg",3,"left",1.073999882,4,4,3.378999949,2,1.098999977,120,1,1,1,0,0,1
"121",8,2,0,1,"stim/objects/Instruments/drums2.png","",0,0,"",0,"right",0.997999907,NA,NA,NA,NA,NA,121,1,NA,NA,NA,NA,1
"122",8,2,0,1,"stim/objects/Instruments/bassdrum.png","",0,0,"",0,"right",0.72300005,NA,NA,NA,NA,NA,122,1,NA,NA,NA,NA,1
"123",8,2,0,1,"stim/objects/Instruments/maraca.png","",0,0,"",0,"left",2.740999937,NA,NA,NA,NA,NA,123,0,NA,NA,NA,NA,1
"124",8,2,0,2,"stim/objects/HouseObjects/ballofstring2.png","",0,0,"",0,"right",1.003999949,NA,NA,NA,NA,NA,124,1,NA,NA,NA,NA,1
"125",8,1,0.3,2,"stim/objects/HouseObjects/clothesdryingrack4.png","stim/43.jpeg",4,3,"stim/43.jpeg",2,"right",1.093999863,4,4,3.566999912,2,3.502999783,125,0,0,NA,1,NA,1
"126",8,1,0.5,1,"stim/objects/Instruments/harp3.png","stim/11.jpeg",1,1,"stim/11.jpeg",2,"right",1.846999884,3,3,2.56799984,2,3.474999905,126,0,0,NA,1,NA,1
"127",8,1,0.1,1,"stim/objects/Instruments/harp4.png","stim/54.jpeg",5,4,"stim/54.jpeg",2,"right",0.832999945,3,1,3.377000093,2,1.738999844,127,0,0,NA,1,NA,1
"128",8,1,0.5,1,"stim/objects/Instruments/guitarcase3.png","stim/13.jpeg",1,3,"stim/13.jpeg",1,"right",2.836999893,4,4,2.930999994,2,1.066999912,128,0,0,NA,0,NA,1
"129",8,2,0,1,"stim/objects/Instruments/oboe.png","",0,0,"",0,"right",0.912999868,NA,NA,NA,NA,NA,129,1,NA,NA,NA,NA,1
"130",8,2,0,1,"stim/objects/Instruments/flute.png","",0,0,"",0,"left",1.621999741,NA,NA,NA,NA,NA,130,0,NA,NA,NA,NA,1
"131",8,1,0.9,2,"stim/objects/HouseObjects/handvacuum4.png","stim/53.jpeg",5,3,"stim/53.jpeg",3,"right",0.986999989,2,1,5.096999884,2,4.695999861,131,0,0,NA,0,NA,1
"132",8,1,0.9,2,"stim/objects/HouseObjects/flyswatter4.png","stim/51.jpeg",5,1,"stim/51.jpeg",1,"left",1.576999903,3,2,3.65199995,2,3.456999779,132,1,0,0,0,0,1
"133",8,2,0,2,"stim/objects/HouseObjects/towel.png","",0,0,"",0,"right",1.054000139,NA,NA,NA,NA,NA,133,1,NA,NA,NA,NA,1
"134",8,2,0,2,"stim/objects/HouseObjects/bucket.png","",0,0,"",0,"right",1.941999912,NA,NA,NA,NA,NA,134,1,NA,NA,NA,NA,1
"135",8,2,0,2,"stim/objects/HouseObjects/clothesdryingrack2.png","",0,0,"",0,"right",0.857999802,NA,NA,NA,NA,NA,135,1,NA,NA,NA,NA,1
"136",8,1,0.5,1,"stim/objects/HouseObjects/iron3.png","stim/12.jpeg",1,2,"stim/12.jpeg",2,"right",0.86500001,2,4,4.595999956,4,1.60199976,136,0,0,NA,0,NA,1
"137",8,1,0.3,1,"stim/objects/Instruments/musicstand3.png","stim/31.jpeg",3,1,"stim/31.jpeg",2,"right",3.754999876,2,3,3.037999868,3,3.411000013,137,0,0,NA,0,NA,1
"138",8,2,0,2,"stim/objects/HouseObjects/blender2.png","",0,0,"",0,"right",0.906999826,NA,NA,NA,NA,NA,138,1,NA,NA,NA,NA,1
"139",8,2,0,1,"stim/objects/Instruments/cello.png","",0,0,"",0,"left",1,NA,NA,NA,NA,NA,139,0,NA,NA,NA,NA,1
"140",8,2,0,2,"stim/objects/HouseObjects/lintroller.png","",0,0,"",0,"left",0.986999989,NA,NA,NA,NA,NA,140,0,NA,NA,NA,NA,1
"141",8,1,0.9,2,"stim/objects/HouseObjects/hairdryer4.png","stim/51.jpeg",5,1,"stim/51.jpeg",4,"right",0.937999964,4,2,2.207000017,2,1.429999828,141,0,0,NA,0,NA,1
"142",8,1,0.9,2,"stim/objects/HouseObjects/handbrush4.png","stim/52.jpeg",5,2,"stim/52.jpeg",1,"right",1.016999722,3,2,1.375,4,1.180999994,142,0,1,NA,0,NA,1
"143",8,1,0.7,2,"stim/objects/HouseObjects/pitcher3.png","stim/33.jpeg",3,3,"stim/33.jpeg",2,"left",1.441999912,3,1,3.411999941,3,1.279000044,143,1,0,0,0,0,1
"144",8,2,0,2,"stim/objects/HouseObjects/dishsoap.png","",0,0,"",0,"right",1.743000031,NA,NA,NA,NA,NA,144,1,NA,NA,NA,NA,1
"145",8,1,0.7,2,"stim/objects/HouseObjects/pan3.png","stim/32.jpeg",3,2,"stim/32.jpeg",2,"right",0.819999933,3,3,1.052000046,2,0.50999999,145,0,0,NA,1,NA,1
"146",8,2,0,1,"stim/objects/Instruments/doublebass2.png","",0,0,"",0,"left",1.008000135,NA,NA,NA,NA,NA,146,0,NA,NA,NA,NA,1
"147",8,1,0.1,2,"stim/objects/HouseObjects/wateringcan4.png","stim/64.jpeg",6,4,"stim/64.jpeg",2,"right",0.892999887,3,2,3.16899991,3,0.592999935,147,0,0,NA,0,NA,1
"148",8,1,0.3,1,"stim/objects/Instruments/balalaika4.png","stim/34.jpeg",3,4,"stim/34.jpeg",2,"left",1.082999945,4,4,4.485999823,2,3.134999752,148,1,1,1,1,1,1
"149",8,1,0.5,2,"stim/objects/HouseObjects/ironingboard3.png","stim/24.jpeg",2,4,"stim/24.jpeg",1,"right",1.661000013,4,3,0.536000013,2,0.211999893,149,0,0,NA,0,NA,1
"150",8,1,0.5,1,"stim/objects/Instruments/harmonica3.png","stim/14.jpeg",1,4,"stim/14.jpeg",3,"right",0.98699975,3,2,0.575000048,1,1.619999886,150,0,0,NA,0,NA,1
"151",8,2,0,1,"stim/objects/Instruments/musicstand.png","",0,0,"",0,"right",0.992999792,NA,NA,NA,NA,NA,151,1,NA,NA,NA,NA,1
"152",8,1,0.5,2,"stim/objects/Instruments/maraca3.png","stim/22.jpeg",2,2,"stim/22.jpeg",3,"left",2.593999863,2,3,3.794999838,2,2.055999994,152,1,0,0,0,0,1
"153",8,1,0.7,1,"stim/objects/Instruments/electricdrumset4.png","stim/44.jpeg",4,4,"stim/44.jpeg",3,"right",1.322999954,3,1,1.162999868,3,1.239999771,153,0,0,NA,1,NA,1
"154",8,1,0.7,1,"stim/objects/Instruments/electricguitar4.png","stim/41.jpeg",4,1,"stim/41.jpeg",3,"right",2.363000154,4,2,0.862999916,1,1.753000021,154,0,0,NA,0,NA,1
"155",8,2,0,2,"stim/objects/HouseObjects/bucket2.png","",0,0,"",0,"right",1.093999863,NA,NA,NA,NA,NA,155,1,NA,NA,NA,NA,1
"156",8,2,0,1,"stim/objects/Instruments/balalaika.png","",0,0,"",0,"left",1.500999928,NA,NA,NA,NA,NA,156,0,NA,NA,NA,NA,1
"157",8,2,0,2,"stim/objects/HouseObjects/hairdryer.png","",0,0,"",0,"right",1.269999743,NA,NA,NA,NA,NA,157,1,NA,NA,NA,NA,1
"158",8,2,0,2,"stim/objects/HouseObjects/broom2.png","",0,0,"",0,"right",0.882999897,NA,NA,NA,NA,NA,158,1,NA,NA,NA,NA,1
"159",8,2,0,1,"stim/objects/Instruments/balalaika2.png","",0,0,"",0,"right",0.990999937,NA,NA,NA,NA,NA,159,1,NA,NA,NA,NA,1
"160",8,1,0.7,1,"stim/objects/Instruments/cornet4.png","stim/44.jpeg",4,4,"stim/44.jpeg",4,"left",1.859999895,3,1,2.204999924,3,2.144999981,160,1,0,0,0,0,1
"161",8,1,0.9,1,"stim/objects/Instruments/musicstand4.png","stim/62.jpeg",6,2,"stim/62.jpeg",2,"right",0.837999821,3,1,1.438999891,1,2.717000008,161,0,0,NA,0,NA,1
"162",8,2,0,2,"stim/objects/HouseObjects/coffee2.png","",0,0,"",0,"right",0.805999756,NA,NA,NA,NA,NA,162,1,NA,NA,NA,NA,1
"163",8,1,0.3,2,"stim/objects/HouseObjects/blender4.png","stim/42.jpeg",4,2,"stim/42.jpeg",2,"right",0.905999899,1,2,4.57400012,4,1.773999929,163,0,1,NA,0,NA,1
"164",8,1,0.9,1,"stim/objects/Instruments/oboe4.png","stim/63.jpeg",6,3,"stim/63.jpeg",1,"left",2.320999861,4,1,3.361000061,3,2.273000002,164,1,0,0,0,0,1
"165",8,1,0.5,2,"stim/objects/Instruments/marimba3.png","stim/23.jpeg",2,3,"stim/23.jpeg",2,"right",0.803999901,4,3,1.011000156,2,0.362999916,165,0,1,NA,1,NA,1
"166",8,1,0.3,2,"stim/objects/HouseObjects/coffee4.png","stim/41.jpeg",4,1,"stim/41.jpeg",3,"left",4.625999928,2,2,2.25,4,1.242000103,166,1,0,0,0,0,1
"167",8,1,0.3,2,"stim/objects/HouseObjects/bottle4.png","stim/43.jpeg",4,3,"stim/43.jpeg",3,"right",1.128999949,3,2,1.103999853,1,2.957999706,167,0,0,NA,0,NA,1
"168",8,1,0.7,2,"stim/objects/HouseObjects/wateringcan3.png","stim/32.jpeg",3,2,"stim/32.jpeg",3,"right",0.893999815,4,4,1.434000015,2,0.930000067,168,0,0,NA,0,NA,1
"169",8,2,0,2,"stim/objects/HouseObjects/pitcher.png","",0,0,"",0,"right",0.796999931,NA,NA,NA,NA,NA,169,1,NA,NA,NA,NA,1
"170",8,2,0,2,"stim/objects/HouseObjects/basket.png","",0,0,"",0,"right",0.809999943,NA,NA,NA,NA,NA,170,1,NA,NA,NA,NA,1
"171",8,2,0,1,"stim/objects/Instruments/musicsheet.png","",0,0,"",0,"right",0.868000031,NA,NA,NA,NA,NA,171,1,NA,NA,NA,NA,1
"172",8,2,0,1,"stim/objects/Instruments/cornet2.png","",0,0,"",0,"left",1.434999704,NA,NA,NA,NA,NA,172,0,NA,NA,NA,NA,1
"173",8,2,0,1,"stim/objects/Instruments/electricguitar2.png","",0,0,"",0,"right",0.894000053,NA,NA,NA,NA,NA,173,1,NA,NA,NA,NA,1
"174",8,2,0,1,"stim/objects/Instruments/cello2.png","",0,0,"",0,"right",0.737999916,NA,NA,NA,NA,NA,174,1,NA,NA,NA,NA,1
"175",8,2,0,2,"stim/objects/HouseObjects/bleachbottle.png","",0,0,"",0,"right",0.933000088,NA,NA,NA,NA,NA,175,1,NA,NA,NA,NA,1
"176",8,1,0.1,1,"stim/objects/Instruments/harmonica4.png","stim/53.jpeg",5,3,"stim/53.jpeg",3,"right",1.039000034,2,1,2.765999794,3,1.105000019,176,0,0,NA,1,NA,1
"177",8,1,0.1,2,"stim/objects/HouseObjects/vacuumcleaner4.png","stim/63.jpeg",6,3,"stim/63.jpeg",4,"right",2.686000109,3,4,1.319000006,2,0.615999937,177,0,0,NA,0,NA,1
"178",8,2,0,2,"stim/objects/HouseObjects/clock2.png","",0,0,"",0,"right",1.128000021,NA,NA,NA,NA,NA,178,1,NA,NA,NA,NA,1
"179",8,1,0.5,2,"stim/objects/Instruments/musicsheet3.png","stim/21.jpeg",2,1,"stim/21.jpeg",1,"right",0.799000025,3,3,2.877000093,4,1.183999777,179,0,0,NA,0,NA,1
"180",8,2,0,2,"stim/objects/HouseObjects/barbecuelighter.png","",0,0,"",0,"right",1.357999802,NA,NA,NA,NA,NA,180,1,NA,NA,NA,NA,1
"181",8,2,0,2,"stim/objects/HouseObjects/clock.png","",0,0,"",0,"right",3.330999851,NA,NA,NA,NA,NA,181,1,NA,NA,NA,NA,1
"182",8,1,0.9,2,"stim/objects/HouseObjects/garbagebin4.png","stim/52.jpeg",5,2,"stim/52.jpeg",1,"right",0.731999874,4,2,0.715999842,1,0.384000063,182,0,1,NA,1,NA,1
"183",8,2,0,1,"stim/objects/Instruments/vuvuzela.png","",0,0,"",0,"right",0.902999878,NA,NA,NA,NA,NA,183,1,NA,NA,NA,NA,1
"184",8,2,0,2,"stim/objects/HouseObjects/broom.png","",0,0,"",0,"left",1.373999834,NA,NA,NA,NA,NA,184,0,NA,NA,NA,NA,1
"185",8,2,0,2,"stim/objects/HouseObjects/wateringcan.png","",0,0,"",0,"right",0.717000008,NA,NA,NA,NA,NA,185,1,NA,NA,NA,NA,1
"186",8,1,0.9,2,"stim/objects/HouseObjects/glassmop4.png","stim/54.jpeg",5,4,"stim/54.jpeg",3,"right",0.838000059,4,2,0.633999825,1,0.265000105,186,0,0,NA,0,NA,1
"187",8,2,0,2,"stim/objects/HouseObjects/barbecuelighter2.png","",0,0,"",0,"left",2.433999777,NA,NA,NA,NA,NA,187,0,NA,NA,NA,NA,1
"188",8,2,0,2,"stim/objects/HouseObjects/coffee.png","",0,0,"",0,"right",0.701999903,NA,NA,NA,NA,NA,188,1,NA,NA,NA,NA,1
"189",8,2,0,1,"stim/objects/Instruments/clarinet.png","",0,0,"",0,"right",0.809999943,NA,NA,NA,NA,NA,189,1,NA,NA,NA,NA,1
"190",8,2,0,1,"stim/objects/Instruments/doublebass.png","",0,0,"",0,"right",0.876999855,NA,NA,NA,NA,NA,190,1,NA,NA,NA,NA,1
"191",8,2,0,1,"stim/objects/Instruments/gong.png","",0,0,"",0,"right",0.904999971,NA,NA,NA,NA,NA,191,1,NA,NA,NA,NA,1
"192",8,1,0.3,2,"stim/objects/HouseObjects/clothespin4.png","stim/44.jpeg",4,4,"stim/44.jpeg",4,"left",1.534999847,3,4,2.315000057,2,1.51699996,192,1,1,1,0,0,1
"193",8,2,0,1,"stim/objects/Instruments/chime2.png","",0,0,"",0,"right",0.864999771,NA,NA,NA,NA,NA,193,1,NA,NA,NA,NA,1
"194",8,2,0,1,"stim/objects/Instruments/bassguitar2.png","",0,0,"",0,"right",0.732999802,NA,NA,NA,NA,NA,194,1,NA,NA,NA,NA,1
"195",8,2,0,1,"stim/objects/Instruments/violin.png","",0,0,"",0,"right",0.785999775,NA,NA,NA,NA,NA,195,1,NA,NA,NA,NA,1
"196",8,2,0,1,"stim/objects/Instruments/laud.png","",0,0,"",0,"right",0.883999825,NA,NA,NA,NA,NA,196,1,NA,NA,NA,NA,1
"197",8,1,0.3,1,"stim/objects/Instruments/xylophone3.png","stim/31.jpeg",3,1,"stim/31.jpeg",3,"right",0.932999849,3,2,0.951999903,1,0.392999887,197,0,0,NA,0,NA,1
"198",8,2,0,1,"stim/objects/Instruments/hihat.png","",0,0,"",0,"right",0.805999994,NA,NA,NA,NA,NA,198,1,NA,NA,NA,NA,1
"199",8,2,0,1,"stim/objects/Instruments/marimba.png","",0,0,"",0,"right",0.786999941,NA,NA,NA,NA,NA,199,1,NA,NA,NA,NA,1
"200",8,1,0.9,1,"stim/objects/Instruments/laud4.png","stim/61.jpeg",6,1,"stim/61.jpeg",2,"right",0.909999847,3,1,0.733999968,2,0.332999945,200,0,1,NA,1,NA,1
