"","obj_file","X.x","participant.x","trialN.x","trial_cond","scn_file.x","scn_cat","scn_inst","scn_condition","fillers","obj_cat","obj_cat_num","quadrant","corr_ans","key_resp_trial.keys","key_resp_trial.rt","trial_acc","trial_acc_manual","group.x","practice","X.y","participant.y","OvsN","PE_level","object_cat","scn_file.y","corr_scn_cat","corr_scn_inst","scn_file.1","corr_loc","key_resp_id.keys","key_resp_id.rt","key_resp_conf.keys","key_resp_assoc.keys","key_resp_assoc.rt","key_resp_loc.keys","key_resp_loc.rt","trialN.y","id_acc","assoc.acc","cond_assoc","loc.acc","cond_loc","group.y"
"109","stim/objects/HouseObjects/rug.png",1,52,1,0.3,"stim/14.jpeg",1,4,2,NA,"HouseObjects",1,3,"left","",NA,0,0,0,1,NA,NA,NA,NA,NA,NA,NA,NA,NA,NA,NA,NA,NA,NA,NA,NA,NA,NA,NA,NA,NA,NA,NA,NA
"232","stim/objects/Instruments/record_player2.png",2,52,2,0.1,"stim/44.jpeg",4,4,3,NA,"Instruments",2,3,"right","left",0.791999817,0,0,0,1,NA,NA,NA,NA,NA,NA,NA,NA,NA,NA,NA,NA,NA,NA,NA,NA,NA,NA,NA,NA,NA,NA,NA,NA
"145","stim/objects/Instruments/marimba.png",3,52,3,0.5,"stim/54.jpeg",5,4,1,NA,"Instruments",2,3,"right","right",0.703999758,1,1,0,1,NA,NA,NA,NA,NA,NA,NA,NA,NA,NA,NA,NA,NA,NA,NA,NA,NA,NA,NA,NA,NA,NA,NA,NA
"88","stim/objects/HouseObjects/remote2.png",4,52,4,0.9,"stim/42.jpeg",4,2,3,NA,"HouseObjects",1,1,"left","left",0.546999931,1,1,0,1,NA,NA,NA,NA,NA,NA,NA,NA,NA,NA,NA,NA,NA,NA,NA,NA,NA,NA,NA,NA,NA,NA,NA,NA
"42","stim/objects/HouseObjects/knife2.png",5,52,5,0.7,"stim/24.jpeg",2,4,2,NA,"HouseObjects",1,3,"left","left",0.886999846,1,1,0,1,NA,NA,NA,NA,NA,NA,NA,NA,NA,NA,NA,NA,NA,NA,NA,NA,NA,NA,NA,NA,NA,NA,NA,NA
"49","stim/objects/HouseObjects/lintroller.png",6,52,6,0.5,"stim/61.jpeg",6,1,1,NA,"HouseObjects",1,4,"left","right",0.734999895,0,0,0,1,NA,NA,NA,NA,NA,NA,NA,NA,NA,NA,NA,NA,NA,NA,NA,NA,NA,NA,NA,NA,NA,NA,NA,NA
"89","stim/objects/HouseObjects/remote2.png",7,52,7,0.9,"stim/42.jpeg",4,2,3,NA,"HouseObjects",1,3,"left","",NA,0,0,0,1,NA,NA,NA,NA,NA,NA,NA,NA,NA,NA,NA,NA,NA,NA,NA,NA,NA,NA,NA,NA,NA,NA,NA,NA
"30","stim/objects/HouseObjects/key2.png",8,52,8,0.7,"stim/23.jpeg",2,3,2,NA,"HouseObjects",1,4,"left","left",0.698999882,1,1,0,1,NA,NA,NA,NA,NA,NA,NA,NA,NA,NA,NA,NA,NA,NA,NA,NA,NA,NA,NA,NA,NA,NA,NA,NA
"55","stim/objects/HouseObjects/match.png",9,52,9,0.5,"stim/62.jpeg",6,2,1,NA,"HouseObjects",1,1,"left","right",0.752999783,0,0,0,1,NA,NA,NA,NA,NA,NA,NA,NA,NA,NA,NA,NA,NA,NA,NA,NA,NA,NA,NA,NA,NA,NA,NA,NA
"112","stim/objects/HouseObjects/rug2.png",10,52,10,0.9,"stim/44.jpeg",4,4,3,NA,"HouseObjects",1,2,"left","left",0.845999956,1,1,0,1,NA,NA,NA,NA,NA,NA,NA,NA,NA,NA,NA,NA,NA,NA,NA,NA,NA,NA,NA,NA,NA,NA,NA,NA
"50","stim/objects/HouseObjects/lintroller.png",11,52,11,0.5,"stim/61.jpeg",6,1,1,NA,"HouseObjects",1,4,"left","left",0.82400012,1,1,0,1,NA,NA,NA,NA,NA,NA,NA,NA,NA,NA,NA,NA,NA,NA,NA,NA,NA,NA,NA,NA,NA,NA,NA,NA
"172","stim/objects/Instruments/musicsheet2.png",12,52,12,0.9,"stim/32.jpeg",3,2,3,NA,"Instruments",2,1,"right","left",0.81099987,0,0,0,1,NA,NA,NA,NA,NA,NA,NA,NA,NA,NA,NA,NA,NA,NA,NA,NA,NA,NA,NA,NA,NA,NA,NA,NA
"51","stim/objects/HouseObjects/lintroller.png",13,52,13,0.5,"stim/61.jpeg",6,1,1,NA,"HouseObjects",1,2,"left","",NA,0,0,0,1,NA,NA,NA,NA,NA,NA,NA,NA,NA,NA,NA,NA,NA,NA,NA,NA,NA,NA,NA,NA,NA,NA,NA,NA
"97","stim/objects/HouseObjects/rubbergloves.png",14,52,14,0.3,"stim/13.jpeg",1,3,2,NA,"HouseObjects",1,4,"left","right",0.857999802,0,0,0,1,NA,NA,NA,NA,NA,NA,NA,NA,NA,NA,NA,NA,NA,NA,NA,NA,NA,NA,NA,NA,NA,NA,NA,NA
"76","stim/objects/HouseObjects/recyclingbin2.png",15,52,15,0.9,"stim/41.jpeg",4,1,3,NA,"HouseObjects",1,1,"left","left",0.805999756,1,1,0,1,NA,NA,NA,NA,NA,NA,NA,NA,NA,NA,NA,NA,NA,NA,NA,NA,NA,NA,NA,NA,NA,NA,NA,NA
"134","stim/objects/Instruments/laud2.png",16,52,16,0.3,"stim/22.jpeg",2,2,2,NA,"Instruments",2,3,"right","left",0.563999891,0,0,0,1,NA,NA,NA,NA,NA,NA,NA,NA,NA,NA,NA,NA,NA,NA,NA,NA,NA,NA,NA,NA,NA,NA,NA,NA
"13","stim/objects/HouseObjects/ironingboard.png",17,52,17,0.5,"stim/52.jpeg",5,2,1,NA,"HouseObjects",1,2,"left","right",0.86899972,0,0,0,1,NA,NA,NA,NA,NA,NA,NA,NA,NA,NA,NA,NA,NA,NA,NA,NA,NA,NA,NA,NA,NA,NA,NA,NA
"43","stim/objects/HouseObjects/knife2.png",18,52,18,0.7,"stim/24.jpeg",2,4,2,NA,"HouseObjects",1,4,"left","left",0.763999939,1,1,0,1,NA,NA,NA,NA,NA,NA,NA,NA,NA,NA,NA,NA,NA,NA,NA,NA,NA,NA,NA,NA,NA,NA,NA,NA
"181","stim/objects/Instruments/musicstand.png",19,52,19,0.5,"stim/63.jpeg",6,3,1,NA,"Instruments",2,3,"right","",NA,0,0,0,1,NA,NA,NA,NA,NA,NA,NA,NA,NA,NA,NA,NA,NA,NA,NA,NA,NA,NA,NA,NA,NA,NA,NA,NA
"52","stim/objects/HouseObjects/lintroller.png",20,52,20,0.5,"stim/61.jpeg",6,1,1,NA,"HouseObjects",1,1,"left","right",0.739999771,0,0,0,1,NA,NA,NA,NA,NA,NA,NA,NA,NA,NA,NA,NA,NA,NA,NA,NA,NA,NA,NA,NA,NA,NA,NA,NA
"240","stim/objects/Instruments/record2.png",21,52,21,0.1,"stim/43.jpeg",4,3,3,NA,"Instruments",2,3,"right","left",0.648999929,0,0,0,1,NA,NA,NA,NA,NA,NA,NA,NA,NA,NA,NA,NA,NA,NA,NA,NA,NA,NA,NA,NA,NA,NA,NA,NA
"225","stim/objects/Instruments/record_player.png",22,52,22,0.7,"stim/14.jpeg",1,4,2,NA,"Instruments",2,3,"right","left",0.894000053,0,0,0,1,NA,NA,NA,NA,NA,NA,NA,NA,NA,NA,NA,NA,NA,NA,NA,NA,NA,NA,NA,NA,NA,NA,NA,NA
"110","stim/objects/HouseObjects/rug.png",23,52,23,0.3,"stim/14.jpeg",1,4,2,NA,"HouseObjects",1,2,"left","",NA,0,0,0,1,NA,NA,NA,NA,NA,NA,NA,NA,NA,NA,NA,NA,NA,NA,NA,NA,NA,NA,NA,NA,NA,NA,NA,NA
"173","stim/objects/Instruments/musicsheet2.png",24,52,24,0.9,"stim/32.jpeg",3,2,3,NA,"Instruments",2,3,"right","right",0.721999884,1,1,0,1,NA,NA,NA,NA,NA,NA,NA,NA,NA,NA,NA,NA,NA,NA,NA,NA,NA,NA,NA,NA,NA,NA,NA,NA
"233","stim/objects/Instruments/record.png",25,52,25,0.7,"stim/13.jpeg",1,3,2,NA,"Instruments",2,4,"right","left",0.510999918,0,0,0,1,NA,NA,NA,NA,NA,NA,NA,NA,NA,NA,NA,NA,NA,NA,NA,NA,NA,NA,NA,NA,NA,NA,NA,NA
"209","stim/objects/Instruments/panflute.png",26,52,26,0.7,"stim/11.jpeg",1,1,2,NA,"Instruments",2,3,"right","left",0.476999998,0,0,0,1,NA,NA,NA,NA,NA,NA,NA,NA,NA,NA,NA,NA,NA,NA,NA,NA,NA,NA,NA,NA,NA,NA,NA,NA
"210","stim/objects/Instruments/panflute.png",27,52,27,0.7,"stim/11.jpeg",1,1,2,NA,"Instruments",2,1,"right","right",0.847999811,1,1,0,1,NA,NA,NA,NA,NA,NA,NA,NA,NA,NA,NA,NA,NA,NA,NA,NA,NA,NA,NA,NA,NA,NA,NA,NA
"126","stim/objects/Instruments/keyboard2.png",28,52,28,0.3,"stim/21.jpeg",2,1,2,NA,"Instruments",2,4,"right","left",0.511999846,0,0,0,1,NA,NA,NA,NA,NA,NA,NA,NA,NA,NA,NA,NA,NA,NA,NA,NA,NA,NA,NA,NA,NA,NA,NA,NA
"174","stim/objects/Instruments/musicsheet2.png",29,52,29,0.9,"stim/32.jpeg",3,2,3,NA,"Instruments",2,4,"right","right",0.640999794,1,1,0,1,NA,NA,NA,NA,NA,NA,NA,NA,NA,NA,NA,NA,NA,NA,NA,NA,NA,NA,NA,NA,NA,NA,NA,NA
"14","stim/objects/HouseObjects/ironingboard.png",30,52,30,0.5,"stim/52.jpeg",5,2,1,NA,"HouseObjects",1,3,"left","left",0.80099988,1,1,0,1,NA,NA,NA,NA,NA,NA,NA,NA,NA,NA,NA,NA,NA,NA,NA,NA,NA,NA,NA,NA,NA,NA,NA,NA
"25","stim/objects/HouseObjects/key.png",31,52,31,0.5,"stim/53.jpeg",5,3,1,NA,"HouseObjects",1,4,"left","right",0.608999968,0,0,0,1,NA,NA,NA,NA,NA,NA,NA,NA,NA,NA,NA,NA,NA,NA,NA,NA,NA,NA,NA,NA,NA,NA,NA,NA
"18","stim/objects/HouseObjects/ironingboard2.png",32,52,32,0.7,"stim/22.jpeg",2,2,2,NA,"HouseObjects",1,4,"left","left",0.511999846,1,1,0,1,NA,NA,NA,NA,NA,NA,NA,NA,NA,NA,NA,NA,NA,NA,NA,NA,NA,NA,NA,NA,NA,NA,NA,NA
"200","stim/objects/Instruments/oboe2.png",33,52,33,0.9,"stim/34.jpeg",3,4,3,NA,"Instruments",2,3,"right","",NA,0,0,0,1,NA,NA,NA,NA,NA,NA,NA,NA,NA,NA,NA,NA,NA,NA,NA,NA,NA,NA,NA,NA,NA,NA,NA,NA
"216","stim/objects/Instruments/panflute2.png",34,52,34,0.1,"stim/41.jpeg",4,1,3,NA,"Instruments",2,1,"right","left",0.779999733,0,0,0,1,NA,NA,NA,NA,NA,NA,NA,NA,NA,NA,NA,NA,NA,NA,NA,NA,NA,NA,NA,NA,NA,NA,NA,NA
"121","stim/objects/Instruments/keyboard.png",35,52,35,0.5,"stim/51.jpeg",5,1,1,NA,"Instruments",2,4,"right","",NA,0,0,0,1,NA,NA,NA,NA,NA,NA,NA,NA,NA,NA,NA,NA,NA,NA,NA,NA,NA,NA,NA,NA,NA,NA,NA,NA
"113","stim/objects/HouseObjects/rug2.png",36,52,36,0.9,"stim/44.jpeg",4,4,3,NA,"HouseObjects",1,4,"left","left",0.742000103,1,1,0,1,NA,NA,NA,NA,NA,NA,NA,NA,NA,NA,NA,NA,NA,NA,NA,NA,NA,NA,NA,NA,NA,NA,NA,NA
"1","stim/objects/HouseObjects/iron.png",37,52,37,0.5,"stim/51.jpeg",5,1,1,NA,"HouseObjects",1,3,"left","right",0.729000092,0,0,0,1,NA,NA,NA,NA,NA,NA,NA,NA,NA,NA,NA,NA,NA,NA,NA,NA,NA,NA,NA,NA,NA,NA,NA,NA
"195","stim/objects/Instruments/oboe.png",38,52,38,0.5,"stim/64.jpeg",6,4,1,NA,"Instruments",2,3,"right","left",0.707999945,0,0,0,1,NA,NA,NA,NA,NA,NA,NA,NA,NA,NA,NA,NA,NA,NA,NA,NA,NA,NA,NA,NA,NA,NA,NA,NA
"72","stim/objects/HouseObjects/pitcher2.png",39,52,39,0.1,"stim/34.jpeg",3,4,3,NA,"HouseObjects",1,3,"left","right",0.72300005,0,0,0,1,NA,NA,NA,NA,NA,NA,NA,NA,NA,NA,NA,NA,NA,NA,NA,NA,NA,NA,NA,NA,NA,NA,NA,NA
"201","stim/objects/Instruments/oboe2.png",40,52,40,0.9,"stim/34.jpeg",3,4,3,NA,"Instruments",2,1,"right","right",0.578000069,1,1,0,1,NA,NA,NA,NA,NA,NA,NA,NA,NA,NA,NA,NA,NA,NA,NA,NA,NA,NA,NA,NA,NA,NA,NA,NA
"226","stim/objects/Instruments/record_player.png",41,52,41,0.7,"stim/14.jpeg",1,4,2,NA,"Instruments",2,4,"right","left",0.59499979,0,0,0,1,NA,NA,NA,NA,NA,NA,NA,NA,NA,NA,NA,NA,NA,NA,NA,NA,NA,NA,NA,NA,NA,NA,NA,NA
"90","stim/objects/HouseObjects/remote2.png",42,52,42,0.9,"stim/42.jpeg",4,2,3,NA,"HouseObjects",1,4,"left","left",0.659999847,1,1,0,1,NA,NA,NA,NA,NA,NA,NA,NA,NA,NA,NA,NA,NA,NA,NA,NA,NA,NA,NA,NA,NA,NA,NA,NA
"202","stim/objects/Instruments/oboe2.png",43,52,43,0.9,"stim/34.jpeg",3,4,3,NA,"Instruments",2,4,"right","right",0.775999784,1,1,0,1,NA,NA,NA,NA,NA,NA,NA,NA,NA,NA,NA,NA,NA,NA,NA,NA,NA,NA,NA,NA,NA,NA,NA,NA
"211","stim/objects/Instruments/panflute.png",44,52,44,0.7,"stim/11.jpeg",1,1,2,NA,"Instruments",2,3,"right","right",0.905999899,1,1,0,1,NA,NA,NA,NA,NA,NA,NA,NA,NA,NA,NA,NA,NA,NA,NA,NA,NA,NA,NA,NA,NA,NA,NA,NA
"186","stim/objects/Instruments/musicstand2.png",45,52,45,0.9,"stim/33.jpeg",3,3,3,NA,"Instruments",2,1,"right","right",0.849999905,1,1,0,1,NA,NA,NA,NA,NA,NA,NA,NA,NA,NA,NA,NA,NA,NA,NA,NA,NA,NA,NA,NA,NA,NA,NA,NA
"37","stim/objects/HouseObjects/knife.png",46,52,46,0.5,"stim/54.jpeg",5,4,1,NA,"HouseObjects",1,4,"left","left",0.690000057,1,1,0,1,NA,NA,NA,NA,NA,NA,NA,NA,NA,NA,NA,NA,NA,NA,NA,NA,NA,NA,NA,NA,NA,NA,NA,NA
"182","stim/objects/Instruments/musicstand.png",47,52,47,0.5,"stim/63.jpeg",6,3,1,NA,"Instruments",2,1,"right","",NA,0,0,0,1,NA,NA,NA,NA,NA,NA,NA,NA,NA,NA,NA,NA,NA,NA,NA,NA,NA,NA,NA,NA,NA,NA,NA,NA
"2","stim/objects/HouseObjects/iron.png",48,52,48,0.5,"stim/51.jpeg",5,1,1,NA,"HouseObjects",1,1,"left","right",0.562999964,0,0,0,1,NA,NA,NA,NA,NA,NA,NA,NA,NA,NA,NA,NA,NA,NA,NA,NA,NA,NA,NA,NA,NA,NA,NA,NA
"61","stim/objects/HouseObjects/pan.png",49,52,49,0.5,"stim/63.jpeg",6,3,1,NA,"HouseObjects",1,4,"left","left",0.431999922,1,1,0,1,NA,NA,NA,NA,NA,NA,NA,NA,NA,NA,NA,NA,NA,NA,NA,NA,NA,NA,NA,NA,NA,NA,NA,NA
"129","stim/objects/Instruments/laud.png",50,52,50,0.5,"stim/52.jpeg",5,2,1,NA,"Instruments",2,3,"right","right",0.464999914,1,1,0,1,NA,NA,NA,NA,NA,NA,NA,NA,NA,NA,NA,NA,NA,NA,NA,NA,NA,NA,NA,NA,NA,NA,NA,NA
"73","stim/objects/HouseObjects/recyclingbin.png",51,52,51,0.3,"stim/11.jpeg",1,1,2,NA,"HouseObjects",1,4,"left","left",0.528999805,1,1,0,1,NA,NA,NA,NA,NA,NA,NA,NA,NA,NA,NA,NA,NA,NA,NA,NA,NA,NA,NA,NA,NA,NA,NA,NA
"26","stim/objects/HouseObjects/key.png",52,52,52,0.5,"stim/53.jpeg",5,3,1,NA,"HouseObjects",1,3,"left","",NA,0,0,0,1,NA,NA,NA,NA,NA,NA,NA,NA,NA,NA,NA,NA,NA,NA,NA,NA,NA,NA,NA,NA,NA,NA,NA,NA
"130","stim/objects/Instruments/laud.png",53,52,53,0.5,"stim/52.jpeg",5,2,1,NA,"Instruments",2,4,"right","left",0.460000038,0,0,0,1,NA,NA,NA,NA,NA,NA,NA,NA,NA,NA,NA,NA,NA,NA,NA,NA,NA,NA,NA,NA,NA,NA,NA,NA
"77","stim/objects/HouseObjects/recyclingbin2.png",54,52,54,0.9,"stim/41.jpeg",4,1,3,NA,"HouseObjects",1,3,"left","left",0.497999907,1,1,0,1,NA,NA,NA,NA,NA,NA,NA,NA,NA,NA,NA,NA,NA,NA,NA,NA,NA,NA,NA,NA,NA,NA,NA,NA
"62","stim/objects/HouseObjects/pan.png",55,52,55,0.5,"stim/63.jpeg",6,3,1,NA,"HouseObjects",1,1,"left","left",0.657999992,1,1,0,1,NA,NA,NA,NA,NA,NA,NA,NA,NA,NA,NA,NA,NA,NA,NA,NA,NA,NA,NA,NA,NA,NA,NA,NA
"187","stim/objects/Instruments/musicstand2.png",56,52,56,0.9,"stim/33.jpeg",3,3,3,NA,"Instruments",2,2,"right","right",0.520999908,1,1,0,1,NA,NA,NA,NA,NA,NA,NA,NA,NA,NA,NA,NA,NA,NA,NA,NA,NA,NA,NA,NA,NA,NA,NA,NA
"114","stim/objects/HouseObjects/rug2.png",57,52,57,0.9,"stim/44.jpeg",4,4,3,NA,"HouseObjects",1,4,"left","left",0.585000038,1,1,0,1,NA,NA,NA,NA,NA,NA,NA,NA,NA,NA,NA,NA,NA,NA,NA,NA,NA,NA,NA,NA,NA,NA,NA,NA
"234","stim/objects/Instruments/record.png",58,52,58,0.7,"stim/13.jpeg",1,3,2,NA,"Instruments",2,4,"right","left",0.494999886,0,0,0,1,NA,NA,NA,NA,NA,NA,NA,NA,NA,NA,NA,NA,NA,NA,NA,NA,NA,NA,NA,NA,NA,NA,NA,NA
"74","stim/objects/HouseObjects/recyclingbin.png",59,52,59,0.3,"stim/11.jpeg",1,1,2,NA,"HouseObjects",1,1,"left","right",0.505999804,0,0,0,1,NA,NA,NA,NA,NA,NA,NA,NA,NA,NA,NA,NA,NA,NA,NA,NA,NA,NA,NA,NA,NA,NA,NA,NA
"227","stim/objects/Instruments/record_player.png",60,52,60,0.7,"stim/14.jpeg",1,4,2,NA,"Instruments",2,3,"right","right",0.411000013,1,1,0,1,NA,NA,NA,NA,NA,NA,NA,NA,NA,NA,NA,NA,NA,NA,NA,NA,NA,NA,NA,NA,NA,NA,NA,NA
"115","stim/objects/HouseObjects/rug2.png",61,52,61,0.9,"stim/44.jpeg",4,4,3,NA,"HouseObjects",1,4,"left","left",0.67599988,1,1,0,1,NA,NA,NA,NA,NA,NA,NA,NA,NA,NA,NA,NA,NA,NA,NA,NA,NA,NA,NA,NA,NA,NA,NA,NA
"175","stim/objects/Instruments/musicsheet2.png",62,52,62,0.9,"stim/32.jpeg",3,2,3,NA,"Instruments",2,4,"right","right",0.50999999,1,1,0,1,NA,NA,NA,NA,NA,NA,NA,NA,NA,NA,NA,NA,NA,NA,NA,NA,NA,NA,NA,NA,NA,NA,NA,NA
"38","stim/objects/HouseObjects/knife.png",63,52,63,0.5,"stim/54.jpeg",5,4,1,NA,"HouseObjects",1,1,"left","left",0.330999851,1,1,0,1,NA,NA,NA,NA,NA,NA,NA,NA,NA,NA,NA,NA,NA,NA,NA,NA,NA,NA,NA,NA,NA,NA,NA,NA
"91","stim/objects/HouseObjects/remote2.png",64,52,64,0.9,"stim/42.jpeg",4,2,3,NA,"HouseObjects",1,2,"left","right",0.407999754,0,0,0,1,NA,NA,NA,NA,NA,NA,NA,NA,NA,NA,NA,NA,NA,NA,NA,NA,NA,NA,NA,NA,NA,NA,NA,NA
"176","stim/objects/Instruments/musicsheet2.png",65,52,65,0.9,"stim/32.jpeg",3,2,3,NA,"Instruments",2,3,"right","right",0.61500001,1,1,0,1,NA,NA,NA,NA,NA,NA,NA,NA,NA,NA,NA,NA,NA,NA,NA,NA,NA,NA,NA,NA,NA,NA,NA,NA
"3","stim/objects/HouseObjects/iron.png",66,52,66,0.5,"stim/51.jpeg",5,1,1,NA,"HouseObjects",1,2,"left","",NA,0,0,0,1,NA,NA,NA,NA,NA,NA,NA,NA,NA,NA,NA,NA,NA,NA,NA,NA,NA,NA,NA,NA,NA,NA,NA,NA
"116","stim/objects/HouseObjects/rug2.png",67,52,67,0.9,"stim/44.jpeg",4,4,3,NA,"HouseObjects",1,2,"left","left",0.684999943,1,1,0,1,NA,NA,NA,NA,NA,NA,NA,NA,NA,NA,NA,NA,NA,NA,NA,NA,NA,NA,NA,NA,NA,NA,NA,NA
"203","stim/objects/Instruments/oboe2.png",68,52,68,0.9,"stim/34.jpeg",3,4,3,NA,"Instruments",2,1,"right","right",0.517999887,1,1,0,1,NA,NA,NA,NA,NA,NA,NA,NA,NA,NA,NA,NA,NA,NA,NA,NA,NA,NA,NA,NA,NA,NA,NA,NA
"142","stim/objects/Instruments/maraca2.png",69,52,69,0.3,"stim/23.jpeg",2,3,2,NA,"Instruments",2,1,"right","left",0.484999895,0,0,0,1,NA,NA,NA,NA,NA,NA,NA,NA,NA,NA,NA,NA,NA,NA,NA,NA,NA,NA,NA,NA,NA,NA,NA,NA
"158","stim/objects/Instruments/metronome2.png",70,52,70,0.9,"stim/31.jpeg",3,1,3,NA,"Instruments",2,3,"right","right",0.645999908,1,1,0,1,NA,NA,NA,NA,NA,NA,NA,NA,NA,NA,NA,NA,NA,NA,NA,NA,NA,NA,NA,NA,NA,NA,NA,NA
"100","stim/objects/HouseObjects/rubbergloves2.png",71,52,71,0.9,"stim/43.jpeg",4,3,3,NA,"HouseObjects",1,2,"left","left",0.531999826,1,1,0,1,NA,NA,NA,NA,NA,NA,NA,NA,NA,NA,NA,NA,NA,NA,NA,NA,NA,NA,NA,NA,NA,NA,NA,NA
"78","stim/objects/HouseObjects/recyclingbin2.png",72,52,72,0.9,"stim/41.jpeg",4,1,3,NA,"HouseObjects",1,1,"left","left",0.65899992,1,1,0,1,NA,NA,NA,NA,NA,NA,NA,NA,NA,NA,NA,NA,NA,NA,NA,NA,NA,NA,NA,NA,NA,NA,NA,NA
"153","stim/objects/Instruments/metronome.png",73,52,73,0.5,"stim/61.jpeg",6,1,1,NA,"Instruments",2,3,"right","right",0.643999815,1,1,0,1,NA,NA,NA,NA,NA,NA,NA,NA,NA,NA,NA,NA,NA,NA,NA,NA,NA,NA,NA,NA,NA,NA,NA,NA
"228","stim/objects/Instruments/record_player.png",74,52,74,0.7,"stim/14.jpeg",1,4,2,NA,"Instruments",2,4,"right","left",0.503999949,0,0,0,1,NA,NA,NA,NA,NA,NA,NA,NA,NA,NA,NA,NA,NA,NA,NA,NA,NA,NA,NA,NA,NA,NA,NA,NA
"4","stim/objects/HouseObjects/iron.png",75,52,75,0.5,"stim/51.jpeg",5,1,1,NA,"HouseObjects",1,1,"left","left",0.637000084,1,1,0,1,NA,NA,NA,NA,NA,NA,NA,NA,NA,NA,NA,NA,NA,NA,NA,NA,NA,NA,NA,NA,NA,NA,NA,NA
"5","stim/objects/HouseObjects/iron.png",76,52,76,0.5,"stim/51.jpeg",5,1,1,NA,"HouseObjects",1,1,"left","left",0.445999861,1,1,0,1,NA,NA,NA,NA,NA,NA,NA,NA,NA,NA,NA,NA,NA,NA,NA,NA,NA,NA,NA,NA,NA,NA,NA,NA
"6","stim/objects/HouseObjects/iron2.png",77,52,77,0.7,"stim/21.jpeg",2,1,2,NA,"HouseObjects",1,3,"left","left",0.584000111,1,1,0,1,NA,NA,NA,NA,NA,NA,NA,NA,NA,NA,NA,NA,NA,NA,NA,NA,NA,NA,NA,NA,NA,NA,NA,NA
"63","stim/objects/HouseObjects/pan.png",78,52,78,0.5,"stim/63.jpeg",6,3,1,NA,"HouseObjects",1,4,"left","right",0.645999908,0,0,0,1,NA,NA,NA,NA,NA,NA,NA,NA,NA,NA,NA,NA,NA,NA,NA,NA,NA,NA,NA,NA,NA,NA,NA,NA
"27","stim/objects/HouseObjects/key.png",79,52,79,0.5,"stim/53.jpeg",5,3,1,NA,"HouseObjects",1,2,"left","right",0.698999882,0,0,0,1,NA,NA,NA,NA,NA,NA,NA,NA,NA,NA,NA,NA,NA,NA,NA,NA,NA,NA,NA,NA,NA,NA,NA,NA
"146","stim/objects/Instruments/marimba.png",80,52,80,0.5,"stim/54.jpeg",5,4,1,NA,"Instruments",2,2,"right","",NA,0,0,0,1,NA,NA,NA,NA,NA,NA,NA,NA,NA,NA,NA,NA,NA,NA,NA,NA,NA,NA,NA,NA,NA,NA,NA,NA
"67","stim/objects/HouseObjects/pitcher.png",81,52,81,0.5,"stim/64.jpeg",6,4,1,NA,"HouseObjects",1,4,"left","left",0.722999811,1,1,0,1,NA,NA,NA,NA,NA,NA,NA,NA,NA,NA,NA,NA,NA,NA,NA,NA,NA,NA,NA,NA,NA,NA,NA,NA
"122","stim/objects/Instruments/keyboard.png",82,52,82,0.5,"stim/51.jpeg",5,1,1,NA,"Instruments",2,4,"right","",NA,0,0,0,1,NA,NA,NA,NA,NA,NA,NA,NA,NA,NA,NA,NA,NA,NA,NA,NA,NA,NA,NA,NA,NA,NA,NA,NA
"159","stim/objects/Instruments/metronome2.png",83,52,83,0.9,"stim/31.jpeg",3,1,3,NA,"Instruments",2,4,"right","right",0.589999914,1,1,0,1,NA,NA,NA,NA,NA,NA,NA,NA,NA,NA,NA,NA,NA,NA,NA,NA,NA,NA,NA,NA,NA,NA,NA,NA
"15","stim/objects/HouseObjects/ironingboard.png",84,52,84,0.5,"stim/52.jpeg",5,2,1,NA,"HouseObjects",1,1,"left","left",0.433000088,1,1,0,1,NA,NA,NA,NA,NA,NA,NA,NA,NA,NA,NA,NA,NA,NA,NA,NA,NA,NA,NA,NA,NA,NA,NA,NA
"135","stim/objects/Instruments/laud2.png",85,52,85,0.3,"stim/22.jpeg",2,2,2,NA,"Instruments",2,4,"right","left",0.765000105,0,0,0,1,NA,NA,NA,NA,NA,NA,NA,NA,NA,NA,NA,NA,NA,NA,NA,NA,NA,NA,NA,NA,NA,NA,NA,NA
"204","stim/objects/Instruments/oboe2.png",86,52,86,0.9,"stim/34.jpeg",3,4,3,NA,"Instruments",2,4,"right","right",0.628999949,1,1,0,1,NA,NA,NA,NA,NA,NA,NA,NA,NA,NA,NA,NA,NA,NA,NA,NA,NA,NA,NA,NA,NA,NA,NA,NA
"44","stim/objects/HouseObjects/knife2.png",87,52,87,0.7,"stim/24.jpeg",2,4,2,NA,"HouseObjects",1,4,"left","left",0.579999924,1,1,0,1,NA,NA,NA,NA,NA,NA,NA,NA,NA,NA,NA,NA,NA,NA,NA,NA,NA,NA,NA,NA,NA,NA,NA,NA
"45","stim/objects/HouseObjects/knife2.png",88,52,88,0.7,"stim/24.jpeg",2,4,2,NA,"HouseObjects",1,3,"left","left",0.598999977,1,1,0,1,NA,NA,NA,NA,NA,NA,NA,NA,NA,NA,NA,NA,NA,NA,NA,NA,NA,NA,NA,NA,NA,NA,NA,NA
"101","stim/objects/HouseObjects/rubbergloves2.png",89,52,89,0.9,"stim/43.jpeg",4,3,3,NA,"HouseObjects",1,1,"left","left",0.670999765,1,1,0,1,NA,NA,NA,NA,NA,NA,NA,NA,NA,NA,NA,NA,NA,NA,NA,NA,NA,NA,NA,NA,NA,NA,NA,NA
"19","stim/objects/HouseObjects/ironingboard2.png",90,52,90,0.7,"stim/22.jpeg",2,2,2,NA,"HouseObjects",1,3,"left","left",0.568000078,1,1,0,1,NA,NA,NA,NA,NA,NA,NA,NA,NA,NA,NA,NA,NA,NA,NA,NA,NA,NA,NA,NA,NA,NA,NA,NA
"102","stim/objects/HouseObjects/rubbergloves2.png",91,52,91,0.9,"stim/43.jpeg",4,3,3,NA,"HouseObjects",1,2,"left","left",0.657999992,1,1,0,1,NA,NA,NA,NA,NA,NA,NA,NA,NA,NA,NA,NA,NA,NA,NA,NA,NA,NA,NA,NA,NA,NA,NA,NA
"205","stim/objects/Instruments/oboe2.png",92,52,92,0.9,"stim/34.jpeg",3,4,3,NA,"Instruments",2,2,"right","right",0.708999872,1,1,0,1,NA,NA,NA,NA,NA,NA,NA,NA,NA,NA,NA,NA,NA,NA,NA,NA,NA,NA,NA,NA,NA,NA,NA,NA
"79","stim/objects/HouseObjects/recyclingbin2.png",93,52,93,0.9,"stim/41.jpeg",4,1,3,NA,"HouseObjects",1,3,"left","left",0.57799983,1,1,0,1,NA,NA,NA,NA,NA,NA,NA,NA,NA,NA,NA,NA,NA,NA,NA,NA,NA,NA,NA,NA,NA,NA,NA,NA
"85","stim/objects/HouseObjects/remote.png",94,52,94,0.3,"stim/12.jpeg",1,2,2,NA,"HouseObjects",1,2,"left","right",0.725999832,0,0,0,1,NA,NA,NA,NA,NA,NA,NA,NA,NA,NA,NA,NA,NA,NA,NA,NA,NA,NA,NA,NA,NA,NA,NA,NA
"64","stim/objects/HouseObjects/pan.png",95,52,95,0.5,"stim/63.jpeg",6,3,1,NA,"HouseObjects",1,3,"left","right",0.830999851,0,0,0,1,NA,NA,NA,NA,NA,NA,NA,NA,NA,NA,NA,NA,NA,NA,NA,NA,NA,NA,NA,NA,NA,NA,NA,NA
"160","stim/objects/Instruments/metronome2.png",96,52,96,0.9,"stim/31.jpeg",3,1,3,NA,"Instruments",2,2,"right","right",0.66899991,1,1,0,1,NA,NA,NA,NA,NA,NA,NA,NA,NA,NA,NA,NA,NA,NA,NA,NA,NA,NA,NA,NA,NA,NA,NA,NA
"188","stim/objects/Instruments/musicstand2.png",97,52,97,0.9,"stim/33.jpeg",3,3,3,NA,"Instruments",2,2,"right","right",0.713000059,1,1,0,1,NA,NA,NA,NA,NA,NA,NA,NA,NA,NA,NA,NA,NA,NA,NA,NA,NA,NA,NA,NA,NA,NA,NA,NA
"56","stim/objects/HouseObjects/match.png",98,52,98,0.5,"stim/62.jpeg",6,2,1,NA,"HouseObjects",1,3,"left","left",0.754999876,1,1,0,1,NA,NA,NA,NA,NA,NA,NA,NA,NA,NA,NA,NA,NA,NA,NA,NA,NA,NA,NA,NA,NA,NA,NA,NA
"103","stim/objects/HouseObjects/rubbergloves2.png",99,52,99,0.9,"stim/43.jpeg",4,3,3,NA,"HouseObjects",1,1,"left","left",0.568999767,1,1,0,1,NA,NA,NA,NA,NA,NA,NA,NA,NA,NA,NA,NA,NA,NA,NA,NA,NA,NA,NA,NA,NA,NA,NA,NA
"189","stim/objects/Instruments/musicstand2.png",100,52,100,0.9,"stim/33.jpeg",3,3,3,NA,"Instruments",2,2,"right","right",0.501999855,1,1,0,1,NA,NA,NA,NA,NA,NA,NA,NA,NA,NA,NA,NA,NA,NA,NA,NA,NA,NA,NA,NA,NA,NA,NA,NA
"154","stim/objects/Instruments/metronome.png",101,52,101,0.5,"stim/61.jpeg",6,1,1,NA,"Instruments",2,2,"right","left",0.479000092,0,0,0,1,NA,NA,NA,NA,NA,NA,NA,NA,NA,NA,NA,NA,NA,NA,NA,NA,NA,NA,NA,NA,NA,NA,NA,NA
"161","stim/objects/Instruments/metronome2.png",102,52,102,0.9,"stim/31.jpeg",3,1,3,NA,"Instruments",2,1,"right","right",0.390999794,1,1,0,1,NA,NA,NA,NA,NA,NA,NA,NA,NA,NA,NA,NA,NA,NA,NA,NA,NA,NA,NA,NA,NA,NA,NA,NA
"39","stim/objects/HouseObjects/knife.png",103,52,103,0.5,"stim/54.jpeg",5,4,1,NA,"HouseObjects",1,4,"left","left",0.595999718,1,1,0,1,NA,NA,NA,NA,NA,NA,NA,NA,NA,NA,NA,NA,NA,NA,NA,NA,NA,NA,NA,NA,NA,NA,NA,NA
"60","stim/objects/HouseObjects/match2.png",104,52,104,0.1,"stim/32.jpeg",3,2,3,NA,"HouseObjects",1,4,"left","right",0.286000013,0,0,0,1,NA,NA,NA,NA,NA,NA,NA,NA,NA,NA,NA,NA,NA,NA,NA,NA,NA,NA,NA,NA,NA,NA,NA,NA
"136","stim/objects/Instruments/laud2.png",105,52,105,0.3,"stim/22.jpeg",2,2,2,NA,"Instruments",2,4,"right","left",0.684000015,0,0,0,1,NA,NA,NA,NA,NA,NA,NA,NA,NA,NA,NA,NA,NA,NA,NA,NA,NA,NA,NA,NA,NA,NA,NA,NA
"147","stim/objects/Instruments/marimba.png",106,52,106,0.5,"stim/54.jpeg",5,4,1,NA,"Instruments",2,4,"right","",NA,0,0,0,1,NA,NA,NA,NA,NA,NA,NA,NA,NA,NA,NA,NA,NA,NA,NA,NA,NA,NA,NA,NA,NA,NA,NA,NA
"167","stim/objects/Instruments/musicsheet.png",107,52,107,0.5,"stim/62.jpeg",6,2,1,NA,"Instruments",2,1,"right","left",0.631999969,0,0,0,1,NA,NA,NA,NA,NA,NA,NA,NA,NA,NA,NA,NA,NA,NA,NA,NA,NA,NA,NA,NA,NA,NA,NA,NA
"7","stim/objects/HouseObjects/iron2.png",108,52,108,0.7,"stim/21.jpeg",2,1,2,NA,"HouseObjects",1,2,"left","left",0.585999966,1,1,0,1,NA,NA,NA,NA,NA,NA,NA,NA,NA,NA,NA,NA,NA,NA,NA,NA,NA,NA,NA,NA,NA,NA,NA,NA
"117","stim/objects/HouseObjects/rug2.png",109,52,109,0.9,"stim/44.jpeg",4,4,3,NA,"HouseObjects",1,2,"left","left",0.55099988,1,1,0,1,NA,NA,NA,NA,NA,NA,NA,NA,NA,NA,NA,NA,NA,NA,NA,NA,NA,NA,NA,NA,NA,NA,NA,NA
"31","stim/objects/HouseObjects/key2.png",110,52,110,0.7,"stim/23.jpeg",2,3,2,NA,"HouseObjects",1,2,"left","left",0.639999866,1,1,0,1,NA,NA,NA,NA,NA,NA,NA,NA,NA,NA,NA,NA,NA,NA,NA,NA,NA,NA,NA,NA,NA,NA,NA,NA
"196","stim/objects/Instruments/oboe.png",111,52,111,0.5,"stim/64.jpeg",6,4,1,NA,"Instruments",2,1,"right","left",0.648999929,0,0,0,1,NA,NA,NA,NA,NA,NA,NA,NA,NA,NA,NA,NA,NA,NA,NA,NA,NA,NA,NA,NA,NA,NA,NA,NA
"123","stim/objects/Instruments/keyboard.png",112,52,112,0.5,"stim/51.jpeg",5,1,1,NA,"Instruments",2,4,"right","left",0.620999813,0,0,0,1,NA,NA,NA,NA,NA,NA,NA,NA,NA,NA,NA,NA,NA,NA,NA,NA,NA,NA,NA,NA,NA,NA,NA,NA
"148","stim/objects/Instruments/marimba.png",113,52,113,0.5,"stim/54.jpeg",5,4,1,NA,"Instruments",2,3,"right","left",0.785000086,0,0,0,1,NA,NA,NA,NA,NA,NA,NA,NA,NA,NA,NA,NA,NA,NA,NA,NA,NA,NA,NA,NA,NA,NA,NA,NA
"183","stim/objects/Instruments/musicstand.png",114,52,114,0.5,"stim/63.jpeg",6,3,1,NA,"Instruments",2,2,"right","left",0.751999855,0,0,0,1,NA,NA,NA,NA,NA,NA,NA,NA,NA,NA,NA,NA,NA,NA,NA,NA,NA,NA,NA,NA,NA,NA,NA,NA
"124","stim/objects/Instruments/keyboard.png",115,52,115,0.5,"stim/51.jpeg",5,1,1,NA,"Instruments",2,1,"right","left",0.790999889,0,0,0,1,NA,NA,NA,NA,NA,NA,NA,NA,NA,NA,NA,NA,NA,NA,NA,NA,NA,NA,NA,NA,NA,NA,NA,NA
"184","stim/objects/Instruments/musicstand.png",116,52,116,0.5,"stim/63.jpeg",6,3,1,NA,"Instruments",2,1,"right","",NA,0,0,0,1,NA,NA,NA,NA,NA,NA,NA,NA,NA,NA,NA,NA,NA,NA,NA,NA,NA,NA,NA,NA,NA,NA,NA,NA
"68","stim/objects/HouseObjects/pitcher.png",117,52,117,0.5,"stim/64.jpeg",6,4,1,NA,"HouseObjects",1,4,"left","right",0.590999842,0,0,0,1,NA,NA,NA,NA,NA,NA,NA,NA,NA,NA,NA,NA,NA,NA,NA,NA,NA,NA,NA,NA,NA,NA,NA,NA
"229","stim/objects/Instruments/record_player.png",118,52,118,0.7,"stim/14.jpeg",1,4,2,NA,"Instruments",2,2,"right","left",0.587999821,0,0,0,1,NA,NA,NA,NA,NA,NA,NA,NA,NA,NA,NA,NA,NA,NA,NA,NA,NA,NA,NA,NA,NA,NA,NA,NA
"190","stim/objects/Instruments/musicstand2.png",119,52,119,0.9,"stim/33.jpeg",3,3,3,NA,"Instruments",2,2,"right","right",0.574999809,1,1,0,1,NA,NA,NA,NA,NA,NA,NA,NA,NA,NA,NA,NA,NA,NA,NA,NA,NA,NA,NA,NA,NA,NA,NA,NA
"16","stim/objects/HouseObjects/ironingboard.png",120,52,120,0.5,"stim/52.jpeg",5,2,1,NA,"HouseObjects",1,2,"left","right",0.486000061,0,0,0,1,NA,NA,NA,NA,NA,NA,NA,NA,NA,NA,NA,NA,NA,NA,NA,NA,NA,NA,NA,NA,NA,NA,NA,NA
"66","stim/objects/HouseObjects/pan2.png",121,52,121,0.1,"stim/33.jpeg",3,3,3,NA,"HouseObjects",1,4,"left","right",0.580999851,0,0,0,1,NA,NA,NA,NA,NA,NA,NA,NA,NA,NA,NA,NA,NA,NA,NA,NA,NA,NA,NA,NA,NA,NA,NA,NA
"230","stim/objects/Instruments/record_player.png",122,52,122,0.7,"stim/14.jpeg",1,4,2,NA,"Instruments",2,3,"right","left",0.809000015,0,0,0,1,NA,NA,NA,NA,NA,NA,NA,NA,NA,NA,NA,NA,NA,NA,NA,NA,NA,NA,NA,NA,NA,NA,NA,NA
"32","stim/objects/HouseObjects/key2.png",123,52,123,0.7,"stim/23.jpeg",2,3,2,NA,"HouseObjects",1,3,"left","left",0.729999781,1,1,0,1,NA,NA,NA,NA,NA,NA,NA,NA,NA,NA,NA,NA,NA,NA,NA,NA,NA,NA,NA,NA,NA,NA,NA,NA
"206","stim/objects/Instruments/oboe2.png",124,52,124,0.9,"stim/34.jpeg",3,4,3,NA,"Instruments",2,3,"right","right",0.526000023,1,1,0,1,NA,NA,NA,NA,NA,NA,NA,NA,NA,NA,NA,NA,NA,NA,NA,NA,NA,NA,NA,NA,NA,NA,NA,NA
"33","stim/objects/HouseObjects/key2.png",125,52,125,0.7,"stim/23.jpeg",2,3,2,NA,"HouseObjects",1,1,"left","left",0.612999916,1,1,0,1,NA,NA,NA,NA,NA,NA,NA,NA,NA,NA,NA,NA,NA,NA,NA,NA,NA,NA,NA,NA,NA,NA,NA,NA
"80","stim/objects/HouseObjects/recyclingbin2.png",126,52,126,0.9,"stim/41.jpeg",4,1,3,NA,"HouseObjects",1,1,"left","left",0.625,1,1,0,1,NA,NA,NA,NA,NA,NA,NA,NA,NA,NA,NA,NA,NA,NA,NA,NA,NA,NA,NA,NA,NA,NA,NA,NA
"185","stim/objects/Instruments/musicstand.png",127,52,127,0.5,"stim/63.jpeg",6,3,1,NA,"Instruments",2,4,"right","left",0.726000071,0,0,0,1,NA,NA,NA,NA,NA,NA,NA,NA,NA,NA,NA,NA,NA,NA,NA,NA,NA,NA,NA,NA,NA,NA,NA,NA
"20","stim/objects/HouseObjects/ironingboard2.png",128,52,128,0.7,"stim/22.jpeg",2,2,2,NA,"HouseObjects",1,3,"left","right",0.416999817,0,0,0,1,NA,NA,NA,NA,NA,NA,NA,NA,NA,NA,NA,NA,NA,NA,NA,NA,NA,NA,NA,NA,NA,NA,NA,NA
"212","stim/objects/Instruments/panflute.png",129,52,129,0.7,"stim/11.jpeg",1,1,2,NA,"Instruments",2,2,"right","left",0.650000095,0,0,0,1,NA,NA,NA,NA,NA,NA,NA,NA,NA,NA,NA,NA,NA,NA,NA,NA,NA,NA,NA,NA,NA,NA,NA,NA
"40","stim/objects/HouseObjects/knife.png",130,52,130,0.5,"stim/54.jpeg",5,4,1,NA,"HouseObjects",1,3,"left","left",0.911000013,1,1,0,1,NA,NA,NA,NA,NA,NA,NA,NA,NA,NA,NA,NA,NA,NA,NA,NA,NA,NA,NA,NA,NA,NA,NA,NA
"217","stim/objects/Instruments/pipepiano.png",131,52,131,0.7,"stim/12.jpeg",1,2,2,NA,"Instruments",2,2,"right","right",0.809999943,1,1,0,1,NA,NA,NA,NA,NA,NA,NA,NA,NA,NA,NA,NA,NA,NA,NA,NA,NA,NA,NA,NA,NA,NA,NA,NA
"149","stim/objects/Instruments/marimba.png",132,52,132,0.5,"stim/54.jpeg",5,4,1,NA,"Instruments",2,2,"right","left",0.611000061,0,0,0,1,NA,NA,NA,NA,NA,NA,NA,NA,NA,NA,NA,NA,NA,NA,NA,NA,NA,NA,NA,NA,NA,NA,NA,NA
"41","stim/objects/HouseObjects/knife.png",133,52,133,0.5,"stim/54.jpeg",5,4,1,NA,"HouseObjects",1,2,"left","right",0.876999855,0,0,0,1,NA,NA,NA,NA,NA,NA,NA,NA,NA,NA,NA,NA,NA,NA,NA,NA,NA,NA,NA,NA,NA,NA,NA,NA
"21","stim/objects/HouseObjects/ironingboard2.png",134,52,134,0.7,"stim/22.jpeg",2,2,2,NA,"HouseObjects",1,3,"left","left",0.661999941,1,1,0,1,NA,NA,NA,NA,NA,NA,NA,NA,NA,NA,NA,NA,NA,NA,NA,NA,NA,NA,NA,NA,NA,NA,NA,NA
"131","stim/objects/Instruments/laud.png",135,52,135,0.5,"stim/52.jpeg",5,2,1,NA,"Instruments",2,2,"right","left",0.697000027,0,0,0,1,NA,NA,NA,NA,NA,NA,NA,NA,NA,NA,NA,NA,NA,NA,NA,NA,NA,NA,NA,NA,NA,NA,NA,NA
"137","stim/objects/Instruments/maraca.png",136,52,136,0.5,"stim/53.jpeg",5,3,1,NA,"Instruments",2,3,"right","left",0.891000032,0,0,0,1,NA,NA,NA,NA,NA,NA,NA,NA,NA,NA,NA,NA,NA,NA,NA,NA,NA,NA,NA,NA,NA,NA,NA,NA
"168","stim/objects/Instruments/musicsheet.png",137,52,137,0.5,"stim/62.jpeg",6,2,1,NA,"Instruments",2,1,"right","",NA,0,0,0,1,NA,NA,NA,NA,NA,NA,NA,NA,NA,NA,NA,NA,NA,NA,NA,NA,NA,NA,NA,NA,NA,NA,NA,NA
"118","stim/objects/HouseObjects/rug2.png",138,52,138,0.9,"stim/44.jpeg",4,4,3,NA,"HouseObjects",1,4,"left","left",0.822999954,1,1,0,1,NA,NA,NA,NA,NA,NA,NA,NA,NA,NA,NA,NA,NA,NA,NA,NA,NA,NA,NA,NA,NA,NA,NA,NA
"81","stim/objects/HouseObjects/recyclingbin2.png",139,52,139,0.9,"stim/41.jpeg",4,1,3,NA,"HouseObjects",1,2,"left","left",0.676999807,1,1,0,1,NA,NA,NA,NA,NA,NA,NA,NA,NA,NA,NA,NA,NA,NA,NA,NA,NA,NA,NA,NA,NA,NA,NA,NA
"69","stim/objects/HouseObjects/pitcher.png",140,52,140,0.5,"stim/64.jpeg",6,4,1,NA,"HouseObjects",1,1,"left","right",0.606999874,0,0,0,1,NA,NA,NA,NA,NA,NA,NA,NA,NA,NA,NA,NA,NA,NA,NA,NA,NA,NA,NA,NA,NA,NA,NA,NA
"162","stim/objects/Instruments/metronome2.png",141,52,141,0.9,"stim/31.jpeg",3,1,3,NA,"Instruments",2,1,"right","right",0.463000059,1,1,0,1,NA,NA,NA,NA,NA,NA,NA,NA,NA,NA,NA,NA,NA,NA,NA,NA,NA,NA,NA,NA,NA,NA,NA,NA
"132","stim/objects/Instruments/laud.png",142,52,142,0.5,"stim/52.jpeg",5,2,1,NA,"Instruments",2,2,"right","left",0.375999928,0,0,0,1,NA,NA,NA,NA,NA,NA,NA,NA,NA,NA,NA,NA,NA,NA,NA,NA,NA,NA,NA,NA,NA,NA,NA,NA
"70","stim/objects/HouseObjects/pitcher.png",143,52,143,0.5,"stim/64.jpeg",6,4,1,NA,"HouseObjects",1,3,"left","left",0.768999815,1,1,0,1,NA,NA,NA,NA,NA,NA,NA,NA,NA,NA,NA,NA,NA,NA,NA,NA,NA,NA,NA,NA,NA,NA,NA,NA
"92","stim/objects/HouseObjects/remote2.png",144,52,144,0.9,"stim/42.jpeg",4,2,3,NA,"HouseObjects",1,2,"left","left",0.633999825,1,1,0,1,NA,NA,NA,NA,NA,NA,NA,NA,NA,NA,NA,NA,NA,NA,NA,NA,NA,NA,NA,NA,NA,NA,NA,NA
"34","stim/objects/HouseObjects/key2.png",145,52,145,0.7,"stim/23.jpeg",2,3,2,NA,"HouseObjects",1,3,"left","right",0.299999952,0,0,0,1,NA,NA,NA,NA,NA,NA,NA,NA,NA,NA,NA,NA,NA,NA,NA,NA,NA,NA,NA,NA,NA,NA,NA,NA
"57","stim/objects/HouseObjects/match.png",146,52,146,0.5,"stim/62.jpeg",6,2,1,NA,"HouseObjects",1,4,"left","left",0.854999781,1,1,0,1,NA,NA,NA,NA,NA,NA,NA,NA,NA,NA,NA,NA,NA,NA,NA,NA,NA,NA,NA,NA,NA,NA,NA,NA
"207","stim/objects/Instruments/oboe2.png",147,52,147,0.9,"stim/34.jpeg",3,4,3,NA,"Instruments",2,2,"right","right",0.628000021,1,1,0,1,NA,NA,NA,NA,NA,NA,NA,NA,NA,NA,NA,NA,NA,NA,NA,NA,NA,NA,NA,NA,NA,NA,NA,NA
"35","stim/objects/HouseObjects/key2.png",148,52,148,0.7,"stim/23.jpeg",2,3,2,NA,"HouseObjects",1,2,"left","left",0.554999828,1,1,0,1,NA,NA,NA,NA,NA,NA,NA,NA,NA,NA,NA,NA,NA,NA,NA,NA,NA,NA,NA,NA,NA,NA,NA,NA
"197","stim/objects/Instruments/oboe.png",149,52,149,0.5,"stim/64.jpeg",6,4,1,NA,"Instruments",2,2,"right","left",0.85199976,0,0,0,1,NA,NA,NA,NA,NA,NA,NA,NA,NA,NA,NA,NA,NA,NA,NA,NA,NA,NA,NA,NA,NA,NA,NA,NA
"127","stim/objects/Instruments/keyboard2.png",150,52,150,0.3,"stim/21.jpeg",2,1,2,NA,"Instruments",2,2,"right","left",0.602999926,0,0,0,1,NA,NA,NA,NA,NA,NA,NA,NA,NA,NA,NA,NA,NA,NA,NA,NA,NA,NA,NA,NA,NA,NA,NA,NA
"8","stim/objects/HouseObjects/iron2.png",151,52,151,0.7,"stim/21.jpeg",2,1,2,NA,"HouseObjects",1,1,"left","left",0.447000027,1,1,0,1,NA,NA,NA,NA,NA,NA,NA,NA,NA,NA,NA,NA,NA,NA,NA,NA,NA,NA,NA,NA,NA,NA,NA,NA
"9","stim/objects/HouseObjects/iron2.png",152,52,152,0.7,"stim/21.jpeg",2,1,2,NA,"HouseObjects",1,1,"left","left",0.506999969,1,1,0,1,NA,NA,NA,NA,NA,NA,NA,NA,NA,NA,NA,NA,NA,NA,NA,NA,NA,NA,NA,NA,NA,NA,NA,NA
"75","stim/objects/HouseObjects/recyclingbin.png",153,52,153,0.3,"stim/11.jpeg",1,1,2,NA,"HouseObjects",1,2,"left","left",0.751999855,1,1,0,1,NA,NA,NA,NA,NA,NA,NA,NA,NA,NA,NA,NA,NA,NA,NA,NA,NA,NA,NA,NA,NA,NA,NA,NA
"46","stim/objects/HouseObjects/knife2.png",154,52,154,0.7,"stim/24.jpeg",2,4,2,NA,"HouseObjects",1,2,"left","",NA,0,0,0,1,NA,NA,NA,NA,NA,NA,NA,NA,NA,NA,NA,NA,NA,NA,NA,NA,NA,NA,NA,NA,NA,NA,NA,NA
"10","stim/objects/HouseObjects/iron2.png",155,52,155,0.7,"stim/21.jpeg",2,1,2,NA,"HouseObjects",1,1,"left","left",0.476999998,1,1,0,1,NA,NA,NA,NA,NA,NA,NA,NA,NA,NA,NA,NA,NA,NA,NA,NA,NA,NA,NA,NA,NA,NA,NA,NA
"98","stim/objects/HouseObjects/rubbergloves.png",156,52,156,0.3,"stim/13.jpeg",1,3,2,NA,"HouseObjects",1,4,"left","right",0.855000019,0,0,0,1,NA,NA,NA,NA,NA,NA,NA,NA,NA,NA,NA,NA,NA,NA,NA,NA,NA,NA,NA,NA,NA,NA,NA,NA
"11","stim/objects/HouseObjects/iron2.png",157,52,157,0.7,"stim/21.jpeg",2,1,2,NA,"HouseObjects",1,1,"left","left",0.597999811,1,1,0,1,NA,NA,NA,NA,NA,NA,NA,NA,NA,NA,NA,NA,NA,NA,NA,NA,NA,NA,NA,NA,NA,NA,NA,NA
"191","stim/objects/Instruments/musicstand2.png",158,52,158,0.9,"stim/33.jpeg",3,3,3,NA,"Instruments",2,4,"right","right",0.715999842,1,1,0,1,NA,NA,NA,NA,NA,NA,NA,NA,NA,NA,NA,NA,NA,NA,NA,NA,NA,NA,NA,NA,NA,NA,NA,NA
"198","stim/objects/Instruments/oboe.png",159,52,159,0.5,"stim/64.jpeg",6,4,1,NA,"Instruments",2,3,"right","left",0.585999966,0,0,0,1,NA,NA,NA,NA,NA,NA,NA,NA,NA,NA,NA,NA,NA,NA,NA,NA,NA,NA,NA,NA,NA,NA,NA,NA
"28","stim/objects/HouseObjects/key.png",160,52,160,0.5,"stim/53.jpeg",5,3,1,NA,"HouseObjects",1,4,"left","right",0.705999851,0,0,0,1,NA,NA,NA,NA,NA,NA,NA,NA,NA,NA,NA,NA,NA,NA,NA,NA,NA,NA,NA,NA,NA,NA,NA,NA
"218","stim/objects/Instruments/pipepiano.png",161,52,161,0.7,"stim/12.jpeg",1,2,2,NA,"Instruments",2,3,"right","right",0.682999849,1,1,0,1,NA,NA,NA,NA,NA,NA,NA,NA,NA,NA,NA,NA,NA,NA,NA,NA,NA,NA,NA,NA,NA,NA,NA,NA
"36","stim/objects/HouseObjects/key2.png",162,52,162,0.7,"stim/23.jpeg",2,3,2,NA,"HouseObjects",1,1,"left","left",0.595999956,1,1,0,1,NA,NA,NA,NA,NA,NA,NA,NA,NA,NA,NA,NA,NA,NA,NA,NA,NA,NA,NA,NA,NA,NA,NA,NA
"213","stim/objects/Instruments/panflute.png",163,52,163,0.7,"stim/11.jpeg",1,1,2,NA,"Instruments",2,3,"right","left",0.624999762,0,0,0,1,NA,NA,NA,NA,NA,NA,NA,NA,NA,NA,NA,NA,NA,NA,NA,NA,NA,NA,NA,NA,NA,NA,NA,NA
"192","stim/objects/Instruments/musicstand2.png",164,52,164,0.9,"stim/33.jpeg",3,3,3,NA,"Instruments",2,3,"right","",NA,0,0,0,1,NA,NA,NA,NA,NA,NA,NA,NA,NA,NA,NA,NA,NA,NA,NA,NA,NA,NA,NA,NA,NA,NA,NA,NA
"177","stim/objects/Instruments/musicsheet2.png",165,52,165,0.9,"stim/32.jpeg",3,2,3,NA,"Instruments",2,4,"right","left",0.473999977,0,0,0,1,NA,NA,NA,NA,NA,NA,NA,NA,NA,NA,NA,NA,NA,NA,NA,NA,NA,NA,NA,NA,NA,NA,NA,NA
"47","stim/objects/HouseObjects/knife2.png",166,52,166,0.7,"stim/24.jpeg",2,4,2,NA,"HouseObjects",1,2,"left","left",0.687999964,1,1,0,1,NA,NA,NA,NA,NA,NA,NA,NA,NA,NA,NA,NA,NA,NA,NA,NA,NA,NA,NA,NA,NA,NA,NA,NA
"104","stim/objects/HouseObjects/rubbergloves2.png",167,52,167,0.9,"stim/43.jpeg",4,3,3,NA,"HouseObjects",1,4,"left","left",0.608999729,1,1,0,1,NA,NA,NA,NA,NA,NA,NA,NA,NA,NA,NA,NA,NA,NA,NA,NA,NA,NA,NA,NA,NA,NA,NA,NA
"82","stim/objects/HouseObjects/recyclingbin2.png",168,52,168,0.9,"stim/41.jpeg",4,1,3,NA,"HouseObjects",1,3,"left","left",0.545000076,1,1,0,1,NA,NA,NA,NA,NA,NA,NA,NA,NA,NA,NA,NA,NA,NA,NA,NA,NA,NA,NA,NA,NA,NA,NA,NA
"138","stim/objects/Instruments/maraca.png",169,52,169,0.5,"stim/53.jpeg",5,3,1,NA,"Instruments",2,4,"right","right",0.626999855,1,1,0,1,NA,NA,NA,NA,NA,NA,NA,NA,NA,NA,NA,NA,NA,NA,NA,NA,NA,NA,NA,NA,NA,NA,NA,NA
"83","stim/objects/HouseObjects/recyclingbin2.png",170,52,170,0.9,"stim/41.jpeg",4,1,3,NA,"HouseObjects",1,1,"left","left",0.557999849,1,1,0,1,NA,NA,NA,NA,NA,NA,NA,NA,NA,NA,NA,NA,NA,NA,NA,NA,NA,NA,NA,NA,NA,NA,NA,NA
"139","stim/objects/Instruments/maraca.png",171,52,171,0.5,"stim/53.jpeg",5,3,1,NA,"Instruments",2,3,"right","left",0.575999975,0,0,0,1,NA,NA,NA,NA,NA,NA,NA,NA,NA,NA,NA,NA,NA,NA,NA,NA,NA,NA,NA,NA,NA,NA,NA,NA
"17","stim/objects/HouseObjects/ironingboard.png",172,52,172,0.5,"stim/52.jpeg",5,2,1,NA,"HouseObjects",1,2,"left","",NA,0,0,0,1,NA,NA,NA,NA,NA,NA,NA,NA,NA,NA,NA,NA,NA,NA,NA,NA,NA,NA,NA,NA,NA,NA,NA,NA
"29","stim/objects/HouseObjects/key.png",173,52,173,0.5,"stim/53.jpeg",5,3,1,NA,"HouseObjects",1,1,"left","",NA,0,0,0,1,NA,NA,NA,NA,NA,NA,NA,NA,NA,NA,NA,NA,NA,NA,NA,NA,NA,NA,NA,NA,NA,NA,NA,NA
"150","stim/objects/Instruments/marimba2.png",174,52,174,0.3,"stim/24.jpeg",2,4,2,NA,"Instruments",2,2,"right","left",0.641000032,0,0,0,1,NA,NA,NA,NA,NA,NA,NA,NA,NA,NA,NA,NA,NA,NA,NA,NA,NA,NA,NA,NA,NA,NA,NA,NA
"105","stim/objects/HouseObjects/rubbergloves2.png",175,52,175,0.9,"stim/43.jpeg",4,3,3,NA,"HouseObjects",1,4,"left","left",0.549999952,1,1,0,1,NA,NA,NA,NA,NA,NA,NA,NA,NA,NA,NA,NA,NA,NA,NA,NA,NA,NA,NA,NA,NA,NA,NA,NA
"151","stim/objects/Instruments/marimba2.png",176,52,176,0.3,"stim/24.jpeg",2,4,2,NA,"Instruments",2,2,"right","left",0.625999928,0,0,0,1,NA,NA,NA,NA,NA,NA,NA,NA,NA,NA,NA,NA,NA,NA,NA,NA,NA,NA,NA,NA,NA,NA,NA,NA
"106","stim/objects/HouseObjects/rubbergloves2.png",177,52,177,0.9,"stim/43.jpeg",4,3,3,NA,"HouseObjects",1,3,"left","left",0.635999918,1,1,0,1,NA,NA,NA,NA,NA,NA,NA,NA,NA,NA,NA,NA,NA,NA,NA,NA,NA,NA,NA,NA,NA,NA,NA,NA
"54","stim/objects/HouseObjects/lintroller2.png",178,52,178,0.1,"stim/31.jpeg",3,1,3,NA,"HouseObjects",1,4,"left","right",0.682999849,0,0,0,1,NA,NA,NA,NA,NA,NA,NA,NA,NA,NA,NA,NA,NA,NA,NA,NA,NA,NA,NA,NA,NA,NA,NA,NA
"199","stim/objects/Instruments/oboe.png",179,52,179,0.5,"stim/64.jpeg",6,4,1,NA,"Instruments",2,3,"right","right",0.707999945,1,1,0,1,NA,NA,NA,NA,NA,NA,NA,NA,NA,NA,NA,NA,NA,NA,NA,NA,NA,NA,NA,NA,NA,NA,NA,NA
"178","stim/objects/Instruments/musicsheet2.png",180,52,180,0.9,"stim/32.jpeg",3,2,3,NA,"Instruments",2,4,"right","right",0.699999809,1,1,0,1,NA,NA,NA,NA,NA,NA,NA,NA,NA,NA,NA,NA,NA,NA,NA,NA,NA,NA,NA,NA,NA,NA,NA,NA
"208","stim/objects/Instruments/oboe2.png",181,52,181,0.9,"stim/34.jpeg",3,4,3,NA,"Instruments",2,2,"right","left",0.535999775,0,0,0,1,NA,NA,NA,NA,NA,NA,NA,NA,NA,NA,NA,NA,NA,NA,NA,NA,NA,NA,NA,NA,NA,NA,NA,NA
"219","stim/objects/Instruments/pipepiano.png",182,52,182,0.7,"stim/12.jpeg",1,2,2,NA,"Instruments",2,1,"right","right",0.69299984,1,1,0,1,NA,NA,NA,NA,NA,NA,NA,NA,NA,NA,NA,NA,NA,NA,NA,NA,NA,NA,NA,NA,NA,NA,NA,NA
"107","stim/objects/HouseObjects/rubbergloves2.png",183,52,183,0.9,"stim/43.jpeg",4,3,3,NA,"HouseObjects",1,2,"left","left",0.568999767,1,1,0,1,NA,NA,NA,NA,NA,NA,NA,NA,NA,NA,NA,NA,NA,NA,NA,NA,NA,NA,NA,NA,NA,NA,NA,NA
"143","stim/objects/Instruments/maraca2.png",184,52,184,0.3,"stim/23.jpeg",2,3,2,NA,"Instruments",2,2,"right","left",0.734999895,0,0,0,1,NA,NA,NA,NA,NA,NA,NA,NA,NA,NA,NA,NA,NA,NA,NA,NA,NA,NA,NA,NA,NA,NA,NA,NA
"235","stim/objects/Instruments/record.png",185,52,185,0.7,"stim/13.jpeg",1,3,2,NA,"Instruments",2,2,"right","",NA,0,0,0,1,NA,NA,NA,NA,NA,NA,NA,NA,NA,NA,NA,NA,NA,NA,NA,NA,NA,NA,NA,NA,NA,NA,NA,NA
"193","stim/objects/Instruments/musicstand2.png",186,52,186,0.9,"stim/33.jpeg",3,3,3,NA,"Instruments",2,2,"right","right",0.894000053,1,1,0,1,NA,NA,NA,NA,NA,NA,NA,NA,NA,NA,NA,NA,NA,NA,NA,NA,NA,NA,NA,NA,NA,NA,NA,NA
"163","stim/objects/Instruments/metronome2.png",187,52,187,0.9,"stim/31.jpeg",3,1,3,NA,"Instruments",2,3,"right","right",0.737999916,1,1,0,1,NA,NA,NA,NA,NA,NA,NA,NA,NA,NA,NA,NA,NA,NA,NA,NA,NA,NA,NA,NA,NA,NA,NA,NA
"93","stim/objects/HouseObjects/remote2.png",188,52,188,0.9,"stim/42.jpeg",4,2,3,NA,"HouseObjects",1,3,"left","left",0.5849998,1,1,0,1,NA,NA,NA,NA,NA,NA,NA,NA,NA,NA,NA,NA,NA,NA,NA,NA,NA,NA,NA,NA,NA,NA,NA,NA
"84","stim/objects/HouseObjects/recyclingbin2.png",189,52,189,0.9,"stim/41.jpeg",4,1,3,NA,"HouseObjects",1,1,"left","left",0.69900012,1,1,0,1,NA,NA,NA,NA,NA,NA,NA,NA,NA,NA,NA,NA,NA,NA,NA,NA,NA,NA,NA,NA,NA,NA,NA,NA
"220","stim/objects/Instruments/pipepiano.png",190,52,190,0.7,"stim/12.jpeg",1,2,2,NA,"Instruments",2,2,"right","right",0.833999872,1,1,0,1,NA,NA,NA,NA,NA,NA,NA,NA,NA,NA,NA,NA,NA,NA,NA,NA,NA,NA,NA,NA,NA,NA,NA,NA
"94","stim/objects/HouseObjects/remote2.png",191,52,191,0.9,"stim/42.jpeg",4,2,3,NA,"HouseObjects",1,1,"left","left",0.625,1,1,0,1,NA,NA,NA,NA,NA,NA,NA,NA,NA,NA,NA,NA,NA,NA,NA,NA,NA,NA,NA,NA,NA,NA,NA,NA
"164","stim/objects/Instruments/metronome2.png",192,52,192,0.9,"stim/31.jpeg",3,1,3,NA,"Instruments",2,3,"right","right",0.636999846,1,1,0,1,NA,NA,NA,NA,NA,NA,NA,NA,NA,NA,NA,NA,NA,NA,NA,NA,NA,NA,NA,NA,NA,NA,NA,NA
"224","stim/objects/Instruments/pipepiano2.png",193,52,193,0.1,"stim/42.jpeg",4,2,3,NA,"Instruments",2,3,"right","left",0.618000031,0,0,0,1,NA,NA,NA,NA,NA,NA,NA,NA,NA,NA,NA,NA,NA,NA,NA,NA,NA,NA,NA,NA,NA,NA,NA,NA
"12","stim/objects/HouseObjects/iron2.png",194,52,194,0.7,"stim/21.jpeg",2,1,2,NA,"HouseObjects",1,2,"left","left",0.568999767,1,1,0,1,NA,NA,NA,NA,NA,NA,NA,NA,NA,NA,NA,NA,NA,NA,NA,NA,NA,NA,NA,NA,NA,NA,NA,NA
"236","stim/objects/Instruments/record.png",195,52,195,0.7,"stim/13.jpeg",1,3,2,NA,"Instruments",2,1,"right","left",0.802999973,0,0,0,1,NA,NA,NA,NA,NA,NA,NA,NA,NA,NA,NA,NA,NA,NA,NA,NA,NA,NA,NA,NA,NA,NA,NA,NA
"86","stim/objects/HouseObjects/remote.png",196,52,196,0.3,"stim/12.jpeg",1,2,2,NA,"HouseObjects",1,2,"left","right",0.59100008,0,0,0,1,NA,NA,NA,NA,NA,NA,NA,NA,NA,NA,NA,NA,NA,NA,NA,NA,NA,NA,NA,NA,NA,NA,NA,NA
"231","stim/objects/Instruments/record_player.png",197,52,197,0.7,"stim/14.jpeg",1,4,2,NA,"Instruments",2,1,"right","left",0.417999744,0,0,0,1,NA,NA,NA,NA,NA,NA,NA,NA,NA,NA,NA,NA,NA,NA,NA,NA,NA,NA,NA,NA,NA,NA,NA,NA
"179","stim/objects/Instruments/musicsheet2.png",198,52,198,0.9,"stim/32.jpeg",3,2,3,NA,"Instruments",2,4,"right","right",0.520999908,1,1,0,1,NA,NA,NA,NA,NA,NA,NA,NA,NA,NA,NA,NA,NA,NA,NA,NA,NA,NA,NA,NA,NA,NA,NA,NA
"95","stim/objects/HouseObjects/remote2.png",199,52,199,0.9,"stim/42.jpeg",4,2,3,NA,"HouseObjects",1,1,"left","left",0.552999973,1,1,0,1,NA,NA,NA,NA,NA,NA,NA,NA,NA,NA,NA,NA,NA,NA,NA,NA,NA,NA,NA,NA,NA,NA,NA,NA
"133","stim/objects/Instruments/laud.png",200,52,200,0.5,"stim/52.jpeg",5,2,1,NA,"Instruments",2,4,"right","left",0.756000042,0,0,0,1,NA,NA,NA,NA,NA,NA,NA,NA,NA,NA,NA,NA,NA,NA,NA,NA,NA,NA,NA,NA,NA,NA,NA,NA
"165","stim/objects/Instruments/metronome2.png",201,52,201,0.9,"stim/31.jpeg",3,1,3,NA,"Instruments",2,2,"right","right",0.869999886,1,1,0,1,NA,NA,NA,NA,NA,NA,NA,NA,NA,NA,NA,NA,NA,NA,NA,NA,NA,NA,NA,NA,NA,NA,NA,NA
"58","stim/objects/HouseObjects/match.png",202,52,202,0.5,"stim/62.jpeg",6,2,1,NA,"HouseObjects",1,1,"left","left",0.55099988,1,1,0,1,NA,NA,NA,NA,NA,NA,NA,NA,NA,NA,NA,NA,NA,NA,NA,NA,NA,NA,NA,NA,NA,NA,NA,NA
"125","stim/objects/Instruments/keyboard.png",203,52,203,0.5,"stim/51.jpeg",5,1,1,NA,"Instruments",2,1,"right","left",0.674999952,0,0,0,1,NA,NA,NA,NA,NA,NA,NA,NA,NA,NA,NA,NA,NA,NA,NA,NA,NA,NA,NA,NA,NA,NA,NA,NA
"140","stim/objects/Instruments/maraca.png",204,52,204,0.5,"stim/53.jpeg",5,3,1,NA,"Instruments",2,2,"right","",NA,0,0,0,1,NA,NA,NA,NA,NA,NA,NA,NA,NA,NA,NA,NA,NA,NA,NA,NA,NA,NA,NA,NA,NA,NA,NA,NA
"214","stim/objects/Instruments/panflute.png",205,52,205,0.7,"stim/11.jpeg",1,1,2,NA,"Instruments",2,2,"right","left",0.521000147,0,0,0,1,NA,NA,NA,NA,NA,NA,NA,NA,NA,NA,NA,NA,NA,NA,NA,NA,NA,NA,NA,NA,NA,NA,NA,NA
"119","stim/objects/HouseObjects/rug2.png",206,52,206,0.9,"stim/44.jpeg",4,4,3,NA,"HouseObjects",1,2,"left","right",0.421000004,0,0,0,1,NA,NA,NA,NA,NA,NA,NA,NA,NA,NA,NA,NA,NA,NA,NA,NA,NA,NA,NA,NA,NA,NA,NA,NA
"22","stim/objects/HouseObjects/ironingboard2.png",207,52,207,0.7,"stim/22.jpeg",2,2,2,NA,"HouseObjects",1,3,"left","left",0.563999891,1,1,0,1,NA,NA,NA,NA,NA,NA,NA,NA,NA,NA,NA,NA,NA,NA,NA,NA,NA,NA,NA,NA,NA,NA,NA,NA
"120","stim/objects/HouseObjects/rug2.png",208,52,208,0.9,"stim/44.jpeg",4,4,3,NA,"HouseObjects",1,1,"left","left",0.67599988,1,1,0,1,NA,NA,NA,NA,NA,NA,NA,NA,NA,NA,NA,NA,NA,NA,NA,NA,NA,NA,NA,NA,NA,NA,NA,NA
"169","stim/objects/Instruments/musicsheet.png",209,52,209,0.5,"stim/62.jpeg",6,2,1,NA,"Instruments",2,2,"right","left",0.716999769,0,0,0,1,NA,NA,NA,NA,NA,NA,NA,NA,NA,NA,NA,NA,NA,NA,NA,NA,NA,NA,NA,NA,NA,NA,NA,NA
"99","stim/objects/HouseObjects/rubbergloves.png",210,52,210,0.3,"stim/13.jpeg",1,3,2,NA,"HouseObjects",1,1,"left","left",0.480999947,1,1,0,1,NA,NA,NA,NA,NA,NA,NA,NA,NA,NA,NA,NA,NA,NA,NA,NA,NA,NA,NA,NA,NA,NA,NA,NA
"237","stim/objects/Instruments/record.png",211,52,211,0.7,"stim/13.jpeg",1,3,2,NA,"Instruments",2,4,"right","right",0.450000048,1,1,0,1,NA,NA,NA,NA,NA,NA,NA,NA,NA,NA,NA,NA,NA,NA,NA,NA,NA,NA,NA,NA,NA,NA,NA,NA
"170","stim/objects/Instruments/musicsheet.png",212,52,212,0.5,"stim/62.jpeg",6,2,1,NA,"Instruments",2,4,"right","left",0.549999952,0,0,0,1,NA,NA,NA,NA,NA,NA,NA,NA,NA,NA,NA,NA,NA,NA,NA,NA,NA,NA,NA,NA,NA,NA,NA,NA
"238","stim/objects/Instruments/record.png",213,52,213,0.7,"stim/13.jpeg",1,3,2,NA,"Instruments",2,1,"right","left",0.706999779,0,0,0,1,NA,NA,NA,NA,NA,NA,NA,NA,NA,NA,NA,NA,NA,NA,NA,NA,NA,NA,NA,NA,NA,NA,NA,NA
"152","stim/objects/Instruments/marimba2.png",214,52,214,0.3,"stim/24.jpeg",2,4,2,NA,"Instruments",2,3,"right","left",0.555000067,0,0,0,1,NA,NA,NA,NA,NA,NA,NA,NA,NA,NA,NA,NA,NA,NA,NA,NA,NA,NA,NA,NA,NA,NA,NA,NA
"221","stim/objects/Instruments/pipepiano.png",215,52,215,0.7,"stim/12.jpeg",1,2,2,NA,"Instruments",2,1,"right","left",0.610999823,0,0,0,1,NA,NA,NA,NA,NA,NA,NA,NA,NA,NA,NA,NA,NA,NA,NA,NA,NA,NA,NA,NA,NA,NA,NA,NA
"144","stim/objects/Instruments/maraca2.png",216,52,216,0.3,"stim/23.jpeg",2,3,2,NA,"Instruments",2,1,"right","left",0.706999779,0,0,0,1,NA,NA,NA,NA,NA,NA,NA,NA,NA,NA,NA,NA,NA,NA,NA,NA,NA,NA,NA,NA,NA,NA,NA,NA
"23","stim/objects/HouseObjects/ironingboard2.png",217,52,217,0.7,"stim/22.jpeg",2,2,2,NA,"HouseObjects",1,4,"left","left",0.536000013,1,1,0,1,NA,NA,NA,NA,NA,NA,NA,NA,NA,NA,NA,NA,NA,NA,NA,NA,NA,NA,NA,NA,NA,NA,NA,NA
"59","stim/objects/HouseObjects/match.png",218,52,218,0.5,"stim/62.jpeg",6,2,1,NA,"HouseObjects",1,3,"left","left",0.60800004,1,1,0,1,NA,NA,NA,NA,NA,NA,NA,NA,NA,NA,NA,NA,NA,NA,NA,NA,NA,NA,NA,NA,NA,NA,NA,NA
"155","stim/objects/Instruments/metronome.png",219,52,219,0.5,"stim/61.jpeg",6,1,1,NA,"Instruments",2,2,"right","right",0.694000006,1,1,0,1,NA,NA,NA,NA,NA,NA,NA,NA,NA,NA,NA,NA,NA,NA,NA,NA,NA,NA,NA,NA,NA,NA,NA,NA
"128","stim/objects/Instruments/keyboard2.png",220,52,220,0.3,"stim/21.jpeg",2,1,2,NA,"Instruments",2,4,"right","left",0.513000011,0,0,0,1,NA,NA,NA,NA,NA,NA,NA,NA,NA,NA,NA,NA,NA,NA,NA,NA,NA,NA,NA,NA,NA,NA,NA,NA
"48","stim/objects/HouseObjects/knife2.png",221,52,221,0.7,"stim/24.jpeg",2,4,2,NA,"HouseObjects",1,4,"left","left",0.523999929,1,1,0,1,NA,NA,NA,NA,NA,NA,NA,NA,NA,NA,NA,NA,NA,NA,NA,NA,NA,NA,NA,NA,NA,NA,NA,NA
"156","stim/objects/Instruments/metronome.png",222,52,222,0.5,"stim/61.jpeg",6,1,1,NA,"Instruments",2,1,"right","left",0.666999817,0,0,0,1,NA,NA,NA,NA,NA,NA,NA,NA,NA,NA,NA,NA,NA,NA,NA,NA,NA,NA,NA,NA,NA,NA,NA,NA
"141","stim/objects/Instruments/maraca.png",223,52,223,0.5,"stim/53.jpeg",5,3,1,NA,"Instruments",2,2,"right","right",0.664000034,1,1,0,1,NA,NA,NA,NA,NA,NA,NA,NA,NA,NA,NA,NA,NA,NA,NA,NA,NA,NA,NA,NA,NA,NA,NA,NA
"87","stim/objects/HouseObjects/remote.png",224,52,224,0.3,"stim/12.jpeg",1,2,2,NA,"HouseObjects",1,1,"left","right",0.679999828,0,0,0,1,NA,NA,NA,NA,NA,NA,NA,NA,NA,NA,NA,NA,NA,NA,NA,NA,NA,NA,NA,NA,NA,NA,NA,NA
"215","stim/objects/Instruments/panflute.png",225,52,225,0.7,"stim/11.jpeg",1,1,2,NA,"Instruments",2,1,"right","left",0.636999846,0,0,0,1,NA,NA,NA,NA,NA,NA,NA,NA,NA,NA,NA,NA,NA,NA,NA,NA,NA,NA,NA,NA,NA,NA,NA,NA
"222","stim/objects/Instruments/pipepiano.png",226,52,226,0.7,"stim/12.jpeg",1,2,2,NA,"Instruments",2,1,"right","",NA,0,0,0,1,NA,NA,NA,NA,NA,NA,NA,NA,NA,NA,NA,NA,NA,NA,NA,NA,NA,NA,NA,NA,NA,NA,NA,NA
"166","stim/objects/Instruments/metronome2.png",227,52,227,0.9,"stim/31.jpeg",3,1,3,NA,"Instruments",2,1,"right","right",0.593999863,1,1,0,1,NA,NA,NA,NA,NA,NA,NA,NA,NA,NA,NA,NA,NA,NA,NA,NA,NA,NA,NA,NA,NA,NA,NA,NA
"157","stim/objects/Instruments/metronome.png",228,52,228,0.5,"stim/61.jpeg",6,1,1,NA,"Instruments",2,3,"right","left",0.534999847,0,0,0,1,NA,NA,NA,NA,NA,NA,NA,NA,NA,NA,NA,NA,NA,NA,NA,NA,NA,NA,NA,NA,NA,NA,NA,NA
"65","stim/objects/HouseObjects/pan.png",229,52,229,0.5,"stim/63.jpeg",6,3,1,NA,"HouseObjects",1,1,"left","left",0.683000088,1,1,0,1,NA,NA,NA,NA,NA,NA,NA,NA,NA,NA,NA,NA,NA,NA,NA,NA,NA,NA,NA,NA,NA,NA,NA,NA
"111","stim/objects/HouseObjects/rug.png",230,52,230,0.3,"stim/14.jpeg",1,4,2,NA,"HouseObjects",1,4,"left","right",0.710999966,0,0,0,1,NA,NA,NA,NA,NA,NA,NA,NA,NA,NA,NA,NA,NA,NA,NA,NA,NA,NA,NA,NA,NA,NA,NA,NA
"24","stim/objects/HouseObjects/ironingboard2.png",231,52,231,0.7,"stim/22.jpeg",2,2,2,NA,"HouseObjects",1,1,"left","left",0.572999954,1,1,0,1,NA,NA,NA,NA,NA,NA,NA,NA,NA,NA,NA,NA,NA,NA,NA,NA,NA,NA,NA,NA,NA,NA,NA,NA
"180","stim/objects/Instruments/musicsheet2.png",232,52,232,0.9,"stim/32.jpeg",3,2,3,NA,"Instruments",2,4,"right","right",0.599999905,1,1,0,1,NA,NA,NA,NA,NA,NA,NA,NA,NA,NA,NA,NA,NA,NA,NA,NA,NA,NA,NA,NA,NA,NA,NA,NA
"194","stim/objects/Instruments/musicstand2.png",233,52,233,0.9,"stim/33.jpeg",3,3,3,NA,"Instruments",2,1,"right","left",0.573999882,0,0,0,1,NA,NA,NA,NA,NA,NA,NA,NA,NA,NA,NA,NA,NA,NA,NA,NA,NA,NA,NA,NA,NA,NA,NA,NA
"223","stim/objects/Instruments/pipepiano.png",234,52,234,0.7,"stim/12.jpeg",1,2,2,NA,"Instruments",2,3,"right","right",0.621999979,1,1,0,1,NA,NA,NA,NA,NA,NA,NA,NA,NA,NA,NA,NA,NA,NA,NA,NA,NA,NA,NA,NA,NA,NA,NA,NA
"53","stim/objects/HouseObjects/lintroller.png",235,52,235,0.5,"stim/61.jpeg",6,1,1,NA,"HouseObjects",1,2,"left","left",0.445999861,1,1,0,1,NA,NA,NA,NA,NA,NA,NA,NA,NA,NA,NA,NA,NA,NA,NA,NA,NA,NA,NA,NA,NA,NA,NA,NA
"71","stim/objects/HouseObjects/pitcher.png",236,52,236,0.5,"stim/64.jpeg",6,4,1,NA,"HouseObjects",1,3,"left","right",0.378000021,0,0,0,1,NA,NA,NA,NA,NA,NA,NA,NA,NA,NA,NA,NA,NA,NA,NA,NA,NA,NA,NA,NA,NA,NA,NA,NA
"239","stim/objects/Instruments/record.png",237,52,237,0.7,"stim/13.jpeg",1,3,2,NA,"Instruments",2,4,"right","left",0.280999899,0,0,0,1,NA,NA,NA,NA,NA,NA,NA,NA,NA,NA,NA,NA,NA,NA,NA,NA,NA,NA,NA,NA,NA,NA,NA,NA
"108","stim/objects/HouseObjects/rubbergloves2.png",238,52,238,0.9,"stim/43.jpeg",4,3,3,NA,"HouseObjects",1,3,"left","left",0.267999887,1,1,0,1,NA,NA,NA,NA,NA,NA,NA,NA,NA,NA,NA,NA,NA,NA,NA,NA,NA,NA,NA,NA,NA,NA,NA,NA
"171","stim/objects/Instruments/musicsheet.png",239,52,239,0.5,"stim/62.jpeg",6,2,1,NA,"Instruments",2,2,"right","left",0.629999876,0,0,0,1,NA,NA,NA,NA,NA,NA,NA,NA,NA,NA,NA,NA,NA,NA,NA,NA,NA,NA,NA,NA,NA,NA,NA,NA
"96","stim/objects/HouseObjects/remote2.png",240,52,240,0.9,"stim/42.jpeg",4,2,3,NA,"HouseObjects",1,3,"left","left",0.497999907,1,1,0,1,NA,NA,NA,NA,NA,NA,NA,NA,NA,NA,NA,NA,NA,NA,NA,NA,NA,NA,NA,NA,NA,NA,NA,NA
"541","stim/objects/Instruments/guitarcase.png",248,52,241,0.5,"stim/52.jpeg",5,2,1,1,"Instruments",2,3,"right","",NA,0,0,1,0,160,52,1,0.5,1,"stim/52.jpeg",5,2,"stim/52.jpeg",3,"right",1.118000031,1,2,0.707000017,2,0.552999973,160,0,1,NA,0,NA,0
"375","stim/objects/HouseObjects/glass2.png",249,52,242,0.1,"stim/31.jpeg",3,1,3,1,"HouseObjects",1,1,"left","right",0.709000111,0,0,1,0,155,52,1,0.1,1,"stim/31.jpeg",3,1,"stim/31.jpeg",1,"left",1.085999966,4,1,2.299000025,2,0.571999788,155,1,1,1,0,0,0
"325","stim/objects/HouseObjects/flyswatter.png",250,52,243,0.9,"stim/43.jpeg",4,3,3,2,"HouseObjects",1,4,"left","left",0.753000021,1,1,1,0,NA,NA,NA,NA,NA,NA,NA,NA,NA,NA,NA,NA,NA,NA,NA,NA,NA,NA,NA,NA,NA,NA,NA,NA
"421","stim/objects/Instruments/bassguitar.png",251,52,244,0.5,"stim/62.jpeg",6,2,1,2,"Instruments",2,4,"right","left",0.64199996,0,0,1,0,NA,NA,NA,NA,NA,NA,NA,NA,NA,NA,NA,NA,NA,NA,NA,NA,NA,NA,NA,NA,NA,NA,NA,NA
"524","stim/objects/Instruments/grandpiano.png",252,52,245,0.9,"stim/32.jpeg",3,2,3,2,"Instruments",2,1,"right","right",0.427999973,1,1,1,0,NA,NA,NA,NA,NA,NA,NA,NA,NA,NA,NA,NA,NA,NA,NA,NA,NA,NA,NA,NA,NA,NA,NA,NA
"282","stim/objects/HouseObjects/coffee2.png",253,52,246,0.7,"stim/23.jpeg",2,3,2,1,"HouseObjects",1,2,"left","left",0.417999983,1,1,1,0,152,52,1,0.7,1,"stim/23.jpeg",2,3,"stim/23.jpeg",2,"right",0.752999783,2,2,0.703999996,2,0.427999973,152,0,0,NA,1,NA,0
"253","stim/objects/HouseObjects/bleachbottle.png",254,52,247,0.5,"stim/52.jpeg",5,2,1,2,"HouseObjects",1,1,"left","right",0.551999807,0,0,1,0,NA,NA,NA,NA,NA,NA,NA,NA,NA,NA,NA,NA,NA,NA,NA,NA,NA,NA,NA,NA,NA,NA,NA,NA
"343","stim/objects/HouseObjects/garbagebin.png",255,52,248,0.9,"stim/41.jpeg",4,1,3,2,"HouseObjects",1,4,"left","right",0.480000019,0,0,1,0,NA,NA,NA,NA,NA,NA,NA,NA,NA,NA,NA,NA,NA,NA,NA,NA,NA,NA,NA,NA,NA,NA,NA,NA
"271","stim/objects/HouseObjects/clothesdryingrack.png",256,52,249,0.7,"stim/23.jpeg",2,3,2,2,"HouseObjects",1,4,"left","left",0.511999846,1,1,1,0,NA,NA,NA,NA,NA,NA,NA,NA,NA,NA,NA,NA,NA,NA,NA,NA,NA,NA,NA,NA,NA,NA,NA,NA
"360","stim/objects/HouseObjects/glass.png",257,52,250,0.9,"stim/44.jpeg",4,4,3,2,"HouseObjects",1,3,"left","left",0.696000099,1,1,1,0,NA,NA,NA,NA,NA,NA,NA,NA,NA,NA,NA,NA,NA,NA,NA,NA,NA,NA,NA,NA,NA,NA,NA,NA
"270","stim/objects/HouseObjects/clock2.png",258,52,251,0.7,"stim/24.jpeg",2,4,2,1,"HouseObjects",1,3,"left","left",0.47300005,1,1,1,0,41,52,1,0.7,1,"stim/24.jpeg",2,4,"stim/24.jpeg",3,"right",1.375,1,2,0.486000061,2,0.865999937,41,0,0,NA,0,NA,0
"525","stim/objects/Instruments/grandpiano.png",259,52,252,0.9,"stim/31.jpeg",3,1,3,2,"Instruments",2,3,"right","left",0.403000116,0,0,1,0,NA,NA,NA,NA,NA,NA,NA,NA,NA,NA,NA,NA,NA,NA,NA,NA,NA,NA,NA,NA,NA,NA,NA,NA
"444","stim/objects/Instruments/drums.png",260,52,253,0.7,"stim/12.jpeg",1,2,2,2,"Instruments",2,4,"right","right",0.725999832,1,1,1,0,NA,NA,NA,NA,NA,NA,NA,NA,NA,NA,NA,NA,NA,NA,NA,NA,NA,NA,NA,NA,NA,NA,NA,NA
"287","stim/objects/HouseObjects/dishsoap.png",261,52,254,0.7,"stim/23.jpeg",2,3,2,2,"HouseObjects",1,1,"left","left",0.557999849,1,1,1,0,NA,NA,NA,NA,NA,NA,NA,NA,NA,NA,NA,NA,NA,NA,NA,NA,NA,NA,NA,NA,NA,NA,NA,NA
"542","stim/objects/Instruments/guitarcase2.png",262,52,255,0.9,"stim/34.jpeg",3,4,3,1,"Instruments",2,4,"right","right",0.680999756,1,1,1,0,199,52,1,0.9,2,"stim/34.jpeg",3,4,"stim/34.jpeg",4,"right",0.873999834,4,1,0.476000071,2,0.323999882,199,0,0,NA,0,NA,0
"401","stim/objects/HouseObjects/towel2.png",263,52,256,0.9,"stim/44.jpeg",4,4,3,1,"HouseObjects",1,3,"left","left",0.648000002,1,1,1,0,97,52,1,0.9,1,"stim/44.jpeg",4,4,"stim/44.jpeg",3,"right",4.750999928,2,2,0.510999918,2,0.442000151,97,0,0,NA,0,NA,0
"244","stim/objects/HouseObjects/ballofstring.png",264,52,257,0.5,"stim/52.jpeg",5,2,1,2,"HouseObjects",1,2,"left","right",0.646999836,0,0,1,0,NA,NA,NA,NA,NA,NA,NA,NA,NA,NA,NA,NA,NA,NA,NA,NA,NA,NA,NA,NA,NA,NA,NA,NA
"291","stim/objects/HouseObjects/doormat.png",265,52,258,0.9,"stim/44.jpeg",4,4,3,2,"HouseObjects",1,1,"left","left",0.612999916,1,1,1,0,NA,NA,NA,NA,NA,NA,NA,NA,NA,NA,NA,NA,NA,NA,NA,NA,NA,NA,NA,NA,NA,NA,NA,NA
"255","stim/objects/HouseObjects/bleachbottle2.png",266,52,259,0.3,"stim/12.jpeg",1,2,2,1,"HouseObjects",1,4,"left","right",0.815999985,0,0,1,0,34,52,1,0.3,1,"stim/12.jpeg",1,2,"stim/12.jpeg",4,"left",1.049999714,4,3,3.377999783,3,1.85800004,34,1,0,0,0,0,0
"308","stim/objects/HouseObjects/dustpan.png",267,52,260,0.9,"stim/41.jpeg",4,1,3,2,"HouseObjects",1,2,"left","left",0.585999966,1,1,1,0,NA,NA,NA,NA,NA,NA,NA,NA,NA,NA,NA,NA,NA,NA,NA,NA,NA,NA,NA,NA,NA,NA,NA,NA
"362","stim/objects/HouseObjects/glass.png",268,52,261,0.9,"stim/42.jpeg",4,2,3,2,"HouseObjects",1,2,"left","left",0.590999842,1,1,1,0,NA,NA,NA,NA,NA,NA,NA,NA,NA,NA,NA,NA,NA,NA,NA,NA,NA,NA,NA,NA,NA,NA,NA,NA
"456","stim/objects/Instruments/flute.png",269,52,262,0.9,"stim/32.jpeg",3,2,3,2,"Instruments",2,4,"right","right",0.566999912,1,1,1,0,NA,NA,NA,NA,NA,NA,NA,NA,NA,NA,NA,NA,NA,NA,NA,NA,NA,NA,NA,NA,NA,NA,NA,NA
"473","stim/objects/Instruments/flutetrans.png",270,52,263,0.9,"stim/34.jpeg",3,4,3,2,"Instruments",2,4,"right","right",0.786000013,1,1,1,0,NA,NA,NA,NA,NA,NA,NA,NA,NA,NA,NA,NA,NA,NA,NA,NA,NA,NA,NA,NA,NA,NA,NA,NA
"387","stim/objects/HouseObjects/saw2.png",271,52,264,0.9,"stim/41.jpeg",4,1,3,1,"HouseObjects",1,3,"left","left",0.64199996,1,1,1,0,135,52,1,0.9,1,"stim/41.jpeg",4,1,"stim/41.jpeg",3,"right",0.805000067,3,4,0.842999935,2,0.609999895,135,0,0,NA,0,NA,0
"440","stim/objects/Instruments/doublebass.png",272,52,265,0.7,"stim/11.jpeg",1,1,2,2,"Instruments",2,1,"right","left",0.696999788,0,0,1,0,NA,NA,NA,NA,NA,NA,NA,NA,NA,NA,NA,NA,NA,NA,NA,NA,NA,NA,NA,NA,NA,NA,NA,NA
"434","stim/objects/Instruments/cornet.png",273,52,266,0.5,"stim/62.jpeg",6,2,1,2,"Instruments",2,2,"right","left",0.576999903,0,0,1,0,NA,NA,NA,NA,NA,NA,NA,NA,NA,NA,NA,NA,NA,NA,NA,NA,NA,NA,NA,NA,NA,NA,NA,NA
"552","stim/objects/Instruments/speaker2.png",274,52,267,0.1,"stim/43.jpeg",4,3,3,1,"Instruments",2,1,"right","left",0.530999899,0,0,1,0,96,52,1,0.1,2,"stim/43.jpeg",4,3,"stim/43.jpeg",1,"left",9.188999891,3,3,2.562000036,2,0.872999907,96,1,1,1,0,0,0
"474","stim/objects/Instruments/flutetrans.png",275,52,268,0.9,"stim/34.jpeg",3,4,3,2,"Instruments",2,3,"right","right",0.711999893,1,1,1,0,NA,NA,NA,NA,NA,NA,NA,NA,NA,NA,NA,NA,NA,NA,NA,NA,NA,NA,NA,NA,NA,NA,NA,NA
"550","stim/objects/Instruments/saxophone2.png",276,52,269,0.9,"stim/34.jpeg",3,4,3,1,"Instruments",2,2,"right","right",0.608999968,1,1,1,0,10,52,1,0.9,2,"stim/34.jpeg",3,4,"stim/34.jpeg",2,"left",3.059999943,4,4,3.103999853,2,10.57199979,10,1,1,1,1,1,0
"376","stim/objects/HouseObjects/glassmop.png",277,52,270,0.5,"stim/53.jpeg",5,3,1,1,"HouseObjects",1,3,"left","",NA,0,0,1,0,1,52,1,0.5,1,"stim/53.jpeg",5,3,"stim/53.jpeg",3,"right",3.534999847,4,2,15.54299998,2,2.798999786,1,0,0,NA,0,NA,0
"492","stim/objects/Instruments/frenchhorn.png",278,52,271,0.9,"stim/32.jpeg",3,2,3,2,"Instruments",2,2,"right","right",0.601000071,1,1,1,0,NA,NA,NA,NA,NA,NA,NA,NA,NA,NA,NA,NA,NA,NA,NA,NA,NA,NA,NA,NA,NA,NA,NA,NA
"564","stim/objects/Instruments/tuba2.png",279,52,272,0.1,"stim/41.jpeg",4,1,3,1,"Instruments",2,3,"right","left",0.51699996,0,0,1,0,8,52,1,0.1,2,"stim/41.jpeg",4,1,"stim/41.jpeg",3,"left",1.803999901,4,3,6.082000017,4,3.297999859,8,1,0,0,0,0,0
"458","stim/objects/Instruments/flute.png",280,52,273,0.9,"stim/32.jpeg",3,2,3,2,"Instruments",2,2,"right","right",0.538000107,1,1,1,0,NA,NA,NA,NA,NA,NA,NA,NA,NA,NA,NA,NA,NA,NA,NA,NA,NA,NA,NA,NA,NA,NA,NA,NA
"528","stim/objects/Instruments/grandpiano.png",281,52,274,0.9,"stim/34.jpeg",3,4,3,2,"Instruments",2,1,"right","right",0.69299984,1,1,1,0,NA,NA,NA,NA,NA,NA,NA,NA,NA,NA,NA,NA,NA,NA,NA,NA,NA,NA,NA,NA,NA,NA,NA,NA
"326","stim/objects/HouseObjects/flyswatter.png",282,52,275,0.9,"stim/41.jpeg",4,1,3,2,"HouseObjects",1,1,"left","left",0.583999872,1,1,1,0,NA,NA,NA,NA,NA,NA,NA,NA,NA,NA,NA,NA,NA,NA,NA,NA,NA,NA,NA,NA,NA,NA,NA,NA
"292","stim/objects/HouseObjects/doormat.png",283,52,276,0.9,"stim/43.jpeg",4,3,3,2,"HouseObjects",1,4,"left","right",0.580999851,0,0,1,0,NA,NA,NA,NA,NA,NA,NA,NA,NA,NA,NA,NA,NA,NA,NA,NA,NA,NA,NA,NA,NA,NA,NA,NA
"272","stim/objects/HouseObjects/clothesdryingrack.png",284,52,277,0.7,"stim/21.jpeg",2,1,2,2,"HouseObjects",1,1,"left","left",0.565000057,1,1,1,0,NA,NA,NA,NA,NA,NA,NA,NA,NA,NA,NA,NA,NA,NA,NA,NA,NA,NA,NA,NA,NA,NA,NA,NA
"561","stim/objects/Instruments/trumpet.png",285,52,278,0.7,"stim/12.jpeg",1,2,2,1,"Instruments",2,4,"right","left",0.674999952,0,0,1,0,200,52,1,0.7,2,"stim/12.jpeg",1,2,"stim/12.jpeg",4,"left",1.280999899,4,2,0.694999933,3,1.636999846,200,1,1,1,0,0,0
"293","stim/objects/HouseObjects/doormat.png",286,52,279,0.9,"stim/43.jpeg",4,3,3,2,"HouseObjects",1,3,"left","left",0.647999763,1,1,1,0,NA,NA,NA,NA,NA,NA,NA,NA,NA,NA,NA,NA,NA,NA,NA,NA,NA,NA,NA,NA,NA,NA,NA,NA
"346","stim/objects/HouseObjects/garbagebin.png",287,52,280,0.9,"stim/43.jpeg",4,3,3,2,"HouseObjects",1,3,"left","left",0.541999817,1,1,1,0,NA,NA,NA,NA,NA,NA,NA,NA,NA,NA,NA,NA,NA,NA,NA,NA,NA,NA,NA,NA,NA,NA,NA,NA
"544","stim/objects/Instruments/harmonica2.png",288,52,281,0.9,"stim/31.jpeg",3,1,3,1,"Instruments",2,1,"right","right",0.572000027,1,1,1,0,130,52,1,0.9,2,"stim/31.jpeg",3,1,"stim/31.jpeg",1,"left",1.023000002,3,4,6.951999903,2,0.772999763,130,1,0,0,0,0,0
"378","stim/objects/HouseObjects/hairdryer.png",289,52,282,0.5,"stim/54.jpeg",5,4,1,1,"HouseObjects",1,3,"left","left",0.63499999,1,1,1,0,149,52,1,0.5,1,"stim/54.jpeg",5,4,"stim/54.jpeg",3,"left",1.282999992,4,2,1.184999943,3,1.42599988,149,1,0,0,1,1,0
"529","stim/objects/Instruments/grandpiano.png",290,52,283,0.9,"stim/31.jpeg",3,1,3,2,"Instruments",2,2,"right","right",0.657999754,1,1,1,0,NA,NA,NA,NA,NA,NA,NA,NA,NA,NA,NA,NA,NA,NA,NA,NA,NA,NA,NA,NA,NA,NA,NA,NA
"411","stim/objects/Instruments/acousticguitar2.png",291,52,284,0.7,"stim/14.jpeg",1,4,2,1,"Instruments",2,4,"right","right",0.702000141,1,1,1,0,148,52,1,0.7,2,"stim/14.jpeg",1,4,"stim/14.jpeg",4,"left",1.166000128,3,1,1.598999977,2,0.576999903,148,1,0,0,0,0,0
"380","stim/objects/HouseObjects/handbrush.png",292,52,285,0.5,"stim/51.jpeg",5,1,1,1,"HouseObjects",1,1,"left","left",0.631999731,1,1,1,0,108,52,1,0.5,1,"stim/51.jpeg",5,1,"stim/51.jpeg",1,"right",1.108999729,2,2,1.007999897,4,2.021999836,108,0,0,NA,0,NA,0
"424","stim/objects/Instruments/cello.png",293,52,286,0.5,"stim/64.jpeg",6,4,1,2,"Instruments",2,4,"right","left",0.710999966,0,0,1,0,NA,NA,NA,NA,NA,NA,NA,NA,NA,NA,NA,NA,NA,NA,NA,NA,NA,NA,NA,NA,NA,NA,NA,NA
"530","stim/objects/Instruments/grandpiano.png",294,52,287,0.9,"stim/34.jpeg",3,4,3,2,"Instruments",2,1,"right","right",0.767999887,1,1,1,0,NA,NA,NA,NA,NA,NA,NA,NA,NA,NA,NA,NA,NA,NA,NA,NA,NA,NA,NA,NA,NA,NA,NA,NA
"509","stim/objects/Instruments/gong.png",295,52,288,0.9,"stim/33.jpeg",3,3,3,2,"Instruments",2,3,"right","right",0.792999744,1,1,1,0,NA,NA,NA,NA,NA,NA,NA,NA,NA,NA,NA,NA,NA,NA,NA,NA,NA,NA,NA,NA,NA,NA,NA,NA
"510","stim/objects/Instruments/gong.png",296,52,289,0.9,"stim/33.jpeg",3,3,3,2,"Instruments",2,2,"right","right",0.72699976,1,1,1,0,NA,NA,NA,NA,NA,NA,NA,NA,NA,NA,NA,NA,NA,NA,NA,NA,NA,NA,NA,NA,NA,NA,NA,NA
"557","stim/objects/Instruments/triangle.png",297,52,290,0.5,"stim/63.jpeg",6,3,1,1,"Instruments",2,4,"right","left",0.763999939,0,0,1,0,189,52,1,0.5,2,"stim/63.jpeg",6,3,"stim/63.jpeg",4,"left",1.469000101,4,2,2.242999792,2,0.73300004,189,1,0,0,0,0,0
"423","stim/objects/Instruments/bassguitar2.png",298,52,291,0.3,"stim/22.jpeg",2,2,2,1,"Instruments",2,4,"right","left",0.819000006,0,0,1,0,94,52,1,0.3,2,"stim/22.jpeg",2,2,"stim/22.jpeg",4,"left",1.352999926,3,4,8.875,2,0.612999916,94,1,0,0,0,0,0
"347","stim/objects/HouseObjects/garbagebin.png",299,52,292,0.9,"stim/41.jpeg",4,1,3,2,"HouseObjects",1,3,"left","left",0.68599987,1,1,1,0,NA,NA,NA,NA,NA,NA,NA,NA,NA,NA,NA,NA,NA,NA,NA,NA,NA,NA,NA,NA,NA,NA,NA,NA
"379","stim/objects/HouseObjects/hairdryer2.png",300,52,293,0.1,"stim/33.jpeg",3,3,3,1,"HouseObjects",1,3,"left","right",0.696999788,0,0,1,0,21,52,1,0.1,1,"stim/33.jpeg",3,3,"stim/33.jpeg",3,"right",1.764999866,2,4,1.728999853,2,0.827000141,21,0,0,NA,0,NA,0
"275","stim/objects/HouseObjects/clothespin.png",301,52,294,0.7,"stim/23.jpeg",2,3,2,2,"HouseObjects",1,2,"left","left",0.523999929,1,1,1,0,NA,NA,NA,NA,NA,NA,NA,NA,NA,NA,NA,NA,NA,NA,NA,NA,NA,NA,NA,NA,NA,NA,NA,NA
"546","stim/objects/Instruments/harp2.png",302,52,295,0.9,"stim/32.jpeg",3,2,3,1,"Instruments",2,1,"right","right",0.654999971,1,1,1,0,70,52,1,0.9,2,"stim/32.jpeg",3,2,"stim/32.jpeg",1,"right",0.830999851,2,1,1.236999989,2,0.457999945,70,0,0,NA,0,NA,0
"419","stim/objects/Instruments/bassdrum.png",303,52,296,0.5,"stim/51.jpeg",5,1,1,2,"Instruments",2,3,"right","left",0.645999908,0,0,1,0,NA,NA,NA,NA,NA,NA,NA,NA,NA,NA,NA,NA,NA,NA,NA,NA,NA,NA,NA,NA,NA,NA,NA,NA
"459","stim/objects/Instruments/flute.png",304,52,297,0.9,"stim/31.jpeg",3,1,3,2,"Instruments",2,2,"right","right",0.505000114,1,1,1,0,NA,NA,NA,NA,NA,NA,NA,NA,NA,NA,NA,NA,NA,NA,NA,NA,NA,NA,NA,NA,NA,NA,NA,NA
"460","stim/objects/Instruments/flute.png",305,52,298,0.9,"stim/31.jpeg",3,1,3,2,"Instruments",2,2,"right","right",0.498999834,1,1,1,0,NA,NA,NA,NA,NA,NA,NA,NA,NA,NA,NA,NA,NA,NA,NA,NA,NA,NA,NA,NA,NA,NA,NA,NA
"327","stim/objects/HouseObjects/flyswatter.png",306,52,299,0.9,"stim/42.jpeg",4,2,3,2,"HouseObjects",1,1,"left","left",0.523000002,1,1,1,0,NA,NA,NA,NA,NA,NA,NA,NA,NA,NA,NA,NA,NA,NA,NA,NA,NA,NA,NA,NA,NA,NA,NA,NA
"461","stim/objects/Instruments/flute.png",307,52,300,0.9,"stim/33.jpeg",3,3,3,2,"Instruments",2,1,"right","right",0.542999983,1,1,1,0,NA,NA,NA,NA,NA,NA,NA,NA,NA,NA,NA,NA,NA,NA,NA,NA,NA,NA,NA,NA,NA,NA,NA,NA
"462","stim/objects/Instruments/flute.png",308,52,301,0.9,"stim/34.jpeg",3,4,3,2,"Instruments",2,2,"right","left",0.829999924,0,0,1,0,NA,NA,NA,NA,NA,NA,NA,NA,NA,NA,NA,NA,NA,NA,NA,NA,NA,NA,NA,NA,NA,NA,NA,NA
"429","stim/objects/Instruments/chime2.png",309,52,302,0.3,"stim/24.jpeg",2,4,2,1,"Instruments",2,1,"right","left",0.611000061,0,0,1,0,90,52,1,0.3,2,"stim/24.jpeg",2,4,"stim/24.jpeg",1,"left",1.085999966,1,3,1.153999805,2,0.644000053,90,1,0,0,0,0,0
"295","stim/objects/HouseObjects/doormat.png",310,52,303,0.9,"stim/41.jpeg",4,1,3,2,"HouseObjects",1,4,"left","left",0.677999973,1,1,1,0,NA,NA,NA,NA,NA,NA,NA,NA,NA,NA,NA,NA,NA,NA,NA,NA,NA,NA,NA,NA,NA,NA,NA,NA
"386","stim/objects/HouseObjects/saw.png",311,52,304,0.5,"stim/61.jpeg",6,1,1,1,"HouseObjects",1,2,"left","left",0.786000013,1,1,1,0,52,52,1,0.5,2,"stim/61.jpeg",6,1,"stim/61.jpeg",2,"right",31.18700004,2,3,1.471999884,4,1.813999891,52,0,0,NA,0,NA,0
"463","stim/objects/Instruments/flute.png",312,52,305,0.9,"stim/31.jpeg",3,1,3,2,"Instruments",2,2,"right","right",0.738999844,1,1,1,0,NA,NA,NA,NA,NA,NA,NA,NA,NA,NA,NA,NA,NA,NA,NA,NA,NA,NA,NA,NA,NA,NA,NA,NA
"493","stim/objects/Instruments/frenchhorn.png",313,52,306,0.9,"stim/31.jpeg",3,1,3,2,"Instruments",2,2,"right","right",0.842999935,1,1,1,0,NA,NA,NA,NA,NA,NA,NA,NA,NA,NA,NA,NA,NA,NA,NA,NA,NA,NA,NA,NA,NA,NA,NA,NA
"441","stim/objects/Instruments/doublebass.png",314,52,307,0.7,"stim/12.jpeg",1,2,2,2,"Instruments",2,1,"right","left",0.731999874,0,0,1,0,NA,NA,NA,NA,NA,NA,NA,NA,NA,NA,NA,NA,NA,NA,NA,NA,NA,NA,NA,NA,NA,NA,NA,NA
"425","stim/objects/Instruments/cello.png",315,52,308,0.5,"stim/63.jpeg",6,3,1,2,"Instruments",2,1,"right","right",0.680999756,1,1,1,0,NA,NA,NA,NA,NA,NA,NA,NA,NA,NA,NA,NA,NA,NA,NA,NA,NA,NA,NA,NA,NA,NA,NA,NA
"377","stim/objects/HouseObjects/glassmop2.png",316,52,309,0.1,"stim/32.jpeg",3,2,3,1,"HouseObjects",1,3,"left","left",0.594000101,1,1,1,0,118,52,1,0.1,1,"stim/32.jpeg",3,2,"stim/32.jpeg",3,"right",1.286999941,4,3,1.659999847,2,0.819000006,118,0,0,NA,0,NA,0
"409","stim/objects/Instruments/acousticguitar.png",317,52,310,0.5,"stim/52.jpeg",5,2,1,2,"Instruments",2,1,"right","left",0.850999832,0,0,1,0,NA,NA,NA,NA,NA,NA,NA,NA,NA,NA,NA,NA,NA,NA,NA,NA,NA,NA,NA,NA,NA,NA,NA,NA
"382","stim/objects/HouseObjects/handvacuum.png",318,52,311,0.5,"stim/52.jpeg",5,2,1,1,"HouseObjects",1,4,"left","left",0.773000002,1,1,1,0,169,52,1,0.5,1,"stim/52.jpeg",5,2,"stim/52.jpeg",4,"right",1.099999905,2,2,0.623999834,2,0.611000061,169,0,1,NA,0,NA,0
"276","stim/objects/HouseObjects/clothespin.png",319,52,312,0.7,"stim/24.jpeg",2,4,2,2,"HouseObjects",1,3,"left","left",0.618999958,1,1,1,0,NA,NA,NA,NA,NA,NA,NA,NA,NA,NA,NA,NA,NA,NA,NA,NA,NA,NA,NA,NA,NA,NA,NA,NA
"506","stim/objects/Instruments/frenchhorn2.png",320,52,313,0.9,"stim/31.jpeg",3,1,3,1,"Instruments",2,1,"right","right",0.549999952,1,1,1,0,162,52,1,0.9,2,"stim/31.jpeg",3,1,"stim/31.jpeg",1,"left",1.002999783,4,4,3.972999811,2,1.409999847,162,1,0,0,0,0,0
"283","stim/objects/HouseObjects/cushion.png",321,52,314,0.7,"stim/21.jpeg",2,1,2,2,"HouseObjects",1,2,"left","left",0.577000141,1,1,1,0,NA,NA,NA,NA,NA,NA,NA,NA,NA,NA,NA,NA,NA,NA,NA,NA,NA,NA,NA,NA,NA,NA,NA,NA
"512","stim/objects/Instruments/gong.png",322,52,315,0.9,"stim/31.jpeg",3,1,3,2,"Instruments",2,3,"right","left",0.654999971,0,0,1,0,NA,NA,NA,NA,NA,NA,NA,NA,NA,NA,NA,NA,NA,NA,NA,NA,NA,NA,NA,NA,NA,NA,NA,NA
"464","stim/objects/Instruments/flute.png",323,52,316,0.9,"stim/33.jpeg",3,3,3,2,"Instruments",2,1,"right","left",0.657999992,0,0,1,0,NA,NA,NA,NA,NA,NA,NA,NA,NA,NA,NA,NA,NA,NA,NA,NA,NA,NA,NA,NA,NA,NA,NA,NA
"245","stim/objects/HouseObjects/ballofstring.png",324,52,317,0.5,"stim/53.jpeg",5,3,1,2,"HouseObjects",1,3,"left","right",0.792999983,0,0,1,0,NA,NA,NA,NA,NA,NA,NA,NA,NA,NA,NA,NA,NA,NA,NA,NA,NA,NA,NA,NA,NA,NA,NA,NA
"445","stim/objects/Instruments/drums.png",325,52,318,0.7,"stim/11.jpeg",1,1,2,2,"Instruments",2,4,"right","left",0.585999966,0,0,1,0,NA,NA,NA,NA,NA,NA,NA,NA,NA,NA,NA,NA,NA,NA,NA,NA,NA,NA,NA,NA,NA,NA,NA,NA
"309","stim/objects/HouseObjects/dustpan.png",326,52,319,0.9,"stim/42.jpeg",4,2,3,2,"HouseObjects",1,3,"left","left",0.674000025,1,1,1,0,NA,NA,NA,NA,NA,NA,NA,NA,NA,NA,NA,NA,NA,NA,NA,NA,NA,NA,NA,NA,NA,NA,NA,NA
"453","stim/objects/Instruments/electricguitar.png",327,52,320,0.7,"stim/14.jpeg",1,4,2,2,"Instruments",2,4,"right","right",0.682999849,1,1,1,0,NA,NA,NA,NA,NA,NA,NA,NA,NA,NA,NA,NA,NA,NA,NA,NA,NA,NA,NA,NA,NA,NA,NA,NA
"341","stim/objects/HouseObjects/flyswatter2.png",328,52,321,0.1,"stim/33.jpeg",3,3,3,1,"HouseObjects",1,3,"left","left",0.561000109,1,1,1,0,14,52,1,0.1,1,"stim/33.jpeg",3,3,"stim/33.jpeg",3,"left",4.948999882,3,3,7.062999964,2,2.187999964,14,1,1,1,0,0,0
"259","stim/objects/HouseObjects/bottle.png",329,52,322,0.5,"stim/61.jpeg",6,1,1,2,"HouseObjects",1,2,"left","right",0.861999989,0,0,1,0,NA,NA,NA,NA,NA,NA,NA,NA,NA,NA,NA,NA,NA,NA,NA,NA,NA,NA,NA,NA,NA,NA,NA,NA
"465","stim/objects/Instruments/flute.png",330,52,323,0.9,"stim/34.jpeg",3,4,3,2,"Instruments",2,4,"right","left",0.688999891,0,0,1,0,NA,NA,NA,NA,NA,NA,NA,NA,NA,NA,NA,NA,NA,NA,NA,NA,NA,NA,NA,NA,NA,NA,NA,NA
"298","stim/objects/HouseObjects/doormat.png",331,52,324,0.9,"stim/43.jpeg",4,3,3,2,"HouseObjects",1,3,"left","left",0.605999947,1,1,1,0,NA,NA,NA,NA,NA,NA,NA,NA,NA,NA,NA,NA,NA,NA,NA,NA,NA,NA,NA,NA,NA,NA,NA,NA
"449","stim/objects/Instruments/electricdrumset.png",332,52,325,0.7,"stim/14.jpeg",1,4,2,2,"Instruments",2,2,"right","right",0.838000059,1,1,1,0,NA,NA,NA,NA,NA,NA,NA,NA,NA,NA,NA,NA,NA,NA,NA,NA,NA,NA,NA,NA,NA,NA,NA,NA
"348","stim/objects/HouseObjects/garbagebin.png",333,52,326,0.9,"stim/41.jpeg",4,1,3,2,"HouseObjects",1,4,"left","left",0.624999762,1,1,1,0,NA,NA,NA,NA,NA,NA,NA,NA,NA,NA,NA,NA,NA,NA,NA,NA,NA,NA,NA,NA,NA,NA,NA,NA
"540","stim/objects/Instruments/grandpiano2.png",334,52,327,0.9,"stim/33.jpeg",3,3,3,1,"Instruments",2,2,"right","right",0.608999968,1,1,1,0,193,52,1,0.9,2,"stim/33.jpeg",3,3,"stim/33.jpeg",2,"right",0.923999786,4,3,1.111000061,4,0.371000051,193,0,1,NA,0,NA,0
"243","stim/objects/HouseObjects/ashtray2.png",335,52,328,0.3,"stim/12.jpeg",1,2,2,1,"HouseObjects",1,2,"left","left",0.591999769,1,1,1,0,88,52,1,0.3,1,"stim/12.jpeg",1,2,"stim/12.jpeg",2,"right",2.128999949,2,3,0.553999901,2,0.527999878,88,0,0,NA,1,NA,0
"514","stim/objects/Instruments/gong.png",336,52,329,0.9,"stim/34.jpeg",3,4,3,2,"Instruments",2,4,"right","right",0.570999861,1,1,1,0,NA,NA,NA,NA,NA,NA,NA,NA,NA,NA,NA,NA,NA,NA,NA,NA,NA,NA,NA,NA,NA,NA,NA,NA
"475","stim/objects/Instruments/flutetrans.png",337,52,330,0.9,"stim/31.jpeg",3,1,3,2,"Instruments",2,3,"right","right",0.586999893,1,1,1,0,NA,NA,NA,NA,NA,NA,NA,NA,NA,NA,NA,NA,NA,NA,NA,NA,NA,NA,NA,NA,NA,NA,NA,NA
"274","stim/objects/HouseObjects/clothesdryingrack2.png",338,52,331,0.7,"stim/21.jpeg",2,1,2,1,"HouseObjects",1,3,"left","left",0.743999958,1,1,1,0,119,52,1,0.7,1,"stim/21.jpeg",2,1,"stim/21.jpeg",3,"left",1.842000008,3,2,4.48699975,2,1.44900012,119,1,0,0,0,0,0
"494","stim/objects/Instruments/frenchhorn.png",339,52,332,0.9,"stim/31.jpeg",3,1,3,2,"Instruments",2,1,"right","right",0.620999813,1,1,1,0,NA,NA,NA,NA,NA,NA,NA,NA,NA,NA,NA,NA,NA,NA,NA,NA,NA,NA,NA,NA,NA,NA,NA,NA
"495","stim/objects/Instruments/frenchhorn.png",340,52,333,0.9,"stim/33.jpeg",3,3,3,2,"Instruments",2,1,"right","left",0.629999876,0,0,1,0,NA,NA,NA,NA,NA,NA,NA,NA,NA,NA,NA,NA,NA,NA,NA,NA,NA,NA,NA,NA,NA,NA,NA,NA
"311","stim/objects/HouseObjects/dustpan.png",341,52,334,0.9,"stim/43.jpeg",4,3,3,2,"HouseObjects",1,4,"left","right",0.744999886,0,0,1,0,NA,NA,NA,NA,NA,NA,NA,NA,NA,NA,NA,NA,NA,NA,NA,NA,NA,NA,NA,NA,NA,NA,NA,NA
"299","stim/objects/HouseObjects/doormat.png",342,52,335,0.9,"stim/44.jpeg",4,4,3,2,"HouseObjects",1,2,"left","left",0.397999763,1,1,1,0,NA,NA,NA,NA,NA,NA,NA,NA,NA,NA,NA,NA,NA,NA,NA,NA,NA,NA,NA,NA,NA,NA,NA,NA
"312","stim/objects/HouseObjects/dustpan.png",343,52,336,0.9,"stim/43.jpeg",4,3,3,2,"HouseObjects",1,2,"left","left",0.555999994,1,1,1,0,NA,NA,NA,NA,NA,NA,NA,NA,NA,NA,NA,NA,NA,NA,NA,NA,NA,NA,NA,NA,NA,NA,NA,NA
"402","stim/objects/HouseObjects/vacuumcleaner.png",344,52,337,0.3,"stim/14.jpeg",1,4,2,1,"HouseObjects",1,1,"left","",NA,0,0,1,0,32,52,1,0.3,1,"stim/14.jpeg",1,4,"stim/14.jpeg",1,"right",1.687999964,2,2,3.002000093,1,2.273999929,32,0,0,NA,1,NA,0
"531","stim/objects/Instruments/grandpiano.png",345,52,338,0.9,"stim/33.jpeg",3,3,3,2,"Instruments",2,4,"right","right",0.732000113,1,1,1,0,NA,NA,NA,NA,NA,NA,NA,NA,NA,NA,NA,NA,NA,NA,NA,NA,NA,NA,NA,NA,NA,NA,NA,NA
"426","stim/objects/Instruments/cello2.png",346,52,339,0.3,"stim/23.jpeg",2,3,2,1,"Instruments",2,3,"right","left",0.495000124,0,0,1,0,55,52,1,0.3,2,"stim/23.jpeg",2,3,"stim/23.jpeg",3,"left",0.866999865,4,3,3.832000017,2,0.646999836,55,1,1,1,0,0,0
"330","stim/objects/HouseObjects/flyswatter.png",347,52,340,0.9,"stim/43.jpeg",4,3,3,2,"HouseObjects",1,1,"left","left",0.542999983,1,1,1,0,NA,NA,NA,NA,NA,NA,NA,NA,NA,NA,NA,NA,NA,NA,NA,NA,NA,NA,NA,NA,NA,NA,NA,NA
"532","stim/objects/Instruments/grandpiano.png",348,52,341,0.9,"stim/32.jpeg",3,2,3,2,"Instruments",2,2,"right","right",0.765999794,1,1,1,0,NA,NA,NA,NA,NA,NA,NA,NA,NA,NA,NA,NA,NA,NA,NA,NA,NA,NA,NA,NA,NA,NA,NA,NA
"533","stim/objects/Instruments/grandpiano.png",349,52,342,0.9,"stim/32.jpeg",3,2,3,2,"Instruments",2,3,"right","left",0.687000036,0,0,1,0,NA,NA,NA,NA,NA,NA,NA,NA,NA,NA,NA,NA,NA,NA,NA,NA,NA,NA,NA,NA,NA,NA,NA,NA
"301","stim/objects/HouseObjects/doormat.png",350,52,343,0.9,"stim/42.jpeg",4,2,3,2,"HouseObjects",1,1,"left","left",0.713000059,1,1,1,0,NA,NA,NA,NA,NA,NA,NA,NA,NA,NA,NA,NA,NA,NA,NA,NA,NA,NA,NA,NA,NA,NA,NA,NA
"331","stim/objects/HouseObjects/flyswatter.png",351,52,344,0.9,"stim/41.jpeg",4,1,3,2,"HouseObjects",1,1,"left","left",0.669999838,1,1,1,0,NA,NA,NA,NA,NA,NA,NA,NA,NA,NA,NA,NA,NA,NA,NA,NA,NA,NA,NA,NA,NA,NA,NA,NA
"467","stim/objects/Instruments/flute.png",352,52,345,0.9,"stim/33.jpeg",3,3,3,2,"Instruments",2,1,"right","left",0.529999971,0,0,1,0,NA,NA,NA,NA,NA,NA,NA,NA,NA,NA,NA,NA,NA,NA,NA,NA,NA,NA,NA,NA,NA,NA,NA,NA
"570","stim/objects/Instruments/xylophone2.png",353,52,346,0.1,"stim/44.jpeg",4,4,3,1,"Instruments",2,2,"right","left",0.75,0,0,1,0,9,52,1,0.1,2,"stim/44.jpeg",4,4,"stim/44.jpeg",2,"right",1.934000015,2,2,2.177999973,1,1.960999966,9,0,0,NA,0,NA,0
"279","stim/objects/HouseObjects/coffee.png",354,52,347,0.7,"stim/23.jpeg",2,3,2,2,"HouseObjects",1,3,"left","left",0.681999922,1,1,1,0,NA,NA,NA,NA,NA,NA,NA,NA,NA,NA,NA,NA,NA,NA,NA,NA,NA,NA,NA,NA,NA,NA,NA,NA
"496","stim/objects/Instruments/frenchhorn.png",355,52,348,0.9,"stim/34.jpeg",3,4,3,2,"Instruments",2,1,"right","right",0.571999788,1,1,1,0,NA,NA,NA,NA,NA,NA,NA,NA,NA,NA,NA,NA,NA,NA,NA,NA,NA,NA,NA,NA,NA,NA,NA,NA
"476","stim/objects/Instruments/flutetrans.png",356,52,349,0.9,"stim/34.jpeg",3,4,3,2,"Instruments",2,3,"right","left",0.447999954,0,0,1,0,NA,NA,NA,NA,NA,NA,NA,NA,NA,NA,NA,NA,NA,NA,NA,NA,NA,NA,NA,NA,NA,NA,NA,NA
"313","stim/objects/HouseObjects/dustpan.png",357,52,350,0.9,"stim/42.jpeg",4,2,3,2,"HouseObjects",1,4,"left","left",0.64199996,1,1,1,0,NA,NA,NA,NA,NA,NA,NA,NA,NA,NA,NA,NA,NA,NA,NA,NA,NA,NA,NA,NA,NA,NA,NA,NA
"566","stim/objects/Instruments/violin2.png",358,52,351,0.1,"stim/42.jpeg",4,2,3,1,"Instruments",2,2,"right","left",0.55700016,0,0,1,0,143,52,1,0.1,2,"stim/42.jpeg",4,2,"stim/42.jpeg",2,"left",0.808000088,3,2,2.111999989,2,0.789999723,143,1,1,1,1,1,0
"258","stim/objects/HouseObjects/blender2.png",359,52,352,0.7,"stim/24.jpeg",2,4,2,1,"HouseObjects",1,3,"left","left",0.876999855,1,1,1,0,192,52,1,0.7,1,"stim/24.jpeg",2,4,"stim/24.jpeg",3,"right",0.907999754,1,2,0.400000095,3,0.342999697,192,0,0,NA,1,NA,0
"314","stim/objects/HouseObjects/dustpan.png",360,52,353,0.9,"stim/43.jpeg",4,3,3,2,"HouseObjects",1,2,"left","left",0.554999828,1,1,1,0,NA,NA,NA,NA,NA,NA,NA,NA,NA,NA,NA,NA,NA,NA,NA,NA,NA,NA,NA,NA,NA,NA,NA,NA
"267","stim/objects/HouseObjects/bucket2.png",361,52,354,0.7,"stim/23.jpeg",2,3,2,1,"HouseObjects",1,3,"left","left",0.664999962,1,1,1,0,102,52,1,0.7,1,"stim/23.jpeg",2,3,"stim/23.jpeg",3,"right",3.073999882,2,2,0.561999798,1,1.652999878,102,0,0,NA,0,NA,0
"260","stim/objects/HouseObjects/bottle.png",362,52,355,0.5,"stim/64.jpeg",6,4,1,2,"HouseObjects",1,3,"left","",NA,0,0,1,0,NA,NA,NA,NA,NA,NA,NA,NA,NA,NA,NA,NA,NA,NA,NA,NA,NA,NA,NA,NA,NA,NA,NA,NA
"498","stim/objects/Instruments/frenchhorn.png",363,52,356,0.9,"stim/33.jpeg",3,3,3,2,"Instruments",2,3,"right","right",0.579999924,1,1,1,0,NA,NA,NA,NA,NA,NA,NA,NA,NA,NA,NA,NA,NA,NA,NA,NA,NA,NA,NA,NA,NA,NA,NA,NA
"515","stim/objects/Instruments/gong.png",364,52,357,0.9,"stim/31.jpeg",3,1,3,2,"Instruments",2,3,"right","right",0.59100008,1,1,1,0,NA,NA,NA,NA,NA,NA,NA,NA,NA,NA,NA,NA,NA,NA,NA,NA,NA,NA,NA,NA,NA,NA,NA,NA
"563","stim/objects/Instruments/tuba.png",365,52,358,0.7,"stim/13.jpeg",1,3,2,1,"Instruments",2,3,"right","left",0.528999805,0,0,1,0,105,52,1,0.7,2,"stim/13.jpeg",1,3,"stim/13.jpeg",3,"left",0.673000097,3,3,1.720999956,2,1.472999811,105,1,1,1,0,0,0
"390","stim/objects/HouseObjects/sponge.png",366,52,359,0.5,"stim/63.jpeg",6,3,1,1,"HouseObjects",1,1,"left","left",0.53399992,1,1,1,0,122,52,1,0.5,2,"stim/63.jpeg",6,3,"stim/63.jpeg",1,"left",1.197999954,4,2,2.294999838,4,2.670999765,122,1,0,0,0,0,0
"430","stim/objects/Instruments/clarinet.png",367,52,360,0.5,"stim/61.jpeg",6,1,1,2,"Instruments",2,4,"right","left",0.877000093,0,0,1,0,NA,NA,NA,NA,NA,NA,NA,NA,NA,NA,NA,NA,NA,NA,NA,NA,NA,NA,NA,NA,NA,NA,NA,NA
"513","stim/objects/Instruments/gong.png",368,52,361,0.9,"stim/33.jpeg",3,3,3,2,"Instruments",2,2,"right","right",0.487999916,1,1,1,0,NA,NA,NA,NA,NA,NA,NA,NA,NA,NA,NA,NA,NA,NA,NA,NA,NA,NA,NA,NA,NA,NA,NA,NA
"433","stim/objects/Instruments/cornet.png",369,52,362,0.5,"stim/63.jpeg",6,3,1,2,"Instruments",2,1,"right","left",0.590999842,0,0,1,0,NA,NA,NA,NA,NA,NA,NA,NA,NA,NA,NA,NA,NA,NA,NA,NA,NA,NA,NA,NA,NA,NA,NA,NA
"359","stim/objects/HouseObjects/glass.png",370,52,363,0.9,"stim/43.jpeg",4,3,3,2,"HouseObjects",1,2,"left","left",0.611999989,1,1,1,0,NA,NA,NA,NA,NA,NA,NA,NA,NA,NA,NA,NA,NA,NA,NA,NA,NA,NA,NA,NA,NA,NA,NA,NA
"499","stim/objects/Instruments/frenchhorn.png",371,52,364,0.9,"stim/32.jpeg",3,2,3,2,"Instruments",2,1,"right","right",0.612999916,1,1,1,0,NA,NA,NA,NA,NA,NA,NA,NA,NA,NA,NA,NA,NA,NA,NA,NA,NA,NA,NA,NA,NA,NA,NA,NA
"468","stim/objects/Instruments/flute.png",372,52,365,0.9,"stim/32.jpeg",3,2,3,2,"Instruments",2,2,"right","right",0.485000134,1,1,1,0,NA,NA,NA,NA,NA,NA,NA,NA,NA,NA,NA,NA,NA,NA,NA,NA,NA,NA,NA,NA,NA,NA,NA,NA
"516","stim/objects/Instruments/gong.png",373,52,366,0.9,"stim/31.jpeg",3,1,3,2,"Instruments",2,4,"right","left",0.576999903,0,0,1,0,NA,NA,NA,NA,NA,NA,NA,NA,NA,NA,NA,NA,NA,NA,NA,NA,NA,NA,NA,NA,NA,NA,NA,NA
"342","stim/objects/HouseObjects/garbagebin.png",374,52,367,0.9,"stim/44.jpeg",4,4,3,2,"HouseObjects",1,3,"left","left",0.562999725,1,1,1,0,NA,NA,NA,NA,NA,NA,NA,NA,NA,NA,NA,NA,NA,NA,NA,NA,NA,NA,NA,NA,NA,NA,NA,NA
"381","stim/objects/HouseObjects/handbrush2.png",375,52,368,0.1,"stim/34.jpeg",3,4,3,1,"HouseObjects",1,3,"left","left",0.58100009,1,1,1,0,68,52,1,0.1,1,"stim/34.jpeg",3,4,"stim/34.jpeg",3,"left",0.519999981,2,1,0.727999926,2,0.505999804,68,1,0,0,0,0,0
"501","stim/objects/Instruments/frenchhorn.png",376,52,369,0.9,"stim/31.jpeg",3,1,3,2,"Instruments",2,2,"right","right",0.596999884,1,1,1,0,NA,NA,NA,NA,NA,NA,NA,NA,NA,NA,NA,NA,NA,NA,NA,NA,NA,NA,NA,NA,NA,NA,NA,NA
"368","stim/objects/HouseObjects/glass.png",377,52,370,0.9,"stim/41.jpeg",4,1,3,2,"HouseObjects",1,4,"left","left",0.625,1,1,1,0,NA,NA,NA,NA,NA,NA,NA,NA,NA,NA,NA,NA,NA,NA,NA,NA,NA,NA,NA,NA,NA,NA,NA,NA
"412","stim/objects/Instruments/balalaika.png",378,52,371,0.5,"stim/52.jpeg",5,2,1,2,"Instruments",2,2,"right","right",0.677999735,1,1,1,0,NA,NA,NA,NA,NA,NA,NA,NA,NA,NA,NA,NA,NA,NA,NA,NA,NA,NA,NA,NA,NA,NA,NA,NA
"554","stim/objects/Instruments/tambourine2.png",379,52,372,0.1,"stim/44.jpeg",4,4,3,1,"Instruments",2,4,"right","left",0.55099988,0,0,1,0,33,52,1,0.1,2,"stim/44.jpeg",4,4,"stim/44.jpeg",4,"right",2.924000025,2,4,1.575000048,3,1.204999924,33,0,1,NA,0,NA,0
"248","stim/objects/HouseObjects/barbecuelighter.png",380,52,373,0.5,"stim/53.jpeg",5,3,1,2,"HouseObjects",1,1,"left","",NA,0,0,1,0,NA,NA,NA,NA,NA,NA,NA,NA,NA,NA,NA,NA,NA,NA,NA,NA,NA,NA,NA,NA,NA,NA,NA,NA
"443","stim/objects/Instruments/doublebass2.png",381,52,374,0.3,"stim/24.jpeg",2,4,2,1,"Instruments",2,3,"right","left",0.612999916,0,0,1,0,43,52,1,0.3,2,"stim/24.jpeg",2,4,"stim/24.jpeg",3,"left",2.015999794,2,4,3.736999989,2,0.575999975,43,1,1,1,0,0,0
"241","stim/objects/HouseObjects/ashtray.png",382,52,375,0.5,"stim/51.jpeg",5,1,1,2,"HouseObjects",1,3,"left","left",0.667999983,1,1,1,0,NA,NA,NA,NA,NA,NA,NA,NA,NA,NA,NA,NA,NA,NA,NA,NA,NA,NA,NA,NA,NA,NA,NA,NA
"507","stim/objects/Instruments/gong.png",383,52,376,0.9,"stim/34.jpeg",3,4,3,2,"Instruments",2,4,"right","left",0.833999872,0,0,1,0,NA,NA,NA,NA,NA,NA,NA,NA,NA,NA,NA,NA,NA,NA,NA,NA,NA,NA,NA,NA,NA,NA,NA,NA
"392","stim/objects/HouseObjects/spraybottle.png",384,52,377,0.5,"stim/64.jpeg",6,4,1,1,"HouseObjects",1,3,"left","left",0.696000099,1,1,1,0,45,52,1,0.5,2,"stim/64.jpeg",6,4,"stim/64.jpeg",3,"left",1.122999907,4,1,7.511999846,2,0.695999861,45,1,0,0,0,0,0
"477","stim/objects/Instruments/flutetrans.png",385,52,378,0.9,"stim/32.jpeg",3,2,3,2,"Instruments",2,4,"right","right",0.660000086,1,1,1,0,NA,NA,NA,NA,NA,NA,NA,NA,NA,NA,NA,NA,NA,NA,NA,NA,NA,NA,NA,NA,NA,NA,NA,NA
"489","stim/objects/Instruments/flutetrans2.png",386,52,379,0.9,"stim/34.jpeg",3,4,3,1,"Instruments",2,4,"right","right",0.86500001,1,1,1,0,16,52,1,0.9,2,"stim/34.jpeg",3,4,"stim/34.jpeg",4,"left",0.928999901,4,4,3.973999977,2,1.01699996,16,1,1,1,0,0,0
"344","stim/objects/HouseObjects/garbagebin.png",387,52,380,0.9,"stim/42.jpeg",4,2,3,2,"HouseObjects",1,2,"left","left",0.558999777,1,1,1,0,NA,NA,NA,NA,NA,NA,NA,NA,NA,NA,NA,NA,NA,NA,NA,NA,NA,NA,NA,NA,NA,NA,NA,NA
"478","stim/objects/Instruments/flutetrans.png",388,52,381,0.9,"stim/31.jpeg",3,1,3,2,"Instruments",2,1,"right","left",0.58100009,0,0,1,0,NA,NA,NA,NA,NA,NA,NA,NA,NA,NA,NA,NA,NA,NA,NA,NA,NA,NA,NA,NA,NA,NA,NA,NA
"280","stim/objects/HouseObjects/coffee.png",389,52,382,0.7,"stim/21.jpeg",2,1,2,2,"HouseObjects",1,3,"left","left",0.704999924,1,1,1,0,NA,NA,NA,NA,NA,NA,NA,NA,NA,NA,NA,NA,NA,NA,NA,NA,NA,NA,NA,NA,NA,NA,NA,NA
"517","stim/objects/Instruments/gong.png",390,52,383,0.9,"stim/33.jpeg",3,3,3,2,"Instruments",2,3,"right","right",0.622999907,1,1,1,0,NA,NA,NA,NA,NA,NA,NA,NA,NA,NA,NA,NA,NA,NA,NA,NA,NA,NA,NA,NA,NA,NA,NA,NA
"256","stim/objects/HouseObjects/blender.png",391,52,384,0.5,"stim/63.jpeg",6,3,1,2,"HouseObjects",1,4,"left","left",0.616999865,1,1,1,0,NA,NA,NA,NA,NA,NA,NA,NA,NA,NA,NA,NA,NA,NA,NA,NA,NA,NA,NA,NA,NA,NA,NA,NA
"457","stim/objects/Instruments/flute.png",392,52,385,0.9,"stim/34.jpeg",3,4,3,2,"Instruments",2,1,"right","right",0.719000101,1,1,1,0,NA,NA,NA,NA,NA,NA,NA,NA,NA,NA,NA,NA,NA,NA,NA,NA,NA,NA,NA,NA,NA,NA,NA,NA
"334","stim/objects/HouseObjects/flyswatter.png",393,52,386,0.9,"stim/41.jpeg",4,1,3,2,"HouseObjects",1,1,"left","left",0.599999905,1,1,1,0,NA,NA,NA,NA,NA,NA,NA,NA,NA,NA,NA,NA,NA,NA,NA,NA,NA,NA,NA,NA,NA,NA,NA,NA
"479","stim/objects/Instruments/flutetrans.png",394,52,387,0.9,"stim/34.jpeg",3,4,3,2,"Instruments",2,4,"right","right",0.66899991,1,1,1,0,NA,NA,NA,NA,NA,NA,NA,NA,NA,NA,NA,NA,NA,NA,NA,NA,NA,NA,NA,NA,NA,NA,NA,NA
"565","stim/objects/Instruments/violin.png",395,52,388,0.7,"stim/14.jpeg",1,4,2,1,"Instruments",2,2,"right","right",0.699999809,1,1,1,0,197,52,1,0.7,2,"stim/14.jpeg",1,4,"stim/14.jpeg",2,"left",0.825000048,2,3,0.622999907,4,0.254999876,197,1,0,0,0,0,0
"349","stim/objects/HouseObjects/garbagebin.png",396,52,389,0.9,"stim/44.jpeg",4,4,3,2,"HouseObjects",1,3,"left","left",0.645999908,1,1,1,0,NA,NA,NA,NA,NA,NA,NA,NA,NA,NA,NA,NA,NA,NA,NA,NA,NA,NA,NA,NA,NA,NA,NA,NA
"491","stim/objects/Instruments/frenchhorn.png",397,52,390,0.9,"stim/33.jpeg",3,3,3,2,"Instruments",2,4,"right","right",0.644999981,1,1,1,0,NA,NA,NA,NA,NA,NA,NA,NA,NA,NA,NA,NA,NA,NA,NA,NA,NA,NA,NA,NA,NA,NA,NA,NA
"472","stim/objects/Instruments/flute2.png",398,52,391,0.9,"stim/33.jpeg",3,3,3,1,"Instruments",2,4,"right","left",0.674999952,0,0,1,0,112,52,1,0.9,2,"stim/33.jpeg",3,3,"stim/33.jpeg",4,"left",0.645999908,2,2,5.045000076,4,3.280999899,112,1,0,0,1,1,0
"568","stim/objects/Instruments/vuvuzela2.png",399,52,392,0.1,"stim/43.jpeg",4,3,3,1,"Instruments",2,3,"right","right",0.599999905,1,1,1,0,51,52,1,0.1,2,"stim/43.jpeg",4,3,"stim/43.jpeg",3,"right",1.003000021,2,2,0.906999826,1,0.857999802,51,0,0,NA,0,NA,0
"547","stim/objects/Instruments/hihat.png",400,52,393,0.5,"stim/51.jpeg",5,1,1,1,"Instruments",2,2,"right","left",0.653000116,0,0,1,0,26,52,1,0.5,1,"stim/51.jpeg",5,1,"stim/51.jpeg",2,"left",1.860999823,3,2,5.787999868,2,1.260999918,26,1,0,0,1,1,0
"302","stim/objects/HouseObjects/doormat.png",401,52,394,0.9,"stim/43.jpeg",4,3,3,2,"HouseObjects",1,1,"left","right",0.635999918,0,0,1,0,NA,NA,NA,NA,NA,NA,NA,NA,NA,NA,NA,NA,NA,NA,NA,NA,NA,NA,NA,NA,NA,NA,NA,NA
"265","stim/objects/HouseObjects/bucket.png",402,52,395,0.5,"stim/62.jpeg",6,2,1,2,"HouseObjects",1,4,"left","left",0.738999844,1,1,1,0,NA,NA,NA,NA,NA,NA,NA,NA,NA,NA,NA,NA,NA,NA,NA,NA,NA,NA,NA,NA,NA,NA,NA,NA
"385","stim/objects/HouseObjects/safetypin2.png",403,52,396,0.1,"stim/32.jpeg",3,2,3,1,"HouseObjects",1,1,"left","right",0.813999891,0,0,1,0,175,52,1,0.1,1,"stim/32.jpeg",3,2,"stim/32.jpeg",1,"left",0.980999708,4,2,1.149999857,2,0.670999765,175,1,1,1,0,0,0
"502","stim/objects/Instruments/frenchhorn.png",404,52,397,0.9,"stim/34.jpeg",3,4,3,2,"Instruments",2,2,"right","left",0.769999743,0,0,1,0,NA,NA,NA,NA,NA,NA,NA,NA,NA,NA,NA,NA,NA,NA,NA,NA,NA,NA,NA,NA,NA,NA,NA,NA
"305","stim/objects/HouseObjects/doormat.png",405,52,398,0.9,"stim/41.jpeg",4,1,3,2,"HouseObjects",1,4,"left","left",0.604999781,1,1,1,0,NA,NA,NA,NA,NA,NA,NA,NA,NA,NA,NA,NA,NA,NA,NA,NA,NA,NA,NA,NA,NA,NA,NA,NA
"395","stim/objects/HouseObjects/teapot2.png",406,52,399,0.9,"stim/41.jpeg",4,1,3,1,"HouseObjects",1,4,"left","left",0.606999874,1,1,1,0,39,52,1,0.9,1,"stim/41.jpeg",4,1,"stim/41.jpeg",4,"left",1.107000113,3,2,2.312999725,2,0.696000099,39,1,0,0,0,0,0
"503","stim/objects/Instruments/frenchhorn.png",407,52,400,0.9,"stim/32.jpeg",3,2,3,2,"Instruments",2,2,"right","right",0.77699995,1,1,1,0,NA,NA,NA,NA,NA,NA,NA,NA,NA,NA,NA,NA,NA,NA,NA,NA,NA,NA,NA,NA,NA,NA,NA,NA
"315","stim/objects/HouseObjects/dustpan.png",408,52,401,0.9,"stim/41.jpeg",4,1,3,2,"HouseObjects",1,2,"left","left",0.613999844,1,1,1,0,NA,NA,NA,NA,NA,NA,NA,NA,NA,NA,NA,NA,NA,NA,NA,NA,NA,NA,NA,NA,NA,NA,NA,NA
"560","stim/objects/Instruments/trombone2.png",409,52,402,0.1,"stim/43.jpeg",4,3,3,1,"Instruments",2,4,"right","left",0.90199995,0,0,1,0,110,52,1,0.1,2,"stim/43.jpeg",4,3,"stim/43.jpeg",4,"left",0.921999931,3,4,0.850999832,3,4.099999905,110,1,0,0,0,0,0
"567","stim/objects/Instruments/vuvuzela.png",410,52,403,0.7,"stim/11.jpeg",1,1,2,1,"Instruments",2,2,"right","",NA,0,0,1,0,188,52,1,0.7,2,"stim/11.jpeg",1,1,"stim/11.jpeg",2,"right",0.993999958,1,2,0.682999849,3,0.338999987,188,0,0,NA,0,NA,0
"562","stim/objects/Instruments/trumpet2.png",411,52,404,0.1,"stim/44.jpeg",4,4,3,1,"Instruments",2,1,"right","left",0.758999825,0,0,1,0,132,52,1,0.1,2,"stim/44.jpeg",4,4,"stim/44.jpeg",1,"left",4.924000025,3,4,1.524999857,4,1.934999943,132,1,1,1,0,0,0
"418","stim/objects/Instruments/bassdrum.png",412,52,405,0.5,"stim/54.jpeg",5,4,1,2,"Instruments",2,3,"right","left",0.656999826,0,0,1,0,NA,NA,NA,NA,NA,NA,NA,NA,NA,NA,NA,NA,NA,NA,NA,NA,NA,NA,NA,NA,NA,NA,NA,NA
"508","stim/objects/Instruments/gong.png",413,52,406,0.9,"stim/34.jpeg",3,4,3,2,"Instruments",2,3,"right","",NA,0,0,1,0,NA,NA,NA,NA,NA,NA,NA,NA,NA,NA,NA,NA,NA,NA,NA,NA,NA,NA,NA,NA,NA,NA,NA,NA
"350","stim/objects/HouseObjects/garbagebin.png",414,52,407,0.9,"stim/44.jpeg",4,4,3,2,"HouseObjects",1,3,"left","left",0.691999912,1,1,1,0,NA,NA,NA,NA,NA,NA,NA,NA,NA,NA,NA,NA,NA,NA,NA,NA,NA,NA,NA,NA,NA,NA,NA,NA
"318","stim/objects/HouseObjects/dustpan.png",415,52,408,0.9,"stim/42.jpeg",4,2,3,2,"HouseObjects",1,1,"left","left",0.622999907,1,1,1,0,NA,NA,NA,NA,NA,NA,NA,NA,NA,NA,NA,NA,NA,NA,NA,NA,NA,NA,NA,NA,NA,NA,NA,NA
"406","stim/objects/Instruments/accordion.png",416,52,409,0.5,"stim/51.jpeg",5,1,1,2,"Instruments",2,2,"right","right",0.697999954,1,1,1,0,NA,NA,NA,NA,NA,NA,NA,NA,NA,NA,NA,NA,NA,NA,NA,NA,NA,NA,NA,NA,NA,NA,NA,NA
"408","stim/objects/Instruments/accordion2.png",417,52,410,0.7,"stim/13.jpeg",1,3,2,1,"Instruments",2,2,"right","left",0.525000095,0,0,1,0,6,52,1,0.7,2,"stim/13.jpeg",1,3,"stim/13.jpeg",2,"left",1.059000015,4,3,3.082999945,3,3.036999941,6,1,1,1,0,0,0
"294","stim/objects/HouseObjects/doormat.png",418,52,411,0.9,"stim/42.jpeg",4,2,3,2,"HouseObjects",1,1,"left","left",0.631999969,1,1,1,0,NA,NA,NA,NA,NA,NA,NA,NA,NA,NA,NA,NA,NA,NA,NA,NA,NA,NA,NA,NA,NA,NA,NA,NA
"262","stim/objects/HouseObjects/broom.png",419,52,412,0.5,"stim/61.jpeg",6,1,1,2,"HouseObjects",1,3,"left","left",0.614999771,1,1,1,0,NA,NA,NA,NA,NA,NA,NA,NA,NA,NA,NA,NA,NA,NA,NA,NA,NA,NA,NA,NA,NA,NA,NA,NA
"389","stim/objects/HouseObjects/scale2.png",420,52,413,0.9,"stim/42.jpeg",4,2,3,1,"HouseObjects",1,4,"left","left",0.7099998,1,1,1,0,172,52,1,0.9,1,"stim/42.jpeg",4,2,"stim/42.jpeg",4,"right",1.09499979,1,2,0.457000017,3,0.268999815,172,0,1,NA,0,NA,0
"420","stim/objects/Instruments/bassdrum2.png",421,52,414,0.7,"stim/13.jpeg",1,3,2,1,"Instruments",2,1,"right","right",0.632999897,1,1,1,0,42,52,1,0.7,2,"stim/13.jpeg",1,3,"stim/13.jpeg",1,"right",4.784999847,2,4,2.595999956,2,0.80099988,42,0,0,NA,0,NA,0
"436","stim/objects/Instruments/cymbal.png",422,52,415,0.7,"stim/11.jpeg",1,1,2,2,"Instruments",2,4,"right","right",0.662999868,1,1,1,0,NA,NA,NA,NA,NA,NA,NA,NA,NA,NA,NA,NA,NA,NA,NA,NA,NA,NA,NA,NA,NA,NA,NA,NA
"254","stim/objects/HouseObjects/bleachbottle.png",423,52,416,0.5,"stim/51.jpeg",5,1,1,2,"HouseObjects",1,4,"left","right",0.638000011,0,0,1,0,NA,NA,NA,NA,NA,NA,NA,NA,NA,NA,NA,NA,NA,NA,NA,NA,NA,NA,NA,NA,NA,NA,NA,NA
"417","stim/objects/Instruments/banjo2.png",424,52,417,0.7,"stim/12.jpeg",1,2,2,1,"Instruments",2,2,"right","",NA,0,0,1,0,22,52,1,0.7,2,"stim/12.jpeg",1,2,"stim/12.jpeg",2,"left",1.305999994,3,3,3.210000038,2,1.095999956,22,1,0,0,1,1,0
"454","stim/objects/Instruments/electricguitar.png",425,52,418,0.7,"stim/13.jpeg",1,3,2,2,"Instruments",2,2,"right","right",0.704999924,1,1,1,0,NA,NA,NA,NA,NA,NA,NA,NA,NA,NA,NA,NA,NA,NA,NA,NA,NA,NA,NA,NA,NA,NA,NA,NA
"405","stim/objects/HouseObjects/wateringcan2.png",426,52,419,0.9,"stim/42.jpeg",4,2,3,1,"HouseObjects",1,4,"left","left",0.773000002,1,1,1,0,123,52,1,0.9,1,"stim/42.jpeg",4,2,"stim/42.jpeg",4,"right",0.978999853,2,2,0.802000046,3,0.910000086,123,0,1,NA,0,NA,0
"482","stim/objects/Instruments/flutetrans.png",427,52,420,0.9,"stim/32.jpeg",3,2,3,2,"Instruments",2,1,"right","right",0.546999931,1,1,1,0,NA,NA,NA,NA,NA,NA,NA,NA,NA,NA,NA,NA,NA,NA,NA,NA,NA,NA,NA,NA,NA,NA,NA,NA
"242","stim/objects/HouseObjects/ashtray.png",428,52,421,0.5,"stim/52.jpeg",5,2,1,2,"HouseObjects",1,3,"left","left",0.773000002,1,1,1,0,NA,NA,NA,NA,NA,NA,NA,NA,NA,NA,NA,NA,NA,NA,NA,NA,NA,NA,NA,NA,NA,NA,NA,NA
"319","stim/objects/HouseObjects/dustpan.png",429,52,422,0.9,"stim/44.jpeg",4,4,3,2,"HouseObjects",1,3,"left","left",0.666999817,1,1,1,0,NA,NA,NA,NA,NA,NA,NA,NA,NA,NA,NA,NA,NA,NA,NA,NA,NA,NA,NA,NA,NA,NA,NA,NA
"328","stim/objects/HouseObjects/flyswatter.png",430,52,423,0.9,"stim/42.jpeg",4,2,3,2,"HouseObjects",1,2,"left","left",0.579999924,1,1,1,0,NA,NA,NA,NA,NA,NA,NA,NA,NA,NA,NA,NA,NA,NA,NA,NA,NA,NA,NA,NA,NA,NA,NA,NA
"437","stim/objects/Instruments/cymbal.png",431,52,424,0.7,"stim/13.jpeg",1,3,2,2,"Instruments",2,2,"right","left",0.50399971,0,0,1,0,NA,NA,NA,NA,NA,NA,NA,NA,NA,NA,NA,NA,NA,NA,NA,NA,NA,NA,NA,NA,NA,NA,NA,NA
"364","stim/objects/HouseObjects/glass.png",432,52,425,0.9,"stim/43.jpeg",4,3,3,2,"HouseObjects",1,4,"left","right",0.583999872,0,0,1,0,NA,NA,NA,NA,NA,NA,NA,NA,NA,NA,NA,NA,NA,NA,NA,NA,NA,NA,NA,NA,NA,NA,NA,NA
"536","stim/objects/Instruments/grandpiano.png",433,52,426,0.9,"stim/33.jpeg",3,3,3,2,"Instruments",2,3,"right","left",0.480000019,0,0,1,0,NA,NA,NA,NA,NA,NA,NA,NA,NA,NA,NA,NA,NA,NA,NA,NA,NA,NA,NA,NA,NA,NA,NA,NA
"288","stim/objects/HouseObjects/dishsoap.png",434,52,427,0.7,"stim/22.jpeg",2,2,2,2,"HouseObjects",1,2,"left","left",0.626999855,1,1,1,0,NA,NA,NA,NA,NA,NA,NA,NA,NA,NA,NA,NA,NA,NA,NA,NA,NA,NA,NA,NA,NA,NA,NA,NA
"304","stim/objects/HouseObjects/doormat.png",435,52,428,0.9,"stim/41.jpeg",4,1,3,2,"HouseObjects",1,2,"left","left",0.650999784,1,1,1,0,NA,NA,NA,NA,NA,NA,NA,NA,NA,NA,NA,NA,NA,NA,NA,NA,NA,NA,NA,NA,NA,NA,NA,NA
"438","stim/objects/Instruments/cymbal.png",436,52,429,0.7,"stim/14.jpeg",1,4,2,2,"Instruments",2,2,"right","right",0.78399992,1,1,1,0,NA,NA,NA,NA,NA,NA,NA,NA,NA,NA,NA,NA,NA,NA,NA,NA,NA,NA,NA,NA,NA,NA,NA,NA
"296","stim/objects/HouseObjects/doormat.png",437,52,430,0.9,"stim/44.jpeg",4,4,3,2,"HouseObjects",1,2,"left","left",0.71999979,1,1,1,0,NA,NA,NA,NA,NA,NA,NA,NA,NA,NA,NA,NA,NA,NA,NA,NA,NA,NA,NA,NA,NA,NA,NA,NA
"518","stim/objects/Instruments/gong.png",438,52,431,0.9,"stim/31.jpeg",3,1,3,2,"Instruments",2,3,"right","right",0.597000122,1,1,1,0,NA,NA,NA,NA,NA,NA,NA,NA,NA,NA,NA,NA,NA,NA,NA,NA,NA,NA,NA,NA,NA,NA,NA,NA
"400","stim/objects/HouseObjects/towel.png",439,52,432,0.3,"stim/13.jpeg",1,3,2,1,"HouseObjects",1,1,"left","right",0.581999779,0,0,1,0,27,52,1,0.3,1,"stim/13.jpeg",1,3,"stim/13.jpeg",1,"left",1.006999969,3,4,11.04900002,2,1.032999754,27,1,0,0,0,0,0
"399","stim/objects/HouseObjects/thread2.png",440,52,433,0.9,"stim/43.jpeg",4,3,3,1,"HouseObjects",1,3,"left","left",0.653999805,1,1,1,0,15,52,1,0.9,1,"stim/43.jpeg",4,3,"stim/43.jpeg",3,"left",1.099999905,4,3,8.61500001,2,0.790999889,15,1,1,1,0,0,0
"452","stim/objects/Instruments/electricguitar.png",441,52,434,0.7,"stim/11.jpeg",1,1,2,2,"Instruments",2,2,"right","right",0.887000084,1,1,1,0,NA,NA,NA,NA,NA,NA,NA,NA,NA,NA,NA,NA,NA,NA,NA,NA,NA,NA,NA,NA,NA,NA,NA,NA
"537","stim/objects/Instruments/grandpiano.png",442,52,435,0.9,"stim/33.jpeg",3,3,3,2,"Instruments",2,2,"right","right",0.63499999,1,1,1,0,NA,NA,NA,NA,NA,NA,NA,NA,NA,NA,NA,NA,NA,NA,NA,NA,NA,NA,NA,NA,NA,NA,NA,NA
"455","stim/objects/Instruments/electricguitar2.png",443,52,436,0.3,"stim/23.jpeg",2,3,2,1,"Instruments",2,1,"right","left",0.661999941,0,0,1,0,173,52,1,0.3,2,"stim/23.jpeg",2,3,"stim/23.jpeg",1,"right",6.10800004,2,3,0.514999866,4,0.346999884,173,0,1,NA,0,NA,0
"396","stim/objects/HouseObjects/thermometer.png",444,52,437,0.3,"stim/11.jpeg",1,1,2,1,"HouseObjects",1,1,"left","right",0.59499979,0,0,1,0,176,52,1,0.3,1,"stim/11.jpeg",1,1,"stim/11.jpeg",1,"left",2.605999947,2,3,0.468999863,4,0.392999887,176,1,0,0,0,0,0
"251","stim/objects/HouseObjects/basket.png",445,52,438,0.5,"stim/54.jpeg",5,4,1,2,"HouseObjects",1,1,"left","",NA,0,0,1,0,NA,NA,NA,NA,NA,NA,NA,NA,NA,NA,NA,NA,NA,NA,NA,NA,NA,NA,NA,NA,NA,NA,NA,NA
"548","stim/objects/Instruments/hihat2.png",446,52,439,0.9,"stim/33.jpeg",3,3,3,1,"Instruments",2,3,"right","right",0.594000101,1,1,1,0,171,52,1,0.9,2,"stim/33.jpeg",3,3,"stim/33.jpeg",3,"left",3.126999855,4,1,2.513999939,2,0.859999895,171,1,0,0,0,0,0
"483","stim/objects/Instruments/flutetrans.png",447,52,440,0.9,"stim/33.jpeg",3,3,3,2,"Instruments",2,2,"right","right",0.734999895,1,1,1,0,NA,NA,NA,NA,NA,NA,NA,NA,NA,NA,NA,NA,NA,NA,NA,NA,NA,NA,NA,NA,NA,NA,NA,NA
"451","stim/objects/Instruments/electricdrumset2.png",448,52,441,0.3,"stim/22.jpeg",2,2,2,1,"Instruments",2,2,"right","left",0.603999853,0,0,1,0,76,52,1,0.3,2,"stim/22.jpeg",2,2,"stim/22.jpeg",2,"left",0.677999973,4,2,3.119999886,4,0.524999857,76,1,1,1,0,0,0
"363","stim/objects/HouseObjects/glass.png",449,52,442,0.9,"stim/44.jpeg",4,4,3,2,"HouseObjects",1,3,"left","left",0.683000088,1,1,1,0,NA,NA,NA,NA,NA,NA,NA,NA,NA,NA,NA,NA,NA,NA,NA,NA,NA,NA,NA,NA,NA,NA,NA,NA
"520","stim/objects/Instruments/gong.png",450,52,443,0.9,"stim/32.jpeg",3,2,3,2,"Instruments",2,4,"right","right",0.604999781,1,1,1,0,NA,NA,NA,NA,NA,NA,NA,NA,NA,NA,NA,NA,NA,NA,NA,NA,NA,NA,NA,NA,NA,NA,NA,NA
"338","stim/objects/HouseObjects/flyswatter.png",451,52,444,0.9,"stim/42.jpeg",4,2,3,2,"HouseObjects",1,3,"left","left",0.569000006,1,1,1,0,NA,NA,NA,NA,NA,NA,NA,NA,NA,NA,NA,NA,NA,NA,NA,NA,NA,NA,NA,NA,NA,NA,NA,NA
"481","stim/objects/Instruments/flutetrans.png",452,52,445,0.9,"stim/33.jpeg",3,3,3,2,"Instruments",2,3,"right","right",0.790999889,1,1,1,0,NA,NA,NA,NA,NA,NA,NA,NA,NA,NA,NA,NA,NA,NA,NA,NA,NA,NA,NA,NA,NA,NA,NA,NA
"320","stim/objects/HouseObjects/dustpan.png",453,52,446,0.9,"stim/43.jpeg",4,3,3,2,"HouseObjects",1,4,"left","left",0.631999969,1,1,1,0,NA,NA,NA,NA,NA,NA,NA,NA,NA,NA,NA,NA,NA,NA,NA,NA,NA,NA,NA,NA,NA,NA,NA,NA
"415","stim/objects/Instruments/banjo.png",454,52,447,0.5,"stim/53.jpeg",5,3,1,2,"Instruments",2,4,"right","right",0.542999744,1,1,1,0,NA,NA,NA,NA,NA,NA,NA,NA,NA,NA,NA,NA,NA,NA,NA,NA,NA,NA,NA,NA,NA,NA,NA,NA
"310","stim/objects/HouseObjects/dustpan.png",455,52,448,0.9,"stim/41.jpeg",4,1,3,2,"HouseObjects",1,2,"left","left",0.532999992,1,1,1,0,NA,NA,NA,NA,NA,NA,NA,NA,NA,NA,NA,NA,NA,NA,NA,NA,NA,NA,NA,NA,NA,NA,NA,NA
"329","stim/objects/HouseObjects/flyswatter.png",456,52,449,0.9,"stim/44.jpeg",4,4,3,2,"HouseObjects",1,2,"left","right",0.532999992,0,0,1,0,NA,NA,NA,NA,NA,NA,NA,NA,NA,NA,NA,NA,NA,NA,NA,NA,NA,NA,NA,NA,NA,NA,NA,NA
"257","stim/objects/HouseObjects/blender.png",457,52,450,0.5,"stim/64.jpeg",6,4,1,2,"HouseObjects",1,1,"left","right",0.791999817,0,0,1,0,NA,NA,NA,NA,NA,NA,NA,NA,NA,NA,NA,NA,NA,NA,NA,NA,NA,NA,NA,NA,NA,NA,NA,NA
"521","stim/objects/Instruments/gong.png",458,52,451,0.9,"stim/32.jpeg",3,2,3,2,"Instruments",2,1,"right","right",0.696000099,1,1,1,0,NA,NA,NA,NA,NA,NA,NA,NA,NA,NA,NA,NA,NA,NA,NA,NA,NA,NA,NA,NA,NA,NA,NA,NA
"365","stim/objects/HouseObjects/glass.png",459,52,452,0.9,"stim/41.jpeg",4,1,3,2,"HouseObjects",1,4,"left","left",0.552999973,1,1,1,0,NA,NA,NA,NA,NA,NA,NA,NA,NA,NA,NA,NA,NA,NA,NA,NA,NA,NA,NA,NA,NA,NA,NA,NA
"549","stim/objects/Instruments/saxophone.png",460,52,453,0.5,"stim/52.jpeg",5,2,1,1,"Instruments",2,2,"right","",NA,0,0,1,0,80,52,1,0.5,1,"stim/52.jpeg",5,2,"stim/52.jpeg",2,"right",0.887999773,1,2,1.542000055,2,0.778999805,80,0,1,NA,1,NA,0
"249","stim/objects/HouseObjects/barbecuelighter2.png",461,52,454,0.3,"stim/14.jpeg",1,4,2,1,"HouseObjects",1,3,"left","right",0.803999901,0,0,1,0,140,52,1,0.3,1,"stim/14.jpeg",1,4,"stim/14.jpeg",3,"right",1.559000015,1,3,0.672999859,4,0.481999874,140,0,0,NA,0,NA,0
"543","stim/objects/Instruments/harmonica.png",462,52,455,0.5,"stim/53.jpeg",5,3,1,1,"Instruments",2,3,"right","left",0.573999882,0,0,1,0,29,52,1,0.5,1,"stim/53.jpeg",5,3,"stim/53.jpeg",3,"left",1.136999846,4,3,11.67299986,4,2.152999878,29,1,1,1,0,0,0
"263","stim/objects/HouseObjects/broom.png",463,52,456,0.5,"stim/62.jpeg",6,2,1,2,"HouseObjects",1,2,"left","left",0.620999813,1,1,1,0,NA,NA,NA,NA,NA,NA,NA,NA,NA,NA,NA,NA,NA,NA,NA,NA,NA,NA,NA,NA,NA,NA,NA,NA
"369","stim/objects/HouseObjects/glass.png",464,52,457,0.9,"stim/43.jpeg",4,3,3,2,"HouseObjects",1,3,"left","right",0.513000011,0,0,1,0,NA,NA,NA,NA,NA,NA,NA,NA,NA,NA,NA,NA,NA,NA,NA,NA,NA,NA,NA,NA,NA,NA,NA,NA
"466","stim/objects/Instruments/flute.png",465,52,458,0.9,"stim/33.jpeg",3,3,3,2,"Instruments",2,2,"right","right",0.612999916,1,1,1,0,NA,NA,NA,NA,NA,NA,NA,NA,NA,NA,NA,NA,NA,NA,NA,NA,NA,NA,NA,NA,NA,NA,NA,NA
"523","stim/objects/Instruments/gong2.png",466,52,459,0.9,"stim/32.jpeg",3,2,3,1,"Instruments",2,2,"right","right",0.554999828,1,1,1,0,11,52,1,0.9,2,"stim/32.jpeg",3,2,"stim/32.jpeg",2,"left",1.356999874,4,1,10.45799971,3,2.345000029,11,1,0,0,0,0,0
"300","stim/objects/HouseObjects/doormat.png",467,52,460,0.9,"stim/42.jpeg",4,2,3,2,"HouseObjects",1,1,"left","left",0.657999992,1,1,1,0,NA,NA,NA,NA,NA,NA,NA,NA,NA,NA,NA,NA,NA,NA,NA,NA,NA,NA,NA,NA,NA,NA,NA,NA
"450","stim/objects/Instruments/electricdrumset.png",468,52,461,0.7,"stim/12.jpeg",1,2,2,2,"Instruments",2,1,"right","left",0.735999823,0,0,1,0,NA,NA,NA,NA,NA,NA,NA,NA,NA,NA,NA,NA,NA,NA,NA,NA,NA,NA,NA,NA,NA,NA,NA,NA
"413","stim/objects/Instruments/balalaika.png",469,52,462,0.5,"stim/53.jpeg",5,3,1,2,"Instruments",2,4,"right","left",0.632999897,0,0,1,0,NA,NA,NA,NA,NA,NA,NA,NA,NA,NA,NA,NA,NA,NA,NA,NA,NA,NA,NA,NA,NA,NA,NA,NA
