"","obj_file","X.x","participant.x","trialN.x","trial_cond","scn_file.x","scn_cat","scn_inst","scn_condition","fillers","obj_cat","obj_cat_num","quadrant","corr_ans","key_resp_trial.keys","key_resp_trial.rt","trial_acc","trial_acc_manual","group.x","practice","X.y","participant.y","OvsN","PE_level","object_cat","scn_file.y","corr_scn_cat","corr_scn_inst","scn_file.1","corr_loc","key_resp_id.keys","key_resp_id.rt","key_resp_conf.keys","key_resp_assoc.keys","key_resp_assoc.rt","key_resp_loc.keys","key_resp_loc.rt","trialN.y","id_acc","assoc.acc","cond_assoc","loc.acc","cond_loc","group.y"
"217","stim/objects/Instruments/cornet.png",1,80,1,0.7,"stim/32.jpeg",3,2,2,NA,"Instruments",2,2,"right","",NA,0,0,0,1,NA,NA,NA,NA,NA,NA,NA,NA,NA,NA,NA,NA,NA,NA,NA,NA,NA,NA,NA,NA,NA,NA,NA,NA
"112","stim/objects/HouseObjects/clothespin2.png",2,80,2,0.9,"stim/64.jpeg",6,4,3,NA,"HouseObjects",1,3,"left","left",0.657999992,1,1,0,1,NA,NA,NA,NA,NA,NA,NA,NA,NA,NA,NA,NA,NA,NA,NA,NA,NA,NA,NA,NA,NA,NA,NA,NA
"113","stim/objects/HouseObjects/clothespin2.png",3,80,3,0.9,"stim/64.jpeg",6,4,3,NA,"HouseObjects",1,3,"left","left",0.638999939,1,1,0,1,NA,NA,NA,NA,NA,NA,NA,NA,NA,NA,NA,NA,NA,NA,NA,NA,NA,NA,NA,NA,NA,NA,NA,NA
"186","stim/objects/Instruments/cello2.png",4,80,4,0.9,"stim/53.jpeg",5,3,3,NA,"Instruments",2,2,"right","right",0.698999882,1,1,0,1,NA,NA,NA,NA,NA,NA,NA,NA,NA,NA,NA,NA,NA,NA,NA,NA,NA,NA,NA,NA,NA,NA,NA,NA
"1","stim/objects/HouseObjects/ashtray.png",5,80,5,0.5,"stim/11.jpeg",1,1,1,NA,"HouseObjects",1,4,"left","right",0.828000069,0,0,0,1,NA,NA,NA,NA,NA,NA,NA,NA,NA,NA,NA,NA,NA,NA,NA,NA,NA,NA,NA,NA,NA,NA,NA,NA
"145","stim/objects/Instruments/banjo.png",6,80,6,0.5,"stim/14.jpeg",1,4,1,NA,"Instruments",2,3,"right","right",0.838999987,1,1,0,1,NA,NA,NA,NA,NA,NA,NA,NA,NA,NA,NA,NA,NA,NA,NA,NA,NA,NA,NA,NA,NA,NA,NA,NA
"129","stim/objects/Instruments/acousticguitar.png",7,80,7,0.5,"stim/12.jpeg",1,2,1,NA,"Instruments",2,3,"right","right",0.781999826,1,1,0,1,NA,NA,NA,NA,NA,NA,NA,NA,NA,NA,NA,NA,NA,NA,NA,NA,NA,NA,NA,NA,NA,NA,NA,NA
"97","stim/objects/HouseObjects/clothesdryingrack.png",8,80,8,0.3,"stim/33.jpeg",3,3,2,NA,"HouseObjects",1,1,"left","right",0.875999928,0,0,0,1,NA,NA,NA,NA,NA,NA,NA,NA,NA,NA,NA,NA,NA,NA,NA,NA,NA,NA,NA,NA,NA,NA,NA,NA
"209","stim/objects/Instruments/clarinet.png",9,80,9,0.7,"stim/31.jpeg",3,1,2,NA,"Instruments",2,4,"right","left",0.536000013,0,0,0,1,NA,NA,NA,NA,NA,NA,NA,NA,NA,NA,NA,NA,NA,NA,NA,NA,NA,NA,NA,NA,NA,NA,NA,NA
"233","stim/objects/Instruments/doublebass.png",10,80,10,0.7,"stim/34.jpeg",3,4,2,NA,"Instruments",2,1,"right","left",0.773000002,0,0,0,1,NA,NA,NA,NA,NA,NA,NA,NA,NA,NA,NA,NA,NA,NA,NA,NA,NA,NA,NA,NA,NA,NA,NA,NA
"172","stim/objects/Instruments/bassguitar2.png",11,80,11,0.9,"stim/52.jpeg",5,2,3,NA,"Instruments",2,3,"right","",NA,0,0,0,1,NA,NA,NA,NA,NA,NA,NA,NA,NA,NA,NA,NA,NA,NA,NA,NA,NA,NA,NA,NA,NA,NA,NA,NA
"126","stim/objects/Instruments/accordion2.png",12,80,12,0.3,"stim/41.jpeg",4,1,2,NA,"Instruments",2,2,"right","right",0.674000025,1,1,0,1,NA,NA,NA,NA,NA,NA,NA,NA,NA,NA,NA,NA,NA,NA,NA,NA,NA,NA,NA,NA,NA,NA,NA,NA
"146","stim/objects/Instruments/banjo.png",13,80,13,0.5,"stim/14.jpeg",1,4,1,NA,"Instruments",2,1,"right","right",0.767999887,1,1,0,1,NA,NA,NA,NA,NA,NA,NA,NA,NA,NA,NA,NA,NA,NA,NA,NA,NA,NA,NA,NA,NA,NA,NA,NA
"67","stim/objects/HouseObjects/broom.png",14,80,14,0.5,"stim/24.jpeg",2,4,1,NA,"HouseObjects",1,4,"left","left",0.808000088,1,1,0,1,NA,NA,NA,NA,NA,NA,NA,NA,NA,NA,NA,NA,NA,NA,NA,NA,NA,NA,NA,NA,NA,NA,NA,NA
"173","stim/objects/Instruments/bassguitar2.png",15,80,15,0.9,"stim/52.jpeg",5,2,3,NA,"Instruments",2,1,"right","right",0.563999891,1,1,0,1,NA,NA,NA,NA,NA,NA,NA,NA,NA,NA,NA,NA,NA,NA,NA,NA,NA,NA,NA,NA,NA,NA,NA,NA
"158","stim/objects/Instruments/bassdrum2.png",16,80,16,0.9,"stim/51.jpeg",5,1,3,NA,"Instruments",2,2,"right","right",0.476000071,1,1,0,1,NA,NA,NA,NA,NA,NA,NA,NA,NA,NA,NA,NA,NA,NA,NA,NA,NA,NA,NA,NA,NA,NA,NA,NA
"137","stim/objects/Instruments/balalaika.png",17,80,17,0.5,"stim/13.jpeg",1,3,1,NA,"Instruments",2,4,"right","left",0.857000113,0,0,0,1,NA,NA,NA,NA,NA,NA,NA,NA,NA,NA,NA,NA,NA,NA,NA,NA,NA,NA,NA,NA,NA,NA,NA,NA
"121","stim/objects/Instruments/accordion.png",18,80,18,0.5,"stim/11.jpeg",1,1,1,NA,"Instruments",2,4,"right","right",0.571000099,1,1,0,1,NA,NA,NA,NA,NA,NA,NA,NA,NA,NA,NA,NA,NA,NA,NA,NA,NA,NA,NA,NA,NA,NA,NA,NA
"234","stim/objects/Instruments/doublebass.png",19,80,19,0.7,"stim/34.jpeg",3,4,2,NA,"Instruments",2,4,"right","left",0.870000124,0,0,0,1,NA,NA,NA,NA,NA,NA,NA,NA,NA,NA,NA,NA,NA,NA,NA,NA,NA,NA,NA,NA,NA,NA,NA,NA
"30","stim/objects/HouseObjects/barbecuelighter2.png",20,80,20,0.7,"stim/43.jpeg",4,3,2,NA,"HouseObjects",1,4,"left","",NA,0,0,0,1,NA,NA,NA,NA,NA,NA,NA,NA,NA,NA,NA,NA,NA,NA,NA,NA,NA,NA,NA,NA,NA,NA,NA,NA
"235","stim/objects/Instruments/doublebass.png",21,80,21,0.7,"stim/34.jpeg",3,4,2,NA,"Instruments",2,3,"right","right",0.551999807,1,1,0,1,NA,NA,NA,NA,NA,NA,NA,NA,NA,NA,NA,NA,NA,NA,NA,NA,NA,NA,NA,NA,NA,NA,NA,NA
"18","stim/objects/HouseObjects/ballofstring2.png",22,80,22,0.7,"stim/42.jpeg",4,2,2,NA,"HouseObjects",1,3,"left","left",0.550000191,1,1,0,1,NA,NA,NA,NA,NA,NA,NA,NA,NA,NA,NA,NA,NA,NA,NA,NA,NA,NA,NA,NA,NA,NA,NA,NA
"100","stim/objects/HouseObjects/clothesdryingrack2.png",23,80,23,0.9,"stim/63.jpeg",6,3,3,NA,"HouseObjects",1,2,"left","left",0.601000071,1,1,0,1,NA,NA,NA,NA,NA,NA,NA,NA,NA,NA,NA,NA,NA,NA,NA,NA,NA,NA,NA,NA,NA,NA,NA,NA
"109","stim/objects/HouseObjects/clothespin.png",24,80,24,0.3,"stim/34.jpeg",3,4,2,NA,"HouseObjects",1,4,"left","right",0.482999802,0,0,0,1,NA,NA,NA,NA,NA,NA,NA,NA,NA,NA,NA,NA,NA,NA,NA,NA,NA,NA,NA,NA,NA,NA,NA,NA
"195","stim/objects/Instruments/chime.png",25,80,25,0.5,"stim/24.jpeg",2,4,1,NA,"Instruments",2,3,"right","left",0.779000044,0,0,0,1,NA,NA,NA,NA,NA,NA,NA,NA,NA,NA,NA,NA,NA,NA,NA,NA,NA,NA,NA,NA,NA,NA,NA,NA
"6","stim/objects/HouseObjects/ashtray2.png",26,80,26,0.7,"stim/41.jpeg",4,1,2,NA,"HouseObjects",1,2,"left","left",0.593000174,1,1,0,1,NA,NA,NA,NA,NA,NA,NA,NA,NA,NA,NA,NA,NA,NA,NA,NA,NA,NA,NA,NA,NA,NA,NA,NA
"31","stim/objects/HouseObjects/barbecuelighter2.png",27,80,27,0.7,"stim/43.jpeg",4,3,2,NA,"HouseObjects",1,2,"left","left",0.64199996,1,1,0,1,NA,NA,NA,NA,NA,NA,NA,NA,NA,NA,NA,NA,NA,NA,NA,NA,NA,NA,NA,NA,NA,NA,NA,NA
"134","stim/objects/Instruments/acousticguitar2.png",28,80,28,0.3,"stim/42.jpeg",4,2,2,NA,"Instruments",2,2,"right","left",0.67599988,0,0,0,1,NA,NA,NA,NA,NA,NA,NA,NA,NA,NA,NA,NA,NA,NA,NA,NA,NA,NA,NA,NA,NA,NA,NA,NA
"138","stim/objects/Instruments/balalaika.png",29,80,29,0.5,"stim/13.jpeg",1,3,1,NA,"Instruments",2,3,"right","right",0.725999832,1,1,0,1,NA,NA,NA,NA,NA,NA,NA,NA,NA,NA,NA,NA,NA,NA,NA,NA,NA,NA,NA,NA,NA,NA,NA,NA
"114","stim/objects/HouseObjects/clothespin2.png",30,80,30,0.9,"stim/64.jpeg",6,4,3,NA,"HouseObjects",1,4,"left","left",0.532999992,1,1,0,1,NA,NA,NA,NA,NA,NA,NA,NA,NA,NA,NA,NA,NA,NA,NA,NA,NA,NA,NA,NA,NA,NA,NA,NA
"147","stim/objects/Instruments/banjo.png",31,80,31,0.5,"stim/14.jpeg",1,4,1,NA,"Instruments",2,1,"right","right",0.679000139,1,1,0,1,NA,NA,NA,NA,NA,NA,NA,NA,NA,NA,NA,NA,NA,NA,NA,NA,NA,NA,NA,NA,NA,NA,NA,NA
"218","stim/objects/Instruments/cornet.png",32,80,32,0.7,"stim/32.jpeg",3,2,2,NA,"Instruments",2,1,"right","right",0.508999825,1,1,0,1,NA,NA,NA,NA,NA,NA,NA,NA,NA,NA,NA,NA,NA,NA,NA,NA,NA,NA,NA,NA,NA,NA,NA,NA
"66","stim/objects/HouseObjects/bottle2.png",33,80,33,0.1,"stim/53.jpeg",5,3,3,NA,"HouseObjects",1,2,"left","right",0.585999966,0,0,0,1,NA,NA,NA,NA,NA,NA,NA,NA,NA,NA,NA,NA,NA,NA,NA,NA,NA,NA,NA,NA,NA,NA,NA,NA
"37","stim/objects/HouseObjects/basket.png",34,80,34,0.5,"stim/14.jpeg",1,4,1,NA,"HouseObjects",1,4,"left","right",0.639999866,0,0,0,1,NA,NA,NA,NA,NA,NA,NA,NA,NA,NA,NA,NA,NA,NA,NA,NA,NA,NA,NA,NA,NA,NA,NA,NA
"187","stim/objects/Instruments/cello2.png",35,80,35,0.9,"stim/53.jpeg",5,3,3,NA,"Instruments",2,2,"right","right",0.434999943,1,1,0,1,NA,NA,NA,NA,NA,NA,NA,NA,NA,NA,NA,NA,NA,NA,NA,NA,NA,NA,NA,NA,NA,NA,NA,NA
"153","stim/objects/Instruments/bassdrum.png",36,80,36,0.5,"stim/21.jpeg",2,1,1,NA,"Instruments",2,2,"right","left",0.679999828,0,0,0,1,NA,NA,NA,NA,NA,NA,NA,NA,NA,NA,NA,NA,NA,NA,NA,NA,NA,NA,NA,NA,NA,NA,NA,NA
"61","stim/objects/HouseObjects/bottle.png",37,80,37,0.5,"stim/23.jpeg",2,3,1,NA,"HouseObjects",1,2,"left","left",0.489000082,1,1,0,1,NA,NA,NA,NA,NA,NA,NA,NA,NA,NA,NA,NA,NA,NA,NA,NA,NA,NA,NA,NA,NA,NA,NA,NA
"139","stim/objects/Instruments/balalaika.png",38,80,38,0.5,"stim/13.jpeg",1,3,1,NA,"Instruments",2,2,"right","right",0.72300005,1,1,0,1,NA,NA,NA,NA,NA,NA,NA,NA,NA,NA,NA,NA,NA,NA,NA,NA,NA,NA,NA,NA,NA,NA,NA,NA
"159","stim/objects/Instruments/bassdrum2.png",39,80,39,0.9,"stim/51.jpeg",5,1,3,NA,"Instruments",2,3,"right","right",0.531999826,1,1,0,1,NA,NA,NA,NA,NA,NA,NA,NA,NA,NA,NA,NA,NA,NA,NA,NA,NA,NA,NA,NA,NA,NA,NA,NA
"76","stim/objects/HouseObjects/bucket2.png",40,80,40,0.9,"stim/61.jpeg",6,1,3,NA,"HouseObjects",1,2,"left","left",0.514999866,1,1,0,1,NA,NA,NA,NA,NA,NA,NA,NA,NA,NA,NA,NA,NA,NA,NA,NA,NA,NA,NA,NA,NA,NA,NA,NA
"68","stim/objects/HouseObjects/broom.png",41,80,41,0.5,"stim/24.jpeg",2,4,1,NA,"HouseObjects",1,2,"left","left",0.389999866,1,1,0,1,NA,NA,NA,NA,NA,NA,NA,NA,NA,NA,NA,NA,NA,NA,NA,NA,NA,NA,NA,NA,NA,NA,NA,NA
"77","stim/objects/HouseObjects/bucket2.png",42,80,42,0.9,"stim/61.jpeg",6,1,3,NA,"HouseObjects",1,2,"left","left",0.671000004,1,1,0,1,NA,NA,NA,NA,NA,NA,NA,NA,NA,NA,NA,NA,NA,NA,NA,NA,NA,NA,NA,NA,NA,NA,NA,NA
"167","stim/objects/Instruments/bassguitar.png",43,80,43,0.5,"stim/22.jpeg",2,2,1,NA,"Instruments",2,1,"right","left",0.653000116,0,0,0,1,NA,NA,NA,NA,NA,NA,NA,NA,NA,NA,NA,NA,NA,NA,NA,NA,NA,NA,NA,NA,NA,NA,NA,NA
"130","stim/objects/Instruments/acousticguitar.png",44,80,44,0.5,"stim/12.jpeg",1,2,1,NA,"Instruments",2,2,"right","",NA,0,0,0,1,NA,NA,NA,NA,NA,NA,NA,NA,NA,NA,NA,NA,NA,NA,NA,NA,NA,NA,NA,NA,NA,NA,NA,NA
"200","stim/objects/Instruments/chime2.png",45,80,45,0.9,"stim/54.jpeg",5,4,3,NA,"Instruments",2,4,"right","right",0.471999884,1,1,0,1,NA,NA,NA,NA,NA,NA,NA,NA,NA,NA,NA,NA,NA,NA,NA,NA,NA,NA,NA,NA,NA,NA,NA,NA
"115","stim/objects/HouseObjects/clothespin2.png",46,80,46,0.9,"stim/64.jpeg",6,4,3,NA,"HouseObjects",1,4,"left","left",0.572000027,1,1,0,1,NA,NA,NA,NA,NA,NA,NA,NA,NA,NA,NA,NA,NA,NA,NA,NA,NA,NA,NA,NA,NA,NA,NA,NA
"201","stim/objects/Instruments/chime2.png",47,80,47,0.9,"stim/54.jpeg",5,4,3,NA,"Instruments",2,2,"right","right",0.462999821,1,1,0,1,NA,NA,NA,NA,NA,NA,NA,NA,NA,NA,NA,NA,NA,NA,NA,NA,NA,NA,NA,NA,NA,NA,NA,NA
"210","stim/objects/Instruments/clarinet.png",48,80,48,0.7,"stim/31.jpeg",3,1,2,NA,"Instruments",2,3,"right","left",0.463000059,0,0,0,1,NA,NA,NA,NA,NA,NA,NA,NA,NA,NA,NA,NA,NA,NA,NA,NA,NA,NA,NA,NA,NA,NA,NA,NA
"49","stim/objects/HouseObjects/bleachbottle.png",49,80,49,0.5,"stim/21.jpeg",2,1,1,NA,"HouseObjects",1,1,"left","left",0.599999905,1,1,0,1,NA,NA,NA,NA,NA,NA,NA,NA,NA,NA,NA,NA,NA,NA,NA,NA,NA,NA,NA,NA,NA,NA,NA,NA
"78","stim/objects/HouseObjects/bucket2.png",50,80,50,0.9,"stim/61.jpeg",6,1,3,NA,"HouseObjects",1,4,"left","left",0.588999987,1,1,0,1,NA,NA,NA,NA,NA,NA,NA,NA,NA,NA,NA,NA,NA,NA,NA,NA,NA,NA,NA,NA,NA,NA,NA,NA
"225","stim/objects/Instruments/cymbal.png",51,80,51,0.7,"stim/33.jpeg",3,3,2,NA,"Instruments",2,2,"right","right",0.611000061,1,1,0,1,NA,NA,NA,NA,NA,NA,NA,NA,NA,NA,NA,NA,NA,NA,NA,NA,NA,NA,NA,NA,NA,NA,NA,NA
"142","stim/objects/Instruments/balalaika2.png",52,80,52,0.3,"stim/43.jpeg",4,3,2,NA,"Instruments",2,3,"right","left",0.565000057,0,0,0,1,NA,NA,NA,NA,NA,NA,NA,NA,NA,NA,NA,NA,NA,NA,NA,NA,NA,NA,NA,NA,NA,NA,NA,NA
"60","stim/objects/HouseObjects/blender2.png",53,80,53,0.1,"stim/52.jpeg",5,2,3,NA,"HouseObjects",1,3,"left","right",0.712999821,0,0,0,1,NA,NA,NA,NA,NA,NA,NA,NA,NA,NA,NA,NA,NA,NA,NA,NA,NA,NA,NA,NA,NA,NA,NA,NA
"232","stim/objects/Instruments/cymbal2.png",54,80,54,0.1,"stim/63.jpeg",6,3,3,NA,"Instruments",2,4,"right","left",0.529000044,0,0,0,1,NA,NA,NA,NA,NA,NA,NA,NA,NA,NA,NA,NA,NA,NA,NA,NA,NA,NA,NA,NA,NA,NA,NA,NA
"168","stim/objects/Instruments/bassguitar.png",55,80,55,0.5,"stim/22.jpeg",2,2,1,NA,"Instruments",2,2,"right","",NA,0,0,0,1,NA,NA,NA,NA,NA,NA,NA,NA,NA,NA,NA,NA,NA,NA,NA,NA,NA,NA,NA,NA,NA,NA,NA,NA
"148","stim/objects/Instruments/banjo.png",56,80,56,0.5,"stim/14.jpeg",1,4,1,NA,"Instruments",2,3,"right","right",0.532000065,1,1,0,1,NA,NA,NA,NA,NA,NA,NA,NA,NA,NA,NA,NA,NA,NA,NA,NA,NA,NA,NA,NA,NA,NA,NA,NA
"154","stim/objects/Instruments/bassdrum.png",57,80,57,0.5,"stim/21.jpeg",2,1,1,NA,"Instruments",2,2,"right","",NA,0,0,0,1,NA,NA,NA,NA,NA,NA,NA,NA,NA,NA,NA,NA,NA,NA,NA,NA,NA,NA,NA,NA,NA,NA,NA,NA
"169","stim/objects/Instruments/bassguitar.png",58,80,58,0.5,"stim/22.jpeg",2,2,1,NA,"Instruments",2,1,"right","right",0.734999895,1,1,0,1,NA,NA,NA,NA,NA,NA,NA,NA,NA,NA,NA,NA,NA,NA,NA,NA,NA,NA,NA,NA,NA,NA,NA,NA
"42","stim/objects/HouseObjects/basket2.png",59,80,59,0.7,"stim/44.jpeg",4,4,2,NA,"HouseObjects",1,1,"left","left",0.558000088,1,1,0,1,NA,NA,NA,NA,NA,NA,NA,NA,NA,NA,NA,NA,NA,NA,NA,NA,NA,NA,NA,NA,NA,NA,NA,NA
"155","stim/objects/Instruments/bassdrum.png",60,80,60,0.5,"stim/21.jpeg",2,1,1,NA,"Instruments",2,4,"right","left",0.536999941,0,0,0,1,NA,NA,NA,NA,NA,NA,NA,NA,NA,NA,NA,NA,NA,NA,NA,NA,NA,NA,NA,NA,NA,NA,NA,NA
"135","stim/objects/Instruments/acousticguitar2.png",61,80,61,0.3,"stim/42.jpeg",4,2,2,NA,"Instruments",2,4,"right","left",0.573999882,0,0,0,1,NA,NA,NA,NA,NA,NA,NA,NA,NA,NA,NA,NA,NA,NA,NA,NA,NA,NA,NA,NA,NA,NA,NA,NA
"174","stim/objects/Instruments/bassguitar2.png",62,80,62,0.9,"stim/52.jpeg",5,2,3,NA,"Instruments",2,1,"right","right",0.681999922,1,1,0,1,NA,NA,NA,NA,NA,NA,NA,NA,NA,NA,NA,NA,NA,NA,NA,NA,NA,NA,NA,NA,NA,NA,NA,NA
"50","stim/objects/HouseObjects/bleachbottle.png",63,80,63,0.5,"stim/21.jpeg",2,1,1,NA,"HouseObjects",1,3,"left","left",0.448000193,1,1,0,1,NA,NA,NA,NA,NA,NA,NA,NA,NA,NA,NA,NA,NA,NA,NA,NA,NA,NA,NA,NA,NA,NA,NA,NA
"51","stim/objects/HouseObjects/bleachbottle.png",64,80,64,0.5,"stim/21.jpeg",2,1,1,NA,"HouseObjects",1,1,"left","left",0.382999897,1,1,0,1,NA,NA,NA,NA,NA,NA,NA,NA,NA,NA,NA,NA,NA,NA,NA,NA,NA,NA,NA,NA,NA,NA,NA,NA
"13","stim/objects/HouseObjects/ballofstring.png",65,80,65,0.5,"stim/12.jpeg",1,2,1,NA,"HouseObjects",1,3,"left","right",0.602999926,0,0,0,1,NA,NA,NA,NA,NA,NA,NA,NA,NA,NA,NA,NA,NA,NA,NA,NA,NA,NA,NA,NA,NA,NA,NA,NA
"62","stim/objects/HouseObjects/bottle.png",66,80,66,0.5,"stim/23.jpeg",2,3,1,NA,"HouseObjects",1,1,"left","left",0.554000139,1,1,0,1,NA,NA,NA,NA,NA,NA,NA,NA,NA,NA,NA,NA,NA,NA,NA,NA,NA,NA,NA,NA,NA,NA,NA,NA
"69","stim/objects/HouseObjects/broom.png",67,80,67,0.5,"stim/24.jpeg",2,4,1,NA,"HouseObjects",1,4,"left","right",0.434000015,0,0,0,1,NA,NA,NA,NA,NA,NA,NA,NA,NA,NA,NA,NA,NA,NA,NA,NA,NA,NA,NA,NA,NA,NA,NA,NA
"14","stim/objects/HouseObjects/ballofstring.png",68,80,68,0.5,"stim/12.jpeg",1,2,1,NA,"HouseObjects",1,2,"left","right",0.63499999,0,0,0,1,NA,NA,NA,NA,NA,NA,NA,NA,NA,NA,NA,NA,NA,NA,NA,NA,NA,NA,NA,NA,NA,NA,NA,NA
"55","stim/objects/HouseObjects/blender.png",69,80,69,0.5,"stim/22.jpeg",2,2,1,NA,"HouseObjects",1,2,"left","left",0.536999941,1,1,0,1,NA,NA,NA,NA,NA,NA,NA,NA,NA,NA,NA,NA,NA,NA,NA,NA,NA,NA,NA,NA,NA,NA,NA,NA
"219","stim/objects/Instruments/cornet.png",70,80,70,0.7,"stim/32.jpeg",3,2,2,NA,"Instruments",2,1,"right","right",0.767999887,1,1,0,1,NA,NA,NA,NA,NA,NA,NA,NA,NA,NA,NA,NA,NA,NA,NA,NA,NA,NA,NA,NA,NA,NA,NA,NA
"170","stim/objects/Instruments/bassguitar.png",71,80,71,0.5,"stim/22.jpeg",2,2,1,NA,"Instruments",2,1,"right","left",0.578999996,0,0,0,1,NA,NA,NA,NA,NA,NA,NA,NA,NA,NA,NA,NA,NA,NA,NA,NA,NA,NA,NA,NA,NA,NA,NA,NA
"150","stim/objects/Instruments/banjo2.png",72,80,72,0.3,"stim/44.jpeg",4,4,2,NA,"Instruments",2,3,"right","left",0.628000021,0,0,0,1,NA,NA,NA,NA,NA,NA,NA,NA,NA,NA,NA,NA,NA,NA,NA,NA,NA,NA,NA,NA,NA,NA,NA,NA
"7","stim/objects/HouseObjects/ashtray2.png",73,80,73,0.7,"stim/41.jpeg",4,1,2,NA,"HouseObjects",1,2,"left","left",0.488000154,1,1,0,1,NA,NA,NA,NA,NA,NA,NA,NA,NA,NA,NA,NA,NA,NA,NA,NA,NA,NA,NA,NA,NA,NA,NA,NA
"211","stim/objects/Instruments/clarinet.png",74,80,74,0.7,"stim/31.jpeg",3,1,2,NA,"Instruments",2,1,"right","right",0.636999846,1,1,0,1,NA,NA,NA,NA,NA,NA,NA,NA,NA,NA,NA,NA,NA,NA,NA,NA,NA,NA,NA,NA,NA,NA,NA,NA
"98","stim/objects/HouseObjects/clothesdryingrack.png",75,80,75,0.3,"stim/33.jpeg",3,3,2,NA,"HouseObjects",1,3,"left","right",0.904999971,0,0,0,1,NA,NA,NA,NA,NA,NA,NA,NA,NA,NA,NA,NA,NA,NA,NA,NA,NA,NA,NA,NA,NA,NA,NA,NA
"226","stim/objects/Instruments/cymbal.png",76,80,76,0.7,"stim/33.jpeg",3,3,2,NA,"Instruments",2,1,"right","",NA,0,0,0,1,NA,NA,NA,NA,NA,NA,NA,NA,NA,NA,NA,NA,NA,NA,NA,NA,NA,NA,NA,NA,NA,NA,NA,NA
"56","stim/objects/HouseObjects/blender.png",77,80,77,0.5,"stim/22.jpeg",2,2,1,NA,"HouseObjects",1,2,"left","right",0.855999947,0,0,0,1,NA,NA,NA,NA,NA,NA,NA,NA,NA,NA,NA,NA,NA,NA,NA,NA,NA,NA,NA,NA,NA,NA,NA,NA
"122","stim/objects/Instruments/accordion.png",78,80,78,0.5,"stim/11.jpeg",1,1,1,NA,"Instruments",2,3,"right","right",0.774999857,1,1,0,1,NA,NA,NA,NA,NA,NA,NA,NA,NA,NA,NA,NA,NA,NA,NA,NA,NA,NA,NA,NA,NA,NA,NA,NA
"85","stim/objects/HouseObjects/clock.png",79,80,79,0.3,"stim/32.jpeg",3,2,2,NA,"HouseObjects",1,2,"left","",NA,0,0,0,1,NA,NA,NA,NA,NA,NA,NA,NA,NA,NA,NA,NA,NA,NA,NA,NA,NA,NA,NA,NA,NA,NA,NA,NA
"212","stim/objects/Instruments/clarinet.png",80,80,80,0.7,"stim/31.jpeg",3,1,2,NA,"Instruments",2,1,"right","",NA,0,0,0,1,NA,NA,NA,NA,NA,NA,NA,NA,NA,NA,NA,NA,NA,NA,NA,NA,NA,NA,NA,NA,NA,NA,NA,NA
"175","stim/objects/Instruments/bassguitar2.png",81,80,81,0.9,"stim/52.jpeg",5,2,3,NA,"Instruments",2,3,"right","left",0.434000015,0,0,0,1,NA,NA,NA,NA,NA,NA,NA,NA,NA,NA,NA,NA,NA,NA,NA,NA,NA,NA,NA,NA,NA,NA,NA,NA
"160","stim/objects/Instruments/bassdrum2.png",82,80,82,0.9,"stim/51.jpeg",5,1,3,NA,"Instruments",2,3,"right","right",0.597999811,1,1,0,1,NA,NA,NA,NA,NA,NA,NA,NA,NA,NA,NA,NA,NA,NA,NA,NA,NA,NA,NA,NA,NA,NA,NA,NA
"123","stim/objects/Instruments/accordion.png",83,80,83,0.5,"stim/11.jpeg",1,1,1,NA,"Instruments",2,3,"right","right",0.835999966,1,1,0,1,NA,NA,NA,NA,NA,NA,NA,NA,NA,NA,NA,NA,NA,NA,NA,NA,NA,NA,NA,NA,NA,NA,NA,NA
"127","stim/objects/Instruments/accordion2.png",84,80,84,0.3,"stim/41.jpeg",4,1,2,NA,"Instruments",2,3,"right","left",0.635999918,0,0,0,1,NA,NA,NA,NA,NA,NA,NA,NA,NA,NA,NA,NA,NA,NA,NA,NA,NA,NA,NA,NA,NA,NA,NA,NA
"101","stim/objects/HouseObjects/clothesdryingrack2.png",85,80,85,0.9,"stim/63.jpeg",6,3,3,NA,"HouseObjects",1,4,"left","left",0.700000048,1,1,0,1,NA,NA,NA,NA,NA,NA,NA,NA,NA,NA,NA,NA,NA,NA,NA,NA,NA,NA,NA,NA,NA,NA,NA,NA
"116","stim/objects/HouseObjects/clothespin2.png",86,80,86,0.9,"stim/64.jpeg",6,4,3,NA,"HouseObjects",1,2,"left","left",0.486999989,1,1,0,1,NA,NA,NA,NA,NA,NA,NA,NA,NA,NA,NA,NA,NA,NA,NA,NA,NA,NA,NA,NA,NA,NA,NA,NA
"102","stim/objects/HouseObjects/clothesdryingrack2.png",87,80,87,0.9,"stim/63.jpeg",6,3,3,NA,"HouseObjects",1,4,"left","left",0.551000118,1,1,0,1,NA,NA,NA,NA,NA,NA,NA,NA,NA,NA,NA,NA,NA,NA,NA,NA,NA,NA,NA,NA,NA,NA,NA,NA
"131","stim/objects/Instruments/acousticguitar.png",88,80,88,0.5,"stim/12.jpeg",1,2,1,NA,"Instruments",2,4,"right","right",0.620000124,1,1,0,1,NA,NA,NA,NA,NA,NA,NA,NA,NA,NA,NA,NA,NA,NA,NA,NA,NA,NA,NA,NA,NA,NA,NA,NA
"57","stim/objects/HouseObjects/blender.png",89,80,89,0.5,"stim/22.jpeg",2,2,1,NA,"HouseObjects",1,3,"left","",NA,0,0,0,1,NA,NA,NA,NA,NA,NA,NA,NA,NA,NA,NA,NA,NA,NA,NA,NA,NA,NA,NA,NA,NA,NA,NA,NA
"38","stim/objects/HouseObjects/basket.png",90,80,90,0.5,"stim/14.jpeg",1,4,1,NA,"HouseObjects",1,4,"left","right",0.654999971,0,0,0,1,NA,NA,NA,NA,NA,NA,NA,NA,NA,NA,NA,NA,NA,NA,NA,NA,NA,NA,NA,NA,NA,NA,NA,NA
"43","stim/objects/HouseObjects/basket2.png",91,80,91,0.7,"stim/44.jpeg",4,4,2,NA,"HouseObjects",1,3,"left","left",0.786000013,1,1,0,1,NA,NA,NA,NA,NA,NA,NA,NA,NA,NA,NA,NA,NA,NA,NA,NA,NA,NA,NA,NA,NA,NA,NA,NA
"19","stim/objects/HouseObjects/ballofstring2.png",92,80,92,0.7,"stim/42.jpeg",4,2,2,NA,"HouseObjects",1,4,"left","left",0.520999908,1,1,0,1,NA,NA,NA,NA,NA,NA,NA,NA,NA,NA,NA,NA,NA,NA,NA,NA,NA,NA,NA,NA,NA,NA,NA,NA
"188","stim/objects/Instruments/cello2.png",93,80,93,0.9,"stim/53.jpeg",5,3,3,NA,"Instruments",2,4,"right","right",0.701999903,1,1,0,1,NA,NA,NA,NA,NA,NA,NA,NA,NA,NA,NA,NA,NA,NA,NA,NA,NA,NA,NA,NA,NA,NA,NA,NA
"176","stim/objects/Instruments/bassguitar2.png",94,80,94,0.9,"stim/52.jpeg",5,2,3,NA,"Instruments",2,4,"right","right",0.561000109,1,1,0,1,NA,NA,NA,NA,NA,NA,NA,NA,NA,NA,NA,NA,NA,NA,NA,NA,NA,NA,NA,NA,NA,NA,NA,NA
"88","stim/objects/HouseObjects/clock2.png",95,80,95,0.9,"stim/62.jpeg",6,2,3,NA,"HouseObjects",1,4,"left","left",0.592999935,1,1,0,1,NA,NA,NA,NA,NA,NA,NA,NA,NA,NA,NA,NA,NA,NA,NA,NA,NA,NA,NA,NA,NA,NA,NA,NA
"156","stim/objects/Instruments/bassdrum.png",96,80,96,0.5,"stim/21.jpeg",2,1,1,NA,"Instruments",2,1,"right","left",0.763000011,0,0,0,1,NA,NA,NA,NA,NA,NA,NA,NA,NA,NA,NA,NA,NA,NA,NA,NA,NA,NA,NA,NA,NA,NA,NA,NA
"58","stim/objects/HouseObjects/blender.png",97,80,97,0.5,"stim/22.jpeg",2,2,1,NA,"HouseObjects",1,3,"left","right",0.496000051,0,0,0,1,NA,NA,NA,NA,NA,NA,NA,NA,NA,NA,NA,NA,NA,NA,NA,NA,NA,NA,NA,NA,NA,NA,NA,NA
"79","stim/objects/HouseObjects/bucket2.png",98,80,98,0.9,"stim/61.jpeg",6,1,3,NA,"HouseObjects",1,2,"left","left",0.57799983,1,1,0,1,NA,NA,NA,NA,NA,NA,NA,NA,NA,NA,NA,NA,NA,NA,NA,NA,NA,NA,NA,NA,NA,NA,NA,NA
"124","stim/objects/Instruments/accordion.png",99,80,99,0.5,"stim/11.jpeg",1,1,1,NA,"Instruments",2,3,"right","left",0.55099988,0,0,0,1,NA,NA,NA,NA,NA,NA,NA,NA,NA,NA,NA,NA,NA,NA,NA,NA,NA,NA,NA,NA,NA,NA,NA,NA
"110","stim/objects/HouseObjects/clothespin.png",100,80,100,0.3,"stim/34.jpeg",3,4,2,NA,"HouseObjects",1,1,"left","left",0.692000151,1,1,0,1,NA,NA,NA,NA,NA,NA,NA,NA,NA,NA,NA,NA,NA,NA,NA,NA,NA,NA,NA,NA,NA,NA,NA,NA
"161","stim/objects/Instruments/bassdrum2.png",101,80,101,0.9,"stim/51.jpeg",5,1,3,NA,"Instruments",2,1,"right","right",0.523000002,1,1,0,1,NA,NA,NA,NA,NA,NA,NA,NA,NA,NA,NA,NA,NA,NA,NA,NA,NA,NA,NA,NA,NA,NA,NA,NA
"39","stim/objects/HouseObjects/basket.png",102,80,102,0.5,"stim/14.jpeg",1,4,1,NA,"HouseObjects",1,3,"left","right",0.779999971,0,0,0,1,NA,NA,NA,NA,NA,NA,NA,NA,NA,NA,NA,NA,NA,NA,NA,NA,NA,NA,NA,NA,NA,NA,NA,NA
"25","stim/objects/HouseObjects/barbecuelighter.png",103,80,103,0.5,"stim/13.jpeg",1,3,1,NA,"HouseObjects",1,1,"left","right",0.787000179,0,0,0,1,NA,NA,NA,NA,NA,NA,NA,NA,NA,NA,NA,NA,NA,NA,NA,NA,NA,NA,NA,NA,NA,NA,NA,NA
"20","stim/objects/HouseObjects/ballofstring2.png",104,80,104,0.7,"stim/42.jpeg",4,2,2,NA,"HouseObjects",1,2,"left","right",0.842999935,0,0,0,1,NA,NA,NA,NA,NA,NA,NA,NA,NA,NA,NA,NA,NA,NA,NA,NA,NA,NA,NA,NA,NA,NA,NA,NA
"86","stim/objects/HouseObjects/clock.png",105,80,105,0.3,"stim/32.jpeg",3,2,2,NA,"HouseObjects",1,3,"left","left",0.81099987,1,1,0,1,NA,NA,NA,NA,NA,NA,NA,NA,NA,NA,NA,NA,NA,NA,NA,NA,NA,NA,NA,NA,NA,NA,NA,NA
"80","stim/objects/HouseObjects/bucket2.png",106,80,106,0.9,"stim/61.jpeg",6,1,3,NA,"HouseObjects",1,3,"left","left",0.572999954,1,1,0,1,NA,NA,NA,NA,NA,NA,NA,NA,NA,NA,NA,NA,NA,NA,NA,NA,NA,NA,NA,NA,NA,NA,NA,NA
"81","stim/objects/HouseObjects/bucket2.png",107,80,107,0.9,"stim/61.jpeg",6,1,3,NA,"HouseObjects",1,3,"left","left",0.459000111,1,1,0,1,NA,NA,NA,NA,NA,NA,NA,NA,NA,NA,NA,NA,NA,NA,NA,NA,NA,NA,NA,NA,NA,NA,NA,NA
"87","stim/objects/HouseObjects/clock.png",108,80,108,0.3,"stim/32.jpeg",3,2,2,NA,"HouseObjects",1,4,"left","right",0.844000101,0,0,0,1,NA,NA,NA,NA,NA,NA,NA,NA,NA,NA,NA,NA,NA,NA,NA,NA,NA,NA,NA,NA,NA,NA,NA,NA
"181","stim/objects/Instruments/cello.png",109,80,109,0.5,"stim/23.jpeg",2,3,1,NA,"Instruments",2,2,"right","",NA,0,0,0,1,NA,NA,NA,NA,NA,NA,NA,NA,NA,NA,NA,NA,NA,NA,NA,NA,NA,NA,NA,NA,NA,NA,NA,NA
"117","stim/objects/HouseObjects/clothespin2.png",110,80,110,0.9,"stim/64.jpeg",6,4,3,NA,"HouseObjects",1,1,"left","left",0.559000015,1,1,0,1,NA,NA,NA,NA,NA,NA,NA,NA,NA,NA,NA,NA,NA,NA,NA,NA,NA,NA,NA,NA,NA,NA,NA,NA
"216","stim/objects/Instruments/clarinet2.png",111,80,111,0.1,"stim/61.jpeg",6,1,3,NA,"Instruments",2,4,"right","left",0.567000151,0,0,0,1,NA,NA,NA,NA,NA,NA,NA,NA,NA,NA,NA,NA,NA,NA,NA,NA,NA,NA,NA,NA,NA,NA,NA,NA
"213","stim/objects/Instruments/clarinet.png",112,80,112,0.7,"stim/31.jpeg",3,1,2,NA,"Instruments",2,3,"right","left",0.725000143,0,0,0,1,NA,NA,NA,NA,NA,NA,NA,NA,NA,NA,NA,NA,NA,NA,NA,NA,NA,NA,NA,NA,NA,NA,NA,NA
"103","stim/objects/HouseObjects/clothesdryingrack2.png",113,80,113,0.9,"stim/63.jpeg",6,3,3,NA,"HouseObjects",1,2,"left","left",0.606999874,1,1,0,1,NA,NA,NA,NA,NA,NA,NA,NA,NA,NA,NA,NA,NA,NA,NA,NA,NA,NA,NA,NA,NA,NA,NA,NA
"162","stim/objects/Instruments/bassdrum2.png",114,80,114,0.9,"stim/51.jpeg",5,1,3,NA,"Instruments",2,4,"right","right",0.539999962,1,1,0,1,NA,NA,NA,NA,NA,NA,NA,NA,NA,NA,NA,NA,NA,NA,NA,NA,NA,NA,NA,NA,NA,NA,NA,NA
"63","stim/objects/HouseObjects/bottle.png",115,80,115,0.5,"stim/23.jpeg",2,3,1,NA,"HouseObjects",1,3,"left","left",0.671000004,1,1,0,1,NA,NA,NA,NA,NA,NA,NA,NA,NA,NA,NA,NA,NA,NA,NA,NA,NA,NA,NA,NA,NA,NA,NA,NA
"189","stim/objects/Instruments/cello2.png",116,80,116,0.9,"stim/53.jpeg",5,3,3,NA,"Instruments",2,1,"right","right",0.773000002,1,1,0,1,NA,NA,NA,NA,NA,NA,NA,NA,NA,NA,NA,NA,NA,NA,NA,NA,NA,NA,NA,NA,NA,NA,NA,NA
"89","stim/objects/HouseObjects/clock2.png",117,80,117,0.9,"stim/62.jpeg",6,2,3,NA,"HouseObjects",1,3,"left","left",0.531999826,1,1,0,1,NA,NA,NA,NA,NA,NA,NA,NA,NA,NA,NA,NA,NA,NA,NA,NA,NA,NA,NA,NA,NA,NA,NA,NA
"128","stim/objects/Instruments/accordion2.png",118,80,118,0.3,"stim/41.jpeg",4,1,2,NA,"Instruments",2,1,"right","left",0.757999897,0,0,0,1,NA,NA,NA,NA,NA,NA,NA,NA,NA,NA,NA,NA,NA,NA,NA,NA,NA,NA,NA,NA,NA,NA,NA,NA
"73","stim/objects/HouseObjects/bucket.png",119,80,119,0.3,"stim/31.jpeg",3,1,2,NA,"HouseObjects",1,2,"left","right",0.919999838,0,0,0,1,NA,NA,NA,NA,NA,NA,NA,NA,NA,NA,NA,NA,NA,NA,NA,NA,NA,NA,NA,NA,NA,NA,NA,NA
"90","stim/objects/HouseObjects/clock2.png",120,80,120,0.9,"stim/62.jpeg",6,2,3,NA,"HouseObjects",1,1,"left","left",0.569000006,1,1,0,1,NA,NA,NA,NA,NA,NA,NA,NA,NA,NA,NA,NA,NA,NA,NA,NA,NA,NA,NA,NA,NA,NA,NA,NA
"44","stim/objects/HouseObjects/basket2.png",121,80,121,0.7,"stim/44.jpeg",4,4,2,NA,"HouseObjects",1,1,"left","left",0.652999878,1,1,0,1,NA,NA,NA,NA,NA,NA,NA,NA,NA,NA,NA,NA,NA,NA,NA,NA,NA,NA,NA,NA,NA,NA,NA,NA
"32","stim/objects/HouseObjects/barbecuelighter2.png",122,80,122,0.7,"stim/43.jpeg",4,3,2,NA,"HouseObjects",1,2,"left","left",0.505000114,1,1,0,1,NA,NA,NA,NA,NA,NA,NA,NA,NA,NA,NA,NA,NA,NA,NA,NA,NA,NA,NA,NA,NA,NA,NA,NA
"104","stim/objects/HouseObjects/clothesdryingrack2.png",123,80,123,0.9,"stim/63.jpeg",6,3,3,NA,"HouseObjects",1,4,"left","left",0.595000029,1,1,0,1,NA,NA,NA,NA,NA,NA,NA,NA,NA,NA,NA,NA,NA,NA,NA,NA,NA,NA,NA,NA,NA,NA,NA,NA
"177","stim/objects/Instruments/bassguitar2.png",124,80,124,0.9,"stim/52.jpeg",5,2,3,NA,"Instruments",2,2,"right","right",0.67599988,1,1,0,1,NA,NA,NA,NA,NA,NA,NA,NA,NA,NA,NA,NA,NA,NA,NA,NA,NA,NA,NA,NA,NA,NA,NA,NA
"26","stim/objects/HouseObjects/barbecuelighter.png",125,80,125,0.5,"stim/13.jpeg",1,3,1,NA,"HouseObjects",1,4,"left","left",0.644000053,1,1,0,1,NA,NA,NA,NA,NA,NA,NA,NA,NA,NA,NA,NA,NA,NA,NA,NA,NA,NA,NA,NA,NA,NA,NA,NA
"227","stim/objects/Instruments/cymbal.png",126,80,126,0.7,"stim/33.jpeg",3,3,2,NA,"Instruments",2,1,"right","right",0.722999811,1,1,0,1,NA,NA,NA,NA,NA,NA,NA,NA,NA,NA,NA,NA,NA,NA,NA,NA,NA,NA,NA,NA,NA,NA,NA,NA
"228","stim/objects/Instruments/cymbal.png",127,80,127,0.7,"stim/33.jpeg",3,3,2,NA,"Instruments",2,3,"right","left",0.54700017,0,0,0,1,NA,NA,NA,NA,NA,NA,NA,NA,NA,NA,NA,NA,NA,NA,NA,NA,NA,NA,NA,NA,NA,NA,NA,NA
"190","stim/objects/Instruments/cello2.png",128,80,128,0.9,"stim/53.jpeg",5,3,3,NA,"Instruments",2,3,"right","",NA,0,0,0,1,NA,NA,NA,NA,NA,NA,NA,NA,NA,NA,NA,NA,NA,NA,NA,NA,NA,NA,NA,NA,NA,NA,NA,NA
"202","stim/objects/Instruments/chime2.png",129,80,129,0.9,"stim/54.jpeg",5,4,3,NA,"Instruments",2,2,"right","right",0.44299984,1,1,0,1,NA,NA,NA,NA,NA,NA,NA,NA,NA,NA,NA,NA,NA,NA,NA,NA,NA,NA,NA,NA,NA,NA,NA,NA
"191","stim/objects/Instruments/cello2.png",130,80,130,0.9,"stim/53.jpeg",5,3,3,NA,"Instruments",2,2,"right","right",0.431999922,1,1,0,1,NA,NA,NA,NA,NA,NA,NA,NA,NA,NA,NA,NA,NA,NA,NA,NA,NA,NA,NA,NA,NA,NA,NA,NA
"91","stim/objects/HouseObjects/clock2.png",131,80,131,0.9,"stim/62.jpeg",6,2,3,NA,"HouseObjects",1,2,"left","left",0.576000214,1,1,0,1,NA,NA,NA,NA,NA,NA,NA,NA,NA,NA,NA,NA,NA,NA,NA,NA,NA,NA,NA,NA,NA,NA,NA,NA
"45","stim/objects/HouseObjects/basket2.png",132,80,132,0.7,"stim/44.jpeg",4,4,2,NA,"HouseObjects",1,2,"left","left",0.884000063,1,1,0,1,NA,NA,NA,NA,NA,NA,NA,NA,NA,NA,NA,NA,NA,NA,NA,NA,NA,NA,NA,NA,NA,NA,NA,NA
"105","stim/objects/HouseObjects/clothesdryingrack2.png",133,80,133,0.9,"stim/63.jpeg",6,3,3,NA,"HouseObjects",1,4,"left","left",0.614000082,1,1,0,1,NA,NA,NA,NA,NA,NA,NA,NA,NA,NA,NA,NA,NA,NA,NA,NA,NA,NA,NA,NA,NA,NA,NA,NA
"163","stim/objects/Instruments/bassdrum2.png",134,80,134,0.9,"stim/51.jpeg",5,1,3,NA,"Instruments",2,1,"right","right",0.732000113,1,1,0,1,NA,NA,NA,NA,NA,NA,NA,NA,NA,NA,NA,NA,NA,NA,NA,NA,NA,NA,NA,NA,NA,NA,NA,NA
"70","stim/objects/HouseObjects/broom.png",135,80,135,0.5,"stim/24.jpeg",2,4,1,NA,"HouseObjects",1,3,"left","left",0.636999846,1,1,0,1,NA,NA,NA,NA,NA,NA,NA,NA,NA,NA,NA,NA,NA,NA,NA,NA,NA,NA,NA,NA,NA,NA,NA,NA
"236","stim/objects/Instruments/doublebass.png",136,80,136,0.7,"stim/34.jpeg",3,4,2,NA,"Instruments",2,4,"right","right",0.907000065,1,1,0,1,NA,NA,NA,NA,NA,NA,NA,NA,NA,NA,NA,NA,NA,NA,NA,NA,NA,NA,NA,NA,NA,NA,NA,NA
"21","stim/objects/HouseObjects/ballofstring2.png",137,80,137,0.7,"stim/42.jpeg",4,2,2,NA,"HouseObjects",1,4,"left","left",0.586999893,1,1,0,1,NA,NA,NA,NA,NA,NA,NA,NA,NA,NA,NA,NA,NA,NA,NA,NA,NA,NA,NA,NA,NA,NA,NA,NA
"240","stim/objects/Instruments/doublebass2.png",138,80,138,0.1,"stim/64.jpeg",6,4,3,NA,"Instruments",2,3,"right","left",0.748000145,0,0,0,1,NA,NA,NA,NA,NA,NA,NA,NA,NA,NA,NA,NA,NA,NA,NA,NA,NA,NA,NA,NA,NA,NA,NA,NA
"182","stim/objects/Instruments/cello.png",139,80,139,0.5,"stim/23.jpeg",2,3,1,NA,"Instruments",2,4,"right","right",0.913999796,1,1,0,1,NA,NA,NA,NA,NA,NA,NA,NA,NA,NA,NA,NA,NA,NA,NA,NA,NA,NA,NA,NA,NA,NA,NA,NA
"22","stim/objects/HouseObjects/ballofstring2.png",140,80,140,0.7,"stim/42.jpeg",4,2,2,NA,"HouseObjects",1,3,"left","left",0.505999804,1,1,0,1,NA,NA,NA,NA,NA,NA,NA,NA,NA,NA,NA,NA,NA,NA,NA,NA,NA,NA,NA,NA,NA,NA,NA,NA
"157","stim/objects/Instruments/bassdrum.png",141,80,141,0.5,"stim/21.jpeg",2,1,1,NA,"Instruments",2,1,"right","left",0.467000008,0,0,0,1,NA,NA,NA,NA,NA,NA,NA,NA,NA,NA,NA,NA,NA,NA,NA,NA,NA,NA,NA,NA,NA,NA,NA,NA
"164","stim/objects/Instruments/bassdrum2.png",142,80,142,0.9,"stim/51.jpeg",5,1,3,NA,"Instruments",2,1,"right","right",0.618999958,1,1,0,1,NA,NA,NA,NA,NA,NA,NA,NA,NA,NA,NA,NA,NA,NA,NA,NA,NA,NA,NA,NA,NA,NA,NA,NA
"237","stim/objects/Instruments/doublebass.png",143,80,143,0.7,"stim/34.jpeg",3,4,2,NA,"Instruments",2,4,"right","left",0.662000179,0,0,0,1,NA,NA,NA,NA,NA,NA,NA,NA,NA,NA,NA,NA,NA,NA,NA,NA,NA,NA,NA,NA,NA,NA,NA,NA
"15","stim/objects/HouseObjects/ballofstring.png",144,80,144,0.5,"stim/12.jpeg",1,2,1,NA,"HouseObjects",1,1,"left","right",0.787999868,0,0,0,1,NA,NA,NA,NA,NA,NA,NA,NA,NA,NA,NA,NA,NA,NA,NA,NA,NA,NA,NA,NA,NA,NA,NA,NA
"106","stim/objects/HouseObjects/clothesdryingrack2.png",145,80,145,0.9,"stim/63.jpeg",6,3,3,NA,"HouseObjects",1,3,"left","right",0.757999897,0,0,0,1,NA,NA,NA,NA,NA,NA,NA,NA,NA,NA,NA,NA,NA,NA,NA,NA,NA,NA,NA,NA,NA,NA,NA,NA
"8","stim/objects/HouseObjects/ashtray2.png",146,80,146,0.7,"stim/41.jpeg",4,1,2,NA,"HouseObjects",1,2,"left","left",0.846000195,1,1,0,1,NA,NA,NA,NA,NA,NA,NA,NA,NA,NA,NA,NA,NA,NA,NA,NA,NA,NA,NA,NA,NA,NA,NA,NA
"238","stim/objects/Instruments/doublebass.png",147,80,147,0.7,"stim/34.jpeg",3,4,2,NA,"Instruments",2,3,"right","right",0.799000025,1,1,0,1,NA,NA,NA,NA,NA,NA,NA,NA,NA,NA,NA,NA,NA,NA,NA,NA,NA,NA,NA,NA,NA,NA,NA,NA
"82","stim/objects/HouseObjects/bucket2.png",148,80,148,0.9,"stim/61.jpeg",6,1,3,NA,"HouseObjects",1,2,"left","left",0.595999956,1,1,0,1,NA,NA,NA,NA,NA,NA,NA,NA,NA,NA,NA,NA,NA,NA,NA,NA,NA,NA,NA,NA,NA,NA,NA,NA
"178","stim/objects/Instruments/bassguitar2.png",149,80,149,0.9,"stim/52.jpeg",5,2,3,NA,"Instruments",2,3,"right","right",0.518999815,1,1,0,1,NA,NA,NA,NA,NA,NA,NA,NA,NA,NA,NA,NA,NA,NA,NA,NA,NA,NA,NA,NA,NA,NA,NA,NA
"92","stim/objects/HouseObjects/clock2.png",150,80,150,0.9,"stim/62.jpeg",6,2,3,NA,"HouseObjects",1,1,"left","left",0.502000093,1,1,0,1,NA,NA,NA,NA,NA,NA,NA,NA,NA,NA,NA,NA,NA,NA,NA,NA,NA,NA,NA,NA,NA,NA,NA,NA
"143","stim/objects/Instruments/balalaika2.png",151,80,151,0.3,"stim/43.jpeg",4,3,2,NA,"Instruments",2,2,"right","left",0.898000002,0,0,0,1,NA,NA,NA,NA,NA,NA,NA,NA,NA,NA,NA,NA,NA,NA,NA,NA,NA,NA,NA,NA,NA,NA,NA,NA
"93","stim/objects/HouseObjects/clock2.png",152,80,152,0.9,"stim/62.jpeg",6,2,3,NA,"HouseObjects",1,3,"left","left",0.624000072,1,1,0,1,NA,NA,NA,NA,NA,NA,NA,NA,NA,NA,NA,NA,NA,NA,NA,NA,NA,NA,NA,NA,NA,NA,NA,NA
"83","stim/objects/HouseObjects/bucket2.png",153,80,153,0.9,"stim/61.jpeg",6,1,3,NA,"HouseObjects",1,2,"left","left",0.527000189,1,1,0,1,NA,NA,NA,NA,NA,NA,NA,NA,NA,NA,NA,NA,NA,NA,NA,NA,NA,NA,NA,NA,NA,NA,NA,NA
"74","stim/objects/HouseObjects/bucket.png",154,80,154,0.3,"stim/31.jpeg",3,1,2,NA,"HouseObjects",1,1,"left","left",0.443000078,1,1,0,1,NA,NA,NA,NA,NA,NA,NA,NA,NA,NA,NA,NA,NA,NA,NA,NA,NA,NA,NA,NA,NA,NA,NA,NA
"179","stim/objects/Instruments/bassguitar2.png",155,80,155,0.9,"stim/52.jpeg",5,2,3,NA,"Instruments",2,1,"right","left",0.427999973,0,0,0,1,NA,NA,NA,NA,NA,NA,NA,NA,NA,NA,NA,NA,NA,NA,NA,NA,NA,NA,NA,NA,NA,NA,NA,NA
"40","stim/objects/HouseObjects/basket.png",156,80,156,0.5,"stim/14.jpeg",1,4,1,NA,"HouseObjects",1,3,"left","right",0.707999945,0,0,0,1,NA,NA,NA,NA,NA,NA,NA,NA,NA,NA,NA,NA,NA,NA,NA,NA,NA,NA,NA,NA,NA,NA,NA,NA
"180","stim/objects/Instruments/bassguitar2.png",157,80,157,0.9,"stim/52.jpeg",5,2,3,NA,"Instruments",2,3,"right","right",0.588999987,1,1,0,1,NA,NA,NA,NA,NA,NA,NA,NA,NA,NA,NA,NA,NA,NA,NA,NA,NA,NA,NA,NA,NA,NA,NA,NA
"33","stim/objects/HouseObjects/barbecuelighter2.png",158,80,158,0.7,"stim/43.jpeg",4,3,2,NA,"HouseObjects",1,1,"left","left",0.796000004,1,1,0,1,NA,NA,NA,NA,NA,NA,NA,NA,NA,NA,NA,NA,NA,NA,NA,NA,NA,NA,NA,NA,NA,NA,NA,NA
"99","stim/objects/HouseObjects/clothesdryingrack.png",159,80,159,0.3,"stim/33.jpeg",3,3,2,NA,"HouseObjects",1,4,"left","right",0.837000132,0,0,0,1,NA,NA,NA,NA,NA,NA,NA,NA,NA,NA,NA,NA,NA,NA,NA,NA,NA,NA,NA,NA,NA,NA,NA,NA
"2","stim/objects/HouseObjects/ashtray.png",160,80,160,0.5,"stim/11.jpeg",1,1,1,NA,"HouseObjects",1,4,"left","",NA,0,0,0,1,NA,NA,NA,NA,NA,NA,NA,NA,NA,NA,NA,NA,NA,NA,NA,NA,NA,NA,NA,NA,NA,NA,NA,NA
"192","stim/objects/Instruments/cello2.png",161,80,161,0.9,"stim/53.jpeg",5,3,3,NA,"Instruments",2,2,"right","right",0.656000137,1,1,0,1,NA,NA,NA,NA,NA,NA,NA,NA,NA,NA,NA,NA,NA,NA,NA,NA,NA,NA,NA,NA,NA,NA,NA,NA
"183","stim/objects/Instruments/cello.png",162,80,162,0.5,"stim/23.jpeg",2,3,1,NA,"Instruments",2,4,"right","left",0.620000124,0,0,0,1,NA,NA,NA,NA,NA,NA,NA,NA,NA,NA,NA,NA,NA,NA,NA,NA,NA,NA,NA,NA,NA,NA,NA,NA
"196","stim/objects/Instruments/chime.png",163,80,163,0.5,"stim/24.jpeg",2,4,1,NA,"Instruments",2,1,"right","right",0.711999893,1,1,0,1,NA,NA,NA,NA,NA,NA,NA,NA,NA,NA,NA,NA,NA,NA,NA,NA,NA,NA,NA,NA,NA,NA,NA,NA
"140","stim/objects/Instruments/balalaika.png",164,80,164,0.5,"stim/13.jpeg",1,3,1,NA,"Instruments",2,4,"right","right",0.532999992,1,1,0,1,NA,NA,NA,NA,NA,NA,NA,NA,NA,NA,NA,NA,NA,NA,NA,NA,NA,NA,NA,NA,NA,NA,NA,NA
"144","stim/objects/Instruments/balalaika2.png",165,80,165,0.3,"stim/43.jpeg",4,3,2,NA,"Instruments",2,1,"right","right",0.672999859,1,1,0,1,NA,NA,NA,NA,NA,NA,NA,NA,NA,NA,NA,NA,NA,NA,NA,NA,NA,NA,NA,NA,NA,NA,NA,NA
"23","stim/objects/HouseObjects/ballofstring2.png",166,80,166,0.7,"stim/42.jpeg",4,2,2,NA,"HouseObjects",1,2,"left","left",0.587000132,1,1,0,1,NA,NA,NA,NA,NA,NA,NA,NA,NA,NA,NA,NA,NA,NA,NA,NA,NA,NA,NA,NA,NA,NA,NA,NA
"151","stim/objects/Instruments/banjo2.png",167,80,167,0.3,"stim/44.jpeg",4,4,2,NA,"Instruments",2,4,"right","left",0.649999857,0,0,0,1,NA,NA,NA,NA,NA,NA,NA,NA,NA,NA,NA,NA,NA,NA,NA,NA,NA,NA,NA,NA,NA,NA,NA,NA
"229","stim/objects/Instruments/cymbal.png",168,80,168,0.7,"stim/33.jpeg",3,3,2,NA,"Instruments",2,2,"right","right",0.725000143,1,1,0,1,NA,NA,NA,NA,NA,NA,NA,NA,NA,NA,NA,NA,NA,NA,NA,NA,NA,NA,NA,NA,NA,NA,NA,NA
"27","stim/objects/HouseObjects/barbecuelighter.png",169,80,169,0.5,"stim/13.jpeg",1,3,1,NA,"HouseObjects",1,1,"left","right",0.611999989,0,0,0,1,NA,NA,NA,NA,NA,NA,NA,NA,NA,NA,NA,NA,NA,NA,NA,NA,NA,NA,NA,NA,NA,NA,NA,NA
"94","stim/objects/HouseObjects/clock2.png",170,80,170,0.9,"stim/62.jpeg",6,2,3,NA,"HouseObjects",1,4,"left","left",0.5849998,1,1,0,1,NA,NA,NA,NA,NA,NA,NA,NA,NA,NA,NA,NA,NA,NA,NA,NA,NA,NA,NA,NA,NA,NA,NA,NA
"64","stim/objects/HouseObjects/bottle.png",171,80,171,0.5,"stim/23.jpeg",2,3,1,NA,"HouseObjects",1,1,"left","left",0.608999968,1,1,0,1,NA,NA,NA,NA,NA,NA,NA,NA,NA,NA,NA,NA,NA,NA,NA,NA,NA,NA,NA,NA,NA,NA,NA,NA
"136","stim/objects/Instruments/acousticguitar2.png",172,80,172,0.3,"stim/42.jpeg",4,2,2,NA,"Instruments",2,3,"right","left",0.612999916,0,0,0,1,NA,NA,NA,NA,NA,NA,NA,NA,NA,NA,NA,NA,NA,NA,NA,NA,NA,NA,NA,NA,NA,NA,NA,NA
"9","stim/objects/HouseObjects/ashtray2.png",173,80,173,0.7,"stim/41.jpeg",4,1,2,NA,"HouseObjects",1,4,"left","left",0.670000076,1,1,0,1,NA,NA,NA,NA,NA,NA,NA,NA,NA,NA,NA,NA,NA,NA,NA,NA,NA,NA,NA,NA,NA,NA,NA,NA
"203","stim/objects/Instruments/chime2.png",174,80,174,0.9,"stim/54.jpeg",5,4,3,NA,"Instruments",2,3,"right","right",0.697999954,1,1,0,1,NA,NA,NA,NA,NA,NA,NA,NA,NA,NA,NA,NA,NA,NA,NA,NA,NA,NA,NA,NA,NA,NA,NA,NA
"28","stim/objects/HouseObjects/barbecuelighter.png",175,80,175,0.5,"stim/13.jpeg",1,3,1,NA,"HouseObjects",1,3,"left","right",0.74000001,0,0,0,1,NA,NA,NA,NA,NA,NA,NA,NA,NA,NA,NA,NA,NA,NA,NA,NA,NA,NA,NA,NA,NA,NA,NA,NA
"204","stim/objects/Instruments/chime2.png",176,80,176,0.9,"stim/54.jpeg",5,4,3,NA,"Instruments",2,3,"right","right",0.583999872,1,1,0,1,NA,NA,NA,NA,NA,NA,NA,NA,NA,NA,NA,NA,NA,NA,NA,NA,NA,NA,NA,NA,NA,NA,NA,NA
"214","stim/objects/Instruments/clarinet.png",177,80,177,0.7,"stim/31.jpeg",3,1,2,NA,"Instruments",2,4,"right","",NA,0,0,0,1,NA,NA,NA,NA,NA,NA,NA,NA,NA,NA,NA,NA,NA,NA,NA,NA,NA,NA,NA,NA,NA,NA,NA,NA
"215","stim/objects/Instruments/clarinet.png",178,80,178,0.7,"stim/31.jpeg",3,1,2,NA,"Instruments",2,1,"right","right",0.612999916,1,1,0,1,NA,NA,NA,NA,NA,NA,NA,NA,NA,NA,NA,NA,NA,NA,NA,NA,NA,NA,NA,NA,NA,NA,NA,NA
"3","stim/objects/HouseObjects/ashtray.png",179,80,179,0.5,"stim/11.jpeg",1,1,1,NA,"HouseObjects",1,2,"left","right",0.715999842,0,0,0,1,NA,NA,NA,NA,NA,NA,NA,NA,NA,NA,NA,NA,NA,NA,NA,NA,NA,NA,NA,NA,NA,NA,NA,NA
"41","stim/objects/HouseObjects/basket.png",180,80,180,0.5,"stim/14.jpeg",1,4,1,NA,"HouseObjects",1,2,"left","left",0.469000101,1,1,0,1,NA,NA,NA,NA,NA,NA,NA,NA,NA,NA,NA,NA,NA,NA,NA,NA,NA,NA,NA,NA,NA,NA,NA,NA
"197","stim/objects/Instruments/chime.png",181,80,181,0.5,"stim/24.jpeg",2,4,1,NA,"Instruments",2,1,"right","left",0.697000027,0,0,0,1,NA,NA,NA,NA,NA,NA,NA,NA,NA,NA,NA,NA,NA,NA,NA,NA,NA,NA,NA,NA,NA,NA,NA,NA
"230","stim/objects/Instruments/cymbal.png",182,80,182,0.7,"stim/33.jpeg",3,3,2,NA,"Instruments",2,1,"right","right",0.753999949,1,1,0,1,NA,NA,NA,NA,NA,NA,NA,NA,NA,NA,NA,NA,NA,NA,NA,NA,NA,NA,NA,NA,NA,NA,NA,NA
"29","stim/objects/HouseObjects/barbecuelighter.png",183,80,183,0.5,"stim/13.jpeg",1,3,1,NA,"HouseObjects",1,3,"left","left",0.752000093,1,1,0,1,NA,NA,NA,NA,NA,NA,NA,NA,NA,NA,NA,NA,NA,NA,NA,NA,NA,NA,NA,NA,NA,NA,NA,NA
"34","stim/objects/HouseObjects/barbecuelighter2.png",184,80,184,0.7,"stim/43.jpeg",4,3,2,NA,"HouseObjects",1,2,"left","",NA,0,0,0,1,NA,NA,NA,NA,NA,NA,NA,NA,NA,NA,NA,NA,NA,NA,NA,NA,NA,NA,NA,NA,NA,NA,NA,NA
"149","stim/objects/Instruments/banjo.png",185,80,185,0.5,"stim/14.jpeg",1,4,1,NA,"Instruments",2,2,"right","left",0.524000168,0,0,0,1,NA,NA,NA,NA,NA,NA,NA,NA,NA,NA,NA,NA,NA,NA,NA,NA,NA,NA,NA,NA,NA,NA,NA,NA
"118","stim/objects/HouseObjects/clothespin2.png",186,80,186,0.9,"stim/64.jpeg",6,4,3,NA,"HouseObjects",1,1,"left","left",0.528000116,1,1,0,1,NA,NA,NA,NA,NA,NA,NA,NA,NA,NA,NA,NA,NA,NA,NA,NA,NA,NA,NA,NA,NA,NA,NA,NA
"10","stim/objects/HouseObjects/ashtray2.png",187,80,187,0.7,"stim/41.jpeg",4,1,2,NA,"HouseObjects",1,4,"left","left",0.650000095,1,1,0,1,NA,NA,NA,NA,NA,NA,NA,NA,NA,NA,NA,NA,NA,NA,NA,NA,NA,NA,NA,NA,NA,NA,NA,NA
"72","stim/objects/HouseObjects/broom2.png",188,80,188,0.1,"stim/54.jpeg",5,4,3,NA,"HouseObjects",1,4,"left","right",0.75999999,0,0,0,1,NA,NA,NA,NA,NA,NA,NA,NA,NA,NA,NA,NA,NA,NA,NA,NA,NA,NA,NA,NA,NA,NA,NA,NA
"107","stim/objects/HouseObjects/clothesdryingrack2.png",189,80,189,0.9,"stim/63.jpeg",6,3,3,NA,"HouseObjects",1,1,"left","left",0.539999962,1,1,0,1,NA,NA,NA,NA,NA,NA,NA,NA,NA,NA,NA,NA,NA,NA,NA,NA,NA,NA,NA,NA,NA,NA,NA,NA
"125","stim/objects/Instruments/accordion.png",190,80,190,0.5,"stim/11.jpeg",1,1,1,NA,"Instruments",2,2,"right","right",0.654000044,1,1,0,1,NA,NA,NA,NA,NA,NA,NA,NA,NA,NA,NA,NA,NA,NA,NA,NA,NA,NA,NA,NA,NA,NA,NA,NA
"46","stim/objects/HouseObjects/basket2.png",191,80,191,0.7,"stim/44.jpeg",4,4,2,NA,"HouseObjects",1,3,"left","left",0.601999998,1,1,0,1,NA,NA,NA,NA,NA,NA,NA,NA,NA,NA,NA,NA,NA,NA,NA,NA,NA,NA,NA,NA,NA,NA,NA,NA
"132","stim/objects/Instruments/acousticguitar.png",192,80,192,0.5,"stim/12.jpeg",1,2,1,NA,"Instruments",2,3,"right","right",0.843999863,1,1,0,1,NA,NA,NA,NA,NA,NA,NA,NA,NA,NA,NA,NA,NA,NA,NA,NA,NA,NA,NA,NA,NA,NA,NA,NA
"4","stim/objects/HouseObjects/ashtray.png",193,80,193,0.5,"stim/11.jpeg",1,1,1,NA,"HouseObjects",1,2,"left","left",0.92599988,1,1,0,1,NA,NA,NA,NA,NA,NA,NA,NA,NA,NA,NA,NA,NA,NA,NA,NA,NA,NA,NA,NA,NA,NA,NA,NA
"239","stim/objects/Instruments/doublebass.png",194,80,194,0.7,"stim/34.jpeg",3,4,2,NA,"Instruments",2,3,"right","right",0.670000076,1,1,0,1,NA,NA,NA,NA,NA,NA,NA,NA,NA,NA,NA,NA,NA,NA,NA,NA,NA,NA,NA,NA,NA,NA,NA,NA
"193","stim/objects/Instruments/cello2.png",195,80,195,0.9,"stim/53.jpeg",5,3,3,NA,"Instruments",2,1,"right","right",0.568000078,1,1,0,1,NA,NA,NA,NA,NA,NA,NA,NA,NA,NA,NA,NA,NA,NA,NA,NA,NA,NA,NA,NA,NA,NA,NA,NA
"119","stim/objects/HouseObjects/clothespin2.png",196,80,196,0.9,"stim/64.jpeg",6,4,3,NA,"HouseObjects",1,3,"left","left",0.541999817,1,1,0,1,NA,NA,NA,NA,NA,NA,NA,NA,NA,NA,NA,NA,NA,NA,NA,NA,NA,NA,NA,NA,NA,NA,NA,NA
"75","stim/objects/HouseObjects/bucket.png",197,80,197,0.3,"stim/31.jpeg",3,1,2,NA,"HouseObjects",1,3,"left","right",0.839999914,0,0,0,1,NA,NA,NA,NA,NA,NA,NA,NA,NA,NA,NA,NA,NA,NA,NA,NA,NA,NA,NA,NA,NA,NA,NA,NA
"198","stim/objects/Instruments/chime.png",198,80,198,0.5,"stim/24.jpeg",2,4,1,NA,"Instruments",2,1,"right","left",0.635999918,0,0,0,1,NA,NA,NA,NA,NA,NA,NA,NA,NA,NA,NA,NA,NA,NA,NA,NA,NA,NA,NA,NA,NA,NA,NA,NA
"52","stim/objects/HouseObjects/bleachbottle.png",199,80,199,0.5,"stim/21.jpeg",2,1,1,NA,"HouseObjects",1,1,"left","",NA,0,0,0,1,NA,NA,NA,NA,NA,NA,NA,NA,NA,NA,NA,NA,NA,NA,NA,NA,NA,NA,NA,NA,NA,NA,NA,NA
"133","stim/objects/Instruments/acousticguitar.png",200,80,200,0.5,"stim/12.jpeg",1,2,1,NA,"Instruments",2,2,"right","",NA,0,0,0,1,NA,NA,NA,NA,NA,NA,NA,NA,NA,NA,NA,NA,NA,NA,NA,NA,NA,NA,NA,NA,NA,NA,NA,NA
"35","stim/objects/HouseObjects/barbecuelighter2.png",201,80,201,0.7,"stim/43.jpeg",4,3,2,NA,"HouseObjects",1,4,"left","left",0.566999912,1,1,0,1,NA,NA,NA,NA,NA,NA,NA,NA,NA,NA,NA,NA,NA,NA,NA,NA,NA,NA,NA,NA,NA,NA,NA,NA
"205","stim/objects/Instruments/chime2.png",202,80,202,0.9,"stim/54.jpeg",5,4,3,NA,"Instruments",2,1,"right","right",0.631000042,1,1,0,1,NA,NA,NA,NA,NA,NA,NA,NA,NA,NA,NA,NA,NA,NA,NA,NA,NA,NA,NA,NA,NA,NA,NA,NA
"24","stim/objects/HouseObjects/ballofstring2.png",203,80,203,0.7,"stim/42.jpeg",4,2,2,NA,"HouseObjects",1,2,"left","left",0.697000027,1,1,0,1,NA,NA,NA,NA,NA,NA,NA,NA,NA,NA,NA,NA,NA,NA,NA,NA,NA,NA,NA,NA,NA,NA,NA,NA
"220","stim/objects/Instruments/cornet.png",204,80,204,0.7,"stim/32.jpeg",3,2,2,NA,"Instruments",2,2,"right","",NA,0,0,0,1,NA,NA,NA,NA,NA,NA,NA,NA,NA,NA,NA,NA,NA,NA,NA,NA,NA,NA,NA,NA,NA,NA,NA,NA
"11","stim/objects/HouseObjects/ashtray2.png",205,80,205,0.7,"stim/41.jpeg",4,1,2,NA,"HouseObjects",1,4,"left","left",0.579999924,1,1,0,1,NA,NA,NA,NA,NA,NA,NA,NA,NA,NA,NA,NA,NA,NA,NA,NA,NA,NA,NA,NA,NA,NA,NA,NA
"206","stim/objects/Instruments/chime2.png",206,80,206,0.9,"stim/54.jpeg",5,4,3,NA,"Instruments",2,2,"right","right",0.56099987,1,1,0,1,NA,NA,NA,NA,NA,NA,NA,NA,NA,NA,NA,NA,NA,NA,NA,NA,NA,NA,NA,NA,NA,NA,NA,NA
"59","stim/objects/HouseObjects/blender.png",207,80,207,0.5,"stim/22.jpeg",2,2,1,NA,"HouseObjects",1,4,"left","left",0.747999907,1,1,0,1,NA,NA,NA,NA,NA,NA,NA,NA,NA,NA,NA,NA,NA,NA,NA,NA,NA,NA,NA,NA,NA,NA,NA,NA
"111","stim/objects/HouseObjects/clothespin.png",208,80,208,0.3,"stim/34.jpeg",3,4,2,NA,"HouseObjects",1,1,"left","left",0.712000132,1,1,0,1,NA,NA,NA,NA,NA,NA,NA,NA,NA,NA,NA,NA,NA,NA,NA,NA,NA,NA,NA,NA,NA,NA,NA,NA
"194","stim/objects/Instruments/cello2.png",209,80,209,0.9,"stim/53.jpeg",5,3,3,NA,"Instruments",2,1,"right","right",0.637000084,1,1,0,1,NA,NA,NA,NA,NA,NA,NA,NA,NA,NA,NA,NA,NA,NA,NA,NA,NA,NA,NA,NA,NA,NA,NA,NA
"171","stim/objects/Instruments/bassguitar.png",210,80,210,0.5,"stim/22.jpeg",2,2,1,NA,"Instruments",2,1,"right","left",0.677999973,0,0,0,1,NA,NA,NA,NA,NA,NA,NA,NA,NA,NA,NA,NA,NA,NA,NA,NA,NA,NA,NA,NA,NA,NA,NA,NA
"120","stim/objects/HouseObjects/clothespin2.png",211,80,211,0.9,"stim/64.jpeg",6,4,3,NA,"HouseObjects",1,1,"left","left",0.748000145,1,1,0,1,NA,NA,NA,NA,NA,NA,NA,NA,NA,NA,NA,NA,NA,NA,NA,NA,NA,NA,NA,NA,NA,NA,NA,NA
"207","stim/objects/Instruments/chime2.png",212,80,212,0.9,"stim/54.jpeg",5,4,3,NA,"Instruments",2,4,"right","right",0.878000021,1,1,0,1,NA,NA,NA,NA,NA,NA,NA,NA,NA,NA,NA,NA,NA,NA,NA,NA,NA,NA,NA,NA,NA,NA,NA,NA
"108","stim/objects/HouseObjects/clothesdryingrack2.png",213,80,213,0.9,"stim/63.jpeg",6,3,3,NA,"HouseObjects",1,2,"left","left",0.542999983,1,1,0,1,NA,NA,NA,NA,NA,NA,NA,NA,NA,NA,NA,NA,NA,NA,NA,NA,NA,NA,NA,NA,NA,NA,NA,NA
"54","stim/objects/HouseObjects/bleachbottle2.png",214,80,214,0.1,"stim/51.jpeg",5,1,3,NA,"HouseObjects",1,1,"left","right",0.585999966,0,0,0,1,NA,NA,NA,NA,NA,NA,NA,NA,NA,NA,NA,NA,NA,NA,NA,NA,NA,NA,NA,NA,NA,NA,NA,NA
"47","stim/objects/HouseObjects/basket2.png",215,80,215,0.7,"stim/44.jpeg",4,4,2,NA,"HouseObjects",1,4,"left","",NA,0,0,0,1,NA,NA,NA,NA,NA,NA,NA,NA,NA,NA,NA,NA,NA,NA,NA,NA,NA,NA,NA,NA,NA,NA,NA,NA
"221","stim/objects/Instruments/cornet.png",216,80,216,0.7,"stim/32.jpeg",3,2,2,NA,"Instruments",2,1,"right","left",0.544000149,0,0,0,1,NA,NA,NA,NA,NA,NA,NA,NA,NA,NA,NA,NA,NA,NA,NA,NA,NA,NA,NA,NA,NA,NA,NA,NA
"71","stim/objects/HouseObjects/broom.png",217,80,217,0.5,"stim/24.jpeg",2,4,1,NA,"HouseObjects",1,4,"left","right",0.905999899,0,0,0,1,NA,NA,NA,NA,NA,NA,NA,NA,NA,NA,NA,NA,NA,NA,NA,NA,NA,NA,NA,NA,NA,NA,NA,NA
"141","stim/objects/Instruments/balalaika.png",218,80,218,0.5,"stim/13.jpeg",1,3,1,NA,"Instruments",2,2,"right","left",0.755999804,0,0,0,1,NA,NA,NA,NA,NA,NA,NA,NA,NA,NA,NA,NA,NA,NA,NA,NA,NA,NA,NA,NA,NA,NA,NA,NA
"231","stim/objects/Instruments/cymbal.png",219,80,219,0.7,"stim/33.jpeg",3,3,2,NA,"Instruments",2,3,"right","",NA,0,0,0,1,NA,NA,NA,NA,NA,NA,NA,NA,NA,NA,NA,NA,NA,NA,NA,NA,NA,NA,NA,NA,NA,NA,NA,NA
"165","stim/objects/Instruments/bassdrum2.png",220,80,220,0.9,"stim/51.jpeg",5,1,3,NA,"Instruments",2,4,"right","right",0.496000051,1,1,0,1,NA,NA,NA,NA,NA,NA,NA,NA,NA,NA,NA,NA,NA,NA,NA,NA,NA,NA,NA,NA,NA,NA,NA,NA
"65","stim/objects/HouseObjects/bottle.png",221,80,221,0.5,"stim/23.jpeg",2,3,1,NA,"HouseObjects",1,1,"left","left",0.61500001,1,1,0,1,NA,NA,NA,NA,NA,NA,NA,NA,NA,NA,NA,NA,NA,NA,NA,NA,NA,NA,NA,NA,NA,NA,NA,NA
"95","stim/objects/HouseObjects/clock2.png",222,80,222,0.9,"stim/62.jpeg",6,2,3,NA,"HouseObjects",1,3,"left","left",0.440999985,1,1,0,1,NA,NA,NA,NA,NA,NA,NA,NA,NA,NA,NA,NA,NA,NA,NA,NA,NA,NA,NA,NA,NA,NA,NA,NA
"12","stim/objects/HouseObjects/ashtray2.png",223,80,223,0.7,"stim/41.jpeg",4,1,2,NA,"HouseObjects",1,2,"left","right",0.609999895,0,0,0,1,NA,NA,NA,NA,NA,NA,NA,NA,NA,NA,NA,NA,NA,NA,NA,NA,NA,NA,NA,NA,NA,NA,NA,NA
"84","stim/objects/HouseObjects/bucket2.png",224,80,224,0.9,"stim/61.jpeg",6,1,3,NA,"HouseObjects",1,1,"left","left",0.523999929,1,1,0,1,NA,NA,NA,NA,NA,NA,NA,NA,NA,NA,NA,NA,NA,NA,NA,NA,NA,NA,NA,NA,NA,NA,NA,NA
"222","stim/objects/Instruments/cornet.png",225,80,225,0.7,"stim/32.jpeg",3,2,2,NA,"Instruments",2,4,"right","right",0.447000027,1,1,0,1,NA,NA,NA,NA,NA,NA,NA,NA,NA,NA,NA,NA,NA,NA,NA,NA,NA,NA,NA,NA,NA,NA,NA,NA
"36","stim/objects/HouseObjects/barbecuelighter2.png",226,80,226,0.7,"stim/43.jpeg",4,3,2,NA,"HouseObjects",1,4,"left","left",0.614000082,1,1,0,1,NA,NA,NA,NA,NA,NA,NA,NA,NA,NA,NA,NA,NA,NA,NA,NA,NA,NA,NA,NA,NA,NA,NA,NA
"96","stim/objects/HouseObjects/clock2.png",227,80,227,0.9,"stim/62.jpeg",6,2,3,NA,"HouseObjects",1,4,"left","left",0.498999834,1,1,0,1,NA,NA,NA,NA,NA,NA,NA,NA,NA,NA,NA,NA,NA,NA,NA,NA,NA,NA,NA,NA,NA,NA,NA,NA
"48","stim/objects/HouseObjects/basket2.png",228,80,228,0.7,"stim/44.jpeg",4,4,2,NA,"HouseObjects",1,3,"left","left",0.582000017,1,1,0,1,NA,NA,NA,NA,NA,NA,NA,NA,NA,NA,NA,NA,NA,NA,NA,NA,NA,NA,NA,NA,NA,NA,NA,NA
"199","stim/objects/Instruments/chime.png",229,80,229,0.5,"stim/24.jpeg",2,4,1,NA,"Instruments",2,4,"right","left",0.74000001,0,0,0,1,NA,NA,NA,NA,NA,NA,NA,NA,NA,NA,NA,NA,NA,NA,NA,NA,NA,NA,NA,NA,NA,NA,NA,NA
"166","stim/objects/Instruments/bassdrum2.png",230,80,230,0.9,"stim/51.jpeg",5,1,3,NA,"Instruments",2,1,"right","right",0.529000044,1,1,0,1,NA,NA,NA,NA,NA,NA,NA,NA,NA,NA,NA,NA,NA,NA,NA,NA,NA,NA,NA,NA,NA,NA,NA,NA
"152","stim/objects/Instruments/banjo2.png",231,80,231,0.3,"stim/44.jpeg",4,4,2,NA,"Instruments",2,1,"right","left",0.715999842,0,0,0,1,NA,NA,NA,NA,NA,NA,NA,NA,NA,NA,NA,NA,NA,NA,NA,NA,NA,NA,NA,NA,NA,NA,NA,NA
"208","stim/objects/Instruments/chime2.png",232,80,232,0.9,"stim/54.jpeg",5,4,3,NA,"Instruments",2,4,"right","right",0.727999926,1,1,0,1,NA,NA,NA,NA,NA,NA,NA,NA,NA,NA,NA,NA,NA,NA,NA,NA,NA,NA,NA,NA,NA,NA,NA,NA
"184","stim/objects/Instruments/cello.png",233,80,233,0.5,"stim/23.jpeg",2,3,1,NA,"Instruments",2,4,"right","left",0.59100008,0,0,0,1,NA,NA,NA,NA,NA,NA,NA,NA,NA,NA,NA,NA,NA,NA,NA,NA,NA,NA,NA,NA,NA,NA,NA,NA
"223","stim/objects/Instruments/cornet.png",234,80,234,0.7,"stim/32.jpeg",3,2,2,NA,"Instruments",2,3,"right","right",0.92599988,1,1,0,1,NA,NA,NA,NA,NA,NA,NA,NA,NA,NA,NA,NA,NA,NA,NA,NA,NA,NA,NA,NA,NA,NA,NA,NA
"16","stim/objects/HouseObjects/ballofstring.png",235,80,235,0.5,"stim/12.jpeg",1,2,1,NA,"HouseObjects",1,2,"left","left",0.588000059,1,1,0,1,NA,NA,NA,NA,NA,NA,NA,NA,NA,NA,NA,NA,NA,NA,NA,NA,NA,NA,NA,NA,NA,NA,NA,NA
"53","stim/objects/HouseObjects/bleachbottle.png",236,80,236,0.5,"stim/21.jpeg",2,1,1,NA,"HouseObjects",1,4,"left","left",0.636999846,1,1,0,1,NA,NA,NA,NA,NA,NA,NA,NA,NA,NA,NA,NA,NA,NA,NA,NA,NA,NA,NA,NA,NA,NA,NA,NA
"224","stim/objects/Instruments/cornet2.png",237,80,237,0.1,"stim/62.jpeg",6,2,3,NA,"Instruments",2,1,"right","left",0.539000034,0,0,0,1,NA,NA,NA,NA,NA,NA,NA,NA,NA,NA,NA,NA,NA,NA,NA,NA,NA,NA,NA,NA,NA,NA,NA,NA
"5","stim/objects/HouseObjects/ashtray.png",238,80,238,0.5,"stim/11.jpeg",1,1,1,NA,"HouseObjects",1,2,"left","",NA,0,0,0,1,NA,NA,NA,NA,NA,NA,NA,NA,NA,NA,NA,NA,NA,NA,NA,NA,NA,NA,NA,NA,NA,NA,NA,NA
"185","stim/objects/Instruments/cello.png",239,80,239,0.5,"stim/23.jpeg",2,3,1,NA,"Instruments",2,3,"right","",NA,0,0,0,1,NA,NA,NA,NA,NA,NA,NA,NA,NA,NA,NA,NA,NA,NA,NA,NA,NA,NA,NA,NA,NA,NA,NA,NA
"17","stim/objects/HouseObjects/ballofstring.png",240,80,240,0.5,"stim/12.jpeg",1,2,1,NA,"HouseObjects",1,4,"left","right",0.623999834,0,0,0,1,NA,NA,NA,NA,NA,NA,NA,NA,NA,NA,NA,NA,NA,NA,NA,NA,NA,NA,NA,NA,NA,NA,NA,NA
"507","stim/objects/Instruments/musicstand.png",248,80,241,0.9,"stim/53.jpeg",5,3,3,2,"Instruments",2,1,"right","right",0.569999933,1,1,1,0,NA,NA,NA,NA,NA,NA,NA,NA,NA,NA,NA,NA,NA,NA,NA,NA,NA,NA,NA,NA,NA,NA,NA,NA
"562","stim/objects/Instruments/trumpet2.png",249,80,242,0.1,"stim/64.jpeg",6,4,3,1,"Instruments",2,4,"right","left",0.572000027,0,0,1,0,95,80,1,0.1,2,"stim/64.jpeg",6,4,"stim/64.jpeg",4,"right",1.619999886,1,1,0.829999924,1,0.343999863,95,0,0,NA,0,NA,0
"342","stim/objects/HouseObjects/pan.png",250,80,243,0.9,"stim/64.jpeg",6,4,3,2,"HouseObjects",1,1,"left","left",0.575000048,1,1,1,0,NA,NA,NA,NA,NA,NA,NA,NA,NA,NA,NA,NA,NA,NA,NA,NA,NA,NA,NA,NA,NA,NA,NA,NA
"524","stim/objects/Instruments/oboe.png",251,80,244,0.9,"stim/51.jpeg",5,1,3,2,"Instruments",2,1,"right","right",0.515000105,1,1,1,0,NA,NA,NA,NA,NA,NA,NA,NA,NA,NA,NA,NA,NA,NA,NA,NA,NA,NA,NA,NA,NA,NA,NA,NA
"307","stim/objects/HouseObjects/knife2.png",252,80,245,0.1,"stim/51.jpeg",5,1,3,1,"HouseObjects",1,3,"left","right",0.510999918,0,0,1,0,60,80,1,0.1,1,"stim/51.jpeg",5,1,"stim/51.jpeg",3,"right",1.118999958,1,1,2.632999897,3,2.055999994,60,0,1,NA,1,NA,0
"523","stim/objects/Instruments/musicstand2.png",253,80,246,0.9,"stim/52.jpeg",5,2,3,1,"Instruments",2,4,"right","left",0.619999886,0,0,1,0,109,80,1,0.9,2,"stim/52.jpeg",5,2,"stim/52.jpeg",4,"right",0.944999933,3,1,1.064999819,1,0.924999952,109,0,0,NA,0,NA,0
"256","stim/objects/HouseObjects/flyswatter.png",254,80,247,0.5,"stim/23.jpeg",2,3,1,2,"HouseObjects",1,4,"left","",NA,0,0,1,0,NA,NA,NA,NA,NA,NA,NA,NA,NA,NA,NA,NA,NA,NA,NA,NA,NA,NA,NA,NA,NA,NA,NA,NA
"268","stim/objects/HouseObjects/hairdryer.png",255,80,248,0.5,"stim/23.jpeg",2,3,1,2,"HouseObjects",1,4,"left","left",0.440999985,1,1,1,0,NA,NA,NA,NA,NA,NA,NA,NA,NA,NA,NA,NA,NA,NA,NA,NA,NA,NA,NA,NA,NA,NA,NA,NA
"473","stim/objects/Instruments/metronome.png",256,80,249,0.9,"stim/53.jpeg",5,3,3,2,"Instruments",2,2,"right","right",0.594000101,1,1,1,0,NA,NA,NA,NA,NA,NA,NA,NA,NA,NA,NA,NA,NA,NA,NA,NA,NA,NA,NA,NA,NA,NA,NA,NA
"358","stim/objects/HouseObjects/pan2.png",257,80,250,0.1,"stim/54.jpeg",5,4,3,1,"HouseObjects",1,3,"left","right",0.510000229,0,0,1,0,91,80,1,0.1,1,"stim/54.jpeg",5,4,"stim/54.jpeg",3,"right",3.467999935,2,4,1.397000074,4,0.521999836,91,0,1,NA,0,NA,0
"555","stim/objects/Instruments/timbal.png",258,80,251,0.5,"stim/22.jpeg",2,2,1,1,"Instruments",2,2,"right","left",0.746000051,0,0,1,0,114,80,1,0.5,2,"stim/22.jpeg",2,2,"stim/22.jpeg",2,"left",4.211999893,3,1,2.160999775,2,1.279999971,114,1,0,0,1,1,0
"409","stim/objects/Instruments/electricdrumset.png",259,80,252,0.5,"stim/11.jpeg",1,1,1,2,"Instruments",2,1,"right","right",0.585000038,1,1,1,0,NA,NA,NA,NA,NA,NA,NA,NA,NA,NA,NA,NA,NA,NA,NA,NA,NA,NA,NA,NA,NA,NA,NA,NA
"551","stim/objects/Instruments/speaker.png",260,80,253,0.5,"stim/24.jpeg",2,4,1,1,"Instruments",2,1,"right","left",0.631000042,0,0,1,0,122,80,1,0.5,2,"stim/24.jpeg",2,4,"stim/24.jpeg",1,"right",1.917999983,1,1,2.213999987,4,0.915999889,122,0,0,NA,0,NA,0
"291","stim/objects/HouseObjects/knife.png",261,80,254,0.9,"stim/63.jpeg",6,3,3,2,"HouseObjects",1,4,"left","left",0.617000103,1,1,1,0,NA,NA,NA,NA,NA,NA,NA,NA,NA,NA,NA,NA,NA,NA,NA,NA,NA,NA,NA,NA,NA,NA,NA,NA
"309","stim/objects/HouseObjects/lintroller.png",262,80,255,0.9,"stim/61.jpeg",6,1,3,2,"HouseObjects",1,3,"left","left",0.402000189,1,1,1,0,NA,NA,NA,NA,NA,NA,NA,NA,NA,NA,NA,NA,NA,NA,NA,NA,NA,NA,NA,NA,NA,NA,NA,NA
"475","stim/objects/Instruments/metronome.png",263,80,256,0.9,"stim/54.jpeg",5,4,3,2,"Instruments",2,2,"right","right",0.625,1,1,1,0,NA,NA,NA,NA,NA,NA,NA,NA,NA,NA,NA,NA,NA,NA,NA,NA,NA,NA,NA,NA,NA,NA,NA,NA
"558","stim/objects/Instruments/triangle2.png",264,80,257,0.1,"stim/62.jpeg",6,2,3,1,"Instruments",2,2,"right","left",0.531000137,0,0,1,0,42,80,1,0.1,2,"stim/62.jpeg",6,2,"stim/62.jpeg",2,"left",1.774999857,3,1,6.170999765,2,4.615999937,42,1,0,0,1,1,0
"274","stim/objects/HouseObjects/handbrush2.png",265,80,258,0.7,"stim/41.jpeg",4,1,2,1,"HouseObjects",1,1,"left","right",0.815000057,0,0,1,0,172,80,1,0.7,1,"stim/41.jpeg",4,1,"stim/41.jpeg",1,"right",3.427999973,3,1,0.704999924,1,0.479000092,172,0,1,NA,1,NA,0
"250","stim/objects/HouseObjects/doormat.png",266,80,259,0.5,"stim/14.jpeg",1,4,1,2,"HouseObjects",1,4,"left","right",0.764000177,0,0,1,0,NA,NA,NA,NA,NA,NA,NA,NA,NA,NA,NA,NA,NA,NA,NA,NA,NA,NA,NA,NA,NA,NA,NA,NA
"490","stim/objects/Instruments/musicsheet.png",267,80,260,0.9,"stim/51.jpeg",5,1,3,2,"Instruments",2,4,"right","right",0.667999983,1,1,1,0,NA,NA,NA,NA,NA,NA,NA,NA,NA,NA,NA,NA,NA,NA,NA,NA,NA,NA,NA,NA,NA,NA,NA,NA
"325","stim/objects/HouseObjects/match.png",268,80,261,0.9,"stim/64.jpeg",6,4,3,2,"HouseObjects",1,1,"left","left",0.476000071,1,1,1,0,NA,NA,NA,NA,NA,NA,NA,NA,NA,NA,NA,NA,NA,NA,NA,NA,NA,NA,NA,NA,NA,NA,NA,NA
"477","stim/objects/Instruments/metronome.png",269,80,262,0.9,"stim/53.jpeg",5,3,3,2,"Instruments",2,2,"right","right",0.563999891,1,1,1,0,NA,NA,NA,NA,NA,NA,NA,NA,NA,NA,NA,NA,NA,NA,NA,NA,NA,NA,NA,NA,NA,NA,NA,NA
"478","stim/objects/Instruments/metronome.png",270,80,263,0.9,"stim/53.jpeg",5,3,3,2,"Instruments",2,3,"right","right",0.647000074,1,1,1,0,NA,NA,NA,NA,NA,NA,NA,NA,NA,NA,NA,NA,NA,NA,NA,NA,NA,NA,NA,NA,NA,NA,NA,NA
"282","stim/objects/HouseObjects/iron2.png",271,80,264,0.7,"stim/43.jpeg",4,3,2,1,"HouseObjects",1,2,"left","left",0.767999887,1,1,1,0,152,80,1,0.7,1,"stim/43.jpeg",4,3,"stim/43.jpeg",2,"left",4.070999861,3,2,2.728999853,2,7.338999987,152,1,0,0,1,1,0
"278","stim/objects/HouseObjects/handvacuum2.png",272,80,265,0.7,"stim/42.jpeg",4,2,2,1,"HouseObjects",1,4,"left","left",0.636999846,1,1,1,0,81,80,1,0.7,1,"stim/42.jpeg",4,2,"stim/42.jpeg",4,"right",1.828999996,2,1,1.328999996,1,0.240999937,81,0,0,NA,0,NA,0
"433","stim/objects/Instruments/harmonica.png",273,80,266,0.5,"stim/23.jpeg",2,3,1,2,"Instruments",2,1,"right","left",0.56099987,0,0,1,0,NA,NA,NA,NA,NA,NA,NA,NA,NA,NA,NA,NA,NA,NA,NA,NA,NA,NA,NA,NA,NA,NA,NA,NA
"412","stim/objects/Instruments/electricguitar.png",274,80,267,0.5,"stim/12.jpeg",1,2,1,2,"Instruments",2,2,"right","left",0.710000038,0,0,1,0,NA,NA,NA,NA,NA,NA,NA,NA,NA,NA,NA,NA,NA,NA,NA,NA,NA,NA,NA,NA,NA,NA,NA,NA
"376","stim/objects/HouseObjects/recyclingbin.png",275,80,268,0.5,"stim/13.jpeg",1,3,1,1,"HouseObjects",1,4,"left","right",0.444000006,0,0,1,0,99,80,1,0.5,1,"stim/13.jpeg",1,3,"stim/13.jpeg",4,"left",0.855999947,2,3,1.138999939,3,0.559999943,99,1,1,1,0,0,0
"491","stim/objects/Instruments/musicsheet.png",276,80,269,0.9,"stim/54.jpeg",5,4,3,2,"Instruments",2,3,"right","left",0.670000076,0,0,1,0,NA,NA,NA,NA,NA,NA,NA,NA,NA,NA,NA,NA,NA,NA,NA,NA,NA,NA,NA,NA,NA,NA,NA,NA
"345","stim/objects/HouseObjects/pan.png",277,80,270,0.9,"stim/63.jpeg",6,3,3,2,"HouseObjects",1,1,"left","right",0.618999958,0,0,1,0,NA,NA,NA,NA,NA,NA,NA,NA,NA,NA,NA,NA,NA,NA,NA,NA,NA,NA,NA,NA,NA,NA,NA,NA
"554","stim/objects/Instruments/tambourine2.png",278,80,271,0.1,"stim/64.jpeg",6,4,3,1,"Instruments",2,4,"right","left",0.620000124,0,0,1,0,107,80,1,0.1,2,"stim/64.jpeg",6,4,"stim/64.jpeg",4,"right",0.648000002,3,1,2.371000051,1,0.733999729,107,0,0,NA,0,NA,0
"546","stim/objects/Instruments/record_player2.png",279,80,272,0.9,"stim/53.jpeg",5,3,3,1,"Instruments",2,2,"right","right",0.671000004,1,1,1,0,67,80,1,0.9,2,"stim/53.jpeg",5,3,"stim/53.jpeg",2,"left",0.929999828,4,4,3.887000084,2,4.423000097,67,1,0,0,1,1,0
"416","stim/objects/Instruments/flute.png",280,80,273,0.5,"stim/14.jpeg",1,4,1,2,"Instruments",2,3,"right","",NA,0,0,1,0,NA,NA,NA,NA,NA,NA,NA,NA,NA,NA,NA,NA,NA,NA,NA,NA,NA,NA,NA,NA,NA,NA,NA,NA
"472","stim/objects/Instruments/marimba2.png",281,80,274,0.9,"stim/53.jpeg",5,3,3,1,"Instruments",2,1,"right","right",0.465999842,1,1,1,0,153,80,1,0.9,2,"stim/53.jpeg",5,3,"stim/53.jpeg",1,"right",2.117999792,1,4,3.448999882,4,2.307999849,153,0,0,NA,0,NA,0
"245","stim/objects/HouseObjects/cushion.png",282,80,275,0.5,"stim/12.jpeg",1,2,1,2,"HouseObjects",1,4,"left","right",0.441999912,0,0,1,0,NA,NA,NA,NA,NA,NA,NA,NA,NA,NA,NA,NA,NA,NA,NA,NA,NA,NA,NA,NA,NA,NA,NA,NA
"525","stim/objects/Instruments/oboe.png",283,80,276,0.9,"stim/53.jpeg",5,3,3,2,"Instruments",2,1,"right","right",0.744999886,1,1,1,0,NA,NA,NA,NA,NA,NA,NA,NA,NA,NA,NA,NA,NA,NA,NA,NA,NA,NA,NA,NA,NA,NA,NA,NA
"275","stim/objects/HouseObjects/handvacuum.png",284,80,277,0.7,"stim/44.jpeg",4,4,2,2,"HouseObjects",1,2,"left","left",0.589000225,1,1,1,0,NA,NA,NA,NA,NA,NA,NA,NA,NA,NA,NA,NA,NA,NA,NA,NA,NA,NA,NA,NA,NA,NA,NA,NA
"508","stim/objects/Instruments/musicstand.png",285,80,278,0.9,"stim/51.jpeg",5,1,3,2,"Instruments",2,4,"right","right",0.573999882,1,1,1,0,NA,NA,NA,NA,NA,NA,NA,NA,NA,NA,NA,NA,NA,NA,NA,NA,NA,NA,NA,NA,NA,NA,NA,NA
"310","stim/objects/HouseObjects/lintroller.png",286,80,279,0.9,"stim/64.jpeg",6,4,3,2,"HouseObjects",1,4,"left","left",0.535000086,1,1,1,0,NA,NA,NA,NA,NA,NA,NA,NA,NA,NA,NA,NA,NA,NA,NA,NA,NA,NA,NA,NA,NA,NA,NA,NA
"406","stim/objects/Instruments/drums.png",287,80,280,0.5,"stim/14.jpeg",1,4,1,2,"Instruments",2,2,"right","right",0.434999943,1,1,1,0,NA,NA,NA,NA,NA,NA,NA,NA,NA,NA,NA,NA,NA,NA,NA,NA,NA,NA,NA,NA,NA,NA,NA,NA
"326","stim/objects/HouseObjects/match.png",288,80,281,0.9,"stim/62.jpeg",6,2,3,2,"HouseObjects",1,3,"left","left",0.496000051,1,1,1,0,NA,NA,NA,NA,NA,NA,NA,NA,NA,NA,NA,NA,NA,NA,NA,NA,NA,NA,NA,NA,NA,NA,NA,NA
"540","stim/objects/Instruments/oboe2.png",289,80,282,0.9,"stim/53.jpeg",5,3,3,1,"Instruments",2,4,"right","right",0.493999958,1,1,1,0,174,80,1,0.9,2,"stim/53.jpeg",5,3,"stim/53.jpeg",4,"left",2.076999903,3,1,1.407000065,1,1.549000025,174,1,0,0,0,0,0
"479","stim/objects/Instruments/metronome.png",290,80,283,0.9,"stim/53.jpeg",5,3,3,2,"Instruments",2,1,"right","right",0.549000025,1,1,1,0,NA,NA,NA,NA,NA,NA,NA,NA,NA,NA,NA,NA,NA,NA,NA,NA,NA,NA,NA,NA,NA,NA,NA,NA
"346","stim/objects/HouseObjects/pan.png",291,80,284,0.9,"stim/62.jpeg",6,2,3,2,"HouseObjects",1,4,"left","left",0.680999994,1,1,1,0,NA,NA,NA,NA,NA,NA,NA,NA,NA,NA,NA,NA,NA,NA,NA,NA,NA,NA,NA,NA,NA,NA,NA,NA
"399","stim/objects/HouseObjects/thread2.png",292,80,285,0.9,"stim/63.jpeg",6,3,3,1,"HouseObjects",1,3,"left","left",0.47300005,1,1,1,0,190,80,1,0.9,1,"stim/63.jpeg",6,3,"stim/63.jpeg",3,"right",3.606999874,1,2,1.96600008,4,1.133999825,190,0,0,NA,0,NA,0
"384","stim/objects/HouseObjects/safetypin.png",293,80,286,0.5,"stim/13.jpeg",1,3,1,1,"HouseObjects",1,1,"left","right",0.730000019,0,0,1,0,56,80,1,0.5,1,"stim/13.jpeg",1,3,"stim/13.jpeg",1,"left",1.878999949,3,3,4.323999882,3,4.554999828,56,1,1,1,0,0,0
"292","stim/objects/HouseObjects/knife.png",294,80,287,0.9,"stim/64.jpeg",6,4,3,2,"HouseObjects",1,2,"left","left",0.540999889,1,1,1,0,NA,NA,NA,NA,NA,NA,NA,NA,NA,NA,NA,NA,NA,NA,NA,NA,NA,NA,NA,NA,NA,NA,NA,NA
"347","stim/objects/HouseObjects/pan.png",295,80,288,0.9,"stim/62.jpeg",6,2,3,2,"HouseObjects",1,3,"left","left",0.593999863,1,1,1,0,NA,NA,NA,NA,NA,NA,NA,NA,NA,NA,NA,NA,NA,NA,NA,NA,NA,NA,NA,NA,NA,NA,NA,NA
"435","stim/objects/Instruments/harmonica2.png",296,80,289,0.3,"stim/42.jpeg",4,2,2,1,"Instruments",2,2,"right","right",0.730000019,1,1,1,0,5,80,1,0.3,2,"stim/42.jpeg",4,2,"stim/42.jpeg",2,"left",1.643999815,2,4,19.71199989,3,10.148,5,1,0,0,0,0,0
"492","stim/objects/Instruments/musicsheet.png",297,80,290,0.9,"stim/51.jpeg",5,1,3,2,"Instruments",2,4,"right","right",0.577000141,1,1,1,0,NA,NA,NA,NA,NA,NA,NA,NA,NA,NA,NA,NA,NA,NA,NA,NA,NA,NA,NA,NA,NA,NA,NA,NA
"509","stim/objects/Instruments/musicstand.png",298,80,291,0.9,"stim/54.jpeg",5,4,3,2,"Instruments",2,3,"right","right",0.65199995,1,1,1,0,NA,NA,NA,NA,NA,NA,NA,NA,NA,NA,NA,NA,NA,NA,NA,NA,NA,NA,NA,NA,NA,NA,NA,NA
"528","stim/objects/Instruments/oboe.png",299,80,292,0.9,"stim/53.jpeg",5,3,3,2,"Instruments",2,2,"right","right",0.734999895,1,1,1,0,NA,NA,NA,NA,NA,NA,NA,NA,NA,NA,NA,NA,NA,NA,NA,NA,NA,NA,NA,NA,NA,NA,NA,NA
"327","stim/objects/HouseObjects/match.png",300,80,293,0.9,"stim/61.jpeg",6,1,3,2,"HouseObjects",1,1,"left","left",0.801000118,1,1,1,0,NA,NA,NA,NA,NA,NA,NA,NA,NA,NA,NA,NA,NA,NA,NA,NA,NA,NA,NA,NA,NA,NA,NA,NA
"378","stim/objects/HouseObjects/remote.png",301,80,294,0.5,"stim/14.jpeg",1,4,1,1,"HouseObjects",1,1,"left","right",0.634000063,0,0,1,0,61,80,1,0.5,1,"stim/14.jpeg",1,4,"stim/14.jpeg",1,"right",1.809000015,1,4,3.075000048,3,1.119999886,61,0,1,NA,0,NA,0
"489","stim/objects/Instruments/metronome2.png",302,80,295,0.9,"stim/54.jpeg",5,4,3,1,"Instruments",2,3,"right","right",0.565999985,1,1,1,0,197,80,1,0.9,2,"stim/54.jpeg",5,4,"stim/54.jpeg",3,"right",4.980000019,3,2,3.250999928,4,2.792999983,197,0,0,NA,0,NA,0
"432","stim/objects/Instruments/guitarcase2.png",303,80,296,0.3,"stim/41.jpeg",4,1,2,1,"Instruments",2,4,"right","left",0.584000111,0,0,1,0,173,80,1,0.3,2,"stim/41.jpeg",4,1,"stim/41.jpeg",4,"right",1.193999767,3,1,0.947000027,1,0.74000001,173,0,1,NA,0,NA,0
"529","stim/objects/Instruments/oboe.png",304,80,297,0.9,"stim/54.jpeg",5,4,3,2,"Instruments",2,2,"right","right",0.549999952,1,1,1,0,NA,NA,NA,NA,NA,NA,NA,NA,NA,NA,NA,NA,NA,NA,NA,NA,NA,NA,NA,NA,NA,NA,NA,NA
"293","stim/objects/HouseObjects/knife.png",305,80,298,0.9,"stim/63.jpeg",6,3,3,2,"HouseObjects",1,2,"left","left",0.551000118,1,1,1,0,NA,NA,NA,NA,NA,NA,NA,NA,NA,NA,NA,NA,NA,NA,NA,NA,NA,NA,NA,NA,NA,NA,NA,NA
"279","stim/objects/HouseObjects/iron.png",306,80,299,0.7,"stim/41.jpeg",4,1,2,2,"HouseObjects",1,4,"left","left",0.649999857,1,1,1,0,NA,NA,NA,NA,NA,NA,NA,NA,NA,NA,NA,NA,NA,NA,NA,NA,NA,NA,NA,NA,NA,NA,NA,NA
"348","stim/objects/HouseObjects/pan.png",307,80,300,0.9,"stim/63.jpeg",6,3,3,2,"HouseObjects",1,1,"left","left",0.523999929,1,1,1,0,NA,NA,NA,NA,NA,NA,NA,NA,NA,NA,NA,NA,NA,NA,NA,NA,NA,NA,NA,NA,NA,NA,NA,NA
"328","stim/objects/HouseObjects/match.png",308,80,301,0.9,"stim/64.jpeg",6,4,3,2,"HouseObjects",1,1,"left","left",0.582999945,1,1,1,0,NA,NA,NA,NA,NA,NA,NA,NA,NA,NA,NA,NA,NA,NA,NA,NA,NA,NA,NA,NA,NA,NA,NA,NA
"246","stim/objects/HouseObjects/cushion2.png",309,80,302,0.3,"stim/33.jpeg",3,3,2,1,"HouseObjects",1,4,"left","left",0.858999968,1,1,1,0,28,80,1,0.3,1,"stim/33.jpeg",3,3,"stim/33.jpeg",4,"right",2.944999933,2,4,5.782999992,4,1.190000057,28,0,0,NA,1,NA,0
"457","stim/objects/Instruments/marimba.png",310,80,303,0.9,"stim/51.jpeg",5,1,3,2,"Instruments",2,4,"right","right",0.638999939,1,1,1,0,NA,NA,NA,NA,NA,NA,NA,NA,NA,NA,NA,NA,NA,NA,NA,NA,NA,NA,NA,NA,NA,NA,NA,NA
"400","stim/objects/HouseObjects/towel.png",311,80,304,0.3,"stim/33.jpeg",3,3,2,1,"HouseObjects",1,4,"left","right",0.733999968,0,0,1,0,110,80,1,0.3,1,"stim/33.jpeg",3,3,"stim/33.jpeg",4,"right",1.699999809,2,1,0.611999989,1,0.375999928,110,0,0,NA,0,NA,0
"360","stim/objects/HouseObjects/pitcher.png",312,80,305,0.9,"stim/64.jpeg",6,4,3,2,"HouseObjects",1,4,"left","right",0.427000046,0,0,1,0,NA,NA,NA,NA,NA,NA,NA,NA,NA,NA,NA,NA,NA,NA,NA,NA,NA,NA,NA,NA,NA,NA,NA,NA
"407","stim/objects/Instruments/drums.png",313,80,306,0.5,"stim/11.jpeg",1,1,1,2,"Instruments",2,3,"right","right",0.711999893,1,1,1,0,NA,NA,NA,NA,NA,NA,NA,NA,NA,NA,NA,NA,NA,NA,NA,NA,NA,NA,NA,NA,NA,NA,NA,NA
"420","stim/objects/Instruments/flutetrans2.png",314,80,307,0.7,"stim/33.jpeg",3,3,2,1,"Instruments",2,1,"right","right",0.892999887,1,1,1,0,134,80,1,0.7,2,"stim/33.jpeg",3,3,"stim/33.jpeg",1,"right",0.967000008,1,1,0.375999928,1,0.447999954,134,0,0,NA,1,NA,0
"361","stim/objects/HouseObjects/pitcher.png",315,80,308,0.9,"stim/61.jpeg",6,1,3,2,"HouseObjects",1,2,"left","left",0.59100008,1,1,1,0,NA,NA,NA,NA,NA,NA,NA,NA,NA,NA,NA,NA,NA,NA,NA,NA,NA,NA,NA,NA,NA,NA,NA,NA
"458","stim/objects/Instruments/marimba.png",316,80,309,0.9,"stim/53.jpeg",5,3,3,2,"Instruments",2,2,"right","right",0.536999941,1,1,1,0,NA,NA,NA,NA,NA,NA,NA,NA,NA,NA,NA,NA,NA,NA,NA,NA,NA,NA,NA,NA,NA,NA,NA,NA
"329","stim/objects/HouseObjects/match.png",317,80,310,0.9,"stim/63.jpeg",6,3,3,2,"HouseObjects",1,2,"left","left",0.493000031,1,1,1,0,NA,NA,NA,NA,NA,NA,NA,NA,NA,NA,NA,NA,NA,NA,NA,NA,NA,NA,NA,NA,NA,NA,NA,NA
"542","stim/objects/Instruments/panflute2.png",318,80,311,0.9,"stim/54.jpeg",5,4,3,1,"Instruments",2,3,"right","right",0.547999859,1,1,1,0,37,80,1,0.9,2,"stim/54.jpeg",5,4,"stim/54.jpeg",3,"left",3.879999876,2,4,10.77199984,2,1.641999722,37,1,1,1,0,0,0
"330","stim/objects/HouseObjects/match.png",319,80,312,0.9,"stim/63.jpeg",6,3,3,2,"HouseObjects",1,1,"left","left",0.486999989,1,1,1,0,NA,NA,NA,NA,NA,NA,NA,NA,NA,NA,NA,NA,NA,NA,NA,NA,NA,NA,NA,NA,NA,NA,NA,NA
"550","stim/objects/Instruments/saxophone2.png",320,80,313,0.9,"stim/54.jpeg",5,4,3,1,"Instruments",2,1,"right","left",0.667999983,0,0,1,0,170,80,1,0.9,2,"stim/54.jpeg",5,4,"stim/54.jpeg",1,"right",0.950999975,2,3,1.546999693,3,0.448999882,170,0,0,NA,0,NA,0
"265","stim/objects/HouseObjects/glassmop.png",321,80,314,0.5,"stim/22.jpeg",2,2,1,2,"HouseObjects",1,1,"left","left",0.612999916,1,1,1,0,NA,NA,NA,NA,NA,NA,NA,NA,NA,NA,NA,NA,NA,NA,NA,NA,NA,NA,NA,NA,NA,NA,NA,NA
"349","stim/objects/HouseObjects/pan.png",322,80,315,0.9,"stim/64.jpeg",6,4,3,2,"HouseObjects",1,1,"left","left",0.549999952,1,1,1,0,NA,NA,NA,NA,NA,NA,NA,NA,NA,NA,NA,NA,NA,NA,NA,NA,NA,NA,NA,NA,NA,NA,NA,NA
"511","stim/objects/Instruments/musicstand.png",323,80,316,0.9,"stim/53.jpeg",5,3,3,2,"Instruments",2,3,"right","right",0.657999992,1,1,1,0,NA,NA,NA,NA,NA,NA,NA,NA,NA,NA,NA,NA,NA,NA,NA,NA,NA,NA,NA,NA,NA,NA,NA,NA
"413","stim/objects/Instruments/electricguitar.png",324,80,317,0.5,"stim/13.jpeg",1,3,1,2,"Instruments",2,3,"right","right",0.691999912,1,1,1,0,NA,NA,NA,NA,NA,NA,NA,NA,NA,NA,NA,NA,NA,NA,NA,NA,NA,NA,NA,NA,NA,NA,NA,NA
"494","stim/objects/Instruments/musicsheet.png",325,80,318,0.9,"stim/53.jpeg",5,3,3,2,"Instruments",2,1,"right","right",0.491000175,1,1,1,0,NA,NA,NA,NA,NA,NA,NA,NA,NA,NA,NA,NA,NA,NA,NA,NA,NA,NA,NA,NA,NA,NA,NA,NA
"460","stim/objects/Instruments/marimba.png",326,80,319,0.9,"stim/51.jpeg",5,1,3,2,"Instruments",2,3,"right","right",0.621999979,1,1,1,0,NA,NA,NA,NA,NA,NA,NA,NA,NA,NA,NA,NA,NA,NA,NA,NA,NA,NA,NA,NA,NA,NA,NA,NA
"403","stim/objects/HouseObjects/vacuumcleaner2.png",327,80,320,0.9,"stim/61.jpeg",6,1,3,1,"HouseObjects",1,1,"left","right",0.485000134,0,0,1,0,14,80,1,0.9,1,"stim/61.jpeg",6,1,"stim/61.jpeg",1,"right",1.5,3,1,2.160999775,1,1.553999901,14,0,1,NA,1,NA,0
"560","stim/objects/Instruments/trombone2.png",328,80,321,0.1,"stim/63.jpeg",6,3,3,1,"Instruments",2,4,"right","left",0.5,0,0,1,0,65,80,1,0.1,2,"stim/63.jpeg",6,3,"stim/63.jpeg",4,"right",1.342000008,1,1,2.088999987,1,0.454999924,65,0,0,NA,0,NA,0
"462","stim/objects/Instruments/marimba.png",329,80,322,0.9,"stim/52.jpeg",5,2,3,2,"Instruments",2,3,"right","right",0.713000059,1,1,1,0,NA,NA,NA,NA,NA,NA,NA,NA,NA,NA,NA,NA,NA,NA,NA,NA,NA,NA,NA,NA,NA,NA,NA,NA
"294","stim/objects/HouseObjects/knife.png",330,80,323,0.9,"stim/61.jpeg",6,1,3,2,"HouseObjects",1,3,"left","left",0.532999992,1,1,1,0,NA,NA,NA,NA,NA,NA,NA,NA,NA,NA,NA,NA,NA,NA,NA,NA,NA,NA,NA,NA,NA,NA,NA,NA
"375","stim/objects/HouseObjects/pitcher2.png",331,80,324,0.1,"stim/51.jpeg",5,1,3,1,"HouseObjects",1,1,"left","right",0.827000141,0,0,1,0,150,80,1,0.1,1,"stim/51.jpeg",5,1,"stim/51.jpeg",1,"right",1.3349998,2,1,1.504999876,1,1.895999908,150,0,1,NA,1,NA,0
"377","stim/objects/HouseObjects/recyclingbin2.png",332,80,325,0.1,"stim/52.jpeg",5,2,3,1,"HouseObjects",1,3,"left","",NA,0,0,1,0,89,80,1,0.1,1,"stim/52.jpeg",5,2,"stim/52.jpeg",3,"left",2.36199975,2,2,2.262000084,4,0.640999794,89,1,1,1,0,0,0
"463","stim/objects/Instruments/marimba.png",333,80,326,0.9,"stim/51.jpeg",5,1,3,2,"Instruments",2,3,"right","right",0.411999941,1,1,1,0,NA,NA,NA,NA,NA,NA,NA,NA,NA,NA,NA,NA,NA,NA,NA,NA,NA,NA,NA,NA,NA,NA,NA,NA
"396","stim/objects/HouseObjects/thermometer.png",334,80,327,0.3,"stim/31.jpeg",3,1,2,1,"HouseObjects",1,1,"left","right",0.826999903,0,0,1,0,68,80,1,0.3,1,"stim/31.jpeg",3,1,"stim/31.jpeg",1,"right",2.929999828,3,1,3.221999884,2,1.638000011,68,0,1,NA,0,NA,0
"569","stim/objects/Instruments/xylophone.png",335,80,328,0.7,"stim/32.jpeg",3,2,2,1,"Instruments",2,2,"right","right",0.538000107,1,1,1,0,124,80,1,0.7,2,"stim/32.jpeg",3,2,"stim/32.jpeg",2,"right",3.76699996,2,2,0.771999836,2,0.389999866,124,0,1,NA,1,NA,0
"496","stim/objects/Instruments/musicsheet.png",336,80,329,0.9,"stim/53.jpeg",5,3,3,2,"Instruments",2,1,"right","right",0.634000063,1,1,1,0,NA,NA,NA,NA,NA,NA,NA,NA,NA,NA,NA,NA,NA,NA,NA,NA,NA,NA,NA,NA,NA,NA,NA,NA
"362","stim/objects/HouseObjects/pitcher.png",337,80,330,0.9,"stim/61.jpeg",6,1,3,2,"HouseObjects",1,3,"left","left",0.663000107,1,1,1,0,NA,NA,NA,NA,NA,NA,NA,NA,NA,NA,NA,NA,NA,NA,NA,NA,NA,NA,NA,NA,NA,NA,NA,NA
"258","stim/objects/HouseObjects/flyswatter2.png",338,80,331,0.7,"stim/44.jpeg",4,4,2,1,"HouseObjects",1,1,"left","left",0.833999872,1,1,1,0,54,80,1,0.7,1,"stim/44.jpeg",4,4,"stim/44.jpeg",1,"right",3.277999878,2,4,4.789999723,2,5.755999804,54,0,1,NA,0,NA,0
"311","stim/objects/HouseObjects/lintroller.png",339,80,332,0.9,"stim/61.jpeg",6,1,3,2,"HouseObjects",1,4,"left","left",0.506000042,1,1,1,0,NA,NA,NA,NA,NA,NA,NA,NA,NA,NA,NA,NA,NA,NA,NA,NA,NA,NA,NA,NA,NA,NA,NA,NA
"437","stim/objects/Instruments/harp.png",340,80,333,0.7,"stim/31.jpeg",3,1,2,2,"Instruments",2,3,"right","right",0.844000101,1,1,1,0,NA,NA,NA,NA,NA,NA,NA,NA,NA,NA,NA,NA,NA,NA,NA,NA,NA,NA,NA,NA,NA,NA,NA,NA
"280","stim/objects/HouseObjects/iron.png",341,80,334,0.7,"stim/43.jpeg",4,3,2,2,"HouseObjects",1,3,"left","left",0.580000162,1,1,1,0,NA,NA,NA,NA,NA,NA,NA,NA,NA,NA,NA,NA,NA,NA,NA,NA,NA,NA,NA,NA,NA,NA,NA,NA
"421","stim/objects/Instruments/frenchhorn.png",342,80,335,0.5,"stim/23.jpeg",2,3,1,2,"Instruments",2,4,"right","right",0.476000071,1,1,1,0,NA,NA,NA,NA,NA,NA,NA,NA,NA,NA,NA,NA,NA,NA,NA,NA,NA,NA,NA,NA,NA,NA,NA,NA
"480","stim/objects/Instruments/metronome.png",343,80,336,0.9,"stim/54.jpeg",5,4,3,2,"Instruments",2,1,"right","right",0.555000067,1,1,1,0,NA,NA,NA,NA,NA,NA,NA,NA,NA,NA,NA,NA,NA,NA,NA,NA,NA,NA,NA,NA,NA,NA,NA,NA
"552","stim/objects/Instruments/speaker2.png",344,80,337,0.1,"stim/63.jpeg",6,3,3,1,"Instruments",2,2,"right","left",0.553999901,0,0,1,0,49,80,1,0.1,2,"stim/63.jpeg",6,3,"stim/63.jpeg",2,"right",1.91899991,2,2,4.006000042,2,7.683000088,49,0,0,NA,1,NA,0
"295","stim/objects/HouseObjects/knife.png",345,80,338,0.9,"stim/62.jpeg",6,2,3,2,"HouseObjects",1,1,"left","left",0.538000107,1,1,1,0,NA,NA,NA,NA,NA,NA,NA,NA,NA,NA,NA,NA,NA,NA,NA,NA,NA,NA,NA,NA,NA,NA,NA,NA
"264","stim/objects/HouseObjects/glass2.png",346,80,339,0.7,"stim/42.jpeg",4,2,2,1,"HouseObjects",1,2,"left","left",0.559000015,1,1,1,0,73,80,1,0.7,1,"stim/42.jpeg",4,2,"stim/42.jpeg",2,"left",2.177999973,3,2,2.318999767,2,1.144000053,73,1,1,1,1,1,0
"313","stim/objects/HouseObjects/lintroller.png",347,80,340,0.9,"stim/62.jpeg",6,2,3,2,"HouseObjects",1,1,"left","left",0.487999916,1,1,1,0,NA,NA,NA,NA,NA,NA,NA,NA,NA,NA,NA,NA,NA,NA,NA,NA,NA,NA,NA,NA,NA,NA,NA,NA
"512","stim/objects/Instruments/musicstand.png",348,80,341,0.9,"stim/51.jpeg",5,1,3,2,"Instruments",2,4,"right","right",0.554000139,1,1,1,0,NA,NA,NA,NA,NA,NA,NA,NA,NA,NA,NA,NA,NA,NA,NA,NA,NA,NA,NA,NA,NA,NA,NA,NA
"448","stim/objects/Instruments/laud.png",349,80,342,0.7,"stim/33.jpeg",3,3,2,2,"Instruments",2,3,"right","right",0.674999952,1,1,1,0,NA,NA,NA,NA,NA,NA,NA,NA,NA,NA,NA,NA,NA,NA,NA,NA,NA,NA,NA,NA,NA,NA,NA,NA
"314","stim/objects/HouseObjects/lintroller.png",350,80,343,0.9,"stim/61.jpeg",6,1,3,2,"HouseObjects",1,1,"left","left",0.447000027,1,1,1,0,NA,NA,NA,NA,NA,NA,NA,NA,NA,NA,NA,NA,NA,NA,NA,NA,NA,NA,NA,NA,NA,NA,NA,NA
"553","stim/objects/Instruments/tambourine.png",351,80,344,0.5,"stim/21.jpeg",2,1,1,1,"Instruments",2,2,"right","left",0.769000053,0,0,1,0,30,80,1,0.5,2,"stim/21.jpeg",2,1,"stim/21.jpeg",2,"right",2.20299983,2,2,2.219000101,4,0.76699996,30,0,0,NA,0,NA,0
"422","stim/objects/Instruments/frenchhorn.png",352,80,345,0.5,"stim/22.jpeg",2,2,1,2,"Instruments",2,4,"right","left",0.723999977,0,0,1,0,NA,NA,NA,NA,NA,NA,NA,NA,NA,NA,NA,NA,NA,NA,NA,NA,NA,NA,NA,NA,NA,NA,NA,NA
"351","stim/objects/HouseObjects/pan.png",353,80,346,0.9,"stim/62.jpeg",6,2,3,2,"HouseObjects",1,4,"left","left",0.600999832,1,1,1,0,NA,NA,NA,NA,NA,NA,NA,NA,NA,NA,NA,NA,NA,NA,NA,NA,NA,NA,NA,NA,NA,NA,NA,NA
"510","stim/objects/Instruments/musicstand.png",354,80,347,0.9,"stim/52.jpeg",5,2,3,2,"Instruments",2,3,"right","right",0.477999926,1,1,1,0,NA,NA,NA,NA,NA,NA,NA,NA,NA,NA,NA,NA,NA,NA,NA,NA,NA,NA,NA,NA,NA,NA,NA,NA
"391","stim/objects/HouseObjects/sponge2.png",355,80,348,0.9,"stim/63.jpeg",6,3,3,1,"HouseObjects",1,4,"left","right",0.542999983,0,0,1,0,179,80,1,0.9,1,"stim/63.jpeg",6,3,"stim/63.jpeg",4,"left",1.05099988,4,1,2.682999849,2,6.859999895,179,1,0,0,0,0,0
"440","stim/objects/Instruments/hihat.png",356,80,349,0.7,"stim/32.jpeg",3,2,2,2,"Instruments",2,2,"right","",NA,0,0,1,0,NA,NA,NA,NA,NA,NA,NA,NA,NA,NA,NA,NA,NA,NA,NA,NA,NA,NA,NA,NA,NA,NA,NA,NA
"315","stim/objects/HouseObjects/lintroller.png",357,80,350,0.9,"stim/64.jpeg",6,4,3,2,"HouseObjects",1,3,"left","left",0.472000122,1,1,1,0,NA,NA,NA,NA,NA,NA,NA,NA,NA,NA,NA,NA,NA,NA,NA,NA,NA,NA,NA,NA,NA,NA,NA,NA
"324","stim/objects/HouseObjects/lintroller2.png",358,80,351,0.1,"stim/52.jpeg",5,2,3,1,"HouseObjects",1,3,"left","right",0.70299983,0,0,1,0,92,80,1,0.1,1,"stim/52.jpeg",5,2,"stim/52.jpeg",3,"right",4.566999912,2,1,2.085999966,1,0.512000084,92,0,0,NA,0,NA,0
"402","stim/objects/HouseObjects/vacuumcleaner.png",359,80,352,0.3,"stim/34.jpeg",3,4,2,1,"HouseObjects",1,3,"left","left",0.756999969,1,1,1,0,43,80,1,0.3,1,"stim/34.jpeg",3,4,"stim/34.jpeg",3,"right",3.609999895,1,1,7.036000013,1,7.000999928,43,0,0,NA,0,NA,0
"333","stim/objects/HouseObjects/match.png",360,80,353,0.9,"stim/62.jpeg",6,2,3,2,"HouseObjects",1,4,"left","left",0.565000057,1,1,1,0,NA,NA,NA,NA,NA,NA,NA,NA,NA,NA,NA,NA,NA,NA,NA,NA,NA,NA,NA,NA,NA,NA,NA,NA
"334","stim/objects/HouseObjects/match.png",361,80,354,0.9,"stim/61.jpeg",6,1,3,2,"HouseObjects",1,4,"left","left",0.519999981,1,1,1,0,NA,NA,NA,NA,NA,NA,NA,NA,NA,NA,NA,NA,NA,NA,NA,NA,NA,NA,NA,NA,NA,NA,NA,NA
"316","stim/objects/HouseObjects/lintroller.png",362,80,355,0.9,"stim/62.jpeg",6,2,3,2,"HouseObjects",1,2,"left","left",0.440999985,1,1,1,0,NA,NA,NA,NA,NA,NA,NA,NA,NA,NA,NA,NA,NA,NA,NA,NA,NA,NA,NA,NA,NA,NA,NA,NA
"317","stim/objects/HouseObjects/lintroller.png",363,80,356,0.9,"stim/63.jpeg",6,3,3,2,"HouseObjects",1,1,"left","left",0.436999798,1,1,1,0,NA,NA,NA,NA,NA,NA,NA,NA,NA,NA,NA,NA,NA,NA,NA,NA,NA,NA,NA,NA,NA,NA,NA,NA
"260","stim/objects/HouseObjects/garbagebin.png",364,80,357,0.5,"stim/24.jpeg",2,4,1,2,"HouseObjects",1,4,"left","left",0.687999964,1,1,1,0,NA,NA,NA,NA,NA,NA,NA,NA,NA,NA,NA,NA,NA,NA,NA,NA,NA,NA,NA,NA,NA,NA,NA,NA
"464","stim/objects/Instruments/marimba.png",365,80,358,0.9,"stim/54.jpeg",5,4,3,2,"Instruments",2,3,"right","right",0.743000031,1,1,1,0,NA,NA,NA,NA,NA,NA,NA,NA,NA,NA,NA,NA,NA,NA,NA,NA,NA,NA,NA,NA,NA,NA,NA,NA
"335","stim/objects/HouseObjects/match.png",366,80,359,0.9,"stim/64.jpeg",6,4,3,2,"HouseObjects",1,4,"left","left",0.592000008,1,1,1,0,NA,NA,NA,NA,NA,NA,NA,NA,NA,NA,NA,NA,NA,NA,NA,NA,NA,NA,NA,NA,NA,NA,NA,NA
"567","stim/objects/Instruments/vuvuzela.png",367,80,360,0.7,"stim/31.jpeg",3,1,2,1,"Instruments",2,3,"right","right",0.579999924,1,1,1,0,157,80,1,0.7,2,"stim/31.jpeg",3,1,"stim/31.jpeg",3,"right",1.427000046,3,3,1.198999882,4,2.7099998,157,0,0,NA,0,NA,0
"248","stim/objects/HouseObjects/dishsoap.png",368,80,361,0.5,"stim/13.jpeg",1,3,1,2,"HouseObjects",1,4,"left","right",0.737999916,0,0,1,0,NA,NA,NA,NA,NA,NA,NA,NA,NA,NA,NA,NA,NA,NA,NA,NA,NA,NA,NA,NA,NA,NA,NA,NA
"379","stim/objects/HouseObjects/remote2.png",369,80,362,0.1,"stim/53.jpeg",5,3,3,1,"HouseObjects",1,1,"left","right",0.624000072,0,0,1,0,16,80,1,0.1,1,"stim/53.jpeg",5,3,"stim/53.jpeg",1,"right",3.851999998,2,1,2.773999929,1,0.578999758,16,0,0,NA,1,NA,0
"308","stim/objects/HouseObjects/lintroller.png",370,80,363,0.9,"stim/63.jpeg",6,3,3,2,"HouseObjects",1,4,"left","left",0.554000139,1,1,1,0,NA,NA,NA,NA,NA,NA,NA,NA,NA,NA,NA,NA,NA,NA,NA,NA,NA,NA,NA,NA,NA,NA,NA,NA
"318","stim/objects/HouseObjects/lintroller.png",371,80,364,0.9,"stim/64.jpeg",6,4,3,2,"HouseObjects",1,2,"left","left",0.602999926,1,1,1,0,NA,NA,NA,NA,NA,NA,NA,NA,NA,NA,NA,NA,NA,NA,NA,NA,NA,NA,NA,NA,NA,NA,NA,NA
"533","stim/objects/Instruments/oboe.png",372,80,365,0.9,"stim/51.jpeg",5,1,3,2,"Instruments",2,3,"right","right",0.594000101,1,1,1,0,NA,NA,NA,NA,NA,NA,NA,NA,NA,NA,NA,NA,NA,NA,NA,NA,NA,NA,NA,NA,NA,NA,NA,NA
"343","stim/objects/HouseObjects/pan.png",373,80,366,0.9,"stim/63.jpeg",6,3,3,2,"HouseObjects",1,1,"left","left",0.544000149,1,1,1,0,NA,NA,NA,NA,NA,NA,NA,NA,NA,NA,NA,NA,NA,NA,NA,NA,NA,NA,NA,NA,NA,NA,NA,NA
"259","stim/objects/HouseObjects/garbagebin.png",374,80,367,0.5,"stim/21.jpeg",2,1,1,2,"HouseObjects",1,4,"left","left",0.603999853,1,1,1,0,NA,NA,NA,NA,NA,NA,NA,NA,NA,NA,NA,NA,NA,NA,NA,NA,NA,NA,NA,NA,NA,NA,NA,NA
"404","stim/objects/HouseObjects/wateringcan.png",375,80,368,0.3,"stim/31.jpeg",3,1,2,1,"HouseObjects",1,1,"left","right",0.657000065,0,0,1,0,113,80,1,0.3,1,"stim/31.jpeg",3,1,"stim/31.jpeg",1,"right",0.700999975,2,2,1.029999971,2,0.288000107,113,0,0,NA,0,NA,0
"547","stim/objects/Instruments/record.png",376,80,369,0.5,"stim/14.jpeg",1,4,1,1,"Instruments",2,1,"right","right",0.772000074,1,1,1,0,77,80,1,0.5,1,"stim/14.jpeg",1,4,"stim/14.jpeg",1,"right",1.786000013,1,1,0.947000027,1,0.866999865,77,0,0,NA,1,NA,0
"252","stim/objects/HouseObjects/doormat2.png",377,80,370,0.3,"stim/31.jpeg",3,1,2,1,"HouseObjects",1,3,"left","right",0.697999954,0,0,1,0,132,80,1,0.3,1,"stim/31.jpeg",3,1,"stim/31.jpeg",3,"right",0.824999809,2,1,0.898999929,1,0.342000008,132,0,1,NA,0,NA,0
"548","stim/objects/Instruments/record2.png",378,80,371,0.9,"stim/52.jpeg",5,2,3,1,"Instruments",2,2,"right","right",0.661000013,1,1,1,0,83,80,1,0.9,2,"stim/52.jpeg",5,2,"stim/52.jpeg",2,"right",1.694999933,3,4,3.889999866,2,2.255000114,83,0,0,NA,1,NA,0
"247","stim/objects/HouseObjects/dishsoap.png",379,80,372,0.5,"stim/14.jpeg",1,4,1,2,"HouseObjects",1,1,"left","right",0.643999815,0,0,1,0,NA,NA,NA,NA,NA,NA,NA,NA,NA,NA,NA,NA,NA,NA,NA,NA,NA,NA,NA,NA,NA,NA,NA,NA
"483","stim/objects/Instruments/metronome.png",380,80,373,0.9,"stim/52.jpeg",5,2,3,2,"Instruments",2,4,"right","right",0.761000156,1,1,1,0,NA,NA,NA,NA,NA,NA,NA,NA,NA,NA,NA,NA,NA,NA,NA,NA,NA,NA,NA,NA,NA,NA,NA,NA
"566","stim/objects/Instruments/violin2.png",381,80,374,0.1,"stim/62.jpeg",6,2,3,1,"Instruments",2,4,"right","left",0.584000111,0,0,1,0,160,80,1,0.1,2,"stim/62.jpeg",6,2,"stim/62.jpeg",4,"left",2.160000086,2,1,0.677000046,1,1.026000023,160,1,0,0,0,0,0
"441","stim/objects/Instruments/hihat.png",382,80,375,0.7,"stim/34.jpeg",3,4,2,2,"Instruments",2,4,"right","left",0.822000027,0,0,1,0,NA,NA,NA,NA,NA,NA,NA,NA,NA,NA,NA,NA,NA,NA,NA,NA,NA,NA,NA,NA,NA,NA,NA,NA
"443","stim/objects/Instruments/hihat2.png",383,80,376,0.3,"stim/44.jpeg",4,4,2,1,"Instruments",2,2,"right","left",0.667999983,0,0,1,0,102,80,1,0.3,2,"stim/44.jpeg",4,4,"stim/44.jpeg",2,"left",0.824999809,4,3,3.291999817,3,1.136999846,102,1,0,0,0,0,0
"498","stim/objects/Instruments/musicsheet.png",384,80,377,0.9,"stim/51.jpeg",5,1,3,2,"Instruments",2,2,"right","right",0.80099988,1,1,1,0,NA,NA,NA,NA,NA,NA,NA,NA,NA,NA,NA,NA,NA,NA,NA,NA,NA,NA,NA,NA,NA,NA,NA,NA
"257","stim/objects/HouseObjects/flyswatter.png",385,80,378,0.5,"stim/24.jpeg",2,4,1,2,"HouseObjects",1,2,"left","left",0.648000002,1,1,1,0,NA,NA,NA,NA,NA,NA,NA,NA,NA,NA,NA,NA,NA,NA,NA,NA,NA,NA,NA,NA,NA,NA,NA,NA
"476","stim/objects/Instruments/metronome.png",386,80,379,0.9,"stim/54.jpeg",5,4,3,2,"Instruments",2,1,"right","right",0.582999945,1,1,1,0,NA,NA,NA,NA,NA,NA,NA,NA,NA,NA,NA,NA,NA,NA,NA,NA,NA,NA,NA,NA,NA,NA,NA,NA
"288","stim/objects/HouseObjects/key.png",387,80,380,0.7,"stim/41.jpeg",4,1,2,2,"HouseObjects",1,3,"left","left",0.656000137,1,1,1,0,NA,NA,NA,NA,NA,NA,NA,NA,NA,NA,NA,NA,NA,NA,NA,NA,NA,NA,NA,NA,NA,NA,NA,NA
"535","stim/objects/Instruments/oboe.png",388,80,381,0.9,"stim/52.jpeg",5,2,3,2,"Instruments",2,1,"right","right",0.684000015,1,1,1,0,NA,NA,NA,NA,NA,NA,NA,NA,NA,NA,NA,NA,NA,NA,NA,NA,NA,NA,NA,NA,NA,NA,NA,NA
"364","stim/objects/HouseObjects/pitcher.png",389,80,382,0.9,"stim/62.jpeg",6,2,3,2,"HouseObjects",1,3,"left","left",0.56799984,1,1,1,0,NA,NA,NA,NA,NA,NA,NA,NA,NA,NA,NA,NA,NA,NA,NA,NA,NA,NA,NA,NA,NA,NA,NA,NA
"484","stim/objects/Instruments/metronome.png",390,80,383,0.9,"stim/52.jpeg",5,2,3,2,"Instruments",2,1,"right","right",0.730999947,1,1,1,0,NA,NA,NA,NA,NA,NA,NA,NA,NA,NA,NA,NA,NA,NA,NA,NA,NA,NA,NA,NA,NA,NA,NA,NA
"253","stim/objects/HouseObjects/dustpan.png",391,80,384,0.5,"stim/12.jpeg",1,2,1,2,"HouseObjects",1,3,"left","right",0.733999968,0,0,1,0,NA,NA,NA,NA,NA,NA,NA,NA,NA,NA,NA,NA,NA,NA,NA,NA,NA,NA,NA,NA,NA,NA,NA,NA
"423","stim/objects/Instruments/frenchhorn2.png",392,80,385,0.3,"stim/42.jpeg",4,2,2,1,"Instruments",2,1,"right","left",0.740999937,0,0,1,0,127,80,1,0.3,2,"stim/42.jpeg",4,2,"stim/42.jpeg",1,"right",2.45299983,1,1,0.608999729,2,0.853999853,127,0,0,NA,0,NA,0
"444","stim/objects/Instruments/keyboard.png",393,80,386,0.7,"stim/33.jpeg",3,3,2,2,"Instruments",2,4,"right","right",0.74000001,1,1,1,0,NA,NA,NA,NA,NA,NA,NA,NA,NA,NA,NA,NA,NA,NA,NA,NA,NA,NA,NA,NA,NA,NA,NA,NA
"365","stim/objects/HouseObjects/pitcher.png",394,80,387,0.9,"stim/61.jpeg",6,1,3,2,"HouseObjects",1,1,"left","left",0.711999893,1,1,1,0,NA,NA,NA,NA,NA,NA,NA,NA,NA,NA,NA,NA,NA,NA,NA,NA,NA,NA,NA,NA,NA,NA,NA,NA
"531","stim/objects/Instruments/oboe.png",395,80,388,0.9,"stim/53.jpeg",5,3,3,2,"Instruments",2,4,"right","right",0.618000031,1,1,1,0,NA,NA,NA,NA,NA,NA,NA,NA,NA,NA,NA,NA,NA,NA,NA,NA,NA,NA,NA,NA,NA,NA,NA,NA
"447","stim/objects/Instruments/keyboard2.png",396,80,389,0.3,"stim/41.jpeg",4,1,2,1,"Instruments",2,4,"right","left",0.681999922,0,0,1,0,52,80,1,0.3,2,"stim/41.jpeg",4,1,"stim/41.jpeg",4,"right",1.000999928,1,4,4.760999918,3,3.856999874,52,0,0,NA,0,NA,0
"515","stim/objects/Instruments/musicstand.png",397,80,390,0.9,"stim/54.jpeg",5,4,3,2,"Instruments",2,3,"right","right",0.618000031,1,1,1,0,NA,NA,NA,NA,NA,NA,NA,NA,NA,NA,NA,NA,NA,NA,NA,NA,NA,NA,NA,NA,NA,NA,NA,NA
"332","stim/objects/HouseObjects/match.png",398,80,391,0.9,"stim/61.jpeg",6,1,3,2,"HouseObjects",1,3,"left","left",0.494000196,1,1,1,0,NA,NA,NA,NA,NA,NA,NA,NA,NA,NA,NA,NA,NA,NA,NA,NA,NA,NA,NA,NA,NA,NA,NA,NA
"436","stim/objects/Instruments/harp.png",399,80,392,0.7,"stim/34.jpeg",3,4,2,2,"Instruments",2,2,"right","",NA,0,0,1,0,NA,NA,NA,NA,NA,NA,NA,NA,NA,NA,NA,NA,NA,NA,NA,NA,NA,NA,NA,NA,NA,NA,NA,NA
"359","stim/objects/HouseObjects/pitcher.png",400,80,393,0.9,"stim/62.jpeg",6,2,3,2,"HouseObjects",1,4,"left","left",0.664999962,1,1,1,0,NA,NA,NA,NA,NA,NA,NA,NA,NA,NA,NA,NA,NA,NA,NA,NA,NA,NA,NA,NA,NA,NA,NA,NA
"517","stim/objects/Instruments/musicstand.png",401,80,394,0.9,"stim/51.jpeg",5,1,3,2,"Instruments",2,3,"right","right",0.628000021,1,1,1,0,NA,NA,NA,NA,NA,NA,NA,NA,NA,NA,NA,NA,NA,NA,NA,NA,NA,NA,NA,NA,NA,NA,NA,NA
"244","stim/objects/HouseObjects/cushion.png",402,80,395,0.5,"stim/13.jpeg",1,3,1,2,"HouseObjects",1,3,"left","right",0.677999973,0,0,1,0,NA,NA,NA,NA,NA,NA,NA,NA,NA,NA,NA,NA,NA,NA,NA,NA,NA,NA,NA,NA,NA,NA,NA,NA
"518","stim/objects/Instruments/musicstand.png",403,80,396,0.9,"stim/52.jpeg",5,2,3,2,"Instruments",2,4,"right","right",0.627000093,1,1,1,0,NA,NA,NA,NA,NA,NA,NA,NA,NA,NA,NA,NA,NA,NA,NA,NA,NA,NA,NA,NA,NA,NA,NA,NA
"271","stim/objects/HouseObjects/handbrush.png",404,80,397,0.7,"stim/42.jpeg",4,2,2,2,"HouseObjects",1,4,"left","left",0.708999872,1,1,1,0,NA,NA,NA,NA,NA,NA,NA,NA,NA,NA,NA,NA,NA,NA,NA,NA,NA,NA,NA,NA,NA,NA,NA,NA
"249","stim/objects/HouseObjects/dishsoap2.png",405,80,398,0.3,"stim/34.jpeg",3,4,2,1,"HouseObjects",1,1,"left","right",0.59100008,0,0,1,0,136,80,1,0.3,1,"stim/34.jpeg",3,4,"stim/34.jpeg",1,"right",7.234999895,3,1,2.598999977,4,5.983999968,136,0,0,NA,0,NA,0
"241","stim/objects/HouseObjects/coffee.png",406,80,399,0.5,"stim/11.jpeg",1,1,1,2,"HouseObjects",1,2,"left","left",0.648000002,1,1,1,0,NA,NA,NA,NA,NA,NA,NA,NA,NA,NA,NA,NA,NA,NA,NA,NA,NA,NA,NA,NA,NA,NA,NA,NA
"426","stim/objects/Instruments/gong2.png",407,80,400,0.3,"stim/43.jpeg",4,3,2,1,"Instruments",2,4,"right","left",0.706999779,0,0,1,0,21,80,1,0.3,2,"stim/43.jpeg",4,3,"stim/43.jpeg",4,"left",2.608999729,2,2,9.524999857,3,2.696999788,21,1,0,0,0,0,0
"321","stim/objects/HouseObjects/lintroller.png",408,80,401,0.9,"stim/61.jpeg",6,1,3,2,"HouseObjects",1,2,"left","left",0.648000002,1,1,1,0,NA,NA,NA,NA,NA,NA,NA,NA,NA,NA,NA,NA,NA,NA,NA,NA,NA,NA,NA,NA,NA,NA,NA,NA
"501","stim/objects/Instruments/musicsheet.png",409,80,402,0.9,"stim/54.jpeg",5,4,3,2,"Instruments",2,1,"right","right",0.505000114,1,1,1,0,NA,NA,NA,NA,NA,NA,NA,NA,NA,NA,NA,NA,NA,NA,NA,NA,NA,NA,NA,NA,NA,NA,NA,NA
"526","stim/objects/Instruments/oboe.png",410,80,403,0.9,"stim/54.jpeg",5,4,3,2,"Instruments",2,1,"right","right",0.500999928,1,1,1,0,NA,NA,NA,NA,NA,NA,NA,NA,NA,NA,NA,NA,NA,NA,NA,NA,NA,NA,NA,NA,NA,NA,NA,NA
"449","stim/objects/Instruments/laud.png",411,80,404,0.7,"stim/34.jpeg",3,4,2,2,"Instruments",2,3,"right","left",0.567000151,0,0,1,0,NA,NA,NA,NA,NA,NA,NA,NA,NA,NA,NA,NA,NA,NA,NA,NA,NA,NA,NA,NA,NA,NA,NA,NA
"466","stim/objects/Instruments/marimba.png",412,80,405,0.9,"stim/52.jpeg",5,2,3,2,"Instruments",2,2,"right","right",0.904000044,1,1,1,0,NA,NA,NA,NA,NA,NA,NA,NA,NA,NA,NA,NA,NA,NA,NA,NA,NA,NA,NA,NA,NA,NA,NA,NA
"456","stim/objects/Instruments/marimba.png",413,80,406,0.9,"stim/53.jpeg",5,3,3,2,"Instruments",2,3,"right","right",0.890000105,1,1,1,0,NA,NA,NA,NA,NA,NA,NA,NA,NA,NA,NA,NA,NA,NA,NA,NA,NA,NA,NA,NA,NA,NA,NA,NA
"269","stim/objects/HouseObjects/hairdryer.png",414,80,407,0.5,"stim/24.jpeg",2,4,1,2,"HouseObjects",1,2,"left","left",0.58100009,1,1,1,0,NA,NA,NA,NA,NA,NA,NA,NA,NA,NA,NA,NA,NA,NA,NA,NA,NA,NA,NA,NA,NA,NA,NA,NA
"301","stim/objects/HouseObjects/knife.png",415,80,408,0.9,"stim/63.jpeg",6,3,3,2,"HouseObjects",1,1,"left","left",0.540999889,1,1,1,0,NA,NA,NA,NA,NA,NA,NA,NA,NA,NA,NA,NA,NA,NA,NA,NA,NA,NA,NA,NA,NA,NA,NA,NA
"453","stim/objects/Instruments/maraca.png",416,80,409,0.7,"stim/33.jpeg",3,3,2,2,"Instruments",2,4,"right","left",0.5,0,0,1,0,NA,NA,NA,NA,NA,NA,NA,NA,NA,NA,NA,NA,NA,NA,NA,NA,NA,NA,NA,NA,NA,NA,NA,NA
"527","stim/objects/Instruments/oboe.png",417,80,410,0.9,"stim/54.jpeg",5,4,3,2,"Instruments",2,2,"right","right",0.551000118,1,1,1,0,NA,NA,NA,NA,NA,NA,NA,NA,NA,NA,NA,NA,NA,NA,NA,NA,NA,NA,NA,NA,NA,NA,NA,NA
"497","stim/objects/Instruments/musicsheet.png",418,80,411,0.9,"stim/53.jpeg",5,3,3,2,"Instruments",2,3,"right","right",0.482999802,1,1,1,0,NA,NA,NA,NA,NA,NA,NA,NA,NA,NA,NA,NA,NA,NA,NA,NA,NA,NA,NA,NA,NA,NA,NA,NA
"570","stim/objects/Instruments/xylophone2.png",419,80,412,0.1,"stim/64.jpeg",6,4,3,1,"Instruments",2,4,"right","left",0.46600008,0,0,1,0,137,80,1,0.1,2,"stim/64.jpeg",6,4,"stim/64.jpeg",4,"right",4.17599988,2,1,1.541999817,3,2.81099987,137,0,0,NA,0,NA,0
"520","stim/objects/Instruments/musicstand.png",420,80,413,0.9,"stim/54.jpeg",5,4,3,2,"Instruments",2,4,"right","right",0.582000017,1,1,1,0,NA,NA,NA,NA,NA,NA,NA,NA,NA,NA,NA,NA,NA,NA,NA,NA,NA,NA,NA,NA,NA,NA,NA,NA
"419","stim/objects/Instruments/flutetrans.png",421,80,414,0.5,"stim/11.jpeg",1,1,1,2,"Instruments",2,3,"right","right",0.679000139,1,1,1,0,NA,NA,NA,NA,NA,NA,NA,NA,NA,NA,NA,NA,NA,NA,NA,NA,NA,NA,NA,NA,NA,NA,NA,NA
"262","stim/objects/HouseObjects/glass.png",422,80,415,0.5,"stim/21.jpeg",2,1,1,2,"HouseObjects",1,3,"left","right",0.753999949,0,0,1,0,NA,NA,NA,NA,NA,NA,NA,NA,NA,NA,NA,NA,NA,NA,NA,NA,NA,NA,NA,NA,NA,NA,NA,NA
"283","stim/objects/HouseObjects/ironingboard.png",423,80,416,0.7,"stim/41.jpeg",4,1,2,2,"HouseObjects",1,4,"left","left",0.661999941,1,1,1,0,NA,NA,NA,NA,NA,NA,NA,NA,NA,NA,NA,NA,NA,NA,NA,NA,NA,NA,NA,NA,NA,NA,NA,NA
"493","stim/objects/Instruments/musicsheet.png",424,80,417,0.9,"stim/52.jpeg",5,2,3,2,"Instruments",2,2,"right","right",0.654000044,1,1,1,0,NA,NA,NA,NA,NA,NA,NA,NA,NA,NA,NA,NA,NA,NA,NA,NA,NA,NA,NA,NA,NA,NA,NA,NA
"367","stim/objects/HouseObjects/pitcher.png",425,80,418,0.9,"stim/63.jpeg",6,3,3,2,"HouseObjects",1,2,"left","left",0.43200016,1,1,1,0,NA,NA,NA,NA,NA,NA,NA,NA,NA,NA,NA,NA,NA,NA,NA,NA,NA,NA,NA,NA,NA,NA,NA,NA
"514","stim/objects/Instruments/musicstand.png",426,80,419,0.9,"stim/53.jpeg",5,3,3,2,"Instruments",2,2,"right","right",0.459000111,1,1,1,0,NA,NA,NA,NA,NA,NA,NA,NA,NA,NA,NA,NA,NA,NA,NA,NA,NA,NA,NA,NA,NA,NA,NA,NA
"261","stim/objects/HouseObjects/garbagebin2.png",427,80,420,0.7,"stim/41.jpeg",4,1,2,1,"HouseObjects",1,1,"left","left",0.623999834,1,1,1,0,196,80,1,0.7,1,"stim/41.jpeg",4,1,"stim/41.jpeg",1,"right",2.882999897,3,4,1.247999907,2,2.299000025,196,0,0,NA,0,NA,0
"272","stim/objects/HouseObjects/handbrush.png",428,80,421,0.7,"stim/43.jpeg",4,3,2,2,"HouseObjects",1,2,"left","left",0.641000032,1,1,1,0,NA,NA,NA,NA,NA,NA,NA,NA,NA,NA,NA,NA,NA,NA,NA,NA,NA,NA,NA,NA,NA,NA,NA,NA
"319","stim/objects/HouseObjects/lintroller.png",429,80,422,0.9,"stim/62.jpeg",6,2,3,2,"HouseObjects",1,3,"left","left",0.850000143,1,1,1,0,NA,NA,NA,NA,NA,NA,NA,NA,NA,NA,NA,NA,NA,NA,NA,NA,NA,NA,NA,NA,NA,NA,NA,NA
"557","stim/objects/Instruments/triangle.png",430,80,423,0.5,"stim/23.jpeg",2,3,1,1,"Instruments",2,2,"right","left",0.715999842,0,0,1,0,175,80,1,0.5,2,"stim/23.jpeg",2,3,"stim/23.jpeg",2,"right",3.125,1,4,5.144000053,3,1.888999939,175,0,0,NA,0,NA,0
"354","stim/objects/HouseObjects/pan.png",431,80,424,0.9,"stim/61.jpeg",6,1,3,2,"HouseObjects",1,1,"left","",NA,0,0,1,0,NA,NA,NA,NA,NA,NA,NA,NA,NA,NA,NA,NA,NA,NA,NA,NA,NA,NA,NA,NA,NA,NA,NA,NA
"434","stim/objects/Instruments/harmonica.png",432,80,425,0.5,"stim/22.jpeg",2,2,1,2,"Instruments",2,3,"right","right",0.654999971,1,1,1,0,NA,NA,NA,NA,NA,NA,NA,NA,NA,NA,NA,NA,NA,NA,NA,NA,NA,NA,NA,NA,NA,NA,NA,NA
"298","stim/objects/HouseObjects/knife.png",433,80,426,0.9,"stim/61.jpeg",6,1,3,2,"HouseObjects",1,2,"left","left",0.529000044,1,1,1,0,NA,NA,NA,NA,NA,NA,NA,NA,NA,NA,NA,NA,NA,NA,NA,NA,NA,NA,NA,NA,NA,NA,NA,NA
"320","stim/objects/HouseObjects/lintroller.png",434,80,427,0.9,"stim/63.jpeg",6,3,3,2,"HouseObjects",1,2,"left","left",0.511000156,1,1,1,0,NA,NA,NA,NA,NA,NA,NA,NA,NA,NA,NA,NA,NA,NA,NA,NA,NA,NA,NA,NA,NA,NA,NA,NA
"405","stim/objects/HouseObjects/wateringcan2.png",435,80,428,0.9,"stim/62.jpeg",6,2,3,1,"HouseObjects",1,4,"left","left",0.475000143,1,1,1,0,103,80,1,0.9,1,"stim/62.jpeg",6,2,"stim/62.jpeg",4,"right",6.54399991,3,1,1.699999809,1,0.378999949,103,0,0,NA,0,NA,0
"424","stim/objects/Instruments/gong.png",436,80,429,0.5,"stim/23.jpeg",2,3,1,2,"Instruments",2,2,"right","left",0.516000032,0,0,1,0,NA,NA,NA,NA,NA,NA,NA,NA,NA,NA,NA,NA,NA,NA,NA,NA,NA,NA,NA,NA,NA,NA,NA,NA
"410","stim/objects/Instruments/electricdrumset.png",437,80,430,0.5,"stim/12.jpeg",1,2,1,2,"Instruments",2,1,"right","left",0.536999941,0,0,1,0,NA,NA,NA,NA,NA,NA,NA,NA,NA,NA,NA,NA,NA,NA,NA,NA,NA,NA,NA,NA,NA,NA,NA,NA
"499","stim/objects/Instruments/musicsheet.png",438,80,431,0.9,"stim/52.jpeg",5,2,3,2,"Instruments",2,4,"right","right",0.803999901,1,1,1,0,NA,NA,NA,NA,NA,NA,NA,NA,NA,NA,NA,NA,NA,NA,NA,NA,NA,NA,NA,NA,NA,NA,NA,NA
"392","stim/objects/HouseObjects/spraybottle.png",439,80,432,0.5,"stim/24.jpeg",2,4,1,1,"HouseObjects",1,3,"left","left",0.690000057,1,1,1,0,11,80,1,0.5,2,"stim/24.jpeg",2,4,"stim/24.jpeg",3,"left",1.340999842,4,2,14.6559999,1,1.927999735,11,1,0,0,0,0,0
"503","stim/objects/Instruments/musicsheet.png",440,80,433,0.9,"stim/54.jpeg",5,4,3,2,"Instruments",2,2,"right","right",0.523000002,1,1,1,0,NA,NA,NA,NA,NA,NA,NA,NA,NA,NA,NA,NA,NA,NA,NA,NA,NA,NA,NA,NA,NA,NA,NA,NA
"290","stim/objects/HouseObjects/key2.png",441,80,434,0.7,"stim/41.jpeg",4,1,2,1,"HouseObjects",1,1,"left","right",0.438999891,0,0,1,0,199,80,1,0.7,1,"stim/41.jpeg",4,1,"stim/41.jpeg",1,"right",2.127999783,2,1,1.832999945,2,0.661000013,199,0,1,NA,0,NA,0
"451","stim/objects/Instruments/laud2.png",442,80,435,0.3,"stim/42.jpeg",4,2,2,1,"Instruments",2,3,"right","left",0.555000067,0,0,1,0,84,80,1,0.3,2,"stim/42.jpeg",4,2,"stim/42.jpeg",3,"right",3.687999964,2,1,2.419999838,4,1.708999872,84,0,0,NA,0,NA,0
"286","stim/objects/HouseObjects/ironingboard2.png",443,80,436,0.7,"stim/44.jpeg",4,4,2,1,"HouseObjects",1,1,"left","left",0.491999865,1,1,1,0,36,80,1,0.7,1,"stim/44.jpeg",4,4,"stim/44.jpeg",1,"left",2.388999939,2,1,4.151000023,4,6.450000048,36,1,0,0,0,0,0
"450","stim/objects/Instruments/laud.png",444,80,437,0.7,"stim/32.jpeg",3,2,2,2,"Instruments",2,2,"right","right",0.512000084,1,1,1,0,NA,NA,NA,NA,NA,NA,NA,NA,NA,NA,NA,NA,NA,NA,NA,NA,NA,NA,NA,NA,NA,NA,NA,NA
"397","stim/objects/HouseObjects/thermometer2.png",445,80,438,0.9,"stim/62.jpeg",6,2,3,1,"HouseObjects",1,2,"left","left",0.688999891,1,1,1,0,186,80,1,0.9,1,"stim/62.jpeg",6,2,"stim/62.jpeg",2,"right",2.886999846,2,4,1.41899991,2,3.101999998,186,0,0,NA,1,NA,0
"506","stim/objects/Instruments/musicsheet2.png",446,80,439,0.9,"stim/51.jpeg",5,1,3,1,"Instruments",2,3,"right","right",0.593000174,1,1,1,0,90,80,1,0.9,2,"stim/51.jpeg",5,1,"stim/51.jpeg",3,"left",1.427999973,2,1,1.562000036,3,0.618000031,90,1,1,1,1,1,0
"386","stim/objects/HouseObjects/saw.png",447,80,440,0.5,"stim/21.jpeg",2,1,1,1,"HouseObjects",1,1,"left","left",0.713000059,1,1,1,0,147,80,1,0.5,2,"stim/21.jpeg",2,1,"stim/21.jpeg",1,"left",1.437999964,3,4,3.508999825,4,4.769999981,147,1,0,0,0,0,0
"461","stim/objects/Instruments/marimba.png",448,80,441,0.9,"stim/52.jpeg",5,2,3,2,"Instruments",2,3,"right","right",0.640999794,1,1,1,0,NA,NA,NA,NA,NA,NA,NA,NA,NA,NA,NA,NA,NA,NA,NA,NA,NA,NA,NA,NA,NA,NA,NA,NA
"350","stim/objects/HouseObjects/pan.png",449,80,442,0.9,"stim/64.jpeg",6,4,3,2,"HouseObjects",1,4,"left","left",0.475999832,1,1,1,0,NA,NA,NA,NA,NA,NA,NA,NA,NA,NA,NA,NA,NA,NA,NA,NA,NA,NA,NA,NA,NA,NA,NA,NA
"300","stim/objects/HouseObjects/knife.png",450,80,443,0.9,"stim/64.jpeg",6,4,3,2,"HouseObjects",1,4,"left","left",0.536999941,1,1,1,0,NA,NA,NA,NA,NA,NA,NA,NA,NA,NA,NA,NA,NA,NA,NA,NA,NA,NA,NA,NA,NA,NA,NA,NA
"544","stim/objects/Instruments/pipepiano2.png",451,80,444,0.9,"stim/51.jpeg",5,1,3,1,"Instruments",2,1,"right","right",0.613000154,1,1,1,0,135,80,1,0.9,2,"stim/51.jpeg",5,1,"stim/51.jpeg",1,"left",3.455999851,4,4,2.572999954,1,1.917999983,135,1,0,0,1,1,0
"331","stim/objects/HouseObjects/match.png",452,80,445,0.9,"stim/62.jpeg",6,2,3,2,"HouseObjects",1,3,"left","left",0.737999916,1,1,1,0,NA,NA,NA,NA,NA,NA,NA,NA,NA,NA,NA,NA,NA,NA,NA,NA,NA,NA,NA,NA,NA,NA,NA,NA
"530","stim/objects/Instruments/oboe.png",453,80,446,0.9,"stim/51.jpeg",5,1,3,2,"Instruments",2,4,"right","right",0.63499999,1,1,1,0,NA,NA,NA,NA,NA,NA,NA,NA,NA,NA,NA,NA,NA,NA,NA,NA,NA,NA,NA,NA,NA,NA,NA,NA
"564","stim/objects/Instruments/tuba2.png",454,80,447,0.1,"stim/61.jpeg",6,1,3,1,"Instruments",2,2,"right","left",0.777999878,0,0,1,0,9,80,1,0.1,2,"stim/61.jpeg",6,1,"stim/61.jpeg",2,"right",2.629999876,3,1,2.652999878,1,1.30099988,9,0,1,NA,0,NA,0
"251","stim/objects/HouseObjects/doormat.png",455,80,448,0.5,"stim/11.jpeg",1,1,1,2,"HouseObjects",1,1,"left","right",0.652000189,0,0,1,0,NA,NA,NA,NA,NA,NA,NA,NA,NA,NA,NA,NA,NA,NA,NA,NA,NA,NA,NA,NA,NA,NA,NA,NA
"495","stim/objects/Instruments/musicsheet.png",456,80,449,0.9,"stim/53.jpeg",5,3,3,2,"Instruments",2,1,"right","left",0.885999918,0,0,1,0,NA,NA,NA,NA,NA,NA,NA,NA,NA,NA,NA,NA,NA,NA,NA,NA,NA,NA,NA,NA,NA,NA,NA,NA
"485","stim/objects/Instruments/metronome.png",457,80,450,0.9,"stim/54.jpeg",5,4,3,2,"Instruments",2,1,"right","right",0.684999943,1,1,1,0,NA,NA,NA,NA,NA,NA,NA,NA,NA,NA,NA,NA,NA,NA,NA,NA,NA,NA,NA,NA,NA,NA,NA,NA
"263","stim/objects/HouseObjects/glass.png",458,80,451,0.5,"stim/22.jpeg",2,2,1,2,"HouseObjects",1,4,"left","left",0.707000017,1,1,1,0,NA,NA,NA,NA,NA,NA,NA,NA,NA,NA,NA,NA,NA,NA,NA,NA,NA,NA,NA,NA,NA,NA,NA,NA
"398","stim/objects/HouseObjects/thread.png",459,80,452,0.3,"stim/32.jpeg",3,2,2,1,"HouseObjects",1,1,"left","right",0.686000109,0,0,1,0,104,80,1,0.3,1,"stim/32.jpeg",3,2,"stim/32.jpeg",1,"right",4.15199995,2,2,0.752999783,2,0.366999865,104,0,1,NA,0,NA,0
"537","stim/objects/Instruments/oboe.png",460,80,453,0.9,"stim/52.jpeg",5,2,3,2,"Instruments",2,4,"right","right",0.503999949,1,1,1,0,NA,NA,NA,NA,NA,NA,NA,NA,NA,NA,NA,NA,NA,NA,NA,NA,NA,NA,NA,NA,NA,NA,NA,NA
"467","stim/objects/Instruments/marimba.png",461,80,454,0.9,"stim/54.jpeg",5,4,3,2,"Instruments",2,4,"right","right",0.392999887,1,1,1,0,NA,NA,NA,NA,NA,NA,NA,NA,NA,NA,NA,NA,NA,NA,NA,NA,NA,NA,NA,NA,NA,NA,NA,NA
"357","stim/objects/HouseObjects/pan.png",462,80,455,0.9,"stim/61.jpeg",6,1,3,2,"HouseObjects",1,1,"left","left",0.50999999,1,1,1,0,NA,NA,NA,NA,NA,NA,NA,NA,NA,NA,NA,NA,NA,NA,NA,NA,NA,NA,NA,NA,NA,NA,NA,NA
"381","stim/objects/HouseObjects/rubbergloves2.png",463,80,456,0.1,"stim/54.jpeg",5,4,3,1,"HouseObjects",1,1,"left","right",0.497999907,0,0,1,0,154,80,1,0.1,1,"stim/54.jpeg",5,4,"stim/54.jpeg",1,"right",3.54399991,2,3,2.60199976,1,2.608999968,154,0,0,NA,1,NA,0
"521","stim/objects/Instruments/musicstand.png",464,80,457,0.9,"stim/52.jpeg",5,2,3,2,"Instruments",2,2,"right","left",0.839999914,0,0,1,0,NA,NA,NA,NA,NA,NA,NA,NA,NA,NA,NA,NA,NA,NA,NA,NA,NA,NA,NA,NA,NA,NA,NA,NA
"363","stim/objects/HouseObjects/pitcher.png",465,80,458,0.9,"stim/63.jpeg",6,3,3,2,"HouseObjects",1,4,"left","left",0.620999813,1,1,1,0,NA,NA,NA,NA,NA,NA,NA,NA,NA,NA,NA,NA,NA,NA,NA,NA,NA,NA,NA,NA,NA,NA,NA,NA
"469","stim/objects/Instruments/marimba.png",466,80,459,0.9,"stim/53.jpeg",5,3,3,2,"Instruments",2,4,"right","right",0.59800005,1,1,1,0,NA,NA,NA,NA,NA,NA,NA,NA,NA,NA,NA,NA,NA,NA,NA,NA,NA,NA,NA,NA,NA,NA,NA,NA
"312","stim/objects/HouseObjects/lintroller.png",467,80,460,0.9,"stim/62.jpeg",6,2,3,2,"HouseObjects",1,3,"left","left",0.472000122,1,1,1,0,NA,NA,NA,NA,NA,NA,NA,NA,NA,NA,NA,NA,NA,NA,NA,NA,NA,NA,NA,NA,NA,NA,NA,NA
"488","stim/objects/Instruments/metronome.png",468,80,461,0.9,"stim/51.jpeg",5,1,3,2,"Instruments",2,4,"right","right",0.428999901,1,1,1,0,NA,NA,NA,NA,NA,NA,NA,NA,NA,NA,NA,NA,NA,NA,NA,NA,NA,NA,NA,NA,NA,NA,NA,NA
