"","participant","trial_index","trial_cond","scn_file","scn_cat","scn_inst","scn_condition","fillers","obj_cat","obj_cat_num","obj_file","quadrant","corr_ans","key_resp_trial.keys","key_resp_trial.rt","trial_acc","trial_acc_manual","group"
"1",80,1,0.7,"stim/32.jpeg",3,2,2,NA,"Instruments",2,"stim/objects/Instruments/cornet.png",2,"right","",NA,0,0,0
"2",80,2,0.9,"stim/64.jpeg",6,4,3,NA,"HouseObjects",1,"stim/objects/HouseObjects/clothespin2.png",3,"left","left",0.657999992,1,1,0
"3",80,3,0.9,"stim/64.jpeg",6,4,3,NA,"HouseObjects",1,"stim/objects/HouseObjects/clothespin2.png",3,"left","left",0.638999939,1,1,0
"4",80,4,0.9,"stim/53.jpeg",5,3,3,NA,"Instruments",2,"stim/objects/Instruments/cello2.png",2,"right","right",0.698999882,1,1,0
"5",80,5,0.5,"stim/11.jpeg",1,1,1,NA,"HouseObjects",1,"stim/objects/HouseObjects/ashtray.png",4,"left","right",0.828000069,0,0,0
"6",80,6,0.5,"stim/14.jpeg",1,4,1,NA,"Instruments",2,"stim/objects/Instruments/banjo.png",3,"right","right",0.838999987,1,1,0
"7",80,7,0.5,"stim/12.jpeg",1,2,1,NA,"Instruments",2,"stim/objects/Instruments/acousticguitar.png",3,"right","right",0.781999826,1,1,0
"8",80,8,0.3,"stim/33.jpeg",3,3,2,NA,"HouseObjects",1,"stim/objects/HouseObjects/clothesdryingrack.png",1,"left","right",0.875999928,0,0,0
"9",80,9,0.7,"stim/31.jpeg",3,1,2,NA,"Instruments",2,"stim/objects/Instruments/clarinet.png",4,"right","left",0.536000013,0,0,0
"10",80,10,0.7,"stim/34.jpeg",3,4,2,NA,"Instruments",2,"stim/objects/Instruments/doublebass.png",1,"right","left",0.773000002,0,0,0
"11",80,11,0.9,"stim/52.jpeg",5,2,3,NA,"Instruments",2,"stim/objects/Instruments/bassguitar2.png",3,"right","",NA,0,0,0
"12",80,12,0.3,"stim/41.jpeg",4,1,2,NA,"Instruments",2,"stim/objects/Instruments/accordion2.png",2,"right","right",0.674000025,1,1,0
"13",80,13,0.5,"stim/14.jpeg",1,4,1,NA,"Instruments",2,"stim/objects/Instruments/banjo.png",1,"right","right",0.767999887,1,1,0
"14",80,14,0.5,"stim/24.jpeg",2,4,1,NA,"HouseObjects",1,"stim/objects/HouseObjects/broom.png",4,"left","left",0.808000088,1,1,0
"15",80,15,0.9,"stim/52.jpeg",5,2,3,NA,"Instruments",2,"stim/objects/Instruments/bassguitar2.png",1,"right","right",0.563999891,1,1,0
"16",80,16,0.9,"stim/51.jpeg",5,1,3,NA,"Instruments",2,"stim/objects/Instruments/bassdrum2.png",2,"right","right",0.476000071,1,1,0
"17",80,17,0.5,"stim/13.jpeg",1,3,1,NA,"Instruments",2,"stim/objects/Instruments/balalaika.png",4,"right","left",0.857000113,0,0,0
"18",80,18,0.5,"stim/11.jpeg",1,1,1,NA,"Instruments",2,"stim/objects/Instruments/accordion.png",4,"right","right",0.571000099,1,1,0
"19",80,19,0.7,"stim/34.jpeg",3,4,2,NA,"Instruments",2,"stim/objects/Instruments/doublebass.png",4,"right","left",0.870000124,0,0,0
"20",80,20,0.7,"stim/43.jpeg",4,3,2,NA,"HouseObjects",1,"stim/objects/HouseObjects/barbecuelighter2.png",4,"left","",NA,0,0,0
"21",80,21,0.7,"stim/34.jpeg",3,4,2,NA,"Instruments",2,"stim/objects/Instruments/doublebass.png",3,"right","right",0.551999807,1,1,0
"22",80,22,0.7,"stim/42.jpeg",4,2,2,NA,"HouseObjects",1,"stim/objects/HouseObjects/ballofstring2.png",3,"left","left",0.550000191,1,1,0
"23",80,23,0.9,"stim/63.jpeg",6,3,3,NA,"HouseObjects",1,"stim/objects/HouseObjects/clothesdryingrack2.png",2,"left","left",0.601000071,1,1,0
"24",80,24,0.3,"stim/34.jpeg",3,4,2,NA,"HouseObjects",1,"stim/objects/HouseObjects/clothespin.png",4,"left","right",0.482999802,0,0,0
"25",80,25,0.5,"stim/24.jpeg",2,4,1,NA,"Instruments",2,"stim/objects/Instruments/chime.png",3,"right","left",0.779000044,0,0,0
"26",80,26,0.7,"stim/41.jpeg",4,1,2,NA,"HouseObjects",1,"stim/objects/HouseObjects/ashtray2.png",2,"left","left",0.593000174,1,1,0
"27",80,27,0.7,"stim/43.jpeg",4,3,2,NA,"HouseObjects",1,"stim/objects/HouseObjects/barbecuelighter2.png",2,"left","left",0.64199996,1,1,0
"28",80,28,0.3,"stim/42.jpeg",4,2,2,NA,"Instruments",2,"stim/objects/Instruments/acousticguitar2.png",2,"right","left",0.67599988,0,0,0
"29",80,29,0.5,"stim/13.jpeg",1,3,1,NA,"Instruments",2,"stim/objects/Instruments/balalaika.png",3,"right","right",0.725999832,1,1,0
"30",80,30,0.9,"stim/64.jpeg",6,4,3,NA,"HouseObjects",1,"stim/objects/HouseObjects/clothespin2.png",4,"left","left",0.532999992,1,1,0
"31",80,31,0.5,"stim/14.jpeg",1,4,1,NA,"Instruments",2,"stim/objects/Instruments/banjo.png",1,"right","right",0.679000139,1,1,0
"32",80,32,0.7,"stim/32.jpeg",3,2,2,NA,"Instruments",2,"stim/objects/Instruments/cornet.png",1,"right","right",0.508999825,1,1,0
"33",80,33,0.1,"stim/53.jpeg",5,3,3,NA,"HouseObjects",1,"stim/objects/HouseObjects/bottle2.png",2,"left","right",0.585999966,0,0,0
"34",80,34,0.5,"stim/14.jpeg",1,4,1,NA,"HouseObjects",1,"stim/objects/HouseObjects/basket.png",4,"left","right",0.639999866,0,0,0
"35",80,35,0.9,"stim/53.jpeg",5,3,3,NA,"Instruments",2,"stim/objects/Instruments/cello2.png",2,"right","right",0.434999943,1,1,0
"36",80,36,0.5,"stim/21.jpeg",2,1,1,NA,"Instruments",2,"stim/objects/Instruments/bassdrum.png",2,"right","left",0.679999828,0,0,0
"37",80,37,0.5,"stim/23.jpeg",2,3,1,NA,"HouseObjects",1,"stim/objects/HouseObjects/bottle.png",2,"left","left",0.489000082,1,1,0
"38",80,38,0.5,"stim/13.jpeg",1,3,1,NA,"Instruments",2,"stim/objects/Instruments/balalaika.png",2,"right","right",0.72300005,1,1,0
"39",80,39,0.9,"stim/51.jpeg",5,1,3,NA,"Instruments",2,"stim/objects/Instruments/bassdrum2.png",3,"right","right",0.531999826,1,1,0
"40",80,40,0.9,"stim/61.jpeg",6,1,3,NA,"HouseObjects",1,"stim/objects/HouseObjects/bucket2.png",2,"left","left",0.514999866,1,1,0
"41",80,41,0.5,"stim/24.jpeg",2,4,1,NA,"HouseObjects",1,"stim/objects/HouseObjects/broom.png",2,"left","left",0.389999866,1,1,0
"42",80,42,0.9,"stim/61.jpeg",6,1,3,NA,"HouseObjects",1,"stim/objects/HouseObjects/bucket2.png",2,"left","left",0.671000004,1,1,0
"43",80,43,0.5,"stim/22.jpeg",2,2,1,NA,"Instruments",2,"stim/objects/Instruments/bassguitar.png",1,"right","left",0.653000116,0,0,0
"44",80,44,0.5,"stim/12.jpeg",1,2,1,NA,"Instruments",2,"stim/objects/Instruments/acousticguitar.png",2,"right","",NA,0,0,0
"45",80,45,0.9,"stim/54.jpeg",5,4,3,NA,"Instruments",2,"stim/objects/Instruments/chime2.png",4,"right","right",0.471999884,1,1,0
"46",80,46,0.9,"stim/64.jpeg",6,4,3,NA,"HouseObjects",1,"stim/objects/HouseObjects/clothespin2.png",4,"left","left",0.572000027,1,1,0
"47",80,47,0.9,"stim/54.jpeg",5,4,3,NA,"Instruments",2,"stim/objects/Instruments/chime2.png",2,"right","right",0.462999821,1,1,0
"48",80,48,0.7,"stim/31.jpeg",3,1,2,NA,"Instruments",2,"stim/objects/Instruments/clarinet.png",3,"right","left",0.463000059,0,0,0
"49",80,49,0.5,"stim/21.jpeg",2,1,1,NA,"HouseObjects",1,"stim/objects/HouseObjects/bleachbottle.png",1,"left","left",0.599999905,1,1,0
"50",80,50,0.9,"stim/61.jpeg",6,1,3,NA,"HouseObjects",1,"stim/objects/HouseObjects/bucket2.png",4,"left","left",0.588999987,1,1,0
"51",80,51,0.7,"stim/33.jpeg",3,3,2,NA,"Instruments",2,"stim/objects/Instruments/cymbal.png",2,"right","right",0.611000061,1,1,0
"52",80,52,0.3,"stim/43.jpeg",4,3,2,NA,"Instruments",2,"stim/objects/Instruments/balalaika2.png",3,"right","left",0.565000057,0,0,0
"53",80,53,0.1,"stim/52.jpeg",5,2,3,NA,"HouseObjects",1,"stim/objects/HouseObjects/blender2.png",3,"left","right",0.712999821,0,0,0
"54",80,54,0.1,"stim/63.jpeg",6,3,3,NA,"Instruments",2,"stim/objects/Instruments/cymbal2.png",4,"right","left",0.529000044,0,0,0
"55",80,55,0.5,"stim/22.jpeg",2,2,1,NA,"Instruments",2,"stim/objects/Instruments/bassguitar.png",2,"right","",NA,0,0,0
"56",80,56,0.5,"stim/14.jpeg",1,4,1,NA,"Instruments",2,"stim/objects/Instruments/banjo.png",3,"right","right",0.532000065,1,1,0
"57",80,57,0.5,"stim/21.jpeg",2,1,1,NA,"Instruments",2,"stim/objects/Instruments/bassdrum.png",2,"right","",NA,0,0,0
"58",80,58,0.5,"stim/22.jpeg",2,2,1,NA,"Instruments",2,"stim/objects/Instruments/bassguitar.png",1,"right","right",0.734999895,1,1,0
"59",80,59,0.7,"stim/44.jpeg",4,4,2,NA,"HouseObjects",1,"stim/objects/HouseObjects/basket2.png",1,"left","left",0.558000088,1,1,0
"60",80,60,0.5,"stim/21.jpeg",2,1,1,NA,"Instruments",2,"stim/objects/Instruments/bassdrum.png",4,"right","left",0.536999941,0,0,0
"61",80,61,0.3,"stim/42.jpeg",4,2,2,NA,"Instruments",2,"stim/objects/Instruments/acousticguitar2.png",4,"right","left",0.573999882,0,0,0
"62",80,62,0.9,"stim/52.jpeg",5,2,3,NA,"Instruments",2,"stim/objects/Instruments/bassguitar2.png",1,"right","right",0.681999922,1,1,0
"63",80,63,0.5,"stim/21.jpeg",2,1,1,NA,"HouseObjects",1,"stim/objects/HouseObjects/bleachbottle.png",3,"left","left",0.448000193,1,1,0
"64",80,64,0.5,"stim/21.jpeg",2,1,1,NA,"HouseObjects",1,"stim/objects/HouseObjects/bleachbottle.png",1,"left","left",0.382999897,1,1,0
"65",80,65,0.5,"stim/12.jpeg",1,2,1,NA,"HouseObjects",1,"stim/objects/HouseObjects/ballofstring.png",3,"left","right",0.602999926,0,0,0
"66",80,66,0.5,"stim/23.jpeg",2,3,1,NA,"HouseObjects",1,"stim/objects/HouseObjects/bottle.png",1,"left","left",0.554000139,1,1,0
"67",80,67,0.5,"stim/24.jpeg",2,4,1,NA,"HouseObjects",1,"stim/objects/HouseObjects/broom.png",4,"left","right",0.434000015,0,0,0
"68",80,68,0.5,"stim/12.jpeg",1,2,1,NA,"HouseObjects",1,"stim/objects/HouseObjects/ballofstring.png",2,"left","right",0.63499999,0,0,0
"69",80,69,0.5,"stim/22.jpeg",2,2,1,NA,"HouseObjects",1,"stim/objects/HouseObjects/blender.png",2,"left","left",0.536999941,1,1,0
"70",80,70,0.7,"stim/32.jpeg",3,2,2,NA,"Instruments",2,"stim/objects/Instruments/cornet.png",1,"right","right",0.767999887,1,1,0
"71",80,71,0.5,"stim/22.jpeg",2,2,1,NA,"Instruments",2,"stim/objects/Instruments/bassguitar.png",1,"right","left",0.578999996,0,0,0
"72",80,72,0.3,"stim/44.jpeg",4,4,2,NA,"Instruments",2,"stim/objects/Instruments/banjo2.png",3,"right","left",0.628000021,0,0,0
"73",80,73,0.7,"stim/41.jpeg",4,1,2,NA,"HouseObjects",1,"stim/objects/HouseObjects/ashtray2.png",2,"left","left",0.488000154,1,1,0
"74",80,74,0.7,"stim/31.jpeg",3,1,2,NA,"Instruments",2,"stim/objects/Instruments/clarinet.png",1,"right","right",0.636999846,1,1,0
"75",80,75,0.3,"stim/33.jpeg",3,3,2,NA,"HouseObjects",1,"stim/objects/HouseObjects/clothesdryingrack.png",3,"left","right",0.904999971,0,0,0
"76",80,76,0.7,"stim/33.jpeg",3,3,2,NA,"Instruments",2,"stim/objects/Instruments/cymbal.png",1,"right","",NA,0,0,0
"77",80,77,0.5,"stim/22.jpeg",2,2,1,NA,"HouseObjects",1,"stim/objects/HouseObjects/blender.png",2,"left","right",0.855999947,0,0,0
"78",80,78,0.5,"stim/11.jpeg",1,1,1,NA,"Instruments",2,"stim/objects/Instruments/accordion.png",3,"right","right",0.774999857,1,1,0
"79",80,79,0.3,"stim/32.jpeg",3,2,2,NA,"HouseObjects",1,"stim/objects/HouseObjects/clock.png",2,"left","",NA,0,0,0
"80",80,80,0.7,"stim/31.jpeg",3,1,2,NA,"Instruments",2,"stim/objects/Instruments/clarinet.png",1,"right","",NA,0,0,0
"81",80,81,0.9,"stim/52.jpeg",5,2,3,NA,"Instruments",2,"stim/objects/Instruments/bassguitar2.png",3,"right","left",0.434000015,0,0,0
"82",80,82,0.9,"stim/51.jpeg",5,1,3,NA,"Instruments",2,"stim/objects/Instruments/bassdrum2.png",3,"right","right",0.597999811,1,1,0
"83",80,83,0.5,"stim/11.jpeg",1,1,1,NA,"Instruments",2,"stim/objects/Instruments/accordion.png",3,"right","right",0.835999966,1,1,0
"84",80,84,0.3,"stim/41.jpeg",4,1,2,NA,"Instruments",2,"stim/objects/Instruments/accordion2.png",3,"right","left",0.635999918,0,0,0
"85",80,85,0.9,"stim/63.jpeg",6,3,3,NA,"HouseObjects",1,"stim/objects/HouseObjects/clothesdryingrack2.png",4,"left","left",0.700000048,1,1,0
"86",80,86,0.9,"stim/64.jpeg",6,4,3,NA,"HouseObjects",1,"stim/objects/HouseObjects/clothespin2.png",2,"left","left",0.486999989,1,1,0
"87",80,87,0.9,"stim/63.jpeg",6,3,3,NA,"HouseObjects",1,"stim/objects/HouseObjects/clothesdryingrack2.png",4,"left","left",0.551000118,1,1,0
"88",80,88,0.5,"stim/12.jpeg",1,2,1,NA,"Instruments",2,"stim/objects/Instruments/acousticguitar.png",4,"right","right",0.620000124,1,1,0
"89",80,89,0.5,"stim/22.jpeg",2,2,1,NA,"HouseObjects",1,"stim/objects/HouseObjects/blender.png",3,"left","",NA,0,0,0
"90",80,90,0.5,"stim/14.jpeg",1,4,1,NA,"HouseObjects",1,"stim/objects/HouseObjects/basket.png",4,"left","right",0.654999971,0,0,0
"91",80,91,0.7,"stim/44.jpeg",4,4,2,NA,"HouseObjects",1,"stim/objects/HouseObjects/basket2.png",3,"left","left",0.786000013,1,1,0
"92",80,92,0.7,"stim/42.jpeg",4,2,2,NA,"HouseObjects",1,"stim/objects/HouseObjects/ballofstring2.png",4,"left","left",0.520999908,1,1,0
"93",80,93,0.9,"stim/53.jpeg",5,3,3,NA,"Instruments",2,"stim/objects/Instruments/cello2.png",4,"right","right",0.701999903,1,1,0
"94",80,94,0.9,"stim/52.jpeg",5,2,3,NA,"Instruments",2,"stim/objects/Instruments/bassguitar2.png",4,"right","right",0.561000109,1,1,0
"95",80,95,0.9,"stim/62.jpeg",6,2,3,NA,"HouseObjects",1,"stim/objects/HouseObjects/clock2.png",4,"left","left",0.592999935,1,1,0
"96",80,96,0.5,"stim/21.jpeg",2,1,1,NA,"Instruments",2,"stim/objects/Instruments/bassdrum.png",1,"right","left",0.763000011,0,0,0
"97",80,97,0.5,"stim/22.jpeg",2,2,1,NA,"HouseObjects",1,"stim/objects/HouseObjects/blender.png",3,"left","right",0.496000051,0,0,0
"98",80,98,0.9,"stim/61.jpeg",6,1,3,NA,"HouseObjects",1,"stim/objects/HouseObjects/bucket2.png",2,"left","left",0.57799983,1,1,0
"99",80,99,0.5,"stim/11.jpeg",1,1,1,NA,"Instruments",2,"stim/objects/Instruments/accordion.png",3,"right","left",0.55099988,0,0,0
"100",80,100,0.3,"stim/34.jpeg",3,4,2,NA,"HouseObjects",1,"stim/objects/HouseObjects/clothespin.png",1,"left","left",0.692000151,1,1,0
"101",80,101,0.9,"stim/51.jpeg",5,1,3,NA,"Instruments",2,"stim/objects/Instruments/bassdrum2.png",1,"right","right",0.523000002,1,1,0
"102",80,102,0.5,"stim/14.jpeg",1,4,1,NA,"HouseObjects",1,"stim/objects/HouseObjects/basket.png",3,"left","right",0.779999971,0,0,0
"103",80,103,0.5,"stim/13.jpeg",1,3,1,NA,"HouseObjects",1,"stim/objects/HouseObjects/barbecuelighter.png",1,"left","right",0.787000179,0,0,0
"104",80,104,0.7,"stim/42.jpeg",4,2,2,NA,"HouseObjects",1,"stim/objects/HouseObjects/ballofstring2.png",2,"left","right",0.842999935,0,0,0
"105",80,105,0.3,"stim/32.jpeg",3,2,2,NA,"HouseObjects",1,"stim/objects/HouseObjects/clock.png",3,"left","left",0.81099987,1,1,0
"106",80,106,0.9,"stim/61.jpeg",6,1,3,NA,"HouseObjects",1,"stim/objects/HouseObjects/bucket2.png",3,"left","left",0.572999954,1,1,0
"107",80,107,0.9,"stim/61.jpeg",6,1,3,NA,"HouseObjects",1,"stim/objects/HouseObjects/bucket2.png",3,"left","left",0.459000111,1,1,0
"108",80,108,0.3,"stim/32.jpeg",3,2,2,NA,"HouseObjects",1,"stim/objects/HouseObjects/clock.png",4,"left","right",0.844000101,0,0,0
"109",80,109,0.5,"stim/23.jpeg",2,3,1,NA,"Instruments",2,"stim/objects/Instruments/cello.png",2,"right","",NA,0,0,0
"110",80,110,0.9,"stim/64.jpeg",6,4,3,NA,"HouseObjects",1,"stim/objects/HouseObjects/clothespin2.png",1,"left","left",0.559000015,1,1,0
"111",80,111,0.1,"stim/61.jpeg",6,1,3,NA,"Instruments",2,"stim/objects/Instruments/clarinet2.png",4,"right","left",0.567000151,0,0,0
"112",80,112,0.7,"stim/31.jpeg",3,1,2,NA,"Instruments",2,"stim/objects/Instruments/clarinet.png",3,"right","left",0.725000143,0,0,0
"113",80,113,0.9,"stim/63.jpeg",6,3,3,NA,"HouseObjects",1,"stim/objects/HouseObjects/clothesdryingrack2.png",2,"left","left",0.606999874,1,1,0
"114",80,114,0.9,"stim/51.jpeg",5,1,3,NA,"Instruments",2,"stim/objects/Instruments/bassdrum2.png",4,"right","right",0.539999962,1,1,0
"115",80,115,0.5,"stim/23.jpeg",2,3,1,NA,"HouseObjects",1,"stim/objects/HouseObjects/bottle.png",3,"left","left",0.671000004,1,1,0
"116",80,116,0.9,"stim/53.jpeg",5,3,3,NA,"Instruments",2,"stim/objects/Instruments/cello2.png",1,"right","right",0.773000002,1,1,0
"117",80,117,0.9,"stim/62.jpeg",6,2,3,NA,"HouseObjects",1,"stim/objects/HouseObjects/clock2.png",3,"left","left",0.531999826,1,1,0
"118",80,118,0.3,"stim/41.jpeg",4,1,2,NA,"Instruments",2,"stim/objects/Instruments/accordion2.png",1,"right","left",0.757999897,0,0,0
"119",80,119,0.3,"stim/31.jpeg",3,1,2,NA,"HouseObjects",1,"stim/objects/HouseObjects/bucket.png",2,"left","right",0.919999838,0,0,0
"120",80,120,0.9,"stim/62.jpeg",6,2,3,NA,"HouseObjects",1,"stim/objects/HouseObjects/clock2.png",1,"left","left",0.569000006,1,1,0
"121",80,121,0.7,"stim/44.jpeg",4,4,2,NA,"HouseObjects",1,"stim/objects/HouseObjects/basket2.png",1,"left","left",0.652999878,1,1,0
"122",80,122,0.7,"stim/43.jpeg",4,3,2,NA,"HouseObjects",1,"stim/objects/HouseObjects/barbecuelighter2.png",2,"left","left",0.505000114,1,1,0
"123",80,123,0.9,"stim/63.jpeg",6,3,3,NA,"HouseObjects",1,"stim/objects/HouseObjects/clothesdryingrack2.png",4,"left","left",0.595000029,1,1,0
"124",80,124,0.9,"stim/52.jpeg",5,2,3,NA,"Instruments",2,"stim/objects/Instruments/bassguitar2.png",2,"right","right",0.67599988,1,1,0
"125",80,125,0.5,"stim/13.jpeg",1,3,1,NA,"HouseObjects",1,"stim/objects/HouseObjects/barbecuelighter.png",4,"left","left",0.644000053,1,1,0
"126",80,126,0.7,"stim/33.jpeg",3,3,2,NA,"Instruments",2,"stim/objects/Instruments/cymbal.png",1,"right","right",0.722999811,1,1,0
"127",80,127,0.7,"stim/33.jpeg",3,3,2,NA,"Instruments",2,"stim/objects/Instruments/cymbal.png",3,"right","left",0.54700017,0,0,0
"128",80,128,0.9,"stim/53.jpeg",5,3,3,NA,"Instruments",2,"stim/objects/Instruments/cello2.png",3,"right","",NA,0,0,0
"129",80,129,0.9,"stim/54.jpeg",5,4,3,NA,"Instruments",2,"stim/objects/Instruments/chime2.png",2,"right","right",0.44299984,1,1,0
"130",80,130,0.9,"stim/53.jpeg",5,3,3,NA,"Instruments",2,"stim/objects/Instruments/cello2.png",2,"right","right",0.431999922,1,1,0
"131",80,131,0.9,"stim/62.jpeg",6,2,3,NA,"HouseObjects",1,"stim/objects/HouseObjects/clock2.png",2,"left","left",0.576000214,1,1,0
"132",80,132,0.7,"stim/44.jpeg",4,4,2,NA,"HouseObjects",1,"stim/objects/HouseObjects/basket2.png",2,"left","left",0.884000063,1,1,0
"133",80,133,0.9,"stim/63.jpeg",6,3,3,NA,"HouseObjects",1,"stim/objects/HouseObjects/clothesdryingrack2.png",4,"left","left",0.614000082,1,1,0
"134",80,134,0.9,"stim/51.jpeg",5,1,3,NA,"Instruments",2,"stim/objects/Instruments/bassdrum2.png",1,"right","right",0.732000113,1,1,0
"135",80,135,0.5,"stim/24.jpeg",2,4,1,NA,"HouseObjects",1,"stim/objects/HouseObjects/broom.png",3,"left","left",0.636999846,1,1,0
"136",80,136,0.7,"stim/34.jpeg",3,4,2,NA,"Instruments",2,"stim/objects/Instruments/doublebass.png",4,"right","right",0.907000065,1,1,0
"137",80,137,0.7,"stim/42.jpeg",4,2,2,NA,"HouseObjects",1,"stim/objects/HouseObjects/ballofstring2.png",4,"left","left",0.586999893,1,1,0
"138",80,138,0.1,"stim/64.jpeg",6,4,3,NA,"Instruments",2,"stim/objects/Instruments/doublebass2.png",3,"right","left",0.748000145,0,0,0
"139",80,139,0.5,"stim/23.jpeg",2,3,1,NA,"Instruments",2,"stim/objects/Instruments/cello.png",4,"right","right",0.913999796,1,1,0
"140",80,140,0.7,"stim/42.jpeg",4,2,2,NA,"HouseObjects",1,"stim/objects/HouseObjects/ballofstring2.png",3,"left","left",0.505999804,1,1,0
"141",80,141,0.5,"stim/21.jpeg",2,1,1,NA,"Instruments",2,"stim/objects/Instruments/bassdrum.png",1,"right","left",0.467000008,0,0,0
"142",80,142,0.9,"stim/51.jpeg",5,1,3,NA,"Instruments",2,"stim/objects/Instruments/bassdrum2.png",1,"right","right",0.618999958,1,1,0
"143",80,143,0.7,"stim/34.jpeg",3,4,2,NA,"Instruments",2,"stim/objects/Instruments/doublebass.png",4,"right","left",0.662000179,0,0,0
"144",80,144,0.5,"stim/12.jpeg",1,2,1,NA,"HouseObjects",1,"stim/objects/HouseObjects/ballofstring.png",1,"left","right",0.787999868,0,0,0
"145",80,145,0.9,"stim/63.jpeg",6,3,3,NA,"HouseObjects",1,"stim/objects/HouseObjects/clothesdryingrack2.png",3,"left","right",0.757999897,0,0,0
"146",80,146,0.7,"stim/41.jpeg",4,1,2,NA,"HouseObjects",1,"stim/objects/HouseObjects/ashtray2.png",2,"left","left",0.846000195,1,1,0
"147",80,147,0.7,"stim/34.jpeg",3,4,2,NA,"Instruments",2,"stim/objects/Instruments/doublebass.png",3,"right","right",0.799000025,1,1,0
"148",80,148,0.9,"stim/61.jpeg",6,1,3,NA,"HouseObjects",1,"stim/objects/HouseObjects/bucket2.png",2,"left","left",0.595999956,1,1,0
"149",80,149,0.9,"stim/52.jpeg",5,2,3,NA,"Instruments",2,"stim/objects/Instruments/bassguitar2.png",3,"right","right",0.518999815,1,1,0
"150",80,150,0.9,"stim/62.jpeg",6,2,3,NA,"HouseObjects",1,"stim/objects/HouseObjects/clock2.png",1,"left","left",0.502000093,1,1,0
"151",80,151,0.3,"stim/43.jpeg",4,3,2,NA,"Instruments",2,"stim/objects/Instruments/balalaika2.png",2,"right","left",0.898000002,0,0,0
"152",80,152,0.9,"stim/62.jpeg",6,2,3,NA,"HouseObjects",1,"stim/objects/HouseObjects/clock2.png",3,"left","left",0.624000072,1,1,0
"153",80,153,0.9,"stim/61.jpeg",6,1,3,NA,"HouseObjects",1,"stim/objects/HouseObjects/bucket2.png",2,"left","left",0.527000189,1,1,0
"154",80,154,0.3,"stim/31.jpeg",3,1,2,NA,"HouseObjects",1,"stim/objects/HouseObjects/bucket.png",1,"left","left",0.443000078,1,1,0
"155",80,155,0.9,"stim/52.jpeg",5,2,3,NA,"Instruments",2,"stim/objects/Instruments/bassguitar2.png",1,"right","left",0.427999973,0,0,0
"156",80,156,0.5,"stim/14.jpeg",1,4,1,NA,"HouseObjects",1,"stim/objects/HouseObjects/basket.png",3,"left","right",0.707999945,0,0,0
"157",80,157,0.9,"stim/52.jpeg",5,2,3,NA,"Instruments",2,"stim/objects/Instruments/bassguitar2.png",3,"right","right",0.588999987,1,1,0
"158",80,158,0.7,"stim/43.jpeg",4,3,2,NA,"HouseObjects",1,"stim/objects/HouseObjects/barbecuelighter2.png",1,"left","left",0.796000004,1,1,0
"159",80,159,0.3,"stim/33.jpeg",3,3,2,NA,"HouseObjects",1,"stim/objects/HouseObjects/clothesdryingrack.png",4,"left","right",0.837000132,0,0,0
"160",80,160,0.5,"stim/11.jpeg",1,1,1,NA,"HouseObjects",1,"stim/objects/HouseObjects/ashtray.png",4,"left","",NA,0,0,0
"161",80,161,0.9,"stim/53.jpeg",5,3,3,NA,"Instruments",2,"stim/objects/Instruments/cello2.png",2,"right","right",0.656000137,1,1,0
"162",80,162,0.5,"stim/23.jpeg",2,3,1,NA,"Instruments",2,"stim/objects/Instruments/cello.png",4,"right","left",0.620000124,0,0,0
"163",80,163,0.5,"stim/24.jpeg",2,4,1,NA,"Instruments",2,"stim/objects/Instruments/chime.png",1,"right","right",0.711999893,1,1,0
"164",80,164,0.5,"stim/13.jpeg",1,3,1,NA,"Instruments",2,"stim/objects/Instruments/balalaika.png",4,"right","right",0.532999992,1,1,0
"165",80,165,0.3,"stim/43.jpeg",4,3,2,NA,"Instruments",2,"stim/objects/Instruments/balalaika2.png",1,"right","right",0.672999859,1,1,0
"166",80,166,0.7,"stim/42.jpeg",4,2,2,NA,"HouseObjects",1,"stim/objects/HouseObjects/ballofstring2.png",2,"left","left",0.587000132,1,1,0
"167",80,167,0.3,"stim/44.jpeg",4,4,2,NA,"Instruments",2,"stim/objects/Instruments/banjo2.png",4,"right","left",0.649999857,0,0,0
"168",80,168,0.7,"stim/33.jpeg",3,3,2,NA,"Instruments",2,"stim/objects/Instruments/cymbal.png",2,"right","right",0.725000143,1,1,0
"169",80,169,0.5,"stim/13.jpeg",1,3,1,NA,"HouseObjects",1,"stim/objects/HouseObjects/barbecuelighter.png",1,"left","right",0.611999989,0,0,0
"170",80,170,0.9,"stim/62.jpeg",6,2,3,NA,"HouseObjects",1,"stim/objects/HouseObjects/clock2.png",4,"left","left",0.5849998,1,1,0
"171",80,171,0.5,"stim/23.jpeg",2,3,1,NA,"HouseObjects",1,"stim/objects/HouseObjects/bottle.png",1,"left","left",0.608999968,1,1,0
"172",80,172,0.3,"stim/42.jpeg",4,2,2,NA,"Instruments",2,"stim/objects/Instruments/acousticguitar2.png",3,"right","left",0.612999916,0,0,0
"173",80,173,0.7,"stim/41.jpeg",4,1,2,NA,"HouseObjects",1,"stim/objects/HouseObjects/ashtray2.png",4,"left","left",0.670000076,1,1,0
"174",80,174,0.9,"stim/54.jpeg",5,4,3,NA,"Instruments",2,"stim/objects/Instruments/chime2.png",3,"right","right",0.697999954,1,1,0
"175",80,175,0.5,"stim/13.jpeg",1,3,1,NA,"HouseObjects",1,"stim/objects/HouseObjects/barbecuelighter.png",3,"left","right",0.74000001,0,0,0
"176",80,176,0.9,"stim/54.jpeg",5,4,3,NA,"Instruments",2,"stim/objects/Instruments/chime2.png",3,"right","right",0.583999872,1,1,0
"177",80,177,0.7,"stim/31.jpeg",3,1,2,NA,"Instruments",2,"stim/objects/Instruments/clarinet.png",4,"right","",NA,0,0,0
"178",80,178,0.7,"stim/31.jpeg",3,1,2,NA,"Instruments",2,"stim/objects/Instruments/clarinet.png",1,"right","right",0.612999916,1,1,0
"179",80,179,0.5,"stim/11.jpeg",1,1,1,NA,"HouseObjects",1,"stim/objects/HouseObjects/ashtray.png",2,"left","right",0.715999842,0,0,0
"180",80,180,0.5,"stim/14.jpeg",1,4,1,NA,"HouseObjects",1,"stim/objects/HouseObjects/basket.png",2,"left","left",0.469000101,1,1,0
"181",80,181,0.5,"stim/24.jpeg",2,4,1,NA,"Instruments",2,"stim/objects/Instruments/chime.png",1,"right","left",0.697000027,0,0,0
"182",80,182,0.7,"stim/33.jpeg",3,3,2,NA,"Instruments",2,"stim/objects/Instruments/cymbal.png",1,"right","right",0.753999949,1,1,0
"183",80,183,0.5,"stim/13.jpeg",1,3,1,NA,"HouseObjects",1,"stim/objects/HouseObjects/barbecuelighter.png",3,"left","left",0.752000093,1,1,0
"184",80,184,0.7,"stim/43.jpeg",4,3,2,NA,"HouseObjects",1,"stim/objects/HouseObjects/barbecuelighter2.png",2,"left","",NA,0,0,0
"185",80,185,0.5,"stim/14.jpeg",1,4,1,NA,"Instruments",2,"stim/objects/Instruments/banjo.png",2,"right","left",0.524000168,0,0,0
"186",80,186,0.9,"stim/64.jpeg",6,4,3,NA,"HouseObjects",1,"stim/objects/HouseObjects/clothespin2.png",1,"left","left",0.528000116,1,1,0
"187",80,187,0.7,"stim/41.jpeg",4,1,2,NA,"HouseObjects",1,"stim/objects/HouseObjects/ashtray2.png",4,"left","left",0.650000095,1,1,0
"188",80,188,0.1,"stim/54.jpeg",5,4,3,NA,"HouseObjects",1,"stim/objects/HouseObjects/broom2.png",4,"left","right",0.75999999,0,0,0
"189",80,189,0.9,"stim/63.jpeg",6,3,3,NA,"HouseObjects",1,"stim/objects/HouseObjects/clothesdryingrack2.png",1,"left","left",0.539999962,1,1,0
"190",80,190,0.5,"stim/11.jpeg",1,1,1,NA,"Instruments",2,"stim/objects/Instruments/accordion.png",2,"right","right",0.654000044,1,1,0
"191",80,191,0.7,"stim/44.jpeg",4,4,2,NA,"HouseObjects",1,"stim/objects/HouseObjects/basket2.png",3,"left","left",0.601999998,1,1,0
"192",80,192,0.5,"stim/12.jpeg",1,2,1,NA,"Instruments",2,"stim/objects/Instruments/acousticguitar.png",3,"right","right",0.843999863,1,1,0
"193",80,193,0.5,"stim/11.jpeg",1,1,1,NA,"HouseObjects",1,"stim/objects/HouseObjects/ashtray.png",2,"left","left",0.92599988,1,1,0
"194",80,194,0.7,"stim/34.jpeg",3,4,2,NA,"Instruments",2,"stim/objects/Instruments/doublebass.png",3,"right","right",0.670000076,1,1,0
"195",80,195,0.9,"stim/53.jpeg",5,3,3,NA,"Instruments",2,"stim/objects/Instruments/cello2.png",1,"right","right",0.568000078,1,1,0
"196",80,196,0.9,"stim/64.jpeg",6,4,3,NA,"HouseObjects",1,"stim/objects/HouseObjects/clothespin2.png",3,"left","left",0.541999817,1,1,0
"197",80,197,0.3,"stim/31.jpeg",3,1,2,NA,"HouseObjects",1,"stim/objects/HouseObjects/bucket.png",3,"left","right",0.839999914,0,0,0
"198",80,198,0.5,"stim/24.jpeg",2,4,1,NA,"Instruments",2,"stim/objects/Instruments/chime.png",1,"right","left",0.635999918,0,0,0
"199",80,199,0.5,"stim/21.jpeg",2,1,1,NA,"HouseObjects",1,"stim/objects/HouseObjects/bleachbottle.png",1,"left","",NA,0,0,0
"200",80,200,0.5,"stim/12.jpeg",1,2,1,NA,"Instruments",2,"stim/objects/Instruments/acousticguitar.png",2,"right","",NA,0,0,0
"201",80,201,0.7,"stim/43.jpeg",4,3,2,NA,"HouseObjects",1,"stim/objects/HouseObjects/barbecuelighter2.png",4,"left","left",0.566999912,1,1,0
"202",80,202,0.9,"stim/54.jpeg",5,4,3,NA,"Instruments",2,"stim/objects/Instruments/chime2.png",1,"right","right",0.631000042,1,1,0
"203",80,203,0.7,"stim/42.jpeg",4,2,2,NA,"HouseObjects",1,"stim/objects/HouseObjects/ballofstring2.png",2,"left","left",0.697000027,1,1,0
"204",80,204,0.7,"stim/32.jpeg",3,2,2,NA,"Instruments",2,"stim/objects/Instruments/cornet.png",2,"right","",NA,0,0,0
"205",80,205,0.7,"stim/41.jpeg",4,1,2,NA,"HouseObjects",1,"stim/objects/HouseObjects/ashtray2.png",4,"left","left",0.579999924,1,1,0
"206",80,206,0.9,"stim/54.jpeg",5,4,3,NA,"Instruments",2,"stim/objects/Instruments/chime2.png",2,"right","right",0.56099987,1,1,0
"207",80,207,0.5,"stim/22.jpeg",2,2,1,NA,"HouseObjects",1,"stim/objects/HouseObjects/blender.png",4,"left","left",0.747999907,1,1,0
"208",80,208,0.3,"stim/34.jpeg",3,4,2,NA,"HouseObjects",1,"stim/objects/HouseObjects/clothespin.png",1,"left","left",0.712000132,1,1,0
"209",80,209,0.9,"stim/53.jpeg",5,3,3,NA,"Instruments",2,"stim/objects/Instruments/cello2.png",1,"right","right",0.637000084,1,1,0
"210",80,210,0.5,"stim/22.jpeg",2,2,1,NA,"Instruments",2,"stim/objects/Instruments/bassguitar.png",1,"right","left",0.677999973,0,0,0
"211",80,211,0.9,"stim/64.jpeg",6,4,3,NA,"HouseObjects",1,"stim/objects/HouseObjects/clothespin2.png",1,"left","left",0.748000145,1,1,0
"212",80,212,0.9,"stim/54.jpeg",5,4,3,NA,"Instruments",2,"stim/objects/Instruments/chime2.png",4,"right","right",0.878000021,1,1,0
"213",80,213,0.9,"stim/63.jpeg",6,3,3,NA,"HouseObjects",1,"stim/objects/HouseObjects/clothesdryingrack2.png",2,"left","left",0.542999983,1,1,0
"214",80,214,0.1,"stim/51.jpeg",5,1,3,NA,"HouseObjects",1,"stim/objects/HouseObjects/bleachbottle2.png",1,"left","right",0.585999966,0,0,0
"215",80,215,0.7,"stim/44.jpeg",4,4,2,NA,"HouseObjects",1,"stim/objects/HouseObjects/basket2.png",4,"left","",NA,0,0,0
"216",80,216,0.7,"stim/32.jpeg",3,2,2,NA,"Instruments",2,"stim/objects/Instruments/cornet.png",1,"right","left",0.544000149,0,0,0
"217",80,217,0.5,"stim/24.jpeg",2,4,1,NA,"HouseObjects",1,"stim/objects/HouseObjects/broom.png",4,"left","right",0.905999899,0,0,0
"218",80,218,0.5,"stim/13.jpeg",1,3,1,NA,"Instruments",2,"stim/objects/Instruments/balalaika.png",2,"right","left",0.755999804,0,0,0
"219",80,219,0.7,"stim/33.jpeg",3,3,2,NA,"Instruments",2,"stim/objects/Instruments/cymbal.png",3,"right","",NA,0,0,0
"220",80,220,0.9,"stim/51.jpeg",5,1,3,NA,"Instruments",2,"stim/objects/Instruments/bassdrum2.png",4,"right","right",0.496000051,1,1,0
"221",80,221,0.5,"stim/23.jpeg",2,3,1,NA,"HouseObjects",1,"stim/objects/HouseObjects/bottle.png",1,"left","left",0.61500001,1,1,0
"222",80,222,0.9,"stim/62.jpeg",6,2,3,NA,"HouseObjects",1,"stim/objects/HouseObjects/clock2.png",3,"left","left",0.440999985,1,1,0
"223",80,223,0.7,"stim/41.jpeg",4,1,2,NA,"HouseObjects",1,"stim/objects/HouseObjects/ashtray2.png",2,"left","right",0.609999895,0,0,0
"224",80,224,0.9,"stim/61.jpeg",6,1,3,NA,"HouseObjects",1,"stim/objects/HouseObjects/bucket2.png",1,"left","left",0.523999929,1,1,0
"225",80,225,0.7,"stim/32.jpeg",3,2,2,NA,"Instruments",2,"stim/objects/Instruments/cornet.png",4,"right","right",0.447000027,1,1,0
"226",80,226,0.7,"stim/43.jpeg",4,3,2,NA,"HouseObjects",1,"stim/objects/HouseObjects/barbecuelighter2.png",4,"left","left",0.614000082,1,1,0
"227",80,227,0.9,"stim/62.jpeg",6,2,3,NA,"HouseObjects",1,"stim/objects/HouseObjects/clock2.png",4,"left","left",0.498999834,1,1,0
"228",80,228,0.7,"stim/44.jpeg",4,4,2,NA,"HouseObjects",1,"stim/objects/HouseObjects/basket2.png",3,"left","left",0.582000017,1,1,0
"229",80,229,0.5,"stim/24.jpeg",2,4,1,NA,"Instruments",2,"stim/objects/Instruments/chime.png",4,"right","left",0.74000001,0,0,0
"230",80,230,0.9,"stim/51.jpeg",5,1,3,NA,"Instruments",2,"stim/objects/Instruments/bassdrum2.png",1,"right","right",0.529000044,1,1,0
"231",80,231,0.3,"stim/44.jpeg",4,4,2,NA,"Instruments",2,"stim/objects/Instruments/banjo2.png",1,"right","left",0.715999842,0,0,0
"232",80,232,0.9,"stim/54.jpeg",5,4,3,NA,"Instruments",2,"stim/objects/Instruments/chime2.png",4,"right","right",0.727999926,1,1,0
"233",80,233,0.5,"stim/23.jpeg",2,3,1,NA,"Instruments",2,"stim/objects/Instruments/cello.png",4,"right","left",0.59100008,0,0,0
"234",80,234,0.7,"stim/32.jpeg",3,2,2,NA,"Instruments",2,"stim/objects/Instruments/cornet.png",3,"right","right",0.92599988,1,1,0
"235",80,235,0.5,"stim/12.jpeg",1,2,1,NA,"HouseObjects",1,"stim/objects/HouseObjects/ballofstring.png",2,"left","left",0.588000059,1,1,0
"236",80,236,0.5,"stim/21.jpeg",2,1,1,NA,"HouseObjects",1,"stim/objects/HouseObjects/bleachbottle.png",4,"left","left",0.636999846,1,1,0
"237",80,237,0.1,"stim/62.jpeg",6,2,3,NA,"Instruments",2,"stim/objects/Instruments/cornet2.png",1,"right","left",0.539000034,0,0,0
"238",80,238,0.5,"stim/11.jpeg",1,1,1,NA,"HouseObjects",1,"stim/objects/HouseObjects/ashtray.png",2,"left","",NA,0,0,0
"239",80,239,0.5,"stim/23.jpeg",2,3,1,NA,"Instruments",2,"stim/objects/Instruments/cello.png",3,"right","",NA,0,0,0
"240",80,240,0.5,"stim/12.jpeg",1,2,1,NA,"HouseObjects",1,"stim/objects/HouseObjects/ballofstring.png",4,"left","right",0.623999834,0,0,0
