"","obj_file","X.x","participant.x","trialN.x","trial_cond","scn_file.x","scn_cat","scn_inst","scn_condition","fillers","obj_cat","obj_cat_num","quadrant","corr_ans","key_resp_trial.keys","key_resp_trial.rt","trial_acc","trial_acc_manual","group.x","practice","X.y","participant.y","OvsN","PE_level","object_cat","scn_file.y","corr_scn_cat","corr_scn_inst","scn_file.1","corr_loc","key_resp_id.keys","key_resp_id.rt","key_resp_conf.keys","key_resp_assoc.keys","key_resp_assoc.rt","key_resp_loc.keys","key_resp_loc.rt","trialN.y","id_acc","assoc.acc","cond_assoc","loc.acc","cond_loc","group.y"
"30","stim/objects/HouseObjects/barbecuelighter2.png",1,15,1,0.7,"stim/43.jpeg",4,3,2,NA,"HouseObjects",1,2,"left","",NA,0,0,1,1,NA,NA,NA,NA,NA,NA,NA,NA,NA,NA,NA,NA,NA,NA,NA,NA,NA,NA,NA,NA,NA,NA,NA,NA
"100","stim/objects/HouseObjects/clothesdryingrack2.png",2,15,2,0.9,"stim/63.jpeg",6,3,3,NA,"HouseObjects",1,2,"left","left",0.724999905,1,1,1,1,NA,NA,NA,NA,NA,NA,NA,NA,NA,NA,NA,NA,NA,NA,NA,NA,NA,NA,NA,NA,NA,NA,NA,NA
"112","stim/objects/HouseObjects/clothespin2.png",3,15,3,0.9,"stim/64.jpeg",6,4,3,NA,"HouseObjects",1,3,"left","left",0.677999973,1,1,1,1,NA,NA,NA,NA,NA,NA,NA,NA,NA,NA,NA,NA,NA,NA,NA,NA,NA,NA,NA,NA,NA,NA,NA,NA
"54","stim/objects/HouseObjects/bleachbottle2.png",4,15,4,0.1,"stim/51.jpeg",5,1,3,NA,"HouseObjects",1,1,"left","right",0.809999943,0,0,1,1,NA,NA,NA,NA,NA,NA,NA,NA,NA,NA,NA,NA,NA,NA,NA,NA,NA,NA,NA,NA,NA,NA,NA,NA
"101","stim/objects/HouseObjects/clothesdryingrack2.png",5,15,5,0.9,"stim/63.jpeg",6,3,3,NA,"HouseObjects",1,2,"left","left",0.579999924,1,1,1,1,NA,NA,NA,NA,NA,NA,NA,NA,NA,NA,NA,NA,NA,NA,NA,NA,NA,NA,NA,NA,NA,NA,NA,NA
"66","stim/objects/HouseObjects/bottle2.png",6,15,6,0.1,"stim/53.jpeg",5,3,3,NA,"HouseObjects",1,2,"left","right",0.616999865,0,0,1,1,NA,NA,NA,NA,NA,NA,NA,NA,NA,NA,NA,NA,NA,NA,NA,NA,NA,NA,NA,NA,NA,NA,NA,NA
"172","stim/objects/Instruments/bassguitar2.png",7,15,7,0.9,"stim/52.jpeg",5,2,3,NA,"Instruments",2,3,"right","",NA,0,0,1,1,NA,NA,NA,NA,NA,NA,NA,NA,NA,NA,NA,NA,NA,NA,NA,NA,NA,NA,NA,NA,NA,NA,NA,NA
"129","stim/objects/Instruments/acousticguitar.png",8,15,8,0.5,"stim/12.jpeg",1,2,1,NA,"Instruments",2,3,"right","",NA,0,0,1,1,NA,NA,NA,NA,NA,NA,NA,NA,NA,NA,NA,NA,NA,NA,NA,NA,NA,NA,NA,NA,NA,NA,NA,NA
"225","stim/objects/Instruments/cymbal.png",9,15,9,0.7,"stim/33.jpeg",3,3,2,NA,"Instruments",2,3,"right","left",0.805000067,0,0,1,1,NA,NA,NA,NA,NA,NA,NA,NA,NA,NA,NA,NA,NA,NA,NA,NA,NA,NA,NA,NA,NA,NA,NA,NA
"88","stim/objects/HouseObjects/clock2.png",10,15,10,0.9,"stim/62.jpeg",6,2,3,NA,"HouseObjects",1,1,"left","left",0.557999849,1,1,1,1,NA,NA,NA,NA,NA,NA,NA,NA,NA,NA,NA,NA,NA,NA,NA,NA,NA,NA,NA,NA,NA,NA,NA,NA
"85","stim/objects/HouseObjects/clock.png",11,15,11,0.3,"stim/32.jpeg",3,2,2,NA,"HouseObjects",1,2,"left","left",0.532999992,1,1,1,1,NA,NA,NA,NA,NA,NA,NA,NA,NA,NA,NA,NA,NA,NA,NA,NA,NA,NA,NA,NA,NA,NA,NA,NA
"134","stim/objects/Instruments/acousticguitar2.png",12,15,12,0.3,"stim/42.jpeg",4,2,2,NA,"Instruments",2,3,"right","left",0.690000057,0,0,1,1,NA,NA,NA,NA,NA,NA,NA,NA,NA,NA,NA,NA,NA,NA,NA,NA,NA,NA,NA,NA,NA,NA,NA,NA
"31","stim/objects/HouseObjects/barbecuelighter2.png",13,15,13,0.7,"stim/43.jpeg",4,3,2,NA,"HouseObjects",1,2,"left","right",0.554000139,0,0,1,1,NA,NA,NA,NA,NA,NA,NA,NA,NA,NA,NA,NA,NA,NA,NA,NA,NA,NA,NA,NA,NA,NA,NA,NA
"195","stim/objects/Instruments/chime.png",14,15,14,0.5,"stim/24.jpeg",2,4,1,NA,"Instruments",2,3,"right","left",0.638000011,0,0,1,1,NA,NA,NA,NA,NA,NA,NA,NA,NA,NA,NA,NA,NA,NA,NA,NA,NA,NA,NA,NA,NA,NA,NA,NA
"145","stim/objects/Instruments/banjo.png",15,15,15,0.5,"stim/14.jpeg",1,4,1,NA,"Instruments",2,3,"right","left",0.651000023,0,0,1,1,NA,NA,NA,NA,NA,NA,NA,NA,NA,NA,NA,NA,NA,NA,NA,NA,NA,NA,NA,NA,NA,NA,NA,NA
"97","stim/objects/HouseObjects/clothesdryingrack.png",16,15,16,0.3,"stim/33.jpeg",3,3,2,NA,"HouseObjects",1,3,"left","right",0.858999968,0,0,1,1,NA,NA,NA,NA,NA,NA,NA,NA,NA,NA,NA,NA,NA,NA,NA,NA,NA,NA,NA,NA,NA,NA,NA,NA
"25","stim/objects/HouseObjects/barbecuelighter.png",17,15,17,0.5,"stim/13.jpeg",1,3,1,NA,"HouseObjects",1,3,"left","left",0.832000017,1,1,1,1,NA,NA,NA,NA,NA,NA,NA,NA,NA,NA,NA,NA,NA,NA,NA,NA,NA,NA,NA,NA,NA,NA,NA,NA
"209","stim/objects/Instruments/clarinet.png",18,15,18,0.7,"stim/31.jpeg",3,1,2,NA,"Instruments",2,3,"right","left",0.655999899,0,0,1,1,NA,NA,NA,NA,NA,NA,NA,NA,NA,NA,NA,NA,NA,NA,NA,NA,NA,NA,NA,NA,NA,NA,NA,NA
"135","stim/objects/Instruments/acousticguitar2.png",19,15,19,0.3,"stim/42.jpeg",4,2,2,NA,"Instruments",2,2,"right","left",0.565000057,0,0,1,1,NA,NA,NA,NA,NA,NA,NA,NA,NA,NA,NA,NA,NA,NA,NA,NA,NA,NA,NA,NA,NA,NA,NA,NA
"49","stim/objects/HouseObjects/bleachbottle.png",20,15,20,0.5,"stim/21.jpeg",2,1,1,NA,"HouseObjects",1,3,"left","left",0.761000156,1,1,1,1,NA,NA,NA,NA,NA,NA,NA,NA,NA,NA,NA,NA,NA,NA,NA,NA,NA,NA,NA,NA,NA,NA,NA,NA
"181","stim/objects/Instruments/cello.png",21,15,21,0.5,"stim/23.jpeg",2,3,1,NA,"Instruments",2,4,"right","",NA,0,0,1,1,NA,NA,NA,NA,NA,NA,NA,NA,NA,NA,NA,NA,NA,NA,NA,NA,NA,NA,NA,NA,NA,NA,NA,NA
"210","stim/objects/Instruments/clarinet.png",22,15,22,0.7,"stim/31.jpeg",3,1,2,NA,"Instruments",2,4,"right","right",0.680999994,1,1,1,1,NA,NA,NA,NA,NA,NA,NA,NA,NA,NA,NA,NA,NA,NA,NA,NA,NA,NA,NA,NA,NA,NA,NA,NA
"126","stim/objects/Instruments/accordion2.png",23,15,23,0.3,"stim/41.jpeg",4,1,2,NA,"Instruments",2,3,"right","left",0.514000177,0,0,1,1,NA,NA,NA,NA,NA,NA,NA,NA,NA,NA,NA,NA,NA,NA,NA,NA,NA,NA,NA,NA,NA,NA,NA,NA
"76","stim/objects/HouseObjects/bucket2.png",24,15,24,0.9,"stim/61.jpeg",6,1,3,NA,"HouseObjects",1,2,"left","left",0.496000051,1,1,1,1,NA,NA,NA,NA,NA,NA,NA,NA,NA,NA,NA,NA,NA,NA,NA,NA,NA,NA,NA,NA,NA,NA,NA,NA
"77","stim/objects/HouseObjects/bucket2.png",25,15,25,0.9,"stim/61.jpeg",6,1,3,NA,"HouseObjects",1,4,"left","left",0.495000124,1,1,1,1,NA,NA,NA,NA,NA,NA,NA,NA,NA,NA,NA,NA,NA,NA,NA,NA,NA,NA,NA,NA,NA,NA,NA,NA
"113","stim/objects/HouseObjects/clothespin2.png",26,15,26,0.9,"stim/64.jpeg",6,4,3,NA,"HouseObjects",1,3,"left","left",0.478999853,1,1,1,1,NA,NA,NA,NA,NA,NA,NA,NA,NA,NA,NA,NA,NA,NA,NA,NA,NA,NA,NA,NA,NA,NA,NA,NA
"158","stim/objects/Instruments/bassdrum2.png",27,15,27,0.9,"stim/51.jpeg",5,1,3,NA,"Instruments",2,1,"right","right",0.443000078,1,1,1,1,NA,NA,NA,NA,NA,NA,NA,NA,NA,NA,NA,NA,NA,NA,NA,NA,NA,NA,NA,NA,NA,NA,NA,NA
"55","stim/objects/HouseObjects/blender.png",28,15,28,0.5,"stim/22.jpeg",2,2,1,NA,"HouseObjects",1,2,"left","left",0.515000105,1,1,1,1,NA,NA,NA,NA,NA,NA,NA,NA,NA,NA,NA,NA,NA,NA,NA,NA,NA,NA,NA,NA,NA,NA,NA,NA
"37","stim/objects/HouseObjects/basket.png",29,15,29,0.5,"stim/14.jpeg",1,4,1,NA,"HouseObjects",1,3,"left","left",0.558000088,1,1,1,1,NA,NA,NA,NA,NA,NA,NA,NA,NA,NA,NA,NA,NA,NA,NA,NA,NA,NA,NA,NA,NA,NA,NA,NA
"26","stim/objects/HouseObjects/barbecuelighter.png",30,15,30,0.5,"stim/13.jpeg",1,3,1,NA,"HouseObjects",1,1,"left","left",0.75999999,1,1,1,1,NA,NA,NA,NA,NA,NA,NA,NA,NA,NA,NA,NA,NA,NA,NA,NA,NA,NA,NA,NA,NA,NA,NA,NA
"167","stim/objects/Instruments/bassguitar.png",31,15,31,0.5,"stim/22.jpeg",2,2,1,NA,"Instruments",2,1,"right","left",0.684999943,0,0,1,1,NA,NA,NA,NA,NA,NA,NA,NA,NA,NA,NA,NA,NA,NA,NA,NA,NA,NA,NA,NA,NA,NA,NA,NA
"102","stim/objects/HouseObjects/clothesdryingrack2.png",32,15,32,0.9,"stim/63.jpeg",6,3,3,NA,"HouseObjects",1,4,"left","left",0.633999825,1,1,1,1,NA,NA,NA,NA,NA,NA,NA,NA,NA,NA,NA,NA,NA,NA,NA,NA,NA,NA,NA,NA,NA,NA,NA,NA
"173","stim/objects/Instruments/bassguitar2.png",33,15,33,0.9,"stim/52.jpeg",5,2,3,NA,"Instruments",2,3,"right","right",0.592000008,1,1,1,1,NA,NA,NA,NA,NA,NA,NA,NA,NA,NA,NA,NA,NA,NA,NA,NA,NA,NA,NA,NA,NA,NA,NA,NA
"153","stim/objects/Instruments/bassdrum.png",34,15,34,0.5,"stim/21.jpeg",2,1,1,NA,"Instruments",2,1,"right","left",0.6650002,0,0,1,1,NA,NA,NA,NA,NA,NA,NA,NA,NA,NA,NA,NA,NA,NA,NA,NA,NA,NA,NA,NA,NA,NA,NA,NA
"42","stim/objects/HouseObjects/basket2.png",35,15,35,0.7,"stim/44.jpeg",4,4,2,NA,"HouseObjects",1,3,"left","left",0.603999853,1,1,1,1,NA,NA,NA,NA,NA,NA,NA,NA,NA,NA,NA,NA,NA,NA,NA,NA,NA,NA,NA,NA,NA,NA,NA,NA
"109","stim/objects/HouseObjects/clothespin.png",36,15,36,0.3,"stim/34.jpeg",3,4,2,NA,"HouseObjects",1,1,"left","right",0.802999973,0,0,1,1,NA,NA,NA,NA,NA,NA,NA,NA,NA,NA,NA,NA,NA,NA,NA,NA,NA,NA,NA,NA,NA,NA,NA,NA
"13","stim/objects/HouseObjects/ballofstring.png",37,15,37,0.5,"stim/12.jpeg",1,2,1,NA,"HouseObjects",1,1,"left","left",0.595000029,1,1,1,1,NA,NA,NA,NA,NA,NA,NA,NA,NA,NA,NA,NA,NA,NA,NA,NA,NA,NA,NA,NA,NA,NA,NA,NA
"89","stim/objects/HouseObjects/clock2.png",38,15,38,0.9,"stim/62.jpeg",6,2,3,NA,"HouseObjects",1,2,"left","left",0.597000122,1,1,1,1,NA,NA,NA,NA,NA,NA,NA,NA,NA,NA,NA,NA,NA,NA,NA,NA,NA,NA,NA,NA,NA,NA,NA,NA
"174","stim/objects/Instruments/bassguitar2.png",39,15,39,0.9,"stim/52.jpeg",5,2,3,NA,"Instruments",2,1,"right","right",0.604000092,1,1,1,1,NA,NA,NA,NA,NA,NA,NA,NA,NA,NA,NA,NA,NA,NA,NA,NA,NA,NA,NA,NA,NA,NA,NA,NA
"90","stim/objects/HouseObjects/clock2.png",40,15,40,0.9,"stim/62.jpeg",6,2,3,NA,"HouseObjects",1,1,"left","left",0.572000027,1,1,1,1,NA,NA,NA,NA,NA,NA,NA,NA,NA,NA,NA,NA,NA,NA,NA,NA,NA,NA,NA,NA,NA,NA,NA,NA
"142","stim/objects/Instruments/balalaika2.png",41,15,41,0.3,"stim/43.jpeg",4,3,2,NA,"Instruments",2,1,"right","left",0.556999922,0,0,1,1,NA,NA,NA,NA,NA,NA,NA,NA,NA,NA,NA,NA,NA,NA,NA,NA,NA,NA,NA,NA,NA,NA,NA,NA
"27","stim/objects/HouseObjects/barbecuelighter.png",42,15,42,0.5,"stim/13.jpeg",1,3,1,NA,"HouseObjects",1,4,"left","left",0.820999861,1,1,1,1,NA,NA,NA,NA,NA,NA,NA,NA,NA,NA,NA,NA,NA,NA,NA,NA,NA,NA,NA,NA,NA,NA,NA,NA
"233","stim/objects/Instruments/doublebass.png",43,15,43,0.7,"stim/34.jpeg",3,4,2,NA,"Instruments",2,1,"right","right",0.599999905,1,1,1,1,NA,NA,NA,NA,NA,NA,NA,NA,NA,NA,NA,NA,NA,NA,NA,NA,NA,NA,NA,NA,NA,NA,NA,NA
"6","stim/objects/HouseObjects/ashtray2.png",44,15,44,0.7,"stim/41.jpeg",4,1,2,NA,"HouseObjects",1,4,"left","left",0.553999901,1,1,1,1,NA,NA,NA,NA,NA,NA,NA,NA,NA,NA,NA,NA,NA,NA,NA,NA,NA,NA,NA,NA,NA,NA,NA,NA
"60","stim/objects/HouseObjects/blender2.png",45,15,45,0.1,"stim/52.jpeg",5,2,3,NA,"HouseObjects",1,3,"left","right",0.611999989,0,0,1,1,NA,NA,NA,NA,NA,NA,NA,NA,NA,NA,NA,NA,NA,NA,NA,NA,NA,NA,NA,NA,NA,NA,NA,NA
"114","stim/objects/HouseObjects/clothespin2.png",46,15,46,0.9,"stim/64.jpeg",6,4,3,NA,"HouseObjects",1,4,"left","left",0.542000055,1,1,1,1,NA,NA,NA,NA,NA,NA,NA,NA,NA,NA,NA,NA,NA,NA,NA,NA,NA,NA,NA,NA,NA,NA,NA,NA
"217","stim/objects/Instruments/cornet.png",47,15,47,0.7,"stim/32.jpeg",3,2,2,NA,"Instruments",2,2,"right","right",0.694999933,1,1,1,1,NA,NA,NA,NA,NA,NA,NA,NA,NA,NA,NA,NA,NA,NA,NA,NA,NA,NA,NA,NA,NA,NA,NA,NA
"91","stim/objects/HouseObjects/clock2.png",48,15,48,0.9,"stim/62.jpeg",6,2,3,NA,"HouseObjects",1,3,"left","left",0.497999907,1,1,1,1,NA,NA,NA,NA,NA,NA,NA,NA,NA,NA,NA,NA,NA,NA,NA,NA,NA,NA,NA,NA,NA,NA,NA,NA
"130","stim/objects/Instruments/acousticguitar.png",49,15,49,0.5,"stim/12.jpeg",1,2,1,NA,"Instruments",2,2,"right","left",0.656999826,0,0,1,1,NA,NA,NA,NA,NA,NA,NA,NA,NA,NA,NA,NA,NA,NA,NA,NA,NA,NA,NA,NA,NA,NA,NA,NA
"200","stim/objects/Instruments/chime2.png",50,15,50,0.9,"stim/54.jpeg",5,4,3,NA,"Instruments",2,4,"right","right",0.670000076,1,1,1,1,NA,NA,NA,NA,NA,NA,NA,NA,NA,NA,NA,NA,NA,NA,NA,NA,NA,NA,NA,NA,NA,NA,NA,NA
"43","stim/objects/HouseObjects/basket2.png",51,15,51,0.7,"stim/44.jpeg",4,4,2,NA,"HouseObjects",1,3,"left","left",0.796000004,1,1,1,1,NA,NA,NA,NA,NA,NA,NA,NA,NA,NA,NA,NA,NA,NA,NA,NA,NA,NA,NA,NA,NA,NA,NA,NA
"50","stim/objects/HouseObjects/bleachbottle.png",52,15,52,0.5,"stim/21.jpeg",2,1,1,NA,"HouseObjects",1,4,"left","left",0.705999851,1,1,1,1,NA,NA,NA,NA,NA,NA,NA,NA,NA,NA,NA,NA,NA,NA,NA,NA,NA,NA,NA,NA,NA,NA,NA,NA
"44","stim/objects/HouseObjects/basket2.png",53,15,53,0.7,"stim/44.jpeg",4,4,2,NA,"HouseObjects",1,1,"left","left",0.618000031,1,1,1,1,NA,NA,NA,NA,NA,NA,NA,NA,NA,NA,NA,NA,NA,NA,NA,NA,NA,NA,NA,NA,NA,NA,NA,NA
"92","stim/objects/HouseObjects/clock2.png",54,15,54,0.9,"stim/62.jpeg",6,2,3,NA,"HouseObjects",1,3,"left","left",0.485000134,1,1,1,1,NA,NA,NA,NA,NA,NA,NA,NA,NA,NA,NA,NA,NA,NA,NA,NA,NA,NA,NA,NA,NA,NA,NA,NA
"218","stim/objects/Instruments/cornet.png",55,15,55,0.7,"stim/32.jpeg",3,2,2,NA,"Instruments",2,2,"right","right",0.669000149,1,1,1,1,NA,NA,NA,NA,NA,NA,NA,NA,NA,NA,NA,NA,NA,NA,NA,NA,NA,NA,NA,NA,NA,NA,NA,NA
"201","stim/objects/Instruments/chime2.png",56,15,56,0.9,"stim/54.jpeg",5,4,3,NA,"Instruments",2,4,"right","right",0.56799984,1,1,1,1,NA,NA,NA,NA,NA,NA,NA,NA,NA,NA,NA,NA,NA,NA,NA,NA,NA,NA,NA,NA,NA,NA,NA,NA
"202","stim/objects/Instruments/chime2.png",57,15,57,0.9,"stim/54.jpeg",5,4,3,NA,"Instruments",2,2,"right","right",0.61500001,1,1,1,1,NA,NA,NA,NA,NA,NA,NA,NA,NA,NA,NA,NA,NA,NA,NA,NA,NA,NA,NA,NA,NA,NA,NA,NA
"67","stim/objects/HouseObjects/broom.png",58,15,58,0.5,"stim/24.jpeg",2,4,1,NA,"HouseObjects",1,4,"left","left",0.660000086,1,1,1,1,NA,NA,NA,NA,NA,NA,NA,NA,NA,NA,NA,NA,NA,NA,NA,NA,NA,NA,NA,NA,NA,NA,NA,NA
"103","stim/objects/HouseObjects/clothesdryingrack2.png",59,15,59,0.9,"stim/63.jpeg",6,3,3,NA,"HouseObjects",1,1,"left","left",0.559000015,1,1,1,1,NA,NA,NA,NA,NA,NA,NA,NA,NA,NA,NA,NA,NA,NA,NA,NA,NA,NA,NA,NA,NA,NA,NA,NA
"73","stim/objects/HouseObjects/bucket.png",60,15,60,0.3,"stim/31.jpeg",3,1,2,NA,"HouseObjects",1,2,"left","right",0.781999826,0,0,1,1,NA,NA,NA,NA,NA,NA,NA,NA,NA,NA,NA,NA,NA,NA,NA,NA,NA,NA,NA,NA,NA,NA,NA,NA
"61","stim/objects/HouseObjects/bottle.png",61,15,61,0.5,"stim/23.jpeg",2,3,1,NA,"HouseObjects",1,1,"left","left",0.636999846,1,1,1,1,NA,NA,NA,NA,NA,NA,NA,NA,NA,NA,NA,NA,NA,NA,NA,NA,NA,NA,NA,NA,NA,NA,NA,NA
"226","stim/objects/Instruments/cymbal.png",62,15,62,0.7,"stim/33.jpeg",3,3,2,NA,"Instruments",2,2,"right","right",0.673000097,1,1,1,1,NA,NA,NA,NA,NA,NA,NA,NA,NA,NA,NA,NA,NA,NA,NA,NA,NA,NA,NA,NA,NA,NA,NA,NA
"182","stim/objects/Instruments/cello.png",63,15,63,0.5,"stim/23.jpeg",2,3,1,NA,"Instruments",2,4,"right","left",0.555999994,0,0,1,1,NA,NA,NA,NA,NA,NA,NA,NA,NA,NA,NA,NA,NA,NA,NA,NA,NA,NA,NA,NA,NA,NA,NA,NA
"28","stim/objects/HouseObjects/barbecuelighter.png",64,15,64,0.5,"stim/13.jpeg",1,3,1,NA,"HouseObjects",1,3,"left","left",0.571000099,1,1,1,1,NA,NA,NA,NA,NA,NA,NA,NA,NA,NA,NA,NA,NA,NA,NA,NA,NA,NA,NA,NA,NA,NA,NA,NA
"219","stim/objects/Instruments/cornet.png",65,15,65,0.7,"stim/32.jpeg",3,2,2,NA,"Instruments",2,4,"right","right",0.580999851,1,1,1,1,NA,NA,NA,NA,NA,NA,NA,NA,NA,NA,NA,NA,NA,NA,NA,NA,NA,NA,NA,NA,NA,NA,NA,NA
"115","stim/objects/HouseObjects/clothespin2.png",66,15,66,0.9,"stim/64.jpeg",6,4,3,NA,"HouseObjects",1,1,"left","left",0.688999891,1,1,1,1,NA,NA,NA,NA,NA,NA,NA,NA,NA,NA,NA,NA,NA,NA,NA,NA,NA,NA,NA,NA,NA,NA,NA,NA
"98","stim/objects/HouseObjects/clothesdryingrack.png",67,15,67,0.3,"stim/33.jpeg",3,3,2,NA,"HouseObjects",1,4,"left","left",0.697999954,1,1,1,1,NA,NA,NA,NA,NA,NA,NA,NA,NA,NA,NA,NA,NA,NA,NA,NA,NA,NA,NA,NA,NA,NA,NA,NA
"216","stim/objects/Instruments/clarinet2.png",68,15,68,0.1,"stim/61.jpeg",6,1,3,NA,"Instruments",2,4,"right","left",0.678999901,0,0,1,1,NA,NA,NA,NA,NA,NA,NA,NA,NA,NA,NA,NA,NA,NA,NA,NA,NA,NA,NA,NA,NA,NA,NA,NA
"1","stim/objects/HouseObjects/ashtray.png",69,15,69,0.5,"stim/11.jpeg",1,1,1,NA,"HouseObjects",1,2,"left","",NA,0,0,1,1,NA,NA,NA,NA,NA,NA,NA,NA,NA,NA,NA,NA,NA,NA,NA,NA,NA,NA,NA,NA,NA,NA,NA,NA
"175","stim/objects/Instruments/bassguitar2.png",70,15,70,0.9,"stim/52.jpeg",5,2,3,NA,"Instruments",2,2,"right","right",0.563000202,1,1,1,1,NA,NA,NA,NA,NA,NA,NA,NA,NA,NA,NA,NA,NA,NA,NA,NA,NA,NA,NA,NA,NA,NA,NA,NA
"146","stim/objects/Instruments/banjo.png",71,15,71,0.5,"stim/14.jpeg",1,4,1,NA,"Instruments",2,1,"right","left",0.744999886,0,0,1,1,NA,NA,NA,NA,NA,NA,NA,NA,NA,NA,NA,NA,NA,NA,NA,NA,NA,NA,NA,NA,NA,NA,NA,NA
"159","stim/objects/Instruments/bassdrum2.png",72,15,72,0.9,"stim/51.jpeg",5,1,3,NA,"Instruments",2,1,"right","right",0.621999979,1,1,1,1,NA,NA,NA,NA,NA,NA,NA,NA,NA,NA,NA,NA,NA,NA,NA,NA,NA,NA,NA,NA,NA,NA,NA,NA
"18","stim/objects/HouseObjects/ballofstring2.png",73,15,73,0.7,"stim/42.jpeg",4,2,2,NA,"HouseObjects",1,2,"left","left",0.826999903,1,1,1,1,NA,NA,NA,NA,NA,NA,NA,NA,NA,NA,NA,NA,NA,NA,NA,NA,NA,NA,NA,NA,NA,NA,NA,NA
"186","stim/objects/Instruments/cello2.png",74,15,74,0.9,"stim/53.jpeg",5,3,3,NA,"Instruments",2,2,"right","right",0.576999903,1,1,1,1,NA,NA,NA,NA,NA,NA,NA,NA,NA,NA,NA,NA,NA,NA,NA,NA,NA,NA,NA,NA,NA,NA,NA,NA
"78","stim/objects/HouseObjects/bucket2.png",75,15,75,0.9,"stim/61.jpeg",6,1,3,NA,"HouseObjects",1,2,"left","left",0.542000055,1,1,1,1,NA,NA,NA,NA,NA,NA,NA,NA,NA,NA,NA,NA,NA,NA,NA,NA,NA,NA,NA,NA,NA,NA,NA,NA
"220","stim/objects/Instruments/cornet.png",76,15,76,0.7,"stim/32.jpeg",3,2,2,NA,"Instruments",2,3,"right","right",0.743000031,1,1,1,1,NA,NA,NA,NA,NA,NA,NA,NA,NA,NA,NA,NA,NA,NA,NA,NA,NA,NA,NA,NA,NA,NA,NA,NA
"93","stim/objects/HouseObjects/clock2.png",77,15,77,0.9,"stim/62.jpeg",6,2,3,NA,"HouseObjects",1,4,"left","left",0.5,1,1,1,1,NA,NA,NA,NA,NA,NA,NA,NA,NA,NA,NA,NA,NA,NA,NA,NA,NA,NA,NA,NA,NA,NA,NA,NA
"45","stim/objects/HouseObjects/basket2.png",78,15,78,0.7,"stim/44.jpeg",4,4,2,NA,"HouseObjects",1,2,"left","left",0.654000044,1,1,1,1,NA,NA,NA,NA,NA,NA,NA,NA,NA,NA,NA,NA,NA,NA,NA,NA,NA,NA,NA,NA,NA,NA,NA,NA
"56","stim/objects/HouseObjects/blender.png",79,15,79,0.5,"stim/22.jpeg",2,2,1,NA,"HouseObjects",1,3,"left","left",0.700000048,1,1,1,1,NA,NA,NA,NA,NA,NA,NA,NA,NA,NA,NA,NA,NA,NA,NA,NA,NA,NA,NA,NA,NA,NA,NA,NA
"14","stim/objects/HouseObjects/ballofstring.png",80,15,80,0.5,"stim/12.jpeg",1,2,1,NA,"HouseObjects",1,3,"left","left",0.799000025,1,1,1,1,NA,NA,NA,NA,NA,NA,NA,NA,NA,NA,NA,NA,NA,NA,NA,NA,NA,NA,NA,NA,NA,NA,NA,NA
"211","stim/objects/Instruments/clarinet.png",81,15,81,0.7,"stim/31.jpeg",3,1,2,NA,"Instruments",2,1,"right","right",0.749000072,1,1,1,1,NA,NA,NA,NA,NA,NA,NA,NA,NA,NA,NA,NA,NA,NA,NA,NA,NA,NA,NA,NA,NA,NA,NA,NA
"137","stim/objects/Instruments/balalaika.png",82,15,82,0.5,"stim/13.jpeg",1,3,1,NA,"Instruments",2,4,"right","left",0.558000088,0,0,1,1,NA,NA,NA,NA,NA,NA,NA,NA,NA,NA,NA,NA,NA,NA,NA,NA,NA,NA,NA,NA,NA,NA,NA,NA
"62","stim/objects/HouseObjects/bottle.png",83,15,83,0.5,"stim/23.jpeg",2,3,1,NA,"HouseObjects",1,1,"left","left",0.571000099,1,1,1,1,NA,NA,NA,NA,NA,NA,NA,NA,NA,NA,NA,NA,NA,NA,NA,NA,NA,NA,NA,NA,NA,NA,NA,NA
"79","stim/objects/HouseObjects/bucket2.png",84,15,84,0.9,"stim/61.jpeg",6,1,3,NA,"HouseObjects",1,3,"left","left",0.575999975,1,1,1,1,NA,NA,NA,NA,NA,NA,NA,NA,NA,NA,NA,NA,NA,NA,NA,NA,NA,NA,NA,NA,NA,NA,NA,NA
"160","stim/objects/Instruments/bassdrum2.png",85,15,85,0.9,"stim/51.jpeg",5,1,3,NA,"Instruments",2,4,"right","right",0.529000044,1,1,1,1,NA,NA,NA,NA,NA,NA,NA,NA,NA,NA,NA,NA,NA,NA,NA,NA,NA,NA,NA,NA,NA,NA,NA,NA
"80","stim/objects/HouseObjects/bucket2.png",86,15,86,0.9,"stim/61.jpeg",6,1,3,NA,"HouseObjects",1,3,"left","left",0.483999968,1,1,1,1,NA,NA,NA,NA,NA,NA,NA,NA,NA,NA,NA,NA,NA,NA,NA,NA,NA,NA,NA,NA,NA,NA,NA,NA
"131","stim/objects/Instruments/acousticguitar.png",87,15,87,0.5,"stim/12.jpeg",1,2,1,NA,"Instruments",2,3,"right","left",0.644000053,0,0,1,1,NA,NA,NA,NA,NA,NA,NA,NA,NA,NA,NA,NA,NA,NA,NA,NA,NA,NA,NA,NA,NA,NA,NA,NA
"176","stim/objects/Instruments/bassguitar2.png",88,15,88,0.9,"stim/52.jpeg",5,2,3,NA,"Instruments",2,1,"right","right",0.571000099,1,1,1,1,NA,NA,NA,NA,NA,NA,NA,NA,NA,NA,NA,NA,NA,NA,NA,NA,NA,NA,NA,NA,NA,NA,NA,NA
"203","stim/objects/Instruments/chime2.png",89,15,89,0.9,"stim/54.jpeg",5,4,3,NA,"Instruments",2,4,"right","right",0.554000139,1,1,1,1,NA,NA,NA,NA,NA,NA,NA,NA,NA,NA,NA,NA,NA,NA,NA,NA,NA,NA,NA,NA,NA,NA,NA,NA
"81","stim/objects/HouseObjects/bucket2.png",90,15,90,0.9,"stim/61.jpeg",6,1,3,NA,"HouseObjects",1,2,"left","left",0.536999941,1,1,1,1,NA,NA,NA,NA,NA,NA,NA,NA,NA,NA,NA,NA,NA,NA,NA,NA,NA,NA,NA,NA,NA,NA,NA,NA
"121","stim/objects/Instruments/accordion.png",91,15,91,0.5,"stim/11.jpeg",1,1,1,NA,"Instruments",2,2,"right","left",0.825000048,0,0,1,1,NA,NA,NA,NA,NA,NA,NA,NA,NA,NA,NA,NA,NA,NA,NA,NA,NA,NA,NA,NA,NA,NA,NA,NA
"221","stim/objects/Instruments/cornet.png",92,15,92,0.7,"stim/32.jpeg",3,2,2,NA,"Instruments",2,1,"right","right",0.868000031,1,1,1,1,NA,NA,NA,NA,NA,NA,NA,NA,NA,NA,NA,NA,NA,NA,NA,NA,NA,NA,NA,NA,NA,NA,NA,NA
"68","stim/objects/HouseObjects/broom.png",93,15,93,0.5,"stim/24.jpeg",2,4,1,NA,"HouseObjects",1,2,"left","left",0.694000006,1,1,1,1,NA,NA,NA,NA,NA,NA,NA,NA,NA,NA,NA,NA,NA,NA,NA,NA,NA,NA,NA,NA,NA,NA,NA,NA
"2","stim/objects/HouseObjects/ashtray.png",94,15,94,0.5,"stim/11.jpeg",1,1,1,NA,"HouseObjects",1,2,"left","right",0.752000093,0,0,1,1,NA,NA,NA,NA,NA,NA,NA,NA,NA,NA,NA,NA,NA,NA,NA,NA,NA,NA,NA,NA,NA,NA,NA,NA
"138","stim/objects/Instruments/balalaika.png",95,15,95,0.5,"stim/13.jpeg",1,3,1,NA,"Instruments",2,2,"right","left",0.77699995,0,0,1,1,NA,NA,NA,NA,NA,NA,NA,NA,NA,NA,NA,NA,NA,NA,NA,NA,NA,NA,NA,NA,NA,NA,NA,NA
"127","stim/objects/Instruments/accordion2.png",96,15,96,0.3,"stim/41.jpeg",4,1,2,NA,"Instruments",2,2,"right","left",0.625999928,0,0,1,1,NA,NA,NA,NA,NA,NA,NA,NA,NA,NA,NA,NA,NA,NA,NA,NA,NA,NA,NA,NA,NA,NA,NA,NA
"161","stim/objects/Instruments/bassdrum2.png",97,15,97,0.9,"stim/51.jpeg",5,1,3,NA,"Instruments",2,2,"right","right",0.598999977,1,1,1,1,NA,NA,NA,NA,NA,NA,NA,NA,NA,NA,NA,NA,NA,NA,NA,NA,NA,NA,NA,NA,NA,NA,NA,NA
"183","stim/objects/Instruments/cello.png",98,15,98,0.5,"stim/23.jpeg",2,3,1,NA,"Instruments",2,2,"right","left",0.703999996,0,0,1,1,NA,NA,NA,NA,NA,NA,NA,NA,NA,NA,NA,NA,NA,NA,NA,NA,NA,NA,NA,NA,NA,NA,NA,NA
"187","stim/objects/Instruments/cello2.png",99,15,99,0.9,"stim/53.jpeg",5,3,3,NA,"Instruments",2,3,"right","right",0.606000185,1,1,1,1,NA,NA,NA,NA,NA,NA,NA,NA,NA,NA,NA,NA,NA,NA,NA,NA,NA,NA,NA,NA,NA,NA,NA,NA
"139","stim/objects/Instruments/balalaika.png",100,15,100,0.5,"stim/13.jpeg",1,3,1,NA,"Instruments",2,4,"right","",NA,0,0,1,1,NA,NA,NA,NA,NA,NA,NA,NA,NA,NA,NA,NA,NA,NA,NA,NA,NA,NA,NA,NA,NA,NA,NA,NA
"234","stim/objects/Instruments/doublebass.png",101,15,101,0.7,"stim/34.jpeg",3,4,2,NA,"Instruments",2,3,"right","right",0.621000051,1,1,1,1,NA,NA,NA,NA,NA,NA,NA,NA,NA,NA,NA,NA,NA,NA,NA,NA,NA,NA,NA,NA,NA,NA,NA,NA
"69","stim/objects/HouseObjects/broom.png",102,15,102,0.5,"stim/24.jpeg",2,4,1,NA,"HouseObjects",1,4,"left","right",0.638000011,0,0,1,1,NA,NA,NA,NA,NA,NA,NA,NA,NA,NA,NA,NA,NA,NA,NA,NA,NA,NA,NA,NA,NA,NA,NA,NA
"235","stim/objects/Instruments/doublebass.png",103,15,103,0.7,"stim/34.jpeg",3,4,2,NA,"Instruments",2,4,"right","right",0.605999947,1,1,1,1,NA,NA,NA,NA,NA,NA,NA,NA,NA,NA,NA,NA,NA,NA,NA,NA,NA,NA,NA,NA,NA,NA,NA,NA
"122","stim/objects/Instruments/accordion.png",104,15,104,0.5,"stim/11.jpeg",1,1,1,NA,"Instruments",2,4,"right","left",0.640000105,0,0,1,1,NA,NA,NA,NA,NA,NA,NA,NA,NA,NA,NA,NA,NA,NA,NA,NA,NA,NA,NA,NA,NA,NA,NA,NA
"147","stim/objects/Instruments/banjo.png",105,15,105,0.5,"stim/14.jpeg",1,4,1,NA,"Instruments",2,1,"right","left",0.679999828,0,0,1,1,NA,NA,NA,NA,NA,NA,NA,NA,NA,NA,NA,NA,NA,NA,NA,NA,NA,NA,NA,NA,NA,NA,NA,NA
"196","stim/objects/Instruments/chime.png",106,15,106,0.5,"stim/24.jpeg",2,4,1,NA,"Instruments",2,1,"right","right",0.736000061,1,1,1,1,NA,NA,NA,NA,NA,NA,NA,NA,NA,NA,NA,NA,NA,NA,NA,NA,NA,NA,NA,NA,NA,NA,NA,NA
"32","stim/objects/HouseObjects/barbecuelighter2.png",107,15,107,0.7,"stim/43.jpeg",4,3,2,NA,"HouseObjects",1,2,"left","left",0.572000027,1,1,1,1,NA,NA,NA,NA,NA,NA,NA,NA,NA,NA,NA,NA,NA,NA,NA,NA,NA,NA,NA,NA,NA,NA,NA,NA
"177","stim/objects/Instruments/bassguitar2.png",108,15,108,0.9,"stim/52.jpeg",5,2,3,NA,"Instruments",2,3,"right","right",0.649999857,1,1,1,1,NA,NA,NA,NA,NA,NA,NA,NA,NA,NA,NA,NA,NA,NA,NA,NA,NA,NA,NA,NA,NA,NA,NA,NA
"150","stim/objects/Instruments/banjo2.png",109,15,109,0.3,"stim/44.jpeg",4,4,2,NA,"Instruments",2,1,"right","left",0.512999773,0,0,1,1,NA,NA,NA,NA,NA,NA,NA,NA,NA,NA,NA,NA,NA,NA,NA,NA,NA,NA,NA,NA,NA,NA,NA,NA
"178","stim/objects/Instruments/bassguitar2.png",110,15,110,0.9,"stim/52.jpeg",5,2,3,NA,"Instruments",2,1,"right","right",0.601999998,1,1,1,1,NA,NA,NA,NA,NA,NA,NA,NA,NA,NA,NA,NA,NA,NA,NA,NA,NA,NA,NA,NA,NA,NA,NA,NA
"184","stim/objects/Instruments/cello.png",111,15,111,0.5,"stim/23.jpeg",2,3,1,NA,"Instruments",2,3,"right","left",0.618999958,0,0,1,1,NA,NA,NA,NA,NA,NA,NA,NA,NA,NA,NA,NA,NA,NA,NA,NA,NA,NA,NA,NA,NA,NA,NA,NA
"3","stim/objects/HouseObjects/ashtray.png",112,15,112,0.5,"stim/11.jpeg",1,1,1,NA,"HouseObjects",1,4,"left","right",0.756000042,0,0,1,1,NA,NA,NA,NA,NA,NA,NA,NA,NA,NA,NA,NA,NA,NA,NA,NA,NA,NA,NA,NA,NA,NA,NA,NA
"4","stim/objects/HouseObjects/ashtray.png",113,15,113,0.5,"stim/11.jpeg",1,1,1,NA,"HouseObjects",1,4,"left","right",0.607000113,0,0,1,1,NA,NA,NA,NA,NA,NA,NA,NA,NA,NA,NA,NA,NA,NA,NA,NA,NA,NA,NA,NA,NA,NA,NA,NA
"46","stim/objects/HouseObjects/basket2.png",114,15,114,0.7,"stim/44.jpeg",4,4,2,NA,"HouseObjects",1,3,"left","left",0.542999983,1,1,1,1,NA,NA,NA,NA,NA,NA,NA,NA,NA,NA,NA,NA,NA,NA,NA,NA,NA,NA,NA,NA,NA,NA,NA,NA
"140","stim/objects/Instruments/balalaika.png",115,15,115,0.5,"stim/13.jpeg",1,3,1,NA,"Instruments",2,2,"right","left",0.700000048,0,0,1,1,NA,NA,NA,NA,NA,NA,NA,NA,NA,NA,NA,NA,NA,NA,NA,NA,NA,NA,NA,NA,NA,NA,NA,NA
"168","stim/objects/Instruments/bassguitar.png",116,15,116,0.5,"stim/22.jpeg",2,2,1,NA,"Instruments",2,1,"right","left",0.630000114,0,0,1,1,NA,NA,NA,NA,NA,NA,NA,NA,NA,NA,NA,NA,NA,NA,NA,NA,NA,NA,NA,NA,NA,NA,NA,NA
"7","stim/objects/HouseObjects/ashtray2.png",117,15,117,0.7,"stim/41.jpeg",4,1,2,NA,"HouseObjects",1,2,"left","left",0.566999912,1,1,1,1,NA,NA,NA,NA,NA,NA,NA,NA,NA,NA,NA,NA,NA,NA,NA,NA,NA,NA,NA,NA,NA,NA,NA,NA
"162","stim/objects/Instruments/bassdrum2.png",118,15,118,0.9,"stim/51.jpeg",5,1,3,NA,"Instruments",2,1,"right","right",0.593999863,1,1,1,1,NA,NA,NA,NA,NA,NA,NA,NA,NA,NA,NA,NA,NA,NA,NA,NA,NA,NA,NA,NA,NA,NA,NA,NA
"8","stim/objects/HouseObjects/ashtray2.png",119,15,119,0.7,"stim/41.jpeg",4,1,2,NA,"HouseObjects",1,4,"left","left",0.61500001,1,1,1,1,NA,NA,NA,NA,NA,NA,NA,NA,NA,NA,NA,NA,NA,NA,NA,NA,NA,NA,NA,NA,NA,NA,NA,NA
"15","stim/objects/HouseObjects/ballofstring.png",120,15,120,0.5,"stim/12.jpeg",1,2,1,NA,"HouseObjects",1,2,"left","left",0.776000023,1,1,1,1,NA,NA,NA,NA,NA,NA,NA,NA,NA,NA,NA,NA,NA,NA,NA,NA,NA,NA,NA,NA,NA,NA,NA,NA
"5","stim/objects/HouseObjects/ashtray.png",121,15,121,0.5,"stim/11.jpeg",1,1,1,NA,"HouseObjects",1,2,"left","right",0.836000204,0,0,1,1,NA,NA,NA,NA,NA,NA,NA,NA,NA,NA,NA,NA,NA,NA,NA,NA,NA,NA,NA,NA,NA,NA,NA,NA
"163","stim/objects/Instruments/bassdrum2.png",122,15,122,0.9,"stim/51.jpeg",5,1,3,NA,"Instruments",2,3,"right","right",0.555000067,1,1,1,1,NA,NA,NA,NA,NA,NA,NA,NA,NA,NA,NA,NA,NA,NA,NA,NA,NA,NA,NA,NA,NA,NA,NA,NA
"227","stim/objects/Instruments/cymbal.png",123,15,123,0.7,"stim/33.jpeg",3,3,2,NA,"Instruments",2,1,"right","right",0.766000032,1,1,1,1,NA,NA,NA,NA,NA,NA,NA,NA,NA,NA,NA,NA,NA,NA,NA,NA,NA,NA,NA,NA,NA,NA,NA,NA
"19","stim/objects/HouseObjects/ballofstring2.png",124,15,124,0.7,"stim/42.jpeg",4,2,2,NA,"HouseObjects",1,4,"left","left",0.587999821,1,1,1,1,NA,NA,NA,NA,NA,NA,NA,NA,NA,NA,NA,NA,NA,NA,NA,NA,NA,NA,NA,NA,NA,NA,NA,NA
"116","stim/objects/HouseObjects/clothespin2.png",125,15,125,0.9,"stim/64.jpeg",6,4,3,NA,"HouseObjects",1,2,"left","left",0.545000076,1,1,1,1,NA,NA,NA,NA,NA,NA,NA,NA,NA,NA,NA,NA,NA,NA,NA,NA,NA,NA,NA,NA,NA,NA,NA,NA
"51","stim/objects/HouseObjects/bleachbottle.png",126,15,126,0.5,"stim/21.jpeg",2,1,1,NA,"HouseObjects",1,1,"left","left",0.682999849,1,1,1,1,NA,NA,NA,NA,NA,NA,NA,NA,NA,NA,NA,NA,NA,NA,NA,NA,NA,NA,NA,NA,NA,NA,NA,NA
"188","stim/objects/Instruments/cello2.png",127,15,127,0.9,"stim/53.jpeg",5,3,3,NA,"Instruments",2,1,"right","right",0.602999926,1,1,1,1,NA,NA,NA,NA,NA,NA,NA,NA,NA,NA,NA,NA,NA,NA,NA,NA,NA,NA,NA,NA,NA,NA,NA,NA
"143","stim/objects/Instruments/balalaika2.png",128,15,128,0.3,"stim/43.jpeg",4,3,2,NA,"Instruments",2,2,"right","left",0.523999929,0,0,1,1,NA,NA,NA,NA,NA,NA,NA,NA,NA,NA,NA,NA,NA,NA,NA,NA,NA,NA,NA,NA,NA,NA,NA,NA
"222","stim/objects/Instruments/cornet.png",129,15,129,0.7,"stim/32.jpeg",3,2,2,NA,"Instruments",2,1,"right","right",0.772000074,1,1,1,1,NA,NA,NA,NA,NA,NA,NA,NA,NA,NA,NA,NA,NA,NA,NA,NA,NA,NA,NA,NA,NA,NA,NA,NA
"33","stim/objects/HouseObjects/barbecuelighter2.png",130,15,130,0.7,"stim/43.jpeg",4,3,2,NA,"HouseObjects",1,1,"left","left",0.496000051,1,1,1,1,NA,NA,NA,NA,NA,NA,NA,NA,NA,NA,NA,NA,NA,NA,NA,NA,NA,NA,NA,NA,NA,NA,NA,NA
"117","stim/objects/HouseObjects/clothespin2.png",131,15,131,0.9,"stim/64.jpeg",6,4,3,NA,"HouseObjects",1,4,"left","left",0.547999859,1,1,1,1,NA,NA,NA,NA,NA,NA,NA,NA,NA,NA,NA,NA,NA,NA,NA,NA,NA,NA,NA,NA,NA,NA,NA,NA
"189","stim/objects/Instruments/cello2.png",132,15,132,0.9,"stim/53.jpeg",5,3,3,NA,"Instruments",2,2,"right","right",0.554000139,1,1,1,1,NA,NA,NA,NA,NA,NA,NA,NA,NA,NA,NA,NA,NA,NA,NA,NA,NA,NA,NA,NA,NA,NA,NA,NA
"110","stim/objects/HouseObjects/clothespin.png",133,15,133,0.3,"stim/34.jpeg",3,4,2,NA,"HouseObjects",1,1,"left","left",0.517999887,1,1,1,1,NA,NA,NA,NA,NA,NA,NA,NA,NA,NA,NA,NA,NA,NA,NA,NA,NA,NA,NA,NA,NA,NA,NA,NA
"154","stim/objects/Instruments/bassdrum.png",134,15,134,0.5,"stim/21.jpeg",2,1,1,NA,"Instruments",2,2,"right","left",0.717999935,0,0,1,1,NA,NA,NA,NA,NA,NA,NA,NA,NA,NA,NA,NA,NA,NA,NA,NA,NA,NA,NA,NA,NA,NA,NA,NA
"236","stim/objects/Instruments/doublebass.png",135,15,135,0.7,"stim/34.jpeg",3,4,2,NA,"Instruments",2,3,"right","right",0.717000008,1,1,1,1,NA,NA,NA,NA,NA,NA,NA,NA,NA,NA,NA,NA,NA,NA,NA,NA,NA,NA,NA,NA,NA,NA,NA,NA
"94","stim/objects/HouseObjects/clock2.png",136,15,136,0.9,"stim/62.jpeg",6,2,3,NA,"HouseObjects",1,4,"left","left",0.546999931,1,1,1,1,NA,NA,NA,NA,NA,NA,NA,NA,NA,NA,NA,NA,NA,NA,NA,NA,NA,NA,NA,NA,NA,NA,NA,NA
"86","stim/objects/HouseObjects/clock.png",137,15,137,0.3,"stim/32.jpeg",3,2,2,NA,"HouseObjects",1,3,"left","right",0.78000021,0,0,1,1,NA,NA,NA,NA,NA,NA,NA,NA,NA,NA,NA,NA,NA,NA,NA,NA,NA,NA,NA,NA,NA,NA,NA,NA
"104","stim/objects/HouseObjects/clothesdryingrack2.png",138,15,138,0.9,"stim/63.jpeg",6,3,3,NA,"HouseObjects",1,2,"left","left",0.56400013,1,1,1,1,NA,NA,NA,NA,NA,NA,NA,NA,NA,NA,NA,NA,NA,NA,NA,NA,NA,NA,NA,NA,NA,NA,NA,NA
"34","stim/objects/HouseObjects/barbecuelighter2.png",139,15,139,0.7,"stim/43.jpeg",4,3,2,NA,"HouseObjects",1,4,"left","left",0.604000092,1,1,1,1,NA,NA,NA,NA,NA,NA,NA,NA,NA,NA,NA,NA,NA,NA,NA,NA,NA,NA,NA,NA,NA,NA,NA,NA
"190","stim/objects/Instruments/cello2.png",140,15,140,0.9,"stim/53.jpeg",5,3,3,NA,"Instruments",2,4,"right","right",0.657999992,1,1,1,1,NA,NA,NA,NA,NA,NA,NA,NA,NA,NA,NA,NA,NA,NA,NA,NA,NA,NA,NA,NA,NA,NA,NA,NA
"38","stim/objects/HouseObjects/basket.png",141,15,141,0.5,"stim/14.jpeg",1,4,1,NA,"HouseObjects",1,4,"left","left",0.599999905,1,1,1,1,NA,NA,NA,NA,NA,NA,NA,NA,NA,NA,NA,NA,NA,NA,NA,NA,NA,NA,NA,NA,NA,NA,NA,NA
"47","stim/objects/HouseObjects/basket2.png",142,15,142,0.7,"stim/44.jpeg",4,4,2,NA,"HouseObjects",1,1,"left","left",0.538999796,1,1,1,1,NA,NA,NA,NA,NA,NA,NA,NA,NA,NA,NA,NA,NA,NA,NA,NA,NA,NA,NA,NA,NA,NA,NA,NA
"169","stim/objects/Instruments/bassguitar.png",143,15,143,0.5,"stim/22.jpeg",2,2,1,NA,"Instruments",2,1,"right","left",0.555999994,0,0,1,1,NA,NA,NA,NA,NA,NA,NA,NA,NA,NA,NA,NA,NA,NA,NA,NA,NA,NA,NA,NA,NA,NA,NA,NA
"9","stim/objects/HouseObjects/ashtray2.png",144,15,144,0.7,"stim/41.jpeg",4,1,2,NA,"HouseObjects",1,2,"left","left",0.529999971,1,1,1,1,NA,NA,NA,NA,NA,NA,NA,NA,NA,NA,NA,NA,NA,NA,NA,NA,NA,NA,NA,NA,NA,NA,NA,NA
"148","stim/objects/Instruments/banjo.png",145,15,145,0.5,"stim/14.jpeg",1,4,1,NA,"Instruments",2,2,"right","left",0.805999994,0,0,1,1,NA,NA,NA,NA,NA,NA,NA,NA,NA,NA,NA,NA,NA,NA,NA,NA,NA,NA,NA,NA,NA,NA,NA,NA
"105","stim/objects/HouseObjects/clothesdryingrack2.png",146,15,146,0.9,"stim/63.jpeg",6,3,3,NA,"HouseObjects",1,4,"left","left",0.505999804,1,1,1,1,NA,NA,NA,NA,NA,NA,NA,NA,NA,NA,NA,NA,NA,NA,NA,NA,NA,NA,NA,NA,NA,NA,NA,NA
"141","stim/objects/Instruments/balalaika.png",147,15,147,0.5,"stim/13.jpeg",1,3,1,NA,"Instruments",2,3,"right","left",0.74000001,0,0,1,1,NA,NA,NA,NA,NA,NA,NA,NA,NA,NA,NA,NA,NA,NA,NA,NA,NA,NA,NA,NA,NA,NA,NA,NA
"82","stim/objects/HouseObjects/bucket2.png",148,15,148,0.9,"stim/61.jpeg",6,1,3,NA,"HouseObjects",1,1,"left","left",0.555999994,1,1,1,1,NA,NA,NA,NA,NA,NA,NA,NA,NA,NA,NA,NA,NA,NA,NA,NA,NA,NA,NA,NA,NA,NA,NA,NA
"164","stim/objects/Instruments/bassdrum2.png",149,15,149,0.9,"stim/51.jpeg",5,1,3,NA,"Instruments",2,3,"right","right",0.61500001,1,1,1,1,NA,NA,NA,NA,NA,NA,NA,NA,NA,NA,NA,NA,NA,NA,NA,NA,NA,NA,NA,NA,NA,NA,NA,NA
"132","stim/objects/Instruments/acousticguitar.png",150,15,150,0.5,"stim/12.jpeg",1,2,1,NA,"Instruments",2,2,"right","",NA,0,0,1,1,NA,NA,NA,NA,NA,NA,NA,NA,NA,NA,NA,NA,NA,NA,NA,NA,NA,NA,NA,NA,NA,NA,NA,NA
"197","stim/objects/Instruments/chime.png",151,15,151,0.5,"stim/24.jpeg",2,4,1,NA,"Instruments",2,1,"right","left",0.585999966,0,0,1,1,NA,NA,NA,NA,NA,NA,NA,NA,NA,NA,NA,NA,NA,NA,NA,NA,NA,NA,NA,NA,NA,NA,NA,NA
"95","stim/objects/HouseObjects/clock2.png",152,15,152,0.9,"stim/62.jpeg",6,2,3,NA,"HouseObjects",1,3,"left","left",0.523000002,1,1,1,1,NA,NA,NA,NA,NA,NA,NA,NA,NA,NA,NA,NA,NA,NA,NA,NA,NA,NA,NA,NA,NA,NA,NA,NA
"228","stim/objects/Instruments/cymbal.png",153,15,153,0.7,"stim/33.jpeg",3,3,2,NA,"Instruments",2,1,"right","left",0.445999861,0,0,1,1,NA,NA,NA,NA,NA,NA,NA,NA,NA,NA,NA,NA,NA,NA,NA,NA,NA,NA,NA,NA,NA,NA,NA,NA
"204","stim/objects/Instruments/chime2.png",154,15,154,0.9,"stim/54.jpeg",5,4,3,NA,"Instruments",2,2,"right","right",0.549999952,1,1,1,1,NA,NA,NA,NA,NA,NA,NA,NA,NA,NA,NA,NA,NA,NA,NA,NA,NA,NA,NA,NA,NA,NA,NA,NA
"232","stim/objects/Instruments/cymbal2.png",155,15,155,0.1,"stim/63.jpeg",6,3,3,NA,"Instruments",2,4,"right","left",0.572999954,0,0,1,1,NA,NA,NA,NA,NA,NA,NA,NA,NA,NA,NA,NA,NA,NA,NA,NA,NA,NA,NA,NA,NA,NA,NA,NA
"20","stim/objects/HouseObjects/ballofstring2.png",156,15,156,0.7,"stim/42.jpeg",4,2,2,NA,"HouseObjects",1,3,"left","left",0.61500001,1,1,1,1,NA,NA,NA,NA,NA,NA,NA,NA,NA,NA,NA,NA,NA,NA,NA,NA,NA,NA,NA,NA,NA,NA,NA,NA
"212","stim/objects/Instruments/clarinet.png",157,15,157,0.7,"stim/31.jpeg",3,1,2,NA,"Instruments",2,1,"right","right",0.714999914,1,1,1,1,NA,NA,NA,NA,NA,NA,NA,NA,NA,NA,NA,NA,NA,NA,NA,NA,NA,NA,NA,NA,NA,NA,NA,NA
"57","stim/objects/HouseObjects/blender.png",158,15,158,0.5,"stim/22.jpeg",2,2,1,NA,"HouseObjects",1,2,"left","left",0.594000101,1,1,1,1,NA,NA,NA,NA,NA,NA,NA,NA,NA,NA,NA,NA,NA,NA,NA,NA,NA,NA,NA,NA,NA,NA,NA,NA
"151","stim/objects/Instruments/banjo2.png",159,15,159,0.3,"stim/44.jpeg",4,4,2,NA,"Instruments",2,4,"right","left",0.57400012,0,0,1,1,NA,NA,NA,NA,NA,NA,NA,NA,NA,NA,NA,NA,NA,NA,NA,NA,NA,NA,NA,NA,NA,NA,NA,NA
"229","stim/objects/Instruments/cymbal.png",160,15,160,0.7,"stim/33.jpeg",3,3,2,NA,"Instruments",2,2,"right","right",0.796999931,1,1,1,1,NA,NA,NA,NA,NA,NA,NA,NA,NA,NA,NA,NA,NA,NA,NA,NA,NA,NA,NA,NA,NA,NA,NA,NA
"21","stim/objects/HouseObjects/ballofstring2.png",161,15,161,0.7,"stim/42.jpeg",4,2,2,NA,"HouseObjects",1,2,"left","left",0.473999977,1,1,1,1,NA,NA,NA,NA,NA,NA,NA,NA,NA,NA,NA,NA,NA,NA,NA,NA,NA,NA,NA,NA,NA,NA,NA,NA
"152","stim/objects/Instruments/banjo2.png",162,15,162,0.3,"stim/44.jpeg",4,4,2,NA,"Instruments",2,3,"right","left",0.611999989,0,0,1,1,NA,NA,NA,NA,NA,NA,NA,NA,NA,NA,NA,NA,NA,NA,NA,NA,NA,NA,NA,NA,NA,NA,NA,NA
"213","stim/objects/Instruments/clarinet.png",163,15,163,0.7,"stim/31.jpeg",3,1,2,NA,"Instruments",2,1,"right","left",0.604000092,0,0,1,1,NA,NA,NA,NA,NA,NA,NA,NA,NA,NA,NA,NA,NA,NA,NA,NA,NA,NA,NA,NA,NA,NA,NA,NA
"179","stim/objects/Instruments/bassguitar2.png",164,15,164,0.9,"stim/52.jpeg",5,2,3,NA,"Instruments",2,3,"right","left",0.470000029,0,0,1,1,NA,NA,NA,NA,NA,NA,NA,NA,NA,NA,NA,NA,NA,NA,NA,NA,NA,NA,NA,NA,NA,NA,NA,NA
"96","stim/objects/HouseObjects/clock2.png",165,15,165,0.9,"stim/62.jpeg",6,2,3,NA,"HouseObjects",1,4,"left","left",0.500999928,1,1,1,1,NA,NA,NA,NA,NA,NA,NA,NA,NA,NA,NA,NA,NA,NA,NA,NA,NA,NA,NA,NA,NA,NA,NA,NA
"237","stim/objects/Instruments/doublebass.png",166,15,166,0.7,"stim/34.jpeg",3,4,2,NA,"Instruments",2,3,"right","right",0.683999777,1,1,1,1,NA,NA,NA,NA,NA,NA,NA,NA,NA,NA,NA,NA,NA,NA,NA,NA,NA,NA,NA,NA,NA,NA,NA,NA
"180","stim/objects/Instruments/bassguitar2.png",167,15,167,0.9,"stim/52.jpeg",5,2,3,NA,"Instruments",2,4,"right","right",0.525000095,1,1,1,1,NA,NA,NA,NA,NA,NA,NA,NA,NA,NA,NA,NA,NA,NA,NA,NA,NA,NA,NA,NA,NA,NA,NA,NA
"74","stim/objects/HouseObjects/bucket.png",168,15,168,0.3,"stim/31.jpeg",3,1,2,NA,"HouseObjects",1,3,"left","right",0.573999882,0,0,1,1,NA,NA,NA,NA,NA,NA,NA,NA,NA,NA,NA,NA,NA,NA,NA,NA,NA,NA,NA,NA,NA,NA,NA,NA
"191","stim/objects/Instruments/cello2.png",169,15,169,0.9,"stim/53.jpeg",5,3,3,NA,"Instruments",2,2,"right","right",0.575999975,1,1,1,1,NA,NA,NA,NA,NA,NA,NA,NA,NA,NA,NA,NA,NA,NA,NA,NA,NA,NA,NA,NA,NA,NA,NA,NA
"63","stim/objects/HouseObjects/bottle.png",170,15,170,0.5,"stim/23.jpeg",2,3,1,NA,"HouseObjects",1,1,"left","left",0.713000059,1,1,1,1,NA,NA,NA,NA,NA,NA,NA,NA,NA,NA,NA,NA,NA,NA,NA,NA,NA,NA,NA,NA,NA,NA,NA,NA
"99","stim/objects/HouseObjects/clothesdryingrack.png",171,15,171,0.3,"stim/33.jpeg",3,3,2,NA,"HouseObjects",1,1,"left","right",0.549000025,0,0,1,1,NA,NA,NA,NA,NA,NA,NA,NA,NA,NA,NA,NA,NA,NA,NA,NA,NA,NA,NA,NA,NA,NA,NA,NA
"170","stim/objects/Instruments/bassguitar.png",172,15,172,0.5,"stim/22.jpeg",2,2,1,NA,"Instruments",2,1,"right","left",0.664999962,0,0,1,1,NA,NA,NA,NA,NA,NA,NA,NA,NA,NA,NA,NA,NA,NA,NA,NA,NA,NA,NA,NA,NA,NA,NA,NA
"155","stim/objects/Instruments/bassdrum.png",173,15,173,0.5,"stim/21.jpeg",2,1,1,NA,"Instruments",2,1,"right","left",0.757999897,0,0,1,1,NA,NA,NA,NA,NA,NA,NA,NA,NA,NA,NA,NA,NA,NA,NA,NA,NA,NA,NA,NA,NA,NA,NA,NA
"171","stim/objects/Instruments/bassguitar.png",174,15,174,0.5,"stim/22.jpeg",2,2,1,NA,"Instruments",2,2,"right","left",0.700999975,0,0,1,1,NA,NA,NA,NA,NA,NA,NA,NA,NA,NA,NA,NA,NA,NA,NA,NA,NA,NA,NA,NA,NA,NA,NA,NA
"136","stim/objects/Instruments/acousticguitar2.png",175,15,175,0.3,"stim/42.jpeg",4,2,2,NA,"Instruments",2,4,"right","left",0.588000059,0,0,1,1,NA,NA,NA,NA,NA,NA,NA,NA,NA,NA,NA,NA,NA,NA,NA,NA,NA,NA,NA,NA,NA,NA,NA,NA
"230","stim/objects/Instruments/cymbal.png",176,15,176,0.7,"stim/33.jpeg",3,3,2,NA,"Instruments",2,3,"right","right",0.615999937,1,1,1,1,NA,NA,NA,NA,NA,NA,NA,NA,NA,NA,NA,NA,NA,NA,NA,NA,NA,NA,NA,NA,NA,NA,NA,NA
"106","stim/objects/HouseObjects/clothesdryingrack2.png",177,15,177,0.9,"stim/63.jpeg",6,3,3,NA,"HouseObjects",1,4,"left","left",0.524999857,1,1,1,1,NA,NA,NA,NA,NA,NA,NA,NA,NA,NA,NA,NA,NA,NA,NA,NA,NA,NA,NA,NA,NA,NA,NA,NA
"223","stim/objects/Instruments/cornet.png",178,15,178,0.7,"stim/32.jpeg",3,2,2,NA,"Instruments",2,1,"right","right",0.631000042,1,1,1,1,NA,NA,NA,NA,NA,NA,NA,NA,NA,NA,NA,NA,NA,NA,NA,NA,NA,NA,NA,NA,NA,NA,NA,NA
"111","stim/objects/HouseObjects/clothespin.png",179,15,179,0.3,"stim/34.jpeg",3,4,2,NA,"HouseObjects",1,4,"left","right",0.790999889,0,0,1,1,NA,NA,NA,NA,NA,NA,NA,NA,NA,NA,NA,NA,NA,NA,NA,NA,NA,NA,NA,NA,NA,NA,NA,NA
"123","stim/objects/Instruments/accordion.png",180,15,180,0.5,"stim/11.jpeg",1,1,1,NA,"Instruments",2,3,"right","right",0.767999887,1,1,1,1,NA,NA,NA,NA,NA,NA,NA,NA,NA,NA,NA,NA,NA,NA,NA,NA,NA,NA,NA,NA,NA,NA,NA,NA
"205","stim/objects/Instruments/chime2.png",181,15,181,0.9,"stim/54.jpeg",5,4,3,NA,"Instruments",2,1,"right","right",0.58100009,1,1,1,1,NA,NA,NA,NA,NA,NA,NA,NA,NA,NA,NA,NA,NA,NA,NA,NA,NA,NA,NA,NA,NA,NA,NA,NA
"83","stim/objects/HouseObjects/bucket2.png",182,15,182,0.9,"stim/61.jpeg",6,1,3,NA,"HouseObjects",1,2,"left","left",0.565999985,1,1,1,1,NA,NA,NA,NA,NA,NA,NA,NA,NA,NA,NA,NA,NA,NA,NA,NA,NA,NA,NA,NA,NA,NA,NA,NA
"165","stim/objects/Instruments/bassdrum2.png",183,15,183,0.9,"stim/51.jpeg",5,1,3,NA,"Instruments",2,4,"right","right",0.52699995,1,1,1,1,NA,NA,NA,NA,NA,NA,NA,NA,NA,NA,NA,NA,NA,NA,NA,NA,NA,NA,NA,NA,NA,NA,NA,NA
"118","stim/objects/HouseObjects/clothespin2.png",184,15,184,0.9,"stim/64.jpeg",6,4,3,NA,"HouseObjects",1,1,"left","left",0.529000044,1,1,1,1,NA,NA,NA,NA,NA,NA,NA,NA,NA,NA,NA,NA,NA,NA,NA,NA,NA,NA,NA,NA,NA,NA,NA,NA
"128","stim/objects/Instruments/accordion2.png",185,15,185,0.3,"stim/41.jpeg",4,1,2,NA,"Instruments",2,1,"right","",NA,0,0,1,1,NA,NA,NA,NA,NA,NA,NA,NA,NA,NA,NA,NA,NA,NA,NA,NA,NA,NA,NA,NA,NA,NA,NA,NA
"231","stim/objects/Instruments/cymbal.png",186,15,186,0.7,"stim/33.jpeg",3,3,2,NA,"Instruments",2,1,"right","right",0.530999899,1,1,1,1,NA,NA,NA,NA,NA,NA,NA,NA,NA,NA,NA,NA,NA,NA,NA,NA,NA,NA,NA,NA,NA,NA,NA,NA
"16","stim/objects/HouseObjects/ballofstring.png",187,15,187,0.5,"stim/12.jpeg",1,2,1,NA,"HouseObjects",1,4,"left","right",0.578999996,0,0,1,1,NA,NA,NA,NA,NA,NA,NA,NA,NA,NA,NA,NA,NA,NA,NA,NA,NA,NA,NA,NA,NA,NA,NA,NA
"22","stim/objects/HouseObjects/ballofstring2.png",188,15,188,0.7,"stim/42.jpeg",4,2,2,NA,"HouseObjects",1,3,"left","left",0.542999983,1,1,1,1,NA,NA,NA,NA,NA,NA,NA,NA,NA,NA,NA,NA,NA,NA,NA,NA,NA,NA,NA,NA,NA,NA,NA,NA
"133","stim/objects/Instruments/acousticguitar.png",189,15,189,0.5,"stim/12.jpeg",1,2,1,NA,"Instruments",2,4,"right","left",0.514999866,0,0,1,1,NA,NA,NA,NA,NA,NA,NA,NA,NA,NA,NA,NA,NA,NA,NA,NA,NA,NA,NA,NA,NA,NA,NA,NA
"72","stim/objects/HouseObjects/broom2.png",190,15,190,0.1,"stim/54.jpeg",5,4,3,NA,"HouseObjects",1,4,"left","right",0.575999975,0,0,1,1,NA,NA,NA,NA,NA,NA,NA,NA,NA,NA,NA,NA,NA,NA,NA,NA,NA,NA,NA,NA,NA,NA,NA,NA
"107","stim/objects/HouseObjects/clothesdryingrack2.png",191,15,191,0.9,"stim/63.jpeg",6,3,3,NA,"HouseObjects",1,4,"left","left",0.480999947,1,1,1,1,NA,NA,NA,NA,NA,NA,NA,NA,NA,NA,NA,NA,NA,NA,NA,NA,NA,NA,NA,NA,NA,NA,NA,NA
"48","stim/objects/HouseObjects/basket2.png",192,15,192,0.7,"stim/44.jpeg",4,4,2,NA,"HouseObjects",1,4,"left","left",0.514999866,1,1,1,1,NA,NA,NA,NA,NA,NA,NA,NA,NA,NA,NA,NA,NA,NA,NA,NA,NA,NA,NA,NA,NA,NA,NA,NA
"238","stim/objects/Instruments/doublebass.png",193,15,193,0.7,"stim/34.jpeg",3,4,2,NA,"Instruments",2,4,"right","left",0.522000074,0,0,1,1,NA,NA,NA,NA,NA,NA,NA,NA,NA,NA,NA,NA,NA,NA,NA,NA,NA,NA,NA,NA,NA,NA,NA,NA
"58","stim/objects/HouseObjects/blender.png",194,15,194,0.5,"stim/22.jpeg",2,2,1,NA,"HouseObjects",1,4,"left","left",0.569000006,1,1,1,1,NA,NA,NA,NA,NA,NA,NA,NA,NA,NA,NA,NA,NA,NA,NA,NA,NA,NA,NA,NA,NA,NA,NA,NA
"29","stim/objects/HouseObjects/barbecuelighter.png",195,15,195,0.5,"stim/13.jpeg",1,3,1,NA,"HouseObjects",1,1,"left","left",0.59800005,1,1,1,1,NA,NA,NA,NA,NA,NA,NA,NA,NA,NA,NA,NA,NA,NA,NA,NA,NA,NA,NA,NA,NA,NA,NA,NA
"119","stim/objects/HouseObjects/clothespin2.png",196,15,196,0.9,"stim/64.jpeg",6,4,3,NA,"HouseObjects",1,3,"left","left",0.489000082,1,1,1,1,NA,NA,NA,NA,NA,NA,NA,NA,NA,NA,NA,NA,NA,NA,NA,NA,NA,NA,NA,NA,NA,NA,NA,NA
"70","stim/objects/HouseObjects/broom.png",197,15,197,0.5,"stim/24.jpeg",2,4,1,NA,"HouseObjects",1,4,"left","left",0.595000029,1,1,1,1,NA,NA,NA,NA,NA,NA,NA,NA,NA,NA,NA,NA,NA,NA,NA,NA,NA,NA,NA,NA,NA,NA,NA,NA
"149","stim/objects/Instruments/banjo.png",198,15,198,0.5,"stim/14.jpeg",1,4,1,NA,"Instruments",2,3,"right","left",0.618000031,0,0,1,1,NA,NA,NA,NA,NA,NA,NA,NA,NA,NA,NA,NA,NA,NA,NA,NA,NA,NA,NA,NA,NA,NA,NA,NA
"84","stim/objects/HouseObjects/bucket2.png",199,15,199,0.9,"stim/61.jpeg",6,1,3,NA,"HouseObjects",1,2,"left","left",0.522000074,1,1,1,1,NA,NA,NA,NA,NA,NA,NA,NA,NA,NA,NA,NA,NA,NA,NA,NA,NA,NA,NA,NA,NA,NA,NA,NA
"52","stim/objects/HouseObjects/bleachbottle.png",200,15,200,0.5,"stim/21.jpeg",2,1,1,NA,"HouseObjects",1,1,"left","left",0.65199995,1,1,1,1,NA,NA,NA,NA,NA,NA,NA,NA,NA,NA,NA,NA,NA,NA,NA,NA,NA,NA,NA,NA,NA,NA,NA,NA
"166","stim/objects/Instruments/bassdrum2.png",201,15,201,0.9,"stim/51.jpeg",5,1,3,NA,"Instruments",2,1,"right","right",0.536000013,1,1,1,1,NA,NA,NA,NA,NA,NA,NA,NA,NA,NA,NA,NA,NA,NA,NA,NA,NA,NA,NA,NA,NA,NA,NA,NA
"23","stim/objects/HouseObjects/ballofstring2.png",202,15,202,0.7,"stim/42.jpeg",4,2,2,NA,"HouseObjects",1,2,"left","left",0.546999931,1,1,1,1,NA,NA,NA,NA,NA,NA,NA,NA,NA,NA,NA,NA,NA,NA,NA,NA,NA,NA,NA,NA,NA,NA,NA,NA
"39","stim/objects/HouseObjects/basket.png",203,15,203,0.5,"stim/14.jpeg",1,4,1,NA,"HouseObjects",1,2,"left","left",0.648000002,1,1,1,1,NA,NA,NA,NA,NA,NA,NA,NA,NA,NA,NA,NA,NA,NA,NA,NA,NA,NA,NA,NA,NA,NA,NA,NA
"10","stim/objects/HouseObjects/ashtray2.png",204,15,204,0.7,"stim/41.jpeg",4,1,2,NA,"HouseObjects",1,2,"left","left",0.521999836,1,1,1,1,NA,NA,NA,NA,NA,NA,NA,NA,NA,NA,NA,NA,NA,NA,NA,NA,NA,NA,NA,NA,NA,NA,NA,NA
"192","stim/objects/Instruments/cello2.png",205,15,205,0.9,"stim/53.jpeg",5,3,3,NA,"Instruments",2,1,"right","right",0.512000084,1,1,1,1,NA,NA,NA,NA,NA,NA,NA,NA,NA,NA,NA,NA,NA,NA,NA,NA,NA,NA,NA,NA,NA,NA,NA,NA
"35","stim/objects/HouseObjects/barbecuelighter2.png",206,15,206,0.7,"stim/43.jpeg",4,3,2,NA,"HouseObjects",1,4,"left","left",0.460999966,1,1,1,1,NA,NA,NA,NA,NA,NA,NA,NA,NA,NA,NA,NA,NA,NA,NA,NA,NA,NA,NA,NA,NA,NA,NA,NA
"40","stim/objects/HouseObjects/basket.png",207,15,207,0.5,"stim/14.jpeg",1,4,1,NA,"HouseObjects",1,3,"left","left",0.559999943,1,1,1,1,NA,NA,NA,NA,NA,NA,NA,NA,NA,NA,NA,NA,NA,NA,NA,NA,NA,NA,NA,NA,NA,NA,NA,NA
"124","stim/objects/Instruments/accordion.png",208,15,208,0.5,"stim/11.jpeg",1,1,1,NA,"Instruments",2,3,"right","right",0.761000156,1,1,1,1,NA,NA,NA,NA,NA,NA,NA,NA,NA,NA,NA,NA,NA,NA,NA,NA,NA,NA,NA,NA,NA,NA,NA,NA
"214","stim/objects/Instruments/clarinet.png",209,15,209,0.7,"stim/31.jpeg",3,1,2,NA,"Instruments",2,3,"right","right",0.579999924,1,1,1,1,NA,NA,NA,NA,NA,NA,NA,NA,NA,NA,NA,NA,NA,NA,NA,NA,NA,NA,NA,NA,NA,NA,NA,NA
"125","stim/objects/Instruments/accordion.png",210,15,210,0.5,"stim/11.jpeg",1,1,1,NA,"Instruments",2,3,"right","right",0.523000002,1,1,1,1,NA,NA,NA,NA,NA,NA,NA,NA,NA,NA,NA,NA,NA,NA,NA,NA,NA,NA,NA,NA,NA,NA,NA,NA
"75","stim/objects/HouseObjects/bucket.png",211,15,211,0.3,"stim/31.jpeg",3,1,2,NA,"HouseObjects",1,1,"left","right",0.454999924,0,0,1,1,NA,NA,NA,NA,NA,NA,NA,NA,NA,NA,NA,NA,NA,NA,NA,NA,NA,NA,NA,NA,NA,NA,NA,NA
"59","stim/objects/HouseObjects/blender.png",212,15,212,0.5,"stim/22.jpeg",2,2,1,NA,"HouseObjects",1,3,"left","left",0.658000231,1,1,1,1,NA,NA,NA,NA,NA,NA,NA,NA,NA,NA,NA,NA,NA,NA,NA,NA,NA,NA,NA,NA,NA,NA,NA,NA
"198","stim/objects/Instruments/chime.png",213,15,213,0.5,"stim/24.jpeg",2,4,1,NA,"Instruments",2,1,"right","right",0.547999859,1,1,1,1,NA,NA,NA,NA,NA,NA,NA,NA,NA,NA,NA,NA,NA,NA,NA,NA,NA,NA,NA,NA,NA,NA,NA,NA
"239","stim/objects/Instruments/doublebass.png",214,15,214,0.7,"stim/34.jpeg",3,4,2,NA,"Instruments",2,4,"right","right",0.661000013,1,1,1,1,NA,NA,NA,NA,NA,NA,NA,NA,NA,NA,NA,NA,NA,NA,NA,NA,NA,NA,NA,NA,NA,NA,NA,NA
"17","stim/objects/HouseObjects/ballofstring.png",215,15,215,0.5,"stim/12.jpeg",1,2,1,NA,"HouseObjects",1,2,"left","left",0.695999861,1,1,1,1,NA,NA,NA,NA,NA,NA,NA,NA,NA,NA,NA,NA,NA,NA,NA,NA,NA,NA,NA,NA,NA,NA,NA,NA
"87","stim/objects/HouseObjects/clock.png",216,15,216,0.3,"stim/32.jpeg",3,2,2,NA,"HouseObjects",1,4,"left","right",0.592000008,0,0,1,1,NA,NA,NA,NA,NA,NA,NA,NA,NA,NA,NA,NA,NA,NA,NA,NA,NA,NA,NA,NA,NA,NA,NA,NA
"156","stim/objects/Instruments/bassdrum.png",217,15,217,0.5,"stim/21.jpeg",2,1,1,NA,"Instruments",2,4,"right","",NA,0,0,1,1,NA,NA,NA,NA,NA,NA,NA,NA,NA,NA,NA,NA,NA,NA,NA,NA,NA,NA,NA,NA,NA,NA,NA,NA
"11","stim/objects/HouseObjects/ashtray2.png",218,15,218,0.7,"stim/41.jpeg",4,1,2,NA,"HouseObjects",1,2,"left","left",0.541000128,1,1,1,1,NA,NA,NA,NA,NA,NA,NA,NA,NA,NA,NA,NA,NA,NA,NA,NA,NA,NA,NA,NA,NA,NA,NA,NA
"53","stim/objects/HouseObjects/bleachbottle.png",219,15,219,0.5,"stim/21.jpeg",2,1,1,NA,"HouseObjects",1,1,"left","left",0.519999981,1,1,1,1,NA,NA,NA,NA,NA,NA,NA,NA,NA,NA,NA,NA,NA,NA,NA,NA,NA,NA,NA,NA,NA,NA,NA,NA
"206","stim/objects/Instruments/chime2.png",220,15,220,0.9,"stim/54.jpeg",5,4,3,NA,"Instruments",2,3,"right","right",0.502999783,1,1,1,1,NA,NA,NA,NA,NA,NA,NA,NA,NA,NA,NA,NA,NA,NA,NA,NA,NA,NA,NA,NA,NA,NA,NA,NA
"41","stim/objects/HouseObjects/basket.png",221,15,221,0.5,"stim/14.jpeg",1,4,1,NA,"HouseObjects",1,4,"left","right",0.451999903,0,0,1,1,NA,NA,NA,NA,NA,NA,NA,NA,NA,NA,NA,NA,NA,NA,NA,NA,NA,NA,NA,NA,NA,NA,NA,NA
"207","stim/objects/Instruments/chime2.png",222,15,222,0.9,"stim/54.jpeg",5,4,3,NA,"Instruments",2,2,"right","left",0.344000101,0,0,1,1,NA,NA,NA,NA,NA,NA,NA,NA,NA,NA,NA,NA,NA,NA,NA,NA,NA,NA,NA,NA,NA,NA,NA,NA
"144","stim/objects/Instruments/balalaika2.png",223,15,223,0.3,"stim/43.jpeg",4,3,2,NA,"Instruments",2,3,"right","left",0.493999958,0,0,1,1,NA,NA,NA,NA,NA,NA,NA,NA,NA,NA,NA,NA,NA,NA,NA,NA,NA,NA,NA,NA,NA,NA,NA,NA
"224","stim/objects/Instruments/cornet2.png",224,15,224,0.1,"stim/62.jpeg",6,2,3,NA,"Instruments",2,1,"right","left",0.529000044,0,0,1,1,NA,NA,NA,NA,NA,NA,NA,NA,NA,NA,NA,NA,NA,NA,NA,NA,NA,NA,NA,NA,NA,NA,NA,NA
"199","stim/objects/Instruments/chime.png",225,15,225,0.5,"stim/24.jpeg",2,4,1,NA,"Instruments",2,4,"right","left",0.636000156,0,0,1,1,NA,NA,NA,NA,NA,NA,NA,NA,NA,NA,NA,NA,NA,NA,NA,NA,NA,NA,NA,NA,NA,NA,NA,NA
"108","stim/objects/HouseObjects/clothesdryingrack2.png",226,15,226,0.9,"stim/63.jpeg",6,3,3,NA,"HouseObjects",1,3,"left","left",0.535000086,1,1,1,1,NA,NA,NA,NA,NA,NA,NA,NA,NA,NA,NA,NA,NA,NA,NA,NA,NA,NA,NA,NA,NA,NA,NA,NA
"64","stim/objects/HouseObjects/bottle.png",227,15,227,0.5,"stim/23.jpeg",2,3,1,NA,"HouseObjects",1,3,"left","right",0.54700017,0,0,1,1,NA,NA,NA,NA,NA,NA,NA,NA,NA,NA,NA,NA,NA,NA,NA,NA,NA,NA,NA,NA,NA,NA,NA,NA
"24","stim/objects/HouseObjects/ballofstring2.png",228,15,228,0.7,"stim/42.jpeg",4,2,2,NA,"HouseObjects",1,4,"left","left",0.539000034,1,1,1,1,NA,NA,NA,NA,NA,NA,NA,NA,NA,NA,NA,NA,NA,NA,NA,NA,NA,NA,NA,NA,NA,NA,NA,NA
"193","stim/objects/Instruments/cello2.png",229,15,229,0.9,"stim/53.jpeg",5,3,3,NA,"Instruments",2,2,"right","right",0.555999994,1,1,1,1,NA,NA,NA,NA,NA,NA,NA,NA,NA,NA,NA,NA,NA,NA,NA,NA,NA,NA,NA,NA,NA,NA,NA,NA
"36","stim/objects/HouseObjects/barbecuelighter2.png",230,15,230,0.7,"stim/43.jpeg",4,3,2,NA,"HouseObjects",1,4,"left","left",0.486999989,1,1,1,1,NA,NA,NA,NA,NA,NA,NA,NA,NA,NA,NA,NA,NA,NA,NA,NA,NA,NA,NA,NA,NA,NA,NA,NA
"71","stim/objects/HouseObjects/broom.png",231,15,231,0.5,"stim/24.jpeg",2,4,1,NA,"HouseObjects",1,3,"left","right",0.637000084,0,0,1,1,NA,NA,NA,NA,NA,NA,NA,NA,NA,NA,NA,NA,NA,NA,NA,NA,NA,NA,NA,NA,NA,NA,NA,NA
"194","stim/objects/Instruments/cello2.png",232,15,232,0.9,"stim/53.jpeg",5,3,3,NA,"Instruments",2,1,"right","right",0.517999887,1,1,1,1,NA,NA,NA,NA,NA,NA,NA,NA,NA,NA,NA,NA,NA,NA,NA,NA,NA,NA,NA,NA,NA,NA,NA,NA
"208","stim/objects/Instruments/chime2.png",233,15,233,0.9,"stim/54.jpeg",5,4,3,NA,"Instruments",2,3,"right","right",0.628000021,1,1,1,1,NA,NA,NA,NA,NA,NA,NA,NA,NA,NA,NA,NA,NA,NA,NA,NA,NA,NA,NA,NA,NA,NA,NA,NA
"65","stim/objects/HouseObjects/bottle.png",234,15,234,0.5,"stim/23.jpeg",2,3,1,NA,"HouseObjects",1,2,"left","left",0.68200016,1,1,1,1,NA,NA,NA,NA,NA,NA,NA,NA,NA,NA,NA,NA,NA,NA,NA,NA,NA,NA,NA,NA,NA,NA,NA,NA
"120","stim/objects/HouseObjects/clothespin2.png",235,15,235,0.9,"stim/64.jpeg",6,4,3,NA,"HouseObjects",1,1,"left","left",0.565999985,1,1,1,1,NA,NA,NA,NA,NA,NA,NA,NA,NA,NA,NA,NA,NA,NA,NA,NA,NA,NA,NA,NA,NA,NA,NA,NA
"240","stim/objects/Instruments/doublebass2.png",236,15,236,0.1,"stim/64.jpeg",6,4,3,NA,"Instruments",2,3,"right","left",0.549000025,0,0,1,1,NA,NA,NA,NA,NA,NA,NA,NA,NA,NA,NA,NA,NA,NA,NA,NA,NA,NA,NA,NA,NA,NA,NA,NA
"157","stim/objects/Instruments/bassdrum.png",237,15,237,0.5,"stim/21.jpeg",2,1,1,NA,"Instruments",2,2,"right","left",0.743000031,0,0,1,1,NA,NA,NA,NA,NA,NA,NA,NA,NA,NA,NA,NA,NA,NA,NA,NA,NA,NA,NA,NA,NA,NA,NA,NA
"215","stim/objects/Instruments/clarinet.png",238,15,238,0.7,"stim/31.jpeg",3,1,2,NA,"Instruments",2,4,"right","right",0.546000004,1,1,1,1,NA,NA,NA,NA,NA,NA,NA,NA,NA,NA,NA,NA,NA,NA,NA,NA,NA,NA,NA,NA,NA,NA,NA,NA
"12","stim/objects/HouseObjects/ashtray2.png",239,15,239,0.7,"stim/41.jpeg",4,1,2,NA,"HouseObjects",1,4,"left","left",0.471999884,1,1,1,1,NA,NA,NA,NA,NA,NA,NA,NA,NA,NA,NA,NA,NA,NA,NA,NA,NA,NA,NA,NA,NA,NA,NA,NA
"185","stim/objects/Instruments/cello.png",240,15,240,0.5,"stim/23.jpeg",2,3,1,NA,"Instruments",2,4,"right","left",0.567000151,0,0,1,1,NA,NA,NA,NA,NA,NA,NA,NA,NA,NA,NA,NA,NA,NA,NA,NA,NA,NA,NA,NA,NA,NA,NA,NA
"490","stim/objects/Instruments/musicsheet.png",248,15,241,0.9,"stim/53.jpeg",5,3,3,2,"Instruments",2,1,"right","right",0.60800004,1,1,1,0,NA,NA,NA,NA,NA,NA,NA,NA,NA,NA,NA,NA,NA,NA,NA,NA,NA,NA,NA,NA,NA,NA,NA,NA
"377","stim/objects/HouseObjects/recyclingbin2.png",249,15,242,0.1,"stim/52.jpeg",5,2,3,1,"HouseObjects",1,3,"left","",NA,0,0,1,0,39,15,1,0.1,1,"stim/52.jpeg",5,2,"stim/52.jpeg",3,"right",1.076999903,2,1,4.118999958,1,2.522000074,39,0,0,NA,0,NA,1
"444","stim/objects/Instruments/keyboard.png",250,15,243,0.7,"stim/33.jpeg",3,3,2,2,"Instruments",2,4,"right","right",0.654000044,1,1,1,0,NA,NA,NA,NA,NA,NA,NA,NA,NA,NA,NA,NA,NA,NA,NA,NA,NA,NA,NA,NA,NA,NA,NA,NA
"491","stim/objects/Instruments/musicsheet.png",251,15,244,0.9,"stim/51.jpeg",5,1,3,2,"Instruments",2,2,"right","right",0.503000021,1,1,1,0,NA,NA,NA,NA,NA,NA,NA,NA,NA,NA,NA,NA,NA,NA,NA,NA,NA,NA,NA,NA,NA,NA,NA,NA
"562","stim/objects/Instruments/trumpet2.png",252,15,245,0.1,"stim/64.jpeg",6,4,3,1,"Instruments",2,4,"right","left",0.532999992,0,0,1,0,195,15,1,0.1,2,"stim/64.jpeg",6,4,"stim/64.jpeg",4,"right",1.285000086,1,1,4.582999945,2,1.765999794,195,0,0,NA,0,NA,1
"492","stim/objects/Instruments/musicsheet.png",253,15,246,0.9,"stim/52.jpeg",5,2,3,2,"Instruments",2,4,"right","right",0.497000217,1,1,1,0,NA,NA,NA,NA,NA,NA,NA,NA,NA,NA,NA,NA,NA,NA,NA,NA,NA,NA,NA,NA,NA,NA,NA,NA
"308","stim/objects/HouseObjects/lintroller.png",254,15,247,0.9,"stim/64.jpeg",6,4,3,2,"HouseObjects",1,3,"left","left",0.522000074,1,1,1,0,NA,NA,NA,NA,NA,NA,NA,NA,NA,NA,NA,NA,NA,NA,NA,NA,NA,NA,NA,NA,NA,NA,NA,NA
"507","stim/objects/Instruments/musicstand.png",255,15,248,0.9,"stim/52.jpeg",5,2,3,2,"Instruments",2,3,"right","right",0.537999868,1,1,1,0,NA,NA,NA,NA,NA,NA,NA,NA,NA,NA,NA,NA,NA,NA,NA,NA,NA,NA,NA,NA,NA,NA,NA,NA
"508","stim/objects/Instruments/musicstand.png",256,15,249,0.9,"stim/54.jpeg",5,4,3,2,"Instruments",2,3,"right","right",0.578000069,1,1,1,0,NA,NA,NA,NA,NA,NA,NA,NA,NA,NA,NA,NA,NA,NA,NA,NA,NA,NA,NA,NA,NA,NA,NA,NA
"271","stim/objects/HouseObjects/handbrush.png",257,15,250,0.7,"stim/41.jpeg",4,1,2,2,"HouseObjects",1,2,"left","left",0.570000172,1,1,1,0,NA,NA,NA,NA,NA,NA,NA,NA,NA,NA,NA,NA,NA,NA,NA,NA,NA,NA,NA,NA,NA,NA,NA,NA
"387","stim/objects/HouseObjects/saw2.png",258,15,251,0.9,"stim/61.jpeg",6,1,3,1,"HouseObjects",1,1,"left","left",0.541000128,1,1,1,0,98,15,1,0.9,1,"stim/61.jpeg",6,1,"stim/61.jpeg",1,"left",0.934000015,4,2,3.582999945,3,1.515999794,98,1,0,0,0,0,1
"552","stim/objects/Instruments/speaker2.png",259,15,252,0.1,"stim/63.jpeg",6,3,3,1,"Instruments",2,2,"right","left",0.572999954,0,0,1,0,22,15,1,0.1,2,"stim/63.jpeg",6,3,"stim/63.jpeg",2,"left",1.753999949,3,3,4.299000025,1,3.21999979,22,1,1,1,0,0,1
"395","stim/objects/HouseObjects/teapot2.png",260,15,253,0.9,"stim/61.jpeg",6,1,3,1,"HouseObjects",1,1,"left","left",0.609999895,1,1,1,0,90,15,1,0.9,1,"stim/61.jpeg",6,1,"stim/61.jpeg",1,"left",1.01699996,4,1,1.88499999,2,2.76699996,90,1,1,1,0,0,1
"549","stim/objects/Instruments/saxophone.png",261,15,254,0.5,"stim/12.jpeg",1,2,1,1,"Instruments",2,3,"right","left",0.680000067,0,0,1,0,76,15,1,0.5,1,"stim/12.jpeg",1,2,"stim/12.jpeg",3,"left",1.319000006,3,3,2.917999983,2,2.042999983,76,1,0,0,0,0,1
"560","stim/objects/Instruments/trombone2.png",262,15,255,0.1,"stim/63.jpeg",6,3,3,1,"Instruments",2,4,"right","left",0.544000149,0,0,1,0,42,15,1,0.1,2,"stim/63.jpeg",6,3,"stim/63.jpeg",4,"right",1.744999886,1,1,1.921999931,4,2.826999903,42,0,0,NA,1,NA,1
"408","stim/objects/Instruments/drums2.png",263,15,256,0.7,"stim/33.jpeg",3,3,2,1,"Instruments",2,1,"right","right",0.625999928,1,1,1,0,58,15,1,0.7,2,"stim/33.jpeg",3,3,"stim/33.jpeg",1,"right",1.01699996,4,1,2.842000008,4,1.889999866,58,0,0,NA,0,NA,1
"493","stim/objects/Instruments/musicsheet.png",264,15,257,0.9,"stim/51.jpeg",5,1,3,2,"Instruments",2,4,"right","right",0.582999945,1,1,1,0,NA,NA,NA,NA,NA,NA,NA,NA,NA,NA,NA,NA,NA,NA,NA,NA,NA,NA,NA,NA,NA,NA,NA,NA
"423","stim/objects/Instruments/frenchhorn2.png",265,15,258,0.3,"stim/42.jpeg",4,2,2,1,"Instruments",2,1,"right","left",0.57799983,0,0,1,0,174,15,1,0.3,2,"stim/42.jpeg",4,2,"stim/42.jpeg",1,"right",1.034999847,1,2,2.249999762,2,3.082999945,174,0,1,NA,0,NA,1
"267","stim/objects/HouseObjects/glassmop2.png",266,15,259,0.7,"stim/43.jpeg",4,3,2,1,"HouseObjects",1,3,"left","left",0.549999952,1,1,1,0,54,15,1,0.7,1,"stim/43.jpeg",4,3,"stim/43.jpeg",3,"left",1.217999935,4,3,5.510999918,1,3.230000019,54,1,1,1,0,0,1
"393","stim/objects/HouseObjects/spraybottle2.png",267,15,260,0.9,"stim/64.jpeg",6,4,3,1,"HouseObjects",1,4,"left","left",0.690000057,1,1,1,0,44,15,1,0.9,1,"stim/64.jpeg",6,4,"stim/64.jpeg",4,"left",2.226000071,2,4,2.774999857,3,4.029000044,44,1,1,1,0,0,1
"307","stim/objects/HouseObjects/knife2.png",268,15,261,0.1,"stim/51.jpeg",5,1,3,1,"HouseObjects",1,3,"left","right",0.56400013,0,0,1,0,33,15,1,0.1,1,"stim/51.jpeg",5,1,"stim/51.jpeg",3,"left",1.267999887,3,1,1.90899992,3,3.076999903,33,1,1,1,1,1,1
"443","stim/objects/Instruments/hihat2.png",269,15,262,0.3,"stim/44.jpeg",4,4,2,1,"Instruments",2,2,"right","left",0.480000019,0,0,1,0,60,15,1,0.3,2,"stim/44.jpeg",4,4,"stim/44.jpeg",2,"right",2.258999825,4,2,2.389999866,3,1.948999882,60,0,0,NA,0,NA,1
"325","stim/objects/HouseObjects/match.png",270,15,263,0.9,"stim/64.jpeg",6,4,3,2,"HouseObjects",1,1,"left","left",0.514999866,1,1,1,0,NA,NA,NA,NA,NA,NA,NA,NA,NA,NA,NA,NA,NA,NA,NA,NA,NA,NA,NA,NA,NA,NA,NA,NA
"420","stim/objects/Instruments/flutetrans2.png",271,15,264,0.7,"stim/33.jpeg",3,3,2,1,"Instruments",2,1,"right","right",0.786999941,1,1,1,0,185,15,1,0.7,2,"stim/33.jpeg",3,3,"stim/33.jpeg",1,"left",1.184999943,3,2,2.366999865,4,1.732999802,185,1,0,0,0,0,1
"509","stim/objects/Instruments/musicstand.png",272,15,265,0.9,"stim/52.jpeg",5,2,3,2,"Instruments",2,2,"right","left",0.52699995,0,0,1,0,NA,NA,NA,NA,NA,NA,NA,NA,NA,NA,NA,NA,NA,NA,NA,NA,NA,NA,NA,NA,NA,NA,NA,NA
"523","stim/objects/Instruments/musicstand2.png",273,15,266,0.9,"stim/52.jpeg",5,2,3,1,"Instruments",2,4,"right","right",0.463000059,1,1,1,0,4,15,1,0.9,2,"stim/52.jpeg",5,2,"stim/52.jpeg",4,"left",4.204999924,4,1,7.917000055,2,5.507999897,4,1,0,0,0,0,1
"559","stim/objects/Instruments/trombone.png",274,15,267,0.5,"stim/24.jpeg",2,4,1,1,"Instruments",2,1,"right","left",0.710999966,0,0,1,0,34,15,1,0.5,2,"stim/24.jpeg",2,4,"stim/24.jpeg",1,"left",1.471999884,2,4,5.91899991,2,2.154000044,34,1,1,1,0,0,1
"510","stim/objects/Instruments/musicstand.png",275,15,268,0.9,"stim/54.jpeg",5,4,3,2,"Instruments",2,3,"right","right",0.605000019,1,1,1,0,NA,NA,NA,NA,NA,NA,NA,NA,NA,NA,NA,NA,NA,NA,NA,NA,NA,NA,NA,NA,NA,NA,NA,NA
"310","stim/objects/HouseObjects/lintroller.png",276,15,269,0.9,"stim/61.jpeg",6,1,3,2,"HouseObjects",1,1,"left","left",0.575999975,1,1,1,0,NA,NA,NA,NA,NA,NA,NA,NA,NA,NA,NA,NA,NA,NA,NA,NA,NA,NA,NA,NA,NA,NA,NA,NA
"424","stim/objects/Instruments/gong.png",277,15,270,0.5,"stim/23.jpeg",2,3,1,2,"Instruments",2,2,"right","left",0.638000011,0,0,1,0,NA,NA,NA,NA,NA,NA,NA,NA,NA,NA,NA,NA,NA,NA,NA,NA,NA,NA,NA,NA,NA,NA,NA,NA
"494","stim/objects/Instruments/musicsheet.png",278,15,271,0.9,"stim/51.jpeg",5,1,3,2,"Instruments",2,4,"right","right",0.555000067,1,1,1,0,NA,NA,NA,NA,NA,NA,NA,NA,NA,NA,NA,NA,NA,NA,NA,NA,NA,NA,NA,NA,NA,NA,NA,NA
"344","stim/objects/HouseObjects/pan.png",279,15,272,0.9,"stim/61.jpeg",6,1,3,2,"HouseObjects",1,1,"left","left",0.522000074,1,1,1,0,NA,NA,NA,NA,NA,NA,NA,NA,NA,NA,NA,NA,NA,NA,NA,NA,NA,NA,NA,NA,NA,NA,NA,NA
"473","stim/objects/Instruments/metronome.png",280,15,273,0.9,"stim/54.jpeg",5,4,3,2,"Instruments",2,1,"right","right",0.523000002,1,1,1,0,NA,NA,NA,NA,NA,NA,NA,NA,NA,NA,NA,NA,NA,NA,NA,NA,NA,NA,NA,NA,NA,NA,NA,NA
"436","stim/objects/Instruments/harp.png",281,15,274,0.7,"stim/34.jpeg",3,4,2,2,"Instruments",2,2,"right","right",0.861000061,1,1,1,0,NA,NA,NA,NA,NA,NA,NA,NA,NA,NA,NA,NA,NA,NA,NA,NA,NA,NA,NA,NA,NA,NA,NA,NA
"376","stim/objects/HouseObjects/recyclingbin.png",282,15,275,0.5,"stim/13.jpeg",1,3,1,1,"HouseObjects",1,4,"left","left",0.554999828,1,1,1,0,151,15,1,0.5,1,"stim/13.jpeg",1,3,"stim/13.jpeg",4,"left",1.216999769,4,3,5.134000063,3,3.383999825,151,1,1,1,0,0,1
"412","stim/objects/Instruments/electricguitar.png",283,15,276,0.5,"stim/12.jpeg",1,2,1,2,"Instruments",2,2,"right","left",0.63499999,0,0,1,0,NA,NA,NA,NA,NA,NA,NA,NA,NA,NA,NA,NA,NA,NA,NA,NA,NA,NA,NA,NA,NA,NA,NA,NA
"254","stim/objects/HouseObjects/dustpan.png",284,15,277,0.5,"stim/12.jpeg",1,2,1,2,"HouseObjects",1,3,"left","left",0.611000061,1,1,1,0,NA,NA,NA,NA,NA,NA,NA,NA,NA,NA,NA,NA,NA,NA,NA,NA,NA,NA,NA,NA,NA,NA,NA,NA
"511","stim/objects/Instruments/musicstand.png",285,15,278,0.9,"stim/54.jpeg",5,4,3,2,"Instruments",2,4,"right","right",0.54399991,1,1,1,0,NA,NA,NA,NA,NA,NA,NA,NA,NA,NA,NA,NA,NA,NA,NA,NA,NA,NA,NA,NA,NA,NA,NA,NA
"326","stim/objects/HouseObjects/match.png",286,15,279,0.9,"stim/64.jpeg",6,4,3,2,"HouseObjects",1,4,"left","left",0.559000015,1,1,1,0,NA,NA,NA,NA,NA,NA,NA,NA,NA,NA,NA,NA,NA,NA,NA,NA,NA,NA,NA,NA,NA,NA,NA,NA
"433","stim/objects/Instruments/harmonica.png",287,15,280,0.5,"stim/22.jpeg",2,2,1,2,"Instruments",2,3,"right","left",0.687999964,0,0,1,0,NA,NA,NA,NA,NA,NA,NA,NA,NA,NA,NA,NA,NA,NA,NA,NA,NA,NA,NA,NA,NA,NA,NA,NA
"244","stim/objects/HouseObjects/cushion.png",288,15,281,0.5,"stim/12.jpeg",1,2,1,2,"HouseObjects",1,4,"left","left",0.611000061,1,1,1,0,NA,NA,NA,NA,NA,NA,NA,NA,NA,NA,NA,NA,NA,NA,NA,NA,NA,NA,NA,NA,NA,NA,NA,NA
"496","stim/objects/Instruments/musicsheet.png",289,15,282,0.9,"stim/54.jpeg",5,4,3,2,"Instruments",2,2,"right","right",0.589999914,1,1,1,0,NA,NA,NA,NA,NA,NA,NA,NA,NA,NA,NA,NA,NA,NA,NA,NA,NA,NA,NA,NA,NA,NA,NA,NA
"417","stim/objects/Instruments/flute2.png",290,15,283,0.7,"stim/32.jpeg",3,2,2,1,"Instruments",2,2,"right","right",0.618999958,1,1,1,0,164,15,1,0.7,2,"stim/32.jpeg",3,2,"stim/32.jpeg",2,"right",1.517999887,2,2,1.582999706,2,3.766000032,164,0,1,NA,1,NA,1
"427","stim/objects/Instruments/grandpiano.png",291,15,284,0.5,"stim/21.jpeg",2,1,1,2,"Instruments",2,3,"right","left",0.573999882,0,0,1,0,NA,NA,NA,NA,NA,NA,NA,NA,NA,NA,NA,NA,NA,NA,NA,NA,NA,NA,NA,NA,NA,NA,NA,NA
"250","stim/objects/HouseObjects/doormat.png",292,15,285,0.5,"stim/11.jpeg",1,1,1,2,"HouseObjects",1,1,"left","right",0.812999964,0,0,1,0,NA,NA,NA,NA,NA,NA,NA,NA,NA,NA,NA,NA,NA,NA,NA,NA,NA,NA,NA,NA,NA,NA,NA,NA
"418","stim/objects/Instruments/flutetrans.png",293,15,286,0.5,"stim/11.jpeg",1,1,1,2,"Instruments",2,3,"right","right",0.578999996,1,1,1,0,NA,NA,NA,NA,NA,NA,NA,NA,NA,NA,NA,NA,NA,NA,NA,NA,NA,NA,NA,NA,NA,NA,NA,NA
"401","stim/objects/HouseObjects/towel2.png",294,15,287,0.9,"stim/64.jpeg",6,4,3,1,"HouseObjects",1,2,"left","left",0.506000042,1,1,1,0,140,15,1,0.9,1,"stim/64.jpeg",6,4,"stim/64.jpeg",2,"right",1.074999809,1,1,1.734999895,2,2.039999962,140,0,0,NA,1,NA,1
"512","stim/objects/Instruments/musicstand.png",295,15,288,0.9,"stim/51.jpeg",5,1,3,2,"Instruments",2,4,"right","right",0.478000164,1,1,1,0,NA,NA,NA,NA,NA,NA,NA,NA,NA,NA,NA,NA,NA,NA,NA,NA,NA,NA,NA,NA,NA,NA,NA,NA
"311","stim/objects/HouseObjects/lintroller.png",296,15,289,0.9,"stim/64.jpeg",6,4,3,2,"HouseObjects",1,4,"left","left",0.522000074,1,1,1,0,NA,NA,NA,NA,NA,NA,NA,NA,NA,NA,NA,NA,NA,NA,NA,NA,NA,NA,NA,NA,NA,NA,NA,NA
"293","stim/objects/HouseObjects/knife.png",297,15,290,0.9,"stim/64.jpeg",6,4,3,2,"HouseObjects",1,2,"left","left",0.508000135,1,1,1,0,NA,NA,NA,NA,NA,NA,NA,NA,NA,NA,NA,NA,NA,NA,NA,NA,NA,NA,NA,NA,NA,NA,NA,NA
"389","stim/objects/HouseObjects/scale2.png",298,15,291,0.9,"stim/62.jpeg",6,2,3,1,"HouseObjects",1,3,"left","left",0.530999899,1,1,1,0,173,15,1,0.9,1,"stim/62.jpeg",6,2,"stim/62.jpeg",3,"right",1.100999832,3,1,1.332999945,4,1.148999929,173,0,0,NA,0,NA,1
"506","stim/objects/Instruments/musicsheet2.png",299,15,292,0.9,"stim/51.jpeg",5,1,3,1,"Instruments",2,3,"right","right",0.555000067,1,1,1,0,56,15,1,0.9,2,"stim/51.jpeg",5,1,"stim/51.jpeg",3,"left",1.092999935,4,2,3.777999878,2,3.502999783,56,1,0,0,0,0,1
"380","stim/objects/HouseObjects/rubbergloves.png",300,15,293,0.5,"stim/11.jpeg",1,1,1,1,"HouseObjects",1,4,"left","right",0.745000124,0,0,1,0,72,15,1,0.5,1,"stim/11.jpeg",1,1,"stim/11.jpeg",4,"left",1.151000023,4,1,4.150000095,3,2.365999937,72,1,1,1,0,0,1
"386","stim/objects/HouseObjects/saw.png",301,15,294,0.5,"stim/21.jpeg",2,1,1,1,"HouseObjects",1,1,"left","left",0.563999891,1,1,1,0,7,15,1,0.5,2,"stim/21.jpeg",2,1,"stim/21.jpeg",1,"right",4.455999851,2,2,6.75999999,1,3.482000113,7,0,0,NA,1,NA,1
"526","stim/objects/Instruments/oboe.png",302,15,295,0.9,"stim/54.jpeg",5,4,3,2,"Instruments",2,2,"right","right",0.589999914,1,1,1,0,NA,NA,NA,NA,NA,NA,NA,NA,NA,NA,NA,NA,NA,NA,NA,NA,NA,NA,NA,NA,NA,NA,NA,NA
"342","stim/objects/HouseObjects/pan.png",303,15,296,0.9,"stim/64.jpeg",6,4,3,2,"HouseObjects",1,2,"left","left",0.463000059,1,1,1,0,NA,NA,NA,NA,NA,NA,NA,NA,NA,NA,NA,NA,NA,NA,NA,NA,NA,NA,NA,NA,NA,NA,NA,NA
"437","stim/objects/Instruments/harp.png",304,15,297,0.7,"stim/31.jpeg",3,1,2,2,"Instruments",2,3,"right","right",0.611000061,1,1,1,0,NA,NA,NA,NA,NA,NA,NA,NA,NA,NA,NA,NA,NA,NA,NA,NA,NA,NA,NA,NA,NA,NA,NA,NA
"274","stim/objects/HouseObjects/handbrush2.png",305,15,298,0.7,"stim/41.jpeg",4,1,2,1,"HouseObjects",1,1,"left","left",0.553999901,1,1,1,0,138,15,1,0.7,1,"stim/41.jpeg",4,1,"stim/41.jpeg",1,"left",1.098999977,4,4,4.535999775,1,4.576999903,138,1,0,0,1,1,1
"411","stim/objects/Instruments/electricdrumset2.png",306,15,299,0.7,"stim/34.jpeg",3,4,2,1,"Instruments",2,1,"right","right",0.592999935,1,1,1,0,166,15,1,0.7,2,"stim/34.jpeg",3,4,"stim/34.jpeg",1,"left",0.967999935,4,1,6.632999897,3,1.549999714,166,1,0,0,0,0,1
"327","stim/objects/HouseObjects/match.png",307,15,300,0.9,"stim/61.jpeg",6,1,3,2,"HouseObjects",1,4,"left","left",0.539000034,1,1,1,0,NA,NA,NA,NA,NA,NA,NA,NA,NA,NA,NA,NA,NA,NA,NA,NA,NA,NA,NA,NA,NA,NA,NA,NA
"438","stim/objects/Instruments/harp.png",308,15,301,0.7,"stim/33.jpeg",3,3,2,2,"Instruments",2,2,"right","right",0.625,1,1,1,0,NA,NA,NA,NA,NA,NA,NA,NA,NA,NA,NA,NA,NA,NA,NA,NA,NA,NA,NA,NA,NA,NA,NA,NA
"458","stim/objects/Instruments/marimba.png",309,15,302,0.9,"stim/52.jpeg",5,2,3,2,"Instruments",2,3,"right","right",0.605999947,1,1,1,0,NA,NA,NA,NA,NA,NA,NA,NA,NA,NA,NA,NA,NA,NA,NA,NA,NA,NA,NA,NA,NA,NA,NA,NA
"345","stim/objects/HouseObjects/pan.png",310,15,303,0.9,"stim/62.jpeg",6,2,3,2,"HouseObjects",1,2,"left","left",0.582000017,1,1,1,0,NA,NA,NA,NA,NA,NA,NA,NA,NA,NA,NA,NA,NA,NA,NA,NA,NA,NA,NA,NA,NA,NA,NA,NA
"550","stim/objects/Instruments/saxophone2.png",311,15,304,0.9,"stim/54.jpeg",5,4,3,1,"Instruments",2,1,"right","right",0.586999893,1,1,1,0,88,15,1,0.9,2,"stim/54.jpeg",5,4,"stim/54.jpeg",1,"right",1.338000059,1,2,1.832999945,3,1.5,88,0,0,NA,0,NA,1
"362","stim/objects/HouseObjects/pitcher.png",312,15,305,0.9,"stim/64.jpeg",6,4,3,2,"HouseObjects",1,4,"left","left",0.433000088,1,1,1,0,NA,NA,NA,NA,NA,NA,NA,NA,NA,NA,NA,NA,NA,NA,NA,NA,NA,NA,NA,NA,NA,NA,NA,NA
"328","stim/objects/HouseObjects/match.png",313,15,306,0.9,"stim/63.jpeg",6,3,3,2,"HouseObjects",1,2,"left","left",0.575999975,1,1,1,0,NA,NA,NA,NA,NA,NA,NA,NA,NA,NA,NA,NA,NA,NA,NA,NA,NA,NA,NA,NA,NA,NA,NA,NA
"294","stim/objects/HouseObjects/knife.png",314,15,307,0.9,"stim/62.jpeg",6,2,3,2,"HouseObjects",1,1,"left","left",0.523000002,1,1,1,0,NA,NA,NA,NA,NA,NA,NA,NA,NA,NA,NA,NA,NA,NA,NA,NA,NA,NA,NA,NA,NA,NA,NA,NA
"295","stim/objects/HouseObjects/knife.png",315,15,308,0.9,"stim/64.jpeg",6,4,3,2,"HouseObjects",1,4,"left","left",0.53399992,1,1,1,0,NA,NA,NA,NA,NA,NA,NA,NA,NA,NA,NA,NA,NA,NA,NA,NA,NA,NA,NA,NA,NA,NA,NA,NA
"261","stim/objects/HouseObjects/garbagebin2.png",316,15,309,0.7,"stim/41.jpeg",4,1,2,1,"HouseObjects",1,1,"left","left",0.559999943,1,1,1,0,71,15,1,0.7,1,"stim/41.jpeg",4,1,"stim/41.jpeg",1,"left",1.904000044,3,3,1.899999857,2,1.315999746,71,1,0,0,0,0,1
"570","stim/objects/Instruments/xylophone2.png",317,15,310,0.1,"stim/64.jpeg",6,4,3,1,"Instruments",2,4,"right","left",0.539999962,0,0,1,0,13,15,1,0.1,2,"stim/64.jpeg",6,4,"stim/64.jpeg",4,"left",1.049000025,3,2,4.602999926,3,3.607999802,13,1,0,0,0,0,1
"384","stim/objects/HouseObjects/safetypin.png",318,15,311,0.5,"stim/13.jpeg",1,3,1,1,"HouseObjects",1,1,"left","left",0.74000001,1,1,1,0,21,15,1,0.5,1,"stim/13.jpeg",1,3,"stim/13.jpeg",1,"left",0.977999926,4,2,8.320999861,1,2.508999825,21,1,0,0,1,1,1
"449","stim/objects/Instruments/laud.png",319,15,312,0.7,"stim/33.jpeg",3,3,2,2,"Instruments",2,3,"right","right",0.599999905,1,1,1,0,NA,NA,NA,NA,NA,NA,NA,NA,NA,NA,NA,NA,NA,NA,NA,NA,NA,NA,NA,NA,NA,NA,NA,NA
"406","stim/objects/Instruments/drums.png",320,15,313,0.5,"stim/11.jpeg",1,1,1,2,"Instruments",2,3,"right","right",0.851000071,1,1,1,0,NA,NA,NA,NA,NA,NA,NA,NA,NA,NA,NA,NA,NA,NA,NA,NA,NA,NA,NA,NA,NA,NA,NA,NA
"528","stim/objects/Instruments/oboe.png",321,15,314,0.9,"stim/51.jpeg",5,1,3,2,"Instruments",2,3,"right","right",0.633999825,1,1,1,0,NA,NA,NA,NA,NA,NA,NA,NA,NA,NA,NA,NA,NA,NA,NA,NA,NA,NA,NA,NA,NA,NA,NA,NA
"402","stim/objects/HouseObjects/vacuumcleaner.png",322,15,315,0.3,"stim/34.jpeg",3,4,2,1,"HouseObjects",1,3,"left","right",0.574999809,0,0,1,0,41,15,1,0.3,1,"stim/34.jpeg",3,4,"stim/34.jpeg",3,"left",2.18900013,3,1,2.332999945,3,2.582999945,41,1,0,0,1,1,1
"363","stim/objects/HouseObjects/pitcher.png",323,15,316,0.9,"stim/61.jpeg",6,1,3,2,"HouseObjects",1,2,"left","left",0.520999908,1,1,1,0,NA,NA,NA,NA,NA,NA,NA,NA,NA,NA,NA,NA,NA,NA,NA,NA,NA,NA,NA,NA,NA,NA,NA,NA
"312","stim/objects/HouseObjects/lintroller.png",324,15,317,0.9,"stim/63.jpeg",6,3,3,2,"HouseObjects",1,1,"left","left",0.565000057,1,1,1,0,NA,NA,NA,NA,NA,NA,NA,NA,NA,NA,NA,NA,NA,NA,NA,NA,NA,NA,NA,NA,NA,NA,NA,NA
"265","stim/objects/HouseObjects/glassmop.png",325,15,318,0.5,"stim/23.jpeg",2,3,1,2,"HouseObjects",1,3,"left","left",0.68900013,1,1,1,0,NA,NA,NA,NA,NA,NA,NA,NA,NA,NA,NA,NA,NA,NA,NA,NA,NA,NA,NA,NA,NA,NA,NA,NA
"403","stim/objects/HouseObjects/vacuumcleaner2.png",326,15,319,0.9,"stim/61.jpeg",6,1,3,1,"HouseObjects",1,1,"left","left",0.537000179,1,1,1,0,94,15,1,0.9,1,"stim/61.jpeg",6,1,"stim/61.jpeg",1,"right",1.035000086,1,4,4.849999905,1,3.365999937,94,0,0,NA,1,NA,1
"440","stim/objects/Instruments/hihat.png",327,15,320,0.7,"stim/31.jpeg",3,1,2,2,"Instruments",2,4,"right","right",0.59100008,1,1,1,0,NA,NA,NA,NA,NA,NA,NA,NA,NA,NA,NA,NA,NA,NA,NA,NA,NA,NA,NA,NA,NA,NA,NA,NA
"268","stim/objects/HouseObjects/hairdryer.png",328,15,321,0.5,"stim/23.jpeg",2,3,1,2,"HouseObjects",1,4,"left","left",0.545000076,1,1,1,0,NA,NA,NA,NA,NA,NA,NA,NA,NA,NA,NA,NA,NA,NA,NA,NA,NA,NA,NA,NA,NA,NA,NA,NA
"554","stim/objects/Instruments/tambourine2.png",329,15,322,0.1,"stim/64.jpeg",6,4,3,1,"Instruments",2,4,"right","left",0.489000082,0,0,1,0,153,15,1,0.1,2,"stim/64.jpeg",6,4,"stim/64.jpeg",4,"right",1.034999847,1,4,1.799999952,1,1.615999937,153,0,1,NA,0,NA,1
"313","stim/objects/HouseObjects/lintroller.png",330,15,323,0.9,"stim/64.jpeg",6,4,3,2,"HouseObjects",1,2,"left","left",0.476999998,1,1,1,0,NA,NA,NA,NA,NA,NA,NA,NA,NA,NA,NA,NA,NA,NA,NA,NA,NA,NA,NA,NA,NA,NA,NA,NA
"247","stim/objects/HouseObjects/dishsoap.png",331,15,324,0.5,"stim/13.jpeg",1,3,1,2,"HouseObjects",1,4,"left","left",0.773999929,1,1,1,0,NA,NA,NA,NA,NA,NA,NA,NA,NA,NA,NA,NA,NA,NA,NA,NA,NA,NA,NA,NA,NA,NA,NA,NA
"497","stim/objects/Instruments/musicsheet.png",332,15,325,0.9,"stim/54.jpeg",5,4,3,2,"Instruments",2,2,"right","right",0.548000097,1,1,1,0,NA,NA,NA,NA,NA,NA,NA,NA,NA,NA,NA,NA,NA,NA,NA,NA,NA,NA,NA,NA,NA,NA,NA,NA
"558","stim/objects/Instruments/triangle2.png",333,15,326,0.1,"stim/62.jpeg",6,2,3,1,"Instruments",2,2,"right","left",0.551999807,0,0,1,0,125,15,1,0.1,2,"stim/62.jpeg",6,2,"stim/62.jpeg",2,"right",1.307999849,1,2,3.523999929,2,1.784999847,125,0,1,NA,1,NA,1
"280","stim/objects/HouseObjects/iron.png",334,15,327,0.7,"stim/41.jpeg",4,1,2,2,"HouseObjects",1,4,"left","left",0.544000149,1,1,1,0,NA,NA,NA,NA,NA,NA,NA,NA,NA,NA,NA,NA,NA,NA,NA,NA,NA,NA,NA,NA,NA,NA,NA,NA
"529","stim/objects/Instruments/oboe.png",335,15,328,0.9,"stim/54.jpeg",5,4,3,2,"Instruments",2,3,"right","right",0.555999994,1,1,1,0,NA,NA,NA,NA,NA,NA,NA,NA,NA,NA,NA,NA,NA,NA,NA,NA,NA,NA,NA,NA,NA,NA,NA,NA
"296","stim/objects/HouseObjects/knife.png",336,15,329,0.9,"stim/63.jpeg",6,3,3,2,"HouseObjects",1,1,"left","left",0.607000113,1,1,1,0,NA,NA,NA,NA,NA,NA,NA,NA,NA,NA,NA,NA,NA,NA,NA,NA,NA,NA,NA,NA,NA,NA,NA,NA
"555","stim/objects/Instruments/timbal.png",337,15,330,0.5,"stim/22.jpeg",2,2,1,1,"Instruments",2,2,"right","left",0.60800004,0,0,1,0,124,15,1,0.5,2,"stim/22.jpeg",2,2,"stim/22.jpeg",2,"left",0.914000034,4,4,2.97300005,2,2.371000051,124,1,0,0,1,1,1
"409","stim/objects/Instruments/electricdrumset.png",338,15,331,0.5,"stim/11.jpeg",1,1,1,2,"Instruments",2,1,"right","right",0.673000097,1,1,1,0,NA,NA,NA,NA,NA,NA,NA,NA,NA,NA,NA,NA,NA,NA,NA,NA,NA,NA,NA,NA,NA,NA,NA,NA
"314","stim/objects/HouseObjects/lintroller.png",339,15,332,0.9,"stim/62.jpeg",6,2,3,2,"HouseObjects",1,1,"left","left",0.513999939,1,1,1,0,NA,NA,NA,NA,NA,NA,NA,NA,NA,NA,NA,NA,NA,NA,NA,NA,NA,NA,NA,NA,NA,NA,NA,NA
"364","stim/objects/HouseObjects/pitcher.png",340,15,333,0.9,"stim/62.jpeg",6,2,3,2,"HouseObjects",1,3,"left","left",0.544000149,1,1,1,0,NA,NA,NA,NA,NA,NA,NA,NA,NA,NA,NA,NA,NA,NA,NA,NA,NA,NA,NA,NA,NA,NA,NA,NA
"329","stim/objects/HouseObjects/match.png",341,15,334,0.9,"stim/61.jpeg",6,1,3,2,"HouseObjects",1,3,"left","right",0.75999999,0,0,1,0,NA,NA,NA,NA,NA,NA,NA,NA,NA,NA,NA,NA,NA,NA,NA,NA,NA,NA,NA,NA,NA,NA,NA,NA
"330","stim/objects/HouseObjects/match.png",342,15,335,0.9,"stim/62.jpeg",6,2,3,2,"HouseObjects",1,4,"left","left",0.51699996,1,1,1,0,NA,NA,NA,NA,NA,NA,NA,NA,NA,NA,NA,NA,NA,NA,NA,NA,NA,NA,NA,NA,NA,NA,NA,NA
"361","stim/objects/HouseObjects/pitcher.png",343,15,336,0.9,"stim/63.jpeg",6,3,3,2,"HouseObjects",1,2,"left","left",0.506000042,1,1,1,0,NA,NA,NA,NA,NA,NA,NA,NA,NA,NA,NA,NA,NA,NA,NA,NA,NA,NA,NA,NA,NA,NA,NA,NA
"315","stim/objects/HouseObjects/lintroller.png",344,15,337,0.9,"stim/62.jpeg",6,2,3,2,"HouseObjects",1,2,"left","left",0.523000002,1,1,1,0,NA,NA,NA,NA,NA,NA,NA,NA,NA,NA,NA,NA,NA,NA,NA,NA,NA,NA,NA,NA,NA,NA,NA,NA
"530","stim/objects/Instruments/oboe.png",345,15,338,0.9,"stim/54.jpeg",5,4,3,2,"Instruments",2,1,"right","right",0.512000084,1,1,1,0,NA,NA,NA,NA,NA,NA,NA,NA,NA,NA,NA,NA,NA,NA,NA,NA,NA,NA,NA,NA,NA,NA,NA,NA
"248","stim/objects/HouseObjects/dishsoap.png",346,15,339,0.5,"stim/14.jpeg",1,4,1,2,"HouseObjects",1,1,"left","left",0.686000109,1,1,1,0,NA,NA,NA,NA,NA,NA,NA,NA,NA,NA,NA,NA,NA,NA,NA,NA,NA,NA,NA,NA,NA,NA,NA,NA
"515","stim/objects/Instruments/musicstand.png",347,15,340,0.9,"stim/53.jpeg",5,3,3,2,"Instruments",2,3,"right","right",0.588000059,1,1,1,0,NA,NA,NA,NA,NA,NA,NA,NA,NA,NA,NA,NA,NA,NA,NA,NA,NA,NA,NA,NA,NA,NA,NA,NA
"553","stim/objects/Instruments/tambourine.png",348,15,341,0.5,"stim/21.jpeg",2,1,1,1,"Instruments",2,2,"right","left",0.657000065,0,0,1,0,19,15,1,0.5,2,"stim/21.jpeg",2,1,"stim/21.jpeg",2,"right",4.362999916,3,1,3.029999971,4,4.306999922,19,0,1,NA,0,NA,1
"564","stim/objects/Instruments/tuba2.png",349,15,342,0.1,"stim/61.jpeg",6,1,3,1,"Instruments",2,2,"right","left",0.796000004,0,0,1,0,156,15,1,0.1,2,"stim/61.jpeg",6,1,"stim/61.jpeg",2,"right",0.984999895,2,1,1.599999905,4,2.748999834,156,0,1,NA,0,NA,1
"298","stim/objects/HouseObjects/knife.png",350,15,343,0.9,"stim/61.jpeg",6,1,3,2,"HouseObjects",1,2,"left","left",0.401000023,1,1,1,0,NA,NA,NA,NA,NA,NA,NA,NA,NA,NA,NA,NA,NA,NA,NA,NA,NA,NA,NA,NA,NA,NA,NA,NA
"531","stim/objects/Instruments/oboe.png",351,15,344,0.9,"stim/54.jpeg",5,4,3,2,"Instruments",2,2,"right","right",0.569999933,1,1,1,0,NA,NA,NA,NA,NA,NA,NA,NA,NA,NA,NA,NA,NA,NA,NA,NA,NA,NA,NA,NA,NA,NA,NA,NA
"498","stim/objects/Instruments/musicsheet.png",352,15,345,0.9,"stim/54.jpeg",5,4,3,2,"Instruments",2,3,"right","right",0.707000017,1,1,1,0,NA,NA,NA,NA,NA,NA,NA,NA,NA,NA,NA,NA,NA,NA,NA,NA,NA,NA,NA,NA,NA,NA,NA,NA
"243","stim/objects/HouseObjects/coffee2.png",353,15,346,0.3,"stim/32.jpeg",3,2,2,1,"HouseObjects",1,2,"left","right",0.730000019,0,0,1,0,127,15,1,0.3,1,"stim/32.jpeg",3,2,"stim/32.jpeg",2,"left",1.751999855,4,1,4.131000042,2,2.021000147,127,1,0,0,1,1,1
"269","stim/objects/HouseObjects/hairdryer.png",354,15,347,0.5,"stim/24.jpeg",2,4,1,2,"HouseObjects",1,2,"left","right",0.734999895,0,0,1,0,NA,NA,NA,NA,NA,NA,NA,NA,NA,NA,NA,NA,NA,NA,NA,NA,NA,NA,NA,NA,NA,NA,NA,NA
"349","stim/objects/HouseObjects/pan.png",355,15,348,0.9,"stim/64.jpeg",6,4,3,2,"HouseObjects",1,1,"left","left",0.52699995,1,1,1,0,NA,NA,NA,NA,NA,NA,NA,NA,NA,NA,NA,NA,NA,NA,NA,NA,NA,NA,NA,NA,NA,NA,NA,NA
"365","stim/objects/HouseObjects/pitcher.png",356,15,349,0.9,"stim/62.jpeg",6,2,3,2,"HouseObjects",1,1,"left","left",0.554000139,1,1,1,0,NA,NA,NA,NA,NA,NA,NA,NA,NA,NA,NA,NA,NA,NA,NA,NA,NA,NA,NA,NA,NA,NA,NA,NA
"472","stim/objects/Instruments/marimba2.png",357,15,350,0.9,"stim/53.jpeg",5,3,3,1,"Instruments",2,1,"right","right",0.891000032,1,1,1,0,171,15,1,0.9,2,"stim/53.jpeg",5,3,"stim/53.jpeg",1,"right",1.03399992,2,1,1.799999952,4,2.199999809,171,0,0,NA,0,NA,1
"432","stim/objects/Instruments/guitarcase2.png",358,15,351,0.3,"stim/41.jpeg",4,1,2,1,"Instruments",2,4,"right","left",0.575999975,0,0,1,0,183,15,1,0.3,2,"stim/41.jpeg",4,1,"stim/41.jpeg",4,"left",1.333999872,4,4,2.399999857,1,1.73300004,183,1,0,0,0,0,1
"332","stim/objects/HouseObjects/match.png",359,15,352,0.9,"stim/62.jpeg",6,2,3,2,"HouseObjects",1,3,"left","left",0.487000227,1,1,1,0,NA,NA,NA,NA,NA,NA,NA,NA,NA,NA,NA,NA,NA,NA,NA,NA,NA,NA,NA,NA,NA,NA,NA,NA
"419","stim/objects/Instruments/flutetrans.png",360,15,353,0.5,"stim/14.jpeg",1,4,1,2,"Instruments",2,4,"right","left",0.738999844,0,0,1,0,NA,NA,NA,NA,NA,NA,NA,NA,NA,NA,NA,NA,NA,NA,NA,NA,NA,NA,NA,NA,NA,NA,NA,NA
"413","stim/objects/Instruments/electricguitar.png",361,15,354,0.5,"stim/13.jpeg",1,3,1,2,"Instruments",2,3,"right","left",0.628999949,0,0,1,0,NA,NA,NA,NA,NA,NA,NA,NA,NA,NA,NA,NA,NA,NA,NA,NA,NA,NA,NA,NA,NA,NA,NA,NA
"426","stim/objects/Instruments/gong2.png",362,15,355,0.3,"stim/43.jpeg",4,3,2,1,"Instruments",2,4,"right","left",0.504000187,0,0,1,0,111,15,1,0.3,2,"stim/43.jpeg",4,3,"stim/43.jpeg",4,"left",1.101000071,4,3,4.733999968,2,2.266000032,111,1,1,1,0,0,1
"350","stim/objects/HouseObjects/pan.png",363,15,356,0.9,"stim/63.jpeg",6,3,3,2,"HouseObjects",1,1,"left","left",0.503999949,1,1,1,0,NA,NA,NA,NA,NA,NA,NA,NA,NA,NA,NA,NA,NA,NA,NA,NA,NA,NA,NA,NA,NA,NA,NA,NA
"516","stim/objects/Instruments/musicstand.png",364,15,357,0.9,"stim/51.jpeg",5,1,3,2,"Instruments",2,3,"right","right",0.53399992,1,1,1,0,NA,NA,NA,NA,NA,NA,NA,NA,NA,NA,NA,NA,NA,NA,NA,NA,NA,NA,NA,NA,NA,NA,NA,NA
"499","stim/objects/Instruments/musicsheet.png",365,15,358,0.9,"stim/52.jpeg",5,2,3,2,"Instruments",2,2,"right","right",0.524999857,1,1,1,0,NA,NA,NA,NA,NA,NA,NA,NA,NA,NA,NA,NA,NA,NA,NA,NA,NA,NA,NA,NA,NA,NA,NA,NA
"450","stim/objects/Instruments/laud.png",366,15,359,0.7,"stim/32.jpeg",3,2,2,2,"Instruments",2,2,"right","right",0.575000048,1,1,1,0,NA,NA,NA,NA,NA,NA,NA,NA,NA,NA,NA,NA,NA,NA,NA,NA,NA,NA,NA,NA,NA,NA,NA,NA
"299","stim/objects/HouseObjects/knife.png",367,15,360,0.9,"stim/64.jpeg",6,4,3,2,"HouseObjects",1,2,"left","left",0.601000071,1,1,1,0,NA,NA,NA,NA,NA,NA,NA,NA,NA,NA,NA,NA,NA,NA,NA,NA,NA,NA,NA,NA,NA,NA,NA,NA
"462","stim/objects/Instruments/marimba.png",368,15,361,0.9,"stim/52.jpeg",5,2,3,2,"Instruments",2,2,"right","right",0.523000002,1,1,1,0,NA,NA,NA,NA,NA,NA,NA,NA,NA,NA,NA,NA,NA,NA,NA,NA,NA,NA,NA,NA,NA,NA,NA,NA
"551","stim/objects/Instruments/speaker.png",369,15,362,0.5,"stim/24.jpeg",2,4,1,1,"Instruments",2,1,"right","right",0.764000177,1,1,1,0,184,15,1,0.5,2,"stim/24.jpeg",2,4,"stim/24.jpeg",1,"left",1.03399992,4,3,2.349999905,3,2.76699996,184,1,0,0,0,0,1
"548","stim/objects/Instruments/record2.png",370,15,363,0.9,"stim/52.jpeg",5,2,3,1,"Instruments",2,2,"right","right",0.661000013,1,1,1,0,28,15,1,0.9,2,"stim/52.jpeg",5,2,"stim/52.jpeg",2,"left",1.536000013,4,1,5.950999975,3,3.03399992,28,1,0,0,0,0,1
"252","stim/objects/HouseObjects/doormat2.png",371,15,364,0.3,"stim/31.jpeg",3,1,2,1,"HouseObjects",1,3,"left","",NA,0,0,1,0,141,15,1,0.3,1,"stim/31.jpeg",3,1,"stim/31.jpeg",3,"right",1.282000065,1,2,2.437999964,3,1.479999781,141,0,0,NA,1,NA,1
"367","stim/objects/HouseObjects/pitcher.png",372,15,365,0.9,"stim/61.jpeg",6,1,3,2,"HouseObjects",1,3,"left","left",0.531000137,1,1,1,0,NA,NA,NA,NA,NA,NA,NA,NA,NA,NA,NA,NA,NA,NA,NA,NA,NA,NA,NA,NA,NA,NA,NA,NA
"456","stim/objects/Instruments/marimba.png",373,15,366,0.9,"stim/51.jpeg",5,1,3,2,"Instruments",2,3,"right","right",0.536999941,1,1,1,0,NA,NA,NA,NA,NA,NA,NA,NA,NA,NA,NA,NA,NA,NA,NA,NA,NA,NA,NA,NA,NA,NA,NA,NA
"500","stim/objects/Instruments/musicsheet.png",374,15,367,0.9,"stim/53.jpeg",5,3,3,2,"Instruments",2,1,"right","right",0.523000002,1,1,1,0,NA,NA,NA,NA,NA,NA,NA,NA,NA,NA,NA,NA,NA,NA,NA,NA,NA,NA,NA,NA,NA,NA,NA,NA
"477","stim/objects/Instruments/metronome.png",375,15,368,0.9,"stim/53.jpeg",5,3,3,2,"Instruments",2,1,"right","right",0.404999971,1,1,1,0,NA,NA,NA,NA,NA,NA,NA,NA,NA,NA,NA,NA,NA,NA,NA,NA,NA,NA,NA,NA,NA,NA,NA,NA
"260","stim/objects/HouseObjects/garbagebin.png",376,15,369,0.5,"stim/21.jpeg",2,1,1,2,"HouseObjects",1,4,"left","left",0.68900013,1,1,1,0,NA,NA,NA,NA,NA,NA,NA,NA,NA,NA,NA,NA,NA,NA,NA,NA,NA,NA,NA,NA,NA,NA,NA,NA
"533","stim/objects/Instruments/oboe.png",377,15,370,0.9,"stim/52.jpeg",5,2,3,2,"Instruments",2,2,"right","right",0.483999968,1,1,1,0,NA,NA,NA,NA,NA,NA,NA,NA,NA,NA,NA,NA,NA,NA,NA,NA,NA,NA,NA,NA,NA,NA,NA,NA
"333","stim/objects/HouseObjects/match.png",378,15,371,0.9,"stim/61.jpeg",6,1,3,2,"HouseObjects",1,2,"left","left",0.483999968,1,1,1,0,NA,NA,NA,NA,NA,NA,NA,NA,NA,NA,NA,NA,NA,NA,NA,NA,NA,NA,NA,NA,NA,NA,NA,NA
"292","stim/objects/HouseObjects/knife.png",379,15,372,0.9,"stim/62.jpeg",6,2,3,2,"HouseObjects",1,4,"left","left",0.520999908,1,1,1,0,NA,NA,NA,NA,NA,NA,NA,NA,NA,NA,NA,NA,NA,NA,NA,NA,NA,NA,NA,NA,NA,NA,NA,NA
"287","stim/objects/HouseObjects/key.png",380,15,373,0.7,"stim/41.jpeg",4,1,2,2,"HouseObjects",1,3,"left","right",0.504999876,0,0,1,0,NA,NA,NA,NA,NA,NA,NA,NA,NA,NA,NA,NA,NA,NA,NA,NA,NA,NA,NA,NA,NA,NA,NA,NA
"452","stim/objects/Instruments/maraca.png",381,15,374,0.7,"stim/33.jpeg",3,3,2,2,"Instruments",2,4,"right","right",0.578999996,1,1,1,0,NA,NA,NA,NA,NA,NA,NA,NA,NA,NA,NA,NA,NA,NA,NA,NA,NA,NA,NA,NA,NA,NA,NA,NA
"405","stim/objects/HouseObjects/wateringcan2.png",382,15,375,0.9,"stim/62.jpeg",6,2,3,1,"HouseObjects",1,4,"left","left",0.490999937,1,1,1,0,25,15,1,0.9,1,"stim/62.jpeg",6,2,"stim/62.jpeg",4,"right",1.249999762,2,4,5.339999914,4,2.950999975,25,0,0,NA,1,NA,1
"264","stim/objects/HouseObjects/glass2.png",383,15,376,0.7,"stim/42.jpeg",4,2,2,1,"HouseObjects",1,2,"left","left",0.556999922,1,1,1,0,116,15,1,0.7,1,"stim/42.jpeg",4,2,"stim/42.jpeg",2,"left",1.080999851,4,1,3.230000019,1,2.114000082,116,1,0,0,0,0,1
"557","stim/objects/Instruments/triangle.png",384,15,377,0.5,"stim/23.jpeg",2,3,1,1,"Instruments",2,2,"right","left",0.605000019,0,0,1,0,115,15,1,0.5,2,"stim/23.jpeg",2,3,"stim/23.jpeg",2,"left",1.368000031,3,4,3.773000002,4,2.411000013,115,1,0,0,0,0,1
"382","stim/objects/HouseObjects/rug.png",385,15,378,0.5,"stim/12.jpeg",1,2,1,1,"HouseObjects",1,2,"left","left",0.625999928,1,1,1,0,45,15,1,0.5,1,"stim/12.jpeg",1,2,"stim/12.jpeg",2,"left",1.214999914,4,1,3.088999987,3,3.006999969,45,1,0,0,0,0,1
"343","stim/objects/HouseObjects/pan.png",386,15,379,0.9,"stim/61.jpeg",6,1,3,2,"HouseObjects",1,1,"left","left",0.49000001,1,1,1,0,NA,NA,NA,NA,NA,NA,NA,NA,NA,NA,NA,NA,NA,NA,NA,NA,NA,NA,NA,NA,NA,NA,NA,NA
"414","stim/objects/Instruments/electricguitar2.png",387,15,380,0.7,"stim/31.jpeg",3,1,2,1,"Instruments",2,1,"right","right",0.565000057,1,1,1,0,3,15,1,0.7,2,"stim/31.jpeg",3,1,"stim/31.jpeg",1,"right",2.286999941,2,2,5.210000038,3,2.953999996,3,0,0,NA,0,NA,1
"415","stim/objects/Instruments/flute.png",388,15,381,0.5,"stim/13.jpeg",1,3,1,2,"Instruments",2,2,"right","left",0.5400002,0,0,1,0,NA,NA,NA,NA,NA,NA,NA,NA,NA,NA,NA,NA,NA,NA,NA,NA,NA,NA,NA,NA,NA,NA,NA,NA
"259","stim/objects/HouseObjects/garbagebin.png",389,15,382,0.5,"stim/24.jpeg",2,4,1,2,"HouseObjects",1,4,"left","left",0.570999861,1,1,1,0,NA,NA,NA,NA,NA,NA,NA,NA,NA,NA,NA,NA,NA,NA,NA,NA,NA,NA,NA,NA,NA,NA,NA,NA
"439","stim/objects/Instruments/harp2.png",390,15,383,0.3,"stim/43.jpeg",4,3,2,1,"Instruments",2,4,"right","left",0.496000051,0,0,1,0,74,15,1,0.3,2,"stim/43.jpeg",4,3,"stim/43.jpeg",4,"right",1,3,1,1.415999889,4,1.799000025,74,0,0,NA,1,NA,1
"286","stim/objects/HouseObjects/ironingboard2.png",391,15,384,0.7,"stim/44.jpeg",4,4,2,1,"HouseObjects",1,1,"left","left",0.527999878,1,1,1,0,70,15,1,0.7,1,"stim/44.jpeg",4,4,"stim/44.jpeg",1,"left",1.154999971,3,1,1.789000034,2,1.872999907,70,1,0,0,0,0,1
"457","stim/objects/Instruments/marimba.png",392,15,385,0.9,"stim/52.jpeg",5,2,3,2,"Instruments",2,3,"right","right",0.570999861,1,1,1,0,NA,NA,NA,NA,NA,NA,NA,NA,NA,NA,NA,NA,NA,NA,NA,NA,NA,NA,NA,NA,NA,NA,NA,NA
"246","stim/objects/HouseObjects/cushion2.png",393,15,386,0.3,"stim/33.jpeg",3,3,2,1,"HouseObjects",1,4,"left","right",0.598999977,0,0,1,0,6,15,1,0.3,1,"stim/33.jpeg",3,3,"stim/33.jpeg",4,"left",1.403999805,4,2,6.348999977,4,3.067000151,6,1,0,0,1,1,1
"448","stim/objects/Instruments/laud.png",394,15,387,0.7,"stim/34.jpeg",3,4,2,2,"Instruments",2,3,"right","right",0.75,1,1,1,0,NA,NA,NA,NA,NA,NA,NA,NA,NA,NA,NA,NA,NA,NA,NA,NA,NA,NA,NA,NA,NA,NA,NA,NA
"283","stim/objects/HouseObjects/ironingboard.png",395,15,388,0.7,"stim/41.jpeg",4,1,2,2,"HouseObjects",1,4,"left","left",0.552999973,1,1,1,0,NA,NA,NA,NA,NA,NA,NA,NA,NA,NA,NA,NA,NA,NA,NA,NA,NA,NA,NA,NA,NA,NA,NA,NA
"300","stim/objects/HouseObjects/knife.png",396,15,389,0.9,"stim/62.jpeg",6,2,3,2,"HouseObjects",1,3,"left","left",0.528000116,1,1,1,0,NA,NA,NA,NA,NA,NA,NA,NA,NA,NA,NA,NA,NA,NA,NA,NA,NA,NA,NA,NA,NA,NA,NA,NA
"262","stim/objects/HouseObjects/glass.png",397,15,390,0.5,"stim/22.jpeg",2,2,1,2,"HouseObjects",1,4,"left","left",0.704999924,1,1,1,0,NA,NA,NA,NA,NA,NA,NA,NA,NA,NA,NA,NA,NA,NA,NA,NA,NA,NA,NA,NA,NA,NA,NA,NA
"352","stim/objects/HouseObjects/pan.png",398,15,391,0.9,"stim/61.jpeg",6,1,3,2,"HouseObjects",1,1,"left","left",0.523000002,1,1,1,0,NA,NA,NA,NA,NA,NA,NA,NA,NA,NA,NA,NA,NA,NA,NA,NA,NA,NA,NA,NA,NA,NA,NA,NA
"394","stim/objects/HouseObjects/teapot.png",399,15,392,0.5,"stim/21.jpeg",2,1,1,1,"HouseObjects",1,4,"left","left",0.573000193,1,1,1,0,106,15,1,0.5,2,"stim/21.jpeg",2,1,"stim/21.jpeg",4,"left",1.06799984,4,1,4.315999746,1,1.549999952,106,1,1,1,0,0,1
"302","stim/objects/HouseObjects/knife.png",400,15,393,0.9,"stim/61.jpeg",6,1,3,2,"HouseObjects",1,3,"left","left",0.5,1,1,1,0,NA,NA,NA,NA,NA,NA,NA,NA,NA,NA,NA,NA,NA,NA,NA,NA,NA,NA,NA,NA,NA,NA,NA,NA
"534","stim/objects/Instruments/oboe.png",401,15,394,0.9,"stim/53.jpeg",5,3,3,2,"Instruments",2,1,"right","right",0.547999859,1,1,1,0,NA,NA,NA,NA,NA,NA,NA,NA,NA,NA,NA,NA,NA,NA,NA,NA,NA,NA,NA,NA,NA,NA,NA,NA
"430","stim/objects/Instruments/guitarcase.png",402,15,395,0.5,"stim/21.jpeg",2,1,1,2,"Instruments",2,1,"right","left",0.541000128,0,0,1,0,NA,NA,NA,NA,NA,NA,NA,NA,NA,NA,NA,NA,NA,NA,NA,NA,NA,NA,NA,NA,NA,NA,NA,NA
"451","stim/objects/Instruments/laud2.png",403,15,396,0.3,"stim/42.jpeg",4,2,2,1,"Instruments",2,3,"right","left",0.567000151,0,0,1,0,40,15,1,0.3,2,"stim/42.jpeg",4,2,"stim/42.jpeg",3,"left",2.188999891,2,3,5.753000021,4,1.928999901,40,1,0,0,0,0,1
"290","stim/objects/HouseObjects/key2.png",404,15,397,0.7,"stim/41.jpeg",4,1,2,1,"HouseObjects",1,1,"left","left",0.444999933,1,1,1,0,26,15,1,0.7,1,"stim/41.jpeg",4,1,"stim/41.jpeg",1,"right",1.664999962,2,2,3.532000065,3,2.622999907,26,0,0,NA,0,NA,1
"353","stim/objects/HouseObjects/pan.png",405,15,398,0.9,"stim/62.jpeg",6,2,3,2,"HouseObjects",1,4,"left","left",0.547999859,1,1,1,0,NA,NA,NA,NA,NA,NA,NA,NA,NA,NA,NA,NA,NA,NA,NA,NA,NA,NA,NA,NA,NA,NA,NA,NA
"303","stim/objects/HouseObjects/knife.png",406,15,399,0.9,"stim/64.jpeg",6,4,3,2,"HouseObjects",1,2,"left","left",0.510999918,1,1,1,0,NA,NA,NA,NA,NA,NA,NA,NA,NA,NA,NA,NA,NA,NA,NA,NA,NA,NA,NA,NA,NA,NA,NA,NA
"481","stim/objects/Instruments/metronome.png",407,15,400,0.9,"stim/52.jpeg",5,2,3,2,"Instruments",2,1,"right","right",0.42200017,1,1,1,0,NA,NA,NA,NA,NA,NA,NA,NA,NA,NA,NA,NA,NA,NA,NA,NA,NA,NA,NA,NA,NA,NA,NA,NA
"270","stim/objects/HouseObjects/hairdryer2.png",408,15,401,0.7,"stim/44.jpeg",4,4,2,1,"HouseObjects",1,3,"left","left",0.586999893,1,1,1,0,154,15,1,0.7,1,"stim/44.jpeg",4,4,"stim/44.jpeg",3,"right",1.002000093,2,2,1.432999849,4,2.415999889,154,0,0,NA,0,NA,1
"502","stim/objects/Instruments/musicsheet.png",409,15,402,0.9,"stim/51.jpeg",5,1,3,2,"Instruments",2,2,"right","right",0.554000139,1,1,1,0,NA,NA,NA,NA,NA,NA,NA,NA,NA,NA,NA,NA,NA,NA,NA,NA,NA,NA,NA,NA,NA,NA,NA,NA
"341","stim/objects/HouseObjects/match2.png",410,15,403,0.1,"stim/53.jpeg",5,3,3,1,"HouseObjects",1,3,"left","right",0.515000105,0,0,1,0,114,15,1,0.1,1,"stim/53.jpeg",5,3,"stim/53.jpeg",3,"right",2.066999912,1,3,2.650000095,2,2.5,114,0,1,NA,0,NA,1
"455","stim/objects/Instruments/maraca2.png",411,15,404,0.3,"stim/43.jpeg",4,3,2,1,"Instruments",2,2,"right","left",0.546999931,0,0,1,0,84,15,1,0.3,2,"stim/43.jpeg",4,3,"stim/43.jpeg",2,"left",1.585999966,3,2,4.463999987,4,1.899999857,84,1,0,0,0,0,1
"392","stim/objects/HouseObjects/spraybottle.png",412,15,405,0.5,"stim/24.jpeg",2,4,1,1,"HouseObjects",1,3,"left","left",0.786000013,1,1,1,0,161,15,1,0.5,2,"stim/24.jpeg",2,4,"stim/24.jpeg",3,"left",1.28399992,2,4,3,3,4.632999897,161,1,1,1,1,1,1
"544","stim/objects/Instruments/pipepiano2.png",413,15,406,0.9,"stim/51.jpeg",5,1,3,1,"Instruments",2,1,"right","right",0.567000151,1,1,1,0,67,15,1,0.9,2,"stim/51.jpeg",5,1,"stim/51.jpeg",1,"right",1.764999866,3,3,4.594000101,1,2.117999792,67,0,0,NA,1,NA,1
"536","stim/objects/Instruments/oboe.png",414,15,407,0.9,"stim/52.jpeg",5,2,3,2,"Instruments",2,4,"right","right",0.521000147,1,1,1,0,NA,NA,NA,NA,NA,NA,NA,NA,NA,NA,NA,NA,NA,NA,NA,NA,NA,NA,NA,NA,NA,NA,NA,NA
"474","stim/objects/Instruments/metronome.png",415,15,408,0.9,"stim/53.jpeg",5,3,3,2,"Instruments",2,3,"right","right",0.616999865,1,1,1,0,NA,NA,NA,NA,NA,NA,NA,NA,NA,NA,NA,NA,NA,NA,NA,NA,NA,NA,NA,NA,NA,NA,NA,NA
"354","stim/objects/HouseObjects/pan.png",416,15,409,0.9,"stim/62.jpeg",6,2,3,2,"HouseObjects",1,3,"left","left",0.536000013,1,1,1,0,NA,NA,NA,NA,NA,NA,NA,NA,NA,NA,NA,NA,NA,NA,NA,NA,NA,NA,NA,NA,NA,NA,NA,NA
"467","stim/objects/Instruments/marimba.png",417,15,410,0.9,"stim/51.jpeg",5,1,3,2,"Instruments",2,4,"right","right",0.513000011,1,1,1,0,NA,NA,NA,NA,NA,NA,NA,NA,NA,NA,NA,NA,NA,NA,NA,NA,NA,NA,NA,NA,NA,NA,NA,NA
"381","stim/objects/HouseObjects/rubbergloves2.png",418,15,411,0.1,"stim/54.jpeg",5,4,3,1,"HouseObjects",1,1,"left","right",0.49000001,0,0,1,0,32,15,1,0.1,1,"stim/54.jpeg",5,4,"stim/54.jpeg",1,"left",3.06799984,3,4,3.906999826,2,3.254999876,32,1,1,1,0,0,1
"279","stim/objects/HouseObjects/iron.png",419,15,412,0.7,"stim/44.jpeg",4,4,2,2,"HouseObjects",1,3,"left","left",0.502000093,1,1,1,0,NA,NA,NA,NA,NA,NA,NA,NA,NA,NA,NA,NA,NA,NA,NA,NA,NA,NA,NA,NA,NA,NA,NA,NA
"556","stim/objects/Instruments/timbal2.png",420,15,413,0.1,"stim/61.jpeg",6,1,3,1,"Instruments",2,2,"right","left",0.570999861,0,0,1,0,163,15,1,0.1,2,"stim/61.jpeg",6,1,"stim/61.jpeg",2,"left",1.55099988,2,2,2.615999937,2,2.084000111,163,1,0,0,1,1,1
"513","stim/objects/Instruments/musicstand.png",421,15,414,0.9,"stim/52.jpeg",5,2,3,2,"Instruments",2,4,"right","right",0.569999933,1,1,1,0,NA,NA,NA,NA,NA,NA,NA,NA,NA,NA,NA,NA,NA,NA,NA,NA,NA,NA,NA,NA,NA,NA,NA,NA
"525","stim/objects/Instruments/oboe.png",422,15,415,0.9,"stim/53.jpeg",5,3,3,2,"Instruments",2,2,"right","right",0.532000065,1,1,1,0,NA,NA,NA,NA,NA,NA,NA,NA,NA,NA,NA,NA,NA,NA,NA,NA,NA,NA,NA,NA,NA,NA,NA,NA
"348","stim/objects/HouseObjects/pan.png",423,15,416,0.9,"stim/63.jpeg",6,3,3,2,"HouseObjects",1,1,"left","left",0.529000044,1,1,1,0,NA,NA,NA,NA,NA,NA,NA,NA,NA,NA,NA,NA,NA,NA,NA,NA,NA,NA,NA,NA,NA,NA,NA,NA
"429","stim/objects/Instruments/grandpiano2.png",424,15,417,0.3,"stim/44.jpeg",4,4,2,1,"Instruments",2,4,"right","left",0.562999964,0,0,1,0,159,15,1,0.3,2,"stim/44.jpeg",4,4,"stim/44.jpeg",4,"right",1.06799984,1,4,2.71600008,4,2.400000095,159,0,1,NA,1,NA,1
"388","stim/objects/HouseObjects/scale.png",425,15,418,0.5,"stim/22.jpeg",2,2,1,1,"HouseObjects",1,2,"left","left",0.655999899,1,1,1,0,14,15,1,0.5,2,"stim/22.jpeg",2,2,"stim/22.jpeg",2,"right",3.29399991,2,4,8.980999947,1,3.032000065,14,0,0,NA,0,NA,1
"527","stim/objects/Instruments/oboe.png",426,15,419,0.9,"stim/51.jpeg",5,1,3,2,"Instruments",2,4,"right","right",0.512000084,1,1,1,0,NA,NA,NA,NA,NA,NA,NA,NA,NA,NA,NA,NA,NA,NA,NA,NA,NA,NA,NA,NA,NA,NA,NA,NA
"399","stim/objects/HouseObjects/thread2.png",427,15,420,0.9,"stim/63.jpeg",6,3,3,1,"HouseObjects",1,3,"left","left",0.508000135,1,1,1,0,99,15,1,0.9,1,"stim/63.jpeg",6,3,"stim/63.jpeg",3,"left",1.851000071,4,4,6.765999794,3,2.032999992,99,1,0,0,1,1,1
"466","stim/objects/Instruments/marimba.png",428,15,421,0.9,"stim/54.jpeg",5,4,3,2,"Instruments",2,3,"right","right",0.555000067,1,1,1,0,NA,NA,NA,NA,NA,NA,NA,NA,NA,NA,NA,NA,NA,NA,NA,NA,NA,NA,NA,NA,NA,NA,NA,NA
"370","stim/objects/HouseObjects/pitcher.png",429,15,422,0.9,"stim/63.jpeg",6,3,3,2,"HouseObjects",1,3,"left","left",0.519999981,1,1,1,0,NA,NA,NA,NA,NA,NA,NA,NA,NA,NA,NA,NA,NA,NA,NA,NA,NA,NA,NA,NA,NA,NA,NA,NA
"478","stim/objects/Instruments/metronome.png",430,15,423,0.9,"stim/52.jpeg",5,2,3,2,"Instruments",2,3,"right","right",0.571000099,1,1,1,0,NA,NA,NA,NA,NA,NA,NA,NA,NA,NA,NA,NA,NA,NA,NA,NA,NA,NA,NA,NA,NA,NA,NA,NA
"479","stim/objects/Instruments/metronome.png",431,15,424,0.9,"stim/51.jpeg",5,1,3,2,"Instruments",2,4,"right","right",0.479000092,1,1,1,0,NA,NA,NA,NA,NA,NA,NA,NA,NA,NA,NA,NA,NA,NA,NA,NA,NA,NA,NA,NA,NA,NA,NA,NA
"285","stim/objects/HouseObjects/ironingboard.png",432,15,425,0.7,"stim/44.jpeg",4,4,2,2,"HouseObjects",1,2,"left","left",0.497999907,1,1,1,0,NA,NA,NA,NA,NA,NA,NA,NA,NA,NA,NA,NA,NA,NA,NA,NA,NA,NA,NA,NA,NA,NA,NA,NA
"245","stim/objects/HouseObjects/cushion.png",433,15,426,0.5,"stim/13.jpeg",1,3,1,2,"HouseObjects",1,3,"left","left",0.629000187,1,1,1,0,NA,NA,NA,NA,NA,NA,NA,NA,NA,NA,NA,NA,NA,NA,NA,NA,NA,NA,NA,NA,NA,NA,NA,NA
"404","stim/objects/HouseObjects/wateringcan.png",434,15,427,0.3,"stim/31.jpeg",3,1,2,1,"HouseObjects",1,1,"left","right",0.52699995,0,0,1,0,15,15,1,0.3,1,"stim/31.jpeg",3,1,"stim/31.jpeg",1,"right",1.855000019,2,4,4.482999802,2,3.231999874,15,0,0,NA,0,NA,1
"468","stim/objects/Instruments/marimba.png",435,15,428,0.9,"stim/52.jpeg",5,2,3,2,"Instruments",2,2,"right","right",0.497999907,1,1,1,0,NA,NA,NA,NA,NA,NA,NA,NA,NA,NA,NA,NA,NA,NA,NA,NA,NA,NA,NA,NA,NA,NA,NA,NA
"324","stim/objects/HouseObjects/lintroller2.png",436,15,429,0.1,"stim/52.jpeg",5,2,3,1,"HouseObjects",1,3,"left","right",0.521999836,0,0,1,0,27,15,1,0.1,1,"stim/52.jpeg",5,2,"stim/52.jpeg",3,"left",1.247999907,3,3,3.494999886,4,2.022000074,27,1,0,0,0,0,1
"475","stim/objects/Instruments/metronome.png",437,15,430,0.9,"stim/54.jpeg",5,4,3,2,"Instruments",2,1,"right","left",0.525000095,0,0,1,0,NA,NA,NA,NA,NA,NA,NA,NA,NA,NA,NA,NA,NA,NA,NA,NA,NA,NA,NA,NA,NA,NA,NA,NA
"346","stim/objects/HouseObjects/pan.png",438,15,431,0.9,"stim/64.jpeg",6,4,3,2,"HouseObjects",1,1,"left","left",0.522000074,1,1,1,0,NA,NA,NA,NA,NA,NA,NA,NA,NA,NA,NA,NA,NA,NA,NA,NA,NA,NA,NA,NA,NA,NA,NA,NA
"347","stim/objects/HouseObjects/pan.png",439,15,432,0.9,"stim/63.jpeg",6,3,3,2,"HouseObjects",1,4,"left","left",0.50999999,1,1,1,0,NA,NA,NA,NA,NA,NA,NA,NA,NA,NA,NA,NA,NA,NA,NA,NA,NA,NA,NA,NA,NA,NA,NA,NA
"242","stim/objects/HouseObjects/coffee.png",440,15,433,0.5,"stim/12.jpeg",1,2,1,2,"HouseObjects",1,3,"left","left",0.718999863,1,1,1,0,NA,NA,NA,NA,NA,NA,NA,NA,NA,NA,NA,NA,NA,NA,NA,NA,NA,NA,NA,NA,NA,NA,NA,NA
"371","stim/objects/HouseObjects/pitcher.png",441,15,434,0.9,"stim/63.jpeg",6,3,3,2,"HouseObjects",1,4,"left","left",0.878000021,1,1,1,0,NA,NA,NA,NA,NA,NA,NA,NA,NA,NA,NA,NA,NA,NA,NA,NA,NA,NA,NA,NA,NA,NA,NA,NA
"489","stim/objects/Instruments/metronome2.png",442,15,435,0.9,"stim/54.jpeg",5,4,3,1,"Instruments",2,3,"right","right",0.587000132,1,1,1,0,61,15,1,0.9,2,"stim/54.jpeg",5,4,"stim/54.jpeg",3,"left",1.011999846,4,2,2.976999998,1,2.263999939,61,1,0,0,0,0,1
"445","stim/objects/Instruments/keyboard.png",443,15,436,0.7,"stim/31.jpeg",3,1,2,2,"Instruments",2,3,"right","right",0.644999981,1,1,1,0,NA,NA,NA,NA,NA,NA,NA,NA,NA,NA,NA,NA,NA,NA,NA,NA,NA,NA,NA,NA,NA,NA,NA,NA
"569","stim/objects/Instruments/xylophone.png",444,15,437,0.7,"stim/32.jpeg",3,2,2,1,"Instruments",2,2,"right","right",0.634000063,1,1,1,0,89,15,1,0.7,2,"stim/32.jpeg",3,2,"stim/32.jpeg",2,"right",1.28399992,3,1,1.349999905,2,1.766000032,89,0,0,NA,1,NA,1
"373","stim/objects/HouseObjects/pitcher.png",445,15,438,0.9,"stim/61.jpeg",6,1,3,2,"HouseObjects",1,1,"left","left",0.537999868,1,1,1,0,NA,NA,NA,NA,NA,NA,NA,NA,NA,NA,NA,NA,NA,NA,NA,NA,NA,NA,NA,NA,NA,NA,NA,NA
"375","stim/objects/HouseObjects/pitcher2.png",446,15,439,0.1,"stim/51.jpeg",5,1,3,1,"HouseObjects",1,1,"left","right",0.54399991,0,0,1,0,97,15,1,0.1,1,"stim/51.jpeg",5,1,"stim/51.jpeg",1,"left",1.134000063,4,2,3.866999865,3,5.215999842,97,1,0,0,0,0,1
"378","stim/objects/HouseObjects/remote.png",447,15,440,0.5,"stim/14.jpeg",1,4,1,1,"HouseObjects",1,1,"left","left",0.661000013,1,1,1,0,31,15,1,0.5,1,"stim/14.jpeg",1,4,"stim/14.jpeg",1,"left",1.473999977,4,1,3.167999983,1,2.78399992,31,1,0,0,1,1,1
"368","stim/objects/HouseObjects/pitcher.png",448,15,441,0.9,"stim/64.jpeg",6,4,3,2,"HouseObjects",1,4,"left","left",0.554000139,1,1,1,0,NA,NA,NA,NA,NA,NA,NA,NA,NA,NA,NA,NA,NA,NA,NA,NA,NA,NA,NA,NA,NA,NA,NA,NA
"563","stim/objects/Instruments/tuba.png",449,15,442,0.7,"stim/33.jpeg",3,3,2,1,"Instruments",2,4,"right","right",0.508999825,1,1,1,0,117,15,1,0.7,2,"stim/33.jpeg",3,3,"stim/33.jpeg",4,"right",1.057999849,1,3,6.545000076,2,5.914999962,117,0,1,NA,0,NA,1
"460","stim/objects/Instruments/marimba.png",450,15,443,0.9,"stim/53.jpeg",5,3,3,2,"Instruments",2,3,"right","right",0.653999805,1,1,1,0,NA,NA,NA,NA,NA,NA,NA,NA,NA,NA,NA,NA,NA,NA,NA,NA,NA,NA,NA,NA,NA,NA,NA,NA
"369","stim/objects/HouseObjects/pitcher.png",451,15,444,0.9,"stim/64.jpeg",6,4,3,2,"HouseObjects",1,2,"left","left",0.55099988,1,1,1,0,NA,NA,NA,NA,NA,NA,NA,NA,NA,NA,NA,NA,NA,NA,NA,NA,NA,NA,NA,NA,NA,NA,NA,NA
"469","stim/objects/Instruments/marimba.png",452,15,445,0.9,"stim/53.jpeg",5,3,3,2,"Instruments",2,1,"right","right",0.613999844,1,1,1,0,NA,NA,NA,NA,NA,NA,NA,NA,NA,NA,NA,NA,NA,NA,NA,NA,NA,NA,NA,NA,NA,NA,NA,NA
"518","stim/objects/Instruments/musicstand.png",453,15,446,0.9,"stim/53.jpeg",5,3,3,2,"Instruments",2,4,"right","right",0.703999996,1,1,1,0,NA,NA,NA,NA,NA,NA,NA,NA,NA,NA,NA,NA,NA,NA,NA,NA,NA,NA,NA,NA,NA,NA,NA,NA
"407","stim/objects/Instruments/drums.png",454,15,447,0.5,"stim/14.jpeg",1,4,1,2,"Instruments",2,2,"right","left",0.710999966,0,0,1,0,NA,NA,NA,NA,NA,NA,NA,NA,NA,NA,NA,NA,NA,NA,NA,NA,NA,NA,NA,NA,NA,NA,NA,NA
"485","stim/objects/Instruments/metronome.png",455,15,448,0.9,"stim/51.jpeg",5,1,3,2,"Instruments",2,1,"right","right",0.585999966,1,1,1,0,NA,NA,NA,NA,NA,NA,NA,NA,NA,NA,NA,NA,NA,NA,NA,NA,NA,NA,NA,NA,NA,NA,NA,NA
"385","stim/objects/HouseObjects/safetypin2.png",456,15,449,0.1,"stim/52.jpeg",5,2,3,1,"HouseObjects",1,4,"left","right",0.544000149,0,0,1,0,24,15,1,0.1,1,"stim/52.jpeg",5,2,"stim/52.jpeg",4,"right",1.102999926,1,1,4.605000019,3,4.359999895,24,0,0,NA,0,NA,1
"397","stim/objects/HouseObjects/thermometer2.png",457,15,450,0.9,"stim/62.jpeg",6,2,3,1,"HouseObjects",1,2,"left","left",0.508000135,1,1,1,0,75,15,1,0.9,1,"stim/62.jpeg",6,2,"stim/62.jpeg",2,"left",5.000999928,4,3,4.399999857,2,1.895999908,75,1,0,0,1,1,1
"297","stim/objects/HouseObjects/knife.png",458,15,451,0.9,"stim/63.jpeg",6,3,3,2,"HouseObjects",1,4,"left","left",0.618000031,1,1,1,0,NA,NA,NA,NA,NA,NA,NA,NA,NA,NA,NA,NA,NA,NA,NA,NA,NA,NA,NA,NA,NA,NA,NA,NA
"355","stim/objects/HouseObjects/pan.png",459,15,452,0.9,"stim/64.jpeg",6,4,3,2,"HouseObjects",1,4,"left","left",0.585000038,1,1,1,0,NA,NA,NA,NA,NA,NA,NA,NA,NA,NA,NA,NA,NA,NA,NA,NA,NA,NA,NA,NA,NA,NA,NA,NA
"383","stim/objects/HouseObjects/rug2.png",460,15,453,0.1,"stim/51.jpeg",5,1,3,1,"HouseObjects",1,2,"left","right",0.50999999,0,0,1,0,68,15,1,0.1,1,"stim/51.jpeg",5,1,"stim/51.jpeg",2,"left",1.292000055,4,2,3.071000099,1,1.495999813,68,1,0,0,0,0,1
"482","stim/objects/Instruments/metronome.png",461,15,454,0.9,"stim/53.jpeg",5,3,3,2,"Instruments",2,2,"right","right",0.590999842,1,1,1,0,NA,NA,NA,NA,NA,NA,NA,NA,NA,NA,NA,NA,NA,NA,NA,NA,NA,NA,NA,NA,NA,NA,NA,NA
"535","stim/objects/Instruments/oboe.png",462,15,455,0.9,"stim/53.jpeg",5,3,3,2,"Instruments",2,4,"right","right",0.657999992,1,1,1,0,NA,NA,NA,NA,NA,NA,NA,NA,NA,NA,NA,NA,NA,NA,NA,NA,NA,NA,NA,NA,NA,NA,NA,NA
"543","stim/objects/Instruments/pipepiano.png",463,15,456,0.5,"stim/13.jpeg",1,3,1,1,"Instruments",2,2,"right","left",0.655999899,0,0,1,0,146,15,1,0.5,1,"stim/13.jpeg",1,3,"stim/13.jpeg",2,"left",0.870999813,4,4,3.099999905,2,1.948999882,146,1,0,0,1,1,1
"320","stim/objects/HouseObjects/lintroller.png",464,15,457,0.9,"stim/63.jpeg",6,3,3,2,"HouseObjects",1,2,"left","left",0.645999908,1,1,1,0,NA,NA,NA,NA,NA,NA,NA,NA,NA,NA,NA,NA,NA,NA,NA,NA,NA,NA,NA,NA,NA,NA,NA,NA
"241","stim/objects/HouseObjects/coffee.png",465,15,458,0.5,"stim/11.jpeg",1,1,1,2,"HouseObjects",1,2,"left","left",0.675000191,1,1,1,0,NA,NA,NA,NA,NA,NA,NA,NA,NA,NA,NA,NA,NA,NA,NA,NA,NA,NA,NA,NA,NA,NA,NA,NA
