"","participant","trialN","trial_cond","scn_file","scn_cat","scn_inst","scn_condition","fillers","obj_cat","obj_cat_num","obj_file","quadrant","corr_ans","key_resp_trial.keys","key_resp_trial.rt","trial_acc","trial_acc_manual","group"
"248",15,241,0.9,"stim/53.jpeg",5,3,3,2,"Instruments",2,"stim/objects/Instruments/musicsheet.png",1,"right","right",0.60800004,1,1,1
"249",15,242,0.1,"stim/52.jpeg",5,2,3,1,"HouseObjects",1,"stim/objects/HouseObjects/recyclingbin2.png",3,"left","",NA,0,0,1
"250",15,243,0.7,"stim/33.jpeg",3,3,2,2,"Instruments",2,"stim/objects/Instruments/keyboard.png",4,"right","right",0.654000044,1,1,1
"251",15,244,0.9,"stim/51.jpeg",5,1,3,2,"Instruments",2,"stim/objects/Instruments/musicsheet.png",2,"right","right",0.503000021,1,1,1
"252",15,245,0.1,"stim/64.jpeg",6,4,3,1,"Instruments",2,"stim/objects/Instruments/trumpet2.png",4,"right","left",0.532999992,0,0,1
"253",15,246,0.9,"stim/52.jpeg",5,2,3,2,"Instruments",2,"stim/objects/Instruments/musicsheet.png",4,"right","right",0.497000217,1,1,1
"254",15,247,0.9,"stim/64.jpeg",6,4,3,2,"HouseObjects",1,"stim/objects/HouseObjects/lintroller.png",3,"left","left",0.522000074,1,1,1
"255",15,248,0.9,"stim/52.jpeg",5,2,3,2,"Instruments",2,"stim/objects/Instruments/musicstand.png",3,"right","right",0.537999868,1,1,1
"256",15,249,0.9,"stim/54.jpeg",5,4,3,2,"Instruments",2,"stim/objects/Instruments/musicstand.png",3,"right","right",0.578000069,1,1,1
"257",15,250,0.7,"stim/41.jpeg",4,1,2,2,"HouseObjects",1,"stim/objects/HouseObjects/handbrush.png",2,"left","left",0.570000172,1,1,1
"258",15,251,0.9,"stim/61.jpeg",6,1,3,1,"HouseObjects",1,"stim/objects/HouseObjects/saw2.png",1,"left","left",0.541000128,1,1,1
"259",15,252,0.1,"stim/63.jpeg",6,3,3,1,"Instruments",2,"stim/objects/Instruments/speaker2.png",2,"right","left",0.572999954,0,0,1
"260",15,253,0.9,"stim/61.jpeg",6,1,3,1,"HouseObjects",1,"stim/objects/HouseObjects/teapot2.png",1,"left","left",0.609999895,1,1,1
"261",15,254,0.5,"stim/12.jpeg",1,2,1,1,"Instruments",2,"stim/objects/Instruments/saxophone.png",3,"right","left",0.680000067,0,0,1
"262",15,255,0.1,"stim/63.jpeg",6,3,3,1,"Instruments",2,"stim/objects/Instruments/trombone2.png",4,"right","left",0.544000149,0,0,1
"263",15,256,0.7,"stim/33.jpeg",3,3,2,1,"Instruments",2,"stim/objects/Instruments/drums2.png",1,"right","right",0.625999928,1,1,1
"264",15,257,0.9,"stim/51.jpeg",5,1,3,2,"Instruments",2,"stim/objects/Instruments/musicsheet.png",4,"right","right",0.582999945,1,1,1
"265",15,258,0.3,"stim/42.jpeg",4,2,2,1,"Instruments",2,"stim/objects/Instruments/frenchhorn2.png",1,"right","left",0.57799983,0,0,1
"266",15,259,0.7,"stim/43.jpeg",4,3,2,1,"HouseObjects",1,"stim/objects/HouseObjects/glassmop2.png",3,"left","left",0.549999952,1,1,1
"267",15,260,0.9,"stim/64.jpeg",6,4,3,1,"HouseObjects",1,"stim/objects/HouseObjects/spraybottle2.png",4,"left","left",0.690000057,1,1,1
"268",15,261,0.1,"stim/51.jpeg",5,1,3,1,"HouseObjects",1,"stim/objects/HouseObjects/knife2.png",3,"left","right",0.56400013,0,0,1
"269",15,262,0.3,"stim/44.jpeg",4,4,2,1,"Instruments",2,"stim/objects/Instruments/hihat2.png",2,"right","left",0.480000019,0,0,1
"270",15,263,0.9,"stim/64.jpeg",6,4,3,2,"HouseObjects",1,"stim/objects/HouseObjects/match.png",1,"left","left",0.514999866,1,1,1
"271",15,264,0.7,"stim/33.jpeg",3,3,2,1,"Instruments",2,"stim/objects/Instruments/flutetrans2.png",1,"right","right",0.786999941,1,1,1
"272",15,265,0.9,"stim/52.jpeg",5,2,3,2,"Instruments",2,"stim/objects/Instruments/musicstand.png",2,"right","left",0.52699995,0,0,1
"273",15,266,0.9,"stim/52.jpeg",5,2,3,1,"Instruments",2,"stim/objects/Instruments/musicstand2.png",4,"right","right",0.463000059,1,1,1
"274",15,267,0.5,"stim/24.jpeg",2,4,1,1,"Instruments",2,"stim/objects/Instruments/trombone.png",1,"right","left",0.710999966,0,0,1
"275",15,268,0.9,"stim/54.jpeg",5,4,3,2,"Instruments",2,"stim/objects/Instruments/musicstand.png",3,"right","right",0.605000019,1,1,1
"276",15,269,0.9,"stim/61.jpeg",6,1,3,2,"HouseObjects",1,"stim/objects/HouseObjects/lintroller.png",1,"left","left",0.575999975,1,1,1
"277",15,270,0.5,"stim/23.jpeg",2,3,1,2,"Instruments",2,"stim/objects/Instruments/gong.png",2,"right","left",0.638000011,0,0,1
"278",15,271,0.9,"stim/51.jpeg",5,1,3,2,"Instruments",2,"stim/objects/Instruments/musicsheet.png",4,"right","right",0.555000067,1,1,1
"279",15,272,0.9,"stim/61.jpeg",6,1,3,2,"HouseObjects",1,"stim/objects/HouseObjects/pan.png",1,"left","left",0.522000074,1,1,1
"280",15,273,0.9,"stim/54.jpeg",5,4,3,2,"Instruments",2,"stim/objects/Instruments/metronome.png",1,"right","right",0.523000002,1,1,1
"281",15,274,0.7,"stim/34.jpeg",3,4,2,2,"Instruments",2,"stim/objects/Instruments/harp.png",2,"right","right",0.861000061,1,1,1
"282",15,275,0.5,"stim/13.jpeg",1,3,1,1,"HouseObjects",1,"stim/objects/HouseObjects/recyclingbin.png",4,"left","left",0.554999828,1,1,1
"283",15,276,0.5,"stim/12.jpeg",1,2,1,2,"Instruments",2,"stim/objects/Instruments/electricguitar.png",2,"right","left",0.63499999,0,0,1
"284",15,277,0.5,"stim/12.jpeg",1,2,1,2,"HouseObjects",1,"stim/objects/HouseObjects/dustpan.png",3,"left","left",0.611000061,1,1,1
"285",15,278,0.9,"stim/54.jpeg",5,4,3,2,"Instruments",2,"stim/objects/Instruments/musicstand.png",4,"right","right",0.54399991,1,1,1
"286",15,279,0.9,"stim/64.jpeg",6,4,3,2,"HouseObjects",1,"stim/objects/HouseObjects/match.png",4,"left","left",0.559000015,1,1,1
"287",15,280,0.5,"stim/22.jpeg",2,2,1,2,"Instruments",2,"stim/objects/Instruments/harmonica.png",3,"right","left",0.687999964,0,0,1
"288",15,281,0.5,"stim/12.jpeg",1,2,1,2,"HouseObjects",1,"stim/objects/HouseObjects/cushion.png",4,"left","left",0.611000061,1,1,1
"289",15,282,0.9,"stim/54.jpeg",5,4,3,2,"Instruments",2,"stim/objects/Instruments/musicsheet.png",2,"right","right",0.589999914,1,1,1
"290",15,283,0.7,"stim/32.jpeg",3,2,2,1,"Instruments",2,"stim/objects/Instruments/flute2.png",2,"right","right",0.618999958,1,1,1
"291",15,284,0.5,"stim/21.jpeg",2,1,1,2,"Instruments",2,"stim/objects/Instruments/grandpiano.png",3,"right","left",0.573999882,0,0,1
"292",15,285,0.5,"stim/11.jpeg",1,1,1,2,"HouseObjects",1,"stim/objects/HouseObjects/doormat.png",1,"left","right",0.812999964,0,0,1
"293",15,286,0.5,"stim/11.jpeg",1,1,1,2,"Instruments",2,"stim/objects/Instruments/flutetrans.png",3,"right","right",0.578999996,1,1,1
"294",15,287,0.9,"stim/64.jpeg",6,4,3,1,"HouseObjects",1,"stim/objects/HouseObjects/towel2.png",2,"left","left",0.506000042,1,1,1
"295",15,288,0.9,"stim/51.jpeg",5,1,3,2,"Instruments",2,"stim/objects/Instruments/musicstand.png",4,"right","right",0.478000164,1,1,1
"296",15,289,0.9,"stim/64.jpeg",6,4,3,2,"HouseObjects",1,"stim/objects/HouseObjects/lintroller.png",4,"left","left",0.522000074,1,1,1
"297",15,290,0.9,"stim/64.jpeg",6,4,3,2,"HouseObjects",1,"stim/objects/HouseObjects/knife.png",2,"left","left",0.508000135,1,1,1
"298",15,291,0.9,"stim/62.jpeg",6,2,3,1,"HouseObjects",1,"stim/objects/HouseObjects/scale2.png",3,"left","left",0.530999899,1,1,1
"299",15,292,0.9,"stim/51.jpeg",5,1,3,1,"Instruments",2,"stim/objects/Instruments/musicsheet2.png",3,"right","right",0.555000067,1,1,1
"300",15,293,0.5,"stim/11.jpeg",1,1,1,1,"HouseObjects",1,"stim/objects/HouseObjects/rubbergloves.png",4,"left","right",0.745000124,0,0,1
"301",15,294,0.5,"stim/21.jpeg",2,1,1,1,"HouseObjects",1,"stim/objects/HouseObjects/saw.png",1,"left","left",0.563999891,1,1,1
"302",15,295,0.9,"stim/54.jpeg",5,4,3,2,"Instruments",2,"stim/objects/Instruments/oboe.png",2,"right","right",0.589999914,1,1,1
"303",15,296,0.9,"stim/64.jpeg",6,4,3,2,"HouseObjects",1,"stim/objects/HouseObjects/pan.png",2,"left","left",0.463000059,1,1,1
"304",15,297,0.7,"stim/31.jpeg",3,1,2,2,"Instruments",2,"stim/objects/Instruments/harp.png",3,"right","right",0.611000061,1,1,1
"305",15,298,0.7,"stim/41.jpeg",4,1,2,1,"HouseObjects",1,"stim/objects/HouseObjects/handbrush2.png",1,"left","left",0.553999901,1,1,1
"306",15,299,0.7,"stim/34.jpeg",3,4,2,1,"Instruments",2,"stim/objects/Instruments/electricdrumset2.png",1,"right","right",0.592999935,1,1,1
"307",15,300,0.9,"stim/61.jpeg",6,1,3,2,"HouseObjects",1,"stim/objects/HouseObjects/match.png",4,"left","left",0.539000034,1,1,1
"308",15,301,0.7,"stim/33.jpeg",3,3,2,2,"Instruments",2,"stim/objects/Instruments/harp.png",2,"right","right",0.625,1,1,1
"309",15,302,0.9,"stim/52.jpeg",5,2,3,2,"Instruments",2,"stim/objects/Instruments/marimba.png",3,"right","right",0.605999947,1,1,1
"310",15,303,0.9,"stim/62.jpeg",6,2,3,2,"HouseObjects",1,"stim/objects/HouseObjects/pan.png",2,"left","left",0.582000017,1,1,1
"311",15,304,0.9,"stim/54.jpeg",5,4,3,1,"Instruments",2,"stim/objects/Instruments/saxophone2.png",1,"right","right",0.586999893,1,1,1
"312",15,305,0.9,"stim/64.jpeg",6,4,3,2,"HouseObjects",1,"stim/objects/HouseObjects/pitcher.png",4,"left","left",0.433000088,1,1,1
"313",15,306,0.9,"stim/63.jpeg",6,3,3,2,"HouseObjects",1,"stim/objects/HouseObjects/match.png",2,"left","left",0.575999975,1,1,1
"314",15,307,0.9,"stim/62.jpeg",6,2,3,2,"HouseObjects",1,"stim/objects/HouseObjects/knife.png",1,"left","left",0.523000002,1,1,1
"315",15,308,0.9,"stim/64.jpeg",6,4,3,2,"HouseObjects",1,"stim/objects/HouseObjects/knife.png",4,"left","left",0.53399992,1,1,1
"316",15,309,0.7,"stim/41.jpeg",4,1,2,1,"HouseObjects",1,"stim/objects/HouseObjects/garbagebin2.png",1,"left","left",0.559999943,1,1,1
"317",15,310,0.1,"stim/64.jpeg",6,4,3,1,"Instruments",2,"stim/objects/Instruments/xylophone2.png",4,"right","left",0.539999962,0,0,1
"318",15,311,0.5,"stim/13.jpeg",1,3,1,1,"HouseObjects",1,"stim/objects/HouseObjects/safetypin.png",1,"left","left",0.74000001,1,1,1
"319",15,312,0.7,"stim/33.jpeg",3,3,2,2,"Instruments",2,"stim/objects/Instruments/laud.png",3,"right","right",0.599999905,1,1,1
"320",15,313,0.5,"stim/11.jpeg",1,1,1,2,"Instruments",2,"stim/objects/Instruments/drums.png",3,"right","right",0.851000071,1,1,1
"321",15,314,0.9,"stim/51.jpeg",5,1,3,2,"Instruments",2,"stim/objects/Instruments/oboe.png",3,"right","right",0.633999825,1,1,1
"322",15,315,0.3,"stim/34.jpeg",3,4,2,1,"HouseObjects",1,"stim/objects/HouseObjects/vacuumcleaner.png",3,"left","right",0.574999809,0,0,1
"323",15,316,0.9,"stim/61.jpeg",6,1,3,2,"HouseObjects",1,"stim/objects/HouseObjects/pitcher.png",2,"left","left",0.520999908,1,1,1
"324",15,317,0.9,"stim/63.jpeg",6,3,3,2,"HouseObjects",1,"stim/objects/HouseObjects/lintroller.png",1,"left","left",0.565000057,1,1,1
"325",15,318,0.5,"stim/23.jpeg",2,3,1,2,"HouseObjects",1,"stim/objects/HouseObjects/glassmop.png",3,"left","left",0.68900013,1,1,1
"326",15,319,0.9,"stim/61.jpeg",6,1,3,1,"HouseObjects",1,"stim/objects/HouseObjects/vacuumcleaner2.png",1,"left","left",0.537000179,1,1,1
"327",15,320,0.7,"stim/31.jpeg",3,1,2,2,"Instruments",2,"stim/objects/Instruments/hihat.png",4,"right","right",0.59100008,1,1,1
"328",15,321,0.5,"stim/23.jpeg",2,3,1,2,"HouseObjects",1,"stim/objects/HouseObjects/hairdryer.png",4,"left","left",0.545000076,1,1,1
"329",15,322,0.1,"stim/64.jpeg",6,4,3,1,"Instruments",2,"stim/objects/Instruments/tambourine2.png",4,"right","left",0.489000082,0,0,1
"330",15,323,0.9,"stim/64.jpeg",6,4,3,2,"HouseObjects",1,"stim/objects/HouseObjects/lintroller.png",2,"left","left",0.476999998,1,1,1
"331",15,324,0.5,"stim/13.jpeg",1,3,1,2,"HouseObjects",1,"stim/objects/HouseObjects/dishsoap.png",4,"left","left",0.773999929,1,1,1
"332",15,325,0.9,"stim/54.jpeg",5,4,3,2,"Instruments",2,"stim/objects/Instruments/musicsheet.png",2,"right","right",0.548000097,1,1,1
"333",15,326,0.1,"stim/62.jpeg",6,2,3,1,"Instruments",2,"stim/objects/Instruments/triangle2.png",2,"right","left",0.551999807,0,0,1
"334",15,327,0.7,"stim/41.jpeg",4,1,2,2,"HouseObjects",1,"stim/objects/HouseObjects/iron.png",4,"left","left",0.544000149,1,1,1
"335",15,328,0.9,"stim/54.jpeg",5,4,3,2,"Instruments",2,"stim/objects/Instruments/oboe.png",3,"right","right",0.555999994,1,1,1
"336",15,329,0.9,"stim/63.jpeg",6,3,3,2,"HouseObjects",1,"stim/objects/HouseObjects/knife.png",1,"left","left",0.607000113,1,1,1
"337",15,330,0.5,"stim/22.jpeg",2,2,1,1,"Instruments",2,"stim/objects/Instruments/timbal.png",2,"right","left",0.60800004,0,0,1
"338",15,331,0.5,"stim/11.jpeg",1,1,1,2,"Instruments",2,"stim/objects/Instruments/electricdrumset.png",1,"right","right",0.673000097,1,1,1
"339",15,332,0.9,"stim/62.jpeg",6,2,3,2,"HouseObjects",1,"stim/objects/HouseObjects/lintroller.png",1,"left","left",0.513999939,1,1,1
"340",15,333,0.9,"stim/62.jpeg",6,2,3,2,"HouseObjects",1,"stim/objects/HouseObjects/pitcher.png",3,"left","left",0.544000149,1,1,1
"341",15,334,0.9,"stim/61.jpeg",6,1,3,2,"HouseObjects",1,"stim/objects/HouseObjects/match.png",3,"left","right",0.75999999,0,0,1
"342",15,335,0.9,"stim/62.jpeg",6,2,3,2,"HouseObjects",1,"stim/objects/HouseObjects/match.png",4,"left","left",0.51699996,1,1,1
"343",15,336,0.9,"stim/63.jpeg",6,3,3,2,"HouseObjects",1,"stim/objects/HouseObjects/pitcher.png",2,"left","left",0.506000042,1,1,1
"344",15,337,0.9,"stim/62.jpeg",6,2,3,2,"HouseObjects",1,"stim/objects/HouseObjects/lintroller.png",2,"left","left",0.523000002,1,1,1
"345",15,338,0.9,"stim/54.jpeg",5,4,3,2,"Instruments",2,"stim/objects/Instruments/oboe.png",1,"right","right",0.512000084,1,1,1
"346",15,339,0.5,"stim/14.jpeg",1,4,1,2,"HouseObjects",1,"stim/objects/HouseObjects/dishsoap.png",1,"left","left",0.686000109,1,1,1
"347",15,340,0.9,"stim/53.jpeg",5,3,3,2,"Instruments",2,"stim/objects/Instruments/musicstand.png",3,"right","right",0.588000059,1,1,1
"348",15,341,0.5,"stim/21.jpeg",2,1,1,1,"Instruments",2,"stim/objects/Instruments/tambourine.png",2,"right","left",0.657000065,0,0,1
"349",15,342,0.1,"stim/61.jpeg",6,1,3,1,"Instruments",2,"stim/objects/Instruments/tuba2.png",2,"right","left",0.796000004,0,0,1
"350",15,343,0.9,"stim/61.jpeg",6,1,3,2,"HouseObjects",1,"stim/objects/HouseObjects/knife.png",2,"left","left",0.401000023,1,1,1
"351",15,344,0.9,"stim/54.jpeg",5,4,3,2,"Instruments",2,"stim/objects/Instruments/oboe.png",2,"right","right",0.569999933,1,1,1
"352",15,345,0.9,"stim/54.jpeg",5,4,3,2,"Instruments",2,"stim/objects/Instruments/musicsheet.png",3,"right","right",0.707000017,1,1,1
"353",15,346,0.3,"stim/32.jpeg",3,2,2,1,"HouseObjects",1,"stim/objects/HouseObjects/coffee2.png",2,"left","right",0.730000019,0,0,1
"354",15,347,0.5,"stim/24.jpeg",2,4,1,2,"HouseObjects",1,"stim/objects/HouseObjects/hairdryer.png",2,"left","right",0.734999895,0,0,1
"355",15,348,0.9,"stim/64.jpeg",6,4,3,2,"HouseObjects",1,"stim/objects/HouseObjects/pan.png",1,"left","left",0.52699995,1,1,1
"356",15,349,0.9,"stim/62.jpeg",6,2,3,2,"HouseObjects",1,"stim/objects/HouseObjects/pitcher.png",1,"left","left",0.554000139,1,1,1
"357",15,350,0.9,"stim/53.jpeg",5,3,3,1,"Instruments",2,"stim/objects/Instruments/marimba2.png",1,"right","right",0.891000032,1,1,1
"358",15,351,0.3,"stim/41.jpeg",4,1,2,1,"Instruments",2,"stim/objects/Instruments/guitarcase2.png",4,"right","left",0.575999975,0,0,1
"359",15,352,0.9,"stim/62.jpeg",6,2,3,2,"HouseObjects",1,"stim/objects/HouseObjects/match.png",3,"left","left",0.487000227,1,1,1
"360",15,353,0.5,"stim/14.jpeg",1,4,1,2,"Instruments",2,"stim/objects/Instruments/flutetrans.png",4,"right","left",0.738999844,0,0,1
"361",15,354,0.5,"stim/13.jpeg",1,3,1,2,"Instruments",2,"stim/objects/Instruments/electricguitar.png",3,"right","left",0.628999949,0,0,1
"362",15,355,0.3,"stim/43.jpeg",4,3,2,1,"Instruments",2,"stim/objects/Instruments/gong2.png",4,"right","left",0.504000187,0,0,1
"363",15,356,0.9,"stim/63.jpeg",6,3,3,2,"HouseObjects",1,"stim/objects/HouseObjects/pan.png",1,"left","left",0.503999949,1,1,1
"364",15,357,0.9,"stim/51.jpeg",5,1,3,2,"Instruments",2,"stim/objects/Instruments/musicstand.png",3,"right","right",0.53399992,1,1,1
"365",15,358,0.9,"stim/52.jpeg",5,2,3,2,"Instruments",2,"stim/objects/Instruments/musicsheet.png",2,"right","right",0.524999857,1,1,1
"366",15,359,0.7,"stim/32.jpeg",3,2,2,2,"Instruments",2,"stim/objects/Instruments/laud.png",2,"right","right",0.575000048,1,1,1
"367",15,360,0.9,"stim/64.jpeg",6,4,3,2,"HouseObjects",1,"stim/objects/HouseObjects/knife.png",2,"left","left",0.601000071,1,1,1
"368",15,361,0.9,"stim/52.jpeg",5,2,3,2,"Instruments",2,"stim/objects/Instruments/marimba.png",2,"right","right",0.523000002,1,1,1
"369",15,362,0.5,"stim/24.jpeg",2,4,1,1,"Instruments",2,"stim/objects/Instruments/speaker.png",1,"right","right",0.764000177,1,1,1
"370",15,363,0.9,"stim/52.jpeg",5,2,3,1,"Instruments",2,"stim/objects/Instruments/record2.png",2,"right","right",0.661000013,1,1,1
"371",15,364,0.3,"stim/31.jpeg",3,1,2,1,"HouseObjects",1,"stim/objects/HouseObjects/doormat2.png",3,"left","",NA,0,0,1
"372",15,365,0.9,"stim/61.jpeg",6,1,3,2,"HouseObjects",1,"stim/objects/HouseObjects/pitcher.png",3,"left","left",0.531000137,1,1,1
"373",15,366,0.9,"stim/51.jpeg",5,1,3,2,"Instruments",2,"stim/objects/Instruments/marimba.png",3,"right","right",0.536999941,1,1,1
"374",15,367,0.9,"stim/53.jpeg",5,3,3,2,"Instruments",2,"stim/objects/Instruments/musicsheet.png",1,"right","right",0.523000002,1,1,1
"375",15,368,0.9,"stim/53.jpeg",5,3,3,2,"Instruments",2,"stim/objects/Instruments/metronome.png",1,"right","right",0.404999971,1,1,1
"376",15,369,0.5,"stim/21.jpeg",2,1,1,2,"HouseObjects",1,"stim/objects/HouseObjects/garbagebin.png",4,"left","left",0.68900013,1,1,1
"377",15,370,0.9,"stim/52.jpeg",5,2,3,2,"Instruments",2,"stim/objects/Instruments/oboe.png",2,"right","right",0.483999968,1,1,1
"378",15,371,0.9,"stim/61.jpeg",6,1,3,2,"HouseObjects",1,"stim/objects/HouseObjects/match.png",2,"left","left",0.483999968,1,1,1
"379",15,372,0.9,"stim/62.jpeg",6,2,3,2,"HouseObjects",1,"stim/objects/HouseObjects/knife.png",4,"left","left",0.520999908,1,1,1
"380",15,373,0.7,"stim/41.jpeg",4,1,2,2,"HouseObjects",1,"stim/objects/HouseObjects/key.png",3,"left","right",0.504999876,0,0,1
"381",15,374,0.7,"stim/33.jpeg",3,3,2,2,"Instruments",2,"stim/objects/Instruments/maraca.png",4,"right","right",0.578999996,1,1,1
"382",15,375,0.9,"stim/62.jpeg",6,2,3,1,"HouseObjects",1,"stim/objects/HouseObjects/wateringcan2.png",4,"left","left",0.490999937,1,1,1
"383",15,376,0.7,"stim/42.jpeg",4,2,2,1,"HouseObjects",1,"stim/objects/HouseObjects/glass2.png",2,"left","left",0.556999922,1,1,1
"384",15,377,0.5,"stim/23.jpeg",2,3,1,1,"Instruments",2,"stim/objects/Instruments/triangle.png",2,"right","left",0.605000019,0,0,1
"385",15,378,0.5,"stim/12.jpeg",1,2,1,1,"HouseObjects",1,"stim/objects/HouseObjects/rug.png",2,"left","left",0.625999928,1,1,1
"386",15,379,0.9,"stim/61.jpeg",6,1,3,2,"HouseObjects",1,"stim/objects/HouseObjects/pan.png",1,"left","left",0.49000001,1,1,1
"387",15,380,0.7,"stim/31.jpeg",3,1,2,1,"Instruments",2,"stim/objects/Instruments/electricguitar2.png",1,"right","right",0.565000057,1,1,1
"388",15,381,0.5,"stim/13.jpeg",1,3,1,2,"Instruments",2,"stim/objects/Instruments/flute.png",2,"right","left",0.5400002,0,0,1
"389",15,382,0.5,"stim/24.jpeg",2,4,1,2,"HouseObjects",1,"stim/objects/HouseObjects/garbagebin.png",4,"left","left",0.570999861,1,1,1
"390",15,383,0.3,"stim/43.jpeg",4,3,2,1,"Instruments",2,"stim/objects/Instruments/harp2.png",4,"right","left",0.496000051,0,0,1
"391",15,384,0.7,"stim/44.jpeg",4,4,2,1,"HouseObjects",1,"stim/objects/HouseObjects/ironingboard2.png",1,"left","left",0.527999878,1,1,1
"392",15,385,0.9,"stim/52.jpeg",5,2,3,2,"Instruments",2,"stim/objects/Instruments/marimba.png",3,"right","right",0.570999861,1,1,1
"393",15,386,0.3,"stim/33.jpeg",3,3,2,1,"HouseObjects",1,"stim/objects/HouseObjects/cushion2.png",4,"left","right",0.598999977,0,0,1
"394",15,387,0.7,"stim/34.jpeg",3,4,2,2,"Instruments",2,"stim/objects/Instruments/laud.png",3,"right","right",0.75,1,1,1
"395",15,388,0.7,"stim/41.jpeg",4,1,2,2,"HouseObjects",1,"stim/objects/HouseObjects/ironingboard.png",4,"left","left",0.552999973,1,1,1
"396",15,389,0.9,"stim/62.jpeg",6,2,3,2,"HouseObjects",1,"stim/objects/HouseObjects/knife.png",3,"left","left",0.528000116,1,1,1
"397",15,390,0.5,"stim/22.jpeg",2,2,1,2,"HouseObjects",1,"stim/objects/HouseObjects/glass.png",4,"left","left",0.704999924,1,1,1
"398",15,391,0.9,"stim/61.jpeg",6,1,3,2,"HouseObjects",1,"stim/objects/HouseObjects/pan.png",1,"left","left",0.523000002,1,1,1
"399",15,392,0.5,"stim/21.jpeg",2,1,1,1,"HouseObjects",1,"stim/objects/HouseObjects/teapot.png",4,"left","left",0.573000193,1,1,1
"400",15,393,0.9,"stim/61.jpeg",6,1,3,2,"HouseObjects",1,"stim/objects/HouseObjects/knife.png",3,"left","left",0.5,1,1,1
"401",15,394,0.9,"stim/53.jpeg",5,3,3,2,"Instruments",2,"stim/objects/Instruments/oboe.png",1,"right","right",0.547999859,1,1,1
"402",15,395,0.5,"stim/21.jpeg",2,1,1,2,"Instruments",2,"stim/objects/Instruments/guitarcase.png",1,"right","left",0.541000128,0,0,1
"403",15,396,0.3,"stim/42.jpeg",4,2,2,1,"Instruments",2,"stim/objects/Instruments/laud2.png",3,"right","left",0.567000151,0,0,1
"404",15,397,0.7,"stim/41.jpeg",4,1,2,1,"HouseObjects",1,"stim/objects/HouseObjects/key2.png",1,"left","left",0.444999933,1,1,1
"405",15,398,0.9,"stim/62.jpeg",6,2,3,2,"HouseObjects",1,"stim/objects/HouseObjects/pan.png",4,"left","left",0.547999859,1,1,1
"406",15,399,0.9,"stim/64.jpeg",6,4,3,2,"HouseObjects",1,"stim/objects/HouseObjects/knife.png",2,"left","left",0.510999918,1,1,1
"407",15,400,0.9,"stim/52.jpeg",5,2,3,2,"Instruments",2,"stim/objects/Instruments/metronome.png",1,"right","right",0.42200017,1,1,1
"408",15,401,0.7,"stim/44.jpeg",4,4,2,1,"HouseObjects",1,"stim/objects/HouseObjects/hairdryer2.png",3,"left","left",0.586999893,1,1,1
"409",15,402,0.9,"stim/51.jpeg",5,1,3,2,"Instruments",2,"stim/objects/Instruments/musicsheet.png",2,"right","right",0.554000139,1,1,1
"410",15,403,0.1,"stim/53.jpeg",5,3,3,1,"HouseObjects",1,"stim/objects/HouseObjects/match2.png",3,"left","right",0.515000105,0,0,1
"411",15,404,0.3,"stim/43.jpeg",4,3,2,1,"Instruments",2,"stim/objects/Instruments/maraca2.png",2,"right","left",0.546999931,0,0,1
"412",15,405,0.5,"stim/24.jpeg",2,4,1,1,"HouseObjects",1,"stim/objects/HouseObjects/spraybottle.png",3,"left","left",0.786000013,1,1,1
"413",15,406,0.9,"stim/51.jpeg",5,1,3,1,"Instruments",2,"stim/objects/Instruments/pipepiano2.png",1,"right","right",0.567000151,1,1,1
"414",15,407,0.9,"stim/52.jpeg",5,2,3,2,"Instruments",2,"stim/objects/Instruments/oboe.png",4,"right","right",0.521000147,1,1,1
"415",15,408,0.9,"stim/53.jpeg",5,3,3,2,"Instruments",2,"stim/objects/Instruments/metronome.png",3,"right","right",0.616999865,1,1,1
"416",15,409,0.9,"stim/62.jpeg",6,2,3,2,"HouseObjects",1,"stim/objects/HouseObjects/pan.png",3,"left","left",0.536000013,1,1,1
"417",15,410,0.9,"stim/51.jpeg",5,1,3,2,"Instruments",2,"stim/objects/Instruments/marimba.png",4,"right","right",0.513000011,1,1,1
"418",15,411,0.1,"stim/54.jpeg",5,4,3,1,"HouseObjects",1,"stim/objects/HouseObjects/rubbergloves2.png",1,"left","right",0.49000001,0,0,1
"419",15,412,0.7,"stim/44.jpeg",4,4,2,2,"HouseObjects",1,"stim/objects/HouseObjects/iron.png",3,"left","left",0.502000093,1,1,1
"420",15,413,0.1,"stim/61.jpeg",6,1,3,1,"Instruments",2,"stim/objects/Instruments/timbal2.png",2,"right","left",0.570999861,0,0,1
"421",15,414,0.9,"stim/52.jpeg",5,2,3,2,"Instruments",2,"stim/objects/Instruments/musicstand.png",4,"right","right",0.569999933,1,1,1
"422",15,415,0.9,"stim/53.jpeg",5,3,3,2,"Instruments",2,"stim/objects/Instruments/oboe.png",2,"right","right",0.532000065,1,1,1
"423",15,416,0.9,"stim/63.jpeg",6,3,3,2,"HouseObjects",1,"stim/objects/HouseObjects/pan.png",1,"left","left",0.529000044,1,1,1
"424",15,417,0.3,"stim/44.jpeg",4,4,2,1,"Instruments",2,"stim/objects/Instruments/grandpiano2.png",4,"right","left",0.562999964,0,0,1
"425",15,418,0.5,"stim/22.jpeg",2,2,1,1,"HouseObjects",1,"stim/objects/HouseObjects/scale.png",2,"left","left",0.655999899,1,1,1
"426",15,419,0.9,"stim/51.jpeg",5,1,3,2,"Instruments",2,"stim/objects/Instruments/oboe.png",4,"right","right",0.512000084,1,1,1
"427",15,420,0.9,"stim/63.jpeg",6,3,3,1,"HouseObjects",1,"stim/objects/HouseObjects/thread2.png",3,"left","left",0.508000135,1,1,1
"428",15,421,0.9,"stim/54.jpeg",5,4,3,2,"Instruments",2,"stim/objects/Instruments/marimba.png",3,"right","right",0.555000067,1,1,1
"429",15,422,0.9,"stim/63.jpeg",6,3,3,2,"HouseObjects",1,"stim/objects/HouseObjects/pitcher.png",3,"left","left",0.519999981,1,1,1
"430",15,423,0.9,"stim/52.jpeg",5,2,3,2,"Instruments",2,"stim/objects/Instruments/metronome.png",3,"right","right",0.571000099,1,1,1
"431",15,424,0.9,"stim/51.jpeg",5,1,3,2,"Instruments",2,"stim/objects/Instruments/metronome.png",4,"right","right",0.479000092,1,1,1
"432",15,425,0.7,"stim/44.jpeg",4,4,2,2,"HouseObjects",1,"stim/objects/HouseObjects/ironingboard.png",2,"left","left",0.497999907,1,1,1
"433",15,426,0.5,"stim/13.jpeg",1,3,1,2,"HouseObjects",1,"stim/objects/HouseObjects/cushion.png",3,"left","left",0.629000187,1,1,1
"434",15,427,0.3,"stim/31.jpeg",3,1,2,1,"HouseObjects",1,"stim/objects/HouseObjects/wateringcan.png",1,"left","right",0.52699995,0,0,1
"435",15,428,0.9,"stim/52.jpeg",5,2,3,2,"Instruments",2,"stim/objects/Instruments/marimba.png",2,"right","right",0.497999907,1,1,1
"436",15,429,0.1,"stim/52.jpeg",5,2,3,1,"HouseObjects",1,"stim/objects/HouseObjects/lintroller2.png",3,"left","right",0.521999836,0,0,1
"437",15,430,0.9,"stim/54.jpeg",5,4,3,2,"Instruments",2,"stim/objects/Instruments/metronome.png",1,"right","left",0.525000095,0,0,1
"438",15,431,0.9,"stim/64.jpeg",6,4,3,2,"HouseObjects",1,"stim/objects/HouseObjects/pan.png",1,"left","left",0.522000074,1,1,1
"439",15,432,0.9,"stim/63.jpeg",6,3,3,2,"HouseObjects",1,"stim/objects/HouseObjects/pan.png",4,"left","left",0.50999999,1,1,1
"440",15,433,0.5,"stim/12.jpeg",1,2,1,2,"HouseObjects",1,"stim/objects/HouseObjects/coffee.png",3,"left","left",0.718999863,1,1,1
"441",15,434,0.9,"stim/63.jpeg",6,3,3,2,"HouseObjects",1,"stim/objects/HouseObjects/pitcher.png",4,"left","left",0.878000021,1,1,1
"442",15,435,0.9,"stim/54.jpeg",5,4,3,1,"Instruments",2,"stim/objects/Instruments/metronome2.png",3,"right","right",0.587000132,1,1,1
"443",15,436,0.7,"stim/31.jpeg",3,1,2,2,"Instruments",2,"stim/objects/Instruments/keyboard.png",3,"right","right",0.644999981,1,1,1
"444",15,437,0.7,"stim/32.jpeg",3,2,2,1,"Instruments",2,"stim/objects/Instruments/xylophone.png",2,"right","right",0.634000063,1,1,1
"445",15,438,0.9,"stim/61.jpeg",6,1,3,2,"HouseObjects",1,"stim/objects/HouseObjects/pitcher.png",1,"left","left",0.537999868,1,1,1
"446",15,439,0.1,"stim/51.jpeg",5,1,3,1,"HouseObjects",1,"stim/objects/HouseObjects/pitcher2.png",1,"left","right",0.54399991,0,0,1
"447",15,440,0.5,"stim/14.jpeg",1,4,1,1,"HouseObjects",1,"stim/objects/HouseObjects/remote.png",1,"left","left",0.661000013,1,1,1
"448",15,441,0.9,"stim/64.jpeg",6,4,3,2,"HouseObjects",1,"stim/objects/HouseObjects/pitcher.png",4,"left","left",0.554000139,1,1,1
"449",15,442,0.7,"stim/33.jpeg",3,3,2,1,"Instruments",2,"stim/objects/Instruments/tuba.png",4,"right","right",0.508999825,1,1,1
"450",15,443,0.9,"stim/53.jpeg",5,3,3,2,"Instruments",2,"stim/objects/Instruments/marimba.png",3,"right","right",0.653999805,1,1,1
"451",15,444,0.9,"stim/64.jpeg",6,4,3,2,"HouseObjects",1,"stim/objects/HouseObjects/pitcher.png",2,"left","left",0.55099988,1,1,1
"452",15,445,0.9,"stim/53.jpeg",5,3,3,2,"Instruments",2,"stim/objects/Instruments/marimba.png",1,"right","right",0.613999844,1,1,1
"453",15,446,0.9,"stim/53.jpeg",5,3,3,2,"Instruments",2,"stim/objects/Instruments/musicstand.png",4,"right","right",0.703999996,1,1,1
"454",15,447,0.5,"stim/14.jpeg",1,4,1,2,"Instruments",2,"stim/objects/Instruments/drums.png",2,"right","left",0.710999966,0,0,1
"455",15,448,0.9,"stim/51.jpeg",5,1,3,2,"Instruments",2,"stim/objects/Instruments/metronome.png",1,"right","right",0.585999966,1,1,1
"456",15,449,0.1,"stim/52.jpeg",5,2,3,1,"HouseObjects",1,"stim/objects/HouseObjects/safetypin2.png",4,"left","right",0.544000149,0,0,1
"457",15,450,0.9,"stim/62.jpeg",6,2,3,1,"HouseObjects",1,"stim/objects/HouseObjects/thermometer2.png",2,"left","left",0.508000135,1,1,1
"458",15,451,0.9,"stim/63.jpeg",6,3,3,2,"HouseObjects",1,"stim/objects/HouseObjects/knife.png",4,"left","left",0.618000031,1,1,1
"459",15,452,0.9,"stim/64.jpeg",6,4,3,2,"HouseObjects",1,"stim/objects/HouseObjects/pan.png",4,"left","left",0.585000038,1,1,1
"460",15,453,0.1,"stim/51.jpeg",5,1,3,1,"HouseObjects",1,"stim/objects/HouseObjects/rug2.png",2,"left","right",0.50999999,0,0,1
"461",15,454,0.9,"stim/53.jpeg",5,3,3,2,"Instruments",2,"stim/objects/Instruments/metronome.png",2,"right","right",0.590999842,1,1,1
"462",15,455,0.9,"stim/53.jpeg",5,3,3,2,"Instruments",2,"stim/objects/Instruments/oboe.png",4,"right","right",0.657999992,1,1,1
"463",15,456,0.5,"stim/13.jpeg",1,3,1,1,"Instruments",2,"stim/objects/Instruments/pipepiano.png",2,"right","left",0.655999899,0,0,1
"464",15,457,0.9,"stim/63.jpeg",6,3,3,2,"HouseObjects",1,"stim/objects/HouseObjects/lintroller.png",2,"left","left",0.645999908,1,1,1
"465",15,458,0.5,"stim/11.jpeg",1,1,1,2,"HouseObjects",1,"stim/objects/HouseObjects/coffee.png",2,"left","left",0.675000191,1,1,1
"466",15,459,0.1,"stim/53.jpeg",5,3,3,1,"HouseObjects",1,"stim/objects/HouseObjects/remote2.png",1,"left","right",0.601999998,0,0,1
"467",15,460,0.5,"stim/12.jpeg",1,2,1,1,"Instruments",2,"stim/objects/Instruments/panflute.png",1,"right","left",0.64199996,0,0,1
"468",15,461,0.9,"stim/63.jpeg",6,3,3,2,"HouseObjects",1,"stim/objects/HouseObjects/match.png",1,"left","left",0.53399992,1,1,1
"469",15,462,0.9,"stim/53.jpeg",5,3,3,2,"Instruments",2,"stim/objects/Instruments/marimba.png",2,"right","right",0.59100008,1,1,1
"470",15,463,0.5,"stim/23.jpeg",2,3,1,2,"HouseObjects",1,"stim/objects/HouseObjects/flyswatter.png",4,"left","left",0.601999998,1,1,1
"471",15,464,0.7,"stim/44.jpeg",4,4,2,1,"HouseObjects",1,"stim/objects/HouseObjects/flyswatter2.png",1,"left","left",0.515000105,1,1,1
"472",15,465,0.9,"stim/52.jpeg",5,2,3,2,"Instruments",2,"stim/objects/Instruments/oboe.png",1,"right","right",0.575000048,1,1,1
"473",15,466,0.9,"stim/61.jpeg",6,1,3,2,"HouseObjects",1,"stim/objects/HouseObjects/match.png",1,"left","left",0.531000137,1,1,1
"474",15,467,0.7,"stim/43.jpeg",4,3,2,1,"HouseObjects",1,"stim/objects/HouseObjects/iron2.png",2,"left","left",0.569999933,1,1,1
"475",15,468,0.9,"stim/61.jpeg",6,1,3,2,"HouseObjects",1,"stim/objects/HouseObjects/knife.png",1,"left","left",0.851999998,1,1,1
"476",15,469,0.5,"stim/24.jpeg",2,4,1,2,"Instruments",2,"stim/objects/Instruments/gong.png",2,"right","",NA,0,0,1
"477",15,470,0.1,"stim/62.jpeg",6,2,3,1,"Instruments",2,"stim/objects/Instruments/violin2.png",4,"right","left",0.515000105,0,0,1
"478",15,471,0.9,"stim/64.jpeg",6,4,3,2,"HouseObjects",1,"stim/objects/HouseObjects/match.png",3,"left","left",0.437999964,1,1,1
"479",15,472,0.5,"stim/23.jpeg",2,3,1,2,"Instruments",2,"stim/objects/Instruments/frenchhorn.png",4,"right","left",0.572000027,0,0,1
"480",15,473,0.5,"stim/14.jpeg",1,4,1,1,"Instruments",2,"stim/objects/Instruments/record.png",1,"right","left",0.496999979,0,0,1
"481",15,474,0.9,"stim/53.jpeg",5,3,3,2,"Instruments",2,"stim/objects/Instruments/oboe.png",3,"right","right",0.517999887,1,1,1
"482",15,475,0.9,"stim/52.jpeg",5,2,3,2,"Instruments",2,"stim/objects/Instruments/musicstand.png",3,"right","left",0.544000149,0,0,1
"483",15,476,0.7,"stim/42.jpeg",4,2,2,2,"HouseObjects",1,"stim/objects/HouseObjects/key.png",1,"left","left",0.597000122,1,1,1
"484",15,477,0.9,"stim/52.jpeg",5,2,3,2,"Instruments",2,"stim/objects/Instruments/musicsheet.png",2,"right","right",0.419000149,1,1,1
"485",15,478,0.9,"stim/63.jpeg",6,3,3,2,"HouseObjects",1,"stim/objects/HouseObjects/knife.png",1,"left","left",0.539999962,1,1,1
"486",15,479,0.9,"stim/51.jpeg",5,1,3,2,"Instruments",2,"stim/objects/Instruments/metronome.png",1,"right","right",0.51699996,1,1,1
"487",15,480,0.7,"stim/43.jpeg",4,3,2,2,"HouseObjects",1,"stim/objects/HouseObjects/iron.png",3,"left","left",0.535000086,1,1,1
"488",15,481,0.9,"stim/62.jpeg",6,2,3,2,"HouseObjects",1,"stim/objects/HouseObjects/match.png",3,"left","left",0.549999952,1,1,1
"489",15,482,0.9,"stim/53.jpeg",5,3,3,2,"Instruments",2,"stim/objects/Instruments/musicstand.png",1,"right","right",0.524000168,1,1,1
"490",15,483,0.9,"stim/63.jpeg",6,3,3,2,"HouseObjects",1,"stim/objects/HouseObjects/pitcher.png",3,"left","left",0.492000103,1,1,1
"491",15,484,0.9,"stim/61.jpeg",6,1,3,2,"HouseObjects",1,"stim/objects/HouseObjects/knife.png",2,"left","left",0.522000074,1,1,1
"492",15,485,0.9,"stim/54.jpeg",5,4,3,2,"Instruments",2,"stim/objects/Instruments/marimba.png",4,"right","right",0.578000069,1,1,1
"493",15,486,0.9,"stim/62.jpeg",6,2,3,2,"HouseObjects",1,"stim/objects/HouseObjects/pitcher.png",4,"left","left",0.50999999,1,1,1
"494",15,487,0.9,"stim/51.jpeg",5,1,3,2,"Instruments",2,"stim/objects/Instruments/oboe.png",1,"right","right",0.523000002,1,1,1
"495",15,488,0.9,"stim/63.jpeg",6,3,3,2,"HouseObjects",1,"stim/objects/HouseObjects/pan.png",1,"left","left",0.464999914,1,1,1
"496",15,489,0.9,"stim/62.jpeg",6,2,3,2,"HouseObjects",1,"stim/objects/HouseObjects/pitcher.png",4,"left","left",0.454999924,1,1,1
"497",15,490,0.7,"stim/34.jpeg",3,4,2,2,"Instruments",2,"stim/objects/Instruments/hihat.png",4,"right","left",0.47300005,0,0,1
"498",15,491,0.9,"stim/54.jpeg",5,4,3,2,"Instruments",2,"stim/objects/Instruments/metronome.png",2,"right","right",0.496000051,1,1,1
"499",15,492,0.5,"stim/22.jpeg",2,2,1,2,"Instruments",2,"stim/objects/Instruments/frenchhorn.png",4,"right","left",0.621999979,0,0,1
"500",15,493,0.5,"stim/11.jpeg",1,1,1,1,"Instruments",2,"stim/objects/Instruments/record_player.png",3,"right","right",0.61500001,1,1,1
"501",15,494,0.9,"stim/51.jpeg",5,1,3,2,"Instruments",2,"stim/objects/Instruments/marimba.png",3,"right","right",0.523999929,1,1,1
"502",15,495,0.5,"stim/23.jpeg",2,3,1,1,"HouseObjects",1,"stim/objects/HouseObjects/sponge.png",3,"left","left",0.470999956,1,1,1
"503",15,496,0.9,"stim/64.jpeg",6,4,3,2,"HouseObjects",1,"stim/objects/HouseObjects/pitcher.png",3,"left","left",0.562999964,1,1,1
"504",15,497,0.5,"stim/11.jpeg",1,1,1,2,"HouseObjects",1,"stim/objects/HouseObjects/dustpan.png",4,"left","right",0.621999979,0,0,1
"505",15,498,0.7,"stim/31.jpeg",3,1,2,1,"Instruments",2,"stim/objects/Instruments/vuvuzela.png",3,"right","right",0.625,1,1,1
"506",15,499,0.9,"stim/63.jpeg",6,3,3,2,"HouseObjects",1,"stim/objects/HouseObjects/knife.png",2,"left","left",0.521999836,1,1,1
"507",15,500,0.9,"stim/63.jpeg",6,3,3,2,"HouseObjects",1,"stim/objects/HouseObjects/match.png",1,"left","left",0.526000023,1,1,1
"508",15,501,0.9,"stim/61.jpeg",6,1,3,2,"HouseObjects",1,"stim/objects/HouseObjects/pitcher.png",3,"left","left",0.61500001,1,1,1
"509",15,502,0.3,"stim/41.jpeg",4,1,2,1,"Instruments",2,"stim/objects/Instruments/keyboard2.png",4,"right","left",0.571000099,0,0,1
"510",15,503,0.9,"stim/62.jpeg",6,2,3,2,"HouseObjects",1,"stim/objects/HouseObjects/lintroller.png",3,"left","left",0.467000008,1,1,1
"511",15,504,0.9,"stim/63.jpeg",6,3,3,2,"HouseObjects",1,"stim/objects/HouseObjects/lintroller.png",1,"left","left",0.51699996,1,1,1
"512",15,505,0.3,"stim/34.jpeg",3,4,2,1,"HouseObjects",1,"stim/objects/HouseObjects/dishsoap2.png",1,"left","left",0.529999971,1,1,1
"513",15,506,0.7,"stim/42.jpeg",4,2,2,2,"HouseObjects",1,"stim/objects/HouseObjects/handbrush.png",4,"left","left",0.571000099,1,1,1
"514",15,507,0.9,"stim/51.jpeg",5,1,3,2,"Instruments",2,"stim/objects/Instruments/metronome.png",3,"right","right",0.549999952,1,1,1
"515",15,508,0.9,"stim/52.jpeg",5,2,3,2,"Instruments",2,"stim/objects/Instruments/metronome.png",4,"right","right",0.510999918,1,1,1
"516",15,509,0.9,"stim/53.jpeg",5,3,3,2,"Instruments",2,"stim/objects/Instruments/musicsheet.png",1,"right","right",0.523999929,1,1,1
"517",15,510,0.9,"stim/53.jpeg",5,3,3,1,"Instruments",2,"stim/objects/Instruments/record_player2.png",2,"right","right",0.476000071,1,1,1
"518",15,511,0.7,"stim/32.jpeg",3,2,2,2,"Instruments",2,"stim/objects/Instruments/keyboard.png",3,"right","left",0.753000021,0,0,1
"519",15,512,0.9,"stim/52.jpeg",5,2,3,2,"Instruments",2,"stim/objects/Instruments/oboe.png",2,"right","right",0.516000032,1,1,1
"520",15,513,0.5,"stim/14.jpeg",1,4,1,2,"HouseObjects",1,"stim/objects/HouseObjects/doormat.png",4,"left","left",0.708999872,1,1,1
"521",15,514,0.7,"stim/43.jpeg",4,3,2,2,"HouseObjects",1,"stim/objects/HouseObjects/handvacuum.png",4,"left","left",0.604000092,1,1,1
"522",15,515,0.9,"stim/54.jpeg",5,4,3,2,"Instruments",2,"stim/objects/Instruments/musicsheet.png",1,"right","right",0.594000101,1,1,1
"523",15,516,0.9,"stim/64.jpeg",6,4,3,2,"HouseObjects",1,"stim/objects/HouseObjects/match.png",1,"left","left",0.586999893,1,1,1
"524",15,517,0.9,"stim/52.jpeg",5,2,3,2,"Instruments",2,"stim/objects/Instruments/musicsheet.png",4,"right","right",0.621000051,1,1,1
"525",15,518,0.9,"stim/62.jpeg",6,2,3,2,"HouseObjects",1,"stim/objects/HouseObjects/lintroller.png",3,"left","left",0.548999786,1,1,1
"526",15,519,0.7,"stim/44.jpeg",4,4,2,2,"HouseObjects",1,"stim/objects/HouseObjects/handvacuum.png",2,"left","left",0.529000044,1,1,1
"527",15,520,0.3,"stim/31.jpeg",3,1,2,1,"HouseObjects",1,"stim/objects/HouseObjects/thermometer.png",1,"left","right",0.652999878,0,0,1
"528",15,521,0.7,"stim/43.jpeg",4,3,2,2,"HouseObjects",1,"stim/objects/HouseObjects/key.png",3,"left","left",0.470000029,1,1,1
"529",15,522,0.7,"stim/42.jpeg",4,2,2,1,"HouseObjects",1,"stim/objects/HouseObjects/handvacuum2.png",4,"left","left",0.571999788,1,1,1
"530",15,523,0.5,"stim/23.jpeg",2,3,1,2,"Instruments",2,"stim/objects/Instruments/harmonica.png",1,"right","left",0.628999949,0,0,1
"531",15,524,0.9,"stim/62.jpeg",6,2,3,2,"HouseObjects",1,"stim/objects/HouseObjects/pan.png",4,"left","left",0.548000097,1,1,1
"532",15,525,0.7,"stim/42.jpeg",4,2,2,2,"HouseObjects",1,"stim/objects/HouseObjects/ironingboard.png",1,"left","left",0.537999868,1,1,1
"533",15,526,0.9,"stim/63.jpeg",6,3,3,2,"HouseObjects",1,"stim/objects/HouseObjects/lintroller.png",4,"left","left",0.502000093,1,1,1
"534",15,527,0.9,"stim/51.jpeg",5,1,3,2,"Instruments",2,"stim/objects/Instruments/musicstand.png",4,"right","right",0.559999943,1,1,1
"535",15,528,0.9,"stim/52.jpeg",5,2,3,2,"Instruments",2,"stim/objects/Instruments/metronome.png",3,"right","right",0.578999996,1,1,1
"536",15,529,0.7,"stim/31.jpeg",3,1,2,2,"Instruments",2,"stim/objects/Instruments/maraca.png",1,"right","right",0.655999899,1,1,1
"537",15,530,0.9,"stim/53.jpeg",5,3,3,2,"Instruments",2,"stim/objects/Instruments/musicsheet.png",3,"right","right",0.555999994,1,1,1
"538",15,531,0.7,"stim/32.jpeg",3,2,2,2,"Instruments",2,"stim/objects/Instruments/hihat.png",2,"right","right",0.603000164,1,1,1
"539",15,532,0.5,"stim/14.jpeg",1,4,1,2,"Instruments",2,"stim/objects/Instruments/flute.png",3,"right","left",0.626999855,0,0,1
"540",15,533,0.9,"stim/61.jpeg",6,1,3,2,"HouseObjects",1,"stim/objects/HouseObjects/lintroller.png",3,"left","left",0.531000137,1,1,1
"541",15,534,0.9,"stim/51.jpeg",5,1,3,2,"Instruments",2,"stim/objects/Instruments/oboe.png",3,"right","right",0.599999905,1,1,1
"542",15,535,0.7,"stim/43.jpeg",4,3,2,2,"HouseObjects",1,"stim/objects/HouseObjects/handbrush.png",2,"left","left",0.556999922,1,1,1
"543",15,536,0.5,"stim/24.jpeg",2,4,1,2,"Instruments",2,"stim/objects/Instruments/grandpiano.png",1,"right","left",0.710000038,0,0,1
"544",15,537,0.9,"stim/53.jpeg",5,3,3,2,"Instruments",2,"stim/objects/Instruments/marimba.png",4,"right","right",0.58100009,1,1,1
"545",15,538,0.9,"stim/51.jpeg",5,1,3,2,"Instruments",2,"stim/objects/Instruments/marimba.png",3,"right","right",0.552999973,1,1,1
"546",15,539,0.1,"stim/63.jpeg",6,3,3,1,"Instruments",2,"stim/objects/Instruments/vuvuzela2.png",2,"right","left",0.555000067,0,0,1
"547",15,540,0.5,"stim/12.jpeg",1,2,1,2,"Instruments",2,"stim/objects/Instruments/electricdrumset.png",1,"right","left",0.674000025,0,0,1
"548",15,541,0.9,"stim/54.jpeg",5,4,3,2,"Instruments",2,"stim/objects/Instruments/musicstand.png",4,"right","right",0.604999781,1,1,1
"549",15,542,0.7,"stim/34.jpeg",3,4,2,2,"Instruments",2,"stim/objects/Instruments/maraca.png",2,"right","right",0.569000006,1,1,1
"550",15,543,0.7,"stim/32.jpeg",3,2,2,1,"Instruments",2,"stim/objects/Instruments/trumpet.png",2,"right","right",0.596000195,1,1,1
"551",15,544,0.7,"stim/34.jpeg",3,4,2,1,"Instruments",2,"stim/objects/Instruments/violin.png",4,"right","right",0.519000053,1,1,1
"552",15,545,0.1,"stim/54.jpeg",5,4,3,1,"HouseObjects",1,"stim/objects/HouseObjects/pan2.png",3,"left","right",0.592000008,0,0,1
"553",15,546,0.9,"stim/64.jpeg",6,4,3,2,"HouseObjects",1,"stim/objects/HouseObjects/lintroller.png",2,"left","left",0.556999922,1,1,1
"554",15,547,0.9,"stim/53.jpeg",5,3,3,1,"Instruments",2,"stim/objects/Instruments/oboe2.png",4,"right","right",0.611999989,1,1,1
"555",15,548,0.7,"stim/42.jpeg",4,2,2,2,"HouseObjects",1,"stim/objects/HouseObjects/handvacuum.png",1,"left","left",0.571000099,1,1,1
"556",15,549,0.9,"stim/54.jpeg",5,4,3,2,"Instruments",2,"stim/objects/Instruments/metronome.png",1,"right","right",0.603999853,1,1,1
"557",15,550,0.9,"stim/63.jpeg",6,3,3,1,"HouseObjects",1,"stim/objects/HouseObjects/sponge2.png",4,"left","left",0.527999878,1,1,1
"558",15,551,0.3,"stim/32.jpeg",3,2,2,1,"HouseObjects",1,"stim/objects/HouseObjects/dustpan2.png",3,"left","right",0.565999985,0,0,1
"559",15,552,0.5,"stim/24.jpeg",2,4,1,2,"HouseObjects",1,"stim/objects/HouseObjects/flyswatter.png",2,"left","left",0.500999928,1,1,1
"560",15,553,0.9,"stim/53.jpeg",5,3,3,2,"Instruments",2,"stim/objects/Instruments/metronome.png",2,"right","right",0.51699996,1,1,1
"561",15,554,0.9,"stim/54.jpeg",5,4,3,2,"Instruments",2,"stim/objects/Instruments/marimba.png",3,"right","right",0.571999788,1,1,1
"562",15,555,0.9,"stim/62.jpeg",6,2,3,2,"HouseObjects",1,"stim/objects/HouseObjects/knife.png",4,"left","left",0.595999956,1,1,1
"563",15,556,0.5,"stim/22.jpeg",2,2,1,2,"HouseObjects",1,"stim/objects/HouseObjects/glassmop.png",1,"left","left",0.605999947,1,1,1
"564",15,557,0.5,"stim/22.jpeg",2,2,1,2,"Instruments",2,"stim/objects/Instruments/guitarcase.png",2,"right","right",0.592999935,1,1,1
"565",15,558,0.3,"stim/42.jpeg",4,2,2,1,"Instruments",2,"stim/objects/Instruments/harmonica2.png",2,"right","left",0.569000006,0,0,1
"566",15,559,0.3,"stim/33.jpeg",3,3,2,1,"HouseObjects",1,"stim/objects/HouseObjects/towel.png",4,"left","right",0.572999954,0,0,1
"567",15,560,0.9,"stim/61.jpeg",6,1,3,2,"HouseObjects",1,"stim/objects/HouseObjects/pan.png",4,"left","left",0.528000116,1,1,1
"568",15,561,0.9,"stim/54.jpeg",5,4,3,2,"Instruments",2,"stim/objects/Instruments/marimba.png",2,"right","right",0.555000067,1,1,1
"569",15,562,0.9,"stim/54.jpeg",5,4,3,1,"Instruments",2,"stim/objects/Instruments/panflute2.png",3,"right","right",0.562000036,1,1,1
"570",15,563,0.9,"stim/61.jpeg",6,1,3,2,"HouseObjects",1,"stim/objects/HouseObjects/lintroller.png",2,"left","left",0.503999949,1,1,1
"571",15,564,0.9,"stim/63.jpeg",6,3,3,2,"HouseObjects",1,"stim/objects/HouseObjects/match.png",2,"left","left",0.555000067,1,1,1
"572",15,565,0.9,"stim/53.jpeg",5,3,3,2,"Instruments",2,"stim/objects/Instruments/musicstand.png",2,"right","right",0.523000002,1,1,1
"573",15,566,0.9,"stim/51.jpeg",5,1,3,2,"Instruments",2,"stim/objects/Instruments/musicstand.png",3,"right","right",0.572000027,1,1,1
"574",15,567,0.9,"stim/62.jpeg",6,2,3,2,"HouseObjects",1,"stim/objects/HouseObjects/match.png",1,"left","left",0.578000069,1,1,1
"575",15,568,0.9,"stim/61.jpeg",6,1,3,2,"HouseObjects",1,"stim/objects/HouseObjects/lintroller.png",4,"left","left",0.541999817,1,1,1
"576",15,569,0.5,"stim/21.jpeg",2,1,1,2,"HouseObjects",1,"stim/objects/HouseObjects/glass.png",3,"left","left",0.673000097,1,1,1
"577",15,570,0.3,"stim/32.jpeg",3,2,2,1,"HouseObjects",1,"stim/objects/HouseObjects/thread.png",1,"left","right",0.713999987,0,0,1
