"","obj_file","X.x","participant.x","trialN.x","trial_cond","scn_file.x","scn_cat","scn_inst","scn_condition","fillers","obj_cat","obj_cat_num","quadrant","corr_ans","key_resp_trial.keys","key_resp_trial.rt","trial_acc","trial_acc_manual","group.x","practice","X.y","participant.y","OvsN","PE_level","object_cat","scn_file.y","corr_scn_cat","corr_scn_inst","scn_file.1","corr_loc","key_resp_id.keys","key_resp_id.rt","key_resp_conf.keys","key_resp_assoc.keys","key_resp_assoc.rt","key_resp_loc.keys","key_resp_loc.rt","trialN.y","id_acc","assoc.acc","cond_assoc","loc.acc","cond_loc","group.y"
"181","stim/objects/Instruments/trombone.png",1,24,1,0.5,"stim/43.jpeg",4,3,1,NA,"Instruments",2,4,"right","",NA,0,0,1,1,NA,NA,NA,NA,NA,NA,NA,NA,NA,NA,NA,NA,NA,NA,NA,NA,NA,NA,NA,NA,NA,NA,NA,NA
"145","stim/objects/Instruments/tambourine.png",2,24,2,0.5,"stim/34.jpeg",3,4,1,NA,"Instruments",2,1,"right","",NA,0,0,1,1,NA,NA,NA,NA,NA,NA,NA,NA,NA,NA,NA,NA,NA,NA,NA,NA,NA,NA,NA,NA,NA,NA,NA,NA
"200","stim/objects/Instruments/trumpet2.png",3,24,3,0.9,"stim/14.jpeg",1,4,3,NA,"Instruments",2,1,"right","right",0.671999931,1,1,1,1,NA,NA,NA,NA,NA,NA,NA,NA,NA,NA,NA,NA,NA,NA,NA,NA,NA,NA,NA,NA,NA,NA,NA,NA
"201","stim/objects/Instruments/trumpet2.png",4,24,4,0.9,"stim/14.jpeg",1,4,3,NA,"Instruments",2,3,"right","right",0.455999851,1,1,1,1,NA,NA,NA,NA,NA,NA,NA,NA,NA,NA,NA,NA,NA,NA,NA,NA,NA,NA,NA,NA,NA,NA,NA,NA
"186","stim/objects/Instruments/trombone2.png",5,24,5,0.9,"stim/13.jpeg",1,3,3,NA,"Instruments",2,2,"right","right",0.600999832,1,1,1,1,NA,NA,NA,NA,NA,NA,NA,NA,NA,NA,NA,NA,NA,NA,NA,NA,NA,NA,NA,NA,NA,NA,NA,NA
"137","stim/objects/Instruments/speaker.png",6,24,6,0.5,"stim/33.jpeg",3,3,1,NA,"Instruments",2,1,"right","right",0.749000072,1,1,1,1,NA,NA,NA,NA,NA,NA,NA,NA,NA,NA,NA,NA,NA,NA,NA,NA,NA,NA,NA,NA,NA,NA,NA,NA
"18","stim/objects/HouseObjects/safetypin2.png",7,24,7,0.7,"stim/62.jpeg",6,2,2,NA,"HouseObjects",1,4,"left","left",0.559000015,1,1,1,1,NA,NA,NA,NA,NA,NA,NA,NA,NA,NA,NA,NA,NA,NA,NA,NA,NA,NA,NA,NA,NA,NA,NA,NA
"37","stim/objects/HouseObjects/scale.png",8,24,8,0.5,"stim/34.jpeg",3,4,1,NA,"HouseObjects",1,2,"left","left",0.756000042,1,1,1,1,NA,NA,NA,NA,NA,NA,NA,NA,NA,NA,NA,NA,NA,NA,NA,NA,NA,NA,NA,NA,NA,NA,NA,NA
"187","stim/objects/Instruments/trombone2.png",9,24,9,0.9,"stim/13.jpeg",1,3,3,NA,"Instruments",2,2,"right","right",0.662999868,1,1,1,1,NA,NA,NA,NA,NA,NA,NA,NA,NA,NA,NA,NA,NA,NA,NA,NA,NA,NA,NA,NA,NA,NA,NA,NA
"1","stim/objects/HouseObjects/rug.png",10,24,10,0.5,"stim/31.jpeg",3,1,1,NA,"HouseObjects",1,3,"left","left",0.835999966,1,1,1,1,NA,NA,NA,NA,NA,NA,NA,NA,NA,NA,NA,NA,NA,NA,NA,NA,NA,NA,NA,NA,NA,NA,NA,NA
"121","stim/objects/Instruments/record_player.png",11,24,11,0.5,"stim/31.jpeg",3,1,1,NA,"Instruments",2,2,"right","left",0.605999947,0,0,1,1,NA,NA,NA,NA,NA,NA,NA,NA,NA,NA,NA,NA,NA,NA,NA,NA,NA,NA,NA,NA,NA,NA,NA,NA
"13","stim/objects/HouseObjects/safetypin.png",12,24,12,0.5,"stim/32.jpeg",3,2,1,NA,"HouseObjects",1,4,"left","right",0.860999823,0,0,1,1,NA,NA,NA,NA,NA,NA,NA,NA,NA,NA,NA,NA,NA,NA,NA,NA,NA,NA,NA,NA,NA,NA,NA,NA
"30","stim/objects/HouseObjects/saw2.png",13,24,13,0.7,"stim/63.jpeg",6,3,2,NA,"HouseObjects",1,4,"left","left",0.595999956,1,1,1,1,NA,NA,NA,NA,NA,NA,NA,NA,NA,NA,NA,NA,NA,NA,NA,NA,NA,NA,NA,NA,NA,NA,NA,NA
"167","stim/objects/Instruments/triangle.png",14,24,14,0.5,"stim/42.jpeg",4,2,1,NA,"Instruments",2,1,"right","right",0.731999874,1,1,1,1,NA,NA,NA,NA,NA,NA,NA,NA,NA,NA,NA,NA,NA,NA,NA,NA,NA,NA,NA,NA,NA,NA,NA,NA
"25","stim/objects/HouseObjects/saw.png",15,24,15,0.5,"stim/33.jpeg",3,3,1,NA,"HouseObjects",1,1,"left","",NA,0,0,1,1,NA,NA,NA,NA,NA,NA,NA,NA,NA,NA,NA,NA,NA,NA,NA,NA,NA,NA,NA,NA,NA,NA,NA,NA
"146","stim/objects/Instruments/tambourine.png",16,24,16,0.5,"stim/34.jpeg",3,4,1,NA,"Instruments",2,1,"right","left",0.759000063,0,0,1,1,NA,NA,NA,NA,NA,NA,NA,NA,NA,NA,NA,NA,NA,NA,NA,NA,NA,NA,NA,NA,NA,NA,NA,NA
"209","stim/objects/Instruments/tuba.png",17,24,17,0.7,"stim/51.jpeg",5,1,2,NA,"Instruments",2,1,"right","left",0.7099998,0,0,1,1,NA,NA,NA,NA,NA,NA,NA,NA,NA,NA,NA,NA,NA,NA,NA,NA,NA,NA,NA,NA,NA,NA,NA,NA
"112","stim/objects/HouseObjects/wateringcan2.png",18,24,18,0.9,"stim/24.jpeg",2,4,3,NA,"HouseObjects",1,1,"left","left",0.730000019,1,1,1,1,NA,NA,NA,NA,NA,NA,NA,NA,NA,NA,NA,NA,NA,NA,NA,NA,NA,NA,NA,NA,NA,NA,NA,NA
"233","stim/objects/Instruments/xylophone.png",19,24,19,0.7,"stim/54.jpeg",5,4,2,NA,"Instruments",2,1,"right","right",0.620999813,1,1,1,1,NA,NA,NA,NA,NA,NA,NA,NA,NA,NA,NA,NA,NA,NA,NA,NA,NA,NA,NA,NA,NA,NA,NA,NA
"6","stim/objects/HouseObjects/rug2.png",20,24,20,0.7,"stim/61.jpeg",6,1,2,NA,"HouseObjects",1,2,"left","left",0.579999924,1,1,1,1,NA,NA,NA,NA,NA,NA,NA,NA,NA,NA,NA,NA,NA,NA,NA,NA,NA,NA,NA,NA,NA,NA,NA,NA
"76","stim/objects/HouseObjects/thread2.png",21,24,21,0.9,"stim/21.jpeg",2,1,3,NA,"HouseObjects",1,1,"left","left",0.596999884,1,1,1,1,NA,NA,NA,NA,NA,NA,NA,NA,NA,NA,NA,NA,NA,NA,NA,NA,NA,NA,NA,NA,NA,NA,NA,NA
"49","stim/objects/HouseObjects/sponge.png",22,24,22,0.5,"stim/41.jpeg",4,1,1,NA,"HouseObjects",1,2,"left","right",0.616999865,0,0,1,1,NA,NA,NA,NA,NA,NA,NA,NA,NA,NA,NA,NA,NA,NA,NA,NA,NA,NA,NA,NA,NA,NA,NA,NA
"138","stim/objects/Instruments/speaker.png",23,24,23,0.5,"stim/33.jpeg",3,3,1,NA,"Instruments",2,3,"right","left",0.878999949,0,0,1,1,NA,NA,NA,NA,NA,NA,NA,NA,NA,NA,NA,NA,NA,NA,NA,NA,NA,NA,NA,NA,NA,NA,NA,NA
"100","stim/objects/HouseObjects/vacuumcleaner2.png",24,24,24,0.9,"stim/23.jpeg",2,3,3,NA,"HouseObjects",1,2,"left","left",0.634999752,1,1,1,1,NA,NA,NA,NA,NA,NA,NA,NA,NA,NA,NA,NA,NA,NA,NA,NA,NA,NA,NA,NA,NA,NA,NA,NA
"113","stim/objects/HouseObjects/wateringcan2.png",25,24,25,0.9,"stim/24.jpeg",2,4,3,NA,"HouseObjects",1,2,"left","left",0.532999992,1,1,1,1,NA,NA,NA,NA,NA,NA,NA,NA,NA,NA,NA,NA,NA,NA,NA,NA,NA,NA,NA,NA,NA,NA,NA,NA
"88","stim/objects/HouseObjects/towel2.png",26,24,26,0.9,"stim/22.jpeg",2,2,3,NA,"HouseObjects",1,2,"left","left",0.467000008,1,1,1,1,NA,NA,NA,NA,NA,NA,NA,NA,NA,NA,NA,NA,NA,NA,NA,NA,NA,NA,NA,NA,NA,NA,NA,NA
"26","stim/objects/HouseObjects/saw.png",27,24,27,0.5,"stim/33.jpeg",3,3,1,NA,"HouseObjects",1,3,"left","right",0.816999912,0,0,1,1,NA,NA,NA,NA,NA,NA,NA,NA,NA,NA,NA,NA,NA,NA,NA,NA,NA,NA,NA,NA,NA,NA,NA,NA
"182","stim/objects/Instruments/trombone.png",28,24,28,0.5,"stim/43.jpeg",4,3,1,NA,"Instruments",2,4,"right","right",0.805999994,1,1,1,1,NA,NA,NA,NA,NA,NA,NA,NA,NA,NA,NA,NA,NA,NA,NA,NA,NA,NA,NA,NA,NA,NA,NA,NA
"31","stim/objects/HouseObjects/saw2.png",29,24,29,0.7,"stim/63.jpeg",6,3,2,NA,"HouseObjects",1,3,"left","left",0.592999935,1,1,1,1,NA,NA,NA,NA,NA,NA,NA,NA,NA,NA,NA,NA,NA,NA,NA,NA,NA,NA,NA,NA,NA,NA,NA,NA
"147","stim/objects/Instruments/tambourine.png",30,24,30,0.5,"stim/34.jpeg",3,4,1,NA,"Instruments",2,2,"right","left",0.867999792,0,0,1,1,NA,NA,NA,NA,NA,NA,NA,NA,NA,NA,NA,NA,NA,NA,NA,NA,NA,NA,NA,NA,NA,NA,NA,NA
"67","stim/objects/HouseObjects/thermometer.png",31,24,31,0.5,"stim/44.jpeg",4,4,1,NA,"HouseObjects",1,3,"left","right",0.819999933,0,0,1,1,NA,NA,NA,NA,NA,NA,NA,NA,NA,NA,NA,NA,NA,NA,NA,NA,NA,NA,NA,NA,NA,NA,NA,NA
"172","stim/objects/Instruments/triangle2.png",32,24,32,0.9,"stim/12.jpeg",1,2,3,NA,"Instruments",2,1,"right","right",0.653999805,1,1,1,1,NA,NA,NA,NA,NA,NA,NA,NA,NA,NA,NA,NA,NA,NA,NA,NA,NA,NA,NA,NA,NA,NA,NA,NA
"139","stim/objects/Instruments/speaker.png",33,24,33,0.5,"stim/33.jpeg",3,3,1,NA,"Instruments",2,3,"right","right",0.798999786,1,1,1,1,NA,NA,NA,NA,NA,NA,NA,NA,NA,NA,NA,NA,NA,NA,NA,NA,NA,NA,NA,NA,NA,NA,NA,NA
"42","stim/objects/HouseObjects/scale2.png",34,24,34,0.7,"stim/64.jpeg",6,4,2,NA,"HouseObjects",1,4,"left","left",0.572999954,1,1,1,1,NA,NA,NA,NA,NA,NA,NA,NA,NA,NA,NA,NA,NA,NA,NA,NA,NA,NA,NA,NA,NA,NA,NA,NA
"202","stim/objects/Instruments/trumpet2.png",35,24,35,0.9,"stim/14.jpeg",1,4,3,NA,"Instruments",2,4,"right","right",0.585000038,1,1,1,1,NA,NA,NA,NA,NA,NA,NA,NA,NA,NA,NA,NA,NA,NA,NA,NA,NA,NA,NA,NA,NA,NA,NA,NA
"148","stim/objects/Instruments/tambourine.png",36,24,36,0.5,"stim/34.jpeg",3,4,1,NA,"Instruments",2,4,"right","right",0.698999882,1,1,1,1,NA,NA,NA,NA,NA,NA,NA,NA,NA,NA,NA,NA,NA,NA,NA,NA,NA,NA,NA,NA,NA,NA,NA,NA
"232","stim/objects/Instruments/vuvuzela2.png",37,24,37,0.1,"stim/23.jpeg",2,3,3,NA,"Instruments",2,2,"right","left",0.56799984,0,0,1,1,NA,NA,NA,NA,NA,NA,NA,NA,NA,NA,NA,NA,NA,NA,NA,NA,NA,NA,NA,NA,NA,NA,NA,NA
"225","stim/objects/Instruments/vuvuzela.png",38,24,38,0.7,"stim/53.jpeg",5,3,2,NA,"Instruments",2,4,"right","right",0.757999897,1,1,1,1,NA,NA,NA,NA,NA,NA,NA,NA,NA,NA,NA,NA,NA,NA,NA,NA,NA,NA,NA,NA,NA,NA,NA,NA
"240","stim/objects/Instruments/xylophone2.png",39,24,39,0.1,"stim/24.jpeg",2,4,3,NA,"Instruments",2,3,"right","left",0.669999838,0,0,1,1,NA,NA,NA,NA,NA,NA,NA,NA,NA,NA,NA,NA,NA,NA,NA,NA,NA,NA,NA,NA,NA,NA,NA,NA
"126","stim/objects/Instruments/record_player2.png",40,24,40,0.3,"stim/61.jpeg",6,1,2,NA,"Instruments",2,3,"right","left",0.606999874,0,0,1,1,NA,NA,NA,NA,NA,NA,NA,NA,NA,NA,NA,NA,NA,NA,NA,NA,NA,NA,NA,NA,NA,NA,NA,NA
"73","stim/objects/HouseObjects/thread.png",41,24,41,0.3,"stim/51.jpeg",5,1,2,NA,"HouseObjects",1,4,"left","right",0.697000027,0,0,1,1,NA,NA,NA,NA,NA,NA,NA,NA,NA,NA,NA,NA,NA,NA,NA,NA,NA,NA,NA,NA,NA,NA,NA,NA
"140","stim/objects/Instruments/speaker.png",42,24,42,0.5,"stim/33.jpeg",3,3,1,NA,"Instruments",2,1,"right","",NA,0,0,1,1,NA,NA,NA,NA,NA,NA,NA,NA,NA,NA,NA,NA,NA,NA,NA,NA,NA,NA,NA,NA,NA,NA,NA,NA
"97","stim/objects/HouseObjects/vacuumcleaner.png",43,24,43,0.3,"stim/53.jpeg",5,3,2,NA,"HouseObjects",1,3,"left","right",0.576999903,0,0,1,1,NA,NA,NA,NA,NA,NA,NA,NA,NA,NA,NA,NA,NA,NA,NA,NA,NA,NA,NA,NA,NA,NA,NA,NA
"234","stim/objects/Instruments/xylophone.png",44,24,44,0.7,"stim/54.jpeg",5,4,2,NA,"Instruments",2,1,"right","right",0.552999973,1,1,1,1,NA,NA,NA,NA,NA,NA,NA,NA,NA,NA,NA,NA,NA,NA,NA,NA,NA,NA,NA,NA,NA,NA,NA,NA
"68","stim/objects/HouseObjects/thermometer.png",45,24,45,0.5,"stim/44.jpeg",4,4,1,NA,"HouseObjects",1,3,"left","left",0.67599988,1,1,1,1,NA,NA,NA,NA,NA,NA,NA,NA,NA,NA,NA,NA,NA,NA,NA,NA,NA,NA,NA,NA,NA,NA,NA,NA
"188","stim/objects/Instruments/trombone2.png",46,24,46,0.9,"stim/13.jpeg",1,3,3,NA,"Instruments",2,4,"right","right",0.547999859,1,1,1,1,NA,NA,NA,NA,NA,NA,NA,NA,NA,NA,NA,NA,NA,NA,NA,NA,NA,NA,NA,NA,NA,NA,NA,NA
"158","stim/objects/Instruments/timbal2.png",47,24,47,0.9,"stim/11.jpeg",1,1,3,NA,"Instruments",2,1,"right","right",0.489000082,1,1,1,1,NA,NA,NA,NA,NA,NA,NA,NA,NA,NA,NA,NA,NA,NA,NA,NA,NA,NA,NA,NA,NA,NA,NA,NA
"89","stim/objects/HouseObjects/towel2.png",48,24,48,0.9,"stim/22.jpeg",2,2,3,NA,"HouseObjects",1,3,"left","left",0.585000038,1,1,1,1,NA,NA,NA,NA,NA,NA,NA,NA,NA,NA,NA,NA,NA,NA,NA,NA,NA,NA,NA,NA,NA,NA,NA,NA
"159","stim/objects/Instruments/timbal2.png",49,24,49,0.9,"stim/11.jpeg",1,1,3,NA,"Instruments",2,1,"right","right",0.588999748,1,1,1,1,NA,NA,NA,NA,NA,NA,NA,NA,NA,NA,NA,NA,NA,NA,NA,NA,NA,NA,NA,NA,NA,NA,NA,NA
"2","stim/objects/HouseObjects/rug.png",50,24,50,0.5,"stim/31.jpeg",3,1,1,NA,"HouseObjects",1,2,"left","right",0.686999798,0,0,1,1,NA,NA,NA,NA,NA,NA,NA,NA,NA,NA,NA,NA,NA,NA,NA,NA,NA,NA,NA,NA,NA,NA,NA,NA
"38","stim/objects/HouseObjects/scale.png",51,24,51,0.5,"stim/34.jpeg",3,4,1,NA,"HouseObjects",1,2,"left","right",0.499000072,0,0,1,1,NA,NA,NA,NA,NA,NA,NA,NA,NA,NA,NA,NA,NA,NA,NA,NA,NA,NA,NA,NA,NA,NA,NA,NA
"77","stim/objects/HouseObjects/thread2.png",52,24,52,0.9,"stim/21.jpeg",2,1,3,NA,"HouseObjects",1,2,"left","left",0.681999922,1,1,1,1,NA,NA,NA,NA,NA,NA,NA,NA,NA,NA,NA,NA,NA,NA,NA,NA,NA,NA,NA,NA,NA,NA,NA,NA
"235","stim/objects/Instruments/xylophone.png",53,24,53,0.7,"stim/54.jpeg",5,4,2,NA,"Instruments",2,1,"right","right",0.639999866,1,1,1,1,NA,NA,NA,NA,NA,NA,NA,NA,NA,NA,NA,NA,NA,NA,NA,NA,NA,NA,NA,NA,NA,NA,NA,NA
"216","stim/objects/Instruments/tuba2.png",54,24,54,0.1,"stim/21.jpeg",2,1,3,NA,"Instruments",2,1,"right","left",0.541999817,0,0,1,1,NA,NA,NA,NA,NA,NA,NA,NA,NA,NA,NA,NA,NA,NA,NA,NA,NA,NA,NA,NA,NA,NA,NA,NA
"122","stim/objects/Instruments/record_player.png",55,24,55,0.5,"stim/31.jpeg",3,1,1,NA,"Instruments",2,1,"right","left",0.609999895,0,0,1,1,NA,NA,NA,NA,NA,NA,NA,NA,NA,NA,NA,NA,NA,NA,NA,NA,NA,NA,NA,NA,NA,NA,NA,NA
"90","stim/objects/HouseObjects/towel2.png",56,24,56,0.9,"stim/22.jpeg",2,2,3,NA,"HouseObjects",1,2,"left","left",0.682999849,1,1,1,1,NA,NA,NA,NA,NA,NA,NA,NA,NA,NA,NA,NA,NA,NA,NA,NA,NA,NA,NA,NA,NA,NA,NA,NA
"114","stim/objects/HouseObjects/wateringcan2.png",57,24,57,0.9,"stim/24.jpeg",2,4,3,NA,"HouseObjects",1,3,"left","left",0.711999893,1,1,1,1,NA,NA,NA,NA,NA,NA,NA,NA,NA,NA,NA,NA,NA,NA,NA,NA,NA,NA,NA,NA,NA,NA,NA,NA
"7","stim/objects/HouseObjects/rug2.png",58,24,58,0.7,"stim/61.jpeg",6,1,2,NA,"HouseObjects",1,3,"left","",NA,0,0,1,1,NA,NA,NA,NA,NA,NA,NA,NA,NA,NA,NA,NA,NA,NA,NA,NA,NA,NA,NA,NA,NA,NA,NA,NA
"91","stim/objects/HouseObjects/towel2.png",59,24,59,0.9,"stim/22.jpeg",2,2,3,NA,"HouseObjects",1,4,"left","left",0.562999964,1,1,1,1,NA,NA,NA,NA,NA,NA,NA,NA,NA,NA,NA,NA,NA,NA,NA,NA,NA,NA,NA,NA,NA,NA,NA,NA
"115","stim/objects/HouseObjects/wateringcan2.png",60,24,60,0.9,"stim/24.jpeg",2,4,3,NA,"HouseObjects",1,4,"left","left",0.667999983,1,1,1,1,NA,NA,NA,NA,NA,NA,NA,NA,NA,NA,NA,NA,NA,NA,NA,NA,NA,NA,NA,NA,NA,NA,NA,NA
"85","stim/objects/HouseObjects/towel.png",61,24,61,0.3,"stim/52.jpeg",5,2,2,NA,"HouseObjects",1,2,"left","right",0.578999996,0,0,1,1,NA,NA,NA,NA,NA,NA,NA,NA,NA,NA,NA,NA,NA,NA,NA,NA,NA,NA,NA,NA,NA,NA,NA,NA
"173","stim/objects/Instruments/triangle2.png",62,24,62,0.9,"stim/12.jpeg",1,2,3,NA,"Instruments",2,1,"right","right",0.618000031,1,1,1,1,NA,NA,NA,NA,NA,NA,NA,NA,NA,NA,NA,NA,NA,NA,NA,NA,NA,NA,NA,NA,NA,NA,NA,NA
"86","stim/objects/HouseObjects/towel.png",63,24,63,0.3,"stim/52.jpeg",5,2,2,NA,"HouseObjects",1,1,"left","left",0.724999905,1,1,1,1,NA,NA,NA,NA,NA,NA,NA,NA,NA,NA,NA,NA,NA,NA,NA,NA,NA,NA,NA,NA,NA,NA,NA,NA
"203","stim/objects/Instruments/trumpet2.png",64,24,64,0.9,"stim/14.jpeg",1,4,3,NA,"Instruments",2,3,"right","right",0.575999975,1,1,1,1,NA,NA,NA,NA,NA,NA,NA,NA,NA,NA,NA,NA,NA,NA,NA,NA,NA,NA,NA,NA,NA,NA,NA,NA
"189","stim/objects/Instruments/trombone2.png",65,24,65,0.9,"stim/13.jpeg",1,3,3,NA,"Instruments",2,3,"right","right",0.553999901,1,1,1,1,NA,NA,NA,NA,NA,NA,NA,NA,NA,NA,NA,NA,NA,NA,NA,NA,NA,NA,NA,NA,NA,NA,NA,NA
"134","stim/objects/Instruments/saxophone2.png",66,24,66,0.3,"stim/62.jpeg",6,2,2,NA,"Instruments",2,4,"right","left",0.554999828,0,0,1,1,NA,NA,NA,NA,NA,NA,NA,NA,NA,NA,NA,NA,NA,NA,NA,NA,NA,NA,NA,NA,NA,NA,NA,NA
"135","stim/objects/Instruments/saxophone2.png",67,24,67,0.3,"stim/62.jpeg",6,2,2,NA,"Instruments",2,4,"right","right",0.700000048,1,1,1,1,NA,NA,NA,NA,NA,NA,NA,NA,NA,NA,NA,NA,NA,NA,NA,NA,NA,NA,NA,NA,NA,NA,NA,NA
"174","stim/objects/Instruments/triangle2.png",68,24,68,0.9,"stim/12.jpeg",1,2,3,NA,"Instruments",2,2,"right","right",0.56799984,1,1,1,1,NA,NA,NA,NA,NA,NA,NA,NA,NA,NA,NA,NA,NA,NA,NA,NA,NA,NA,NA,NA,NA,NA,NA,NA
"101","stim/objects/HouseObjects/vacuumcleaner2.png",69,24,69,0.9,"stim/23.jpeg",2,3,3,NA,"HouseObjects",1,4,"left","left",0.568999767,1,1,1,1,NA,NA,NA,NA,NA,NA,NA,NA,NA,NA,NA,NA,NA,NA,NA,NA,NA,NA,NA,NA,NA,NA,NA,NA
"142","stim/objects/Instruments/speaker2.png",70,24,70,0.3,"stim/63.jpeg",6,3,2,NA,"Instruments",2,1,"right","left",0.566999912,0,0,1,1,NA,NA,NA,NA,NA,NA,NA,NA,NA,NA,NA,NA,NA,NA,NA,NA,NA,NA,NA,NA,NA,NA,NA,NA
"141","stim/objects/Instruments/speaker.png",71,24,71,0.5,"stim/33.jpeg",3,3,1,NA,"Instruments",2,2,"right","left",0.802999735,0,0,1,1,NA,NA,NA,NA,NA,NA,NA,NA,NA,NA,NA,NA,NA,NA,NA,NA,NA,NA,NA,NA,NA,NA,NA,NA
"14","stim/objects/HouseObjects/safetypin.png",72,24,72,0.5,"stim/32.jpeg",3,2,1,NA,"HouseObjects",1,4,"left","",NA,0,0,1,1,NA,NA,NA,NA,NA,NA,NA,NA,NA,NA,NA,NA,NA,NA,NA,NA,NA,NA,NA,NA,NA,NA,NA,NA
"217","stim/objects/Instruments/violin.png",73,24,73,0.7,"stim/52.jpeg",5,2,2,NA,"Instruments",2,4,"right","left",0.713000059,0,0,1,1,NA,NA,NA,NA,NA,NA,NA,NA,NA,NA,NA,NA,NA,NA,NA,NA,NA,NA,NA,NA,NA,NA,NA,NA
"102","stim/objects/HouseObjects/vacuumcleaner2.png",74,24,74,0.9,"stim/23.jpeg",2,3,3,NA,"HouseObjects",1,4,"left","left",0.625999928,1,1,1,1,NA,NA,NA,NA,NA,NA,NA,NA,NA,NA,NA,NA,NA,NA,NA,NA,NA,NA,NA,NA,NA,NA,NA,NA
"153","stim/objects/Instruments/timbal.png",75,24,75,0.5,"stim/41.jpeg",4,1,1,NA,"Instruments",2,4,"right","left",0.771999836,0,0,1,1,NA,NA,NA,NA,NA,NA,NA,NA,NA,NA,NA,NA,NA,NA,NA,NA,NA,NA,NA,NA,NA,NA,NA,NA
"218","stim/objects/Instruments/violin.png",76,24,76,0.7,"stim/52.jpeg",5,2,2,NA,"Instruments",2,2,"right","left",0.792000055,0,0,1,1,NA,NA,NA,NA,NA,NA,NA,NA,NA,NA,NA,NA,NA,NA,NA,NA,NA,NA,NA,NA,NA,NA,NA,NA
"168","stim/objects/Instruments/triangle.png",77,24,77,0.5,"stim/42.jpeg",4,2,1,NA,"Instruments",2,2,"right","right",0.680999994,1,1,1,1,NA,NA,NA,NA,NA,NA,NA,NA,NA,NA,NA,NA,NA,NA,NA,NA,NA,NA,NA,NA,NA,NA,NA,NA
"219","stim/objects/Instruments/violin.png",78,24,78,0.7,"stim/52.jpeg",5,2,2,NA,"Instruments",2,3,"right","left",0.829999924,0,0,1,1,NA,NA,NA,NA,NA,NA,NA,NA,NA,NA,NA,NA,NA,NA,NA,NA,NA,NA,NA,NA,NA,NA,NA,NA
"54","stim/objects/HouseObjects/sponge2.png",79,24,79,0.1,"stim/11.jpeg",1,1,3,NA,"HouseObjects",1,2,"left","right",0.572999954,0,0,1,1,NA,NA,NA,NA,NA,NA,NA,NA,NA,NA,NA,NA,NA,NA,NA,NA,NA,NA,NA,NA,NA,NA,NA,NA
"236","stim/objects/Instruments/xylophone.png",80,24,80,0.7,"stim/54.jpeg",5,4,2,NA,"Instruments",2,2,"right","right",0.582000017,1,1,1,1,NA,NA,NA,NA,NA,NA,NA,NA,NA,NA,NA,NA,NA,NA,NA,NA,NA,NA,NA,NA,NA,NA,NA,NA
"136","stim/objects/Instruments/saxophone2.png",81,24,81,0.3,"stim/62.jpeg",6,2,2,NA,"Instruments",2,3,"right","left",0.56099987,0,0,1,1,NA,NA,NA,NA,NA,NA,NA,NA,NA,NA,NA,NA,NA,NA,NA,NA,NA,NA,NA,NA,NA,NA,NA,NA
"210","stim/objects/Instruments/tuba.png",82,24,82,0.7,"stim/51.jpeg",5,1,2,NA,"Instruments",2,1,"right","right",0.553999901,1,1,1,1,NA,NA,NA,NA,NA,NA,NA,NA,NA,NA,NA,NA,NA,NA,NA,NA,NA,NA,NA,NA,NA,NA,NA,NA
"154","stim/objects/Instruments/timbal.png",83,24,83,0.5,"stim/41.jpeg",4,1,1,NA,"Instruments",2,2,"right","right",0.628999949,1,1,1,1,NA,NA,NA,NA,NA,NA,NA,NA,NA,NA,NA,NA,NA,NA,NA,NA,NA,NA,NA,NA,NA,NA,NA,NA
"32","stim/objects/HouseObjects/saw2.png",84,24,84,0.7,"stim/63.jpeg",6,3,2,NA,"HouseObjects",1,3,"left","left",0.671999931,1,1,1,1,NA,NA,NA,NA,NA,NA,NA,NA,NA,NA,NA,NA,NA,NA,NA,NA,NA,NA,NA,NA,NA,NA,NA,NA
"60","stim/objects/HouseObjects/spraybottle2.png",85,24,85,0.1,"stim/12.jpeg",1,2,3,NA,"HouseObjects",1,3,"left","right",0.605999947,0,0,1,1,NA,NA,NA,NA,NA,NA,NA,NA,NA,NA,NA,NA,NA,NA,NA,NA,NA,NA,NA,NA,NA,NA,NA,NA
"204","stim/objects/Instruments/trumpet2.png",86,24,86,0.9,"stim/14.jpeg",1,4,3,NA,"Instruments",2,1,"right","right",0.504999876,1,1,1,1,NA,NA,NA,NA,NA,NA,NA,NA,NA,NA,NA,NA,NA,NA,NA,NA,NA,NA,NA,NA,NA,NA,NA,NA
"160","stim/objects/Instruments/timbal2.png",87,24,87,0.9,"stim/11.jpeg",1,1,3,NA,"Instruments",2,4,"right","right",0.614999771,1,1,1,1,NA,NA,NA,NA,NA,NA,NA,NA,NA,NA,NA,NA,NA,NA,NA,NA,NA,NA,NA,NA,NA,NA,NA,NA
"61","stim/objects/HouseObjects/teapot.png",88,24,88,0.5,"stim/43.jpeg",4,3,1,NA,"HouseObjects",1,4,"left","right",0.678999901,0,0,1,1,NA,NA,NA,NA,NA,NA,NA,NA,NA,NA,NA,NA,NA,NA,NA,NA,NA,NA,NA,NA,NA,NA,NA,NA
"129","stim/objects/Instruments/saxophone.png",89,24,89,0.5,"stim/32.jpeg",3,2,1,NA,"Instruments",2,4,"right","right",0.653999805,1,1,1,1,NA,NA,NA,NA,NA,NA,NA,NA,NA,NA,NA,NA,NA,NA,NA,NA,NA,NA,NA,NA,NA,NA,NA,NA
"62","stim/objects/HouseObjects/teapot.png",90,24,90,0.5,"stim/43.jpeg",4,3,1,NA,"HouseObjects",1,2,"left","right",0.824999809,0,0,1,1,NA,NA,NA,NA,NA,NA,NA,NA,NA,NA,NA,NA,NA,NA,NA,NA,NA,NA,NA,NA,NA,NA,NA,NA
"127","stim/objects/Instruments/record_player2.png",91,24,91,0.3,"stim/61.jpeg",6,1,2,NA,"Instruments",2,1,"right","right",0.784999847,1,1,1,1,NA,NA,NA,NA,NA,NA,NA,NA,NA,NA,NA,NA,NA,NA,NA,NA,NA,NA,NA,NA,NA,NA,NA,NA
"92","stim/objects/HouseObjects/towel2.png",92,24,92,0.9,"stim/22.jpeg",2,2,3,NA,"HouseObjects",1,2,"left","left",0.686000109,1,1,1,1,NA,NA,NA,NA,NA,NA,NA,NA,NA,NA,NA,NA,NA,NA,NA,NA,NA,NA,NA,NA,NA,NA,NA,NA
"78","stim/objects/HouseObjects/thread2.png",93,24,93,0.9,"stim/21.jpeg",2,1,3,NA,"HouseObjects",1,1,"left","left",0.569999933,1,1,1,1,NA,NA,NA,NA,NA,NA,NA,NA,NA,NA,NA,NA,NA,NA,NA,NA,NA,NA,NA,NA,NA,NA,NA,NA
"224","stim/objects/Instruments/violin2.png",94,24,94,0.1,"stim/22.jpeg",2,2,3,NA,"Instruments",2,4,"right","left",0.563999891,0,0,1,1,NA,NA,NA,NA,NA,NA,NA,NA,NA,NA,NA,NA,NA,NA,NA,NA,NA,NA,NA,NA,NA,NA,NA,NA
"205","stim/objects/Instruments/trumpet2.png",95,24,95,0.9,"stim/14.jpeg",1,4,3,NA,"Instruments",2,3,"right","right",0.674999952,1,1,1,1,NA,NA,NA,NA,NA,NA,NA,NA,NA,NA,NA,NA,NA,NA,NA,NA,NA,NA,NA,NA,NA,NA,NA,NA
"206","stim/objects/Instruments/trumpet2.png",96,24,96,0.9,"stim/14.jpeg",1,4,3,NA,"Instruments",2,2,"right","right",0.497999907,1,1,1,1,NA,NA,NA,NA,NA,NA,NA,NA,NA,NA,NA,NA,NA,NA,NA,NA,NA,NA,NA,NA,NA,NA,NA,NA
"150","stim/objects/Instruments/tambourine2.png",97,24,97,0.3,"stim/64.jpeg",6,4,2,NA,"Instruments",2,3,"right","",NA,0,0,1,1,NA,NA,NA,NA,NA,NA,NA,NA,NA,NA,NA,NA,NA,NA,NA,NA,NA,NA,NA,NA,NA,NA,NA,NA
"130","stim/objects/Instruments/saxophone.png",98,24,98,0.5,"stim/32.jpeg",3,2,1,NA,"Instruments",2,1,"right","right",0.556999922,1,1,1,1,NA,NA,NA,NA,NA,NA,NA,NA,NA,NA,NA,NA,NA,NA,NA,NA,NA,NA,NA,NA,NA,NA,NA,NA
"50","stim/objects/HouseObjects/sponge.png",99,24,99,0.5,"stim/41.jpeg",4,1,1,NA,"HouseObjects",1,4,"left","left",0.693000078,1,1,1,1,NA,NA,NA,NA,NA,NA,NA,NA,NA,NA,NA,NA,NA,NA,NA,NA,NA,NA,NA,NA,NA,NA,NA,NA
"79","stim/objects/HouseObjects/thread2.png",100,24,100,0.9,"stim/21.jpeg",2,1,3,NA,"HouseObjects",1,4,"left","left",0.583999872,1,1,1,1,NA,NA,NA,NA,NA,NA,NA,NA,NA,NA,NA,NA,NA,NA,NA,NA,NA,NA,NA,NA,NA,NA,NA,NA
"69","stim/objects/HouseObjects/thermometer.png",101,24,101,0.5,"stim/44.jpeg",4,4,1,NA,"HouseObjects",1,2,"left","left",0.700000048,1,1,1,1,NA,NA,NA,NA,NA,NA,NA,NA,NA,NA,NA,NA,NA,NA,NA,NA,NA,NA,NA,NA,NA,NA,NA,NA
"131","stim/objects/Instruments/saxophone.png",102,24,102,0.5,"stim/32.jpeg",3,2,1,NA,"Instruments",2,3,"right","right",0.604000092,1,1,1,1,NA,NA,NA,NA,NA,NA,NA,NA,NA,NA,NA,NA,NA,NA,NA,NA,NA,NA,NA,NA,NA,NA,NA,NA
"190","stim/objects/Instruments/trombone2.png",103,24,103,0.9,"stim/13.jpeg",1,3,3,NA,"Instruments",2,3,"right","right",0.579999924,1,1,1,1,NA,NA,NA,NA,NA,NA,NA,NA,NA,NA,NA,NA,NA,NA,NA,NA,NA,NA,NA,NA,NA,NA,NA,NA
"175","stim/objects/Instruments/triangle2.png",104,24,104,0.9,"stim/12.jpeg",1,2,3,NA,"Instruments",2,3,"right","right",0.480000019,1,1,1,1,NA,NA,NA,NA,NA,NA,NA,NA,NA,NA,NA,NA,NA,NA,NA,NA,NA,NA,NA,NA,NA,NA,NA,NA
"3","stim/objects/HouseObjects/rug.png",105,24,105,0.5,"stim/31.jpeg",3,1,1,NA,"HouseObjects",1,3,"left","left",0.671999931,1,1,1,1,NA,NA,NA,NA,NA,NA,NA,NA,NA,NA,NA,NA,NA,NA,NA,NA,NA,NA,NA,NA,NA,NA,NA,NA
"80","stim/objects/HouseObjects/thread2.png",106,24,106,0.9,"stim/21.jpeg",2,1,3,NA,"HouseObjects",1,4,"left","left",0.559999943,1,1,1,1,NA,NA,NA,NA,NA,NA,NA,NA,NA,NA,NA,NA,NA,NA,NA,NA,NA,NA,NA,NA,NA,NA,NA,NA
"55","stim/objects/HouseObjects/spraybottle.png",107,24,107,0.5,"stim/42.jpeg",4,2,1,NA,"HouseObjects",1,4,"left","left",0.734999895,1,1,1,1,NA,NA,NA,NA,NA,NA,NA,NA,NA,NA,NA,NA,NA,NA,NA,NA,NA,NA,NA,NA,NA,NA,NA,NA
"4","stim/objects/HouseObjects/rug.png",108,24,108,0.5,"stim/31.jpeg",3,1,1,NA,"HouseObjects",1,1,"left","left",0.632999897,1,1,1,1,NA,NA,NA,NA,NA,NA,NA,NA,NA,NA,NA,NA,NA,NA,NA,NA,NA,NA,NA,NA,NA,NA,NA,NA
"74","stim/objects/HouseObjects/thread.png",109,24,109,0.3,"stim/51.jpeg",5,1,2,NA,"HouseObjects",1,2,"left","right",0.636999846,0,0,1,1,NA,NA,NA,NA,NA,NA,NA,NA,NA,NA,NA,NA,NA,NA,NA,NA,NA,NA,NA,NA,NA,NA,NA,NA
"161","stim/objects/Instruments/timbal2.png",110,24,110,0.9,"stim/11.jpeg",1,1,3,NA,"Instruments",2,2,"right","right",0.582999945,1,1,1,1,NA,NA,NA,NA,NA,NA,NA,NA,NA,NA,NA,NA,NA,NA,NA,NA,NA,NA,NA,NA,NA,NA,NA,NA
"43","stim/objects/HouseObjects/scale2.png",111,24,111,0.7,"stim/64.jpeg",6,4,2,NA,"HouseObjects",1,3,"left","left",0.573999882,1,1,1,1,NA,NA,NA,NA,NA,NA,NA,NA,NA,NA,NA,NA,NA,NA,NA,NA,NA,NA,NA,NA,NA,NA,NA,NA
"128","stim/objects/Instruments/record_player2.png",112,24,112,0.3,"stim/61.jpeg",6,1,2,NA,"Instruments",2,1,"right","right",0.700999975,1,1,1,1,NA,NA,NA,NA,NA,NA,NA,NA,NA,NA,NA,NA,NA,NA,NA,NA,NA,NA,NA,NA,NA,NA,NA,NA
"39","stim/objects/HouseObjects/scale.png",113,24,113,0.5,"stim/34.jpeg",3,4,1,NA,"HouseObjects",1,3,"left","left",0.697999954,1,1,1,1,NA,NA,NA,NA,NA,NA,NA,NA,NA,NA,NA,NA,NA,NA,NA,NA,NA,NA,NA,NA,NA,NA,NA,NA
"226","stim/objects/Instruments/vuvuzela.png",114,24,114,0.7,"stim/53.jpeg",5,3,2,NA,"Instruments",2,2,"right","right",0.663999796,1,1,1,1,NA,NA,NA,NA,NA,NA,NA,NA,NA,NA,NA,NA,NA,NA,NA,NA,NA,NA,NA,NA,NA,NA,NA,NA
"227","stim/objects/Instruments/vuvuzela.png",115,24,115,0.7,"stim/53.jpeg",5,3,2,NA,"Instruments",2,1,"right","right",0.531999826,1,1,1,1,NA,NA,NA,NA,NA,NA,NA,NA,NA,NA,NA,NA,NA,NA,NA,NA,NA,NA,NA,NA,NA,NA,NA,NA
"51","stim/objects/HouseObjects/sponge.png",116,24,116,0.5,"stim/41.jpeg",4,1,1,NA,"HouseObjects",1,3,"left","left",0.65899992,1,1,1,1,NA,NA,NA,NA,NA,NA,NA,NA,NA,NA,NA,NA,NA,NA,NA,NA,NA,NA,NA,NA,NA,NA,NA,NA
"151","stim/objects/Instruments/tambourine2.png",117,24,117,0.3,"stim/64.jpeg",6,4,2,NA,"Instruments",2,1,"right","left",0.545000076,0,0,1,1,NA,NA,NA,NA,NA,NA,NA,NA,NA,NA,NA,NA,NA,NA,NA,NA,NA,NA,NA,NA,NA,NA,NA,NA
"103","stim/objects/HouseObjects/vacuumcleaner2.png",118,24,118,0.9,"stim/23.jpeg",2,3,3,NA,"HouseObjects",1,1,"left","left",0.512999773,1,1,1,1,NA,NA,NA,NA,NA,NA,NA,NA,NA,NA,NA,NA,NA,NA,NA,NA,NA,NA,NA,NA,NA,NA,NA,NA
"123","stim/objects/Instruments/record_player.png",119,24,119,0.5,"stim/31.jpeg",3,1,1,NA,"Instruments",2,1,"right","left",0.789000034,0,0,1,1,NA,NA,NA,NA,NA,NA,NA,NA,NA,NA,NA,NA,NA,NA,NA,NA,NA,NA,NA,NA,NA,NA,NA,NA
"220","stim/objects/Instruments/violin.png",120,24,120,0.7,"stim/52.jpeg",5,2,2,NA,"Instruments",2,2,"right","right",0.669999838,1,1,1,1,NA,NA,NA,NA,NA,NA,NA,NA,NA,NA,NA,NA,NA,NA,NA,NA,NA,NA,NA,NA,NA,NA,NA,NA
"162","stim/objects/Instruments/timbal2.png",121,24,121,0.9,"stim/11.jpeg",1,1,3,NA,"Instruments",2,1,"right","right",0.524999857,1,1,1,1,NA,NA,NA,NA,NA,NA,NA,NA,NA,NA,NA,NA,NA,NA,NA,NA,NA,NA,NA,NA,NA,NA,NA,NA
"143","stim/objects/Instruments/speaker2.png",122,24,122,0.3,"stim/63.jpeg",6,3,2,NA,"Instruments",2,4,"right","left",0.681999922,0,0,1,1,NA,NA,NA,NA,NA,NA,NA,NA,NA,NA,NA,NA,NA,NA,NA,NA,NA,NA,NA,NA,NA,NA,NA,NA
"237","stim/objects/Instruments/xylophone.png",123,24,123,0.7,"stim/54.jpeg",5,4,2,NA,"Instruments",2,1,"right","right",0.56799984,1,1,1,1,NA,NA,NA,NA,NA,NA,NA,NA,NA,NA,NA,NA,NA,NA,NA,NA,NA,NA,NA,NA,NA,NA,NA,NA
"8","stim/objects/HouseObjects/rug2.png",124,24,124,0.7,"stim/61.jpeg",6,1,2,NA,"HouseObjects",1,2,"left","left",0.54399991,1,1,1,1,NA,NA,NA,NA,NA,NA,NA,NA,NA,NA,NA,NA,NA,NA,NA,NA,NA,NA,NA,NA,NA,NA,NA,NA
"195","stim/objects/Instruments/trumpet.png",125,24,125,0.5,"stim/44.jpeg",4,4,1,NA,"Instruments",2,4,"right","left",0.728999853,0,0,1,1,NA,NA,NA,NA,NA,NA,NA,NA,NA,NA,NA,NA,NA,NA,NA,NA,NA,NA,NA,NA,NA,NA,NA,NA
"176","stim/objects/Instruments/triangle2.png",126,24,126,0.9,"stim/12.jpeg",1,2,3,NA,"Instruments",2,4,"right","right",0.638999701,1,1,1,1,NA,NA,NA,NA,NA,NA,NA,NA,NA,NA,NA,NA,NA,NA,NA,NA,NA,NA,NA,NA,NA,NA,NA,NA
"196","stim/objects/Instruments/trumpet.png",127,24,127,0.5,"stim/44.jpeg",4,4,1,NA,"Instruments",2,1,"right","right",0.506999969,1,1,1,1,NA,NA,NA,NA,NA,NA,NA,NA,NA,NA,NA,NA,NA,NA,NA,NA,NA,NA,NA,NA,NA,NA,NA,NA
"238","stim/objects/Instruments/xylophone.png",128,24,128,0.7,"stim/54.jpeg",5,4,2,NA,"Instruments",2,3,"right","right",0.529999733,1,1,1,1,NA,NA,NA,NA,NA,NA,NA,NA,NA,NA,NA,NA,NA,NA,NA,NA,NA,NA,NA,NA,NA,NA,NA,NA
"155","stim/objects/Instruments/timbal.png",129,24,129,0.5,"stim/41.jpeg",4,1,1,NA,"Instruments",2,1,"right","right",0.851000071,1,1,1,1,NA,NA,NA,NA,NA,NA,NA,NA,NA,NA,NA,NA,NA,NA,NA,NA,NA,NA,NA,NA,NA,NA,NA,NA
"177","stim/objects/Instruments/triangle2.png",130,24,130,0.9,"stim/12.jpeg",1,2,3,NA,"Instruments",2,3,"right","right",0.579999924,1,1,1,1,NA,NA,NA,NA,NA,NA,NA,NA,NA,NA,NA,NA,NA,NA,NA,NA,NA,NA,NA,NA,NA,NA,NA,NA
"124","stim/objects/Instruments/record_player.png",131,24,131,0.5,"stim/31.jpeg",3,1,1,NA,"Instruments",2,4,"right","left",0.621999979,0,0,1,1,NA,NA,NA,NA,NA,NA,NA,NA,NA,NA,NA,NA,NA,NA,NA,NA,NA,NA,NA,NA,NA,NA,NA,NA
"9","stim/objects/HouseObjects/rug2.png",132,24,132,0.7,"stim/61.jpeg",6,1,2,NA,"HouseObjects",1,3,"left","",NA,0,0,1,1,NA,NA,NA,NA,NA,NA,NA,NA,NA,NA,NA,NA,NA,NA,NA,NA,NA,NA,NA,NA,NA,NA,NA,NA
"156","stim/objects/Instruments/timbal.png",133,24,133,0.5,"stim/41.jpeg",4,1,1,NA,"Instruments",2,2,"right","left",0.85199976,0,0,1,1,NA,NA,NA,NA,NA,NA,NA,NA,NA,NA,NA,NA,NA,NA,NA,NA,NA,NA,NA,NA,NA,NA,NA,NA
"178","stim/objects/Instruments/triangle2.png",134,24,134,0.9,"stim/12.jpeg",1,2,3,NA,"Instruments",2,1,"right","right",0.555999994,1,1,1,1,NA,NA,NA,NA,NA,NA,NA,NA,NA,NA,NA,NA,NA,NA,NA,NA,NA,NA,NA,NA,NA,NA,NA,NA
"197","stim/objects/Instruments/trumpet.png",135,24,135,0.5,"stim/44.jpeg",4,4,1,NA,"Instruments",2,2,"right","right",0.628000021,1,1,1,1,NA,NA,NA,NA,NA,NA,NA,NA,NA,NA,NA,NA,NA,NA,NA,NA,NA,NA,NA,NA,NA,NA,NA,NA
"169","stim/objects/Instruments/triangle.png",136,24,136,0.5,"stim/42.jpeg",4,2,1,NA,"Instruments",2,2,"right","left",0.749000072,0,0,1,1,NA,NA,NA,NA,NA,NA,NA,NA,NA,NA,NA,NA,NA,NA,NA,NA,NA,NA,NA,NA,NA,NA,NA,NA
"27","stim/objects/HouseObjects/saw.png",137,24,137,0.5,"stim/33.jpeg",3,3,1,NA,"HouseObjects",1,2,"left","left",0.719000101,1,1,1,1,NA,NA,NA,NA,NA,NA,NA,NA,NA,NA,NA,NA,NA,NA,NA,NA,NA,NA,NA,NA,NA,NA,NA,NA
"81","stim/objects/HouseObjects/thread2.png",138,24,138,0.9,"stim/21.jpeg",2,1,3,NA,"HouseObjects",1,4,"left","left",0.585999966,1,1,1,1,NA,NA,NA,NA,NA,NA,NA,NA,NA,NA,NA,NA,NA,NA,NA,NA,NA,NA,NA,NA,NA,NA,NA,NA
"19","stim/objects/HouseObjects/safetypin2.png",139,24,139,0.7,"stim/62.jpeg",6,2,2,NA,"HouseObjects",1,1,"left","left",0.700000048,1,1,1,1,NA,NA,NA,NA,NA,NA,NA,NA,NA,NA,NA,NA,NA,NA,NA,NA,NA,NA,NA,NA,NA,NA,NA,NA
"211","stim/objects/Instruments/tuba.png",140,24,140,0.7,"stim/51.jpeg",5,1,2,NA,"Instruments",2,2,"right","right",0.633999825,1,1,1,1,NA,NA,NA,NA,NA,NA,NA,NA,NA,NA,NA,NA,NA,NA,NA,NA,NA,NA,NA,NA,NA,NA,NA,NA
"93","stim/objects/HouseObjects/towel2.png",141,24,141,0.9,"stim/22.jpeg",2,2,3,NA,"HouseObjects",1,4,"left","left",0.531999826,1,1,1,1,NA,NA,NA,NA,NA,NA,NA,NA,NA,NA,NA,NA,NA,NA,NA,NA,NA,NA,NA,NA,NA,NA,NA,NA
"63","stim/objects/HouseObjects/teapot.png",142,24,142,0.5,"stim/43.jpeg",4,3,1,NA,"HouseObjects",1,2,"left","left",0.61500001,1,1,1,1,NA,NA,NA,NA,NA,NA,NA,NA,NA,NA,NA,NA,NA,NA,NA,NA,NA,NA,NA,NA,NA,NA,NA,NA
"33","stim/objects/HouseObjects/saw2.png",143,24,143,0.7,"stim/63.jpeg",6,3,2,NA,"HouseObjects",1,3,"left","left",0.652999878,1,1,1,1,NA,NA,NA,NA,NA,NA,NA,NA,NA,NA,NA,NA,NA,NA,NA,NA,NA,NA,NA,NA,NA,NA,NA,NA
"44","stim/objects/HouseObjects/scale2.png",144,24,144,0.7,"stim/64.jpeg",6,4,2,NA,"HouseObjects",1,4,"left","left",0.700999975,1,1,1,1,NA,NA,NA,NA,NA,NA,NA,NA,NA,NA,NA,NA,NA,NA,NA,NA,NA,NA,NA,NA,NA,NA,NA,NA
"66","stim/objects/HouseObjects/teapot2.png",145,24,145,0.1,"stim/13.jpeg",1,3,3,NA,"HouseObjects",1,1,"left","right",0.65899992,0,0,1,1,NA,NA,NA,NA,NA,NA,NA,NA,NA,NA,NA,NA,NA,NA,NA,NA,NA,NA,NA,NA,NA,NA,NA,NA
"40","stim/objects/HouseObjects/scale.png",146,24,146,0.5,"stim/34.jpeg",3,4,1,NA,"HouseObjects",1,4,"left","left",0.769000053,1,1,1,1,NA,NA,NA,NA,NA,NA,NA,NA,NA,NA,NA,NA,NA,NA,NA,NA,NA,NA,NA,NA,NA,NA,NA,NA
"15","stim/objects/HouseObjects/safetypin.png",147,24,147,0.5,"stim/32.jpeg",3,2,1,NA,"HouseObjects",1,1,"left","right",0.763999939,0,0,1,1,NA,NA,NA,NA,NA,NA,NA,NA,NA,NA,NA,NA,NA,NA,NA,NA,NA,NA,NA,NA,NA,NA,NA,NA
"64","stim/objects/HouseObjects/teapot.png",148,24,148,0.5,"stim/43.jpeg",4,3,1,NA,"HouseObjects",1,4,"left","left",0.555000067,1,1,1,1,NA,NA,NA,NA,NA,NA,NA,NA,NA,NA,NA,NA,NA,NA,NA,NA,NA,NA,NA,NA,NA,NA,NA,NA
"98","stim/objects/HouseObjects/vacuumcleaner.png",149,24,149,0.3,"stim/53.jpeg",5,3,2,NA,"HouseObjects",1,3,"left","right",0.624000072,0,0,1,1,NA,NA,NA,NA,NA,NA,NA,NA,NA,NA,NA,NA,NA,NA,NA,NA,NA,NA,NA,NA,NA,NA,NA,NA
"132","stim/objects/Instruments/saxophone.png",150,24,150,0.5,"stim/32.jpeg",3,2,1,NA,"Instruments",2,1,"right","right",0.758999825,1,1,1,1,NA,NA,NA,NA,NA,NA,NA,NA,NA,NA,NA,NA,NA,NA,NA,NA,NA,NA,NA,NA,NA,NA,NA,NA
"170","stim/objects/Instruments/triangle.png",151,24,151,0.5,"stim/42.jpeg",4,2,1,NA,"Instruments",2,1,"right","right",0.638999939,1,1,1,1,NA,NA,NA,NA,NA,NA,NA,NA,NA,NA,NA,NA,NA,NA,NA,NA,NA,NA,NA,NA,NA,NA,NA,NA
"94","stim/objects/HouseObjects/towel2.png",152,24,152,0.9,"stim/22.jpeg",2,2,3,NA,"HouseObjects",1,3,"left","left",0.59499979,1,1,1,1,NA,NA,NA,NA,NA,NA,NA,NA,NA,NA,NA,NA,NA,NA,NA,NA,NA,NA,NA,NA,NA,NA,NA,NA
"228","stim/objects/Instruments/vuvuzela.png",153,24,153,0.7,"stim/53.jpeg",5,3,2,NA,"Instruments",2,1,"right","right",0.608999968,1,1,1,1,NA,NA,NA,NA,NA,NA,NA,NA,NA,NA,NA,NA,NA,NA,NA,NA,NA,NA,NA,NA,NA,NA,NA,NA
"52","stim/objects/HouseObjects/sponge.png",154,24,154,0.5,"stim/41.jpeg",4,1,1,NA,"HouseObjects",1,4,"left","left",0.571000099,1,1,1,1,NA,NA,NA,NA,NA,NA,NA,NA,NA,NA,NA,NA,NA,NA,NA,NA,NA,NA,NA,NA,NA,NA,NA,NA
"212","stim/objects/Instruments/tuba.png",155,24,155,0.7,"stim/51.jpeg",5,1,2,NA,"Instruments",2,2,"right","right",0.588999987,1,1,1,1,NA,NA,NA,NA,NA,NA,NA,NA,NA,NA,NA,NA,NA,NA,NA,NA,NA,NA,NA,NA,NA,NA,NA,NA
"183","stim/objects/Instruments/trombone.png",156,24,156,0.5,"stim/43.jpeg",4,3,1,NA,"Instruments",2,3,"right","left",0.617999792,0,0,1,1,NA,NA,NA,NA,NA,NA,NA,NA,NA,NA,NA,NA,NA,NA,NA,NA,NA,NA,NA,NA,NA,NA,NA,NA
"179","stim/objects/Instruments/triangle2.png",157,24,157,0.9,"stim/12.jpeg",1,2,3,NA,"Instruments",2,3,"right","right",0.540999889,1,1,1,1,NA,NA,NA,NA,NA,NA,NA,NA,NA,NA,NA,NA,NA,NA,NA,NA,NA,NA,NA,NA,NA,NA,NA,NA
"34","stim/objects/HouseObjects/saw2.png",158,24,158,0.7,"stim/63.jpeg",6,3,2,NA,"HouseObjects",1,4,"left","left",0.605000019,1,1,1,1,NA,NA,NA,NA,NA,NA,NA,NA,NA,NA,NA,NA,NA,NA,NA,NA,NA,NA,NA,NA,NA,NA,NA,NA
"10","stim/objects/HouseObjects/rug2.png",159,24,159,0.7,"stim/61.jpeg",6,1,2,NA,"HouseObjects",1,1,"left","left",0.671999931,1,1,1,1,NA,NA,NA,NA,NA,NA,NA,NA,NA,NA,NA,NA,NA,NA,NA,NA,NA,NA,NA,NA,NA,NA,NA,NA
"28","stim/objects/HouseObjects/saw.png",160,24,160,0.5,"stim/33.jpeg",3,3,1,NA,"HouseObjects",1,1,"left","left",0.774999857,1,1,1,1,NA,NA,NA,NA,NA,NA,NA,NA,NA,NA,NA,NA,NA,NA,NA,NA,NA,NA,NA,NA,NA,NA,NA,NA
"152","stim/objects/Instruments/tambourine2.png",161,24,161,0.3,"stim/64.jpeg",6,4,2,NA,"Instruments",2,4,"right","left",0.631000042,0,0,1,1,NA,NA,NA,NA,NA,NA,NA,NA,NA,NA,NA,NA,NA,NA,NA,NA,NA,NA,NA,NA,NA,NA,NA,NA
"184","stim/objects/Instruments/trombone.png",162,24,162,0.5,"stim/43.jpeg",4,3,1,NA,"Instruments",2,4,"right","right",0.657000065,1,1,1,1,NA,NA,NA,NA,NA,NA,NA,NA,NA,NA,NA,NA,NA,NA,NA,NA,NA,NA,NA,NA,NA,NA,NA,NA
"229","stim/objects/Instruments/vuvuzela.png",163,24,163,0.7,"stim/53.jpeg",5,3,2,NA,"Instruments",2,4,"right","",NA,0,0,1,1,NA,NA,NA,NA,NA,NA,NA,NA,NA,NA,NA,NA,NA,NA,NA,NA,NA,NA,NA,NA,NA,NA,NA,NA
"70","stim/objects/HouseObjects/thermometer.png",164,24,164,0.5,"stim/44.jpeg",4,4,1,NA,"HouseObjects",1,1,"left","right",0.635999918,0,0,1,1,NA,NA,NA,NA,NA,NA,NA,NA,NA,NA,NA,NA,NA,NA,NA,NA,NA,NA,NA,NA,NA,NA,NA,NA
"163","stim/objects/Instruments/timbal2.png",165,24,165,0.9,"stim/11.jpeg",1,1,3,NA,"Instruments",2,1,"right","right",0.556999922,1,1,1,1,NA,NA,NA,NA,NA,NA,NA,NA,NA,NA,NA,NA,NA,NA,NA,NA,NA,NA,NA,NA,NA,NA,NA,NA
"239","stim/objects/Instruments/xylophone.png",166,24,166,0.7,"stim/54.jpeg",5,4,2,NA,"Instruments",2,4,"right","right",0.566999912,1,1,1,1,NA,NA,NA,NA,NA,NA,NA,NA,NA,NA,NA,NA,NA,NA,NA,NA,NA,NA,NA,NA,NA,NA,NA,NA
"65","stim/objects/HouseObjects/teapot.png",167,24,167,0.5,"stim/43.jpeg",4,3,1,NA,"HouseObjects",1,4,"left","left",0.809999943,1,1,1,1,NA,NA,NA,NA,NA,NA,NA,NA,NA,NA,NA,NA,NA,NA,NA,NA,NA,NA,NA,NA,NA,NA,NA,NA
"82","stim/objects/HouseObjects/thread2.png",168,24,168,0.9,"stim/21.jpeg",2,1,3,NA,"HouseObjects",1,4,"left","left",0.636999846,1,1,1,1,NA,NA,NA,NA,NA,NA,NA,NA,NA,NA,NA,NA,NA,NA,NA,NA,NA,NA,NA,NA,NA,NA,NA,NA
"99","stim/objects/HouseObjects/vacuumcleaner.png",169,24,169,0.3,"stim/53.jpeg",5,3,2,NA,"HouseObjects",1,4,"left","",NA,0,0,1,1,NA,NA,NA,NA,NA,NA,NA,NA,NA,NA,NA,NA,NA,NA,NA,NA,NA,NA,NA,NA,NA,NA,NA,NA
"164","stim/objects/Instruments/timbal2.png",170,24,170,0.9,"stim/11.jpeg",1,1,3,NA,"Instruments",2,4,"right","right",0.613999844,1,1,1,1,NA,NA,NA,NA,NA,NA,NA,NA,NA,NA,NA,NA,NA,NA,NA,NA,NA,NA,NA,NA,NA,NA,NA,NA
"207","stim/objects/Instruments/trumpet2.png",171,24,171,0.9,"stim/14.jpeg",1,4,3,NA,"Instruments",2,2,"right","right",0.569000006,1,1,1,1,NA,NA,NA,NA,NA,NA,NA,NA,NA,NA,NA,NA,NA,NA,NA,NA,NA,NA,NA,NA,NA,NA,NA,NA
"157","stim/objects/Instruments/timbal.png",172,24,172,0.5,"stim/41.jpeg",4,1,1,NA,"Instruments",2,2,"right","right",0.772999763,1,1,1,1,NA,NA,NA,NA,NA,NA,NA,NA,NA,NA,NA,NA,NA,NA,NA,NA,NA,NA,NA,NA,NA,NA,NA,NA
"208","stim/objects/Instruments/trumpet2.png",173,24,173,0.9,"stim/14.jpeg",1,4,3,NA,"Instruments",2,3,"right","right",0.581999779,1,1,1,1,NA,NA,NA,NA,NA,NA,NA,NA,NA,NA,NA,NA,NA,NA,NA,NA,NA,NA,NA,NA,NA,NA,NA,NA
"191","stim/objects/Instruments/trombone2.png",174,24,174,0.9,"stim/13.jpeg",1,3,3,NA,"Instruments",2,4,"right","right",0.467999935,1,1,1,1,NA,NA,NA,NA,NA,NA,NA,NA,NA,NA,NA,NA,NA,NA,NA,NA,NA,NA,NA,NA,NA,NA,NA,NA
"45","stim/objects/HouseObjects/scale2.png",175,24,175,0.7,"stim/64.jpeg",6,4,2,NA,"HouseObjects",1,4,"left","left",0.595999956,1,1,1,1,NA,NA,NA,NA,NA,NA,NA,NA,NA,NA,NA,NA,NA,NA,NA,NA,NA,NA,NA,NA,NA,NA,NA,NA
"53","stim/objects/HouseObjects/sponge.png",176,24,176,0.5,"stim/41.jpeg",4,1,1,NA,"HouseObjects",1,3,"left","left",0.811000109,1,1,1,1,NA,NA,NA,NA,NA,NA,NA,NA,NA,NA,NA,NA,NA,NA,NA,NA,NA,NA,NA,NA,NA,NA,NA,NA
"171","stim/objects/Instruments/triangle.png",177,24,177,0.5,"stim/42.jpeg",4,2,1,NA,"Instruments",2,3,"right","left",0.693999767,0,0,1,1,NA,NA,NA,NA,NA,NA,NA,NA,NA,NA,NA,NA,NA,NA,NA,NA,NA,NA,NA,NA,NA,NA,NA,NA
"180","stim/objects/Instruments/triangle2.png",178,24,178,0.9,"stim/12.jpeg",1,2,3,NA,"Instruments",2,1,"right","right",0.576999903,1,1,1,1,NA,NA,NA,NA,NA,NA,NA,NA,NA,NA,NA,NA,NA,NA,NA,NA,NA,NA,NA,NA,NA,NA,NA,NA
"104","stim/objects/HouseObjects/vacuumcleaner2.png",179,24,179,0.9,"stim/23.jpeg",2,3,3,NA,"HouseObjects",1,3,"left","left",0.596999884,1,1,1,1,NA,NA,NA,NA,NA,NA,NA,NA,NA,NA,NA,NA,NA,NA,NA,NA,NA,NA,NA,NA,NA,NA,NA,NA
"16","stim/objects/HouseObjects/safetypin.png",180,24,180,0.5,"stim/32.jpeg",3,2,1,NA,"HouseObjects",1,3,"left","right",0.671999931,0,0,1,1,NA,NA,NA,NA,NA,NA,NA,NA,NA,NA,NA,NA,NA,NA,NA,NA,NA,NA,NA,NA,NA,NA,NA,NA
"83","stim/objects/HouseObjects/thread2.png",181,24,181,0.9,"stim/21.jpeg",2,1,3,NA,"HouseObjects",1,2,"left","left",0.609999895,1,1,1,1,NA,NA,NA,NA,NA,NA,NA,NA,NA,NA,NA,NA,NA,NA,NA,NA,NA,NA,NA,NA,NA,NA,NA,NA
"46","stim/objects/HouseObjects/scale2.png",182,24,182,0.7,"stim/64.jpeg",6,4,2,NA,"HouseObjects",1,2,"left","left",0.585000038,1,1,1,1,NA,NA,NA,NA,NA,NA,NA,NA,NA,NA,NA,NA,NA,NA,NA,NA,NA,NA,NA,NA,NA,NA,NA,NA
"109","stim/objects/HouseObjects/wateringcan.png",183,24,183,0.3,"stim/54.jpeg",5,4,2,NA,"HouseObjects",1,2,"left","right",0.632999897,0,0,1,1,NA,NA,NA,NA,NA,NA,NA,NA,NA,NA,NA,NA,NA,NA,NA,NA,NA,NA,NA,NA,NA,NA,NA,NA
"213","stim/objects/Instruments/tuba.png",184,24,184,0.7,"stim/51.jpeg",5,1,2,NA,"Instruments",2,2,"right","right",0.511999846,1,1,1,1,NA,NA,NA,NA,NA,NA,NA,NA,NA,NA,NA,NA,NA,NA,NA,NA,NA,NA,NA,NA,NA,NA,NA,NA
"105","stim/objects/HouseObjects/vacuumcleaner2.png",185,24,185,0.9,"stim/23.jpeg",2,3,3,NA,"HouseObjects",1,1,"left","left",0.589999914,1,1,1,1,NA,NA,NA,NA,NA,NA,NA,NA,NA,NA,NA,NA,NA,NA,NA,NA,NA,NA,NA,NA,NA,NA,NA,NA
"144","stim/objects/Instruments/speaker2.png",186,24,186,0.3,"stim/63.jpeg",6,3,2,NA,"Instruments",2,3,"right","left",0.582999945,0,0,1,1,NA,NA,NA,NA,NA,NA,NA,NA,NA,NA,NA,NA,NA,NA,NA,NA,NA,NA,NA,NA,NA,NA,NA,NA
"20","stim/objects/HouseObjects/safetypin2.png",187,24,187,0.7,"stim/62.jpeg",6,2,2,NA,"HouseObjects",1,3,"left","left",0.498999834,1,1,1,1,NA,NA,NA,NA,NA,NA,NA,NA,NA,NA,NA,NA,NA,NA,NA,NA,NA,NA,NA,NA,NA,NA,NA,NA
"87","stim/objects/HouseObjects/towel.png",188,24,188,0.3,"stim/52.jpeg",5,2,2,NA,"HouseObjects",1,4,"left","left",0.727999926,1,1,1,1,NA,NA,NA,NA,NA,NA,NA,NA,NA,NA,NA,NA,NA,NA,NA,NA,NA,NA,NA,NA,NA,NA,NA,NA
"11","stim/objects/HouseObjects/rug2.png",189,24,189,0.7,"stim/61.jpeg",6,1,2,NA,"HouseObjects",1,1,"left","left",0.65899992,1,1,1,1,NA,NA,NA,NA,NA,NA,NA,NA,NA,NA,NA,NA,NA,NA,NA,NA,NA,NA,NA,NA,NA,NA,NA,NA
"198","stim/objects/Instruments/trumpet.png",190,24,190,0.5,"stim/44.jpeg",4,4,1,NA,"Instruments",2,3,"right","right",0.595999956,1,1,1,1,NA,NA,NA,NA,NA,NA,NA,NA,NA,NA,NA,NA,NA,NA,NA,NA,NA,NA,NA,NA,NA,NA,NA,NA
"192","stim/objects/Instruments/trombone2.png",191,24,191,0.9,"stim/13.jpeg",1,3,3,NA,"Instruments",2,2,"right","right",0.603999853,1,1,1,1,NA,NA,NA,NA,NA,NA,NA,NA,NA,NA,NA,NA,NA,NA,NA,NA,NA,NA,NA,NA,NA,NA,NA,NA
"29","stim/objects/HouseObjects/saw.png",192,24,192,0.5,"stim/33.jpeg",3,3,1,NA,"HouseObjects",1,3,"left","left",0.667999744,1,1,1,1,NA,NA,NA,NA,NA,NA,NA,NA,NA,NA,NA,NA,NA,NA,NA,NA,NA,NA,NA,NA,NA,NA,NA,NA
"5","stim/objects/HouseObjects/rug.png",193,24,193,0.5,"stim/31.jpeg",3,1,1,NA,"HouseObjects",1,2,"left","left",0.657999754,1,1,1,1,NA,NA,NA,NA,NA,NA,NA,NA,NA,NA,NA,NA,NA,NA,NA,NA,NA,NA,NA,NA,NA,NA,NA,NA
"133","stim/objects/Instruments/saxophone.png",194,24,194,0.5,"stim/32.jpeg",3,2,1,NA,"Instruments",2,1,"right","right",0.638999939,1,1,1,1,NA,NA,NA,NA,NA,NA,NA,NA,NA,NA,NA,NA,NA,NA,NA,NA,NA,NA,NA,NA,NA,NA,NA,NA
"193","stim/objects/Instruments/trombone2.png",195,24,195,0.9,"stim/13.jpeg",1,3,3,NA,"Instruments",2,3,"right","left",0.575000048,0,0,1,1,NA,NA,NA,NA,NA,NA,NA,NA,NA,NA,NA,NA,NA,NA,NA,NA,NA,NA,NA,NA,NA,NA,NA,NA
"56","stim/objects/HouseObjects/spraybottle.png",196,24,196,0.5,"stim/42.jpeg",4,2,1,NA,"HouseObjects",1,4,"left","left",0.721999884,1,1,1,1,NA,NA,NA,NA,NA,NA,NA,NA,NA,NA,NA,NA,NA,NA,NA,NA,NA,NA,NA,NA,NA,NA,NA,NA
"116","stim/objects/HouseObjects/wateringcan2.png",197,24,197,0.9,"stim/24.jpeg",2,4,3,NA,"HouseObjects",1,4,"left","left",0.667999983,1,1,1,1,NA,NA,NA,NA,NA,NA,NA,NA,NA,NA,NA,NA,NA,NA,NA,NA,NA,NA,NA,NA,NA,NA,NA,NA
"21","stim/objects/HouseObjects/safetypin2.png",198,24,198,0.7,"stim/62.jpeg",6,2,2,NA,"HouseObjects",1,1,"left","left",0.85800004,1,1,1,1,NA,NA,NA,NA,NA,NA,NA,NA,NA,NA,NA,NA,NA,NA,NA,NA,NA,NA,NA,NA,NA,NA,NA,NA
"221","stim/objects/Instruments/violin.png",199,24,199,0.7,"stim/52.jpeg",5,2,2,NA,"Instruments",2,4,"right","left",0.760999918,0,0,1,1,NA,NA,NA,NA,NA,NA,NA,NA,NA,NA,NA,NA,NA,NA,NA,NA,NA,NA,NA,NA,NA,NA,NA,NA
"230","stim/objects/Instruments/vuvuzela.png",200,24,200,0.7,"stim/53.jpeg",5,3,2,NA,"Instruments",2,2,"right","right",0.65199995,1,1,1,1,NA,NA,NA,NA,NA,NA,NA,NA,NA,NA,NA,NA,NA,NA,NA,NA,NA,NA,NA,NA,NA,NA,NA,NA
"231","stim/objects/Instruments/vuvuzela.png",201,24,201,0.7,"stim/53.jpeg",5,3,2,NA,"Instruments",2,1,"right","right",0.493000031,1,1,1,1,NA,NA,NA,NA,NA,NA,NA,NA,NA,NA,NA,NA,NA,NA,NA,NA,NA,NA,NA,NA,NA,NA,NA,NA
"22","stim/objects/HouseObjects/safetypin2.png",202,24,202,0.7,"stim/62.jpeg",6,2,2,NA,"HouseObjects",1,2,"left","left",0.545000076,1,1,1,1,NA,NA,NA,NA,NA,NA,NA,NA,NA,NA,NA,NA,NA,NA,NA,NA,NA,NA,NA,NA,NA,NA,NA,NA
"185","stim/objects/Instruments/trombone.png",203,24,203,0.5,"stim/43.jpeg",4,3,1,NA,"Instruments",2,3,"right","left",0.608999968,0,0,1,1,NA,NA,NA,NA,NA,NA,NA,NA,NA,NA,NA,NA,NA,NA,NA,NA,NA,NA,NA,NA,NA,NA,NA,NA
"47","stim/objects/HouseObjects/scale2.png",204,24,204,0.7,"stim/64.jpeg",6,4,2,NA,"HouseObjects",1,2,"left","left",0.652999878,1,1,1,1,NA,NA,NA,NA,NA,NA,NA,NA,NA,NA,NA,NA,NA,NA,NA,NA,NA,NA,NA,NA,NA,NA,NA,NA
"106","stim/objects/HouseObjects/vacuumcleaner2.png",205,24,205,0.9,"stim/23.jpeg",2,3,3,NA,"HouseObjects",1,4,"left","left",0.561999798,1,1,1,1,NA,NA,NA,NA,NA,NA,NA,NA,NA,NA,NA,NA,NA,NA,NA,NA,NA,NA,NA,NA,NA,NA,NA,NA
"214","stim/objects/Instruments/tuba.png",206,24,206,0.7,"stim/51.jpeg",5,1,2,NA,"Instruments",2,1,"right","right",0.628000021,1,1,1,1,NA,NA,NA,NA,NA,NA,NA,NA,NA,NA,NA,NA,NA,NA,NA,NA,NA,NA,NA,NA,NA,NA,NA,NA
"48","stim/objects/HouseObjects/scale2.png",207,24,207,0.7,"stim/64.jpeg",6,4,2,NA,"HouseObjects",1,4,"left","left",0.591999769,1,1,1,1,NA,NA,NA,NA,NA,NA,NA,NA,NA,NA,NA,NA,NA,NA,NA,NA,NA,NA,NA,NA,NA,NA,NA,NA
"199","stim/objects/Instruments/trumpet.png",208,24,208,0.5,"stim/44.jpeg",4,4,1,NA,"Instruments",2,3,"right","right",0.674000025,1,1,1,1,NA,NA,NA,NA,NA,NA,NA,NA,NA,NA,NA,NA,NA,NA,NA,NA,NA,NA,NA,NA,NA,NA,NA,NA
"165","stim/objects/Instruments/timbal2.png",209,24,209,0.9,"stim/11.jpeg",1,1,3,NA,"Instruments",2,1,"right","",NA,0,0,1,1,NA,NA,NA,NA,NA,NA,NA,NA,NA,NA,NA,NA,NA,NA,NA,NA,NA,NA,NA,NA,NA,NA,NA,NA
"41","stim/objects/HouseObjects/scale.png",210,24,210,0.5,"stim/34.jpeg",3,4,1,NA,"HouseObjects",1,3,"left","right",0.617000103,0,0,1,1,NA,NA,NA,NA,NA,NA,NA,NA,NA,NA,NA,NA,NA,NA,NA,NA,NA,NA,NA,NA,NA,NA,NA,NA
"12","stim/objects/HouseObjects/rug2.png",211,24,211,0.7,"stim/61.jpeg",6,1,2,NA,"HouseObjects",1,3,"left","left",0.612999916,1,1,1,1,NA,NA,NA,NA,NA,NA,NA,NA,NA,NA,NA,NA,NA,NA,NA,NA,NA,NA,NA,NA,NA,NA,NA,NA
"222","stim/objects/Instruments/violin.png",212,24,212,0.7,"stim/52.jpeg",5,2,2,NA,"Instruments",2,3,"right","left",0.754999876,0,0,1,1,NA,NA,NA,NA,NA,NA,NA,NA,NA,NA,NA,NA,NA,NA,NA,NA,NA,NA,NA,NA,NA,NA,NA,NA
"223","stim/objects/Instruments/violin.png",213,24,213,0.7,"stim/52.jpeg",5,2,2,NA,"Instruments",2,2,"right","right",0.773999929,1,1,1,1,NA,NA,NA,NA,NA,NA,NA,NA,NA,NA,NA,NA,NA,NA,NA,NA,NA,NA,NA,NA,NA,NA,NA,NA
"117","stim/objects/HouseObjects/wateringcan2.png",214,24,214,0.9,"stim/24.jpeg",2,4,3,NA,"HouseObjects",1,4,"left","left",0.611999989,1,1,1,1,NA,NA,NA,NA,NA,NA,NA,NA,NA,NA,NA,NA,NA,NA,NA,NA,NA,NA,NA,NA,NA,NA,NA,NA
"110","stim/objects/HouseObjects/wateringcan.png",215,24,215,0.3,"stim/54.jpeg",5,4,2,NA,"HouseObjects",1,3,"left","right",0.670000076,0,0,1,1,NA,NA,NA,NA,NA,NA,NA,NA,NA,NA,NA,NA,NA,NA,NA,NA,NA,NA,NA,NA,NA,NA,NA,NA
"107","stim/objects/HouseObjects/vacuumcleaner2.png",216,24,216,0.9,"stim/23.jpeg",2,3,3,NA,"HouseObjects",1,4,"left","left",0.522999763,1,1,1,1,NA,NA,NA,NA,NA,NA,NA,NA,NA,NA,NA,NA,NA,NA,NA,NA,NA,NA,NA,NA,NA,NA,NA,NA
"57","stim/objects/HouseObjects/spraybottle.png",217,24,217,0.5,"stim/42.jpeg",4,2,1,NA,"HouseObjects",1,4,"left","right",0.636999846,0,0,1,1,NA,NA,NA,NA,NA,NA,NA,NA,NA,NA,NA,NA,NA,NA,NA,NA,NA,NA,NA,NA,NA,NA,NA,NA
"35","stim/objects/HouseObjects/saw2.png",218,24,218,0.7,"stim/63.jpeg",6,3,2,NA,"HouseObjects",1,2,"left","left",0.643999815,1,1,1,1,NA,NA,NA,NA,NA,NA,NA,NA,NA,NA,NA,NA,NA,NA,NA,NA,NA,NA,NA,NA,NA,NA,NA,NA
"215","stim/objects/Instruments/tuba.png",219,24,219,0.7,"stim/51.jpeg",5,1,2,NA,"Instruments",2,3,"right","right",0.661999941,1,1,1,1,NA,NA,NA,NA,NA,NA,NA,NA,NA,NA,NA,NA,NA,NA,NA,NA,NA,NA,NA,NA,NA,NA,NA,NA
"118","stim/objects/HouseObjects/wateringcan2.png",220,24,220,0.9,"stim/24.jpeg",2,4,3,NA,"HouseObjects",1,3,"left","left",0.63499999,1,1,1,1,NA,NA,NA,NA,NA,NA,NA,NA,NA,NA,NA,NA,NA,NA,NA,NA,NA,NA,NA,NA,NA,NA,NA,NA
"84","stim/objects/HouseObjects/thread2.png",221,24,221,0.9,"stim/21.jpeg",2,1,3,NA,"HouseObjects",1,2,"left","left",0.575000048,1,1,1,1,NA,NA,NA,NA,NA,NA,NA,NA,NA,NA,NA,NA,NA,NA,NA,NA,NA,NA,NA,NA,NA,NA,NA,NA
"194","stim/objects/Instruments/trombone2.png",222,24,222,0.9,"stim/13.jpeg",1,3,3,NA,"Instruments",2,2,"right","right",0.661000013,1,1,1,1,NA,NA,NA,NA,NA,NA,NA,NA,NA,NA,NA,NA,NA,NA,NA,NA,NA,NA,NA,NA,NA,NA,NA,NA
"149","stim/objects/Instruments/tambourine.png",223,24,223,0.5,"stim/34.jpeg",3,4,1,NA,"Instruments",2,1,"right","left",0.626999855,0,0,1,1,NA,NA,NA,NA,NA,NA,NA,NA,NA,NA,NA,NA,NA,NA,NA,NA,NA,NA,NA,NA,NA,NA,NA,NA
"125","stim/objects/Instruments/record_player.png",224,24,224,0.5,"stim/31.jpeg",3,1,1,NA,"Instruments",2,1,"right","left",0.588000059,0,0,1,1,NA,NA,NA,NA,NA,NA,NA,NA,NA,NA,NA,NA,NA,NA,NA,NA,NA,NA,NA,NA,NA,NA,NA,NA
"111","stim/objects/HouseObjects/wateringcan.png",225,24,225,0.3,"stim/54.jpeg",5,4,2,NA,"HouseObjects",1,2,"left","right",0.739000082,0,0,1,1,NA,NA,NA,NA,NA,NA,NA,NA,NA,NA,NA,NA,NA,NA,NA,NA,NA,NA,NA,NA,NA,NA,NA,NA
"17","stim/objects/HouseObjects/safetypin.png",226,24,226,0.5,"stim/32.jpeg",3,2,1,NA,"HouseObjects",1,3,"left","right",0.642999887,0,0,1,1,NA,NA,NA,NA,NA,NA,NA,NA,NA,NA,NA,NA,NA,NA,NA,NA,NA,NA,NA,NA,NA,NA,NA,NA
"23","stim/objects/HouseObjects/safetypin2.png",227,24,227,0.7,"stim/62.jpeg",6,2,2,NA,"HouseObjects",1,2,"left","left",0.593999863,1,1,1,1,NA,NA,NA,NA,NA,NA,NA,NA,NA,NA,NA,NA,NA,NA,NA,NA,NA,NA,NA,NA,NA,NA,NA,NA
"119","stim/objects/HouseObjects/wateringcan2.png",228,24,228,0.9,"stim/24.jpeg",2,4,3,NA,"HouseObjects",1,2,"left","left",0.588999987,1,1,1,1,NA,NA,NA,NA,NA,NA,NA,NA,NA,NA,NA,NA,NA,NA,NA,NA,NA,NA,NA,NA,NA,NA,NA,NA
"72","stim/objects/HouseObjects/thermometer2.png",229,24,229,0.1,"stim/14.jpeg",1,4,3,NA,"HouseObjects",1,3,"left","right",0.593999863,0,0,1,1,NA,NA,NA,NA,NA,NA,NA,NA,NA,NA,NA,NA,NA,NA,NA,NA,NA,NA,NA,NA,NA,NA,NA,NA
"95","stim/objects/HouseObjects/towel2.png",230,24,230,0.9,"stim/22.jpeg",2,2,3,NA,"HouseObjects",1,3,"left","left",0.582999945,1,1,1,1,NA,NA,NA,NA,NA,NA,NA,NA,NA,NA,NA,NA,NA,NA,NA,NA,NA,NA,NA,NA,NA,NA,NA,NA
"108","stim/objects/HouseObjects/vacuumcleaner2.png",231,24,231,0.9,"stim/23.jpeg",2,3,3,NA,"HouseObjects",1,3,"left","left",0.53399992,1,1,1,1,NA,NA,NA,NA,NA,NA,NA,NA,NA,NA,NA,NA,NA,NA,NA,NA,NA,NA,NA,NA,NA,NA,NA,NA
"24","stim/objects/HouseObjects/safetypin2.png",232,24,232,0.7,"stim/62.jpeg",6,2,2,NA,"HouseObjects",1,3,"left","left",0.532999992,1,1,1,1,NA,NA,NA,NA,NA,NA,NA,NA,NA,NA,NA,NA,NA,NA,NA,NA,NA,NA,NA,NA,NA,NA,NA,NA
"96","stim/objects/HouseObjects/towel2.png",233,24,233,0.9,"stim/22.jpeg",2,2,3,NA,"HouseObjects",1,1,"left","left",0.618999958,1,1,1,1,NA,NA,NA,NA,NA,NA,NA,NA,NA,NA,NA,NA,NA,NA,NA,NA,NA,NA,NA,NA,NA,NA,NA,NA
"36","stim/objects/HouseObjects/saw2.png",234,24,234,0.7,"stim/63.jpeg",6,3,2,NA,"HouseObjects",1,4,"left","left",0.589999914,1,1,1,1,NA,NA,NA,NA,NA,NA,NA,NA,NA,NA,NA,NA,NA,NA,NA,NA,NA,NA,NA,NA,NA,NA,NA,NA
"75","stim/objects/HouseObjects/thread.png",235,24,235,0.3,"stim/51.jpeg",5,1,2,NA,"HouseObjects",1,1,"left","",NA,0,0,1,1,NA,NA,NA,NA,NA,NA,NA,NA,NA,NA,NA,NA,NA,NA,NA,NA,NA,NA,NA,NA,NA,NA,NA,NA
"166","stim/objects/Instruments/timbal2.png",236,24,236,0.9,"stim/11.jpeg",1,1,3,NA,"Instruments",2,2,"right","right",0.799999952,1,1,1,1,NA,NA,NA,NA,NA,NA,NA,NA,NA,NA,NA,NA,NA,NA,NA,NA,NA,NA,NA,NA,NA,NA,NA,NA
"120","stim/objects/HouseObjects/wateringcan2.png",237,24,237,0.9,"stim/24.jpeg",2,4,3,NA,"HouseObjects",1,1,"left","left",0.596999884,1,1,1,1,NA,NA,NA,NA,NA,NA,NA,NA,NA,NA,NA,NA,NA,NA,NA,NA,NA,NA,NA,NA,NA,NA,NA,NA
"58","stim/objects/HouseObjects/spraybottle.png",238,24,238,0.5,"stim/42.jpeg",4,2,1,NA,"HouseObjects",1,4,"left","right",0.638999939,0,0,1,1,NA,NA,NA,NA,NA,NA,NA,NA,NA,NA,NA,NA,NA,NA,NA,NA,NA,NA,NA,NA,NA,NA,NA,NA
"59","stim/objects/HouseObjects/spraybottle.png",239,24,239,0.5,"stim/42.jpeg",4,2,1,NA,"HouseObjects",1,2,"left","left",0.554999828,1,1,1,1,NA,NA,NA,NA,NA,NA,NA,NA,NA,NA,NA,NA,NA,NA,NA,NA,NA,NA,NA,NA,NA,NA,NA,NA
"71","stim/objects/HouseObjects/thermometer.png",240,24,240,0.5,"stim/44.jpeg",4,4,1,NA,"HouseObjects",1,2,"left","left",0.604000092,1,1,1,1,NA,NA,NA,NA,NA,NA,NA,NA,NA,NA,NA,NA,NA,NA,NA,NA,NA,NA,NA,NA,NA,NA,NA,NA
"259","stim/objects/HouseObjects/bottle.png",248,24,241,0.5,"stim/44.jpeg",4,4,1,2,"HouseObjects",1,2,"left","",NA,0,0,1,0,NA,NA,NA,NA,NA,NA,NA,NA,NA,NA,NA,NA,NA,NA,NA,NA,NA,NA,NA,NA,NA,NA,NA,NA
"262","stim/objects/HouseObjects/broom.png",249,24,242,0.5,"stim/42.jpeg",4,2,1,2,"HouseObjects",1,1,"left","right",0.815999985,0,0,1,0,NA,NA,NA,NA,NA,NA,NA,NA,NA,NA,NA,NA,NA,NA,NA,NA,NA,NA,NA,NA,NA,NA,NA,NA
"258","stim/objects/HouseObjects/blender2.png",250,24,243,0.7,"stim/64.jpeg",6,4,2,1,"HouseObjects",1,2,"left","left",0.68599987,1,1,1,0,41,24,1,0.7,1,"stim/64.jpeg",6,4,"stim/64.jpeg",2,"right",0.852000237,3,1,0.296000004,4,1.117000341,41,0,0,NA,0,NA,1
"359","stim/objects/HouseObjects/glass.png",251,24,244,0.9,"stim/24.jpeg",2,4,3,2,"HouseObjects",1,4,"left","left",0.562000036,1,1,1,0,NA,NA,NA,NA,NA,NA,NA,NA,NA,NA,NA,NA,NA,NA,NA,NA,NA,NA,NA,NA,NA,NA,NA,NA
"360","stim/objects/HouseObjects/glass.png",252,24,245,0.9,"stim/21.jpeg",2,1,3,2,"HouseObjects",1,1,"left","left",0.535000086,1,1,1,0,NA,NA,NA,NA,NA,NA,NA,NA,NA,NA,NA,NA,NA,NA,NA,NA,NA,NA,NA,NA,NA,NA,NA,NA
"507","stim/objects/Instruments/gong.png",253,24,246,0.9,"stim/14.jpeg",1,4,3,2,"Instruments",2,4,"right","right",0.56099987,1,1,1,0,NA,NA,NA,NA,NA,NA,NA,NA,NA,NA,NA,NA,NA,NA,NA,NA,NA,NA,NA,NA,NA,NA,NA,NA
"325","stim/objects/HouseObjects/flyswatter.png",254,24,247,0.9,"stim/24.jpeg",2,4,3,2,"HouseObjects",1,4,"left","left",0.602999926,1,1,1,0,NA,NA,NA,NA,NA,NA,NA,NA,NA,NA,NA,NA,NA,NA,NA,NA,NA,NA,NA,NA,NA,NA,NA,NA
"421","stim/objects/Instruments/bassguitar.png",255,24,248,0.5,"stim/42.jpeg",4,2,1,2,"Instruments",2,4,"right","left",0.642999887,0,0,1,0,NA,NA,NA,NA,NA,NA,NA,NA,NA,NA,NA,NA,NA,NA,NA,NA,NA,NA,NA,NA,NA,NA,NA,NA
"275","stim/objects/HouseObjects/clothespin.png",256,24,249,0.7,"stim/62.jpeg",6,2,2,2,"HouseObjects",1,2,"left","left",0.580999851,1,1,1,0,NA,NA,NA,NA,NA,NA,NA,NA,NA,NA,NA,NA,NA,NA,NA,NA,NA,NA,NA,NA,NA,NA,NA,NA
"452","stim/objects/Instruments/electricguitar.png",257,24,250,0.7,"stim/54.jpeg",5,4,2,2,"Instruments",2,1,"right","right",0.522999763,1,1,1,0,NA,NA,NA,NA,NA,NA,NA,NA,NA,NA,NA,NA,NA,NA,NA,NA,NA,NA,NA,NA,NA,NA,NA,NA
"291","stim/objects/HouseObjects/doormat.png",258,24,251,0.9,"stim/24.jpeg",2,4,3,2,"HouseObjects",1,2,"left","left",0.612999916,1,1,1,0,NA,NA,NA,NA,NA,NA,NA,NA,NA,NA,NA,NA,NA,NA,NA,NA,NA,NA,NA,NA,NA,NA,NA,NA
"544","stim/objects/Instruments/harmonica2.png",259,24,252,0.9,"stim/11.jpeg",1,1,3,1,"Instruments",2,3,"right","right",0.558999777,1,1,1,0,96,24,1,0.9,2,"stim/11.jpeg",1,1,"stim/11.jpeg",3,"left",0.617000103,4,3,1.427000284,3,1.702000141,96,1,0,0,1,1,1
"453","stim/objects/Instruments/electricguitar.png",260,24,253,0.7,"stim/51.jpeg",5,1,2,2,"Instruments",2,1,"right","right",0.586999893,1,1,1,0,NA,NA,NA,NA,NA,NA,NA,NA,NA,NA,NA,NA,NA,NA,NA,NA,NA,NA,NA,NA,NA,NA,NA,NA
"441","stim/objects/Instruments/doublebass.png",261,24,254,0.7,"stim/52.jpeg",5,2,2,2,"Instruments",2,2,"right","right",0.680999994,1,1,1,0,NA,NA,NA,NA,NA,NA,NA,NA,NA,NA,NA,NA,NA,NA,NA,NA,NA,NA,NA,NA,NA,NA,NA,NA
"563","stim/objects/Instruments/oboe.png",262,24,255,0.7,"stim/53.jpeg",5,3,2,1,"Instruments",2,1,"right","right",0.576999903,1,1,1,0,43,24,1,0.7,2,"stim/53.jpeg",5,3,"stim/53.jpeg",1,"left",0.715000153,3,1,0.380000114,4,0.342000008,43,1,0,0,0,0,1
"405","stim/objects/HouseObjects/rubbergloves2.png",263,24,256,0.9,"stim/22.jpeg",2,2,3,1,"HouseObjects",1,4,"left","left",0.572999954,1,1,1,0,108,24,1,0.9,1,"stim/22.jpeg",2,2,"stim/22.jpeg",4,"right",0.933000088,1,2,0.244000196,3,0.227000237,108,0,1,NA,0,NA,1
"456","stim/objects/Instruments/flute.png",264,24,257,0.9,"stim/12.jpeg",1,2,3,2,"Instruments",2,2,"right","right",0.707999945,1,1,1,0,NA,NA,NA,NA,NA,NA,NA,NA,NA,NA,NA,NA,NA,NA,NA,NA,NA,NA,NA,NA,NA,NA,NA,NA
"327","stim/objects/HouseObjects/flyswatter.png",265,24,258,0.9,"stim/22.jpeg",2,2,3,2,"HouseObjects",1,2,"left","left",0.648000002,1,1,1,0,NA,NA,NA,NA,NA,NA,NA,NA,NA,NA,NA,NA,NA,NA,NA,NA,NA,NA,NA,NA,NA,NA,NA,NA
"362","stim/objects/HouseObjects/glass.png",266,24,259,0.9,"stim/24.jpeg",2,4,3,2,"HouseObjects",1,4,"left","left",0.513000011,1,1,1,0,NA,NA,NA,NA,NA,NA,NA,NA,NA,NA,NA,NA,NA,NA,NA,NA,NA,NA,NA,NA,NA,NA,NA,NA
"267","stim/objects/HouseObjects/bucket2.png",267,24,260,0.7,"stim/63.jpeg",6,3,2,1,"HouseObjects",1,4,"left","left",0.504999876,1,1,1,0,22,24,1,0.7,1,"stim/63.jpeg",6,3,"stim/63.jpeg",4,"left",1.136000156,3,2,0.539999962,3,0.197000027,22,1,0,0,0,0,1
"490","stim/objects/Instruments/frenchhorn.png",268,24,261,0.9,"stim/11.jpeg",1,1,3,2,"Instruments",2,1,"right","right",0.615999937,1,1,1,0,NA,NA,NA,NA,NA,NA,NA,NA,NA,NA,NA,NA,NA,NA,NA,NA,NA,NA,NA,NA,NA,NA,NA,NA
"457","stim/objects/Instruments/flute.png",269,24,262,0.9,"stim/14.jpeg",1,4,3,2,"Instruments",2,4,"right","right",0.498999834,1,1,1,0,NA,NA,NA,NA,NA,NA,NA,NA,NA,NA,NA,NA,NA,NA,NA,NA,NA,NA,NA,NA,NA,NA,NA,NA
"307","stim/objects/HouseObjects/doormat2.png",270,24,263,0.1,"stim/11.jpeg",1,1,3,1,"HouseObjects",1,4,"left","right",0.459000111,0,0,1,0,122,24,1,0.1,1,"stim/11.jpeg",1,1,"stim/11.jpeg",4,"left",1.462000132,2,1,0.710000277,4,0.283000231,122,1,1,1,1,1,1
"474","stim/objects/Instruments/flutetrans.png",271,24,264,0.9,"stim/14.jpeg",1,4,3,2,"Instruments",2,3,"right","right",0.437000036,1,1,1,0,NA,NA,NA,NA,NA,NA,NA,NA,NA,NA,NA,NA,NA,NA,NA,NA,NA,NA,NA,NA,NA,NA,NA,NA
"342","stim/objects/HouseObjects/garbagebin.png",272,24,265,0.9,"stim/24.jpeg",2,4,3,2,"HouseObjects",1,3,"left","left",0.599999905,1,1,1,0,NA,NA,NA,NA,NA,NA,NA,NA,NA,NA,NA,NA,NA,NA,NA,NA,NA,NA,NA,NA,NA,NA,NA,NA
"329","stim/objects/HouseObjects/flyswatter.png",273,24,266,0.9,"stim/23.jpeg",2,3,3,2,"HouseObjects",1,4,"left","left",0.555999994,1,1,1,0,NA,NA,NA,NA,NA,NA,NA,NA,NA,NA,NA,NA,NA,NA,NA,NA,NA,NA,NA,NA,NA,NA,NA,NA
"524","stim/objects/Instruments/grandpiano.png",274,24,267,0.9,"stim/14.jpeg",1,4,3,2,"Instruments",2,4,"right","right",0.553999901,1,1,1,0,NA,NA,NA,NA,NA,NA,NA,NA,NA,NA,NA,NA,NA,NA,NA,NA,NA,NA,NA,NA,NA,NA,NA,NA
"525","stim/objects/Instruments/grandpiano.png",275,24,268,0.9,"stim/11.jpeg",1,1,3,2,"Instruments",2,3,"right","right",0.493999958,1,1,1,0,NA,NA,NA,NA,NA,NA,NA,NA,NA,NA,NA,NA,NA,NA,NA,NA,NA,NA,NA,NA,NA,NA,NA,NA
"458","stim/objects/Instruments/flute.png",276,24,269,0.9,"stim/12.jpeg",1,2,3,2,"Instruments",2,2,"right","right",0.447999954,1,1,1,0,NA,NA,NA,NA,NA,NA,NA,NA,NA,NA,NA,NA,NA,NA,NA,NA,NA,NA,NA,NA,NA,NA,NA,NA
"287","stim/objects/HouseObjects/dishsoap.png",277,24,270,0.7,"stim/63.jpeg",6,3,2,2,"HouseObjects",1,4,"left","left",0.596999884,1,1,1,0,NA,NA,NA,NA,NA,NA,NA,NA,NA,NA,NA,NA,NA,NA,NA,NA,NA,NA,NA,NA,NA,NA,NA,NA
"249","stim/objects/HouseObjects/barbecuelighter2.png",278,24,271,0.3,"stim/54.jpeg",5,4,2,1,"HouseObjects",1,1,"left","right",0.556999922,0,0,1,0,118,24,1,0.3,1,"stim/54.jpeg",5,4,"stim/54.jpeg",1,"right",0.84800005,2,1,0.578000307,2,0.519000053,118,0,0,NA,0,NA,1
"364","stim/objects/HouseObjects/glass.png",279,24,272,0.9,"stim/23.jpeg",2,3,3,2,"HouseObjects",1,1,"left","left",0.604000092,1,1,1,0,NA,NA,NA,NA,NA,NA,NA,NA,NA,NA,NA,NA,NA,NA,NA,NA,NA,NA,NA,NA,NA,NA,NA,NA
"279","stim/objects/HouseObjects/coffee.png",280,24,273,0.7,"stim/64.jpeg",6,4,2,2,"HouseObjects",1,2,"left","left",0.582999945,1,1,1,0,NA,NA,NA,NA,NA,NA,NA,NA,NA,NA,NA,NA,NA,NA,NA,NA,NA,NA,NA,NA,NA,NA,NA,NA
"459","stim/objects/Instruments/flute.png",281,24,274,0.9,"stim/11.jpeg",1,1,3,2,"Instruments",2,2,"right","right",0.540999889,1,1,1,0,NA,NA,NA,NA,NA,NA,NA,NA,NA,NA,NA,NA,NA,NA,NA,NA,NA,NA,NA,NA,NA,NA,NA,NA
"561","stim/objects/Instruments/musicstand.png",282,24,275,0.7,"stim/52.jpeg",5,2,2,1,"Instruments",2,2,"right","right",0.631999969,1,1,1,0,28,24,1,0.7,2,"stim/52.jpeg",5,2,"stim/52.jpeg",2,"left",0.834000111,3,4,0.503000259,2,0.567000151,28,1,0,0,1,1,1
"541","stim/objects/Instruments/guitarcase.png",283,24,276,0.5,"stim/32.jpeg",3,2,1,1,"Instruments",2,2,"right","right",0.507999897,1,1,1,0,7,24,1,0.5,1,"stim/32.jpeg",3,2,"stim/32.jpeg",2,"right",2.120000124,3,3,0.173000097,3,1.562000036,7,0,0,NA,0,NA,1
"308","stim/objects/HouseObjects/dustpan.png",284,24,277,0.9,"stim/21.jpeg",2,1,3,2,"HouseObjects",1,2,"left","left",0.551000118,1,1,1,0,NA,NA,NA,NA,NA,NA,NA,NA,NA,NA,NA,NA,NA,NA,NA,NA,NA,NA,NA,NA,NA,NA,NA,NA
"460","stim/objects/Instruments/flute.png",285,24,278,0.9,"stim/14.jpeg",1,4,3,2,"Instruments",2,4,"right","right",0.535000086,1,1,1,0,NA,NA,NA,NA,NA,NA,NA,NA,NA,NA,NA,NA,NA,NA,NA,NA,NA,NA,NA,NA,NA,NA,NA,NA
"309","stim/objects/HouseObjects/dustpan.png",286,24,279,0.9,"stim/24.jpeg",2,4,3,2,"HouseObjects",1,2,"left","left",0.542999983,1,1,1,0,NA,NA,NA,NA,NA,NA,NA,NA,NA,NA,NA,NA,NA,NA,NA,NA,NA,NA,NA,NA,NA,NA,NA,NA
"252","stim/objects/HouseObjects/basket2.png",287,24,280,0.3,"stim/51.jpeg",5,1,2,1,"HouseObjects",1,3,"left","right",0.701999903,0,0,1,0,127,24,1,0.3,1,"stim/51.jpeg",5,1,"stim/51.jpeg",3,"right",0.583000183,3,2,0.351000071,1,0.207000017,127,0,0,NA,0,NA,1
"292","stim/objects/HouseObjects/doormat.png",288,24,281,0.9,"stim/23.jpeg",2,3,3,2,"HouseObjects",1,4,"left","left",0.496999979,1,1,1,0,NA,NA,NA,NA,NA,NA,NA,NA,NA,NA,NA,NA,NA,NA,NA,NA,NA,NA,NA,NA,NA,NA,NA,NA
"390","stim/objects/HouseObjects/knife.png",289,24,282,0.5,"stim/43.jpeg",4,3,1,1,"HouseObjects",1,1,"left","left",0.514999866,1,1,1,0,179,24,1,0.5,2,"stim/43.jpeg",4,3,"stim/43.jpeg",1,"right",0.917000055,2,1,0.578000069,3,1.269999981,179,0,0,NA,0,NA,1
"492","stim/objects/Instruments/frenchhorn.png",290,24,283,0.9,"stim/13.jpeg",1,3,3,2,"Instruments",2,2,"right","right",0.795000076,1,1,1,0,NA,NA,NA,NA,NA,NA,NA,NA,NA,NA,NA,NA,NA,NA,NA,NA,NA,NA,NA,NA,NA,NA,NA,NA
"396","stim/objects/HouseObjects/pan.png",291,24,284,0.3,"stim/51.jpeg",5,1,2,1,"HouseObjects",1,4,"left","right",0.56799984,0,0,1,0,138,24,1,0.3,1,"stim/51.jpeg",5,1,"stim/51.jpeg",4,"right",0.903000116,1,2,0.227000237,4,0.529999971,138,0,0,NA,1,NA,1
"547","stim/objects/Instruments/hihat.png",292,24,285,0.5,"stim/31.jpeg",3,1,1,1,"Instruments",2,4,"right","left",0.638999939,0,0,1,0,69,24,1,0.5,1,"stim/31.jpeg",3,1,"stim/31.jpeg",4,"right",0.863000154,3,2,0.252000093,1,0.151000023,69,0,0,NA,0,NA,1
"543","stim/objects/Instruments/harmonica.png",293,24,286,0.5,"stim/33.jpeg",3,3,1,1,"Instruments",2,3,"right","left",0.744999886,0,0,1,0,191,24,1,0.5,1,"stim/33.jpeg",3,3,"stim/33.jpeg",3,"right",0.989000082,2,1,0.380000114,2,0.84400034,191,0,0,NA,0,NA,1
"562","stim/objects/Instruments/musicstand2.png",294,24,287,0.1,"stim/24.jpeg",2,4,3,1,"Instruments",2,3,"right","left",0.595000029,0,0,1,0,135,24,1,0.1,2,"stim/24.jpeg",2,4,"stim/24.jpeg",3,"right",0.972000122,2,3,0.746000051,4,0.179000139,135,0,0,NA,0,NA,1
"526","stim/objects/Instruments/grandpiano.png",295,24,288,0.9,"stim/11.jpeg",1,1,3,2,"Instruments",2,3,"right","right",0.642999887,1,1,1,0,NA,NA,NA,NA,NA,NA,NA,NA,NA,NA,NA,NA,NA,NA,NA,NA,NA,NA,NA,NA,NA,NA,NA,NA
"550","stim/objects/Instruments/keyboard2.png",296,24,289,0.9,"stim/14.jpeg",1,4,3,1,"Instruments",2,2,"right","right",0.495999813,1,1,1,0,60,24,1,0.9,2,"stim/14.jpeg",1,4,"stim/14.jpeg",2,"left",1.061000109,4,2,1.731000185,2,0.973999977,60,1,0,0,1,1,1
"274","stim/objects/HouseObjects/clothesdryingrack2.png",297,24,290,0.7,"stim/61.jpeg",6,1,2,1,"HouseObjects",1,4,"left","left",0.590999842,1,1,1,0,64,24,1,0.7,1,"stim/61.jpeg",6,1,"stim/61.jpeg",4,"left",0.829000235,3,2,0.505000114,4,0.349000216,64,1,0,0,1,1,1
"417","stim/objects/Instruments/banjo2.png",298,24,291,0.7,"stim/52.jpeg",5,2,2,1,"Instruments",2,1,"right","right",0.701999903,1,1,1,0,77,24,1,0.7,2,"stim/52.jpeg",5,2,"stim/52.jpeg",1,"right",0.879000187,4,1,0.877000332,2,0.328000069,77,0,0,NA,0,NA,1
"326","stim/objects/HouseObjects/flyswatter.png",299,24,292,0.9,"stim/22.jpeg",2,2,3,2,"HouseObjects",1,1,"left","left",0.579999924,1,1,1,0,NA,NA,NA,NA,NA,NA,NA,NA,NA,NA,NA,NA,NA,NA,NA,NA,NA,NA,NA,NA,NA,NA,NA,NA
"477","stim/objects/Instruments/flutetrans.png",300,24,293,0.9,"stim/14.jpeg",1,4,3,2,"Instruments",2,1,"right","right",0.484999895,1,1,1,0,NA,NA,NA,NA,NA,NA,NA,NA,NA,NA,NA,NA,NA,NA,NA,NA,NA,NA,NA,NA,NA,NA,NA,NA
"418","stim/objects/Instruments/bassdrum.png",301,24,294,0.5,"stim/34.jpeg",3,4,1,2,"Instruments",2,3,"right","left",0.50999999,0,0,1,0,NA,NA,NA,NA,NA,NA,NA,NA,NA,NA,NA,NA,NA,NA,NA,NA,NA,NA,NA,NA,NA,NA,NA,NA
"444","stim/objects/Instruments/drums.png",302,24,295,0.7,"stim/53.jpeg",5,3,2,2,"Instruments",2,2,"right","right",0.493000031,1,1,1,0,NA,NA,NA,NA,NA,NA,NA,NA,NA,NA,NA,NA,NA,NA,NA,NA,NA,NA,NA,NA,NA,NA,NA,NA
"341","stim/objects/HouseObjects/flyswatter2.png",303,24,296,0.1,"stim/13.jpeg",1,3,3,1,"HouseObjects",1,3,"left","right",0.575999975,0,0,1,0,174,24,1,0.1,1,"stim/13.jpeg",1,3,"stim/13.jpeg",3,"right",0.596000195,2,1,0.311000109,4,0.407000065,174,0,0,NA,0,NA,1
"551","stim/objects/Instruments/laud.png",304,24,297,0.5,"stim/44.jpeg",4,4,1,1,"Instruments",2,1,"right","right",0.578000069,1,1,1,0,73,24,1,0.5,2,"stim/44.jpeg",4,4,"stim/44.jpeg",1,"right",1.048000097,2,1,0.351000309,4,0.26300025,73,0,0,NA,0,NA,1
"389","stim/objects/HouseObjects/key2.png",305,24,298,0.9,"stim/22.jpeg",2,2,3,1,"HouseObjects",1,3,"left","left",0.510999918,1,1,1,0,40,24,1,0.9,1,"stim/22.jpeg",2,2,"stim/22.jpeg",3,"right",0.902000189,1,2,1.146000147,4,0.211000204,40,0,1,NA,0,NA,1
"493","stim/objects/Instruments/frenchhorn.png",306,24,299,0.9,"stim/12.jpeg",1,2,3,2,"Instruments",2,3,"right","right",0.629999876,1,1,1,0,NA,NA,NA,NA,NA,NA,NA,NA,NA,NA,NA,NA,NA,NA,NA,NA,NA,NA,NA,NA,NA,NA,NA,NA
"385","stim/objects/HouseObjects/iron2.png",307,24,300,0.1,"stim/12.jpeg",1,2,3,1,"HouseObjects",1,4,"left","right",0.559000015,0,0,1,0,46,24,1,0.1,1,"stim/12.jpeg",1,2,"stim/12.jpeg",4,"left",0.813000202,2,4,0.212000132,1,0.421000242,46,1,0,0,0,0,1
"330","stim/objects/HouseObjects/flyswatter.png",308,24,301,0.9,"stim/22.jpeg",2,2,3,2,"HouseObjects",1,1,"left","left",0.483999968,1,1,1,0,NA,NA,NA,NA,NA,NA,NA,NA,NA,NA,NA,NA,NA,NA,NA,NA,NA,NA,NA,NA,NA,NA,NA,NA
"365","stim/objects/HouseObjects/glass.png",309,24,302,0.9,"stim/24.jpeg",2,4,3,2,"HouseObjects",1,1,"left","left",0.51699996,1,1,1,0,NA,NA,NA,NA,NA,NA,NA,NA,NA,NA,NA,NA,NA,NA,NA,NA,NA,NA,NA,NA,NA,NA,NA,NA
"310","stim/objects/HouseObjects/dustpan.png",310,24,303,0.9,"stim/22.jpeg",2,2,3,2,"HouseObjects",1,1,"left","left",0.506000042,1,1,1,0,NA,NA,NA,NA,NA,NA,NA,NA,NA,NA,NA,NA,NA,NA,NA,NA,NA,NA,NA,NA,NA,NA,NA,NA
"568","stim/objects/Instruments/pipepiano2.png",311,24,304,0.1,"stim/23.jpeg",2,3,3,1,"Instruments",2,3,"right","left",0.490999937,0,0,1,0,86,24,1,0.1,2,"stim/23.jpeg",2,3,"stim/23.jpeg",3,"right",1.282999992,1,2,0.359000206,4,0.402000189,86,0,0,NA,0,NA,1
"528","stim/objects/Instruments/grandpiano.png",312,24,305,0.9,"stim/13.jpeg",1,3,3,2,"Instruments",2,4,"right","right",0.559999943,1,1,1,0,NA,NA,NA,NA,NA,NA,NA,NA,NA,NA,NA,NA,NA,NA,NA,NA,NA,NA,NA,NA,NA,NA,NA,NA
"293","stim/objects/HouseObjects/doormat.png",313,24,306,0.9,"stim/21.jpeg",2,1,3,2,"HouseObjects",1,2,"left","left",0.540999889,1,1,1,0,NA,NA,NA,NA,NA,NA,NA,NA,NA,NA,NA,NA,NA,NA,NA,NA,NA,NA,NA,NA,NA,NA,NA,NA
"283","stim/objects/HouseObjects/cushion.png",314,24,307,0.7,"stim/62.jpeg",6,2,2,2,"HouseObjects",1,3,"left","left",0.513000011,1,1,1,0,NA,NA,NA,NA,NA,NA,NA,NA,NA,NA,NA,NA,NA,NA,NA,NA,NA,NA,NA,NA,NA,NA,NA,NA
"294","stim/objects/HouseObjects/doormat.png",315,24,308,0.9,"stim/24.jpeg",2,4,3,2,"HouseObjects",1,4,"left","left",0.470000029,1,1,1,0,NA,NA,NA,NA,NA,NA,NA,NA,NA,NA,NA,NA,NA,NA,NA,NA,NA,NA,NA,NA,NA,NA,NA,NA
"290","stim/objects/HouseObjects/dishsoap2.png",316,24,309,0.7,"stim/61.jpeg",6,1,2,1,"HouseObjects",1,1,"left","left",0.503000021,1,1,1,0,141,24,1,0.7,1,"stim/61.jpeg",6,1,"stim/61.jpeg",1,"right",0.698000193,3,2,0.446000099,1,0.162000179,141,0,0,NA,1,NA,1
"311","stim/objects/HouseObjects/dustpan.png",317,24,310,0.9,"stim/21.jpeg",2,1,3,2,"HouseObjects",1,4,"left","left",0.551999807,1,1,1,0,NA,NA,NA,NA,NA,NA,NA,NA,NA,NA,NA,NA,NA,NA,NA,NA,NA,NA,NA,NA,NA,NA,NA,NA
"256","stim/objects/HouseObjects/blender.png",318,24,311,0.5,"stim/43.jpeg",4,3,1,2,"HouseObjects",1,3,"left","left",0.509999752,1,1,1,0,NA,NA,NA,NA,NA,NA,NA,NA,NA,NA,NA,NA,NA,NA,NA,NA,NA,NA,NA,NA,NA,NA,NA,NA
"379","stim/objects/HouseObjects/hairdryer2.png",319,24,312,0.1,"stim/13.jpeg",1,3,3,1,"HouseObjects",1,4,"left","right",0.462999821,0,0,1,0,198,24,1,0.1,1,"stim/13.jpeg",1,3,"stim/13.jpeg",4,"left",1.013000011,3,4,0.639000177,4,0.668000221,198,1,0,0,1,1,1
"244","stim/objects/HouseObjects/ballofstring.png",320,24,313,0.5,"stim/32.jpeg",3,2,1,2,"HouseObjects",1,3,"left","right",0.573999882,0,0,1,0,NA,NA,NA,NA,NA,NA,NA,NA,NA,NA,NA,NA,NA,NA,NA,NA,NA,NA,NA,NA,NA,NA,NA,NA
"478","stim/objects/Instruments/flutetrans.png",321,24,314,0.9,"stim/14.jpeg",1,4,3,2,"Instruments",2,4,"right","right",0.496999741,1,1,1,0,NA,NA,NA,NA,NA,NA,NA,NA,NA,NA,NA,NA,NA,NA,NA,NA,NA,NA,NA,NA,NA,NA,NA,NA
"272","stim/objects/HouseObjects/clothesdryingrack.png",322,24,315,0.7,"stim/62.jpeg",6,2,2,2,"HouseObjects",1,4,"left","left",0.467999935,1,1,1,0,NA,NA,NA,NA,NA,NA,NA,NA,NA,NA,NA,NA,NA,NA,NA,NA,NA,NA,NA,NA,NA,NA,NA,NA
"312","stim/objects/HouseObjects/dustpan.png",323,24,316,0.9,"stim/24.jpeg",2,4,3,2,"HouseObjects",1,1,"left","left",0.633999825,1,1,1,0,NA,NA,NA,NA,NA,NA,NA,NA,NA,NA,NA,NA,NA,NA,NA,NA,NA,NA,NA,NA,NA,NA,NA,NA
"514","stim/objects/Instruments/gong.png",324,24,317,0.9,"stim/13.jpeg",1,3,3,2,"Instruments",2,2,"right","right",0.516000032,1,1,1,0,NA,NA,NA,NA,NA,NA,NA,NA,NA,NA,NA,NA,NA,NA,NA,NA,NA,NA,NA,NA,NA,NA,NA,NA
"344","stim/objects/HouseObjects/garbagebin.png",325,24,318,0.9,"stim/23.jpeg",2,3,3,2,"HouseObjects",1,3,"left","left",0.474999905,1,1,1,0,NA,NA,NA,NA,NA,NA,NA,NA,NA,NA,NA,NA,NA,NA,NA,NA,NA,NA,NA,NA,NA,NA,NA,NA
"247","stim/objects/HouseObjects/barbecuelighter.png",326,24,319,0.5,"stim/33.jpeg",3,3,1,2,"HouseObjects",1,2,"left","left",0.788000107,1,1,1,0,NA,NA,NA,NA,NA,NA,NA,NA,NA,NA,NA,NA,NA,NA,NA,NA,NA,NA,NA,NA,NA,NA,NA,NA
"313","stim/objects/HouseObjects/dustpan.png",327,24,320,0.9,"stim/24.jpeg",2,4,3,2,"HouseObjects",1,4,"left","left",0.557999849,1,1,1,0,NA,NA,NA,NA,NA,NA,NA,NA,NA,NA,NA,NA,NA,NA,NA,NA,NA,NA,NA,NA,NA,NA,NA,NA
"461","stim/objects/Instruments/flute.png",328,24,321,0.9,"stim/13.jpeg",1,3,3,2,"Instruments",2,3,"right","right",0.481999874,1,1,1,0,NA,NA,NA,NA,NA,NA,NA,NA,NA,NA,NA,NA,NA,NA,NA,NA,NA,NA,NA,NA,NA,NA,NA,NA
"494","stim/objects/Instruments/frenchhorn.png",329,24,322,0.9,"stim/13.jpeg",1,3,3,2,"Instruments",2,1,"right","right",0.496999979,1,1,1,0,NA,NA,NA,NA,NA,NA,NA,NA,NA,NA,NA,NA,NA,NA,NA,NA,NA,NA,NA,NA,NA,NA,NA,NA
"314","stim/objects/HouseObjects/dustpan.png",330,24,323,0.9,"stim/22.jpeg",2,2,3,2,"HouseObjects",1,1,"left","left",0.529999971,1,1,1,0,NA,NA,NA,NA,NA,NA,NA,NA,NA,NA,NA,NA,NA,NA,NA,NA,NA,NA,NA,NA,NA,NA,NA,NA
"479","stim/objects/Instruments/flutetrans.png",331,24,324,0.9,"stim/11.jpeg",1,1,3,2,"Instruments",2,2,"right","right",0.562000036,1,1,1,0,NA,NA,NA,NA,NA,NA,NA,NA,NA,NA,NA,NA,NA,NA,NA,NA,NA,NA,NA,NA,NA,NA,NA,NA
"510","stim/objects/Instruments/gong.png",332,24,325,0.9,"stim/11.jpeg",1,1,3,2,"Instruments",2,3,"right","right",0.565999746,1,1,1,0,NA,NA,NA,NA,NA,NA,NA,NA,NA,NA,NA,NA,NA,NA,NA,NA,NA,NA,NA,NA,NA,NA,NA,NA
"415","stim/objects/Instruments/banjo.png",333,24,326,0.5,"stim/33.jpeg",3,3,1,2,"Instruments",2,2,"right","",NA,0,0,1,0,NA,NA,NA,NA,NA,NA,NA,NA,NA,NA,NA,NA,NA,NA,NA,NA,NA,NA,NA,NA,NA,NA,NA,NA
"368","stim/objects/HouseObjects/glass.png",334,24,327,0.9,"stim/22.jpeg",2,2,3,2,"HouseObjects",1,3,"left","left",0.516000032,1,1,1,0,NA,NA,NA,NA,NA,NA,NA,NA,NA,NA,NA,NA,NA,NA,NA,NA,NA,NA,NA,NA,NA,NA,NA,NA
"250","stim/objects/HouseObjects/basket.png",335,24,328,0.5,"stim/34.jpeg",3,4,1,2,"HouseObjects",1,4,"left","left",0.669999838,1,1,1,0,NA,NA,NA,NA,NA,NA,NA,NA,NA,NA,NA,NA,NA,NA,NA,NA,NA,NA,NA,NA,NA,NA,NA,NA
"529","stim/objects/Instruments/grandpiano.png",336,24,329,0.9,"stim/13.jpeg",1,3,3,2,"Instruments",2,2,"right","right",0.726000071,1,1,1,0,NA,NA,NA,NA,NA,NA,NA,NA,NA,NA,NA,NA,NA,NA,NA,NA,NA,NA,NA,NA,NA,NA,NA,NA
"527","stim/objects/Instruments/grandpiano.png",337,24,330,0.9,"stim/12.jpeg",1,2,3,2,"Instruments",2,2,"right","right",0.50399971,1,1,1,0,NA,NA,NA,NA,NA,NA,NA,NA,NA,NA,NA,NA,NA,NA,NA,NA,NA,NA,NA,NA,NA,NA,NA,NA
"270","stim/objects/HouseObjects/clock2.png",338,24,331,0.7,"stim/64.jpeg",6,4,2,1,"HouseObjects",1,1,"left","left",0.535999775,1,1,1,0,25,24,1,0.7,1,"stim/64.jpeg",6,4,"stim/64.jpeg",1,"left",0.853000164,3,1,1.335000038,1,0.618000269,25,1,0,0,1,1,1
"288","stim/objects/HouseObjects/dishsoap.png",339,24,332,0.7,"stim/61.jpeg",6,1,2,2,"HouseObjects",1,3,"left","left",0.519999981,1,1,1,0,NA,NA,NA,NA,NA,NA,NA,NA,NA,NA,NA,NA,NA,NA,NA,NA,NA,NA,NA,NA,NA,NA,NA,NA
"495","stim/objects/Instruments/frenchhorn.png",340,24,333,0.9,"stim/12.jpeg",1,2,3,2,"Instruments",2,2,"right","right",0.519999981,1,1,1,0,NA,NA,NA,NA,NA,NA,NA,NA,NA,NA,NA,NA,NA,NA,NA,NA,NA,NA,NA,NA,NA,NA,NA,NA
"403","stim/objects/HouseObjects/remote2.png",341,24,334,0.9,"stim/21.jpeg",2,1,3,1,"HouseObjects",1,2,"left","left",0.576999903,1,1,1,0,72,24,1,0.9,1,"stim/21.jpeg",2,1,"stim/21.jpeg",2,"left",4.469000101,2,4,0.308000088,1,0.244000196,72,1,0,0,0,0,1
"496","stim/objects/Instruments/frenchhorn.png",342,24,335,0.9,"stim/12.jpeg",1,2,3,2,"Instruments",2,1,"right","right",0.504999876,1,1,1,0,NA,NA,NA,NA,NA,NA,NA,NA,NA,NA,NA,NA,NA,NA,NA,NA,NA,NA,NA,NA,NA,NA,NA,NA
"295","stim/objects/HouseObjects/doormat.png",343,24,336,0.9,"stim/24.jpeg",2,4,3,2,"HouseObjects",1,2,"left","left",0.52699995,1,1,1,0,NA,NA,NA,NA,NA,NA,NA,NA,NA,NA,NA,NA,NA,NA,NA,NA,NA,NA,NA,NA,NA,NA,NA,NA
"383","stim/objects/HouseObjects/handvacuum2.png",344,24,337,0.1,"stim/11.jpeg",1,1,3,1,"HouseObjects",1,2,"left","right",0.576999903,0,0,1,0,152,24,1,0.1,1,"stim/11.jpeg",1,1,"stim/11.jpeg",2,"right",0.846000195,2,1,0.464000225,1,0.424000263,152,0,1,NA,0,NA,1
"532","stim/objects/Instruments/grandpiano.png",345,24,338,0.9,"stim/14.jpeg",1,4,3,2,"Instruments",2,2,"right","right",0.510999918,1,1,1,0,NA,NA,NA,NA,NA,NA,NA,NA,NA,NA,NA,NA,NA,NA,NA,NA,NA,NA,NA,NA,NA,NA,NA,NA
"426","stim/objects/Instruments/cello2.png",346,24,339,0.3,"stim/63.jpeg",6,3,2,1,"Instruments",2,4,"right","left",0.559000015,0,0,1,0,71,24,1,0.3,2,"stim/63.jpeg",6,3,"stim/63.jpeg",4,"left",1.351000071,2,4,0.610000134,2,0.493000031,71,1,0,0,0,0,1
"324","stim/objects/HouseObjects/dustpan2.png",347,24,340,0.1,"stim/12.jpeg",1,2,3,1,"HouseObjects",1,2,"left","right",0.523999929,0,0,1,0,31,24,1,0.1,1,"stim/12.jpeg",1,2,"stim/12.jpeg",2,"right",0.617000341,2,3,0.38800025,4,0.210000277,31,0,0,NA,0,NA,1
"315","stim/objects/HouseObjects/dustpan.png",348,24,341,0.9,"stim/23.jpeg",2,3,3,2,"HouseObjects",1,4,"left","left",0.457000017,1,1,1,0,NA,NA,NA,NA,NA,NA,NA,NA,NA,NA,NA,NA,NA,NA,NA,NA,NA,NA,NA,NA,NA,NA,NA,NA
"346","stim/objects/HouseObjects/garbagebin.png",349,24,342,0.9,"stim/22.jpeg",2,2,3,2,"HouseObjects",1,1,"left","left",0.498999834,1,1,1,0,NA,NA,NA,NA,NA,NA,NA,NA,NA,NA,NA,NA,NA,NA,NA,NA,NA,NA,NA,NA,NA,NA,NA,NA
"296","stim/objects/HouseObjects/doormat.png",350,24,343,0.9,"stim/21.jpeg",2,1,3,2,"HouseObjects",1,2,"left","left",0.646999836,1,1,1,0,NA,NA,NA,NA,NA,NA,NA,NA,NA,NA,NA,NA,NA,NA,NA,NA,NA,NA,NA,NA,NA,NA,NA,NA
"378","stim/objects/HouseObjects/hairdryer.png",351,24,344,0.5,"stim/34.jpeg",3,4,1,1,"HouseObjects",1,3,"left","left",0.656999826,1,1,1,0,19,24,1,0.5,1,"stim/34.jpeg",3,4,"stim/34.jpeg",3,"left",1.160000086,2,2,0.621000051,4,0.316000223,19,1,0,0,0,0,1
"380","stim/objects/HouseObjects/handbrush.png",352,24,345,0.5,"stim/31.jpeg",3,1,1,1,"HouseObjects",1,4,"left","left",0.540999889,1,1,1,0,192,24,1,0.5,1,"stim/31.jpeg",3,1,"stim/31.jpeg",4,"right",1.134000063,2,1,0.159000158,4,0.534000158,192,0,1,NA,1,NA,1
"549","stim/objects/Instruments/keyboard.png",353,24,346,0.5,"stim/32.jpeg",3,2,1,1,"Instruments",2,2,"right","right",0.680999994,1,1,1,0,75,24,1,0.5,1,"stim/32.jpeg",3,2,"stim/32.jpeg",2,"left",1.019000292,3,4,0.463000059,4,0.664000273,75,1,0,0,0,0,1
"408","stim/objects/Instruments/accordion2.png",354,24,347,0.7,"stim/53.jpeg",5,3,2,1,"Instruments",2,4,"right","right",0.618999958,1,1,1,0,16,24,1,0.7,2,"stim/53.jpeg",5,3,"stim/53.jpeg",4,"right",1.305999994,3,2,0.567000389,3,0.584000111,16,0,0,NA,0,NA,1
"243","stim/objects/HouseObjects/ashtray2.png",355,24,348,0.3,"stim/52.jpeg",5,2,2,1,"HouseObjects",1,3,"left","left",0.764999866,1,1,1,0,4,24,1,0.3,1,"stim/52.jpeg",5,2,"stim/52.jpeg",3,"left",1.43900013,3,4,4.903000355,3,2.058000326,4,1,0,0,1,1,1
"481","stim/objects/Instruments/flutetrans.png",356,24,349,0.9,"stim/13.jpeg",1,3,3,2,"Instruments",2,3,"right","right",0.667999744,1,1,1,0,NA,NA,NA,NA,NA,NA,NA,NA,NA,NA,NA,NA,NA,NA,NA,NA,NA,NA,NA,NA,NA,NA,NA,NA
"409","stim/objects/Instruments/acousticguitar.png",357,24,350,0.5,"stim/31.jpeg",3,1,1,2,"Instruments",2,4,"right","left",0.667999744,0,0,1,0,NA,NA,NA,NA,NA,NA,NA,NA,NA,NA,NA,NA,NA,NA,NA,NA,NA,NA,NA,NA,NA,NA,NA,NA
"297","stim/objects/HouseObjects/doormat.png",358,24,351,0.9,"stim/23.jpeg",2,3,3,2,"HouseObjects",1,1,"left","left",0.549999952,1,1,1,0,NA,NA,NA,NA,NA,NA,NA,NA,NA,NA,NA,NA,NA,NA,NA,NA,NA,NA,NA,NA,NA,NA,NA,NA
"552","stim/objects/Instruments/laud2.png",359,24,352,0.1,"stim/23.jpeg",2,3,3,1,"Instruments",2,4,"right","left",0.750999928,0,0,1,0,134,24,1,0.1,2,"stim/23.jpeg",2,3,"stim/23.jpeg",4,"right",0.495000124,3,2,0.235000134,1,0.159000158,134,0,0,NA,0,NA,1
"437","stim/objects/Instruments/cymbal.png",360,24,353,0.7,"stim/51.jpeg",5,1,2,2,"Instruments",2,3,"right","right",0.568999767,1,1,1,0,NA,NA,NA,NA,NA,NA,NA,NA,NA,NA,NA,NA,NA,NA,NA,NA,NA,NA,NA,NA,NA,NA,NA,NA
"332","stim/objects/HouseObjects/flyswatter.png",361,24,354,0.9,"stim/22.jpeg",2,2,3,2,"HouseObjects",1,3,"left","left",0.538999796,1,1,1,0,NA,NA,NA,NA,NA,NA,NA,NA,NA,NA,NA,NA,NA,NA,NA,NA,NA,NA,NA,NA,NA,NA,NA,NA
"347","stim/objects/HouseObjects/garbagebin.png",362,24,355,0.9,"stim/24.jpeg",2,4,3,2,"HouseObjects",1,3,"left","left",0.539999962,1,1,1,0,NA,NA,NA,NA,NA,NA,NA,NA,NA,NA,NA,NA,NA,NA,NA,NA,NA,NA,NA,NA,NA,NA,NA,NA
"253","stim/objects/HouseObjects/bleachbottle.png",363,24,356,0.5,"stim/32.jpeg",3,2,1,2,"HouseObjects",1,3,"left","right",0.644000053,0,0,1,0,NA,NA,NA,NA,NA,NA,NA,NA,NA,NA,NA,NA,NA,NA,NA,NA,NA,NA,NA,NA,NA,NA,NA,NA
"482","stim/objects/Instruments/flutetrans.png",364,24,357,0.9,"stim/11.jpeg",1,1,3,2,"Instruments",2,3,"right","right",0.576999903,1,1,1,0,NA,NA,NA,NA,NA,NA,NA,NA,NA,NA,NA,NA,NA,NA,NA,NA,NA,NA,NA,NA,NA,NA,NA,NA
"464","stim/objects/Instruments/flute.png",365,24,358,0.9,"stim/12.jpeg",1,2,3,2,"Instruments",2,4,"right","right",0.616999865,1,1,1,0,NA,NA,NA,NA,NA,NA,NA,NA,NA,NA,NA,NA,NA,NA,NA,NA,NA,NA,NA,NA,NA,NA,NA,NA
"316","stim/objects/HouseObjects/dustpan.png",366,24,359,0.9,"stim/23.jpeg",2,3,3,2,"HouseObjects",1,4,"left","left",0.769999981,1,1,1,0,NA,NA,NA,NA,NA,NA,NA,NA,NA,NA,NA,NA,NA,NA,NA,NA,NA,NA,NA,NA,NA,NA,NA,NA
"299","stim/objects/HouseObjects/doormat.png",367,24,360,0.9,"stim/22.jpeg",2,2,3,2,"HouseObjects",1,4,"left","left",0.631999969,1,1,1,0,NA,NA,NA,NA,NA,NA,NA,NA,NA,NA,NA,NA,NA,NA,NA,NA,NA,NA,NA,NA,NA,NA,NA,NA
"376","stim/objects/HouseObjects/glassmop.png",368,24,361,0.5,"stim/33.jpeg",3,3,1,1,"HouseObjects",1,1,"left","left",0.792000055,1,1,1,0,116,24,1,0.5,1,"stim/33.jpeg",3,3,"stim/33.jpeg",1,"right",0.564000368,1,2,0.223000288,4,0.356000185,116,0,0,NA,0,NA,1
"370","stim/objects/HouseObjects/glass.png",369,24,362,0.9,"stim/21.jpeg",2,1,3,2,"HouseObjects",1,4,"left","left",0.507999897,1,1,1,0,NA,NA,NA,NA,NA,NA,NA,NA,NA,NA,NA,NA,NA,NA,NA,NA,NA,NA,NA,NA,NA,NA,NA,NA
"516","stim/objects/Instruments/gong.png",370,24,363,0.9,"stim/13.jpeg",1,3,3,2,"Instruments",2,2,"right","right",0.594000101,1,1,1,0,NA,NA,NA,NA,NA,NA,NA,NA,NA,NA,NA,NA,NA,NA,NA,NA,NA,NA,NA,NA,NA,NA,NA,NA
"440","stim/objects/Instruments/doublebass.png",371,24,364,0.7,"stim/51.jpeg",5,1,2,2,"Instruments",2,4,"right","right",0.615999937,1,1,1,0,NA,NA,NA,NA,NA,NA,NA,NA,NA,NA,NA,NA,NA,NA,NA,NA,NA,NA,NA,NA,NA,NA,NA,NA
"462","stim/objects/Instruments/flute.png",372,24,365,0.9,"stim/11.jpeg",1,1,3,2,"Instruments",2,4,"right","right",0.438999891,1,1,1,0,NA,NA,NA,NA,NA,NA,NA,NA,NA,NA,NA,NA,NA,NA,NA,NA,NA,NA,NA,NA,NA,NA,NA,NA
"394","stim/objects/HouseObjects/match.png",373,24,366,0.5,"stim/41.jpeg",4,1,1,1,"HouseObjects",1,1,"left","left",0.461999893,1,1,1,0,199,24,1,0.5,2,"stim/41.jpeg",4,1,"stim/41.jpeg",1,"right",0.538000107,2,1,0.275000095,2,0.424999952,199,0,1,NA,0,NA,1
"377","stim/objects/HouseObjects/glassmop2.png",374,24,367,0.1,"stim/12.jpeg",1,2,3,1,"HouseObjects",1,3,"left","right",0.446999788,0,0,1,0,145,24,1,0.1,1,"stim/12.jpeg",1,2,"stim/12.jpeg",3,"right",0.535000086,1,2,0.657000303,1,0.332000256,145,0,1,NA,0,NA,1
"483","stim/objects/Instruments/flutetrans.png",375,24,368,0.9,"stim/11.jpeg",1,1,3,2,"Instruments",2,3,"right","right",0.50999999,1,1,1,0,NA,NA,NA,NA,NA,NA,NA,NA,NA,NA,NA,NA,NA,NA,NA,NA,NA,NA,NA,NA,NA,NA,NA,NA
"419","stim/objects/Instruments/bassdrum.png",376,24,369,0.5,"stim/31.jpeg",3,1,1,2,"Instruments",2,1,"right","left",0.492999792,0,0,1,0,NA,NA,NA,NA,NA,NA,NA,NA,NA,NA,NA,NA,NA,NA,NA,NA,NA,NA,NA,NA,NA,NA,NA,NA
"560","stim/objects/Instruments/musicsheet2.png",377,24,370,0.1,"stim/23.jpeg",2,3,3,1,"Instruments",2,4,"right","left",0.67599988,0,0,1,0,107,24,1,0.1,2,"stim/23.jpeg",2,3,"stim/23.jpeg",4,"left",0.869000196,3,2,0.59800005,1,0.174000263,107,1,0,0,0,0,1
"317","stim/objects/HouseObjects/dustpan.png",378,24,371,0.9,"stim/21.jpeg",2,1,3,2,"HouseObjects",1,3,"left","left",0.544999838,1,1,1,0,NA,NA,NA,NA,NA,NA,NA,NA,NA,NA,NA,NA,NA,NA,NA,NA,NA,NA,NA,NA,NA,NA,NA,NA
"435","stim/objects/Instruments/cornet2.png",379,24,372,0.3,"stim/62.jpeg",6,2,2,1,"Instruments",2,2,"right","left",0.492999792,0,0,1,0,74,24,1,0.3,2,"stim/62.jpeg",6,2,"stim/62.jpeg",2,"left",1.998000145,3,2,0.429000139,4,0.368000269,74,1,1,1,0,0,1
"540","stim/objects/Instruments/grandpiano2.png",380,24,373,0.9,"stim/13.jpeg",1,3,3,1,"Instruments",2,1,"right","right",0.644999981,1,1,1,0,51,24,1,0.9,2,"stim/13.jpeg",1,3,"stim/13.jpeg",1,"right",1.075000286,2,4,1.29700017,2,0.334000111,51,0,0,NA,0,NA,1
"301","stim/objects/HouseObjects/doormat.png",381,24,374,0.9,"stim/22.jpeg",2,2,3,2,"HouseObjects",1,2,"left","left",0.634000063,1,1,1,0,NA,NA,NA,NA,NA,NA,NA,NA,NA,NA,NA,NA,NA,NA,NA,NA,NA,NA,NA,NA,NA,NA,NA,NA
"451","stim/objects/Instruments/electricdrumset2.png",382,24,375,0.3,"stim/62.jpeg",6,2,2,1,"Instruments",2,4,"right","left",0.530999899,0,0,1,0,157,24,1,0.3,2,"stim/62.jpeg",6,2,"stim/62.jpeg",4,"left",0.864000082,3,4,0.928000212,2,0.899000168,157,1,0,0,0,0,1
"473","stim/objects/Instruments/flutetrans.png",383,24,376,0.9,"stim/13.jpeg",1,3,3,2,"Instruments",2,2,"right","right",0.529999971,1,1,1,0,NA,NA,NA,NA,NA,NA,NA,NA,NA,NA,NA,NA,NA,NA,NA,NA,NA,NA,NA,NA,NA,NA,NA,NA
"246","stim/objects/HouseObjects/ballofstring2.png",384,24,377,0.3,"stim/53.jpeg",5,3,2,1,"HouseObjects",1,3,"left","right",0.520999908,0,0,1,0,87,24,1,0.3,1,"stim/53.jpeg",5,3,"stim/53.jpeg",3,"right",1.179000139,3,2,0.325999975,1,0.213999987,87,0,0,NA,0,NA,1
"257","stim/objects/HouseObjects/blender.png",385,24,378,0.5,"stim/44.jpeg",4,4,1,2,"HouseObjects",1,2,"left","left",0.562999964,1,1,1,0,NA,NA,NA,NA,NA,NA,NA,NA,NA,NA,NA,NA,NA,NA,NA,NA,NA,NA,NA,NA,NA,NA,NA,NA
"436","stim/objects/Instruments/cymbal.png",386,24,379,0.7,"stim/54.jpeg",5,4,2,2,"Instruments",2,3,"right","right",0.509000063,1,1,1,0,NA,NA,NA,NA,NA,NA,NA,NA,NA,NA,NA,NA,NA,NA,NA,NA,NA,NA,NA,NA,NA,NA,NA,NA
"280","stim/objects/HouseObjects/coffee.png",387,24,380,0.7,"stim/61.jpeg",6,1,2,2,"HouseObjects",1,1,"left","left",0.5849998,1,1,1,0,NA,NA,NA,NA,NA,NA,NA,NA,NA,NA,NA,NA,NA,NA,NA,NA,NA,NA,NA,NA,NA,NA,NA,NA
"566","stim/objects/Instruments/panflute2.png",388,24,381,0.1,"stim/22.jpeg",2,2,3,1,"Instruments",2,1,"right","left",0.681999922,0,0,1,0,110,24,1,0.1,2,"stim/22.jpeg",2,2,"stim/22.jpeg",1,"right",0.680000067,3,2,0.311000109,1,0.190000057,110,0,1,NA,1,NA,1
"302","stim/objects/HouseObjects/doormat.png",389,24,382,0.9,"stim/21.jpeg",2,1,3,2,"HouseObjects",1,3,"left","left",0.588000059,1,1,1,0,NA,NA,NA,NA,NA,NA,NA,NA,NA,NA,NA,NA,NA,NA,NA,NA,NA,NA,NA,NA,NA,NA,NA,NA
"285","stim/objects/HouseObjects/cushion.png",390,24,383,0.7,"stim/61.jpeg",6,1,2,2,"HouseObjects",1,4,"left","left",0.572999716,1,1,1,0,NA,NA,NA,NA,NA,NA,NA,NA,NA,NA,NA,NA,NA,NA,NA,NA,NA,NA,NA,NA,NA,NA,NA,NA
"328","stim/objects/HouseObjects/flyswatter.png",391,24,384,0.9,"stim/21.jpeg",2,1,3,2,"HouseObjects",1,1,"left","left",0.501999855,1,1,1,0,NA,NA,NA,NA,NA,NA,NA,NA,NA,NA,NA,NA,NA,NA,NA,NA,NA,NA,NA,NA,NA,NA,NA,NA
"439","stim/objects/Instruments/cymbal2.png",392,24,385,0.3,"stim/63.jpeg",6,3,2,1,"Instruments",2,3,"right","left",0.54399991,0,0,1,0,113,24,1,0.3,2,"stim/63.jpeg",6,3,"stim/63.jpeg",3,"left",0.832000017,2,1,0.250000238,4,0.378000021,113,1,0,0,0,0,1
"336","stim/objects/HouseObjects/flyswatter.png",393,24,386,0.9,"stim/23.jpeg",2,3,3,2,"HouseObjects",1,3,"left","left",0.528999805,1,1,1,0,NA,NA,NA,NA,NA,NA,NA,NA,NA,NA,NA,NA,NA,NA,NA,NA,NA,NA,NA,NA,NA,NA,NA,NA
"386","stim/objects/HouseObjects/ironingboard.png",394,24,387,0.5,"stim/41.jpeg",4,1,1,1,"HouseObjects",1,3,"left","left",0.47300005,1,1,1,0,98,24,1,0.5,2,"stim/41.jpeg",4,1,"stim/41.jpeg",3,"left",1.888000011,2,1,0.409000158,4,0.282000303,98,1,1,1,0,0,1
"485","stim/objects/Instruments/flutetrans.png",395,24,388,0.9,"stim/13.jpeg",1,3,3,2,"Instruments",2,4,"right","right",0.511000156,1,1,1,0,NA,NA,NA,NA,NA,NA,NA,NA,NA,NA,NA,NA,NA,NA,NA,NA,NA,NA,NA,NA,NA,NA,NA,NA
"534","stim/objects/Instruments/grandpiano.png",396,24,389,0.9,"stim/13.jpeg",1,3,3,2,"Instruments",2,1,"right","right",0.601999998,1,1,1,0,NA,NA,NA,NA,NA,NA,NA,NA,NA,NA,NA,NA,NA,NA,NA,NA,NA,NA,NA,NA,NA,NA,NA,NA
"282","stim/objects/HouseObjects/coffee2.png",397,24,390,0.7,"stim/63.jpeg",6,3,2,1,"HouseObjects",1,1,"left","left",0.703999996,1,1,1,0,56,24,1,0.7,1,"stim/63.jpeg",6,3,"stim/63.jpeg",1,"right",0.967000008,1,3,0.180000067,4,0.140000105,56,0,1,NA,0,NA,1
"303","stim/objects/HouseObjects/doormat.png",398,24,391,0.9,"stim/22.jpeg",2,2,3,2,"HouseObjects",1,1,"left","left",0.585999966,1,1,1,0,NA,NA,NA,NA,NA,NA,NA,NA,NA,NA,NA,NA,NA,NA,NA,NA,NA,NA,NA,NA,NA,NA,NA,NA
"363","stim/objects/HouseObjects/glass.png",399,24,392,0.9,"stim/24.jpeg",2,4,3,2,"HouseObjects",1,1,"left","left",0.563999891,1,1,1,0,NA,NA,NA,NA,NA,NA,NA,NA,NA,NA,NA,NA,NA,NA,NA,NA,NA,NA,NA,NA,NA,NA,NA,NA
"304","stim/objects/HouseObjects/doormat.png",400,24,393,0.9,"stim/22.jpeg",2,2,3,2,"HouseObjects",1,2,"left","left",0.414999962,1,1,1,0,NA,NA,NA,NA,NA,NA,NA,NA,NA,NA,NA,NA,NA,NA,NA,NA,NA,NA,NA,NA,NA,NA,NA,NA
"351","stim/objects/HouseObjects/garbagebin.png",401,24,394,0.9,"stim/23.jpeg",2,3,3,2,"HouseObjects",1,2,"left","left",0.49000001,1,1,1,0,NA,NA,NA,NA,NA,NA,NA,NA,NA,NA,NA,NA,NA,NA,NA,NA,NA,NA,NA,NA,NA,NA,NA,NA
"371","stim/objects/HouseObjects/glass.png",402,24,395,0.9,"stim/21.jpeg",2,1,3,2,"HouseObjects",1,1,"left","left",0.538999796,1,1,1,0,NA,NA,NA,NA,NA,NA,NA,NA,NA,NA,NA,NA,NA,NA,NA,NA,NA,NA,NA,NA,NA,NA,NA,NA
"491","stim/objects/Instruments/frenchhorn.png",403,24,396,0.9,"stim/12.jpeg",1,2,3,2,"Instruments",2,2,"right","right",0.504999876,1,1,1,0,NA,NA,NA,NA,NA,NA,NA,NA,NA,NA,NA,NA,NA,NA,NA,NA,NA,NA,NA,NA,NA,NA,NA,NA
"424","stim/objects/Instruments/cello.png",404,24,397,0.5,"stim/44.jpeg",4,4,1,2,"Instruments",2,4,"right","left",0.522999763,0,0,1,0,NA,NA,NA,NA,NA,NA,NA,NA,NA,NA,NA,NA,NA,NA,NA,NA,NA,NA,NA,NA,NA,NA,NA,NA
"393","stim/objects/HouseObjects/lintroller2.png",405,24,398,0.9,"stim/24.jpeg",2,4,3,1,"HouseObjects",1,4,"left","left",0.611999989,1,1,1,0,82,24,1,0.9,1,"stim/24.jpeg",2,4,"stim/24.jpeg",4,"left",0.957000256,2,1,0.414000273,4,0.441000223,82,1,0,0,1,1,1
"548","stim/objects/Instruments/hihat2.png",406,24,399,0.9,"stim/13.jpeg",1,3,3,1,"Instruments",2,3,"right","right",0.607000113,1,1,1,0,169,24,1,0.9,2,"stim/13.jpeg",1,3,"stim/13.jpeg",3,"left",0.817000151,2,4,0.700000048,3,0.773000002,169,1,0,0,1,1,1
"352","stim/objects/HouseObjects/garbagebin.png",407,24,400,0.9,"stim/21.jpeg",2,1,3,2,"HouseObjects",1,1,"left","left",0.64199996,1,1,1,0,NA,NA,NA,NA,NA,NA,NA,NA,NA,NA,NA,NA,NA,NA,NA,NA,NA,NA,NA,NA,NA,NA,NA,NA
"406","stim/objects/Instruments/accordion.png",408,24,401,0.5,"stim/31.jpeg",3,1,1,2,"Instruments",2,4,"right","left",0.605000019,0,0,1,0,NA,NA,NA,NA,NA,NA,NA,NA,NA,NA,NA,NA,NA,NA,NA,NA,NA,NA,NA,NA,NA,NA,NA,NA
"427","stim/objects/Instruments/chime.png",409,24,402,0.5,"stim/41.jpeg",4,1,1,2,"Instruments",2,2,"right","left",0.55099988,0,0,1,0,NA,NA,NA,NA,NA,NA,NA,NA,NA,NA,NA,NA,NA,NA,NA,NA,NA,NA,NA,NA,NA,NA,NA,NA
"448","stim/objects/Instruments/electricdrumset.png",410,24,403,0.7,"stim/53.jpeg",5,3,2,2,"Instruments",2,2,"right","right",0.687000036,1,1,1,0,NA,NA,NA,NA,NA,NA,NA,NA,NA,NA,NA,NA,NA,NA,NA,NA,NA,NA,NA,NA,NA,NA,NA,NA
"264","stim/objects/HouseObjects/broom2.png",411,24,404,0.7,"stim/62.jpeg",6,2,2,1,"HouseObjects",1,2,"left","left",0.555999994,1,1,1,0,153,24,1,0.7,1,"stim/62.jpeg",6,2,"stim/62.jpeg",2,"right",0.988000154,2,1,0.629000187,2,0.461000204,153,0,0,NA,1,NA,1
"509","stim/objects/Instruments/gong.png",412,24,405,0.9,"stim/14.jpeg",1,4,3,2,"Instruments",2,3,"right","left",0.691999912,0,0,1,0,NA,NA,NA,NA,NA,NA,NA,NA,NA,NA,NA,NA,NA,NA,NA,NA,NA,NA,NA,NA,NA,NA,NA,NA
"261","stim/objects/HouseObjects/bottle2.png",413,24,406,0.7,"stim/61.jpeg",6,1,2,1,"HouseObjects",1,4,"left","left",0.714999914,1,1,1,0,37,24,1,0.7,1,"stim/61.jpeg",6,1,"stim/61.jpeg",4,"right",0.843000174,3,2,0.721000195,4,0.200000048,37,0,0,NA,1,NA,1
"414","stim/objects/Instruments/balalaika2.png",414,24,407,0.7,"stim/51.jpeg",5,1,2,1,"Instruments",2,3,"right","right",0.551999807,1,1,1,0,136,24,1,0.7,2,"stim/51.jpeg",5,1,"stim/51.jpeg",3,"right",0.722000122,1,2,0.30700016,1,0.582000017,136,0,0,NA,0,NA,1
"381","stim/objects/HouseObjects/handbrush2.png",415,24,408,0.1,"stim/14.jpeg",1,4,3,1,"HouseObjects",1,2,"left","right",0.600000143,0,0,1,0,61,24,1,0.1,1,"stim/14.jpeg",1,4,"stim/14.jpeg",2,"right",0.955000162,1,3,0.174000025,4,0.158000231,61,0,0,NA,0,NA,1
"559","stim/objects/Instruments/musicsheet.png",416,24,409,0.5,"stim/44.jpeg",4,4,1,1,"Instruments",2,2,"right","right",0.697000027,1,1,1,0,158,24,1,0.5,2,"stim/44.jpeg",4,4,"stim/44.jpeg",2,"right",0.782000065,2,1,0.279000282,2,0.559000015,158,0,0,NA,1,NA,1
"429","stim/objects/Instruments/chime2.png",417,24,410,0.3,"stim/64.jpeg",6,4,2,1,"Instruments",2,1,"right","left",0.498999834,0,0,1,0,196,24,1,0.3,2,"stim/64.jpeg",6,4,"stim/64.jpeg",1,"left",0.94900012,3,2,0.400000095,1,0.201000214,196,1,0,0,1,1,1
"286","stim/objects/HouseObjects/cushion2.png",418,24,411,0.7,"stim/64.jpeg",6,4,2,1,"HouseObjects",1,3,"left","right",0.737999916,0,0,1,0,148,24,1,0.7,1,"stim/64.jpeg",6,4,"stim/64.jpeg",3,"right",0.998000145,2,3,0.393000126,4,0.24600029,148,0,0,NA,0,NA,1
"489","stim/objects/Instruments/flutetrans2.png",419,24,412,0.9,"stim/14.jpeg",1,4,3,1,"Instruments",2,4,"right","right",0.625,1,1,1,0,66,24,1,0.9,2,"stim/14.jpeg",1,4,"stim/14.jpeg",4,"left",0.830000162,3,1,0.201000214,4,1.179000139,66,1,0,0,1,1,1
"248","stim/objects/HouseObjects/barbecuelighter.png",420,24,413,0.5,"stim/34.jpeg",3,4,1,2,"HouseObjects",1,1,"left","right",0.771999836,0,0,1,0,NA,NA,NA,NA,NA,NA,NA,NA,NA,NA,NA,NA,NA,NA,NA,NA,NA,NA,NA,NA,NA,NA,NA,NA
"319","stim/objects/HouseObjects/dustpan.png",421,24,414,0.9,"stim/23.jpeg",2,3,3,2,"HouseObjects",1,1,"left","right",0.565999985,0,0,1,0,NA,NA,NA,NA,NA,NA,NA,NA,NA,NA,NA,NA,NA,NA,NA,NA,NA,NA,NA,NA,NA,NA,NA,NA
"506","stim/objects/Instruments/frenchhorn2.png",422,24,415,0.9,"stim/11.jpeg",1,1,3,1,"Instruments",2,1,"right","left",0.523000002,0,0,1,0,181,24,1,0.9,2,"stim/11.jpeg",1,1,"stim/11.jpeg",1,"left",0.81400013,4,3,0.627000332,2,0.344000101,181,1,0,0,0,0,1
"348","stim/objects/HouseObjects/garbagebin.png",423,24,416,0.9,"stim/24.jpeg",2,4,3,2,"HouseObjects",1,1,"left","left",0.717999935,1,1,1,0,NA,NA,NA,NA,NA,NA,NA,NA,NA,NA,NA,NA,NA,NA,NA,NA,NA,NA,NA,NA,NA,NA,NA,NA
"398","stim/objects/HouseObjects/pitcher.png",424,24,417,0.3,"stim/52.jpeg",5,2,2,1,"HouseObjects",1,2,"left","right",0.817000151,0,0,1,0,20,24,1,0.3,1,"stim/52.jpeg",5,2,"stim/52.jpeg",2,"right",1.09400034,2,3,0.468000174,2,0.519000053,20,0,0,NA,1,NA,1
"513","stim/objects/Instruments/gong.png",425,24,418,0.9,"stim/11.jpeg",1,1,3,2,"Instruments",2,4,"right","right",0.696999788,1,1,1,0,NA,NA,NA,NA,NA,NA,NA,NA,NA,NA,NA,NA,NA,NA,NA,NA,NA,NA,NA,NA,NA,NA,NA,NA
"289","stim/objects/HouseObjects/dishsoap.png",426,24,419,0.7,"stim/62.jpeg",6,2,2,2,"HouseObjects",1,1,"left","left",0.651000023,1,1,1,0,NA,NA,NA,NA,NA,NA,NA,NA,NA,NA,NA,NA,NA,NA,NA,NA,NA,NA,NA,NA,NA,NA,NA,NA
"382","stim/objects/HouseObjects/handvacuum.png",427,24,420,0.5,"stim/32.jpeg",3,2,1,1,"HouseObjects",1,2,"left","",NA,0,0,1,0,12,24,1,0.5,1,"stim/32.jpeg",3,2,"stim/32.jpeg",2,"left",0.90500021,4,1,1.431000233,2,1.813000202,12,1,0,0,1,1,1
"564","stim/objects/Instruments/oboe2.png",428,24,421,0.1,"stim/21.jpeg",2,1,3,1,"Instruments",2,4,"right","left",0.558999777,0,0,1,0,3,24,1,0.1,2,"stim/21.jpeg",2,1,"stim/21.jpeg",4,"left",0.934999943,3,2,6.358000278,2,3.228000164,3,1,0,0,0,0,1
"501","stim/objects/Instruments/frenchhorn.png",429,24,422,0.9,"stim/14.jpeg",1,4,3,2,"Instruments",2,4,"right","right",0.694000006,1,1,1,0,NA,NA,NA,NA,NA,NA,NA,NA,NA,NA,NA,NA,NA,NA,NA,NA,NA,NA,NA,NA,NA,NA,NA,NA
"536","stim/objects/Instruments/grandpiano.png",430,24,423,0.9,"stim/14.jpeg",1,4,3,2,"Instruments",2,4,"right","right",0.513000011,1,1,1,0,NA,NA,NA,NA,NA,NA,NA,NA,NA,NA,NA,NA,NA,NA,NA,NA,NA,NA,NA,NA,NA,NA,NA,NA
"355","stim/objects/HouseObjects/garbagebin.png",431,24,424,0.9,"stim/22.jpeg",2,2,3,2,"HouseObjects",1,2,"left","left",0.575999975,1,1,1,0,NA,NA,NA,NA,NA,NA,NA,NA,NA,NA,NA,NA,NA,NA,NA,NA,NA,NA,NA,NA,NA,NA,NA,NA
"392","stim/objects/HouseObjects/lintroller.png",432,24,425,0.5,"stim/44.jpeg",4,4,1,1,"HouseObjects",1,1,"left","right",0.690999746,0,0,1,0,105,24,1,0.5,2,"stim/44.jpeg",4,4,"stim/44.jpeg",1,"left",0.917000055,1,2,0.393000126,1,0.81400013,105,1,0,0,1,1,1
"537","stim/objects/Instruments/grandpiano.png",433,24,426,0.9,"stim/14.jpeg",1,4,3,2,"Instruments",2,2,"right","right",0.516000032,1,1,1,0,NA,NA,NA,NA,NA,NA,NA,NA,NA,NA,NA,NA,NA,NA,NA,NA,NA,NA,NA,NA,NA,NA,NA,NA
"449","stim/objects/Instruments/electricdrumset.png",434,24,427,0.7,"stim/54.jpeg",5,4,2,2,"Instruments",2,1,"right","right",0.595000029,1,1,1,0,NA,NA,NA,NA,NA,NA,NA,NA,NA,NA,NA,NA,NA,NA,NA,NA,NA,NA,NA,NA,NA,NA,NA,NA
"305","stim/objects/HouseObjects/doormat.png",435,24,428,0.9,"stim/24.jpeg",2,4,3,2,"HouseObjects",1,3,"left","left",0.600999832,1,1,1,0,NA,NA,NA,NA,NA,NA,NA,NA,NA,NA,NA,NA,NA,NA,NA,NA,NA,NA,NA,NA,NA,NA,NA,NA
"467","stim/objects/Instruments/flute.png",436,24,429,0.9,"stim/11.jpeg",1,1,3,2,"Instruments",2,1,"right","right",0.551999807,1,1,1,0,NA,NA,NA,NA,NA,NA,NA,NA,NA,NA,NA,NA,NA,NA,NA,NA,NA,NA,NA,NA,NA,NA,NA,NA
"278","stim/objects/HouseObjects/clothespin2.png",437,24,430,0.7,"stim/62.jpeg",6,2,2,1,"HouseObjects",1,4,"left","left",0.555000067,1,1,1,0,85,24,1,0.7,1,"stim/62.jpeg",6,2,"stim/62.jpeg",4,"left",0.766000032,3,2,0.36400032,1,0.317000151,85,1,1,1,0,0,1
"425","stim/objects/Instruments/cello.png",438,24,431,0.5,"stim/43.jpeg",4,3,1,2,"Instruments",2,2,"right","",NA,0,0,1,0,NA,NA,NA,NA,NA,NA,NA,NA,NA,NA,NA,NA,NA,NA,NA,NA,NA,NA,NA,NA,NA,NA,NA,NA
"269","stim/objects/HouseObjects/clock.png",439,24,432,0.5,"stim/43.jpeg",4,3,1,2,"HouseObjects",1,1,"left","left",0.553999901,1,1,1,0,NA,NA,NA,NA,NA,NA,NA,NA,NA,NA,NA,NA,NA,NA,NA,NA,NA,NA,NA,NA,NA,NA,NA,NA
"400","stim/objects/HouseObjects/recyclingbin.png",440,24,433,0.3,"stim/53.jpeg",5,3,2,1,"HouseObjects",1,1,"left","right",0.621999979,0,0,1,0,119,24,1,0.3,1,"stim/53.jpeg",5,3,"stim/53.jpeg",1,"left",0.69900012,2,1,0.508000135,4,0.510000229,119,1,0,0,0,0,1
"500","stim/objects/Instruments/frenchhorn.png",441,24,434,0.9,"stim/14.jpeg",1,4,3,2,"Instruments",2,1,"right","right",0.485999823,1,1,1,0,NA,NA,NA,NA,NA,NA,NA,NA,NA,NA,NA,NA,NA,NA,NA,NA,NA,NA,NA,NA,NA,NA,NA,NA
"321","stim/objects/HouseObjects/dustpan.png",442,24,435,0.9,"stim/24.jpeg",2,4,3,2,"HouseObjects",1,1,"left","left",0.676999807,1,1,1,0,NA,NA,NA,NA,NA,NA,NA,NA,NA,NA,NA,NA,NA,NA,NA,NA,NA,NA,NA,NA,NA,NA,NA,NA
"401","stim/objects/HouseObjects/recyclingbin2.png",443,24,436,0.9,"stim/24.jpeg",2,4,3,1,"HouseObjects",1,1,"left","left",0.505999804,1,1,1,0,81,24,1,0.9,1,"stim/24.jpeg",2,4,"stim/24.jpeg",1,"left",1.105000019,2,3,0.327000141,1,0.570000172,81,1,0,0,1,1,1
"519","stim/objects/Instruments/gong.png",444,24,437,0.9,"stim/14.jpeg",1,4,3,2,"Instruments",2,4,"right","right",0.61500001,1,1,1,0,NA,NA,NA,NA,NA,NA,NA,NA,NA,NA,NA,NA,NA,NA,NA,NA,NA,NA,NA,NA,NA,NA,NA,NA
"354","stim/objects/HouseObjects/garbagebin.png",445,24,438,0.9,"stim/21.jpeg",2,1,3,2,"HouseObjects",1,3,"left","left",0.546000004,1,1,1,0,NA,NA,NA,NA,NA,NA,NA,NA,NA,NA,NA,NA,NA,NA,NA,NA,NA,NA,NA,NA,NA,NA,NA,NA
"487","stim/objects/Instruments/flutetrans.png",446,24,439,0.9,"stim/12.jpeg",1,2,3,2,"Instruments",2,4,"right","right",0.682999849,1,1,1,0,NA,NA,NA,NA,NA,NA,NA,NA,NA,NA,NA,NA,NA,NA,NA,NA,NA,NA,NA,NA,NA,NA,NA,NA
"339","stim/objects/HouseObjects/flyswatter.png",447,24,440,0.9,"stim/24.jpeg",2,4,3,2,"HouseObjects",1,3,"left","left",0.490999937,1,1,1,0,NA,NA,NA,NA,NA,NA,NA,NA,NA,NA,NA,NA,NA,NA,NA,NA,NA,NA,NA,NA,NA,NA,NA,NA
"488","stim/objects/Instruments/flutetrans.png",448,24,441,0.9,"stim/12.jpeg",1,2,3,2,"Instruments",2,1,"right","right",0.618000031,1,1,1,0,NA,NA,NA,NA,NA,NA,NA,NA,NA,NA,NA,NA,NA,NA,NA,NA,NA,NA,NA,NA,NA,NA,NA,NA
"245","stim/objects/HouseObjects/ballofstring.png",449,24,442,0.5,"stim/33.jpeg",3,3,1,2,"HouseObjects",1,1,"left","right",0.66899991,0,0,1,0,NA,NA,NA,NA,NA,NA,NA,NA,NA,NA,NA,NA,NA,NA,NA,NA,NA,NA,NA,NA,NA,NA,NA,NA
"350","stim/objects/HouseObjects/garbagebin.png",450,24,443,0.9,"stim/24.jpeg",2,4,3,2,"HouseObjects",1,1,"left","left",0.619999886,1,1,1,0,NA,NA,NA,NA,NA,NA,NA,NA,NA,NA,NA,NA,NA,NA,NA,NA,NA,NA,NA,NA,NA,NA,NA,NA
"268","stim/objects/HouseObjects/clock.png",451,24,444,0.5,"stim/44.jpeg",4,4,1,2,"HouseObjects",1,1,"left","right",0.772000074,0,0,1,0,NA,NA,NA,NA,NA,NA,NA,NA,NA,NA,NA,NA,NA,NA,NA,NA,NA,NA,NA,NA,NA,NA,NA,NA
"430","stim/objects/Instruments/clarinet.png",452,24,445,0.5,"stim/41.jpeg",4,1,1,2,"Instruments",2,4,"right","right",0.661000013,1,1,1,0,NA,NA,NA,NA,NA,NA,NA,NA,NA,NA,NA,NA,NA,NA,NA,NA,NA,NA,NA,NA,NA,NA,NA,NA
"428","stim/objects/Instruments/chime.png",453,24,446,0.5,"stim/44.jpeg",4,4,1,2,"Instruments",2,1,"right","right",0.625999928,1,1,1,0,NA,NA,NA,NA,NA,NA,NA,NA,NA,NA,NA,NA,NA,NA,NA,NA,NA,NA,NA,NA,NA,NA,NA,NA
"518","stim/objects/Instruments/gong.png",454,24,447,0.9,"stim/12.jpeg",1,2,3,2,"Instruments",2,4,"right","right",0.586999893,1,1,1,0,NA,NA,NA,NA,NA,NA,NA,NA,NA,NA,NA,NA,NA,NA,NA,NA,NA,NA,NA,NA,NA,NA,NA,NA
"375","stim/objects/HouseObjects/glass2.png",455,24,448,0.1,"stim/11.jpeg",1,1,3,1,"HouseObjects",1,4,"left","right",0.53399992,0,0,1,0,194,24,1,0.1,1,"stim/11.jpeg",1,1,"stim/11.jpeg",4,"right",0.752000332,3,1,1.193000078,2,0.293000221,194,0,1,NA,0,NA,1
"542","stim/objects/Instruments/guitarcase2.png",456,24,449,0.9,"stim/14.jpeg",1,4,3,1,"Instruments",2,4,"right","right",0.559999943,1,1,1,0,162,24,1,0.9,2,"stim/14.jpeg",1,4,"stim/14.jpeg",4,"left",0.667000294,3,4,0.475000143,2,0.357000351,162,1,1,1,0,0,1
"530","stim/objects/Instruments/grandpiano.png",457,24,450,0.9,"stim/12.jpeg",1,2,3,2,"Instruments",2,2,"right","right",0.523000002,1,1,1,0,NA,NA,NA,NA,NA,NA,NA,NA,NA,NA,NA,NA,NA,NA,NA,NA,NA,NA,NA,NA,NA,NA,NA,NA
"445","stim/objects/Instruments/drums.png",458,24,451,0.7,"stim/51.jpeg",5,1,2,2,"Instruments",2,2,"right","right",0.748999834,1,1,1,0,NA,NA,NA,NA,NA,NA,NA,NA,NA,NA,NA,NA,NA,NA,NA,NA,NA,NA,NA,NA,NA,NA,NA,NA
"284","stim/objects/HouseObjects/cushion.png",459,24,452,0.7,"stim/64.jpeg",6,4,2,2,"HouseObjects",1,3,"left","left",0.602999926,1,1,1,0,NA,NA,NA,NA,NA,NA,NA,NA,NA,NA,NA,NA,NA,NA,NA,NA,NA,NA,NA,NA,NA,NA,NA,NA
"241","stim/objects/HouseObjects/ashtray.png",460,24,453,0.5,"stim/32.jpeg",3,2,1,2,"HouseObjects",1,2,"left","right",0.592999935,0,0,1,0,NA,NA,NA,NA,NA,NA,NA,NA,NA,NA,NA,NA,NA,NA,NA,NA,NA,NA,NA,NA,NA,NA,NA,NA
"570","stim/objects/Instruments/record2.png",461,24,454,0.1,"stim/24.jpeg",2,4,3,1,"Instruments",2,3,"right","left",0.558999777,0,0,1,0,154,24,1,0.1,2,"stim/24.jpeg",2,4,"stim/24.jpeg",3,"left",1.918000221,2,3,0.446000099,1,0.343000174,154,1,0,0,0,0,1
"531","stim/objects/Instruments/grandpiano.png",462,24,455,0.9,"stim/12.jpeg",1,2,3,2,"Instruments",2,3,"right","right",0.718999863,1,1,1,0,NA,NA,NA,NA,NA,NA,NA,NA,NA,NA,NA,NA,NA,NA,NA,NA,NA,NA,NA,NA,NA,NA,NA,NA
"318","stim/objects/HouseObjects/dustpan.png",463,24,456,0.9,"stim/22.jpeg",2,2,3,2,"HouseObjects",1,3,"left","left",0.57799983,1,1,1,0,NA,NA,NA,NA,NA,NA,NA,NA,NA,NA,NA,NA,NA,NA,NA,NA,NA,NA,NA,NA,NA,NA,NA,NA
"369","stim/objects/HouseObjects/glass.png",464,24,457,0.9,"stim/23.jpeg",2,3,3,2,"HouseObjects",1,3,"left","left",0.727999926,1,1,1,0,NA,NA,NA,NA,NA,NA,NA,NA,NA,NA,NA,NA,NA,NA,NA,NA,NA,NA,NA,NA,NA,NA,NA,NA
"255","stim/objects/HouseObjects/bleachbottle2.png",465,24,458,0.3,"stim/52.jpeg",5,2,2,1,"HouseObjects",1,4,"left","left",0.741999865,1,1,1,0,33,24,1,0.3,1,"stim/52.jpeg",5,2,"stim/52.jpeg",4,"left",0.818000078,3,4,0.285000086,2,0.296000242,33,1,0,0,0,0,1
"388","stim/objects/HouseObjects/key.png",466,24,459,0.5,"stim/42.jpeg",4,2,1,1,"HouseObjects",1,4,"left","right",0.606999874,0,0,1,0,58,24,1,0.5,2,"stim/42.jpeg",4,2,"stim/42.jpeg",4,"right",0.813000202,1,3,0.148000002,4,1.101000071,58,0,0,NA,1,NA,1
