"","obj_file","X.x","participant.x","trialN.x","trial_cond","scn_file.x","scn_cat","scn_inst","scn_condition","fillers","obj_cat","obj_cat_num","quadrant","corr_ans","key_resp_trial.keys","key_resp_trial.rt","trial_acc","trial_acc_manual","group.x","practice","X.y","participant.y","OvsN","PE_level","object_cat","scn_file.y","corr_scn_cat","corr_scn_inst","scn_file.1","corr_loc","key_resp_id.keys","key_resp_id.rt","key_resp_conf.keys","key_resp_assoc.keys","key_resp_assoc.rt","key_resp_loc.keys","key_resp_loc.rt","trialN.y","id_acc","assoc.acc","cond_assoc","loc.acc","cond_loc","group.y"
"67","stim/objects/HouseObjects/pitcher.png",1,22,1,0.5,"stim/64.jpeg",6,4,1,NA,"HouseObjects",1,3,"left","",NA,0,0,1,1,NA,NA,NA,NA,NA,NA,NA,NA,NA,NA,NA,NA,NA,NA,NA,NA,NA,NA,NA,NA,NA,NA,NA,NA
"121","stim/objects/Instruments/keyboard.png",2,22,2,0.5,"stim/51.jpeg",5,1,1,NA,"Instruments",2,4,"right","right",0.748999834,1,1,1,1,NA,NA,NA,NA,NA,NA,NA,NA,NA,NA,NA,NA,NA,NA,NA,NA,NA,NA,NA,NA,NA,NA,NA,NA
"42","stim/objects/HouseObjects/knife2.png",3,22,3,0.7,"stim/24.jpeg",2,4,2,NA,"HouseObjects",1,3,"left","left",0.736000061,1,1,1,1,NA,NA,NA,NA,NA,NA,NA,NA,NA,NA,NA,NA,NA,NA,NA,NA,NA,NA,NA,NA,NA,NA,NA,NA
"122","stim/objects/Instruments/keyboard.png",4,22,4,0.5,"stim/51.jpeg",5,1,1,NA,"Instruments",2,4,"right","right",0.775000095,1,1,1,1,NA,NA,NA,NA,NA,NA,NA,NA,NA,NA,NA,NA,NA,NA,NA,NA,NA,NA,NA,NA,NA,NA,NA,NA
"30","stim/objects/HouseObjects/key2.png",5,22,5,0.7,"stim/23.jpeg",2,3,2,NA,"HouseObjects",1,4,"left","left",0.682999849,1,1,1,1,NA,NA,NA,NA,NA,NA,NA,NA,NA,NA,NA,NA,NA,NA,NA,NA,NA,NA,NA,NA,NA,NA,NA,NA
"76","stim/objects/HouseObjects/recyclingbin2.png",6,22,6,0.9,"stim/41.jpeg",4,1,3,NA,"HouseObjects",1,1,"left","left",0.737999916,1,1,1,1,NA,NA,NA,NA,NA,NA,NA,NA,NA,NA,NA,NA,NA,NA,NA,NA,NA,NA,NA,NA,NA,NA,NA,NA
"225","stim/objects/Instruments/record_player.png",7,22,7,0.7,"stim/14.jpeg",1,4,2,NA,"Instruments",2,4,"right","right",0.639999866,1,1,1,1,NA,NA,NA,NA,NA,NA,NA,NA,NA,NA,NA,NA,NA,NA,NA,NA,NA,NA,NA,NA,NA,NA,NA,NA
"112","stim/objects/HouseObjects/rug2.png",8,22,8,0.9,"stim/44.jpeg",4,4,3,NA,"HouseObjects",1,1,"left","left",0.637000084,1,1,1,1,NA,NA,NA,NA,NA,NA,NA,NA,NA,NA,NA,NA,NA,NA,NA,NA,NA,NA,NA,NA,NA,NA,NA,NA
"31","stim/objects/HouseObjects/key2.png",9,22,9,0.7,"stim/23.jpeg",2,3,2,NA,"HouseObjects",1,1,"left","left",0.589999914,1,1,1,1,NA,NA,NA,NA,NA,NA,NA,NA,NA,NA,NA,NA,NA,NA,NA,NA,NA,NA,NA,NA,NA,NA,NA,NA
"158","stim/objects/Instruments/metronome2.png",10,22,10,0.9,"stim/31.jpeg",3,1,3,NA,"Instruments",2,4,"right","right",0.634999752,1,1,1,1,NA,NA,NA,NA,NA,NA,NA,NA,NA,NA,NA,NA,NA,NA,NA,NA,NA,NA,NA,NA,NA,NA,NA,NA
"73","stim/objects/HouseObjects/recyclingbin.png",11,22,11,0.3,"stim/11.jpeg",1,1,2,NA,"HouseObjects",1,1,"left","left",0.622999907,1,1,1,1,NA,NA,NA,NA,NA,NA,NA,NA,NA,NA,NA,NA,NA,NA,NA,NA,NA,NA,NA,NA,NA,NA,NA,NA
"209","stim/objects/Instruments/panflute.png",12,22,12,0.7,"stim/11.jpeg",1,1,2,NA,"Instruments",2,3,"right","",NA,0,0,1,1,NA,NA,NA,NA,NA,NA,NA,NA,NA,NA,NA,NA,NA,NA,NA,NA,NA,NA,NA,NA,NA,NA,NA,NA
"145","stim/objects/Instruments/marimba.png",13,22,13,0.5,"stim/54.jpeg",5,4,1,NA,"Instruments",2,4,"right","right",0.775000095,1,1,1,1,NA,NA,NA,NA,NA,NA,NA,NA,NA,NA,NA,NA,NA,NA,NA,NA,NA,NA,NA,NA,NA,NA,NA,NA
"32","stim/objects/HouseObjects/key2.png",14,22,14,0.7,"stim/23.jpeg",2,3,2,NA,"HouseObjects",1,2,"left","left",0.593999863,1,1,1,1,NA,NA,NA,NA,NA,NA,NA,NA,NA,NA,NA,NA,NA,NA,NA,NA,NA,NA,NA,NA,NA,NA,NA,NA
"60","stim/objects/HouseObjects/match2.png",15,22,15,0.1,"stim/32.jpeg",3,2,3,NA,"HouseObjects",1,4,"left","right",0.641000032,0,0,1,1,NA,NA,NA,NA,NA,NA,NA,NA,NA,NA,NA,NA,NA,NA,NA,NA,NA,NA,NA,NA,NA,NA,NA,NA
"77","stim/objects/HouseObjects/recyclingbin2.png",16,22,16,0.9,"stim/41.jpeg",4,1,3,NA,"HouseObjects",1,1,"left","left",0.547999859,1,1,1,1,NA,NA,NA,NA,NA,NA,NA,NA,NA,NA,NA,NA,NA,NA,NA,NA,NA,NA,NA,NA,NA,NA,NA,NA
"61","stim/objects/HouseObjects/pan.png",17,22,17,0.5,"stim/63.jpeg",6,3,1,NA,"HouseObjects",1,3,"left","right",0.648999691,0,0,1,1,NA,NA,NA,NA,NA,NA,NA,NA,NA,NA,NA,NA,NA,NA,NA,NA,NA,NA,NA,NA,NA,NA,NA,NA
"100","stim/objects/HouseObjects/rubbergloves2.png",18,22,18,0.9,"stim/43.jpeg",4,3,3,NA,"HouseObjects",1,2,"left","left",0.551999807,1,1,1,1,NA,NA,NA,NA,NA,NA,NA,NA,NA,NA,NA,NA,NA,NA,NA,NA,NA,NA,NA,NA,NA,NA,NA,NA
"200","stim/objects/Instruments/oboe2.png",19,22,19,0.9,"stim/34.jpeg",3,4,3,NA,"Instruments",2,4,"right","right",0.573999882,1,1,1,1,NA,NA,NA,NA,NA,NA,NA,NA,NA,NA,NA,NA,NA,NA,NA,NA,NA,NA,NA,NA,NA,NA,NA,NA
"101","stim/objects/HouseObjects/rubbergloves2.png",20,22,20,0.9,"stim/43.jpeg",4,3,3,NA,"HouseObjects",1,3,"left","left",0.493000031,1,1,1,1,NA,NA,NA,NA,NA,NA,NA,NA,NA,NA,NA,NA,NA,NA,NA,NA,NA,NA,NA,NA,NA,NA,NA,NA
"43","stim/objects/HouseObjects/knife2.png",21,22,21,0.7,"stim/24.jpeg",2,4,2,NA,"HouseObjects",1,4,"left","right",0.507999897,0,0,1,1,NA,NA,NA,NA,NA,NA,NA,NA,NA,NA,NA,NA,NA,NA,NA,NA,NA,NA,NA,NA,NA,NA,NA,NA
"153","stim/objects/Instruments/metronome.png",22,22,22,0.5,"stim/61.jpeg",6,1,1,NA,"Instruments",2,1,"right","right",0.725999832,1,1,1,1,NA,NA,NA,NA,NA,NA,NA,NA,NA,NA,NA,NA,NA,NA,NA,NA,NA,NA,NA,NA,NA,NA,NA,NA
"126","stim/objects/Instruments/keyboard2.png",23,22,23,0.3,"stim/21.jpeg",2,1,2,NA,"Instruments",2,2,"right","right",0.828999996,1,1,1,1,NA,NA,NA,NA,NA,NA,NA,NA,NA,NA,NA,NA,NA,NA,NA,NA,NA,NA,NA,NA,NA,NA,NA,NA
"123","stim/objects/Instruments/keyboard.png",24,22,24,0.5,"stim/51.jpeg",5,1,1,NA,"Instruments",2,1,"right","right",0.861000061,1,1,1,1,NA,NA,NA,NA,NA,NA,NA,NA,NA,NA,NA,NA,NA,NA,NA,NA,NA,NA,NA,NA,NA,NA,NA,NA
"210","stim/objects/Instruments/panflute.png",25,22,25,0.7,"stim/11.jpeg",1,1,2,NA,"Instruments",2,2,"right","right",0.595999956,1,1,1,1,NA,NA,NA,NA,NA,NA,NA,NA,NA,NA,NA,NA,NA,NA,NA,NA,NA,NA,NA,NA,NA,NA,NA,NA
"159","stim/objects/Instruments/metronome2.png",26,22,26,0.9,"stim/31.jpeg",3,1,3,NA,"Instruments",2,1,"right","right",0.665999889,1,1,1,1,NA,NA,NA,NA,NA,NA,NA,NA,NA,NA,NA,NA,NA,NA,NA,NA,NA,NA,NA,NA,NA,NA,NA,NA
"109","stim/objects/HouseObjects/rug.png",27,22,27,0.3,"stim/14.jpeg",1,4,2,NA,"HouseObjects",1,2,"left","right",0.698999882,0,0,1,1,NA,NA,NA,NA,NA,NA,NA,NA,NA,NA,NA,NA,NA,NA,NA,NA,NA,NA,NA,NA,NA,NA,NA,NA
"181","stim/objects/Instruments/musicstand.png",28,22,28,0.5,"stim/63.jpeg",6,3,1,NA,"Instruments",2,1,"right","right",0.696999788,1,1,1,1,NA,NA,NA,NA,NA,NA,NA,NA,NA,NA,NA,NA,NA,NA,NA,NA,NA,NA,NA,NA,NA,NA,NA,NA
"49","stim/objects/HouseObjects/lintroller.png",29,22,29,0.5,"stim/61.jpeg",6,1,1,NA,"HouseObjects",1,1,"left","right",0.726999998,0,0,1,1,NA,NA,NA,NA,NA,NA,NA,NA,NA,NA,NA,NA,NA,NA,NA,NA,NA,NA,NA,NA,NA,NA,NA,NA
"129","stim/objects/Instruments/laud.png",30,22,30,0.5,"stim/52.jpeg",5,2,1,NA,"Instruments",2,4,"right","",NA,0,0,1,1,NA,NA,NA,NA,NA,NA,NA,NA,NA,NA,NA,NA,NA,NA,NA,NA,NA,NA,NA,NA,NA,NA,NA,NA
"167","stim/objects/Instruments/musicsheet.png",31,22,31,0.5,"stim/62.jpeg",6,2,1,NA,"Instruments",2,2,"right","right",0.661999941,1,1,1,1,NA,NA,NA,NA,NA,NA,NA,NA,NA,NA,NA,NA,NA,NA,NA,NA,NA,NA,NA,NA,NA,NA,NA,NA
"217","stim/objects/Instruments/pipepiano.png",32,22,32,0.7,"stim/12.jpeg",1,2,2,NA,"Instruments",2,1,"right","right",0.626999855,1,1,1,1,NA,NA,NA,NA,NA,NA,NA,NA,NA,NA,NA,NA,NA,NA,NA,NA,NA,NA,NA,NA,NA,NA,NA,NA
"55","stim/objects/HouseObjects/match.png",33,22,33,0.5,"stim/62.jpeg",6,2,1,NA,"HouseObjects",1,1,"left","right",0.624999762,0,0,1,1,NA,NA,NA,NA,NA,NA,NA,NA,NA,NA,NA,NA,NA,NA,NA,NA,NA,NA,NA,NA,NA,NA,NA,NA
"78","stim/objects/HouseObjects/recyclingbin2.png",34,22,34,0.9,"stim/41.jpeg",4,1,3,NA,"HouseObjects",1,2,"left","left",0.546000004,1,1,1,1,NA,NA,NA,NA,NA,NA,NA,NA,NA,NA,NA,NA,NA,NA,NA,NA,NA,NA,NA,NA,NA,NA,NA,NA
"224","stim/objects/Instruments/pipepiano2.png",35,22,35,0.1,"stim/42.jpeg",4,2,3,NA,"Instruments",2,3,"right","left",0.592999935,0,0,1,1,NA,NA,NA,NA,NA,NA,NA,NA,NA,NA,NA,NA,NA,NA,NA,NA,NA,NA,NA,NA,NA,NA,NA,NA
"37","stim/objects/HouseObjects/knife.png",36,22,36,0.5,"stim/54.jpeg",5,4,1,NA,"HouseObjects",1,4,"left","right",0.59100008,0,0,1,1,NA,NA,NA,NA,NA,NA,NA,NA,NA,NA,NA,NA,NA,NA,NA,NA,NA,NA,NA,NA,NA,NA,NA,NA
"85","stim/objects/HouseObjects/remote.png",37,22,37,0.3,"stim/12.jpeg",1,2,2,NA,"HouseObjects",1,1,"left","right",0.730000019,0,0,1,1,NA,NA,NA,NA,NA,NA,NA,NA,NA,NA,NA,NA,NA,NA,NA,NA,NA,NA,NA,NA,NA,NA,NA,NA
"44","stim/objects/HouseObjects/knife2.png",38,22,38,0.7,"stim/24.jpeg",2,4,2,NA,"HouseObjects",1,2,"left","left",0.715999842,1,1,1,1,NA,NA,NA,NA,NA,NA,NA,NA,NA,NA,NA,NA,NA,NA,NA,NA,NA,NA,NA,NA,NA,NA,NA,NA
"45","stim/objects/HouseObjects/knife2.png",39,22,39,0.7,"stim/24.jpeg",2,4,2,NA,"HouseObjects",1,3,"left","left",0.465999842,1,1,1,1,NA,NA,NA,NA,NA,NA,NA,NA,NA,NA,NA,NA,NA,NA,NA,NA,NA,NA,NA,NA,NA,NA,NA,NA
"102","stim/objects/HouseObjects/rubbergloves2.png",40,22,40,0.9,"stim/43.jpeg",4,3,3,NA,"HouseObjects",1,1,"left","left",0.613999844,1,1,1,1,NA,NA,NA,NA,NA,NA,NA,NA,NA,NA,NA,NA,NA,NA,NA,NA,NA,NA,NA,NA,NA,NA,NA,NA
"62","stim/objects/HouseObjects/pan.png",41,22,41,0.5,"stim/63.jpeg",6,3,1,NA,"HouseObjects",1,4,"left","right",0.528999805,0,0,1,1,NA,NA,NA,NA,NA,NA,NA,NA,NA,NA,NA,NA,NA,NA,NA,NA,NA,NA,NA,NA,NA,NA,NA,NA
"127","stim/objects/Instruments/keyboard2.png",42,22,42,0.3,"stim/21.jpeg",2,1,2,NA,"Instruments",2,4,"right","left",0.544999838,0,0,1,1,NA,NA,NA,NA,NA,NA,NA,NA,NA,NA,NA,NA,NA,NA,NA,NA,NA,NA,NA,NA,NA,NA,NA,NA
"6","stim/objects/HouseObjects/iron2.png",43,22,43,0.7,"stim/21.jpeg",2,1,2,NA,"HouseObjects",1,1,"left","left",0.546000004,1,1,1,1,NA,NA,NA,NA,NA,NA,NA,NA,NA,NA,NA,NA,NA,NA,NA,NA,NA,NA,NA,NA,NA,NA,NA,NA
"1","stim/objects/HouseObjects/iron.png",44,22,44,0.5,"stim/51.jpeg",5,1,1,NA,"HouseObjects",1,1,"left","left",0.555999756,1,1,1,1,NA,NA,NA,NA,NA,NA,NA,NA,NA,NA,NA,NA,NA,NA,NA,NA,NA,NA,NA,NA,NA,NA,NA,NA
"186","stim/objects/Instruments/musicstand2.png",45,22,45,0.9,"stim/33.jpeg",3,3,3,NA,"Instruments",2,2,"right","right",0.603999853,1,1,1,1,NA,NA,NA,NA,NA,NA,NA,NA,NA,NA,NA,NA,NA,NA,NA,NA,NA,NA,NA,NA,NA,NA,NA,NA
"56","stim/objects/HouseObjects/match.png",46,22,46,0.5,"stim/62.jpeg",6,2,1,NA,"HouseObjects",1,1,"left","right",0.647999763,0,0,1,1,NA,NA,NA,NA,NA,NA,NA,NA,NA,NA,NA,NA,NA,NA,NA,NA,NA,NA,NA,NA,NA,NA,NA,NA
"38","stim/objects/HouseObjects/knife.png",47,22,47,0.5,"stim/54.jpeg",5,4,1,NA,"HouseObjects",1,3,"left","left",0.546000004,1,1,1,1,NA,NA,NA,NA,NA,NA,NA,NA,NA,NA,NA,NA,NA,NA,NA,NA,NA,NA,NA,NA,NA,NA,NA,NA
"33","stim/objects/HouseObjects/key2.png",48,22,48,0.7,"stim/23.jpeg",2,3,2,NA,"HouseObjects",1,3,"left","left",0.63499999,1,1,1,1,NA,NA,NA,NA,NA,NA,NA,NA,NA,NA,NA,NA,NA,NA,NA,NA,NA,NA,NA,NA,NA,NA,NA,NA
"146","stim/objects/Instruments/marimba.png",49,22,49,0.5,"stim/54.jpeg",5,4,1,NA,"Instruments",2,3,"right","left",0.679999828,0,0,1,1,NA,NA,NA,NA,NA,NA,NA,NA,NA,NA,NA,NA,NA,NA,NA,NA,NA,NA,NA,NA,NA,NA,NA,NA
"160","stim/objects/Instruments/metronome2.png",50,22,50,0.9,"stim/31.jpeg",3,1,3,NA,"Instruments",2,3,"right","right",0.556999922,1,1,1,1,NA,NA,NA,NA,NA,NA,NA,NA,NA,NA,NA,NA,NA,NA,NA,NA,NA,NA,NA,NA,NA,NA,NA,NA
"2","stim/objects/HouseObjects/iron.png",51,22,51,0.5,"stim/51.jpeg",5,1,1,NA,"HouseObjects",1,1,"left","left",0.792999744,1,1,1,1,NA,NA,NA,NA,NA,NA,NA,NA,NA,NA,NA,NA,NA,NA,NA,NA,NA,NA,NA,NA,NA,NA,NA,NA
"161","stim/objects/Instruments/metronome2.png",52,22,52,0.9,"stim/31.jpeg",3,1,3,NA,"Instruments",2,2,"right","right",0.565999985,1,1,1,1,NA,NA,NA,NA,NA,NA,NA,NA,NA,NA,NA,NA,NA,NA,NA,NA,NA,NA,NA,NA,NA,NA,NA,NA
"134","stim/objects/Instruments/laud2.png",53,22,53,0.3,"stim/22.jpeg",2,2,2,NA,"Instruments",2,4,"right","left",0.602999926,0,0,1,1,NA,NA,NA,NA,NA,NA,NA,NA,NA,NA,NA,NA,NA,NA,NA,NA,NA,NA,NA,NA,NA,NA,NA,NA
"218","stim/objects/Instruments/pipepiano.png",54,22,54,0.7,"stim/12.jpeg",1,2,2,NA,"Instruments",2,3,"right","right",0.671999693,1,1,1,1,NA,NA,NA,NA,NA,NA,NA,NA,NA,NA,NA,NA,NA,NA,NA,NA,NA,NA,NA,NA,NA,NA,NA,NA
"187","stim/objects/Instruments/musicstand2.png",55,22,55,0.9,"stim/33.jpeg",3,3,3,NA,"Instruments",2,2,"right","right",0.628999949,1,1,1,1,NA,NA,NA,NA,NA,NA,NA,NA,NA,NA,NA,NA,NA,NA,NA,NA,NA,NA,NA,NA,NA,NA,NA,NA
"88","stim/objects/HouseObjects/remote2.png",56,22,56,0.9,"stim/42.jpeg",4,2,3,NA,"HouseObjects",1,3,"left","left",0.57799983,1,1,1,1,NA,NA,NA,NA,NA,NA,NA,NA,NA,NA,NA,NA,NA,NA,NA,NA,NA,NA,NA,NA,NA,NA,NA,NA
"113","stim/objects/HouseObjects/rug2.png",57,22,57,0.9,"stim/44.jpeg",4,4,3,NA,"HouseObjects",1,4,"left","left",0.618000031,1,1,1,1,NA,NA,NA,NA,NA,NA,NA,NA,NA,NA,NA,NA,NA,NA,NA,NA,NA,NA,NA,NA,NA,NA,NA,NA
"39","stim/objects/HouseObjects/knife.png",58,22,58,0.5,"stim/54.jpeg",5,4,1,NA,"HouseObjects",1,2,"left","right",0.566999912,0,0,1,1,NA,NA,NA,NA,NA,NA,NA,NA,NA,NA,NA,NA,NA,NA,NA,NA,NA,NA,NA,NA,NA,NA,NA,NA
"201","stim/objects/Instruments/oboe2.png",59,22,59,0.9,"stim/34.jpeg",3,4,3,NA,"Instruments",2,4,"right","right",0.556999922,1,1,1,1,NA,NA,NA,NA,NA,NA,NA,NA,NA,NA,NA,NA,NA,NA,NA,NA,NA,NA,NA,NA,NA,NA,NA,NA
"89","stim/objects/HouseObjects/remote2.png",60,22,60,0.9,"stim/42.jpeg",4,2,3,NA,"HouseObjects",1,4,"left","left",0.602999926,1,1,1,1,NA,NA,NA,NA,NA,NA,NA,NA,NA,NA,NA,NA,NA,NA,NA,NA,NA,NA,NA,NA,NA,NA,NA,NA
"188","stim/objects/Instruments/musicstand2.png",61,22,61,0.9,"stim/33.jpeg",3,3,3,NA,"Instruments",2,1,"right","right",0.893999815,1,1,1,1,NA,NA,NA,NA,NA,NA,NA,NA,NA,NA,NA,NA,NA,NA,NA,NA,NA,NA,NA,NA,NA,NA,NA,NA
"219","stim/objects/Instruments/pipepiano.png",62,22,62,0.7,"stim/12.jpeg",1,2,2,NA,"Instruments",2,2,"right","right",0.715999842,1,1,1,1,NA,NA,NA,NA,NA,NA,NA,NA,NA,NA,NA,NA,NA,NA,NA,NA,NA,NA,NA,NA,NA,NA,NA,NA
"18","stim/objects/HouseObjects/ironingboard2.png",63,22,63,0.7,"stim/22.jpeg",2,2,2,NA,"HouseObjects",1,3,"left","left",0.558000088,1,1,1,1,NA,NA,NA,NA,NA,NA,NA,NA,NA,NA,NA,NA,NA,NA,NA,NA,NA,NA,NA,NA,NA,NA,NA,NA
"50","stim/objects/HouseObjects/lintroller.png",64,22,64,0.5,"stim/61.jpeg",6,1,1,NA,"HouseObjects",1,2,"left","right",0.583999872,0,0,1,1,NA,NA,NA,NA,NA,NA,NA,NA,NA,NA,NA,NA,NA,NA,NA,NA,NA,NA,NA,NA,NA,NA,NA,NA
"137","stim/objects/Instruments/maraca.png",65,22,65,0.5,"stim/53.jpeg",5,3,1,NA,"Instruments",2,2,"right","left",0.704999924,0,0,1,1,NA,NA,NA,NA,NA,NA,NA,NA,NA,NA,NA,NA,NA,NA,NA,NA,NA,NA,NA,NA,NA,NA,NA,NA
"130","stim/objects/Instruments/laud.png",66,22,66,0.5,"stim/52.jpeg",5,2,1,NA,"Instruments",2,2,"right","",NA,0,0,1,1,NA,NA,NA,NA,NA,NA,NA,NA,NA,NA,NA,NA,NA,NA,NA,NA,NA,NA,NA,NA,NA,NA,NA,NA
"7","stim/objects/HouseObjects/iron2.png",67,22,67,0.7,"stim/21.jpeg",2,1,2,NA,"HouseObjects",1,1,"left","left",0.547999859,1,1,1,1,NA,NA,NA,NA,NA,NA,NA,NA,NA,NA,NA,NA,NA,NA,NA,NA,NA,NA,NA,NA,NA,NA,NA,NA
"189","stim/objects/Instruments/musicstand2.png",68,22,68,0.9,"stim/33.jpeg",3,3,3,NA,"Instruments",2,4,"right","right",0.565999985,1,1,1,1,NA,NA,NA,NA,NA,NA,NA,NA,NA,NA,NA,NA,NA,NA,NA,NA,NA,NA,NA,NA,NA,NA,NA,NA
"46","stim/objects/HouseObjects/knife2.png",69,22,69,0.7,"stim/24.jpeg",2,4,2,NA,"HouseObjects",1,4,"left","left",0.59499979,1,1,1,1,NA,NA,NA,NA,NA,NA,NA,NA,NA,NA,NA,NA,NA,NA,NA,NA,NA,NA,NA,NA,NA,NA,NA,NA
"142","stim/objects/Instruments/maraca2.png",70,22,70,0.3,"stim/23.jpeg",2,3,2,NA,"Instruments",2,2,"right","left",0.531999826,0,0,1,1,NA,NA,NA,NA,NA,NA,NA,NA,NA,NA,NA,NA,NA,NA,NA,NA,NA,NA,NA,NA,NA,NA,NA,NA
"19","stim/objects/HouseObjects/ironingboard2.png",71,22,71,0.7,"stim/22.jpeg",2,2,2,NA,"HouseObjects",1,3,"left","left",0.513000011,1,1,1,1,NA,NA,NA,NA,NA,NA,NA,NA,NA,NA,NA,NA,NA,NA,NA,NA,NA,NA,NA,NA,NA,NA,NA,NA
"138","stim/objects/Instruments/maraca.png",72,22,72,0.5,"stim/53.jpeg",5,3,1,NA,"Instruments",2,2,"right","left",0.865999937,0,0,1,1,NA,NA,NA,NA,NA,NA,NA,NA,NA,NA,NA,NA,NA,NA,NA,NA,NA,NA,NA,NA,NA,NA,NA,NA
"57","stim/objects/HouseObjects/match.png",73,22,73,0.5,"stim/62.jpeg",6,2,1,NA,"HouseObjects",1,3,"left","right",0.680999756,0,0,1,1,NA,NA,NA,NA,NA,NA,NA,NA,NA,NA,NA,NA,NA,NA,NA,NA,NA,NA,NA,NA,NA,NA,NA,NA
"128","stim/objects/Instruments/keyboard2.png",74,22,74,0.3,"stim/21.jpeg",2,1,2,NA,"Instruments",2,4,"right","left",0.580999851,0,0,1,1,NA,NA,NA,NA,NA,NA,NA,NA,NA,NA,NA,NA,NA,NA,NA,NA,NA,NA,NA,NA,NA,NA,NA,NA
"90","stim/objects/HouseObjects/remote2.png",75,22,75,0.9,"stim/42.jpeg",4,2,3,NA,"HouseObjects",1,3,"left","left",0.610999823,1,1,1,1,NA,NA,NA,NA,NA,NA,NA,NA,NA,NA,NA,NA,NA,NA,NA,NA,NA,NA,NA,NA,NA,NA,NA,NA
"172","stim/objects/Instruments/musicsheet2.png",76,22,76,0.9,"stim/32.jpeg",3,2,3,NA,"Instruments",2,4,"right","right",0.572999716,1,1,1,1,NA,NA,NA,NA,NA,NA,NA,NA,NA,NA,NA,NA,NA,NA,NA,NA,NA,NA,NA,NA,NA,NA,NA,NA
"68","stim/objects/HouseObjects/pitcher.png",77,22,77,0.5,"stim/64.jpeg",6,4,1,NA,"HouseObjects",1,3,"left","right",0.733999968,0,0,1,1,NA,NA,NA,NA,NA,NA,NA,NA,NA,NA,NA,NA,NA,NA,NA,NA,NA,NA,NA,NA,NA,NA,NA,NA
"150","stim/objects/Instruments/marimba2.png",78,22,78,0.3,"stim/24.jpeg",2,4,2,NA,"Instruments",2,2,"right","left",0.580999851,0,0,1,1,NA,NA,NA,NA,NA,NA,NA,NA,NA,NA,NA,NA,NA,NA,NA,NA,NA,NA,NA,NA,NA,NA,NA,NA
"139","stim/objects/Instruments/maraca.png",79,22,79,0.5,"stim/53.jpeg",5,3,1,NA,"Instruments",2,4,"right","left",0.842999935,0,0,1,1,NA,NA,NA,NA,NA,NA,NA,NA,NA,NA,NA,NA,NA,NA,NA,NA,NA,NA,NA,NA,NA,NA,NA,NA
"103","stim/objects/HouseObjects/rubbergloves2.png",80,22,80,0.9,"stim/43.jpeg",4,3,3,NA,"HouseObjects",1,2,"left","left",0.569000006,1,1,1,1,NA,NA,NA,NA,NA,NA,NA,NA,NA,NA,NA,NA,NA,NA,NA,NA,NA,NA,NA,NA,NA,NA,NA,NA
"34","stim/objects/HouseObjects/key2.png",81,22,81,0.7,"stim/23.jpeg",2,3,2,NA,"HouseObjects",1,1,"left","left",0.639999866,1,1,1,1,NA,NA,NA,NA,NA,NA,NA,NA,NA,NA,NA,NA,NA,NA,NA,NA,NA,NA,NA,NA,NA,NA,NA,NA
"131","stim/objects/Instruments/laud.png",82,22,82,0.5,"stim/52.jpeg",5,2,1,NA,"Instruments",2,2,"right","",NA,0,0,1,1,NA,NA,NA,NA,NA,NA,NA,NA,NA,NA,NA,NA,NA,NA,NA,NA,NA,NA,NA,NA,NA,NA,NA,NA
"202","stim/objects/Instruments/oboe2.png",83,22,83,0.9,"stim/34.jpeg",3,4,3,NA,"Instruments",2,2,"right","right",0.578000069,1,1,1,1,NA,NA,NA,NA,NA,NA,NA,NA,NA,NA,NA,NA,NA,NA,NA,NA,NA,NA,NA,NA,NA,NA,NA,NA
"72","stim/objects/HouseObjects/pitcher2.png",84,22,84,0.1,"stim/34.jpeg",3,4,3,NA,"HouseObjects",1,3,"left","right",0.582999945,0,0,1,1,NA,NA,NA,NA,NA,NA,NA,NA,NA,NA,NA,NA,NA,NA,NA,NA,NA,NA,NA,NA,NA,NA,NA,NA
"8","stim/objects/HouseObjects/iron2.png",85,22,85,0.7,"stim/21.jpeg",2,1,2,NA,"HouseObjects",1,2,"left","left",0.503999949,1,1,1,1,NA,NA,NA,NA,NA,NA,NA,NA,NA,NA,NA,NA,NA,NA,NA,NA,NA,NA,NA,NA,NA,NA,NA,NA
"91","stim/objects/HouseObjects/remote2.png",86,22,86,0.9,"stim/42.jpeg",4,2,3,NA,"HouseObjects",1,2,"left","left",0.532999992,1,1,1,1,NA,NA,NA,NA,NA,NA,NA,NA,NA,NA,NA,NA,NA,NA,NA,NA,NA,NA,NA,NA,NA,NA,NA,NA
"190","stim/objects/Instruments/musicstand2.png",87,22,87,0.9,"stim/33.jpeg",3,3,3,NA,"Instruments",2,2,"right","right",0.864999771,1,1,1,1,NA,NA,NA,NA,NA,NA,NA,NA,NA,NA,NA,NA,NA,NA,NA,NA,NA,NA,NA,NA,NA,NA,NA,NA
"20","stim/objects/HouseObjects/ironingboard2.png",88,22,88,0.7,"stim/22.jpeg",2,2,2,NA,"HouseObjects",1,3,"left","left",0.458999872,1,1,1,1,NA,NA,NA,NA,NA,NA,NA,NA,NA,NA,NA,NA,NA,NA,NA,NA,NA,NA,NA,NA,NA,NA,NA,NA
"173","stim/objects/Instruments/musicsheet2.png",89,22,89,0.9,"stim/32.jpeg",3,2,3,NA,"Instruments",2,3,"right","right",0.583999872,1,1,1,1,NA,NA,NA,NA,NA,NA,NA,NA,NA,NA,NA,NA,NA,NA,NA,NA,NA,NA,NA,NA,NA,NA,NA,NA
"154","stim/objects/Instruments/metronome.png",90,22,90,0.5,"stim/61.jpeg",6,1,1,NA,"Instruments",2,3,"right","",NA,0,0,1,1,NA,NA,NA,NA,NA,NA,NA,NA,NA,NA,NA,NA,NA,NA,NA,NA,NA,NA,NA,NA,NA,NA,NA,NA
"79","stim/objects/HouseObjects/recyclingbin2.png",91,22,91,0.9,"stim/41.jpeg",4,1,3,NA,"HouseObjects",1,1,"left","left",0.585999966,1,1,1,1,NA,NA,NA,NA,NA,NA,NA,NA,NA,NA,NA,NA,NA,NA,NA,NA,NA,NA,NA,NA,NA,NA,NA,NA
"233","stim/objects/Instruments/record.png",92,22,92,0.7,"stim/13.jpeg",1,3,2,NA,"Instruments",2,1,"right","right",0.623999834,1,1,1,1,NA,NA,NA,NA,NA,NA,NA,NA,NA,NA,NA,NA,NA,NA,NA,NA,NA,NA,NA,NA,NA,NA,NA,NA
"203","stim/objects/Instruments/oboe2.png",93,22,93,0.9,"stim/34.jpeg",3,4,3,NA,"Instruments",2,3,"right","right",0.562000036,1,1,1,1,NA,NA,NA,NA,NA,NA,NA,NA,NA,NA,NA,NA,NA,NA,NA,NA,NA,NA,NA,NA,NA,NA,NA,NA
"13","stim/objects/HouseObjects/ironingboard.png",94,22,94,0.5,"stim/52.jpeg",5,2,1,NA,"HouseObjects",1,2,"left","left",0.565999985,1,1,1,1,NA,NA,NA,NA,NA,NA,NA,NA,NA,NA,NA,NA,NA,NA,NA,NA,NA,NA,NA,NA,NA,NA,NA,NA
"86","stim/objects/HouseObjects/remote.png",95,22,95,0.3,"stim/12.jpeg",1,2,2,NA,"HouseObjects",1,2,"left","right",0.538000107,0,0,1,1,NA,NA,NA,NA,NA,NA,NA,NA,NA,NA,NA,NA,NA,NA,NA,NA,NA,NA,NA,NA,NA,NA,NA,NA
"114","stim/objects/HouseObjects/rug2.png",96,22,96,0.9,"stim/44.jpeg",4,4,3,NA,"HouseObjects",1,2,"left","left",0.552999973,1,1,1,1,NA,NA,NA,NA,NA,NA,NA,NA,NA,NA,NA,NA,NA,NA,NA,NA,NA,NA,NA,NA,NA,NA,NA,NA
"204","stim/objects/Instruments/oboe2.png",97,22,97,0.9,"stim/34.jpeg",3,4,3,NA,"Instruments",2,3,"right","right",0.554000139,1,1,1,1,NA,NA,NA,NA,NA,NA,NA,NA,NA,NA,NA,NA,NA,NA,NA,NA,NA,NA,NA,NA,NA,NA,NA,NA
"47","stim/objects/HouseObjects/knife2.png",98,22,98,0.7,"stim/24.jpeg",2,4,2,NA,"HouseObjects",1,2,"left","left",0.582000017,1,1,1,1,NA,NA,NA,NA,NA,NA,NA,NA,NA,NA,NA,NA,NA,NA,NA,NA,NA,NA,NA,NA,NA,NA,NA,NA
"104","stim/objects/HouseObjects/rubbergloves2.png",99,22,99,0.9,"stim/43.jpeg",4,3,3,NA,"HouseObjects",1,4,"left","left",0.527999878,1,1,1,1,NA,NA,NA,NA,NA,NA,NA,NA,NA,NA,NA,NA,NA,NA,NA,NA,NA,NA,NA,NA,NA,NA,NA,NA
"92","stim/objects/HouseObjects/remote2.png",100,22,100,0.9,"stim/42.jpeg",4,2,3,NA,"HouseObjects",1,3,"left","left",0.634000063,1,1,1,1,NA,NA,NA,NA,NA,NA,NA,NA,NA,NA,NA,NA,NA,NA,NA,NA,NA,NA,NA,NA,NA,NA,NA,NA
"14","stim/objects/HouseObjects/ironingboard.png",101,22,101,0.5,"stim/52.jpeg",5,2,1,NA,"HouseObjects",1,2,"left","left",0.727999926,1,1,1,1,NA,NA,NA,NA,NA,NA,NA,NA,NA,NA,NA,NA,NA,NA,NA,NA,NA,NA,NA,NA,NA,NA,NA,NA
"140","stim/objects/Instruments/maraca.png",102,22,102,0.5,"stim/53.jpeg",5,3,1,NA,"Instruments",2,3,"right","right",0.717999935,1,1,1,1,NA,NA,NA,NA,NA,NA,NA,NA,NA,NA,NA,NA,NA,NA,NA,NA,NA,NA,NA,NA,NA,NA,NA,NA
"110","stim/objects/HouseObjects/rug.png",103,22,103,0.3,"stim/14.jpeg",1,4,2,NA,"HouseObjects",1,3,"left","right",0.606999874,0,0,1,1,NA,NA,NA,NA,NA,NA,NA,NA,NA,NA,NA,NA,NA,NA,NA,NA,NA,NA,NA,NA,NA,NA,NA,NA
"80","stim/objects/HouseObjects/recyclingbin2.png",104,22,104,0.9,"stim/41.jpeg",4,1,3,NA,"HouseObjects",1,1,"left","left",0.604000092,1,1,1,1,NA,NA,NA,NA,NA,NA,NA,NA,NA,NA,NA,NA,NA,NA,NA,NA,NA,NA,NA,NA,NA,NA,NA,NA
"155","stim/objects/Instruments/metronome.png",105,22,105,0.5,"stim/61.jpeg",6,1,1,NA,"Instruments",2,2,"right","right",0.616999865,1,1,1,1,NA,NA,NA,NA,NA,NA,NA,NA,NA,NA,NA,NA,NA,NA,NA,NA,NA,NA,NA,NA,NA,NA,NA,NA
"124","stim/objects/Instruments/keyboard.png",106,22,106,0.5,"stim/51.jpeg",5,1,1,NA,"Instruments",2,4,"right","left",0.643999815,0,0,1,1,NA,NA,NA,NA,NA,NA,NA,NA,NA,NA,NA,NA,NA,NA,NA,NA,NA,NA,NA,NA,NA,NA,NA,NA
"35","stim/objects/HouseObjects/key2.png",107,22,107,0.7,"stim/23.jpeg",2,3,2,NA,"HouseObjects",1,2,"left","left",0.555999994,1,1,1,1,NA,NA,NA,NA,NA,NA,NA,NA,NA,NA,NA,NA,NA,NA,NA,NA,NA,NA,NA,NA,NA,NA,NA,NA
"205","stim/objects/Instruments/oboe2.png",108,22,108,0.9,"stim/34.jpeg",3,4,3,NA,"Instruments",2,2,"right","right",0.599999905,1,1,1,1,NA,NA,NA,NA,NA,NA,NA,NA,NA,NA,NA,NA,NA,NA,NA,NA,NA,NA,NA,NA,NA,NA,NA,NA
"168","stim/objects/Instruments/musicsheet.png",109,22,109,0.5,"stim/62.jpeg",6,2,1,NA,"Instruments",2,4,"right","right",0.640999794,1,1,1,1,NA,NA,NA,NA,NA,NA,NA,NA,NA,NA,NA,NA,NA,NA,NA,NA,NA,NA,NA,NA,NA,NA,NA,NA
"135","stim/objects/Instruments/laud2.png",110,22,110,0.3,"stim/22.jpeg",2,2,2,NA,"Instruments",2,4,"right","left",0.576999903,0,0,1,1,NA,NA,NA,NA,NA,NA,NA,NA,NA,NA,NA,NA,NA,NA,NA,NA,NA,NA,NA,NA,NA,NA,NA,NA
"216","stim/objects/Instruments/panflute2.png",111,22,111,0.1,"stim/41.jpeg",4,1,3,NA,"Instruments",2,1,"right","left",0.566999912,0,0,1,1,NA,NA,NA,NA,NA,NA,NA,NA,NA,NA,NA,NA,NA,NA,NA,NA,NA,NA,NA,NA,NA,NA,NA,NA
"191","stim/objects/Instruments/musicstand2.png",112,22,112,0.9,"stim/33.jpeg",3,3,3,NA,"Instruments",2,1,"right","right",0.601999998,1,1,1,1,NA,NA,NA,NA,NA,NA,NA,NA,NA,NA,NA,NA,NA,NA,NA,NA,NA,NA,NA,NA,NA,NA,NA,NA
"25","stim/objects/HouseObjects/key.png",113,22,113,0.5,"stim/53.jpeg",5,3,1,NA,"HouseObjects",1,2,"left","right",0.765999794,0,0,1,1,NA,NA,NA,NA,NA,NA,NA,NA,NA,NA,NA,NA,NA,NA,NA,NA,NA,NA,NA,NA,NA,NA,NA,NA
"156","stim/objects/Instruments/metronome.png",114,22,114,0.5,"stim/61.jpeg",6,1,1,NA,"Instruments",2,2,"right","",NA,0,0,1,1,NA,NA,NA,NA,NA,NA,NA,NA,NA,NA,NA,NA,NA,NA,NA,NA,NA,NA,NA,NA,NA,NA,NA,NA
"97","stim/objects/HouseObjects/rubbergloves.png",115,22,115,0.3,"stim/13.jpeg",1,3,2,NA,"HouseObjects",1,4,"left","right",0.530999899,0,0,1,1,NA,NA,NA,NA,NA,NA,NA,NA,NA,NA,NA,NA,NA,NA,NA,NA,NA,NA,NA,NA,NA,NA,NA,NA
"174","stim/objects/Instruments/musicsheet2.png",116,22,116,0.9,"stim/32.jpeg",3,2,3,NA,"Instruments",2,4,"right","right",0.574999809,1,1,1,1,NA,NA,NA,NA,NA,NA,NA,NA,NA,NA,NA,NA,NA,NA,NA,NA,NA,NA,NA,NA,NA,NA,NA,NA
"81","stim/objects/HouseObjects/recyclingbin2.png",117,22,117,0.9,"stim/41.jpeg",4,1,3,NA,"HouseObjects",1,3,"left","left",0.597999811,1,1,1,1,NA,NA,NA,NA,NA,NA,NA,NA,NA,NA,NA,NA,NA,NA,NA,NA,NA,NA,NA,NA,NA,NA,NA,NA
"211","stim/objects/Instruments/panflute.png",118,22,118,0.7,"stim/11.jpeg",1,1,2,NA,"Instruments",2,3,"right","right",0.562999725,1,1,1,1,NA,NA,NA,NA,NA,NA,NA,NA,NA,NA,NA,NA,NA,NA,NA,NA,NA,NA,NA,NA,NA,NA,NA,NA
"93","stim/objects/HouseObjects/remote2.png",119,22,119,0.9,"stim/42.jpeg",4,2,3,NA,"HouseObjects",1,1,"left","left",0.617000103,1,1,1,1,NA,NA,NA,NA,NA,NA,NA,NA,NA,NA,NA,NA,NA,NA,NA,NA,NA,NA,NA,NA,NA,NA,NA,NA
"195","stim/objects/Instruments/oboe.png",120,22,120,0.5,"stim/64.jpeg",6,4,1,NA,"Instruments",2,3,"right","left",0.763000011,0,0,1,1,NA,NA,NA,NA,NA,NA,NA,NA,NA,NA,NA,NA,NA,NA,NA,NA,NA,NA,NA,NA,NA,NA,NA,NA
"132","stim/objects/Instruments/laud.png",121,22,121,0.5,"stim/52.jpeg",5,2,1,NA,"Instruments",2,3,"right","left",0.599999905,0,0,1,1,NA,NA,NA,NA,NA,NA,NA,NA,NA,NA,NA,NA,NA,NA,NA,NA,NA,NA,NA,NA,NA,NA,NA,NA
"151","stim/objects/Instruments/marimba2.png",122,22,122,0.3,"stim/24.jpeg",2,4,2,NA,"Instruments",2,2,"right","left",0.628999949,0,0,1,1,NA,NA,NA,NA,NA,NA,NA,NA,NA,NA,NA,NA,NA,NA,NA,NA,NA,NA,NA,NA,NA,NA,NA,NA
"82","stim/objects/HouseObjects/recyclingbin2.png",123,22,123,0.9,"stim/41.jpeg",4,1,3,NA,"HouseObjects",1,3,"left","left",0.496999979,1,1,1,1,NA,NA,NA,NA,NA,NA,NA,NA,NA,NA,NA,NA,NA,NA,NA,NA,NA,NA,NA,NA,NA,NA,NA,NA
"94","stim/objects/HouseObjects/remote2.png",124,22,124,0.9,"stim/42.jpeg",4,2,3,NA,"HouseObjects",1,2,"left","left",0.639999866,1,1,1,1,NA,NA,NA,NA,NA,NA,NA,NA,NA,NA,NA,NA,NA,NA,NA,NA,NA,NA,NA,NA,NA,NA,NA,NA
"226","stim/objects/Instruments/record_player.png",125,22,125,0.7,"stim/14.jpeg",1,4,2,NA,"Instruments",2,3,"right","right",0.519999981,1,1,1,1,NA,NA,NA,NA,NA,NA,NA,NA,NA,NA,NA,NA,NA,NA,NA,NA,NA,NA,NA,NA,NA,NA,NA,NA
"182","stim/objects/Instruments/musicstand.png",126,22,126,0.5,"stim/63.jpeg",6,3,1,NA,"Instruments",2,2,"right","right",0.663999796,1,1,1,1,NA,NA,NA,NA,NA,NA,NA,NA,NA,NA,NA,NA,NA,NA,NA,NA,NA,NA,NA,NA,NA,NA,NA,NA
"9","stim/objects/HouseObjects/iron2.png",127,22,127,0.7,"stim/21.jpeg",2,1,2,NA,"HouseObjects",1,1,"left","left",0.530999899,1,1,1,1,NA,NA,NA,NA,NA,NA,NA,NA,NA,NA,NA,NA,NA,NA,NA,NA,NA,NA,NA,NA,NA,NA,NA,NA
"175","stim/objects/Instruments/musicsheet2.png",128,22,128,0.9,"stim/32.jpeg",3,2,3,NA,"Instruments",2,4,"right","right",0.538000107,1,1,1,1,NA,NA,NA,NA,NA,NA,NA,NA,NA,NA,NA,NA,NA,NA,NA,NA,NA,NA,NA,NA,NA,NA,NA,NA
"196","stim/objects/Instruments/oboe.png",129,22,129,0.5,"stim/64.jpeg",6,4,1,NA,"Instruments",2,2,"right","left",0.784000158,0,0,1,1,NA,NA,NA,NA,NA,NA,NA,NA,NA,NA,NA,NA,NA,NA,NA,NA,NA,NA,NA,NA,NA,NA,NA,NA
"162","stim/objects/Instruments/metronome2.png",130,22,130,0.9,"stim/31.jpeg",3,1,3,NA,"Instruments",2,3,"right","right",0.629999876,1,1,1,1,NA,NA,NA,NA,NA,NA,NA,NA,NA,NA,NA,NA,NA,NA,NA,NA,NA,NA,NA,NA,NA,NA,NA,NA
"232","stim/objects/Instruments/record_player2.png",131,22,131,0.1,"stim/44.jpeg",4,4,3,NA,"Instruments",2,3,"right","left",0.481999874,0,0,1,1,NA,NA,NA,NA,NA,NA,NA,NA,NA,NA,NA,NA,NA,NA,NA,NA,NA,NA,NA,NA,NA,NA,NA,NA
"240","stim/objects/Instruments/record2.png",132,22,132,0.1,"stim/43.jpeg",4,3,3,NA,"Instruments",2,3,"right","left",0.49000001,0,0,1,1,NA,NA,NA,NA,NA,NA,NA,NA,NA,NA,NA,NA,NA,NA,NA,NA,NA,NA,NA,NA,NA,NA,NA,NA
"197","stim/objects/Instruments/oboe.png",133,22,133,0.5,"stim/64.jpeg",6,4,1,NA,"Instruments",2,1,"right","right",0.684000015,1,1,1,1,NA,NA,NA,NA,NA,NA,NA,NA,NA,NA,NA,NA,NA,NA,NA,NA,NA,NA,NA,NA,NA,NA,NA,NA
"147","stim/objects/Instruments/marimba.png",134,22,134,0.5,"stim/54.jpeg",5,4,1,NA,"Instruments",2,2,"right","left",0.648999929,0,0,1,1,NA,NA,NA,NA,NA,NA,NA,NA,NA,NA,NA,NA,NA,NA,NA,NA,NA,NA,NA,NA,NA,NA,NA,NA
"183","stim/objects/Instruments/musicstand.png",135,22,135,0.5,"stim/63.jpeg",6,3,1,NA,"Instruments",2,4,"right","right",0.646999836,1,1,1,1,NA,NA,NA,NA,NA,NA,NA,NA,NA,NA,NA,NA,NA,NA,NA,NA,NA,NA,NA,NA,NA,NA,NA,NA
"40","stim/objects/HouseObjects/knife.png",136,22,136,0.5,"stim/54.jpeg",5,4,1,NA,"HouseObjects",1,4,"left","right",0.756000042,0,0,1,1,NA,NA,NA,NA,NA,NA,NA,NA,NA,NA,NA,NA,NA,NA,NA,NA,NA,NA,NA,NA,NA,NA,NA,NA
"98","stim/objects/HouseObjects/rubbergloves.png",137,22,137,0.3,"stim/13.jpeg",1,3,2,NA,"HouseObjects",1,1,"left","right",0.642999887,0,0,1,1,NA,NA,NA,NA,NA,NA,NA,NA,NA,NA,NA,NA,NA,NA,NA,NA,NA,NA,NA,NA,NA,NA,NA,NA
"15","stim/objects/HouseObjects/ironingboard.png",138,22,138,0.5,"stim/52.jpeg",5,2,1,NA,"HouseObjects",1,3,"left","left",0.649999857,1,1,1,1,NA,NA,NA,NA,NA,NA,NA,NA,NA,NA,NA,NA,NA,NA,NA,NA,NA,NA,NA,NA,NA,NA,NA,NA
"3","stim/objects/HouseObjects/iron.png",139,22,139,0.5,"stim/51.jpeg",5,1,1,NA,"HouseObjects",1,3,"left","left",0.880000114,1,1,1,1,NA,NA,NA,NA,NA,NA,NA,NA,NA,NA,NA,NA,NA,NA,NA,NA,NA,NA,NA,NA,NA,NA,NA,NA
"206","stim/objects/Instruments/oboe2.png",140,22,140,0.9,"stim/34.jpeg",3,4,3,NA,"Instruments",2,2,"right","right",0.601999998,1,1,1,1,NA,NA,NA,NA,NA,NA,NA,NA,NA,NA,NA,NA,NA,NA,NA,NA,NA,NA,NA,NA,NA,NA,NA,NA
"115","stim/objects/HouseObjects/rug2.png",141,22,141,0.9,"stim/44.jpeg",4,4,3,NA,"HouseObjects",1,4,"left","left",0.583999872,1,1,1,1,NA,NA,NA,NA,NA,NA,NA,NA,NA,NA,NA,NA,NA,NA,NA,NA,NA,NA,NA,NA,NA,NA,NA,NA
"133","stim/objects/Instruments/laud.png",142,22,142,0.5,"stim/52.jpeg",5,2,1,NA,"Instruments",2,4,"right","left",0.667000055,0,0,1,1,NA,NA,NA,NA,NA,NA,NA,NA,NA,NA,NA,NA,NA,NA,NA,NA,NA,NA,NA,NA,NA,NA,NA,NA
"116","stim/objects/HouseObjects/rug2.png",143,22,143,0.9,"stim/44.jpeg",4,4,3,NA,"HouseObjects",1,4,"left","left",0.598999977,1,1,1,1,NA,NA,NA,NA,NA,NA,NA,NA,NA,NA,NA,NA,NA,NA,NA,NA,NA,NA,NA,NA,NA,NA,NA,NA
"227","stim/objects/Instruments/record_player.png",144,22,144,0.7,"stim/14.jpeg",1,4,2,NA,"Instruments",2,3,"right","right",0.558999777,1,1,1,1,NA,NA,NA,NA,NA,NA,NA,NA,NA,NA,NA,NA,NA,NA,NA,NA,NA,NA,NA,NA,NA,NA,NA,NA
"69","stim/objects/HouseObjects/pitcher.png",145,22,145,0.5,"stim/64.jpeg",6,4,1,NA,"HouseObjects",1,4,"left","right",0.832000017,0,0,1,1,NA,NA,NA,NA,NA,NA,NA,NA,NA,NA,NA,NA,NA,NA,NA,NA,NA,NA,NA,NA,NA,NA,NA,NA
"212","stim/objects/Instruments/panflute.png",146,22,146,0.7,"stim/11.jpeg",1,1,2,NA,"Instruments",2,1,"right","right",0.732000113,1,1,1,1,NA,NA,NA,NA,NA,NA,NA,NA,NA,NA,NA,NA,NA,NA,NA,NA,NA,NA,NA,NA,NA,NA,NA,NA
"234","stim/objects/Instruments/record.png",147,22,147,0.7,"stim/13.jpeg",1,3,2,NA,"Instruments",2,4,"right","right",0.697999954,1,1,1,1,NA,NA,NA,NA,NA,NA,NA,NA,NA,NA,NA,NA,NA,NA,NA,NA,NA,NA,NA,NA,NA,NA,NA,NA
"58","stim/objects/HouseObjects/match.png",148,22,148,0.5,"stim/62.jpeg",6,2,1,NA,"HouseObjects",1,3,"left","right",0.510999918,0,0,1,1,NA,NA,NA,NA,NA,NA,NA,NA,NA,NA,NA,NA,NA,NA,NA,NA,NA,NA,NA,NA,NA,NA,NA,NA
"213","stim/objects/Instruments/panflute.png",149,22,149,0.7,"stim/11.jpeg",1,1,2,NA,"Instruments",2,2,"right","right",0.627999783,1,1,1,1,NA,NA,NA,NA,NA,NA,NA,NA,NA,NA,NA,NA,NA,NA,NA,NA,NA,NA,NA,NA,NA,NA,NA,NA
"21","stim/objects/HouseObjects/ironingboard2.png",150,22,150,0.7,"stim/22.jpeg",2,2,2,NA,"HouseObjects",1,1,"left","left",0.669999838,1,1,1,1,NA,NA,NA,NA,NA,NA,NA,NA,NA,NA,NA,NA,NA,NA,NA,NA,NA,NA,NA,NA,NA,NA,NA,NA
"26","stim/objects/HouseObjects/key.png",151,22,151,0.5,"stim/53.jpeg",5,3,1,NA,"HouseObjects",1,3,"left","right",0.788999796,0,0,1,1,NA,NA,NA,NA,NA,NA,NA,NA,NA,NA,NA,NA,NA,NA,NA,NA,NA,NA,NA,NA,NA,NA,NA,NA
"163","stim/objects/Instruments/metronome2.png",152,22,152,0.9,"stim/31.jpeg",3,1,3,NA,"Instruments",2,1,"right","right",0.555000067,1,1,1,1,NA,NA,NA,NA,NA,NA,NA,NA,NA,NA,NA,NA,NA,NA,NA,NA,NA,NA,NA,NA,NA,NA,NA,NA
"27","stim/objects/HouseObjects/key.png",153,22,153,0.5,"stim/53.jpeg",5,3,1,NA,"HouseObjects",1,4,"left","right",0.661000013,0,0,1,1,NA,NA,NA,NA,NA,NA,NA,NA,NA,NA,NA,NA,NA,NA,NA,NA,NA,NA,NA,NA,NA,NA,NA,NA
"143","stim/objects/Instruments/maraca2.png",154,22,154,0.3,"stim/23.jpeg",2,3,2,NA,"Instruments",2,1,"right","left",0.587999821,0,0,1,1,NA,NA,NA,NA,NA,NA,NA,NA,NA,NA,NA,NA,NA,NA,NA,NA,NA,NA,NA,NA,NA,NA,NA,NA
"169","stim/objects/Instruments/musicsheet.png",155,22,155,0.5,"stim/62.jpeg",6,2,1,NA,"Instruments",2,1,"right","right",0.746999979,1,1,1,1,NA,NA,NA,NA,NA,NA,NA,NA,NA,NA,NA,NA,NA,NA,NA,NA,NA,NA,NA,NA,NA,NA,NA,NA
"144","stim/objects/Instruments/maraca2.png",156,22,156,0.3,"stim/23.jpeg",2,3,2,NA,"Instruments",2,1,"right","left",0.588999987,0,0,1,1,NA,NA,NA,NA,NA,NA,NA,NA,NA,NA,NA,NA,NA,NA,NA,NA,NA,NA,NA,NA,NA,NA,NA,NA
"184","stim/objects/Instruments/musicstand.png",157,22,157,0.5,"stim/63.jpeg",6,3,1,NA,"Instruments",2,3,"right","right",0.632999897,1,1,1,1,NA,NA,NA,NA,NA,NA,NA,NA,NA,NA,NA,NA,NA,NA,NA,NA,NA,NA,NA,NA,NA,NA,NA,NA
"235","stim/objects/Instruments/record.png",158,22,158,0.7,"stim/13.jpeg",1,3,2,NA,"Instruments",2,1,"right","right",0.679999828,1,1,1,1,NA,NA,NA,NA,NA,NA,NA,NA,NA,NA,NA,NA,NA,NA,NA,NA,NA,NA,NA,NA,NA,NA,NA,NA
"117","stim/objects/HouseObjects/rug2.png",159,22,159,0.9,"stim/44.jpeg",4,4,3,NA,"HouseObjects",1,2,"left","left",0.588999748,1,1,1,1,NA,NA,NA,NA,NA,NA,NA,NA,NA,NA,NA,NA,NA,NA,NA,NA,NA,NA,NA,NA,NA,NA,NA,NA
"10","stim/objects/HouseObjects/iron2.png",160,22,160,0.7,"stim/21.jpeg",2,1,2,NA,"HouseObjects",1,2,"left","left",0.730999947,1,1,1,1,NA,NA,NA,NA,NA,NA,NA,NA,NA,NA,NA,NA,NA,NA,NA,NA,NA,NA,NA,NA,NA,NA,NA,NA
"22","stim/objects/HouseObjects/ironingboard2.png",161,22,161,0.7,"stim/22.jpeg",2,2,2,NA,"HouseObjects",1,3,"left","left",0.544999838,1,1,1,1,NA,NA,NA,NA,NA,NA,NA,NA,NA,NA,NA,NA,NA,NA,NA,NA,NA,NA,NA,NA,NA,NA,NA,NA
"228","stim/objects/Instruments/record_player.png",162,22,162,0.7,"stim/14.jpeg",1,4,2,NA,"Instruments",2,4,"right","right",0.539999962,1,1,1,1,NA,NA,NA,NA,NA,NA,NA,NA,NA,NA,NA,NA,NA,NA,NA,NA,NA,NA,NA,NA,NA,NA,NA,NA
"51","stim/objects/HouseObjects/lintroller.png",163,22,163,0.5,"stim/61.jpeg",6,1,1,NA,"HouseObjects",1,2,"left","right",0.782000065,0,0,1,1,NA,NA,NA,NA,NA,NA,NA,NA,NA,NA,NA,NA,NA,NA,NA,NA,NA,NA,NA,NA,NA,NA,NA,NA
"105","stim/objects/HouseObjects/rubbergloves2.png",164,22,164,0.9,"stim/43.jpeg",4,3,3,NA,"HouseObjects",1,4,"left","left",0.588999748,1,1,1,1,NA,NA,NA,NA,NA,NA,NA,NA,NA,NA,NA,NA,NA,NA,NA,NA,NA,NA,NA,NA,NA,NA,NA,NA
"164","stim/objects/Instruments/metronome2.png",165,22,165,0.9,"stim/31.jpeg",3,1,3,NA,"Instruments",2,1,"right","right",0.623999834,1,1,1,1,NA,NA,NA,NA,NA,NA,NA,NA,NA,NA,NA,NA,NA,NA,NA,NA,NA,NA,NA,NA,NA,NA,NA,NA
"207","stim/objects/Instruments/oboe2.png",166,22,166,0.9,"stim/34.jpeg",3,4,3,NA,"Instruments",2,1,"right","right",0.503999949,1,1,1,1,NA,NA,NA,NA,NA,NA,NA,NA,NA,NA,NA,NA,NA,NA,NA,NA,NA,NA,NA,NA,NA,NA,NA,NA
"106","stim/objects/HouseObjects/rubbergloves2.png",167,22,167,0.9,"stim/43.jpeg",4,3,3,NA,"HouseObjects",1,1,"left","left",0.523000002,1,1,1,1,NA,NA,NA,NA,NA,NA,NA,NA,NA,NA,NA,NA,NA,NA,NA,NA,NA,NA,NA,NA,NA,NA,NA,NA
"220","stim/objects/Instruments/pipepiano.png",168,22,168,0.7,"stim/12.jpeg",1,2,2,NA,"Instruments",2,1,"right","right",0.506000042,1,1,1,1,NA,NA,NA,NA,NA,NA,NA,NA,NA,NA,NA,NA,NA,NA,NA,NA,NA,NA,NA,NA,NA,NA,NA,NA
"63","stim/objects/HouseObjects/pan.png",169,22,169,0.5,"stim/63.jpeg",6,3,1,NA,"HouseObjects",1,4,"left","right",0.443999767,0,0,1,1,NA,NA,NA,NA,NA,NA,NA,NA,NA,NA,NA,NA,NA,NA,NA,NA,NA,NA,NA,NA,NA,NA,NA,NA
"87","stim/objects/HouseObjects/remote.png",170,22,170,0.3,"stim/12.jpeg",1,2,2,NA,"HouseObjects",1,2,"left","right",0.653999805,0,0,1,1,NA,NA,NA,NA,NA,NA,NA,NA,NA,NA,NA,NA,NA,NA,NA,NA,NA,NA,NA,NA,NA,NA,NA,NA
"148","stim/objects/Instruments/marimba.png",171,22,171,0.5,"stim/54.jpeg",5,4,1,NA,"Instruments",2,2,"right","left",0.753999949,0,0,1,1,NA,NA,NA,NA,NA,NA,NA,NA,NA,NA,NA,NA,NA,NA,NA,NA,NA,NA,NA,NA,NA,NA,NA,NA
"4","stim/objects/HouseObjects/iron.png",172,22,172,0.5,"stim/51.jpeg",5,1,1,NA,"HouseObjects",1,1,"left","right",0.875999928,0,0,1,1,NA,NA,NA,NA,NA,NA,NA,NA,NA,NA,NA,NA,NA,NA,NA,NA,NA,NA,NA,NA,NA,NA,NA,NA
"198","stim/objects/Instruments/oboe.png",173,22,173,0.5,"stim/64.jpeg",6,4,1,NA,"Instruments",2,3,"right","",NA,0,0,1,1,NA,NA,NA,NA,NA,NA,NA,NA,NA,NA,NA,NA,NA,NA,NA,NA,NA,NA,NA,NA,NA,NA,NA,NA
"192","stim/objects/Instruments/musicstand2.png",174,22,174,0.9,"stim/33.jpeg",3,3,3,NA,"Instruments",2,3,"right","right",0.529999971,1,1,1,1,NA,NA,NA,NA,NA,NA,NA,NA,NA,NA,NA,NA,NA,NA,NA,NA,NA,NA,NA,NA,NA,NA,NA,NA
"83","stim/objects/HouseObjects/recyclingbin2.png",175,22,175,0.9,"stim/41.jpeg",4,1,3,NA,"HouseObjects",1,3,"left","left",0.629999876,1,1,1,1,NA,NA,NA,NA,NA,NA,NA,NA,NA,NA,NA,NA,NA,NA,NA,NA,NA,NA,NA,NA,NA,NA,NA,NA
"41","stim/objects/HouseObjects/knife.png",176,22,176,0.5,"stim/54.jpeg",5,4,1,NA,"HouseObjects",1,1,"left","right",0.657000065,0,0,1,1,NA,NA,NA,NA,NA,NA,NA,NA,NA,NA,NA,NA,NA,NA,NA,NA,NA,NA,NA,NA,NA,NA,NA,NA
"199","stim/objects/Instruments/oboe.png",177,22,177,0.5,"stim/64.jpeg",6,4,1,NA,"Instruments",2,3,"right","right",0.612999916,1,1,1,1,NA,NA,NA,NA,NA,NA,NA,NA,NA,NA,NA,NA,NA,NA,NA,NA,NA,NA,NA,NA,NA,NA,NA,NA
"28","stim/objects/HouseObjects/key.png",178,22,178,0.5,"stim/53.jpeg",5,3,1,NA,"HouseObjects",1,4,"left","left",0.634999752,1,1,1,1,NA,NA,NA,NA,NA,NA,NA,NA,NA,NA,NA,NA,NA,NA,NA,NA,NA,NA,NA,NA,NA,NA,NA,NA
"95","stim/objects/HouseObjects/remote2.png",179,22,179,0.9,"stim/42.jpeg",4,2,3,NA,"HouseObjects",1,1,"left","left",0.687999964,1,1,1,1,NA,NA,NA,NA,NA,NA,NA,NA,NA,NA,NA,NA,NA,NA,NA,NA,NA,NA,NA,NA,NA,NA,NA,NA
"11","stim/objects/HouseObjects/iron2.png",180,22,180,0.7,"stim/21.jpeg",2,1,2,NA,"HouseObjects",1,3,"left","left",0.67599988,1,1,1,1,NA,NA,NA,NA,NA,NA,NA,NA,NA,NA,NA,NA,NA,NA,NA,NA,NA,NA,NA,NA,NA,NA,NA,NA
"74","stim/objects/HouseObjects/recyclingbin.png",181,22,181,0.3,"stim/11.jpeg",1,1,2,NA,"HouseObjects",1,2,"left","right",0.568000078,0,0,1,1,NA,NA,NA,NA,NA,NA,NA,NA,NA,NA,NA,NA,NA,NA,NA,NA,NA,NA,NA,NA,NA,NA,NA,NA
"176","stim/objects/Instruments/musicsheet2.png",182,22,182,0.9,"stim/32.jpeg",3,2,3,NA,"Instruments",2,4,"right","right",0.566999912,1,1,1,1,NA,NA,NA,NA,NA,NA,NA,NA,NA,NA,NA,NA,NA,NA,NA,NA,NA,NA,NA,NA,NA,NA,NA,NA
"229","stim/objects/Instruments/record_player.png",183,22,183,0.7,"stim/14.jpeg",1,4,2,NA,"Instruments",2,3,"right","right",0.590000153,1,1,1,1,NA,NA,NA,NA,NA,NA,NA,NA,NA,NA,NA,NA,NA,NA,NA,NA,NA,NA,NA,NA,NA,NA,NA,NA
"221","stim/objects/Instruments/pipepiano.png",184,22,184,0.7,"stim/12.jpeg",1,2,2,NA,"Instruments",2,2,"right","right",0.556999922,1,1,1,1,NA,NA,NA,NA,NA,NA,NA,NA,NA,NA,NA,NA,NA,NA,NA,NA,NA,NA,NA,NA,NA,NA,NA,NA
"193","stim/objects/Instruments/musicstand2.png",185,22,185,0.9,"stim/33.jpeg",3,3,3,NA,"Instruments",2,2,"right","right",0.526000023,1,1,1,1,NA,NA,NA,NA,NA,NA,NA,NA,NA,NA,NA,NA,NA,NA,NA,NA,NA,NA,NA,NA,NA,NA,NA,NA
"48","stim/objects/HouseObjects/knife2.png",186,22,186,0.7,"stim/24.jpeg",2,4,2,NA,"HouseObjects",1,4,"left","left",0.635999918,1,1,1,1,NA,NA,NA,NA,NA,NA,NA,NA,NA,NA,NA,NA,NA,NA,NA,NA,NA,NA,NA,NA,NA,NA,NA,NA
"64","stim/objects/HouseObjects/pan.png",187,22,187,0.5,"stim/63.jpeg",6,3,1,NA,"HouseObjects",1,1,"left","right",0.487999916,0,0,1,1,NA,NA,NA,NA,NA,NA,NA,NA,NA,NA,NA,NA,NA,NA,NA,NA,NA,NA,NA,NA,NA,NA,NA,NA
"107","stim/objects/HouseObjects/rubbergloves2.png",188,22,188,0.9,"stim/43.jpeg",4,3,3,NA,"HouseObjects",1,3,"left","left",0.65199995,1,1,1,1,NA,NA,NA,NA,NA,NA,NA,NA,NA,NA,NA,NA,NA,NA,NA,NA,NA,NA,NA,NA,NA,NA,NA,NA
"118","stim/objects/HouseObjects/rug2.png",189,22,189,0.9,"stim/44.jpeg",4,4,3,NA,"HouseObjects",1,2,"left","left",0.552999973,1,1,1,1,NA,NA,NA,NA,NA,NA,NA,NA,NA,NA,NA,NA,NA,NA,NA,NA,NA,NA,NA,NA,NA,NA,NA,NA
"36","stim/objects/HouseObjects/key2.png",190,22,190,0.7,"stim/23.jpeg",2,3,2,NA,"HouseObjects",1,3,"left","left",0.599999905,1,1,1,1,NA,NA,NA,NA,NA,NA,NA,NA,NA,NA,NA,NA,NA,NA,NA,NA,NA,NA,NA,NA,NA,NA,NA,NA
"119","stim/objects/HouseObjects/rug2.png",191,22,191,0.9,"stim/44.jpeg",4,4,3,NA,"HouseObjects",1,4,"left","left",0.605000019,1,1,1,1,NA,NA,NA,NA,NA,NA,NA,NA,NA,NA,NA,NA,NA,NA,NA,NA,NA,NA,NA,NA,NA,NA,NA,NA
"236","stim/objects/Instruments/record.png",192,22,192,0.7,"stim/13.jpeg",1,3,2,NA,"Instruments",2,4,"right","left",0.447000027,0,0,1,1,NA,NA,NA,NA,NA,NA,NA,NA,NA,NA,NA,NA,NA,NA,NA,NA,NA,NA,NA,NA,NA,NA,NA,NA
"208","stim/objects/Instruments/oboe2.png",193,22,193,0.9,"stim/34.jpeg",3,4,3,NA,"Instruments",2,1,"right","right",0.625999928,1,1,1,1,NA,NA,NA,NA,NA,NA,NA,NA,NA,NA,NA,NA,NA,NA,NA,NA,NA,NA,NA,NA,NA,NA,NA,NA
"84","stim/objects/HouseObjects/recyclingbin2.png",194,22,194,0.9,"stim/41.jpeg",4,1,3,NA,"HouseObjects",1,1,"left","left",0.737999916,1,1,1,1,NA,NA,NA,NA,NA,NA,NA,NA,NA,NA,NA,NA,NA,NA,NA,NA,NA,NA,NA,NA,NA,NA,NA,NA
"16","stim/objects/HouseObjects/ironingboard.png",195,22,195,0.5,"stim/52.jpeg",5,2,1,NA,"HouseObjects",1,1,"left","",NA,0,0,1,1,NA,NA,NA,NA,NA,NA,NA,NA,NA,NA,NA,NA,NA,NA,NA,NA,NA,NA,NA,NA,NA,NA,NA,NA
"108","stim/objects/HouseObjects/rubbergloves2.png",196,22,196,0.9,"stim/43.jpeg",4,3,3,NA,"HouseObjects",1,2,"left","left",0.622999907,1,1,1,1,NA,NA,NA,NA,NA,NA,NA,NA,NA,NA,NA,NA,NA,NA,NA,NA,NA,NA,NA,NA,NA,NA,NA,NA
"23","stim/objects/HouseObjects/ironingboard2.png",197,22,197,0.7,"stim/22.jpeg",2,2,2,NA,"HouseObjects",1,4,"left","left",0.60199976,1,1,1,1,NA,NA,NA,NA,NA,NA,NA,NA,NA,NA,NA,NA,NA,NA,NA,NA,NA,NA,NA,NA,NA,NA,NA,NA
"136","stim/objects/Instruments/laud2.png",198,22,198,0.3,"stim/22.jpeg",2,2,2,NA,"Instruments",2,3,"right","left",0.4599998,0,0,1,1,NA,NA,NA,NA,NA,NA,NA,NA,NA,NA,NA,NA,NA,NA,NA,NA,NA,NA,NA,NA,NA,NA,NA,NA
"70","stim/objects/HouseObjects/pitcher.png",199,22,199,0.5,"stim/64.jpeg",6,4,1,NA,"HouseObjects",1,1,"left","right",0.606999874,0,0,1,1,NA,NA,NA,NA,NA,NA,NA,NA,NA,NA,NA,NA,NA,NA,NA,NA,NA,NA,NA,NA,NA,NA,NA,NA
"222","stim/objects/Instruments/pipepiano.png",200,22,200,0.7,"stim/12.jpeg",1,2,2,NA,"Instruments",2,1,"right","right",0.607000113,1,1,1,1,NA,NA,NA,NA,NA,NA,NA,NA,NA,NA,NA,NA,NA,NA,NA,NA,NA,NA,NA,NA,NA,NA,NA,NA
"141","stim/objects/Instruments/maraca.png",201,22,201,0.5,"stim/53.jpeg",5,3,1,NA,"Instruments",2,3,"right","left",0.640000105,0,0,1,1,NA,NA,NA,NA,NA,NA,NA,NA,NA,NA,NA,NA,NA,NA,NA,NA,NA,NA,NA,NA,NA,NA,NA,NA
"65","stim/objects/HouseObjects/pan.png",202,22,202,0.5,"stim/63.jpeg",6,3,1,NA,"HouseObjects",1,1,"left","right",0.539999962,0,0,1,1,NA,NA,NA,NA,NA,NA,NA,NA,NA,NA,NA,NA,NA,NA,NA,NA,NA,NA,NA,NA,NA,NA,NA,NA
"165","stim/objects/Instruments/metronome2.png",203,22,203,0.9,"stim/31.jpeg",3,1,3,NA,"Instruments",2,2,"right","right",0.57799983,1,1,1,1,NA,NA,NA,NA,NA,NA,NA,NA,NA,NA,NA,NA,NA,NA,NA,NA,NA,NA,NA,NA,NA,NA,NA,NA
"5","stim/objects/HouseObjects/iron.png",204,22,204,0.5,"stim/51.jpeg",5,1,1,NA,"HouseObjects",1,2,"left","left",0.615999937,1,1,1,1,NA,NA,NA,NA,NA,NA,NA,NA,NA,NA,NA,NA,NA,NA,NA,NA,NA,NA,NA,NA,NA,NA,NA,NA
"52","stim/objects/HouseObjects/lintroller.png",205,22,205,0.5,"stim/61.jpeg",6,1,1,NA,"HouseObjects",1,4,"left","right",0.515000105,0,0,1,1,NA,NA,NA,NA,NA,NA,NA,NA,NA,NA,NA,NA,NA,NA,NA,NA,NA,NA,NA,NA,NA,NA,NA,NA
"237","stim/objects/Instruments/record.png",206,22,206,0.7,"stim/13.jpeg",1,3,2,NA,"Instruments",2,2,"right","right",0.551999807,1,1,1,1,NA,NA,NA,NA,NA,NA,NA,NA,NA,NA,NA,NA,NA,NA,NA,NA,NA,NA,NA,NA,NA,NA,NA,NA
"230","stim/objects/Instruments/record_player.png",207,22,207,0.7,"stim/14.jpeg",1,4,2,NA,"Instruments",2,1,"right","right",0.769999981,1,1,1,1,NA,NA,NA,NA,NA,NA,NA,NA,NA,NA,NA,NA,NA,NA,NA,NA,NA,NA,NA,NA,NA,NA,NA,NA
"59","stim/objects/HouseObjects/match.png",208,22,208,0.5,"stim/62.jpeg",6,2,1,NA,"HouseObjects",1,4,"left","right",0.517999887,0,0,1,1,NA,NA,NA,NA,NA,NA,NA,NA,NA,NA,NA,NA,NA,NA,NA,NA,NA,NA,NA,NA,NA,NA,NA,NA
"194","stim/objects/Instruments/musicstand2.png",209,22,209,0.9,"stim/33.jpeg",3,3,3,NA,"Instruments",2,2,"right","right",0.520999908,1,1,1,1,NA,NA,NA,NA,NA,NA,NA,NA,NA,NA,NA,NA,NA,NA,NA,NA,NA,NA,NA,NA,NA,NA,NA,NA
"170","stim/objects/Instruments/musicsheet.png",210,22,210,0.5,"stim/62.jpeg",6,2,1,NA,"Instruments",2,1,"right","right",0.556999922,1,1,1,1,NA,NA,NA,NA,NA,NA,NA,NA,NA,NA,NA,NA,NA,NA,NA,NA,NA,NA,NA,NA,NA,NA,NA,NA
"214","stim/objects/Instruments/panflute.png",211,22,211,0.7,"stim/11.jpeg",1,1,2,NA,"Instruments",2,1,"right","right",0.483999968,1,1,1,1,NA,NA,NA,NA,NA,NA,NA,NA,NA,NA,NA,NA,NA,NA,NA,NA,NA,NA,NA,NA,NA,NA,NA,NA
"17","stim/objects/HouseObjects/ironingboard.png",212,22,212,0.5,"stim/52.jpeg",5,2,1,NA,"HouseObjects",1,2,"left","left",0.599999905,1,1,1,1,NA,NA,NA,NA,NA,NA,NA,NA,NA,NA,NA,NA,NA,NA,NA,NA,NA,NA,NA,NA,NA,NA,NA,NA
"24","stim/objects/HouseObjects/ironingboard2.png",213,22,213,0.7,"stim/22.jpeg",2,2,2,NA,"HouseObjects",1,4,"left","left",0.621999979,1,1,1,1,NA,NA,NA,NA,NA,NA,NA,NA,NA,NA,NA,NA,NA,NA,NA,NA,NA,NA,NA,NA,NA,NA,NA,NA
"66","stim/objects/HouseObjects/pan2.png",214,22,214,0.1,"stim/33.jpeg",3,3,3,NA,"HouseObjects",1,4,"left","right",0.647999763,0,0,1,1,NA,NA,NA,NA,NA,NA,NA,NA,NA,NA,NA,NA,NA,NA,NA,NA,NA,NA,NA,NA,NA,NA,NA,NA
"71","stim/objects/HouseObjects/pitcher.png",215,22,215,0.5,"stim/64.jpeg",6,4,1,NA,"HouseObjects",1,4,"left","",NA,0,0,1,1,NA,NA,NA,NA,NA,NA,NA,NA,NA,NA,NA,NA,NA,NA,NA,NA,NA,NA,NA,NA,NA,NA,NA,NA
"75","stim/objects/HouseObjects/recyclingbin.png",216,22,216,0.3,"stim/11.jpeg",1,1,2,NA,"HouseObjects",1,4,"left","right",0.463999748,0,0,1,1,NA,NA,NA,NA,NA,NA,NA,NA,NA,NA,NA,NA,NA,NA,NA,NA,NA,NA,NA,NA,NA,NA,NA,NA
"177","stim/objects/Instruments/musicsheet2.png",217,22,217,0.9,"stim/32.jpeg",3,2,3,NA,"Instruments",2,4,"right","right",0.532999992,1,1,1,1,NA,NA,NA,NA,NA,NA,NA,NA,NA,NA,NA,NA,NA,NA,NA,NA,NA,NA,NA,NA,NA,NA,NA,NA
"53","stim/objects/HouseObjects/lintroller.png",218,22,218,0.5,"stim/61.jpeg",6,1,1,NA,"HouseObjects",1,4,"left","left",0.666999817,1,1,1,1,NA,NA,NA,NA,NA,NA,NA,NA,NA,NA,NA,NA,NA,NA,NA,NA,NA,NA,NA,NA,NA,NA,NA,NA
"29","stim/objects/HouseObjects/key.png",219,22,219,0.5,"stim/53.jpeg",5,3,1,NA,"HouseObjects",1,1,"left","left",0.610999823,1,1,1,1,NA,NA,NA,NA,NA,NA,NA,NA,NA,NA,NA,NA,NA,NA,NA,NA,NA,NA,NA,NA,NA,NA,NA,NA
"96","stim/objects/HouseObjects/remote2.png",220,22,220,0.9,"stim/42.jpeg",4,2,3,NA,"HouseObjects",1,1,"left","left",0.59800005,1,1,1,1,NA,NA,NA,NA,NA,NA,NA,NA,NA,NA,NA,NA,NA,NA,NA,NA,NA,NA,NA,NA,NA,NA,NA,NA
"238","stim/objects/Instruments/record.png",221,22,221,0.7,"stim/13.jpeg",1,3,2,NA,"Instruments",2,4,"right","right",0.476000071,1,1,1,1,NA,NA,NA,NA,NA,NA,NA,NA,NA,NA,NA,NA,NA,NA,NA,NA,NA,NA,NA,NA,NA,NA,NA,NA
"171","stim/objects/Instruments/musicsheet.png",222,22,222,0.5,"stim/62.jpeg",6,2,1,NA,"Instruments",2,2,"right","right",0.652999878,1,1,1,1,NA,NA,NA,NA,NA,NA,NA,NA,NA,NA,NA,NA,NA,NA,NA,NA,NA,NA,NA,NA,NA,NA,NA,NA
"111","stim/objects/HouseObjects/rug.png",223,22,223,0.3,"stim/14.jpeg",1,4,2,NA,"HouseObjects",1,4,"left","right",0.532999992,0,0,1,1,NA,NA,NA,NA,NA,NA,NA,NA,NA,NA,NA,NA,NA,NA,NA,NA,NA,NA,NA,NA,NA,NA,NA,NA
"152","stim/objects/Instruments/marimba2.png",224,22,224,0.3,"stim/24.jpeg",2,4,2,NA,"Instruments",2,3,"right","left",0.611000061,0,0,1,1,NA,NA,NA,NA,NA,NA,NA,NA,NA,NA,NA,NA,NA,NA,NA,NA,NA,NA,NA,NA,NA,NA,NA,NA
"223","stim/objects/Instruments/pipepiano.png",225,22,225,0.7,"stim/12.jpeg",1,2,2,NA,"Instruments",2,3,"right","right",0.552999735,1,1,1,1,NA,NA,NA,NA,NA,NA,NA,NA,NA,NA,NA,NA,NA,NA,NA,NA,NA,NA,NA,NA,NA,NA,NA,NA
"178","stim/objects/Instruments/musicsheet2.png",226,22,226,0.9,"stim/32.jpeg",3,2,3,NA,"Instruments",2,1,"right","right",0.551000118,1,1,1,1,NA,NA,NA,NA,NA,NA,NA,NA,NA,NA,NA,NA,NA,NA,NA,NA,NA,NA,NA,NA,NA,NA,NA,NA
"185","stim/objects/Instruments/musicstand.png",227,22,227,0.5,"stim/63.jpeg",6,3,1,NA,"Instruments",2,1,"right","right",0.511999846,1,1,1,1,NA,NA,NA,NA,NA,NA,NA,NA,NA,NA,NA,NA,NA,NA,NA,NA,NA,NA,NA,NA,NA,NA,NA,NA
"12","stim/objects/HouseObjects/iron2.png",228,22,228,0.7,"stim/21.jpeg",2,1,2,NA,"HouseObjects",1,1,"left","right",0.513000011,0,0,1,1,NA,NA,NA,NA,NA,NA,NA,NA,NA,NA,NA,NA,NA,NA,NA,NA,NA,NA,NA,NA,NA,NA,NA,NA
"179","stim/objects/Instruments/musicsheet2.png",229,22,229,0.9,"stim/32.jpeg",3,2,3,NA,"Instruments",2,4,"right","right",0.49000001,1,1,1,1,NA,NA,NA,NA,NA,NA,NA,NA,NA,NA,NA,NA,NA,NA,NA,NA,NA,NA,NA,NA,NA,NA,NA,NA
"231","stim/objects/Instruments/record_player.png",230,22,230,0.7,"stim/14.jpeg",1,4,2,NA,"Instruments",2,2,"right","right",0.557999849,1,1,1,1,NA,NA,NA,NA,NA,NA,NA,NA,NA,NA,NA,NA,NA,NA,NA,NA,NA,NA,NA,NA,NA,NA,NA,NA
"166","stim/objects/Instruments/metronome2.png",231,22,231,0.9,"stim/31.jpeg",3,1,3,NA,"Instruments",2,3,"right","right",0.586999893,1,1,1,1,NA,NA,NA,NA,NA,NA,NA,NA,NA,NA,NA,NA,NA,NA,NA,NA,NA,NA,NA,NA,NA,NA,NA,NA
"239","stim/objects/Instruments/record.png",232,22,232,0.7,"stim/13.jpeg",1,3,2,NA,"Instruments",2,4,"right","right",0.476000071,1,1,1,1,NA,NA,NA,NA,NA,NA,NA,NA,NA,NA,NA,NA,NA,NA,NA,NA,NA,NA,NA,NA,NA,NA,NA,NA
"180","stim/objects/Instruments/musicsheet2.png",233,22,233,0.9,"stim/32.jpeg",3,2,3,NA,"Instruments",2,3,"right","right",0.50999999,1,1,1,1,NA,NA,NA,NA,NA,NA,NA,NA,NA,NA,NA,NA,NA,NA,NA,NA,NA,NA,NA,NA,NA,NA,NA,NA
"54","stim/objects/HouseObjects/lintroller2.png",234,22,234,0.1,"stim/31.jpeg",3,1,3,NA,"HouseObjects",1,4,"left","right",0.487999916,0,0,1,1,NA,NA,NA,NA,NA,NA,NA,NA,NA,NA,NA,NA,NA,NA,NA,NA,NA,NA,NA,NA,NA,NA,NA,NA
"215","stim/objects/Instruments/panflute.png",235,22,235,0.7,"stim/11.jpeg",1,1,2,NA,"Instruments",2,3,"right","right",0.619999886,1,1,1,1,NA,NA,NA,NA,NA,NA,NA,NA,NA,NA,NA,NA,NA,NA,NA,NA,NA,NA,NA,NA,NA,NA,NA,NA
"125","stim/objects/Instruments/keyboard.png",236,22,236,0.5,"stim/51.jpeg",5,1,1,NA,"Instruments",2,1,"right","left",0.595999956,0,0,1,1,NA,NA,NA,NA,NA,NA,NA,NA,NA,NA,NA,NA,NA,NA,NA,NA,NA,NA,NA,NA,NA,NA,NA,NA
"99","stim/objects/HouseObjects/rubbergloves.png",237,22,237,0.3,"stim/13.jpeg",1,3,2,NA,"HouseObjects",1,4,"left","right",0.510999918,0,0,1,1,NA,NA,NA,NA,NA,NA,NA,NA,NA,NA,NA,NA,NA,NA,NA,NA,NA,NA,NA,NA,NA,NA,NA,NA
"120","stim/objects/HouseObjects/rug2.png",238,22,238,0.9,"stim/44.jpeg",4,4,3,NA,"HouseObjects",1,2,"left","left",0.569000006,1,1,1,1,NA,NA,NA,NA,NA,NA,NA,NA,NA,NA,NA,NA,NA,NA,NA,NA,NA,NA,NA,NA,NA,NA,NA,NA
"157","stim/objects/Instruments/metronome.png",239,22,239,0.5,"stim/61.jpeg",6,1,1,NA,"Instruments",2,3,"right","right",0.575000048,1,1,1,1,NA,NA,NA,NA,NA,NA,NA,NA,NA,NA,NA,NA,NA,NA,NA,NA,NA,NA,NA,NA,NA,NA,NA,NA
"149","stim/objects/Instruments/marimba.png",240,22,240,0.5,"stim/54.jpeg",5,4,1,NA,"Instruments",2,3,"right","left",0.587000132,0,0,1,1,NA,NA,NA,NA,NA,NA,NA,NA,NA,NA,NA,NA,NA,NA,NA,NA,NA,NA,NA,NA,NA,NA,NA,NA
"524","stim/objects/Instruments/grandpiano.png",248,22,241,0.9,"stim/31.jpeg",3,1,3,2,"Instruments",2,3,"right","",NA,0,0,1,0,NA,NA,NA,NA,NA,NA,NA,NA,NA,NA,NA,NA,NA,NA,NA,NA,NA,NA,NA,NA,NA,NA,NA,NA
"525","stim/objects/Instruments/grandpiano.png",249,22,242,0.9,"stim/34.jpeg",3,4,3,2,"Instruments",2,4,"right","right",0.586999893,1,1,1,0,NA,NA,NA,NA,NA,NA,NA,NA,NA,NA,NA,NA,NA,NA,NA,NA,NA,NA,NA,NA,NA,NA,NA,NA
"262","stim/objects/HouseObjects/broom.png",250,22,243,0.5,"stim/61.jpeg",6,1,1,2,"HouseObjects",1,3,"left","right",0.661999941,0,0,1,0,NA,NA,NA,NA,NA,NA,NA,NA,NA,NA,NA,NA,NA,NA,NA,NA,NA,NA,NA,NA,NA,NA,NA,NA
"421","stim/objects/Instruments/bassguitar.png",251,22,244,0.5,"stim/62.jpeg",6,2,1,2,"Instruments",2,4,"right","right",0.522999763,1,1,1,0,NA,NA,NA,NA,NA,NA,NA,NA,NA,NA,NA,NA,NA,NA,NA,NA,NA,NA,NA,NA,NA,NA,NA,NA
"325","stim/objects/HouseObjects/flyswatter.png",252,22,245,0.9,"stim/44.jpeg",4,4,3,2,"HouseObjects",1,3,"left","left",0.508999825,1,1,1,0,NA,NA,NA,NA,NA,NA,NA,NA,NA,NA,NA,NA,NA,NA,NA,NA,NA,NA,NA,NA,NA,NA,NA,NA
"265","stim/objects/HouseObjects/bucket.png",253,22,246,0.5,"stim/63.jpeg",6,3,1,2,"HouseObjects",1,2,"left","right",0.532000065,0,0,1,0,NA,NA,NA,NA,NA,NA,NA,NA,NA,NA,NA,NA,NA,NA,NA,NA,NA,NA,NA,NA,NA,NA,NA,NA
"448","stim/objects/Instruments/electricdrumset.png",254,22,247,0.7,"stim/14.jpeg",1,4,2,2,"Instruments",2,2,"right","right",0.604000092,1,1,1,0,NA,NA,NA,NA,NA,NA,NA,NA,NA,NA,NA,NA,NA,NA,NA,NA,NA,NA,NA,NA,NA,NA,NA,NA
"449","stim/objects/Instruments/electricdrumset.png",255,22,248,0.7,"stim/13.jpeg",1,3,2,2,"Instruments",2,4,"right","right",0.665999889,1,1,1,0,NA,NA,NA,NA,NA,NA,NA,NA,NA,NA,NA,NA,NA,NA,NA,NA,NA,NA,NA,NA,NA,NA,NA,NA
"489","stim/objects/Instruments/flutetrans2.png",256,22,249,0.9,"stim/34.jpeg",3,4,3,1,"Instruments",2,4,"right","right",0.727999926,1,1,1,0,164,22,1,0.9,2,"stim/34.jpeg",3,4,"stim/34.jpeg",4,"left",0.986999989,4,2,1.506000042,3,0.995000124,164,1,0,0,0,0,1
"378","stim/objects/HouseObjects/hairdryer.png",257,22,250,0.5,"stim/54.jpeg",5,4,1,1,"HouseObjects",1,3,"left","left",0.635999918,1,1,1,0,181,22,1,0.5,1,"stim/54.jpeg",5,4,"stim/54.jpeg",3,"left",1.786000013,4,1,1.495000124,2,1.302999973,181,1,0,0,0,0,1
"358","stim/objects/HouseObjects/garbagebin2.png",258,22,251,0.1,"stim/34.jpeg",3,4,3,1,"HouseObjects",1,4,"left","right",0.557999849,0,0,1,0,136,22,1,0.1,1,"stim/34.jpeg",3,4,"stim/34.jpeg",4,"right",0.754999876,2,4,1.753000021,3,0.736000299,136,0,1,NA,0,NA,1
"343","stim/objects/HouseObjects/garbagebin.png",259,22,252,0.9,"stim/41.jpeg",4,1,3,2,"HouseObjects",1,3,"left","left",0.478999853,1,1,1,0,NA,NA,NA,NA,NA,NA,NA,NA,NA,NA,NA,NA,NA,NA,NA,NA,NA,NA,NA,NA,NA,NA,NA,NA
"508","stim/objects/Instruments/gong.png",260,22,253,0.9,"stim/34.jpeg",3,4,3,2,"Instruments",2,4,"right","right",0.478999853,1,1,1,0,NA,NA,NA,NA,NA,NA,NA,NA,NA,NA,NA,NA,NA,NA,NA,NA,NA,NA,NA,NA,NA,NA,NA,NA
"420","stim/objects/Instruments/bassdrum2.png",261,22,254,0.7,"stim/13.jpeg",1,3,2,1,"Instruments",2,1,"right","right",0.730000019,1,1,1,0,69,22,1,0.7,2,"stim/13.jpeg",1,3,"stim/13.jpeg",1,"left",0.839000225,3,3,1.042999983,2,1.522000074,69,1,1,1,0,0,1
"457","stim/objects/Instruments/flute.png",262,22,255,0.9,"stim/33.jpeg",3,3,3,2,"Instruments",2,1,"right","right",0.561999798,1,1,1,0,NA,NA,NA,NA,NA,NA,NA,NA,NA,NA,NA,NA,NA,NA,NA,NA,NA,NA,NA,NA,NA,NA,NA,NA
"326","stim/objects/HouseObjects/flyswatter.png",263,22,256,0.9,"stim/42.jpeg",4,2,3,2,"HouseObjects",1,2,"left","left",0.65899992,1,1,1,0,NA,NA,NA,NA,NA,NA,NA,NA,NA,NA,NA,NA,NA,NA,NA,NA,NA,NA,NA,NA,NA,NA,NA,NA
"327","stim/objects/HouseObjects/flyswatter.png",264,22,257,0.9,"stim/41.jpeg",4,1,3,2,"HouseObjects",1,1,"left","left",0.54399991,1,1,1,0,NA,NA,NA,NA,NA,NA,NA,NA,NA,NA,NA,NA,NA,NA,NA,NA,NA,NA,NA,NA,NA,NA,NA,NA
"291","stim/objects/HouseObjects/doormat.png",265,22,258,0.9,"stim/42.jpeg",4,2,3,2,"HouseObjects",1,1,"left","left",0.689999819,1,1,1,0,NA,NA,NA,NA,NA,NA,NA,NA,NA,NA,NA,NA,NA,NA,NA,NA,NA,NA,NA,NA,NA,NA,NA,NA
"526","stim/objects/Instruments/grandpiano.png",266,22,259,0.9,"stim/34.jpeg",3,4,3,2,"Instruments",2,4,"right","right",0.512999773,1,1,1,0,NA,NA,NA,NA,NA,NA,NA,NA,NA,NA,NA,NA,NA,NA,NA,NA,NA,NA,NA,NA,NA,NA,NA,NA
"405","stim/objects/HouseObjects/wateringcan2.png",267,22,260,0.9,"stim/42.jpeg",4,2,3,1,"HouseObjects",1,4,"left","left",0.588000059,1,1,1,0,35,22,1,0.9,1,"stim/42.jpeg",4,2,"stim/42.jpeg",4,"right",0.843000174,2,3,3.071000099,2,1.805999994,35,0,0,NA,0,NA,1
"473","stim/objects/Instruments/flutetrans.png",268,22,261,0.9,"stim/33.jpeg",3,3,3,2,"Instruments",2,3,"right","right",0.570999861,1,1,1,0,NA,NA,NA,NA,NA,NA,NA,NA,NA,NA,NA,NA,NA,NA,NA,NA,NA,NA,NA,NA,NA,NA,NA,NA
"383","stim/objects/HouseObjects/handvacuum2.png",269,22,262,0.1,"stim/31.jpeg",3,1,3,1,"HouseObjects",1,2,"left","right",0.64199996,0,0,1,0,66,22,1,0.1,1,"stim/31.jpeg",3,1,"stim/31.jpeg",2,"left",0.887000084,4,4,2.558000088,3,1.101999998,66,1,0,0,0,0,1
"328","stim/objects/HouseObjects/flyswatter.png",270,22,263,0.9,"stim/44.jpeg",4,4,3,2,"HouseObjects",1,2,"left","left",0.537999868,1,1,1,0,NA,NA,NA,NA,NA,NA,NA,NA,NA,NA,NA,NA,NA,NA,NA,NA,NA,NA,NA,NA,NA,NA,NA,NA
"341","stim/objects/HouseObjects/flyswatter2.png",271,22,264,0.1,"stim/33.jpeg",3,3,3,1,"HouseObjects",1,3,"left","right",0.546000004,0,0,1,0,8,22,1,0.1,1,"stim/33.jpeg",3,3,"stim/33.jpeg",3,"right",0.854000092,3,2,3.638000011,2,3.602000237,8,0,0,NA,0,NA,1
"292","stim/objects/HouseObjects/doormat.png",272,22,265,0.9,"stim/41.jpeg",4,1,3,2,"HouseObjects",1,2,"left","left",0.570999861,1,1,1,0,NA,NA,NA,NA,NA,NA,NA,NA,NA,NA,NA,NA,NA,NA,NA,NA,NA,NA,NA,NA,NA,NA,NA,NA
"430","stim/objects/Instruments/clarinet.png",273,22,266,0.5,"stim/62.jpeg",6,2,1,2,"Instruments",2,2,"right","right",0.602999926,1,1,1,0,NA,NA,NA,NA,NA,NA,NA,NA,NA,NA,NA,NA,NA,NA,NA,NA,NA,NA,NA,NA,NA,NA,NA,NA
"528","stim/objects/Instruments/grandpiano.png",274,22,267,0.9,"stim/31.jpeg",3,1,3,2,"Instruments",2,4,"right","right",0.505000114,1,1,1,0,NA,NA,NA,NA,NA,NA,NA,NA,NA,NA,NA,NA,NA,NA,NA,NA,NA,NA,NA,NA,NA,NA,NA,NA
"509","stim/objects/Instruments/gong.png",275,22,268,0.9,"stim/33.jpeg",3,3,3,2,"Instruments",2,3,"right","left",0.74000001,0,0,1,0,NA,NA,NA,NA,NA,NA,NA,NA,NA,NA,NA,NA,NA,NA,NA,NA,NA,NA,NA,NA,NA,NA,NA,NA
"458","stim/objects/Instruments/flute.png",276,22,269,0.9,"stim/34.jpeg",3,4,3,2,"Instruments",2,2,"right","right",0.570999861,1,1,1,0,NA,NA,NA,NA,NA,NA,NA,NA,NA,NA,NA,NA,NA,NA,NA,NA,NA,NA,NA,NA,NA,NA,NA,NA
"529","stim/objects/Instruments/grandpiano.png",277,22,270,0.9,"stim/33.jpeg",3,3,3,2,"Instruments",2,2,"right","left",0.767999887,0,0,1,0,NA,NA,NA,NA,NA,NA,NA,NA,NA,NA,NA,NA,NA,NA,NA,NA,NA,NA,NA,NA,NA,NA,NA,NA
"388","stim/objects/HouseObjects/scale.png",278,22,271,0.5,"stim/62.jpeg",6,2,1,1,"HouseObjects",1,2,"left","right",0.557999849,0,0,1,0,178,22,1,0.5,2,"stim/62.jpeg",6,2,"stim/62.jpeg",2,"left",1.22300005,4,1,3.30099988,2,1.311000109,178,1,0,0,1,1,1
"268","stim/objects/HouseObjects/clock.png",279,22,272,0.5,"stim/63.jpeg",6,3,1,2,"HouseObjects",1,4,"left","right",0.460999966,0,0,1,0,NA,NA,NA,NA,NA,NA,NA,NA,NA,NA,NA,NA,NA,NA,NA,NA,NA,NA,NA,NA,NA,NA,NA,NA
"474","stim/objects/Instruments/flutetrans.png",280,22,273,0.9,"stim/34.jpeg",3,4,3,2,"Instruments",2,4,"right","right",0.536999941,1,1,1,0,NA,NA,NA,NA,NA,NA,NA,NA,NA,NA,NA,NA,NA,NA,NA,NA,NA,NA,NA,NA,NA,NA,NA,NA
"409","stim/objects/Instruments/acousticguitar.png",281,22,274,0.5,"stim/52.jpeg",5,2,1,2,"Instruments",2,1,"right","left",0.616999865,0,0,1,0,NA,NA,NA,NA,NA,NA,NA,NA,NA,NA,NA,NA,NA,NA,NA,NA,NA,NA,NA,NA,NA,NA,NA,NA
"329","stim/objects/HouseObjects/flyswatter.png",282,22,275,0.9,"stim/42.jpeg",4,2,3,2,"HouseObjects",1,1,"left","left",0.628000021,1,1,1,0,NA,NA,NA,NA,NA,NA,NA,NA,NA,NA,NA,NA,NA,NA,NA,NA,NA,NA,NA,NA,NA,NA,NA,NA
"410","stim/objects/Instruments/acousticguitar.png",283,22,276,0.5,"stim/51.jpeg",5,1,1,2,"Instruments",2,3,"right","left",0.743000031,0,0,1,0,NA,NA,NA,NA,NA,NA,NA,NA,NA,NA,NA,NA,NA,NA,NA,NA,NA,NA,NA,NA,NA,NA,NA,NA
"433","stim/objects/Instruments/cornet.png",284,22,277,0.5,"stim/62.jpeg",6,2,1,2,"Instruments",2,2,"right","right",0.622999907,1,1,1,0,NA,NA,NA,NA,NA,NA,NA,NA,NA,NA,NA,NA,NA,NA,NA,NA,NA,NA,NA,NA,NA,NA,NA,NA
"472","stim/objects/Instruments/flute2.png",285,22,278,0.9,"stim/33.jpeg",3,3,3,1,"Instruments",2,4,"right","right",0.659999847,1,1,1,0,167,22,1,0.9,2,"stim/33.jpeg",3,3,"stim/33.jpeg",4,"left",0.937000275,3,4,0.839000225,2,0.774000168,167,1,0,0,0,0,1
"510","stim/objects/Instruments/gong.png",286,22,279,0.9,"stim/33.jpeg",3,3,3,2,"Instruments",2,2,"right","right",0.692000151,1,1,1,0,NA,NA,NA,NA,NA,NA,NA,NA,NA,NA,NA,NA,NA,NA,NA,NA,NA,NA,NA,NA,NA,NA,NA,NA
"491","stim/objects/Instruments/frenchhorn.png",287,22,280,0.9,"stim/33.jpeg",3,3,3,2,"Instruments",2,3,"right","right",0.708999872,1,1,1,0,NA,NA,NA,NA,NA,NA,NA,NA,NA,NA,NA,NA,NA,NA,NA,NA,NA,NA,NA,NA,NA,NA,NA,NA
"359","stim/objects/HouseObjects/glass.png",288,22,281,0.9,"stim/44.jpeg",4,4,3,2,"HouseObjects",1,4,"left","left",0.613999844,1,1,1,0,NA,NA,NA,NA,NA,NA,NA,NA,NA,NA,NA,NA,NA,NA,NA,NA,NA,NA,NA,NA,NA,NA,NA,NA
"560","stim/objects/Instruments/trombone2.png",289,22,282,0.1,"stim/43.jpeg",4,3,3,1,"Instruments",2,4,"right","left",0.553999901,0,0,1,0,196,22,1,0.1,2,"stim/43.jpeg",4,3,"stim/43.jpeg",4,"left",0.976999998,3,2,2.372000217,4,0.786999941,196,1,0,0,1,1,1
"271","stim/objects/HouseObjects/clothesdryingrack.png",290,22,283,0.7,"stim/22.jpeg",2,2,2,2,"HouseObjects",1,1,"left","left",0.725999832,1,1,1,0,NA,NA,NA,NA,NA,NA,NA,NA,NA,NA,NA,NA,NA,NA,NA,NA,NA,NA,NA,NA,NA,NA,NA,NA
"308","stim/objects/HouseObjects/dustpan.png",291,22,284,0.9,"stim/43.jpeg",4,3,3,2,"HouseObjects",1,2,"left","left",0.627999783,1,1,1,0,NA,NA,NA,NA,NA,NA,NA,NA,NA,NA,NA,NA,NA,NA,NA,NA,NA,NA,NA,NA,NA,NA,NA,NA
"330","stim/objects/HouseObjects/flyswatter.png",292,22,285,0.9,"stim/43.jpeg",4,3,3,2,"HouseObjects",1,4,"left","left",0.5849998,1,1,1,0,NA,NA,NA,NA,NA,NA,NA,NA,NA,NA,NA,NA,NA,NA,NA,NA,NA,NA,NA,NA,NA,NA,NA,NA
"346","stim/objects/HouseObjects/garbagebin.png",293,22,286,0.9,"stim/43.jpeg",4,3,3,2,"HouseObjects",1,3,"left","left",0.553999901,1,1,1,0,NA,NA,NA,NA,NA,NA,NA,NA,NA,NA,NA,NA,NA,NA,NA,NA,NA,NA,NA,NA,NA,NA,NA,NA
"249","stim/objects/HouseObjects/barbecuelighter2.png",294,22,287,0.3,"stim/14.jpeg",1,4,2,1,"HouseObjects",1,3,"left","right",0.604000092,0,0,1,0,142,22,1,0.3,1,"stim/14.jpeg",1,4,"stim/14.jpeg",3,"left",1.154999971,3,2,1.257000208,1,0.98300004,142,1,0,0,0,0,1
"475","stim/objects/Instruments/flutetrans.png",295,22,288,0.9,"stim/31.jpeg",3,1,3,2,"Instruments",2,1,"right","right",0.558999777,1,1,1,0,NA,NA,NA,NA,NA,NA,NA,NA,NA,NA,NA,NA,NA,NA,NA,NA,NA,NA,NA,NA,NA,NA,NA,NA
"275","stim/objects/HouseObjects/clothespin.png",296,22,289,0.7,"stim/24.jpeg",2,4,2,2,"HouseObjects",1,3,"left","left",0.633999825,1,1,1,0,NA,NA,NA,NA,NA,NA,NA,NA,NA,NA,NA,NA,NA,NA,NA,NA,NA,NA,NA,NA,NA,NA,NA,NA
"447","stim/objects/Instruments/drums2.png",297,22,290,0.3,"stim/21.jpeg",2,1,2,1,"Instruments",2,3,"right","left",0.551999807,0,0,1,0,147,22,1,0.3,2,"stim/21.jpeg",2,1,"stim/21.jpeg",3,"left",0.90500021,2,1,1.22300005,3,0.553000212,147,1,1,1,1,1,1
"545","stim/objects/Instruments/harp.png",298,22,291,0.5,"stim/54.jpeg",5,4,1,1,"Instruments",2,4,"right","right",0.81099987,1,1,1,0,140,22,1,0.5,1,"stim/54.jpeg",5,4,"stim/54.jpeg",4,"left",0.904999971,3,2,0.621999979,3,0.537000179,140,1,0,0,0,0,1
"476","stim/objects/Instruments/flutetrans.png",299,22,292,0.9,"stim/32.jpeg",3,2,3,2,"Instruments",2,1,"right","right",0.661999941,1,1,1,0,NA,NA,NA,NA,NA,NA,NA,NA,NA,NA,NA,NA,NA,NA,NA,NA,NA,NA,NA,NA,NA,NA,NA,NA
"437","stim/objects/Instruments/cymbal.png",300,22,293,0.7,"stim/13.jpeg",1,3,2,2,"Instruments",2,2,"right","right",0.541999817,1,1,1,0,NA,NA,NA,NA,NA,NA,NA,NA,NA,NA,NA,NA,NA,NA,NA,NA,NA,NA,NA,NA,NA,NA,NA,NA
"506","stim/objects/Instruments/frenchhorn2.png",301,22,294,0.9,"stim/31.jpeg",3,1,3,1,"Instruments",2,1,"right","right",0.65899992,1,1,1,0,179,22,1,0.9,2,"stim/31.jpeg",3,1,"stim/31.jpeg",1,"right",1.690999985,2,2,1.003000259,3,0.586000204,179,0,0,NA,0,NA,1
"263","stim/objects/HouseObjects/broom.png",302,22,295,0.5,"stim/62.jpeg",6,2,1,2,"HouseObjects",1,2,"left","right",0.714999914,0,0,1,0,NA,NA,NA,NA,NA,NA,NA,NA,NA,NA,NA,NA,NA,NA,NA,NA,NA,NA,NA,NA,NA,NA,NA,NA
"477","stim/objects/Instruments/flutetrans.png",303,22,296,0.9,"stim/31.jpeg",3,1,3,2,"Instruments",2,4,"right","right",0.602999926,1,1,1,0,NA,NA,NA,NA,NA,NA,NA,NA,NA,NA,NA,NA,NA,NA,NA,NA,NA,NA,NA,NA,NA,NA,NA,NA
"309","stim/objects/HouseObjects/dustpan.png",304,22,297,0.9,"stim/44.jpeg",4,4,3,2,"HouseObjects",1,1,"left","left",0.648999929,1,1,1,0,NA,NA,NA,NA,NA,NA,NA,NA,NA,NA,NA,NA,NA,NA,NA,NA,NA,NA,NA,NA,NA,NA,NA,NA
"568","stim/objects/Instruments/vuvuzela2.png",305,22,298,0.1,"stim/43.jpeg",4,3,3,1,"Instruments",2,3,"right","left",0.556999922,0,0,1,0,148,22,1,0.1,2,"stim/43.jpeg",4,3,"stim/43.jpeg",3,"left",0.954999924,3,4,1.289000034,3,0.855999947,148,1,0,0,1,1,1
"555","stim/objects/Instruments/timbal.png",306,22,299,0.5,"stim/62.jpeg",6,2,1,1,"Instruments",2,4,"right","right",0.493999958,1,1,1,0,127,22,1,0.5,2,"stim/62.jpeg",6,2,"stim/62.jpeg",4,"left",1.161999941,2,2,1.723000288,4,1.009000063,127,1,1,1,1,1,1
"511","stim/objects/Instruments/gong.png",307,22,300,0.9,"stim/31.jpeg",3,1,3,2,"Instruments",2,3,"right","left",0.50999999,0,0,1,0,NA,NA,NA,NA,NA,NA,NA,NA,NA,NA,NA,NA,NA,NA,NA,NA,NA,NA,NA,NA,NA,NA,NA,NA
"310","stim/objects/HouseObjects/dustpan.png",308,22,301,0.9,"stim/41.jpeg",4,1,3,2,"HouseObjects",1,2,"left","left",0.605999947,1,1,1,0,NA,NA,NA,NA,NA,NA,NA,NA,NA,NA,NA,NA,NA,NA,NA,NA,NA,NA,NA,NA,NA,NA,NA,NA
"523","stim/objects/Instruments/gong2.png",309,22,302,0.9,"stim/32.jpeg",3,2,3,1,"Instruments",2,2,"right","right",0.726000071,1,1,1,0,80,22,1,0.9,2,"stim/32.jpeg",3,2,"stim/32.jpeg",2,"left",1.238000154,1,2,1.640000105,2,1.170000076,80,1,1,1,1,1,1
"492","stim/objects/Instruments/frenchhorn.png",310,22,303,0.9,"stim/32.jpeg",3,2,3,2,"Instruments",2,1,"right","right",0.684999943,1,1,1,0,NA,NA,NA,NA,NA,NA,NA,NA,NA,NA,NA,NA,NA,NA,NA,NA,NA,NA,NA,NA,NA,NA,NA,NA
"259","stim/objects/HouseObjects/bottle.png",311,22,304,0.5,"stim/64.jpeg",6,4,1,2,"HouseObjects",1,3,"left","right",0.669000149,0,0,1,0,NA,NA,NA,NA,NA,NA,NA,NA,NA,NA,NA,NA,NA,NA,NA,NA,NA,NA,NA,NA,NA,NA,NA,NA
"269","stim/objects/HouseObjects/clock.png",312,22,305,0.5,"stim/64.jpeg",6,4,1,2,"HouseObjects",1,1,"left","right",0.855000019,0,0,1,0,NA,NA,NA,NA,NA,NA,NA,NA,NA,NA,NA,NA,NA,NA,NA,NA,NA,NA,NA,NA,NA,NA,NA,NA
"493","stim/objects/Instruments/frenchhorn.png",313,22,306,0.9,"stim/33.jpeg",3,3,3,2,"Instruments",2,4,"right","right",0.605000019,1,1,1,0,NA,NA,NA,NA,NA,NA,NA,NA,NA,NA,NA,NA,NA,NA,NA,NA,NA,NA,NA,NA,NA,NA,NA,NA
"348","stim/objects/HouseObjects/garbagebin.png",314,22,307,0.9,"stim/41.jpeg",4,1,3,2,"HouseObjects",1,2,"left","left",0.517999887,1,1,1,0,NA,NA,NA,NA,NA,NA,NA,NA,NA,NA,NA,NA,NA,NA,NA,NA,NA,NA,NA,NA,NA,NA,NA,NA
"387","stim/objects/HouseObjects/saw2.png",315,22,308,0.9,"stim/41.jpeg",4,1,3,1,"HouseObjects",1,3,"left","left",0.625999928,1,1,1,0,16,22,1,0.9,1,"stim/41.jpeg",4,1,"stim/41.jpeg",3,"left",1.121999979,4,4,4.804000139,1,1.686000109,16,1,0,0,0,0,1
"460","stim/objects/Instruments/flute.png",316,22,309,0.9,"stim/34.jpeg",3,4,3,2,"Instruments",2,1,"right","right",0.528999805,1,1,1,0,NA,NA,NA,NA,NA,NA,NA,NA,NA,NA,NA,NA,NA,NA,NA,NA,NA,NA,NA,NA,NA,NA,NA,NA
"494","stim/objects/Instruments/frenchhorn.png",317,22,310,0.9,"stim/33.jpeg",3,3,3,2,"Instruments",2,1,"right","right",0.607999802,1,1,1,0,NA,NA,NA,NA,NA,NA,NA,NA,NA,NA,NA,NA,NA,NA,NA,NA,NA,NA,NA,NA,NA,NA,NA,NA
"345","stim/objects/HouseObjects/garbagebin.png",318,22,311,0.9,"stim/44.jpeg",4,4,3,2,"HouseObjects",1,3,"left","left",0.565999985,1,1,1,0,NA,NA,NA,NA,NA,NA,NA,NA,NA,NA,NA,NA,NA,NA,NA,NA,NA,NA,NA,NA,NA,NA,NA,NA
"244","stim/objects/HouseObjects/ballofstring.png",319,22,312,0.5,"stim/52.jpeg",5,2,1,2,"HouseObjects",1,2,"left","left",0.699999809,1,1,1,0,NA,NA,NA,NA,NA,NA,NA,NA,NA,NA,NA,NA,NA,NA,NA,NA,NA,NA,NA,NA,NA,NA,NA,NA
"478","stim/objects/Instruments/flutetrans.png",320,22,313,0.9,"stim/33.jpeg",3,3,3,2,"Instruments",2,3,"right","right",0.609999895,1,1,1,0,NA,NA,NA,NA,NA,NA,NA,NA,NA,NA,NA,NA,NA,NA,NA,NA,NA,NA,NA,NA,NA,NA,NA,NA
"512","stim/objects/Instruments/gong.png",321,22,314,0.9,"stim/33.jpeg",3,3,3,2,"Instruments",2,2,"right","right",0.635999918,1,1,1,0,NA,NA,NA,NA,NA,NA,NA,NA,NA,NA,NA,NA,NA,NA,NA,NA,NA,NA,NA,NA,NA,NA,NA,NA
"255","stim/objects/HouseObjects/bleachbottle2.png",322,22,315,0.3,"stim/12.jpeg",1,2,2,1,"HouseObjects",1,4,"left","right",0.711999893,0,0,1,0,111,22,1,0.3,1,"stim/12.jpeg",1,2,"stim/12.jpeg",4,"right",1.370000124,2,3,0.70600009,1,0.710999966,111,0,0,NA,0,NA,1
"514","stim/objects/Instruments/gong.png",323,22,316,0.9,"stim/31.jpeg",3,1,3,2,"Instruments",2,3,"right","right",0.541999817,1,1,1,0,NA,NA,NA,NA,NA,NA,NA,NA,NA,NA,NA,NA,NA,NA,NA,NA,NA,NA,NA,NA,NA,NA,NA,NA
"461","stim/objects/Instruments/flute.png",324,22,317,0.9,"stim/31.jpeg",3,1,3,2,"Instruments",2,2,"right","right",0.555999994,1,1,1,0,NA,NA,NA,NA,NA,NA,NA,NA,NA,NA,NA,NA,NA,NA,NA,NA,NA,NA,NA,NA,NA,NA,NA,NA
"241","stim/objects/HouseObjects/ashtray.png",325,22,318,0.5,"stim/51.jpeg",5,1,1,2,"HouseObjects",1,3,"left","left",0.687999964,1,1,1,0,NA,NA,NA,NA,NA,NA,NA,NA,NA,NA,NA,NA,NA,NA,NA,NA,NA,NA,NA,NA,NA,NA,NA,NA
"258","stim/objects/HouseObjects/blender2.png",326,22,319,0.7,"stim/24.jpeg",2,4,2,1,"HouseObjects",1,3,"left","left",0.603999853,1,1,1,0,192,22,1,0.7,1,"stim/24.jpeg",2,4,"stim/24.jpeg",3,"right",1.154000044,2,2,1.020999908,3,0.631000042,192,0,0,NA,1,NA,1
"264","stim/objects/HouseObjects/broom2.png",327,22,320,0.7,"stim/22.jpeg",2,2,2,1,"HouseObjects",1,4,"left","left",0.65199995,1,1,1,0,156,22,1,0.7,1,"stim/22.jpeg",2,2,"stim/22.jpeg",4,"right",0.955000162,2,2,0.959000111,3,0.700999975,156,0,1,NA,0,NA,1
"439","stim/objects/Instruments/cymbal2.png",328,22,321,0.3,"stim/23.jpeg",2,3,2,1,"Instruments",2,4,"right","left",0.601999998,0,0,1,0,166,22,1,0.3,2,"stim/23.jpeg",2,3,"stim/23.jpeg",4,"left",1.624000072,4,1,2.090000153,3,1.838999987,166,1,0,0,0,0,1
"276","stim/objects/HouseObjects/clothespin.png",329,22,322,0.7,"stim/23.jpeg",2,3,2,2,"HouseObjects",1,2,"left","left",0.740999937,1,1,1,0,NA,NA,NA,NA,NA,NA,NA,NA,NA,NA,NA,NA,NA,NA,NA,NA,NA,NA,NA,NA,NA,NA,NA,NA
"563","stim/objects/Instruments/tuba.png",330,22,323,0.7,"stim/13.jpeg",1,3,2,1,"Instruments",2,3,"right","right",0.536000013,1,1,1,0,21,22,1,0.7,2,"stim/13.jpeg",1,3,"stim/13.jpeg",3,"left",1.036999941,3,1,2.421000004,4,1.289999962,21,1,0,0,0,0,1
"266","stim/objects/HouseObjects/bucket.png",331,22,324,0.5,"stim/62.jpeg",6,2,1,2,"HouseObjects",1,4,"left","right",0.542999983,0,0,1,0,NA,NA,NA,NA,NA,NA,NA,NA,NA,NA,NA,NA,NA,NA,NA,NA,NA,NA,NA,NA,NA,NA,NA,NA
"272","stim/objects/HouseObjects/clothesdryingrack.png",332,22,325,0.7,"stim/23.jpeg",2,3,2,2,"HouseObjects",1,4,"left","left",0.559000015,1,1,1,0,NA,NA,NA,NA,NA,NA,NA,NA,NA,NA,NA,NA,NA,NA,NA,NA,NA,NA,NA,NA,NA,NA,NA,NA
"311","stim/objects/HouseObjects/dustpan.png",333,22,326,0.9,"stim/41.jpeg",4,1,3,2,"HouseObjects",1,2,"left","left",0.559999943,1,1,1,0,NA,NA,NA,NA,NA,NA,NA,NA,NA,NA,NA,NA,NA,NA,NA,NA,NA,NA,NA,NA,NA,NA,NA,NA
"349","stim/objects/HouseObjects/garbagebin.png",334,22,327,0.9,"stim/42.jpeg",4,2,3,2,"HouseObjects",1,1,"left","left",0.610999823,1,1,1,0,NA,NA,NA,NA,NA,NA,NA,NA,NA,NA,NA,NA,NA,NA,NA,NA,NA,NA,NA,NA,NA,NA,NA,NA
"253","stim/objects/HouseObjects/bleachbottle.png",335,22,328,0.5,"stim/51.jpeg",5,1,1,2,"HouseObjects",1,4,"left","right",0.618999958,0,0,1,0,NA,NA,NA,NA,NA,NA,NA,NA,NA,NA,NA,NA,NA,NA,NA,NA,NA,NA,NA,NA,NA,NA,NA,NA
"312","stim/objects/HouseObjects/dustpan.png",336,22,329,0.9,"stim/41.jpeg",4,1,3,2,"HouseObjects",1,2,"left","left",0.519999981,1,1,1,0,NA,NA,NA,NA,NA,NA,NA,NA,NA,NA,NA,NA,NA,NA,NA,NA,NA,NA,NA,NA,NA,NA,NA,NA
"495","stim/objects/Instruments/frenchhorn.png",337,22,330,0.9,"stim/32.jpeg",3,2,3,2,"Instruments",2,4,"right","right",0.633999825,1,1,1,0,NA,NA,NA,NA,NA,NA,NA,NA,NA,NA,NA,NA,NA,NA,NA,NA,NA,NA,NA,NA,NA,NA,NA,NA
"553","stim/objects/Instruments/tambourine.png",338,22,331,0.5,"stim/61.jpeg",6,1,1,1,"Instruments",2,2,"right","right",0.729999781,1,1,1,0,30,22,1,0.5,2,"stim/61.jpeg",6,1,"stim/61.jpeg",2,"right",1.077000141,2,2,4.893000126,4,1.937999964,30,0,0,NA,0,NA,1
"267","stim/objects/HouseObjects/bucket2.png",339,22,332,0.7,"stim/23.jpeg",2,3,2,1,"HouseObjects",1,3,"left","left",0.585999966,1,1,1,0,171,22,1,0.7,1,"stim/23.jpeg",2,3,"stim/23.jpeg",3,"left",1.019000053,2,3,0.890000105,1,0.910000086,171,1,1,1,0,0,1
"376","stim/objects/HouseObjects/glassmop.png",340,22,333,0.5,"stim/53.jpeg",5,3,1,1,"HouseObjects",1,3,"left","right",0.582000017,0,0,1,0,58,22,1,0.5,1,"stim/53.jpeg",5,3,"stim/53.jpeg",3,"left",0.703999996,4,3,5.893000126,2,1.220999956,58,1,1,1,0,0,1
"497","stim/objects/Instruments/frenchhorn.png",341,22,334,0.9,"stim/34.jpeg",3,4,3,2,"Instruments",2,1,"right","right",0.5849998,1,1,1,0,NA,NA,NA,NA,NA,NA,NA,NA,NA,NA,NA,NA,NA,NA,NA,NA,NA,NA,NA,NA,NA,NA,NA,NA
"462","stim/objects/Instruments/flute.png",342,22,335,0.9,"stim/33.jpeg",3,3,3,2,"Instruments",2,2,"right","right",0.691999912,1,1,1,0,NA,NA,NA,NA,NA,NA,NA,NA,NA,NA,NA,NA,NA,NA,NA,NA,NA,NA,NA,NA,NA,NA,NA,NA
"498","stim/objects/Instruments/frenchhorn.png",343,22,336,0.9,"stim/31.jpeg",3,1,3,2,"Instruments",2,1,"right","right",0.470999956,1,1,1,0,NA,NA,NA,NA,NA,NA,NA,NA,NA,NA,NA,NA,NA,NA,NA,NA,NA,NA,NA,NA,NA,NA,NA,NA
"516","stim/objects/Instruments/gong.png",344,22,337,0.9,"stim/34.jpeg",3,4,3,2,"Instruments",2,4,"right","right",0.512000084,1,1,1,0,NA,NA,NA,NA,NA,NA,NA,NA,NA,NA,NA,NA,NA,NA,NA,NA,NA,NA,NA,NA,NA,NA,NA,NA
"431","stim/objects/Instruments/clarinet.png",345,22,338,0.5,"stim/61.jpeg",6,1,1,2,"Instruments",2,4,"right","right",0.515999794,1,1,1,0,NA,NA,NA,NA,NA,NA,NA,NA,NA,NA,NA,NA,NA,NA,NA,NA,NA,NA,NA,NA,NA,NA,NA,NA
"517","stim/objects/Instruments/gong.png",346,22,339,0.9,"stim/31.jpeg",3,1,3,2,"Instruments",2,3,"right","right",0.520999908,1,1,1,0,NA,NA,NA,NA,NA,NA,NA,NA,NA,NA,NA,NA,NA,NA,NA,NA,NA,NA,NA,NA,NA,NA,NA,NA
"287","stim/objects/HouseObjects/dishsoap.png",347,22,340,0.7,"stim/23.jpeg",2,3,2,2,"HouseObjects",1,1,"left","",NA,0,0,1,0,NA,NA,NA,NA,NA,NA,NA,NA,NA,NA,NA,NA,NA,NA,NA,NA,NA,NA,NA,NA,NA,NA,NA,NA
"313","stim/objects/HouseObjects/dustpan.png",348,22,341,0.9,"stim/43.jpeg",4,3,3,2,"HouseObjects",1,4,"left","right",0.536000013,0,0,1,0,NA,NA,NA,NA,NA,NA,NA,NA,NA,NA,NA,NA,NA,NA,NA,NA,NA,NA,NA,NA,NA,NA,NA,NA
"444","stim/objects/Instruments/drums.png",349,22,342,0.7,"stim/12.jpeg",1,2,2,2,"Instruments",2,4,"right","right",0.570999861,1,1,1,0,NA,NA,NA,NA,NA,NA,NA,NA,NA,NA,NA,NA,NA,NA,NA,NA,NA,NA,NA,NA,NA,NA,NA,NA
"333","stim/objects/HouseObjects/flyswatter.png",350,22,343,0.9,"stim/43.jpeg",4,3,3,2,"HouseObjects",1,4,"left","right",0.539000034,0,0,1,0,NA,NA,NA,NA,NA,NA,NA,NA,NA,NA,NA,NA,NA,NA,NA,NA,NA,NA,NA,NA,NA,NA,NA,NA
"557","stim/objects/Instruments/triangle.png",351,22,344,0.5,"stim/63.jpeg",6,3,1,1,"Instruments",2,4,"right","right",0.583999872,1,1,1,0,13,22,1,0.5,2,"stim/63.jpeg",6,3,"stim/63.jpeg",4,"left",1.09100008,2,2,4.170000076,3,1.971000195,13,1,0,0,0,0,1
"411","stim/objects/Instruments/acousticguitar2.png",352,22,345,0.7,"stim/14.jpeg",1,4,2,1,"Instruments",2,4,"right","right",0.65199995,1,1,1,0,132,22,1,0.7,2,"stim/14.jpeg",1,4,"stim/14.jpeg",4,"left",1.308000088,2,4,0.879000187,2,1.070000172,132,1,1,1,0,0,1
"350","stim/objects/HouseObjects/garbagebin.png",353,22,346,0.9,"stim/43.jpeg",4,3,3,2,"HouseObjects",1,3,"left","left",0.549000025,1,1,1,0,NA,NA,NA,NA,NA,NA,NA,NA,NA,NA,NA,NA,NA,NA,NA,NA,NA,NA,NA,NA,NA,NA,NA,NA
"390","stim/objects/HouseObjects/sponge.png",354,22,347,0.5,"stim/63.jpeg",6,3,1,1,"HouseObjects",1,1,"left","right",0.604999781,0,0,1,0,9,22,1,0.5,2,"stim/63.jpeg",6,3,"stim/63.jpeg",1,"right",1.821000099,2,3,3.214999914,4,1.015000105,9,0,1,NA,0,NA,1
"314","stim/objects/HouseObjects/dustpan.png",355,22,348,0.9,"stim/44.jpeg",4,4,3,2,"HouseObjects",1,3,"left","left",0.718999863,1,1,1,0,NA,NA,NA,NA,NA,NA,NA,NA,NA,NA,NA,NA,NA,NA,NA,NA,NA,NA,NA,NA,NA,NA,NA,NA
"389","stim/objects/HouseObjects/scale2.png",356,22,349,0.9,"stim/42.jpeg",4,2,3,1,"HouseObjects",1,4,"left","left",0.598999977,1,1,1,0,146,22,1,0.9,1,"stim/42.jpeg",4,2,"stim/42.jpeg",4,"right",0.789000034,2,4,1.090000153,1,0.805000067,146,0,0,NA,0,NA,1
"541","stim/objects/Instruments/guitarcase.png",357,22,350,0.5,"stim/52.jpeg",5,2,1,1,"Instruments",2,3,"right","left",0.682999849,0,0,1,0,68,22,1,0.5,1,"stim/52.jpeg",5,2,"stim/52.jpeg",3,"left",0.874000072,4,2,2.154000282,1,1.406000137,68,1,1,1,0,0,1
"404","stim/objects/HouseObjects/wateringcan.png",358,22,351,0.3,"stim/11.jpeg",1,1,2,1,"HouseObjects",1,1,"left","right",0.631999969,0,0,1,0,101,22,1,0.3,1,"stim/11.jpeg",1,1,"stim/11.jpeg",1,"right",0.787000179,2,3,1.355000019,3,0.804000139,101,0,0,NA,0,NA,1
"465","stim/objects/Instruments/flute.png",359,22,352,0.9,"stim/32.jpeg",3,2,3,2,"Instruments",2,4,"right","right",0.674999952,1,1,1,0,NA,NA,NA,NA,NA,NA,NA,NA,NA,NA,NA,NA,NA,NA,NA,NA,NA,NA,NA,NA,NA,NA,NA,NA
"559","stim/objects/Instruments/trombone.png",360,22,353,0.5,"stim/64.jpeg",6,4,1,1,"Instruments",2,1,"right","left",0.740999937,0,0,1,0,33,22,1,0.5,2,"stim/64.jpeg",6,4,"stim/64.jpeg",1,"left",0.805999994,2,2,4.204000235,4,2.95600009,33,1,0,0,0,0,1
"519","stim/objects/Instruments/gong.png",361,22,354,0.9,"stim/32.jpeg",3,2,3,2,"Instruments",2,3,"right","right",0.577000141,1,1,1,0,NA,NA,NA,NA,NA,NA,NA,NA,NA,NA,NA,NA,NA,NA,NA,NA,NA,NA,NA,NA,NA,NA,NA,NA
"260","stim/objects/HouseObjects/bottle.png",362,22,355,0.5,"stim/61.jpeg",6,1,1,2,"HouseObjects",1,2,"left","right",0.64199996,0,0,1,0,NA,NA,NA,NA,NA,NA,NA,NA,NA,NA,NA,NA,NA,NA,NA,NA,NA,NA,NA,NA,NA,NA,NA,NA
"261","stim/objects/HouseObjects/bottle2.png",363,22,356,0.7,"stim/21.jpeg",2,1,2,1,"HouseObjects",1,1,"left","left",0.640999794,1,1,1,0,76,22,1,0.7,1,"stim/21.jpeg",2,1,"stim/21.jpeg",1,"right",1.085999966,2,2,1.539000034,3,0.872999907,76,0,0,NA,0,NA,1
"499","stim/objects/Instruments/frenchhorn.png",364,22,357,0.9,"stim/32.jpeg",3,2,3,2,"Instruments",2,2,"right","right",0.493999958,1,1,1,0,NA,NA,NA,NA,NA,NA,NA,NA,NA,NA,NA,NA,NA,NA,NA,NA,NA,NA,NA,NA,NA,NA,NA,NA
"365","stim/objects/HouseObjects/glass.png",365,22,358,0.9,"stim/43.jpeg",4,3,3,2,"HouseObjects",1,2,"left","left",0.519999981,1,1,1,0,NA,NA,NA,NA,NA,NA,NA,NA,NA,NA,NA,NA,NA,NA,NA,NA,NA,NA,NA,NA,NA,NA,NA,NA
"481","stim/objects/Instruments/flutetrans.png",366,22,359,0.9,"stim/34.jpeg",3,4,3,2,"Instruments",2,4,"right","right",0.523999929,1,1,1,0,NA,NA,NA,NA,NA,NA,NA,NA,NA,NA,NA,NA,NA,NA,NA,NA,NA,NA,NA,NA,NA,NA,NA,NA
"398","stim/objects/HouseObjects/thread.png",367,22,360,0.3,"stim/12.jpeg",1,2,2,1,"HouseObjects",1,3,"left","right",0.648000002,0,0,1,0,174,22,1,0.3,1,"stim/12.jpeg",1,2,"stim/12.jpeg",3,"left",0.959000111,2,4,0.84100008,3,0.770000219,174,1,0,0,1,1,1
"307","stim/objects/HouseObjects/doormat2.png",368,22,361,0.1,"stim/31.jpeg",3,1,3,1,"HouseObjects",1,1,"left","right",0.580999851,0,0,1,0,195,22,1,0.1,1,"stim/31.jpeg",3,1,"stim/31.jpeg",1,"left",1.090000153,4,3,2.442000151,2,1.924999952,195,1,0,0,0,0,1
"367","stim/objects/HouseObjects/glass.png",369,22,362,0.9,"stim/43.jpeg",4,3,3,2,"HouseObjects",1,1,"left","left",0.532999992,1,1,1,0,NA,NA,NA,NA,NA,NA,NA,NA,NA,NA,NA,NA,NA,NA,NA,NA,NA,NA,NA,NA,NA,NA,NA,NA
"294","stim/objects/HouseObjects/doormat.png",370,22,363,0.9,"stim/43.jpeg",4,3,3,2,"HouseObjects",1,1,"left","left",0.565999985,1,1,1,0,NA,NA,NA,NA,NA,NA,NA,NA,NA,NA,NA,NA,NA,NA,NA,NA,NA,NA,NA,NA,NA,NA,NA,NA
"298","stim/objects/HouseObjects/doormat.png",371,22,364,0.9,"stim/44.jpeg",4,4,3,2,"HouseObjects",1,2,"left","left",0.707000017,1,1,1,0,NA,NA,NA,NA,NA,NA,NA,NA,NA,NA,NA,NA,NA,NA,NA,NA,NA,NA,NA,NA,NA,NA,NA,NA
"315","stim/objects/HouseObjects/dustpan.png",372,22,365,0.9,"stim/41.jpeg",4,1,3,2,"HouseObjects",1,2,"left","left",0.52699995,1,1,1,0,NA,NA,NA,NA,NA,NA,NA,NA,NA,NA,NA,NA,NA,NA,NA,NA,NA,NA,NA,NA,NA,NA,NA,NA
"438","stim/objects/Instruments/cymbal.png",373,22,366,0.7,"stim/14.jpeg",1,4,2,2,"Instruments",2,2,"right","right",0.635999918,1,1,1,0,NA,NA,NA,NA,NA,NA,NA,NA,NA,NA,NA,NA,NA,NA,NA,NA,NA,NA,NA,NA,NA,NA,NA,NA
"351","stim/objects/HouseObjects/garbagebin.png",374,22,367,0.9,"stim/44.jpeg",4,4,3,2,"HouseObjects",1,1,"left","left",0.535999775,1,1,1,0,NA,NA,NA,NA,NA,NA,NA,NA,NA,NA,NA,NA,NA,NA,NA,NA,NA,NA,NA,NA,NA,NA,NA,NA
"299","stim/objects/HouseObjects/doormat.png",375,22,368,0.9,"stim/44.jpeg",4,4,3,2,"HouseObjects",1,1,"left","left",0.552999973,1,1,1,0,NA,NA,NA,NA,NA,NA,NA,NA,NA,NA,NA,NA,NA,NA,NA,NA,NA,NA,NA,NA,NA,NA,NA,NA
"543","stim/objects/Instruments/harmonica.png",376,22,369,0.5,"stim/53.jpeg",5,3,1,1,"Instruments",2,3,"right","left",0.760999918,0,0,1,0,38,22,1,0.5,1,"stim/53.jpeg",5,3,"stim/53.jpeg",3,"left",0.854000092,4,2,5.298000097,3,2.390000105,38,1,0,0,1,1,1
"507","stim/objects/Instruments/gong.png",377,22,370,0.9,"stim/34.jpeg",3,4,3,2,"Instruments",2,3,"right","right",0.588999987,1,1,1,0,NA,NA,NA,NA,NA,NA,NA,NA,NA,NA,NA,NA,NA,NA,NA,NA,NA,NA,NA,NA,NA,NA,NA,NA
"342","stim/objects/HouseObjects/garbagebin.png",378,22,371,0.9,"stim/42.jpeg",4,2,3,2,"HouseObjects",1,2,"left","left",0.628999949,1,1,1,0,NA,NA,NA,NA,NA,NA,NA,NA,NA,NA,NA,NA,NA,NA,NA,NA,NA,NA,NA,NA,NA,NA,NA,NA
"456","stim/objects/Instruments/flute.png",379,22,372,0.9,"stim/34.jpeg",3,4,3,2,"Instruments",2,4,"right","right",0.565000057,1,1,1,0,NA,NA,NA,NA,NA,NA,NA,NA,NA,NA,NA,NA,NA,NA,NA,NA,NA,NA,NA,NA,NA,NA,NA,NA
"408","stim/objects/Instruments/accordion2.png",380,22,373,0.7,"stim/13.jpeg",1,3,2,1,"Instruments",2,2,"right","right",0.616999865,1,1,1,0,19,22,1,0.7,2,"stim/13.jpeg",1,3,"stim/13.jpeg",2,"right",1.871000051,2,2,2.392000198,2,0.870000124,19,0,0,NA,1,NA,1
"454","stim/objects/Instruments/electricguitar.png",381,22,374,0.7,"stim/14.jpeg",1,4,2,2,"Instruments",2,4,"right","right",0.590999842,1,1,1,0,NA,NA,NA,NA,NA,NA,NA,NA,NA,NA,NA,NA,NA,NA,NA,NA,NA,NA,NA,NA,NA,NA,NA,NA
"397","stim/objects/HouseObjects/thermometer2.png",382,22,375,0.9,"stim/42.jpeg",4,2,3,1,"HouseObjects",1,1,"left","left",0.606999874,1,1,1,0,93,22,1,0.9,1,"stim/42.jpeg",4,2,"stim/42.jpeg",1,"right",0.960000038,1,3,1.005000114,2,0.778000116,93,0,0,NA,0,NA,1
"399","stim/objects/HouseObjects/thread2.png",383,22,376,0.9,"stim/43.jpeg",4,3,3,1,"HouseObjects",1,3,"left","left",0.642999887,1,1,1,0,78,22,1,0.9,1,"stim/43.jpeg",4,3,"stim/43.jpeg",3,"left",1.053999901,2,4,1.83100009,2,1.786000013,78,1,0,0,0,0,1
"386","stim/objects/HouseObjects/saw.png",384,22,377,0.5,"stim/61.jpeg",6,1,1,1,"HouseObjects",1,2,"left","right",0.615999937,0,0,1,0,161,22,1,0.5,2,"stim/61.jpeg",6,1,"stim/61.jpeg",2,"left",0.885000229,4,4,3.101000071,1,0.93900013,161,1,0,0,0,0,1
"480","stim/objects/Instruments/flutetrans.png",385,22,378,0.9,"stim/31.jpeg",3,1,3,2,"Instruments",2,3,"right","right",0.602999926,1,1,1,0,NA,NA,NA,NA,NA,NA,NA,NA,NA,NA,NA,NA,NA,NA,NA,NA,NA,NA,NA,NA,NA,NA,NA,NA
"273","stim/objects/HouseObjects/clothesdryingrack.png",386,22,379,0.7,"stim/21.jpeg",2,1,2,2,"HouseObjects",1,1,"left","left",0.486999989,1,1,1,0,NA,NA,NA,NA,NA,NA,NA,NA,NA,NA,NA,NA,NA,NA,NA,NA,NA,NA,NA,NA,NA,NA,NA,NA
"552","stim/objects/Instruments/speaker2.png",387,22,380,0.1,"stim/43.jpeg",4,3,3,1,"Instruments",2,1,"right","left",0.562999964,0,0,1,0,112,22,1,0.1,2,"stim/43.jpeg",4,3,"stim/43.jpeg",1,"right",0.855000019,2,4,0.726999998,3,0.85800004,112,0,0,NA,0,NA,1
"396","stim/objects/HouseObjects/thermometer.png",388,22,381,0.3,"stim/11.jpeg",1,1,2,1,"HouseObjects",1,1,"left","right",0.585999966,0,0,1,0,113,22,1,0.3,1,"stim/11.jpeg",1,1,"stim/11.jpeg",1,"right",0.820000172,1,3,1.200999975,4,1.202000141,113,0,0,NA,0,NA,1
"282","stim/objects/HouseObjects/coffee2.png",389,22,382,0.7,"stim/23.jpeg",2,3,2,1,"HouseObjects",1,2,"left","left",0.57400012,1,1,1,0,14,22,1,0.7,1,"stim/23.jpeg",2,3,"stim/23.jpeg",2,"left",1.623000145,4,4,4.57400012,3,1.286000252,14,1,0,0,0,0,1
"564","stim/objects/Instruments/tuba2.png",390,22,383,0.1,"stim/41.jpeg",4,1,3,1,"Instruments",2,3,"right","left",0.660000086,0,0,1,0,173,22,1,0.1,2,"stim/41.jpeg",4,1,"stim/41.jpeg",3,"right",0.800000191,3,4,0.851000071,1,0.660000086,173,0,0,NA,0,NA,1
"414","stim/objects/Instruments/balalaika2.png",391,22,384,0.7,"stim/11.jpeg",1,1,2,1,"Instruments",2,4,"right","right",0.636999846,1,1,1,0,184,22,1,0.7,2,"stim/11.jpeg",1,1,"stim/11.jpeg",4,"left",0.906000137,3,4,1.123000145,2,0.754000187,184,1,0,0,0,0,1
"400","stim/objects/HouseObjects/towel.png",392,22,385,0.3,"stim/13.jpeg",1,3,2,1,"HouseObjects",1,1,"left","right",0.574999809,0,0,1,0,1,22,1,0.3,1,"stim/13.jpeg",1,3,"stim/13.jpeg",1,"left",2.813000202,4,1,4.650000095,1,2.835000038,1,1,0,0,1,1,1
"245","stim/objects/HouseObjects/ballofstring.png",393,22,386,0.5,"stim/53.jpeg",5,3,1,2,"HouseObjects",1,3,"left","left",0.655999899,1,1,1,0,NA,NA,NA,NA,NA,NA,NA,NA,NA,NA,NA,NA,NA,NA,NA,NA,NA,NA,NA,NA,NA,NA,NA,NA
"336","stim/objects/HouseObjects/flyswatter.png",394,22,387,0.9,"stim/43.jpeg",4,3,3,2,"HouseObjects",1,1,"left","left",0.657999992,1,1,1,0,NA,NA,NA,NA,NA,NA,NA,NA,NA,NA,NA,NA,NA,NA,NA,NA,NA,NA,NA,NA,NA,NA,NA,NA
"285","stim/objects/HouseObjects/cushion.png",395,22,388,0.7,"stim/22.jpeg",2,2,2,2,"HouseObjects",1,3,"left","left",0.489999771,1,1,1,0,NA,NA,NA,NA,NA,NA,NA,NA,NA,NA,NA,NA,NA,NA,NA,NA,NA,NA,NA,NA,NA,NA,NA,NA
"242","stim/objects/HouseObjects/ashtray.png",396,22,389,0.5,"stim/52.jpeg",5,2,1,2,"HouseObjects",1,3,"left","left",0.651000023,1,1,1,0,NA,NA,NA,NA,NA,NA,NA,NA,NA,NA,NA,NA,NA,NA,NA,NA,NA,NA,NA,NA,NA,NA,NA,NA
"440","stim/objects/Instruments/doublebass.png",397,22,390,0.7,"stim/12.jpeg",1,2,2,2,"Instruments",2,1,"right","right",0.631999969,1,1,1,0,NA,NA,NA,NA,NA,NA,NA,NA,NA,NA,NA,NA,NA,NA,NA,NA,NA,NA,NA,NA,NA,NA,NA,NA
"530","stim/objects/Instruments/grandpiano.png",398,22,391,0.9,"stim/32.jpeg",3,2,3,2,"Instruments",2,2,"right","right",0.707999945,1,1,1,0,NA,NA,NA,NA,NA,NA,NA,NA,NA,NA,NA,NA,NA,NA,NA,NA,NA,NA,NA,NA,NA,NA,NA,NA
"455","stim/objects/Instruments/electricguitar2.png",399,22,392,0.3,"stim/23.jpeg",2,3,2,1,"Instruments",2,1,"right","left",0.529000044,0,0,1,0,139,22,1,0.3,2,"stim/23.jpeg",2,3,"stim/23.jpeg",1,"right",0.792000055,3,4,0.769000053,3,0.748000145,139,0,0,NA,0,NA,1
"466","stim/objects/Instruments/flute.png",400,22,393,0.9,"stim/33.jpeg",3,3,3,2,"Instruments",2,1,"right","right",0.500999928,1,1,1,0,NA,NA,NA,NA,NA,NA,NA,NA,NA,NA,NA,NA,NA,NA,NA,NA,NA,NA,NA,NA,NA,NA,NA,NA
"353","stim/objects/HouseObjects/garbagebin.png",401,22,394,0.9,"stim/41.jpeg",4,1,3,2,"HouseObjects",1,4,"left","left",0.601999998,1,1,1,0,NA,NA,NA,NA,NA,NA,NA,NA,NA,NA,NA,NA,NA,NA,NA,NA,NA,NA,NA,NA,NA,NA,NA,NA
"407","stim/objects/Instruments/accordion.png",402,22,395,0.5,"stim/54.jpeg",5,4,1,2,"Instruments",2,4,"right","right",0.616999865,1,1,1,0,NA,NA,NA,NA,NA,NA,NA,NA,NA,NA,NA,NA,NA,NA,NA,NA,NA,NA,NA,NA,NA,NA,NA,NA
"500","stim/objects/Instruments/frenchhorn.png",403,22,396,0.9,"stim/33.jpeg",3,3,3,2,"Instruments",2,1,"right","right",0.622999907,1,1,1,0,NA,NA,NA,NA,NA,NA,NA,NA,NA,NA,NA,NA,NA,NA,NA,NA,NA,NA,NA,NA,NA,NA,NA,NA
"277","stim/objects/HouseObjects/clothespin.png",404,22,397,0.7,"stim/22.jpeg",2,2,2,2,"HouseObjects",1,1,"left","left",0.618999958,1,1,1,0,NA,NA,NA,NA,NA,NA,NA,NA,NA,NA,NA,NA,NA,NA,NA,NA,NA,NA,NA,NA,NA,NA,NA,NA
"243","stim/objects/HouseObjects/ashtray2.png",405,22,398,0.3,"stim/12.jpeg",1,2,2,1,"HouseObjects",1,2,"left","right",0.54399991,0,0,1,0,84,22,1,0.3,1,"stim/12.jpeg",1,2,"stim/12.jpeg",2,"left",0.755000114,4,3,3.203000069,1,0.888000011,84,1,0,0,0,0,1
"293","stim/objects/HouseObjects/doormat.png",406,22,399,0.9,"stim/41.jpeg",4,1,3,2,"HouseObjects",1,4,"left","left",0.626999855,1,1,1,0,NA,NA,NA,NA,NA,NA,NA,NA,NA,NA,NA,NA,NA,NA,NA,NA,NA,NA,NA,NA,NA,NA,NA,NA
"296","stim/objects/HouseObjects/doormat.png",407,22,400,0.9,"stim/43.jpeg",4,3,3,2,"HouseObjects",1,3,"left","left",0.546999931,1,1,1,0,NA,NA,NA,NA,NA,NA,NA,NA,NA,NA,NA,NA,NA,NA,NA,NA,NA,NA,NA,NA,NA,NA,NA,NA
"533","stim/objects/Instruments/grandpiano.png",408,22,401,0.9,"stim/33.jpeg",3,3,3,2,"Instruments",2,2,"right","right",0.518999815,1,1,1,0,NA,NA,NA,NA,NA,NA,NA,NA,NA,NA,NA,NA,NA,NA,NA,NA,NA,NA,NA,NA,NA,NA,NA,NA
"302","stim/objects/HouseObjects/doormat.png",409,22,402,0.9,"stim/41.jpeg",4,1,3,2,"HouseObjects",1,2,"left","left",0.571999788,1,1,1,0,NA,NA,NA,NA,NA,NA,NA,NA,NA,NA,NA,NA,NA,NA,NA,NA,NA,NA,NA,NA,NA,NA,NA,NA
"436","stim/objects/Instruments/cymbal.png",410,22,403,0.7,"stim/11.jpeg",1,1,2,2,"Instruments",2,4,"right","right",0.493999958,1,1,1,0,NA,NA,NA,NA,NA,NA,NA,NA,NA,NA,NA,NA,NA,NA,NA,NA,NA,NA,NA,NA,NA,NA,NA,NA
"256","stim/objects/HouseObjects/blender.png",411,22,404,0.5,"stim/63.jpeg",6,3,1,2,"HouseObjects",1,4,"left","right",0.573999882,0,0,1,0,NA,NA,NA,NA,NA,NA,NA,NA,NA,NA,NA,NA,NA,NA,NA,NA,NA,NA,NA,NA,NA,NA,NA,NA
"380","stim/objects/HouseObjects/handbrush.png",412,22,405,0.5,"stim/51.jpeg",5,1,1,1,"HouseObjects",1,1,"left","left",0.621000051,1,1,1,0,87,22,1,0.5,1,"stim/51.jpeg",5,1,"stim/51.jpeg",1,"right",0.838000059,2,3,1.387000084,3,1.147000074,87,0,0,NA,0,NA,1
"501","stim/objects/Instruments/frenchhorn.png",413,22,406,0.9,"stim/31.jpeg",3,1,3,2,"Instruments",2,1,"right","",NA,0,0,1,0,NA,NA,NA,NA,NA,NA,NA,NA,NA,NA,NA,NA,NA,NA,NA,NA,NA,NA,NA,NA,NA,NA,NA,NA
"502","stim/objects/Instruments/frenchhorn.png",414,22,407,0.9,"stim/31.jpeg",3,1,3,2,"Instruments",2,2,"right","right",0.561999798,1,1,1,0,NA,NA,NA,NA,NA,NA,NA,NA,NA,NA,NA,NA,NA,NA,NA,NA,NA,NA,NA,NA,NA,NA,NA,NA
"424","stim/objects/Instruments/cello.png",415,22,408,0.5,"stim/64.jpeg",6,4,1,2,"Instruments",2,4,"right","left",0.825999975,0,0,1,0,NA,NA,NA,NA,NA,NA,NA,NA,NA,NA,NA,NA,NA,NA,NA,NA,NA,NA,NA,NA,NA,NA,NA,NA
"441","stim/objects/Instruments/doublebass.png",416,22,409,0.7,"stim/14.jpeg",1,4,2,2,"Instruments",2,4,"right","right",0.718999863,1,1,1,0,NA,NA,NA,NA,NA,NA,NA,NA,NA,NA,NA,NA,NA,NA,NA,NA,NA,NA,NA,NA,NA,NA,NA,NA
"370","stim/objects/HouseObjects/glass.png",417,22,410,0.9,"stim/44.jpeg",4,4,3,2,"HouseObjects",1,3,"left","left",0.618000031,1,1,1,0,NA,NA,NA,NA,NA,NA,NA,NA,NA,NA,NA,NA,NA,NA,NA,NA,NA,NA,NA,NA,NA,NA,NA,NA
"283","stim/objects/HouseObjects/cushion.png",418,22,411,0.7,"stim/21.jpeg",2,1,2,2,"HouseObjects",1,2,"left","right",0.466999769,0,0,1,0,NA,NA,NA,NA,NA,NA,NA,NA,NA,NA,NA,NA,NA,NA,NA,NA,NA,NA,NA,NA,NA,NA,NA,NA
"347","stim/objects/HouseObjects/garbagebin.png",419,22,412,0.9,"stim/42.jpeg",4,2,3,2,"HouseObjects",1,3,"left","left",0.600999832,1,1,1,0,NA,NA,NA,NA,NA,NA,NA,NA,NA,NA,NA,NA,NA,NA,NA,NA,NA,NA,NA,NA,NA,NA,NA,NA
"532","stim/objects/Instruments/grandpiano.png",420,22,413,0.9,"stim/32.jpeg",3,2,3,2,"Instruments",2,1,"right","right",0.563999891,1,1,1,0,NA,NA,NA,NA,NA,NA,NA,NA,NA,NA,NA,NA,NA,NA,NA,NA,NA,NA,NA,NA,NA,NA,NA,NA
"394","stim/objects/HouseObjects/teapot.png",421,22,414,0.5,"stim/61.jpeg",6,1,1,1,"HouseObjects",1,1,"left","right",0.703000069,0,0,1,0,102,22,1,0.5,2,"stim/61.jpeg",6,1,"stim/61.jpeg",1,"right",0.821000099,1,4,0.973999977,3,0.653000116,102,0,0,NA,0,NA,1
"459","stim/objects/Instruments/flute.png",422,22,415,0.9,"stim/32.jpeg",3,2,3,2,"Instruments",2,2,"right","right",0.727999926,1,1,1,0,NA,NA,NA,NA,NA,NA,NA,NA,NA,NA,NA,NA,NA,NA,NA,NA,NA,NA,NA,NA,NA,NA,NA,NA
"535","stim/objects/Instruments/grandpiano.png",423,22,416,0.9,"stim/33.jpeg",3,3,3,2,"Instruments",2,3,"right","right",0.609999895,1,1,1,0,NA,NA,NA,NA,NA,NA,NA,NA,NA,NA,NA,NA,NA,NA,NA,NA,NA,NA,NA,NA,NA,NA,NA,NA
"290","stim/objects/HouseObjects/dishsoap2.png",424,22,417,0.7,"stim/21.jpeg",2,1,2,1,"HouseObjects",1,4,"left","left",0.619999886,1,1,1,0,60,22,1,0.7,1,"stim/21.jpeg",2,1,"stim/21.jpeg",4,"left",0.990000248,4,2,4.671999931,3,2.874000072,60,1,0,0,0,0,1
"369","stim/objects/HouseObjects/glass.png",425,22,418,0.9,"stim/43.jpeg",4,3,3,2,"HouseObjects",1,3,"left","left",0.595999956,1,1,1,0,NA,NA,NA,NA,NA,NA,NA,NA,NA,NA,NA,NA,NA,NA,NA,NA,NA,NA,NA,NA,NA,NA,NA,NA
"274","stim/objects/HouseObjects/clothesdryingrack2.png",426,22,419,0.7,"stim/21.jpeg",2,1,2,1,"HouseObjects",1,3,"left","left",0.616999865,1,1,1,0,45,22,1,0.7,1,"stim/21.jpeg",2,1,"stim/21.jpeg",3,"right",1.65500021,2,2,2.088999987,2,1.186000109,45,0,0,NA,0,NA,1
"450","stim/objects/Instruments/electricdrumset.png",427,22,420,0.7,"stim/12.jpeg",1,2,2,2,"Instruments",2,1,"right","right",0.631999969,1,1,1,0,NA,NA,NA,NA,NA,NA,NA,NA,NA,NA,NA,NA,NA,NA,NA,NA,NA,NA,NA,NA,NA,NA,NA,NA
"278","stim/objects/HouseObjects/clothespin2.png",428,22,421,0.7,"stim/22.jpeg",2,2,2,1,"HouseObjects",1,3,"left","left",0.540999889,1,1,1,0,199,22,1,0.7,1,"stim/22.jpeg",2,2,"stim/22.jpeg",3,"left",0.904000044,4,2,0.861999989,4,0.749000072,199,1,1,1,0,0,1
"442","stim/objects/Instruments/doublebass.png",429,22,422,0.7,"stim/11.jpeg",1,1,2,2,"Instruments",2,1,"right","right",0.629999876,1,1,1,0,NA,NA,NA,NA,NA,NA,NA,NA,NA,NA,NA,NA,NA,NA,NA,NA,NA,NA,NA,NA,NA,NA,NA,NA
"452","stim/objects/Instruments/electricguitar.png",430,22,423,0.7,"stim/11.jpeg",1,1,2,2,"Instruments",2,2,"right","right",0.65199995,1,1,1,0,NA,NA,NA,NA,NA,NA,NA,NA,NA,NA,NA,NA,NA,NA,NA,NA,NA,NA,NA,NA,NA,NA,NA,NA
"547","stim/objects/Instruments/hihat.png",431,22,424,0.5,"stim/51.jpeg",5,1,1,1,"Instruments",2,2,"right","left",0.691999912,0,0,1,0,114,22,1,0.5,1,"stim/51.jpeg",5,1,"stim/51.jpeg",2,"right",0.907000065,1,3,0.774000168,3,0.921000004,114,0,0,NA,0,NA,1
"463","stim/objects/Instruments/flute.png",432,22,425,0.9,"stim/31.jpeg",3,1,3,2,"Instruments",2,2,"right","right",0.601000071,1,1,1,0,NA,NA,NA,NA,NA,NA,NA,NA,NA,NA,NA,NA,NA,NA,NA,NA,NA,NA,NA,NA,NA,NA,NA,NA
"550","stim/objects/Instruments/saxophone2.png",433,22,426,0.9,"stim/34.jpeg",3,4,3,1,"Instruments",2,2,"right","right",0.537999868,1,1,1,0,86,22,1,0.9,2,"stim/34.jpeg",3,4,"stim/34.jpeg",2,"left",3.338000059,2,4,1.046000242,2,1.021000147,86,1,1,1,1,1,1
"546","stim/objects/Instruments/harp2.png",434,22,427,0.9,"stim/32.jpeg",3,2,3,1,"Instruments",2,1,"right","right",0.510999918,1,1,1,0,170,22,1,0.9,2,"stim/32.jpeg",3,2,"stim/32.jpeg",1,"right",1.036000252,1,2,0.710999966,4,0.753000021,170,0,1,NA,0,NA,1
"425","stim/objects/Instruments/cello.png",435,22,428,0.5,"stim/63.jpeg",6,3,1,2,"Instruments",2,1,"right","right",0.559999943,1,1,1,0,NA,NA,NA,NA,NA,NA,NA,NA,NA,NA,NA,NA,NA,NA,NA,NA,NA,NA,NA,NA,NA,NA,NA,NA
"331","stim/objects/HouseObjects/flyswatter.png",436,22,429,0.9,"stim/41.jpeg",4,1,3,2,"HouseObjects",1,1,"left","left",0.529000044,1,1,1,0,NA,NA,NA,NA,NA,NA,NA,NA,NA,NA,NA,NA,NA,NA,NA,NA,NA,NA,NA,NA,NA,NA,NA,NA
"419","stim/objects/Instruments/bassdrum.png",437,22,430,0.5,"stim/51.jpeg",5,1,1,2,"Instruments",2,3,"right","left",0.575000048,0,0,1,0,NA,NA,NA,NA,NA,NA,NA,NA,NA,NA,NA,NA,NA,NA,NA,NA,NA,NA,NA,NA,NA,NA,NA,NA
"464","stim/objects/Instruments/flute.png",438,22,431,0.9,"stim/32.jpeg",3,2,3,2,"Instruments",2,2,"right","right",0.484999895,1,1,1,0,NA,NA,NA,NA,NA,NA,NA,NA,NA,NA,NA,NA,NA,NA,NA,NA,NA,NA,NA,NA,NA,NA,NA,NA
"562","stim/objects/Instruments/trumpet2.png",439,22,432,0.1,"stim/44.jpeg",4,4,3,1,"Instruments",2,1,"right","left",0.579999924,0,0,1,0,158,22,1,0.1,2,"stim/44.jpeg",4,4,"stim/44.jpeg",1,"left",0.973999977,3,2,2.104000092,3,1.836000204,158,1,0,0,0,0,1
"468","stim/objects/Instruments/flute.png",440,22,433,0.9,"stim/34.jpeg",3,4,3,2,"Instruments",2,4,"right","right",0.486999989,1,1,1,0,NA,NA,NA,NA,NA,NA,NA,NA,NA,NA,NA,NA,NA,NA,NA,NA,NA,NA,NA,NA,NA,NA,NA,NA
"372","stim/objects/HouseObjects/glass.png",441,22,434,0.9,"stim/42.jpeg",4,2,3,2,"HouseObjects",1,3,"left","left",0.583999872,1,1,1,0,NA,NA,NA,NA,NA,NA,NA,NA,NA,NA,NA,NA,NA,NA,NA,NA,NA,NA,NA,NA,NA,NA,NA,NA
"548","stim/objects/Instruments/hihat2.png",442,22,435,0.9,"stim/33.jpeg",3,3,3,1,"Instruments",2,3,"right","right",0.65199995,1,1,1,0,169,22,1,0.9,2,"stim/33.jpeg",3,3,"stim/33.jpeg",3,"right",1.021000147,2,3,0.523000002,3,1.495000124,169,0,1,NA,1,NA,1
"513","stim/objects/Instruments/gong.png",443,22,436,0.9,"stim/32.jpeg",3,2,3,2,"Instruments",2,1,"right","right",0.65199995,1,1,1,0,NA,NA,NA,NA,NA,NA,NA,NA,NA,NA,NA,NA,NA,NA,NA,NA,NA,NA,NA,NA,NA,NA,NA,NA
"316","stim/objects/HouseObjects/dustpan.png",444,22,437,0.9,"stim/43.jpeg",4,3,3,2,"HouseObjects",1,4,"left","left",0.589999914,1,1,1,0,NA,NA,NA,NA,NA,NA,NA,NA,NA,NA,NA,NA,NA,NA,NA,NA,NA,NA,NA,NA,NA,NA,NA,NA
"534","stim/objects/Instruments/grandpiano.png",445,22,438,0.9,"stim/31.jpeg",3,1,3,2,"Instruments",2,2,"right","right",0.639999866,1,1,1,0,NA,NA,NA,NA,NA,NA,NA,NA,NA,NA,NA,NA,NA,NA,NA,NA,NA,NA,NA,NA,NA,NA,NA,NA
"415","stim/objects/Instruments/banjo.png",446,22,439,0.5,"stim/54.jpeg",5,4,1,2,"Instruments",2,2,"right","left",0.694999933,0,0,1,0,NA,NA,NA,NA,NA,NA,NA,NA,NA,NA,NA,NA,NA,NA,NA,NA,NA,NA,NA,NA,NA,NA,NA,NA
"270","stim/objects/HouseObjects/clock2.png",447,22,440,0.7,"stim/24.jpeg",2,4,2,1,"HouseObjects",1,3,"left","left",0.620999813,1,1,1,0,149,22,1,0.7,1,"stim/24.jpeg",2,4,"stim/24.jpeg",3,"left",1.020000219,4,4,2.406000137,2,1.076000214,149,1,1,1,0,0,1
"361","stim/objects/HouseObjects/glass.png",448,22,441,0.9,"stim/41.jpeg",4,1,3,2,"HouseObjects",1,2,"left","left",0.642999887,1,1,1,0,NA,NA,NA,NA,NA,NA,NA,NA,NA,NA,NA,NA,NA,NA,NA,NA,NA,NA,NA,NA,NA,NA,NA,NA
"515","stim/objects/Instruments/gong.png",449,22,442,0.9,"stim/32.jpeg",3,2,3,2,"Instruments",2,4,"right","right",0.48300004,1,1,1,0,NA,NA,NA,NA,NA,NA,NA,NA,NA,NA,NA,NA,NA,NA,NA,NA,NA,NA,NA,NA,NA,NA,NA,NA
"297","stim/objects/HouseObjects/doormat.png",450,22,443,0.9,"stim/44.jpeg",4,4,3,2,"HouseObjects",1,2,"left","left",0.553999901,1,1,1,0,NA,NA,NA,NA,NA,NA,NA,NA,NA,NA,NA,NA,NA,NA,NA,NA,NA,NA,NA,NA,NA,NA,NA,NA
"551","stim/objects/Instruments/speaker.png",451,22,444,0.5,"stim/64.jpeg",6,4,1,1,"Instruments",2,1,"right","left",0.799000025,0,0,1,0,190,22,1,0.5,2,"stim/64.jpeg",6,4,"stim/64.jpeg",1,"left",0.970999956,4,4,1.503999949,2,1.180000305,190,1,1,1,0,0,1
"422","stim/objects/Instruments/bassguitar.png",452,22,445,0.5,"stim/63.jpeg",6,3,1,2,"Instruments",2,4,"right","right",0.635999918,1,1,1,0,NA,NA,NA,NA,NA,NA,NA,NA,NA,NA,NA,NA,NA,NA,NA,NA,NA,NA,NA,NA,NA,NA,NA,NA
"446","stim/objects/Instruments/drums.png",453,22,446,0.7,"stim/13.jpeg",1,3,2,2,"Instruments",2,2,"right","right",0.634000063,1,1,1,0,NA,NA,NA,NA,NA,NA,NA,NA,NA,NA,NA,NA,NA,NA,NA,NA,NA,NA,NA,NA,NA,NA,NA,NA
"322","stim/objects/HouseObjects/dustpan.png",454,22,447,0.9,"stim/42.jpeg",4,2,3,2,"HouseObjects",1,4,"left","left",0.644999981,1,1,1,0,NA,NA,NA,NA,NA,NA,NA,NA,NA,NA,NA,NA,NA,NA,NA,NA,NA,NA,NA,NA,NA,NA,NA,NA
"484","stim/objects/Instruments/flutetrans.png",455,22,448,0.9,"stim/31.jpeg",3,1,3,2,"Instruments",2,3,"right","right",0.582000017,1,1,1,0,NA,NA,NA,NA,NA,NA,NA,NA,NA,NA,NA,NA,NA,NA,NA,NA,NA,NA,NA,NA,NA,NA,NA,NA
"318","stim/objects/HouseObjects/dustpan.png",456,22,449,0.9,"stim/42.jpeg",4,2,3,2,"HouseObjects",1,3,"left","left",0.640000105,1,1,1,0,NA,NA,NA,NA,NA,NA,NA,NA,NA,NA,NA,NA,NA,NA,NA,NA,NA,NA,NA,NA,NA,NA,NA,NA
"542","stim/objects/Instruments/guitarcase2.png",457,22,450,0.9,"stim/34.jpeg",3,4,3,1,"Instruments",2,4,"right","right",0.575999975,1,1,1,0,143,22,1,0.9,2,"stim/34.jpeg",3,4,"stim/34.jpeg",4,"right",0.889000177,3,4,0.684000254,3,0.878000021,143,0,1,NA,0,NA,1
"540","stim/objects/Instruments/grandpiano2.png",458,22,451,0.9,"stim/33.jpeg",3,3,3,1,"Instruments",2,2,"right","right",0.598999977,1,1,1,0,96,22,1,0.9,2,"stim/33.jpeg",3,3,"stim/33.jpeg",2,"right",1.020999908,2,4,0.773000002,3,0.855000257,96,0,0,NA,0,NA,1
"375","stim/objects/HouseObjects/glass2.png",459,22,452,0.1,"stim/31.jpeg",3,1,3,1,"HouseObjects",1,1,"left","right",0.592999935,0,0,1,0,197,22,1,0.1,1,"stim/31.jpeg",3,1,"stim/31.jpeg",1,"right",1.150000095,2,1,0.707000017,4,0.736000299,197,0,1,NA,0,NA,1
"561","stim/objects/Instruments/trumpet.png",460,22,453,0.7,"stim/12.jpeg",1,2,2,1,"Instruments",2,4,"right","right",0.707999945,1,1,1,0,120,22,1,0.7,2,"stim/12.jpeg",1,2,"stim/12.jpeg",4,"left",0.754000187,4,1,1.590000153,3,1.180000067,120,1,0,0,0,0,1
"496","stim/objects/Instruments/frenchhorn.png",461,22,454,0.9,"stim/34.jpeg",3,4,3,2,"Instruments",2,2,"right","right",0.631999731,1,1,1,0,NA,NA,NA,NA,NA,NA,NA,NA,NA,NA,NA,NA,NA,NA,NA,NA,NA,NA,NA,NA,NA,NA,NA,NA
"352","stim/objects/HouseObjects/garbagebin.png",462,22,455,0.9,"stim/44.jpeg",4,4,3,2,"HouseObjects",1,3,"left","left",0.572000027,1,1,1,0,NA,NA,NA,NA,NA,NA,NA,NA,NA,NA,NA,NA,NA,NA,NA,NA,NA,NA,NA,NA,NA,NA,NA,NA
"248","stim/objects/HouseObjects/barbecuelighter.png",463,22,456,0.5,"stim/54.jpeg",5,4,1,2,"HouseObjects",1,2,"left","right",0.698999882,0,0,1,0,NA,NA,NA,NA,NA,NA,NA,NA,NA,NA,NA,NA,NA,NA,NA,NA,NA,NA,NA,NA,NA,NA,NA,NA
"251","stim/objects/HouseObjects/basket.png",464,22,457,0.5,"stim/54.jpeg",5,4,1,2,"HouseObjects",1,1,"left","left",0.5849998,1,1,1,0,NA,NA,NA,NA,NA,NA,NA,NA,NA,NA,NA,NA,NA,NA,NA,NA,NA,NA,NA,NA,NA,NA,NA,NA
"392","stim/objects/HouseObjects/spraybottle.png",465,22,458,0.5,"stim/64.jpeg",6,4,1,1,"HouseObjects",1,3,"left","left",0.81099987,1,1,1,0,103,22,1,0.5,2,"stim/64.jpeg",6,4,"stim/64.jpeg",3,"left",0.769999981,3,4,0.889000177,1,1.078000069,103,1,1,1,0,0,1
"355","stim/objects/HouseObjects/garbagebin.png",466,22,459,0.9,"stim/44.jpeg",4,4,3,2,"HouseObjects",1,3,"left","left",0.592000008,1,1,1,0,NA,NA,NA,NA,NA,NA,NA,NA,NA,NA,NA,NA,NA,NA,NA,NA,NA,NA,NA,NA,NA,NA,NA,NA
"417","stim/objects/Instruments/banjo2.png",467,22,460,0.7,"stim/12.jpeg",1,2,2,1,"Instruments",2,2,"right","right",0.676000118,1,1,1,0,44,22,1,0.7,2,"stim/12.jpeg",1,2,"stim/12.jpeg",2,"left",1.042000055,4,3,4.767000198,2,2.871999979,44,1,0,0,1,1,1
