"","participant","trialN","trial_cond","scn_file","scn_cat","scn_inst","scn_condition","fillers","obj_cat","obj_cat_num","obj_file","quadrant","corr_ans","key_resp_trial.keys","key_resp_trial.rt","trial_acc","trial_acc_manual","group"
"248",22,241,0.9,"stim/31.jpeg",3,1,3,2,"Instruments",2,"stim/objects/Instruments/grandpiano.png",3,"right","",NA,0,0,1
"249",22,242,0.9,"stim/34.jpeg",3,4,3,2,"Instruments",2,"stim/objects/Instruments/grandpiano.png",4,"right","right",0.586999893,1,1,1
"250",22,243,0.5,"stim/61.jpeg",6,1,1,2,"HouseObjects",1,"stim/objects/HouseObjects/broom.png",3,"left","right",0.661999941,0,0,1
"251",22,244,0.5,"stim/62.jpeg",6,2,1,2,"Instruments",2,"stim/objects/Instruments/bassguitar.png",4,"right","right",0.522999763,1,1,1
"252",22,245,0.9,"stim/44.jpeg",4,4,3,2,"HouseObjects",1,"stim/objects/HouseObjects/flyswatter.png",3,"left","left",0.508999825,1,1,1
"253",22,246,0.5,"stim/63.jpeg",6,3,1,2,"HouseObjects",1,"stim/objects/HouseObjects/bucket.png",2,"left","right",0.532000065,0,0,1
"254",22,247,0.7,"stim/14.jpeg",1,4,2,2,"Instruments",2,"stim/objects/Instruments/electricdrumset.png",2,"right","right",0.604000092,1,1,1
"255",22,248,0.7,"stim/13.jpeg",1,3,2,2,"Instruments",2,"stim/objects/Instruments/electricdrumset.png",4,"right","right",0.665999889,1,1,1
"256",22,249,0.9,"stim/34.jpeg",3,4,3,1,"Instruments",2,"stim/objects/Instruments/flutetrans2.png",4,"right","right",0.727999926,1,1,1
"257",22,250,0.5,"stim/54.jpeg",5,4,1,1,"HouseObjects",1,"stim/objects/HouseObjects/hairdryer.png",3,"left","left",0.635999918,1,1,1
"258",22,251,0.1,"stim/34.jpeg",3,4,3,1,"HouseObjects",1,"stim/objects/HouseObjects/garbagebin2.png",4,"left","right",0.557999849,0,0,1
"259",22,252,0.9,"stim/41.jpeg",4,1,3,2,"HouseObjects",1,"stim/objects/HouseObjects/garbagebin.png",3,"left","left",0.478999853,1,1,1
"260",22,253,0.9,"stim/34.jpeg",3,4,3,2,"Instruments",2,"stim/objects/Instruments/gong.png",4,"right","right",0.478999853,1,1,1
"261",22,254,0.7,"stim/13.jpeg",1,3,2,1,"Instruments",2,"stim/objects/Instruments/bassdrum2.png",1,"right","right",0.730000019,1,1,1
"262",22,255,0.9,"stim/33.jpeg",3,3,3,2,"Instruments",2,"stim/objects/Instruments/flute.png",1,"right","right",0.561999798,1,1,1
"263",22,256,0.9,"stim/42.jpeg",4,2,3,2,"HouseObjects",1,"stim/objects/HouseObjects/flyswatter.png",2,"left","left",0.65899992,1,1,1
"264",22,257,0.9,"stim/41.jpeg",4,1,3,2,"HouseObjects",1,"stim/objects/HouseObjects/flyswatter.png",1,"left","left",0.54399991,1,1,1
"265",22,258,0.9,"stim/42.jpeg",4,2,3,2,"HouseObjects",1,"stim/objects/HouseObjects/doormat.png",1,"left","left",0.689999819,1,1,1
"266",22,259,0.9,"stim/34.jpeg",3,4,3,2,"Instruments",2,"stim/objects/Instruments/grandpiano.png",4,"right","right",0.512999773,1,1,1
"267",22,260,0.9,"stim/42.jpeg",4,2,3,1,"HouseObjects",1,"stim/objects/HouseObjects/wateringcan2.png",4,"left","left",0.588000059,1,1,1
"268",22,261,0.9,"stim/33.jpeg",3,3,3,2,"Instruments",2,"stim/objects/Instruments/flutetrans.png",3,"right","right",0.570999861,1,1,1
"269",22,262,0.1,"stim/31.jpeg",3,1,3,1,"HouseObjects",1,"stim/objects/HouseObjects/handvacuum2.png",2,"left","right",0.64199996,0,0,1
"270",22,263,0.9,"stim/44.jpeg",4,4,3,2,"HouseObjects",1,"stim/objects/HouseObjects/flyswatter.png",2,"left","left",0.537999868,1,1,1
"271",22,264,0.1,"stim/33.jpeg",3,3,3,1,"HouseObjects",1,"stim/objects/HouseObjects/flyswatter2.png",3,"left","right",0.546000004,0,0,1
"272",22,265,0.9,"stim/41.jpeg",4,1,3,2,"HouseObjects",1,"stim/objects/HouseObjects/doormat.png",2,"left","left",0.570999861,1,1,1
"273",22,266,0.5,"stim/62.jpeg",6,2,1,2,"Instruments",2,"stim/objects/Instruments/clarinet.png",2,"right","right",0.602999926,1,1,1
"274",22,267,0.9,"stim/31.jpeg",3,1,3,2,"Instruments",2,"stim/objects/Instruments/grandpiano.png",4,"right","right",0.505000114,1,1,1
"275",22,268,0.9,"stim/33.jpeg",3,3,3,2,"Instruments",2,"stim/objects/Instruments/gong.png",3,"right","left",0.74000001,0,0,1
"276",22,269,0.9,"stim/34.jpeg",3,4,3,2,"Instruments",2,"stim/objects/Instruments/flute.png",2,"right","right",0.570999861,1,1,1
"277",22,270,0.9,"stim/33.jpeg",3,3,3,2,"Instruments",2,"stim/objects/Instruments/grandpiano.png",2,"right","left",0.767999887,0,0,1
"278",22,271,0.5,"stim/62.jpeg",6,2,1,1,"HouseObjects",1,"stim/objects/HouseObjects/scale.png",2,"left","right",0.557999849,0,0,1
"279",22,272,0.5,"stim/63.jpeg",6,3,1,2,"HouseObjects",1,"stim/objects/HouseObjects/clock.png",4,"left","right",0.460999966,0,0,1
"280",22,273,0.9,"stim/34.jpeg",3,4,3,2,"Instruments",2,"stim/objects/Instruments/flutetrans.png",4,"right","right",0.536999941,1,1,1
"281",22,274,0.5,"stim/52.jpeg",5,2,1,2,"Instruments",2,"stim/objects/Instruments/acousticguitar.png",1,"right","left",0.616999865,0,0,1
"282",22,275,0.9,"stim/42.jpeg",4,2,3,2,"HouseObjects",1,"stim/objects/HouseObjects/flyswatter.png",1,"left","left",0.628000021,1,1,1
"283",22,276,0.5,"stim/51.jpeg",5,1,1,2,"Instruments",2,"stim/objects/Instruments/acousticguitar.png",3,"right","left",0.743000031,0,0,1
"284",22,277,0.5,"stim/62.jpeg",6,2,1,2,"Instruments",2,"stim/objects/Instruments/cornet.png",2,"right","right",0.622999907,1,1,1
"285",22,278,0.9,"stim/33.jpeg",3,3,3,1,"Instruments",2,"stim/objects/Instruments/flute2.png",4,"right","right",0.659999847,1,1,1
"286",22,279,0.9,"stim/33.jpeg",3,3,3,2,"Instruments",2,"stim/objects/Instruments/gong.png",2,"right","right",0.692000151,1,1,1
"287",22,280,0.9,"stim/33.jpeg",3,3,3,2,"Instruments",2,"stim/objects/Instruments/frenchhorn.png",3,"right","right",0.708999872,1,1,1
"288",22,281,0.9,"stim/44.jpeg",4,4,3,2,"HouseObjects",1,"stim/objects/HouseObjects/glass.png",4,"left","left",0.613999844,1,1,1
"289",22,282,0.1,"stim/43.jpeg",4,3,3,1,"Instruments",2,"stim/objects/Instruments/trombone2.png",4,"right","left",0.553999901,0,0,1
"290",22,283,0.7,"stim/22.jpeg",2,2,2,2,"HouseObjects",1,"stim/objects/HouseObjects/clothesdryingrack.png",1,"left","left",0.725999832,1,1,1
"291",22,284,0.9,"stim/43.jpeg",4,3,3,2,"HouseObjects",1,"stim/objects/HouseObjects/dustpan.png",2,"left","left",0.627999783,1,1,1
"292",22,285,0.9,"stim/43.jpeg",4,3,3,2,"HouseObjects",1,"stim/objects/HouseObjects/flyswatter.png",4,"left","left",0.5849998,1,1,1
"293",22,286,0.9,"stim/43.jpeg",4,3,3,2,"HouseObjects",1,"stim/objects/HouseObjects/garbagebin.png",3,"left","left",0.553999901,1,1,1
"294",22,287,0.3,"stim/14.jpeg",1,4,2,1,"HouseObjects",1,"stim/objects/HouseObjects/barbecuelighter2.png",3,"left","right",0.604000092,0,0,1
"295",22,288,0.9,"stim/31.jpeg",3,1,3,2,"Instruments",2,"stim/objects/Instruments/flutetrans.png",1,"right","right",0.558999777,1,1,1
"296",22,289,0.7,"stim/24.jpeg",2,4,2,2,"HouseObjects",1,"stim/objects/HouseObjects/clothespin.png",3,"left","left",0.633999825,1,1,1
"297",22,290,0.3,"stim/21.jpeg",2,1,2,1,"Instruments",2,"stim/objects/Instruments/drums2.png",3,"right","left",0.551999807,0,0,1
"298",22,291,0.5,"stim/54.jpeg",5,4,1,1,"Instruments",2,"stim/objects/Instruments/harp.png",4,"right","right",0.81099987,1,1,1
"299",22,292,0.9,"stim/32.jpeg",3,2,3,2,"Instruments",2,"stim/objects/Instruments/flutetrans.png",1,"right","right",0.661999941,1,1,1
"300",22,293,0.7,"stim/13.jpeg",1,3,2,2,"Instruments",2,"stim/objects/Instruments/cymbal.png",2,"right","right",0.541999817,1,1,1
"301",22,294,0.9,"stim/31.jpeg",3,1,3,1,"Instruments",2,"stim/objects/Instruments/frenchhorn2.png",1,"right","right",0.65899992,1,1,1
"302",22,295,0.5,"stim/62.jpeg",6,2,1,2,"HouseObjects",1,"stim/objects/HouseObjects/broom.png",2,"left","right",0.714999914,0,0,1
"303",22,296,0.9,"stim/31.jpeg",3,1,3,2,"Instruments",2,"stim/objects/Instruments/flutetrans.png",4,"right","right",0.602999926,1,1,1
"304",22,297,0.9,"stim/44.jpeg",4,4,3,2,"HouseObjects",1,"stim/objects/HouseObjects/dustpan.png",1,"left","left",0.648999929,1,1,1
"305",22,298,0.1,"stim/43.jpeg",4,3,3,1,"Instruments",2,"stim/objects/Instruments/vuvuzela2.png",3,"right","left",0.556999922,0,0,1
"306",22,299,0.5,"stim/62.jpeg",6,2,1,1,"Instruments",2,"stim/objects/Instruments/timbal.png",4,"right","right",0.493999958,1,1,1
"307",22,300,0.9,"stim/31.jpeg",3,1,3,2,"Instruments",2,"stim/objects/Instruments/gong.png",3,"right","left",0.50999999,0,0,1
"308",22,301,0.9,"stim/41.jpeg",4,1,3,2,"HouseObjects",1,"stim/objects/HouseObjects/dustpan.png",2,"left","left",0.605999947,1,1,1
"309",22,302,0.9,"stim/32.jpeg",3,2,3,1,"Instruments",2,"stim/objects/Instruments/gong2.png",2,"right","right",0.726000071,1,1,1
"310",22,303,0.9,"stim/32.jpeg",3,2,3,2,"Instruments",2,"stim/objects/Instruments/frenchhorn.png",1,"right","right",0.684999943,1,1,1
"311",22,304,0.5,"stim/64.jpeg",6,4,1,2,"HouseObjects",1,"stim/objects/HouseObjects/bottle.png",3,"left","right",0.669000149,0,0,1
"312",22,305,0.5,"stim/64.jpeg",6,4,1,2,"HouseObjects",1,"stim/objects/HouseObjects/clock.png",1,"left","right",0.855000019,0,0,1
"313",22,306,0.9,"stim/33.jpeg",3,3,3,2,"Instruments",2,"stim/objects/Instruments/frenchhorn.png",4,"right","right",0.605000019,1,1,1
"314",22,307,0.9,"stim/41.jpeg",4,1,3,2,"HouseObjects",1,"stim/objects/HouseObjects/garbagebin.png",2,"left","left",0.517999887,1,1,1
"315",22,308,0.9,"stim/41.jpeg",4,1,3,1,"HouseObjects",1,"stim/objects/HouseObjects/saw2.png",3,"left","left",0.625999928,1,1,1
"316",22,309,0.9,"stim/34.jpeg",3,4,3,2,"Instruments",2,"stim/objects/Instruments/flute.png",1,"right","right",0.528999805,1,1,1
"317",22,310,0.9,"stim/33.jpeg",3,3,3,2,"Instruments",2,"stim/objects/Instruments/frenchhorn.png",1,"right","right",0.607999802,1,1,1
"318",22,311,0.9,"stim/44.jpeg",4,4,3,2,"HouseObjects",1,"stim/objects/HouseObjects/garbagebin.png",3,"left","left",0.565999985,1,1,1
"319",22,312,0.5,"stim/52.jpeg",5,2,1,2,"HouseObjects",1,"stim/objects/HouseObjects/ballofstring.png",2,"left","left",0.699999809,1,1,1
"320",22,313,0.9,"stim/33.jpeg",3,3,3,2,"Instruments",2,"stim/objects/Instruments/flutetrans.png",3,"right","right",0.609999895,1,1,1
"321",22,314,0.9,"stim/33.jpeg",3,3,3,2,"Instruments",2,"stim/objects/Instruments/gong.png",2,"right","right",0.635999918,1,1,1
"322",22,315,0.3,"stim/12.jpeg",1,2,2,1,"HouseObjects",1,"stim/objects/HouseObjects/bleachbottle2.png",4,"left","right",0.711999893,0,0,1
"323",22,316,0.9,"stim/31.jpeg",3,1,3,2,"Instruments",2,"stim/objects/Instruments/gong.png",3,"right","right",0.541999817,1,1,1
"324",22,317,0.9,"stim/31.jpeg",3,1,3,2,"Instruments",2,"stim/objects/Instruments/flute.png",2,"right","right",0.555999994,1,1,1
"325",22,318,0.5,"stim/51.jpeg",5,1,1,2,"HouseObjects",1,"stim/objects/HouseObjects/ashtray.png",3,"left","left",0.687999964,1,1,1
"326",22,319,0.7,"stim/24.jpeg",2,4,2,1,"HouseObjects",1,"stim/objects/HouseObjects/blender2.png",3,"left","left",0.603999853,1,1,1
"327",22,320,0.7,"stim/22.jpeg",2,2,2,1,"HouseObjects",1,"stim/objects/HouseObjects/broom2.png",4,"left","left",0.65199995,1,1,1
"328",22,321,0.3,"stim/23.jpeg",2,3,2,1,"Instruments",2,"stim/objects/Instruments/cymbal2.png",4,"right","left",0.601999998,0,0,1
"329",22,322,0.7,"stim/23.jpeg",2,3,2,2,"HouseObjects",1,"stim/objects/HouseObjects/clothespin.png",2,"left","left",0.740999937,1,1,1
"330",22,323,0.7,"stim/13.jpeg",1,3,2,1,"Instruments",2,"stim/objects/Instruments/tuba.png",3,"right","right",0.536000013,1,1,1
"331",22,324,0.5,"stim/62.jpeg",6,2,1,2,"HouseObjects",1,"stim/objects/HouseObjects/bucket.png",4,"left","right",0.542999983,0,0,1
"332",22,325,0.7,"stim/23.jpeg",2,3,2,2,"HouseObjects",1,"stim/objects/HouseObjects/clothesdryingrack.png",4,"left","left",0.559000015,1,1,1
"333",22,326,0.9,"stim/41.jpeg",4,1,3,2,"HouseObjects",1,"stim/objects/HouseObjects/dustpan.png",2,"left","left",0.559999943,1,1,1
"334",22,327,0.9,"stim/42.jpeg",4,2,3,2,"HouseObjects",1,"stim/objects/HouseObjects/garbagebin.png",1,"left","left",0.610999823,1,1,1
"335",22,328,0.5,"stim/51.jpeg",5,1,1,2,"HouseObjects",1,"stim/objects/HouseObjects/bleachbottle.png",4,"left","right",0.618999958,0,0,1
"336",22,329,0.9,"stim/41.jpeg",4,1,3,2,"HouseObjects",1,"stim/objects/HouseObjects/dustpan.png",2,"left","left",0.519999981,1,1,1
"337",22,330,0.9,"stim/32.jpeg",3,2,3,2,"Instruments",2,"stim/objects/Instruments/frenchhorn.png",4,"right","right",0.633999825,1,1,1
"338",22,331,0.5,"stim/61.jpeg",6,1,1,1,"Instruments",2,"stim/objects/Instruments/tambourine.png",2,"right","right",0.729999781,1,1,1
"339",22,332,0.7,"stim/23.jpeg",2,3,2,1,"HouseObjects",1,"stim/objects/HouseObjects/bucket2.png",3,"left","left",0.585999966,1,1,1
"340",22,333,0.5,"stim/53.jpeg",5,3,1,1,"HouseObjects",1,"stim/objects/HouseObjects/glassmop.png",3,"left","right",0.582000017,0,0,1
"341",22,334,0.9,"stim/34.jpeg",3,4,3,2,"Instruments",2,"stim/objects/Instruments/frenchhorn.png",1,"right","right",0.5849998,1,1,1
"342",22,335,0.9,"stim/33.jpeg",3,3,3,2,"Instruments",2,"stim/objects/Instruments/flute.png",2,"right","right",0.691999912,1,1,1
"343",22,336,0.9,"stim/31.jpeg",3,1,3,2,"Instruments",2,"stim/objects/Instruments/frenchhorn.png",1,"right","right",0.470999956,1,1,1
"344",22,337,0.9,"stim/34.jpeg",3,4,3,2,"Instruments",2,"stim/objects/Instruments/gong.png",4,"right","right",0.512000084,1,1,1
"345",22,338,0.5,"stim/61.jpeg",6,1,1,2,"Instruments",2,"stim/objects/Instruments/clarinet.png",4,"right","right",0.515999794,1,1,1
"346",22,339,0.9,"stim/31.jpeg",3,1,3,2,"Instruments",2,"stim/objects/Instruments/gong.png",3,"right","right",0.520999908,1,1,1
"347",22,340,0.7,"stim/23.jpeg",2,3,2,2,"HouseObjects",1,"stim/objects/HouseObjects/dishsoap.png",1,"left","",NA,0,0,1
"348",22,341,0.9,"stim/43.jpeg",4,3,3,2,"HouseObjects",1,"stim/objects/HouseObjects/dustpan.png",4,"left","right",0.536000013,0,0,1
"349",22,342,0.7,"stim/12.jpeg",1,2,2,2,"Instruments",2,"stim/objects/Instruments/drums.png",4,"right","right",0.570999861,1,1,1
"350",22,343,0.9,"stim/43.jpeg",4,3,3,2,"HouseObjects",1,"stim/objects/HouseObjects/flyswatter.png",4,"left","right",0.539000034,0,0,1
"351",22,344,0.5,"stim/63.jpeg",6,3,1,1,"Instruments",2,"stim/objects/Instruments/triangle.png",4,"right","right",0.583999872,1,1,1
"352",22,345,0.7,"stim/14.jpeg",1,4,2,1,"Instruments",2,"stim/objects/Instruments/acousticguitar2.png",4,"right","right",0.65199995,1,1,1
"353",22,346,0.9,"stim/43.jpeg",4,3,3,2,"HouseObjects",1,"stim/objects/HouseObjects/garbagebin.png",3,"left","left",0.549000025,1,1,1
"354",22,347,0.5,"stim/63.jpeg",6,3,1,1,"HouseObjects",1,"stim/objects/HouseObjects/sponge.png",1,"left","right",0.604999781,0,0,1
"355",22,348,0.9,"stim/44.jpeg",4,4,3,2,"HouseObjects",1,"stim/objects/HouseObjects/dustpan.png",3,"left","left",0.718999863,1,1,1
"356",22,349,0.9,"stim/42.jpeg",4,2,3,1,"HouseObjects",1,"stim/objects/HouseObjects/scale2.png",4,"left","left",0.598999977,1,1,1
"357",22,350,0.5,"stim/52.jpeg",5,2,1,1,"Instruments",2,"stim/objects/Instruments/guitarcase.png",3,"right","left",0.682999849,0,0,1
"358",22,351,0.3,"stim/11.jpeg",1,1,2,1,"HouseObjects",1,"stim/objects/HouseObjects/wateringcan.png",1,"left","right",0.631999969,0,0,1
"359",22,352,0.9,"stim/32.jpeg",3,2,3,2,"Instruments",2,"stim/objects/Instruments/flute.png",4,"right","right",0.674999952,1,1,1
"360",22,353,0.5,"stim/64.jpeg",6,4,1,1,"Instruments",2,"stim/objects/Instruments/trombone.png",1,"right","left",0.740999937,0,0,1
"361",22,354,0.9,"stim/32.jpeg",3,2,3,2,"Instruments",2,"stim/objects/Instruments/gong.png",3,"right","right",0.577000141,1,1,1
"362",22,355,0.5,"stim/61.jpeg",6,1,1,2,"HouseObjects",1,"stim/objects/HouseObjects/bottle.png",2,"left","right",0.64199996,0,0,1
"363",22,356,0.7,"stim/21.jpeg",2,1,2,1,"HouseObjects",1,"stim/objects/HouseObjects/bottle2.png",1,"left","left",0.640999794,1,1,1
"364",22,357,0.9,"stim/32.jpeg",3,2,3,2,"Instruments",2,"stim/objects/Instruments/frenchhorn.png",2,"right","right",0.493999958,1,1,1
"365",22,358,0.9,"stim/43.jpeg",4,3,3,2,"HouseObjects",1,"stim/objects/HouseObjects/glass.png",2,"left","left",0.519999981,1,1,1
"366",22,359,0.9,"stim/34.jpeg",3,4,3,2,"Instruments",2,"stim/objects/Instruments/flutetrans.png",4,"right","right",0.523999929,1,1,1
"367",22,360,0.3,"stim/12.jpeg",1,2,2,1,"HouseObjects",1,"stim/objects/HouseObjects/thread.png",3,"left","right",0.648000002,0,0,1
"368",22,361,0.1,"stim/31.jpeg",3,1,3,1,"HouseObjects",1,"stim/objects/HouseObjects/doormat2.png",1,"left","right",0.580999851,0,0,1
"369",22,362,0.9,"stim/43.jpeg",4,3,3,2,"HouseObjects",1,"stim/objects/HouseObjects/glass.png",1,"left","left",0.532999992,1,1,1
"370",22,363,0.9,"stim/43.jpeg",4,3,3,2,"HouseObjects",1,"stim/objects/HouseObjects/doormat.png",1,"left","left",0.565999985,1,1,1
"371",22,364,0.9,"stim/44.jpeg",4,4,3,2,"HouseObjects",1,"stim/objects/HouseObjects/doormat.png",2,"left","left",0.707000017,1,1,1
"372",22,365,0.9,"stim/41.jpeg",4,1,3,2,"HouseObjects",1,"stim/objects/HouseObjects/dustpan.png",2,"left","left",0.52699995,1,1,1
"373",22,366,0.7,"stim/14.jpeg",1,4,2,2,"Instruments",2,"stim/objects/Instruments/cymbal.png",2,"right","right",0.635999918,1,1,1
"374",22,367,0.9,"stim/44.jpeg",4,4,3,2,"HouseObjects",1,"stim/objects/HouseObjects/garbagebin.png",1,"left","left",0.535999775,1,1,1
"375",22,368,0.9,"stim/44.jpeg",4,4,3,2,"HouseObjects",1,"stim/objects/HouseObjects/doormat.png",1,"left","left",0.552999973,1,1,1
"376",22,369,0.5,"stim/53.jpeg",5,3,1,1,"Instruments",2,"stim/objects/Instruments/harmonica.png",3,"right","left",0.760999918,0,0,1
"377",22,370,0.9,"stim/34.jpeg",3,4,3,2,"Instruments",2,"stim/objects/Instruments/gong.png",3,"right","right",0.588999987,1,1,1
"378",22,371,0.9,"stim/42.jpeg",4,2,3,2,"HouseObjects",1,"stim/objects/HouseObjects/garbagebin.png",2,"left","left",0.628999949,1,1,1
"379",22,372,0.9,"stim/34.jpeg",3,4,3,2,"Instruments",2,"stim/objects/Instruments/flute.png",4,"right","right",0.565000057,1,1,1
"380",22,373,0.7,"stim/13.jpeg",1,3,2,1,"Instruments",2,"stim/objects/Instruments/accordion2.png",2,"right","right",0.616999865,1,1,1
"381",22,374,0.7,"stim/14.jpeg",1,4,2,2,"Instruments",2,"stim/objects/Instruments/electricguitar.png",4,"right","right",0.590999842,1,1,1
"382",22,375,0.9,"stim/42.jpeg",4,2,3,1,"HouseObjects",1,"stim/objects/HouseObjects/thermometer2.png",1,"left","left",0.606999874,1,1,1
"383",22,376,0.9,"stim/43.jpeg",4,3,3,1,"HouseObjects",1,"stim/objects/HouseObjects/thread2.png",3,"left","left",0.642999887,1,1,1
"384",22,377,0.5,"stim/61.jpeg",6,1,1,1,"HouseObjects",1,"stim/objects/HouseObjects/saw.png",2,"left","right",0.615999937,0,0,1
"385",22,378,0.9,"stim/31.jpeg",3,1,3,2,"Instruments",2,"stim/objects/Instruments/flutetrans.png",3,"right","right",0.602999926,1,1,1
"386",22,379,0.7,"stim/21.jpeg",2,1,2,2,"HouseObjects",1,"stim/objects/HouseObjects/clothesdryingrack.png",1,"left","left",0.486999989,1,1,1
"387",22,380,0.1,"stim/43.jpeg",4,3,3,1,"Instruments",2,"stim/objects/Instruments/speaker2.png",1,"right","left",0.562999964,0,0,1
"388",22,381,0.3,"stim/11.jpeg",1,1,2,1,"HouseObjects",1,"stim/objects/HouseObjects/thermometer.png",1,"left","right",0.585999966,0,0,1
"389",22,382,0.7,"stim/23.jpeg",2,3,2,1,"HouseObjects",1,"stim/objects/HouseObjects/coffee2.png",2,"left","left",0.57400012,1,1,1
"390",22,383,0.1,"stim/41.jpeg",4,1,3,1,"Instruments",2,"stim/objects/Instruments/tuba2.png",3,"right","left",0.660000086,0,0,1
"391",22,384,0.7,"stim/11.jpeg",1,1,2,1,"Instruments",2,"stim/objects/Instruments/balalaika2.png",4,"right","right",0.636999846,1,1,1
"392",22,385,0.3,"stim/13.jpeg",1,3,2,1,"HouseObjects",1,"stim/objects/HouseObjects/towel.png",1,"left","right",0.574999809,0,0,1
"393",22,386,0.5,"stim/53.jpeg",5,3,1,2,"HouseObjects",1,"stim/objects/HouseObjects/ballofstring.png",3,"left","left",0.655999899,1,1,1
"394",22,387,0.9,"stim/43.jpeg",4,3,3,2,"HouseObjects",1,"stim/objects/HouseObjects/flyswatter.png",1,"left","left",0.657999992,1,1,1
"395",22,388,0.7,"stim/22.jpeg",2,2,2,2,"HouseObjects",1,"stim/objects/HouseObjects/cushion.png",3,"left","left",0.489999771,1,1,1
"396",22,389,0.5,"stim/52.jpeg",5,2,1,2,"HouseObjects",1,"stim/objects/HouseObjects/ashtray.png",3,"left","left",0.651000023,1,1,1
"397",22,390,0.7,"stim/12.jpeg",1,2,2,2,"Instruments",2,"stim/objects/Instruments/doublebass.png",1,"right","right",0.631999969,1,1,1
"398",22,391,0.9,"stim/32.jpeg",3,2,3,2,"Instruments",2,"stim/objects/Instruments/grandpiano.png",2,"right","right",0.707999945,1,1,1
"399",22,392,0.3,"stim/23.jpeg",2,3,2,1,"Instruments",2,"stim/objects/Instruments/electricguitar2.png",1,"right","left",0.529000044,0,0,1
"400",22,393,0.9,"stim/33.jpeg",3,3,3,2,"Instruments",2,"stim/objects/Instruments/flute.png",1,"right","right",0.500999928,1,1,1
"401",22,394,0.9,"stim/41.jpeg",4,1,3,2,"HouseObjects",1,"stim/objects/HouseObjects/garbagebin.png",4,"left","left",0.601999998,1,1,1
"402",22,395,0.5,"stim/54.jpeg",5,4,1,2,"Instruments",2,"stim/objects/Instruments/accordion.png",4,"right","right",0.616999865,1,1,1
"403",22,396,0.9,"stim/33.jpeg",3,3,3,2,"Instruments",2,"stim/objects/Instruments/frenchhorn.png",1,"right","right",0.622999907,1,1,1
"404",22,397,0.7,"stim/22.jpeg",2,2,2,2,"HouseObjects",1,"stim/objects/HouseObjects/clothespin.png",1,"left","left",0.618999958,1,1,1
"405",22,398,0.3,"stim/12.jpeg",1,2,2,1,"HouseObjects",1,"stim/objects/HouseObjects/ashtray2.png",2,"left","right",0.54399991,0,0,1
"406",22,399,0.9,"stim/41.jpeg",4,1,3,2,"HouseObjects",1,"stim/objects/HouseObjects/doormat.png",4,"left","left",0.626999855,1,1,1
"407",22,400,0.9,"stim/43.jpeg",4,3,3,2,"HouseObjects",1,"stim/objects/HouseObjects/doormat.png",3,"left","left",0.546999931,1,1,1
"408",22,401,0.9,"stim/33.jpeg",3,3,3,2,"Instruments",2,"stim/objects/Instruments/grandpiano.png",2,"right","right",0.518999815,1,1,1
"409",22,402,0.9,"stim/41.jpeg",4,1,3,2,"HouseObjects",1,"stim/objects/HouseObjects/doormat.png",2,"left","left",0.571999788,1,1,1
"410",22,403,0.7,"stim/11.jpeg",1,1,2,2,"Instruments",2,"stim/objects/Instruments/cymbal.png",4,"right","right",0.493999958,1,1,1
"411",22,404,0.5,"stim/63.jpeg",6,3,1,2,"HouseObjects",1,"stim/objects/HouseObjects/blender.png",4,"left","right",0.573999882,0,0,1
"412",22,405,0.5,"stim/51.jpeg",5,1,1,1,"HouseObjects",1,"stim/objects/HouseObjects/handbrush.png",1,"left","left",0.621000051,1,1,1
"413",22,406,0.9,"stim/31.jpeg",3,1,3,2,"Instruments",2,"stim/objects/Instruments/frenchhorn.png",1,"right","",NA,0,0,1
"414",22,407,0.9,"stim/31.jpeg",3,1,3,2,"Instruments",2,"stim/objects/Instruments/frenchhorn.png",2,"right","right",0.561999798,1,1,1
"415",22,408,0.5,"stim/64.jpeg",6,4,1,2,"Instruments",2,"stim/objects/Instruments/cello.png",4,"right","left",0.825999975,0,0,1
"416",22,409,0.7,"stim/14.jpeg",1,4,2,2,"Instruments",2,"stim/objects/Instruments/doublebass.png",4,"right","right",0.718999863,1,1,1
"417",22,410,0.9,"stim/44.jpeg",4,4,3,2,"HouseObjects",1,"stim/objects/HouseObjects/glass.png",3,"left","left",0.618000031,1,1,1
"418",22,411,0.7,"stim/21.jpeg",2,1,2,2,"HouseObjects",1,"stim/objects/HouseObjects/cushion.png",2,"left","right",0.466999769,0,0,1
"419",22,412,0.9,"stim/42.jpeg",4,2,3,2,"HouseObjects",1,"stim/objects/HouseObjects/garbagebin.png",3,"left","left",0.600999832,1,1,1
"420",22,413,0.9,"stim/32.jpeg",3,2,3,2,"Instruments",2,"stim/objects/Instruments/grandpiano.png",1,"right","right",0.563999891,1,1,1
"421",22,414,0.5,"stim/61.jpeg",6,1,1,1,"HouseObjects",1,"stim/objects/HouseObjects/teapot.png",1,"left","right",0.703000069,0,0,1
"422",22,415,0.9,"stim/32.jpeg",3,2,3,2,"Instruments",2,"stim/objects/Instruments/flute.png",2,"right","right",0.727999926,1,1,1
"423",22,416,0.9,"stim/33.jpeg",3,3,3,2,"Instruments",2,"stim/objects/Instruments/grandpiano.png",3,"right","right",0.609999895,1,1,1
"424",22,417,0.7,"stim/21.jpeg",2,1,2,1,"HouseObjects",1,"stim/objects/HouseObjects/dishsoap2.png",4,"left","left",0.619999886,1,1,1
"425",22,418,0.9,"stim/43.jpeg",4,3,3,2,"HouseObjects",1,"stim/objects/HouseObjects/glass.png",3,"left","left",0.595999956,1,1,1
"426",22,419,0.7,"stim/21.jpeg",2,1,2,1,"HouseObjects",1,"stim/objects/HouseObjects/clothesdryingrack2.png",3,"left","left",0.616999865,1,1,1
"427",22,420,0.7,"stim/12.jpeg",1,2,2,2,"Instruments",2,"stim/objects/Instruments/electricdrumset.png",1,"right","right",0.631999969,1,1,1
"428",22,421,0.7,"stim/22.jpeg",2,2,2,1,"HouseObjects",1,"stim/objects/HouseObjects/clothespin2.png",3,"left","left",0.540999889,1,1,1
"429",22,422,0.7,"stim/11.jpeg",1,1,2,2,"Instruments",2,"stim/objects/Instruments/doublebass.png",1,"right","right",0.629999876,1,1,1
"430",22,423,0.7,"stim/11.jpeg",1,1,2,2,"Instruments",2,"stim/objects/Instruments/electricguitar.png",2,"right","right",0.65199995,1,1,1
"431",22,424,0.5,"stim/51.jpeg",5,1,1,1,"Instruments",2,"stim/objects/Instruments/hihat.png",2,"right","left",0.691999912,0,0,1
"432",22,425,0.9,"stim/31.jpeg",3,1,3,2,"Instruments",2,"stim/objects/Instruments/flute.png",2,"right","right",0.601000071,1,1,1
"433",22,426,0.9,"stim/34.jpeg",3,4,3,1,"Instruments",2,"stim/objects/Instruments/saxophone2.png",2,"right","right",0.537999868,1,1,1
"434",22,427,0.9,"stim/32.jpeg",3,2,3,1,"Instruments",2,"stim/objects/Instruments/harp2.png",1,"right","right",0.510999918,1,1,1
"435",22,428,0.5,"stim/63.jpeg",6,3,1,2,"Instruments",2,"stim/objects/Instruments/cello.png",1,"right","right",0.559999943,1,1,1
"436",22,429,0.9,"stim/41.jpeg",4,1,3,2,"HouseObjects",1,"stim/objects/HouseObjects/flyswatter.png",1,"left","left",0.529000044,1,1,1
"437",22,430,0.5,"stim/51.jpeg",5,1,1,2,"Instruments",2,"stim/objects/Instruments/bassdrum.png",3,"right","left",0.575000048,0,0,1
"438",22,431,0.9,"stim/32.jpeg",3,2,3,2,"Instruments",2,"stim/objects/Instruments/flute.png",2,"right","right",0.484999895,1,1,1
"439",22,432,0.1,"stim/44.jpeg",4,4,3,1,"Instruments",2,"stim/objects/Instruments/trumpet2.png",1,"right","left",0.579999924,0,0,1
"440",22,433,0.9,"stim/34.jpeg",3,4,3,2,"Instruments",2,"stim/objects/Instruments/flute.png",4,"right","right",0.486999989,1,1,1
"441",22,434,0.9,"stim/42.jpeg",4,2,3,2,"HouseObjects",1,"stim/objects/HouseObjects/glass.png",3,"left","left",0.583999872,1,1,1
"442",22,435,0.9,"stim/33.jpeg",3,3,3,1,"Instruments",2,"stim/objects/Instruments/hihat2.png",3,"right","right",0.65199995,1,1,1
"443",22,436,0.9,"stim/32.jpeg",3,2,3,2,"Instruments",2,"stim/objects/Instruments/gong.png",1,"right","right",0.65199995,1,1,1
"444",22,437,0.9,"stim/43.jpeg",4,3,3,2,"HouseObjects",1,"stim/objects/HouseObjects/dustpan.png",4,"left","left",0.589999914,1,1,1
"445",22,438,0.9,"stim/31.jpeg",3,1,3,2,"Instruments",2,"stim/objects/Instruments/grandpiano.png",2,"right","right",0.639999866,1,1,1
"446",22,439,0.5,"stim/54.jpeg",5,4,1,2,"Instruments",2,"stim/objects/Instruments/banjo.png",2,"right","left",0.694999933,0,0,1
"447",22,440,0.7,"stim/24.jpeg",2,4,2,1,"HouseObjects",1,"stim/objects/HouseObjects/clock2.png",3,"left","left",0.620999813,1,1,1
"448",22,441,0.9,"stim/41.jpeg",4,1,3,2,"HouseObjects",1,"stim/objects/HouseObjects/glass.png",2,"left","left",0.642999887,1,1,1
"449",22,442,0.9,"stim/32.jpeg",3,2,3,2,"Instruments",2,"stim/objects/Instruments/gong.png",4,"right","right",0.48300004,1,1,1
"450",22,443,0.9,"stim/44.jpeg",4,4,3,2,"HouseObjects",1,"stim/objects/HouseObjects/doormat.png",2,"left","left",0.553999901,1,1,1
"451",22,444,0.5,"stim/64.jpeg",6,4,1,1,"Instruments",2,"stim/objects/Instruments/speaker.png",1,"right","left",0.799000025,0,0,1
"452",22,445,0.5,"stim/63.jpeg",6,3,1,2,"Instruments",2,"stim/objects/Instruments/bassguitar.png",4,"right","right",0.635999918,1,1,1
"453",22,446,0.7,"stim/13.jpeg",1,3,2,2,"Instruments",2,"stim/objects/Instruments/drums.png",2,"right","right",0.634000063,1,1,1
"454",22,447,0.9,"stim/42.jpeg",4,2,3,2,"HouseObjects",1,"stim/objects/HouseObjects/dustpan.png",4,"left","left",0.644999981,1,1,1
"455",22,448,0.9,"stim/31.jpeg",3,1,3,2,"Instruments",2,"stim/objects/Instruments/flutetrans.png",3,"right","right",0.582000017,1,1,1
"456",22,449,0.9,"stim/42.jpeg",4,2,3,2,"HouseObjects",1,"stim/objects/HouseObjects/dustpan.png",3,"left","left",0.640000105,1,1,1
"457",22,450,0.9,"stim/34.jpeg",3,4,3,1,"Instruments",2,"stim/objects/Instruments/guitarcase2.png",4,"right","right",0.575999975,1,1,1
"458",22,451,0.9,"stim/33.jpeg",3,3,3,1,"Instruments",2,"stim/objects/Instruments/grandpiano2.png",2,"right","right",0.598999977,1,1,1
"459",22,452,0.1,"stim/31.jpeg",3,1,3,1,"HouseObjects",1,"stim/objects/HouseObjects/glass2.png",1,"left","right",0.592999935,0,0,1
"460",22,453,0.7,"stim/12.jpeg",1,2,2,1,"Instruments",2,"stim/objects/Instruments/trumpet.png",4,"right","right",0.707999945,1,1,1
"461",22,454,0.9,"stim/34.jpeg",3,4,3,2,"Instruments",2,"stim/objects/Instruments/frenchhorn.png",2,"right","right",0.631999731,1,1,1
"462",22,455,0.9,"stim/44.jpeg",4,4,3,2,"HouseObjects",1,"stim/objects/HouseObjects/garbagebin.png",3,"left","left",0.572000027,1,1,1
"463",22,456,0.5,"stim/54.jpeg",5,4,1,2,"HouseObjects",1,"stim/objects/HouseObjects/barbecuelighter.png",2,"left","right",0.698999882,0,0,1
"464",22,457,0.5,"stim/54.jpeg",5,4,1,2,"HouseObjects",1,"stim/objects/HouseObjects/basket.png",1,"left","left",0.5849998,1,1,1
"465",22,458,0.5,"stim/64.jpeg",6,4,1,1,"HouseObjects",1,"stim/objects/HouseObjects/spraybottle.png",3,"left","left",0.81099987,1,1,1
"466",22,459,0.9,"stim/44.jpeg",4,4,3,2,"HouseObjects",1,"stim/objects/HouseObjects/garbagebin.png",3,"left","left",0.592000008,1,1,1
"467",22,460,0.7,"stim/12.jpeg",1,2,2,1,"Instruments",2,"stim/objects/Instruments/banjo2.png",2,"right","right",0.676000118,1,1,1
"468",22,461,0.5,"stim/52.jpeg",5,2,1,2,"Instruments",2,"stim/objects/Instruments/balalaika.png",2,"right","left",0.59800005,0,0,1
"469",22,462,0.9,"stim/33.jpeg",3,3,3,2,"Instruments",2,"stim/objects/Instruments/flute.png",1,"right","right",0.585999966,1,1,1
"470",22,463,0.7,"stim/11.jpeg",1,1,2,2,"Instruments",2,"stim/objects/Instruments/drums.png",4,"right","right",0.540999889,1,1,1
"471",22,464,0.5,"stim/64.jpeg",6,4,1,2,"Instruments",2,"stim/objects/Instruments/chime.png",1,"right","left",0.697999954,0,0,1
"472",22,465,0.9,"stim/44.jpeg",4,4,3,2,"HouseObjects",1,"stim/objects/HouseObjects/glass.png",2,"left","left",0.51699996,1,1,1
"473",22,466,0.1,"stim/44.jpeg",4,4,3,1,"Instruments",2,"stim/objects/Instruments/tambourine2.png",4,"right","left",0.625,0,0,1
"474",22,467,0.9,"stim/34.jpeg",3,4,3,2,"Instruments",2,"stim/objects/Instruments/grandpiano.png",1,"right","right",0.654999971,1,1,1
"475",22,468,0.9,"stim/43.jpeg",4,3,3,2,"HouseObjects",1,"stim/objects/HouseObjects/doormat.png",4,"left","left",0.632999897,1,1,1
"476",22,469,0.9,"stim/31.jpeg",3,1,3,2,"Instruments",2,"stim/objects/Instruments/frenchhorn.png",2,"right","right",0.605000019,1,1,1
"477",22,470,0.9,"stim/34.jpeg",3,4,3,2,"Instruments",2,"stim/objects/Instruments/gong.png",1,"right","right",0.637999773,1,1,1
"478",22,471,0.7,"stim/13.jpeg",1,3,2,2,"Instruments",2,"stim/objects/Instruments/electricguitar.png",2,"right","right",0.671999931,1,1,1
"479",22,472,0.1,"stim/32.jpeg",3,2,3,1,"HouseObjects",1,"stim/objects/HouseObjects/glassmop2.png",3,"left","right",0.619999886,0,0,1
"480",22,473,0.9,"stim/32.jpeg",3,2,3,2,"Instruments",2,"stim/objects/Instruments/flute.png",4,"right","right",0.514999866,1,1,1
"481",22,474,0.5,"stim/51.jpeg",5,1,1,2,"Instruments",2,"stim/objects/Instruments/accordion.png",2,"right","left",0.578999758,0,0,1
"482",22,475,0.9,"stim/41.jpeg",4,1,3,2,"HouseObjects",1,"stim/objects/HouseObjects/glass.png",4,"left","left",0.862999916,1,1,1
"483",22,476,0.9,"stim/41.jpeg",4,1,3,1,"HouseObjects",1,"stim/objects/HouseObjects/vacuumcleaner2.png",2,"left","left",0.496000051,1,1,1
"484",22,477,0.9,"stim/42.jpeg",4,2,3,2,"HouseObjects",1,"stim/objects/HouseObjects/glass.png",2,"left","left",0.53399992,1,1,1
"485",22,478,0.9,"stim/42.jpeg",4,2,3,2,"HouseObjects",1,"stim/objects/HouseObjects/dustpan.png",1,"left","left",0.56099987,1,1,1
"486",22,479,0.9,"stim/34.jpeg",3,4,3,2,"Instruments",2,"stim/objects/Instruments/grandpiano.png",1,"right","right",0.673999786,1,1,1
"487",22,480,0.9,"stim/44.jpeg",4,4,3,1,"HouseObjects",1,"stim/objects/HouseObjects/towel2.png",3,"left","left",0.556999922,1,1,1
"488",22,481,0.7,"stim/24.jpeg",2,4,2,1,"HouseObjects",1,"stim/objects/HouseObjects/cushion2.png",4,"left","left",0.652999878,1,1,1
"489",22,482,0.9,"stim/41.jpeg",4,1,3,2,"HouseObjects",1,"stim/objects/HouseObjects/glass.png",4,"left","left",0.559999704,1,1,1
"490",22,483,0.7,"stim/21.jpeg",2,1,2,2,"HouseObjects",1,"stim/objects/HouseObjects/dishsoap.png",3,"left","left",0.612999916,1,1,1
"491",22,484,0.7,"stim/11.jpeg",1,1,2,1,"Instruments",2,"stim/objects/Instruments/vuvuzela.png",2,"right","left",0.519999981,0,0,1
"492",22,485,0.1,"stim/33.jpeg",3,3,3,1,"HouseObjects",1,"stim/objects/HouseObjects/hairdryer2.png",3,"left","right",0.522000074,0,0,1
"493",22,486,0.9,"stim/31.jpeg",3,1,3,2,"Instruments",2,"stim/objects/Instruments/gong.png",4,"right","right",0.566999912,1,1,1
"494",22,487,0.1,"stim/34.jpeg",3,4,3,1,"HouseObjects",1,"stim/objects/HouseObjects/handbrush2.png",3,"left","right",0.485000134,0,0,1
"495",22,488,0.9,"stim/32.jpeg",3,2,3,2,"Instruments",2,"stim/objects/Instruments/flutetrans.png",1,"right","right",0.638000011,1,1,1
"496",22,489,0.9,"stim/41.jpeg",4,1,3,2,"HouseObjects",1,"stim/objects/HouseObjects/doormat.png",4,"left","left",0.648000002,1,1,1
"497",22,490,0.7,"stim/24.jpeg",2,4,2,2,"HouseObjects",1,"stim/objects/HouseObjects/cushion.png",1,"left","left",0.569999933,1,1,1
"498",22,491,0.9,"stim/42.jpeg",4,2,3,2,"HouseObjects",1,"stim/objects/HouseObjects/flyswatter.png",3,"left","left",0.610000134,1,1,1
"499",22,492,0.1,"stim/42.jpeg",4,2,3,1,"Instruments",2,"stim/objects/Instruments/violin2.png",2,"right","left",0.502999783,0,0,1
"500",22,493,0.1,"stim/41.jpeg",4,1,3,1,"Instruments",2,"stim/objects/Instruments/timbal2.png",1,"right","left",0.690000057,0,0,1
"501",22,494,0.9,"stim/44.jpeg",4,4,3,2,"HouseObjects",1,"stim/objects/HouseObjects/glass.png",3,"left","left",0.540999889,1,1,1
"502",22,495,0.9,"stim/42.jpeg",4,2,3,2,"HouseObjects",1,"stim/objects/HouseObjects/flyswatter.png",3,"left","left",0.529999971,1,1,1
"503",22,496,0.9,"stim/41.jpeg",4,1,3,2,"HouseObjects",1,"stim/objects/HouseObjects/garbagebin.png",4,"left","left",0.52699995,1,1,1
"504",22,497,0.9,"stim/34.jpeg",3,4,3,2,"Instruments",2,"stim/objects/Instruments/flutetrans.png",3,"right","right",0.64199996,1,1,1
"505",22,498,0.1,"stim/42.jpeg",4,2,3,1,"Instruments",2,"stim/objects/Instruments/triangle2.png",1,"right","left",0.586999893,0,0,1
"506",22,499,0.9,"stim/42.jpeg",4,2,3,2,"HouseObjects",1,"stim/objects/HouseObjects/garbagebin.png",4,"left","left",0.570999861,1,1,1
"507",22,500,0.9,"stim/31.jpeg",3,1,3,2,"Instruments",2,"stim/objects/Instruments/flute.png",4,"right","right",0.595999956,1,1,1
"508",22,501,0.9,"stim/44.jpeg",4,4,3,2,"HouseObjects",1,"stim/objects/HouseObjects/flyswatter.png",3,"left","left",0.626999855,1,1,1
"509",22,502,0.9,"stim/32.jpeg",3,2,3,2,"Instruments",2,"stim/objects/Instruments/grandpiano.png",1,"right","right",0.662999868,1,1,1
"510",22,503,0.5,"stim/54.jpeg",5,4,1,2,"Instruments",2,"stim/objects/Instruments/bassdrum.png",3,"right","left",0.663000107,0,0,1
"511",22,504,0.9,"stim/34.jpeg",3,4,3,2,"Instruments",2,"stim/objects/Instruments/frenchhorn.png",4,"right","right",0.54399991,1,1,1
"512",22,505,0.9,"stim/31.jpeg",3,1,3,1,"Instruments",2,"stim/objects/Instruments/harmonica2.png",1,"right","right",0.501999855,1,1,1
"513",22,506,0.3,"stim/22.jpeg",2,2,2,1,"Instruments",2,"stim/objects/Instruments/cornet2.png",4,"right","left",0.638000011,0,0,1
"514",22,507,0.9,"stim/33.jpeg",3,3,3,2,"Instruments",2,"stim/objects/Instruments/grandpiano.png",4,"right","right",0.619999886,1,1,1
"515",22,508,0.9,"stim/32.jpeg",3,2,3,2,"Instruments",2,"stim/objects/Instruments/frenchhorn.png",2,"right","right",0.742000103,1,1,1
"516",22,509,0.9,"stim/41.jpeg",4,1,3,2,"HouseObjects",1,"stim/objects/HouseObjects/flyswatter.png",1,"left","left",0.557999849,1,1,1
"517",22,510,0.9,"stim/34.jpeg",3,4,3,2,"Instruments",2,"stim/objects/Instruments/frenchhorn.png",1,"right","right",0.527999878,1,1,1
"518",22,511,0.9,"stim/43.jpeg",4,3,3,1,"HouseObjects",1,"stim/objects/HouseObjects/sponge2.png",4,"left","left",0.56099987,1,1,1
"519",22,512,0.9,"stim/42.jpeg",4,2,3,2,"HouseObjects",1,"stim/objects/HouseObjects/doormat.png",1,"left","left",0.661000013,1,1,1
"520",22,513,0.3,"stim/14.jpeg",1,4,2,1,"HouseObjects",1,"stim/objects/HouseObjects/vacuumcleaner.png",1,"left","right",0.619999886,0,0,1
"521",22,514,0.3,"stim/22.jpeg",2,2,2,1,"Instruments",2,"stim/objects/Instruments/bassguitar2.png",4,"right","left",0.620999813,0,0,1
"522",22,515,0.7,"stim/22.jpeg",2,2,2,2,"HouseObjects",1,"stim/objects/HouseObjects/dishsoap.png",2,"left","left",0.819999933,1,1,1
"523",22,516,0.3,"stim/24.jpeg",2,4,2,1,"Instruments",2,"stim/objects/Instruments/doublebass2.png",3,"right","left",0.503999949,0,0,1
"524",22,517,0.5,"stim/52.jpeg",5,2,1,2,"HouseObjects",1,"stim/objects/HouseObjects/bleachbottle.png",1,"left","left",0.648999929,1,1,1
"525",22,518,0.9,"stim/41.jpeg",4,1,3,1,"HouseObjects",1,"stim/objects/HouseObjects/teapot2.png",4,"left","left",0.67599988,1,1,1
"526",22,519,0.9,"stim/42.jpeg",4,2,3,2,"HouseObjects",1,"stim/objects/HouseObjects/doormat.png",4,"left","left",0.511999846,1,1,1
"527",22,520,0.5,"stim/51.jpeg",5,1,1,2,"HouseObjects",1,"stim/objects/HouseObjects/basket.png",1,"left","left",0.661999941,1,1,1
"528",22,521,0.1,"stim/32.jpeg",3,2,3,1,"HouseObjects",1,"stim/objects/HouseObjects/dustpan2.png",2,"left","right",0.483999968,0,0,1
"529",22,522,0.9,"stim/31.jpeg",3,1,3,2,"Instruments",2,"stim/objects/Instruments/grandpiano.png",2,"right","right",0.559999943,1,1,1
"530",22,523,0.3,"stim/24.jpeg",2,4,2,1,"Instruments",2,"stim/objects/Instruments/chime2.png",1,"right","left",0.588999987,0,0,1
"531",22,524,0.9,"stim/44.jpeg",4,4,3,1,"HouseObjects",1,"stim/objects/HouseObjects/spraybottle2.png",1,"left","left",0.536000013,1,1,1
"532",22,525,0.5,"stim/52.jpeg",5,2,1,1,"Instruments",2,"stim/objects/Instruments/saxophone.png",2,"right","left",0.605999947,0,0,1
"533",22,526,0.9,"stim/33.jpeg",3,3,3,2,"Instruments",2,"stim/objects/Instruments/flutetrans.png",2,"right","right",0.44299984,1,1,1
"534",22,527,0.9,"stim/43.jpeg",4,3,3,2,"HouseObjects",1,"stim/objects/HouseObjects/doormat.png",3,"left","left",0.546999931,1,1,1
"535",22,528,0.5,"stim/53.jpeg",5,3,1,2,"HouseObjects",1,"stim/objects/HouseObjects/barbecuelighter.png",1,"left","right",0.453999758,0,0,1
"536",22,529,0.9,"stim/43.jpeg",4,3,3,2,"HouseObjects",1,"stim/objects/HouseObjects/glass.png",4,"left","right",0.519999981,0,0,1
"537",22,530,0.5,"stim/61.jpeg",6,1,1,2,"Instruments",2,"stim/objects/Instruments/chime.png",3,"right","right",0.770999908,1,1,1
"538",22,531,0.5,"stim/52.jpeg",5,2,1,1,"HouseObjects",1,"stim/objects/HouseObjects/handvacuum.png",4,"left","left",0.677999973,1,1,1
"539",22,532,0.9,"stim/33.jpeg",3,3,3,2,"Instruments",2,"stim/objects/Instruments/flutetrans.png",2,"right","right",0.589999914,1,1,1
"540",22,533,0.9,"stim/41.jpeg",4,1,3,2,"HouseObjects",1,"stim/objects/HouseObjects/glass.png",2,"left","left",0.637999773,1,1,1
"541",22,534,0.1,"stim/32.jpeg",3,2,3,1,"HouseObjects",1,"stim/objects/HouseObjects/safetypin2.png",1,"left","right",0.59499979,0,0,1
"542",22,535,0.5,"stim/64.jpeg",6,4,1,2,"HouseObjects",1,"stim/objects/HouseObjects/blender.png",1,"left","right",0.616999865,0,0,1
"543",22,536,0.3,"stim/22.jpeg",2,2,2,1,"Instruments",2,"stim/objects/Instruments/electricdrumset2.png",2,"right","left",0.693999767,0,0,1
"544",22,537,0.9,"stim/32.jpeg",3,2,3,2,"Instruments",2,"stim/objects/Instruments/gong.png",4,"right","right",0.540999889,1,1,1
"545",22,538,0.9,"stim/44.jpeg",4,4,3,2,"HouseObjects",1,"stim/objects/HouseObjects/doormat.png",4,"left","left",0.606999874,1,1,1
"546",22,539,0.5,"stim/53.jpeg",5,3,1,2,"Instruments",2,"stim/objects/Instruments/balalaika.png",4,"right","right",0.5849998,1,1,1
"547",22,540,0.3,"stim/11.jpeg",1,1,2,1,"HouseObjects",1,"stim/objects/HouseObjects/basket2.png",2,"left","right",0.552999973,0,0,1
"548",22,541,0.9,"stim/33.jpeg",3,3,3,2,"Instruments",2,"stim/objects/Instruments/gong.png",3,"right","right",0.654999971,1,1,1
"549",22,542,0.7,"stim/23.jpeg",2,3,2,2,"HouseObjects",1,"stim/objects/HouseObjects/coffee.png",3,"left","left",0.539999962,1,1,1
"550",22,543,0.9,"stim/43.jpeg",4,3,3,2,"HouseObjects",1,"stim/objects/HouseObjects/garbagebin.png",3,"left","left",0.747999907,1,1,1
"551",22,544,0.5,"stim/53.jpeg",5,3,1,1,"HouseObjects",1,"stim/objects/HouseObjects/safetypin.png",3,"left","left",0.748999834,1,1,1
"552",22,545,0.9,"stim/42.jpeg",4,2,3,2,"HouseObjects",1,"stim/objects/HouseObjects/glass.png",4,"left","left",0.699999809,1,1,1
"553",22,546,0.9,"stim/44.jpeg",4,4,3,2,"HouseObjects",1,"stim/objects/HouseObjects/flyswatter.png",3,"left","left",0.555999994,1,1,1
"554",22,547,0.9,"stim/31.jpeg",3,1,3,2,"Instruments",2,"stim/objects/Instruments/flute.png",2,"right","right",0.500999928,1,1,1
"555",22,548,0.9,"stim/42.jpeg",4,2,3,2,"HouseObjects",1,"stim/objects/HouseObjects/doormat.png",1,"left","left",0.593999863,1,1,1
"556",22,549,0.9,"stim/34.jpeg",3,4,3,2,"Instruments",2,"stim/objects/Instruments/flutetrans.png",3,"right","right",0.604999781,1,1,1
"557",22,550,0.9,"stim/43.jpeg",4,3,3,2,"HouseObjects",1,"stim/objects/HouseObjects/dustpan.png",2,"left","left",0.54399991,1,1,1
"558",22,551,0.3,"stim/13.jpeg",1,3,2,1,"HouseObjects",1,"stim/objects/HouseObjects/ballofstring2.png",3,"left","right",0.529000044,0,0,1
"559",22,552,0.9,"stim/43.jpeg",4,3,3,2,"HouseObjects",1,"stim/objects/HouseObjects/garbagebin.png",2,"left","left",0.56799984,1,1,1
"560",22,553,0.9,"stim/32.jpeg",3,2,3,2,"Instruments",2,"stim/objects/Instruments/grandpiano.png",3,"right","right",0.628999949,1,1,1
"561",22,554,0.9,"stim/32.jpeg",3,2,3,2,"Instruments",2,"stim/objects/Instruments/flutetrans.png",1,"right","right",0.642999887,1,1,1
"562",22,555,0.3,"stim/23.jpeg",2,3,2,1,"Instruments",2,"stim/objects/Instruments/cello2.png",3,"right","left",0.544999838,0,0,1
"563",22,556,0.7,"stim/14.jpeg",1,4,2,1,"Instruments",2,"stim/objects/Instruments/violin.png",2,"right","right",0.77699995,1,1,1
"564",22,557,0.7,"stim/24.jpeg",2,4,2,2,"HouseObjects",1,"stim/objects/HouseObjects/coffee.png",4,"left","left",0.595999956,1,1,1
"565",22,558,0.9,"stim/42.jpeg",4,2,3,2,"HouseObjects",1,"stim/objects/HouseObjects/glass.png",2,"left","left",0.754999876,1,1,1
"566",22,559,0.5,"stim/63.jpeg",6,3,1,2,"Instruments",2,"stim/objects/Instruments/cornet.png",1,"right","right",0.588999748,1,1,1
"567",22,560,0.3,"stim/21.jpeg",2,1,2,1,"Instruments",2,"stim/objects/Instruments/clarinet2.png",1,"right","left",0.605999947,0,0,1
"568",22,561,0.9,"stim/43.jpeg",4,3,3,2,"HouseObjects",1,"stim/objects/HouseObjects/flyswatter.png",1,"left","left",0.59800005,1,1,1
"569",22,562,0.9,"stim/44.jpeg",4,4,3,2,"HouseObjects",1,"stim/objects/HouseObjects/dustpan.png",3,"left","left",0.715999842,1,1,1
"570",22,563,0.9,"stim/42.jpeg",4,2,3,2,"HouseObjects",1,"stim/objects/HouseObjects/dustpan.png",4,"left","left",0.657999992,1,1,1
"571",22,564,0.9,"stim/41.jpeg",4,1,3,2,"HouseObjects",1,"stim/objects/HouseObjects/flyswatter.png",1,"left","left",0.549999952,1,1,1
"572",22,565,0.7,"stim/12.jpeg",1,2,2,1,"Instruments",2,"stim/objects/Instruments/xylophone.png",3,"right","right",0.664000034,1,1,1
"573",22,566,0.7,"stim/21.jpeg",2,1,2,2,"HouseObjects",1,"stim/objects/HouseObjects/coffee.png",3,"left","left",0.585999966,1,1,1
"574",22,567,0.1,"stim/44.jpeg",4,4,3,1,"Instruments",2,"stim/objects/Instruments/xylophone2.png",2,"right","left",0.674000025,0,0,1
"575",22,568,0.9,"stim/32.jpeg",3,2,3,2,"Instruments",2,"stim/objects/Instruments/flutetrans.png",4,"right","left",0.555999756,0,0,1
"576",22,569,0.9,"stim/44.jpeg",4,4,3,2,"HouseObjects",1,"stim/objects/HouseObjects/dustpan.png",2,"left","left",0.555999994,1,1,1
"577",22,570,0.5,"stim/53.jpeg",5,3,1,2,"Instruments",2,"stim/objects/Instruments/banjo.png",4,"right","right",0.694999933,1,1,1
