"","obj_file","X.x","participant.x","trialN.x","trial_cond","scn_file.x","scn_cat","scn_inst","scn_condition","fillers","obj_cat","obj_cat_num","quadrant","corr_ans","key_resp_trial.keys","key_resp_trial.rt","trial_acc","trial_acc_manual","group.x","practice","X.y","participant.y","OvsN","PE_level","object_cat","scn_file.y","corr_scn_cat","corr_scn_inst","scn_file.1","corr_loc","key_resp_id.keys","key_resp_id.rt","key_resp_conf.keys","key_resp_assoc.keys","key_resp_assoc.rt","key_resp_loc.keys","key_resp_loc.rt","trialN.y","id_acc","assoc.acc","cond_assoc","loc.acc","cond_loc","group.y"
"18","stim/objects/HouseObjects/ironingboard2.png",1,77,1,0.7,"stim/22.jpeg",2,2,2,NA,"HouseObjects",1,3,"left","",NA,0,0,0,1,NA,NA,NA,NA,NA,NA,NA,NA,NA,NA,NA,NA,NA,NA,NA,NA,NA,NA,NA,NA,NA,NA,NA,NA
"67","stim/objects/HouseObjects/pitcher.png",2,77,2,0.5,"stim/64.jpeg",6,4,1,NA,"HouseObjects",1,3,"left","",NA,0,0,0,1,NA,NA,NA,NA,NA,NA,NA,NA,NA,NA,NA,NA,NA,NA,NA,NA,NA,NA,NA,NA,NA,NA,NA,NA
"100","stim/objects/HouseObjects/rubbergloves2.png",3,77,3,0.9,"stim/43.jpeg",4,3,3,NA,"HouseObjects",1,2,"left","left",0.686000109,1,1,0,1,NA,NA,NA,NA,NA,NA,NA,NA,NA,NA,NA,NA,NA,NA,NA,NA,NA,NA,NA,NA,NA,NA,NA,NA
"88","stim/objects/HouseObjects/remote2.png",4,77,4,0.9,"stim/42.jpeg",4,2,3,NA,"HouseObjects",1,2,"left","left",0.621000051,1,1,0,1,NA,NA,NA,NA,NA,NA,NA,NA,NA,NA,NA,NA,NA,NA,NA,NA,NA,NA,NA,NA,NA,NA,NA,NA
"101","stim/objects/HouseObjects/rubbergloves2.png",5,77,5,0.9,"stim/43.jpeg",4,3,3,NA,"HouseObjects",1,1,"left","left",0.724000216,1,1,0,1,NA,NA,NA,NA,NA,NA,NA,NA,NA,NA,NA,NA,NA,NA,NA,NA,NA,NA,NA,NA,NA,NA,NA,NA
"181","stim/objects/Instruments/musicstand.png",6,77,6,0.5,"stim/63.jpeg",6,3,1,NA,"Instruments",2,1,"right","right",0.678000212,1,1,0,1,NA,NA,NA,NA,NA,NA,NA,NA,NA,NA,NA,NA,NA,NA,NA,NA,NA,NA,NA,NA,NA,NA,NA,NA
"209","stim/objects/Instruments/panflute.png",7,77,7,0.7,"stim/11.jpeg",1,1,2,NA,"Instruments",2,3,"right","right",0.732000351,1,1,0,1,NA,NA,NA,NA,NA,NA,NA,NA,NA,NA,NA,NA,NA,NA,NA,NA,NA,NA,NA,NA,NA,NA,NA,NA
"6","stim/objects/HouseObjects/iron2.png",8,77,8,0.7,"stim/21.jpeg",2,1,2,NA,"HouseObjects",1,2,"left","left",0.703000307,1,1,0,1,NA,NA,NA,NA,NA,NA,NA,NA,NA,NA,NA,NA,NA,NA,NA,NA,NA,NA,NA,NA,NA,NA,NA,NA
"145","stim/objects/Instruments/marimba.png",9,77,9,0.5,"stim/54.jpeg",5,4,1,NA,"Instruments",2,3,"right","left",0.728000164,0,0,0,1,NA,NA,NA,NA,NA,NA,NA,NA,NA,NA,NA,NA,NA,NA,NA,NA,NA,NA,NA,NA,NA,NA,NA,NA
"210","stim/objects/Instruments/panflute.png",10,77,10,0.7,"stim/11.jpeg",1,1,2,NA,"Instruments",2,2,"right","",NA,0,0,0,1,NA,NA,NA,NA,NA,NA,NA,NA,NA,NA,NA,NA,NA,NA,NA,NA,NA,NA,NA,NA,NA,NA,NA,NA
"186","stim/objects/Instruments/musicstand2.png",11,77,11,0.9,"stim/33.jpeg",3,3,3,NA,"Instruments",2,1,"right","right",0.668000221,1,1,0,1,NA,NA,NA,NA,NA,NA,NA,NA,NA,NA,NA,NA,NA,NA,NA,NA,NA,NA,NA,NA,NA,NA,NA,NA
"187","stim/objects/Instruments/musicstand2.png",12,77,12,0.9,"stim/33.jpeg",3,3,3,NA,"Instruments",2,2,"right","right",0.563000202,1,1,0,1,NA,NA,NA,NA,NA,NA,NA,NA,NA,NA,NA,NA,NA,NA,NA,NA,NA,NA,NA,NA,NA,NA,NA,NA
"225","stim/objects/Instruments/record_player.png",13,77,13,0.7,"stim/14.jpeg",1,4,2,NA,"Instruments",2,3,"right","left",0.677000284,0,0,0,1,NA,NA,NA,NA,NA,NA,NA,NA,NA,NA,NA,NA,NA,NA,NA,NA,NA,NA,NA,NA,NA,NA,NA,NA
"89","stim/objects/HouseObjects/remote2.png",14,77,14,0.9,"stim/42.jpeg",4,2,3,NA,"HouseObjects",1,1,"left","left",0.723000288,1,1,0,1,NA,NA,NA,NA,NA,NA,NA,NA,NA,NA,NA,NA,NA,NA,NA,NA,NA,NA,NA,NA,NA,NA,NA,NA
"211","stim/objects/Instruments/panflute.png",15,77,15,0.7,"stim/11.jpeg",1,1,2,NA,"Instruments",2,2,"right","right",0.676000357,1,1,0,1,NA,NA,NA,NA,NA,NA,NA,NA,NA,NA,NA,NA,NA,NA,NA,NA,NA,NA,NA,NA,NA,NA,NA,NA
"7","stim/objects/HouseObjects/iron2.png",16,77,16,0.7,"stim/21.jpeg",2,1,2,NA,"HouseObjects",1,1,"left","left",0.603000164,1,1,0,1,NA,NA,NA,NA,NA,NA,NA,NA,NA,NA,NA,NA,NA,NA,NA,NA,NA,NA,NA,NA,NA,NA,NA,NA
"200","stim/objects/Instruments/oboe2.png",17,77,17,0.9,"stim/34.jpeg",3,4,3,NA,"Instruments",2,4,"right","right",0.690000057,1,1,0,1,NA,NA,NA,NA,NA,NA,NA,NA,NA,NA,NA,NA,NA,NA,NA,NA,NA,NA,NA,NA,NA,NA,NA,NA
"8","stim/objects/HouseObjects/iron2.png",18,77,18,0.7,"stim/21.jpeg",2,1,2,NA,"HouseObjects",1,1,"left","left",0.588000298,1,1,0,1,NA,NA,NA,NA,NA,NA,NA,NA,NA,NA,NA,NA,NA,NA,NA,NA,NA,NA,NA,NA,NA,NA,NA,NA
"201","stim/objects/Instruments/oboe2.png",19,77,19,0.9,"stim/34.jpeg",3,4,3,NA,"Instruments",2,2,"right","left",0.815000057,0,0,0,1,NA,NA,NA,NA,NA,NA,NA,NA,NA,NA,NA,NA,NA,NA,NA,NA,NA,NA,NA,NA,NA,NA,NA,NA
"61","stim/objects/HouseObjects/pan.png",20,77,20,0.5,"stim/63.jpeg",6,3,1,NA,"HouseObjects",1,1,"left","",NA,0,0,0,1,NA,NA,NA,NA,NA,NA,NA,NA,NA,NA,NA,NA,NA,NA,NA,NA,NA,NA,NA,NA,NA,NA,NA,NA
"217","stim/objects/Instruments/pipepiano.png",21,77,21,0.7,"stim/12.jpeg",1,2,2,NA,"Instruments",2,1,"right","right",0.795000076,1,1,0,1,NA,NA,NA,NA,NA,NA,NA,NA,NA,NA,NA,NA,NA,NA,NA,NA,NA,NA,NA,NA,NA,NA,NA,NA
"134","stim/objects/Instruments/laud2.png",22,77,22,0.3,"stim/22.jpeg",2,2,2,NA,"Instruments",2,3,"right","left",0.588000059,0,0,0,1,NA,NA,NA,NA,NA,NA,NA,NA,NA,NA,NA,NA,NA,NA,NA,NA,NA,NA,NA,NA,NA,NA,NA,NA
"30","stim/objects/HouseObjects/key2.png",23,77,23,0.7,"stim/23.jpeg",2,3,2,NA,"HouseObjects",1,4,"left","left",0.571000099,1,1,0,1,NA,NA,NA,NA,NA,NA,NA,NA,NA,NA,NA,NA,NA,NA,NA,NA,NA,NA,NA,NA,NA,NA,NA,NA
"158","stim/objects/Instruments/metronome2.png",24,77,24,0.9,"stim/31.jpeg",3,1,3,NA,"Instruments",2,2,"right","right",0.607000113,1,1,0,1,NA,NA,NA,NA,NA,NA,NA,NA,NA,NA,NA,NA,NA,NA,NA,NA,NA,NA,NA,NA,NA,NA,NA,NA
"19","stim/objects/HouseObjects/ironingboard2.png",25,77,25,0.7,"stim/22.jpeg",2,2,2,NA,"HouseObjects",1,4,"left","left",0.590000153,1,1,0,1,NA,NA,NA,NA,NA,NA,NA,NA,NA,NA,NA,NA,NA,NA,NA,NA,NA,NA,NA,NA,NA,NA,NA,NA
"233","stim/objects/Instruments/record.png",26,77,26,0.7,"stim/13.jpeg",1,3,2,NA,"Instruments",2,2,"right","right",0.539000034,1,1,0,1,NA,NA,NA,NA,NA,NA,NA,NA,NA,NA,NA,NA,NA,NA,NA,NA,NA,NA,NA,NA,NA,NA,NA,NA
"182","stim/objects/Instruments/musicstand.png",27,77,27,0.5,"stim/63.jpeg",6,3,1,NA,"Instruments",2,3,"right","right",0.605000257,1,1,0,1,NA,NA,NA,NA,NA,NA,NA,NA,NA,NA,NA,NA,NA,NA,NA,NA,NA,NA,NA,NA,NA,NA,NA,NA
"172","stim/objects/Instruments/musicsheet2.png",28,77,28,0.9,"stim/32.jpeg",3,2,3,NA,"Instruments",2,4,"right","right",0.596000195,1,1,0,1,NA,NA,NA,NA,NA,NA,NA,NA,NA,NA,NA,NA,NA,NA,NA,NA,NA,NA,NA,NA,NA,NA,NA,NA
"68","stim/objects/HouseObjects/pitcher.png",29,77,29,0.5,"stim/64.jpeg",6,4,1,NA,"HouseObjects",1,3,"left","right",0.555000305,0,0,0,1,NA,NA,NA,NA,NA,NA,NA,NA,NA,NA,NA,NA,NA,NA,NA,NA,NA,NA,NA,NA,NA,NA,NA,NA
"129","stim/objects/Instruments/laud.png",30,77,30,0.5,"stim/52.jpeg",5,2,1,NA,"Instruments",2,2,"right","right",0.815000057,1,1,0,1,NA,NA,NA,NA,NA,NA,NA,NA,NA,NA,NA,NA,NA,NA,NA,NA,NA,NA,NA,NA,NA,NA,NA,NA
"85","stim/objects/HouseObjects/remote.png",31,77,31,0.3,"stim/12.jpeg",1,2,2,NA,"HouseObjects",1,2,"left","right",0.732000113,0,0,0,1,NA,NA,NA,NA,NA,NA,NA,NA,NA,NA,NA,NA,NA,NA,NA,NA,NA,NA,NA,NA,NA,NA,NA,NA
"76","stim/objects/HouseObjects/recyclingbin2.png",32,77,32,0.9,"stim/41.jpeg",4,1,3,NA,"HouseObjects",1,1,"left","left",0.787000179,1,1,0,1,NA,NA,NA,NA,NA,NA,NA,NA,NA,NA,NA,NA,NA,NA,NA,NA,NA,NA,NA,NA,NA,NA,NA,NA
"202","stim/objects/Instruments/oboe2.png",33,77,33,0.9,"stim/34.jpeg",3,4,3,NA,"Instruments",2,4,"right","right",0.511000156,1,1,0,1,NA,NA,NA,NA,NA,NA,NA,NA,NA,NA,NA,NA,NA,NA,NA,NA,NA,NA,NA,NA,NA,NA,NA,NA
"142","stim/objects/Instruments/maraca2.png",34,77,34,0.3,"stim/23.jpeg",2,3,2,NA,"Instruments",2,2,"right","right",0.675000191,1,1,0,1,NA,NA,NA,NA,NA,NA,NA,NA,NA,NA,NA,NA,NA,NA,NA,NA,NA,NA,NA,NA,NA,NA,NA,NA
"159","stim/objects/Instruments/metronome2.png",35,77,35,0.9,"stim/31.jpeg",3,1,3,NA,"Instruments",2,3,"right","right",0.637000322,1,1,0,1,NA,NA,NA,NA,NA,NA,NA,NA,NA,NA,NA,NA,NA,NA,NA,NA,NA,NA,NA,NA,NA,NA,NA,NA
"195","stim/objects/Instruments/oboe.png",36,77,36,0.5,"stim/64.jpeg",6,4,1,NA,"Instruments",2,1,"right","right",0.784000158,1,1,0,1,NA,NA,NA,NA,NA,NA,NA,NA,NA,NA,NA,NA,NA,NA,NA,NA,NA,NA,NA,NA,NA,NA,NA,NA
"212","stim/objects/Instruments/panflute.png",37,77,37,0.7,"stim/11.jpeg",1,1,2,NA,"Instruments",2,3,"right","left",0.527000189,0,0,0,1,NA,NA,NA,NA,NA,NA,NA,NA,NA,NA,NA,NA,NA,NA,NA,NA,NA,NA,NA,NA,NA,NA,NA,NA
"126","stim/objects/Instruments/keyboard2.png",38,77,38,0.3,"stim/21.jpeg",2,1,2,NA,"Instruments",2,4,"right","",NA,0,0,0,1,NA,NA,NA,NA,NA,NA,NA,NA,NA,NA,NA,NA,NA,NA,NA,NA,NA,NA,NA,NA,NA,NA,NA,NA
"112","stim/objects/HouseObjects/rug2.png",39,77,39,0.9,"stim/44.jpeg",4,4,3,NA,"HouseObjects",1,4,"left","left",0.754000187,1,1,0,1,NA,NA,NA,NA,NA,NA,NA,NA,NA,NA,NA,NA,NA,NA,NA,NA,NA,NA,NA,NA,NA,NA,NA,NA
"121","stim/objects/Instruments/keyboard.png",40,77,40,0.5,"stim/51.jpeg",5,1,1,NA,"Instruments",2,4,"right","left",0.618999958,0,0,0,1,NA,NA,NA,NA,NA,NA,NA,NA,NA,NA,NA,NA,NA,NA,NA,NA,NA,NA,NA,NA,NA,NA,NA,NA
"97","stim/objects/HouseObjects/rubbergloves.png",41,77,41,0.3,"stim/13.jpeg",1,3,2,NA,"HouseObjects",1,4,"left","right",0.762000084,0,0,0,1,NA,NA,NA,NA,NA,NA,NA,NA,NA,NA,NA,NA,NA,NA,NA,NA,NA,NA,NA,NA,NA,NA,NA,NA
"102","stim/objects/HouseObjects/rubbergloves2.png",42,77,42,0.9,"stim/43.jpeg",4,3,3,NA,"HouseObjects",1,2,"left","left",0.578999996,1,1,0,1,NA,NA,NA,NA,NA,NA,NA,NA,NA,NA,NA,NA,NA,NA,NA,NA,NA,NA,NA,NA,NA,NA,NA,NA
"31","stim/objects/HouseObjects/key2.png",43,77,43,0.7,"stim/23.jpeg",2,3,2,NA,"HouseObjects",1,3,"left","left",0.520000219,1,1,0,1,NA,NA,NA,NA,NA,NA,NA,NA,NA,NA,NA,NA,NA,NA,NA,NA,NA,NA,NA,NA,NA,NA,NA,NA
"160","stim/objects/Instruments/metronome2.png",44,77,44,0.9,"stim/31.jpeg",3,1,3,NA,"Instruments",2,3,"right","right",0.586000204,1,1,0,1,NA,NA,NA,NA,NA,NA,NA,NA,NA,NA,NA,NA,NA,NA,NA,NA,NA,NA,NA,NA,NA,NA,NA,NA
"196","stim/objects/Instruments/oboe.png",45,77,45,0.5,"stim/64.jpeg",6,4,1,NA,"Instruments",2,2,"right","right",0.685000181,1,1,0,1,NA,NA,NA,NA,NA,NA,NA,NA,NA,NA,NA,NA,NA,NA,NA,NA,NA,NA,NA,NA,NA,NA,NA,NA
"137","stim/objects/Instruments/maraca.png",46,77,46,0.5,"stim/53.jpeg",5,3,1,NA,"Instruments",2,3,"right","left",0.575000286,0,0,0,1,NA,NA,NA,NA,NA,NA,NA,NA,NA,NA,NA,NA,NA,NA,NA,NA,NA,NA,NA,NA,NA,NA,NA,NA
"153","stim/objects/Instruments/metronome.png",47,77,47,0.5,"stim/61.jpeg",6,1,1,NA,"Instruments",2,3,"right","left",0.641000271,0,0,0,1,NA,NA,NA,NA,NA,NA,NA,NA,NA,NA,NA,NA,NA,NA,NA,NA,NA,NA,NA,NA,NA,NA,NA,NA
"42","stim/objects/HouseObjects/knife2.png",48,77,48,0.7,"stim/24.jpeg",2,4,2,NA,"HouseObjects",1,4,"left","left",0.795000076,1,1,0,1,NA,NA,NA,NA,NA,NA,NA,NA,NA,NA,NA,NA,NA,NA,NA,NA,NA,NA,NA,NA,NA,NA,NA,NA
"197","stim/objects/Instruments/oboe.png",49,77,49,0.5,"stim/64.jpeg",6,4,1,NA,"Instruments",2,3,"right","right",0.59100008,1,1,0,1,NA,NA,NA,NA,NA,NA,NA,NA,NA,NA,NA,NA,NA,NA,NA,NA,NA,NA,NA,NA,NA,NA,NA,NA
"188","stim/objects/Instruments/musicstand2.png",50,77,50,0.9,"stim/33.jpeg",3,3,3,NA,"Instruments",2,2,"right","",NA,0,0,0,1,NA,NA,NA,NA,NA,NA,NA,NA,NA,NA,NA,NA,NA,NA,NA,NA,NA,NA,NA,NA,NA,NA,NA,NA
"55","stim/objects/HouseObjects/match.png",51,77,51,0.5,"stim/62.jpeg",6,2,1,NA,"HouseObjects",1,4,"left","",NA,0,0,0,1,NA,NA,NA,NA,NA,NA,NA,NA,NA,NA,NA,NA,NA,NA,NA,NA,NA,NA,NA,NA,NA,NA,NA,NA
"143","stim/objects/Instruments/maraca2.png",52,77,52,0.3,"stim/23.jpeg",2,3,2,NA,"Instruments",2,1,"right","left",0.534000158,0,0,0,1,NA,NA,NA,NA,NA,NA,NA,NA,NA,NA,NA,NA,NA,NA,NA,NA,NA,NA,NA,NA,NA,NA,NA,NA
"189","stim/objects/Instruments/musicstand2.png",53,77,53,0.9,"stim/33.jpeg",3,3,3,NA,"Instruments",2,2,"right","right",0.628000021,1,1,0,1,NA,NA,NA,NA,NA,NA,NA,NA,NA,NA,NA,NA,NA,NA,NA,NA,NA,NA,NA,NA,NA,NA,NA,NA
"234","stim/objects/Instruments/record.png",54,77,54,0.7,"stim/13.jpeg",1,3,2,NA,"Instruments",2,4,"right","right",0.760000229,1,1,0,1,NA,NA,NA,NA,NA,NA,NA,NA,NA,NA,NA,NA,NA,NA,NA,NA,NA,NA,NA,NA,NA,NA,NA,NA
"37","stim/objects/HouseObjects/knife.png",55,77,55,0.5,"stim/54.jpeg",5,4,1,NA,"HouseObjects",1,4,"left","left",0.734000206,1,1,0,1,NA,NA,NA,NA,NA,NA,NA,NA,NA,NA,NA,NA,NA,NA,NA,NA,NA,NA,NA,NA,NA,NA,NA,NA
"146","stim/objects/Instruments/marimba.png",56,77,56,0.5,"stim/54.jpeg",5,4,1,NA,"Instruments",2,2,"right","right",0.735000134,1,1,0,1,NA,NA,NA,NA,NA,NA,NA,NA,NA,NA,NA,NA,NA,NA,NA,NA,NA,NA,NA,NA,NA,NA,NA,NA
"38","stim/objects/HouseObjects/knife.png",57,77,57,0.5,"stim/54.jpeg",5,4,1,NA,"HouseObjects",1,3,"left","left",0.666000128,1,1,0,1,NA,NA,NA,NA,NA,NA,NA,NA,NA,NA,NA,NA,NA,NA,NA,NA,NA,NA,NA,NA,NA,NA,NA,NA
"25","stim/objects/HouseObjects/key.png",58,77,58,0.5,"stim/53.jpeg",5,3,1,NA,"HouseObjects",1,2,"left","",NA,0,0,0,1,NA,NA,NA,NA,NA,NA,NA,NA,NA,NA,NA,NA,NA,NA,NA,NA,NA,NA,NA,NA,NA,NA,NA,NA
"218","stim/objects/Instruments/pipepiano.png",59,77,59,0.7,"stim/12.jpeg",1,2,2,NA,"Instruments",2,3,"right","right",0.599000216,1,1,0,1,NA,NA,NA,NA,NA,NA,NA,NA,NA,NA,NA,NA,NA,NA,NA,NA,NA,NA,NA,NA,NA,NA,NA,NA
"203","stim/objects/Instruments/oboe2.png",60,77,60,0.9,"stim/34.jpeg",3,4,3,NA,"Instruments",2,2,"right","right",0.65500021,1,1,0,1,NA,NA,NA,NA,NA,NA,NA,NA,NA,NA,NA,NA,NA,NA,NA,NA,NA,NA,NA,NA,NA,NA,NA,NA
"150","stim/objects/Instruments/marimba2.png",61,77,61,0.3,"stim/24.jpeg",2,4,2,NA,"Instruments",2,2,"right","left",0.690000296,0,0,0,1,NA,NA,NA,NA,NA,NA,NA,NA,NA,NA,NA,NA,NA,NA,NA,NA,NA,NA,NA,NA,NA,NA,NA,NA
"235","stim/objects/Instruments/record.png",62,77,62,0.7,"stim/13.jpeg",1,3,2,NA,"Instruments",2,1,"right","right",0.607000113,1,1,0,1,NA,NA,NA,NA,NA,NA,NA,NA,NA,NA,NA,NA,NA,NA,NA,NA,NA,NA,NA,NA,NA,NA,NA,NA
"86","stim/objects/HouseObjects/remote.png",63,77,63,0.3,"stim/12.jpeg",1,2,2,NA,"HouseObjects",1,2,"left","right",0.647000074,0,0,0,1,NA,NA,NA,NA,NA,NA,NA,NA,NA,NA,NA,NA,NA,NA,NA,NA,NA,NA,NA,NA,NA,NA,NA,NA
"167","stim/objects/Instruments/musicsheet.png",64,77,64,0.5,"stim/62.jpeg",6,2,1,NA,"Instruments",2,1,"right","right",0.679000139,1,1,0,1,NA,NA,NA,NA,NA,NA,NA,NA,NA,NA,NA,NA,NA,NA,NA,NA,NA,NA,NA,NA,NA,NA,NA,NA
"73","stim/objects/HouseObjects/recyclingbin.png",65,77,65,0.3,"stim/11.jpeg",1,1,2,NA,"HouseObjects",1,4,"left","left",0.677000046,1,1,0,1,NA,NA,NA,NA,NA,NA,NA,NA,NA,NA,NA,NA,NA,NA,NA,NA,NA,NA,NA,NA,NA,NA,NA,NA
"113","stim/objects/HouseObjects/rug2.png",66,77,66,0.9,"stim/44.jpeg",4,4,3,NA,"HouseObjects",1,4,"left","left",0.656000137,1,1,0,1,NA,NA,NA,NA,NA,NA,NA,NA,NA,NA,NA,NA,NA,NA,NA,NA,NA,NA,NA,NA,NA,NA,NA,NA
"161","stim/objects/Instruments/metronome2.png",67,77,67,0.9,"stim/31.jpeg",3,1,3,NA,"Instruments",2,4,"right","right",0.799999952,1,1,0,1,NA,NA,NA,NA,NA,NA,NA,NA,NA,NA,NA,NA,NA,NA,NA,NA,NA,NA,NA,NA,NA,NA,NA,NA
"204","stim/objects/Instruments/oboe2.png",68,77,68,0.9,"stim/34.jpeg",3,4,3,NA,"Instruments",2,3,"right","right",0.607000113,1,1,0,1,NA,NA,NA,NA,NA,NA,NA,NA,NA,NA,NA,NA,NA,NA,NA,NA,NA,NA,NA,NA,NA,NA,NA,NA
"43","stim/objects/HouseObjects/knife2.png",69,77,69,0.7,"stim/24.jpeg",2,4,2,NA,"HouseObjects",1,2,"left","left",0.579000235,1,1,0,1,NA,NA,NA,NA,NA,NA,NA,NA,NA,NA,NA,NA,NA,NA,NA,NA,NA,NA,NA,NA,NA,NA,NA,NA
"13","stim/objects/HouseObjects/ironingboard.png",70,77,70,0.5,"stim/52.jpeg",5,2,1,NA,"HouseObjects",1,2,"left","left",0.854000092,1,1,0,1,NA,NA,NA,NA,NA,NA,NA,NA,NA,NA,NA,NA,NA,NA,NA,NA,NA,NA,NA,NA,NA,NA,NA,NA
"62","stim/objects/HouseObjects/pan.png",71,77,71,0.5,"stim/63.jpeg",6,3,1,NA,"HouseObjects",1,1,"left","right",0.693000317,0,0,0,1,NA,NA,NA,NA,NA,NA,NA,NA,NA,NA,NA,NA,NA,NA,NA,NA,NA,NA,NA,NA,NA,NA,NA,NA
"122","stim/objects/Instruments/keyboard.png",72,77,72,0.5,"stim/51.jpeg",5,1,1,NA,"Instruments",2,1,"right","",NA,0,0,0,1,NA,NA,NA,NA,NA,NA,NA,NA,NA,NA,NA,NA,NA,NA,NA,NA,NA,NA,NA,NA,NA,NA,NA,NA
"162","stim/objects/Instruments/metronome2.png",73,77,73,0.9,"stim/31.jpeg",3,1,3,NA,"Instruments",2,1,"right","right",0.644000292,1,1,0,1,NA,NA,NA,NA,NA,NA,NA,NA,NA,NA,NA,NA,NA,NA,NA,NA,NA,NA,NA,NA,NA,NA,NA,NA
"74","stim/objects/HouseObjects/recyclingbin.png",74,77,74,0.3,"stim/11.jpeg",1,1,2,NA,"HouseObjects",1,1,"left","right",0.674000263,0,0,0,1,NA,NA,NA,NA,NA,NA,NA,NA,NA,NA,NA,NA,NA,NA,NA,NA,NA,NA,NA,NA,NA,NA,NA,NA
"190","stim/objects/Instruments/musicstand2.png",75,77,75,0.9,"stim/33.jpeg",3,3,3,NA,"Instruments",2,1,"right","right",0.653000116,1,1,0,1,NA,NA,NA,NA,NA,NA,NA,NA,NA,NA,NA,NA,NA,NA,NA,NA,NA,NA,NA,NA,NA,NA,NA,NA
"127","stim/objects/Instruments/keyboard2.png",76,77,76,0.3,"stim/21.jpeg",2,1,2,NA,"Instruments",2,4,"right","left",0.609000206,0,0,0,1,NA,NA,NA,NA,NA,NA,NA,NA,NA,NA,NA,NA,NA,NA,NA,NA,NA,NA,NA,NA,NA,NA,NA,NA
"103","stim/objects/HouseObjects/rubbergloves2.png",77,77,77,0.9,"stim/43.jpeg",4,3,3,NA,"HouseObjects",1,4,"left","right",0.520000219,0,0,0,1,NA,NA,NA,NA,NA,NA,NA,NA,NA,NA,NA,NA,NA,NA,NA,NA,NA,NA,NA,NA,NA,NA,NA,NA
"1","stim/objects/HouseObjects/iron.png",78,77,78,0.5,"stim/51.jpeg",5,1,1,NA,"HouseObjects",1,1,"left","",NA,0,0,0,1,NA,NA,NA,NA,NA,NA,NA,NA,NA,NA,NA,NA,NA,NA,NA,NA,NA,NA,NA,NA,NA,NA,NA,NA
"69","stim/objects/HouseObjects/pitcher.png",79,77,79,0.5,"stim/64.jpeg",6,4,1,NA,"HouseObjects",1,4,"left","right",0.562000036,0,0,0,1,NA,NA,NA,NA,NA,NA,NA,NA,NA,NA,NA,NA,NA,NA,NA,NA,NA,NA,NA,NA,NA,NA,NA,NA
"183","stim/objects/Instruments/musicstand.png",80,77,80,0.5,"stim/63.jpeg",6,3,1,NA,"Instruments",2,2,"right","right",0.676000118,1,1,0,1,NA,NA,NA,NA,NA,NA,NA,NA,NA,NA,NA,NA,NA,NA,NA,NA,NA,NA,NA,NA,NA,NA,NA,NA
"98","stim/objects/HouseObjects/rubbergloves.png",81,77,81,0.3,"stim/13.jpeg",1,3,2,NA,"HouseObjects",1,1,"left","",NA,0,0,0,1,NA,NA,NA,NA,NA,NA,NA,NA,NA,NA,NA,NA,NA,NA,NA,NA,NA,NA,NA,NA,NA,NA,NA,NA
"226","stim/objects/Instruments/record_player.png",82,77,82,0.7,"stim/14.jpeg",1,4,2,NA,"Instruments",2,4,"right","left",0.82400012,0,0,0,1,NA,NA,NA,NA,NA,NA,NA,NA,NA,NA,NA,NA,NA,NA,NA,NA,NA,NA,NA,NA,NA,NA,NA,NA
"90","stim/objects/HouseObjects/remote2.png",83,77,83,0.9,"stim/42.jpeg",4,2,3,NA,"HouseObjects",1,3,"left","left",0.561000109,1,1,0,1,NA,NA,NA,NA,NA,NA,NA,NA,NA,NA,NA,NA,NA,NA,NA,NA,NA,NA,NA,NA,NA,NA,NA,NA
"240","stim/objects/Instruments/record2.png",84,77,84,0.1,"stim/43.jpeg",4,3,3,NA,"Instruments",2,3,"right","left",0.516000032,0,0,0,1,NA,NA,NA,NA,NA,NA,NA,NA,NA,NA,NA,NA,NA,NA,NA,NA,NA,NA,NA,NA,NA,NA,NA,NA
"14","stim/objects/HouseObjects/ironingboard.png",85,77,85,0.5,"stim/52.jpeg",5,2,1,NA,"HouseObjects",1,2,"left","",NA,0,0,0,1,NA,NA,NA,NA,NA,NA,NA,NA,NA,NA,NA,NA,NA,NA,NA,NA,NA,NA,NA,NA,NA,NA,NA,NA
"227","stim/objects/Instruments/record_player.png",86,77,86,0.7,"stim/14.jpeg",1,4,2,NA,"Instruments",2,4,"right","right",0.613000154,1,1,0,1,NA,NA,NA,NA,NA,NA,NA,NA,NA,NA,NA,NA,NA,NA,NA,NA,NA,NA,NA,NA,NA,NA,NA,NA
"32","stim/objects/HouseObjects/key2.png",87,77,87,0.7,"stim/23.jpeg",2,3,2,NA,"HouseObjects",1,1,"left","left",0.671000242,1,1,0,1,NA,NA,NA,NA,NA,NA,NA,NA,NA,NA,NA,NA,NA,NA,NA,NA,NA,NA,NA,NA,NA,NA,NA,NA
"56","stim/objects/HouseObjects/match.png",88,77,88,0.5,"stim/62.jpeg",6,2,1,NA,"HouseObjects",1,1,"left","right",0.564000368,0,0,0,1,NA,NA,NA,NA,NA,NA,NA,NA,NA,NA,NA,NA,NA,NA,NA,NA,NA,NA,NA,NA,NA,NA,NA,NA
"173","stim/objects/Instruments/musicsheet2.png",89,77,89,0.9,"stim/32.jpeg",3,2,3,NA,"Instruments",2,4,"right","right",0.54700017,1,1,0,1,NA,NA,NA,NA,NA,NA,NA,NA,NA,NA,NA,NA,NA,NA,NA,NA,NA,NA,NA,NA,NA,NA,NA,NA
"236","stim/objects/Instruments/record.png",90,77,90,0.7,"stim/13.jpeg",1,3,2,NA,"Instruments",2,4,"right","right",0.455000162,1,1,0,1,NA,NA,NA,NA,NA,NA,NA,NA,NA,NA,NA,NA,NA,NA,NA,NA,NA,NA,NA,NA,NA,NA,NA,NA
"2","stim/objects/HouseObjects/iron.png",91,77,91,0.5,"stim/51.jpeg",5,1,1,NA,"HouseObjects",1,3,"left","left",0.455000162,1,1,0,1,NA,NA,NA,NA,NA,NA,NA,NA,NA,NA,NA,NA,NA,NA,NA,NA,NA,NA,NA,NA,NA,NA,NA,NA
"15","stim/objects/HouseObjects/ironingboard.png",92,77,92,0.5,"stim/52.jpeg",5,2,1,NA,"HouseObjects",1,3,"left","left",0.407000065,1,1,0,1,NA,NA,NA,NA,NA,NA,NA,NA,NA,NA,NA,NA,NA,NA,NA,NA,NA,NA,NA,NA,NA,NA,NA,NA
"75","stim/objects/HouseObjects/recyclingbin.png",93,77,93,0.3,"stim/11.jpeg",1,1,2,NA,"HouseObjects",1,2,"left","right",0.692000151,0,0,0,1,NA,NA,NA,NA,NA,NA,NA,NA,NA,NA,NA,NA,NA,NA,NA,NA,NA,NA,NA,NA,NA,NA,NA,NA
"26","stim/objects/HouseObjects/key.png",94,77,94,0.5,"stim/53.jpeg",5,3,1,NA,"HouseObjects",1,4,"left","right",0.522000313,0,0,0,1,NA,NA,NA,NA,NA,NA,NA,NA,NA,NA,NA,NA,NA,NA,NA,NA,NA,NA,NA,NA,NA,NA,NA,NA
"219","stim/objects/Instruments/pipepiano.png",95,77,95,0.7,"stim/12.jpeg",1,2,2,NA,"Instruments",2,3,"right","",NA,0,0,0,1,NA,NA,NA,NA,NA,NA,NA,NA,NA,NA,NA,NA,NA,NA,NA,NA,NA,NA,NA,NA,NA,NA,NA,NA
"130","stim/objects/Instruments/laud.png",96,77,96,0.5,"stim/52.jpeg",5,2,1,NA,"Instruments",2,4,"right","left",0.549000263,0,0,0,1,NA,NA,NA,NA,NA,NA,NA,NA,NA,NA,NA,NA,NA,NA,NA,NA,NA,NA,NA,NA,NA,NA,NA,NA
"104","stim/objects/HouseObjects/rubbergloves2.png",97,77,97,0.9,"stim/43.jpeg",4,3,3,NA,"HouseObjects",1,2,"left","left",0.579000235,1,1,0,1,NA,NA,NA,NA,NA,NA,NA,NA,NA,NA,NA,NA,NA,NA,NA,NA,NA,NA,NA,NA,NA,NA,NA,NA
"168","stim/objects/Instruments/musicsheet.png",98,77,98,0.5,"stim/62.jpeg",6,2,1,NA,"Instruments",2,2,"right","right",0.671000242,1,1,0,1,NA,NA,NA,NA,NA,NA,NA,NA,NA,NA,NA,NA,NA,NA,NA,NA,NA,NA,NA,NA,NA,NA,NA,NA
"228","stim/objects/Instruments/record_player.png",99,77,99,0.7,"stim/14.jpeg",1,4,2,NA,"Instruments",2,3,"right","left",0.583000183,0,0,0,1,NA,NA,NA,NA,NA,NA,NA,NA,NA,NA,NA,NA,NA,NA,NA,NA,NA,NA,NA,NA,NA,NA,NA,NA
"147","stim/objects/Instruments/marimba.png",100,77,100,0.5,"stim/54.jpeg",5,4,1,NA,"Instruments",2,4,"right","left",0.786000013,0,0,0,1,NA,NA,NA,NA,NA,NA,NA,NA,NA,NA,NA,NA,NA,NA,NA,NA,NA,NA,NA,NA,NA,NA,NA,NA
"237","stim/objects/Instruments/record.png",101,77,101,0.7,"stim/13.jpeg",1,3,2,NA,"Instruments",2,1,"right","right",0.726000309,1,1,0,1,NA,NA,NA,NA,NA,NA,NA,NA,NA,NA,NA,NA,NA,NA,NA,NA,NA,NA,NA,NA,NA,NA,NA,NA
"191","stim/objects/Instruments/musicstand2.png",102,77,102,0.9,"stim/33.jpeg",3,3,3,NA,"Instruments",2,2,"right","right",0.567000151,1,1,0,1,NA,NA,NA,NA,NA,NA,NA,NA,NA,NA,NA,NA,NA,NA,NA,NA,NA,NA,NA,NA,NA,NA,NA,NA
"220","stim/objects/Instruments/pipepiano.png",103,77,103,0.7,"stim/12.jpeg",1,2,2,NA,"Instruments",2,1,"right","right",0.640000105,1,1,0,1,NA,NA,NA,NA,NA,NA,NA,NA,NA,NA,NA,NA,NA,NA,NA,NA,NA,NA,NA,NA,NA,NA,NA,NA
"33","stim/objects/HouseObjects/key2.png",104,77,104,0.7,"stim/23.jpeg",2,3,2,NA,"HouseObjects",1,2,"left","left",0.744000196,1,1,0,1,NA,NA,NA,NA,NA,NA,NA,NA,NA,NA,NA,NA,NA,NA,NA,NA,NA,NA,NA,NA,NA,NA,NA,NA
"221","stim/objects/Instruments/pipepiano.png",105,77,105,0.7,"stim/12.jpeg",1,2,2,NA,"Instruments",2,1,"right","right",0.761000156,1,1,0,1,NA,NA,NA,NA,NA,NA,NA,NA,NA,NA,NA,NA,NA,NA,NA,NA,NA,NA,NA,NA,NA,NA,NA,NA
"9","stim/objects/HouseObjects/iron2.png",106,77,106,0.7,"stim/21.jpeg",2,1,2,NA,"HouseObjects",1,3,"left","left",0.536000252,1,1,0,1,NA,NA,NA,NA,NA,NA,NA,NA,NA,NA,NA,NA,NA,NA,NA,NA,NA,NA,NA,NA,NA,NA,NA,NA
"44","stim/objects/HouseObjects/knife2.png",107,77,107,0.7,"stim/24.jpeg",2,4,2,NA,"HouseObjects",1,3,"left","left",0.558000088,1,1,0,1,NA,NA,NA,NA,NA,NA,NA,NA,NA,NA,NA,NA,NA,NA,NA,NA,NA,NA,NA,NA,NA,NA,NA,NA
"123","stim/objects/Instruments/keyboard.png",108,77,108,0.5,"stim/51.jpeg",5,1,1,NA,"Instruments",2,1,"right","left",0.778000116,0,0,0,1,NA,NA,NA,NA,NA,NA,NA,NA,NA,NA,NA,NA,NA,NA,NA,NA,NA,NA,NA,NA,NA,NA,NA,NA
"39","stim/objects/HouseObjects/knife.png",109,77,109,0.5,"stim/54.jpeg",5,4,1,NA,"HouseObjects",1,1,"left","",NA,0,0,0,1,NA,NA,NA,NA,NA,NA,NA,NA,NA,NA,NA,NA,NA,NA,NA,NA,NA,NA,NA,NA,NA,NA,NA,NA
"174","stim/objects/Instruments/musicsheet2.png",110,77,110,0.9,"stim/32.jpeg",3,2,3,NA,"Instruments",2,3,"right","right",0.546000242,1,1,0,1,NA,NA,NA,NA,NA,NA,NA,NA,NA,NA,NA,NA,NA,NA,NA,NA,NA,NA,NA,NA,NA,NA,NA,NA
"205","stim/objects/Instruments/oboe2.png",111,77,111,0.9,"stim/34.jpeg",3,4,3,NA,"Instruments",2,2,"right","left",0.643000126,0,0,0,1,NA,NA,NA,NA,NA,NA,NA,NA,NA,NA,NA,NA,NA,NA,NA,NA,NA,NA,NA,NA,NA,NA,NA,NA
"87","stim/objects/HouseObjects/remote.png",112,77,112,0.3,"stim/12.jpeg",1,2,2,NA,"HouseObjects",1,1,"left","",NA,0,0,0,1,NA,NA,NA,NA,NA,NA,NA,NA,NA,NA,NA,NA,NA,NA,NA,NA,NA,NA,NA,NA,NA,NA,NA,NA
"72","stim/objects/HouseObjects/pitcher2.png",113,77,113,0.1,"stim/34.jpeg",3,4,3,NA,"HouseObjects",1,3,"left","left",0.552000046,1,1,0,1,NA,NA,NA,NA,NA,NA,NA,NA,NA,NA,NA,NA,NA,NA,NA,NA,NA,NA,NA,NA,NA,NA,NA,NA
"57","stim/objects/HouseObjects/match.png",114,77,114,0.5,"stim/62.jpeg",6,2,1,NA,"HouseObjects",1,1,"left","right",0.624000072,0,0,0,1,NA,NA,NA,NA,NA,NA,NA,NA,NA,NA,NA,NA,NA,NA,NA,NA,NA,NA,NA,NA,NA,NA,NA,NA
"169","stim/objects/Instruments/musicsheet.png",115,77,115,0.5,"stim/62.jpeg",6,2,1,NA,"Instruments",2,2,"right","right",0.674000263,1,1,0,1,NA,NA,NA,NA,NA,NA,NA,NA,NA,NA,NA,NA,NA,NA,NA,NA,NA,NA,NA,NA,NA,NA,NA,NA
"163","stim/objects/Instruments/metronome2.png",116,77,116,0.9,"stim/31.jpeg",3,1,3,NA,"Instruments",2,1,"right","right",0.713000298,1,1,0,1,NA,NA,NA,NA,NA,NA,NA,NA,NA,NA,NA,NA,NA,NA,NA,NA,NA,NA,NA,NA,NA,NA,NA,NA
"192","stim/objects/Instruments/musicstand2.png",117,77,117,0.9,"stim/33.jpeg",3,3,3,NA,"Instruments",2,4,"right","right",0.536000252,1,1,0,1,NA,NA,NA,NA,NA,NA,NA,NA,NA,NA,NA,NA,NA,NA,NA,NA,NA,NA,NA,NA,NA,NA,NA,NA
"63","stim/objects/HouseObjects/pan.png",118,77,118,0.5,"stim/63.jpeg",6,3,1,NA,"HouseObjects",1,4,"left","right",0.458000183,0,0,0,1,NA,NA,NA,NA,NA,NA,NA,NA,NA,NA,NA,NA,NA,NA,NA,NA,NA,NA,NA,NA,NA,NA,NA,NA
"16","stim/objects/HouseObjects/ironingboard.png",119,77,119,0.5,"stim/52.jpeg",5,2,1,NA,"HouseObjects",1,2,"left","left",0.752000332,1,1,0,1,NA,NA,NA,NA,NA,NA,NA,NA,NA,NA,NA,NA,NA,NA,NA,NA,NA,NA,NA,NA,NA,NA,NA,NA
"60","stim/objects/HouseObjects/match2.png",120,77,120,0.1,"stim/32.jpeg",3,2,3,NA,"HouseObjects",1,4,"left","right",0.563000202,0,0,0,1,NA,NA,NA,NA,NA,NA,NA,NA,NA,NA,NA,NA,NA,NA,NA,NA,NA,NA,NA,NA,NA,NA,NA,NA
"175","stim/objects/Instruments/musicsheet2.png",121,77,121,0.9,"stim/32.jpeg",3,2,3,NA,"Instruments",2,1,"right","right",0.529000282,1,1,0,1,NA,NA,NA,NA,NA,NA,NA,NA,NA,NA,NA,NA,NA,NA,NA,NA,NA,NA,NA,NA,NA,NA,NA,NA
"148","stim/objects/Instruments/marimba.png",122,77,122,0.5,"stim/54.jpeg",5,4,1,NA,"Instruments",2,3,"right","left",0.579000235,0,0,0,1,NA,NA,NA,NA,NA,NA,NA,NA,NA,NA,NA,NA,NA,NA,NA,NA,NA,NA,NA,NA,NA,NA,NA,NA
"229","stim/objects/Instruments/record_player.png",123,77,123,0.7,"stim/14.jpeg",1,4,2,NA,"Instruments",2,3,"right","right",0.545000076,1,1,0,1,NA,NA,NA,NA,NA,NA,NA,NA,NA,NA,NA,NA,NA,NA,NA,NA,NA,NA,NA,NA,NA,NA,NA,NA
"45","stim/objects/HouseObjects/knife2.png",124,77,124,0.7,"stim/24.jpeg",2,4,2,NA,"HouseObjects",1,3,"left","left",0.809000015,1,1,0,1,NA,NA,NA,NA,NA,NA,NA,NA,NA,NA,NA,NA,NA,NA,NA,NA,NA,NA,NA,NA,NA,NA,NA,NA
"230","stim/objects/Instruments/record_player.png",125,77,125,0.7,"stim/14.jpeg",1,4,2,NA,"Instruments",2,1,"right","right",0.583000183,1,1,0,1,NA,NA,NA,NA,NA,NA,NA,NA,NA,NA,NA,NA,NA,NA,NA,NA,NA,NA,NA,NA,NA,NA,NA,NA
"238","stim/objects/Instruments/record.png",126,77,126,0.7,"stim/13.jpeg",1,3,2,NA,"Instruments",2,4,"right","right",0.479000092,1,1,0,1,NA,NA,NA,NA,NA,NA,NA,NA,NA,NA,NA,NA,NA,NA,NA,NA,NA,NA,NA,NA,NA,NA,NA,NA
"40","stim/objects/HouseObjects/knife.png",127,77,127,0.5,"stim/54.jpeg",5,4,1,NA,"HouseObjects",1,2,"left","left",0.620000124,1,1,0,1,NA,NA,NA,NA,NA,NA,NA,NA,NA,NA,NA,NA,NA,NA,NA,NA,NA,NA,NA,NA,NA,NA,NA,NA
"193","stim/objects/Instruments/musicstand2.png",128,77,128,0.9,"stim/33.jpeg",3,3,3,NA,"Instruments",2,3,"right","right",0.508000135,1,1,0,1,NA,NA,NA,NA,NA,NA,NA,NA,NA,NA,NA,NA,NA,NA,NA,NA,NA,NA,NA,NA,NA,NA,NA,NA
"77","stim/objects/HouseObjects/recyclingbin2.png",129,77,129,0.9,"stim/41.jpeg",4,1,3,NA,"HouseObjects",1,1,"left","left",0.78000021,1,1,0,1,NA,NA,NA,NA,NA,NA,NA,NA,NA,NA,NA,NA,NA,NA,NA,NA,NA,NA,NA,NA,NA,NA,NA,NA
"151","stim/objects/Instruments/marimba2.png",130,77,130,0.3,"stim/24.jpeg",2,4,2,NA,"Instruments",2,2,"right","left",0.593000174,0,0,0,1,NA,NA,NA,NA,NA,NA,NA,NA,NA,NA,NA,NA,NA,NA,NA,NA,NA,NA,NA,NA,NA,NA,NA,NA
"78","stim/objects/HouseObjects/recyclingbin2.png",131,77,131,0.9,"stim/41.jpeg",4,1,3,NA,"HouseObjects",1,3,"left","left",0.684000254,1,1,0,1,NA,NA,NA,NA,NA,NA,NA,NA,NA,NA,NA,NA,NA,NA,NA,NA,NA,NA,NA,NA,NA,NA,NA,NA
"20","stim/objects/HouseObjects/ironingboard2.png",132,77,132,0.7,"stim/22.jpeg",2,2,2,NA,"HouseObjects",1,1,"left","left",0.475000143,1,1,0,1,NA,NA,NA,NA,NA,NA,NA,NA,NA,NA,NA,NA,NA,NA,NA,NA,NA,NA,NA,NA,NA,NA,NA,NA
"91","stim/objects/HouseObjects/remote2.png",133,77,133,0.9,"stim/42.jpeg",4,2,3,NA,"HouseObjects",1,2,"left","left",0.522000313,1,1,0,1,NA,NA,NA,NA,NA,NA,NA,NA,NA,NA,NA,NA,NA,NA,NA,NA,NA,NA,NA,NA,NA,NA,NA,NA
"138","stim/objects/Instruments/maraca.png",134,77,134,0.5,"stim/53.jpeg",5,3,1,NA,"Instruments",2,2,"right","left",0.769000292,0,0,0,1,NA,NA,NA,NA,NA,NA,NA,NA,NA,NA,NA,NA,NA,NA,NA,NA,NA,NA,NA,NA,NA,NA,NA,NA
"21","stim/objects/HouseObjects/ironingboard2.png",135,77,135,0.7,"stim/22.jpeg",2,2,2,NA,"HouseObjects",1,3,"left","left",0.588000059,1,1,0,1,NA,NA,NA,NA,NA,NA,NA,NA,NA,NA,NA,NA,NA,NA,NA,NA,NA,NA,NA,NA,NA,NA,NA,NA
"64","stim/objects/HouseObjects/pan.png",136,77,136,0.5,"stim/63.jpeg",6,3,1,NA,"HouseObjects",1,3,"left","right",0.638000011,0,0,0,1,NA,NA,NA,NA,NA,NA,NA,NA,NA,NA,NA,NA,NA,NA,NA,NA,NA,NA,NA,NA,NA,NA,NA,NA
"176","stim/objects/Instruments/musicsheet2.png",137,77,137,0.9,"stim/32.jpeg",3,2,3,NA,"Instruments",2,4,"right","right",0.567000151,1,1,0,1,NA,NA,NA,NA,NA,NA,NA,NA,NA,NA,NA,NA,NA,NA,NA,NA,NA,NA,NA,NA,NA,NA,NA,NA
"232","stim/objects/Instruments/record_player2.png",138,77,138,0.1,"stim/44.jpeg",4,4,3,NA,"Instruments",2,3,"right","left",0.687000275,0,0,0,1,NA,NA,NA,NA,NA,NA,NA,NA,NA,NA,NA,NA,NA,NA,NA,NA,NA,NA,NA,NA,NA,NA,NA,NA
"92","stim/objects/HouseObjects/remote2.png",139,77,139,0.9,"stim/42.jpeg",4,2,3,NA,"HouseObjects",1,1,"left","",NA,0,0,0,1,NA,NA,NA,NA,NA,NA,NA,NA,NA,NA,NA,NA,NA,NA,NA,NA,NA,NA,NA,NA,NA,NA,NA,NA
"206","stim/objects/Instruments/oboe2.png",140,77,140,0.9,"stim/34.jpeg",3,4,3,NA,"Instruments",2,1,"right","right",0.771000147,1,1,0,1,NA,NA,NA,NA,NA,NA,NA,NA,NA,NA,NA,NA,NA,NA,NA,NA,NA,NA,NA,NA,NA,NA,NA,NA
"54","stim/objects/HouseObjects/lintroller2.png",141,77,141,0.1,"stim/31.jpeg",3,1,3,NA,"HouseObjects",1,4,"left","right",0.488000154,0,0,0,1,NA,NA,NA,NA,NA,NA,NA,NA,NA,NA,NA,NA,NA,NA,NA,NA,NA,NA,NA,NA,NA,NA,NA,NA
"164","stim/objects/Instruments/metronome2.png",142,77,142,0.9,"stim/31.jpeg",3,1,3,NA,"Instruments",2,1,"right","left",0.708000183,0,0,0,1,NA,NA,NA,NA,NA,NA,NA,NA,NA,NA,NA,NA,NA,NA,NA,NA,NA,NA,NA,NA,NA,NA,NA,NA
"154","stim/objects/Instruments/metronome.png",143,77,143,0.5,"stim/61.jpeg",6,1,1,NA,"Instruments",2,1,"right","right",0.791000128,1,1,0,1,NA,NA,NA,NA,NA,NA,NA,NA,NA,NA,NA,NA,NA,NA,NA,NA,NA,NA,NA,NA,NA,NA,NA,NA
"177","stim/objects/Instruments/musicsheet2.png",144,77,144,0.9,"stim/32.jpeg",3,2,3,NA,"Instruments",2,4,"right","right",0.451000214,1,1,0,1,NA,NA,NA,NA,NA,NA,NA,NA,NA,NA,NA,NA,NA,NA,NA,NA,NA,NA,NA,NA,NA,NA,NA,NA
"27","stim/objects/HouseObjects/key.png",145,77,145,0.5,"stim/53.jpeg",5,3,1,NA,"HouseObjects",1,4,"left","left",0.718000174,1,1,0,1,NA,NA,NA,NA,NA,NA,NA,NA,NA,NA,NA,NA,NA,NA,NA,NA,NA,NA,NA,NA,NA,NA,NA,NA
"93","stim/objects/HouseObjects/remote2.png",146,77,146,0.9,"stim/42.jpeg",4,2,3,NA,"HouseObjects",1,3,"left","left",0.608999968,1,1,0,1,NA,NA,NA,NA,NA,NA,NA,NA,NA,NA,NA,NA,NA,NA,NA,NA,NA,NA,NA,NA,NA,NA,NA,NA
"109","stim/objects/HouseObjects/rug.png",147,77,147,0.3,"stim/14.jpeg",1,4,2,NA,"HouseObjects",1,4,"left","right",0.54700017,0,0,0,1,NA,NA,NA,NA,NA,NA,NA,NA,NA,NA,NA,NA,NA,NA,NA,NA,NA,NA,NA,NA,NA,NA,NA,NA
"10","stim/objects/HouseObjects/iron2.png",148,77,148,0.7,"stim/21.jpeg",2,1,2,NA,"HouseObjects",1,1,"left","right",0.659000158,0,0,0,1,NA,NA,NA,NA,NA,NA,NA,NA,NA,NA,NA,NA,NA,NA,NA,NA,NA,NA,NA,NA,NA,NA,NA,NA
"11","stim/objects/HouseObjects/iron2.png",149,77,149,0.7,"stim/21.jpeg",2,1,2,NA,"HouseObjects",1,1,"left","left",0.583000183,1,1,0,1,NA,NA,NA,NA,NA,NA,NA,NA,NA,NA,NA,NA,NA,NA,NA,NA,NA,NA,NA,NA,NA,NA,NA,NA
"213","stim/objects/Instruments/panflute.png",150,77,150,0.7,"stim/11.jpeg",1,1,2,NA,"Instruments",2,1,"right","left",0.619000196,0,0,0,1,NA,NA,NA,NA,NA,NA,NA,NA,NA,NA,NA,NA,NA,NA,NA,NA,NA,NA,NA,NA,NA,NA,NA,NA
"135","stim/objects/Instruments/laud2.png",151,77,151,0.3,"stim/22.jpeg",2,2,2,NA,"Instruments",2,4,"right","left",0.619000196,0,0,0,1,NA,NA,NA,NA,NA,NA,NA,NA,NA,NA,NA,NA,NA,NA,NA,NA,NA,NA,NA,NA,NA,NA,NA,NA
"110","stim/objects/HouseObjects/rug.png",152,77,152,0.3,"stim/14.jpeg",1,4,2,NA,"HouseObjects",1,3,"left","right",0.563000202,0,0,0,1,NA,NA,NA,NA,NA,NA,NA,NA,NA,NA,NA,NA,NA,NA,NA,NA,NA,NA,NA,NA,NA,NA,NA,NA
"94","stim/objects/HouseObjects/remote2.png",153,77,153,0.9,"stim/42.jpeg",4,2,3,NA,"HouseObjects",1,1,"left","left",0.575000048,1,1,0,1,NA,NA,NA,NA,NA,NA,NA,NA,NA,NA,NA,NA,NA,NA,NA,NA,NA,NA,NA,NA,NA,NA,NA,NA
"99","stim/objects/HouseObjects/rubbergloves.png",154,77,154,0.3,"stim/13.jpeg",1,3,2,NA,"HouseObjects",1,4,"left","right",0.668000221,0,0,0,1,NA,NA,NA,NA,NA,NA,NA,NA,NA,NA,NA,NA,NA,NA,NA,NA,NA,NA,NA,NA,NA,NA,NA,NA
"124","stim/objects/Instruments/keyboard.png",155,77,155,0.5,"stim/51.jpeg",5,1,1,NA,"Instruments",2,4,"right","",NA,0,0,0,1,NA,NA,NA,NA,NA,NA,NA,NA,NA,NA,NA,NA,NA,NA,NA,NA,NA,NA,NA,NA,NA,NA,NA,NA
"41","stim/objects/HouseObjects/knife.png",156,77,156,0.5,"stim/54.jpeg",5,4,1,NA,"HouseObjects",1,4,"left","right",0.492000341,0,0,0,1,NA,NA,NA,NA,NA,NA,NA,NA,NA,NA,NA,NA,NA,NA,NA,NA,NA,NA,NA,NA,NA,NA,NA,NA
"114","stim/objects/HouseObjects/rug2.png",157,77,157,0.9,"stim/44.jpeg",4,4,3,NA,"HouseObjects",1,2,"left","left",0.404000044,1,1,0,1,NA,NA,NA,NA,NA,NA,NA,NA,NA,NA,NA,NA,NA,NA,NA,NA,NA,NA,NA,NA,NA,NA,NA,NA
"165","stim/objects/Instruments/metronome2.png",158,77,158,0.9,"stim/31.jpeg",3,1,3,NA,"Instruments",2,3,"right","left",0.43200016,0,0,0,1,NA,NA,NA,NA,NA,NA,NA,NA,NA,NA,NA,NA,NA,NA,NA,NA,NA,NA,NA,NA,NA,NA,NA,NA
"170","stim/objects/Instruments/musicsheet.png",159,77,159,0.5,"stim/62.jpeg",6,2,1,NA,"Instruments",2,4,"right","right",0.550000191,1,1,0,1,NA,NA,NA,NA,NA,NA,NA,NA,NA,NA,NA,NA,NA,NA,NA,NA,NA,NA,NA,NA,NA,NA,NA,NA
"178","stim/objects/Instruments/musicsheet2.png",160,77,160,0.9,"stim/32.jpeg",3,2,3,NA,"Instruments",2,3,"right","right",0.473000288,1,1,0,1,NA,NA,NA,NA,NA,NA,NA,NA,NA,NA,NA,NA,NA,NA,NA,NA,NA,NA,NA,NA,NA,NA,NA,NA
"3","stim/objects/HouseObjects/iron.png",161,77,161,0.5,"stim/51.jpeg",5,1,1,NA,"HouseObjects",1,1,"left","left",0.458000183,1,1,0,1,NA,NA,NA,NA,NA,NA,NA,NA,NA,NA,NA,NA,NA,NA,NA,NA,NA,NA,NA,NA,NA,NA,NA,NA
"46","stim/objects/HouseObjects/knife2.png",162,77,162,0.7,"stim/24.jpeg",2,4,2,NA,"HouseObjects",1,4,"left","right",0.414000034,0,0,0,1,NA,NA,NA,NA,NA,NA,NA,NA,NA,NA,NA,NA,NA,NA,NA,NA,NA,NA,NA,NA,NA,NA,NA,NA
"136","stim/objects/Instruments/laud2.png",163,77,163,0.3,"stim/22.jpeg",2,2,2,NA,"Instruments",2,4,"right","right",0.534000158,1,1,0,1,NA,NA,NA,NA,NA,NA,NA,NA,NA,NA,NA,NA,NA,NA,NA,NA,NA,NA,NA,NA,NA,NA,NA,NA
"222","stim/objects/Instruments/pipepiano.png",164,77,164,0.7,"stim/12.jpeg",1,2,2,NA,"Instruments",2,2,"right","right",0.695000172,1,1,0,1,NA,NA,NA,NA,NA,NA,NA,NA,NA,NA,NA,NA,NA,NA,NA,NA,NA,NA,NA,NA,NA,NA,NA,NA
"239","stim/objects/Instruments/record.png",165,77,165,0.7,"stim/13.jpeg",1,3,2,NA,"Instruments",2,4,"right","right",0.853000164,1,1,0,1,NA,NA,NA,NA,NA,NA,NA,NA,NA,NA,NA,NA,NA,NA,NA,NA,NA,NA,NA,NA,NA,NA,NA,NA
"28","stim/objects/HouseObjects/key.png",166,77,166,0.5,"stim/53.jpeg",5,3,1,NA,"HouseObjects",1,3,"left","left",0.641000032,1,1,0,1,NA,NA,NA,NA,NA,NA,NA,NA,NA,NA,NA,NA,NA,NA,NA,NA,NA,NA,NA,NA,NA,NA,NA,NA
"184","stim/objects/Instruments/musicstand.png",167,77,167,0.5,"stim/63.jpeg",6,3,1,NA,"Instruments",2,4,"right","right",0.75999999,1,1,0,1,NA,NA,NA,NA,NA,NA,NA,NA,NA,NA,NA,NA,NA,NA,NA,NA,NA,NA,NA,NA,NA,NA,NA,NA
"58","stim/objects/HouseObjects/match.png",168,77,168,0.5,"stim/62.jpeg",6,2,1,NA,"HouseObjects",1,3,"left","right",0.718000174,0,0,0,1,NA,NA,NA,NA,NA,NA,NA,NA,NA,NA,NA,NA,NA,NA,NA,NA,NA,NA,NA,NA,NA,NA,NA,NA
"79","stim/objects/HouseObjects/recyclingbin2.png",169,77,169,0.9,"stim/41.jpeg",4,1,3,NA,"HouseObjects",1,3,"left","left",0.525000334,1,1,0,1,NA,NA,NA,NA,NA,NA,NA,NA,NA,NA,NA,NA,NA,NA,NA,NA,NA,NA,NA,NA,NA,NA,NA,NA
"128","stim/objects/Instruments/keyboard2.png",170,77,170,0.3,"stim/21.jpeg",2,1,2,NA,"Instruments",2,2,"right","left",0.528000355,0,0,0,1,NA,NA,NA,NA,NA,NA,NA,NA,NA,NA,NA,NA,NA,NA,NA,NA,NA,NA,NA,NA,NA,NA,NA,NA
"95","stim/objects/HouseObjects/remote2.png",171,77,171,0.9,"stim/42.jpeg",4,2,3,NA,"HouseObjects",1,3,"left","left",0.592000246,1,1,0,1,NA,NA,NA,NA,NA,NA,NA,NA,NA,NA,NA,NA,NA,NA,NA,NA,NA,NA,NA,NA,NA,NA,NA,NA
"34","stim/objects/HouseObjects/key2.png",172,77,172,0.7,"stim/23.jpeg",2,3,2,NA,"HouseObjects",1,1,"left","left",0.548000336,1,1,0,1,NA,NA,NA,NA,NA,NA,NA,NA,NA,NA,NA,NA,NA,NA,NA,NA,NA,NA,NA,NA,NA,NA,NA,NA
"179","stim/objects/Instruments/musicsheet2.png",173,77,173,0.9,"stim/32.jpeg",3,2,3,NA,"Instruments",2,4,"right","right",0.642000198,1,1,0,1,NA,NA,NA,NA,NA,NA,NA,NA,NA,NA,NA,NA,NA,NA,NA,NA,NA,NA,NA,NA,NA,NA,NA,NA
"29","stim/objects/HouseObjects/key.png",174,77,174,0.5,"stim/53.jpeg",5,3,1,NA,"HouseObjects",1,1,"left","right",0.623000145,0,0,0,1,NA,NA,NA,NA,NA,NA,NA,NA,NA,NA,NA,NA,NA,NA,NA,NA,NA,NA,NA,NA,NA,NA,NA,NA
"47","stim/objects/HouseObjects/knife2.png",175,77,175,0.7,"stim/24.jpeg",2,4,2,NA,"HouseObjects",1,2,"left","left",0.688000202,1,1,0,1,NA,NA,NA,NA,NA,NA,NA,NA,NA,NA,NA,NA,NA,NA,NA,NA,NA,NA,NA,NA,NA,NA,NA,NA
"115","stim/objects/HouseObjects/rug2.png",176,77,176,0.9,"stim/44.jpeg",4,4,3,NA,"HouseObjects",1,1,"left","left",0.589000225,1,1,0,1,NA,NA,NA,NA,NA,NA,NA,NA,NA,NA,NA,NA,NA,NA,NA,NA,NA,NA,NA,NA,NA,NA,NA,NA
"105","stim/objects/HouseObjects/rubbergloves2.png",177,77,177,0.9,"stim/43.jpeg",4,3,3,NA,"HouseObjects",1,1,"left","left",0.485000134,1,1,0,1,NA,NA,NA,NA,NA,NA,NA,NA,NA,NA,NA,NA,NA,NA,NA,NA,NA,NA,NA,NA,NA,NA,NA,NA
"116","stim/objects/HouseObjects/rug2.png",178,77,178,0.9,"stim/44.jpeg",4,4,3,NA,"HouseObjects",1,4,"left","left",0.700000048,1,1,0,1,NA,NA,NA,NA,NA,NA,NA,NA,NA,NA,NA,NA,NA,NA,NA,NA,NA,NA,NA,NA,NA,NA,NA,NA
"117","stim/objects/HouseObjects/rug2.png",179,77,179,0.9,"stim/44.jpeg",4,4,3,NA,"HouseObjects",1,2,"left","left",0.446000099,1,1,0,1,NA,NA,NA,NA,NA,NA,NA,NA,NA,NA,NA,NA,NA,NA,NA,NA,NA,NA,NA,NA,NA,NA,NA,NA
"66","stim/objects/HouseObjects/pan2.png",180,77,180,0.1,"stim/33.jpeg",3,3,3,NA,"HouseObjects",1,4,"left","right",0.516000032,0,0,0,1,NA,NA,NA,NA,NA,NA,NA,NA,NA,NA,NA,NA,NA,NA,NA,NA,NA,NA,NA,NA,NA,NA,NA,NA
"70","stim/objects/HouseObjects/pitcher.png",181,77,181,0.5,"stim/64.jpeg",6,4,1,NA,"HouseObjects",1,4,"left","right",0.652000189,0,0,0,1,NA,NA,NA,NA,NA,NA,NA,NA,NA,NA,NA,NA,NA,NA,NA,NA,NA,NA,NA,NA,NA,NA,NA,NA
"71","stim/objects/HouseObjects/pitcher.png",182,77,182,0.5,"stim/64.jpeg",6,4,1,NA,"HouseObjects",1,1,"left","right",0.577000141,0,0,0,1,NA,NA,NA,NA,NA,NA,NA,NA,NA,NA,NA,NA,NA,NA,NA,NA,NA,NA,NA,NA,NA,NA,NA,NA
"4","stim/objects/HouseObjects/iron.png",183,77,183,0.5,"stim/51.jpeg",5,1,1,NA,"HouseObjects",1,2,"left","",NA,0,0,0,1,NA,NA,NA,NA,NA,NA,NA,NA,NA,NA,NA,NA,NA,NA,NA,NA,NA,NA,NA,NA,NA,NA,NA,NA
"12","stim/objects/HouseObjects/iron2.png",184,77,184,0.7,"stim/21.jpeg",2,1,2,NA,"HouseObjects",1,2,"left","left",0.605000019,1,1,0,1,NA,NA,NA,NA,NA,NA,NA,NA,NA,NA,NA,NA,NA,NA,NA,NA,NA,NA,NA,NA,NA,NA,NA,NA
"22","stim/objects/HouseObjects/ironingboard2.png",185,77,185,0.7,"stim/22.jpeg",2,2,2,NA,"HouseObjects",1,3,"left","left",0.647000074,1,1,0,1,NA,NA,NA,NA,NA,NA,NA,NA,NA,NA,NA,NA,NA,NA,NA,NA,NA,NA,NA,NA,NA,NA,NA,NA
"152","stim/objects/Instruments/marimba2.png",186,77,186,0.3,"stim/24.jpeg",2,4,2,NA,"Instruments",2,3,"right","left",0.536000252,0,0,0,1,NA,NA,NA,NA,NA,NA,NA,NA,NA,NA,NA,NA,NA,NA,NA,NA,NA,NA,NA,NA,NA,NA,NA,NA
"139","stim/objects/Instruments/maraca.png",187,77,187,0.5,"stim/53.jpeg",5,3,1,NA,"Instruments",2,2,"right","",NA,0,0,0,1,NA,NA,NA,NA,NA,NA,NA,NA,NA,NA,NA,NA,NA,NA,NA,NA,NA,NA,NA,NA,NA,NA,NA,NA
"23","stim/objects/HouseObjects/ironingboard2.png",188,77,188,0.7,"stim/22.jpeg",2,2,2,NA,"HouseObjects",1,4,"left","left",0.579000235,1,1,0,1,NA,NA,NA,NA,NA,NA,NA,NA,NA,NA,NA,NA,NA,NA,NA,NA,NA,NA,NA,NA,NA,NA,NA,NA
"155","stim/objects/Instruments/metronome.png",189,77,189,0.5,"stim/61.jpeg",6,1,1,NA,"Instruments",2,2,"right","right",0.573000193,1,1,0,1,NA,NA,NA,NA,NA,NA,NA,NA,NA,NA,NA,NA,NA,NA,NA,NA,NA,NA,NA,NA,NA,NA,NA,NA
"106","stim/objects/HouseObjects/rubbergloves2.png",190,77,190,0.9,"stim/43.jpeg",4,3,3,NA,"HouseObjects",1,4,"left","right",0.505000353,0,0,0,1,NA,NA,NA,NA,NA,NA,NA,NA,NA,NA,NA,NA,NA,NA,NA,NA,NA,NA,NA,NA,NA,NA,NA,NA
"149","stim/objects/Instruments/marimba.png",191,77,191,0.5,"stim/54.jpeg",5,4,1,NA,"Instruments",2,2,"right","left",0.514000177,0,0,0,1,NA,NA,NA,NA,NA,NA,NA,NA,NA,NA,NA,NA,NA,NA,NA,NA,NA,NA,NA,NA,NA,NA,NA,NA
"48","stim/objects/HouseObjects/knife2.png",192,77,192,0.7,"stim/24.jpeg",2,4,2,NA,"HouseObjects",1,4,"left","right",0.542000294,0,0,0,1,NA,NA,NA,NA,NA,NA,NA,NA,NA,NA,NA,NA,NA,NA,NA,NA,NA,NA,NA,NA,NA,NA,NA,NA
"96","stim/objects/HouseObjects/remote2.png",193,77,193,0.9,"stim/42.jpeg",4,2,3,NA,"HouseObjects",1,4,"left","left",0.622000217,1,1,0,1,NA,NA,NA,NA,NA,NA,NA,NA,NA,NA,NA,NA,NA,NA,NA,NA,NA,NA,NA,NA,NA,NA,NA,NA
"80","stim/objects/HouseObjects/recyclingbin2.png",194,77,194,0.9,"stim/41.jpeg",4,1,3,NA,"HouseObjects",1,3,"left","left",0.525000334,1,1,0,1,NA,NA,NA,NA,NA,NA,NA,NA,NA,NA,NA,NA,NA,NA,NA,NA,NA,NA,NA,NA,NA,NA,NA,NA
"118","stim/objects/HouseObjects/rug2.png",195,77,195,0.9,"stim/44.jpeg",4,4,3,NA,"HouseObjects",1,4,"left","left",0.559000015,1,1,0,1,NA,NA,NA,NA,NA,NA,NA,NA,NA,NA,NA,NA,NA,NA,NA,NA,NA,NA,NA,NA,NA,NA,NA,NA
"35","stim/objects/HouseObjects/key2.png",196,77,196,0.7,"stim/23.jpeg",2,3,2,NA,"HouseObjects",1,2,"left","left",0.46600008,1,1,0,1,NA,NA,NA,NA,NA,NA,NA,NA,NA,NA,NA,NA,NA,NA,NA,NA,NA,NA,NA,NA,NA,NA,NA,NA
"140","stim/objects/Instruments/maraca.png",197,77,197,0.5,"stim/53.jpeg",5,3,1,NA,"Instruments",2,3,"right","left",0.404000282,0,0,0,1,NA,NA,NA,NA,NA,NA,NA,NA,NA,NA,NA,NA,NA,NA,NA,NA,NA,NA,NA,NA,NA,NA,NA,NA
"81","stim/objects/HouseObjects/recyclingbin2.png",198,77,198,0.9,"stim/41.jpeg",4,1,3,NA,"HouseObjects",1,1,"left","left",0.610000134,1,1,0,1,NA,NA,NA,NA,NA,NA,NA,NA,NA,NA,NA,NA,NA,NA,NA,NA,NA,NA,NA,NA,NA,NA,NA,NA
"49","stim/objects/HouseObjects/lintroller.png",199,77,199,0.5,"stim/61.jpeg",6,1,1,NA,"HouseObjects",1,2,"left","right",0.664000034,0,0,0,1,NA,NA,NA,NA,NA,NA,NA,NA,NA,NA,NA,NA,NA,NA,NA,NA,NA,NA,NA,NA,NA,NA,NA,NA
"5","stim/objects/HouseObjects/iron.png",200,77,200,0.5,"stim/51.jpeg",5,1,1,NA,"HouseObjects",1,1,"left","left",0.452000141,1,1,0,1,NA,NA,NA,NA,NA,NA,NA,NA,NA,NA,NA,NA,NA,NA,NA,NA,NA,NA,NA,NA,NA,NA,NA,NA
"50","stim/objects/HouseObjects/lintroller.png",201,77,201,0.5,"stim/61.jpeg",6,1,1,NA,"HouseObjects",1,1,"left","right",0.549000025,0,0,0,1,NA,NA,NA,NA,NA,NA,NA,NA,NA,NA,NA,NA,NA,NA,NA,NA,NA,NA,NA,NA,NA,NA,NA,NA
"131","stim/objects/Instruments/laud.png",202,77,202,0.5,"stim/52.jpeg",5,2,1,NA,"Instruments",2,2,"right","left",0.451000214,0,0,0,1,NA,NA,NA,NA,NA,NA,NA,NA,NA,NA,NA,NA,NA,NA,NA,NA,NA,NA,NA,NA,NA,NA,NA,NA
"107","stim/objects/HouseObjects/rubbergloves2.png",203,77,203,0.9,"stim/43.jpeg",4,3,3,NA,"HouseObjects",1,3,"left","left",0.519000053,1,1,0,1,NA,NA,NA,NA,NA,NA,NA,NA,NA,NA,NA,NA,NA,NA,NA,NA,NA,NA,NA,NA,NA,NA,NA,NA
"180","stim/objects/Instruments/musicsheet2.png",204,77,204,0.9,"stim/32.jpeg",3,2,3,NA,"Instruments",2,4,"right","right",0.507000208,1,1,0,1,NA,NA,NA,NA,NA,NA,NA,NA,NA,NA,NA,NA,NA,NA,NA,NA,NA,NA,NA,NA,NA,NA,NA,NA
"132","stim/objects/Instruments/laud.png",205,77,205,0.5,"stim/52.jpeg",5,2,1,NA,"Instruments",2,3,"right","left",0.450999975,0,0,0,1,NA,NA,NA,NA,NA,NA,NA,NA,NA,NA,NA,NA,NA,NA,NA,NA,NA,NA,NA,NA,NA,NA,NA,NA
"214","stim/objects/Instruments/panflute.png",206,77,206,0.7,"stim/11.jpeg",1,1,2,NA,"Instruments",2,1,"right","right",0.726999998,1,1,0,1,NA,NA,NA,NA,NA,NA,NA,NA,NA,NA,NA,NA,NA,NA,NA,NA,NA,NA,NA,NA,NA,NA,NA,NA
"17","stim/objects/HouseObjects/ironingboard.png",207,77,207,0.5,"stim/52.jpeg",5,2,1,NA,"HouseObjects",1,1,"left","left",0.737000227,1,1,0,1,NA,NA,NA,NA,NA,NA,NA,NA,NA,NA,NA,NA,NA,NA,NA,NA,NA,NA,NA,NA,NA,NA,NA,NA
"65","stim/objects/HouseObjects/pan.png",208,77,208,0.5,"stim/63.jpeg",6,3,1,NA,"HouseObjects",1,4,"left","right",0.636000156,0,0,0,1,NA,NA,NA,NA,NA,NA,NA,NA,NA,NA,NA,NA,NA,NA,NA,NA,NA,NA,NA,NA,NA,NA,NA,NA
"156","stim/objects/Instruments/metronome.png",209,77,209,0.5,"stim/61.jpeg",6,1,1,NA,"Instruments",2,2,"right","right",0.608000278,1,1,0,1,NA,NA,NA,NA,NA,NA,NA,NA,NA,NA,NA,NA,NA,NA,NA,NA,NA,NA,NA,NA,NA,NA,NA,NA
"166","stim/objects/Instruments/metronome2.png",210,77,210,0.9,"stim/31.jpeg",3,1,3,NA,"Instruments",2,2,"right","right",0.590000391,1,1,0,1,NA,NA,NA,NA,NA,NA,NA,NA,NA,NA,NA,NA,NA,NA,NA,NA,NA,NA,NA,NA,NA,NA,NA,NA
"111","stim/objects/HouseObjects/rug.png",211,77,211,0.3,"stim/14.jpeg",1,4,2,NA,"HouseObjects",1,2,"left","left",0.556000233,1,1,0,1,NA,NA,NA,NA,NA,NA,NA,NA,NA,NA,NA,NA,NA,NA,NA,NA,NA,NA,NA,NA,NA,NA,NA,NA
"119","stim/objects/HouseObjects/rug2.png",212,77,212,0.9,"stim/44.jpeg",4,4,3,NA,"HouseObjects",1,2,"left","left",0.644999981,1,1,0,1,NA,NA,NA,NA,NA,NA,NA,NA,NA,NA,NA,NA,NA,NA,NA,NA,NA,NA,NA,NA,NA,NA,NA,NA
"82","stim/objects/HouseObjects/recyclingbin2.png",213,77,213,0.9,"stim/41.jpeg",4,1,3,NA,"HouseObjects",1,1,"left","left",0.494000196,1,1,0,1,NA,NA,NA,NA,NA,NA,NA,NA,NA,NA,NA,NA,NA,NA,NA,NA,NA,NA,NA,NA,NA,NA,NA,NA
"198","stim/objects/Instruments/oboe.png",214,77,214,0.5,"stim/64.jpeg",6,4,1,NA,"Instruments",2,3,"right","left",0.486999989,0,0,0,1,NA,NA,NA,NA,NA,NA,NA,NA,NA,NA,NA,NA,NA,NA,NA,NA,NA,NA,NA,NA,NA,NA,NA,NA
"185","stim/objects/Instruments/musicstand.png",215,77,215,0.5,"stim/63.jpeg",6,3,1,NA,"Instruments",2,1,"right","right",0.724000216,1,1,0,1,NA,NA,NA,NA,NA,NA,NA,NA,NA,NA,NA,NA,NA,NA,NA,NA,NA,NA,NA,NA,NA,NA,NA,NA
"231","stim/objects/Instruments/record_player.png",216,77,216,0.7,"stim/14.jpeg",1,4,2,NA,"Instruments",2,2,"right","right",0.641000271,1,1,0,1,NA,NA,NA,NA,NA,NA,NA,NA,NA,NA,NA,NA,NA,NA,NA,NA,NA,NA,NA,NA,NA,NA,NA,NA
"51","stim/objects/HouseObjects/lintroller.png",217,77,217,0.5,"stim/61.jpeg",6,1,1,NA,"HouseObjects",1,2,"left","right",0.500000238,0,0,0,1,NA,NA,NA,NA,NA,NA,NA,NA,NA,NA,NA,NA,NA,NA,NA,NA,NA,NA,NA,NA,NA,NA,NA,NA
"120","stim/objects/HouseObjects/rug2.png",218,77,218,0.9,"stim/44.jpeg",4,4,3,NA,"HouseObjects",1,2,"left","left",0.575999975,1,1,0,1,NA,NA,NA,NA,NA,NA,NA,NA,NA,NA,NA,NA,NA,NA,NA,NA,NA,NA,NA,NA,NA,NA,NA,NA
"133","stim/objects/Instruments/laud.png",219,77,219,0.5,"stim/52.jpeg",5,2,1,NA,"Instruments",2,4,"right","left",0.503000021,0,0,0,1,NA,NA,NA,NA,NA,NA,NA,NA,NA,NA,NA,NA,NA,NA,NA,NA,NA,NA,NA,NA,NA,NA,NA,NA
"194","stim/objects/Instruments/musicstand2.png",220,77,220,0.9,"stim/33.jpeg",3,3,3,NA,"Instruments",2,2,"right","right",0.6650002,1,1,0,1,NA,NA,NA,NA,NA,NA,NA,NA,NA,NA,NA,NA,NA,NA,NA,NA,NA,NA,NA,NA,NA,NA,NA,NA
"223","stim/objects/Instruments/pipepiano.png",221,77,221,0.7,"stim/12.jpeg",1,2,2,NA,"Instruments",2,2,"right","right",0.603000164,1,1,0,1,NA,NA,NA,NA,NA,NA,NA,NA,NA,NA,NA,NA,NA,NA,NA,NA,NA,NA,NA,NA,NA,NA,NA,NA
"59","stim/objects/HouseObjects/match.png",222,77,222,0.5,"stim/62.jpeg",6,2,1,NA,"HouseObjects",1,3,"left","left",0.720000029,1,1,0,1,NA,NA,NA,NA,NA,NA,NA,NA,NA,NA,NA,NA,NA,NA,NA,NA,NA,NA,NA,NA,NA,NA,NA,NA
"36","stim/objects/HouseObjects/key2.png",223,77,223,0.7,"stim/23.jpeg",2,3,2,NA,"HouseObjects",1,3,"left","left",0.585000038,1,1,0,1,NA,NA,NA,NA,NA,NA,NA,NA,NA,NA,NA,NA,NA,NA,NA,NA,NA,NA,NA,NA,NA,NA,NA,NA
"207","stim/objects/Instruments/oboe2.png",224,77,224,0.9,"stim/34.jpeg",3,4,3,NA,"Instruments",2,1,"right","right",0.44900012,1,1,0,1,NA,NA,NA,NA,NA,NA,NA,NA,NA,NA,NA,NA,NA,NA,NA,NA,NA,NA,NA,NA,NA,NA,NA,NA
"108","stim/objects/HouseObjects/rubbergloves2.png",225,77,225,0.9,"stim/43.jpeg",4,3,3,NA,"HouseObjects",1,3,"left","left",0.567000151,1,1,0,1,NA,NA,NA,NA,NA,NA,NA,NA,NA,NA,NA,NA,NA,NA,NA,NA,NA,NA,NA,NA,NA,NA,NA,NA
"144","stim/objects/Instruments/maraca2.png",226,77,226,0.3,"stim/23.jpeg",2,3,2,NA,"Instruments",2,1,"right","left",0.623000145,0,0,0,1,NA,NA,NA,NA,NA,NA,NA,NA,NA,NA,NA,NA,NA,NA,NA,NA,NA,NA,NA,NA,NA,NA,NA,NA
"125","stim/objects/Instruments/keyboard.png",227,77,227,0.5,"stim/51.jpeg",5,1,1,NA,"Instruments",2,4,"right","left",0.693000317,0,0,0,1,NA,NA,NA,NA,NA,NA,NA,NA,NA,NA,NA,NA,NA,NA,NA,NA,NA,NA,NA,NA,NA,NA,NA,NA
"157","stim/objects/Instruments/metronome.png",228,77,228,0.5,"stim/61.jpeg",6,1,1,NA,"Instruments",2,3,"right","right",0.644000053,1,1,0,1,NA,NA,NA,NA,NA,NA,NA,NA,NA,NA,NA,NA,NA,NA,NA,NA,NA,NA,NA,NA,NA,NA,NA,NA
"224","stim/objects/Instruments/pipepiano2.png",229,77,229,0.1,"stim/42.jpeg",4,2,3,NA,"Instruments",2,3,"right","left",0.632000208,0,0,0,1,NA,NA,NA,NA,NA,NA,NA,NA,NA,NA,NA,NA,NA,NA,NA,NA,NA,NA,NA,NA,NA,NA,NA,NA
"83","stim/objects/HouseObjects/recyclingbin2.png",230,77,230,0.9,"stim/41.jpeg",4,1,3,NA,"HouseObjects",1,2,"left","left",0.624000311,1,1,0,1,NA,NA,NA,NA,NA,NA,NA,NA,NA,NA,NA,NA,NA,NA,NA,NA,NA,NA,NA,NA,NA,NA,NA,NA
"141","stim/objects/Instruments/maraca.png",231,77,231,0.5,"stim/53.jpeg",5,3,1,NA,"Instruments",2,4,"right","",NA,0,0,0,1,NA,NA,NA,NA,NA,NA,NA,NA,NA,NA,NA,NA,NA,NA,NA,NA,NA,NA,NA,NA,NA,NA,NA,NA
"215","stim/objects/Instruments/panflute.png",232,77,232,0.7,"stim/11.jpeg",1,1,2,NA,"Instruments",2,3,"right","left",0.424000025,0,0,0,1,NA,NA,NA,NA,NA,NA,NA,NA,NA,NA,NA,NA,NA,NA,NA,NA,NA,NA,NA,NA,NA,NA,NA,NA
"24","stim/objects/HouseObjects/ironingboard2.png",233,77,233,0.7,"stim/22.jpeg",2,2,2,NA,"HouseObjects",1,3,"left","left",0.725000143,1,1,0,1,NA,NA,NA,NA,NA,NA,NA,NA,NA,NA,NA,NA,NA,NA,NA,NA,NA,NA,NA,NA,NA,NA,NA,NA
"199","stim/objects/Instruments/oboe.png",234,77,234,0.5,"stim/64.jpeg",6,4,1,NA,"Instruments",2,3,"right","right",0.647000074,1,1,0,1,NA,NA,NA,NA,NA,NA,NA,NA,NA,NA,NA,NA,NA,NA,NA,NA,NA,NA,NA,NA,NA,NA,NA,NA
"52","stim/objects/HouseObjects/lintroller.png",235,77,235,0.5,"stim/61.jpeg",6,1,1,NA,"HouseObjects",1,4,"left","right",0.666000366,0,0,0,1,NA,NA,NA,NA,NA,NA,NA,NA,NA,NA,NA,NA,NA,NA,NA,NA,NA,NA,NA,NA,NA,NA,NA,NA
"171","stim/objects/Instruments/musicsheet.png",236,77,236,0.5,"stim/62.jpeg",6,2,1,NA,"Instruments",2,1,"right","right",0.664000034,1,1,0,1,NA,NA,NA,NA,NA,NA,NA,NA,NA,NA,NA,NA,NA,NA,NA,NA,NA,NA,NA,NA,NA,NA,NA,NA
"208","stim/objects/Instruments/oboe2.png",237,77,237,0.9,"stim/34.jpeg",3,4,3,NA,"Instruments",2,3,"right","right",0.542000294,1,1,0,1,NA,NA,NA,NA,NA,NA,NA,NA,NA,NA,NA,NA,NA,NA,NA,NA,NA,NA,NA,NA,NA,NA,NA,NA
"84","stim/objects/HouseObjects/recyclingbin2.png",238,77,238,0.9,"stim/41.jpeg",4,1,3,NA,"HouseObjects",1,1,"left","left",0.670000315,1,1,0,1,NA,NA,NA,NA,NA,NA,NA,NA,NA,NA,NA,NA,NA,NA,NA,NA,NA,NA,NA,NA,NA,NA,NA,NA
"53","stim/objects/HouseObjects/lintroller.png",239,77,239,0.5,"stim/61.jpeg",6,1,1,NA,"HouseObjects",1,4,"left","right",0.437000036,0,0,0,1,NA,NA,NA,NA,NA,NA,NA,NA,NA,NA,NA,NA,NA,NA,NA,NA,NA,NA,NA,NA,NA,NA,NA,NA
"216","stim/objects/Instruments/panflute2.png",240,77,240,0.1,"stim/41.jpeg",4,1,3,NA,"Instruments",2,1,"right","left",0.514000177,0,0,0,1,NA,NA,NA,NA,NA,NA,NA,NA,NA,NA,NA,NA,NA,NA,NA,NA,NA,NA,NA,NA,NA,NA,NA,NA
"524","stim/objects/Instruments/grandpiano.png",248,77,241,0.9,"stim/31.jpeg",3,1,3,2,"Instruments",2,3,"right","left",0.808000088,0,0,1,0,NA,NA,NA,NA,NA,NA,NA,NA,NA,NA,NA,NA,NA,NA,NA,NA,NA,NA,NA,NA,NA,NA,NA,NA
"241","stim/objects/HouseObjects/ashtray.png",249,77,242,0.5,"stim/51.jpeg",5,1,1,2,"HouseObjects",1,3,"left","left",0.745000124,1,1,1,0,NA,NA,NA,NA,NA,NA,NA,NA,NA,NA,NA,NA,NA,NA,NA,NA,NA,NA,NA,NA,NA,NA,NA,NA
"490","stim/objects/Instruments/frenchhorn.png",250,77,243,0.9,"stim/32.jpeg",3,2,3,2,"Instruments",2,1,"right","right",0.59800005,1,1,1,0,NA,NA,NA,NA,NA,NA,NA,NA,NA,NA,NA,NA,NA,NA,NA,NA,NA,NA,NA,NA,NA,NA,NA,NA
"405","stim/objects/HouseObjects/wateringcan2.png",251,77,244,0.9,"stim/42.jpeg",4,2,3,1,"HouseObjects",1,4,"left","left",0.679000139,1,1,1,0,170,77,1,0.9,1,"stim/42.jpeg",4,2,"stim/42.jpeg",4,"left",1.760999918,2,2,4.309999943,3,0.980999708,170,1,1,1,0,0,0
"253","stim/objects/HouseObjects/bleachbottle.png",252,77,245,0.5,"stim/52.jpeg",5,2,1,2,"HouseObjects",1,1,"left","left",0.706000328,1,1,1,0,NA,NA,NA,NA,NA,NA,NA,NA,NA,NA,NA,NA,NA,NA,NA,NA,NA,NA,NA,NA,NA,NA,NA,NA
"409","stim/objects/Instruments/acousticguitar.png",253,77,246,0.5,"stim/52.jpeg",5,2,1,2,"Instruments",2,1,"right","right",0.821000099,1,1,1,0,NA,NA,NA,NA,NA,NA,NA,NA,NA,NA,NA,NA,NA,NA,NA,NA,NA,NA,NA,NA,NA,NA,NA,NA
"342","stim/objects/HouseObjects/garbagebin.png",254,77,247,0.9,"stim/44.jpeg",4,4,3,2,"HouseObjects",1,3,"left","left",0.678000212,1,1,1,0,NA,NA,NA,NA,NA,NA,NA,NA,NA,NA,NA,NA,NA,NA,NA,NA,NA,NA,NA,NA,NA,NA,NA,NA
"491","stim/objects/Instruments/frenchhorn.png",255,77,248,0.9,"stim/33.jpeg",3,3,3,2,"Instruments",2,1,"right","right",0.494000196,1,1,1,0,NA,NA,NA,NA,NA,NA,NA,NA,NA,NA,NA,NA,NA,NA,NA,NA,NA,NA,NA,NA,NA,NA,NA,NA
"325","stim/objects/HouseObjects/flyswatter.png",256,77,249,0.9,"stim/44.jpeg",4,4,3,2,"HouseObjects",1,3,"left","left",0.519000053,1,1,1,0,NA,NA,NA,NA,NA,NA,NA,NA,NA,NA,NA,NA,NA,NA,NA,NA,NA,NA,NA,NA,NA,NA,NA,NA
"259","stim/objects/HouseObjects/bottle.png",257,77,250,0.5,"stim/64.jpeg",6,4,1,2,"HouseObjects",1,3,"left","right",0.543000221,0,0,1,0,NA,NA,NA,NA,NA,NA,NA,NA,NA,NA,NA,NA,NA,NA,NA,NA,NA,NA,NA,NA,NA,NA,NA,NA
"309","stim/objects/HouseObjects/dustpan.png",258,77,251,0.9,"stim/42.jpeg",4,2,3,2,"HouseObjects",1,4,"left","left",0.702000141,1,1,1,0,NA,NA,NA,NA,NA,NA,NA,NA,NA,NA,NA,NA,NA,NA,NA,NA,NA,NA,NA,NA,NA,NA,NA,NA
"563","stim/objects/Instruments/tuba.png",259,77,252,0.7,"stim/13.jpeg",1,3,2,1,"Instruments",2,3,"right","right",0.59100008,1,1,1,0,96,77,1,0.7,2,"stim/13.jpeg",1,3,"stim/13.jpeg",3,"right",2.895999908,2,3,3.099999905,1,1.391000032,96,0,1,NA,0,NA,0
"415","stim/objects/Instruments/banjo.png",260,77,253,0.5,"stim/54.jpeg",5,4,1,2,"Instruments",2,2,"right","right",0.725000143,1,1,1,0,NA,NA,NA,NA,NA,NA,NA,NA,NA,NA,NA,NA,NA,NA,NA,NA,NA,NA,NA,NA,NA,NA,NA,NA
"412","stim/objects/Instruments/balalaika.png",261,77,254,0.5,"stim/52.jpeg",5,2,1,2,"Instruments",2,2,"right","left",0.524000168,0,0,1,0,NA,NA,NA,NA,NA,NA,NA,NA,NA,NA,NA,NA,NA,NA,NA,NA,NA,NA,NA,NA,NA,NA,NA,NA
"433","stim/objects/Instruments/cornet.png",262,77,255,0.5,"stim/62.jpeg",6,2,1,2,"Instruments",2,2,"right","right",0.630000114,1,1,1,0,NA,NA,NA,NA,NA,NA,NA,NA,NA,NA,NA,NA,NA,NA,NA,NA,NA,NA,NA,NA,NA,NA,NA,NA
"359","stim/objects/HouseObjects/glass.png",263,77,256,0.9,"stim/41.jpeg",4,1,3,2,"HouseObjects",1,2,"left","left",0.653000116,1,1,1,0,NA,NA,NA,NA,NA,NA,NA,NA,NA,NA,NA,NA,NA,NA,NA,NA,NA,NA,NA,NA,NA,NA,NA,NA
"540","stim/objects/Instruments/grandpiano2.png",264,77,257,0.9,"stim/33.jpeg",3,3,3,1,"Instruments",2,2,"right","right",0.572000265,1,1,1,0,99,77,1,0.9,2,"stim/33.jpeg",3,3,"stim/33.jpeg",2,"left",1.773000002,4,2,3.437999964,4,2.365999937,99,1,0,0,0,0,0
"456","stim/objects/Instruments/flute.png",265,77,258,0.9,"stim/31.jpeg",3,1,3,2,"Instruments",2,2,"right","right",0.614000082,1,1,1,0,NA,NA,NA,NA,NA,NA,NA,NA,NA,NA,NA,NA,NA,NA,NA,NA,NA,NA,NA,NA,NA,NA,NA,NA
"246","stim/objects/HouseObjects/ballofstring2.png",266,77,259,0.3,"stim/13.jpeg",1,3,2,1,"HouseObjects",1,3,"left","right",0.859000206,0,0,1,0,61,77,1,0.3,1,"stim/13.jpeg",1,3,"stim/13.jpeg",3,"right",1.730999947,3,2,2.815999985,3,1.225999832,61,0,0,NA,1,NA,0
"278","stim/objects/HouseObjects/clothespin2.png",267,77,260,0.7,"stim/22.jpeg",2,2,2,1,"HouseObjects",1,3,"left","left",0.723000288,1,1,1,0,160,77,1,0.7,1,"stim/22.jpeg",2,2,"stim/22.jpeg",3,"left",1.78399992,4,2,1.395999908,3,1.674000025,160,1,1,1,1,1,0
"457","stim/objects/Instruments/flute.png",268,77,261,0.9,"stim/34.jpeg",3,4,3,2,"Instruments",2,4,"right","right",0.582000017,1,1,1,0,NA,NA,NA,NA,NA,NA,NA,NA,NA,NA,NA,NA,NA,NA,NA,NA,NA,NA,NA,NA,NA,NA,NA,NA
"507","stim/objects/Instruments/gong.png",269,77,262,0.9,"stim/31.jpeg",3,1,3,2,"Instruments",2,3,"right","right",0.514000177,1,1,1,0,NA,NA,NA,NA,NA,NA,NA,NA,NA,NA,NA,NA,NA,NA,NA,NA,NA,NA,NA,NA,NA,NA,NA,NA
"341","stim/objects/HouseObjects/flyswatter2.png",270,77,263,0.1,"stim/33.jpeg",3,3,3,1,"HouseObjects",1,3,"left","right",0.67200017,0,0,1,0,63,77,1,0.1,1,"stim/33.jpeg",3,3,"stim/33.jpeg",3,"left",1.102999926,4,2,4.286999941,1,0.891000032,63,1,0,0,0,0,0
"307","stim/objects/HouseObjects/doormat2.png",271,77,264,0.1,"stim/31.jpeg",3,1,3,1,"HouseObjects",1,1,"left","right",0.633000135,0,0,1,0,196,77,1,0.1,1,"stim/31.jpeg",3,1,"stim/31.jpeg",1,"right",2.965999842,3,4,1.733999968,3,2.018999815,196,0,0,NA,0,NA,0
"361","stim/objects/HouseObjects/glass.png",272,77,265,0.9,"stim/44.jpeg",4,4,3,2,"HouseObjects",1,3,"left","left",0.568000078,1,1,1,0,NA,NA,NA,NA,NA,NA,NA,NA,NA,NA,NA,NA,NA,NA,NA,NA,NA,NA,NA,NA,NA,NA,NA,NA
"421","stim/objects/Instruments/bassguitar.png",273,77,266,0.5,"stim/62.jpeg",6,2,1,2,"Instruments",2,4,"right","right",0.542000294,1,1,1,0,NA,NA,NA,NA,NA,NA,NA,NA,NA,NA,NA,NA,NA,NA,NA,NA,NA,NA,NA,NA,NA,NA,NA,NA
"525","stim/objects/Instruments/grandpiano.png",274,77,267,0.9,"stim/33.jpeg",3,3,3,2,"Instruments",2,3,"right","right",0.590000153,1,1,1,0,NA,NA,NA,NA,NA,NA,NA,NA,NA,NA,NA,NA,NA,NA,NA,NA,NA,NA,NA,NA,NA,NA,NA,NA
"447","stim/objects/Instruments/drums2.png",275,77,268,0.3,"stim/21.jpeg",2,1,2,1,"Instruments",2,3,"right","left",0.611000061,0,0,1,0,186,77,1,0.3,2,"stim/21.jpeg",2,1,"stim/21.jpeg",3,"left",3.337999821,4,1,5.055999994,2,1.001999855,186,1,1,1,0,0,0
"494","stim/objects/Instruments/frenchhorn.png",276,77,269,0.9,"stim/34.jpeg",3,4,3,2,"Instruments",2,2,"right","right",0.658000231,1,1,1,0,NA,NA,NA,NA,NA,NA,NA,NA,NA,NA,NA,NA,NA,NA,NA,NA,NA,NA,NA,NA,NA,NA,NA,NA
"254","stim/objects/HouseObjects/bleachbottle.png",277,77,270,0.5,"stim/51.jpeg",5,1,1,2,"HouseObjects",1,4,"left","right",0.700000286,0,0,1,0,NA,NA,NA,NA,NA,NA,NA,NA,NA,NA,NA,NA,NA,NA,NA,NA,NA,NA,NA,NA,NA,NA,NA,NA
"393","stim/objects/HouseObjects/spraybottle2.png",278,77,271,0.9,"stim/44.jpeg",4,4,3,1,"HouseObjects",1,1,"left","left",0.707000256,1,1,1,0,64,77,1,0.9,1,"stim/44.jpeg",4,4,"stim/44.jpeg",1,"right",1.399999857,2,2,4.947999954,3,3.148999929,64,0,0,NA,0,NA,0
"527","stim/objects/Instruments/grandpiano.png",279,77,272,0.9,"stim/31.jpeg",3,1,3,2,"Instruments",2,2,"right","right",0.502000093,1,1,1,0,NA,NA,NA,NA,NA,NA,NA,NA,NA,NA,NA,NA,NA,NA,NA,NA,NA,NA,NA,NA,NA,NA,NA,NA
"327","stim/objects/HouseObjects/flyswatter.png",280,77,273,0.9,"stim/43.jpeg",4,3,3,2,"HouseObjects",1,1,"left","left",0.670000315,1,1,1,0,NA,NA,NA,NA,NA,NA,NA,NA,NA,NA,NA,NA,NA,NA,NA,NA,NA,NA,NA,NA,NA,NA,NA,NA
"473","stim/objects/Instruments/flutetrans.png",281,77,274,0.9,"stim/32.jpeg",3,2,3,2,"Instruments",2,1,"right","right",0.60800004,1,1,1,0,NA,NA,NA,NA,NA,NA,NA,NA,NA,NA,NA,NA,NA,NA,NA,NA,NA,NA,NA,NA,NA,NA,NA,NA
"459","stim/objects/Instruments/flute.png",282,77,275,0.9,"stim/31.jpeg",3,1,3,2,"Instruments",2,2,"right","right",0.536000252,1,1,1,0,NA,NA,NA,NA,NA,NA,NA,NA,NA,NA,NA,NA,NA,NA,NA,NA,NA,NA,NA,NA,NA,NA,NA,NA
"280","stim/objects/HouseObjects/coffee.png",283,77,276,0.7,"stim/21.jpeg",2,1,2,2,"HouseObjects",1,3,"left","left",0.506000042,1,1,1,0,NA,NA,NA,NA,NA,NA,NA,NA,NA,NA,NA,NA,NA,NA,NA,NA,NA,NA,NA,NA,NA,NA,NA,NA
"292","stim/objects/HouseObjects/doormat.png",284,77,277,0.9,"stim/44.jpeg",4,4,3,2,"HouseObjects",1,2,"left","left",0.673000097,1,1,1,0,NA,NA,NA,NA,NA,NA,NA,NA,NA,NA,NA,NA,NA,NA,NA,NA,NA,NA,NA,NA,NA,NA,NA,NA
"290","stim/objects/HouseObjects/dishsoap2.png",285,77,278,0.7,"stim/21.jpeg",2,1,2,1,"HouseObjects",1,4,"left","left",0.812000036,1,1,1,0,44,77,1,0.7,1,"stim/21.jpeg",2,1,"stim/21.jpeg",4,"left",1.079999924,4,2,3.348999977,1,1.937000036,44,1,0,0,0,0,0
"508","stim/objects/Instruments/gong.png",286,77,279,0.9,"stim/33.jpeg",3,3,3,2,"Instruments",2,3,"right","right",0.734000206,1,1,1,0,NA,NA,NA,NA,NA,NA,NA,NA,NA,NA,NA,NA,NA,NA,NA,NA,NA,NA,NA,NA,NA,NA,NA,NA
"310","stim/objects/HouseObjects/dustpan.png",287,77,280,0.9,"stim/43.jpeg",4,3,3,2,"HouseObjects",1,2,"left","left",0.579000235,1,1,1,0,NA,NA,NA,NA,NA,NA,NA,NA,NA,NA,NA,NA,NA,NA,NA,NA,NA,NA,NA,NA,NA,NA,NA,NA
"440","stim/objects/Instruments/doublebass.png",288,77,281,0.7,"stim/14.jpeg",1,4,2,2,"Instruments",2,4,"right","right",0.715000391,1,1,1,0,NA,NA,NA,NA,NA,NA,NA,NA,NA,NA,NA,NA,NA,NA,NA,NA,NA,NA,NA,NA,NA,NA,NA,NA
"293","stim/objects/HouseObjects/doormat.png",289,77,282,0.9,"stim/43.jpeg",4,3,3,2,"HouseObjects",1,1,"left","left",0.714000225,1,1,1,0,NA,NA,NA,NA,NA,NA,NA,NA,NA,NA,NA,NA,NA,NA,NA,NA,NA,NA,NA,NA,NA,NA,NA,NA
"426","stim/objects/Instruments/cello2.png",290,77,283,0.3,"stim/23.jpeg",2,3,2,1,"Instruments",2,3,"right","left",0.584000111,0,0,1,0,23,77,1,0.3,2,"stim/23.jpeg",2,3,"stim/23.jpeg",3,"left",1.178999901,4,1,7.378999949,2,1.197999954,23,1,0,0,0,0,0
"378","stim/objects/HouseObjects/hairdryer.png",291,77,284,0.5,"stim/54.jpeg",5,4,1,1,"HouseObjects",1,3,"left","left",0.516000032,1,1,1,0,74,77,1,0.5,1,"stim/54.jpeg",5,4,"stim/54.jpeg",3,"left",2.136999846,3,3,8.8349998,4,1.328999996,74,1,0,0,0,0,0
"404","stim/objects/HouseObjects/wateringcan.png",292,77,285,0.3,"stim/11.jpeg",1,1,2,1,"HouseObjects",1,1,"left","right",0.548000097,0,0,1,0,169,77,1,0.3,1,"stim/11.jpeg",1,1,"stim/11.jpeg",1,"right",0.909999847,3,4,2.822999954,3,3.680000067,169,0,0,NA,0,NA,0
"381","stim/objects/HouseObjects/handbrush2.png",293,77,286,0.1,"stim/34.jpeg",3,4,3,1,"HouseObjects",1,3,"left","left",0.525000095,1,1,1,0,26,77,1,0.1,1,"stim/34.jpeg",3,4,"stim/34.jpeg",3,"right",3.131999969,2,3,4.027999878,3,2.247999907,26,0,0,NA,1,NA,0
"422","stim/objects/Instruments/bassguitar.png",294,77,287,0.5,"stim/63.jpeg",6,3,1,2,"Instruments",2,4,"right","right",0.450000286,1,1,1,0,NA,NA,NA,NA,NA,NA,NA,NA,NA,NA,NA,NA,NA,NA,NA,NA,NA,NA,NA,NA,NA,NA,NA,NA
"460","stim/objects/Instruments/flute.png",295,77,288,0.9,"stim/32.jpeg",3,2,3,2,"Instruments",2,2,"right","right",0.505000114,1,1,1,0,NA,NA,NA,NA,NA,NA,NA,NA,NA,NA,NA,NA,NA,NA,NA,NA,NA,NA,NA,NA,NA,NA,NA,NA
"311","stim/objects/HouseObjects/dustpan.png",296,77,289,0.9,"stim/44.jpeg",4,4,3,2,"HouseObjects",1,2,"left","left",0.809000015,1,1,1,0,NA,NA,NA,NA,NA,NA,NA,NA,NA,NA,NA,NA,NA,NA,NA,NA,NA,NA,NA,NA,NA,NA,NA,NA
"398","stim/objects/HouseObjects/thread.png",297,77,290,0.3,"stim/12.jpeg",1,2,2,1,"HouseObjects",1,3,"left","left",0.847000122,1,1,1,0,116,77,1,0.3,1,"stim/12.jpeg",1,2,"stim/12.jpeg",3,"right",1.248999834,3,2,2.51699996,1,1.392999887,116,0,1,NA,0,NA,0
"362","stim/objects/HouseObjects/glass.png",298,77,291,0.9,"stim/41.jpeg",4,1,3,2,"HouseObjects",1,4,"left","left",0.795000076,1,1,1,0,NA,NA,NA,NA,NA,NA,NA,NA,NA,NA,NA,NA,NA,NA,NA,NA,NA,NA,NA,NA,NA,NA,NA,NA
"403","stim/objects/HouseObjects/vacuumcleaner2.png",299,77,292,0.9,"stim/41.jpeg",4,1,3,1,"HouseObjects",1,2,"left","",NA,0,0,1,0,168,77,1,0.9,1,"stim/41.jpeg",4,1,"stim/41.jpeg",2,"left",2.838999748,3,3,3.350999832,4,0.898999929,168,1,0,0,0,0,0
"328","stim/objects/HouseObjects/flyswatter.png",300,77,293,0.9,"stim/41.jpeg",4,1,3,2,"HouseObjects",1,1,"left","left",0.656000137,1,1,1,0,NA,NA,NA,NA,NA,NA,NA,NA,NA,NA,NA,NA,NA,NA,NA,NA,NA,NA,NA,NA,NA,NA,NA,NA
"530","stim/objects/Instruments/grandpiano.png",301,77,294,0.9,"stim/34.jpeg",3,4,3,2,"Instruments",2,1,"right","right",0.613000154,1,1,1,0,NA,NA,NA,NA,NA,NA,NA,NA,NA,NA,NA,NA,NA,NA,NA,NA,NA,NA,NA,NA,NA,NA,NA,NA
"569","stim/objects/Instruments/xylophone.png",302,77,295,0.7,"stim/12.jpeg",1,2,2,1,"Instruments",2,3,"right","right",0.613000154,1,1,1,0,68,77,1,0.7,2,"stim/12.jpeg",1,2,"stim/12.jpeg",3,"right",4.674000025,2,1,3.134000063,1,1.750999928,68,0,0,NA,0,NA,0
"495","stim/objects/Instruments/frenchhorn.png",303,77,296,0.9,"stim/33.jpeg",3,3,3,2,"Instruments",2,4,"right","right",0.671000004,1,1,1,0,NA,NA,NA,NA,NA,NA,NA,NA,NA,NA,NA,NA,NA,NA,NA,NA,NA,NA,NA,NA,NA,NA,NA,NA
"475","stim/objects/Instruments/flutetrans.png",304,77,297,0.9,"stim/33.jpeg",3,3,3,2,"Instruments",2,2,"right","right",0.624000072,1,1,1,0,NA,NA,NA,NA,NA,NA,NA,NA,NA,NA,NA,NA,NA,NA,NA,NA,NA,NA,NA,NA,NA,NA,NA,NA
"295","stim/objects/HouseObjects/doormat.png",305,77,298,0.9,"stim/41.jpeg",4,1,3,2,"HouseObjects",1,4,"left","right",0.52300024,0,0,1,0,NA,NA,NA,NA,NA,NA,NA,NA,NA,NA,NA,NA,NA,NA,NA,NA,NA,NA,NA,NA,NA,NA,NA,NA
"344","stim/objects/HouseObjects/garbagebin.png",306,77,299,0.9,"stim/43.jpeg",4,3,3,2,"HouseObjects",1,3,"left","left",0.516000271,1,1,1,0,NA,NA,NA,NA,NA,NA,NA,NA,NA,NA,NA,NA,NA,NA,NA,NA,NA,NA,NA,NA,NA,NA,NA,NA
"476","stim/objects/Instruments/flutetrans.png",307,77,300,0.9,"stim/34.jpeg",3,4,3,2,"Instruments",2,3,"right","right",0.684000015,1,1,1,0,NA,NA,NA,NA,NA,NA,NA,NA,NA,NA,NA,NA,NA,NA,NA,NA,NA,NA,NA,NA,NA,NA,NA,NA
"511","stim/objects/Instruments/gong.png",308,77,301,0.9,"stim/33.jpeg",3,3,3,2,"Instruments",2,2,"right","right",0.719000101,1,1,1,0,NA,NA,NA,NA,NA,NA,NA,NA,NA,NA,NA,NA,NA,NA,NA,NA,NA,NA,NA,NA,NA,NA,NA,NA
"550","stim/objects/Instruments/saxophone2.png",309,77,302,0.9,"stim/34.jpeg",3,4,3,1,"Instruments",2,2,"right","right",0.57400012,1,1,1,0,41,77,1,0.9,2,"stim/34.jpeg",3,4,"stim/34.jpeg",2,"left",1.731999874,3,1,3.00999999,4,2.381999969,41,1,0,0,0,0,0
"345","stim/objects/HouseObjects/garbagebin.png",310,77,303,0.9,"stim/42.jpeg",4,2,3,2,"HouseObjects",1,1,"left","left",0.701000214,1,1,1,0,NA,NA,NA,NA,NA,NA,NA,NA,NA,NA,NA,NA,NA,NA,NA,NA,NA,NA,NA,NA,NA,NA,NA,NA
"493","stim/objects/Instruments/frenchhorn.png",311,77,304,0.9,"stim/32.jpeg",3,2,3,2,"Instruments",2,4,"right","right",0.475000143,1,1,1,0,NA,NA,NA,NA,NA,NA,NA,NA,NA,NA,NA,NA,NA,NA,NA,NA,NA,NA,NA,NA,NA,NA,NA,NA
"512","stim/objects/Instruments/gong.png",312,77,305,0.9,"stim/31.jpeg",3,1,3,2,"Instruments",2,3,"right","right",0.625000238,1,1,1,0,NA,NA,NA,NA,NA,NA,NA,NA,NA,NA,NA,NA,NA,NA,NA,NA,NA,NA,NA,NA,NA,NA,NA,NA
"413","stim/objects/Instruments/balalaika.png",313,77,306,0.5,"stim/53.jpeg",5,3,1,2,"Instruments",2,4,"right","left",0.606000185,0,0,1,0,NA,NA,NA,NA,NA,NA,NA,NA,NA,NA,NA,NA,NA,NA,NA,NA,NA,NA,NA,NA,NA,NA,NA,NA
"496","stim/objects/Instruments/frenchhorn.png",314,77,307,0.9,"stim/31.jpeg",3,1,3,2,"Instruments",2,1,"right","right",0.586000204,1,1,1,0,NA,NA,NA,NA,NA,NA,NA,NA,NA,NA,NA,NA,NA,NA,NA,NA,NA,NA,NA,NA,NA,NA,NA,NA
"363","stim/objects/HouseObjects/glass.png",315,77,308,0.9,"stim/44.jpeg",4,4,3,2,"HouseObjects",1,3,"left","left",0.537000179,1,1,1,0,NA,NA,NA,NA,NA,NA,NA,NA,NA,NA,NA,NA,NA,NA,NA,NA,NA,NA,NA,NA,NA,NA,NA,NA
"329","stim/objects/HouseObjects/flyswatter.png",316,77,309,0.9,"stim/43.jpeg",4,3,3,2,"HouseObjects",1,4,"left","left",0.560000181,1,1,1,0,NA,NA,NA,NA,NA,NA,NA,NA,NA,NA,NA,NA,NA,NA,NA,NA,NA,NA,NA,NA,NA,NA,NA,NA
"379","stim/objects/HouseObjects/hairdryer2.png",317,77,310,0.1,"stim/33.jpeg",3,3,3,1,"HouseObjects",1,3,"left","right",0.600000143,0,0,1,0,1,77,1,0.1,1,"stim/33.jpeg",3,3,"stim/33.jpeg",3,"left",1.671000004,2,2,6.840999842,1,2.986999989,1,1,0,0,0,0,0
"560","stim/objects/Instruments/trombone2.png",318,77,311,0.1,"stim/43.jpeg",4,3,3,1,"Instruments",2,4,"right","left",0.674000263,0,0,1,0,153,77,1,0.1,2,"stim/43.jpeg",4,3,"stim/43.jpeg",4,"right",1.140999794,3,4,1.18599987,1,1.349999905,153,0,0,NA,0,NA,0
"564","stim/objects/Instruments/tuba2.png",319,77,312,0.1,"stim/41.jpeg",4,1,3,1,"Instruments",2,3,"right","left",0.583000183,0,0,1,0,71,77,1,0.1,2,"stim/41.jpeg",4,1,"stim/41.jpeg",3,"left",2.94900012,3,3,7.086999893,4,1.992999792,71,1,0,0,0,0,0
"542","stim/objects/Instruments/guitarcase2.png",320,77,313,0.9,"stim/34.jpeg",3,4,3,1,"Instruments",2,4,"right","right",0.752000093,1,1,1,0,12,77,1,0.9,2,"stim/34.jpeg",3,4,"stim/34.jpeg",4,"left",0.98300004,4,3,6.133000135,3,2.207999945,12,1,0,0,0,0,0
"463","stim/objects/Instruments/flute.png",321,77,314,0.9,"stim/34.jpeg",3,4,3,2,"Instruments",2,2,"right","right",0.535000086,1,1,1,0,NA,NA,NA,NA,NA,NA,NA,NA,NA,NA,NA,NA,NA,NA,NA,NA,NA,NA,NA,NA,NA,NA,NA,NA
"270","stim/objects/HouseObjects/clock2.png",322,77,315,0.7,"stim/24.jpeg",2,4,2,1,"HouseObjects",1,3,"left","left",0.506999969,1,1,1,0,94,77,1,0.7,1,"stim/24.jpeg",2,4,"stim/24.jpeg",3,"left",3.144000053,3,3,4.412999868,3,0.838999987,94,1,0,0,1,1,0
"477","stim/objects/Instruments/flutetrans.png",323,77,316,0.9,"stim/34.jpeg",3,4,3,2,"Instruments",2,3,"right","right",0.579000235,1,1,1,0,NA,NA,NA,NA,NA,NA,NA,NA,NA,NA,NA,NA,NA,NA,NA,NA,NA,NA,NA,NA,NA,NA,NA,NA
"346","stim/objects/HouseObjects/garbagebin.png",324,77,317,0.9,"stim/44.jpeg",4,4,3,2,"HouseObjects",1,3,"left","left",0.553000212,1,1,1,0,NA,NA,NA,NA,NA,NA,NA,NA,NA,NA,NA,NA,NA,NA,NA,NA,NA,NA,NA,NA,NA,NA,NA,NA
"554","stim/objects/Instruments/tambourine2.png",325,77,318,0.1,"stim/44.jpeg",4,4,3,1,"Instruments",2,4,"right","left",0.588000298,0,0,1,0,157,77,1,0.1,2,"stim/44.jpeg",4,4,"stim/44.jpeg",4,"right",0.514999866,4,4,13.83399987,2,1.286000013,157,0,1,NA,0,NA,0
"497","stim/objects/Instruments/frenchhorn.png",326,77,319,0.9,"stim/31.jpeg",3,1,3,2,"Instruments",2,2,"right","right",0.562000275,1,1,1,0,NA,NA,NA,NA,NA,NA,NA,NA,NA,NA,NA,NA,NA,NA,NA,NA,NA,NA,NA,NA,NA,NA,NA,NA
"561","stim/objects/Instruments/trumpet.png",327,77,320,0.7,"stim/12.jpeg",1,2,2,1,"Instruments",2,4,"right","right",0.521000147,1,1,1,0,18,77,1,0.7,2,"stim/12.jpeg",1,2,"stim/12.jpeg",4,"left",1.005999804,4,2,5.298000097,3,3.05099988,18,1,1,1,0,0,0
"432","stim/objects/Instruments/clarinet2.png",328,77,321,0.3,"stim/21.jpeg",2,1,2,1,"Instruments",2,1,"right","right",0.747000217,1,1,1,0,187,77,1,0.3,2,"stim/21.jpeg",2,1,"stim/21.jpeg",1,"left",1.285999775,4,2,4.88499999,1,0.787999868,187,1,0,0,1,1,0
"377","stim/objects/HouseObjects/glassmop2.png",329,77,322,0.1,"stim/32.jpeg",3,2,3,1,"HouseObjects",1,3,"left","right",0.677000046,0,0,1,0,22,77,1,0.1,1,"stim/32.jpeg",3,2,"stim/32.jpeg",3,"right",0.88499999,4,1,3.477999926,3,1.038999796,22,0,0,NA,1,NA,0
"286","stim/objects/HouseObjects/cushion2.png",330,77,323,0.7,"stim/24.jpeg",2,4,2,1,"HouseObjects",1,4,"left","right",0.636000156,0,0,1,0,89,77,1,0.7,1,"stim/24.jpeg",2,4,"stim/24.jpeg",4,"left",1.515000105,4,4,1.232999802,3,3.06799984,89,1,1,1,0,0,0
"388","stim/objects/HouseObjects/scale.png",331,77,324,0.5,"stim/62.jpeg",6,2,1,1,"HouseObjects",1,2,"left","right",0.664000273,0,0,1,0,137,77,1,0.5,2,"stim/62.jpeg",6,2,"stim/62.jpeg",2,"right",0.612999916,2,3,1.825999975,4,1.268999815,137,0,0,NA,0,NA,0
"287","stim/objects/HouseObjects/dishsoap.png",332,77,325,0.7,"stim/22.jpeg",2,2,2,2,"HouseObjects",1,2,"left","",NA,0,0,1,0,NA,NA,NA,NA,NA,NA,NA,NA,NA,NA,NA,NA,NA,NA,NA,NA,NA,NA,NA,NA,NA,NA,NA,NA
"275","stim/objects/HouseObjects/clothespin.png",333,77,326,0.7,"stim/23.jpeg",2,3,2,2,"HouseObjects",1,2,"left","left",0.437000275,1,1,1,0,NA,NA,NA,NA,NA,NA,NA,NA,NA,NA,NA,NA,NA,NA,NA,NA,NA,NA,NA,NA,NA,NA,NA,NA
"424","stim/objects/Instruments/cello.png",334,77,327,0.5,"stim/63.jpeg",6,3,1,2,"Instruments",2,1,"right","right",0.569000006,1,1,1,0,NA,NA,NA,NA,NA,NA,NA,NA,NA,NA,NA,NA,NA,NA,NA,NA,NA,NA,NA,NA,NA,NA,NA,NA
"313","stim/objects/HouseObjects/dustpan.png",335,77,328,0.9,"stim/42.jpeg",4,2,3,2,"HouseObjects",1,4,"left","left",0.634000063,1,1,1,0,NA,NA,NA,NA,NA,NA,NA,NA,NA,NA,NA,NA,NA,NA,NA,NA,NA,NA,NA,NA,NA,NA,NA,NA
"498","stim/objects/Instruments/frenchhorn.png",336,77,329,0.9,"stim/31.jpeg",3,1,3,2,"Instruments",2,1,"right","right",0.644000053,1,1,1,0,NA,NA,NA,NA,NA,NA,NA,NA,NA,NA,NA,NA,NA,NA,NA,NA,NA,NA,NA,NA,NA,NA,NA,NA
"444","stim/objects/Instruments/drums.png",337,77,330,0.7,"stim/13.jpeg",1,3,2,2,"Instruments",2,2,"right","right",0.694000244,1,1,1,0,NA,NA,NA,NA,NA,NA,NA,NA,NA,NA,NA,NA,NA,NA,NA,NA,NA,NA,NA,NA,NA,NA,NA,NA
"425","stim/objects/Instruments/cello.png",338,77,331,0.5,"stim/64.jpeg",6,4,1,2,"Instruments",2,4,"right","right",0.542000294,1,1,1,0,NA,NA,NA,NA,NA,NA,NA,NA,NA,NA,NA,NA,NA,NA,NA,NA,NA,NA,NA,NA,NA,NA,NA,NA
"390","stim/objects/HouseObjects/sponge.png",339,77,332,0.5,"stim/63.jpeg",6,3,1,1,"HouseObjects",1,1,"left","right",0.577000141,0,0,1,0,4,77,1,0.5,2,"stim/63.jpeg",6,3,"stim/63.jpeg",1,"left",2.057999849,4,1,4.930999756,1,1.380999804,4,1,0,0,1,1,0
"553","stim/objects/Instruments/tambourine.png",340,77,333,0.5,"stim/61.jpeg",6,1,1,1,"Instruments",2,2,"right","right",0.447000027,1,1,1,0,85,77,1,0.5,2,"stim/61.jpeg",6,1,"stim/61.jpeg",2,"right",1.417999983,3,2,1.67599988,3,0.980000019,85,0,0,NA,0,NA,0
"423","stim/objects/Instruments/bassguitar2.png",341,77,334,0.3,"stim/22.jpeg",2,2,2,1,"Instruments",2,4,"right","left",0.675000191,0,0,1,0,200,77,1,0.3,2,"stim/22.jpeg",2,2,"stim/22.jpeg",4,"right",0.660999775,3,2,3.023999929,3,1.646999836,200,0,1,NA,0,NA,0
"513","stim/objects/Instruments/gong.png",342,77,335,0.9,"stim/32.jpeg",3,2,3,2,"Instruments",2,4,"right","right",0.495000124,1,1,1,0,NA,NA,NA,NA,NA,NA,NA,NA,NA,NA,NA,NA,NA,NA,NA,NA,NA,NA,NA,NA,NA,NA,NA,NA
"283","stim/objects/HouseObjects/cushion.png",343,77,336,0.7,"stim/24.jpeg",2,4,2,2,"HouseObjects",1,1,"left","left",0.564000368,1,1,1,0,NA,NA,NA,NA,NA,NA,NA,NA,NA,NA,NA,NA,NA,NA,NA,NA,NA,NA,NA,NA,NA,NA,NA,NA
"331","stim/objects/HouseObjects/flyswatter.png",344,77,337,0.9,"stim/44.jpeg",4,4,3,2,"HouseObjects",1,2,"left","right",0.736000299,0,0,1,0,NA,NA,NA,NA,NA,NA,NA,NA,NA,NA,NA,NA,NA,NA,NA,NA,NA,NA,NA,NA,NA,NA,NA,NA
"298","stim/objects/HouseObjects/doormat.png",345,77,338,0.9,"stim/42.jpeg",4,2,3,2,"HouseObjects",1,1,"left","left",0.635000229,1,1,1,0,NA,NA,NA,NA,NA,NA,NA,NA,NA,NA,NA,NA,NA,NA,NA,NA,NA,NA,NA,NA,NA,NA,NA,NA
"314","stim/objects/HouseObjects/dustpan.png",346,77,339,0.9,"stim/43.jpeg",4,3,3,2,"HouseObjects",1,4,"left","left",0.701000214,1,1,1,0,NA,NA,NA,NA,NA,NA,NA,NA,NA,NA,NA,NA,NA,NA,NA,NA,NA,NA,NA,NA,NA,NA,NA,NA
"247","stim/objects/HouseObjects/barbecuelighter.png",347,77,340,0.5,"stim/53.jpeg",5,3,1,2,"HouseObjects",1,1,"left","left",0.65500021,1,1,1,0,NA,NA,NA,NA,NA,NA,NA,NA,NA,NA,NA,NA,NA,NA,NA,NA,NA,NA,NA,NA,NA,NA,NA,NA
"284","stim/objects/HouseObjects/cushion.png",348,77,341,0.7,"stim/21.jpeg",2,1,2,2,"HouseObjects",1,2,"left","right",0.783000231,0,0,1,0,NA,NA,NA,NA,NA,NA,NA,NA,NA,NA,NA,NA,NA,NA,NA,NA,NA,NA,NA,NA,NA,NA,NA,NA
"349","stim/objects/HouseObjects/garbagebin.png",349,77,342,0.9,"stim/41.jpeg",4,1,3,2,"HouseObjects",1,3,"left","left",0.588000059,1,1,1,0,NA,NA,NA,NA,NA,NA,NA,NA,NA,NA,NA,NA,NA,NA,NA,NA,NA,NA,NA,NA,NA,NA,NA,NA
"428","stim/objects/Instruments/chime.png",350,77,343,0.5,"stim/61.jpeg",6,1,1,2,"Instruments",2,3,"right","left",0.501000166,0,0,1,0,NA,NA,NA,NA,NA,NA,NA,NA,NA,NA,NA,NA,NA,NA,NA,NA,NA,NA,NA,NA,NA,NA,NA,NA
"394","stim/objects/HouseObjects/teapot.png",351,77,344,0.5,"stim/61.jpeg",6,1,1,1,"HouseObjects",1,1,"left","right",0.618000269,0,0,1,0,3,77,1,0.5,2,"stim/61.jpeg",6,1,"stim/61.jpeg",1,"left",1.396000147,4,3,4.193000078,3,2.589999914,3,1,0,0,0,0,0
"514","stim/objects/Instruments/gong.png",352,77,345,0.9,"stim/32.jpeg",3,2,3,2,"Instruments",2,3,"right","right",0.61400032,1,1,1,0,NA,NA,NA,NA,NA,NA,NA,NA,NA,NA,NA,NA,NA,NA,NA,NA,NA,NA,NA,NA,NA,NA,NA,NA
"452","stim/objects/Instruments/electricguitar.png",353,77,346,0.7,"stim/14.jpeg",1,4,2,2,"Instruments",2,4,"right","right",0.714000225,1,1,1,0,NA,NA,NA,NA,NA,NA,NA,NA,NA,NA,NA,NA,NA,NA,NA,NA,NA,NA,NA,NA,NA,NA,NA,NA
"288","stim/objects/HouseObjects/dishsoap.png",354,77,347,0.7,"stim/23.jpeg",2,3,2,2,"HouseObjects",1,1,"left","left",0.713000059,1,1,1,0,NA,NA,NA,NA,NA,NA,NA,NA,NA,NA,NA,NA,NA,NA,NA,NA,NA,NA,NA,NA,NA,NA,NA,NA
"546","stim/objects/Instruments/harp2.png",355,77,348,0.9,"stim/32.jpeg",3,2,3,1,"Instruments",2,1,"right","",NA,0,0,1,0,81,77,1,0.9,2,"stim/32.jpeg",3,2,"stim/32.jpeg",1,"right",0.790999889,4,3,4.947000027,4,4.364999771,81,0,0,NA,0,NA,0
"545","stim/objects/Instruments/harp.png",356,77,349,0.5,"stim/54.jpeg",5,4,1,1,"Instruments",2,4,"right","right",0.583000183,1,1,1,0,62,77,1,0.5,1,"stim/54.jpeg",5,4,"stim/54.jpeg",4,"left",1.243000031,3,1,2.180999756,4,2.161000013,62,1,0,0,1,1,0
"462","stim/objects/Instruments/flute.png",357,77,350,0.9,"stim/32.jpeg",3,2,3,2,"Instruments",2,4,"right","right",0.586000204,1,1,1,0,NA,NA,NA,NA,NA,NA,NA,NA,NA,NA,NA,NA,NA,NA,NA,NA,NA,NA,NA,NA,NA,NA,NA,NA
"401","stim/objects/HouseObjects/towel2.png",358,77,351,0.9,"stim/44.jpeg",4,4,3,1,"HouseObjects",1,3,"left","left",0.573000193,1,1,1,0,156,77,1,0.9,1,"stim/44.jpeg",4,4,"stim/44.jpeg",3,"right",0.846999884,4,3,1.967999935,3,1.059999943,156,0,0,NA,1,NA,0
"324","stim/objects/HouseObjects/dustpan2.png",359,77,352,0.1,"stim/32.jpeg",3,2,3,1,"HouseObjects",1,2,"left","right",0.759000063,0,0,1,0,101,77,1,0.1,1,"stim/32.jpeg",3,2,"stim/32.jpeg",2,"right",0.855999947,4,1,2.84800005,3,1.167999983,101,0,0,NA,0,NA,0
"531","stim/objects/Instruments/grandpiano.png",360,77,353,0.9,"stim/34.jpeg",3,4,3,2,"Instruments",2,4,"right","right",0.775000095,1,1,1,0,NA,NA,NA,NA,NA,NA,NA,NA,NA,NA,NA,NA,NA,NA,NA,NA,NA,NA,NA,NA,NA,NA,NA,NA
"366","stim/objects/HouseObjects/glass.png",361,77,354,0.9,"stim/42.jpeg",4,2,3,2,"HouseObjects",1,4,"left","left",0.651000023,1,1,1,0,NA,NA,NA,NA,NA,NA,NA,NA,NA,NA,NA,NA,NA,NA,NA,NA,NA,NA,NA,NA,NA,NA,NA,NA
"478","stim/objects/Instruments/flutetrans.png",362,77,355,0.9,"stim/32.jpeg",3,2,3,2,"Instruments",2,1,"right","right",0.677000284,1,1,1,0,NA,NA,NA,NA,NA,NA,NA,NA,NA,NA,NA,NA,NA,NA,NA,NA,NA,NA,NA,NA,NA,NA,NA,NA
"544","stim/objects/Instruments/harmonica2.png",363,77,356,0.9,"stim/31.jpeg",3,1,3,1,"Instruments",2,1,"right","right",0.632000208,1,1,1,0,121,77,1,0.9,2,"stim/31.jpeg",3,1,"stim/31.jpeg",1,"right",2.003000021,3,3,5.410999775,4,3.115999937,121,0,0,NA,0,NA,0
"383","stim/objects/HouseObjects/handvacuum2.png",364,77,357,0.1,"stim/31.jpeg",3,1,3,1,"HouseObjects",1,2,"left","right",0.690000296,0,0,1,0,130,77,1,0.1,1,"stim/31.jpeg",3,1,"stim/31.jpeg",2,"right",1.868999958,3,4,1.299000025,3,0.984999895,130,0,0,NA,0,NA,0
"451","stim/objects/Instruments/electricdrumset2.png",365,77,358,0.3,"stim/22.jpeg",2,2,2,1,"Instruments",2,2,"right","",NA,0,0,1,0,175,77,1,0.3,2,"stim/22.jpeg",2,2,"stim/22.jpeg",2,"left",3.827000141,4,3,6.905999899,4,1.082999945,175,1,0,0,0,0,0
"248","stim/objects/HouseObjects/barbecuelighter.png",366,77,359,0.5,"stim/54.jpeg",5,4,1,2,"HouseObjects",1,2,"left","right",0.49000001,0,0,1,0,NA,NA,NA,NA,NA,NA,NA,NA,NA,NA,NA,NA,NA,NA,NA,NA,NA,NA,NA,NA,NA,NA,NA,NA
"420","stim/objects/Instruments/bassdrum2.png",367,77,360,0.7,"stim/13.jpeg",1,3,2,1,"Instruments",2,1,"right","right",0.601999998,1,1,1,0,111,77,1,0.7,2,"stim/13.jpeg",1,3,"stim/13.jpeg",1,"right",0.713999987,4,4,2.667000055,1,0.740999937,111,0,0,NA,1,NA,0
"500","stim/objects/Instruments/frenchhorn.png",368,77,361,0.9,"stim/32.jpeg",3,2,3,2,"Instruments",2,2,"right","left",0.515000105,0,0,1,0,NA,NA,NA,NA,NA,NA,NA,NA,NA,NA,NA,NA,NA,NA,NA,NA,NA,NA,NA,NA,NA,NA,NA,NA
"515","stim/objects/Instruments/gong.png",369,77,362,0.9,"stim/32.jpeg",3,2,3,2,"Instruments",2,1,"right","right",0.512000322,1,1,1,0,NA,NA,NA,NA,NA,NA,NA,NA,NA,NA,NA,NA,NA,NA,NA,NA,NA,NA,NA,NA,NA,NA,NA,NA
"402","stim/objects/HouseObjects/vacuumcleaner.png",370,77,363,0.3,"stim/14.jpeg",1,4,2,1,"HouseObjects",1,1,"left","right",0.511000156,0,0,1,0,147,77,1,0.3,1,"stim/14.jpeg",1,4,"stim/14.jpeg",1,"right",0.707000017,3,4,1.124999762,2,1.230999947,147,0,1,NA,0,NA,0
"430","stim/objects/Instruments/clarinet.png",371,77,364,0.5,"stim/61.jpeg",6,1,1,2,"Instruments",2,4,"right","right",0.550000191,1,1,1,0,NA,NA,NA,NA,NA,NA,NA,NA,NA,NA,NA,NA,NA,NA,NA,NA,NA,NA,NA,NA,NA,NA,NA,NA
"308","stim/objects/HouseObjects/dustpan.png",372,77,365,0.9,"stim/44.jpeg",4,4,3,2,"HouseObjects",1,1,"left","left",0.5400002,1,1,1,0,NA,NA,NA,NA,NA,NA,NA,NA,NA,NA,NA,NA,NA,NA,NA,NA,NA,NA,NA,NA,NA,NA,NA,NA
"516","stim/objects/Instruments/gong.png",373,77,366,0.9,"stim/34.jpeg",3,4,3,2,"Instruments",2,4,"right","right",0.559000254,1,1,1,0,NA,NA,NA,NA,NA,NA,NA,NA,NA,NA,NA,NA,NA,NA,NA,NA,NA,NA,NA,NA,NA,NA,NA,NA
"281","stim/objects/HouseObjects/coffee.png",374,77,367,0.7,"stim/24.jpeg",2,4,2,2,"HouseObjects",1,4,"left","left",0.582000256,1,1,1,0,NA,NA,NA,NA,NA,NA,NA,NA,NA,NA,NA,NA,NA,NA,NA,NA,NA,NA,NA,NA,NA,NA,NA,NA
"464","stim/objects/Instruments/flute.png",375,77,368,0.9,"stim/33.jpeg",3,3,3,2,"Instruments",2,1,"right","right",0.430000067,1,1,1,0,NA,NA,NA,NA,NA,NA,NA,NA,NA,NA,NA,NA,NA,NA,NA,NA,NA,NA,NA,NA,NA,NA,NA,NA
"315","stim/objects/HouseObjects/dustpan.png",376,77,369,0.9,"stim/44.jpeg",4,4,3,2,"HouseObjects",1,3,"left","left",0.566000223,1,1,1,0,NA,NA,NA,NA,NA,NA,NA,NA,NA,NA,NA,NA,NA,NA,NA,NA,NA,NA,NA,NA,NA,NA,NA,NA
"480","stim/objects/Instruments/flutetrans.png",377,77,370,0.9,"stim/31.jpeg",3,1,3,2,"Instruments",2,3,"right","left",0.48300004,0,0,1,0,NA,NA,NA,NA,NA,NA,NA,NA,NA,NA,NA,NA,NA,NA,NA,NA,NA,NA,NA,NA,NA,NA,NA,NA
"242","stim/objects/HouseObjects/ashtray.png",378,77,371,0.5,"stim/52.jpeg",5,2,1,2,"HouseObjects",1,3,"left","left",0.712000132,1,1,1,0,NA,NA,NA,NA,NA,NA,NA,NA,NA,NA,NA,NA,NA,NA,NA,NA,NA,NA,NA,NA,NA,NA,NA,NA
"565","stim/objects/Instruments/violin.png",379,77,372,0.7,"stim/14.jpeg",1,4,2,1,"Instruments",2,2,"right","right",0.610000134,1,1,1,0,141,77,1,0.7,2,"stim/14.jpeg",1,4,"stim/14.jpeg",2,"left",2.744999886,2,3,2.359999895,2,1.628000021,141,1,0,0,1,1,0
"279","stim/objects/HouseObjects/coffee.png",380,77,373,0.7,"stim/23.jpeg",2,3,2,2,"HouseObjects",1,3,"left","left",0.572000265,1,1,1,0,NA,NA,NA,NA,NA,NA,NA,NA,NA,NA,NA,NA,NA,NA,NA,NA,NA,NA,NA,NA,NA,NA,NA,NA
"549","stim/objects/Instruments/saxophone.png",381,77,374,0.5,"stim/52.jpeg",5,2,1,1,"Instruments",2,2,"right","right",0.533000231,1,1,1,0,56,77,1,0.5,1,"stim/52.jpeg",5,2,"stim/52.jpeg",2,"left",0.901000023,3,4,9.787999868,4,3.417999983,56,1,0,0,0,0,0
"397","stim/objects/HouseObjects/thermometer2.png",382,77,375,0.9,"stim/42.jpeg",4,2,3,1,"HouseObjects",1,1,"left","left",0.776000261,1,1,1,0,110,77,1,0.9,1,"stim/42.jpeg",4,2,"stim/42.jpeg",1,"right",0.61500001,4,1,1.265999794,1,1.344000101,110,0,0,NA,1,NA,0
"567","stim/objects/Instruments/vuvuzela.png",383,77,376,0.7,"stim/11.jpeg",1,1,2,1,"Instruments",2,2,"right","right",0.571000099,1,1,1,0,189,77,1,0.7,2,"stim/11.jpeg",1,1,"stim/11.jpeg",2,"right",1.022000074,4,3,3.791000128,3,2.118000031,189,0,0,NA,0,NA,0
"482","stim/objects/Instruments/flutetrans.png",384,77,377,0.9,"stim/33.jpeg",3,3,3,2,"Instruments",2,3,"right","left",0.651000261,0,0,1,0,NA,NA,NA,NA,NA,NA,NA,NA,NA,NA,NA,NA,NA,NA,NA,NA,NA,NA,NA,NA,NA,NA,NA,NA
"243","stim/objects/HouseObjects/ashtray2.png",385,77,378,0.3,"stim/12.jpeg",1,2,2,1,"HouseObjects",1,2,"left","left",0.745000124,1,1,1,0,58,77,1,0.3,1,"stim/12.jpeg",1,2,"stim/12.jpeg",2,"left",1.217999935,4,1,2.954999924,3,2.786999941,58,1,0,0,0,0,0
"299","stim/objects/HouseObjects/doormat.png",386,77,379,0.9,"stim/42.jpeg",4,2,3,2,"HouseObjects",1,4,"left","right",0.518000126,0,0,1,0,NA,NA,NA,NA,NA,NA,NA,NA,NA,NA,NA,NA,NA,NA,NA,NA,NA,NA,NA,NA,NA,NA,NA,NA
"291","stim/objects/HouseObjects/doormat.png",387,77,380,0.9,"stim/41.jpeg",4,1,3,2,"HouseObjects",1,2,"left","left",0.591000319,1,1,1,0,NA,NA,NA,NA,NA,NA,NA,NA,NA,NA,NA,NA,NA,NA,NA,NA,NA,NA,NA,NA,NA,NA,NA,NA
"326","stim/objects/HouseObjects/flyswatter.png",388,77,381,0.9,"stim/41.jpeg",4,1,3,2,"HouseObjects",1,1,"left","left",0.521000147,1,1,1,0,NA,NA,NA,NA,NA,NA,NA,NA,NA,NA,NA,NA,NA,NA,NA,NA,NA,NA,NA,NA,NA,NA,NA,NA
"300","stim/objects/HouseObjects/doormat.png",389,77,382,0.9,"stim/44.jpeg",4,4,3,2,"HouseObjects",1,1,"left","left",0.493000031,1,1,1,0,NA,NA,NA,NA,NA,NA,NA,NA,NA,NA,NA,NA,NA,NA,NA,NA,NA,NA,NA,NA,NA,NA,NA,NA
"318","stim/objects/HouseObjects/dustpan.png",390,77,383,0.9,"stim/41.jpeg",4,1,3,2,"HouseObjects",1,2,"left","left",0.599000216,1,1,1,0,NA,NA,NA,NA,NA,NA,NA,NA,NA,NA,NA,NA,NA,NA,NA,NA,NA,NA,NA,NA,NA,NA,NA,NA
"492","stim/objects/Instruments/frenchhorn.png",391,77,384,0.9,"stim/33.jpeg",3,3,3,2,"Instruments",2,1,"right","left",0.435000181,0,0,1,0,NA,NA,NA,NA,NA,NA,NA,NA,NA,NA,NA,NA,NA,NA,NA,NA,NA,NA,NA,NA,NA,NA,NA,NA
"375","stim/objects/HouseObjects/glass2.png",392,77,385,0.1,"stim/31.jpeg",3,1,3,1,"HouseObjects",1,1,"left","right",0.569000006,0,0,1,0,197,77,1,0.1,1,"stim/31.jpeg",3,1,"stim/31.jpeg",1,"left",1.446999788,4,2,2.532999992,3,0.85199976,197,1,0,0,0,0,0
"368","stim/objects/HouseObjects/glass.png",393,77,386,0.9,"stim/44.jpeg",4,4,3,2,"HouseObjects",1,2,"left","left",0.584000111,1,1,1,0,NA,NA,NA,NA,NA,NA,NA,NA,NA,NA,NA,NA,NA,NA,NA,NA,NA,NA,NA,NA,NA,NA,NA,NA
"533","stim/objects/Instruments/grandpiano.png",394,77,387,0.9,"stim/32.jpeg",3,2,3,2,"Instruments",2,2,"right","right",0.618000269,1,1,1,0,NA,NA,NA,NA,NA,NA,NA,NA,NA,NA,NA,NA,NA,NA,NA,NA,NA,NA,NA,NA,NA,NA,NA,NA
"335","stim/objects/HouseObjects/flyswatter.png",395,77,388,0.9,"stim/42.jpeg",4,2,3,2,"HouseObjects",1,3,"left","left",0.528000116,1,1,1,0,NA,NA,NA,NA,NA,NA,NA,NA,NA,NA,NA,NA,NA,NA,NA,NA,NA,NA,NA,NA,NA,NA,NA,NA
"555","stim/objects/Instruments/timbal.png",396,77,389,0.5,"stim/62.jpeg",6,2,1,1,"Instruments",2,4,"right","right",0.417999983,1,1,1,0,9,77,1,0.5,2,"stim/62.jpeg",6,2,"stim/62.jpeg",4,"right",1.894999981,3,2,13.50699997,3,2.674999714,9,0,1,NA,0,NA,0
"454","stim/objects/Instruments/electricguitar.png",397,77,390,0.7,"stim/13.jpeg",1,3,2,2,"Instruments",2,2,"right","left",0.629000187,0,0,1,0,NA,NA,NA,NA,NA,NA,NA,NA,NA,NA,NA,NA,NA,NA,NA,NA,NA,NA,NA,NA,NA,NA,NA,NA
"332","stim/objects/HouseObjects/flyswatter.png",398,77,391,0.9,"stim/43.jpeg",4,3,3,2,"HouseObjects",1,4,"left","left",0.656000137,1,1,1,0,NA,NA,NA,NA,NA,NA,NA,NA,NA,NA,NA,NA,NA,NA,NA,NA,NA,NA,NA,NA,NA,NA,NA,NA
"458","stim/objects/Instruments/flute.png",399,77,392,0.9,"stim/32.jpeg",3,2,3,2,"Instruments",2,2,"right","right",0.652000189,1,1,1,0,NA,NA,NA,NA,NA,NA,NA,NA,NA,NA,NA,NA,NA,NA,NA,NA,NA,NA,NA,NA,NA,NA,NA,NA
"483","stim/objects/Instruments/flutetrans.png",400,77,393,0.9,"stim/34.jpeg",3,4,3,2,"Instruments",2,4,"right","right",0.517000198,1,1,1,0,NA,NA,NA,NA,NA,NA,NA,NA,NA,NA,NA,NA,NA,NA,NA,NA,NA,NA,NA,NA,NA,NA,NA,NA
"268","stim/objects/HouseObjects/clock.png",401,77,394,0.5,"stim/64.jpeg",6,4,1,2,"HouseObjects",1,1,"left","right",0.720000029,0,0,1,0,NA,NA,NA,NA,NA,NA,NA,NA,NA,NA,NA,NA,NA,NA,NA,NA,NA,NA,NA,NA,NA,NA,NA,NA
"269","stim/objects/HouseObjects/clock.png",402,77,395,0.5,"stim/63.jpeg",6,3,1,2,"HouseObjects",1,4,"left","right",0.824000359,0,0,1,0,NA,NA,NA,NA,NA,NA,NA,NA,NA,NA,NA,NA,NA,NA,NA,NA,NA,NA,NA,NA,NA,NA,NA,NA
"258","stim/objects/HouseObjects/blender2.png",403,77,396,0.7,"stim/24.jpeg",2,4,2,1,"HouseObjects",1,3,"left","left",0.526000261,1,1,1,0,84,77,1,0.7,1,"stim/24.jpeg",2,4,"stim/24.jpeg",3,"right",1.134000063,3,2,1.718999863,3,1.623999834,84,0,0,NA,1,NA,0
"264","stim/objects/HouseObjects/broom2.png",404,77,397,0.7,"stim/22.jpeg",2,2,2,1,"HouseObjects",1,4,"left","right",0.764000177,0,0,1,0,54,77,1,0.7,1,"stim/22.jpeg",2,2,"stim/22.jpeg",4,"right",1.093999863,3,4,3.70299983,3,1.258999825,54,0,0,NA,0,NA,0
"499","stim/objects/Instruments/frenchhorn.png",405,77,398,0.9,"stim/34.jpeg",3,4,3,2,"Instruments",2,1,"right","right",0.858000278,1,1,1,0,NA,NA,NA,NA,NA,NA,NA,NA,NA,NA,NA,NA,NA,NA,NA,NA,NA,NA,NA,NA,NA,NA,NA,NA
"380","stim/objects/HouseObjects/handbrush.png",406,77,399,0.5,"stim/51.jpeg",5,1,1,1,"HouseObjects",1,1,"left","",NA,0,0,1,0,15,77,1,0.5,1,"stim/51.jpeg",5,1,"stim/51.jpeg",1,"right",1.274999857,2,4,13.30299997,4,5.421999931,15,0,0,NA,0,NA,0
"562","stim/objects/Instruments/trumpet2.png",407,77,400,0.1,"stim/44.jpeg",4,4,3,1,"Instruments",2,1,"right","left",0.5400002,0,0,1,0,25,77,1,0.1,2,"stim/44.jpeg",4,4,"stim/44.jpeg",1,"right",5.125,2,4,4.193000078,1,3.815999746,25,0,1,NA,1,NA,0
"484","stim/objects/Instruments/flutetrans.png",408,77,401,0.9,"stim/31.jpeg",3,1,3,2,"Instruments",2,3,"right","right",0.691000223,1,1,1,0,NA,NA,NA,NA,NA,NA,NA,NA,NA,NA,NA,NA,NA,NA,NA,NA,NA,NA,NA,NA,NA,NA,NA,NA
"319","stim/objects/HouseObjects/dustpan.png",409,77,402,0.9,"stim/41.jpeg",4,1,3,2,"HouseObjects",1,2,"left","left",0.53000021,1,1,1,0,NA,NA,NA,NA,NA,NA,NA,NA,NA,NA,NA,NA,NA,NA,NA,NA,NA,NA,NA,NA,NA,NA,NA,NA
"352","stim/objects/HouseObjects/garbagebin.png",410,77,403,0.9,"stim/43.jpeg",4,3,3,2,"HouseObjects",1,2,"left","left",0.414999962,1,1,1,0,NA,NA,NA,NA,NA,NA,NA,NA,NA,NA,NA,NA,NA,NA,NA,NA,NA,NA,NA,NA,NA,NA,NA,NA
"528","stim/objects/Instruments/grandpiano.png",411,77,404,0.9,"stim/34.jpeg",3,4,3,2,"Instruments",2,4,"right","right",0.585000038,1,1,1,0,NA,NA,NA,NA,NA,NA,NA,NA,NA,NA,NA,NA,NA,NA,NA,NA,NA,NA,NA,NA,NA,NA,NA,NA
"570","stim/objects/Instruments/xylophone2.png",412,77,405,0.1,"stim/44.jpeg",4,4,3,1,"Instruments",2,2,"right","left",0.593000174,0,0,1,0,27,77,1,0.1,2,"stim/44.jpeg",4,4,"stim/44.jpeg",2,"right",1.578000069,1,2,4.883999825,3,1.039999962,27,0,0,NA,0,NA,0
"244","stim/objects/HouseObjects/ballofstring.png",413,77,406,0.5,"stim/52.jpeg",5,2,1,2,"HouseObjects",1,2,"left","",NA,0,0,1,0,NA,NA,NA,NA,NA,NA,NA,NA,NA,NA,NA,NA,NA,NA,NA,NA,NA,NA,NA,NA,NA,NA,NA,NA
"529","stim/objects/Instruments/grandpiano.png",414,77,407,0.9,"stim/32.jpeg",3,2,3,2,"Instruments",2,1,"right","right",0.831000328,1,1,1,0,NA,NA,NA,NA,NA,NA,NA,NA,NA,NA,NA,NA,NA,NA,NA,NA,NA,NA,NA,NA,NA,NA,NA,NA
"536","stim/objects/Instruments/grandpiano.png",415,77,408,0.9,"stim/34.jpeg",3,4,3,2,"Instruments",2,1,"right","right",0.580000162,1,1,1,0,NA,NA,NA,NA,NA,NA,NA,NA,NA,NA,NA,NA,NA,NA,NA,NA,NA,NA,NA,NA,NA,NA,NA,NA
"389","stim/objects/HouseObjects/scale2.png",416,77,409,0.9,"stim/42.jpeg",4,2,3,1,"HouseObjects",1,4,"left","left",0.58100009,1,1,1,0,162,77,1,0.9,1,"stim/42.jpeg",4,2,"stim/42.jpeg",4,"right",0.877000093,1,3,5.05099988,3,0.761999846,162,0,0,NA,0,NA,0
"521","stim/objects/Instruments/gong.png",417,77,410,0.9,"stim/31.jpeg",3,1,3,2,"Instruments",2,4,"right","right",0.65500021,1,1,1,0,NA,NA,NA,NA,NA,NA,NA,NA,NA,NA,NA,NA,NA,NA,NA,NA,NA,NA,NA,NA,NA,NA,NA,NA
"474","stim/objects/Instruments/flutetrans.png",418,77,411,0.9,"stim/33.jpeg",3,3,3,2,"Instruments",2,2,"right","left",0.484000206,0,0,1,0,NA,NA,NA,NA,NA,NA,NA,NA,NA,NA,NA,NA,NA,NA,NA,NA,NA,NA,NA,NA,NA,NA,NA,NA
"262","stim/objects/HouseObjects/broom.png",419,77,412,0.5,"stim/61.jpeg",6,1,1,2,"HouseObjects",1,3,"left","right",0.559000015,0,0,1,0,NA,NA,NA,NA,NA,NA,NA,NA,NA,NA,NA,NA,NA,NA,NA,NA,NA,NA,NA,NA,NA,NA,NA,NA
"510","stim/objects/Instruments/gong.png",420,77,413,0.9,"stim/34.jpeg",3,4,3,2,"Instruments",2,3,"right","right",0.536000252,1,1,1,0,NA,NA,NA,NA,NA,NA,NA,NA,NA,NA,NA,NA,NA,NA,NA,NA,NA,NA,NA,NA,NA,NA,NA,NA
"399","stim/objects/HouseObjects/thread2.png",421,77,414,0.9,"stim/43.jpeg",4,3,3,1,"HouseObjects",1,3,"left","left",0.548000097,1,1,1,0,13,77,1,0.9,1,"stim/43.jpeg",4,3,"stim/43.jpeg",3,"left",1.499999762,4,2,2.811999798,2,4.077000141,13,1,0,0,0,0,0
"501","stim/objects/Instruments/frenchhorn.png",422,77,415,0.9,"stim/32.jpeg",3,2,3,2,"Instruments",2,2,"right","right",0.485000134,1,1,1,0,NA,NA,NA,NA,NA,NA,NA,NA,NA,NA,NA,NA,NA,NA,NA,NA,NA,NA,NA,NA,NA,NA,NA,NA
"408","stim/objects/Instruments/accordion2.png",423,77,416,0.7,"stim/13.jpeg",1,3,2,1,"Instruments",2,2,"right","right",0.592000246,1,1,1,0,155,77,1,0.7,2,"stim/13.jpeg",1,3,"stim/13.jpeg",2,"left",1.812000036,3,4,1.178999901,2,3.762000084,155,1,0,0,1,1,0
"436","stim/objects/Instruments/cymbal.png",424,77,417,0.7,"stim/13.jpeg",1,3,2,2,"Instruments",2,2,"right","right",0.67200017,1,1,1,0,NA,NA,NA,NA,NA,NA,NA,NA,NA,NA,NA,NA,NA,NA,NA,NA,NA,NA,NA,NA,NA,NA,NA,NA
"558","stim/objects/Instruments/triangle2.png",425,77,418,0.1,"stim/42.jpeg",4,2,3,1,"Instruments",2,1,"right","left",0.500000238,0,0,1,0,161,77,1,0.1,2,"stim/42.jpeg",4,2,"stim/42.jpeg",1,"left",6.752000093,3,1,1.48300004,1,5.680999756,161,1,0,0,1,1,0
"302","stim/objects/HouseObjects/doormat.png",426,77,419,0.9,"stim/43.jpeg",4,3,3,2,"HouseObjects",1,4,"left","right",0.51699996,0,0,1,0,NA,NA,NA,NA,NA,NA,NA,NA,NA,NA,NA,NA,NA,NA,NA,NA,NA,NA,NA,NA,NA,NA,NA,NA
"265","stim/objects/HouseObjects/bucket.png",427,77,420,0.5,"stim/62.jpeg",6,2,1,2,"HouseObjects",1,4,"left","right",0.57400012,0,0,1,0,NA,NA,NA,NA,NA,NA,NA,NA,NA,NA,NA,NA,NA,NA,NA,NA,NA,NA,NA,NA,NA,NA,NA,NA
"489","stim/objects/Instruments/flutetrans2.png",428,77,421,0.9,"stim/34.jpeg",3,4,3,1,"Instruments",2,4,"right","right",0.634000301,1,1,1,0,39,77,1,0.9,2,"stim/34.jpeg",3,4,"stim/34.jpeg",4,"left",5.460999966,3,2,1.694999933,2,3.809000015,39,1,0,0,0,0,0
"442","stim/objects/Instruments/doublebass.png",429,77,422,0.7,"stim/11.jpeg",1,1,2,2,"Instruments",2,1,"right","",NA,0,0,1,0,NA,NA,NA,NA,NA,NA,NA,NA,NA,NA,NA,NA,NA,NA,NA,NA,NA,NA,NA,NA,NA,NA,NA,NA
"461","stim/objects/Instruments/flute.png",430,77,423,0.9,"stim/34.jpeg",3,4,3,2,"Instruments",2,1,"right","right",0.673000097,1,1,1,0,NA,NA,NA,NA,NA,NA,NA,NA,NA,NA,NA,NA,NA,NA,NA,NA,NA,NA,NA,NA,NA,NA,NA,NA
"534","stim/objects/Instruments/grandpiano.png",431,77,424,0.9,"stim/33.jpeg",3,3,3,2,"Instruments",2,4,"right","right",0.427000046,1,1,1,0,NA,NA,NA,NA,NA,NA,NA,NA,NA,NA,NA,NA,NA,NA,NA,NA,NA,NA,NA,NA,NA,NA,NA,NA
"271","stim/objects/HouseObjects/clothesdryingrack.png",432,77,425,0.7,"stim/23.jpeg",2,3,2,2,"HouseObjects",1,4,"left","right",0.44900012,0,0,1,0,NA,NA,NA,NA,NA,NA,NA,NA,NA,NA,NA,NA,NA,NA,NA,NA,NA,NA,NA,NA,NA,NA,NA,NA
"289","stim/objects/HouseObjects/dishsoap.png",433,77,426,0.7,"stim/21.jpeg",2,1,2,2,"HouseObjects",1,3,"left","left",0.526000023,1,1,1,0,NA,NA,NA,NA,NA,NA,NA,NA,NA,NA,NA,NA,NA,NA,NA,NA,NA,NA,NA,NA,NA,NA,NA,NA
"503","stim/objects/Instruments/frenchhorn.png",434,77,427,0.9,"stim/34.jpeg",3,4,3,2,"Instruments",2,1,"right","right",0.597000122,1,1,1,0,NA,NA,NA,NA,NA,NA,NA,NA,NA,NA,NA,NA,NA,NA,NA,NA,NA,NA,NA,NA,NA,NA,NA,NA
"466","stim/objects/Instruments/flute.png",435,77,428,0.9,"stim/31.jpeg",3,1,3,2,"Instruments",2,4,"right","right",0.371000051,1,1,1,0,NA,NA,NA,NA,NA,NA,NA,NA,NA,NA,NA,NA,NA,NA,NA,NA,NA,NA,NA,NA,NA,NA,NA,NA
"272","stim/objects/HouseObjects/clothesdryingrack.png",436,77,429,0.7,"stim/21.jpeg",2,1,2,2,"HouseObjects",1,1,"left","right",0.673000097,0,0,1,0,NA,NA,NA,NA,NA,NA,NA,NA,NA,NA,NA,NA,NA,NA,NA,NA,NA,NA,NA,NA,NA,NA,NA,NA
"358","stim/objects/HouseObjects/garbagebin2.png",437,77,430,0.1,"stim/34.jpeg",3,4,3,1,"HouseObjects",1,4,"left","right",0.487000227,0,0,1,0,90,77,1,0.1,1,"stim/34.jpeg",3,4,"stim/34.jpeg",4,"right",1.085999966,3,2,2.413999796,3,1.835999727,90,0,0,NA,0,NA,0
"472","stim/objects/Instruments/flute2.png",438,77,431,0.9,"stim/33.jpeg",3,3,3,1,"Instruments",2,4,"right","right",0.710000038,1,1,1,0,182,77,1,0.9,2,"stim/33.jpeg",3,3,"stim/33.jpeg",4,"left",4.099999905,2,3,2.992999792,4,1.370000124,182,1,1,1,1,1,0
"384","stim/objects/HouseObjects/safetypin.png",439,77,432,0.5,"stim/53.jpeg",5,3,1,1,"HouseObjects",1,3,"left","left",0.541000128,1,1,1,0,176,77,1,0.5,1,"stim/53.jpeg",5,3,"stim/53.jpeg",3,"left",1.569999933,4,1,4.641000032,3,2.289000034,176,1,0,0,1,1,0
"427","stim/objects/Instruments/chime.png",440,77,433,0.5,"stim/64.jpeg",6,4,1,2,"Instruments",2,1,"right","right",0.559000254,1,1,1,0,NA,NA,NA,NA,NA,NA,NA,NA,NA,NA,NA,NA,NA,NA,NA,NA,NA,NA,NA,NA,NA,NA,NA,NA
"330","stim/objects/HouseObjects/flyswatter.png",441,77,434,0.9,"stim/43.jpeg",4,3,3,2,"HouseObjects",1,1,"left","left",0.511000156,1,1,1,0,NA,NA,NA,NA,NA,NA,NA,NA,NA,NA,NA,NA,NA,NA,NA,NA,NA,NA,NA,NA,NA,NA,NA,NA
"322","stim/objects/HouseObjects/dustpan.png",442,77,435,0.9,"stim/41.jpeg",4,1,3,2,"HouseObjects",1,2,"left","left",0.626000166,1,1,1,0,NA,NA,NA,NA,NA,NA,NA,NA,NA,NA,NA,NA,NA,NA,NA,NA,NA,NA,NA,NA,NA,NA,NA,NA
"434","stim/objects/Instruments/cornet.png",443,77,436,0.5,"stim/63.jpeg",6,3,1,2,"Instruments",2,1,"right","right",0.560000181,1,1,1,0,NA,NA,NA,NA,NA,NA,NA,NA,NA,NA,NA,NA,NA,NA,NA,NA,NA,NA,NA,NA,NA,NA,NA,NA
"518","stim/objects/Instruments/gong.png",444,77,437,0.9,"stim/33.jpeg",3,3,3,2,"Instruments",2,2,"right","left",0.569000006,0,0,1,0,NA,NA,NA,NA,NA,NA,NA,NA,NA,NA,NA,NA,NA,NA,NA,NA,NA,NA,NA,NA,NA,NA,NA,NA
"502","stim/objects/Instruments/frenchhorn.png",445,77,438,0.9,"stim/33.jpeg",3,3,3,2,"Instruments",2,3,"right","left",0.504000187,0,0,1,0,NA,NA,NA,NA,NA,NA,NA,NA,NA,NA,NA,NA,NA,NA,NA,NA,NA,NA,NA,NA,NA,NA,NA,NA
"343","stim/objects/HouseObjects/garbagebin.png",446,77,439,0.9,"stim/44.jpeg",4,4,3,2,"HouseObjects",1,1,"left","left",0.640000105,1,1,1,0,NA,NA,NA,NA,NA,NA,NA,NA,NA,NA,NA,NA,NA,NA,NA,NA,NA,NA,NA,NA,NA,NA,NA,NA
"266","stim/objects/HouseObjects/bucket.png",447,77,440,0.5,"stim/63.jpeg",6,3,1,2,"HouseObjects",1,2,"left","right",0.576000214,0,0,1,0,NA,NA,NA,NA,NA,NA,NA,NA,NA,NA,NA,NA,NA,NA,NA,NA,NA,NA,NA,NA,NA,NA,NA,NA
"448","stim/objects/Instruments/electricdrumset.png",448,77,441,0.7,"stim/14.jpeg",1,4,2,2,"Instruments",2,2,"right","right",0.677000284,1,1,1,0,NA,NA,NA,NA,NA,NA,NA,NA,NA,NA,NA,NA,NA,NA,NA,NA,NA,NA,NA,NA,NA,NA,NA,NA
"347","stim/objects/HouseObjects/garbagebin.png",449,77,442,0.9,"stim/42.jpeg",4,2,3,2,"HouseObjects",1,3,"left","left",0.559000015,1,1,1,0,NA,NA,NA,NA,NA,NA,NA,NA,NA,NA,NA,NA,NA,NA,NA,NA,NA,NA,NA,NA,NA,NA,NA,NA
"411","stim/objects/Instruments/acousticguitar2.png",450,77,443,0.7,"stim/14.jpeg",1,4,2,1,"Instruments",2,4,"right","right",0.634000063,1,1,1,0,192,77,1,0.7,2,"stim/14.jpeg",1,4,"stim/14.jpeg",4,"right",0.734999895,3,3,3.682999849,3,0.81099987,192,0,0,NA,0,NA,0
"312","stim/objects/HouseObjects/dustpan.png",451,77,444,0.9,"stim/44.jpeg",4,4,3,2,"HouseObjects",1,3,"left","left",0.603000164,1,1,1,0,NA,NA,NA,NA,NA,NA,NA,NA,NA,NA,NA,NA,NA,NA,NA,NA,NA,NA,NA,NA,NA,NA,NA,NA
"395","stim/objects/HouseObjects/teapot2.png",452,77,445,0.9,"stim/41.jpeg",4,1,3,1,"HouseObjects",1,4,"left","left",0.574000359,1,1,1,0,122,77,1,0.9,1,"stim/41.jpeg",4,1,"stim/41.jpeg",4,"right",1.78399992,3,2,2.197999954,2,3.592999935,122,0,0,NA,0,NA,0
"437","stim/objects/Instruments/cymbal.png",453,77,446,0.7,"stim/14.jpeg",1,4,2,2,"Instruments",2,2,"right","right",0.63100028,1,1,1,0,NA,NA,NA,NA,NA,NA,NA,NA,NA,NA,NA,NA,NA,NA,NA,NA,NA,NA,NA,NA,NA,NA,NA,NA
"486","stim/objects/Instruments/flutetrans.png",454,77,447,0.9,"stim/31.jpeg",3,1,3,2,"Instruments",2,1,"right","right",0.622000217,1,1,1,0,NA,NA,NA,NA,NA,NA,NA,NA,NA,NA,NA,NA,NA,NA,NA,NA,NA,NA,NA,NA,NA,NA,NA,NA
"538","stim/objects/Instruments/grandpiano.png",455,77,448,0.9,"stim/31.jpeg",3,1,3,2,"Instruments",2,4,"right","right",0.542000055,1,1,1,0,NA,NA,NA,NA,NA,NA,NA,NA,NA,NA,NA,NA,NA,NA,NA,NA,NA,NA,NA,NA,NA,NA,NA,NA
"336","stim/objects/HouseObjects/flyswatter.png",456,77,449,0.9,"stim/42.jpeg",4,2,3,2,"HouseObjects",1,1,"left","right",0.571000099,0,0,1,0,NA,NA,NA,NA,NA,NA,NA,NA,NA,NA,NA,NA,NA,NA,NA,NA,NA,NA,NA,NA,NA,NA,NA,NA
"372","stim/objects/HouseObjects/glass.png",457,77,450,0.9,"stim/42.jpeg",4,2,3,2,"HouseObjects",1,2,"left","left",0.703000069,1,1,1,0,NA,NA,NA,NA,NA,NA,NA,NA,NA,NA,NA,NA,NA,NA,NA,NA,NA,NA,NA,NA,NA,NA,NA,NA
"320","stim/objects/HouseObjects/dustpan.png",458,77,451,0.9,"stim/43.jpeg",4,3,3,2,"HouseObjects",1,2,"left","left",0.526000261,1,1,1,0,NA,NA,NA,NA,NA,NA,NA,NA,NA,NA,NA,NA,NA,NA,NA,NA,NA,NA,NA,NA,NA,NA,NA,NA
"481","stim/objects/Instruments/flutetrans.png",459,77,452,0.9,"stim/32.jpeg",3,2,3,2,"Instruments",2,4,"right","right",0.476999998,1,1,1,0,NA,NA,NA,NA,NA,NA,NA,NA,NA,NA,NA,NA,NA,NA,NA,NA,NA,NA,NA,NA,NA,NA,NA,NA
"255","stim/objects/HouseObjects/bleachbottle2.png",460,77,453,0.3,"stim/12.jpeg",1,2,2,1,"HouseObjects",1,4,"left","right",0.857000113,0,0,1,0,180,77,1,0.3,1,"stim/12.jpeg",1,2,"stim/12.jpeg",4,"right",0.504999876,4,3,3.22699976,1,1.585999727,180,0,0,NA,0,NA,0
"297","stim/objects/HouseObjects/doormat.png",461,77,454,0.9,"stim/41.jpeg",4,1,3,2,"HouseObjects",1,4,"left","left",0.619000196,1,1,1,0,NA,NA,NA,NA,NA,NA,NA,NA,NA,NA,NA,NA,NA,NA,NA,NA,NA,NA,NA,NA,NA,NA,NA,NA
"245","stim/objects/HouseObjects/ballofstring.png",462,77,455,0.5,"stim/53.jpeg",5,3,1,2,"HouseObjects",1,3,"left","left",0.693000317,1,1,1,0,NA,NA,NA,NA,NA,NA,NA,NA,NA,NA,NA,NA,NA,NA,NA,NA,NA,NA,NA,NA,NA,NA,NA,NA
"392","stim/objects/HouseObjects/spraybottle.png",463,77,456,0.5,"stim/64.jpeg",6,4,1,1,"HouseObjects",1,3,"left","right",0.653000116,0,0,1,0,102,77,1,0.5,2,"stim/64.jpeg",6,4,"stim/64.jpeg",3,"right",0.809999704,4,3,6.315999985,1,1.475999832,102,0,0,NA,0,NA,0
"337","stim/objects/HouseObjects/flyswatter.png",464,77,457,0.9,"stim/41.jpeg",4,1,3,2,"HouseObjects",1,1,"left","left",0.694000006,1,1,1,0,NA,NA,NA,NA,NA,NA,NA,NA,NA,NA,NA,NA,NA,NA,NA,NA,NA,NA,NA,NA,NA,NA,NA,NA
"407","stim/objects/Instruments/accordion.png",465,77,458,0.5,"stim/54.jpeg",5,4,1,2,"Instruments",2,4,"right","left",0.625000238,0,0,1,0,NA,NA,NA,NA,NA,NA,NA,NA,NA,NA,NA,NA,NA,NA,NA,NA,NA,NA,NA,NA,NA,NA,NA,NA
"438","stim/objects/Instruments/cymbal.png",466,77,459,0.7,"stim/11.jpeg",1,1,2,2,"Instruments",2,4,"right","right",0.691000223,1,1,1,0,NA,NA,NA,NA,NA,NA,NA,NA,NA,NA,NA,NA,NA,NA,NA,NA,NA,NA,NA,NA,NA,NA,NA,NA
"305","stim/objects/HouseObjects/doormat.png",467,77,460,0.9,"stim/43.jpeg",4,3,3,2,"HouseObjects",1,3,"left","left",0.517000198,1,1,1,0,NA,NA,NA,NA,NA,NA,NA,NA,NA,NA,NA,NA,NA,NA,NA,NA,NA,NA,NA,NA,NA,NA,NA,NA
"386","stim/objects/HouseObjects/saw.png",468,77,461,0.5,"stim/61.jpeg",6,1,1,1,"HouseObjects",1,2,"left","right",0.625000238,0,0,1,0,79,77,1,0.5,2,"stim/61.jpeg",6,1,"stim/61.jpeg",2,"right",1.127999783,3,2,3.063999891,3,2.16899991,79,0,0,NA,0,NA,0
