"","X","participant","trialN","trial_cond","scn_file","scn_cat","scn_inst","scn_condition","fillers","obj_cat","obj_cat_num","obj_file","quadrant","corr_ans","key_resp_trial.keys","key_resp_trial.rt","trial_acc","trial_acc_manual","group"
"1",248,1,241,0.9,"stim/14.jpeg",1,4,3,2,"HouseObjects",2,"stim/objects/HouseObjects/lintroller3.png",4,"right","",NA,0,0,1
"2",249,1,242,0.9,"stim/11.jpeg",1,1,3,2,"HouseObjects",2,"stim/objects/HouseObjects/knife3.png",1,"right","right",0.525000095,1,1,1
"3",250,1,243,0.1,"stim/24.jpeg",2,4,3,1,"HouseObjects",2,"stim/objects/HouseObjects/wateringcan4.png",2,"right","left",0.572999954,0,0,1
"4",251,1,244,0.5,"stim/42.jpeg",4,2,1,1,"HouseObjects",2,"stim/objects/HouseObjects/sponge3.png",1,"right","left",0.704999924,0,0,1
"5",252,1,245,0.9,"stim/22.jpeg",2,2,3,1,"Instruments",1,"stim/objects/Instruments/trumpet4.png",1,"left","left",0.673000097,1,1,1
"6",253,1,246,0.9,"stim/21.jpeg",2,1,3,2,"Instruments",1,"stim/objects/Instruments/metronome3.png",1,"left","left",0.742000103,1,1,1
"7",254,1,247,0.9,"stim/12.jpeg",1,2,3,1,"HouseObjects",2,"stim/objects/HouseObjects/pan4.png",4,"right","right",0.56400013,1,1,1
"8",255,1,248,0.5,"stim/44.jpeg",4,4,1,1,"HouseObjects",2,"stim/objects/HouseObjects/teapot3.png",2,"right","right",0.593000174,1,1,1
"9",256,1,249,0.9,"stim/14.jpeg",1,4,3,2,"HouseObjects",2,"stim/objects/HouseObjects/match3.png",3,"right","right",0.617000103,1,1,1
"10",257,1,250,0.5,"stim/32.jpeg",3,2,1,1,"Instruments",1,"stim/objects/Instruments/record_player3.png",3,"left","left",0.681000233,1,1,1
"11",258,1,251,0.7,"stim/52.jpeg",5,2,2,2,"HouseObjects",2,"stim/objects/HouseObjects/iron3.png",4,"right","right",0.522000074,1,1,1
"12",259,1,252,0.9,"stim/11.jpeg",1,1,3,2,"HouseObjects",2,"stim/objects/HouseObjects/pitcher3.png",1,"right","right",0.483000278,1,1,1
"13",260,1,253,0.1,"stim/21.jpeg",2,1,3,1,"HouseObjects",2,"stim/objects/HouseObjects/sponge4.png",1,"right","left",0.615999937,0,0,1
"14",261,1,254,0.9,"stim/24.jpeg",2,4,3,2,"Instruments",1,"stim/objects/Instruments/metronome3.png",3,"left","left",0.447000027,1,1,1
"15",262,1,255,0.9,"stim/24.jpeg",2,4,3,2,"Instruments",1,"stim/objects/Instruments/marimba3.png",1,"left","left",0.609000206,1,1,1
"16",263,1,256,0.5,"stim/32.jpeg",3,2,1,1,"HouseObjects",2,"stim/objects/HouseObjects/recyclingbin3.png",3,"right","left",0.622999907,0,0,1
"17",264,1,257,0.9,"stim/12.jpeg",1,2,3,2,"HouseObjects",2,"stim/objects/HouseObjects/pan3.png",3,"right","right",0.626000166,1,1,1
"18",265,1,258,0.3,"stim/62.jpeg",6,2,2,1,"HouseObjects",2,"stim/objects/HouseObjects/ironingboard4.png",2,"right","right",0.770999908,1,1,1
"19",266,1,259,0.7,"stim/63.jpeg",6,3,2,2,"Instruments",1,"stim/objects/Instruments/maraca3.png",3,"left","left",0.656000137,1,1,1
"20",267,1,260,0.9,"stim/22.jpeg",2,2,3,2,"Instruments",1,"stim/objects/Instruments/musicsheet3.png",4,"left","left",0.599000216,1,1,1
"21",268,1,261,0.5,"stim/34.jpeg",3,4,1,2,"HouseObjects",2,"stim/objects/HouseObjects/bleachbottle3.png",1,"right","right",0.535000086,1,1,1
"22",269,1,262,0.9,"stim/13.jpeg",1,3,3,1,"HouseObjects",2,"stim/objects/HouseObjects/pitcher4.png",3,"right","",NA,0,0,1
"23",270,1,263,0.9,"stim/12.jpeg",1,2,3,2,"HouseObjects",2,"stim/objects/HouseObjects/lintroller3.png",3,"right","right",0.746999979,1,1,1
"24",271,1,264,0.3,"stim/51.jpeg",5,1,2,1,"Instruments",1,"stim/objects/Instruments/xylophone3.png",4,"left","right",0.482000113,0,0,1
"25",272,1,265,0.9,"stim/12.jpeg",1,2,3,2,"HouseObjects",2,"stim/objects/HouseObjects/pitcher3.png",3,"right","right",0.516000271,1,1,1
"26",273,1,266,0.1,"stim/12.jpeg",1,2,3,1,"Instruments",1,"stim/objects/Instruments/saxophone4.png",4,"left","right",0.604000092,0,0,1
"27",274,1,267,0.9,"stim/23.jpeg",2,3,3,2,"Instruments",1,"stim/objects/Instruments/metronome3.png",4,"left","left",0.827000141,1,1,1
"28",275,1,268,0.1,"stim/12.jpeg",1,2,3,1,"Instruments",1,"stim/objects/Instruments/metronome4.png",4,"left","right",0.592999935,0,0,1
"29",276,1,269,0.9,"stim/12.jpeg",1,2,3,1,"HouseObjects",2,"stim/objects/HouseObjects/rubbergloves4.png",3,"right","right",0.602000237,1,1,1
"30",277,1,270,0.5,"stim/41.jpeg",4,1,1,2,"Instruments",1,"stim/objects/Instruments/cello3.png",3,"left","left",0.782000065,1,1,1
"31",278,1,271,0.9,"stim/22.jpeg",2,2,3,2,"Instruments",1,"stim/objects/Instruments/musicstand3.png",3,"left","left",0.654999971,1,1,1
"32",279,1,272,0.5,"stim/44.jpeg",4,4,1,2,"Instruments",1,"stim/objects/Instruments/bassguitar3.png",2,"left","left",0.635999918,1,1,1
"33",280,1,273,0.9,"stim/21.jpeg",2,1,3,2,"Instruments",1,"stim/objects/Instruments/metronome3.png",3,"left","left",0.57400012,1,1,1
"34",281,1,274,0.9,"stim/24.jpeg",2,4,3,1,"Instruments",1,"stim/objects/Instruments/violin4.png",4,"left","right",0.544000149,0,0,1
"35",282,1,275,0.9,"stim/21.jpeg",2,1,3,1,"Instruments",1,"stim/objects/Instruments/trombone4.png",2,"left","left",0.715000153,1,1,1
"36",283,1,276,0.1,"stim/14.jpeg",1,4,3,1,"Instruments",1,"stim/objects/Instruments/record4.png",1,"left","right",0.59100008,0,0,1
"37",284,1,277,0.9,"stim/11.jpeg",1,1,3,2,"HouseObjects",2,"stim/objects/HouseObjects/knife3.png",3,"right","",NA,0,0,1
"38",285,1,278,0.7,"stim/64.jpeg",6,4,2,1,"Instruments",1,"stim/objects/Instruments/laud4.png",2,"left","left",0.578000307,1,1,1
"39",286,1,279,0.7,"stim/53.jpeg",5,3,2,2,"HouseObjects",2,"stim/objects/HouseObjects/clothesdryingrack3.png",1,"right","right",0.496999979,1,1,1
"40",287,1,280,0.9,"stim/11.jpeg",1,1,3,2,"HouseObjects",2,"stim/objects/HouseObjects/match3.png",2,"right","right",0.463000059,1,1,1
"41",288,1,281,0.9,"stim/11.jpeg",1,1,3,1,"HouseObjects",2,"stim/objects/HouseObjects/match4.png",4,"right","right",0.403000116,1,1,1
"42",289,1,282,0.1,"stim/22.jpeg",2,2,3,1,"HouseObjects",2,"stim/objects/HouseObjects/towel4.png",3,"right","left",0.584000111,0,0,1
"43",290,1,283,0.9,"stim/22.jpeg",2,2,3,2,"Instruments",1,"stim/objects/Instruments/musicsheet3.png",2,"left","right",0.531000137,0,0,1
"44",291,1,284,0.9,"stim/14.jpeg",1,4,3,2,"HouseObjects",2,"stim/objects/HouseObjects/lintroller3.png",1,"right","right",0.626000166,1,1,1
"45",292,1,285,0.7,"stim/51.jpeg",5,1,2,2,"HouseObjects",2,"stim/objects/HouseObjects/key3.png",1,"right","right",0.59100008,1,1,1
"46",293,1,286,0.9,"stim/13.jpeg",1,3,3,2,"HouseObjects",2,"stim/objects/HouseObjects/knife3.png",4,"right","right",0.486000299,1,1,1
"47",294,1,287,0.9,"stim/14.jpeg",1,4,3,2,"HouseObjects",2,"stim/objects/HouseObjects/lintroller3.png",3,"right","right",0.548000097,1,1,1
"48",295,1,288,0.7,"stim/51.jpeg",5,1,2,1,"HouseObjects",2,"stim/objects/HouseObjects/vacuumcleaner3.png",4,"right","right",0.444000006,1,1,1
"49",296,1,289,0.9,"stim/22.jpeg",2,2,3,2,"Instruments",1,"stim/objects/Instruments/musicstand3.png",1,"left","left",0.548000097,1,1,1
"50",297,1,290,0.9,"stim/22.jpeg",2,2,3,2,"Instruments",1,"stim/objects/Instruments/oboe3.png",1,"left","left",0.423000097,1,1,1
"51",298,1,291,0.7,"stim/61.jpeg",6,1,2,2,"Instruments",1,"stim/objects/Instruments/keyboard3.png",2,"left","left",0.535000086,1,1,1
"52",299,1,292,0.5,"stim/31.jpeg",3,1,1,2,"Instruments",1,"stim/objects/Instruments/bassdrum3.png",1,"left","right",0.588000059,0,0,1
"53",300,1,293,0.9,"stim/21.jpeg",2,1,3,2,"Instruments",1,"stim/objects/Instruments/marimba3.png",2,"left","left",0.562000036,1,1,1
"54",301,1,294,0.9,"stim/11.jpeg",1,1,3,2,"HouseObjects",2,"stim/objects/HouseObjects/pitcher3.png",4,"right","right",0.577000141,1,1,1
"55",302,1,295,0.7,"stim/53.jpeg",5,3,2,2,"HouseObjects",2,"stim/objects/HouseObjects/iron3.png",4,"right","right",0.470000029,1,1,1
"56",303,1,296,0.9,"stim/22.jpeg",2,2,3,1,"Instruments",1,"stim/objects/Instruments/xylophone4.png",4,"left","left",0.793000221,1,1,1
"57",304,1,297,0.1,"stim/12.jpeg",1,2,3,1,"Instruments",1,"stim/objects/Instruments/panflute4.png",1,"left","right",0.534000158,0,0,1
"58",305,1,298,0.9,"stim/11.jpeg",1,1,3,2,"HouseObjects",2,"stim/objects/HouseObjects/match3.png",1,"right","right",0.539000034,1,1,1
"59",306,1,299,0.9,"stim/11.jpeg",1,1,3,2,"HouseObjects",2,"stim/objects/HouseObjects/pan3.png",3,"right","right",0.534000158,1,1,1
"60",307,1,300,0.9,"stim/11.jpeg",1,1,3,2,"HouseObjects",2,"stim/objects/HouseObjects/knife3.png",2,"right","right",0.450999975,1,1,1
"61",308,1,301,0.5,"stim/42.jpeg",4,2,1,2,"HouseObjects",2,"stim/objects/HouseObjects/blender3.png",4,"right","right",0.493000031,1,1,1
"62",309,1,302,0.9,"stim/21.jpeg",2,1,3,2,"Instruments",1,"stim/objects/Instruments/musicsheet3.png",4,"left","left",0.552000046,1,1,1
"63",310,1,303,0.7,"stim/54.jpeg",5,4,2,2,"HouseObjects",2,"stim/objects/HouseObjects/ironingboard3.png",1,"right","right",0.619000196,1,1,1
"64",311,1,304,0.9,"stim/21.jpeg",2,1,3,2,"Instruments",1,"stim/objects/Instruments/musicsheet3.png",4,"left","right",0.567000151,0,0,1
"65",312,1,305,0.5,"stim/41.jpeg",4,1,1,1,"HouseObjects",2,"stim/objects/HouseObjects/scale3.png",3,"right","left",0.713999987,0,0,1
"66",313,1,306,0.9,"stim/23.jpeg",2,3,3,2,"Instruments",1,"stim/objects/Instruments/musicsheet3.png",4,"left","left",0.553000212,1,1,1
"67",314,1,307,0.9,"stim/13.jpeg",1,3,3,2,"HouseObjects",2,"stim/objects/HouseObjects/lintroller3.png",4,"right","right",0.59800005,1,1,1
"68",315,1,308,0.1,"stim/13.jpeg",1,3,3,1,"Instruments",1,"stim/objects/Instruments/musicsheet4.png",1,"left","right",0.548000097,0,0,1
"69",316,1,309,0.5,"stim/41.jpeg",4,1,1,2,"HouseObjects",2,"stim/objects/HouseObjects/bucket3.png",3,"right","left",0.631000042,0,0,1
"70",317,1,310,0.9,"stim/14.jpeg",1,4,3,2,"HouseObjects",2,"stim/objects/HouseObjects/match3.png",3,"right","right",0.568000078,1,1,1
"71",318,1,311,0.5,"stim/41.jpeg",4,1,1,2,"Instruments",1,"stim/objects/Instruments/chime3.png",1,"left","right",0.582000017,0,0,1
"72",319,1,312,0.5,"stim/31.jpeg",3,1,1,2,"Instruments",1,"stim/objects/Instruments/banjo3.png",3,"left","right",0.57400012,0,0,1
"73",320,1,313,0.9,"stim/13.jpeg",1,3,3,2,"HouseObjects",2,"stim/objects/HouseObjects/match3.png",3,"right","right",0.556000233,1,1,1
"74",321,1,314,0.5,"stim/32.jpeg",3,2,1,1,"HouseObjects",2,"stim/objects/HouseObjects/safetypin3.png",4,"right","right",0.669000149,1,1,1
"75",322,1,315,0.7,"stim/63.jpeg",6,3,2,1,"Instruments",1,"stim/objects/Instruments/clarinet4.png",3,"left","left",0.630000114,1,1,1
"76",323,1,316,0.7,"stim/61.jpeg",6,1,2,1,"Instruments",1,"stim/objects/Instruments/cello4.png",4,"left","left",0.546000004,1,1,1
"77",324,1,317,0.9,"stim/23.jpeg",2,3,3,1,"Instruments",1,"stim/objects/Instruments/tuba4.png",2,"left","left",0.584000111,1,1,1
"78",325,1,318,0.9,"stim/23.jpeg",2,3,3,2,"Instruments",1,"stim/objects/Instruments/musicstand3.png",2,"left","left",0.548000097,1,1,1
"79",326,1,319,0.9,"stim/12.jpeg",1,2,3,2,"HouseObjects",2,"stim/objects/HouseObjects/match3.png",4,"right","right",0.448000193,1,1,1
"80",327,1,320,0.9,"stim/23.jpeg",2,3,3,2,"Instruments",1,"stim/objects/Instruments/musicstand3.png",3,"left","left",0.570000172,1,1,1
"81",328,1,321,0.9,"stim/21.jpeg",2,1,3,2,"Instruments",1,"stim/objects/Instruments/marimba3.png",2,"left","left",0.469000101,1,1,1
"82",329,1,322,0.5,"stim/44.jpeg",4,4,1,2,"HouseObjects",2,"stim/objects/HouseObjects/bottle3.png",1,"right","right",0.594000101,1,1,1
"83",330,1,323,0.7,"stim/51.jpeg",5,1,2,2,"HouseObjects",2,"stim/objects/HouseObjects/iron3.png",1,"right","right",0.525000095,1,1,1
"84",331,1,324,0.3,"stim/63.jpeg",6,3,2,1,"HouseObjects",2,"stim/objects/HouseObjects/clothesdryingrack4.png",3,"right","left",0.629000187,0,0,1
"85",332,1,325,0.5,"stim/34.jpeg",3,4,1,2,"Instruments",1,"stim/objects/Instruments/balalaika3.png",4,"left","left",0.740999937,1,1,1
"86",333,1,326,0.9,"stim/12.jpeg",1,2,3,2,"HouseObjects",2,"stim/objects/HouseObjects/knife3.png",1,"right","right",0.536000013,1,1,1
"87",334,1,327,0.5,"stim/42.jpeg",4,2,1,2,"HouseObjects",2,"stim/objects/HouseObjects/bucket3.png",2,"right","left",0.542000055,0,0,1
"88",335,1,328,0.9,"stim/13.jpeg",1,3,3,2,"HouseObjects",2,"stim/objects/HouseObjects/pan3.png",4,"right","right",0.522000074,1,1,1
"89",336,1,329,0.5,"stim/34.jpeg",3,4,1,2,"HouseObjects",2,"stim/objects/HouseObjects/basket3.png",3,"right","left",0.690000057,0,0,1
"90",337,1,330,0.9,"stim/14.jpeg",1,4,3,2,"HouseObjects",2,"stim/objects/HouseObjects/knife3.png",2,"right","right",0.722000122,1,1,1
"91",338,1,331,0.5,"stim/41.jpeg",4,1,1,1,"Instruments",1,"stim/objects/Instruments/speaker3.png",4,"left","left",0.799999952,1,1,1
"92",339,1,332,0.9,"stim/24.jpeg",2,4,3,2,"Instruments",1,"stim/objects/Instruments/metronome3.png",1,"left","left",0.668000221,1,1,1
"93",340,1,333,0.7,"stim/62.jpeg",6,2,2,1,"Instruments",1,"stim/objects/Instruments/chime4.png",1,"left","left",0.6650002,1,1,1
"94",341,1,334,0.5,"stim/31.jpeg",3,1,1,1,"Instruments",1,"stim/objects/Instruments/record3.png",4,"left","right",0.63100028,0,0,1
"95",342,1,335,0.5,"stim/31.jpeg",3,1,1,2,"HouseObjects",2,"stim/objects/HouseObjects/ashtray3.png",2,"right","right",0.521000147,1,1,1
"96",343,1,336,0.3,"stim/54.jpeg",5,4,2,1,"Instruments",1,"stim/objects/Instruments/vuvuzela3.png",4,"left","",NA,0,0,1
"97",344,1,337,0.9,"stim/22.jpeg",2,2,3,2,"Instruments",1,"stim/objects/Instruments/marimba3.png",3,"left","",NA,0,0,1
"98",345,1,338,0.9,"stim/22.jpeg",2,2,3,2,"Instruments",1,"stim/objects/Instruments/metronome3.png",2,"left","left",0.545000076,1,1,1
"99",346,1,339,0.9,"stim/12.jpeg",1,2,3,2,"HouseObjects",2,"stim/objects/HouseObjects/pan3.png",2,"right","right",0.480999947,1,1,1
"100",347,1,340,0.9,"stim/21.jpeg",2,1,3,2,"Instruments",1,"stim/objects/Instruments/musicstand3.png",2,"left","left",0.595000029,1,1,1
"101",348,1,341,0.7,"stim/62.jpeg",6,2,2,2,"Instruments",1,"stim/objects/Instruments/maraca3.png",2,"left","left",0.54700017,1,1,1
"102",349,1,342,0.7,"stim/54.jpeg",5,4,2,1,"HouseObjects",2,"stim/objects/HouseObjects/towel3.png",3,"right","right",0.495000124,1,1,1
"103",350,1,343,0.5,"stim/32.jpeg",3,2,1,2,"HouseObjects",2,"stim/objects/HouseObjects/ballofstring3.png",2,"right","",NA,0,0,1
"104",351,1,344,0.7,"stim/54.jpeg",5,4,2,2,"HouseObjects",2,"stim/objects/HouseObjects/key3.png",3,"right","right",0.444000006,1,1,1
"105",352,1,345,0.7,"stim/52.jpeg",5,2,2,2,"HouseObjects",2,"stim/objects/HouseObjects/clothespin3.png",3,"right","right",0.553000212,1,1,1
"106",353,1,346,0.9,"stim/21.jpeg",2,1,3,2,"Instruments",1,"stim/objects/Instruments/musicsheet3.png",4,"left","left",0.57400012,1,1,1
"107",354,1,347,0.3,"stim/51.jpeg",5,1,2,1,"Instruments",1,"stim/objects/Instruments/trumpet3.png",1,"left","right",0.609000206,0,0,1
"108",355,1,348,0.9,"stim/24.jpeg",2,4,3,2,"Instruments",1,"stim/objects/Instruments/musicsheet3.png",2,"left","left",0.661000013,1,1,1
"109",356,1,349,0.7,"stim/61.jpeg",6,1,2,2,"Instruments",1,"stim/objects/Instruments/laud3.png",3,"left","left",0.603000164,1,1,1
"110",357,1,350,0.7,"stim/52.jpeg",5,2,2,1,"HouseObjects",2,"stim/objects/HouseObjects/thermometer3.png",3,"right","right",0.486000061,1,1,1
"111",358,1,351,0.7,"stim/61.jpeg",6,1,2,1,"Instruments",1,"stim/objects/Instruments/maraca4.png",2,"left","left",0.846000195,1,1,1
"112",359,1,352,0.5,"stim/33.jpeg",3,3,1,2,"HouseObjects",2,"stim/objects/HouseObjects/basket3.png",4,"right","right",0.478000164,1,1,1
"113",360,1,353,0.9,"stim/11.jpeg",1,1,3,2,"HouseObjects",2,"stim/objects/HouseObjects/lintroller3.png",1,"right","right",0.522000074,1,1,1
"114",361,1,354,0.3,"stim/54.jpeg",5,4,2,1,"Instruments",1,"stim/objects/Instruments/balalaika4.png",1,"left","right",0.478000164,0,0,1
"115",362,1,355,0.9,"stim/11.jpeg",1,1,3,2,"HouseObjects",2,"stim/objects/HouseObjects/pan3.png",3,"right","right",0.781000137,1,1,1
"116",363,1,356,0.9,"stim/22.jpeg",2,2,3,2,"Instruments",1,"stim/objects/Instruments/musicstand3.png",2,"left","left",0.637000084,1,1,1
"117",364,1,357,0.7,"stim/64.jpeg",6,4,2,2,"Instruments",1,"stim/objects/Instruments/keyboard3.png",3,"left","left",0.430999994,1,1,1
"118",365,1,358,0.9,"stim/14.jpeg",1,4,3,1,"HouseObjects",2,"stim/objects/HouseObjects/lintroller4.png",2,"right","right",0.629999876,1,1,1
"119",366,1,359,0.9,"stim/22.jpeg",2,2,3,2,"Instruments",1,"stim/objects/Instruments/metronome3.png",3,"left","left",0.522000074,1,1,1
"120",367,1,360,0.5,"stim/31.jpeg",3,1,1,2,"Instruments",1,"stim/objects/Instruments/accordion3.png",1,"left","right",0.577000141,0,0,1
"121",368,1,361,0.3,"stim/62.jpeg",6,2,2,1,"HouseObjects",2,"stim/objects/HouseObjects/clock4.png",4,"right","right",0.505000114,1,1,1
"122",369,1,362,0.9,"stim/13.jpeg",1,3,3,2,"HouseObjects",2,"stim/objects/HouseObjects/pan3.png",2,"right","right",0.6650002,1,1,1
"123",370,1,363,0.7,"stim/52.jpeg",5,2,2,1,"HouseObjects",2,"stim/objects/HouseObjects/wateringcan3.png",4,"right","right",0.567000151,1,1,1
"124",371,1,364,0.7,"stim/64.jpeg",6,4,2,2,"Instruments",1,"stim/objects/Instruments/laud3.png",1,"left","right",0.565000057,0,0,1
"125",372,1,365,0.9,"stim/11.jpeg",1,1,3,2,"HouseObjects",2,"stim/objects/HouseObjects/pitcher3.png",1,"right","",NA,0,0,1
"126",373,1,366,0.9,"stim/11.jpeg",1,1,3,2,"HouseObjects",2,"stim/objects/HouseObjects/pan3.png",2,"right","right",0.608000278,1,1,1
"127",374,1,367,0.9,"stim/24.jpeg",2,4,3,2,"Instruments",1,"stim/objects/Instruments/marimba3.png",4,"left","right",0.660000086,0,0,1
"128",375,1,368,0.9,"stim/13.jpeg",1,3,3,2,"HouseObjects",2,"stim/objects/HouseObjects/lintroller3.png",2,"right","right",0.515000105,1,1,1
"129",376,1,369,0.9,"stim/24.jpeg",2,4,3,2,"Instruments",1,"stim/objects/Instruments/marimba3.png",1,"left","left",0.453999996,1,1,1
"130",377,1,370,0.9,"stim/13.jpeg",1,3,3,1,"HouseObjects",2,"stim/objects/HouseObjects/knife4.png",1,"right","right",0.601000071,1,1,1
"131",378,1,371,0.9,"stim/11.jpeg",1,1,3,2,"HouseObjects",2,"stim/objects/HouseObjects/pitcher3.png",3,"right","right",0.724000216,1,1,1
"132",379,1,372,0.9,"stim/12.jpeg",1,2,3,2,"HouseObjects",2,"stim/objects/HouseObjects/pitcher3.png",3,"right","right",0.611000299,1,1,1
"133",380,1,373,0.9,"stim/24.jpeg",2,4,3,2,"Instruments",1,"stim/objects/Instruments/oboe3.png",3,"left","right",0.575000048,0,0,1
"134",381,1,374,0.9,"stim/21.jpeg",2,1,3,1,"Instruments",1,"stim/objects/Instruments/vuvuzela4.png",1,"left","",NA,0,0,1
"135",382,1,375,0.9,"stim/13.jpeg",1,3,3,2,"HouseObjects",2,"stim/objects/HouseObjects/pan3.png",1,"right","right",0.625000238,1,1,1
"136",383,1,376,0.9,"stim/23.jpeg",2,3,3,2,"Instruments",1,"stim/objects/Instruments/oboe3.png",2,"left","left",0.568000078,1,1,1
"137",384,1,377,0.9,"stim/21.jpeg",2,1,3,2,"Instruments",1,"stim/objects/Instruments/oboe3.png",4,"left","right",0.626000166,0,0,1
"138",385,1,378,0.9,"stim/13.jpeg",1,3,3,2,"HouseObjects",2,"stim/objects/HouseObjects/knife3.png",4,"right","right",0.498000145,1,1,1
"139",386,1,379,0.9,"stim/23.jpeg",2,3,3,2,"Instruments",1,"stim/objects/Instruments/metronome3.png",2,"left","left",0.555000067,1,1,1
"140",387,1,380,0.7,"stim/64.jpeg",6,4,2,1,"Instruments",1,"stim/objects/Instruments/cornet4.png",3,"left","left",0.487999916,1,1,1
"141",388,1,381,0.9,"stim/24.jpeg",2,4,3,2,"Instruments",1,"stim/objects/Instruments/musicsheet3.png",1,"left","right",0.624000072,0,0,1
"142",389,1,382,0.7,"stim/53.jpeg",5,3,2,1,"HouseObjects",2,"stim/objects/HouseObjects/ashtray4.png",2,"right","right",0.613000154,1,1,1
"143",390,1,383,0.1,"stim/23.jpeg",2,3,3,1,"HouseObjects",2,"stim/objects/HouseObjects/vacuumcleaner4.png",2,"right","left",0.553999901,0,0,1
"144",391,1,384,0.1,"stim/24.jpeg",2,4,3,1,"HouseObjects",2,"stim/objects/HouseObjects/scale4.png",1,"right","left",0.788000107,0,0,1
"145",392,1,385,0.5,"stim/43.jpeg",4,3,1,1,"Instruments",1,"stim/objects/Instruments/timbal3.png",1,"left","right",0.645000219,0,0,1
"146",393,1,386,0.7,"stim/62.jpeg",6,2,2,2,"Instruments",1,"stim/objects/Instruments/laud3.png",4,"left","right",0.681000233,0,0,1
"147",394,1,387,0.1,"stim/11.jpeg",1,1,3,1,"Instruments",1,"stim/objects/Instruments/marimba4.png",4,"left","right",0.524000168,0,0,1
"148",395,1,388,0.9,"stim/21.jpeg",2,1,3,2,"Instruments",1,"stim/objects/Instruments/musicsheet3.png",4,"left","left",0.609999895,1,1,1
"149",396,1,389,0.9,"stim/22.jpeg",2,2,3,1,"Instruments",1,"stim/objects/Instruments/tambourine4.png",2,"left","left",0.592000008,1,1,1
"150",397,1,390,0.9,"stim/22.jpeg",2,2,3,2,"Instruments",1,"stim/objects/Instruments/musicstand3.png",4,"left","",NA,0,0,1
"151",398,1,391,0.9,"stim/22.jpeg",2,2,3,2,"Instruments",1,"stim/objects/Instruments/marimba3.png",1,"left","left",0.392999887,1,1,1
"152",399,1,392,0.5,"stim/44.jpeg",4,4,1,1,"HouseObjects",2,"stim/objects/HouseObjects/saw3.png",2,"right","left",0.618000031,0,0,1
"153",400,1,393,0.9,"stim/23.jpeg",2,3,3,2,"Instruments",1,"stim/objects/Instruments/marimba3.png",4,"left","left",0.57400012,1,1,1
"154",401,1,394,0.9,"stim/13.jpeg",1,3,3,2,"HouseObjects",2,"stim/objects/HouseObjects/lintroller3.png",4,"right","right",0.525000095,1,1,1
"155",402,1,395,0.9,"stim/11.jpeg",1,1,3,1,"HouseObjects",2,"stim/objects/HouseObjects/remote4.png",1,"right","right",0.488000154,1,1,1
"156",403,1,396,0.9,"stim/14.jpeg",1,4,3,2,"HouseObjects",2,"stim/objects/HouseObjects/pan3.png",2,"right","right",0.519000053,1,1,1
"157",404,1,397,0.7,"stim/61.jpeg",6,1,2,2,"Instruments",1,"stim/objects/Instruments/maraca3.png",2,"left","right",0.583000183,0,0,1
"158",405,1,398,0.7,"stim/61.jpeg",6,1,2,2,"Instruments",1,"stim/objects/Instruments/cymbal3.png",2,"left","left",0.534000158,1,1,1
"159",406,1,399,0.7,"stim/54.jpeg",5,4,2,1,"HouseObjects",2,"stim/objects/HouseObjects/ballofstring4.png",3,"right","right",0.57400012,1,1,1
"160",407,1,400,0.9,"stim/13.jpeg",1,3,3,2,"HouseObjects",2,"stim/objects/HouseObjects/match3.png",2,"right","right",0.542999983,1,1,1
"161",408,1,401,0.9,"stim/11.jpeg",1,1,3,2,"HouseObjects",2,"stim/objects/HouseObjects/match3.png",2,"right","right",0.438999891,1,1,1
"162",409,1,402,0.9,"stim/23.jpeg",2,3,3,2,"Instruments",1,"stim/objects/Instruments/musicstand3.png",2,"left","left",0.498000145,1,1,1
"163",410,1,403,0.9,"stim/24.jpeg",2,4,3,2,"Instruments",1,"stim/objects/Instruments/musicstand3.png",4,"left","left",0.559000015,1,1,1
"164",411,1,404,0.3,"stim/52.jpeg",5,2,2,1,"Instruments",1,"stim/objects/Instruments/bassdrum4.png",4,"left","right",0.568000078,0,0,1
"165",412,1,405,0.9,"stim/13.jpeg",1,3,3,2,"HouseObjects",2,"stim/objects/HouseObjects/pitcher3.png",2,"right","right",0.696000099,1,1,1
"166",413,1,406,0.9,"stim/23.jpeg",2,3,3,2,"Instruments",1,"stim/objects/Instruments/musicstand3.png",4,"left","right",0.486000299,0,0,1
"167",414,1,407,0.9,"stim/24.jpeg",2,4,3,2,"Instruments",1,"stim/objects/Instruments/marimba3.png",4,"left","left",0.642999887,1,1,1
"168",415,1,408,0.9,"stim/24.jpeg",2,4,3,2,"Instruments",1,"stim/objects/Instruments/musicsheet3.png",1,"left","left",0.472000122,1,1,1
"169",416,1,409,0.5,"stim/33.jpeg",3,3,1,2,"HouseObjects",2,"stim/objects/HouseObjects/barbecuelighter3.png",4,"right","right",0.568000078,1,1,1
"170",417,1,410,0.5,"stim/34.jpeg",3,4,1,2,"Instruments",1,"stim/objects/Instruments/banjo3.png",4,"left","right",0.637000084,0,0,1
"171",418,1,411,0.9,"stim/24.jpeg",2,4,3,2,"Instruments",1,"stim/objects/Instruments/musicstand3.png",1,"left","left",0.458000183,1,1,1
"172",419,1,412,0.7,"stim/63.jpeg",6,3,2,2,"Instruments",1,"stim/objects/Instruments/cymbal3.png",1,"left","left",0.631999969,1,1,1
"173",420,1,413,0.9,"stim/11.jpeg",1,1,3,2,"HouseObjects",2,"stim/objects/HouseObjects/match3.png",3,"right","right",0.686000109,1,1,1
"174",421,1,414,0.7,"stim/51.jpeg",5,1,2,2,"HouseObjects",2,"stim/objects/HouseObjects/clothespin3.png",2,"right","right",0.452000141,1,1,1
"175",422,1,415,0.9,"stim/13.jpeg",1,3,3,1,"HouseObjects",2,"stim/objects/HouseObjects/rug4.png",1,"right","right",0.476000071,1,1,1
"176",423,1,416,0.9,"stim/22.jpeg",2,2,3,2,"Instruments",1,"stim/objects/Instruments/metronome3.png",1,"left","left",0.570000172,1,1,1
"177",424,1,417,0.5,"stim/43.jpeg",4,3,1,2,"HouseObjects",2,"stim/objects/HouseObjects/blender3.png",4,"right","right",0.421000242,1,1,1
"178",425,1,418,0.5,"stim/41.jpeg",4,1,1,1,"Instruments",1,"stim/objects/Instruments/trombone3.png",1,"left","right",0.529000282,0,0,1
"179",426,1,419,0.9,"stim/24.jpeg",2,4,3,2,"Instruments",1,"stim/objects/Instruments/musicsheet3.png",2,"left","left",0.566000223,1,1,1
"180",427,1,420,0.9,"stim/21.jpeg",2,1,3,2,"Instruments",1,"stim/objects/Instruments/metronome3.png",3,"left","left",0.629000187,1,1,1
"181",428,1,421,0.9,"stim/22.jpeg",2,2,3,2,"Instruments",1,"stim/objects/Instruments/marimba3.png",4,"left","left",0.653000116,1,1,1
"182",429,1,422,0.9,"stim/21.jpeg",2,1,3,2,"Instruments",1,"stim/objects/Instruments/marimba3.png",1,"left","left",0.45600009,1,1,1
"183",430,1,423,0.9,"stim/12.jpeg",1,2,3,2,"HouseObjects",2,"stim/objects/HouseObjects/lintroller3.png",4,"right","right",0.601000071,1,1,1
"184",431,1,424,0.9,"stim/11.jpeg",1,1,3,2,"HouseObjects",2,"stim/objects/HouseObjects/knife3.png",1,"right","right",0.515000105,1,1,1
"185",432,1,425,0.9,"stim/12.jpeg",1,2,3,2,"HouseObjects",2,"stim/objects/HouseObjects/pitcher3.png",2,"right","right",0.50999999,1,1,1
"186",433,1,426,0.9,"stim/14.jpeg",1,4,3,2,"HouseObjects",2,"stim/objects/HouseObjects/pan3.png",1,"right","right",0.648000002,1,1,1
"187",434,1,427,0.9,"stim/14.jpeg",1,4,3,2,"HouseObjects",2,"stim/objects/HouseObjects/knife3.png",2,"right","right",0.592000008,1,1,1
"188",435,1,428,0.9,"stim/14.jpeg",1,4,3,2,"HouseObjects",2,"stim/objects/HouseObjects/knife3.png",2,"right","right",0.492000103,1,1,1
"189",436,1,429,0.7,"stim/63.jpeg",6,3,2,2,"Instruments",1,"stim/objects/Instruments/keyboard3.png",3,"left","left",0.68200016,1,1,1
"190",437,1,430,0.9,"stim/24.jpeg",2,4,3,1,"Instruments",1,"stim/objects/Instruments/triangle4.png",3,"left","left",0.411000013,1,1,1
"191",438,1,431,0.9,"stim/23.jpeg",2,3,3,2,"Instruments",1,"stim/objects/Instruments/metronome3.png",1,"left","left",0.519000053,1,1,1
"192",439,1,432,0.5,"stim/43.jpeg",4,3,1,2,"Instruments",1,"stim/objects/Instruments/bassguitar3.png",1,"left","left",0.727000237,1,1,1
"193",440,1,433,0.9,"stim/21.jpeg",2,1,3,2,"Instruments",1,"stim/objects/Instruments/oboe3.png",3,"left","left",0.495000124,1,1,1
"194",441,1,434,0.9,"stim/12.jpeg",1,2,3,2,"HouseObjects",2,"stim/objects/HouseObjects/knife3.png",2,"right","right",0.652000189,1,1,1
"195",442,1,435,0.9,"stim/22.jpeg",2,2,3,2,"Instruments",1,"stim/objects/Instruments/marimba3.png",3,"left","left",0.700000048,1,1,1
"196",443,1,436,0.5,"stim/33.jpeg",3,3,1,1,"Instruments",1,"stim/objects/Instruments/saxophone3.png",1,"left","right",0.58100009,0,0,1
"197",444,1,437,0.9,"stim/21.jpeg",2,1,3,2,"Instruments",1,"stim/objects/Instruments/marimba3.png",3,"left","left",0.476000071,1,1,1
"198",445,1,438,0.7,"stim/54.jpeg",5,4,2,2,"HouseObjects",2,"stim/objects/HouseObjects/clothesdryingrack3.png",3,"right","right",0.565000057,1,1,1
"199",446,1,439,0.9,"stim/11.jpeg",1,1,3,2,"HouseObjects",2,"stim/objects/HouseObjects/lintroller3.png",4,"right","right",0.559999943,1,1,1
"200",447,1,440,0.9,"stim/12.jpeg",1,2,3,2,"HouseObjects",2,"stim/objects/HouseObjects/pitcher3.png",4,"right","right",0.423000097,1,1,1
"201",448,1,441,0.5,"stim/32.jpeg",3,2,1,2,"Instruments",1,"stim/objects/Instruments/acousticguitar3.png",3,"left","left",0.74000001,1,1,1
"202",449,1,442,0.5,"stim/33.jpeg",3,3,1,2,"Instruments",1,"stim/objects/Instruments/acousticguitar3.png",1,"left","right",0.605999947,0,0,1
"203",450,1,443,0.3,"stim/62.jpeg",6,2,2,1,"HouseObjects",2,"stim/objects/HouseObjects/blender4.png",4,"right","right",0.496000051,1,1,1
"204",451,1,444,0.5,"stim/32.jpeg",3,2,1,2,"Instruments",1,"stim/objects/Instruments/accordion3.png",3,"left","right",0.549999952,0,0,1
"205",452,1,445,0.9,"stim/23.jpeg",2,3,3,2,"Instruments",1,"stim/objects/Instruments/marimba3.png",2,"left","left",0.674999952,1,1,1
"206",453,1,446,0.9,"stim/22.jpeg",2,2,3,2,"Instruments",1,"stim/objects/Instruments/oboe3.png",3,"left","right",0.680000305,0,0,1
"207",454,1,447,0.9,"stim/23.jpeg",2,3,3,1,"Instruments",1,"stim/objects/Instruments/timbal4.png",2,"left","left",0.446000099,1,1,1
"208",455,1,448,0.1,"stim/14.jpeg",1,4,3,1,"Instruments",1,"stim/objects/Instruments/musicstand4.png",4,"left","right",0.625,0,0,1
"209",456,1,449,0.9,"stim/21.jpeg",2,1,3,2,"Instruments",1,"stim/objects/Instruments/musicstand3.png",1,"left","left",0.542000055,1,1,1
"210",457,1,450,0.9,"stim/13.jpeg",1,3,3,2,"HouseObjects",2,"stim/objects/HouseObjects/knife3.png",1,"right","right",0.621999979,1,1,1
"211",458,1,451,0.7,"stim/62.jpeg",6,2,2,2,"Instruments",1,"stim/objects/Instruments/doublebass3.png",1,"left","right",0.637000084,0,0,1
"212",459,1,452,0.5,"stim/41.jpeg",4,1,1,2,"HouseObjects",2,"stim/objects/HouseObjects/broom3.png",2,"right","left",0.697000027,0,0,1
"213",460,1,453,0.5,"stim/43.jpeg",4,3,1,2,"Instruments",1,"stim/objects/Instruments/cornet3.png",1,"left","left",0.604000092,1,1,1
"214",461,1,454,0.3,"stim/64.jpeg",6,4,2,1,"HouseObjects",2,"stim/objects/HouseObjects/clothespin4.png",2,"right","left",0.652000189,0,0,1
"215",462,1,455,0.9,"stim/14.jpeg",1,4,3,1,"HouseObjects",2,"stim/objects/HouseObjects/safetypin4.png",4,"right","right",0.536000013,1,1,1
"216",463,1,456,0.9,"stim/23.jpeg",2,3,3,2,"Instruments",1,"stim/objects/Instruments/oboe3.png",2,"left","left",0.556000233,1,1,1
"217",464,1,457,0.3,"stim/64.jpeg",6,4,2,1,"HouseObjects",2,"stim/objects/HouseObjects/broom4.png",2,"right","left",0.587000132,0,0,1
"218",465,1,458,0.9,"stim/22.jpeg",2,2,3,2,"Instruments",1,"stim/objects/Instruments/oboe3.png",4,"left","right",0.511000156,0,0,1
"219",466,1,459,0.5,"stim/34.jpeg",3,4,1,2,"HouseObjects",2,"stim/objects/HouseObjects/ashtray3.png",3,"right","",NA,0,0,1
"220",467,1,460,0.9,"stim/14.jpeg",1,4,3,2,"HouseObjects",2,"stim/objects/HouseObjects/pitcher3.png",1,"right","right",0.71600008,1,1,1
"221",468,1,461,0.5,"stim/42.jpeg",4,2,1,2,"HouseObjects",2,"stim/objects/HouseObjects/clock3.png",4,"right","right",0.494000196,1,1,1
"222",469,1,462,0.9,"stim/11.jpeg",1,1,3,2,"HouseObjects",2,"stim/objects/HouseObjects/pan3.png",1,"right","right",0.585000038,1,1,1
"223",470,1,463,0.9,"stim/22.jpeg",2,2,3,2,"Instruments",1,"stim/objects/Instruments/musicsheet3.png",2,"left","left",0.646000147,1,1,1
"224",471,1,464,0.5,"stim/33.jpeg",3,3,1,1,"HouseObjects",2,"stim/objects/HouseObjects/remote3.png",1,"right","left",0.719000101,0,0,1
"225",472,1,465,0.9,"stim/21.jpeg",2,1,3,1,"Instruments",1,"stim/objects/Instruments/speaker4.png",1,"left","left",0.501000166,1,1,1
"226",473,1,466,0.7,"stim/51.jpeg",5,1,2,1,"HouseObjects",2,"stim/objects/HouseObjects/barbecuelighter4.png",1,"right","",NA,0,0,1
"227",474,1,467,0.9,"stim/22.jpeg",2,2,3,2,"Instruments",1,"stim/objects/Instruments/musicsheet3.png",2,"left","left",0.561000109,1,1,1
"228",475,1,468,0.5,"stim/43.jpeg",4,3,1,1,"HouseObjects",2,"stim/objects/HouseObjects/spraybottle3.png",4,"right","right",0.860000134,1,1,1
"229",476,1,469,0.9,"stim/24.jpeg",2,4,3,2,"Instruments",1,"stim/objects/Instruments/musicstand3.png",2,"left","left",0.549000025,1,1,1
"230",477,1,470,0.9,"stim/12.jpeg",1,2,3,2,"HouseObjects",2,"stim/objects/HouseObjects/knife3.png",1,"right","right",0.619000196,1,1,1
"231",478,1,471,0.3,"stim/52.jpeg",5,2,2,1,"Instruments",1,"stim/objects/Instruments/accordion4.png",1,"left","right",0.562999964,0,0,1
"232",479,1,472,0.9,"stim/23.jpeg",2,3,3,2,"Instruments",1,"stim/objects/Instruments/metronome3.png",3,"left","left",0.561000109,1,1,1
"233",480,1,473,0.7,"stim/64.jpeg",6,4,2,2,"Instruments",1,"stim/objects/Instruments/doublebass3.png",2,"left","",NA,0,0,1
"234",481,1,474,0.7,"stim/53.jpeg",5,3,2,2,"HouseObjects",2,"stim/objects/HouseObjects/key3.png",1,"right","",NA,0,0,1
"235",482,1,475,0.9,"stim/24.jpeg",2,4,3,2,"Instruments",1,"stim/objects/Instruments/oboe3.png",2,"left","left",0.785000086,1,1,1
"236",483,1,476,0.3,"stim/51.jpeg",5,1,2,1,"Instruments",1,"stim/objects/Instruments/banjo4.png",1,"left","right",0.742000103,0,0,1
"237",484,1,477,0.3,"stim/63.jpeg",6,3,2,1,"HouseObjects",2,"stim/objects/HouseObjects/bottle4.png",4,"right","",NA,0,0,1
"238",485,1,478,0.9,"stim/12.jpeg",1,2,3,2,"HouseObjects",2,"stim/objects/HouseObjects/pan3.png",4,"right","right",0.654000282,1,1,1
"239",486,1,479,0.9,"stim/12.jpeg",1,2,3,2,"HouseObjects",2,"stim/objects/HouseObjects/pan3.png",4,"right","right",0.515000105,1,1,1
"240",487,1,480,0.9,"stim/14.jpeg",1,4,3,2,"HouseObjects",2,"stim/objects/HouseObjects/match3.png",2,"right","right",0.551000118,1,1,1
"241",488,1,481,0.9,"stim/24.jpeg",2,4,3,2,"Instruments",1,"stim/objects/Instruments/musicstand3.png",3,"left","left",0.81400013,1,1,1
"242",489,1,482,0.1,"stim/21.jpeg",2,1,3,1,"HouseObjects",2,"stim/objects/HouseObjects/thread4.png",3,"right","left",0.614000082,0,0,1
"243",490,1,483,0.9,"stim/11.jpeg",1,1,3,2,"HouseObjects",2,"stim/objects/HouseObjects/lintroller3.png",3,"right","right",0.562000036,1,1,1
"244",491,1,484,0.9,"stim/21.jpeg",2,1,3,2,"Instruments",1,"stim/objects/Instruments/oboe3.png",4,"left","left",0.569000244,1,1,1
"245",492,1,485,0.5,"stim/44.jpeg",4,4,1,2,"Instruments",1,"stim/objects/Instruments/cello3.png",1,"left","left",0.712000132,1,1,1
"246",493,1,486,0.9,"stim/23.jpeg",2,3,3,2,"Instruments",1,"stim/objects/Instruments/musicsheet3.png",4,"left","left",0.737000227,1,1,1
"247",494,1,487,0.5,"stim/31.jpeg",3,1,1,1,"HouseObjects",2,"stim/objects/HouseObjects/rug3.png",4,"right","right",0.679000139,1,1,1
"248",495,1,488,0.9,"stim/24.jpeg",2,4,3,2,"Instruments",1,"stim/objects/Instruments/oboe3.png",2,"left","left",0.536999941,1,1,1
"249",496,1,489,0.9,"stim/13.jpeg",1,3,3,2,"HouseObjects",2,"stim/objects/HouseObjects/pan3.png",1,"right","right",0.633000135,1,1,1
"250",497,1,490,0.9,"stim/12.jpeg",1,2,3,2,"HouseObjects",2,"stim/objects/HouseObjects/match3.png",4,"right","right",0.565000057,1,1,1
"251",498,1,491,0.7,"stim/52.jpeg",5,2,2,2,"HouseObjects",2,"stim/objects/HouseObjects/ironingboard3.png",2,"right","right",0.563000202,1,1,1
"252",499,1,492,0.9,"stim/12.jpeg",1,2,3,2,"HouseObjects",2,"stim/objects/HouseObjects/match3.png",4,"right","right",0.654000044,1,1,1
"253",500,1,493,0.3,"stim/61.jpeg",6,1,2,1,"HouseObjects",2,"stim/objects/HouseObjects/bucket4.png",3,"right","left",0.542000055,0,0,1
"254",501,1,494,0.9,"stim/12.jpeg",1,2,3,2,"HouseObjects",2,"stim/objects/HouseObjects/match3.png",2,"right","right",0.596000195,1,1,1
"255",502,1,495,0.9,"stim/24.jpeg",2,4,3,2,"Instruments",1,"stim/objects/Instruments/metronome3.png",2,"left","right",0.479000092,0,0,1
"256",503,1,496,0.7,"stim/63.jpeg",6,3,2,2,"Instruments",1,"stim/objects/Instruments/doublebass3.png",3,"left","left",0.343000174,1,1,1
"257",504,1,497,0.9,"stim/14.jpeg",1,4,3,2,"HouseObjects",2,"stim/objects/HouseObjects/pitcher3.png",3,"right","right",0.601000071,1,1,1
"258",505,1,498,0.1,"stim/23.jpeg",2,3,3,1,"HouseObjects",2,"stim/objects/HouseObjects/saw4.png",3,"right","left",0.512000084,0,0,1
"259",506,1,499,0.9,"stim/13.jpeg",1,3,3,2,"HouseObjects",2,"stim/objects/HouseObjects/match3.png",4,"right","right",0.526000023,1,1,1
"260",507,1,500,0.5,"stim/44.jpeg",4,4,1,1,"Instruments",1,"stim/objects/Instruments/triangle3.png",3,"left","left",0.414000034,1,1,1
"261",508,1,501,0.9,"stim/23.jpeg",2,3,3,2,"Instruments",1,"stim/objects/Instruments/marimba3.png",4,"left","left",0.573999882,1,1,1
"262",509,1,502,0.9,"stim/13.jpeg",1,3,3,2,"HouseObjects",2,"stim/objects/HouseObjects/lintroller3.png",3,"right","right",0.556999922,1,1,1
"263",510,1,503,0.5,"stim/32.jpeg",3,2,1,2,"HouseObjects",2,"stim/objects/HouseObjects/barbecuelighter3.png",2,"right","right",0.601000071,1,1,1
"264",511,1,504,0.7,"stim/63.jpeg",6,3,2,1,"Instruments",1,"stim/objects/Instruments/keyboard4.png",2,"left","left",0.586000204,1,1,1
"265",512,1,505,0.9,"stim/23.jpeg",2,3,3,2,"Instruments",1,"stim/objects/Instruments/marimba3.png",2,"left","left",0.520999908,1,1,1
"266",513,1,506,0.1,"stim/13.jpeg",1,3,3,1,"Instruments",1,"stim/objects/Instruments/pipepiano4.png",4,"left","right",0.440000057,0,0,1
"267",514,1,507,0.9,"stim/14.jpeg",1,4,3,2,"HouseObjects",2,"stim/objects/HouseObjects/lintroller3.png",3,"right","left",0.45600009,0,0,1
"268",515,1,508,0.5,"stim/44.jpeg",4,4,1,2,"Instruments",1,"stim/objects/Instruments/cornet3.png",3,"left","left",0.783000231,1,1,1
"269",516,1,509,0.7,"stim/61.jpeg",6,1,2,1,"Instruments",1,"stim/objects/Instruments/cymbal4.png",3,"left","left",0.575000048,1,1,1
"270",517,1,510,0.5,"stim/43.jpeg",4,3,1,2,"HouseObjects",2,"stim/objects/HouseObjects/bottle3.png",3,"right","left",0.555000067,0,0,1
"271",518,1,511,0.5,"stim/43.jpeg",4,3,1,2,"Instruments",1,"stim/objects/Instruments/clarinet3.png",4,"left","",NA,0,0,1
"272",519,1,512,0.9,"stim/14.jpeg",1,4,3,1,"HouseObjects",2,"stim/objects/HouseObjects/recyclingbin4.png",1,"right","right",0.89800024,1,1,1
"273",520,1,513,0.9,"stim/22.jpeg",2,2,3,2,"Instruments",1,"stim/objects/Instruments/oboe3.png",4,"left","right",0.510999918,0,0,1
"274",521,1,514,0.9,"stim/14.jpeg",1,4,3,2,"HouseObjects",2,"stim/objects/HouseObjects/knife3.png",3,"right","right",0.652000189,1,1,1
"275",522,1,515,0.1,"stim/23.jpeg",2,3,3,1,"HouseObjects",2,"stim/objects/HouseObjects/teapot4.png",2,"right","left",0.63499999,0,0,1
"276",523,1,516,0.9,"stim/12.jpeg",1,2,3,2,"HouseObjects",2,"stim/objects/HouseObjects/lintroller3.png",1,"right","right",0.55700016,1,1,1
"277",524,1,517,0.9,"stim/12.jpeg",1,2,3,2,"HouseObjects",2,"stim/objects/HouseObjects/lintroller3.png",4,"right","right",0.603000164,1,1,1
"278",525,1,518,0.9,"stim/14.jpeg",1,4,3,2,"HouseObjects",2,"stim/objects/HouseObjects/pitcher3.png",3,"right","right",0.588000059,1,1,1
"279",526,1,519,0.1,"stim/11.jpeg",1,1,3,1,"Instruments",1,"stim/objects/Instruments/record_player4.png",2,"left","right",0.514000177,0,0,1
"280",527,1,520,0.9,"stim/13.jpeg",1,3,3,2,"HouseObjects",2,"stim/objects/HouseObjects/knife3.png",1,"right","right",0.516000032,1,1,1
"281",528,1,521,0.9,"stim/23.jpeg",2,3,3,2,"Instruments",1,"stim/objects/Instruments/oboe3.png",4,"left","left",0.601000071,1,1,1
"282",529,1,522,0.3,"stim/53.jpeg",5,3,2,1,"Instruments",1,"stim/objects/Instruments/violin3.png",3,"left","right",0.534000158,0,0,1
"283",530,1,523,0.9,"stim/14.jpeg",1,4,3,2,"HouseObjects",2,"stim/objects/HouseObjects/pan3.png",3,"right","right",0.593000174,1,1,1
"284",531,1,524,0.5,"stim/34.jpeg",3,4,1,1,"HouseObjects",2,"stim/objects/HouseObjects/rubbergloves3.png",2,"right","left",0.719000101,0,0,1
"285",532,1,525,0.9,"stim/22.jpeg",2,2,3,2,"Instruments",1,"stim/objects/Instruments/metronome3.png",3,"left","left",0.551000118,1,1,1
"286",533,1,526,0.9,"stim/23.jpeg",2,3,3,2,"Instruments",1,"stim/objects/Instruments/oboe3.png",4,"left","left",0.553000212,1,1,1
"287",534,1,527,0.7,"stim/51.jpeg",5,1,2,2,"HouseObjects",2,"stim/objects/HouseObjects/clothesdryingrack3.png",1,"right","right",0.544000149,1,1,1
"288",535,1,528,0.9,"stim/21.jpeg",2,1,3,2,"Instruments",1,"stim/objects/Instruments/musicstand3.png",4,"left","right",0.430999994,0,0,1
"289",536,1,529,0.7,"stim/53.jpeg",5,3,2,1,"HouseObjects",2,"stim/objects/HouseObjects/thread3.png",4,"right","right",0.606000185,1,1,1
"290",537,1,530,0.9,"stim/14.jpeg",1,4,3,2,"HouseObjects",2,"stim/objects/HouseObjects/match3.png",3,"right","left",0.486000061,0,0,1
"291",538,1,531,0.5,"stim/42.jpeg",4,2,1,2,"Instruments",1,"stim/objects/Instruments/chime3.png",2,"left","left",0.712000132,1,1,1
"292",539,1,532,0.3,"stim/53.jpeg",5,3,2,1,"Instruments",1,"stim/objects/Instruments/acousticguitar4.png",2,"left","right",0.601999998,0,0,1
"293",540,1,533,0.5,"stim/33.jpeg",3,3,1,1,"Instruments",1,"stim/objects/Instruments/panflute3.png",2,"left","right",0.671999931,0,0,1
"294",541,1,534,0.7,"stim/64.jpeg",6,4,2,1,"Instruments",1,"stim/objects/Instruments/bassguitar4.png",4,"left","left",0.663000107,1,1,1
"295",542,1,535,0.1,"stim/22.jpeg",2,2,3,1,"HouseObjects",2,"stim/objects/HouseObjects/spraybottle4.png",2,"right","left",0.592000008,0,0,1
"296",543,1,536,0.7,"stim/53.jpeg",5,3,2,1,"HouseObjects",2,"stim/objects/HouseObjects/bleachbottle4.png",2,"right","right",0.517999887,1,1,1
"297",544,1,537,0.9,"stim/21.jpeg",2,1,3,2,"Instruments",1,"stim/objects/Instruments/oboe3.png",2,"left","left",0.587000132,1,1,1
"298",545,1,538,0.5,"stim/44.jpeg",4,4,1,2,"HouseObjects",2,"stim/objects/HouseObjects/broom3.png",3,"right","right",0.464999914,1,1,1
"299",546,1,539,0.3,"stim/61.jpeg",6,1,2,1,"HouseObjects",2,"stim/objects/HouseObjects/iron4.png",4,"right","right",0.539000273,1,1,1
"300",547,1,540,0.9,"stim/23.jpeg",2,3,3,2,"Instruments",1,"stim/objects/Instruments/musicsheet3.png",3,"left","left",0.555000067,1,1,1
"301",548,1,541,0.5,"stim/31.jpeg",3,1,1,2,"HouseObjects",2,"stim/objects/HouseObjects/bleachbottle3.png",2,"right","left",0.597000122,0,0,1
"302",549,1,542,0.7,"stim/62.jpeg",6,2,2,2,"Instruments",1,"stim/objects/Instruments/cymbal3.png",1,"left","left",0.70600009,1,1,1
"303",550,1,543,0.9,"stim/14.jpeg",1,4,3,2,"HouseObjects",2,"stim/objects/HouseObjects/pan3.png",4,"right","right",0.381999969,1,1,1
"304",551,1,544,0.3,"stim/63.jpeg",6,3,2,1,"HouseObjects",2,"stim/objects/HouseObjects/key4.png",4,"right","right",0.531000137,1,1,1
"305",552,1,545,0.9,"stim/12.jpeg",1,2,3,2,"HouseObjects",2,"stim/objects/HouseObjects/knife3.png",3,"right","right",0.696000099,1,1,1
"306",553,1,546,0.5,"stim/42.jpeg",4,2,1,1,"Instruments",1,"stim/objects/Instruments/tambourine3.png",3,"left","right",0.630000114,0,0,1
"307",554,1,547,0.1,"stim/11.jpeg",1,1,3,1,"Instruments",1,"stim/objects/Instruments/oboe4.png",3,"left","right",0.542000055,0,0,1
"308",555,1,548,0.7,"stim/62.jpeg",6,2,2,1,"Instruments",1,"stim/objects/Instruments/doublebass4.png",3,"left","left",0.516000032,1,1,1
"309",556,1,549,0.1,"stim/24.jpeg",2,4,3,1,"HouseObjects",2,"stim/objects/HouseObjects/thermometer4.png",3,"right","left",0.469000101,0,0,1
"310",557,1,550,0.9,"stim/23.jpeg",2,3,3,2,"Instruments",1,"stim/objects/Instruments/musicsheet3.png",1,"left","left",0.496999979,1,1,1
"311",558,1,551,0.5,"stim/32.jpeg",3,2,1,2,"Instruments",1,"stim/objects/Instruments/bassdrum3.png",2,"left","left",0.567000151,1,1,1
"312",559,1,552,0.5,"stim/31.jpeg",3,1,1,2,"HouseObjects",2,"stim/objects/HouseObjects/ballofstring3.png",2,"right","left",0.545000076,0,0,1
"313",560,1,553,0.9,"stim/21.jpeg",2,1,3,2,"Instruments",1,"stim/objects/Instruments/musicstand3.png",1,"left","left",0.707999945,1,1,1
"314",561,1,554,0.9,"stim/24.jpeg",2,4,3,2,"Instruments",1,"stim/objects/Instruments/oboe3.png",3,"left","",NA,0,0,1
"315",562,1,555,0.7,"stim/52.jpeg",5,2,2,1,"HouseObjects",2,"stim/objects/HouseObjects/basket4.png",2,"right","right",0.57400012,1,1,1
"316",563,1,556,0.9,"stim/13.jpeg",1,3,3,2,"HouseObjects",2,"stim/objects/HouseObjects/pitcher3.png",1,"right","right",0.726000071,1,1,1
"317",564,1,557,0.5,"stim/33.jpeg",3,3,1,2,"Instruments",1,"stim/objects/Instruments/balalaika3.png",2,"left","",NA,0,0,1
"318",565,1,558,0.7,"stim/53.jpeg",5,3,2,2,"HouseObjects",2,"stim/objects/HouseObjects/ironingboard3.png",1,"right","right",0.555000067,1,1,1
"319",566,1,559,0.5,"stim/34.jpeg",3,4,1,1,"Instruments",1,"stim/objects/Instruments/pipepiano3.png",1,"left","right",0.541000128,0,0,1
"320",567,1,560,0.9,"stim/21.jpeg",2,1,3,2,"Instruments",1,"stim/objects/Instruments/metronome3.png",3,"left","left",0.577000141,1,1,1
"321",568,1,561,0.9,"stim/11.jpeg",1,1,3,2,"HouseObjects",2,"stim/objects/HouseObjects/lintroller3.png",1,"right","right",0.51300025,1,1,1
"322",569,1,562,0.3,"stim/52.jpeg",5,2,2,1,"Instruments",1,"stim/objects/Instruments/tuba3.png",1,"left","right",0.610000134,0,0,1
"323",570,1,563,0.9,"stim/13.jpeg",1,3,3,2,"HouseObjects",2,"stim/objects/HouseObjects/pitcher3.png",1,"right","right",0.54700017,1,1,1
"324",571,1,564,0.9,"stim/24.jpeg",2,4,3,2,"Instruments",1,"stim/objects/Instruments/metronome3.png",3,"left","left",0.791000128,1,1,1
"325",572,1,565,0.9,"stim/13.jpeg",1,3,3,2,"HouseObjects",2,"stim/objects/HouseObjects/match3.png",1,"right","right",0.580000162,1,1,1
"326",573,1,566,0.9,"stim/14.jpeg",1,4,3,2,"HouseObjects",2,"stim/objects/HouseObjects/pitcher3.png",1,"right","right",0.453000069,1,1,1
"327",574,1,567,0.7,"stim/54.jpeg",5,4,2,2,"HouseObjects",2,"stim/objects/HouseObjects/clothespin3.png",2,"right","right",0.707000256,1,1,1
"328",575,1,568,0.5,"stim/43.jpeg",4,3,1,2,"HouseObjects",2,"stim/objects/HouseObjects/clock3.png",4,"right","left",0.779000044,0,0,1
"329",576,1,569,0.9,"stim/13.jpeg",1,3,3,2,"HouseObjects",2,"stim/objects/HouseObjects/pitcher3.png",4,"right","right",0.546000004,1,1,1
"330",577,1,570,0.5,"stim/42.jpeg",4,2,1,2,"Instruments",1,"stim/objects/Instruments/clarinet3.png",4,"left","right",0.605000019,0,0,1
"331",248,2,241,0.9,"stim/43.jpeg",4,3,3,2,"HouseObjects",1,"stim/objects/HouseObjects/flyswatter.png",1,"left","left",0.65199995,1,1,1
"332",249,2,242,0.9,"stim/43.jpeg",4,3,3,2,"HouseObjects",1,"stim/objects/HouseObjects/dustpan.png",4,"left","left",0.511999846,1,1,1
"333",250,2,243,0.9,"stim/43.jpeg",4,3,3,2,"HouseObjects",1,"stim/objects/HouseObjects/glass.png",2,"left","left",0.479000092,1,1,1
"334",251,2,244,0.9,"stim/34.jpeg",3,4,3,2,"Instruments",2,"stim/objects/Instruments/flutetrans.png",4,"right","",NA,0,0,1
"335",252,2,245,0.9,"stim/33.jpeg",3,3,3,2,"Instruments",2,"stim/objects/Instruments/flutetrans.png",3,"right","right",0.529000044,1,1,1
"336",253,2,246,0.3,"stim/11.jpeg",1,1,2,1,"HouseObjects",1,"stim/objects/HouseObjects/basket2.png",2,"left","right",0.559000015,0,0,1
"337",254,2,247,0.9,"stim/33.jpeg",3,3,3,2,"Instruments",2,"stim/objects/Instruments/gong.png",2,"right","right",0.427999973,1,1,1
"338",255,2,248,0.9,"stim/31.jpeg",3,1,3,2,"Instruments",2,"stim/objects/Instruments/grandpiano.png",3,"right","right",0.542999983,1,1,1
"339",256,2,249,0.9,"stim/34.jpeg",3,4,3,2,"Instruments",2,"stim/objects/Instruments/flute.png",4,"right","right",0.390000105,1,1,1
"340",257,2,250,0.3,"stim/14.jpeg",1,4,2,1,"HouseObjects",1,"stim/objects/HouseObjects/vacuumcleaner.png",1,"left","right",0.483999968,0,0,1
"341",258,2,251,0.9,"stim/44.jpeg",4,4,3,2,"HouseObjects",1,"stim/objects/HouseObjects/garbagebin.png",1,"left","left",0.498000145,1,1,1
"342",259,2,252,0.3,"stim/13.jpeg",1,3,2,1,"HouseObjects",1,"stim/objects/HouseObjects/ballofstring2.png",3,"left","right",0.463000059,0,0,1
"343",260,2,253,0.5,"stim/64.jpeg",6,4,1,2,"HouseObjects",1,"stim/objects/HouseObjects/clock.png",1,"left","left",0.592000008,1,1,1
"344",261,2,254,0.9,"stim/42.jpeg",4,2,3,2,"HouseObjects",1,"stim/objects/HouseObjects/doormat.png",1,"left","left",0.565000057,1,1,1
"345",262,2,255,0.7,"stim/21.jpeg",2,1,2,1,"HouseObjects",1,"stim/objects/HouseObjects/clothesdryingrack2.png",3,"left","left",0.427000046,1,1,1
"346",263,2,256,0.9,"stim/43.jpeg",4,3,3,2,"HouseObjects",1,"stim/objects/HouseObjects/flyswatter.png",4,"left","left",0.588000059,1,1,1
"347",264,2,257,0.9,"stim/43.jpeg",4,3,3,2,"HouseObjects",1,"stim/objects/HouseObjects/glass.png",1,"left","left",0.464999914,1,1,1
"348",265,2,258,0.9,"stim/33.jpeg",3,3,3,2,"Instruments",2,"stim/objects/Instruments/flute.png",1,"right","right",0.474999905,1,1,1
"349",266,2,259,0.5,"stim/53.jpeg",5,3,1,1,"HouseObjects",1,"stim/objects/HouseObjects/safetypin.png",3,"left","right",0.707999945,0,0,1
"350",267,2,260,0.9,"stim/32.jpeg",3,2,3,2,"Instruments",2,"stim/objects/Instruments/gong.png",1,"right","right",0.493000031,1,1,1
"351",268,2,261,0.9,"stim/31.jpeg",3,1,3,2,"Instruments",2,"stim/objects/Instruments/flute.png",4,"right","right",0.434000015,1,1,1
"352",269,2,262,0.7,"stim/11.jpeg",1,1,2,2,"Instruments",2,"stim/objects/Instruments/drums.png",4,"right","right",0.713000059,1,1,1
"353",270,2,263,0.9,"stim/43.jpeg",4,3,3,2,"HouseObjects",1,"stim/objects/HouseObjects/dustpan.png",4,"left","left",0.687999964,1,1,1
"354",271,2,264,0.9,"stim/43.jpeg",4,3,3,2,"HouseObjects",1,"stim/objects/HouseObjects/garbagebin.png",3,"left","left",0.541999817,1,1,1
"355",272,2,265,0.5,"stim/53.jpeg",5,3,1,2,"Instruments",2,"stim/objects/Instruments/balalaika.png",4,"right","right",0.520000219,1,1,1
"356",273,2,266,0.9,"stim/42.jpeg",4,2,3,2,"HouseObjects",1,"stim/objects/HouseObjects/doormat.png",1,"left","left",0.722000122,1,1,1
"357",274,2,267,0.5,"stim/51.jpeg",5,1,1,2,"HouseObjects",1,"stim/objects/HouseObjects/basket.png",1,"left","right",0.611000061,0,0,1
"358",275,2,268,0.7,"stim/12.jpeg",1,2,2,2,"Instruments",2,"stim/objects/Instruments/doublebass.png",1,"right","right",0.527999878,1,1,1
"359",276,2,269,0.7,"stim/12.jpeg",1,2,2,1,"Instruments",2,"stim/objects/Instruments/banjo2.png",2,"right","right",0.644000053,1,1,1
"360",277,2,270,0.5,"stim/63.jpeg",6,3,1,2,"Instruments",2,"stim/objects/Instruments/bassguitar.png",4,"right","left",0.559999943,0,0,1
"361",278,2,271,0.9,"stim/34.jpeg",3,4,3,2,"Instruments",2,"stim/objects/Instruments/gong.png",3,"right","left",0.575000048,0,0,1
"362",279,2,272,0.9,"stim/41.jpeg",4,1,3,2,"HouseObjects",1,"stim/objects/HouseObjects/garbagebin.png",2,"left","left",0.524999857,1,1,1
"363",280,2,273,0.5,"stim/52.jpeg",5,2,1,2,"HouseObjects",1,"stim/objects/HouseObjects/bleachbottle.png",1,"left","right",0.532999992,0,0,1
"364",281,2,274,0.1,"stim/32.jpeg",3,2,3,1,"HouseObjects",1,"stim/objects/HouseObjects/glassmop2.png",3,"left","right",0.544000149,0,0,1
"365",282,2,275,0.5,"stim/54.jpeg",5,4,1,1,"HouseObjects",1,"stim/objects/HouseObjects/hairdryer.png",3,"left","left",0.663000107,1,1,1
"366",283,2,276,0.9,"stim/32.jpeg",3,2,3,2,"Instruments",2,"stim/objects/Instruments/flutetrans.png",1,"right","right",0.478999853,1,1,1
"367",284,2,277,0.9,"stim/44.jpeg",4,4,3,2,"HouseObjects",1,"stim/objects/HouseObjects/flyswatter.png",3,"left","left",0.524999857,1,1,1
"368",285,2,278,0.9,"stim/34.jpeg",3,4,3,2,"Instruments",2,"stim/objects/Instruments/flutetrans.png",3,"right","right",0.536000013,1,1,1
"369",286,2,279,0.5,"stim/61.jpeg",6,1,1,2,"Instruments",2,"stim/objects/Instruments/chime.png",3,"right","left",0.513000011,0,0,1
"370",287,2,280,0.9,"stim/33.jpeg",3,3,3,2,"Instruments",2,"stim/objects/Instruments/grandpiano.png",4,"right","right",0.805999994,1,1,1
"371",288,2,281,0.9,"stim/32.jpeg",3,2,3,2,"Instruments",2,"stim/objects/Instruments/grandpiano.png",3,"right","right",0.407000065,1,1,1
"372",289,2,282,0.9,"stim/42.jpeg",4,2,3,2,"HouseObjects",1,"stim/objects/HouseObjects/doormat.png",1,"left","left",0.369999886,1,1,1
"373",290,2,283,0.9,"stim/32.jpeg",3,2,3,1,"Instruments",2,"stim/objects/Instruments/gong2.png",2,"right","right",0.434000015,1,1,1
"374",291,2,284,0.9,"stim/32.jpeg",3,2,3,2,"Instruments",2,"stim/objects/Instruments/frenchhorn.png",4,"right","right",0.386999846,1,1,1
"375",292,2,285,0.7,"stim/21.jpeg",2,1,2,1,"HouseObjects",1,"stim/objects/HouseObjects/dishsoap2.png",4,"left","left",0.51699996,1,1,1
"376",293,2,286,0.9,"stim/42.jpeg",4,2,3,2,"HouseObjects",1,"stim/objects/HouseObjects/glass.png",4,"left","left",0.551000118,1,1,1
"377",294,2,287,0.9,"stim/34.jpeg",3,4,3,2,"Instruments",2,"stim/objects/Instruments/grandpiano.png",1,"right","right",0.467999935,1,1,1
"378",295,2,288,0.9,"stim/31.jpeg",3,1,3,2,"Instruments",2,"stim/objects/Instruments/grandpiano.png",4,"right","right",0.337999821,1,1,1
"379",296,2,289,0.9,"stim/31.jpeg",3,1,3,2,"Instruments",2,"stim/objects/Instruments/frenchhorn.png",2,"right","right",0.486000061,1,1,1
"380",297,2,290,0.9,"stim/31.jpeg",3,1,3,2,"Instruments",2,"stim/objects/Instruments/frenchhorn.png",1,"right","right",0.378000021,1,1,1
"381",298,2,291,0.1,"stim/33.jpeg",3,3,3,1,"HouseObjects",1,"stim/objects/HouseObjects/flyswatter2.png",3,"left","right",0.353000164,0,0,1
"382",299,2,292,0.7,"stim/13.jpeg",1,3,2,1,"Instruments",2,"stim/objects/Instruments/bassdrum2.png",1,"right","right",0.424000025,1,1,1
"383",300,2,293,0.1,"stim/32.jpeg",3,2,3,1,"HouseObjects",1,"stim/objects/HouseObjects/safetypin2.png",1,"left","right",0.441999912,0,0,1
"384",301,2,294,0.1,"stim/41.jpeg",4,1,3,1,"Instruments",2,"stim/objects/Instruments/tuba2.png",3,"right","right",0.423000097,1,1,1
"385",302,2,295,0.3,"stim/14.jpeg",1,4,2,1,"HouseObjects",1,"stim/objects/HouseObjects/barbecuelighter2.png",3,"left","right",0.468999863,0,0,1
"386",303,2,296,0.5,"stim/63.jpeg",6,3,1,1,"HouseObjects",1,"stim/objects/HouseObjects/sponge.png",1,"left","left",0.84100008,1,1,1
"387",304,2,297,0.7,"stim/13.jpeg",1,3,2,2,"Instruments",2,"stim/objects/Instruments/electricdrumset.png",4,"right","right",0.446000099,1,1,1
"388",305,2,298,0.9,"stim/32.jpeg",3,2,3,2,"Instruments",2,"stim/objects/Instruments/flute.png",4,"right","right",0.451999903,1,1,1
"389",306,2,299,0.9,"stim/32.jpeg",3,2,3,2,"Instruments",2,"stim/objects/Instruments/frenchhorn.png",2,"right","right",0.452000141,1,1,1
"390",307,2,300,0.5,"stim/62.jpeg",6,2,1,2,"HouseObjects",1,"stim/objects/HouseObjects/broom.png",2,"left","left",0.530999899,1,1,1
"391",308,2,301,0.3,"stim/24.jpeg",2,4,2,1,"Instruments",2,"stim/objects/Instruments/doublebass2.png",3,"right","left",0.5,0,0,1
"392",309,2,302,0.7,"stim/24.jpeg",2,4,2,1,"HouseObjects",1,"stim/objects/HouseObjects/clock2.png",3,"left","left",0.440000057,1,1,1
"393",310,2,303,0.5,"stim/64.jpeg",6,4,1,2,"Instruments",2,"stim/objects/Instruments/chime.png",1,"right","left",0.615999937,0,0,1
"394",311,2,304,0.7,"stim/14.jpeg",1,4,2,2,"Instruments",2,"stim/objects/Instruments/electricguitar.png",4,"right","right",0.483999968,1,1,1
"395",312,2,305,0.9,"stim/34.jpeg",3,4,3,2,"Instruments",2,"stim/objects/Instruments/gong.png",4,"right","right",0.571000099,1,1,1
"396",313,2,306,0.5,"stim/53.jpeg",5,3,1,2,"Instruments",2,"stim/objects/Instruments/banjo.png",4,"right","right",0.664999962,1,1,1
"397",314,2,307,0.7,"stim/22.jpeg",2,2,2,2,"HouseObjects",1,"stim/objects/HouseObjects/clothespin.png",1,"left","left",0.51699996,1,1,1
"398",315,2,308,0.5,"stim/64.jpeg",6,4,1,1,"Instruments",2,"stim/objects/Instruments/speaker.png",1,"right","left",0.667999983,0,0,1
"399",316,2,309,0.9,"stim/41.jpeg",4,1,3,2,"HouseObjects",1,"stim/objects/HouseObjects/garbagebin.png",4,"left","left",0.49000001,1,1,1
"400",317,2,310,0.9,"stim/41.jpeg",4,1,3,2,"HouseObjects",1,"stim/objects/HouseObjects/doormat.png",4,"left","left",0.447999954,1,1,1
"401",318,2,311,0.5,"stim/53.jpeg",5,3,1,1,"Instruments",2,"stim/objects/Instruments/harmonica.png",3,"right","right",0.569999933,1,1,1
"402",319,2,312,0.9,"stim/43.jpeg",4,3,3,1,"HouseObjects",1,"stim/objects/HouseObjects/sponge2.png",4,"left","left",0.594000101,1,1,1
"403",320,2,313,0.9,"stim/41.jpeg",4,1,3,2,"HouseObjects",1,"stim/objects/HouseObjects/glass.png",4,"left","left",0.729000092,1,1,1
"404",321,2,314,0.7,"stim/24.jpeg",2,4,2,2,"HouseObjects",1,"stim/objects/HouseObjects/clothespin.png",3,"left","left",0.521000147,1,1,1
"405",322,2,315,0.9,"stim/31.jpeg",3,1,3,2,"Instruments",2,"stim/objects/Instruments/flutetrans.png",4,"right","right",0.534000158,1,1,1
"406",323,2,316,0.5,"stim/52.jpeg",5,2,1,2,"HouseObjects",1,"stim/objects/HouseObjects/ashtray.png",3,"left","left",0.698999882,1,1,1
"407",324,2,317,0.5,"stim/54.jpeg",5,4,1,2,"HouseObjects",1,"stim/objects/HouseObjects/barbecuelighter.png",2,"left","left",0.617999792,1,1,1
"408",325,2,318,0.9,"stim/43.jpeg",4,3,3,2,"HouseObjects",1,"stim/objects/HouseObjects/flyswatter.png",1,"left","left",0.555999994,1,1,1
"409",326,2,319,0.9,"stim/33.jpeg",3,3,3,2,"Instruments",2,"stim/objects/Instruments/flutetrans.png",3,"right","right",0.532999992,1,1,1
"410",327,2,320,0.5,"stim/51.jpeg",5,1,1,2,"HouseObjects",1,"stim/objects/HouseObjects/ashtray.png",3,"left","right",0.684999943,0,0,1
"411",328,2,321,0.7,"stim/24.jpeg",2,4,2,1,"HouseObjects",1,"stim/objects/HouseObjects/blender2.png",3,"left","left",0.428999901,1,1,1
"412",329,2,322,0.9,"stim/42.jpeg",4,2,3,2,"HouseObjects",1,"stim/objects/HouseObjects/dustpan.png",4,"left","left",0.506999969,1,1,1
"413",330,2,323,0.3,"stim/12.jpeg",1,2,2,1,"HouseObjects",1,"stim/objects/HouseObjects/thread.png",3,"left","right",0.609999895,0,0,1
"414",331,2,324,0.1,"stim/42.jpeg",4,2,3,1,"Instruments",2,"stim/objects/Instruments/violin2.png",2,"right","left",0.562999964,0,0,1
"415",332,2,325,0.3,"stim/21.jpeg",2,1,2,1,"Instruments",2,"stim/objects/Instruments/drums2.png",3,"right","left",0.444999933,0,0,1
"416",333,2,326,0.1,"stim/32.jpeg",3,2,3,1,"HouseObjects",1,"stim/objects/HouseObjects/dustpan2.png",2,"left","right",0.565999985,0,0,1
"417",334,2,327,0.5,"stim/63.jpeg",6,3,1,2,"Instruments",2,"stim/objects/Instruments/cornet.png",1,"right","left",0.670000076,0,0,1
"418",335,2,328,0.9,"stim/44.jpeg",4,4,3,1,"HouseObjects",1,"stim/objects/HouseObjects/spraybottle2.png",1,"left","left",0.616000175,1,1,1
"419",336,2,329,0.7,"stim/22.jpeg",2,2,2,1,"HouseObjects",1,"stim/objects/HouseObjects/broom2.png",4,"left","left",0.586999893,1,1,1
"420",337,2,330,0.9,"stim/34.jpeg",3,4,3,1,"Instruments",2,"stim/objects/Instruments/saxophone2.png",2,"right","right",0.516000032,1,1,1
"421",338,2,331,0.1,"stim/31.jpeg",3,1,3,1,"HouseObjects",1,"stim/objects/HouseObjects/glass2.png",1,"left","right",0.506000042,0,0,1
"422",339,2,332,0.5,"stim/63.jpeg",6,3,1,2,"HouseObjects",1,"stim/objects/HouseObjects/blender.png",4,"left","left",0.699999809,1,1,1
"423",340,2,333,0.9,"stim/41.jpeg",4,1,3,2,"HouseObjects",1,"stim/objects/HouseObjects/garbagebin.png",4,"left","left",0.707000017,1,1,1
"424",341,2,334,0.5,"stim/51.jpeg",5,1,1,2,"Instruments",2,"stim/objects/Instruments/bassdrum.png",3,"right","right",0.559999943,1,1,1
"425",342,2,335,0.7,"stim/23.jpeg",2,3,2,2,"HouseObjects",1,"stim/objects/HouseObjects/clothespin.png",2,"left","left",0.440000057,1,1,1
"426",343,2,336,0.9,"stim/32.jpeg",3,2,3,2,"Instruments",2,"stim/objects/Instruments/flute.png",4,"right","right",0.481000185,1,1,1
"427",344,2,337,0.3,"stim/11.jpeg",1,1,2,1,"HouseObjects",1,"stim/objects/HouseObjects/wateringcan.png",1,"left","right",0.5400002,0,0,1
"428",345,2,338,0.5,"stim/61.jpeg",6,1,1,2,"HouseObjects",1,"stim/objects/HouseObjects/broom.png",3,"left","right",0.549999952,0,0,1
"429",346,2,339,0.9,"stim/41.jpeg",4,1,3,2,"HouseObjects",1,"stim/objects/HouseObjects/glass.png",2,"left","left",0.587000132,1,1,1
"430",347,2,340,0.9,"stim/33.jpeg",3,3,3,2,"Instruments",2,"stim/objects/Instruments/frenchhorn.png",1,"right","right",0.604000092,1,1,1
"431",348,2,341,0.5,"stim/61.jpeg",6,1,1,2,"HouseObjects",1,"stim/objects/HouseObjects/bottle.png",2,"left","right",0.548000097,0,0,1
"432",349,2,342,0.1,"stim/43.jpeg",4,3,3,1,"Instruments",2,"stim/objects/Instruments/trombone2.png",4,"right","left",0.636999846,0,0,1
"433",350,2,343,0.7,"stim/13.jpeg",1,3,2,2,"Instruments",2,"stim/objects/Instruments/cymbal.png",2,"right","right",0.636000156,1,1,1
"434",351,2,344,0.5,"stim/51.jpeg",5,1,1,1,"HouseObjects",1,"stim/objects/HouseObjects/handbrush.png",1,"left","right",0.690999985,0,0,1
"435",352,2,345,0.9,"stim/44.jpeg",4,4,3,2,"HouseObjects",1,"stim/objects/HouseObjects/doormat.png",1,"left","left",0.784000158,1,1,1
"436",353,2,346,0.9,"stim/42.jpeg",4,2,3,2,"HouseObjects",1,"stim/objects/HouseObjects/doormat.png",4,"left","",NA,0,0,1
"437",354,2,347,0.7,"stim/23.jpeg",2,3,2,2,"HouseObjects",1,"stim/objects/HouseObjects/dishsoap.png",1,"left","left",0.602999926,1,1,1
"438",355,2,348,0.5,"stim/51.jpeg",5,1,1,1,"Instruments",2,"stim/objects/Instruments/hihat.png",2,"right","right",0.559000015,1,1,1
"439",356,2,349,0.7,"stim/21.jpeg",2,1,2,2,"HouseObjects",1,"stim/objects/HouseObjects/clothesdryingrack.png",1,"left","left",0.534999847,1,1,1
"440",357,2,350,0.9,"stim/42.jpeg",4,2,3,1,"HouseObjects",1,"stim/objects/HouseObjects/scale2.png",4,"left","left",0.636999846,1,1,1
"441",358,2,351,0.9,"stim/33.jpeg",3,3,3,1,"Instruments",2,"stim/objects/Instruments/flute2.png",4,"right","right",0.67200017,1,1,1
"442",359,2,352,0.9,"stim/31.jpeg",3,1,3,2,"Instruments",2,"stim/objects/Instruments/grandpiano.png",2,"right","right",0.513999939,1,1,1
"443",360,2,353,0.5,"stim/52.jpeg",5,2,1,2,"HouseObjects",1,"stim/objects/HouseObjects/ballofstring.png",2,"left","right",0.771000147,0,0,1
"444",361,2,354,0.9,"stim/42.jpeg",4,2,3,2,"HouseObjects",1,"stim/objects/HouseObjects/garbagebin.png",3,"left","left",0.694999933,1,1,1
"445",362,2,355,0.5,"stim/64.jpeg",6,4,1,2,"Instruments",2,"stim/objects/Instruments/cello.png",4,"right","right",0.631999969,1,1,1
"446",363,2,356,0.5,"stim/51.jpeg",5,1,1,2,"Instruments",2,"stim/objects/Instruments/accordion.png",2,"right","right",0.614000082,1,1,1
"447",364,2,357,0.9,"stim/33.jpeg",3,3,3,2,"Instruments",2,"stim/objects/Instruments/frenchhorn.png",4,"right","right",0.527000189,1,1,1
"448",365,2,358,0.9,"stim/42.jpeg",4,2,3,2,"HouseObjects",1,"stim/objects/HouseObjects/flyswatter.png",3,"left","left",0.571000099,1,1,1
"449",366,2,359,0.7,"stim/22.jpeg",2,2,2,2,"HouseObjects",1,"stim/objects/HouseObjects/dishsoap.png",2,"left","left",0.551000118,1,1,1
"450",367,2,360,0.9,"stim/42.jpeg",4,2,3,2,"HouseObjects",1,"stim/objects/HouseObjects/flyswatter.png",3,"left","left",0.655999899,1,1,1
"451",368,2,361,0.9,"stim/44.jpeg",4,4,3,2,"HouseObjects",1,"stim/objects/HouseObjects/dustpan.png",3,"left","left",0.804000139,1,1,1
"452",369,2,362,0.9,"stim/33.jpeg",3,3,3,2,"Instruments",2,"stim/objects/Instruments/flute.png",2,"right","right",0.662000179,1,1,1
"453",370,2,363,0.3,"stim/23.jpeg",2,3,2,1,"Instruments",2,"stim/objects/Instruments/cymbal2.png",4,"right","left",0.536999941,0,0,1
"454",371,2,364,0.9,"stim/41.jpeg",4,1,3,2,"HouseObjects",1,"stim/objects/HouseObjects/flyswatter.png",1,"left","left",0.703999996,1,1,1
"455",372,2,365,0.7,"stim/22.jpeg",2,2,2,2,"HouseObjects",1,"stim/objects/HouseObjects/clothesdryingrack.png",1,"left","left",0.436999798,1,1,1
"456",373,2,366,0.7,"stim/21.jpeg",2,1,2,2,"HouseObjects",1,"stim/objects/HouseObjects/coffee.png",3,"left","left",0.549000025,1,1,1
"457",374,2,367,0.5,"stim/61.jpeg",6,1,1,2,"Instruments",2,"stim/objects/Instruments/clarinet.png",4,"right","right",0.588999987,1,1,1
"458",375,2,368,0.7,"stim/11.jpeg",1,1,2,2,"Instruments",2,"stim/objects/Instruments/electricguitar.png",2,"right","right",0.539999962,1,1,1
"459",376,2,369,0.5,"stim/52.jpeg",5,2,1,2,"Instruments",2,"stim/objects/Instruments/acousticguitar.png",1,"right","right",0.595999956,1,1,1
"460",377,2,370,0.1,"stim/44.jpeg",4,4,3,1,"Instruments",2,"stim/objects/Instruments/tambourine2.png",4,"right","left",0.58100009,0,0,1
"461",378,2,371,0.9,"stim/34.jpeg",3,4,3,2,"Instruments",2,"stim/objects/Instruments/frenchhorn.png",2,"right","right",0.473999977,1,1,1
"462",379,2,372,0.5,"stim/62.jpeg",6,2,1,1,"Instruments",2,"stim/objects/Instruments/timbal.png",4,"right","left",0.496999979,0,0,1
"463",380,2,373,0.9,"stim/31.jpeg",3,1,3,1,"Instruments",2,"stim/objects/Instruments/frenchhorn2.png",1,"right","right",0.559000015,1,1,1
"464",381,2,374,0.9,"stim/32.jpeg",3,2,3,1,"Instruments",2,"stim/objects/Instruments/harp2.png",1,"right","right",0.471999884,1,1,1
"465",382,2,375,0.9,"stim/41.jpeg",4,1,3,1,"HouseObjects",1,"stim/objects/HouseObjects/saw2.png",3,"left","left",0.516000032,1,1,1
"466",383,2,376,0.5,"stim/54.jpeg",5,4,1,1,"Instruments",2,"stim/objects/Instruments/harp.png",4,"right","right",0.6650002,1,1,1
"467",384,2,377,0.5,"stim/54.jpeg",5,4,1,2,"Instruments",2,"stim/objects/Instruments/accordion.png",4,"right","right",0.552000046,1,1,1
"468",385,2,378,0.7,"stim/23.jpeg",2,3,2,2,"HouseObjects",1,"stim/objects/HouseObjects/clothesdryingrack.png",4,"left","left",0.542000055,1,1,1
"469",386,2,379,0.9,"stim/44.jpeg",4,4,3,2,"HouseObjects",1,"stim/objects/HouseObjects/glass.png",3,"left","left",0.585999966,1,1,1
"470",387,2,380,0.9,"stim/42.jpeg",4,2,3,1,"HouseObjects",1,"stim/objects/HouseObjects/thermometer2.png",1,"left","left",0.691999912,1,1,1
"471",388,2,381,0.9,"stim/31.jpeg",3,1,3,2,"Instruments",2,"stim/objects/Instruments/flutetrans.png",3,"right","right",0.578999996,1,1,1
"472",389,2,382,0.5,"stim/53.jpeg",5,3,1,2,"HouseObjects",1,"stim/objects/HouseObjects/barbecuelighter.png",1,"left","",NA,0,0,1
"473",390,2,383,0.9,"stim/34.jpeg",3,4,3,2,"Instruments",2,"stim/objects/Instruments/gong.png",1,"right","right",0.487999916,1,1,1
"474",391,2,384,0.7,"stim/24.jpeg",2,4,2,2,"HouseObjects",1,"stim/objects/HouseObjects/coffee.png",4,"left","left",0.713999987,1,1,1
"475",392,2,385,0.9,"stim/31.jpeg",3,1,3,2,"Instruments",2,"stim/objects/Instruments/grandpiano.png",2,"right","right",0.526000023,1,1,1
"476",393,2,386,0.9,"stim/33.jpeg",3,3,3,2,"Instruments",2,"stim/objects/Instruments/gong.png",2,"right","right",0.47300005,1,1,1
"477",394,2,387,0.3,"stim/13.jpeg",1,3,2,1,"HouseObjects",1,"stim/objects/HouseObjects/towel.png",1,"left","right",0.566999912,0,0,1
"478",395,2,388,0.9,"stim/44.jpeg",4,4,3,2,"HouseObjects",1,"stim/objects/HouseObjects/doormat.png",2,"left","right",0.609999895,0,0,1
"479",396,2,389,0.9,"stim/34.jpeg",3,4,3,2,"Instruments",2,"stim/objects/Instruments/flute.png",1,"right","right",0.525000095,1,1,1
"480",397,2,390,0.9,"stim/32.jpeg",3,2,3,2,"Instruments",2,"stim/objects/Instruments/frenchhorn.png",2,"right","right",0.53399992,1,1,1
"481",398,2,391,0.3,"stim/23.jpeg",2,3,2,1,"Instruments",2,"stim/objects/Instruments/electricguitar2.png",1,"right","left",0.430000067,0,0,1
"482",399,2,392,0.9,"stim/34.jpeg",3,4,3,2,"Instruments",2,"stim/objects/Instruments/grandpiano.png",4,"right","right",0.457999945,1,1,1
"483",400,2,393,0.9,"stim/43.jpeg",4,3,3,1,"HouseObjects",1,"stim/objects/HouseObjects/thread2.png",3,"left","left",0.506999969,1,1,1
"484",401,2,394,0.5,"stim/62.jpeg",6,2,1,1,"HouseObjects",1,"stim/objects/HouseObjects/scale.png",2,"left","left",0.485000134,1,1,1
"485",402,2,395,0.5,"stim/63.jpeg",6,3,1,2,"HouseObjects",1,"stim/objects/HouseObjects/clock.png",4,"left","right",0.684000015,0,0,1
"486",403,2,396,0.5,"stim/52.jpeg",5,2,1,2,"Instruments",2,"stim/objects/Instruments/balalaika.png",2,"right","left",0.476999998,0,0,1
"487",404,2,397,0.9,"stim/34.jpeg",3,4,3,2,"Instruments",2,"stim/objects/Instruments/frenchhorn.png",1,"right","right",0.524000168,1,1,1
"488",405,2,398,0.3,"stim/22.jpeg",2,2,2,1,"Instruments",2,"stim/objects/Instruments/electricdrumset2.png",2,"right","left",0.491000175,0,0,1
"489",406,2,399,0.5,"stim/51.jpeg",5,1,1,2,"HouseObjects",1,"stim/objects/HouseObjects/bleachbottle.png",4,"left","right",0.532999992,0,0,1
"490",407,2,400,0.9,"stim/41.jpeg",4,1,3,1,"HouseObjects",1,"stim/objects/HouseObjects/teapot2.png",4,"left","left",0.566999912,1,1,1
"491",408,2,401,0.3,"stim/22.jpeg",2,2,2,1,"Instruments",2,"stim/objects/Instruments/bassguitar2.png",4,"right","left",0.464999914,0,0,1
"492",409,2,402,0.9,"stim/34.jpeg",3,4,3,1,"Instruments",2,"stim/objects/Instruments/flutetrans2.png",4,"right","left",0.49000001,0,0,1
"493",410,2,403,0.9,"stim/41.jpeg",4,1,3,2,"HouseObjects",1,"stim/objects/HouseObjects/dustpan.png",2,"left","left",0.719000101,1,1,1
"494",411,2,404,0.9,"stim/32.jpeg",3,2,3,2,"Instruments",2,"stim/objects/Instruments/grandpiano.png",1,"right","right",0.56400013,1,1,1
"495",412,2,405,0.5,"stim/61.jpeg",6,1,1,1,"HouseObjects",1,"stim/objects/HouseObjects/teapot.png",1,"left","right",0.642000198,0,0,1
"496",413,2,406,0.7,"stim/14.jpeg",1,4,2,2,"Instruments",2,"stim/objects/Instruments/cymbal.png",2,"right","right",0.582999945,1,1,1
"497",414,2,407,0.3,"stim/12.jpeg",1,2,2,1,"HouseObjects",1,"stim/objects/HouseObjects/bleachbottle2.png",4,"left","right",0.55099988,0,0,1
"498",415,2,408,0.9,"stim/43.jpeg",4,3,3,2,"HouseObjects",1,"stim/objects/HouseObjects/dustpan.png",2,"left","left",0.600999832,1,1,1
"499",416,2,409,0.1,"stim/41.jpeg",4,1,3,1,"Instruments",2,"stim/objects/Instruments/timbal2.png",1,"right","left",0.510999918,0,0,1
"500",417,2,410,0.9,"stim/34.jpeg",3,4,3,2,"Instruments",2,"stim/objects/Instruments/flutetrans.png",4,"right","right",0.497999907,1,1,1
"501",418,2,411,0.9,"stim/42.jpeg",4,2,3,2,"HouseObjects",1,"stim/objects/HouseObjects/garbagebin.png",1,"left","left",0.909999847,1,1,1
"502",419,2,412,0.7,"stim/21.jpeg",2,1,2,2,"HouseObjects",1,"stim/objects/HouseObjects/cushion.png",2,"left","left",0.697000027,1,1,1
"503",420,2,413,0.5,"stim/62.jpeg",6,2,1,2,"HouseObjects",1,"stim/objects/HouseObjects/bucket.png",4,"left","left",0.627000093,1,1,1
"504",421,2,414,0.9,"stim/34.jpeg",3,4,3,2,"Instruments",2,"stim/objects/Instruments/grandpiano.png",4,"right","right",0.487999916,1,1,1
"505",422,2,415,0.5,"stim/52.jpeg",5,2,1,1,"Instruments",2,"stim/objects/Instruments/guitarcase.png",3,"right","right",0.675000191,1,1,1
"506",423,2,416,0.9,"stim/41.jpeg",4,1,3,2,"HouseObjects",1,"stim/objects/HouseObjects/doormat.png",2,"left","left",0.519999981,1,1,1
"507",424,2,417,0.9,"stim/42.jpeg",4,2,3,2,"HouseObjects",1,"stim/objects/HouseObjects/glass.png",2,"left","left",0.520999908,1,1,1
"508",425,2,418,0.9,"stim/44.jpeg",4,4,3,2,"HouseObjects",1,"stim/objects/HouseObjects/flyswatter.png",3,"left","left",0.720999956,1,1,1
"509",426,2,419,0.7,"stim/14.jpeg",1,4,2,2,"Instruments",2,"stim/objects/Instruments/doublebass.png",4,"right","left",0.485999823,0,0,1
"510",427,2,420,0.9,"stim/34.jpeg",3,4,3,1,"Instruments",2,"stim/objects/Instruments/guitarcase2.png",4,"right","right",0.41899991,1,1,1
"511",428,2,421,0.9,"stim/42.jpeg",4,2,3,1,"HouseObjects",1,"stim/objects/HouseObjects/wateringcan2.png",4,"left","left",0.63499999,1,1,1
"512",429,2,422,0.9,"stim/33.jpeg",3,3,3,2,"Instruments",2,"stim/objects/Instruments/flutetrans.png",2,"right","right",0.494999886,1,1,1
"513",430,2,423,0.5,"stim/63.jpeg",6,3,1,2,"Instruments",2,"stim/objects/Instruments/cello.png",1,"right","left",0.60800004,0,0,1
"514",431,2,424,0.9,"stim/31.jpeg",3,1,3,2,"Instruments",2,"stim/objects/Instruments/flutetrans.png",3,"right","right",0.625999928,1,1,1
"515",432,2,425,0.5,"stim/54.jpeg",5,4,1,2,"HouseObjects",1,"stim/objects/HouseObjects/basket.png",1,"left","right",0.686999798,0,0,1
"516",433,2,426,0.9,"stim/42.jpeg",4,2,3,2,"HouseObjects",1,"stim/objects/HouseObjects/garbagebin.png",2,"left","left",0.536999941,1,1,1
"517",434,2,427,0.9,"stim/41.jpeg",4,1,3,2,"HouseObjects",1,"stim/objects/HouseObjects/flyswatter.png",1,"left","left",0.534000158,1,1,1
"518",435,2,428,0.7,"stim/14.jpeg",1,4,2,1,"Instruments",2,"stim/objects/Instruments/violin.png",2,"right","right",0.590999842,1,1,1
"519",436,2,429,0.9,"stim/43.jpeg",4,3,3,2,"HouseObjects",1,"stim/objects/HouseObjects/doormat.png",4,"left","left",0.61500001,1,1,1
"520",437,2,430,0.9,"stim/41.jpeg",4,1,3,1,"HouseObjects",1,"stim/objects/HouseObjects/vacuumcleaner2.png",2,"left","left",0.606999874,1,1,1
"521",438,2,431,0.9,"stim/32.jpeg",3,2,3,2,"Instruments",2,"stim/objects/Instruments/flute.png",2,"right","right",0.614000082,1,1,1
"522",439,2,432,0.1,"stim/44.jpeg",4,4,3,1,"Instruments",2,"stim/objects/Instruments/xylophone2.png",2,"right","left",0.569000006,0,0,1
"523",440,2,433,0.9,"stim/43.jpeg",4,3,3,2,"HouseObjects",1,"stim/objects/HouseObjects/glass.png",4,"left","left",0.460000038,1,1,1
"524",441,2,434,0.9,"stim/44.jpeg",4,4,3,2,"HouseObjects",1,"stim/objects/HouseObjects/dustpan.png",3,"left","left",0.45600009,1,1,1
"525",442,2,435,0.5,"stim/62.jpeg",6,2,1,2,"Instruments",2,"stim/objects/Instruments/clarinet.png",2,"right","",NA,0,0,1
"526",443,2,436,0.9,"stim/44.jpeg",4,4,3,2,"HouseObjects",1,"stim/objects/HouseObjects/garbagebin.png",3,"left","left",0.519000053,1,1,1
"527",444,2,437,0.9,"stim/43.jpeg",4,3,3,2,"HouseObjects",1,"stim/objects/HouseObjects/garbagebin.png",2,"left","left",0.542999983,1,1,1
"528",445,2,438,0.3,"stim/23.jpeg",2,3,2,1,"Instruments",2,"stim/objects/Instruments/cello2.png",3,"right","left",0.470999956,0,0,1
"529",446,2,439,0.9,"stim/42.jpeg",4,2,3,2,"HouseObjects",1,"stim/objects/HouseObjects/flyswatter.png",2,"left","left",0.648000002,1,1,1
"530",447,2,440,0.9,"stim/42.jpeg",4,2,3,2,"HouseObjects",1,"stim/objects/HouseObjects/dustpan.png",1,"left","left",0.514999866,1,1,1
"531",448,2,441,0.7,"stim/13.jpeg",1,3,2,2,"Instruments",2,"stim/objects/Instruments/electricguitar.png",2,"right","",NA,0,0,1
"532",449,2,442,0.9,"stim/43.jpeg",4,3,3,2,"HouseObjects",1,"stim/objects/HouseObjects/doormat.png",3,"left","left",0.540999889,1,1,1
"533",450,2,443,0.7,"stim/12.jpeg",1,2,2,1,"Instruments",2,"stim/objects/Instruments/trumpet.png",4,"right","right",0.501999855,1,1,1
"534",451,2,444,0.7,"stim/23.jpeg",2,3,2,1,"HouseObjects",1,"stim/objects/HouseObjects/coffee2.png",2,"left","left",0.506000042,1,1,1
"535",452,2,445,0.1,"stim/33.jpeg",3,3,3,1,"HouseObjects",1,"stim/objects/HouseObjects/hairdryer2.png",3,"left","right",0.568000078,0,0,1
"536",453,2,446,0.5,"stim/52.jpeg",5,2,1,1,"Instruments",2,"stim/objects/Instruments/saxophone.png",2,"right","left",0.460000038,0,0,1
"537",454,2,447,0.7,"stim/12.jpeg",1,2,2,2,"Instruments",2,"stim/objects/Instruments/drums.png",4,"right","right",0.558000088,1,1,1
"538",455,2,448,0.9,"stim/33.jpeg",3,3,3,2,"Instruments",2,"stim/objects/Instruments/gong.png",3,"right","right",0.486000061,1,1,1
"539",456,2,449,0.7,"stim/13.jpeg",1,3,2,1,"Instruments",2,"stim/objects/Instruments/tuba.png",3,"right","right",0.467999935,1,1,1
"540",457,2,450,0.9,"stim/43.jpeg",4,3,3,2,"HouseObjects",1,"stim/objects/HouseObjects/doormat.png",1,"left","left",0.63499999,1,1,1
"541",458,2,451,0.7,"stim/14.jpeg",1,4,2,2,"Instruments",2,"stim/objects/Instruments/electricdrumset.png",2,"right","",NA,0,0,1
"542",459,2,452,0.7,"stim/12.jpeg",1,2,2,1,"Instruments",2,"stim/objects/Instruments/xylophone.png",3,"right","right",0.465999842,1,1,1
"543",460,2,453,0.9,"stim/44.jpeg",4,4,3,2,"HouseObjects",1,"stim/objects/HouseObjects/flyswatter.png",2,"left","left",0.433000088,1,1,1
"544",461,2,454,0.7,"stim/24.jpeg",2,4,2,1,"HouseObjects",1,"stim/objects/HouseObjects/cushion2.png",4,"left","left",0.534999847,1,1,1
"545",462,2,455,0.9,"stim/42.jpeg",4,2,3,2,"HouseObjects",1,"stim/objects/HouseObjects/glass.png",2,"left","left",0.492999792,1,1,1
"546",463,2,456,0.9,"stim/34.jpeg",3,4,3,2,"Instruments",2,"stim/objects/Instruments/flute.png",2,"right","right",0.536000013,1,1,1
"547",464,2,457,0.9,"stim/41.jpeg",4,1,3,2,"HouseObjects",1,"stim/objects/HouseObjects/doormat.png",4,"left","left",0.636000156,1,1,1
"548",465,2,458,0.3,"stim/22.jpeg",2,2,2,1,"Instruments",2,"stim/objects/Instruments/cornet2.png",4,"right","left",0.53399992,0,0,1
"549",466,2,459,0.9,"stim/34.jpeg",3,4,3,2,"Instruments",2,"stim/objects/Instruments/grandpiano.png",1,"right","right",0.607000113,1,1,1
"550",467,2,460,0.9,"stim/44.jpeg",4,4,3,2,"HouseObjects",1,"stim/objects/HouseObjects/flyswatter.png",3,"left","left",0.585999966,1,1,1
"551",468,2,461,0.9,"stim/32.jpeg",3,2,3,2,"Instruments",2,"stim/objects/Instruments/flutetrans.png",1,"right","right",0.464999914,1,1,1
"552",469,2,462,0.5,"stim/64.jpeg",6,4,1,2,"HouseObjects",1,"stim/objects/HouseObjects/blender.png",1,"left","left",0.697000027,1,1,1
"553",470,2,463,0.9,"stim/41.jpeg",4,1,3,2,"HouseObjects",1,"stim/objects/HouseObjects/dustpan.png",2,"left","left",0.467000008,1,1,1
"554",471,2,464,0.9,"stim/44.jpeg",4,4,3,2,"HouseObjects",1,"stim/objects/HouseObjects/doormat.png",2,"left","left",0.868000031,1,1,1
"555",472,2,465,0.9,"stim/44.jpeg",4,4,3,2,"HouseObjects",1,"stim/objects/HouseObjects/garbagebin.png",3,"left","left",0.453000069,1,1,1
"556",473,2,466,0.9,"stim/44.jpeg",4,4,3,2,"HouseObjects",1,"stim/objects/HouseObjects/glass.png",4,"left","left",0.440000057,1,1,1
"557",474,2,467,0.5,"stim/64.jpeg",6,4,1,1,"Instruments",2,"stim/objects/Instruments/trombone.png",1,"right","left",0.491999865,0,0,1
"558",475,2,468,0.3,"stim/24.jpeg",2,4,2,1,"Instruments",2,"stim/objects/Instruments/chime2.png",1,"right","left",0.508999825,0,0,1
"559",476,2,469,0.9,"stim/33.jpeg",3,3,3,2,"Instruments",2,"stim/objects/Instruments/flute.png",1,"right","right",0.51699996,1,1,1
"560",477,2,470,0.7,"stim/22.jpeg",2,2,2,1,"HouseObjects",1,"stim/objects/HouseObjects/clothespin2.png",3,"left","left",0.357000113,1,1,1
"561",478,2,471,0.9,"stim/32.jpeg",3,2,3,2,"Instruments",2,"stim/objects/Instruments/gong.png",4,"right","right",0.491000175,1,1,1
"562",479,2,472,0.9,"stim/32.jpeg",3,2,3,2,"Instruments",2,"stim/objects/Instruments/gong.png",3,"right","right",0.610999823,1,1,1
"563",480,2,473,0.9,"stim/33.jpeg",3,3,3,2,"Instruments",2,"stim/objects/Instruments/flute.png",1,"right","right",0.437999964,1,1,1
"564",481,2,474,0.9,"stim/41.jpeg",4,1,3,2,"HouseObjects",1,"stim/objects/HouseObjects/flyswatter.png",1,"left","right",0.745000124,0,0,1
"565",482,2,475,0.7,"stim/13.jpeg",1,3,2,1,"Instruments",2,"stim/objects/Instruments/accordion2.png",2,"right","right",0.406999826,1,1,1
"566",483,2,476,0.9,"stim/41.jpeg",4,1,3,2,"HouseObjects",1,"stim/objects/HouseObjects/doormat.png",2,"left","left",0.526000023,1,1,1
"567",484,2,477,0.7,"stim/23.jpeg",2,3,2,1,"HouseObjects",1,"stim/objects/HouseObjects/bucket2.png",3,"left","left",0.438999891,1,1,1
"568",485,2,478,0.9,"stim/33.jpeg",3,3,3,1,"Instruments",2,"stim/objects/Instruments/hihat2.png",3,"right","right",0.657999992,1,1,1
"569",486,2,479,0.7,"stim/22.jpeg",2,2,2,2,"HouseObjects",1,"stim/objects/HouseObjects/cushion.png",3,"left","left",0.328999996,1,1,1
"570",487,2,480,0.9,"stim/44.jpeg",4,4,3,2,"HouseObjects",1,"stim/objects/HouseObjects/garbagebin.png",3,"left","left",0.337000132,1,1,1
"571",488,2,481,0.7,"stim/11.jpeg",1,1,2,2,"Instruments",2,"stim/objects/Instruments/doublebass.png",1,"right","right",0.598999977,1,1,1
"572",489,2,482,0.5,"stim/51.jpeg",5,1,1,2,"Instruments",2,"stim/objects/Instruments/acousticguitar.png",3,"right","right",0.621000051,1,1,1
"573",490,2,483,0.1,"stim/34.jpeg",3,4,3,1,"HouseObjects",1,"stim/objects/HouseObjects/handbrush2.png",3,"left","right",0.585999966,0,0,1
"574",491,2,484,0.9,"stim/33.jpeg",3,3,3,2,"Instruments",2,"stim/objects/Instruments/gong.png",3,"right","right",0.516000032,1,1,1
"575",492,2,485,0.9,"stim/32.jpeg",3,2,3,2,"Instruments",2,"stim/objects/Instruments/grandpiano.png",1,"right","right",0.470000029,1,1,1
"576",493,2,486,0.9,"stim/43.jpeg",4,3,3,2,"HouseObjects",1,"stim/objects/HouseObjects/glass.png",3,"left","left",0.506999969,1,1,1
"577",494,2,487,0.9,"stim/31.jpeg",3,1,3,2,"Instruments",2,"stim/objects/Instruments/flutetrans.png",1,"right","right",0.44299984,1,1,1
"578",495,2,488,0.9,"stim/34.jpeg",3,4,3,2,"Instruments",2,"stim/objects/Instruments/gong.png",4,"right","right",0.453999996,1,1,1
"579",496,2,489,0.1,"stim/42.jpeg",4,2,3,1,"Instruments",2,"stim/objects/Instruments/triangle2.png",1,"right","left",0.584000111,0,0,1
"580",497,2,490,0.9,"stim/43.jpeg",4,3,3,2,"HouseObjects",1,"stim/objects/HouseObjects/dustpan.png",2,"left","left",0.514000177,1,1,1
"581",498,2,491,0.7,"stim/21.jpeg",2,1,2,2,"HouseObjects",1,"stim/objects/HouseObjects/dishsoap.png",3,"left","left",0.453999996,1,1,1
"582",499,2,492,0.5,"stim/62.jpeg",6,2,1,2,"Instruments",2,"stim/objects/Instruments/bassguitar.png",4,"right","left",0.544999838,0,0,1
"583",500,2,493,0.9,"stim/34.jpeg",3,4,3,2,"Instruments",2,"stim/objects/Instruments/flutetrans.png",3,"right","right",0.537999868,1,1,1
"584",501,2,494,0.5,"stim/64.jpeg",6,4,1,2,"HouseObjects",1,"stim/objects/HouseObjects/bottle.png",3,"left","left",0.548000097,1,1,1
"585",502,2,495,0.9,"stim/44.jpeg",4,4,3,2,"HouseObjects",1,"stim/objects/HouseObjects/dustpan.png",1,"left","left",0.539999962,1,1,1
"586",503,2,496,0.5,"stim/54.jpeg",5,4,1,2,"Instruments",2,"stim/objects/Instruments/banjo.png",2,"right","left",0.608999968,0,0,1
"587",504,2,497,0.9,"stim/44.jpeg",4,4,3,2,"HouseObjects",1,"stim/objects/HouseObjects/dustpan.png",2,"left","left",0.753999949,1,1,1
"588",505,2,498,0.5,"stim/63.jpeg",6,3,1,2,"HouseObjects",1,"stim/objects/HouseObjects/bucket.png",2,"left","left",0.549000025,1,1,1
"589",506,2,499,0.7,"stim/21.jpeg",2,1,2,1,"HouseObjects",1,"stim/objects/HouseObjects/bottle2.png",1,"left","left",0.568000078,1,1,1
"590",507,2,500,0.9,"stim/44.jpeg",4,4,3,1,"HouseObjects",1,"stim/objects/HouseObjects/towel2.png",3,"left","left",0.519000053,1,1,1
"591",508,2,501,0.1,"stim/43.jpeg",4,3,3,1,"Instruments",2,"stim/objects/Instruments/vuvuzela2.png",3,"right","left",0.545000076,0,0,1
"592",509,2,502,0.9,"stim/33.jpeg",3,3,3,2,"Instruments",2,"stim/objects/Instruments/grandpiano.png",2,"right","right",0.515000105,1,1,1
"593",510,2,503,0.9,"stim/33.jpeg",3,3,3,2,"Instruments",2,"stim/objects/Instruments/grandpiano.png",2,"right","right",0.444999933,1,1,1
"594",511,2,504,0.7,"stim/11.jpeg",1,1,2,1,"Instruments",2,"stim/objects/Instruments/vuvuzela.png",2,"right","right",0.572000027,1,1,1
"595",512,2,505,0.9,"stim/41.jpeg",4,1,3,2,"HouseObjects",1,"stim/objects/HouseObjects/dustpan.png",2,"left","left",0.541000128,1,1,1
"596",513,2,506,0.9,"stim/41.jpeg",4,1,3,2,"HouseObjects",1,"stim/objects/HouseObjects/glass.png",4,"left","left",0.458999872,1,1,1
"597",514,2,507,0.7,"stim/12.jpeg",1,2,2,2,"Instruments",2,"stim/objects/Instruments/electricdrumset.png",1,"right","right",0.526000023,1,1,1
"598",515,2,508,0.9,"stim/33.jpeg",3,3,3,2,"Instruments",2,"stim/objects/Instruments/frenchhorn.png",3,"right","right",0.477999926,1,1,1
"599",516,2,509,0.3,"stim/21.jpeg",2,1,2,1,"Instruments",2,"stim/objects/Instruments/clarinet2.png",1,"right","left",0.446000099,0,0,1
"600",517,2,510,0.9,"stim/31.jpeg",3,1,3,2,"Instruments",2,"stim/objects/Instruments/gong.png",3,"right","right",0.496000051,1,1,1
"601",518,2,511,0.9,"stim/41.jpeg",4,1,3,2,"HouseObjects",1,"stim/objects/HouseObjects/flyswatter.png",1,"left","left",0.476000071,1,1,1
"602",519,2,512,0.9,"stim/32.jpeg",3,2,3,2,"Instruments",2,"stim/objects/Instruments/frenchhorn.png",1,"right","right",0.510999918,1,1,1
"603",520,2,513,0.5,"stim/62.jpeg",6,2,1,2,"Instruments",2,"stim/objects/Instruments/cornet.png",2,"right","left",0.518000126,0,0,1
"604",521,2,514,0.7,"stim/13.jpeg",1,3,2,2,"Instruments",2,"stim/objects/Instruments/drums.png",2,"right","left",0.482999802,0,0,1
"605",522,2,515,0.9,"stim/44.jpeg",4,4,3,2,"HouseObjects",1,"stim/objects/HouseObjects/glass.png",2,"left","left",0.493999958,1,1,1
"606",523,2,516,0.3,"stim/11.jpeg",1,1,2,1,"HouseObjects",1,"stim/objects/HouseObjects/thermometer.png",1,"left","right",0.496999979,0,0,1
"607",524,2,517,0.9,"stim/33.jpeg",3,3,3,2,"Instruments",2,"stim/objects/Instruments/grandpiano.png",3,"right","right",0.48300004,1,1,1
"608",525,2,518,0.9,"stim/34.jpeg",3,4,3,2,"Instruments",2,"stim/objects/Instruments/frenchhorn.png",1,"right","right",0.513000011,1,1,1
"609",526,2,519,0.5,"stim/64.jpeg",6,4,1,1,"HouseObjects",1,"stim/objects/HouseObjects/spraybottle.png",3,"left","left",0.580999851,1,1,1
"610",527,2,520,0.1,"stim/34.jpeg",3,4,3,1,"HouseObjects",1,"stim/objects/HouseObjects/garbagebin2.png",4,"left","right",0.497999907,0,0,1
"611",528,2,521,0.7,"stim/14.jpeg",1,4,2,1,"Instruments",2,"stim/objects/Instruments/acousticguitar2.png",4,"right","right",0.364000082,1,1,1
"612",529,2,522,0.9,"stim/43.jpeg",4,3,3,2,"HouseObjects",1,"stim/objects/HouseObjects/flyswatter.png",4,"left","left",0.628000021,1,1,1
"613",530,2,523,0.9,"stim/31.jpeg",3,1,3,1,"Instruments",2,"stim/objects/Instruments/harmonica2.png",1,"right","right",0.881000042,1,1,1
"614",531,2,524,0.7,"stim/11.jpeg",1,1,2,2,"Instruments",2,"stim/objects/Instruments/cymbal.png",4,"right","right",0.40899992,1,1,1
"615",532,2,525,0.5,"stim/61.jpeg",6,1,1,1,"HouseObjects",1,"stim/objects/HouseObjects/saw.png",2,"left","right",0.539999962,0,0,1
"616",533,2,526,0.5,"stim/63.jpeg",6,3,1,1,"Instruments",2,"stim/objects/Instruments/triangle.png",4,"right","left",0.77699995,0,0,1
"617",534,2,527,0.9,"stim/41.jpeg",4,1,3,2,"HouseObjects",1,"stim/objects/HouseObjects/garbagebin.png",3,"left","left",0.569999933,1,1,1
"618",535,2,528,0.9,"stim/31.jpeg",3,1,3,2,"Instruments",2,"stim/objects/Instruments/flute.png",2,"right","right",0.519000053,1,1,1
"619",536,2,529,0.9,"stim/43.jpeg",4,3,3,2,"HouseObjects",1,"stim/objects/HouseObjects/garbagebin.png",3,"left","right",0.572999954,0,0,1
"620",537,2,530,0.9,"stim/41.jpeg",4,1,3,2,"HouseObjects",1,"stim/objects/HouseObjects/dustpan.png",2,"left","left",0.539999962,1,1,1
"621",538,2,531,0.9,"stim/43.jpeg",4,3,3,2,"HouseObjects",1,"stim/objects/HouseObjects/garbagebin.png",3,"left","left",0.453999996,1,1,1
"622",539,2,532,0.1,"stim/31.jpeg",3,1,3,1,"HouseObjects",1,"stim/objects/HouseObjects/doormat2.png",1,"left","right",0.487999916,0,0,1
"623",540,2,533,0.9,"stim/32.jpeg",3,2,3,2,"Instruments",2,"stim/objects/Instruments/grandpiano.png",2,"right","right",0.583999872,1,1,1
"624",541,2,534,0.9,"stim/42.jpeg",4,2,3,2,"HouseObjects",1,"stim/objects/HouseObjects/dustpan.png",4,"left","left",0.561000109,1,1,1
"625",542,2,535,0.9,"stim/34.jpeg",3,4,3,2,"Instruments",2,"stim/objects/Instruments/flute.png",4,"right","right",0.733999968,1,1,1
"626",543,2,536,0.9,"stim/33.jpeg",3,3,3,1,"Instruments",2,"stim/objects/Instruments/grandpiano2.png",2,"right","right",0.453000069,1,1,1
"627",544,2,537,0.3,"stim/12.jpeg",1,2,2,1,"HouseObjects",1,"stim/objects/HouseObjects/ashtray2.png",2,"left","right",0.54700017,0,0,1
"628",545,2,538,0.9,"stim/31.jpeg",3,1,3,2,"Instruments",2,"stim/objects/Instruments/gong.png",3,"right","right",0.51699996,1,1,1
"629",546,2,539,0.9,"stim/31.jpeg",3,1,3,2,"Instruments",2,"stim/objects/Instruments/frenchhorn.png",1,"right","right",0.44900012,1,1,1
"630",547,2,540,0.7,"stim/11.jpeg",1,1,2,1,"Instruments",2,"stim/objects/Instruments/balalaika2.png",4,"right","right",0.410000086,1,1,1
"631",548,2,541,0.9,"stim/33.jpeg",3,3,3,2,"Instruments",2,"stim/objects/Instruments/flutetrans.png",2,"right","right",0.487999916,1,1,1
"632",549,2,542,0.9,"stim/31.jpeg",3,1,3,2,"Instruments",2,"stim/objects/Instruments/flute.png",2,"right","right",0.443000078,1,1,1
"633",550,2,543,0.9,"stim/32.jpeg",3,2,3,2,"Instruments",2,"stim/objects/Instruments/flute.png",2,"right","right",0.545000076,1,1,1
"634",551,2,544,0.9,"stim/42.jpeg",4,2,3,2,"HouseObjects",1,"stim/objects/HouseObjects/dustpan.png",3,"left","left",0.617000103,1,1,1
"635",552,2,545,0.9,"stim/31.jpeg",3,1,3,2,"Instruments",2,"stim/objects/Instruments/frenchhorn.png",2,"right","right",0.444999933,1,1,1
"636",553,2,546,0.9,"stim/32.jpeg",3,2,3,2,"Instruments",2,"stim/objects/Instruments/gong.png",4,"right","right",0.410000086,1,1,1
"637",554,2,547,0.5,"stim/54.jpeg",5,4,1,2,"Instruments",2,"stim/objects/Instruments/bassdrum.png",3,"right","left",0.446000099,0,0,1
"638",555,2,548,0.9,"stim/32.jpeg",3,2,3,2,"Instruments",2,"stim/objects/Instruments/flutetrans.png",4,"right","right",0.596999884,1,1,1
"639",556,2,549,0.9,"stim/43.jpeg",4,3,3,2,"HouseObjects",1,"stim/objects/HouseObjects/doormat.png",3,"left","left",0.45600009,1,1,1
"640",557,2,550,0.9,"stim/31.jpeg",3,1,3,2,"Instruments",2,"stim/objects/Instruments/gong.png",3,"right","right",0.513000011,1,1,1
"641",558,2,551,0.5,"stim/61.jpeg",6,1,1,1,"Instruments",2,"stim/objects/Instruments/tambourine.png",2,"right","right",0.51699996,1,1,1
"642",559,2,552,0.5,"stim/52.jpeg",5,2,1,1,"HouseObjects",1,"stim/objects/HouseObjects/handvacuum.png",4,"left","left",0.674999952,1,1,1
"643",560,2,553,0.7,"stim/23.jpeg",2,3,2,2,"HouseObjects",1,"stim/objects/HouseObjects/coffee.png",3,"left","left",0.548000097,1,1,1
"644",561,2,554,0.9,"stim/44.jpeg",4,4,3,2,"HouseObjects",1,"stim/objects/HouseObjects/doormat.png",4,"left","left",0.588000059,1,1,1
"645",562,2,555,0.9,"stim/42.jpeg",4,2,3,2,"HouseObjects",1,"stim/objects/HouseObjects/glass.png",3,"left","left",0.570999861,1,1,1
"646",563,2,556,0.9,"stim/44.jpeg",4,4,3,2,"HouseObjects",1,"stim/objects/HouseObjects/glass.png",3,"left","left",0.414000034,1,1,1
"647",564,2,557,0.9,"stim/41.jpeg",4,1,3,2,"HouseObjects",1,"stim/objects/HouseObjects/glass.png",2,"left","left",0.45299983,1,1,1
"648",565,2,558,0.9,"stim/32.jpeg",3,2,3,2,"Instruments",2,"stim/objects/Instruments/flutetrans.png",1,"right","right",0.463999987,1,1,1
"649",566,2,559,0.7,"stim/24.jpeg",2,4,2,2,"HouseObjects",1,"stim/objects/HouseObjects/cushion.png",1,"left","left",0.54399991,1,1,1
"650",567,2,560,0.5,"stim/53.jpeg",5,3,1,1,"HouseObjects",1,"stim/objects/HouseObjects/glassmop.png",3,"left","left",0.434999943,1,1,1
"651",568,2,561,0.9,"stim/42.jpeg",4,2,3,2,"HouseObjects",1,"stim/objects/HouseObjects/flyswatter.png",1,"left","left",0.473999977,1,1,1
"652",569,2,562,0.5,"stim/53.jpeg",5,3,1,2,"HouseObjects",1,"stim/objects/HouseObjects/ballofstring.png",3,"left","right",0.582999945,0,0,1
"653",570,2,563,0.9,"stim/33.jpeg",3,3,3,2,"Instruments",2,"stim/objects/Instruments/frenchhorn.png",1,"right","right",0.546000004,1,1,1
"654",571,2,564,0.1,"stim/44.jpeg",4,4,3,1,"Instruments",2,"stim/objects/Instruments/trumpet2.png",1,"right","left",0.496000051,0,0,1
"655",572,2,565,0.9,"stim/42.jpeg",4,2,3,2,"HouseObjects",1,"stim/objects/HouseObjects/garbagebin.png",4,"left","left",0.539999962,1,1,1
"656",573,2,566,0.1,"stim/43.jpeg",4,3,3,1,"Instruments",2,"stim/objects/Instruments/speaker2.png",1,"right","left",0.404999971,0,0,1
"657",574,2,567,0.9,"stim/34.jpeg",3,4,3,2,"Instruments",2,"stim/objects/Instruments/frenchhorn.png",4,"right","right",0.523999929,1,1,1
"658",575,2,568,0.9,"stim/31.jpeg",3,1,3,2,"Instruments",2,"stim/objects/Instruments/flute.png",2,"right","right",0.470999956,1,1,1
"659",576,2,569,0.9,"stim/31.jpeg",3,1,3,2,"Instruments",2,"stim/objects/Instruments/gong.png",4,"right","right",0.605999947,1,1,1
"660",577,2,570,0.1,"stim/31.jpeg",3,1,3,1,"HouseObjects",1,"stim/objects/HouseObjects/handvacuum2.png",2,"left","right",0.498999834,0,0,1
"661",248,3,241,0.7,"stim/41.jpeg",4,1,2,2,"Instruments",1,"stim/objects/Instruments/electricguitar3.png",2,"left","right",0.625999689,0,0,1
"662",249,3,242,0.7,"stim/33.jpeg",3,3,2,1,"HouseObjects",2,"stim/objects/HouseObjects/ashtray4.png",1,"right","right",0.736999989,1,1,1
"663",250,3,243,0.5,"stim/24.jpeg",2,4,1,2,"Instruments",1,"stim/objects/Instruments/bassguitar3.png",2,"left","left",0.715999842,1,1,1
"664",251,3,244,0.3,"stim/33.jpeg",3,3,2,1,"Instruments",1,"stim/objects/Instruments/acousticguitar4.png",3,"left","right",0.61500001,0,0,1
"665",252,3,245,0.7,"stim/42.jpeg",4,2,2,1,"Instruments",1,"stim/objects/Instruments/chime4.png",4,"left","left",0.618999958,1,1,1
"666",253,3,246,0.7,"stim/33.jpeg",3,3,2,2,"HouseObjects",2,"stim/objects/HouseObjects/cushion3.png",1,"right","",NA,0,0,1
"667",254,3,247,0.5,"stim/13.jpeg",1,3,1,1,"Instruments",1,"stim/objects/Instruments/guitarcase3.png",1,"left","left",0.646999836,1,1,1
"668",255,3,248,0.9,"stim/63.jpeg",6,3,3,2,"Instruments",1,"stim/objects/Instruments/grandpiano3.png",3,"left","left",0.549999714,1,1,1
"669",256,3,249,0.9,"stim/52.jpeg",5,2,3,2,"HouseObjects",2,"stim/objects/HouseObjects/dustpan3.png",3,"right","right",0.661999702,1,1,1
"670",257,3,250,0.5,"stim/14.jpeg",1,4,1,1,"Instruments",1,"stim/objects/Instruments/harmonica3.png",3,"left","left",0.508999825,1,1,1
"671",258,3,251,0.9,"stim/51.jpeg",5,1,3,2,"HouseObjects",2,"stim/objects/HouseObjects/glass3.png",1,"right","right",0.565999746,1,1,1
"672",259,3,252,0.5,"stim/21.jpeg",2,1,1,2,"Instruments",1,"stim/objects/Instruments/chime3.png",2,"left","left",0.671000004,1,1,1
"673",260,3,253,0.9,"stim/61.jpeg",6,1,3,2,"Instruments",1,"stim/objects/Instruments/flutetrans3.png",1,"left","left",0.597999811,1,1,1
"674",261,3,254,0.7,"stim/41.jpeg",4,1,2,1,"Instruments",1,"stim/objects/Instruments/electricguitar4.png",3,"left","left",0.701999903,1,1,1
"675",262,3,255,0.5,"stim/24.jpeg",2,4,1,1,"HouseObjects",2,"stim/objects/HouseObjects/match3.png",3,"right","",NA,0,0,1
"676",263,3,256,0.9,"stim/64.jpeg",6,4,3,2,"Instruments",1,"stim/objects/Instruments/grandpiano3.png",1,"left","left",0.559999943,1,1,1
"677",264,3,257,0.7,"stim/34.jpeg",3,4,2,1,"HouseObjects",2,"stim/objects/HouseObjects/towel3.png",2,"right","right",0.537999868,1,1,1
"678",265,3,258,0.7,"stim/44.jpeg",4,4,2,2,"Instruments",1,"stim/objects/Instruments/drums3.png",4,"left","left",0.55099988,1,1,1
"679",266,3,259,0.9,"stim/53.jpeg",5,3,3,2,"HouseObjects",2,"stim/objects/HouseObjects/garbagebin3.png",3,"right","left",0.484999895,0,0,1
"680",267,3,260,0.9,"stim/52.jpeg",5,2,3,2,"HouseObjects",2,"stim/objects/HouseObjects/dustpan3.png",1,"right","right",0.532999992,1,1,1
"681",268,3,261,0.7,"stim/44.jpeg",4,4,2,1,"Instruments",1,"stim/objects/Instruments/cornet4.png",4,"left","left",0.677999735,1,1,1
"682",269,3,262,0.9,"stim/61.jpeg",6,1,3,1,"Instruments",1,"stim/objects/Instruments/laud4.png",2,"left","left",0.704999685,1,1,1
"683",270,3,263,0.7,"stim/34.jpeg",3,4,2,2,"HouseObjects",2,"stim/objects/HouseObjects/dishsoap3.png",4,"right","",NA,0,0,1
"684",271,3,264,0.5,"stim/22.jpeg",2,2,1,2,"Instruments",1,"stim/objects/Instruments/chime3.png",1,"left","right",0.282999992,0,0,1
"685",272,3,265,0.9,"stim/64.jpeg",6,4,3,2,"Instruments",1,"stim/objects/Instruments/grandpiano3.png",3,"left","left",0.661000013,1,1,1
"686",273,3,266,0.9,"stim/52.jpeg",5,2,3,2,"HouseObjects",2,"stim/objects/HouseObjects/flyswatter3.png",1,"right","right",0.563999891,1,1,1
"687",274,3,267,0.7,"stim/32.jpeg",3,2,2,2,"HouseObjects",2,"stim/objects/HouseObjects/clothespin3.png",1,"right","right",0.710999966,1,1,1
"688",275,3,268,0.9,"stim/54.jpeg",5,4,3,1,"HouseObjects",2,"stim/objects/HouseObjects/iron4.png",2,"right","right",0.786999702,1,1,1
"689",276,3,269,0.5,"stim/21.jpeg",2,1,1,1,"Instruments",1,"stim/objects/Instruments/musicsheet3.png",1,"left","left",0.643999815,1,1,1
"690",277,3,270,0.5,"stim/14.jpeg",1,4,1,2,"HouseObjects",2,"stim/objects/HouseObjects/basket3.png",1,"right","right",0.56099987,1,1,1
"691",278,3,271,0.9,"stim/52.jpeg",5,2,3,2,"HouseObjects",2,"stim/objects/HouseObjects/flyswatter3.png",1,"right","right",0.664000034,1,1,1
"692",279,3,272,0.9,"stim/61.jpeg",6,1,3,2,"Instruments",1,"stim/objects/Instruments/grandpiano3.png",1,"left","left",0.556999922,1,1,1
"693",280,3,273,0.9,"stim/64.jpeg",6,4,3,2,"Instruments",1,"stim/objects/Instruments/frenchhorn3.png",3,"left","left",0.595999718,1,1,1
"694",281,3,274,0.9,"stim/52.jpeg",5,2,3,2,"HouseObjects",2,"stim/objects/HouseObjects/doormat3.png",2,"right","right",0.571999788,1,1,1
"695",282,3,275,0.3,"stim/33.jpeg",3,3,2,1,"Instruments",1,"stim/objects/Instruments/violin3.png",1,"left","right",0.633999825,0,0,1
"696",283,3,276,0.7,"stim/42.jpeg",4,2,2,2,"Instruments",1,"stim/objects/Instruments/electricguitar3.png",1,"left","left",0.662999868,1,1,1
"697",284,3,277,0.3,"stim/32.jpeg",3,2,2,1,"Instruments",1,"stim/objects/Instruments/bassdrum4.png",3,"left","right",0.691999674,0,0,1
"698",285,3,278,0.9,"stim/61.jpeg",6,1,3,2,"Instruments",1,"stim/objects/Instruments/flute3.png",2,"left","left",0.630999804,1,1,1
"699",286,3,279,0.1,"stim/53.jpeg",5,3,3,1,"Instruments",1,"stim/objects/Instruments/harmonica4.png",3,"left","left",0.510999918,1,1,1
"700",287,3,280,0.7,"stim/31.jpeg",3,1,2,2,"HouseObjects",2,"stim/objects/HouseObjects/coffee3.png",4,"right","right",0.65899992,1,1,1
"701",288,3,281,0.5,"stim/23.jpeg",2,3,1,2,"Instruments",1,"stim/objects/Instruments/cornet3.png",3,"left","right",0.716999769,0,0,1
"702",289,3,282,0.9,"stim/63.jpeg",6,3,3,2,"Instruments",1,"stim/objects/Instruments/flutetrans3.png",1,"left","left",0.622999907,1,1,1
"703",290,3,283,0.9,"stim/51.jpeg",5,1,3,2,"HouseObjects",2,"stim/objects/HouseObjects/glass3.png",3,"right","right",0.717999697,1,1,1
"704",291,3,284,0.7,"stim/31.jpeg",3,1,2,2,"HouseObjects",2,"stim/objects/HouseObjects/clothesdryingrack3.png",1,"right","right",0.799999714,1,1,1
"705",292,3,285,0.9,"stim/53.jpeg",5,3,3,2,"HouseObjects",2,"stim/objects/HouseObjects/flyswatter3.png",3,"right","right",0.622999668,1,1,1
"706",293,3,286,0.7,"stim/33.jpeg",3,3,2,2,"HouseObjects",2,"stim/objects/HouseObjects/dishsoap3.png",4,"right","right",0.785999775,1,1,1
"707",294,3,287,0.9,"stim/61.jpeg",6,1,3,2,"Instruments",1,"stim/objects/Instruments/flute3.png",1,"left","left",0.579999924,1,1,1
"708",295,3,288,0.9,"stim/53.jpeg",5,3,3,2,"HouseObjects",2,"stim/objects/HouseObjects/garbagebin3.png",4,"right","right",0.61199975,1,1,1
"709",296,3,289,0.9,"stim/64.jpeg",6,4,3,2,"Instruments",1,"stim/objects/Instruments/flute3.png",3,"left","left",0.572999954,1,1,1
"710",297,3,290,0.9,"stim/64.jpeg",6,4,3,2,"Instruments",1,"stim/objects/Instruments/gong3.png",2,"left","left",0.477999926,1,1,1
"711",298,3,291,0.9,"stim/63.jpeg",6,3,3,2,"Instruments",1,"stim/objects/Instruments/frenchhorn3.png",2,"left","left",0.483999729,1,1,1
"712",299,3,292,0.9,"stim/63.jpeg",6,3,3,2,"Instruments",1,"stim/objects/Instruments/flutetrans3.png",3,"left","left",0.421999693,1,1,1
"713",300,3,293,0.5,"stim/12.jpeg",1,2,1,2,"HouseObjects",2,"stim/objects/HouseObjects/barbecuelighter3.png",1,"right","left",0.563999653,0,0,1
"714",301,3,294,0.9,"stim/51.jpeg",5,1,3,2,"HouseObjects",2,"stim/objects/HouseObjects/garbagebin3.png",1,"right","right",0.628999949,1,1,1
"715",302,3,295,0.9,"stim/64.jpeg",6,4,3,2,"Instruments",1,"stim/objects/Instruments/frenchhorn3.png",3,"left","left",0.603999853,1,1,1
"716",303,3,296,0.9,"stim/63.jpeg",6,3,3,1,"Instruments",1,"stim/objects/Instruments/marimba4.png",3,"left","left",0.642999887,1,1,1
"717",304,3,297,0.1,"stim/62.jpeg",6,2,3,1,"HouseObjects",2,"stim/objects/HouseObjects/towel4.png",2,"right","left",0.605999708,0,0,1
"718",305,3,298,0.7,"stim/41.jpeg",4,1,2,1,"Instruments",1,"stim/objects/Instruments/cymbal4.png",2,"left","left",0.80099988,1,1,1
"719",306,3,299,0.3,"stim/41.jpeg",4,1,2,1,"HouseObjects",2,"stim/objects/HouseObjects/coffee4.png",3,"right","left",0.559999704,0,0,1
"720",307,3,300,0.9,"stim/63.jpeg",6,3,3,2,"Instruments",1,"stim/objects/Instruments/frenchhorn3.png",1,"left","left",0.650999784,1,1,1
"721",308,3,301,0.5,"stim/24.jpeg",2,4,1,1,"HouseObjects",2,"stim/objects/HouseObjects/ironingboard3.png",1,"right","right",0.652999878,1,1,1
"722",309,3,302,0.9,"stim/51.jpeg",5,1,3,2,"HouseObjects",2,"stim/objects/HouseObjects/garbagebin3.png",1,"right","right",0.592000008,1,1,1
"723",310,3,303,0.9,"stim/54.jpeg",5,4,3,1,"HouseObjects",2,"stim/objects/HouseObjects/dustpan4.png",2,"right","",NA,0,0,1
"724",311,3,304,0.9,"stim/61.jpeg",6,1,3,2,"Instruments",1,"stim/objects/Instruments/flute3.png",1,"left","left",0.025999784,1,1,1
"725",312,3,305,0.5,"stim/21.jpeg",2,1,1,2,"Instruments",1,"stim/objects/Instruments/cello3.png",4,"left","left",0.760999918,1,1,1
"726",313,3,306,0.9,"stim/52.jpeg",5,2,3,2,"HouseObjects",2,"stim/objects/HouseObjects/glass3.png",2,"right","right",0.618999958,1,1,1
"727",314,3,307,0.5,"stim/14.jpeg",1,4,1,2,"Instruments",1,"stim/objects/Instruments/balalaika3.png",1,"left","left",0.62899971,1,1,1
"728",315,3,308,0.9,"stim/53.jpeg",5,3,3,2,"HouseObjects",2,"stim/objects/HouseObjects/dustpan3.png",4,"right","right",0.66899991,1,1,1
"729",316,3,309,0.9,"stim/62.jpeg",6,2,3,2,"Instruments",1,"stim/objects/Instruments/frenchhorn3.png",4,"left","left",0.615999699,1,1,1
"730",317,3,310,0.5,"stim/11.jpeg",1,1,1,2,"HouseObjects",2,"stim/objects/HouseObjects/ashtray3.png",4,"right","right",0.56799984,1,1,1
"731",318,3,311,0.9,"stim/51.jpeg",5,1,3,2,"HouseObjects",2,"stim/objects/HouseObjects/doormat3.png",1,"right","left",0.458999872,0,0,1
"732",319,3,312,0.1,"stim/51.jpeg",5,1,3,1,"Instruments",1,"stim/objects/Instruments/flute4.png",3,"left","right",0.572999716,0,0,1
"733",320,3,313,0.3,"stim/32.jpeg",3,2,2,1,"Instruments",1,"stim/objects/Instruments/accordion4.png",4,"left","right",0.629999876,0,0,1
"734",321,3,314,0.7,"stim/43.jpeg",4,3,2,2,"Instruments",1,"stim/objects/Instruments/doublebass3.png",2,"left","right",0.68599987,0,0,1
"735",322,3,315,0.7,"stim/32.jpeg",3,2,2,2,"HouseObjects",2,"stim/objects/HouseObjects/cushion3.png",1,"right","right",0.647999763,1,1,1
"736",323,3,316,0.1,"stim/63.jpeg",6,3,3,1,"HouseObjects",2,"stim/objects/HouseObjects/vacuumcleaner4.png",4,"right","left",0.582999945,0,0,1
"737",324,3,317,0.9,"stim/62.jpeg",6,2,3,1,"Instruments",1,"stim/objects/Instruments/maraca4.png",4,"left","left",0.556999922,1,1,1
"738",325,3,318,0.9,"stim/54.jpeg",5,4,3,2,"HouseObjects",2,"stim/objects/HouseObjects/dustpan3.png",1,"right","right",0.630999804,1,1,1
"739",326,3,319,0.9,"stim/51.jpeg",5,1,3,1,"HouseObjects",2,"stim/objects/HouseObjects/flyswatter4.png",1,"right","right",0.468999863,1,1,1
"740",327,3,320,0.9,"stim/52.jpeg",5,2,3,2,"HouseObjects",2,"stim/objects/HouseObjects/garbagebin3.png",3,"right","left",0.56799984,0,0,1
