"","X","participant","trial_index","trial_cond","scn_file","scn_cat","scn_inst","scn_condition","fillers","obj_cat","obj_cat_num","obj_file","quadrant","corr_ans","key_resp_trial.keys","key_resp_trial.rt","trial_acc","trial_acc_manual","group"
"1",1,1,1,0.9,"stim/14.jpeg",1,4,3,NA,"HouseObjects",2,"stim/objects/HouseObjects/glass2.png",3,"right","",NA,0,0,1
"2",2,1,2,0.9,"stim/23.jpeg",2,3,3,NA,"Instruments",1,"stim/objects/Instruments/harp2.png",2,"left","left",0.572000265,1,1,1
"3",3,1,3,0.5,"stim/42.jpeg",4,2,1,NA,"Instruments",1,"stim/objects/Instruments/frenchhorn.png",3,"left","right",0.754000187,0,0,1
"4",4,1,4,0.7,"stim/53.jpeg",5,3,2,NA,"HouseObjects",2,"stim/objects/HouseObjects/handbrush.png",3,"right","right",0.608999968,1,1,1
"5",5,1,5,0.9,"stim/12.jpeg",1,2,3,NA,"HouseObjects",2,"stim/objects/HouseObjects/flyswatter2.png",4,"right","",NA,0,0,1
"6",6,1,6,0.7,"stim/62.jpeg",6,2,2,NA,"Instruments",1,"stim/objects/Instruments/electricdrumset2.png",4,"left","",NA,0,0,1
"7",7,1,7,0.5,"stim/43.jpeg",4,3,1,NA,"HouseObjects",2,"stim/objects/HouseObjects/garbagebin.png",2,"right","left",0.669000149,0,0,1
"8",8,1,8,0.9,"stim/22.jpeg",2,2,3,NA,"Instruments",1,"stim/objects/Instruments/harmonica2.png",2,"left","left",0.657000065,1,1,1
"9",9,1,9,0.5,"stim/43.jpeg",4,3,1,NA,"Instruments",1,"stim/objects/Instruments/gong.png",4,"left","right",0.861999989,0,0,1
"10",10,1,10,0.7,"stim/54.jpeg",5,4,2,NA,"HouseObjects",2,"stim/objects/HouseObjects/handvacuum.png",1,"right","right",0.546000004,1,1,1
"11",11,1,11,0.9,"stim/13.jpeg",1,3,3,NA,"HouseObjects",2,"stim/objects/HouseObjects/garbagebin2.png",2,"right","",NA,0,0,1
"12",12,1,12,0.9,"stim/11.jpeg",1,1,3,NA,"HouseObjects",2,"stim/objects/HouseObjects/dustpan2.png",4,"right","right",0.552000284,1,1,1
"13",13,1,13,0.5,"stim/34.jpeg",3,4,1,NA,"HouseObjects",2,"stim/objects/HouseObjects/doormat.png",1,"right","left",0.679000139,0,0,1
"14",14,1,14,0.5,"stim/42.jpeg",4,2,1,NA,"HouseObjects",2,"stim/objects/HouseObjects/flyswatter.png",4,"right","left",0.851999998,0,0,1
"15",15,1,15,0.9,"stim/21.jpeg",2,1,3,NA,"Instruments",1,"stim/objects/Instruments/guitarcase2.png",3,"left","left",0.568000078,1,1,1
"16",16,1,16,0.5,"stim/44.jpeg",4,4,1,NA,"Instruments",1,"stim/objects/Instruments/grandpiano.png",4,"left","left",0.769000053,1,1,1
"17",17,1,17,0.9,"stim/21.jpeg",2,1,3,NA,"Instruments",1,"stim/objects/Instruments/guitarcase2.png",4,"left","left",0.607000113,1,1,1
"18",18,1,18,0.5,"stim/31.jpeg",3,1,1,NA,"HouseObjects",2,"stim/objects/HouseObjects/coffee.png",4,"right","",NA,0,0,1
"19",19,1,19,0.5,"stim/44.jpeg",4,4,1,NA,"HouseObjects",2,"stim/objects/HouseObjects/glass.png",4,"right","right",0.720999956,1,1,1
"20",20,1,20,0.5,"stim/41.jpeg",4,1,1,NA,"Instruments",1,"stim/objects/Instruments/flutetrans.png",3,"left","left",0.741000175,1,1,1
"21",21,1,21,0.5,"stim/32.jpeg",3,2,1,NA,"Instruments",1,"stim/objects/Instruments/electricdrumset.png",2,"left","left",0.611999989,1,1,1
"22",22,1,22,0.9,"stim/12.jpeg",1,2,3,NA,"HouseObjects",2,"stim/objects/HouseObjects/flyswatter2.png",4,"right","right",0.561000109,1,1,1
"23",23,1,23,0.5,"stim/41.jpeg",4,1,1,NA,"Instruments",1,"stim/objects/Instruments/flutetrans.png",1,"left","right",0.657000065,0,0,1
"24",24,1,24,0.7,"stim/52.jpeg",5,2,2,NA,"HouseObjects",2,"stim/objects/HouseObjects/hairdryer.png",3,"right","right",0.621000051,1,1,1
"25",25,1,25,0.5,"stim/32.jpeg",3,2,1,NA,"HouseObjects",2,"stim/objects/HouseObjects/cushion.png",1,"right","left",0.567000151,0,0,1
"26",26,1,26,0.9,"stim/13.jpeg",1,3,3,NA,"HouseObjects",2,"stim/objects/HouseObjects/garbagebin2.png",2,"right","right",0.554000139,1,1,1
"27",27,1,27,0.9,"stim/24.jpeg",2,4,3,NA,"Instruments",1,"stim/objects/Instruments/hihat2.png",2,"left","left",0.553000212,1,1,1
"28",28,1,28,0.5,"stim/32.jpeg",3,2,1,NA,"HouseObjects",2,"stim/objects/HouseObjects/cushion.png",4,"right","right",0.657000065,1,1,1
"29",29,1,29,0.1,"stim/23.jpeg",2,3,3,NA,"HouseObjects",2,"stim/objects/HouseObjects/handbrush2.png",1,"right","left",0.471999884,0,0,1
"30",30,1,30,0.5,"stim/44.jpeg",4,4,1,NA,"HouseObjects",2,"stim/objects/HouseObjects/glass.png",2,"right","left",0.851000071,0,0,1
"31",31,1,31,0.7,"stim/54.jpeg",5,4,2,NA,"HouseObjects",2,"stim/objects/HouseObjects/handvacuum.png",4,"right","right",0.593000174,1,1,1
"32",32,1,32,0.5,"stim/34.jpeg",3,4,1,NA,"HouseObjects",2,"stim/objects/HouseObjects/doormat.png",1,"right","right",0.667000055,1,1,1
"33",33,1,33,0.9,"stim/21.jpeg",2,1,3,NA,"Instruments",1,"stim/objects/Instruments/guitarcase2.png",2,"left","left",0.572000265,1,1,1
"34",34,1,34,0.5,"stim/34.jpeg",3,4,1,NA,"Instruments",1,"stim/objects/Instruments/flute.png",3,"left","left",0.611000061,1,1,1
"35",35,1,35,0.7,"stim/53.jpeg",5,3,2,NA,"HouseObjects",2,"stim/objects/HouseObjects/handbrush.png",3,"right","right",0.577000141,1,1,1
"36",36,1,36,0.7,"stim/61.jpeg",6,1,2,NA,"Instruments",1,"stim/objects/Instruments/drums2.png",3,"left","left",0.620000124,1,1,1
"37",37,1,37,0.7,"stim/64.jpeg",6,4,2,NA,"Instruments",1,"stim/objects/Instruments/flute2.png",4,"left","left",0.773000002,1,1,1
"38",38,1,38,0.5,"stim/42.jpeg",4,2,1,NA,"HouseObjects",2,"stim/objects/HouseObjects/flyswatter.png",1,"right","right",0.57400012,1,1,1
"39",39,1,39,0.7,"stim/51.jpeg",5,1,2,NA,"HouseObjects",2,"stim/objects/HouseObjects/glassmop.png",4,"right","right",0.513000011,1,1,1
"40",40,1,40,0.7,"stim/52.jpeg",5,2,2,NA,"HouseObjects",2,"stim/objects/HouseObjects/hairdryer.png",4,"right","right",0.421000242,1,1,1
"41",41,1,41,0.5,"stim/41.jpeg",4,1,1,NA,"Instruments",1,"stim/objects/Instruments/flutetrans.png",4,"left","left",0.776000023,1,1,1
"42",42,1,42,0.9,"stim/24.jpeg",2,4,3,NA,"Instruments",1,"stim/objects/Instruments/hihat2.png",3,"left","left",0.476999998,1,1,1
"43",43,1,43,0.5,"stim/33.jpeg",3,3,1,NA,"Instruments",1,"stim/objects/Instruments/electricguitar.png",3,"left","right",0.673000097,0,0,1
"44",44,1,44,0.9,"stim/12.jpeg",1,2,3,NA,"HouseObjects",2,"stim/objects/HouseObjects/flyswatter2.png",1,"right","right",0.693000078,1,1,1
"45",45,1,45,0.3,"stim/61.jpeg",6,1,2,NA,"HouseObjects",2,"stim/objects/HouseObjects/coffee2.png",4,"right","left",0.606000185,0,0,1
"46",46,1,46,0.5,"stim/32.jpeg",3,2,1,NA,"HouseObjects",2,"stim/objects/HouseObjects/cushion.png",2,"right","right",0.652000189,1,1,1
"47",47,1,47,0.9,"stim/24.jpeg",2,4,3,NA,"Instruments",1,"stim/objects/Instruments/hihat2.png",2,"left","left",0.562999964,1,1,1
"48",48,1,48,0.5,"stim/32.jpeg",3,2,1,NA,"HouseObjects",2,"stim/objects/HouseObjects/cushion.png",2,"right","right",0.657000065,1,1,1
"49",49,1,49,0.1,"stim/12.jpeg",1,2,3,NA,"Instruments",1,"stim/objects/Instruments/frenchhorn2.png",2,"left","",NA,0,0,1
"50",50,1,50,0.9,"stim/23.jpeg",2,3,3,NA,"Instruments",1,"stim/objects/Instruments/harp2.png",3,"left","left",0.493000269,1,1,1
"51",51,1,51,0.5,"stim/32.jpeg",3,2,1,NA,"HouseObjects",2,"stim/objects/HouseObjects/cushion.png",4,"right","left",0.659000158,0,0,1
"52",52,1,52,0.7,"stim/61.jpeg",6,1,2,NA,"Instruments",1,"stim/objects/Instruments/drums2.png",4,"left","left",0.539999962,1,1,1
"53",53,1,53,0.3,"stim/62.jpeg",6,2,2,NA,"HouseObjects",2,"stim/objects/HouseObjects/cushion2.png",1,"right","left",0.669000149,0,0,1
"54",54,1,54,0.7,"stim/54.jpeg",5,4,2,NA,"HouseObjects",2,"stim/objects/HouseObjects/handvacuum.png",4,"right","right",0.647000074,1,1,1
"55",55,1,55,0.7,"stim/63.jpeg",6,3,2,NA,"Instruments",1,"stim/objects/Instruments/electricguitar2.png",2,"left","right",0.617000103,0,0,1
"56",56,1,56,0.3,"stim/64.jpeg",6,4,2,NA,"HouseObjects",2,"stim/objects/HouseObjects/doormat2.png",3,"right","left",0.565000057,0,0,1
"57",57,1,57,0.9,"stim/12.jpeg",1,2,3,NA,"HouseObjects",2,"stim/objects/HouseObjects/flyswatter2.png",1,"right","left",0.503000021,0,0,1
"58",58,1,58,0.9,"stim/23.jpeg",2,3,3,NA,"Instruments",1,"stim/objects/Instruments/harp2.png",1,"left","left",0.594000101,1,1,1
"59",59,1,59,0.1,"stim/11.jpeg",1,1,3,NA,"Instruments",1,"stim/objects/Instruments/flutetrans2.png",3,"left","right",0.525000095,0,0,1
"60",60,1,60,0.7,"stim/53.jpeg",5,3,2,NA,"HouseObjects",2,"stim/objects/HouseObjects/handbrush.png",4,"right","left",0.852999926,0,0,1
"61",61,1,61,0.3,"stim/63.jpeg",6,3,2,NA,"HouseObjects",2,"stim/objects/HouseObjects/dishsoap2.png",2,"right","left",0.551000118,0,0,1
"62",62,1,62,0.9,"stim/11.jpeg",1,1,3,NA,"HouseObjects",2,"stim/objects/HouseObjects/dustpan2.png",3,"right","right",0.587000132,1,1,1
"63",63,1,63,0.5,"stim/34.jpeg",3,4,1,NA,"HouseObjects",2,"stim/objects/HouseObjects/doormat.png",3,"right","right",0.592000008,1,1,1
"64",64,1,64,0.3,"stim/54.jpeg",5,4,2,NA,"Instruments",1,"stim/objects/Instruments/hihat.png",2,"left","right",0.580000162,0,0,1
"65",65,1,65,0.9,"stim/13.jpeg",1,3,3,NA,"HouseObjects",2,"stim/objects/HouseObjects/garbagebin2.png",3,"right","left",0.480000019,0,0,1
"66",66,1,66,0.9,"stim/14.jpeg",1,4,3,NA,"HouseObjects",2,"stim/objects/HouseObjects/glass2.png",4,"right","right",0.600000143,1,1,1
"67",67,1,67,0.9,"stim/23.jpeg",2,3,3,NA,"Instruments",1,"stim/objects/Instruments/harp2.png",3,"left","left",0.503000021,1,1,1
"68",68,1,68,0.5,"stim/34.jpeg",3,4,1,NA,"Instruments",1,"stim/objects/Instruments/flute.png",1,"left","right",0.600000143,0,0,1
"69",69,1,69,0.5,"stim/33.jpeg",3,3,1,NA,"HouseObjects",2,"stim/objects/HouseObjects/dishsoap.png",3,"right","left",0.433000088,0,0,1
"70",70,1,70,0.9,"stim/12.jpeg",1,2,3,NA,"HouseObjects",2,"stim/objects/HouseObjects/flyswatter2.png",4,"right","right",0.729000092,1,1,1
"71",71,1,71,0.9,"stim/14.jpeg",1,4,3,NA,"HouseObjects",2,"stim/objects/HouseObjects/glass2.png",3,"right","right",0.656000137,1,1,1
"72",72,1,72,0.9,"stim/14.jpeg",1,4,3,NA,"HouseObjects",2,"stim/objects/HouseObjects/glass2.png",2,"right","right",0.616000175,1,1,1
"73",73,1,73,0.5,"stim/33.jpeg",3,3,1,NA,"HouseObjects",2,"stim/objects/HouseObjects/dishsoap.png",1,"right","",NA,0,0,1
"74",74,1,74,0.3,"stim/61.jpeg",6,1,2,NA,"HouseObjects",2,"stim/objects/HouseObjects/coffee2.png",1,"right","left",0.605000019,0,0,1
"75",75,1,75,0.9,"stim/21.jpeg",2,1,3,NA,"Instruments",1,"stim/objects/Instruments/guitarcase2.png",4,"left","left",0.628000259,1,1,1
"76",76,1,76,0.5,"stim/42.jpeg",4,2,1,NA,"Instruments",1,"stim/objects/Instruments/frenchhorn.png",3,"left","right",0.628999949,0,0,1
"77",77,1,77,0.3,"stim/51.jpeg",5,1,2,NA,"Instruments",1,"stim/objects/Instruments/guitarcase.png",1,"left","right",0.614000082,0,0,1
"78",78,1,78,0.5,"stim/31.jpeg",3,1,1,NA,"HouseObjects",2,"stim/objects/HouseObjects/coffee.png",2,"right","right",0.671000242,1,1,1
"79",79,1,79,0.9,"stim/14.jpeg",1,4,3,NA,"HouseObjects",2,"stim/objects/HouseObjects/glass2.png",4,"right","right",0.711999893,1,1,1
"80",80,1,80,0.9,"stim/21.jpeg",2,1,3,NA,"Instruments",1,"stim/objects/Instruments/guitarcase2.png",1,"left","left",0.526000261,1,1,1
"81",81,1,81,0.3,"stim/52.jpeg",5,2,2,NA,"Instruments",1,"stim/objects/Instruments/harmonica.png",2,"left","right",0.498000145,0,0,1
"82",82,1,82,0.9,"stim/14.jpeg",1,4,3,NA,"HouseObjects",2,"stim/objects/HouseObjects/glass2.png",3,"right","right",0.588000059,1,1,1
"83",83,1,83,0.9,"stim/13.jpeg",1,3,3,NA,"HouseObjects",2,"stim/objects/HouseObjects/garbagebin2.png",1,"right","right",0.476000071,1,1,1
"84",84,1,84,0.5,"stim/33.jpeg",3,3,1,NA,"Instruments",1,"stim/objects/Instruments/electricguitar.png",2,"left","right",0.515000105,0,0,1
"85",85,1,85,0.7,"stim/64.jpeg",6,4,2,NA,"Instruments",1,"stim/objects/Instruments/flute2.png",1,"left","left",0.79700017,1,1,1
"86",86,1,86,0.9,"stim/12.jpeg",1,2,3,NA,"HouseObjects",2,"stim/objects/HouseObjects/flyswatter2.png",1,"right","right",0.703000069,1,1,1
"87",87,1,87,0.9,"stim/22.jpeg",2,2,3,NA,"Instruments",1,"stim/objects/Instruments/harmonica2.png",2,"left","right",0.486000061,0,0,1
"88",88,1,88,0.9,"stim/13.jpeg",1,3,3,NA,"HouseObjects",2,"stim/objects/HouseObjects/garbagebin2.png",4,"right","right",0.678999901,1,1,1
"89",89,1,89,0.1,"stim/14.jpeg",1,4,3,NA,"Instruments",1,"stim/objects/Instruments/grandpiano2.png",4,"left","right",0.588000059,0,0,1
"90",90,1,90,0.7,"stim/63.jpeg",6,3,2,NA,"Instruments",1,"stim/objects/Instruments/electricguitar2.png",1,"left","left",0.69900012,1,1,1
"91",91,1,91,0.9,"stim/11.jpeg",1,1,3,NA,"HouseObjects",2,"stim/objects/HouseObjects/dustpan2.png",1,"right","",NA,0,0,1
"92",92,1,92,0.5,"stim/33.jpeg",3,3,1,NA,"Instruments",1,"stim/objects/Instruments/electricguitar.png",2,"left","right",0.661000013,0,0,1
"93",93,1,93,0.7,"stim/62.jpeg",6,2,2,NA,"Instruments",1,"stim/objects/Instruments/electricdrumset2.png",1,"left","right",0.611000061,0,0,1
"94",94,1,94,0.7,"stim/63.jpeg",6,3,2,NA,"Instruments",1,"stim/objects/Instruments/electricguitar2.png",2,"left","right",0.397000074,0,0,1
"95",95,1,95,0.9,"stim/13.jpeg",1,3,3,NA,"HouseObjects",2,"stim/objects/HouseObjects/garbagebin2.png",2,"right","right",0.799000263,1,1,1
"96",96,1,96,0.7,"stim/64.jpeg",6,4,2,NA,"Instruments",1,"stim/objects/Instruments/flute2.png",1,"left","right",0.743000031,0,0,1
"97",97,1,97,0.3,"stim/53.jpeg",5,3,2,NA,"Instruments",1,"stim/objects/Instruments/harp.png",2,"left","right",0.486999989,0,0,1
"98",98,1,98,0.7,"stim/61.jpeg",6,1,2,NA,"Instruments",1,"stim/objects/Instruments/drums2.png",1,"left","left",0.828000069,1,1,1
"99",99,1,99,0.5,"stim/34.jpeg",3,4,1,NA,"Instruments",1,"stim/objects/Instruments/flute.png",1,"left","right",0.69900012,0,0,1
"100",100,1,100,0.9,"stim/14.jpeg",1,4,3,NA,"HouseObjects",2,"stim/objects/HouseObjects/glass2.png",4,"right","right",0.69900012,1,1,1
"101",101,1,101,0.9,"stim/11.jpeg",1,1,3,NA,"HouseObjects",2,"stim/objects/HouseObjects/dustpan2.png",1,"right","right",0.532000065,1,1,1
"102",102,1,102,0.7,"stim/64.jpeg",6,4,2,NA,"Instruments",1,"stim/objects/Instruments/flute2.png",4,"left","left",0.660000086,1,1,1
"103",103,1,103,0.1,"stim/22.jpeg",2,2,3,NA,"HouseObjects",2,"stim/objects/HouseObjects/hairdryer2.png",4,"right","right",0.426000118,1,1,1
"104",104,1,104,0.5,"stim/31.jpeg",3,1,1,NA,"HouseObjects",2,"stim/objects/HouseObjects/coffee.png",3,"right","left",0.692000151,0,0,1
"105",105,1,105,0.5,"stim/32.jpeg",3,2,1,NA,"Instruments",1,"stim/objects/Instruments/electricdrumset.png",3,"left","right",0.694000006,0,0,1
"106",106,1,106,0.7,"stim/63.jpeg",6,3,2,NA,"Instruments",1,"stim/objects/Instruments/electricguitar2.png",3,"left","left",0.562999964,1,1,1
"107",107,1,107,0.5,"stim/43.jpeg",4,3,1,NA,"HouseObjects",2,"stim/objects/HouseObjects/garbagebin.png",1,"right","right",0.643000126,1,1,1
"108",108,1,108,0.5,"stim/33.jpeg",3,3,1,NA,"Instruments",1,"stim/objects/Instruments/electricguitar.png",4,"left","right",0.623000145,0,0,1
"109",109,1,109,0.7,"stim/51.jpeg",5,1,2,NA,"HouseObjects",2,"stim/objects/HouseObjects/glassmop.png",4,"right","right",0.521000147,1,1,1
"110",110,1,110,0.7,"stim/62.jpeg",6,2,2,NA,"Instruments",1,"stim/objects/Instruments/electricdrumset2.png",2,"left","right",0.622999907,0,0,1
"111",111,1,111,0.5,"stim/41.jpeg",4,1,1,NA,"HouseObjects",2,"stim/objects/HouseObjects/dustpan.png",3,"right","left",0.657000065,0,0,1
"112",112,1,112,0.5,"stim/44.jpeg",4,4,1,NA,"HouseObjects",2,"stim/objects/HouseObjects/glass.png",3,"right","right",0.595999956,1,1,1
"113",113,1,113,0.9,"stim/24.jpeg",2,4,3,NA,"Instruments",1,"stim/objects/Instruments/hihat2.png",4,"left","right",0.708000183,0,0,1
"114",114,1,114,0.7,"stim/63.jpeg",6,3,2,NA,"Instruments",1,"stim/objects/Instruments/electricguitar2.png",2,"left","left",0.549999952,1,1,1
"115",115,1,115,0.5,"stim/41.jpeg",4,1,1,NA,"Instruments",1,"stim/objects/Instruments/flutetrans.png",4,"left","right",0.572000027,0,0,1
"116",116,1,116,0.7,"stim/62.jpeg",6,2,2,NA,"Instruments",1,"stim/objects/Instruments/electricdrumset2.png",3,"left","left",0.610000134,1,1,1
"117",117,1,117,0.9,"stim/22.jpeg",2,2,3,NA,"Instruments",1,"stim/objects/Instruments/harmonica2.png",4,"left","left",0.584000111,1,1,1
"118",118,1,118,0.5,"stim/42.jpeg",4,2,1,NA,"Instruments",1,"stim/objects/Instruments/frenchhorn.png",1,"left","left",0.783000231,1,1,1
"119",119,1,119,0.7,"stim/52.jpeg",5,2,2,NA,"HouseObjects",2,"stim/objects/HouseObjects/hairdryer.png",2,"right","right",0.506999969,1,1,1
"120",120,1,120,0.7,"stim/62.jpeg",6,2,2,NA,"Instruments",1,"stim/objects/Instruments/electricdrumset2.png",2,"left","left",0.694999933,1,1,1
"121",121,1,121,0.7,"stim/61.jpeg",6,1,2,NA,"Instruments",1,"stim/objects/Instruments/drums2.png",3,"left","left",0.529000044,1,1,1
"122",122,1,122,0.9,"stim/22.jpeg",2,2,3,NA,"Instruments",1,"stim/objects/Instruments/harmonica2.png",3,"left","left",0.493999958,1,1,1
"123",123,1,123,0.9,"stim/11.jpeg",1,1,3,NA,"HouseObjects",2,"stim/objects/HouseObjects/dustpan2.png",3,"right","right",0.648999929,1,1,1
"124",124,1,124,0.3,"stim/52.jpeg",5,2,2,NA,"Instruments",1,"stim/objects/Instruments/harmonica.png",4,"left","right",0.445000172,0,0,1
"125",125,1,125,0.7,"stim/63.jpeg",6,3,2,NA,"Instruments",1,"stim/objects/Instruments/electricguitar2.png",4,"left","left",0.617000103,1,1,1
"126",126,1,126,0.3,"stim/61.jpeg",6,1,2,NA,"HouseObjects",2,"stim/objects/HouseObjects/coffee2.png",4,"right","left",0.551000118,0,0,1
"127",127,1,127,0.7,"stim/53.jpeg",5,3,2,NA,"HouseObjects",2,"stim/objects/HouseObjects/handbrush.png",3,"right","right",0.512000084,1,1,1
"128",128,1,128,0.9,"stim/23.jpeg",2,3,3,NA,"Instruments",1,"stim/objects/Instruments/harp2.png",4,"left","left",0.642000198,1,1,1
"129",129,1,129,0.5,"stim/41.jpeg",4,1,1,NA,"HouseObjects",2,"stim/objects/HouseObjects/dustpan.png",4,"right","right",0.541000128,1,1,1
"130",130,1,130,0.3,"stim/62.jpeg",6,2,2,NA,"HouseObjects",2,"stim/objects/HouseObjects/cushion2.png",4,"right","",NA,0,0,1
"131",131,1,131,0.3,"stim/54.jpeg",5,4,2,NA,"Instruments",1,"stim/objects/Instruments/hihat.png",1,"left","right",0.640000105,0,0,1
"132",132,1,132,0.9,"stim/11.jpeg",1,1,3,NA,"HouseObjects",2,"stim/objects/HouseObjects/dustpan2.png",3,"right","right",0.770000219,1,1,1
"133",133,1,133,0.9,"stim/23.jpeg",2,3,3,NA,"Instruments",1,"stim/objects/Instruments/harp2.png",2,"left","right",0.556000233,0,0,1
"134",134,1,134,0.5,"stim/33.jpeg",3,3,1,NA,"Instruments",1,"stim/objects/Instruments/electricguitar.png",3,"left","left",0.674000025,1,1,1
"135",135,1,135,0.3,"stim/54.jpeg",5,4,2,NA,"Instruments",1,"stim/objects/Instruments/hihat.png",1,"left","right",0.620000124,0,0,1
"136",136,1,136,0.7,"stim/62.jpeg",6,2,2,NA,"Instruments",1,"stim/objects/Instruments/electricdrumset2.png",2,"left","right",0.741000175,0,0,1
"137",137,1,137,0.7,"stim/61.jpeg",6,1,2,NA,"Instruments",1,"stim/objects/Instruments/drums2.png",3,"left","right",0.680999994,0,0,1
"138",138,1,138,0.9,"stim/22.jpeg",2,2,3,NA,"Instruments",1,"stim/objects/Instruments/harmonica2.png",2,"left","right",0.513000011,0,0,1
"139",139,1,139,0.5,"stim/31.jpeg",3,1,1,NA,"Instruments",1,"stim/objects/Instruments/drums.png",3,"left","right",0.605999947,0,0,1
"140",140,1,140,0.7,"stim/62.jpeg",6,2,2,NA,"Instruments",1,"stim/objects/Instruments/electricdrumset2.png",2,"left","right",0.600000143,0,0,1
"141",141,1,141,0.3,"stim/63.jpeg",6,3,2,NA,"HouseObjects",2,"stim/objects/HouseObjects/dishsoap2.png",4,"right","right",0.788000107,1,1,1
"142",142,1,142,0.9,"stim/22.jpeg",2,2,3,NA,"Instruments",1,"stim/objects/Instruments/harmonica2.png",4,"left","left",0.569000006,1,1,1
"143",143,1,143,0.1,"stim/21.jpeg",2,1,3,NA,"HouseObjects",2,"stim/objects/HouseObjects/glassmop2.png",1,"right","left",0.531000137,0,0,1
"144",144,1,144,0.3,"stim/64.jpeg",6,4,2,NA,"HouseObjects",2,"stim/objects/HouseObjects/doormat2.png",4,"right","left",0.663000107,0,0,1
"145",145,1,145,0.5,"stim/32.jpeg",3,2,1,NA,"Instruments",1,"stim/objects/Instruments/electricdrumset.png",4,"left","right",0.732000113,0,0,1
"146",146,1,146,0.3,"stim/51.jpeg",5,1,2,NA,"Instruments",1,"stim/objects/Instruments/guitarcase.png",1,"left","right",0.561000109,0,0,1
"147",147,1,147,0.9,"stim/11.jpeg",1,1,3,NA,"HouseObjects",2,"stim/objects/HouseObjects/dustpan2.png",1,"right","right",0.620000124,1,1,1
"148",148,1,148,0.9,"stim/13.jpeg",1,3,3,NA,"HouseObjects",2,"stim/objects/HouseObjects/garbagebin2.png",2,"right","right",0.693000078,1,1,1
"149",149,1,149,0.9,"stim/11.jpeg",1,1,3,NA,"HouseObjects",2,"stim/objects/HouseObjects/dustpan2.png",3,"right","right",0.806999922,1,1,1
"150",150,1,150,0.7,"stim/51.jpeg",5,1,2,NA,"HouseObjects",2,"stim/objects/HouseObjects/glassmop.png",1,"right","right",0.549000263,1,1,1
"151",151,1,151,0.5,"stim/44.jpeg",4,4,1,NA,"HouseObjects",2,"stim/objects/HouseObjects/glass.png",1,"right","left",0.658000231,0,0,1
"152",152,1,152,0.9,"stim/24.jpeg",2,4,3,NA,"Instruments",1,"stim/objects/Instruments/hihat2.png",3,"left","left",0.474000216,1,1,1
"153",153,1,153,0.9,"stim/14.jpeg",1,4,3,NA,"HouseObjects",2,"stim/objects/HouseObjects/glass2.png",2,"right","right",0.580000162,1,1,1
"154",154,1,154,0.7,"stim/51.jpeg",5,1,2,NA,"HouseObjects",2,"stim/objects/HouseObjects/glassmop.png",1,"right","right",0.535000086,1,1,1
"155",155,1,155,0.7,"stim/53.jpeg",5,3,2,NA,"HouseObjects",2,"stim/objects/HouseObjects/handbrush.png",2,"right","right",0.505000114,1,1,1
"156",156,1,156,0.7,"stim/64.jpeg",6,4,2,NA,"Instruments",1,"stim/objects/Instruments/flute2.png",2,"left","left",0.527000189,1,1,1
"157",157,1,157,0.9,"stim/22.jpeg",2,2,3,NA,"Instruments",1,"stim/objects/Instruments/harmonica2.png",2,"left","left",0.602999926,1,1,1
"158",158,1,158,0.9,"stim/22.jpeg",2,2,3,NA,"Instruments",1,"stim/objects/Instruments/harmonica2.png",1,"left","",NA,0,0,1
"159",159,1,159,0.1,"stim/13.jpeg",1,3,3,NA,"Instruments",1,"stim/objects/Instruments/gong2.png",1,"left","right",0.546000242,0,0,1
"160",160,1,160,0.7,"stim/52.jpeg",5,2,2,NA,"HouseObjects",2,"stim/objects/HouseObjects/hairdryer.png",3,"right","right",0.715000153,1,1,1
"161",161,1,161,0.7,"stim/54.jpeg",5,4,2,NA,"HouseObjects",2,"stim/objects/HouseObjects/handvacuum.png",4,"right","right",0.535000086,1,1,1
"162",162,1,162,0.5,"stim/31.jpeg",3,1,1,NA,"Instruments",1,"stim/objects/Instruments/drums.png",4,"left","right",0.445000172,0,0,1
"163",163,1,163,0.9,"stim/12.jpeg",1,2,3,NA,"HouseObjects",2,"stim/objects/HouseObjects/flyswatter2.png",4,"right","left",0.578000069,0,0,1
"164",164,1,164,0.7,"stim/64.jpeg",6,4,2,NA,"Instruments",1,"stim/objects/Instruments/flute2.png",2,"left","left",0.670000076,1,1,1
"165",165,1,165,0.5,"stim/31.jpeg",3,1,1,NA,"Instruments",1,"stim/objects/Instruments/drums.png",3,"left","left",0.597000122,1,1,1
"166",166,1,166,0.5,"stim/31.jpeg",3,1,1,NA,"Instruments",1,"stim/objects/Instruments/drums.png",2,"left","right",0.775000095,0,0,1
"167",167,1,167,0.5,"stim/31.jpeg",3,1,1,NA,"Instruments",1,"stim/objects/Instruments/drums.png",2,"left","right",0.692000151,0,0,1
"168",168,1,168,0.1,"stim/24.jpeg",2,4,3,NA,"HouseObjects",2,"stim/objects/HouseObjects/handvacuum2.png",1,"right","left",0.687000275,0,0,1
"169",169,1,169,0.9,"stim/21.jpeg",2,1,3,NA,"Instruments",1,"stim/objects/Instruments/guitarcase2.png",1,"left","left",0.851000071,1,1,1
"170",170,1,170,0.5,"stim/34.jpeg",3,4,1,NA,"HouseObjects",2,"stim/objects/HouseObjects/doormat.png",4,"right","right",0.651000261,1,1,1
"171",171,1,171,0.3,"stim/62.jpeg",6,2,2,NA,"HouseObjects",2,"stim/objects/HouseObjects/cushion2.png",3,"right","left",0.56400013,0,0,1
"172",172,1,172,0.9,"stim/12.jpeg",1,2,3,NA,"HouseObjects",2,"stim/objects/HouseObjects/flyswatter2.png",4,"right","right",0.661999941,1,1,1
"173",173,1,173,0.5,"stim/43.jpeg",4,3,1,NA,"Instruments",1,"stim/objects/Instruments/gong.png",2,"left","right",0.612000227,0,0,1
"174",174,1,174,0.5,"stim/33.jpeg",3,3,1,NA,"HouseObjects",2,"stim/objects/HouseObjects/dishsoap.png",4,"right","right",0.585000038,1,1,1
"175",175,1,175,0.5,"stim/33.jpeg",3,3,1,NA,"HouseObjects",2,"stim/objects/HouseObjects/dishsoap.png",2,"right","left",0.862999916,0,0,1
"176",176,1,176,0.5,"stim/43.jpeg",4,3,1,NA,"HouseObjects",2,"stim/objects/HouseObjects/garbagebin.png",1,"right","left",0.726000071,0,0,1
"177",177,1,177,0.9,"stim/23.jpeg",2,3,3,NA,"Instruments",1,"stim/objects/Instruments/harp2.png",3,"left","left",0.63499999,1,1,1
"178",178,1,178,0.9,"stim/13.jpeg",1,3,3,NA,"HouseObjects",2,"stim/objects/HouseObjects/garbagebin2.png",3,"right","right",0.594000101,1,1,1
"179",179,1,179,0.5,"stim/41.jpeg",4,1,1,NA,"HouseObjects",2,"stim/objects/HouseObjects/dustpan.png",2,"right","right",0.703999996,1,1,1
"180",180,1,180,0.7,"stim/54.jpeg",5,4,2,NA,"HouseObjects",2,"stim/objects/HouseObjects/handvacuum.png",2,"right","right",0.568000078,1,1,1
"181",181,1,181,0.3,"stim/53.jpeg",5,3,2,NA,"Instruments",1,"stim/objects/Instruments/harp.png",3,"left","right",0.825000286,0,0,1
"182",182,1,182,0.5,"stim/34.jpeg",3,4,1,NA,"HouseObjects",2,"stim/objects/HouseObjects/doormat.png",1,"right","right",0.516000271,1,1,1
"183",183,1,183,0.7,"stim/52.jpeg",5,2,2,NA,"HouseObjects",2,"stim/objects/HouseObjects/hairdryer.png",2,"right","right",0.554000139,1,1,1
"184",184,1,184,0.3,"stim/51.jpeg",5,1,2,NA,"Instruments",1,"stim/objects/Instruments/guitarcase.png",3,"left","right",0.520999908,0,0,1
"185",185,1,185,0.5,"stim/34.jpeg",3,4,1,NA,"Instruments",1,"stim/objects/Instruments/flute.png",1,"left","right",0.680000067,0,0,1
"186",186,1,186,0.5,"stim/44.jpeg",4,4,1,NA,"Instruments",1,"stim/objects/Instruments/grandpiano.png",2,"left","right",0.525000095,0,0,1
"187",187,1,187,0.5,"stim/43.jpeg",4,3,1,NA,"Instruments",1,"stim/objects/Instruments/gong.png",4,"left","right",0.45600009,0,0,1
"188",188,1,188,0.9,"stim/24.jpeg",2,4,3,NA,"Instruments",1,"stim/objects/Instruments/hihat2.png",4,"left","left",0.605000019,1,1,1
"189",189,1,189,0.7,"stim/54.jpeg",5,4,2,NA,"HouseObjects",2,"stim/objects/HouseObjects/handvacuum.png",1,"right","right",0.576000214,1,1,1
"190",190,1,190,0.7,"stim/51.jpeg",5,1,2,NA,"HouseObjects",2,"stim/objects/HouseObjects/glassmop.png",4,"right","right",0.433000088,1,1,1
"191",191,1,191,0.7,"stim/64.jpeg",6,4,2,NA,"Instruments",1,"stim/objects/Instruments/flute2.png",1,"left","left",0.571000099,1,1,1
"192",192,1,192,0.5,"stim/32.jpeg",3,2,1,NA,"Instruments",1,"stim/objects/Instruments/electricdrumset.png",1,"left","right",0.519000292,0,0,1
"193",193,1,193,0.3,"stim/53.jpeg",5,3,2,NA,"Instruments",1,"stim/objects/Instruments/harp.png",2,"left","right",0.506000042,0,0,1
"194",194,1,194,0.9,"stim/24.jpeg",2,4,3,NA,"Instruments",1,"stim/objects/Instruments/hihat2.png",3,"left","left",0.565999985,1,1,1
"195",195,1,195,0.9,"stim/23.jpeg",2,3,3,NA,"Instruments",1,"stim/objects/Instruments/harp2.png",4,"left","left",0.628000259,1,1,1
"196",196,1,196,0.5,"stim/43.jpeg",4,3,1,NA,"HouseObjects",2,"stim/objects/HouseObjects/garbagebin.png",4,"right","right",0.755000114,1,1,1
"197",197,1,197,0.7,"stim/52.jpeg",5,2,2,NA,"HouseObjects",2,"stim/objects/HouseObjects/hairdryer.png",3,"right","right",0.506000042,1,1,1
"198",198,1,198,0.5,"stim/31.jpeg",3,1,1,NA,"HouseObjects",2,"stim/objects/HouseObjects/coffee.png",4,"right","right",0.476000071,1,1,1
"199",199,1,199,0.5,"stim/41.jpeg",4,1,1,NA,"HouseObjects",2,"stim/objects/HouseObjects/dustpan.png",2,"right","left",0.714999914,0,0,1
"200",200,1,200,0.7,"stim/61.jpeg",6,1,2,NA,"Instruments",1,"stim/objects/Instruments/drums2.png",1,"left","left",0.544000149,1,1,1
"201",201,1,201,0.5,"stim/44.jpeg",4,4,1,NA,"Instruments",1,"stim/objects/Instruments/grandpiano.png",2,"left","left",0.805000067,1,1,1
"202",202,1,202,0.9,"stim/11.jpeg",1,1,3,NA,"HouseObjects",2,"stim/objects/HouseObjects/dustpan2.png",2,"right","right",0.628000259,1,1,1
"203",203,1,203,0.9,"stim/14.jpeg",1,4,3,NA,"HouseObjects",2,"stim/objects/HouseObjects/glass2.png",1,"right","right",0.65500021,1,1,1
"204",204,1,204,0.9,"stim/24.jpeg",2,4,3,NA,"Instruments",1,"stim/objects/Instruments/hihat2.png",2,"left","left",0.608000278,1,1,1
"205",205,1,205,0.5,"stim/32.jpeg",3,2,1,NA,"Instruments",1,"stim/objects/Instruments/electricdrumset.png",3,"left","left",0.424000025,1,1,1
"206",206,1,206,0.3,"stim/64.jpeg",6,4,2,NA,"HouseObjects",2,"stim/objects/HouseObjects/doormat2.png",3,"right","left",0.651000023,0,0,1
"207",207,1,207,0.7,"stim/51.jpeg",5,1,2,NA,"HouseObjects",2,"stim/objects/HouseObjects/glassmop.png",1,"right","right",0.597000122,1,1,1
"208",208,1,208,0.9,"stim/22.jpeg",2,2,3,NA,"Instruments",1,"stim/objects/Instruments/harmonica2.png",3,"left","left",0.539000034,1,1,1
"209",209,1,209,0.7,"stim/51.jpeg",5,1,2,NA,"HouseObjects",2,"stim/objects/HouseObjects/glassmop.png",3,"right","right",0.601000071,1,1,1
"210",210,1,210,0.5,"stim/42.jpeg",4,2,1,NA,"HouseObjects",2,"stim/objects/HouseObjects/flyswatter.png",3,"right","left",0.739000082,0,0,1
"211",211,1,211,0.9,"stim/21.jpeg",2,1,3,NA,"Instruments",1,"stim/objects/Instruments/guitarcase2.png",1,"left","left",0.529999971,1,1,1
"212",212,1,212,0.5,"stim/43.jpeg",4,3,1,NA,"Instruments",1,"stim/objects/Instruments/gong.png",3,"left","right",0.624000072,0,0,1
"213",213,1,213,0.5,"stim/44.jpeg",4,4,1,NA,"Instruments",1,"stim/objects/Instruments/grandpiano.png",3,"left","left",0.649000168,1,1,1
"214",214,1,214,0.5,"stim/43.jpeg",4,3,1,NA,"HouseObjects",2,"stim/objects/HouseObjects/garbagebin.png",2,"right","right",0.643000126,1,1,1
"215",215,1,215,0.7,"stim/53.jpeg",5,3,2,NA,"HouseObjects",2,"stim/objects/HouseObjects/handbrush.png",3,"right","right",0.59800005,1,1,1
"216",216,1,216,0.7,"stim/52.jpeg",5,2,2,NA,"HouseObjects",2,"stim/objects/HouseObjects/hairdryer.png",4,"right","right",0.516000032,1,1,1
"217",217,1,217,0.5,"stim/34.jpeg",3,4,1,NA,"Instruments",1,"stim/objects/Instruments/flute.png",2,"left","right",0.830000162,0,0,1
"218",218,1,218,0.5,"stim/44.jpeg",4,4,1,NA,"Instruments",1,"stim/objects/Instruments/grandpiano.png",4,"left","right",0.436000109,0,0,1
"219",219,1,219,0.3,"stim/63.jpeg",6,3,2,NA,"HouseObjects",2,"stim/objects/HouseObjects/dishsoap2.png",2,"right","left",0.603000164,0,0,1
"220",220,1,220,0.9,"stim/21.jpeg",2,1,3,NA,"Instruments",1,"stim/objects/Instruments/guitarcase2.png",2,"left","left",0.509000063,1,1,1
"221",221,1,221,0.5,"stim/42.jpeg",4,2,1,NA,"HouseObjects",2,"stim/objects/HouseObjects/flyswatter.png",3,"right","right",0.67200017,1,1,1
"222",222,1,222,0.9,"stim/23.jpeg",2,3,3,NA,"Instruments",1,"stim/objects/Instruments/harp2.png",1,"left","left",0.605000019,1,1,1
"223",223,1,223,0.7,"stim/61.jpeg",6,1,2,NA,"Instruments",1,"stim/objects/Instruments/drums2.png",2,"left","left",0.611999989,1,1,1
"224",224,1,224,0.5,"stim/42.jpeg",4,2,1,NA,"Instruments",1,"stim/objects/Instruments/frenchhorn.png",2,"left","right",0.670000076,0,0,1
"225",225,1,225,0.5,"stim/41.jpeg",4,1,1,NA,"Instruments",1,"stim/objects/Instruments/flutetrans.png",1,"left","left",0.465000153,1,1,1
"226",226,1,226,0.5,"stim/42.jpeg",4,2,1,NA,"Instruments",1,"stim/objects/Instruments/frenchhorn.png",1,"left","right",0.587000132,0,0,1
"227",227,1,227,0.9,"stim/21.jpeg",2,1,3,NA,"Instruments",1,"stim/objects/Instruments/guitarcase2.png",3,"left","left",0.48300004,1,1,1
"228",228,1,228,0.5,"stim/42.jpeg",4,2,1,NA,"HouseObjects",2,"stim/objects/HouseObjects/flyswatter.png",1,"right","left",0.799000263,0,0,1
"229",229,1,229,0.5,"stim/31.jpeg",3,1,1,NA,"HouseObjects",2,"stim/objects/HouseObjects/coffee.png",3,"right","left",0.572000027,0,0,1
"230",230,1,230,0.5,"stim/44.jpeg",4,4,1,NA,"HouseObjects",2,"stim/objects/HouseObjects/glass.png",1,"right","",NA,0,0,1
"231",231,1,231,0.5,"stim/41.jpeg",4,1,1,NA,"HouseObjects",2,"stim/objects/HouseObjects/dustpan.png",2,"right","right",0.756000042,1,1,1
"232",232,1,232,0.9,"stim/13.jpeg",1,3,3,NA,"HouseObjects",2,"stim/objects/HouseObjects/garbagebin2.png",1,"right","",NA,0,0,1
"233",233,1,233,0.7,"stim/53.jpeg",5,3,2,NA,"HouseObjects",2,"stim/objects/HouseObjects/handbrush.png",1,"right","right",0.576000214,1,1,1
"234",234,1,234,0.7,"stim/54.jpeg",5,4,2,NA,"HouseObjects",2,"stim/objects/HouseObjects/handvacuum.png",1,"right","right",0.536000013,1,1,1
"235",235,1,235,0.3,"stim/52.jpeg",5,2,2,NA,"Instruments",1,"stim/objects/Instruments/harmonica.png",3,"left","right",0.549000263,0,0,1
"236",236,1,236,0.5,"stim/33.jpeg",3,3,1,NA,"HouseObjects",2,"stim/objects/HouseObjects/dishsoap.png",1,"right","left",0.746000051,0,0,1
"237",237,1,237,0.9,"stim/24.jpeg",2,4,3,NA,"Instruments",1,"stim/objects/Instruments/hihat2.png",2,"left","left",0.538000107,1,1,1
"238",238,1,238,0.5,"stim/43.jpeg",4,3,1,NA,"Instruments",1,"stim/objects/Instruments/gong.png",4,"left","right",0.639000177,0,0,1
"239",239,1,239,0.9,"stim/12.jpeg",1,2,3,NA,"HouseObjects",2,"stim/objects/HouseObjects/flyswatter2.png",1,"right","right",0.612000227,1,1,1
"240",240,1,240,0.7,"stim/63.jpeg",6,3,2,NA,"Instruments",1,"stim/objects/Instruments/electricguitar2.png",3,"left","left",0.553999901,1,1,1
"241",1,2,1,0.9,"stim/32.jpeg",3,2,3,NA,"Instruments",2,"stim/objects/Instruments/musicsheet2.png",4,"right","right",0.792999983,1,1,1
"242",2,2,2,0.9,"stim/43.jpeg",4,3,3,NA,"HouseObjects",1,"stim/objects/HouseObjects/rubbergloves2.png",2,"left","left",0.779999971,1,1,1
"243",3,2,3,0.5,"stim/63.jpeg",6,3,1,NA,"Instruments",2,"stim/objects/Instruments/musicstand.png",3,"right","left",0.75,0,0,1
"244",4,2,4,0.7,"stim/23.jpeg",2,3,2,NA,"HouseObjects",1,"stim/objects/HouseObjects/key2.png",3,"left","left",0.795000076,1,1,1
"245",5,2,5,0.9,"stim/41.jpeg",4,1,3,NA,"HouseObjects",1,"stim/objects/HouseObjects/recyclingbin2.png",3,"left","left",0.531000137,1,1,1
"246",6,2,6,0.9,"stim/42.jpeg",4,2,3,NA,"HouseObjects",1,"stim/objects/HouseObjects/remote2.png",2,"left","left",0.492000103,1,1,1
"247",7,2,7,0.9,"stim/31.jpeg",3,1,3,NA,"Instruments",2,"stim/objects/Instruments/metronome2.png",3,"right","right",0.49000001,1,1,1
"248",8,2,8,0.5,"stim/64.jpeg",6,4,1,NA,"HouseObjects",1,"stim/objects/HouseObjects/pitcher.png",1,"left","",NA,0,0,1
"249",9,2,9,0.7,"stim/24.jpeg",2,4,2,NA,"HouseObjects",1,"stim/objects/HouseObjects/knife2.png",3,"left","left",0.489000082,1,1,1
"250",10,2,10,0.7,"stim/11.jpeg",1,1,2,NA,"Instruments",2,"stim/objects/Instruments/panflute.png",2,"right","right",0.731999874,1,1,1
"251",11,2,11,0.7,"stim/13.jpeg",1,3,2,NA,"Instruments",2,"stim/objects/Instruments/record.png",1,"right","right",0.618999958,1,1,1
"252",12,2,12,0.7,"stim/14.jpeg",1,4,2,NA,"Instruments",2,"stim/objects/Instruments/record_player.png",3,"right","right",0.578999996,1,1,1
"253",13,2,13,0.5,"stim/51.jpeg",5,1,1,NA,"Instruments",2,"stim/objects/Instruments/keyboard.png",4,"right","left",0.561999798,0,0,1
"254",14,2,14,0.9,"stim/33.jpeg",3,3,3,NA,"Instruments",2,"stim/objects/Instruments/musicstand2.png",2,"right","right",0.529000044,1,1,1
"255",15,2,15,0.9,"stim/34.jpeg",3,4,3,NA,"Instruments",2,"stim/objects/Instruments/oboe2.png",4,"right","right",0.47300005,1,1,1
"256",16,2,16,0.5,"stim/62.jpeg",6,2,1,NA,"HouseObjects",1,"stim/objects/HouseObjects/match.png",4,"left","left",0.744999886,1,1,1
"257",17,2,17,0.5,"stim/62.jpeg",6,2,1,NA,"Instruments",2,"stim/objects/Instruments/musicsheet.png",1,"right","left",0.537999868,0,0,1
"258",18,2,18,0.9,"stim/43.jpeg",4,3,3,NA,"HouseObjects",1,"stim/objects/HouseObjects/rubbergloves2.png",4,"left","left",0.481000185,1,1,1
"259",19,2,19,0.9,"stim/34.jpeg",3,4,3,NA,"Instruments",2,"stim/objects/Instruments/oboe2.png",1,"right","right",0.513999939,1,1,1
"260",20,2,20,0.9,"stim/33.jpeg",3,3,3,NA,"Instruments",2,"stim/objects/Instruments/musicstand2.png",1,"right","right",0.44900012,1,1,1
"261",21,2,21,0.1,"stim/34.jpeg",3,4,3,NA,"HouseObjects",1,"stim/objects/HouseObjects/pitcher2.png",3,"left","right",0.481999874,0,0,1
"262",22,2,22,0.3,"stim/14.jpeg",1,4,2,NA,"HouseObjects",1,"stim/objects/HouseObjects/rug.png",2,"left","right",0.648000002,0,0,1
"263",23,2,23,0.7,"stim/13.jpeg",1,3,2,NA,"Instruments",2,"stim/objects/Instruments/record.png",1,"right","right",0.89199996,1,1,1
"264",24,2,24,0.9,"stim/31.jpeg",3,1,3,NA,"Instruments",2,"stim/objects/Instruments/metronome2.png",4,"right","right",0.563999891,1,1,1
"265",25,2,25,0.3,"stim/23.jpeg",2,3,2,NA,"Instruments",2,"stim/objects/Instruments/maraca2.png",1,"right","left",0.460999966,0,0,1
"266",26,2,26,0.9,"stim/31.jpeg",3,1,3,NA,"Instruments",2,"stim/objects/Instruments/metronome2.png",1,"right","right",0.496000051,1,1,1
"267",27,2,27,0.5,"stim/52.jpeg",5,2,1,NA,"Instruments",2,"stim/objects/Instruments/laud.png",4,"right","left",0.529999971,0,0,1
"268",28,2,28,0.5,"stim/54.jpeg",5,4,1,NA,"Instruments",2,"stim/objects/Instruments/marimba.png",2,"right","",NA,0,0,1
"269",29,2,29,0.7,"stim/12.jpeg",1,2,2,NA,"Instruments",2,"stim/objects/Instruments/pipepiano.png",3,"right","right",0.640000105,1,1,1
"270",30,2,30,0.9,"stim/41.jpeg",4,1,3,NA,"HouseObjects",1,"stim/objects/HouseObjects/recyclingbin2.png",1,"left","left",0.503999949,1,1,1
"271",31,2,31,0.7,"stim/11.jpeg",1,1,2,NA,"Instruments",2,"stim/objects/Instruments/panflute.png",1,"right","right",0.63499999,1,1,1
"272",32,2,32,0.7,"stim/22.jpeg",2,2,2,NA,"HouseObjects",1,"stim/objects/HouseObjects/ironingboard2.png",4,"left","left",0.636000156,1,1,1
"273",33,2,33,0.9,"stim/44.jpeg",4,4,3,NA,"HouseObjects",1,"stim/objects/HouseObjects/rug2.png",1,"left","left",0.477999926,1,1,1
"274",34,2,34,0.9,"stim/32.jpeg",3,2,3,NA,"Instruments",2,"stim/objects/Instruments/musicsheet2.png",4,"right","right",0.579999924,1,1,1
"275",35,2,35,0.1,"stim/43.jpeg",4,3,3,NA,"Instruments",2,"stim/objects/Instruments/record2.png",3,"right","left",0.489000082,0,0,1
"276",36,2,36,0.5,"stim/61.jpeg",6,1,1,NA,"HouseObjects",1,"stim/objects/HouseObjects/lintroller.png",1,"left","",NA,0,0,1
"277",37,2,37,0.5,"stim/63.jpeg",6,3,1,NA,"HouseObjects",1,"stim/objects/HouseObjects/pan.png",1,"left","right",0.579999924,0,0,1
"278",38,2,38,0.9,"stim/44.jpeg",4,4,3,NA,"HouseObjects",1,"stim/objects/HouseObjects/rug2.png",4,"left","left",0.47300005,1,1,1
"279",39,2,39,0.5,"stim/54.jpeg",5,4,1,NA,"HouseObjects",1,"stim/objects/HouseObjects/knife.png",3,"left","left",0.572000027,1,1,1
"280",40,2,40,0.5,"stim/53.jpeg",5,3,1,NA,"HouseObjects",1,"stim/objects/HouseObjects/key.png",1,"left","left",0.480999947,1,1,1
"281",41,2,41,0.7,"stim/12.jpeg",1,2,2,NA,"Instruments",2,"stim/objects/Instruments/pipepiano.png",1,"right","right",0.534000158,1,1,1
"282",42,2,42,0.7,"stim/23.jpeg",2,3,2,NA,"HouseObjects",1,"stim/objects/HouseObjects/key2.png",2,"left","left",0.513999939,1,1,1
"283",43,2,43,0.9,"stim/34.jpeg",3,4,3,NA,"Instruments",2,"stim/objects/Instruments/oboe2.png",2,"right","right",0.627000093,1,1,1
"284",44,2,44,0.3,"stim/21.jpeg",2,1,2,NA,"Instruments",2,"stim/objects/Instruments/keyboard2.png",4,"right","left",0.434000015,0,0,1
"285",45,2,45,0.9,"stim/33.jpeg",3,3,3,NA,"Instruments",2,"stim/objects/Instruments/musicstand2.png",1,"right","right",0.467000008,1,1,1
"286",46,2,46,0.3,"stim/14.jpeg",1,4,2,NA,"HouseObjects",1,"stim/objects/HouseObjects/rug.png",3,"left","right",0.640000105,0,0,1
"287",47,2,47,0.9,"stim/34.jpeg",3,4,3,NA,"Instruments",2,"stim/objects/Instruments/oboe2.png",1,"right","right",0.525000095,1,1,1
"288",48,2,48,0.9,"stim/42.jpeg",4,2,3,NA,"HouseObjects",1,"stim/objects/HouseObjects/remote2.png",1,"left","left",0.453000069,1,1,1
"289",49,2,49,0.5,"stim/62.jpeg",6,2,1,NA,"HouseObjects",1,"stim/objects/HouseObjects/match.png",1,"left","left",0.576999903,1,1,1
"290",50,2,50,0.9,"stim/43.jpeg",4,3,3,NA,"HouseObjects",1,"stim/objects/HouseObjects/rubbergloves2.png",2,"left","left",0.510999918,1,1,1
"291",51,2,51,0.5,"stim/52.jpeg",5,2,1,NA,"HouseObjects",1,"stim/objects/HouseObjects/ironingboard.png",2,"left","right",0.763999939,0,0,1
"292",52,2,52,0.9,"stim/41.jpeg",4,1,3,NA,"HouseObjects",1,"stim/objects/HouseObjects/recyclingbin2.png",1,"left","left",0.518000126,1,1,1
"293",53,2,53,0.5,"stim/63.jpeg",6,3,1,NA,"Instruments",2,"stim/objects/Instruments/musicstand.png",1,"right","left",0.741999865,0,0,1
"294",54,2,54,0.7,"stim/22.jpeg",2,2,2,NA,"HouseObjects",1,"stim/objects/HouseObjects/ironingboard2.png",3,"left","left",0.423999786,1,1,1
"295",55,2,55,0.9,"stim/31.jpeg",3,1,3,NA,"Instruments",2,"stim/objects/Instruments/metronome2.png",3,"right","right",0.552999973,1,1,1
"296",56,2,56,0.5,"stim/53.jpeg",5,3,1,NA,"Instruments",2,"stim/objects/Instruments/maraca.png",4,"right","left",0.481999874,0,0,1
"297",57,2,57,0.3,"stim/22.jpeg",2,2,2,NA,"Instruments",2,"stim/objects/Instruments/laud2.png",3,"right","left",0.468000174,0,0,1
"298",58,2,58,0.5,"stim/53.jpeg",5,3,1,NA,"HouseObjects",1,"stim/objects/HouseObjects/key.png",4,"left","right",0.592999935,0,0,1
"299",59,2,59,0.7,"stim/14.jpeg",1,4,2,NA,"Instruments",2,"stim/objects/Instruments/record_player.png",1,"right","right",0.588000059,1,1,1
"300",60,2,60,0.7,"stim/21.jpeg",2,1,2,NA,"HouseObjects",1,"stim/objects/HouseObjects/iron2.png",1,"left","left",0.447000027,1,1,1
"301",61,2,61,0.3,"stim/21.jpeg",2,1,2,NA,"Instruments",2,"stim/objects/Instruments/keyboard2.png",2,"right","left",0.536000013,0,0,1
"302",62,2,62,0.9,"stim/31.jpeg",3,1,3,NA,"Instruments",2,"stim/objects/Instruments/metronome2.png",2,"right","right",0.499000072,1,1,1
"303",63,2,63,0.7,"stim/22.jpeg",2,2,2,NA,"HouseObjects",1,"stim/objects/HouseObjects/ironingboard2.png",3,"left","left",0.44900012,1,1,1
"304",64,2,64,0.9,"stim/44.jpeg",4,4,3,NA,"HouseObjects",1,"stim/objects/HouseObjects/rug2.png",4,"left","left",0.498000145,1,1,1
"305",65,2,65,0.7,"stim/22.jpeg",2,2,2,NA,"HouseObjects",1,"stim/objects/HouseObjects/ironingboard2.png",3,"left","left",0.492000103,1,1,1
"306",66,2,66,0.9,"stim/41.jpeg",4,1,3,NA,"HouseObjects",1,"stim/objects/HouseObjects/recyclingbin2.png",3,"left","left",0.555999994,1,1,1
"307",67,2,67,0.7,"stim/12.jpeg",1,2,2,NA,"Instruments",2,"stim/objects/Instruments/pipepiano.png",3,"right","right",0.592999935,1,1,1
"308",68,2,68,0.7,"stim/24.jpeg",2,4,2,NA,"HouseObjects",1,"stim/objects/HouseObjects/knife2.png",2,"left","left",0.441999912,1,1,1
"309",69,2,69,0.5,"stim/53.jpeg",5,3,1,NA,"HouseObjects",1,"stim/objects/HouseObjects/key.png",3,"left","right",0.585000038,0,0,1
"310",70,2,70,0.7,"stim/24.jpeg",2,4,2,NA,"HouseObjects",1,"stim/objects/HouseObjects/knife2.png",4,"left","left",0.463999987,1,1,1
"311",71,2,71,0.9,"stim/34.jpeg",3,4,3,NA,"Instruments",2,"stim/objects/Instruments/oboe2.png",2,"right","right",0.546999931,1,1,1
"312",72,2,72,0.9,"stim/31.jpeg",3,1,3,NA,"Instruments",2,"stim/objects/Instruments/metronome2.png",3,"right","right",0.57400012,1,1,1
"313",73,2,73,0.5,"stim/62.jpeg",6,2,1,NA,"Instruments",2,"stim/objects/Instruments/musicsheet.png",4,"right","left",0.50999999,0,0,1
"314",74,2,74,0.5,"stim/64.jpeg",6,4,1,NA,"HouseObjects",1,"stim/objects/HouseObjects/pitcher.png",3,"left","left",0.670000076,1,1,1
"315",75,2,75,0.9,"stim/42.jpeg",4,2,3,NA,"HouseObjects",1,"stim/objects/HouseObjects/remote2.png",3,"left","left",0.528000116,1,1,1
"316",76,2,76,0.3,"stim/13.jpeg",1,3,2,NA,"HouseObjects",1,"stim/objects/HouseObjects/rubbergloves.png",4,"left","right",0.542999983,0,0,1
"317",77,2,77,0.7,"stim/13.jpeg",1,3,2,NA,"Instruments",2,"stim/objects/Instruments/record.png",4,"right","left",0.503999949,0,0,1
"318",78,2,78,0.9,"stim/34.jpeg",3,4,3,NA,"Instruments",2,"stim/objects/Instruments/oboe2.png",2,"right","right",0.507999897,1,1,1
"319",79,2,79,0.5,"stim/63.jpeg",6,3,1,NA,"Instruments",2,"stim/objects/Instruments/musicstand.png",2,"right","left",0.663000107,0,0,1
"320",80,2,80,0.7,"stim/12.jpeg",1,2,2,NA,"Instruments",2,"stim/objects/Instruments/pipepiano.png",2,"right","right",0.549000025,1,1,1
"321",81,2,81,0.3,"stim/22.jpeg",2,2,2,NA,"Instruments",2,"stim/objects/Instruments/laud2.png",4,"right","left",0.532999992,0,0,1
"322",82,2,82,0.7,"stim/21.jpeg",2,1,2,NA,"HouseObjects",1,"stim/objects/HouseObjects/iron2.png",3,"left","left",0.535000086,1,1,1
"323",83,2,83,0.7,"stim/23.jpeg",2,3,2,NA,"HouseObjects",1,"stim/objects/HouseObjects/key2.png",3,"left","left",0.593999863,1,1,1
"324",84,2,84,0.9,"stim/41.jpeg",4,1,3,NA,"HouseObjects",1,"stim/objects/HouseObjects/recyclingbin2.png",3,"left","left",0.623000145,1,1,1
"325",85,2,85,0.9,"stim/44.jpeg",4,4,3,NA,"HouseObjects",1,"stim/objects/HouseObjects/rug2.png",4,"left","left",0.437000036,1,1,1
"326",86,2,86,0.3,"stim/24.jpeg",2,4,2,NA,"Instruments",2,"stim/objects/Instruments/marimba2.png",2,"right","left",0.514999866,0,0,1
"327",87,2,87,0.7,"stim/11.jpeg",1,1,2,NA,"Instruments",2,"stim/objects/Instruments/panflute.png",1,"right","right",0.541000128,1,1,1
"328",88,2,88,0.9,"stim/44.jpeg",4,4,3,NA,"HouseObjects",1,"stim/objects/HouseObjects/rug2.png",2,"left","left",0.628999949,1,1,1
"329",89,2,89,0.9,"stim/41.jpeg",4,1,3,NA,"HouseObjects",1,"stim/objects/HouseObjects/recyclingbin2.png",1,"left","left",0.467000008,1,1,1
"330",90,2,90,0.7,"stim/14.jpeg",1,4,2,NA,"Instruments",2,"stim/objects/Instruments/record_player.png",4,"right","right",0.592000008,1,1,1
"331",91,2,91,0.5,"stim/62.jpeg",6,2,1,NA,"HouseObjects",1,"stim/objects/HouseObjects/match.png",3,"left","left",0.552000046,1,1,1
"332",92,2,92,0.7,"stim/22.jpeg",2,2,2,NA,"HouseObjects",1,"stim/objects/HouseObjects/ironingboard2.png",3,"left","left",0.460000038,1,1,1
"333",93,2,93,0.5,"stim/63.jpeg",6,3,1,NA,"Instruments",2,"stim/objects/Instruments/musicstand.png",4,"right","left",0.542999983,0,0,1
"334",94,2,94,0.3,"stim/12.jpeg",1,2,2,NA,"HouseObjects",1,"stim/objects/HouseObjects/remote.png",2,"left","right",0.463000059,0,0,1
"335",95,2,95,0.9,"stim/44.jpeg",4,4,3,NA,"HouseObjects",1,"stim/objects/HouseObjects/rug2.png",2,"left","left",0.476000071,1,1,1
"336",96,2,96,0.7,"stim/12.jpeg",1,2,2,NA,"Instruments",2,"stim/objects/Instruments/pipepiano.png",1,"right","right",0.529000044,1,1,1
"337",97,2,97,0.5,"stim/54.jpeg",5,4,1,NA,"HouseObjects",1,"stim/objects/HouseObjects/knife.png",1,"left","right",0.625999928,0,0,1
"338",98,2,98,0.3,"stim/23.jpeg",2,3,2,NA,"Instruments",2,"stim/objects/Instruments/maraca2.png",2,"right","left",0.503999949,0,0,1
"339",99,2,99,0.9,"stim/32.jpeg",3,2,3,NA,"Instruments",2,"stim/objects/Instruments/musicsheet2.png",4,"right","right",0.510999918,1,1,1
"340",100,2,100,0.9,"stim/34.jpeg",3,4,3,NA,"Instruments",2,"stim/objects/Instruments/oboe2.png",3,"right","right",0.51699996,1,1,1
"341",101,2,101,0.7,"stim/11.jpeg",1,1,2,NA,"Instruments",2,"stim/objects/Instruments/panflute.png",3,"right","right",0.601000071,1,1,1
"342",102,2,102,0.9,"stim/31.jpeg",3,1,3,NA,"Instruments",2,"stim/objects/Instruments/metronome2.png",1,"right","right",0.44900012,1,1,1
"343",103,2,103,0.9,"stim/32.jpeg",3,2,3,NA,"Instruments",2,"stim/objects/Instruments/musicsheet2.png",4,"right","right",0.467000008,1,1,1
"344",104,2,104,0.7,"stim/23.jpeg",2,3,2,NA,"HouseObjects",1,"stim/objects/HouseObjects/key2.png",1,"left","left",0.368999958,1,1,1
"345",105,2,105,0.5,"stim/62.jpeg",6,2,1,NA,"Instruments",2,"stim/objects/Instruments/musicsheet.png",1,"right","left",0.582999945,0,0,1
"346",106,2,106,0.5,"stim/54.jpeg",5,4,1,NA,"Instruments",2,"stim/objects/Instruments/marimba.png",3,"right","right",0.537999868,1,1,1
"347",107,2,107,0.5,"stim/64.jpeg",6,4,1,NA,"HouseObjects",1,"stim/objects/HouseObjects/pitcher.png",4,"left","left",0.506000042,1,1,1
"348",108,2,108,0.3,"stim/24.jpeg",2,4,2,NA,"Instruments",2,"stim/objects/Instruments/marimba2.png",3,"right","left",0.459000111,0,0,1
"349",109,2,109,0.5,"stim/52.jpeg",5,2,1,NA,"HouseObjects",1,"stim/objects/HouseObjects/ironingboard.png",3,"left","left",0.361000061,1,1,1
"350",110,2,110,0.9,"stim/32.jpeg",3,2,3,NA,"Instruments",2,"stim/objects/Instruments/musicsheet2.png",3,"right","right",0.557999849,1,1,1
"351",111,2,111,0.7,"stim/11.jpeg",1,1,2,NA,"Instruments",2,"stim/objects/Instruments/panflute.png",3,"right","right",0.588000059,1,1,1
"352",112,2,112,0.3,"stim/11.jpeg",1,1,2,NA,"HouseObjects",1,"stim/objects/HouseObjects/recyclingbin.png",2,"left","right",0.495000124,0,0,1
"353",113,2,113,0.5,"stim/61.jpeg",6,1,1,NA,"Instruments",2,"stim/objects/Instruments/metronome.png",2,"right","left",0.510999918,0,0,1
"354",114,2,114,0.7,"stim/14.jpeg",1,4,2,NA,"Instruments",2,"stim/objects/Instruments/record_player.png",4,"right","right",0.623999834,1,1,1
"355",115,2,115,0.5,"stim/52.jpeg",5,2,1,NA,"HouseObjects",1,"stim/objects/HouseObjects/ironingboard.png",1,"left","left",0.489000082,1,1,1
"356",116,2,116,0.5,"stim/52.jpeg",5,2,1,NA,"HouseObjects",1,"stim/objects/HouseObjects/ironingboard.png",2,"left","right",0.755000114,0,0,1
"357",117,2,117,0.5,"stim/51.jpeg",5,1,1,NA,"HouseObjects",1,"stim/objects/HouseObjects/iron.png",3,"left","right",0.845000029,0,0,1
"358",118,2,118,0.3,"stim/13.jpeg",1,3,2,NA,"HouseObjects",1,"stim/objects/HouseObjects/rubbergloves.png",1,"left","right",0.5400002,0,0,1
"359",119,2,119,0.9,"stim/33.jpeg",3,3,3,NA,"Instruments",2,"stim/objects/Instruments/musicstand2.png",3,"right","right",0.46600008,1,1,1
"360",120,2,120,0.9,"stim/33.jpeg",3,3,3,NA,"Instruments",2,"stim/objects/Instruments/musicstand2.png",2,"right","right",0.546000004,1,1,1
"361",121,2,121,0.7,"stim/23.jpeg",2,3,2,NA,"HouseObjects",1,"stim/objects/HouseObjects/key2.png",2,"left","left",0.602999926,1,1,1
"362",122,2,122,0.5,"stim/51.jpeg",5,1,1,NA,"HouseObjects",1,"stim/objects/HouseObjects/iron.png",1,"left","right",0.595999956,0,0,1
"363",123,2,123,0.9,"stim/31.jpeg",3,1,3,NA,"Instruments",2,"stim/objects/Instruments/metronome2.png",2,"right","right",0.493999958,1,1,1
"364",124,2,124,0.7,"stim/13.jpeg",1,3,2,NA,"Instruments",2,"stim/objects/Instruments/record.png",2,"right","right",0.50999999,1,1,1
"365",125,2,125,0.5,"stim/51.jpeg",5,1,1,NA,"Instruments",2,"stim/objects/Instruments/keyboard.png",4,"right","right",0.641000032,1,1,1
"366",126,2,126,0.5,"stim/54.jpeg",5,4,1,NA,"HouseObjects",1,"stim/objects/HouseObjects/knife.png",2,"left","left",0.835999966,1,1,1
"367",127,2,127,0.9,"stim/44.jpeg",4,4,3,NA,"HouseObjects",1,"stim/objects/HouseObjects/rug2.png",4,"left","left",0.545000076,1,1,1
"368",128,2,128,0.7,"stim/24.jpeg",2,4,2,NA,"HouseObjects",1,"stim/objects/HouseObjects/knife2.png",3,"left","left",0.487999916,1,1,1
"369",129,2,129,0.5,"stim/53.jpeg",5,3,1,NA,"HouseObjects",1,"stim/objects/HouseObjects/key.png",4,"left","right",0.601000071,0,0,1
"370",130,2,130,0.3,"stim/22.jpeg",2,2,2,NA,"Instruments",2,"stim/objects/Instruments/laud2.png",4,"right","left",0.454999924,0,0,1
"371",131,2,131,0.1,"stim/32.jpeg",3,2,3,NA,"HouseObjects",1,"stim/objects/HouseObjects/match2.png",4,"left","right",0.498000145,0,0,1
"372",132,2,132,0.3,"stim/11.jpeg",1,1,2,NA,"HouseObjects",1,"stim/objects/HouseObjects/recyclingbin.png",1,"left","right",0.534999847,0,0,1
"373",133,2,133,0.7,"stim/13.jpeg",1,3,2,NA,"Instruments",2,"stim/objects/Instruments/record.png",4,"right","right",0.45600009,1,1,1
"374",134,2,134,0.9,"stim/42.jpeg",4,2,3,NA,"HouseObjects",1,"stim/objects/HouseObjects/remote2.png",4,"left","left",0.545000076,1,1,1
"375",135,2,135,0.5,"stim/63.jpeg",6,3,1,NA,"Instruments",2,"stim/objects/Instruments/musicstand.png",1,"right","",NA,0,0,1
"376",136,2,136,0.5,"stim/54.jpeg",5,4,1,NA,"Instruments",2,"stim/objects/Instruments/marimba.png",3,"right","right",0.715999842,1,1,1
"377",137,2,137,0.9,"stim/32.jpeg",3,2,3,NA,"Instruments",2,"stim/objects/Instruments/musicsheet2.png",4,"right","right",0.546000004,1,1,1
"378",138,2,138,0.1,"stim/42.jpeg",4,2,3,NA,"Instruments",2,"stim/objects/Instruments/pipepiano2.png",3,"right","left",0.523000002,0,0,1
"379",139,2,139,0.9,"stim/32.jpeg",3,2,3,NA,"Instruments",2,"stim/objects/Instruments/musicsheet2.png",4,"right","right",0.537000179,1,1,1
"380",140,2,140,0.5,"stim/64.jpeg",6,4,1,NA,"HouseObjects",1,"stim/objects/HouseObjects/pitcher.png",3,"left","left",0.621000051,1,1,1
"381",141,2,141,0.5,"stim/51.jpeg",5,1,1,NA,"Instruments",2,"stim/objects/Instruments/keyboard.png",4,"right","right",0.679999828,1,1,1
"382",142,2,142,0.5,"stim/63.jpeg",6,3,1,NA,"HouseObjects",1,"stim/objects/HouseObjects/pan.png",1,"left","left",0.753999949,1,1,1
"383",143,2,143,0.9,"stim/34.jpeg",3,4,3,NA,"Instruments",2,"stim/objects/Instruments/oboe2.png",4,"right","right",0.54399991,1,1,1
"384",144,2,144,0.7,"stim/14.jpeg",1,4,2,NA,"Instruments",2,"stim/objects/Instruments/record_player.png",2,"right","right",0.538000107,1,1,1
"385",145,2,145,0.9,"stim/33.jpeg",3,3,3,NA,"Instruments",2,"stim/objects/Instruments/musicstand2.png",2,"right","right",0.529999971,1,1,1
"386",146,2,146,0.3,"stim/11.jpeg",1,1,2,NA,"HouseObjects",1,"stim/objects/HouseObjects/recyclingbin.png",4,"left","right",0.491999865,0,0,1
"387",147,2,147,0.5,"stim/64.jpeg",6,4,1,NA,"Instruments",2,"stim/objects/Instruments/oboe.png",2,"right","left",0.644000053,0,0,1
"388",148,2,148,0.3,"stim/24.jpeg",2,4,2,NA,"Instruments",2,"stim/objects/Instruments/marimba2.png",2,"right","left",0.56099987,0,0,1
"389",149,2,149,0.9,"stim/33.jpeg",3,3,3,NA,"Instruments",2,"stim/objects/Instruments/musicstand2.png",2,"right","right",0.460000038,1,1,1
"390",150,2,150,0.9,"stim/41.jpeg",4,1,3,NA,"HouseObjects",1,"stim/objects/HouseObjects/recyclingbin2.png",1,"left","left",0.494999886,1,1,1
"391",151,2,151,0.5,"stim/61.jpeg",6,1,1,NA,"HouseObjects",1,"stim/objects/HouseObjects/lintroller.png",2,"left","left",0.592000008,1,1,1
"392",152,2,152,0.1,"stim/44.jpeg",4,4,3,NA,"Instruments",2,"stim/objects/Instruments/record_player2.png",3,"right","left",0.481000185,0,0,1
"393",153,2,153,0.5,"stim/61.jpeg",6,1,1,NA,"Instruments",2,"stim/objects/Instruments/metronome.png",3,"right","right",0.914999962,1,1,1
"394",154,2,154,0.5,"stim/53.jpeg",5,3,1,NA,"Instruments",2,"stim/objects/Instruments/maraca.png",2,"right","right",0.603999853,1,1,1
"395",155,2,155,0.5,"stim/62.jpeg",6,2,1,NA,"Instruments",2,"stim/objects/Instruments/musicsheet.png",2,"right","left",0.442000151,0,0,1
"396",156,2,156,0.9,"stim/42.jpeg",4,2,3,NA,"HouseObjects",1,"stim/objects/HouseObjects/remote2.png",1,"left","left",0.526000023,1,1,1
"397",157,2,157,0.9,"stim/43.jpeg",4,3,3,NA,"HouseObjects",1,"stim/objects/HouseObjects/rubbergloves2.png",3,"left","left",0.823999882,1,1,1
"398",158,2,158,0.9,"stim/42.jpeg",4,2,3,NA,"HouseObjects",1,"stim/objects/HouseObjects/remote2.png",1,"left","left",0.508000135,1,1,1
"399",159,2,159,0.7,"stim/24.jpeg",2,4,2,NA,"HouseObjects",1,"stim/objects/HouseObjects/knife2.png",4,"left","left",0.480999947,1,1,1
"400",160,2,160,0.5,"stim/52.jpeg",5,2,1,NA,"Instruments",2,"stim/objects/Instruments/laud.png",2,"right","right",0.625999928,1,1,1
"401",161,2,161,0.5,"stim/62.jpeg",6,2,1,NA,"HouseObjects",1,"stim/objects/HouseObjects/match.png",1,"left","left",0.508000135,1,1,1
"402",162,2,162,0.9,"stim/43.jpeg",4,3,3,NA,"HouseObjects",1,"stim/objects/HouseObjects/rubbergloves2.png",1,"left","left",0.50999999,1,1,1
"403",163,2,163,0.7,"stim/12.jpeg",1,2,2,NA,"Instruments",2,"stim/objects/Instruments/pipepiano.png",2,"right","right",0.599999905,1,1,1
"404",164,2,164,0.7,"stim/21.jpeg",2,1,2,NA,"HouseObjects",1,"stim/objects/HouseObjects/iron2.png",2,"left","left",0.541000128,1,1,1
"405",165,2,165,0.5,"stim/51.jpeg",5,1,1,NA,"Instruments",2,"stim/objects/Instruments/keyboard.png",1,"right","right",0.727999926,1,1,1
"406",166,2,166,0.9,"stim/34.jpeg",3,4,3,NA,"Instruments",2,"stim/objects/Instruments/oboe2.png",3,"right","right",0.462000132,1,1,1
"407",167,2,167,0.5,"stim/61.jpeg",6,1,1,NA,"Instruments",2,"stim/objects/Instruments/metronome.png",3,"right","right",0.660000086,1,1,1
"408",168,2,168,0.9,"stim/44.jpeg",4,4,3,NA,"HouseObjects",1,"stim/objects/HouseObjects/rug2.png",2,"left","left",0.613999844,1,1,1
"409",169,2,169,0.9,"stim/43.jpeg",4,3,3,NA,"HouseObjects",1,"stim/objects/HouseObjects/rubbergloves2.png",2,"left","left",0.414000034,1,1,1
"410",170,2,170,0.7,"stim/14.jpeg",1,4,2,NA,"Instruments",2,"stim/objects/Instruments/record_player.png",3,"right","right",0.603000164,1,1,1
"411",171,2,171,0.3,"stim/12.jpeg",1,2,2,NA,"HouseObjects",1,"stim/objects/HouseObjects/remote.png",2,"left","right",0.499000072,0,0,1
"412",172,2,172,0.5,"stim/63.jpeg",6,3,1,NA,"HouseObjects",1,"stim/objects/HouseObjects/pan.png",4,"left","left",0.633000135,1,1,1
"413",173,2,173,0.7,"stim/13.jpeg",1,3,2,NA,"Instruments",2,"stim/objects/Instruments/record.png",4,"right","right",0.542000055,1,1,1
"414",174,2,174,0.3,"stim/21.jpeg",2,1,2,NA,"Instruments",2,"stim/objects/Instruments/keyboard2.png",4,"right","left",0.527000189,0,0,1
"415",175,2,175,0.9,"stim/43.jpeg",4,3,3,NA,"HouseObjects",1,"stim/objects/HouseObjects/rubbergloves2.png",3,"left","left",0.48300004,1,1,1
"416",176,2,176,0.5,"stim/61.jpeg",6,1,1,NA,"HouseObjects",1,"stim/objects/HouseObjects/lintroller.png",4,"left","right",0.537000179,0,0,1
"417",177,2,177,0.7,"stim/22.jpeg",2,2,2,NA,"HouseObjects",1,"stim/objects/HouseObjects/ironingboard2.png",1,"left","left",0.478999853,1,1,1
"418",178,2,178,0.7,"stim/21.jpeg",2,1,2,NA,"HouseObjects",1,"stim/objects/HouseObjects/iron2.png",2,"left","left",0.49000001,1,1,1
"419",179,2,179,0.9,"stim/33.jpeg",3,3,3,NA,"Instruments",2,"stim/objects/Instruments/musicstand2.png",2,"right","right",0.552000046,1,1,1
"420",180,2,180,0.5,"stim/52.jpeg",5,2,1,NA,"HouseObjects",1,"stim/objects/HouseObjects/ironingboard.png",2,"left","right",0.605000019,0,0,1
"421",181,2,181,0.9,"stim/42.jpeg",4,2,3,NA,"HouseObjects",1,"stim/objects/HouseObjects/remote2.png",3,"left","left",0.524999857,1,1,1
"422",182,2,182,0.7,"stim/22.jpeg",2,2,2,NA,"HouseObjects",1,"stim/objects/HouseObjects/ironingboard2.png",4,"left","left",0.480000019,1,1,1
"423",183,2,183,0.7,"stim/21.jpeg",2,1,2,NA,"HouseObjects",1,"stim/objects/HouseObjects/iron2.png",1,"left","left",0.519999981,1,1,1
"424",184,2,184,0.3,"stim/23.jpeg",2,3,2,NA,"Instruments",2,"stim/objects/Instruments/maraca2.png",1,"right","left",0.463999987,0,0,1
"425",185,2,185,0.5,"stim/54.jpeg",5,4,1,NA,"Instruments",2,"stim/objects/Instruments/marimba.png",4,"right","right",0.617000103,1,1,1
"426",186,2,186,0.7,"stim/24.jpeg",2,4,2,NA,"HouseObjects",1,"stim/objects/HouseObjects/knife2.png",4,"left","left",0.49000001,1,1,1
"427",187,2,187,0.3,"stim/13.jpeg",1,3,2,NA,"HouseObjects",1,"stim/objects/HouseObjects/rubbergloves.png",4,"left","right",0.517999887,0,0,1
"428",188,2,188,0.7,"stim/23.jpeg",2,3,2,NA,"HouseObjects",1,"stim/objects/HouseObjects/key2.png",4,"left","left",0.559000015,1,1,1
"429",189,2,189,0.9,"stim/42.jpeg",4,2,3,NA,"HouseObjects",1,"stim/objects/HouseObjects/remote2.png",2,"left","left",0.501000166,1,1,1
"430",190,2,190,0.9,"stim/41.jpeg",4,1,3,NA,"HouseObjects",1,"stim/objects/HouseObjects/recyclingbin2.png",2,"left","left",0.497000217,1,1,1
"431",191,2,191,0.5,"stim/61.jpeg",6,1,1,NA,"HouseObjects",1,"stim/objects/HouseObjects/lintroller.png",4,"left","right",0.551999807,0,0,1
"432",192,2,192,0.7,"stim/23.jpeg",2,3,2,NA,"HouseObjects",1,"stim/objects/HouseObjects/key2.png",1,"left","left",0.40899992,1,1,1
"433",193,2,193,0.7,"stim/21.jpeg",2,1,2,NA,"HouseObjects",1,"stim/objects/HouseObjects/iron2.png",1,"left","left",0.595000029,1,1,1
"434",194,2,194,0.9,"stim/32.jpeg",3,2,3,NA,"Instruments",2,"stim/objects/Instruments/musicsheet2.png",1,"right","right",0.519999981,1,1,1
"435",195,2,195,0.3,"stim/14.jpeg",1,4,2,NA,"HouseObjects",1,"stim/objects/HouseObjects/rug.png",4,"left","right",0.419999838,0,0,1
"436",196,2,196,0.1,"stim/41.jpeg",4,1,3,NA,"Instruments",2,"stim/objects/Instruments/panflute2.png",1,"right","left",0.392999887,0,0,1
"437",197,2,197,0.5,"stim/64.jpeg",6,4,1,NA,"Instruments",2,"stim/objects/Instruments/oboe.png",3,"right","right",0.489000082,1,1,1
"438",198,2,198,0.5,"stim/53.jpeg",5,3,1,NA,"Instruments",2,"stim/objects/Instruments/maraca.png",3,"right","right",0.58100009,1,1,1
"439",199,2,199,0.5,"stim/54.jpeg",5,4,1,NA,"HouseObjects",1,"stim/objects/HouseObjects/knife.png",4,"left","left",0.506999969,1,1,1
"440",200,2,200,0.5,"stim/52.jpeg",5,2,1,NA,"Instruments",2,"stim/objects/Instruments/laud.png",3,"right","left",0.75999999,0,0,1
"441",201,2,201,0.9,"stim/43.jpeg",4,3,3,NA,"HouseObjects",1,"stim/objects/HouseObjects/rubbergloves2.png",4,"left","",NA,0,0,1
"442",202,2,202,0.5,"stim/63.jpeg",6,3,1,NA,"HouseObjects",1,"stim/objects/HouseObjects/pan.png",3,"left","left",0.569999933,1,1,1
"443",203,2,203,0.9,"stim/31.jpeg",3,1,3,NA,"Instruments",2,"stim/objects/Instruments/metronome2.png",1,"right","right",0.506999969,1,1,1
"444",204,2,204,0.5,"stim/51.jpeg",5,1,1,NA,"HouseObjects",1,"stim/objects/HouseObjects/iron.png",1,"left","right",0.529999971,0,0,1
"445",205,2,205,0.7,"stim/13.jpeg",1,3,2,NA,"Instruments",2,"stim/objects/Instruments/record.png",4,"right","right",0.520999908,1,1,1
"446",206,2,206,0.5,"stim/53.jpeg",5,3,1,NA,"Instruments",2,"stim/objects/Instruments/maraca.png",3,"right","right",0.576999903,1,1,1
"447",207,2,207,0.3,"stim/12.jpeg",1,2,2,NA,"HouseObjects",1,"stim/objects/HouseObjects/remote.png",1,"left","right",0.527999878,0,0,1
"448",208,2,208,0.5,"stim/51.jpeg",5,1,1,NA,"Instruments",2,"stim/objects/Instruments/keyboard.png",1,"right","right",0.583999872,1,1,1
"449",209,2,209,0.7,"stim/11.jpeg",1,1,2,NA,"Instruments",2,"stim/objects/Instruments/panflute.png",2,"right","right",0.595999956,1,1,1
"450",210,2,210,0.7,"stim/21.jpeg",2,1,2,NA,"HouseObjects",1,"stim/objects/HouseObjects/iron2.png",1,"left","left",0.601999998,1,1,1
"451",211,2,211,0.5,"stim/53.jpeg",5,3,1,NA,"HouseObjects",1,"stim/objects/HouseObjects/key.png",2,"left","right",0.667000055,0,0,1
"452",212,2,212,0.5,"stim/64.jpeg",6,4,1,NA,"Instruments",2,"stim/objects/Instruments/oboe.png",1,"right","left",0.604000092,0,0,1
"453",213,2,213,0.5,"stim/51.jpeg",5,1,1,NA,"HouseObjects",1,"stim/objects/HouseObjects/iron.png",2,"left","right",0.632999897,0,0,1
"454",214,2,214,0.7,"stim/12.jpeg",1,2,2,NA,"Instruments",2,"stim/objects/Instruments/pipepiano.png",1,"right","right",0.704999924,1,1,1
"455",215,2,215,0.7,"stim/24.jpeg",2,4,2,NA,"HouseObjects",1,"stim/objects/HouseObjects/knife2.png",2,"left","left",0.504999876,1,1,1
"456",216,2,216,0.1,"stim/31.jpeg",3,1,3,NA,"HouseObjects",1,"stim/objects/HouseObjects/lintroller2.png",4,"left","right",0.536000013,0,0,1
"457",217,2,217,0.5,"stim/64.jpeg",6,4,1,NA,"HouseObjects",1,"stim/objects/HouseObjects/pitcher.png",4,"left","left",0.565999985,1,1,1
"458",218,2,218,0.5,"stim/62.jpeg",6,2,1,NA,"Instruments",2,"stim/objects/Instruments/musicsheet.png",2,"right","left",0.614000082,0,0,1
"459",219,2,219,0.1,"stim/33.jpeg",3,3,3,NA,"HouseObjects",1,"stim/objects/HouseObjects/pan2.png",4,"left","right",0.513999939,0,0,1
"460",220,2,220,0.9,"stim/43.jpeg",4,3,3,NA,"HouseObjects",1,"stim/objects/HouseObjects/rubbergloves2.png",1,"left","left",0.460000038,1,1,1
"461",221,2,221,0.5,"stim/64.jpeg",6,4,1,NA,"Instruments",2,"stim/objects/Instruments/oboe.png",3,"right","left",0.506999969,0,0,1
"462",222,2,222,0.9,"stim/32.jpeg",3,2,3,NA,"Instruments",2,"stim/objects/Instruments/musicsheet2.png",3,"right","right",0.494999886,1,1,1
"463",223,2,223,0.5,"stim/61.jpeg",6,1,1,NA,"Instruments",2,"stim/objects/Instruments/metronome.png",2,"right","right",0.524000168,1,1,1
"464",224,2,224,0.5,"stim/62.jpeg",6,2,1,NA,"HouseObjects",1,"stim/objects/HouseObjects/match.png",3,"left","left",0.454999924,1,1,1
"465",225,2,225,0.5,"stim/64.jpeg",6,4,1,NA,"Instruments",2,"stim/objects/Instruments/oboe.png",3,"right","left",0.524999857,0,0,1
"466",226,2,226,0.5,"stim/54.jpeg",5,4,1,NA,"HouseObjects",1,"stim/objects/HouseObjects/knife.png",4,"left","right",0.478000164,0,0,1
"467",227,2,227,0.5,"stim/52.jpeg",5,2,1,NA,"Instruments",2,"stim/objects/Instruments/laud.png",4,"right","right",0.654000044,1,1,1
"468",228,2,228,0.5,"stim/61.jpeg",6,1,1,NA,"Instruments",2,"stim/objects/Instruments/metronome.png",1,"right","right",0.535999775,1,1,1
"469",229,2,229,0.9,"stim/33.jpeg",3,3,3,NA,"Instruments",2,"stim/objects/Instruments/musicstand2.png",4,"right","right",0.447000027,1,1,1
"470",230,2,230,0.5,"stim/53.jpeg",5,3,1,NA,"Instruments",2,"stim/objects/Instruments/maraca.png",2,"right","right",0.595999956,1,1,1
"471",231,2,231,0.7,"stim/14.jpeg",1,4,2,NA,"Instruments",2,"stim/objects/Instruments/record_player.png",3,"right","right",0.634000063,1,1,1
"472",232,2,232,0.5,"stim/51.jpeg",5,1,1,NA,"HouseObjects",1,"stim/objects/HouseObjects/iron.png",1,"left","right",0.502000093,0,0,1
"473",233,2,233,0.5,"stim/54.jpeg",5,4,1,NA,"Instruments",2,"stim/objects/Instruments/marimba.png",2,"right","left",0.752000093,0,0,1
"474",234,2,234,0.9,"stim/41.jpeg",4,1,3,NA,"HouseObjects",1,"stim/objects/HouseObjects/recyclingbin2.png",1,"left","left",0.691000223,1,1,1
"475",235,2,235,0.5,"stim/63.jpeg",6,3,1,NA,"HouseObjects",1,"stim/objects/HouseObjects/pan.png",4,"left","right",0.613999844,0,0,1
"476",236,2,236,0.5,"stim/61.jpeg",6,1,1,NA,"HouseObjects",1,"stim/objects/HouseObjects/lintroller.png",2,"left","right",0.545000076,0,0,1
"477",237,2,237,0.5,"stim/52.jpeg",5,2,1,NA,"Instruments",2,"stim/objects/Instruments/laud.png",2,"right","right",0.667000055,1,1,1
"478",238,2,238,0.9,"stim/44.jpeg",4,4,3,NA,"HouseObjects",1,"stim/objects/HouseObjects/rug2.png",2,"left","left",0.523999929,1,1,1
"479",239,2,239,0.7,"stim/11.jpeg",1,1,2,NA,"Instruments",2,"stim/objects/Instruments/panflute.png",3,"right","right",0.469000101,1,1,1
"480",240,2,240,0.9,"stim/42.jpeg",4,2,3,NA,"HouseObjects",1,"stim/objects/HouseObjects/remote2.png",3,"left","left",0.601999998,1,1,1
"481",1,3,1,0.5,"stim/22.jpeg",2,2,1,NA,"HouseObjects",2,"stim/objects/HouseObjects/saw.png",3,"right","left",0.557999849,0,0,1
"482",2,3,2,0.5,"stim/22.jpeg",2,2,1,NA,"Instruments",1,"stim/objects/Instruments/speaker.png",1,"left","left",0.701999903,1,1,1
"483",3,3,3,0.1,"stim/63.jpeg",6,3,3,NA,"HouseObjects",2,"stim/objects/HouseObjects/thermometer2.png",4,"right","left",0.686999798,0,0,1
"484",4,3,4,0.7,"stim/32.jpeg",3,2,2,NA,"HouseObjects",2,"stim/objects/HouseObjects/teapot.png",4,"right","right",0.782999754,1,1,1
"485",5,3,5,0.7,"stim/43.jpeg",4,3,2,NA,"Instruments",1,"stim/objects/Instruments/record2.png",1,"left","left",0.689999819,1,1,1
"486",6,3,6,0.3,"stim/44.jpeg",4,4,2,NA,"HouseObjects",2,"stim/objects/HouseObjects/rug2.png",1,"right","",NA,0,0,1
"487",7,3,7,0.5,"stim/22.jpeg",2,2,1,NA,"HouseObjects",2,"stim/objects/HouseObjects/saw.png",1,"right","",NA,0,0,1
"488",8,3,8,0.9,"stim/51.jpeg",5,1,3,NA,"HouseObjects",2,"stim/objects/HouseObjects/safetypin2.png",4,"right","left",0.670999765,0,0,1
"489",9,3,9,0.3,"stim/33.jpeg",3,3,2,NA,"Instruments",1,"stim/objects/Instruments/trumpet.png",1,"left","right",0.808999777,0,0,1
"490",10,3,10,0.7,"stim/42.jpeg",4,2,2,NA,"Instruments",1,"stim/objects/Instruments/pipepiano2.png",4,"left","left",0.663999796,1,1,1
"491",11,3,11,0.5,"stim/21.jpeg",2,1,1,NA,"HouseObjects",2,"stim/objects/HouseObjects/safetypin.png",4,"right","right",0.839999914,1,1,1
"492",12,3,12,0.5,"stim/11.jpeg",1,1,1,NA,"Instruments",1,"stim/objects/Instruments/panflute.png",4,"left","right",0.762999773,0,0,1
"493",13,3,13,0.9,"stim/52.jpeg",5,2,3,NA,"HouseObjects",2,"stim/objects/HouseObjects/saw2.png",2,"right","right",0.606999874,1,1,1
"494",14,3,14,0.7,"stim/43.jpeg",4,3,2,NA,"Instruments",1,"stim/objects/Instruments/record2.png",1,"left","left",0.803999662,1,1,1
"495",15,3,15,0.1,"stim/52.jpeg",5,2,3,NA,"Instruments",1,"stim/objects/Instruments/speaker2.png",3,"left","right",0.647999763,0,0,1
"496",16,3,16,0.9,"stim/61.jpeg",6,1,3,NA,"Instruments",1,"stim/objects/Instruments/triangle2.png",2,"left","left",0.686999798,1,1,1
"497",17,3,17,0.5,"stim/14.jpeg",1,4,1,NA,"Instruments",1,"stim/objects/Instruments/record_player.png",4,"left","right",0.774999857,0,0,1
"498",18,3,18,0.9,"stim/64.jpeg",6,4,3,NA,"Instruments",1,"stim/objects/Instruments/tuba2.png",3,"left","left",0.545999765,1,1,1
"499",19,3,19,0.3,"stim/43.jpeg",4,3,2,NA,"HouseObjects",2,"stim/objects/HouseObjects/rubbergloves2.png",4,"right","left",0.687999725,0,0,1
"500",20,3,20,0.9,"stim/51.jpeg",5,1,3,NA,"HouseObjects",2,"stim/objects/HouseObjects/safetypin2.png",1,"right","right",0.690999985,1,1,1
"501",21,3,21,0.7,"stim/42.jpeg",4,2,2,NA,"Instruments",1,"stim/objects/Instruments/pipepiano2.png",4,"left","left",0.802999973,1,1,1
"502",22,3,22,0.5,"stim/24.jpeg",2,4,1,NA,"Instruments",1,"stim/objects/Instruments/timbal.png",3,"left","",NA,0,0,1
"503",23,3,23,0.9,"stim/52.jpeg",5,2,3,NA,"HouseObjects",2,"stim/objects/HouseObjects/saw2.png",1,"right","",NA,0,0,1
"504",24,3,24,0.5,"stim/14.jpeg",1,4,1,NA,"HouseObjects",2,"stim/objects/HouseObjects/rug.png",3,"right","left",0.750999928,0,0,1
"505",25,3,25,0.3,"stim/32.jpeg",3,2,2,NA,"Instruments",1,"stim/objects/Instruments/trombone.png",2,"left","right",0.460999727,0,0,1
"506",26,3,26,0.9,"stim/53.jpeg",5,3,3,NA,"HouseObjects",2,"stim/objects/HouseObjects/scale2.png",1,"right","left",0.635999918,0,0,1
"507",27,3,27,0.9,"stim/62.jpeg",6,2,3,NA,"Instruments",1,"stim/objects/Instruments/trombone2.png",1,"left","left",0.551999807,1,1,1
"508",28,3,28,0.9,"stim/51.jpeg",5,1,3,NA,"HouseObjects",2,"stim/objects/HouseObjects/safetypin2.png",1,"right","right",0.61199975,1,1,1
"509",29,3,29,0.7,"stim/41.jpeg",4,1,2,NA,"Instruments",1,"stim/objects/Instruments/panflute2.png",1,"left","right",0.689999819,0,0,1
"510",30,3,30,0.9,"stim/61.jpeg",6,1,3,NA,"Instruments",1,"stim/objects/Instruments/triangle2.png",2,"left","left",0.59499979,1,1,1
"511",31,3,31,0.9,"stim/54.jpeg",5,4,3,NA,"HouseObjects",2,"stim/objects/HouseObjects/sponge2.png",1,"right","",NA,0,0,1
"512",32,3,32,0.3,"stim/34.jpeg",3,4,2,NA,"Instruments",1,"stim/objects/Instruments/tuba.png",2,"left","right",0.721999884,0,0,1
"513",33,3,33,0.3,"stim/31.jpeg",3,1,2,NA,"Instruments",1,"stim/objects/Instruments/triangle.png",3,"left","right",0.648000002,0,0,1
"514",34,3,34,0.9,"stim/62.jpeg",6,2,3,NA,"Instruments",1,"stim/objects/Instruments/trombone2.png",1,"left","left",0.546999693,1,1,1
"515",35,3,35,0.5,"stim/21.jpeg",2,1,1,NA,"Instruments",1,"stim/objects/Instruments/saxophone.png",4,"left","right",0.598999977,0,0,1
"516",36,3,36,0.7,"stim/41.jpeg",4,1,2,NA,"Instruments",1,"stim/objects/Instruments/panflute2.png",1,"left","left",0.570999861,1,1,1
"517",37,3,37,0.7,"stim/43.jpeg",4,3,2,NA,"Instruments",1,"stim/objects/Instruments/record2.png",1,"left","left",0.679999828,1,1,1
"518",38,3,38,0.9,"stim/53.jpeg",5,3,3,NA,"HouseObjects",2,"stim/objects/HouseObjects/scale2.png",2,"right","right",0.606999874,1,1,1
"519",39,3,39,0.5,"stim/11.jpeg",1,1,1,NA,"HouseObjects",2,"stim/objects/HouseObjects/recyclingbin.png",1,"right","right",0.572999716,1,1,1
"520",40,3,40,0.5,"stim/23.jpeg",2,3,1,NA,"HouseObjects",2,"stim/objects/HouseObjects/scale.png",1,"right","left",0.901999712,0,0,1
"521",41,3,41,0.9,"stim/64.jpeg",6,4,3,NA,"Instruments",1,"stim/objects/Instruments/tuba2.png",3,"left","left",0.631999731,1,1,1
"522",42,3,42,0.5,"stim/12.jpeg",1,2,1,NA,"HouseObjects",2,"stim/objects/HouseObjects/remote.png",2,"right","right",0.665999889,1,1,1
"523",43,3,43,0.5,"stim/12.jpeg",1,2,1,NA,"HouseObjects",2,"stim/objects/HouseObjects/remote.png",3,"right","right",0.695999861,1,1,1
"524",44,3,44,0.5,"stim/11.jpeg",1,1,1,NA,"HouseObjects",2,"stim/objects/HouseObjects/recyclingbin.png",2,"right","",NA,0,0,1
"525",45,3,45,0.5,"stim/24.jpeg",2,4,1,NA,"HouseObjects",2,"stim/objects/HouseObjects/sponge.png",2,"right","right",0.569000006,1,1,1
"526",46,3,46,0.5,"stim/14.jpeg",1,4,1,NA,"Instruments",1,"stim/objects/Instruments/record_player.png",1,"left","right",0.782999754,0,0,1
"527",47,3,47,0.5,"stim/13.jpeg",1,3,1,NA,"Instruments",1,"stim/objects/Instruments/record.png",2,"left","left",0.710999966,1,1,1
"528",48,3,48,0.7,"stim/34.jpeg",3,4,2,NA,"HouseObjects",2,"stim/objects/HouseObjects/thread.png",2,"right","right",0.77099967,1,1,1
"529",49,3,49,0.9,"stim/51.jpeg",5,1,3,NA,"HouseObjects",2,"stim/objects/HouseObjects/safetypin2.png",2,"right","right",0.599999666,1,1,1
"530",50,3,50,0.5,"stim/11.jpeg",1,1,1,NA,"HouseObjects",2,"stim/objects/HouseObjects/recyclingbin.png",2,"right","right",0.493999958,1,1,1
"531",51,3,51,0.9,"stim/63.jpeg",6,3,3,NA,"Instruments",1,"stim/objects/Instruments/trumpet2.png",3,"left","left",0.540999889,1,1,1
"532",52,3,52,0.5,"stim/22.jpeg",2,2,1,NA,"HouseObjects",2,"stim/objects/HouseObjects/saw.png",1,"right","right",0.44299984,1,1,1
"533",53,3,53,0.5,"stim/24.jpeg",2,4,1,NA,"Instruments",1,"stim/objects/Instruments/timbal.png",4,"left","left",0.707999706,1,1,1
"534",54,3,54,0.3,"stim/42.jpeg",4,2,2,NA,"HouseObjects",2,"stim/objects/HouseObjects/remote2.png",2,"right","left",0.698999882,0,0,1
"535",55,3,55,0.5,"stim/14.jpeg",1,4,1,NA,"Instruments",1,"stim/objects/Instruments/record_player.png",4,"left","left",0.718999863,1,1,1
"536",56,3,56,0.7,"stim/32.jpeg",3,2,2,NA,"HouseObjects",2,"stim/objects/HouseObjects/teapot.png",3,"right","right",0.615999937,1,1,1
"537",57,3,57,0.7,"stim/44.jpeg",4,4,2,NA,"Instruments",1,"stim/objects/Instruments/record_player2.png",1,"left","left",0.638999701,1,1,1
"538",58,3,58,0.5,"stim/24.jpeg",2,4,1,NA,"HouseObjects",2,"stim/objects/HouseObjects/sponge.png",2,"right","left",0.467000008,0,0,1
"539",59,3,59,0.9,"stim/51.jpeg",5,1,3,NA,"HouseObjects",2,"stim/objects/HouseObjects/safetypin2.png",2,"right","right",0.639999866,1,1,1
"540",60,3,60,0.7,"stim/43.jpeg",4,3,2,NA,"Instruments",1,"stim/objects/Instruments/record2.png",4,"left","right",0.621999979,0,0,1
"541",61,3,61,0.7,"stim/44.jpeg",4,4,2,NA,"Instruments",1,"stim/objects/Instruments/record_player2.png",3,"left","",NA,0,0,1
"542",62,3,62,0.7,"stim/41.jpeg",4,1,2,NA,"Instruments",1,"stim/objects/Instruments/panflute2.png",3,"left","left",0.487999916,1,1,1
"543",63,3,63,0.7,"stim/33.jpeg",3,3,2,NA,"HouseObjects",2,"stim/objects/HouseObjects/thermometer.png",4,"right","right",0.57799983,1,1,1
"544",64,3,64,0.5,"stim/13.jpeg",1,3,1,NA,"Instruments",1,"stim/objects/Instruments/record.png",3,"left","right",0.805999756,0,0,1
"545",65,3,65,0.5,"stim/11.jpeg",1,1,1,NA,"Instruments",1,"stim/objects/Instruments/panflute.png",1,"left","left",0.481999874,1,1,1
"546",66,3,66,0.9,"stim/61.jpeg",6,1,3,NA,"Instruments",1,"stim/objects/Instruments/triangle2.png",4,"left","left",0.677999735,1,1,1
"547",67,3,67,0.9,"stim/52.jpeg",5,2,3,NA,"HouseObjects",2,"stim/objects/HouseObjects/saw2.png",4,"right","right",0.712999821,1,1,1
"548",68,3,68,0.3,"stim/34.jpeg",3,4,2,NA,"Instruments",1,"stim/objects/Instruments/tuba.png",3,"left","right",0.803999901,0,0,1
"549",69,3,69,0.1,"stim/61.jpeg",6,1,3,NA,"HouseObjects",2,"stim/objects/HouseObjects/spraybottle2.png",2,"right","left",0.659999847,0,0,1
"550",70,3,70,0.9,"stim/61.jpeg",6,1,3,NA,"Instruments",1,"stim/objects/Instruments/triangle2.png",3,"left","left",0.422999859,1,1,1
"551",71,3,71,0.7,"stim/33.jpeg",3,3,2,NA,"HouseObjects",2,"stim/objects/HouseObjects/thermometer.png",2,"right","right",0.611999989,1,1,1
"552",72,3,72,0.9,"stim/63.jpeg",6,3,3,NA,"Instruments",1,"stim/objects/Instruments/trumpet2.png",4,"left","left",0.576999664,1,1,1
"553",73,3,73,0.9,"stim/52.jpeg",5,2,3,NA,"HouseObjects",2,"stim/objects/HouseObjects/saw2.png",2,"right","right",0.644999743,1,1,1
"554",74,3,74,0.5,"stim/24.jpeg",2,4,1,NA,"HouseObjects",2,"stim/objects/HouseObjects/sponge.png",2,"right","left",0.679999828,0,0,1
"555",75,3,75,0.7,"stim/41.jpeg",4,1,2,NA,"Instruments",1,"stim/objects/Instruments/panflute2.png",2,"left","right",0.576999903,0,0,1
"556",76,3,76,0.9,"stim/63.jpeg",6,3,3,NA,"Instruments",1,"stim/objects/Instruments/trumpet2.png",2,"left","left",0.56799984,1,1,1
"557",77,3,77,0.9,"stim/54.jpeg",5,4,3,NA,"HouseObjects",2,"stim/objects/HouseObjects/sponge2.png",1,"right","right",0.678999901,1,1,1
"558",78,3,78,0.9,"stim/64.jpeg",6,4,3,NA,"Instruments",1,"stim/objects/Instruments/tuba2.png",2,"left","left",0.654999971,1,1,1
"559",79,3,79,0.7,"stim/42.jpeg",4,2,2,NA,"Instruments",1,"stim/objects/Instruments/pipepiano2.png",1,"left","left",0.590999842,1,1,1
"560",80,3,80,0.5,"stim/23.jpeg",2,3,1,NA,"HouseObjects",2,"stim/objects/HouseObjects/scale.png",4,"right","right",0.860999823,1,1,1
"561",81,3,81,0.9,"stim/51.jpeg",5,1,3,NA,"HouseObjects",2,"stim/objects/HouseObjects/safetypin2.png",4,"right","right",0.609999895,1,1,1
"562",82,3,82,0.9,"stim/63.jpeg",6,3,3,NA,"Instruments",1,"stim/objects/Instruments/trumpet2.png",2,"left","left",0.615999699,1,1,1
"563",83,3,83,0.5,"stim/13.jpeg",1,3,1,NA,"HouseObjects",2,"stim/objects/HouseObjects/rubbergloves.png",2,"right","",NA,0,0,1
"564",84,3,84,0.9,"stim/54.jpeg",5,4,3,NA,"HouseObjects",2,"stim/objects/HouseObjects/sponge2.png",2,"right","right",0.603999853,1,1,1
"565",85,3,85,0.7,"stim/33.jpeg",3,3,2,NA,"HouseObjects",2,"stim/objects/HouseObjects/thermometer.png",1,"right","right",0.679999828,1,1,1
"566",86,3,86,0.5,"stim/21.jpeg",2,1,1,NA,"Instruments",1,"stim/objects/Instruments/saxophone.png",4,"left","left",0.773999691,1,1,1
"567",87,3,87,0.9,"stim/53.jpeg",5,3,3,NA,"HouseObjects",2,"stim/objects/HouseObjects/scale2.png",1,"right","right",0.523000002,1,1,1
"568",88,3,88,0.5,"stim/11.jpeg",1,1,1,NA,"Instruments",1,"stim/objects/Instruments/panflute.png",2,"left","right",0.669999838,0,0,1
"569",89,3,89,0.9,"stim/61.jpeg",6,1,3,NA,"Instruments",1,"stim/objects/Instruments/triangle2.png",2,"left","left",0.622999907,1,1,1
"570",90,3,90,0.5,"stim/22.jpeg",2,2,1,NA,"Instruments",1,"stim/objects/Instruments/speaker.png",4,"left","right",0.697000027,0,0,1
"571",91,3,91,0.9,"stim/53.jpeg",5,3,3,NA,"HouseObjects",2,"stim/objects/HouseObjects/scale2.png",2,"right","right",0.614999771,1,1,1
"572",92,3,92,0.7,"stim/31.jpeg",3,1,2,NA,"HouseObjects",2,"stim/objects/HouseObjects/spraybottle.png",1,"right","right",0.693000078,1,1,1
"573",93,3,93,0.5,"stim/23.jpeg",2,3,1,NA,"HouseObjects",2,"stim/objects/HouseObjects/scale.png",4,"right","",NA,0,0,1
"574",94,3,94,0.9,"stim/54.jpeg",5,4,3,NA,"HouseObjects",2,"stim/objects/HouseObjects/sponge2.png",1,"right","left",0.580999851,0,0,1
"575",95,3,95,0.3,"stim/42.jpeg",4,2,2,NA,"HouseObjects",2,"stim/objects/HouseObjects/remote2.png",2,"right","left",0.624999762,0,0,1
"576",96,3,96,0.7,"stim/44.jpeg",4,4,2,NA,"Instruments",1,"stim/objects/Instruments/record_player2.png",2,"left","",NA,0,0,1
"577",97,3,97,0.3,"stim/32.jpeg",3,2,2,NA,"Instruments",1,"stim/objects/Instruments/trombone.png",3,"left","left",0.441999674,1,1,1
"578",98,3,98,0.3,"stim/34.jpeg",3,4,2,NA,"Instruments",1,"stim/objects/Instruments/tuba.png",3,"left","left",0.52699995,1,1,1
"579",99,3,99,0.7,"stim/32.jpeg",3,2,2,NA,"HouseObjects",2,"stim/objects/HouseObjects/teapot.png",4,"right","right",0.564999819,1,1,1
"580",100,3,100,0.9,"stim/51.jpeg",5,1,3,NA,"HouseObjects",2,"stim/objects/HouseObjects/safetypin2.png",3,"right","right",0.616999865,1,1,1
"581",101,3,101,0.9,"stim/52.jpeg",5,2,3,NA,"HouseObjects",2,"stim/objects/HouseObjects/saw2.png",3,"right","right",0.588999987,1,1,1
"582",102,3,102,0.7,"stim/44.jpeg",4,4,2,NA,"Instruments",1,"stim/objects/Instruments/record_player2.png",4,"left","left",0.840999842,1,1,1
"583",103,3,103,0.5,"stim/24.jpeg",2,4,1,NA,"HouseObjects",2,"stim/objects/HouseObjects/sponge.png",2,"right","right",0.657999992,1,1,1
"584",104,3,104,0.7,"stim/33.jpeg",3,3,2,NA,"HouseObjects",2,"stim/objects/HouseObjects/thermometer.png",1,"right","left",0.631999731,0,0,1
"585",105,3,105,0.9,"stim/61.jpeg",6,1,3,NA,"Instruments",1,"stim/objects/Instruments/triangle2.png",3,"left","left",0.701999903,1,1,1
"586",106,3,106,0.5,"stim/21.jpeg",2,1,1,NA,"HouseObjects",2,"stim/objects/HouseObjects/safetypin.png",3,"right","right",0.740999699,1,1,1
"587",107,3,107,0.5,"stim/13.jpeg",1,3,1,NA,"HouseObjects",2,"stim/objects/HouseObjects/rubbergloves.png",3,"right","right",0.713000059,1,1,1
"588",108,3,108,0.5,"stim/12.jpeg",1,2,1,NA,"Instruments",1,"stim/objects/Instruments/pipepiano.png",3,"left","left",0.565999746,1,1,1
"589",109,3,109,0.9,"stim/54.jpeg",5,4,3,NA,"HouseObjects",2,"stim/objects/HouseObjects/sponge2.png",4,"right","right",0.606999874,1,1,1
"590",110,3,110,0.5,"stim/22.jpeg",2,2,1,NA,"Instruments",1,"stim/objects/Instruments/speaker.png",3,"left","right",0.318999767,0,0,1
"591",111,3,111,0.5,"stim/21.jpeg",2,1,1,NA,"Instruments",1,"stim/objects/Instruments/saxophone.png",3,"left","left",0.544999838,1,1,1
"592",112,3,112,0.7,"stim/33.jpeg",3,3,2,NA,"HouseObjects",2,"stim/objects/HouseObjects/thermometer.png",4,"right","right",0.608999968,1,1,1
"593",113,3,113,0.9,"stim/52.jpeg",5,2,3,NA,"HouseObjects",2,"stim/objects/HouseObjects/saw2.png",3,"right","left",0.690999746,0,0,1
"594",114,3,114,0.7,"stim/43.jpeg",4,3,2,NA,"Instruments",1,"stim/objects/Instruments/record2.png",3,"left","right",0.673999786,0,0,1
"595",115,3,115,0.3,"stim/31.jpeg",3,1,2,NA,"Instruments",1,"stim/objects/Instruments/triangle.png",2,"left","right",0.691999912,0,0,1
"596",116,3,116,0.7,"stim/41.jpeg",4,1,2,NA,"Instruments",1,"stim/objects/Instruments/panflute2.png",2,"left","right",0.550999641,0,0,1
"597",117,3,117,0.7,"stim/32.jpeg",3,2,2,NA,"HouseObjects",2,"stim/objects/HouseObjects/teapot.png",1,"right","right",0.388999939,1,1,1
"598",118,3,118,0.5,"stim/21.jpeg",2,1,1,NA,"HouseObjects",2,"stim/objects/HouseObjects/safetypin.png",3,"right","right",0.636999846,1,1,1
"599",119,3,119,0.9,"stim/54.jpeg",5,4,3,NA,"HouseObjects",2,"stim/objects/HouseObjects/sponge2.png",4,"right","right",0.722999811,1,1,1
"600",120,3,120,0.5,"stim/12.jpeg",1,2,1,NA,"HouseObjects",2,"stim/objects/HouseObjects/remote.png",2,"right","",NA,0,0,1
"601",121,3,121,0.9,"stim/64.jpeg",6,4,3,NA,"Instruments",1,"stim/objects/Instruments/tuba2.png",2,"left","left",0.625999689,1,1,1
"602",122,3,122,0.7,"stim/33.jpeg",3,3,2,NA,"HouseObjects",2,"stim/objects/HouseObjects/thermometer.png",4,"right","left",0.346999884,0,0,1
"603",123,3,123,0.7,"stim/44.jpeg",4,4,2,NA,"Instruments",1,"stim/objects/Instruments/record_player2.png",1,"left","right",0.353999853,0,0,1
"604",124,3,124,0.5,"stim/11.jpeg",1,1,1,NA,"HouseObjects",2,"stim/objects/HouseObjects/recyclingbin.png",3,"right","left",0.600999832,0,0,1
"605",125,3,125,0.1,"stim/62.jpeg",6,2,3,NA,"HouseObjects",2,"stim/objects/HouseObjects/teapot2.png",1,"right","left",0.602999926,0,0,1
"606",126,3,126,0.9,"stim/61.jpeg",6,1,3,NA,"Instruments",1,"stim/objects/Instruments/triangle2.png",4,"left","left",0.454999924,1,1,1
"607",127,3,127,0.5,"stim/13.jpeg",1,3,1,NA,"Instruments",1,"stim/objects/Instruments/record.png",1,"left","right",0.640999794,0,0,1
"608",128,3,128,0.5,"stim/13.jpeg",1,3,1,NA,"Instruments",1,"stim/objects/Instruments/record.png",1,"left","left",0.529999971,1,1,1
"609",129,3,129,0.5,"stim/23.jpeg",2,3,1,NA,"Instruments",1,"stim/objects/Instruments/tambourine.png",4,"left","",NA,0,0,1
"610",130,3,130,0.5,"stim/11.jpeg",1,1,1,NA,"Instruments",1,"stim/objects/Instruments/panflute.png",2,"left","left",0.688999891,1,1,1
"611",131,3,131,0.7,"stim/31.jpeg",3,1,2,NA,"HouseObjects",2,"stim/objects/HouseObjects/spraybottle.png",4,"right","right",0.857999802,1,1,1
"612",132,3,132,0.7,"stim/34.jpeg",3,4,2,NA,"HouseObjects",2,"stim/objects/HouseObjects/thread.png",3,"right","right",0.65599966,1,1,1
"613",133,3,133,0.7,"stim/32.jpeg",3,2,2,NA,"HouseObjects",2,"stim/objects/HouseObjects/teapot.png",3,"right","right",0.690000057,1,1,1
"614",134,3,134,0.3,"stim/33.jpeg",3,3,2,NA,"Instruments",1,"stim/objects/Instruments/trumpet.png",3,"left","right",0.555999994,0,0,1
"615",135,3,135,0.3,"stim/32.jpeg",3,2,2,NA,"Instruments",1,"stim/objects/Instruments/trombone.png",2,"left","right",0.557999849,0,0,1
"616",136,3,136,0.7,"stim/41.jpeg",4,1,2,NA,"Instruments",1,"stim/objects/Instruments/panflute2.png",2,"left","left",0.732999802,1,1,1
"617",137,3,137,0.5,"stim/12.jpeg",1,2,1,NA,"Instruments",1,"stim/objects/Instruments/pipepiano.png",4,"left","left",0.664999962,1,1,1
"618",138,3,138,0.9,"stim/63.jpeg",6,3,3,NA,"Instruments",1,"stim/objects/Instruments/trumpet2.png",3,"left","left",0.546999931,1,1,1
"619",139,3,139,0.7,"stim/44.jpeg",4,4,2,NA,"Instruments",1,"stim/objects/Instruments/record_player2.png",1,"left","left",0.72699976,1,1,1
"620",140,3,140,0.9,"stim/53.jpeg",5,3,3,NA,"HouseObjects",2,"stim/objects/HouseObjects/scale2.png",2,"right","right",0.678999901,1,1,1
"621",141,3,141,0.7,"stim/34.jpeg",3,4,2,NA,"HouseObjects",2,"stim/objects/HouseObjects/thread.png",4,"right","right",0.734999895,1,1,1
"622",142,3,142,0.5,"stim/23.jpeg",2,3,1,NA,"Instruments",1,"stim/objects/Instruments/tambourine.png",4,"left","",NA,0,0,1
"623",143,3,143,0.5,"stim/13.jpeg",1,3,1,NA,"HouseObjects",2,"stim/objects/HouseObjects/rubbergloves.png",4,"right","right",0.89199996,1,1,1
"624",144,3,144,0.7,"stim/31.jpeg",3,1,2,NA,"HouseObjects",2,"stim/objects/HouseObjects/spraybottle.png",3,"right","right",0.65299964,1,1,1
"625",145,3,145,0.1,"stim/51.jpeg",5,1,3,NA,"Instruments",1,"stim/objects/Instruments/saxophone2.png",4,"left","right",0.528999805,0,0,1
"626",146,3,146,0.7,"stim/32.jpeg",3,2,2,NA,"HouseObjects",2,"stim/objects/HouseObjects/teapot.png",1,"right","right",0.661999941,1,1,1
"627",147,3,147,0.5,"stim/22.jpeg",2,2,1,NA,"HouseObjects",2,"stim/objects/HouseObjects/saw.png",1,"right","left",0.642999887,0,0,1
"628",148,3,148,0.9,"stim/52.jpeg",5,2,3,NA,"HouseObjects",2,"stim/objects/HouseObjects/saw2.png",3,"right","right",0.819000006,1,1,1
"629",149,3,149,0.5,"stim/14.jpeg",1,4,1,NA,"Instruments",1,"stim/objects/Instruments/record_player.png",3,"left","left",0.791999817,1,1,1
"630",150,3,150,0.5,"stim/23.jpeg",2,3,1,NA,"Instruments",1,"stim/objects/Instruments/tambourine.png",1,"left","left",0.847999811,1,1,1
"631",151,3,151,0.3,"stim/33.jpeg",3,3,2,NA,"Instruments",1,"stim/objects/Instruments/trumpet.png",4,"left","right",0.569999933,0,0,1
"632",152,3,152,0.9,"stim/62.jpeg",6,2,3,NA,"Instruments",1,"stim/objects/Instruments/trombone2.png",4,"left","left",0.585999966,1,1,1
"633",153,3,153,0.5,"stim/14.jpeg",1,4,1,NA,"HouseObjects",2,"stim/objects/HouseObjects/rug.png",2,"right","left",0.604999781,0,0,1
"634",154,3,154,0.3,"stim/43.jpeg",4,3,2,NA,"HouseObjects",2,"stim/objects/HouseObjects/rubbergloves2.png",3,"right","right",0.321999788,1,1,1
"635",155,3,155,0.7,"stim/31.jpeg",3,1,2,NA,"HouseObjects",2,"stim/objects/HouseObjects/spraybottle.png",2,"right","right",0.559000015,1,1,1
"636",156,3,156,0.5,"stim/24.jpeg",2,4,1,NA,"Instruments",1,"stim/objects/Instruments/timbal.png",1,"left","left",0.487999916,1,1,1
"637",157,3,157,0.9,"stim/54.jpeg",5,4,3,NA,"HouseObjects",2,"stim/objects/HouseObjects/sponge2.png",3,"right","right",0.723999977,1,1,1
"638",158,3,158,0.9,"stim/62.jpeg",6,2,3,NA,"Instruments",1,"stim/objects/Instruments/trombone2.png",1,"left","left",0.786999702,1,1,1
"639",159,3,159,0.9,"stim/62.jpeg",6,2,3,NA,"Instruments",1,"stim/objects/Instruments/trombone2.png",1,"left","left",0.47699976,1,1,1
"640",160,3,160,0.7,"stim/34.jpeg",3,4,2,NA,"HouseObjects",2,"stim/objects/HouseObjects/thread.png",4,"right","right",0.780999899,1,1,1
"641",161,3,161,0.5,"stim/21.jpeg",2,1,1,NA,"Instruments",1,"stim/objects/Instruments/saxophone.png",3,"left","left",0.565999746,1,1,1
"642",162,3,162,0.9,"stim/61.jpeg",6,1,3,NA,"Instruments",1,"stim/objects/Instruments/triangle2.png",3,"left","left",0.563999653,1,1,1
"643",163,3,163,0.9,"stim/53.jpeg",5,3,3,NA,"HouseObjects",2,"stim/objects/HouseObjects/scale2.png",1,"right","right",0.661999941,1,1,1
"644",164,3,164,0.7,"stim/31.jpeg",3,1,2,NA,"HouseObjects",2,"stim/objects/HouseObjects/spraybottle.png",3,"right","left",0.613999844,0,0,1
"645",165,3,165,0.3,"stim/41.jpeg",4,1,2,NA,"HouseObjects",2,"stim/objects/HouseObjects/recyclingbin2.png",4,"right","right",0.457999706,1,1,1
"646",166,3,166,0.9,"stim/62.jpeg",6,2,3,NA,"Instruments",1,"stim/objects/Instruments/trombone2.png",1,"left","left",0.554999828,1,1,1
"647",167,3,167,0.9,"stim/64.jpeg",6,4,3,NA,"Instruments",1,"stim/objects/Instruments/tuba2.png",1,"left","left",0.565999746,1,1,1
"648",168,3,168,0.7,"stim/34.jpeg",3,4,2,NA,"HouseObjects",2,"stim/objects/HouseObjects/thread.png",3,"right","left",0.651999712,0,0,1
"649",169,3,169,0.5,"stim/22.jpeg",2,2,1,NA,"HouseObjects",2,"stim/objects/HouseObjects/saw.png",2,"right","right",0.494999886,1,1,1
"650",170,3,170,0.5,"stim/12.jpeg",1,2,1,NA,"HouseObjects",2,"stim/objects/HouseObjects/remote.png",1,"right","left",0.620999813,0,0,1
"651",171,3,171,0.5,"stim/22.jpeg",2,2,1,NA,"Instruments",1,"stim/objects/Instruments/speaker.png",1,"left","left",0.653999805,1,1,1
"652",172,3,172,0.5,"stim/23.jpeg",2,3,1,NA,"Instruments",1,"stim/objects/Instruments/tambourine.png",3,"left","left",0.60199976,1,1,1
"653",173,3,173,0.5,"stim/12.jpeg",1,2,1,NA,"Instruments",1,"stim/objects/Instruments/pipepiano.png",2,"left","right",0.657999992,0,0,1
"654",174,3,174,0.7,"stim/43.jpeg",4,3,2,NA,"Instruments",1,"stim/objects/Instruments/record2.png",3,"left","left",0.669999838,1,1,1
"655",175,3,175,0.5,"stim/13.jpeg",1,3,1,NA,"Instruments",1,"stim/objects/Instruments/record.png",3,"left","left",0.874999762,1,1,1
"656",176,3,176,0.7,"stim/41.jpeg",4,1,2,NA,"Instruments",1,"stim/objects/Instruments/panflute2.png",1,"left","left",0.880999804,1,1,1
"657",177,3,177,0.5,"stim/11.jpeg",1,1,1,NA,"Instruments",1,"stim/objects/Instruments/panflute.png",1,"left","right",0.726999998,0,0,1
"658",178,3,178,0.5,"stim/24.jpeg",2,4,1,NA,"Instruments",1,"stim/objects/Instruments/timbal.png",2,"left","left",0.582999945,1,1,1
"659",179,3,179,0.5,"stim/14.jpeg",1,4,1,NA,"HouseObjects",2,"stim/objects/HouseObjects/rug.png",4,"right","left",0.688999891,0,0,1
"660",180,3,180,0.9,"stim/64.jpeg",6,4,3,NA,"Instruments",1,"stim/objects/Instruments/tuba2.png",2,"left","left",0.618000031,1,1,1
"661",181,3,181,0.9,"stim/51.jpeg",5,1,3,NA,"HouseObjects",2,"stim/objects/HouseObjects/safetypin2.png",3,"right","",NA,0,0,1
"662",182,3,182,0.1,"stim/64.jpeg",6,4,3,NA,"HouseObjects",2,"stim/objects/HouseObjects/thread2.png",4,"right","left",0.536999941,0,0,1
"663",183,3,183,0.9,"stim/62.jpeg",6,2,3,NA,"Instruments",1,"stim/objects/Instruments/trombone2.png",4,"left","left",0.564999819,1,1,1
"664",184,3,184,0.5,"stim/23.jpeg",2,3,1,NA,"Instruments",1,"stim/objects/Instruments/tambourine.png",4,"left","left",0.593999863,1,1,1
"665",185,3,185,0.7,"stim/42.jpeg",4,2,2,NA,"Instruments",1,"stim/objects/Instruments/pipepiano2.png",3,"left","left",0.629999876,1,1,1
"666",186,3,186,0.3,"stim/31.jpeg",3,1,2,NA,"Instruments",1,"stim/objects/Instruments/triangle.png",2,"left","right",0.597999811,0,0,1
"667",187,3,187,0.7,"stim/44.jpeg",4,4,2,NA,"Instruments",1,"stim/objects/Instruments/record_player2.png",1,"left","left",0.40199995,1,1,1
"668",188,3,188,0.9,"stim/52.jpeg",5,2,3,NA,"HouseObjects",2,"stim/objects/HouseObjects/saw2.png",4,"right","left",0.533999681,0,0,1
"669",189,3,189,0.9,"stim/54.jpeg",5,4,3,NA,"HouseObjects",2,"stim/objects/HouseObjects/sponge2.png",2,"right","right",0.477999926,1,1,1
"670",190,3,190,0.7,"stim/32.jpeg",3,2,2,NA,"HouseObjects",2,"stim/objects/HouseObjects/teapot.png",1,"right","right",0.763999701,1,1,1
"671",191,3,191,0.3,"stim/42.jpeg",4,2,2,NA,"HouseObjects",2,"stim/objects/HouseObjects/remote2.png",3,"right","left",0.591999769,0,0,1
"672",192,3,192,0.5,"stim/21.jpeg",2,1,1,NA,"HouseObjects",2,"stim/objects/HouseObjects/safetypin.png",4,"right","left",0.68599987,0,0,1
"673",193,3,193,0.7,"stim/42.jpeg",4,2,2,NA,"Instruments",1,"stim/objects/Instruments/pipepiano2.png",1,"left","left",0.573999882,1,1,1
"674",194,3,194,0.9,"stim/61.jpeg",6,1,3,NA,"Instruments",1,"stim/objects/Instruments/triangle2.png",4,"left","left",0.618000031,1,1,1
"675",195,3,195,0.3,"stim/44.jpeg",4,4,2,NA,"HouseObjects",2,"stim/objects/HouseObjects/rug2.png",4,"right","right",0.762999773,1,1,1
"676",196,3,196,0.5,"stim/21.jpeg",2,1,1,NA,"Instruments",1,"stim/objects/Instruments/saxophone.png",2,"left","left",0.650999784,1,1,1
"677",197,3,197,0.5,"stim/23.jpeg",2,3,1,NA,"HouseObjects",2,"stim/objects/HouseObjects/scale.png",2,"right","left",0.55099988,0,0,1
"678",198,3,198,0.9,"stim/63.jpeg",6,3,3,NA,"Instruments",1,"stim/objects/Instruments/trumpet2.png",3,"left","left",0.615999937,1,1,1
"679",199,3,199,0.7,"stim/42.jpeg",4,2,2,NA,"Instruments",1,"stim/objects/Instruments/pipepiano2.png",2,"left","left",0.539999962,1,1,1
"680",200,3,200,0.9,"stim/53.jpeg",5,3,3,NA,"HouseObjects",2,"stim/objects/HouseObjects/scale2.png",2,"right","left",0.383999825,0,0,1
"681",201,3,201,0.5,"stim/12.jpeg",1,2,1,NA,"Instruments",1,"stim/objects/Instruments/pipepiano.png",1,"left","right",0.661000013,0,0,1
"682",202,3,202,0.5,"stim/13.jpeg",1,3,1,NA,"HouseObjects",2,"stim/objects/HouseObjects/rubbergloves.png",3,"right","right",0.690999746,1,1,1
"683",203,3,203,0.5,"stim/12.jpeg",1,2,1,NA,"HouseObjects",2,"stim/objects/HouseObjects/remote.png",2,"right","right",0.71999979,1,1,1
"684",204,3,204,0.9,"stim/62.jpeg",6,2,3,NA,"Instruments",1,"stim/objects/Instruments/trombone2.png",1,"left","left",0.538999796,1,1,1
"685",205,3,205,0.5,"stim/24.jpeg",2,4,1,NA,"HouseObjects",2,"stim/objects/HouseObjects/sponge.png",1,"right","left",0.694999933,0,0,1
"686",206,3,206,0.1,"stim/54.jpeg",5,4,3,NA,"Instruments",1,"stim/objects/Instruments/timbal2.png",1,"left","right",0.69299984,0,0,1
"687",207,3,207,0.9,"stim/64.jpeg",6,4,3,NA,"Instruments",1,"stim/objects/Instruments/tuba2.png",4,"left","right",0.537999868,0,0,1
"688",208,3,208,0.7,"stim/43.jpeg",4,3,2,NA,"Instruments",1,"stim/objects/Instruments/record2.png",2,"left","right",0.720999956,0,0,1
"689",209,3,209,0.3,"stim/41.jpeg",4,1,2,NA,"HouseObjects",2,"stim/objects/HouseObjects/recyclingbin2.png",3,"right","",NA,0,0,1
"690",210,3,210,0.3,"stim/43.jpeg",4,3,2,NA,"HouseObjects",2,"stim/objects/HouseObjects/rubbergloves2.png",4,"right","right",0.666999817,1,1,1
"691",211,3,211,0.3,"stim/41.jpeg",4,1,2,NA,"HouseObjects",2,"stim/objects/HouseObjects/recyclingbin2.png",4,"right","right",0.592999935,1,1,1
"692",212,3,212,0.1,"stim/53.jpeg",5,3,3,NA,"Instruments",1,"stim/objects/Instruments/tambourine2.png",4,"left","right",0.786999941,0,0,1
"693",213,3,213,0.9,"stim/63.jpeg",6,3,3,NA,"Instruments",1,"stim/objects/Instruments/trumpet2.png",1,"left","left",0.546999693,1,1,1
"694",214,3,214,0.5,"stim/21.jpeg",2,1,1,NA,"HouseObjects",2,"stim/objects/HouseObjects/safetypin.png",3,"right","",NA,0,0,1
"695",215,3,215,0.7,"stim/33.jpeg",3,3,2,NA,"HouseObjects",2,"stim/objects/HouseObjects/thermometer.png",2,"right","right",0.554999828,1,1,1
"696",216,3,216,0.7,"stim/31.jpeg",3,1,2,NA,"HouseObjects",2,"stim/objects/HouseObjects/spraybottle.png",2,"right","right",0.523999929,1,1,1
"697",217,3,217,0.9,"stim/64.jpeg",6,4,3,NA,"Instruments",1,"stim/objects/Instruments/tuba2.png",3,"left","left",0.574999809,1,1,1
"698",218,3,218,0.9,"stim/63.jpeg",6,3,3,NA,"Instruments",1,"stim/objects/Instruments/trumpet2.png",3,"left","left",0.591999769,1,1,1
"699",219,3,219,0.5,"stim/13.jpeg",1,3,1,NA,"HouseObjects",2,"stim/objects/HouseObjects/rubbergloves.png",1,"right","right",0.59499979,1,1,1
"700",220,3,220,0.9,"stim/51.jpeg",5,1,3,NA,"HouseObjects",2,"stim/objects/HouseObjects/safetypin2.png",4,"right","right",0.561999798,1,1,1
"701",221,3,221,0.7,"stim/42.jpeg",4,2,2,NA,"Instruments",1,"stim/objects/Instruments/pipepiano2.png",3,"left","left",0.645999908,1,1,1
"702",222,3,222,0.9,"stim/62.jpeg",6,2,3,NA,"Instruments",1,"stim/objects/Instruments/trombone2.png",4,"left","left",0.55099988,1,1,1
"703",223,3,223,0.9,"stim/64.jpeg",6,4,3,NA,"Instruments",1,"stim/objects/Instruments/tuba2.png",3,"left","left",0.432999849,1,1,1
"704",224,3,224,0.7,"stim/34.jpeg",3,4,2,NA,"HouseObjects",2,"stim/objects/HouseObjects/thread.png",4,"right","right",0.670999765,1,1,1
"705",225,3,225,0.5,"stim/12.jpeg",1,2,1,NA,"Instruments",1,"stim/objects/Instruments/pipepiano.png",4,"left","right",0.604999781,0,0,1
"706",226,3,226,0.9,"stim/54.jpeg",5,4,3,NA,"HouseObjects",2,"stim/objects/HouseObjects/sponge2.png",3,"right","right",0.623999834,1,1,1
"707",227,3,227,0.5,"stim/14.jpeg",1,4,1,NA,"HouseObjects",2,"stim/objects/HouseObjects/rug.png",1,"right","right",0.815999746,1,1,1
"708",228,3,228,0.9,"stim/53.jpeg",5,3,3,NA,"HouseObjects",2,"stim/objects/HouseObjects/scale2.png",3,"right","right",0.687999964,1,1,1
"709",229,3,229,0.7,"stim/31.jpeg",3,1,2,NA,"HouseObjects",2,"stim/objects/HouseObjects/spraybottle.png",4,"right","right",0.493000031,1,1,1
"710",230,3,230,0.5,"stim/24.jpeg",2,4,1,NA,"Instruments",1,"stim/objects/Instruments/timbal.png",3,"left","right",0.629999876,0,0,1
"711",231,3,231,0.9,"stim/52.jpeg",5,2,3,NA,"HouseObjects",2,"stim/objects/HouseObjects/saw2.png",2,"right","right",0.616999865,1,1,1
"712",232,3,232,0.5,"stim/14.jpeg",1,4,1,NA,"HouseObjects",2,"stim/objects/HouseObjects/rug.png",1,"right","right",0.528999805,1,1,1
"713",233,3,233,0.5,"stim/22.jpeg",2,2,1,NA,"Instruments",1,"stim/objects/Instruments/speaker.png",4,"left","left",0.81799984,1,1,1
"714",234,3,234,0.9,"stim/63.jpeg",6,3,3,NA,"Instruments",1,"stim/objects/Instruments/trumpet2.png",4,"left","left",0.60800004,1,1,1
"715",235,3,235,0.3,"stim/44.jpeg",4,4,2,NA,"HouseObjects",2,"stim/objects/HouseObjects/rug2.png",2,"right","left",0.509999752,0,0,1
"716",236,3,236,0.5,"stim/23.jpeg",2,3,1,NA,"HouseObjects",2,"stim/objects/HouseObjects/scale.png",3,"right","left",0.654999971,0,0,1
"717",237,3,237,0.7,"stim/34.jpeg",3,4,2,NA,"HouseObjects",2,"stim/objects/HouseObjects/thread.png",2,"right","right",0.630999804,1,1,1
"718",238,3,238,0.5,"stim/14.jpeg",1,4,1,NA,"Instruments",1,"stim/objects/Instruments/record_player.png",4,"left","right",0.720999956,0,0,1
"719",239,3,239,0.9,"stim/53.jpeg",5,3,3,NA,"HouseObjects",2,"stim/objects/HouseObjects/scale2.png",1,"right","right",0.552999735,1,1,1
"720",240,3,240,0.5,"stim/11.jpeg",1,1,1,NA,"HouseObjects",2,"stim/objects/HouseObjects/recyclingbin.png",2,"right","right",0.579999924,1,1,1
"721",1,4,1,0.3,"stim/62.jpeg",6,2,2,NA,"Instruments",2,"stim/objects/Instruments/saxophone2.png",4,"right","",NA,0,0,1
"722",2,4,2,0.9,"stim/23.jpeg",2,3,3,NA,"HouseObjects",1,"stim/objects/HouseObjects/vacuumcleaner2.png",4,"left","left",0.732999802,1,1,1
"723",3,4,3,0.7,"stim/54.jpeg",5,4,2,NA,"Instruments",2,"stim/objects/Instruments/xylophone.png",2,"right","right",0.893000126,1,1,1
"724",4,4,4,0.5,"stim/43.jpeg",4,3,1,NA,"HouseObjects",1,"stim/objects/HouseObjects/teapot.png",2,"left","left",0.726999998,1,1,1
"725",5,4,5,0.7,"stim/53.jpeg",5,3,2,NA,"Instruments",2,"stim/objects/Instruments/vuvuzela.png",4,"right","right",0.751000166,1,1,1
"726",6,4,6,0.1,"stim/11.jpeg",1,1,3,NA,"HouseObjects",1,"stim/objects/HouseObjects/sponge2.png",2,"left","right",0.811000109,0,0,1
"727",7,4,7,0.5,"stim/33.jpeg",3,3,1,NA,"HouseObjects",1,"stim/objects/HouseObjects/saw.png",1,"left","left",0.589999914,1,1,1
"728",8,4,8,0.5,"stim/31.jpeg",3,1,1,NA,"HouseObjects",1,"stim/objects/HouseObjects/rug.png",2,"left","left",0.55099988,1,1,1
"729",9,4,9,0.9,"stim/12.jpeg",1,2,3,NA,"Instruments",2,"stim/objects/Instruments/triangle2.png",1,"right","right",0.684000015,1,1,1
"730",10,4,10,0.5,"stim/43.jpeg",4,3,1,NA,"HouseObjects",1,"stim/objects/HouseObjects/teapot.png",4,"left","left",0.695999861,1,1,1
"731",11,4,11,0.5,"stim/33.jpeg",3,3,1,NA,"Instruments",2,"stim/objects/Instruments/speaker.png",1,"right","left",0.608999968,0,0,1
"732",12,4,12,0.7,"stim/54.jpeg",5,4,2,NA,"Instruments",2,"stim/objects/Instruments/xylophone.png",1,"right","right",0.61500001,1,1,1
"733",13,4,13,0.5,"stim/42.jpeg",4,2,1,NA,"Instruments",2,"stim/objects/Instruments/triangle.png",1,"right","right",0.717000008,1,1,1
"734",14,4,14,0.9,"stim/14.jpeg",1,4,3,NA,"Instruments",2,"stim/objects/Instruments/trumpet2.png",3,"right","right",0.610000134,1,1,1
"735",15,4,15,0.5,"stim/32.jpeg",3,2,1,NA,"Instruments",2,"stim/objects/Instruments/saxophone.png",1,"right","left",0.502000093,0,0,1
"736",16,4,16,0.3,"stim/54.jpeg",5,4,2,NA,"HouseObjects",1,"stim/objects/HouseObjects/wateringcan.png",2,"left","right",0.561999798,0,0,1
"737",17,4,17,0.5,"stim/42.jpeg",4,2,1,NA,"HouseObjects",1,"stim/objects/HouseObjects/spraybottle.png",4,"left","right",0.608999968,0,0,1
"738",18,4,18,0.7,"stim/61.jpeg",6,1,2,NA,"HouseObjects",1,"stim/objects/HouseObjects/rug2.png",2,"left","left",0.415999889,1,1,1
"739",19,4,19,0.5,"stim/43.jpeg",4,3,1,NA,"HouseObjects",1,"stim/objects/HouseObjects/teapot.png",4,"left","left",0.825999975,1,1,1
"740",20,4,20,0.9,"stim/24.jpeg",2,4,3,NA,"HouseObjects",1,"stim/objects/HouseObjects/wateringcan2.png",2,"left","left",0.566999912,1,1,1
"741",21,4,21,0.7,"stim/52.jpeg",5,2,2,NA,"Instruments",2,"stim/objects/Instruments/violin.png",2,"right","right",0.724999905,1,1,1
"742",22,4,22,0.9,"stim/12.jpeg",1,2,3,NA,"Instruments",2,"stim/objects/Instruments/triangle2.png",1,"right","right",0.63499999,1,1,1
