"","obj_file","X.x","participant.x","trialN.x","trial_cond","scn_file.x","scn_cat","scn_inst","scn_condition","fillers","obj_cat","obj_cat_num","quadrant","corr_ans","key_resp_trial.keys","key_resp_trial.rt","trial_acc","trial_acc_manual","group.x","practice","X.y","participant.y","OvsN","PE_level","object_cat","scn_file.y","corr_scn_cat","corr_scn_inst","scn_file.1","corr_loc","key_resp_id.keys","key_resp_id.rt","key_resp_conf.keys","key_resp_assoc.keys","key_resp_assoc.rt","key_resp_loc.keys","key_resp_loc.rt","trialN.y","id_acc","assoc.acc","cond_assoc","loc.acc","cond_loc","group.y"
"172","stim/objects/Instruments/musicsheet2.png",1,57,1,0.9,"stim/32.jpeg",3,2,3,NA,"Instruments",2,3,"right","",NA,0,0,0,1,NA,NA,NA,NA,NA,NA,NA,NA,NA,NA,NA,NA,NA,NA,NA,NA,NA,NA,NA,NA,NA,NA,NA,NA
"217","stim/objects/Instruments/pipepiano.png",2,57,2,0.7,"stim/12.jpeg",1,2,2,NA,"Instruments",2,2,"right","left",0.74000001,0,0,0,1,NA,NA,NA,NA,NA,NA,NA,NA,NA,NA,NA,NA,NA,NA,NA,NA,NA,NA,NA,NA,NA,NA,NA,NA
"233","stim/objects/Instruments/record.png",3,57,3,0.7,"stim/13.jpeg",1,3,2,NA,"Instruments",2,1,"right","left",0.855999947,0,0,0,1,NA,NA,NA,NA,NA,NA,NA,NA,NA,NA,NA,NA,NA,NA,NA,NA,NA,NA,NA,NA,NA,NA,NA,NA
"158","stim/objects/Instruments/metronome2.png",4,57,4,0.9,"stim/31.jpeg",3,1,3,NA,"Instruments",2,2,"right","right",0.69299984,1,1,0,1,NA,NA,NA,NA,NA,NA,NA,NA,NA,NA,NA,NA,NA,NA,NA,NA,NA,NA,NA,NA,NA,NA,NA,NA
"18","stim/objects/HouseObjects/ironingboard2.png",5,57,5,0.7,"stim/22.jpeg",2,2,2,NA,"HouseObjects",1,3,"left","left",0.80700016,1,1,0,1,NA,NA,NA,NA,NA,NA,NA,NA,NA,NA,NA,NA,NA,NA,NA,NA,NA,NA,NA,NA,NA,NA,NA,NA
"150","stim/objects/Instruments/marimba2.png",6,57,6,0.3,"stim/24.jpeg",2,4,2,NA,"Instruments",2,3,"right","left",0.767999887,0,0,0,1,NA,NA,NA,NA,NA,NA,NA,NA,NA,NA,NA,NA,NA,NA,NA,NA,NA,NA,NA,NA,NA,NA,NA,NA
"137","stim/objects/Instruments/maraca.png",7,57,7,0.5,"stim/53.jpeg",5,3,1,NA,"Instruments",2,3,"right","left",0.753999949,0,0,0,1,NA,NA,NA,NA,NA,NA,NA,NA,NA,NA,NA,NA,NA,NA,NA,NA,NA,NA,NA,NA,NA,NA,NA,NA
"61","stim/objects/HouseObjects/pan.png",8,57,8,0.5,"stim/63.jpeg",6,3,1,NA,"HouseObjects",1,3,"left","",NA,0,0,0,1,NA,NA,NA,NA,NA,NA,NA,NA,NA,NA,NA,NA,NA,NA,NA,NA,NA,NA,NA,NA,NA,NA,NA,NA
"173","stim/objects/Instruments/musicsheet2.png",9,57,9,0.9,"stim/32.jpeg",3,2,3,NA,"Instruments",2,4,"right","right",0.657999992,1,1,0,1,NA,NA,NA,NA,NA,NA,NA,NA,NA,NA,NA,NA,NA,NA,NA,NA,NA,NA,NA,NA,NA,NA,NA,NA
"42","stim/objects/HouseObjects/knife2.png",10,57,10,0.7,"stim/24.jpeg",2,4,2,NA,"HouseObjects",1,4,"left","right",0.828999996,0,0,0,1,NA,NA,NA,NA,NA,NA,NA,NA,NA,NA,NA,NA,NA,NA,NA,NA,NA,NA,NA,NA,NA,NA,NA,NA
"167","stim/objects/Instruments/musicsheet.png",11,57,11,0.5,"stim/62.jpeg",6,2,1,NA,"Instruments",2,1,"right","left",0.764000177,0,0,0,1,NA,NA,NA,NA,NA,NA,NA,NA,NA,NA,NA,NA,NA,NA,NA,NA,NA,NA,NA,NA,NA,NA,NA,NA
"234","stim/objects/Instruments/record.png",12,57,12,0.7,"stim/13.jpeg",1,3,2,NA,"Instruments",2,1,"right","right",0.886999846,1,1,0,1,NA,NA,NA,NA,NA,NA,NA,NA,NA,NA,NA,NA,NA,NA,NA,NA,NA,NA,NA,NA,NA,NA,NA,NA
"186","stim/objects/Instruments/musicstand2.png",13,57,13,0.9,"stim/33.jpeg",3,3,3,NA,"Instruments",2,2,"right","right",0.710000038,1,1,0,1,NA,NA,NA,NA,NA,NA,NA,NA,NA,NA,NA,NA,NA,NA,NA,NA,NA,NA,NA,NA,NA,NA,NA,NA
"55","stim/objects/HouseObjects/match.png",14,57,14,0.5,"stim/62.jpeg",6,2,1,NA,"HouseObjects",1,1,"left","",NA,0,0,0,1,NA,NA,NA,NA,NA,NA,NA,NA,NA,NA,NA,NA,NA,NA,NA,NA,NA,NA,NA,NA,NA,NA,NA,NA
"174","stim/objects/Instruments/musicsheet2.png",15,57,15,0.9,"stim/32.jpeg",3,2,3,NA,"Instruments",2,1,"right","right",0.515999794,1,1,0,1,NA,NA,NA,NA,NA,NA,NA,NA,NA,NA,NA,NA,NA,NA,NA,NA,NA,NA,NA,NA,NA,NA,NA,NA
"88","stim/objects/HouseObjects/remote2.png",16,57,16,0.9,"stim/42.jpeg",4,2,3,NA,"HouseObjects",1,1,"left","left",0.743999958,1,1,0,1,NA,NA,NA,NA,NA,NA,NA,NA,NA,NA,NA,NA,NA,NA,NA,NA,NA,NA,NA,NA,NA,NA,NA,NA
"76","stim/objects/HouseObjects/recyclingbin2.png",17,57,17,0.9,"stim/41.jpeg",4,1,3,NA,"HouseObjects",1,3,"left","left",0.584000111,1,1,0,1,NA,NA,NA,NA,NA,NA,NA,NA,NA,NA,NA,NA,NA,NA,NA,NA,NA,NA,NA,NA,NA,NA,NA,NA
"1","stim/objects/HouseObjects/iron.png",18,57,18,0.5,"stim/51.jpeg",5,1,1,NA,"HouseObjects",1,1,"left","right",0.680999994,0,0,0,1,NA,NA,NA,NA,NA,NA,NA,NA,NA,NA,NA,NA,NA,NA,NA,NA,NA,NA,NA,NA,NA,NA,NA,NA
"13","stim/objects/HouseObjects/ironingboard.png",19,57,19,0.5,"stim/52.jpeg",5,2,1,NA,"HouseObjects",1,2,"left","",NA,0,0,0,1,NA,NA,NA,NA,NA,NA,NA,NA,NA,NA,NA,NA,NA,NA,NA,NA,NA,NA,NA,NA,NA,NA,NA,NA
"224","stim/objects/Instruments/pipepiano2.png",20,57,20,0.1,"stim/42.jpeg",4,2,3,NA,"Instruments",2,3,"right","left",0.868000031,0,0,0,1,NA,NA,NA,NA,NA,NA,NA,NA,NA,NA,NA,NA,NA,NA,NA,NA,NA,NA,NA,NA,NA,NA,NA,NA
"209","stim/objects/Instruments/panflute.png",21,57,21,0.7,"stim/11.jpeg",1,1,2,NA,"Instruments",2,1,"right","",NA,0,0,0,1,NA,NA,NA,NA,NA,NA,NA,NA,NA,NA,NA,NA,NA,NA,NA,NA,NA,NA,NA,NA,NA,NA,NA,NA
"37","stim/objects/HouseObjects/knife.png",22,57,22,0.5,"stim/54.jpeg",5,4,1,NA,"HouseObjects",1,1,"left","right",0.798000097,0,0,0,1,NA,NA,NA,NA,NA,NA,NA,NA,NA,NA,NA,NA,NA,NA,NA,NA,NA,NA,NA,NA,NA,NA,NA,NA
"175","stim/objects/Instruments/musicsheet2.png",23,57,23,0.9,"stim/32.jpeg",3,2,3,NA,"Instruments",2,4,"right","right",0.588000059,1,1,0,1,NA,NA,NA,NA,NA,NA,NA,NA,NA,NA,NA,NA,NA,NA,NA,NA,NA,NA,NA,NA,NA,NA,NA,NA
"195","stim/objects/Instruments/oboe.png",24,57,24,0.5,"stim/64.jpeg",6,4,1,NA,"Instruments",2,3,"right","right",0.898999929,1,1,0,1,NA,NA,NA,NA,NA,NA,NA,NA,NA,NA,NA,NA,NA,NA,NA,NA,NA,NA,NA,NA,NA,NA,NA,NA
"196","stim/objects/Instruments/oboe.png",25,57,25,0.5,"stim/64.jpeg",6,4,1,NA,"Instruments",2,2,"right","",NA,0,0,0,1,NA,NA,NA,NA,NA,NA,NA,NA,NA,NA,NA,NA,NA,NA,NA,NA,NA,NA,NA,NA,NA,NA,NA,NA
"100","stim/objects/HouseObjects/rubbergloves2.png",26,57,26,0.9,"stim/43.jpeg",4,3,3,NA,"HouseObjects",1,2,"left","left",0.57400012,1,1,0,1,NA,NA,NA,NA,NA,NA,NA,NA,NA,NA,NA,NA,NA,NA,NA,NA,NA,NA,NA,NA,NA,NA,NA,NA
"49","stim/objects/HouseObjects/lintroller.png",27,57,27,0.5,"stim/61.jpeg",6,1,1,NA,"HouseObjects",1,4,"left","right",0.784999847,0,0,0,1,NA,NA,NA,NA,NA,NA,NA,NA,NA,NA,NA,NA,NA,NA,NA,NA,NA,NA,NA,NA,NA,NA,NA,NA
"62","stim/objects/HouseObjects/pan.png",28,57,28,0.5,"stim/63.jpeg",6,3,1,NA,"HouseObjects",1,1,"left","",NA,0,0,0,1,NA,NA,NA,NA,NA,NA,NA,NA,NA,NA,NA,NA,NA,NA,NA,NA,NA,NA,NA,NA,NA,NA,NA,NA
"181","stim/objects/Instruments/musicstand.png",29,57,29,0.5,"stim/63.jpeg",6,3,1,NA,"Instruments",2,4,"right","right",0.842000008,1,1,0,1,NA,NA,NA,NA,NA,NA,NA,NA,NA,NA,NA,NA,NA,NA,NA,NA,NA,NA,NA,NA,NA,NA,NA,NA
"145","stim/objects/Instruments/marimba.png",30,57,30,0.5,"stim/54.jpeg",5,4,1,NA,"Instruments",2,4,"right","left",0.644000053,0,0,0,1,NA,NA,NA,NA,NA,NA,NA,NA,NA,NA,NA,NA,NA,NA,NA,NA,NA,NA,NA,NA,NA,NA,NA,NA
"146","stim/objects/Instruments/marimba.png",31,57,31,0.5,"stim/54.jpeg",5,4,1,NA,"Instruments",2,3,"right","left",0.65199995,0,0,0,1,NA,NA,NA,NA,NA,NA,NA,NA,NA,NA,NA,NA,NA,NA,NA,NA,NA,NA,NA,NA,NA,NA,NA,NA
"6","stim/objects/HouseObjects/iron2.png",32,57,32,0.7,"stim/21.jpeg",2,1,2,NA,"HouseObjects",1,1,"left","left",0.82400012,1,1,0,1,NA,NA,NA,NA,NA,NA,NA,NA,NA,NA,NA,NA,NA,NA,NA,NA,NA,NA,NA,NA,NA,NA,NA,NA
"101","stim/objects/HouseObjects/rubbergloves2.png",33,57,33,0.9,"stim/43.jpeg",4,3,3,NA,"HouseObjects",1,3,"left","left",0.603999853,1,1,0,1,NA,NA,NA,NA,NA,NA,NA,NA,NA,NA,NA,NA,NA,NA,NA,NA,NA,NA,NA,NA,NA,NA,NA,NA
"89","stim/objects/HouseObjects/remote2.png",34,57,34,0.9,"stim/42.jpeg",4,2,3,NA,"HouseObjects",1,3,"left","left",0.746999979,1,1,0,1,NA,NA,NA,NA,NA,NA,NA,NA,NA,NA,NA,NA,NA,NA,NA,NA,NA,NA,NA,NA,NA,NA,NA,NA
"129","stim/objects/Instruments/laud.png",35,57,35,0.5,"stim/52.jpeg",5,2,1,NA,"Instruments",2,4,"right","",NA,0,0,0,1,NA,NA,NA,NA,NA,NA,NA,NA,NA,NA,NA,NA,NA,NA,NA,NA,NA,NA,NA,NA,NA,NA,NA,NA
"138","stim/objects/Instruments/maraca.png",36,57,36,0.5,"stim/53.jpeg",5,3,1,NA,"Instruments",2,2,"right","right",0.710000038,1,1,0,1,NA,NA,NA,NA,NA,NA,NA,NA,NA,NA,NA,NA,NA,NA,NA,NA,NA,NA,NA,NA,NA,NA,NA,NA
"67","stim/objects/HouseObjects/pitcher.png",37,57,37,0.5,"stim/64.jpeg",6,4,1,NA,"HouseObjects",1,3,"left","",NA,0,0,0,1,NA,NA,NA,NA,NA,NA,NA,NA,NA,NA,NA,NA,NA,NA,NA,NA,NA,NA,NA,NA,NA,NA,NA,NA
"30","stim/objects/HouseObjects/key2.png",38,57,38,0.7,"stim/23.jpeg",2,3,2,NA,"HouseObjects",1,3,"left","left",0.544000149,1,1,0,1,NA,NA,NA,NA,NA,NA,NA,NA,NA,NA,NA,NA,NA,NA,NA,NA,NA,NA,NA,NA,NA,NA,NA,NA
"63","stim/objects/HouseObjects/pan.png",39,57,39,0.5,"stim/63.jpeg",6,3,1,NA,"HouseObjects",1,4,"left","right",0.659999847,0,0,0,1,NA,NA,NA,NA,NA,NA,NA,NA,NA,NA,NA,NA,NA,NA,NA,NA,NA,NA,NA,NA,NA,NA,NA,NA
"200","stim/objects/Instruments/oboe2.png",40,57,40,0.9,"stim/34.jpeg",3,4,3,NA,"Instruments",2,2,"right","right",0.55700016,1,1,0,1,NA,NA,NA,NA,NA,NA,NA,NA,NA,NA,NA,NA,NA,NA,NA,NA,NA,NA,NA,NA,NA,NA,NA,NA
"38","stim/objects/HouseObjects/knife.png",41,57,41,0.5,"stim/54.jpeg",5,4,1,NA,"HouseObjects",1,4,"left","left",0.813000202,1,1,0,1,NA,NA,NA,NA,NA,NA,NA,NA,NA,NA,NA,NA,NA,NA,NA,NA,NA,NA,NA,NA,NA,NA,NA,NA
"102","stim/objects/HouseObjects/rubbergloves2.png",42,57,42,0.9,"stim/43.jpeg",4,3,3,NA,"HouseObjects",1,1,"left","left",0.489000082,1,1,0,1,NA,NA,NA,NA,NA,NA,NA,NA,NA,NA,NA,NA,NA,NA,NA,NA,NA,NA,NA,NA,NA,NA,NA,NA
"77","stim/objects/HouseObjects/recyclingbin2.png",43,57,43,0.9,"stim/41.jpeg",4,1,3,NA,"HouseObjects",1,1,"left","left",0.555999994,1,1,0,1,NA,NA,NA,NA,NA,NA,NA,NA,NA,NA,NA,NA,NA,NA,NA,NA,NA,NA,NA,NA,NA,NA,NA,NA
"130","stim/objects/Instruments/laud.png",44,57,44,0.5,"stim/52.jpeg",5,2,1,NA,"Instruments",2,4,"right","right",0.671000004,1,1,0,1,NA,NA,NA,NA,NA,NA,NA,NA,NA,NA,NA,NA,NA,NA,NA,NA,NA,NA,NA,NA,NA,NA,NA,NA
"31","stim/objects/HouseObjects/key2.png",45,57,45,0.7,"stim/23.jpeg",2,3,2,NA,"HouseObjects",1,1,"left","right",0.671000004,0,0,0,1,NA,NA,NA,NA,NA,NA,NA,NA,NA,NA,NA,NA,NA,NA,NA,NA,NA,NA,NA,NA,NA,NA,NA,NA
"90","stim/objects/HouseObjects/remote2.png",46,57,46,0.9,"stim/42.jpeg",4,2,3,NA,"HouseObjects",1,3,"left","left",0.508999825,1,1,0,1,NA,NA,NA,NA,NA,NA,NA,NA,NA,NA,NA,NA,NA,NA,NA,NA,NA,NA,NA,NA,NA,NA,NA,NA
"134","stim/objects/Instruments/laud2.png",47,57,47,0.3,"stim/22.jpeg",2,2,2,NA,"Instruments",2,4,"right","left",0.737999916,0,0,0,1,NA,NA,NA,NA,NA,NA,NA,NA,NA,NA,NA,NA,NA,NA,NA,NA,NA,NA,NA,NA,NA,NA,NA,NA
"147","stim/objects/Instruments/marimba.png",48,57,48,0.5,"stim/54.jpeg",5,4,1,NA,"Instruments",2,3,"right","right",0.676000118,1,1,0,1,NA,NA,NA,NA,NA,NA,NA,NA,NA,NA,NA,NA,NA,NA,NA,NA,NA,NA,NA,NA,NA,NA,NA,NA
"187","stim/objects/Instruments/musicstand2.png",49,57,49,0.9,"stim/33.jpeg",3,3,3,NA,"Instruments",2,3,"right","right",0.546999931,1,1,0,1,NA,NA,NA,NA,NA,NA,NA,NA,NA,NA,NA,NA,NA,NA,NA,NA,NA,NA,NA,NA,NA,NA,NA,NA
"112","stim/objects/HouseObjects/rug2.png",50,57,50,0.9,"stim/44.jpeg",4,4,3,NA,"HouseObjects",1,4,"left","left",0.530999899,1,1,0,1,NA,NA,NA,NA,NA,NA,NA,NA,NA,NA,NA,NA,NA,NA,NA,NA,NA,NA,NA,NA,NA,NA,NA,NA
"39","stim/objects/HouseObjects/knife.png",51,57,51,0.5,"stim/54.jpeg",5,4,1,NA,"HouseObjects",1,2,"left","right",0.688999891,0,0,0,1,NA,NA,NA,NA,NA,NA,NA,NA,NA,NA,NA,NA,NA,NA,NA,NA,NA,NA,NA,NA,NA,NA,NA,NA
"19","stim/objects/HouseObjects/ironingboard2.png",52,57,52,0.7,"stim/22.jpeg",2,2,2,NA,"HouseObjects",1,4,"left","",NA,0,0,0,1,NA,NA,NA,NA,NA,NA,NA,NA,NA,NA,NA,NA,NA,NA,NA,NA,NA,NA,NA,NA,NA,NA,NA,NA
"188","stim/objects/Instruments/musicstand2.png",53,57,53,0.9,"stim/33.jpeg",3,3,3,NA,"Instruments",2,2,"right","right",0.536000013,1,1,0,1,NA,NA,NA,NA,NA,NA,NA,NA,NA,NA,NA,NA,NA,NA,NA,NA,NA,NA,NA,NA,NA,NA,NA,NA
"25","stim/objects/HouseObjects/key.png",54,57,54,0.5,"stim/53.jpeg",5,3,1,NA,"HouseObjects",1,4,"left","right",0.661999941,0,0,0,1,NA,NA,NA,NA,NA,NA,NA,NA,NA,NA,NA,NA,NA,NA,NA,NA,NA,NA,NA,NA,NA,NA,NA,NA
"225","stim/objects/Instruments/record_player.png",55,57,55,0.7,"stim/14.jpeg",1,4,2,NA,"Instruments",2,2,"right","left",0.655999899,0,0,0,1,NA,NA,NA,NA,NA,NA,NA,NA,NA,NA,NA,NA,NA,NA,NA,NA,NA,NA,NA,NA,NA,NA,NA,NA
"78","stim/objects/HouseObjects/recyclingbin2.png",56,57,56,0.9,"stim/41.jpeg",4,1,3,NA,"HouseObjects",1,1,"left","left",0.451000214,1,1,0,1,NA,NA,NA,NA,NA,NA,NA,NA,NA,NA,NA,NA,NA,NA,NA,NA,NA,NA,NA,NA,NA,NA,NA,NA
"64","stim/objects/HouseObjects/pan.png",57,57,57,0.5,"stim/63.jpeg",6,3,1,NA,"HouseObjects",1,1,"left","left",0.641000032,1,1,0,1,NA,NA,NA,NA,NA,NA,NA,NA,NA,NA,NA,NA,NA,NA,NA,NA,NA,NA,NA,NA,NA,NA,NA,NA
"210","stim/objects/Instruments/panflute.png",58,57,58,0.7,"stim/11.jpeg",1,1,2,NA,"Instruments",2,3,"right","right",0.565000057,1,1,0,1,NA,NA,NA,NA,NA,NA,NA,NA,NA,NA,NA,NA,NA,NA,NA,NA,NA,NA,NA,NA,NA,NA,NA,NA
"32","stim/objects/HouseObjects/key2.png",59,57,59,0.7,"stim/23.jpeg",2,3,2,NA,"HouseObjects",1,1,"left","left",0.611000061,1,1,0,1,NA,NA,NA,NA,NA,NA,NA,NA,NA,NA,NA,NA,NA,NA,NA,NA,NA,NA,NA,NA,NA,NA,NA,NA
"232","stim/objects/Instruments/record_player2.png",60,57,60,0.1,"stim/44.jpeg",4,4,3,NA,"Instruments",2,3,"right","left",0.545000076,0,0,0,1,NA,NA,NA,NA,NA,NA,NA,NA,NA,NA,NA,NA,NA,NA,NA,NA,NA,NA,NA,NA,NA,NA,NA,NA
"40","stim/objects/HouseObjects/knife.png",61,57,61,0.5,"stim/54.jpeg",5,4,1,NA,"HouseObjects",1,3,"left","right",0.763000011,0,0,0,1,NA,NA,NA,NA,NA,NA,NA,NA,NA,NA,NA,NA,NA,NA,NA,NA,NA,NA,NA,NA,NA,NA,NA,NA
"43","stim/objects/HouseObjects/knife2.png",62,57,62,0.7,"stim/24.jpeg",2,4,2,NA,"HouseObjects",1,4,"left","right",0.850999832,0,0,0,1,NA,NA,NA,NA,NA,NA,NA,NA,NA,NA,NA,NA,NA,NA,NA,NA,NA,NA,NA,NA,NA,NA,NA,NA
"218","stim/objects/Instruments/pipepiano.png",63,57,63,0.7,"stim/12.jpeg",1,2,2,NA,"Instruments",2,3,"right","right",0.575999975,1,1,0,1,NA,NA,NA,NA,NA,NA,NA,NA,NA,NA,NA,NA,NA,NA,NA,NA,NA,NA,NA,NA,NA,NA,NA,NA
"7","stim/objects/HouseObjects/iron2.png",64,57,64,0.7,"stim/21.jpeg",2,1,2,NA,"HouseObjects",1,2,"left","left",0.619999886,1,1,0,1,NA,NA,NA,NA,NA,NA,NA,NA,NA,NA,NA,NA,NA,NA,NA,NA,NA,NA,NA,NA,NA,NA,NA,NA
"113","stim/objects/HouseObjects/rug2.png",65,57,65,0.9,"stim/44.jpeg",4,4,3,NA,"HouseObjects",1,4,"left","right",0.736999989,0,0,0,1,NA,NA,NA,NA,NA,NA,NA,NA,NA,NA,NA,NA,NA,NA,NA,NA,NA,NA,NA,NA,NA,NA,NA,NA
"226","stim/objects/Instruments/record_player.png",66,57,66,0.7,"stim/14.jpeg",1,4,2,NA,"Instruments",2,3,"right","right",0.789000034,1,1,0,1,NA,NA,NA,NA,NA,NA,NA,NA,NA,NA,NA,NA,NA,NA,NA,NA,NA,NA,NA,NA,NA,NA,NA,NA
"20","stim/objects/HouseObjects/ironingboard2.png",67,57,67,0.7,"stim/22.jpeg",2,2,2,NA,"HouseObjects",1,3,"left","right",0.626999855,0,0,0,1,NA,NA,NA,NA,NA,NA,NA,NA,NA,NA,NA,NA,NA,NA,NA,NA,NA,NA,NA,NA,NA,NA,NA,NA
"91","stim/objects/HouseObjects/remote2.png",68,57,68,0.9,"stim/42.jpeg",4,2,3,NA,"HouseObjects",1,4,"left","left",0.643999815,1,1,0,1,NA,NA,NA,NA,NA,NA,NA,NA,NA,NA,NA,NA,NA,NA,NA,NA,NA,NA,NA,NA,NA,NA,NA,NA
"182","stim/objects/Instruments/musicstand.png",69,57,69,0.5,"stim/63.jpeg",6,3,1,NA,"Instruments",2,1,"right","left",0.625999928,0,0,0,1,NA,NA,NA,NA,NA,NA,NA,NA,NA,NA,NA,NA,NA,NA,NA,NA,NA,NA,NA,NA,NA,NA,NA,NA
"2","stim/objects/HouseObjects/iron.png",70,57,70,0.5,"stim/51.jpeg",5,1,1,NA,"HouseObjects",1,1,"left","right",0.752000093,0,0,0,1,NA,NA,NA,NA,NA,NA,NA,NA,NA,NA,NA,NA,NA,NA,NA,NA,NA,NA,NA,NA,NA,NA,NA,NA
"79","stim/objects/HouseObjects/recyclingbin2.png",71,57,71,0.9,"stim/41.jpeg",4,1,3,NA,"HouseObjects",1,2,"left","left",0.498999834,1,1,0,1,NA,NA,NA,NA,NA,NA,NA,NA,NA,NA,NA,NA,NA,NA,NA,NA,NA,NA,NA,NA,NA,NA,NA,NA
"103","stim/objects/HouseObjects/rubbergloves2.png",72,57,72,0.9,"stim/43.jpeg",4,3,3,NA,"HouseObjects",1,4,"left","left",0.458000183,1,1,0,1,NA,NA,NA,NA,NA,NA,NA,NA,NA,NA,NA,NA,NA,NA,NA,NA,NA,NA,NA,NA,NA,NA,NA,NA
"168","stim/objects/Instruments/musicsheet.png",73,57,73,0.5,"stim/62.jpeg",6,2,1,NA,"Instruments",2,1,"right","right",0.802000046,1,1,0,1,NA,NA,NA,NA,NA,NA,NA,NA,NA,NA,NA,NA,NA,NA,NA,NA,NA,NA,NA,NA,NA,NA,NA,NA
"50","stim/objects/HouseObjects/lintroller.png",74,57,74,0.5,"stim/61.jpeg",6,1,1,NA,"HouseObjects",1,2,"left","left",0.674000025,1,1,0,1,NA,NA,NA,NA,NA,NA,NA,NA,NA,NA,NA,NA,NA,NA,NA,NA,NA,NA,NA,NA,NA,NA,NA,NA
"189","stim/objects/Instruments/musicstand2.png",75,57,75,0.9,"stim/33.jpeg",3,3,3,NA,"Instruments",2,4,"right","right",0.618999958,1,1,0,1,NA,NA,NA,NA,NA,NA,NA,NA,NA,NA,NA,NA,NA,NA,NA,NA,NA,NA,NA,NA,NA,NA,NA,NA
"235","stim/objects/Instruments/record.png",76,57,76,0.7,"stim/13.jpeg",1,3,2,NA,"Instruments",2,4,"right","right",0.801999807,1,1,0,1,NA,NA,NA,NA,NA,NA,NA,NA,NA,NA,NA,NA,NA,NA,NA,NA,NA,NA,NA,NA,NA,NA,NA,NA
"139","stim/objects/Instruments/maraca.png",77,57,77,0.5,"stim/53.jpeg",5,3,1,NA,"Instruments",2,2,"right","right",0.743000031,1,1,0,1,NA,NA,NA,NA,NA,NA,NA,NA,NA,NA,NA,NA,NA,NA,NA,NA,NA,NA,NA,NA,NA,NA,NA,NA
"159","stim/objects/Instruments/metronome2.png",78,57,78,0.9,"stim/31.jpeg",3,1,3,NA,"Instruments",2,3,"right","right",0.550000191,1,1,0,1,NA,NA,NA,NA,NA,NA,NA,NA,NA,NA,NA,NA,NA,NA,NA,NA,NA,NA,NA,NA,NA,NA,NA,NA
"21","stim/objects/HouseObjects/ironingboard2.png",79,57,79,0.7,"stim/22.jpeg",2,2,2,NA,"HouseObjects",1,3,"left","left",0.689999819,1,1,0,1,NA,NA,NA,NA,NA,NA,NA,NA,NA,NA,NA,NA,NA,NA,NA,NA,NA,NA,NA,NA,NA,NA,NA,NA
"121","stim/objects/Instruments/keyboard.png",80,57,80,0.5,"stim/51.jpeg",5,1,1,NA,"Instruments",2,4,"right","right",0.782000065,1,1,0,1,NA,NA,NA,NA,NA,NA,NA,NA,NA,NA,NA,NA,NA,NA,NA,NA,NA,NA,NA,NA,NA,NA,NA,NA
"211","stim/objects/Instruments/panflute.png",81,57,81,0.7,"stim/11.jpeg",1,1,2,NA,"Instruments",2,3,"right","right",0.809000015,1,1,0,1,NA,NA,NA,NA,NA,NA,NA,NA,NA,NA,NA,NA,NA,NA,NA,NA,NA,NA,NA,NA,NA,NA,NA,NA
"190","stim/objects/Instruments/musicstand2.png",82,57,82,0.9,"stim/33.jpeg",3,3,3,NA,"Instruments",2,2,"right","right",0.592999935,1,1,0,1,NA,NA,NA,NA,NA,NA,NA,NA,NA,NA,NA,NA,NA,NA,NA,NA,NA,NA,NA,NA,NA,NA,NA,NA
"197","stim/objects/Instruments/oboe.png",83,57,83,0.5,"stim/64.jpeg",6,4,1,NA,"Instruments",2,3,"right","right",0.677999973,1,1,0,1,NA,NA,NA,NA,NA,NA,NA,NA,NA,NA,NA,NA,NA,NA,NA,NA,NA,NA,NA,NA,NA,NA,NA,NA
"201","stim/objects/Instruments/oboe2.png",84,57,84,0.9,"stim/34.jpeg",3,4,3,NA,"Instruments",2,2,"right","right",0.585999966,1,1,0,1,NA,NA,NA,NA,NA,NA,NA,NA,NA,NA,NA,NA,NA,NA,NA,NA,NA,NA,NA,NA,NA,NA,NA,NA
"3","stim/objects/HouseObjects/iron.png",85,57,85,0.5,"stim/51.jpeg",5,1,1,NA,"HouseObjects",1,3,"left","right",0.625999928,0,0,0,1,NA,NA,NA,NA,NA,NA,NA,NA,NA,NA,NA,NA,NA,NA,NA,NA,NA,NA,NA,NA,NA,NA,NA,NA
"126","stim/objects/Instruments/keyboard2.png",86,57,86,0.3,"stim/21.jpeg",2,1,2,NA,"Instruments",2,4,"right","left",0.59800005,0,0,0,1,NA,NA,NA,NA,NA,NA,NA,NA,NA,NA,NA,NA,NA,NA,NA,NA,NA,NA,NA,NA,NA,NA,NA,NA
"114","stim/objects/HouseObjects/rug2.png",87,57,87,0.9,"stim/44.jpeg",4,4,3,NA,"HouseObjects",1,1,"left","left",0.629999876,1,1,0,1,NA,NA,NA,NA,NA,NA,NA,NA,NA,NA,NA,NA,NA,NA,NA,NA,NA,NA,NA,NA,NA,NA,NA,NA
"66","stim/objects/HouseObjects/pan2.png",88,57,88,0.1,"stim/33.jpeg",3,3,3,NA,"HouseObjects",1,4,"left","right",0.731999874,0,0,0,1,NA,NA,NA,NA,NA,NA,NA,NA,NA,NA,NA,NA,NA,NA,NA,NA,NA,NA,NA,NA,NA,NA,NA,NA
"8","stim/objects/HouseObjects/iron2.png",89,57,89,0.7,"stim/21.jpeg",2,1,2,NA,"HouseObjects",1,1,"left","right",0.707000017,0,0,0,1,NA,NA,NA,NA,NA,NA,NA,NA,NA,NA,NA,NA,NA,NA,NA,NA,NA,NA,NA,NA,NA,NA,NA,NA
"142","stim/objects/Instruments/maraca2.png",90,57,90,0.3,"stim/23.jpeg",2,3,2,NA,"Instruments",2,1,"right","right",0.64199996,1,1,0,1,NA,NA,NA,NA,NA,NA,NA,NA,NA,NA,NA,NA,NA,NA,NA,NA,NA,NA,NA,NA,NA,NA,NA,NA
"212","stim/objects/Instruments/panflute.png",91,57,91,0.7,"stim/11.jpeg",1,1,2,NA,"Instruments",2,1,"right","left",0.742000103,0,0,0,1,NA,NA,NA,NA,NA,NA,NA,NA,NA,NA,NA,NA,NA,NA,NA,NA,NA,NA,NA,NA,NA,NA,NA,NA
"236","stim/objects/Instruments/record.png",92,57,92,0.7,"stim/13.jpeg",1,3,2,NA,"Instruments",2,2,"right","right",0.734999895,1,1,0,1,NA,NA,NA,NA,NA,NA,NA,NA,NA,NA,NA,NA,NA,NA,NA,NA,NA,NA,NA,NA,NA,NA,NA,NA
"80","stim/objects/HouseObjects/recyclingbin2.png",93,57,93,0.9,"stim/41.jpeg",4,1,3,NA,"HouseObjects",1,3,"left","left",0.580999851,1,1,0,1,NA,NA,NA,NA,NA,NA,NA,NA,NA,NA,NA,NA,NA,NA,NA,NA,NA,NA,NA,NA,NA,NA,NA,NA
"160","stim/objects/Instruments/metronome2.png",94,57,94,0.9,"stim/31.jpeg",3,1,3,NA,"Instruments",2,1,"right","right",0.589999914,1,1,0,1,NA,NA,NA,NA,NA,NA,NA,NA,NA,NA,NA,NA,NA,NA,NA,NA,NA,NA,NA,NA,NA,NA,NA,NA
"202","stim/objects/Instruments/oboe2.png",95,57,95,0.9,"stim/34.jpeg",3,4,3,NA,"Instruments",2,1,"right","right",0.687000036,1,1,0,1,NA,NA,NA,NA,NA,NA,NA,NA,NA,NA,NA,NA,NA,NA,NA,NA,NA,NA,NA,NA,NA,NA,NA,NA
"203","stim/objects/Instruments/oboe2.png",96,57,96,0.9,"stim/34.jpeg",3,4,3,NA,"Instruments",2,2,"right","right",0.568000078,1,1,0,1,NA,NA,NA,NA,NA,NA,NA,NA,NA,NA,NA,NA,NA,NA,NA,NA,NA,NA,NA,NA,NA,NA,NA,NA
"104","stim/objects/HouseObjects/rubbergloves2.png",97,57,97,0.9,"stim/43.jpeg",4,3,3,NA,"HouseObjects",1,2,"left","left",0.544999838,1,1,0,1,NA,NA,NA,NA,NA,NA,NA,NA,NA,NA,NA,NA,NA,NA,NA,NA,NA,NA,NA,NA,NA,NA,NA,NA
"9","stim/objects/HouseObjects/iron2.png",98,57,98,0.7,"stim/21.jpeg",2,1,2,NA,"HouseObjects",1,2,"left","left",0.784000158,1,1,0,1,NA,NA,NA,NA,NA,NA,NA,NA,NA,NA,NA,NA,NA,NA,NA,NA,NA,NA,NA,NA,NA,NA,NA,NA
"227","stim/objects/Instruments/record_player.png",99,57,99,0.7,"stim/14.jpeg",1,4,2,NA,"Instruments",2,4,"right","right",0.8349998,1,1,0,1,NA,NA,NA,NA,NA,NA,NA,NA,NA,NA,NA,NA,NA,NA,NA,NA,NA,NA,NA,NA,NA,NA,NA,NA
"97","stim/objects/HouseObjects/rubbergloves.png",100,57,100,0.3,"stim/13.jpeg",1,3,2,NA,"HouseObjects",1,4,"left","right",0.663000107,0,0,0,1,NA,NA,NA,NA,NA,NA,NA,NA,NA,NA,NA,NA,NA,NA,NA,NA,NA,NA,NA,NA,NA,NA,NA,NA
"228","stim/objects/Instruments/record_player.png",101,57,101,0.7,"stim/14.jpeg",1,4,2,NA,"Instruments",2,3,"right","right",0.544000149,1,1,0,1,NA,NA,NA,NA,NA,NA,NA,NA,NA,NA,NA,NA,NA,NA,NA,NA,NA,NA,NA,NA,NA,NA,NA,NA
"219","stim/objects/Instruments/pipepiano.png",102,57,102,0.7,"stim/12.jpeg",1,2,2,NA,"Instruments",2,3,"right","left",0.726000071,0,0,0,1,NA,NA,NA,NA,NA,NA,NA,NA,NA,NA,NA,NA,NA,NA,NA,NA,NA,NA,NA,NA,NA,NA,NA,NA
"56","stim/objects/HouseObjects/match.png",103,57,103,0.5,"stim/62.jpeg",6,2,1,NA,"HouseObjects",1,1,"left","left",0.621999979,1,1,0,1,NA,NA,NA,NA,NA,NA,NA,NA,NA,NA,NA,NA,NA,NA,NA,NA,NA,NA,NA,NA,NA,NA,NA,NA
"68","stim/objects/HouseObjects/pitcher.png",104,57,104,0.5,"stim/64.jpeg",6,4,1,NA,"HouseObjects",1,1,"left","right",0.879000187,0,0,0,1,NA,NA,NA,NA,NA,NA,NA,NA,NA,NA,NA,NA,NA,NA,NA,NA,NA,NA,NA,NA,NA,NA,NA,NA
"135","stim/objects/Instruments/laud2.png",105,57,105,0.3,"stim/22.jpeg",2,2,2,NA,"Instruments",2,3,"right","right",0.601999998,1,1,0,1,NA,NA,NA,NA,NA,NA,NA,NA,NA,NA,NA,NA,NA,NA,NA,NA,NA,NA,NA,NA,NA,NA,NA,NA
"183","stim/objects/Instruments/musicstand.png",106,57,106,0.5,"stim/63.jpeg",6,3,1,NA,"Instruments",2,1,"right","left",0.65899992,0,0,0,1,NA,NA,NA,NA,NA,NA,NA,NA,NA,NA,NA,NA,NA,NA,NA,NA,NA,NA,NA,NA,NA,NA,NA,NA
"176","stim/objects/Instruments/musicsheet2.png",107,57,107,0.9,"stim/32.jpeg",3,2,3,NA,"Instruments",2,4,"right","right",0.59100008,1,1,0,1,NA,NA,NA,NA,NA,NA,NA,NA,NA,NA,NA,NA,NA,NA,NA,NA,NA,NA,NA,NA,NA,NA,NA,NA
"115","stim/objects/HouseObjects/rug2.png",108,57,108,0.9,"stim/44.jpeg",4,4,3,NA,"HouseObjects",1,2,"left","left",0.727999926,1,1,0,1,NA,NA,NA,NA,NA,NA,NA,NA,NA,NA,NA,NA,NA,NA,NA,NA,NA,NA,NA,NA,NA,NA,NA,NA
"161","stim/objects/Instruments/metronome2.png",109,57,109,0.9,"stim/31.jpeg",3,1,3,NA,"Instruments",2,3,"right","right",0.536999941,1,1,0,1,NA,NA,NA,NA,NA,NA,NA,NA,NA,NA,NA,NA,NA,NA,NA,NA,NA,NA,NA,NA,NA,NA,NA,NA
"44","stim/objects/HouseObjects/knife2.png",110,57,110,0.7,"stim/24.jpeg",2,4,2,NA,"HouseObjects",1,3,"left","right",0.700000048,0,0,0,1,NA,NA,NA,NA,NA,NA,NA,NA,NA,NA,NA,NA,NA,NA,NA,NA,NA,NA,NA,NA,NA,NA,NA,NA
"73","stim/objects/HouseObjects/recyclingbin.png",111,57,111,0.3,"stim/11.jpeg",1,1,2,NA,"HouseObjects",1,1,"left","left",0.549999952,1,1,0,1,NA,NA,NA,NA,NA,NA,NA,NA,NA,NA,NA,NA,NA,NA,NA,NA,NA,NA,NA,NA,NA,NA,NA,NA
"116","stim/objects/HouseObjects/rug2.png",112,57,112,0.9,"stim/44.jpeg",4,4,3,NA,"HouseObjects",1,2,"left","left",0.514000177,1,1,0,1,NA,NA,NA,NA,NA,NA,NA,NA,NA,NA,NA,NA,NA,NA,NA,NA,NA,NA,NA,NA,NA,NA,NA,NA
"122","stim/objects/Instruments/keyboard.png",113,57,113,0.5,"stim/51.jpeg",5,1,1,NA,"Instruments",2,1,"right","right",0.674999952,1,1,0,1,NA,NA,NA,NA,NA,NA,NA,NA,NA,NA,NA,NA,NA,NA,NA,NA,NA,NA,NA,NA,NA,NA,NA,NA
"153","stim/objects/Instruments/metronome.png",114,57,114,0.5,"stim/61.jpeg",6,1,1,NA,"Instruments",2,2,"right","left",0.647000074,0,0,0,1,NA,NA,NA,NA,NA,NA,NA,NA,NA,NA,NA,NA,NA,NA,NA,NA,NA,NA,NA,NA,NA,NA,NA,NA
"123","stim/objects/Instruments/keyboard.png",115,57,115,0.5,"stim/51.jpeg",5,1,1,NA,"Instruments",2,4,"right","left",0.812000036,0,0,0,1,NA,NA,NA,NA,NA,NA,NA,NA,NA,NA,NA,NA,NA,NA,NA,NA,NA,NA,NA,NA,NA,NA,NA,NA
"72","stim/objects/HouseObjects/pitcher2.png",116,57,116,0.1,"stim/34.jpeg",3,4,3,NA,"HouseObjects",1,3,"left","right",0.477999926,0,0,0,1,NA,NA,NA,NA,NA,NA,NA,NA,NA,NA,NA,NA,NA,NA,NA,NA,NA,NA,NA,NA,NA,NA,NA,NA
"57","stim/objects/HouseObjects/match.png",117,57,117,0.5,"stim/62.jpeg",6,2,1,NA,"HouseObjects",1,3,"left","left",0.628000021,1,1,0,1,NA,NA,NA,NA,NA,NA,NA,NA,NA,NA,NA,NA,NA,NA,NA,NA,NA,NA,NA,NA,NA,NA,NA,NA
"98","stim/objects/HouseObjects/rubbergloves.png",118,57,118,0.3,"stim/13.jpeg",1,3,2,NA,"HouseObjects",1,4,"left","right",0.68200016,0,0,0,1,NA,NA,NA,NA,NA,NA,NA,NA,NA,NA,NA,NA,NA,NA,NA,NA,NA,NA,NA,NA,NA,NA,NA,NA
"117","stim/objects/HouseObjects/rug2.png",119,57,119,0.9,"stim/44.jpeg",4,4,3,NA,"HouseObjects",1,2,"left","left",0.66899991,1,1,0,1,NA,NA,NA,NA,NA,NA,NA,NA,NA,NA,NA,NA,NA,NA,NA,NA,NA,NA,NA,NA,NA,NA,NA,NA
"58","stim/objects/HouseObjects/match.png",120,57,120,0.5,"stim/62.jpeg",6,2,1,NA,"HouseObjects",1,3,"left","right",0.875,0,0,0,1,NA,NA,NA,NA,NA,NA,NA,NA,NA,NA,NA,NA,NA,NA,NA,NA,NA,NA,NA,NA,NA,NA,NA,NA
"169","stim/objects/Instruments/musicsheet.png",121,57,121,0.5,"stim/62.jpeg",6,2,1,NA,"Instruments",2,2,"right","right",0.83100009,1,1,0,1,NA,NA,NA,NA,NA,NA,NA,NA,NA,NA,NA,NA,NA,NA,NA,NA,NA,NA,NA,NA,NA,NA,NA,NA
"220","stim/objects/Instruments/pipepiano.png",122,57,122,0.7,"stim/12.jpeg",1,2,2,NA,"Instruments",2,1,"right","left",0.690999985,0,0,0,1,NA,NA,NA,NA,NA,NA,NA,NA,NA,NA,NA,NA,NA,NA,NA,NA,NA,NA,NA,NA,NA,NA,NA,NA
"140","stim/objects/Instruments/maraca.png",123,57,123,0.5,"stim/53.jpeg",5,3,1,NA,"Instruments",2,4,"right","right",0.86500001,1,1,0,1,NA,NA,NA,NA,NA,NA,NA,NA,NA,NA,NA,NA,NA,NA,NA,NA,NA,NA,NA,NA,NA,NA,NA,NA
"184","stim/objects/Instruments/musicstand.png",124,57,124,0.5,"stim/63.jpeg",6,3,1,NA,"Instruments",2,2,"right","left",0.674999952,0,0,0,1,NA,NA,NA,NA,NA,NA,NA,NA,NA,NA,NA,NA,NA,NA,NA,NA,NA,NA,NA,NA,NA,NA,NA,NA
"59","stim/objects/HouseObjects/match.png",125,57,125,0.5,"stim/62.jpeg",6,2,1,NA,"HouseObjects",1,4,"left","",NA,0,0,0,1,NA,NA,NA,NA,NA,NA,NA,NA,NA,NA,NA,NA,NA,NA,NA,NA,NA,NA,NA,NA,NA,NA,NA,NA
"92","stim/objects/HouseObjects/remote2.png",126,57,126,0.9,"stim/42.jpeg",4,2,3,NA,"HouseObjects",1,2,"left","left",0.517999887,1,1,0,1,NA,NA,NA,NA,NA,NA,NA,NA,NA,NA,NA,NA,NA,NA,NA,NA,NA,NA,NA,NA,NA,NA,NA,NA
"198","stim/objects/Instruments/oboe.png",127,57,127,0.5,"stim/64.jpeg",6,4,1,NA,"Instruments",2,1,"right","right",0.593999863,1,1,0,1,NA,NA,NA,NA,NA,NA,NA,NA,NA,NA,NA,NA,NA,NA,NA,NA,NA,NA,NA,NA,NA,NA,NA,NA
"170","stim/objects/Instruments/musicsheet.png",128,57,128,0.5,"stim/62.jpeg",6,2,1,NA,"Instruments",2,2,"right","left",0.652999878,0,0,0,1,NA,NA,NA,NA,NA,NA,NA,NA,NA,NA,NA,NA,NA,NA,NA,NA,NA,NA,NA,NA,NA,NA,NA,NA
"10","stim/objects/HouseObjects/iron2.png",129,57,129,0.7,"stim/21.jpeg",2,1,2,NA,"HouseObjects",1,1,"left","left",0.535999775,1,1,0,1,NA,NA,NA,NA,NA,NA,NA,NA,NA,NA,NA,NA,NA,NA,NA,NA,NA,NA,NA,NA,NA,NA,NA,NA
"204","stim/objects/Instruments/oboe2.png",130,57,130,0.9,"stim/34.jpeg",3,4,3,NA,"Instruments",2,4,"right","right",0.493000031,1,1,0,1,NA,NA,NA,NA,NA,NA,NA,NA,NA,NA,NA,NA,NA,NA,NA,NA,NA,NA,NA,NA,NA,NA,NA,NA
"14","stim/objects/HouseObjects/ironingboard.png",131,57,131,0.5,"stim/52.jpeg",5,2,1,NA,"HouseObjects",1,2,"left","left",0.586999893,1,1,0,1,NA,NA,NA,NA,NA,NA,NA,NA,NA,NA,NA,NA,NA,NA,NA,NA,NA,NA,NA,NA,NA,NA,NA,NA
"74","stim/objects/HouseObjects/recyclingbin.png",132,57,132,0.3,"stim/11.jpeg",1,1,2,NA,"HouseObjects",1,4,"left","right",0.582999945,0,0,0,1,NA,NA,NA,NA,NA,NA,NA,NA,NA,NA,NA,NA,NA,NA,NA,NA,NA,NA,NA,NA,NA,NA,NA,NA
"213","stim/objects/Instruments/panflute.png",133,57,133,0.7,"stim/11.jpeg",1,1,2,NA,"Instruments",2,2,"right","right",0.746000051,1,1,0,1,NA,NA,NA,NA,NA,NA,NA,NA,NA,NA,NA,NA,NA,NA,NA,NA,NA,NA,NA,NA,NA,NA,NA,NA
"237","stim/objects/Instruments/record.png",134,57,134,0.7,"stim/13.jpeg",1,3,2,NA,"Instruments",2,4,"right","right",0.746000051,1,1,0,1,NA,NA,NA,NA,NA,NA,NA,NA,NA,NA,NA,NA,NA,NA,NA,NA,NA,NA,NA,NA,NA,NA,NA,NA
"109","stim/objects/HouseObjects/rug.png",135,57,135,0.3,"stim/14.jpeg",1,4,2,NA,"HouseObjects",1,3,"left","right",0.565999985,0,0,0,1,NA,NA,NA,NA,NA,NA,NA,NA,NA,NA,NA,NA,NA,NA,NA,NA,NA,NA,NA,NA,NA,NA,NA,NA
"45","stim/objects/HouseObjects/knife2.png",136,57,136,0.7,"stim/24.jpeg",2,4,2,NA,"HouseObjects",1,2,"left","right",0.588000059,0,0,0,1,NA,NA,NA,NA,NA,NA,NA,NA,NA,NA,NA,NA,NA,NA,NA,NA,NA,NA,NA,NA,NA,NA,NA,NA
"162","stim/objects/Instruments/metronome2.png",137,57,137,0.9,"stim/31.jpeg",3,1,3,NA,"Instruments",2,4,"right","right",0.524000168,1,1,0,1,NA,NA,NA,NA,NA,NA,NA,NA,NA,NA,NA,NA,NA,NA,NA,NA,NA,NA,NA,NA,NA,NA,NA,NA
"191","stim/objects/Instruments/musicstand2.png",138,57,138,0.9,"stim/33.jpeg",3,3,3,NA,"Instruments",2,1,"right","right",0.708999872,1,1,0,1,NA,NA,NA,NA,NA,NA,NA,NA,NA,NA,NA,NA,NA,NA,NA,NA,NA,NA,NA,NA,NA,NA,NA,NA
"11","stim/objects/HouseObjects/iron2.png",139,57,139,0.7,"stim/21.jpeg",2,1,2,NA,"HouseObjects",1,1,"left","left",0.621000051,1,1,0,1,NA,NA,NA,NA,NA,NA,NA,NA,NA,NA,NA,NA,NA,NA,NA,NA,NA,NA,NA,NA,NA,NA,NA,NA
"163","stim/objects/Instruments/metronome2.png",140,57,140,0.9,"stim/31.jpeg",3,1,3,NA,"Instruments",2,3,"right","right",0.526000023,1,1,0,1,NA,NA,NA,NA,NA,NA,NA,NA,NA,NA,NA,NA,NA,NA,NA,NA,NA,NA,NA,NA,NA,NA,NA,NA
"221","stim/objects/Instruments/pipepiano.png",141,57,141,0.7,"stim/12.jpeg",1,2,2,NA,"Instruments",2,1,"right","left",0.697000027,0,0,0,1,NA,NA,NA,NA,NA,NA,NA,NA,NA,NA,NA,NA,NA,NA,NA,NA,NA,NA,NA,NA,NA,NA,NA,NA
"85","stim/objects/HouseObjects/remote.png",142,57,142,0.3,"stim/12.jpeg",1,2,2,NA,"HouseObjects",1,1,"left","right",0.532999992,0,0,0,1,NA,NA,NA,NA,NA,NA,NA,NA,NA,NA,NA,NA,NA,NA,NA,NA,NA,NA,NA,NA,NA,NA,NA,NA
"69","stim/objects/HouseObjects/pitcher.png",143,57,143,0.5,"stim/64.jpeg",6,4,1,NA,"HouseObjects",1,4,"left","right",0.612999916,0,0,0,1,NA,NA,NA,NA,NA,NA,NA,NA,NA,NA,NA,NA,NA,NA,NA,NA,NA,NA,NA,NA,NA,NA,NA,NA
"192","stim/objects/Instruments/musicstand2.png",144,57,144,0.9,"stim/33.jpeg",3,3,3,NA,"Instruments",2,2,"right","right",0.486999989,1,1,0,1,NA,NA,NA,NA,NA,NA,NA,NA,NA,NA,NA,NA,NA,NA,NA,NA,NA,NA,NA,NA,NA,NA,NA,NA
"118","stim/objects/HouseObjects/rug2.png",145,57,145,0.9,"stim/44.jpeg",4,4,3,NA,"HouseObjects",1,2,"left","left",0.57400012,1,1,0,1,NA,NA,NA,NA,NA,NA,NA,NA,NA,NA,NA,NA,NA,NA,NA,NA,NA,NA,NA,NA,NA,NA,NA,NA
"33","stim/objects/HouseObjects/key2.png",146,57,146,0.7,"stim/23.jpeg",2,3,2,NA,"HouseObjects",1,2,"left","left",0.536000013,1,1,0,1,NA,NA,NA,NA,NA,NA,NA,NA,NA,NA,NA,NA,NA,NA,NA,NA,NA,NA,NA,NA,NA,NA,NA,NA
"205","stim/objects/Instruments/oboe2.png",147,57,147,0.9,"stim/34.jpeg",3,4,3,NA,"Instruments",2,3,"right","right",0.575999975,1,1,0,1,NA,NA,NA,NA,NA,NA,NA,NA,NA,NA,NA,NA,NA,NA,NA,NA,NA,NA,NA,NA,NA,NA,NA,NA
"131","stim/objects/Instruments/laud.png",148,57,148,0.5,"stim/52.jpeg",5,2,1,NA,"Instruments",2,3,"right","left",0.524999857,0,0,0,1,NA,NA,NA,NA,NA,NA,NA,NA,NA,NA,NA,NA,NA,NA,NA,NA,NA,NA,NA,NA,NA,NA,NA,NA
"26","stim/objects/HouseObjects/key.png",149,57,149,0.5,"stim/53.jpeg",5,3,1,NA,"HouseObjects",1,1,"left","right",0.740999937,0,0,0,1,NA,NA,NA,NA,NA,NA,NA,NA,NA,NA,NA,NA,NA,NA,NA,NA,NA,NA,NA,NA,NA,NA,NA,NA
"65","stim/objects/HouseObjects/pan.png",150,57,150,0.5,"stim/63.jpeg",6,3,1,NA,"HouseObjects",1,4,"left","right",0.703999996,0,0,0,1,NA,NA,NA,NA,NA,NA,NA,NA,NA,NA,NA,NA,NA,NA,NA,NA,NA,NA,NA,NA,NA,NA,NA,NA
"46","stim/objects/HouseObjects/knife2.png",151,57,151,0.7,"stim/24.jpeg",2,4,2,NA,"HouseObjects",1,2,"left","left",0.736999989,1,1,0,1,NA,NA,NA,NA,NA,NA,NA,NA,NA,NA,NA,NA,NA,NA,NA,NA,NA,NA,NA,NA,NA,NA,NA,NA
"22","stim/objects/HouseObjects/ironingboard2.png",152,57,152,0.7,"stim/22.jpeg",2,2,2,NA,"HouseObjects",1,4,"left","right",0.559000015,0,0,0,1,NA,NA,NA,NA,NA,NA,NA,NA,NA,NA,NA,NA,NA,NA,NA,NA,NA,NA,NA,NA,NA,NA,NA,NA
"206","stim/objects/Instruments/oboe2.png",153,57,153,0.9,"stim/34.jpeg",3,4,3,NA,"Instruments",2,4,"right","right",0.55099988,1,1,0,1,NA,NA,NA,NA,NA,NA,NA,NA,NA,NA,NA,NA,NA,NA,NA,NA,NA,NA,NA,NA,NA,NA,NA,NA
"93","stim/objects/HouseObjects/remote2.png",154,57,154,0.9,"stim/42.jpeg",4,2,3,NA,"HouseObjects",1,1,"left","left",0.628000021,1,1,0,1,NA,NA,NA,NA,NA,NA,NA,NA,NA,NA,NA,NA,NA,NA,NA,NA,NA,NA,NA,NA,NA,NA,NA,NA
"240","stim/objects/Instruments/record2.png",155,57,155,0.1,"stim/43.jpeg",4,3,3,NA,"Instruments",2,3,"right","left",0.64199996,0,0,0,1,NA,NA,NA,NA,NA,NA,NA,NA,NA,NA,NA,NA,NA,NA,NA,NA,NA,NA,NA,NA,NA,NA,NA,NA
"222","stim/objects/Instruments/pipepiano.png",156,57,156,0.7,"stim/12.jpeg",1,2,2,NA,"Instruments",2,2,"right","left",0.65899992,0,0,0,1,NA,NA,NA,NA,NA,NA,NA,NA,NA,NA,NA,NA,NA,NA,NA,NA,NA,NA,NA,NA,NA,NA,NA,NA
"23","stim/objects/HouseObjects/ironingboard2.png",157,57,157,0.7,"stim/22.jpeg",2,2,2,NA,"HouseObjects",1,1,"left","right",0.798000097,0,0,0,1,NA,NA,NA,NA,NA,NA,NA,NA,NA,NA,NA,NA,NA,NA,NA,NA,NA,NA,NA,NA,NA,NA,NA,NA
"51","stim/objects/HouseObjects/lintroller.png",158,57,158,0.5,"stim/61.jpeg",6,1,1,NA,"HouseObjects",1,1,"left","right",0.633000135,0,0,0,1,NA,NA,NA,NA,NA,NA,NA,NA,NA,NA,NA,NA,NA,NA,NA,NA,NA,NA,NA,NA,NA,NA,NA,NA
"81","stim/objects/HouseObjects/recyclingbin2.png",159,57,159,0.9,"stim/41.jpeg",4,1,3,NA,"HouseObjects",1,1,"left","left",0.631000042,1,1,0,1,NA,NA,NA,NA,NA,NA,NA,NA,NA,NA,NA,NA,NA,NA,NA,NA,NA,NA,NA,NA,NA,NA,NA,NA
"151","stim/objects/Instruments/marimba2.png",160,57,160,0.3,"stim/24.jpeg",2,4,2,NA,"Instruments",2,2,"right","left",0.603999853,0,0,0,1,NA,NA,NA,NA,NA,NA,NA,NA,NA,NA,NA,NA,NA,NA,NA,NA,NA,NA,NA,NA,NA,NA,NA,NA
"27","stim/objects/HouseObjects/key.png",161,57,161,0.5,"stim/53.jpeg",5,3,1,NA,"HouseObjects",1,4,"left","left",0.856999874,1,1,0,1,NA,NA,NA,NA,NA,NA,NA,NA,NA,NA,NA,NA,NA,NA,NA,NA,NA,NA,NA,NA,NA,NA,NA,NA
"94","stim/objects/HouseObjects/remote2.png",162,57,162,0.9,"stim/42.jpeg",4,2,3,NA,"HouseObjects",1,3,"left","left",0.701999903,1,1,0,1,NA,NA,NA,NA,NA,NA,NA,NA,NA,NA,NA,NA,NA,NA,NA,NA,NA,NA,NA,NA,NA,NA,NA,NA
"34","stim/objects/HouseObjects/key2.png",163,57,163,0.7,"stim/23.jpeg",2,3,2,NA,"HouseObjects",1,4,"left","right",0.54399991,0,0,0,1,NA,NA,NA,NA,NA,NA,NA,NA,NA,NA,NA,NA,NA,NA,NA,NA,NA,NA,NA,NA,NA,NA,NA,NA
"99","stim/objects/HouseObjects/rubbergloves.png",164,57,164,0.3,"stim/13.jpeg",1,3,2,NA,"HouseObjects",1,1,"left","right",0.703000069,0,0,0,1,NA,NA,NA,NA,NA,NA,NA,NA,NA,NA,NA,NA,NA,NA,NA,NA,NA,NA,NA,NA,NA,NA,NA,NA
"152","stim/objects/Instruments/marimba2.png",165,57,165,0.3,"stim/24.jpeg",2,4,2,NA,"Instruments",2,2,"right","right",0.569999933,1,1,0,1,NA,NA,NA,NA,NA,NA,NA,NA,NA,NA,NA,NA,NA,NA,NA,NA,NA,NA,NA,NA,NA,NA,NA,NA
"60","stim/objects/HouseObjects/match2.png",166,57,166,0.1,"stim/32.jpeg",3,2,3,NA,"HouseObjects",1,4,"left","right",0.598999977,0,0,0,1,NA,NA,NA,NA,NA,NA,NA,NA,NA,NA,NA,NA,NA,NA,NA,NA,NA,NA,NA,NA,NA,NA,NA,NA
"28","stim/objects/HouseObjects/key.png",167,57,167,0.5,"stim/53.jpeg",5,3,1,NA,"HouseObjects",1,3,"left","right",0.711999893,0,0,0,1,NA,NA,NA,NA,NA,NA,NA,NA,NA,NA,NA,NA,NA,NA,NA,NA,NA,NA,NA,NA,NA,NA,NA,NA
"12","stim/objects/HouseObjects/iron2.png",168,57,168,0.7,"stim/21.jpeg",2,1,2,NA,"HouseObjects",1,3,"left","right",0.670000076,0,0,0,1,NA,NA,NA,NA,NA,NA,NA,NA,NA,NA,NA,NA,NA,NA,NA,NA,NA,NA,NA,NA,NA,NA,NA,NA
"54","stim/objects/HouseObjects/lintroller2.png",169,57,169,0.1,"stim/31.jpeg",3,1,3,NA,"HouseObjects",1,4,"left","right",0.470999956,0,0,0,1,NA,NA,NA,NA,NA,NA,NA,NA,NA,NA,NA,NA,NA,NA,NA,NA,NA,NA,NA,NA,NA,NA,NA,NA
"35","stim/objects/HouseObjects/key2.png",170,57,170,0.7,"stim/23.jpeg",2,3,2,NA,"HouseObjects",1,2,"left","right",0.610000134,0,0,0,1,NA,NA,NA,NA,NA,NA,NA,NA,NA,NA,NA,NA,NA,NA,NA,NA,NA,NA,NA,NA,NA,NA,NA,NA
"29","stim/objects/HouseObjects/key.png",171,57,171,0.5,"stim/53.jpeg",5,3,1,NA,"HouseObjects",1,2,"left","right",0.664999962,0,0,0,1,NA,NA,NA,NA,NA,NA,NA,NA,NA,NA,NA,NA,NA,NA,NA,NA,NA,NA,NA,NA,NA,NA,NA,NA
"148","stim/objects/Instruments/marimba.png",172,57,172,0.5,"stim/54.jpeg",5,4,1,NA,"Instruments",2,2,"right","left",0.801999807,0,0,0,1,NA,NA,NA,NA,NA,NA,NA,NA,NA,NA,NA,NA,NA,NA,NA,NA,NA,NA,NA,NA,NA,NA,NA,NA
"229","stim/objects/Instruments/record_player.png",173,57,173,0.7,"stim/14.jpeg",1,4,2,NA,"Instruments",2,4,"right","right",0.71600008,1,1,0,1,NA,NA,NA,NA,NA,NA,NA,NA,NA,NA,NA,NA,NA,NA,NA,NA,NA,NA,NA,NA,NA,NA,NA,NA
"75","stim/objects/HouseObjects/recyclingbin.png",174,57,174,0.3,"stim/11.jpeg",1,1,2,NA,"HouseObjects",1,2,"left","left",0.734999895,1,1,0,1,NA,NA,NA,NA,NA,NA,NA,NA,NA,NA,NA,NA,NA,NA,NA,NA,NA,NA,NA,NA,NA,NA,NA,NA
"95","stim/objects/HouseObjects/remote2.png",175,57,175,0.9,"stim/42.jpeg",4,2,3,NA,"HouseObjects",1,2,"left","left",0.513000011,1,1,0,1,NA,NA,NA,NA,NA,NA,NA,NA,NA,NA,NA,NA,NA,NA,NA,NA,NA,NA,NA,NA,NA,NA,NA,NA
"4","stim/objects/HouseObjects/iron.png",176,57,176,0.5,"stim/51.jpeg",5,1,1,NA,"HouseObjects",1,2,"left","right",0.70600009,0,0,0,1,NA,NA,NA,NA,NA,NA,NA,NA,NA,NA,NA,NA,NA,NA,NA,NA,NA,NA,NA,NA,NA,NA,NA,NA
"193","stim/objects/Instruments/musicstand2.png",177,57,177,0.9,"stim/33.jpeg",3,3,3,NA,"Instruments",2,1,"right","right",0.503999949,1,1,0,1,NA,NA,NA,NA,NA,NA,NA,NA,NA,NA,NA,NA,NA,NA,NA,NA,NA,NA,NA,NA,NA,NA,NA,NA
"143","stim/objects/Instruments/maraca2.png",178,57,178,0.3,"stim/23.jpeg",2,3,2,NA,"Instruments",2,2,"right","right",0.633999825,1,1,0,1,NA,NA,NA,NA,NA,NA,NA,NA,NA,NA,NA,NA,NA,NA,NA,NA,NA,NA,NA,NA,NA,NA,NA,NA
"110","stim/objects/HouseObjects/rug.png",179,57,179,0.3,"stim/14.jpeg",1,4,2,NA,"HouseObjects",1,4,"left","right",0.611999989,0,0,0,1,NA,NA,NA,NA,NA,NA,NA,NA,NA,NA,NA,NA,NA,NA,NA,NA,NA,NA,NA,NA,NA,NA,NA,NA
"177","stim/objects/Instruments/musicsheet2.png",180,57,180,0.9,"stim/32.jpeg",3,2,3,NA,"Instruments",2,4,"right","right",0.513999939,1,1,0,1,NA,NA,NA,NA,NA,NA,NA,NA,NA,NA,NA,NA,NA,NA,NA,NA,NA,NA,NA,NA,NA,NA,NA,NA
"223","stim/objects/Instruments/pipepiano.png",181,57,181,0.7,"stim/12.jpeg",1,2,2,NA,"Instruments",2,1,"right","right",0.686000109,1,1,0,1,NA,NA,NA,NA,NA,NA,NA,NA,NA,NA,NA,NA,NA,NA,NA,NA,NA,NA,NA,NA,NA,NA,NA,NA
"238","stim/objects/Instruments/record.png",182,57,182,0.7,"stim/13.jpeg",1,3,2,NA,"Instruments",2,4,"right","left",0.682999849,0,0,0,1,NA,NA,NA,NA,NA,NA,NA,NA,NA,NA,NA,NA,NA,NA,NA,NA,NA,NA,NA,NA,NA,NA,NA,NA
"144","stim/objects/Instruments/maraca2.png",183,57,183,0.3,"stim/23.jpeg",2,3,2,NA,"Instruments",2,1,"right","left",0.81099987,0,0,0,1,NA,NA,NA,NA,NA,NA,NA,NA,NA,NA,NA,NA,NA,NA,NA,NA,NA,NA,NA,NA,NA,NA,NA,NA
"127","stim/objects/Instruments/keyboard2.png",184,57,184,0.3,"stim/21.jpeg",2,1,2,NA,"Instruments",2,2,"right","right",0.603000164,1,1,0,1,NA,NA,NA,NA,NA,NA,NA,NA,NA,NA,NA,NA,NA,NA,NA,NA,NA,NA,NA,NA,NA,NA,NA,NA
"230","stim/objects/Instruments/record_player.png",185,57,185,0.7,"stim/14.jpeg",1,4,2,NA,"Instruments",2,3,"right","right",0.611999989,1,1,0,1,NA,NA,NA,NA,NA,NA,NA,NA,NA,NA,NA,NA,NA,NA,NA,NA,NA,NA,NA,NA,NA,NA,NA,NA
"36","stim/objects/HouseObjects/key2.png",186,57,186,0.7,"stim/23.jpeg",2,3,2,NA,"HouseObjects",1,3,"left","right",0.648999929,0,0,0,1,NA,NA,NA,NA,NA,NA,NA,NA,NA,NA,NA,NA,NA,NA,NA,NA,NA,NA,NA,NA,NA,NA,NA,NA
"70","stim/objects/HouseObjects/pitcher.png",187,57,187,0.5,"stim/64.jpeg",6,4,1,NA,"HouseObjects",1,3,"left","right",0.685000181,0,0,0,1,NA,NA,NA,NA,NA,NA,NA,NA,NA,NA,NA,NA,NA,NA,NA,NA,NA,NA,NA,NA,NA,NA,NA,NA
"15","stim/objects/HouseObjects/ironingboard.png",188,57,188,0.5,"stim/52.jpeg",5,2,1,NA,"HouseObjects",1,1,"left","right",0.719000101,0,0,0,1,NA,NA,NA,NA,NA,NA,NA,NA,NA,NA,NA,NA,NA,NA,NA,NA,NA,NA,NA,NA,NA,NA,NA,NA
"239","stim/objects/Instruments/record.png",189,57,189,0.7,"stim/13.jpeg",1,3,2,NA,"Instruments",2,4,"right","right",0.88499999,1,1,0,1,NA,NA,NA,NA,NA,NA,NA,NA,NA,NA,NA,NA,NA,NA,NA,NA,NA,NA,NA,NA,NA,NA,NA,NA
"124","stim/objects/Instruments/keyboard.png",190,57,190,0.5,"stim/51.jpeg",5,1,1,NA,"Instruments",2,1,"right","left",0.785000086,0,0,0,1,NA,NA,NA,NA,NA,NA,NA,NA,NA,NA,NA,NA,NA,NA,NA,NA,NA,NA,NA,NA,NA,NA,NA,NA
"119","stim/objects/HouseObjects/rug2.png",191,57,191,0.9,"stim/44.jpeg",4,4,3,NA,"HouseObjects",1,4,"left","left",0.538000107,1,1,0,1,NA,NA,NA,NA,NA,NA,NA,NA,NA,NA,NA,NA,NA,NA,NA,NA,NA,NA,NA,NA,NA,NA,NA,NA
"132","stim/objects/Instruments/laud.png",192,57,192,0.5,"stim/52.jpeg",5,2,1,NA,"Instruments",2,2,"right","right",0.703999996,1,1,0,1,NA,NA,NA,NA,NA,NA,NA,NA,NA,NA,NA,NA,NA,NA,NA,NA,NA,NA,NA,NA,NA,NA,NA,NA
"207","stim/objects/Instruments/oboe2.png",193,57,193,0.9,"stim/34.jpeg",3,4,3,NA,"Instruments",2,1,"right","right",0.515000105,1,1,0,1,NA,NA,NA,NA,NA,NA,NA,NA,NA,NA,NA,NA,NA,NA,NA,NA,NA,NA,NA,NA,NA,NA,NA,NA
"214","stim/objects/Instruments/panflute.png",194,57,194,0.7,"stim/11.jpeg",1,1,2,NA,"Instruments",2,2,"right","left",0.63499999,0,0,0,1,NA,NA,NA,NA,NA,NA,NA,NA,NA,NA,NA,NA,NA,NA,NA,NA,NA,NA,NA,NA,NA,NA,NA,NA
"133","stim/objects/Instruments/laud.png",195,57,195,0.5,"stim/52.jpeg",5,2,1,NA,"Instruments",2,2,"right","left",0.615999937,0,0,0,1,NA,NA,NA,NA,NA,NA,NA,NA,NA,NA,NA,NA,NA,NA,NA,NA,NA,NA,NA,NA,NA,NA,NA,NA
"16","stim/objects/HouseObjects/ironingboard.png",196,57,196,0.5,"stim/52.jpeg",5,2,1,NA,"HouseObjects",1,2,"left","right",0.451999903,0,0,0,1,NA,NA,NA,NA,NA,NA,NA,NA,NA,NA,NA,NA,NA,NA,NA,NA,NA,NA,NA,NA,NA,NA,NA,NA
"154","stim/objects/Instruments/metronome.png",197,57,197,0.5,"stim/61.jpeg",6,1,1,NA,"Instruments",2,2,"right","right",0.720000029,1,1,0,1,NA,NA,NA,NA,NA,NA,NA,NA,NA,NA,NA,NA,NA,NA,NA,NA,NA,NA,NA,NA,NA,NA,NA,NA
"5","stim/objects/HouseObjects/iron.png",198,57,198,0.5,"stim/51.jpeg",5,1,1,NA,"HouseObjects",1,1,"left","left",0.732999802,1,1,0,1,NA,NA,NA,NA,NA,NA,NA,NA,NA,NA,NA,NA,NA,NA,NA,NA,NA,NA,NA,NA,NA,NA,NA,NA
"105","stim/objects/HouseObjects/rubbergloves2.png",199,57,199,0.9,"stim/43.jpeg",4,3,3,NA,"HouseObjects",1,3,"left","left",0.55099988,1,1,0,1,NA,NA,NA,NA,NA,NA,NA,NA,NA,NA,NA,NA,NA,NA,NA,NA,NA,NA,NA,NA,NA,NA,NA,NA
"215","stim/objects/Instruments/panflute.png",200,57,200,0.7,"stim/11.jpeg",1,1,2,NA,"Instruments",2,3,"right","right",0.603999853,1,1,0,1,NA,NA,NA,NA,NA,NA,NA,NA,NA,NA,NA,NA,NA,NA,NA,NA,NA,NA,NA,NA,NA,NA,NA,NA
"178","stim/objects/Instruments/musicsheet2.png",201,57,201,0.9,"stim/32.jpeg",3,2,3,NA,"Instruments",2,4,"right","right",0.551000118,1,1,0,1,NA,NA,NA,NA,NA,NA,NA,NA,NA,NA,NA,NA,NA,NA,NA,NA,NA,NA,NA,NA,NA,NA,NA,NA
"194","stim/objects/Instruments/musicstand2.png",202,57,202,0.9,"stim/33.jpeg",3,3,3,NA,"Instruments",2,2,"right","left",0.711000204,0,0,0,1,NA,NA,NA,NA,NA,NA,NA,NA,NA,NA,NA,NA,NA,NA,NA,NA,NA,NA,NA,NA,NA,NA,NA,NA
"82","stim/objects/HouseObjects/recyclingbin2.png",203,57,203,0.9,"stim/41.jpeg",4,1,3,NA,"HouseObjects",1,1,"left","left",0.700000048,1,1,0,1,NA,NA,NA,NA,NA,NA,NA,NA,NA,NA,NA,NA,NA,NA,NA,NA,NA,NA,NA,NA,NA,NA,NA,NA
"179","stim/objects/Instruments/musicsheet2.png",204,57,204,0.9,"stim/32.jpeg",3,2,3,NA,"Instruments",2,4,"right","right",0.586999893,1,1,0,1,NA,NA,NA,NA,NA,NA,NA,NA,NA,NA,NA,NA,NA,NA,NA,NA,NA,NA,NA,NA,NA,NA,NA,NA
"106","stim/objects/HouseObjects/rubbergloves2.png",205,57,205,0.9,"stim/43.jpeg",4,3,3,NA,"HouseObjects",1,4,"left","left",0.492000103,1,1,0,1,NA,NA,NA,NA,NA,NA,NA,NA,NA,NA,NA,NA,NA,NA,NA,NA,NA,NA,NA,NA,NA,NA,NA,NA
"107","stim/objects/HouseObjects/rubbergloves2.png",206,57,206,0.9,"stim/43.jpeg",4,3,3,NA,"HouseObjects",1,2,"left","left",0.909999847,1,1,0,1,NA,NA,NA,NA,NA,NA,NA,NA,NA,NA,NA,NA,NA,NA,NA,NA,NA,NA,NA,NA,NA,NA,NA,NA
"125","stim/objects/Instruments/keyboard.png",207,57,207,0.5,"stim/51.jpeg",5,1,1,NA,"Instruments",2,4,"right","right",0.66899991,1,1,0,1,NA,NA,NA,NA,NA,NA,NA,NA,NA,NA,NA,NA,NA,NA,NA,NA,NA,NA,NA,NA,NA,NA,NA,NA
"71","stim/objects/HouseObjects/pitcher.png",208,57,208,0.5,"stim/64.jpeg",6,4,1,NA,"HouseObjects",1,4,"left","left",0.809000015,1,1,0,1,NA,NA,NA,NA,NA,NA,NA,NA,NA,NA,NA,NA,NA,NA,NA,NA,NA,NA,NA,NA,NA,NA,NA,NA
"199","stim/objects/Instruments/oboe.png",209,57,209,0.5,"stim/64.jpeg",6,4,1,NA,"Instruments",2,3,"right","left",0.609999895,0,0,0,1,NA,NA,NA,NA,NA,NA,NA,NA,NA,NA,NA,NA,NA,NA,NA,NA,NA,NA,NA,NA,NA,NA,NA,NA
"120","stim/objects/HouseObjects/rug2.png",210,57,210,0.9,"stim/44.jpeg",4,4,3,NA,"HouseObjects",1,4,"left","left",0.498000145,1,1,0,1,NA,NA,NA,NA,NA,NA,NA,NA,NA,NA,NA,NA,NA,NA,NA,NA,NA,NA,NA,NA,NA,NA,NA,NA
"86","stim/objects/HouseObjects/remote.png",211,57,211,0.3,"stim/12.jpeg",1,2,2,NA,"HouseObjects",1,2,"left","left",0.775000095,1,1,0,1,NA,NA,NA,NA,NA,NA,NA,NA,NA,NA,NA,NA,NA,NA,NA,NA,NA,NA,NA,NA,NA,NA,NA,NA
"47","stim/objects/HouseObjects/knife2.png",212,57,212,0.7,"stim/24.jpeg",2,4,2,NA,"HouseObjects",1,3,"left","right",0.618999958,0,0,0,1,NA,NA,NA,NA,NA,NA,NA,NA,NA,NA,NA,NA,NA,NA,NA,NA,NA,NA,NA,NA,NA,NA,NA,NA
"24","stim/objects/HouseObjects/ironingboard2.png",213,57,213,0.7,"stim/22.jpeg",2,2,2,NA,"HouseObjects",1,3,"left","right",0.614999771,0,0,0,1,NA,NA,NA,NA,NA,NA,NA,NA,NA,NA,NA,NA,NA,NA,NA,NA,NA,NA,NA,NA,NA,NA,NA,NA
"164","stim/objects/Instruments/metronome2.png",214,57,214,0.9,"stim/31.jpeg",3,1,3,NA,"Instruments",2,1,"right","right",0.592000008,1,1,0,1,NA,NA,NA,NA,NA,NA,NA,NA,NA,NA,NA,NA,NA,NA,NA,NA,NA,NA,NA,NA,NA,NA,NA,NA
"83","stim/objects/HouseObjects/recyclingbin2.png",215,57,215,0.9,"stim/41.jpeg",4,1,3,NA,"HouseObjects",1,3,"left","left",0.835999966,1,1,0,1,NA,NA,NA,NA,NA,NA,NA,NA,NA,NA,NA,NA,NA,NA,NA,NA,NA,NA,NA,NA,NA,NA,NA,NA
"155","stim/objects/Instruments/metronome.png",216,57,216,0.5,"stim/61.jpeg",6,1,1,NA,"Instruments",2,3,"right","left",0.832000017,0,0,0,1,NA,NA,NA,NA,NA,NA,NA,NA,NA,NA,NA,NA,NA,NA,NA,NA,NA,NA,NA,NA,NA,NA,NA,NA
"165","stim/objects/Instruments/metronome2.png",217,57,217,0.9,"stim/31.jpeg",3,1,3,NA,"Instruments",2,1,"right","right",0.559000015,1,1,0,1,NA,NA,NA,NA,NA,NA,NA,NA,NA,NA,NA,NA,NA,NA,NA,NA,NA,NA,NA,NA,NA,NA,NA,NA
"48","stim/objects/HouseObjects/knife2.png",218,57,218,0.7,"stim/24.jpeg",2,4,2,NA,"HouseObjects",1,4,"left","right",0.614000082,0,0,0,1,NA,NA,NA,NA,NA,NA,NA,NA,NA,NA,NA,NA,NA,NA,NA,NA,NA,NA,NA,NA,NA,NA,NA,NA
"111","stim/objects/HouseObjects/rug.png",219,57,219,0.3,"stim/14.jpeg",1,4,2,NA,"HouseObjects",1,2,"left","right",0.722000122,0,0,0,1,NA,NA,NA,NA,NA,NA,NA,NA,NA,NA,NA,NA,NA,NA,NA,NA,NA,NA,NA,NA,NA,NA,NA,NA
"231","stim/objects/Instruments/record_player.png",220,57,220,0.7,"stim/14.jpeg",1,4,2,NA,"Instruments",2,1,"right","right",0.858999968,1,1,0,1,NA,NA,NA,NA,NA,NA,NA,NA,NA,NA,NA,NA,NA,NA,NA,NA,NA,NA,NA,NA,NA,NA,NA,NA
"84","stim/objects/HouseObjects/recyclingbin2.png",221,57,221,0.9,"stim/41.jpeg",4,1,3,NA,"HouseObjects",1,1,"left","left",0.587999821,1,1,0,1,NA,NA,NA,NA,NA,NA,NA,NA,NA,NA,NA,NA,NA,NA,NA,NA,NA,NA,NA,NA,NA,NA,NA,NA
"171","stim/objects/Instruments/musicsheet.png",222,57,222,0.5,"stim/62.jpeg",6,2,1,NA,"Instruments",2,4,"right","left",0.618999958,0,0,0,1,NA,NA,NA,NA,NA,NA,NA,NA,NA,NA,NA,NA,NA,NA,NA,NA,NA,NA,NA,NA,NA,NA,NA,NA
"87","stim/objects/HouseObjects/remote.png",223,57,223,0.3,"stim/12.jpeg",1,2,2,NA,"HouseObjects",1,2,"left","left",0.560000181,1,1,0,1,NA,NA,NA,NA,NA,NA,NA,NA,NA,NA,NA,NA,NA,NA,NA,NA,NA,NA,NA,NA,NA,NA,NA,NA
"208","stim/objects/Instruments/oboe2.png",224,57,224,0.9,"stim/34.jpeg",3,4,3,NA,"Instruments",2,3,"right","right",0.628000021,1,1,0,1,NA,NA,NA,NA,NA,NA,NA,NA,NA,NA,NA,NA,NA,NA,NA,NA,NA,NA,NA,NA,NA,NA,NA,NA
"52","stim/objects/HouseObjects/lintroller.png",225,57,225,0.5,"stim/61.jpeg",6,1,1,NA,"HouseObjects",1,4,"left","left",0.81400013,1,1,0,1,NA,NA,NA,NA,NA,NA,NA,NA,NA,NA,NA,NA,NA,NA,NA,NA,NA,NA,NA,NA,NA,NA,NA,NA
"185","stim/objects/Instruments/musicstand.png",226,57,226,0.5,"stim/63.jpeg",6,3,1,NA,"Instruments",2,3,"right","right",0.745000124,1,1,0,1,NA,NA,NA,NA,NA,NA,NA,NA,NA,NA,NA,NA,NA,NA,NA,NA,NA,NA,NA,NA,NA,NA,NA,NA
"166","stim/objects/Instruments/metronome2.png",227,57,227,0.9,"stim/31.jpeg",3,1,3,NA,"Instruments",2,2,"right","right",0.642999887,1,1,0,1,NA,NA,NA,NA,NA,NA,NA,NA,NA,NA,NA,NA,NA,NA,NA,NA,NA,NA,NA,NA,NA,NA,NA,NA
"108","stim/objects/HouseObjects/rubbergloves2.png",228,57,228,0.9,"stim/43.jpeg",4,3,3,NA,"HouseObjects",1,1,"left","left",0.501000166,1,1,0,1,NA,NA,NA,NA,NA,NA,NA,NA,NA,NA,NA,NA,NA,NA,NA,NA,NA,NA,NA,NA,NA,NA,NA,NA
"128","stim/objects/Instruments/keyboard2.png",229,57,229,0.3,"stim/21.jpeg",2,1,2,NA,"Instruments",2,4,"right","right",0.743999958,1,1,0,1,NA,NA,NA,NA,NA,NA,NA,NA,NA,NA,NA,NA,NA,NA,NA,NA,NA,NA,NA,NA,NA,NA,NA,NA
"136","stim/objects/Instruments/laud2.png",230,57,230,0.3,"stim/22.jpeg",2,2,2,NA,"Instruments",2,4,"right","left",0.683000088,0,0,0,1,NA,NA,NA,NA,NA,NA,NA,NA,NA,NA,NA,NA,NA,NA,NA,NA,NA,NA,NA,NA,NA,NA,NA,NA
"53","stim/objects/HouseObjects/lintroller.png",231,57,231,0.5,"stim/61.jpeg",6,1,1,NA,"HouseObjects",1,2,"left","left",0.690999985,1,1,0,1,NA,NA,NA,NA,NA,NA,NA,NA,NA,NA,NA,NA,NA,NA,NA,NA,NA,NA,NA,NA,NA,NA,NA,NA
"17","stim/objects/HouseObjects/ironingboard.png",232,57,232,0.5,"stim/52.jpeg",5,2,1,NA,"HouseObjects",1,3,"left","left",0.585999966,1,1,0,1,NA,NA,NA,NA,NA,NA,NA,NA,NA,NA,NA,NA,NA,NA,NA,NA,NA,NA,NA,NA,NA,NA,NA,NA
"216","stim/objects/Instruments/panflute2.png",233,57,233,0.1,"stim/41.jpeg",4,1,3,NA,"Instruments",2,1,"right","left",0.523999929,0,0,0,1,NA,NA,NA,NA,NA,NA,NA,NA,NA,NA,NA,NA,NA,NA,NA,NA,NA,NA,NA,NA,NA,NA,NA,NA
"149","stim/objects/Instruments/marimba.png",234,57,234,0.5,"stim/54.jpeg",5,4,1,NA,"Instruments",2,2,"right","left",0.624000072,0,0,0,1,NA,NA,NA,NA,NA,NA,NA,NA,NA,NA,NA,NA,NA,NA,NA,NA,NA,NA,NA,NA,NA,NA,NA,NA
"156","stim/objects/Instruments/metronome.png",235,57,235,0.5,"stim/61.jpeg",6,1,1,NA,"Instruments",2,1,"right","right",0.842000008,1,1,0,1,NA,NA,NA,NA,NA,NA,NA,NA,NA,NA,NA,NA,NA,NA,NA,NA,NA,NA,NA,NA,NA,NA,NA,NA
"157","stim/objects/Instruments/metronome.png",236,57,236,0.5,"stim/61.jpeg",6,1,1,NA,"Instruments",2,3,"right","left",0.590999842,0,0,0,1,NA,NA,NA,NA,NA,NA,NA,NA,NA,NA,NA,NA,NA,NA,NA,NA,NA,NA,NA,NA,NA,NA,NA,NA
"180","stim/objects/Instruments/musicsheet2.png",237,57,237,0.9,"stim/32.jpeg",3,2,3,NA,"Instruments",2,3,"right","right",0.578999996,1,1,0,1,NA,NA,NA,NA,NA,NA,NA,NA,NA,NA,NA,NA,NA,NA,NA,NA,NA,NA,NA,NA,NA,NA,NA,NA
"141","stim/objects/Instruments/maraca.png",238,57,238,0.5,"stim/53.jpeg",5,3,1,NA,"Instruments",2,3,"right","left",0.56400013,0,0,0,1,NA,NA,NA,NA,NA,NA,NA,NA,NA,NA,NA,NA,NA,NA,NA,NA,NA,NA,NA,NA,NA,NA,NA,NA
"96","stim/objects/HouseObjects/remote2.png",239,57,239,0.9,"stim/42.jpeg",4,2,3,NA,"HouseObjects",1,1,"left","left",0.559000015,1,1,0,1,NA,NA,NA,NA,NA,NA,NA,NA,NA,NA,NA,NA,NA,NA,NA,NA,NA,NA,NA,NA,NA,NA,NA,NA
"41","stim/objects/HouseObjects/knife.png",240,57,240,0.5,"stim/54.jpeg",5,4,1,NA,"HouseObjects",1,4,"left","left",0.84499979,1,1,0,1,NA,NA,NA,NA,NA,NA,NA,NA,NA,NA,NA,NA,NA,NA,NA,NA,NA,NA,NA,NA,NA,NA,NA,NA
"325","stim/objects/HouseObjects/flyswatter.png",248,57,241,0.9,"stim/43.jpeg",4,3,3,2,"HouseObjects",1,1,"left","left",0.67200017,1,1,1,0,NA,NA,NA,NA,NA,NA,NA,NA,NA,NA,NA,NA,NA,NA,NA,NA,NA,NA,NA,NA,NA,NA,NA,NA
"326","stim/objects/HouseObjects/flyswatter.png",249,57,242,0.9,"stim/43.jpeg",4,3,3,2,"HouseObjects",1,4,"left","left",0.651000023,1,1,1,0,NA,NA,NA,NA,NA,NA,NA,NA,NA,NA,NA,NA,NA,NA,NA,NA,NA,NA,NA,NA,NA,NA,NA,NA
"271","stim/objects/HouseObjects/clothesdryingrack.png",250,57,243,0.7,"stim/23.jpeg",2,3,2,2,"HouseObjects",1,4,"left","right",0.735000134,0,0,1,0,NA,NA,NA,NA,NA,NA,NA,NA,NA,NA,NA,NA,NA,NA,NA,NA,NA,NA,NA,NA,NA,NA,NA,NA
"421","stim/objects/Instruments/bassguitar.png",251,57,244,0.5,"stim/63.jpeg",6,3,1,2,"Instruments",2,4,"right","right",0.551000118,1,1,1,0,NA,NA,NA,NA,NA,NA,NA,NA,NA,NA,NA,NA,NA,NA,NA,NA,NA,NA,NA,NA,NA,NA,NA,NA
"342","stim/objects/HouseObjects/garbagebin.png",252,57,245,0.9,"stim/44.jpeg",4,4,3,2,"HouseObjects",1,1,"left","left",0.54399991,1,1,1,0,NA,NA,NA,NA,NA,NA,NA,NA,NA,NA,NA,NA,NA,NA,NA,NA,NA,NA,NA,NA,NA,NA,NA,NA
"490","stim/objects/Instruments/frenchhorn.png",253,57,246,0.9,"stim/33.jpeg",3,3,3,2,"Instruments",2,4,"right","right",0.674999952,1,1,1,0,NA,NA,NA,NA,NA,NA,NA,NA,NA,NA,NA,NA,NA,NA,NA,NA,NA,NA,NA,NA,NA,NA,NA,NA
"507","stim/objects/Instruments/gong.png",254,57,247,0.9,"stim/34.jpeg",3,4,3,2,"Instruments",2,3,"right","right",0.577000141,1,1,1,0,NA,NA,NA,NA,NA,NA,NA,NA,NA,NA,NA,NA,NA,NA,NA,NA,NA,NA,NA,NA,NA,NA,NA,NA
"359","stim/objects/HouseObjects/glass.png",255,57,248,0.9,"stim/42.jpeg",4,2,3,2,"HouseObjects",1,4,"left","left",0.750999928,1,1,1,0,NA,NA,NA,NA,NA,NA,NA,NA,NA,NA,NA,NA,NA,NA,NA,NA,NA,NA,NA,NA,NA,NA,NA,NA
"567","stim/objects/Instruments/vuvuzela.png",256,57,249,0.7,"stim/11.jpeg",1,1,2,1,"Instruments",2,2,"right","right",0.877000093,1,1,1,0,35,57,1,0.7,2,"stim/11.jpeg",1,1,"stim/11.jpeg",2,"right",0.967000008,3,4,1.378999949,2,1.279999971,35,0,0,NA,1,NA,0
"256","stim/objects/HouseObjects/blender.png",257,57,250,0.5,"stim/64.jpeg",6,4,1,2,"HouseObjects",1,1,"left","left",0.681999922,1,1,1,0,NA,NA,NA,NA,NA,NA,NA,NA,NA,NA,NA,NA,NA,NA,NA,NA,NA,NA,NA,NA,NA,NA,NA,NA
"436","stim/objects/Instruments/cymbal.png",258,57,251,0.7,"stim/13.jpeg",1,3,2,2,"Instruments",2,2,"right","right",0.707999945,1,1,1,0,NA,NA,NA,NA,NA,NA,NA,NA,NA,NA,NA,NA,NA,NA,NA,NA,NA,NA,NA,NA,NA,NA,NA,NA
"541","stim/objects/Instruments/guitarcase.png",259,57,252,0.5,"stim/52.jpeg",5,2,1,1,"Instruments",2,3,"right","right",0.715999842,1,1,1,0,147,57,1,0.5,1,"stim/52.jpeg",5,2,"stim/52.jpeg",3,"left",0.977999926,3,1,1.339999914,4,1.273000002,147,1,0,0,0,0,0
"568","stim/objects/Instruments/vuvuzela2.png",260,57,253,0.1,"stim/43.jpeg",4,3,3,1,"Instruments",2,3,"right","left",0.559000015,0,0,1,0,12,57,1,0.1,2,"stim/43.jpeg",4,3,"stim/43.jpeg",3,"left",1.673000097,4,4,2.279999971,3,0.867999792,12,1,0,0,1,1,0
"291","stim/objects/HouseObjects/doormat.png",261,57,254,0.9,"stim/41.jpeg",4,1,3,2,"HouseObjects",1,2,"left","left",0.618999958,1,1,1,0,NA,NA,NA,NA,NA,NA,NA,NA,NA,NA,NA,NA,NA,NA,NA,NA,NA,NA,NA,NA,NA,NA,NA,NA
"360","stim/objects/HouseObjects/glass.png",262,57,255,0.9,"stim/43.jpeg",4,3,3,2,"HouseObjects",1,3,"left","left",0.582000017,1,1,1,0,NA,NA,NA,NA,NA,NA,NA,NA,NA,NA,NA,NA,NA,NA,NA,NA,NA,NA,NA,NA,NA,NA,NA,NA
"432","stim/objects/Instruments/clarinet2.png",263,57,256,0.3,"stim/21.jpeg",2,1,2,1,"Instruments",2,1,"right","right",0.626000166,1,1,1,0,74,57,1,0.3,2,"stim/21.jpeg",2,1,"stim/21.jpeg",1,"left",1.286999941,4,2,1.82400012,2,2.386000156,74,1,0,0,0,0,0
"491","stim/objects/Instruments/frenchhorn.png",264,57,257,0.9,"stim/34.jpeg",3,4,3,2,"Instruments",2,4,"right","right",0.629999876,1,1,1,0,NA,NA,NA,NA,NA,NA,NA,NA,NA,NA,NA,NA,NA,NA,NA,NA,NA,NA,NA,NA,NA,NA,NA,NA
"473","stim/objects/Instruments/flutetrans.png",265,57,258,0.9,"stim/33.jpeg",3,3,3,2,"Instruments",2,3,"right","right",0.421000004,1,1,1,0,NA,NA,NA,NA,NA,NA,NA,NA,NA,NA,NA,NA,NA,NA,NA,NA,NA,NA,NA,NA,NA,NA,NA,NA
"508","stim/objects/Instruments/gong.png",266,57,259,0.9,"stim/34.jpeg",3,4,3,2,"Instruments",2,1,"right","right",0.517999887,1,1,1,0,NA,NA,NA,NA,NA,NA,NA,NA,NA,NA,NA,NA,NA,NA,NA,NA,NA,NA,NA,NA,NA,NA,NA,NA
"492","stim/objects/Instruments/frenchhorn.png",267,57,260,0.9,"stim/34.jpeg",3,4,3,2,"Instruments",2,1,"right","right",0.469000101,1,1,1,0,NA,NA,NA,NA,NA,NA,NA,NA,NA,NA,NA,NA,NA,NA,NA,NA,NA,NA,NA,NA,NA,NA,NA,NA
"474","stim/objects/Instruments/flutetrans.png",268,57,261,0.9,"stim/31.jpeg",3,1,3,2,"Instruments",2,3,"right","right",0.501999855,1,1,1,0,NA,NA,NA,NA,NA,NA,NA,NA,NA,NA,NA,NA,NA,NA,NA,NA,NA,NA,NA,NA,NA,NA,NA,NA
"509","stim/objects/Instruments/gong.png",269,57,262,0.9,"stim/31.jpeg",3,1,3,2,"Instruments",2,3,"right","right",0.484999895,1,1,1,0,NA,NA,NA,NA,NA,NA,NA,NA,NA,NA,NA,NA,NA,NA,NA,NA,NA,NA,NA,NA,NA,NA,NA,NA
"493","stim/objects/Instruments/frenchhorn.png",270,57,263,0.9,"stim/31.jpeg",3,1,3,2,"Instruments",2,2,"right","left",0.664000034,0,0,1,0,NA,NA,NA,NA,NA,NA,NA,NA,NA,NA,NA,NA,NA,NA,NA,NA,NA,NA,NA,NA,NA,NA,NA,NA
"343","stim/objects/HouseObjects/garbagebin.png",271,57,264,0.9,"stim/42.jpeg",4,2,3,2,"HouseObjects",1,4,"left","left",0.523999929,1,1,1,0,NA,NA,NA,NA,NA,NA,NA,NA,NA,NA,NA,NA,NA,NA,NA,NA,NA,NA,NA,NA,NA,NA,NA,NA
"282","stim/objects/HouseObjects/coffee2.png",272,57,265,0.7,"stim/23.jpeg",2,3,2,1,"HouseObjects",1,2,"left","right",0.917000055,0,0,1,0,49,57,1,0.7,1,"stim/23.jpeg",2,3,"stim/23.jpeg",2,"left",1.249000072,3,3,1.118000031,3,1.571999788,49,1,1,1,0,0,0
"265","stim/objects/HouseObjects/bucket.png",273,57,266,0.5,"stim/63.jpeg",6,3,1,2,"HouseObjects",1,2,"left","right",0.654999971,0,0,1,0,NA,NA,NA,NA,NA,NA,NA,NA,NA,NA,NA,NA,NA,NA,NA,NA,NA,NA,NA,NA,NA,NA,NA,NA
"376","stim/objects/HouseObjects/glassmop.png",274,57,267,0.5,"stim/53.jpeg",5,3,1,1,"HouseObjects",1,3,"left","right",0.636000156,0,0,1,0,132,57,1,0.5,1,"stim/53.jpeg",5,3,"stim/53.jpeg",3,"right",0.944000006,4,1,1.199999809,3,1.503999949,132,0,0,NA,1,NA,0
"457","stim/objects/Instruments/flute.png",275,57,268,0.9,"stim/33.jpeg",3,3,3,2,"Instruments",2,1,"right","right",0.632000208,1,1,1,0,NA,NA,NA,NA,NA,NA,NA,NA,NA,NA,NA,NA,NA,NA,NA,NA,NA,NA,NA,NA,NA,NA,NA,NA
"287","stim/objects/HouseObjects/dishsoap.png",276,57,269,0.7,"stim/23.jpeg",2,3,2,2,"HouseObjects",1,1,"left","right",0.828999996,0,0,1,0,NA,NA,NA,NA,NA,NA,NA,NA,NA,NA,NA,NA,NA,NA,NA,NA,NA,NA,NA,NA,NA,NA,NA,NA
"328","stim/objects/HouseObjects/flyswatter.png",277,57,270,0.9,"stim/42.jpeg",4,2,3,2,"HouseObjects",1,2,"left","left",0.54399991,1,1,1,0,NA,NA,NA,NA,NA,NA,NA,NA,NA,NA,NA,NA,NA,NA,NA,NA,NA,NA,NA,NA,NA,NA,NA,NA
"308","stim/objects/HouseObjects/dustpan.png",278,57,271,0.9,"stim/42.jpeg",4,2,3,2,"HouseObjects",1,3,"left","left",0.50999999,1,1,1,0,NA,NA,NA,NA,NA,NA,NA,NA,NA,NA,NA,NA,NA,NA,NA,NA,NA,NA,NA,NA,NA,NA,NA,NA
"292","stim/objects/HouseObjects/doormat.png",279,57,272,0.9,"stim/44.jpeg",4,4,3,2,"HouseObjects",1,2,"left","left",0.568000078,1,1,1,0,NA,NA,NA,NA,NA,NA,NA,NA,NA,NA,NA,NA,NA,NA,NA,NA,NA,NA,NA,NA,NA,NA,NA,NA
"452","stim/objects/Instruments/electricguitar.png",280,57,273,0.7,"stim/14.jpeg",1,4,2,2,"Instruments",2,4,"right","",NA,0,0,1,0,NA,NA,NA,NA,NA,NA,NA,NA,NA,NA,NA,NA,NA,NA,NA,NA,NA,NA,NA,NA,NA,NA,NA,NA
"404","stim/objects/HouseObjects/wateringcan.png",281,57,274,0.3,"stim/11.jpeg",1,1,2,1,"HouseObjects",1,1,"left","left",0.674000025,1,1,1,0,26,57,1,0.3,1,"stim/11.jpeg",1,1,"stim/11.jpeg",1,"right",0.830000162,2,1,1.000999928,3,1.717000008,26,0,1,NA,0,NA,0
"525","stim/objects/Instruments/grandpiano.png",282,57,275,0.9,"stim/32.jpeg",3,2,3,2,"Instruments",2,1,"right","right",0.829999924,1,1,1,0,NA,NA,NA,NA,NA,NA,NA,NA,NA,NA,NA,NA,NA,NA,NA,NA,NA,NA,NA,NA,NA,NA,NA,NA
"290","stim/objects/HouseObjects/dishsoap2.png",283,57,276,0.7,"stim/21.jpeg",2,1,2,1,"HouseObjects",1,4,"left","right",0.65199995,0,0,1,0,133,57,1,0.7,1,"stim/21.jpeg",2,1,"stim/21.jpeg",4,"right",0.980000019,4,3,1.021000147,1,1.25999999,133,0,0,NA,0,NA,0
"526","stim/objects/Instruments/grandpiano.png",284,57,277,0.9,"stim/34.jpeg",3,4,3,2,"Instruments",2,4,"right","right",0.55099988,1,1,1,0,NA,NA,NA,NA,NA,NA,NA,NA,NA,NA,NA,NA,NA,NA,NA,NA,NA,NA,NA,NA,NA,NA,NA,NA
"402","stim/objects/HouseObjects/vacuumcleaner.png",285,57,278,0.3,"stim/14.jpeg",1,4,2,1,"HouseObjects",1,1,"left","right",0.578000069,0,0,1,0,84,57,1,0.3,1,"stim/14.jpeg",1,4,"stim/14.jpeg",1,"right",0.49000001,2,1,1.282999992,2,1.729000092,84,0,0,NA,0,NA,0
"329","stim/objects/HouseObjects/flyswatter.png",286,57,279,0.9,"stim/43.jpeg",4,3,3,2,"HouseObjects",1,1,"left","left",0.565999985,1,1,1,0,NA,NA,NA,NA,NA,NA,NA,NA,NA,NA,NA,NA,NA,NA,NA,NA,NA,NA,NA,NA,NA,NA,NA,NA
"476","stim/objects/Instruments/flutetrans.png",287,57,280,0.9,"stim/31.jpeg",3,1,3,2,"Instruments",2,3,"right","right",0.730000019,1,1,1,0,NA,NA,NA,NA,NA,NA,NA,NA,NA,NA,NA,NA,NA,NA,NA,NA,NA,NA,NA,NA,NA,NA,NA,NA
"358","stim/objects/HouseObjects/garbagebin2.png",288,57,281,0.1,"stim/34.jpeg",3,4,3,1,"HouseObjects",1,4,"left","right",0.59800005,0,0,1,0,6,57,1,0.1,1,"stim/34.jpeg",3,4,"stim/34.jpeg",4,"right",1.860000134,4,1,1.858999968,3,1.531999826,6,0,0,NA,0,NA,0
"330","stim/objects/HouseObjects/flyswatter.png",289,57,282,0.9,"stim/41.jpeg",4,1,3,2,"HouseObjects",1,1,"left","left",0.628000021,1,1,1,0,NA,NA,NA,NA,NA,NA,NA,NA,NA,NA,NA,NA,NA,NA,NA,NA,NA,NA,NA,NA,NA,NA,NA,NA
"417","stim/objects/Instruments/banjo2.png",290,57,283,0.7,"stim/12.jpeg",1,2,2,1,"Instruments",2,2,"right","right",0.643999815,1,1,1,0,193,57,1,0.7,2,"stim/12.jpeg",1,2,"stim/12.jpeg",2,"right",0.698999882,4,3,1.322999954,4,1.761999846,193,0,0,NA,0,NA,0
"540","stim/objects/Instruments/grandpiano2.png",291,57,284,0.9,"stim/33.jpeg",3,3,3,1,"Instruments",2,2,"right","right",0.577000141,1,1,1,0,123,57,1,0.9,2,"stim/33.jpeg",3,3,"stim/33.jpeg",2,"right",0.710000038,4,4,1.23300004,2,1.808000088,123,0,0,NA,1,NA,0
"553","stim/objects/Instruments/tambourine.png",292,57,285,0.5,"stim/61.jpeg",6,1,1,1,"Instruments",2,2,"right","left",0.665999889,0,0,1,0,70,57,1,0.5,2,"stim/61.jpeg",6,1,"stim/61.jpeg",2,"left",1.067000151,3,3,1.493000031,3,1.398000002,70,1,0,0,0,0,0
"385","stim/objects/HouseObjects/safetypin2.png",293,57,286,0.1,"stim/32.jpeg",3,2,3,1,"HouseObjects",1,1,"left","right",0.480999947,0,0,1,0,88,57,1,0.1,1,"stim/32.jpeg",3,2,"stim/32.jpeg",1,"right",0.810000181,3,3,1.007999897,3,0.754999876,88,0,0,NA,0,NA,0
"361","stim/objects/HouseObjects/glass.png",294,57,287,0.9,"stim/42.jpeg",4,2,3,2,"HouseObjects",1,2,"left","left",0.511999846,1,1,1,0,NA,NA,NA,NA,NA,NA,NA,NA,NA,NA,NA,NA,NA,NA,NA,NA,NA,NA,NA,NA,NA,NA,NA,NA
"549","stim/objects/Instruments/saxophone.png",295,57,288,0.5,"stim/52.jpeg",5,2,1,1,"Instruments",2,2,"right","right",0.755000114,1,1,1,0,73,57,1,0.5,1,"stim/52.jpeg",5,2,"stim/52.jpeg",2,"left",3.04399991,2,3,1.444999933,4,1.421000004,73,1,0,0,0,0,0
"477","stim/objects/Instruments/flutetrans.png",296,57,289,0.9,"stim/33.jpeg",3,3,3,2,"Instruments",2,3,"right","right",0.513999939,1,1,1,0,NA,NA,NA,NA,NA,NA,NA,NA,NA,NA,NA,NA,NA,NA,NA,NA,NA,NA,NA,NA,NA,NA,NA,NA
"362","stim/objects/HouseObjects/glass.png",297,57,290,0.9,"stim/44.jpeg",4,4,3,2,"HouseObjects",1,3,"left","right",0.685000181,0,0,1,0,NA,NA,NA,NA,NA,NA,NA,NA,NA,NA,NA,NA,NA,NA,NA,NA,NA,NA,NA,NA,NA,NA,NA,NA
"496","stim/objects/Instruments/frenchhorn.png",298,57,291,0.9,"stim/33.jpeg",3,3,3,2,"Instruments",2,1,"right","right",0.511000156,1,1,1,0,NA,NA,NA,NA,NA,NA,NA,NA,NA,NA,NA,NA,NA,NA,NA,NA,NA,NA,NA,NA,NA,NA,NA,NA
"310","stim/objects/HouseObjects/dustpan.png",299,57,292,0.9,"stim/44.jpeg",4,4,3,2,"HouseObjects",1,1,"left","left",0.501999855,1,1,1,0,NA,NA,NA,NA,NA,NA,NA,NA,NA,NA,NA,NA,NA,NA,NA,NA,NA,NA,NA,NA,NA,NA,NA,NA
"294","stim/objects/HouseObjects/doormat.png",300,57,293,0.9,"stim/43.jpeg",4,3,3,2,"HouseObjects",1,3,"left","left",0.586999893,1,1,1,0,NA,NA,NA,NA,NA,NA,NA,NA,NA,NA,NA,NA,NA,NA,NA,NA,NA,NA,NA,NA,NA,NA,NA,NA
"363","stim/objects/HouseObjects/glass.png",301,57,294,0.9,"stim/41.jpeg",4,1,3,2,"HouseObjects",1,4,"left","left",0.562999964,1,1,1,0,NA,NA,NA,NA,NA,NA,NA,NA,NA,NA,NA,NA,NA,NA,NA,NA,NA,NA,NA,NA,NA,NA,NA,NA
"527","stim/objects/Instruments/grandpiano.png",302,57,295,0.9,"stim/31.jpeg",3,1,3,2,"Instruments",2,4,"right","right",0.505000114,1,1,1,0,NA,NA,NA,NA,NA,NA,NA,NA,NA,NA,NA,NA,NA,NA,NA,NA,NA,NA,NA,NA,NA,NA,NA,NA
"478","stim/objects/Instruments/flutetrans.png",303,57,296,0.9,"stim/33.jpeg",3,3,3,2,"Instruments",2,2,"right","right",0.539999962,1,1,1,0,NA,NA,NA,NA,NA,NA,NA,NA,NA,NA,NA,NA,NA,NA,NA,NA,NA,NA,NA,NA,NA,NA,NA,NA
"393","stim/objects/HouseObjects/spraybottle2.png",304,57,297,0.9,"stim/44.jpeg",4,4,3,1,"HouseObjects",1,1,"left","left",0.532999992,1,1,1,0,16,57,1,0.9,1,"stim/44.jpeg",4,4,"stim/44.jpeg",1,"right",0.847999811,4,1,1.818000078,2,1.019999981,16,0,0,NA,0,NA,0
"440","stim/objects/Instruments/doublebass.png",305,57,298,0.7,"stim/11.jpeg",1,1,2,2,"Instruments",2,1,"right","right",0.720000029,1,1,1,0,NA,NA,NA,NA,NA,NA,NA,NA,NA,NA,NA,NA,NA,NA,NA,NA,NA,NA,NA,NA,NA,NA,NA,NA
"528","stim/objects/Instruments/grandpiano.png",306,57,299,0.9,"stim/33.jpeg",3,3,3,2,"Instruments",2,2,"right","right",0.552000046,1,1,1,0,NA,NA,NA,NA,NA,NA,NA,NA,NA,NA,NA,NA,NA,NA,NA,NA,NA,NA,NA,NA,NA,NA,NA,NA
"311","stim/objects/HouseObjects/dustpan.png",307,57,300,0.9,"stim/41.jpeg",4,1,3,2,"HouseObjects",1,2,"left","left",0.611000061,1,1,1,0,NA,NA,NA,NA,NA,NA,NA,NA,NA,NA,NA,NA,NA,NA,NA,NA,NA,NA,NA,NA,NA,NA,NA,NA
"364","stim/objects/HouseObjects/glass.png",308,57,301,0.9,"stim/41.jpeg",4,1,3,2,"HouseObjects",1,2,"left","left",0.525999784,1,1,1,0,NA,NA,NA,NA,NA,NA,NA,NA,NA,NA,NA,NA,NA,NA,NA,NA,NA,NA,NA,NA,NA,NA,NA,NA
"259","stim/objects/HouseObjects/bottle.png",309,57,302,0.5,"stim/64.jpeg",6,4,1,2,"HouseObjects",1,3,"left","right",0.774999857,0,0,1,0,NA,NA,NA,NA,NA,NA,NA,NA,NA,NA,NA,NA,NA,NA,NA,NA,NA,NA,NA,NA,NA,NA,NA,NA
"559","stim/objects/Instruments/trombone.png",310,57,303,0.5,"stim/64.jpeg",6,4,1,1,"Instruments",2,1,"right","left",0.606999874,0,0,1,0,149,57,1,0.5,2,"stim/64.jpeg",6,4,"stim/64.jpeg",1,"right",1.031999826,4,1,1.269999981,4,1.164000034,149,0,0,NA,0,NA,0
"529","stim/objects/Instruments/grandpiano.png",311,57,304,0.9,"stim/32.jpeg",3,2,3,2,"Instruments",2,3,"right","right",0.503000021,1,1,1,0,NA,NA,NA,NA,NA,NA,NA,NA,NA,NA,NA,NA,NA,NA,NA,NA,NA,NA,NA,NA,NA,NA,NA,NA
"430","stim/objects/Instruments/clarinet.png",312,57,305,0.5,"stim/61.jpeg",6,1,1,2,"Instruments",2,4,"right","right",0.720999956,1,1,1,0,NA,NA,NA,NA,NA,NA,NA,NA,NA,NA,NA,NA,NA,NA,NA,NA,NA,NA,NA,NA,NA,NA,NA,NA
"555","stim/objects/Instruments/timbal.png",313,57,306,0.5,"stim/62.jpeg",6,2,1,1,"Instruments",2,4,"right","left",0.70600009,0,0,1,0,137,57,1,0.5,2,"stim/62.jpeg",6,2,"stim/62.jpeg",4,"right",0.834000111,2,3,1.264999866,2,2.312000036,137,0,0,NA,0,NA,0
"406","stim/objects/Instruments/accordion.png",314,57,307,0.5,"stim/51.jpeg",5,1,1,2,"Instruments",2,2,"right","left",0.680999994,0,0,1,0,NA,NA,NA,NA,NA,NA,NA,NA,NA,NA,NA,NA,NA,NA,NA,NA,NA,NA,NA,NA,NA,NA,NA,NA
"497","stim/objects/Instruments/frenchhorn.png",315,57,308,0.9,"stim/31.jpeg",3,1,3,2,"Instruments",2,1,"right","right",0.570999861,1,1,1,0,NA,NA,NA,NA,NA,NA,NA,NA,NA,NA,NA,NA,NA,NA,NA,NA,NA,NA,NA,NA,NA,NA,NA,NA
"444","stim/objects/Instruments/drums.png",316,57,309,0.7,"stim/13.jpeg",1,3,2,2,"Instruments",2,2,"right","right",0.667000055,1,1,1,0,NA,NA,NA,NA,NA,NA,NA,NA,NA,NA,NA,NA,NA,NA,NA,NA,NA,NA,NA,NA,NA,NA,NA,NA
"241","stim/objects/HouseObjects/ashtray.png",317,57,310,0.5,"stim/52.jpeg",5,2,1,2,"HouseObjects",1,3,"left","left",0.703000069,1,1,1,0,NA,NA,NA,NA,NA,NA,NA,NA,NA,NA,NA,NA,NA,NA,NA,NA,NA,NA,NA,NA,NA,NA,NA,NA
"365","stim/objects/HouseObjects/glass.png",318,57,311,0.9,"stim/41.jpeg",4,1,3,2,"HouseObjects",1,2,"left","left",0.652999878,1,1,1,0,NA,NA,NA,NA,NA,NA,NA,NA,NA,NA,NA,NA,NA,NA,NA,NA,NA,NA,NA,NA,NA,NA,NA,NA
"557","stim/objects/Instruments/triangle.png",319,57,312,0.5,"stim/63.jpeg",6,3,1,1,"Instruments",2,4,"right","right",0.569000006,1,1,1,0,174,57,1,0.5,2,"stim/63.jpeg",6,3,"stim/63.jpeg",4,"left",0.930000067,1,3,1.978999853,3,1.481999874,174,1,1,1,0,0,0
"403","stim/objects/HouseObjects/vacuumcleaner2.png",320,57,313,0.9,"stim/41.jpeg",4,1,3,1,"HouseObjects",1,2,"left","left",0.541000128,1,1,1,0,122,57,1,0.9,1,"stim/41.jpeg",4,1,"stim/41.jpeg",2,"right",0.552999973,1,2,1.6650002,4,1.105000019,122,0,0,NA,0,NA,0
"409","stim/objects/Instruments/acousticguitar.png",321,57,314,0.5,"stim/52.jpeg",5,2,1,2,"Instruments",2,1,"right","left",0.630000114,0,0,1,0,NA,NA,NA,NA,NA,NA,NA,NA,NA,NA,NA,NA,NA,NA,NA,NA,NA,NA,NA,NA,NA,NA,NA,NA
"479","stim/objects/Instruments/flutetrans.png",322,57,315,0.9,"stim/34.jpeg",3,4,3,2,"Instruments",2,3,"right","right",0.917999983,1,1,1,0,NA,NA,NA,NA,NA,NA,NA,NA,NA,NA,NA,NA,NA,NA,NA,NA,NA,NA,NA,NA,NA,NA,NA,NA
"513","stim/objects/Instruments/gong.png",323,57,316,0.9,"stim/32.jpeg",3,2,3,2,"Instruments",2,1,"right","right",0.486999989,1,1,1,0,NA,NA,NA,NA,NA,NA,NA,NA,NA,NA,NA,NA,NA,NA,NA,NA,NA,NA,NA,NA,NA,NA,NA,NA
"286","stim/objects/HouseObjects/cushion2.png",324,57,317,0.7,"stim/24.jpeg",2,4,2,1,"HouseObjects",1,4,"left","right",0.697000027,0,0,1,0,198,57,1,0.7,1,"stim/24.jpeg",2,4,"stim/24.jpeg",4,"right",0.549000025,4,3,0.967000008,2,1.526000023,198,0,0,NA,0,NA,0
"384","stim/objects/HouseObjects/safetypin.png",325,57,318,0.5,"stim/53.jpeg",5,3,1,1,"HouseObjects",1,3,"left","right",0.859999895,0,0,1,0,15,57,1,0.5,1,"stim/53.jpeg",5,3,"stim/53.jpeg",3,"left",1.004999876,3,2,3.414000034,3,1.881999969,15,1,0,0,1,1,0
"283","stim/objects/HouseObjects/cushion.png",326,57,319,0.7,"stim/24.jpeg",2,4,2,2,"HouseObjects",1,1,"left","right",0.717999935,0,0,1,0,NA,NA,NA,NA,NA,NA,NA,NA,NA,NA,NA,NA,NA,NA,NA,NA,NA,NA,NA,NA,NA,NA,NA,NA
"312","stim/objects/HouseObjects/dustpan.png",327,57,320,0.9,"stim/41.jpeg",4,1,3,2,"HouseObjects",1,2,"left","left",0.536999941,1,1,1,0,NA,NA,NA,NA,NA,NA,NA,NA,NA,NA,NA,NA,NA,NA,NA,NA,NA,NA,NA,NA,NA,NA,NA,NA
"275","stim/objects/HouseObjects/clothespin.png",328,57,321,0.7,"stim/22.jpeg",2,2,2,2,"HouseObjects",1,1,"left","left",0.569000006,1,1,1,0,NA,NA,NA,NA,NA,NA,NA,NA,NA,NA,NA,NA,NA,NA,NA,NA,NA,NA,NA,NA,NA,NA,NA,NA
"267","stim/objects/HouseObjects/bucket2.png",329,57,322,0.7,"stim/23.jpeg",2,3,2,1,"HouseObjects",1,3,"left","right",0.657999992,0,0,1,0,116,57,1,0.7,1,"stim/23.jpeg",2,3,"stim/23.jpeg",3,"left",1.582999945,3,2,2.128999949,2,1.310000181,116,1,0,0,0,0,0
"258","stim/objects/HouseObjects/blender2.png",330,57,323,0.7,"stim/24.jpeg",2,4,2,1,"HouseObjects",1,3,"left","left",0.797999859,1,1,1,0,109,57,1,0.7,1,"stim/24.jpeg",2,4,"stim/24.jpeg",3,"left",0.820999861,4,2,1.502000093,2,1.476999998,109,1,0,0,0,0,0
"453","stim/objects/Instruments/electricguitar.png",331,57,324,0.7,"stim/13.jpeg",1,3,2,2,"Instruments",2,2,"right","right",0.731000185,1,1,1,0,NA,NA,NA,NA,NA,NA,NA,NA,NA,NA,NA,NA,NA,NA,NA,NA,NA,NA,NA,NA,NA,NA,NA,NA
"514","stim/objects/Instruments/gong.png",332,57,325,0.9,"stim/33.jpeg",3,3,3,2,"Instruments",2,2,"right","right",0.727999926,1,1,1,0,NA,NA,NA,NA,NA,NA,NA,NA,NA,NA,NA,NA,NA,NA,NA,NA,NA,NA,NA,NA,NA,NA,NA,NA
"324","stim/objects/HouseObjects/dustpan2.png",333,57,326,0.1,"stim/32.jpeg",3,2,3,1,"HouseObjects",1,2,"left","right",0.536999941,0,0,1,0,57,57,1,0.1,1,"stim/32.jpeg",3,2,"stim/32.jpeg",2,"right",0.930000067,3,4,2.6650002,3,0.601000071,57,0,0,NA,0,NA,0
"284","stim/objects/HouseObjects/cushion.png",334,57,327,0.7,"stim/21.jpeg",2,1,2,2,"HouseObjects",1,2,"left","right",0.569000006,0,0,1,0,NA,NA,NA,NA,NA,NA,NA,NA,NA,NA,NA,NA,NA,NA,NA,NA,NA,NA,NA,NA,NA,NA,NA,NA
"367","stim/objects/HouseObjects/glass.png",335,57,328,0.9,"stim/42.jpeg",4,2,3,2,"HouseObjects",1,3,"left","left",0.569000006,1,1,1,0,NA,NA,NA,NA,NA,NA,NA,NA,NA,NA,NA,NA,NA,NA,NA,NA,NA,NA,NA,NA,NA,NA,NA,NA
"246","stim/objects/HouseObjects/ballofstring2.png",336,57,329,0.3,"stim/13.jpeg",1,3,2,1,"HouseObjects",1,3,"left","right",0.79399991,0,0,1,0,58,57,1,0.3,1,"stim/13.jpeg",1,3,"stim/13.jpeg",3,"right",0.78399992,2,3,0.777999878,3,1.267000198,58,0,1,NA,1,NA,0
"429","stim/objects/Instruments/chime2.png",337,57,330,0.3,"stim/24.jpeg",2,4,2,1,"Instruments",2,1,"right","right",0.620000124,1,1,1,0,100,57,1,0.3,2,"stim/24.jpeg",2,4,"stim/24.jpeg",1,"right",0.70600009,3,4,2.565999985,3,2.059999943,100,0,1,NA,0,NA,0
"547","stim/objects/Instruments/hihat.png",338,57,331,0.5,"stim/51.jpeg",5,1,1,1,"Instruments",2,2,"right","right",0.770999908,1,1,1,0,126,57,1,0.5,1,"stim/51.jpeg",5,1,"stim/51.jpeg",2,"right",1.366999865,1,3,2.421999931,3,1.988000154,126,0,0,NA,0,NA,0
"255","stim/objects/HouseObjects/bleachbottle2.png",339,57,332,0.3,"stim/12.jpeg",1,2,2,1,"HouseObjects",1,4,"left","right",0.642999887,0,0,1,0,131,57,1,0.3,1,"stim/12.jpeg",1,2,"stim/12.jpeg",4,"right",2.041000128,2,2,2.380000114,2,1.621999979,131,0,1,NA,0,NA,0
"530","stim/objects/Instruments/grandpiano.png",340,57,333,0.9,"stim/33.jpeg",3,3,3,2,"Instruments",2,2,"right","right",0.50999999,1,1,1,0,NA,NA,NA,NA,NA,NA,NA,NA,NA,NA,NA,NA,NA,NA,NA,NA,NA,NA,NA,NA,NA,NA,NA,NA
"498","stim/objects/Instruments/frenchhorn.png",341,57,334,0.9,"stim/33.jpeg",3,3,3,2,"Instruments",2,1,"right","right",0.586000204,1,1,1,0,NA,NA,NA,NA,NA,NA,NA,NA,NA,NA,NA,NA,NA,NA,NA,NA,NA,NA,NA,NA,NA,NA,NA,NA
"315","stim/objects/HouseObjects/dustpan.png",342,57,335,0.9,"stim/43.jpeg",4,3,3,2,"HouseObjects",1,2,"left","left",0.929000139,1,1,1,0,NA,NA,NA,NA,NA,NA,NA,NA,NA,NA,NA,NA,NA,NA,NA,NA,NA,NA,NA,NA,NA,NA,NA,NA
"249","stim/objects/HouseObjects/barbecuelighter2.png",343,57,336,0.3,"stim/14.jpeg",1,4,2,1,"HouseObjects",1,3,"left","right",0.605999947,0,0,1,0,23,57,1,0.3,1,"stim/14.jpeg",1,4,"stim/14.jpeg",3,"left",0.826000214,4,3,2.118999958,4,0.870000124,23,1,0,0,0,0,0
"261","stim/objects/HouseObjects/bottle2.png",344,57,337,0.7,"stim/21.jpeg",2,1,2,1,"HouseObjects",1,1,"left","right",0.681999922,0,0,1,0,155,57,1,0.7,1,"stim/21.jpeg",2,1,"stim/21.jpeg",1,"right",0.57400012,2,3,0.842999935,2,2.476999998,155,0,0,NA,0,NA,0
"296","stim/objects/HouseObjects/doormat.png",345,57,338,0.9,"stim/43.jpeg",4,3,3,2,"HouseObjects",1,3,"left","left",0.743999958,1,1,1,0,NA,NA,NA,NA,NA,NA,NA,NA,NA,NA,NA,NA,NA,NA,NA,NA,NA,NA,NA,NA,NA,NA,NA,NA
"272","stim/objects/HouseObjects/clothesdryingrack.png",346,57,339,0.7,"stim/22.jpeg",2,2,2,2,"HouseObjects",1,1,"left","left",0.598999977,1,1,1,0,NA,NA,NA,NA,NA,NA,NA,NA,NA,NA,NA,NA,NA,NA,NA,NA,NA,NA,NA,NA,NA,NA,NA,NA
"288","stim/objects/HouseObjects/dishsoap.png",347,57,340,0.7,"stim/21.jpeg",2,1,2,2,"HouseObjects",1,3,"left","right",0.671000004,0,0,1,0,NA,NA,NA,NA,NA,NA,NA,NA,NA,NA,NA,NA,NA,NA,NA,NA,NA,NA,NA,NA,NA,NA,NA,NA
"515","stim/objects/Instruments/gong.png",348,57,341,0.9,"stim/31.jpeg",3,1,3,2,"Instruments",2,4,"right","right",0.547999859,1,1,1,0,NA,NA,NA,NA,NA,NA,NA,NA,NA,NA,NA,NA,NA,NA,NA,NA,NA,NA,NA,NA,NA,NA,NA,NA
"531","stim/objects/Instruments/grandpiano.png",349,57,342,0.9,"stim/33.jpeg",3,3,3,2,"Instruments",2,3,"right","right",0.421000004,1,1,1,0,NA,NA,NA,NA,NA,NA,NA,NA,NA,NA,NA,NA,NA,NA,NA,NA,NA,NA,NA,NA,NA,NA,NA,NA
"459","stim/objects/Instruments/flute.png",350,57,343,0.9,"stim/31.jpeg",3,1,3,2,"Instruments",2,2,"right","right",0.569000006,1,1,1,0,NA,NA,NA,NA,NA,NA,NA,NA,NA,NA,NA,NA,NA,NA,NA,NA,NA,NA,NA,NA,NA,NA,NA,NA
"544","stim/objects/Instruments/harmonica2.png",351,57,344,0.9,"stim/31.jpeg",3,1,3,1,"Instruments",2,1,"right","right",0.457999945,1,1,1,0,37,57,1,0.9,2,"stim/31.jpeg",3,1,"stim/31.jpeg",1,"right",0.988999844,2,3,1.221999884,1,1.746000051,37,0,0,NA,1,NA,0
"401","stim/objects/HouseObjects/towel2.png",352,57,345,0.9,"stim/44.jpeg",4,4,3,1,"HouseObjects",1,3,"left","left",0.551000118,1,1,1,0,43,57,1,0.9,1,"stim/44.jpeg",4,4,"stim/44.jpeg",3,"right",0.870999813,4,3,2.052000046,4,1.101999998,43,0,0,NA,0,NA,0
"460","stim/objects/Instruments/flute.png",353,57,346,0.9,"stim/32.jpeg",3,2,3,2,"Instruments",2,4,"right","right",0.487999916,1,1,1,0,NA,NA,NA,NA,NA,NA,NA,NA,NA,NA,NA,NA,NA,NA,NA,NA,NA,NA,NA,NA,NA,NA,NA,NA
"412","stim/objects/Instruments/balalaika.png",354,57,347,0.5,"stim/53.jpeg",5,3,1,2,"Instruments",2,4,"right","right",0.873000145,1,1,1,0,NA,NA,NA,NA,NA,NA,NA,NA,NA,NA,NA,NA,NA,NA,NA,NA,NA,NA,NA,NA,NA,NA,NA,NA
"481","stim/objects/Instruments/flutetrans.png",355,57,348,0.9,"stim/33.jpeg",3,3,3,2,"Instruments",2,2,"right","right",0.506999969,1,1,1,0,NA,NA,NA,NA,NA,NA,NA,NA,NA,NA,NA,NA,NA,NA,NA,NA,NA,NA,NA,NA,NA,NA,NA,NA
"379","stim/objects/HouseObjects/hairdryer2.png",356,57,349,0.1,"stim/33.jpeg",3,3,3,1,"HouseObjects",1,3,"left","right",0.548000097,0,0,1,0,7,57,1,0.1,1,"stim/33.jpeg",3,3,"stim/33.jpeg",3,"left",1.559999943,3,2,2.995000124,3,1.096999884,7,1,0,0,1,1,0
"532","stim/objects/Instruments/grandpiano.png",357,57,350,0.9,"stim/32.jpeg",3,2,3,2,"Instruments",2,1,"right","right",0.676000118,1,1,1,0,NA,NA,NA,NA,NA,NA,NA,NA,NA,NA,NA,NA,NA,NA,NA,NA,NA,NA,NA,NA,NA,NA,NA,NA
"533","stim/objects/Instruments/grandpiano.png",358,57,351,0.9,"stim/31.jpeg",3,1,3,2,"Instruments",2,2,"right","right",0.457000017,1,1,1,0,NA,NA,NA,NA,NA,NA,NA,NA,NA,NA,NA,NA,NA,NA,NA,NA,NA,NA,NA,NA,NA,NA,NA,NA
"378","stim/objects/HouseObjects/hairdryer.png",359,57,352,0.5,"stim/54.jpeg",5,4,1,1,"HouseObjects",1,3,"left","right",0.850000143,0,0,1,0,40,57,1,0.5,1,"stim/54.jpeg",5,4,"stim/54.jpeg",3,"left",1.202000141,3,3,1.710999966,4,2.595000029,40,1,0,0,0,0,0
"242","stim/objects/HouseObjects/ashtray.png",360,57,353,0.5,"stim/51.jpeg",5,1,1,2,"HouseObjects",1,3,"left","right",0.572999954,0,0,1,0,NA,NA,NA,NA,NA,NA,NA,NA,NA,NA,NA,NA,NA,NA,NA,NA,NA,NA,NA,NA,NA,NA,NA,NA
"349","stim/objects/HouseObjects/garbagebin.png",361,57,354,0.9,"stim/41.jpeg",4,1,3,2,"HouseObjects",1,3,"left","left",0.524000168,1,1,1,0,NA,NA,NA,NA,NA,NA,NA,NA,NA,NA,NA,NA,NA,NA,NA,NA,NA,NA,NA,NA,NA,NA,NA,NA
"415","stim/objects/Instruments/banjo.png",362,57,355,0.5,"stim/53.jpeg",5,3,1,2,"Instruments",2,4,"right","right",0.686000109,1,1,1,0,NA,NA,NA,NA,NA,NA,NA,NA,NA,NA,NA,NA,NA,NA,NA,NA,NA,NA,NA,NA,NA,NA,NA,NA
"381","stim/objects/HouseObjects/handbrush2.png",363,57,356,0.1,"stim/34.jpeg",3,4,3,1,"HouseObjects",1,3,"left","right",0.561000109,0,0,1,0,17,57,1,0.1,1,"stim/34.jpeg",3,4,"stim/34.jpeg",3,"right",1.075999975,2,4,1.950000048,3,0.615999937,17,0,1,NA,1,NA,0
"458","stim/objects/Instruments/flute.png",364,57,357,0.9,"stim/32.jpeg",3,2,3,2,"Instruments",2,4,"right","right",0.381999969,1,1,1,0,NA,NA,NA,NA,NA,NA,NA,NA,NA,NA,NA,NA,NA,NA,NA,NA,NA,NA,NA,NA,NA,NA,NA,NA
"426","stim/objects/Instruments/cello2.png",365,57,358,0.3,"stim/23.jpeg",2,3,2,1,"Instruments",2,3,"right","right",0.617000103,1,1,1,0,166,57,1,0.3,2,"stim/23.jpeg",2,3,"stim/23.jpeg",3,"left",1.013000011,3,3,1.076999903,3,2.648999929,166,1,1,1,1,1,0
"499","stim/objects/Instruments/frenchhorn.png",366,57,359,0.9,"stim/34.jpeg",3,4,3,2,"Instruments",2,1,"right","right",0.566999912,1,1,1,0,NA,NA,NA,NA,NA,NA,NA,NA,NA,NA,NA,NA,NA,NA,NA,NA,NA,NA,NA,NA,NA,NA,NA,NA
"564","stim/objects/Instruments/tuba2.png",367,57,360,0.1,"stim/41.jpeg",4,1,3,1,"Instruments",2,3,"right","",NA,0,0,1,0,181,57,1,0.1,2,"stim/41.jpeg",4,1,"stim/41.jpeg",3,"right",0.953000069,3,1,2.90199995,2,2.055000067,181,0,1,NA,0,NA,0
"461","stim/objects/Instruments/flute.png",368,57,361,0.9,"stim/33.jpeg",3,3,3,2,"Instruments",2,2,"right","right",0.575000048,1,1,1,0,NA,NA,NA,NA,NA,NA,NA,NA,NA,NA,NA,NA,NA,NA,NA,NA,NA,NA,NA,NA,NA,NA,NA,NA
"462","stim/objects/Instruments/flute.png",369,57,362,0.9,"stim/31.jpeg",3,1,3,2,"Instruments",2,4,"right","right",0.539000034,1,1,1,0,NA,NA,NA,NA,NA,NA,NA,NA,NA,NA,NA,NA,NA,NA,NA,NA,NA,NA,NA,NA,NA,NA,NA,NA
"550","stim/objects/Instruments/saxophone2.png",370,57,363,0.9,"stim/34.jpeg",3,4,3,1,"Instruments",2,2,"right","right",0.424000025,1,1,1,0,80,57,1,0.9,2,"stim/34.jpeg",3,4,"stim/34.jpeg",2,"right",1.460000038,2,4,1.156000137,4,0.659000158,80,0,1,NA,0,NA,0
"413","stim/objects/Instruments/balalaika.png",371,57,364,0.5,"stim/52.jpeg",5,2,1,2,"Instruments",2,2,"right","left",0.746000051,0,0,1,0,NA,NA,NA,NA,NA,NA,NA,NA,NA,NA,NA,NA,NA,NA,NA,NA,NA,NA,NA,NA,NA,NA,NA,NA
"463","stim/objects/Instruments/flute.png",372,57,365,0.9,"stim/34.jpeg",3,4,3,2,"Instruments",2,2,"right","left",0.815000057,0,0,1,0,NA,NA,NA,NA,NA,NA,NA,NA,NA,NA,NA,NA,NA,NA,NA,NA,NA,NA,NA,NA,NA,NA,NA,NA
"516","stim/objects/Instruments/gong.png",373,57,366,0.9,"stim/31.jpeg",3,1,3,2,"Instruments",2,3,"right","right",0.475000143,1,1,1,0,NA,NA,NA,NA,NA,NA,NA,NA,NA,NA,NA,NA,NA,NA,NA,NA,NA,NA,NA,NA,NA,NA,NA,NA
"331","stim/objects/HouseObjects/flyswatter.png",374,57,367,0.9,"stim/43.jpeg",4,3,3,2,"HouseObjects",1,4,"left","left",0.677999973,1,1,1,0,NA,NA,NA,NA,NA,NA,NA,NA,NA,NA,NA,NA,NA,NA,NA,NA,NA,NA,NA,NA,NA,NA,NA,NA
"266","stim/objects/HouseObjects/bucket.png",375,57,368,0.5,"stim/62.jpeg",6,2,1,2,"HouseObjects",1,4,"left","left",0.599999905,1,1,1,0,NA,NA,NA,NA,NA,NA,NA,NA,NA,NA,NA,NA,NA,NA,NA,NA,NA,NA,NA,NA,NA,NA,NA,NA
"422","stim/objects/Instruments/bassguitar.png",376,57,369,0.5,"stim/62.jpeg",6,2,1,2,"Instruments",2,4,"right","right",0.669000149,1,1,1,0,NA,NA,NA,NA,NA,NA,NA,NA,NA,NA,NA,NA,NA,NA,NA,NA,NA,NA,NA,NA,NA,NA,NA,NA
"388","stim/objects/HouseObjects/scale.png",377,57,370,0.5,"stim/62.jpeg",6,2,1,1,"HouseObjects",1,2,"left","right",0.889999866,0,0,1,0,78,57,1,0.5,2,"stim/62.jpeg",6,2,"stim/62.jpeg",2,"right",0.842000008,3,4,1.056999922,4,1.491000175,78,0,0,NA,0,NA,0
"297","stim/objects/HouseObjects/doormat.png",378,57,371,0.9,"stim/42.jpeg",4,2,3,2,"HouseObjects",1,1,"left","left",0.594000101,1,1,1,0,NA,NA,NA,NA,NA,NA,NA,NA,NA,NA,NA,NA,NA,NA,NA,NA,NA,NA,NA,NA,NA,NA,NA,NA
"445","stim/objects/Instruments/drums.png",379,57,372,0.7,"stim/12.jpeg",1,2,2,2,"Instruments",2,4,"right","left",0.815999985,0,0,1,0,NA,NA,NA,NA,NA,NA,NA,NA,NA,NA,NA,NA,NA,NA,NA,NA,NA,NA,NA,NA,NA,NA,NA,NA
"427","stim/objects/Instruments/chime.png",380,57,373,0.5,"stim/61.jpeg",6,1,1,2,"Instruments",2,3,"right","right",0.607999802,1,1,1,0,NA,NA,NA,NA,NA,NA,NA,NA,NA,NA,NA,NA,NA,NA,NA,NA,NA,NA,NA,NA,NA,NA,NA,NA
"391","stim/objects/HouseObjects/sponge2.png",381,57,374,0.9,"stim/43.jpeg",4,3,3,1,"HouseObjects",1,4,"left","left",0.555999994,1,1,1,0,124,57,1,0.9,1,"stim/43.jpeg",4,3,"stim/43.jpeg",4,"left",3.258000135,3,2,2.366000175,2,1.453999996,124,1,0,0,0,0,0
"483","stim/objects/Instruments/flutetrans.png",382,57,375,0.9,"stim/32.jpeg",3,2,3,2,"Instruments",2,1,"right","right",0.465000153,1,1,1,0,NA,NA,NA,NA,NA,NA,NA,NA,NA,NA,NA,NA,NA,NA,NA,NA,NA,NA,NA,NA,NA,NA,NA,NA
"332","stim/objects/HouseObjects/flyswatter.png",383,57,376,0.9,"stim/44.jpeg",4,4,3,2,"HouseObjects",1,2,"left","",NA,0,0,1,0,NA,NA,NA,NA,NA,NA,NA,NA,NA,NA,NA,NA,NA,NA,NA,NA,NA,NA,NA,NA,NA,NA,NA,NA
"524","stim/objects/Instruments/grandpiano.png",384,57,377,0.9,"stim/31.jpeg",3,1,3,2,"Instruments",2,3,"right","right",0.502000093,1,1,1,0,NA,NA,NA,NA,NA,NA,NA,NA,NA,NA,NA,NA,NA,NA,NA,NA,NA,NA,NA,NA,NA,NA,NA,NA
"318","stim/objects/HouseObjects/dustpan.png",385,57,378,0.9,"stim/44.jpeg",4,4,3,2,"HouseObjects",1,3,"left","left",0.559000015,1,1,1,0,NA,NA,NA,NA,NA,NA,NA,NA,NA,NA,NA,NA,NA,NA,NA,NA,NA,NA,NA,NA,NA,NA,NA,NA
"542","stim/objects/Instruments/guitarcase2.png",386,57,379,0.9,"stim/34.jpeg",3,4,3,1,"Instruments",2,4,"right","right",0.585000038,1,1,1,0,192,57,1,0.9,2,"stim/34.jpeg",3,4,"stim/34.jpeg",4,"right",0.922999859,1,2,1.694000006,2,1.496000051,192,0,0,NA,0,NA,0
"307","stim/objects/HouseObjects/doormat2.png",387,57,380,0.1,"stim/31.jpeg",3,1,3,1,"HouseObjects",1,1,"left","right",0.501999855,0,0,1,0,30,57,1,0.1,1,"stim/31.jpeg",3,1,"stim/31.jpeg",1,"right",0.913000107,2,4,1.778000116,3,0.93900013,30,0,0,NA,0,NA,0
"276","stim/objects/HouseObjects/clothespin.png",388,57,381,0.7,"stim/24.jpeg",2,4,2,2,"HouseObjects",1,3,"left","right",0.6650002,0,0,1,0,NA,NA,NA,NA,NA,NA,NA,NA,NA,NA,NA,NA,NA,NA,NA,NA,NA,NA,NA,NA,NA,NA,NA,NA
"408","stim/objects/Instruments/accordion2.png",389,57,382,0.7,"stim/13.jpeg",1,3,2,1,"Instruments",2,2,"right","right",0.670000076,1,1,1,0,45,57,1,0.7,2,"stim/13.jpeg",1,3,"stim/13.jpeg",2,"left",0.921000004,3,4,1.884000063,2,1.263999939,45,1,0,0,1,1,0
"270","stim/objects/HouseObjects/clock2.png",390,57,383,0.7,"stim/24.jpeg",2,4,2,1,"HouseObjects",1,3,"left","left",0.625,1,1,1,0,114,57,1,0.7,1,"stim/24.jpeg",2,4,"stim/24.jpeg",3,"left",1.849999905,2,1,1.444999933,4,1.092000008,114,1,0,0,0,0,0
"347","stim/objects/HouseObjects/garbagebin.png",391,57,384,0.9,"stim/44.jpeg",4,4,3,2,"HouseObjects",1,3,"left","left",0.637000084,1,1,1,0,NA,NA,NA,NA,NA,NA,NA,NA,NA,NA,NA,NA,NA,NA,NA,NA,NA,NA,NA,NA,NA,NA,NA,NA
"466","stim/objects/Instruments/flute.png",392,57,385,0.9,"stim/33.jpeg",3,3,3,2,"Instruments",2,1,"right","right",0.424999952,1,1,1,0,NA,NA,NA,NA,NA,NA,NA,NA,NA,NA,NA,NA,NA,NA,NA,NA,NA,NA,NA,NA,NA,NA,NA,NA
"552","stim/objects/Instruments/speaker2.png",393,57,386,0.1,"stim/43.jpeg",4,3,3,1,"Instruments",2,1,"right","left",0.504999876,0,0,1,0,182,57,1,0.1,2,"stim/43.jpeg",4,3,"stim/43.jpeg",1,"right",0.713999987,2,2,1.016000032,3,1.566999912,182,0,0,NA,0,NA,0
"561","stim/objects/Instruments/trumpet.png",394,57,387,0.7,"stim/12.jpeg",1,2,2,1,"Instruments",2,4,"right","left",0.617999792,0,0,1,0,71,57,1,0.7,2,"stim/12.jpeg",1,2,"stim/12.jpeg",4,"right",0.833999872,2,1,1.15500021,3,1.750999928,71,0,0,NA,0,NA,0
"395","stim/objects/HouseObjects/teapot2.png",395,57,388,0.9,"stim/41.jpeg",4,1,3,1,"HouseObjects",1,4,"left","left",0.569000006,1,1,1,0,129,57,1,0.9,1,"stim/41.jpeg",4,1,"stim/41.jpeg",4,"left",1.873999834,3,4,1.282999992,3,2.743000031,129,1,0,0,0,0,0
"262","stim/objects/HouseObjects/broom.png",396,57,389,0.5,"stim/61.jpeg",6,1,1,2,"HouseObjects",1,3,"left","right",0.493000031,0,0,1,0,NA,NA,NA,NA,NA,NA,NA,NA,NA,NA,NA,NA,NA,NA,NA,NA,NA,NA,NA,NA,NA,NA,NA,NA
"501","stim/objects/Instruments/frenchhorn.png",397,57,390,0.9,"stim/32.jpeg",3,2,3,2,"Instruments",2,4,"right","right",0.593999863,1,1,1,0,NA,NA,NA,NA,NA,NA,NA,NA,NA,NA,NA,NA,NA,NA,NA,NA,NA,NA,NA,NA,NA,NA,NA,NA
"485","stim/objects/Instruments/flutetrans.png",398,57,391,0.9,"stim/31.jpeg",3,1,3,2,"Instruments",2,4,"right","right",0.470999956,1,1,1,0,NA,NA,NA,NA,NA,NA,NA,NA,NA,NA,NA,NA,NA,NA,NA,NA,NA,NA,NA,NA,NA,NA,NA,NA
"486","stim/objects/Instruments/flutetrans.png",399,57,392,0.9,"stim/32.jpeg",3,2,3,2,"Instruments",2,1,"right","right",0.487999916,1,1,1,0,NA,NA,NA,NA,NA,NA,NA,NA,NA,NA,NA,NA,NA,NA,NA,NA,NA,NA,NA,NA,NA,NA,NA,NA
"352","stim/objects/HouseObjects/garbagebin.png",400,57,393,0.9,"stim/43.jpeg",4,3,3,2,"HouseObjects",1,3,"left","left",0.532999992,1,1,1,0,NA,NA,NA,NA,NA,NA,NA,NA,NA,NA,NA,NA,NA,NA,NA,NA,NA,NA,NA,NA,NA,NA,NA,NA
"410","stim/objects/Instruments/acousticguitar.png",401,57,394,0.5,"stim/51.jpeg",5,1,1,2,"Instruments",2,3,"right","right",0.698999882,1,1,1,0,NA,NA,NA,NA,NA,NA,NA,NA,NA,NA,NA,NA,NA,NA,NA,NA,NA,NA,NA,NA,NA,NA,NA,NA
"433","stim/objects/Instruments/cornet.png",402,57,395,0.5,"stim/63.jpeg",6,3,1,2,"Instruments",2,1,"right","left",0.598999977,0,0,1,0,NA,NA,NA,NA,NA,NA,NA,NA,NA,NA,NA,NA,NA,NA,NA,NA,NA,NA,NA,NA,NA,NA,NA,NA
"551","stim/objects/Instruments/speaker.png",403,57,396,0.5,"stim/64.jpeg",6,4,1,1,"Instruments",2,1,"right","left",0.796000004,0,0,1,0,99,57,1,0.5,2,"stim/64.jpeg",6,4,"stim/64.jpeg",1,"right",0.760999918,2,3,1.253999949,3,1.380999804,99,0,0,NA,0,NA,0
"293","stim/objects/HouseObjects/doormat.png",404,57,397,0.9,"stim/43.jpeg",4,3,3,2,"HouseObjects",1,1,"left","left",0.50999999,1,1,1,0,NA,NA,NA,NA,NA,NA,NA,NA,NA,NA,NA,NA,NA,NA,NA,NA,NA,NA,NA,NA,NA,NA,NA,NA
"455","stim/objects/Instruments/electricguitar2.png",405,57,398,0.3,"stim/23.jpeg",2,3,2,1,"Instruments",2,1,"right","right",0.680999994,1,1,1,0,25,57,1,0.3,2,"stim/23.jpeg",2,3,"stim/23.jpeg",1,"right",0.936000109,3,1,2,3,1.643000126,25,0,0,NA,0,NA,0
"383","stim/objects/HouseObjects/handvacuum2.png",406,57,399,0.1,"stim/31.jpeg",3,1,3,1,"HouseObjects",1,2,"left","right",0.64199996,0,0,1,0,31,57,1,0.1,1,"stim/31.jpeg",3,1,"stim/31.jpeg",2,"right",1.101000071,2,1,1.985000134,3,0.750999928,31,0,1,NA,0,NA,0
"300","stim/objects/HouseObjects/doormat.png",407,57,400,0.9,"stim/44.jpeg",4,4,3,2,"HouseObjects",1,4,"left","left",0.601000071,1,1,1,0,NA,NA,NA,NA,NA,NA,NA,NA,NA,NA,NA,NA,NA,NA,NA,NA,NA,NA,NA,NA,NA,NA,NA,NA
"301","stim/objects/HouseObjects/doormat.png",408,57,401,0.9,"stim/41.jpeg",4,1,3,2,"HouseObjects",1,4,"left","left",0.552000046,1,1,1,0,NA,NA,NA,NA,NA,NA,NA,NA,NA,NA,NA,NA,NA,NA,NA,NA,NA,NA,NA,NA,NA,NA,NA,NA
"257","stim/objects/HouseObjects/blender.png",409,57,402,0.5,"stim/63.jpeg",6,3,1,2,"HouseObjects",1,4,"left","left",0.677999973,1,1,1,0,NA,NA,NA,NA,NA,NA,NA,NA,NA,NA,NA,NA,NA,NA,NA,NA,NA,NA,NA,NA,NA,NA,NA,NA
"534","stim/objects/Instruments/grandpiano.png",410,57,403,0.9,"stim/33.jpeg",3,3,3,2,"Instruments",2,4,"right","right",0.611000061,1,1,1,0,NA,NA,NA,NA,NA,NA,NA,NA,NA,NA,NA,NA,NA,NA,NA,NA,NA,NA,NA,NA,NA,NA,NA,NA
"309","stim/objects/HouseObjects/dustpan.png",411,57,404,0.9,"stim/43.jpeg",4,3,3,2,"HouseObjects",1,4,"left","left",0.691999912,1,1,1,0,NA,NA,NA,NA,NA,NA,NA,NA,NA,NA,NA,NA,NA,NA,NA,NA,NA,NA,NA,NA,NA,NA,NA,NA
"268","stim/objects/HouseObjects/clock.png",412,57,405,0.5,"stim/64.jpeg",6,4,1,2,"HouseObjects",1,1,"left","right",0.520999908,0,0,1,0,NA,NA,NA,NA,NA,NA,NA,NA,NA,NA,NA,NA,NA,NA,NA,NA,NA,NA,NA,NA,NA,NA,NA,NA
"394","stim/objects/HouseObjects/teapot.png",413,57,406,0.5,"stim/61.jpeg",6,1,1,1,"HouseObjects",1,1,"left","left",0.915999889,1,1,1,0,146,57,1,0.5,2,"stim/61.jpeg",6,1,"stim/61.jpeg",1,"right",0.723999977,4,3,1.313999891,4,0.954999924,146,0,0,NA,0,NA,0
"495","stim/objects/Instruments/frenchhorn.png",414,57,407,0.9,"stim/34.jpeg",3,4,3,2,"Instruments",2,2,"right","right",0.687000036,1,1,1,0,NA,NA,NA,NA,NA,NA,NA,NA,NA,NA,NA,NA,NA,NA,NA,NA,NA,NA,NA,NA,NA,NA,NA,NA
"302","stim/objects/HouseObjects/doormat.png",415,57,408,0.9,"stim/44.jpeg",4,4,3,2,"HouseObjects",1,2,"left","left",0.825999975,1,1,1,0,NA,NA,NA,NA,NA,NA,NA,NA,NA,NA,NA,NA,NA,NA,NA,NA,NA,NA,NA,NA,NA,NA,NA,NA
"398","stim/objects/HouseObjects/thread.png",416,57,409,0.3,"stim/12.jpeg",1,2,2,1,"HouseObjects",1,3,"left","left",0.755000114,1,1,1,0,175,57,1,0.3,1,"stim/12.jpeg",1,2,"stim/12.jpeg",3,"right",0.659999847,3,1,1.688000202,2,2.789000034,175,0,0,NA,0,NA,0
"387","stim/objects/HouseObjects/saw2.png",417,57,410,0.9,"stim/41.jpeg",4,1,3,1,"HouseObjects",1,3,"left","left",0.552000046,1,1,1,0,180,57,1,0.9,1,"stim/41.jpeg",4,1,"stim/41.jpeg",3,"right",0.674999952,4,4,2.024999857,3,1.849999905,180,0,0,NA,1,NA,0
"303","stim/objects/HouseObjects/doormat.png",418,57,411,0.9,"stim/43.jpeg",4,3,3,2,"HouseObjects",1,4,"left","left",0.578000069,1,1,1,0,NA,NA,NA,NA,NA,NA,NA,NA,NA,NA,NA,NA,NA,NA,NA,NA,NA,NA,NA,NA,NA,NA,NA,NA
"439","stim/objects/Instruments/cymbal2.png",419,57,412,0.3,"stim/23.jpeg",2,3,2,1,"Instruments",2,4,"right","right",0.743000031,1,1,1,0,34,57,1,0.3,2,"stim/23.jpeg",2,3,"stim/23.jpeg",4,"right",0.955000162,1,4,1.142999887,3,1.868999958,34,0,0,NA,0,NA,0
"506","stim/objects/Instruments/frenchhorn2.png",420,57,413,0.9,"stim/31.jpeg",3,1,3,1,"Instruments",2,1,"right","right",0.529999971,1,1,1,0,33,57,1,0.9,2,"stim/31.jpeg",3,1,"stim/31.jpeg",1,"left",1.123000145,2,3,1.744999886,3,1.450999975,33,1,0,0,0,0,0
"351","stim/objects/HouseObjects/garbagebin.png",421,57,414,0.9,"stim/43.jpeg",4,3,3,2,"HouseObjects",1,2,"left","left",0.500999928,1,1,1,0,NA,NA,NA,NA,NA,NA,NA,NA,NA,NA,NA,NA,NA,NA,NA,NA,NA,NA,NA,NA,NA,NA,NA,NA
"434","stim/objects/Instruments/cornet.png",422,57,415,0.5,"stim/62.jpeg",6,2,1,2,"Instruments",2,2,"right","right",0.799000025,1,1,1,0,NA,NA,NA,NA,NA,NA,NA,NA,NA,NA,NA,NA,NA,NA,NA,NA,NA,NA,NA,NA,NA,NA,NA,NA
"353","stim/objects/HouseObjects/garbagebin.png",423,57,416,0.9,"stim/43.jpeg",4,3,3,2,"HouseObjects",1,3,"left","left",0.623000145,1,1,1,0,NA,NA,NA,NA,NA,NA,NA,NA,NA,NA,NA,NA,NA,NA,NA,NA,NA,NA,NA,NA,NA,NA,NA,NA
"260","stim/objects/HouseObjects/bottle.png",424,57,417,0.5,"stim/61.jpeg",6,1,1,2,"HouseObjects",1,2,"left","left",0.701999903,1,1,1,0,NA,NA,NA,NA,NA,NA,NA,NA,NA,NA,NA,NA,NA,NA,NA,NA,NA,NA,NA,NA,NA,NA,NA,NA
"560","stim/objects/Instruments/trombone2.png",425,57,418,0.1,"stim/43.jpeg",4,3,3,1,"Instruments",2,4,"right","left",0.521000147,0,0,1,0,142,57,1,0.1,2,"stim/43.jpeg",4,3,"stim/43.jpeg",4,"right",1.057999849,2,3,1.355000019,2,1.42200017,142,0,1,NA,0,NA,0
"535","stim/objects/Instruments/grandpiano.png",426,57,419,0.9,"stim/34.jpeg",3,4,3,2,"Instruments",2,1,"right","right",0.736000061,1,1,1,0,NA,NA,NA,NA,NA,NA,NA,NA,NA,NA,NA,NA,NA,NA,NA,NA,NA,NA,NA,NA,NA,NA,NA,NA
"563","stim/objects/Instruments/tuba.png",427,57,420,0.7,"stim/13.jpeg",1,3,2,1,"Instruments",2,3,"right","right",0.772000074,1,1,1,0,41,57,1,0.7,2,"stim/13.jpeg",1,3,"stim/13.jpeg",3,"left",0.705000162,3,1,1.208999872,4,2.342000008,41,1,0,0,0,0,0
"254","stim/objects/HouseObjects/bleachbottle.png",428,57,421,0.5,"stim/52.jpeg",5,2,1,2,"HouseObjects",1,1,"left","right",0.872999907,0,0,1,0,NA,NA,NA,NA,NA,NA,NA,NA,NA,NA,NA,NA,NA,NA,NA,NA,NA,NA,NA,NA,NA,NA,NA,NA
"548","stim/objects/Instruments/hihat2.png",429,57,422,0.9,"stim/33.jpeg",3,3,3,1,"Instruments",2,3,"right","right",0.509000063,1,1,1,0,165,57,1,0.9,2,"stim/33.jpeg",3,3,"stim/33.jpeg",3,"left",0.779000044,3,2,2.18599987,2,2.106000185,165,1,0,0,0,0,0
"536","stim/objects/Instruments/grandpiano.png",430,57,423,0.9,"stim/32.jpeg",3,2,3,2,"Instruments",2,2,"right","right",0.491999865,1,1,1,0,NA,NA,NA,NA,NA,NA,NA,NA,NA,NA,NA,NA,NA,NA,NA,NA,NA,NA,NA,NA,NA,NA,NA,NA
"344","stim/objects/HouseObjects/garbagebin.png",431,57,424,0.9,"stim/41.jpeg",4,1,3,2,"HouseObjects",1,4,"left","left",0.51699996,1,1,1,0,NA,NA,NA,NA,NA,NA,NA,NA,NA,NA,NA,NA,NA,NA,NA,NA,NA,NA,NA,NA,NA,NA,NA,NA
"355","stim/objects/HouseObjects/garbagebin.png",432,57,425,0.9,"stim/41.jpeg",4,1,3,2,"HouseObjects",1,2,"left","left",0.65199995,1,1,1,0,NA,NA,NA,NA,NA,NA,NA,NA,NA,NA,NA,NA,NA,NA,NA,NA,NA,NA,NA,NA,NA,NA,NA,NA
"484","stim/objects/Instruments/flutetrans.png",433,57,426,0.9,"stim/32.jpeg",3,2,3,2,"Instruments",2,1,"right","right",0.77699995,1,1,1,0,NA,NA,NA,NA,NA,NA,NA,NA,NA,NA,NA,NA,NA,NA,NA,NA,NA,NA,NA,NA,NA,NA,NA,NA
"345","stim/objects/HouseObjects/garbagebin.png",434,57,427,0.9,"stim/44.jpeg",4,4,3,2,"HouseObjects",1,3,"left","left",0.536999941,1,1,1,0,NA,NA,NA,NA,NA,NA,NA,NA,NA,NA,NA,NA,NA,NA,NA,NA,NA,NA,NA,NA,NA,NA,NA,NA
"243","stim/objects/HouseObjects/ashtray2.png",435,57,428,0.3,"stim/12.jpeg",1,2,2,1,"HouseObjects",1,2,"left","right",0.575000048,0,0,1,0,60,57,1,0.3,1,"stim/12.jpeg",1,2,"stim/12.jpeg",2,"right",0.812000036,2,3,0.769000053,4,0.684000015,60,0,0,NA,0,NA,0
"428","stim/objects/Instruments/chime.png",436,57,429,0.5,"stim/64.jpeg",6,4,1,2,"Instruments",2,1,"right","right",0.657000065,1,1,1,0,NA,NA,NA,NA,NA,NA,NA,NA,NA,NA,NA,NA,NA,NA,NA,NA,NA,NA,NA,NA,NA,NA,NA,NA
"277","stim/objects/HouseObjects/clothespin.png",437,57,430,0.7,"stim/23.jpeg",2,3,2,2,"HouseObjects",1,2,"left","left",0.570999861,1,1,1,0,NA,NA,NA,NA,NA,NA,NA,NA,NA,NA,NA,NA,NA,NA,NA,NA,NA,NA,NA,NA,NA,NA,NA,NA
"538","stim/objects/Instruments/grandpiano.png",438,57,431,0.9,"stim/31.jpeg",3,1,3,2,"Instruments",2,2,"right","right",0.526000023,1,1,1,0,NA,NA,NA,NA,NA,NA,NA,NA,NA,NA,NA,NA,NA,NA,NA,NA,NA,NA,NA,NA,NA,NA,NA,NA
"545","stim/objects/Instruments/harp.png",439,57,432,0.5,"stim/54.jpeg",5,4,1,1,"Instruments",2,4,"right","right",0.80099988,1,1,1,0,144,57,1,0.5,1,"stim/54.jpeg",5,4,"stim/54.jpeg",4,"right",0.825999975,2,3,1.328000069,3,2.437000036,144,0,0,NA,0,NA,0
"447","stim/objects/Instruments/drums2.png",440,57,433,0.3,"stim/21.jpeg",2,1,2,1,"Instruments",2,3,"right","left",0.638000011,0,0,1,0,176,57,1,0.3,2,"stim/21.jpeg",2,1,"stim/21.jpeg",3,"right",0.90199995,2,2,1.487000227,1,1.523999929,176,0,0,NA,0,NA,0
"377","stim/objects/HouseObjects/glassmop2.png",441,57,434,0.1,"stim/32.jpeg",3,2,3,1,"HouseObjects",1,3,"left","right",0.55099988,0,0,1,0,138,57,1,0.1,1,"stim/32.jpeg",3,2,"stim/32.jpeg",3,"right",1.636999846,4,3,1.000999928,3,1.542999983,138,0,0,NA,1,NA,0
"419","stim/objects/Instruments/bassdrum.png",442,57,435,0.5,"stim/51.jpeg",5,1,1,2,"Instruments",2,3,"right","right",0.81099987,1,1,1,0,NA,NA,NA,NA,NA,NA,NA,NA,NA,NA,NA,NA,NA,NA,NA,NA,NA,NA,NA,NA,NA,NA,NA,NA
"502","stim/objects/Instruments/frenchhorn.png",443,57,436,0.9,"stim/32.jpeg",3,2,3,2,"Instruments",2,1,"right","",NA,0,0,1,0,NA,NA,NA,NA,NA,NA,NA,NA,NA,NA,NA,NA,NA,NA,NA,NA,NA,NA,NA,NA,NA,NA,NA,NA
"435","stim/objects/Instruments/cornet2.png",444,57,437,0.3,"stim/22.jpeg",2,2,2,1,"Instruments",2,4,"right","right",0.648999929,1,1,1,0,63,57,1,0.3,2,"stim/22.jpeg",2,2,"stim/22.jpeg",4,"left",0.960000038,3,2,1.399000168,3,2.032000065,63,1,1,1,0,0,0
"489","stim/objects/Instruments/flutetrans2.png",445,57,438,0.9,"stim/34.jpeg",3,4,3,1,"Instruments",2,4,"right","right",0.509000063,1,1,1,0,18,57,1,0.9,2,"stim/34.jpeg",3,4,"stim/34.jpeg",4,"left",1.243000031,3,3,1.80700016,4,0.674000025,18,1,0,0,1,1,0
"346","stim/objects/HouseObjects/garbagebin.png",446,57,439,0.9,"stim/42.jpeg",4,2,3,2,"HouseObjects",1,3,"left","left",0.56099987,1,1,1,0,NA,NA,NA,NA,NA,NA,NA,NA,NA,NA,NA,NA,NA,NA,NA,NA,NA,NA,NA,NA,NA,NA,NA,NA
"519","stim/objects/Instruments/gong.png",447,57,440,0.9,"stim/33.jpeg",3,3,3,2,"Instruments",2,2,"right","right",0.450000048,1,1,1,0,NA,NA,NA,NA,NA,NA,NA,NA,NA,NA,NA,NA,NA,NA,NA,NA,NA,NA,NA,NA,NA,NA,NA,NA
"411","stim/objects/Instruments/acousticguitar2.png",448,57,441,0.7,"stim/14.jpeg",1,4,2,1,"Instruments",2,4,"right","right",0.681999922,1,1,1,0,112,57,1,0.7,2,"stim/14.jpeg",1,4,"stim/14.jpeg",4,"right",0.603999853,3,3,0.947999954,4,1.871000051,112,0,0,NA,1,NA,0
"449","stim/objects/Instruments/electricdrumset.png",449,57,442,0.7,"stim/12.jpeg",1,2,2,2,"Instruments",2,1,"right","right",0.5849998,1,1,1,0,NA,NA,NA,NA,NA,NA,NA,NA,NA,NA,NA,NA,NA,NA,NA,NA,NA,NA,NA,NA,NA,NA,NA,NA
"480","stim/objects/Instruments/flutetrans.png",450,57,443,0.9,"stim/34.jpeg",3,4,3,2,"Instruments",2,4,"right","right",0.487999916,1,1,1,0,NA,NA,NA,NA,NA,NA,NA,NA,NA,NA,NA,NA,NA,NA,NA,NA,NA,NA,NA,NA,NA,NA,NA,NA
"366","stim/objects/HouseObjects/glass.png",451,57,444,0.9,"stim/44.jpeg",4,4,3,2,"HouseObjects",1,4,"left","left",0.546000004,1,1,1,0,NA,NA,NA,NA,NA,NA,NA,NA,NA,NA,NA,NA,NA,NA,NA,NA,NA,NA,NA,NA,NA,NA,NA,NA
"269","stim/objects/HouseObjects/clock.png",452,57,445,0.5,"stim/63.jpeg",6,3,1,2,"HouseObjects",1,4,"left","right",0.54700017,0,0,1,0,NA,NA,NA,NA,NA,NA,NA,NA,NA,NA,NA,NA,NA,NA,NA,NA,NA,NA,NA,NA,NA,NA,NA,NA
"321","stim/objects/HouseObjects/dustpan.png",453,57,446,0.9,"stim/43.jpeg",4,3,3,2,"HouseObjects",1,4,"left","left",0.54399991,1,1,1,0,NA,NA,NA,NA,NA,NA,NA,NA,NA,NA,NA,NA,NA,NA,NA,NA,NA,NA,NA,NA,NA,NA,NA,NA
"313","stim/objects/HouseObjects/dustpan.png",454,57,447,0.9,"stim/43.jpeg",4,3,3,2,"HouseObjects",1,2,"left","left",0.517999887,1,1,1,0,NA,NA,NA,NA,NA,NA,NA,NA,NA,NA,NA,NA,NA,NA,NA,NA,NA,NA,NA,NA,NA,NA,NA,NA
"392","stim/objects/HouseObjects/spraybottle.png",455,57,448,0.5,"stim/64.jpeg",6,4,1,1,"HouseObjects",1,3,"left","right",0.463000059,0,0,1,0,19,57,1,0.5,2,"stim/64.jpeg",6,4,"stim/64.jpeg",3,"right",0.967000008,2,3,2.118000031,3,1.269999981,19,0,0,NA,1,NA,0
"454","stim/objects/Instruments/electricguitar.png",456,57,449,0.7,"stim/11.jpeg",1,1,2,2,"Instruments",2,2,"right","right",0.575999975,1,1,1,0,NA,NA,NA,NA,NA,NA,NA,NA,NA,NA,NA,NA,NA,NA,NA,NA,NA,NA,NA,NA,NA,NA,NA,NA
"250","stim/objects/HouseObjects/basket.png",457,57,450,0.5,"stim/51.jpeg",5,1,1,2,"HouseObjects",1,1,"left","right",0.711999893,0,0,1,0,NA,NA,NA,NA,NA,NA,NA,NA,NA,NA,NA,NA,NA,NA,NA,NA,NA,NA,NA,NA,NA,NA,NA,NA
"314","stim/objects/HouseObjects/dustpan.png",458,57,451,0.9,"stim/42.jpeg",4,2,3,2,"HouseObjects",1,4,"left","left",0.710000038,1,1,1,0,NA,NA,NA,NA,NA,NA,NA,NA,NA,NA,NA,NA,NA,NA,NA,NA,NA,NA,NA,NA,NA,NA,NA,NA
"448","stim/objects/Instruments/electricdrumset.png",459,57,452,0.7,"stim/13.jpeg",1,3,2,2,"Instruments",2,4,"right","right",0.86500001,1,1,1,0,NA,NA,NA,NA,NA,NA,NA,NA,NA,NA,NA,NA,NA,NA,NA,NA,NA,NA,NA,NA,NA,NA,NA,NA
"424","stim/objects/Instruments/cello.png",460,57,453,0.5,"stim/63.jpeg",6,3,1,2,"Instruments",2,1,"right","left",0.743000031,0,0,1,0,NA,NA,NA,NA,NA,NA,NA,NA,NA,NA,NA,NA,NA,NA,NA,NA,NA,NA,NA,NA,NA,NA,NA,NA
"380","stim/objects/HouseObjects/handbrush.png",461,57,454,0.5,"stim/51.jpeg",5,1,1,1,"HouseObjects",1,1,"left","right",0.674000025,0,0,1,0,105,57,1,0.5,1,"stim/51.jpeg",5,1,"stim/51.jpeg",1,"right",0.713999987,2,1,1.127999783,4,1.204999924,105,0,1,NA,0,NA,0
"504","stim/objects/Instruments/frenchhorn.png",462,57,455,0.9,"stim/32.jpeg",3,2,3,2,"Instruments",2,2,"right","right",0.534999847,1,1,1,0,NA,NA,NA,NA,NA,NA,NA,NA,NA,NA,NA,NA,NA,NA,NA,NA,NA,NA,NA,NA,NA,NA,NA,NA
"338","stim/objects/HouseObjects/flyswatter.png",463,57,456,0.9,"stim/44.jpeg",4,4,3,2,"HouseObjects",1,3,"left","left",0.56099987,1,1,1,0,NA,NA,NA,NA,NA,NA,NA,NA,NA,NA,NA,NA,NA,NA,NA,NA,NA,NA,NA,NA,NA,NA,NA,NA
"437","stim/objects/Instruments/cymbal.png",464,57,457,0.7,"stim/11.jpeg",1,1,2,2,"Instruments",2,4,"right","right",0.691999912,1,1,1,0,NA,NA,NA,NA,NA,NA,NA,NA,NA,NA,NA,NA,NA,NA,NA,NA,NA,NA,NA,NA,NA,NA,NA,NA
"316","stim/objects/HouseObjects/dustpan.png",465,57,458,0.9,"stim/42.jpeg",4,2,3,2,"HouseObjects",1,1,"left","left",0.494000196,1,1,1,0,NA,NA,NA,NA,NA,NA,NA,NA,NA,NA,NA,NA,NA,NA,NA,NA,NA,NA,NA,NA,NA,NA,NA,NA
"354","stim/objects/HouseObjects/garbagebin.png",466,57,459,0.9,"stim/42.jpeg",4,2,3,2,"HouseObjects",1,2,"left","left",0.479000092,1,1,1,0,NA,NA,NA,NA,NA,NA,NA,NA,NA,NA,NA,NA,NA,NA,NA,NA,NA,NA,NA,NA,NA,NA,NA,NA
"537","stim/objects/Instruments/grandpiano.png",467,57,460,0.9,"stim/34.jpeg",3,4,3,2,"Instruments",2,1,"right","right",0.55700016,1,1,1,0,NA,NA,NA,NA,NA,NA,NA,NA,NA,NA,NA,NA,NA,NA,NA,NA,NA,NA,NA,NA,NA,NA,NA,NA
