"","obj_file","X.x","participant.x","trialN.x","trial_cond","scn_file.x","scn_cat","scn_inst","scn_condition","fillers","obj_cat","obj_cat_num","quadrant","corr_ans","key_resp_trial.keys","key_resp_trial.rt","trial_acc","trial_acc_manual","group.x","practice","X.y","participant.y","OvsN","PE_level","object_cat","scn_file.y","corr_scn_cat","corr_scn_inst","scn_file.1","corr_loc","key_resp_id.keys","key_resp_id.rt","key_resp_conf.keys","key_resp_assoc.keys","key_resp_assoc.rt","key_resp_loc.keys","key_resp_loc.rt","trialN.y","id_acc","assoc.acc","cond_assoc","loc.acc","cond_loc","group.y"
"232","stim/objects/Instruments/hihat2.png",1,76,1,0.9,"stim/24.jpeg",2,4,3,NA,"Instruments",1,4,"left","left",0.84499979,1,1,0,1,NA,NA,NA,NA,NA,NA,NA,NA,NA,NA,NA,NA,NA,NA,NA,NA,NA,NA,NA,NA,NA,NA,NA,NA
"14","stim/objects/HouseObjects/cushion2.png",2,76,2,0.3,"stim/62.jpeg",6,2,2,NA,"HouseObjects",2,2,"right","",NA,0,0,0,1,NA,NA,NA,NA,NA,NA,NA,NA,NA,NA,NA,NA,NA,NA,NA,NA,NA,NA,NA,NA,NA,NA,NA,NA
"17","stim/objects/HouseObjects/dishsoap.png",3,76,3,0.5,"stim/33.jpeg",3,3,1,NA,"HouseObjects",2,3,"right","right",0.840999842,1,1,0,1,NA,NA,NA,NA,NA,NA,NA,NA,NA,NA,NA,NA,NA,NA,NA,NA,NA,NA,NA,NA,NA,NA,NA,NA
"162","stim/objects/Instruments/flute2.png",4,76,4,0.7,"stim/64.jpeg",6,4,2,NA,"Instruments",1,1,"left","",NA,0,0,0,1,NA,NA,NA,NA,NA,NA,NA,NA,NA,NA,NA,NA,NA,NA,NA,NA,NA,NA,NA,NA,NA,NA,NA,NA
"22","stim/objects/HouseObjects/dishsoap2.png",5,76,5,0.3,"stim/63.jpeg",6,3,2,NA,"HouseObjects",2,4,"right","left",0.701999903,0,0,0,1,NA,NA,NA,NA,NA,NA,NA,NA,NA,NA,NA,NA,NA,NA,NA,NA,NA,NA,NA,NA,NA,NA,NA,NA
"52","stim/objects/HouseObjects/flyswatter2.png",6,76,6,0.9,"stim/12.jpeg",1,2,3,NA,"HouseObjects",2,4,"right","right",0.665999889,1,1,0,1,NA,NA,NA,NA,NA,NA,NA,NA,NA,NA,NA,NA,NA,NA,NA,NA,NA,NA,NA,NA,NA,NA,NA,NA
"66","stim/objects/HouseObjects/garbagebin2.png",7,76,7,0.9,"stim/13.jpeg",1,3,3,NA,"HouseObjects",2,2,"right","right",0.873999834,1,1,0,1,NA,NA,NA,NA,NA,NA,NA,NA,NA,NA,NA,NA,NA,NA,NA,NA,NA,NA,NA,NA,NA,NA,NA,NA
"97","stim/objects/HouseObjects/hairdryer.png",8,76,8,0.7,"stim/52.jpeg",5,2,2,NA,"HouseObjects",2,2,"right","left",0.765999794,0,0,0,1,NA,NA,NA,NA,NA,NA,NA,NA,NA,NA,NA,NA,NA,NA,NA,NA,NA,NA,NA,NA,NA,NA,NA,NA
"169","stim/objects/Instruments/flutetrans.png",9,76,9,0.5,"stim/41.jpeg",4,1,1,NA,"Instruments",1,1,"left","right",0.848999977,0,0,0,1,NA,NA,NA,NA,NA,NA,NA,NA,NA,NA,NA,NA,NA,NA,NA,NA,NA,NA,NA,NA,NA,NA,NA,NA
"33","stim/objects/HouseObjects/dustpan.png",10,76,10,0.5,"stim/41.jpeg",4,1,1,NA,"HouseObjects",2,1,"right","",NA,0,0,0,1,NA,NA,NA,NA,NA,NA,NA,NA,NA,NA,NA,NA,NA,NA,NA,NA,NA,NA,NA,NA,NA,NA,NA,NA
"170","stim/objects/Instruments/flutetrans.png",11,76,11,0.5,"stim/41.jpeg",4,1,1,NA,"Instruments",1,4,"left","right",0.698999882,0,0,0,1,NA,NA,NA,NA,NA,NA,NA,NA,NA,NA,NA,NA,NA,NA,NA,NA,NA,NA,NA,NA,NA,NA,NA,NA
"208","stim/objects/Instruments/harmonica2.png",12,76,12,0.9,"stim/22.jpeg",2,2,3,NA,"Instruments",1,3,"left","left",0.61899972,1,1,0,1,NA,NA,NA,NA,NA,NA,NA,NA,NA,NA,NA,NA,NA,NA,NA,NA,NA,NA,NA,NA,NA,NA,NA,NA
"181","stim/objects/Instruments/gong.png",13,76,13,0.5,"stim/43.jpeg",4,3,1,NA,"Instruments",1,4,"left","left",0.799999952,1,1,0,1,NA,NA,NA,NA,NA,NA,NA,NA,NA,NA,NA,NA,NA,NA,NA,NA,NA,NA,NA,NA,NA,NA,NA,NA
"47","stim/objects/HouseObjects/flyswatter.png",14,76,14,0.5,"stim/42.jpeg",4,2,1,NA,"HouseObjects",2,2,"right","right",0.656999826,1,1,0,1,NA,NA,NA,NA,NA,NA,NA,NA,NA,NA,NA,NA,NA,NA,NA,NA,NA,NA,NA,NA,NA,NA,NA,NA
"105","stim/objects/HouseObjects/handbrush.png",15,76,15,0.7,"stim/53.jpeg",5,3,2,NA,"HouseObjects",2,3,"right","right",0.684999943,1,1,0,1,NA,NA,NA,NA,NA,NA,NA,NA,NA,NA,NA,NA,NA,NA,NA,NA,NA,NA,NA,NA,NA,NA,NA,NA
"38","stim/objects/HouseObjects/dustpan2.png",16,76,16,0.9,"stim/11.jpeg",1,1,3,NA,"HouseObjects",2,4,"right","right",0.819999933,1,1,0,1,NA,NA,NA,NA,NA,NA,NA,NA,NA,NA,NA,NA,NA,NA,NA,NA,NA,NA,NA,NA,NA,NA,NA,NA
"61","stim/objects/HouseObjects/garbagebin.png",17,76,17,0.5,"stim/43.jpeg",4,3,1,NA,"HouseObjects",2,4,"right","left",0.618999958,0,0,0,1,NA,NA,NA,NA,NA,NA,NA,NA,NA,NA,NA,NA,NA,NA,NA,NA,NA,NA,NA,NA,NA,NA,NA,NA
"15","stim/objects/HouseObjects/cushion2.png",18,76,18,0.3,"stim/62.jpeg",6,2,2,NA,"HouseObjects",2,1,"right","right",0.816999912,1,1,0,1,NA,NA,NA,NA,NA,NA,NA,NA,NA,NA,NA,NA,NA,NA,NA,NA,NA,NA,NA,NA,NA,NA,NA,NA
"133","stim/objects/Instruments/electricdrumset.png",19,76,19,0.5,"stim/32.jpeg",3,2,1,NA,"Instruments",1,4,"left","left",0.585000038,1,1,0,1,NA,NA,NA,NA,NA,NA,NA,NA,NA,NA,NA,NA,NA,NA,NA,NA,NA,NA,NA,NA,NA,NA,NA,NA
"53","stim/objects/HouseObjects/flyswatter2.png",20,76,20,0.9,"stim/12.jpeg",1,2,3,NA,"HouseObjects",2,2,"right","right",0.575999975,1,1,0,1,NA,NA,NA,NA,NA,NA,NA,NA,NA,NA,NA,NA,NA,NA,NA,NA,NA,NA,NA,NA,NA,NA,NA,NA
"96","stim/objects/HouseObjects/glassmop2.png",21,76,21,0.1,"stim/21.jpeg",2,1,3,NA,"HouseObjects",2,3,"right","left",0.652999878,0,0,0,1,NA,NA,NA,NA,NA,NA,NA,NA,NA,NA,NA,NA,NA,NA,NA,NA,NA,NA,NA,NA,NA,NA,NA,NA
"217","stim/objects/Instruments/harp.png",22,76,22,0.3,"stim/53.jpeg",5,3,2,NA,"Instruments",1,1,"left","right",0.639999866,0,0,0,1,NA,NA,NA,NA,NA,NA,NA,NA,NA,NA,NA,NA,NA,NA,NA,NA,NA,NA,NA,NA,NA,NA,NA,NA
"98","stim/objects/HouseObjects/hairdryer.png",23,76,23,0.7,"stim/52.jpeg",5,2,2,NA,"HouseObjects",2,3,"right","",NA,0,0,0,1,NA,NA,NA,NA,NA,NA,NA,NA,NA,NA,NA,NA,NA,NA,NA,NA,NA,NA,NA,NA,NA,NA,NA,NA
"220","stim/objects/Instruments/harp2.png",24,76,24,0.9,"stim/23.jpeg",2,3,3,NA,"Instruments",1,4,"left","left",0.549999952,1,1,0,1,NA,NA,NA,NA,NA,NA,NA,NA,NA,NA,NA,NA,NA,NA,NA,NA,NA,NA,NA,NA,NA,NA,NA,NA
"205","stim/objects/Instruments/harmonica.png",25,76,25,0.3,"stim/52.jpeg",5,2,2,NA,"Instruments",1,2,"left","right",0.617999792,0,0,0,1,NA,NA,NA,NA,NA,NA,NA,NA,NA,NA,NA,NA,NA,NA,NA,NA,NA,NA,NA,NA,NA,NA,NA,NA
"138","stim/objects/Instruments/electricdrumset2.png",26,76,26,0.7,"stim/62.jpeg",6,2,2,NA,"Instruments",1,4,"left","left",0.582000017,1,1,0,1,NA,NA,NA,NA,NA,NA,NA,NA,NA,NA,NA,NA,NA,NA,NA,NA,NA,NA,NA,NA,NA,NA,NA,NA
"1","stim/objects/HouseObjects/coffee.png",27,76,27,0.5,"stim/31.jpeg",3,1,1,NA,"HouseObjects",2,2,"right","left",0.746999741,0,0,0,1,NA,NA,NA,NA,NA,NA,NA,NA,NA,NA,NA,NA,NA,NA,NA,NA,NA,NA,NA,NA,NA,NA,NA,NA
"233","stim/objects/Instruments/hihat2.png",28,76,28,0.9,"stim/24.jpeg",2,4,3,NA,"Instruments",1,2,"left","left",0.671999931,1,1,0,1,NA,NA,NA,NA,NA,NA,NA,NA,NA,NA,NA,NA,NA,NA,NA,NA,NA,NA,NA,NA,NA,NA,NA,NA
"16","stim/objects/HouseObjects/cushion2.png",29,76,29,0.3,"stim/62.jpeg",6,2,2,NA,"HouseObjects",2,4,"right","right",0.666000128,1,1,0,1,NA,NA,NA,NA,NA,NA,NA,NA,NA,NA,NA,NA,NA,NA,NA,NA,NA,NA,NA,NA,NA,NA,NA,NA
"9","stim/objects/HouseObjects/cushion.png",30,76,30,0.5,"stim/32.jpeg",3,2,1,NA,"HouseObjects",2,1,"right","right",0.88499999,1,1,0,1,NA,NA,NA,NA,NA,NA,NA,NA,NA,NA,NA,NA,NA,NA,NA,NA,NA,NA,NA,NA,NA,NA,NA,NA
"75","stim/objects/HouseObjects/glass.png",31,76,31,0.5,"stim/44.jpeg",4,4,1,NA,"HouseObjects",2,3,"right","left",0.741999865,0,0,0,1,NA,NA,NA,NA,NA,NA,NA,NA,NA,NA,NA,NA,NA,NA,NA,NA,NA,NA,NA,NA,NA,NA,NA,NA
"80","stim/objects/HouseObjects/glass2.png",32,76,32,0.9,"stim/14.jpeg",1,4,3,NA,"HouseObjects",2,2,"right","right",0.588999987,1,1,0,1,NA,NA,NA,NA,NA,NA,NA,NA,NA,NA,NA,NA,NA,NA,NA,NA,NA,NA,NA,NA,NA,NA,NA,NA
"6","stim/objects/HouseObjects/coffee2.png",33,76,33,0.3,"stim/61.jpeg",6,1,2,NA,"HouseObjects",2,2,"right","left",0.660999775,0,0,0,1,NA,NA,NA,NA,NA,NA,NA,NA,NA,NA,NA,NA,NA,NA,NA,NA,NA,NA,NA,NA,NA,NA,NA,NA
"121","stim/objects/Instruments/drums.png",34,76,34,0.5,"stim/31.jpeg",3,1,1,NA,"Instruments",1,2,"left","right",0.514999866,0,0,0,1,NA,NA,NA,NA,NA,NA,NA,NA,NA,NA,NA,NA,NA,NA,NA,NA,NA,NA,NA,NA,NA,NA,NA,NA
"2","stim/objects/HouseObjects/coffee.png",35,76,35,0.5,"stim/31.jpeg",3,1,1,NA,"HouseObjects",2,4,"right","right",0.684999943,1,1,0,1,NA,NA,NA,NA,NA,NA,NA,NA,NA,NA,NA,NA,NA,NA,NA,NA,NA,NA,NA,NA,NA,NA,NA,NA
"25","stim/objects/HouseObjects/doormat.png",36,76,36,0.5,"stim/34.jpeg",3,4,1,NA,"HouseObjects",2,1,"right","left",0.790999889,0,0,0,1,NA,NA,NA,NA,NA,NA,NA,NA,NA,NA,NA,NA,NA,NA,NA,NA,NA,NA,NA,NA,NA,NA,NA,NA
"196","stim/objects/Instruments/guitarcase2.png",37,76,37,0.9,"stim/21.jpeg",2,1,3,NA,"Instruments",1,1,"left","left",0.743000031,1,1,0,1,NA,NA,NA,NA,NA,NA,NA,NA,NA,NA,NA,NA,NA,NA,NA,NA,NA,NA,NA,NA,NA,NA,NA,NA
"76","stim/objects/HouseObjects/glass.png",38,76,38,0.5,"stim/44.jpeg",4,4,1,NA,"HouseObjects",2,3,"right","right",0.592000008,1,1,0,1,NA,NA,NA,NA,NA,NA,NA,NA,NA,NA,NA,NA,NA,NA,NA,NA,NA,NA,NA,NA,NA,NA,NA,NA
"122","stim/objects/Instruments/drums.png",39,76,39,0.5,"stim/31.jpeg",3,1,1,NA,"Instruments",1,2,"left","left",0.664999723,1,1,0,1,NA,NA,NA,NA,NA,NA,NA,NA,NA,NA,NA,NA,NA,NA,NA,NA,NA,NA,NA,NA,NA,NA,NA,NA
"99","stim/objects/HouseObjects/hairdryer.png",40,76,40,0.7,"stim/52.jpeg",5,2,2,NA,"HouseObjects",2,3,"right","right",0.565999985,1,1,0,1,NA,NA,NA,NA,NA,NA,NA,NA,NA,NA,NA,NA,NA,NA,NA,NA,NA,NA,NA,NA,NA,NA,NA,NA
"187","stim/objects/Instruments/grandpiano.png",41,76,41,0.5,"stim/44.jpeg",4,4,1,NA,"Instruments",1,3,"left","left",0.604999781,1,1,0,1,NA,NA,NA,NA,NA,NA,NA,NA,NA,NA,NA,NA,NA,NA,NA,NA,NA,NA,NA,NA,NA,NA,NA,NA
"197","stim/objects/Instruments/guitarcase2.png",42,76,42,0.9,"stim/21.jpeg",2,1,3,NA,"Instruments",1,2,"left","left",0.618999958,1,1,0,1,NA,NA,NA,NA,NA,NA,NA,NA,NA,NA,NA,NA,NA,NA,NA,NA,NA,NA,NA,NA,NA,NA,NA,NA
"221","stim/objects/Instruments/harp2.png",43,76,43,0.9,"stim/23.jpeg",2,3,3,NA,"Instruments",1,1,"left","left",0.801999807,1,1,0,1,NA,NA,NA,NA,NA,NA,NA,NA,NA,NA,NA,NA,NA,NA,NA,NA,NA,NA,NA,NA,NA,NA,NA,NA
"39","stim/objects/HouseObjects/dustpan2.png",44,76,44,0.9,"stim/11.jpeg",1,1,3,NA,"HouseObjects",2,2,"right","right",0.57799983,1,1,0,1,NA,NA,NA,NA,NA,NA,NA,NA,NA,NA,NA,NA,NA,NA,NA,NA,NA,NA,NA,NA,NA,NA,NA,NA
"54","stim/objects/HouseObjects/flyswatter2.png",45,76,45,0.9,"stim/12.jpeg",1,2,3,NA,"HouseObjects",2,1,"right","right",0.604999781,1,1,0,1,NA,NA,NA,NA,NA,NA,NA,NA,NA,NA,NA,NA,NA,NA,NA,NA,NA,NA,NA,NA,NA,NA,NA,NA
"175","stim/objects/Instruments/frenchhorn.png",46,76,46,0.5,"stim/42.jpeg",4,2,1,NA,"Instruments",1,4,"left","left",0.576999903,1,1,0,1,NA,NA,NA,NA,NA,NA,NA,NA,NA,NA,NA,NA,NA,NA,NA,NA,NA,NA,NA,NA,NA,NA,NA,NA
"123","stim/objects/Instruments/drums.png",47,76,47,0.5,"stim/31.jpeg",3,1,1,NA,"Instruments",1,2,"left","right",0.621999979,0,0,0,1,NA,NA,NA,NA,NA,NA,NA,NA,NA,NA,NA,NA,NA,NA,NA,NA,NA,NA,NA,NA,NA,NA,NA,NA
"113","stim/objects/HouseObjects/handvacuum.png",48,76,48,0.7,"stim/54.jpeg",5,4,2,NA,"HouseObjects",2,1,"right","right",0.645999908,1,1,0,1,NA,NA,NA,NA,NA,NA,NA,NA,NA,NA,NA,NA,NA,NA,NA,NA,NA,NA,NA,NA,NA,NA,NA,NA
"81","stim/objects/HouseObjects/glass2.png",49,76,49,0.9,"stim/14.jpeg",1,4,3,NA,"HouseObjects",2,1,"right","right",0.571999788,1,1,0,1,NA,NA,NA,NA,NA,NA,NA,NA,NA,NA,NA,NA,NA,NA,NA,NA,NA,NA,NA,NA,NA,NA,NA,NA
"182","stim/objects/Instruments/gong.png",50,76,50,0.5,"stim/43.jpeg",4,3,1,NA,"Instruments",1,1,"left","left",0.421000004,1,1,0,1,NA,NA,NA,NA,NA,NA,NA,NA,NA,NA,NA,NA,NA,NA,NA,NA,NA,NA,NA,NA,NA,NA,NA,NA
"134","stim/objects/Instruments/electricdrumset.png",51,76,51,0.5,"stim/32.jpeg",3,2,1,NA,"Instruments",1,4,"left","right",0.529999971,0,0,0,1,NA,NA,NA,NA,NA,NA,NA,NA,NA,NA,NA,NA,NA,NA,NA,NA,NA,NA,NA,NA,NA,NA,NA,NA
"104","stim/objects/HouseObjects/hairdryer2.png",52,76,52,0.1,"stim/22.jpeg",2,2,3,NA,"HouseObjects",2,2,"right","left",0.65899992,0,0,0,1,NA,NA,NA,NA,NA,NA,NA,NA,NA,NA,NA,NA,NA,NA,NA,NA,NA,NA,NA,NA,NA,NA,NA,NA
"10","stim/objects/HouseObjects/cushion.png",53,76,53,0.5,"stim/32.jpeg",3,2,1,NA,"HouseObjects",2,4,"right","right",0.690000057,1,1,0,1,NA,NA,NA,NA,NA,NA,NA,NA,NA,NA,NA,NA,NA,NA,NA,NA,NA,NA,NA,NA,NA,NA,NA,NA
"82","stim/objects/HouseObjects/glass2.png",54,76,54,0.9,"stim/14.jpeg",1,4,3,NA,"HouseObjects",2,4,"right","right",0.544999838,1,1,0,1,NA,NA,NA,NA,NA,NA,NA,NA,NA,NA,NA,NA,NA,NA,NA,NA,NA,NA,NA,NA,NA,NA,NA,NA
"188","stim/objects/Instruments/grandpiano.png",55,76,55,0.5,"stim/44.jpeg",4,4,1,NA,"Instruments",1,3,"left","left",0.703999996,1,1,0,1,NA,NA,NA,NA,NA,NA,NA,NA,NA,NA,NA,NA,NA,NA,NA,NA,NA,NA,NA,NA,NA,NA,NA,NA
"222","stim/objects/Instruments/harp2.png",56,76,56,0.9,"stim/23.jpeg",2,3,3,NA,"Instruments",1,1,"left","left",0.730999947,1,1,0,1,NA,NA,NA,NA,NA,NA,NA,NA,NA,NA,NA,NA,NA,NA,NA,NA,NA,NA,NA,NA,NA,NA,NA,NA
"209","stim/objects/Instruments/harmonica2.png",57,76,57,0.9,"stim/22.jpeg",2,2,3,NA,"Instruments",1,4,"left","left",0.566999912,1,1,0,1,NA,NA,NA,NA,NA,NA,NA,NA,NA,NA,NA,NA,NA,NA,NA,NA,NA,NA,NA,NA,NA,NA,NA,NA
"210","stim/objects/Instruments/harmonica2.png",58,76,58,0.9,"stim/22.jpeg",2,2,3,NA,"Instruments",1,4,"left","left",0.551999807,1,1,0,1,NA,NA,NA,NA,NA,NA,NA,NA,NA,NA,NA,NA,NA,NA,NA,NA,NA,NA,NA,NA,NA,NA,NA,NA
"40","stim/objects/HouseObjects/dustpan2.png",59,76,59,0.9,"stim/11.jpeg",1,1,3,NA,"HouseObjects",2,4,"right","right",0.546999931,1,1,0,1,NA,NA,NA,NA,NA,NA,NA,NA,NA,NA,NA,NA,NA,NA,NA,NA,NA,NA,NA,NA,NA,NA,NA,NA
"30","stim/objects/HouseObjects/doormat2.png",60,76,60,0.3,"stim/64.jpeg",6,4,2,NA,"HouseObjects",2,1,"right","left",0.665999889,0,0,0,1,NA,NA,NA,NA,NA,NA,NA,NA,NA,NA,NA,NA,NA,NA,NA,NA,NA,NA,NA,NA,NA,NA,NA,NA
"135","stim/objects/Instruments/electricdrumset.png",61,76,61,0.5,"stim/32.jpeg",3,2,1,NA,"Instruments",1,4,"left","right",0.863000154,0,0,0,1,NA,NA,NA,NA,NA,NA,NA,NA,NA,NA,NA,NA,NA,NA,NA,NA,NA,NA,NA,NA,NA,NA,NA,NA
"163","stim/objects/Instruments/flute2.png",62,76,62,0.7,"stim/64.jpeg",6,4,2,NA,"Instruments",1,3,"left","left",0.609999895,1,1,0,1,NA,NA,NA,NA,NA,NA,NA,NA,NA,NA,NA,NA,NA,NA,NA,NA,NA,NA,NA,NA,NA,NA,NA,NA
"114","stim/objects/HouseObjects/handvacuum.png",63,76,63,0.7,"stim/54.jpeg",5,4,2,NA,"HouseObjects",2,1,"right","right",0.674999952,1,1,0,1,NA,NA,NA,NA,NA,NA,NA,NA,NA,NA,NA,NA,NA,NA,NA,NA,NA,NA,NA,NA,NA,NA,NA,NA
"223","stim/objects/Instruments/harp2.png",64,76,64,0.9,"stim/23.jpeg",2,3,3,NA,"Instruments",1,3,"left","left",0.601999998,1,1,0,1,NA,NA,NA,NA,NA,NA,NA,NA,NA,NA,NA,NA,NA,NA,NA,NA,NA,NA,NA,NA,NA,NA,NA,NA
"150","stim/objects/Instruments/electricguitar2.png",65,76,65,0.7,"stim/63.jpeg",6,3,2,NA,"Instruments",1,2,"left","left",0.686999798,1,1,0,1,NA,NA,NA,NA,NA,NA,NA,NA,NA,NA,NA,NA,NA,NA,NA,NA,NA,NA,NA,NA,NA,NA,NA,NA
"180","stim/objects/Instruments/frenchhorn2.png",66,76,66,0.1,"stim/12.jpeg",1,2,3,NA,"Instruments",1,3,"left","right",0.628000021,0,0,0,1,NA,NA,NA,NA,NA,NA,NA,NA,NA,NA,NA,NA,NA,NA,NA,NA,NA,NA,NA,NA,NA,NA,NA,NA
"198","stim/objects/Instruments/guitarcase2.png",67,76,67,0.9,"stim/21.jpeg",2,1,3,NA,"Instruments",1,1,"left","left",0.664000034,1,1,0,1,NA,NA,NA,NA,NA,NA,NA,NA,NA,NA,NA,NA,NA,NA,NA,NA,NA,NA,NA,NA,NA,NA,NA,NA
"176","stim/objects/Instruments/frenchhorn.png",68,76,68,0.5,"stim/42.jpeg",4,2,1,NA,"Instruments",1,4,"left","left",0.725999832,1,1,0,1,NA,NA,NA,NA,NA,NA,NA,NA,NA,NA,NA,NA,NA,NA,NA,NA,NA,NA,NA,NA,NA,NA,NA,NA
"126","stim/objects/Instruments/drums2.png",69,76,69,0.7,"stim/61.jpeg",6,1,2,NA,"Instruments",1,4,"left","left",0.65899992,1,1,0,1,NA,NA,NA,NA,NA,NA,NA,NA,NA,NA,NA,NA,NA,NA,NA,NA,NA,NA,NA,NA,NA,NA,NA,NA
"229","stim/objects/Instruments/hihat.png",70,76,70,0.3,"stim/54.jpeg",5,4,2,NA,"Instruments",1,1,"left","right",0.595000029,0,0,0,1,NA,NA,NA,NA,NA,NA,NA,NA,NA,NA,NA,NA,NA,NA,NA,NA,NA,NA,NA,NA,NA,NA,NA,NA
"23","stim/objects/HouseObjects/dishsoap2.png",71,76,71,0.3,"stim/63.jpeg",6,3,2,NA,"HouseObjects",2,2,"right","left",0.564999819,0,0,0,1,NA,NA,NA,NA,NA,NA,NA,NA,NA,NA,NA,NA,NA,NA,NA,NA,NA,NA,NA,NA,NA,NA,NA,NA
"115","stim/objects/HouseObjects/handvacuum.png",72,76,72,0.7,"stim/54.jpeg",5,4,2,NA,"HouseObjects",2,4,"right","right",0.694000006,1,1,0,1,NA,NA,NA,NA,NA,NA,NA,NA,NA,NA,NA,NA,NA,NA,NA,NA,NA,NA,NA,NA,NA,NA,NA,NA
"171","stim/objects/Instruments/flutetrans.png",73,76,73,0.5,"stim/41.jpeg",4,1,1,NA,"Instruments",1,2,"left","left",0.507999897,1,1,0,1,NA,NA,NA,NA,NA,NA,NA,NA,NA,NA,NA,NA,NA,NA,NA,NA,NA,NA,NA,NA,NA,NA,NA,NA
"127","stim/objects/Instruments/drums2.png",74,76,74,0.7,"stim/61.jpeg",6,1,2,NA,"Instruments",1,2,"left","left",0.691999912,1,1,0,1,NA,NA,NA,NA,NA,NA,NA,NA,NA,NA,NA,NA,NA,NA,NA,NA,NA,NA,NA,NA,NA,NA,NA,NA
"77","stim/objects/HouseObjects/glass.png",75,76,75,0.5,"stim/44.jpeg",4,4,1,NA,"HouseObjects",2,2,"right","right",0.562000036,1,1,0,1,NA,NA,NA,NA,NA,NA,NA,NA,NA,NA,NA,NA,NA,NA,NA,NA,NA,NA,NA,NA,NA,NA,NA,NA
"139","stim/objects/Instruments/electricdrumset2.png",76,76,76,0.7,"stim/62.jpeg",6,2,2,NA,"Instruments",1,3,"left","left",0.672999859,1,1,0,1,NA,NA,NA,NA,NA,NA,NA,NA,NA,NA,NA,NA,NA,NA,NA,NA,NA,NA,NA,NA,NA,NA,NA,NA
"136","stim/objects/Instruments/electricdrumset.png",77,76,77,0.5,"stim/32.jpeg",3,2,1,NA,"Instruments",1,3,"left","right",0.486000061,0,0,0,1,NA,NA,NA,NA,NA,NA,NA,NA,NA,NA,NA,NA,NA,NA,NA,NA,NA,NA,NA,NA,NA,NA,NA,NA
"67","stim/objects/HouseObjects/garbagebin2.png",78,76,78,0.9,"stim/13.jpeg",1,3,3,NA,"HouseObjects",2,4,"right","right",0.648000002,1,1,0,1,NA,NA,NA,NA,NA,NA,NA,NA,NA,NA,NA,NA,NA,NA,NA,NA,NA,NA,NA,NA,NA,NA,NA,NA
"31","stim/objects/HouseObjects/doormat2.png",79,76,79,0.3,"stim/64.jpeg",6,4,2,NA,"HouseObjects",2,2,"right","left",0.594000101,0,0,0,1,NA,NA,NA,NA,NA,NA,NA,NA,NA,NA,NA,NA,NA,NA,NA,NA,NA,NA,NA,NA,NA,NA,NA,NA
"211","stim/objects/Instruments/harmonica2.png",80,76,80,0.9,"stim/22.jpeg",2,2,3,NA,"Instruments",1,2,"left","left",0.629999876,1,1,0,1,NA,NA,NA,NA,NA,NA,NA,NA,NA,NA,NA,NA,NA,NA,NA,NA,NA,NA,NA,NA,NA,NA,NA,NA
"62","stim/objects/HouseObjects/garbagebin.png",81,76,81,0.5,"stim/43.jpeg",4,3,1,NA,"HouseObjects",2,3,"right","right",0.478999853,1,1,0,1,NA,NA,NA,NA,NA,NA,NA,NA,NA,NA,NA,NA,NA,NA,NA,NA,NA,NA,NA,NA,NA,NA,NA,NA
"234","stim/objects/Instruments/hihat2.png",82,76,82,0.9,"stim/24.jpeg",2,4,3,NA,"Instruments",1,4,"left","left",0.605999708,1,1,0,1,NA,NA,NA,NA,NA,NA,NA,NA,NA,NA,NA,NA,NA,NA,NA,NA,NA,NA,NA,NA,NA,NA,NA,NA
"11","stim/objects/HouseObjects/cushion.png",83,76,83,0.5,"stim/32.jpeg",3,2,1,NA,"HouseObjects",2,3,"right","right",0.64199996,1,1,0,1,NA,NA,NA,NA,NA,NA,NA,NA,NA,NA,NA,NA,NA,NA,NA,NA,NA,NA,NA,NA,NA,NA,NA,NA
"18","stim/objects/HouseObjects/dishsoap.png",84,76,84,0.5,"stim/33.jpeg",3,3,1,NA,"HouseObjects",2,4,"right","left",0.5849998,0,0,0,1,NA,NA,NA,NA,NA,NA,NA,NA,NA,NA,NA,NA,NA,NA,NA,NA,NA,NA,NA,NA,NA,NA,NA,NA
"193","stim/objects/Instruments/guitarcase.png",85,76,85,0.3,"stim/51.jpeg",5,1,2,NA,"Instruments",1,1,"left","right",0.582000017,0,0,0,1,NA,NA,NA,NA,NA,NA,NA,NA,NA,NA,NA,NA,NA,NA,NA,NA,NA,NA,NA,NA,NA,NA,NA,NA
"235","stim/objects/Instruments/hihat2.png",86,76,86,0.9,"stim/24.jpeg",2,4,3,NA,"Instruments",1,3,"left","left",0.638000011,1,1,0,1,NA,NA,NA,NA,NA,NA,NA,NA,NA,NA,NA,NA,NA,NA,NA,NA,NA,NA,NA,NA,NA,NA,NA,NA
"7","stim/objects/HouseObjects/coffee2.png",87,76,87,0.3,"stim/61.jpeg",6,1,2,NA,"HouseObjects",2,3,"right","left",0.68599987,0,0,0,1,NA,NA,NA,NA,NA,NA,NA,NA,NA,NA,NA,NA,NA,NA,NA,NA,NA,NA,NA,NA,NA,NA,NA,NA
"128","stim/objects/Instruments/drums2.png",88,76,88,0.7,"stim/61.jpeg",6,1,2,NA,"Instruments",1,1,"left","left",0.697999954,1,1,0,1,NA,NA,NA,NA,NA,NA,NA,NA,NA,NA,NA,NA,NA,NA,NA,NA,NA,NA,NA,NA,NA,NA,NA,NA
"151","stim/objects/Instruments/electricguitar2.png",89,76,89,0.7,"stim/63.jpeg",6,3,2,NA,"Instruments",1,2,"left","left",0.645999908,1,1,0,1,NA,NA,NA,NA,NA,NA,NA,NA,NA,NA,NA,NA,NA,NA,NA,NA,NA,NA,NA,NA,NA,NA,NA,NA
"152","stim/objects/Instruments/electricguitar2.png",90,76,90,0.7,"stim/63.jpeg",6,3,2,NA,"Instruments",1,3,"left","left",0.802999973,1,1,0,1,NA,NA,NA,NA,NA,NA,NA,NA,NA,NA,NA,NA,NA,NA,NA,NA,NA,NA,NA,NA,NA,NA,NA,NA
"19","stim/objects/HouseObjects/dishsoap.png",91,76,91,0.5,"stim/33.jpeg",3,3,1,NA,"HouseObjects",2,3,"right","right",0.902999878,1,1,0,1,NA,NA,NA,NA,NA,NA,NA,NA,NA,NA,NA,NA,NA,NA,NA,NA,NA,NA,NA,NA,NA,NA,NA,NA
"236","stim/objects/Instruments/hihat2.png",92,76,92,0.9,"stim/24.jpeg",2,4,3,NA,"Instruments",1,1,"left","left",0.588999748,1,1,0,1,NA,NA,NA,NA,NA,NA,NA,NA,NA,NA,NA,NA,NA,NA,NA,NA,NA,NA,NA,NA,NA,NA,NA,NA
"116","stim/objects/HouseObjects/handvacuum.png",93,76,93,0.7,"stim/54.jpeg",5,4,2,NA,"HouseObjects",2,4,"right","right",0.619999886,1,1,0,1,NA,NA,NA,NA,NA,NA,NA,NA,NA,NA,NA,NA,NA,NA,NA,NA,NA,NA,NA,NA,NA,NA,NA,NA
"145","stim/objects/Instruments/electricguitar.png",94,76,94,0.5,"stim/33.jpeg",3,3,1,NA,"Instruments",1,4,"left","right",0.527999878,0,0,0,1,NA,NA,NA,NA,NA,NA,NA,NA,NA,NA,NA,NA,NA,NA,NA,NA,NA,NA,NA,NA,NA,NA,NA,NA
"157","stim/objects/Instruments/flute.png",95,76,95,0.5,"stim/34.jpeg",3,4,1,NA,"Instruments",1,1,"left","",NA,0,0,0,1,NA,NA,NA,NA,NA,NA,NA,NA,NA,NA,NA,NA,NA,NA,NA,NA,NA,NA,NA,NA,NA,NA,NA,NA
"83","stim/objects/HouseObjects/glass2.png",96,76,96,0.9,"stim/14.jpeg",1,4,3,NA,"HouseObjects",2,2,"right","right",0.626999855,1,1,0,1,NA,NA,NA,NA,NA,NA,NA,NA,NA,NA,NA,NA,NA,NA,NA,NA,NA,NA,NA,NA,NA,NA,NA,NA
"212","stim/objects/Instruments/harmonica2.png",97,76,97,0.9,"stim/22.jpeg",2,2,3,NA,"Instruments",1,1,"left","left",0.615999937,1,1,0,1,NA,NA,NA,NA,NA,NA,NA,NA,NA,NA,NA,NA,NA,NA,NA,NA,NA,NA,NA,NA,NA,NA,NA,NA
"34","stim/objects/HouseObjects/dustpan.png",98,76,98,0.5,"stim/41.jpeg",4,1,1,NA,"HouseObjects",2,4,"right","right",0.454999924,1,1,0,1,NA,NA,NA,NA,NA,NA,NA,NA,NA,NA,NA,NA,NA,NA,NA,NA,NA,NA,NA,NA,NA,NA,NA,NA
"183","stim/objects/Instruments/gong.png",99,76,99,0.5,"stim/43.jpeg",4,3,1,NA,"Instruments",1,2,"left","left",0.900999784,1,1,0,1,NA,NA,NA,NA,NA,NA,NA,NA,NA,NA,NA,NA,NA,NA,NA,NA,NA,NA,NA,NA,NA,NA,NA,NA
"68","stim/objects/HouseObjects/garbagebin2.png",100,76,100,0.9,"stim/13.jpeg",1,3,3,NA,"HouseObjects",2,1,"right","right",0.531999826,1,1,0,1,NA,NA,NA,NA,NA,NA,NA,NA,NA,NA,NA,NA,NA,NA,NA,NA,NA,NA,NA,NA,NA,NA,NA,NA
"48","stim/objects/HouseObjects/flyswatter.png",101,76,101,0.5,"stim/42.jpeg",4,2,1,NA,"HouseObjects",2,4,"right","left",0.664000034,0,0,0,1,NA,NA,NA,NA,NA,NA,NA,NA,NA,NA,NA,NA,NA,NA,NA,NA,NA,NA,NA,NA,NA,NA,NA,NA
"26","stim/objects/HouseObjects/doormat.png",102,76,102,0.5,"stim/34.jpeg",3,4,1,NA,"HouseObjects",2,3,"right","right",0.500999928,1,1,0,1,NA,NA,NA,NA,NA,NA,NA,NA,NA,NA,NA,NA,NA,NA,NA,NA,NA,NA,NA,NA,NA,NA,NA,NA
"41","stim/objects/HouseObjects/dustpan2.png",103,76,103,0.9,"stim/11.jpeg",1,1,3,NA,"HouseObjects",2,4,"right","right",0.632999897,1,1,0,1,NA,NA,NA,NA,NA,NA,NA,NA,NA,NA,NA,NA,NA,NA,NA,NA,NA,NA,NA,NA,NA,NA,NA,NA
"237","stim/objects/Instruments/hihat2.png",104,76,104,0.9,"stim/24.jpeg",2,4,3,NA,"Instruments",1,4,"left","left",0.625,1,1,0,1,NA,NA,NA,NA,NA,NA,NA,NA,NA,NA,NA,NA,NA,NA,NA,NA,NA,NA,NA,NA,NA,NA,NA,NA
"177","stim/objects/Instruments/frenchhorn.png",105,76,105,0.5,"stim/42.jpeg",4,2,1,NA,"Instruments",1,2,"left","right",0.431999922,0,0,0,1,NA,NA,NA,NA,NA,NA,NA,NA,NA,NA,NA,NA,NA,NA,NA,NA,NA,NA,NA,NA,NA,NA,NA,NA
"238","stim/objects/Instruments/hihat2.png",106,76,106,0.9,"stim/24.jpeg",2,4,3,NA,"Instruments",1,3,"left","right",0.569999933,0,0,0,1,NA,NA,NA,NA,NA,NA,NA,NA,NA,NA,NA,NA,NA,NA,NA,NA,NA,NA,NA,NA,NA,NA,NA,NA
"124","stim/objects/Instruments/drums.png",107,76,107,0.5,"stim/31.jpeg",3,1,1,NA,"Instruments",1,1,"left","right",0.802000046,0,0,0,1,NA,NA,NA,NA,NA,NA,NA,NA,NA,NA,NA,NA,NA,NA,NA,NA,NA,NA,NA,NA,NA,NA,NA,NA
"194","stim/objects/Instruments/guitarcase.png",108,76,108,0.3,"stim/51.jpeg",5,1,2,NA,"Instruments",1,1,"left","right",0.667999983,0,0,0,1,NA,NA,NA,NA,NA,NA,NA,NA,NA,NA,NA,NA,NA,NA,NA,NA,NA,NA,NA,NA,NA,NA,NA,NA
"49","stim/objects/HouseObjects/flyswatter.png",109,76,109,0.5,"stim/42.jpeg",4,2,1,NA,"HouseObjects",2,2,"right","left",0.79399991,0,0,0,1,NA,NA,NA,NA,NA,NA,NA,NA,NA,NA,NA,NA,NA,NA,NA,NA,NA,NA,NA,NA,NA,NA,NA,NA
"224","stim/objects/Instruments/harp2.png",110,76,110,0.9,"stim/23.jpeg",2,3,3,NA,"Instruments",1,3,"left","left",0.677999735,1,1,0,1,NA,NA,NA,NA,NA,NA,NA,NA,NA,NA,NA,NA,NA,NA,NA,NA,NA,NA,NA,NA,NA,NA,NA,NA
"63","stim/objects/HouseObjects/garbagebin.png",111,76,111,0.5,"stim/43.jpeg",4,3,1,NA,"HouseObjects",2,1,"right","right",0.708999872,1,1,0,1,NA,NA,NA,NA,NA,NA,NA,NA,NA,NA,NA,NA,NA,NA,NA,NA,NA,NA,NA,NA,NA,NA,NA,NA
"84","stim/objects/HouseObjects/glass2.png",112,76,112,0.9,"stim/14.jpeg",1,4,3,NA,"HouseObjects",2,3,"right","right",0.655999899,1,1,0,1,NA,NA,NA,NA,NA,NA,NA,NA,NA,NA,NA,NA,NA,NA,NA,NA,NA,NA,NA,NA,NA,NA,NA,NA
"146","stim/objects/Instruments/electricguitar.png",113,76,113,0.5,"stim/33.jpeg",3,3,1,NA,"Instruments",1,1,"left","right",0.578999996,0,0,0,1,NA,NA,NA,NA,NA,NA,NA,NA,NA,NA,NA,NA,NA,NA,NA,NA,NA,NA,NA,NA,NA,NA,NA,NA
"178","stim/objects/Instruments/frenchhorn.png",114,76,114,0.5,"stim/42.jpeg",4,2,1,NA,"Instruments",1,3,"left","right",0.615999937,0,0,0,1,NA,NA,NA,NA,NA,NA,NA,NA,NA,NA,NA,NA,NA,NA,NA,NA,NA,NA,NA,NA,NA,NA,NA,NA
"225","stim/objects/Instruments/harp2.png",115,76,115,0.9,"stim/23.jpeg",2,3,3,NA,"Instruments",1,2,"left","left",0.522999763,1,1,0,1,NA,NA,NA,NA,NA,NA,NA,NA,NA,NA,NA,NA,NA,NA,NA,NA,NA,NA,NA,NA,NA,NA,NA,NA
"172","stim/objects/Instruments/flutetrans.png",116,76,116,0.5,"stim/41.jpeg",4,1,1,NA,"Instruments",1,2,"left","right",0.551000118,0,0,0,1,NA,NA,NA,NA,NA,NA,NA,NA,NA,NA,NA,NA,NA,NA,NA,NA,NA,NA,NA,NA,NA,NA,NA,NA
"174","stim/objects/Instruments/flutetrans2.png",117,76,117,0.1,"stim/11.jpeg",1,1,3,NA,"Instruments",1,3,"left","right",0.554999828,0,0,0,1,NA,NA,NA,NA,NA,NA,NA,NA,NA,NA,NA,NA,NA,NA,NA,NA,NA,NA,NA,NA,NA,NA,NA,NA
"55","stim/objects/HouseObjects/flyswatter2.png",118,76,118,0.9,"stim/12.jpeg",1,2,3,NA,"HouseObjects",2,4,"right","right",0.575999975,1,1,0,1,NA,NA,NA,NA,NA,NA,NA,NA,NA,NA,NA,NA,NA,NA,NA,NA,NA,NA,NA,NA,NA,NA,NA,NA
"140","stim/objects/Instruments/electricdrumset2.png",119,76,119,0.7,"stim/62.jpeg",6,2,2,NA,"Instruments",1,1,"left","left",0.681999922,1,1,0,1,NA,NA,NA,NA,NA,NA,NA,NA,NA,NA,NA,NA,NA,NA,NA,NA,NA,NA,NA,NA,NA,NA,NA,NA
"100","stim/objects/HouseObjects/hairdryer.png",120,76,120,0.7,"stim/52.jpeg",5,2,2,NA,"HouseObjects",2,3,"right","right",0.686999798,1,1,0,1,NA,NA,NA,NA,NA,NA,NA,NA,NA,NA,NA,NA,NA,NA,NA,NA,NA,NA,NA,NA,NA,NA,NA,NA
"164","stim/objects/Instruments/flute2.png",121,76,121,0.7,"stim/64.jpeg",6,4,2,NA,"Instruments",1,4,"left","left",0.611999989,1,1,0,1,NA,NA,NA,NA,NA,NA,NA,NA,NA,NA,NA,NA,NA,NA,NA,NA,NA,NA,NA,NA,NA,NA,NA,NA
"12","stim/objects/HouseObjects/cushion.png",122,76,122,0.5,"stim/32.jpeg",3,2,1,NA,"HouseObjects",2,1,"right","right",0.531000137,1,1,0,1,NA,NA,NA,NA,NA,NA,NA,NA,NA,NA,NA,NA,NA,NA,NA,NA,NA,NA,NA,NA,NA,NA,NA,NA
"165","stim/objects/Instruments/flute2.png",123,76,123,0.7,"stim/64.jpeg",6,4,2,NA,"Instruments",1,2,"left","left",0.632999897,1,1,0,1,NA,NA,NA,NA,NA,NA,NA,NA,NA,NA,NA,NA,NA,NA,NA,NA,NA,NA,NA,NA,NA,NA,NA,NA
"147","stim/objects/Instruments/electricguitar.png",124,76,124,0.5,"stim/33.jpeg",3,3,1,NA,"Instruments",1,3,"left","right",0.603999853,0,0,0,1,NA,NA,NA,NA,NA,NA,NA,NA,NA,NA,NA,NA,NA,NA,NA,NA,NA,NA,NA,NA,NA,NA,NA,NA
"13","stim/objects/HouseObjects/cushion.png",125,76,125,0.5,"stim/32.jpeg",3,2,1,NA,"HouseObjects",2,1,"right","",NA,0,0,0,1,NA,NA,NA,NA,NA,NA,NA,NA,NA,NA,NA,NA,NA,NA,NA,NA,NA,NA,NA,NA,NA,NA,NA,NA
"85","stim/objects/HouseObjects/glass2.png",126,76,126,0.9,"stim/14.jpeg",1,4,3,NA,"HouseObjects",2,3,"right","right",0.553999901,1,1,0,1,NA,NA,NA,NA,NA,NA,NA,NA,NA,NA,NA,NA,NA,NA,NA,NA,NA,NA,NA,NA,NA,NA,NA,NA
"213","stim/objects/Instruments/harmonica2.png",127,76,127,0.9,"stim/22.jpeg",2,2,3,NA,"Instruments",1,2,"left","left",0.467999935,1,1,0,1,NA,NA,NA,NA,NA,NA,NA,NA,NA,NA,NA,NA,NA,NA,NA,NA,NA,NA,NA,NA,NA,NA,NA,NA
"158","stim/objects/Instruments/flute.png",128,76,128,0.5,"stim/34.jpeg",3,4,1,NA,"Instruments",1,3,"left","right",0.440999985,0,0,0,1,NA,NA,NA,NA,NA,NA,NA,NA,NA,NA,NA,NA,NA,NA,NA,NA,NA,NA,NA,NA,NA,NA,NA,NA
"69","stim/objects/HouseObjects/garbagebin2.png",129,76,129,0.9,"stim/13.jpeg",1,3,3,NA,"HouseObjects",2,1,"right","right",0.600999832,1,1,0,1,NA,NA,NA,NA,NA,NA,NA,NA,NA,NA,NA,NA,NA,NA,NA,NA,NA,NA,NA,NA,NA,NA,NA,NA
"42","stim/objects/HouseObjects/dustpan2.png",130,76,130,0.9,"stim/11.jpeg",1,1,3,NA,"HouseObjects",2,1,"right","right",0.625999928,1,1,0,1,NA,NA,NA,NA,NA,NA,NA,NA,NA,NA,NA,NA,NA,NA,NA,NA,NA,NA,NA,NA,NA,NA,NA,NA
"64","stim/objects/HouseObjects/garbagebin.png",131,76,131,0.5,"stim/43.jpeg",4,3,1,NA,"HouseObjects",2,3,"right","left",0.554999828,0,0,0,1,NA,NA,NA,NA,NA,NA,NA,NA,NA,NA,NA,NA,NA,NA,NA,NA,NA,NA,NA,NA,NA,NA,NA,NA
"141","stim/objects/Instruments/electricdrumset2.png",132,76,132,0.7,"stim/62.jpeg",6,2,2,NA,"Instruments",1,2,"left","left",0.642999887,1,1,0,1,NA,NA,NA,NA,NA,NA,NA,NA,NA,NA,NA,NA,NA,NA,NA,NA,NA,NA,NA,NA,NA,NA,NA,NA
"86","stim/objects/HouseObjects/glass2.png",133,76,133,0.9,"stim/14.jpeg",1,4,3,NA,"HouseObjects",2,4,"right","right",0.56799984,1,1,0,1,NA,NA,NA,NA,NA,NA,NA,NA,NA,NA,NA,NA,NA,NA,NA,NA,NA,NA,NA,NA,NA,NA,NA,NA
"125","stim/objects/Instruments/drums.png",134,76,134,0.5,"stim/31.jpeg",3,1,1,NA,"Instruments",1,1,"left","right",0.609999895,0,0,0,1,NA,NA,NA,NA,NA,NA,NA,NA,NA,NA,NA,NA,NA,NA,NA,NA,NA,NA,NA,NA,NA,NA,NA,NA
"89","stim/objects/HouseObjects/glassmop.png",135,76,135,0.7,"stim/51.jpeg",5,1,2,NA,"HouseObjects",2,3,"right","right",0.744999886,1,1,0,1,NA,NA,NA,NA,NA,NA,NA,NA,NA,NA,NA,NA,NA,NA,NA,NA,NA,NA,NA,NA,NA,NA,NA,NA
"179","stim/objects/Instruments/frenchhorn.png",136,76,136,0.5,"stim/42.jpeg",4,2,1,NA,"Instruments",1,3,"left","left",0.707999945,1,1,0,1,NA,NA,NA,NA,NA,NA,NA,NA,NA,NA,NA,NA,NA,NA,NA,NA,NA,NA,NA,NA,NA,NA,NA,NA
"106","stim/objects/HouseObjects/handbrush.png",137,76,137,0.7,"stim/53.jpeg",5,3,2,NA,"HouseObjects",2,3,"right","right",0.701999903,1,1,0,1,NA,NA,NA,NA,NA,NA,NA,NA,NA,NA,NA,NA,NA,NA,NA,NA,NA,NA,NA,NA,NA,NA,NA,NA
"90","stim/objects/HouseObjects/glassmop.png",138,76,138,0.7,"stim/51.jpeg",5,1,2,NA,"HouseObjects",2,3,"right","right",0.730999947,1,1,0,1,NA,NA,NA,NA,NA,NA,NA,NA,NA,NA,NA,NA,NA,NA,NA,NA,NA,NA,NA,NA,NA,NA,NA,NA
"70","stim/objects/HouseObjects/garbagebin2.png",139,76,139,0.9,"stim/13.jpeg",1,3,3,NA,"HouseObjects",2,1,"right","right",0.589999914,1,1,0,1,NA,NA,NA,NA,NA,NA,NA,NA,NA,NA,NA,NA,NA,NA,NA,NA,NA,NA,NA,NA,NA,NA,NA,NA
"91","stim/objects/HouseObjects/glassmop.png",140,76,140,0.7,"stim/51.jpeg",5,1,2,NA,"HouseObjects",2,4,"right","right",0.713999987,1,1,0,1,NA,NA,NA,NA,NA,NA,NA,NA,NA,NA,NA,NA,NA,NA,NA,NA,NA,NA,NA,NA,NA,NA,NA,NA
"35","stim/objects/HouseObjects/dustpan.png",141,76,141,0.5,"stim/41.jpeg",4,1,1,NA,"HouseObjects",2,4,"right","right",0.65199995,1,1,0,1,NA,NA,NA,NA,NA,NA,NA,NA,NA,NA,NA,NA,NA,NA,NA,NA,NA,NA,NA,NA,NA,NA,NA,NA
"107","stim/objects/HouseObjects/handbrush.png",142,76,142,0.7,"stim/53.jpeg",5,3,2,NA,"HouseObjects",2,3,"right","right",0.64199996,1,1,0,1,NA,NA,NA,NA,NA,NA,NA,NA,NA,NA,NA,NA,NA,NA,NA,NA,NA,NA,NA,NA,NA,NA,NA,NA
"101","stim/objects/HouseObjects/hairdryer.png",143,76,143,0.7,"stim/52.jpeg",5,2,2,NA,"HouseObjects",2,2,"right","left",0.620999813,0,0,0,1,NA,NA,NA,NA,NA,NA,NA,NA,NA,NA,NA,NA,NA,NA,NA,NA,NA,NA,NA,NA,NA,NA,NA,NA
"43","stim/objects/HouseObjects/dustpan2.png",144,76,144,0.9,"stim/11.jpeg",1,1,3,NA,"HouseObjects",2,2,"right","right",0.516000032,1,1,0,1,NA,NA,NA,NA,NA,NA,NA,NA,NA,NA,NA,NA,NA,NA,NA,NA,NA,NA,NA,NA,NA,NA,NA,NA
"56","stim/objects/HouseObjects/flyswatter2.png",145,76,145,0.9,"stim/12.jpeg",1,2,3,NA,"HouseObjects",2,1,"right","right",0.549000025,1,1,0,1,NA,NA,NA,NA,NA,NA,NA,NA,NA,NA,NA,NA,NA,NA,NA,NA,NA,NA,NA,NA,NA,NA,NA,NA
"44","stim/objects/HouseObjects/dustpan2.png",146,76,146,0.9,"stim/11.jpeg",1,1,3,NA,"HouseObjects",2,3,"right","right",0.50999999,1,1,0,1,NA,NA,NA,NA,NA,NA,NA,NA,NA,NA,NA,NA,NA,NA,NA,NA,NA,NA,NA,NA,NA,NA,NA,NA
"199","stim/objects/Instruments/guitarcase2.png",147,76,147,0.9,"stim/21.jpeg",2,1,3,NA,"Instruments",1,1,"left","left",0.651000023,1,1,0,1,NA,NA,NA,NA,NA,NA,NA,NA,NA,NA,NA,NA,NA,NA,NA,NA,NA,NA,NA,NA,NA,NA,NA,NA
"129","stim/objects/Instruments/drums2.png",148,76,148,0.7,"stim/61.jpeg",6,1,2,NA,"Instruments",1,4,"left","right",0.608999968,0,0,0,1,NA,NA,NA,NA,NA,NA,NA,NA,NA,NA,NA,NA,NA,NA,NA,NA,NA,NA,NA,NA,NA,NA,NA,NA
"184","stim/objects/Instruments/gong.png",149,76,149,0.5,"stim/43.jpeg",4,3,1,NA,"Instruments",1,2,"left","",NA,0,0,0,1,NA,NA,NA,NA,NA,NA,NA,NA,NA,NA,NA,NA,NA,NA,NA,NA,NA,NA,NA,NA,NA,NA,NA,NA
"36","stim/objects/HouseObjects/dustpan.png",150,76,150,0.5,"stim/41.jpeg",4,1,1,NA,"HouseObjects",2,1,"right","right",0.463999987,1,1,0,1,NA,NA,NA,NA,NA,NA,NA,NA,NA,NA,NA,NA,NA,NA,NA,NA,NA,NA,NA,NA,NA,NA,NA,NA
"8","stim/objects/HouseObjects/coffee2.png",151,76,151,0.3,"stim/61.jpeg",6,1,2,NA,"HouseObjects",2,3,"right","left",0.590999842,0,0,0,1,NA,NA,NA,NA,NA,NA,NA,NA,NA,NA,NA,NA,NA,NA,NA,NA,NA,NA,NA,NA,NA,NA,NA,NA
"214","stim/objects/Instruments/harmonica2.png",152,76,152,0.9,"stim/22.jpeg",2,2,3,NA,"Instruments",1,3,"left","left",0.66899991,1,1,0,1,NA,NA,NA,NA,NA,NA,NA,NA,NA,NA,NA,NA,NA,NA,NA,NA,NA,NA,NA,NA,NA,NA,NA,NA
"159","stim/objects/Instruments/flute.png",153,76,153,0.5,"stim/34.jpeg",3,4,1,NA,"Instruments",1,2,"left","right",0.426000118,0,0,0,1,NA,NA,NA,NA,NA,NA,NA,NA,NA,NA,NA,NA,NA,NA,NA,NA,NA,NA,NA,NA,NA,NA,NA,NA
"65","stim/objects/HouseObjects/garbagebin.png",154,76,154,0.5,"stim/43.jpeg",4,3,1,NA,"HouseObjects",2,1,"right","right",0.487999916,1,1,0,1,NA,NA,NA,NA,NA,NA,NA,NA,NA,NA,NA,NA,NA,NA,NA,NA,NA,NA,NA,NA,NA,NA,NA,NA
"130","stim/objects/Instruments/drums2.png",155,76,155,0.7,"stim/61.jpeg",6,1,2,NA,"Instruments",1,3,"left","left",0.595000029,1,1,0,1,NA,NA,NA,NA,NA,NA,NA,NA,NA,NA,NA,NA,NA,NA,NA,NA,NA,NA,NA,NA,NA,NA,NA,NA
"239","stim/objects/Instruments/hihat2.png",156,76,156,0.9,"stim/24.jpeg",2,4,3,NA,"Instruments",1,1,"left","left",0.551999807,1,1,0,1,NA,NA,NA,NA,NA,NA,NA,NA,NA,NA,NA,NA,NA,NA,NA,NA,NA,NA,NA,NA,NA,NA,NA,NA
"102","stim/objects/HouseObjects/hairdryer.png",157,76,157,0.7,"stim/52.jpeg",5,2,2,NA,"HouseObjects",2,1,"right","right",0.484999895,1,1,0,1,NA,NA,NA,NA,NA,NA,NA,NA,NA,NA,NA,NA,NA,NA,NA,NA,NA,NA,NA,NA,NA,NA,NA,NA
"117","stim/objects/HouseObjects/handvacuum.png",158,76,158,0.7,"stim/54.jpeg",5,4,2,NA,"HouseObjects",2,3,"right","right",0.671000004,1,1,0,1,NA,NA,NA,NA,NA,NA,NA,NA,NA,NA,NA,NA,NA,NA,NA,NA,NA,NA,NA,NA,NA,NA,NA,NA
"78","stim/objects/HouseObjects/glass.png",159,76,159,0.5,"stim/44.jpeg",4,4,1,NA,"HouseObjects",2,1,"right","left",0.54399991,0,0,0,1,NA,NA,NA,NA,NA,NA,NA,NA,NA,NA,NA,NA,NA,NA,NA,NA,NA,NA,NA,NA,NA,NA,NA,NA
"3","stim/objects/HouseObjects/coffee.png",160,76,160,0.5,"stim/31.jpeg",3,1,1,NA,"HouseObjects",2,1,"right","right",0.493999958,1,1,0,1,NA,NA,NA,NA,NA,NA,NA,NA,NA,NA,NA,NA,NA,NA,NA,NA,NA,NA,NA,NA,NA,NA,NA,NA
"57","stim/objects/HouseObjects/flyswatter2.png",161,76,161,0.9,"stim/12.jpeg",1,2,3,NA,"HouseObjects",2,2,"right","right",0.589999914,1,1,0,1,NA,NA,NA,NA,NA,NA,NA,NA,NA,NA,NA,NA,NA,NA,NA,NA,NA,NA,NA,NA,NA,NA,NA,NA
"108","stim/objects/HouseObjects/handbrush.png",162,76,162,0.7,"stim/53.jpeg",5,3,2,NA,"HouseObjects",2,1,"right","right",0.582999945,1,1,0,1,NA,NA,NA,NA,NA,NA,NA,NA,NA,NA,NA,NA,NA,NA,NA,NA,NA,NA,NA,NA,NA,NA,NA,NA
"112","stim/objects/HouseObjects/handbrush2.png",163,76,163,0.1,"stim/23.jpeg",2,3,3,NA,"HouseObjects",2,4,"right","left",0.575000048,0,0,0,1,NA,NA,NA,NA,NA,NA,NA,NA,NA,NA,NA,NA,NA,NA,NA,NA,NA,NA,NA,NA,NA,NA,NA,NA
"71","stim/objects/HouseObjects/garbagebin2.png",164,76,164,0.9,"stim/13.jpeg",1,3,3,NA,"HouseObjects",2,2,"right","right",0.620999813,1,1,0,1,NA,NA,NA,NA,NA,NA,NA,NA,NA,NA,NA,NA,NA,NA,NA,NA,NA,NA,NA,NA,NA,NA,NA,NA
"166","stim/objects/Instruments/flute2.png",165,76,165,0.7,"stim/64.jpeg",6,4,2,NA,"Instruments",1,2,"left","left",0.753999949,1,1,0,1,NA,NA,NA,NA,NA,NA,NA,NA,NA,NA,NA,NA,NA,NA,NA,NA,NA,NA,NA,NA,NA,NA,NA,NA
"27","stim/objects/HouseObjects/doormat.png",166,76,166,0.5,"stim/34.jpeg",3,4,1,NA,"HouseObjects",2,1,"right","right",0.557999849,1,1,0,1,NA,NA,NA,NA,NA,NA,NA,NA,NA,NA,NA,NA,NA,NA,NA,NA,NA,NA,NA,NA,NA,NA,NA,NA
"72","stim/objects/HouseObjects/garbagebin2.png",167,76,167,0.9,"stim/13.jpeg",1,3,3,NA,"HouseObjects",2,3,"right","right",0.599999905,1,1,0,1,NA,NA,NA,NA,NA,NA,NA,NA,NA,NA,NA,NA,NA,NA,NA,NA,NA,NA,NA,NA,NA,NA,NA,NA
"200","stim/objects/Instruments/guitarcase2.png",168,76,168,0.9,"stim/21.jpeg",2,1,3,NA,"Instruments",1,2,"left","left",0.56099987,1,1,0,1,NA,NA,NA,NA,NA,NA,NA,NA,NA,NA,NA,NA,NA,NA,NA,NA,NA,NA,NA,NA,NA,NA,NA,NA
"226","stim/objects/Instruments/harp2.png",169,76,169,0.9,"stim/23.jpeg",2,3,3,NA,"Instruments",1,4,"left","left",0.548000097,1,1,0,1,NA,NA,NA,NA,NA,NA,NA,NA,NA,NA,NA,NA,NA,NA,NA,NA,NA,NA,NA,NA,NA,NA,NA,NA
"109","stim/objects/HouseObjects/handbrush.png",170,76,170,0.7,"stim/53.jpeg",5,3,2,NA,"HouseObjects",2,3,"right","right",0.501999855,1,1,0,1,NA,NA,NA,NA,NA,NA,NA,NA,NA,NA,NA,NA,NA,NA,NA,NA,NA,NA,NA,NA,NA,NA,NA,NA
"201","stim/objects/Instruments/guitarcase2.png",171,76,171,0.9,"stim/21.jpeg",2,1,3,NA,"Instruments",1,1,"left","left",0.638999939,1,1,0,1,NA,NA,NA,NA,NA,NA,NA,NA,NA,NA,NA,NA,NA,NA,NA,NA,NA,NA,NA,NA,NA,NA,NA,NA
"120","stim/objects/HouseObjects/handvacuum2.png",172,76,172,0.1,"stim/24.jpeg",2,4,3,NA,"HouseObjects",2,3,"right","left",0.5,0,0,0,1,NA,NA,NA,NA,NA,NA,NA,NA,NA,NA,NA,NA,NA,NA,NA,NA,NA,NA,NA,NA,NA,NA,NA,NA
"189","stim/objects/Instruments/grandpiano.png",173,76,173,0.5,"stim/44.jpeg",4,4,1,NA,"Instruments",1,2,"left","right",0.7099998,0,0,0,1,NA,NA,NA,NA,NA,NA,NA,NA,NA,NA,NA,NA,NA,NA,NA,NA,NA,NA,NA,NA,NA,NA,NA,NA
"192","stim/objects/Instruments/grandpiano2.png",174,76,174,0.1,"stim/14.jpeg",1,4,3,NA,"Instruments",1,2,"left","right",0.569999695,0,0,0,1,NA,NA,NA,NA,NA,NA,NA,NA,NA,NA,NA,NA,NA,NA,NA,NA,NA,NA,NA,NA,NA,NA,NA,NA
"92","stim/objects/HouseObjects/glassmop.png",175,76,175,0.7,"stim/51.jpeg",5,1,2,NA,"HouseObjects",2,1,"right","right",0.631000042,1,1,0,1,NA,NA,NA,NA,NA,NA,NA,NA,NA,NA,NA,NA,NA,NA,NA,NA,NA,NA,NA,NA,NA,NA,NA,NA
"206","stim/objects/Instruments/harmonica.png",176,76,176,0.3,"stim/52.jpeg",5,2,2,NA,"Instruments",1,1,"left","right",0.625,0,0,0,1,NA,NA,NA,NA,NA,NA,NA,NA,NA,NA,NA,NA,NA,NA,NA,NA,NA,NA,NA,NA,NA,NA,NA,NA
"142","stim/objects/Instruments/electricdrumset2.png",177,76,177,0.7,"stim/62.jpeg",6,2,2,NA,"Instruments",1,3,"left","left",0.614000082,1,1,0,1,NA,NA,NA,NA,NA,NA,NA,NA,NA,NA,NA,NA,NA,NA,NA,NA,NA,NA,NA,NA,NA,NA,NA,NA
"87","stim/objects/HouseObjects/glass2.png",178,76,178,0.9,"stim/14.jpeg",1,4,3,NA,"HouseObjects",2,3,"right","right",0.608999968,1,1,0,1,NA,NA,NA,NA,NA,NA,NA,NA,NA,NA,NA,NA,NA,NA,NA,NA,NA,NA,NA,NA,NA,NA,NA,NA
"227","stim/objects/Instruments/harp2.png",179,76,179,0.9,"stim/23.jpeg",2,3,3,NA,"Instruments",1,4,"left","left",0.52699995,1,1,0,1,NA,NA,NA,NA,NA,NA,NA,NA,NA,NA,NA,NA,NA,NA,NA,NA,NA,NA,NA,NA,NA,NA,NA,NA
"37","stim/objects/HouseObjects/dustpan.png",180,76,180,0.5,"stim/41.jpeg",4,1,1,NA,"HouseObjects",2,4,"right","right",0.519999981,1,1,0,1,NA,NA,NA,NA,NA,NA,NA,NA,NA,NA,NA,NA,NA,NA,NA,NA,NA,NA,NA,NA,NA,NA,NA,NA
"240","stim/objects/Instruments/hihat2.png",181,76,181,0.9,"stim/24.jpeg",2,4,3,NA,"Instruments",1,1,"left","left",0.585999966,1,1,0,1,NA,NA,NA,NA,NA,NA,NA,NA,NA,NA,NA,NA,NA,NA,NA,NA,NA,NA,NA,NA,NA,NA,NA,NA
"45","stim/objects/HouseObjects/dustpan2.png",182,76,182,0.9,"stim/11.jpeg",1,1,3,NA,"HouseObjects",2,3,"right","right",0.586999893,1,1,0,1,NA,NA,NA,NA,NA,NA,NA,NA,NA,NA,NA,NA,NA,NA,NA,NA,NA,NA,NA,NA,NA,NA,NA,NA
"218","stim/objects/Instruments/harp.png",183,76,183,0.3,"stim/53.jpeg",5,3,2,NA,"Instruments",1,4,"left","left",0.667999983,1,1,0,1,NA,NA,NA,NA,NA,NA,NA,NA,NA,NA,NA,NA,NA,NA,NA,NA,NA,NA,NA,NA,NA,NA,NA,NA
"50","stim/objects/HouseObjects/flyswatter.png",184,76,184,0.5,"stim/42.jpeg",4,2,1,NA,"HouseObjects",2,2,"right","right",0.513000011,1,1,0,1,NA,NA,NA,NA,NA,NA,NA,NA,NA,NA,NA,NA,NA,NA,NA,NA,NA,NA,NA,NA,NA,NA,NA,NA
"79","stim/objects/HouseObjects/glass.png",185,76,185,0.5,"stim/44.jpeg",4,4,1,NA,"HouseObjects",2,4,"right","right",0.555999994,1,1,0,1,NA,NA,NA,NA,NA,NA,NA,NA,NA,NA,NA,NA,NA,NA,NA,NA,NA,NA,NA,NA,NA,NA,NA,NA
"73","stim/objects/HouseObjects/garbagebin2.png",186,76,186,0.9,"stim/13.jpeg",1,3,3,NA,"HouseObjects",2,3,"right","left",0.369999886,0,0,0,1,NA,NA,NA,NA,NA,NA,NA,NA,NA,NA,NA,NA,NA,NA,NA,NA,NA,NA,NA,NA,NA,NA,NA,NA
"153","stim/objects/Instruments/electricguitar2.png",187,76,187,0.7,"stim/63.jpeg",6,3,2,NA,"Instruments",1,3,"left","right",0.503999949,0,0,0,1,NA,NA,NA,NA,NA,NA,NA,NA,NA,NA,NA,NA,NA,NA,NA,NA,NA,NA,NA,NA,NA,NA,NA,NA
"215","stim/objects/Instruments/harmonica2.png",188,76,188,0.9,"stim/22.jpeg",2,2,3,NA,"Instruments",1,4,"left","left",0.601999998,1,1,0,1,NA,NA,NA,NA,NA,NA,NA,NA,NA,NA,NA,NA,NA,NA,NA,NA,NA,NA,NA,NA,NA,NA,NA,NA
"131","stim/objects/Instruments/drums2.png",189,76,189,0.7,"stim/61.jpeg",6,1,2,NA,"Instruments",1,1,"left","right",0.724999905,0,0,0,1,NA,NA,NA,NA,NA,NA,NA,NA,NA,NA,NA,NA,NA,NA,NA,NA,NA,NA,NA,NA,NA,NA,NA,NA
"20","stim/objects/HouseObjects/dishsoap.png",190,76,190,0.5,"stim/33.jpeg",3,3,1,NA,"HouseObjects",2,2,"right","right",0.717999935,1,1,0,1,NA,NA,NA,NA,NA,NA,NA,NA,NA,NA,NA,NA,NA,NA,NA,NA,NA,NA,NA,NA,NA,NA,NA,NA
"143","stim/objects/Instruments/electricdrumset2.png",191,76,191,0.7,"stim/62.jpeg",6,2,2,NA,"Instruments",1,3,"left","left",0.627999783,1,1,0,1,NA,NA,NA,NA,NA,NA,NA,NA,NA,NA,NA,NA,NA,NA,NA,NA,NA,NA,NA,NA,NA,NA,NA,NA
"216","stim/objects/Instruments/harmonica2.png",192,76,192,0.9,"stim/22.jpeg",2,2,3,NA,"Instruments",1,3,"left","left",0.654999971,1,1,0,1,NA,NA,NA,NA,NA,NA,NA,NA,NA,NA,NA,NA,NA,NA,NA,NA,NA,NA,NA,NA,NA,NA,NA,NA
"160","stim/objects/Instruments/flute.png",193,76,193,0.5,"stim/34.jpeg",3,4,1,NA,"Instruments",1,2,"left","right",0.619999886,0,0,0,1,NA,NA,NA,NA,NA,NA,NA,NA,NA,NA,NA,NA,NA,NA,NA,NA,NA,NA,NA,NA,NA,NA,NA,NA
"154","stim/objects/Instruments/electricguitar2.png",194,76,194,0.7,"stim/63.jpeg",6,3,2,NA,"Instruments",1,4,"left","left",0.585999966,1,1,0,1,NA,NA,NA,NA,NA,NA,NA,NA,NA,NA,NA,NA,NA,NA,NA,NA,NA,NA,NA,NA,NA,NA,NA,NA
"88","stim/objects/HouseObjects/glass2.png",195,76,195,0.9,"stim/14.jpeg",1,4,3,NA,"HouseObjects",2,1,"right","right",0.630999804,1,1,0,1,NA,NA,NA,NA,NA,NA,NA,NA,NA,NA,NA,NA,NA,NA,NA,NA,NA,NA,NA,NA,NA,NA,NA,NA
"155","stim/objects/Instruments/electricguitar2.png",196,76,196,0.7,"stim/63.jpeg",6,3,2,NA,"Instruments",1,1,"left","left",0.664999962,1,1,0,1,NA,NA,NA,NA,NA,NA,NA,NA,NA,NA,NA,NA,NA,NA,NA,NA,NA,NA,NA,NA,NA,NA,NA,NA
"118","stim/objects/HouseObjects/handvacuum.png",197,76,197,0.7,"stim/54.jpeg",5,4,2,NA,"HouseObjects",2,2,"right","right",0.648999929,1,1,0,1,NA,NA,NA,NA,NA,NA,NA,NA,NA,NA,NA,NA,NA,NA,NA,NA,NA,NA,NA,NA,NA,NA,NA,NA
"93","stim/objects/HouseObjects/glassmop.png",198,76,198,0.7,"stim/51.jpeg",5,1,2,NA,"HouseObjects",2,2,"right","right",0.671999931,1,1,0,1,NA,NA,NA,NA,NA,NA,NA,NA,NA,NA,NA,NA,NA,NA,NA,NA,NA,NA,NA,NA,NA,NA,NA,NA
"144","stim/objects/Instruments/electricdrumset2.png",199,76,199,0.7,"stim/62.jpeg",6,2,2,NA,"Instruments",1,4,"left","left",0.553999901,1,1,0,1,NA,NA,NA,NA,NA,NA,NA,NA,NA,NA,NA,NA,NA,NA,NA,NA,NA,NA,NA,NA,NA,NA,NA,NA
"58","stim/objects/HouseObjects/flyswatter2.png",200,76,200,0.9,"stim/12.jpeg",1,2,3,NA,"HouseObjects",2,2,"right","right",0.511999846,1,1,0,1,NA,NA,NA,NA,NA,NA,NA,NA,NA,NA,NA,NA,NA,NA,NA,NA,NA,NA,NA,NA,NA,NA,NA,NA
"167","stim/objects/Instruments/flute2.png",201,76,201,0.7,"stim/64.jpeg",6,4,2,NA,"Instruments",1,4,"left","left",0.626999855,1,1,0,1,NA,NA,NA,NA,NA,NA,NA,NA,NA,NA,NA,NA,NA,NA,NA,NA,NA,NA,NA,NA,NA,NA,NA,NA
"103","stim/objects/HouseObjects/hairdryer.png",202,76,202,0.7,"stim/52.jpeg",5,2,2,NA,"HouseObjects",2,4,"right","right",0.571999788,1,1,0,1,NA,NA,NA,NA,NA,NA,NA,NA,NA,NA,NA,NA,NA,NA,NA,NA,NA,NA,NA,NA,NA,NA,NA,NA
"4","stim/objects/HouseObjects/coffee.png",203,76,203,0.5,"stim/31.jpeg",3,1,1,NA,"HouseObjects",2,3,"right","right",0.729999781,1,1,0,1,NA,NA,NA,NA,NA,NA,NA,NA,NA,NA,NA,NA,NA,NA,NA,NA,NA,NA,NA,NA,NA,NA,NA,NA
"185","stim/objects/Instruments/gong.png",204,76,204,0.5,"stim/43.jpeg",4,3,1,NA,"Instruments",1,4,"left","left",0.395999908,1,1,0,1,NA,NA,NA,NA,NA,NA,NA,NA,NA,NA,NA,NA,NA,NA,NA,NA,NA,NA,NA,NA,NA,NA,NA,NA
"156","stim/objects/Instruments/electricguitar2.png",205,76,205,0.7,"stim/63.jpeg",6,3,2,NA,"Instruments",1,2,"left","left",0.631000042,1,1,0,1,NA,NA,NA,NA,NA,NA,NA,NA,NA,NA,NA,NA,NA,NA,NA,NA,NA,NA,NA,NA,NA,NA,NA,NA
"110","stim/objects/HouseObjects/handbrush.png",206,76,206,0.7,"stim/53.jpeg",5,3,2,NA,"HouseObjects",2,2,"right","right",0.536000013,1,1,0,1,NA,NA,NA,NA,NA,NA,NA,NA,NA,NA,NA,NA,NA,NA,NA,NA,NA,NA,NA,NA,NA,NA,NA,NA
"148","stim/objects/Instruments/electricguitar.png",207,76,207,0.5,"stim/33.jpeg",3,3,1,NA,"Instruments",1,1,"left","left",0.694000006,1,1,0,1,NA,NA,NA,NA,NA,NA,NA,NA,NA,NA,NA,NA,NA,NA,NA,NA,NA,NA,NA,NA,NA,NA,NA,NA
"46","stim/objects/HouseObjects/dustpan2.png",208,76,208,0.9,"stim/11.jpeg",1,1,3,NA,"HouseObjects",2,1,"right","right",0.57799983,1,1,0,1,NA,NA,NA,NA,NA,NA,NA,NA,NA,NA,NA,NA,NA,NA,NA,NA,NA,NA,NA,NA,NA,NA,NA,NA
"149","stim/objects/Instruments/electricguitar.png",209,76,209,0.5,"stim/33.jpeg",3,3,1,NA,"Instruments",1,4,"left","right",0.449999809,0,0,0,1,NA,NA,NA,NA,NA,NA,NA,NA,NA,NA,NA,NA,NA,NA,NA,NA,NA,NA,NA,NA,NA,NA,NA,NA
"119","stim/objects/HouseObjects/handvacuum.png",210,76,210,0.7,"stim/54.jpeg",5,4,2,NA,"HouseObjects",2,4,"right","right",0.646999836,1,1,0,1,NA,NA,NA,NA,NA,NA,NA,NA,NA,NA,NA,NA,NA,NA,NA,NA,NA,NA,NA,NA,NA,NA,NA,NA
"137","stim/objects/Instruments/electricdrumset.png",211,76,211,0.5,"stim/32.jpeg",3,2,1,NA,"Instruments",1,2,"left","left",0.689999819,1,1,0,1,NA,NA,NA,NA,NA,NA,NA,NA,NA,NA,NA,NA,NA,NA,NA,NA,NA,NA,NA,NA,NA,NA,NA,NA
"228","stim/objects/Instruments/harp2.png",212,76,212,0.9,"stim/23.jpeg",2,3,3,NA,"Instruments",1,1,"left","left",0.631999731,1,1,0,1,NA,NA,NA,NA,NA,NA,NA,NA,NA,NA,NA,NA,NA,NA,NA,NA,NA,NA,NA,NA,NA,NA,NA,NA
"32","stim/objects/HouseObjects/doormat2.png",213,76,213,0.3,"stim/64.jpeg",6,4,2,NA,"HouseObjects",2,4,"right","left",0.648000002,0,0,0,1,NA,NA,NA,NA,NA,NA,NA,NA,NA,NA,NA,NA,NA,NA,NA,NA,NA,NA,NA,NA,NA,NA,NA,NA
"28","stim/objects/HouseObjects/doormat.png",214,76,214,0.5,"stim/34.jpeg",3,4,1,NA,"HouseObjects",2,1,"right","right",0.498999834,1,1,0,1,NA,NA,NA,NA,NA,NA,NA,NA,NA,NA,NA,NA,NA,NA,NA,NA,NA,NA,NA,NA,NA,NA,NA,NA
"202","stim/objects/Instruments/guitarcase2.png",215,76,215,0.9,"stim/21.jpeg",2,1,3,NA,"Instruments",1,2,"left","left",0.549999952,1,1,0,1,NA,NA,NA,NA,NA,NA,NA,NA,NA,NA,NA,NA,NA,NA,NA,NA,NA,NA,NA,NA,NA,NA,NA,NA
"74","stim/objects/HouseObjects/garbagebin2.png",216,76,216,0.9,"stim/13.jpeg",1,3,3,NA,"HouseObjects",2,3,"right","",NA,0,0,0,1,NA,NA,NA,NA,NA,NA,NA,NA,NA,NA,NA,NA,NA,NA,NA,NA,NA,NA,NA,NA,NA,NA,NA,NA
"203","stim/objects/Instruments/guitarcase2.png",217,76,217,0.9,"stim/21.jpeg",2,1,3,NA,"Instruments",1,2,"left","left",0.622999907,1,1,0,1,NA,NA,NA,NA,NA,NA,NA,NA,NA,NA,NA,NA,NA,NA,NA,NA,NA,NA,NA,NA,NA,NA,NA,NA
"29","stim/objects/HouseObjects/doormat.png",218,76,218,0.5,"stim/34.jpeg",3,4,1,NA,"HouseObjects",2,3,"right","right",0.59100008,1,1,0,1,NA,NA,NA,NA,NA,NA,NA,NA,NA,NA,NA,NA,NA,NA,NA,NA,NA,NA,NA,NA,NA,NA,NA,NA
"132","stim/objects/Instruments/drums2.png",219,76,219,0.7,"stim/61.jpeg",6,1,2,NA,"Instruments",1,1,"left","left",0.575999975,1,1,0,1,NA,NA,NA,NA,NA,NA,NA,NA,NA,NA,NA,NA,NA,NA,NA,NA,NA,NA,NA,NA,NA,NA,NA,NA
"59","stim/objects/HouseObjects/flyswatter2.png",220,76,220,0.9,"stim/12.jpeg",1,2,3,NA,"HouseObjects",2,3,"right","right",0.615999937,1,1,0,1,NA,NA,NA,NA,NA,NA,NA,NA,NA,NA,NA,NA,NA,NA,NA,NA,NA,NA,NA,NA,NA,NA,NA,NA
"94","stim/objects/HouseObjects/glassmop.png",221,76,221,0.7,"stim/51.jpeg",5,1,2,NA,"HouseObjects",2,4,"right","right",0.647999763,1,1,0,1,NA,NA,NA,NA,NA,NA,NA,NA,NA,NA,NA,NA,NA,NA,NA,NA,NA,NA,NA,NA,NA,NA,NA,NA
"60","stim/objects/HouseObjects/flyswatter2.png",222,76,222,0.9,"stim/12.jpeg",1,2,3,NA,"HouseObjects",2,4,"right","right",0.573999882,1,1,0,1,NA,NA,NA,NA,NA,NA,NA,NA,NA,NA,NA,NA,NA,NA,NA,NA,NA,NA,NA,NA,NA,NA,NA,NA
"195","stim/objects/Instruments/guitarcase.png",223,76,223,0.3,"stim/51.jpeg",5,1,2,NA,"Instruments",1,3,"left","right",0.579999924,0,0,0,1,NA,NA,NA,NA,NA,NA,NA,NA,NA,NA,NA,NA,NA,NA,NA,NA,NA,NA,NA,NA,NA,NA,NA,NA
"111","stim/objects/HouseObjects/handbrush.png",224,76,224,0.7,"stim/53.jpeg",5,3,2,NA,"HouseObjects",2,2,"right","right",0.559999943,1,1,0,1,NA,NA,NA,NA,NA,NA,NA,NA,NA,NA,NA,NA,NA,NA,NA,NA,NA,NA,NA,NA,NA,NA,NA,NA
"161","stim/objects/Instruments/flute.png",225,76,225,0.5,"stim/34.jpeg",3,4,1,NA,"Instruments",1,3,"left","left",0.479999781,1,1,0,1,NA,NA,NA,NA,NA,NA,NA,NA,NA,NA,NA,NA,NA,NA,NA,NA,NA,NA,NA,NA,NA,NA,NA,NA
"207","stim/objects/Instruments/harmonica.png",226,76,226,0.3,"stim/52.jpeg",5,2,2,NA,"Instruments",1,1,"left","right",0.539999962,0,0,0,1,NA,NA,NA,NA,NA,NA,NA,NA,NA,NA,NA,NA,NA,NA,NA,NA,NA,NA,NA,NA,NA,NA,NA,NA
"230","stim/objects/Instruments/hihat.png",227,76,227,0.3,"stim/54.jpeg",5,4,2,NA,"Instruments",1,2,"left","right",0.549999952,0,0,0,1,NA,NA,NA,NA,NA,NA,NA,NA,NA,NA,NA,NA,NA,NA,NA,NA,NA,NA,NA,NA,NA,NA,NA,NA
"51","stim/objects/HouseObjects/flyswatter.png",228,76,228,0.5,"stim/42.jpeg",4,2,1,NA,"HouseObjects",2,3,"right","left",0.592999935,0,0,0,1,NA,NA,NA,NA,NA,NA,NA,NA,NA,NA,NA,NA,NA,NA,NA,NA,NA,NA,NA,NA,NA,NA,NA,NA
"5","stim/objects/HouseObjects/coffee.png",229,76,229,0.5,"stim/31.jpeg",3,1,1,NA,"HouseObjects",2,1,"right","right",0.460999966,1,1,0,1,NA,NA,NA,NA,NA,NA,NA,NA,NA,NA,NA,NA,NA,NA,NA,NA,NA,NA,NA,NA,NA,NA,NA,NA
"21","stim/objects/HouseObjects/dishsoap.png",230,76,230,0.5,"stim/33.jpeg",3,3,1,NA,"HouseObjects",2,3,"right","right",0.58100009,1,1,0,1,NA,NA,NA,NA,NA,NA,NA,NA,NA,NA,NA,NA,NA,NA,NA,NA,NA,NA,NA,NA,NA,NA,NA,NA
"190","stim/objects/Instruments/grandpiano.png",231,76,231,0.5,"stim/44.jpeg",4,4,1,NA,"Instruments",1,4,"left","left",0.445999861,1,1,0,1,NA,NA,NA,NA,NA,NA,NA,NA,NA,NA,NA,NA,NA,NA,NA,NA,NA,NA,NA,NA,NA,NA,NA,NA
"219","stim/objects/Instruments/harp.png",232,76,232,0.3,"stim/53.jpeg",5,3,2,NA,"Instruments",1,1,"left","right",0.406999826,0,0,0,1,NA,NA,NA,NA,NA,NA,NA,NA,NA,NA,NA,NA,NA,NA,NA,NA,NA,NA,NA,NA,NA,NA,NA,NA
"231","stim/objects/Instruments/hihat.png",233,76,233,0.3,"stim/54.jpeg",5,4,2,NA,"Instruments",1,2,"left","right",0.566999912,0,0,0,1,NA,NA,NA,NA,NA,NA,NA,NA,NA,NA,NA,NA,NA,NA,NA,NA,NA,NA,NA,NA,NA,NA,NA,NA
"191","stim/objects/Instruments/grandpiano.png",234,76,234,0.5,"stim/44.jpeg",4,4,1,NA,"Instruments",1,2,"left","right",0.641000032,0,0,0,1,NA,NA,NA,NA,NA,NA,NA,NA,NA,NA,NA,NA,NA,NA,NA,NA,NA,NA,NA,NA,NA,NA,NA,NA
"24","stim/objects/HouseObjects/dishsoap2.png",235,76,235,0.3,"stim/63.jpeg",6,3,2,NA,"HouseObjects",2,4,"right","left",0.597999811,0,0,0,1,NA,NA,NA,NA,NA,NA,NA,NA,NA,NA,NA,NA,NA,NA,NA,NA,NA,NA,NA,NA,NA,NA,NA,NA
"204","stim/objects/Instruments/guitarcase2.png",236,76,236,0.9,"stim/21.jpeg",2,1,3,NA,"Instruments",1,4,"left","left",0.629999876,1,1,0,1,NA,NA,NA,NA,NA,NA,NA,NA,NA,NA,NA,NA,NA,NA,NA,NA,NA,NA,NA,NA,NA,NA,NA,NA
"168","stim/objects/Instruments/flute2.png",237,76,237,0.7,"stim/64.jpeg",6,4,2,NA,"Instruments",1,4,"left","left",0.536000013,1,1,0,1,NA,NA,NA,NA,NA,NA,NA,NA,NA,NA,NA,NA,NA,NA,NA,NA,NA,NA,NA,NA,NA,NA,NA,NA
"95","stim/objects/HouseObjects/glassmop.png",238,76,238,0.7,"stim/51.jpeg",5,1,2,NA,"HouseObjects",2,4,"right","right",0.493999958,1,1,0,1,NA,NA,NA,NA,NA,NA,NA,NA,NA,NA,NA,NA,NA,NA,NA,NA,NA,NA,NA,NA,NA,NA,NA,NA
"186","stim/objects/Instruments/gong2.png",239,76,239,0.1,"stim/13.jpeg",1,3,3,NA,"Instruments",1,2,"left","right",0.639999866,0,0,0,1,NA,NA,NA,NA,NA,NA,NA,NA,NA,NA,NA,NA,NA,NA,NA,NA,NA,NA,NA,NA,NA,NA,NA,NA
"173","stim/objects/Instruments/flutetrans.png",240,76,240,0.5,"stim/41.jpeg",4,1,1,NA,"Instruments",1,2,"left","left",0.686999798,1,1,0,1,NA,NA,NA,NA,NA,NA,NA,NA,NA,NA,NA,NA,NA,NA,NA,NA,NA,NA,NA,NA,NA,NA,NA,NA
"359","stim/objects/HouseObjects/pitcher3.png",248,76,241,0.9,"stim/14.jpeg",1,4,3,2,"HouseObjects",2,1,"right","right",0.773000002,1,1,1,0,NA,NA,NA,NA,NA,NA,NA,NA,NA,NA,NA,NA,NA,NA,NA,NA,NA,NA,NA,NA,NA,NA,NA,NA
"412","stim/objects/Instruments/balalaika3.png",249,76,242,0.5,"stim/34.jpeg",3,4,1,2,"Instruments",1,4,"left","left",0.639999866,1,1,1,0,NA,NA,NA,NA,NA,NA,NA,NA,NA,NA,NA,NA,NA,NA,NA,NA,NA,NA,NA,NA,NA,NA,NA,NA
"429","stim/objects/Instruments/chime4.png",250,76,243,0.7,"stim/62.jpeg",6,2,2,1,"Instruments",1,4,"left","left",0.766000032,1,1,1,0,4,76,1,0.7,1,"stim/62.jpeg",6,2,"stim/62.jpeg",4,"left",1.399999857,4,2,12.02199984,2,2.269999981,4,1,1,1,0,0,0
"409","stim/objects/Instruments/acousticguitar3.png",251,76,244,0.5,"stim/32.jpeg",3,2,1,2,"Instruments",1,2,"left","right",0.655999899,0,0,1,0,NA,NA,NA,NA,NA,NA,NA,NA,NA,NA,NA,NA,NA,NA,NA,NA,NA,NA,NA,NA,NA,NA,NA,NA
"524","stim/objects/Instruments/oboe3.png",252,76,245,0.9,"stim/22.jpeg",2,2,3,2,"Instruments",1,4,"left","left",0.575999975,1,1,1,0,NA,NA,NA,NA,NA,NA,NA,NA,NA,NA,NA,NA,NA,NA,NA,NA,NA,NA,NA,NA,NA,NA,NA,NA
"262","stim/objects/HouseObjects/broom3.png",253,76,246,0.5,"stim/41.jpeg",4,1,1,2,"HouseObjects",2,4,"right","left",0.635999918,0,0,1,0,NA,NA,NA,NA,NA,NA,NA,NA,NA,NA,NA,NA,NA,NA,NA,NA,NA,NA,NA,NA,NA,NA,NA,NA
"342","stim/objects/HouseObjects/pan3.png",254,76,247,0.9,"stim/13.jpeg",1,3,3,2,"HouseObjects",2,3,"right","right",0.674000025,1,1,1,0,NA,NA,NA,NA,NA,NA,NA,NA,NA,NA,NA,NA,NA,NA,NA,NA,NA,NA,NA,NA,NA,NA,NA,NA
"343","stim/objects/HouseObjects/pan3.png",255,76,248,0.9,"stim/12.jpeg",1,2,3,2,"HouseObjects",2,1,"right","right",0.545000076,1,1,1,0,NA,NA,NA,NA,NA,NA,NA,NA,NA,NA,NA,NA,NA,NA,NA,NA,NA,NA,NA,NA,NA,NA,NA,NA
"247","stim/objects/HouseObjects/barbecuelighter3.png",256,76,249,0.5,"stim/32.jpeg",3,2,1,2,"HouseObjects",2,3,"right","right",0.677999973,1,1,1,0,NA,NA,NA,NA,NA,NA,NA,NA,NA,NA,NA,NA,NA,NA,NA,NA,NA,NA,NA,NA,NA,NA,NA,NA
"507","stim/objects/Instruments/musicstand3.png",257,76,250,0.9,"stim/23.jpeg",2,3,3,2,"Instruments",1,3,"left","left",0.60199976,1,1,1,0,NA,NA,NA,NA,NA,NA,NA,NA,NA,NA,NA,NA,NA,NA,NA,NA,NA,NA,NA,NA,NA,NA,NA,NA
"344","stim/objects/HouseObjects/pan3.png",258,76,251,0.9,"stim/14.jpeg",1,4,3,2,"HouseObjects",2,3,"right","right",0.540999889,1,1,1,0,NA,NA,NA,NA,NA,NA,NA,NA,NA,NA,NA,NA,NA,NA,NA,NA,NA,NA,NA,NA,NA,NA,NA,NA
"360","stim/objects/HouseObjects/pitcher3.png",259,76,252,0.9,"stim/14.jpeg",1,4,3,2,"HouseObjects",2,1,"right","right",0.527999878,1,1,1,0,NA,NA,NA,NA,NA,NA,NA,NA,NA,NA,NA,NA,NA,NA,NA,NA,NA,NA,NA,NA,NA,NA,NA,NA
"325","stim/objects/HouseObjects/match3.png",260,76,253,0.9,"stim/11.jpeg",1,1,3,2,"HouseObjects",2,3,"right","right",0.595999718,1,1,1,0,NA,NA,NA,NA,NA,NA,NA,NA,NA,NA,NA,NA,NA,NA,NA,NA,NA,NA,NA,NA,NA,NA,NA,NA
"456","stim/objects/Instruments/marimba3.png",261,76,254,0.9,"stim/22.jpeg",2,2,3,2,"Instruments",1,4,"left","left",0.523000002,1,1,1,0,NA,NA,NA,NA,NA,NA,NA,NA,NA,NA,NA,NA,NA,NA,NA,NA,NA,NA,NA,NA,NA,NA,NA,NA
"400","stim/objects/HouseObjects/towel3.png",262,76,255,0.7,"stim/54.jpeg",5,4,2,1,"HouseObjects",2,2,"right","right",0.527999878,1,1,1,0,143,76,1,0.7,2,"stim/54.jpeg",5,4,"stim/54.jpeg",2,"left",0.999000072,3,2,1.256999731,1,0.750999928,143,1,0,0,0,0,0
"391","stim/objects/HouseObjects/sponge4.png",263,76,256,0.1,"stim/21.jpeg",2,1,3,1,"HouseObjects",2,3,"right","left",0.713000059,0,0,1,0,51,76,1,0.1,2,"stim/21.jpeg",2,1,"stim/21.jpeg",3,"right",0.727999926,3,1,1.556999922,2,1.46600008,51,0,1,NA,0,NA,0
"508","stim/objects/Instruments/musicstand3.png",264,76,257,0.9,"stim/23.jpeg",2,3,3,2,"Instruments",1,1,"left","left",0.636999846,1,1,1,0,NA,NA,NA,NA,NA,NA,NA,NA,NA,NA,NA,NA,NA,NA,NA,NA,NA,NA,NA,NA,NA,NA,NA,NA
"565","stim/objects/Instruments/violin3.png",265,76,258,0.3,"stim/53.jpeg",5,3,2,1,"Instruments",1,2,"left","right",0.508000135,0,0,1,0,188,76,1,0.3,1,"stim/53.jpeg",5,3,"stim/53.jpeg",2,"left",0.901000023,4,2,1.085000038,1,0.762999773,188,1,0,0,0,0,0
"540","stim/objects/Instruments/oboe4.png",266,76,259,0.1,"stim/11.jpeg",1,1,3,1,"Instruments",1,4,"left","right",0.605999947,0,0,1,0,87,76,1,0.1,1,"stim/11.jpeg",1,1,"stim/11.jpeg",4,"right",0.443000078,2,1,1.095000029,1,0.944000006,87,0,1,NA,0,NA,0
"410","stim/objects/Instruments/acousticguitar3.png",267,76,260,0.5,"stim/33.jpeg",3,3,1,2,"Instruments",1,1,"left","right",0.780999899,0,0,1,0,NA,NA,NA,NA,NA,NA,NA,NA,NA,NA,NA,NA,NA,NA,NA,NA,NA,NA,NA,NA,NA,NA,NA,NA
"509","stim/objects/Instruments/musicstand3.png",268,76,261,0.9,"stim/23.jpeg",2,3,3,2,"Instruments",1,4,"left","left",0.540999889,1,1,1,0,NA,NA,NA,NA,NA,NA,NA,NA,NA,NA,NA,NA,NA,NA,NA,NA,NA,NA,NA,NA,NA,NA,NA,NA
"569","stim/objects/Instruments/xylophone3.png",269,76,262,0.3,"stim/51.jpeg",5,1,2,1,"Instruments",1,1,"left","right",0.487999916,0,0,1,0,171,76,1,0.3,1,"stim/51.jpeg",5,1,"stim/51.jpeg",1,"right",0.872999907,2,2,1.341999769,1,1.303999901,171,0,0,NA,1,NA,0
"447","stim/objects/Instruments/keyboard4.png",270,76,263,0.7,"stim/63.jpeg",6,3,2,1,"Instruments",1,2,"left","left",0.592999935,1,1,1,0,8,76,1,0.7,1,"stim/63.jpeg",6,3,"stim/63.jpeg",2,"left",1.373999834,4,1,2.637000084,3,5.16899991,8,1,0,0,0,0,0
"309","stim/objects/HouseObjects/lintroller3.png",271,76,264,0.9,"stim/14.jpeg",1,4,3,2,"HouseObjects",2,2,"right","right",0.56099987,1,1,1,0,NA,NA,NA,NA,NA,NA,NA,NA,NA,NA,NA,NA,NA,NA,NA,NA,NA,NA,NA,NA,NA,NA,NA,NA
"525","stim/objects/Instruments/oboe3.png",272,76,265,0.9,"stim/22.jpeg",2,2,3,2,"Instruments",1,4,"left","left",0.681999922,1,1,1,0,NA,NA,NA,NA,NA,NA,NA,NA,NA,NA,NA,NA,NA,NA,NA,NA,NA,NA,NA,NA,NA,NA,NA,NA
"268","stim/objects/HouseObjects/clock3.png",273,76,266,0.5,"stim/43.jpeg",4,3,1,2,"HouseObjects",2,1,"right","right",0.513999939,1,1,1,0,NA,NA,NA,NA,NA,NA,NA,NA,NA,NA,NA,NA,NA,NA,NA,NA,NA,NA,NA,NA,NA,NA,NA,NA
"255","stim/objects/HouseObjects/bleachbottle4.png",274,76,267,0.7,"stim/53.jpeg",5,3,2,1,"HouseObjects",2,1,"right","right",0.590999842,1,1,1,0,153,76,1,0.7,2,"stim/53.jpeg",5,3,"stim/53.jpeg",1,"left",1.554999828,3,2,0.945999861,1,1.144999981,153,1,0,0,1,1,0
"387","stim/objects/HouseObjects/saw4.png",275,76,268,0.1,"stim/23.jpeg",2,3,3,1,"HouseObjects",2,2,"right","left",0.46999979,0,0,1,0,73,76,1,0.1,2,"stim/23.jpeg",2,3,"stim/23.jpeg",2,"left",0.761000156,3,3,3.455999851,1,1.324999809,73,1,1,1,0,0,0
"291","stim/objects/HouseObjects/knife3.png",276,76,269,0.9,"stim/11.jpeg",1,1,3,2,"HouseObjects",2,3,"right","right",0.588000059,1,1,1,0,NA,NA,NA,NA,NA,NA,NA,NA,NA,NA,NA,NA,NA,NA,NA,NA,NA,NA,NA,NA,NA,NA,NA,NA
"310","stim/objects/HouseObjects/lintroller3.png",277,76,270,0.9,"stim/14.jpeg",1,4,3,2,"HouseObjects",2,1,"right","right",0.506999969,1,1,1,0,NA,NA,NA,NA,NA,NA,NA,NA,NA,NA,NA,NA,NA,NA,NA,NA,NA,NA,NA,NA,NA,NA,NA,NA
"490","stim/objects/Instruments/musicsheet3.png",278,76,271,0.9,"stim/21.jpeg",2,1,3,2,"Instruments",1,3,"left","left",0.555000067,1,1,1,0,NA,NA,NA,NA,NA,NA,NA,NA,NA,NA,NA,NA,NA,NA,NA,NA,NA,NA,NA,NA,NA,NA,NA,NA
"384","stim/objects/HouseObjects/safetypin3.png",279,76,272,0.5,"stim/32.jpeg",3,2,1,1,"HouseObjects",2,3,"right","right",0.546000004,1,1,1,0,24,76,1,0.5,1,"stim/32.jpeg",3,2,"stim/32.jpeg",3,"right",7.363999844,2,1,1.606999874,3,3.111999989,24,0,0,NA,1,NA,0
"361","stim/objects/HouseObjects/pitcher3.png",280,76,273,0.9,"stim/12.jpeg",1,2,3,2,"HouseObjects",2,4,"right","right",0.63499999,1,1,1,0,NA,NA,NA,NA,NA,NA,NA,NA,NA,NA,NA,NA,NA,NA,NA,NA,NA,NA,NA,NA,NA,NA,NA,NA
"362","stim/objects/HouseObjects/pitcher3.png",281,76,274,0.9,"stim/13.jpeg",1,3,3,2,"HouseObjects",2,4,"right","right",0.643999815,1,1,1,0,NA,NA,NA,NA,NA,NA,NA,NA,NA,NA,NA,NA,NA,NA,NA,NA,NA,NA,NA,NA,NA,NA,NA,NA
"363","stim/objects/HouseObjects/pitcher3.png",282,76,275,0.9,"stim/12.jpeg",1,2,3,2,"HouseObjects",2,2,"right","right",0.552000046,1,1,1,0,NA,NA,NA,NA,NA,NA,NA,NA,NA,NA,NA,NA,NA,NA,NA,NA,NA,NA,NA,NA,NA,NA,NA,NA
"311","stim/objects/HouseObjects/lintroller3.png",283,76,276,0.9,"stim/12.jpeg",1,2,3,2,"HouseObjects",2,1,"right","right",0.520999908,1,1,1,0,NA,NA,NA,NA,NA,NA,NA,NA,NA,NA,NA,NA,NA,NA,NA,NA,NA,NA,NA,NA,NA,NA,NA,NA
"250","stim/objects/HouseObjects/basket3.png",284,76,277,0.5,"stim/34.jpeg",3,4,1,2,"HouseObjects",2,1,"right","left",0.775000095,0,0,1,0,NA,NA,NA,NA,NA,NA,NA,NA,NA,NA,NA,NA,NA,NA,NA,NA,NA,NA,NA,NA,NA,NA,NA,NA
"399","stim/objects/HouseObjects/thread4.png",285,76,278,0.1,"stim/21.jpeg",2,1,3,1,"HouseObjects",2,3,"right","right",0.789999723,1,1,1,0,80,76,1,0.1,2,"stim/21.jpeg",2,1,"stim/21.jpeg",3,"left",4.142999887,3,4,0.332000017,1,1.21999979,80,1,0,0,0,0,0
"327","stim/objects/HouseObjects/match3.png",286,76,279,0.9,"stim/12.jpeg",1,2,3,2,"HouseObjects",2,2,"right","left",0.529999733,0,0,1,0,NA,NA,NA,NA,NA,NA,NA,NA,NA,NA,NA,NA,NA,NA,NA,NA,NA,NA,NA,NA,NA,NA,NA,NA
"444","stim/objects/Instruments/keyboard3.png",287,76,280,0.7,"stim/61.jpeg",6,1,2,2,"Instruments",1,1,"left","left",0.730999947,1,1,1,0,NA,NA,NA,NA,NA,NA,NA,NA,NA,NA,NA,NA,NA,NA,NA,NA,NA,NA,NA,NA,NA,NA,NA,NA
"248","stim/objects/HouseObjects/barbecuelighter3.png",288,76,281,0.5,"stim/33.jpeg",3,3,1,2,"HouseObjects",2,1,"right","right",0.437000036,1,1,1,0,NA,NA,NA,NA,NA,NA,NA,NA,NA,NA,NA,NA,NA,NA,NA,NA,NA,NA,NA,NA,NA,NA,NA,NA
"458","stim/objects/Instruments/marimba3.png",289,76,282,0.9,"stim/24.jpeg",2,4,3,2,"Instruments",1,4,"left","left",0.593999863,1,1,1,0,NA,NA,NA,NA,NA,NA,NA,NA,NA,NA,NA,NA,NA,NA,NA,NA,NA,NA,NA,NA,NA,NA,NA,NA
"308","stim/objects/HouseObjects/lintroller3.png",290,76,283,0.9,"stim/11.jpeg",1,1,3,2,"HouseObjects",2,2,"right","right",0.620999813,1,1,1,0,NA,NA,NA,NA,NA,NA,NA,NA,NA,NA,NA,NA,NA,NA,NA,NA,NA,NA,NA,NA,NA,NA,NA,NA
"364","stim/objects/HouseObjects/pitcher3.png",291,76,284,0.9,"stim/13.jpeg",1,3,3,2,"HouseObjects",2,4,"right","right",0.519999981,1,1,1,0,NA,NA,NA,NA,NA,NA,NA,NA,NA,NA,NA,NA,NA,NA,NA,NA,NA,NA,NA,NA,NA,NA,NA,NA
"287","stim/objects/HouseObjects/key3.png",292,76,285,0.7,"stim/51.jpeg",5,1,2,2,"HouseObjects",2,3,"right","right",0.693000078,1,1,1,0,NA,NA,NA,NA,NA,NA,NA,NA,NA,NA,NA,NA,NA,NA,NA,NA,NA,NA,NA,NA,NA,NA,NA,NA
"365","stim/objects/HouseObjects/pitcher3.png",293,76,286,0.9,"stim/12.jpeg",1,2,3,2,"HouseObjects",2,2,"right","right",0.600999832,1,1,1,0,NA,NA,NA,NA,NA,NA,NA,NA,NA,NA,NA,NA,NA,NA,NA,NA,NA,NA,NA,NA,NA,NA,NA,NA
"328","stim/objects/HouseObjects/match3.png",294,76,287,0.9,"stim/13.jpeg",1,3,3,2,"HouseObjects",2,4,"right","right",0.488999844,1,1,1,0,NA,NA,NA,NA,NA,NA,NA,NA,NA,NA,NA,NA,NA,NA,NA,NA,NA,NA,NA,NA,NA,NA,NA,NA
"473","stim/objects/Instruments/metronome3.png",295,76,288,0.9,"stim/22.jpeg",2,2,3,2,"Instruments",1,1,"left","left",0.566999912,1,1,1,0,NA,NA,NA,NA,NA,NA,NA,NA,NA,NA,NA,NA,NA,NA,NA,NA,NA,NA,NA,NA,NA,NA,NA,NA
"459","stim/objects/Instruments/marimba3.png",296,76,289,0.9,"stim/23.jpeg",2,3,3,2,"Instruments",1,3,"left","left",0.687000036,1,1,1,0,NA,NA,NA,NA,NA,NA,NA,NA,NA,NA,NA,NA,NA,NA,NA,NA,NA,NA,NA,NA,NA,NA,NA,NA
"474","stim/objects/Instruments/metronome3.png",297,76,290,0.9,"stim/22.jpeg",2,2,3,2,"Instruments",1,3,"left","left",0.649999857,1,1,1,0,NA,NA,NA,NA,NA,NA,NA,NA,NA,NA,NA,NA,NA,NA,NA,NA,NA,NA,NA,NA,NA,NA,NA,NA
"252","stim/objects/HouseObjects/basket4.png",298,76,291,0.7,"stim/52.jpeg",5,2,2,1,"HouseObjects",2,2,"right","right",0.566999912,1,1,1,0,74,76,1,0.7,2,"stim/52.jpeg",5,2,"stim/52.jpeg",2,"left",1.345000029,3,2,1.94900012,1,1.11500001,74,1,1,1,0,0,0
"402","stim/objects/HouseObjects/vacuumcleaner3.png",299,76,292,0.7,"stim/51.jpeg",5,1,2,1,"HouseObjects",2,1,"right","right",0.628000021,1,1,1,0,97,76,1,0.7,2,"stim/51.jpeg",5,1,"stim/51.jpeg",1,"left",0.091999769,2,1,1.172999859,1,1.65899992,97,1,1,1,1,1,0
"451","stim/objects/Instruments/laud4.png",300,76,293,0.7,"stim/64.jpeg",6,4,2,1,"Instruments",1,2,"left","left",0.539999962,1,1,1,0,170,76,1,0.7,1,"stim/64.jpeg",6,4,"stim/64.jpeg",2,"right",1.074999809,2,1,2.871999979,3,1.49399972,170,0,0,NA,0,NA,0
"358","stim/objects/HouseObjects/pan4.png",301,76,294,0.9,"stim/12.jpeg",1,2,3,1,"HouseObjects",2,4,"right","right",0.531999826,1,1,1,0,57,76,1,0.9,2,"stim/12.jpeg",1,2,"stim/12.jpeg",4,"right",1.40899992,3,1,1.325999975,4,3.150000095,57,0,0,NA,1,NA,0
"366","stim/objects/HouseObjects/pitcher3.png",302,76,295,0.9,"stim/11.jpeg",1,1,3,2,"HouseObjects",2,2,"right","right",0.695999861,1,1,1,0,NA,NA,NA,NA,NA,NA,NA,NA,NA,NA,NA,NA,NA,NA,NA,NA,NA,NA,NA,NA,NA,NA,NA,NA
"440","stim/objects/Instruments/doublebass3.png",303,76,296,0.7,"stim/62.jpeg",6,2,2,2,"Instruments",1,3,"left","left",0.566999912,1,1,1,0,NA,NA,NA,NA,NA,NA,NA,NA,NA,NA,NA,NA,NA,NA,NA,NA,NA,NA,NA,NA,NA,NA,NA,NA
"424","stim/objects/Instruments/cello3.png",304,76,297,0.5,"stim/41.jpeg",4,1,1,2,"Instruments",1,4,"left","right",0.561999798,0,0,1,0,NA,NA,NA,NA,NA,NA,NA,NA,NA,NA,NA,NA,NA,NA,NA,NA,NA,NA,NA,NA,NA,NA,NA,NA
"420","stim/objects/Instruments/bassdrum4.png",305,76,298,0.3,"stim/52.jpeg",5,2,2,1,"Instruments",1,2,"left","right",0.674000025,0,0,1,0,63,76,1,0.3,1,"stim/52.jpeg",5,2,"stim/52.jpeg",2,"right",1.055999994,2,1,2.612999916,1,0.995999813,63,0,0,NA,0,NA,0
"491","stim/objects/Instruments/musicsheet3.png",306,76,299,0.9,"stim/24.jpeg",2,4,3,2,"Instruments",1,2,"left","left",0.549000025,1,1,1,0,NA,NA,NA,NA,NA,NA,NA,NA,NA,NA,NA,NA,NA,NA,NA,NA,NA,NA,NA,NA,NA,NA,NA,NA
"529","stim/objects/Instruments/oboe3.png",307,76,300,0.9,"stim/23.jpeg",2,3,3,2,"Instruments",1,2,"left","left",0.537999868,1,1,1,0,NA,NA,NA,NA,NA,NA,NA,NA,NA,NA,NA,NA,NA,NA,NA,NA,NA,NA,NA,NA,NA,NA,NA,NA
"346","stim/objects/HouseObjects/pan3.png",308,76,301,0.9,"stim/13.jpeg",1,3,3,2,"HouseObjects",2,1,"right","right",0.546999931,1,1,1,0,NA,NA,NA,NA,NA,NA,NA,NA,NA,NA,NA,NA,NA,NA,NA,NA,NA,NA,NA,NA,NA,NA,NA,NA
"476","stim/objects/Instruments/metronome3.png",309,76,302,0.9,"stim/24.jpeg",2,4,3,2,"Instruments",1,1,"left","left",0.653999805,1,1,1,0,NA,NA,NA,NA,NA,NA,NA,NA,NA,NA,NA,NA,NA,NA,NA,NA,NA,NA,NA,NA,NA,NA,NA,NA
"567","stim/objects/Instruments/vuvuzela3.png",310,76,303,0.3,"stim/54.jpeg",5,4,2,1,"Instruments",1,4,"left","right",0.486999989,0,0,1,0,172,76,1,0.3,1,"stim/54.jpeg",5,4,"stim/54.jpeg",4,"left",1.095999956,4,2,4.095000029,3,1.062999964,172,1,0,0,0,0,0
"263","stim/objects/HouseObjects/broom3.png",311,76,304,0.5,"stim/44.jpeg",4,4,1,2,"HouseObjects",2,4,"right","left",0.648999929,0,0,1,0,NA,NA,NA,NA,NA,NA,NA,NA,NA,NA,NA,NA,NA,NA,NA,NA,NA,NA,NA,NA,NA,NA,NA,NA
"241","stim/objects/HouseObjects/ashtray3.png",312,76,305,0.5,"stim/31.jpeg",3,1,1,2,"HouseObjects",2,4,"right","right",0.583999872,1,1,1,0,NA,NA,NA,NA,NA,NA,NA,NA,NA,NA,NA,NA,NA,NA,NA,NA,NA,NA,NA,NA,NA,NA,NA,NA
"367","stim/objects/HouseObjects/pitcher3.png",313,76,306,0.9,"stim/12.jpeg",1,2,3,2,"HouseObjects",2,1,"right","right",0.578000069,1,1,1,0,NA,NA,NA,NA,NA,NA,NA,NA,NA,NA,NA,NA,NA,NA,NA,NA,NA,NA,NA,NA,NA,NA,NA,NA
"477","stim/objects/Instruments/metronome3.png",314,76,307,0.9,"stim/21.jpeg",2,1,3,2,"Instruments",1,2,"left","left",0.628999949,1,1,1,0,NA,NA,NA,NA,NA,NA,NA,NA,NA,NA,NA,NA,NA,NA,NA,NA,NA,NA,NA,NA,NA,NA,NA,NA
"405","stim/objects/HouseObjects/wateringcan4.png",315,76,308,0.1,"stim/24.jpeg",2,4,3,1,"HouseObjects",2,4,"right","left",0.597999811,0,0,1,0,178,76,1,0.1,2,"stim/24.jpeg",2,4,"stim/24.jpeg",4,"left",0.932999849,3,4,2.246000051,2,7.747999907,178,1,1,1,0,0,0
"293","stim/objects/HouseObjects/knife3.png",316,76,309,0.9,"stim/14.jpeg",1,4,3,2,"HouseObjects",2,3,"right","right",0.519000053,1,1,1,0,NA,NA,NA,NA,NA,NA,NA,NA,NA,NA,NA,NA,NA,NA,NA,NA,NA,NA,NA,NA,NA,NA,NA,NA
"294","stim/objects/HouseObjects/knife3.png",317,76,310,0.9,"stim/11.jpeg",1,1,3,2,"HouseObjects",2,4,"right","right",0.529999971,1,1,1,0,NA,NA,NA,NA,NA,NA,NA,NA,NA,NA,NA,NA,NA,NA,NA,NA,NA,NA,NA,NA,NA,NA,NA,NA
"295","stim/objects/HouseObjects/knife3.png",318,76,311,0.9,"stim/13.jpeg",1,3,3,2,"HouseObjects",2,1,"right","right",0.553999901,1,1,1,0,NA,NA,NA,NA,NA,NA,NA,NA,NA,NA,NA,NA,NA,NA,NA,NA,NA,NA,NA,NA,NA,NA,NA,NA
"556","stim/objects/Instruments/timbal4.png",319,76,312,0.9,"stim/23.jpeg",2,3,3,1,"Instruments",1,1,"left","left",0.532000065,1,1,1,0,104,76,1,0.9,1,"stim/23.jpeg",2,3,"stim/23.jpeg",1,"right",0.823999882,3,2,1.302000046,1,3.16899991,104,0,0,NA,1,NA,0
"460","stim/objects/Instruments/marimba3.png",320,76,313,0.9,"stim/21.jpeg",2,1,3,2,"Instruments",1,2,"left","right",0.556999922,0,0,1,0,NA,NA,NA,NA,NA,NA,NA,NA,NA,NA,NA,NA,NA,NA,NA,NA,NA,NA,NA,NA,NA,NA,NA,NA
"512","stim/objects/Instruments/musicstand3.png",321,76,314,0.9,"stim/22.jpeg",2,2,3,2,"Instruments",1,1,"left","left",0.687000036,1,1,1,0,NA,NA,NA,NA,NA,NA,NA,NA,NA,NA,NA,NA,NA,NA,NA,NA,NA,NA,NA,NA,NA,NA,NA,NA
"553","stim/objects/Instruments/tambourine3.png",322,76,315,0.5,"stim/42.jpeg",4,2,1,1,"Instruments",1,3,"left","right",0.623999834,0,0,1,0,9,76,1,0.5,2,"stim/42.jpeg",4,2,"stim/42.jpeg",3,"right",1.55099988,2,2,2.848999977,1,3.203000069,9,0,1,NA,0,NA,0
"479","stim/objects/Instruments/metronome3.png",323,76,316,0.9,"stim/22.jpeg",2,2,3,2,"Instruments",1,4,"left","left",0.717999697,1,1,1,0,NA,NA,NA,NA,NA,NA,NA,NA,NA,NA,NA,NA,NA,NA,NA,NA,NA,NA,NA,NA,NA,NA,NA,NA
"431","stim/objects/Instruments/clarinet3.png",324,76,317,0.5,"stim/42.jpeg",4,2,1,2,"Instruments",1,2,"left","right",0.674999952,0,0,1,0,NA,NA,NA,NA,NA,NA,NA,NA,NA,NA,NA,NA,NA,NA,NA,NA,NA,NA,NA,NA,NA,NA,NA,NA
"253","stim/objects/HouseObjects/bleachbottle3.png",325,76,318,0.5,"stim/31.jpeg",3,1,1,2,"HouseObjects",2,4,"right","right",0.830999851,1,1,1,0,NA,NA,NA,NA,NA,NA,NA,NA,NA,NA,NA,NA,NA,NA,NA,NA,NA,NA,NA,NA,NA,NA,NA,NA
"283","stim/objects/HouseObjects/ironingboard3.png",326,76,319,0.7,"stim/53.jpeg",5,3,2,2,"HouseObjects",2,2,"right","right",0.62899971,1,1,1,0,NA,NA,NA,NA,NA,NA,NA,NA,NA,NA,NA,NA,NA,NA,NA,NA,NA,NA,NA,NA,NA,NA,NA,NA
"368","stim/objects/HouseObjects/pitcher3.png",327,76,320,0.9,"stim/11.jpeg",1,1,3,2,"HouseObjects",2,1,"right","right",0.663999796,1,1,1,0,NA,NA,NA,NA,NA,NA,NA,NA,NA,NA,NA,NA,NA,NA,NA,NA,NA,NA,NA,NA,NA,NA,NA,NA
"461","stim/objects/Instruments/marimba3.png",328,76,321,0.9,"stim/22.jpeg",2,2,3,2,"Instruments",1,2,"left","left",0.570999861,1,1,1,0,NA,NA,NA,NA,NA,NA,NA,NA,NA,NA,NA,NA,NA,NA,NA,NA,NA,NA,NA,NA,NA,NA,NA,NA
"242","stim/objects/HouseObjects/ashtray3.png",329,76,322,0.5,"stim/34.jpeg",3,4,1,2,"HouseObjects",2,2,"right","right",0.513000011,1,1,1,0,NA,NA,NA,NA,NA,NA,NA,NA,NA,NA,NA,NA,NA,NA,NA,NA,NA,NA,NA,NA,NA,NA,NA,NA
"527","stim/objects/Instruments/oboe3.png",330,76,323,0.9,"stim/22.jpeg",2,2,3,2,"Instruments",1,2,"left","left",0.599999905,1,1,1,0,NA,NA,NA,NA,NA,NA,NA,NA,NA,NA,NA,NA,NA,NA,NA,NA,NA,NA,NA,NA,NA,NA,NA,NA
"271","stim/objects/HouseObjects/clothesdryingrack3.png",331,76,324,0.7,"stim/51.jpeg",5,1,2,2,"HouseObjects",2,2,"right","right",0.296999931,1,1,1,0,NA,NA,NA,NA,NA,NA,NA,NA,NA,NA,NA,NA,NA,NA,NA,NA,NA,NA,NA,NA,NA,NA,NA,NA
"288","stim/objects/HouseObjects/key3.png",332,76,325,0.7,"stim/54.jpeg",5,4,2,2,"HouseObjects",2,2,"right","left",0.539999962,0,0,1,0,NA,NA,NA,NA,NA,NA,NA,NA,NA,NA,NA,NA,NA,NA,NA,NA,NA,NA,NA,NA,NA,NA,NA,NA
"570","stim/objects/Instruments/xylophone4.png",333,76,326,0.9,"stim/22.jpeg",2,2,3,1,"Instruments",1,4,"left","left",0.586999893,1,1,1,0,160,76,1,0.9,1,"stim/22.jpeg",2,2,"stim/22.jpeg",4,"right",1.01699996,2,2,1.946999788,1,0.662999868,160,0,1,NA,0,NA,0
"421","stim/objects/Instruments/bassguitar3.png",334,76,327,0.5,"stim/43.jpeg",4,3,1,2,"Instruments",1,4,"left","right",0.463000059,0,0,1,0,NA,NA,NA,NA,NA,NA,NA,NA,NA,NA,NA,NA,NA,NA,NA,NA,NA,NA,NA,NA,NA,NA,NA,NA
"330","stim/objects/HouseObjects/match3.png",335,76,328,0.9,"stim/11.jpeg",1,1,3,2,"HouseObjects",2,1,"right","right",0.618999958,1,1,1,0,NA,NA,NA,NA,NA,NA,NA,NA,NA,NA,NA,NA,NA,NA,NA,NA,NA,NA,NA,NA,NA,NA,NA,NA
"493","stim/objects/Instruments/musicsheet3.png",336,76,329,0.9,"stim/24.jpeg",2,4,3,2,"Instruments",1,2,"left","left",0.583999872,1,1,1,0,NA,NA,NA,NA,NA,NA,NA,NA,NA,NA,NA,NA,NA,NA,NA,NA,NA,NA,NA,NA,NA,NA,NA,NA
"445","stim/objects/Instruments/keyboard3.png",337,76,330,0.7,"stim/64.jpeg",6,4,2,2,"Instruments",1,2,"left","right",0.74000001,0,0,1,0,NA,NA,NA,NA,NA,NA,NA,NA,NA,NA,NA,NA,NA,NA,NA,NA,NA,NA,NA,NA,NA,NA,NA,NA
"462","stim/objects/Instruments/marimba3.png",338,76,331,0.9,"stim/21.jpeg",2,1,3,2,"Instruments",1,3,"left","right",0.883999825,0,0,1,0,NA,NA,NA,NA,NA,NA,NA,NA,NA,NA,NA,NA,NA,NA,NA,NA,NA,NA,NA,NA,NA,NA,NA,NA
"386","stim/objects/HouseObjects/saw3.png",339,76,332,0.5,"stim/44.jpeg",4,4,1,1,"HouseObjects",2,2,"right","right",0.890000105,1,1,1,0,93,76,1,0.5,2,"stim/44.jpeg",4,4,"stim/44.jpeg",2,"right",1.264999866,3,2,3.243000031,1,1.130999804,93,0,0,NA,0,NA,0
"530","stim/objects/Instruments/oboe3.png",340,76,333,0.9,"stim/23.jpeg",2,3,3,2,"Instruments",1,3,"left","left",0.585000038,1,1,1,0,NA,NA,NA,NA,NA,NA,NA,NA,NA,NA,NA,NA,NA,NA,NA,NA,NA,NA,NA,NA,NA,NA,NA,NA
"531","stim/objects/Instruments/oboe3.png",341,76,334,0.9,"stim/23.jpeg",2,3,3,2,"Instruments",1,1,"left","left",0.531999826,1,1,1,0,NA,NA,NA,NA,NA,NA,NA,NA,NA,NA,NA,NA,NA,NA,NA,NA,NA,NA,NA,NA,NA,NA,NA,NA
"494","stim/objects/Instruments/musicsheet3.png",342,76,335,0.9,"stim/24.jpeg",2,4,3,2,"Instruments",1,2,"left","left",0.549999952,1,1,1,0,NA,NA,NA,NA,NA,NA,NA,NA,NA,NA,NA,NA,NA,NA,NA,NA,NA,NA,NA,NA,NA,NA,NA,NA
"313","stim/objects/HouseObjects/lintroller3.png",343,76,336,0.9,"stim/14.jpeg",1,4,3,2,"HouseObjects",2,2,"right","right",0.556999922,1,1,1,0,NA,NA,NA,NA,NA,NA,NA,NA,NA,NA,NA,NA,NA,NA,NA,NA,NA,NA,NA,NA,NA,NA,NA,NA
"455","stim/objects/Instruments/maraca4.png",344,76,337,0.7,"stim/61.jpeg",6,1,2,1,"Instruments",1,4,"left","left",0.523999929,1,1,1,0,197,76,1,0.7,1,"stim/61.jpeg",6,1,"stim/61.jpeg",4,"left",1.328999996,4,1,2.779000044,3,0.765999794,197,1,1,1,0,0,0
"381","stim/objects/HouseObjects/rubbergloves4.png",345,76,338,0.9,"stim/12.jpeg",1,2,3,1,"HouseObjects",2,2,"right","right",0.542000055,1,1,1,0,47,76,1,0.9,2,"stim/12.jpeg",1,2,"stim/12.jpeg",2,"right",0.930000067,4,3,3.90199995,1,1.221999884,47,0,0,NA,0,NA,0
"543","stim/objects/Instruments/pipepiano3.png",346,76,339,0.5,"stim/34.jpeg",3,4,1,1,"Instruments",1,2,"left","left",0.725999832,1,1,1,0,83,76,1,0.5,1,"stim/34.jpeg",3,4,"stim/34.jpeg",2,"left",1.095999956,4,3,1.472999811,1,0.967999935,83,1,0,0,0,0,0
"265","stim/objects/HouseObjects/bucket3.png",347,76,340,0.5,"stim/41.jpeg",4,1,1,2,"HouseObjects",2,2,"right","right",0.601999998,1,1,1,0,NA,NA,NA,NA,NA,NA,NA,NA,NA,NA,NA,NA,NA,NA,NA,NA,NA,NA,NA,NA,NA,NA,NA,NA
"496","stim/objects/Instruments/musicsheet3.png",348,76,341,0.9,"stim/22.jpeg",2,2,3,2,"Instruments",1,4,"left","left",0.576999903,1,1,1,0,NA,NA,NA,NA,NA,NA,NA,NA,NA,NA,NA,NA,NA,NA,NA,NA,NA,NA,NA,NA,NA,NA,NA,NA
"532","stim/objects/Instruments/oboe3.png",349,76,342,0.9,"stim/24.jpeg",2,4,3,2,"Instruments",1,1,"left","right",0.485999823,0,0,1,0,NA,NA,NA,NA,NA,NA,NA,NA,NA,NA,NA,NA,NA,NA,NA,NA,NA,NA,NA,NA,NA,NA,NA,NA
"464","stim/objects/Instruments/marimba3.png",350,76,343,0.9,"stim/22.jpeg",2,2,3,2,"Instruments",1,3,"left","left",0.588999748,1,1,1,0,NA,NA,NA,NA,NA,NA,NA,NA,NA,NA,NA,NA,NA,NA,NA,NA,NA,NA,NA,NA,NA,NA,NA,NA
"401","stim/objects/HouseObjects/towel4.png",351,76,344,0.1,"stim/22.jpeg",2,2,3,1,"HouseObjects",2,2,"right","left",0.56099987,0,0,1,0,65,76,1,0.1,2,"stim/22.jpeg",2,2,"stim/22.jpeg",2,"right",1.440999985,2,2,1.639999866,3,1.780999899,65,0,1,NA,0,NA,0
"245","stim/objects/HouseObjects/ballofstring3.png",352,76,345,0.5,"stim/32.jpeg",3,2,1,2,"HouseObjects",2,3,"right","right",0.565000057,1,1,1,0,NA,NA,NA,NA,NA,NA,NA,NA,NA,NA,NA,NA,NA,NA,NA,NA,NA,NA,NA,NA,NA,NA,NA,NA
"557","stim/objects/Instruments/triangle3.png",353,76,346,0.5,"stim/44.jpeg",4,4,1,1,"Instruments",1,1,"left","right",0.90899992,0,0,1,0,21,76,1,0.5,2,"stim/44.jpeg",4,4,"stim/44.jpeg",1,"right",2.767999887,3,2,1.112999916,2,1.605999947,21,0,0,NA,0,NA,0
"465","stim/objects/Instruments/marimba3.png",354,76,347,0.9,"stim/21.jpeg",2,1,3,2,"Instruments",1,3,"left","",NA,0,0,1,0,NA,NA,NA,NA,NA,NA,NA,NA,NA,NA,NA,NA,NA,NA,NA,NA,NA,NA,NA,NA,NA,NA,NA,NA
"434","stim/objects/Instruments/cornet3.png",355,76,348,0.5,"stim/44.jpeg",4,4,1,2,"Instruments",1,4,"left","left",0.751999855,1,1,1,0,NA,NA,NA,NA,NA,NA,NA,NA,NA,NA,NA,NA,NA,NA,NA,NA,NA,NA,NA,NA,NA,NA,NA,NA
"275","stim/objects/HouseObjects/clothespin3.png",356,76,349,0.7,"stim/54.jpeg",5,4,2,2,"HouseObjects",2,4,"right","right",0.632999897,1,1,1,0,NA,NA,NA,NA,NA,NA,NA,NA,NA,NA,NA,NA,NA,NA,NA,NA,NA,NA,NA,NA,NA,NA,NA,NA
"439","stim/objects/Instruments/cymbal4.png",357,76,350,0.7,"stim/61.jpeg",6,1,2,1,"Instruments",1,1,"left","left",0.630000114,1,1,1,0,186,76,1,0.7,1,"stim/61.jpeg",6,1,"stim/61.jpeg",1,"left",0.968999863,2,1,1.45299983,3,0.784999847,186,1,1,1,0,0,0
"254","stim/objects/HouseObjects/bleachbottle3.png",358,76,351,0.5,"stim/34.jpeg",3,4,1,2,"HouseObjects",2,3,"right","right",0.479999781,1,1,1,0,NA,NA,NA,NA,NA,NA,NA,NA,NA,NA,NA,NA,NA,NA,NA,NA,NA,NA,NA,NA,NA,NA,NA,NA
"332","stim/objects/HouseObjects/match3.png",359,76,352,0.9,"stim/13.jpeg",1,3,3,2,"HouseObjects",2,4,"right","right",0.706999779,1,1,1,0,NA,NA,NA,NA,NA,NA,NA,NA,NA,NA,NA,NA,NA,NA,NA,NA,NA,NA,NA,NA,NA,NA,NA,NA
"298","stim/objects/HouseObjects/knife3.png",360,76,353,0.9,"stim/12.jpeg",1,2,3,2,"HouseObjects",2,3,"right","right",0.556999922,1,1,1,0,NA,NA,NA,NA,NA,NA,NA,NA,NA,NA,NA,NA,NA,NA,NA,NA,NA,NA,NA,NA,NA,NA,NA,NA
"333","stim/objects/HouseObjects/match3.png",361,76,354,0.9,"stim/14.jpeg",1,4,3,2,"HouseObjects",2,2,"right","right",0.441999912,1,1,1,0,NA,NA,NA,NA,NA,NA,NA,NA,NA,NA,NA,NA,NA,NA,NA,NA,NA,NA,NA,NA,NA,NA,NA,NA
"480","stim/objects/Instruments/metronome3.png",362,76,355,0.9,"stim/23.jpeg",2,3,3,2,"Instruments",1,2,"left","right",0.455999851,0,0,1,0,NA,NA,NA,NA,NA,NA,NA,NA,NA,NA,NA,NA,NA,NA,NA,NA,NA,NA,NA,NA,NA,NA,NA,NA
"560","stim/objects/Instruments/trombone4.png",363,76,356,0.9,"stim/21.jpeg",2,1,3,1,"Instruments",1,2,"left","left",0.611000061,1,1,1,0,180,76,1,0.9,1,"stim/21.jpeg",2,1,"stim/21.jpeg",2,"right",7.537999868,2,2,0.980999947,3,0.961999893,180,0,0,NA,0,NA,0
"498","stim/objects/Instruments/musicsheet3.png",364,76,357,0.9,"stim/23.jpeg",2,3,3,2,"Instruments",1,1,"left","left",0.463999987,1,1,1,0,NA,NA,NA,NA,NA,NA,NA,NA,NA,NA,NA,NA,NA,NA,NA,NA,NA,NA,NA,NA,NA,NA,NA,NA
"272","stim/objects/HouseObjects/clothesdryingrack3.png",365,76,358,0.7,"stim/54.jpeg",5,4,2,2,"HouseObjects",2,1,"right","right",0.535000086,1,1,1,0,NA,NA,NA,NA,NA,NA,NA,NA,NA,NA,NA,NA,NA,NA,NA,NA,NA,NA,NA,NA,NA,NA,NA,NA
"314","stim/objects/HouseObjects/lintroller3.png",366,76,359,0.9,"stim/11.jpeg",1,1,3,2,"HouseObjects",2,1,"right","right",0.608999968,1,1,1,0,NA,NA,NA,NA,NA,NA,NA,NA,NA,NA,NA,NA,NA,NA,NA,NA,NA,NA,NA,NA,NA,NA,NA,NA
"436","stim/objects/Instruments/cymbal3.png",367,76,360,0.7,"stim/61.jpeg",6,1,2,2,"Instruments",1,4,"left","left",0.562999964,1,1,1,0,NA,NA,NA,NA,NA,NA,NA,NA,NA,NA,NA,NA,NA,NA,NA,NA,NA,NA,NA,NA,NA,NA,NA,NA
"499","stim/objects/Instruments/musicsheet3.png",368,76,361,0.9,"stim/23.jpeg",2,3,3,2,"Instruments",1,4,"left","left",0.609999895,1,1,1,0,NA,NA,NA,NA,NA,NA,NA,NA,NA,NA,NA,NA,NA,NA,NA,NA,NA,NA,NA,NA,NA,NA,NA,NA
"453","stim/objects/Instruments/maraca3.png",369,76,362,0.7,"stim/61.jpeg",6,1,2,2,"Instruments",1,4,"left","left",0.652999878,1,1,1,0,NA,NA,NA,NA,NA,NA,NA,NA,NA,NA,NA,NA,NA,NA,NA,NA,NA,NA,NA,NA,NA,NA,NA,NA
"312","stim/objects/HouseObjects/lintroller3.png",370,76,363,0.9,"stim/14.jpeg",1,4,3,2,"HouseObjects",2,1,"right","right",0.562000036,1,1,1,0,NA,NA,NA,NA,NA,NA,NA,NA,NA,NA,NA,NA,NA,NA,NA,NA,NA,NA,NA,NA,NA,NA,NA,NA
"341","stim/objects/HouseObjects/match4.png",371,76,364,0.9,"stim/11.jpeg",1,1,3,1,"HouseObjects",2,2,"right","right",0.467999935,1,1,1,0,7,76,1,0.9,2,"stim/11.jpeg",1,1,"stim/11.jpeg",2,"left",1.179000139,4,3,5.139999866,1,2.521999836,7,1,0,0,0,0,0
"513","stim/objects/Instruments/musicstand3.png",372,76,365,0.9,"stim/24.jpeg",2,4,3,2,"Instruments",1,3,"left","left",0.638999939,1,1,1,0,NA,NA,NA,NA,NA,NA,NA,NA,NA,NA,NA,NA,NA,NA,NA,NA,NA,NA,NA,NA,NA,NA,NA,NA
"270","stim/objects/HouseObjects/clock4.png",373,76,366,0.3,"stim/62.jpeg",6,2,2,1,"HouseObjects",2,2,"right","left",0.559999943,0,0,1,0,189,76,1,0.3,2,"stim/62.jpeg",6,2,"stim/62.jpeg",2,"left",4.777999878,2,2,0.818000078,3,0.833999872,189,1,1,1,0,0,0
"300","stim/objects/HouseObjects/knife3.png",374,76,367,0.9,"stim/14.jpeg",1,4,3,2,"HouseObjects",2,4,"right","right",0.494999886,1,1,1,0,NA,NA,NA,NA,NA,NA,NA,NA,NA,NA,NA,NA,NA,NA,NA,NA,NA,NA,NA,NA,NA,NA,NA,NA
"533","stim/objects/Instruments/oboe3.png",375,76,368,0.9,"stim/24.jpeg",2,4,3,2,"Instruments",1,4,"left","left",0.481999874,1,1,1,0,NA,NA,NA,NA,NA,NA,NA,NA,NA,NA,NA,NA,NA,NA,NA,NA,NA,NA,NA,NA,NA,NA,NA,NA
"260","stim/objects/HouseObjects/bottle3.png",376,76,369,0.5,"stim/44.jpeg",4,4,1,2,"HouseObjects",2,2,"right","right",0.556999922,1,1,1,0,NA,NA,NA,NA,NA,NA,NA,NA,NA,NA,NA,NA,NA,NA,NA,NA,NA,NA,NA,NA,NA,NA,NA,NA
"290","stim/objects/HouseObjects/key4.png",377,76,370,0.3,"stim/63.jpeg",6,3,2,1,"HouseObjects",2,1,"right","left",0.606999874,0,0,1,0,165,76,1,0.3,2,"stim/63.jpeg",6,3,"stim/63.jpeg",1,"left",0.961999893,2,2,1.105999947,3,1.017999887,165,1,0,0,0,0,0
"481","stim/objects/Instruments/metronome3.png",378,76,371,0.9,"stim/23.jpeg",2,3,3,2,"Instruments",1,3,"left","left",0.706999779,1,1,1,0,NA,NA,NA,NA,NA,NA,NA,NA,NA,NA,NA,NA,NA,NA,NA,NA,NA,NA,NA,NA,NA,NA,NA,NA
"500","stim/objects/Instruments/musicsheet3.png",379,76,372,0.9,"stim/21.jpeg",2,1,3,2,"Instruments",1,4,"left","left",0.549000025,1,1,1,0,NA,NA,NA,NA,NA,NA,NA,NA,NA,NA,NA,NA,NA,NA,NA,NA,NA,NA,NA,NA,NA,NA,NA,NA
"375","stim/objects/HouseObjects/pitcher4.png",380,76,373,0.9,"stim/13.jpeg",1,3,3,1,"HouseObjects",2,3,"right","right",0.610999823,1,1,1,0,194,76,1,0.9,2,"stim/13.jpeg",1,3,"stim/13.jpeg",3,"right",0.855000019,3,1,0.963999987,4,1.640999794,194,0,0,NA,0,NA,0
"415","stim/objects/Instruments/banjo3.png",381,76,374,0.5,"stim/34.jpeg",3,4,1,2,"Instruments",1,3,"left","right",0.746999979,0,0,1,0,NA,NA,NA,NA,NA,NA,NA,NA,NA,NA,NA,NA,NA,NA,NA,NA,NA,NA,NA,NA,NA,NA,NA,NA
"389","stim/objects/HouseObjects/scale4.png",382,76,375,0.1,"stim/24.jpeg",2,4,3,1,"HouseObjects",2,2,"right","left",0.519999981,0,0,1,0,16,76,1,0.1,2,"stim/24.jpeg",2,4,"stim/24.jpeg",2,"right",2.865999937,2,2,3.245999813,3,0.987999916,16,0,0,NA,0,NA,0
"430","stim/objects/Instruments/clarinet3.png",383,76,376,0.5,"stim/43.jpeg",4,3,1,2,"Instruments",1,2,"left","left",0.643999815,1,1,1,0,NA,NA,NA,NA,NA,NA,NA,NA,NA,NA,NA,NA,NA,NA,NA,NA,NA,NA,NA,NA,NA,NA,NA,NA
"395","stim/objects/HouseObjects/teapot4.png",384,76,377,0.1,"stim/23.jpeg",2,3,3,1,"HouseObjects",2,2,"right","left",0.552999973,0,0,1,0,109,76,1,0.1,2,"stim/23.jpeg",2,3,"stim/23.jpeg",2,"right",1.087999821,3,2,1.280999899,3,1.615999937,109,0,0,NA,0,NA,0
"257","stim/objects/HouseObjects/blender3.png",385,76,378,0.5,"stim/42.jpeg",4,2,1,2,"HouseObjects",2,1,"right","right",0.523999929,1,1,1,0,NA,NA,NA,NA,NA,NA,NA,NA,NA,NA,NA,NA,NA,NA,NA,NA,NA,NA,NA,NA,NA,NA,NA,NA
"448","stim/objects/Instruments/laud3.png",386,76,379,0.7,"stim/61.jpeg",6,1,2,2,"Instruments",1,3,"left","left",0.705999851,1,1,1,0,NA,NA,NA,NA,NA,NA,NA,NA,NA,NA,NA,NA,NA,NA,NA,NA,NA,NA,NA,NA,NA,NA,NA,NA
"547","stim/objects/Instruments/record3.png",387,76,380,0.5,"stim/31.jpeg",3,1,1,1,"Instruments",1,4,"left","right",0.470999956,0,0,1,0,68,76,1,0.5,1,"stim/31.jpeg",3,1,"stim/31.jpeg",4,"left",0.839999914,4,3,3.513999939,1,1.628999949,68,1,0,0,0,0,0
"279","stim/objects/HouseObjects/iron3.png",388,76,381,0.7,"stim/51.jpeg",5,1,2,2,"HouseObjects",2,3,"right","right",0.588000059,1,1,1,0,NA,NA,NA,NA,NA,NA,NA,NA,NA,NA,NA,NA,NA,NA,NA,NA,NA,NA,NA,NA,NA,NA,NA,NA
"523","stim/objects/Instruments/musicstand4.png",389,76,382,0.1,"stim/14.jpeg",1,4,3,1,"Instruments",1,2,"left","right",0.582999945,0,0,1,0,137,76,1,0.1,1,"stim/14.jpeg",1,4,"stim/14.jpeg",2,"left",2.164999962,3,1,1.71999979,3,1.594000101,137,1,0,0,0,0,0
"244","stim/objects/HouseObjects/ballofstring3.png",390,76,383,0.5,"stim/31.jpeg",3,1,1,2,"HouseObjects",2,3,"right","right",0.694999933,1,1,1,0,NA,NA,NA,NA,NA,NA,NA,NA,NA,NA,NA,NA,NA,NA,NA,NA,NA,NA,NA,NA,NA,NA,NA,NA
"510","stim/objects/Instruments/musicstand3.png",391,76,384,0.9,"stim/24.jpeg",2,4,3,2,"Instruments",1,3,"left","left",0.519000053,1,1,1,0,NA,NA,NA,NA,NA,NA,NA,NA,NA,NA,NA,NA,NA,NA,NA,NA,NA,NA,NA,NA,NA,NA,NA,NA
"258","stim/objects/HouseObjects/blender4.png",392,76,385,0.3,"stim/62.jpeg",6,2,2,1,"HouseObjects",2,1,"right","left",0.64199996,0,0,1,0,76,76,1,0.3,2,"stim/62.jpeg",6,2,"stim/62.jpeg",1,"left",1.000999928,3,2,1.592999935,1,1.65199995,76,1,1,1,1,1,0
"442","stim/objects/Instruments/doublebass3.png",393,76,386,0.7,"stim/63.jpeg",6,3,2,2,"Instruments",1,2,"left","left",0.634000063,1,1,1,0,NA,NA,NA,NA,NA,NA,NA,NA,NA,NA,NA,NA,NA,NA,NA,NA,NA,NA,NA,NA,NA,NA,NA,NA
"370","stim/objects/HouseObjects/pitcher3.png",394,76,387,0.9,"stim/14.jpeg",1,4,3,2,"HouseObjects",2,2,"right","right",0.578999996,1,1,1,0,NA,NA,NA,NA,NA,NA,NA,NA,NA,NA,NA,NA,NA,NA,NA,NA,NA,NA,NA,NA,NA,NA,NA,NA
"457","stim/objects/Instruments/marimba3.png",395,76,388,0.9,"stim/22.jpeg",2,2,3,2,"Instruments",1,1,"left","left",0.64199996,1,1,1,0,NA,NA,NA,NA,NA,NA,NA,NA,NA,NA,NA,NA,NA,NA,NA,NA,NA,NA,NA,NA,NA,NA,NA,NA
"406","stim/objects/Instruments/accordion3.png",396,76,389,0.5,"stim/32.jpeg",3,2,1,2,"Instruments",1,1,"left","right",0.503999949,0,0,1,0,NA,NA,NA,NA,NA,NA,NA,NA,NA,NA,NA,NA,NA,NA,NA,NA,NA,NA,NA,NA,NA,NA,NA,NA
"497","stim/objects/Instruments/musicsheet3.png",397,76,390,0.9,"stim/21.jpeg",2,1,3,2,"Instruments",1,4,"left","left",0.582000017,1,1,1,0,NA,NA,NA,NA,NA,NA,NA,NA,NA,NA,NA,NA,NA,NA,NA,NA,NA,NA,NA,NA,NA,NA,NA,NA
"416","stim/objects/Instruments/banjo3.png",398,76,391,0.5,"stim/31.jpeg",3,1,1,2,"Instruments",1,1,"left","right",0.566999912,0,0,1,0,NA,NA,NA,NA,NA,NA,NA,NA,NA,NA,NA,NA,NA,NA,NA,NA,NA,NA,NA,NA,NA,NA,NA,NA
"546","stim/objects/Instruments/record_player4.png",399,76,392,0.1,"stim/11.jpeg",1,1,3,1,"Instruments",1,1,"left","right",0.575999737,0,0,1,0,40,76,1,0.1,1,"stim/11.jpeg",1,1,"stim/11.jpeg",1,"left",0.974999905,4,1,1.5849998,3,0.885999918,40,1,1,1,0,0,0
"256","stim/objects/HouseObjects/blender3.png",400,76,393,0.5,"stim/43.jpeg",4,3,1,2,"HouseObjects",2,2,"right","left",0.544999838,0,0,1,0,NA,NA,NA,NA,NA,NA,NA,NA,NA,NA,NA,NA,NA,NA,NA,NA,NA,NA,NA,NA,NA,NA,NA,NA
"544","stim/objects/Instruments/pipepiano4.png",401,76,394,0.1,"stim/13.jpeg",1,3,3,1,"Instruments",1,3,"left","right",0.618999958,0,0,1,0,140,76,1,0.1,1,"stim/13.jpeg",1,3,"stim/13.jpeg",3,"right",1.440999746,3,1,0.875,1,0.701999903,140,0,0,NA,0,NA,0
"335","stim/objects/HouseObjects/match3.png",402,76,395,0.9,"stim/12.jpeg",1,2,3,2,"HouseObjects",2,3,"right","right",0.566999912,1,1,1,0,NA,NA,NA,NA,NA,NA,NA,NA,NA,NA,NA,NA,NA,NA,NA,NA,NA,NA,NA,NA,NA,NA,NA,NA
"545","stim/objects/Instruments/record_player3.png",403,76,396,0.5,"stim/32.jpeg",3,2,1,1,"Instruments",1,1,"left","left",0.826999903,1,1,1,0,134,76,1,0.5,1,"stim/32.jpeg",3,2,"stim/32.jpeg",1,"left",1.319000006,2,2,1.144999981,3,1.498999834,134,1,1,1,0,0,0
"446","stim/objects/Instruments/keyboard3.png",404,76,397,0.7,"stim/63.jpeg",6,3,2,2,"Instruments",1,2,"left","left",0.529000044,1,1,1,0,NA,NA,NA,NA,NA,NA,NA,NA,NA,NA,NA,NA,NA,NA,NA,NA,NA,NA,NA,NA,NA,NA,NA,NA
"301","stim/objects/HouseObjects/knife3.png",405,76,398,0.9,"stim/14.jpeg",1,4,3,2,"HouseObjects",2,1,"right","right",0.467999935,1,1,1,0,NA,NA,NA,NA,NA,NA,NA,NA,NA,NA,NA,NA,NA,NA,NA,NA,NA,NA,NA,NA,NA,NA,NA,NA
"526","stim/objects/Instruments/oboe3.png",406,76,399,0.9,"stim/22.jpeg",2,2,3,2,"Instruments",1,1,"left","left",0.591999769,1,1,1,0,NA,NA,NA,NA,NA,NA,NA,NA,NA,NA,NA,NA,NA,NA,NA,NA,NA,NA,NA,NA,NA,NA,NA,NA
"249","stim/objects/HouseObjects/barbecuelighter4.png",407,76,400,0.7,"stim/51.jpeg",5,1,2,1,"HouseObjects",2,4,"right","right",0.583999872,1,1,1,0,199,76,1,0.7,2,"stim/51.jpeg",5,1,"stim/51.jpeg",4,"right",1.013999939,3,2,0.933999777,3,0.903999805,199,0,0,NA,0,NA,0
"351","stim/objects/HouseObjects/pan3.png",408,76,401,0.9,"stim/12.jpeg",1,2,3,2,"HouseObjects",2,1,"right","right",0.575999975,1,1,1,0,NA,NA,NA,NA,NA,NA,NA,NA,NA,NA,NA,NA,NA,NA,NA,NA,NA,NA,NA,NA,NA,NA,NA,NA
"379","stim/objects/HouseObjects/remote4.png",409,76,402,0.9,"stim/11.jpeg",1,1,3,1,"HouseObjects",2,1,"right","right",0.529000044,1,1,1,0,37,76,1,0.9,2,"stim/11.jpeg",1,1,"stim/11.jpeg",1,"right",1.194999933,4,1,1.368000031,2,0.539000034,37,0,1,NA,0,NA,0
"299","stim/objects/HouseObjects/knife3.png",410,76,403,0.9,"stim/13.jpeg",1,3,3,2,"HouseObjects",2,2,"right","right",0.633999825,1,1,1,0,NA,NA,NA,NA,NA,NA,NA,NA,NA,NA,NA,NA,NA,NA,NA,NA,NA,NA,NA,NA,NA,NA,NA,NA
"369","stim/objects/HouseObjects/pitcher3.png",411,76,404,0.9,"stim/13.jpeg",1,3,3,2,"HouseObjects",2,2,"right","right",0.445999861,1,1,1,0,NA,NA,NA,NA,NA,NA,NA,NA,NA,NA,NA,NA,NA,NA,NA,NA,NA,NA,NA,NA,NA,NA,NA,NA
"278","stim/objects/HouseObjects/clothespin4.png",412,76,405,0.3,"stim/64.jpeg",6,4,2,1,"HouseObjects",2,1,"right","left",0.517999887,0,0,1,0,77,76,1,0.3,2,"stim/64.jpeg",6,4,"stim/64.jpeg",1,"right",0.929999828,2,2,1.743999958,1,1.660999775,77,0,0,NA,1,NA,0
"555","stim/objects/Instruments/timbal3.png",413,76,406,0.5,"stim/43.jpeg",4,3,1,1,"Instruments",1,1,"left","right",0.597999811,0,0,1,0,29,76,1,0.5,2,"stim/43.jpeg",4,3,"stim/43.jpeg",1,"right",1.17599988,3,2,1.838999987,3,1.001999855,29,0,0,NA,0,NA,0
"398","stim/objects/HouseObjects/thread3.png",414,76,407,0.7,"stim/53.jpeg",5,3,2,1,"HouseObjects",2,1,"right","right",0.595999956,1,1,1,0,31,76,1,0.7,2,"stim/53.jpeg",5,3,"stim/53.jpeg",1,"left",1.350999832,2,3,2.029000044,1,0.992999792,31,1,1,1,1,1,0
"454","stim/objects/Instruments/maraca3.png",415,76,408,0.7,"stim/63.jpeg",6,3,2,2,"Instruments",1,3,"left","left",0.522000074,1,1,1,0,NA,NA,NA,NA,NA,NA,NA,NA,NA,NA,NA,NA,NA,NA,NA,NA,NA,NA,NA,NA,NA,NA,NA,NA
"467","stim/objects/Instruments/marimba3.png",416,76,409,0.9,"stim/23.jpeg",2,3,3,2,"Instruments",1,2,"left","left",0.523000002,1,1,1,0,NA,NA,NA,NA,NA,NA,NA,NA,NA,NA,NA,NA,NA,NA,NA,NA,NA,NA,NA,NA,NA,NA,NA,NA
"541","stim/objects/Instruments/panflute3.png",417,76,410,0.5,"stim/33.jpeg",3,3,1,1,"Instruments",1,2,"left","right",0.383999825,0,0,1,0,100,76,1,0.5,1,"stim/33.jpeg",3,3,"stim/33.jpeg",2,"right",0.951999903,3,2,1.111000061,1,0.750999928,100,0,0,NA,0,NA,0
"302","stim/objects/HouseObjects/knife3.png",418,76,411,0.9,"stim/13.jpeg",1,3,3,2,"HouseObjects",2,4,"right","left",0.482000113,0,0,1,0,NA,NA,NA,NA,NA,NA,NA,NA,NA,NA,NA,NA,NA,NA,NA,NA,NA,NA,NA,NA,NA,NA,NA,NA
"345","stim/objects/HouseObjects/pan3.png",419,76,412,0.9,"stim/11.jpeg",1,1,3,2,"HouseObjects",2,2,"right","right",0.516000032,1,1,1,0,NA,NA,NA,NA,NA,NA,NA,NA,NA,NA,NA,NA,NA,NA,NA,NA,NA,NA,NA,NA,NA,NA,NA,NA
"475","stim/objects/Instruments/metronome3.png",420,76,413,0.9,"stim/21.jpeg",2,1,3,2,"Instruments",1,1,"left","right",0.506999969,0,0,1,0,NA,NA,NA,NA,NA,NA,NA,NA,NA,NA,NA,NA,NA,NA,NA,NA,NA,NA,NA,NA,NA,NA,NA,NA
"452","stim/objects/Instruments/maraca3.png",421,76,414,0.7,"stim/62.jpeg",6,2,2,2,"Instruments",1,1,"left","left",0.645999908,1,1,1,0,NA,NA,NA,NA,NA,NA,NA,NA,NA,NA,NA,NA,NA,NA,NA,NA,NA,NA,NA,NA,NA,NA,NA,NA
"408","stim/objects/Instruments/accordion4.png",422,76,415,0.3,"stim/52.jpeg",5,2,2,1,"Instruments",1,1,"left","right",0.589999914,0,0,1,0,102,76,1,0.3,1,"stim/52.jpeg",5,2,"stim/52.jpeg",1,"right",0.751999855,3,2,1.35800004,1,1.343999863,102,0,1,NA,1,NA,0
"307","stim/objects/HouseObjects/knife4.png",423,76,416,0.9,"stim/13.jpeg",1,3,3,1,"HouseObjects",2,2,"right","right",0.615999937,1,1,1,0,169,76,1,0.9,2,"stim/13.jpeg",1,3,"stim/13.jpeg",2,"right",1.270999908,1,1,0.885999918,2,1.378000021,169,0,0,NA,1,NA,0
"274","stim/objects/HouseObjects/clothesdryingrack4.png",424,76,417,0.3,"stim/63.jpeg",6,3,2,1,"HouseObjects",2,3,"right","left",0.487999916,0,0,1,0,98,76,1,0.3,2,"stim/63.jpeg",6,3,"stim/63.jpeg",3,"right",1.145999908,3,4,2.397000074,1,1.072000027,98,0,0,NA,0,NA,0
"450","stim/objects/Instruments/laud3.png",425,76,418,0.7,"stim/64.jpeg",6,4,2,2,"Instruments",1,3,"left","right",0.57400012,0,0,1,0,NA,NA,NA,NA,NA,NA,NA,NA,NA,NA,NA,NA,NA,NA,NA,NA,NA,NA,NA,NA,NA,NA,NA,NA
"292","stim/objects/HouseObjects/knife3.png",426,76,419,0.9,"stim/14.jpeg",1,4,3,2,"HouseObjects",2,2,"right","right",0.565999985,1,1,1,0,NA,NA,NA,NA,NA,NA,NA,NA,NA,NA,NA,NA,NA,NA,NA,NA,NA,NA,NA,NA,NA,NA,NA,NA
"285","stim/objects/HouseObjects/ironingboard3.png",427,76,420,0.7,"stim/52.jpeg",5,2,2,2,"HouseObjects",2,3,"right","right",0.624000072,1,1,1,0,NA,NA,NA,NA,NA,NA,NA,NA,NA,NA,NA,NA,NA,NA,NA,NA,NA,NA,NA,NA,NA,NA,NA,NA
"427","stim/objects/Instruments/chime3.png",428,76,421,0.5,"stim/41.jpeg",4,1,1,2,"Instruments",1,2,"left","left",0.565999985,1,1,1,0,NA,NA,NA,NA,NA,NA,NA,NA,NA,NA,NA,NA,NA,NA,NA,NA,NA,NA,NA,NA,NA,NA,NA,NA
"563","stim/objects/Instruments/tuba3.png",429,76,422,0.3,"stim/52.jpeg",5,2,2,1,"Instruments",1,4,"left","right",0.563999891,0,0,1,0,122,76,1,0.3,1,"stim/52.jpeg",5,2,"stim/52.jpeg",4,"left",1.827000141,2,2,1.694999695,3,1.118000031,122,1,1,1,0,0,0
"396","stim/objects/HouseObjects/thermometer3.png",430,76,423,0.7,"stim/52.jpeg",5,2,2,1,"HouseObjects",2,2,"right","right",0.568999767,1,1,1,0,20,76,1,0.7,2,"stim/52.jpeg",5,2,"stim/52.jpeg",2,"left",0.996999979,3,3,5.663999796,3,1.427999735,20,1,0,0,0,0,0
"329","stim/objects/HouseObjects/match3.png",431,76,424,0.9,"stim/12.jpeg",1,2,3,2,"HouseObjects",2,2,"right","right",0.61199975,1,1,1,0,NA,NA,NA,NA,NA,NA,NA,NA,NA,NA,NA,NA,NA,NA,NA,NA,NA,NA,NA,NA,NA,NA,NA,NA
"423","stim/objects/Instruments/bassguitar4.png",432,76,425,0.7,"stim/64.jpeg",6,4,2,1,"Instruments",1,1,"left","left",0.52699995,1,1,1,0,15,76,1,0.7,1,"stim/64.jpeg",6,4,"stim/64.jpeg",1,"left",0.878999949,4,4,2.688999891,2,1.097999811,15,1,1,1,0,0,0
"443","stim/objects/Instruments/doublebass4.png",433,76,426,0.7,"stim/62.jpeg",6,2,2,1,"Instruments",1,3,"left","left",0.535999775,1,1,1,0,60,76,1,0.7,1,"stim/62.jpeg",6,2,"stim/62.jpeg",3,"left",1.765999794,2,4,5.350999832,1,1.450000048,60,1,0,0,0,0,0
"537","stim/objects/Instruments/oboe3.png",434,76,427,0.9,"stim/21.jpeg",2,1,3,2,"Instruments",1,2,"left","left",0.673999786,1,1,1,0,NA,NA,NA,NA,NA,NA,NA,NA,NA,NA,NA,NA,NA,NA,NA,NA,NA,NA,NA,NA,NA,NA,NA,NA
"414","stim/objects/Instruments/balalaika4.png",435,76,428,0.3,"stim/54.jpeg",5,4,2,1,"Instruments",1,4,"left","right",0.536000013,0,0,1,0,187,76,1,0.3,1,"stim/54.jpeg",5,4,"stim/54.jpeg",4,"left",1.91899991,3,2,0.998999834,3,0.767999887,187,1,0,0,0,0,0
"478","stim/objects/Instruments/metronome3.png",436,76,429,0.9,"stim/21.jpeg",2,1,3,2,"Instruments",1,3,"left","left",0.529000044,1,1,1,0,NA,NA,NA,NA,NA,NA,NA,NA,NA,NA,NA,NA,NA,NA,NA,NA,NA,NA,NA,NA,NA,NA,NA,NA
"371","stim/objects/HouseObjects/pitcher3.png",437,76,430,0.9,"stim/11.jpeg",1,1,3,2,"HouseObjects",2,2,"right","right",0.608999968,1,1,1,0,NA,NA,NA,NA,NA,NA,NA,NA,NA,NA,NA,NA,NA,NA,NA,NA,NA,NA,NA,NA,NA,NA,NA,NA
"354","stim/objects/HouseObjects/pan3.png",438,76,431,0.9,"stim/12.jpeg",1,2,3,2,"HouseObjects",2,3,"right","right",0.556999922,1,1,1,0,NA,NA,NA,NA,NA,NA,NA,NA,NA,NA,NA,NA,NA,NA,NA,NA,NA,NA,NA,NA,NA,NA,NA,NA
"403","stim/objects/HouseObjects/vacuumcleaner4.png",439,76,432,0.1,"stim/23.jpeg",2,3,3,1,"HouseObjects",2,4,"right","left",0.536999941,0,0,1,0,79,76,1,0.1,2,"stim/23.jpeg",2,3,"stim/23.jpeg",4,"right",0.906999826,3,2,1.631999731,1,0.786999941,79,0,0,NA,0,NA,0
"548","stim/objects/Instruments/record4.png",440,76,433,0.1,"stim/14.jpeg",1,4,3,1,"Instruments",1,3,"left","right",0.510999918,0,0,1,0,117,76,1,0.1,1,"stim/14.jpeg",1,4,"stim/14.jpeg",3,"right",0.957999945,4,3,1.340999842,1,0.639999866,117,0,0,NA,0,NA,0
"486","stim/objects/Instruments/metronome3.png",441,76,434,0.9,"stim/24.jpeg",2,4,3,2,"Instruments",1,1,"left","left",0.563999891,1,1,1,0,NA,NA,NA,NA,NA,NA,NA,NA,NA,NA,NA,NA,NA,NA,NA,NA,NA,NA,NA,NA,NA,NA,NA,NA
"536","stim/objects/Instruments/oboe3.png",442,76,435,0.9,"stim/21.jpeg",2,1,3,2,"Instruments",1,4,"left","left",0.574999809,1,1,1,0,NA,NA,NA,NA,NA,NA,NA,NA,NA,NA,NA,NA,NA,NA,NA,NA,NA,NA,NA,NA,NA,NA,NA,NA
"296","stim/objects/HouseObjects/knife3.png",443,76,436,0.9,"stim/11.jpeg",1,1,3,2,"HouseObjects",2,3,"right","right",0.54399991,1,1,1,0,NA,NA,NA,NA,NA,NA,NA,NA,NA,NA,NA,NA,NA,NA,NA,NA,NA,NA,NA,NA,NA,NA,NA,NA
"470","stim/objects/Instruments/marimba3.png",444,76,437,0.9,"stim/21.jpeg",2,1,3,2,"Instruments",1,2,"left","left",0.722999811,1,1,1,0,NA,NA,NA,NA,NA,NA,NA,NA,NA,NA,NA,NA,NA,NA,NA,NA,NA,NA,NA,NA,NA,NA,NA,NA
"437","stim/objects/Instruments/cymbal3.png",445,76,438,0.7,"stim/63.jpeg",6,3,2,2,"Instruments",1,1,"left","left",0.647000074,1,1,1,0,NA,NA,NA,NA,NA,NA,NA,NA,NA,NA,NA,NA,NA,NA,NA,NA,NA,NA,NA,NA,NA,NA,NA,NA
"286","stim/objects/HouseObjects/ironingboard4.png",446,76,439,0.3,"stim/62.jpeg",6,2,2,1,"HouseObjects",2,1,"right","left",0.617999792,0,0,1,0,99,76,1,0.3,2,"stim/62.jpeg",6,2,"stim/62.jpeg",1,"right",0.835999727,3,2,1.460999966,1,0.868000031,99,0,1,NA,1,NA,0
"404","stim/objects/HouseObjects/wateringcan3.png",447,76,440,0.7,"stim/52.jpeg",5,2,2,1,"HouseObjects",2,4,"right","right",0.632999897,1,1,1,0,108,76,1,0.7,2,"stim/52.jpeg",5,2,"stim/52.jpeg",4,"left",2.787999868,3,3,3.655999899,1,1.84800005,108,1,0,0,0,0,0
"517","stim/objects/Instruments/musicstand3.png",448,76,441,0.9,"stim/23.jpeg",2,3,3,2,"Instruments",1,4,"left","left",0.546999931,1,1,1,0,NA,NA,NA,NA,NA,NA,NA,NA,NA,NA,NA,NA,NA,NA,NA,NA,NA,NA,NA,NA,NA,NA,NA,NA
"277","stim/objects/HouseObjects/clothespin3.png",449,76,442,0.7,"stim/51.jpeg",5,1,2,2,"HouseObjects",2,2,"right","right",0.701999903,1,1,1,0,NA,NA,NA,NA,NA,NA,NA,NA,NA,NA,NA,NA,NA,NA,NA,NA,NA,NA,NA,NA,NA,NA,NA,NA
"489","stim/objects/Instruments/metronome4.png",450,76,443,0.1,"stim/12.jpeg",1,2,3,1,"Instruments",1,4,"left","right",0.562999725,0,0,1,0,23,76,1,0.1,1,"stim/12.jpeg",1,2,"stim/12.jpeg",4,"right",1.992000103,3,3,3.777999878,1,4.182999849,23,0,0,NA,0,NA,0
"449","stim/objects/Instruments/laud3.png",451,76,444,0.7,"stim/62.jpeg",6,2,2,2,"Instruments",1,3,"left","left",0.635999918,1,1,1,0,NA,NA,NA,NA,NA,NA,NA,NA,NA,NA,NA,NA,NA,NA,NA,NA,NA,NA,NA,NA,NA,NA,NA,NA
"338","stim/objects/HouseObjects/match3.png",452,76,445,0.9,"stim/14.jpeg",1,4,3,2,"HouseObjects",2,2,"right","right",0.565999985,1,1,1,0,NA,NA,NA,NA,NA,NA,NA,NA,NA,NA,NA,NA,NA,NA,NA,NA,NA,NA,NA,NA,NA,NA,NA,NA
"321","stim/objects/HouseObjects/lintroller3.png",453,76,446,0.9,"stim/11.jpeg",1,1,3,2,"HouseObjects",2,4,"right","right",0.628999949,1,1,1,0,NA,NA,NA,NA,NA,NA,NA,NA,NA,NA,NA,NA,NA,NA,NA,NA,NA,NA,NA,NA,NA,NA,NA,NA
"378","stim/objects/HouseObjects/remote3.png",454,76,447,0.5,"stim/33.jpeg",3,3,1,1,"HouseObjects",2,2,"right","left",0.782000065,0,0,1,0,55,76,1,0.5,1,"stim/33.jpeg",3,3,"stim/33.jpeg",2,"right",0.937999725,3,1,1.42599988,3,1.562999964,55,0,0,NA,0,NA,0
"372","stim/objects/HouseObjects/pitcher3.png",455,76,448,0.9,"stim/13.jpeg",1,3,3,2,"HouseObjects",2,3,"right","right",0.566999912,1,1,1,0,NA,NA,NA,NA,NA,NA,NA,NA,NA,NA,NA,NA,NA,NA,NA,NA,NA,NA,NA,NA,NA,NA,NA,NA
"551","stim/objects/Instruments/speaker3.png",456,76,449,0.5,"stim/41.jpeg",4,1,1,1,"Instruments",1,4,"left","left",0.684999943,1,1,1,0,130,76,1,0.5,2,"stim/41.jpeg",4,1,"stim/41.jpeg",4,"left",1.02699995,2,3,1.474999905,1,0.947999954,130,1,0,0,0,0,0
"251","stim/objects/HouseObjects/basket3.png",457,76,450,0.5,"stim/33.jpeg",3,3,1,2,"HouseObjects",2,4,"right","right",0.644999743,1,1,1,0,NA,NA,NA,NA,NA,NA,NA,NA,NA,NA,NA,NA,NA,NA,NA,NA,NA,NA,NA,NA,NA,NA,NA,NA
"471","stim/objects/Instruments/marimba3.png",458,76,451,0.9,"stim/24.jpeg",2,4,3,2,"Instruments",1,4,"left","left",0.583999872,1,1,1,0,NA,NA,NA,NA,NA,NA,NA,NA,NA,NA,NA,NA,NA,NA,NA,NA,NA,NA,NA,NA,NA,NA,NA,NA
"281","stim/objects/HouseObjects/iron3.png",459,76,452,0.7,"stim/53.jpeg",5,3,2,2,"HouseObjects",2,3,"right","right",0.553999901,1,1,1,0,NA,NA,NA,NA,NA,NA,NA,NA,NA,NA,NA,NA,NA,NA,NA,NA,NA,NA,NA,NA,NA,NA,NA,NA
"463","stim/objects/Instruments/marimba3.png",460,76,453,0.9,"stim/24.jpeg",2,4,3,2,"Instruments",1,1,"left","left",0.529999971,1,1,1,0,NA,NA,NA,NA,NA,NA,NA,NA,NA,NA,NA,NA,NA,NA,NA,NA,NA,NA,NA,NA,NA,NA,NA,NA
"417","stim/objects/Instruments/banjo4.png",461,76,454,0.3,"stim/51.jpeg",5,1,2,1,"Instruments",1,3,"left","right",0.509000063,0,0,1,0,181,76,1,0.3,1,"stim/51.jpeg",5,1,"stim/51.jpeg",3,"right",1.190999985,2,2,1.058999777,3,1.105000019,181,0,0,NA,1,NA,0
"501","stim/objects/Instruments/musicsheet3.png",462,76,455,0.9,"stim/22.jpeg",2,2,3,2,"Instruments",1,4,"left","left",0.517999887,1,1,1,0,NA,NA,NA,NA,NA,NA,NA,NA,NA,NA,NA,NA,NA,NA,NA,NA,NA,NA,NA,NA,NA,NA,NA,NA
"284","stim/objects/HouseObjects/ironingboard3.png",463,76,456,0.7,"stim/54.jpeg",5,4,2,2,"HouseObjects",2,4,"right","right",0.556999922,1,1,1,0,NA,NA,NA,NA,NA,NA,NA,NA,NA,NA,NA,NA,NA,NA,NA,NA,NA,NA,NA,NA,NA,NA,NA,NA
"483","stim/objects/Instruments/metronome3.png",464,76,457,0.9,"stim/21.jpeg",2,1,3,2,"Instruments",1,4,"left","left",0.59100008,1,1,1,0,NA,NA,NA,NA,NA,NA,NA,NA,NA,NA,NA,NA,NA,NA,NA,NA,NA,NA,NA,NA,NA,NA,NA,NA
"472","stim/objects/Instruments/marimba4.png",465,76,458,0.1,"stim/11.jpeg",1,1,3,1,"Instruments",1,4,"left","left",0.622999907,1,1,1,0,5,76,1,0.1,1,"stim/11.jpeg",1,1,"stim/11.jpeg",4,"left",4.228999853,2,3,4.684999943,3,2.302999973,5,1,0,0,0,0,0
"495","stim/objects/Instruments/musicsheet3.png",466,76,459,0.9,"stim/24.jpeg",2,4,3,2,"Instruments",1,1,"left","right",0.573999882,0,0,1,0,NA,NA,NA,NA,NA,NA,NA,NA,NA,NA,NA,NA,NA,NA,NA,NA,NA,NA,NA,NA,NA,NA,NA,NA
