"","participant","trial_index","trial_cond","scn_file","scn_cat","scn_inst","scn_condition","fillers","obj_cat","obj_cat_num","obj_file","quadrant","corr_ans","key_resp_trial.keys","key_resp_trial.rt","trial_acc","trial_acc_manual","group"
"1",76,1,0.9,"stim/24.jpeg",2,4,3,NA,"Instruments",1,"stim/objects/Instruments/hihat2.png",4,"left","left",0.84499979,1,1,0
"2",76,2,0.3,"stim/62.jpeg",6,2,2,NA,"HouseObjects",2,"stim/objects/HouseObjects/cushion2.png",2,"right","",NA,0,0,0
"3",76,3,0.5,"stim/33.jpeg",3,3,1,NA,"HouseObjects",2,"stim/objects/HouseObjects/dishsoap.png",3,"right","right",0.840999842,1,1,0
"4",76,4,0.7,"stim/64.jpeg",6,4,2,NA,"Instruments",1,"stim/objects/Instruments/flute2.png",1,"left","",NA,0,0,0
"5",76,5,0.3,"stim/63.jpeg",6,3,2,NA,"HouseObjects",2,"stim/objects/HouseObjects/dishsoap2.png",4,"right","left",0.701999903,0,0,0
"6",76,6,0.9,"stim/12.jpeg",1,2,3,NA,"HouseObjects",2,"stim/objects/HouseObjects/flyswatter2.png",4,"right","right",0.665999889,1,1,0
"7",76,7,0.9,"stim/13.jpeg",1,3,3,NA,"HouseObjects",2,"stim/objects/HouseObjects/garbagebin2.png",2,"right","right",0.873999834,1,1,0
"8",76,8,0.7,"stim/52.jpeg",5,2,2,NA,"HouseObjects",2,"stim/objects/HouseObjects/hairdryer.png",2,"right","left",0.765999794,0,0,0
"9",76,9,0.5,"stim/41.jpeg",4,1,1,NA,"Instruments",1,"stim/objects/Instruments/flutetrans.png",1,"left","right",0.848999977,0,0,0
"10",76,10,0.5,"stim/41.jpeg",4,1,1,NA,"HouseObjects",2,"stim/objects/HouseObjects/dustpan.png",1,"right","",NA,0,0,0
"11",76,11,0.5,"stim/41.jpeg",4,1,1,NA,"Instruments",1,"stim/objects/Instruments/flutetrans.png",4,"left","right",0.698999882,0,0,0
"12",76,12,0.9,"stim/22.jpeg",2,2,3,NA,"Instruments",1,"stim/objects/Instruments/harmonica2.png",3,"left","left",0.61899972,1,1,0
"13",76,13,0.5,"stim/43.jpeg",4,3,1,NA,"Instruments",1,"stim/objects/Instruments/gong.png",4,"left","left",0.799999952,1,1,0
"14",76,14,0.5,"stim/42.jpeg",4,2,1,NA,"HouseObjects",2,"stim/objects/HouseObjects/flyswatter.png",2,"right","right",0.656999826,1,1,0
"15",76,15,0.7,"stim/53.jpeg",5,3,2,NA,"HouseObjects",2,"stim/objects/HouseObjects/handbrush.png",3,"right","right",0.684999943,1,1,0
"16",76,16,0.9,"stim/11.jpeg",1,1,3,NA,"HouseObjects",2,"stim/objects/HouseObjects/dustpan2.png",4,"right","right",0.819999933,1,1,0
"17",76,17,0.5,"stim/43.jpeg",4,3,1,NA,"HouseObjects",2,"stim/objects/HouseObjects/garbagebin.png",4,"right","left",0.618999958,0,0,0
"18",76,18,0.3,"stim/62.jpeg",6,2,2,NA,"HouseObjects",2,"stim/objects/HouseObjects/cushion2.png",1,"right","right",0.816999912,1,1,0
"19",76,19,0.5,"stim/32.jpeg",3,2,1,NA,"Instruments",1,"stim/objects/Instruments/electricdrumset.png",4,"left","left",0.585000038,1,1,0
"20",76,20,0.9,"stim/12.jpeg",1,2,3,NA,"HouseObjects",2,"stim/objects/HouseObjects/flyswatter2.png",2,"right","right",0.575999975,1,1,0
"21",76,21,0.1,"stim/21.jpeg",2,1,3,NA,"HouseObjects",2,"stim/objects/HouseObjects/glassmop2.png",3,"right","left",0.652999878,0,0,0
"22",76,22,0.3,"stim/53.jpeg",5,3,2,NA,"Instruments",1,"stim/objects/Instruments/harp.png",1,"left","right",0.639999866,0,0,0
"23",76,23,0.7,"stim/52.jpeg",5,2,2,NA,"HouseObjects",2,"stim/objects/HouseObjects/hairdryer.png",3,"right","",NA,0,0,0
"24",76,24,0.9,"stim/23.jpeg",2,3,3,NA,"Instruments",1,"stim/objects/Instruments/harp2.png",4,"left","left",0.549999952,1,1,0
"25",76,25,0.3,"stim/52.jpeg",5,2,2,NA,"Instruments",1,"stim/objects/Instruments/harmonica.png",2,"left","right",0.617999792,0,0,0
"26",76,26,0.7,"stim/62.jpeg",6,2,2,NA,"Instruments",1,"stim/objects/Instruments/electricdrumset2.png",4,"left","left",0.582000017,1,1,0
"27",76,27,0.5,"stim/31.jpeg",3,1,1,NA,"HouseObjects",2,"stim/objects/HouseObjects/coffee.png",2,"right","left",0.746999741,0,0,0
"28",76,28,0.9,"stim/24.jpeg",2,4,3,NA,"Instruments",1,"stim/objects/Instruments/hihat2.png",2,"left","left",0.671999931,1,1,0
"29",76,29,0.3,"stim/62.jpeg",6,2,2,NA,"HouseObjects",2,"stim/objects/HouseObjects/cushion2.png",4,"right","right",0.666000128,1,1,0
"30",76,30,0.5,"stim/32.jpeg",3,2,1,NA,"HouseObjects",2,"stim/objects/HouseObjects/cushion.png",1,"right","right",0.88499999,1,1,0
"31",76,31,0.5,"stim/44.jpeg",4,4,1,NA,"HouseObjects",2,"stim/objects/HouseObjects/glass.png",3,"right","left",0.741999865,0,0,0
"32",76,32,0.9,"stim/14.jpeg",1,4,3,NA,"HouseObjects",2,"stim/objects/HouseObjects/glass2.png",2,"right","right",0.588999987,1,1,0
"33",76,33,0.3,"stim/61.jpeg",6,1,2,NA,"HouseObjects",2,"stim/objects/HouseObjects/coffee2.png",2,"right","left",0.660999775,0,0,0
"34",76,34,0.5,"stim/31.jpeg",3,1,1,NA,"Instruments",1,"stim/objects/Instruments/drums.png",2,"left","right",0.514999866,0,0,0
"35",76,35,0.5,"stim/31.jpeg",3,1,1,NA,"HouseObjects",2,"stim/objects/HouseObjects/coffee.png",4,"right","right",0.684999943,1,1,0
"36",76,36,0.5,"stim/34.jpeg",3,4,1,NA,"HouseObjects",2,"stim/objects/HouseObjects/doormat.png",1,"right","left",0.790999889,0,0,0
"37",76,37,0.9,"stim/21.jpeg",2,1,3,NA,"Instruments",1,"stim/objects/Instruments/guitarcase2.png",1,"left","left",0.743000031,1,1,0
"38",76,38,0.5,"stim/44.jpeg",4,4,1,NA,"HouseObjects",2,"stim/objects/HouseObjects/glass.png",3,"right","right",0.592000008,1,1,0
"39",76,39,0.5,"stim/31.jpeg",3,1,1,NA,"Instruments",1,"stim/objects/Instruments/drums.png",2,"left","left",0.664999723,1,1,0
"40",76,40,0.7,"stim/52.jpeg",5,2,2,NA,"HouseObjects",2,"stim/objects/HouseObjects/hairdryer.png",3,"right","right",0.565999985,1,1,0
"41",76,41,0.5,"stim/44.jpeg",4,4,1,NA,"Instruments",1,"stim/objects/Instruments/grandpiano.png",3,"left","left",0.604999781,1,1,0
"42",76,42,0.9,"stim/21.jpeg",2,1,3,NA,"Instruments",1,"stim/objects/Instruments/guitarcase2.png",2,"left","left",0.618999958,1,1,0
"43",76,43,0.9,"stim/23.jpeg",2,3,3,NA,"Instruments",1,"stim/objects/Instruments/harp2.png",1,"left","left",0.801999807,1,1,0
"44",76,44,0.9,"stim/11.jpeg",1,1,3,NA,"HouseObjects",2,"stim/objects/HouseObjects/dustpan2.png",2,"right","right",0.57799983,1,1,0
"45",76,45,0.9,"stim/12.jpeg",1,2,3,NA,"HouseObjects",2,"stim/objects/HouseObjects/flyswatter2.png",1,"right","right",0.604999781,1,1,0
"46",76,46,0.5,"stim/42.jpeg",4,2,1,NA,"Instruments",1,"stim/objects/Instruments/frenchhorn.png",4,"left","left",0.576999903,1,1,0
"47",76,47,0.5,"stim/31.jpeg",3,1,1,NA,"Instruments",1,"stim/objects/Instruments/drums.png",2,"left","right",0.621999979,0,0,0
"48",76,48,0.7,"stim/54.jpeg",5,4,2,NA,"HouseObjects",2,"stim/objects/HouseObjects/handvacuum.png",1,"right","right",0.645999908,1,1,0
"49",76,49,0.9,"stim/14.jpeg",1,4,3,NA,"HouseObjects",2,"stim/objects/HouseObjects/glass2.png",1,"right","right",0.571999788,1,1,0
"50",76,50,0.5,"stim/43.jpeg",4,3,1,NA,"Instruments",1,"stim/objects/Instruments/gong.png",1,"left","left",0.421000004,1,1,0
"51",76,51,0.5,"stim/32.jpeg",3,2,1,NA,"Instruments",1,"stim/objects/Instruments/electricdrumset.png",4,"left","right",0.529999971,0,0,0
"52",76,52,0.1,"stim/22.jpeg",2,2,3,NA,"HouseObjects",2,"stim/objects/HouseObjects/hairdryer2.png",2,"right","left",0.65899992,0,0,0
"53",76,53,0.5,"stim/32.jpeg",3,2,1,NA,"HouseObjects",2,"stim/objects/HouseObjects/cushion.png",4,"right","right",0.690000057,1,1,0
"54",76,54,0.9,"stim/14.jpeg",1,4,3,NA,"HouseObjects",2,"stim/objects/HouseObjects/glass2.png",4,"right","right",0.544999838,1,1,0
"55",76,55,0.5,"stim/44.jpeg",4,4,1,NA,"Instruments",1,"stim/objects/Instruments/grandpiano.png",3,"left","left",0.703999996,1,1,0
"56",76,56,0.9,"stim/23.jpeg",2,3,3,NA,"Instruments",1,"stim/objects/Instruments/harp2.png",1,"left","left",0.730999947,1,1,0
"57",76,57,0.9,"stim/22.jpeg",2,2,3,NA,"Instruments",1,"stim/objects/Instruments/harmonica2.png",4,"left","left",0.566999912,1,1,0
"58",76,58,0.9,"stim/22.jpeg",2,2,3,NA,"Instruments",1,"stim/objects/Instruments/harmonica2.png",4,"left","left",0.551999807,1,1,0
"59",76,59,0.9,"stim/11.jpeg",1,1,3,NA,"HouseObjects",2,"stim/objects/HouseObjects/dustpan2.png",4,"right","right",0.546999931,1,1,0
"60",76,60,0.3,"stim/64.jpeg",6,4,2,NA,"HouseObjects",2,"stim/objects/HouseObjects/doormat2.png",1,"right","left",0.665999889,0,0,0
"61",76,61,0.5,"stim/32.jpeg",3,2,1,NA,"Instruments",1,"stim/objects/Instruments/electricdrumset.png",4,"left","right",0.863000154,0,0,0
"62",76,62,0.7,"stim/64.jpeg",6,4,2,NA,"Instruments",1,"stim/objects/Instruments/flute2.png",3,"left","left",0.609999895,1,1,0
"63",76,63,0.7,"stim/54.jpeg",5,4,2,NA,"HouseObjects",2,"stim/objects/HouseObjects/handvacuum.png",1,"right","right",0.674999952,1,1,0
"64",76,64,0.9,"stim/23.jpeg",2,3,3,NA,"Instruments",1,"stim/objects/Instruments/harp2.png",3,"left","left",0.601999998,1,1,0
"65",76,65,0.7,"stim/63.jpeg",6,3,2,NA,"Instruments",1,"stim/objects/Instruments/electricguitar2.png",2,"left","left",0.686999798,1,1,0
"66",76,66,0.1,"stim/12.jpeg",1,2,3,NA,"Instruments",1,"stim/objects/Instruments/frenchhorn2.png",3,"left","right",0.628000021,0,0,0
"67",76,67,0.9,"stim/21.jpeg",2,1,3,NA,"Instruments",1,"stim/objects/Instruments/guitarcase2.png",1,"left","left",0.664000034,1,1,0
"68",76,68,0.5,"stim/42.jpeg",4,2,1,NA,"Instruments",1,"stim/objects/Instruments/frenchhorn.png",4,"left","left",0.725999832,1,1,0
"69",76,69,0.7,"stim/61.jpeg",6,1,2,NA,"Instruments",1,"stim/objects/Instruments/drums2.png",4,"left","left",0.65899992,1,1,0
"70",76,70,0.3,"stim/54.jpeg",5,4,2,NA,"Instruments",1,"stim/objects/Instruments/hihat.png",1,"left","right",0.595000029,0,0,0
"71",76,71,0.3,"stim/63.jpeg",6,3,2,NA,"HouseObjects",2,"stim/objects/HouseObjects/dishsoap2.png",2,"right","left",0.564999819,0,0,0
"72",76,72,0.7,"stim/54.jpeg",5,4,2,NA,"HouseObjects",2,"stim/objects/HouseObjects/handvacuum.png",4,"right","right",0.694000006,1,1,0
"73",76,73,0.5,"stim/41.jpeg",4,1,1,NA,"Instruments",1,"stim/objects/Instruments/flutetrans.png",2,"left","left",0.507999897,1,1,0
"74",76,74,0.7,"stim/61.jpeg",6,1,2,NA,"Instruments",1,"stim/objects/Instruments/drums2.png",2,"left","left",0.691999912,1,1,0
"75",76,75,0.5,"stim/44.jpeg",4,4,1,NA,"HouseObjects",2,"stim/objects/HouseObjects/glass.png",2,"right","right",0.562000036,1,1,0
"76",76,76,0.7,"stim/62.jpeg",6,2,2,NA,"Instruments",1,"stim/objects/Instruments/electricdrumset2.png",3,"left","left",0.672999859,1,1,0
"77",76,77,0.5,"stim/32.jpeg",3,2,1,NA,"Instruments",1,"stim/objects/Instruments/electricdrumset.png",3,"left","right",0.486000061,0,0,0
"78",76,78,0.9,"stim/13.jpeg",1,3,3,NA,"HouseObjects",2,"stim/objects/HouseObjects/garbagebin2.png",4,"right","right",0.648000002,1,1,0
"79",76,79,0.3,"stim/64.jpeg",6,4,2,NA,"HouseObjects",2,"stim/objects/HouseObjects/doormat2.png",2,"right","left",0.594000101,0,0,0
"80",76,80,0.9,"stim/22.jpeg",2,2,3,NA,"Instruments",1,"stim/objects/Instruments/harmonica2.png",2,"left","left",0.629999876,1,1,0
"81",76,81,0.5,"stim/43.jpeg",4,3,1,NA,"HouseObjects",2,"stim/objects/HouseObjects/garbagebin.png",3,"right","right",0.478999853,1,1,0
"82",76,82,0.9,"stim/24.jpeg",2,4,3,NA,"Instruments",1,"stim/objects/Instruments/hihat2.png",4,"left","left",0.605999708,1,1,0
"83",76,83,0.5,"stim/32.jpeg",3,2,1,NA,"HouseObjects",2,"stim/objects/HouseObjects/cushion.png",3,"right","right",0.64199996,1,1,0
"84",76,84,0.5,"stim/33.jpeg",3,3,1,NA,"HouseObjects",2,"stim/objects/HouseObjects/dishsoap.png",4,"right","left",0.5849998,0,0,0
"85",76,85,0.3,"stim/51.jpeg",5,1,2,NA,"Instruments",1,"stim/objects/Instruments/guitarcase.png",1,"left","right",0.582000017,0,0,0
"86",76,86,0.9,"stim/24.jpeg",2,4,3,NA,"Instruments",1,"stim/objects/Instruments/hihat2.png",3,"left","left",0.638000011,1,1,0
"87",76,87,0.3,"stim/61.jpeg",6,1,2,NA,"HouseObjects",2,"stim/objects/HouseObjects/coffee2.png",3,"right","left",0.68599987,0,0,0
"88",76,88,0.7,"stim/61.jpeg",6,1,2,NA,"Instruments",1,"stim/objects/Instruments/drums2.png",1,"left","left",0.697999954,1,1,0
"89",76,89,0.7,"stim/63.jpeg",6,3,2,NA,"Instruments",1,"stim/objects/Instruments/electricguitar2.png",2,"left","left",0.645999908,1,1,0
"90",76,90,0.7,"stim/63.jpeg",6,3,2,NA,"Instruments",1,"stim/objects/Instruments/electricguitar2.png",3,"left","left",0.802999973,1,1,0
"91",76,91,0.5,"stim/33.jpeg",3,3,1,NA,"HouseObjects",2,"stim/objects/HouseObjects/dishsoap.png",3,"right","right",0.902999878,1,1,0
"92",76,92,0.9,"stim/24.jpeg",2,4,3,NA,"Instruments",1,"stim/objects/Instruments/hihat2.png",1,"left","left",0.588999748,1,1,0
"93",76,93,0.7,"stim/54.jpeg",5,4,2,NA,"HouseObjects",2,"stim/objects/HouseObjects/handvacuum.png",4,"right","right",0.619999886,1,1,0
"94",76,94,0.5,"stim/33.jpeg",3,3,1,NA,"Instruments",1,"stim/objects/Instruments/electricguitar.png",4,"left","right",0.527999878,0,0,0
"95",76,95,0.5,"stim/34.jpeg",3,4,1,NA,"Instruments",1,"stim/objects/Instruments/flute.png",1,"left","",NA,0,0,0
"96",76,96,0.9,"stim/14.jpeg",1,4,3,NA,"HouseObjects",2,"stim/objects/HouseObjects/glass2.png",2,"right","right",0.626999855,1,1,0
"97",76,97,0.9,"stim/22.jpeg",2,2,3,NA,"Instruments",1,"stim/objects/Instruments/harmonica2.png",1,"left","left",0.615999937,1,1,0
"98",76,98,0.5,"stim/41.jpeg",4,1,1,NA,"HouseObjects",2,"stim/objects/HouseObjects/dustpan.png",4,"right","right",0.454999924,1,1,0
"99",76,99,0.5,"stim/43.jpeg",4,3,1,NA,"Instruments",1,"stim/objects/Instruments/gong.png",2,"left","left",0.900999784,1,1,0
"100",76,100,0.9,"stim/13.jpeg",1,3,3,NA,"HouseObjects",2,"stim/objects/HouseObjects/garbagebin2.png",1,"right","right",0.531999826,1,1,0
"101",76,101,0.5,"stim/42.jpeg",4,2,1,NA,"HouseObjects",2,"stim/objects/HouseObjects/flyswatter.png",4,"right","left",0.664000034,0,0,0
"102",76,102,0.5,"stim/34.jpeg",3,4,1,NA,"HouseObjects",2,"stim/objects/HouseObjects/doormat.png",3,"right","right",0.500999928,1,1,0
"103",76,103,0.9,"stim/11.jpeg",1,1,3,NA,"HouseObjects",2,"stim/objects/HouseObjects/dustpan2.png",4,"right","right",0.632999897,1,1,0
"104",76,104,0.9,"stim/24.jpeg",2,4,3,NA,"Instruments",1,"stim/objects/Instruments/hihat2.png",4,"left","left",0.625,1,1,0
"105",76,105,0.5,"stim/42.jpeg",4,2,1,NA,"Instruments",1,"stim/objects/Instruments/frenchhorn.png",2,"left","right",0.431999922,0,0,0
"106",76,106,0.9,"stim/24.jpeg",2,4,3,NA,"Instruments",1,"stim/objects/Instruments/hihat2.png",3,"left","right",0.569999933,0,0,0
"107",76,107,0.5,"stim/31.jpeg",3,1,1,NA,"Instruments",1,"stim/objects/Instruments/drums.png",1,"left","right",0.802000046,0,0,0
"108",76,108,0.3,"stim/51.jpeg",5,1,2,NA,"Instruments",1,"stim/objects/Instruments/guitarcase.png",1,"left","right",0.667999983,0,0,0
"109",76,109,0.5,"stim/42.jpeg",4,2,1,NA,"HouseObjects",2,"stim/objects/HouseObjects/flyswatter.png",2,"right","left",0.79399991,0,0,0
"110",76,110,0.9,"stim/23.jpeg",2,3,3,NA,"Instruments",1,"stim/objects/Instruments/harp2.png",3,"left","left",0.677999735,1,1,0
"111",76,111,0.5,"stim/43.jpeg",4,3,1,NA,"HouseObjects",2,"stim/objects/HouseObjects/garbagebin.png",1,"right","right",0.708999872,1,1,0
"112",76,112,0.9,"stim/14.jpeg",1,4,3,NA,"HouseObjects",2,"stim/objects/HouseObjects/glass2.png",3,"right","right",0.655999899,1,1,0
"113",76,113,0.5,"stim/33.jpeg",3,3,1,NA,"Instruments",1,"stim/objects/Instruments/electricguitar.png",1,"left","right",0.578999996,0,0,0
"114",76,114,0.5,"stim/42.jpeg",4,2,1,NA,"Instruments",1,"stim/objects/Instruments/frenchhorn.png",3,"left","right",0.615999937,0,0,0
"115",76,115,0.9,"stim/23.jpeg",2,3,3,NA,"Instruments",1,"stim/objects/Instruments/harp2.png",2,"left","left",0.522999763,1,1,0
"116",76,116,0.5,"stim/41.jpeg",4,1,1,NA,"Instruments",1,"stim/objects/Instruments/flutetrans.png",2,"left","right",0.551000118,0,0,0
"117",76,117,0.1,"stim/11.jpeg",1,1,3,NA,"Instruments",1,"stim/objects/Instruments/flutetrans2.png",3,"left","right",0.554999828,0,0,0
"118",76,118,0.9,"stim/12.jpeg",1,2,3,NA,"HouseObjects",2,"stim/objects/HouseObjects/flyswatter2.png",4,"right","right",0.575999975,1,1,0
"119",76,119,0.7,"stim/62.jpeg",6,2,2,NA,"Instruments",1,"stim/objects/Instruments/electricdrumset2.png",1,"left","left",0.681999922,1,1,0
"120",76,120,0.7,"stim/52.jpeg",5,2,2,NA,"HouseObjects",2,"stim/objects/HouseObjects/hairdryer.png",3,"right","right",0.686999798,1,1,0
"121",76,121,0.7,"stim/64.jpeg",6,4,2,NA,"Instruments",1,"stim/objects/Instruments/flute2.png",4,"left","left",0.611999989,1,1,0
"122",76,122,0.5,"stim/32.jpeg",3,2,1,NA,"HouseObjects",2,"stim/objects/HouseObjects/cushion.png",1,"right","right",0.531000137,1,1,0
"123",76,123,0.7,"stim/64.jpeg",6,4,2,NA,"Instruments",1,"stim/objects/Instruments/flute2.png",2,"left","left",0.632999897,1,1,0
"124",76,124,0.5,"stim/33.jpeg",3,3,1,NA,"Instruments",1,"stim/objects/Instruments/electricguitar.png",3,"left","right",0.603999853,0,0,0
"125",76,125,0.5,"stim/32.jpeg",3,2,1,NA,"HouseObjects",2,"stim/objects/HouseObjects/cushion.png",1,"right","",NA,0,0,0
"126",76,126,0.9,"stim/14.jpeg",1,4,3,NA,"HouseObjects",2,"stim/objects/HouseObjects/glass2.png",3,"right","right",0.553999901,1,1,0
"127",76,127,0.9,"stim/22.jpeg",2,2,3,NA,"Instruments",1,"stim/objects/Instruments/harmonica2.png",2,"left","left",0.467999935,1,1,0
"128",76,128,0.5,"stim/34.jpeg",3,4,1,NA,"Instruments",1,"stim/objects/Instruments/flute.png",3,"left","right",0.440999985,0,0,0
"129",76,129,0.9,"stim/13.jpeg",1,3,3,NA,"HouseObjects",2,"stim/objects/HouseObjects/garbagebin2.png",1,"right","right",0.600999832,1,1,0
"130",76,130,0.9,"stim/11.jpeg",1,1,3,NA,"HouseObjects",2,"stim/objects/HouseObjects/dustpan2.png",1,"right","right",0.625999928,1,1,0
"131",76,131,0.5,"stim/43.jpeg",4,3,1,NA,"HouseObjects",2,"stim/objects/HouseObjects/garbagebin.png",3,"right","left",0.554999828,0,0,0
"132",76,132,0.7,"stim/62.jpeg",6,2,2,NA,"Instruments",1,"stim/objects/Instruments/electricdrumset2.png",2,"left","left",0.642999887,1,1,0
"133",76,133,0.9,"stim/14.jpeg",1,4,3,NA,"HouseObjects",2,"stim/objects/HouseObjects/glass2.png",4,"right","right",0.56799984,1,1,0
"134",76,134,0.5,"stim/31.jpeg",3,1,1,NA,"Instruments",1,"stim/objects/Instruments/drums.png",1,"left","right",0.609999895,0,0,0
"135",76,135,0.7,"stim/51.jpeg",5,1,2,NA,"HouseObjects",2,"stim/objects/HouseObjects/glassmop.png",3,"right","right",0.744999886,1,1,0
"136",76,136,0.5,"stim/42.jpeg",4,2,1,NA,"Instruments",1,"stim/objects/Instruments/frenchhorn.png",3,"left","left",0.707999945,1,1,0
"137",76,137,0.7,"stim/53.jpeg",5,3,2,NA,"HouseObjects",2,"stim/objects/HouseObjects/handbrush.png",3,"right","right",0.701999903,1,1,0
"138",76,138,0.7,"stim/51.jpeg",5,1,2,NA,"HouseObjects",2,"stim/objects/HouseObjects/glassmop.png",3,"right","right",0.730999947,1,1,0
"139",76,139,0.9,"stim/13.jpeg",1,3,3,NA,"HouseObjects",2,"stim/objects/HouseObjects/garbagebin2.png",1,"right","right",0.589999914,1,1,0
"140",76,140,0.7,"stim/51.jpeg",5,1,2,NA,"HouseObjects",2,"stim/objects/HouseObjects/glassmop.png",4,"right","right",0.713999987,1,1,0
"141",76,141,0.5,"stim/41.jpeg",4,1,1,NA,"HouseObjects",2,"stim/objects/HouseObjects/dustpan.png",4,"right","right",0.65199995,1,1,0
"142",76,142,0.7,"stim/53.jpeg",5,3,2,NA,"HouseObjects",2,"stim/objects/HouseObjects/handbrush.png",3,"right","right",0.64199996,1,1,0
"143",76,143,0.7,"stim/52.jpeg",5,2,2,NA,"HouseObjects",2,"stim/objects/HouseObjects/hairdryer.png",2,"right","left",0.620999813,0,0,0
"144",76,144,0.9,"stim/11.jpeg",1,1,3,NA,"HouseObjects",2,"stim/objects/HouseObjects/dustpan2.png",2,"right","right",0.516000032,1,1,0
"145",76,145,0.9,"stim/12.jpeg",1,2,3,NA,"HouseObjects",2,"stim/objects/HouseObjects/flyswatter2.png",1,"right","right",0.549000025,1,1,0
"146",76,146,0.9,"stim/11.jpeg",1,1,3,NA,"HouseObjects",2,"stim/objects/HouseObjects/dustpan2.png",3,"right","right",0.50999999,1,1,0
"147",76,147,0.9,"stim/21.jpeg",2,1,3,NA,"Instruments",1,"stim/objects/Instruments/guitarcase2.png",1,"left","left",0.651000023,1,1,0
"148",76,148,0.7,"stim/61.jpeg",6,1,2,NA,"Instruments",1,"stim/objects/Instruments/drums2.png",4,"left","right",0.608999968,0,0,0
"149",76,149,0.5,"stim/43.jpeg",4,3,1,NA,"Instruments",1,"stim/objects/Instruments/gong.png",2,"left","",NA,0,0,0
"150",76,150,0.5,"stim/41.jpeg",4,1,1,NA,"HouseObjects",2,"stim/objects/HouseObjects/dustpan.png",1,"right","right",0.463999987,1,1,0
"151",76,151,0.3,"stim/61.jpeg",6,1,2,NA,"HouseObjects",2,"stim/objects/HouseObjects/coffee2.png",3,"right","left",0.590999842,0,0,0
"152",76,152,0.9,"stim/22.jpeg",2,2,3,NA,"Instruments",1,"stim/objects/Instruments/harmonica2.png",3,"left","left",0.66899991,1,1,0
"153",76,153,0.5,"stim/34.jpeg",3,4,1,NA,"Instruments",1,"stim/objects/Instruments/flute.png",2,"left","right",0.426000118,0,0,0
"154",76,154,0.5,"stim/43.jpeg",4,3,1,NA,"HouseObjects",2,"stim/objects/HouseObjects/garbagebin.png",1,"right","right",0.487999916,1,1,0
"155",76,155,0.7,"stim/61.jpeg",6,1,2,NA,"Instruments",1,"stim/objects/Instruments/drums2.png",3,"left","left",0.595000029,1,1,0
"156",76,156,0.9,"stim/24.jpeg",2,4,3,NA,"Instruments",1,"stim/objects/Instruments/hihat2.png",1,"left","left",0.551999807,1,1,0
"157",76,157,0.7,"stim/52.jpeg",5,2,2,NA,"HouseObjects",2,"stim/objects/HouseObjects/hairdryer.png",1,"right","right",0.484999895,1,1,0
"158",76,158,0.7,"stim/54.jpeg",5,4,2,NA,"HouseObjects",2,"stim/objects/HouseObjects/handvacuum.png",3,"right","right",0.671000004,1,1,0
"159",76,159,0.5,"stim/44.jpeg",4,4,1,NA,"HouseObjects",2,"stim/objects/HouseObjects/glass.png",1,"right","left",0.54399991,0,0,0
"160",76,160,0.5,"stim/31.jpeg",3,1,1,NA,"HouseObjects",2,"stim/objects/HouseObjects/coffee.png",1,"right","right",0.493999958,1,1,0
"161",76,161,0.9,"stim/12.jpeg",1,2,3,NA,"HouseObjects",2,"stim/objects/HouseObjects/flyswatter2.png",2,"right","right",0.589999914,1,1,0
"162",76,162,0.7,"stim/53.jpeg",5,3,2,NA,"HouseObjects",2,"stim/objects/HouseObjects/handbrush.png",1,"right","right",0.582999945,1,1,0
"163",76,163,0.1,"stim/23.jpeg",2,3,3,NA,"HouseObjects",2,"stim/objects/HouseObjects/handbrush2.png",4,"right","left",0.575000048,0,0,0
"164",76,164,0.9,"stim/13.jpeg",1,3,3,NA,"HouseObjects",2,"stim/objects/HouseObjects/garbagebin2.png",2,"right","right",0.620999813,1,1,0
"165",76,165,0.7,"stim/64.jpeg",6,4,2,NA,"Instruments",1,"stim/objects/Instruments/flute2.png",2,"left","left",0.753999949,1,1,0
"166",76,166,0.5,"stim/34.jpeg",3,4,1,NA,"HouseObjects",2,"stim/objects/HouseObjects/doormat.png",1,"right","right",0.557999849,1,1,0
"167",76,167,0.9,"stim/13.jpeg",1,3,3,NA,"HouseObjects",2,"stim/objects/HouseObjects/garbagebin2.png",3,"right","right",0.599999905,1,1,0
"168",76,168,0.9,"stim/21.jpeg",2,1,3,NA,"Instruments",1,"stim/objects/Instruments/guitarcase2.png",2,"left","left",0.56099987,1,1,0
"169",76,169,0.9,"stim/23.jpeg",2,3,3,NA,"Instruments",1,"stim/objects/Instruments/harp2.png",4,"left","left",0.548000097,1,1,0
"170",76,170,0.7,"stim/53.jpeg",5,3,2,NA,"HouseObjects",2,"stim/objects/HouseObjects/handbrush.png",3,"right","right",0.501999855,1,1,0
"171",76,171,0.9,"stim/21.jpeg",2,1,3,NA,"Instruments",1,"stim/objects/Instruments/guitarcase2.png",1,"left","left",0.638999939,1,1,0
"172",76,172,0.1,"stim/24.jpeg",2,4,3,NA,"HouseObjects",2,"stim/objects/HouseObjects/handvacuum2.png",3,"right","left",0.5,0,0,0
"173",76,173,0.5,"stim/44.jpeg",4,4,1,NA,"Instruments",1,"stim/objects/Instruments/grandpiano.png",2,"left","right",0.7099998,0,0,0
"174",76,174,0.1,"stim/14.jpeg",1,4,3,NA,"Instruments",1,"stim/objects/Instruments/grandpiano2.png",2,"left","right",0.569999695,0,0,0
"175",76,175,0.7,"stim/51.jpeg",5,1,2,NA,"HouseObjects",2,"stim/objects/HouseObjects/glassmop.png",1,"right","right",0.631000042,1,1,0
"176",76,176,0.3,"stim/52.jpeg",5,2,2,NA,"Instruments",1,"stim/objects/Instruments/harmonica.png",1,"left","right",0.625,0,0,0
"177",76,177,0.7,"stim/62.jpeg",6,2,2,NA,"Instruments",1,"stim/objects/Instruments/electricdrumset2.png",3,"left","left",0.614000082,1,1,0
"178",76,178,0.9,"stim/14.jpeg",1,4,3,NA,"HouseObjects",2,"stim/objects/HouseObjects/glass2.png",3,"right","right",0.608999968,1,1,0
"179",76,179,0.9,"stim/23.jpeg",2,3,3,NA,"Instruments",1,"stim/objects/Instruments/harp2.png",4,"left","left",0.52699995,1,1,0
"180",76,180,0.5,"stim/41.jpeg",4,1,1,NA,"HouseObjects",2,"stim/objects/HouseObjects/dustpan.png",4,"right","right",0.519999981,1,1,0
"181",76,181,0.9,"stim/24.jpeg",2,4,3,NA,"Instruments",1,"stim/objects/Instruments/hihat2.png",1,"left","left",0.585999966,1,1,0
"182",76,182,0.9,"stim/11.jpeg",1,1,3,NA,"HouseObjects",2,"stim/objects/HouseObjects/dustpan2.png",3,"right","right",0.586999893,1,1,0
"183",76,183,0.3,"stim/53.jpeg",5,3,2,NA,"Instruments",1,"stim/objects/Instruments/harp.png",4,"left","left",0.667999983,1,1,0
"184",76,184,0.5,"stim/42.jpeg",4,2,1,NA,"HouseObjects",2,"stim/objects/HouseObjects/flyswatter.png",2,"right","right",0.513000011,1,1,0
"185",76,185,0.5,"stim/44.jpeg",4,4,1,NA,"HouseObjects",2,"stim/objects/HouseObjects/glass.png",4,"right","right",0.555999994,1,1,0
"186",76,186,0.9,"stim/13.jpeg",1,3,3,NA,"HouseObjects",2,"stim/objects/HouseObjects/garbagebin2.png",3,"right","left",0.369999886,0,0,0
"187",76,187,0.7,"stim/63.jpeg",6,3,2,NA,"Instruments",1,"stim/objects/Instruments/electricguitar2.png",3,"left","right",0.503999949,0,0,0
"188",76,188,0.9,"stim/22.jpeg",2,2,3,NA,"Instruments",1,"stim/objects/Instruments/harmonica2.png",4,"left","left",0.601999998,1,1,0
"189",76,189,0.7,"stim/61.jpeg",6,1,2,NA,"Instruments",1,"stim/objects/Instruments/drums2.png",1,"left","right",0.724999905,0,0,0
"190",76,190,0.5,"stim/33.jpeg",3,3,1,NA,"HouseObjects",2,"stim/objects/HouseObjects/dishsoap.png",2,"right","right",0.717999935,1,1,0
"191",76,191,0.7,"stim/62.jpeg",6,2,2,NA,"Instruments",1,"stim/objects/Instruments/electricdrumset2.png",3,"left","left",0.627999783,1,1,0
"192",76,192,0.9,"stim/22.jpeg",2,2,3,NA,"Instruments",1,"stim/objects/Instruments/harmonica2.png",3,"left","left",0.654999971,1,1,0
"193",76,193,0.5,"stim/34.jpeg",3,4,1,NA,"Instruments",1,"stim/objects/Instruments/flute.png",2,"left","right",0.619999886,0,0,0
"194",76,194,0.7,"stim/63.jpeg",6,3,2,NA,"Instruments",1,"stim/objects/Instruments/electricguitar2.png",4,"left","left",0.585999966,1,1,0
"195",76,195,0.9,"stim/14.jpeg",1,4,3,NA,"HouseObjects",2,"stim/objects/HouseObjects/glass2.png",1,"right","right",0.630999804,1,1,0
"196",76,196,0.7,"stim/63.jpeg",6,3,2,NA,"Instruments",1,"stim/objects/Instruments/electricguitar2.png",1,"left","left",0.664999962,1,1,0
"197",76,197,0.7,"stim/54.jpeg",5,4,2,NA,"HouseObjects",2,"stim/objects/HouseObjects/handvacuum.png",2,"right","right",0.648999929,1,1,0
"198",76,198,0.7,"stim/51.jpeg",5,1,2,NA,"HouseObjects",2,"stim/objects/HouseObjects/glassmop.png",2,"right","right",0.671999931,1,1,0
"199",76,199,0.7,"stim/62.jpeg",6,2,2,NA,"Instruments",1,"stim/objects/Instruments/electricdrumset2.png",4,"left","left",0.553999901,1,1,0
"200",76,200,0.9,"stim/12.jpeg",1,2,3,NA,"HouseObjects",2,"stim/objects/HouseObjects/flyswatter2.png",2,"right","right",0.511999846,1,1,0
"201",76,201,0.7,"stim/64.jpeg",6,4,2,NA,"Instruments",1,"stim/objects/Instruments/flute2.png",4,"left","left",0.626999855,1,1,0
"202",76,202,0.7,"stim/52.jpeg",5,2,2,NA,"HouseObjects",2,"stim/objects/HouseObjects/hairdryer.png",4,"right","right",0.571999788,1,1,0
"203",76,203,0.5,"stim/31.jpeg",3,1,1,NA,"HouseObjects",2,"stim/objects/HouseObjects/coffee.png",3,"right","right",0.729999781,1,1,0
"204",76,204,0.5,"stim/43.jpeg",4,3,1,NA,"Instruments",1,"stim/objects/Instruments/gong.png",4,"left","left",0.395999908,1,1,0
"205",76,205,0.7,"stim/63.jpeg",6,3,2,NA,"Instruments",1,"stim/objects/Instruments/electricguitar2.png",2,"left","left",0.631000042,1,1,0
"206",76,206,0.7,"stim/53.jpeg",5,3,2,NA,"HouseObjects",2,"stim/objects/HouseObjects/handbrush.png",2,"right","right",0.536000013,1,1,0
"207",76,207,0.5,"stim/33.jpeg",3,3,1,NA,"Instruments",1,"stim/objects/Instruments/electricguitar.png",1,"left","left",0.694000006,1,1,0
"208",76,208,0.9,"stim/11.jpeg",1,1,3,NA,"HouseObjects",2,"stim/objects/HouseObjects/dustpan2.png",1,"right","right",0.57799983,1,1,0
"209",76,209,0.5,"stim/33.jpeg",3,3,1,NA,"Instruments",1,"stim/objects/Instruments/electricguitar.png",4,"left","right",0.449999809,0,0,0
"210",76,210,0.7,"stim/54.jpeg",5,4,2,NA,"HouseObjects",2,"stim/objects/HouseObjects/handvacuum.png",4,"right","right",0.646999836,1,1,0
"211",76,211,0.5,"stim/32.jpeg",3,2,1,NA,"Instruments",1,"stim/objects/Instruments/electricdrumset.png",2,"left","left",0.689999819,1,1,0
"212",76,212,0.9,"stim/23.jpeg",2,3,3,NA,"Instruments",1,"stim/objects/Instruments/harp2.png",1,"left","left",0.631999731,1,1,0
"213",76,213,0.3,"stim/64.jpeg",6,4,2,NA,"HouseObjects",2,"stim/objects/HouseObjects/doormat2.png",4,"right","left",0.648000002,0,0,0
"214",76,214,0.5,"stim/34.jpeg",3,4,1,NA,"HouseObjects",2,"stim/objects/HouseObjects/doormat.png",1,"right","right",0.498999834,1,1,0
"215",76,215,0.9,"stim/21.jpeg",2,1,3,NA,"Instruments",1,"stim/objects/Instruments/guitarcase2.png",2,"left","left",0.549999952,1,1,0
"216",76,216,0.9,"stim/13.jpeg",1,3,3,NA,"HouseObjects",2,"stim/objects/HouseObjects/garbagebin2.png",3,"right","",NA,0,0,0
"217",76,217,0.9,"stim/21.jpeg",2,1,3,NA,"Instruments",1,"stim/objects/Instruments/guitarcase2.png",2,"left","left",0.622999907,1,1,0
"218",76,218,0.5,"stim/34.jpeg",3,4,1,NA,"HouseObjects",2,"stim/objects/HouseObjects/doormat.png",3,"right","right",0.59100008,1,1,0
"219",76,219,0.7,"stim/61.jpeg",6,1,2,NA,"Instruments",1,"stim/objects/Instruments/drums2.png",1,"left","left",0.575999975,1,1,0
"220",76,220,0.9,"stim/12.jpeg",1,2,3,NA,"HouseObjects",2,"stim/objects/HouseObjects/flyswatter2.png",3,"right","right",0.615999937,1,1,0
"221",76,221,0.7,"stim/51.jpeg",5,1,2,NA,"HouseObjects",2,"stim/objects/HouseObjects/glassmop.png",4,"right","right",0.647999763,1,1,0
"222",76,222,0.9,"stim/12.jpeg",1,2,3,NA,"HouseObjects",2,"stim/objects/HouseObjects/flyswatter2.png",4,"right","right",0.573999882,1,1,0
"223",76,223,0.3,"stim/51.jpeg",5,1,2,NA,"Instruments",1,"stim/objects/Instruments/guitarcase.png",3,"left","right",0.579999924,0,0,0
"224",76,224,0.7,"stim/53.jpeg",5,3,2,NA,"HouseObjects",2,"stim/objects/HouseObjects/handbrush.png",2,"right","right",0.559999943,1,1,0
"225",76,225,0.5,"stim/34.jpeg",3,4,1,NA,"Instruments",1,"stim/objects/Instruments/flute.png",3,"left","left",0.479999781,1,1,0
"226",76,226,0.3,"stim/52.jpeg",5,2,2,NA,"Instruments",1,"stim/objects/Instruments/harmonica.png",1,"left","right",0.539999962,0,0,0
"227",76,227,0.3,"stim/54.jpeg",5,4,2,NA,"Instruments",1,"stim/objects/Instruments/hihat.png",2,"left","right",0.549999952,0,0,0
"228",76,228,0.5,"stim/42.jpeg",4,2,1,NA,"HouseObjects",2,"stim/objects/HouseObjects/flyswatter.png",3,"right","left",0.592999935,0,0,0
"229",76,229,0.5,"stim/31.jpeg",3,1,1,NA,"HouseObjects",2,"stim/objects/HouseObjects/coffee.png",1,"right","right",0.460999966,1,1,0
"230",76,230,0.5,"stim/33.jpeg",3,3,1,NA,"HouseObjects",2,"stim/objects/HouseObjects/dishsoap.png",3,"right","right",0.58100009,1,1,0
"231",76,231,0.5,"stim/44.jpeg",4,4,1,NA,"Instruments",1,"stim/objects/Instruments/grandpiano.png",4,"left","left",0.445999861,1,1,0
"232",76,232,0.3,"stim/53.jpeg",5,3,2,NA,"Instruments",1,"stim/objects/Instruments/harp.png",1,"left","right",0.406999826,0,0,0
"233",76,233,0.3,"stim/54.jpeg",5,4,2,NA,"Instruments",1,"stim/objects/Instruments/hihat.png",2,"left","right",0.566999912,0,0,0
"234",76,234,0.5,"stim/44.jpeg",4,4,1,NA,"Instruments",1,"stim/objects/Instruments/grandpiano.png",2,"left","right",0.641000032,0,0,0
"235",76,235,0.3,"stim/63.jpeg",6,3,2,NA,"HouseObjects",2,"stim/objects/HouseObjects/dishsoap2.png",4,"right","left",0.597999811,0,0,0
"236",76,236,0.9,"stim/21.jpeg",2,1,3,NA,"Instruments",1,"stim/objects/Instruments/guitarcase2.png",4,"left","left",0.629999876,1,1,0
"237",76,237,0.7,"stim/64.jpeg",6,4,2,NA,"Instruments",1,"stim/objects/Instruments/flute2.png",4,"left","left",0.536000013,1,1,0
"238",76,238,0.7,"stim/51.jpeg",5,1,2,NA,"HouseObjects",2,"stim/objects/HouseObjects/glassmop.png",4,"right","right",0.493999958,1,1,0
"239",76,239,0.1,"stim/13.jpeg",1,3,3,NA,"Instruments",1,"stim/objects/Instruments/gong2.png",2,"left","right",0.639999866,0,0,0
"240",76,240,0.5,"stim/41.jpeg",4,1,1,NA,"Instruments",1,"stim/objects/Instruments/flutetrans.png",2,"left","left",0.686999798,1,1,0
