"","participant","trialN","trial_cond","scn_file","scn_cat","scn_inst","scn_condition","fillers","obj_cat","obj_cat_num","obj_file","quadrant","corr_ans","key_resp_trial.keys","key_resp_trial.rt","trial_acc","trial_acc_manual","group"
"248",20,241,0.5,"stim/14.jpeg",1,4,1,2,"Instruments",2,"stim/objects/Instruments/drums.png",2,"right","right",0.819000006,1,1,1
"249",20,242,0.7,"stim/42.jpeg",4,2,2,1,"HouseObjects",1,"stim/objects/HouseObjects/glass2.png",2,"left","left",0.680000067,1,1,1
"250",20,243,0.9,"stim/54.jpeg",5,4,3,2,"Instruments",2,"stim/objects/Instruments/marimba.png",2,"right","right",0.503999949,1,1,1
"251",20,244,0.3,"stim/31.jpeg",3,1,2,1,"HouseObjects",1,"stim/objects/HouseObjects/doormat2.png",3,"left","right",0.647000074,0,0,1
"252",20,245,0.9,"stim/53.jpeg",5,3,3,2,"Instruments",2,"stim/objects/Instruments/oboe.png",4,"right","right",0.693000078,1,1,1
"253",20,246,0.5,"stim/22.jpeg",2,2,1,1,"HouseObjects",1,"stim/objects/HouseObjects/scale.png",2,"left","left",0.789000034,1,1,1
"254",20,247,0.9,"stim/54.jpeg",5,4,3,2,"Instruments",2,"stim/objects/Instruments/metronome.png",2,"right","right",0.514999866,1,1,1
"255",20,248,0.7,"stim/33.jpeg",3,3,2,2,"Instruments",2,"stim/objects/Instruments/keyboard.png",4,"right","right",0.832999945,1,1,1
"256",20,249,0.9,"stim/61.jpeg",6,1,3,2,"HouseObjects",1,"stim/objects/HouseObjects/pitcher.png",2,"left","right",0.832000017,0,0,1
"257",20,250,0.7,"stim/33.jpeg",3,3,2,1,"Instruments",2,"stim/objects/Instruments/tuba.png",4,"right","right",0.535000086,1,1,1
"258",20,251,0.9,"stim/54.jpeg",5,4,3,2,"Instruments",2,"stim/objects/Instruments/oboe.png",3,"right","right",0.56400013,1,1,1
"259",20,252,0.9,"stim/64.jpeg",6,4,3,2,"HouseObjects",1,"stim/objects/HouseObjects/knife.png",4,"left","left",0.782000065,1,1,1
"260",20,253,0.5,"stim/22.jpeg",2,2,1,1,"Instruments",2,"stim/objects/Instruments/timbal.png",2,"right","left",0.832000017,0,0,1
"261",20,254,0.3,"stim/42.jpeg",4,2,2,1,"Instruments",2,"stim/objects/Instruments/laud2.png",3,"right","left",0.615999937,0,0,1
"262",20,255,0.9,"stim/52.jpeg",5,2,3,2,"Instruments",2,"stim/objects/Instruments/musicsheet.png",4,"right","right",0.675000191,1,1,1
"263",20,256,0.1,"stim/62.jpeg",6,2,3,1,"Instruments",2,"stim/objects/Instruments/triangle2.png",2,"right","left",0.730999947,0,0,1
"264",20,257,0.9,"stim/54.jpeg",5,4,3,2,"Instruments",2,"stim/objects/Instruments/musicstand.png",3,"right","right",0.539999962,1,1,1
"265",20,258,0.1,"stim/61.jpeg",6,1,3,1,"Instruments",2,"stim/objects/Instruments/tuba2.png",2,"right","left",0.571000099,0,0,1
"266",20,259,0.3,"stim/42.jpeg",4,2,2,1,"Instruments",2,"stim/objects/Instruments/frenchhorn2.png",1,"right","right",0.677999973,1,1,1
"267",20,260,0.9,"stim/63.jpeg",6,3,3,2,"HouseObjects",1,"stim/objects/HouseObjects/knife.png",2,"left","left",0.52699995,1,1,1
"268",20,261,0.7,"stim/34.jpeg",3,4,2,2,"Instruments",2,"stim/objects/Instruments/laud.png",3,"right","right",0.513999939,1,1,1
"269",20,262,0.9,"stim/63.jpeg",6,3,3,2,"HouseObjects",1,"stim/objects/HouseObjects/match.png",1,"left","left",0.883000135,1,1,1
"270",20,263,0.7,"stim/44.jpeg",4,4,2,1,"HouseObjects",1,"stim/objects/HouseObjects/flyswatter2.png",1,"left","left",0.644999981,1,1,1
"271",20,264,0.9,"stim/51.jpeg",5,1,3,2,"Instruments",2,"stim/objects/Instruments/oboe.png",4,"right","right",0.50999999,1,1,1
"272",20,265,0.9,"stim/53.jpeg",5,3,3,2,"Instruments",2,"stim/objects/Instruments/musicsheet.png",1,"right","right",0.535000086,1,1,1
"273",20,266,0.7,"stim/34.jpeg",3,4,2,2,"Instruments",2,"stim/objects/Instruments/maraca.png",2,"right","right",0.774999857,1,1,1
"274",20,267,0.9,"stim/51.jpeg",5,1,3,2,"Instruments",2,"stim/objects/Instruments/marimba.png",4,"right","right",0.595000029,1,1,1
"275",20,268,0.9,"stim/61.jpeg",6,1,3,2,"HouseObjects",1,"stim/objects/HouseObjects/lintroller.png",4,"left","left",0.53399992,1,1,1
"276",20,269,0.1,"stim/51.jpeg",5,1,3,1,"HouseObjects",1,"stim/objects/HouseObjects/knife2.png",3,"left","right",0.501999855,0,0,1
"277",20,270,0.9,"stim/54.jpeg",5,4,3,1,"Instruments",2,"stim/objects/Instruments/panflute2.png",3,"right","right",0.519000053,1,1,1
"278",20,271,0.7,"stim/34.jpeg",3,4,2,2,"Instruments",2,"stim/objects/Instruments/hihat.png",4,"right","right",0.506000042,1,1,1
"279",20,272,0.9,"stim/52.jpeg",5,2,3,2,"Instruments",2,"stim/objects/Instruments/musicstand.png",3,"right","right",0.523999929,1,1,1
"280",20,273,0.9,"stim/61.jpeg",6,1,3,2,"HouseObjects",1,"stim/objects/HouseObjects/knife.png",2,"left","left",0.458999872,1,1,1
"281",20,274,0.9,"stim/61.jpeg",6,1,3,2,"HouseObjects",1,"stim/objects/HouseObjects/pan.png",1,"left","left",0.535000086,1,1,1
"282",20,275,0.3,"stim/34.jpeg",3,4,2,1,"HouseObjects",1,"stim/objects/HouseObjects/dishsoap2.png",1,"left","left",0.615999937,1,1,1
"283",20,276,0.5,"stim/11.jpeg",1,1,1,1,"HouseObjects",1,"stim/objects/HouseObjects/rubbergloves.png",4,"left","left",0.618999958,1,1,1
"284",20,277,0.9,"stim/61.jpeg",6,1,3,2,"HouseObjects",1,"stim/objects/HouseObjects/match.png",2,"left","left",0.806999922,1,1,1
"285",20,278,0.9,"stim/64.jpeg",6,4,3,2,"HouseObjects",1,"stim/objects/HouseObjects/pan.png",4,"left","left",0.761000156,1,1,1
"286",20,279,0.7,"stim/42.jpeg",4,2,2,2,"HouseObjects",1,"stim/objects/HouseObjects/handbrush.png",4,"left","left",0.846000195,1,1,1
"287",20,280,0.7,"stim/41.jpeg",4,1,2,1,"HouseObjects",1,"stim/objects/HouseObjects/garbagebin2.png",1,"left","left",0.743000031,1,1,1
"288",20,281,0.9,"stim/53.jpeg",5,3,3,2,"Instruments",2,"stim/objects/Instruments/marimba.png",3,"right","right",0.654999971,1,1,1
"289",20,282,0.9,"stim/64.jpeg",6,4,3,2,"HouseObjects",1,"stim/objects/HouseObjects/pan.png",1,"left","left",0.717999935,1,1,1
"290",20,283,0.5,"stim/24.jpeg",2,4,1,1,"Instruments",2,"stim/objects/Instruments/speaker.png",1,"right","left",0.909999847,0,0,1
"291",20,284,0.7,"stim/43.jpeg",4,3,2,2,"HouseObjects",1,"stim/objects/HouseObjects/iron.png",3,"left","left",0.749000072,1,1,1
"292",20,285,0.9,"stim/51.jpeg",5,1,3,2,"Instruments",2,"stim/objects/Instruments/oboe.png",3,"right","right",0.567000151,1,1,1
"293",20,286,0.9,"stim/61.jpeg",6,1,3,1,"HouseObjects",1,"stim/objects/HouseObjects/saw2.png",1,"left","left",0.55099988,1,1,1
"294",20,287,0.7,"stim/32.jpeg",3,2,2,2,"Instruments",2,"stim/objects/Instruments/hihat.png",2,"right","right",0.484999895,1,1,1
"295",20,288,0.5,"stim/11.jpeg",1,1,1,2,"Instruments",2,"stim/objects/Instruments/flutetrans.png",3,"right","left",0.601999998,0,0,1
"296",20,289,0.3,"stim/41.jpeg",4,1,2,1,"Instruments",2,"stim/objects/Instruments/keyboard2.png",4,"right","left",0.630000114,0,0,1
"297",20,290,0.5,"stim/22.jpeg",2,2,1,2,"Instruments",2,"stim/objects/Instruments/frenchhorn.png",4,"right","left",0.914000034,0,0,1
"298",20,291,0.9,"stim/53.jpeg",5,3,3,2,"Instruments",2,"stim/objects/Instruments/musicstand.png",2,"right","right",0.503000021,1,1,1
"299",20,292,0.9,"stim/53.jpeg",5,3,3,2,"Instruments",2,"stim/objects/Instruments/musicstand.png",4,"right","right",0.602999926,1,1,1
"300",20,293,0.9,"stim/62.jpeg",6,2,3,2,"HouseObjects",1,"stim/objects/HouseObjects/pitcher.png",4,"left","left",0.680999994,1,1,1
"301",20,294,0.7,"stim/43.jpeg",4,3,2,2,"HouseObjects",1,"stim/objects/HouseObjects/handbrush.png",2,"left","left",0.640000105,1,1,1
"302",20,295,0.1,"stim/54.jpeg",5,4,3,1,"HouseObjects",1,"stim/objects/HouseObjects/pan2.png",3,"left","right",0.661999941,0,0,1
"303",20,296,0.5,"stim/23.jpeg",2,3,1,2,"HouseObjects",1,"stim/objects/HouseObjects/glassmop.png",3,"left","left",0.717000008,1,1,1
"304",20,297,0.9,"stim/61.jpeg",6,1,3,1,"HouseObjects",1,"stim/objects/HouseObjects/vacuumcleaner2.png",1,"left","left",0.835999966,1,1,1
"305",20,298,0.7,"stim/34.jpeg",3,4,2,1,"Instruments",2,"stim/objects/Instruments/electricdrumset2.png",1,"right","right",0.631000042,1,1,1
"306",20,299,0.9,"stim/54.jpeg",5,4,3,2,"Instruments",2,"stim/objects/Instruments/oboe.png",1,"right","right",0.670000076,1,1,1
"307",20,300,0.5,"stim/24.jpeg",2,4,1,2,"HouseObjects",1,"stim/objects/HouseObjects/garbagebin.png",4,"left","right",0.773000002,0,0,1
"308",20,301,0.1,"stim/63.jpeg",6,3,3,1,"Instruments",2,"stim/objects/Instruments/vuvuzela2.png",2,"right","left",0.845000029,0,0,1
"309",20,302,0.5,"stim/24.jpeg",2,4,1,2,"HouseObjects",1,"stim/objects/HouseObjects/flyswatter.png",2,"left","",NA,0,0,1
"310",20,303,0.9,"stim/64.jpeg",6,4,3,2,"HouseObjects",1,"stim/objects/HouseObjects/match.png",3,"left","left",0.663999796,1,1,1
"311",20,304,0.7,"stim/42.jpeg",4,2,2,2,"HouseObjects",1,"stim/objects/HouseObjects/ironingboard.png",1,"left","left",0.537000179,1,1,1
"312",20,305,0.9,"stim/53.jpeg",5,3,3,2,"Instruments",2,"stim/objects/Instruments/musicstand.png",3,"right","right",0.640000105,1,1,1
"313",20,306,0.9,"stim/64.jpeg",6,4,3,2,"HouseObjects",1,"stim/objects/HouseObjects/lintroller.png",2,"left","left",0.67599988,1,1,1
"314",20,307,0.9,"stim/53.jpeg",5,3,3,2,"Instruments",2,"stim/objects/Instruments/musicstand.png",1,"right","right",0.559000015,1,1,1
"315",20,308,0.3,"stim/43.jpeg",4,3,2,1,"Instruments",2,"stim/objects/Instruments/maraca2.png",2,"right","left",0.559000015,0,0,1
"316",20,309,0.7,"stim/44.jpeg",4,4,2,1,"HouseObjects",1,"stim/objects/HouseObjects/hairdryer2.png",3,"left","left",0.640999794,1,1,1
"317",20,310,0.5,"stim/24.jpeg",2,4,1,2,"Instruments",2,"stim/objects/Instruments/gong.png",2,"right","left",0.687999964,0,0,1
"318",20,311,0.7,"stim/44.jpeg",4,4,2,2,"HouseObjects",1,"stim/objects/HouseObjects/handvacuum.png",2,"left","left",0.67599988,1,1,1
"319",20,312,0.9,"stim/51.jpeg",5,1,3,2,"Instruments",2,"stim/objects/Instruments/metronome.png",1,"right","right",0.459000111,1,1,1
"320",20,313,0.9,"stim/52.jpeg",5,2,3,2,"Instruments",2,"stim/objects/Instruments/musicsheet.png",4,"right","right",0.603000164,1,1,1
"321",20,314,0.9,"stim/52.jpeg",5,2,3,2,"Instruments",2,"stim/objects/Instruments/musicsheet.png",2,"right","right",0.460000038,1,1,1
"322",20,315,0.3,"stim/41.jpeg",4,1,2,1,"Instruments",2,"stim/objects/Instruments/guitarcase2.png",4,"right","left",0.555000067,0,0,1
"323",20,316,0.7,"stim/32.jpeg",3,2,2,1,"Instruments",2,"stim/objects/Instruments/xylophone.png",2,"right","right",0.511000156,1,1,1
"324",20,317,0.9,"stim/61.jpeg",6,1,3,2,"HouseObjects",1,"stim/objects/HouseObjects/pitcher.png",1,"left","left",0.520999908,1,1,1
"325",20,318,0.9,"stim/62.jpeg",6,2,3,2,"HouseObjects",1,"stim/objects/HouseObjects/pitcher.png",4,"left","left",0.572000027,1,1,1
"326",20,319,0.5,"stim/14.jpeg",1,4,1,1,"Instruments",2,"stim/objects/Instruments/record.png",1,"right","left",0.741999865,0,0,1
"327",20,320,0.9,"stim/51.jpeg",5,1,3,2,"Instruments",2,"stim/objects/Instruments/musicstand.png",4,"right","right",0.503999949,1,1,1
"328",20,321,0.5,"stim/13.jpeg",1,3,1,1,"HouseObjects",1,"stim/objects/HouseObjects/safetypin.png",1,"left","right",0.557999849,0,0,1
"329",20,322,0.3,"stim/43.jpeg",4,3,2,1,"Instruments",2,"stim/objects/Instruments/harp2.png",4,"right","left",0.911999941,0,0,1
"330",20,323,0.9,"stim/53.jpeg",5,3,3,2,"Instruments",2,"stim/objects/Instruments/oboe.png",3,"right","left",0.638999939,0,0,1
"331",20,324,0.9,"stim/54.jpeg",5,4,3,2,"Instruments",2,"stim/objects/Instruments/musicstand.png",3,"right","right",0.467999935,1,1,1
"332",20,325,0.3,"stim/42.jpeg",4,2,2,1,"Instruments",2,"stim/objects/Instruments/harmonica2.png",2,"right","right",0.471999884,1,1,1
"333",20,326,0.9,"stim/62.jpeg",6,2,3,2,"HouseObjects",1,"stim/objects/HouseObjects/match.png",1,"left","left",0.662999868,1,1,1
"334",20,327,0.9,"stim/52.jpeg",5,2,3,2,"Instruments",2,"stim/objects/Instruments/musicstand.png",3,"right","right",0.588999987,1,1,1
"335",20,328,0.9,"stim/51.jpeg",5,1,3,2,"Instruments",2,"stim/objects/Instruments/musicstand.png",3,"right","right",0.519999981,1,1,1
"336",20,329,0.9,"stim/61.jpeg",6,1,3,1,"HouseObjects",1,"stim/objects/HouseObjects/teapot2.png",1,"left","left",0.54399991,1,1,1
"337",20,330,0.9,"stim/62.jpeg",6,2,3,1,"HouseObjects",1,"stim/objects/HouseObjects/wateringcan2.png",4,"left","left",0.551000118,1,1,1
"338",20,331,0.7,"stim/33.jpeg",3,3,2,1,"Instruments",2,"stim/objects/Instruments/drums2.png",1,"right","right",0.517999887,1,1,1
"339",20,332,0.9,"stim/51.jpeg",5,1,3,2,"Instruments",2,"stim/objects/Instruments/marimba.png",3,"right","right",0.493999958,1,1,1
"340",20,333,0.9,"stim/62.jpeg",6,2,3,1,"HouseObjects",1,"stim/objects/HouseObjects/scale2.png",3,"left","left",0.503999949,1,1,1
"341",20,334,0.9,"stim/61.jpeg",6,1,3,2,"HouseObjects",1,"stim/objects/HouseObjects/pitcher.png",3,"left","left",0.559000015,1,1,1
"342",20,335,0.5,"stim/23.jpeg",2,3,1,2,"HouseObjects",1,"stim/objects/HouseObjects/hairdryer.png",4,"left","left",0.644999981,1,1,1
"343",20,336,0.9,"stim/52.jpeg",5,2,3,2,"Instruments",2,"stim/objects/Instruments/oboe.png",2,"right","right",0.561000109,1,1,1
"344",20,337,0.5,"stim/23.jpeg",2,3,1,2,"Instruments",2,"stim/objects/Instruments/harmonica.png",1,"right","left",0.575999975,0,0,1
"345",20,338,0.9,"stim/52.jpeg",5,2,3,2,"Instruments",2,"stim/objects/Instruments/marimba.png",3,"right","right",0.5,1,1,1
"346",20,339,0.5,"stim/12.jpeg",1,2,1,2,"Instruments",2,"stim/objects/Instruments/electricguitar.png",2,"right","left",0.664000034,0,0,1
"347",20,340,0.3,"stim/32.jpeg",3,2,2,1,"HouseObjects",1,"stim/objects/HouseObjects/coffee2.png",2,"left","right",0.713000059,0,0,1
"348",20,341,0.9,"stim/54.jpeg",5,4,3,2,"Instruments",2,"stim/objects/Instruments/marimba.png",4,"right","right",0.484000206,1,1,1
"349",20,342,0.9,"stim/61.jpeg",6,1,3,2,"HouseObjects",1,"stim/objects/HouseObjects/match.png",3,"left","left",0.49000001,1,1,1
"350",20,343,0.9,"stim/61.jpeg",6,1,3,2,"HouseObjects",1,"stim/objects/HouseObjects/pan.png",1,"left","left",0.559000015,1,1,1
"351",20,344,0.5,"stim/12.jpeg",1,2,1,2,"HouseObjects",1,"stim/objects/HouseObjects/coffee.png",3,"left","right",0.674999952,0,0,1
"352",20,345,0.9,"stim/62.jpeg",6,2,3,1,"HouseObjects",1,"stim/objects/HouseObjects/thermometer2.png",2,"left","left",0.562999964,1,1,1
"353",20,346,0.1,"stim/52.jpeg",5,2,3,1,"HouseObjects",1,"stim/objects/HouseObjects/recyclingbin2.png",3,"left","right",0.491999865,0,0,1
"354",20,347,0.9,"stim/64.jpeg",6,4,3,2,"HouseObjects",1,"stim/objects/HouseObjects/pitcher.png",3,"left","left",0.713999987,1,1,1
"355",20,348,0.7,"stim/31.jpeg",3,1,2,2,"Instruments",2,"stim/objects/Instruments/keyboard.png",3,"right","right",0.572999954,1,1,1
"356",20,349,0.7,"stim/31.jpeg",3,1,2,2,"Instruments",2,"stim/objects/Instruments/hihat.png",4,"right","right",0.562999964,1,1,1
"357",20,350,0.9,"stim/62.jpeg",6,2,3,2,"HouseObjects",1,"stim/objects/HouseObjects/pitcher.png",3,"left","left",0.528000116,1,1,1
"358",20,351,0.7,"stim/34.jpeg",3,4,2,1,"Instruments",2,"stim/objects/Instruments/violin.png",4,"right","right",0.60800004,1,1,1
"359",20,352,0.9,"stim/51.jpeg",5,1,3,2,"Instruments",2,"stim/objects/Instruments/metronome.png",1,"right","right",0.483999968,1,1,1
"360",20,353,0.1,"stim/51.jpeg",5,1,3,1,"HouseObjects",1,"stim/objects/HouseObjects/rug2.png",2,"left","right",0.463999987,0,0,1
"361",20,354,0.9,"stim/54.jpeg",5,4,3,2,"Instruments",2,"stim/objects/Instruments/marimba.png",3,"right","right",0.710000038,1,1,1
"362",20,355,0.9,"stim/62.jpeg",6,2,3,2,"HouseObjects",1,"stim/objects/HouseObjects/lintroller.png",3,"left","left",0.506000042,1,1,1
"363",20,356,0.9,"stim/61.jpeg",6,1,3,2,"HouseObjects",1,"stim/objects/HouseObjects/pitcher.png",3,"left","left",0.523999929,1,1,1
"364",20,357,0.9,"stim/54.jpeg",5,4,3,2,"Instruments",2,"stim/objects/Instruments/oboe.png",2,"right","right",0.450000048,1,1,1
"365",20,358,0.9,"stim/64.jpeg",6,4,3,2,"HouseObjects",1,"stim/objects/HouseObjects/match.png",4,"left","left",0.531000137,1,1,1
"366",20,359,0.9,"stim/62.jpeg",6,2,3,2,"HouseObjects",1,"stim/objects/HouseObjects/lintroller.png",2,"left","left",0.584000111,1,1,1
"367",20,360,0.7,"stim/34.jpeg",3,4,2,2,"Instruments",2,"stim/objects/Instruments/harp.png",2,"right","right",0.486000061,1,1,1
"368",20,361,0.9,"stim/61.jpeg",6,1,3,2,"HouseObjects",1,"stim/objects/HouseObjects/lintroller.png",2,"left","left",0.566999912,1,1,1
"369",20,362,0.9,"stim/64.jpeg",6,4,3,2,"HouseObjects",1,"stim/objects/HouseObjects/knife.png",2,"left","right",0.394000053,0,0,1
"370",20,363,0.3,"stim/34.jpeg",3,4,2,1,"HouseObjects",1,"stim/objects/HouseObjects/vacuumcleaner.png",3,"left","right",0.555000067,0,0,1
"371",20,364,0.9,"stim/64.jpeg",6,4,3,1,"HouseObjects",1,"stim/objects/HouseObjects/spraybottle2.png",4,"left","left",0.527999878,1,1,1
"372",20,365,0.9,"stim/63.jpeg",6,3,3,2,"HouseObjects",1,"stim/objects/HouseObjects/lintroller.png",2,"left","left",0.509000063,1,1,1
"373",20,366,0.1,"stim/64.jpeg",6,4,3,1,"Instruments",2,"stim/objects/Instruments/xylophone2.png",4,"right","left",0.561000109,0,0,1
"374",20,367,0.9,"stim/64.jpeg",6,4,3,2,"HouseObjects",1,"stim/objects/HouseObjects/lintroller.png",3,"left","left",0.431999922,1,1,1
"375",20,368,0.5,"stim/22.jpeg",2,2,1,2,"HouseObjects",1,"stim/objects/HouseObjects/glass.png",4,"left","left",0.639999866,1,1,1
"376",20,369,0.1,"stim/52.jpeg",5,2,3,1,"HouseObjects",1,"stim/objects/HouseObjects/lintroller2.png",3,"left","right",0.502000093,0,0,1
"377",20,370,0.5,"stim/23.jpeg",2,3,1,2,"Instruments",2,"stim/objects/Instruments/gong.png",2,"right","left",0.89199996,0,0,1
"378",20,371,0.9,"stim/63.jpeg",6,3,3,2,"HouseObjects",1,"stim/objects/HouseObjects/knife.png",1,"left","left",0.555000067,1,1,1
"379",20,372,0.9,"stim/52.jpeg",5,2,3,2,"Instruments",2,"stim/objects/Instruments/marimba.png",3,"right","right",0.521000147,1,1,1
"380",20,373,0.9,"stim/53.jpeg",5,3,3,2,"Instruments",2,"stim/objects/Instruments/marimba.png",2,"right","left",0.527999878,0,0,1
"381",20,374,0.9,"stim/64.jpeg",6,4,3,2,"HouseObjects",1,"stim/objects/HouseObjects/pitcher.png",2,"left","left",0.568000078,1,1,1
"382",20,375,0.7,"stim/31.jpeg",3,1,2,2,"Instruments",2,"stim/objects/Instruments/maraca.png",1,"right","right",0.540999889,1,1,1
"383",20,376,0.9,"stim/62.jpeg",6,2,3,2,"HouseObjects",1,"stim/objects/HouseObjects/knife.png",4,"left","left",0.595999956,1,1,1
"384",20,377,0.9,"stim/62.jpeg",6,2,3,2,"HouseObjects",1,"stim/objects/HouseObjects/pan.png",2,"left","left",0.856999874,1,1,1
"385",20,378,0.3,"stim/33.jpeg",3,3,2,1,"HouseObjects",1,"stim/objects/HouseObjects/towel.png",4,"left","right",0.632000208,0,0,1
"386",20,379,0.9,"stim/52.jpeg",5,2,3,2,"Instruments",2,"stim/objects/Instruments/metronome.png",4,"right","right",0.496000051,1,1,1
"387",20,380,0.9,"stim/51.jpeg",5,1,3,2,"Instruments",2,"stim/objects/Instruments/marimba.png",3,"right","right",0.490999937,1,1,1
"388",20,381,0.9,"stim/62.jpeg",6,2,3,2,"HouseObjects",1,"stim/objects/HouseObjects/lintroller.png",3,"left","left",0.618000031,1,1,1
"389",20,382,0.9,"stim/53.jpeg",5,3,3,1,"Instruments",2,"stim/objects/Instruments/oboe2.png",4,"right","right",0.481999874,1,1,1
"390",20,383,0.9,"stim/63.jpeg",6,3,3,2,"HouseObjects",1,"stim/objects/HouseObjects/match.png",2,"left","left",0.898000002,1,1,1
"391",20,384,0.9,"stim/62.jpeg",6,2,3,2,"HouseObjects",1,"stim/objects/HouseObjects/pan.png",4,"left","left",0.522000074,1,1,1
"392",20,385,0.5,"stim/23.jpeg",2,3,1,1,"Instruments",2,"stim/objects/Instruments/triangle.png",2,"right","left",0.669000149,0,0,1
"393",20,386,0.7,"stim/33.jpeg",3,3,2,2,"Instruments",2,"stim/objects/Instruments/laud.png",3,"right","right",0.582000017,1,1,1
"394",20,387,0.9,"stim/52.jpeg",5,2,3,2,"Instruments",2,"stim/objects/Instruments/metronome.png",3,"right","right",0.647000074,1,1,1
"395",20,388,0.9,"stim/53.jpeg",5,3,3,2,"Instruments",2,"stim/objects/Instruments/oboe.png",1,"right","right",0.74000001,1,1,1
"396",20,389,0.9,"stim/62.jpeg",6,2,3,2,"HouseObjects",1,"stim/objects/HouseObjects/pan.png",4,"left","left",0.488000154,1,1,1
"397",20,390,0.9,"stim/51.jpeg",5,1,3,2,"Instruments",2,"stim/objects/Instruments/oboe.png",3,"right","right",0.529999971,1,1,1
"398",20,391,0.7,"stim/41.jpeg",4,1,2,1,"HouseObjects",1,"stim/objects/HouseObjects/handbrush2.png",1,"left","",NA,0,0,1
"399",20,392,0.9,"stim/64.jpeg",6,4,3,2,"HouseObjects",1,"stim/objects/HouseObjects/lintroller.png",4,"left","left",0.506999969,1,1,1
"400",20,393,0.1,"stim/52.jpeg",5,2,3,1,"HouseObjects",1,"stim/objects/HouseObjects/safetypin2.png",4,"left","right",0.46600008,0,0,1
"401",20,394,0.7,"stim/41.jpeg",4,1,2,1,"HouseObjects",1,"stim/objects/HouseObjects/key2.png",1,"left","left",0.548999786,1,1,1
"402",20,395,0.7,"stim/41.jpeg",4,1,2,2,"HouseObjects",1,"stim/objects/HouseObjects/ironingboard.png",4,"left","right",0.583999872,0,0,1
"403",20,396,0.9,"stim/64.jpeg",6,4,3,2,"HouseObjects",1,"stim/objects/HouseObjects/knife.png",2,"left","left",0.5,1,1,1
"404",20,397,0.9,"stim/64.jpeg",6,4,3,2,"HouseObjects",1,"stim/objects/HouseObjects/pitcher.png",4,"left","left",0.513999939,1,1,1
"405",20,398,0.5,"stim/21.jpeg",2,1,1,2,"HouseObjects",1,"stim/objects/HouseObjects/garbagebin.png",4,"left","left",0.671000004,1,1,1
"406",20,399,0.5,"stim/22.jpeg",2,2,1,2,"HouseObjects",1,"stim/objects/HouseObjects/glassmop.png",1,"left","left",0.630000114,1,1,1
"407",20,400,0.5,"stim/12.jpeg",1,2,1,2,"HouseObjects",1,"stim/objects/HouseObjects/dustpan.png",3,"left","left",0.713999987,1,1,1
"408",20,401,0.9,"stim/64.jpeg",6,4,3,2,"HouseObjects",1,"stim/objects/HouseObjects/lintroller.png",2,"left","left",0.489000082,1,1,1
"409",20,402,0.5,"stim/23.jpeg",2,3,1,1,"HouseObjects",1,"stim/objects/HouseObjects/sponge.png",3,"left","left",0.752000093,1,1,1
"410",20,403,0.9,"stim/52.jpeg",5,2,3,1,"Instruments",2,"stim/objects/Instruments/record2.png",2,"right","right",0.684000015,1,1,1
"411",20,404,0.5,"stim/21.jpeg",2,1,1,1,"HouseObjects",1,"stim/objects/HouseObjects/saw.png",1,"left","left",0.579999924,1,1,1
"412",20,405,0.5,"stim/22.jpeg",2,2,1,2,"Instruments",2,"stim/objects/Instruments/guitarcase.png",2,"right","left",0.66899991,0,0,1
"413",20,406,0.7,"stim/31.jpeg",3,1,2,2,"Instruments",2,"stim/objects/Instruments/harp.png",3,"right","left",0.757999897,0,0,1
"414",20,407,0.5,"stim/11.jpeg",1,1,1,2,"HouseObjects",1,"stim/objects/HouseObjects/coffee.png",2,"left","right",0.570999861,0,0,1
"415",20,408,0.9,"stim/54.jpeg",5,4,3,2,"Instruments",2,"stim/objects/Instruments/musicstand.png",4,"right","right",0.549999952,1,1,1
"416",20,409,0.9,"stim/51.jpeg",5,1,3,2,"Instruments",2,"stim/objects/Instruments/musicsheet.png",2,"right","right",0.505000114,1,1,1
"417",20,410,0.5,"stim/12.jpeg",1,2,1,2,"Instruments",2,"stim/objects/Instruments/electricdrumset.png",1,"right","left",0.651000023,0,0,1
"418",20,411,0.9,"stim/63.jpeg",6,3,3,2,"HouseObjects",1,"stim/objects/HouseObjects/pan.png",1,"left","",NA,0,0,1
"419",20,412,0.5,"stim/13.jpeg",1,3,1,1,"Instruments",2,"stim/objects/Instruments/pipepiano.png",2,"right","left",0.765000105,0,0,1
"420",20,413,0.7,"stim/43.jpeg",4,3,2,1,"HouseObjects",1,"stim/objects/HouseObjects/glassmop2.png",3,"left","left",0.648000002,1,1,1
"421",20,414,0.5,"stim/14.jpeg",1,4,1,2,"Instruments",2,"stim/objects/Instruments/flute.png",3,"right","left",0.8349998,0,0,1
"422",20,415,0.7,"stim/43.jpeg",4,3,2,1,"HouseObjects",1,"stim/objects/HouseObjects/iron2.png",2,"left","left",0.588000059,1,1,1
"423",20,416,0.5,"stim/12.jpeg",1,2,1,2,"HouseObjects",1,"stim/objects/HouseObjects/cushion.png",4,"left","left",0.729000092,1,1,1
"424",20,417,0.1,"stim/51.jpeg",5,1,3,1,"HouseObjects",1,"stim/objects/HouseObjects/pitcher2.png",1,"left","right",0.508000135,0,0,1
"425",20,418,0.9,"stim/63.jpeg",6,3,3,2,"HouseObjects",1,"stim/objects/HouseObjects/match.png",1,"left","left",0.60800004,1,1,1
"426",20,419,0.9,"stim/52.jpeg",5,2,3,2,"Instruments",2,"stim/objects/Instruments/oboe.png",4,"right","right",0.525999784,1,1,1
"427",20,420,0.9,"stim/52.jpeg",5,2,3,2,"Instruments",2,"stim/objects/Instruments/musicstand.png",4,"right","right",0.828000069,1,1,1
"428",20,421,0.9,"stim/63.jpeg",6,3,3,2,"HouseObjects",1,"stim/objects/HouseObjects/pan.png",4,"left","left",0.546000004,1,1,1
"429",20,422,0.9,"stim/62.jpeg",6,2,3,2,"HouseObjects",1,"stim/objects/HouseObjects/match.png",3,"left","left",0.672999859,1,1,1
"430",20,423,0.5,"stim/13.jpeg",1,3,1,2,"HouseObjects",1,"stim/objects/HouseObjects/cushion.png",3,"left","right",0.54700017,0,0,1
"431",20,424,0.9,"stim/61.jpeg",6,1,3,2,"HouseObjects",1,"stim/objects/HouseObjects/match.png",4,"left","left",0.520999908,1,1,1
"432",20,425,0.5,"stim/21.jpeg",2,1,1,1,"HouseObjects",1,"stim/objects/HouseObjects/teapot.png",4,"left","left",0.575000048,1,1,1
"433",20,426,0.7,"stim/32.jpeg",3,2,2,2,"Instruments",2,"stim/objects/Instruments/keyboard.png",3,"right","right",0.588999987,1,1,1
"434",20,427,0.9,"stim/54.jpeg",5,4,3,1,"Instruments",2,"stim/objects/Instruments/metronome2.png",3,"right","right",0.65199995,1,1,1
"435",20,428,0.9,"stim/64.jpeg",6,4,3,2,"HouseObjects",1,"stim/objects/HouseObjects/pan.png",1,"left","left",0.664999962,1,1,1
"436",20,429,0.5,"stim/14.jpeg",1,4,1,2,"HouseObjects",1,"stim/objects/HouseObjects/doormat.png",4,"left","",NA,0,0,1
"437",20,430,0.9,"stim/54.jpeg",5,4,3,2,"Instruments",2,"stim/objects/Instruments/musicsheet.png",2,"right","right",0.794000149,1,1,1
"438",20,431,0.9,"stim/54.jpeg",5,4,3,2,"Instruments",2,"stim/objects/Instruments/metronome.png",1,"right","right",0.697000027,1,1,1
"439",20,432,0.9,"stim/63.jpeg",6,3,3,1,"HouseObjects",1,"stim/objects/HouseObjects/thread2.png",3,"left","left",0.654000044,1,1,1
"440",20,433,0.9,"stim/51.jpeg",5,1,3,2,"Instruments",2,"stim/objects/Instruments/musicstand.png",4,"right","right",0.549000025,1,1,1
"441",20,434,0.5,"stim/11.jpeg",1,1,1,2,"Instruments",2,"stim/objects/Instruments/electricdrumset.png",1,"right","left",0.555999994,0,0,1
"442",20,435,0.7,"stim/44.jpeg",4,4,2,2,"HouseObjects",1,"stim/objects/HouseObjects/ironingboard.png",2,"left","left",0.63499999,1,1,1
"443",20,436,0.5,"stim/24.jpeg",2,4,1,1,"Instruments",2,"stim/objects/Instruments/trombone.png",1,"right","left",0.573999882,0,0,1
"444",20,437,0.9,"stim/62.jpeg",6,2,3,2,"HouseObjects",1,"stim/objects/HouseObjects/pitcher.png",1,"left","left",0.573999882,1,1,1
"445",20,438,0.9,"stim/51.jpeg",5,1,3,2,"Instruments",2,"stim/objects/Instruments/musicsheet.png",2,"right","right",0.59800005,1,1,1
"446",20,439,0.7,"stim/44.jpeg",4,4,2,1,"HouseObjects",1,"stim/objects/HouseObjects/ironingboard2.png",1,"left","left",0.606999874,1,1,1
"447",20,440,0.9,"stim/53.jpeg",5,3,3,1,"Instruments",2,"stim/objects/Instruments/record_player2.png",2,"right","right",0.735000134,1,1,1
"448",20,441,0.9,"stim/64.jpeg",6,4,3,2,"HouseObjects",1,"stim/objects/HouseObjects/match.png",1,"left","left",0.667999983,1,1,1
"449",20,442,0.9,"stim/54.jpeg",5,4,3,2,"Instruments",2,"stim/objects/Instruments/metronome.png",1,"right","right",0.539999962,1,1,1
"450",20,443,0.9,"stim/63.jpeg",6,3,3,1,"HouseObjects",1,"stim/objects/HouseObjects/sponge2.png",4,"left","",NA,0,0,1
"451",20,444,0.3,"stim/32.jpeg",3,2,2,1,"HouseObjects",1,"stim/objects/HouseObjects/thread.png",1,"left","right",0.583000183,0,0,1
"452",20,445,0.9,"stim/62.jpeg",6,2,3,2,"HouseObjects",1,"stim/objects/HouseObjects/match.png",4,"left","left",0.546999931,1,1,1
"453",20,446,0.9,"stim/53.jpeg",5,3,3,2,"Instruments",2,"stim/objects/Instruments/musicsheet.png",3,"right","right",0.529999971,1,1,1
"454",20,447,0.7,"stim/42.jpeg",4,2,2,2,"HouseObjects",1,"stim/objects/HouseObjects/handvacuum.png",1,"left","left",0.565999985,1,1,1
"455",20,448,0.9,"stim/52.jpeg",5,2,3,2,"Instruments",2,"stim/objects/Instruments/oboe.png",2,"right","right",0.69900012,1,1,1
"456",20,449,0.9,"stim/62.jpeg",6,2,3,2,"HouseObjects",1,"stim/objects/HouseObjects/knife.png",3,"left","left",0.592000008,1,1,1
"457",20,450,0.9,"stim/53.jpeg",5,3,3,1,"Instruments",2,"stim/objects/Instruments/marimba2.png",1,"right","right",0.563999891,1,1,1
"458",20,451,0.9,"stim/54.jpeg",5,4,3,2,"Instruments",2,"stim/objects/Instruments/musicsheet.png",2,"right","right",0.795000076,1,1,1
"459",20,452,0.9,"stim/62.jpeg",6,2,3,2,"HouseObjects",1,"stim/objects/HouseObjects/knife.png",1,"left","left",0.48300004,1,1,1
"460",20,453,0.9,"stim/63.jpeg",6,3,3,2,"HouseObjects",1,"stim/objects/HouseObjects/pan.png",1,"left","left",0.561000109,1,1,1
"461",20,454,0.9,"stim/52.jpeg",5,2,3,2,"Instruments",2,"stim/objects/Instruments/musicstand.png",2,"right","right",0.450999975,1,1,1
"462",20,455,0.1,"stim/63.jpeg",6,3,3,1,"Instruments",2,"stim/objects/Instruments/speaker2.png",2,"right","left",0.476999998,0,0,1
"463",20,456,0.7,"stim/41.jpeg",4,1,2,2,"HouseObjects",1,"stim/objects/HouseObjects/iron.png",4,"left","",NA,0,0,1
"464",20,457,0.9,"stim/53.jpeg",5,3,3,2,"Instruments",2,"stim/objects/Instruments/oboe.png",2,"right","right",0.55099988,1,1,1
"465",20,458,0.9,"stim/52.jpeg",5,2,3,2,"Instruments",2,"stim/objects/Instruments/marimba.png",2,"right","right",0.454999924,1,1,1
"466",20,459,0.1,"stim/53.jpeg",5,3,3,1,"HouseObjects",1,"stim/objects/HouseObjects/remote2.png",1,"left","right",0.611000061,0,0,1
"467",20,460,0.5,"stim/13.jpeg",1,3,1,2,"HouseObjects",1,"stim/objects/HouseObjects/dishsoap.png",4,"left","left",0.612999916,1,1,1
"468",20,461,0.9,"stim/51.jpeg",5,1,3,2,"Instruments",2,"stim/objects/Instruments/musicsheet.png",4,"right","right",0.755000114,1,1,1
"469",20,462,0.7,"stim/42.jpeg",4,2,2,2,"HouseObjects",1,"stim/objects/HouseObjects/key.png",1,"left","left",0.663000107,1,1,1
"470",20,463,0.9,"stim/64.jpeg",6,4,3,1,"HouseObjects",1,"stim/objects/HouseObjects/towel2.png",2,"left","left",0.566999912,1,1,1
"471",20,464,0.5,"stim/13.jpeg",1,3,1,2,"Instruments",2,"stim/objects/Instruments/electricguitar.png",3,"right","left",0.779999971,0,0,1
"472",20,465,0.7,"stim/31.jpeg",3,1,2,1,"Instruments",2,"stim/objects/Instruments/electricguitar2.png",1,"right","left",0.874000072,0,0,1
"473",20,466,0.5,"stim/11.jpeg",1,1,1,2,"Instruments",2,"stim/objects/Instruments/drums.png",3,"right","right",0.598999977,1,1,1
"474",20,467,0.9,"stim/61.jpeg",6,1,3,2,"HouseObjects",1,"stim/objects/HouseObjects/pan.png",4,"left","left",0.562000036,1,1,1
"475",20,468,0.5,"stim/12.jpeg",1,2,1,1,"Instruments",2,"stim/objects/Instruments/panflute.png",1,"right","left",0.857000113,0,0,1
"476",20,469,0.9,"stim/52.jpeg",5,2,3,2,"Instruments",2,"stim/objects/Instruments/musicsheet.png",2,"right","right",0.496000051,1,1,1
"477",20,470,0.9,"stim/61.jpeg",6,1,3,2,"HouseObjects",1,"stim/objects/HouseObjects/knife.png",2,"left","left",0.513999939,1,1,1
"478",20,471,0.5,"stim/21.jpeg",2,1,1,2,"Instruments",2,"stim/objects/Instruments/guitarcase.png",1,"right","left",0.611999989,0,0,1
"479",20,472,0.5,"stim/14.jpeg",1,4,1,1,"HouseObjects",1,"stim/objects/HouseObjects/remote.png",1,"left","left",0.736000061,1,1,1
"480",20,473,0.9,"stim/63.jpeg",6,3,3,2,"HouseObjects",1,"stim/objects/HouseObjects/lintroller.png",1,"left","left",0.727999926,1,1,1
"481",20,474,0.5,"stim/12.jpeg",1,2,1,1,"Instruments",2,"stim/objects/Instruments/saxophone.png",3,"right","left",0.629999876,0,0,1
"482",20,475,0.9,"stim/63.jpeg",6,3,3,2,"HouseObjects",1,"stim/objects/HouseObjects/pitcher.png",3,"left","left",0.513000011,1,1,1
"483",20,476,0.9,"stim/62.jpeg",6,2,3,2,"HouseObjects",1,"stim/objects/HouseObjects/pan.png",3,"left","left",0.565000057,1,1,1
"484",20,477,0.9,"stim/54.jpeg",5,4,3,2,"Instruments",2,"stim/objects/Instruments/marimba.png",3,"right","right",0.828999996,1,1,1
"485",20,478,0.9,"stim/53.jpeg",5,3,3,2,"Instruments",2,"stim/objects/Instruments/marimba.png",4,"right","right",0.518999815,1,1,1
"486",20,479,0.9,"stim/51.jpeg",5,1,3,2,"Instruments",2,"stim/objects/Instruments/oboe.png",1,"right","right",0.529000044,1,1,1
"487",20,480,0.9,"stim/52.jpeg",5,2,3,2,"Instruments",2,"stim/objects/Instruments/marimba.png",2,"right","right",0.532999992,1,1,1
"488",20,481,0.5,"stim/14.jpeg",1,4,1,2,"Instruments",2,"stim/objects/Instruments/flutetrans.png",4,"right","left",0.727999926,0,0,1
"489",20,482,0.9,"stim/61.jpeg",6,1,3,2,"HouseObjects",1,"stim/objects/HouseObjects/pan.png",1,"left","left",0.545999765,1,1,1
"490",20,483,0.9,"stim/51.jpeg",5,1,3,2,"Instruments",2,"stim/objects/Instruments/metronome.png",4,"right","right",0.539999962,1,1,1
"491",20,484,0.9,"stim/63.jpeg",6,3,3,2,"HouseObjects",1,"stim/objects/HouseObjects/pitcher.png",4,"left","left",0.878000021,1,1,1
"492",20,485,0.5,"stim/22.jpeg",2,2,1,2,"Instruments",2,"stim/objects/Instruments/harmonica.png",3,"right","right",0.662000179,1,1,1
"493",20,486,0.7,"stim/41.jpeg",4,1,2,2,"HouseObjects",1,"stim/objects/HouseObjects/handbrush.png",2,"left","left",0.782000065,1,1,1
"494",20,487,0.9,"stim/63.jpeg",6,3,3,2,"HouseObjects",1,"stim/objects/HouseObjects/knife.png",4,"left","left",0.942000151,1,1,1
"495",20,488,0.7,"stim/31.jpeg",3,1,2,1,"Instruments",2,"stim/objects/Instruments/vuvuzela.png",3,"right","left",0.729000092,0,0,1
"496",20,489,0.1,"stim/54.jpeg",5,4,3,1,"HouseObjects",1,"stim/objects/HouseObjects/rubbergloves2.png",1,"left","right",0.463999987,0,0,1
"497",20,490,0.9,"stim/52.jpeg",5,2,3,2,"Instruments",2,"stim/objects/Instruments/metronome.png",3,"right","right",0.878999949,1,1,1
"498",20,491,0.9,"stim/61.jpeg",6,1,3,2,"HouseObjects",1,"stim/objects/HouseObjects/knife.png",1,"left","left",0.523000002,1,1,1
"499",20,492,0.9,"stim/54.jpeg",5,4,3,2,"Instruments",2,"stim/objects/Instruments/musicstand.png",4,"right","right",0.627999783,1,1,1
"500",20,493,0.3,"stim/31.jpeg",3,1,2,1,"HouseObjects",1,"stim/objects/HouseObjects/thermometer.png",1,"left","",NA,0,0,1
"501",20,494,0.3,"stim/32.jpeg",3,2,2,1,"HouseObjects",1,"stim/objects/HouseObjects/dustpan2.png",3,"left","",NA,0,0,1
"502",20,495,0.9,"stim/62.jpeg",6,2,3,2,"HouseObjects",1,"stim/objects/HouseObjects/knife.png",4,"left","right",0.809000015,0,0,1
"503",20,496,0.9,"stim/54.jpeg",5,4,3,2,"Instruments",2,"stim/objects/Instruments/oboe.png",2,"right","left",0.41899991,0,0,1
"504",20,497,0.9,"stim/53.jpeg",5,3,3,2,"Instruments",2,"stim/objects/Instruments/marimba.png",1,"right","right",0.634000063,1,1,1
"505",20,498,0.9,"stim/54.jpeg",5,4,3,2,"Instruments",2,"stim/objects/Instruments/musicsheet.png",1,"right","right",0.648000002,1,1,1
"506",20,499,0.5,"stim/11.jpeg",1,1,1,2,"HouseObjects",1,"stim/objects/HouseObjects/dustpan.png",4,"left","left",0.752000093,1,1,1
"507",20,500,0.9,"stim/54.jpeg",5,4,3,2,"Instruments",2,"stim/objects/Instruments/metronome.png",1,"right","right",0.846999884,1,1,1
"508",20,501,0.7,"stim/42.jpeg",4,2,2,1,"HouseObjects",1,"stim/objects/HouseObjects/handvacuum2.png",4,"left","left",0.92599988,1,1,1
"509",20,502,0.9,"stim/52.jpeg",5,2,3,2,"Instruments",2,"stim/objects/Instruments/oboe.png",1,"right","right",0.670000076,1,1,1
"510",20,503,0.5,"stim/13.jpeg",1,3,1,1,"HouseObjects",1,"stim/objects/HouseObjects/recyclingbin.png",4,"left","left",0.768000126,1,1,1
"511",20,504,0.5,"stim/24.jpeg",2,4,1,2,"Instruments",2,"stim/objects/Instruments/grandpiano.png",1,"right","right",0.70299983,1,1,1
"512",20,505,0.1,"stim/61.jpeg",6,1,3,1,"Instruments",2,"stim/objects/Instruments/timbal2.png",2,"right","left",0.644000053,0,0,1
"513",20,506,0.9,"stim/51.jpeg",5,1,3,2,"Instruments",2,"stim/objects/Instruments/musicsheet.png",4,"right","right",0.532999992,1,1,1
"514",20,507,0.5,"stim/21.jpeg",2,1,1,1,"Instruments",2,"stim/objects/Instruments/tambourine.png",2,"right","left",0.601000071,0,0,1
"515",20,508,0.9,"stim/64.jpeg",6,4,3,2,"HouseObjects",1,"stim/objects/HouseObjects/match.png",1,"left","",NA,0,0,1
"516",20,509,0.9,"stim/62.jpeg",6,2,3,2,"HouseObjects",1,"stim/objects/HouseObjects/match.png",3,"left","left",0.555999994,1,1,1
"517",20,510,0.9,"stim/62.jpeg",6,2,3,2,"HouseObjects",1,"stim/objects/HouseObjects/lintroller.png",1,"left","left",0.551000118,1,1,1
"518",20,511,0.9,"stim/63.jpeg",6,3,3,2,"HouseObjects",1,"stim/objects/HouseObjects/lintroller.png",4,"left","left",0.518000126,1,1,1
"519",20,512,0.1,"stim/64.jpeg",6,4,3,1,"Instruments",2,"stim/objects/Instruments/trumpet2.png",4,"right","left",0.455000162,0,0,1
"520",20,513,0.7,"stim/43.jpeg",4,3,2,2,"HouseObjects",1,"stim/objects/HouseObjects/handvacuum.png",4,"left","left",0.59800005,1,1,1
"521",20,514,0.9,"stim/61.jpeg",6,1,3,2,"HouseObjects",1,"stim/objects/HouseObjects/lintroller.png",3,"left","left",0.516000032,1,1,1
"522",20,515,0.5,"stim/13.jpeg",1,3,1,2,"Instruments",2,"stim/objects/Instruments/flute.png",2,"right","left",0.648999929,0,0,1
"523",20,516,0.9,"stim/64.jpeg",6,4,3,2,"HouseObjects",1,"stim/objects/HouseObjects/pan.png",2,"left","left",0.521999836,1,1,1
"524",20,517,0.5,"stim/11.jpeg",1,1,1,2,"HouseObjects",1,"stim/objects/HouseObjects/doormat.png",1,"left","left",0.839999914,1,1,1
"525",20,518,0.3,"stim/31.jpeg",3,1,2,1,"HouseObjects",1,"stim/objects/HouseObjects/wateringcan.png",1,"left","right",0.619999886,0,0,1
"526",20,519,0.9,"stim/53.jpeg",5,3,3,2,"Instruments",2,"stim/objects/Instruments/metronome.png",2,"right","right",0.512000084,1,1,1
"527",20,520,0.9,"stim/63.jpeg",6,3,3,2,"HouseObjects",1,"stim/objects/HouseObjects/pan.png",1,"left","left",0.557999849,1,1,1
"528",20,521,0.9,"stim/63.jpeg",6,3,3,2,"HouseObjects",1,"stim/objects/HouseObjects/lintroller.png",1,"left","left",0.89199996,1,1,1
"529",20,522,0.9,"stim/63.jpeg",6,3,3,2,"HouseObjects",1,"stim/objects/HouseObjects/pitcher.png",2,"left","left",0.510000229,1,1,1
"530",20,523,0.9,"stim/51.jpeg",5,1,3,1,"Instruments",2,"stim/objects/Instruments/musicsheet2.png",3,"right","left",0.881999969,0,0,1
"531",20,524,0.5,"stim/14.jpeg",1,4,1,2,"HouseObjects",1,"stim/objects/HouseObjects/dishsoap.png",1,"left","left",0.842999935,1,1,1
"532",20,525,0.5,"stim/23.jpeg",2,3,1,2,"HouseObjects",1,"stim/objects/HouseObjects/flyswatter.png",4,"left","left",0.593999863,1,1,1
"533",20,526,0.9,"stim/52.jpeg",5,2,3,1,"Instruments",2,"stim/objects/Instruments/musicstand2.png",4,"right","right",0.551999807,1,1,1
"534",20,527,0.1,"stim/63.jpeg",6,3,3,1,"Instruments",2,"stim/objects/Instruments/trombone2.png",4,"right","left",0.487999916,0,0,1
"535",20,528,0.9,"stim/53.jpeg",5,3,3,2,"Instruments",2,"stim/objects/Instruments/metronome.png",1,"right","right",0.603999853,1,1,1
"536",20,529,0.7,"stim/43.jpeg",4,3,2,2,"HouseObjects",1,"stim/objects/HouseObjects/key.png",3,"left","left",0.598999977,1,1,1
"537",20,530,0.7,"stim/32.jpeg",3,2,2,2,"Instruments",2,"stim/objects/Instruments/laud.png",2,"right","right",0.469000101,1,1,1
"538",20,531,0.1,"stim/53.jpeg",5,3,3,1,"HouseObjects",1,"stim/objects/HouseObjects/match2.png",3,"left","right",0.486999989,0,0,1
"539",20,532,0.9,"stim/53.jpeg",5,3,3,2,"Instruments",2,"stim/objects/Instruments/musicsheet.png",1,"right","right",0.509000063,1,1,1
"540",20,533,0.9,"stim/51.jpeg",5,1,3,2,"Instruments",2,"stim/objects/Instruments/metronome.png",3,"right","right",0.561999798,1,1,1
"541",20,534,0.7,"stim/32.jpeg",3,2,2,1,"Instruments",2,"stim/objects/Instruments/flute2.png",2,"right","right",0.875999928,1,1,1
"542",20,535,0.5,"stim/24.jpeg",2,4,1,1,"HouseObjects",1,"stim/objects/HouseObjects/spraybottle.png",3,"left","left",0.529999971,1,1,1
"543",20,536,0.9,"stim/51.jpeg",5,1,3,2,"Instruments",2,"stim/objects/Instruments/marimba.png",3,"right","right",0.447000027,1,1,1
"544",20,537,0.9,"stim/51.jpeg",5,1,3,1,"Instruments",2,"stim/objects/Instruments/pipepiano2.png",1,"right","left",0.555999994,0,0,1
"545",20,538,0.9,"stim/63.jpeg",6,3,3,2,"HouseObjects",1,"stim/objects/HouseObjects/match.png",2,"left","left",0.551999807,1,1,1
"546",20,539,0.9,"stim/53.jpeg",5,3,3,2,"Instruments",2,"stim/objects/Instruments/musicsheet.png",1,"right","right",0.483999968,1,1,1
"547",20,540,0.7,"stim/41.jpeg",4,1,2,2,"HouseObjects",1,"stim/objects/HouseObjects/key.png",3,"left","right",0.720000029,0,0,1
"548",20,541,0.5,"stim/11.jpeg",1,1,1,1,"Instruments",2,"stim/objects/Instruments/record_player.png",3,"right","left",0.696000099,0,0,1
"549",20,542,0.5,"stim/12.jpeg",1,2,1,1,"HouseObjects",1,"stim/objects/HouseObjects/rug.png",2,"left","left",0.717000008,1,1,1
"550",20,543,0.9,"stim/51.jpeg",5,1,3,2,"Instruments",2,"stim/objects/Instruments/musicstand.png",3,"right","right",0.479000092,1,1,1
"551",20,544,0.7,"stim/33.jpeg",3,3,2,2,"Instruments",2,"stim/objects/Instruments/maraca.png",4,"right","left",0.878000021,0,0,1
"552",20,545,0.9,"stim/61.jpeg",6,1,3,2,"HouseObjects",1,"stim/objects/HouseObjects/match.png",1,"left","left",0.541000128,1,1,1
"553",20,546,0.1,"stim/62.jpeg",6,2,3,1,"Instruments",2,"stim/objects/Instruments/violin2.png",4,"right","right",0.780999899,1,1,1
"554",20,547,0.3,"stim/44.jpeg",4,4,2,1,"Instruments",2,"stim/objects/Instruments/hihat2.png",2,"right","right",0.799000025,1,1,1
"555",20,548,0.9,"stim/61.jpeg",6,1,3,2,"HouseObjects",1,"stim/objects/HouseObjects/knife.png",3,"left","left",0.423000097,1,1,1
"556",20,549,0.5,"stim/24.jpeg",2,4,1,2,"HouseObjects",1,"stim/objects/HouseObjects/hairdryer.png",2,"left","left",0.734999895,1,1,1
"557",20,550,0.5,"stim/21.jpeg",2,1,1,2,"HouseObjects",1,"stim/objects/HouseObjects/glass.png",3,"left","left",0.666000128,1,1,1
"558",20,551,0.9,"stim/52.jpeg",5,2,3,2,"Instruments",2,"stim/objects/Instruments/metronome.png",1,"right","right",0.477999926,1,1,1
"559",20,552,0.9,"stim/63.jpeg",6,3,3,2,"HouseObjects",1,"stim/objects/HouseObjects/pitcher.png",3,"left","right",0.460000038,0,0,1
"560",20,553,0.1,"stim/64.jpeg",6,4,3,1,"Instruments",2,"stim/objects/Instruments/tambourine2.png",4,"right","left",0.507999897,0,0,1
"561",20,554,0.3,"stim/43.jpeg",4,3,2,1,"Instruments",2,"stim/objects/Instruments/gong2.png",4,"right","right",0.746999979,1,1,1
"562",20,555,0.9,"stim/53.jpeg",5,3,3,2,"Instruments",2,"stim/objects/Instruments/metronome.png",2,"right","right",0.586999893,1,1,1
"563",20,556,0.3,"stim/33.jpeg",3,3,2,1,"HouseObjects",1,"stim/objects/HouseObjects/cushion2.png",4,"left","right",0.648000002,0,0,1
"564",20,557,0.9,"stim/54.jpeg",5,4,3,1,"Instruments",2,"stim/objects/Instruments/saxophone2.png",1,"right","right",0.72300005,1,1,1
"565",20,558,0.9,"stim/53.jpeg",5,3,3,2,"Instruments",2,"stim/objects/Instruments/metronome.png",3,"right","right",0.929000139,1,1,1
"566",20,559,0.9,"stim/54.jpeg",5,4,3,2,"Instruments",2,"stim/objects/Instruments/musicsheet.png",3,"right","right",0.587999821,1,1,1
"567",20,560,0.7,"stim/33.jpeg",3,3,2,2,"Instruments",2,"stim/objects/Instruments/harp.png",2,"right","right",0.523999929,1,1,1
"568",20,561,0.5,"stim/23.jpeg",2,3,1,2,"Instruments",2,"stim/objects/Instruments/frenchhorn.png",4,"right","left",0.592000008,0,0,1
"569",20,562,0.9,"stim/61.jpeg",6,1,3,2,"HouseObjects",1,"stim/objects/HouseObjects/lintroller.png",1,"left","left",0.524999857,1,1,1
"570",20,563,0.7,"stim/33.jpeg",3,3,2,1,"Instruments",2,"stim/objects/Instruments/flutetrans2.png",1,"right","right",0.539000034,1,1,1
"571",20,564,0.5,"stim/21.jpeg",2,1,1,2,"Instruments",2,"stim/objects/Instruments/grandpiano.png",3,"right","left",0.638000011,0,0,1
"572",20,565,0.7,"stim/44.jpeg",4,4,2,2,"HouseObjects",1,"stim/objects/HouseObjects/iron.png",3,"left","left",0.476999998,1,1,1
"573",20,566,0.9,"stim/63.jpeg",6,3,3,2,"HouseObjects",1,"stim/objects/HouseObjects/knife.png",1,"left","left",0.655999899,1,1,1
"574",20,567,0.9,"stim/64.jpeg",6,4,3,2,"HouseObjects",1,"stim/objects/HouseObjects/pitcher.png",4,"left","left",0.611000061,1,1,1
"575",20,568,0.7,"stim/32.jpeg",3,2,2,1,"Instruments",2,"stim/objects/Instruments/trumpet.png",2,"right","right",0.561000109,1,1,1
"576",20,569,0.9,"stim/64.jpeg",6,4,3,2,"HouseObjects",1,"stim/objects/HouseObjects/knife.png",2,"left","left",0.52699995,1,1,1
"577",20,570,0.3,"stim/44.jpeg",4,4,2,1,"Instruments",2,"stim/objects/Instruments/grandpiano2.png",4,"right","left",0.545000076,0,0,1
