"","obj_file","X.x","participant.x","trialN.x","trial_cond","scn_file.x","scn_cat","scn_inst","scn_condition","fillers","obj_cat","obj_cat_num","quadrant","corr_ans","key_resp_trial.keys","key_resp_trial.rt","trial_acc","trial_acc_manual","group.x","practice","X.y","participant.y","OvsN","PE_level","object_cat","scn_file.y","corr_scn_cat","corr_scn_inst","scn_file.1","corr_loc","key_resp_id.keys","key_resp_id.rt","key_resp_conf.keys","key_resp_assoc.keys","key_resp_assoc.rt","key_resp_loc.keys","key_resp_loc.rt","trialN.y","id_acc","assoc.acc","cond_assoc","loc.acc","cond_loc","group.y"
"112","stim/objects/HouseObjects/clothespin2.png",1,20,1,0.9,"stim/64.jpeg",6,4,3,NA,"HouseObjects",1,3,"left","left",0.663000107,1,1,1,1,NA,NA,NA,NA,NA,NA,NA,NA,NA,NA,NA,NA,NA,NA,NA,NA,NA,NA,NA,NA,NA,NA,NA,NA
"88","stim/objects/HouseObjects/clock2.png",2,20,2,0.9,"stim/62.jpeg",6,2,3,NA,"HouseObjects",1,4,"left","",NA,0,0,1,1,NA,NA,NA,NA,NA,NA,NA,NA,NA,NA,NA,NA,NA,NA,NA,NA,NA,NA,NA,NA,NA,NA,NA,NA
"225","stim/objects/Instruments/cymbal.png",3,20,3,0.7,"stim/33.jpeg",3,3,2,NA,"Instruments",2,1,"right","",NA,0,0,1,1,NA,NA,NA,NA,NA,NA,NA,NA,NA,NA,NA,NA,NA,NA,NA,NA,NA,NA,NA,NA,NA,NA,NA,NA
"49","stim/objects/HouseObjects/bleachbottle.png",4,20,4,0.5,"stim/21.jpeg",2,1,1,NA,"HouseObjects",1,3,"left","",NA,0,0,1,1,NA,NA,NA,NA,NA,NA,NA,NA,NA,NA,NA,NA,NA,NA,NA,NA,NA,NA,NA,NA,NA,NA,NA,NA
"224","stim/objects/Instruments/cornet2.png",5,20,5,0.1,"stim/62.jpeg",6,2,3,NA,"Instruments",2,1,"right","right",0.829999924,1,1,1,1,NA,NA,NA,NA,NA,NA,NA,NA,NA,NA,NA,NA,NA,NA,NA,NA,NA,NA,NA,NA,NA,NA,NA,NA
"30","stim/objects/HouseObjects/barbecuelighter2.png",6,20,6,0.7,"stim/43.jpeg",4,3,2,NA,"HouseObjects",1,2,"left","left",0.607000113,1,1,1,1,NA,NA,NA,NA,NA,NA,NA,NA,NA,NA,NA,NA,NA,NA,NA,NA,NA,NA,NA,NA,NA,NA,NA,NA
"200","stim/objects/Instruments/chime2.png",7,20,7,0.9,"stim/54.jpeg",5,4,3,NA,"Instruments",2,1,"right","right",0.729000092,1,1,1,1,NA,NA,NA,NA,NA,NA,NA,NA,NA,NA,NA,NA,NA,NA,NA,NA,NA,NA,NA,NA,NA,NA,NA,NA
"201","stim/objects/Instruments/chime2.png",8,20,8,0.9,"stim/54.jpeg",5,4,3,NA,"Instruments",2,2,"right","right",0.625999928,1,1,1,1,NA,NA,NA,NA,NA,NA,NA,NA,NA,NA,NA,NA,NA,NA,NA,NA,NA,NA,NA,NA,NA,NA,NA,NA
"158","stim/objects/Instruments/bassdrum2.png",9,20,9,0.9,"stim/51.jpeg",5,1,3,NA,"Instruments",2,1,"right","right",0.694999933,1,1,1,1,NA,NA,NA,NA,NA,NA,NA,NA,NA,NA,NA,NA,NA,NA,NA,NA,NA,NA,NA,NA,NA,NA,NA,NA
"1","stim/objects/HouseObjects/ashtray.png",10,20,10,0.5,"stim/11.jpeg",1,1,1,NA,"HouseObjects",1,2,"left","left",0.934000015,1,1,1,1,NA,NA,NA,NA,NA,NA,NA,NA,NA,NA,NA,NA,NA,NA,NA,NA,NA,NA,NA,NA,NA,NA,NA,NA
"186","stim/objects/Instruments/cello2.png",11,20,11,0.9,"stim/53.jpeg",5,3,3,NA,"Instruments",2,2,"right","right",0.691999912,1,1,1,1,NA,NA,NA,NA,NA,NA,NA,NA,NA,NA,NA,NA,NA,NA,NA,NA,NA,NA,NA,NA,NA,NA,NA,NA
"25","stim/objects/HouseObjects/barbecuelighter.png",12,20,12,0.5,"stim/13.jpeg",1,3,1,NA,"HouseObjects",1,3,"left","",NA,0,0,1,1,NA,NA,NA,NA,NA,NA,NA,NA,NA,NA,NA,NA,NA,NA,NA,NA,NA,NA,NA,NA,NA,NA,NA,NA
"172","stim/objects/Instruments/bassguitar2.png",13,20,13,0.9,"stim/52.jpeg",5,2,3,NA,"Instruments",2,1,"right","right",0.688999891,1,1,1,1,NA,NA,NA,NA,NA,NA,NA,NA,NA,NA,NA,NA,NA,NA,NA,NA,NA,NA,NA,NA,NA,NA,NA,NA
"89","stim/objects/HouseObjects/clock2.png",14,20,14,0.9,"stim/62.jpeg",6,2,3,NA,"HouseObjects",1,4,"left","",NA,0,0,1,1,NA,NA,NA,NA,NA,NA,NA,NA,NA,NA,NA,NA,NA,NA,NA,NA,NA,NA,NA,NA,NA,NA,NA,NA
"209","stim/objects/Instruments/clarinet.png",15,20,15,0.7,"stim/31.jpeg",3,1,2,NA,"Instruments",2,1,"right","",NA,0,0,1,1,NA,NA,NA,NA,NA,NA,NA,NA,NA,NA,NA,NA,NA,NA,NA,NA,NA,NA,NA,NA,NA,NA,NA,NA
"73","stim/objects/HouseObjects/bucket.png",16,20,16,0.3,"stim/31.jpeg",3,1,2,NA,"HouseObjects",1,3,"left","left",0.73300004,1,1,1,1,NA,NA,NA,NA,NA,NA,NA,NA,NA,NA,NA,NA,NA,NA,NA,NA,NA,NA,NA,NA,NA,NA,NA,NA
"31","stim/objects/HouseObjects/barbecuelighter2.png",17,20,17,0.7,"stim/43.jpeg",4,3,2,NA,"HouseObjects",1,1,"left","left",0.743999958,1,1,1,1,NA,NA,NA,NA,NA,NA,NA,NA,NA,NA,NA,NA,NA,NA,NA,NA,NA,NA,NA,NA,NA,NA,NA,NA
"113","stim/objects/HouseObjects/clothespin2.png",18,20,18,0.9,"stim/64.jpeg",6,4,3,NA,"HouseObjects",1,1,"left","",NA,0,0,1,1,NA,NA,NA,NA,NA,NA,NA,NA,NA,NA,NA,NA,NA,NA,NA,NA,NA,NA,NA,NA,NA,NA,NA,NA
"210","stim/objects/Instruments/clarinet.png",19,20,19,0.7,"stim/31.jpeg",3,1,2,NA,"Instruments",2,3,"right","right",0.54399991,1,1,1,1,NA,NA,NA,NA,NA,NA,NA,NA,NA,NA,NA,NA,NA,NA,NA,NA,NA,NA,NA,NA,NA,NA,NA,NA
"195","stim/objects/Instruments/chime.png",20,20,20,0.5,"stim/24.jpeg",2,4,1,NA,"Instruments",2,1,"right","left",0.782999992,0,0,1,1,NA,NA,NA,NA,NA,NA,NA,NA,NA,NA,NA,NA,NA,NA,NA,NA,NA,NA,NA,NA,NA,NA,NA,NA
"181","stim/objects/Instruments/cello.png",21,20,21,0.5,"stim/23.jpeg",2,3,1,NA,"Instruments",2,4,"right","",NA,0,0,1,1,NA,NA,NA,NA,NA,NA,NA,NA,NA,NA,NA,NA,NA,NA,NA,NA,NA,NA,NA,NA,NA,NA,NA,NA
"100","stim/objects/HouseObjects/clothesdryingrack2.png",22,20,22,0.9,"stim/63.jpeg",6,3,3,NA,"HouseObjects",1,4,"left","left",0.855999947,1,1,1,1,NA,NA,NA,NA,NA,NA,NA,NA,NA,NA,NA,NA,NA,NA,NA,NA,NA,NA,NA,NA,NA,NA,NA,NA
"211","stim/objects/Instruments/clarinet.png",23,20,23,0.7,"stim/31.jpeg",3,1,2,NA,"Instruments",2,1,"right","right",0.632999897,1,1,1,1,NA,NA,NA,NA,NA,NA,NA,NA,NA,NA,NA,NA,NA,NA,NA,NA,NA,NA,NA,NA,NA,NA,NA,NA
"60","stim/objects/HouseObjects/blender2.png",24,20,24,0.1,"stim/52.jpeg",5,2,3,NA,"HouseObjects",1,3,"left","right",0.691999912,0,0,1,1,NA,NA,NA,NA,NA,NA,NA,NA,NA,NA,NA,NA,NA,NA,NA,NA,NA,NA,NA,NA,NA,NA,NA,NA
"42","stim/objects/HouseObjects/basket2.png",25,20,25,0.7,"stim/44.jpeg",4,4,2,NA,"HouseObjects",1,4,"left","left",0.621000051,1,1,1,1,NA,NA,NA,NA,NA,NA,NA,NA,NA,NA,NA,NA,NA,NA,NA,NA,NA,NA,NA,NA,NA,NA,NA,NA
"137","stim/objects/Instruments/balalaika.png",26,20,26,0.5,"stim/13.jpeg",1,3,1,NA,"Instruments",2,4,"right","left",0.674000025,0,0,1,1,NA,NA,NA,NA,NA,NA,NA,NA,NA,NA,NA,NA,NA,NA,NA,NA,NA,NA,NA,NA,NA,NA,NA,NA
"138","stim/objects/Instruments/balalaika.png",27,20,27,0.5,"stim/13.jpeg",1,3,1,NA,"Instruments",2,3,"right","left",0.680000067,0,0,1,1,NA,NA,NA,NA,NA,NA,NA,NA,NA,NA,NA,NA,NA,NA,NA,NA,NA,NA,NA,NA,NA,NA,NA,NA
"114","stim/objects/HouseObjects/clothespin2.png",28,20,28,0.9,"stim/64.jpeg",6,4,3,NA,"HouseObjects",1,4,"left","",NA,0,0,1,1,NA,NA,NA,NA,NA,NA,NA,NA,NA,NA,NA,NA,NA,NA,NA,NA,NA,NA,NA,NA,NA,NA,NA,NA
"145","stim/objects/Instruments/banjo.png",29,20,29,0.5,"stim/14.jpeg",1,4,1,NA,"Instruments",2,3,"right","left",0.67200017,0,0,1,1,NA,NA,NA,NA,NA,NA,NA,NA,NA,NA,NA,NA,NA,NA,NA,NA,NA,NA,NA,NA,NA,NA,NA,NA
"233","stim/objects/Instruments/doublebass.png",30,20,30,0.7,"stim/34.jpeg",3,4,2,NA,"Instruments",2,1,"right","right",0.481999874,1,1,1,1,NA,NA,NA,NA,NA,NA,NA,NA,NA,NA,NA,NA,NA,NA,NA,NA,NA,NA,NA,NA,NA,NA,NA,NA
"13","stim/objects/HouseObjects/ballofstring.png",31,20,31,0.5,"stim/12.jpeg",1,2,1,NA,"HouseObjects",1,3,"left","left",0.586999893,1,1,1,1,NA,NA,NA,NA,NA,NA,NA,NA,NA,NA,NA,NA,NA,NA,NA,NA,NA,NA,NA,NA,NA,NA,NA,NA
"76","stim/objects/HouseObjects/bucket2.png",32,20,32,0.9,"stim/61.jpeg",6,1,3,NA,"HouseObjects",1,4,"left","left",0.808000088,1,1,1,1,NA,NA,NA,NA,NA,NA,NA,NA,NA,NA,NA,NA,NA,NA,NA,NA,NA,NA,NA,NA,NA,NA,NA,NA
"18","stim/objects/HouseObjects/ballofstring2.png",33,20,33,0.7,"stim/42.jpeg",4,2,2,NA,"HouseObjects",1,3,"left","left",0.623000145,1,1,1,1,NA,NA,NA,NA,NA,NA,NA,NA,NA,NA,NA,NA,NA,NA,NA,NA,NA,NA,NA,NA,NA,NA,NA,NA
"121","stim/objects/Instruments/accordion.png",34,20,34,0.5,"stim/11.jpeg",1,1,1,NA,"Instruments",2,3,"right","left",0.524999857,0,0,1,1,NA,NA,NA,NA,NA,NA,NA,NA,NA,NA,NA,NA,NA,NA,NA,NA,NA,NA,NA,NA,NA,NA,NA,NA
"187","stim/objects/Instruments/cello2.png",35,20,35,0.9,"stim/53.jpeg",5,3,3,NA,"Instruments",2,2,"right","right",0.539999962,1,1,1,1,NA,NA,NA,NA,NA,NA,NA,NA,NA,NA,NA,NA,NA,NA,NA,NA,NA,NA,NA,NA,NA,NA,NA,NA
"90","stim/objects/HouseObjects/clock2.png",36,20,36,0.9,"stim/62.jpeg",6,2,3,NA,"HouseObjects",1,3,"left","left",0.467000008,1,1,1,1,NA,NA,NA,NA,NA,NA,NA,NA,NA,NA,NA,NA,NA,NA,NA,NA,NA,NA,NA,NA,NA,NA,NA,NA
"139","stim/objects/Instruments/balalaika.png",37,20,37,0.5,"stim/13.jpeg",1,3,1,NA,"Instruments",2,2,"right","left",0.603999853,0,0,1,1,NA,NA,NA,NA,NA,NA,NA,NA,NA,NA,NA,NA,NA,NA,NA,NA,NA,NA,NA,NA,NA,NA,NA,NA
"240","stim/objects/Instruments/doublebass2.png",38,20,38,0.1,"stim/64.jpeg",6,4,3,NA,"Instruments",2,3,"right","left",0.661000013,0,0,1,1,NA,NA,NA,NA,NA,NA,NA,NA,NA,NA,NA,NA,NA,NA,NA,NA,NA,NA,NA,NA,NA,NA,NA,NA
"150","stim/objects/Instruments/banjo2.png",39,20,39,0.3,"stim/44.jpeg",4,4,2,NA,"Instruments",2,1,"right","left",0.818000078,0,0,1,1,NA,NA,NA,NA,NA,NA,NA,NA,NA,NA,NA,NA,NA,NA,NA,NA,NA,NA,NA,NA,NA,NA,NA,NA
"216","stim/objects/Instruments/clarinet2.png",40,20,40,0.1,"stim/61.jpeg",6,1,3,NA,"Instruments",2,4,"right","left",0.656999826,0,0,1,1,NA,NA,NA,NA,NA,NA,NA,NA,NA,NA,NA,NA,NA,NA,NA,NA,NA,NA,NA,NA,NA,NA,NA,NA
"159","stim/objects/Instruments/bassdrum2.png",41,20,41,0.9,"stim/51.jpeg",5,1,3,NA,"Instruments",2,1,"right","right",0.486999989,1,1,1,1,NA,NA,NA,NA,NA,NA,NA,NA,NA,NA,NA,NA,NA,NA,NA,NA,NA,NA,NA,NA,NA,NA,NA,NA
"2","stim/objects/HouseObjects/ashtray.png",42,20,42,0.5,"stim/11.jpeg",1,1,1,NA,"HouseObjects",1,4,"left","left",0.746999979,1,1,1,1,NA,NA,NA,NA,NA,NA,NA,NA,NA,NA,NA,NA,NA,NA,NA,NA,NA,NA,NA,NA,NA,NA,NA,NA
"226","stim/objects/Instruments/cymbal.png",43,20,43,0.7,"stim/33.jpeg",3,3,2,NA,"Instruments",2,3,"right","right",0.556999922,1,1,1,1,NA,NA,NA,NA,NA,NA,NA,NA,NA,NA,NA,NA,NA,NA,NA,NA,NA,NA,NA,NA,NA,NA,NA,NA
"115","stim/objects/HouseObjects/clothespin2.png",44,20,44,0.9,"stim/64.jpeg",6,4,3,NA,"HouseObjects",1,1,"left","left",0.670000076,1,1,1,1,NA,NA,NA,NA,NA,NA,NA,NA,NA,NA,NA,NA,NA,NA,NA,NA,NA,NA,NA,NA,NA,NA,NA,NA
"167","stim/objects/Instruments/bassguitar.png",45,20,45,0.5,"stim/22.jpeg",2,2,1,NA,"Instruments",2,1,"right","right",0.911999941,1,1,1,1,NA,NA,NA,NA,NA,NA,NA,NA,NA,NA,NA,NA,NA,NA,NA,NA,NA,NA,NA,NA,NA,NA,NA,NA
"173","stim/objects/Instruments/bassguitar2.png",46,20,46,0.9,"stim/52.jpeg",5,2,3,NA,"Instruments",2,3,"right","right",0.589999914,1,1,1,1,NA,NA,NA,NA,NA,NA,NA,NA,NA,NA,NA,NA,NA,NA,NA,NA,NA,NA,NA,NA,NA,NA,NA,NA
"234","stim/objects/Instruments/doublebass.png",47,20,47,0.7,"stim/34.jpeg",3,4,2,NA,"Instruments",2,3,"right","right",0.677999973,1,1,1,1,NA,NA,NA,NA,NA,NA,NA,NA,NA,NA,NA,NA,NA,NA,NA,NA,NA,NA,NA,NA,NA,NA,NA,NA
"61","stim/objects/HouseObjects/bottle.png",48,20,48,0.5,"stim/23.jpeg",2,3,1,NA,"HouseObjects",1,2,"left","left",0.54399991,1,1,1,1,NA,NA,NA,NA,NA,NA,NA,NA,NA,NA,NA,NA,NA,NA,NA,NA,NA,NA,NA,NA,NA,NA,NA,NA
"26","stim/objects/HouseObjects/barbecuelighter.png",49,20,49,0.5,"stim/13.jpeg",1,3,1,NA,"HouseObjects",1,3,"left","right",0.861000061,0,0,1,1,NA,NA,NA,NA,NA,NA,NA,NA,NA,NA,NA,NA,NA,NA,NA,NA,NA,NA,NA,NA,NA,NA,NA,NA
"62","stim/objects/HouseObjects/bottle.png",50,20,50,0.5,"stim/23.jpeg",2,3,1,NA,"HouseObjects",1,1,"left","left",0.755000114,1,1,1,1,NA,NA,NA,NA,NA,NA,NA,NA,NA,NA,NA,NA,NA,NA,NA,NA,NA,NA,NA,NA,NA,NA,NA,NA
"227","stim/objects/Instruments/cymbal.png",51,20,51,0.7,"stim/33.jpeg",3,3,2,NA,"Instruments",2,2,"right","right",0.497999907,1,1,1,1,NA,NA,NA,NA,NA,NA,NA,NA,NA,NA,NA,NA,NA,NA,NA,NA,NA,NA,NA,NA,NA,NA,NA,NA
"212","stim/objects/Instruments/clarinet.png",52,20,52,0.7,"stim/31.jpeg",3,1,2,NA,"Instruments",2,3,"right","right",0.614000082,1,1,1,1,NA,NA,NA,NA,NA,NA,NA,NA,NA,NA,NA,NA,NA,NA,NA,NA,NA,NA,NA,NA,NA,NA,NA,NA
"228","stim/objects/Instruments/cymbal.png",53,20,53,0.7,"stim/33.jpeg",3,3,2,NA,"Instruments",2,1,"right","right",0.602999926,1,1,1,1,NA,NA,NA,NA,NA,NA,NA,NA,NA,NA,NA,NA,NA,NA,NA,NA,NA,NA,NA,NA,NA,NA,NA,NA
"3","stim/objects/HouseObjects/ashtray.png",54,20,54,0.5,"stim/11.jpeg",1,1,1,NA,"HouseObjects",1,2,"left","left",0.92599988,1,1,1,1,NA,NA,NA,NA,NA,NA,NA,NA,NA,NA,NA,NA,NA,NA,NA,NA,NA,NA,NA,NA,NA,NA,NA,NA
"129","stim/objects/Instruments/acousticguitar.png",55,20,55,0.5,"stim/12.jpeg",1,2,1,NA,"Instruments",2,3,"right","",NA,0,0,1,1,NA,NA,NA,NA,NA,NA,NA,NA,NA,NA,NA,NA,NA,NA,NA,NA,NA,NA,NA,NA,NA,NA,NA,NA
"160","stim/objects/Instruments/bassdrum2.png",56,20,56,0.9,"stim/51.jpeg",5,1,3,NA,"Instruments",2,1,"right","right",0.47300005,1,1,1,1,NA,NA,NA,NA,NA,NA,NA,NA,NA,NA,NA,NA,NA,NA,NA,NA,NA,NA,NA,NA,NA,NA,NA,NA
"101","stim/objects/HouseObjects/clothesdryingrack2.png",57,20,57,0.9,"stim/63.jpeg",6,3,3,NA,"HouseObjects",1,4,"left","right",0.552000046,0,0,1,1,NA,NA,NA,NA,NA,NA,NA,NA,NA,NA,NA,NA,NA,NA,NA,NA,NA,NA,NA,NA,NA,NA,NA,NA
"151","stim/objects/Instruments/banjo2.png",58,20,58,0.3,"stim/44.jpeg",4,4,2,NA,"Instruments",2,4,"right","left",0.571000099,0,0,1,1,NA,NA,NA,NA,NA,NA,NA,NA,NA,NA,NA,NA,NA,NA,NA,NA,NA,NA,NA,NA,NA,NA,NA,NA
"217","stim/objects/Instruments/cornet.png",59,20,59,0.7,"stim/32.jpeg",3,2,2,NA,"Instruments",2,1,"right","right",0.697999954,1,1,1,1,NA,NA,NA,NA,NA,NA,NA,NA,NA,NA,NA,NA,NA,NA,NA,NA,NA,NA,NA,NA,NA,NA,NA,NA
"50","stim/objects/HouseObjects/bleachbottle.png",60,20,60,0.5,"stim/21.jpeg",2,1,1,NA,"HouseObjects",1,1,"left","left",0.681999922,1,1,1,1,NA,NA,NA,NA,NA,NA,NA,NA,NA,NA,NA,NA,NA,NA,NA,NA,NA,NA,NA,NA,NA,NA,NA,NA
"32","stim/objects/HouseObjects/barbecuelighter2.png",61,20,61,0.7,"stim/43.jpeg",4,3,2,NA,"HouseObjects",1,2,"left","left",0.588000059,1,1,1,1,NA,NA,NA,NA,NA,NA,NA,NA,NA,NA,NA,NA,NA,NA,NA,NA,NA,NA,NA,NA,NA,NA,NA,NA
"51","stim/objects/HouseObjects/bleachbottle.png",62,20,62,0.5,"stim/21.jpeg",2,1,1,NA,"HouseObjects",1,1,"left","left",0.579999924,1,1,1,1,NA,NA,NA,NA,NA,NA,NA,NA,NA,NA,NA,NA,NA,NA,NA,NA,NA,NA,NA,NA,NA,NA,NA,NA
"161","stim/objects/Instruments/bassdrum2.png",63,20,63,0.9,"stim/51.jpeg",5,1,3,NA,"Instruments",2,4,"right","right",0.46600008,1,1,1,1,NA,NA,NA,NA,NA,NA,NA,NA,NA,NA,NA,NA,NA,NA,NA,NA,NA,NA,NA,NA,NA,NA,NA,NA
"153","stim/objects/Instruments/bassdrum.png",64,20,64,0.5,"stim/21.jpeg",2,1,1,NA,"Instruments",2,4,"right","left",0.43599987,0,0,1,1,NA,NA,NA,NA,NA,NA,NA,NA,NA,NA,NA,NA,NA,NA,NA,NA,NA,NA,NA,NA,NA,NA,NA,NA
"196","stim/objects/Instruments/chime.png",65,20,65,0.5,"stim/24.jpeg",2,4,1,NA,"Instruments",2,4,"right","right",0.712000132,1,1,1,1,NA,NA,NA,NA,NA,NA,NA,NA,NA,NA,NA,NA,NA,NA,NA,NA,NA,NA,NA,NA,NA,NA,NA,NA
"6","stim/objects/HouseObjects/ashtray2.png",66,20,66,0.7,"stim/41.jpeg",4,1,2,NA,"HouseObjects",1,2,"left","left",0.52699995,1,1,1,1,NA,NA,NA,NA,NA,NA,NA,NA,NA,NA,NA,NA,NA,NA,NA,NA,NA,NA,NA,NA,NA,NA,NA,NA
"91","stim/objects/HouseObjects/clock2.png",67,20,67,0.9,"stim/62.jpeg",6,2,3,NA,"HouseObjects",1,1,"left","left",0.561999798,1,1,1,1,NA,NA,NA,NA,NA,NA,NA,NA,NA,NA,NA,NA,NA,NA,NA,NA,NA,NA,NA,NA,NA,NA,NA,NA
"188","stim/objects/Instruments/cello2.png",68,20,68,0.9,"stim/53.jpeg",5,3,3,NA,"Instruments",2,1,"right","right",0.559000015,1,1,1,1,NA,NA,NA,NA,NA,NA,NA,NA,NA,NA,NA,NA,NA,NA,NA,NA,NA,NA,NA,NA,NA,NA,NA,NA
"189","stim/objects/Instruments/cello2.png",69,20,69,0.9,"stim/53.jpeg",5,3,3,NA,"Instruments",2,4,"right","right",0.523999929,1,1,1,1,NA,NA,NA,NA,NA,NA,NA,NA,NA,NA,NA,NA,NA,NA,NA,NA,NA,NA,NA,NA,NA,NA,NA,NA
"122","stim/objects/Instruments/accordion.png",70,20,70,0.5,"stim/11.jpeg",1,1,1,NA,"Instruments",2,2,"right","left",0.589999914,0,0,1,1,NA,NA,NA,NA,NA,NA,NA,NA,NA,NA,NA,NA,NA,NA,NA,NA,NA,NA,NA,NA,NA,NA,NA,NA
"123","stim/objects/Instruments/accordion.png",71,20,71,0.5,"stim/11.jpeg",1,1,1,NA,"Instruments",2,4,"right","right",0.506999969,1,1,1,1,NA,NA,NA,NA,NA,NA,NA,NA,NA,NA,NA,NA,NA,NA,NA,NA,NA,NA,NA,NA,NA,NA,NA,NA
"126","stim/objects/Instruments/accordion2.png",72,20,72,0.3,"stim/41.jpeg",4,1,2,NA,"Instruments",2,2,"right","left",0.541000128,0,0,1,1,NA,NA,NA,NA,NA,NA,NA,NA,NA,NA,NA,NA,NA,NA,NA,NA,NA,NA,NA,NA,NA,NA,NA,NA
"109","stim/objects/HouseObjects/clothespin.png",73,20,73,0.3,"stim/34.jpeg",3,4,2,NA,"HouseObjects",1,1,"left","right",0.511999846,0,0,1,1,NA,NA,NA,NA,NA,NA,NA,NA,NA,NA,NA,NA,NA,NA,NA,NA,NA,NA,NA,NA,NA,NA,NA,NA
"124","stim/objects/Instruments/accordion.png",74,20,74,0.5,"stim/11.jpeg",1,1,1,NA,"Instruments",2,3,"right","left",0.68599987,0,0,1,1,NA,NA,NA,NA,NA,NA,NA,NA,NA,NA,NA,NA,NA,NA,NA,NA,NA,NA,NA,NA,NA,NA,NA,NA
"154","stim/objects/Instruments/bassdrum.png",75,20,75,0.5,"stim/21.jpeg",2,1,1,NA,"Instruments",2,1,"right","left",0.550000191,0,0,1,1,NA,NA,NA,NA,NA,NA,NA,NA,NA,NA,NA,NA,NA,NA,NA,NA,NA,NA,NA,NA,NA,NA,NA,NA
"218","stim/objects/Instruments/cornet.png",76,20,76,0.7,"stim/32.jpeg",3,2,2,NA,"Instruments",2,3,"right","right",0.482999802,1,1,1,1,NA,NA,NA,NA,NA,NA,NA,NA,NA,NA,NA,NA,NA,NA,NA,NA,NA,NA,NA,NA,NA,NA,NA,NA
"52","stim/objects/HouseObjects/bleachbottle.png",77,20,77,0.5,"stim/21.jpeg",2,1,1,NA,"HouseObjects",1,1,"left","left",0.635999918,1,1,1,1,NA,NA,NA,NA,NA,NA,NA,NA,NA,NA,NA,NA,NA,NA,NA,NA,NA,NA,NA,NA,NA,NA,NA,NA
"37","stim/objects/HouseObjects/basket.png",78,20,78,0.5,"stim/14.jpeg",1,4,1,NA,"HouseObjects",1,2,"left","right",0.644999981,0,0,1,1,NA,NA,NA,NA,NA,NA,NA,NA,NA,NA,NA,NA,NA,NA,NA,NA,NA,NA,NA,NA,NA,NA,NA,NA
"19","stim/objects/HouseObjects/ballofstring2.png",79,20,79,0.7,"stim/42.jpeg",4,2,2,NA,"HouseObjects",1,3,"left","left",0.599000216,1,1,1,1,NA,NA,NA,NA,NA,NA,NA,NA,NA,NA,NA,NA,NA,NA,NA,NA,NA,NA,NA,NA,NA,NA,NA,NA
"146","stim/objects/Instruments/banjo.png",80,20,80,0.5,"stim/14.jpeg",1,4,1,NA,"Instruments",2,3,"right","left",0.717000008,0,0,1,1,NA,NA,NA,NA,NA,NA,NA,NA,NA,NA,NA,NA,NA,NA,NA,NA,NA,NA,NA,NA,NA,NA,NA,NA
"219","stim/objects/Instruments/cornet.png",81,20,81,0.7,"stim/32.jpeg",3,2,2,NA,"Instruments",2,1,"right","right",0.475000143,1,1,1,1,NA,NA,NA,NA,NA,NA,NA,NA,NA,NA,NA,NA,NA,NA,NA,NA,NA,NA,NA,NA,NA,NA,NA,NA
"174","stim/objects/Instruments/bassguitar2.png",82,20,82,0.9,"stim/52.jpeg",5,2,3,NA,"Instruments",2,1,"right","right",0.677000046,1,1,1,1,NA,NA,NA,NA,NA,NA,NA,NA,NA,NA,NA,NA,NA,NA,NA,NA,NA,NA,NA,NA,NA,NA,NA,NA
"202","stim/objects/Instruments/chime2.png",83,20,83,0.9,"stim/54.jpeg",5,4,3,NA,"Instruments",2,3,"right","",NA,0,0,1,1,NA,NA,NA,NA,NA,NA,NA,NA,NA,NA,NA,NA,NA,NA,NA,NA,NA,NA,NA,NA,NA,NA,NA,NA
"125","stim/objects/Instruments/accordion.png",84,20,84,0.5,"stim/11.jpeg",1,1,1,NA,"Instruments",2,3,"right","left",0.656999826,0,0,1,1,NA,NA,NA,NA,NA,NA,NA,NA,NA,NA,NA,NA,NA,NA,NA,NA,NA,NA,NA,NA,NA,NA,NA,NA
"33","stim/objects/HouseObjects/barbecuelighter2.png",85,20,85,0.7,"stim/43.jpeg",4,3,2,NA,"HouseObjects",1,4,"left","left",0.628000021,1,1,1,1,NA,NA,NA,NA,NA,NA,NA,NA,NA,NA,NA,NA,NA,NA,NA,NA,NA,NA,NA,NA,NA,NA,NA,NA
"130","stim/objects/Instruments/acousticguitar.png",86,20,86,0.5,"stim/12.jpeg",1,2,1,NA,"Instruments",2,2,"right","right",0.632999897,1,1,1,1,NA,NA,NA,NA,NA,NA,NA,NA,NA,NA,NA,NA,NA,NA,NA,NA,NA,NA,NA,NA,NA,NA,NA,NA
"190","stim/objects/Instruments/cello2.png",87,20,87,0.9,"stim/53.jpeg",5,3,3,NA,"Instruments",2,2,"right","right",0.513999939,1,1,1,1,NA,NA,NA,NA,NA,NA,NA,NA,NA,NA,NA,NA,NA,NA,NA,NA,NA,NA,NA,NA,NA,NA,NA,NA
"197","stim/objects/Instruments/chime.png",88,20,88,0.5,"stim/24.jpeg",2,4,1,NA,"Instruments",2,1,"right","left",0.603999853,0,0,1,1,NA,NA,NA,NA,NA,NA,NA,NA,NA,NA,NA,NA,NA,NA,NA,NA,NA,NA,NA,NA,NA,NA,NA,NA
"220","stim/objects/Instruments/cornet.png",89,20,89,0.7,"stim/32.jpeg",3,2,2,NA,"Instruments",2,4,"right","right",0.552000046,1,1,1,1,NA,NA,NA,NA,NA,NA,NA,NA,NA,NA,NA,NA,NA,NA,NA,NA,NA,NA,NA,NA,NA,NA,NA,NA
"162","stim/objects/Instruments/bassdrum2.png",90,20,90,0.9,"stim/51.jpeg",5,1,3,NA,"Instruments",2,3,"right","right",0.614000082,1,1,1,1,NA,NA,NA,NA,NA,NA,NA,NA,NA,NA,NA,NA,NA,NA,NA,NA,NA,NA,NA,NA,NA,NA,NA,NA
"43","stim/objects/HouseObjects/basket2.png",91,20,91,0.7,"stim/44.jpeg",4,4,2,NA,"HouseObjects",1,1,"left","left",0.576000214,1,1,1,1,NA,NA,NA,NA,NA,NA,NA,NA,NA,NA,NA,NA,NA,NA,NA,NA,NA,NA,NA,NA,NA,NA,NA,NA
"142","stim/objects/Instruments/balalaika2.png",92,20,92,0.3,"stim/43.jpeg",4,3,2,NA,"Instruments",2,1,"right","left",0.434999943,0,0,1,1,NA,NA,NA,NA,NA,NA,NA,NA,NA,NA,NA,NA,NA,NA,NA,NA,NA,NA,NA,NA,NA,NA,NA,NA
"53","stim/objects/HouseObjects/bleachbottle.png",93,20,93,0.5,"stim/21.jpeg",2,1,1,NA,"HouseObjects",1,4,"left","",NA,0,0,1,1,NA,NA,NA,NA,NA,NA,NA,NA,NA,NA,NA,NA,NA,NA,NA,NA,NA,NA,NA,NA,NA,NA,NA,NA
"116","stim/objects/HouseObjects/clothespin2.png",94,20,94,0.9,"stim/64.jpeg",6,4,3,NA,"HouseObjects",1,3,"left","left",0.691999912,1,1,1,1,NA,NA,NA,NA,NA,NA,NA,NA,NA,NA,NA,NA,NA,NA,NA,NA,NA,NA,NA,NA,NA,NA,NA,NA
"134","stim/objects/Instruments/acousticguitar2.png",95,20,95,0.3,"stim/42.jpeg",4,2,2,NA,"Instruments",2,3,"right","left",0.628999949,0,0,1,1,NA,NA,NA,NA,NA,NA,NA,NA,NA,NA,NA,NA,NA,NA,NA,NA,NA,NA,NA,NA,NA,NA,NA,NA
"63","stim/objects/HouseObjects/bottle.png",96,20,96,0.5,"stim/23.jpeg",2,3,1,NA,"HouseObjects",1,1,"left","left",0.6650002,1,1,1,1,NA,NA,NA,NA,NA,NA,NA,NA,NA,NA,NA,NA,NA,NA,NA,NA,NA,NA,NA,NA,NA,NA,NA,NA
"14","stim/objects/HouseObjects/ballofstring.png",97,20,97,0.5,"stim/12.jpeg",1,2,1,NA,"HouseObjects",1,4,"left","right",0.730000019,0,0,1,1,NA,NA,NA,NA,NA,NA,NA,NA,NA,NA,NA,NA,NA,NA,NA,NA,NA,NA,NA,NA,NA,NA,NA,NA
"168","stim/objects/Instruments/bassguitar.png",98,20,98,0.5,"stim/22.jpeg",2,2,1,NA,"Instruments",2,1,"right","left",0.798999786,0,0,1,1,NA,NA,NA,NA,NA,NA,NA,NA,NA,NA,NA,NA,NA,NA,NA,NA,NA,NA,NA,NA,NA,NA,NA,NA
"213","stim/objects/Instruments/clarinet.png",99,20,99,0.7,"stim/31.jpeg",3,1,2,NA,"Instruments",2,4,"right","right",0.555000067,1,1,1,1,NA,NA,NA,NA,NA,NA,NA,NA,NA,NA,NA,NA,NA,NA,NA,NA,NA,NA,NA,NA,NA,NA,NA,NA
"97","stim/objects/HouseObjects/clothesdryingrack.png",100,20,100,0.3,"stim/33.jpeg",3,3,2,NA,"HouseObjects",1,4,"left","right",0.457000017,0,0,1,1,NA,NA,NA,NA,NA,NA,NA,NA,NA,NA,NA,NA,NA,NA,NA,NA,NA,NA,NA,NA,NA,NA,NA,NA
"102","stim/objects/HouseObjects/clothesdryingrack2.png",101,20,101,0.9,"stim/63.jpeg",6,3,3,NA,"HouseObjects",1,2,"left","left",0.486000061,1,1,1,1,NA,NA,NA,NA,NA,NA,NA,NA,NA,NA,NA,NA,NA,NA,NA,NA,NA,NA,NA,NA,NA,NA,NA,NA
"77","stim/objects/HouseObjects/bucket2.png",102,20,102,0.9,"stim/61.jpeg",6,1,3,NA,"HouseObjects",1,3,"left","left",0.552000046,1,1,1,1,NA,NA,NA,NA,NA,NA,NA,NA,NA,NA,NA,NA,NA,NA,NA,NA,NA,NA,NA,NA,NA,NA,NA,NA
"155","stim/objects/Instruments/bassdrum.png",103,20,103,0.5,"stim/21.jpeg",2,1,1,NA,"Instruments",2,1,"right","",NA,0,0,1,1,NA,NA,NA,NA,NA,NA,NA,NA,NA,NA,NA,NA,NA,NA,NA,NA,NA,NA,NA,NA,NA,NA,NA,NA
"55","stim/objects/HouseObjects/blender.png",104,20,104,0.5,"stim/22.jpeg",2,2,1,NA,"HouseObjects",1,3,"left","left",0.688000202,1,1,1,1,NA,NA,NA,NA,NA,NA,NA,NA,NA,NA,NA,NA,NA,NA,NA,NA,NA,NA,NA,NA,NA,NA,NA,NA
"38","stim/objects/HouseObjects/basket.png",105,20,105,0.5,"stim/14.jpeg",1,4,1,NA,"HouseObjects",1,4,"left","right",0.681999922,0,0,1,1,NA,NA,NA,NA,NA,NA,NA,NA,NA,NA,NA,NA,NA,NA,NA,NA,NA,NA,NA,NA,NA,NA,NA,NA
"56","stim/objects/HouseObjects/blender.png",106,20,106,0.5,"stim/22.jpeg",2,2,1,NA,"HouseObjects",1,3,"left","left",0.657999992,1,1,1,1,NA,NA,NA,NA,NA,NA,NA,NA,NA,NA,NA,NA,NA,NA,NA,NA,NA,NA,NA,NA,NA,NA,NA,NA
"7","stim/objects/HouseObjects/ashtray2.png",107,20,107,0.7,"stim/41.jpeg",4,1,2,NA,"HouseObjects",1,4,"left","left",0.730000019,1,1,1,1,NA,NA,NA,NA,NA,NA,NA,NA,NA,NA,NA,NA,NA,NA,NA,NA,NA,NA,NA,NA,NA,NA,NA,NA
"27","stim/objects/HouseObjects/barbecuelighter.png",108,20,108,0.5,"stim/13.jpeg",1,3,1,NA,"HouseObjects",1,1,"left","left",0.717999935,1,1,1,1,NA,NA,NA,NA,NA,NA,NA,NA,NA,NA,NA,NA,NA,NA,NA,NA,NA,NA,NA,NA,NA,NA,NA,NA
"140","stim/objects/Instruments/balalaika.png",109,20,109,0.5,"stim/13.jpeg",1,3,1,NA,"Instruments",2,4,"right","left",0.464999914,0,0,1,1,NA,NA,NA,NA,NA,NA,NA,NA,NA,NA,NA,NA,NA,NA,NA,NA,NA,NA,NA,NA,NA,NA,NA,NA
"67","stim/objects/HouseObjects/broom.png",110,20,110,0.5,"stim/24.jpeg",2,4,1,NA,"HouseObjects",1,4,"left","left",0.713000059,1,1,1,1,NA,NA,NA,NA,NA,NA,NA,NA,NA,NA,NA,NA,NA,NA,NA,NA,NA,NA,NA,NA,NA,NA,NA,NA
"78","stim/objects/HouseObjects/bucket2.png",111,20,111,0.9,"stim/61.jpeg",6,1,3,NA,"HouseObjects",1,1,"left","left",0.755999804,1,1,1,1,NA,NA,NA,NA,NA,NA,NA,NA,NA,NA,NA,NA,NA,NA,NA,NA,NA,NA,NA,NA,NA,NA,NA,NA
"20","stim/objects/HouseObjects/ballofstring2.png",112,20,112,0.7,"stim/42.jpeg",4,2,2,NA,"HouseObjects",1,2,"left","left",0.562999964,1,1,1,1,NA,NA,NA,NA,NA,NA,NA,NA,NA,NA,NA,NA,NA,NA,NA,NA,NA,NA,NA,NA,NA,NA,NA,NA
"57","stim/objects/HouseObjects/blender.png",113,20,113,0.5,"stim/22.jpeg",2,2,1,NA,"HouseObjects",1,4,"left","left",0.63499999,1,1,1,1,NA,NA,NA,NA,NA,NA,NA,NA,NA,NA,NA,NA,NA,NA,NA,NA,NA,NA,NA,NA,NA,NA,NA,NA
"229","stim/objects/Instruments/cymbal.png",114,20,114,0.7,"stim/33.jpeg",3,3,2,NA,"Instruments",2,2,"right","right",0.541000128,1,1,1,1,NA,NA,NA,NA,NA,NA,NA,NA,NA,NA,NA,NA,NA,NA,NA,NA,NA,NA,NA,NA,NA,NA,NA,NA
"85","stim/objects/HouseObjects/clock.png",115,20,115,0.3,"stim/32.jpeg",3,2,2,NA,"HouseObjects",1,4,"left","right",0.542000055,0,0,1,1,NA,NA,NA,NA,NA,NA,NA,NA,NA,NA,NA,NA,NA,NA,NA,NA,NA,NA,NA,NA,NA,NA,NA,NA
"15","stim/objects/HouseObjects/ballofstring.png",116,20,116,0.5,"stim/12.jpeg",1,2,1,NA,"HouseObjects",1,2,"left","left",0.597000122,1,1,1,1,NA,NA,NA,NA,NA,NA,NA,NA,NA,NA,NA,NA,NA,NA,NA,NA,NA,NA,NA,NA,NA,NA,NA,NA
"156","stim/objects/Instruments/bassdrum.png",117,20,117,0.5,"stim/21.jpeg",2,1,1,NA,"Instruments",2,2,"right","left",0.842000008,0,0,1,1,NA,NA,NA,NA,NA,NA,NA,NA,NA,NA,NA,NA,NA,NA,NA,NA,NA,NA,NA,NA,NA,NA,NA,NA
"163","stim/objects/Instruments/bassdrum2.png",118,20,118,0.9,"stim/51.jpeg",5,1,3,NA,"Instruments",2,4,"right","right",0.664999962,1,1,1,1,NA,NA,NA,NA,NA,NA,NA,NA,NA,NA,NA,NA,NA,NA,NA,NA,NA,NA,NA,NA,NA,NA,NA,NA
"143","stim/objects/Instruments/balalaika2.png",119,20,119,0.3,"stim/43.jpeg",4,3,2,NA,"Instruments",2,2,"right","left",0.580999851,0,0,1,1,NA,NA,NA,NA,NA,NA,NA,NA,NA,NA,NA,NA,NA,NA,NA,NA,NA,NA,NA,NA,NA,NA,NA,NA
"117","stim/objects/HouseObjects/clothespin2.png",120,20,120,0.9,"stim/64.jpeg",6,4,3,NA,"HouseObjects",1,1,"left","right",0.782999992,0,0,1,1,NA,NA,NA,NA,NA,NA,NA,NA,NA,NA,NA,NA,NA,NA,NA,NA,NA,NA,NA,NA,NA,NA,NA,NA
"175","stim/objects/Instruments/bassguitar2.png",121,20,121,0.9,"stim/52.jpeg",5,2,3,NA,"Instruments",2,1,"right","right",0.568000078,1,1,1,1,NA,NA,NA,NA,NA,NA,NA,NA,NA,NA,NA,NA,NA,NA,NA,NA,NA,NA,NA,NA,NA,NA,NA,NA
"164","stim/objects/Instruments/bassdrum2.png",122,20,122,0.9,"stim/51.jpeg",5,1,3,NA,"Instruments",2,3,"right","right",0.496999979,1,1,1,1,NA,NA,NA,NA,NA,NA,NA,NA,NA,NA,NA,NA,NA,NA,NA,NA,NA,NA,NA,NA,NA,NA,NA,NA
"21","stim/objects/HouseObjects/ballofstring2.png",123,20,123,0.7,"stim/42.jpeg",4,2,2,NA,"HouseObjects",1,2,"left","left",0.515000105,1,1,1,1,NA,NA,NA,NA,NA,NA,NA,NA,NA,NA,NA,NA,NA,NA,NA,NA,NA,NA,NA,NA,NA,NA,NA,NA
"16","stim/objects/HouseObjects/ballofstring.png",124,20,124,0.5,"stim/12.jpeg",1,2,1,NA,"HouseObjects",1,1,"left","left",0.883000135,1,1,1,1,NA,NA,NA,NA,NA,NA,NA,NA,NA,NA,NA,NA,NA,NA,NA,NA,NA,NA,NA,NA,NA,NA,NA,NA
"169","stim/objects/Instruments/bassguitar.png",125,20,125,0.5,"stim/22.jpeg",2,2,1,NA,"Instruments",2,1,"right","",NA,0,0,1,1,NA,NA,NA,NA,NA,NA,NA,NA,NA,NA,NA,NA,NA,NA,NA,NA,NA,NA,NA,NA,NA,NA,NA,NA
"79","stim/objects/HouseObjects/bucket2.png",126,20,126,0.9,"stim/61.jpeg",6,1,3,NA,"HouseObjects",1,3,"left","left",0.805000067,1,1,1,1,NA,NA,NA,NA,NA,NA,NA,NA,NA,NA,NA,NA,NA,NA,NA,NA,NA,NA,NA,NA,NA,NA,NA,NA
"28","stim/objects/HouseObjects/barbecuelighter.png",127,20,127,0.5,"stim/13.jpeg",1,3,1,NA,"HouseObjects",1,4,"left","left",0.855000019,1,1,1,1,NA,NA,NA,NA,NA,NA,NA,NA,NA,NA,NA,NA,NA,NA,NA,NA,NA,NA,NA,NA,NA,NA,NA,NA
"39","stim/objects/HouseObjects/basket.png",128,20,128,0.5,"stim/14.jpeg",1,4,1,NA,"HouseObjects",1,3,"left","left",0.732000113,1,1,1,1,NA,NA,NA,NA,NA,NA,NA,NA,NA,NA,NA,NA,NA,NA,NA,NA,NA,NA,NA,NA,NA,NA,NA,NA
"34","stim/objects/HouseObjects/barbecuelighter2.png",129,20,129,0.7,"stim/43.jpeg",4,3,2,NA,"HouseObjects",1,4,"left","left",0.562999964,1,1,1,1,NA,NA,NA,NA,NA,NA,NA,NA,NA,NA,NA,NA,NA,NA,NA,NA,NA,NA,NA,NA,NA,NA,NA,NA
"230","stim/objects/Instruments/cymbal.png",130,20,130,0.7,"stim/33.jpeg",3,3,2,NA,"Instruments",2,1,"right","right",0.554000139,1,1,1,1,NA,NA,NA,NA,NA,NA,NA,NA,NA,NA,NA,NA,NA,NA,NA,NA,NA,NA,NA,NA,NA,NA,NA,NA
"147","stim/objects/Instruments/banjo.png",131,20,131,0.5,"stim/14.jpeg",1,4,1,NA,"Instruments",2,2,"right","left",0.684999943,0,0,1,1,NA,NA,NA,NA,NA,NA,NA,NA,NA,NA,NA,NA,NA,NA,NA,NA,NA,NA,NA,NA,NA,NA,NA,NA
"80","stim/objects/HouseObjects/bucket2.png",132,20,132,0.9,"stim/61.jpeg",6,1,3,NA,"HouseObjects",1,2,"left","left",0.59100008,1,1,1,1,NA,NA,NA,NA,NA,NA,NA,NA,NA,NA,NA,NA,NA,NA,NA,NA,NA,NA,NA,NA,NA,NA,NA,NA
"29","stim/objects/HouseObjects/barbecuelighter.png",133,20,133,0.5,"stim/13.jpeg",1,3,1,NA,"HouseObjects",1,1,"left","left",0.656000137,1,1,1,1,NA,NA,NA,NA,NA,NA,NA,NA,NA,NA,NA,NA,NA,NA,NA,NA,NA,NA,NA,NA,NA,NA,NA,NA
"4","stim/objects/HouseObjects/ashtray.png",134,20,134,0.5,"stim/11.jpeg",1,1,1,NA,"HouseObjects",1,4,"left","left",0.556999922,1,1,1,1,NA,NA,NA,NA,NA,NA,NA,NA,NA,NA,NA,NA,NA,NA,NA,NA,NA,NA,NA,NA,NA,NA,NA,NA
"221","stim/objects/Instruments/cornet.png",135,20,135,0.7,"stim/32.jpeg",3,2,2,NA,"Instruments",2,2,"right","right",0.546000004,1,1,1,1,NA,NA,NA,NA,NA,NA,NA,NA,NA,NA,NA,NA,NA,NA,NA,NA,NA,NA,NA,NA,NA,NA,NA,NA
"198","stim/objects/Instruments/chime.png",136,20,136,0.5,"stim/24.jpeg",2,4,1,NA,"Instruments",2,3,"right","left",0.680999994,0,0,1,1,NA,NA,NA,NA,NA,NA,NA,NA,NA,NA,NA,NA,NA,NA,NA,NA,NA,NA,NA,NA,NA,NA,NA,NA
"131","stim/objects/Instruments/acousticguitar.png",137,20,137,0.5,"stim/12.jpeg",1,2,1,NA,"Instruments",2,3,"right","left",0.815999985,0,0,1,1,NA,NA,NA,NA,NA,NA,NA,NA,NA,NA,NA,NA,NA,NA,NA,NA,NA,NA,NA,NA,NA,NA,NA,NA
"132","stim/objects/Instruments/acousticguitar.png",138,20,138,0.5,"stim/12.jpeg",1,2,1,NA,"Instruments",2,4,"right","left",0.60800004,0,0,1,1,NA,NA,NA,NA,NA,NA,NA,NA,NA,NA,NA,NA,NA,NA,NA,NA,NA,NA,NA,NA,NA,NA,NA,NA
"118","stim/objects/HouseObjects/clothespin2.png",139,20,139,0.9,"stim/64.jpeg",6,4,3,NA,"HouseObjects",1,3,"left","left",0.679000139,1,1,1,1,NA,NA,NA,NA,NA,NA,NA,NA,NA,NA,NA,NA,NA,NA,NA,NA,NA,NA,NA,NA,NA,NA,NA,NA
"103","stim/objects/HouseObjects/clothesdryingrack2.png",140,20,140,0.9,"stim/63.jpeg",6,3,3,NA,"HouseObjects",1,4,"left","left",0.725999832,1,1,1,1,NA,NA,NA,NA,NA,NA,NA,NA,NA,NA,NA,NA,NA,NA,NA,NA,NA,NA,NA,NA,NA,NA,NA,NA
"170","stim/objects/Instruments/bassguitar.png",141,20,141,0.5,"stim/22.jpeg",2,2,1,NA,"Instruments",2,2,"right","",NA,0,0,1,1,NA,NA,NA,NA,NA,NA,NA,NA,NA,NA,NA,NA,NA,NA,NA,NA,NA,NA,NA,NA,NA,NA,NA,NA
"110","stim/objects/HouseObjects/clothespin.png",142,20,142,0.3,"stim/34.jpeg",3,4,2,NA,"HouseObjects",1,4,"left","right",0.519000053,0,0,1,1,NA,NA,NA,NA,NA,NA,NA,NA,NA,NA,NA,NA,NA,NA,NA,NA,NA,NA,NA,NA,NA,NA,NA,NA
"8","stim/objects/HouseObjects/ashtray2.png",143,20,143,0.7,"stim/41.jpeg",4,1,2,NA,"HouseObjects",1,4,"left","left",0.495000124,1,1,1,1,NA,NA,NA,NA,NA,NA,NA,NA,NA,NA,NA,NA,NA,NA,NA,NA,NA,NA,NA,NA,NA,NA,NA,NA
"165","stim/objects/Instruments/bassdrum2.png",144,20,144,0.9,"stim/51.jpeg",5,1,3,NA,"Instruments",2,1,"right","right",0.489000082,1,1,1,1,NA,NA,NA,NA,NA,NA,NA,NA,NA,NA,NA,NA,NA,NA,NA,NA,NA,NA,NA,NA,NA,NA,NA,NA
"235","stim/objects/Instruments/doublebass.png",145,20,145,0.7,"stim/34.jpeg",3,4,2,NA,"Instruments",2,4,"right","right",0.603999853,1,1,1,1,NA,NA,NA,NA,NA,NA,NA,NA,NA,NA,NA,NA,NA,NA,NA,NA,NA,NA,NA,NA,NA,NA,NA,NA
"182","stim/objects/Instruments/cello.png",146,20,146,0.5,"stim/23.jpeg",2,3,1,NA,"Instruments",2,4,"right","left",0.525000095,0,0,1,1,NA,NA,NA,NA,NA,NA,NA,NA,NA,NA,NA,NA,NA,NA,NA,NA,NA,NA,NA,NA,NA,NA,NA,NA
"176","stim/objects/Instruments/bassguitar2.png",147,20,147,0.9,"stim/52.jpeg",5,2,3,NA,"Instruments",2,2,"right","right",0.493999958,1,1,1,1,NA,NA,NA,NA,NA,NA,NA,NA,NA,NA,NA,NA,NA,NA,NA,NA,NA,NA,NA,NA,NA,NA,NA,NA
"119","stim/objects/HouseObjects/clothespin2.png",148,20,148,0.9,"stim/64.jpeg",6,4,3,NA,"HouseObjects",1,4,"left","left",0.594000101,1,1,1,1,NA,NA,NA,NA,NA,NA,NA,NA,NA,NA,NA,NA,NA,NA,NA,NA,NA,NA,NA,NA,NA,NA,NA,NA
"166","stim/objects/Instruments/bassdrum2.png",149,20,149,0.9,"stim/51.jpeg",5,1,3,NA,"Instruments",2,2,"right","right",0.441999912,1,1,1,1,NA,NA,NA,NA,NA,NA,NA,NA,NA,NA,NA,NA,NA,NA,NA,NA,NA,NA,NA,NA,NA,NA,NA,NA
"86","stim/objects/HouseObjects/clock.png",150,20,150,0.3,"stim/32.jpeg",3,2,2,NA,"HouseObjects",1,2,"left","right",0.638999939,0,0,1,1,NA,NA,NA,NA,NA,NA,NA,NA,NA,NA,NA,NA,NA,NA,NA,NA,NA,NA,NA,NA,NA,NA,NA,NA
"222","stim/objects/Instruments/cornet.png",151,20,151,0.7,"stim/32.jpeg",3,2,2,NA,"Instruments",2,2,"right","left",0.710000038,0,0,1,1,NA,NA,NA,NA,NA,NA,NA,NA,NA,NA,NA,NA,NA,NA,NA,NA,NA,NA,NA,NA,NA,NA,NA,NA
"223","stim/objects/Instruments/cornet.png",152,20,152,0.7,"stim/32.jpeg",3,2,2,NA,"Instruments",2,1,"right","right",0.825000048,1,1,1,1,NA,NA,NA,NA,NA,NA,NA,NA,NA,NA,NA,NA,NA,NA,NA,NA,NA,NA,NA,NA,NA,NA,NA,NA
"44","stim/objects/HouseObjects/basket2.png",153,20,153,0.7,"stim/44.jpeg",4,4,2,NA,"HouseObjects",1,3,"left","left",0.731999874,1,1,1,1,NA,NA,NA,NA,NA,NA,NA,NA,NA,NA,NA,NA,NA,NA,NA,NA,NA,NA,NA,NA,NA,NA,NA,NA
"66","stim/objects/HouseObjects/bottle2.png",154,20,154,0.1,"stim/53.jpeg",5,3,3,NA,"HouseObjects",1,2,"left","right",0.645999908,0,0,1,1,NA,NA,NA,NA,NA,NA,NA,NA,NA,NA,NA,NA,NA,NA,NA,NA,NA,NA,NA,NA,NA,NA,NA,NA
"22","stim/objects/HouseObjects/ballofstring2.png",155,20,155,0.7,"stim/42.jpeg",4,2,2,NA,"HouseObjects",1,4,"left","left",0.680999994,1,1,1,1,NA,NA,NA,NA,NA,NA,NA,NA,NA,NA,NA,NA,NA,NA,NA,NA,NA,NA,NA,NA,NA,NA,NA,NA
"120","stim/objects/HouseObjects/clothespin2.png",156,20,156,0.9,"stim/64.jpeg",6,4,3,NA,"HouseObjects",1,2,"left","left",0.59800005,1,1,1,1,NA,NA,NA,NA,NA,NA,NA,NA,NA,NA,NA,NA,NA,NA,NA,NA,NA,NA,NA,NA,NA,NA,NA,NA
"177","stim/objects/Instruments/bassguitar2.png",157,20,157,0.9,"stim/52.jpeg",5,2,3,NA,"Instruments",2,3,"right","right",0.498999834,1,1,1,1,NA,NA,NA,NA,NA,NA,NA,NA,NA,NA,NA,NA,NA,NA,NA,NA,NA,NA,NA,NA,NA,NA,NA,NA
"148","stim/objects/Instruments/banjo.png",158,20,158,0.5,"stim/14.jpeg",1,4,1,NA,"Instruments",2,1,"right","left",0.582999945,0,0,1,1,NA,NA,NA,NA,NA,NA,NA,NA,NA,NA,NA,NA,NA,NA,NA,NA,NA,NA,NA,NA,NA,NA,NA,NA
"178","stim/objects/Instruments/bassguitar2.png",159,20,159,0.9,"stim/52.jpeg",5,2,3,NA,"Instruments",2,4,"right","right",0.917000055,1,1,1,1,NA,NA,NA,NA,NA,NA,NA,NA,NA,NA,NA,NA,NA,NA,NA,NA,NA,NA,NA,NA,NA,NA,NA,NA
"199","stim/objects/Instruments/chime.png",160,20,160,0.5,"stim/24.jpeg",2,4,1,NA,"Instruments",2,1,"right","left",0.828999996,0,0,1,1,NA,NA,NA,NA,NA,NA,NA,NA,NA,NA,NA,NA,NA,NA,NA,NA,NA,NA,NA,NA,NA,NA,NA,NA
"68","stim/objects/HouseObjects/broom.png",161,20,161,0.5,"stim/24.jpeg",2,4,1,NA,"HouseObjects",1,4,"left","left",0.704999924,1,1,1,1,NA,NA,NA,NA,NA,NA,NA,NA,NA,NA,NA,NA,NA,NA,NA,NA,NA,NA,NA,NA,NA,NA,NA,NA
"127","stim/objects/Instruments/accordion2.png",162,20,162,0.3,"stim/41.jpeg",4,1,2,NA,"Instruments",2,1,"right","left",0.605999947,0,0,1,1,NA,NA,NA,NA,NA,NA,NA,NA,NA,NA,NA,NA,NA,NA,NA,NA,NA,NA,NA,NA,NA,NA,NA,NA
"203","stim/objects/Instruments/chime2.png",163,20,163,0.9,"stim/54.jpeg",5,4,3,NA,"Instruments",2,2,"right","right",0.684999943,1,1,1,1,NA,NA,NA,NA,NA,NA,NA,NA,NA,NA,NA,NA,NA,NA,NA,NA,NA,NA,NA,NA,NA,NA,NA,NA
"72","stim/objects/HouseObjects/broom2.png",164,20,164,0.1,"stim/54.jpeg",5,4,3,NA,"HouseObjects",1,4,"left","right",0.467000008,0,0,1,1,NA,NA,NA,NA,NA,NA,NA,NA,NA,NA,NA,NA,NA,NA,NA,NA,NA,NA,NA,NA,NA,NA,NA,NA
"81","stim/objects/HouseObjects/bucket2.png",165,20,165,0.9,"stim/61.jpeg",6,1,3,NA,"HouseObjects",1,2,"left","left",0.528000116,1,1,1,1,NA,NA,NA,NA,NA,NA,NA,NA,NA,NA,NA,NA,NA,NA,NA,NA,NA,NA,NA,NA,NA,NA,NA,NA
"92","stim/objects/HouseObjects/clock2.png",166,20,166,0.9,"stim/62.jpeg",6,2,3,NA,"HouseObjects",1,2,"left","left",0.530999899,1,1,1,1,NA,NA,NA,NA,NA,NA,NA,NA,NA,NA,NA,NA,NA,NA,NA,NA,NA,NA,NA,NA,NA,NA,NA,NA
"69","stim/objects/HouseObjects/broom.png",167,20,167,0.5,"stim/24.jpeg",2,4,1,NA,"HouseObjects",1,4,"left","left",0.752000093,1,1,1,1,NA,NA,NA,NA,NA,NA,NA,NA,NA,NA,NA,NA,NA,NA,NA,NA,NA,NA,NA,NA,NA,NA,NA,NA
"183","stim/objects/Instruments/cello.png",168,20,168,0.5,"stim/23.jpeg",2,3,1,NA,"Instruments",2,3,"right","right",0.838999987,1,1,1,1,NA,NA,NA,NA,NA,NA,NA,NA,NA,NA,NA,NA,NA,NA,NA,NA,NA,NA,NA,NA,NA,NA,NA,NA
"9","stim/objects/HouseObjects/ashtray2.png",169,20,169,0.7,"stim/41.jpeg",4,1,2,NA,"HouseObjects",1,2,"left","left",0.654999971,1,1,1,1,NA,NA,NA,NA,NA,NA,NA,NA,NA,NA,NA,NA,NA,NA,NA,NA,NA,NA,NA,NA,NA,NA,NA,NA
"141","stim/objects/Instruments/balalaika.png",170,20,170,0.5,"stim/13.jpeg",1,3,1,NA,"Instruments",2,2,"right","right",0.730999947,1,1,1,1,NA,NA,NA,NA,NA,NA,NA,NA,NA,NA,NA,NA,NA,NA,NA,NA,NA,NA,NA,NA,NA,NA,NA,NA
"135","stim/objects/Instruments/acousticguitar2.png",171,20,171,0.3,"stim/42.jpeg",4,2,2,NA,"Instruments",2,2,"right","left",0.572000027,0,0,1,1,NA,NA,NA,NA,NA,NA,NA,NA,NA,NA,NA,NA,NA,NA,NA,NA,NA,NA,NA,NA,NA,NA,NA,NA
"10","stim/objects/HouseObjects/ashtray2.png",172,20,172,0.7,"stim/41.jpeg",4,1,2,NA,"HouseObjects",1,4,"left","left",0.667000055,1,1,1,1,NA,NA,NA,NA,NA,NA,NA,NA,NA,NA,NA,NA,NA,NA,NA,NA,NA,NA,NA,NA,NA,NA,NA,NA
"214","stim/objects/Instruments/clarinet.png",173,20,173,0.7,"stim/31.jpeg",3,1,2,NA,"Instruments",2,1,"right","right",0.523000002,1,1,1,1,NA,NA,NA,NA,NA,NA,NA,NA,NA,NA,NA,NA,NA,NA,NA,NA,NA,NA,NA,NA,NA,NA,NA,NA
"128","stim/objects/Instruments/accordion2.png",174,20,174,0.3,"stim/41.jpeg",4,1,2,NA,"Instruments",2,3,"right","left",0.637000084,0,0,1,1,NA,NA,NA,NA,NA,NA,NA,NA,NA,NA,NA,NA,NA,NA,NA,NA,NA,NA,NA,NA,NA,NA,NA,NA
"82","stim/objects/HouseObjects/bucket2.png",175,20,175,0.9,"stim/61.jpeg",6,1,3,NA,"HouseObjects",1,2,"left","left",0.826000214,1,1,1,1,NA,NA,NA,NA,NA,NA,NA,NA,NA,NA,NA,NA,NA,NA,NA,NA,NA,NA,NA,NA,NA,NA,NA,NA
"236","stim/objects/Instruments/doublebass.png",176,20,176,0.7,"stim/34.jpeg",3,4,2,NA,"Instruments",2,3,"right","right",0.677999973,1,1,1,1,NA,NA,NA,NA,NA,NA,NA,NA,NA,NA,NA,NA,NA,NA,NA,NA,NA,NA,NA,NA,NA,NA,NA,NA
"149","stim/objects/Instruments/banjo.png",177,20,177,0.5,"stim/14.jpeg",1,4,1,NA,"Instruments",2,1,"right","left",0.696000099,0,0,1,1,NA,NA,NA,NA,NA,NA,NA,NA,NA,NA,NA,NA,NA,NA,NA,NA,NA,NA,NA,NA,NA,NA,NA,NA
"231","stim/objects/Instruments/cymbal.png",178,20,178,0.7,"stim/33.jpeg",3,3,2,NA,"Instruments",2,3,"right","right",0.52699995,1,1,1,1,NA,NA,NA,NA,NA,NA,NA,NA,NA,NA,NA,NA,NA,NA,NA,NA,NA,NA,NA,NA,NA,NA,NA,NA
"45","stim/objects/HouseObjects/basket2.png",179,20,179,0.7,"stim/44.jpeg",4,4,2,NA,"HouseObjects",1,1,"left","left",0.656000137,1,1,1,1,NA,NA,NA,NA,NA,NA,NA,NA,NA,NA,NA,NA,NA,NA,NA,NA,NA,NA,NA,NA,NA,NA,NA,NA
"46","stim/objects/HouseObjects/basket2.png",180,20,180,0.7,"stim/44.jpeg",4,4,2,NA,"HouseObjects",1,3,"left","left",0.501999855,1,1,1,1,NA,NA,NA,NA,NA,NA,NA,NA,NA,NA,NA,NA,NA,NA,NA,NA,NA,NA,NA,NA,NA,NA,NA,NA
"204","stim/objects/Instruments/chime2.png",181,20,181,0.9,"stim/54.jpeg",5,4,3,NA,"Instruments",2,4,"right","right",0.617000103,1,1,1,1,NA,NA,NA,NA,NA,NA,NA,NA,NA,NA,NA,NA,NA,NA,NA,NA,NA,NA,NA,NA,NA,NA,NA,NA
"93","stim/objects/HouseObjects/clock2.png",182,20,182,0.9,"stim/62.jpeg",6,2,3,NA,"HouseObjects",1,3,"left","left",0.697999954,1,1,1,1,NA,NA,NA,NA,NA,NA,NA,NA,NA,NA,NA,NA,NA,NA,NA,NA,NA,NA,NA,NA,NA,NA,NA,NA
"23","stim/objects/HouseObjects/ballofstring2.png",183,20,183,0.7,"stim/42.jpeg",4,2,2,NA,"HouseObjects",1,4,"left","left",0.622000217,1,1,1,1,NA,NA,NA,NA,NA,NA,NA,NA,NA,NA,NA,NA,NA,NA,NA,NA,NA,NA,NA,NA,NA,NA,NA,NA
"104","stim/objects/HouseObjects/clothesdryingrack2.png",184,20,184,0.9,"stim/63.jpeg",6,3,3,NA,"HouseObjects",1,2,"left","left",0.674000025,1,1,1,1,NA,NA,NA,NA,NA,NA,NA,NA,NA,NA,NA,NA,NA,NA,NA,NA,NA,NA,NA,NA,NA,NA,NA,NA
"191","stim/objects/Instruments/cello2.png",185,20,185,0.9,"stim/53.jpeg",5,3,3,NA,"Instruments",2,3,"right","right",0.602999926,1,1,1,1,NA,NA,NA,NA,NA,NA,NA,NA,NA,NA,NA,NA,NA,NA,NA,NA,NA,NA,NA,NA,NA,NA,NA,NA
"94","stim/objects/HouseObjects/clock2.png",186,20,186,0.9,"stim/62.jpeg",6,2,3,NA,"HouseObjects",1,4,"left","left",0.583000183,1,1,1,1,NA,NA,NA,NA,NA,NA,NA,NA,NA,NA,NA,NA,NA,NA,NA,NA,NA,NA,NA,NA,NA,NA,NA,NA
"83","stim/objects/HouseObjects/bucket2.png",187,20,187,0.9,"stim/61.jpeg",6,1,3,NA,"HouseObjects",1,2,"left","left",0.796999931,1,1,1,1,NA,NA,NA,NA,NA,NA,NA,NA,NA,NA,NA,NA,NA,NA,NA,NA,NA,NA,NA,NA,NA,NA,NA,NA
"87","stim/objects/HouseObjects/clock.png",188,20,188,0.3,"stim/32.jpeg",3,2,2,NA,"HouseObjects",1,3,"left","right",0.547999859,0,0,1,1,NA,NA,NA,NA,NA,NA,NA,NA,NA,NA,NA,NA,NA,NA,NA,NA,NA,NA,NA,NA,NA,NA,NA,NA
"133","stim/objects/Instruments/acousticguitar.png",189,20,189,0.5,"stim/12.jpeg",1,2,1,NA,"Instruments",2,2,"right","left",0.602999926,0,0,1,1,NA,NA,NA,NA,NA,NA,NA,NA,NA,NA,NA,NA,NA,NA,NA,NA,NA,NA,NA,NA,NA,NA,NA,NA
"54","stim/objects/HouseObjects/bleachbottle2.png",190,20,190,0.1,"stim/51.jpeg",5,1,3,NA,"HouseObjects",1,1,"left","right",0.494000196,0,0,1,1,NA,NA,NA,NA,NA,NA,NA,NA,NA,NA,NA,NA,NA,NA,NA,NA,NA,NA,NA,NA,NA,NA,NA,NA
"215","stim/objects/Instruments/clarinet.png",191,20,191,0.7,"stim/31.jpeg",3,1,2,NA,"Instruments",2,4,"right","",NA,0,0,1,1,NA,NA,NA,NA,NA,NA,NA,NA,NA,NA,NA,NA,NA,NA,NA,NA,NA,NA,NA,NA,NA,NA,NA,NA
"70","stim/objects/HouseObjects/broom.png",192,20,192,0.5,"stim/24.jpeg",2,4,1,NA,"HouseObjects",1,2,"left","left",0.680999994,1,1,1,1,NA,NA,NA,NA,NA,NA,NA,NA,NA,NA,NA,NA,NA,NA,NA,NA,NA,NA,NA,NA,NA,NA,NA,NA
"11","stim/objects/HouseObjects/ashtray2.png",193,20,193,0.7,"stim/41.jpeg",4,1,2,NA,"HouseObjects",1,2,"left","left",0.621999979,1,1,1,1,NA,NA,NA,NA,NA,NA,NA,NA,NA,NA,NA,NA,NA,NA,NA,NA,NA,NA,NA,NA,NA,NA,NA,NA
"24","stim/objects/HouseObjects/ballofstring2.png",194,20,194,0.7,"stim/42.jpeg",4,2,2,NA,"HouseObjects",1,2,"left","left",0.770999908,1,1,1,1,NA,NA,NA,NA,NA,NA,NA,NA,NA,NA,NA,NA,NA,NA,NA,NA,NA,NA,NA,NA,NA,NA,NA,NA
"184","stim/objects/Instruments/cello.png",195,20,195,0.5,"stim/23.jpeg",2,3,1,NA,"Instruments",2,4,"right","",NA,0,0,1,1,NA,NA,NA,NA,NA,NA,NA,NA,NA,NA,NA,NA,NA,NA,NA,NA,NA,NA,NA,NA,NA,NA,NA,NA
"95","stim/objects/HouseObjects/clock2.png",196,20,196,0.9,"stim/62.jpeg",6,2,3,NA,"HouseObjects",1,1,"left","left",0.569999933,1,1,1,1,NA,NA,NA,NA,NA,NA,NA,NA,NA,NA,NA,NA,NA,NA,NA,NA,NA,NA,NA,NA,NA,NA,NA,NA
"205","stim/objects/Instruments/chime2.png",197,20,197,0.9,"stim/54.jpeg",5,4,3,NA,"Instruments",2,2,"right","right",0.530999899,1,1,1,1,NA,NA,NA,NA,NA,NA,NA,NA,NA,NA,NA,NA,NA,NA,NA,NA,NA,NA,NA,NA,NA,NA,NA,NA
"74","stim/objects/HouseObjects/bucket.png",198,20,198,0.3,"stim/31.jpeg",3,1,2,NA,"HouseObjects",1,1,"left","right",0.536999941,0,0,1,1,NA,NA,NA,NA,NA,NA,NA,NA,NA,NA,NA,NA,NA,NA,NA,NA,NA,NA,NA,NA,NA,NA,NA,NA
"98","stim/objects/HouseObjects/clothesdryingrack.png",199,20,199,0.3,"stim/33.jpeg",3,3,2,NA,"HouseObjects",1,3,"left","",NA,0,0,1,1,NA,NA,NA,NA,NA,NA,NA,NA,NA,NA,NA,NA,NA,NA,NA,NA,NA,NA,NA,NA,NA,NA,NA,NA
"84","stim/objects/HouseObjects/bucket2.png",200,20,200,0.9,"stim/61.jpeg",6,1,3,NA,"HouseObjects",1,2,"left","left",0.491999865,1,1,1,1,NA,NA,NA,NA,NA,NA,NA,NA,NA,NA,NA,NA,NA,NA,NA,NA,NA,NA,NA,NA,NA,NA,NA,NA
"192","stim/objects/Instruments/cello2.png",201,20,201,0.9,"stim/53.jpeg",5,3,3,NA,"Instruments",2,1,"right","right",0.485999823,1,1,1,1,NA,NA,NA,NA,NA,NA,NA,NA,NA,NA,NA,NA,NA,NA,NA,NA,NA,NA,NA,NA,NA,NA,NA,NA
"179","stim/objects/Instruments/bassguitar2.png",202,20,202,0.9,"stim/52.jpeg",5,2,3,NA,"Instruments",2,3,"right","right",0.461000204,1,1,1,1,NA,NA,NA,NA,NA,NA,NA,NA,NA,NA,NA,NA,NA,NA,NA,NA,NA,NA,NA,NA,NA,NA,NA,NA
"193","stim/objects/Instruments/cello2.png",203,20,203,0.9,"stim/53.jpeg",5,3,3,NA,"Instruments",2,1,"right","right",0.531000137,1,1,1,1,NA,NA,NA,NA,NA,NA,NA,NA,NA,NA,NA,NA,NA,NA,NA,NA,NA,NA,NA,NA,NA,NA,NA,NA
"237","stim/objects/Instruments/doublebass.png",204,20,204,0.7,"stim/34.jpeg",3,4,2,NA,"Instruments",2,4,"right","right",0.514000177,1,1,1,1,NA,NA,NA,NA,NA,NA,NA,NA,NA,NA,NA,NA,NA,NA,NA,NA,NA,NA,NA,NA,NA,NA,NA,NA
"47","stim/objects/HouseObjects/basket2.png",205,20,205,0.7,"stim/44.jpeg",4,4,2,NA,"HouseObjects",1,3,"left","left",0.565999985,1,1,1,1,NA,NA,NA,NA,NA,NA,NA,NA,NA,NA,NA,NA,NA,NA,NA,NA,NA,NA,NA,NA,NA,NA,NA,NA
"171","stim/objects/Instruments/bassguitar.png",206,20,206,0.5,"stim/22.jpeg",2,2,1,NA,"Instruments",2,1,"right","left",0.588999987,0,0,1,1,NA,NA,NA,NA,NA,NA,NA,NA,NA,NA,NA,NA,NA,NA,NA,NA,NA,NA,NA,NA,NA,NA,NA,NA
"96","stim/objects/HouseObjects/clock2.png",207,20,207,0.9,"stim/62.jpeg",6,2,3,NA,"HouseObjects",1,3,"left","left",0.67200017,1,1,1,1,NA,NA,NA,NA,NA,NA,NA,NA,NA,NA,NA,NA,NA,NA,NA,NA,NA,NA,NA,NA,NA,NA,NA,NA
"35","stim/objects/HouseObjects/barbecuelighter2.png",208,20,208,0.7,"stim/43.jpeg",4,3,2,NA,"HouseObjects",1,4,"left","left",0.578999996,1,1,1,1,NA,NA,NA,NA,NA,NA,NA,NA,NA,NA,NA,NA,NA,NA,NA,NA,NA,NA,NA,NA,NA,NA,NA,NA
"17","stim/objects/HouseObjects/ballofstring.png",209,20,209,0.5,"stim/12.jpeg",1,2,1,NA,"HouseObjects",1,2,"left","right",0.385999918,0,0,1,1,NA,NA,NA,NA,NA,NA,NA,NA,NA,NA,NA,NA,NA,NA,NA,NA,NA,NA,NA,NA,NA,NA,NA,NA
"238","stim/objects/Instruments/doublebass.png",210,20,210,0.7,"stim/34.jpeg",3,4,2,NA,"Instruments",2,3,"right","right",0.584000111,1,1,1,1,NA,NA,NA,NA,NA,NA,NA,NA,NA,NA,NA,NA,NA,NA,NA,NA,NA,NA,NA,NA,NA,NA,NA,NA
"180","stim/objects/Instruments/bassguitar2.png",211,20,211,0.9,"stim/52.jpeg",5,2,3,NA,"Instruments",2,3,"right","right",0.523000002,1,1,1,1,NA,NA,NA,NA,NA,NA,NA,NA,NA,NA,NA,NA,NA,NA,NA,NA,NA,NA,NA,NA,NA,NA,NA,NA
"206","stim/objects/Instruments/chime2.png",212,20,212,0.9,"stim/54.jpeg",5,4,3,NA,"Instruments",2,4,"right","right",0.722000122,1,1,1,1,NA,NA,NA,NA,NA,NA,NA,NA,NA,NA,NA,NA,NA,NA,NA,NA,NA,NA,NA,NA,NA,NA,NA,NA
"239","stim/objects/Instruments/doublebass.png",213,20,213,0.7,"stim/34.jpeg",3,4,2,NA,"Instruments",2,4,"right","right",0.501000166,1,1,1,1,NA,NA,NA,NA,NA,NA,NA,NA,NA,NA,NA,NA,NA,NA,NA,NA,NA,NA,NA,NA,NA,NA,NA,NA
"58","stim/objects/HouseObjects/blender.png",214,20,214,0.5,"stim/22.jpeg",2,2,1,NA,"HouseObjects",1,2,"left","right",0.687999964,0,0,1,1,NA,NA,NA,NA,NA,NA,NA,NA,NA,NA,NA,NA,NA,NA,NA,NA,NA,NA,NA,NA,NA,NA,NA,NA
"232","stim/objects/Instruments/cymbal2.png",215,20,215,0.1,"stim/63.jpeg",6,3,3,NA,"Instruments",2,4,"right","left",0.657999992,0,0,1,1,NA,NA,NA,NA,NA,NA,NA,NA,NA,NA,NA,NA,NA,NA,NA,NA,NA,NA,NA,NA,NA,NA,NA,NA
"105","stim/objects/HouseObjects/clothesdryingrack2.png",216,20,216,0.9,"stim/63.jpeg",6,3,3,NA,"HouseObjects",1,2,"left","left",0.537999868,1,1,1,1,NA,NA,NA,NA,NA,NA,NA,NA,NA,NA,NA,NA,NA,NA,NA,NA,NA,NA,NA,NA,NA,NA,NA,NA
"207","stim/objects/Instruments/chime2.png",217,20,217,0.9,"stim/54.jpeg",5,4,3,NA,"Instruments",2,4,"right","right",0.508999825,1,1,1,1,NA,NA,NA,NA,NA,NA,NA,NA,NA,NA,NA,NA,NA,NA,NA,NA,NA,NA,NA,NA,NA,NA,NA,NA
"75","stim/objects/HouseObjects/bucket.png",218,20,218,0.3,"stim/31.jpeg",3,1,2,NA,"HouseObjects",1,2,"left","right",0.478000164,0,0,1,1,NA,NA,NA,NA,NA,NA,NA,NA,NA,NA,NA,NA,NA,NA,NA,NA,NA,NA,NA,NA,NA,NA,NA,NA
"136","stim/objects/Instruments/acousticguitar2.png",219,20,219,0.3,"stim/42.jpeg",4,2,2,NA,"Instruments",2,4,"right","left",0.618000031,0,0,1,1,NA,NA,NA,NA,NA,NA,NA,NA,NA,NA,NA,NA,NA,NA,NA,NA,NA,NA,NA,NA,NA,NA,NA,NA
"185","stim/objects/Instruments/cello.png",220,20,220,0.5,"stim/23.jpeg",2,3,1,NA,"Instruments",2,2,"right","left",0.661000013,0,0,1,1,NA,NA,NA,NA,NA,NA,NA,NA,NA,NA,NA,NA,NA,NA,NA,NA,NA,NA,NA,NA,NA,NA,NA,NA
"12","stim/objects/HouseObjects/ashtray2.png",221,20,221,0.7,"stim/41.jpeg",4,1,2,NA,"HouseObjects",1,2,"left","left",0.671000004,1,1,1,1,NA,NA,NA,NA,NA,NA,NA,NA,NA,NA,NA,NA,NA,NA,NA,NA,NA,NA,NA,NA,NA,NA,NA,NA
"106","stim/objects/HouseObjects/clothesdryingrack2.png",222,20,222,0.9,"stim/63.jpeg",6,3,3,NA,"HouseObjects",1,1,"left","left",0.678999901,1,1,1,1,NA,NA,NA,NA,NA,NA,NA,NA,NA,NA,NA,NA,NA,NA,NA,NA,NA,NA,NA,NA,NA,NA,NA,NA
"5","stim/objects/HouseObjects/ashtray.png",223,20,223,0.5,"stim/11.jpeg",1,1,1,NA,"HouseObjects",1,2,"left","left",0.812999964,1,1,1,1,NA,NA,NA,NA,NA,NA,NA,NA,NA,NA,NA,NA,NA,NA,NA,NA,NA,NA,NA,NA,NA,NA,NA,NA
"40","stim/objects/HouseObjects/basket.png",224,20,224,0.5,"stim/14.jpeg",1,4,1,NA,"HouseObjects",1,4,"left","left",0.707000017,1,1,1,1,NA,NA,NA,NA,NA,NA,NA,NA,NA,NA,NA,NA,NA,NA,NA,NA,NA,NA,NA,NA,NA,NA,NA,NA
"152","stim/objects/Instruments/banjo2.png",225,20,225,0.3,"stim/44.jpeg",4,4,2,NA,"Instruments",2,3,"right","left",0.611000061,0,0,1,1,NA,NA,NA,NA,NA,NA,NA,NA,NA,NA,NA,NA,NA,NA,NA,NA,NA,NA,NA,NA,NA,NA,NA,NA
"59","stim/objects/HouseObjects/blender.png",226,20,226,0.5,"stim/22.jpeg",2,2,1,NA,"HouseObjects",1,2,"left","right",0.725999832,0,0,1,1,NA,NA,NA,NA,NA,NA,NA,NA,NA,NA,NA,NA,NA,NA,NA,NA,NA,NA,NA,NA,NA,NA,NA,NA
"99","stim/objects/HouseObjects/clothesdryingrack.png",227,20,227,0.3,"stim/33.jpeg",3,3,2,NA,"HouseObjects",1,1,"left","left",0.571000099,1,1,1,1,NA,NA,NA,NA,NA,NA,NA,NA,NA,NA,NA,NA,NA,NA,NA,NA,NA,NA,NA,NA,NA,NA,NA,NA
"64","stim/objects/HouseObjects/bottle.png",228,20,228,0.5,"stim/23.jpeg",2,3,1,NA,"HouseObjects",1,3,"left","left",0.517999887,1,1,1,1,NA,NA,NA,NA,NA,NA,NA,NA,NA,NA,NA,NA,NA,NA,NA,NA,NA,NA,NA,NA,NA,NA,NA,NA
"48","stim/objects/HouseObjects/basket2.png",229,20,229,0.7,"stim/44.jpeg",4,4,2,NA,"HouseObjects",1,2,"left","left",0.500999928,1,1,1,1,NA,NA,NA,NA,NA,NA,NA,NA,NA,NA,NA,NA,NA,NA,NA,NA,NA,NA,NA,NA,NA,NA,NA,NA
"41","stim/objects/HouseObjects/basket.png",230,20,230,0.5,"stim/14.jpeg",1,4,1,NA,"HouseObjects",1,3,"left","left",0.594000101,1,1,1,1,NA,NA,NA,NA,NA,NA,NA,NA,NA,NA,NA,NA,NA,NA,NA,NA,NA,NA,NA,NA,NA,NA,NA,NA
"194","stim/objects/Instruments/cello2.png",231,20,231,0.9,"stim/53.jpeg",5,3,3,NA,"Instruments",2,2,"right","right",0.552999973,1,1,1,1,NA,NA,NA,NA,NA,NA,NA,NA,NA,NA,NA,NA,NA,NA,NA,NA,NA,NA,NA,NA,NA,NA,NA,NA
"208","stim/objects/Instruments/chime2.png",232,20,232,0.9,"stim/54.jpeg",5,4,3,NA,"Instruments",2,3,"right","right",0.674000025,1,1,1,1,NA,NA,NA,NA,NA,NA,NA,NA,NA,NA,NA,NA,NA,NA,NA,NA,NA,NA,NA,NA,NA,NA,NA,NA
"65","stim/objects/HouseObjects/bottle.png",233,20,233,0.5,"stim/23.jpeg",2,3,1,NA,"HouseObjects",1,1,"left","left",0.513999939,1,1,1,1,NA,NA,NA,NA,NA,NA,NA,NA,NA,NA,NA,NA,NA,NA,NA,NA,NA,NA,NA,NA,NA,NA,NA,NA
"157","stim/objects/Instruments/bassdrum.png",234,20,234,0.5,"stim/21.jpeg",2,1,1,NA,"Instruments",2,2,"right","right",0.70299983,1,1,1,1,NA,NA,NA,NA,NA,NA,NA,NA,NA,NA,NA,NA,NA,NA,NA,NA,NA,NA,NA,NA,NA,NA,NA,NA
"107","stim/objects/HouseObjects/clothesdryingrack2.png",235,20,235,0.9,"stim/63.jpeg",6,3,3,NA,"HouseObjects",1,3,"left","left",0.462000132,1,1,1,1,NA,NA,NA,NA,NA,NA,NA,NA,NA,NA,NA,NA,NA,NA,NA,NA,NA,NA,NA,NA,NA,NA,NA,NA
"71","stim/objects/HouseObjects/broom.png",236,20,236,0.5,"stim/24.jpeg",2,4,1,NA,"HouseObjects",1,3,"left","left",0.618000031,1,1,1,1,NA,NA,NA,NA,NA,NA,NA,NA,NA,NA,NA,NA,NA,NA,NA,NA,NA,NA,NA,NA,NA,NA,NA,NA
"111","stim/objects/HouseObjects/clothespin.png",237,20,237,0.3,"stim/34.jpeg",3,4,2,NA,"HouseObjects",1,1,"left","right",0.565000057,0,0,1,1,NA,NA,NA,NA,NA,NA,NA,NA,NA,NA,NA,NA,NA,NA,NA,NA,NA,NA,NA,NA,NA,NA,NA,NA
"36","stim/objects/HouseObjects/barbecuelighter2.png",238,20,238,0.7,"stim/43.jpeg",4,3,2,NA,"HouseObjects",1,2,"left","left",0.392999887,1,1,1,1,NA,NA,NA,NA,NA,NA,NA,NA,NA,NA,NA,NA,NA,NA,NA,NA,NA,NA,NA,NA,NA,NA,NA,NA
"144","stim/objects/Instruments/balalaika2.png",239,20,239,0.3,"stim/43.jpeg",4,3,2,NA,"Instruments",2,3,"right","left",0.497999907,0,0,1,1,NA,NA,NA,NA,NA,NA,NA,NA,NA,NA,NA,NA,NA,NA,NA,NA,NA,NA,NA,NA,NA,NA,NA,NA
"108","stim/objects/HouseObjects/clothesdryingrack2.png",240,20,240,0.9,"stim/63.jpeg",6,3,3,NA,"HouseObjects",1,4,"left","left",0.572999954,1,1,1,1,NA,NA,NA,NA,NA,NA,NA,NA,NA,NA,NA,NA,NA,NA,NA,NA,NA,NA,NA,NA,NA,NA,NA,NA
"406","stim/objects/Instruments/drums.png",248,20,241,0.5,"stim/14.jpeg",1,4,1,2,"Instruments",2,2,"right","right",0.819000006,1,1,1,0,NA,NA,NA,NA,NA,NA,NA,NA,NA,NA,NA,NA,NA,NA,NA,NA,NA,NA,NA,NA,NA,NA,NA,NA
"264","stim/objects/HouseObjects/glass2.png",249,20,242,0.7,"stim/42.jpeg",4,2,2,1,"HouseObjects",1,2,"left","left",0.680000067,1,1,1,0,161,20,1,0.7,1,"stim/42.jpeg",4,2,"stim/42.jpeg",2,"left",0.833999872,2,3,1.138000011,2,1.888999939,161,1,0,0,1,1,1
"456","stim/objects/Instruments/marimba.png",250,20,243,0.9,"stim/54.jpeg",5,4,3,2,"Instruments",2,2,"right","right",0.503999949,1,1,1,0,NA,NA,NA,NA,NA,NA,NA,NA,NA,NA,NA,NA,NA,NA,NA,NA,NA,NA,NA,NA,NA,NA,NA,NA
"252","stim/objects/HouseObjects/doormat2.png",251,20,244,0.3,"stim/31.jpeg",3,1,2,1,"HouseObjects",1,3,"left","right",0.647000074,0,0,1,0,103,20,1,0.3,1,"stim/31.jpeg",3,1,"stim/31.jpeg",3,"left",0.851000071,4,1,2.372999907,1,0.279999971,103,1,1,1,0,0,1
"524","stim/objects/Instruments/oboe.png",252,20,245,0.9,"stim/53.jpeg",5,3,3,2,"Instruments",2,4,"right","right",0.693000078,1,1,1,0,NA,NA,NA,NA,NA,NA,NA,NA,NA,NA,NA,NA,NA,NA,NA,NA,NA,NA,NA,NA,NA,NA,NA,NA
"388","stim/objects/HouseObjects/scale.png",253,20,246,0.5,"stim/22.jpeg",2,2,1,1,"HouseObjects",1,2,"left","left",0.789000034,1,1,1,0,182,20,1,0.5,2,"stim/22.jpeg",2,2,"stim/22.jpeg",2,"left",0.903000116,3,3,3.072999954,4,0.524999857,182,1,0,0,0,0,1
"473","stim/objects/Instruments/metronome.png",254,20,247,0.9,"stim/54.jpeg",5,4,3,2,"Instruments",2,2,"right","right",0.514999866,1,1,1,0,NA,NA,NA,NA,NA,NA,NA,NA,NA,NA,NA,NA,NA,NA,NA,NA,NA,NA,NA,NA,NA,NA,NA,NA
"444","stim/objects/Instruments/keyboard.png",255,20,248,0.7,"stim/33.jpeg",3,3,2,2,"Instruments",2,4,"right","right",0.832999945,1,1,1,0,NA,NA,NA,NA,NA,NA,NA,NA,NA,NA,NA,NA,NA,NA,NA,NA,NA,NA,NA,NA,NA,NA,NA,NA
"360","stim/objects/HouseObjects/pitcher.png",256,20,249,0.9,"stim/61.jpeg",6,1,3,2,"HouseObjects",1,2,"left","right",0.832000017,0,0,1,0,NA,NA,NA,NA,NA,NA,NA,NA,NA,NA,NA,NA,NA,NA,NA,NA,NA,NA,NA,NA,NA,NA,NA,NA
"563","stim/objects/Instruments/tuba.png",257,20,250,0.7,"stim/33.jpeg",3,3,2,1,"Instruments",2,4,"right","right",0.535000086,1,1,1,0,102,20,1,0.7,2,"stim/33.jpeg",3,3,"stim/33.jpeg",4,"left",2.816999912,3,3,4.354000092,4,0.889999866,102,1,1,1,1,1,1
"525","stim/objects/Instruments/oboe.png",258,20,251,0.9,"stim/54.jpeg",5,4,3,2,"Instruments",2,3,"right","right",0.56400013,1,1,1,0,NA,NA,NA,NA,NA,NA,NA,NA,NA,NA,NA,NA,NA,NA,NA,NA,NA,NA,NA,NA,NA,NA,NA,NA
"292","stim/objects/HouseObjects/knife.png",259,20,252,0.9,"stim/64.jpeg",6,4,3,2,"HouseObjects",1,4,"left","left",0.782000065,1,1,1,0,NA,NA,NA,NA,NA,NA,NA,NA,NA,NA,NA,NA,NA,NA,NA,NA,NA,NA,NA,NA,NA,NA,NA,NA
"555","stim/objects/Instruments/timbal.png",260,20,253,0.5,"stim/22.jpeg",2,2,1,1,"Instruments",2,2,"right","left",0.832000017,0,0,1,0,150,20,1,0.5,2,"stim/22.jpeg",2,2,"stim/22.jpeg",2,"right",1.441999912,4,4,1.578999996,1,0.453999996,150,0,0,NA,0,NA,1
"451","stim/objects/Instruments/laud2.png",261,20,254,0.3,"stim/42.jpeg",4,2,2,1,"Instruments",2,3,"right","left",0.615999937,0,0,1,0,185,20,1,0.3,2,"stim/42.jpeg",4,2,"stim/42.jpeg",3,"right",2.589999914,1,2,2.225999832,3,1.029999733,185,0,1,NA,1,NA,1
"490","stim/objects/Instruments/musicsheet.png",262,20,255,0.9,"stim/52.jpeg",5,2,3,2,"Instruments",2,4,"right","right",0.675000191,1,1,1,0,NA,NA,NA,NA,NA,NA,NA,NA,NA,NA,NA,NA,NA,NA,NA,NA,NA,NA,NA,NA,NA,NA,NA,NA
"558","stim/objects/Instruments/triangle2.png",263,20,256,0.1,"stim/62.jpeg",6,2,3,1,"Instruments",2,2,"right","left",0.730999947,0,0,1,0,57,20,1,0.1,2,"stim/62.jpeg",6,2,"stim/62.jpeg",2,"left",0.864000082,3,1,2.064999819,1,0.595999956,57,1,0,0,0,0,1
"507","stim/objects/Instruments/musicstand.png",264,20,257,0.9,"stim/54.jpeg",5,4,3,2,"Instruments",2,3,"right","right",0.539999962,1,1,1,0,NA,NA,NA,NA,NA,NA,NA,NA,NA,NA,NA,NA,NA,NA,NA,NA,NA,NA,NA,NA,NA,NA,NA,NA
"564","stim/objects/Instruments/tuba2.png",265,20,258,0.1,"stim/61.jpeg",6,1,3,1,"Instruments",2,2,"right","left",0.571000099,0,0,1,0,199,20,1,0.1,2,"stim/61.jpeg",6,1,"stim/61.jpeg",2,"right",0.829999924,4,4,1.960999727,4,0.445999861,199,0,0,NA,0,NA,1
"423","stim/objects/Instruments/frenchhorn2.png",266,20,259,0.3,"stim/42.jpeg",4,2,2,1,"Instruments",2,1,"right","right",0.677999973,1,1,1,0,40,20,1,0.3,2,"stim/42.jpeg",4,2,"stim/42.jpeg",1,"right",1.052000046,4,3,4.066999912,1,1.048000097,40,0,0,NA,1,NA,1
"293","stim/objects/HouseObjects/knife.png",267,20,260,0.9,"stim/63.jpeg",6,3,3,2,"HouseObjects",1,2,"left","left",0.52699995,1,1,1,0,NA,NA,NA,NA,NA,NA,NA,NA,NA,NA,NA,NA,NA,NA,NA,NA,NA,NA,NA,NA,NA,NA,NA,NA
"448","stim/objects/Instruments/laud.png",268,20,261,0.7,"stim/34.jpeg",3,4,2,2,"Instruments",2,3,"right","right",0.513999939,1,1,1,0,NA,NA,NA,NA,NA,NA,NA,NA,NA,NA,NA,NA,NA,NA,NA,NA,NA,NA,NA,NA,NA,NA,NA,NA
"325","stim/objects/HouseObjects/match.png",269,20,262,0.9,"stim/63.jpeg",6,3,3,2,"HouseObjects",1,1,"left","left",0.883000135,1,1,1,0,NA,NA,NA,NA,NA,NA,NA,NA,NA,NA,NA,NA,NA,NA,NA,NA,NA,NA,NA,NA,NA,NA,NA,NA
"258","stim/objects/HouseObjects/flyswatter2.png",270,20,263,0.7,"stim/44.jpeg",4,4,2,1,"HouseObjects",1,1,"left","left",0.644999981,1,1,1,0,194,20,1,0.7,1,"stim/44.jpeg",4,4,"stim/44.jpeg",1,"left",0.934999704,4,1,1.737999916,4,1.521999836,194,1,0,0,0,0,1
"526","stim/objects/Instruments/oboe.png",271,20,264,0.9,"stim/51.jpeg",5,1,3,2,"Instruments",2,4,"right","right",0.50999999,1,1,1,0,NA,NA,NA,NA,NA,NA,NA,NA,NA,NA,NA,NA,NA,NA,NA,NA,NA,NA,NA,NA,NA,NA,NA,NA
"491","stim/objects/Instruments/musicsheet.png",272,20,265,0.9,"stim/53.jpeg",5,3,3,2,"Instruments",2,1,"right","right",0.535000086,1,1,1,0,NA,NA,NA,NA,NA,NA,NA,NA,NA,NA,NA,NA,NA,NA,NA,NA,NA,NA,NA,NA,NA,NA,NA,NA
"453","stim/objects/Instruments/maraca.png",273,20,266,0.7,"stim/34.jpeg",3,4,2,2,"Instruments",2,2,"right","right",0.774999857,1,1,1,0,NA,NA,NA,NA,NA,NA,NA,NA,NA,NA,NA,NA,NA,NA,NA,NA,NA,NA,NA,NA,NA,NA,NA,NA
"458","stim/objects/Instruments/marimba.png",274,20,267,0.9,"stim/51.jpeg",5,1,3,2,"Instruments",2,4,"right","right",0.595000029,1,1,1,0,NA,NA,NA,NA,NA,NA,NA,NA,NA,NA,NA,NA,NA,NA,NA,NA,NA,NA,NA,NA,NA,NA,NA,NA
"310","stim/objects/HouseObjects/lintroller.png",275,20,268,0.9,"stim/61.jpeg",6,1,3,2,"HouseObjects",1,4,"left","left",0.53399992,1,1,1,0,NA,NA,NA,NA,NA,NA,NA,NA,NA,NA,NA,NA,NA,NA,NA,NA,NA,NA,NA,NA,NA,NA,NA,NA
"307","stim/objects/HouseObjects/knife2.png",276,20,269,0.1,"stim/51.jpeg",5,1,3,1,"HouseObjects",1,3,"left","right",0.501999855,0,0,1,0,74,20,1,0.1,1,"stim/51.jpeg",5,1,"stim/51.jpeg",3,"right",0.895999908,3,2,3.559000015,3,1.132999897,74,0,0,NA,1,NA,1
"542","stim/objects/Instruments/panflute2.png",277,20,270,0.9,"stim/54.jpeg",5,4,3,1,"Instruments",2,3,"right","right",0.519000053,1,1,1,0,116,20,1,0.9,2,"stim/54.jpeg",5,4,"stim/54.jpeg",3,"right",2.843999863,4,3,2.136000156,3,0.826999903,116,0,0,NA,1,NA,1
"440","stim/objects/Instruments/hihat.png",278,20,271,0.7,"stim/34.jpeg",3,4,2,2,"Instruments",2,4,"right","right",0.506000042,1,1,1,0,NA,NA,NA,NA,NA,NA,NA,NA,NA,NA,NA,NA,NA,NA,NA,NA,NA,NA,NA,NA,NA,NA,NA,NA
"508","stim/objects/Instruments/musicstand.png",279,20,272,0.9,"stim/52.jpeg",5,2,3,2,"Instruments",2,3,"right","right",0.523999929,1,1,1,0,NA,NA,NA,NA,NA,NA,NA,NA,NA,NA,NA,NA,NA,NA,NA,NA,NA,NA,NA,NA,NA,NA,NA,NA
"294","stim/objects/HouseObjects/knife.png",280,20,273,0.9,"stim/61.jpeg",6,1,3,2,"HouseObjects",1,2,"left","left",0.458999872,1,1,1,0,NA,NA,NA,NA,NA,NA,NA,NA,NA,NA,NA,NA,NA,NA,NA,NA,NA,NA,NA,NA,NA,NA,NA,NA
"344","stim/objects/HouseObjects/pan.png",281,20,274,0.9,"stim/61.jpeg",6,1,3,2,"HouseObjects",1,1,"left","left",0.535000086,1,1,1,0,NA,NA,NA,NA,NA,NA,NA,NA,NA,NA,NA,NA,NA,NA,NA,NA,NA,NA,NA,NA,NA,NA,NA,NA
"249","stim/objects/HouseObjects/dishsoap2.png",282,20,275,0.3,"stim/34.jpeg",3,4,2,1,"HouseObjects",1,1,"left","left",0.615999937,1,1,1,0,106,20,1,0.3,1,"stim/34.jpeg",3,4,"stim/34.jpeg",1,"left",2.81799984,4,4,2.575999975,4,0.979999781,106,1,1,1,0,0,1
"380","stim/objects/HouseObjects/rubbergloves.png",283,20,276,0.5,"stim/11.jpeg",1,1,1,1,"HouseObjects",1,4,"left","left",0.618999958,1,1,1,0,120,20,1,0.5,1,"stim/11.jpeg",1,1,"stim/11.jpeg",4,"left",1.24000001,4,4,5.319999933,3,1.056999922,120,1,0,0,0,0,1
"326","stim/objects/HouseObjects/match.png",284,20,277,0.9,"stim/61.jpeg",6,1,3,2,"HouseObjects",1,2,"left","left",0.806999922,1,1,1,0,NA,NA,NA,NA,NA,NA,NA,NA,NA,NA,NA,NA,NA,NA,NA,NA,NA,NA,NA,NA,NA,NA,NA,NA
"345","stim/objects/HouseObjects/pan.png",285,20,278,0.9,"stim/64.jpeg",6,4,3,2,"HouseObjects",1,4,"left","left",0.761000156,1,1,1,0,NA,NA,NA,NA,NA,NA,NA,NA,NA,NA,NA,NA,NA,NA,NA,NA,NA,NA,NA,NA,NA,NA,NA,NA
"271","stim/objects/HouseObjects/handbrush.png",286,20,279,0.7,"stim/42.jpeg",4,2,2,2,"HouseObjects",1,4,"left","left",0.846000195,1,1,1,0,NA,NA,NA,NA,NA,NA,NA,NA,NA,NA,NA,NA,NA,NA,NA,NA,NA,NA,NA,NA,NA,NA,NA,NA
"261","stim/objects/HouseObjects/garbagebin2.png",287,20,280,0.7,"stim/41.jpeg",4,1,2,1,"HouseObjects",1,1,"left","left",0.743000031,1,1,1,0,148,20,1,0.7,1,"stim/41.jpeg",4,1,"stim/41.jpeg",1,"left",1.032999754,4,4,4.31799984,4,0.59499979,148,1,0,0,0,0,1
"459","stim/objects/Instruments/marimba.png",288,20,281,0.9,"stim/53.jpeg",5,3,3,2,"Instruments",2,3,"right","right",0.654999971,1,1,1,0,NA,NA,NA,NA,NA,NA,NA,NA,NA,NA,NA,NA,NA,NA,NA,NA,NA,NA,NA,NA,NA,NA,NA,NA
"346","stim/objects/HouseObjects/pan.png",289,20,282,0.9,"stim/64.jpeg",6,4,3,2,"HouseObjects",1,1,"left","left",0.717999935,1,1,1,0,NA,NA,NA,NA,NA,NA,NA,NA,NA,NA,NA,NA,NA,NA,NA,NA,NA,NA,NA,NA,NA,NA,NA,NA
"551","stim/objects/Instruments/speaker.png",290,20,283,0.5,"stim/24.jpeg",2,4,1,1,"Instruments",2,1,"right","left",0.909999847,0,0,1,0,82,20,1,0.5,2,"stim/24.jpeg",2,4,"stim/24.jpeg",1,"left",0.923000097,4,2,4.503999949,3,0.726999998,82,1,0,0,0,0,1
"279","stim/objects/HouseObjects/iron.png",291,20,284,0.7,"stim/43.jpeg",4,3,2,2,"HouseObjects",1,3,"left","left",0.749000072,1,1,1,0,NA,NA,NA,NA,NA,NA,NA,NA,NA,NA,NA,NA,NA,NA,NA,NA,NA,NA,NA,NA,NA,NA,NA,NA
"528","stim/objects/Instruments/oboe.png",292,20,285,0.9,"stim/51.jpeg",5,1,3,2,"Instruments",2,3,"right","right",0.567000151,1,1,1,0,NA,NA,NA,NA,NA,NA,NA,NA,NA,NA,NA,NA,NA,NA,NA,NA,NA,NA,NA,NA,NA,NA,NA,NA
"387","stim/objects/HouseObjects/saw2.png",293,20,286,0.9,"stim/61.jpeg",6,1,3,1,"HouseObjects",1,1,"left","left",0.55099988,1,1,1,0,35,20,1,0.9,1,"stim/61.jpeg",6,1,"stim/61.jpeg",1,"left",1.198999882,3,2,2.35199976,3,1.26699996,35,1,0,0,0,0,1
"441","stim/objects/Instruments/hihat.png",294,20,287,0.7,"stim/32.jpeg",3,2,2,2,"Instruments",2,2,"right","right",0.484999895,1,1,1,0,NA,NA,NA,NA,NA,NA,NA,NA,NA,NA,NA,NA,NA,NA,NA,NA,NA,NA,NA,NA,NA,NA,NA,NA
"418","stim/objects/Instruments/flutetrans.png",295,20,288,0.5,"stim/11.jpeg",1,1,1,2,"Instruments",2,3,"right","left",0.601999998,0,0,1,0,NA,NA,NA,NA,NA,NA,NA,NA,NA,NA,NA,NA,NA,NA,NA,NA,NA,NA,NA,NA,NA,NA,NA,NA
"447","stim/objects/Instruments/keyboard2.png",296,20,289,0.3,"stim/41.jpeg",4,1,2,1,"Instruments",2,4,"right","left",0.630000114,0,0,1,0,64,20,1,0.3,2,"stim/41.jpeg",4,1,"stim/41.jpeg",4,"right",1.089999914,3,3,2.676999807,4,1.14199996,64,0,0,NA,1,NA,1
"421","stim/objects/Instruments/frenchhorn.png",297,20,290,0.5,"stim/22.jpeg",2,2,1,2,"Instruments",2,4,"right","left",0.914000034,0,0,1,0,NA,NA,NA,NA,NA,NA,NA,NA,NA,NA,NA,NA,NA,NA,NA,NA,NA,NA,NA,NA,NA,NA,NA,NA
"509","stim/objects/Instruments/musicstand.png",298,20,291,0.9,"stim/53.jpeg",5,3,3,2,"Instruments",2,2,"right","right",0.503000021,1,1,1,0,NA,NA,NA,NA,NA,NA,NA,NA,NA,NA,NA,NA,NA,NA,NA,NA,NA,NA,NA,NA,NA,NA,NA,NA
"510","stim/objects/Instruments/musicstand.png",299,20,292,0.9,"stim/53.jpeg",5,3,3,2,"Instruments",2,4,"right","right",0.602999926,1,1,1,0,NA,NA,NA,NA,NA,NA,NA,NA,NA,NA,NA,NA,NA,NA,NA,NA,NA,NA,NA,NA,NA,NA,NA,NA
"363","stim/objects/HouseObjects/pitcher.png",300,20,293,0.9,"stim/62.jpeg",6,2,3,2,"HouseObjects",1,4,"left","left",0.680999994,1,1,1,0,NA,NA,NA,NA,NA,NA,NA,NA,NA,NA,NA,NA,NA,NA,NA,NA,NA,NA,NA,NA,NA,NA,NA,NA
"272","stim/objects/HouseObjects/handbrush.png",301,20,294,0.7,"stim/43.jpeg",4,3,2,2,"HouseObjects",1,2,"left","left",0.640000105,1,1,1,0,NA,NA,NA,NA,NA,NA,NA,NA,NA,NA,NA,NA,NA,NA,NA,NA,NA,NA,NA,NA,NA,NA,NA,NA
"358","stim/objects/HouseObjects/pan2.png",302,20,295,0.1,"stim/54.jpeg",5,4,3,1,"HouseObjects",1,3,"left","right",0.661999941,0,0,1,0,68,20,1,0.1,1,"stim/54.jpeg",5,4,"stim/54.jpeg",3,"left",7.895999908,4,4,18.56999993,3,0.881999731,68,1,1,1,1,1,1
"265","stim/objects/HouseObjects/glassmop.png",303,20,296,0.5,"stim/23.jpeg",2,3,1,2,"HouseObjects",1,3,"left","left",0.717000008,1,1,1,0,NA,NA,NA,NA,NA,NA,NA,NA,NA,NA,NA,NA,NA,NA,NA,NA,NA,NA,NA,NA,NA,NA,NA,NA
"403","stim/objects/HouseObjects/vacuumcleaner2.png",304,20,297,0.9,"stim/61.jpeg",6,1,3,1,"HouseObjects",1,1,"left","left",0.835999966,1,1,1,0,2,20,1,0.9,1,"stim/61.jpeg",6,1,"stim/61.jpeg",1,"left",2.592999935,4,2,5.839999914,1,1.345000029,2,1,0,0,1,1,1
"411","stim/objects/Instruments/electricdrumset2.png",305,20,298,0.7,"stim/34.jpeg",3,4,2,1,"Instruments",2,1,"right","right",0.631000042,1,1,1,0,1,20,1,0.7,2,"stim/34.jpeg",3,4,"stim/34.jpeg",1,"left",1.667999983,4,1,12.046,2,3.928999901,1,1,0,0,0,0,1
"530","stim/objects/Instruments/oboe.png",306,20,299,0.9,"stim/54.jpeg",5,4,3,2,"Instruments",2,1,"right","right",0.670000076,1,1,1,0,NA,NA,NA,NA,NA,NA,NA,NA,NA,NA,NA,NA,NA,NA,NA,NA,NA,NA,NA,NA,NA,NA,NA,NA
"259","stim/objects/HouseObjects/garbagebin.png",307,20,300,0.5,"stim/24.jpeg",2,4,1,2,"HouseObjects",1,4,"left","right",0.773000002,0,0,1,0,NA,NA,NA,NA,NA,NA,NA,NA,NA,NA,NA,NA,NA,NA,NA,NA,NA,NA,NA,NA,NA,NA,NA,NA
"568","stim/objects/Instruments/vuvuzela2.png",308,20,301,0.1,"stim/63.jpeg",6,3,3,1,"Instruments",2,2,"right","left",0.845000029,0,0,1,0,126,20,1,0.1,2,"stim/63.jpeg",6,3,"stim/63.jpeg",2,"right",0.797999859,4,2,1.368000031,1,0.78399992,126,0,0,NA,0,NA,1
"257","stim/objects/HouseObjects/flyswatter.png",309,20,302,0.5,"stim/24.jpeg",2,4,1,2,"HouseObjects",1,2,"left","",NA,0,0,1,0,NA,NA,NA,NA,NA,NA,NA,NA,NA,NA,NA,NA,NA,NA,NA,NA,NA,NA,NA,NA,NA,NA,NA,NA
"329","stim/objects/HouseObjects/match.png",310,20,303,0.9,"stim/64.jpeg",6,4,3,2,"HouseObjects",1,3,"left","left",0.663999796,1,1,1,0,NA,NA,NA,NA,NA,NA,NA,NA,NA,NA,NA,NA,NA,NA,NA,NA,NA,NA,NA,NA,NA,NA,NA,NA
"283","stim/objects/HouseObjects/ironingboard.png",311,20,304,0.7,"stim/42.jpeg",4,2,2,2,"HouseObjects",1,1,"left","left",0.537000179,1,1,1,0,NA,NA,NA,NA,NA,NA,NA,NA,NA,NA,NA,NA,NA,NA,NA,NA,NA,NA,NA,NA,NA,NA,NA,NA
"511","stim/objects/Instruments/musicstand.png",312,20,305,0.9,"stim/53.jpeg",5,3,3,2,"Instruments",2,3,"right","right",0.640000105,1,1,1,0,NA,NA,NA,NA,NA,NA,NA,NA,NA,NA,NA,NA,NA,NA,NA,NA,NA,NA,NA,NA,NA,NA,NA,NA
"312","stim/objects/HouseObjects/lintroller.png",313,20,306,0.9,"stim/64.jpeg",6,4,3,2,"HouseObjects",1,2,"left","left",0.67599988,1,1,1,0,NA,NA,NA,NA,NA,NA,NA,NA,NA,NA,NA,NA,NA,NA,NA,NA,NA,NA,NA,NA,NA,NA,NA,NA
"512","stim/objects/Instruments/musicstand.png",314,20,307,0.9,"stim/53.jpeg",5,3,3,2,"Instruments",2,1,"right","right",0.559000015,1,1,1,0,NA,NA,NA,NA,NA,NA,NA,NA,NA,NA,NA,NA,NA,NA,NA,NA,NA,NA,NA,NA,NA,NA,NA,NA
"455","stim/objects/Instruments/maraca2.png",315,20,308,0.3,"stim/43.jpeg",4,3,2,1,"Instruments",2,2,"right","left",0.559000015,0,0,1,0,27,20,1,0.3,2,"stim/43.jpeg",4,3,"stim/43.jpeg",2,"left",0.900999784,4,4,2.320999861,4,0.920000076,27,1,0,0,0,0,1
"270","stim/objects/HouseObjects/hairdryer2.png",316,20,309,0.7,"stim/44.jpeg",4,4,2,1,"HouseObjects",1,3,"left","left",0.640999794,1,1,1,0,48,20,1,0.7,1,"stim/44.jpeg",4,4,"stim/44.jpeg",3,"left",1.021999836,4,3,1.803999901,4,0.88499999,48,1,0,0,0,0,1
"424","stim/objects/Instruments/gong.png",317,20,310,0.5,"stim/24.jpeg",2,4,1,2,"Instruments",2,2,"right","left",0.687999964,0,0,1,0,NA,NA,NA,NA,NA,NA,NA,NA,NA,NA,NA,NA,NA,NA,NA,NA,NA,NA,NA,NA,NA,NA,NA,NA
"275","stim/objects/HouseObjects/handvacuum.png",318,20,311,0.7,"stim/44.jpeg",4,4,2,2,"HouseObjects",1,2,"left","left",0.67599988,1,1,1,0,NA,NA,NA,NA,NA,NA,NA,NA,NA,NA,NA,NA,NA,NA,NA,NA,NA,NA,NA,NA,NA,NA,NA,NA
"475","stim/objects/Instruments/metronome.png",319,20,312,0.9,"stim/51.jpeg",5,1,3,2,"Instruments",2,1,"right","right",0.459000111,1,1,1,0,NA,NA,NA,NA,NA,NA,NA,NA,NA,NA,NA,NA,NA,NA,NA,NA,NA,NA,NA,NA,NA,NA,NA,NA
"493","stim/objects/Instruments/musicsheet.png",320,20,313,0.9,"stim/52.jpeg",5,2,3,2,"Instruments",2,4,"right","right",0.603000164,1,1,1,0,NA,NA,NA,NA,NA,NA,NA,NA,NA,NA,NA,NA,NA,NA,NA,NA,NA,NA,NA,NA,NA,NA,NA,NA
"494","stim/objects/Instruments/musicsheet.png",321,20,314,0.9,"stim/52.jpeg",5,2,3,2,"Instruments",2,2,"right","right",0.460000038,1,1,1,0,NA,NA,NA,NA,NA,NA,NA,NA,NA,NA,NA,NA,NA,NA,NA,NA,NA,NA,NA,NA,NA,NA,NA,NA
"432","stim/objects/Instruments/guitarcase2.png",322,20,315,0.3,"stim/41.jpeg",4,1,2,1,"Instruments",2,4,"right","left",0.555000067,0,0,1,0,4,20,1,0.3,2,"stim/41.jpeg",4,1,"stim/41.jpeg",4,"right",3.367000103,3,4,5.872999907,1,3.583999872,4,0,0,NA,0,NA,1
"569","stim/objects/Instruments/xylophone.png",323,20,316,0.7,"stim/32.jpeg",3,2,2,1,"Instruments",2,2,"right","right",0.511000156,1,1,1,0,127,20,1,0.7,2,"stim/32.jpeg",3,2,"stim/32.jpeg",2,"right",0.905999899,2,1,2.248999834,3,1.261999846,127,0,0,NA,0,NA,1
"366","stim/objects/HouseObjects/pitcher.png",324,20,317,0.9,"stim/61.jpeg",6,1,3,2,"HouseObjects",1,1,"left","left",0.520999908,1,1,1,0,NA,NA,NA,NA,NA,NA,NA,NA,NA,NA,NA,NA,NA,NA,NA,NA,NA,NA,NA,NA,NA,NA,NA,NA
"367","stim/objects/HouseObjects/pitcher.png",325,20,318,0.9,"stim/62.jpeg",6,2,3,2,"HouseObjects",1,4,"left","left",0.572000027,1,1,1,0,NA,NA,NA,NA,NA,NA,NA,NA,NA,NA,NA,NA,NA,NA,NA,NA,NA,NA,NA,NA,NA,NA,NA,NA
"547","stim/objects/Instruments/record.png",326,20,319,0.5,"stim/14.jpeg",1,4,1,1,"Instruments",2,1,"right","left",0.741999865,0,0,1,0,38,20,1,0.5,1,"stim/14.jpeg",1,4,"stim/14.jpeg",1,"left",0.840999842,4,1,2.814999819,3,1.517999887,38,1,0,0,0,0,1
"513","stim/objects/Instruments/musicstand.png",327,20,320,0.9,"stim/51.jpeg",5,1,3,2,"Instruments",2,4,"right","right",0.503999949,1,1,1,0,NA,NA,NA,NA,NA,NA,NA,NA,NA,NA,NA,NA,NA,NA,NA,NA,NA,NA,NA,NA,NA,NA,NA,NA
"384","stim/objects/HouseObjects/safetypin.png",328,20,321,0.5,"stim/13.jpeg",1,3,1,1,"HouseObjects",1,1,"left","right",0.557999849,0,0,1,0,86,20,1,0.5,1,"stim/13.jpeg",1,3,"stim/13.jpeg",1,"left",0.948999882,3,3,4.324999809,1,0.523000002,86,1,1,1,1,1,1
"439","stim/objects/Instruments/harp2.png",329,20,322,0.3,"stim/43.jpeg",4,3,2,1,"Instruments",2,4,"right","left",0.911999941,0,0,1,0,97,20,1,0.3,2,"stim/43.jpeg",4,3,"stim/43.jpeg",4,"left",1.720000029,2,1,0.762999773,1,0.298999786,97,1,0,0,0,0,1
"531","stim/objects/Instruments/oboe.png",330,20,323,0.9,"stim/53.jpeg",5,3,3,2,"Instruments",2,3,"right","left",0.638999939,0,0,1,0,NA,NA,NA,NA,NA,NA,NA,NA,NA,NA,NA,NA,NA,NA,NA,NA,NA,NA,NA,NA,NA,NA,NA,NA
"514","stim/objects/Instruments/musicstand.png",331,20,324,0.9,"stim/54.jpeg",5,4,3,2,"Instruments",2,3,"right","right",0.467999935,1,1,1,0,NA,NA,NA,NA,NA,NA,NA,NA,NA,NA,NA,NA,NA,NA,NA,NA,NA,NA,NA,NA,NA,NA,NA,NA
"435","stim/objects/Instruments/harmonica2.png",332,20,325,0.3,"stim/42.jpeg",4,2,2,1,"Instruments",2,2,"right","right",0.471999884,1,1,1,0,41,20,1,0.3,2,"stim/42.jpeg",4,2,"stim/42.jpeg",2,"left",1.192000151,4,2,4.509000063,2,2.666999817,41,1,1,1,1,1,1
"330","stim/objects/HouseObjects/match.png",333,20,326,0.9,"stim/62.jpeg",6,2,3,2,"HouseObjects",1,1,"left","left",0.662999868,1,1,1,0,NA,NA,NA,NA,NA,NA,NA,NA,NA,NA,NA,NA,NA,NA,NA,NA,NA,NA,NA,NA,NA,NA,NA,NA
"515","stim/objects/Instruments/musicstand.png",334,20,327,0.9,"stim/52.jpeg",5,2,3,2,"Instruments",2,3,"right","right",0.588999987,1,1,1,0,NA,NA,NA,NA,NA,NA,NA,NA,NA,NA,NA,NA,NA,NA,NA,NA,NA,NA,NA,NA,NA,NA,NA,NA
"516","stim/objects/Instruments/musicstand.png",335,20,328,0.9,"stim/51.jpeg",5,1,3,2,"Instruments",2,3,"right","right",0.519999981,1,1,1,0,NA,NA,NA,NA,NA,NA,NA,NA,NA,NA,NA,NA,NA,NA,NA,NA,NA,NA,NA,NA,NA,NA,NA,NA
"395","stim/objects/HouseObjects/teapot2.png",336,20,329,0.9,"stim/61.jpeg",6,1,3,1,"HouseObjects",1,1,"left","left",0.54399991,1,1,1,0,54,20,1,0.9,1,"stim/61.jpeg",6,1,"stim/61.jpeg",1,"right",0.854999781,2,3,2.210999966,3,2.660000086,54,0,0,NA,0,NA,1
"405","stim/objects/HouseObjects/wateringcan2.png",337,20,330,0.9,"stim/62.jpeg",6,2,3,1,"HouseObjects",1,4,"left","left",0.551000118,1,1,1,0,122,20,1,0.9,1,"stim/62.jpeg",6,2,"stim/62.jpeg",4,"right",1.05099988,4,1,1.91899991,4,0.595000029,122,0,0,NA,1,NA,1
"408","stim/objects/Instruments/drums2.png",338,20,331,0.7,"stim/33.jpeg",3,3,2,1,"Instruments",2,1,"right","right",0.517999887,1,1,1,0,79,20,1,0.7,2,"stim/33.jpeg",3,3,"stim/33.jpeg",1,"right",1.055999994,2,3,2.504999876,1,1.582999945,79,0,1,NA,1,NA,1
"460","stim/objects/Instruments/marimba.png",339,20,332,0.9,"stim/51.jpeg",5,1,3,2,"Instruments",2,3,"right","right",0.493999958,1,1,1,0,NA,NA,NA,NA,NA,NA,NA,NA,NA,NA,NA,NA,NA,NA,NA,NA,NA,NA,NA,NA,NA,NA,NA,NA
"389","stim/objects/HouseObjects/scale2.png",340,20,333,0.9,"stim/62.jpeg",6,2,3,1,"HouseObjects",1,3,"left","left",0.503999949,1,1,1,0,176,20,1,0.9,1,"stim/62.jpeg",6,2,"stim/62.jpeg",3,"left",0.964999914,4,3,3.358999968,1,0.389999866,176,1,0,0,0,0,1
"368","stim/objects/HouseObjects/pitcher.png",341,20,334,0.9,"stim/61.jpeg",6,1,3,2,"HouseObjects",1,3,"left","left",0.559000015,1,1,1,0,NA,NA,NA,NA,NA,NA,NA,NA,NA,NA,NA,NA,NA,NA,NA,NA,NA,NA,NA,NA,NA,NA,NA,NA
"268","stim/objects/HouseObjects/hairdryer.png",342,20,335,0.5,"stim/23.jpeg",2,3,1,2,"HouseObjects",1,4,"left","left",0.644999981,1,1,1,0,NA,NA,NA,NA,NA,NA,NA,NA,NA,NA,NA,NA,NA,NA,NA,NA,NA,NA,NA,NA,NA,NA,NA,NA
"532","stim/objects/Instruments/oboe.png",343,20,336,0.9,"stim/52.jpeg",5,2,3,2,"Instruments",2,2,"right","right",0.561000109,1,1,1,0,NA,NA,NA,NA,NA,NA,NA,NA,NA,NA,NA,NA,NA,NA,NA,NA,NA,NA,NA,NA,NA,NA,NA,NA
"433","stim/objects/Instruments/harmonica.png",344,20,337,0.5,"stim/23.jpeg",2,3,1,2,"Instruments",2,1,"right","left",0.575999975,0,0,1,0,NA,NA,NA,NA,NA,NA,NA,NA,NA,NA,NA,NA,NA,NA,NA,NA,NA,NA,NA,NA,NA,NA,NA,NA
"461","stim/objects/Instruments/marimba.png",345,20,338,0.9,"stim/52.jpeg",5,2,3,2,"Instruments",2,3,"right","right",0.5,1,1,1,0,NA,NA,NA,NA,NA,NA,NA,NA,NA,NA,NA,NA,NA,NA,NA,NA,NA,NA,NA,NA,NA,NA,NA,NA
"412","stim/objects/Instruments/electricguitar.png",346,20,339,0.5,"stim/12.jpeg",1,2,1,2,"Instruments",2,2,"right","left",0.664000034,0,0,1,0,NA,NA,NA,NA,NA,NA,NA,NA,NA,NA,NA,NA,NA,NA,NA,NA,NA,NA,NA,NA,NA,NA,NA,NA
"243","stim/objects/HouseObjects/coffee2.png",347,20,340,0.3,"stim/32.jpeg",3,2,2,1,"HouseObjects",1,2,"left","right",0.713000059,0,0,1,0,187,20,1,0.3,1,"stim/32.jpeg",3,2,"stim/32.jpeg",2,"left",1.149999857,2,2,1.005000114,4,0.961999893,187,1,1,1,0,0,1
"462","stim/objects/Instruments/marimba.png",348,20,341,0.9,"stim/54.jpeg",5,4,3,2,"Instruments",2,4,"right","right",0.484000206,1,1,1,0,NA,NA,NA,NA,NA,NA,NA,NA,NA,NA,NA,NA,NA,NA,NA,NA,NA,NA,NA,NA,NA,NA,NA,NA
"331","stim/objects/HouseObjects/match.png",349,20,342,0.9,"stim/61.jpeg",6,1,3,2,"HouseObjects",1,3,"left","left",0.49000001,1,1,1,0,NA,NA,NA,NA,NA,NA,NA,NA,NA,NA,NA,NA,NA,NA,NA,NA,NA,NA,NA,NA,NA,NA,NA,NA
"347","stim/objects/HouseObjects/pan.png",350,20,343,0.9,"stim/61.jpeg",6,1,3,2,"HouseObjects",1,1,"left","left",0.559000015,1,1,1,0,NA,NA,NA,NA,NA,NA,NA,NA,NA,NA,NA,NA,NA,NA,NA,NA,NA,NA,NA,NA,NA,NA,NA,NA
"242","stim/objects/HouseObjects/coffee.png",351,20,344,0.5,"stim/12.jpeg",1,2,1,2,"HouseObjects",1,3,"left","right",0.674999952,0,0,1,0,NA,NA,NA,NA,NA,NA,NA,NA,NA,NA,NA,NA,NA,NA,NA,NA,NA,NA,NA,NA,NA,NA,NA,NA
"397","stim/objects/HouseObjects/thermometer2.png",352,20,345,0.9,"stim/62.jpeg",6,2,3,1,"HouseObjects",1,2,"left","left",0.562999964,1,1,1,0,45,20,1,0.9,1,"stim/62.jpeg",6,2,"stim/62.jpeg",2,"right",1.194999933,2,4,2.352999926,4,0.708999872,45,0,0,NA,0,NA,1
"377","stim/objects/HouseObjects/recyclingbin2.png",353,20,346,0.1,"stim/52.jpeg",5,2,3,1,"HouseObjects",1,3,"left","right",0.491999865,0,0,1,0,91,20,1,0.1,1,"stim/52.jpeg",5,2,"stim/52.jpeg",3,"right",0.996999979,3,4,0.766000032,1,0.694999933,91,0,0,NA,0,NA,1
"369","stim/objects/HouseObjects/pitcher.png",354,20,347,0.9,"stim/64.jpeg",6,4,3,2,"HouseObjects",1,3,"left","left",0.713999987,1,1,1,0,NA,NA,NA,NA,NA,NA,NA,NA,NA,NA,NA,NA,NA,NA,NA,NA,NA,NA,NA,NA,NA,NA,NA,NA
"445","stim/objects/Instruments/keyboard.png",355,20,348,0.7,"stim/31.jpeg",3,1,2,2,"Instruments",2,3,"right","right",0.572999954,1,1,1,0,NA,NA,NA,NA,NA,NA,NA,NA,NA,NA,NA,NA,NA,NA,NA,NA,NA,NA,NA,NA,NA,NA,NA,NA
"442","stim/objects/Instruments/hihat.png",356,20,349,0.7,"stim/31.jpeg",3,1,2,2,"Instruments",2,4,"right","right",0.562999964,1,1,1,0,NA,NA,NA,NA,NA,NA,NA,NA,NA,NA,NA,NA,NA,NA,NA,NA,NA,NA,NA,NA,NA,NA,NA,NA
"364","stim/objects/HouseObjects/pitcher.png",357,20,350,0.9,"stim/62.jpeg",6,2,3,2,"HouseObjects",1,3,"left","left",0.528000116,1,1,1,0,NA,NA,NA,NA,NA,NA,NA,NA,NA,NA,NA,NA,NA,NA,NA,NA,NA,NA,NA,NA,NA,NA,NA,NA
"565","stim/objects/Instruments/violin.png",358,20,351,0.7,"stim/34.jpeg",3,4,2,1,"Instruments",2,4,"right","right",0.60800004,1,1,1,0,63,20,1,0.7,2,"stim/34.jpeg",3,4,"stim/34.jpeg",4,"left",0.978999853,3,1,1.638000011,1,0.625,63,1,0,0,0,0,1
"479","stim/objects/Instruments/metronome.png",359,20,352,0.9,"stim/51.jpeg",5,1,3,2,"Instruments",2,1,"right","right",0.483999968,1,1,1,0,NA,NA,NA,NA,NA,NA,NA,NA,NA,NA,NA,NA,NA,NA,NA,NA,NA,NA,NA,NA,NA,NA,NA,NA
"383","stim/objects/HouseObjects/rug2.png",360,20,353,0.1,"stim/51.jpeg",5,1,3,1,"HouseObjects",1,2,"left","right",0.463999987,0,0,1,0,94,20,1,0.1,1,"stim/51.jpeg",5,1,"stim/51.jpeg",2,"right",0.81099987,4,4,0.677000046,2,0.863999844,94,0,0,NA,1,NA,1
"463","stim/objects/Instruments/marimba.png",361,20,354,0.9,"stim/54.jpeg",5,4,3,2,"Instruments",2,3,"right","right",0.710000038,1,1,1,0,NA,NA,NA,NA,NA,NA,NA,NA,NA,NA,NA,NA,NA,NA,NA,NA,NA,NA,NA,NA,NA,NA,NA,NA
"313","stim/objects/HouseObjects/lintroller.png",362,20,355,0.9,"stim/62.jpeg",6,2,3,2,"HouseObjects",1,3,"left","left",0.506000042,1,1,1,0,NA,NA,NA,NA,NA,NA,NA,NA,NA,NA,NA,NA,NA,NA,NA,NA,NA,NA,NA,NA,NA,NA,NA,NA
"370","stim/objects/HouseObjects/pitcher.png",363,20,356,0.9,"stim/61.jpeg",6,1,3,2,"HouseObjects",1,3,"left","left",0.523999929,1,1,1,0,NA,NA,NA,NA,NA,NA,NA,NA,NA,NA,NA,NA,NA,NA,NA,NA,NA,NA,NA,NA,NA,NA,NA,NA
"533","stim/objects/Instruments/oboe.png",364,20,357,0.9,"stim/54.jpeg",5,4,3,2,"Instruments",2,2,"right","right",0.450000048,1,1,1,0,NA,NA,NA,NA,NA,NA,NA,NA,NA,NA,NA,NA,NA,NA,NA,NA,NA,NA,NA,NA,NA,NA,NA,NA
"332","stim/objects/HouseObjects/match.png",365,20,358,0.9,"stim/64.jpeg",6,4,3,2,"HouseObjects",1,4,"left","left",0.531000137,1,1,1,0,NA,NA,NA,NA,NA,NA,NA,NA,NA,NA,NA,NA,NA,NA,NA,NA,NA,NA,NA,NA,NA,NA,NA,NA
"316","stim/objects/HouseObjects/lintroller.png",366,20,359,0.9,"stim/62.jpeg",6,2,3,2,"HouseObjects",1,2,"left","left",0.584000111,1,1,1,0,NA,NA,NA,NA,NA,NA,NA,NA,NA,NA,NA,NA,NA,NA,NA,NA,NA,NA,NA,NA,NA,NA,NA,NA
"436","stim/objects/Instruments/harp.png",367,20,360,0.7,"stim/34.jpeg",3,4,2,2,"Instruments",2,2,"right","right",0.486000061,1,1,1,0,NA,NA,NA,NA,NA,NA,NA,NA,NA,NA,NA,NA,NA,NA,NA,NA,NA,NA,NA,NA,NA,NA,NA,NA
"317","stim/objects/HouseObjects/lintroller.png",368,20,361,0.9,"stim/61.jpeg",6,1,3,2,"HouseObjects",1,2,"left","left",0.566999912,1,1,1,0,NA,NA,NA,NA,NA,NA,NA,NA,NA,NA,NA,NA,NA,NA,NA,NA,NA,NA,NA,NA,NA,NA,NA,NA
"297","stim/objects/HouseObjects/knife.png",369,20,362,0.9,"stim/64.jpeg",6,4,3,2,"HouseObjects",1,2,"left","right",0.394000053,0,0,1,0,NA,NA,NA,NA,NA,NA,NA,NA,NA,NA,NA,NA,NA,NA,NA,NA,NA,NA,NA,NA,NA,NA,NA,NA
"402","stim/objects/HouseObjects/vacuumcleaner.png",370,20,363,0.3,"stim/34.jpeg",3,4,2,1,"HouseObjects",1,3,"left","right",0.555000067,0,0,1,0,84,20,1,0.3,1,"stim/34.jpeg",3,4,"stim/34.jpeg",3,"right",0.73699975,3,1,0.809999943,1,0.513999939,84,0,0,NA,0,NA,1
"393","stim/objects/HouseObjects/spraybottle2.png",371,20,364,0.9,"stim/64.jpeg",6,4,3,1,"HouseObjects",1,4,"left","left",0.527999878,1,1,1,0,171,20,1,0.9,1,"stim/64.jpeg",6,4,"stim/64.jpeg",4,"right",1.292999983,3,3,2.296999931,2,1.776999712,171,0,0,NA,0,NA,1
"308","stim/objects/HouseObjects/lintroller.png",372,20,365,0.9,"stim/63.jpeg",6,3,3,2,"HouseObjects",1,2,"left","left",0.509000063,1,1,1,0,NA,NA,NA,NA,NA,NA,NA,NA,NA,NA,NA,NA,NA,NA,NA,NA,NA,NA,NA,NA,NA,NA,NA,NA
"570","stim/objects/Instruments/xylophone2.png",373,20,366,0.1,"stim/64.jpeg",6,4,3,1,"Instruments",2,4,"right","left",0.561000109,0,0,1,0,34,20,1,0.1,2,"stim/64.jpeg",6,4,"stim/64.jpeg",4,"right",0.934999943,4,4,1.54399991,1,0.847999811,34,0,1,NA,0,NA,1
"309","stim/objects/HouseObjects/lintroller.png",374,20,367,0.9,"stim/64.jpeg",6,4,3,2,"HouseObjects",1,3,"left","left",0.431999922,1,1,1,0,NA,NA,NA,NA,NA,NA,NA,NA,NA,NA,NA,NA,NA,NA,NA,NA,NA,NA,NA,NA,NA,NA,NA,NA
"262","stim/objects/HouseObjects/glass.png",375,20,368,0.5,"stim/22.jpeg",2,2,1,2,"HouseObjects",1,4,"left","left",0.639999866,1,1,1,0,NA,NA,NA,NA,NA,NA,NA,NA,NA,NA,NA,NA,NA,NA,NA,NA,NA,NA,NA,NA,NA,NA,NA,NA
"324","stim/objects/HouseObjects/lintroller2.png",376,20,369,0.1,"stim/52.jpeg",5,2,3,1,"HouseObjects",1,3,"left","right",0.502000093,0,0,1,0,173,20,1,0.1,1,"stim/52.jpeg",5,2,"stim/52.jpeg",3,"right",0.769999743,4,1,0.660000086,1,0.363999844,173,0,0,NA,0,NA,1
"425","stim/objects/Instruments/gong.png",377,20,370,0.5,"stim/23.jpeg",2,3,1,2,"Instruments",2,2,"right","left",0.89199996,0,0,1,0,NA,NA,NA,NA,NA,NA,NA,NA,NA,NA,NA,NA,NA,NA,NA,NA,NA,NA,NA,NA,NA,NA,NA,NA
"291","stim/objects/HouseObjects/knife.png",378,20,371,0.9,"stim/63.jpeg",6,3,3,2,"HouseObjects",1,1,"left","left",0.555000067,1,1,1,0,NA,NA,NA,NA,NA,NA,NA,NA,NA,NA,NA,NA,NA,NA,NA,NA,NA,NA,NA,NA,NA,NA,NA,NA
"464","stim/objects/Instruments/marimba.png",379,20,372,0.9,"stim/52.jpeg",5,2,3,2,"Instruments",2,3,"right","right",0.521000147,1,1,1,0,NA,NA,NA,NA,NA,NA,NA,NA,NA,NA,NA,NA,NA,NA,NA,NA,NA,NA,NA,NA,NA,NA,NA,NA
"465","stim/objects/Instruments/marimba.png",380,20,373,0.9,"stim/53.jpeg",5,3,3,2,"Instruments",2,2,"right","left",0.527999878,0,0,1,0,NA,NA,NA,NA,NA,NA,NA,NA,NA,NA,NA,NA,NA,NA,NA,NA,NA,NA,NA,NA,NA,NA,NA,NA
"361","stim/objects/HouseObjects/pitcher.png",381,20,374,0.9,"stim/64.jpeg",6,4,3,2,"HouseObjects",1,2,"left","left",0.568000078,1,1,1,0,NA,NA,NA,NA,NA,NA,NA,NA,NA,NA,NA,NA,NA,NA,NA,NA,NA,NA,NA,NA,NA,NA,NA,NA
"452","stim/objects/Instruments/maraca.png",382,20,375,0.7,"stim/31.jpeg",3,1,2,2,"Instruments",2,1,"right","right",0.540999889,1,1,1,0,NA,NA,NA,NA,NA,NA,NA,NA,NA,NA,NA,NA,NA,NA,NA,NA,NA,NA,NA,NA,NA,NA,NA,NA
"300","stim/objects/HouseObjects/knife.png",383,20,376,0.9,"stim/62.jpeg",6,2,3,2,"HouseObjects",1,4,"left","left",0.595999956,1,1,1,0,NA,NA,NA,NA,NA,NA,NA,NA,NA,NA,NA,NA,NA,NA,NA,NA,NA,NA,NA,NA,NA,NA,NA,NA
"342","stim/objects/HouseObjects/pan.png",384,20,377,0.9,"stim/62.jpeg",6,2,3,2,"HouseObjects",1,2,"left","left",0.856999874,1,1,1,0,NA,NA,NA,NA,NA,NA,NA,NA,NA,NA,NA,NA,NA,NA,NA,NA,NA,NA,NA,NA,NA,NA,NA,NA
"400","stim/objects/HouseObjects/towel.png",385,20,378,0.3,"stim/33.jpeg",3,3,2,1,"HouseObjects",1,4,"left","right",0.632000208,0,0,1,0,166,20,1,0.3,1,"stim/33.jpeg",3,3,"stim/33.jpeg",4,"left",0.947999954,3,3,1.481999874,3,1.864999771,166,1,1,1,0,0,1
"474","stim/objects/Instruments/metronome.png",386,20,379,0.9,"stim/52.jpeg",5,2,3,2,"Instruments",2,4,"right","right",0.496000051,1,1,1,0,NA,NA,NA,NA,NA,NA,NA,NA,NA,NA,NA,NA,NA,NA,NA,NA,NA,NA,NA,NA,NA,NA,NA,NA
"457","stim/objects/Instruments/marimba.png",387,20,380,0.9,"stim/51.jpeg",5,1,3,2,"Instruments",2,3,"right","right",0.490999937,1,1,1,0,NA,NA,NA,NA,NA,NA,NA,NA,NA,NA,NA,NA,NA,NA,NA,NA,NA,NA,NA,NA,NA,NA,NA,NA
"318","stim/objects/HouseObjects/lintroller.png",388,20,381,0.9,"stim/62.jpeg",6,2,3,2,"HouseObjects",1,3,"left","left",0.618000031,1,1,1,0,NA,NA,NA,NA,NA,NA,NA,NA,NA,NA,NA,NA,NA,NA,NA,NA,NA,NA,NA,NA,NA,NA,NA,NA
"540","stim/objects/Instruments/oboe2.png",389,20,382,0.9,"stim/53.jpeg",5,3,3,1,"Instruments",2,4,"right","right",0.481999874,1,1,1,0,191,20,1,0.9,2,"stim/53.jpeg",5,3,"stim/53.jpeg",4,"right",0.795999765,3,2,0.960999966,1,4.861999989,191,0,0,NA,0,NA,1
"333","stim/objects/HouseObjects/match.png",390,20,383,0.9,"stim/63.jpeg",6,3,3,2,"HouseObjects",1,2,"left","left",0.898000002,1,1,1,0,NA,NA,NA,NA,NA,NA,NA,NA,NA,NA,NA,NA,NA,NA,NA,NA,NA,NA,NA,NA,NA,NA,NA,NA
"343","stim/objects/HouseObjects/pan.png",391,20,384,0.9,"stim/62.jpeg",6,2,3,2,"HouseObjects",1,4,"left","left",0.522000074,1,1,1,0,NA,NA,NA,NA,NA,NA,NA,NA,NA,NA,NA,NA,NA,NA,NA,NA,NA,NA,NA,NA,NA,NA,NA,NA
"557","stim/objects/Instruments/triangle.png",392,20,385,0.5,"stim/23.jpeg",2,3,1,1,"Instruments",2,2,"right","left",0.669000149,0,0,1,0,59,20,1,0.5,2,"stim/23.jpeg",2,3,"stim/23.jpeg",2,"left",1.190999985,2,3,1.358999729,4,1.371999741,59,1,1,1,0,0,1
"449","stim/objects/Instruments/laud.png",393,20,386,0.7,"stim/33.jpeg",3,3,2,2,"Instruments",2,3,"right","right",0.582000017,1,1,1,0,NA,NA,NA,NA,NA,NA,NA,NA,NA,NA,NA,NA,NA,NA,NA,NA,NA,NA,NA,NA,NA,NA,NA,NA
"482","stim/objects/Instruments/metronome.png",394,20,387,0.9,"stim/52.jpeg",5,2,3,2,"Instruments",2,3,"right","right",0.647000074,1,1,1,0,NA,NA,NA,NA,NA,NA,NA,NA,NA,NA,NA,NA,NA,NA,NA,NA,NA,NA,NA,NA,NA,NA,NA,NA
"535","stim/objects/Instruments/oboe.png",395,20,388,0.9,"stim/53.jpeg",5,3,3,2,"Instruments",2,1,"right","right",0.74000001,1,1,1,0,NA,NA,NA,NA,NA,NA,NA,NA,NA,NA,NA,NA,NA,NA,NA,NA,NA,NA,NA,NA,NA,NA,NA,NA
"349","stim/objects/HouseObjects/pan.png",396,20,389,0.9,"stim/62.jpeg",6,2,3,2,"HouseObjects",1,4,"left","left",0.488000154,1,1,1,0,NA,NA,NA,NA,NA,NA,NA,NA,NA,NA,NA,NA,NA,NA,NA,NA,NA,NA,NA,NA,NA,NA,NA,NA
"527","stim/objects/Instruments/oboe.png",397,20,390,0.9,"stim/51.jpeg",5,1,3,2,"Instruments",2,3,"right","right",0.529999971,1,1,1,0,NA,NA,NA,NA,NA,NA,NA,NA,NA,NA,NA,NA,NA,NA,NA,NA,NA,NA,NA,NA,NA,NA,NA,NA
"274","stim/objects/HouseObjects/handbrush2.png",398,20,391,0.7,"stim/41.jpeg",4,1,2,1,"HouseObjects",1,1,"left","",NA,0,0,1,0,11,20,1,0.7,1,"stim/41.jpeg",4,1,"stim/41.jpeg",1,"right",1.901000023,4,1,2.848999977,2,1.289999962,11,0,1,NA,0,NA,1
"319","stim/objects/HouseObjects/lintroller.png",399,20,392,0.9,"stim/64.jpeg",6,4,3,2,"HouseObjects",1,4,"left","left",0.506999969,1,1,1,0,NA,NA,NA,NA,NA,NA,NA,NA,NA,NA,NA,NA,NA,NA,NA,NA,NA,NA,NA,NA,NA,NA,NA,NA
"385","stim/objects/HouseObjects/safetypin2.png",400,20,393,0.1,"stim/52.jpeg",5,2,3,1,"HouseObjects",1,4,"left","right",0.46600008,0,0,1,0,186,20,1,0.1,1,"stim/52.jpeg",5,2,"stim/52.jpeg",4,"right",2.512999773,2,3,1.254999876,4,1.600000143,186,0,0,NA,1,NA,1
"290","stim/objects/HouseObjects/key2.png",401,20,394,0.7,"stim/41.jpeg",4,1,2,1,"HouseObjects",1,1,"left","left",0.548999786,1,1,1,0,138,20,1,0.7,1,"stim/41.jpeg",4,1,"stim/41.jpeg",1,"left",0.746999979,4,1,2.42599988,1,0.263999939,138,1,1,1,1,1,1
"284","stim/objects/HouseObjects/ironingboard.png",402,20,395,0.7,"stim/41.jpeg",4,1,2,2,"HouseObjects",1,4,"left","right",0.583999872,0,0,1,0,NA,NA,NA,NA,NA,NA,NA,NA,NA,NA,NA,NA,NA,NA,NA,NA,NA,NA,NA,NA,NA,NA,NA,NA
"295","stim/objects/HouseObjects/knife.png",403,20,396,0.9,"stim/64.jpeg",6,4,3,2,"HouseObjects",1,2,"left","left",0.5,1,1,1,0,NA,NA,NA,NA,NA,NA,NA,NA,NA,NA,NA,NA,NA,NA,NA,NA,NA,NA,NA,NA,NA,NA,NA,NA
"362","stim/objects/HouseObjects/pitcher.png",404,20,397,0.9,"stim/64.jpeg",6,4,3,2,"HouseObjects",1,4,"left","left",0.513999939,1,1,1,0,NA,NA,NA,NA,NA,NA,NA,NA,NA,NA,NA,NA,NA,NA,NA,NA,NA,NA,NA,NA,NA,NA,NA,NA
"260","stim/objects/HouseObjects/garbagebin.png",405,20,398,0.5,"stim/21.jpeg",2,1,1,2,"HouseObjects",1,4,"left","left",0.671000004,1,1,1,0,NA,NA,NA,NA,NA,NA,NA,NA,NA,NA,NA,NA,NA,NA,NA,NA,NA,NA,NA,NA,NA,NA,NA,NA
"266","stim/objects/HouseObjects/glassmop.png",406,20,399,0.5,"stim/22.jpeg",2,2,1,2,"HouseObjects",1,1,"left","left",0.630000114,1,1,1,0,NA,NA,NA,NA,NA,NA,NA,NA,NA,NA,NA,NA,NA,NA,NA,NA,NA,NA,NA,NA,NA,NA,NA,NA
"254","stim/objects/HouseObjects/dustpan.png",407,20,400,0.5,"stim/12.jpeg",1,2,1,2,"HouseObjects",1,3,"left","left",0.713999987,1,1,1,0,NA,NA,NA,NA,NA,NA,NA,NA,NA,NA,NA,NA,NA,NA,NA,NA,NA,NA,NA,NA,NA,NA,NA,NA
"311","stim/objects/HouseObjects/lintroller.png",408,20,401,0.9,"stim/64.jpeg",6,4,3,2,"HouseObjects",1,2,"left","left",0.489000082,1,1,1,0,NA,NA,NA,NA,NA,NA,NA,NA,NA,NA,NA,NA,NA,NA,NA,NA,NA,NA,NA,NA,NA,NA,NA,NA
"390","stim/objects/HouseObjects/sponge.png",409,20,402,0.5,"stim/23.jpeg",2,3,1,1,"HouseObjects",1,3,"left","left",0.752000093,1,1,1,0,77,20,1,0.5,2,"stim/23.jpeg",2,3,"stim/23.jpeg",3,"left",0.776000023,4,3,7.411999941,3,0.982999802,77,1,1,1,1,1,1
"548","stim/objects/Instruments/record2.png",410,20,403,0.9,"stim/52.jpeg",5,2,3,1,"Instruments",2,2,"right","right",0.684000015,1,1,1,0,140,20,1,0.9,2,"stim/52.jpeg",5,2,"stim/52.jpeg",2,"right",0.845999956,4,4,1.008999825,1,0.595999956,140,0,0,NA,0,NA,1
"386","stim/objects/HouseObjects/saw.png",411,20,404,0.5,"stim/21.jpeg",2,1,1,1,"HouseObjects",1,1,"left","left",0.579999924,1,1,1,0,121,20,1,0.5,2,"stim/21.jpeg",2,1,"stim/21.jpeg",1,"left",1.200000048,3,4,4.404000044,4,0.298000097,121,1,0,0,0,0,1
"431","stim/objects/Instruments/guitarcase.png",412,20,405,0.5,"stim/22.jpeg",2,2,1,2,"Instruments",2,2,"right","left",0.66899991,0,0,1,0,NA,NA,NA,NA,NA,NA,NA,NA,NA,NA,NA,NA,NA,NA,NA,NA,NA,NA,NA,NA,NA,NA,NA,NA
"437","stim/objects/Instruments/harp.png",413,20,406,0.7,"stim/31.jpeg",3,1,2,2,"Instruments",2,3,"right","left",0.757999897,0,0,1,0,NA,NA,NA,NA,NA,NA,NA,NA,NA,NA,NA,NA,NA,NA,NA,NA,NA,NA,NA,NA,NA,NA,NA,NA
"241","stim/objects/HouseObjects/coffee.png",414,20,407,0.5,"stim/11.jpeg",1,1,1,2,"HouseObjects",1,2,"left","right",0.570999861,0,0,1,0,NA,NA,NA,NA,NA,NA,NA,NA,NA,NA,NA,NA,NA,NA,NA,NA,NA,NA,NA,NA,NA,NA,NA,NA
"522","stim/objects/Instruments/musicstand.png",415,20,408,0.9,"stim/54.jpeg",5,4,3,2,"Instruments",2,4,"right","right",0.549999952,1,1,1,0,NA,NA,NA,NA,NA,NA,NA,NA,NA,NA,NA,NA,NA,NA,NA,NA,NA,NA,NA,NA,NA,NA,NA,NA
"498","stim/objects/Instruments/musicsheet.png",416,20,409,0.9,"stim/51.jpeg",5,1,3,2,"Instruments",2,2,"right","right",0.505000114,1,1,1,0,NA,NA,NA,NA,NA,NA,NA,NA,NA,NA,NA,NA,NA,NA,NA,NA,NA,NA,NA,NA,NA,NA,NA,NA
"409","stim/objects/Instruments/electricdrumset.png",417,20,410,0.5,"stim/12.jpeg",1,2,1,2,"Instruments",2,1,"right","left",0.651000023,0,0,1,0,NA,NA,NA,NA,NA,NA,NA,NA,NA,NA,NA,NA,NA,NA,NA,NA,NA,NA,NA,NA,NA,NA,NA,NA
"351","stim/objects/HouseObjects/pan.png",418,20,411,0.9,"stim/63.jpeg",6,3,3,2,"HouseObjects",1,1,"left","",NA,0,0,1,0,NA,NA,NA,NA,NA,NA,NA,NA,NA,NA,NA,NA,NA,NA,NA,NA,NA,NA,NA,NA,NA,NA,NA,NA
"543","stim/objects/Instruments/pipepiano.png",419,20,412,0.5,"stim/13.jpeg",1,3,1,1,"Instruments",2,2,"right","left",0.765000105,0,0,1,0,169,20,1,0.5,1,"stim/13.jpeg",1,3,"stim/13.jpeg",2,"left",0.855999708,3,2,2.220999956,1,0.756999969,169,1,0,0,0,0,1
"267","stim/objects/HouseObjects/glassmop2.png",420,20,413,0.7,"stim/43.jpeg",4,3,2,1,"HouseObjects",1,3,"left","left",0.648000002,1,1,1,0,163,20,1,0.7,1,"stim/43.jpeg",4,3,"stim/43.jpeg",3,"right",0.871999979,1,3,1.645999908,1,0.60800004,163,0,1,NA,0,NA,1
"416","stim/objects/Instruments/flute.png",421,20,414,0.5,"stim/14.jpeg",1,4,1,2,"Instruments",2,3,"right","left",0.8349998,0,0,1,0,NA,NA,NA,NA,NA,NA,NA,NA,NA,NA,NA,NA,NA,NA,NA,NA,NA,NA,NA,NA,NA,NA,NA,NA
"282","stim/objects/HouseObjects/iron2.png",422,20,415,0.7,"stim/43.jpeg",4,3,2,1,"HouseObjects",1,2,"left","left",0.588000059,1,1,1,0,44,20,1,0.7,1,"stim/43.jpeg",4,3,"stim/43.jpeg",2,"left",1.305999994,1,4,3.448999882,1,1.052000046,44,1,0,0,0,0,1
"244","stim/objects/HouseObjects/cushion.png",423,20,416,0.5,"stim/12.jpeg",1,2,1,2,"HouseObjects",1,4,"left","left",0.729000092,1,1,1,0,NA,NA,NA,NA,NA,NA,NA,NA,NA,NA,NA,NA,NA,NA,NA,NA,NA,NA,NA,NA,NA,NA,NA,NA
"375","stim/objects/HouseObjects/pitcher2.png",424,20,417,0.1,"stim/51.jpeg",5,1,3,1,"HouseObjects",1,1,"left","right",0.508000135,0,0,1,0,88,20,1,0.1,1,"stim/51.jpeg",5,1,"stim/51.jpeg",1,"left",1.166999817,2,1,2.845000029,1,0.515999794,88,1,1,1,1,1,1
"327","stim/objects/HouseObjects/match.png",425,20,418,0.9,"stim/63.jpeg",6,3,3,2,"HouseObjects",1,1,"left","left",0.60800004,1,1,1,0,NA,NA,NA,NA,NA,NA,NA,NA,NA,NA,NA,NA,NA,NA,NA,NA,NA,NA,NA,NA,NA,NA,NA,NA
"529","stim/objects/Instruments/oboe.png",426,20,419,0.9,"stim/52.jpeg",5,2,3,2,"Instruments",2,4,"right","right",0.525999784,1,1,1,0,NA,NA,NA,NA,NA,NA,NA,NA,NA,NA,NA,NA,NA,NA,NA,NA,NA,NA,NA,NA,NA,NA,NA,NA
"519","stim/objects/Instruments/musicstand.png",427,20,420,0.9,"stim/52.jpeg",5,2,3,2,"Instruments",2,4,"right","right",0.828000069,1,1,1,0,NA,NA,NA,NA,NA,NA,NA,NA,NA,NA,NA,NA,NA,NA,NA,NA,NA,NA,NA,NA,NA,NA,NA,NA
"353","stim/objects/HouseObjects/pan.png",428,20,421,0.9,"stim/63.jpeg",6,3,3,2,"HouseObjects",1,4,"left","left",0.546000004,1,1,1,0,NA,NA,NA,NA,NA,NA,NA,NA,NA,NA,NA,NA,NA,NA,NA,NA,NA,NA,NA,NA,NA,NA,NA,NA
"328","stim/objects/HouseObjects/match.png",429,20,422,0.9,"stim/62.jpeg",6,2,3,2,"HouseObjects",1,3,"left","left",0.672999859,1,1,1,0,NA,NA,NA,NA,NA,NA,NA,NA,NA,NA,NA,NA,NA,NA,NA,NA,NA,NA,NA,NA,NA,NA,NA,NA
"245","stim/objects/HouseObjects/cushion.png",430,20,423,0.5,"stim/13.jpeg",1,3,1,2,"HouseObjects",1,3,"left","right",0.54700017,0,0,1,0,NA,NA,NA,NA,NA,NA,NA,NA,NA,NA,NA,NA,NA,NA,NA,NA,NA,NA,NA,NA,NA,NA,NA,NA
"334","stim/objects/HouseObjects/match.png",431,20,424,0.9,"stim/61.jpeg",6,1,3,2,"HouseObjects",1,4,"left","left",0.520999908,1,1,1,0,NA,NA,NA,NA,NA,NA,NA,NA,NA,NA,NA,NA,NA,NA,NA,NA,NA,NA,NA,NA,NA,NA,NA,NA
"394","stim/objects/HouseObjects/teapot.png",432,20,425,0.5,"stim/21.jpeg",2,1,1,1,"HouseObjects",1,4,"left","left",0.575000048,1,1,1,0,111,20,1,0.5,2,"stim/21.jpeg",2,1,"stim/21.jpeg",4,"left",1.977999926,3,2,1.638000011,1,0.4599998,111,1,0,0,0,0,1
"446","stim/objects/Instruments/keyboard.png",433,20,426,0.7,"stim/32.jpeg",3,2,2,2,"Instruments",2,3,"right","right",0.588999987,1,1,1,0,NA,NA,NA,NA,NA,NA,NA,NA,NA,NA,NA,NA,NA,NA,NA,NA,NA,NA,NA,NA,NA,NA,NA,NA
"489","stim/objects/Instruments/metronome2.png",434,20,427,0.9,"stim/54.jpeg",5,4,3,1,"Instruments",2,3,"right","right",0.65199995,1,1,1,0,10,20,1,0.9,2,"stim/54.jpeg",5,4,"stim/54.jpeg",3,"right",1.169999838,4,4,5.865999937,1,1.720000029,10,0,1,NA,0,NA,1
"354","stim/objects/HouseObjects/pan.png",435,20,428,0.9,"stim/64.jpeg",6,4,3,2,"HouseObjects",1,1,"left","left",0.664999962,1,1,1,0,NA,NA,NA,NA,NA,NA,NA,NA,NA,NA,NA,NA,NA,NA,NA,NA,NA,NA,NA,NA,NA,NA,NA,NA
"250","stim/objects/HouseObjects/doormat.png",436,20,429,0.5,"stim/14.jpeg",1,4,1,2,"HouseObjects",1,4,"left","",NA,0,0,1,0,NA,NA,NA,NA,NA,NA,NA,NA,NA,NA,NA,NA,NA,NA,NA,NA,NA,NA,NA,NA,NA,NA,NA,NA
"492","stim/objects/Instruments/musicsheet.png",437,20,430,0.9,"stim/54.jpeg",5,4,3,2,"Instruments",2,2,"right","right",0.794000149,1,1,1,0,NA,NA,NA,NA,NA,NA,NA,NA,NA,NA,NA,NA,NA,NA,NA,NA,NA,NA,NA,NA,NA,NA,NA,NA
"478","stim/objects/Instruments/metronome.png",438,20,431,0.9,"stim/54.jpeg",5,4,3,2,"Instruments",2,1,"right","right",0.697000027,1,1,1,0,NA,NA,NA,NA,NA,NA,NA,NA,NA,NA,NA,NA,NA,NA,NA,NA,NA,NA,NA,NA,NA,NA,NA,NA
"399","stim/objects/HouseObjects/thread2.png",439,20,432,0.9,"stim/63.jpeg",6,3,3,1,"HouseObjects",1,3,"left","left",0.654000044,1,1,1,0,165,20,1,0.9,1,"stim/63.jpeg",6,3,"stim/63.jpeg",3,"left",0.825999975,3,3,2.494999886,1,0.60199976,165,1,1,1,0,0,1
"521","stim/objects/Instruments/musicstand.png",440,20,433,0.9,"stim/51.jpeg",5,1,3,2,"Instruments",2,4,"right","right",0.549000025,1,1,1,0,NA,NA,NA,NA,NA,NA,NA,NA,NA,NA,NA,NA,NA,NA,NA,NA,NA,NA,NA,NA,NA,NA,NA,NA
"410","stim/objects/Instruments/electricdrumset.png",441,20,434,0.5,"stim/11.jpeg",1,1,1,2,"Instruments",2,1,"right","left",0.555999994,0,0,1,0,NA,NA,NA,NA,NA,NA,NA,NA,NA,NA,NA,NA,NA,NA,NA,NA,NA,NA,NA,NA,NA,NA,NA,NA
"285","stim/objects/HouseObjects/ironingboard.png",442,20,435,0.7,"stim/44.jpeg",4,4,2,2,"HouseObjects",1,2,"left","left",0.63499999,1,1,1,0,NA,NA,NA,NA,NA,NA,NA,NA,NA,NA,NA,NA,NA,NA,NA,NA,NA,NA,NA,NA,NA,NA,NA,NA
"559","stim/objects/Instruments/trombone.png",443,20,436,0.5,"stim/24.jpeg",2,4,1,1,"Instruments",2,1,"right","left",0.573999882,0,0,1,0,19,20,1,0.5,2,"stim/24.jpeg",2,4,"stim/24.jpeg",1,"left",1.720000029,2,4,4.023999929,2,2.027999878,19,1,1,1,0,0,1
"365","stim/objects/HouseObjects/pitcher.png",444,20,437,0.9,"stim/62.jpeg",6,2,3,2,"HouseObjects",1,1,"left","left",0.573999882,1,1,1,0,NA,NA,NA,NA,NA,NA,NA,NA,NA,NA,NA,NA,NA,NA,NA,NA,NA,NA,NA,NA,NA,NA,NA,NA
"502","stim/objects/Instruments/musicsheet.png",445,20,438,0.9,"stim/51.jpeg",5,1,3,2,"Instruments",2,2,"right","right",0.59800005,1,1,1,0,NA,NA,NA,NA,NA,NA,NA,NA,NA,NA,NA,NA,NA,NA,NA,NA,NA,NA,NA,NA,NA,NA,NA,NA
"286","stim/objects/HouseObjects/ironingboard2.png",446,20,439,0.7,"stim/44.jpeg",4,4,2,1,"HouseObjects",1,1,"left","left",0.606999874,1,1,1,0,128,20,1,0.7,1,"stim/44.jpeg",4,4,"stim/44.jpeg",1,"left",1.854000092,4,3,10.13899994,2,0.920000076,128,1,0,0,0,0,1
"546","stim/objects/Instruments/record_player2.png",447,20,440,0.9,"stim/53.jpeg",5,3,3,1,"Instruments",2,2,"right","right",0.735000134,1,1,1,0,157,20,1,0.9,2,"stim/53.jpeg",5,3,"stim/53.jpeg",2,"right",1.031999826,4,1,1.082000017,4,0.54399991,157,0,0,NA,0,NA,1
"337","stim/objects/HouseObjects/match.png",448,20,441,0.9,"stim/64.jpeg",6,4,3,2,"HouseObjects",1,1,"left","left",0.667999983,1,1,1,0,NA,NA,NA,NA,NA,NA,NA,NA,NA,NA,NA,NA,NA,NA,NA,NA,NA,NA,NA,NA,NA,NA,NA,NA
"476","stim/objects/Instruments/metronome.png",449,20,442,0.9,"stim/54.jpeg",5,4,3,2,"Instruments",2,1,"right","right",0.539999962,1,1,1,0,NA,NA,NA,NA,NA,NA,NA,NA,NA,NA,NA,NA,NA,NA,NA,NA,NA,NA,NA,NA,NA,NA,NA,NA
"391","stim/objects/HouseObjects/sponge2.png",450,20,443,0.9,"stim/63.jpeg",6,3,3,1,"HouseObjects",1,4,"left","",NA,0,0,1,0,162,20,1,0.9,1,"stim/63.jpeg",6,3,"stim/63.jpeg",4,"left",0.917999983,4,1,1.483999968,3,0.828000069,162,1,0,0,0,0,1
"398","stim/objects/HouseObjects/thread.png",451,20,444,0.3,"stim/32.jpeg",3,2,2,1,"HouseObjects",1,1,"left","right",0.583000183,0,0,1,0,189,20,1,0.3,1,"stim/32.jpeg",3,2,"stim/32.jpeg",1,"left",0.85800004,4,4,5.334000111,2,0.77699995,189,1,0,0,0,0,1
"338","stim/objects/HouseObjects/match.png",452,20,445,0.9,"stim/62.jpeg",6,2,3,2,"HouseObjects",1,4,"left","left",0.546999931,1,1,1,0,NA,NA,NA,NA,NA,NA,NA,NA,NA,NA,NA,NA,NA,NA,NA,NA,NA,NA,NA,NA,NA,NA,NA,NA
"495","stim/objects/Instruments/musicsheet.png",453,20,446,0.9,"stim/53.jpeg",5,3,3,2,"Instruments",2,3,"right","right",0.529999971,1,1,1,0,NA,NA,NA,NA,NA,NA,NA,NA,NA,NA,NA,NA,NA,NA,NA,NA,NA,NA,NA,NA,NA,NA,NA,NA
"276","stim/objects/HouseObjects/handvacuum.png",454,20,447,0.7,"stim/42.jpeg",4,2,2,2,"HouseObjects",1,1,"left","left",0.565999985,1,1,1,0,NA,NA,NA,NA,NA,NA,NA,NA,NA,NA,NA,NA,NA,NA,NA,NA,NA,NA,NA,NA,NA,NA,NA,NA
"537","stim/objects/Instruments/oboe.png",455,20,448,0.9,"stim/52.jpeg",5,2,3,2,"Instruments",2,2,"right","right",0.69900012,1,1,1,0,NA,NA,NA,NA,NA,NA,NA,NA,NA,NA,NA,NA,NA,NA,NA,NA,NA,NA,NA,NA,NA,NA,NA,NA
"301","stim/objects/HouseObjects/knife.png",456,20,449,0.9,"stim/62.jpeg",6,2,3,2,"HouseObjects",1,3,"left","left",0.592000008,1,1,1,0,NA,NA,NA,NA,NA,NA,NA,NA,NA,NA,NA,NA,NA,NA,NA,NA,NA,NA,NA,NA,NA,NA,NA,NA
"472","stim/objects/Instruments/marimba2.png",457,20,450,0.9,"stim/53.jpeg",5,3,3,1,"Instruments",2,1,"right","right",0.563999891,1,1,1,0,134,20,1,0.9,2,"stim/53.jpeg",5,3,"stim/53.jpeg",1,"right",0.809000015,4,3,0.97699976,1,0.476999998,134,0,1,NA,1,NA,1
"496","stim/objects/Instruments/musicsheet.png",458,20,451,0.9,"stim/54.jpeg",5,4,3,2,"Instruments",2,2,"right","right",0.795000076,1,1,1,0,NA,NA,NA,NA,NA,NA,NA,NA,NA,NA,NA,NA,NA,NA,NA,NA,NA,NA,NA,NA,NA,NA,NA,NA
"296","stim/objects/HouseObjects/knife.png",459,20,452,0.9,"stim/62.jpeg",6,2,3,2,"HouseObjects",1,1,"left","left",0.48300004,1,1,1,0,NA,NA,NA,NA,NA,NA,NA,NA,NA,NA,NA,NA,NA,NA,NA,NA,NA,NA,NA,NA,NA,NA,NA,NA
"352","stim/objects/HouseObjects/pan.png",460,20,453,0.9,"stim/63.jpeg",6,3,3,2,"HouseObjects",1,1,"left","left",0.561000109,1,1,1,0,NA,NA,NA,NA,NA,NA,NA,NA,NA,NA,NA,NA,NA,NA,NA,NA,NA,NA,NA,NA,NA,NA,NA,NA
"517","stim/objects/Instruments/musicstand.png",461,20,454,0.9,"stim/52.jpeg",5,2,3,2,"Instruments",2,2,"right","right",0.450999975,1,1,1,0,NA,NA,NA,NA,NA,NA,NA,NA,NA,NA,NA,NA,NA,NA,NA,NA,NA,NA,NA,NA,NA,NA,NA,NA
"552","stim/objects/Instruments/speaker2.png",462,20,455,0.1,"stim/63.jpeg",6,3,3,1,"Instruments",2,2,"right","left",0.476999998,0,0,1,0,30,20,1,0.1,2,"stim/63.jpeg",6,3,"stim/63.jpeg",2,"left",2.076999903,2,3,5.226000071,4,1.073999882,30,1,1,1,0,0,1
"281","stim/objects/HouseObjects/iron.png",463,20,456,0.7,"stim/41.jpeg",4,1,2,2,"HouseObjects",1,4,"left","",NA,0,0,1,0,NA,NA,NA,NA,NA,NA,NA,NA,NA,NA,NA,NA,NA,NA,NA,NA,NA,NA,NA,NA,NA,NA,NA,NA
"536","stim/objects/Instruments/oboe.png",464,20,457,0.9,"stim/53.jpeg",5,3,3,2,"Instruments",2,2,"right","right",0.55099988,1,1,1,0,NA,NA,NA,NA,NA,NA,NA,NA,NA,NA,NA,NA,NA,NA,NA,NA,NA,NA,NA,NA,NA,NA,NA,NA
"469","stim/objects/Instruments/marimba.png",465,20,458,0.9,"stim/52.jpeg",5,2,3,2,"Instruments",2,2,"right","right",0.454999924,1,1,1,0,NA,NA,NA,NA,NA,NA,NA,NA,NA,NA,NA,NA,NA,NA,NA,NA,NA,NA,NA,NA,NA,NA,NA,NA
"379","stim/objects/HouseObjects/remote2.png",466,20,459,0.1,"stim/53.jpeg",5,3,3,1,"HouseObjects",1,1,"left","right",0.611000061,0,0,1,0,73,20,1,0.1,1,"stim/53.jpeg",5,3,"stim/53.jpeg",1,"right",1.130999804,4,2,1.594000101,4,0.578999996,73,0,0,NA,0,NA,1
"248","stim/objects/HouseObjects/dishsoap.png",467,20,460,0.5,"stim/13.jpeg",1,3,1,2,"HouseObjects",1,4,"left","left",0.612999916,1,1,1,0,NA,NA,NA,NA,NA,NA,NA,NA,NA,NA,NA,NA,NA,NA,NA,NA,NA,NA,NA,NA,NA,NA,NA,NA
"497","stim/objects/Instruments/musicsheet.png",468,20,461,0.9,"stim/51.jpeg",5,1,3,2,"Instruments",2,4,"right","right",0.755000114,1,1,1,0,NA,NA,NA,NA,NA,NA,NA,NA,NA,NA,NA,NA,NA,NA,NA,NA,NA,NA,NA,NA,NA,NA,NA,NA
