"","participant","trial_index","trial_cond","scn_file","scn_cat","scn_inst","scn_condition","fillers","obj_cat","obj_cat_num","obj_file","quadrant","corr_ans","key_resp_trial.keys","key_resp_trial.rt","trial_acc","trial_acc_manual","group"
"1",20,1,0.9,"stim/64.jpeg",6,4,3,NA,"HouseObjects",1,"stim/objects/HouseObjects/clothespin2.png",3,"left","left",0.663000107,1,1,1
"2",20,2,0.9,"stim/62.jpeg",6,2,3,NA,"HouseObjects",1,"stim/objects/HouseObjects/clock2.png",4,"left","",NA,0,0,1
"3",20,3,0.7,"stim/33.jpeg",3,3,2,NA,"Instruments",2,"stim/objects/Instruments/cymbal.png",1,"right","",NA,0,0,1
"4",20,4,0.5,"stim/21.jpeg",2,1,1,NA,"HouseObjects",1,"stim/objects/HouseObjects/bleachbottle.png",3,"left","",NA,0,0,1
"5",20,5,0.1,"stim/62.jpeg",6,2,3,NA,"Instruments",2,"stim/objects/Instruments/cornet2.png",1,"right","right",0.829999924,1,1,1
"6",20,6,0.7,"stim/43.jpeg",4,3,2,NA,"HouseObjects",1,"stim/objects/HouseObjects/barbecuelighter2.png",2,"left","left",0.607000113,1,1,1
"7",20,7,0.9,"stim/54.jpeg",5,4,3,NA,"Instruments",2,"stim/objects/Instruments/chime2.png",1,"right","right",0.729000092,1,1,1
"8",20,8,0.9,"stim/54.jpeg",5,4,3,NA,"Instruments",2,"stim/objects/Instruments/chime2.png",2,"right","right",0.625999928,1,1,1
"9",20,9,0.9,"stim/51.jpeg",5,1,3,NA,"Instruments",2,"stim/objects/Instruments/bassdrum2.png",1,"right","right",0.694999933,1,1,1
"10",20,10,0.5,"stim/11.jpeg",1,1,1,NA,"HouseObjects",1,"stim/objects/HouseObjects/ashtray.png",2,"left","left",0.934000015,1,1,1
"11",20,11,0.9,"stim/53.jpeg",5,3,3,NA,"Instruments",2,"stim/objects/Instruments/cello2.png",2,"right","right",0.691999912,1,1,1
"12",20,12,0.5,"stim/13.jpeg",1,3,1,NA,"HouseObjects",1,"stim/objects/HouseObjects/barbecuelighter.png",3,"left","",NA,0,0,1
"13",20,13,0.9,"stim/52.jpeg",5,2,3,NA,"Instruments",2,"stim/objects/Instruments/bassguitar2.png",1,"right","right",0.688999891,1,1,1
"14",20,14,0.9,"stim/62.jpeg",6,2,3,NA,"HouseObjects",1,"stim/objects/HouseObjects/clock2.png",4,"left","",NA,0,0,1
"15",20,15,0.7,"stim/31.jpeg",3,1,2,NA,"Instruments",2,"stim/objects/Instruments/clarinet.png",1,"right","",NA,0,0,1
"16",20,16,0.3,"stim/31.jpeg",3,1,2,NA,"HouseObjects",1,"stim/objects/HouseObjects/bucket.png",3,"left","left",0.73300004,1,1,1
"17",20,17,0.7,"stim/43.jpeg",4,3,2,NA,"HouseObjects",1,"stim/objects/HouseObjects/barbecuelighter2.png",1,"left","left",0.743999958,1,1,1
"18",20,18,0.9,"stim/64.jpeg",6,4,3,NA,"HouseObjects",1,"stim/objects/HouseObjects/clothespin2.png",1,"left","",NA,0,0,1
"19",20,19,0.7,"stim/31.jpeg",3,1,2,NA,"Instruments",2,"stim/objects/Instruments/clarinet.png",3,"right","right",0.54399991,1,1,1
"20",20,20,0.5,"stim/24.jpeg",2,4,1,NA,"Instruments",2,"stim/objects/Instruments/chime.png",1,"right","left",0.782999992,0,0,1
"21",20,21,0.5,"stim/23.jpeg",2,3,1,NA,"Instruments",2,"stim/objects/Instruments/cello.png",4,"right","",NA,0,0,1
"22",20,22,0.9,"stim/63.jpeg",6,3,3,NA,"HouseObjects",1,"stim/objects/HouseObjects/clothesdryingrack2.png",4,"left","left",0.855999947,1,1,1
"23",20,23,0.7,"stim/31.jpeg",3,1,2,NA,"Instruments",2,"stim/objects/Instruments/clarinet.png",1,"right","right",0.632999897,1,1,1
"24",20,24,0.1,"stim/52.jpeg",5,2,3,NA,"HouseObjects",1,"stim/objects/HouseObjects/blender2.png",3,"left","right",0.691999912,0,0,1
"25",20,25,0.7,"stim/44.jpeg",4,4,2,NA,"HouseObjects",1,"stim/objects/HouseObjects/basket2.png",4,"left","left",0.621000051,1,1,1
"26",20,26,0.5,"stim/13.jpeg",1,3,1,NA,"Instruments",2,"stim/objects/Instruments/balalaika.png",4,"right","left",0.674000025,0,0,1
"27",20,27,0.5,"stim/13.jpeg",1,3,1,NA,"Instruments",2,"stim/objects/Instruments/balalaika.png",3,"right","left",0.680000067,0,0,1
"28",20,28,0.9,"stim/64.jpeg",6,4,3,NA,"HouseObjects",1,"stim/objects/HouseObjects/clothespin2.png",4,"left","",NA,0,0,1
"29",20,29,0.5,"stim/14.jpeg",1,4,1,NA,"Instruments",2,"stim/objects/Instruments/banjo.png",3,"right","left",0.67200017,0,0,1
"30",20,30,0.7,"stim/34.jpeg",3,4,2,NA,"Instruments",2,"stim/objects/Instruments/doublebass.png",1,"right","right",0.481999874,1,1,1
"31",20,31,0.5,"stim/12.jpeg",1,2,1,NA,"HouseObjects",1,"stim/objects/HouseObjects/ballofstring.png",3,"left","left",0.586999893,1,1,1
"32",20,32,0.9,"stim/61.jpeg",6,1,3,NA,"HouseObjects",1,"stim/objects/HouseObjects/bucket2.png",4,"left","left",0.808000088,1,1,1
"33",20,33,0.7,"stim/42.jpeg",4,2,2,NA,"HouseObjects",1,"stim/objects/HouseObjects/ballofstring2.png",3,"left","left",0.623000145,1,1,1
"34",20,34,0.5,"stim/11.jpeg",1,1,1,NA,"Instruments",2,"stim/objects/Instruments/accordion.png",3,"right","left",0.524999857,0,0,1
"35",20,35,0.9,"stim/53.jpeg",5,3,3,NA,"Instruments",2,"stim/objects/Instruments/cello2.png",2,"right","right",0.539999962,1,1,1
"36",20,36,0.9,"stim/62.jpeg",6,2,3,NA,"HouseObjects",1,"stim/objects/HouseObjects/clock2.png",3,"left","left",0.467000008,1,1,1
"37",20,37,0.5,"stim/13.jpeg",1,3,1,NA,"Instruments",2,"stim/objects/Instruments/balalaika.png",2,"right","left",0.603999853,0,0,1
"38",20,38,0.1,"stim/64.jpeg",6,4,3,NA,"Instruments",2,"stim/objects/Instruments/doublebass2.png",3,"right","left",0.661000013,0,0,1
"39",20,39,0.3,"stim/44.jpeg",4,4,2,NA,"Instruments",2,"stim/objects/Instruments/banjo2.png",1,"right","left",0.818000078,0,0,1
"40",20,40,0.1,"stim/61.jpeg",6,1,3,NA,"Instruments",2,"stim/objects/Instruments/clarinet2.png",4,"right","left",0.656999826,0,0,1
"41",20,41,0.9,"stim/51.jpeg",5,1,3,NA,"Instruments",2,"stim/objects/Instruments/bassdrum2.png",1,"right","right",0.486999989,1,1,1
"42",20,42,0.5,"stim/11.jpeg",1,1,1,NA,"HouseObjects",1,"stim/objects/HouseObjects/ashtray.png",4,"left","left",0.746999979,1,1,1
"43",20,43,0.7,"stim/33.jpeg",3,3,2,NA,"Instruments",2,"stim/objects/Instruments/cymbal.png",3,"right","right",0.556999922,1,1,1
"44",20,44,0.9,"stim/64.jpeg",6,4,3,NA,"HouseObjects",1,"stim/objects/HouseObjects/clothespin2.png",1,"left","left",0.670000076,1,1,1
"45",20,45,0.5,"stim/22.jpeg",2,2,1,NA,"Instruments",2,"stim/objects/Instruments/bassguitar.png",1,"right","right",0.911999941,1,1,1
"46",20,46,0.9,"stim/52.jpeg",5,2,3,NA,"Instruments",2,"stim/objects/Instruments/bassguitar2.png",3,"right","right",0.589999914,1,1,1
"47",20,47,0.7,"stim/34.jpeg",3,4,2,NA,"Instruments",2,"stim/objects/Instruments/doublebass.png",3,"right","right",0.677999973,1,1,1
"48",20,48,0.5,"stim/23.jpeg",2,3,1,NA,"HouseObjects",1,"stim/objects/HouseObjects/bottle.png",2,"left","left",0.54399991,1,1,1
"49",20,49,0.5,"stim/13.jpeg",1,3,1,NA,"HouseObjects",1,"stim/objects/HouseObjects/barbecuelighter.png",3,"left","right",0.861000061,0,0,1
"50",20,50,0.5,"stim/23.jpeg",2,3,1,NA,"HouseObjects",1,"stim/objects/HouseObjects/bottle.png",1,"left","left",0.755000114,1,1,1
"51",20,51,0.7,"stim/33.jpeg",3,3,2,NA,"Instruments",2,"stim/objects/Instruments/cymbal.png",2,"right","right",0.497999907,1,1,1
"52",20,52,0.7,"stim/31.jpeg",3,1,2,NA,"Instruments",2,"stim/objects/Instruments/clarinet.png",3,"right","right",0.614000082,1,1,1
"53",20,53,0.7,"stim/33.jpeg",3,3,2,NA,"Instruments",2,"stim/objects/Instruments/cymbal.png",1,"right","right",0.602999926,1,1,1
"54",20,54,0.5,"stim/11.jpeg",1,1,1,NA,"HouseObjects",1,"stim/objects/HouseObjects/ashtray.png",2,"left","left",0.92599988,1,1,1
"55",20,55,0.5,"stim/12.jpeg",1,2,1,NA,"Instruments",2,"stim/objects/Instruments/acousticguitar.png",3,"right","",NA,0,0,1
"56",20,56,0.9,"stim/51.jpeg",5,1,3,NA,"Instruments",2,"stim/objects/Instruments/bassdrum2.png",1,"right","right",0.47300005,1,1,1
"57",20,57,0.9,"stim/63.jpeg",6,3,3,NA,"HouseObjects",1,"stim/objects/HouseObjects/clothesdryingrack2.png",4,"left","right",0.552000046,0,0,1
"58",20,58,0.3,"stim/44.jpeg",4,4,2,NA,"Instruments",2,"stim/objects/Instruments/banjo2.png",4,"right","left",0.571000099,0,0,1
"59",20,59,0.7,"stim/32.jpeg",3,2,2,NA,"Instruments",2,"stim/objects/Instruments/cornet.png",1,"right","right",0.697999954,1,1,1
"60",20,60,0.5,"stim/21.jpeg",2,1,1,NA,"HouseObjects",1,"stim/objects/HouseObjects/bleachbottle.png",1,"left","left",0.681999922,1,1,1
"61",20,61,0.7,"stim/43.jpeg",4,3,2,NA,"HouseObjects",1,"stim/objects/HouseObjects/barbecuelighter2.png",2,"left","left",0.588000059,1,1,1
"62",20,62,0.5,"stim/21.jpeg",2,1,1,NA,"HouseObjects",1,"stim/objects/HouseObjects/bleachbottle.png",1,"left","left",0.579999924,1,1,1
"63",20,63,0.9,"stim/51.jpeg",5,1,3,NA,"Instruments",2,"stim/objects/Instruments/bassdrum2.png",4,"right","right",0.46600008,1,1,1
"64",20,64,0.5,"stim/21.jpeg",2,1,1,NA,"Instruments",2,"stim/objects/Instruments/bassdrum.png",4,"right","left",0.43599987,0,0,1
"65",20,65,0.5,"stim/24.jpeg",2,4,1,NA,"Instruments",2,"stim/objects/Instruments/chime.png",4,"right","right",0.712000132,1,1,1
"66",20,66,0.7,"stim/41.jpeg",4,1,2,NA,"HouseObjects",1,"stim/objects/HouseObjects/ashtray2.png",2,"left","left",0.52699995,1,1,1
"67",20,67,0.9,"stim/62.jpeg",6,2,3,NA,"HouseObjects",1,"stim/objects/HouseObjects/clock2.png",1,"left","left",0.561999798,1,1,1
"68",20,68,0.9,"stim/53.jpeg",5,3,3,NA,"Instruments",2,"stim/objects/Instruments/cello2.png",1,"right","right",0.559000015,1,1,1
"69",20,69,0.9,"stim/53.jpeg",5,3,3,NA,"Instruments",2,"stim/objects/Instruments/cello2.png",4,"right","right",0.523999929,1,1,1
"70",20,70,0.5,"stim/11.jpeg",1,1,1,NA,"Instruments",2,"stim/objects/Instruments/accordion.png",2,"right","left",0.589999914,0,0,1
"71",20,71,0.5,"stim/11.jpeg",1,1,1,NA,"Instruments",2,"stim/objects/Instruments/accordion.png",4,"right","right",0.506999969,1,1,1
"72",20,72,0.3,"stim/41.jpeg",4,1,2,NA,"Instruments",2,"stim/objects/Instruments/accordion2.png",2,"right","left",0.541000128,0,0,1
"73",20,73,0.3,"stim/34.jpeg",3,4,2,NA,"HouseObjects",1,"stim/objects/HouseObjects/clothespin.png",1,"left","right",0.511999846,0,0,1
"74",20,74,0.5,"stim/11.jpeg",1,1,1,NA,"Instruments",2,"stim/objects/Instruments/accordion.png",3,"right","left",0.68599987,0,0,1
"75",20,75,0.5,"stim/21.jpeg",2,1,1,NA,"Instruments",2,"stim/objects/Instruments/bassdrum.png",1,"right","left",0.550000191,0,0,1
"76",20,76,0.7,"stim/32.jpeg",3,2,2,NA,"Instruments",2,"stim/objects/Instruments/cornet.png",3,"right","right",0.482999802,1,1,1
"77",20,77,0.5,"stim/21.jpeg",2,1,1,NA,"HouseObjects",1,"stim/objects/HouseObjects/bleachbottle.png",1,"left","left",0.635999918,1,1,1
"78",20,78,0.5,"stim/14.jpeg",1,4,1,NA,"HouseObjects",1,"stim/objects/HouseObjects/basket.png",2,"left","right",0.644999981,0,0,1
"79",20,79,0.7,"stim/42.jpeg",4,2,2,NA,"HouseObjects",1,"stim/objects/HouseObjects/ballofstring2.png",3,"left","left",0.599000216,1,1,1
"80",20,80,0.5,"stim/14.jpeg",1,4,1,NA,"Instruments",2,"stim/objects/Instruments/banjo.png",3,"right","left",0.717000008,0,0,1
"81",20,81,0.7,"stim/32.jpeg",3,2,2,NA,"Instruments",2,"stim/objects/Instruments/cornet.png",1,"right","right",0.475000143,1,1,1
"82",20,82,0.9,"stim/52.jpeg",5,2,3,NA,"Instruments",2,"stim/objects/Instruments/bassguitar2.png",1,"right","right",0.677000046,1,1,1
"83",20,83,0.9,"stim/54.jpeg",5,4,3,NA,"Instruments",2,"stim/objects/Instruments/chime2.png",3,"right","",NA,0,0,1
"84",20,84,0.5,"stim/11.jpeg",1,1,1,NA,"Instruments",2,"stim/objects/Instruments/accordion.png",3,"right","left",0.656999826,0,0,1
"85",20,85,0.7,"stim/43.jpeg",4,3,2,NA,"HouseObjects",1,"stim/objects/HouseObjects/barbecuelighter2.png",4,"left","left",0.628000021,1,1,1
"86",20,86,0.5,"stim/12.jpeg",1,2,1,NA,"Instruments",2,"stim/objects/Instruments/acousticguitar.png",2,"right","right",0.632999897,1,1,1
"87",20,87,0.9,"stim/53.jpeg",5,3,3,NA,"Instruments",2,"stim/objects/Instruments/cello2.png",2,"right","right",0.513999939,1,1,1
"88",20,88,0.5,"stim/24.jpeg",2,4,1,NA,"Instruments",2,"stim/objects/Instruments/chime.png",1,"right","left",0.603999853,0,0,1
"89",20,89,0.7,"stim/32.jpeg",3,2,2,NA,"Instruments",2,"stim/objects/Instruments/cornet.png",4,"right","right",0.552000046,1,1,1
"90",20,90,0.9,"stim/51.jpeg",5,1,3,NA,"Instruments",2,"stim/objects/Instruments/bassdrum2.png",3,"right","right",0.614000082,1,1,1
"91",20,91,0.7,"stim/44.jpeg",4,4,2,NA,"HouseObjects",1,"stim/objects/HouseObjects/basket2.png",1,"left","left",0.576000214,1,1,1
"92",20,92,0.3,"stim/43.jpeg",4,3,2,NA,"Instruments",2,"stim/objects/Instruments/balalaika2.png",1,"right","left",0.434999943,0,0,1
"93",20,93,0.5,"stim/21.jpeg",2,1,1,NA,"HouseObjects",1,"stim/objects/HouseObjects/bleachbottle.png",4,"left","",NA,0,0,1
"94",20,94,0.9,"stim/64.jpeg",6,4,3,NA,"HouseObjects",1,"stim/objects/HouseObjects/clothespin2.png",3,"left","left",0.691999912,1,1,1
"95",20,95,0.3,"stim/42.jpeg",4,2,2,NA,"Instruments",2,"stim/objects/Instruments/acousticguitar2.png",3,"right","left",0.628999949,0,0,1
"96",20,96,0.5,"stim/23.jpeg",2,3,1,NA,"HouseObjects",1,"stim/objects/HouseObjects/bottle.png",1,"left","left",0.6650002,1,1,1
"97",20,97,0.5,"stim/12.jpeg",1,2,1,NA,"HouseObjects",1,"stim/objects/HouseObjects/ballofstring.png",4,"left","right",0.730000019,0,0,1
"98",20,98,0.5,"stim/22.jpeg",2,2,1,NA,"Instruments",2,"stim/objects/Instruments/bassguitar.png",1,"right","left",0.798999786,0,0,1
"99",20,99,0.7,"stim/31.jpeg",3,1,2,NA,"Instruments",2,"stim/objects/Instruments/clarinet.png",4,"right","right",0.555000067,1,1,1
"100",20,100,0.3,"stim/33.jpeg",3,3,2,NA,"HouseObjects",1,"stim/objects/HouseObjects/clothesdryingrack.png",4,"left","right",0.457000017,0,0,1
"101",20,101,0.9,"stim/63.jpeg",6,3,3,NA,"HouseObjects",1,"stim/objects/HouseObjects/clothesdryingrack2.png",2,"left","left",0.486000061,1,1,1
"102",20,102,0.9,"stim/61.jpeg",6,1,3,NA,"HouseObjects",1,"stim/objects/HouseObjects/bucket2.png",3,"left","left",0.552000046,1,1,1
"103",20,103,0.5,"stim/21.jpeg",2,1,1,NA,"Instruments",2,"stim/objects/Instruments/bassdrum.png",1,"right","",NA,0,0,1
"104",20,104,0.5,"stim/22.jpeg",2,2,1,NA,"HouseObjects",1,"stim/objects/HouseObjects/blender.png",3,"left","left",0.688000202,1,1,1
"105",20,105,0.5,"stim/14.jpeg",1,4,1,NA,"HouseObjects",1,"stim/objects/HouseObjects/basket.png",4,"left","right",0.681999922,0,0,1
"106",20,106,0.5,"stim/22.jpeg",2,2,1,NA,"HouseObjects",1,"stim/objects/HouseObjects/blender.png",3,"left","left",0.657999992,1,1,1
"107",20,107,0.7,"stim/41.jpeg",4,1,2,NA,"HouseObjects",1,"stim/objects/HouseObjects/ashtray2.png",4,"left","left",0.730000019,1,1,1
"108",20,108,0.5,"stim/13.jpeg",1,3,1,NA,"HouseObjects",1,"stim/objects/HouseObjects/barbecuelighter.png",1,"left","left",0.717999935,1,1,1
"109",20,109,0.5,"stim/13.jpeg",1,3,1,NA,"Instruments",2,"stim/objects/Instruments/balalaika.png",4,"right","left",0.464999914,0,0,1
"110",20,110,0.5,"stim/24.jpeg",2,4,1,NA,"HouseObjects",1,"stim/objects/HouseObjects/broom.png",4,"left","left",0.713000059,1,1,1
"111",20,111,0.9,"stim/61.jpeg",6,1,3,NA,"HouseObjects",1,"stim/objects/HouseObjects/bucket2.png",1,"left","left",0.755999804,1,1,1
"112",20,112,0.7,"stim/42.jpeg",4,2,2,NA,"HouseObjects",1,"stim/objects/HouseObjects/ballofstring2.png",2,"left","left",0.562999964,1,1,1
"113",20,113,0.5,"stim/22.jpeg",2,2,1,NA,"HouseObjects",1,"stim/objects/HouseObjects/blender.png",4,"left","left",0.63499999,1,1,1
"114",20,114,0.7,"stim/33.jpeg",3,3,2,NA,"Instruments",2,"stim/objects/Instruments/cymbal.png",2,"right","right",0.541000128,1,1,1
"115",20,115,0.3,"stim/32.jpeg",3,2,2,NA,"HouseObjects",1,"stim/objects/HouseObjects/clock.png",4,"left","right",0.542000055,0,0,1
"116",20,116,0.5,"stim/12.jpeg",1,2,1,NA,"HouseObjects",1,"stim/objects/HouseObjects/ballofstring.png",2,"left","left",0.597000122,1,1,1
"117",20,117,0.5,"stim/21.jpeg",2,1,1,NA,"Instruments",2,"stim/objects/Instruments/bassdrum.png",2,"right","left",0.842000008,0,0,1
"118",20,118,0.9,"stim/51.jpeg",5,1,3,NA,"Instruments",2,"stim/objects/Instruments/bassdrum2.png",4,"right","right",0.664999962,1,1,1
"119",20,119,0.3,"stim/43.jpeg",4,3,2,NA,"Instruments",2,"stim/objects/Instruments/balalaika2.png",2,"right","left",0.580999851,0,0,1
"120",20,120,0.9,"stim/64.jpeg",6,4,3,NA,"HouseObjects",1,"stim/objects/HouseObjects/clothespin2.png",1,"left","right",0.782999992,0,0,1
"121",20,121,0.9,"stim/52.jpeg",5,2,3,NA,"Instruments",2,"stim/objects/Instruments/bassguitar2.png",1,"right","right",0.568000078,1,1,1
"122",20,122,0.9,"stim/51.jpeg",5,1,3,NA,"Instruments",2,"stim/objects/Instruments/bassdrum2.png",3,"right","right",0.496999979,1,1,1
"123",20,123,0.7,"stim/42.jpeg",4,2,2,NA,"HouseObjects",1,"stim/objects/HouseObjects/ballofstring2.png",2,"left","left",0.515000105,1,1,1
"124",20,124,0.5,"stim/12.jpeg",1,2,1,NA,"HouseObjects",1,"stim/objects/HouseObjects/ballofstring.png",1,"left","left",0.883000135,1,1,1
"125",20,125,0.5,"stim/22.jpeg",2,2,1,NA,"Instruments",2,"stim/objects/Instruments/bassguitar.png",1,"right","",NA,0,0,1
"126",20,126,0.9,"stim/61.jpeg",6,1,3,NA,"HouseObjects",1,"stim/objects/HouseObjects/bucket2.png",3,"left","left",0.805000067,1,1,1
"127",20,127,0.5,"stim/13.jpeg",1,3,1,NA,"HouseObjects",1,"stim/objects/HouseObjects/barbecuelighter.png",4,"left","left",0.855000019,1,1,1
"128",20,128,0.5,"stim/14.jpeg",1,4,1,NA,"HouseObjects",1,"stim/objects/HouseObjects/basket.png",3,"left","left",0.732000113,1,1,1
"129",20,129,0.7,"stim/43.jpeg",4,3,2,NA,"HouseObjects",1,"stim/objects/HouseObjects/barbecuelighter2.png",4,"left","left",0.562999964,1,1,1
"130",20,130,0.7,"stim/33.jpeg",3,3,2,NA,"Instruments",2,"stim/objects/Instruments/cymbal.png",1,"right","right",0.554000139,1,1,1
"131",20,131,0.5,"stim/14.jpeg",1,4,1,NA,"Instruments",2,"stim/objects/Instruments/banjo.png",2,"right","left",0.684999943,0,0,1
"132",20,132,0.9,"stim/61.jpeg",6,1,3,NA,"HouseObjects",1,"stim/objects/HouseObjects/bucket2.png",2,"left","left",0.59100008,1,1,1
"133",20,133,0.5,"stim/13.jpeg",1,3,1,NA,"HouseObjects",1,"stim/objects/HouseObjects/barbecuelighter.png",1,"left","left",0.656000137,1,1,1
"134",20,134,0.5,"stim/11.jpeg",1,1,1,NA,"HouseObjects",1,"stim/objects/HouseObjects/ashtray.png",4,"left","left",0.556999922,1,1,1
"135",20,135,0.7,"stim/32.jpeg",3,2,2,NA,"Instruments",2,"stim/objects/Instruments/cornet.png",2,"right","right",0.546000004,1,1,1
"136",20,136,0.5,"stim/24.jpeg",2,4,1,NA,"Instruments",2,"stim/objects/Instruments/chime.png",3,"right","left",0.680999994,0,0,1
"137",20,137,0.5,"stim/12.jpeg",1,2,1,NA,"Instruments",2,"stim/objects/Instruments/acousticguitar.png",3,"right","left",0.815999985,0,0,1
"138",20,138,0.5,"stim/12.jpeg",1,2,1,NA,"Instruments",2,"stim/objects/Instruments/acousticguitar.png",4,"right","left",0.60800004,0,0,1
"139",20,139,0.9,"stim/64.jpeg",6,4,3,NA,"HouseObjects",1,"stim/objects/HouseObjects/clothespin2.png",3,"left","left",0.679000139,1,1,1
"140",20,140,0.9,"stim/63.jpeg",6,3,3,NA,"HouseObjects",1,"stim/objects/HouseObjects/clothesdryingrack2.png",4,"left","left",0.725999832,1,1,1
"141",20,141,0.5,"stim/22.jpeg",2,2,1,NA,"Instruments",2,"stim/objects/Instruments/bassguitar.png",2,"right","",NA,0,0,1
"142",20,142,0.3,"stim/34.jpeg",3,4,2,NA,"HouseObjects",1,"stim/objects/HouseObjects/clothespin.png",4,"left","right",0.519000053,0,0,1
"143",20,143,0.7,"stim/41.jpeg",4,1,2,NA,"HouseObjects",1,"stim/objects/HouseObjects/ashtray2.png",4,"left","left",0.495000124,1,1,1
"144",20,144,0.9,"stim/51.jpeg",5,1,3,NA,"Instruments",2,"stim/objects/Instruments/bassdrum2.png",1,"right","right",0.489000082,1,1,1
"145",20,145,0.7,"stim/34.jpeg",3,4,2,NA,"Instruments",2,"stim/objects/Instruments/doublebass.png",4,"right","right",0.603999853,1,1,1
"146",20,146,0.5,"stim/23.jpeg",2,3,1,NA,"Instruments",2,"stim/objects/Instruments/cello.png",4,"right","left",0.525000095,0,0,1
"147",20,147,0.9,"stim/52.jpeg",5,2,3,NA,"Instruments",2,"stim/objects/Instruments/bassguitar2.png",2,"right","right",0.493999958,1,1,1
"148",20,148,0.9,"stim/64.jpeg",6,4,3,NA,"HouseObjects",1,"stim/objects/HouseObjects/clothespin2.png",4,"left","left",0.594000101,1,1,1
"149",20,149,0.9,"stim/51.jpeg",5,1,3,NA,"Instruments",2,"stim/objects/Instruments/bassdrum2.png",2,"right","right",0.441999912,1,1,1
"150",20,150,0.3,"stim/32.jpeg",3,2,2,NA,"HouseObjects",1,"stim/objects/HouseObjects/clock.png",2,"left","right",0.638999939,0,0,1
"151",20,151,0.7,"stim/32.jpeg",3,2,2,NA,"Instruments",2,"stim/objects/Instruments/cornet.png",2,"right","left",0.710000038,0,0,1
"152",20,152,0.7,"stim/32.jpeg",3,2,2,NA,"Instruments",2,"stim/objects/Instruments/cornet.png",1,"right","right",0.825000048,1,1,1
"153",20,153,0.7,"stim/44.jpeg",4,4,2,NA,"HouseObjects",1,"stim/objects/HouseObjects/basket2.png",3,"left","left",0.731999874,1,1,1
"154",20,154,0.1,"stim/53.jpeg",5,3,3,NA,"HouseObjects",1,"stim/objects/HouseObjects/bottle2.png",2,"left","right",0.645999908,0,0,1
"155",20,155,0.7,"stim/42.jpeg",4,2,2,NA,"HouseObjects",1,"stim/objects/HouseObjects/ballofstring2.png",4,"left","left",0.680999994,1,1,1
"156",20,156,0.9,"stim/64.jpeg",6,4,3,NA,"HouseObjects",1,"stim/objects/HouseObjects/clothespin2.png",2,"left","left",0.59800005,1,1,1
"157",20,157,0.9,"stim/52.jpeg",5,2,3,NA,"Instruments",2,"stim/objects/Instruments/bassguitar2.png",3,"right","right",0.498999834,1,1,1
"158",20,158,0.5,"stim/14.jpeg",1,4,1,NA,"Instruments",2,"stim/objects/Instruments/banjo.png",1,"right","left",0.582999945,0,0,1
"159",20,159,0.9,"stim/52.jpeg",5,2,3,NA,"Instruments",2,"stim/objects/Instruments/bassguitar2.png",4,"right","right",0.917000055,1,1,1
"160",20,160,0.5,"stim/24.jpeg",2,4,1,NA,"Instruments",2,"stim/objects/Instruments/chime.png",1,"right","left",0.828999996,0,0,1
"161",20,161,0.5,"stim/24.jpeg",2,4,1,NA,"HouseObjects",1,"stim/objects/HouseObjects/broom.png",4,"left","left",0.704999924,1,1,1
"162",20,162,0.3,"stim/41.jpeg",4,1,2,NA,"Instruments",2,"stim/objects/Instruments/accordion2.png",1,"right","left",0.605999947,0,0,1
"163",20,163,0.9,"stim/54.jpeg",5,4,3,NA,"Instruments",2,"stim/objects/Instruments/chime2.png",2,"right","right",0.684999943,1,1,1
"164",20,164,0.1,"stim/54.jpeg",5,4,3,NA,"HouseObjects",1,"stim/objects/HouseObjects/broom2.png",4,"left","right",0.467000008,0,0,1
"165",20,165,0.9,"stim/61.jpeg",6,1,3,NA,"HouseObjects",1,"stim/objects/HouseObjects/bucket2.png",2,"left","left",0.528000116,1,1,1
"166",20,166,0.9,"stim/62.jpeg",6,2,3,NA,"HouseObjects",1,"stim/objects/HouseObjects/clock2.png",2,"left","left",0.530999899,1,1,1
"167",20,167,0.5,"stim/24.jpeg",2,4,1,NA,"HouseObjects",1,"stim/objects/HouseObjects/broom.png",4,"left","left",0.752000093,1,1,1
"168",20,168,0.5,"stim/23.jpeg",2,3,1,NA,"Instruments",2,"stim/objects/Instruments/cello.png",3,"right","right",0.838999987,1,1,1
"169",20,169,0.7,"stim/41.jpeg",4,1,2,NA,"HouseObjects",1,"stim/objects/HouseObjects/ashtray2.png",2,"left","left",0.654999971,1,1,1
"170",20,170,0.5,"stim/13.jpeg",1,3,1,NA,"Instruments",2,"stim/objects/Instruments/balalaika.png",2,"right","right",0.730999947,1,1,1
"171",20,171,0.3,"stim/42.jpeg",4,2,2,NA,"Instruments",2,"stim/objects/Instruments/acousticguitar2.png",2,"right","left",0.572000027,0,0,1
"172",20,172,0.7,"stim/41.jpeg",4,1,2,NA,"HouseObjects",1,"stim/objects/HouseObjects/ashtray2.png",4,"left","left",0.667000055,1,1,1
"173",20,173,0.7,"stim/31.jpeg",3,1,2,NA,"Instruments",2,"stim/objects/Instruments/clarinet.png",1,"right","right",0.523000002,1,1,1
"174",20,174,0.3,"stim/41.jpeg",4,1,2,NA,"Instruments",2,"stim/objects/Instruments/accordion2.png",3,"right","left",0.637000084,0,0,1
"175",20,175,0.9,"stim/61.jpeg",6,1,3,NA,"HouseObjects",1,"stim/objects/HouseObjects/bucket2.png",2,"left","left",0.826000214,1,1,1
"176",20,176,0.7,"stim/34.jpeg",3,4,2,NA,"Instruments",2,"stim/objects/Instruments/doublebass.png",3,"right","right",0.677999973,1,1,1
"177",20,177,0.5,"stim/14.jpeg",1,4,1,NA,"Instruments",2,"stim/objects/Instruments/banjo.png",1,"right","left",0.696000099,0,0,1
"178",20,178,0.7,"stim/33.jpeg",3,3,2,NA,"Instruments",2,"stim/objects/Instruments/cymbal.png",3,"right","right",0.52699995,1,1,1
"179",20,179,0.7,"stim/44.jpeg",4,4,2,NA,"HouseObjects",1,"stim/objects/HouseObjects/basket2.png",1,"left","left",0.656000137,1,1,1
"180",20,180,0.7,"stim/44.jpeg",4,4,2,NA,"HouseObjects",1,"stim/objects/HouseObjects/basket2.png",3,"left","left",0.501999855,1,1,1
"181",20,181,0.9,"stim/54.jpeg",5,4,3,NA,"Instruments",2,"stim/objects/Instruments/chime2.png",4,"right","right",0.617000103,1,1,1
"182",20,182,0.9,"stim/62.jpeg",6,2,3,NA,"HouseObjects",1,"stim/objects/HouseObjects/clock2.png",3,"left","left",0.697999954,1,1,1
"183",20,183,0.7,"stim/42.jpeg",4,2,2,NA,"HouseObjects",1,"stim/objects/HouseObjects/ballofstring2.png",4,"left","left",0.622000217,1,1,1
"184",20,184,0.9,"stim/63.jpeg",6,3,3,NA,"HouseObjects",1,"stim/objects/HouseObjects/clothesdryingrack2.png",2,"left","left",0.674000025,1,1,1
"185",20,185,0.9,"stim/53.jpeg",5,3,3,NA,"Instruments",2,"stim/objects/Instruments/cello2.png",3,"right","right",0.602999926,1,1,1
"186",20,186,0.9,"stim/62.jpeg",6,2,3,NA,"HouseObjects",1,"stim/objects/HouseObjects/clock2.png",4,"left","left",0.583000183,1,1,1
"187",20,187,0.9,"stim/61.jpeg",6,1,3,NA,"HouseObjects",1,"stim/objects/HouseObjects/bucket2.png",2,"left","left",0.796999931,1,1,1
"188",20,188,0.3,"stim/32.jpeg",3,2,2,NA,"HouseObjects",1,"stim/objects/HouseObjects/clock.png",3,"left","right",0.547999859,0,0,1
"189",20,189,0.5,"stim/12.jpeg",1,2,1,NA,"Instruments",2,"stim/objects/Instruments/acousticguitar.png",2,"right","left",0.602999926,0,0,1
"190",20,190,0.1,"stim/51.jpeg",5,1,3,NA,"HouseObjects",1,"stim/objects/HouseObjects/bleachbottle2.png",1,"left","right",0.494000196,0,0,1
"191",20,191,0.7,"stim/31.jpeg",3,1,2,NA,"Instruments",2,"stim/objects/Instruments/clarinet.png",4,"right","",NA,0,0,1
"192",20,192,0.5,"stim/24.jpeg",2,4,1,NA,"HouseObjects",1,"stim/objects/HouseObjects/broom.png",2,"left","left",0.680999994,1,1,1
"193",20,193,0.7,"stim/41.jpeg",4,1,2,NA,"HouseObjects",1,"stim/objects/HouseObjects/ashtray2.png",2,"left","left",0.621999979,1,1,1
"194",20,194,0.7,"stim/42.jpeg",4,2,2,NA,"HouseObjects",1,"stim/objects/HouseObjects/ballofstring2.png",2,"left","left",0.770999908,1,1,1
"195",20,195,0.5,"stim/23.jpeg",2,3,1,NA,"Instruments",2,"stim/objects/Instruments/cello.png",4,"right","",NA,0,0,1
"196",20,196,0.9,"stim/62.jpeg",6,2,3,NA,"HouseObjects",1,"stim/objects/HouseObjects/clock2.png",1,"left","left",0.569999933,1,1,1
"197",20,197,0.9,"stim/54.jpeg",5,4,3,NA,"Instruments",2,"stim/objects/Instruments/chime2.png",2,"right","right",0.530999899,1,1,1
"198",20,198,0.3,"stim/31.jpeg",3,1,2,NA,"HouseObjects",1,"stim/objects/HouseObjects/bucket.png",1,"left","right",0.536999941,0,0,1
"199",20,199,0.3,"stim/33.jpeg",3,3,2,NA,"HouseObjects",1,"stim/objects/HouseObjects/clothesdryingrack.png",3,"left","",NA,0,0,1
"200",20,200,0.9,"stim/61.jpeg",6,1,3,NA,"HouseObjects",1,"stim/objects/HouseObjects/bucket2.png",2,"left","left",0.491999865,1,1,1
"201",20,201,0.9,"stim/53.jpeg",5,3,3,NA,"Instruments",2,"stim/objects/Instruments/cello2.png",1,"right","right",0.485999823,1,1,1
"202",20,202,0.9,"stim/52.jpeg",5,2,3,NA,"Instruments",2,"stim/objects/Instruments/bassguitar2.png",3,"right","right",0.461000204,1,1,1
"203",20,203,0.9,"stim/53.jpeg",5,3,3,NA,"Instruments",2,"stim/objects/Instruments/cello2.png",1,"right","right",0.531000137,1,1,1
"204",20,204,0.7,"stim/34.jpeg",3,4,2,NA,"Instruments",2,"stim/objects/Instruments/doublebass.png",4,"right","right",0.514000177,1,1,1
"205",20,205,0.7,"stim/44.jpeg",4,4,2,NA,"HouseObjects",1,"stim/objects/HouseObjects/basket2.png",3,"left","left",0.565999985,1,1,1
"206",20,206,0.5,"stim/22.jpeg",2,2,1,NA,"Instruments",2,"stim/objects/Instruments/bassguitar.png",1,"right","left",0.588999987,0,0,1
"207",20,207,0.9,"stim/62.jpeg",6,2,3,NA,"HouseObjects",1,"stim/objects/HouseObjects/clock2.png",3,"left","left",0.67200017,1,1,1
"208",20,208,0.7,"stim/43.jpeg",4,3,2,NA,"HouseObjects",1,"stim/objects/HouseObjects/barbecuelighter2.png",4,"left","left",0.578999996,1,1,1
"209",20,209,0.5,"stim/12.jpeg",1,2,1,NA,"HouseObjects",1,"stim/objects/HouseObjects/ballofstring.png",2,"left","right",0.385999918,0,0,1
"210",20,210,0.7,"stim/34.jpeg",3,4,2,NA,"Instruments",2,"stim/objects/Instruments/doublebass.png",3,"right","right",0.584000111,1,1,1
"211",20,211,0.9,"stim/52.jpeg",5,2,3,NA,"Instruments",2,"stim/objects/Instruments/bassguitar2.png",3,"right","right",0.523000002,1,1,1
"212",20,212,0.9,"stim/54.jpeg",5,4,3,NA,"Instruments",2,"stim/objects/Instruments/chime2.png",4,"right","right",0.722000122,1,1,1
"213",20,213,0.7,"stim/34.jpeg",3,4,2,NA,"Instruments",2,"stim/objects/Instruments/doublebass.png",4,"right","right",0.501000166,1,1,1
"214",20,214,0.5,"stim/22.jpeg",2,2,1,NA,"HouseObjects",1,"stim/objects/HouseObjects/blender.png",2,"left","right",0.687999964,0,0,1
"215",20,215,0.1,"stim/63.jpeg",6,3,3,NA,"Instruments",2,"stim/objects/Instruments/cymbal2.png",4,"right","left",0.657999992,0,0,1
"216",20,216,0.9,"stim/63.jpeg",6,3,3,NA,"HouseObjects",1,"stim/objects/HouseObjects/clothesdryingrack2.png",2,"left","left",0.537999868,1,1,1
"217",20,217,0.9,"stim/54.jpeg",5,4,3,NA,"Instruments",2,"stim/objects/Instruments/chime2.png",4,"right","right",0.508999825,1,1,1
"218",20,218,0.3,"stim/31.jpeg",3,1,2,NA,"HouseObjects",1,"stim/objects/HouseObjects/bucket.png",2,"left","right",0.478000164,0,0,1
"219",20,219,0.3,"stim/42.jpeg",4,2,2,NA,"Instruments",2,"stim/objects/Instruments/acousticguitar2.png",4,"right","left",0.618000031,0,0,1
"220",20,220,0.5,"stim/23.jpeg",2,3,1,NA,"Instruments",2,"stim/objects/Instruments/cello.png",2,"right","left",0.661000013,0,0,1
"221",20,221,0.7,"stim/41.jpeg",4,1,2,NA,"HouseObjects",1,"stim/objects/HouseObjects/ashtray2.png",2,"left","left",0.671000004,1,1,1
"222",20,222,0.9,"stim/63.jpeg",6,3,3,NA,"HouseObjects",1,"stim/objects/HouseObjects/clothesdryingrack2.png",1,"left","left",0.678999901,1,1,1
"223",20,223,0.5,"stim/11.jpeg",1,1,1,NA,"HouseObjects",1,"stim/objects/HouseObjects/ashtray.png",2,"left","left",0.812999964,1,1,1
"224",20,224,0.5,"stim/14.jpeg",1,4,1,NA,"HouseObjects",1,"stim/objects/HouseObjects/basket.png",4,"left","left",0.707000017,1,1,1
"225",20,225,0.3,"stim/44.jpeg",4,4,2,NA,"Instruments",2,"stim/objects/Instruments/banjo2.png",3,"right","left",0.611000061,0,0,1
"226",20,226,0.5,"stim/22.jpeg",2,2,1,NA,"HouseObjects",1,"stim/objects/HouseObjects/blender.png",2,"left","right",0.725999832,0,0,1
"227",20,227,0.3,"stim/33.jpeg",3,3,2,NA,"HouseObjects",1,"stim/objects/HouseObjects/clothesdryingrack.png",1,"left","left",0.571000099,1,1,1
"228",20,228,0.5,"stim/23.jpeg",2,3,1,NA,"HouseObjects",1,"stim/objects/HouseObjects/bottle.png",3,"left","left",0.517999887,1,1,1
"229",20,229,0.7,"stim/44.jpeg",4,4,2,NA,"HouseObjects",1,"stim/objects/HouseObjects/basket2.png",2,"left","left",0.500999928,1,1,1
"230",20,230,0.5,"stim/14.jpeg",1,4,1,NA,"HouseObjects",1,"stim/objects/HouseObjects/basket.png",3,"left","left",0.594000101,1,1,1
"231",20,231,0.9,"stim/53.jpeg",5,3,3,NA,"Instruments",2,"stim/objects/Instruments/cello2.png",2,"right","right",0.552999973,1,1,1
"232",20,232,0.9,"stim/54.jpeg",5,4,3,NA,"Instruments",2,"stim/objects/Instruments/chime2.png",3,"right","right",0.674000025,1,1,1
"233",20,233,0.5,"stim/23.jpeg",2,3,1,NA,"HouseObjects",1,"stim/objects/HouseObjects/bottle.png",1,"left","left",0.513999939,1,1,1
"234",20,234,0.5,"stim/21.jpeg",2,1,1,NA,"Instruments",2,"stim/objects/Instruments/bassdrum.png",2,"right","right",0.70299983,1,1,1
"235",20,235,0.9,"stim/63.jpeg",6,3,3,NA,"HouseObjects",1,"stim/objects/HouseObjects/clothesdryingrack2.png",3,"left","left",0.462000132,1,1,1
"236",20,236,0.5,"stim/24.jpeg",2,4,1,NA,"HouseObjects",1,"stim/objects/HouseObjects/broom.png",3,"left","left",0.618000031,1,1,1
"237",20,237,0.3,"stim/34.jpeg",3,4,2,NA,"HouseObjects",1,"stim/objects/HouseObjects/clothespin.png",1,"left","right",0.565000057,0,0,1
"238",20,238,0.7,"stim/43.jpeg",4,3,2,NA,"HouseObjects",1,"stim/objects/HouseObjects/barbecuelighter2.png",2,"left","left",0.392999887,1,1,1
"239",20,239,0.3,"stim/43.jpeg",4,3,2,NA,"Instruments",2,"stim/objects/Instruments/balalaika2.png",3,"right","left",0.497999907,0,0,1
"240",20,240,0.9,"stim/63.jpeg",6,3,3,NA,"HouseObjects",1,"stim/objects/HouseObjects/clothesdryingrack2.png",4,"left","left",0.572999954,1,1,1
