"","participant","OvsN","PE_level","object_cat","obj_file","scn_file","corr_scn_cat","corr_scn_inst","scn_file.1","corr_loc","key_resp_id.keys","key_resp_id.rt","key_resp_conf.keys","key_resp_assoc.keys","key_resp_assoc.rt","key_resp_loc.keys","key_resp_loc.rt","trialN","id_acc","assoc.acc","cond_assoc","loc.acc","cond_loc","group"
"1",20,1,0.7,2,"stim/objects/Instruments/electricdrumset2.png","stim/34.jpeg",3,4,"stim/34.jpeg",1,"left",1.667999983,4,1,12.046,2,3.928999901,1,1,0,0,0,0,1
"2",20,1,0.9,1,"stim/objects/HouseObjects/vacuumcleaner2.png","stim/61.jpeg",6,1,"stim/61.jpeg",1,"left",2.592999935,4,2,5.839999914,1,1.345000029,2,1,0,0,1,1,1
"3",20,2,0,1,"stim/objects/HouseObjects/wateringcan3.png","",0,0,"",0,"right",4.17599988,NA,NA,NA,NA,NA,3,1,NA,NA,NA,NA,1
"4",20,1,0.3,2,"stim/objects/Instruments/guitarcase2.png","stim/41.jpeg",4,1,"stim/41.jpeg",4,"right",3.367000103,3,4,5.872999907,1,3.583999872,4,0,0,NA,0,NA,1
"5",20,2,0,2,"stim/objects/Instruments/frenchhorn4.png","",0,0,"",0,"left",1.616999865,NA,NA,NA,NA,NA,5,0,NA,NA,NA,NA,1
"6",20,2,0,1,"stim/objects/HouseObjects/cushion3.png","",0,0,"",0,"right",1.788999796,NA,NA,NA,NA,NA,6,1,NA,NA,NA,NA,1
"7",20,2,0,1,"stim/objects/HouseObjects/match3.png","",0,0,"",0,"right",1.382999897,NA,NA,NA,NA,NA,7,1,NA,NA,NA,NA,1
"8",20,2,0,2,"stim/objects/Instruments/harp3.png","",0,0,"",0,"left",1.24000001,NA,NA,NA,NA,NA,8,0,NA,NA,NA,NA,1
"9",20,2,0,2,"stim/objects/Instruments/guitarcase3.png","",0,0,"",0,"right",1.728999853,NA,NA,NA,NA,NA,9,1,NA,NA,NA,NA,1
"10",20,1,0.9,2,"stim/objects/Instruments/metronome2.png","stim/54.jpeg",5,4,"stim/54.jpeg",3,"right",1.169999838,4,4,5.865999937,1,1.720000029,10,0,1,NA,0,NA,1
"11",20,1,0.7,1,"stim/objects/HouseObjects/handbrush2.png","stim/41.jpeg",4,1,"stim/41.jpeg",1,"right",1.901000023,4,1,2.848999977,2,1.289999962,11,0,1,NA,0,NA,1
"12",20,2,0,1,"stim/objects/HouseObjects/cushion4.png","",0,0,"",0,"right",1.15899992,NA,NA,NA,NA,NA,12,1,NA,NA,NA,NA,1
"13",20,1,0.1,1,"stim/objects/HouseObjects/rubbergloves2.png","stim/54.jpeg",5,4,"stim/54.jpeg",1,"left",2.440000057,2,4,4.811999798,1,3.001999855,13,1,1,1,1,1,1
"14",20,2,0,1,"stim/objects/HouseObjects/handvacuum3.png","",0,0,"",0,"left",5.018000126,NA,NA,NA,NA,NA,14,0,NA,NA,NA,NA,1
"15",20,2,0,1,"stim/objects/HouseObjects/saw3.png","",0,0,"",0,"right",1.330999851,NA,NA,NA,NA,NA,15,1,NA,NA,NA,NA,1
"16",20,2,0,1,"stim/objects/HouseObjects/glass4.png","",0,0,"",0,"right",0.920999765,NA,NA,NA,NA,NA,16,1,NA,NA,NA,NA,1
"17",20,1,0.5,1,"stim/objects/Instruments/saxophone.png","stim/12.jpeg",1,2,"stim/12.jpeg",3,"left",0.951999903,4,2,5.245999813,1,0.639999866,17,1,1,1,0,0,1
"18",20,2,0,2,"stim/objects/Instruments/guitarcase4.png","",0,0,"",0,"right",2.710999966,NA,NA,NA,NA,NA,18,1,NA,NA,NA,NA,1
"19",20,1,0.5,2,"stim/objects/Instruments/trombone.png","stim/24.jpeg",2,4,"stim/24.jpeg",1,"left",1.720000029,2,4,4.023999929,2,2.027999878,19,1,1,1,0,0,1
"20",20,2,0,1,"stim/objects/HouseObjects/sponge3.png","",0,0,"",0,"left",1.613999844,NA,NA,NA,NA,NA,20,0,NA,NA,NA,NA,1
"21",20,2,0,2,"stim/objects/Instruments/electricguitar3.png","",0,0,"",0,"right",1.148000002,NA,NA,NA,NA,NA,21,1,NA,NA,NA,NA,1
"22",20,2,0,1,"stim/objects/HouseObjects/hairdryer4.png","",0,0,"",0,"right",1.020999908,NA,NA,NA,NA,NA,22,1,NA,NA,NA,NA,1
"23",20,2,0,2,"stim/objects/Instruments/pipepiano3.png","",0,0,"",0,"right",1.279000044,NA,NA,NA,NA,NA,23,1,NA,NA,NA,NA,1
"24",20,2,0,2,"stim/objects/Instruments/laud3.png","",0,0,"",0,"right",0.868999958,NA,NA,NA,NA,NA,24,1,NA,NA,NA,NA,1
"25",20,1,0.7,1,"stim/objects/HouseObjects/handvacuum2.png","stim/42.jpeg",4,2,"stim/42.jpeg",4,"left",1.13499999,4,2,2.203999996,3,1.43900013,25,1,1,1,0,0,1
"26",20,2,0,2,"stim/objects/Instruments/gong3.png","",0,0,"",0,"left",1.490999937,NA,NA,NA,NA,NA,26,0,NA,NA,NA,NA,1
"27",20,1,0.3,2,"stim/objects/Instruments/maraca2.png","stim/43.jpeg",4,3,"stim/43.jpeg",2,"left",0.900999784,4,4,2.320999861,4,0.920000076,27,1,0,0,0,0,1
"28",20,2,0,1,"stim/objects/HouseObjects/recyclingbin3.png","",0,0,"",0,"right",0.949999809,NA,NA,NA,NA,NA,28,1,NA,NA,NA,NA,1
"29",20,2,0,1,"stim/objects/HouseObjects/dishsoap3.png","",0,0,"",0,"right",0.978999853,NA,NA,NA,NA,NA,29,1,NA,NA,NA,NA,1
"30",20,1,0.1,2,"stim/objects/Instruments/speaker2.png","stim/63.jpeg",6,3,"stim/63.jpeg",2,"left",2.076999903,2,3,5.226000071,4,1.073999882,30,1,1,1,0,0,1
"31",20,2,0,2,"stim/objects/Instruments/flutetrans4.png","",0,0,"",0,"right",1.323999882,NA,NA,NA,NA,NA,31,1,NA,NA,NA,NA,1
"32",20,1,0.1,2,"stim/objects/Instruments/violin2.png","stim/62.jpeg",6,2,"stim/62.jpeg",4,"left",1.102999926,3,1,3.021999836,4,0.622999907,32,1,0,0,1,1,1
"33",20,2,0,2,"stim/objects/Instruments/harmonica3.png","",0,0,"",0,"left",1.771999836,NA,NA,NA,NA,NA,33,0,NA,NA,NA,NA,1
"34",20,1,0.1,2,"stim/objects/Instruments/xylophone2.png","stim/64.jpeg",6,4,"stim/64.jpeg",4,"right",0.934999943,4,4,1.54399991,1,0.847999811,34,0,1,NA,0,NA,1
"35",20,1,0.9,1,"stim/objects/HouseObjects/saw2.png","stim/61.jpeg",6,1,"stim/61.jpeg",1,"left",1.198999882,3,2,2.35199976,3,1.26699996,35,1,0,0,0,0,1
"36",20,2,0,2,"stim/objects/Instruments/xylophone3.png","",0,0,"",0,"right",1.322999954,NA,NA,NA,NA,NA,36,1,NA,NA,NA,NA,1
"37",20,2,0,2,"stim/objects/Instruments/flute4.png","",0,0,"",0,"right",0.871000051,NA,NA,NA,NA,NA,37,1,NA,NA,NA,NA,1
"38",20,1,0.5,1,"stim/objects/Instruments/record.png","stim/14.jpeg",1,4,"stim/14.jpeg",1,"left",0.840999842,4,1,2.814999819,3,1.517999887,38,1,0,0,0,0,1
"39",20,2,0,2,"stim/objects/Instruments/grandpiano4.png","",0,0,"",0,"left",1.064999819,NA,NA,NA,NA,NA,39,0,NA,NA,NA,NA,1
"40",20,1,0.3,2,"stim/objects/Instruments/frenchhorn2.png","stim/42.jpeg",4,2,"stim/42.jpeg",1,"right",1.052000046,4,3,4.066999912,1,1.048000097,40,0,0,NA,1,NA,1
"41",20,1,0.3,2,"stim/objects/Instruments/harmonica2.png","stim/42.jpeg",4,2,"stim/42.jpeg",2,"left",1.192000151,4,2,4.509000063,2,2.666999817,41,1,1,1,1,1,1
"42",20,2,0,1,"stim/objects/HouseObjects/towel3.png","",0,0,"",0,"right",1.39199996,NA,NA,NA,NA,NA,42,1,NA,NA,NA,NA,1
"43",20,2,0,2,"stim/objects/Instruments/electricdrumset4.png","",0,0,"",0,"left",1.290999889,NA,NA,NA,NA,NA,43,0,NA,NA,NA,NA,1
"44",20,1,0.7,1,"stim/objects/HouseObjects/iron2.png","stim/43.jpeg",4,3,"stim/43.jpeg",2,"left",1.305999994,1,4,3.448999882,1,1.052000046,44,1,0,0,0,0,1
"45",20,1,0.9,1,"stim/objects/HouseObjects/thermometer2.png","stim/62.jpeg",6,2,"stim/62.jpeg",2,"right",1.194999933,2,4,2.352999926,4,0.708999872,45,0,0,NA,0,NA,1
"46",20,1,0.3,1,"stim/objects/HouseObjects/dustpan2.png","stim/32.jpeg",3,2,"stim/32.jpeg",3,"right",1.065999985,1,4,4.441999912,3,1.322999954,46,0,0,NA,1,NA,1
"47",20,2,0,2,"stim/objects/Instruments/frenchhorn3.png","",0,0,"",0,"left",1.059000015,NA,NA,NA,NA,NA,47,0,NA,NA,NA,NA,1
"48",20,1,0.7,1,"stim/objects/HouseObjects/hairdryer2.png","stim/44.jpeg",4,4,"stim/44.jpeg",3,"left",1.021999836,4,3,1.803999901,4,0.88499999,48,1,0,0,0,0,1
"49",20,1,0.9,2,"stim/objects/Instruments/saxophone2.png","stim/54.jpeg",5,4,"stim/54.jpeg",1,"left",1.21999979,4,3,6.785999775,1,0.748999834,49,1,0,0,1,1,1
"50",20,2,0,1,"stim/objects/HouseObjects/dustpan4.png","",0,0,"",0,"left",1.520999908,NA,NA,NA,NA,NA,50,0,NA,NA,NA,NA,1
"51",20,2,0,1,"stim/objects/HouseObjects/dustpan3.png","",0,0,"",0,"right",0.79399991,NA,NA,NA,NA,NA,51,1,NA,NA,NA,NA,1
"52",20,1,0.5,2,"stim/objects/HouseObjects/spraybottle.png","stim/24.jpeg",2,4,"stim/24.jpeg",3,"left",1.023999929,3,1,2.442000151,1,1.299000025,52,1,0,0,0,0,1
"53",20,2,0,1,"stim/objects/HouseObjects/key3.png","",0,0,"",0,"left",0.964999914,NA,NA,NA,NA,NA,53,0,NA,NA,NA,NA,1
"54",20,1,0.9,1,"stim/objects/HouseObjects/teapot2.png","stim/61.jpeg",6,1,"stim/61.jpeg",1,"right",0.854999781,2,3,2.210999966,3,2.660000086,54,0,0,NA,0,NA,1
"55",20,2,0,2,"stim/objects/Instruments/flute3.png","",0,0,"",0,"left",1.869999886,NA,NA,NA,NA,NA,55,0,NA,NA,NA,NA,1
"56",20,2,0,2,"stim/objects/Instruments/drums4.png","",0,0,"",0,"right",0.748999834,NA,NA,NA,NA,NA,56,1,NA,NA,NA,NA,1
"57",20,1,0.1,2,"stim/objects/Instruments/triangle2.png","stim/62.jpeg",6,2,"stim/62.jpeg",2,"left",0.864000082,3,1,2.064999819,1,0.595999956,57,1,0,0,0,0,1
"58",20,1,0.1,2,"stim/objects/Instruments/trumpet2.png","stim/64.jpeg",6,4,"stim/64.jpeg",4,"left",1.155999899,4,4,5.133999825,1,0.507999897,58,1,1,1,0,0,1
"59",20,1,0.5,2,"stim/objects/Instruments/triangle.png","stim/23.jpeg",2,3,"stim/23.jpeg",2,"left",1.190999985,2,3,1.358999729,4,1.371999741,59,1,1,1,0,0,1
"60",20,2,0,1,"stim/objects/HouseObjects/ironingboard3.png","",0,0,"",0,"right",0.905999899,NA,NA,NA,NA,NA,60,1,NA,NA,NA,NA,1
"61",20,1,0.9,2,"stim/objects/Instruments/musicsheet2.png","stim/51.jpeg",5,1,"stim/51.jpeg",3,"left",1.044999838,4,1,2.5,3,1.817000151,61,1,1,1,1,1,1
"62",20,2,0,2,"stim/objects/Instruments/speaker3.png","",0,0,"",0,"right",1.069999933,NA,NA,NA,NA,NA,62,1,NA,NA,NA,NA,1
"63",20,1,0.7,2,"stim/objects/Instruments/violin.png","stim/34.jpeg",3,4,"stim/34.jpeg",4,"left",0.978999853,3,1,1.638000011,1,0.625,63,1,0,0,0,0,1
"64",20,1,0.3,2,"stim/objects/Instruments/keyboard2.png","stim/41.jpeg",4,1,"stim/41.jpeg",4,"right",1.089999914,3,3,2.676999807,4,1.14199996,64,0,0,NA,1,NA,1
"65",20,2,0,2,"stim/objects/Instruments/record3.png","",0,0,"",0,"right",1.259000063,NA,NA,NA,NA,NA,65,1,NA,NA,NA,NA,1
"66",20,2,0,2,"stim/objects/Instruments/timbal3.png","",0,0,"",0,"right",0.736999989,NA,NA,NA,NA,NA,66,1,NA,NA,NA,NA,1
"67",20,1,0.5,1,"stim/objects/Instruments/record_player.png","stim/11.jpeg",1,1,"stim/11.jpeg",3,"right",2.549000025,3,4,1.479000092,3,0.833999872,67,0,0,NA,1,NA,1
"68",20,1,0.1,1,"stim/objects/HouseObjects/pan2.png","stim/54.jpeg",5,4,"stim/54.jpeg",3,"left",7.895999908,4,4,18.56999993,3,0.881999731,68,1,1,1,1,1,1
"69",20,1,0.7,2,"stim/objects/Instruments/trumpet.png","stim/32.jpeg",3,2,"stim/32.jpeg",2,"left",0.970999956,3,1,4.605999947,4,1.105999947,69,1,0,0,0,0,1
"70",20,2,0,1,"stim/objects/HouseObjects/garbagebin4.png","",0,0,"",0,"right",1.144000053,NA,NA,NA,NA,NA,70,1,NA,NA,NA,NA,1
"71",20,2,0,1,"stim/objects/HouseObjects/handbrush4.png","",0,0,"",0,"right",1.013999939,NA,NA,NA,NA,NA,71,1,NA,NA,NA,NA,1
"72",20,2,0,2,"stim/objects/Instruments/keyboard3.png","",0,0,"",0,"right",0.673999786,NA,NA,NA,NA,NA,72,1,NA,NA,NA,NA,1
"73",20,1,0.1,1,"stim/objects/HouseObjects/remote2.png","stim/53.jpeg",5,3,"stim/53.jpeg",1,"right",1.130999804,4,2,1.594000101,4,0.578999996,73,0,0,NA,0,NA,1
"74",20,1,0.1,1,"stim/objects/HouseObjects/knife2.png","stim/51.jpeg",5,1,"stim/51.jpeg",3,"right",0.895999908,3,2,3.559000015,3,1.132999897,74,0,0,NA,1,NA,1
"75",20,2,0,2,"stim/objects/Instruments/grandpiano3.png","",0,0,"",0,"left",3.56099987,NA,NA,NA,NA,NA,75,0,NA,NA,NA,NA,1
"76",20,2,0,2,"stim/objects/Instruments/tuba3.png","",0,0,"",0,"left",0.758999825,NA,NA,NA,NA,NA,76,0,NA,NA,NA,NA,1
"77",20,1,0.5,2,"stim/objects/HouseObjects/sponge.png","stim/23.jpeg",2,3,"stim/23.jpeg",3,"left",0.776000023,4,3,7.411999941,3,0.982999802,77,1,1,1,1,1,1
"78",20,1,0.5,2,"stim/objects/Instruments/tambourine.png","stim/21.jpeg",2,1,"stim/21.jpeg",2,"left",1.506999969,2,4,3.126999855,2,1.832000017,78,1,0,0,1,1,1
"79",20,1,0.7,2,"stim/objects/Instruments/drums2.png","stim/33.jpeg",3,3,"stim/33.jpeg",1,"right",1.055999994,2,3,2.504999876,1,1.582999945,79,0,1,NA,1,NA,1
"80",20,1,0.1,2,"stim/objects/Instruments/tambourine2.png","stim/64.jpeg",6,4,"stim/64.jpeg",4,"left",1.237999916,4,4,4.590999842,4,0.728999853,80,1,1,1,1,1,1
"81",20,1,0.3,2,"stim/objects/Instruments/grandpiano2.png","stim/44.jpeg",4,4,"stim/44.jpeg",4,"left",6.353999853,1,4,2.495999813,3,0.938999891,81,1,1,1,0,0,1
"82",20,1,0.5,2,"stim/objects/Instruments/speaker.png","stim/24.jpeg",2,4,"stim/24.jpeg",1,"left",0.923000097,4,2,4.503999949,3,0.726999998,82,1,0,0,0,0,1
"83",20,2,0,1,"stim/objects/HouseObjects/spraybottle3.png","",0,0,"",0,"right",1.11199975,NA,NA,NA,NA,NA,83,1,NA,NA,NA,NA,1
"84",20,1,0.3,1,"stim/objects/HouseObjects/vacuumcleaner.png","stim/34.jpeg",3,4,"stim/34.jpeg",3,"right",0.73699975,3,1,0.809999943,1,0.513999939,84,0,0,NA,0,NA,1
"85",20,2,0,1,"stim/objects/HouseObjects/handvacuum4.png","",0,0,"",0,"right",1.029000044,NA,NA,NA,NA,NA,85,1,NA,NA,NA,NA,1
"86",20,1,0.5,1,"stim/objects/HouseObjects/safetypin.png","stim/13.jpeg",1,3,"stim/13.jpeg",1,"left",0.948999882,3,3,4.324999809,1,0.523000002,86,1,1,1,1,1,1
"87",20,1,0.5,1,"stim/objects/HouseObjects/rug.png","stim/12.jpeg",1,2,"stim/12.jpeg",2,"right",0.97300005,4,1,0.825999975,3,0.772000074,87,0,0,NA,0,NA,1
"88",20,1,0.1,1,"stim/objects/HouseObjects/pitcher2.png","stim/51.jpeg",5,1,"stim/51.jpeg",1,"left",1.166999817,2,1,2.845000029,1,0.515999794,88,1,1,1,1,1,1
"89",20,2,0,1,"stim/objects/HouseObjects/thermometer3.png","",0,0,"",0,"right",1.325999975,NA,NA,NA,NA,NA,89,1,NA,NA,NA,NA,1
"90",20,2,0,2,"stim/objects/Instruments/laud4.png","",0,0,"",0,"right",1.066999912,NA,NA,NA,NA,NA,90,1,NA,NA,NA,NA,1
"91",20,1,0.1,1,"stim/objects/HouseObjects/recyclingbin2.png","stim/52.jpeg",5,2,"stim/52.jpeg",3,"right",0.996999979,3,4,0.766000032,1,0.694999933,91,0,0,NA,0,NA,1
"92",20,2,0,2,"stim/objects/Instruments/trumpet3.png","",0,0,"",0,"left",1.136999846,NA,NA,NA,NA,NA,92,0,NA,NA,NA,NA,1
"93",20,2,0,1,"stim/objects/HouseObjects/pitcher3.png","",0,0,"",0,"right",1.386999846,NA,NA,NA,NA,NA,93,1,NA,NA,NA,NA,1
"94",20,1,0.1,1,"stim/objects/HouseObjects/rug2.png","stim/51.jpeg",5,1,"stim/51.jpeg",2,"right",0.81099987,4,4,0.677000046,2,0.863999844,94,0,0,NA,1,NA,1
"95",20,2,0,1,"stim/objects/HouseObjects/ironingboard4.png","",0,0,"",0,"left",0.950999975,NA,NA,NA,NA,NA,95,0,NA,NA,NA,NA,1
"96",20,2,0,1,"stim/objects/HouseObjects/dishsoap4.png","",0,0,"",0,"right",0.791999817,NA,NA,NA,NA,NA,96,1,NA,NA,NA,NA,1
"97",20,1,0.3,2,"stim/objects/Instruments/harp2.png","stim/43.jpeg",4,3,"stim/43.jpeg",4,"left",1.720000029,2,1,0.762999773,1,0.298999786,97,1,0,0,0,0,1
"98",20,2,0,2,"stim/objects/Instruments/tambourine3.png","",0,0,"",0,"right",1.020999908,NA,NA,NA,NA,NA,98,1,NA,NA,NA,NA,1
"99",20,2,0,2,"stim/objects/Instruments/triangle3.png","",0,0,"",0,"left",1.107999802,NA,NA,NA,NA,NA,99,0,NA,NA,NA,NA,1
"100",20,2,0,1,"stim/objects/HouseObjects/coffee4.png","",0,0,"",0,"right",0.911000013,NA,NA,NA,NA,NA,100,1,NA,NA,NA,NA,1
"101",20,2,0,2,"stim/objects/Instruments/saxophone3.png","",0,0,"",0,"left",0.904999971,NA,NA,NA,NA,NA,101,0,NA,NA,NA,NA,1
"102",20,1,0.7,2,"stim/objects/Instruments/tuba.png","stim/33.jpeg",3,3,"stim/33.jpeg",4,"left",2.816999912,3,3,4.354000092,4,0.889999866,102,1,1,1,1,1,1
"103",20,1,0.3,1,"stim/objects/HouseObjects/doormat2.png","stim/31.jpeg",3,1,"stim/31.jpeg",3,"left",0.851000071,4,1,2.372999907,1,0.279999971,103,1,1,1,0,0,1
"104",20,2,0,2,"stim/objects/Instruments/musicsheet3.png","",0,0,"",0,"right",2.414000034,NA,NA,NA,NA,NA,104,1,NA,NA,NA,NA,1
"105",20,1,0.3,2,"stim/objects/Instruments/gong2.png","stim/43.jpeg",4,3,"stim/43.jpeg",4,"left",1.122999907,4,1,2.907999992,4,1.236999989,105,1,0,0,1,1,1
"106",20,1,0.3,1,"stim/objects/HouseObjects/dishsoap2.png","stim/34.jpeg",3,4,"stim/34.jpeg",1,"left",2.81799984,4,4,2.575999975,4,0.979999781,106,1,1,1,0,0,1
"107",20,2,0,2,"stim/objects/Instruments/electricguitar4.png","",0,0,"",0,"right",0.937000036,NA,NA,NA,NA,NA,107,1,NA,NA,NA,NA,1
"108",20,2,0,1,"stim/objects/HouseObjects/handbrush3.png","",0,0,"",0,"right",0.732000113,NA,NA,NA,NA,NA,108,1,NA,NA,NA,NA,1
"109",20,2,0,1,"stim/objects/HouseObjects/coffee3.png","",0,0,"",0,"right",0.674999952,NA,NA,NA,NA,NA,109,1,NA,NA,NA,NA,1
"110",20,1,0.5,1,"stim/objects/HouseObjects/recyclingbin.png","stim/13.jpeg",1,3,"stim/13.jpeg",4,"left",1.123999834,1,4,3.125999928,3,0.728999853,110,1,0,0,0,0,1
"111",20,1,0.5,2,"stim/objects/HouseObjects/teapot.png","stim/21.jpeg",2,1,"stim/21.jpeg",4,"left",1.977999926,3,2,1.638000011,1,0.4599998,111,1,0,0,0,0,1
"112",20,2,0,2,"stim/objects/Instruments/oboe3.png","",0,0,"",0,"right",1.214999914,NA,NA,NA,NA,NA,112,1,NA,NA,NA,NA,1
"113",20,2,0,2,"stim/objects/Instruments/gong4.png","",0,0,"",0,"right",0.846999884,NA,NA,NA,NA,NA,113,1,NA,NA,NA,NA,1
"114",20,2,0,2,"stim/objects/Instruments/maraca4.png","",0,0,"",0,"right",0.812000036,NA,NA,NA,NA,NA,114,1,NA,NA,NA,NA,1
"115",20,2,0,2,"stim/objects/Instruments/electricdrumset3.png","",0,0,"",0,"right",0.983999968,NA,NA,NA,NA,NA,115,1,NA,NA,NA,NA,1
"116",20,1,0.9,2,"stim/objects/Instruments/panflute2.png","stim/54.jpeg",5,4,"stim/54.jpeg",3,"right",2.843999863,4,3,2.136000156,3,0.826999903,116,0,0,NA,1,NA,1
"117",20,1,0.1,1,"stim/objects/HouseObjects/match2.png","stim/53.jpeg",5,3,"stim/53.jpeg",3,"left",1.233999968,1,4,2.166999817,4,0.644000053,117,1,0,0,0,0,1
"118",20,1,0.3,2,"stim/objects/Instruments/hihat2.png","stim/44.jpeg",4,4,"stim/44.jpeg",2,"right",0.950000048,3,2,1.267999887,3,0.649999857,118,0,0,NA,0,NA,1
"119",20,1,0.7,2,"stim/objects/Instruments/electricguitar2.png","stim/31.jpeg",3,1,"stim/31.jpeg",1,"right",0.787999868,1,2,1.934000015,1,0.61500001,119,0,0,NA,1,NA,1
"120",20,1,0.5,1,"stim/objects/HouseObjects/rubbergloves.png","stim/11.jpeg",1,1,"stim/11.jpeg",4,"left",1.24000001,4,4,5.319999933,3,1.056999922,120,1,0,0,0,0,1
"121",20,1,0.5,2,"stim/objects/HouseObjects/saw.png","stim/21.jpeg",2,1,"stim/21.jpeg",1,"left",1.200000048,3,4,4.404000044,4,0.298000097,121,1,0,0,0,0,1
"122",20,1,0.9,1,"stim/objects/HouseObjects/wateringcan2.png","stim/62.jpeg",6,2,"stim/62.jpeg",4,"right",1.05099988,4,1,1.91899991,4,0.595000029,122,0,0,NA,1,NA,1
"123",20,2,0,1,"stim/objects/HouseObjects/rug3.png","",0,0,"",0,"right",2.887999773,NA,NA,NA,NA,NA,123,1,NA,NA,NA,NA,1
"124",20,2,0,1,"stim/objects/HouseObjects/scale3.png","",0,0,"",0,"right",0.900000095,NA,NA,NA,NA,NA,124,1,NA,NA,NA,NA,1
"125",20,1,0.3,1,"stim/objects/HouseObjects/cushion2.png","stim/33.jpeg",3,3,"stim/33.jpeg",4,"left",1.066999912,4,1,1.697000027,2,1.079999924,125,1,0,0,0,0,1
"126",20,1,0.1,2,"stim/objects/Instruments/vuvuzela2.png","stim/63.jpeg",6,3,"stim/63.jpeg",2,"right",0.797999859,4,2,1.368000031,1,0.78399992,126,0,0,NA,0,NA,1
"127",20,1,0.7,2,"stim/objects/Instruments/xylophone.png","stim/32.jpeg",3,2,"stim/32.jpeg",2,"right",0.905999899,2,1,2.248999834,3,1.261999846,127,0,0,NA,0,NA,1
"128",20,1,0.7,1,"stim/objects/HouseObjects/ironingboard2.png","stim/44.jpeg",4,4,"stim/44.jpeg",1,"left",1.854000092,4,3,10.13899994,2,0.920000076,128,1,0,0,0,0,1
"129",20,2,0,2,"stim/objects/Instruments/flutetrans3.png","",0,0,"",0,"right",1.835999966,NA,NA,NA,NA,NA,129,1,NA,NA,NA,NA,1
"130",20,1,0.9,1,"stim/objects/HouseObjects/towel2.png","stim/64.jpeg",6,4,"stim/64.jpeg",2,"left",1.096999884,3,2,1.884999752,2,0.693000078,130,1,0,0,1,1,1
"131",20,2,0,1,"stim/objects/HouseObjects/vacuumcleaner3.png","",0,0,"",0,"right",0.688999891,NA,NA,NA,NA,NA,131,1,NA,NA,NA,NA,1
"132",20,2,0,1,"stim/objects/HouseObjects/glass3.png","",0,0,"",0,"left",0.871999979,NA,NA,NA,NA,NA,132,0,NA,NA,NA,NA,1
"133",20,2,0,1,"stim/objects/HouseObjects/rubbergloves3.png","",0,0,"",0,"right",0.807999849,NA,NA,NA,NA,NA,133,1,NA,NA,NA,NA,1
"134",20,1,0.9,2,"stim/objects/Instruments/marimba2.png","stim/53.jpeg",5,3,"stim/53.jpeg",1,"right",0.809000015,4,3,0.97699976,1,0.476999998,134,0,1,NA,1,NA,1
"135",20,1,0.9,2,"stim/objects/Instruments/pipepiano2.png","stim/51.jpeg",5,1,"stim/51.jpeg",1,"left",0.864000082,4,1,2.102999926,1,2.480999947,135,1,1,1,1,1,1
"136",20,2,0,1,"stim/objects/HouseObjects/iron4.png","",0,0,"",0,"right",0.821999788,NA,NA,NA,NA,NA,136,1,NA,NA,NA,NA,1
"137",20,2,0,1,"stim/objects/HouseObjects/iron3.png","",0,0,"",0,"right",1.085999966,NA,NA,NA,NA,NA,137,1,NA,NA,NA,NA,1
"138",20,1,0.7,1,"stim/objects/HouseObjects/key2.png","stim/41.jpeg",4,1,"stim/41.jpeg",1,"left",0.746999979,4,1,2.42599988,1,0.263999939,138,1,1,1,1,1,1
"139",20,2,0,1,"stim/objects/HouseObjects/garbagebin3.png","",0,0,"",0,"right",1.316999912,NA,NA,NA,NA,NA,139,1,NA,NA,NA,NA,1
"140",20,1,0.9,2,"stim/objects/Instruments/record2.png","stim/52.jpeg",5,2,"stim/52.jpeg",2,"right",0.845999956,4,4,1.008999825,1,0.595999956,140,0,0,NA,0,NA,1
"141",20,2,0,1,"stim/objects/HouseObjects/glassmop3.png","",0,0,"",0,"right",1.7099998,NA,NA,NA,NA,NA,141,1,NA,NA,NA,NA,1
"142",20,2,0,1,"stim/objects/HouseObjects/flyswatter4.png","",0,0,"",0,"right",0.894999981,NA,NA,NA,NA,NA,142,1,NA,NA,NA,NA,1
"143",20,1,0.7,2,"stim/objects/Instruments/flutetrans2.png","stim/33.jpeg",3,3,"stim/33.jpeg",1,"left",2.687999725,1,1,1.072000027,1,0.93900013,143,1,0,0,1,1,1
"144",20,2,0,1,"stim/objects/HouseObjects/flyswatter3.png","",0,0,"",0,"right",1.46999979,NA,NA,NA,NA,NA,144,1,NA,NA,NA,NA,1
"145",20,2,0,2,"stim/objects/Instruments/drums3.png","",0,0,"",0,"right",0.835000038,NA,NA,NA,NA,NA,145,1,NA,NA,NA,NA,1
"146",20,1,0.3,1,"stim/objects/HouseObjects/wateringcan.png","stim/31.jpeg",3,1,"stim/31.jpeg",1,"left",1.344000101,2,2,1.072000027,4,1.235999823,146,1,0,0,0,0,1
"147",20,2,0,2,"stim/objects/Instruments/violin3.png","",0,0,"",0,"right",1.032999992,NA,NA,NA,NA,NA,147,1,NA,NA,NA,NA,1
"148",20,1,0.7,1,"stim/objects/HouseObjects/garbagebin2.png","stim/41.jpeg",4,1,"stim/41.jpeg",1,"left",1.032999754,4,4,4.31799984,4,0.59499979,148,1,0,0,0,0,1
"149",20,2,0,1,"stim/objects/HouseObjects/safetypin3.png","",0,0,"",0,"left",0.999999762,NA,NA,NA,NA,NA,149,0,NA,NA,NA,NA,1
"150",20,1,0.5,2,"stim/objects/Instruments/timbal.png","stim/22.jpeg",2,2,"stim/22.jpeg",2,"right",1.441999912,4,4,1.578999996,1,0.453999996,150,0,0,NA,0,NA,1
"151",20,2,0,2,"stim/objects/Instruments/record_player3.png","",0,0,"",0,"right",0.865999937,NA,NA,NA,NA,NA,151,1,NA,NA,NA,NA,1
"152",20,2,0,1,"stim/objects/HouseObjects/lintroller3.png","",0,0,"",0,"right",1.204999924,NA,NA,NA,NA,NA,152,1,NA,NA,NA,NA,1
"153",20,2,0,2,"stim/objects/Instruments/musicstand3.png","",0,0,"",0,"right",3.820999861,NA,NA,NA,NA,NA,153,1,NA,NA,NA,NA,1
"154",20,2,0,2,"stim/objects/Instruments/keyboard4.png","",0,0,"",0,"right",0.803999901,NA,NA,NA,NA,NA,154,1,NA,NA,NA,NA,1
"155",20,2,0,1,"stim/objects/HouseObjects/doormat3.png","",0,0,"",0,"right",1.074999809,NA,NA,NA,NA,NA,155,1,NA,NA,NA,NA,1
"156",20,2,0,1,"stim/objects/HouseObjects/remote3.png","",0,0,"",0,"left",3.072999954,NA,NA,NA,NA,NA,156,0,NA,NA,NA,NA,1
"157",20,1,0.9,2,"stim/objects/Instruments/record_player2.png","stim/53.jpeg",5,3,"stim/53.jpeg",2,"right",1.031999826,4,1,1.082000017,4,0.54399991,157,0,0,NA,0,NA,1
"158",20,2,0,2,"stim/objects/Instruments/maraca3.png","",0,0,"",0,"left",1.264999866,NA,NA,NA,NA,NA,158,0,NA,NA,NA,NA,1
"159",20,2,0,2,"stim/objects/Instruments/harmonica4.png","",0,0,"",0,"right",1.297999859,NA,NA,NA,NA,NA,159,1,NA,NA,NA,NA,1
"160",20,1,0.3,1,"stim/objects/HouseObjects/thermometer.png","stim/31.jpeg",3,1,"stim/31.jpeg",1,"right",2.484999895,4,2,0.838999987,1,0.490999937,160,0,0,NA,1,NA,1
"161",20,1,0.7,1,"stim/objects/HouseObjects/glass2.png","stim/42.jpeg",4,2,"stim/42.jpeg",2,"left",0.833999872,2,3,1.138000011,2,1.888999939,161,1,0,0,1,1,1
"162",20,1,0.9,1,"stim/objects/HouseObjects/sponge2.png","stim/63.jpeg",6,3,"stim/63.jpeg",4,"left",0.917999983,4,1,1.483999968,3,0.828000069,162,1,0,0,0,0,1
"163",20,1,0.7,1,"stim/objects/HouseObjects/glassmop2.png","stim/43.jpeg",4,3,"stim/43.jpeg",3,"right",0.871999979,1,3,1.645999908,1,0.60800004,163,0,1,NA,0,NA,1
"164",20,2,0,2,"stim/objects/Instruments/metronome3.png","",0,0,"",0,"left",1.480000019,NA,NA,NA,NA,NA,164,0,NA,NA,NA,NA,1
"165",20,1,0.9,1,"stim/objects/HouseObjects/thread2.png","stim/63.jpeg",6,3,"stim/63.jpeg",3,"left",0.825999975,3,3,2.494999886,1,0.60199976,165,1,1,1,0,0,1
"166",20,1,0.3,1,"stim/objects/HouseObjects/towel.png","stim/33.jpeg",3,3,"stim/33.jpeg",4,"left",0.947999954,3,3,1.481999874,3,1.864999771,166,1,1,1,0,0,1
"167",20,1,0.9,2,"stim/objects/Instruments/musicstand2.png","stim/52.jpeg",5,2,"stim/52.jpeg",4,"right",1.154999971,2,2,2.561999798,4,1.065000057,167,0,1,NA,1,NA,1
"168",20,1,0.1,2,"stim/objects/Instruments/timbal2.png","stim/61.jpeg",6,1,"stim/61.jpeg",2,"left",1.01699996,2,3,1.377000093,4,0.342000008,168,1,0,0,0,0,1
"169",20,1,0.5,1,"stim/objects/Instruments/pipepiano.png","stim/13.jpeg",1,3,"stim/13.jpeg",2,"left",0.855999708,3,2,2.220999956,1,0.756999969,169,1,0,0,0,0,1
"170",20,1,0.1,2,"stim/objects/Instruments/trombone2.png","stim/63.jpeg",6,3,"stim/63.jpeg",4,"right",2.828999996,2,2,2.003000021,3,1.25999999,170,0,0,NA,0,NA,1
"171",20,1,0.9,1,"stim/objects/HouseObjects/spraybottle2.png","stim/64.jpeg",6,4,"stim/64.jpeg",4,"right",1.292999983,3,3,2.296999931,2,1.776999712,171,0,0,NA,0,NA,1
"172",20,2,0,1,"stim/objects/HouseObjects/hairdryer3.png","",0,0,"",0,"left",1.664999962,NA,NA,NA,NA,NA,172,0,NA,NA,NA,NA,1
"173",20,1,0.1,1,"stim/objects/HouseObjects/lintroller2.png","stim/52.jpeg",5,2,"stim/52.jpeg",3,"right",0.769999743,4,1,0.660000086,1,0.363999844,173,0,0,NA,0,NA,1
"174",20,1,0.7,2,"stim/objects/Instruments/flute2.png","stim/32.jpeg",3,2,"stim/32.jpeg",2,"left",3.134000063,3,4,3.774999857,2,0.715999842,174,1,0,0,1,1,1
"175",20,2,0,1,"stim/objects/HouseObjects/knife3.png","",0,0,"",0,"right",1.092000008,NA,NA,NA,NA,NA,175,1,NA,NA,NA,NA,1
"176",20,1,0.9,1,"stim/objects/HouseObjects/scale2.png","stim/62.jpeg",6,2,"stim/62.jpeg",3,"left",0.964999914,4,3,3.358999968,1,0.389999866,176,1,0,0,0,0,1
"177",20,2,0,2,"stim/objects/Instruments/harp4.png","",0,0,"",0,"left",1.190000057,NA,NA,NA,NA,NA,177,0,NA,NA,NA,NA,1
"178",20,1,0.5,1,"stim/objects/HouseObjects/remote.png","stim/14.jpeg",1,4,"stim/14.jpeg",1,"left",1.056999922,4,1,4.781999826,1,1.147000074,178,1,0,0,1,1,1
"179",20,1,0.5,1,"stim/objects/Instruments/panflute.png","stim/12.jpeg",1,2,"stim/12.jpeg",1,"right",1.124000072,2,2,1.448999882,4,0.743999958,179,0,1,NA,0,NA,1
"180",20,2,0,2,"stim/objects/Instruments/marimba3.png","",0,0,"",0,"right",1.063999891,NA,NA,NA,NA,NA,180,1,NA,NA,NA,NA,1
"181",20,2,0,1,"stim/objects/HouseObjects/key4.png","",0,0,"",0,"left",1.398000002,NA,NA,NA,NA,NA,181,0,NA,NA,NA,NA,1
"182",20,1,0.5,2,"stim/objects/HouseObjects/scale.png","stim/22.jpeg",2,2,"stim/22.jpeg",2,"left",0.903000116,3,3,3.072999954,4,0.524999857,182,1,0,0,0,0,1
"183",20,2,0,1,"stim/objects/HouseObjects/doormat4.png","",0,0,"",0,"right",0.940999985,NA,NA,NA,NA,NA,183,1,NA,NA,NA,NA,1
"184",20,1,0.7,2,"stim/objects/Instruments/vuvuzela.png","stim/31.jpeg",3,1,"stim/31.jpeg",3,"left",0.961999893,3,1,1.419999838,1,0.557999849,184,1,1,1,0,0,1
"185",20,1,0.3,2,"stim/objects/Instruments/laud2.png","stim/42.jpeg",4,2,"stim/42.jpeg",3,"right",2.589999914,1,2,2.225999832,3,1.029999733,185,0,1,NA,1,NA,1
"186",20,1,0.1,1,"stim/objects/HouseObjects/safetypin2.png","stim/52.jpeg",5,2,"stim/52.jpeg",4,"right",2.512999773,2,3,1.254999876,4,1.600000143,186,0,0,NA,1,NA,1
"187",20,1,0.3,1,"stim/objects/HouseObjects/coffee2.png","stim/32.jpeg",3,2,"stim/32.jpeg",2,"left",1.149999857,2,2,1.005000114,4,0.961999893,187,1,1,1,0,0,1
"188",20,2,0,1,"stim/objects/HouseObjects/thread3.png","",0,0,"",0,"right",1.867000103,NA,NA,NA,NA,NA,188,1,NA,NA,NA,NA,1
"189",20,1,0.3,1,"stim/objects/HouseObjects/thread.png","stim/32.jpeg",3,2,"stim/32.jpeg",1,"left",0.85800004,4,4,5.334000111,2,0.77699995,189,1,0,0,0,0,1
"190",20,2,0,1,"stim/objects/HouseObjects/pan3.png","",0,0,"",0,"left",0.726000071,NA,NA,NA,NA,NA,190,0,NA,NA,NA,NA,1
"191",20,1,0.9,2,"stim/objects/Instruments/oboe2.png","stim/53.jpeg",5,3,"stim/53.jpeg",4,"right",0.795999765,3,2,0.960999966,1,4.861999989,191,0,0,NA,0,NA,1
"192",20,2,0,2,"stim/objects/Instruments/panflute3.png","",0,0,"",0,"right",1.181999922,NA,NA,NA,NA,NA,192,1,NA,NA,NA,NA,1
"193",20,2,0,2,"stim/objects/Instruments/trombone3.png","",0,0,"",0,"right",1.207999945,NA,NA,NA,NA,NA,193,1,NA,NA,NA,NA,1
"194",20,1,0.7,1,"stim/objects/HouseObjects/flyswatter2.png","stim/44.jpeg",4,4,"stim/44.jpeg",1,"left",0.934999704,4,1,1.737999916,4,1.521999836,194,1,0,0,0,0,1
"195",20,2,0,1,"stim/objects/HouseObjects/teapot3.png","",0,0,"",0,"right",1.782999992,NA,NA,NA,NA,NA,195,1,NA,NA,NA,NA,1
"196",20,2,0,2,"stim/objects/Instruments/hihat4.png","",0,0,"",0,"left",1.197000027,NA,NA,NA,NA,NA,196,0,NA,NA,NA,NA,1
"197",20,2,0,2,"stim/objects/Instruments/hihat3.png","",0,0,"",0,"right",0.788000107,NA,NA,NA,NA,NA,197,1,NA,NA,NA,NA,1
"198",20,2,0,2,"stim/objects/Instruments/vuvuzela3.png","",0,0,"",0,"right",0.788000107,NA,NA,NA,NA,NA,198,1,NA,NA,NA,NA,1
"199",20,1,0.1,2,"stim/objects/Instruments/tuba2.png","stim/61.jpeg",6,1,"stim/61.jpeg",2,"right",0.829999924,4,4,1.960999727,4,0.445999861,199,0,0,NA,0,NA,1
"200",20,2,0,1,"stim/objects/HouseObjects/glassmop4.png","",0,0,"",0,"right",0.849999905,NA,NA,NA,NA,NA,200,1,NA,NA,NA,NA,1
