"","obj_file","X.x","participant.x","trialN.x","trial_cond","scn_file.x","scn_cat","scn_inst","scn_condition","fillers","obj_cat","obj_cat_num","quadrant","corr_ans","key_resp_trial.keys","key_resp_trial.rt","trial_acc","trial_acc_manual","group.x","practice","X.y","participant.y","OvsN","PE_level","object_cat","scn_file.y","corr_scn_cat","corr_scn_inst","scn_file.1","corr_loc","key_resp_id.keys","key_resp_id.rt","key_resp_conf.keys","key_resp_assoc.keys","key_resp_assoc.rt","key_resp_loc.keys","key_resp_loc.rt","trialN.y","id_acc","assoc.acc","cond_assoc","loc.acc","cond_loc","group.y"
"60","stim/objects/HouseObjects/blender2.png",1,35,1,0.1,"stim/52.jpeg",5,2,3,NA,"HouseObjects",1,3,"left","",NA,0,0,1,1,NA,NA,NA,NA,NA,NA,NA,NA,NA,NA,NA,NA,NA,NA,NA,NA,NA,NA,NA,NA,NA,NA,NA,NA
"100","stim/objects/HouseObjects/clothesdryingrack2.png",2,35,2,0.9,"stim/63.jpeg",6,3,3,NA,"HouseObjects",1,4,"left","left",0.555000067,1,1,1,1,NA,NA,NA,NA,NA,NA,NA,NA,NA,NA,NA,NA,NA,NA,NA,NA,NA,NA,NA,NA,NA,NA,NA,NA
"67","stim/objects/HouseObjects/broom.png",3,35,3,0.5,"stim/24.jpeg",2,4,1,NA,"HouseObjects",1,4,"left","right",0.475999832,0,0,1,1,NA,NA,NA,NA,NA,NA,NA,NA,NA,NA,NA,NA,NA,NA,NA,NA,NA,NA,NA,NA,NA,NA,NA,NA
"109","stim/objects/HouseObjects/clothespin.png",4,35,4,0.3,"stim/34.jpeg",3,4,2,NA,"HouseObjects",1,4,"left","right",0.667000055,0,0,1,1,NA,NA,NA,NA,NA,NA,NA,NA,NA,NA,NA,NA,NA,NA,NA,NA,NA,NA,NA,NA,NA,NA,NA,NA
"167","stim/objects/Instruments/bassguitar.png",5,35,5,0.5,"stim/22.jpeg",2,2,1,NA,"Instruments",2,2,"right","",NA,0,0,1,1,NA,NA,NA,NA,NA,NA,NA,NA,NA,NA,NA,NA,NA,NA,NA,NA,NA,NA,NA,NA,NA,NA,NA,NA
"6","stim/objects/HouseObjects/ashtray2.png",6,35,6,0.7,"stim/41.jpeg",4,1,2,NA,"HouseObjects",1,2,"left","",NA,0,0,1,1,NA,NA,NA,NA,NA,NA,NA,NA,NA,NA,NA,NA,NA,NA,NA,NA,NA,NA,NA,NA,NA,NA,NA,NA
"200","stim/objects/Instruments/chime2.png",7,35,7,0.9,"stim/54.jpeg",5,4,3,NA,"Instruments",2,3,"right","left",0.506000042,0,0,1,1,NA,NA,NA,NA,NA,NA,NA,NA,NA,NA,NA,NA,NA,NA,NA,NA,NA,NA,NA,NA,NA,NA,NA,NA
"186","stim/objects/Instruments/cello2.png",8,35,8,0.9,"stim/53.jpeg",5,3,3,NA,"Instruments",2,1,"right","right",0.528000116,1,1,1,1,NA,NA,NA,NA,NA,NA,NA,NA,NA,NA,NA,NA,NA,NA,NA,NA,NA,NA,NA,NA,NA,NA,NA,NA
"225","stim/objects/Instruments/cymbal.png",9,35,9,0.7,"stim/33.jpeg",3,3,2,NA,"Instruments",2,2,"right","right",0.644000053,1,1,1,1,NA,NA,NA,NA,NA,NA,NA,NA,NA,NA,NA,NA,NA,NA,NA,NA,NA,NA,NA,NA,NA,NA,NA,NA
"112","stim/objects/HouseObjects/clothespin2.png",10,35,10,0.9,"stim/64.jpeg",6,4,3,NA,"HouseObjects",1,1,"left","left",0.617999792,1,1,1,1,NA,NA,NA,NA,NA,NA,NA,NA,NA,NA,NA,NA,NA,NA,NA,NA,NA,NA,NA,NA,NA,NA,NA,NA
"76","stim/objects/HouseObjects/bucket2.png",11,35,11,0.9,"stim/61.jpeg",6,1,3,NA,"HouseObjects",1,3,"left","left",0.542999983,1,1,1,1,NA,NA,NA,NA,NA,NA,NA,NA,NA,NA,NA,NA,NA,NA,NA,NA,NA,NA,NA,NA,NA,NA,NA,NA
"158","stim/objects/Instruments/bassdrum2.png",12,35,12,0.9,"stim/51.jpeg",5,1,3,NA,"Instruments",2,4,"right","right",0.643999815,1,1,1,1,NA,NA,NA,NA,NA,NA,NA,NA,NA,NA,NA,NA,NA,NA,NA,NA,NA,NA,NA,NA,NA,NA,NA,NA
"18","stim/objects/HouseObjects/ballofstring2.png",13,35,13,0.7,"stim/42.jpeg",4,2,2,NA,"HouseObjects",1,4,"left","left",0.603999853,1,1,1,1,NA,NA,NA,NA,NA,NA,NA,NA,NA,NA,NA,NA,NA,NA,NA,NA,NA,NA,NA,NA,NA,NA,NA,NA
"137","stim/objects/Instruments/balalaika.png",14,35,14,0.5,"stim/13.jpeg",1,3,1,NA,"Instruments",2,2,"right","left",0.566999912,0,0,1,1,NA,NA,NA,NA,NA,NA,NA,NA,NA,NA,NA,NA,NA,NA,NA,NA,NA,NA,NA,NA,NA,NA,NA,NA
"172","stim/objects/Instruments/bassguitar2.png",15,35,15,0.9,"stim/52.jpeg",5,2,3,NA,"Instruments",2,1,"right","right",0.56799984,1,1,1,1,NA,NA,NA,NA,NA,NA,NA,NA,NA,NA,NA,NA,NA,NA,NA,NA,NA,NA,NA,NA,NA,NA,NA,NA
"97","stim/objects/HouseObjects/clothesdryingrack.png",16,35,16,0.3,"stim/33.jpeg",3,3,2,NA,"HouseObjects",1,1,"left","right",0.451999903,0,0,1,1,NA,NA,NA,NA,NA,NA,NA,NA,NA,NA,NA,NA,NA,NA,NA,NA,NA,NA,NA,NA,NA,NA,NA,NA
"240","stim/objects/Instruments/doublebass2.png",17,35,17,0.1,"stim/64.jpeg",6,4,3,NA,"Instruments",2,3,"right","left",0.56799984,0,0,1,1,NA,NA,NA,NA,NA,NA,NA,NA,NA,NA,NA,NA,NA,NA,NA,NA,NA,NA,NA,NA,NA,NA,NA,NA
"30","stim/objects/HouseObjects/barbecuelighter2.png",18,35,18,0.7,"stim/43.jpeg",4,3,2,NA,"HouseObjects",1,2,"left","left",0.661999702,1,1,1,1,NA,NA,NA,NA,NA,NA,NA,NA,NA,NA,NA,NA,NA,NA,NA,NA,NA,NA,NA,NA,NA,NA,NA,NA
"181","stim/objects/Instruments/cello.png",19,35,19,0.5,"stim/23.jpeg",2,3,1,NA,"Instruments",2,4,"right","left",0.68599987,0,0,1,1,NA,NA,NA,NA,NA,NA,NA,NA,NA,NA,NA,NA,NA,NA,NA,NA,NA,NA,NA,NA,NA,NA,NA,NA
"66","stim/objects/HouseObjects/bottle2.png",20,35,20,0.1,"stim/53.jpeg",5,3,3,NA,"HouseObjects",1,2,"left","right",0.572999954,0,0,1,1,NA,NA,NA,NA,NA,NA,NA,NA,NA,NA,NA,NA,NA,NA,NA,NA,NA,NA,NA,NA,NA,NA,NA,NA
"101","stim/objects/HouseObjects/clothesdryingrack2.png",21,35,21,0.9,"stim/63.jpeg",6,3,3,NA,"HouseObjects",1,3,"left","left",0.659999847,1,1,1,1,NA,NA,NA,NA,NA,NA,NA,NA,NA,NA,NA,NA,NA,NA,NA,NA,NA,NA,NA,NA,NA,NA,NA,NA
"209","stim/objects/Instruments/clarinet.png",22,35,22,0.7,"stim/31.jpeg",3,1,2,NA,"Instruments",2,1,"right","right",0.5849998,1,1,1,1,NA,NA,NA,NA,NA,NA,NA,NA,NA,NA,NA,NA,NA,NA,NA,NA,NA,NA,NA,NA,NA,NA,NA,NA
"159","stim/objects/Instruments/bassdrum2.png",23,35,23,0.9,"stim/51.jpeg",5,1,3,NA,"Instruments",2,1,"right","right",0.565999746,1,1,1,1,NA,NA,NA,NA,NA,NA,NA,NA,NA,NA,NA,NA,NA,NA,NA,NA,NA,NA,NA,NA,NA,NA,NA,NA
"68","stim/objects/HouseObjects/broom.png",24,35,24,0.5,"stim/24.jpeg",2,4,1,NA,"HouseObjects",1,3,"left","left",0.580999851,1,1,1,1,NA,NA,NA,NA,NA,NA,NA,NA,NA,NA,NA,NA,NA,NA,NA,NA,NA,NA,NA,NA,NA,NA,NA,NA
"145","stim/objects/Instruments/banjo.png",25,35,25,0.5,"stim/14.jpeg",1,4,1,NA,"Instruments",2,3,"right","right",0.40899992,1,1,1,1,NA,NA,NA,NA,NA,NA,NA,NA,NA,NA,NA,NA,NA,NA,NA,NA,NA,NA,NA,NA,NA,NA,NA,NA
"233","stim/objects/Instruments/doublebass.png",26,35,26,0.7,"stim/34.jpeg",3,4,2,NA,"Instruments",2,3,"right","left",0.601999998,0,0,1,1,NA,NA,NA,NA,NA,NA,NA,NA,NA,NA,NA,NA,NA,NA,NA,NA,NA,NA,NA,NA,NA,NA,NA,NA
"42","stim/objects/HouseObjects/basket2.png",27,35,27,0.7,"stim/44.jpeg",4,4,2,NA,"HouseObjects",1,3,"left","right",0.524999857,0,0,1,1,NA,NA,NA,NA,NA,NA,NA,NA,NA,NA,NA,NA,NA,NA,NA,NA,NA,NA,NA,NA,NA,NA,NA,NA
"73","stim/objects/HouseObjects/bucket.png",28,35,28,0.3,"stim/31.jpeg",3,1,2,NA,"HouseObjects",1,3,"left","right",0.644000053,0,0,1,1,NA,NA,NA,NA,NA,NA,NA,NA,NA,NA,NA,NA,NA,NA,NA,NA,NA,NA,NA,NA,NA,NA,NA,NA
"61","stim/objects/HouseObjects/bottle.png",29,35,29,0.5,"stim/23.jpeg",2,3,1,NA,"HouseObjects",1,1,"left","",NA,0,0,1,1,NA,NA,NA,NA,NA,NA,NA,NA,NA,NA,NA,NA,NA,NA,NA,NA,NA,NA,NA,NA,NA,NA,NA,NA
"62","stim/objects/HouseObjects/bottle.png",30,35,30,0.5,"stim/23.jpeg",2,3,1,NA,"HouseObjects",1,3,"left","left",0.557999849,1,1,1,1,NA,NA,NA,NA,NA,NA,NA,NA,NA,NA,NA,NA,NA,NA,NA,NA,NA,NA,NA,NA,NA,NA,NA,NA
"31","stim/objects/HouseObjects/barbecuelighter2.png",31,35,31,0.7,"stim/43.jpeg",4,3,2,NA,"HouseObjects",1,4,"left","right",0.694999933,0,0,1,1,NA,NA,NA,NA,NA,NA,NA,NA,NA,NA,NA,NA,NA,NA,NA,NA,NA,NA,NA,NA,NA,NA,NA,NA
"121","stim/objects/Instruments/accordion.png",32,35,32,0.5,"stim/11.jpeg",1,1,1,NA,"Instruments",2,3,"right","left",0.654000044,0,0,1,1,NA,NA,NA,NA,NA,NA,NA,NA,NA,NA,NA,NA,NA,NA,NA,NA,NA,NA,NA,NA,NA,NA,NA,NA
"168","stim/objects/Instruments/bassguitar.png",33,35,33,0.5,"stim/22.jpeg",2,2,1,NA,"Instruments",2,1,"right","left",0.687999964,0,0,1,1,NA,NA,NA,NA,NA,NA,NA,NA,NA,NA,NA,NA,NA,NA,NA,NA,NA,NA,NA,NA,NA,NA,NA,NA
"226","stim/objects/Instruments/cymbal.png",34,35,34,0.7,"stim/33.jpeg",3,3,2,NA,"Instruments",2,1,"right","right",0.559999943,1,1,1,1,NA,NA,NA,NA,NA,NA,NA,NA,NA,NA,NA,NA,NA,NA,NA,NA,NA,NA,NA,NA,NA,NA,NA,NA
"49","stim/objects/HouseObjects/bleachbottle.png",35,35,35,0.5,"stim/21.jpeg",2,1,1,NA,"HouseObjects",1,1,"left","left",0.625,1,1,1,1,NA,NA,NA,NA,NA,NA,NA,NA,NA,NA,NA,NA,NA,NA,NA,NA,NA,NA,NA,NA,NA,NA,NA,NA
"153","stim/objects/Instruments/bassdrum.png",36,35,36,0.5,"stim/21.jpeg",2,1,1,NA,"Instruments",2,2,"right","left",0.617000103,0,0,1,1,NA,NA,NA,NA,NA,NA,NA,NA,NA,NA,NA,NA,NA,NA,NA,NA,NA,NA,NA,NA,NA,NA,NA,NA
"187","stim/objects/Instruments/cello2.png",37,35,37,0.9,"stim/53.jpeg",5,3,3,NA,"Instruments",2,2,"right","right",0.534999847,1,1,1,1,NA,NA,NA,NA,NA,NA,NA,NA,NA,NA,NA,NA,NA,NA,NA,NA,NA,NA,NA,NA,NA,NA,NA,NA
"201","stim/objects/Instruments/chime2.png",38,35,38,0.9,"stim/54.jpeg",5,4,3,NA,"Instruments",2,4,"right","right",0.677999973,1,1,1,1,NA,NA,NA,NA,NA,NA,NA,NA,NA,NA,NA,NA,NA,NA,NA,NA,NA,NA,NA,NA,NA,NA,NA,NA
"69","stim/objects/HouseObjects/broom.png",39,35,39,0.5,"stim/24.jpeg",2,4,1,NA,"HouseObjects",1,2,"left","left",0.648999929,1,1,1,1,NA,NA,NA,NA,NA,NA,NA,NA,NA,NA,NA,NA,NA,NA,NA,NA,NA,NA,NA,NA,NA,NA,NA,NA
"77","stim/objects/HouseObjects/bucket2.png",40,35,40,0.9,"stim/61.jpeg",6,1,3,NA,"HouseObjects",1,2,"left","left",0.559999943,1,1,1,1,NA,NA,NA,NA,NA,NA,NA,NA,NA,NA,NA,NA,NA,NA,NA,NA,NA,NA,NA,NA,NA,NA,NA,NA
"1","stim/objects/HouseObjects/ashtray.png",41,35,41,0.5,"stim/11.jpeg",1,1,1,NA,"HouseObjects",1,4,"left","left",0.60199976,1,1,1,1,NA,NA,NA,NA,NA,NA,NA,NA,NA,NA,NA,NA,NA,NA,NA,NA,NA,NA,NA,NA,NA,NA,NA,NA
"13","stim/objects/HouseObjects/ballofstring.png",42,35,42,0.5,"stim/12.jpeg",1,2,1,NA,"HouseObjects",1,3,"left","right",0.667000055,0,0,1,1,NA,NA,NA,NA,NA,NA,NA,NA,NA,NA,NA,NA,NA,NA,NA,NA,NA,NA,NA,NA,NA,NA,NA,NA
"138","stim/objects/Instruments/balalaika.png",43,35,43,0.5,"stim/13.jpeg",1,3,1,NA,"Instruments",2,4,"right","left",0.554999828,0,0,1,1,NA,NA,NA,NA,NA,NA,NA,NA,NA,NA,NA,NA,NA,NA,NA,NA,NA,NA,NA,NA,NA,NA,NA,NA
"173","stim/objects/Instruments/bassguitar2.png",44,35,44,0.9,"stim/52.jpeg",5,2,3,NA,"Instruments",2,3,"right","right",0.49000001,1,1,1,1,NA,NA,NA,NA,NA,NA,NA,NA,NA,NA,NA,NA,NA,NA,NA,NA,NA,NA,NA,NA,NA,NA,NA,NA
"78","stim/objects/HouseObjects/bucket2.png",45,35,45,0.9,"stim/61.jpeg",6,1,3,NA,"HouseObjects",1,1,"left","left",0.539999962,1,1,1,1,NA,NA,NA,NA,NA,NA,NA,NA,NA,NA,NA,NA,NA,NA,NA,NA,NA,NA,NA,NA,NA,NA,NA,NA
"14","stim/objects/HouseObjects/ballofstring.png",46,35,46,0.5,"stim/12.jpeg",1,2,1,NA,"HouseObjects",1,2,"left","right",0.450000048,0,0,1,1,NA,NA,NA,NA,NA,NA,NA,NA,NA,NA,NA,NA,NA,NA,NA,NA,NA,NA,NA,NA,NA,NA,NA,NA
"150","stim/objects/Instruments/banjo2.png",47,35,47,0.3,"stim/44.jpeg",4,4,2,NA,"Instruments",2,1,"right","left",0.499000072,0,0,1,1,NA,NA,NA,NA,NA,NA,NA,NA,NA,NA,NA,NA,NA,NA,NA,NA,NA,NA,NA,NA,NA,NA,NA,NA
"88","stim/objects/HouseObjects/clock2.png",48,35,48,0.9,"stim/62.jpeg",6,2,3,NA,"HouseObjects",1,3,"left","left",0.520999908,1,1,1,1,NA,NA,NA,NA,NA,NA,NA,NA,NA,NA,NA,NA,NA,NA,NA,NA,NA,NA,NA,NA,NA,NA,NA,NA
"227","stim/objects/Instruments/cymbal.png",49,35,49,0.7,"stim/33.jpeg",3,3,2,NA,"Instruments",2,1,"right","right",0.614999771,1,1,1,1,NA,NA,NA,NA,NA,NA,NA,NA,NA,NA,NA,NA,NA,NA,NA,NA,NA,NA,NA,NA,NA,NA,NA,NA
"234","stim/objects/Instruments/doublebass.png",50,35,50,0.7,"stim/34.jpeg",3,4,2,NA,"Instruments",2,4,"right","right",0.51699996,1,1,1,1,NA,NA,NA,NA,NA,NA,NA,NA,NA,NA,NA,NA,NA,NA,NA,NA,NA,NA,NA,NA,NA,NA,NA,NA
"182","stim/objects/Instruments/cello.png",51,35,51,0.5,"stim/23.jpeg",2,3,1,NA,"Instruments",2,3,"right","left",0.576999903,0,0,1,1,NA,NA,NA,NA,NA,NA,NA,NA,NA,NA,NA,NA,NA,NA,NA,NA,NA,NA,NA,NA,NA,NA,NA,NA
"79","stim/objects/HouseObjects/bucket2.png",52,35,52,0.9,"stim/61.jpeg",6,1,3,NA,"HouseObjects",1,4,"left","left",0.522000074,1,1,1,1,NA,NA,NA,NA,NA,NA,NA,NA,NA,NA,NA,NA,NA,NA,NA,NA,NA,NA,NA,NA,NA,NA,NA,NA
"146","stim/objects/Instruments/banjo.png",53,35,53,0.5,"stim/14.jpeg",1,4,1,NA,"Instruments",2,1,"right","",NA,0,0,1,1,NA,NA,NA,NA,NA,NA,NA,NA,NA,NA,NA,NA,NA,NA,NA,NA,NA,NA,NA,NA,NA,NA,NA,NA
"102","stim/objects/HouseObjects/clothesdryingrack2.png",54,35,54,0.9,"stim/63.jpeg",6,3,3,NA,"HouseObjects",1,1,"left","right",0.404999971,0,0,1,1,NA,NA,NA,NA,NA,NA,NA,NA,NA,NA,NA,NA,NA,NA,NA,NA,NA,NA,NA,NA,NA,NA,NA,NA
"103","stim/objects/HouseObjects/clothesdryingrack2.png",55,35,55,0.9,"stim/63.jpeg",6,3,3,NA,"HouseObjects",1,2,"left","left",0.438999891,1,1,1,1,NA,NA,NA,NA,NA,NA,NA,NA,NA,NA,NA,NA,NA,NA,NA,NA,NA,NA,NA,NA,NA,NA,NA,NA
"210","stim/objects/Instruments/clarinet.png",56,35,56,0.7,"stim/31.jpeg",3,1,2,NA,"Instruments",2,4,"right","left",0.402999878,0,0,1,1,NA,NA,NA,NA,NA,NA,NA,NA,NA,NA,NA,NA,NA,NA,NA,NA,NA,NA,NA,NA,NA,NA,NA,NA
"80","stim/objects/HouseObjects/bucket2.png",57,35,57,0.9,"stim/61.jpeg",6,1,3,NA,"HouseObjects",1,2,"left","left",0.572999716,1,1,1,1,NA,NA,NA,NA,NA,NA,NA,NA,NA,NA,NA,NA,NA,NA,NA,NA,NA,NA,NA,NA,NA,NA,NA,NA
"19","stim/objects/HouseObjects/ballofstring2.png",58,35,58,0.7,"stim/42.jpeg",4,2,2,NA,"HouseObjects",1,2,"left","left",0.450999975,1,1,1,1,NA,NA,NA,NA,NA,NA,NA,NA,NA,NA,NA,NA,NA,NA,NA,NA,NA,NA,NA,NA,NA,NA,NA,NA
"89","stim/objects/HouseObjects/clock2.png",59,35,59,0.9,"stim/62.jpeg",6,2,3,NA,"HouseObjects",1,2,"left","left",0.475999832,1,1,1,1,NA,NA,NA,NA,NA,NA,NA,NA,NA,NA,NA,NA,NA,NA,NA,NA,NA,NA,NA,NA,NA,NA,NA,NA
"98","stim/objects/HouseObjects/clothesdryingrack.png",60,35,60,0.3,"stim/33.jpeg",3,3,2,NA,"HouseObjects",1,3,"left","right",0.558000088,0,0,1,1,NA,NA,NA,NA,NA,NA,NA,NA,NA,NA,NA,NA,NA,NA,NA,NA,NA,NA,NA,NA,NA,NA,NA,NA
"43","stim/objects/HouseObjects/basket2.png",61,35,61,0.7,"stim/44.jpeg",4,4,2,NA,"HouseObjects",1,2,"left","left",0.548999786,1,1,1,1,NA,NA,NA,NA,NA,NA,NA,NA,NA,NA,NA,NA,NA,NA,NA,NA,NA,NA,NA,NA,NA,NA,NA,NA
"183","stim/objects/Instruments/cello.png",62,35,62,0.5,"stim/23.jpeg",2,3,1,NA,"Instruments",2,2,"right","left",0.60800004,0,0,1,1,NA,NA,NA,NA,NA,NA,NA,NA,NA,NA,NA,NA,NA,NA,NA,NA,NA,NA,NA,NA,NA,NA,NA,NA
"202","stim/objects/Instruments/chime2.png",63,35,63,0.9,"stim/54.jpeg",5,4,3,NA,"Instruments",2,2,"right","right",0.375999928,1,1,1,1,NA,NA,NA,NA,NA,NA,NA,NA,NA,NA,NA,NA,NA,NA,NA,NA,NA,NA,NA,NA,NA,NA,NA,NA
"217","stim/objects/Instruments/cornet.png",64,35,64,0.7,"stim/32.jpeg",3,2,2,NA,"Instruments",2,1,"right","right",0.576999903,1,1,1,1,NA,NA,NA,NA,NA,NA,NA,NA,NA,NA,NA,NA,NA,NA,NA,NA,NA,NA,NA,NA,NA,NA,NA,NA
"211","stim/objects/Instruments/clarinet.png",65,35,65,0.7,"stim/31.jpeg",3,1,2,NA,"Instruments",2,4,"right","left",0.583999872,0,0,1,1,NA,NA,NA,NA,NA,NA,NA,NA,NA,NA,NA,NA,NA,NA,NA,NA,NA,NA,NA,NA,NA,NA,NA,NA
"147","stim/objects/Instruments/banjo.png",66,35,66,0.5,"stim/14.jpeg",1,4,1,NA,"Instruments",2,3,"right","right",0.525999784,1,1,1,1,NA,NA,NA,NA,NA,NA,NA,NA,NA,NA,NA,NA,NA,NA,NA,NA,NA,NA,NA,NA,NA,NA,NA,NA
"110","stim/objects/HouseObjects/clothespin.png",67,35,67,0.3,"stim/34.jpeg",3,4,2,NA,"HouseObjects",1,1,"left","right",0.565000057,0,0,1,1,NA,NA,NA,NA,NA,NA,NA,NA,NA,NA,NA,NA,NA,NA,NA,NA,NA,NA,NA,NA,NA,NA,NA,NA
"218","stim/objects/Instruments/cornet.png",68,35,68,0.7,"stim/32.jpeg",3,2,2,NA,"Instruments",2,4,"right","",NA,0,0,1,1,NA,NA,NA,NA,NA,NA,NA,NA,NA,NA,NA,NA,NA,NA,NA,NA,NA,NA,NA,NA,NA,NA,NA,NA
"20","stim/objects/HouseObjects/ballofstring2.png",69,35,69,0.7,"stim/42.jpeg",4,2,2,NA,"HouseObjects",1,2,"left","left",0.572999954,1,1,1,1,NA,NA,NA,NA,NA,NA,NA,NA,NA,NA,NA,NA,NA,NA,NA,NA,NA,NA,NA,NA,NA,NA,NA,NA
"174","stim/objects/Instruments/bassguitar2.png",70,35,70,0.9,"stim/52.jpeg",5,2,3,NA,"Instruments",2,2,"right","right",0.4599998,1,1,1,1,NA,NA,NA,NA,NA,NA,NA,NA,NA,NA,NA,NA,NA,NA,NA,NA,NA,NA,NA,NA,NA,NA,NA,NA
"37","stim/objects/HouseObjects/basket.png",71,35,71,0.5,"stim/14.jpeg",1,4,1,NA,"HouseObjects",1,4,"left","right",0.634000063,0,0,1,1,NA,NA,NA,NA,NA,NA,NA,NA,NA,NA,NA,NA,NA,NA,NA,NA,NA,NA,NA,NA,NA,NA,NA,NA
"90","stim/objects/HouseObjects/clock2.png",72,35,72,0.9,"stim/62.jpeg",6,2,3,NA,"HouseObjects",1,1,"left","left",0.539999962,1,1,1,1,NA,NA,NA,NA,NA,NA,NA,NA,NA,NA,NA,NA,NA,NA,NA,NA,NA,NA,NA,NA,NA,NA,NA,NA
"160","stim/objects/Instruments/bassdrum2.png",73,35,73,0.9,"stim/51.jpeg",5,1,3,NA,"Instruments",2,3,"right","right",0.518999815,1,1,1,1,NA,NA,NA,NA,NA,NA,NA,NA,NA,NA,NA,NA,NA,NA,NA,NA,NA,NA,NA,NA,NA,NA,NA,NA
"195","stim/objects/Instruments/chime.png",74,35,74,0.5,"stim/24.jpeg",2,4,1,NA,"Instruments",2,4,"right","left",0.52699995,0,0,1,1,NA,NA,NA,NA,NA,NA,NA,NA,NA,NA,NA,NA,NA,NA,NA,NA,NA,NA,NA,NA,NA,NA,NA,NA
"154","stim/objects/Instruments/bassdrum.png",75,35,75,0.5,"stim/21.jpeg",2,1,1,NA,"Instruments",2,4,"right","left",0.582000017,0,0,1,1,NA,NA,NA,NA,NA,NA,NA,NA,NA,NA,NA,NA,NA,NA,NA,NA,NA,NA,NA,NA,NA,NA,NA,NA
"50","stim/objects/HouseObjects/bleachbottle.png",76,35,76,0.5,"stim/21.jpeg",2,1,1,NA,"HouseObjects",1,4,"left","left",0.552999973,1,1,1,1,NA,NA,NA,NA,NA,NA,NA,NA,NA,NA,NA,NA,NA,NA,NA,NA,NA,NA,NA,NA,NA,NA,NA,NA
"55","stim/objects/HouseObjects/blender.png",77,35,77,0.5,"stim/22.jpeg",2,2,1,NA,"HouseObjects",1,3,"left","right",0.674000025,0,0,1,1,NA,NA,NA,NA,NA,NA,NA,NA,NA,NA,NA,NA,NA,NA,NA,NA,NA,NA,NA,NA,NA,NA,NA,NA
"175","stim/objects/Instruments/bassguitar2.png",78,35,78,0.9,"stim/52.jpeg",5,2,3,NA,"Instruments",2,1,"right","right",0.491999865,1,1,1,1,NA,NA,NA,NA,NA,NA,NA,NA,NA,NA,NA,NA,NA,NA,NA,NA,NA,NA,NA,NA,NA,NA,NA,NA
"2","stim/objects/HouseObjects/ashtray.png",79,35,79,0.5,"stim/11.jpeg",1,1,1,NA,"HouseObjects",1,2,"left","left",0.674000025,1,1,1,1,NA,NA,NA,NA,NA,NA,NA,NA,NA,NA,NA,NA,NA,NA,NA,NA,NA,NA,NA,NA,NA,NA,NA,NA
"111","stim/objects/HouseObjects/clothespin.png",80,35,80,0.3,"stim/34.jpeg",3,4,2,NA,"HouseObjects",1,1,"left","right",0.519000053,0,0,1,1,NA,NA,NA,NA,NA,NA,NA,NA,NA,NA,NA,NA,NA,NA,NA,NA,NA,NA,NA,NA,NA,NA,NA,NA
"44","stim/objects/HouseObjects/basket2.png",81,35,81,0.7,"stim/44.jpeg",4,4,2,NA,"HouseObjects",1,4,"left","left",0.68599987,1,1,1,1,NA,NA,NA,NA,NA,NA,NA,NA,NA,NA,NA,NA,NA,NA,NA,NA,NA,NA,NA,NA,NA,NA,NA,NA
"21","stim/objects/HouseObjects/ballofstring2.png",82,35,82,0.7,"stim/42.jpeg",4,2,2,NA,"HouseObjects",1,3,"left","right",0.409999847,0,0,1,1,NA,NA,NA,NA,NA,NA,NA,NA,NA,NA,NA,NA,NA,NA,NA,NA,NA,NA,NA,NA,NA,NA,NA,NA
"104","stim/objects/HouseObjects/clothesdryingrack2.png",83,35,83,0.9,"stim/63.jpeg",6,3,3,NA,"HouseObjects",1,2,"left","left",0.484999895,1,1,1,1,NA,NA,NA,NA,NA,NA,NA,NA,NA,NA,NA,NA,NA,NA,NA,NA,NA,NA,NA,NA,NA,NA,NA,NA
"85","stim/objects/HouseObjects/clock.png",84,35,84,0.3,"stim/32.jpeg",3,2,2,NA,"HouseObjects",1,4,"left","left",0.411000013,1,1,1,1,NA,NA,NA,NA,NA,NA,NA,NA,NA,NA,NA,NA,NA,NA,NA,NA,NA,NA,NA,NA,NA,NA,NA,NA
"45","stim/objects/HouseObjects/basket2.png",85,35,85,0.7,"stim/44.jpeg",4,4,2,NA,"HouseObjects",1,3,"left","left",0.671999931,1,1,1,1,NA,NA,NA,NA,NA,NA,NA,NA,NA,NA,NA,NA,NA,NA,NA,NA,NA,NA,NA,NA,NA,NA,NA,NA
"142","stim/objects/Instruments/balalaika2.png",86,35,86,0.3,"stim/43.jpeg",4,3,2,NA,"Instruments",2,2,"right","right",0.679999828,1,1,1,1,NA,NA,NA,NA,NA,NA,NA,NA,NA,NA,NA,NA,NA,NA,NA,NA,NA,NA,NA,NA,NA,NA,NA,NA
"148","stim/objects/Instruments/banjo.png",87,35,87,0.5,"stim/14.jpeg",1,4,1,NA,"Instruments",2,1,"right","",NA,0,0,1,1,NA,NA,NA,NA,NA,NA,NA,NA,NA,NA,NA,NA,NA,NA,NA,NA,NA,NA,NA,NA,NA,NA,NA,NA
"161","stim/objects/Instruments/bassdrum2.png",88,35,88,0.9,"stim/51.jpeg",5,1,3,NA,"Instruments",2,2,"right","left",0.444999933,0,0,1,1,NA,NA,NA,NA,NA,NA,NA,NA,NA,NA,NA,NA,NA,NA,NA,NA,NA,NA,NA,NA,NA,NA,NA,NA
"176","stim/objects/Instruments/bassguitar2.png",89,35,89,0.9,"stim/52.jpeg",5,2,3,NA,"Instruments",2,3,"right","right",0.538999796,1,1,1,1,NA,NA,NA,NA,NA,NA,NA,NA,NA,NA,NA,NA,NA,NA,NA,NA,NA,NA,NA,NA,NA,NA,NA,NA
"70","stim/objects/HouseObjects/broom.png",90,35,90,0.5,"stim/24.jpeg",2,4,1,NA,"HouseObjects",1,4,"left","left",0.552999973,1,1,1,1,NA,NA,NA,NA,NA,NA,NA,NA,NA,NA,NA,NA,NA,NA,NA,NA,NA,NA,NA,NA,NA,NA,NA,NA
"38","stim/objects/HouseObjects/basket.png",91,35,91,0.5,"stim/14.jpeg",1,4,1,NA,"HouseObjects",1,3,"left","left",0.433000088,1,1,1,1,NA,NA,NA,NA,NA,NA,NA,NA,NA,NA,NA,NA,NA,NA,NA,NA,NA,NA,NA,NA,NA,NA,NA,NA
"32","stim/objects/HouseObjects/barbecuelighter2.png",92,35,92,0.7,"stim/43.jpeg",4,3,2,NA,"HouseObjects",1,4,"left","left",0.613999844,1,1,1,1,NA,NA,NA,NA,NA,NA,NA,NA,NA,NA,NA,NA,NA,NA,NA,NA,NA,NA,NA,NA,NA,NA,NA,NA
"196","stim/objects/Instruments/chime.png",93,35,93,0.5,"stim/24.jpeg",2,4,1,NA,"Instruments",2,1,"right","left",0.655999899,0,0,1,1,NA,NA,NA,NA,NA,NA,NA,NA,NA,NA,NA,NA,NA,NA,NA,NA,NA,NA,NA,NA,NA,NA,NA,NA
"39","stim/objects/HouseObjects/basket.png",94,35,94,0.5,"stim/14.jpeg",1,4,1,NA,"HouseObjects",1,2,"left","left",0.554999828,1,1,1,1,NA,NA,NA,NA,NA,NA,NA,NA,NA,NA,NA,NA,NA,NA,NA,NA,NA,NA,NA,NA,NA,NA,NA,NA
"129","stim/objects/Instruments/acousticguitar.png",95,35,95,0.5,"stim/12.jpeg",1,2,1,NA,"Instruments",2,3,"right","left",0.617000103,0,0,1,1,NA,NA,NA,NA,NA,NA,NA,NA,NA,NA,NA,NA,NA,NA,NA,NA,NA,NA,NA,NA,NA,NA,NA,NA
"15","stim/objects/HouseObjects/ballofstring.png",96,35,96,0.5,"stim/12.jpeg",1,2,1,NA,"HouseObjects",1,1,"left","",NA,0,0,1,1,NA,NA,NA,NA,NA,NA,NA,NA,NA,NA,NA,NA,NA,NA,NA,NA,NA,NA,NA,NA,NA,NA,NA,NA
"228","stim/objects/Instruments/cymbal.png",97,35,97,0.7,"stim/33.jpeg",3,3,2,NA,"Instruments",2,1,"right","left",0.380000114,0,0,1,1,NA,NA,NA,NA,NA,NA,NA,NA,NA,NA,NA,NA,NA,NA,NA,NA,NA,NA,NA,NA,NA,NA,NA,NA
"25","stim/objects/HouseObjects/barbecuelighter.png",98,35,98,0.5,"stim/13.jpeg",1,3,1,NA,"HouseObjects",1,1,"left","right",0.639999866,0,0,1,1,NA,NA,NA,NA,NA,NA,NA,NA,NA,NA,NA,NA,NA,NA,NA,NA,NA,NA,NA,NA,NA,NA,NA,NA
"219","stim/objects/Instruments/cornet.png",99,35,99,0.7,"stim/32.jpeg",3,2,2,NA,"Instruments",2,2,"right","right",0.670000076,1,1,1,1,NA,NA,NA,NA,NA,NA,NA,NA,NA,NA,NA,NA,NA,NA,NA,NA,NA,NA,NA,NA,NA,NA,NA,NA
"130","stim/objects/Instruments/acousticguitar.png",100,35,100,0.5,"stim/12.jpeg",1,2,1,NA,"Instruments",2,2,"right","right",0.570999861,1,1,1,1,NA,NA,NA,NA,NA,NA,NA,NA,NA,NA,NA,NA,NA,NA,NA,NA,NA,NA,NA,NA,NA,NA,NA,NA
"7","stim/objects/HouseObjects/ashtray2.png",101,35,101,0.7,"stim/41.jpeg",4,1,2,NA,"HouseObjects",1,2,"left","right",0.513999939,0,0,1,1,NA,NA,NA,NA,NA,NA,NA,NA,NA,NA,NA,NA,NA,NA,NA,NA,NA,NA,NA,NA,NA,NA,NA,NA
"81","stim/objects/HouseObjects/bucket2.png",102,35,102,0.9,"stim/61.jpeg",6,1,3,NA,"HouseObjects",1,2,"left","left",0.503999949,1,1,1,1,NA,NA,NA,NA,NA,NA,NA,NA,NA,NA,NA,NA,NA,NA,NA,NA,NA,NA,NA,NA,NA,NA,NA,NA
"229","stim/objects/Instruments/cymbal.png",103,35,103,0.7,"stim/33.jpeg",3,3,2,NA,"Instruments",2,3,"right","right",0.529999733,1,1,1,1,NA,NA,NA,NA,NA,NA,NA,NA,NA,NA,NA,NA,NA,NA,NA,NA,NA,NA,NA,NA,NA,NA,NA,NA
"232","stim/objects/Instruments/cymbal2.png",104,35,104,0.1,"stim/63.jpeg",6,3,3,NA,"Instruments",2,4,"right","right",0.368000031,1,1,1,1,NA,NA,NA,NA,NA,NA,NA,NA,NA,NA,NA,NA,NA,NA,NA,NA,NA,NA,NA,NA,NA,NA,NA,NA
"71","stim/objects/HouseObjects/broom.png",105,35,105,0.5,"stim/24.jpeg",2,4,1,NA,"HouseObjects",1,4,"left","left",0.31099987,1,1,1,1,NA,NA,NA,NA,NA,NA,NA,NA,NA,NA,NA,NA,NA,NA,NA,NA,NA,NA,NA,NA,NA,NA,NA,NA
"22","stim/objects/HouseObjects/ballofstring2.png",106,35,106,0.7,"stim/42.jpeg",4,2,2,NA,"HouseObjects",1,3,"left","left",0.438999891,1,1,1,1,NA,NA,NA,NA,NA,NA,NA,NA,NA,NA,NA,NA,NA,NA,NA,NA,NA,NA,NA,NA,NA,NA,NA,NA
"26","stim/objects/HouseObjects/barbecuelighter.png",107,35,107,0.5,"stim/13.jpeg",1,3,1,NA,"HouseObjects",1,4,"left","right",0.449999809,0,0,1,1,NA,NA,NA,NA,NA,NA,NA,NA,NA,NA,NA,NA,NA,NA,NA,NA,NA,NA,NA,NA,NA,NA,NA,NA
"82","stim/objects/HouseObjects/bucket2.png",108,35,108,0.9,"stim/61.jpeg",6,1,3,NA,"HouseObjects",1,3,"left","left",0.375999928,1,1,1,1,NA,NA,NA,NA,NA,NA,NA,NA,NA,NA,NA,NA,NA,NA,NA,NA,NA,NA,NA,NA,NA,NA,NA,NA
"188","stim/objects/Instruments/cello2.png",109,35,109,0.9,"stim/53.jpeg",5,3,3,NA,"Instruments",2,1,"right","right",0.53399992,1,1,1,1,NA,NA,NA,NA,NA,NA,NA,NA,NA,NA,NA,NA,NA,NA,NA,NA,NA,NA,NA,NA,NA,NA,NA,NA
"27","stim/objects/HouseObjects/barbecuelighter.png",110,35,110,0.5,"stim/13.jpeg",1,3,1,NA,"HouseObjects",1,3,"left","right",0.493999958,0,0,1,1,NA,NA,NA,NA,NA,NA,NA,NA,NA,NA,NA,NA,NA,NA,NA,NA,NA,NA,NA,NA,NA,NA,NA,NA
"72","stim/objects/HouseObjects/broom2.png",111,35,111,0.1,"stim/54.jpeg",5,4,3,NA,"HouseObjects",1,4,"left","left",0.605999947,1,1,1,1,NA,NA,NA,NA,NA,NA,NA,NA,NA,NA,NA,NA,NA,NA,NA,NA,NA,NA,NA,NA,NA,NA,NA,NA
"63","stim/objects/HouseObjects/bottle.png",112,35,112,0.5,"stim/23.jpeg",2,3,1,NA,"HouseObjects",1,2,"left","left",0.595999956,1,1,1,1,NA,NA,NA,NA,NA,NA,NA,NA,NA,NA,NA,NA,NA,NA,NA,NA,NA,NA,NA,NA,NA,NA,NA,NA
"151","stim/objects/Instruments/banjo2.png",113,35,113,0.3,"stim/44.jpeg",4,4,2,NA,"Instruments",2,4,"right","left",0.432999849,0,0,1,1,NA,NA,NA,NA,NA,NA,NA,NA,NA,NA,NA,NA,NA,NA,NA,NA,NA,NA,NA,NA,NA,NA,NA,NA
"8","stim/objects/HouseObjects/ashtray2.png",114,35,114,0.7,"stim/41.jpeg",4,1,2,NA,"HouseObjects",1,4,"left","",NA,0,0,1,1,NA,NA,NA,NA,NA,NA,NA,NA,NA,NA,NA,NA,NA,NA,NA,NA,NA,NA,NA,NA,NA,NA,NA,NA
"105","stim/objects/HouseObjects/clothesdryingrack2.png",115,35,115,0.9,"stim/63.jpeg",6,3,3,NA,"HouseObjects",1,4,"left","left",0.576999903,1,1,1,1,NA,NA,NA,NA,NA,NA,NA,NA,NA,NA,NA,NA,NA,NA,NA,NA,NA,NA,NA,NA,NA,NA,NA,NA
"9","stim/objects/HouseObjects/ashtray2.png",116,35,116,0.7,"stim/41.jpeg",4,1,2,NA,"HouseObjects",1,2,"left","left",0.592999935,1,1,1,1,NA,NA,NA,NA,NA,NA,NA,NA,NA,NA,NA,NA,NA,NA,NA,NA,NA,NA,NA,NA,NA,NA,NA,NA
"235","stim/objects/Instruments/doublebass.png",117,35,117,0.7,"stim/34.jpeg",3,4,2,NA,"Instruments",2,1,"right","left",0.529000044,0,0,1,1,NA,NA,NA,NA,NA,NA,NA,NA,NA,NA,NA,NA,NA,NA,NA,NA,NA,NA,NA,NA,NA,NA,NA,NA
"134","stim/objects/Instruments/acousticguitar2.png",118,35,118,0.3,"stim/42.jpeg",4,2,2,NA,"Instruments",2,4,"right","right",0.397999763,1,1,1,1,NA,NA,NA,NA,NA,NA,NA,NA,NA,NA,NA,NA,NA,NA,NA,NA,NA,NA,NA,NA,NA,NA,NA,NA
"46","stim/objects/HouseObjects/basket2.png",119,35,119,0.7,"stim/44.jpeg",4,4,2,NA,"HouseObjects",1,3,"left","left",0.440999746,1,1,1,1,NA,NA,NA,NA,NA,NA,NA,NA,NA,NA,NA,NA,NA,NA,NA,NA,NA,NA,NA,NA,NA,NA,NA,NA
"99","stim/objects/HouseObjects/clothesdryingrack.png",120,35,120,0.3,"stim/33.jpeg",3,3,2,NA,"HouseObjects",1,4,"left","right",0.592999935,0,0,1,1,NA,NA,NA,NA,NA,NA,NA,NA,NA,NA,NA,NA,NA,NA,NA,NA,NA,NA,NA,NA,NA,NA,NA,NA
"91","stim/objects/HouseObjects/clock2.png",121,35,121,0.9,"stim/62.jpeg",6,2,3,NA,"HouseObjects",1,4,"left","left",0.441999912,1,1,1,1,NA,NA,NA,NA,NA,NA,NA,NA,NA,NA,NA,NA,NA,NA,NA,NA,NA,NA,NA,NA,NA,NA,NA,NA
"23","stim/objects/HouseObjects/ballofstring2.png",122,35,122,0.7,"stim/42.jpeg",4,2,2,NA,"HouseObjects",1,2,"left","left",0.349999905,1,1,1,1,NA,NA,NA,NA,NA,NA,NA,NA,NA,NA,NA,NA,NA,NA,NA,NA,NA,NA,NA,NA,NA,NA,NA,NA
"197","stim/objects/Instruments/chime.png",123,35,123,0.5,"stim/24.jpeg",2,4,1,NA,"Instruments",2,1,"right","left",0.565000057,0,0,1,1,NA,NA,NA,NA,NA,NA,NA,NA,NA,NA,NA,NA,NA,NA,NA,NA,NA,NA,NA,NA,NA,NA,NA,NA
"10","stim/objects/HouseObjects/ashtray2.png",124,35,124,0.7,"stim/41.jpeg",4,1,2,NA,"HouseObjects",1,4,"left","left",0.579999924,1,1,1,1,NA,NA,NA,NA,NA,NA,NA,NA,NA,NA,NA,NA,NA,NA,NA,NA,NA,NA,NA,NA,NA,NA,NA,NA
"3","stim/objects/HouseObjects/ashtray.png",125,35,125,0.5,"stim/11.jpeg",1,1,1,NA,"HouseObjects",1,2,"left","left",0.369999886,1,1,1,1,NA,NA,NA,NA,NA,NA,NA,NA,NA,NA,NA,NA,NA,NA,NA,NA,NA,NA,NA,NA,NA,NA,NA,NA
"189","stim/objects/Instruments/cello2.png",126,35,126,0.9,"stim/53.jpeg",5,3,3,NA,"Instruments",2,4,"right","right",0.530999899,1,1,1,1,NA,NA,NA,NA,NA,NA,NA,NA,NA,NA,NA,NA,NA,NA,NA,NA,NA,NA,NA,NA,NA,NA,NA,NA
"56","stim/objects/HouseObjects/blender.png",127,35,127,0.5,"stim/22.jpeg",2,2,1,NA,"HouseObjects",1,2,"left","left",0.50999999,1,1,1,1,NA,NA,NA,NA,NA,NA,NA,NA,NA,NA,NA,NA,NA,NA,NA,NA,NA,NA,NA,NA,NA,NA,NA,NA
"203","stim/objects/Instruments/chime2.png",128,35,128,0.9,"stim/54.jpeg",5,4,3,NA,"Instruments",2,2,"right","right",0.56099987,1,1,1,1,NA,NA,NA,NA,NA,NA,NA,NA,NA,NA,NA,NA,NA,NA,NA,NA,NA,NA,NA,NA,NA,NA,NA,NA
"220","stim/objects/Instruments/cornet.png",129,35,129,0.7,"stim/32.jpeg",3,2,2,NA,"Instruments",2,1,"right","right",0.540999889,1,1,1,1,NA,NA,NA,NA,NA,NA,NA,NA,NA,NA,NA,NA,NA,NA,NA,NA,NA,NA,NA,NA,NA,NA,NA,NA
"74","stim/objects/HouseObjects/bucket.png",130,35,130,0.3,"stim/31.jpeg",3,1,2,NA,"HouseObjects",1,2,"left","right",0.609999895,0,0,1,1,NA,NA,NA,NA,NA,NA,NA,NA,NA,NA,NA,NA,NA,NA,NA,NA,NA,NA,NA,NA,NA,NA,NA,NA
"230","stim/objects/Instruments/cymbal.png",131,35,131,0.7,"stim/33.jpeg",3,3,2,NA,"Instruments",2,2,"right","right",0.570999861,1,1,1,1,NA,NA,NA,NA,NA,NA,NA,NA,NA,NA,NA,NA,NA,NA,NA,NA,NA,NA,NA,NA,NA,NA,NA,NA
"198","stim/objects/Instruments/chime.png",132,35,132,0.5,"stim/24.jpeg",2,4,1,NA,"Instruments",2,1,"right","left",0.56799984,0,0,1,1,NA,NA,NA,NA,NA,NA,NA,NA,NA,NA,NA,NA,NA,NA,NA,NA,NA,NA,NA,NA,NA,NA,NA,NA
"57","stim/objects/HouseObjects/blender.png",133,35,133,0.5,"stim/22.jpeg",2,2,1,NA,"HouseObjects",1,4,"left","left",0.578000069,1,1,1,1,NA,NA,NA,NA,NA,NA,NA,NA,NA,NA,NA,NA,NA,NA,NA,NA,NA,NA,NA,NA,NA,NA,NA,NA
"47","stim/objects/HouseObjects/basket2.png",134,35,134,0.7,"stim/44.jpeg",4,4,2,NA,"HouseObjects",1,1,"left","left",0.572000027,1,1,1,1,NA,NA,NA,NA,NA,NA,NA,NA,NA,NA,NA,NA,NA,NA,NA,NA,NA,NA,NA,NA,NA,NA,NA,NA
"177","stim/objects/Instruments/bassguitar2.png",135,35,135,0.9,"stim/52.jpeg",5,2,3,NA,"Instruments",2,3,"right","right",0.512999773,1,1,1,1,NA,NA,NA,NA,NA,NA,NA,NA,NA,NA,NA,NA,NA,NA,NA,NA,NA,NA,NA,NA,NA,NA,NA,NA
"212","stim/objects/Instruments/clarinet.png",136,35,136,0.7,"stim/31.jpeg",3,1,2,NA,"Instruments",2,1,"right","right",0.500999928,1,1,1,1,NA,NA,NA,NA,NA,NA,NA,NA,NA,NA,NA,NA,NA,NA,NA,NA,NA,NA,NA,NA,NA,NA,NA,NA
"64","stim/objects/HouseObjects/bottle.png",137,35,137,0.5,"stim/23.jpeg",2,3,1,NA,"HouseObjects",1,1,"left","right",0.552999973,0,0,1,1,NA,NA,NA,NA,NA,NA,NA,NA,NA,NA,NA,NA,NA,NA,NA,NA,NA,NA,NA,NA,NA,NA,NA,NA
"126","stim/objects/Instruments/accordion2.png",138,35,138,0.3,"stim/41.jpeg",4,1,2,NA,"Instruments",2,1,"right","left",0.57799983,0,0,1,1,NA,NA,NA,NA,NA,NA,NA,NA,NA,NA,NA,NA,NA,NA,NA,NA,NA,NA,NA,NA,NA,NA,NA,NA
"190","stim/objects/Instruments/cello2.png",139,35,139,0.9,"stim/53.jpeg",5,3,3,NA,"Instruments",2,2,"right","left",0.417000055,0,0,1,1,NA,NA,NA,NA,NA,NA,NA,NA,NA,NA,NA,NA,NA,NA,NA,NA,NA,NA,NA,NA,NA,NA,NA,NA
"33","stim/objects/HouseObjects/barbecuelighter2.png",140,35,140,0.7,"stim/43.jpeg",4,3,2,NA,"HouseObjects",1,4,"left","left",0.595999718,1,1,1,1,NA,NA,NA,NA,NA,NA,NA,NA,NA,NA,NA,NA,NA,NA,NA,NA,NA,NA,NA,NA,NA,NA,NA,NA
"92","stim/objects/HouseObjects/clock2.png",141,35,141,0.9,"stim/62.jpeg",6,2,3,NA,"HouseObjects",1,1,"left","left",0.48699975,1,1,1,1,NA,NA,NA,NA,NA,NA,NA,NA,NA,NA,NA,NA,NA,NA,NA,NA,NA,NA,NA,NA,NA,NA,NA,NA
"162","stim/objects/Instruments/bassdrum2.png",142,35,142,0.9,"stim/51.jpeg",5,1,3,NA,"Instruments",2,3,"right","right",0.479000092,1,1,1,1,NA,NA,NA,NA,NA,NA,NA,NA,NA,NA,NA,NA,NA,NA,NA,NA,NA,NA,NA,NA,NA,NA,NA,NA
"169","stim/objects/Instruments/bassguitar.png",143,35,143,0.5,"stim/22.jpeg",2,2,1,NA,"Instruments",2,1,"right","left",0.521999836,0,0,1,1,NA,NA,NA,NA,NA,NA,NA,NA,NA,NA,NA,NA,NA,NA,NA,NA,NA,NA,NA,NA,NA,NA,NA,NA
"131","stim/objects/Instruments/acousticguitar.png",144,35,144,0.5,"stim/12.jpeg",1,2,1,NA,"Instruments",2,4,"right","right",0.412999868,1,1,1,1,NA,NA,NA,NA,NA,NA,NA,NA,NA,NA,NA,NA,NA,NA,NA,NA,NA,NA,NA,NA,NA,NA,NA,NA
"34","stim/objects/HouseObjects/barbecuelighter2.png",145,35,145,0.7,"stim/43.jpeg",4,3,2,NA,"HouseObjects",1,2,"left","right",0.500999928,0,0,1,1,NA,NA,NA,NA,NA,NA,NA,NA,NA,NA,NA,NA,NA,NA,NA,NA,NA,NA,NA,NA,NA,NA,NA,NA
"35","stim/objects/HouseObjects/barbecuelighter2.png",146,35,146,0.7,"stim/43.jpeg",4,3,2,NA,"HouseObjects",1,2,"left","left",0.539999962,1,1,1,1,NA,NA,NA,NA,NA,NA,NA,NA,NA,NA,NA,NA,NA,NA,NA,NA,NA,NA,NA,NA,NA,NA,NA,NA
"122","stim/objects/Instruments/accordion.png",147,35,147,0.5,"stim/11.jpeg",1,1,1,NA,"Instruments",2,3,"right","right",0.625999928,1,1,1,1,NA,NA,NA,NA,NA,NA,NA,NA,NA,NA,NA,NA,NA,NA,NA,NA,NA,NA,NA,NA,NA,NA,NA,NA
"28","stim/objects/HouseObjects/barbecuelighter.png",148,35,148,0.5,"stim/13.jpeg",1,3,1,NA,"HouseObjects",1,3,"left","right",0.710999727,0,0,1,1,NA,NA,NA,NA,NA,NA,NA,NA,NA,NA,NA,NA,NA,NA,NA,NA,NA,NA,NA,NA,NA,NA,NA,NA
"40","stim/objects/HouseObjects/basket.png",149,35,149,0.5,"stim/14.jpeg",1,4,1,NA,"HouseObjects",1,4,"left","left",0.457999945,1,1,1,1,NA,NA,NA,NA,NA,NA,NA,NA,NA,NA,NA,NA,NA,NA,NA,NA,NA,NA,NA,NA,NA,NA,NA,NA
"236","stim/objects/Instruments/doublebass.png",150,35,150,0.7,"stim/34.jpeg",3,4,2,NA,"Instruments",2,4,"right","left",0.536999941,0,0,1,1,NA,NA,NA,NA,NA,NA,NA,NA,NA,NA,NA,NA,NA,NA,NA,NA,NA,NA,NA,NA,NA,NA,NA,NA
"86","stim/objects/HouseObjects/clock.png",151,35,151,0.3,"stim/32.jpeg",3,2,2,NA,"HouseObjects",1,3,"left","right",0.612999916,0,0,1,1,NA,NA,NA,NA,NA,NA,NA,NA,NA,NA,NA,NA,NA,NA,NA,NA,NA,NA,NA,NA,NA,NA,NA,NA
"213","stim/objects/Instruments/clarinet.png",152,35,152,0.7,"stim/31.jpeg",3,1,2,NA,"Instruments",2,1,"right","right",0.523999929,1,1,1,1,NA,NA,NA,NA,NA,NA,NA,NA,NA,NA,NA,NA,NA,NA,NA,NA,NA,NA,NA,NA,NA,NA,NA,NA
"83","stim/objects/HouseObjects/bucket2.png",153,35,153,0.9,"stim/61.jpeg",6,1,3,NA,"HouseObjects",1,2,"left","right",0.42599988,0,0,1,1,NA,NA,NA,NA,NA,NA,NA,NA,NA,NA,NA,NA,NA,NA,NA,NA,NA,NA,NA,NA,NA,NA,NA,NA
"135","stim/objects/Instruments/acousticguitar2.png",154,35,154,0.3,"stim/42.jpeg",4,2,2,NA,"Instruments",2,3,"right","left",0.562999964,0,0,1,1,NA,NA,NA,NA,NA,NA,NA,NA,NA,NA,NA,NA,NA,NA,NA,NA,NA,NA,NA,NA,NA,NA,NA,NA
"123","stim/objects/Instruments/accordion.png",155,35,155,0.5,"stim/11.jpeg",1,1,1,NA,"Instruments",2,2,"right","left",0.607000113,0,0,1,1,NA,NA,NA,NA,NA,NA,NA,NA,NA,NA,NA,NA,NA,NA,NA,NA,NA,NA,NA,NA,NA,NA,NA,NA
"184","stim/objects/Instruments/cello.png",156,35,156,0.5,"stim/23.jpeg",2,3,1,NA,"Instruments",2,4,"right","left",0.519000053,0,0,1,1,NA,NA,NA,NA,NA,NA,NA,NA,NA,NA,NA,NA,NA,NA,NA,NA,NA,NA,NA,NA,NA,NA,NA,NA
"4","stim/objects/HouseObjects/ashtray.png",157,35,157,0.5,"stim/11.jpeg",1,1,1,NA,"HouseObjects",1,2,"left","right",0.645999908,0,0,1,1,NA,NA,NA,NA,NA,NA,NA,NA,NA,NA,NA,NA,NA,NA,NA,NA,NA,NA,NA,NA,NA,NA,NA,NA
"221","stim/objects/Instruments/cornet.png",158,35,158,0.7,"stim/32.jpeg",3,2,2,NA,"Instruments",2,1,"right","right",0.548999786,1,1,1,1,NA,NA,NA,NA,NA,NA,NA,NA,NA,NA,NA,NA,NA,NA,NA,NA,NA,NA,NA,NA,NA,NA,NA,NA
"155","stim/objects/Instruments/bassdrum.png",159,35,159,0.5,"stim/21.jpeg",2,1,1,NA,"Instruments",2,1,"right","right",0.648000002,1,1,1,1,NA,NA,NA,NA,NA,NA,NA,NA,NA,NA,NA,NA,NA,NA,NA,NA,NA,NA,NA,NA,NA,NA,NA,NA
"11","stim/objects/HouseObjects/ashtray2.png",160,35,160,0.7,"stim/41.jpeg",4,1,2,NA,"HouseObjects",1,2,"left","left",0.570999861,1,1,1,1,NA,NA,NA,NA,NA,NA,NA,NA,NA,NA,NA,NA,NA,NA,NA,NA,NA,NA,NA,NA,NA,NA,NA,NA
"237","stim/objects/Instruments/doublebass.png",161,35,161,0.7,"stim/34.jpeg",3,4,2,NA,"Instruments",2,3,"right","right",0.601999998,1,1,1,1,NA,NA,NA,NA,NA,NA,NA,NA,NA,NA,NA,NA,NA,NA,NA,NA,NA,NA,NA,NA,NA,NA,NA,NA
"156","stim/objects/Instruments/bassdrum.png",162,35,162,0.5,"stim/21.jpeg",2,1,1,NA,"Instruments",2,2,"right","left",0.542999744,0,0,1,1,NA,NA,NA,NA,NA,NA,NA,NA,NA,NA,NA,NA,NA,NA,NA,NA,NA,NA,NA,NA,NA,NA,NA,NA
"106","stim/objects/HouseObjects/clothesdryingrack2.png",163,35,163,0.9,"stim/63.jpeg",6,3,3,NA,"HouseObjects",1,4,"left","left",0.465999842,1,1,1,1,NA,NA,NA,NA,NA,NA,NA,NA,NA,NA,NA,NA,NA,NA,NA,NA,NA,NA,NA,NA,NA,NA,NA,NA
"204","stim/objects/Instruments/chime2.png",164,35,164,0.9,"stim/54.jpeg",5,4,3,NA,"Instruments",2,4,"right","right",0.5849998,1,1,1,1,NA,NA,NA,NA,NA,NA,NA,NA,NA,NA,NA,NA,NA,NA,NA,NA,NA,NA,NA,NA,NA,NA,NA,NA
"113","stim/objects/HouseObjects/clothespin2.png",165,35,165,0.9,"stim/64.jpeg",6,4,3,NA,"HouseObjects",1,4,"left","left",0.446000099,1,1,1,1,NA,NA,NA,NA,NA,NA,NA,NA,NA,NA,NA,NA,NA,NA,NA,NA,NA,NA,NA,NA,NA,NA,NA,NA
"191","stim/objects/Instruments/cello2.png",166,35,166,0.9,"stim/53.jpeg",5,3,3,NA,"Instruments",2,2,"right","right",0.485999823,1,1,1,1,NA,NA,NA,NA,NA,NA,NA,NA,NA,NA,NA,NA,NA,NA,NA,NA,NA,NA,NA,NA,NA,NA,NA,NA
"93","stim/objects/HouseObjects/clock2.png",167,35,167,0.9,"stim/62.jpeg",6,2,3,NA,"HouseObjects",1,4,"left","left",0.572999954,1,1,1,1,NA,NA,NA,NA,NA,NA,NA,NA,NA,NA,NA,NA,NA,NA,NA,NA,NA,NA,NA,NA,NA,NA,NA,NA
"238","stim/objects/Instruments/doublebass.png",168,35,168,0.7,"stim/34.jpeg",3,4,2,NA,"Instruments",2,4,"right","right",0.661000013,1,1,1,1,NA,NA,NA,NA,NA,NA,NA,NA,NA,NA,NA,NA,NA,NA,NA,NA,NA,NA,NA,NA,NA,NA,NA,NA
"132","stim/objects/Instruments/acousticguitar.png",169,35,169,0.5,"stim/12.jpeg",1,2,1,NA,"Instruments",2,2,"right","right",0.540999889,1,1,1,1,NA,NA,NA,NA,NA,NA,NA,NA,NA,NA,NA,NA,NA,NA,NA,NA,NA,NA,NA,NA,NA,NA,NA,NA
"192","stim/objects/Instruments/cello2.png",170,35,170,0.9,"stim/53.jpeg",5,3,3,NA,"Instruments",2,1,"right","right",0.501999855,1,1,1,1,NA,NA,NA,NA,NA,NA,NA,NA,NA,NA,NA,NA,NA,NA,NA,NA,NA,NA,NA,NA,NA,NA,NA,NA
"48","stim/objects/HouseObjects/basket2.png",171,35,171,0.7,"stim/44.jpeg",4,4,2,NA,"HouseObjects",1,1,"left","left",0.544999838,1,1,1,1,NA,NA,NA,NA,NA,NA,NA,NA,NA,NA,NA,NA,NA,NA,NA,NA,NA,NA,NA,NA,NA,NA,NA,NA
"107","stim/objects/HouseObjects/clothesdryingrack2.png",172,35,172,0.9,"stim/63.jpeg",6,3,3,NA,"HouseObjects",1,2,"left","left",0.518999815,1,1,1,1,NA,NA,NA,NA,NA,NA,NA,NA,NA,NA,NA,NA,NA,NA,NA,NA,NA,NA,NA,NA,NA,NA,NA,NA
"139","stim/objects/Instruments/balalaika.png",173,35,173,0.5,"stim/13.jpeg",1,3,1,NA,"Instruments",2,3,"right","left",0.453999996,0,0,1,1,NA,NA,NA,NA,NA,NA,NA,NA,NA,NA,NA,NA,NA,NA,NA,NA,NA,NA,NA,NA,NA,NA,NA,NA
"163","stim/objects/Instruments/bassdrum2.png",174,35,174,0.9,"stim/51.jpeg",5,1,3,NA,"Instruments",2,1,"right","right",0.493999958,1,1,1,1,NA,NA,NA,NA,NA,NA,NA,NA,NA,NA,NA,NA,NA,NA,NA,NA,NA,NA,NA,NA,NA,NA,NA,NA
"58","stim/objects/HouseObjects/blender.png",175,35,175,0.5,"stim/22.jpeg",2,2,1,NA,"HouseObjects",1,2,"left","left",0.503999949,1,1,1,1,NA,NA,NA,NA,NA,NA,NA,NA,NA,NA,NA,NA,NA,NA,NA,NA,NA,NA,NA,NA,NA,NA,NA,NA
"84","stim/objects/HouseObjects/bucket2.png",176,35,176,0.9,"stim/61.jpeg",6,1,3,NA,"HouseObjects",1,2,"left","left",0.504999876,1,1,1,1,NA,NA,NA,NA,NA,NA,NA,NA,NA,NA,NA,NA,NA,NA,NA,NA,NA,NA,NA,NA,NA,NA,NA,NA
"5","stim/objects/HouseObjects/ashtray.png",177,35,177,0.5,"stim/11.jpeg",1,1,1,NA,"HouseObjects",1,4,"left","left",0.46999979,1,1,1,1,NA,NA,NA,NA,NA,NA,NA,NA,NA,NA,NA,NA,NA,NA,NA,NA,NA,NA,NA,NA,NA,NA,NA,NA
"140","stim/objects/Instruments/balalaika.png",178,35,178,0.5,"stim/13.jpeg",1,3,1,NA,"Instruments",2,4,"right","left",0.524999857,0,0,1,1,NA,NA,NA,NA,NA,NA,NA,NA,NA,NA,NA,NA,NA,NA,NA,NA,NA,NA,NA,NA,NA,NA,NA,NA
"199","stim/objects/Instruments/chime.png",179,35,179,0.5,"stim/24.jpeg",2,4,1,NA,"Instruments",2,3,"right","left",0.5849998,0,0,1,1,NA,NA,NA,NA,NA,NA,NA,NA,NA,NA,NA,NA,NA,NA,NA,NA,NA,NA,NA,NA,NA,NA,NA,NA
"141","stim/objects/Instruments/balalaika.png",180,35,180,0.5,"stim/13.jpeg",1,3,1,NA,"Instruments",2,2,"right","right",0.531999826,1,1,1,1,NA,NA,NA,NA,NA,NA,NA,NA,NA,NA,NA,NA,NA,NA,NA,NA,NA,NA,NA,NA,NA,NA,NA,NA
"59","stim/objects/HouseObjects/blender.png",181,35,181,0.5,"stim/22.jpeg",2,2,1,NA,"HouseObjects",1,3,"left","left",0.505000114,1,1,1,1,NA,NA,NA,NA,NA,NA,NA,NA,NA,NA,NA,NA,NA,NA,NA,NA,NA,NA,NA,NA,NA,NA,NA,NA
"231","stim/objects/Instruments/cymbal.png",182,35,182,0.7,"stim/33.jpeg",3,3,2,NA,"Instruments",2,3,"right","left",0.606999874,0,0,1,1,NA,NA,NA,NA,NA,NA,NA,NA,NA,NA,NA,NA,NA,NA,NA,NA,NA,NA,NA,NA,NA,NA,NA,NA
"114","stim/objects/HouseObjects/clothespin2.png",183,35,183,0.9,"stim/64.jpeg",6,4,3,NA,"HouseObjects",1,3,"left","left",0.491999865,1,1,1,1,NA,NA,NA,NA,NA,NA,NA,NA,NA,NA,NA,NA,NA,NA,NA,NA,NA,NA,NA,NA,NA,NA,NA,NA
"127","stim/objects/Instruments/accordion2.png",184,35,184,0.3,"stim/41.jpeg",4,1,2,NA,"Instruments",2,3,"right","left",0.655999899,0,0,1,1,NA,NA,NA,NA,NA,NA,NA,NA,NA,NA,NA,NA,NA,NA,NA,NA,NA,NA,NA,NA,NA,NA,NA,NA
"178","stim/objects/Instruments/bassguitar2.png",185,35,185,0.9,"stim/52.jpeg",5,2,3,NA,"Instruments",2,3,"right","right",0.56799984,1,1,1,1,NA,NA,NA,NA,NA,NA,NA,NA,NA,NA,NA,NA,NA,NA,NA,NA,NA,NA,NA,NA,NA,NA,NA,NA
"164","stim/objects/Instruments/bassdrum2.png",186,35,186,0.9,"stim/51.jpeg",5,1,3,NA,"Instruments",2,1,"right","right",0.531999826,1,1,1,1,NA,NA,NA,NA,NA,NA,NA,NA,NA,NA,NA,NA,NA,NA,NA,NA,NA,NA,NA,NA,NA,NA,NA,NA
"94","stim/objects/HouseObjects/clock2.png",187,35,187,0.9,"stim/62.jpeg",6,2,3,NA,"HouseObjects",1,4,"left","left",0.492000103,1,1,1,1,NA,NA,NA,NA,NA,NA,NA,NA,NA,NA,NA,NA,NA,NA,NA,NA,NA,NA,NA,NA,NA,NA,NA,NA
"205","stim/objects/Instruments/chime2.png",188,35,188,0.9,"stim/54.jpeg",5,4,3,NA,"Instruments",2,1,"right","right",0.523999929,1,1,1,1,NA,NA,NA,NA,NA,NA,NA,NA,NA,NA,NA,NA,NA,NA,NA,NA,NA,NA,NA,NA,NA,NA,NA,NA
"95","stim/objects/HouseObjects/clock2.png",189,35,189,0.9,"stim/62.jpeg",6,2,3,NA,"HouseObjects",1,3,"left","left",0.443999767,1,1,1,1,NA,NA,NA,NA,NA,NA,NA,NA,NA,NA,NA,NA,NA,NA,NA,NA,NA,NA,NA,NA,NA,NA,NA,NA
"206","stim/objects/Instruments/chime2.png",190,35,190,0.9,"stim/54.jpeg",5,4,3,NA,"Instruments",2,3,"right","right",0.481999874,1,1,1,1,NA,NA,NA,NA,NA,NA,NA,NA,NA,NA,NA,NA,NA,NA,NA,NA,NA,NA,NA,NA,NA,NA,NA,NA
"143","stim/objects/Instruments/balalaika2.png",191,35,191,0.3,"stim/43.jpeg",4,3,2,NA,"Instruments",2,1,"right","left",0.580000162,0,0,1,1,NA,NA,NA,NA,NA,NA,NA,NA,NA,NA,NA,NA,NA,NA,NA,NA,NA,NA,NA,NA,NA,NA,NA,NA
"12","stim/objects/HouseObjects/ashtray2.png",192,35,192,0.7,"stim/41.jpeg",4,1,2,NA,"HouseObjects",1,4,"left","left",0.621999741,1,1,1,1,NA,NA,NA,NA,NA,NA,NA,NA,NA,NA,NA,NA,NA,NA,NA,NA,NA,NA,NA,NA,NA,NA,NA,NA
"149","stim/objects/Instruments/banjo.png",193,35,193,0.5,"stim/14.jpeg",1,4,1,NA,"Instruments",2,2,"right","left",0.562999964,0,0,1,1,NA,NA,NA,NA,NA,NA,NA,NA,NA,NA,NA,NA,NA,NA,NA,NA,NA,NA,NA,NA,NA,NA,NA,NA
"170","stim/objects/Instruments/bassguitar.png",194,35,194,0.5,"stim/22.jpeg",2,2,1,NA,"Instruments",2,1,"right","left",0.578999758,0,0,1,1,NA,NA,NA,NA,NA,NA,NA,NA,NA,NA,NA,NA,NA,NA,NA,NA,NA,NA,NA,NA,NA,NA,NA,NA
"29","stim/objects/HouseObjects/barbecuelighter.png",195,35,195,0.5,"stim/13.jpeg",1,3,1,NA,"HouseObjects",1,1,"left","right",0.770999908,0,0,1,1,NA,NA,NA,NA,NA,NA,NA,NA,NA,NA,NA,NA,NA,NA,NA,NA,NA,NA,NA,NA,NA,NA,NA,NA
"96","stim/objects/HouseObjects/clock2.png",196,35,196,0.9,"stim/62.jpeg",6,2,3,NA,"HouseObjects",1,3,"left","left",0.602999926,1,1,1,1,NA,NA,NA,NA,NA,NA,NA,NA,NA,NA,NA,NA,NA,NA,NA,NA,NA,NA,NA,NA,NA,NA,NA,NA
"75","stim/objects/HouseObjects/bucket.png",197,35,197,0.3,"stim/31.jpeg",3,1,2,NA,"HouseObjects",1,1,"left","right",0.595999956,0,0,1,1,NA,NA,NA,NA,NA,NA,NA,NA,NA,NA,NA,NA,NA,NA,NA,NA,NA,NA,NA,NA,NA,NA,NA,NA
"36","stim/objects/HouseObjects/barbecuelighter2.png",198,35,198,0.7,"stim/43.jpeg",4,3,2,NA,"HouseObjects",1,1,"left","left",0.660000086,1,1,1,1,NA,NA,NA,NA,NA,NA,NA,NA,NA,NA,NA,NA,NA,NA,NA,NA,NA,NA,NA,NA,NA,NA,NA,NA
"41","stim/objects/HouseObjects/basket.png",199,35,199,0.5,"stim/14.jpeg",1,4,1,NA,"HouseObjects",1,3,"left","left",0.475999832,1,1,1,1,NA,NA,NA,NA,NA,NA,NA,NA,NA,NA,NA,NA,NA,NA,NA,NA,NA,NA,NA,NA,NA,NA,NA,NA
"115","stim/objects/HouseObjects/clothespin2.png",200,35,200,0.9,"stim/64.jpeg",6,4,3,NA,"HouseObjects",1,3,"left","left",0.480000019,1,1,1,1,NA,NA,NA,NA,NA,NA,NA,NA,NA,NA,NA,NA,NA,NA,NA,NA,NA,NA,NA,NA,NA,NA,NA,NA
"207","stim/objects/Instruments/chime2.png",201,35,201,0.9,"stim/54.jpeg",5,4,3,NA,"Instruments",2,4,"right","right",0.730999947,1,1,1,1,NA,NA,NA,NA,NA,NA,NA,NA,NA,NA,NA,NA,NA,NA,NA,NA,NA,NA,NA,NA,NA,NA,NA,NA
"116","stim/objects/HouseObjects/clothespin2.png",202,35,202,0.9,"stim/64.jpeg",6,4,3,NA,"HouseObjects",1,1,"left","left",0.521999836,1,1,1,1,NA,NA,NA,NA,NA,NA,NA,NA,NA,NA,NA,NA,NA,NA,NA,NA,NA,NA,NA,NA,NA,NA,NA,NA
"216","stim/objects/Instruments/clarinet2.png",203,35,203,0.1,"stim/61.jpeg",6,1,3,NA,"Instruments",2,4,"right","left",0.497999907,0,0,1,1,NA,NA,NA,NA,NA,NA,NA,NA,NA,NA,NA,NA,NA,NA,NA,NA,NA,NA,NA,NA,NA,NA,NA,NA
"117","stim/objects/HouseObjects/clothespin2.png",204,35,204,0.9,"stim/64.jpeg",6,4,3,NA,"HouseObjects",1,4,"left","left",0.644999981,1,1,1,1,NA,NA,NA,NA,NA,NA,NA,NA,NA,NA,NA,NA,NA,NA,NA,NA,NA,NA,NA,NA,NA,NA,NA,NA
"118","stim/objects/HouseObjects/clothespin2.png",205,35,205,0.9,"stim/64.jpeg",6,4,3,NA,"HouseObjects",1,1,"left","left",0.55099988,1,1,1,1,NA,NA,NA,NA,NA,NA,NA,NA,NA,NA,NA,NA,NA,NA,NA,NA,NA,NA,NA,NA,NA,NA,NA,NA
"171","stim/objects/Instruments/bassguitar.png",206,35,206,0.5,"stim/22.jpeg",2,2,1,NA,"Instruments",2,1,"right","left",0.525999784,0,0,1,1,NA,NA,NA,NA,NA,NA,NA,NA,NA,NA,NA,NA,NA,NA,NA,NA,NA,NA,NA,NA,NA,NA,NA,NA
"65","stim/objects/HouseObjects/bottle.png",207,35,207,0.5,"stim/23.jpeg",2,3,1,NA,"HouseObjects",1,1,"left","left",0.598999977,1,1,1,1,NA,NA,NA,NA,NA,NA,NA,NA,NA,NA,NA,NA,NA,NA,NA,NA,NA,NA,NA,NA,NA,NA,NA,NA
"179","stim/objects/Instruments/bassguitar2.png",208,35,208,0.9,"stim/52.jpeg",5,2,3,NA,"Instruments",2,1,"right","right",0.559999943,1,1,1,1,NA,NA,NA,NA,NA,NA,NA,NA,NA,NA,NA,NA,NA,NA,NA,NA,NA,NA,NA,NA,NA,NA,NA,NA
"54","stim/objects/HouseObjects/bleachbottle2.png",209,35,209,0.1,"stim/51.jpeg",5,1,3,NA,"HouseObjects",1,1,"left","right",0.491999865,0,0,1,1,NA,NA,NA,NA,NA,NA,NA,NA,NA,NA,NA,NA,NA,NA,NA,NA,NA,NA,NA,NA,NA,NA,NA,NA
"157","stim/objects/Instruments/bassdrum.png",210,35,210,0.5,"stim/21.jpeg",2,1,1,NA,"Instruments",2,1,"right","left",0.604000092,0,0,1,1,NA,NA,NA,NA,NA,NA,NA,NA,NA,NA,NA,NA,NA,NA,NA,NA,NA,NA,NA,NA,NA,NA,NA,NA
"185","stim/objects/Instruments/cello.png",211,35,211,0.5,"stim/23.jpeg",2,3,1,NA,"Instruments",2,4,"right","left",0.494999886,0,0,1,1,NA,NA,NA,NA,NA,NA,NA,NA,NA,NA,NA,NA,NA,NA,NA,NA,NA,NA,NA,NA,NA,NA,NA,NA
"128","stim/objects/Instruments/accordion2.png",212,35,212,0.3,"stim/41.jpeg",4,1,2,NA,"Instruments",2,2,"right","left",0.520999908,0,0,1,1,NA,NA,NA,NA,NA,NA,NA,NA,NA,NA,NA,NA,NA,NA,NA,NA,NA,NA,NA,NA,NA,NA,NA,NA
"16","stim/objects/HouseObjects/ballofstring.png",213,35,213,0.5,"stim/12.jpeg",1,2,1,NA,"HouseObjects",1,4,"left","left",0.542999983,1,1,1,1,NA,NA,NA,NA,NA,NA,NA,NA,NA,NA,NA,NA,NA,NA,NA,NA,NA,NA,NA,NA,NA,NA,NA,NA
"51","stim/objects/HouseObjects/bleachbottle.png",214,35,214,0.5,"stim/21.jpeg",2,1,1,NA,"HouseObjects",1,1,"left","right",0.667000055,0,0,1,1,NA,NA,NA,NA,NA,NA,NA,NA,NA,NA,NA,NA,NA,NA,NA,NA,NA,NA,NA,NA,NA,NA,NA,NA
"165","stim/objects/Instruments/bassdrum2.png",215,35,215,0.9,"stim/51.jpeg",5,1,3,NA,"Instruments",2,1,"right","right",0.532000065,1,1,1,1,NA,NA,NA,NA,NA,NA,NA,NA,NA,NA,NA,NA,NA,NA,NA,NA,NA,NA,NA,NA,NA,NA,NA,NA
"24","stim/objects/HouseObjects/ballofstring2.png",216,35,216,0.7,"stim/42.jpeg",4,2,2,NA,"HouseObjects",1,4,"left","left",0.54399991,1,1,1,1,NA,NA,NA,NA,NA,NA,NA,NA,NA,NA,NA,NA,NA,NA,NA,NA,NA,NA,NA,NA,NA,NA,NA,NA
"193","stim/objects/Instruments/cello2.png",217,35,217,0.9,"stim/53.jpeg",5,3,3,NA,"Instruments",2,2,"right","left",0.443999767,0,0,1,1,NA,NA,NA,NA,NA,NA,NA,NA,NA,NA,NA,NA,NA,NA,NA,NA,NA,NA,NA,NA,NA,NA,NA,NA
"214","stim/objects/Instruments/clarinet.png",218,35,218,0.7,"stim/31.jpeg",3,1,2,NA,"Instruments",2,3,"right","left",0.710999966,0,0,1,1,NA,NA,NA,NA,NA,NA,NA,NA,NA,NA,NA,NA,NA,NA,NA,NA,NA,NA,NA,NA,NA,NA,NA,NA
"166","stim/objects/Instruments/bassdrum2.png",219,35,219,0.9,"stim/51.jpeg",5,1,3,NA,"Instruments",2,4,"right","right",0.511999846,1,1,1,1,NA,NA,NA,NA,NA,NA,NA,NA,NA,NA,NA,NA,NA,NA,NA,NA,NA,NA,NA,NA,NA,NA,NA,NA
"133","stim/objects/Instruments/acousticguitar.png",220,35,220,0.5,"stim/12.jpeg",1,2,1,NA,"Instruments",2,3,"right","right",0.562000036,1,1,1,1,NA,NA,NA,NA,NA,NA,NA,NA,NA,NA,NA,NA,NA,NA,NA,NA,NA,NA,NA,NA,NA,NA,NA,NA
"152","stim/objects/Instruments/banjo2.png",221,35,221,0.3,"stim/44.jpeg",4,4,2,NA,"Instruments",2,3,"right","left",0.76699996,0,0,1,1,NA,NA,NA,NA,NA,NA,NA,NA,NA,NA,NA,NA,NA,NA,NA,NA,NA,NA,NA,NA,NA,NA,NA,NA
"222","stim/objects/Instruments/cornet.png",222,35,222,0.7,"stim/32.jpeg",3,2,2,NA,"Instruments",2,3,"right","right",0.592000008,1,1,1,1,NA,NA,NA,NA,NA,NA,NA,NA,NA,NA,NA,NA,NA,NA,NA,NA,NA,NA,NA,NA,NA,NA,NA,NA
"87","stim/objects/HouseObjects/clock.png",223,35,223,0.3,"stim/32.jpeg",3,2,2,NA,"HouseObjects",1,2,"left","right",0.595999956,0,0,1,1,NA,NA,NA,NA,NA,NA,NA,NA,NA,NA,NA,NA,NA,NA,NA,NA,NA,NA,NA,NA,NA,NA,NA,NA
"180","stim/objects/Instruments/bassguitar2.png",224,35,224,0.9,"stim/52.jpeg",5,2,3,NA,"Instruments",2,4,"right","right",0.582999945,1,1,1,1,NA,NA,NA,NA,NA,NA,NA,NA,NA,NA,NA,NA,NA,NA,NA,NA,NA,NA,NA,NA,NA,NA,NA,NA
"144","stim/objects/Instruments/balalaika2.png",225,35,225,0.3,"stim/43.jpeg",4,3,2,NA,"Instruments",2,3,"right","left",0.628999949,0,0,1,1,NA,NA,NA,NA,NA,NA,NA,NA,NA,NA,NA,NA,NA,NA,NA,NA,NA,NA,NA,NA,NA,NA,NA,NA
"119","stim/objects/HouseObjects/clothespin2.png",226,35,226,0.9,"stim/64.jpeg",6,4,3,NA,"HouseObjects",1,2,"left","left",0.517999887,1,1,1,1,NA,NA,NA,NA,NA,NA,NA,NA,NA,NA,NA,NA,NA,NA,NA,NA,NA,NA,NA,NA,NA,NA,NA,NA
"215","stim/objects/Instruments/clarinet.png",227,35,227,0.7,"stim/31.jpeg",3,1,2,NA,"Instruments",2,3,"right","left",0.39199996,0,0,1,1,NA,NA,NA,NA,NA,NA,NA,NA,NA,NA,NA,NA,NA,NA,NA,NA,NA,NA,NA,NA,NA,NA,NA,NA
"124","stim/objects/Instruments/accordion.png",228,35,228,0.5,"stim/11.jpeg",1,1,1,NA,"Instruments",2,4,"right","left",0.614000082,0,0,1,1,NA,NA,NA,NA,NA,NA,NA,NA,NA,NA,NA,NA,NA,NA,NA,NA,NA,NA,NA,NA,NA,NA,NA,NA
"223","stim/objects/Instruments/cornet.png",229,35,229,0.7,"stim/32.jpeg",3,2,2,NA,"Instruments",2,2,"right","right",0.565999985,1,1,1,1,NA,NA,NA,NA,NA,NA,NA,NA,NA,NA,NA,NA,NA,NA,NA,NA,NA,NA,NA,NA,NA,NA,NA,NA
"108","stim/objects/HouseObjects/clothesdryingrack2.png",230,35,230,0.9,"stim/63.jpeg",6,3,3,NA,"HouseObjects",1,4,"left","",NA,0,0,1,1,NA,NA,NA,NA,NA,NA,NA,NA,NA,NA,NA,NA,NA,NA,NA,NA,NA,NA,NA,NA,NA,NA,NA,NA
"17","stim/objects/HouseObjects/ballofstring.png",231,35,231,0.5,"stim/12.jpeg",1,2,1,NA,"HouseObjects",1,2,"left","left",0.478999853,1,1,1,1,NA,NA,NA,NA,NA,NA,NA,NA,NA,NA,NA,NA,NA,NA,NA,NA,NA,NA,NA,NA,NA,NA,NA,NA
"239","stim/objects/Instruments/doublebass.png",232,35,232,0.7,"stim/34.jpeg",3,4,2,NA,"Instruments",2,3,"right","right",0.534000158,1,1,1,1,NA,NA,NA,NA,NA,NA,NA,NA,NA,NA,NA,NA,NA,NA,NA,NA,NA,NA,NA,NA,NA,NA,NA,NA
"194","stim/objects/Instruments/cello2.png",233,35,233,0.9,"stim/53.jpeg",5,3,3,NA,"Instruments",2,3,"right","right",0.343999863,1,1,1,1,NA,NA,NA,NA,NA,NA,NA,NA,NA,NA,NA,NA,NA,NA,NA,NA,NA,NA,NA,NA,NA,NA,NA,NA
"52","stim/objects/HouseObjects/bleachbottle.png",234,35,234,0.5,"stim/21.jpeg",2,1,1,NA,"HouseObjects",1,1,"left","left",0.602999926,1,1,1,1,NA,NA,NA,NA,NA,NA,NA,NA,NA,NA,NA,NA,NA,NA,NA,NA,NA,NA,NA,NA,NA,NA,NA,NA
"136","stim/objects/Instruments/acousticguitar2.png",235,35,235,0.3,"stim/42.jpeg",4,2,2,NA,"Instruments",2,2,"right","left",0.585999966,0,0,1,1,NA,NA,NA,NA,NA,NA,NA,NA,NA,NA,NA,NA,NA,NA,NA,NA,NA,NA,NA,NA,NA,NA,NA,NA
"53","stim/objects/HouseObjects/bleachbottle.png",236,35,236,0.5,"stim/21.jpeg",2,1,1,NA,"HouseObjects",1,3,"left","right",0.41899991,0,0,1,1,NA,NA,NA,NA,NA,NA,NA,NA,NA,NA,NA,NA,NA,NA,NA,NA,NA,NA,NA,NA,NA,NA,NA,NA
"120","stim/objects/HouseObjects/clothespin2.png",237,35,237,0.9,"stim/64.jpeg",6,4,3,NA,"HouseObjects",1,3,"left","left",0.500999928,1,1,1,1,NA,NA,NA,NA,NA,NA,NA,NA,NA,NA,NA,NA,NA,NA,NA,NA,NA,NA,NA,NA,NA,NA,NA,NA
"224","stim/objects/Instruments/cornet2.png",238,35,238,0.1,"stim/62.jpeg",6,2,3,NA,"Instruments",2,1,"right","left",0.39199996,0,0,1,1,NA,NA,NA,NA,NA,NA,NA,NA,NA,NA,NA,NA,NA,NA,NA,NA,NA,NA,NA,NA,NA,NA,NA,NA
"125","stim/objects/Instruments/accordion.png",239,35,239,0.5,"stim/11.jpeg",1,1,1,NA,"Instruments",2,3,"right","right",0.611999989,1,1,1,1,NA,NA,NA,NA,NA,NA,NA,NA,NA,NA,NA,NA,NA,NA,NA,NA,NA,NA,NA,NA,NA,NA,NA,NA
"208","stim/objects/Instruments/chime2.png",240,35,240,0.9,"stim/54.jpeg",5,4,3,NA,"Instruments",2,2,"right","right",0.47699976,1,1,1,1,NA,NA,NA,NA,NA,NA,NA,NA,NA,NA,NA,NA,NA,NA,NA,NA,NA,NA,NA,NA,NA,NA,NA,NA
"265","stim/objects/HouseObjects/glassmop.png",248,35,241,0.5,"stim/23.jpeg",2,3,1,2,"HouseObjects",1,3,"left","left",0.624000072,1,1,1,0,NA,NA,NA,NA,NA,NA,NA,NA,NA,NA,NA,NA,NA,NA,NA,NA,NA,NA,NA,NA,NA,NA,NA,NA
"415","stim/objects/Instruments/flute.png",249,35,242,0.5,"stim/14.jpeg",1,4,1,2,"Instruments",2,3,"right","left",0.451999903,0,0,1,0,NA,NA,NA,NA,NA,NA,NA,NA,NA,NA,NA,NA,NA,NA,NA,NA,NA,NA,NA,NA,NA,NA,NA,NA
"562","stim/objects/Instruments/trumpet2.png",250,35,243,0.1,"stim/64.jpeg",6,4,3,1,"Instruments",2,4,"right","left",0.528999805,0,0,1,0,56,35,1,0.1,2,"stim/64.jpeg",6,4,"stim/64.jpeg",4,"left",0.980000019,2,4,0.707000017,4,1.227999926,56,1,1,1,1,1,1
"258","stim/objects/HouseObjects/flyswatter2.png",251,35,244,0.7,"stim/44.jpeg",4,4,2,1,"HouseObjects",1,1,"left","right",0.569999933,0,0,1,0,121,35,1,0.7,1,"stim/44.jpeg",4,4,"stim/44.jpeg",1,"right",2.440000057,1,2,0.700999737,3,0.756000042,121,0,0,NA,0,NA,1
"380","stim/objects/HouseObjects/rubbergloves.png",252,35,245,0.5,"stim/11.jpeg",1,1,1,1,"HouseObjects",1,4,"left","left",0.510999918,1,1,1,0,144,35,1,0.5,1,"stim/11.jpeg",1,1,"stim/11.jpeg",4,"left",0.854999781,3,3,0.801999807,2,1.319000006,144,1,0,0,0,0,1
"564","stim/objects/Instruments/tuba2.png",253,35,246,0.1,"stim/61.jpeg",6,1,3,1,"Instruments",2,2,"right","left",0.428999901,0,0,1,0,191,35,1,0.1,2,"stim/61.jpeg",6,1,"stim/61.jpeg",2,"right",2.024999857,3,2,0.921999931,1,1.023999929,191,0,0,NA,0,NA,1
"430","stim/objects/Instruments/guitarcase.png",254,35,247,0.5,"stim/22.jpeg",2,2,1,2,"Instruments",2,2,"right","left",0.650000095,0,0,1,0,NA,NA,NA,NA,NA,NA,NA,NA,NA,NA,NA,NA,NA,NA,NA,NA,NA,NA,NA,NA,NA,NA,NA,NA
"359","stim/objects/HouseObjects/pitcher.png",255,35,248,0.9,"stim/62.jpeg",6,2,3,2,"HouseObjects",1,1,"left","left",0.551999807,1,1,1,0,NA,NA,NA,NA,NA,NA,NA,NA,NA,NA,NA,NA,NA,NA,NA,NA,NA,NA,NA,NA,NA,NA,NA,NA
"279","stim/objects/HouseObjects/iron.png",256,35,249,0.7,"stim/43.jpeg",4,3,2,2,"HouseObjects",1,3,"left","right",0.618000031,0,0,1,0,NA,NA,NA,NA,NA,NA,NA,NA,NA,NA,NA,NA,NA,NA,NA,NA,NA,NA,NA,NA,NA,NA,NA,NA
"508","stim/objects/Instruments/musicstand.png",257,35,250,0.9,"stim/53.jpeg",5,3,3,2,"Instruments",2,4,"right","right",0.527999878,1,1,1,0,NA,NA,NA,NA,NA,NA,NA,NA,NA,NA,NA,NA,NA,NA,NA,NA,NA,NA,NA,NA,NA,NA,NA,NA
"383","stim/objects/HouseObjects/rug2.png",258,35,251,0.1,"stim/51.jpeg",5,1,3,1,"HouseObjects",1,2,"left","right",0.548999786,0,0,1,0,93,35,1,0.1,1,"stim/51.jpeg",5,1,"stim/51.jpeg",2,"right",0.838999748,2,2,2.036000013,2,0.705999851,93,0,0,NA,1,NA,1
"456","stim/objects/Instruments/marimba.png",259,35,252,0.9,"stim/53.jpeg",5,3,3,2,"Instruments",2,3,"right","right",0.595999956,1,1,1,0,NA,NA,NA,NA,NA,NA,NA,NA,NA,NA,NA,NA,NA,NA,NA,NA,NA,NA,NA,NA,NA,NA,NA,NA
"490","stim/objects/Instruments/musicsheet.png",260,35,253,0.9,"stim/54.jpeg",5,4,3,2,"Instruments",2,2,"right","right",0.53399992,1,1,1,0,NA,NA,NA,NA,NA,NA,NA,NA,NA,NA,NA,NA,NA,NA,NA,NA,NA,NA,NA,NA,NA,NA,NA,NA
"436","stim/objects/Instruments/harp.png",261,35,254,0.7,"stim/34.jpeg",3,4,2,2,"Instruments",2,2,"right","right",0.465999842,1,1,1,0,NA,NA,NA,NA,NA,NA,NA,NA,NA,NA,NA,NA,NA,NA,NA,NA,NA,NA,NA,NA,NA,NA,NA,NA
"524","stim/objects/Instruments/oboe.png",262,35,255,0.9,"stim/53.jpeg",5,3,3,2,"Instruments",2,2,"right","right",0.441999912,1,1,1,0,NA,NA,NA,NA,NA,NA,NA,NA,NA,NA,NA,NA,NA,NA,NA,NA,NA,NA,NA,NA,NA,NA,NA,NA
"525","stim/objects/Instruments/oboe.png",263,35,256,0.9,"stim/51.jpeg",5,1,3,2,"Instruments",2,1,"right","right",0.444999933,1,1,1,0,NA,NA,NA,NA,NA,NA,NA,NA,NA,NA,NA,NA,NA,NA,NA,NA,NA,NA,NA,NA,NA,NA,NA,NA
"358","stim/objects/HouseObjects/pan2.png",264,35,257,0.1,"stim/54.jpeg",5,4,3,1,"HouseObjects",1,3,"left","right",0.473999977,0,0,1,0,108,35,1,0.1,1,"stim/54.jpeg",5,4,"stim/54.jpeg",3,"right",0.90899992,1,2,0.786999941,3,0.566999912,108,0,0,NA,1,NA,1
"509","stim/objects/Instruments/musicstand.png",265,35,258,0.9,"stim/52.jpeg",5,2,3,2,"Instruments",2,3,"right","right",0.457999945,1,1,1,0,NA,NA,NA,NA,NA,NA,NA,NA,NA,NA,NA,NA,NA,NA,NA,NA,NA,NA,NA,NA,NA,NA,NA,NA
"283","stim/objects/HouseObjects/ironingboard.png",266,35,259,0.7,"stim/44.jpeg",4,4,2,2,"HouseObjects",1,2,"left","right",0.700000048,0,0,1,0,NA,NA,NA,NA,NA,NA,NA,NA,NA,NA,NA,NA,NA,NA,NA,NA,NA,NA,NA,NA,NA,NA,NA,NA
"473","stim/objects/Instruments/metronome.png",267,35,260,0.9,"stim/51.jpeg",5,1,3,2,"Instruments",2,4,"right","right",0.476999998,1,1,1,0,NA,NA,NA,NA,NA,NA,NA,NA,NA,NA,NA,NA,NA,NA,NA,NA,NA,NA,NA,NA,NA,NA,NA,NA
"271","stim/objects/HouseObjects/handbrush.png",268,35,261,0.7,"stim/42.jpeg",4,2,2,2,"HouseObjects",1,4,"left","right",0.424999714,0,0,1,0,NA,NA,NA,NA,NA,NA,NA,NA,NA,NA,NA,NA,NA,NA,NA,NA,NA,NA,NA,NA,NA,NA,NA,NA
"421","stim/objects/Instruments/frenchhorn.png",269,35,262,0.5,"stim/22.jpeg",2,2,1,2,"Instruments",2,4,"right","right",0.467999935,1,1,1,0,NA,NA,NA,NA,NA,NA,NA,NA,NA,NA,NA,NA,NA,NA,NA,NA,NA,NA,NA,NA,NA,NA,NA,NA
"342","stim/objects/HouseObjects/pan.png",270,35,263,0.9,"stim/61.jpeg",6,1,3,2,"HouseObjects",1,1,"left","left",0.50999999,1,1,1,0,NA,NA,NA,NA,NA,NA,NA,NA,NA,NA,NA,NA,NA,NA,NA,NA,NA,NA,NA,NA,NA,NA,NA,NA
"397","stim/objects/HouseObjects/thermometer2.png",271,35,264,0.9,"stim/62.jpeg",6,2,3,1,"HouseObjects",1,2,"left","left",0.473999739,1,1,1,0,138,35,1,0.9,1,"stim/62.jpeg",6,2,"stim/62.jpeg",2,"left",1.144999743,3,3,1.561999798,4,2.284999847,138,1,0,0,0,0,1
"510","stim/objects/Instruments/musicstand.png",272,35,265,0.9,"stim/51.jpeg",5,1,3,2,"Instruments",2,3,"right","right",0.462999821,1,1,1,0,NA,NA,NA,NA,NA,NA,NA,NA,NA,NA,NA,NA,NA,NA,NA,NA,NA,NA,NA,NA,NA,NA,NA,NA
"376","stim/objects/HouseObjects/recyclingbin.png",273,35,266,0.5,"stim/13.jpeg",1,3,1,1,"HouseObjects",1,4,"left","left",0.569000006,1,1,1,0,2,35,1,0.5,1,"stim/13.jpeg",1,3,"stim/13.jpeg",4,"left",2.64199996,3,2,2.428999901,2,1.464999914,2,1,0,0,0,0,1
"405","stim/objects/HouseObjects/wateringcan2.png",274,35,267,0.9,"stim/62.jpeg",6,2,3,1,"HouseObjects",1,4,"left","left",0.458999872,1,1,1,0,177,35,1,0.9,1,"stim/62.jpeg",6,2,"stim/62.jpeg",4,"right",0.865999937,1,2,0.802999973,2,0.903999805,177,0,1,NA,0,NA,1
"280","stim/objects/HouseObjects/iron.png",275,35,268,0.7,"stim/44.jpeg",4,4,2,2,"HouseObjects",1,3,"left","left",0.542000055,1,1,1,0,NA,NA,NA,NA,NA,NA,NA,NA,NA,NA,NA,NA,NA,NA,NA,NA,NA,NA,NA,NA,NA,NA,NA,NA
"262","stim/objects/HouseObjects/glass.png",276,35,269,0.5,"stim/22.jpeg",2,2,1,2,"HouseObjects",1,4,"left","left",0.504999876,1,1,1,0,NA,NA,NA,NA,NA,NA,NA,NA,NA,NA,NA,NA,NA,NA,NA,NA,NA,NA,NA,NA,NA,NA,NA,NA
"556","stim/objects/Instruments/timbal2.png",277,35,270,0.1,"stim/61.jpeg",6,1,3,1,"Instruments",2,2,"right","left",0.633999825,0,0,1,0,161,35,1,0.1,2,"stim/61.jpeg",6,1,"stim/61.jpeg",2,"left",1.106999874,3,3,2.307999849,4,1.038999796,161,1,0,0,0,0,1
"424","stim/objects/Instruments/gong.png",278,35,271,0.5,"stim/24.jpeg",2,4,1,2,"Instruments",2,2,"right","left",0.475999832,0,0,1,0,NA,NA,NA,NA,NA,NA,NA,NA,NA,NA,NA,NA,NA,NA,NA,NA,NA,NA,NA,NA,NA,NA,NA,NA
"411","stim/objects/Instruments/electricdrumset2.png",279,35,272,0.7,"stim/34.jpeg",3,4,2,1,"Instruments",2,1,"right","",NA,0,0,1,0,16,35,1,0.7,2,"stim/34.jpeg",3,4,"stim/34.jpeg",1,"left",1.369999886,4,4,1.474999905,3,1.556999922,16,1,1,1,0,0,1
"324","stim/objects/HouseObjects/lintroller2.png",280,35,273,0.1,"stim/52.jpeg",5,2,3,1,"HouseObjects",1,3,"left","right",0.458999872,0,0,1,0,60,35,1,0.1,1,"stim/52.jpeg",5,2,"stim/52.jpeg",3,"left",0.830999851,3,2,1.319999933,3,0.985999823,60,1,1,1,1,1,1
"256","stim/objects/HouseObjects/flyswatter.png",281,35,274,0.5,"stim/24.jpeg",2,4,1,2,"HouseObjects",1,2,"left","left",0.263999939,1,1,1,0,NA,NA,NA,NA,NA,NA,NA,NA,NA,NA,NA,NA,NA,NA,NA,NA,NA,NA,NA,NA,NA,NA,NA,NA
"426","stim/objects/Instruments/gong2.png",282,35,275,0.3,"stim/43.jpeg",4,3,2,1,"Instruments",2,4,"right","left",0.53399992,0,0,1,0,159,35,1,0.3,2,"stim/43.jpeg",4,3,"stim/43.jpeg",4,"left",2.467999935,3,4,1.404999971,1,2.243000031,159,1,0,0,0,0,1
"550","stim/objects/Instruments/saxophone2.png",283,35,276,0.9,"stim/54.jpeg",5,4,3,1,"Instruments",2,1,"right","right",0.495999813,1,1,1,0,48,35,1,0.9,2,"stim/54.jpeg",5,4,"stim/54.jpeg",1,"right",1.097000122,2,4,2.664000034,4,0.970999956,48,0,1,NA,0,NA,1
"345","stim/objects/HouseObjects/pan.png",284,35,277,0.9,"stim/61.jpeg",6,1,3,2,"HouseObjects",1,1,"left","left",0.552999973,1,1,1,0,NA,NA,NA,NA,NA,NA,NA,NA,NA,NA,NA,NA,NA,NA,NA,NA,NA,NA,NA,NA,NA,NA,NA,NA
"491","stim/objects/Instruments/musicsheet.png",285,35,278,0.9,"stim/53.jpeg",5,3,3,2,"Instruments",2,3,"right","right",0.526000023,1,1,1,0,NA,NA,NA,NA,NA,NA,NA,NA,NA,NA,NA,NA,NA,NA,NA,NA,NA,NA,NA,NA,NA,NA,NA,NA
"360","stim/objects/HouseObjects/pitcher.png",286,35,279,0.9,"stim/62.jpeg",6,2,3,2,"HouseObjects",1,4,"left","right",0.365999937,0,0,1,0,NA,NA,NA,NA,NA,NA,NA,NA,NA,NA,NA,NA,NA,NA,NA,NA,NA,NA,NA,NA,NA,NA,NA,NA
"401","stim/objects/HouseObjects/towel2.png",287,35,280,0.9,"stim/64.jpeg",6,4,3,1,"HouseObjects",1,2,"left","left",0.540999889,1,1,1,0,170,35,1,0.9,1,"stim/64.jpeg",6,4,"stim/64.jpeg",2,"right",1.064999819,2,2,0.888000011,1,1.13499999,170,0,0,NA,0,NA,1
"391","stim/objects/HouseObjects/sponge2.png",288,35,281,0.9,"stim/63.jpeg",6,3,3,1,"HouseObjects",1,4,"left","left",0.528999805,1,1,1,0,70,35,1,0.9,1,"stim/63.jpeg",6,3,"stim/63.jpeg",4,"left",0.934000015,3,2,0.951999903,3,1.701999903,70,1,0,0,0,0,1
"308","stim/objects/HouseObjects/lintroller.png",289,35,282,0.9,"stim/61.jpeg",6,1,3,2,"HouseObjects",1,4,"left","left",0.377999783,1,1,1,0,NA,NA,NA,NA,NA,NA,NA,NA,NA,NA,NA,NA,NA,NA,NA,NA,NA,NA,NA,NA,NA,NA,NA,NA
"291","stim/objects/HouseObjects/knife.png",290,35,283,0.9,"stim/61.jpeg",6,1,3,2,"HouseObjects",1,2,"left","left",0.447999954,1,1,1,0,NA,NA,NA,NA,NA,NA,NA,NA,NA,NA,NA,NA,NA,NA,NA,NA,NA,NA,NA,NA,NA,NA,NA,NA
"472","stim/objects/Instruments/marimba2.png",291,35,284,0.9,"stim/53.jpeg",5,3,3,1,"Instruments",2,1,"right","right",0.539999962,1,1,1,0,163,35,1,0.9,2,"stim/53.jpeg",5,3,"stim/53.jpeg",1,"right",0.626999855,1,2,1.157999992,4,1.423999786,163,0,0,NA,0,NA,1
"384","stim/objects/HouseObjects/safetypin.png",292,35,285,0.5,"stim/13.jpeg",1,3,1,1,"HouseObjects",1,1,"left","left",0.572999954,1,1,1,0,158,35,1,0.5,1,"stim/13.jpeg",1,3,"stim/13.jpeg",1,"left",1.080999851,3,1,1.312999964,3,3.116999865,158,1,0,0,0,0,1
"402","stim/objects/HouseObjects/vacuumcleaner.png",293,35,286,0.3,"stim/34.jpeg",3,4,2,1,"HouseObjects",1,3,"left","left",0.787999868,1,1,1,0,195,35,1,0.3,1,"stim/34.jpeg",3,4,"stim/34.jpeg",3,"left",1.476999998,4,2,1.723999977,3,1.354000092,195,1,0,0,1,1,1
"492","stim/objects/Instruments/musicsheet.png",294,35,287,0.9,"stim/54.jpeg",5,4,3,2,"Instruments",2,2,"right","right",0.434000015,1,1,1,0,NA,NA,NA,NA,NA,NA,NA,NA,NA,NA,NA,NA,NA,NA,NA,NA,NA,NA,NA,NA,NA,NA,NA,NA
"346","stim/objects/HouseObjects/pan.png",295,35,288,0.9,"stim/63.jpeg",6,3,3,2,"HouseObjects",1,1,"left","left",0.497999907,1,1,1,0,NA,NA,NA,NA,NA,NA,NA,NA,NA,NA,NA,NA,NA,NA,NA,NA,NA,NA,NA,NA,NA,NA,NA,NA
"460","stim/objects/Instruments/marimba.png",296,35,289,0.9,"stim/52.jpeg",5,2,3,2,"Instruments",2,3,"right","right",0.594000101,1,1,1,0,NA,NA,NA,NA,NA,NA,NA,NA,NA,NA,NA,NA,NA,NA,NA,NA,NA,NA,NA,NA,NA,NA,NA,NA
"551","stim/objects/Instruments/speaker.png",297,35,290,0.5,"stim/24.jpeg",2,4,1,1,"Instruments",2,1,"right","right",0.534999847,1,1,1,0,155,35,1,0.5,2,"stim/24.jpeg",2,4,"stim/24.jpeg",1,"right",0.611000061,1,1,1.073999882,4,0.898999929,155,0,0,NA,0,NA,1
"527","stim/objects/Instruments/oboe.png",298,35,291,0.9,"stim/54.jpeg",5,4,3,2,"Instruments",2,1,"right","right",0.48699975,1,1,1,0,NA,NA,NA,NA,NA,NA,NA,NA,NA,NA,NA,NA,NA,NA,NA,NA,NA,NA,NA,NA,NA,NA,NA,NA
"254","stim/objects/HouseObjects/dustpan.png",299,35,292,0.5,"stim/12.jpeg",1,2,1,2,"HouseObjects",1,3,"left","right",0.613999844,0,0,1,0,NA,NA,NA,NA,NA,NA,NA,NA,NA,NA,NA,NA,NA,NA,NA,NA,NA,NA,NA,NA,NA,NA,NA,NA
"528","stim/objects/Instruments/oboe.png",300,35,293,0.9,"stim/53.jpeg",5,3,3,2,"Instruments",2,4,"right","right",0.444000006,1,1,1,0,NA,NA,NA,NA,NA,NA,NA,NA,NA,NA,NA,NA,NA,NA,NA,NA,NA,NA,NA,NA,NA,NA,NA,NA
"385","stim/objects/HouseObjects/safetypin2.png",301,35,294,0.1,"stim/52.jpeg",5,2,3,1,"HouseObjects",1,4,"left","right",0.611999989,0,0,1,0,23,35,1,0.1,1,"stim/52.jpeg",5,2,"stim/52.jpeg",4,"right",0.974999905,3,2,2.627999783,2,0.464999914,23,0,1,NA,0,NA,1
"552","stim/objects/Instruments/speaker2.png",302,35,295,0.1,"stim/63.jpeg",6,3,3,1,"Instruments",2,2,"right","left",0.477999926,0,0,1,0,190,35,1,0.1,2,"stim/63.jpeg",6,3,"stim/63.jpeg",2,"right",0.644999981,2,2,0.765000105,4,1.368000031,190,0,0,NA,0,NA,1
"409","stim/objects/Instruments/electricdrumset.png",303,35,296,0.5,"stim/12.jpeg",1,2,1,2,"Instruments",2,1,"right","left",0.528000116,0,0,1,0,NA,NA,NA,NA,NA,NA,NA,NA,NA,NA,NA,NA,NA,NA,NA,NA,NA,NA,NA,NA,NA,NA,NA,NA
"325","stim/objects/HouseObjects/match.png",304,35,297,0.9,"stim/63.jpeg",6,3,3,2,"HouseObjects",1,1,"left","left",0.357999802,1,1,1,0,NA,NA,NA,NA,NA,NA,NA,NA,NA,NA,NA,NA,NA,NA,NA,NA,NA,NA,NA,NA,NA,NA,NA,NA
"390","stim/objects/HouseObjects/sponge.png",305,35,298,0.5,"stim/23.jpeg",2,3,1,1,"HouseObjects",1,3,"left","left",0.505999804,1,1,1,0,145,35,1,0.5,2,"stim/23.jpeg",2,3,"stim/23.jpeg",3,"left",2.474999905,2,2,1.694999933,3,1.276000023,145,1,0,0,1,1,1
"529","stim/objects/Instruments/oboe.png",306,35,299,0.9,"stim/52.jpeg",5,2,3,2,"Instruments",2,2,"right","right",0.499000072,1,1,1,0,NA,NA,NA,NA,NA,NA,NA,NA,NA,NA,NA,NA,NA,NA,NA,NA,NA,NA,NA,NA,NA,NA,NA,NA
"512","stim/objects/Instruments/musicstand.png",307,35,300,0.9,"stim/53.jpeg",5,3,3,2,"Instruments",2,1,"right","right",0.430000067,1,1,1,0,NA,NA,NA,NA,NA,NA,NA,NA,NA,NA,NA,NA,NA,NA,NA,NA,NA,NA,NA,NA,NA,NA,NA,NA
"475","stim/objects/Instruments/metronome.png",308,35,301,0.9,"stim/52.jpeg",5,2,3,2,"Instruments",2,4,"right","right",0.407999992,1,1,1,0,NA,NA,NA,NA,NA,NA,NA,NA,NA,NA,NA,NA,NA,NA,NA,NA,NA,NA,NA,NA,NA,NA,NA,NA
"530","stim/objects/Instruments/oboe.png",309,35,302,0.9,"stim/54.jpeg",5,4,3,2,"Instruments",2,3,"right","right",0.443000078,1,1,1,0,NA,NA,NA,NA,NA,NA,NA,NA,NA,NA,NA,NA,NA,NA,NA,NA,NA,NA,NA,NA,NA,NA,NA,NA
"476","stim/objects/Instruments/metronome.png",310,35,303,0.9,"stim/54.jpeg",5,4,3,2,"Instruments",2,2,"right","right",0.441999912,1,1,1,0,NA,NA,NA,NA,NA,NA,NA,NA,NA,NA,NA,NA,NA,NA,NA,NA,NA,NA,NA,NA,NA,NA,NA,NA
"445","stim/objects/Instruments/keyboard.png",311,35,304,0.7,"stim/33.jpeg",3,3,2,2,"Instruments",2,4,"right","right",0.476999998,1,1,1,0,NA,NA,NA,NA,NA,NA,NA,NA,NA,NA,NA,NA,NA,NA,NA,NA,NA,NA,NA,NA,NA,NA,NA,NA
"435","stim/objects/Instruments/harmonica2.png",312,35,305,0.3,"stim/42.jpeg",4,2,2,1,"Instruments",2,2,"right","right",0.512000084,1,1,1,0,68,35,1,0.3,2,"stim/42.jpeg",4,2,"stim/42.jpeg",2,"left",1.042999744,2,1,1.138000011,3,1.111999989,68,1,0,0,0,0,1
"443","stim/objects/Instruments/hihat2.png",313,35,306,0.3,"stim/44.jpeg",4,4,2,1,"Instruments",2,2,"right","right",0.630999804,1,1,1,0,148,35,1,0.3,2,"stim/44.jpeg",4,4,"stim/44.jpeg",2,"right",1.699999809,2,3,1.076999903,2,1.707999706,148,0,0,NA,1,NA,1
"377","stim/objects/HouseObjects/recyclingbin2.png",314,35,307,0.1,"stim/52.jpeg",5,2,3,1,"HouseObjects",1,3,"left","right",0.379999876,0,0,1,0,4,35,1,0.1,1,"stim/52.jpeg",5,2,"stim/52.jpeg",3,"left",2.338999987,3,2,2.625999928,1,1.762999773,4,1,1,1,0,0,1
"272","stim/objects/HouseObjects/handbrush.png",315,35,308,0.7,"stim/43.jpeg",4,3,2,2,"HouseObjects",1,2,"left","left",0.544999838,1,1,1,0,NA,NA,NA,NA,NA,NA,NA,NA,NA,NA,NA,NA,NA,NA,NA,NA,NA,NA,NA,NA,NA,NA,NA,NA
"548","stim/objects/Instruments/record2.png",316,35,309,0.9,"stim/52.jpeg",5,2,3,1,"Instruments",2,2,"right","left",0.459000111,0,0,1,0,188,35,1,0.9,2,"stim/52.jpeg",5,2,"stim/52.jpeg",2,"right",0.79399991,2,2,0.496999979,1,1.558000088,188,0,1,NA,0,NA,1
"326","stim/objects/HouseObjects/match.png",317,35,310,0.9,"stim/61.jpeg",6,1,3,2,"HouseObjects",1,1,"left","left",0.568999767,1,1,1,0,NA,NA,NA,NA,NA,NA,NA,NA,NA,NA,NA,NA,NA,NA,NA,NA,NA,NA,NA,NA,NA,NA,NA,NA
"288","stim/objects/HouseObjects/key.png",318,35,311,0.7,"stim/42.jpeg",4,2,2,2,"HouseObjects",1,1,"left","right",0.460000038,0,0,1,0,NA,NA,NA,NA,NA,NA,NA,NA,NA,NA,NA,NA,NA,NA,NA,NA,NA,NA,NA,NA,NA,NA,NA,NA
"270","stim/objects/HouseObjects/hairdryer2.png",319,35,312,0.7,"stim/44.jpeg",4,4,2,1,"HouseObjects",1,3,"left","right",0.553999901,0,0,1,0,83,35,1,0.7,1,"stim/44.jpeg",4,4,"stim/44.jpeg",3,"right",0.71600008,2,1,1.273000002,4,1.39199996,83,0,0,NA,0,NA,1
"244","stim/objects/HouseObjects/cushion.png",320,35,313,0.5,"stim/13.jpeg",1,3,1,2,"HouseObjects",1,3,"left","right",0.43599987,0,0,1,0,NA,NA,NA,NA,NA,NA,NA,NA,NA,NA,NA,NA,NA,NA,NA,NA,NA,NA,NA,NA,NA,NA,NA,NA
"327","stim/objects/HouseObjects/match.png",321,35,314,0.9,"stim/64.jpeg",6,4,3,2,"HouseObjects",1,1,"left","left",0.450999975,1,1,1,0,NA,NA,NA,NA,NA,NA,NA,NA,NA,NA,NA,NA,NA,NA,NA,NA,NA,NA,NA,NA,NA,NA,NA,NA
"348","stim/objects/HouseObjects/pan.png",322,35,315,0.9,"stim/62.jpeg",6,2,3,2,"HouseObjects",1,2,"left","left",0.52699995,1,1,1,0,NA,NA,NA,NA,NA,NA,NA,NA,NA,NA,NA,NA,NA,NA,NA,NA,NA,NA,NA,NA,NA,NA,NA,NA
"310","stim/objects/HouseObjects/lintroller.png",323,35,316,0.9,"stim/63.jpeg",6,3,3,2,"HouseObjects",1,4,"left","left",0.610999823,1,1,1,0,NA,NA,NA,NA,NA,NA,NA,NA,NA,NA,NA,NA,NA,NA,NA,NA,NA,NA,NA,NA,NA,NA,NA,NA
"531","stim/objects/Instruments/oboe.png",324,35,317,0.9,"stim/54.jpeg",5,4,3,2,"Instruments",2,2,"right","left",0.454999924,0,0,1,0,NA,NA,NA,NA,NA,NA,NA,NA,NA,NA,NA,NA,NA,NA,NA,NA,NA,NA,NA,NA,NA,NA,NA,NA
"286","stim/objects/HouseObjects/ironingboard2.png",325,35,318,0.7,"stim/44.jpeg",4,4,2,1,"HouseObjects",1,1,"left","right",0.507999897,0,0,1,0,118,35,1,0.7,1,"stim/44.jpeg",4,4,"stim/44.jpeg",1,"right",3.694999933,1,2,0.667999983,3,0.733999968,118,0,0,NA,0,NA,1
"532","stim/objects/Instruments/oboe.png",326,35,319,0.9,"stim/51.jpeg",5,1,3,2,"Instruments",2,3,"right","left",0.631999731,0,0,1,0,NA,NA,NA,NA,NA,NA,NA,NA,NA,NA,NA,NA,NA,NA,NA,NA,NA,NA,NA,NA,NA,NA,NA,NA
"293","stim/objects/HouseObjects/knife.png",327,35,320,0.9,"stim/61.jpeg",6,1,3,2,"HouseObjects",1,3,"left","left",0.503000021,1,1,1,0,NA,NA,NA,NA,NA,NA,NA,NA,NA,NA,NA,NA,NA,NA,NA,NA,NA,NA,NA,NA,NA,NA,NA,NA
"432","stim/objects/Instruments/guitarcase2.png",328,35,321,0.3,"stim/41.jpeg",4,1,2,1,"Instruments",2,4,"right","left",0.552000046,0,0,1,0,100,35,1,0.3,2,"stim/41.jpeg",4,1,"stim/41.jpeg",4,"right",0.687000036,2,2,0.835999966,3,1.851999998,100,0,0,NA,0,NA,1
"514","stim/objects/Instruments/musicstand.png",329,35,322,0.9,"stim/53.jpeg",5,3,3,2,"Instruments",2,2,"right","right",0.574999809,1,1,1,0,NA,NA,NA,NA,NA,NA,NA,NA,NA,NA,NA,NA,NA,NA,NA,NA,NA,NA,NA,NA,NA,NA,NA,NA
"544","stim/objects/Instruments/pipepiano2.png",330,35,323,0.9,"stim/51.jpeg",5,1,3,1,"Instruments",2,1,"right","right",0.49000001,1,1,1,0,179,35,1,0.9,2,"stim/51.jpeg",5,1,"stim/51.jpeg",1,"left",1.321999788,3,4,3.5849998,1,0.553999901,179,1,0,0,1,1,1
"386","stim/objects/HouseObjects/saw.png",331,35,324,0.5,"stim/21.jpeg",2,1,1,1,"HouseObjects",1,1,"left","left",0.678999901,1,1,1,0,180,35,1,0.5,2,"stim/21.jpeg",2,1,"stim/21.jpeg",1,"left",1.473999739,3,2,1.693000078,2,2.519000053,180,1,0,0,0,0,1
"463","stim/objects/Instruments/marimba.png",332,35,325,0.9,"stim/52.jpeg",5,2,3,2,"Instruments",2,2,"right","right",0.424999952,1,1,1,0,NA,NA,NA,NA,NA,NA,NA,NA,NA,NA,NA,NA,NA,NA,NA,NA,NA,NA,NA,NA,NA,NA,NA,NA
"284","stim/objects/HouseObjects/ironingboard.png",333,35,326,0.7,"stim/42.jpeg",4,2,2,2,"HouseObjects",1,1,"left","right",0.486999989,0,0,1,0,NA,NA,NA,NA,NA,NA,NA,NA,NA,NA,NA,NA,NA,NA,NA,NA,NA,NA,NA,NA,NA,NA,NA,NA
"363","stim/objects/HouseObjects/pitcher.png",334,35,327,0.9,"stim/61.jpeg",6,1,3,2,"HouseObjects",1,2,"left","left",0.49399972,1,1,1,0,NA,NA,NA,NA,NA,NA,NA,NA,NA,NA,NA,NA,NA,NA,NA,NA,NA,NA,NA,NA,NA,NA,NA,NA
"295","stim/objects/HouseObjects/knife.png",335,35,328,0.9,"stim/63.jpeg",6,3,3,2,"HouseObjects",1,2,"left","",NA,0,0,1,0,NA,NA,NA,NA,NA,NA,NA,NA,NA,NA,NA,NA,NA,NA,NA,NA,NA,NA,NA,NA,NA,NA,NA,NA
"349","stim/objects/HouseObjects/pan.png",336,35,329,0.9,"stim/63.jpeg",6,3,3,2,"HouseObjects",1,1,"left","left",0.388000011,1,1,1,0,NA,NA,NA,NA,NA,NA,NA,NA,NA,NA,NA,NA,NA,NA,NA,NA,NA,NA,NA,NA,NA,NA,NA,NA
"381","stim/objects/HouseObjects/rubbergloves2.png",337,35,330,0.1,"stim/54.jpeg",5,4,3,1,"HouseObjects",1,1,"left","left",0.433999777,1,1,1,0,130,35,1,0.1,1,"stim/54.jpeg",5,4,"stim/54.jpeg",1,"right",0.763999939,1,1,1.164000034,2,1.246000051,130,0,0,NA,0,NA,1
"329","stim/objects/HouseObjects/match.png",338,35,331,0.9,"stim/64.jpeg",6,4,3,2,"HouseObjects",1,4,"left","left",0.404000044,1,1,1,0,NA,NA,NA,NA,NA,NA,NA,NA,NA,NA,NA,NA,NA,NA,NA,NA,NA,NA,NA,NA,NA,NA,NA,NA
"534","stim/objects/Instruments/oboe.png",339,35,332,0.9,"stim/51.jpeg",5,1,3,2,"Instruments",2,3,"right","left",0.31799984,0,0,1,0,NA,NA,NA,NA,NA,NA,NA,NA,NA,NA,NA,NA,NA,NA,NA,NA,NA,NA,NA,NA,NA,NA,NA,NA
"478","stim/objects/Instruments/metronome.png",340,35,333,0.9,"stim/54.jpeg",5,4,3,2,"Instruments",2,1,"right","right",0.524999857,1,1,1,0,NA,NA,NA,NA,NA,NA,NA,NA,NA,NA,NA,NA,NA,NA,NA,NA,NA,NA,NA,NA,NA,NA,NA,NA
"563","stim/objects/Instruments/tuba.png",341,35,334,0.7,"stim/33.jpeg",3,3,2,1,"Instruments",2,4,"right","right",0.411000013,1,1,1,0,94,35,1,0.7,2,"stim/33.jpeg",3,3,"stim/33.jpeg",4,"right",0.746000051,2,3,1.076999903,1,1.539999962,94,0,1,NA,0,NA,1
"268","stim/objects/HouseObjects/hairdryer.png",342,35,335,0.5,"stim/24.jpeg",2,4,1,2,"HouseObjects",1,2,"left","right",0.506999969,0,0,1,0,NA,NA,NA,NA,NA,NA,NA,NA,NA,NA,NA,NA,NA,NA,NA,NA,NA,NA,NA,NA,NA,NA,NA,NA
"515","stim/objects/Instruments/musicstand.png",343,35,336,0.9,"stim/54.jpeg",5,4,3,2,"Instruments",2,4,"right","left",0.589999914,0,0,1,0,NA,NA,NA,NA,NA,NA,NA,NA,NA,NA,NA,NA,NA,NA,NA,NA,NA,NA,NA,NA,NA,NA,NA,NA
"388","stim/objects/HouseObjects/scale.png",344,35,337,0.5,"stim/22.jpeg",2,2,1,1,"HouseObjects",1,2,"left","right",0.703999758,0,0,1,0,54,35,1,0.5,2,"stim/22.jpeg",2,2,"stim/22.jpeg",2,"left",2.052999735,3,1,1.130999804,2,1.593999863,54,1,0,0,1,1,1
"252","stim/objects/HouseObjects/doormat2.png",345,35,338,0.3,"stim/31.jpeg",3,1,2,1,"HouseObjects",1,3,"left","left",0.501999855,1,1,1,0,120,35,1,0.3,1,"stim/31.jpeg",3,1,"stim/31.jpeg",3,"right",1.108999968,1,2,0.640999794,3,2.351000071,120,0,0,NA,1,NA,1
"399","stim/objects/HouseObjects/thread2.png",346,35,339,0.9,"stim/63.jpeg",6,3,3,1,"HouseObjects",1,3,"left","left",0.542999983,1,1,1,0,147,35,1,0.9,1,"stim/63.jpeg",6,3,"stim/63.jpeg",3,"right",0.847000122,2,2,2.780999899,2,0.977999926,147,0,0,NA,0,NA,1
"447","stim/objects/Instruments/keyboard2.png",347,35,340,0.3,"stim/41.jpeg",4,1,2,1,"Instruments",2,4,"right","left",0.438999891,0,0,1,0,175,35,1,0.3,2,"stim/41.jpeg",4,1,"stim/41.jpeg",4,"right",0.766000032,2,2,0.891999722,1,1.514999866,175,0,0,NA,0,NA,1
"429","stim/objects/Instruments/grandpiano2.png",348,35,341,0.3,"stim/44.jpeg",4,4,2,1,"Instruments",2,4,"right","left",0.474999905,0,0,1,0,198,35,1,0.3,2,"stim/44.jpeg",4,4,"stim/44.jpeg",4,"right",0.680999994,2,3,1.104000092,1,1.640999794,198,0,0,NA,0,NA,1
"350","stim/objects/HouseObjects/pan.png",349,35,342,0.9,"stim/62.jpeg",6,2,3,2,"HouseObjects",1,4,"left","left",0.597000122,1,1,1,0,NA,NA,NA,NA,NA,NA,NA,NA,NA,NA,NA,NA,NA,NA,NA,NA,NA,NA,NA,NA,NA,NA,NA,NA
"364","stim/objects/HouseObjects/pitcher.png",350,35,343,0.9,"stim/64.jpeg",6,4,3,2,"HouseObjects",1,2,"left","right",0.51699996,0,0,1,0,NA,NA,NA,NA,NA,NA,NA,NA,NA,NA,NA,NA,NA,NA,NA,NA,NA,NA,NA,NA,NA,NA,NA,NA
"331","stim/objects/HouseObjects/match.png",351,35,344,0.9,"stim/61.jpeg",6,1,3,2,"HouseObjects",1,3,"left","left",0.536999941,1,1,1,0,NA,NA,NA,NA,NA,NA,NA,NA,NA,NA,NA,NA,NA,NA,NA,NA,NA,NA,NA,NA,NA,NA,NA,NA
"312","stim/objects/HouseObjects/lintroller.png",352,35,345,0.9,"stim/63.jpeg",6,3,3,2,"HouseObjects",1,1,"left","left",0.473999739,1,1,1,0,NA,NA,NA,NA,NA,NA,NA,NA,NA,NA,NA,NA,NA,NA,NA,NA,NA,NA,NA,NA,NA,NA,NA,NA
"365","stim/objects/HouseObjects/pitcher.png",353,35,346,0.9,"stim/63.jpeg",6,3,3,2,"HouseObjects",1,3,"left","left",0.434000015,1,1,1,0,NA,NA,NA,NA,NA,NA,NA,NA,NA,NA,NA,NA,NA,NA,NA,NA,NA,NA,NA,NA,NA,NA,NA,NA
"440","stim/objects/Instruments/hihat.png",354,35,347,0.7,"stim/34.jpeg",3,4,2,2,"Instruments",2,4,"right","left",0.49399972,0,0,1,0,NA,NA,NA,NA,NA,NA,NA,NA,NA,NA,NA,NA,NA,NA,NA,NA,NA,NA,NA,NA,NA,NA,NA,NA
"480","stim/objects/Instruments/metronome.png",355,35,348,0.9,"stim/54.jpeg",5,4,3,2,"Instruments",2,1,"right","right",0.554000139,1,1,1,0,NA,NA,NA,NA,NA,NA,NA,NA,NA,NA,NA,NA,NA,NA,NA,NA,NA,NA,NA,NA,NA,NA,NA,NA
"281","stim/objects/HouseObjects/iron.png",356,35,349,0.7,"stim/41.jpeg",4,1,2,2,"HouseObjects",1,4,"left","left",0.494999886,1,1,1,0,NA,NA,NA,NA,NA,NA,NA,NA,NA,NA,NA,NA,NA,NA,NA,NA,NA,NA,NA,NA,NA,NA,NA,NA
"313","stim/objects/HouseObjects/lintroller.png",357,35,350,0.9,"stim/64.jpeg",6,4,3,2,"HouseObjects",1,4,"left","left",0.396999836,1,1,1,0,NA,NA,NA,NA,NA,NA,NA,NA,NA,NA,NA,NA,NA,NA,NA,NA,NA,NA,NA,NA,NA,NA,NA,NA
"464","stim/objects/Instruments/marimba.png",358,35,351,0.9,"stim/53.jpeg",5,3,3,2,"Instruments",2,4,"right","right",0.59100008,1,1,1,0,NA,NA,NA,NA,NA,NA,NA,NA,NA,NA,NA,NA,NA,NA,NA,NA,NA,NA,NA,NA,NA,NA,NA,NA
"347","stim/objects/HouseObjects/pan.png",359,35,352,0.9,"stim/64.jpeg",6,4,3,2,"HouseObjects",1,2,"left","left",0.501999855,1,1,1,0,NA,NA,NA,NA,NA,NA,NA,NA,NA,NA,NA,NA,NA,NA,NA,NA,NA,NA,NA,NA,NA,NA,NA,NA
"494","stim/objects/Instruments/musicsheet.png",360,35,353,0.9,"stim/52.jpeg",5,2,3,2,"Instruments",2,4,"right","left",0.387000084,0,0,1,0,NA,NA,NA,NA,NA,NA,NA,NA,NA,NA,NA,NA,NA,NA,NA,NA,NA,NA,NA,NA,NA,NA,NA,NA
"267","stim/objects/HouseObjects/glassmop2.png",361,35,354,0.7,"stim/43.jpeg",4,3,2,1,"HouseObjects",1,3,"left","left",0.56099987,1,1,1,0,6,35,1,0.7,1,"stim/43.jpeg",4,3,"stim/43.jpeg",3,"left",1.078999996,3,2,2.269999981,3,1.508999825,6,1,0,0,1,1,1
"366","stim/objects/HouseObjects/pitcher.png",362,35,355,0.9,"stim/61.jpeg",6,1,3,2,"HouseObjects",1,3,"left","left",0.482000113,1,1,1,0,NA,NA,NA,NA,NA,NA,NA,NA,NA,NA,NA,NA,NA,NA,NA,NA,NA,NA,NA,NA,NA,NA,NA,NA
"332","stim/objects/HouseObjects/match.png",363,35,356,0.9,"stim/62.jpeg",6,2,3,2,"HouseObjects",1,4,"left","left",0.518999815,1,1,1,0,NA,NA,NA,NA,NA,NA,NA,NA,NA,NA,NA,NA,NA,NA,NA,NA,NA,NA,NA,NA,NA,NA,NA,NA
"453","stim/objects/Instruments/maraca.png",364,35,357,0.7,"stim/33.jpeg",3,3,2,2,"Instruments",2,4,"right","left",0.424999952,0,0,1,0,NA,NA,NA,NA,NA,NA,NA,NA,NA,NA,NA,NA,NA,NA,NA,NA,NA,NA,NA,NA,NA,NA,NA,NA
"297","stim/objects/HouseObjects/knife.png",365,35,358,0.9,"stim/64.jpeg",6,4,3,2,"HouseObjects",1,2,"left","left",0.480999947,1,1,1,0,NA,NA,NA,NA,NA,NA,NA,NA,NA,NA,NA,NA,NA,NA,NA,NA,NA,NA,NA,NA,NA,NA,NA,NA
"298","stim/objects/HouseObjects/knife.png",366,35,359,0.9,"stim/62.jpeg",6,2,3,2,"HouseObjects",1,4,"left","left",0.43599987,1,1,1,0,NA,NA,NA,NA,NA,NA,NA,NA,NA,NA,NA,NA,NA,NA,NA,NA,NA,NA,NA,NA,NA,NA,NA,NA
"465","stim/objects/Instruments/marimba.png",367,35,360,0.9,"stim/52.jpeg",5,2,3,2,"Instruments",2,2,"right","right",0.402999878,1,1,1,0,NA,NA,NA,NA,NA,NA,NA,NA,NA,NA,NA,NA,NA,NA,NA,NA,NA,NA,NA,NA,NA,NA,NA,NA
"495","stim/objects/Instruments/musicsheet.png",368,35,361,0.9,"stim/51.jpeg",5,1,3,2,"Instruments",2,4,"right","right",0.592000008,1,1,1,0,NA,NA,NA,NA,NA,NA,NA,NA,NA,NA,NA,NA,NA,NA,NA,NA,NA,NA,NA,NA,NA,NA,NA,NA
"408","stim/objects/Instruments/drums2.png",369,35,362,0.7,"stim/33.jpeg",3,3,2,1,"Instruments",2,1,"right","right",0.444000006,1,1,1,0,97,35,1,0.7,2,"stim/33.jpeg",3,3,"stim/33.jpeg",1,"right",1.427000046,1,1,0.677999973,2,0.474999905,97,0,0,NA,0,NA,1
"387","stim/objects/HouseObjects/saw2.png",370,35,363,0.9,"stim/61.jpeg",6,1,3,1,"HouseObjects",1,1,"left","right",0.504999876,0,0,1,0,35,35,1,0.9,1,"stim/61.jpeg",6,1,"stim/61.jpeg",1,"left",1.725999832,2,2,3.411999941,4,1.424000025,35,1,0,0,0,0,1
"389","stim/objects/HouseObjects/scale2.png",371,35,364,0.9,"stim/62.jpeg",6,2,3,1,"HouseObjects",1,3,"left","left",0.520999908,1,1,1,0,185,35,1,0.9,1,"stim/62.jpeg",6,2,"stim/62.jpeg",3,"left",1.464999914,3,1,1.287999868,3,1.437000036,185,1,0,0,1,1,1
"448","stim/objects/Instruments/laud.png",372,35,365,0.7,"stim/33.jpeg",3,3,2,2,"Instruments",2,3,"right","right",0.553999901,1,1,1,0,NA,NA,NA,NA,NA,NA,NA,NA,NA,NA,NA,NA,NA,NA,NA,NA,NA,NA,NA,NA,NA,NA,NA,NA
"427","stim/objects/Instruments/grandpiano.png",373,35,366,0.5,"stim/21.jpeg",2,1,1,2,"Instruments",2,3,"right","right",0.565000057,1,1,1,0,NA,NA,NA,NA,NA,NA,NA,NA,NA,NA,NA,NA,NA,NA,NA,NA,NA,NA,NA,NA,NA,NA,NA,NA
"507","stim/objects/Instruments/musicstand.png",374,35,367,0.9,"stim/51.jpeg",5,1,3,2,"Instruments",2,4,"right","right",0.619999886,1,1,1,0,NA,NA,NA,NA,NA,NA,NA,NA,NA,NA,NA,NA,NA,NA,NA,NA,NA,NA,NA,NA,NA,NA,NA,NA
"301","stim/objects/HouseObjects/knife.png",375,35,368,0.9,"stim/62.jpeg",6,2,3,2,"HouseObjects",1,4,"left","left",0.480000019,1,1,1,0,NA,NA,NA,NA,NA,NA,NA,NA,NA,NA,NA,NA,NA,NA,NA,NA,NA,NA,NA,NA,NA,NA,NA,NA
"403","stim/objects/HouseObjects/vacuumcleaner2.png",376,35,369,0.9,"stim/61.jpeg",6,1,3,1,"HouseObjects",1,1,"left","right",0.437999725,0,0,1,0,95,35,1,0.9,1,"stim/61.jpeg",6,1,"stim/61.jpeg",1,"right",2.132999897,2,3,1.178999901,3,2.493000031,95,0,0,NA,0,NA,1
"275","stim/objects/HouseObjects/handvacuum.png",377,35,370,0.7,"stim/44.jpeg",4,4,2,2,"HouseObjects",1,2,"left","left",0.444999933,1,1,1,0,NA,NA,NA,NA,NA,NA,NA,NA,NA,NA,NA,NA,NA,NA,NA,NA,NA,NA,NA,NA,NA,NA,NA,NA
"307","stim/objects/HouseObjects/knife2.png",378,35,371,0.1,"stim/51.jpeg",5,1,3,1,"HouseObjects",1,3,"left","right",0.598999977,0,0,1,0,104,35,1,0.1,1,"stim/51.jpeg",5,1,"stim/51.jpeg",3,"left",3.82400012,3,2,2.10800004,4,2.040999889,104,1,0,0,0,0,1
"412","stim/objects/Instruments/electricguitar.png",379,35,372,0.5,"stim/13.jpeg",1,3,1,2,"Instruments",2,3,"right","right",0.664000034,1,1,1,0,NA,NA,NA,NA,NA,NA,NA,NA,NA,NA,NA,NA,NA,NA,NA,NA,NA,NA,NA,NA,NA,NA,NA,NA
"379","stim/objects/HouseObjects/remote2.png",380,35,373,0.1,"stim/53.jpeg",5,3,3,1,"HouseObjects",1,1,"left","right",0.806999922,0,0,1,0,194,35,1,0.1,1,"stim/53.jpeg",5,3,"stim/53.jpeg",1,"right",0.694999933,4,2,0.822000027,1,0.987999916,194,0,0,NA,1,NA,1
"334","stim/objects/HouseObjects/match.png",381,35,374,0.9,"stim/63.jpeg",6,3,3,2,"HouseObjects",1,2,"left","left",0.542000055,1,1,1,0,NA,NA,NA,NA,NA,NA,NA,NA,NA,NA,NA,NA,NA,NA,NA,NA,NA,NA,NA,NA,NA,NA,NA,NA
"425","stim/objects/Instruments/gong.png",382,35,375,0.5,"stim/23.jpeg",2,3,1,2,"Instruments",2,2,"right","left",0.485999823,0,0,1,0,NA,NA,NA,NA,NA,NA,NA,NA,NA,NA,NA,NA,NA,NA,NA,NA,NA,NA,NA,NA,NA,NA,NA,NA
"352","stim/objects/HouseObjects/pan.png",383,35,376,0.9,"stim/61.jpeg",6,1,3,2,"HouseObjects",1,1,"left","right",0.67599988,0,0,1,0,NA,NA,NA,NA,NA,NA,NA,NA,NA,NA,NA,NA,NA,NA,NA,NA,NA,NA,NA,NA,NA,NA,NA,NA
"493","stim/objects/Instruments/musicsheet.png",384,35,377,0.9,"stim/52.jpeg",5,2,3,2,"Instruments",2,2,"right","right",0.504999876,1,1,1,0,NA,NA,NA,NA,NA,NA,NA,NA,NA,NA,NA,NA,NA,NA,NA,NA,NA,NA,NA,NA,NA,NA,NA,NA
"253","stim/objects/HouseObjects/dustpan.png",385,35,378,0.5,"stim/11.jpeg",1,1,1,2,"HouseObjects",1,4,"left","left",0.622999907,1,1,1,0,NA,NA,NA,NA,NA,NA,NA,NA,NA,NA,NA,NA,NA,NA,NA,NA,NA,NA,NA,NA,NA,NA,NA,NA
"416","stim/objects/Instruments/flute.png",386,35,379,0.5,"stim/13.jpeg",1,3,1,2,"Instruments",2,2,"right","right",0.556999922,1,1,1,0,NA,NA,NA,NA,NA,NA,NA,NA,NA,NA,NA,NA,NA,NA,NA,NA,NA,NA,NA,NA,NA,NA,NA,NA
"269","stim/objects/HouseObjects/hairdryer.png",387,35,380,0.5,"stim/23.jpeg",2,3,1,2,"HouseObjects",1,4,"left","left",0.570999861,1,1,1,0,NA,NA,NA,NA,NA,NA,NA,NA,NA,NA,NA,NA,NA,NA,NA,NA,NA,NA,NA,NA,NA,NA,NA,NA
"479","stim/objects/Instruments/metronome.png",388,35,381,0.9,"stim/52.jpeg",5,2,3,2,"Instruments",2,1,"right","left",0.490999937,0,0,1,0,NA,NA,NA,NA,NA,NA,NA,NA,NA,NA,NA,NA,NA,NA,NA,NA,NA,NA,NA,NA,NA,NA,NA,NA
"407","stim/objects/Instruments/drums.png",389,35,382,0.5,"stim/14.jpeg",1,4,1,2,"Instruments",2,2,"right","right",0.48300004,1,1,1,0,NA,NA,NA,NA,NA,NA,NA,NA,NA,NA,NA,NA,NA,NA,NA,NA,NA,NA,NA,NA,NA,NA,NA,NA
"353","stim/objects/HouseObjects/pan.png",390,35,383,0.9,"stim/63.jpeg",6,3,3,2,"HouseObjects",1,1,"left","left",0.506999969,1,1,1,0,NA,NA,NA,NA,NA,NA,NA,NA,NA,NA,NA,NA,NA,NA,NA,NA,NA,NA,NA,NA,NA,NA,NA,NA
"536","stim/objects/Instruments/oboe.png",391,35,384,0.9,"stim/52.jpeg",5,2,3,2,"Instruments",2,4,"right","right",0.495999813,1,1,1,0,NA,NA,NA,NA,NA,NA,NA,NA,NA,NA,NA,NA,NA,NA,NA,NA,NA,NA,NA,NA,NA,NA,NA,NA
"542","stim/objects/Instruments/panflute2.png",392,35,385,0.9,"stim/54.jpeg",5,4,3,1,"Instruments",2,3,"right","right",0.449999809,1,1,1,0,186,35,1,0.9,2,"stim/54.jpeg",5,4,"stim/54.jpeg",3,"right",2.301999807,2,4,1.184999943,3,2.10199976,186,0,1,NA,1,NA,1
"404","stim/objects/HouseObjects/wateringcan.png",393,35,386,0.3,"stim/31.jpeg",3,1,2,1,"HouseObjects",1,1,"left","right",0.595000029,0,0,1,0,25,35,1,0.3,1,"stim/31.jpeg",3,1,"stim/31.jpeg",1,"right",3.330999851,1,2,1.04399991,2,0.497999907,25,0,0,NA,0,NA,1
"406","stim/objects/Instruments/drums.png",394,35,387,0.5,"stim/11.jpeg",1,1,1,2,"Instruments",2,3,"right","right",0.565999746,1,1,1,0,NA,NA,NA,NA,NA,NA,NA,NA,NA,NA,NA,NA,NA,NA,NA,NA,NA,NA,NA,NA,NA,NA,NA,NA
"474","stim/objects/Instruments/metronome.png",395,35,388,0.9,"stim/51.jpeg",5,1,3,2,"Instruments",2,1,"right","right",0.428999901,1,1,1,0,NA,NA,NA,NA,NA,NA,NA,NA,NA,NA,NA,NA,NA,NA,NA,NA,NA,NA,NA,NA,NA,NA,NA,NA
"428","stim/objects/Instruments/grandpiano.png",396,35,389,0.5,"stim/24.jpeg",2,4,1,2,"Instruments",2,1,"right","right",0.424000025,1,1,1,0,NA,NA,NA,NA,NA,NA,NA,NA,NA,NA,NA,NA,NA,NA,NA,NA,NA,NA,NA,NA,NA,NA,NA,NA
"370","stim/objects/HouseObjects/pitcher.png",397,35,390,0.9,"stim/62.jpeg",6,2,3,2,"HouseObjects",1,3,"left","left",0.440999985,1,1,1,0,NA,NA,NA,NA,NA,NA,NA,NA,NA,NA,NA,NA,NA,NA,NA,NA,NA,NA,NA,NA,NA,NA,NA,NA
"344","stim/objects/HouseObjects/pan.png",398,35,391,0.9,"stim/62.jpeg",6,2,3,2,"HouseObjects",1,3,"left","left",0.469000101,1,1,1,0,NA,NA,NA,NA,NA,NA,NA,NA,NA,NA,NA,NA,NA,NA,NA,NA,NA,NA,NA,NA,NA,NA,NA,NA
"570","stim/objects/Instruments/xylophone2.png",399,35,392,0.1,"stim/64.jpeg",6,4,3,1,"Instruments",2,4,"right","left",0.467999935,0,0,1,0,105,35,1,0.1,2,"stim/64.jpeg",6,4,"stim/64.jpeg",4,"left",1.104000092,3,4,1.139999866,3,1.287999868,105,1,1,1,0,0,1
"457","stim/objects/Instruments/marimba.png",400,35,393,0.9,"stim/54.jpeg",5,4,3,2,"Instruments",2,4,"right","left",0.680000067,0,0,1,0,NA,NA,NA,NA,NA,NA,NA,NA,NA,NA,NA,NA,NA,NA,NA,NA,NA,NA,NA,NA,NA,NA,NA,NA
"452","stim/objects/Instruments/maraca.png",401,35,394,0.7,"stim/31.jpeg",3,1,2,2,"Instruments",2,1,"right","right",0.677999973,1,1,1,0,NA,NA,NA,NA,NA,NA,NA,NA,NA,NA,NA,NA,NA,NA,NA,NA,NA,NA,NA,NA,NA,NA,NA,NA
"498","stim/objects/Instruments/musicsheet.png",402,35,395,0.9,"stim/54.jpeg",5,4,3,2,"Instruments",2,3,"right","left",0.620999813,0,0,1,0,NA,NA,NA,NA,NA,NA,NA,NA,NA,NA,NA,NA,NA,NA,NA,NA,NA,NA,NA,NA,NA,NA,NA,NA
"259","stim/objects/HouseObjects/garbagebin.png",403,35,396,0.5,"stim/21.jpeg",2,1,1,2,"HouseObjects",1,4,"left","left",0.519000053,1,1,1,0,NA,NA,NA,NA,NA,NA,NA,NA,NA,NA,NA,NA,NA,NA,NA,NA,NA,NA,NA,NA,NA,NA,NA,NA
"396","stim/objects/HouseObjects/thermometer.png",404,35,397,0.3,"stim/31.jpeg",3,1,2,1,"HouseObjects",1,1,"left","right",0.463999987,0,0,1,0,39,35,1,0.3,1,"stim/31.jpeg",3,1,"stim/31.jpeg",1,"left",1.046999931,3,2,2.204999924,3,0.648999929,39,1,0,0,0,0,1
"241","stim/objects/HouseObjects/coffee.png",405,35,398,0.5,"stim/11.jpeg",1,1,1,2,"HouseObjects",1,2,"left","left",0.718999863,1,1,1,0,NA,NA,NA,NA,NA,NA,NA,NA,NA,NA,NA,NA,NA,NA,NA,NA,NA,NA,NA,NA,NA,NA,NA,NA
"437","stim/objects/Instruments/harp.png",406,35,399,0.7,"stim/33.jpeg",3,3,2,2,"Instruments",2,2,"right","left",0.375999928,0,0,1,0,NA,NA,NA,NA,NA,NA,NA,NA,NA,NA,NA,NA,NA,NA,NA,NA,NA,NA,NA,NA,NA,NA,NA,NA
"354","stim/objects/HouseObjects/pan.png",407,35,400,0.9,"stim/64.jpeg",6,4,3,2,"HouseObjects",1,4,"left","left",0.49000001,1,1,1,0,NA,NA,NA,NA,NA,NA,NA,NA,NA,NA,NA,NA,NA,NA,NA,NA,NA,NA,NA,NA,NA,NA,NA,NA
"292","stim/objects/HouseObjects/knife.png",408,35,401,0.9,"stim/64.jpeg",6,4,3,2,"HouseObjects",1,2,"left","left",0.450999975,1,1,1,0,NA,NA,NA,NA,NA,NA,NA,NA,NA,NA,NA,NA,NA,NA,NA,NA,NA,NA,NA,NA,NA,NA,NA,NA
"458","stim/objects/Instruments/marimba.png",409,35,402,0.9,"stim/51.jpeg",5,1,3,2,"Instruments",2,3,"right","left",0.406999826,0,0,1,0,NA,NA,NA,NA,NA,NA,NA,NA,NA,NA,NA,NA,NA,NA,NA,NA,NA,NA,NA,NA,NA,NA,NA,NA
"273","stim/objects/HouseObjects/handbrush.png",410,35,403,0.7,"stim/41.jpeg",4,1,2,2,"HouseObjects",1,2,"left","left",0.571999788,1,1,1,0,NA,NA,NA,NA,NA,NA,NA,NA,NA,NA,NA,NA,NA,NA,NA,NA,NA,NA,NA,NA,NA,NA,NA,NA
"247","stim/objects/HouseObjects/dishsoap.png",411,35,404,0.5,"stim/14.jpeg",1,4,1,2,"HouseObjects",1,1,"left","left",0.388999939,1,1,1,0,NA,NA,NA,NA,NA,NA,NA,NA,NA,NA,NA,NA,NA,NA,NA,NA,NA,NA,NA,NA,NA,NA,NA,NA
"511","stim/objects/Instruments/musicstand.png",412,35,405,0.9,"stim/52.jpeg",5,2,3,2,"Instruments",2,2,"right","left",0.346999884,0,0,1,0,NA,NA,NA,NA,NA,NA,NA,NA,NA,NA,NA,NA,NA,NA,NA,NA,NA,NA,NA,NA,NA,NA,NA,NA
"444","stim/objects/Instruments/keyboard.png",413,35,406,0.7,"stim/31.jpeg",3,1,2,2,"Instruments",2,3,"right","left",0.67599988,0,0,1,0,NA,NA,NA,NA,NA,NA,NA,NA,NA,NA,NA,NA,NA,NA,NA,NA,NA,NA,NA,NA,NA,NA,NA,NA
"287","stim/objects/HouseObjects/key.png",414,35,407,0.7,"stim/43.jpeg",4,3,2,2,"HouseObjects",1,3,"left","left",0.655999899,1,1,1,0,NA,NA,NA,NA,NA,NA,NA,NA,NA,NA,NA,NA,NA,NA,NA,NA,NA,NA,NA,NA,NA,NA,NA,NA
"355","stim/objects/HouseObjects/pan.png",415,35,408,0.9,"stim/62.jpeg",6,2,3,2,"HouseObjects",1,4,"left","left",0.492000103,1,1,1,0,NA,NA,NA,NA,NA,NA,NA,NA,NA,NA,NA,NA,NA,NA,NA,NA,NA,NA,NA,NA,NA,NA,NA,NA
"371","stim/objects/HouseObjects/pitcher.png",416,35,409,0.9,"stim/61.jpeg",6,1,3,2,"HouseObjects",1,1,"left","left",0.529999971,1,1,1,0,NA,NA,NA,NA,NA,NA,NA,NA,NA,NA,NA,NA,NA,NA,NA,NA,NA,NA,NA,NA,NA,NA,NA,NA
"276","stim/objects/HouseObjects/handvacuum.png",417,35,410,0.7,"stim/42.jpeg",4,2,2,2,"HouseObjects",1,1,"left","left",0.539000034,1,1,1,0,NA,NA,NA,NA,NA,NA,NA,NA,NA,NA,NA,NA,NA,NA,NA,NA,NA,NA,NA,NA,NA,NA,NA,NA
"361","stim/objects/HouseObjects/pitcher.png",418,35,411,0.9,"stim/64.jpeg",6,4,3,2,"HouseObjects",1,3,"left","left",0.612999916,1,1,1,0,NA,NA,NA,NA,NA,NA,NA,NA,NA,NA,NA,NA,NA,NA,NA,NA,NA,NA,NA,NA,NA,NA,NA,NA
"506","stim/objects/Instruments/musicsheet2.png",419,35,412,0.9,"stim/51.jpeg",5,1,3,1,"Instruments",2,3,"right","right",0.622999907,1,1,1,0,88,35,1,0.9,2,"stim/51.jpeg",5,1,"stim/51.jpeg",3,"left",0.934999943,3,4,1.177000046,1,0.73300004,88,1,0,0,0,0,1
"553","stim/objects/Instruments/tambourine.png",420,35,413,0.5,"stim/21.jpeg",2,1,1,1,"Instruments",2,2,"right","left",0.559999943,0,0,1,0,174,35,1,0.5,2,"stim/21.jpeg",2,1,"stim/21.jpeg",2,"right",1.047999859,2,3,0.553999901,4,1.405999899,174,0,0,NA,0,NA,1
"523","stim/objects/Instruments/musicstand2.png",421,35,414,0.9,"stim/52.jpeg",5,2,3,1,"Instruments",2,4,"right","right",0.470999956,1,1,1,0,78,35,1,0.9,2,"stim/52.jpeg",5,2,"stim/52.jpeg",4,"left",1.313999891,2,1,1.106999874,4,0.864999771,78,1,0,0,1,1,1
"545","stim/objects/Instruments/record_player.png",422,35,415,0.5,"stim/11.jpeg",1,1,1,1,"Instruments",2,3,"right","right",0.441999912,1,1,1,0,124,35,1,0.5,1,"stim/11.jpeg",1,1,"stim/11.jpeg",3,"left",1.529999971,3,4,1.441999912,1,1.194999933,124,1,0,0,0,0,1
"362","stim/objects/HouseObjects/pitcher.png",423,35,416,0.9,"stim/61.jpeg",6,1,3,2,"HouseObjects",1,3,"left","left",0.484999895,1,1,1,0,NA,NA,NA,NA,NA,NA,NA,NA,NA,NA,NA,NA,NA,NA,NA,NA,NA,NA,NA,NA,NA,NA,NA,NA
"368","stim/objects/HouseObjects/pitcher.png",424,35,417,0.9,"stim/63.jpeg",6,3,3,2,"HouseObjects",1,4,"left","left",0.558999777,1,1,1,0,NA,NA,NA,NA,NA,NA,NA,NA,NA,NA,NA,NA,NA,NA,NA,NA,NA,NA,NA,NA,NA,NA,NA,NA
"489","stim/objects/Instruments/metronome2.png",425,35,418,0.9,"stim/54.jpeg",5,4,3,1,"Instruments",2,3,"right","left",0.470999956,0,0,1,0,91,35,1,0.9,2,"stim/54.jpeg",5,4,"stim/54.jpeg",3,"left",1.453999996,4,1,2.671999931,1,2.088000059,91,1,0,0,0,0,1
"461","stim/objects/Instruments/marimba.png",426,35,419,0.9,"stim/51.jpeg",5,1,3,2,"Instruments",2,4,"right","right",0.484999895,1,1,1,0,NA,NA,NA,NA,NA,NA,NA,NA,NA,NA,NA,NA,NA,NA,NA,NA,NA,NA,NA,NA,NA,NA,NA,NA
"319","stim/objects/HouseObjects/lintroller.png",427,35,420,0.9,"stim/63.jpeg",6,3,3,2,"HouseObjects",1,2,"left","left",0.578999758,1,1,1,0,NA,NA,NA,NA,NA,NA,NA,NA,NA,NA,NA,NA,NA,NA,NA,NA,NA,NA,NA,NA,NA,NA,NA,NA
"535","stim/objects/Instruments/oboe.png",428,35,421,0.9,"stim/54.jpeg",5,4,3,2,"Instruments",2,2,"right","left",0.493999958,0,0,1,0,NA,NA,NA,NA,NA,NA,NA,NA,NA,NA,NA,NA,NA,NA,NA,NA,NA,NA,NA,NA,NA,NA,NA,NA
"546","stim/objects/Instruments/record_player2.png",429,35,422,0.9,"stim/53.jpeg",5,3,3,1,"Instruments",2,2,"right","right",0.394999981,1,1,1,0,102,35,1,0.9,2,"stim/53.jpeg",5,3,"stim/53.jpeg",2,"right",0.730000019,2,3,0.643000126,3,0.7099998,102,0,1,NA,0,NA,1
"565","stim/objects/Instruments/violin.png",430,35,423,0.7,"stim/34.jpeg",3,4,2,1,"Instruments",2,4,"right","right",0.528000116,1,1,1,0,149,35,1,0.7,2,"stim/34.jpeg",3,4,"stim/34.jpeg",4,"right",0.712999821,1,4,1.437999725,1,1.829999924,149,0,1,NA,0,NA,1
"337","stim/objects/HouseObjects/match.png",431,35,424,0.9,"stim/62.jpeg",6,2,3,2,"HouseObjects",1,3,"left","left",0.559999943,1,1,1,0,NA,NA,NA,NA,NA,NA,NA,NA,NA,NA,NA,NA,NA,NA,NA,NA,NA,NA,NA,NA,NA,NA,NA,NA
"496","stim/objects/Instruments/musicsheet.png",432,35,425,0.9,"stim/52.jpeg",5,2,3,2,"Instruments",2,4,"right","right",0.470999956,1,1,1,0,NA,NA,NA,NA,NA,NA,NA,NA,NA,NA,NA,NA,NA,NA,NA,NA,NA,NA,NA,NA,NA,NA,NA,NA
"378","stim/objects/HouseObjects/remote.png",433,35,426,0.5,"stim/14.jpeg",1,4,1,1,"HouseObjects",1,1,"left","right",0.443999767,0,0,1,0,47,35,1,0.5,1,"stim/14.jpeg",1,4,"stim/14.jpeg",1,"right",1.529999971,3,2,1.11500001,3,0.96600008,47,0,0,NA,0,NA,1
"477","stim/objects/Instruments/metronome.png",434,35,427,0.9,"stim/51.jpeg",5,1,3,2,"Instruments",2,3,"right","right",0.476999998,1,1,1,0,NA,NA,NA,NA,NA,NA,NA,NA,NA,NA,NA,NA,NA,NA,NA,NA,NA,NA,NA,NA,NA,NA,NA,NA
"455","stim/objects/Instruments/maraca2.png",435,35,428,0.3,"stim/43.jpeg",4,3,2,1,"Instruments",2,2,"right","left",0.536999941,0,0,1,0,66,35,1,0.3,2,"stim/43.jpeg",4,3,"stim/43.jpeg",2,"left",1.148000002,3,3,1.09800005,4,1.568999767,66,1,1,1,0,0,1
"433","stim/objects/Instruments/harmonica.png",436,35,429,0.5,"stim/22.jpeg",2,2,1,2,"Instruments",2,3,"right","right",0.559000015,1,1,1,0,NA,NA,NA,NA,NA,NA,NA,NA,NA,NA,NA,NA,NA,NA,NA,NA,NA,NA,NA,NA,NA,NA,NA,NA
"462","stim/objects/Instruments/marimba.png",437,35,430,0.9,"stim/52.jpeg",5,2,3,2,"Instruments",2,3,"right","right",0.53399992,1,1,1,0,NA,NA,NA,NA,NA,NA,NA,NA,NA,NA,NA,NA,NA,NA,NA,NA,NA,NA,NA,NA,NA,NA,NA,NA
"503","stim/objects/Instruments/musicsheet.png",438,35,431,0.9,"stim/53.jpeg",5,3,3,2,"Instruments",2,1,"right","right",0.455999851,1,1,1,0,NA,NA,NA,NA,NA,NA,NA,NA,NA,NA,NA,NA,NA,NA,NA,NA,NA,NA,NA,NA,NA,NA,NA,NA
"431","stim/objects/Instruments/guitarcase.png",439,35,432,0.5,"stim/21.jpeg",2,1,1,2,"Instruments",2,1,"right","left",0.526999712,0,0,1,0,NA,NA,NA,NA,NA,NA,NA,NA,NA,NA,NA,NA,NA,NA,NA,NA,NA,NA,NA,NA,NA,NA,NA,NA
"393","stim/objects/HouseObjects/spraybottle2.png",440,35,433,0.9,"stim/64.jpeg",6,4,3,1,"HouseObjects",1,4,"left","left",0.661999941,1,1,1,0,182,35,1,0.9,1,"stim/64.jpeg",6,4,"stim/64.jpeg",4,"left",1.065999985,3,4,1.792999983,4,2.071000099,182,1,1,1,1,1,1
"423","stim/objects/Instruments/frenchhorn2.png",441,35,434,0.3,"stim/42.jpeg",4,2,2,1,"Instruments",2,1,"right","left",0.680000067,0,0,1,0,33,35,1,0.3,2,"stim/42.jpeg",4,2,"stim/42.jpeg",1,"right",1.018999815,3,1,0.782999992,2,2.240999699,33,0,0,NA,0,NA,1
"504","stim/objects/Instruments/musicsheet.png",442,35,435,0.9,"stim/53.jpeg",5,3,3,2,"Instruments",2,1,"right","right",0.471999884,1,1,1,0,NA,NA,NA,NA,NA,NA,NA,NA,NA,NA,NA,NA,NA,NA,NA,NA,NA,NA,NA,NA,NA,NA,NA,NA
"318","stim/objects/HouseObjects/lintroller.png",443,35,436,0.9,"stim/64.jpeg",6,4,3,2,"HouseObjects",1,3,"left","left",0.537999868,1,1,1,0,NA,NA,NA,NA,NA,NA,NA,NA,NA,NA,NA,NA,NA,NA,NA,NA,NA,NA,NA,NA,NA,NA,NA,NA
"290","stim/objects/HouseObjects/key2.png",444,35,437,0.7,"stim/41.jpeg",4,1,2,1,"HouseObjects",1,1,"left","right",0.527999878,0,0,1,0,26,35,1,0.7,1,"stim/41.jpeg",4,1,"stim/41.jpeg",1,"left",2.463999987,3,2,2.90199995,4,1.534999847,26,1,0,0,0,0,1
"484","stim/objects/Instruments/metronome.png",445,35,438,0.9,"stim/52.jpeg",5,2,3,2,"Instruments",2,3,"right","right",0.494999886,1,1,1,0,NA,NA,NA,NA,NA,NA,NA,NA,NA,NA,NA,NA,NA,NA,NA,NA,NA,NA,NA,NA,NA,NA,NA,NA
"560","stim/objects/Instruments/trombone2.png",446,35,439,0.1,"stim/63.jpeg",6,3,3,1,"Instruments",2,4,"right","left",0.440000057,0,0,1,0,199,35,1,0.1,2,"stim/63.jpeg",6,3,"stim/63.jpeg",4,"right",0.906999826,3,1,1.704999924,3,1.069999933,199,0,0,NA,0,NA,1
"485","stim/objects/Instruments/metronome.png",447,35,440,0.9,"stim/53.jpeg",5,3,3,2,"Instruments",2,3,"right","right",0.481999874,1,1,1,0,NA,NA,NA,NA,NA,NA,NA,NA,NA,NA,NA,NA,NA,NA,NA,NA,NA,NA,NA,NA,NA,NA,NA,NA
"338","stim/objects/HouseObjects/match.png",448,35,441,0.9,"stim/64.jpeg",6,4,3,2,"HouseObjects",1,1,"left","left",0.507999897,1,1,1,0,NA,NA,NA,NA,NA,NA,NA,NA,NA,NA,NA,NA,NA,NA,NA,NA,NA,NA,NA,NA,NA,NA,NA,NA
"282","stim/objects/HouseObjects/iron2.png",449,35,442,0.7,"stim/43.jpeg",4,3,2,1,"HouseObjects",1,2,"left","right",0.411000013,0,0,1,0,139,35,1,0.7,1,"stim/43.jpeg",4,3,"stim/43.jpeg",2,"right",0.746999979,1,2,0.572000027,1,2.797999859,139,0,0,NA,0,NA,1
"482","stim/objects/Instruments/metronome.png",450,35,443,0.9,"stim/54.jpeg",5,4,3,2,"Instruments",2,1,"right","right",0.474999905,1,1,1,0,NA,NA,NA,NA,NA,NA,NA,NA,NA,NA,NA,NA,NA,NA,NA,NA,NA,NA,NA,NA,NA,NA,NA,NA
"459","stim/objects/Instruments/marimba.png",451,35,444,0.9,"stim/53.jpeg",5,3,3,2,"Instruments",2,2,"right","right",0.497999907,1,1,1,0,NA,NA,NA,NA,NA,NA,NA,NA,NA,NA,NA,NA,NA,NA,NA,NA,NA,NA,NA,NA,NA,NA,NA,NA
"395","stim/objects/HouseObjects/teapot2.png",452,35,445,0.9,"stim/61.jpeg",6,1,3,1,"HouseObjects",1,1,"left","left",0.520999908,1,1,1,0,90,35,1,0.9,1,"stim/61.jpeg",6,1,"stim/61.jpeg",1,"right",0.578000069,2,2,0.948999882,4,0.451999903,90,0,0,NA,0,NA,1
"356","stim/objects/HouseObjects/pan.png",453,35,446,0.9,"stim/64.jpeg",6,4,3,2,"HouseObjects",1,1,"left","left",0.558999777,1,1,1,0,NA,NA,NA,NA,NA,NA,NA,NA,NA,NA,NA,NA,NA,NA,NA,NA,NA,NA,NA,NA,NA,NA,NA,NA
"255","stim/objects/HouseObjects/dustpan2.png",454,35,447,0.3,"stim/32.jpeg",3,2,2,1,"HouseObjects",1,3,"left","",NA,0,0,1,0,63,35,1,0.3,1,"stim/32.jpeg",3,2,"stim/32.jpeg",3,"right",1.172999859,2,1,0.957999945,3,1.125,63,0,0,NA,1,NA,1
"442","stim/objects/Instruments/hihat.png",455,35,448,0.7,"stim/31.jpeg",3,1,2,2,"Instruments",2,4,"right","left",0.523000002,0,0,1,0,NA,NA,NA,NA,NA,NA,NA,NA,NA,NA,NA,NA,NA,NA,NA,NA,NA,NA,NA,NA,NA,NA,NA,NA
"357","stim/objects/HouseObjects/pan.png",456,35,449,0.9,"stim/63.jpeg",6,3,3,2,"HouseObjects",1,4,"left","right",0.404999971,0,0,1,0,NA,NA,NA,NA,NA,NA,NA,NA,NA,NA,NA,NA,NA,NA,NA,NA,NA,NA,NA,NA,NA,NA,NA,NA
"487","stim/objects/Instruments/metronome.png",457,35,450,0.9,"stim/52.jpeg",5,2,3,2,"Instruments",2,3,"right","left",0.381000042,0,0,1,0,NA,NA,NA,NA,NA,NA,NA,NA,NA,NA,NA,NA,NA,NA,NA,NA,NA,NA,NA,NA,NA,NA,NA,NA
"328","stim/objects/HouseObjects/match.png",458,35,451,0.9,"stim/61.jpeg",6,1,3,2,"HouseObjects",1,4,"left","right",0.771999836,0,0,1,0,NA,NA,NA,NA,NA,NA,NA,NA,NA,NA,NA,NA,NA,NA,NA,NA,NA,NA,NA,NA,NA,NA,NA,NA
"419","stim/objects/Instruments/flutetrans.png",459,35,452,0.5,"stim/11.jpeg",1,1,1,2,"Instruments",2,3,"right","left",0.531999826,0,0,1,0,NA,NA,NA,NA,NA,NA,NA,NA,NA,NA,NA,NA,NA,NA,NA,NA,NA,NA,NA,NA,NA,NA,NA,NA
"538","stim/objects/Instruments/oboe.png",460,35,453,0.9,"stim/51.jpeg",5,1,3,2,"Instruments",2,4,"right","left",0.512000084,0,0,1,0,NA,NA,NA,NA,NA,NA,NA,NA,NA,NA,NA,NA,NA,NA,NA,NA,NA,NA,NA,NA,NA,NA,NA,NA
"372","stim/objects/HouseObjects/pitcher.png",461,35,454,0.9,"stim/62.jpeg",6,2,3,2,"HouseObjects",1,4,"left","left",0.490999937,1,1,1,0,NA,NA,NA,NA,NA,NA,NA,NA,NA,NA,NA,NA,NA,NA,NA,NA,NA,NA,NA,NA,NA,NA,NA,NA
"330","stim/objects/HouseObjects/match.png",462,35,455,0.9,"stim/62.jpeg",6,2,3,2,"HouseObjects",1,1,"left","left",0.594000101,1,1,1,0,NA,NA,NA,NA,NA,NA,NA,NA,NA,NA,NA,NA,NA,NA,NA,NA,NA,NA,NA,NA,NA,NA,NA,NA
"340","stim/objects/HouseObjects/match.png",463,35,456,0.9,"stim/64.jpeg",6,4,3,2,"HouseObjects",1,3,"left","left",0.598999977,1,1,1,0,NA,NA,NA,NA,NA,NA,NA,NA,NA,NA,NA,NA,NA,NA,NA,NA,NA,NA,NA,NA,NA,NA,NA,NA
"251","stim/objects/HouseObjects/doormat.png",464,35,457,0.5,"stim/14.jpeg",1,4,1,2,"HouseObjects",1,4,"left","",NA,0,0,1,0,NA,NA,NA,NA,NA,NA,NA,NA,NA,NA,NA,NA,NA,NA,NA,NA,NA,NA,NA,NA,NA,NA,NA,NA
"568","stim/objects/Instruments/vuvuzela2.png",465,35,458,0.1,"stim/63.jpeg",6,3,3,1,"Instruments",2,2,"right","left",0.40899992,0,0,1,0,128,35,1,0.1,2,"stim/63.jpeg",6,3,"stim/63.jpeg",2,"left",1.104000092,3,1,1.203999758,1,1.545000076,128,1,0,0,0,0,1
"449","stim/objects/Instruments/laud.png",466,35,459,0.7,"stim/34.jpeg",3,4,2,2,"Instruments",2,3,"right","left",0.460999966,0,0,1,0,NA,NA,NA,NA,NA,NA,NA,NA,NA,NA,NA,NA,NA,NA,NA,NA,NA,NA,NA,NA,NA,NA,NA,NA
"249","stim/objects/HouseObjects/dishsoap2.png",467,35,460,0.3,"stim/34.jpeg",3,4,2,1,"HouseObjects",1,1,"left","right",0.633999825,0,0,1,0,99,35,1,0.3,1,"stim/34.jpeg",3,4,"stim/34.jpeg",1,"right",0.730999947,1,1,1.173000097,2,1.172999859,99,0,0,NA,0,NA,1
