"","obj_file","X.x","participant.x","trialN.x","trial_cond","scn_file.x","scn_cat","scn_inst","scn_condition","fillers","obj_cat","obj_cat_num","quadrant","corr_ans","key_resp_trial.keys","key_resp_trial.rt","trial_acc","trial_acc_manual","group.x","practice","X.y","participant.y","OvsN","PE_level","object_cat","scn_file.y","corr_scn_cat","corr_scn_inst","scn_file.1","corr_loc","key_resp_id.keys","key_resp_id.rt","key_resp_conf.keys","key_resp_assoc.keys","key_resp_assoc.rt","key_resp_loc.keys","key_resp_loc.rt","trialN.y","id_acc","assoc.acc","cond_assoc","loc.acc","cond_loc","group.y"
"220","stim/objects/Instruments/harp2.png",1,66,1,0.9,"stim/23.jpeg",2,3,3,NA,"Instruments",1,3,"left","",NA,0,0,0,1,NA,NA,NA,NA,NA,NA,NA,NA,NA,NA,NA,NA,NA,NA,NA,NA,NA,NA,NA,NA,NA,NA,NA,NA
"30","stim/objects/HouseObjects/doormat2.png",2,66,2,0.3,"stim/64.jpeg",6,4,2,NA,"HouseObjects",2,1,"right","left",0.587999821,0,0,0,1,NA,NA,NA,NA,NA,NA,NA,NA,NA,NA,NA,NA,NA,NA,NA,NA,NA,NA,NA,NA,NA,NA,NA,NA
"187","stim/objects/Instruments/grandpiano.png",3,66,3,0.5,"stim/44.jpeg",4,4,1,NA,"Instruments",1,3,"left","right",0.606999874,0,0,0,1,NA,NA,NA,NA,NA,NA,NA,NA,NA,NA,NA,NA,NA,NA,NA,NA,NA,NA,NA,NA,NA,NA,NA,NA
"22","stim/objects/HouseObjects/dishsoap2.png",4,66,4,0.3,"stim/63.jpeg",6,3,2,NA,"HouseObjects",2,2,"right","left",0.559000015,0,0,0,1,NA,NA,NA,NA,NA,NA,NA,NA,NA,NA,NA,NA,NA,NA,NA,NA,NA,NA,NA,NA,NA,NA,NA,NA
"52","stim/objects/HouseObjects/flyswatter2.png",5,66,5,0.9,"stim/12.jpeg",1,2,3,NA,"HouseObjects",2,4,"right","right",0.700000048,1,1,0,1,NA,NA,NA,NA,NA,NA,NA,NA,NA,NA,NA,NA,NA,NA,NA,NA,NA,NA,NA,NA,NA,NA,NA,NA
"229","stim/objects/Instruments/hihat.png",6,66,6,0.3,"stim/54.jpeg",5,4,2,NA,"Instruments",1,2,"left","right",0.666999817,0,0,0,1,NA,NA,NA,NA,NA,NA,NA,NA,NA,NA,NA,NA,NA,NA,NA,NA,NA,NA,NA,NA,NA,NA,NA,NA
"162","stim/objects/Instruments/flute2.png",7,66,7,0.7,"stim/64.jpeg",6,4,2,NA,"Instruments",1,4,"left","left",0.704999924,1,1,0,1,NA,NA,NA,NA,NA,NA,NA,NA,NA,NA,NA,NA,NA,NA,NA,NA,NA,NA,NA,NA,NA,NA,NA,NA
"175","stim/objects/Instruments/frenchhorn.png",8,66,8,0.5,"stim/42.jpeg",4,2,1,NA,"Instruments",1,3,"left","right",0.566999912,0,0,0,1,NA,NA,NA,NA,NA,NA,NA,NA,NA,NA,NA,NA,NA,NA,NA,NA,NA,NA,NA,NA,NA,NA,NA,NA
"196","stim/objects/Instruments/guitarcase2.png",9,66,9,0.9,"stim/21.jpeg",2,1,3,NA,"Instruments",1,1,"left","left",0.618000031,1,1,0,1,NA,NA,NA,NA,NA,NA,NA,NA,NA,NA,NA,NA,NA,NA,NA,NA,NA,NA,NA,NA,NA,NA,NA,NA
"150","stim/objects/Instruments/electricguitar2.png",10,66,10,0.7,"stim/63.jpeg",6,3,2,NA,"Instruments",1,3,"left","",NA,0,0,0,1,NA,NA,NA,NA,NA,NA,NA,NA,NA,NA,NA,NA,NA,NA,NA,NA,NA,NA,NA,NA,NA,NA,NA,NA
"205","stim/objects/Instruments/harmonica.png",11,66,11,0.3,"stim/52.jpeg",5,2,2,NA,"Instruments",1,2,"left","right",0.629999876,0,0,0,1,NA,NA,NA,NA,NA,NA,NA,NA,NA,NA,NA,NA,NA,NA,NA,NA,NA,NA,NA,NA,NA,NA,NA,NA
"188","stim/objects/Instruments/grandpiano.png",12,66,12,0.5,"stim/44.jpeg",4,4,1,NA,"Instruments",1,2,"left","right",0.636999846,0,0,0,1,NA,NA,NA,NA,NA,NA,NA,NA,NA,NA,NA,NA,NA,NA,NA,NA,NA,NA,NA,NA,NA,NA,NA,NA
"197","stim/objects/Instruments/guitarcase2.png",13,66,13,0.9,"stim/21.jpeg",2,1,3,NA,"Instruments",1,2,"left","left",0.537999868,1,1,0,1,NA,NA,NA,NA,NA,NA,NA,NA,NA,NA,NA,NA,NA,NA,NA,NA,NA,NA,NA,NA,NA,NA,NA,NA
"89","stim/objects/HouseObjects/glassmop.png",14,66,14,0.7,"stim/51.jpeg",5,1,2,NA,"HouseObjects",2,4,"right","right",0.597999811,1,1,0,1,NA,NA,NA,NA,NA,NA,NA,NA,NA,NA,NA,NA,NA,NA,NA,NA,NA,NA,NA,NA,NA,NA,NA,NA
"221","stim/objects/Instruments/harp2.png",15,66,15,0.9,"stim/23.jpeg",2,3,3,NA,"Instruments",1,4,"left","left",0.502000093,1,1,0,1,NA,NA,NA,NA,NA,NA,NA,NA,NA,NA,NA,NA,NA,NA,NA,NA,NA,NA,NA,NA,NA,NA,NA,NA
"1","stim/objects/HouseObjects/coffee.png",16,66,16,0.5,"stim/31.jpeg",3,1,1,NA,"HouseObjects",2,1,"right","right",0.635999918,1,1,0,1,NA,NA,NA,NA,NA,NA,NA,NA,NA,NA,NA,NA,NA,NA,NA,NA,NA,NA,NA,NA,NA,NA,NA,NA
"96","stim/objects/HouseObjects/glassmop2.png",17,66,17,0.1,"stim/21.jpeg",2,1,3,NA,"HouseObjects",2,3,"right","left",0.49000001,0,0,0,1,NA,NA,NA,NA,NA,NA,NA,NA,NA,NA,NA,NA,NA,NA,NA,NA,NA,NA,NA,NA,NA,NA,NA,NA
"126","stim/objects/Instruments/drums2.png",18,66,18,0.7,"stim/61.jpeg",6,1,2,NA,"Instruments",1,1,"left","left",0.671999931,1,1,0,1,NA,NA,NA,NA,NA,NA,NA,NA,NA,NA,NA,NA,NA,NA,NA,NA,NA,NA,NA,NA,NA,NA,NA,NA
"217","stim/objects/Instruments/harp.png",19,66,19,0.3,"stim/53.jpeg",5,3,2,NA,"Instruments",1,1,"left","right",0.588000059,0,0,0,1,NA,NA,NA,NA,NA,NA,NA,NA,NA,NA,NA,NA,NA,NA,NA,NA,NA,NA,NA,NA,NA,NA,NA,NA
"80","stim/objects/HouseObjects/glass2.png",20,66,20,0.9,"stim/14.jpeg",1,4,3,NA,"HouseObjects",2,3,"right","right",0.631999969,1,1,0,1,NA,NA,NA,NA,NA,NA,NA,NA,NA,NA,NA,NA,NA,NA,NA,NA,NA,NA,NA,NA,NA,NA,NA,NA
"169","stim/objects/Instruments/flutetrans.png",21,66,21,0.5,"stim/41.jpeg",4,1,1,NA,"Instruments",1,2,"left","left",0.798000097,1,1,0,1,NA,NA,NA,NA,NA,NA,NA,NA,NA,NA,NA,NA,NA,NA,NA,NA,NA,NA,NA,NA,NA,NA,NA,NA
"97","stim/objects/HouseObjects/hairdryer.png",22,66,22,0.7,"stim/52.jpeg",5,2,2,NA,"HouseObjects",2,4,"right","right",0.554999828,1,1,0,1,NA,NA,NA,NA,NA,NA,NA,NA,NA,NA,NA,NA,NA,NA,NA,NA,NA,NA,NA,NA,NA,NA,NA,NA
"75","stim/objects/HouseObjects/glass.png",23,66,23,0.5,"stim/44.jpeg",4,4,1,NA,"HouseObjects",2,1,"right","left",0.768999815,0,0,0,1,NA,NA,NA,NA,NA,NA,NA,NA,NA,NA,NA,NA,NA,NA,NA,NA,NA,NA,NA,NA,NA,NA,NA,NA
"98","stim/objects/HouseObjects/hairdryer.png",24,66,24,0.7,"stim/52.jpeg",5,2,2,NA,"HouseObjects",2,2,"right","right",0.572000027,1,1,0,1,NA,NA,NA,NA,NA,NA,NA,NA,NA,NA,NA,NA,NA,NA,NA,NA,NA,NA,NA,NA,NA,NA,NA,NA
"47","stim/objects/HouseObjects/flyswatter.png",25,66,25,0.5,"stim/42.jpeg",4,2,1,NA,"HouseObjects",2,2,"right","right",0.720000029,1,1,0,1,NA,NA,NA,NA,NA,NA,NA,NA,NA,NA,NA,NA,NA,NA,NA,NA,NA,NA,NA,NA,NA,NA,NA,NA
"208","stim/objects/Instruments/harmonica2.png",26,66,26,0.9,"stim/22.jpeg",2,2,3,NA,"Instruments",1,3,"left","left",0.495000124,1,1,0,1,NA,NA,NA,NA,NA,NA,NA,NA,NA,NA,NA,NA,NA,NA,NA,NA,NA,NA,NA,NA,NA,NA,NA,NA
"113","stim/objects/HouseObjects/handvacuum.png",27,66,27,0.7,"stim/54.jpeg",5,4,2,NA,"HouseObjects",2,4,"right","right",0.664999962,1,1,0,1,NA,NA,NA,NA,NA,NA,NA,NA,NA,NA,NA,NA,NA,NA,NA,NA,NA,NA,NA,NA,NA,NA,NA,NA
"61","stim/objects/HouseObjects/garbagebin.png",28,66,28,0.5,"stim/43.jpeg",4,3,1,NA,"HouseObjects",2,1,"right","",NA,0,0,0,1,NA,NA,NA,NA,NA,NA,NA,NA,NA,NA,NA,NA,NA,NA,NA,NA,NA,NA,NA,NA,NA,NA,NA,NA
"9","stim/objects/HouseObjects/cushion.png",29,66,29,0.5,"stim/32.jpeg",3,2,1,NA,"HouseObjects",2,1,"right","right",0.680999994,1,1,0,1,NA,NA,NA,NA,NA,NA,NA,NA,NA,NA,NA,NA,NA,NA,NA,NA,NA,NA,NA,NA,NA,NA,NA,NA
"232","stim/objects/Instruments/hihat2.png",30,66,30,0.9,"stim/24.jpeg",2,4,3,NA,"Instruments",1,1,"left","left",0.499000072,1,1,0,1,NA,NA,NA,NA,NA,NA,NA,NA,NA,NA,NA,NA,NA,NA,NA,NA,NA,NA,NA,NA,NA,NA,NA,NA
"157","stim/objects/Instruments/flute.png",31,66,31,0.5,"stim/34.jpeg",3,4,1,NA,"Instruments",1,3,"left","right",0.56799984,0,0,0,1,NA,NA,NA,NA,NA,NA,NA,NA,NA,NA,NA,NA,NA,NA,NA,NA,NA,NA,NA,NA,NA,NA,NA,NA
"62","stim/objects/HouseObjects/garbagebin.png",32,66,32,0.5,"stim/43.jpeg",4,3,1,NA,"HouseObjects",2,3,"right","right",0.59100008,1,1,0,1,NA,NA,NA,NA,NA,NA,NA,NA,NA,NA,NA,NA,NA,NA,NA,NA,NA,NA,NA,NA,NA,NA,NA,NA
"25","stim/objects/HouseObjects/doormat.png",33,66,33,0.5,"stim/34.jpeg",3,4,1,NA,"HouseObjects",2,1,"right","right",0.506000042,1,1,0,1,NA,NA,NA,NA,NA,NA,NA,NA,NA,NA,NA,NA,NA,NA,NA,NA,NA,NA,NA,NA,NA,NA,NA,NA
"198","stim/objects/Instruments/guitarcase2.png",34,66,34,0.9,"stim/21.jpeg",2,1,3,NA,"Instruments",1,2,"left","left",0.432999849,1,1,0,1,NA,NA,NA,NA,NA,NA,NA,NA,NA,NA,NA,NA,NA,NA,NA,NA,NA,NA,NA,NA,NA,NA,NA,NA
"38","stim/objects/HouseObjects/dustpan2.png",35,66,35,0.9,"stim/11.jpeg",1,1,3,NA,"HouseObjects",2,4,"right","right",0.710999966,1,1,0,1,NA,NA,NA,NA,NA,NA,NA,NA,NA,NA,NA,NA,NA,NA,NA,NA,NA,NA,NA,NA,NA,NA,NA,NA
"233","stim/objects/Instruments/hihat2.png",36,66,36,0.9,"stim/24.jpeg",2,4,3,NA,"Instruments",1,2,"left","left",0.451999903,1,1,0,1,NA,NA,NA,NA,NA,NA,NA,NA,NA,NA,NA,NA,NA,NA,NA,NA,NA,NA,NA,NA,NA,NA,NA,NA
"222","stim/objects/Instruments/harp2.png",37,66,37,0.9,"stim/23.jpeg",2,3,3,NA,"Instruments",1,1,"left","left",0.599999905,1,1,0,1,NA,NA,NA,NA,NA,NA,NA,NA,NA,NA,NA,NA,NA,NA,NA,NA,NA,NA,NA,NA,NA,NA,NA,NA
"14","stim/objects/HouseObjects/cushion2.png",38,66,38,0.3,"stim/62.jpeg",6,2,2,NA,"HouseObjects",2,2,"right","left",0.603999853,0,0,0,1,NA,NA,NA,NA,NA,NA,NA,NA,NA,NA,NA,NA,NA,NA,NA,NA,NA,NA,NA,NA,NA,NA,NA,NA
"151","stim/objects/Instruments/electricguitar2.png",39,66,39,0.7,"stim/63.jpeg",6,3,2,NA,"Instruments",1,2,"left","left",0.59499979,1,1,0,1,NA,NA,NA,NA,NA,NA,NA,NA,NA,NA,NA,NA,NA,NA,NA,NA,NA,NA,NA,NA,NA,NA,NA,NA
"230","stim/objects/Instruments/hihat.png",40,66,40,0.3,"stim/54.jpeg",5,4,2,NA,"Instruments",1,1,"left","right",0.470999956,0,0,0,1,NA,NA,NA,NA,NA,NA,NA,NA,NA,NA,NA,NA,NA,NA,NA,NA,NA,NA,NA,NA,NA,NA,NA,NA
"127","stim/objects/Instruments/drums2.png",41,66,41,0.7,"stim/61.jpeg",6,1,2,NA,"Instruments",1,4,"left","left",0.485999823,1,1,0,1,NA,NA,NA,NA,NA,NA,NA,NA,NA,NA,NA,NA,NA,NA,NA,NA,NA,NA,NA,NA,NA,NA,NA,NA
"138","stim/objects/Instruments/electricdrumset2.png",42,66,42,0.7,"stim/62.jpeg",6,2,2,NA,"Instruments",1,4,"left","left",0.516000032,1,1,0,1,NA,NA,NA,NA,NA,NA,NA,NA,NA,NA,NA,NA,NA,NA,NA,NA,NA,NA,NA,NA,NA,NA,NA,NA
"121","stim/objects/Instruments/drums.png",43,66,43,0.5,"stim/31.jpeg",3,1,1,NA,"Instruments",1,2,"left","right",0.552999973,0,0,0,1,NA,NA,NA,NA,NA,NA,NA,NA,NA,NA,NA,NA,NA,NA,NA,NA,NA,NA,NA,NA,NA,NA,NA,NA
"105","stim/objects/HouseObjects/handbrush.png",44,66,44,0.7,"stim/53.jpeg",5,3,2,NA,"HouseObjects",2,1,"right","right",0.462999821,1,1,0,1,NA,NA,NA,NA,NA,NA,NA,NA,NA,NA,NA,NA,NA,NA,NA,NA,NA,NA,NA,NA,NA,NA,NA,NA
"139","stim/objects/Instruments/electricdrumset2.png",45,66,45,0.7,"stim/62.jpeg",6,2,2,NA,"Instruments",1,4,"left","left",0.470999718,1,1,0,1,NA,NA,NA,NA,NA,NA,NA,NA,NA,NA,NA,NA,NA,NA,NA,NA,NA,NA,NA,NA,NA,NA,NA,NA
"145","stim/objects/Instruments/electricguitar.png",46,66,46,0.5,"stim/33.jpeg",3,3,1,NA,"Instruments",1,1,"left","right",0.515999794,0,0,0,1,NA,NA,NA,NA,NA,NA,NA,NA,NA,NA,NA,NA,NA,NA,NA,NA,NA,NA,NA,NA,NA,NA,NA,NA
"152","stim/objects/Instruments/electricguitar2.png",47,66,47,0.7,"stim/63.jpeg",6,3,2,NA,"Instruments",1,2,"left","left",0.500999928,1,1,0,1,NA,NA,NA,NA,NA,NA,NA,NA,NA,NA,NA,NA,NA,NA,NA,NA,NA,NA,NA,NA,NA,NA,NA,NA
"48","stim/objects/HouseObjects/flyswatter.png",48,66,48,0.5,"stim/42.jpeg",4,2,1,NA,"HouseObjects",2,4,"right","right",0.514999866,1,1,0,1,NA,NA,NA,NA,NA,NA,NA,NA,NA,NA,NA,NA,NA,NA,NA,NA,NA,NA,NA,NA,NA,NA,NA,NA
"66","stim/objects/HouseObjects/garbagebin2.png",49,66,49,0.9,"stim/13.jpeg",1,3,3,NA,"HouseObjects",2,1,"right","right",0.649999857,1,1,0,1,NA,NA,NA,NA,NA,NA,NA,NA,NA,NA,NA,NA,NA,NA,NA,NA,NA,NA,NA,NA,NA,NA,NA,NA
"163","stim/objects/Instruments/flute2.png",50,66,50,0.7,"stim/64.jpeg",6,4,2,NA,"Instruments",1,2,"left","left",0.519000053,1,1,0,1,NA,NA,NA,NA,NA,NA,NA,NA,NA,NA,NA,NA,NA,NA,NA,NA,NA,NA,NA,NA,NA,NA,NA,NA
"106","stim/objects/HouseObjects/handbrush.png",51,66,51,0.7,"stim/53.jpeg",5,3,2,NA,"HouseObjects",2,2,"right","right",0.452000141,1,1,0,1,NA,NA,NA,NA,NA,NA,NA,NA,NA,NA,NA,NA,NA,NA,NA,NA,NA,NA,NA,NA,NA,NA,NA,NA
"49","stim/objects/HouseObjects/flyswatter.png",52,66,52,0.5,"stim/42.jpeg",4,2,1,NA,"HouseObjects",2,3,"right","right",0.522999763,1,1,0,1,NA,NA,NA,NA,NA,NA,NA,NA,NA,NA,NA,NA,NA,NA,NA,NA,NA,NA,NA,NA,NA,NA,NA,NA
"223","stim/objects/Instruments/harp2.png",53,66,53,0.9,"stim/23.jpeg",2,3,3,NA,"Instruments",1,3,"left","left",0.446000099,1,1,0,1,NA,NA,NA,NA,NA,NA,NA,NA,NA,NA,NA,NA,NA,NA,NA,NA,NA,NA,NA,NA,NA,NA,NA,NA
"76","stim/objects/HouseObjects/glass.png",54,66,54,0.5,"stim/44.jpeg",4,4,1,NA,"HouseObjects",2,4,"right","right",0.404999971,1,1,0,1,NA,NA,NA,NA,NA,NA,NA,NA,NA,NA,NA,NA,NA,NA,NA,NA,NA,NA,NA,NA,NA,NA,NA,NA
"181","stim/objects/Instruments/gong.png",55,66,55,0.5,"stim/43.jpeg",4,3,1,NA,"Instruments",1,4,"left","right",0.773999929,0,0,0,1,NA,NA,NA,NA,NA,NA,NA,NA,NA,NA,NA,NA,NA,NA,NA,NA,NA,NA,NA,NA,NA,NA,NA,NA
"77","stim/objects/HouseObjects/glass.png",56,66,56,0.5,"stim/44.jpeg",4,4,1,NA,"HouseObjects",2,3,"right","",NA,0,0,0,1,NA,NA,NA,NA,NA,NA,NA,NA,NA,NA,NA,NA,NA,NA,NA,NA,NA,NA,NA,NA,NA,NA,NA,NA
"2","stim/objects/HouseObjects/coffee.png",57,66,57,0.5,"stim/31.jpeg",3,1,1,NA,"HouseObjects",2,4,"right","left",0.73699975,0,0,0,1,NA,NA,NA,NA,NA,NA,NA,NA,NA,NA,NA,NA,NA,NA,NA,NA,NA,NA,NA,NA,NA,NA,NA,NA
"3","stim/objects/HouseObjects/coffee.png",58,66,58,0.5,"stim/31.jpeg",3,1,1,NA,"HouseObjects",2,1,"right","right",0.455999851,1,1,0,1,NA,NA,NA,NA,NA,NA,NA,NA,NA,NA,NA,NA,NA,NA,NA,NA,NA,NA,NA,NA,NA,NA,NA,NA
"63","stim/objects/HouseObjects/garbagebin.png",59,66,59,0.5,"stim/43.jpeg",4,3,1,NA,"HouseObjects",2,3,"right","right",0.568000078,1,1,0,1,NA,NA,NA,NA,NA,NA,NA,NA,NA,NA,NA,NA,NA,NA,NA,NA,NA,NA,NA,NA,NA,NA,NA,NA
"146","stim/objects/Instruments/electricguitar.png",60,66,60,0.5,"stim/33.jpeg",3,3,1,NA,"Instruments",1,4,"left","right",0.706999779,0,0,0,1,NA,NA,NA,NA,NA,NA,NA,NA,NA,NA,NA,NA,NA,NA,NA,NA,NA,NA,NA,NA,NA,NA,NA,NA
"90","stim/objects/HouseObjects/glassmop.png",61,66,61,0.7,"stim/51.jpeg",5,1,2,NA,"HouseObjects",2,4,"right","right",0.585999966,1,1,0,1,NA,NA,NA,NA,NA,NA,NA,NA,NA,NA,NA,NA,NA,NA,NA,NA,NA,NA,NA,NA,NA,NA,NA,NA
"234","stim/objects/Instruments/hihat2.png",62,66,62,0.9,"stim/24.jpeg",2,4,3,NA,"Instruments",1,4,"left","left",0.439999819,1,1,0,1,NA,NA,NA,NA,NA,NA,NA,NA,NA,NA,NA,NA,NA,NA,NA,NA,NA,NA,NA,NA,NA,NA,NA,NA
"209","stim/objects/Instruments/harmonica2.png",63,66,63,0.9,"stim/22.jpeg",2,2,3,NA,"Instruments",1,3,"left","left",0.612999916,1,1,0,1,NA,NA,NA,NA,NA,NA,NA,NA,NA,NA,NA,NA,NA,NA,NA,NA,NA,NA,NA,NA,NA,NA,NA,NA
"78","stim/objects/HouseObjects/glass.png",64,66,64,0.5,"stim/44.jpeg",4,4,1,NA,"HouseObjects",2,2,"right","right",0.652999878,1,1,0,1,NA,NA,NA,NA,NA,NA,NA,NA,NA,NA,NA,NA,NA,NA,NA,NA,NA,NA,NA,NA,NA,NA,NA,NA
"114","stim/objects/HouseObjects/handvacuum.png",65,66,65,0.7,"stim/54.jpeg",5,4,2,NA,"HouseObjects",2,1,"right","right",0.515000105,1,1,0,1,NA,NA,NA,NA,NA,NA,NA,NA,NA,NA,NA,NA,NA,NA,NA,NA,NA,NA,NA,NA,NA,NA,NA,NA
"158","stim/objects/Instruments/flute.png",66,66,66,0.5,"stim/34.jpeg",3,4,1,NA,"Instruments",1,2,"left","right",0.629999876,0,0,0,1,NA,NA,NA,NA,NA,NA,NA,NA,NA,NA,NA,NA,NA,NA,NA,NA,NA,NA,NA,NA,NA,NA,NA,NA
"218","stim/objects/Instruments/harp.png",67,66,67,0.3,"stim/53.jpeg",5,3,2,NA,"Instruments",1,4,"left","right",0.770999908,0,0,0,1,NA,NA,NA,NA,NA,NA,NA,NA,NA,NA,NA,NA,NA,NA,NA,NA,NA,NA,NA,NA,NA,NA,NA,NA
"107","stim/objects/HouseObjects/handbrush.png",68,66,68,0.7,"stim/53.jpeg",5,3,2,NA,"HouseObjects",2,3,"right","right",0.568999767,1,1,0,1,NA,NA,NA,NA,NA,NA,NA,NA,NA,NA,NA,NA,NA,NA,NA,NA,NA,NA,NA,NA,NA,NA,NA,NA
"176","stim/objects/Instruments/frenchhorn.png",69,66,69,0.5,"stim/42.jpeg",4,2,1,NA,"Instruments",1,3,"left","",NA,0,0,0,1,NA,NA,NA,NA,NA,NA,NA,NA,NA,NA,NA,NA,NA,NA,NA,NA,NA,NA,NA,NA,NA,NA,NA,NA
"91","stim/objects/HouseObjects/glassmop.png",70,66,70,0.7,"stim/51.jpeg",5,1,2,NA,"HouseObjects",2,4,"right","right",0.486999989,1,1,0,1,NA,NA,NA,NA,NA,NA,NA,NA,NA,NA,NA,NA,NA,NA,NA,NA,NA,NA,NA,NA,NA,NA,NA,NA
"177","stim/objects/Instruments/frenchhorn.png",71,66,71,0.5,"stim/42.jpeg",4,2,1,NA,"Instruments",1,4,"left","left",0.504999876,1,1,0,1,NA,NA,NA,NA,NA,NA,NA,NA,NA,NA,NA,NA,NA,NA,NA,NA,NA,NA,NA,NA,NA,NA,NA,NA
"235","stim/objects/Instruments/hihat2.png",72,66,72,0.9,"stim/24.jpeg",2,4,3,NA,"Instruments",1,3,"left","left",0.553999901,1,1,0,1,NA,NA,NA,NA,NA,NA,NA,NA,NA,NA,NA,NA,NA,NA,NA,NA,NA,NA,NA,NA,NA,NA,NA,NA
"236","stim/objects/Instruments/hihat2.png",73,66,73,0.9,"stim/24.jpeg",2,4,3,NA,"Instruments",1,4,"left","left",0.438999891,1,1,0,1,NA,NA,NA,NA,NA,NA,NA,NA,NA,NA,NA,NA,NA,NA,NA,NA,NA,NA,NA,NA,NA,NA,NA,NA
"53","stim/objects/HouseObjects/flyswatter2.png",74,66,74,0.9,"stim/12.jpeg",1,2,3,NA,"HouseObjects",2,2,"right","right",0.620999813,1,1,0,1,NA,NA,NA,NA,NA,NA,NA,NA,NA,NA,NA,NA,NA,NA,NA,NA,NA,NA,NA,NA,NA,NA,NA,NA
"115","stim/objects/HouseObjects/handvacuum.png",75,66,75,0.7,"stim/54.jpeg",5,4,2,NA,"HouseObjects",2,4,"right","right",0.677000046,1,1,0,1,NA,NA,NA,NA,NA,NA,NA,NA,NA,NA,NA,NA,NA,NA,NA,NA,NA,NA,NA,NA,NA,NA,NA,NA
"147","stim/objects/Instruments/electricguitar.png",76,66,76,0.5,"stim/33.jpeg",3,3,1,NA,"Instruments",1,4,"left","right",0.399999857,0,0,0,1,NA,NA,NA,NA,NA,NA,NA,NA,NA,NA,NA,NA,NA,NA,NA,NA,NA,NA,NA,NA,NA,NA,NA,NA
"10","stim/objects/HouseObjects/cushion.png",77,66,77,0.5,"stim/32.jpeg",3,2,1,NA,"HouseObjects",2,1,"right","right",0.451999903,1,1,0,1,NA,NA,NA,NA,NA,NA,NA,NA,NA,NA,NA,NA,NA,NA,NA,NA,NA,NA,NA,NA,NA,NA,NA,NA
"26","stim/objects/HouseObjects/doormat.png",78,66,78,0.5,"stim/34.jpeg",3,4,1,NA,"HouseObjects",2,3,"right","right",0.358999968,1,1,0,1,NA,NA,NA,NA,NA,NA,NA,NA,NA,NA,NA,NA,NA,NA,NA,NA,NA,NA,NA,NA,NA,NA,NA,NA
"39","stim/objects/HouseObjects/dustpan2.png",79,66,79,0.9,"stim/11.jpeg",1,1,3,NA,"HouseObjects",2,2,"right","right",0.605999947,1,1,0,1,NA,NA,NA,NA,NA,NA,NA,NA,NA,NA,NA,NA,NA,NA,NA,NA,NA,NA,NA,NA,NA,NA,NA,NA
"81","stim/objects/HouseObjects/glass2.png",80,66,80,0.9,"stim/14.jpeg",1,4,3,NA,"HouseObjects",2,1,"right","right",0.447999954,1,1,0,1,NA,NA,NA,NA,NA,NA,NA,NA,NA,NA,NA,NA,NA,NA,NA,NA,NA,NA,NA,NA,NA,NA,NA,NA
"199","stim/objects/Instruments/guitarcase2.png",81,66,81,0.9,"stim/21.jpeg",2,1,3,NA,"Instruments",1,2,"left","left",0.449999809,1,1,0,1,NA,NA,NA,NA,NA,NA,NA,NA,NA,NA,NA,NA,NA,NA,NA,NA,NA,NA,NA,NA,NA,NA,NA,NA
"11","stim/objects/HouseObjects/cushion.png",82,66,82,0.5,"stim/32.jpeg",3,2,1,NA,"HouseObjects",2,4,"right","right",0.501999855,1,1,0,1,NA,NA,NA,NA,NA,NA,NA,NA,NA,NA,NA,NA,NA,NA,NA,NA,NA,NA,NA,NA,NA,NA,NA,NA
"23","stim/objects/HouseObjects/dishsoap2.png",83,66,83,0.3,"stim/63.jpeg",6,3,2,NA,"HouseObjects",2,4,"right","left",0.586999893,0,0,0,1,NA,NA,NA,NA,NA,NA,NA,NA,NA,NA,NA,NA,NA,NA,NA,NA,NA,NA,NA,NA,NA,NA,NA,NA
"128","stim/objects/Instruments/drums2.png",84,66,84,0.7,"stim/61.jpeg",6,1,2,NA,"Instruments",1,1,"left","right",0.566999912,0,0,0,1,NA,NA,NA,NA,NA,NA,NA,NA,NA,NA,NA,NA,NA,NA,NA,NA,NA,NA,NA,NA,NA,NA,NA,NA
"210","stim/objects/Instruments/harmonica2.png",85,66,85,0.9,"stim/22.jpeg",2,2,3,NA,"Instruments",1,3,"left","left",0.454999924,1,1,0,1,NA,NA,NA,NA,NA,NA,NA,NA,NA,NA,NA,NA,NA,NA,NA,NA,NA,NA,NA,NA,NA,NA,NA,NA
"82","stim/objects/HouseObjects/glass2.png",86,66,86,0.9,"stim/14.jpeg",1,4,3,NA,"HouseObjects",2,1,"right","right",0.519999981,1,1,0,1,NA,NA,NA,NA,NA,NA,NA,NA,NA,NA,NA,NA,NA,NA,NA,NA,NA,NA,NA,NA,NA,NA,NA,NA
"211","stim/objects/Instruments/harmonica2.png",87,66,87,0.9,"stim/22.jpeg",2,2,3,NA,"Instruments",1,4,"left","left",0.453999996,1,1,0,1,NA,NA,NA,NA,NA,NA,NA,NA,NA,NA,NA,NA,NA,NA,NA,NA,NA,NA,NA,NA,NA,NA,NA,NA
"67","stim/objects/HouseObjects/garbagebin2.png",88,66,88,0.9,"stim/13.jpeg",1,3,3,NA,"HouseObjects",2,4,"right","right",0.503999949,1,1,0,1,NA,NA,NA,NA,NA,NA,NA,NA,NA,NA,NA,NA,NA,NA,NA,NA,NA,NA,NA,NA,NA,NA,NA,NA
"148","stim/objects/Instruments/electricguitar.png",89,66,89,0.5,"stim/33.jpeg",3,3,1,NA,"Instruments",1,1,"left","right",0.523999929,0,0,0,1,NA,NA,NA,NA,NA,NA,NA,NA,NA,NA,NA,NA,NA,NA,NA,NA,NA,NA,NA,NA,NA,NA,NA,NA
"206","stim/objects/Instruments/harmonica.png",90,66,90,0.3,"stim/52.jpeg",5,2,2,NA,"Instruments",1,1,"left","right",0.654999971,0,0,0,1,NA,NA,NA,NA,NA,NA,NA,NA,NA,NA,NA,NA,NA,NA,NA,NA,NA,NA,NA,NA,NA,NA,NA,NA
"189","stim/objects/Instruments/grandpiano.png",91,66,91,0.5,"stim/44.jpeg",4,4,1,NA,"Instruments",1,2,"left","right",0.750999928,0,0,0,1,NA,NA,NA,NA,NA,NA,NA,NA,NA,NA,NA,NA,NA,NA,NA,NA,NA,NA,NA,NA,NA,NA,NA,NA
"153","stim/objects/Instruments/electricguitar2.png",92,66,92,0.7,"stim/63.jpeg",6,3,2,NA,"Instruments",1,3,"left","left",0.602999926,1,1,0,1,NA,NA,NA,NA,NA,NA,NA,NA,NA,NA,NA,NA,NA,NA,NA,NA,NA,NA,NA,NA,NA,NA,NA,NA
"33","stim/objects/HouseObjects/dustpan.png",93,66,93,0.5,"stim/41.jpeg",4,1,1,NA,"HouseObjects",2,4,"right","right",0.693000078,1,1,0,1,NA,NA,NA,NA,NA,NA,NA,NA,NA,NA,NA,NA,NA,NA,NA,NA,NA,NA,NA,NA,NA,NA,NA,NA
"129","stim/objects/Instruments/drums2.png",94,66,94,0.7,"stim/61.jpeg",6,1,2,NA,"Instruments",1,2,"left","left",0.631000042,1,1,0,1,NA,NA,NA,NA,NA,NA,NA,NA,NA,NA,NA,NA,NA,NA,NA,NA,NA,NA,NA,NA,NA,NA,NA,NA
"133","stim/objects/Instruments/electricdrumset.png",95,66,95,0.5,"stim/32.jpeg",3,2,1,NA,"Instruments",1,4,"left","right",0.472999811,0,0,0,1,NA,NA,NA,NA,NA,NA,NA,NA,NA,NA,NA,NA,NA,NA,NA,NA,NA,NA,NA,NA,NA,NA,NA,NA
"212","stim/objects/Instruments/harmonica2.png",96,66,96,0.9,"stim/22.jpeg",2,2,3,NA,"Instruments",1,2,"left","left",0.470000029,1,1,0,1,NA,NA,NA,NA,NA,NA,NA,NA,NA,NA,NA,NA,NA,NA,NA,NA,NA,NA,NA,NA,NA,NA,NA,NA
"200","stim/objects/Instruments/guitarcase2.png",97,66,97,0.9,"stim/21.jpeg",2,1,3,NA,"Instruments",1,1,"left","left",0.508999825,1,1,0,1,NA,NA,NA,NA,NA,NA,NA,NA,NA,NA,NA,NA,NA,NA,NA,NA,NA,NA,NA,NA,NA,NA,NA,NA
"116","stim/objects/HouseObjects/handvacuum.png",98,66,98,0.7,"stim/54.jpeg",5,4,2,NA,"HouseObjects",2,2,"right","right",0.483999968,1,1,0,1,NA,NA,NA,NA,NA,NA,NA,NA,NA,NA,NA,NA,NA,NA,NA,NA,NA,NA,NA,NA,NA,NA,NA,NA
"4","stim/objects/HouseObjects/coffee.png",99,66,99,0.5,"stim/31.jpeg",3,1,1,NA,"HouseObjects",2,2,"right","right",0.502999783,1,1,0,1,NA,NA,NA,NA,NA,NA,NA,NA,NA,NA,NA,NA,NA,NA,NA,NA,NA,NA,NA,NA,NA,NA,NA,NA
"34","stim/objects/HouseObjects/dustpan.png",100,66,100,0.5,"stim/41.jpeg",4,1,1,NA,"HouseObjects",2,1,"right","right",0.572999954,1,1,0,1,NA,NA,NA,NA,NA,NA,NA,NA,NA,NA,NA,NA,NA,NA,NA,NA,NA,NA,NA,NA,NA,NA,NA,NA
"54","stim/objects/HouseObjects/flyswatter2.png",101,66,101,0.9,"stim/12.jpeg",1,2,3,NA,"HouseObjects",2,4,"right","right",0.737999916,1,1,0,1,NA,NA,NA,NA,NA,NA,NA,NA,NA,NA,NA,NA,NA,NA,NA,NA,NA,NA,NA,NA,NA,NA,NA,NA
"134","stim/objects/Instruments/electricdrumset.png",102,66,102,0.5,"stim/32.jpeg",3,2,1,NA,"Instruments",1,4,"left","right",0.508000135,0,0,0,1,NA,NA,NA,NA,NA,NA,NA,NA,NA,NA,NA,NA,NA,NA,NA,NA,NA,NA,NA,NA,NA,NA,NA,NA
"159","stim/objects/Instruments/flute.png",103,66,103,0.5,"stim/34.jpeg",3,4,1,NA,"Instruments",1,1,"left","right",0.53399992,0,0,0,1,NA,NA,NA,NA,NA,NA,NA,NA,NA,NA,NA,NA,NA,NA,NA,NA,NA,NA,NA,NA,NA,NA,NA,NA
"122","stim/objects/Instruments/drums.png",104,66,104,0.5,"stim/31.jpeg",3,1,1,NA,"Instruments",1,1,"left","right",0.638999939,0,0,0,1,NA,NA,NA,NA,NA,NA,NA,NA,NA,NA,NA,NA,NA,NA,NA,NA,NA,NA,NA,NA,NA,NA,NA,NA
"108","stim/objects/HouseObjects/handbrush.png",105,66,105,0.7,"stim/53.jpeg",5,3,2,NA,"HouseObjects",2,3,"right","right",0.767999887,1,1,0,1,NA,NA,NA,NA,NA,NA,NA,NA,NA,NA,NA,NA,NA,NA,NA,NA,NA,NA,NA,NA,NA,NA,NA,NA
"201","stim/objects/Instruments/guitarcase2.png",106,66,106,0.9,"stim/21.jpeg",2,1,3,NA,"Instruments",1,4,"left","left",0.467999935,1,1,0,1,NA,NA,NA,NA,NA,NA,NA,NA,NA,NA,NA,NA,NA,NA,NA,NA,NA,NA,NA,NA,NA,NA,NA,NA
"83","stim/objects/HouseObjects/glass2.png",107,66,107,0.9,"stim/14.jpeg",1,4,3,NA,"HouseObjects",2,3,"right","right",0.699999809,1,1,0,1,NA,NA,NA,NA,NA,NA,NA,NA,NA,NA,NA,NA,NA,NA,NA,NA,NA,NA,NA,NA,NA,NA,NA,NA
"224","stim/objects/Instruments/harp2.png",108,66,108,0.9,"stim/23.jpeg",2,3,3,NA,"Instruments",1,1,"left","left",0.546999931,1,1,0,1,NA,NA,NA,NA,NA,NA,NA,NA,NA,NA,NA,NA,NA,NA,NA,NA,NA,NA,NA,NA,NA,NA,NA,NA
"170","stim/objects/Instruments/flutetrans.png",109,66,109,0.5,"stim/41.jpeg",4,1,1,NA,"Instruments",1,4,"left","right",0.655999899,0,0,0,1,NA,NA,NA,NA,NA,NA,NA,NA,NA,NA,NA,NA,NA,NA,NA,NA,NA,NA,NA,NA,NA,NA,NA,NA
"109","stim/objects/HouseObjects/handbrush.png",110,66,110,0.7,"stim/53.jpeg",5,3,2,NA,"HouseObjects",2,3,"right","right",0.53399992,1,1,0,1,NA,NA,NA,NA,NA,NA,NA,NA,NA,NA,NA,NA,NA,NA,NA,NA,NA,NA,NA,NA,NA,NA,NA,NA
"99","stim/objects/HouseObjects/hairdryer.png",111,66,111,0.7,"stim/52.jpeg",5,2,2,NA,"HouseObjects",2,3,"right","right",0.527999878,1,1,0,1,NA,NA,NA,NA,NA,NA,NA,NA,NA,NA,NA,NA,NA,NA,NA,NA,NA,NA,NA,NA,NA,NA,NA,NA
"140","stim/objects/Instruments/electricdrumset2.png",112,66,112,0.7,"stim/62.jpeg",6,2,2,NA,"Instruments",1,3,"left","left",0.570999861,1,1,0,1,NA,NA,NA,NA,NA,NA,NA,NA,NA,NA,NA,NA,NA,NA,NA,NA,NA,NA,NA,NA,NA,NA,NA,NA
"64","stim/objects/HouseObjects/garbagebin.png",113,66,113,0.5,"stim/43.jpeg",4,3,1,NA,"HouseObjects",2,4,"right","right",0.549999952,1,1,0,1,NA,NA,NA,NA,NA,NA,NA,NA,NA,NA,NA,NA,NA,NA,NA,NA,NA,NA,NA,NA,NA,NA,NA,NA
"24","stim/objects/HouseObjects/dishsoap2.png",114,66,114,0.3,"stim/63.jpeg",6,3,2,NA,"HouseObjects",2,4,"right","left",0.522000074,0,0,0,1,NA,NA,NA,NA,NA,NA,NA,NA,NA,NA,NA,NA,NA,NA,NA,NA,NA,NA,NA,NA,NA,NA,NA,NA
"178","stim/objects/Instruments/frenchhorn.png",115,66,115,0.5,"stim/42.jpeg",4,2,1,NA,"Instruments",1,4,"left","",NA,0,0,0,1,NA,NA,NA,NA,NA,NA,NA,NA,NA,NA,NA,NA,NA,NA,NA,NA,NA,NA,NA,NA,NA,NA,NA,NA
"35","stim/objects/HouseObjects/dustpan.png",116,66,116,0.5,"stim/41.jpeg",4,1,1,NA,"HouseObjects",2,4,"right","right",0.621999979,1,1,0,1,NA,NA,NA,NA,NA,NA,NA,NA,NA,NA,NA,NA,NA,NA,NA,NA,NA,NA,NA,NA,NA,NA,NA,NA
"100","stim/objects/HouseObjects/hairdryer.png",117,66,117,0.7,"stim/52.jpeg",5,2,2,NA,"HouseObjects",2,1,"right","right",0.457000017,1,1,0,1,NA,NA,NA,NA,NA,NA,NA,NA,NA,NA,NA,NA,NA,NA,NA,NA,NA,NA,NA,NA,NA,NA,NA,NA
"182","stim/objects/Instruments/gong.png",118,66,118,0.5,"stim/43.jpeg",4,3,1,NA,"Instruments",1,2,"left","left",0.687000036,1,1,0,1,NA,NA,NA,NA,NA,NA,NA,NA,NA,NA,NA,NA,NA,NA,NA,NA,NA,NA,NA,NA,NA,NA,NA,NA
"160","stim/objects/Instruments/flute.png",119,66,119,0.5,"stim/34.jpeg",3,4,1,NA,"Instruments",1,3,"left","right",0.416999817,0,0,0,1,NA,NA,NA,NA,NA,NA,NA,NA,NA,NA,NA,NA,NA,NA,NA,NA,NA,NA,NA,NA,NA,NA,NA,NA
"225","stim/objects/Instruments/harp2.png",120,66,120,0.9,"stim/23.jpeg",2,3,3,NA,"Instruments",1,1,"left","left",0.517999887,1,1,0,1,NA,NA,NA,NA,NA,NA,NA,NA,NA,NA,NA,NA,NA,NA,NA,NA,NA,NA,NA,NA,NA,NA,NA,NA
"183","stim/objects/Instruments/gong.png",121,66,121,0.5,"stim/43.jpeg",4,3,1,NA,"Instruments",1,1,"left","right",0.588999987,0,0,0,1,NA,NA,NA,NA,NA,NA,NA,NA,NA,NA,NA,NA,NA,NA,NA,NA,NA,NA,NA,NA,NA,NA,NA,NA
"164","stim/objects/Instruments/flute2.png",122,66,122,0.7,"stim/64.jpeg",6,4,2,NA,"Instruments",1,4,"left","left",0.518999815,1,1,0,1,NA,NA,NA,NA,NA,NA,NA,NA,NA,NA,NA,NA,NA,NA,NA,NA,NA,NA,NA,NA,NA,NA,NA,NA
"117","stim/objects/HouseObjects/handvacuum.png",123,66,123,0.7,"stim/54.jpeg",5,4,2,NA,"HouseObjects",2,3,"right","right",0.552999973,1,1,0,1,NA,NA,NA,NA,NA,NA,NA,NA,NA,NA,NA,NA,NA,NA,NA,NA,NA,NA,NA,NA,NA,NA,NA,NA
"192","stim/objects/Instruments/grandpiano2.png",124,66,124,0.1,"stim/14.jpeg",1,4,3,NA,"Instruments",1,2,"left","left",0.466999769,1,1,0,1,NA,NA,NA,NA,NA,NA,NA,NA,NA,NA,NA,NA,NA,NA,NA,NA,NA,NA,NA,NA,NA,NA,NA,NA
"154","stim/objects/Instruments/electricguitar2.png",125,66,125,0.7,"stim/63.jpeg",6,3,2,NA,"Instruments",1,1,"left","left",0.818999767,1,1,0,1,NA,NA,NA,NA,NA,NA,NA,NA,NA,NA,NA,NA,NA,NA,NA,NA,NA,NA,NA,NA,NA,NA,NA,NA
"6","stim/objects/HouseObjects/coffee2.png",126,66,126,0.3,"stim/61.jpeg",6,1,2,NA,"HouseObjects",2,3,"right","left",0.70299983,0,0,0,1,NA,NA,NA,NA,NA,NA,NA,NA,NA,NA,NA,NA,NA,NA,NA,NA,NA,NA,NA,NA,NA,NA,NA,NA
"135","stim/objects/Instruments/electricdrumset.png",127,66,127,0.5,"stim/32.jpeg",3,2,1,NA,"Instruments",1,3,"left","right",0.687999964,0,0,0,1,NA,NA,NA,NA,NA,NA,NA,NA,NA,NA,NA,NA,NA,NA,NA,NA,NA,NA,NA,NA,NA,NA,NA,NA
"17","stim/objects/HouseObjects/dishsoap.png",128,66,128,0.5,"stim/33.jpeg",3,3,1,NA,"HouseObjects",2,3,"right","right",0.72300005,1,1,0,1,NA,NA,NA,NA,NA,NA,NA,NA,NA,NA,NA,NA,NA,NA,NA,NA,NA,NA,NA,NA,NA,NA,NA,NA
"18","stim/objects/HouseObjects/dishsoap.png",129,66,129,0.5,"stim/33.jpeg",3,3,1,NA,"HouseObjects",2,2,"right","right",0.705999851,1,1,0,1,NA,NA,NA,NA,NA,NA,NA,NA,NA,NA,NA,NA,NA,NA,NA,NA,NA,NA,NA,NA,NA,NA,NA,NA
"237","stim/objects/Instruments/hihat2.png",130,66,130,0.9,"stim/24.jpeg",2,4,3,NA,"Instruments",1,1,"left","left",0.49399972,1,1,0,1,NA,NA,NA,NA,NA,NA,NA,NA,NA,NA,NA,NA,NA,NA,NA,NA,NA,NA,NA,NA,NA,NA,NA,NA
"155","stim/objects/Instruments/electricguitar2.png",131,66,131,0.7,"stim/63.jpeg",6,3,2,NA,"Instruments",1,4,"left","left",0.572999954,1,1,0,1,NA,NA,NA,NA,NA,NA,NA,NA,NA,NA,NA,NA,NA,NA,NA,NA,NA,NA,NA,NA,NA,NA,NA,NA
"12","stim/objects/HouseObjects/cushion.png",132,66,132,0.5,"stim/32.jpeg",3,2,1,NA,"HouseObjects",2,1,"right","right",0.487999916,1,1,0,1,NA,NA,NA,NA,NA,NA,NA,NA,NA,NA,NA,NA,NA,NA,NA,NA,NA,NA,NA,NA,NA,NA,NA,NA
"123","stim/objects/Instruments/drums.png",133,66,133,0.5,"stim/31.jpeg",3,1,1,NA,"Instruments",1,1,"left","right",0.638000011,0,0,0,1,NA,NA,NA,NA,NA,NA,NA,NA,NA,NA,NA,NA,NA,NA,NA,NA,NA,NA,NA,NA,NA,NA,NA,NA
"238","stim/objects/Instruments/hihat2.png",134,66,134,0.9,"stim/24.jpeg",2,4,3,NA,"Instruments",1,3,"left","left",0.525999784,1,1,0,1,NA,NA,NA,NA,NA,NA,NA,NA,NA,NA,NA,NA,NA,NA,NA,NA,NA,NA,NA,NA,NA,NA,NA,NA
"186","stim/objects/Instruments/gong2.png",135,66,135,0.1,"stim/13.jpeg",1,3,3,NA,"Instruments",1,2,"left","right",0.63499999,0,0,0,1,NA,NA,NA,NA,NA,NA,NA,NA,NA,NA,NA,NA,NA,NA,NA,NA,NA,NA,NA,NA,NA,NA,NA,NA
"124","stim/objects/Instruments/drums.png",136,66,136,0.5,"stim/31.jpeg",3,1,1,NA,"Instruments",1,2,"left","left",0.484999895,1,1,0,1,NA,NA,NA,NA,NA,NA,NA,NA,NA,NA,NA,NA,NA,NA,NA,NA,NA,NA,NA,NA,NA,NA,NA,NA
"171","stim/objects/Instruments/flutetrans.png",137,66,137,0.5,"stim/41.jpeg",4,1,1,NA,"Instruments",1,2,"left","right",0.822000027,0,0,0,1,NA,NA,NA,NA,NA,NA,NA,NA,NA,NA,NA,NA,NA,NA,NA,NA,NA,NA,NA,NA,NA,NA,NA,NA
"136","stim/objects/Instruments/electricdrumset.png",138,66,138,0.5,"stim/32.jpeg",3,2,1,NA,"Instruments",1,2,"left","right",0.634999752,0,0,0,1,NA,NA,NA,NA,NA,NA,NA,NA,NA,NA,NA,NA,NA,NA,NA,NA,NA,NA,NA,NA,NA,NA,NA,NA
"202","stim/objects/Instruments/guitarcase2.png",139,66,139,0.9,"stim/21.jpeg",2,1,3,NA,"Instruments",1,1,"left","left",0.623999834,1,1,0,1,NA,NA,NA,NA,NA,NA,NA,NA,NA,NA,NA,NA,NA,NA,NA,NA,NA,NA,NA,NA,NA,NA,NA,NA
"213","stim/objects/Instruments/harmonica2.png",140,66,140,0.9,"stim/22.jpeg",2,2,3,NA,"Instruments",1,4,"left","left",0.536000013,1,1,0,1,NA,NA,NA,NA,NA,NA,NA,NA,NA,NA,NA,NA,NA,NA,NA,NA,NA,NA,NA,NA,NA,NA,NA,NA
"19","stim/objects/HouseObjects/dishsoap.png",141,66,141,0.5,"stim/33.jpeg",3,3,1,NA,"HouseObjects",2,3,"right","right",0.505999804,1,1,0,1,NA,NA,NA,NA,NA,NA,NA,NA,NA,NA,NA,NA,NA,NA,NA,NA,NA,NA,NA,NA,NA,NA,NA,NA
"65","stim/objects/HouseObjects/garbagebin.png",142,66,142,0.5,"stim/43.jpeg",4,3,1,NA,"HouseObjects",2,1,"right","right",0.635999918,1,1,0,1,NA,NA,NA,NA,NA,NA,NA,NA,NA,NA,NA,NA,NA,NA,NA,NA,NA,NA,NA,NA,NA,NA,NA,NA
"50","stim/objects/HouseObjects/flyswatter.png",143,66,143,0.5,"stim/42.jpeg",4,2,1,NA,"HouseObjects",2,2,"right","left",0.753999949,0,0,0,1,NA,NA,NA,NA,NA,NA,NA,NA,NA,NA,NA,NA,NA,NA,NA,NA,NA,NA,NA,NA,NA,NA,NA,NA
"31","stim/objects/HouseObjects/doormat2.png",144,66,144,0.3,"stim/64.jpeg",6,4,2,NA,"HouseObjects",2,4,"right","left",0.63499999,0,0,0,1,NA,NA,NA,NA,NA,NA,NA,NA,NA,NA,NA,NA,NA,NA,NA,NA,NA,NA,NA,NA,NA,NA,NA,NA
"79","stim/objects/HouseObjects/glass.png",145,66,145,0.5,"stim/44.jpeg",4,4,1,NA,"HouseObjects",2,3,"right","right",0.473999977,1,1,0,1,NA,NA,NA,NA,NA,NA,NA,NA,NA,NA,NA,NA,NA,NA,NA,NA,NA,NA,NA,NA,NA,NA,NA,NA
"156","stim/objects/Instruments/electricguitar2.png",146,66,146,0.7,"stim/63.jpeg",6,3,2,NA,"Instruments",1,2,"left","left",0.483999968,1,1,0,1,NA,NA,NA,NA,NA,NA,NA,NA,NA,NA,NA,NA,NA,NA,NA,NA,NA,NA,NA,NA,NA,NA,NA,NA
"40","stim/objects/HouseObjects/dustpan2.png",147,66,147,0.9,"stim/11.jpeg",1,1,3,NA,"HouseObjects",2,3,"right","right",0.58100009,1,1,0,1,NA,NA,NA,NA,NA,NA,NA,NA,NA,NA,NA,NA,NA,NA,NA,NA,NA,NA,NA,NA,NA,NA,NA,NA
"41","stim/objects/HouseObjects/dustpan2.png",148,66,148,0.9,"stim/11.jpeg",1,1,3,NA,"HouseObjects",2,1,"right","right",0.522999763,1,1,0,1,NA,NA,NA,NA,NA,NA,NA,NA,NA,NA,NA,NA,NA,NA,NA,NA,NA,NA,NA,NA,NA,NA,NA,NA
"68","stim/objects/HouseObjects/garbagebin2.png",149,66,149,0.9,"stim/13.jpeg",1,3,3,NA,"HouseObjects",2,3,"right","right",0.661999941,1,1,0,1,NA,NA,NA,NA,NA,NA,NA,NA,NA,NA,NA,NA,NA,NA,NA,NA,NA,NA,NA,NA,NA,NA,NA,NA
"141","stim/objects/Instruments/electricdrumset2.png",150,66,150,0.7,"stim/62.jpeg",6,2,2,NA,"Instruments",1,3,"left","left",0.547999859,1,1,0,1,NA,NA,NA,NA,NA,NA,NA,NA,NA,NA,NA,NA,NA,NA,NA,NA,NA,NA,NA,NA,NA,NA,NA,NA
"125","stim/objects/Instruments/drums.png",151,66,151,0.5,"stim/31.jpeg",3,1,1,NA,"Instruments",1,2,"left","right",0.5,0,0,0,1,NA,NA,NA,NA,NA,NA,NA,NA,NA,NA,NA,NA,NA,NA,NA,NA,NA,NA,NA,NA,NA,NA,NA,NA
"15","stim/objects/HouseObjects/cushion2.png",152,66,152,0.3,"stim/62.jpeg",6,2,2,NA,"HouseObjects",2,1,"right","left",0.619999886,0,0,0,1,NA,NA,NA,NA,NA,NA,NA,NA,NA,NA,NA,NA,NA,NA,NA,NA,NA,NA,NA,NA,NA,NA,NA,NA
"112","stim/objects/HouseObjects/handbrush2.png",153,66,153,0.1,"stim/23.jpeg",2,3,3,NA,"HouseObjects",2,4,"right","left",0.490999937,0,0,0,1,NA,NA,NA,NA,NA,NA,NA,NA,NA,NA,NA,NA,NA,NA,NA,NA,NA,NA,NA,NA,NA,NA,NA,NA
"27","stim/objects/HouseObjects/doormat.png",154,66,154,0.5,"stim/34.jpeg",3,4,1,NA,"HouseObjects",2,1,"right","right",0.767999887,1,1,0,1,NA,NA,NA,NA,NA,NA,NA,NA,NA,NA,NA,NA,NA,NA,NA,NA,NA,NA,NA,NA,NA,NA,NA,NA
"226","stim/objects/Instruments/harp2.png",155,66,155,0.9,"stim/23.jpeg",2,3,3,NA,"Instruments",1,4,"left","left",0.532999754,1,1,0,1,NA,NA,NA,NA,NA,NA,NA,NA,NA,NA,NA,NA,NA,NA,NA,NA,NA,NA,NA,NA,NA,NA,NA,NA
"142","stim/objects/Instruments/electricdrumset2.png",156,66,156,0.7,"stim/62.jpeg",6,2,2,NA,"Instruments",1,1,"left","",NA,0,0,0,1,NA,NA,NA,NA,NA,NA,NA,NA,NA,NA,NA,NA,NA,NA,NA,NA,NA,NA,NA,NA,NA,NA,NA,NA
"161","stim/objects/Instruments/flute.png",157,66,157,0.5,"stim/34.jpeg",3,4,1,NA,"Instruments",1,2,"left","right",0.805999994,0,0,0,1,NA,NA,NA,NA,NA,NA,NA,NA,NA,NA,NA,NA,NA,NA,NA,NA,NA,NA,NA,NA,NA,NA,NA,NA
"174","stim/objects/Instruments/flutetrans2.png",158,66,158,0.1,"stim/11.jpeg",1,1,3,NA,"Instruments",1,3,"left","right",0.587999821,0,0,0,1,NA,NA,NA,NA,NA,NA,NA,NA,NA,NA,NA,NA,NA,NA,NA,NA,NA,NA,NA,NA,NA,NA,NA,NA
"20","stim/objects/HouseObjects/dishsoap.png",159,66,159,0.5,"stim/33.jpeg",3,3,1,NA,"HouseObjects",2,4,"right","right",0.632999897,1,1,0,1,NA,NA,NA,NA,NA,NA,NA,NA,NA,NA,NA,NA,NA,NA,NA,NA,NA,NA,NA,NA,NA,NA,NA,NA
"165","stim/objects/Instruments/flute2.png",160,66,160,0.7,"stim/64.jpeg",6,4,2,NA,"Instruments",1,2,"left","left",0.542999983,1,1,0,1,NA,NA,NA,NA,NA,NA,NA,NA,NA,NA,NA,NA,NA,NA,NA,NA,NA,NA,NA,NA,NA,NA,NA,NA
"239","stim/objects/Instruments/hihat2.png",161,66,161,0.9,"stim/24.jpeg",2,4,3,NA,"Instruments",1,1,"left","left",0.397999763,1,1,0,1,NA,NA,NA,NA,NA,NA,NA,NA,NA,NA,NA,NA,NA,NA,NA,NA,NA,NA,NA,NA,NA,NA,NA,NA
"36","stim/objects/HouseObjects/dustpan.png",162,66,162,0.5,"stim/41.jpeg",4,1,1,NA,"HouseObjects",2,1,"right","right",0.472999811,1,1,0,1,NA,NA,NA,NA,NA,NA,NA,NA,NA,NA,NA,NA,NA,NA,NA,NA,NA,NA,NA,NA,NA,NA,NA,NA
"110","stim/objects/HouseObjects/handbrush.png",163,66,163,0.7,"stim/53.jpeg",5,3,2,NA,"HouseObjects",2,3,"right","right",0.566999912,1,1,0,1,NA,NA,NA,NA,NA,NA,NA,NA,NA,NA,NA,NA,NA,NA,NA,NA,NA,NA,NA,NA,NA,NA,NA,NA
"5","stim/objects/HouseObjects/coffee.png",164,66,164,0.5,"stim/31.jpeg",3,1,1,NA,"HouseObjects",2,3,"right","right",0.719000101,1,1,0,1,NA,NA,NA,NA,NA,NA,NA,NA,NA,NA,NA,NA,NA,NA,NA,NA,NA,NA,NA,NA,NA,NA,NA,NA
"184","stim/objects/Instruments/gong.png",165,66,165,0.5,"stim/43.jpeg",4,3,1,NA,"Instruments",1,2,"left","right",0.654000044,0,0,0,1,NA,NA,NA,NA,NA,NA,NA,NA,NA,NA,NA,NA,NA,NA,NA,NA,NA,NA,NA,NA,NA,NA,NA,NA
"28","stim/objects/HouseObjects/doormat.png",166,66,166,0.5,"stim/34.jpeg",3,4,1,NA,"HouseObjects",2,3,"right","right",0.434999943,1,1,0,1,NA,NA,NA,NA,NA,NA,NA,NA,NA,NA,NA,NA,NA,NA,NA,NA,NA,NA,NA,NA,NA,NA,NA,NA
"104","stim/objects/HouseObjects/hairdryer2.png",167,66,167,0.1,"stim/22.jpeg",2,2,3,NA,"HouseObjects",2,2,"right","left",0.49000001,0,0,0,1,NA,NA,NA,NA,NA,NA,NA,NA,NA,NA,NA,NA,NA,NA,NA,NA,NA,NA,NA,NA,NA,NA,NA,NA
"130","stim/objects/Instruments/drums2.png",168,66,168,0.7,"stim/61.jpeg",6,1,2,NA,"Instruments",1,3,"left","right",0.438999891,0,0,0,1,NA,NA,NA,NA,NA,NA,NA,NA,NA,NA,NA,NA,NA,NA,NA,NA,NA,NA,NA,NA,NA,NA,NA,NA
"7","stim/objects/HouseObjects/coffee2.png",169,66,169,0.3,"stim/61.jpeg",6,1,2,NA,"HouseObjects",2,3,"right","right",0.453000069,1,1,0,1,NA,NA,NA,NA,NA,NA,NA,NA,NA,NA,NA,NA,NA,NA,NA,NA,NA,NA,NA,NA,NA,NA,NA,NA
"185","stim/objects/Instruments/gong.png",170,66,170,0.5,"stim/43.jpeg",4,3,1,NA,"Instruments",1,4,"left","right",0.569999933,0,0,0,1,NA,NA,NA,NA,NA,NA,NA,NA,NA,NA,NA,NA,NA,NA,NA,NA,NA,NA,NA,NA,NA,NA,NA,NA
"193","stim/objects/Instruments/guitarcase.png",171,66,171,0.3,"stim/51.jpeg",5,1,2,NA,"Instruments",1,1,"left","right",0.556999922,0,0,0,1,NA,NA,NA,NA,NA,NA,NA,NA,NA,NA,NA,NA,NA,NA,NA,NA,NA,NA,NA,NA,NA,NA,NA,NA
"21","stim/objects/HouseObjects/dishsoap.png",172,66,172,0.5,"stim/33.jpeg",3,3,1,NA,"HouseObjects",2,3,"right","right",0.552999973,1,1,0,1,NA,NA,NA,NA,NA,NA,NA,NA,NA,NA,NA,NA,NA,NA,NA,NA,NA,NA,NA,NA,NA,NA,NA,NA
"143","stim/objects/Instruments/electricdrumset2.png",173,66,173,0.7,"stim/62.jpeg",6,2,2,NA,"Instruments",1,2,"left","left",0.566999912,1,1,0,1,NA,NA,NA,NA,NA,NA,NA,NA,NA,NA,NA,NA,NA,NA,NA,NA,NA,NA,NA,NA,NA,NA,NA,NA
"166","stim/objects/Instruments/flute2.png",174,66,174,0.7,"stim/64.jpeg",6,4,2,NA,"Instruments",1,1,"left","left",0.81099987,1,1,0,1,NA,NA,NA,NA,NA,NA,NA,NA,NA,NA,NA,NA,NA,NA,NA,NA,NA,NA,NA,NA,NA,NA,NA,NA
"118","stim/objects/HouseObjects/handvacuum.png",175,66,175,0.7,"stim/54.jpeg",5,4,2,NA,"HouseObjects",2,1,"right","right",0.502999783,1,1,0,1,NA,NA,NA,NA,NA,NA,NA,NA,NA,NA,NA,NA,NA,NA,NA,NA,NA,NA,NA,NA,NA,NA,NA,NA
"51","stim/objects/HouseObjects/flyswatter.png",176,66,176,0.5,"stim/42.jpeg",4,2,1,NA,"HouseObjects",2,2,"right","right",0.523000002,1,1,0,1,NA,NA,NA,NA,NA,NA,NA,NA,NA,NA,NA,NA,NA,NA,NA,NA,NA,NA,NA,NA,NA,NA,NA,NA
"227","stim/objects/Instruments/harp2.png",177,66,177,0.9,"stim/23.jpeg",2,3,3,NA,"Instruments",1,4,"left","left",0.350999832,1,1,0,1,NA,NA,NA,NA,NA,NA,NA,NA,NA,NA,NA,NA,NA,NA,NA,NA,NA,NA,NA,NA,NA,NA,NA,NA
"92","stim/objects/HouseObjects/glassmop.png",178,66,178,0.7,"stim/51.jpeg",5,1,2,NA,"HouseObjects",2,2,"right","right",0.432999849,1,1,0,1,NA,NA,NA,NA,NA,NA,NA,NA,NA,NA,NA,NA,NA,NA,NA,NA,NA,NA,NA,NA,NA,NA,NA,NA
"69","stim/objects/HouseObjects/garbagebin2.png",179,66,179,0.9,"stim/13.jpeg",1,3,3,NA,"HouseObjects",2,1,"right","right",0.521999836,1,1,0,1,NA,NA,NA,NA,NA,NA,NA,NA,NA,NA,NA,NA,NA,NA,NA,NA,NA,NA,NA,NA,NA,NA,NA,NA
"70","stim/objects/HouseObjects/garbagebin2.png",180,66,180,0.9,"stim/13.jpeg",1,3,3,NA,"HouseObjects",2,3,"right","right",0.465999842,1,1,0,1,NA,NA,NA,NA,NA,NA,NA,NA,NA,NA,NA,NA,NA,NA,NA,NA,NA,NA,NA,NA,NA,NA,NA,NA
"55","stim/objects/HouseObjects/flyswatter2.png",181,66,181,0.9,"stim/12.jpeg",1,2,3,NA,"HouseObjects",2,1,"right","right",0.526000023,1,1,0,1,NA,NA,NA,NA,NA,NA,NA,NA,NA,NA,NA,NA,NA,NA,NA,NA,NA,NA,NA,NA,NA,NA,NA,NA
"111","stim/objects/HouseObjects/handbrush.png",182,66,182,0.7,"stim/53.jpeg",5,3,2,NA,"HouseObjects",2,2,"right","left",0.587999821,0,0,0,1,NA,NA,NA,NA,NA,NA,NA,NA,NA,NA,NA,NA,NA,NA,NA,NA,NA,NA,NA,NA,NA,NA,NA,NA
"84","stim/objects/HouseObjects/glass2.png",183,66,183,0.9,"stim/14.jpeg",1,4,3,NA,"HouseObjects",2,4,"right","right",0.836999893,1,1,0,1,NA,NA,NA,NA,NA,NA,NA,NA,NA,NA,NA,NA,NA,NA,NA,NA,NA,NA,NA,NA,NA,NA,NA,NA
"85","stim/objects/HouseObjects/glass2.png",184,66,184,0.9,"stim/14.jpeg",1,4,3,NA,"HouseObjects",2,2,"right","right",0.757999897,1,1,0,1,NA,NA,NA,NA,NA,NA,NA,NA,NA,NA,NA,NA,NA,NA,NA,NA,NA,NA,NA,NA,NA,NA,NA,NA
"149","stim/objects/Instruments/electricguitar.png",185,66,185,0.5,"stim/33.jpeg",3,3,1,NA,"Instruments",1,3,"left","right",0.819999933,0,0,0,1,NA,NA,NA,NA,NA,NA,NA,NA,NA,NA,NA,NA,NA,NA,NA,NA,NA,NA,NA,NA,NA,NA,NA,NA
"180","stim/objects/Instruments/frenchhorn2.png",186,66,186,0.1,"stim/12.jpeg",1,2,3,NA,"Instruments",1,3,"left","right",0.489000082,0,0,0,1,NA,NA,NA,NA,NA,NA,NA,NA,NA,NA,NA,NA,NA,NA,NA,NA,NA,NA,NA,NA,NA,NA,NA,NA
"16","stim/objects/HouseObjects/cushion2.png",187,66,187,0.3,"stim/62.jpeg",6,2,2,NA,"HouseObjects",2,4,"right","left",0.484999895,0,0,0,1,NA,NA,NA,NA,NA,NA,NA,NA,NA,NA,NA,NA,NA,NA,NA,NA,NA,NA,NA,NA,NA,NA,NA,NA
"190","stim/objects/Instruments/grandpiano.png",188,66,188,0.5,"stim/44.jpeg",4,4,1,NA,"Instruments",1,3,"left","right",0.437999725,0,0,0,1,NA,NA,NA,NA,NA,NA,NA,NA,NA,NA,NA,NA,NA,NA,NA,NA,NA,NA,NA,NA,NA,NA,NA,NA
"219","stim/objects/Instruments/harp.png",189,66,189,0.3,"stim/53.jpeg",5,3,2,NA,"Instruments",1,1,"left","right",0.53399992,0,0,0,1,NA,NA,NA,NA,NA,NA,NA,NA,NA,NA,NA,NA,NA,NA,NA,NA,NA,NA,NA,NA,NA,NA,NA,NA
"167","stim/objects/Instruments/flute2.png",190,66,190,0.7,"stim/64.jpeg",6,4,2,NA,"Instruments",1,4,"left","left",0.563999891,1,1,0,1,NA,NA,NA,NA,NA,NA,NA,NA,NA,NA,NA,NA,NA,NA,NA,NA,NA,NA,NA,NA,NA,NA,NA,NA
"71","stim/objects/HouseObjects/garbagebin2.png",191,66,191,0.9,"stim/13.jpeg",1,3,3,NA,"HouseObjects",2,3,"right","right",0.423999786,1,1,0,1,NA,NA,NA,NA,NA,NA,NA,NA,NA,NA,NA,NA,NA,NA,NA,NA,NA,NA,NA,NA,NA,NA,NA,NA
"56","stim/objects/HouseObjects/flyswatter2.png",192,66,192,0.9,"stim/12.jpeg",1,2,3,NA,"HouseObjects",2,4,"right","left",0.498000145,0,0,0,1,NA,NA,NA,NA,NA,NA,NA,NA,NA,NA,NA,NA,NA,NA,NA,NA,NA,NA,NA,NA,NA,NA,NA,NA
"57","stim/objects/HouseObjects/flyswatter2.png",193,66,193,0.9,"stim/12.jpeg",1,2,3,NA,"HouseObjects",2,2,"right","right",0.450999975,1,1,0,1,NA,NA,NA,NA,NA,NA,NA,NA,NA,NA,NA,NA,NA,NA,NA,NA,NA,NA,NA,NA,NA,NA,NA,NA
"144","stim/objects/Instruments/electricdrumset2.png",194,66,194,0.7,"stim/62.jpeg",6,2,2,NA,"Instruments",1,3,"left","left",0.640999794,1,1,0,1,NA,NA,NA,NA,NA,NA,NA,NA,NA,NA,NA,NA,NA,NA,NA,NA,NA,NA,NA,NA,NA,NA,NA,NA
"58","stim/objects/HouseObjects/flyswatter2.png",195,66,195,0.9,"stim/12.jpeg",1,2,3,NA,"HouseObjects",2,1,"right","right",0.548000097,1,1,0,1,NA,NA,NA,NA,NA,NA,NA,NA,NA,NA,NA,NA,NA,NA,NA,NA,NA,NA,NA,NA,NA,NA,NA,NA
"172","stim/objects/Instruments/flutetrans.png",196,66,196,0.5,"stim/41.jpeg",4,1,1,NA,"Instruments",1,2,"left","left",0.739999771,1,1,0,1,NA,NA,NA,NA,NA,NA,NA,NA,NA,NA,NA,NA,NA,NA,NA,NA,NA,NA,NA,NA,NA,NA,NA,NA
"240","stim/objects/Instruments/hihat2.png",197,66,197,0.9,"stim/24.jpeg",2,4,3,NA,"Instruments",1,4,"left","left",0.500999928,1,1,0,1,NA,NA,NA,NA,NA,NA,NA,NA,NA,NA,NA,NA,NA,NA,NA,NA,NA,NA,NA,NA,NA,NA,NA,NA
"72","stim/objects/HouseObjects/garbagebin2.png",198,66,198,0.9,"stim/13.jpeg",1,3,3,NA,"HouseObjects",2,1,"right","right",0.588999987,1,1,0,1,NA,NA,NA,NA,NA,NA,NA,NA,NA,NA,NA,NA,NA,NA,NA,NA,NA,NA,NA,NA,NA,NA,NA,NA
"131","stim/objects/Instruments/drums2.png",199,66,199,0.7,"stim/61.jpeg",6,1,2,NA,"Instruments",1,1,"left","right",0.683999777,0,0,0,1,NA,NA,NA,NA,NA,NA,NA,NA,NA,NA,NA,NA,NA,NA,NA,NA,NA,NA,NA,NA,NA,NA,NA,NA
"194","stim/objects/Instruments/guitarcase.png",200,66,200,0.3,"stim/51.jpeg",5,1,2,NA,"Instruments",1,1,"left","right",0.599999905,0,0,0,1,NA,NA,NA,NA,NA,NA,NA,NA,NA,NA,NA,NA,NA,NA,NA,NA,NA,NA,NA,NA,NA,NA,NA,NA
"137","stim/objects/Instruments/electricdrumset.png",201,66,201,0.5,"stim/32.jpeg",3,2,1,NA,"Instruments",1,4,"left","right",0.61500001,0,0,0,1,NA,NA,NA,NA,NA,NA,NA,NA,NA,NA,NA,NA,NA,NA,NA,NA,NA,NA,NA,NA,NA,NA,NA,NA
"29","stim/objects/HouseObjects/doormat.png",202,66,202,0.5,"stim/34.jpeg",3,4,1,NA,"HouseObjects",2,1,"right","right",0.454999924,1,1,0,1,NA,NA,NA,NA,NA,NA,NA,NA,NA,NA,NA,NA,NA,NA,NA,NA,NA,NA,NA,NA,NA,NA,NA,NA
"191","stim/objects/Instruments/grandpiano.png",203,66,203,0.5,"stim/44.jpeg",4,4,1,NA,"Instruments",1,4,"left","right",0.634999752,0,0,0,1,NA,NA,NA,NA,NA,NA,NA,NA,NA,NA,NA,NA,NA,NA,NA,NA,NA,NA,NA,NA,NA,NA,NA,NA
"231","stim/objects/Instruments/hihat.png",204,66,204,0.3,"stim/54.jpeg",5,4,2,NA,"Instruments",1,2,"left","right",0.603999853,0,0,0,1,NA,NA,NA,NA,NA,NA,NA,NA,NA,NA,NA,NA,NA,NA,NA,NA,NA,NA,NA,NA,NA,NA,NA,NA
"207","stim/objects/Instruments/harmonica.png",205,66,205,0.3,"stim/52.jpeg",5,2,2,NA,"Instruments",1,1,"left","right",0.518999815,0,0,0,1,NA,NA,NA,NA,NA,NA,NA,NA,NA,NA,NA,NA,NA,NA,NA,NA,NA,NA,NA,NA,NA,NA,NA,NA
"42","stim/objects/HouseObjects/dustpan2.png",206,66,206,0.9,"stim/11.jpeg",1,1,3,NA,"HouseObjects",2,1,"right","right",0.503999949,1,1,0,1,NA,NA,NA,NA,NA,NA,NA,NA,NA,NA,NA,NA,NA,NA,NA,NA,NA,NA,NA,NA,NA,NA,NA,NA
"86","stim/objects/HouseObjects/glass2.png",207,66,207,0.9,"stim/14.jpeg",1,4,3,NA,"HouseObjects",2,4,"right","right",0.605999947,1,1,0,1,NA,NA,NA,NA,NA,NA,NA,NA,NA,NA,NA,NA,NA,NA,NA,NA,NA,NA,NA,NA,NA,NA,NA,NA
"73","stim/objects/HouseObjects/garbagebin2.png",208,66,208,0.9,"stim/13.jpeg",1,3,3,NA,"HouseObjects",2,2,"right","right",0.643999815,1,1,0,1,NA,NA,NA,NA,NA,NA,NA,NA,NA,NA,NA,NA,NA,NA,NA,NA,NA,NA,NA,NA,NA,NA,NA,NA
"203","stim/objects/Instruments/guitarcase2.png",209,66,209,0.9,"stim/21.jpeg",2,1,3,NA,"Instruments",1,1,"left","left",0.66899991,1,1,0,1,NA,NA,NA,NA,NA,NA,NA,NA,NA,NA,NA,NA,NA,NA,NA,NA,NA,NA,NA,NA,NA,NA,NA,NA
"228","stim/objects/Instruments/harp2.png",210,66,210,0.9,"stim/23.jpeg",2,3,3,NA,"Instruments",1,2,"left","left",0.547999859,1,1,0,1,NA,NA,NA,NA,NA,NA,NA,NA,NA,NA,NA,NA,NA,NA,NA,NA,NA,NA,NA,NA,NA,NA,NA,NA
"37","stim/objects/HouseObjects/dustpan.png",211,66,211,0.5,"stim/41.jpeg",4,1,1,NA,"HouseObjects",2,4,"right","left",0.520999908,0,0,0,1,NA,NA,NA,NA,NA,NA,NA,NA,NA,NA,NA,NA,NA,NA,NA,NA,NA,NA,NA,NA,NA,NA,NA,NA
"43","stim/objects/HouseObjects/dustpan2.png",212,66,212,0.9,"stim/11.jpeg",1,1,3,NA,"HouseObjects",2,4,"right","right",0.698999882,1,1,0,1,NA,NA,NA,NA,NA,NA,NA,NA,NA,NA,NA,NA,NA,NA,NA,NA,NA,NA,NA,NA,NA,NA,NA,NA
"119","stim/objects/HouseObjects/handvacuum.png",213,66,213,0.7,"stim/54.jpeg",5,4,2,NA,"HouseObjects",2,4,"right","right",0.719000101,1,1,0,1,NA,NA,NA,NA,NA,NA,NA,NA,NA,NA,NA,NA,NA,NA,NA,NA,NA,NA,NA,NA,NA,NA,NA,NA
"13","stim/objects/HouseObjects/cushion.png",214,66,214,0.5,"stim/32.jpeg",3,2,1,NA,"HouseObjects",2,3,"right","left",0.684999943,0,0,0,1,NA,NA,NA,NA,NA,NA,NA,NA,NA,NA,NA,NA,NA,NA,NA,NA,NA,NA,NA,NA,NA,NA,NA,NA
"101","stim/objects/HouseObjects/hairdryer.png",215,66,215,0.7,"stim/52.jpeg",5,2,2,NA,"HouseObjects",2,3,"right","right",0.603999853,1,1,0,1,NA,NA,NA,NA,NA,NA,NA,NA,NA,NA,NA,NA,NA,NA,NA,NA,NA,NA,NA,NA,NA,NA,NA,NA
"102","stim/objects/HouseObjects/hairdryer.png",216,66,216,0.7,"stim/52.jpeg",5,2,2,NA,"HouseObjects",2,3,"right","right",0.666999817,1,1,0,1,NA,NA,NA,NA,NA,NA,NA,NA,NA,NA,NA,NA,NA,NA,NA,NA,NA,NA,NA,NA,NA,NA,NA,NA
"103","stim/objects/HouseObjects/hairdryer.png",217,66,217,0.7,"stim/52.jpeg",5,2,2,NA,"HouseObjects",2,2,"right","right",0.488999844,1,1,0,1,NA,NA,NA,NA,NA,NA,NA,NA,NA,NA,NA,NA,NA,NA,NA,NA,NA,NA,NA,NA,NA,NA,NA,NA
"214","stim/objects/Instruments/harmonica2.png",218,66,218,0.9,"stim/22.jpeg",2,2,3,NA,"Instruments",1,4,"left","left",0.471999884,1,1,0,1,NA,NA,NA,NA,NA,NA,NA,NA,NA,NA,NA,NA,NA,NA,NA,NA,NA,NA,NA,NA,NA,NA,NA,NA
"168","stim/objects/Instruments/flute2.png",219,66,219,0.7,"stim/64.jpeg",6,4,2,NA,"Instruments",1,3,"left","right",0.585999966,0,0,0,1,NA,NA,NA,NA,NA,NA,NA,NA,NA,NA,NA,NA,NA,NA,NA,NA,NA,NA,NA,NA,NA,NA,NA,NA
"93","stim/objects/HouseObjects/glassmop.png",220,66,220,0.7,"stim/51.jpeg",5,1,2,NA,"HouseObjects",2,1,"right","right",0.507999897,1,1,0,1,NA,NA,NA,NA,NA,NA,NA,NA,NA,NA,NA,NA,NA,NA,NA,NA,NA,NA,NA,NA,NA,NA,NA,NA
"59","stim/objects/HouseObjects/flyswatter2.png",221,66,221,0.9,"stim/12.jpeg",1,2,3,NA,"HouseObjects",2,2,"right","right",0.617000103,1,1,0,1,NA,NA,NA,NA,NA,NA,NA,NA,NA,NA,NA,NA,NA,NA,NA,NA,NA,NA,NA,NA,NA,NA,NA,NA
"60","stim/objects/HouseObjects/flyswatter2.png",222,66,222,0.9,"stim/12.jpeg",1,2,3,NA,"HouseObjects",2,3,"right","right",0.573999882,1,1,0,1,NA,NA,NA,NA,NA,NA,NA,NA,NA,NA,NA,NA,NA,NA,NA,NA,NA,NA,NA,NA,NA,NA,NA,NA
"204","stim/objects/Instruments/guitarcase2.png",223,66,223,0.9,"stim/21.jpeg",2,1,3,NA,"Instruments",1,2,"left","left",0.519000053,1,1,0,1,NA,NA,NA,NA,NA,NA,NA,NA,NA,NA,NA,NA,NA,NA,NA,NA,NA,NA,NA,NA,NA,NA,NA,NA
"44","stim/objects/HouseObjects/dustpan2.png",224,66,224,0.9,"stim/11.jpeg",1,1,3,NA,"HouseObjects",2,2,"right","left",0.55099988,0,0,0,1,NA,NA,NA,NA,NA,NA,NA,NA,NA,NA,NA,NA,NA,NA,NA,NA,NA,NA,NA,NA,NA,NA,NA,NA
"173","stim/objects/Instruments/flutetrans.png",225,66,225,0.5,"stim/41.jpeg",4,1,1,NA,"Instruments",1,1,"left","right",0.771999836,0,0,0,1,NA,NA,NA,NA,NA,NA,NA,NA,NA,NA,NA,NA,NA,NA,NA,NA,NA,NA,NA,NA,NA,NA,NA,NA
"179","stim/objects/Instruments/frenchhorn.png",226,66,226,0.5,"stim/42.jpeg",4,2,1,NA,"Instruments",1,2,"left","",NA,0,0,0,1,NA,NA,NA,NA,NA,NA,NA,NA,NA,NA,NA,NA,NA,NA,NA,NA,NA,NA,NA,NA,NA,NA,NA,NA
"45","stim/objects/HouseObjects/dustpan2.png",227,66,227,0.9,"stim/11.jpeg",1,1,3,NA,"HouseObjects",2,4,"right","left",0.503999949,0,0,0,1,NA,NA,NA,NA,NA,NA,NA,NA,NA,NA,NA,NA,NA,NA,NA,NA,NA,NA,NA,NA,NA,NA,NA,NA
"120","stim/objects/HouseObjects/handvacuum2.png",228,66,228,0.1,"stim/24.jpeg",2,4,3,NA,"HouseObjects",2,3,"right","left",0.568999767,0,0,0,1,NA,NA,NA,NA,NA,NA,NA,NA,NA,NA,NA,NA,NA,NA,NA,NA,NA,NA,NA,NA,NA,NA,NA,NA
"8","stim/objects/HouseObjects/coffee2.png",229,66,229,0.3,"stim/61.jpeg",6,1,2,NA,"HouseObjects",2,2,"right","left",0.717999935,0,0,0,1,NA,NA,NA,NA,NA,NA,NA,NA,NA,NA,NA,NA,NA,NA,NA,NA,NA,NA,NA,NA,NA,NA,NA,NA
"87","stim/objects/HouseObjects/glass2.png",230,66,230,0.9,"stim/14.jpeg",1,4,3,NA,"HouseObjects",2,2,"right","right",0.652999878,1,1,0,1,NA,NA,NA,NA,NA,NA,NA,NA,NA,NA,NA,NA,NA,NA,NA,NA,NA,NA,NA,NA,NA,NA,NA,NA
"215","stim/objects/Instruments/harmonica2.png",231,66,231,0.9,"stim/22.jpeg",2,2,3,NA,"Instruments",1,1,"left","left",0.55099988,1,1,0,1,NA,NA,NA,NA,NA,NA,NA,NA,NA,NA,NA,NA,NA,NA,NA,NA,NA,NA,NA,NA,NA,NA,NA,NA
"216","stim/objects/Instruments/harmonica2.png",232,66,232,0.9,"stim/22.jpeg",2,2,3,NA,"Instruments",1,2,"left","left",0.467999935,1,1,0,1,NA,NA,NA,NA,NA,NA,NA,NA,NA,NA,NA,NA,NA,NA,NA,NA,NA,NA,NA,NA,NA,NA,NA,NA
"46","stim/objects/HouseObjects/dustpan2.png",233,66,233,0.9,"stim/11.jpeg",1,1,3,NA,"HouseObjects",2,3,"right","right",0.519999981,1,1,0,1,NA,NA,NA,NA,NA,NA,NA,NA,NA,NA,NA,NA,NA,NA,NA,NA,NA,NA,NA,NA,NA,NA,NA,NA
"132","stim/objects/Instruments/drums2.png",234,66,234,0.7,"stim/61.jpeg",6,1,2,NA,"Instruments",1,4,"left","left",0.736000061,1,1,0,1,NA,NA,NA,NA,NA,NA,NA,NA,NA,NA,NA,NA,NA,NA,NA,NA,NA,NA,NA,NA,NA,NA,NA,NA
"74","stim/objects/HouseObjects/garbagebin2.png",235,66,235,0.9,"stim/13.jpeg",1,3,3,NA,"HouseObjects",2,2,"right","right",0.521999836,1,1,0,1,NA,NA,NA,NA,NA,NA,NA,NA,NA,NA,NA,NA,NA,NA,NA,NA,NA,NA,NA,NA,NA,NA,NA,NA
"94","stim/objects/HouseObjects/glassmop.png",236,66,236,0.7,"stim/51.jpeg",5,1,2,NA,"HouseObjects",2,3,"right","right",0.650999784,1,1,0,1,NA,NA,NA,NA,NA,NA,NA,NA,NA,NA,NA,NA,NA,NA,NA,NA,NA,NA,NA,NA,NA,NA,NA,NA
"195","stim/objects/Instruments/guitarcase.png",237,66,237,0.3,"stim/51.jpeg",5,1,2,NA,"Instruments",1,3,"left","right",0.359999895,0,0,0,1,NA,NA,NA,NA,NA,NA,NA,NA,NA,NA,NA,NA,NA,NA,NA,NA,NA,NA,NA,NA,NA,NA,NA,NA
"88","stim/objects/HouseObjects/glass2.png",238,66,238,0.9,"stim/14.jpeg",1,4,3,NA,"HouseObjects",2,3,"right","right",0.634999752,1,1,0,1,NA,NA,NA,NA,NA,NA,NA,NA,NA,NA,NA,NA,NA,NA,NA,NA,NA,NA,NA,NA,NA,NA,NA,NA
"32","stim/objects/HouseObjects/doormat2.png",239,66,239,0.3,"stim/64.jpeg",6,4,2,NA,"HouseObjects",2,2,"right","left",0.566999912,0,0,0,1,NA,NA,NA,NA,NA,NA,NA,NA,NA,NA,NA,NA,NA,NA,NA,NA,NA,NA,NA,NA,NA,NA,NA,NA
"95","stim/objects/HouseObjects/glassmop.png",240,66,240,0.7,"stim/51.jpeg",5,1,2,NA,"HouseObjects",2,3,"right","right",0.463999987,1,1,0,1,NA,NA,NA,NA,NA,NA,NA,NA,NA,NA,NA,NA,NA,NA,NA,NA,NA,NA,NA,NA,NA,NA,NA,NA
"490","stim/objects/Instruments/musicsheet3.png",248,66,241,0.9,"stim/23.jpeg",2,3,3,2,"Instruments",1,1,"left","left",0.78399992,1,1,1,0,NA,NA,NA,NA,NA,NA,NA,NA,NA,NA,NA,NA,NA,NA,NA,NA,NA,NA,NA,NA,NA,NA,NA,NA
"291","stim/objects/HouseObjects/knife3.png",249,66,242,0.9,"stim/14.jpeg",1,4,3,2,"HouseObjects",2,3,"right","right",0.621000051,1,1,1,0,NA,NA,NA,NA,NA,NA,NA,NA,NA,NA,NA,NA,NA,NA,NA,NA,NA,NA,NA,NA,NA,NA,NA,NA
"524","stim/objects/Instruments/oboe3.png",250,66,243,0.9,"stim/22.jpeg",2,2,3,2,"Instruments",1,4,"left","left",0.528999805,1,1,1,0,NA,NA,NA,NA,NA,NA,NA,NA,NA,NA,NA,NA,NA,NA,NA,NA,NA,NA,NA,NA,NA,NA,NA,NA
"473","stim/objects/Instruments/metronome3.png",251,66,244,0.9,"stim/23.jpeg",2,3,3,2,"Instruments",1,4,"left","left",0.457000017,1,1,1,0,NA,NA,NA,NA,NA,NA,NA,NA,NA,NA,NA,NA,NA,NA,NA,NA,NA,NA,NA,NA,NA,NA,NA,NA
"292","stim/objects/HouseObjects/knife3.png",252,66,245,0.9,"stim/12.jpeg",1,2,3,2,"HouseObjects",2,2,"right","right",0.463999987,1,1,1,0,NA,NA,NA,NA,NA,NA,NA,NA,NA,NA,NA,NA,NA,NA,NA,NA,NA,NA,NA,NA,NA,NA,NA,NA
"418","stim/objects/Instruments/bassdrum3.png",253,66,246,0.5,"stim/32.jpeg",3,2,1,2,"Instruments",1,1,"left","right",0.595999956,0,0,1,0,NA,NA,NA,NA,NA,NA,NA,NA,NA,NA,NA,NA,NA,NA,NA,NA,NA,NA,NA,NA,NA,NA,NA,NA
"253","stim/objects/HouseObjects/bleachbottle3.png",254,66,247,0.5,"stim/31.jpeg",3,1,1,2,"HouseObjects",2,4,"right","right",0.636999846,1,1,1,0,NA,NA,NA,NA,NA,NA,NA,NA,NA,NA,NA,NA,NA,NA,NA,NA,NA,NA,NA,NA,NA,NA,NA,NA
"247","stim/objects/HouseObjects/barbecuelighter3.png",255,66,248,0.5,"stim/32.jpeg",3,2,1,2,"HouseObjects",2,3,"right","right",0.453000069,1,1,1,0,NA,NA,NA,NA,NA,NA,NA,NA,NA,NA,NA,NA,NA,NA,NA,NA,NA,NA,NA,NA,NA,NA,NA,NA
"440","stim/objects/Instruments/doublebass3.png",256,66,249,0.7,"stim/63.jpeg",6,3,2,2,"Instruments",1,2,"left","left",0.499000072,1,1,1,0,NA,NA,NA,NA,NA,NA,NA,NA,NA,NA,NA,NA,NA,NA,NA,NA,NA,NA,NA,NA,NA,NA,NA,NA
"433","stim/objects/Instruments/cornet3.png",257,66,250,0.5,"stim/44.jpeg",4,4,1,2,"Instruments",1,4,"left","right",0.585999966,0,0,1,0,NA,NA,NA,NA,NA,NA,NA,NA,NA,NA,NA,NA,NA,NA,NA,NA,NA,NA,NA,NA,NA,NA,NA,NA
"474","stim/objects/Instruments/metronome3.png",258,66,251,0.9,"stim/22.jpeg",2,2,3,2,"Instruments",1,4,"left","left",0.539999962,1,1,1,0,NA,NA,NA,NA,NA,NA,NA,NA,NA,NA,NA,NA,NA,NA,NA,NA,NA,NA,NA,NA,NA,NA,NA,NA
"308","stim/objects/HouseObjects/lintroller3.png",259,66,252,0.9,"stim/11.jpeg",1,1,3,2,"HouseObjects",2,4,"right","right",0.580999851,1,1,1,0,NA,NA,NA,NA,NA,NA,NA,NA,NA,NA,NA,NA,NA,NA,NA,NA,NA,NA,NA,NA,NA,NA,NA,NA
"456","stim/objects/Instruments/marimba3.png",260,66,253,0.9,"stim/21.jpeg",2,1,3,2,"Instruments",1,3,"left","right",0.555999994,0,0,1,0,NA,NA,NA,NA,NA,NA,NA,NA,NA,NA,NA,NA,NA,NA,NA,NA,NA,NA,NA,NA,NA,NA,NA,NA
"309","stim/objects/HouseObjects/lintroller3.png",261,66,254,0.9,"stim/11.jpeg",1,1,3,2,"HouseObjects",2,1,"right","right",0.546999931,1,1,1,0,NA,NA,NA,NA,NA,NA,NA,NA,NA,NA,NA,NA,NA,NA,NA,NA,NA,NA,NA,NA,NA,NA,NA,NA
"448","stim/objects/Instruments/laud3.png",262,66,255,0.7,"stim/64.jpeg",6,4,2,2,"Instruments",1,3,"left","left",0.721999884,1,1,1,0,NA,NA,NA,NA,NA,NA,NA,NA,NA,NA,NA,NA,NA,NA,NA,NA,NA,NA,NA,NA,NA,NA,NA,NA
"293","stim/objects/HouseObjects/knife3.png",263,66,256,0.9,"stim/11.jpeg",1,1,3,2,"HouseObjects",2,4,"right","right",0.530999899,1,1,1,0,NA,NA,NA,NA,NA,NA,NA,NA,NA,NA,NA,NA,NA,NA,NA,NA,NA,NA,NA,NA,NA,NA,NA,NA
"491","stim/objects/Instruments/musicsheet3.png",264,66,257,0.9,"stim/24.jpeg",2,4,3,2,"Instruments",1,2,"left","left",0.489999771,1,1,1,0,NA,NA,NA,NA,NA,NA,NA,NA,NA,NA,NA,NA,NA,NA,NA,NA,NA,NA,NA,NA,NA,NA,NA,NA
"475","stim/objects/Instruments/metronome3.png",265,66,258,0.9,"stim/24.jpeg",2,4,3,2,"Instruments",1,3,"left","left",0.417000055,1,1,1,0,NA,NA,NA,NA,NA,NA,NA,NA,NA,NA,NA,NA,NA,NA,NA,NA,NA,NA,NA,NA,NA,NA,NA,NA
"294","stim/objects/HouseObjects/knife3.png",266,66,259,0.9,"stim/13.jpeg",1,3,3,2,"HouseObjects",2,2,"right","right",0.438999891,1,1,1,0,NA,NA,NA,NA,NA,NA,NA,NA,NA,NA,NA,NA,NA,NA,NA,NA,NA,NA,NA,NA,NA,NA,NA,NA
"342","stim/objects/HouseObjects/pan3.png",267,66,260,0.9,"stim/13.jpeg",1,3,3,2,"HouseObjects",2,4,"right","right",0.468999863,1,1,1,0,NA,NA,NA,NA,NA,NA,NA,NA,NA,NA,NA,NA,NA,NA,NA,NA,NA,NA,NA,NA,NA,NA,NA,NA
"444","stim/objects/Instruments/keyboard3.png",268,66,261,0.7,"stim/63.jpeg",6,3,2,2,"Instruments",1,2,"left","left",0.537999868,1,1,1,0,NA,NA,NA,NA,NA,NA,NA,NA,NA,NA,NA,NA,NA,NA,NA,NA,NA,NA,NA,NA,NA,NA,NA,NA
"255","stim/objects/HouseObjects/bleachbottle4.png",269,66,262,0.7,"stim/53.jpeg",5,3,2,1,"HouseObjects",2,1,"right","right",0.451999903,1,1,1,0,71,66,1,0.7,2,"stim/53.jpeg",5,3,"stim/53.jpeg",1,"right",1.118000031,2,2,2.690999985,3,2.195999861,71,0,0,NA,0,NA,0
"268","stim/objects/HouseObjects/clock3.png",270,66,263,0.5,"stim/43.jpeg",4,3,1,2,"HouseObjects",2,1,"right","right",0.582999945,1,1,1,0,NA,NA,NA,NA,NA,NA,NA,NA,NA,NA,NA,NA,NA,NA,NA,NA,NA,NA,NA,NA,NA,NA,NA,NA
"343","stim/objects/HouseObjects/pan3.png",271,66,264,0.9,"stim/13.jpeg",1,3,3,2,"HouseObjects",2,3,"right","right",0.621999979,1,1,1,0,NA,NA,NA,NA,NA,NA,NA,NA,NA,NA,NA,NA,NA,NA,NA,NA,NA,NA,NA,NA,NA,NA,NA,NA
"310","stim/objects/HouseObjects/lintroller3.png",272,66,265,0.9,"stim/14.jpeg",1,4,3,2,"HouseObjects",2,1,"right","right",0.466999769,1,1,1,0,NA,NA,NA,NA,NA,NA,NA,NA,NA,NA,NA,NA,NA,NA,NA,NA,NA,NA,NA,NA,NA,NA,NA,NA
"414","stim/objects/Instruments/balalaika4.png",273,66,266,0.3,"stim/54.jpeg",5,4,2,1,"Instruments",1,4,"left","right",0.625999928,0,0,1,0,152,66,1,0.3,1,"stim/54.jpeg",5,4,"stim/54.jpeg",4,"right",3.974999905,1,2,1.051000118,1,2.179999828,152,0,0,NA,0,NA,0
"525","stim/objects/Instruments/oboe3.png",274,66,267,0.9,"stim/23.jpeg",2,3,3,2,"Instruments",1,3,"left","left",0.415999889,1,1,1,0,NA,NA,NA,NA,NA,NA,NA,NA,NA,NA,NA,NA,NA,NA,NA,NA,NA,NA,NA,NA,NA,NA,NA,NA
"526","stim/objects/Instruments/oboe3.png",275,66,268,0.9,"stim/24.jpeg",2,4,3,2,"Instruments",1,1,"left","left",0.502999783,1,1,1,0,NA,NA,NA,NA,NA,NA,NA,NA,NA,NA,NA,NA,NA,NA,NA,NA,NA,NA,NA,NA,NA,NA,NA,NA
"527","stim/objects/Instruments/oboe3.png",276,66,269,0.9,"stim/23.jpeg",2,3,3,2,"Instruments",1,3,"left","left",0.496999979,1,1,1,0,NA,NA,NA,NA,NA,NA,NA,NA,NA,NA,NA,NA,NA,NA,NA,NA,NA,NA,NA,NA,NA,NA,NA,NA
"457","stim/objects/Instruments/marimba3.png",277,66,270,0.9,"stim/23.jpeg",2,3,3,2,"Instruments",1,4,"left","left",0.472999811,1,1,1,0,NA,NA,NA,NA,NA,NA,NA,NA,NA,NA,NA,NA,NA,NA,NA,NA,NA,NA,NA,NA,NA,NA,NA,NA
"421","stim/objects/Instruments/bassguitar3.png",278,66,271,0.5,"stim/43.jpeg",4,3,1,2,"Instruments",1,4,"left","right",0.455999851,0,0,1,0,NA,NA,NA,NA,NA,NA,NA,NA,NA,NA,NA,NA,NA,NA,NA,NA,NA,NA,NA,NA,NA,NA,NA,NA
"562","stim/objects/Instruments/trumpet4.png",279,66,272,0.9,"stim/22.jpeg",2,2,3,1,"Instruments",1,4,"left","left",0.526999712,1,1,1,0,101,66,1,0.9,1,"stim/22.jpeg",2,2,"stim/22.jpeg",4,"left",3.183000088,2,3,1.488000154,1,0.337000132,101,1,0,0,0,0,0
"402","stim/objects/HouseObjects/vacuumcleaner3.png",280,66,273,0.7,"stim/51.jpeg",5,1,2,1,"HouseObjects",2,1,"right","right",0.470000029,1,1,1,0,84,66,1,0.7,2,"stim/51.jpeg",5,1,"stim/51.jpeg",1,"left",1.582999945,3,1,2.001999855,3,0.926000118,84,1,1,1,0,0,0
"256","stim/objects/HouseObjects/blender3.png",281,66,274,0.5,"stim/43.jpeg",4,3,1,2,"HouseObjects",2,2,"right","right",0.631999969,1,1,1,0,NA,NA,NA,NA,NA,NA,NA,NA,NA,NA,NA,NA,NA,NA,NA,NA,NA,NA,NA,NA,NA,NA,NA,NA
"508","stim/objects/Instruments/musicstand3.png",282,66,275,0.9,"stim/24.jpeg",2,4,3,2,"Instruments",1,2,"left","left",0.432999849,1,1,1,0,NA,NA,NA,NA,NA,NA,NA,NA,NA,NA,NA,NA,NA,NA,NA,NA,NA,NA,NA,NA,NA,NA,NA,NA
"435","stim/objects/Instruments/cornet4.png",283,66,276,0.7,"stim/64.jpeg",6,4,2,1,"Instruments",1,1,"left","right",0.482999802,0,0,1,0,30,66,1,0.7,1,"stim/64.jpeg",6,4,"stim/64.jpeg",1,"left",1.157999992,3,3,3.285000086,2,2.930999994,30,1,0,0,0,0,0
"492","stim/objects/Instruments/musicsheet3.png",284,66,277,0.9,"stim/22.jpeg",2,2,3,2,"Instruments",1,3,"left","left",0.633999825,1,1,1,0,NA,NA,NA,NA,NA,NA,NA,NA,NA,NA,NA,NA,NA,NA,NA,NA,NA,NA,NA,NA,NA,NA,NA,NA
"258","stim/objects/HouseObjects/blender4.png",285,66,278,0.3,"stim/62.jpeg",6,2,2,1,"HouseObjects",2,1,"right","left",0.620999813,0,0,1,0,59,66,1,0.3,2,"stim/62.jpeg",6,2,"stim/62.jpeg",1,"left",0.902999878,4,1,4.995999813,3,1.023999929,59,1,0,0,0,0,0
"509","stim/objects/Instruments/musicstand3.png",286,66,279,0.9,"stim/21.jpeg",2,1,3,2,"Instruments",1,3,"left","left",0.552000046,1,1,1,0,NA,NA,NA,NA,NA,NA,NA,NA,NA,NA,NA,NA,NA,NA,NA,NA,NA,NA,NA,NA,NA,NA,NA,NA
"415","stim/objects/Instruments/banjo3.png",287,66,280,0.5,"stim/31.jpeg",3,1,1,2,"Instruments",1,1,"left","right",0.467999935,0,0,1,0,NA,NA,NA,NA,NA,NA,NA,NA,NA,NA,NA,NA,NA,NA,NA,NA,NA,NA,NA,NA,NA,NA,NA,NA
"311","stim/objects/HouseObjects/lintroller3.png",288,66,281,0.9,"stim/13.jpeg",1,3,3,2,"HouseObjects",2,4,"right","right",0.684999943,1,1,1,0,NA,NA,NA,NA,NA,NA,NA,NA,NA,NA,NA,NA,NA,NA,NA,NA,NA,NA,NA,NA,NA,NA,NA,NA
"424","stim/objects/Instruments/cello3.png",289,66,282,0.5,"stim/41.jpeg",4,1,1,2,"Instruments",1,4,"left","right",0.786999941,0,0,1,0,NA,NA,NA,NA,NA,NA,NA,NA,NA,NA,NA,NA,NA,NA,NA,NA,NA,NA,NA,NA,NA,NA,NA,NA
"478","stim/objects/Instruments/metronome3.png",290,66,283,0.9,"stim/24.jpeg",2,4,3,2,"Instruments",1,1,"left","left",0.569999933,1,1,1,0,NA,NA,NA,NA,NA,NA,NA,NA,NA,NA,NA,NA,NA,NA,NA,NA,NA,NA,NA,NA,NA,NA,NA,NA
"559","stim/objects/Instruments/trombone3.png",291,66,284,0.5,"stim/41.jpeg",4,1,1,1,"Instruments",1,3,"left","left",0.635999918,1,1,1,0,82,66,1,0.5,2,"stim/41.jpeg",4,1,"stim/41.jpeg",3,"right",19.05799985,2,3,7.233999968,2,1.036999941,82,0,0,NA,0,NA,0
"312","stim/objects/HouseObjects/lintroller3.png",292,66,285,0.9,"stim/13.jpeg",1,3,3,2,"HouseObjects",2,3,"right","right",0.482999802,1,1,1,0,NA,NA,NA,NA,NA,NA,NA,NA,NA,NA,NA,NA,NA,NA,NA,NA,NA,NA,NA,NA,NA,NA,NA,NA
"295","stim/objects/HouseObjects/knife3.png",293,66,286,0.9,"stim/13.jpeg",1,3,3,2,"HouseObjects",2,1,"right","right",0.474999905,1,1,1,0,NA,NA,NA,NA,NA,NA,NA,NA,NA,NA,NA,NA,NA,NA,NA,NA,NA,NA,NA,NA,NA,NA,NA,NA
"408","stim/objects/Instruments/accordion4.png",294,66,287,0.3,"stim/52.jpeg",5,2,2,1,"Instruments",1,1,"left","right",0.587999821,0,0,1,0,111,66,1,0.3,1,"stim/52.jpeg",5,2,"stim/52.jpeg",1,"right",3.933000088,1,1,1.104000092,4,1.220999956,111,0,0,NA,0,NA,0
"567","stim/objects/Instruments/vuvuzela3.png",295,66,288,0.3,"stim/54.jpeg",5,4,2,1,"Instruments",1,4,"left","right",0.620000124,0,0,1,0,186,66,1,0.3,1,"stim/54.jpeg",5,4,"stim/54.jpeg",4,"left",1.154000044,4,4,0.782000065,4,0.943000078,186,1,1,1,1,1,0
"479","stim/objects/Instruments/metronome3.png",296,66,289,0.9,"stim/21.jpeg",2,1,3,2,"Instruments",1,2,"left","left",0.556999922,1,1,1,0,NA,NA,NA,NA,NA,NA,NA,NA,NA,NA,NA,NA,NA,NA,NA,NA,NA,NA,NA,NA,NA,NA,NA,NA
"383","stim/objects/HouseObjects/rug4.png",297,66,290,0.9,"stim/13.jpeg",1,3,3,1,"HouseObjects",2,2,"right","right",0.531000137,1,1,1,0,116,66,1,0.9,2,"stim/13.jpeg",1,3,"stim/13.jpeg",2,"left",0.940000057,4,1,8.333999872,1,0.602999926,116,1,0,0,0,0,0
"386","stim/objects/HouseObjects/saw3.png",298,66,291,0.5,"stim/44.jpeg",4,4,1,1,"HouseObjects",2,2,"right","right",0.633999825,1,1,1,0,144,66,1,0.5,2,"stim/44.jpeg",4,4,"stim/44.jpeg",2,"left",0.702000141,4,3,1.917000055,2,0.52699995,144,1,0,0,1,1,0
"439","stim/objects/Instruments/cymbal4.png",299,66,292,0.7,"stim/61.jpeg",6,1,2,1,"Instruments",1,1,"left","right",0.687999964,0,0,1,0,124,66,1,0.7,1,"stim/61.jpeg",6,1,"stim/61.jpeg",1,"left",1.118000031,3,3,2.64199996,4,1.685000181,124,1,0,0,0,0,0
"429","stim/objects/Instruments/chime4.png",300,66,293,0.7,"stim/62.jpeg",6,2,2,1,"Instruments",1,4,"left","left",0.738999844,1,1,1,0,72,66,1,0.7,1,"stim/62.jpeg",6,2,"stim/62.jpeg",4,"left",1.575999975,3,3,3.959000111,2,3.003000021,72,1,0,0,0,0,0
"555","stim/objects/Instruments/timbal3.png",301,66,294,0.5,"stim/43.jpeg",4,3,1,1,"Instruments",1,1,"left","right",0.517999887,0,0,1,0,45,66,1,0.5,2,"stim/43.jpeg",4,3,"stim/43.jpeg",1,"right",1.857999802,1,1,2.343999863,2,2.631999969,45,0,0,NA,0,NA,0
"376","stim/objects/HouseObjects/recyclingbin3.png",302,66,295,0.5,"stim/32.jpeg",3,2,1,1,"HouseObjects",2,3,"right","right",0.570999861,1,1,1,0,112,66,1,0.5,1,"stim/32.jpeg",3,2,"stim/32.jpeg",3,"left",2.700999975,2,3,4.52699995,3,1.342000008,112,1,0,0,1,1,0
"262","stim/objects/HouseObjects/broom3.png",303,66,296,0.5,"stim/44.jpeg",4,4,1,2,"HouseObjects",2,4,"right","right",0.618999958,1,1,1,0,NA,NA,NA,NA,NA,NA,NA,NA,NA,NA,NA,NA,NA,NA,NA,NA,NA,NA,NA,NA,NA,NA,NA,NA
"569","stim/objects/Instruments/xylophone3.png",304,66,297,0.3,"stim/51.jpeg",5,1,2,1,"Instruments",1,1,"left","right",0.503999949,0,0,1,0,75,66,1,0.3,1,"stim/51.jpeg",5,1,"stim/51.jpeg",1,"left",0.901000023,4,3,2.917999983,1,0.705000162,75,1,0,0,1,1,0
"552","stim/objects/Instruments/speaker4.png",305,66,298,0.9,"stim/21.jpeg",2,1,3,1,"Instruments",1,2,"left","left",0.384000063,1,1,1,0,169,66,1,0.9,1,"stim/21.jpeg",2,1,"stim/21.jpeg",2,"left",0.601999998,4,4,3.470000029,3,1.483999968,169,1,0,0,0,0,0
"375","stim/objects/HouseObjects/pitcher4.png",306,66,299,0.9,"stim/13.jpeg",1,3,3,1,"HouseObjects",2,3,"right","right",0.436999798,1,1,1,0,136,66,1,0.9,2,"stim/13.jpeg",1,3,"stim/13.jpeg",3,"left",2.270999908,4,1,6.572000027,1,1.676999807,136,1,0,0,0,0,0
"314","stim/objects/HouseObjects/lintroller3.png",307,66,300,0.9,"stim/12.jpeg",1,2,3,2,"HouseObjects",2,3,"right","right",0.436999798,1,1,1,0,NA,NA,NA,NA,NA,NA,NA,NA,NA,NA,NA,NA,NA,NA,NA,NA,NA,NA,NA,NA,NA,NA,NA,NA
"315","stim/objects/HouseObjects/lintroller3.png",308,66,301,0.9,"stim/12.jpeg",1,2,3,2,"HouseObjects",2,4,"right","right",0.486999989,1,1,1,0,NA,NA,NA,NA,NA,NA,NA,NA,NA,NA,NA,NA,NA,NA,NA,NA,NA,NA,NA,NA,NA,NA,NA,NA
"493","stim/objects/Instruments/musicsheet3.png",309,66,302,0.9,"stim/21.jpeg",2,1,3,2,"Instruments",1,3,"left","left",0.554999828,1,1,1,0,NA,NA,NA,NA,NA,NA,NA,NA,NA,NA,NA,NA,NA,NA,NA,NA,NA,NA,NA,NA,NA,NA,NA,NA
"441","stim/objects/Instruments/doublebass3.png",310,66,303,0.7,"stim/62.jpeg",6,2,2,2,"Instruments",1,3,"left","left",0.74000001,1,1,1,0,NA,NA,NA,NA,NA,NA,NA,NA,NA,NA,NA,NA,NA,NA,NA,NA,NA,NA,NA,NA,NA,NA,NA,NA
"551","stim/objects/Instruments/speaker3.png",311,66,304,0.5,"stim/41.jpeg",4,1,1,1,"Instruments",1,4,"left","left",0.664999723,1,1,1,0,15,66,1,0.5,2,"stim/41.jpeg",4,1,"stim/41.jpeg",4,"left",1.229000092,4,3,2.472000122,1,4.199999809,15,1,0,0,0,0,0
"459","stim/objects/Instruments/marimba3.png",312,66,305,0.9,"stim/23.jpeg",2,3,3,2,"Instruments",1,1,"left","left",0.467999935,1,1,1,0,NA,NA,NA,NA,NA,NA,NA,NA,NA,NA,NA,NA,NA,NA,NA,NA,NA,NA,NA,NA,NA,NA,NA,NA
"529","stim/objects/Instruments/oboe3.png",313,66,306,0.9,"stim/24.jpeg",2,4,3,2,"Instruments",1,1,"left","left",0.547999859,1,1,1,0,NA,NA,NA,NA,NA,NA,NA,NA,NA,NA,NA,NA,NA,NA,NA,NA,NA,NA,NA,NA,NA,NA,NA,NA
"472","stim/objects/Instruments/marimba4.png",314,66,307,0.1,"stim/11.jpeg",1,1,3,1,"Instruments",1,4,"left","right",0.670999765,0,0,1,0,10,66,1,0.1,1,"stim/11.jpeg",1,1,"stim/11.jpeg",4,"left",0.868000031,1,1,5.607000113,4,2.53399992,10,1,1,1,1,1,0
"530","stim/objects/Instruments/oboe3.png",315,66,308,0.9,"stim/21.jpeg",2,1,3,2,"Instruments",1,1,"left","left",0.467999935,1,1,1,0,NA,NA,NA,NA,NA,NA,NA,NA,NA,NA,NA,NA,NA,NA,NA,NA,NA,NA,NA,NA,NA,NA,NA,NA
"358","stim/objects/HouseObjects/pan4.png",316,66,309,0.9,"stim/12.jpeg",1,2,3,1,"HouseObjects",2,4,"right","right",0.521999836,1,1,1,0,120,66,1,0.9,2,"stim/12.jpeg",1,2,"stim/12.jpeg",4,"left",0.742000103,4,4,2.621000051,1,1.522000074,120,1,0,0,0,0,0
"427","stim/objects/Instruments/chime3.png",317,66,310,0.5,"stim/41.jpeg",4,1,1,2,"Instruments",1,2,"left","left",0.720999956,1,1,1,0,NA,NA,NA,NA,NA,NA,NA,NA,NA,NA,NA,NA,NA,NA,NA,NA,NA,NA,NA,NA,NA,NA,NA,NA
"541","stim/objects/Instruments/panflute3.png",318,66,311,0.5,"stim/33.jpeg",3,3,1,1,"Instruments",1,2,"left","right",0.578999996,0,0,1,0,88,66,1,0.5,1,"stim/33.jpeg",3,3,"stim/33.jpeg",2,"right",1.014999866,4,4,2.269000053,2,2.792000055,88,0,0,NA,1,NA,0
"423","stim/objects/Instruments/bassguitar4.png",319,66,312,0.7,"stim/64.jpeg",6,4,2,1,"Instruments",1,1,"left","left",0.861000061,1,1,1,0,73,66,1,0.7,1,"stim/64.jpeg",6,4,"stim/64.jpeg",1,"left",1.50999999,4,4,1.976999998,3,1.092999935,73,1,1,1,0,0,0
"476","stim/objects/Instruments/metronome3.png",320,66,313,0.9,"stim/22.jpeg",2,2,3,2,"Instruments",1,3,"left","left",0.447999954,1,1,1,0,NA,NA,NA,NA,NA,NA,NA,NA,NA,NA,NA,NA,NA,NA,NA,NA,NA,NA,NA,NA,NA,NA,NA,NA
"495","stim/objects/Instruments/musicsheet3.png",321,66,314,0.9,"stim/24.jpeg",2,4,3,2,"Instruments",1,2,"left","left",0.493999958,1,1,1,0,NA,NA,NA,NA,NA,NA,NA,NA,NA,NA,NA,NA,NA,NA,NA,NA,NA,NA,NA,NA,NA,NA,NA,NA
"547","stim/objects/Instruments/record3.png",322,66,315,0.5,"stim/31.jpeg",3,1,1,1,"Instruments",1,4,"left","left",0.697999954,1,1,1,0,78,66,1,0.5,1,"stim/31.jpeg",3,1,"stim/31.jpeg",4,"left",0.752000093,4,4,2.680999994,4,2.228999853,78,1,0,0,1,1,0
"249","stim/objects/HouseObjects/barbecuelighter4.png",323,66,316,0.7,"stim/51.jpeg",5,1,2,1,"HouseObjects",2,4,"right","right",0.532999992,1,1,1,0,156,66,1,0.7,2,"stim/51.jpeg",5,1,"stim/51.jpeg",4,"right",2.800000191,4,4,1.502000093,4,0.590000153,156,0,0,NA,1,NA,0
"346","stim/objects/HouseObjects/pan3.png",324,66,317,0.9,"stim/14.jpeg",1,4,3,2,"HouseObjects",2,4,"right","right",0.746999979,1,1,1,0,NA,NA,NA,NA,NA,NA,NA,NA,NA,NA,NA,NA,NA,NA,NA,NA,NA,NA,NA,NA,NA,NA,NA,NA
"557","stim/objects/Instruments/triangle3.png",325,66,318,0.5,"stim/44.jpeg",4,4,1,1,"Instruments",1,1,"left","right",0.622999907,0,0,1,0,57,66,1,0.5,2,"stim/44.jpeg",4,4,"stim/44.jpeg",1,"right",4.378999949,2,3,3.001999855,3,1.197999954,57,0,0,NA,0,NA,0
"325","stim/objects/HouseObjects/match3.png",326,66,319,0.9,"stim/14.jpeg",1,4,3,2,"HouseObjects",2,2,"right","right",0.604000092,1,1,1,0,NA,NA,NA,NA,NA,NA,NA,NA,NA,NA,NA,NA,NA,NA,NA,NA,NA,NA,NA,NA,NA,NA,NA,NA
"409","stim/objects/Instruments/acousticguitar3.png",327,66,320,0.5,"stim/33.jpeg",3,3,1,2,"Instruments",1,1,"left","right",0.455999851,0,0,1,0,NA,NA,NA,NA,NA,NA,NA,NA,NA,NA,NA,NA,NA,NA,NA,NA,NA,NA,NA,NA,NA,NA,NA,NA
"540","stim/objects/Instruments/oboe4.png",328,66,321,0.1,"stim/11.jpeg",1,1,3,1,"Instruments",1,4,"left","right",0.77699995,0,0,1,0,162,66,1,0.1,1,"stim/11.jpeg",1,1,"stim/11.jpeg",4,"left",1.871000051,4,4,3.082999945,1,0.470000029,162,1,0,0,0,0,0
"481","stim/objects/Instruments/metronome3.png",329,66,322,0.9,"stim/24.jpeg",2,4,3,2,"Instruments",1,1,"left","",NA,0,0,1,0,NA,NA,NA,NA,NA,NA,NA,NA,NA,NA,NA,NA,NA,NA,NA,NA,NA,NA,NA,NA,NA,NA,NA,NA
"549","stim/objects/Instruments/saxophone3.png",330,66,323,0.5,"stim/33.jpeg",3,3,1,1,"Instruments",1,3,"left","right",0.804000139,0,0,1,0,18,66,1,0.5,1,"stim/33.jpeg",3,3,"stim/33.jpeg",3,"left",0.996000051,3,3,13.34200001,4,1.886999846,18,1,1,1,0,0,0
"250","stim/objects/HouseObjects/basket3.png",331,66,324,0.5,"stim/33.jpeg",3,3,1,2,"HouseObjects",2,4,"right","left",0.489999771,0,0,1,0,NA,NA,NA,NA,NA,NA,NA,NA,NA,NA,NA,NA,NA,NA,NA,NA,NA,NA,NA,NA,NA,NA,NA,NA
"543","stim/objects/Instruments/pipepiano3.png",332,66,325,0.5,"stim/34.jpeg",3,4,1,1,"Instruments",1,2,"left","left",0.703000069,1,1,1,0,199,66,1,0.5,1,"stim/34.jpeg",3,4,"stim/34.jpeg",2,"right",0.852999926,3,4,0.782999992,1,0.551999807,199,0,1,NA,0,NA,0
"531","stim/objects/Instruments/oboe3.png",333,66,326,0.9,"stim/21.jpeg",2,1,3,2,"Instruments",1,1,"left","left",0.537999868,1,1,1,0,NA,NA,NA,NA,NA,NA,NA,NA,NA,NA,NA,NA,NA,NA,NA,NA,NA,NA,NA,NA,NA,NA,NA,NA
"279","stim/objects/HouseObjects/iron3.png",334,66,327,0.7,"stim/51.jpeg",5,1,2,2,"HouseObjects",2,3,"right","right",0.56099987,1,1,1,0,NA,NA,NA,NA,NA,NA,NA,NA,NA,NA,NA,NA,NA,NA,NA,NA,NA,NA,NA,NA,NA,NA,NA,NA
"545","stim/objects/Instruments/record_player3.png",335,66,328,0.5,"stim/32.jpeg",3,2,1,1,"Instruments",1,1,"left","right",0.549999952,0,0,1,0,131,66,1,0.5,1,"stim/32.jpeg",3,2,"stim/32.jpeg",1,"left",0.868000031,3,1,3.195000172,1,1.151000023,131,1,0,0,1,1,0
"496","stim/objects/Instruments/musicsheet3.png",336,66,329,0.9,"stim/21.jpeg",2,1,3,2,"Instruments",1,3,"left","left",0.454999924,1,1,1,0,NA,NA,NA,NA,NA,NA,NA,NA,NA,NA,NA,NA,NA,NA,NA,NA,NA,NA,NA,NA,NA,NA,NA,NA
"445","stim/objects/Instruments/keyboard3.png",337,66,330,0.7,"stim/64.jpeg",6,4,2,2,"Instruments",1,2,"left","left",0.566999912,1,1,1,0,NA,NA,NA,NA,NA,NA,NA,NA,NA,NA,NA,NA,NA,NA,NA,NA,NA,NA,NA,NA,NA,NA,NA,NA
"365","stim/objects/HouseObjects/pitcher3.png",338,66,331,0.9,"stim/14.jpeg",1,4,3,2,"HouseObjects",2,2,"right","right",0.600999832,1,1,1,0,NA,NA,NA,NA,NA,NA,NA,NA,NA,NA,NA,NA,NA,NA,NA,NA,NA,NA,NA,NA,NA,NA,NA,NA
"275","stim/objects/HouseObjects/clothespin3.png",339,66,332,0.7,"stim/54.jpeg",5,4,2,2,"HouseObjects",2,4,"right","right",0.518999815,1,1,1,0,NA,NA,NA,NA,NA,NA,NA,NA,NA,NA,NA,NA,NA,NA,NA,NA,NA,NA,NA,NA,NA,NA,NA,NA
"366","stim/objects/HouseObjects/pitcher3.png",340,66,333,0.9,"stim/14.jpeg",1,4,3,2,"HouseObjects",2,1,"right","right",0.489999771,1,1,1,0,NA,NA,NA,NA,NA,NA,NA,NA,NA,NA,NA,NA,NA,NA,NA,NA,NA,NA,NA,NA,NA,NA,NA,NA
"349","stim/objects/HouseObjects/pan3.png",341,66,334,0.9,"stim/11.jpeg",1,1,3,2,"HouseObjects",2,2,"right","right",0.604000092,1,1,1,0,NA,NA,NA,NA,NA,NA,NA,NA,NA,NA,NA,NA,NA,NA,NA,NA,NA,NA,NA,NA,NA,NA,NA,NA
"297","stim/objects/HouseObjects/knife3.png",342,66,335,0.9,"stim/13.jpeg",1,3,3,2,"HouseObjects",2,1,"right","right",0.7099998,1,1,1,0,NA,NA,NA,NA,NA,NA,NA,NA,NA,NA,NA,NA,NA,NA,NA,NA,NA,NA,NA,NA,NA,NA,NA,NA
"397","stim/objects/HouseObjects/thermometer4.png",343,66,336,0.1,"stim/24.jpeg",2,4,3,1,"HouseObjects",2,1,"right","left",0.523000002,0,0,1,0,63,66,1,0.1,2,"stim/24.jpeg",2,4,"stim/24.jpeg",1,"right",0.770999908,1,1,2.335999966,3,1.792999983,63,0,0,NA,0,NA,0
"283","stim/objects/HouseObjects/ironingboard3.png",344,66,337,0.7,"stim/52.jpeg",5,2,2,2,"HouseObjects",2,3,"right","right",0.602999926,1,1,1,0,NA,NA,NA,NA,NA,NA,NA,NA,NA,NA,NA,NA,NA,NA,NA,NA,NA,NA,NA,NA,NA,NA,NA,NA
"350","stim/objects/HouseObjects/pan3.png",345,66,338,0.9,"stim/12.jpeg",1,2,3,2,"HouseObjects",2,1,"right","right",0.539000034,1,1,1,0,NA,NA,NA,NA,NA,NA,NA,NA,NA,NA,NA,NA,NA,NA,NA,NA,NA,NA,NA,NA,NA,NA,NA,NA
"298","stim/objects/HouseObjects/knife3.png",346,66,339,0.9,"stim/12.jpeg",1,2,3,2,"HouseObjects",2,3,"right","right",0.44299984,1,1,1,0,NA,NA,NA,NA,NA,NA,NA,NA,NA,NA,NA,NA,NA,NA,NA,NA,NA,NA,NA,NA,NA,NA,NA,NA
"514","stim/objects/Instruments/musicstand3.png",347,66,340,0.9,"stim/23.jpeg",2,3,3,2,"Instruments",1,1,"left","left",0.55099988,1,1,1,0,NA,NA,NA,NA,NA,NA,NA,NA,NA,NA,NA,NA,NA,NA,NA,NA,NA,NA,NA,NA,NA,NA,NA,NA
"461","stim/objects/Instruments/marimba3.png",348,66,341,0.9,"stim/21.jpeg",2,1,3,2,"Instruments",1,3,"left","left",0.438999891,1,1,1,0,NA,NA,NA,NA,NA,NA,NA,NA,NA,NA,NA,NA,NA,NA,NA,NA,NA,NA,NA,NA,NA,NA,NA,NA
"316","stim/objects/HouseObjects/lintroller3.png",349,66,342,0.9,"stim/13.jpeg",1,3,3,2,"HouseObjects",2,4,"right","right",0.839999914,1,1,1,0,NA,NA,NA,NA,NA,NA,NA,NA,NA,NA,NA,NA,NA,NA,NA,NA,NA,NA,NA,NA,NA,NA,NA,NA
"391","stim/objects/HouseObjects/sponge4.png",350,66,343,0.1,"stim/21.jpeg",2,1,3,1,"HouseObjects",2,3,"right","left",0.497999907,0,0,1,0,60,66,1,0.1,2,"stim/21.jpeg",2,1,"stim/21.jpeg",3,"left",1.423000097,3,3,3.034000158,1,1.167999983,60,1,0,0,0,0,0
"251","stim/objects/HouseObjects/basket3.png",351,66,344,0.5,"stim/34.jpeg",3,4,1,2,"HouseObjects",2,1,"right","right",0.671000004,1,1,1,0,NA,NA,NA,NA,NA,NA,NA,NA,NA,NA,NA,NA,NA,NA,NA,NA,NA,NA,NA,NA,NA,NA,NA,NA
"463","stim/objects/Instruments/marimba3.png",352,66,345,0.9,"stim/23.jpeg",2,3,3,2,"Instruments",1,2,"left","left",0.500999928,1,1,1,0,NA,NA,NA,NA,NA,NA,NA,NA,NA,NA,NA,NA,NA,NA,NA,NA,NA,NA,NA,NA,NA,NA,NA,NA
"482","stim/objects/Instruments/metronome3.png",353,66,346,0.9,"stim/21.jpeg",2,1,3,2,"Instruments",1,4,"left","left",0.484999895,1,1,1,0,NA,NA,NA,NA,NA,NA,NA,NA,NA,NA,NA,NA,NA,NA,NA,NA,NA,NA,NA,NA,NA,NA,NA,NA
"464","stim/objects/Instruments/marimba3.png",354,66,347,0.9,"stim/23.jpeg",2,3,3,2,"Instruments",1,3,"left","left",0.470000029,1,1,1,0,NA,NA,NA,NA,NA,NA,NA,NA,NA,NA,NA,NA,NA,NA,NA,NA,NA,NA,NA,NA,NA,NA,NA,NA
"290","stim/objects/HouseObjects/key4.png",355,66,348,0.3,"stim/63.jpeg",6,3,2,1,"HouseObjects",2,1,"right","left",0.742999792,0,0,1,0,17,66,1,0.3,2,"stim/63.jpeg",6,3,"stim/63.jpeg",1,"left",1.174000025,3,2,6.998999834,3,0.821000099,17,1,0,0,0,0,0
"363","stim/objects/HouseObjects/pitcher3.png",356,66,349,0.9,"stim/11.jpeg",1,1,3,2,"HouseObjects",2,2,"right","right",0.513999939,1,1,1,0,NA,NA,NA,NA,NA,NA,NA,NA,NA,NA,NA,NA,NA,NA,NA,NA,NA,NA,NA,NA,NA,NA,NA,NA
"416","stim/objects/Instruments/banjo3.png",357,66,350,0.5,"stim/34.jpeg",3,4,1,2,"Instruments",1,3,"left","left",0.815999746,1,1,1,0,NA,NA,NA,NA,NA,NA,NA,NA,NA,NA,NA,NA,NA,NA,NA,NA,NA,NA,NA,NA,NA,NA,NA,NA
"382","stim/objects/HouseObjects/rug3.png",358,66,351,0.5,"stim/31.jpeg",3,1,1,1,"HouseObjects",2,4,"right","left",0.522000074,0,0,1,0,182,66,1,0.5,1,"stim/31.jpeg",3,1,"stim/31.jpeg",4,"left",1.039999962,4,4,3.076999903,1,1.701999903,182,1,0,0,0,0,0
"378","stim/objects/HouseObjects/remote3.png",359,66,352,0.5,"stim/33.jpeg",3,3,1,1,"HouseObjects",2,2,"right","left",0.890999794,0,0,1,0,100,66,1,0.5,1,"stim/33.jpeg",3,3,"stim/33.jpeg",2,"right",0.936999798,3,3,1.850000143,1,1.345000029,100,0,1,NA,0,NA,0
"406","stim/objects/Instruments/accordion3.png",360,66,353,0.5,"stim/31.jpeg",3,1,1,2,"Instruments",1,1,"left","right",0.574999809,0,0,1,0,NA,NA,NA,NA,NA,NA,NA,NA,NA,NA,NA,NA,NA,NA,NA,NA,NA,NA,NA,NA,NA,NA,NA,NA
"351","stim/objects/HouseObjects/pan3.png",361,66,354,0.9,"stim/14.jpeg",1,4,3,2,"HouseObjects",2,3,"right","right",0.551000118,1,1,1,0,NA,NA,NA,NA,NA,NA,NA,NA,NA,NA,NA,NA,NA,NA,NA,NA,NA,NA,NA,NA,NA,NA,NA,NA
"280","stim/objects/HouseObjects/iron3.png",362,66,355,0.7,"stim/53.jpeg",5,3,2,2,"HouseObjects",2,3,"right","right",0.529999971,1,1,1,0,NA,NA,NA,NA,NA,NA,NA,NA,NA,NA,NA,NA,NA,NA,NA,NA,NA,NA,NA,NA,NA,NA,NA,NA
"430","stim/objects/Instruments/clarinet3.png",363,66,356,0.5,"stim/42.jpeg",4,2,1,2,"Instruments",1,2,"left","right",0.720999956,0,0,1,0,NA,NA,NA,NA,NA,NA,NA,NA,NA,NA,NA,NA,NA,NA,NA,NA,NA,NA,NA,NA,NA,NA,NA,NA
"261","stim/objects/HouseObjects/bottle4.png",364,66,357,0.3,"stim/63.jpeg",6,3,2,1,"HouseObjects",2,2,"right","left",0.587999821,0,0,1,0,107,66,1,0.3,2,"stim/63.jpeg",6,3,"stim/63.jpeg",2,"right",4.75,2,3,0.923000097,3,0.884000063,107,0,1,NA,0,NA,0
"532","stim/objects/Instruments/oboe3.png",365,66,358,0.9,"stim/23.jpeg",2,3,3,2,"Instruments",1,1,"left","left",0.496999979,1,1,1,0,NA,NA,NA,NA,NA,NA,NA,NA,NA,NA,NA,NA,NA,NA,NA,NA,NA,NA,NA,NA,NA,NA,NA,NA
"243","stim/objects/HouseObjects/ashtray4.png",366,66,359,0.7,"stim/53.jpeg",5,3,2,1,"HouseObjects",2,3,"right","right",0.490999937,1,1,1,0,153,66,1,0.7,2,"stim/53.jpeg",5,3,"stim/53.jpeg",3,"left",1.177999973,4,1,1.052000046,1,0.601999998,153,1,0,0,0,0,0
"554","stim/objects/Instruments/tambourine4.png",367,66,360,0.9,"stim/22.jpeg",2,2,3,1,"Instruments",1,2,"left","left",0.46999979,1,1,1,0,189,66,1,0.9,1,"stim/22.jpeg",2,2,"stim/22.jpeg",2,"left",2.104000092,3,3,1.411000013,2,2.231999874,189,1,0,0,1,1,0
"401","stim/objects/HouseObjects/towel4.png",368,66,361,0.1,"stim/22.jpeg",2,2,3,1,"HouseObjects",2,2,"right","left",0.41899991,0,0,1,0,198,66,1,0.1,2,"stim/22.jpeg",2,2,"stim/22.jpeg",2,"left",0.717999935,3,4,1.868000031,1,0.518999815,198,1,0,0,0,0,0
"442","stim/objects/Instruments/doublebass3.png",369,66,362,0.7,"stim/64.jpeg",6,4,2,2,"Instruments",1,3,"left","right",0.506999969,0,0,1,0,NA,NA,NA,NA,NA,NA,NA,NA,NA,NA,NA,NA,NA,NA,NA,NA,NA,NA,NA,NA,NA,NA,NA,NA
"270","stim/objects/HouseObjects/clock4.png",370,66,363,0.3,"stim/62.jpeg",6,2,2,1,"HouseObjects",2,2,"right","left",0.582999945,0,0,1,0,43,66,1,0.3,2,"stim/62.jpeg",6,2,"stim/62.jpeg",2,"left",3.669999838,3,2,5.851000071,2,1.058000088,43,1,1,1,1,1,0
"299","stim/objects/HouseObjects/knife3.png",371,66,364,0.9,"stim/11.jpeg",1,1,3,2,"HouseObjects",2,3,"right","right",0.480999947,1,1,1,0,NA,NA,NA,NA,NA,NA,NA,NA,NA,NA,NA,NA,NA,NA,NA,NA,NA,NA,NA,NA,NA,NA,NA,NA
"561","stim/objects/Instruments/trumpet3.png",372,66,365,0.3,"stim/51.jpeg",5,1,2,1,"Instruments",1,2,"left","right",0.438999891,0,0,1,0,50,66,1,0.3,1,"stim/51.jpeg",5,1,"stim/51.jpeg",2,"left",0.970000029,3,4,4.347000122,3,2.911999941,50,1,0,0,0,0,0
"412","stim/objects/Instruments/balalaika3.png",373,66,366,0.5,"stim/34.jpeg",3,4,1,2,"Instruments",1,4,"left","right",0.572000027,0,0,1,0,NA,NA,NA,NA,NA,NA,NA,NA,NA,NA,NA,NA,NA,NA,NA,NA,NA,NA,NA,NA,NA,NA,NA,NA
"431","stim/objects/Instruments/clarinet3.png",374,66,367,0.5,"stim/43.jpeg",4,3,1,2,"Instruments",1,2,"left","left",0.700999737,1,1,1,0,NA,NA,NA,NA,NA,NA,NA,NA,NA,NA,NA,NA,NA,NA,NA,NA,NA,NA,NA,NA,NA,NA,NA,NA
"455","stim/objects/Instruments/maraca4.png",375,66,368,0.7,"stim/61.jpeg",6,1,2,1,"Instruments",1,4,"left","left",0.735999823,1,1,1,0,114,66,1,0.7,1,"stim/61.jpeg",6,1,"stim/61.jpeg",4,"left",1.407000065,4,2,4.159000158,3,1.628999949,114,1,0,0,0,0,0
"324","stim/objects/HouseObjects/lintroller4.png",376,66,369,0.9,"stim/14.jpeg",1,4,3,1,"HouseObjects",2,4,"right","right",0.634000063,1,1,1,0,108,66,1,0.9,2,"stim/14.jpeg",1,4,"stim/14.jpeg",4,"right",11.76100016,3,2,1.333999872,4,0.968000174,108,0,0,NA,1,NA,0
"317","stim/objects/HouseObjects/lintroller3.png",377,66,370,0.9,"stim/11.jpeg",1,1,3,2,"HouseObjects",2,2,"right","right",0.683000088,1,1,1,0,NA,NA,NA,NA,NA,NA,NA,NA,NA,NA,NA,NA,NA,NA,NA,NA,NA,NA,NA,NA,NA,NA,NA,NA
"499","stim/objects/Instruments/musicsheet3.png",378,66,371,0.9,"stim/23.jpeg",2,3,3,2,"Instruments",1,1,"left","left",0.453999996,1,1,1,0,NA,NA,NA,NA,NA,NA,NA,NA,NA,NA,NA,NA,NA,NA,NA,NA,NA,NA,NA,NA,NA,NA,NA,NA
"265","stim/objects/HouseObjects/bucket3.png",379,66,372,0.5,"stim/42.jpeg",4,2,1,2,"HouseObjects",2,1,"right","left",0.731999874,0,0,1,0,NA,NA,NA,NA,NA,NA,NA,NA,NA,NA,NA,NA,NA,NA,NA,NA,NA,NA,NA,NA,NA,NA,NA,NA
"352","stim/objects/HouseObjects/pan3.png",380,66,373,0.9,"stim/12.jpeg",1,2,3,2,"HouseObjects",2,3,"right","right",0.545000076,1,1,1,0,NA,NA,NA,NA,NA,NA,NA,NA,NA,NA,NA,NA,NA,NA,NA,NA,NA,NA,NA,NA,NA,NA,NA,NA
"518","stim/objects/Instruments/musicstand3.png",381,66,374,0.9,"stim/21.jpeg",2,1,3,2,"Instruments",1,2,"left","left",0.786999941,1,1,1,0,NA,NA,NA,NA,NA,NA,NA,NA,NA,NA,NA,NA,NA,NA,NA,NA,NA,NA,NA,NA,NA,NA,NA,NA
"300","stim/objects/HouseObjects/knife3.png",382,66,375,0.9,"stim/12.jpeg",1,2,3,2,"HouseObjects",2,1,"right","right",0.536999941,1,1,1,0,NA,NA,NA,NA,NA,NA,NA,NA,NA,NA,NA,NA,NA,NA,NA,NA,NA,NA,NA,NA,NA,NA,NA,NA
"497","stim/objects/Instruments/musicsheet3.png",383,66,376,0.9,"stim/21.jpeg",2,1,3,2,"Instruments",1,4,"left","left",0.506999969,1,1,1,0,NA,NA,NA,NA,NA,NA,NA,NA,NA,NA,NA,NA,NA,NA,NA,NA,NA,NA,NA,NA,NA,NA,NA,NA
"465","stim/objects/Instruments/marimba3.png",384,66,377,0.9,"stim/22.jpeg",2,2,3,2,"Instruments",1,3,"left","left",0.475999832,1,1,1,0,NA,NA,NA,NA,NA,NA,NA,NA,NA,NA,NA,NA,NA,NA,NA,NA,NA,NA,NA,NA,NA,NA,NA,NA
"523","stim/objects/Instruments/musicstand4.png",385,66,378,0.1,"stim/14.jpeg",1,4,3,1,"Instruments",1,2,"left","right",0.623999834,0,0,1,0,81,66,1,0.1,1,"stim/14.jpeg",1,4,"stim/14.jpeg",2,"right",3.201999903,1,2,6.736999989,3,0.259000063,81,0,0,NA,0,NA,0
"369","stim/objects/HouseObjects/pitcher3.png",386,66,379,0.9,"stim/11.jpeg",1,1,3,2,"HouseObjects",2,4,"right","right",0.70299983,1,1,1,0,NA,NA,NA,NA,NA,NA,NA,NA,NA,NA,NA,NA,NA,NA,NA,NA,NA,NA,NA,NA,NA,NA,NA,NA
"329","stim/objects/HouseObjects/match3.png",387,66,380,0.9,"stim/13.jpeg",1,3,3,2,"HouseObjects",2,4,"right","right",0.598999977,1,1,1,0,NA,NA,NA,NA,NA,NA,NA,NA,NA,NA,NA,NA,NA,NA,NA,NA,NA,NA,NA,NA,NA,NA,NA,NA
"556","stim/objects/Instruments/timbal4.png",388,66,381,0.9,"stim/23.jpeg",2,3,3,1,"Instruments",1,1,"left","left",0.439999819,1,1,1,0,155,66,1,0.9,1,"stim/23.jpeg",2,3,"stim/23.jpeg",1,"right",1.236999989,1,1,2.742000103,2,0.959000111,155,0,0,NA,0,NA,0
"501","stim/objects/Instruments/musicsheet3.png",389,66,382,0.9,"stim/24.jpeg",2,4,3,2,"Instruments",1,2,"left","right",0.482999802,0,0,1,0,NA,NA,NA,NA,NA,NA,NA,NA,NA,NA,NA,NA,NA,NA,NA,NA,NA,NA,NA,NA,NA,NA,NA,NA
"568","stim/objects/Instruments/vuvuzela4.png",390,66,383,0.9,"stim/21.jpeg",2,1,3,1,"Instruments",1,2,"left","left",0.470999956,1,1,1,0,185,66,1,0.9,1,"stim/21.jpeg",2,1,"stim/21.jpeg",2,"left",0.818000078,4,4,1.633999825,4,2.173000097,185,1,0,0,0,0,0
"319","stim/objects/HouseObjects/lintroller3.png",391,66,384,0.9,"stim/14.jpeg",1,4,3,2,"HouseObjects",2,1,"right","right",0.486999989,1,1,1,0,NA,NA,NA,NA,NA,NA,NA,NA,NA,NA,NA,NA,NA,NA,NA,NA,NA,NA,NA,NA,NA,NA,NA,NA
"241","stim/objects/HouseObjects/ashtray3.png",392,66,385,0.5,"stim/34.jpeg",3,4,1,2,"HouseObjects",2,2,"right","left",0.750999928,0,0,1,0,NA,NA,NA,NA,NA,NA,NA,NA,NA,NA,NA,NA,NA,NA,NA,NA,NA,NA,NA,NA,NA,NA,NA,NA
"331","stim/objects/HouseObjects/match3.png",393,66,386,0.9,"stim/11.jpeg",1,1,3,2,"HouseObjects",2,3,"right","right",0.508000135,1,1,1,0,NA,NA,NA,NA,NA,NA,NA,NA,NA,NA,NA,NA,NA,NA,NA,NA,NA,NA,NA,NA,NA,NA,NA,NA
"344","stim/objects/HouseObjects/pan3.png",394,66,387,0.9,"stim/14.jpeg",1,4,3,2,"HouseObjects",2,3,"right","right",0.483999729,1,1,1,0,NA,NA,NA,NA,NA,NA,NA,NA,NA,NA,NA,NA,NA,NA,NA,NA,NA,NA,NA,NA,NA,NA,NA,NA
"289","stim/objects/HouseObjects/key3.png",395,66,388,0.7,"stim/54.jpeg",5,4,2,2,"HouseObjects",2,2,"right","right",0.582000017,1,1,1,0,NA,NA,NA,NA,NA,NA,NA,NA,NA,NA,NA,NA,NA,NA,NA,NA,NA,NA,NA,NA,NA,NA,NA,NA
"548","stim/objects/Instruments/record4.png",396,66,389,0.1,"stim/14.jpeg",1,4,3,1,"Instruments",1,3,"left","right",0.470999718,0,0,1,0,53,66,1,0.1,1,"stim/14.jpeg",1,4,"stim/14.jpeg",3,"left",1.147000074,4,1,6.272000074,2,1.430999994,53,1,0,0,0,0,0
"437","stim/objects/Instruments/cymbal3.png",397,66,390,0.7,"stim/62.jpeg",6,2,2,2,"Instruments",1,4,"left","right",0.583999872,0,0,1,0,NA,NA,NA,NA,NA,NA,NA,NA,NA,NA,NA,NA,NA,NA,NA,NA,NA,NA,NA,NA,NA,NA,NA,NA
"420","stim/objects/Instruments/bassdrum4.png",398,66,391,0.3,"stim/52.jpeg",5,2,2,1,"Instruments",1,2,"left","right",0.539999962,0,0,1,0,141,66,1,0.3,1,"stim/52.jpeg",5,2,"stim/52.jpeg",2,"left",0.690999985,4,3,2,3,1.542999983,141,1,0,0,0,0,0
"267","stim/objects/HouseObjects/bucket4.png",399,66,392,0.3,"stim/61.jpeg",6,1,2,1,"HouseObjects",2,3,"right","left",0.777999878,0,0,1,0,93,66,1,0.3,2,"stim/61.jpeg",6,1,"stim/61.jpeg",3,"right",0.969000101,2,2,3.694000006,3,2.866999865,93,0,0,NA,1,NA,0
"458","stim/objects/Instruments/marimba3.png",400,66,393,0.9,"stim/21.jpeg",2,1,3,2,"Instruments",1,2,"left","left",0.520999908,1,1,1,0,NA,NA,NA,NA,NA,NA,NA,NA,NA,NA,NA,NA,NA,NA,NA,NA,NA,NA,NA,NA,NA,NA,NA,NA
"404","stim/objects/HouseObjects/wateringcan3.png",401,66,394,0.7,"stim/52.jpeg",5,2,2,1,"HouseObjects",2,4,"right","right",0.674999952,1,1,1,0,26,66,1,0.7,2,"stim/52.jpeg",5,2,"stim/52.jpeg",4,"left",1.617999792,4,1,3.065999985,3,1.657000065,26,1,0,0,0,0,0
"466","stim/objects/Instruments/marimba3.png",402,66,395,0.9,"stim/21.jpeg",2,1,3,2,"Instruments",1,2,"left","left",0.5,1,1,1,0,NA,NA,NA,NA,NA,NA,NA,NA,NA,NA,NA,NA,NA,NA,NA,NA,NA,NA,NA,NA,NA,NA,NA,NA
"272","stim/objects/HouseObjects/clothesdryingrack3.png",403,66,396,0.7,"stim/54.jpeg",5,4,2,2,"HouseObjects",2,1,"right","right",0.519999743,1,1,1,0,NA,NA,NA,NA,NA,NA,NA,NA,NA,NA,NA,NA,NA,NA,NA,NA,NA,NA,NA,NA,NA,NA,NA,NA
"252","stim/objects/HouseObjects/basket4.png",404,66,397,0.7,"stim/52.jpeg",5,2,2,1,"HouseObjects",2,2,"right","right",0.473999739,1,1,1,0,157,66,1,0.7,2,"stim/52.jpeg",5,2,"stim/52.jpeg",2,"left",1.401000023,3,3,0.842999935,2,1.457000017,157,1,0,0,1,1,0
"467","stim/objects/Instruments/marimba3.png",405,66,398,0.9,"stim/24.jpeg",2,4,3,2,"Instruments",1,1,"left","left",0.624000072,1,1,1,0,NA,NA,NA,NA,NA,NA,NA,NA,NA,NA,NA,NA,NA,NA,NA,NA,NA,NA,NA,NA,NA,NA,NA,NA
"477","stim/objects/Instruments/metronome3.png",406,66,399,0.9,"stim/22.jpeg",2,2,3,2,"Instruments",1,1,"left","left",0.475999832,1,1,1,0,NA,NA,NA,NA,NA,NA,NA,NA,NA,NA,NA,NA,NA,NA,NA,NA,NA,NA,NA,NA,NA,NA,NA,NA
"550","stim/objects/Instruments/saxophone4.png",407,66,400,0.1,"stim/12.jpeg",1,2,3,1,"Instruments",1,4,"left","right",0.468999863,0,0,1,0,105,66,1,0.1,1,"stim/12.jpeg",1,2,"stim/12.jpeg",4,"left",2.125999928,4,4,2.637000084,2,2.5,105,1,0,0,0,0,0
"244","stim/objects/HouseObjects/ballofstring3.png",408,66,401,0.5,"stim/31.jpeg",3,1,1,2,"HouseObjects",2,3,"right","right",0.566999912,1,1,1,0,NA,NA,NA,NA,NA,NA,NA,NA,NA,NA,NA,NA,NA,NA,NA,NA,NA,NA,NA,NA,NA,NA,NA,NA
"276","stim/objects/HouseObjects/clothespin3.png",409,66,402,0.7,"stim/51.jpeg",5,1,2,2,"HouseObjects",2,2,"right","right",0.587999821,1,1,1,0,NA,NA,NA,NA,NA,NA,NA,NA,NA,NA,NA,NA,NA,NA,NA,NA,NA,NA,NA,NA,NA,NA,NA,NA
"384","stim/objects/HouseObjects/safetypin3.png",410,66,403,0.5,"stim/32.jpeg",3,2,1,1,"HouseObjects",2,3,"right","right",0.589999914,1,1,1,0,123,66,1,0.5,1,"stim/32.jpeg",3,2,"stim/32.jpeg",3,"right",1.90199995,2,4,1.477999926,3,1.020999908,123,0,0,NA,1,NA,0
"422","stim/objects/Instruments/bassguitar3.png",411,66,404,0.5,"stim/44.jpeg",4,4,1,2,"Instruments",1,2,"left","left",0.60800004,1,1,1,0,NA,NA,NA,NA,NA,NA,NA,NA,NA,NA,NA,NA,NA,NA,NA,NA,NA,NA,NA,NA,NA,NA,NA,NA
"345","stim/objects/HouseObjects/pan3.png",412,66,405,0.9,"stim/11.jpeg",1,1,3,2,"HouseObjects",2,2,"right","right",0.589999914,1,1,1,0,NA,NA,NA,NA,NA,NA,NA,NA,NA,NA,NA,NA,NA,NA,NA,NA,NA,NA,NA,NA,NA,NA,NA,NA
"411","stim/objects/Instruments/acousticguitar4.png",413,66,406,0.3,"stim/53.jpeg",5,3,2,1,"Instruments",1,3,"left","right",0.612999916,0,0,1,0,132,66,1,0.3,1,"stim/53.jpeg",5,3,"stim/53.jpeg",3,"left",2.730000019,3,2,1.898999929,4,1.325999975,132,1,0,0,0,0,0
"254","stim/objects/HouseObjects/bleachbottle3.png",414,66,407,0.5,"stim/34.jpeg",3,4,1,2,"HouseObjects",2,3,"right","right",0.523999929,1,1,1,0,NA,NA,NA,NA,NA,NA,NA,NA,NA,NA,NA,NA,NA,NA,NA,NA,NA,NA,NA,NA,NA,NA,NA,NA
"510","stim/objects/Instruments/musicstand3.png",415,66,408,0.9,"stim/22.jpeg",2,2,3,2,"Instruments",1,1,"left","left",0.504999876,1,1,1,0,NA,NA,NA,NA,NA,NA,NA,NA,NA,NA,NA,NA,NA,NA,NA,NA,NA,NA,NA,NA,NA,NA,NA,NA
"287","stim/objects/HouseObjects/key3.png",416,66,409,0.7,"stim/51.jpeg",5,1,2,2,"HouseObjects",2,3,"right","right",0.468999863,1,1,1,0,NA,NA,NA,NA,NA,NA,NA,NA,NA,NA,NA,NA,NA,NA,NA,NA,NA,NA,NA,NA,NA,NA,NA,NA
"502","stim/objects/Instruments/musicsheet3.png",417,66,410,0.9,"stim/23.jpeg",2,3,3,2,"Instruments",1,1,"left","left",0.45299983,1,1,1,0,NA,NA,NA,NA,NA,NA,NA,NA,NA,NA,NA,NA,NA,NA,NA,NA,NA,NA,NA,NA,NA,NA,NA,NA
"359","stim/objects/HouseObjects/pitcher3.png",418,66,411,0.9,"stim/14.jpeg",1,4,3,2,"HouseObjects",2,1,"right","right",0.53399992,1,1,1,0,NA,NA,NA,NA,NA,NA,NA,NA,NA,NA,NA,NA,NA,NA,NA,NA,NA,NA,NA,NA,NA,NA,NA,NA
"511","stim/objects/Instruments/musicstand3.png",419,66,412,0.9,"stim/22.jpeg",2,2,3,2,"Instruments",1,4,"left","left",0.542999983,1,1,1,0,NA,NA,NA,NA,NA,NA,NA,NA,NA,NA,NA,NA,NA,NA,NA,NA,NA,NA,NA,NA,NA,NA,NA,NA
"563","stim/objects/Instruments/tuba3.png",420,66,413,0.3,"stim/52.jpeg",5,2,2,1,"Instruments",1,4,"left","right",0.623999834,0,0,1,0,68,66,1,0.3,1,"stim/52.jpeg",5,2,"stim/52.jpeg",4,"left",0.904999971,3,3,1.736999989,2,1.937000036,68,1,0,0,0,0,0
"512","stim/objects/Instruments/musicstand3.png",421,66,414,0.9,"stim/24.jpeg",2,4,3,2,"Instruments",1,3,"left","left",0.512999773,1,1,1,0,NA,NA,NA,NA,NA,NA,NA,NA,NA,NA,NA,NA,NA,NA,NA,NA,NA,NA,NA,NA,NA,NA,NA,NA
"388","stim/objects/HouseObjects/scale3.png",422,66,415,0.5,"stim/41.jpeg",4,1,1,1,"HouseObjects",2,1,"right","right",0.558000088,1,1,1,0,7,66,1,0.5,2,"stim/41.jpeg",4,1,"stim/41.jpeg",1,"left",2.286999941,3,2,6.375999928,1,4.309000015,7,1,0,0,1,1,0
"480","stim/objects/Instruments/metronome3.png",423,66,416,0.9,"stim/24.jpeg",2,4,3,2,"Instruments",1,1,"left","left",0.618999958,1,1,1,0,NA,NA,NA,NA,NA,NA,NA,NA,NA,NA,NA,NA,NA,NA,NA,NA,NA,NA,NA,NA,NA,NA,NA,NA
"302","stim/objects/HouseObjects/knife3.png",424,66,417,0.9,"stim/13.jpeg",1,3,3,2,"HouseObjects",2,4,"right","right",0.66899991,1,1,1,0,NA,NA,NA,NA,NA,NA,NA,NA,NA,NA,NA,NA,NA,NA,NA,NA,NA,NA,NA,NA,NA,NA,NA,NA
"288","stim/objects/HouseObjects/key3.png",425,66,418,0.7,"stim/53.jpeg",5,3,2,2,"HouseObjects",2,2,"right","right",0.536000013,1,1,1,0,NA,NA,NA,NA,NA,NA,NA,NA,NA,NA,NA,NA,NA,NA,NA,NA,NA,NA,NA,NA,NA,NA,NA,NA
"361","stim/objects/HouseObjects/pitcher3.png",426,66,419,0.9,"stim/11.jpeg",1,1,3,2,"HouseObjects",2,1,"right","right",0.517999887,1,1,1,0,NA,NA,NA,NA,NA,NA,NA,NA,NA,NA,NA,NA,NA,NA,NA,NA,NA,NA,NA,NA,NA,NA,NA,NA
"259","stim/objects/HouseObjects/bottle3.png",427,66,420,0.5,"stim/44.jpeg",4,4,1,2,"HouseObjects",2,2,"right","left",0.773999929,0,0,1,0,NA,NA,NA,NA,NA,NA,NA,NA,NA,NA,NA,NA,NA,NA,NA,NA,NA,NA,NA,NA,NA,NA,NA,NA
"447","stim/objects/Instruments/keyboard4.png",428,66,421,0.7,"stim/63.jpeg",6,3,2,1,"Instruments",1,2,"left","left",0.774999857,1,1,1,0,161,66,1,0.7,1,"stim/63.jpeg",6,3,"stim/63.jpeg",2,"right",1.432999849,2,4,4.972000122,2,0.75,161,0,0,NA,1,NA,0
"503","stim/objects/Instruments/musicsheet3.png",429,66,422,0.9,"stim/21.jpeg",2,1,3,2,"Instruments",1,4,"left","left",0.618999958,1,1,1,0,NA,NA,NA,NA,NA,NA,NA,NA,NA,NA,NA,NA,NA,NA,NA,NA,NA,NA,NA,NA,NA,NA,NA,NA
"392","stim/objects/HouseObjects/spraybottle3.png",430,66,423,0.5,"stim/43.jpeg",4,3,1,1,"HouseObjects",2,1,"right","right",0.78399992,1,1,1,0,80,66,1,0.5,2,"stim/43.jpeg",4,3,"stim/43.jpeg",1,"left",5.218000174,2,3,2.277999878,3,1.169999838,80,1,1,1,0,0,0
"303","stim/objects/HouseObjects/knife3.png",431,66,424,0.9,"stim/11.jpeg",1,1,3,2,"HouseObjects",2,3,"right","right",0.671999931,1,1,1,0,NA,NA,NA,NA,NA,NA,NA,NA,NA,NA,NA,NA,NA,NA,NA,NA,NA,NA,NA,NA,NA,NA,NA,NA
"362","stim/objects/HouseObjects/pitcher3.png",432,66,425,0.9,"stim/12.jpeg",1,2,3,2,"HouseObjects",2,1,"right","right",0.485999823,1,1,1,0,NA,NA,NA,NA,NA,NA,NA,NA,NA,NA,NA,NA,NA,NA,NA,NA,NA,NA,NA,NA,NA,NA,NA,NA
"354","stim/objects/HouseObjects/pan3.png",433,66,426,0.9,"stim/13.jpeg",1,3,3,2,"HouseObjects",2,3,"right","right",0.514999866,1,1,1,0,NA,NA,NA,NA,NA,NA,NA,NA,NA,NA,NA,NA,NA,NA,NA,NA,NA,NA,NA,NA,NA,NA,NA,NA
"542","stim/objects/Instruments/panflute4.png",434,66,427,0.1,"stim/12.jpeg",1,2,3,1,"Instruments",1,3,"left","right",0.43599987,0,0,1,0,65,66,1,0.1,1,"stim/12.jpeg",1,2,"stim/12.jpeg",3,"right",0.902000189,3,3,5.803000212,1,1.401000023,65,0,0,NA,0,NA,0
"246","stim/objects/HouseObjects/ballofstring4.png",435,66,428,0.7,"stim/54.jpeg",5,4,2,1,"HouseObjects",2,3,"right","right",0.620999813,1,1,1,0,180,66,1,0.7,2,"stim/54.jpeg",5,4,"stim/54.jpeg",3,"right",0.835999966,3,3,2.488000154,2,2.443000078,180,0,0,NA,0,NA,0
"516","stim/objects/Instruments/musicstand3.png",436,66,429,0.9,"stim/22.jpeg",2,2,3,2,"Instruments",1,1,"left","left",0.825000048,1,1,1,0,NA,NA,NA,NA,NA,NA,NA,NA,NA,NA,NA,NA,NA,NA,NA,NA,NA,NA,NA,NA,NA,NA,NA,NA
"282","stim/objects/HouseObjects/iron4.png",437,66,430,0.3,"stim/61.jpeg",6,1,2,1,"HouseObjects",2,1,"right","left",0.764999866,0,0,1,0,122,66,1,0.3,2,"stim/61.jpeg",6,1,"stim/61.jpeg",1,"right",0.986000061,3,4,3.951999903,2,1.809999943,122,0,0,NA,0,NA,0
"381","stim/objects/HouseObjects/rubbergloves4.png",438,66,431,0.9,"stim/12.jpeg",1,2,3,1,"HouseObjects",2,2,"right","right",0.857000113,1,1,1,0,158,66,1,0.9,2,"stim/12.jpeg",1,2,"stim/12.jpeg",2,"right",3.813999891,3,1,1.985000134,2,0.859999895,158,0,0,NA,1,NA,0
"460","stim/objects/Instruments/marimba3.png",439,66,432,0.9,"stim/22.jpeg",2,2,3,2,"Instruments",1,4,"left","left",0.488999844,1,1,1,0,NA,NA,NA,NA,NA,NA,NA,NA,NA,NA,NA,NA,NA,NA,NA,NA,NA,NA,NA,NA,NA,NA,NA,NA
"513","stim/objects/Instruments/musicstand3.png",440,66,433,0.9,"stim/22.jpeg",2,2,3,2,"Instruments",1,3,"left","left",0.513999701,1,1,1,0,NA,NA,NA,NA,NA,NA,NA,NA,NA,NA,NA,NA,NA,NA,NA,NA,NA,NA,NA,NA,NA,NA,NA,NA
"370","stim/objects/HouseObjects/pitcher3.png",441,66,434,0.9,"stim/13.jpeg",1,3,3,2,"HouseObjects",2,4,"right","right",0.715999842,1,1,1,0,NA,NA,NA,NA,NA,NA,NA,NA,NA,NA,NA,NA,NA,NA,NA,NA,NA,NA,NA,NA,NA,NA,NA,NA
"321","stim/objects/HouseObjects/lintroller3.png",442,66,435,0.9,"stim/14.jpeg",1,4,3,2,"HouseObjects",2,2,"right","right",0.500999928,1,1,1,0,NA,NA,NA,NA,NA,NA,NA,NA,NA,NA,NA,NA,NA,NA,NA,NA,NA,NA,NA,NA,NA,NA,NA,NA
"296","stim/objects/HouseObjects/knife3.png",443,66,436,0.9,"stim/14.jpeg",1,4,3,2,"HouseObjects",2,1,"right","right",0.820999861,1,1,1,0,NA,NA,NA,NA,NA,NA,NA,NA,NA,NA,NA,NA,NA,NA,NA,NA,NA,NA,NA,NA,NA,NA,NA,NA
"528","stim/objects/Instruments/oboe3.png",444,66,437,0.9,"stim/21.jpeg",2,1,3,2,"Instruments",1,4,"left","left",0.532999992,1,1,1,0,NA,NA,NA,NA,NA,NA,NA,NA,NA,NA,NA,NA,NA,NA,NA,NA,NA,NA,NA,NA,NA,NA,NA,NA
"245","stim/objects/HouseObjects/ballofstring3.png",445,66,438,0.5,"stim/32.jpeg",3,2,1,2,"HouseObjects",2,3,"right","right",0.457999945,1,1,1,0,NA,NA,NA,NA,NA,NA,NA,NA,NA,NA,NA,NA,NA,NA,NA,NA,NA,NA,NA,NA,NA,NA,NA,NA
"434","stim/objects/Instruments/cornet3.png",446,66,439,0.5,"stim/43.jpeg",4,3,1,2,"Instruments",1,3,"left","right",0.481999874,0,0,1,0,NA,NA,NA,NA,NA,NA,NA,NA,NA,NA,NA,NA,NA,NA,NA,NA,NA,NA,NA,NA,NA,NA,NA,NA
"535","stim/objects/Instruments/oboe3.png",447,66,440,0.9,"stim/22.jpeg",2,2,3,2,"Instruments",1,2,"left","left",0.518999815,1,1,1,0,NA,NA,NA,NA,NA,NA,NA,NA,NA,NA,NA,NA,NA,NA,NA,NA,NA,NA,NA,NA,NA,NA,NA,NA
"273","stim/objects/HouseObjects/clothesdryingrack3.png",448,66,441,0.7,"stim/53.jpeg",5,3,2,2,"HouseObjects",2,3,"right","right",0.457000017,1,1,1,0,NA,NA,NA,NA,NA,NA,NA,NA,NA,NA,NA,NA,NA,NA,NA,NA,NA,NA,NA,NA,NA,NA,NA,NA
"248","stim/objects/HouseObjects/barbecuelighter3.png",449,66,442,0.5,"stim/33.jpeg",3,3,1,2,"HouseObjects",2,1,"right","right",0.572999716,1,1,1,0,NA,NA,NA,NA,NA,NA,NA,NA,NA,NA,NA,NA,NA,NA,NA,NA,NA,NA,NA,NA,NA,NA,NA,NA
"328","stim/objects/HouseObjects/match3.png",450,66,443,0.9,"stim/11.jpeg",1,1,3,2,"HouseObjects",2,1,"right","right",0.592999935,1,1,1,0,NA,NA,NA,NA,NA,NA,NA,NA,NA,NA,NA,NA,NA,NA,NA,NA,NA,NA,NA,NA,NA,NA,NA,NA
"347","stim/objects/HouseObjects/pan3.png",451,66,444,0.9,"stim/11.jpeg",1,1,3,2,"HouseObjects",2,1,"right","right",0.5,1,1,1,0,NA,NA,NA,NA,NA,NA,NA,NA,NA,NA,NA,NA,NA,NA,NA,NA,NA,NA,NA,NA,NA,NA,NA,NA
"372","stim/objects/HouseObjects/pitcher3.png",452,66,445,0.9,"stim/12.jpeg",1,2,3,2,"HouseObjects",2,4,"right","right",0.76699996,1,1,1,0,NA,NA,NA,NA,NA,NA,NA,NA,NA,NA,NA,NA,NA,NA,NA,NA,NA,NA,NA,NA,NA,NA,NA,NA
"385","stim/objects/HouseObjects/safetypin4.png",453,66,446,0.9,"stim/14.jpeg",1,4,3,1,"HouseObjects",2,1,"right","right",0.70299983,1,1,1,0,39,66,1,0.9,2,"stim/14.jpeg",1,4,"stim/14.jpeg",1,"left",3.488000154,3,1,2.582000017,4,4.639000177,39,1,0,0,0,0,0
"553","stim/objects/Instruments/tambourine3.png",454,66,447,0.5,"stim/42.jpeg",4,2,1,1,"Instruments",1,3,"left","left",0.721999884,1,1,1,0,4,66,1,0.5,2,"stim/42.jpeg",4,2,"stim/42.jpeg",3,"left",1.943000078,4,4,5.069000006,1,2.087000132,4,1,0,0,0,0,0
"356","stim/objects/HouseObjects/pan3.png",455,66,448,0.9,"stim/11.jpeg",1,1,3,2,"HouseObjects",2,4,"right","right",0.524999857,1,1,1,0,NA,NA,NA,NA,NA,NA,NA,NA,NA,NA,NA,NA,NA,NA,NA,NA,NA,NA,NA,NA,NA,NA,NA,NA
"364","stim/objects/HouseObjects/pitcher3.png",456,66,449,0.9,"stim/11.jpeg",1,1,3,2,"HouseObjects",2,2,"right","right",0.518999815,1,1,1,0,NA,NA,NA,NA,NA,NA,NA,NA,NA,NA,NA,NA,NA,NA,NA,NA,NA,NA,NA,NA,NA,NA,NA,NA
"373","stim/objects/HouseObjects/pitcher3.png",457,66,450,0.9,"stim/13.jpeg",1,3,3,2,"HouseObjects",2,3,"right","right",0.43599987,1,1,1,0,NA,NA,NA,NA,NA,NA,NA,NA,NA,NA,NA,NA,NA,NA,NA,NA,NA,NA,NA,NA,NA,NA,NA,NA
"337","stim/objects/HouseObjects/match3.png",458,66,451,0.9,"stim/14.jpeg",1,4,3,2,"HouseObjects",2,2,"right","right",0.450999975,1,1,1,0,NA,NA,NA,NA,NA,NA,NA,NA,NA,NA,NA,NA,NA,NA,NA,NA,NA,NA,NA,NA,NA,NA,NA,NA
"432","stim/objects/Instruments/clarinet4.png",459,66,452,0.7,"stim/63.jpeg",6,3,2,1,"Instruments",1,4,"left","",NA,0,0,1,0,23,66,1,0.7,1,"stim/63.jpeg",6,3,"stim/63.jpeg",4,"left",1.61500001,4,4,4.328999996,2,3.746000051,23,1,0,0,0,0,0
"546","stim/objects/Instruments/record_player4.png",460,66,453,0.1,"stim/11.jpeg",1,1,3,1,"Instruments",1,1,"left","right",0.588000059,0,0,1,0,12,66,1,0.1,1,"stim/11.jpeg",1,1,"stim/11.jpeg",1,"left",1.074999809,4,4,30.71499991,3,1.090000153,12,1,0,0,0,0,0
"338","stim/objects/HouseObjects/match3.png",461,66,454,0.9,"stim/13.jpeg",1,3,3,2,"HouseObjects",2,4,"right","right",0.622999907,1,1,1,0,NA,NA,NA,NA,NA,NA,NA,NA,NA,NA,NA,NA,NA,NA,NA,NA,NA,NA,NA,NA,NA,NA,NA,NA
"336","stim/objects/HouseObjects/match3.png",462,66,455,0.9,"stim/12.jpeg",1,2,3,2,"HouseObjects",2,2,"right","right",0.859999895,1,1,1,0,NA,NA,NA,NA,NA,NA,NA,NA,NA,NA,NA,NA,NA,NA,NA,NA,NA,NA,NA,NA,NA,NA,NA,NA
"489","stim/objects/Instruments/metronome4.png",463,66,456,0.1,"stim/12.jpeg",1,2,3,1,"Instruments",1,4,"left","right",0.5,0,0,1,0,14,66,1,0.1,1,"stim/12.jpeg",1,2,"stim/12.jpeg",4,"left",0.917999983,4,1,17.96899986,1,2.148000002,14,1,0,0,0,0,0
"564","stim/objects/Instruments/tuba4.png",464,66,457,0.9,"stim/23.jpeg",2,3,3,1,"Instruments",1,3,"left","left",0.511999846,1,1,1,0,96,66,1,0.9,1,"stim/23.jpeg",2,3,"stim/23.jpeg",3,"left",1.410000086,3,3,2.042999983,2,1.505000114,96,1,1,1,0,0,0
"419","stim/objects/Instruments/bassdrum3.png",465,66,458,0.5,"stim/31.jpeg",3,1,1,2,"Instruments",1,3,"left","right",0.605999947,0,0,1,0,NA,NA,NA,NA,NA,NA,NA,NA,NA,NA,NA,NA,NA,NA,NA,NA,NA,NA,NA,NA,NA,NA,NA,NA
"536","stim/objects/Instruments/oboe3.png",466,66,459,0.9,"stim/22.jpeg",2,2,3,2,"Instruments",1,4,"left","left",0.485999823,1,1,1,0,NA,NA,NA,NA,NA,NA,NA,NA,NA,NA,NA,NA,NA,NA,NA,NA,NA,NA,NA,NA,NA,NA,NA,NA
