"","participant","OvsN","PE_level","object_cat","obj_file","scn_file","corr_scn_cat","corr_scn_inst","scn_file.1","corr_loc","key_resp_id.keys","key_resp_id.rt","key_resp_conf.keys","key_resp_assoc.keys","key_resp_assoc.rt","key_resp_loc.keys","key_resp_loc.rt","trialN","id_acc","assoc.acc","cond_assoc","loc.acc","cond_loc","group"
"1",66,1,0.3,2,"stim/objects/HouseObjects/ironingboard4.png","stim/62.jpeg",6,2,"stim/62.jpeg",1,"right",3.765999794,1,4,11.10900021,1,8.10800004,1,0,0,NA,1,NA,0
"2",66,2,0,1,"stim/objects/Instruments/cello2.png","",0,0,"",0,"left",2.173000097,NA,NA,NA,NA,NA,2,0,NA,NA,NA,NA,0
"3",66,1,0.9,1,"stim/objects/Instruments/triangle4.png","stim/24.jpeg",2,4,"stim/24.jpeg",3,"left",1.227999926,4,4,7.664000034,2,3.713000059,3,1,1,1,0,0,0
"4",66,1,0.5,2,"stim/objects/Instruments/tambourine3.png","stim/42.jpeg",4,2,"stim/42.jpeg",3,"left",1.943000078,4,4,5.069000006,1,2.087000132,4,1,0,0,0,0,0
"5",66,2,0,2,"stim/objects/HouseObjects/match.png","",0,0,"",0,"right",3.093000174,NA,NA,NA,NA,NA,5,1,NA,NA,NA,NA,0
"6",66,2,0,1,"stim/objects/Instruments/clarinet.png","",0,0,"",0,"left",2.63499999,NA,NA,NA,NA,NA,6,0,NA,NA,NA,NA,0
"7",66,1,0.5,2,"stim/objects/HouseObjects/scale3.png","stim/41.jpeg",4,1,"stim/41.jpeg",1,"left",2.286999941,3,2,6.375999928,1,4.309000015,7,1,0,0,1,1,0
"8",66,2,0,1,"stim/objects/Instruments/record_player.png","",0,0,"",0,"left",7.534000158,NA,NA,NA,NA,NA,8,0,NA,NA,NA,NA,0
"9",66,2,0,2,"stim/objects/HouseObjects/bottle2.png","",0,0,"",0,"right",19.78500009,NA,NA,NA,NA,NA,9,1,NA,NA,NA,NA,0
"10",66,1,0.1,1,"stim/objects/Instruments/marimba4.png","stim/11.jpeg",1,1,"stim/11.jpeg",4,"left",0.868000031,1,1,5.607000113,4,2.53399992,10,1,1,1,1,1,0
"11",66,2,0,2,"stim/objects/HouseObjects/remote.png","",0,0,"",0,"right",2.289999962,NA,NA,NA,NA,NA,11,1,NA,NA,NA,NA,0
"12",66,1,0.1,1,"stim/objects/Instruments/record_player4.png","stim/11.jpeg",1,1,"stim/11.jpeg",1,"left",1.074999809,4,4,30.71499991,3,1.090000153,12,1,0,0,0,0,0
"13",66,2,0,1,"stim/objects/Instruments/bassdrum.png","",0,0,"",0,"right",9.183999777,NA,NA,NA,NA,NA,13,1,NA,NA,NA,NA,0
"14",66,1,0.1,1,"stim/objects/Instruments/metronome4.png","stim/12.jpeg",1,2,"stim/12.jpeg",4,"left",0.917999983,4,1,17.96899986,1,2.148000002,14,1,0,0,0,0,0
"15",66,1,0.5,2,"stim/objects/Instruments/speaker3.png","stim/41.jpeg",4,1,"stim/41.jpeg",4,"left",1.229000092,4,3,2.472000122,1,4.199999809,15,1,0,0,0,0,0
"16",66,2,0,2,"stim/objects/HouseObjects/lintroller.png","",0,0,"",0,"left",1.288000107,NA,NA,NA,NA,NA,16,0,NA,NA,NA,NA,0
"17",66,1,0.3,2,"stim/objects/HouseObjects/key4.png","stim/63.jpeg",6,3,"stim/63.jpeg",1,"left",1.174000025,3,2,6.998999834,3,0.821000099,17,1,0,0,0,0,0
"18",66,1,0.5,1,"stim/objects/Instruments/saxophone3.png","stim/33.jpeg",3,3,"stim/33.jpeg",3,"left",0.996000051,3,3,13.34200001,4,1.886999846,18,1,1,1,0,0,0
"19",66,2,0,1,"stim/objects/Instruments/maraca.png","",0,0,"",0,"right",3.26699996,NA,NA,NA,NA,NA,19,1,NA,NA,NA,NA,0
"20",66,2,0,1,"stim/objects/Instruments/tuba.png","",0,0,"",0,"right",2.270999908,NA,NA,NA,NA,NA,20,1,NA,NA,NA,NA,0
"21",66,2,0,1,"stim/objects/Instruments/trombone.png","",0,0,"",0,"right",2.40899992,NA,NA,NA,NA,NA,21,1,NA,NA,NA,NA,0
"22",66,2,0,2,"stim/objects/HouseObjects/thermometer.png","",0,0,"",0,"right",1.7900002,NA,NA,NA,NA,NA,22,1,NA,NA,NA,NA,0
"23",66,1,0.7,1,"stim/objects/Instruments/clarinet4.png","stim/63.jpeg",6,3,"stim/63.jpeg",4,"left",1.61500001,4,4,4.328999996,2,3.746000051,23,1,0,0,0,0,0
"24",66,1,0.1,2,"stim/objects/HouseObjects/vacuumcleaner4.png","stim/23.jpeg",2,3,"stim/23.jpeg",4,"left",1.695999861,3,1,2.260999918,1,0.884000063,24,1,0,0,0,0,0
"25",66,1,0.1,2,"stim/objects/HouseObjects/saw4.png","stim/23.jpeg",2,3,"stim/23.jpeg",2,"left",3.401000023,3,3,4.159999847,3,1.645999908,25,1,1,1,0,0,0
"26",66,1,0.7,2,"stim/objects/HouseObjects/wateringcan3.png","stim/52.jpeg",5,2,"stim/52.jpeg",4,"left",1.617999792,4,1,3.065999985,3,1.657000065,26,1,0,0,0,0,0
"27",66,2,0,2,"stim/objects/HouseObjects/ashtray.png","",0,0,"",0,"left",2.233999968,NA,NA,NA,NA,NA,27,0,NA,NA,NA,NA,0
"28",66,1,0.9,1,"stim/objects/Instruments/violin4.png","stim/24.jpeg",2,4,"stim/24.jpeg",3,"left",1.486000061,3,4,4.020999908,3,1.285000086,28,1,1,1,1,1,0
"29",66,2,0,2,"stim/objects/HouseObjects/clothespin2.png","",0,0,"",0,"left",1.653000116,NA,NA,NA,NA,NA,29,0,NA,NA,NA,NA,0
"30",66,1,0.7,1,"stim/objects/Instruments/cornet4.png","stim/64.jpeg",6,4,"stim/64.jpeg",1,"left",1.157999992,3,3,3.285000086,2,2.930999994,30,1,0,0,0,0,0
"31",66,2,0,2,"stim/objects/HouseObjects/clothesdryingrack2.png","",0,0,"",0,"right",1.559999943,NA,NA,NA,NA,NA,31,1,NA,NA,NA,NA,0
"32",66,2,0,2,"stim/objects/HouseObjects/sponge.png","",0,0,"",0,"left",2.235999823,NA,NA,NA,NA,NA,32,0,NA,NA,NA,NA,0
"33",66,2,0,2,"stim/objects/HouseObjects/rug.png","",0,0,"",0,"left",1.03399992,NA,NA,NA,NA,NA,33,0,NA,NA,NA,NA,0
"34",66,1,0.5,2,"stim/objects/HouseObjects/sponge3.png","stim/42.jpeg",4,2,"stim/42.jpeg",2,"left",0.856999874,4,4,10.53500009,1,1.209000111,34,1,0,0,0,0,0
"35",66,2,0,2,"stim/objects/HouseObjects/clothesdryingrack.png","",0,0,"",0,"right",2.284999847,NA,NA,NA,NA,NA,35,1,NA,NA,NA,NA,0
"36",66,2,0,1,"stim/objects/Instruments/violin.png","",0,0,"",0,"left",0.884000063,NA,NA,NA,NA,NA,36,0,NA,NA,NA,NA,0
"37",66,1,0.9,2,"stim/objects/HouseObjects/remote4.png","stim/11.jpeg",1,1,"stim/11.jpeg",1,"right",0.852999926,2,3,5.794000149,3,4.183000088,37,0,0,NA,0,NA,0
"38",66,2,0,1,"stim/objects/Instruments/keyboard2.png","",0,0,"",0,"right",3.174999952,NA,NA,NA,NA,NA,38,1,NA,NA,NA,NA,0
"39",66,1,0.9,2,"stim/objects/HouseObjects/safetypin4.png","stim/14.jpeg",1,4,"stim/14.jpeg",1,"left",3.488000154,3,1,2.582000017,4,4.639000177,39,1,0,0,0,0,0
"40",66,2,0,1,"stim/objects/Instruments/balalaika.png","",0,0,"",0,"left",2.20600009,NA,NA,NA,NA,NA,40,0,NA,NA,NA,NA,0
"41",66,1,0.1,2,"stim/objects/HouseObjects/teapot4.png","stim/23.jpeg",2,3,"stim/23.jpeg",2,"right",4.312999964,2,2,4.182999849,1,1.586999893,41,0,0,NA,0,NA,0
"42",66,2,0,2,"stim/objects/HouseObjects/bottle.png","",0,0,"",0,"right",2.460000038,NA,NA,NA,NA,NA,42,1,NA,NA,NA,NA,0
"43",66,1,0.3,2,"stim/objects/HouseObjects/clock4.png","stim/62.jpeg",6,2,"stim/62.jpeg",2,"left",3.669999838,3,2,5.851000071,2,1.058000088,43,1,1,1,1,1,0
"44",66,2,0,1,"stim/objects/Instruments/xylophone.png","",0,0,"",0,"left",1.126000166,NA,NA,NA,NA,NA,44,0,NA,NA,NA,NA,0
"45",66,1,0.5,2,"stim/objects/Instruments/timbal3.png","stim/43.jpeg",4,3,"stim/43.jpeg",1,"right",1.857999802,1,1,2.343999863,2,2.631999969,45,0,0,NA,0,NA,0
"46",66,1,0.1,2,"stim/objects/HouseObjects/wateringcan4.png","stim/24.jpeg",2,4,"stim/24.jpeg",4,"left",2.493000031,3,3,3.909999847,2,7.450000048,46,1,0,0,0,0,0
"47",66,2,0,2,"stim/objects/HouseObjects/bleachbottle.png","",0,0,"",0,"right",1.767999887,NA,NA,NA,NA,NA,47,1,NA,NA,NA,NA,0
"48",66,2,0,1,"stim/objects/Instruments/accordion2.png","",0,0,"",0,"right",1.88499999,NA,NA,NA,NA,NA,48,1,NA,NA,NA,NA,0
"49",66,2,0,1,"stim/objects/Instruments/acousticguitar.png","",0,0,"",0,"right",6.167000055,NA,NA,NA,NA,NA,49,1,NA,NA,NA,NA,0
"50",66,1,0.3,1,"stim/objects/Instruments/trumpet3.png","stim/51.jpeg",5,1,"stim/51.jpeg",2,"left",0.970000029,3,4,4.347000122,3,2.911999941,50,1,0,0,0,0,0
"51",66,1,0.7,1,"stim/objects/Instruments/laud4.png","stim/64.jpeg",6,4,"stim/64.jpeg",2,"left",3.642999887,3,2,9.353000164,3,2.226000071,51,1,0,0,0,0,0
"52",66,2,0,1,"stim/objects/Instruments/laud2.png","",0,0,"",0,"right",1.020999908,NA,NA,NA,NA,NA,52,1,NA,NA,NA,NA,0
"53",66,1,0.1,1,"stim/objects/Instruments/record4.png","stim/14.jpeg",1,4,"stim/14.jpeg",3,"left",1.147000074,4,1,6.272000074,2,1.430999994,53,1,0,0,0,0,0
"54",66,2,0,1,"stim/objects/Instruments/laud.png","",0,0,"",0,"right",1.727999926,NA,NA,NA,NA,NA,54,1,NA,NA,NA,NA,0
"55",66,2,0,1,"stim/objects/Instruments/banjo2.png","",0,0,"",0,"left",2.420000076,NA,NA,NA,NA,NA,55,0,NA,NA,NA,NA,0
"56",66,2,0,2,"stim/objects/HouseObjects/pan.png","",0,0,"",0,"left",0.904000044,NA,NA,NA,NA,NA,56,0,NA,NA,NA,NA,0
"57",66,1,0.5,2,"stim/objects/Instruments/triangle3.png","stim/44.jpeg",4,4,"stim/44.jpeg",1,"right",4.378999949,2,3,3.001999855,3,1.197999954,57,0,0,NA,0,NA,0
"58",66,2,0,2,"stim/objects/HouseObjects/bleachbottle2.png","",0,0,"",0,"right",1.738000154,NA,NA,NA,NA,NA,58,1,NA,NA,NA,NA,0
"59",66,1,0.3,2,"stim/objects/HouseObjects/blender4.png","stim/62.jpeg",6,2,"stim/62.jpeg",1,"left",0.902999878,4,1,4.995999813,3,1.023999929,59,1,0,0,0,0,0
"60",66,1,0.1,2,"stim/objects/HouseObjects/sponge4.png","stim/21.jpeg",2,1,"stim/21.jpeg",3,"left",1.423000097,3,3,3.034000158,1,1.167999983,60,1,0,0,0,0,0
"61",66,2,0,2,"stim/objects/HouseObjects/iron.png","",0,0,"",0,"right",1.274000168,NA,NA,NA,NA,NA,61,1,NA,NA,NA,NA,0
"62",66,2,0,2,"stim/objects/HouseObjects/broom.png","",0,0,"",0,"left",2.519999981,NA,NA,NA,NA,NA,62,0,NA,NA,NA,NA,0
"63",66,1,0.1,2,"stim/objects/HouseObjects/thermometer4.png","stim/24.jpeg",2,4,"stim/24.jpeg",1,"right",0.770999908,1,1,2.335999966,3,1.792999983,63,0,0,NA,0,NA,0
"64",66,2,0,2,"stim/objects/HouseObjects/saw.png","",0,0,"",0,"left",1.09100008,NA,NA,NA,NA,NA,64,0,NA,NA,NA,NA,0
"65",66,1,0.1,1,"stim/objects/Instruments/panflute4.png","stim/12.jpeg",1,2,"stim/12.jpeg",3,"right",0.902000189,3,3,5.803000212,1,1.401000023,65,0,0,NA,0,NA,0
"66",66,1,0.1,1,"stim/objects/Instruments/musicsheet4.png","stim/13.jpeg",1,3,"stim/13.jpeg",1,"left",1.026000023,3,4,8.64199996,1,4.26699996,66,1,0,0,1,1,0
"67",66,2,0,1,"stim/objects/Instruments/cello.png","",0,0,"",0,"left",1.375999928,NA,NA,NA,NA,NA,67,0,NA,NA,NA,NA,0
"68",66,1,0.3,1,"stim/objects/Instruments/tuba3.png","stim/52.jpeg",5,2,"stim/52.jpeg",4,"left",0.904999971,3,3,1.736999989,2,1.937000036,68,1,0,0,0,0,0
"69",66,2,0,2,"stim/objects/HouseObjects/basket2.png","",0,0,"",0,"right",1.892999887,NA,NA,NA,NA,NA,69,1,NA,NA,NA,NA,0
"70",66,1,0.9,1,"stim/objects/Instruments/trombone4.png","stim/21.jpeg",2,1,"stim/21.jpeg",2,"right",0.884000063,2,1,2.524000168,4,1.458000183,70,0,1,NA,0,NA,0
"71",66,1,0.7,2,"stim/objects/HouseObjects/bleachbottle4.png","stim/53.jpeg",5,3,"stim/53.jpeg",1,"right",1.118000031,2,2,2.690999985,3,2.195999861,71,0,0,NA,0,NA,0
"72",66,1,0.7,1,"stim/objects/Instruments/chime4.png","stim/62.jpeg",6,2,"stim/62.jpeg",4,"left",1.575999975,3,3,3.959000111,2,3.003000021,72,1,0,0,0,0,0
"73",66,1,0.7,1,"stim/objects/Instruments/bassguitar4.png","stim/64.jpeg",6,4,"stim/64.jpeg",1,"left",1.50999999,4,4,1.976999998,3,1.092999935,73,1,1,1,0,0,0
"74",66,2,0,2,"stim/objects/HouseObjects/safetypin.png","",0,0,"",0,"right",1.230999947,NA,NA,NA,NA,NA,74,1,NA,NA,NA,NA,0
"75",66,1,0.3,1,"stim/objects/Instruments/xylophone3.png","stim/51.jpeg",5,1,"stim/51.jpeg",1,"left",0.901000023,4,3,2.917999983,1,0.705000162,75,1,0,0,1,1,0
"76",66,1,0.9,2,"stim/objects/HouseObjects/match4.png","stim/11.jpeg",1,1,"stim/11.jpeg",2,"right",1.278000116,4,1,2.47300005,1,1.153999805,76,0,1,NA,0,NA,0
"77",66,2,0,2,"stim/objects/HouseObjects/vacuumcleaner.png","",0,0,"",0,"right",1.917999983,NA,NA,NA,NA,NA,77,1,NA,NA,NA,NA,0
"78",66,1,0.5,1,"stim/objects/Instruments/record3.png","stim/31.jpeg",3,1,"stim/31.jpeg",4,"left",0.752000093,4,4,2.680999994,4,2.228999853,78,1,0,0,1,1,0
"79",66,1,0.7,1,"stim/objects/Instruments/cello4.png","stim/61.jpeg",6,1,"stim/61.jpeg",4,"left",2.410000086,4,3,1.985000134,3,1.492000103,79,1,0,0,0,0,0
"80",66,1,0.5,2,"stim/objects/HouseObjects/spraybottle3.png","stim/43.jpeg",4,3,"stim/43.jpeg",1,"left",5.218000174,2,3,2.277999878,3,1.169999838,80,1,1,1,0,0,0
"81",66,1,0.1,1,"stim/objects/Instruments/musicstand4.png","stim/14.jpeg",1,4,"stim/14.jpeg",2,"right",3.201999903,1,2,6.736999989,3,0.259000063,81,0,0,NA,0,NA,0
"82",66,1,0.5,2,"stim/objects/Instruments/trombone3.png","stim/41.jpeg",4,1,"stim/41.jpeg",3,"right",19.05799985,2,3,7.233999968,2,1.036999941,82,0,0,NA,0,NA,0
"83",66,1,0.1,2,"stim/objects/HouseObjects/spraybottle4.png","stim/22.jpeg",2,2,"stim/22.jpeg",1,"right",1.514999866,3,4,2.895999908,1,0.501999855,83,0,0,NA,1,NA,0
"84",66,1,0.7,2,"stim/objects/HouseObjects/vacuumcleaner3.png","stim/51.jpeg",5,1,"stim/51.jpeg",1,"left",1.582999945,3,1,2.001999855,3,0.926000118,84,1,1,1,0,0,0
"85",66,2,0,1,"stim/objects/Instruments/balalaika2.png","",0,0,"",0,"right",1.804000139,NA,NA,NA,NA,NA,85,1,NA,NA,NA,NA,0
"86",66,2,0,2,"stim/objects/HouseObjects/iron2.png","",0,0,"",0,"right",0.927000046,NA,NA,NA,NA,NA,86,1,NA,NA,NA,NA,0
"87",66,2,0,1,"stim/objects/Instruments/vuvuzela.png","",0,0,"",0,"left",1.210000038,NA,NA,NA,NA,NA,87,0,NA,NA,NA,NA,0
"88",66,1,0.5,1,"stim/objects/Instruments/panflute3.png","stim/33.jpeg",3,3,"stim/33.jpeg",2,"right",1.014999866,4,4,2.269000053,2,2.792000055,88,0,0,NA,1,NA,0
"89",66,2,0,2,"stim/objects/HouseObjects/teapot.png","",0,0,"",0,"right",0.972999811,NA,NA,NA,NA,NA,89,1,NA,NA,NA,NA,0
"90",66,2,0,1,"stim/objects/Instruments/cymbal.png","",0,0,"",0,"left",1.667000055,NA,NA,NA,NA,NA,90,0,NA,NA,NA,NA,0
"91",66,1,0.3,2,"stim/objects/HouseObjects/broom4.png","stim/64.jpeg",6,4,"stim/64.jpeg",4,"left",0.981000185,3,2,2.075999975,3,1.003000021,91,1,0,0,0,0,0
"92",66,2,0,2,"stim/objects/HouseObjects/thread.png","",0,0,"",0,"left",5.469000101,NA,NA,NA,NA,NA,92,0,NA,NA,NA,NA,0
"93",66,1,0.3,2,"stim/objects/HouseObjects/bucket4.png","stim/61.jpeg",6,1,"stim/61.jpeg",3,"right",0.969000101,2,2,3.694000006,3,2.866999865,93,0,0,NA,1,NA,0
"94",66,2,0,1,"stim/objects/Instruments/triangle.png","",0,0,"",0,"right",1.330000162,NA,NA,NA,NA,NA,94,1,NA,NA,NA,NA,0
"95",66,1,0.3,2,"stim/objects/HouseObjects/clothesdryingrack4.png","stim/63.jpeg",6,3,"stim/63.jpeg",3,"left",2.159999847,3,1,3.10800004,4,1.549999952,95,1,0,0,0,0,0
"96",66,1,0.9,1,"stim/objects/Instruments/tuba4.png","stim/23.jpeg",2,3,"stim/23.jpeg",3,"left",1.410000086,3,3,2.042999983,2,1.505000114,96,1,1,1,0,0,0
"97",66,2,0,2,"stim/objects/HouseObjects/barbecuelighter.png","",0,0,"",0,"right",0.907999992,NA,NA,NA,NA,NA,97,1,NA,NA,NA,NA,0
"98",66,1,0.3,1,"stim/objects/Instruments/banjo4.png","stim/51.jpeg",5,1,"stim/51.jpeg",3,"right",1.105000019,2,3,1.136000156,4,1.68599987,98,0,0,NA,0,NA,0
"99",66,2,0,2,"stim/objects/HouseObjects/ashtray2.png","",0,0,"",0,"left",1.604000092,NA,NA,NA,NA,NA,99,0,NA,NA,NA,NA,0
"100",66,1,0.5,1,"stim/objects/HouseObjects/remote3.png","stim/33.jpeg",3,3,"stim/33.jpeg",2,"right",0.936999798,3,3,1.850000143,1,1.345000029,100,0,1,NA,0,NA,0
"101",66,1,0.9,1,"stim/objects/Instruments/trumpet4.png","stim/22.jpeg",2,2,"stim/22.jpeg",4,"left",3.183000088,2,3,1.488000154,1,0.337000132,101,1,0,0,0,0,0
"102",66,1,0.5,2,"stim/objects/HouseObjects/teapot3.png","stim/44.jpeg",4,4,"stim/44.jpeg",3,"right",1.049999952,2,4,1.552999973,4,1.55099988,102,0,1,NA,0,NA,0
"103",66,2,0,2,"stim/objects/HouseObjects/key2.png","",0,0,"",0,"left",1.377999783,NA,NA,NA,NA,NA,103,0,NA,NA,NA,NA,0
"104",66,2,0,2,"stim/objects/HouseObjects/key.png","",0,0,"",0,"right",1.815000057,NA,NA,NA,NA,NA,104,1,NA,NA,NA,NA,0
"105",66,1,0.1,1,"stim/objects/Instruments/saxophone4.png","stim/12.jpeg",1,2,"stim/12.jpeg",4,"left",2.125999928,4,4,2.637000084,2,2.5,105,1,0,0,0,0,0
"106",66,2,0,2,"stim/objects/HouseObjects/knife.png","",0,0,"",0,"left",2.045000076,NA,NA,NA,NA,NA,106,0,NA,NA,NA,NA,0
"107",66,1,0.3,2,"stim/objects/HouseObjects/bottle4.png","stim/63.jpeg",6,3,"stim/63.jpeg",2,"right",4.75,2,3,0.923000097,3,0.884000063,107,0,1,NA,0,NA,0
"108",66,1,0.9,2,"stim/objects/HouseObjects/lintroller4.png","stim/14.jpeg",1,4,"stim/14.jpeg",4,"right",11.76100016,3,2,1.333999872,4,0.968000174,108,0,0,NA,1,NA,0
"109",66,2,0,1,"stim/objects/Instruments/acousticguitar2.png","",0,0,"",0,"left",1.352999926,NA,NA,NA,NA,NA,109,0,NA,NA,NA,NA,0
"110",66,1,0.3,1,"stim/objects/Instruments/violin3.png","stim/53.jpeg",5,3,"stim/53.jpeg",2,"left",1.069000006,4,2,7.54399991,4,2.446000099,110,1,0,0,0,0,0
"111",66,1,0.3,1,"stim/objects/Instruments/accordion4.png","stim/52.jpeg",5,2,"stim/52.jpeg",1,"right",3.933000088,1,1,1.104000092,4,1.220999956,111,0,0,NA,0,NA,0
"112",66,1,0.5,1,"stim/objects/HouseObjects/recyclingbin3.png","stim/32.jpeg",3,2,"stim/32.jpeg",3,"left",2.700999975,2,3,4.52699995,3,1.342000008,112,1,0,0,1,1,0
"113",66,2,0,1,"stim/objects/Instruments/doublebass.png","",0,0,"",0,"left",1.286999941,NA,NA,NA,NA,NA,113,0,NA,NA,NA,NA,0
"114",66,1,0.7,1,"stim/objects/Instruments/maraca4.png","stim/61.jpeg",6,1,"stim/61.jpeg",4,"left",1.407000065,4,2,4.159000158,3,1.628999949,114,1,0,0,0,0,0
"115",66,2,0,1,"stim/objects/Instruments/cornet.png","",0,0,"",0,"left",7.536000013,NA,NA,NA,NA,NA,115,0,NA,NA,NA,NA,0
"116",66,1,0.9,2,"stim/objects/HouseObjects/rug4.png","stim/13.jpeg",1,3,"stim/13.jpeg",2,"left",0.940000057,4,1,8.333999872,1,0.602999926,116,1,0,0,0,0,0
"117",66,1,0.9,1,"stim/objects/Instruments/xylophone4.png","stim/22.jpeg",2,2,"stim/22.jpeg",4,"left",2.151000023,3,3,2.13499999,1,2.789999962,117,1,0,0,0,0,0
"118",66,2,0,2,"stim/objects/HouseObjects/ironingboard2.png","",0,0,"",0,"left",1.901000023,NA,NA,NA,NA,NA,118,0,NA,NA,NA,NA,0
"119",66,2,0,1,"stim/objects/Instruments/doublebass2.png","",0,0,"",0,"left",1.240999937,NA,NA,NA,NA,NA,119,0,NA,NA,NA,NA,0
"120",66,1,0.9,2,"stim/objects/HouseObjects/pan4.png","stim/12.jpeg",1,2,"stim/12.jpeg",4,"left",0.742000103,4,4,2.621000051,1,1.522000074,120,1,0,0,0,0,0
"121",66,2,0,2,"stim/objects/HouseObjects/ballofstring2.png","",0,0,"",0,"right",3.230000019,NA,NA,NA,NA,NA,121,1,NA,NA,NA,NA,0
"122",66,1,0.3,2,"stim/objects/HouseObjects/iron4.png","stim/61.jpeg",6,1,"stim/61.jpeg",1,"right",0.986000061,3,4,3.951999903,2,1.809999943,122,0,0,NA,0,NA,0
"123",66,1,0.5,1,"stim/objects/HouseObjects/safetypin3.png","stim/32.jpeg",3,2,"stim/32.jpeg",3,"right",1.90199995,2,4,1.477999926,3,1.020999908,123,0,0,NA,1,NA,0
"124",66,1,0.7,1,"stim/objects/Instruments/cymbal4.png","stim/61.jpeg",6,1,"stim/61.jpeg",1,"left",1.118000031,3,3,2.64199996,4,1.685000181,124,1,0,0,0,0,0
"125",66,2,0,1,"stim/objects/Instruments/cymbal2.png","",0,0,"",0,"left",1.118000031,NA,NA,NA,NA,NA,125,0,NA,NA,NA,NA,0
"126",66,2,0,1,"stim/objects/Instruments/clarinet2.png","",0,0,"",0,"left",0.804000139,NA,NA,NA,NA,NA,126,0,NA,NA,NA,NA,0
"127",66,2,0,2,"stim/objects/HouseObjects/ballofstring.png","",0,0,"",0,"right",1.098999977,NA,NA,NA,NA,NA,127,1,NA,NA,NA,NA,0
"128",66,1,0.5,1,"stim/objects/HouseObjects/rubbergloves3.png","stim/34.jpeg",3,4,"stim/34.jpeg",3,"right",1.33100009,3,3,2.502000093,4,0.849999905,128,0,0,NA,0,NA,0
"129",66,1,0.7,2,"stim/objects/HouseObjects/towel3.png","stim/54.jpeg",5,4,"stim/54.jpeg",2,"left",1.023999929,3,3,2.084000111,1,2.57400012,129,1,0,0,0,0,0
"130",66,2,0,2,"stim/objects/HouseObjects/ironingboard.png","",0,0,"",0,"right",1.424999952,NA,NA,NA,NA,NA,130,1,NA,NA,NA,NA,0
"131",66,1,0.5,1,"stim/objects/Instruments/record_player3.png","stim/32.jpeg",3,2,"stim/32.jpeg",1,"left",0.868000031,3,1,3.195000172,1,1.151000023,131,1,0,0,1,1,0
"132",66,1,0.3,1,"stim/objects/Instruments/acousticguitar4.png","stim/53.jpeg",5,3,"stim/53.jpeg",3,"left",2.730000019,3,2,1.898999929,4,1.325999975,132,1,0,0,0,0,0
"133",66,2,0,1,"stim/objects/Instruments/speaker.png","",0,0,"",0,"left",1.40899992,NA,NA,NA,NA,NA,133,0,NA,NA,NA,NA,0
"134",66,2,0,1,"stim/objects/Instruments/keyboard.png","",0,0,"",0,"right",0.767999887,NA,NA,NA,NA,NA,134,1,NA,NA,NA,NA,0
"135",66,2,0,1,"stim/objects/Instruments/marimba.png","",0,0,"",0,"left",3.004999876,NA,NA,NA,NA,NA,135,0,NA,NA,NA,NA,0
"136",66,1,0.9,2,"stim/objects/HouseObjects/pitcher4.png","stim/13.jpeg",1,3,"stim/13.jpeg",3,"left",2.270999908,4,1,6.572000027,1,1.676999807,136,1,0,0,0,0,0
"137",66,2,0,1,"stim/objects/Instruments/tambourine.png","",0,0,"",0,"left",2.500999928,NA,NA,NA,NA,NA,137,0,NA,NA,NA,NA,0
"138",66,2,0,2,"stim/objects/HouseObjects/blender2.png","",0,0,"",0,"left",0.951999903,NA,NA,NA,NA,NA,138,0,NA,NA,NA,NA,0
"139",66,2,0,1,"stim/objects/Instruments/record.png","",0,0,"",0,"left",0.917999983,NA,NA,NA,NA,NA,139,0,NA,NA,NA,NA,0
"140",66,2,0,2,"stim/objects/HouseObjects/wateringcan.png","",0,0,"",0,"left",1.375999928,NA,NA,NA,NA,NA,140,0,NA,NA,NA,NA,0
"141",66,1,0.3,1,"stim/objects/Instruments/bassdrum4.png","stim/52.jpeg",5,2,"stim/52.jpeg",2,"left",0.690999985,4,3,2,3,1.542999983,141,1,0,0,0,0,0
"142",66,2,0,2,"stim/objects/HouseObjects/towel.png","",0,0,"",0,"left",2.15199995,NA,NA,NA,NA,NA,142,0,NA,NA,NA,NA,0
"143",66,2,0,1,"stim/objects/Instruments/panflute.png","",0,0,"",0,"right",1.903000116,NA,NA,NA,NA,NA,143,1,NA,NA,NA,NA,0
"144",66,1,0.5,2,"stim/objects/HouseObjects/saw3.png","stim/44.jpeg",4,4,"stim/44.jpeg",2,"left",0.702000141,4,3,1.917000055,2,0.52699995,144,1,0,0,1,1,0
"145",66,2,0,2,"stim/objects/HouseObjects/spraybottle.png","",0,0,"",0,"right",1.513999939,NA,NA,NA,NA,NA,145,1,NA,NA,NA,NA,0
"146",66,2,0,2,"stim/objects/HouseObjects/clock2.png","",0,0,"",0,"right",2.40199995,NA,NA,NA,NA,NA,146,1,NA,NA,NA,NA,0
"147",66,2,0,1,"stim/objects/Instruments/oboe.png","",0,0,"",0,"left",0.75,NA,NA,NA,NA,NA,147,0,NA,NA,NA,NA,0
"148",66,2,0,1,"stim/objects/Instruments/chime.png","",0,0,"",0,"right",1.121000051,NA,NA,NA,NA,NA,148,1,NA,NA,NA,NA,0
"149",66,2,0,1,"stim/objects/Instruments/pipepiano.png","",0,0,"",0,"right",1.079999924,NA,NA,NA,NA,NA,149,1,NA,NA,NA,NA,0
"150",66,1,0.7,2,"stim/objects/HouseObjects/thermometer3.png","stim/52.jpeg",5,2,"stim/52.jpeg",2,"right",1.004999876,2,4,1.431999922,4,1.292999983,150,0,0,NA,0,NA,0
"151",66,2,0,1,"stim/objects/Instruments/accordion.png","",0,0,"",0,"right",1.135999918,NA,NA,NA,NA,NA,151,1,NA,NA,NA,NA,0
"152",66,1,0.3,1,"stim/objects/Instruments/balalaika4.png","stim/54.jpeg",5,4,"stim/54.jpeg",4,"right",3.974999905,1,2,1.051000118,1,2.179999828,152,0,0,NA,0,NA,0
"153",66,1,0.7,2,"stim/objects/HouseObjects/ashtray4.png","stim/53.jpeg",5,3,"stim/53.jpeg",3,"left",1.177999973,4,1,1.052000046,1,0.601999998,153,1,0,0,0,0,0
"154",66,2,0,1,"stim/objects/Instruments/cornet2.png","",0,0,"",0,"right",3.55099988,NA,NA,NA,NA,NA,154,1,NA,NA,NA,NA,0
"155",66,1,0.9,1,"stim/objects/Instruments/timbal4.png","stim/23.jpeg",2,3,"stim/23.jpeg",1,"right",1.236999989,1,1,2.742000103,2,0.959000111,155,0,0,NA,0,NA,0
"156",66,1,0.7,2,"stim/objects/HouseObjects/barbecuelighter4.png","stim/51.jpeg",5,1,"stim/51.jpeg",4,"right",2.800000191,4,4,1.502000093,4,0.590000153,156,0,0,NA,1,NA,0
"157",66,1,0.7,2,"stim/objects/HouseObjects/basket4.png","stim/52.jpeg",5,2,"stim/52.jpeg",2,"left",1.401000023,3,3,0.842999935,2,1.457000017,157,1,0,0,1,1,0
"158",66,1,0.9,2,"stim/objects/HouseObjects/rubbergloves4.png","stim/12.jpeg",1,2,"stim/12.jpeg",2,"right",3.813999891,3,1,1.985000134,2,0.859999895,158,0,0,NA,1,NA,0
"159",66,2,0,2,"stim/objects/HouseObjects/rubbergloves.png","",0,0,"",0,"right",1.589999914,NA,NA,NA,NA,NA,159,1,NA,NA,NA,NA,0
"160",66,1,0.7,1,"stim/objects/Instruments/doublebass4.png","stim/62.jpeg",6,2,"stim/62.jpeg",3,"left",0.782999992,3,3,3.04399991,3,1.002000093,160,1,0,0,1,1,0
"161",66,1,0.7,1,"stim/objects/Instruments/keyboard4.png","stim/63.jpeg",6,3,"stim/63.jpeg",2,"right",1.432999849,2,4,4.972000122,2,0.75,161,0,0,NA,1,NA,0
"162",66,1,0.1,1,"stim/objects/Instruments/oboe4.png","stim/11.jpeg",1,1,"stim/11.jpeg",4,"left",1.871000051,4,4,3.082999945,1,0.470000029,162,1,0,0,0,0,0
"163",66,1,0.1,2,"stim/objects/HouseObjects/thread4.png","stim/21.jpeg",2,1,"stim/21.jpeg",3,"right",0.809000015,2,2,1.68599987,2,3.098999977,163,0,0,NA,0,NA,0
"164",66,2,0,2,"stim/objects/HouseObjects/pitcher.png","",0,0,"",0,"right",2.229000092,NA,NA,NA,NA,NA,164,1,NA,NA,NA,NA,0
"165",66,2,0,2,"stim/objects/HouseObjects/broom2.png","",0,0,"",0,"left",0.736000061,NA,NA,NA,NA,NA,165,0,NA,NA,NA,NA,0
"166",66,2,0,1,"stim/objects/Instruments/musicsheet.png","",0,0,"",0,"left",0.924999952,NA,NA,NA,NA,NA,166,0,NA,NA,NA,NA,0
"167",66,2,0,1,"stim/objects/Instruments/bassguitar.png","",0,0,"",0,"left",0.941999912,NA,NA,NA,NA,NA,167,0,NA,NA,NA,NA,0
"168",66,2,0,1,"stim/objects/Instruments/musicstand.png","",0,0,"",0,"left",0.75999999,NA,NA,NA,NA,NA,168,0,NA,NA,NA,NA,0
"169",66,1,0.9,1,"stim/objects/Instruments/speaker4.png","stim/21.jpeg",2,1,"stim/21.jpeg",2,"left",0.601999998,4,4,3.470000029,3,1.483999968,169,1,0,0,0,0,0
"170",66,2,0,2,"stim/objects/HouseObjects/clothespin.png","",0,0,"",0,"left",8.73300004,NA,NA,NA,NA,NA,170,0,NA,NA,NA,NA,0
"171",66,2,0,1,"stim/objects/Instruments/banjo.png","",0,0,"",0,"right",0.818000078,NA,NA,NA,NA,NA,171,1,NA,NA,NA,NA,0
"172",66,1,0.1,2,"stim/objects/HouseObjects/scale4.png","stim/24.jpeg",2,4,"stim/24.jpeg",2,"right",0.868999958,3,4,3.167000055,1,1.171000004,172,0,1,NA,0,NA,0
"173",66,2,0,2,"stim/objects/HouseObjects/scale.png","",0,0,"",0,"right",1.878000021,NA,NA,NA,NA,NA,173,1,NA,NA,NA,NA,0
"174",66,2,0,1,"stim/objects/Instruments/bassdrum2.png","",0,0,"",0,"left",0.805999994,NA,NA,NA,NA,NA,174,0,NA,NA,NA,NA,0
"175",66,2,0,2,"stim/objects/HouseObjects/bucket.png","",0,0,"",0,"right",0.801000118,NA,NA,NA,NA,NA,175,1,NA,NA,NA,NA,0
"176",66,2,0,2,"stim/objects/HouseObjects/bucket2.png","",0,0,"",0,"left",1.851999998,NA,NA,NA,NA,NA,176,0,NA,NA,NA,NA,0
"177",66,2,0,1,"stim/objects/Instruments/maraca2.png","",0,0,"",0,"right",2.103999853,NA,NA,NA,NA,NA,177,1,NA,NA,NA,NA,0
"178",66,2,0,2,"stim/objects/HouseObjects/clock.png","",0,0,"",0,"left",0.898000002,NA,NA,NA,NA,NA,178,0,NA,NA,NA,NA,0
"179",66,2,0,2,"stim/objects/HouseObjects/recyclingbin.png","",0,0,"",0,"left",1.436000109,NA,NA,NA,NA,NA,179,0,NA,NA,NA,NA,0
"180",66,1,0.7,2,"stim/objects/HouseObjects/ballofstring4.png","stim/54.jpeg",5,4,"stim/54.jpeg",3,"right",0.835999966,3,3,2.488000154,2,2.443000078,180,0,0,NA,0,NA,0
"181",66,1,0.9,2,"stim/objects/HouseObjects/knife4.png","stim/13.jpeg",1,3,"stim/13.jpeg",2,"right",0.982999802,3,1,2.009000063,1,0.655999899,181,0,0,NA,0,NA,0
"182",66,1,0.5,1,"stim/objects/HouseObjects/rug3.png","stim/31.jpeg",3,1,"stim/31.jpeg",4,"left",1.039999962,4,4,3.076999903,1,1.701999903,182,1,0,0,0,0,0
"183",66,2,0,1,"stim/objects/Instruments/trumpet.png","",0,0,"",0,"left",1.789999962,NA,NA,NA,NA,NA,183,0,NA,NA,NA,NA,0
"184",66,1,0.9,2,"stim/objects/HouseObjects/recyclingbin4.png","stim/14.jpeg",1,4,"stim/14.jpeg",3,"left",0.875999928,3,4,2.135999918,1,0.595000029,184,1,1,1,0,0,0
"185",66,1,0.9,1,"stim/objects/Instruments/vuvuzela4.png","stim/21.jpeg",2,1,"stim/21.jpeg",2,"left",0.818000078,4,4,1.633999825,4,2.173000097,185,1,0,0,0,0,0
"186",66,1,0.3,1,"stim/objects/Instruments/vuvuzela3.png","stim/54.jpeg",5,4,"stim/54.jpeg",4,"left",1.154000044,4,4,0.782000065,4,0.943000078,186,1,1,1,1,1,0
"187",66,2,0,1,"stim/objects/Instruments/saxophone.png","",0,0,"",0,"left",4.380000114,NA,NA,NA,NA,NA,187,0,NA,NA,NA,NA,0
"188",66,2,0,1,"stim/objects/Instruments/metronome.png","",0,0,"",0,"left",0.801000118,NA,NA,NA,NA,NA,188,0,NA,NA,NA,NA,0
"189",66,1,0.9,1,"stim/objects/Instruments/tambourine4.png","stim/22.jpeg",2,2,"stim/22.jpeg",2,"left",2.104000092,3,3,1.411000013,2,2.231999874,189,1,0,0,1,1,0
"190",66,1,0.7,2,"stim/objects/HouseObjects/thread3.png","stim/53.jpeg",5,3,"stim/53.jpeg",1,"right",1.357000113,2,2,0.940999985,4,2.402999878,190,0,0,NA,0,NA,0
"191",66,2,0,2,"stim/objects/HouseObjects/basket.png","",0,0,"",0,"left",1.024999857,NA,NA,NA,NA,NA,191,0,NA,NA,NA,NA,0
"192",66,1,0.3,2,"stim/objects/HouseObjects/clothespin4.png","stim/64.jpeg",6,4,"stim/64.jpeg",1,"left",0.736000061,3,4,2.18599987,1,0.559000015,192,1,1,1,1,1,0
"193",66,1,0.1,1,"stim/objects/Instruments/pipepiano4.png","stim/13.jpeg",1,3,"stim/13.jpeg",3,"right",3.457999945,3,4,1.446000099,1,0.835000038,193,0,0,NA,0,NA,0
"194",66,2,0,1,"stim/objects/Instruments/bassguitar2.png","",0,0,"",0,"left",2.674000025,NA,NA,NA,NA,NA,194,0,NA,NA,NA,NA,0
"195",66,2,0,1,"stim/objects/Instruments/chime2.png","",0,0,"",0,"right",0.752000093,NA,NA,NA,NA,NA,195,1,NA,NA,NA,NA,0
"196",66,2,0,2,"stim/objects/HouseObjects/barbecuelighter2.png","",0,0,"",0,"right",3.460000038,NA,NA,NA,NA,NA,196,1,NA,NA,NA,NA,0
"197",66,2,0,1,"stim/objects/Instruments/timbal.png","",0,0,"",0,"right",2.932999849,NA,NA,NA,NA,NA,197,1,NA,NA,NA,NA,0
"198",66,1,0.1,2,"stim/objects/HouseObjects/towel4.png","stim/22.jpeg",2,2,"stim/22.jpeg",2,"left",0.717999935,3,4,1.868000031,1,0.518999815,198,1,0,0,0,0,0
"199",66,1,0.5,1,"stim/objects/Instruments/pipepiano3.png","stim/34.jpeg",3,4,"stim/34.jpeg",2,"right",0.852999926,3,4,0.782999992,1,0.551999807,199,0,1,NA,0,NA,0
"200",66,2,0,2,"stim/objects/HouseObjects/blender.png","",0,0,"",0,"left",2.233999968,NA,NA,NA,NA,NA,200,0,NA,NA,NA,NA,0
