"","participant","trialN","trial_cond","scn_file","scn_cat","scn_inst","scn_condition","fillers","obj_cat","obj_cat_num","obj_file","quadrant","corr_ans","key_resp_trial.keys","key_resp_trial.rt","trial_acc","trial_acc_manual","group"
"248",66,241,0.9,"stim/23.jpeg",2,3,3,2,"Instruments",1,"stim/objects/Instruments/musicsheet3.png",1,"left","left",0.78399992,1,1,1
"249",66,242,0.9,"stim/14.jpeg",1,4,3,2,"HouseObjects",2,"stim/objects/HouseObjects/knife3.png",3,"right","right",0.621000051,1,1,1
"250",66,243,0.9,"stim/22.jpeg",2,2,3,2,"Instruments",1,"stim/objects/Instruments/oboe3.png",4,"left","left",0.528999805,1,1,1
"251",66,244,0.9,"stim/23.jpeg",2,3,3,2,"Instruments",1,"stim/objects/Instruments/metronome3.png",4,"left","left",0.457000017,1,1,1
"252",66,245,0.9,"stim/12.jpeg",1,2,3,2,"HouseObjects",2,"stim/objects/HouseObjects/knife3.png",2,"right","right",0.463999987,1,1,1
"253",66,246,0.5,"stim/32.jpeg",3,2,1,2,"Instruments",1,"stim/objects/Instruments/bassdrum3.png",1,"left","right",0.595999956,0,0,1
"254",66,247,0.5,"stim/31.jpeg",3,1,1,2,"HouseObjects",2,"stim/objects/HouseObjects/bleachbottle3.png",4,"right","right",0.636999846,1,1,1
"255",66,248,0.5,"stim/32.jpeg",3,2,1,2,"HouseObjects",2,"stim/objects/HouseObjects/barbecuelighter3.png",3,"right","right",0.453000069,1,1,1
"256",66,249,0.7,"stim/63.jpeg",6,3,2,2,"Instruments",1,"stim/objects/Instruments/doublebass3.png",2,"left","left",0.499000072,1,1,1
"257",66,250,0.5,"stim/44.jpeg",4,4,1,2,"Instruments",1,"stim/objects/Instruments/cornet3.png",4,"left","right",0.585999966,0,0,1
"258",66,251,0.9,"stim/22.jpeg",2,2,3,2,"Instruments",1,"stim/objects/Instruments/metronome3.png",4,"left","left",0.539999962,1,1,1
"259",66,252,0.9,"stim/11.jpeg",1,1,3,2,"HouseObjects",2,"stim/objects/HouseObjects/lintroller3.png",4,"right","right",0.580999851,1,1,1
"260",66,253,0.9,"stim/21.jpeg",2,1,3,2,"Instruments",1,"stim/objects/Instruments/marimba3.png",3,"left","right",0.555999994,0,0,1
"261",66,254,0.9,"stim/11.jpeg",1,1,3,2,"HouseObjects",2,"stim/objects/HouseObjects/lintroller3.png",1,"right","right",0.546999931,1,1,1
"262",66,255,0.7,"stim/64.jpeg",6,4,2,2,"Instruments",1,"stim/objects/Instruments/laud3.png",3,"left","left",0.721999884,1,1,1
"263",66,256,0.9,"stim/11.jpeg",1,1,3,2,"HouseObjects",2,"stim/objects/HouseObjects/knife3.png",4,"right","right",0.530999899,1,1,1
"264",66,257,0.9,"stim/24.jpeg",2,4,3,2,"Instruments",1,"stim/objects/Instruments/musicsheet3.png",2,"left","left",0.489999771,1,1,1
"265",66,258,0.9,"stim/24.jpeg",2,4,3,2,"Instruments",1,"stim/objects/Instruments/metronome3.png",3,"left","left",0.417000055,1,1,1
"266",66,259,0.9,"stim/13.jpeg",1,3,3,2,"HouseObjects",2,"stim/objects/HouseObjects/knife3.png",2,"right","right",0.438999891,1,1,1
"267",66,260,0.9,"stim/13.jpeg",1,3,3,2,"HouseObjects",2,"stim/objects/HouseObjects/pan3.png",4,"right","right",0.468999863,1,1,1
"268",66,261,0.7,"stim/63.jpeg",6,3,2,2,"Instruments",1,"stim/objects/Instruments/keyboard3.png",2,"left","left",0.537999868,1,1,1
"269",66,262,0.7,"stim/53.jpeg",5,3,2,1,"HouseObjects",2,"stim/objects/HouseObjects/bleachbottle4.png",1,"right","right",0.451999903,1,1,1
"270",66,263,0.5,"stim/43.jpeg",4,3,1,2,"HouseObjects",2,"stim/objects/HouseObjects/clock3.png",1,"right","right",0.582999945,1,1,1
"271",66,264,0.9,"stim/13.jpeg",1,3,3,2,"HouseObjects",2,"stim/objects/HouseObjects/pan3.png",3,"right","right",0.621999979,1,1,1
"272",66,265,0.9,"stim/14.jpeg",1,4,3,2,"HouseObjects",2,"stim/objects/HouseObjects/lintroller3.png",1,"right","right",0.466999769,1,1,1
"273",66,266,0.3,"stim/54.jpeg",5,4,2,1,"Instruments",1,"stim/objects/Instruments/balalaika4.png",4,"left","right",0.625999928,0,0,1
"274",66,267,0.9,"stim/23.jpeg",2,3,3,2,"Instruments",1,"stim/objects/Instruments/oboe3.png",3,"left","left",0.415999889,1,1,1
"275",66,268,0.9,"stim/24.jpeg",2,4,3,2,"Instruments",1,"stim/objects/Instruments/oboe3.png",1,"left","left",0.502999783,1,1,1
"276",66,269,0.9,"stim/23.jpeg",2,3,3,2,"Instruments",1,"stim/objects/Instruments/oboe3.png",3,"left","left",0.496999979,1,1,1
"277",66,270,0.9,"stim/23.jpeg",2,3,3,2,"Instruments",1,"stim/objects/Instruments/marimba3.png",4,"left","left",0.472999811,1,1,1
"278",66,271,0.5,"stim/43.jpeg",4,3,1,2,"Instruments",1,"stim/objects/Instruments/bassguitar3.png",4,"left","right",0.455999851,0,0,1
"279",66,272,0.9,"stim/22.jpeg",2,2,3,1,"Instruments",1,"stim/objects/Instruments/trumpet4.png",4,"left","left",0.526999712,1,1,1
"280",66,273,0.7,"stim/51.jpeg",5,1,2,1,"HouseObjects",2,"stim/objects/HouseObjects/vacuumcleaner3.png",1,"right","right",0.470000029,1,1,1
"281",66,274,0.5,"stim/43.jpeg",4,3,1,2,"HouseObjects",2,"stim/objects/HouseObjects/blender3.png",2,"right","right",0.631999969,1,1,1
"282",66,275,0.9,"stim/24.jpeg",2,4,3,2,"Instruments",1,"stim/objects/Instruments/musicstand3.png",2,"left","left",0.432999849,1,1,1
"283",66,276,0.7,"stim/64.jpeg",6,4,2,1,"Instruments",1,"stim/objects/Instruments/cornet4.png",1,"left","right",0.482999802,0,0,1
"284",66,277,0.9,"stim/22.jpeg",2,2,3,2,"Instruments",1,"stim/objects/Instruments/musicsheet3.png",3,"left","left",0.633999825,1,1,1
"285",66,278,0.3,"stim/62.jpeg",6,2,2,1,"HouseObjects",2,"stim/objects/HouseObjects/blender4.png",1,"right","left",0.620999813,0,0,1
"286",66,279,0.9,"stim/21.jpeg",2,1,3,2,"Instruments",1,"stim/objects/Instruments/musicstand3.png",3,"left","left",0.552000046,1,1,1
"287",66,280,0.5,"stim/31.jpeg",3,1,1,2,"Instruments",1,"stim/objects/Instruments/banjo3.png",1,"left","right",0.467999935,0,0,1
"288",66,281,0.9,"stim/13.jpeg",1,3,3,2,"HouseObjects",2,"stim/objects/HouseObjects/lintroller3.png",4,"right","right",0.684999943,1,1,1
"289",66,282,0.5,"stim/41.jpeg",4,1,1,2,"Instruments",1,"stim/objects/Instruments/cello3.png",4,"left","right",0.786999941,0,0,1
"290",66,283,0.9,"stim/24.jpeg",2,4,3,2,"Instruments",1,"stim/objects/Instruments/metronome3.png",1,"left","left",0.569999933,1,1,1
"291",66,284,0.5,"stim/41.jpeg",4,1,1,1,"Instruments",1,"stim/objects/Instruments/trombone3.png",3,"left","left",0.635999918,1,1,1
"292",66,285,0.9,"stim/13.jpeg",1,3,3,2,"HouseObjects",2,"stim/objects/HouseObjects/lintroller3.png",3,"right","right",0.482999802,1,1,1
"293",66,286,0.9,"stim/13.jpeg",1,3,3,2,"HouseObjects",2,"stim/objects/HouseObjects/knife3.png",1,"right","right",0.474999905,1,1,1
"294",66,287,0.3,"stim/52.jpeg",5,2,2,1,"Instruments",1,"stim/objects/Instruments/accordion4.png",1,"left","right",0.587999821,0,0,1
"295",66,288,0.3,"stim/54.jpeg",5,4,2,1,"Instruments",1,"stim/objects/Instruments/vuvuzela3.png",4,"left","right",0.620000124,0,0,1
"296",66,289,0.9,"stim/21.jpeg",2,1,3,2,"Instruments",1,"stim/objects/Instruments/metronome3.png",2,"left","left",0.556999922,1,1,1
"297",66,290,0.9,"stim/13.jpeg",1,3,3,1,"HouseObjects",2,"stim/objects/HouseObjects/rug4.png",2,"right","right",0.531000137,1,1,1
"298",66,291,0.5,"stim/44.jpeg",4,4,1,1,"HouseObjects",2,"stim/objects/HouseObjects/saw3.png",2,"right","right",0.633999825,1,1,1
"299",66,292,0.7,"stim/61.jpeg",6,1,2,1,"Instruments",1,"stim/objects/Instruments/cymbal4.png",1,"left","right",0.687999964,0,0,1
"300",66,293,0.7,"stim/62.jpeg",6,2,2,1,"Instruments",1,"stim/objects/Instruments/chime4.png",4,"left","left",0.738999844,1,1,1
"301",66,294,0.5,"stim/43.jpeg",4,3,1,1,"Instruments",1,"stim/objects/Instruments/timbal3.png",1,"left","right",0.517999887,0,0,1
"302",66,295,0.5,"stim/32.jpeg",3,2,1,1,"HouseObjects",2,"stim/objects/HouseObjects/recyclingbin3.png",3,"right","right",0.570999861,1,1,1
"303",66,296,0.5,"stim/44.jpeg",4,4,1,2,"HouseObjects",2,"stim/objects/HouseObjects/broom3.png",4,"right","right",0.618999958,1,1,1
"304",66,297,0.3,"stim/51.jpeg",5,1,2,1,"Instruments",1,"stim/objects/Instruments/xylophone3.png",1,"left","right",0.503999949,0,0,1
"305",66,298,0.9,"stim/21.jpeg",2,1,3,1,"Instruments",1,"stim/objects/Instruments/speaker4.png",2,"left","left",0.384000063,1,1,1
"306",66,299,0.9,"stim/13.jpeg",1,3,3,1,"HouseObjects",2,"stim/objects/HouseObjects/pitcher4.png",3,"right","right",0.436999798,1,1,1
"307",66,300,0.9,"stim/12.jpeg",1,2,3,2,"HouseObjects",2,"stim/objects/HouseObjects/lintroller3.png",3,"right","right",0.436999798,1,1,1
"308",66,301,0.9,"stim/12.jpeg",1,2,3,2,"HouseObjects",2,"stim/objects/HouseObjects/lintroller3.png",4,"right","right",0.486999989,1,1,1
"309",66,302,0.9,"stim/21.jpeg",2,1,3,2,"Instruments",1,"stim/objects/Instruments/musicsheet3.png",3,"left","left",0.554999828,1,1,1
"310",66,303,0.7,"stim/62.jpeg",6,2,2,2,"Instruments",1,"stim/objects/Instruments/doublebass3.png",3,"left","left",0.74000001,1,1,1
"311",66,304,0.5,"stim/41.jpeg",4,1,1,1,"Instruments",1,"stim/objects/Instruments/speaker3.png",4,"left","left",0.664999723,1,1,1
"312",66,305,0.9,"stim/23.jpeg",2,3,3,2,"Instruments",1,"stim/objects/Instruments/marimba3.png",1,"left","left",0.467999935,1,1,1
"313",66,306,0.9,"stim/24.jpeg",2,4,3,2,"Instruments",1,"stim/objects/Instruments/oboe3.png",1,"left","left",0.547999859,1,1,1
"314",66,307,0.1,"stim/11.jpeg",1,1,3,1,"Instruments",1,"stim/objects/Instruments/marimba4.png",4,"left","right",0.670999765,0,0,1
"315",66,308,0.9,"stim/21.jpeg",2,1,3,2,"Instruments",1,"stim/objects/Instruments/oboe3.png",1,"left","left",0.467999935,1,1,1
"316",66,309,0.9,"stim/12.jpeg",1,2,3,1,"HouseObjects",2,"stim/objects/HouseObjects/pan4.png",4,"right","right",0.521999836,1,1,1
"317",66,310,0.5,"stim/41.jpeg",4,1,1,2,"Instruments",1,"stim/objects/Instruments/chime3.png",2,"left","left",0.720999956,1,1,1
"318",66,311,0.5,"stim/33.jpeg",3,3,1,1,"Instruments",1,"stim/objects/Instruments/panflute3.png",2,"left","right",0.578999996,0,0,1
"319",66,312,0.7,"stim/64.jpeg",6,4,2,1,"Instruments",1,"stim/objects/Instruments/bassguitar4.png",1,"left","left",0.861000061,1,1,1
"320",66,313,0.9,"stim/22.jpeg",2,2,3,2,"Instruments",1,"stim/objects/Instruments/metronome3.png",3,"left","left",0.447999954,1,1,1
"321",66,314,0.9,"stim/24.jpeg",2,4,3,2,"Instruments",1,"stim/objects/Instruments/musicsheet3.png",2,"left","left",0.493999958,1,1,1
"322",66,315,0.5,"stim/31.jpeg",3,1,1,1,"Instruments",1,"stim/objects/Instruments/record3.png",4,"left","left",0.697999954,1,1,1
"323",66,316,0.7,"stim/51.jpeg",5,1,2,1,"HouseObjects",2,"stim/objects/HouseObjects/barbecuelighter4.png",4,"right","right",0.532999992,1,1,1
"324",66,317,0.9,"stim/14.jpeg",1,4,3,2,"HouseObjects",2,"stim/objects/HouseObjects/pan3.png",4,"right","right",0.746999979,1,1,1
"325",66,318,0.5,"stim/44.jpeg",4,4,1,1,"Instruments",1,"stim/objects/Instruments/triangle3.png",1,"left","right",0.622999907,0,0,1
"326",66,319,0.9,"stim/14.jpeg",1,4,3,2,"HouseObjects",2,"stim/objects/HouseObjects/match3.png",2,"right","right",0.604000092,1,1,1
"327",66,320,0.5,"stim/33.jpeg",3,3,1,2,"Instruments",1,"stim/objects/Instruments/acousticguitar3.png",1,"left","right",0.455999851,0,0,1
"328",66,321,0.1,"stim/11.jpeg",1,1,3,1,"Instruments",1,"stim/objects/Instruments/oboe4.png",4,"left","right",0.77699995,0,0,1
"329",66,322,0.9,"stim/24.jpeg",2,4,3,2,"Instruments",1,"stim/objects/Instruments/metronome3.png",1,"left","",NA,0,0,1
"330",66,323,0.5,"stim/33.jpeg",3,3,1,1,"Instruments",1,"stim/objects/Instruments/saxophone3.png",3,"left","right",0.804000139,0,0,1
"331",66,324,0.5,"stim/33.jpeg",3,3,1,2,"HouseObjects",2,"stim/objects/HouseObjects/basket3.png",4,"right","left",0.489999771,0,0,1
"332",66,325,0.5,"stim/34.jpeg",3,4,1,1,"Instruments",1,"stim/objects/Instruments/pipepiano3.png",2,"left","left",0.703000069,1,1,1
"333",66,326,0.9,"stim/21.jpeg",2,1,3,2,"Instruments",1,"stim/objects/Instruments/oboe3.png",1,"left","left",0.537999868,1,1,1
"334",66,327,0.7,"stim/51.jpeg",5,1,2,2,"HouseObjects",2,"stim/objects/HouseObjects/iron3.png",3,"right","right",0.56099987,1,1,1
"335",66,328,0.5,"stim/32.jpeg",3,2,1,1,"Instruments",1,"stim/objects/Instruments/record_player3.png",1,"left","right",0.549999952,0,0,1
"336",66,329,0.9,"stim/21.jpeg",2,1,3,2,"Instruments",1,"stim/objects/Instruments/musicsheet3.png",3,"left","left",0.454999924,1,1,1
"337",66,330,0.7,"stim/64.jpeg",6,4,2,2,"Instruments",1,"stim/objects/Instruments/keyboard3.png",2,"left","left",0.566999912,1,1,1
"338",66,331,0.9,"stim/14.jpeg",1,4,3,2,"HouseObjects",2,"stim/objects/HouseObjects/pitcher3.png",2,"right","right",0.600999832,1,1,1
"339",66,332,0.7,"stim/54.jpeg",5,4,2,2,"HouseObjects",2,"stim/objects/HouseObjects/clothespin3.png",4,"right","right",0.518999815,1,1,1
"340",66,333,0.9,"stim/14.jpeg",1,4,3,2,"HouseObjects",2,"stim/objects/HouseObjects/pitcher3.png",1,"right","right",0.489999771,1,1,1
"341",66,334,0.9,"stim/11.jpeg",1,1,3,2,"HouseObjects",2,"stim/objects/HouseObjects/pan3.png",2,"right","right",0.604000092,1,1,1
"342",66,335,0.9,"stim/13.jpeg",1,3,3,2,"HouseObjects",2,"stim/objects/HouseObjects/knife3.png",1,"right","right",0.7099998,1,1,1
"343",66,336,0.1,"stim/24.jpeg",2,4,3,1,"HouseObjects",2,"stim/objects/HouseObjects/thermometer4.png",1,"right","left",0.523000002,0,0,1
"344",66,337,0.7,"stim/52.jpeg",5,2,2,2,"HouseObjects",2,"stim/objects/HouseObjects/ironingboard3.png",3,"right","right",0.602999926,1,1,1
"345",66,338,0.9,"stim/12.jpeg",1,2,3,2,"HouseObjects",2,"stim/objects/HouseObjects/pan3.png",1,"right","right",0.539000034,1,1,1
"346",66,339,0.9,"stim/12.jpeg",1,2,3,2,"HouseObjects",2,"stim/objects/HouseObjects/knife3.png",3,"right","right",0.44299984,1,1,1
"347",66,340,0.9,"stim/23.jpeg",2,3,3,2,"Instruments",1,"stim/objects/Instruments/musicstand3.png",1,"left","left",0.55099988,1,1,1
"348",66,341,0.9,"stim/21.jpeg",2,1,3,2,"Instruments",1,"stim/objects/Instruments/marimba3.png",3,"left","left",0.438999891,1,1,1
"349",66,342,0.9,"stim/13.jpeg",1,3,3,2,"HouseObjects",2,"stim/objects/HouseObjects/lintroller3.png",4,"right","right",0.839999914,1,1,1
"350",66,343,0.1,"stim/21.jpeg",2,1,3,1,"HouseObjects",2,"stim/objects/HouseObjects/sponge4.png",3,"right","left",0.497999907,0,0,1
"351",66,344,0.5,"stim/34.jpeg",3,4,1,2,"HouseObjects",2,"stim/objects/HouseObjects/basket3.png",1,"right","right",0.671000004,1,1,1
"352",66,345,0.9,"stim/23.jpeg",2,3,3,2,"Instruments",1,"stim/objects/Instruments/marimba3.png",2,"left","left",0.500999928,1,1,1
"353",66,346,0.9,"stim/21.jpeg",2,1,3,2,"Instruments",1,"stim/objects/Instruments/metronome3.png",4,"left","left",0.484999895,1,1,1
"354",66,347,0.9,"stim/23.jpeg",2,3,3,2,"Instruments",1,"stim/objects/Instruments/marimba3.png",3,"left","left",0.470000029,1,1,1
"355",66,348,0.3,"stim/63.jpeg",6,3,2,1,"HouseObjects",2,"stim/objects/HouseObjects/key4.png",1,"right","left",0.742999792,0,0,1
"356",66,349,0.9,"stim/11.jpeg",1,1,3,2,"HouseObjects",2,"stim/objects/HouseObjects/pitcher3.png",2,"right","right",0.513999939,1,1,1
"357",66,350,0.5,"stim/34.jpeg",3,4,1,2,"Instruments",1,"stim/objects/Instruments/banjo3.png",3,"left","left",0.815999746,1,1,1
"358",66,351,0.5,"stim/31.jpeg",3,1,1,1,"HouseObjects",2,"stim/objects/HouseObjects/rug3.png",4,"right","left",0.522000074,0,0,1
"359",66,352,0.5,"stim/33.jpeg",3,3,1,1,"HouseObjects",2,"stim/objects/HouseObjects/remote3.png",2,"right","left",0.890999794,0,0,1
"360",66,353,0.5,"stim/31.jpeg",3,1,1,2,"Instruments",1,"stim/objects/Instruments/accordion3.png",1,"left","right",0.574999809,0,0,1
"361",66,354,0.9,"stim/14.jpeg",1,4,3,2,"HouseObjects",2,"stim/objects/HouseObjects/pan3.png",3,"right","right",0.551000118,1,1,1
"362",66,355,0.7,"stim/53.jpeg",5,3,2,2,"HouseObjects",2,"stim/objects/HouseObjects/iron3.png",3,"right","right",0.529999971,1,1,1
"363",66,356,0.5,"stim/42.jpeg",4,2,1,2,"Instruments",1,"stim/objects/Instruments/clarinet3.png",2,"left","right",0.720999956,0,0,1
"364",66,357,0.3,"stim/63.jpeg",6,3,2,1,"HouseObjects",2,"stim/objects/HouseObjects/bottle4.png",2,"right","left",0.587999821,0,0,1
"365",66,358,0.9,"stim/23.jpeg",2,3,3,2,"Instruments",1,"stim/objects/Instruments/oboe3.png",1,"left","left",0.496999979,1,1,1
"366",66,359,0.7,"stim/53.jpeg",5,3,2,1,"HouseObjects",2,"stim/objects/HouseObjects/ashtray4.png",3,"right","right",0.490999937,1,1,1
"367",66,360,0.9,"stim/22.jpeg",2,2,3,1,"Instruments",1,"stim/objects/Instruments/tambourine4.png",2,"left","left",0.46999979,1,1,1
"368",66,361,0.1,"stim/22.jpeg",2,2,3,1,"HouseObjects",2,"stim/objects/HouseObjects/towel4.png",2,"right","left",0.41899991,0,0,1
"369",66,362,0.7,"stim/64.jpeg",6,4,2,2,"Instruments",1,"stim/objects/Instruments/doublebass3.png",3,"left","right",0.506999969,0,0,1
"370",66,363,0.3,"stim/62.jpeg",6,2,2,1,"HouseObjects",2,"stim/objects/HouseObjects/clock4.png",2,"right","left",0.582999945,0,0,1
"371",66,364,0.9,"stim/11.jpeg",1,1,3,2,"HouseObjects",2,"stim/objects/HouseObjects/knife3.png",3,"right","right",0.480999947,1,1,1
"372",66,365,0.3,"stim/51.jpeg",5,1,2,1,"Instruments",1,"stim/objects/Instruments/trumpet3.png",2,"left","right",0.438999891,0,0,1
"373",66,366,0.5,"stim/34.jpeg",3,4,1,2,"Instruments",1,"stim/objects/Instruments/balalaika3.png",4,"left","right",0.572000027,0,0,1
"374",66,367,0.5,"stim/43.jpeg",4,3,1,2,"Instruments",1,"stim/objects/Instruments/clarinet3.png",2,"left","left",0.700999737,1,1,1
"375",66,368,0.7,"stim/61.jpeg",6,1,2,1,"Instruments",1,"stim/objects/Instruments/maraca4.png",4,"left","left",0.735999823,1,1,1
"376",66,369,0.9,"stim/14.jpeg",1,4,3,1,"HouseObjects",2,"stim/objects/HouseObjects/lintroller4.png",4,"right","right",0.634000063,1,1,1
"377",66,370,0.9,"stim/11.jpeg",1,1,3,2,"HouseObjects",2,"stim/objects/HouseObjects/lintroller3.png",2,"right","right",0.683000088,1,1,1
"378",66,371,0.9,"stim/23.jpeg",2,3,3,2,"Instruments",1,"stim/objects/Instruments/musicsheet3.png",1,"left","left",0.453999996,1,1,1
"379",66,372,0.5,"stim/42.jpeg",4,2,1,2,"HouseObjects",2,"stim/objects/HouseObjects/bucket3.png",1,"right","left",0.731999874,0,0,1
"380",66,373,0.9,"stim/12.jpeg",1,2,3,2,"HouseObjects",2,"stim/objects/HouseObjects/pan3.png",3,"right","right",0.545000076,1,1,1
"381",66,374,0.9,"stim/21.jpeg",2,1,3,2,"Instruments",1,"stim/objects/Instruments/musicstand3.png",2,"left","left",0.786999941,1,1,1
"382",66,375,0.9,"stim/12.jpeg",1,2,3,2,"HouseObjects",2,"stim/objects/HouseObjects/knife3.png",1,"right","right",0.536999941,1,1,1
"383",66,376,0.9,"stim/21.jpeg",2,1,3,2,"Instruments",1,"stim/objects/Instruments/musicsheet3.png",4,"left","left",0.506999969,1,1,1
"384",66,377,0.9,"stim/22.jpeg",2,2,3,2,"Instruments",1,"stim/objects/Instruments/marimba3.png",3,"left","left",0.475999832,1,1,1
"385",66,378,0.1,"stim/14.jpeg",1,4,3,1,"Instruments",1,"stim/objects/Instruments/musicstand4.png",2,"left","right",0.623999834,0,0,1
"386",66,379,0.9,"stim/11.jpeg",1,1,3,2,"HouseObjects",2,"stim/objects/HouseObjects/pitcher3.png",4,"right","right",0.70299983,1,1,1
"387",66,380,0.9,"stim/13.jpeg",1,3,3,2,"HouseObjects",2,"stim/objects/HouseObjects/match3.png",4,"right","right",0.598999977,1,1,1
"388",66,381,0.9,"stim/23.jpeg",2,3,3,1,"Instruments",1,"stim/objects/Instruments/timbal4.png",1,"left","left",0.439999819,1,1,1
"389",66,382,0.9,"stim/24.jpeg",2,4,3,2,"Instruments",1,"stim/objects/Instruments/musicsheet3.png",2,"left","right",0.482999802,0,0,1
"390",66,383,0.9,"stim/21.jpeg",2,1,3,1,"Instruments",1,"stim/objects/Instruments/vuvuzela4.png",2,"left","left",0.470999956,1,1,1
"391",66,384,0.9,"stim/14.jpeg",1,4,3,2,"HouseObjects",2,"stim/objects/HouseObjects/lintroller3.png",1,"right","right",0.486999989,1,1,1
"392",66,385,0.5,"stim/34.jpeg",3,4,1,2,"HouseObjects",2,"stim/objects/HouseObjects/ashtray3.png",2,"right","left",0.750999928,0,0,1
"393",66,386,0.9,"stim/11.jpeg",1,1,3,2,"HouseObjects",2,"stim/objects/HouseObjects/match3.png",3,"right","right",0.508000135,1,1,1
"394",66,387,0.9,"stim/14.jpeg",1,4,3,2,"HouseObjects",2,"stim/objects/HouseObjects/pan3.png",3,"right","right",0.483999729,1,1,1
"395",66,388,0.7,"stim/54.jpeg",5,4,2,2,"HouseObjects",2,"stim/objects/HouseObjects/key3.png",2,"right","right",0.582000017,1,1,1
"396",66,389,0.1,"stim/14.jpeg",1,4,3,1,"Instruments",1,"stim/objects/Instruments/record4.png",3,"left","right",0.470999718,0,0,1
"397",66,390,0.7,"stim/62.jpeg",6,2,2,2,"Instruments",1,"stim/objects/Instruments/cymbal3.png",4,"left","right",0.583999872,0,0,1
"398",66,391,0.3,"stim/52.jpeg",5,2,2,1,"Instruments",1,"stim/objects/Instruments/bassdrum4.png",2,"left","right",0.539999962,0,0,1
"399",66,392,0.3,"stim/61.jpeg",6,1,2,1,"HouseObjects",2,"stim/objects/HouseObjects/bucket4.png",3,"right","left",0.777999878,0,0,1
"400",66,393,0.9,"stim/21.jpeg",2,1,3,2,"Instruments",1,"stim/objects/Instruments/marimba3.png",2,"left","left",0.520999908,1,1,1
"401",66,394,0.7,"stim/52.jpeg",5,2,2,1,"HouseObjects",2,"stim/objects/HouseObjects/wateringcan3.png",4,"right","right",0.674999952,1,1,1
"402",66,395,0.9,"stim/21.jpeg",2,1,3,2,"Instruments",1,"stim/objects/Instruments/marimba3.png",2,"left","left",0.5,1,1,1
"403",66,396,0.7,"stim/54.jpeg",5,4,2,2,"HouseObjects",2,"stim/objects/HouseObjects/clothesdryingrack3.png",1,"right","right",0.519999743,1,1,1
"404",66,397,0.7,"stim/52.jpeg",5,2,2,1,"HouseObjects",2,"stim/objects/HouseObjects/basket4.png",2,"right","right",0.473999739,1,1,1
"405",66,398,0.9,"stim/24.jpeg",2,4,3,2,"Instruments",1,"stim/objects/Instruments/marimba3.png",1,"left","left",0.624000072,1,1,1
"406",66,399,0.9,"stim/22.jpeg",2,2,3,2,"Instruments",1,"stim/objects/Instruments/metronome3.png",1,"left","left",0.475999832,1,1,1
"407",66,400,0.1,"stim/12.jpeg",1,2,3,1,"Instruments",1,"stim/objects/Instruments/saxophone4.png",4,"left","right",0.468999863,0,0,1
"408",66,401,0.5,"stim/31.jpeg",3,1,1,2,"HouseObjects",2,"stim/objects/HouseObjects/ballofstring3.png",3,"right","right",0.566999912,1,1,1
"409",66,402,0.7,"stim/51.jpeg",5,1,2,2,"HouseObjects",2,"stim/objects/HouseObjects/clothespin3.png",2,"right","right",0.587999821,1,1,1
"410",66,403,0.5,"stim/32.jpeg",3,2,1,1,"HouseObjects",2,"stim/objects/HouseObjects/safetypin3.png",3,"right","right",0.589999914,1,1,1
"411",66,404,0.5,"stim/44.jpeg",4,4,1,2,"Instruments",1,"stim/objects/Instruments/bassguitar3.png",2,"left","left",0.60800004,1,1,1
"412",66,405,0.9,"stim/11.jpeg",1,1,3,2,"HouseObjects",2,"stim/objects/HouseObjects/pan3.png",2,"right","right",0.589999914,1,1,1
"413",66,406,0.3,"stim/53.jpeg",5,3,2,1,"Instruments",1,"stim/objects/Instruments/acousticguitar4.png",3,"left","right",0.612999916,0,0,1
"414",66,407,0.5,"stim/34.jpeg",3,4,1,2,"HouseObjects",2,"stim/objects/HouseObjects/bleachbottle3.png",3,"right","right",0.523999929,1,1,1
"415",66,408,0.9,"stim/22.jpeg",2,2,3,2,"Instruments",1,"stim/objects/Instruments/musicstand3.png",1,"left","left",0.504999876,1,1,1
"416",66,409,0.7,"stim/51.jpeg",5,1,2,2,"HouseObjects",2,"stim/objects/HouseObjects/key3.png",3,"right","right",0.468999863,1,1,1
"417",66,410,0.9,"stim/23.jpeg",2,3,3,2,"Instruments",1,"stim/objects/Instruments/musicsheet3.png",1,"left","left",0.45299983,1,1,1
"418",66,411,0.9,"stim/14.jpeg",1,4,3,2,"HouseObjects",2,"stim/objects/HouseObjects/pitcher3.png",1,"right","right",0.53399992,1,1,1
"419",66,412,0.9,"stim/22.jpeg",2,2,3,2,"Instruments",1,"stim/objects/Instruments/musicstand3.png",4,"left","left",0.542999983,1,1,1
"420",66,413,0.3,"stim/52.jpeg",5,2,2,1,"Instruments",1,"stim/objects/Instruments/tuba3.png",4,"left","right",0.623999834,0,0,1
"421",66,414,0.9,"stim/24.jpeg",2,4,3,2,"Instruments",1,"stim/objects/Instruments/musicstand3.png",3,"left","left",0.512999773,1,1,1
"422",66,415,0.5,"stim/41.jpeg",4,1,1,1,"HouseObjects",2,"stim/objects/HouseObjects/scale3.png",1,"right","right",0.558000088,1,1,1
"423",66,416,0.9,"stim/24.jpeg",2,4,3,2,"Instruments",1,"stim/objects/Instruments/metronome3.png",1,"left","left",0.618999958,1,1,1
"424",66,417,0.9,"stim/13.jpeg",1,3,3,2,"HouseObjects",2,"stim/objects/HouseObjects/knife3.png",4,"right","right",0.66899991,1,1,1
"425",66,418,0.7,"stim/53.jpeg",5,3,2,2,"HouseObjects",2,"stim/objects/HouseObjects/key3.png",2,"right","right",0.536000013,1,1,1
"426",66,419,0.9,"stim/11.jpeg",1,1,3,2,"HouseObjects",2,"stim/objects/HouseObjects/pitcher3.png",1,"right","right",0.517999887,1,1,1
"427",66,420,0.5,"stim/44.jpeg",4,4,1,2,"HouseObjects",2,"stim/objects/HouseObjects/bottle3.png",2,"right","left",0.773999929,0,0,1
"428",66,421,0.7,"stim/63.jpeg",6,3,2,1,"Instruments",1,"stim/objects/Instruments/keyboard4.png",2,"left","left",0.774999857,1,1,1
"429",66,422,0.9,"stim/21.jpeg",2,1,3,2,"Instruments",1,"stim/objects/Instruments/musicsheet3.png",4,"left","left",0.618999958,1,1,1
"430",66,423,0.5,"stim/43.jpeg",4,3,1,1,"HouseObjects",2,"stim/objects/HouseObjects/spraybottle3.png",1,"right","right",0.78399992,1,1,1
"431",66,424,0.9,"stim/11.jpeg",1,1,3,2,"HouseObjects",2,"stim/objects/HouseObjects/knife3.png",3,"right","right",0.671999931,1,1,1
"432",66,425,0.9,"stim/12.jpeg",1,2,3,2,"HouseObjects",2,"stim/objects/HouseObjects/pitcher3.png",1,"right","right",0.485999823,1,1,1
"433",66,426,0.9,"stim/13.jpeg",1,3,3,2,"HouseObjects",2,"stim/objects/HouseObjects/pan3.png",3,"right","right",0.514999866,1,1,1
"434",66,427,0.1,"stim/12.jpeg",1,2,3,1,"Instruments",1,"stim/objects/Instruments/panflute4.png",3,"left","right",0.43599987,0,0,1
"435",66,428,0.7,"stim/54.jpeg",5,4,2,1,"HouseObjects",2,"stim/objects/HouseObjects/ballofstring4.png",3,"right","right",0.620999813,1,1,1
"436",66,429,0.9,"stim/22.jpeg",2,2,3,2,"Instruments",1,"stim/objects/Instruments/musicstand3.png",1,"left","left",0.825000048,1,1,1
"437",66,430,0.3,"stim/61.jpeg",6,1,2,1,"HouseObjects",2,"stim/objects/HouseObjects/iron4.png",1,"right","left",0.764999866,0,0,1
"438",66,431,0.9,"stim/12.jpeg",1,2,3,1,"HouseObjects",2,"stim/objects/HouseObjects/rubbergloves4.png",2,"right","right",0.857000113,1,1,1
"439",66,432,0.9,"stim/22.jpeg",2,2,3,2,"Instruments",1,"stim/objects/Instruments/marimba3.png",4,"left","left",0.488999844,1,1,1
"440",66,433,0.9,"stim/22.jpeg",2,2,3,2,"Instruments",1,"stim/objects/Instruments/musicstand3.png",3,"left","left",0.513999701,1,1,1
"441",66,434,0.9,"stim/13.jpeg",1,3,3,2,"HouseObjects",2,"stim/objects/HouseObjects/pitcher3.png",4,"right","right",0.715999842,1,1,1
"442",66,435,0.9,"stim/14.jpeg",1,4,3,2,"HouseObjects",2,"stim/objects/HouseObjects/lintroller3.png",2,"right","right",0.500999928,1,1,1
"443",66,436,0.9,"stim/14.jpeg",1,4,3,2,"HouseObjects",2,"stim/objects/HouseObjects/knife3.png",1,"right","right",0.820999861,1,1,1
"444",66,437,0.9,"stim/21.jpeg",2,1,3,2,"Instruments",1,"stim/objects/Instruments/oboe3.png",4,"left","left",0.532999992,1,1,1
"445",66,438,0.5,"stim/32.jpeg",3,2,1,2,"HouseObjects",2,"stim/objects/HouseObjects/ballofstring3.png",3,"right","right",0.457999945,1,1,1
"446",66,439,0.5,"stim/43.jpeg",4,3,1,2,"Instruments",1,"stim/objects/Instruments/cornet3.png",3,"left","right",0.481999874,0,0,1
"447",66,440,0.9,"stim/22.jpeg",2,2,3,2,"Instruments",1,"stim/objects/Instruments/oboe3.png",2,"left","left",0.518999815,1,1,1
"448",66,441,0.7,"stim/53.jpeg",5,3,2,2,"HouseObjects",2,"stim/objects/HouseObjects/clothesdryingrack3.png",3,"right","right",0.457000017,1,1,1
"449",66,442,0.5,"stim/33.jpeg",3,3,1,2,"HouseObjects",2,"stim/objects/HouseObjects/barbecuelighter3.png",1,"right","right",0.572999716,1,1,1
"450",66,443,0.9,"stim/11.jpeg",1,1,3,2,"HouseObjects",2,"stim/objects/HouseObjects/match3.png",1,"right","right",0.592999935,1,1,1
"451",66,444,0.9,"stim/11.jpeg",1,1,3,2,"HouseObjects",2,"stim/objects/HouseObjects/pan3.png",1,"right","right",0.5,1,1,1
"452",66,445,0.9,"stim/12.jpeg",1,2,3,2,"HouseObjects",2,"stim/objects/HouseObjects/pitcher3.png",4,"right","right",0.76699996,1,1,1
"453",66,446,0.9,"stim/14.jpeg",1,4,3,1,"HouseObjects",2,"stim/objects/HouseObjects/safetypin4.png",1,"right","right",0.70299983,1,1,1
"454",66,447,0.5,"stim/42.jpeg",4,2,1,1,"Instruments",1,"stim/objects/Instruments/tambourine3.png",3,"left","left",0.721999884,1,1,1
"455",66,448,0.9,"stim/11.jpeg",1,1,3,2,"HouseObjects",2,"stim/objects/HouseObjects/pan3.png",4,"right","right",0.524999857,1,1,1
"456",66,449,0.9,"stim/11.jpeg",1,1,3,2,"HouseObjects",2,"stim/objects/HouseObjects/pitcher3.png",2,"right","right",0.518999815,1,1,1
"457",66,450,0.9,"stim/13.jpeg",1,3,3,2,"HouseObjects",2,"stim/objects/HouseObjects/pitcher3.png",3,"right","right",0.43599987,1,1,1
"458",66,451,0.9,"stim/14.jpeg",1,4,3,2,"HouseObjects",2,"stim/objects/HouseObjects/match3.png",2,"right","right",0.450999975,1,1,1
"459",66,452,0.7,"stim/63.jpeg",6,3,2,1,"Instruments",1,"stim/objects/Instruments/clarinet4.png",4,"left","",NA,0,0,1
"460",66,453,0.1,"stim/11.jpeg",1,1,3,1,"Instruments",1,"stim/objects/Instruments/record_player4.png",1,"left","right",0.588000059,0,0,1
"461",66,454,0.9,"stim/13.jpeg",1,3,3,2,"HouseObjects",2,"stim/objects/HouseObjects/match3.png",4,"right","right",0.622999907,1,1,1
"462",66,455,0.9,"stim/12.jpeg",1,2,3,2,"HouseObjects",2,"stim/objects/HouseObjects/match3.png",2,"right","right",0.859999895,1,1,1
"463",66,456,0.1,"stim/12.jpeg",1,2,3,1,"Instruments",1,"stim/objects/Instruments/metronome4.png",4,"left","right",0.5,0,0,1
"464",66,457,0.9,"stim/23.jpeg",2,3,3,1,"Instruments",1,"stim/objects/Instruments/tuba4.png",3,"left","left",0.511999846,1,1,1
"465",66,458,0.5,"stim/31.jpeg",3,1,1,2,"Instruments",1,"stim/objects/Instruments/bassdrum3.png",3,"left","right",0.605999947,0,0,1
"466",66,459,0.9,"stim/22.jpeg",2,2,3,2,"Instruments",1,"stim/objects/Instruments/oboe3.png",4,"left","left",0.485999823,1,1,1
"467",66,460,0.3,"stim/62.jpeg",6,2,2,1,"HouseObjects",2,"stim/objects/HouseObjects/ironingboard4.png",1,"right","right",0.637999773,1,1,1
"468",66,461,0.9,"stim/12.jpeg",1,2,3,2,"HouseObjects",2,"stim/objects/HouseObjects/match3.png",2,"right","right",0.552000046,1,1,1
"469",66,462,0.3,"stim/64.jpeg",6,4,2,1,"HouseObjects",2,"stim/objects/HouseObjects/clothespin4.png",1,"right","right",0.549999952,1,1,1
"470",66,463,0.1,"stim/13.jpeg",1,3,3,1,"Instruments",1,"stim/objects/Instruments/musicsheet4.png",1,"left","right",0.557999849,0,0,1
"471",66,464,0.7,"stim/52.jpeg",5,2,2,1,"HouseObjects",2,"stim/objects/HouseObjects/thermometer3.png",2,"right","right",0.504999876,1,1,1
"472",66,465,0.9,"stim/23.jpeg",2,3,3,2,"Instruments",1,"stim/objects/Instruments/musicstand3.png",4,"left","left",0.519999981,1,1,1
"473",66,466,0.9,"stim/23.jpeg",2,3,3,2,"Instruments",1,"stim/objects/Instruments/musicstand3.png",3,"left","left",0.589999914,1,1,1
"474",66,467,0.9,"stim/11.jpeg",1,1,3,1,"HouseObjects",2,"stim/objects/HouseObjects/match4.png",2,"right","right",0.5849998,1,1,1
"475",66,468,0.9,"stim/22.jpeg",2,2,3,2,"Instruments",1,"stim/objects/Instruments/marimba3.png",2,"left","left",0.514999866,1,1,1
"476",66,469,0.9,"stim/24.jpeg",2,4,3,2,"Instruments",1,"stim/objects/Instruments/musicstand3.png",3,"left","left",0.457000017,1,1,1
"477",66,470,0.9,"stim/11.jpeg",1,1,3,1,"HouseObjects",2,"stim/objects/HouseObjects/remote4.png",1,"right","right",0.666999817,1,1,1
"478",66,471,0.9,"stim/12.jpeg",1,2,3,2,"HouseObjects",2,"stim/objects/HouseObjects/lintroller3.png",1,"right","right",0.595999956,1,1,1
"479",66,472,0.9,"stim/11.jpeg",1,1,3,2,"HouseObjects",2,"stim/objects/HouseObjects/match3.png",1,"right","right",0.472999811,1,1,1
"480",66,473,0.7,"stim/63.jpeg",6,3,2,2,"Instruments",1,"stim/objects/Instruments/cymbal3.png",1,"left","left",0.549999952,1,1,1
"481",66,474,0.9,"stim/24.jpeg",2,4,3,2,"Instruments",1,"stim/objects/Instruments/marimba3.png",4,"left","left",0.677000046,1,1,1
"482",66,475,0.5,"stim/42.jpeg",4,2,1,2,"HouseObjects",2,"stim/objects/HouseObjects/blender3.png",1,"right","left",0.618000031,0,0,1
"483",66,476,0.7,"stim/61.jpeg",6,1,2,2,"Instruments",1,"stim/objects/Instruments/cymbal3.png",4,"left","right",0.769999981,0,0,1
"484",66,477,0.9,"stim/11.jpeg",1,1,3,2,"HouseObjects",2,"stim/objects/HouseObjects/knife3.png",4,"right","right",0.566999912,1,1,1
"485",66,478,0.7,"stim/54.jpeg",5,4,2,1,"HouseObjects",2,"stim/objects/HouseObjects/towel3.png",2,"right","right",0.569999933,1,1,1
"486",66,479,0.9,"stim/14.jpeg",1,4,3,2,"HouseObjects",2,"stim/objects/HouseObjects/knife3.png",4,"right","right",0.535000086,1,1,1
"487",66,480,0.1,"stim/23.jpeg",2,3,3,1,"HouseObjects",2,"stim/objects/HouseObjects/vacuumcleaner4.png",4,"right","left",0.566999912,0,0,1
"488",66,481,0.9,"stim/23.jpeg",2,3,3,2,"Instruments",1,"stim/objects/Instruments/metronome3.png",3,"left","left",0.486000061,1,1,1
"489",66,482,0.9,"stim/14.jpeg",1,4,3,2,"HouseObjects",2,"stim/objects/HouseObjects/match3.png",3,"right","right",0.552000046,1,1,1
"490",66,483,0.9,"stim/24.jpeg",2,4,3,1,"Instruments",1,"stim/objects/Instruments/triangle4.png",3,"left","left",0.455999851,1,1,1
"491",66,484,0.9,"stim/13.jpeg",1,3,3,1,"HouseObjects",2,"stim/objects/HouseObjects/knife4.png",2,"right","right",0.554999828,1,1,1
"492",66,485,0.9,"stim/22.jpeg",2,2,3,2,"Instruments",1,"stim/objects/Instruments/oboe3.png",1,"left","left",0.53399992,1,1,1
"493",66,486,0.9,"stim/22.jpeg",2,2,3,2,"Instruments",1,"stim/objects/Instruments/musicsheet3.png",4,"left","left",0.501999855,1,1,1
"494",66,487,0.9,"stim/12.jpeg",1,2,3,2,"HouseObjects",2,"stim/objects/HouseObjects/pitcher3.png",2,"right","right",0.536000013,1,1,1
"495",66,488,0.7,"stim/61.jpeg",6,1,2,2,"Instruments",1,"stim/objects/Instruments/laud3.png",3,"left","right",0.753999949,0,0,1
"496",66,489,0.7,"stim/61.jpeg",6,1,2,2,"Instruments",1,"stim/objects/Instruments/keyboard3.png",1,"left","left",0.849999905,1,1,1
"497",66,490,0.1,"stim/24.jpeg",2,4,3,1,"HouseObjects",2,"stim/objects/HouseObjects/scale4.png",2,"right","left",0.516000032,0,0,1
"498",66,491,0.5,"stim/44.jpeg",4,4,1,1,"HouseObjects",2,"stim/objects/HouseObjects/teapot3.png",3,"right","right",0.570999861,1,1,1
"499",66,492,0.9,"stim/14.jpeg",1,4,3,2,"HouseObjects",2,"stim/objects/HouseObjects/pitcher3.png",4,"right","right",0.616999865,1,1,1
"500",66,493,0.9,"stim/23.jpeg",2,3,3,2,"Instruments",1,"stim/objects/Instruments/oboe3.png",2,"left","left",0.453999996,1,1,1
"501",66,494,0.9,"stim/24.jpeg",2,4,3,2,"Instruments",1,"stim/objects/Instruments/marimba3.png",4,"left","left",0.485999823,1,1,1
"502",66,495,0.9,"stim/21.jpeg",2,1,3,2,"Instruments",1,"stim/objects/Instruments/oboe3.png",2,"left","left",0.446999788,1,1,1
"503",66,496,0.7,"stim/64.jpeg",6,4,2,1,"Instruments",1,"stim/objects/Instruments/laud4.png",2,"left","right",0.437999964,0,0,1
"504",66,497,0.5,"stim/33.jpeg",3,3,1,2,"Instruments",1,"stim/objects/Instruments/balalaika3.png",2,"left","right",0.522000074,0,0,1
"505",66,498,0.5,"stim/32.jpeg",3,2,1,2,"Instruments",1,"stim/objects/Instruments/acousticguitar3.png",2,"left","right",0.571999788,0,0,1
"506",66,499,0.9,"stim/11.jpeg",1,1,3,2,"HouseObjects",2,"stim/objects/HouseObjects/lintroller3.png",3,"right","right",0.546000004,1,1,1
"507",66,500,0.9,"stim/23.jpeg",2,3,3,2,"Instruments",1,"stim/objects/Instruments/musicstand3.png",4,"left","",NA,0,0,1
"508",66,501,0.7,"stim/53.jpeg",5,3,2,1,"HouseObjects",2,"stim/objects/HouseObjects/thread3.png",1,"right","right",0.436999798,1,1,1
"509",66,502,0.9,"stim/22.jpeg",2,2,3,2,"Instruments",1,"stim/objects/Instruments/musicsheet3.png",4,"left","left",0.437000036,1,1,1
"510",66,503,0.9,"stim/13.jpeg",1,3,3,2,"HouseObjects",2,"stim/objects/HouseObjects/match3.png",4,"right","right",0.486999989,1,1,1
"511",66,504,0.9,"stim/21.jpeg",2,1,3,2,"Instruments",1,"stim/objects/Instruments/musicstand3.png",3,"left","left",0.437999964,1,1,1
"512",66,505,0.9,"stim/13.jpeg",1,3,3,2,"HouseObjects",2,"stim/objects/HouseObjects/pan3.png",1,"right","right",0.437999964,1,1,1
"513",66,506,0.9,"stim/23.jpeg",2,3,3,2,"Instruments",1,"stim/objects/Instruments/musicsheet3.png",4,"left","left",0.450999975,1,1,1
"514",66,507,0.7,"stim/61.jpeg",6,1,2,2,"Instruments",1,"stim/objects/Instruments/maraca3.png",4,"left","right",0.438999891,0,0,1
"515",66,508,0.1,"stim/24.jpeg",2,4,3,1,"HouseObjects",2,"stim/objects/HouseObjects/wateringcan4.png",4,"right","left",0.472000122,0,0,1
"516",66,509,0.7,"stim/53.jpeg",5,3,2,2,"HouseObjects",2,"stim/objects/HouseObjects/ironingboard3.png",2,"right","right",0.532999754,1,1,1
"517",66,510,0.1,"stim/21.jpeg",2,1,3,1,"HouseObjects",2,"stim/objects/HouseObjects/thread4.png",3,"right","left",0.666000128,0,0,1
"518",66,511,0.9,"stim/22.jpeg",2,2,3,2,"Instruments",1,"stim/objects/Instruments/musicsheet3.png",2,"left","left",0.493000031,1,1,1
"519",66,512,0.5,"stim/31.jpeg",3,1,1,2,"HouseObjects",2,"stim/objects/HouseObjects/ashtray3.png",4,"right","right",0.498999834,1,1,1
"520",66,513,0.5,"stim/32.jpeg",3,2,1,2,"Instruments",1,"stim/objects/Instruments/accordion3.png",1,"left","right",0.491999865,0,0,1
"521",66,514,0.7,"stim/51.jpeg",5,1,2,2,"HouseObjects",2,"stim/objects/HouseObjects/clothesdryingrack3.png",2,"right","right",0.618999958,1,1,1
"522",66,515,0.5,"stim/34.jpeg",3,4,1,1,"HouseObjects",2,"stim/objects/HouseObjects/rubbergloves3.png",3,"right","right",0.473999977,1,1,1
"523",66,516,0.7,"stim/63.jpeg",6,3,2,2,"Instruments",1,"stim/objects/Instruments/maraca3.png",3,"left","left",0.59499979,1,1,1
"524",66,517,0.1,"stim/23.jpeg",2,3,3,1,"HouseObjects",2,"stim/objects/HouseObjects/saw4.png",2,"right","left",0.461999893,0,0,1
"525",66,518,0.1,"stim/13.jpeg",1,3,3,1,"Instruments",1,"stim/objects/Instruments/pipepiano4.png",3,"left","right",0.483999968,0,0,1
"526",66,519,0.9,"stim/24.jpeg",2,4,3,1,"Instruments",1,"stim/objects/Instruments/violin4.png",3,"left","left",0.568999767,1,1,1
"527",66,520,0.9,"stim/13.jpeg",1,3,3,2,"HouseObjects",2,"stim/objects/HouseObjects/pitcher3.png",2,"right","right",0.635999918,1,1,1
"528",66,521,0.9,"stim/21.jpeg",2,1,3,2,"Instruments",1,"stim/objects/Instruments/metronome3.png",3,"left","left",0.667999983,1,1,1
"529",66,522,0.9,"stim/21.jpeg",2,1,3,2,"Instruments",1,"stim/objects/Instruments/metronome3.png",1,"left","left",0.58100009,1,1,1
"530",66,523,0.9,"stim/12.jpeg",1,2,3,2,"HouseObjects",2,"stim/objects/HouseObjects/match3.png",3,"right","right",0.555999756,1,1,1
"531",66,524,0.3,"stim/63.jpeg",6,3,2,1,"HouseObjects",2,"stim/objects/HouseObjects/clothesdryingrack4.png",3,"right","",NA,0,0,1
"532",66,525,0.9,"stim/13.jpeg",1,3,3,2,"HouseObjects",2,"stim/objects/HouseObjects/match3.png",2,"right","right",0.59499979,1,1,1
"533",66,526,0.9,"stim/11.jpeg",1,1,3,2,"HouseObjects",2,"stim/objects/HouseObjects/match3.png",2,"right","left",0.898999929,0,0,1
"534",66,527,0.9,"stim/12.jpeg",1,2,3,2,"HouseObjects",2,"stim/objects/HouseObjects/pan3.png",4,"right","left",0.492999792,0,0,1
"535",66,528,0.5,"stim/42.jpeg",4,2,1,2,"Instruments",1,"stim/objects/Instruments/chime3.png",4,"left","left",0.852999926,1,1,1
"536",66,529,0.9,"stim/22.jpeg",2,2,3,2,"Instruments",1,"stim/objects/Instruments/metronome3.png",1,"left","left",0.735999823,1,1,1
"537",66,530,0.9,"stim/13.jpeg",1,3,3,2,"HouseObjects",2,"stim/objects/HouseObjects/pitcher3.png",4,"right","right",0.549999714,1,1,1
"538",66,531,0.7,"stim/61.jpeg",6,1,2,1,"Instruments",1,"stim/objects/Instruments/cello4.png",4,"left","right",0.733999968,0,0,1
"539",66,532,0.9,"stim/14.jpeg",1,4,3,2,"HouseObjects",2,"stim/objects/HouseObjects/match3.png",3,"right","right",0.632999897,1,1,1
"540",66,533,0.3,"stim/53.jpeg",5,3,2,1,"Instruments",1,"stim/objects/Instruments/violin3.png",2,"left","right",0.537999868,0,0,1
"541",66,534,0.9,"stim/13.jpeg",1,3,3,2,"HouseObjects",2,"stim/objects/HouseObjects/lintroller3.png",2,"right","right",0.569999933,1,1,1
"542",66,535,0.7,"stim/62.jpeg",6,2,2,2,"Instruments",1,"stim/objects/Instruments/maraca3.png",1,"left","right",0.549999952,0,0,1
"543",66,536,0.9,"stim/12.jpeg",1,2,3,2,"HouseObjects",2,"stim/objects/HouseObjects/pitcher3.png",2,"right","right",0.536999941,1,1,1
"544",66,537,0.5,"stim/42.jpeg",4,2,1,2,"HouseObjects",2,"stim/objects/HouseObjects/clock3.png",4,"right","left",0.769000053,0,0,1
"545",66,538,0.9,"stim/24.jpeg",2,4,3,2,"Instruments",1,"stim/objects/Instruments/oboe3.png",4,"left","left",0.519999981,1,1,1
"546",66,539,0.9,"stim/12.jpeg",1,2,3,2,"HouseObjects",2,"stim/objects/HouseObjects/lintroller3.png",1,"right","right",0.48699975,1,1,1
"547",66,540,0.9,"stim/21.jpeg",2,1,3,2,"Instruments",1,"stim/objects/Instruments/musicstand3.png",2,"left","left",0.529999971,1,1,1
"548",66,541,0.1,"stim/22.jpeg",2,2,3,1,"HouseObjects",2,"stim/objects/HouseObjects/spraybottle4.png",1,"right","right",0.470999956,1,1,1
"549",66,542,0.5,"stim/44.jpeg",4,4,1,2,"Instruments",1,"stim/objects/Instruments/cello3.png",3,"left","",NA,0,0,1
"550",66,543,0.5,"stim/41.jpeg",4,1,1,2,"HouseObjects",2,"stim/objects/HouseObjects/broom3.png",4,"right","left",0.750999928,0,0,1
"551",66,544,0.9,"stim/22.jpeg",2,2,3,2,"Instruments",1,"stim/objects/Instruments/marimba3.png",1,"left","left",0.522000074,1,1,1
"552",66,545,0.9,"stim/22.jpeg",2,2,3,1,"Instruments",1,"stim/objects/Instruments/xylophone4.png",4,"left","left",0.464999914,1,1,1
"553",66,546,0.9,"stim/14.jpeg",1,4,3,2,"HouseObjects",2,"stim/objects/HouseObjects/knife3.png",2,"right","right",0.585000038,1,1,1
"554",66,547,0.9,"stim/14.jpeg",1,4,3,2,"HouseObjects",2,"stim/objects/HouseObjects/lintroller3.png",2,"right","right",0.486999989,1,1,1
"555",66,548,0.7,"stim/62.jpeg",6,2,2,2,"Instruments",1,"stim/objects/Instruments/laud3.png",3,"left","left",0.655999899,1,1,1
"556",66,549,0.9,"stim/24.jpeg",2,4,3,2,"Instruments",1,"stim/objects/Instruments/musicsheet3.png",1,"left","left",0.503000021,1,1,1
"557",66,550,0.9,"stim/21.jpeg",2,1,3,1,"Instruments",1,"stim/objects/Instruments/trombone4.png",2,"left","left",0.498999834,1,1,1
"558",66,551,0.5,"stim/42.jpeg",4,2,1,1,"HouseObjects",2,"stim/objects/HouseObjects/sponge3.png",2,"right","right",0.519999981,1,1,1
"559",66,552,0.5,"stim/43.jpeg",4,3,1,2,"HouseObjects",2,"stim/objects/HouseObjects/bottle3.png",4,"right","right",0.587999821,1,1,1
"560",66,553,0.9,"stim/23.jpeg",2,3,3,2,"Instruments",1,"stim/objects/Instruments/metronome3.png",4,"left","left",0.472999811,1,1,1
"561",66,554,0.9,"stim/14.jpeg",1,4,3,1,"HouseObjects",2,"stim/objects/HouseObjects/recyclingbin4.png",3,"right","right",0.671999931,1,1,1
"562",66,555,0.7,"stim/52.jpeg",5,2,2,2,"HouseObjects",2,"stim/objects/HouseObjects/iron3.png",4,"right","right",0.605999947,1,1,1
"563",66,556,0.9,"stim/24.jpeg",2,4,3,2,"Instruments",1,"stim/objects/Instruments/marimba3.png",4,"left","left",0.520999908,1,1,1
"564",66,557,0.7,"stim/62.jpeg",6,2,2,1,"Instruments",1,"stim/objects/Instruments/doublebass4.png",3,"left","right",0.487999916,0,0,1
"565",66,558,0.9,"stim/24.jpeg",2,4,3,2,"Instruments",1,"stim/objects/Instruments/musicstand3.png",3,"left","left",0.478999853,1,1,1
"566",66,559,0.9,"stim/24.jpeg",2,4,3,2,"Instruments",1,"stim/objects/Instruments/oboe3.png",4,"left","left",0.47300005,1,1,1
"567",66,560,0.9,"stim/12.jpeg",1,2,3,2,"HouseObjects",2,"stim/objects/HouseObjects/match3.png",1,"right","right",0.589999914,1,1,1
"568",66,561,0.9,"stim/14.jpeg",1,4,3,2,"HouseObjects",2,"stim/objects/HouseObjects/pan3.png",3,"right","right",0.467999935,1,1,1
"569",66,562,0.7,"stim/54.jpeg",5,4,2,2,"HouseObjects",2,"stim/objects/HouseObjects/ironingboard3.png",4,"right","right",0.536999941,1,1,1
"570",66,563,0.5,"stim/41.jpeg",4,1,1,2,"HouseObjects",2,"stim/objects/HouseObjects/bucket3.png",2,"right","right",0.437999964,1,1,1
"571",66,564,0.3,"stim/64.jpeg",6,4,2,1,"HouseObjects",2,"stim/objects/HouseObjects/broom4.png",4,"right","left",0.566999912,0,0,1
"572",66,565,0.1,"stim/23.jpeg",2,3,3,1,"HouseObjects",2,"stim/objects/HouseObjects/teapot4.png",2,"right","left",0.486000061,0,0,1
"573",66,566,0.9,"stim/12.jpeg",1,2,3,2,"HouseObjects",2,"stim/objects/HouseObjects/knife3.png",1,"right","right",0.502999783,1,1,1
"574",66,567,0.9,"stim/12.jpeg",1,2,3,2,"HouseObjects",2,"stim/objects/HouseObjects/pan3.png",1,"right","right",0.488999844,1,1,1
"575",66,568,0.7,"stim/52.jpeg",5,2,2,2,"HouseObjects",2,"stim/objects/HouseObjects/clothespin3.png",1,"right","right",0.467000008,1,1,1
"576",66,569,0.3,"stim/51.jpeg",5,1,2,1,"Instruments",1,"stim/objects/Instruments/banjo4.png",3,"left","right",0.424000025,0,0,1
"577",66,570,0.9,"stim/23.jpeg",2,3,3,2,"Instruments",1,"stim/objects/Instruments/metronome3.png",2,"left","left",0.53399992,1,1,1
