"","obj_file","X.x","participant.x","trialN.x","trial_cond","scn_file.x","scn_cat","scn_inst","scn_condition","fillers","obj_cat","obj_cat_num","quadrant","corr_ans","key_resp_trial.keys","key_resp_trial.rt","trial_acc","trial_acc_manual","group.x","practice","X.y","participant.y","OvsN","PE_level","object_cat","scn_file.y","corr_scn_cat","corr_scn_inst","scn_file.1","corr_loc","key_resp_id.keys","key_resp_id.rt","key_resp_conf.keys","key_resp_assoc.keys","key_resp_assoc.rt","key_resp_loc.keys","key_resp_loc.rt","trialN.y","id_acc","assoc.acc","cond_assoc","loc.acc","cond_loc","group.y"
"158","stim/objects/Instruments/metronome2.png",1,47,1,0.9,"stim/31.jpeg",3,1,3,NA,"Instruments",2,1,"right","",NA,0,0,0,1,NA,NA,NA,NA,NA,NA,NA,NA,NA,NA,NA,NA,NA,NA,NA,NA,NA,NA,NA,NA,NA,NA,NA,NA
"129","stim/objects/Instruments/laud.png",2,47,2,0.5,"stim/52.jpeg",5,2,1,NA,"Instruments",2,2,"right","left",0.546000004,0,0,0,1,NA,NA,NA,NA,NA,NA,NA,NA,NA,NA,NA,NA,NA,NA,NA,NA,NA,NA,NA,NA,NA,NA,NA,NA
"25","stim/objects/HouseObjects/key.png",3,47,3,0.5,"stim/53.jpeg",5,3,1,NA,"HouseObjects",1,3,"left","",NA,0,0,0,1,NA,NA,NA,NA,NA,NA,NA,NA,NA,NA,NA,NA,NA,NA,NA,NA,NA,NA,NA,NA,NA,NA,NA,NA
"186","stim/objects/Instruments/musicstand2.png",4,47,4,0.9,"stim/33.jpeg",3,3,3,NA,"Instruments",2,3,"right","right",0.609000206,1,1,0,1,NA,NA,NA,NA,NA,NA,NA,NA,NA,NA,NA,NA,NA,NA,NA,NA,NA,NA,NA,NA,NA,NA,NA,NA
"100","stim/objects/HouseObjects/rubbergloves2.png",5,47,5,0.9,"stim/43.jpeg",4,3,3,NA,"HouseObjects",1,4,"left","left",0.487999916,1,1,0,1,NA,NA,NA,NA,NA,NA,NA,NA,NA,NA,NA,NA,NA,NA,NA,NA,NA,NA,NA,NA,NA,NA,NA,NA
"13","stim/objects/HouseObjects/ironingboard.png",6,47,6,0.5,"stim/52.jpeg",5,2,1,NA,"HouseObjects",1,2,"left","right",0.633000135,0,0,0,1,NA,NA,NA,NA,NA,NA,NA,NA,NA,NA,NA,NA,NA,NA,NA,NA,NA,NA,NA,NA,NA,NA,NA,NA
"200","stim/objects/Instruments/oboe2.png",7,47,7,0.9,"stim/34.jpeg",3,4,3,NA,"Instruments",2,4,"right","right",0.443000078,1,1,0,1,NA,NA,NA,NA,NA,NA,NA,NA,NA,NA,NA,NA,NA,NA,NA,NA,NA,NA,NA,NA,NA,NA,NA,NA
"49","stim/objects/HouseObjects/lintroller.png",8,47,8,0.5,"stim/61.jpeg",6,1,1,NA,"HouseObjects",1,4,"left","",NA,0,0,0,1,NA,NA,NA,NA,NA,NA,NA,NA,NA,NA,NA,NA,NA,NA,NA,NA,NA,NA,NA,NA,NA,NA,NA,NA
"76","stim/objects/HouseObjects/recyclingbin2.png",9,47,9,0.9,"stim/41.jpeg",4,1,3,NA,"HouseObjects",1,1,"left","right",0.795000076,0,0,0,1,NA,NA,NA,NA,NA,NA,NA,NA,NA,NA,NA,NA,NA,NA,NA,NA,NA,NA,NA,NA,NA,NA,NA,NA
"37","stim/objects/HouseObjects/knife.png",10,47,10,0.5,"stim/54.jpeg",5,4,1,NA,"HouseObjects",1,2,"left","left",0.542999983,1,1,0,1,NA,NA,NA,NA,NA,NA,NA,NA,NA,NA,NA,NA,NA,NA,NA,NA,NA,NA,NA,NA,NA,NA,NA,NA
"130","stim/objects/Instruments/laud.png",11,47,11,0.5,"stim/52.jpeg",5,2,1,NA,"Instruments",2,3,"right","left",0.50999999,0,0,0,1,NA,NA,NA,NA,NA,NA,NA,NA,NA,NA,NA,NA,NA,NA,NA,NA,NA,NA,NA,NA,NA,NA,NA,NA
"61","stim/objects/HouseObjects/pan.png",12,47,12,0.5,"stim/63.jpeg",6,3,1,NA,"HouseObjects",1,1,"left","right",0.675000191,0,0,0,1,NA,NA,NA,NA,NA,NA,NA,NA,NA,NA,NA,NA,NA,NA,NA,NA,NA,NA,NA,NA,NA,NA,NA,NA
"55","stim/objects/HouseObjects/match.png",13,47,13,0.5,"stim/62.jpeg",6,2,1,NA,"HouseObjects",1,4,"left","right",0.697000027,0,0,0,1,NA,NA,NA,NA,NA,NA,NA,NA,NA,NA,NA,NA,NA,NA,NA,NA,NA,NA,NA,NA,NA,NA,NA,NA
"209","stim/objects/Instruments/panflute.png",14,47,14,0.7,"stim/11.jpeg",1,1,2,NA,"Instruments",2,2,"right","right",0.782999992,1,1,0,1,NA,NA,NA,NA,NA,NA,NA,NA,NA,NA,NA,NA,NA,NA,NA,NA,NA,NA,NA,NA,NA,NA,NA,NA
"172","stim/objects/Instruments/musicsheet2.png",15,47,15,0.9,"stim/32.jpeg",3,2,3,NA,"Instruments",2,4,"right","right",0.644999981,1,1,0,1,NA,NA,NA,NA,NA,NA,NA,NA,NA,NA,NA,NA,NA,NA,NA,NA,NA,NA,NA,NA,NA,NA,NA,NA
"6","stim/objects/HouseObjects/iron2.png",16,47,16,0.7,"stim/21.jpeg",2,1,2,NA,"HouseObjects",1,1,"left","left",0.595000029,1,1,0,1,NA,NA,NA,NA,NA,NA,NA,NA,NA,NA,NA,NA,NA,NA,NA,NA,NA,NA,NA,NA,NA,NA,NA,NA
"97","stim/objects/HouseObjects/rubbergloves.png",17,47,17,0.3,"stim/13.jpeg",1,3,2,NA,"HouseObjects",1,4,"left","left",0.632999897,1,1,0,1,NA,NA,NA,NA,NA,NA,NA,NA,NA,NA,NA,NA,NA,NA,NA,NA,NA,NA,NA,NA,NA,NA,NA,NA
"101","stim/objects/HouseObjects/rubbergloves2.png",18,47,18,0.9,"stim/43.jpeg",4,3,3,NA,"HouseObjects",1,4,"left","",NA,0,0,0,1,NA,NA,NA,NA,NA,NA,NA,NA,NA,NA,NA,NA,NA,NA,NA,NA,NA,NA,NA,NA,NA,NA,NA,NA
"181","stim/objects/Instruments/musicstand.png",19,47,19,0.5,"stim/63.jpeg",6,3,1,NA,"Instruments",2,2,"right","right",0.493000031,1,1,0,1,NA,NA,NA,NA,NA,NA,NA,NA,NA,NA,NA,NA,NA,NA,NA,NA,NA,NA,NA,NA,NA,NA,NA,NA
"56","stim/objects/HouseObjects/match.png",20,47,20,0.5,"stim/62.jpeg",6,2,1,NA,"HouseObjects",1,3,"left","",NA,0,0,0,1,NA,NA,NA,NA,NA,NA,NA,NA,NA,NA,NA,NA,NA,NA,NA,NA,NA,NA,NA,NA,NA,NA,NA,NA
"217","stim/objects/Instruments/pipepiano.png",21,47,21,0.7,"stim/12.jpeg",1,2,2,NA,"Instruments",2,2,"right","",NA,0,0,0,1,NA,NA,NA,NA,NA,NA,NA,NA,NA,NA,NA,NA,NA,NA,NA,NA,NA,NA,NA,NA,NA,NA,NA,NA
"42","stim/objects/HouseObjects/knife2.png",22,47,22,0.7,"stim/24.jpeg",2,4,2,NA,"HouseObjects",1,3,"left","left",0.713000059,1,1,0,1,NA,NA,NA,NA,NA,NA,NA,NA,NA,NA,NA,NA,NA,NA,NA,NA,NA,NA,NA,NA,NA,NA,NA,NA
"233","stim/objects/Instruments/record.png",23,47,23,0.7,"stim/13.jpeg",1,3,2,NA,"Instruments",2,2,"right","right",0.545000076,1,1,0,1,NA,NA,NA,NA,NA,NA,NA,NA,NA,NA,NA,NA,NA,NA,NA,NA,NA,NA,NA,NA,NA,NA,NA,NA
"14","stim/objects/HouseObjects/ironingboard.png",24,47,24,0.5,"stim/52.jpeg",5,2,1,NA,"HouseObjects",1,2,"left","left",0.71600008,1,1,0,1,NA,NA,NA,NA,NA,NA,NA,NA,NA,NA,NA,NA,NA,NA,NA,NA,NA,NA,NA,NA,NA,NA,NA,NA
"234","stim/objects/Instruments/record.png",25,47,25,0.7,"stim/13.jpeg",1,3,2,NA,"Instruments",2,1,"right","",NA,0,0,0,1,NA,NA,NA,NA,NA,NA,NA,NA,NA,NA,NA,NA,NA,NA,NA,NA,NA,NA,NA,NA,NA,NA,NA,NA
"137","stim/objects/Instruments/maraca.png",26,47,26,0.5,"stim/53.jpeg",5,3,1,NA,"Instruments",2,2,"right","left",0.482000113,0,0,0,1,NA,NA,NA,NA,NA,NA,NA,NA,NA,NA,NA,NA,NA,NA,NA,NA,NA,NA,NA,NA,NA,NA,NA,NA
"182","stim/objects/Instruments/musicstand.png",27,47,27,0.5,"stim/63.jpeg",6,3,1,NA,"Instruments",2,1,"right","right",0.839999914,1,1,0,1,NA,NA,NA,NA,NA,NA,NA,NA,NA,NA,NA,NA,NA,NA,NA,NA,NA,NA,NA,NA,NA,NA,NA,NA
"183","stim/objects/Instruments/musicstand.png",28,47,28,0.5,"stim/63.jpeg",6,3,1,NA,"Instruments",2,1,"right","right",0.39199996,1,1,0,1,NA,NA,NA,NA,NA,NA,NA,NA,NA,NA,NA,NA,NA,NA,NA,NA,NA,NA,NA,NA,NA,NA,NA,NA
"26","stim/objects/HouseObjects/key.png",29,47,29,0.5,"stim/53.jpeg",5,3,1,NA,"HouseObjects",1,4,"left","left",0.424999952,1,1,0,1,NA,NA,NA,NA,NA,NA,NA,NA,NA,NA,NA,NA,NA,NA,NA,NA,NA,NA,NA,NA,NA,NA,NA,NA
"30","stim/objects/HouseObjects/key2.png",30,47,30,0.7,"stim/23.jpeg",2,3,2,NA,"HouseObjects",1,2,"left","left",0.394999981,1,1,0,1,NA,NA,NA,NA,NA,NA,NA,NA,NA,NA,NA,NA,NA,NA,NA,NA,NA,NA,NA,NA,NA,NA,NA,NA
"27","stim/objects/HouseObjects/key.png",31,47,31,0.5,"stim/53.jpeg",5,3,1,NA,"HouseObjects",1,2,"left","left",0.544000149,1,1,0,1,NA,NA,NA,NA,NA,NA,NA,NA,NA,NA,NA,NA,NA,NA,NA,NA,NA,NA,NA,NA,NA,NA,NA,NA
"142","stim/objects/Instruments/maraca2.png",32,47,32,0.3,"stim/23.jpeg",2,3,2,NA,"Instruments",2,1,"right","left",0.52699995,0,0,0,1,NA,NA,NA,NA,NA,NA,NA,NA,NA,NA,NA,NA,NA,NA,NA,NA,NA,NA,NA,NA,NA,NA,NA,NA
"153","stim/objects/Instruments/metronome.png",33,47,33,0.5,"stim/61.jpeg",6,1,1,NA,"Instruments",2,1,"right","right",0.722000122,1,1,0,1,NA,NA,NA,NA,NA,NA,NA,NA,NA,NA,NA,NA,NA,NA,NA,NA,NA,NA,NA,NA,NA,NA,NA,NA
"201","stim/objects/Instruments/oboe2.png",34,47,34,0.9,"stim/34.jpeg",3,4,3,NA,"Instruments",2,2,"right","right",0.825999975,1,1,0,1,NA,NA,NA,NA,NA,NA,NA,NA,NA,NA,NA,NA,NA,NA,NA,NA,NA,NA,NA,NA,NA,NA,NA,NA
"88","stim/objects/HouseObjects/remote2.png",35,47,35,0.9,"stim/42.jpeg",4,2,3,NA,"HouseObjects",1,1,"left","",NA,0,0,0,1,NA,NA,NA,NA,NA,NA,NA,NA,NA,NA,NA,NA,NA,NA,NA,NA,NA,NA,NA,NA,NA,NA,NA,NA
"173","stim/objects/Instruments/musicsheet2.png",36,47,36,0.9,"stim/32.jpeg",3,2,3,NA,"Instruments",2,4,"right","right",0.628999949,1,1,0,1,NA,NA,NA,NA,NA,NA,NA,NA,NA,NA,NA,NA,NA,NA,NA,NA,NA,NA,NA,NA,NA,NA,NA,NA
"1","stim/objects/HouseObjects/iron.png",37,47,37,0.5,"stim/51.jpeg",5,1,1,NA,"HouseObjects",1,1,"left","left",0.361999989,1,1,0,1,NA,NA,NA,NA,NA,NA,NA,NA,NA,NA,NA,NA,NA,NA,NA,NA,NA,NA,NA,NA,NA,NA,NA,NA
"210","stim/objects/Instruments/panflute.png",38,47,38,0.7,"stim/11.jpeg",1,1,2,NA,"Instruments",2,1,"right","right",0.606999874,1,1,0,1,NA,NA,NA,NA,NA,NA,NA,NA,NA,NA,NA,NA,NA,NA,NA,NA,NA,NA,NA,NA,NA,NA,NA,NA
"102","stim/objects/HouseObjects/rubbergloves2.png",39,47,39,0.9,"stim/43.jpeg",4,3,3,NA,"HouseObjects",1,3,"left","left",0.618000031,1,1,0,1,NA,NA,NA,NA,NA,NA,NA,NA,NA,NA,NA,NA,NA,NA,NA,NA,NA,NA,NA,NA,NA,NA,NA,NA
"218","stim/objects/Instruments/pipepiano.png",40,47,40,0.7,"stim/12.jpeg",1,2,2,NA,"Instruments",2,1,"right","left",0.728999853,0,0,0,1,NA,NA,NA,NA,NA,NA,NA,NA,NA,NA,NA,NA,NA,NA,NA,NA,NA,NA,NA,NA,NA,NA,NA,NA
"145","stim/objects/Instruments/marimba.png",41,47,41,0.5,"stim/54.jpeg",5,4,1,NA,"Instruments",2,3,"right","left",0.746000051,0,0,0,1,NA,NA,NA,NA,NA,NA,NA,NA,NA,NA,NA,NA,NA,NA,NA,NA,NA,NA,NA,NA,NA,NA,NA,NA
"77","stim/objects/HouseObjects/recyclingbin2.png",42,47,42,0.9,"stim/41.jpeg",4,1,3,NA,"HouseObjects",1,1,"left","left",0.58100009,1,1,0,1,NA,NA,NA,NA,NA,NA,NA,NA,NA,NA,NA,NA,NA,NA,NA,NA,NA,NA,NA,NA,NA,NA,NA,NA
"159","stim/objects/Instruments/metronome2.png",43,47,43,0.9,"stim/31.jpeg",3,1,3,NA,"Instruments",2,3,"right","right",0.594000101,1,1,0,1,NA,NA,NA,NA,NA,NA,NA,NA,NA,NA,NA,NA,NA,NA,NA,NA,NA,NA,NA,NA,NA,NA,NA,NA
"146","stim/objects/Instruments/marimba.png",44,47,44,0.5,"stim/54.jpeg",5,4,1,NA,"Instruments",2,2,"right","left",0.626999855,0,0,0,1,NA,NA,NA,NA,NA,NA,NA,NA,NA,NA,NA,NA,NA,NA,NA,NA,NA,NA,NA,NA,NA,NA,NA,NA
"43","stim/objects/HouseObjects/knife2.png",45,47,45,0.7,"stim/24.jpeg",2,4,2,NA,"HouseObjects",1,4,"left","",NA,0,0,0,1,NA,NA,NA,NA,NA,NA,NA,NA,NA,NA,NA,NA,NA,NA,NA,NA,NA,NA,NA,NA,NA,NA,NA,NA
"85","stim/objects/HouseObjects/remote.png",46,47,46,0.3,"stim/12.jpeg",1,2,2,NA,"HouseObjects",1,1,"left","left",0.747999907,1,1,0,1,NA,NA,NA,NA,NA,NA,NA,NA,NA,NA,NA,NA,NA,NA,NA,NA,NA,NA,NA,NA,NA,NA,NA,NA
"73","stim/objects/HouseObjects/recyclingbin.png",47,47,47,0.3,"stim/11.jpeg",1,1,2,NA,"HouseObjects",1,4,"left","left",0.526000023,1,1,0,1,NA,NA,NA,NA,NA,NA,NA,NA,NA,NA,NA,NA,NA,NA,NA,NA,NA,NA,NA,NA,NA,NA,NA,NA
"195","stim/objects/Instruments/oboe.png",48,47,48,0.5,"stim/64.jpeg",6,4,1,NA,"Instruments",2,2,"right","right",0.729000092,1,1,0,1,NA,NA,NA,NA,NA,NA,NA,NA,NA,NA,NA,NA,NA,NA,NA,NA,NA,NA,NA,NA,NA,NA,NA,NA
"154","stim/objects/Instruments/metronome.png",49,47,49,0.5,"stim/61.jpeg",6,1,1,NA,"Instruments",2,2,"right","",NA,0,0,0,1,NA,NA,NA,NA,NA,NA,NA,NA,NA,NA,NA,NA,NA,NA,NA,NA,NA,NA,NA,NA,NA,NA,NA,NA
"31","stim/objects/HouseObjects/key2.png",50,47,50,0.7,"stim/23.jpeg",2,3,2,NA,"HouseObjects",1,3,"left","left",0.497999907,1,1,0,1,NA,NA,NA,NA,NA,NA,NA,NA,NA,NA,NA,NA,NA,NA,NA,NA,NA,NA,NA,NA,NA,NA,NA,NA
"89","stim/objects/HouseObjects/remote2.png",51,47,51,0.9,"stim/42.jpeg",4,2,3,NA,"HouseObjects",1,3,"left","left",0.669999838,1,1,0,1,NA,NA,NA,NA,NA,NA,NA,NA,NA,NA,NA,NA,NA,NA,NA,NA,NA,NA,NA,NA,NA,NA,NA,NA
"224","stim/objects/Instruments/pipepiano2.png",52,47,52,0.1,"stim/42.jpeg",4,2,3,NA,"Instruments",2,3,"right","left",0.494999886,0,0,0,1,NA,NA,NA,NA,NA,NA,NA,NA,NA,NA,NA,NA,NA,NA,NA,NA,NA,NA,NA,NA,NA,NA,NA,NA
"211","stim/objects/Instruments/panflute.png",53,47,53,0.7,"stim/11.jpeg",1,1,2,NA,"Instruments",2,3,"right","right",0.708999872,1,1,0,1,NA,NA,NA,NA,NA,NA,NA,NA,NA,NA,NA,NA,NA,NA,NA,NA,NA,NA,NA,NA,NA,NA,NA,NA
"212","stim/objects/Instruments/panflute.png",54,47,54,0.7,"stim/11.jpeg",1,1,2,NA,"Instruments",2,2,"right","right",0.780999899,1,1,0,1,NA,NA,NA,NA,NA,NA,NA,NA,NA,NA,NA,NA,NA,NA,NA,NA,NA,NA,NA,NA,NA,NA,NA,NA
"126","stim/objects/Instruments/keyboard2.png",55,47,55,0.3,"stim/21.jpeg",2,1,2,NA,"Instruments",2,2,"right","left",0.556000233,0,0,0,1,NA,NA,NA,NA,NA,NA,NA,NA,NA,NA,NA,NA,NA,NA,NA,NA,NA,NA,NA,NA,NA,NA,NA,NA
"225","stim/objects/Instruments/record_player.png",56,47,56,0.7,"stim/14.jpeg",1,4,2,NA,"Instruments",2,3,"right","left",0.389000177,0,0,0,1,NA,NA,NA,NA,NA,NA,NA,NA,NA,NA,NA,NA,NA,NA,NA,NA,NA,NA,NA,NA,NA,NA,NA,NA
"213","stim/objects/Instruments/panflute.png",57,47,57,0.7,"stim/11.jpeg",1,1,2,NA,"Instruments",2,3,"right","right",0.397000074,1,1,0,1,NA,NA,NA,NA,NA,NA,NA,NA,NA,NA,NA,NA,NA,NA,NA,NA,NA,NA,NA,NA,NA,NA,NA,NA
"134","stim/objects/Instruments/laud2.png",58,47,58,0.3,"stim/22.jpeg",2,2,2,NA,"Instruments",2,4,"right","left",0.565999985,0,0,0,1,NA,NA,NA,NA,NA,NA,NA,NA,NA,NA,NA,NA,NA,NA,NA,NA,NA,NA,NA,NA,NA,NA,NA,NA
"147","stim/objects/Instruments/marimba.png",59,47,59,0.5,"stim/54.jpeg",5,4,1,NA,"Instruments",2,4,"right","left",0.654999971,0,0,0,1,NA,NA,NA,NA,NA,NA,NA,NA,NA,NA,NA,NA,NA,NA,NA,NA,NA,NA,NA,NA,NA,NA,NA,NA
"98","stim/objects/HouseObjects/rubbergloves.png",60,47,60,0.3,"stim/13.jpeg",1,3,2,NA,"HouseObjects",1,4,"left","left",0.501000166,1,1,0,1,NA,NA,NA,NA,NA,NA,NA,NA,NA,NA,NA,NA,NA,NA,NA,NA,NA,NA,NA,NA,NA,NA,NA,NA
"15","stim/objects/HouseObjects/ironingboard.png",61,47,61,0.5,"stim/52.jpeg",5,2,1,NA,"HouseObjects",1,3,"left","left",0.648000002,1,1,0,1,NA,NA,NA,NA,NA,NA,NA,NA,NA,NA,NA,NA,NA,NA,NA,NA,NA,NA,NA,NA,NA,NA,NA,NA
"226","stim/objects/Instruments/record_player.png",62,47,62,0.7,"stim/14.jpeg",1,4,2,NA,"Instruments",2,3,"right","right",0.795000076,1,1,0,1,NA,NA,NA,NA,NA,NA,NA,NA,NA,NA,NA,NA,NA,NA,NA,NA,NA,NA,NA,NA,NA,NA,NA,NA
"50","stim/objects/HouseObjects/lintroller.png",63,47,63,0.5,"stim/61.jpeg",6,1,1,NA,"HouseObjects",1,1,"left","",NA,0,0,0,1,NA,NA,NA,NA,NA,NA,NA,NA,NA,NA,NA,NA,NA,NA,NA,NA,NA,NA,NA,NA,NA,NA,NA,NA
"67","stim/objects/HouseObjects/pitcher.png",64,47,64,0.5,"stim/64.jpeg",6,4,1,NA,"HouseObjects",1,1,"left","right",0.519999981,0,0,0,1,NA,NA,NA,NA,NA,NA,NA,NA,NA,NA,NA,NA,NA,NA,NA,NA,NA,NA,NA,NA,NA,NA,NA,NA
"138","stim/objects/Instruments/maraca.png",65,47,65,0.5,"stim/53.jpeg",5,3,1,NA,"Instruments",2,3,"right","left",0.64199996,0,0,0,1,NA,NA,NA,NA,NA,NA,NA,NA,NA,NA,NA,NA,NA,NA,NA,NA,NA,NA,NA,NA,NA,NA,NA,NA
"90","stim/objects/HouseObjects/remote2.png",66,47,66,0.9,"stim/42.jpeg",4,2,3,NA,"HouseObjects",1,2,"left","left",0.697000027,1,1,0,1,NA,NA,NA,NA,NA,NA,NA,NA,NA,NA,NA,NA,NA,NA,NA,NA,NA,NA,NA,NA,NA,NA,NA,NA
"160","stim/objects/Instruments/metronome2.png",67,47,67,0.9,"stim/31.jpeg",3,1,3,NA,"Instruments",2,1,"right","right",0.601999998,1,1,0,1,NA,NA,NA,NA,NA,NA,NA,NA,NA,NA,NA,NA,NA,NA,NA,NA,NA,NA,NA,NA,NA,NA,NA,NA
"44","stim/objects/HouseObjects/knife2.png",68,47,68,0.7,"stim/24.jpeg",2,4,2,NA,"HouseObjects",1,2,"left","left",0.572999954,1,1,0,1,NA,NA,NA,NA,NA,NA,NA,NA,NA,NA,NA,NA,NA,NA,NA,NA,NA,NA,NA,NA,NA,NA,NA,NA
"62","stim/objects/HouseObjects/pan.png",69,47,69,0.5,"stim/63.jpeg",6,3,1,NA,"HouseObjects",1,4,"left","right",0.605000019,0,0,0,1,NA,NA,NA,NA,NA,NA,NA,NA,NA,NA,NA,NA,NA,NA,NA,NA,NA,NA,NA,NA,NA,NA,NA,NA
"202","stim/objects/Instruments/oboe2.png",70,47,70,0.9,"stim/34.jpeg",3,4,3,NA,"Instruments",2,4,"right","right",0.625,1,1,0,1,NA,NA,NA,NA,NA,NA,NA,NA,NA,NA,NA,NA,NA,NA,NA,NA,NA,NA,NA,NA,NA,NA,NA,NA
"38","stim/objects/HouseObjects/knife.png",71,47,71,0.5,"stim/54.jpeg",5,4,1,NA,"HouseObjects",1,3,"left","left",0.747999907,1,1,0,1,NA,NA,NA,NA,NA,NA,NA,NA,NA,NA,NA,NA,NA,NA,NA,NA,NA,NA,NA,NA,NA,NA,NA,NA
"91","stim/objects/HouseObjects/remote2.png",72,47,72,0.9,"stim/42.jpeg",4,2,3,NA,"HouseObjects",1,1,"left","left",0.622999907,1,1,0,1,NA,NA,NA,NA,NA,NA,NA,NA,NA,NA,NA,NA,NA,NA,NA,NA,NA,NA,NA,NA,NA,NA,NA,NA
"28","stim/objects/HouseObjects/key.png",73,47,73,0.5,"stim/53.jpeg",5,3,1,NA,"HouseObjects",1,1,"left","",NA,0,0,0,1,NA,NA,NA,NA,NA,NA,NA,NA,NA,NA,NA,NA,NA,NA,NA,NA,NA,NA,NA,NA,NA,NA,NA,NA
"112","stim/objects/HouseObjects/rug2.png",74,47,74,0.9,"stim/44.jpeg",4,4,3,NA,"HouseObjects",1,2,"left","left",0.638000011,1,1,0,1,NA,NA,NA,NA,NA,NA,NA,NA,NA,NA,NA,NA,NA,NA,NA,NA,NA,NA,NA,NA,NA,NA,NA,NA
"7","stim/objects/HouseObjects/iron2.png",75,47,75,0.7,"stim/21.jpeg",2,1,2,NA,"HouseObjects",1,2,"left","left",0.570000172,1,1,0,1,NA,NA,NA,NA,NA,NA,NA,NA,NA,NA,NA,NA,NA,NA,NA,NA,NA,NA,NA,NA,NA,NA,NA,NA
"143","stim/objects/Instruments/maraca2.png",76,47,76,0.3,"stim/23.jpeg",2,3,2,NA,"Instruments",2,1,"right","left",0.394000053,0,0,0,1,NA,NA,NA,NA,NA,NA,NA,NA,NA,NA,NA,NA,NA,NA,NA,NA,NA,NA,NA,NA,NA,NA,NA,NA
"29","stim/objects/HouseObjects/key.png",77,47,77,0.5,"stim/53.jpeg",5,3,1,NA,"HouseObjects",1,4,"left","left",0.44900012,1,1,0,1,NA,NA,NA,NA,NA,NA,NA,NA,NA,NA,NA,NA,NA,NA,NA,NA,NA,NA,NA,NA,NA,NA,NA,NA
"92","stim/objects/HouseObjects/remote2.png",78,47,78,0.9,"stim/42.jpeg",4,2,3,NA,"HouseObjects",1,1,"left","left",0.476999998,1,1,0,1,NA,NA,NA,NA,NA,NA,NA,NA,NA,NA,NA,NA,NA,NA,NA,NA,NA,NA,NA,NA,NA,NA,NA,NA
"135","stim/objects/Instruments/laud2.png",79,47,79,0.3,"stim/22.jpeg",2,2,2,NA,"Instruments",2,4,"right","left",0.58100009,0,0,0,1,NA,NA,NA,NA,NA,NA,NA,NA,NA,NA,NA,NA,NA,NA,NA,NA,NA,NA,NA,NA,NA,NA,NA,NA
"78","stim/objects/HouseObjects/recyclingbin2.png",80,47,80,0.9,"stim/41.jpeg",4,1,3,NA,"HouseObjects",1,2,"left","left",0.502000093,1,1,0,1,NA,NA,NA,NA,NA,NA,NA,NA,NA,NA,NA,NA,NA,NA,NA,NA,NA,NA,NA,NA,NA,NA,NA,NA
"113","stim/objects/HouseObjects/rug2.png",81,47,81,0.9,"stim/44.jpeg",4,4,3,NA,"HouseObjects",1,4,"left","left",0.405999899,1,1,0,1,NA,NA,NA,NA,NA,NA,NA,NA,NA,NA,NA,NA,NA,NA,NA,NA,NA,NA,NA,NA,NA,NA,NA,NA
"219","stim/objects/Instruments/pipepiano.png",82,47,82,0.7,"stim/12.jpeg",1,2,2,NA,"Instruments",2,1,"right","left",0.357000113,0,0,0,1,NA,NA,NA,NA,NA,NA,NA,NA,NA,NA,NA,NA,NA,NA,NA,NA,NA,NA,NA,NA,NA,NA,NA,NA
"18","stim/objects/HouseObjects/ironingboard2.png",83,47,83,0.7,"stim/22.jpeg",2,2,2,NA,"HouseObjects",1,4,"left","left",0.519000053,1,1,0,1,NA,NA,NA,NA,NA,NA,NA,NA,NA,NA,NA,NA,NA,NA,NA,NA,NA,NA,NA,NA,NA,NA,NA,NA
"63","stim/objects/HouseObjects/pan.png",84,47,84,0.5,"stim/63.jpeg",6,3,1,NA,"HouseObjects",1,3,"left","right",0.576999903,0,0,0,1,NA,NA,NA,NA,NA,NA,NA,NA,NA,NA,NA,NA,NA,NA,NA,NA,NA,NA,NA,NA,NA,NA,NA,NA
"57","stim/objects/HouseObjects/match.png",85,47,85,0.5,"stim/62.jpeg",6,2,1,NA,"HouseObjects",1,3,"left","right",0.447999954,0,0,0,1,NA,NA,NA,NA,NA,NA,NA,NA,NA,NA,NA,NA,NA,NA,NA,NA,NA,NA,NA,NA,NA,NA,NA,NA
"32","stim/objects/HouseObjects/key2.png",86,47,86,0.7,"stim/23.jpeg",2,3,2,NA,"HouseObjects",1,1,"left","left",0.578000069,1,1,0,1,NA,NA,NA,NA,NA,NA,NA,NA,NA,NA,NA,NA,NA,NA,NA,NA,NA,NA,NA,NA,NA,NA,NA,NA
"161","stim/objects/Instruments/metronome2.png",87,47,87,0.9,"stim/31.jpeg",3,1,3,NA,"Instruments",2,3,"right","right",0.607000113,1,1,0,1,NA,NA,NA,NA,NA,NA,NA,NA,NA,NA,NA,NA,NA,NA,NA,NA,NA,NA,NA,NA,NA,NA,NA,NA
"93","stim/objects/HouseObjects/remote2.png",88,47,88,0.9,"stim/42.jpeg",4,2,3,NA,"HouseObjects",1,3,"left","left",0.50999999,1,1,0,1,NA,NA,NA,NA,NA,NA,NA,NA,NA,NA,NA,NA,NA,NA,NA,NA,NA,NA,NA,NA,NA,NA,NA,NA
"240","stim/objects/Instruments/record2.png",89,47,89,0.1,"stim/43.jpeg",4,3,3,NA,"Instruments",2,3,"right","left",0.814999819,0,0,0,1,NA,NA,NA,NA,NA,NA,NA,NA,NA,NA,NA,NA,NA,NA,NA,NA,NA,NA,NA,NA,NA,NA,NA,NA
"232","stim/objects/Instruments/record_player2.png",90,47,90,0.1,"stim/44.jpeg",4,4,3,NA,"Instruments",2,3,"right","left",0.671999931,0,0,0,1,NA,NA,NA,NA,NA,NA,NA,NA,NA,NA,NA,NA,NA,NA,NA,NA,NA,NA,NA,NA,NA,NA,NA,NA
"203","stim/objects/Instruments/oboe2.png",91,47,91,0.9,"stim/34.jpeg",3,4,3,NA,"Instruments",2,3,"right","right",0.710000038,1,1,0,1,NA,NA,NA,NA,NA,NA,NA,NA,NA,NA,NA,NA,NA,NA,NA,NA,NA,NA,NA,NA,NA,NA,NA,NA
"196","stim/objects/Instruments/oboe.png",92,47,92,0.5,"stim/64.jpeg",6,4,1,NA,"Instruments",2,3,"right","",NA,0,0,0,1,NA,NA,NA,NA,NA,NA,NA,NA,NA,NA,NA,NA,NA,NA,NA,NA,NA,NA,NA,NA,NA,NA,NA,NA
"187","stim/objects/Instruments/musicstand2.png",93,47,93,0.9,"stim/33.jpeg",3,3,3,NA,"Instruments",2,2,"right","left",0.575000048,0,0,0,1,NA,NA,NA,NA,NA,NA,NA,NA,NA,NA,NA,NA,NA,NA,NA,NA,NA,NA,NA,NA,NA,NA,NA,NA
"227","stim/objects/Instruments/record_player.png",94,47,94,0.7,"stim/14.jpeg",1,4,2,NA,"Instruments",2,1,"right","left",0.59100008,0,0,0,1,NA,NA,NA,NA,NA,NA,NA,NA,NA,NA,NA,NA,NA,NA,NA,NA,NA,NA,NA,NA,NA,NA,NA,NA
"68","stim/objects/HouseObjects/pitcher.png",95,47,95,0.5,"stim/64.jpeg",6,4,1,NA,"HouseObjects",1,4,"left","right",0.546999931,0,0,0,1,NA,NA,NA,NA,NA,NA,NA,NA,NA,NA,NA,NA,NA,NA,NA,NA,NA,NA,NA,NA,NA,NA,NA,NA
"94","stim/objects/HouseObjects/remote2.png",96,47,96,0.9,"stim/42.jpeg",4,2,3,NA,"HouseObjects",1,4,"left","right",0.582000017,0,0,0,1,NA,NA,NA,NA,NA,NA,NA,NA,NA,NA,NA,NA,NA,NA,NA,NA,NA,NA,NA,NA,NA,NA,NA,NA
"64","stim/objects/HouseObjects/pan.png",97,47,97,0.5,"stim/63.jpeg",6,3,1,NA,"HouseObjects",1,1,"left","right",0.663000107,0,0,0,1,NA,NA,NA,NA,NA,NA,NA,NA,NA,NA,NA,NA,NA,NA,NA,NA,NA,NA,NA,NA,NA,NA,NA,NA
"45","stim/objects/HouseObjects/knife2.png",98,47,98,0.7,"stim/24.jpeg",2,4,2,NA,"HouseObjects",1,3,"left","left",0.796000004,1,1,0,1,NA,NA,NA,NA,NA,NA,NA,NA,NA,NA,NA,NA,NA,NA,NA,NA,NA,NA,NA,NA,NA,NA,NA,NA
"174","stim/objects/Instruments/musicsheet2.png",99,47,99,0.9,"stim/32.jpeg",3,2,3,NA,"Instruments",2,4,"right","right",0.544000149,1,1,0,1,NA,NA,NA,NA,NA,NA,NA,NA,NA,NA,NA,NA,NA,NA,NA,NA,NA,NA,NA,NA,NA,NA,NA,NA
"109","stim/objects/HouseObjects/rug.png",100,47,100,0.3,"stim/14.jpeg",1,4,2,NA,"HouseObjects",1,3,"left","right",0.707999945,0,0,0,1,NA,NA,NA,NA,NA,NA,NA,NA,NA,NA,NA,NA,NA,NA,NA,NA,NA,NA,NA,NA,NA,NA,NA,NA
"162","stim/objects/Instruments/metronome2.png",101,47,101,0.9,"stim/31.jpeg",3,1,3,NA,"Instruments",2,2,"right","right",0.683000088,1,1,0,1,NA,NA,NA,NA,NA,NA,NA,NA,NA,NA,NA,NA,NA,NA,NA,NA,NA,NA,NA,NA,NA,NA,NA,NA
"188","stim/objects/Instruments/musicstand2.png",102,47,102,0.9,"stim/33.jpeg",3,3,3,NA,"Instruments",2,1,"right","right",0.561000109,1,1,0,1,NA,NA,NA,NA,NA,NA,NA,NA,NA,NA,NA,NA,NA,NA,NA,NA,NA,NA,NA,NA,NA,NA,NA,NA
"86","stim/objects/HouseObjects/remote.png",103,47,103,0.3,"stim/12.jpeg",1,2,2,NA,"HouseObjects",1,2,"left","",NA,0,0,0,1,NA,NA,NA,NA,NA,NA,NA,NA,NA,NA,NA,NA,NA,NA,NA,NA,NA,NA,NA,NA,NA,NA,NA,NA
"79","stim/objects/HouseObjects/recyclingbin2.png",104,47,104,0.9,"stim/41.jpeg",4,1,3,NA,"HouseObjects",1,1,"left","right",0.484000206,0,0,0,1,NA,NA,NA,NA,NA,NA,NA,NA,NA,NA,NA,NA,NA,NA,NA,NA,NA,NA,NA,NA,NA,NA,NA,NA
"80","stim/objects/HouseObjects/recyclingbin2.png",105,47,105,0.9,"stim/41.jpeg",4,1,3,NA,"HouseObjects",1,1,"left","left",0.607000113,1,1,0,1,NA,NA,NA,NA,NA,NA,NA,NA,NA,NA,NA,NA,NA,NA,NA,NA,NA,NA,NA,NA,NA,NA,NA,NA
"228","stim/objects/Instruments/record_player.png",106,47,106,0.7,"stim/14.jpeg",1,4,2,NA,"Instruments",2,3,"right","left",0.389000177,0,0,0,1,NA,NA,NA,NA,NA,NA,NA,NA,NA,NA,NA,NA,NA,NA,NA,NA,NA,NA,NA,NA,NA,NA,NA,NA
"184","stim/objects/Instruments/musicstand.png",107,47,107,0.5,"stim/63.jpeg",6,3,1,NA,"Instruments",2,4,"right","right",0.625,1,1,0,1,NA,NA,NA,NA,NA,NA,NA,NA,NA,NA,NA,NA,NA,NA,NA,NA,NA,NA,NA,NA,NA,NA,NA,NA
"46","stim/objects/HouseObjects/knife2.png",108,47,108,0.7,"stim/24.jpeg",2,4,2,NA,"HouseObjects",1,4,"left","left",0.521999836,1,1,0,1,NA,NA,NA,NA,NA,NA,NA,NA,NA,NA,NA,NA,NA,NA,NA,NA,NA,NA,NA,NA,NA,NA,NA,NA
"8","stim/objects/HouseObjects/iron2.png",109,47,109,0.7,"stim/21.jpeg",2,1,2,NA,"HouseObjects",1,1,"left","left",0.487999916,1,1,0,1,NA,NA,NA,NA,NA,NA,NA,NA,NA,NA,NA,NA,NA,NA,NA,NA,NA,NA,NA,NA,NA,NA,NA,NA
"189","stim/objects/Instruments/musicstand2.png",110,47,110,0.9,"stim/33.jpeg",3,3,3,NA,"Instruments",2,2,"right","right",0.568000078,1,1,0,1,NA,NA,NA,NA,NA,NA,NA,NA,NA,NA,NA,NA,NA,NA,NA,NA,NA,NA,NA,NA,NA,NA,NA,NA
"9","stim/objects/HouseObjects/iron2.png",111,47,111,0.7,"stim/21.jpeg",2,1,2,NA,"HouseObjects",1,1,"left","left",0.565000057,1,1,0,1,NA,NA,NA,NA,NA,NA,NA,NA,NA,NA,NA,NA,NA,NA,NA,NA,NA,NA,NA,NA,NA,NA,NA,NA
"150","stim/objects/Instruments/marimba2.png",112,47,112,0.3,"stim/24.jpeg",2,4,2,NA,"Instruments",2,2,"right","left",0.469000101,0,0,0,1,NA,NA,NA,NA,NA,NA,NA,NA,NA,NA,NA,NA,NA,NA,NA,NA,NA,NA,NA,NA,NA,NA,NA,NA
"19","stim/objects/HouseObjects/ironingboard2.png",113,47,113,0.7,"stim/22.jpeg",2,2,2,NA,"HouseObjects",1,3,"left","left",0.483999968,1,1,0,1,NA,NA,NA,NA,NA,NA,NA,NA,NA,NA,NA,NA,NA,NA,NA,NA,NA,NA,NA,NA,NA,NA,NA,NA
"39","stim/objects/HouseObjects/knife.png",114,47,114,0.5,"stim/54.jpeg",5,4,1,NA,"HouseObjects",1,4,"left","right",0.546000004,0,0,0,1,NA,NA,NA,NA,NA,NA,NA,NA,NA,NA,NA,NA,NA,NA,NA,NA,NA,NA,NA,NA,NA,NA,NA,NA
"40","stim/objects/HouseObjects/knife.png",115,47,115,0.5,"stim/54.jpeg",5,4,1,NA,"HouseObjects",1,4,"left","left",0.394000053,1,1,0,1,NA,NA,NA,NA,NA,NA,NA,NA,NA,NA,NA,NA,NA,NA,NA,NA,NA,NA,NA,NA,NA,NA,NA,NA
"103","stim/objects/HouseObjects/rubbergloves2.png",116,47,116,0.9,"stim/43.jpeg",4,3,3,NA,"HouseObjects",1,2,"left","left",0.496999979,1,1,0,1,NA,NA,NA,NA,NA,NA,NA,NA,NA,NA,NA,NA,NA,NA,NA,NA,NA,NA,NA,NA,NA,NA,NA,NA
"190","stim/objects/Instruments/musicstand2.png",117,47,117,0.9,"stim/33.jpeg",3,3,3,NA,"Instruments",2,2,"right","right",0.536999941,1,1,0,1,NA,NA,NA,NA,NA,NA,NA,NA,NA,NA,NA,NA,NA,NA,NA,NA,NA,NA,NA,NA,NA,NA,NA,NA
"139","stim/objects/Instruments/maraca.png",118,47,118,0.5,"stim/53.jpeg",5,3,1,NA,"Instruments",2,3,"right","left",0.578999996,0,0,0,1,NA,NA,NA,NA,NA,NA,NA,NA,NA,NA,NA,NA,NA,NA,NA,NA,NA,NA,NA,NA,NA,NA,NA,NA
"163","stim/objects/Instruments/metronome2.png",119,47,119,0.9,"stim/31.jpeg",3,1,3,NA,"Instruments",2,2,"right","right",0.616999865,1,1,0,1,NA,NA,NA,NA,NA,NA,NA,NA,NA,NA,NA,NA,NA,NA,NA,NA,NA,NA,NA,NA,NA,NA,NA,NA
"175","stim/objects/Instruments/musicsheet2.png",120,47,120,0.9,"stim/32.jpeg",3,2,3,NA,"Instruments",2,4,"right","right",0.529999971,1,1,0,1,NA,NA,NA,NA,NA,NA,NA,NA,NA,NA,NA,NA,NA,NA,NA,NA,NA,NA,NA,NA,NA,NA,NA,NA
"220","stim/objects/Instruments/pipepiano.png",121,47,121,0.7,"stim/12.jpeg",1,2,2,NA,"Instruments",2,2,"right","left",0.837000132,0,0,0,1,NA,NA,NA,NA,NA,NA,NA,NA,NA,NA,NA,NA,NA,NA,NA,NA,NA,NA,NA,NA,NA,NA,NA,NA
"81","stim/objects/HouseObjects/recyclingbin2.png",122,47,122,0.9,"stim/41.jpeg",4,1,3,NA,"HouseObjects",1,1,"left","left",0.522000074,1,1,0,1,NA,NA,NA,NA,NA,NA,NA,NA,NA,NA,NA,NA,NA,NA,NA,NA,NA,NA,NA,NA,NA,NA,NA,NA
"191","stim/objects/Instruments/musicstand2.png",123,47,123,0.9,"stim/33.jpeg",3,3,3,NA,"Instruments",2,4,"right","right",0.549999952,1,1,0,1,NA,NA,NA,NA,NA,NA,NA,NA,NA,NA,NA,NA,NA,NA,NA,NA,NA,NA,NA,NA,NA,NA,NA,NA
"229","stim/objects/Instruments/record_player.png",124,47,124,0.7,"stim/14.jpeg",1,4,2,NA,"Instruments",2,4,"right","left",0.649999857,0,0,0,1,NA,NA,NA,NA,NA,NA,NA,NA,NA,NA,NA,NA,NA,NA,NA,NA,NA,NA,NA,NA,NA,NA,NA,NA
"114","stim/objects/HouseObjects/rug2.png",125,47,125,0.9,"stim/44.jpeg",4,4,3,NA,"HouseObjects",1,4,"left","left",0.569999933,1,1,0,1,NA,NA,NA,NA,NA,NA,NA,NA,NA,NA,NA,NA,NA,NA,NA,NA,NA,NA,NA,NA,NA,NA,NA,NA
"192","stim/objects/Instruments/musicstand2.png",126,47,126,0.9,"stim/33.jpeg",3,3,3,NA,"Instruments",2,2,"right","right",0.56099987,1,1,0,1,NA,NA,NA,NA,NA,NA,NA,NA,NA,NA,NA,NA,NA,NA,NA,NA,NA,NA,NA,NA,NA,NA,NA,NA
"167","stim/objects/Instruments/musicsheet.png",127,47,127,0.5,"stim/62.jpeg",6,2,1,NA,"Instruments",2,2,"right","",NA,0,0,0,1,NA,NA,NA,NA,NA,NA,NA,NA,NA,NA,NA,NA,NA,NA,NA,NA,NA,NA,NA,NA,NA,NA,NA,NA
"10","stim/objects/HouseObjects/iron2.png",128,47,128,0.7,"stim/21.jpeg",2,1,2,NA,"HouseObjects",1,1,"left","left",0.528000116,1,1,0,1,NA,NA,NA,NA,NA,NA,NA,NA,NA,NA,NA,NA,NA,NA,NA,NA,NA,NA,NA,NA,NA,NA,NA,NA
"47","stim/objects/HouseObjects/knife2.png",129,47,129,0.7,"stim/24.jpeg",2,4,2,NA,"HouseObjects",1,2,"left","left",0.437000036,1,1,0,1,NA,NA,NA,NA,NA,NA,NA,NA,NA,NA,NA,NA,NA,NA,NA,NA,NA,NA,NA,NA,NA,NA,NA,NA
"176","stim/objects/Instruments/musicsheet2.png",130,47,130,0.9,"stim/32.jpeg",3,2,3,NA,"Instruments",2,3,"right","right",0.562999964,1,1,0,1,NA,NA,NA,NA,NA,NA,NA,NA,NA,NA,NA,NA,NA,NA,NA,NA,NA,NA,NA,NA,NA,NA,NA,NA
"164","stim/objects/Instruments/metronome2.png",131,47,131,0.9,"stim/31.jpeg",3,1,3,NA,"Instruments",2,1,"right","right",0.404000044,1,1,0,1,NA,NA,NA,NA,NA,NA,NA,NA,NA,NA,NA,NA,NA,NA,NA,NA,NA,NA,NA,NA,NA,NA,NA,NA
"168","stim/objects/Instruments/musicsheet.png",132,47,132,0.5,"stim/62.jpeg",6,2,1,NA,"Instruments",2,1,"right","right",0.396999836,1,1,0,1,NA,NA,NA,NA,NA,NA,NA,NA,NA,NA,NA,NA,NA,NA,NA,NA,NA,NA,NA,NA,NA,NA,NA,NA
"235","stim/objects/Instruments/record.png",133,47,133,0.7,"stim/13.jpeg",1,3,2,NA,"Instruments",2,4,"right","left",0.838999987,0,0,0,1,NA,NA,NA,NA,NA,NA,NA,NA,NA,NA,NA,NA,NA,NA,NA,NA,NA,NA,NA,NA,NA,NA,NA,NA
"48","stim/objects/HouseObjects/knife2.png",134,47,134,0.7,"stim/24.jpeg",2,4,2,NA,"HouseObjects",1,4,"left","left",0.492999792,1,1,0,1,NA,NA,NA,NA,NA,NA,NA,NA,NA,NA,NA,NA,NA,NA,NA,NA,NA,NA,NA,NA,NA,NA,NA,NA
"33","stim/objects/HouseObjects/key2.png",135,47,135,0.7,"stim/23.jpeg",2,3,2,NA,"HouseObjects",1,1,"left","left",0.388000011,1,1,0,1,NA,NA,NA,NA,NA,NA,NA,NA,NA,NA,NA,NA,NA,NA,NA,NA,NA,NA,NA,NA,NA,NA,NA,NA
"110","stim/objects/HouseObjects/rug.png",136,47,136,0.3,"stim/14.jpeg",1,4,2,NA,"HouseObjects",1,2,"left","right",0.460999966,0,0,0,1,NA,NA,NA,NA,NA,NA,NA,NA,NA,NA,NA,NA,NA,NA,NA,NA,NA,NA,NA,NA,NA,NA,NA,NA
"58","stim/objects/HouseObjects/match.png",137,47,137,0.5,"stim/62.jpeg",6,2,1,NA,"HouseObjects",1,1,"left","left",0.879999876,1,1,0,1,NA,NA,NA,NA,NA,NA,NA,NA,NA,NA,NA,NA,NA,NA,NA,NA,NA,NA,NA,NA,NA,NA,NA,NA
"177","stim/objects/Instruments/musicsheet2.png",138,47,138,0.9,"stim/32.jpeg",3,2,3,NA,"Instruments",2,4,"right","right",0.516000032,1,1,0,1,NA,NA,NA,NA,NA,NA,NA,NA,NA,NA,NA,NA,NA,NA,NA,NA,NA,NA,NA,NA,NA,NA,NA,NA
"51","stim/objects/HouseObjects/lintroller.png",139,47,139,0.5,"stim/61.jpeg",6,1,1,NA,"HouseObjects",1,2,"left","left",0.598999977,1,1,0,1,NA,NA,NA,NA,NA,NA,NA,NA,NA,NA,NA,NA,NA,NA,NA,NA,NA,NA,NA,NA,NA,NA,NA,NA
"144","stim/objects/Instruments/maraca2.png",140,47,140,0.3,"stim/23.jpeg",2,3,2,NA,"Instruments",2,2,"right","left",0.616999865,0,0,0,1,NA,NA,NA,NA,NA,NA,NA,NA,NA,NA,NA,NA,NA,NA,NA,NA,NA,NA,NA,NA,NA,NA,NA,NA
"52","stim/objects/HouseObjects/lintroller.png",141,47,141,0.5,"stim/61.jpeg",6,1,1,NA,"HouseObjects",1,2,"left","left",0.693000078,1,1,0,1,NA,NA,NA,NA,NA,NA,NA,NA,NA,NA,NA,NA,NA,NA,NA,NA,NA,NA,NA,NA,NA,NA,NA,NA
"151","stim/objects/Instruments/marimba2.png",142,47,142,0.3,"stim/24.jpeg",2,4,2,NA,"Instruments",2,2,"right","left",0.680000067,0,0,0,1,NA,NA,NA,NA,NA,NA,NA,NA,NA,NA,NA,NA,NA,NA,NA,NA,NA,NA,NA,NA,NA,NA,NA,NA
"74","stim/objects/HouseObjects/recyclingbin.png",143,47,143,0.3,"stim/11.jpeg",1,1,2,NA,"HouseObjects",1,1,"left","right",0.546000004,0,0,0,1,NA,NA,NA,NA,NA,NA,NA,NA,NA,NA,NA,NA,NA,NA,NA,NA,NA,NA,NA,NA,NA,NA,NA,NA
"140","stim/objects/Instruments/maraca.png",144,47,144,0.5,"stim/53.jpeg",5,3,1,NA,"Instruments",2,2,"right","left",0.570999861,0,0,0,1,NA,NA,NA,NA,NA,NA,NA,NA,NA,NA,NA,NA,NA,NA,NA,NA,NA,NA,NA,NA,NA,NA,NA,NA
"11","stim/objects/HouseObjects/iron2.png",145,47,145,0.7,"stim/21.jpeg",2,1,2,NA,"HouseObjects",1,2,"left","left",0.596000195,1,1,0,1,NA,NA,NA,NA,NA,NA,NA,NA,NA,NA,NA,NA,NA,NA,NA,NA,NA,NA,NA,NA,NA,NA,NA,NA
"230","stim/objects/Instruments/record_player.png",146,47,146,0.7,"stim/14.jpeg",1,4,2,NA,"Instruments",2,4,"right","left",0.58100009,0,0,0,1,NA,NA,NA,NA,NA,NA,NA,NA,NA,NA,NA,NA,NA,NA,NA,NA,NA,NA,NA,NA,NA,NA,NA,NA
"115","stim/objects/HouseObjects/rug2.png",147,47,147,0.9,"stim/44.jpeg",4,4,3,NA,"HouseObjects",1,4,"left","left",0.514999866,1,1,0,1,NA,NA,NA,NA,NA,NA,NA,NA,NA,NA,NA,NA,NA,NA,NA,NA,NA,NA,NA,NA,NA,NA,NA,NA
"72","stim/objects/HouseObjects/pitcher2.png",148,47,148,0.1,"stim/34.jpeg",3,4,3,NA,"HouseObjects",1,3,"left","right",0.599999905,0,0,0,1,NA,NA,NA,NA,NA,NA,NA,NA,NA,NA,NA,NA,NA,NA,NA,NA,NA,NA,NA,NA,NA,NA,NA,NA
"193","stim/objects/Instruments/musicstand2.png",149,47,149,0.9,"stim/33.jpeg",3,3,3,NA,"Instruments",2,2,"right","right",0.555000067,1,1,0,1,NA,NA,NA,NA,NA,NA,NA,NA,NA,NA,NA,NA,NA,NA,NA,NA,NA,NA,NA,NA,NA,NA,NA,NA
"34","stim/objects/HouseObjects/key2.png",150,47,150,0.7,"stim/23.jpeg",2,3,2,NA,"HouseObjects",1,4,"left","left",0.482999802,1,1,0,1,NA,NA,NA,NA,NA,NA,NA,NA,NA,NA,NA,NA,NA,NA,NA,NA,NA,NA,NA,NA,NA,NA,NA,NA
"236","stim/objects/Instruments/record.png",151,47,151,0.7,"stim/13.jpeg",1,3,2,NA,"Instruments",2,4,"right","right",0.632999897,1,1,0,1,NA,NA,NA,NA,NA,NA,NA,NA,NA,NA,NA,NA,NA,NA,NA,NA,NA,NA,NA,NA,NA,NA,NA,NA
"131","stim/objects/Instruments/laud.png",152,47,152,0.5,"stim/52.jpeg",5,2,1,NA,"Instruments",2,2,"right","left",0.582000017,0,0,0,1,NA,NA,NA,NA,NA,NA,NA,NA,NA,NA,NA,NA,NA,NA,NA,NA,NA,NA,NA,NA,NA,NA,NA,NA
"237","stim/objects/Instruments/record.png",153,47,153,0.7,"stim/13.jpeg",1,3,2,NA,"Instruments",2,4,"right","right",0.622999907,1,1,0,1,NA,NA,NA,NA,NA,NA,NA,NA,NA,NA,NA,NA,NA,NA,NA,NA,NA,NA,NA,NA,NA,NA,NA,NA
"111","stim/objects/HouseObjects/rug.png",154,47,154,0.3,"stim/14.jpeg",1,4,2,NA,"HouseObjects",1,4,"left","right",0.427000046,0,0,0,1,NA,NA,NA,NA,NA,NA,NA,NA,NA,NA,NA,NA,NA,NA,NA,NA,NA,NA,NA,NA,NA,NA,NA,NA
"178","stim/objects/Instruments/musicsheet2.png",155,47,155,0.9,"stim/32.jpeg",3,2,3,NA,"Instruments",2,1,"right","right",0.568000078,1,1,0,1,NA,NA,NA,NA,NA,NA,NA,NA,NA,NA,NA,NA,NA,NA,NA,NA,NA,NA,NA,NA,NA,NA,NA,NA
"69","stim/objects/HouseObjects/pitcher.png",156,47,156,0.5,"stim/64.jpeg",6,4,1,NA,"HouseObjects",1,3,"left","right",0.781000137,0,0,0,1,NA,NA,NA,NA,NA,NA,NA,NA,NA,NA,NA,NA,NA,NA,NA,NA,NA,NA,NA,NA,NA,NA,NA,NA
"20","stim/objects/HouseObjects/ironingboard2.png",157,47,157,0.7,"stim/22.jpeg",2,2,2,NA,"HouseObjects",1,3,"left","left",0.568000078,1,1,0,1,NA,NA,NA,NA,NA,NA,NA,NA,NA,NA,NA,NA,NA,NA,NA,NA,NA,NA,NA,NA,NA,NA,NA,NA
"214","stim/objects/Instruments/panflute.png",158,47,158,0.7,"stim/11.jpeg",1,1,2,NA,"Instruments",2,1,"right","right",0.625999928,1,1,0,1,NA,NA,NA,NA,NA,NA,NA,NA,NA,NA,NA,NA,NA,NA,NA,NA,NA,NA,NA,NA,NA,NA,NA,NA
"155","stim/objects/Instruments/metronome.png",159,47,159,0.5,"stim/61.jpeg",6,1,1,NA,"Instruments",2,2,"right","right",0.462000132,1,1,0,1,NA,NA,NA,NA,NA,NA,NA,NA,NA,NA,NA,NA,NA,NA,NA,NA,NA,NA,NA,NA,NA,NA,NA,NA
"156","stim/objects/Instruments/metronome.png",160,47,160,0.5,"stim/61.jpeg",6,1,1,NA,"Instruments",2,3,"right","right",0.493000031,1,1,0,1,NA,NA,NA,NA,NA,NA,NA,NA,NA,NA,NA,NA,NA,NA,NA,NA,NA,NA,NA,NA,NA,NA,NA,NA
"16","stim/objects/HouseObjects/ironingboard.png",161,47,161,0.5,"stim/52.jpeg",5,2,1,NA,"HouseObjects",1,2,"left","left",0.549000025,1,1,0,1,NA,NA,NA,NA,NA,NA,NA,NA,NA,NA,NA,NA,NA,NA,NA,NA,NA,NA,NA,NA,NA,NA,NA,NA
"136","stim/objects/Instruments/laud2.png",162,47,162,0.3,"stim/22.jpeg",2,2,2,NA,"Instruments",2,3,"right","left",0.477999926,0,0,0,1,NA,NA,NA,NA,NA,NA,NA,NA,NA,NA,NA,NA,NA,NA,NA,NA,NA,NA,NA,NA,NA,NA,NA,NA
"152","stim/objects/Instruments/marimba2.png",163,47,163,0.3,"stim/24.jpeg",2,4,2,NA,"Instruments",2,3,"right","left",0.657000065,0,0,0,1,NA,NA,NA,NA,NA,NA,NA,NA,NA,NA,NA,NA,NA,NA,NA,NA,NA,NA,NA,NA,NA,NA,NA,NA
"104","stim/objects/HouseObjects/rubbergloves2.png",164,47,164,0.9,"stim/43.jpeg",4,3,3,NA,"HouseObjects",1,2,"left","right",0.450999975,0,0,0,1,NA,NA,NA,NA,NA,NA,NA,NA,NA,NA,NA,NA,NA,NA,NA,NA,NA,NA,NA,NA,NA,NA,NA,NA
"116","stim/objects/HouseObjects/rug2.png",165,47,165,0.9,"stim/44.jpeg",4,4,3,NA,"HouseObjects",1,2,"left","left",0.484999895,1,1,0,1,NA,NA,NA,NA,NA,NA,NA,NA,NA,NA,NA,NA,NA,NA,NA,NA,NA,NA,NA,NA,NA,NA,NA,NA
"2","stim/objects/HouseObjects/iron.png",166,47,166,0.5,"stim/51.jpeg",5,1,1,NA,"HouseObjects",1,3,"left","left",0.563000202,1,1,0,1,NA,NA,NA,NA,NA,NA,NA,NA,NA,NA,NA,NA,NA,NA,NA,NA,NA,NA,NA,NA,NA,NA,NA,NA
"132","stim/objects/Instruments/laud.png",167,47,167,0.5,"stim/52.jpeg",5,2,1,NA,"Instruments",2,4,"right","left",0.802999973,0,0,0,1,NA,NA,NA,NA,NA,NA,NA,NA,NA,NA,NA,NA,NA,NA,NA,NA,NA,NA,NA,NA,NA,NA,NA,NA
"53","stim/objects/HouseObjects/lintroller.png",168,47,168,0.5,"stim/61.jpeg",6,1,1,NA,"HouseObjects",1,4,"left","",NA,0,0,0,1,NA,NA,NA,NA,NA,NA,NA,NA,NA,NA,NA,NA,NA,NA,NA,NA,NA,NA,NA,NA,NA,NA,NA,NA
"70","stim/objects/HouseObjects/pitcher.png",169,47,169,0.5,"stim/64.jpeg",6,4,1,NA,"HouseObjects",1,4,"left","left",0.726999998,1,1,0,1,NA,NA,NA,NA,NA,NA,NA,NA,NA,NA,NA,NA,NA,NA,NA,NA,NA,NA,NA,NA,NA,NA,NA,NA
"60","stim/objects/HouseObjects/match2.png",170,47,170,0.1,"stim/32.jpeg",3,2,3,NA,"HouseObjects",1,4,"left","right",0.560000181,0,0,0,1,NA,NA,NA,NA,NA,NA,NA,NA,NA,NA,NA,NA,NA,NA,NA,NA,NA,NA,NA,NA,NA,NA,NA,NA
"204","stim/objects/Instruments/oboe2.png",171,47,171,0.9,"stim/34.jpeg",3,4,3,NA,"Instruments",2,2,"right","right",0.385999918,1,1,0,1,NA,NA,NA,NA,NA,NA,NA,NA,NA,NA,NA,NA,NA,NA,NA,NA,NA,NA,NA,NA,NA,NA,NA,NA
"165","stim/objects/Instruments/metronome2.png",172,47,172,0.9,"stim/31.jpeg",3,1,3,NA,"Instruments",2,3,"right","right",0.563999891,1,1,0,1,NA,NA,NA,NA,NA,NA,NA,NA,NA,NA,NA,NA,NA,NA,NA,NA,NA,NA,NA,NA,NA,NA,NA,NA
"71","stim/objects/HouseObjects/pitcher.png",173,47,173,0.5,"stim/64.jpeg",6,4,1,NA,"HouseObjects",1,3,"left","left",0.457000017,1,1,0,1,NA,NA,NA,NA,NA,NA,NA,NA,NA,NA,NA,NA,NA,NA,NA,NA,NA,NA,NA,NA,NA,NA,NA,NA
"179","stim/objects/Instruments/musicsheet2.png",174,47,174,0.9,"stim/32.jpeg",3,2,3,NA,"Instruments",2,3,"right","right",0.397000074,1,1,0,1,NA,NA,NA,NA,NA,NA,NA,NA,NA,NA,NA,NA,NA,NA,NA,NA,NA,NA,NA,NA,NA,NA,NA,NA
"205","stim/objects/Instruments/oboe2.png",175,47,175,0.9,"stim/34.jpeg",3,4,3,NA,"Instruments",2,1,"right","right",0.414000034,1,1,0,1,NA,NA,NA,NA,NA,NA,NA,NA,NA,NA,NA,NA,NA,NA,NA,NA,NA,NA,NA,NA,NA,NA,NA,NA
"141","stim/objects/Instruments/maraca.png",176,47,176,0.5,"stim/53.jpeg",5,3,1,NA,"Instruments",2,4,"right","left",0.542999983,0,0,0,1,NA,NA,NA,NA,NA,NA,NA,NA,NA,NA,NA,NA,NA,NA,NA,NA,NA,NA,NA,NA,NA,NA,NA,NA
"121","stim/objects/Instruments/keyboard.png",177,47,177,0.5,"stim/51.jpeg",5,1,1,NA,"Instruments",2,4,"right","left",0.595000029,0,0,0,1,NA,NA,NA,NA,NA,NA,NA,NA,NA,NA,NA,NA,NA,NA,NA,NA,NA,NA,NA,NA,NA,NA,NA,NA
"21","stim/objects/HouseObjects/ironingboard2.png",178,47,178,0.7,"stim/22.jpeg",2,2,2,NA,"HouseObjects",1,3,"left","left",0.510999918,1,1,0,1,NA,NA,NA,NA,NA,NA,NA,NA,NA,NA,NA,NA,NA,NA,NA,NA,NA,NA,NA,NA,NA,NA,NA,NA
"82","stim/objects/HouseObjects/recyclingbin2.png",179,47,179,0.9,"stim/41.jpeg",4,1,3,NA,"HouseObjects",1,3,"left","left",0.582000017,1,1,0,1,NA,NA,NA,NA,NA,NA,NA,NA,NA,NA,NA,NA,NA,NA,NA,NA,NA,NA,NA,NA,NA,NA,NA,NA
"180","stim/objects/Instruments/musicsheet2.png",180,47,180,0.9,"stim/32.jpeg",3,2,3,NA,"Instruments",2,4,"right","right",0.615999937,1,1,0,1,NA,NA,NA,NA,NA,NA,NA,NA,NA,NA,NA,NA,NA,NA,NA,NA,NA,NA,NA,NA,NA,NA,NA,NA
"169","stim/objects/Instruments/musicsheet.png",181,47,181,0.5,"stim/62.jpeg",6,2,1,NA,"Instruments",2,1,"right","left",0.708000183,0,0,0,1,NA,NA,NA,NA,NA,NA,NA,NA,NA,NA,NA,NA,NA,NA,NA,NA,NA,NA,NA,NA,NA,NA,NA,NA
"221","stim/objects/Instruments/pipepiano.png",182,47,182,0.7,"stim/12.jpeg",1,2,2,NA,"Instruments",2,1,"right","left",0.653000116,0,0,0,1,NA,NA,NA,NA,NA,NA,NA,NA,NA,NA,NA,NA,NA,NA,NA,NA,NA,NA,NA,NA,NA,NA,NA,NA
"206","stim/objects/Instruments/oboe2.png",183,47,183,0.9,"stim/34.jpeg",3,4,3,NA,"Instruments",2,2,"right","right",0.437999964,1,1,0,1,NA,NA,NA,NA,NA,NA,NA,NA,NA,NA,NA,NA,NA,NA,NA,NA,NA,NA,NA,NA,NA,NA,NA,NA
"148","stim/objects/Instruments/marimba.png",184,47,184,0.5,"stim/54.jpeg",5,4,1,NA,"Instruments",2,2,"right","left",0.52699995,0,0,0,1,NA,NA,NA,NA,NA,NA,NA,NA,NA,NA,NA,NA,NA,NA,NA,NA,NA,NA,NA,NA,NA,NA,NA,NA
"3","stim/objects/HouseObjects/iron.png",185,47,185,0.5,"stim/51.jpeg",5,1,1,NA,"HouseObjects",1,1,"left","left",0.703000069,1,1,0,1,NA,NA,NA,NA,NA,NA,NA,NA,NA,NA,NA,NA,NA,NA,NA,NA,NA,NA,NA,NA,NA,NA,NA,NA
"17","stim/objects/HouseObjects/ironingboard.png",186,47,186,0.5,"stim/52.jpeg",5,2,1,NA,"HouseObjects",1,1,"left","left",0.526000023,1,1,0,1,NA,NA,NA,NA,NA,NA,NA,NA,NA,NA,NA,NA,NA,NA,NA,NA,NA,NA,NA,NA,NA,NA,NA,NA
"149","stim/objects/Instruments/marimba.png",187,47,187,0.5,"stim/54.jpeg",5,4,1,NA,"Instruments",2,3,"right","left",0.454999924,0,0,0,1,NA,NA,NA,NA,NA,NA,NA,NA,NA,NA,NA,NA,NA,NA,NA,NA,NA,NA,NA,NA,NA,NA,NA,NA
"117","stim/objects/HouseObjects/rug2.png",188,47,188,0.9,"stim/44.jpeg",4,4,3,NA,"HouseObjects",1,1,"left","left",0.603000164,1,1,0,1,NA,NA,NA,NA,NA,NA,NA,NA,NA,NA,NA,NA,NA,NA,NA,NA,NA,NA,NA,NA,NA,NA,NA,NA
"12","stim/objects/HouseObjects/iron2.png",189,47,189,0.7,"stim/21.jpeg",2,1,2,NA,"HouseObjects",1,3,"left","left",0.335000038,1,1,0,1,NA,NA,NA,NA,NA,NA,NA,NA,NA,NA,NA,NA,NA,NA,NA,NA,NA,NA,NA,NA,NA,NA,NA,NA
"35","stim/objects/HouseObjects/key2.png",190,47,190,0.7,"stim/23.jpeg",2,3,2,NA,"HouseObjects",1,2,"left","left",0.406999826,1,1,0,1,NA,NA,NA,NA,NA,NA,NA,NA,NA,NA,NA,NA,NA,NA,NA,NA,NA,NA,NA,NA,NA,NA,NA,NA
"166","stim/objects/Instruments/metronome2.png",191,47,191,0.9,"stim/31.jpeg",3,1,3,NA,"Instruments",2,4,"right","right",0.725999832,1,1,0,1,NA,NA,NA,NA,NA,NA,NA,NA,NA,NA,NA,NA,NA,NA,NA,NA,NA,NA,NA,NA,NA,NA,NA,NA
"238","stim/objects/Instruments/record.png",192,47,192,0.7,"stim/13.jpeg",1,3,2,NA,"Instruments",2,4,"right","left",0.621999979,0,0,0,1,NA,NA,NA,NA,NA,NA,NA,NA,NA,NA,NA,NA,NA,NA,NA,NA,NA,NA,NA,NA,NA,NA,NA,NA
"157","stim/objects/Instruments/metronome.png",193,47,193,0.5,"stim/61.jpeg",6,1,1,NA,"Instruments",2,3,"right","left",0.809000015,0,0,0,1,NA,NA,NA,NA,NA,NA,NA,NA,NA,NA,NA,NA,NA,NA,NA,NA,NA,NA,NA,NA,NA,NA,NA,NA
"105","stim/objects/HouseObjects/rubbergloves2.png",194,47,194,0.9,"stim/43.jpeg",4,3,3,NA,"HouseObjects",1,1,"left","left",0.447999954,1,1,0,1,NA,NA,NA,NA,NA,NA,NA,NA,NA,NA,NA,NA,NA,NA,NA,NA,NA,NA,NA,NA,NA,NA,NA,NA
"65","stim/objects/HouseObjects/pan.png",195,47,195,0.5,"stim/63.jpeg",6,3,1,NA,"HouseObjects",1,4,"left","right",0.713999987,0,0,0,1,NA,NA,NA,NA,NA,NA,NA,NA,NA,NA,NA,NA,NA,NA,NA,NA,NA,NA,NA,NA,NA,NA,NA,NA
"75","stim/objects/HouseObjects/recyclingbin.png",196,47,196,0.3,"stim/11.jpeg",1,1,2,NA,"HouseObjects",1,2,"left","right",0.75,0,0,0,1,NA,NA,NA,NA,NA,NA,NA,NA,NA,NA,NA,NA,NA,NA,NA,NA,NA,NA,NA,NA,NA,NA,NA,NA
"106","stim/objects/HouseObjects/rubbergloves2.png",197,47,197,0.9,"stim/43.jpeg",4,3,3,NA,"HouseObjects",1,1,"left","left",0.495000124,1,1,0,1,NA,NA,NA,NA,NA,NA,NA,NA,NA,NA,NA,NA,NA,NA,NA,NA,NA,NA,NA,NA,NA,NA,NA,NA
"222","stim/objects/Instruments/pipepiano.png",198,47,198,0.7,"stim/12.jpeg",1,2,2,NA,"Instruments",2,3,"right","right",0.671000004,1,1,0,1,NA,NA,NA,NA,NA,NA,NA,NA,NA,NA,NA,NA,NA,NA,NA,NA,NA,NA,NA,NA,NA,NA,NA,NA
"83","stim/objects/HouseObjects/recyclingbin2.png",199,47,199,0.9,"stim/41.jpeg",4,1,3,NA,"HouseObjects",1,3,"left","left",0.65199995,1,1,0,1,NA,NA,NA,NA,NA,NA,NA,NA,NA,NA,NA,NA,NA,NA,NA,NA,NA,NA,NA,NA,NA,NA,NA,NA
"127","stim/objects/Instruments/keyboard2.png",200,47,200,0.3,"stim/21.jpeg",2,1,2,NA,"Instruments",2,4,"right","left",0.512000084,0,0,0,1,NA,NA,NA,NA,NA,NA,NA,NA,NA,NA,NA,NA,NA,NA,NA,NA,NA,NA,NA,NA,NA,NA,NA,NA
"122","stim/objects/Instruments/keyboard.png",201,47,201,0.5,"stim/51.jpeg",5,1,1,NA,"Instruments",2,1,"right","left",0.515000105,0,0,0,1,NA,NA,NA,NA,NA,NA,NA,NA,NA,NA,NA,NA,NA,NA,NA,NA,NA,NA,NA,NA,NA,NA,NA,NA
"197","stim/objects/Instruments/oboe.png",202,47,202,0.5,"stim/64.jpeg",6,4,1,NA,"Instruments",2,1,"right","right",0.547999859,1,1,0,1,NA,NA,NA,NA,NA,NA,NA,NA,NA,NA,NA,NA,NA,NA,NA,NA,NA,NA,NA,NA,NA,NA,NA,NA
"118","stim/objects/HouseObjects/rug2.png",203,47,203,0.9,"stim/44.jpeg",4,4,3,NA,"HouseObjects",1,2,"left","left",0.496000051,1,1,0,1,NA,NA,NA,NA,NA,NA,NA,NA,NA,NA,NA,NA,NA,NA,NA,NA,NA,NA,NA,NA,NA,NA,NA,NA
"22","stim/objects/HouseObjects/ironingboard2.png",204,47,204,0.7,"stim/22.jpeg",2,2,2,NA,"HouseObjects",1,4,"left","left",0.588999987,1,1,0,1,NA,NA,NA,NA,NA,NA,NA,NA,NA,NA,NA,NA,NA,NA,NA,NA,NA,NA,NA,NA,NA,NA,NA,NA
"185","stim/objects/Instruments/musicstand.png",205,47,205,0.5,"stim/63.jpeg",6,3,1,NA,"Instruments",2,3,"right","right",0.562999964,1,1,0,1,NA,NA,NA,NA,NA,NA,NA,NA,NA,NA,NA,NA,NA,NA,NA,NA,NA,NA,NA,NA,NA,NA,NA,NA
"87","stim/objects/HouseObjects/remote.png",206,47,206,0.3,"stim/12.jpeg",1,2,2,NA,"HouseObjects",1,2,"left","left",0.460999966,1,1,0,1,NA,NA,NA,NA,NA,NA,NA,NA,NA,NA,NA,NA,NA,NA,NA,NA,NA,NA,NA,NA,NA,NA,NA,NA
"54","stim/objects/HouseObjects/lintroller2.png",207,47,207,0.1,"stim/31.jpeg",3,1,3,NA,"HouseObjects",1,4,"left","right",0.713999987,0,0,0,1,NA,NA,NA,NA,NA,NA,NA,NA,NA,NA,NA,NA,NA,NA,NA,NA,NA,NA,NA,NA,NA,NA,NA,NA
"239","stim/objects/Instruments/record.png",208,47,208,0.7,"stim/13.jpeg",1,3,2,NA,"Instruments",2,1,"right","right",0.63499999,1,1,0,1,NA,NA,NA,NA,NA,NA,NA,NA,NA,NA,NA,NA,NA,NA,NA,NA,NA,NA,NA,NA,NA,NA,NA,NA
"133","stim/objects/Instruments/laud.png",209,47,209,0.5,"stim/52.jpeg",5,2,1,NA,"Instruments",2,4,"right","left",0.717999935,0,0,0,1,NA,NA,NA,NA,NA,NA,NA,NA,NA,NA,NA,NA,NA,NA,NA,NA,NA,NA,NA,NA,NA,NA,NA,NA
"170","stim/objects/Instruments/musicsheet.png",210,47,210,0.5,"stim/62.jpeg",6,2,1,NA,"Instruments",2,2,"right","right",0.424999952,1,1,0,1,NA,NA,NA,NA,NA,NA,NA,NA,NA,NA,NA,NA,NA,NA,NA,NA,NA,NA,NA,NA,NA,NA,NA,NA
"59","stim/objects/HouseObjects/match.png",211,47,211,0.5,"stim/62.jpeg",6,2,1,NA,"HouseObjects",1,1,"left","right",0.647000074,0,0,0,1,NA,NA,NA,NA,NA,NA,NA,NA,NA,NA,NA,NA,NA,NA,NA,NA,NA,NA,NA,NA,NA,NA,NA,NA
"123","stim/objects/Instruments/keyboard.png",212,47,212,0.5,"stim/51.jpeg",5,1,1,NA,"Instruments",2,4,"right","left",0.745000124,0,0,0,1,NA,NA,NA,NA,NA,NA,NA,NA,NA,NA,NA,NA,NA,NA,NA,NA,NA,NA,NA,NA,NA,NA,NA,NA
"4","stim/objects/HouseObjects/iron.png",213,47,213,0.5,"stim/51.jpeg",5,1,1,NA,"HouseObjects",1,1,"left","left",0.527999878,1,1,0,1,NA,NA,NA,NA,NA,NA,NA,NA,NA,NA,NA,NA,NA,NA,NA,NA,NA,NA,NA,NA,NA,NA,NA,NA
"207","stim/objects/Instruments/oboe2.png",214,47,214,0.9,"stim/34.jpeg",3,4,3,NA,"Instruments",2,1,"right","right",0.573999882,1,1,0,1,NA,NA,NA,NA,NA,NA,NA,NA,NA,NA,NA,NA,NA,NA,NA,NA,NA,NA,NA,NA,NA,NA,NA,NA
"231","stim/objects/Instruments/record_player.png",215,47,215,0.7,"stim/14.jpeg",1,4,2,NA,"Instruments",2,2,"right","right",0.428999901,1,1,0,1,NA,NA,NA,NA,NA,NA,NA,NA,NA,NA,NA,NA,NA,NA,NA,NA,NA,NA,NA,NA,NA,NA,NA,NA
"171","stim/objects/Instruments/musicsheet.png",216,47,216,0.5,"stim/62.jpeg",6,2,1,NA,"Instruments",2,4,"right","left",0.657999992,0,0,0,1,NA,NA,NA,NA,NA,NA,NA,NA,NA,NA,NA,NA,NA,NA,NA,NA,NA,NA,NA,NA,NA,NA,NA,NA
"95","stim/objects/HouseObjects/remote2.png",217,47,217,0.9,"stim/42.jpeg",4,2,3,NA,"HouseObjects",1,2,"left","left",0.464999914,1,1,0,1,NA,NA,NA,NA,NA,NA,NA,NA,NA,NA,NA,NA,NA,NA,NA,NA,NA,NA,NA,NA,NA,NA,NA,NA
"198","stim/objects/Instruments/oboe.png",218,47,218,0.5,"stim/64.jpeg",6,4,1,NA,"Instruments",2,3,"right","right",0.411000013,1,1,0,1,NA,NA,NA,NA,NA,NA,NA,NA,NA,NA,NA,NA,NA,NA,NA,NA,NA,NA,NA,NA,NA,NA,NA,NA
"23","stim/objects/HouseObjects/ironingboard2.png",219,47,219,0.7,"stim/22.jpeg",2,2,2,NA,"HouseObjects",1,3,"left","left",0.489000082,1,1,0,1,NA,NA,NA,NA,NA,NA,NA,NA,NA,NA,NA,NA,NA,NA,NA,NA,NA,NA,NA,NA,NA,NA,NA,NA
"223","stim/objects/Instruments/pipepiano.png",220,47,220,0.7,"stim/12.jpeg",1,2,2,NA,"Instruments",2,3,"right","right",0.513999939,1,1,0,1,NA,NA,NA,NA,NA,NA,NA,NA,NA,NA,NA,NA,NA,NA,NA,NA,NA,NA,NA,NA,NA,NA,NA,NA
"66","stim/objects/HouseObjects/pan2.png",221,47,221,0.1,"stim/33.jpeg",3,3,3,NA,"HouseObjects",1,4,"left","right",0.672999859,0,0,0,1,NA,NA,NA,NA,NA,NA,NA,NA,NA,NA,NA,NA,NA,NA,NA,NA,NA,NA,NA,NA,NA,NA,NA,NA
"208","stim/objects/Instruments/oboe2.png",222,47,222,0.9,"stim/34.jpeg",3,4,3,NA,"Instruments",2,3,"right","right",0.424000025,1,1,0,1,NA,NA,NA,NA,NA,NA,NA,NA,NA,NA,NA,NA,NA,NA,NA,NA,NA,NA,NA,NA,NA,NA,NA,NA
"24","stim/objects/HouseObjects/ironingboard2.png",223,47,223,0.7,"stim/22.jpeg",2,2,2,NA,"HouseObjects",1,1,"left","right",0.762000084,0,0,0,1,NA,NA,NA,NA,NA,NA,NA,NA,NA,NA,NA,NA,NA,NA,NA,NA,NA,NA,NA,NA,NA,NA,NA,NA
"128","stim/objects/Instruments/keyboard2.png",224,47,224,0.3,"stim/21.jpeg",2,1,2,NA,"Instruments",2,4,"right","left",0.465999842,0,0,0,1,NA,NA,NA,NA,NA,NA,NA,NA,NA,NA,NA,NA,NA,NA,NA,NA,NA,NA,NA,NA,NA,NA,NA,NA
"99","stim/objects/HouseObjects/rubbergloves.png",225,47,225,0.3,"stim/13.jpeg",1,3,2,NA,"HouseObjects",1,1,"left","",NA,0,0,0,1,NA,NA,NA,NA,NA,NA,NA,NA,NA,NA,NA,NA,NA,NA,NA,NA,NA,NA,NA,NA,NA,NA,NA,NA
"119","stim/objects/HouseObjects/rug2.png",226,47,226,0.9,"stim/44.jpeg",4,4,3,NA,"HouseObjects",1,4,"left","left",0.746000051,1,1,0,1,NA,NA,NA,NA,NA,NA,NA,NA,NA,NA,NA,NA,NA,NA,NA,NA,NA,NA,NA,NA,NA,NA,NA,NA
"124","stim/objects/Instruments/keyboard.png",227,47,227,0.5,"stim/51.jpeg",5,1,1,NA,"Instruments",2,1,"right","left",0.477999926,0,0,0,1,NA,NA,NA,NA,NA,NA,NA,NA,NA,NA,NA,NA,NA,NA,NA,NA,NA,NA,NA,NA,NA,NA,NA,NA
"107","stim/objects/HouseObjects/rubbergloves2.png",228,47,228,0.9,"stim/43.jpeg",4,3,3,NA,"HouseObjects",1,2,"left","left",0.517999887,1,1,0,1,NA,NA,NA,NA,NA,NA,NA,NA,NA,NA,NA,NA,NA,NA,NA,NA,NA,NA,NA,NA,NA,NA,NA,NA
"96","stim/objects/HouseObjects/remote2.png",229,47,229,0.9,"stim/42.jpeg",4,2,3,NA,"HouseObjects",1,3,"left","left",0.617000103,1,1,0,1,NA,NA,NA,NA,NA,NA,NA,NA,NA,NA,NA,NA,NA,NA,NA,NA,NA,NA,NA,NA,NA,NA,NA,NA
"215","stim/objects/Instruments/panflute.png",230,47,230,0.7,"stim/11.jpeg",1,1,2,NA,"Instruments",2,3,"right","left",0.532000065,0,0,0,1,NA,NA,NA,NA,NA,NA,NA,NA,NA,NA,NA,NA,NA,NA,NA,NA,NA,NA,NA,NA,NA,NA,NA,NA
"125","stim/objects/Instruments/keyboard.png",231,47,231,0.5,"stim/51.jpeg",5,1,1,NA,"Instruments",2,4,"right","right",0.823999882,1,1,0,1,NA,NA,NA,NA,NA,NA,NA,NA,NA,NA,NA,NA,NA,NA,NA,NA,NA,NA,NA,NA,NA,NA,NA,NA
"5","stim/objects/HouseObjects/iron.png",232,47,232,0.5,"stim/51.jpeg",5,1,1,NA,"HouseObjects",1,2,"left","right",0.501999855,0,0,0,1,NA,NA,NA,NA,NA,NA,NA,NA,NA,NA,NA,NA,NA,NA,NA,NA,NA,NA,NA,NA,NA,NA,NA,NA
"108","stim/objects/HouseObjects/rubbergloves2.png",233,47,233,0.9,"stim/43.jpeg",4,3,3,NA,"HouseObjects",1,3,"left","left",0.527000189,1,1,0,1,NA,NA,NA,NA,NA,NA,NA,NA,NA,NA,NA,NA,NA,NA,NA,NA,NA,NA,NA,NA,NA,NA,NA,NA
"36","stim/objects/HouseObjects/key2.png",234,47,234,0.7,"stim/23.jpeg",2,3,2,NA,"HouseObjects",1,3,"left","left",0.611000061,1,1,0,1,NA,NA,NA,NA,NA,NA,NA,NA,NA,NA,NA,NA,NA,NA,NA,NA,NA,NA,NA,NA,NA,NA,NA,NA
"199","stim/objects/Instruments/oboe.png",235,47,235,0.5,"stim/64.jpeg",6,4,1,NA,"Instruments",2,3,"right","right",0.414000034,1,1,0,1,NA,NA,NA,NA,NA,NA,NA,NA,NA,NA,NA,NA,NA,NA,NA,NA,NA,NA,NA,NA,NA,NA,NA,NA
"41","stim/objects/HouseObjects/knife.png",236,47,236,0.5,"stim/54.jpeg",5,4,1,NA,"HouseObjects",1,1,"left","left",0.730000019,1,1,0,1,NA,NA,NA,NA,NA,NA,NA,NA,NA,NA,NA,NA,NA,NA,NA,NA,NA,NA,NA,NA,NA,NA,NA,NA
"216","stim/objects/Instruments/panflute2.png",237,47,237,0.1,"stim/41.jpeg",4,1,3,NA,"Instruments",2,1,"right","left",0.643000126,0,0,0,1,NA,NA,NA,NA,NA,NA,NA,NA,NA,NA,NA,NA,NA,NA,NA,NA,NA,NA,NA,NA,NA,NA,NA,NA
"84","stim/objects/HouseObjects/recyclingbin2.png",238,47,238,0.9,"stim/41.jpeg",4,1,3,NA,"HouseObjects",1,3,"left","left",0.613999844,1,1,0,1,NA,NA,NA,NA,NA,NA,NA,NA,NA,NA,NA,NA,NA,NA,NA,NA,NA,NA,NA,NA,NA,NA,NA,NA
"194","stim/objects/Instruments/musicstand2.png",239,47,239,0.9,"stim/33.jpeg",3,3,3,NA,"Instruments",2,1,"right","right",0.517999887,1,1,0,1,NA,NA,NA,NA,NA,NA,NA,NA,NA,NA,NA,NA,NA,NA,NA,NA,NA,NA,NA,NA,NA,NA,NA,NA
"120","stim/objects/HouseObjects/rug2.png",240,47,240,0.9,"stim/44.jpeg",4,4,3,NA,"HouseObjects",1,2,"left","left",0.519000053,1,1,0,1,NA,NA,NA,NA,NA,NA,NA,NA,NA,NA,NA,NA,NA,NA,NA,NA,NA,NA,NA,NA,NA,NA,NA,NA
"342","stim/objects/HouseObjects/garbagebin.png",248,47,241,0.9,"stim/42.jpeg",4,2,3,2,"HouseObjects",1,1,"left","",NA,0,0,1,0,NA,NA,NA,NA,NA,NA,NA,NA,NA,NA,NA,NA,NA,NA,NA,NA,NA,NA,NA,NA,NA,NA,NA,NA
"473","stim/objects/Instruments/flutetrans.png",249,47,242,0.9,"stim/33.jpeg",3,3,3,2,"Instruments",2,3,"right","right",0.465999842,1,1,1,0,NA,NA,NA,NA,NA,NA,NA,NA,NA,NA,NA,NA,NA,NA,NA,NA,NA,NA,NA,NA,NA,NA,NA,NA
"255","stim/objects/HouseObjects/bleachbottle2.png",250,47,243,0.3,"stim/12.jpeg",1,2,2,1,"HouseObjects",1,4,"left","left",0.478000164,1,1,1,0,8,47,1,0.3,1,"stim/12.jpeg",1,2,"stim/12.jpeg",4,"left",3.393999815,4,1,2.851999998,1,0.924999952,8,1,0,0,0,0,0
"507","stim/objects/Instruments/gong.png",251,47,244,0.9,"stim/32.jpeg",3,2,3,2,"Instruments",2,3,"right","right",0.500999928,1,1,1,0,NA,NA,NA,NA,NA,NA,NA,NA,NA,NA,NA,NA,NA,NA,NA,NA,NA,NA,NA,NA,NA,NA,NA,NA
"343","stim/objects/HouseObjects/garbagebin.png",252,47,245,0.9,"stim/42.jpeg",4,2,3,2,"HouseObjects",1,2,"left","left",0.532999992,1,1,1,0,NA,NA,NA,NA,NA,NA,NA,NA,NA,NA,NA,NA,NA,NA,NA,NA,NA,NA,NA,NA,NA,NA,NA,NA
"474","stim/objects/Instruments/flutetrans.png",253,47,246,0.9,"stim/32.jpeg",3,2,3,2,"Instruments",2,1,"right","right",0.513999939,1,1,1,0,NA,NA,NA,NA,NA,NA,NA,NA,NA,NA,NA,NA,NA,NA,NA,NA,NA,NA,NA,NA,NA,NA,NA,NA
"308","stim/objects/HouseObjects/dustpan.png",254,47,247,0.9,"stim/41.jpeg",4,1,3,2,"HouseObjects",1,2,"left","left",0.638000011,1,1,1,0,NA,NA,NA,NA,NA,NA,NA,NA,NA,NA,NA,NA,NA,NA,NA,NA,NA,NA,NA,NA,NA,NA,NA,NA
"386","stim/objects/HouseObjects/saw.png",255,47,248,0.5,"stim/61.jpeg",6,1,1,1,"HouseObjects",1,2,"left","left",0.486999989,1,1,1,0,28,47,1,0.5,2,"stim/61.jpeg",6,1,"stim/61.jpeg",2,"left",1.730999947,4,2,5.156999826,1,2.362999916,28,1,0,0,0,0,0
"390","stim/objects/HouseObjects/sponge.png",256,47,249,0.5,"stim/63.jpeg",6,3,1,1,"HouseObjects",1,1,"left","right",0.394000053,0,0,1,0,146,47,1,0.5,2,"stim/63.jpeg",6,3,"stim/63.jpeg",1,"left",2.171999931,4,2,2.29399991,1,0.568999767,146,1,0,0,1,1,0
"429","stim/objects/Instruments/chime2.png",257,47,250,0.3,"stim/24.jpeg",2,4,2,1,"Instruments",2,1,"right","left",0.676000118,0,0,1,0,29,47,1,0.3,2,"stim/24.jpeg",2,4,"stim/24.jpeg",1,"left",1.405999899,4,3,3.39199996,1,5.243999958,29,1,0,0,1,1,0
"440","stim/objects/Instruments/doublebass.png",258,47,251,0.7,"stim/11.jpeg",1,1,2,2,"Instruments",2,1,"right","right",0.646000147,1,1,1,0,NA,NA,NA,NA,NA,NA,NA,NA,NA,NA,NA,NA,NA,NA,NA,NA,NA,NA,NA,NA,NA,NA,NA,NA
"543","stim/objects/Instruments/harmonica.png",259,47,252,0.5,"stim/53.jpeg",5,3,1,1,"Instruments",2,3,"right","left",0.545000076,0,0,1,0,12,47,1,0.5,1,"stim/53.jpeg",5,3,"stim/53.jpeg",3,"right",4.951999903,2,1,2.761999846,2,4.416999817,12,0,0,NA,0,NA,0
"404","stim/objects/HouseObjects/wateringcan.png",260,47,253,0.3,"stim/11.jpeg",1,1,2,1,"HouseObjects",1,1,"left","right",0.660000086,0,0,1,0,78,47,1,0.3,1,"stim/11.jpeg",1,1,"stim/11.jpeg",1,"right",0.819000006,3,3,2.025000095,4,1.714999914,78,0,0,NA,0,NA,0
"259","stim/objects/HouseObjects/bottle.png",261,47,254,0.5,"stim/64.jpeg",6,4,1,2,"HouseObjects",1,3,"left","right",0.565000057,0,0,1,0,NA,NA,NA,NA,NA,NA,NA,NA,NA,NA,NA,NA,NA,NA,NA,NA,NA,NA,NA,NA,NA,NA,NA,NA
"309","stim/objects/HouseObjects/dustpan.png",262,47,255,0.9,"stim/44.jpeg",4,4,3,2,"HouseObjects",1,3,"left","left",0.495000124,1,1,1,0,NA,NA,NA,NA,NA,NA,NA,NA,NA,NA,NA,NA,NA,NA,NA,NA,NA,NA,NA,NA,NA,NA,NA,NA
"554","stim/objects/Instruments/tambourine2.png",263,47,256,0.1,"stim/44.jpeg",4,4,3,1,"Instruments",2,4,"right","left",0.549000025,0,0,1,0,178,47,1,0.1,2,"stim/44.jpeg",4,4,"stim/44.jpeg",4,"right",0.947999954,3,4,2.753999949,1,0.615999937,178,0,1,NA,0,NA,0
"542","stim/objects/Instruments/guitarcase2.png",264,47,257,0.9,"stim/34.jpeg",3,4,3,1,"Instruments",2,4,"right","right",0.595999956,1,1,1,0,38,47,1,0.9,2,"stim/34.jpeg",3,4,"stim/34.jpeg",4,"left",0.919999838,4,3,1.624999762,2,2.84499979,38,1,0,0,0,0,0
"397","stim/objects/HouseObjects/thermometer2.png",265,47,258,0.9,"stim/42.jpeg",4,2,3,1,"HouseObjects",1,1,"left","right",0.628000021,0,0,1,0,65,47,1,0.9,1,"stim/42.jpeg",4,2,"stim/42.jpeg",1,"right",7.727999926,2,4,4.028000116,3,2.741999865,65,0,0,NA,0,NA,0
"344","stim/objects/HouseObjects/garbagebin.png",266,47,259,0.9,"stim/42.jpeg",4,2,3,2,"HouseObjects",1,3,"left","left",0.628999949,1,1,1,0,NA,NA,NA,NA,NA,NA,NA,NA,NA,NA,NA,NA,NA,NA,NA,NA,NA,NA,NA,NA,NA,NA,NA,NA
"359","stim/objects/HouseObjects/glass.png",267,47,260,0.9,"stim/43.jpeg",4,3,3,2,"HouseObjects",1,3,"left","left",0.753999949,1,1,1,0,NA,NA,NA,NA,NA,NA,NA,NA,NA,NA,NA,NA,NA,NA,NA,NA,NA,NA,NA,NA,NA,NA,NA,NA
"345","stim/objects/HouseObjects/garbagebin.png",268,47,261,0.9,"stim/44.jpeg",4,4,3,2,"HouseObjects",1,3,"left","right",0.528000116,0,0,1,0,NA,NA,NA,NA,NA,NA,NA,NA,NA,NA,NA,NA,NA,NA,NA,NA,NA,NA,NA,NA,NA,NA,NA,NA
"476","stim/objects/Instruments/flutetrans.png",269,47,262,0.9,"stim/31.jpeg",3,1,3,2,"Instruments",2,3,"right","right",0.593999863,1,1,1,0,NA,NA,NA,NA,NA,NA,NA,NA,NA,NA,NA,NA,NA,NA,NA,NA,NA,NA,NA,NA,NA,NA,NA,NA
"560","stim/objects/Instruments/trombone2.png",270,47,263,0.1,"stim/43.jpeg",4,3,3,1,"Instruments",2,4,"right","left",0.583999872,0,0,1,0,98,47,1,0.1,2,"stim/43.jpeg",4,3,"stim/43.jpeg",4,"left",2.536999941,2,2,0.718999863,2,0.808999777,98,1,0,0,0,0,0
"509","stim/objects/Instruments/gong.png",271,47,264,0.9,"stim/33.jpeg",3,3,3,2,"Instruments",2,2,"right","right",0.812000036,1,1,1,0,NA,NA,NA,NA,NA,NA,NA,NA,NA,NA,NA,NA,NA,NA,NA,NA,NA,NA,NA,NA,NA,NA,NA,NA
"326","stim/objects/HouseObjects/flyswatter.png",272,47,265,0.9,"stim/43.jpeg",4,3,3,2,"HouseObjects",1,1,"left","left",0.528999805,1,1,1,0,NA,NA,NA,NA,NA,NA,NA,NA,NA,NA,NA,NA,NA,NA,NA,NA,NA,NA,NA,NA,NA,NA,NA,NA
"424","stim/objects/Instruments/cello.png",273,47,266,0.5,"stim/64.jpeg",6,4,1,2,"Instruments",2,4,"right","right",0.712000132,1,1,1,0,NA,NA,NA,NA,NA,NA,NA,NA,NA,NA,NA,NA,NA,NA,NA,NA,NA,NA,NA,NA,NA,NA,NA,NA
"389","stim/objects/HouseObjects/scale2.png",274,47,267,0.9,"stim/42.jpeg",4,2,3,1,"HouseObjects",1,4,"left","left",0.511999846,1,1,1,0,79,47,1,0.9,1,"stim/42.jpeg",4,2,"stim/42.jpeg",4,"right",10.00199986,4,1,1.25,2,1.427999735,79,0,0,NA,0,NA,0
"256","stim/objects/HouseObjects/blender.png",275,47,268,0.5,"stim/64.jpeg",6,4,1,2,"HouseObjects",1,1,"left","right",0.554000139,0,0,1,0,NA,NA,NA,NA,NA,NA,NA,NA,NA,NA,NA,NA,NA,NA,NA,NA,NA,NA,NA,NA,NA,NA,NA,NA
"569","stim/objects/Instruments/xylophone.png",276,47,269,0.7,"stim/12.jpeg",1,2,2,1,"Instruments",2,3,"right","right",0.748999834,1,1,1,0,99,47,1,0.7,2,"stim/12.jpeg",1,2,"stim/12.jpeg",3,"left",1.420000076,2,2,1.029000044,2,1.152999878,99,1,1,1,0,0,0
"360","stim/objects/HouseObjects/glass.png",277,47,270,0.9,"stim/43.jpeg",4,3,3,2,"HouseObjects",1,4,"left","left",0.464999914,1,1,1,0,NA,NA,NA,NA,NA,NA,NA,NA,NA,NA,NA,NA,NA,NA,NA,NA,NA,NA,NA,NA,NA,NA,NA,NA
"271","stim/objects/HouseObjects/clothesdryingrack.png",278,47,271,0.7,"stim/22.jpeg",2,2,2,2,"HouseObjects",1,1,"left","left",0.473999977,1,1,1,0,NA,NA,NA,NA,NA,NA,NA,NA,NA,NA,NA,NA,NA,NA,NA,NA,NA,NA,NA,NA,NA,NA,NA,NA
"426","stim/objects/Instruments/cello2.png",279,47,272,0.3,"stim/23.jpeg",2,3,2,1,"Instruments",2,3,"right","",NA,0,0,1,0,62,47,1,0.3,2,"stim/23.jpeg",2,3,"stim/23.jpeg",3,"left",2.792000055,3,4,5.895999908,2,3.152999878,62,1,0,0,0,0,0
"361","stim/objects/HouseObjects/glass.png",280,47,273,0.9,"stim/42.jpeg",4,2,3,2,"HouseObjects",1,2,"left","left",0.631999969,1,1,1,0,NA,NA,NA,NA,NA,NA,NA,NA,NA,NA,NA,NA,NA,NA,NA,NA,NA,NA,NA,NA,NA,NA,NA,NA
"452","stim/objects/Instruments/electricguitar.png",281,47,274,0.7,"stim/14.jpeg",1,4,2,2,"Instruments",2,4,"right","left",0.433000088,0,0,1,0,NA,NA,NA,NA,NA,NA,NA,NA,NA,NA,NA,NA,NA,NA,NA,NA,NA,NA,NA,NA,NA,NA,NA,NA
"448","stim/objects/Instruments/electricdrumset.png",282,47,275,0.7,"stim/14.jpeg",1,4,2,2,"Instruments",2,2,"right","right",0.617999792,1,1,1,0,NA,NA,NA,NA,NA,NA,NA,NA,NA,NA,NA,NA,NA,NA,NA,NA,NA,NA,NA,NA,NA,NA,NA,NA
"292","stim/objects/HouseObjects/doormat.png",283,47,276,0.9,"stim/41.jpeg",4,1,3,2,"HouseObjects",1,4,"left","left",0.513999939,1,1,1,0,NA,NA,NA,NA,NA,NA,NA,NA,NA,NA,NA,NA,NA,NA,NA,NA,NA,NA,NA,NA,NA,NA,NA,NA
"252","stim/objects/HouseObjects/basket2.png",284,47,277,0.3,"stim/11.jpeg",1,1,2,1,"HouseObjects",1,2,"left","right",0.671000004,0,0,1,0,23,47,1,0.3,1,"stim/11.jpeg",1,1,"stim/11.jpeg",2,"left",5.238999844,2,3,1.924999952,4,1.260999918,23,1,0,0,0,0,0
"327","stim/objects/HouseObjects/flyswatter.png",285,47,278,0.9,"stim/44.jpeg",4,4,3,2,"HouseObjects",1,3,"left","left",0.789999962,1,1,1,0,NA,NA,NA,NA,NA,NA,NA,NA,NA,NA,NA,NA,NA,NA,NA,NA,NA,NA,NA,NA,NA,NA,NA,NA
"250","stim/objects/HouseObjects/basket.png",286,47,279,0.5,"stim/54.jpeg",5,4,1,2,"HouseObjects",1,1,"left","left",0.631000042,1,1,1,0,NA,NA,NA,NA,NA,NA,NA,NA,NA,NA,NA,NA,NA,NA,NA,NA,NA,NA,NA,NA,NA,NA,NA,NA
"328","stim/objects/HouseObjects/flyswatter.png",287,47,280,0.9,"stim/42.jpeg",4,2,3,2,"HouseObjects",1,3,"left","left",0.43900013,1,1,1,0,NA,NA,NA,NA,NA,NA,NA,NA,NA,NA,NA,NA,NA,NA,NA,NA,NA,NA,NA,NA,NA,NA,NA,NA
"341","stim/objects/HouseObjects/flyswatter2.png",288,47,281,0.1,"stim/33.jpeg",3,3,3,1,"HouseObjects",1,3,"left","left",0.462999821,1,1,1,0,90,47,1,0.1,1,"stim/33.jpeg",3,3,"stim/33.jpeg",3,"right",0.944000006,4,1,1.121999979,4,2.650999784,90,0,0,NA,0,NA,0
"411","stim/objects/Instruments/acousticguitar2.png",289,47,282,0.7,"stim/14.jpeg",1,4,2,1,"Instruments",2,4,"right","right",0.654999971,1,1,1,0,171,47,1,0.7,2,"stim/14.jpeg",1,4,"stim/14.jpeg",4,"right",1.110999823,1,3,3.427999735,1,0.712999821,171,0,0,NA,0,NA,0
"376","stim/objects/HouseObjects/glassmop.png",290,47,283,0.5,"stim/53.jpeg",5,3,1,1,"HouseObjects",1,3,"left","left",0.656999826,1,1,1,0,192,47,1,0.5,1,"stim/53.jpeg",5,3,"stim/53.jpeg",3,"right",1.154000044,3,1,0.737999916,2,1.537999868,192,0,0,NA,0,NA,0
"437","stim/objects/Instruments/cymbal.png",291,47,284,0.7,"stim/13.jpeg",1,3,2,2,"Instruments",2,2,"right","right",0.733999968,1,1,1,0,NA,NA,NA,NA,NA,NA,NA,NA,NA,NA,NA,NA,NA,NA,NA,NA,NA,NA,NA,NA,NA,NA,NA,NA
"329","stim/objects/HouseObjects/flyswatter.png",292,47,285,0.9,"stim/44.jpeg",4,4,3,2,"HouseObjects",1,2,"left","left",0.514000177,1,1,1,0,NA,NA,NA,NA,NA,NA,NA,NA,NA,NA,NA,NA,NA,NA,NA,NA,NA,NA,NA,NA,NA,NA,NA,NA
"526","stim/objects/Instruments/grandpiano.png",293,47,286,0.9,"stim/34.jpeg",3,4,3,2,"Instruments",2,4,"right","right",0.489000082,1,1,1,0,NA,NA,NA,NA,NA,NA,NA,NA,NA,NA,NA,NA,NA,NA,NA,NA,NA,NA,NA,NA,NA,NA,NA,NA
"347","stim/objects/HouseObjects/garbagebin.png",294,47,287,0.9,"stim/43.jpeg",4,3,3,2,"HouseObjects",1,2,"left","left",0.530999899,1,1,1,0,NA,NA,NA,NA,NA,NA,NA,NA,NA,NA,NA,NA,NA,NA,NA,NA,NA,NA,NA,NA,NA,NA,NA,NA
"348","stim/objects/HouseObjects/garbagebin.png",295,47,288,0.9,"stim/43.jpeg",4,3,3,2,"HouseObjects",1,3,"left","left",0.669000149,1,1,1,0,NA,NA,NA,NA,NA,NA,NA,NA,NA,NA,NA,NA,NA,NA,NA,NA,NA,NA,NA,NA,NA,NA,NA,NA
"405","stim/objects/HouseObjects/wateringcan2.png",296,47,289,0.9,"stim/42.jpeg",4,2,3,1,"HouseObjects",1,4,"left","left",0.710999966,1,1,1,0,63,47,1,0.9,1,"stim/42.jpeg",4,2,"stim/42.jpeg",4,"left",1.272999763,2,2,2.268000126,4,2.059999943,63,1,1,1,1,1,0
"453","stim/objects/Instruments/electricguitar.png",297,47,290,0.7,"stim/13.jpeg",1,3,2,2,"Instruments",2,2,"right","left",0.499000072,0,0,1,0,NA,NA,NA,NA,NA,NA,NA,NA,NA,NA,NA,NA,NA,NA,NA,NA,NA,NA,NA,NA,NA,NA,NA,NA
"457","stim/objects/Instruments/flute.png",298,47,291,0.9,"stim/31.jpeg",3,1,3,2,"Instruments",2,2,"right","right",0.437000036,1,1,1,0,NA,NA,NA,NA,NA,NA,NA,NA,NA,NA,NA,NA,NA,NA,NA,NA,NA,NA,NA,NA,NA,NA,NA,NA
"363","stim/objects/HouseObjects/glass.png",299,47,292,0.9,"stim/44.jpeg",4,4,3,2,"HouseObjects",1,4,"left","left",0.627999783,1,1,1,0,NA,NA,NA,NA,NA,NA,NA,NA,NA,NA,NA,NA,NA,NA,NA,NA,NA,NA,NA,NA,NA,NA,NA,NA
"527","stim/objects/Instruments/grandpiano.png",300,47,293,0.9,"stim/33.jpeg",3,3,3,2,"Instruments",2,3,"right","",NA,0,0,1,0,NA,NA,NA,NA,NA,NA,NA,NA,NA,NA,NA,NA,NA,NA,NA,NA,NA,NA,NA,NA,NA,NA,NA,NA
"523","stim/objects/Instruments/gong2.png",301,47,294,0.9,"stim/32.jpeg",3,2,3,1,"Instruments",2,2,"right","right",0.577000141,1,1,1,0,73,47,1,0.9,2,"stim/32.jpeg",3,2,"stim/32.jpeg",2,"left",4.190999985,1,1,2.855999947,1,1.370000124,73,1,0,0,0,0,0
"293","stim/objects/HouseObjects/doormat.png",302,47,295,0.9,"stim/43.jpeg",4,3,3,2,"HouseObjects",1,3,"left","right",0.437000036,0,0,1,0,NA,NA,NA,NA,NA,NA,NA,NA,NA,NA,NA,NA,NA,NA,NA,NA,NA,NA,NA,NA,NA,NA,NA,NA
"294","stim/objects/HouseObjects/doormat.png",303,47,296,0.9,"stim/41.jpeg",4,1,3,2,"HouseObjects",1,2,"left","left",0.388999939,1,1,1,0,NA,NA,NA,NA,NA,NA,NA,NA,NA,NA,NA,NA,NA,NA,NA,NA,NA,NA,NA,NA,NA,NA,NA,NA
"383","stim/objects/HouseObjects/handvacuum2.png",304,47,297,0.1,"stim/31.jpeg",3,1,3,1,"HouseObjects",1,2,"left","right",0.559000015,0,0,1,0,129,47,1,0.1,1,"stim/31.jpeg",3,1,"stim/31.jpeg",2,"right",0.914999962,3,2,1.294999838,1,0.694999933,129,0,0,NA,0,NA,0
"349","stim/objects/HouseObjects/garbagebin.png",305,47,298,0.9,"stim/41.jpeg",4,1,3,2,"HouseObjects",1,4,"left","left",0.571000099,1,1,1,0,NA,NA,NA,NA,NA,NA,NA,NA,NA,NA,NA,NA,NA,NA,NA,NA,NA,NA,NA,NA,NA,NA,NA,NA
"350","stim/objects/HouseObjects/garbagebin.png",306,47,299,0.9,"stim/44.jpeg",4,4,3,2,"HouseObjects",1,3,"left","left",0.459000111,1,1,1,0,NA,NA,NA,NA,NA,NA,NA,NA,NA,NA,NA,NA,NA,NA,NA,NA,NA,NA,NA,NA,NA,NA,NA,NA
"441","stim/objects/Instruments/doublebass.png",307,47,300,0.7,"stim/14.jpeg",1,4,2,2,"Instruments",2,4,"right","right",0.592000008,1,1,1,0,NA,NA,NA,NA,NA,NA,NA,NA,NA,NA,NA,NA,NA,NA,NA,NA,NA,NA,NA,NA,NA,NA,NA,NA
"260","stim/objects/HouseObjects/bottle.png",308,47,301,0.5,"stim/61.jpeg",6,1,1,2,"HouseObjects",1,2,"left","right",0.562000036,0,0,1,0,NA,NA,NA,NA,NA,NA,NA,NA,NA,NA,NA,NA,NA,NA,NA,NA,NA,NA,NA,NA,NA,NA,NA,NA
"528","stim/objects/Instruments/grandpiano.png",309,47,302,0.9,"stim/33.jpeg",3,3,3,2,"Instruments",2,4,"right","right",0.594000101,1,1,1,0,NA,NA,NA,NA,NA,NA,NA,NA,NA,NA,NA,NA,NA,NA,NA,NA,NA,NA,NA,NA,NA,NA,NA,NA
"310","stim/objects/HouseObjects/dustpan.png",310,47,303,0.9,"stim/44.jpeg",4,4,3,2,"HouseObjects",1,2,"left","left",0.563999891,1,1,1,0,NA,NA,NA,NA,NA,NA,NA,NA,NA,NA,NA,NA,NA,NA,NA,NA,NA,NA,NA,NA,NA,NA,NA,NA
"351","stim/objects/HouseObjects/garbagebin.png",311,47,304,0.9,"stim/43.jpeg",4,3,3,2,"HouseObjects",1,3,"left","left",0.40199995,1,1,1,0,NA,NA,NA,NA,NA,NA,NA,NA,NA,NA,NA,NA,NA,NA,NA,NA,NA,NA,NA,NA,NA,NA,NA,NA
"454","stim/objects/Instruments/electricguitar.png",312,47,305,0.7,"stim/11.jpeg",1,1,2,2,"Instruments",2,2,"right","right",0.657000065,1,1,1,0,NA,NA,NA,NA,NA,NA,NA,NA,NA,NA,NA,NA,NA,NA,NA,NA,NA,NA,NA,NA,NA,NA,NA,NA
"510","stim/objects/Instruments/gong.png",313,47,306,0.9,"stim/31.jpeg",3,1,3,2,"Instruments",2,3,"right","right",0.597999811,1,1,1,0,NA,NA,NA,NA,NA,NA,NA,NA,NA,NA,NA,NA,NA,NA,NA,NA,NA,NA,NA,NA,NA,NA,NA,NA
"449","stim/objects/Instruments/electricdrumset.png",314,47,307,0.7,"stim/13.jpeg",1,3,2,2,"Instruments",2,4,"right","right",0.489000082,1,1,1,0,NA,NA,NA,NA,NA,NA,NA,NA,NA,NA,NA,NA,NA,NA,NA,NA,NA,NA,NA,NA,NA,NA,NA,NA
"364","stim/objects/HouseObjects/glass.png",315,47,308,0.9,"stim/44.jpeg",4,4,3,2,"HouseObjects",1,3,"left","left",0.485999823,1,1,1,0,NA,NA,NA,NA,NA,NA,NA,NA,NA,NA,NA,NA,NA,NA,NA,NA,NA,NA,NA,NA,NA,NA,NA,NA
"279","stim/objects/HouseObjects/coffee.png",316,47,309,0.7,"stim/23.jpeg",2,3,2,2,"HouseObjects",1,3,"left","left",0.445999861,1,1,1,0,NA,NA,NA,NA,NA,NA,NA,NA,NA,NA,NA,NA,NA,NA,NA,NA,NA,NA,NA,NA,NA,NA,NA,NA
"529","stim/objects/Instruments/grandpiano.png",317,47,310,0.9,"stim/32.jpeg",3,2,3,2,"Instruments",2,2,"right","right",0.552000046,1,1,1,0,NA,NA,NA,NA,NA,NA,NA,NA,NA,NA,NA,NA,NA,NA,NA,NA,NA,NA,NA,NA,NA,NA,NA,NA
"550","stim/objects/Instruments/saxophone2.png",318,47,311,0.9,"stim/34.jpeg",3,4,3,1,"Instruments",2,2,"right","right",0.54700017,1,1,1,0,46,47,1,0.9,2,"stim/34.jpeg",3,4,"stim/34.jpeg",2,"left",0.914999962,3,3,1.835999966,1,2.154999971,46,1,0,0,0,0,0
"443","stim/objects/Instruments/doublebass2.png",319,47,312,0.3,"stim/24.jpeg",2,4,2,1,"Instruments",2,3,"right","left",0.426000118,0,0,1,0,54,47,1,0.3,2,"stim/24.jpeg",2,4,"stim/24.jpeg",3,"right",0.791000128,3,2,4.67599988,1,0.779999733,54,0,0,NA,0,NA,0
"324","stim/objects/HouseObjects/dustpan2.png",320,47,313,0.1,"stim/32.jpeg",3,2,3,1,"HouseObjects",1,2,"left","right",0.430999994,0,0,1,0,72,47,1,0.1,1,"stim/32.jpeg",3,2,"stim/32.jpeg",2,"right",5.848999977,4,3,6.228999853,4,1.955999851,72,0,0,NA,0,NA,0
"311","stim/objects/HouseObjects/dustpan.png",321,47,314,0.9,"stim/41.jpeg",4,1,3,2,"HouseObjects",1,2,"left","left",0.612000227,1,1,1,0,NA,NA,NA,NA,NA,NA,NA,NA,NA,NA,NA,NA,NA,NA,NA,NA,NA,NA,NA,NA,NA,NA,NA,NA
"272","stim/objects/HouseObjects/clothesdryingrack.png",322,47,315,0.7,"stim/21.jpeg",2,1,2,2,"HouseObjects",1,1,"left","left",0.697999954,1,1,1,0,NA,NA,NA,NA,NA,NA,NA,NA,NA,NA,NA,NA,NA,NA,NA,NA,NA,NA,NA,NA,NA,NA,NA,NA
"458","stim/objects/Instruments/flute.png",323,47,316,0.9,"stim/34.jpeg",3,4,3,2,"Instruments",2,1,"right","right",0.462000132,1,1,1,0,NA,NA,NA,NA,NA,NA,NA,NA,NA,NA,NA,NA,NA,NA,NA,NA,NA,NA,NA,NA,NA,NA,NA,NA
"378","stim/objects/HouseObjects/hairdryer.png",324,47,317,0.5,"stim/54.jpeg",5,4,1,1,"HouseObjects",1,3,"left","left",0.697000027,1,1,1,0,130,47,1,0.5,1,"stim/54.jpeg",5,4,"stim/54.jpeg",3,"right",1.213999748,4,2,0.477999926,1,0.588999987,130,0,0,NA,0,NA,0
"284","stim/objects/HouseObjects/cushion.png",325,47,318,0.7,"stim/22.jpeg",2,2,2,2,"HouseObjects",1,3,"left","left",0.796000004,1,1,1,0,NA,NA,NA,NA,NA,NA,NA,NA,NA,NA,NA,NA,NA,NA,NA,NA,NA,NA,NA,NA,NA,NA,NA,NA
"548","stim/objects/Instruments/hihat2.png",326,47,319,0.9,"stim/33.jpeg",3,3,3,1,"Instruments",2,3,"right","right",0.549999952,1,1,1,0,110,47,1,0.9,2,"stim/33.jpeg",3,3,"stim/33.jpeg",3,"right",3.843999863,2,3,6.01699996,1,0.545000076,110,0,1,NA,0,NA,0
"280","stim/objects/HouseObjects/coffee.png",327,47,320,0.7,"stim/21.jpeg",2,1,2,2,"HouseObjects",1,3,"left","left",0.585999966,1,1,1,0,NA,NA,NA,NA,NA,NA,NA,NA,NA,NA,NA,NA,NA,NA,NA,NA,NA,NA,NA,NA,NA,NA,NA,NA
"296","stim/objects/HouseObjects/doormat.png",328,47,321,0.9,"stim/43.jpeg",4,3,3,2,"HouseObjects",1,3,"left","left",0.47300005,1,1,1,0,NA,NA,NA,NA,NA,NA,NA,NA,NA,NA,NA,NA,NA,NA,NA,NA,NA,NA,NA,NA,NA,NA,NA,NA
"447","stim/objects/Instruments/drums2.png",329,47,322,0.3,"stim/21.jpeg",2,1,2,1,"Instruments",2,3,"right","left",0.527000189,0,0,1,0,190,47,1,0.3,2,"stim/21.jpeg",2,1,"stim/21.jpeg",3,"right",0.761999846,4,1,0.743000031,1,0.629999876,190,0,1,NA,0,NA,0
"491","stim/objects/Instruments/frenchhorn.png",330,47,323,0.9,"stim/32.jpeg",3,2,3,2,"Instruments",2,2,"right","right",0.488999844,1,1,1,0,NA,NA,NA,NA,NA,NA,NA,NA,NA,NA,NA,NA,NA,NA,NA,NA,NA,NA,NA,NA,NA,NA,NA,NA
"492","stim/objects/Instruments/frenchhorn.png",331,47,324,0.9,"stim/34.jpeg",3,4,3,2,"Instruments",2,1,"right","right",0.614000082,1,1,1,0,NA,NA,NA,NA,NA,NA,NA,NA,NA,NA,NA,NA,NA,NA,NA,NA,NA,NA,NA,NA,NA,NA,NA,NA
"261","stim/objects/HouseObjects/bottle2.png",332,47,325,0.7,"stim/21.jpeg",2,1,2,1,"HouseObjects",1,1,"left","left",0.625,1,1,1,0,114,47,1,0.7,1,"stim/21.jpeg",2,1,"stim/21.jpeg",1,"right",1.17599988,4,3,1.823999882,2,1.049000025,114,0,0,NA,0,NA,0
"494","stim/objects/Instruments/frenchhorn.png",333,47,326,0.9,"stim/32.jpeg",3,2,3,2,"Instruments",2,2,"right","right",0.482000113,1,1,1,0,NA,NA,NA,NA,NA,NA,NA,NA,NA,NA,NA,NA,NA,NA,NA,NA,NA,NA,NA,NA,NA,NA,NA,NA
"352","stim/objects/HouseObjects/garbagebin.png",334,47,327,0.9,"stim/43.jpeg",4,3,3,2,"HouseObjects",1,3,"left","left",0.489000082,1,1,1,0,NA,NA,NA,NA,NA,NA,NA,NA,NA,NA,NA,NA,NA,NA,NA,NA,NA,NA,NA,NA,NA,NA,NA,NA
"268","stim/objects/HouseObjects/clock.png",335,47,328,0.5,"stim/64.jpeg",6,4,1,2,"HouseObjects",1,1,"left","right",0.463000059,0,0,1,0,NA,NA,NA,NA,NA,NA,NA,NA,NA,NA,NA,NA,NA,NA,NA,NA,NA,NA,NA,NA,NA,NA,NA,NA
"418","stim/objects/Instruments/bassdrum.png",336,47,329,0.5,"stim/51.jpeg",5,1,1,2,"Instruments",2,3,"right","left",0.655999899,0,0,1,0,NA,NA,NA,NA,NA,NA,NA,NA,NA,NA,NA,NA,NA,NA,NA,NA,NA,NA,NA,NA,NA,NA,NA,NA
"247","stim/objects/HouseObjects/barbecuelighter.png",337,47,330,0.5,"stim/54.jpeg",5,4,1,2,"HouseObjects",1,2,"left","left",0.506000042,1,1,1,0,NA,NA,NA,NA,NA,NA,NA,NA,NA,NA,NA,NA,NA,NA,NA,NA,NA,NA,NA,NA,NA,NA,NA,NA
"451","stim/objects/Instruments/electricdrumset2.png",338,47,331,0.3,"stim/22.jpeg",2,2,2,1,"Instruments",2,2,"right","right",0.677000046,1,1,1,0,17,47,1,0.3,2,"stim/22.jpeg",2,2,"stim/22.jpeg",2,"left",1.096999884,4,3,7.138999939,2,0.990999937,17,1,0,0,1,1,0
"480","stim/objects/Instruments/flutetrans.png",339,47,332,0.9,"stim/31.jpeg",3,1,3,2,"Instruments",2,4,"right","right",0.667999983,1,1,1,0,NA,NA,NA,NA,NA,NA,NA,NA,NA,NA,NA,NA,NA,NA,NA,NA,NA,NA,NA,NA,NA,NA,NA,NA
"495","stim/objects/Instruments/frenchhorn.png",340,47,333,0.9,"stim/31.jpeg",3,1,3,2,"Instruments",2,1,"right","right",0.588999987,1,1,1,0,NA,NA,NA,NA,NA,NA,NA,NA,NA,NA,NA,NA,NA,NA,NA,NA,NA,NA,NA,NA,NA,NA,NA,NA
"312","stim/objects/HouseObjects/dustpan.png",341,47,334,0.9,"stim/42.jpeg",4,2,3,2,"HouseObjects",1,4,"left","left",0.507999897,1,1,1,0,NA,NA,NA,NA,NA,NA,NA,NA,NA,NA,NA,NA,NA,NA,NA,NA,NA,NA,NA,NA,NA,NA,NA,NA
"365","stim/objects/HouseObjects/glass.png",342,47,335,0.9,"stim/41.jpeg",4,1,3,2,"HouseObjects",1,4,"left","left",0.523999929,1,1,1,0,NA,NA,NA,NA,NA,NA,NA,NA,NA,NA,NA,NA,NA,NA,NA,NA,NA,NA,NA,NA,NA,NA,NA,NA
"562","stim/objects/Instruments/trumpet2.png",343,47,336,0.1,"stim/44.jpeg",4,4,3,1,"Instruments",2,1,"right","left",0.527000189,0,0,1,0,155,47,1,0.1,2,"stim/44.jpeg",4,4,"stim/44.jpeg",1,"right",2.445999861,2,2,2.141000032,1,1.055000067,155,0,0,NA,1,NA,0
"561","stim/objects/Instruments/trumpet.png",344,47,337,0.7,"stim/12.jpeg",1,2,2,1,"Instruments",2,4,"right","right",0.710000038,1,1,1,0,151,47,1,0.7,2,"stim/12.jpeg",1,2,"stim/12.jpeg",4,"right",2.923000097,2,2,1.340999842,3,0.662999868,151,0,1,NA,0,NA,0
"313","stim/objects/HouseObjects/dustpan.png",345,47,338,0.9,"stim/44.jpeg",4,4,3,2,"HouseObjects",1,3,"left","left",0.613000154,1,1,1,0,NA,NA,NA,NA,NA,NA,NA,NA,NA,NA,NA,NA,NA,NA,NA,NA,NA,NA,NA,NA,NA,NA,NA,NA
"387","stim/objects/HouseObjects/saw2.png",346,47,339,0.9,"stim/41.jpeg",4,1,3,1,"HouseObjects",1,3,"left","left",0.396000147,1,1,1,0,173,47,1,0.9,1,"stim/41.jpeg",4,1,"stim/41.jpeg",3,"left",5.91899991,2,3,1.337999821,1,0.649999857,173,1,0,0,0,0,0
"243","stim/objects/HouseObjects/ashtray2.png",347,47,340,0.3,"stim/12.jpeg",1,2,2,1,"HouseObjects",1,2,"left","left",0.697999954,1,1,1,0,69,47,1,0.3,1,"stim/12.jpeg",1,2,"stim/12.jpeg",2,"right",1.356999874,3,3,1.879999876,1,1.157999992,69,0,0,NA,0,NA,0
"461","stim/objects/Instruments/flute.png",348,47,341,0.9,"stim/34.jpeg",3,4,3,2,"Instruments",2,4,"right","right",0.523000002,1,1,1,0,NA,NA,NA,NA,NA,NA,NA,NA,NA,NA,NA,NA,NA,NA,NA,NA,NA,NA,NA,NA,NA,NA,NA,NA
"565","stim/objects/Instruments/violin.png",349,47,342,0.7,"stim/14.jpeg",1,4,2,1,"Instruments",2,2,"right","left",0.661000013,0,0,1,0,169,47,1,0.7,2,"stim/14.jpeg",1,4,"stim/14.jpeg",2,"left",1.562000036,2,3,0.881000042,1,1.008999825,169,1,0,0,0,0,0
"298","stim/objects/HouseObjects/doormat.png",350,47,343,0.9,"stim/44.jpeg",4,4,3,2,"HouseObjects",1,4,"left","",NA,0,0,1,0,NA,NA,NA,NA,NA,NA,NA,NA,NA,NA,NA,NA,NA,NA,NA,NA,NA,NA,NA,NA,NA,NA,NA,NA
"496","stim/objects/Instruments/frenchhorn.png",351,47,344,0.9,"stim/34.jpeg",3,4,3,2,"Instruments",2,2,"right","right",0.660000086,1,1,1,0,NA,NA,NA,NA,NA,NA,NA,NA,NA,NA,NA,NA,NA,NA,NA,NA,NA,NA,NA,NA,NA,NA,NA,NA
"248","stim/objects/HouseObjects/barbecuelighter.png",352,47,345,0.5,"stim/53.jpeg",5,3,1,2,"HouseObjects",1,1,"left","left",0.496999979,1,1,1,0,NA,NA,NA,NA,NA,NA,NA,NA,NA,NA,NA,NA,NA,NA,NA,NA,NA,NA,NA,NA,NA,NA,NA,NA
"512","stim/objects/Instruments/gong.png",353,47,346,0.9,"stim/33.jpeg",3,3,3,2,"Instruments",2,3,"right","right",0.609999895,1,1,1,0,NA,NA,NA,NA,NA,NA,NA,NA,NA,NA,NA,NA,NA,NA,NA,NA,NA,NA,NA,NA,NA,NA,NA,NA
"497","stim/objects/Instruments/frenchhorn.png",354,47,347,0.9,"stim/33.jpeg",3,3,3,2,"Instruments",2,1,"right","right",0.42200017,1,1,1,0,NA,NA,NA,NA,NA,NA,NA,NA,NA,NA,NA,NA,NA,NA,NA,NA,NA,NA,NA,NA,NA,NA,NA,NA
"498","stim/objects/Instruments/frenchhorn.png",355,47,348,0.9,"stim/33.jpeg",3,3,3,2,"Instruments",2,1,"right","right",0.392999887,1,1,1,0,NA,NA,NA,NA,NA,NA,NA,NA,NA,NA,NA,NA,NA,NA,NA,NA,NA,NA,NA,NA,NA,NA,NA,NA
"358","stim/objects/HouseObjects/garbagebin2.png",356,47,349,0.1,"stim/34.jpeg",3,4,3,1,"HouseObjects",1,4,"left","right",0.450999975,0,0,1,0,58,47,1,0.1,1,"stim/34.jpeg",3,4,"stim/34.jpeg",4,"right",1.546999931,3,1,0.853999853,3,0.710000038,58,0,0,NA,0,NA,0
"556","stim/objects/Instruments/timbal2.png",357,47,350,0.1,"stim/41.jpeg",4,1,3,1,"Instruments",2,1,"right","left",0.430999994,0,0,1,0,145,47,1,0.1,2,"stim/41.jpeg",4,1,"stim/41.jpeg",1,"right",1.58100009,3,3,1.541000128,1,0.955999851,145,0,0,NA,1,NA,0
"402","stim/objects/HouseObjects/vacuumcleaner.png",358,47,351,0.3,"stim/14.jpeg",1,4,2,1,"HouseObjects",1,1,"left","right",0.394999981,0,0,1,0,56,47,1,0.3,1,"stim/14.jpeg",1,4,"stim/14.jpeg",1,"right",1.639999866,2,3,1.525000095,1,0.525999784,56,0,0,NA,1,NA,0
"481","stim/objects/Instruments/flutetrans.png",359,47,352,0.9,"stim/32.jpeg",3,2,3,2,"Instruments",2,4,"right","right",0.539999962,1,1,1,0,NA,NA,NA,NA,NA,NA,NA,NA,NA,NA,NA,NA,NA,NA,NA,NA,NA,NA,NA,NA,NA,NA,NA,NA
"513","stim/objects/Instruments/gong.png",360,47,353,0.9,"stim/31.jpeg",3,1,3,2,"Instruments",2,3,"right","right",0.417999983,1,1,1,0,NA,NA,NA,NA,NA,NA,NA,NA,NA,NA,NA,NA,NA,NA,NA,NA,NA,NA,NA,NA,NA,NA,NA,NA
"462","stim/objects/Instruments/flute.png",361,47,354,0.9,"stim/33.jpeg",3,3,3,2,"Instruments",2,1,"right","right",0.428999901,1,1,1,0,NA,NA,NA,NA,NA,NA,NA,NA,NA,NA,NA,NA,NA,NA,NA,NA,NA,NA,NA,NA,NA,NA,NA,NA
"299","stim/objects/HouseObjects/doormat.png",362,47,355,0.9,"stim/43.jpeg",4,3,3,2,"HouseObjects",1,1,"left","right",0.292000055,0,0,1,0,NA,NA,NA,NA,NA,NA,NA,NA,NA,NA,NA,NA,NA,NA,NA,NA,NA,NA,NA,NA,NA,NA,NA,NA
"353","stim/objects/HouseObjects/garbagebin.png",363,47,356,0.9,"stim/41.jpeg",4,1,3,2,"HouseObjects",1,2,"left","left",0.534999847,1,1,1,0,NA,NA,NA,NA,NA,NA,NA,NA,NA,NA,NA,NA,NA,NA,NA,NA,NA,NA,NA,NA,NA,NA,NA,NA
"545","stim/objects/Instruments/harp.png",364,47,357,0.5,"stim/54.jpeg",5,4,1,1,"Instruments",2,4,"right","left",0.511000156,0,0,1,0,44,47,1,0.5,1,"stim/54.jpeg",5,4,"stim/54.jpeg",4,"left",2.017999887,1,4,2.536999941,3,1.654999971,44,1,1,1,0,0,0
"540","stim/objects/Instruments/grandpiano2.png",365,47,358,0.9,"stim/33.jpeg",3,3,3,1,"Instruments",2,2,"right","right",0.447999954,1,1,1,0,186,47,1,0.9,2,"stim/33.jpeg",3,3,"stim/33.jpeg",2,"right",1.122999907,2,2,2.957999945,3,1.263999939,186,0,0,NA,0,NA,0
"275","stim/objects/HouseObjects/clothespin.png",366,47,359,0.7,"stim/22.jpeg",2,2,2,2,"HouseObjects",1,1,"left","left",0.415999889,1,1,1,0,NA,NA,NA,NA,NA,NA,NA,NA,NA,NA,NA,NA,NA,NA,NA,NA,NA,NA,NA,NA,NA,NA,NA,NA
"300","stim/objects/HouseObjects/doormat.png",367,47,360,0.9,"stim/44.jpeg",4,4,3,2,"HouseObjects",1,1,"left","left",0.572999954,1,1,1,0,NA,NA,NA,NA,NA,NA,NA,NA,NA,NA,NA,NA,NA,NA,NA,NA,NA,NA,NA,NA,NA,NA,NA,NA
"514","stim/objects/Instruments/gong.png",368,47,361,0.9,"stim/33.jpeg",3,3,3,2,"Instruments",2,2,"right","right",0.663000107,1,1,1,0,NA,NA,NA,NA,NA,NA,NA,NA,NA,NA,NA,NA,NA,NA,NA,NA,NA,NA,NA,NA,NA,NA,NA,NA
"333","stim/objects/HouseObjects/flyswatter.png",369,47,362,0.9,"stim/43.jpeg",4,3,3,2,"HouseObjects",1,1,"left","left",0.440999985,1,1,1,0,NA,NA,NA,NA,NA,NA,NA,NA,NA,NA,NA,NA,NA,NA,NA,NA,NA,NA,NA,NA,NA,NA,NA,NA
"567","stim/objects/Instruments/vuvuzela.png",370,47,363,0.7,"stim/11.jpeg",1,1,2,1,"Instruments",2,2,"right","left",0.527999878,0,0,1,0,39,47,1,0.7,2,"stim/11.jpeg",1,1,"stim/11.jpeg",2,"left",1.569999933,4,1,3.710999727,2,2.725999832,39,1,1,1,1,1,0
"524","stim/objects/Instruments/grandpiano.png",371,47,364,0.9,"stim/33.jpeg",3,3,3,2,"Instruments",2,2,"right","left",0.542999983,0,0,1,0,NA,NA,NA,NA,NA,NA,NA,NA,NA,NA,NA,NA,NA,NA,NA,NA,NA,NA,NA,NA,NA,NA,NA,NA
"493","stim/objects/Instruments/frenchhorn.png",372,47,365,0.9,"stim/33.jpeg",3,3,3,2,"Instruments",2,4,"right","right",0.339999914,1,1,1,0,NA,NA,NA,NA,NA,NA,NA,NA,NA,NA,NA,NA,NA,NA,NA,NA,NA,NA,NA,NA,NA,NA,NA,NA
"516","stim/objects/Instruments/gong.png",373,47,366,0.9,"stim/34.jpeg",3,4,3,2,"Instruments",2,3,"right","right",0.41899991,1,1,1,0,NA,NA,NA,NA,NA,NA,NA,NA,NA,NA,NA,NA,NA,NA,NA,NA,NA,NA,NA,NA,NA,NA,NA,NA
"499","stim/objects/Instruments/frenchhorn.png",374,47,367,0.9,"stim/31.jpeg",3,1,3,2,"Instruments",2,2,"right","right",0.372999907,1,1,1,0,NA,NA,NA,NA,NA,NA,NA,NA,NA,NA,NA,NA,NA,NA,NA,NA,NA,NA,NA,NA,NA,NA,NA,NA
"500","stim/objects/Instruments/frenchhorn.png",375,47,368,0.9,"stim/33.jpeg",3,3,3,2,"Instruments",2,3,"right","right",0.45600009,1,1,1,0,NA,NA,NA,NA,NA,NA,NA,NA,NA,NA,NA,NA,NA,NA,NA,NA,NA,NA,NA,NA,NA,NA,NA,NA
"244","stim/objects/HouseObjects/ballofstring.png",376,47,369,0.5,"stim/52.jpeg",5,2,1,2,"HouseObjects",1,2,"left","left",0.531999826,1,1,1,0,NA,NA,NA,NA,NA,NA,NA,NA,NA,NA,NA,NA,NA,NA,NA,NA,NA,NA,NA,NA,NA,NA,NA,NA
"291","stim/objects/HouseObjects/doormat.png",377,47,370,0.9,"stim/42.jpeg",4,2,3,2,"HouseObjects",1,1,"left","left",0.346999884,1,1,1,0,NA,NA,NA,NA,NA,NA,NA,NA,NA,NA,NA,NA,NA,NA,NA,NA,NA,NA,NA,NA,NA,NA,NA,NA
"555","stim/objects/Instruments/timbal.png",378,47,371,0.5,"stim/62.jpeg",6,2,1,1,"Instruments",2,4,"right","right",0.491999865,1,1,1,0,50,47,1,0.5,2,"stim/62.jpeg",6,2,"stim/62.jpeg",4,"right",0.635999918,3,3,2.936999798,3,1.223999977,50,0,0,NA,0,NA,0
"552","stim/objects/Instruments/speaker2.png",379,47,372,0.1,"stim/43.jpeg",4,3,3,1,"Instruments",2,1,"right","left",0.626999855,0,0,1,0,200,47,1,0.1,2,"stim/43.jpeg",4,3,"stim/43.jpeg",1,"right",0.926999807,2,1,0.514999866,2,0.737999916,200,0,0,NA,0,NA,0
"433","stim/objects/Instruments/cornet.png",380,47,373,0.5,"stim/63.jpeg",6,3,1,2,"Instruments",2,1,"right","right",0.524999857,1,1,1,0,NA,NA,NA,NA,NA,NA,NA,NA,NA,NA,NA,NA,NA,NA,NA,NA,NA,NA,NA,NA,NA,NA,NA,NA
"525","stim/objects/Instruments/grandpiano.png",381,47,374,0.9,"stim/32.jpeg",3,2,3,2,"Instruments",2,1,"right","right",0.535000086,1,1,1,0,NA,NA,NA,NA,NA,NA,NA,NA,NA,NA,NA,NA,NA,NA,NA,NA,NA,NA,NA,NA,NA,NA,NA,NA
"290","stim/objects/HouseObjects/dishsoap2.png",382,47,375,0.7,"stim/21.jpeg",2,1,2,1,"HouseObjects",1,4,"left","left",0.509000063,1,1,1,0,96,47,1,0.7,1,"stim/21.jpeg",2,1,"stim/21.jpeg",4,"right",2.894000053,4,3,1.655999899,4,1.356999874,96,0,0,NA,1,NA,0
"483","stim/objects/Instruments/flutetrans.png",383,47,376,0.9,"stim/31.jpeg",3,1,3,2,"Instruments",2,1,"right","",NA,0,0,1,0,NA,NA,NA,NA,NA,NA,NA,NA,NA,NA,NA,NA,NA,NA,NA,NA,NA,NA,NA,NA,NA,NA,NA,NA
"393","stim/objects/HouseObjects/spraybottle2.png",384,47,377,0.9,"stim/44.jpeg",4,4,3,1,"HouseObjects",1,1,"left","",NA,0,0,1,0,47,47,1,0.9,1,"stim/44.jpeg",4,4,"stim/44.jpeg",1,"right",2.95299983,2,3,1.338000059,1,0.860000134,47,0,0,NA,1,NA,0
"456","stim/objects/Instruments/flute.png",385,47,378,0.9,"stim/32.jpeg",3,2,3,2,"Instruments",2,4,"right","right",0.480000019,1,1,1,0,NA,NA,NA,NA,NA,NA,NA,NA,NA,NA,NA,NA,NA,NA,NA,NA,NA,NA,NA,NA,NA,NA,NA,NA
"475","stim/objects/Instruments/flutetrans.png",386,47,379,0.9,"stim/32.jpeg",3,2,3,2,"Instruments",2,1,"right","right",0.36500001,1,1,1,0,NA,NA,NA,NA,NA,NA,NA,NA,NA,NA,NA,NA,NA,NA,NA,NA,NA,NA,NA,NA,NA,NA,NA,NA
"332","stim/objects/HouseObjects/flyswatter.png",387,47,380,0.9,"stim/41.jpeg",4,1,3,2,"HouseObjects",1,1,"left","left",0.506999969,1,1,1,0,NA,NA,NA,NA,NA,NA,NA,NA,NA,NA,NA,NA,NA,NA,NA,NA,NA,NA,NA,NA,NA,NA,NA,NA
"301","stim/objects/HouseObjects/doormat.png",388,47,381,0.9,"stim/42.jpeg",4,2,3,2,"HouseObjects",1,1,"left","left",0.487999916,1,1,1,0,NA,NA,NA,NA,NA,NA,NA,NA,NA,NA,NA,NA,NA,NA,NA,NA,NA,NA,NA,NA,NA,NA,NA,NA
"406","stim/objects/Instruments/accordion.png",389,47,382,0.5,"stim/54.jpeg",5,4,1,2,"Instruments",2,4,"right","left",0.661999941,0,0,1,0,NA,NA,NA,NA,NA,NA,NA,NA,NA,NA,NA,NA,NA,NA,NA,NA,NA,NA,NA,NA,NA,NA,NA,NA
"501","stim/objects/Instruments/frenchhorn.png",390,47,383,0.9,"stim/31.jpeg",3,1,3,2,"Instruments",2,1,"right","right",0.644000053,1,1,1,0,NA,NA,NA,NA,NA,NA,NA,NA,NA,NA,NA,NA,NA,NA,NA,NA,NA,NA,NA,NA,NA,NA,NA,NA
"346","stim/objects/HouseObjects/garbagebin.png",391,47,384,0.9,"stim/44.jpeg",4,4,3,2,"HouseObjects",1,1,"left","left",0.503999949,1,1,1,0,NA,NA,NA,NA,NA,NA,NA,NA,NA,NA,NA,NA,NA,NA,NA,NA,NA,NA,NA,NA,NA,NA,NA,NA
"258","stim/objects/HouseObjects/blender2.png",392,47,385,0.7,"stim/24.jpeg",2,4,2,1,"HouseObjects",1,3,"left","left",0.519000053,1,1,1,0,154,47,1,0.7,1,"stim/24.jpeg",2,4,"stim/24.jpeg",3,"right",6.243999958,2,3,1.264999866,1,1.209000111,154,0,0,NA,0,NA,0
"564","stim/objects/Instruments/tuba2.png",393,47,386,0.1,"stim/41.jpeg",4,1,3,1,"Instruments",2,3,"right","left",0.494999886,0,0,1,0,19,47,1,0.1,2,"stim/41.jpeg",4,1,"stim/41.jpeg",3,"right",1.862999916,4,2,1.820999861,3,1.243999958,19,0,0,NA,1,NA,0
"532","stim/objects/Instruments/grandpiano.png",394,47,387,0.9,"stim/31.jpeg",3,1,3,2,"Instruments",2,2,"right","right",0.446000099,1,1,1,0,NA,NA,NA,NA,NA,NA,NA,NA,NA,NA,NA,NA,NA,NA,NA,NA,NA,NA,NA,NA,NA,NA,NA,NA
"477","stim/objects/Instruments/flutetrans.png",395,47,388,0.9,"stim/34.jpeg",3,4,3,2,"Instruments",2,3,"right","right",0.625999928,1,1,1,0,NA,NA,NA,NA,NA,NA,NA,NA,NA,NA,NA,NA,NA,NA,NA,NA,NA,NA,NA,NA,NA,NA,NA,NA
"266","stim/objects/HouseObjects/bucket.png",396,47,389,0.5,"stim/63.jpeg",6,3,1,2,"HouseObjects",1,2,"left","right",0.610000134,0,0,1,0,NA,NA,NA,NA,NA,NA,NA,NA,NA,NA,NA,NA,NA,NA,NA,NA,NA,NA,NA,NA,NA,NA,NA,NA
"478","stim/objects/Instruments/flutetrans.png",397,47,390,0.9,"stim/32.jpeg",3,2,3,2,"Instruments",2,1,"right","right",0.562999964,1,1,1,0,NA,NA,NA,NA,NA,NA,NA,NA,NA,NA,NA,NA,NA,NA,NA,NA,NA,NA,NA,NA,NA,NA,NA,NA
"518","stim/objects/Instruments/gong.png",398,47,391,0.9,"stim/32.jpeg",3,2,3,2,"Instruments",2,1,"right","right",0.549000025,1,1,1,0,NA,NA,NA,NA,NA,NA,NA,NA,NA,NA,NA,NA,NA,NA,NA,NA,NA,NA,NA,NA,NA,NA,NA,NA
"318","stim/objects/HouseObjects/dustpan.png",399,47,392,0.9,"stim/43.jpeg",4,3,3,2,"HouseObjects",1,2,"left","left",0.463000059,1,1,1,0,NA,NA,NA,NA,NA,NA,NA,NA,NA,NA,NA,NA,NA,NA,NA,NA,NA,NA,NA,NA,NA,NA,NA,NA
"557","stim/objects/Instruments/triangle.png",400,47,393,0.5,"stim/63.jpeg",6,3,1,1,"Instruments",2,4,"right","right",0.459000111,1,1,1,0,131,47,1,0.5,2,"stim/63.jpeg",6,3,"stim/63.jpeg",4,"left",1.210999727,4,1,2.193000078,1,2.105999947,131,1,0,0,0,0,0
"546","stim/objects/Instruments/harp2.png",401,47,394,0.9,"stim/32.jpeg",3,2,3,1,"Instruments",2,1,"right","right",0.457999945,1,1,1,0,36,47,1,0.9,2,"stim/32.jpeg",3,2,"stim/32.jpeg",1,"right",1.159999847,2,1,0.849999905,3,1.294999838,36,0,0,NA,0,NA,0
"425","stim/objects/Instruments/cello.png",402,47,395,0.5,"stim/63.jpeg",6,3,1,2,"Instruments",2,1,"right","right",0.546999931,1,1,1,0,NA,NA,NA,NA,NA,NA,NA,NA,NA,NA,NA,NA,NA,NA,NA,NA,NA,NA,NA,NA,NA,NA,NA,NA
"354","stim/objects/HouseObjects/garbagebin.png",403,47,396,0.9,"stim/41.jpeg",4,1,3,2,"HouseObjects",1,3,"left","left",0.583999872,1,1,1,0,NA,NA,NA,NA,NA,NA,NA,NA,NA,NA,NA,NA,NA,NA,NA,NA,NA,NA,NA,NA,NA,NA,NA,NA
"269","stim/objects/HouseObjects/clock.png",404,47,397,0.5,"stim/63.jpeg",6,3,1,2,"HouseObjects",1,4,"left","right",0.513999939,0,0,1,0,NA,NA,NA,NA,NA,NA,NA,NA,NA,NA,NA,NA,NA,NA,NA,NA,NA,NA,NA,NA,NA,NA,NA,NA
"287","stim/objects/HouseObjects/dishsoap.png",405,47,398,0.7,"stim/23.jpeg",2,3,2,2,"HouseObjects",1,1,"left","left",0.578000069,1,1,1,0,NA,NA,NA,NA,NA,NA,NA,NA,NA,NA,NA,NA,NA,NA,NA,NA,NA,NA,NA,NA,NA,NA,NA,NA
"307","stim/objects/HouseObjects/doormat2.png",406,47,399,0.1,"stim/31.jpeg",3,1,3,1,"HouseObjects",1,1,"left","right",0.594000101,0,0,1,0,195,47,1,0.1,1,"stim/31.jpeg",3,1,"stim/31.jpeg",1,"right",1.382999897,3,1,0.809999943,2,0.875,195,0,1,NA,0,NA,0
"334","stim/objects/HouseObjects/flyswatter.png",407,47,400,0.9,"stim/41.jpeg",4,1,3,2,"HouseObjects",1,1,"left","left",0.569000006,1,1,1,0,NA,NA,NA,NA,NA,NA,NA,NA,NA,NA,NA,NA,NA,NA,NA,NA,NA,NA,NA,NA,NA,NA,NA,NA
"254","stim/objects/HouseObjects/bleachbottle.png",408,47,401,0.5,"stim/52.jpeg",5,2,1,2,"HouseObjects",1,1,"left","left",0.582000017,1,1,1,0,NA,NA,NA,NA,NA,NA,NA,NA,NA,NA,NA,NA,NA,NA,NA,NA,NA,NA,NA,NA,NA,NA,NA,NA
"362","stim/objects/HouseObjects/glass.png",409,47,402,0.9,"stim/41.jpeg",4,1,3,2,"HouseObjects",1,2,"left","left",0.788000107,1,1,1,0,NA,NA,NA,NA,NA,NA,NA,NA,NA,NA,NA,NA,NA,NA,NA,NA,NA,NA,NA,NA,NA,NA,NA,NA
"414","stim/objects/Instruments/balalaika2.png",410,47,403,0.7,"stim/11.jpeg",1,1,2,1,"Instruments",2,4,"right","right",0.590000153,1,1,1,0,81,47,1,0.7,2,"stim/11.jpeg",1,1,"stim/11.jpeg",4,"left",2.027999878,2,3,1.740999937,3,1.713999987,81,1,0,0,0,0,0
"547","stim/objects/Instruments/hihat.png",411,47,404,0.5,"stim/51.jpeg",5,1,1,1,"Instruments",2,2,"right","left",0.557999849,0,0,1,0,100,47,1,0.5,1,"stim/51.jpeg",5,1,"stim/51.jpeg",2,"left",2.164000034,2,4,2.279999971,2,1.549000025,100,1,0,0,1,1,0
"515","stim/objects/Instruments/gong.png",412,47,405,0.9,"stim/31.jpeg",3,1,3,2,"Instruments",2,4,"right","right",0.483999968,1,1,1,0,NA,NA,NA,NA,NA,NA,NA,NA,NA,NA,NA,NA,NA,NA,NA,NA,NA,NA,NA,NA,NA,NA,NA,NA
"276","stim/objects/HouseObjects/clothespin.png",413,47,406,0.7,"stim/23.jpeg",2,3,2,2,"HouseObjects",1,2,"left","left",0.593999863,1,1,1,0,NA,NA,NA,NA,NA,NA,NA,NA,NA,NA,NA,NA,NA,NA,NA,NA,NA,NA,NA,NA,NA,NA,NA,NA
"375","stim/objects/HouseObjects/glass2.png",414,47,407,0.1,"stim/31.jpeg",3,1,3,1,"HouseObjects",1,1,"left","right",0.557999849,0,0,1,0,163,47,1,0.1,1,"stim/31.jpeg",3,1,"stim/31.jpeg",1,"left",1.201999903,4,2,3.945999861,1,1.622999907,163,1,0,0,1,1,0
"368","stim/objects/HouseObjects/glass.png",415,47,408,0.9,"stim/42.jpeg",4,2,3,2,"HouseObjects",1,3,"left","left",0.513000011,1,1,1,0,NA,NA,NA,NA,NA,NA,NA,NA,NA,NA,NA,NA,NA,NA,NA,NA,NA,NA,NA,NA,NA,NA,NA,NA
"455","stim/objects/Instruments/electricguitar2.png",416,47,409,0.3,"stim/23.jpeg",2,3,2,1,"Instruments",2,1,"right","left",0.671999931,0,0,1,0,125,47,1,0.3,2,"stim/23.jpeg",2,3,"stim/23.jpeg",1,"right",1.052999735,1,1,0.757999897,4,1.072999954,125,0,0,NA,0,NA,0
"544","stim/objects/Instruments/harmonica2.png",417,47,410,0.9,"stim/31.jpeg",3,1,3,1,"Instruments",2,1,"right","right",0.493000031,1,1,1,0,64,47,1,0.9,2,"stim/31.jpeg",3,1,"stim/31.jpeg",1,"right",3.447999954,2,1,1.89199996,4,2.146999836,64,0,1,NA,0,NA,0
"482","stim/objects/Instruments/flutetrans.png",418,47,411,0.9,"stim/34.jpeg",3,4,3,2,"Instruments",2,3,"right","right",0.47300005,1,1,1,0,NA,NA,NA,NA,NA,NA,NA,NA,NA,NA,NA,NA,NA,NA,NA,NA,NA,NA,NA,NA,NA,NA,NA,NA
"446","stim/objects/Instruments/drums.png",419,47,412,0.7,"stim/11.jpeg",1,1,2,2,"Instruments",2,4,"right","right",0.390999794,1,1,1,0,NA,NA,NA,NA,NA,NA,NA,NA,NA,NA,NA,NA,NA,NA,NA,NA,NA,NA,NA,NA,NA,NA,NA,NA
"246","stim/objects/HouseObjects/ballofstring2.png",420,47,413,0.3,"stim/13.jpeg",1,3,2,1,"HouseObjects",1,3,"left","right",0.544000149,0,0,1,0,93,47,1,0.3,1,"stim/13.jpeg",1,3,"stim/13.jpeg",3,"right",1.332000017,1,2,1.718999863,3,1.164000034,93,0,0,NA,1,NA,0
"435","stim/objects/Instruments/cornet2.png",421,47,414,0.3,"stim/22.jpeg",2,2,2,1,"Instruments",2,4,"right","right",0.507999897,1,1,1,0,126,47,1,0.3,2,"stim/22.jpeg",2,2,"stim/22.jpeg",4,"left",0.97300005,2,3,1.651999712,1,0.59100008,126,1,0,0,0,0,0
"434","stim/objects/Instruments/cornet.png",422,47,415,0.5,"stim/62.jpeg",6,2,1,2,"Instruments",2,2,"right","right",0.631999969,1,1,1,0,NA,NA,NA,NA,NA,NA,NA,NA,NA,NA,NA,NA,NA,NA,NA,NA,NA,NA,NA,NA,NA,NA,NA,NA
"322","stim/objects/HouseObjects/dustpan.png",423,47,416,0.9,"stim/41.jpeg",4,1,3,2,"HouseObjects",1,2,"left","left",0.491999865,1,1,1,0,NA,NA,NA,NA,NA,NA,NA,NA,NA,NA,NA,NA,NA,NA,NA,NA,NA,NA,NA,NA,NA,NA,NA,NA
"316","stim/objects/HouseObjects/dustpan.png",424,47,417,0.9,"stim/41.jpeg",4,1,3,2,"HouseObjects",1,2,"left","left",0.395999908,1,1,1,0,NA,NA,NA,NA,NA,NA,NA,NA,NA,NA,NA,NA,NA,NA,NA,NA,NA,NA,NA,NA,NA,NA,NA,NA
"330","stim/objects/HouseObjects/flyswatter.png",425,47,418,0.9,"stim/44.jpeg",4,4,3,2,"HouseObjects",1,3,"left","left",0.467999935,1,1,1,0,NA,NA,NA,NA,NA,NA,NA,NA,NA,NA,NA,NA,NA,NA,NA,NA,NA,NA,NA,NA,NA,NA,NA,NA
"502","stim/objects/Instruments/frenchhorn.png",426,47,419,0.9,"stim/34.jpeg",3,4,3,2,"Instruments",2,1,"right","right",0.478999853,1,1,1,0,NA,NA,NA,NA,NA,NA,NA,NA,NA,NA,NA,NA,NA,NA,NA,NA,NA,NA,NA,NA,NA,NA,NA,NA
"531","stim/objects/Instruments/grandpiano.png",427,47,420,0.9,"stim/33.jpeg",3,3,3,2,"Instruments",2,2,"right","right",0.378000021,1,1,1,0,NA,NA,NA,NA,NA,NA,NA,NA,NA,NA,NA,NA,NA,NA,NA,NA,NA,NA,NA,NA,NA,NA,NA,NA
"263","stim/objects/HouseObjects/broom.png",428,47,421,0.5,"stim/62.jpeg",6,2,1,2,"HouseObjects",1,2,"left","right",0.49000001,0,0,1,0,NA,NA,NA,NA,NA,NA,NA,NA,NA,NA,NA,NA,NA,NA,NA,NA,NA,NA,NA,NA,NA,NA,NA,NA
"321","stim/objects/HouseObjects/dustpan.png",429,47,422,0.9,"stim/43.jpeg",4,3,3,2,"HouseObjects",1,4,"left","left",0.534000158,1,1,1,0,NA,NA,NA,NA,NA,NA,NA,NA,NA,NA,NA,NA,NA,NA,NA,NA,NA,NA,NA,NA,NA,NA,NA,NA
"281","stim/objects/HouseObjects/coffee.png",430,47,423,0.7,"stim/24.jpeg",2,4,2,2,"HouseObjects",1,4,"left","left",0.542999983,1,1,1,0,NA,NA,NA,NA,NA,NA,NA,NA,NA,NA,NA,NA,NA,NA,NA,NA,NA,NA,NA,NA,NA,NA,NA,NA
"403","stim/objects/HouseObjects/vacuumcleaner2.png",431,47,424,0.9,"stim/41.jpeg",4,1,3,1,"HouseObjects",1,2,"left","left",0.559000015,1,1,1,0,105,47,1,0.9,1,"stim/41.jpeg",4,1,"stim/41.jpeg",2,"left",1.225999832,3,3,1.19299984,2,1.365999937,105,1,0,0,1,1,0
"563","stim/objects/Instruments/tuba.png",432,47,425,0.7,"stim/13.jpeg",1,3,2,1,"Instruments",2,3,"right","right",0.559999943,1,1,1,0,97,47,1,0.7,2,"stim/13.jpeg",1,3,"stim/13.jpeg",3,"left",1.411000013,2,2,1.284999847,1,1.207999945,97,1,0,0,0,0,0
"536","stim/objects/Instruments/grandpiano.png",433,47,426,0.9,"stim/31.jpeg",3,1,3,2,"Instruments",2,4,"right","right",0.57799983,1,1,1,0,NA,NA,NA,NA,NA,NA,NA,NA,NA,NA,NA,NA,NA,NA,NA,NA,NA,NA,NA,NA,NA,NA,NA,NA
"428","stim/objects/Instruments/chime.png",434,47,427,0.5,"stim/64.jpeg",6,4,1,2,"Instruments",2,1,"right","left",0.431999922,0,0,1,0,NA,NA,NA,NA,NA,NA,NA,NA,NA,NA,NA,NA,NA,NA,NA,NA,NA,NA,NA,NA,NA,NA,NA,NA
"400","stim/objects/HouseObjects/towel.png",435,47,428,0.3,"stim/13.jpeg",1,3,2,1,"HouseObjects",1,1,"left","right",0.542000055,0,0,1,0,21,47,1,0.3,1,"stim/13.jpeg",1,3,"stim/13.jpeg",1,"left",2.822999954,1,2,3.108999968,4,1.767999887,21,1,0,0,0,0,0
"398","stim/objects/HouseObjects/thread.png",436,47,429,0.3,"stim/12.jpeg",1,2,2,1,"HouseObjects",1,3,"left","left",0.513999939,1,1,1,0,174,47,1,0.3,1,"stim/12.jpeg",1,2,"stim/12.jpeg",3,"right",1.720000029,2,2,2.395999908,4,2.021999836,174,0,1,NA,0,NA,0
"503","stim/objects/Instruments/frenchhorn.png",437,47,430,0.9,"stim/31.jpeg",3,1,3,2,"Instruments",2,2,"right","right",0.532000065,1,1,1,0,NA,NA,NA,NA,NA,NA,NA,NA,NA,NA,NA,NA,NA,NA,NA,NA,NA,NA,NA,NA,NA,NA,NA,NA
"464","stim/objects/Instruments/flute.png",438,47,431,0.9,"stim/32.jpeg",3,2,3,2,"Instruments",2,2,"right","right",0.588999987,1,1,1,0,NA,NA,NA,NA,NA,NA,NA,NA,NA,NA,NA,NA,NA,NA,NA,NA,NA,NA,NA,NA,NA,NA,NA,NA
"295","stim/objects/HouseObjects/doormat.png",439,47,432,0.9,"stim/42.jpeg",4,2,3,2,"HouseObjects",1,4,"left","left",0.756000042,1,1,1,0,NA,NA,NA,NA,NA,NA,NA,NA,NA,NA,NA,NA,NA,NA,NA,NA,NA,NA,NA,NA,NA,NA,NA,NA
"288","stim/objects/HouseObjects/dishsoap.png",440,47,433,0.7,"stim/22.jpeg",2,2,2,2,"HouseObjects",1,2,"left","left",0.54399991,1,1,1,0,NA,NA,NA,NA,NA,NA,NA,NA,NA,NA,NA,NA,NA,NA,NA,NA,NA,NA,NA,NA,NA,NA,NA,NA
"530","stim/objects/Instruments/grandpiano.png",441,47,434,0.9,"stim/31.jpeg",3,1,3,2,"Instruments",2,2,"right","right",0.520999908,1,1,1,0,NA,NA,NA,NA,NA,NA,NA,NA,NA,NA,NA,NA,NA,NA,NA,NA,NA,NA,NA,NA,NA,NA,NA,NA
"409","stim/objects/Instruments/acousticguitar.png",442,47,435,0.5,"stim/52.jpeg",5,2,1,2,"Instruments",2,1,"right","left",0.680000067,0,0,1,0,NA,NA,NA,NA,NA,NA,NA,NA,NA,NA,NA,NA,NA,NA,NA,NA,NA,NA,NA,NA,NA,NA,NA,NA
"336","stim/objects/HouseObjects/flyswatter.png",443,47,436,0.9,"stim/42.jpeg",4,2,3,2,"HouseObjects",1,2,"left","left",0.628999949,1,1,1,0,NA,NA,NA,NA,NA,NA,NA,NA,NA,NA,NA,NA,NA,NA,NA,NA,NA,NA,NA,NA,NA,NA,NA,NA
"369","stim/objects/HouseObjects/glass.png",444,47,437,0.9,"stim/41.jpeg",4,1,3,2,"HouseObjects",1,4,"left","left",0.527000189,1,1,1,0,NA,NA,NA,NA,NA,NA,NA,NA,NA,NA,NA,NA,NA,NA,NA,NA,NA,NA,NA,NA,NA,NA,NA,NA
"283","stim/objects/HouseObjects/cushion.png",445,47,438,0.7,"stim/21.jpeg",2,1,2,2,"HouseObjects",1,2,"left","left",0.52699995,1,1,1,0,NA,NA,NA,NA,NA,NA,NA,NA,NA,NA,NA,NA,NA,NA,NA,NA,NA,NA,NA,NA,NA,NA,NA,NA
"286","stim/objects/HouseObjects/cushion2.png",446,47,439,0.7,"stim/24.jpeg",2,4,2,1,"HouseObjects",1,4,"left","left",0.495000124,1,1,1,0,176,47,1,0.7,1,"stim/24.jpeg",2,4,"stim/24.jpeg",4,"right",2.868000031,1,1,1.839999914,2,0.380999804,176,0,0,NA,0,NA,0
"459","stim/objects/Instruments/flute.png",447,47,440,0.9,"stim/33.jpeg",3,3,3,2,"Instruments",2,2,"right","left",0.555999994,0,0,1,0,NA,NA,NA,NA,NA,NA,NA,NA,NA,NA,NA,NA,NA,NA,NA,NA,NA,NA,NA,NA,NA,NA,NA,NA
"553","stim/objects/Instruments/tambourine.png",448,47,441,0.5,"stim/61.jpeg",6,1,1,1,"Instruments",2,2,"right","right",0.565999985,1,1,1,0,2,47,1,0.5,2,"stim/61.jpeg",6,1,"stim/61.jpeg",2,"left",3.152999878,1,4,5.014999866,3,1.934999943,2,1,0,0,0,0,0
"570","stim/objects/Instruments/xylophone2.png",449,47,442,0.1,"stim/44.jpeg",4,4,3,1,"Instruments",2,2,"right","left",0.470999956,0,0,1,0,119,47,1,0.1,2,"stim/44.jpeg",4,4,"stim/44.jpeg",2,"right",1.063999891,4,1,1.292999983,1,0.424000025,119,0,0,NA,0,NA,0
"511","stim/objects/Instruments/gong.png",450,47,443,0.9,"stim/32.jpeg",3,2,3,2,"Instruments",2,4,"right","right",0.529000044,1,1,1,0,NA,NA,NA,NA,NA,NA,NA,NA,NA,NA,NA,NA,NA,NA,NA,NA,NA,NA,NA,NA,NA,NA,NA,NA
"430","stim/objects/Instruments/clarinet.png",451,47,444,0.5,"stim/62.jpeg",6,2,1,2,"Instruments",2,2,"right","right",0.597999811,1,1,1,0,NA,NA,NA,NA,NA,NA,NA,NA,NA,NA,NA,NA,NA,NA,NA,NA,NA,NA,NA,NA,NA,NA,NA,NA
"380","stim/objects/HouseObjects/handbrush.png",452,47,445,0.5,"stim/51.jpeg",5,1,1,1,"HouseObjects",1,1,"left","right",0.650000095,0,0,1,0,61,47,1,0.5,1,"stim/51.jpeg",5,1,"stim/51.jpeg",1,"left",1.884000063,3,4,2.227999926,2,5.501999855,61,1,0,0,0,0,0
"270","stim/objects/HouseObjects/clock2.png",453,47,446,0.7,"stim/24.jpeg",2,4,2,1,"HouseObjects",1,3,"left","left",0.607000113,1,1,1,0,67,47,1,0.7,1,"stim/24.jpeg",2,4,"stim/24.jpeg",3,"right",3.529999971,1,2,5.272000074,2,1.389999866,67,0,0,NA,0,NA,0
"305","stim/objects/HouseObjects/doormat.png",454,47,447,0.9,"stim/41.jpeg",4,1,3,2,"HouseObjects",1,2,"left","left",0.712999821,1,1,1,0,NA,NA,NA,NA,NA,NA,NA,NA,NA,NA,NA,NA,NA,NA,NA,NA,NA,NA,NA,NA,NA,NA,NA,NA
"370","stim/objects/HouseObjects/glass.png",455,47,448,0.9,"stim/44.jpeg",4,4,3,2,"HouseObjects",1,2,"left","left",0.493999958,1,1,1,0,NA,NA,NA,NA,NA,NA,NA,NA,NA,NA,NA,NA,NA,NA,NA,NA,NA,NA,NA,NA,NA,NA,NA,NA
"384","stim/objects/HouseObjects/safetypin.png",456,47,449,0.5,"stim/53.jpeg",5,3,1,1,"HouseObjects",1,3,"left","right",0.737999916,0,0,1,0,26,47,1,0.5,1,"stim/53.jpeg",5,3,"stim/53.jpeg",3,"left",1.945999861,4,2,4.006999969,1,1.661999941,26,1,0,0,0,0,0
"432","stim/objects/Instruments/clarinet2.png",457,47,450,0.3,"stim/21.jpeg",2,1,2,1,"Instruments",2,1,"right","left",0.575999975,0,0,1,0,71,47,1,0.3,2,"stim/21.jpeg",2,1,"stim/21.jpeg",1,"right",3.287999868,2,2,1.773999929,2,1.142999887,71,0,0,NA,0,NA,0
"504","stim/objects/Instruments/frenchhorn.png",458,47,451,0.9,"stim/34.jpeg",3,4,3,2,"Instruments",2,4,"right","right",0.572999954,1,1,1,0,NA,NA,NA,NA,NA,NA,NA,NA,NA,NA,NA,NA,NA,NA,NA,NA,NA,NA,NA,NA,NA,NA,NA,NA
"479","stim/objects/Instruments/flutetrans.png",459,47,452,0.9,"stim/33.jpeg",3,3,3,2,"Instruments",2,3,"right","right",0.544999838,1,1,1,0,NA,NA,NA,NA,NA,NA,NA,NA,NA,NA,NA,NA,NA,NA,NA,NA,NA,NA,NA,NA,NA,NA,NA,NA
"485","stim/objects/Instruments/flutetrans.png",460,47,453,0.9,"stim/33.jpeg",3,3,3,2,"Instruments",2,2,"right","right",0.64199996,1,1,1,0,NA,NA,NA,NA,NA,NA,NA,NA,NA,NA,NA,NA,NA,NA,NA,NA,NA,NA,NA,NA,NA,NA,NA,NA
"391","stim/objects/HouseObjects/sponge2.png",461,47,454,0.9,"stim/43.jpeg",4,3,3,1,"HouseObjects",1,4,"left","left",0.492000103,1,1,1,0,3,47,1,0.9,1,"stim/43.jpeg",4,3,"stim/43.jpeg",4,"right",8.888000011,3,3,2.542000055,3,1.78399992,3,0,1,NA,0,NA,0
"396","stim/objects/HouseObjects/thermometer.png",462,47,455,0.3,"stim/11.jpeg",1,1,2,1,"HouseObjects",1,1,"left","right",0.662000179,0,0,1,0,185,47,1,0.3,1,"stim/11.jpeg",1,1,"stim/11.jpeg",1,"left",1.705999851,2,1,0.415999889,2,1.72300005,185,1,1,1,0,0,0
"439","stim/objects/Instruments/cymbal2.png",463,47,456,0.3,"stim/23.jpeg",2,3,2,1,"Instruments",2,4,"right","left",0.377000093,0,0,1,0,6,47,1,0.3,2,"stim/23.jpeg",2,3,"stim/23.jpeg",4,"right",1.745999813,4,3,2.960999966,1,1.232999802,6,0,1,NA,0,NA,0
"297","stim/objects/HouseObjects/doormat.png",464,47,457,0.9,"stim/42.jpeg",4,2,3,2,"HouseObjects",1,1,"left","left",0.79700017,1,1,1,0,NA,NA,NA,NA,NA,NA,NA,NA,NA,NA,NA,NA,NA,NA,NA,NA,NA,NA,NA,NA,NA,NA,NA,NA
"460","stim/objects/Instruments/flute.png",465,47,458,0.9,"stim/31.jpeg",3,1,3,2,"Instruments",2,2,"right","right",0.447000027,1,1,1,0,NA,NA,NA,NA,NA,NA,NA,NA,NA,NA,NA,NA,NA,NA,NA,NA,NA,NA,NA,NA,NA,NA,NA,NA
"535","stim/objects/Instruments/grandpiano.png",466,47,459,0.9,"stim/32.jpeg",3,2,3,2,"Instruments",2,1,"right","right",0.444999933,1,1,1,0,NA,NA,NA,NA,NA,NA,NA,NA,NA,NA,NA,NA,NA,NA,NA,NA,NA,NA,NA,NA,NA,NA,NA,NA
"331","stim/objects/HouseObjects/flyswatter.png",467,47,460,0.9,"stim/42.jpeg",4,2,3,2,"HouseObjects",1,1,"left","left",0.496000051,1,1,1,0,NA,NA,NA,NA,NA,NA,NA,NA,NA,NA,NA,NA,NA,NA,NA,NA,NA,NA,NA,NA,NA,NA,NA,NA
