"","obj_file","X.x","participant.x","trialN.x","trial_cond","scn_file.x","scn_cat","scn_inst","scn_condition","fillers","obj_cat","obj_cat_num","quadrant","corr_ans","key_resp_trial.keys","key_resp_trial.rt","trial_acc","trial_acc_manual","group.x","practice","X.y","participant.y","OvsN","PE_level","object_cat","scn_file.y","corr_scn_cat","corr_scn_inst","scn_file.1","corr_loc","key_resp_id.keys","key_resp_id.rt","key_resp_conf.keys","key_resp_assoc.keys","key_resp_assoc.rt","key_resp_loc.keys","key_resp_loc.rt","trialN.y","id_acc","assoc.acc","cond_assoc","loc.acc","cond_loc","group.y"
"162","stim/objects/Instruments/record2.png",1,78,1,0.7,"stim/43.jpeg",4,3,2,NA,"Instruments",1,4,"left","",NA,0,0,0,1,NA,NA,NA,NA,NA,NA,NA,NA,NA,NA,NA,NA,NA,NA,NA,NA,NA,NA,NA,NA,NA,NA,NA,NA
"138","stim/objects/Instruments/pipepiano2.png",2,78,2,0.7,"stim/42.jpeg",4,2,2,NA,"Instruments",1,2,"left","left",0.667999983,1,1,0,1,NA,NA,NA,NA,NA,NA,NA,NA,NA,NA,NA,NA,NA,NA,NA,NA,NA,NA,NA,NA,NA,NA,NA,NA
"6","stim/objects/HouseObjects/recyclingbin2.png",3,78,3,0.3,"stim/41.jpeg",4,1,2,NA,"HouseObjects",2,3,"right","right",0.734999895,1,1,0,1,NA,NA,NA,NA,NA,NA,NA,NA,NA,NA,NA,NA,NA,NA,NA,NA,NA,NA,NA,NA,NA,NA,NA,NA
"66","stim/objects/HouseObjects/scale2.png",4,78,4,0.9,"stim/53.jpeg",5,3,3,NA,"HouseObjects",2,3,"right","right",0.875,1,1,0,1,NA,NA,NA,NA,NA,NA,NA,NA,NA,NA,NA,NA,NA,NA,NA,NA,NA,NA,NA,NA,NA,NA,NA,NA
"187","stim/objects/Instruments/timbal.png",5,78,5,0.5,"stim/24.jpeg",2,4,1,NA,"Instruments",1,2,"left","left",0.808999777,1,1,0,1,NA,NA,NA,NA,NA,NA,NA,NA,NA,NA,NA,NA,NA,NA,NA,NA,NA,NA,NA,NA,NA,NA,NA,NA
"89","stim/objects/HouseObjects/spraybottle.png",6,78,6,0.7,"stim/31.jpeg",3,1,2,NA,"HouseObjects",2,3,"right","left",0.921999931,0,0,0,1,NA,NA,NA,NA,NA,NA,NA,NA,NA,NA,NA,NA,NA,NA,NA,NA,NA,NA,NA,NA,NA,NA,NA,NA
"9","stim/objects/HouseObjects/remote.png",7,78,7,0.5,"stim/12.jpeg",1,2,1,NA,"HouseObjects",2,1,"right","left",0.733999968,0,0,0,1,NA,NA,NA,NA,NA,NA,NA,NA,NA,NA,NA,NA,NA,NA,NA,NA,NA,NA,NA,NA,NA,NA,NA,NA
"175","stim/objects/Instruments/speaker.png",8,78,8,0.5,"stim/22.jpeg",2,2,1,NA,"Instruments",1,3,"left","left",0.916999817,1,1,0,1,NA,NA,NA,NA,NA,NA,NA,NA,NA,NA,NA,NA,NA,NA,NA,NA,NA,NA,NA,NA,NA,NA,NA,NA
"7","stim/objects/HouseObjects/recyclingbin2.png",9,78,9,0.3,"stim/41.jpeg",4,1,2,NA,"HouseObjects",2,4,"right","right",0.852999926,1,1,0,1,NA,NA,NA,NA,NA,NA,NA,NA,NA,NA,NA,NA,NA,NA,NA,NA,NA,NA,NA,NA,NA,NA,NA,NA
"105","stim/objects/HouseObjects/thermometer.png",10,78,10,0.7,"stim/33.jpeg",3,3,2,NA,"HouseObjects",2,4,"right","",NA,0,0,0,1,NA,NA,NA,NA,NA,NA,NA,NA,NA,NA,NA,NA,NA,NA,NA,NA,NA,NA,NA,NA,NA,NA,NA,NA
"196","stim/objects/Instruments/triangle2.png",11,78,11,0.9,"stim/61.jpeg",6,1,3,NA,"Instruments",1,3,"left","left",0.566999912,1,1,0,1,NA,NA,NA,NA,NA,NA,NA,NA,NA,NA,NA,NA,NA,NA,NA,NA,NA,NA,NA,NA,NA,NA,NA,NA
"163","stim/objects/Instruments/record2.png",12,78,12,0.7,"stim/43.jpeg",4,3,2,NA,"Instruments",1,2,"left","left",0.832999945,1,1,0,1,NA,NA,NA,NA,NA,NA,NA,NA,NA,NA,NA,NA,NA,NA,NA,NA,NA,NA,NA,NA,NA,NA,NA,NA
"1","stim/objects/HouseObjects/recyclingbin.png",13,78,13,0.5,"stim/11.jpeg",1,1,1,NA,"HouseObjects",2,2,"right","left",0.736000061,0,0,0,1,NA,NA,NA,NA,NA,NA,NA,NA,NA,NA,NA,NA,NA,NA,NA,NA,NA,NA,NA,NA,NA,NA,NA,NA
"205","stim/objects/Instruments/trombone.png",14,78,14,0.3,"stim/32.jpeg",3,2,2,NA,"Instruments",1,3,"left","right",0.885999918,0,0,0,1,NA,NA,NA,NA,NA,NA,NA,NA,NA,NA,NA,NA,NA,NA,NA,NA,NA,NA,NA,NA,NA,NA,NA,NA
"220","stim/objects/Instruments/trumpet2.png",15,78,15,0.9,"stim/63.jpeg",6,3,3,NA,"Instruments",1,2,"left","left",0.586000204,1,1,0,1,NA,NA,NA,NA,NA,NA,NA,NA,NA,NA,NA,NA,NA,NA,NA,NA,NA,NA,NA,NA,NA,NA,NA,NA
"33","stim/objects/HouseObjects/safetypin.png",16,78,16,0.5,"stim/21.jpeg",2,1,1,NA,"HouseObjects",2,3,"right","right",0.663000107,1,1,0,1,NA,NA,NA,NA,NA,NA,NA,NA,NA,NA,NA,NA,NA,NA,NA,NA,NA,NA,NA,NA,NA,NA,NA,NA
"221","stim/objects/Instruments/trumpet2.png",17,78,17,0.9,"stim/63.jpeg",6,3,3,NA,"Instruments",1,1,"left","left",0.584000111,1,1,0,1,NA,NA,NA,NA,NA,NA,NA,NA,NA,NA,NA,NA,NA,NA,NA,NA,NA,NA,NA,NA,NA,NA,NA,NA
"164","stim/objects/Instruments/record2.png",18,78,18,0.7,"stim/43.jpeg",4,3,2,NA,"Instruments",1,3,"left","left",0.850999832,1,1,0,1,NA,NA,NA,NA,NA,NA,NA,NA,NA,NA,NA,NA,NA,NA,NA,NA,NA,NA,NA,NA,NA,NA,NA,NA
"113","stim/objects/HouseObjects/thread.png",19,78,19,0.7,"stim/34.jpeg",3,4,2,NA,"HouseObjects",2,4,"right","right",0.849000216,1,1,0,1,NA,NA,NA,NA,NA,NA,NA,NA,NA,NA,NA,NA,NA,NA,NA,NA,NA,NA,NA,NA,NA,NA,NA,NA
"17","stim/objects/HouseObjects/rubbergloves.png",20,78,20,0.5,"stim/13.jpeg",1,3,1,NA,"HouseObjects",2,1,"right","",NA,0,0,0,1,NA,NA,NA,NA,NA,NA,NA,NA,NA,NA,NA,NA,NA,NA,NA,NA,NA,NA,NA,NA,NA,NA,NA,NA
"114","stim/objects/HouseObjects/thread.png",21,78,21,0.7,"stim/34.jpeg",3,4,2,NA,"HouseObjects",2,2,"right","left",0.847999811,0,0,0,1,NA,NA,NA,NA,NA,NA,NA,NA,NA,NA,NA,NA,NA,NA,NA,NA,NA,NA,NA,NA,NA,NA,NA,NA
"38","stim/objects/HouseObjects/safetypin2.png",22,78,22,0.9,"stim/51.jpeg",5,1,3,NA,"HouseObjects",2,1,"right","right",0.569999933,1,1,0,1,NA,NA,NA,NA,NA,NA,NA,NA,NA,NA,NA,NA,NA,NA,NA,NA,NA,NA,NA,NA,NA,NA,NA,NA
"90","stim/objects/HouseObjects/spraybottle.png",23,78,23,0.7,"stim/31.jpeg",3,1,2,NA,"HouseObjects",2,2,"right","left",0.888000011,0,0,0,1,NA,NA,NA,NA,NA,NA,NA,NA,NA,NA,NA,NA,NA,NA,NA,NA,NA,NA,NA,NA,NA,NA,NA,NA
"106","stim/objects/HouseObjects/thermometer.png",24,78,24,0.7,"stim/33.jpeg",3,3,2,NA,"HouseObjects",2,4,"right","right",0.70299983,1,1,0,1,NA,NA,NA,NA,NA,NA,NA,NA,NA,NA,NA,NA,NA,NA,NA,NA,NA,NA,NA,NA,NA,NA,NA,NA
"176","stim/objects/Instruments/speaker.png",25,78,25,0.5,"stim/22.jpeg",2,2,1,NA,"Instruments",1,1,"left","right",0.772000074,0,0,0,1,NA,NA,NA,NA,NA,NA,NA,NA,NA,NA,NA,NA,NA,NA,NA,NA,NA,NA,NA,NA,NA,NA,NA,NA
"120","stim/objects/HouseObjects/thread2.png",26,78,26,0.1,"stim/64.jpeg",6,4,3,NA,"HouseObjects",2,4,"right","left",0.562999964,0,0,0,1,NA,NA,NA,NA,NA,NA,NA,NA,NA,NA,NA,NA,NA,NA,NA,NA,NA,NA,NA,NA,NA,NA,NA,NA
"2","stim/objects/HouseObjects/recyclingbin.png",27,78,27,0.5,"stim/11.jpeg",1,1,1,NA,"HouseObjects",2,3,"right","left",0.777999878,0,0,0,1,NA,NA,NA,NA,NA,NA,NA,NA,NA,NA,NA,NA,NA,NA,NA,NA,NA,NA,NA,NA,NA,NA,NA,NA
"25","stim/objects/HouseObjects/rug.png",28,78,28,0.5,"stim/14.jpeg",1,4,1,NA,"HouseObjects",2,3,"right","left",0.835000038,0,0,0,1,NA,NA,NA,NA,NA,NA,NA,NA,NA,NA,NA,NA,NA,NA,NA,NA,NA,NA,NA,NA,NA,NA,NA,NA
"165","stim/objects/Instruments/record2.png",29,78,29,0.7,"stim/43.jpeg",4,3,2,NA,"Instruments",1,1,"left","left",0.690999985,1,1,0,1,NA,NA,NA,NA,NA,NA,NA,NA,NA,NA,NA,NA,NA,NA,NA,NA,NA,NA,NA,NA,NA,NA,NA,NA
"150","stim/objects/Instruments/record_player2.png",30,78,30,0.7,"stim/44.jpeg",4,4,2,NA,"Instruments",1,1,"left","",NA,0,0,0,1,NA,NA,NA,NA,NA,NA,NA,NA,NA,NA,NA,NA,NA,NA,NA,NA,NA,NA,NA,NA,NA,NA,NA,NA
"145","stim/objects/Instruments/record_player.png",31,78,31,0.5,"stim/14.jpeg",1,4,1,NA,"Instruments",1,4,"left","right",0.802999973,0,0,0,1,NA,NA,NA,NA,NA,NA,NA,NA,NA,NA,NA,NA,NA,NA,NA,NA,NA,NA,NA,NA,NA,NA,NA,NA
"232","stim/objects/Instruments/tuba2.png",32,78,32,0.9,"stim/64.jpeg",6,4,3,NA,"Instruments",1,2,"left","left",0.570999861,1,1,0,1,NA,NA,NA,NA,NA,NA,NA,NA,NA,NA,NA,NA,NA,NA,NA,NA,NA,NA,NA,NA,NA,NA,NA,NA
"61","stim/objects/HouseObjects/scale.png",33,78,33,0.5,"stim/23.jpeg",2,3,1,NA,"HouseObjects",2,1,"right","",NA,0,0,0,1,NA,NA,NA,NA,NA,NA,NA,NA,NA,NA,NA,NA,NA,NA,NA,NA,NA,NA,NA,NA,NA,NA,NA,NA
"47","stim/objects/HouseObjects/saw.png",34,78,34,0.5,"stim/22.jpeg",2,2,1,NA,"HouseObjects",2,1,"right","right",0.523999929,1,1,0,1,NA,NA,NA,NA,NA,NA,NA,NA,NA,NA,NA,NA,NA,NA,NA,NA,NA,NA,NA,NA,NA,NA,NA,NA
"186","stim/objects/Instruments/tambourine2.png",35,78,35,0.1,"stim/53.jpeg",5,3,3,NA,"Instruments",1,4,"left","right",0.590999842,0,0,0,1,NA,NA,NA,NA,NA,NA,NA,NA,NA,NA,NA,NA,NA,NA,NA,NA,NA,NA,NA,NA,NA,NA,NA,NA
"197","stim/objects/Instruments/triangle2.png",36,78,36,0.9,"stim/61.jpeg",6,1,3,NA,"Instruments",1,3,"left","left",0.569999933,1,1,0,1,NA,NA,NA,NA,NA,NA,NA,NA,NA,NA,NA,NA,NA,NA,NA,NA,NA,NA,NA,NA,NA,NA,NA,NA
"67","stim/objects/HouseObjects/scale2.png",37,78,37,0.9,"stim/53.jpeg",5,3,3,NA,"HouseObjects",2,1,"right","right",0.56099987,1,1,0,1,NA,NA,NA,NA,NA,NA,NA,NA,NA,NA,NA,NA,NA,NA,NA,NA,NA,NA,NA,NA,NA,NA,NA,NA
"104","stim/objects/HouseObjects/teapot2.png",38,78,38,0.1,"stim/62.jpeg",6,2,3,NA,"HouseObjects",2,1,"right","left",0.55099988,0,0,0,1,NA,NA,NA,NA,NA,NA,NA,NA,NA,NA,NA,NA,NA,NA,NA,NA,NA,NA,NA,NA,NA,NA,NA,NA
"52","stim/objects/HouseObjects/saw2.png",39,78,39,0.9,"stim/52.jpeg",5,2,3,NA,"HouseObjects",2,2,"right","right",0.571000099,1,1,0,1,NA,NA,NA,NA,NA,NA,NA,NA,NA,NA,NA,NA,NA,NA,NA,NA,NA,NA,NA,NA,NA,NA,NA,NA
"233","stim/objects/Instruments/tuba2.png",40,78,40,0.9,"stim/64.jpeg",6,4,3,NA,"Instruments",1,2,"left","left",0.52699995,1,1,0,1,NA,NA,NA,NA,NA,NA,NA,NA,NA,NA,NA,NA,NA,NA,NA,NA,NA,NA,NA,NA,NA,NA,NA,NA
"169","stim/objects/Instruments/saxophone.png",41,78,41,0.5,"stim/21.jpeg",2,1,1,NA,"Instruments",1,4,"left","right",0.670000076,0,0,0,1,NA,NA,NA,NA,NA,NA,NA,NA,NA,NA,NA,NA,NA,NA,NA,NA,NA,NA,NA,NA,NA,NA,NA,NA
"26","stim/objects/HouseObjects/rug.png",42,78,42,0.5,"stim/14.jpeg",1,4,1,NA,"HouseObjects",2,2,"right","left",0.654999971,0,0,0,1,NA,NA,NA,NA,NA,NA,NA,NA,NA,NA,NA,NA,NA,NA,NA,NA,NA,NA,NA,NA,NA,NA,NA,NA
"133","stim/objects/Instruments/pipepiano.png",43,78,43,0.5,"stim/12.jpeg",1,2,1,NA,"Instruments",1,3,"left","",NA,0,0,0,1,NA,NA,NA,NA,NA,NA,NA,NA,NA,NA,NA,NA,NA,NA,NA,NA,NA,NA,NA,NA,NA,NA,NA,NA
"48","stim/objects/HouseObjects/saw.png",44,78,44,0.5,"stim/22.jpeg",2,2,1,NA,"HouseObjects",2,2,"right","right",0.670000076,1,1,0,1,NA,NA,NA,NA,NA,NA,NA,NA,NA,NA,NA,NA,NA,NA,NA,NA,NA,NA,NA,NA,NA,NA,NA,NA
"39","stim/objects/HouseObjects/safetypin2.png",45,78,45,0.9,"stim/51.jpeg",5,1,3,NA,"HouseObjects",2,3,"right","right",0.49000001,1,1,0,1,NA,NA,NA,NA,NA,NA,NA,NA,NA,NA,NA,NA,NA,NA,NA,NA,NA,NA,NA,NA,NA,NA,NA,NA
"166","stim/objects/Instruments/record2.png",46,78,46,0.7,"stim/43.jpeg",4,3,2,NA,"Instruments",1,1,"left","left",0.656000137,1,1,0,1,NA,NA,NA,NA,NA,NA,NA,NA,NA,NA,NA,NA,NA,NA,NA,NA,NA,NA,NA,NA,NA,NA,NA,NA
"115","stim/objects/HouseObjects/thread.png",47,78,47,0.7,"stim/34.jpeg",3,4,2,NA,"HouseObjects",2,3,"right","",NA,0,0,0,1,NA,NA,NA,NA,NA,NA,NA,NA,NA,NA,NA,NA,NA,NA,NA,NA,NA,NA,NA,NA,NA,NA,NA,NA
"62","stim/objects/HouseObjects/scale.png",48,78,48,0.5,"stim/23.jpeg",2,3,1,NA,"HouseObjects",2,4,"right","right",0.56099987,1,1,0,1,NA,NA,NA,NA,NA,NA,NA,NA,NA,NA,NA,NA,NA,NA,NA,NA,NA,NA,NA,NA,NA,NA,NA,NA
"167","stim/objects/Instruments/record2.png",49,78,49,0.7,"stim/43.jpeg",4,3,2,NA,"Instruments",1,1,"left","left",0.578999996,1,1,0,1,NA,NA,NA,NA,NA,NA,NA,NA,NA,NA,NA,NA,NA,NA,NA,NA,NA,NA,NA,NA,NA,NA,NA,NA
"68","stim/objects/HouseObjects/scale2.png",50,78,50,0.9,"stim/53.jpeg",5,3,3,NA,"HouseObjects",2,2,"right","right",0.688999891,1,1,0,1,NA,NA,NA,NA,NA,NA,NA,NA,NA,NA,NA,NA,NA,NA,NA,NA,NA,NA,NA,NA,NA,NA,NA,NA
"34","stim/objects/HouseObjects/safetypin.png",51,78,51,0.5,"stim/21.jpeg",2,1,1,NA,"HouseObjects",2,3,"right","right",0.654999971,1,1,0,1,NA,NA,NA,NA,NA,NA,NA,NA,NA,NA,NA,NA,NA,NA,NA,NA,NA,NA,NA,NA,NA,NA,NA,NA
"206","stim/objects/Instruments/trombone.png",52,78,52,0.3,"stim/32.jpeg",3,2,2,NA,"Instruments",1,2,"left","",NA,0,0,0,1,NA,NA,NA,NA,NA,NA,NA,NA,NA,NA,NA,NA,NA,NA,NA,NA,NA,NA,NA,NA,NA,NA,NA,NA
"53","stim/objects/HouseObjects/saw2.png",53,78,53,0.9,"stim/52.jpeg",5,2,3,NA,"HouseObjects",2,4,"right","right",0.458000183,1,1,0,1,NA,NA,NA,NA,NA,NA,NA,NA,NA,NA,NA,NA,NA,NA,NA,NA,NA,NA,NA,NA,NA,NA,NA,NA
"126","stim/objects/Instruments/panflute2.png",54,78,54,0.7,"stim/41.jpeg",4,1,2,NA,"Instruments",1,2,"left","right",0.55700016,0,0,0,1,NA,NA,NA,NA,NA,NA,NA,NA,NA,NA,NA,NA,NA,NA,NA,NA,NA,NA,NA,NA,NA,NA,NA,NA
"198","stim/objects/Instruments/triangle2.png",55,78,55,0.9,"stim/61.jpeg",6,1,3,NA,"Instruments",1,4,"left","left",0.555999994,1,1,0,1,NA,NA,NA,NA,NA,NA,NA,NA,NA,NA,NA,NA,NA,NA,NA,NA,NA,NA,NA,NA,NA,NA,NA,NA
"40","stim/objects/HouseObjects/safetypin2.png",56,78,56,0.9,"stim/51.jpeg",5,1,3,NA,"HouseObjects",2,4,"right","right",0.487999916,1,1,0,1,NA,NA,NA,NA,NA,NA,NA,NA,NA,NA,NA,NA,NA,NA,NA,NA,NA,NA,NA,NA,NA,NA,NA,NA
"3","stim/objects/HouseObjects/recyclingbin.png",57,78,57,0.5,"stim/11.jpeg",1,1,1,NA,"HouseObjects",2,1,"right","right",0.930999994,1,1,0,1,NA,NA,NA,NA,NA,NA,NA,NA,NA,NA,NA,NA,NA,NA,NA,NA,NA,NA,NA,NA,NA,NA,NA,NA
"151","stim/objects/Instruments/record_player2.png",58,78,58,0.7,"stim/44.jpeg",4,4,2,NA,"Instruments",1,3,"left","left",0.61500001,1,1,0,1,NA,NA,NA,NA,NA,NA,NA,NA,NA,NA,NA,NA,NA,NA,NA,NA,NA,NA,NA,NA,NA,NA,NA,NA
"208","stim/objects/Instruments/trombone2.png",59,78,59,0.9,"stim/62.jpeg",6,2,3,NA,"Instruments",1,1,"left","left",0.592999935,1,1,0,1,NA,NA,NA,NA,NA,NA,NA,NA,NA,NA,NA,NA,NA,NA,NA,NA,NA,NA,NA,NA,NA,NA,NA,NA
"222","stim/objects/Instruments/trumpet2.png",60,78,60,0.9,"stim/63.jpeg",6,3,3,NA,"Instruments",1,3,"left","left",0.47300005,1,1,0,1,NA,NA,NA,NA,NA,NA,NA,NA,NA,NA,NA,NA,NA,NA,NA,NA,NA,NA,NA,NA,NA,NA,NA,NA
"146","stim/objects/Instruments/record_player.png",61,78,61,0.5,"stim/14.jpeg",1,4,1,NA,"Instruments",1,4,"left","right",0.677000046,0,0,0,1,NA,NA,NA,NA,NA,NA,NA,NA,NA,NA,NA,NA,NA,NA,NA,NA,NA,NA,NA,NA,NA,NA,NA,NA
"41","stim/objects/HouseObjects/safetypin2.png",62,78,62,0.9,"stim/51.jpeg",5,1,3,NA,"HouseObjects",2,4,"right","right",0.478999853,1,1,0,1,NA,NA,NA,NA,NA,NA,NA,NA,NA,NA,NA,NA,NA,NA,NA,NA,NA,NA,NA,NA,NA,NA,NA,NA
"234","stim/objects/Instruments/tuba2.png",63,78,63,0.9,"stim/64.jpeg",6,4,3,NA,"Instruments",1,2,"left","left",0.468000174,1,1,0,1,NA,NA,NA,NA,NA,NA,NA,NA,NA,NA,NA,NA,NA,NA,NA,NA,NA,NA,NA,NA,NA,NA,NA,NA
"127","stim/objects/Instruments/panflute2.png",64,78,64,0.7,"stim/41.jpeg",4,1,2,NA,"Instruments",1,1,"left","",NA,0,0,0,1,NA,NA,NA,NA,NA,NA,NA,NA,NA,NA,NA,NA,NA,NA,NA,NA,NA,NA,NA,NA,NA,NA,NA,NA
"75","stim/objects/HouseObjects/sponge.png",65,78,65,0.5,"stim/24.jpeg",2,4,1,NA,"HouseObjects",2,2,"right","right",0.470999956,1,1,0,1,NA,NA,NA,NA,NA,NA,NA,NA,NA,NA,NA,NA,NA,NA,NA,NA,NA,NA,NA,NA,NA,NA,NA,NA
"223","stim/objects/Instruments/trumpet2.png",66,78,66,0.9,"stim/63.jpeg",6,3,3,NA,"Instruments",1,3,"left","left",0.545000076,1,1,0,1,NA,NA,NA,NA,NA,NA,NA,NA,NA,NA,NA,NA,NA,NA,NA,NA,NA,NA,NA,NA,NA,NA,NA,NA
"207","stim/objects/Instruments/trombone.png",67,78,67,0.3,"stim/32.jpeg",3,2,2,NA,"Instruments",1,2,"left","right",0.669999838,0,0,0,1,NA,NA,NA,NA,NA,NA,NA,NA,NA,NA,NA,NA,NA,NA,NA,NA,NA,NA,NA,NA,NA,NA,NA,NA
"69","stim/objects/HouseObjects/scale2.png",68,78,68,0.9,"stim/53.jpeg",5,3,3,NA,"HouseObjects",2,1,"right","right",0.584000111,1,1,0,1,NA,NA,NA,NA,NA,NA,NA,NA,NA,NA,NA,NA,NA,NA,NA,NA,NA,NA,NA,NA,NA,NA,NA,NA
"235","stim/objects/Instruments/tuba2.png",69,78,69,0.9,"stim/64.jpeg",6,4,3,NA,"Instruments",1,3,"left","left",0.809000015,1,1,0,1,NA,NA,NA,NA,NA,NA,NA,NA,NA,NA,NA,NA,NA,NA,NA,NA,NA,NA,NA,NA,NA,NA,NA,NA
"18","stim/objects/HouseObjects/rubbergloves.png",70,78,70,0.5,"stim/13.jpeg",1,3,1,NA,"HouseObjects",2,3,"right","right",0.771000147,1,1,0,1,NA,NA,NA,NA,NA,NA,NA,NA,NA,NA,NA,NA,NA,NA,NA,NA,NA,NA,NA,NA,NA,NA,NA,NA
"236","stim/objects/Instruments/tuba2.png",71,78,71,0.9,"stim/64.jpeg",6,4,3,NA,"Instruments",1,3,"left","left",0.519000053,1,1,0,1,NA,NA,NA,NA,NA,NA,NA,NA,NA,NA,NA,NA,NA,NA,NA,NA,NA,NA,NA,NA,NA,NA,NA,NA
"116","stim/objects/HouseObjects/thread.png",72,78,72,0.7,"stim/34.jpeg",3,4,2,NA,"HouseObjects",2,4,"right","right",0.571000099,1,1,0,1,NA,NA,NA,NA,NA,NA,NA,NA,NA,NA,NA,NA,NA,NA,NA,NA,NA,NA,NA,NA,NA,NA,NA,NA
"192","stim/objects/Instruments/timbal2.png",73,78,73,0.1,"stim/54.jpeg",5,4,3,NA,"Instruments",1,1,"left","right",0.563999891,0,0,0,1,NA,NA,NA,NA,NA,NA,NA,NA,NA,NA,NA,NA,NA,NA,NA,NA,NA,NA,NA,NA,NA,NA,NA,NA
"121","stim/objects/Instruments/panflute.png",74,78,74,0.5,"stim/11.jpeg",1,1,1,NA,"Instruments",1,1,"left","left",0.690999985,1,1,0,1,NA,NA,NA,NA,NA,NA,NA,NA,NA,NA,NA,NA,NA,NA,NA,NA,NA,NA,NA,NA,NA,NA,NA,NA
"63","stim/objects/HouseObjects/scale.png",75,78,75,0.5,"stim/23.jpeg",2,3,1,NA,"HouseObjects",2,2,"right","right",0.644999981,1,1,0,1,NA,NA,NA,NA,NA,NA,NA,NA,NA,NA,NA,NA,NA,NA,NA,NA,NA,NA,NA,NA,NA,NA,NA,NA
"181","stim/objects/Instruments/tambourine.png",76,78,76,0.5,"stim/23.jpeg",2,3,1,NA,"Instruments",1,4,"left","right",0.506999969,0,0,0,1,NA,NA,NA,NA,NA,NA,NA,NA,NA,NA,NA,NA,NA,NA,NA,NA,NA,NA,NA,NA,NA,NA,NA,NA
"30","stim/objects/HouseObjects/rug2.png",77,78,77,0.3,"stim/44.jpeg",4,4,2,NA,"HouseObjects",2,1,"right","left",0.703999996,0,0,0,1,NA,NA,NA,NA,NA,NA,NA,NA,NA,NA,NA,NA,NA,NA,NA,NA,NA,NA,NA,NA,NA,NA,NA,NA
"76","stim/objects/HouseObjects/sponge.png",78,78,78,0.5,"stim/24.jpeg",2,4,1,NA,"HouseObjects",2,2,"right","right",0.589999914,1,1,0,1,NA,NA,NA,NA,NA,NA,NA,NA,NA,NA,NA,NA,NA,NA,NA,NA,NA,NA,NA,NA,NA,NA,NA,NA
"139","stim/objects/Instruments/pipepiano2.png",79,78,79,0.7,"stim/42.jpeg",4,2,2,NA,"Instruments",1,4,"left","left",0.671999931,1,1,0,1,NA,NA,NA,NA,NA,NA,NA,NA,NA,NA,NA,NA,NA,NA,NA,NA,NA,NA,NA,NA,NA,NA,NA,NA
"8","stim/objects/HouseObjects/recyclingbin2.png",80,78,80,0.3,"stim/41.jpeg",4,1,2,NA,"HouseObjects",2,4,"right","left",0.921999931,0,0,0,1,NA,NA,NA,NA,NA,NA,NA,NA,NA,NA,NA,NA,NA,NA,NA,NA,NA,NA,NA,NA,NA,NA,NA,NA
"193","stim/objects/Instruments/triangle.png",81,78,81,0.3,"stim/31.jpeg",3,1,2,NA,"Instruments",1,3,"left","",NA,0,0,0,1,NA,NA,NA,NA,NA,NA,NA,NA,NA,NA,NA,NA,NA,NA,NA,NA,NA,NA,NA,NA,NA,NA,NA,NA
"97","stim/objects/HouseObjects/teapot.png",82,78,82,0.7,"stim/32.jpeg",3,2,2,NA,"HouseObjects",2,3,"right","left",0.605000019,0,0,0,1,NA,NA,NA,NA,NA,NA,NA,NA,NA,NA,NA,NA,NA,NA,NA,NA,NA,NA,NA,NA,NA,NA,NA,NA
"128","stim/objects/Instruments/panflute2.png",83,78,83,0.7,"stim/41.jpeg",4,1,2,NA,"Instruments",1,3,"left","left",0.738999844,1,1,0,1,NA,NA,NA,NA,NA,NA,NA,NA,NA,NA,NA,NA,NA,NA,NA,NA,NA,NA,NA,NA,NA,NA,NA,NA
"4","stim/objects/HouseObjects/recyclingbin.png",84,78,84,0.5,"stim/11.jpeg",1,1,1,NA,"HouseObjects",2,2,"right","left",0.690999985,0,0,0,1,NA,NA,NA,NA,NA,NA,NA,NA,NA,NA,NA,NA,NA,NA,NA,NA,NA,NA,NA,NA,NA,NA,NA,NA
"229","stim/objects/Instruments/tuba.png",85,78,85,0.3,"stim/34.jpeg",3,4,2,NA,"Instruments",1,2,"left","right",0.694999933,0,0,0,1,NA,NA,NA,NA,NA,NA,NA,NA,NA,NA,NA,NA,NA,NA,NA,NA,NA,NA,NA,NA,NA,NA,NA,NA
"70","stim/objects/HouseObjects/scale2.png",86,78,86,0.9,"stim/53.jpeg",5,3,3,NA,"HouseObjects",2,1,"right","right",0.870000124,1,1,0,1,NA,NA,NA,NA,NA,NA,NA,NA,NA,NA,NA,NA,NA,NA,NA,NA,NA,NA,NA,NA,NA,NA,NA,NA
"209","stim/objects/Instruments/trombone2.png",87,78,87,0.9,"stim/62.jpeg",6,2,3,NA,"Instruments",1,4,"left","left",0.589999914,1,1,0,1,NA,NA,NA,NA,NA,NA,NA,NA,NA,NA,NA,NA,NA,NA,NA,NA,NA,NA,NA,NA,NA,NA,NA,NA
"147","stim/objects/Instruments/record_player.png",88,78,88,0.5,"stim/14.jpeg",1,4,1,NA,"Instruments",1,3,"left","left",0.673999786,1,1,0,1,NA,NA,NA,NA,NA,NA,NA,NA,NA,NA,NA,NA,NA,NA,NA,NA,NA,NA,NA,NA,NA,NA,NA,NA
"117","stim/objects/HouseObjects/thread.png",89,78,89,0.7,"stim/34.jpeg",3,4,2,NA,"HouseObjects",2,3,"right","right",0.693000078,1,1,0,1,NA,NA,NA,NA,NA,NA,NA,NA,NA,NA,NA,NA,NA,NA,NA,NA,NA,NA,NA,NA,NA,NA,NA,NA
"49","stim/objects/HouseObjects/saw.png",90,78,90,0.5,"stim/22.jpeg",2,2,1,NA,"HouseObjects",2,1,"right","right",0.657000065,1,1,0,1,NA,NA,NA,NA,NA,NA,NA,NA,NA,NA,NA,NA,NA,NA,NA,NA,NA,NA,NA,NA,NA,NA,NA,NA
"42","stim/objects/HouseObjects/safetypin2.png",91,78,91,0.9,"stim/51.jpeg",5,1,3,NA,"HouseObjects",2,4,"right","right",0.545000076,1,1,0,1,NA,NA,NA,NA,NA,NA,NA,NA,NA,NA,NA,NA,NA,NA,NA,NA,NA,NA,NA,NA,NA,NA,NA,NA
"35","stim/objects/HouseObjects/safetypin.png",92,78,92,0.5,"stim/21.jpeg",2,1,1,NA,"HouseObjects",2,4,"right","right",0.493999958,1,1,0,1,NA,NA,NA,NA,NA,NA,NA,NA,NA,NA,NA,NA,NA,NA,NA,NA,NA,NA,NA,NA,NA,NA,NA,NA
"98","stim/objects/HouseObjects/teapot.png",93,78,93,0.7,"stim/32.jpeg",3,2,2,NA,"HouseObjects",2,1,"right","left",0.71600008,0,0,0,1,NA,NA,NA,NA,NA,NA,NA,NA,NA,NA,NA,NA,NA,NA,NA,NA,NA,NA,NA,NA,NA,NA,NA,NA
"170","stim/objects/Instruments/saxophone.png",94,78,94,0.5,"stim/21.jpeg",2,1,1,NA,"Instruments",1,3,"left","right",0.601000071,0,0,0,1,NA,NA,NA,NA,NA,NA,NA,NA,NA,NA,NA,NA,NA,NA,NA,NA,NA,NA,NA,NA,NA,NA,NA,NA
"31","stim/objects/HouseObjects/rug2.png",95,78,95,0.3,"stim/44.jpeg",4,4,2,NA,"HouseObjects",2,2,"right","left",0.588000059,0,0,0,1,NA,NA,NA,NA,NA,NA,NA,NA,NA,NA,NA,NA,NA,NA,NA,NA,NA,NA,NA,NA,NA,NA,NA,NA
"54","stim/objects/HouseObjects/saw2.png",96,78,96,0.9,"stim/52.jpeg",5,2,3,NA,"HouseObjects",2,4,"right","right",0.638999939,1,1,0,1,NA,NA,NA,NA,NA,NA,NA,NA,NA,NA,NA,NA,NA,NA,NA,NA,NA,NA,NA,NA,NA,NA,NA,NA
"122","stim/objects/Instruments/panflute.png",97,78,97,0.5,"stim/11.jpeg",1,1,1,NA,"Instruments",1,4,"left","left",0.643999815,1,1,0,1,NA,NA,NA,NA,NA,NA,NA,NA,NA,NA,NA,NA,NA,NA,NA,NA,NA,NA,NA,NA,NA,NA,NA,NA
"14","stim/objects/HouseObjects/remote2.png",98,78,98,0.3,"stim/42.jpeg",4,2,2,NA,"HouseObjects",2,2,"right","left",0.722000122,0,0,0,1,NA,NA,NA,NA,NA,NA,NA,NA,NA,NA,NA,NA,NA,NA,NA,NA,NA,NA,NA,NA,NA,NA,NA,NA
"80","stim/objects/HouseObjects/sponge2.png",99,78,99,0.9,"stim/54.jpeg",5,4,3,NA,"HouseObjects",2,1,"right","",NA,0,0,0,1,NA,NA,NA,NA,NA,NA,NA,NA,NA,NA,NA,NA,NA,NA,NA,NA,NA,NA,NA,NA,NA,NA,NA,NA
"123","stim/objects/Instruments/panflute.png",100,78,100,0.5,"stim/11.jpeg",1,1,1,NA,"Instruments",1,1,"left","left",0.588000059,1,1,0,1,NA,NA,NA,NA,NA,NA,NA,NA,NA,NA,NA,NA,NA,NA,NA,NA,NA,NA,NA,NA,NA,NA,NA,NA
"129","stim/objects/Instruments/panflute2.png",101,78,101,0.7,"stim/41.jpeg",4,1,2,NA,"Instruments",1,1,"left","left",0.605999947,1,1,0,1,NA,NA,NA,NA,NA,NA,NA,NA,NA,NA,NA,NA,NA,NA,NA,NA,NA,NA,NA,NA,NA,NA,NA,NA
"171","stim/objects/Instruments/saxophone.png",102,78,102,0.5,"stim/21.jpeg",2,1,1,NA,"Instruments",1,4,"left","right",0.751999855,0,0,0,1,NA,NA,NA,NA,NA,NA,NA,NA,NA,NA,NA,NA,NA,NA,NA,NA,NA,NA,NA,NA,NA,NA,NA,NA
"188","stim/objects/Instruments/timbal.png",103,78,103,0.5,"stim/24.jpeg",2,4,1,NA,"Instruments",1,3,"left","right",0.701999903,0,0,0,1,NA,NA,NA,NA,NA,NA,NA,NA,NA,NA,NA,NA,NA,NA,NA,NA,NA,NA,NA,NA,NA,NA,NA,NA
"91","stim/objects/HouseObjects/spraybottle.png",104,78,104,0.7,"stim/31.jpeg",3,1,2,NA,"HouseObjects",2,4,"right","left",0.722000122,0,0,0,1,NA,NA,NA,NA,NA,NA,NA,NA,NA,NA,NA,NA,NA,NA,NA,NA,NA,NA,NA,NA,NA,NA,NA,NA
"77","stim/objects/HouseObjects/sponge.png",105,78,105,0.5,"stim/24.jpeg",2,4,1,NA,"HouseObjects",2,2,"right","right",0.690000057,1,1,0,1,NA,NA,NA,NA,NA,NA,NA,NA,NA,NA,NA,NA,NA,NA,NA,NA,NA,NA,NA,NA,NA,NA,NA,NA
"92","stim/objects/HouseObjects/spraybottle.png",106,78,106,0.7,"stim/31.jpeg",3,1,2,NA,"HouseObjects",2,1,"right","left",0.686000109,0,0,0,1,NA,NA,NA,NA,NA,NA,NA,NA,NA,NA,NA,NA,NA,NA,NA,NA,NA,NA,NA,NA,NA,NA,NA,NA
"134","stim/objects/Instruments/pipepiano.png",107,78,107,0.5,"stim/12.jpeg",1,2,1,NA,"Instruments",1,2,"left","left",0.664000034,1,1,0,1,NA,NA,NA,NA,NA,NA,NA,NA,NA,NA,NA,NA,NA,NA,NA,NA,NA,NA,NA,NA,NA,NA,NA,NA
"27","stim/objects/HouseObjects/rug.png",108,78,108,0.5,"stim/14.jpeg",1,4,1,NA,"HouseObjects",2,4,"right","left",0.772000074,0,0,0,1,NA,NA,NA,NA,NA,NA,NA,NA,NA,NA,NA,NA,NA,NA,NA,NA,NA,NA,NA,NA,NA,NA,NA,NA
"71","stim/objects/HouseObjects/scale2.png",109,78,109,0.9,"stim/53.jpeg",5,3,3,NA,"HouseObjects",2,2,"right","right",0.562999964,1,1,0,1,NA,NA,NA,NA,NA,NA,NA,NA,NA,NA,NA,NA,NA,NA,NA,NA,NA,NA,NA,NA,NA,NA,NA,NA
"182","stim/objects/Instruments/tambourine.png",110,78,110,0.5,"stim/23.jpeg",2,3,1,NA,"Instruments",1,4,"left","right",0.740999937,0,0,0,1,NA,NA,NA,NA,NA,NA,NA,NA,NA,NA,NA,NA,NA,NA,NA,NA,NA,NA,NA,NA,NA,NA,NA,NA
"168","stim/objects/Instruments/record2.png",111,78,111,0.7,"stim/43.jpeg",4,3,2,NA,"Instruments",1,3,"left","left",0.657000065,1,1,0,1,NA,NA,NA,NA,NA,NA,NA,NA,NA,NA,NA,NA,NA,NA,NA,NA,NA,NA,NA,NA,NA,NA,NA,NA
"230","stim/objects/Instruments/tuba.png",112,78,112,0.3,"stim/34.jpeg",3,4,2,NA,"Instruments",1,3,"left","right",0.791000128,0,0,0,1,NA,NA,NA,NA,NA,NA,NA,NA,NA,NA,NA,NA,NA,NA,NA,NA,NA,NA,NA,NA,NA,NA,NA,NA
"217","stim/objects/Instruments/trumpet.png",113,78,113,0.3,"stim/33.jpeg",3,3,2,NA,"Instruments",1,1,"left","left",0.845999956,1,1,0,1,NA,NA,NA,NA,NA,NA,NA,NA,NA,NA,NA,NA,NA,NA,NA,NA,NA,NA,NA,NA,NA,NA,NA,NA
"81","stim/objects/HouseObjects/sponge2.png",114,78,114,0.9,"stim/54.jpeg",5,4,3,NA,"HouseObjects",2,3,"right","right",0.604000092,1,1,0,1,NA,NA,NA,NA,NA,NA,NA,NA,NA,NA,NA,NA,NA,NA,NA,NA,NA,NA,NA,NA,NA,NA,NA,NA
"72","stim/objects/HouseObjects/scale2.png",115,78,115,0.9,"stim/53.jpeg",5,3,3,NA,"HouseObjects",2,1,"right","right",0.525000095,1,1,0,1,NA,NA,NA,NA,NA,NA,NA,NA,NA,NA,NA,NA,NA,NA,NA,NA,NA,NA,NA,NA,NA,NA,NA,NA
"10","stim/objects/HouseObjects/remote.png",116,78,116,0.5,"stim/12.jpeg",1,2,1,NA,"HouseObjects",2,2,"right","left",0.731999874,0,0,0,1,NA,NA,NA,NA,NA,NA,NA,NA,NA,NA,NA,NA,NA,NA,NA,NA,NA,NA,NA,NA,NA,NA,NA,NA
"210","stim/objects/Instruments/trombone2.png",117,78,117,0.9,"stim/62.jpeg",6,2,3,NA,"Instruments",1,4,"left","left",0.586000204,1,1,0,1,NA,NA,NA,NA,NA,NA,NA,NA,NA,NA,NA,NA,NA,NA,NA,NA,NA,NA,NA,NA,NA,NA,NA,NA
"82","stim/objects/HouseObjects/sponge2.png",118,78,118,0.9,"stim/54.jpeg",5,4,3,NA,"HouseObjects",2,1,"right","right",0.553999901,1,1,0,1,NA,NA,NA,NA,NA,NA,NA,NA,NA,NA,NA,NA,NA,NA,NA,NA,NA,NA,NA,NA,NA,NA,NA,NA
"22","stim/objects/HouseObjects/rubbergloves2.png",119,78,119,0.3,"stim/43.jpeg",4,3,2,NA,"HouseObjects",2,3,"right","left",0.769000053,0,0,0,1,NA,NA,NA,NA,NA,NA,NA,NA,NA,NA,NA,NA,NA,NA,NA,NA,NA,NA,NA,NA,NA,NA,NA,NA
"157","stim/objects/Instruments/record.png",120,78,120,0.5,"stim/13.jpeg",1,3,1,NA,"Instruments",1,3,"left","left",0.68599987,1,1,0,1,NA,NA,NA,NA,NA,NA,NA,NA,NA,NA,NA,NA,NA,NA,NA,NA,NA,NA,NA,NA,NA,NA,NA,NA
"99","stim/objects/HouseObjects/teapot.png",121,78,121,0.7,"stim/32.jpeg",3,2,2,NA,"HouseObjects",2,4,"right","right",0.855999947,1,1,0,1,NA,NA,NA,NA,NA,NA,NA,NA,NA,NA,NA,NA,NA,NA,NA,NA,NA,NA,NA,NA,NA,NA,NA,NA
"107","stim/objects/HouseObjects/thermometer.png",122,78,122,0.7,"stim/33.jpeg",3,3,2,NA,"HouseObjects",2,1,"right","right",0.771999836,1,1,0,1,NA,NA,NA,NA,NA,NA,NA,NA,NA,NA,NA,NA,NA,NA,NA,NA,NA,NA,NA,NA,NA,NA,NA,NA
"211","stim/objects/Instruments/trombone2.png",123,78,123,0.9,"stim/62.jpeg",6,2,3,NA,"Instruments",1,1,"left","left",0.622999907,1,1,0,1,NA,NA,NA,NA,NA,NA,NA,NA,NA,NA,NA,NA,NA,NA,NA,NA,NA,NA,NA,NA,NA,NA,NA,NA
"11","stim/objects/HouseObjects/remote.png",124,78,124,0.5,"stim/12.jpeg",1,2,1,NA,"HouseObjects",2,2,"right","left",0.756999969,0,0,0,1,NA,NA,NA,NA,NA,NA,NA,NA,NA,NA,NA,NA,NA,NA,NA,NA,NA,NA,NA,NA,NA,NA,NA,NA
"189","stim/objects/Instruments/timbal.png",125,78,125,0.5,"stim/24.jpeg",2,4,1,NA,"Instruments",1,1,"left","right",0.855999947,0,0,0,1,NA,NA,NA,NA,NA,NA,NA,NA,NA,NA,NA,NA,NA,NA,NA,NA,NA,NA,NA,NA,NA,NA,NA,NA
"93","stim/objects/HouseObjects/spraybottle.png",126,78,126,0.7,"stim/31.jpeg",3,1,2,NA,"HouseObjects",2,4,"right","right",0.873000145,1,1,0,1,NA,NA,NA,NA,NA,NA,NA,NA,NA,NA,NA,NA,NA,NA,NA,NA,NA,NA,NA,NA,NA,NA,NA,NA
"108","stim/objects/HouseObjects/thermometer.png",127,78,127,0.7,"stim/33.jpeg",3,3,2,NA,"HouseObjects",2,2,"right","right",0.703999996,1,1,0,1,NA,NA,NA,NA,NA,NA,NA,NA,NA,NA,NA,NA,NA,NA,NA,NA,NA,NA,NA,NA,NA,NA,NA,NA
"140","stim/objects/Instruments/pipepiano2.png",128,78,128,0.7,"stim/42.jpeg",4,2,2,NA,"Instruments",1,3,"left","left",0.740999937,1,1,0,1,NA,NA,NA,NA,NA,NA,NA,NA,NA,NA,NA,NA,NA,NA,NA,NA,NA,NA,NA,NA,NA,NA,NA,NA
"190","stim/objects/Instruments/timbal.png",129,78,129,0.5,"stim/24.jpeg",2,4,1,NA,"Instruments",1,4,"left","",NA,0,0,0,1,NA,NA,NA,NA,NA,NA,NA,NA,NA,NA,NA,NA,NA,NA,NA,NA,NA,NA,NA,NA,NA,NA,NA,NA
"124","stim/objects/Instruments/panflute.png",130,78,130,0.5,"stim/11.jpeg",1,1,1,NA,"Instruments",1,2,"left","left",0.556999922,1,1,0,1,NA,NA,NA,NA,NA,NA,NA,NA,NA,NA,NA,NA,NA,NA,NA,NA,NA,NA,NA,NA,NA,NA,NA,NA
"100","stim/objects/HouseObjects/teapot.png",131,78,131,0.7,"stim/32.jpeg",3,2,2,NA,"HouseObjects",2,1,"right","right",0.664999962,1,1,0,1,NA,NA,NA,NA,NA,NA,NA,NA,NA,NA,NA,NA,NA,NA,NA,NA,NA,NA,NA,NA,NA,NA,NA,NA
"130","stim/objects/Instruments/panflute2.png",132,78,132,0.7,"stim/41.jpeg",4,1,2,NA,"Instruments",1,2,"left","left",0.605999947,1,1,0,1,NA,NA,NA,NA,NA,NA,NA,NA,NA,NA,NA,NA,NA,NA,NA,NA,NA,NA,NA,NA,NA,NA,NA,NA
"174","stim/objects/Instruments/saxophone2.png",133,78,133,0.1,"stim/51.jpeg",5,1,3,NA,"Instruments",1,4,"left","right",0.57400012,0,0,0,1,NA,NA,NA,NA,NA,NA,NA,NA,NA,NA,NA,NA,NA,NA,NA,NA,NA,NA,NA,NA,NA,NA,NA,NA
"231","stim/objects/Instruments/tuba.png",134,78,134,0.3,"stim/34.jpeg",3,4,2,NA,"Instruments",1,3,"left","right",0.635999918,0,0,0,1,NA,NA,NA,NA,NA,NA,NA,NA,NA,NA,NA,NA,NA,NA,NA,NA,NA,NA,NA,NA,NA,NA,NA,NA
"12","stim/objects/HouseObjects/remote.png",135,78,135,0.5,"stim/12.jpeg",1,2,1,NA,"HouseObjects",2,3,"right","left",0.640000105,0,0,0,1,NA,NA,NA,NA,NA,NA,NA,NA,NA,NA,NA,NA,NA,NA,NA,NA,NA,NA,NA,NA,NA,NA,NA,NA
"183","stim/objects/Instruments/tambourine.png",136,78,136,0.5,"stim/23.jpeg",2,3,1,NA,"Instruments",1,1,"left","right",0.640999794,0,0,0,1,NA,NA,NA,NA,NA,NA,NA,NA,NA,NA,NA,NA,NA,NA,NA,NA,NA,NA,NA,NA,NA,NA,NA,NA
"13","stim/objects/HouseObjects/remote.png",137,78,137,0.5,"stim/12.jpeg",1,2,1,NA,"HouseObjects",2,2,"right","left",0.585000038,0,0,0,1,NA,NA,NA,NA,NA,NA,NA,NA,NA,NA,NA,NA,NA,NA,NA,NA,NA,NA,NA,NA,NA,NA,NA,NA
"94","stim/objects/HouseObjects/spraybottle.png",138,78,138,0.7,"stim/31.jpeg",3,1,2,NA,"HouseObjects",2,3,"right","right",0.627000093,1,1,0,1,NA,NA,NA,NA,NA,NA,NA,NA,NA,NA,NA,NA,NA,NA,NA,NA,NA,NA,NA,NA,NA,NA,NA,NA
"224","stim/objects/Instruments/trumpet2.png",139,78,139,0.9,"stim/63.jpeg",6,3,3,NA,"Instruments",1,2,"left","left",0.512999773,1,1,0,1,NA,NA,NA,NA,NA,NA,NA,NA,NA,NA,NA,NA,NA,NA,NA,NA,NA,NA,NA,NA,NA,NA,NA,NA
"125","stim/objects/Instruments/panflute.png",140,78,140,0.5,"stim/11.jpeg",1,1,1,NA,"Instruments",1,2,"left","left",0.595000029,1,1,0,1,NA,NA,NA,NA,NA,NA,NA,NA,NA,NA,NA,NA,NA,NA,NA,NA,NA,NA,NA,NA,NA,NA,NA,NA
"23","stim/objects/HouseObjects/rubbergloves2.png",141,78,141,0.3,"stim/43.jpeg",4,3,2,NA,"HouseObjects",2,4,"right","left",0.739000082,0,0,0,1,NA,NA,NA,NA,NA,NA,NA,NA,NA,NA,NA,NA,NA,NA,NA,NA,NA,NA,NA,NA,NA,NA,NA,NA
"83","stim/objects/HouseObjects/sponge2.png",142,78,142,0.9,"stim/54.jpeg",5,4,3,NA,"HouseObjects",2,2,"right","right",0.571000099,1,1,0,1,NA,NA,NA,NA,NA,NA,NA,NA,NA,NA,NA,NA,NA,NA,NA,NA,NA,NA,NA,NA,NA,NA,NA,NA
"84","stim/objects/HouseObjects/sponge2.png",143,78,143,0.9,"stim/54.jpeg",5,4,3,NA,"HouseObjects",2,2,"right","right",0.603000164,1,1,0,1,NA,NA,NA,NA,NA,NA,NA,NA,NA,NA,NA,NA,NA,NA,NA,NA,NA,NA,NA,NA,NA,NA,NA,NA
"131","stim/objects/Instruments/panflute2.png",144,78,144,0.7,"stim/41.jpeg",4,1,2,NA,"Instruments",1,1,"left","left",0.654000044,1,1,0,1,NA,NA,NA,NA,NA,NA,NA,NA,NA,NA,NA,NA,NA,NA,NA,NA,NA,NA,NA,NA,NA,NA,NA,NA
"194","stim/objects/Instruments/triangle.png",145,78,145,0.3,"stim/31.jpeg",3,1,2,NA,"Instruments",1,2,"left","",NA,0,0,0,1,NA,NA,NA,NA,NA,NA,NA,NA,NA,NA,NA,NA,NA,NA,NA,NA,NA,NA,NA,NA,NA,NA,NA,NA
"101","stim/objects/HouseObjects/teapot.png",146,78,146,0.7,"stim/32.jpeg",3,2,2,NA,"HouseObjects",2,4,"right","left",0.774999857,0,0,0,1,NA,NA,NA,NA,NA,NA,NA,NA,NA,NA,NA,NA,NA,NA,NA,NA,NA,NA,NA,NA,NA,NA,NA,NA
"43","stim/objects/HouseObjects/safetypin2.png",147,78,147,0.9,"stim/51.jpeg",5,1,3,NA,"HouseObjects",2,3,"right","right",0.54700017,1,1,0,1,NA,NA,NA,NA,NA,NA,NA,NA,NA,NA,NA,NA,NA,NA,NA,NA,NA,NA,NA,NA,NA,NA,NA,NA
"199","stim/objects/Instruments/triangle2.png",148,78,148,0.9,"stim/61.jpeg",6,1,3,NA,"Instruments",1,3,"left","left",0.523000002,1,1,0,1,NA,NA,NA,NA,NA,NA,NA,NA,NA,NA,NA,NA,NA,NA,NA,NA,NA,NA,NA,NA,NA,NA,NA,NA
"73","stim/objects/HouseObjects/scale2.png",149,78,149,0.9,"stim/53.jpeg",5,3,3,NA,"HouseObjects",2,2,"right","right",0.444000006,1,1,0,1,NA,NA,NA,NA,NA,NA,NA,NA,NA,NA,NA,NA,NA,NA,NA,NA,NA,NA,NA,NA,NA,NA,NA,NA
"212","stim/objects/Instruments/trombone2.png",150,78,150,0.9,"stim/62.jpeg",6,2,3,NA,"Instruments",1,1,"left","left",0.50999999,1,1,0,1,NA,NA,NA,NA,NA,NA,NA,NA,NA,NA,NA,NA,NA,NA,NA,NA,NA,NA,NA,NA,NA,NA,NA,NA
"200","stim/objects/Instruments/triangle2.png",151,78,151,0.9,"stim/61.jpeg",6,1,3,NA,"Instruments",1,2,"left","left",0.53000021,1,1,0,1,NA,NA,NA,NA,NA,NA,NA,NA,NA,NA,NA,NA,NA,NA,NA,NA,NA,NA,NA,NA,NA,NA,NA,NA
"237","stim/objects/Instruments/tuba2.png",152,78,152,0.9,"stim/64.jpeg",6,4,3,NA,"Instruments",1,4,"left","left",0.517999887,1,1,0,1,NA,NA,NA,NA,NA,NA,NA,NA,NA,NA,NA,NA,NA,NA,NA,NA,NA,NA,NA,NA,NA,NA,NA,NA
"148","stim/objects/Instruments/record_player.png",153,78,153,0.5,"stim/14.jpeg",1,4,1,NA,"Instruments",1,1,"left","left",0.639999866,1,1,0,1,NA,NA,NA,NA,NA,NA,NA,NA,NA,NA,NA,NA,NA,NA,NA,NA,NA,NA,NA,NA,NA,NA,NA,NA
"44","stim/objects/HouseObjects/safetypin2.png",154,78,154,0.9,"stim/51.jpeg",5,1,3,NA,"HouseObjects",2,2,"right","right",0.511999846,1,1,0,1,NA,NA,NA,NA,NA,NA,NA,NA,NA,NA,NA,NA,NA,NA,NA,NA,NA,NA,NA,NA,NA,NA,NA,NA
"225","stim/objects/Instruments/trumpet2.png",155,78,155,0.9,"stim/63.jpeg",6,3,3,NA,"Instruments",1,4,"left","left",0.507999897,1,1,0,1,NA,NA,NA,NA,NA,NA,NA,NA,NA,NA,NA,NA,NA,NA,NA,NA,NA,NA,NA,NA,NA,NA,NA,NA
"177","stim/objects/Instruments/speaker.png",156,78,156,0.5,"stim/22.jpeg",2,2,1,NA,"Instruments",1,4,"left","right",0.755000114,0,0,0,1,NA,NA,NA,NA,NA,NA,NA,NA,NA,NA,NA,NA,NA,NA,NA,NA,NA,NA,NA,NA,NA,NA,NA,NA
"109","stim/objects/HouseObjects/thermometer.png",157,78,157,0.7,"stim/33.jpeg",3,3,2,NA,"HouseObjects",2,2,"right","right",0.58100009,1,1,0,1,NA,NA,NA,NA,NA,NA,NA,NA,NA,NA,NA,NA,NA,NA,NA,NA,NA,NA,NA,NA,NA,NA,NA,NA
"218","stim/objects/Instruments/trumpet.png",158,78,158,0.3,"stim/33.jpeg",3,3,2,NA,"Instruments",1,4,"left","",NA,0,0,0,1,NA,NA,NA,NA,NA,NA,NA,NA,NA,NA,NA,NA,NA,NA,NA,NA,NA,NA,NA,NA,NA,NA,NA,NA
"74","stim/objects/HouseObjects/scale2.png",159,78,159,0.9,"stim/53.jpeg",5,3,3,NA,"HouseObjects",2,2,"right","right",0.524000168,1,1,0,1,NA,NA,NA,NA,NA,NA,NA,NA,NA,NA,NA,NA,NA,NA,NA,NA,NA,NA,NA,NA,NA,NA,NA,NA
"110","stim/objects/HouseObjects/thermometer.png",160,78,160,0.7,"stim/33.jpeg",3,3,2,NA,"HouseObjects",2,4,"right","right",0.687999964,1,1,0,1,NA,NA,NA,NA,NA,NA,NA,NA,NA,NA,NA,NA,NA,NA,NA,NA,NA,NA,NA,NA,NA,NA,NA,NA
"172","stim/objects/Instruments/saxophone.png",161,78,161,0.5,"stim/21.jpeg",2,1,1,NA,"Instruments",1,2,"left","left",0.64199996,1,1,0,1,NA,NA,NA,NA,NA,NA,NA,NA,NA,NA,NA,NA,NA,NA,NA,NA,NA,NA,NA,NA,NA,NA,NA,NA
"64","stim/objects/HouseObjects/scale.png",162,78,162,0.5,"stim/23.jpeg",2,3,1,NA,"HouseObjects",2,4,"right","left",0.55700016,0,0,0,1,NA,NA,NA,NA,NA,NA,NA,NA,NA,NA,NA,NA,NA,NA,NA,NA,NA,NA,NA,NA,NA,NA,NA,NA
"45","stim/objects/HouseObjects/safetypin2.png",163,78,163,0.9,"stim/51.jpeg",5,1,3,NA,"HouseObjects",2,2,"right","right",0.486999989,1,1,0,1,NA,NA,NA,NA,NA,NA,NA,NA,NA,NA,NA,NA,NA,NA,NA,NA,NA,NA,NA,NA,NA,NA,NA,NA
"135","stim/objects/Instruments/pipepiano.png",164,78,164,0.5,"stim/12.jpeg",1,2,1,NA,"Instruments",1,4,"left","right",0.625,0,0,0,1,NA,NA,NA,NA,NA,NA,NA,NA,NA,NA,NA,NA,NA,NA,NA,NA,NA,NA,NA,NA,NA,NA,NA,NA
"46","stim/objects/HouseObjects/safetypin2.png",165,78,165,0.9,"stim/51.jpeg",5,1,3,NA,"HouseObjects",2,1,"right","right",0.541999817,1,1,0,1,NA,NA,NA,NA,NA,NA,NA,NA,NA,NA,NA,NA,NA,NA,NA,NA,NA,NA,NA,NA,NA,NA,NA,NA
"213","stim/objects/Instruments/trombone2.png",166,78,166,0.9,"stim/62.jpeg",6,2,3,NA,"Instruments",1,4,"left","left",0.559000015,1,1,0,1,NA,NA,NA,NA,NA,NA,NA,NA,NA,NA,NA,NA,NA,NA,NA,NA,NA,NA,NA,NA,NA,NA,NA,NA
"28","stim/objects/HouseObjects/rug.png",167,78,167,0.5,"stim/14.jpeg",1,4,1,NA,"HouseObjects",2,1,"right","right",0.523999929,1,1,0,1,NA,NA,NA,NA,NA,NA,NA,NA,NA,NA,NA,NA,NA,NA,NA,NA,NA,NA,NA,NA,NA,NA,NA,NA
"141","stim/objects/Instruments/pipepiano2.png",168,78,168,0.7,"stim/42.jpeg",4,2,2,NA,"Instruments",1,4,"left","left",0.579999924,1,1,0,1,NA,NA,NA,NA,NA,NA,NA,NA,NA,NA,NA,NA,NA,NA,NA,NA,NA,NA,NA,NA,NA,NA,NA,NA
"178","stim/objects/Instruments/speaker.png",169,78,169,0.5,"stim/22.jpeg",2,2,1,NA,"Instruments",1,4,"left","right",0.517999887,0,0,0,1,NA,NA,NA,NA,NA,NA,NA,NA,NA,NA,NA,NA,NA,NA,NA,NA,NA,NA,NA,NA,NA,NA,NA,NA
"136","stim/objects/Instruments/pipepiano.png",170,78,170,0.5,"stim/12.jpeg",1,2,1,NA,"Instruments",1,4,"left","left",0.592999935,1,1,0,1,NA,NA,NA,NA,NA,NA,NA,NA,NA,NA,NA,NA,NA,NA,NA,NA,NA,NA,NA,NA,NA,NA,NA,NA
"152","stim/objects/Instruments/record_player2.png",171,78,171,0.7,"stim/44.jpeg",4,4,2,NA,"Instruments",1,1,"left","left",0.60800004,1,1,0,1,NA,NA,NA,NA,NA,NA,NA,NA,NA,NA,NA,NA,NA,NA,NA,NA,NA,NA,NA,NA,NA,NA,NA,NA
"158","stim/objects/Instruments/record.png",172,78,172,0.5,"stim/13.jpeg",1,3,1,NA,"Instruments",1,1,"left","right",0.624000072,0,0,0,1,NA,NA,NA,NA,NA,NA,NA,NA,NA,NA,NA,NA,NA,NA,NA,NA,NA,NA,NA,NA,NA,NA,NA,NA
"153","stim/objects/Instruments/record_player2.png",173,78,173,0.7,"stim/44.jpeg",4,4,2,NA,"Instruments",1,2,"left","left",0.661000013,1,1,0,1,NA,NA,NA,NA,NA,NA,NA,NA,NA,NA,NA,NA,NA,NA,NA,NA,NA,NA,NA,NA,NA,NA,NA,NA
"78","stim/objects/HouseObjects/sponge.png",174,78,174,0.5,"stim/24.jpeg",2,4,1,NA,"HouseObjects",2,2,"right","left",0.84100008,0,0,0,1,NA,NA,NA,NA,NA,NA,NA,NA,NA,NA,NA,NA,NA,NA,NA,NA,NA,NA,NA,NA,NA,NA,NA,NA
"79","stim/objects/HouseObjects/sponge.png",175,78,175,0.5,"stim/24.jpeg",2,4,1,NA,"HouseObjects",2,1,"right","right",0.855000019,1,1,0,1,NA,NA,NA,NA,NA,NA,NA,NA,NA,NA,NA,NA,NA,NA,NA,NA,NA,NA,NA,NA,NA,NA,NA,NA
"85","stim/objects/HouseObjects/sponge2.png",176,78,176,0.9,"stim/54.jpeg",5,4,3,NA,"HouseObjects",2,3,"right","right",0.647000074,1,1,0,1,NA,NA,NA,NA,NA,NA,NA,NA,NA,NA,NA,NA,NA,NA,NA,NA,NA,NA,NA,NA,NA,NA,NA,NA
"32","stim/objects/HouseObjects/rug2.png",177,78,177,0.3,"stim/44.jpeg",4,4,2,NA,"HouseObjects",2,4,"right","left",0.656999826,0,0,0,1,NA,NA,NA,NA,NA,NA,NA,NA,NA,NA,NA,NA,NA,NA,NA,NA,NA,NA,NA,NA,NA,NA,NA,NA
"214","stim/objects/Instruments/trombone2.png",178,78,178,0.9,"stim/62.jpeg",6,2,3,NA,"Instruments",1,1,"left","left",0.523999929,1,1,0,1,NA,NA,NA,NA,NA,NA,NA,NA,NA,NA,NA,NA,NA,NA,NA,NA,NA,NA,NA,NA,NA,NA,NA,NA
"118","stim/objects/HouseObjects/thread.png",179,78,179,0.7,"stim/34.jpeg",3,4,2,NA,"HouseObjects",2,2,"right","right",0.67200017,1,1,0,1,NA,NA,NA,NA,NA,NA,NA,NA,NA,NA,NA,NA,NA,NA,NA,NA,NA,NA,NA,NA,NA,NA,NA,NA
"215","stim/objects/Instruments/trombone2.png",180,78,180,0.9,"stim/62.jpeg",6,2,3,NA,"Instruments",1,1,"left","left",0.547999859,1,1,0,1,NA,NA,NA,NA,NA,NA,NA,NA,NA,NA,NA,NA,NA,NA,NA,NA,NA,NA,NA,NA,NA,NA,NA,NA
"159","stim/objects/Instruments/record.png",181,78,181,0.5,"stim/13.jpeg",1,3,1,NA,"Instruments",1,1,"left","right",0.687999964,0,0,0,1,NA,NA,NA,NA,NA,NA,NA,NA,NA,NA,NA,NA,NA,NA,NA,NA,NA,NA,NA,NA,NA,NA,NA,NA
"154","stim/objects/Instruments/record_player2.png",182,78,182,0.7,"stim/44.jpeg",4,4,2,NA,"Instruments",1,1,"left","left",0.560000181,1,1,0,1,NA,NA,NA,NA,NA,NA,NA,NA,NA,NA,NA,NA,NA,NA,NA,NA,NA,NA,NA,NA,NA,NA,NA,NA
"184","stim/objects/Instruments/tambourine.png",183,78,183,0.5,"stim/23.jpeg",2,3,1,NA,"Instruments",1,3,"left","left",0.822999954,1,1,0,1,NA,NA,NA,NA,NA,NA,NA,NA,NA,NA,NA,NA,NA,NA,NA,NA,NA,NA,NA,NA,NA,NA,NA,NA
"142","stim/objects/Instruments/pipepiano2.png",184,78,184,0.7,"stim/42.jpeg",4,2,2,NA,"Instruments",1,1,"left","left",0.707000017,1,1,0,1,NA,NA,NA,NA,NA,NA,NA,NA,NA,NA,NA,NA,NA,NA,NA,NA,NA,NA,NA,NA,NA,NA,NA,NA
"132","stim/objects/Instruments/panflute2.png",185,78,185,0.7,"stim/41.jpeg",4,1,2,NA,"Instruments",1,2,"left","",NA,0,0,0,1,NA,NA,NA,NA,NA,NA,NA,NA,NA,NA,NA,NA,NA,NA,NA,NA,NA,NA,NA,NA,NA,NA,NA,NA
"238","stim/objects/Instruments/tuba2.png",186,78,186,0.9,"stim/64.jpeg",6,4,3,NA,"Instruments",1,3,"left","left",0.457999945,1,1,0,1,NA,NA,NA,NA,NA,NA,NA,NA,NA,NA,NA,NA,NA,NA,NA,NA,NA,NA,NA,NA,NA,NA,NA,NA
"86","stim/objects/HouseObjects/sponge2.png",187,78,187,0.9,"stim/54.jpeg",5,4,3,NA,"HouseObjects",2,1,"right","right",0.519999981,1,1,0,1,NA,NA,NA,NA,NA,NA,NA,NA,NA,NA,NA,NA,NA,NA,NA,NA,NA,NA,NA,NA,NA,NA,NA,NA
"5","stim/objects/HouseObjects/recyclingbin.png",188,78,188,0.5,"stim/11.jpeg",1,1,1,NA,"HouseObjects",2,2,"right","left",0.805999994,0,0,0,1,NA,NA,NA,NA,NA,NA,NA,NA,NA,NA,NA,NA,NA,NA,NA,NA,NA,NA,NA,NA,NA,NA,NA,NA
"55","stim/objects/HouseObjects/saw2.png",189,78,189,0.9,"stim/52.jpeg",5,2,3,NA,"HouseObjects",2,2,"right","right",0.49000001,1,1,0,1,NA,NA,NA,NA,NA,NA,NA,NA,NA,NA,NA,NA,NA,NA,NA,NA,NA,NA,NA,NA,NA,NA,NA,NA
"112","stim/objects/HouseObjects/thermometer2.png",190,78,190,0.1,"stim/63.jpeg",6,3,3,NA,"HouseObjects",2,4,"right","left",0.475000143,0,0,0,1,NA,NA,NA,NA,NA,NA,NA,NA,NA,NA,NA,NA,NA,NA,NA,NA,NA,NA,NA,NA,NA,NA,NA,NA
"201","stim/objects/Instruments/triangle2.png",191,78,191,0.9,"stim/61.jpeg",6,1,3,NA,"Instruments",1,2,"left","left",0.453000069,1,1,0,1,NA,NA,NA,NA,NA,NA,NA,NA,NA,NA,NA,NA,NA,NA,NA,NA,NA,NA,NA,NA,NA,NA,NA,NA
"87","stim/objects/HouseObjects/sponge2.png",192,78,192,0.9,"stim/54.jpeg",5,4,3,NA,"HouseObjects",2,4,"right","right",0.621999979,1,1,0,1,NA,NA,NA,NA,NA,NA,NA,NA,NA,NA,NA,NA,NA,NA,NA,NA,NA,NA,NA,NA,NA,NA,NA,NA
"160","stim/objects/Instruments/record.png",193,78,193,0.5,"stim/13.jpeg",1,3,1,NA,"Instruments",1,2,"left","right",0.588000059,0,0,0,1,NA,NA,NA,NA,NA,NA,NA,NA,NA,NA,NA,NA,NA,NA,NA,NA,NA,NA,NA,NA,NA,NA,NA,NA
"137","stim/objects/Instruments/pipepiano.png",194,78,194,0.5,"stim/12.jpeg",1,2,1,NA,"Instruments",1,1,"left","left",0.636000156,1,1,0,1,NA,NA,NA,NA,NA,NA,NA,NA,NA,NA,NA,NA,NA,NA,NA,NA,NA,NA,NA,NA,NA,NA,NA,NA
"202","stim/objects/Instruments/triangle2.png",195,78,195,0.9,"stim/61.jpeg",6,1,3,NA,"Instruments",1,4,"left","left",0.605000019,1,1,0,1,NA,NA,NA,NA,NA,NA,NA,NA,NA,NA,NA,NA,NA,NA,NA,NA,NA,NA,NA,NA,NA,NA,NA,NA
"56","stim/objects/HouseObjects/saw2.png",196,78,196,0.9,"stim/52.jpeg",5,2,3,NA,"HouseObjects",2,1,"right","right",0.571000099,1,1,0,1,NA,NA,NA,NA,NA,NA,NA,NA,NA,NA,NA,NA,NA,NA,NA,NA,NA,NA,NA,NA,NA,NA,NA,NA
"29","stim/objects/HouseObjects/rug.png",197,78,197,0.5,"stim/14.jpeg",1,4,1,NA,"HouseObjects",2,1,"right","left",0.626999855,0,0,0,1,NA,NA,NA,NA,NA,NA,NA,NA,NA,NA,NA,NA,NA,NA,NA,NA,NA,NA,NA,NA,NA,NA,NA,NA
"65","stim/objects/HouseObjects/scale.png",198,78,198,0.5,"stim/23.jpeg",2,3,1,NA,"HouseObjects",2,3,"right","left",0.738999844,0,0,0,1,NA,NA,NA,NA,NA,NA,NA,NA,NA,NA,NA,NA,NA,NA,NA,NA,NA,NA,NA,NA,NA,NA,NA,NA
"111","stim/objects/HouseObjects/thermometer.png",199,78,199,0.7,"stim/33.jpeg",3,3,2,NA,"HouseObjects",2,1,"right","left",0.789000034,0,0,0,1,NA,NA,NA,NA,NA,NA,NA,NA,NA,NA,NA,NA,NA,NA,NA,NA,NA,NA,NA,NA,NA,NA,NA,NA
"19","stim/objects/HouseObjects/rubbergloves.png",200,78,200,0.5,"stim/13.jpeg",1,3,1,NA,"HouseObjects",2,2,"right","left",0.608999968,0,0,0,1,NA,NA,NA,NA,NA,NA,NA,NA,NA,NA,NA,NA,NA,NA,NA,NA,NA,NA,NA,NA,NA,NA,NA,NA
"216","stim/objects/Instruments/trombone2.png",201,78,201,0.9,"stim/62.jpeg",6,2,3,NA,"Instruments",1,1,"left","left",0.525000095,1,1,0,1,NA,NA,NA,NA,NA,NA,NA,NA,NA,NA,NA,NA,NA,NA,NA,NA,NA,NA,NA,NA,NA,NA,NA,NA
"226","stim/objects/Instruments/trumpet2.png",202,78,202,0.9,"stim/63.jpeg",6,3,3,NA,"Instruments",1,3,"left","left",0.571000099,1,1,0,1,NA,NA,NA,NA,NA,NA,NA,NA,NA,NA,NA,NA,NA,NA,NA,NA,NA,NA,NA,NA,NA,NA,NA,NA
"15","stim/objects/HouseObjects/remote2.png",203,78,203,0.3,"stim/42.jpeg",4,2,2,NA,"HouseObjects",2,2,"right","right",0.687000036,1,1,0,1,NA,NA,NA,NA,NA,NA,NA,NA,NA,NA,NA,NA,NA,NA,NA,NA,NA,NA,NA,NA,NA,NA,NA,NA
"50","stim/objects/HouseObjects/saw.png",204,78,204,0.5,"stim/22.jpeg",2,2,1,NA,"HouseObjects",2,1,"right","right",0.589999914,1,1,0,1,NA,NA,NA,NA,NA,NA,NA,NA,NA,NA,NA,NA,NA,NA,NA,NA,NA,NA,NA,NA,NA,NA,NA,NA
"203","stim/objects/Instruments/triangle2.png",205,78,205,0.9,"stim/61.jpeg",6,1,3,NA,"Instruments",1,2,"left","left",0.496000051,1,1,0,1,NA,NA,NA,NA,NA,NA,NA,NA,NA,NA,NA,NA,NA,NA,NA,NA,NA,NA,NA,NA,NA,NA,NA,NA
"180","stim/objects/Instruments/speaker2.png",206,78,206,0.1,"stim/52.jpeg",5,2,3,NA,"Instruments",1,3,"left","right",0.683000088,0,0,0,1,NA,NA,NA,NA,NA,NA,NA,NA,NA,NA,NA,NA,NA,NA,NA,NA,NA,NA,NA,NA,NA,NA,NA,NA
"102","stim/objects/HouseObjects/teapot.png",207,78,207,0.7,"stim/32.jpeg",3,2,2,NA,"HouseObjects",2,3,"right","right",0.754999876,1,1,0,1,NA,NA,NA,NA,NA,NA,NA,NA,NA,NA,NA,NA,NA,NA,NA,NA,NA,NA,NA,NA,NA,NA,NA,NA
"239","stim/objects/Instruments/tuba2.png",208,78,208,0.9,"stim/64.jpeg",6,4,3,NA,"Instruments",1,3,"left","left",0.524999857,1,1,0,1,NA,NA,NA,NA,NA,NA,NA,NA,NA,NA,NA,NA,NA,NA,NA,NA,NA,NA,NA,NA,NA,NA,NA,NA
"119","stim/objects/HouseObjects/thread.png",209,78,209,0.7,"stim/34.jpeg",3,4,2,NA,"HouseObjects",2,4,"right","right",0.691999912,1,1,0,1,NA,NA,NA,NA,NA,NA,NA,NA,NA,NA,NA,NA,NA,NA,NA,NA,NA,NA,NA,NA,NA,NA,NA,NA
"57","stim/objects/HouseObjects/saw2.png",210,78,210,0.9,"stim/52.jpeg",5,2,3,NA,"HouseObjects",2,3,"right","right",0.690999985,1,1,0,1,NA,NA,NA,NA,NA,NA,NA,NA,NA,NA,NA,NA,NA,NA,NA,NA,NA,NA,NA,NA,NA,NA,NA,NA
"143","stim/objects/Instruments/pipepiano2.png",211,78,211,0.7,"stim/42.jpeg",4,2,2,NA,"Instruments",1,3,"left","left",0.592000008,1,1,0,1,NA,NA,NA,NA,NA,NA,NA,NA,NA,NA,NA,NA,NA,NA,NA,NA,NA,NA,NA,NA,NA,NA,NA,NA
"219","stim/objects/Instruments/trumpet.png",212,78,212,0.3,"stim/33.jpeg",3,3,2,NA,"Instruments",1,3,"left","left",0.637000084,1,1,0,1,NA,NA,NA,NA,NA,NA,NA,NA,NA,NA,NA,NA,NA,NA,NA,NA,NA,NA,NA,NA,NA,NA,NA,NA
"144","stim/objects/Instruments/pipepiano2.png",213,78,213,0.7,"stim/42.jpeg",4,2,2,NA,"Instruments",1,1,"left","",NA,0,0,0,1,NA,NA,NA,NA,NA,NA,NA,NA,NA,NA,NA,NA,NA,NA,NA,NA,NA,NA,NA,NA,NA,NA,NA,NA
"51","stim/objects/HouseObjects/saw.png",214,78,214,0.5,"stim/22.jpeg",2,2,1,NA,"HouseObjects",2,3,"right","right",0.674000025,1,1,0,1,NA,NA,NA,NA,NA,NA,NA,NA,NA,NA,NA,NA,NA,NA,NA,NA,NA,NA,NA,NA,NA,NA,NA,NA
"227","stim/objects/Instruments/trumpet2.png",215,78,215,0.9,"stim/63.jpeg",6,3,3,NA,"Instruments",1,4,"left","left",0.508000135,1,1,0,1,NA,NA,NA,NA,NA,NA,NA,NA,NA,NA,NA,NA,NA,NA,NA,NA,NA,NA,NA,NA,NA,NA,NA,NA
"228","stim/objects/Instruments/trumpet2.png",216,78,216,0.9,"stim/63.jpeg",6,3,3,NA,"Instruments",1,3,"left","left",0.654999971,1,1,0,1,NA,NA,NA,NA,NA,NA,NA,NA,NA,NA,NA,NA,NA,NA,NA,NA,NA,NA,NA,NA,NA,NA,NA,NA
"149","stim/objects/Instruments/record_player.png",217,78,217,0.5,"stim/14.jpeg",1,4,1,NA,"Instruments",1,4,"left","right",0.48300004,0,0,0,1,NA,NA,NA,NA,NA,NA,NA,NA,NA,NA,NA,NA,NA,NA,NA,NA,NA,NA,NA,NA,NA,NA,NA,NA
"173","stim/objects/Instruments/saxophone.png",218,78,218,0.5,"stim/21.jpeg",2,1,1,NA,"Instruments",1,3,"left","right",0.621999979,0,0,0,1,NA,NA,NA,NA,NA,NA,NA,NA,NA,NA,NA,NA,NA,NA,NA,NA,NA,NA,NA,NA,NA,NA,NA,NA
"155","stim/objects/Instruments/record_player2.png",219,78,219,0.7,"stim/44.jpeg",4,4,2,NA,"Instruments",1,4,"left","left",0.710000038,1,1,0,1,NA,NA,NA,NA,NA,NA,NA,NA,NA,NA,NA,NA,NA,NA,NA,NA,NA,NA,NA,NA,NA,NA,NA,NA
"185","stim/objects/Instruments/tambourine.png",220,78,220,0.5,"stim/23.jpeg",2,3,1,NA,"Instruments",1,4,"left","left",0.605000019,1,1,0,1,NA,NA,NA,NA,NA,NA,NA,NA,NA,NA,NA,NA,NA,NA,NA,NA,NA,NA,NA,NA,NA,NA,NA,NA
"191","stim/objects/Instruments/timbal.png",221,78,221,0.5,"stim/24.jpeg",2,4,1,NA,"Instruments",1,3,"left","right",0.662999868,0,0,0,1,NA,NA,NA,NA,NA,NA,NA,NA,NA,NA,NA,NA,NA,NA,NA,NA,NA,NA,NA,NA,NA,NA,NA,NA
"240","stim/objects/Instruments/tuba2.png",222,78,222,0.9,"stim/64.jpeg",6,4,3,NA,"Instruments",1,1,"left","left",0.51699996,1,1,0,1,NA,NA,NA,NA,NA,NA,NA,NA,NA,NA,NA,NA,NA,NA,NA,NA,NA,NA,NA,NA,NA,NA,NA,NA
"58","stim/objects/HouseObjects/saw2.png",223,78,223,0.9,"stim/52.jpeg",5,2,3,NA,"HouseObjects",2,2,"right","right",0.554000139,1,1,0,1,NA,NA,NA,NA,NA,NA,NA,NA,NA,NA,NA,NA,NA,NA,NA,NA,NA,NA,NA,NA,NA,NA,NA,NA
"36","stim/objects/HouseObjects/safetypin.png",224,78,224,0.5,"stim/21.jpeg",2,1,1,NA,"HouseObjects",2,4,"right","left",0.610000134,0,0,0,1,NA,NA,NA,NA,NA,NA,NA,NA,NA,NA,NA,NA,NA,NA,NA,NA,NA,NA,NA,NA,NA,NA,NA,NA
"195","stim/objects/Instruments/triangle.png",225,78,225,0.3,"stim/31.jpeg",3,1,2,NA,"Instruments",1,2,"left","left",0.455999851,1,1,0,1,NA,NA,NA,NA,NA,NA,NA,NA,NA,NA,NA,NA,NA,NA,NA,NA,NA,NA,NA,NA,NA,NA,NA,NA
"20","stim/objects/HouseObjects/rubbergloves.png",226,78,226,0.5,"stim/13.jpeg",1,3,1,NA,"HouseObjects",2,4,"right","left",0.724999905,0,0,0,1,NA,NA,NA,NA,NA,NA,NA,NA,NA,NA,NA,NA,NA,NA,NA,NA,NA,NA,NA,NA,NA,NA,NA,NA
"96","stim/objects/HouseObjects/spraybottle2.png",227,78,227,0.1,"stim/61.jpeg",6,1,3,NA,"HouseObjects",2,2,"right","left",0.490999937,0,0,0,1,NA,NA,NA,NA,NA,NA,NA,NA,NA,NA,NA,NA,NA,NA,NA,NA,NA,NA,NA,NA,NA,NA,NA,NA
"204","stim/objects/Instruments/triangle2.png",228,78,228,0.9,"stim/61.jpeg",6,1,3,NA,"Instruments",1,4,"left","left",0.769999981,1,1,0,1,NA,NA,NA,NA,NA,NA,NA,NA,NA,NA,NA,NA,NA,NA,NA,NA,NA,NA,NA,NA,NA,NA,NA,NA
"88","stim/objects/HouseObjects/sponge2.png",229,78,229,0.9,"stim/54.jpeg",5,4,3,NA,"HouseObjects",2,4,"right","right",0.629999876,1,1,0,1,NA,NA,NA,NA,NA,NA,NA,NA,NA,NA,NA,NA,NA,NA,NA,NA,NA,NA,NA,NA,NA,NA,NA,NA
"37","stim/objects/HouseObjects/safetypin.png",230,78,230,0.5,"stim/21.jpeg",2,1,1,NA,"HouseObjects",2,3,"right","left",0.75999999,0,0,0,1,NA,NA,NA,NA,NA,NA,NA,NA,NA,NA,NA,NA,NA,NA,NA,NA,NA,NA,NA,NA,NA,NA,NA,NA
"156","stim/objects/Instruments/record_player2.png",231,78,231,0.7,"stim/44.jpeg",4,4,2,NA,"Instruments",1,1,"left","left",0.654000044,1,1,0,1,NA,NA,NA,NA,NA,NA,NA,NA,NA,NA,NA,NA,NA,NA,NA,NA,NA,NA,NA,NA,NA,NA,NA,NA
"16","stim/objects/HouseObjects/remote2.png",232,78,232,0.3,"stim/42.jpeg",4,2,2,NA,"HouseObjects",2,3,"right","right",0.674999952,1,1,0,1,NA,NA,NA,NA,NA,NA,NA,NA,NA,NA,NA,NA,NA,NA,NA,NA,NA,NA,NA,NA,NA,NA,NA,NA
"179","stim/objects/Instruments/speaker.png",233,78,233,0.5,"stim/22.jpeg",2,2,1,NA,"Instruments",1,1,"left","right",0.65899992,0,0,0,1,NA,NA,NA,NA,NA,NA,NA,NA,NA,NA,NA,NA,NA,NA,NA,NA,NA,NA,NA,NA,NA,NA,NA,NA
"24","stim/objects/HouseObjects/rubbergloves2.png",234,78,234,0.3,"stim/43.jpeg",4,3,2,NA,"HouseObjects",2,4,"right","left",0.680999994,0,0,0,1,NA,NA,NA,NA,NA,NA,NA,NA,NA,NA,NA,NA,NA,NA,NA,NA,NA,NA,NA,NA,NA,NA,NA,NA
"59","stim/objects/HouseObjects/saw2.png",235,78,235,0.9,"stim/52.jpeg",5,2,3,NA,"HouseObjects",2,3,"right","right",0.557999849,1,1,0,1,NA,NA,NA,NA,NA,NA,NA,NA,NA,NA,NA,NA,NA,NA,NA,NA,NA,NA,NA,NA,NA,NA,NA,NA
"21","stim/objects/HouseObjects/rubbergloves.png",236,78,236,0.5,"stim/13.jpeg",1,3,1,NA,"HouseObjects",2,3,"right","left",0.707000017,0,0,0,1,NA,NA,NA,NA,NA,NA,NA,NA,NA,NA,NA,NA,NA,NA,NA,NA,NA,NA,NA,NA,NA,NA,NA,NA
"103","stim/objects/HouseObjects/teapot.png",237,78,237,0.7,"stim/32.jpeg",3,2,2,NA,"HouseObjects",2,1,"right","right",0.777999878,1,1,0,1,NA,NA,NA,NA,NA,NA,NA,NA,NA,NA,NA,NA,NA,NA,NA,NA,NA,NA,NA,NA,NA,NA,NA,NA
"60","stim/objects/HouseObjects/saw2.png",238,78,238,0.9,"stim/52.jpeg",5,2,3,NA,"HouseObjects",2,3,"right","right",0.608999968,1,1,0,1,NA,NA,NA,NA,NA,NA,NA,NA,NA,NA,NA,NA,NA,NA,NA,NA,NA,NA,NA,NA,NA,NA,NA,NA
"161","stim/objects/Instruments/record.png",239,78,239,0.5,"stim/13.jpeg",1,3,1,NA,"Instruments",1,3,"left","left",0.595999956,1,1,0,1,NA,NA,NA,NA,NA,NA,NA,NA,NA,NA,NA,NA,NA,NA,NA,NA,NA,NA,NA,NA,NA,NA,NA,NA
"95","stim/objects/HouseObjects/spraybottle.png",240,78,240,0.7,"stim/31.jpeg",3,1,2,NA,"HouseObjects",2,2,"right","right",0.799999952,1,1,0,1,NA,NA,NA,NA,NA,NA,NA,NA,NA,NA,NA,NA,NA,NA,NA,NA,NA,NA,NA,NA,NA,NA,NA,NA
"308","stim/objects/HouseObjects/dustpan3.png",248,78,241,0.9,"stim/52.jpeg",5,2,3,2,"HouseObjects",2,4,"right","left",0.879999876,0,0,1,0,NA,NA,NA,NA,NA,NA,NA,NA,NA,NA,NA,NA,NA,NA,NA,NA,NA,NA,NA,NA,NA,NA,NA,NA
"359","stim/objects/HouseObjects/glass3.png",249,78,242,0.9,"stim/54.jpeg",5,4,3,2,"HouseObjects",2,1,"right","",NA,0,0,1,0,NA,NA,NA,NA,NA,NA,NA,NA,NA,NA,NA,NA,NA,NA,NA,NA,NA,NA,NA,NA,NA,NA,NA,NA
"342","stim/objects/HouseObjects/garbagebin3.png",250,78,243,0.9,"stim/51.jpeg",5,1,3,2,"HouseObjects",2,4,"right","right",0.59100008,1,1,1,0,NA,NA,NA,NA,NA,NA,NA,NA,NA,NA,NA,NA,NA,NA,NA,NA,NA,NA,NA,NA,NA,NA,NA,NA
"435","stim/objects/Instruments/cornet4.png",251,78,244,0.7,"stim/44.jpeg",4,4,2,1,"Instruments",1,4,"left","left",0.644000053,1,1,1,0,102,78,1,0.7,1,"stim/44.jpeg",4,4,"stim/44.jpeg",4,"left",1.208999872,4,2,5.045000076,4,12.74000001,102,1,0,0,1,1,0
"564","stim/objects/Instruments/oboe4.png",252,78,245,0.9,"stim/63.jpeg",6,3,3,1,"Instruments",1,1,"left","left",0.537999868,1,1,1,0,17,78,1,0.9,1,"stim/63.jpeg",6,3,"stim/63.jpeg",1,"left",1.776000023,2,2,4.342999935,3,2.321999788,17,1,0,0,0,0,0
"490","stim/objects/Instruments/frenchhorn3.png",253,78,246,0.9,"stim/63.jpeg",6,3,3,2,"Instruments",1,1,"left","left",0.487999916,1,1,1,0,NA,NA,NA,NA,NA,NA,NA,NA,NA,NA,NA,NA,NA,NA,NA,NA,NA,NA,NA,NA,NA,NA,NA,NA
"491","stim/objects/Instruments/frenchhorn3.png",254,78,247,0.9,"stim/61.jpeg",6,1,3,2,"Instruments",1,3,"left","left",0.576999903,1,1,1,0,NA,NA,NA,NA,NA,NA,NA,NA,NA,NA,NA,NA,NA,NA,NA,NA,NA,NA,NA,NA,NA,NA,NA,NA
"360","stim/objects/HouseObjects/glass3.png",255,78,248,0.9,"stim/53.jpeg",5,3,3,2,"HouseObjects",2,3,"right","right",0.555000067,1,1,1,0,NA,NA,NA,NA,NA,NA,NA,NA,NA,NA,NA,NA,NA,NA,NA,NA,NA,NA,NA,NA,NA,NA,NA,NA
"565","stim/objects/Instruments/violin3.png",256,78,249,0.3,"stim/33.jpeg",3,3,2,1,"Instruments",1,1,"left","right",0.820999861,0,0,1,0,94,78,1,0.3,1,"stim/33.jpeg",3,3,"stim/33.jpeg",1,"right",3.15899992,2,2,2.588999987,1,3.760999918,94,0,0,NA,1,NA,0
"427","stim/objects/Instruments/chime3.png",257,78,250,0.5,"stim/22.jpeg",2,2,1,2,"Instruments",1,1,"left","right",0.661000013,0,0,1,0,NA,NA,NA,NA,NA,NA,NA,NA,NA,NA,NA,NA,NA,NA,NA,NA,NA,NA,NA,NA,NA,NA,NA,NA
"492","stim/objects/Instruments/frenchhorn3.png",258,78,251,0.9,"stim/61.jpeg",6,1,3,2,"Instruments",1,4,"left","left",0.513000011,1,1,1,0,NA,NA,NA,NA,NA,NA,NA,NA,NA,NA,NA,NA,NA,NA,NA,NA,NA,NA,NA,NA,NA,NA,NA,NA
"507","stim/objects/Instruments/gong3.png",259,78,252,0.9,"stim/62.jpeg",6,2,3,2,"Instruments",1,2,"left","left",0.555000067,1,1,1,0,NA,NA,NA,NA,NA,NA,NA,NA,NA,NA,NA,NA,NA,NA,NA,NA,NA,NA,NA,NA,NA,NA,NA,NA
"456","stim/objects/Instruments/flute3.png",260,78,253,0.9,"stim/63.jpeg",6,3,3,2,"Instruments",1,3,"left","left",0.544999838,1,1,1,0,NA,NA,NA,NA,NA,NA,NA,NA,NA,NA,NA,NA,NA,NA,NA,NA,NA,NA,NA,NA,NA,NA,NA,NA
"361","stim/objects/HouseObjects/glass3.png",261,78,254,0.9,"stim/53.jpeg",5,3,3,2,"HouseObjects",2,2,"right","right",0.538999796,1,1,1,0,NA,NA,NA,NA,NA,NA,NA,NA,NA,NA,NA,NA,NA,NA,NA,NA,NA,NA,NA,NA,NA,NA,NA,NA
"493","stim/objects/Instruments/frenchhorn3.png",262,78,255,0.9,"stim/62.jpeg",6,2,3,2,"Instruments",1,4,"left","left",0.522000074,1,1,1,0,NA,NA,NA,NA,NA,NA,NA,NA,NA,NA,NA,NA,NA,NA,NA,NA,NA,NA,NA,NA,NA,NA,NA,NA
"309","stim/objects/HouseObjects/dustpan3.png",263,78,256,0.9,"stim/53.jpeg",5,3,3,2,"HouseObjects",2,1,"right","right",0.394000053,1,1,1,0,NA,NA,NA,NA,NA,NA,NA,NA,NA,NA,NA,NA,NA,NA,NA,NA,NA,NA,NA,NA,NA,NA,NA,NA
"549","stim/objects/Instruments/keyboard3.png",264,78,257,0.5,"stim/13.jpeg",1,3,1,1,"Instruments",1,2,"left","left",0.578999996,1,1,1,0,199,78,1,0.5,1,"stim/13.jpeg",1,3,"stim/13.jpeg",2,"left",1.291999817,3,2,3.527999878,3,1.611999989,199,1,0,0,0,0,0
"436","stim/objects/Instruments/cymbal3.png",265,78,258,0.7,"stim/41.jpeg",4,1,2,2,"Instruments",1,3,"left","",NA,0,0,1,0,NA,NA,NA,NA,NA,NA,NA,NA,NA,NA,NA,NA,NA,NA,NA,NA,NA,NA,NA,NA,NA,NA,NA,NA
"292","stim/objects/HouseObjects/doormat3.png",266,78,259,0.9,"stim/51.jpeg",5,1,3,2,"HouseObjects",2,1,"right","right",0.470000029,1,1,1,0,NA,NA,NA,NA,NA,NA,NA,NA,NA,NA,NA,NA,NA,NA,NA,NA,NA,NA,NA,NA,NA,NA,NA,NA
"326","stim/objects/HouseObjects/flyswatter3.png",267,78,260,0.9,"stim/51.jpeg",5,1,3,2,"HouseObjects",2,4,"right","right",0.454999924,1,1,1,0,NA,NA,NA,NA,NA,NA,NA,NA,NA,NA,NA,NA,NA,NA,NA,NA,NA,NA,NA,NA,NA,NA,NA,NA
"287","stim/objects/HouseObjects/dishsoap3.png",268,78,261,0.7,"stim/34.jpeg",3,4,2,2,"HouseObjects",2,4,"right","left",0.644999981,0,0,1,0,NA,NA,NA,NA,NA,NA,NA,NA,NA,NA,NA,NA,NA,NA,NA,NA,NA,NA,NA,NA,NA,NA,NA,NA
"310","stim/objects/HouseObjects/dustpan3.png",269,78,262,0.9,"stim/53.jpeg",5,3,3,2,"HouseObjects",2,1,"right","right",0.503000021,1,1,1,0,NA,NA,NA,NA,NA,NA,NA,NA,NA,NA,NA,NA,NA,NA,NA,NA,NA,NA,NA,NA,NA,NA,NA,NA
"311","stim/objects/HouseObjects/dustpan3.png",270,78,263,0.9,"stim/51.jpeg",5,1,3,2,"HouseObjects",2,2,"right","right",0.440000057,1,1,1,0,NA,NA,NA,NA,NA,NA,NA,NA,NA,NA,NA,NA,NA,NA,NA,NA,NA,NA,NA,NA,NA,NA,NA,NA
"293","stim/objects/HouseObjects/doormat3.png",271,78,264,0.9,"stim/51.jpeg",5,1,3,2,"HouseObjects",2,3,"right","right",0.470000029,1,1,1,0,NA,NA,NA,NA,NA,NA,NA,NA,NA,NA,NA,NA,NA,NA,NA,NA,NA,NA,NA,NA,NA,NA,NA,NA
"362","stim/objects/HouseObjects/glass3.png",272,78,265,0.9,"stim/53.jpeg",5,3,3,2,"HouseObjects",2,2,"right","right",0.467000008,1,1,1,0,NA,NA,NA,NA,NA,NA,NA,NA,NA,NA,NA,NA,NA,NA,NA,NA,NA,NA,NA,NA,NA,NA,NA,NA
"440","stim/objects/Instruments/doublebass3.png",273,78,266,0.7,"stim/42.jpeg",4,2,2,2,"Instruments",1,2,"left","left",0.737999916,1,1,1,0,NA,NA,NA,NA,NA,NA,NA,NA,NA,NA,NA,NA,NA,NA,NA,NA,NA,NA,NA,NA,NA,NA,NA,NA
"561","stim/objects/Instruments/musicstand3.png",274,78,267,0.3,"stim/31.jpeg",3,1,2,1,"Instruments",1,2,"left","right",0.806999922,0,0,1,0,153,78,1,0.3,1,"stim/31.jpeg",3,1,"stim/31.jpeg",2,"left",1.707000017,3,1,3.680000067,4,2.726999998,153,1,1,1,0,0,0
"444","stim/objects/Instruments/drums3.png",275,78,268,0.7,"stim/44.jpeg",4,4,2,2,"Instruments",1,4,"left","left",0.638999939,1,1,1,0,NA,NA,NA,NA,NA,NA,NA,NA,NA,NA,NA,NA,NA,NA,NA,NA,NA,NA,NA,NA,NA,NA,NA,NA
"294","stim/objects/HouseObjects/doormat3.png",276,78,269,0.9,"stim/52.jpeg",5,2,3,2,"HouseObjects",2,4,"right","right",0.511000156,1,1,1,0,NA,NA,NA,NA,NA,NA,NA,NA,NA,NA,NA,NA,NA,NA,NA,NA,NA,NA,NA,NA,NA,NA,NA,NA
"406","stim/objects/Instruments/accordion3.png",277,78,270,0.5,"stim/11.jpeg",1,1,1,2,"Instruments",1,4,"left","left",0.688999891,1,1,1,0,NA,NA,NA,NA,NA,NA,NA,NA,NA,NA,NA,NA,NA,NA,NA,NA,NA,NA,NA,NA,NA,NA,NA,NA
"524","stim/objects/Instruments/grandpiano3.png",278,78,271,0.9,"stim/61.jpeg",6,1,3,2,"Instruments",1,1,"left","left",0.507999897,1,1,1,0,NA,NA,NA,NA,NA,NA,NA,NA,NA,NA,NA,NA,NA,NA,NA,NA,NA,NA,NA,NA,NA,NA,NA,NA
"279","stim/objects/HouseObjects/coffee3.png",279,78,272,0.7,"stim/31.jpeg",3,1,2,2,"HouseObjects",2,4,"right","right",0.769999981,1,1,1,0,NA,NA,NA,NA,NA,NA,NA,NA,NA,NA,NA,NA,NA,NA,NA,NA,NA,NA,NA,NA,NA,NA,NA,NA
"474","stim/objects/Instruments/flutetrans3.png",280,78,273,0.9,"stim/63.jpeg",6,3,3,2,"Instruments",1,1,"left","left",0.476999998,1,1,1,0,NA,NA,NA,NA,NA,NA,NA,NA,NA,NA,NA,NA,NA,NA,NA,NA,NA,NA,NA,NA,NA,NA,NA,NA
"295","stim/objects/HouseObjects/doormat3.png",281,78,274,0.9,"stim/53.jpeg",5,3,3,2,"HouseObjects",2,4,"right","right",0.472999811,1,1,1,0,NA,NA,NA,NA,NA,NA,NA,NA,NA,NA,NA,NA,NA,NA,NA,NA,NA,NA,NA,NA,NA,NA,NA,NA
"567","stim/objects/Instruments/vuvuzela3.png",282,78,275,0.3,"stim/34.jpeg",3,4,2,1,"Instruments",1,4,"left","left",0.671000004,1,1,1,0,52,78,1,0.3,1,"stim/34.jpeg",3,4,"stim/34.jpeg",4,"left",1.125,4,1,4.45600009,2,6.845999956,52,1,0,0,0,0,0
"288","stim/objects/HouseObjects/dishsoap3.png",283,78,276,0.7,"stim/31.jpeg",3,1,2,2,"HouseObjects",2,1,"right","right",0.552000046,1,1,1,0,NA,NA,NA,NA,NA,NA,NA,NA,NA,NA,NA,NA,NA,NA,NA,NA,NA,NA,NA,NA,NA,NA,NA,NA
"275","stim/objects/HouseObjects/clothespin3.png",284,78,277,0.7,"stim/31.jpeg",3,1,2,2,"HouseObjects",2,1,"right","right",0.489000082,1,1,1,0,NA,NA,NA,NA,NA,NA,NA,NA,NA,NA,NA,NA,NA,NA,NA,NA,NA,NA,NA,NA,NA,NA,NA,NA
"241","stim/objects/HouseObjects/ashtray3.png",285,78,278,0.5,"stim/14.jpeg",1,4,1,2,"HouseObjects",2,1,"right","left",0.605000019,0,0,1,0,NA,NA,NA,NA,NA,NA,NA,NA,NA,NA,NA,NA,NA,NA,NA,NA,NA,NA,NA,NA,NA,NA,NA,NA
"363","stim/objects/HouseObjects/glass3.png",286,78,279,0.9,"stim/52.jpeg",5,2,3,2,"HouseObjects",2,4,"right","right",0.524999857,1,1,1,0,NA,NA,NA,NA,NA,NA,NA,NA,NA,NA,NA,NA,NA,NA,NA,NA,NA,NA,NA,NA,NA,NA,NA,NA
"256","stim/objects/HouseObjects/blender3.png",287,78,280,0.5,"stim/23.jpeg",2,3,1,2,"HouseObjects",2,2,"right","right",0.749000072,1,1,1,0,NA,NA,NA,NA,NA,NA,NA,NA,NA,NA,NA,NA,NA,NA,NA,NA,NA,NA,NA,NA,NA,NA,NA,NA
"541","stim/objects/Instruments/guitarcase3.png",288,78,281,0.5,"stim/13.jpeg",1,3,1,1,"Instruments",1,1,"left","left",0.593999863,1,1,1,0,189,78,1,0.5,1,"stim/13.jpeg",1,3,"stim/13.jpeg",1,"left",1.393000126,2,3,3.662000179,4,3.180000067,189,1,1,1,0,0,0
"475","stim/objects/Instruments/flutetrans3.png",289,78,282,0.9,"stim/64.jpeg",6,4,3,2,"Instruments",1,2,"left","left",0.503000021,1,1,1,0,NA,NA,NA,NA,NA,NA,NA,NA,NA,NA,NA,NA,NA,NA,NA,NA,NA,NA,NA,NA,NA,NA,NA,NA
"508","stim/objects/Instruments/gong3.png",290,78,283,0.9,"stim/64.jpeg",6,4,3,2,"Instruments",1,1,"left","left",0.411000013,1,1,1,0,NA,NA,NA,NA,NA,NA,NA,NA,NA,NA,NA,NA,NA,NA,NA,NA,NA,NA,NA,NA,NA,NA,NA,NA
"473","stim/objects/Instruments/flutetrans3.png",291,78,284,0.9,"stim/62.jpeg",6,2,3,2,"Instruments",1,2,"left","left",0.51699996,1,1,1,0,NA,NA,NA,NA,NA,NA,NA,NA,NA,NA,NA,NA,NA,NA,NA,NA,NA,NA,NA,NA,NA,NA,NA,NA
"556","stim/objects/Instruments/marimba4.png",292,78,285,0.9,"stim/63.jpeg",6,3,3,1,"Instruments",1,3,"left","left",0.486999989,1,1,1,0,157,78,1,0.9,1,"stim/63.jpeg",6,3,"stim/63.jpeg",3,"right",0.899999857,3,2,2.503000021,4,2.334000111,157,0,0,NA,0,NA,0
"526","stim/objects/Instruments/grandpiano3.png",293,78,286,0.9,"stim/63.jpeg",6,3,3,2,"Instruments",1,3,"left","left",0.4599998,1,1,1,0,NA,NA,NA,NA,NA,NA,NA,NA,NA,NA,NA,NA,NA,NA,NA,NA,NA,NA,NA,NA,NA,NA,NA,NA
"527","stim/objects/Instruments/grandpiano3.png",294,78,287,0.9,"stim/64.jpeg",6,4,3,2,"Instruments",1,3,"left","left",0.444000006,1,1,1,0,NA,NA,NA,NA,NA,NA,NA,NA,NA,NA,NA,NA,NA,NA,NA,NA,NA,NA,NA,NA,NA,NA,NA,NA
"376","stim/objects/HouseObjects/glassmop3.png",295,78,288,0.5,"stim/12.jpeg",1,2,1,1,"HouseObjects",2,4,"right","right",0.60800004,1,1,1,0,68,78,1,0.5,1,"stim/12.jpeg",1,2,"stim/12.jpeg",4,"left",2.30099988,3,2,2.730999947,3,3.143999815,68,1,1,1,0,0,0
"457","stim/objects/Instruments/flute3.png",296,78,289,0.9,"stim/63.jpeg",6,3,3,2,"Instruments",1,2,"left","left",0.460000038,1,1,1,0,NA,NA,NA,NA,NA,NA,NA,NA,NA,NA,NA,NA,NA,NA,NA,NA,NA,NA,NA,NA,NA,NA,NA,NA
"345","stim/objects/HouseObjects/garbagebin3.png",297,78,290,0.9,"stim/52.jpeg",5,2,3,2,"HouseObjects",2,2,"right","right",0.486000061,1,1,1,0,NA,NA,NA,NA,NA,NA,NA,NA,NA,NA,NA,NA,NA,NA,NA,NA,NA,NA,NA,NA,NA,NA,NA,NA
"346","stim/objects/HouseObjects/garbagebin3.png",298,78,291,0.9,"stim/52.jpeg",5,2,3,2,"HouseObjects",2,4,"right","right",0.489000082,1,1,1,0,NA,NA,NA,NA,NA,NA,NA,NA,NA,NA,NA,NA,NA,NA,NA,NA,NA,NA,NA,NA,NA,NA,NA,NA
"283","stim/objects/HouseObjects/cushion3.png",299,78,292,0.7,"stim/32.jpeg",3,2,2,2,"HouseObjects",2,1,"right","right",0.626999855,1,1,1,0,NA,NA,NA,NA,NA,NA,NA,NA,NA,NA,NA,NA,NA,NA,NA,NA,NA,NA,NA,NA,NA,NA,NA,NA
"395","stim/objects/HouseObjects/match4.png",300,78,293,0.1,"stim/63.jpeg",6,3,3,1,"HouseObjects",2,2,"right","left",0.519000053,0,0,1,0,82,78,1,0.1,2,"stim/63.jpeg",6,3,"stim/63.jpeg",2,"left",2.508000135,4,1,7.715999842,2,4.384000063,82,1,0,0,1,1,0
"553","stim/objects/Instruments/maraca3.png",301,78,294,0.5,"stim/22.jpeg",2,2,1,1,"Instruments",1,3,"left","right",0.595999956,0,0,1,0,69,78,1,0.5,2,"stim/22.jpeg",2,2,"stim/22.jpeg",3,"left",1.462000132,4,2,4.546999931,4,4.265000105,69,1,1,1,0,0,0
"364","stim/objects/HouseObjects/glass3.png",302,78,295,0.9,"stim/51.jpeg",5,1,3,2,"HouseObjects",2,3,"right","right",0.473999977,1,1,1,0,NA,NA,NA,NA,NA,NA,NA,NA,NA,NA,NA,NA,NA,NA,NA,NA,NA,NA,NA,NA,NA,NA,NA,NA
"418","stim/objects/Instruments/bassdrum3.png",303,78,296,0.5,"stim/12.jpeg",1,2,1,2,"Instruments",1,4,"left","left",0.654999971,1,1,1,0,NA,NA,NA,NA,NA,NA,NA,NA,NA,NA,NA,NA,NA,NA,NA,NA,NA,NA,NA,NA,NA,NA,NA,NA
"312","stim/objects/HouseObjects/dustpan3.png",304,78,297,0.9,"stim/54.jpeg",5,4,3,2,"HouseObjects",2,2,"right","right",0.441999912,1,1,1,0,NA,NA,NA,NA,NA,NA,NA,NA,NA,NA,NA,NA,NA,NA,NA,NA,NA,NA,NA,NA,NA,NA,NA,NA
"286","stim/objects/HouseObjects/cushion4.png",305,78,298,0.3,"stim/42.jpeg",4,2,2,1,"HouseObjects",2,2,"right","left",0.523000002,0,0,1,0,18,78,1,0.3,2,"stim/42.jpeg",4,2,"stim/42.jpeg",2,"right",5.055999994,2,1,7.013999939,1,2.210000038,18,0,0,NA,0,NA,0
"313","stim/objects/HouseObjects/dustpan3.png",306,78,299,0.9,"stim/52.jpeg",5,2,3,2,"HouseObjects",2,3,"right","right",0.493999958,1,1,1,0,NA,NA,NA,NA,NA,NA,NA,NA,NA,NA,NA,NA,NA,NA,NA,NA,NA,NA,NA,NA,NA,NA,NA,NA
"476","stim/objects/Instruments/flutetrans3.png",307,78,300,0.9,"stim/62.jpeg",6,2,3,2,"Instruments",1,2,"left","left",0.506999969,1,1,1,0,NA,NA,NA,NA,NA,NA,NA,NA,NA,NA,NA,NA,NA,NA,NA,NA,NA,NA,NA,NA,NA,NA,NA,NA
"390","stim/objects/HouseObjects/knife3.png",308,78,301,0.5,"stim/22.jpeg",2,2,1,1,"HouseObjects",2,2,"right","right",0.589999914,1,1,1,0,165,78,1,0.5,2,"stim/22.jpeg",2,2,"stim/22.jpeg",2,"left",1.428999901,4,4,4.919999838,4,3.262000084,165,1,0,0,0,0,0
"458","stim/objects/Instruments/flute3.png",309,78,302,0.9,"stim/62.jpeg",6,2,3,2,"Instruments",1,3,"left","left",0.463999987,1,1,1,0,NA,NA,NA,NA,NA,NA,NA,NA,NA,NA,NA,NA,NA,NA,NA,NA,NA,NA,NA,NA,NA,NA,NA,NA
"546","stim/objects/Instruments/harp4.png",310,78,303,0.1,"stim/54.jpeg",5,4,3,1,"Instruments",1,2,"left","right",0.459000111,0,0,1,0,121,78,1,0.1,1,"stim/54.jpeg",5,4,"stim/54.jpeg",2,"right",1.272000074,2,4,6.510999918,3,1.99000001,121,0,1,NA,0,NA,0
"455","stim/objects/Instruments/electricguitar4.png",311,78,304,0.7,"stim/41.jpeg",4,1,2,1,"Instruments",1,3,"left","left",0.684000015,1,1,1,0,22,78,1,0.7,1,"stim/41.jpeg",4,1,"stim/41.jpeg",3,"right",1.210000038,3,4,7.721999884,3,6.953000069,22,0,0,NA,1,NA,0
"555","stim/objects/Instruments/marimba3.png",312,78,305,0.5,"stim/23.jpeg",2,3,1,1,"Instruments",1,2,"left","left",0.637000084,1,1,1,0,156,78,1,0.5,2,"stim/23.jpeg",2,3,"stim/23.jpeg",2,"right",1.624000072,2,2,4.585999966,2,3.029999971,156,0,0,NA,1,NA,0
"401","stim/objects/HouseObjects/towel4.png",313,78,306,0.1,"stim/62.jpeg",6,2,3,1,"HouseObjects",2,2,"right","left",0.558000088,0,0,1,0,167,78,1,0.1,2,"stim/62.jpeg",6,2,"stim/62.jpeg",2,"right",1.386000156,2,4,3.621000051,1,1.976999998,167,0,0,NA,0,NA,0
"297","stim/objects/HouseObjects/doormat3.png",314,78,307,0.9,"stim/53.jpeg",5,3,3,2,"HouseObjects",2,2,"right","right",0.544000149,1,1,1,0,NA,NA,NA,NA,NA,NA,NA,NA,NA,NA,NA,NA,NA,NA,NA,NA,NA,NA,NA,NA,NA,NA,NA,NA
"366","stim/objects/HouseObjects/glass3.png",315,78,308,0.9,"stim/54.jpeg",5,4,3,2,"HouseObjects",2,1,"right","right",0.645999908,1,1,1,0,NA,NA,NA,NA,NA,NA,NA,NA,NA,NA,NA,NA,NA,NA,NA,NA,NA,NA,NA,NA,NA,NA,NA,NA
"388","stim/objects/HouseObjects/key3.png",316,78,309,0.5,"stim/21.jpeg",2,1,1,1,"HouseObjects",2,4,"right","left",0.707000017,0,0,1,0,36,78,1,0.5,2,"stim/21.jpeg",2,1,"stim/21.jpeg",4,"left",1.559000015,3,2,4.073000193,3,6.475000143,36,1,0,0,0,0,0
"394","stim/objects/HouseObjects/match3.png",317,78,310,0.5,"stim/24.jpeg",2,4,1,1,"HouseObjects",2,3,"right","right",0.707000017,1,1,1,0,133,78,1,0.5,2,"stim/24.jpeg",2,4,"stim/24.jpeg",3,"left",3.213000059,3,4,4.977999926,4,7.65199995,133,1,1,1,0,0,0
"511","stim/objects/Instruments/gong3.png",318,78,311,0.9,"stim/63.jpeg",6,3,3,2,"Instruments",1,4,"left","left",0.505000114,1,1,1,0,NA,NA,NA,NA,NA,NA,NA,NA,NA,NA,NA,NA,NA,NA,NA,NA,NA,NA,NA,NA,NA,NA,NA,NA
"528","stim/objects/Instruments/grandpiano3.png",319,78,312,0.9,"stim/64.jpeg",6,4,3,2,"Instruments",1,1,"left","left",0.476000071,1,1,1,0,NA,NA,NA,NA,NA,NA,NA,NA,NA,NA,NA,NA,NA,NA,NA,NA,NA,NA,NA,NA,NA,NA,NA,NA
"460","stim/objects/Instruments/flute3.png",320,78,313,0.9,"stim/64.jpeg",6,4,3,2,"Instruments",1,4,"left","left",0.430000067,1,1,1,0,NA,NA,NA,NA,NA,NA,NA,NA,NA,NA,NA,NA,NA,NA,NA,NA,NA,NA,NA,NA,NA,NA,NA,NA
"280","stim/objects/HouseObjects/coffee3.png",321,78,314,0.7,"stim/33.jpeg",3,3,2,2,"HouseObjects",2,1,"right","right",0.589999914,1,1,1,0,NA,NA,NA,NA,NA,NA,NA,NA,NA,NA,NA,NA,NA,NA,NA,NA,NA,NA,NA,NA,NA,NA,NA,NA
"452","stim/objects/Instruments/electricguitar3.png",322,78,315,0.7,"stim/43.jpeg",4,3,2,2,"Instruments",1,4,"left","left",0.618999958,1,1,1,0,NA,NA,NA,NA,NA,NA,NA,NA,NA,NA,NA,NA,NA,NA,NA,NA,NA,NA,NA,NA,NA,NA,NA,NA
"385","stim/objects/HouseObjects/iron4.png",323,78,316,0.9,"stim/54.jpeg",5,4,3,1,"HouseObjects",2,2,"right","right",0.444999933,1,1,1,0,127,78,1,0.9,2,"stim/54.jpeg",5,4,"stim/54.jpeg",2,"right",0.922999859,3,2,3.999000072,3,1.613000154,127,0,0,NA,0,NA,0
"382","stim/objects/HouseObjects/handvacuum3.png",324,78,317,0.5,"stim/11.jpeg",1,1,1,1,"HouseObjects",2,4,"right","left",0.53399992,0,0,1,0,27,78,1,0.5,1,"stim/11.jpeg",1,1,"stim/11.jpeg",4,"left",1.075999975,3,1,4.06099987,3,3.024999857,27,1,1,1,0,0,0
"445","stim/objects/Instruments/drums3.png",325,78,318,0.7,"stim/41.jpeg",4,1,2,2,"Instruments",1,3,"left","left",0.676000118,1,1,1,0,NA,NA,NA,NA,NA,NA,NA,NA,NA,NA,NA,NA,NA,NA,NA,NA,NA,NA,NA,NA,NA,NA,NA,NA
"495","stim/objects/Instruments/frenchhorn3.png",326,78,319,0.9,"stim/63.jpeg",6,3,3,2,"Instruments",1,2,"left","left",0.592999935,1,1,1,0,NA,NA,NA,NA,NA,NA,NA,NA,NA,NA,NA,NA,NA,NA,NA,NA,NA,NA,NA,NA,NA,NA,NA,NA
"314","stim/objects/HouseObjects/dustpan3.png",327,78,320,0.9,"stim/53.jpeg",5,3,3,2,"HouseObjects",2,4,"right","right",0.503000021,1,1,1,0,NA,NA,NA,NA,NA,NA,NA,NA,NA,NA,NA,NA,NA,NA,NA,NA,NA,NA,NA,NA,NA,NA,NA,NA
"551","stim/objects/Instruments/laud3.png",328,78,321,0.5,"stim/21.jpeg",2,1,1,1,"Instruments",1,1,"left","left",0.719000101,1,1,1,0,39,78,1,0.5,2,"stim/21.jpeg",2,1,"stim/21.jpeg",1,"left",4.563999891,2,4,4.845999956,3,2.351999998,39,1,0,0,0,0,0
"247","stim/objects/HouseObjects/barbecuelighter3.png",329,78,322,0.5,"stim/12.jpeg",1,2,1,2,"HouseObjects",2,1,"right","left",0.773000002,0,0,1,0,NA,NA,NA,NA,NA,NA,NA,NA,NA,NA,NA,NA,NA,NA,NA,NA,NA,NA,NA,NA,NA,NA,NA,NA
"315","stim/objects/HouseObjects/dustpan3.png",330,78,323,0.9,"stim/52.jpeg",5,2,3,2,"HouseObjects",2,1,"right","right",0.539000034,1,1,1,0,NA,NA,NA,NA,NA,NA,NA,NA,NA,NA,NA,NA,NA,NA,NA,NA,NA,NA,NA,NA,NA,NA,NA,NA
"380","stim/objects/HouseObjects/handbrush3.png",331,78,324,0.5,"stim/14.jpeg",1,4,1,1,"HouseObjects",2,2,"right","right",0.715999842,1,1,1,0,185,78,1,0.5,1,"stim/14.jpeg",1,4,"stim/14.jpeg",2,"right",1.389000177,2,1,2.552000046,4,2.927999973,185,0,0,NA,0,NA,0
"298","stim/objects/HouseObjects/doormat3.png",332,78,325,0.9,"stim/54.jpeg",5,4,3,2,"HouseObjects",2,2,"right","right",0.459000111,1,1,1,0,NA,NA,NA,NA,NA,NA,NA,NA,NA,NA,NA,NA,NA,NA,NA,NA,NA,NA,NA,NA,NA,NA,NA,NA
"414","stim/objects/Instruments/balalaika4.png",333,78,326,0.3,"stim/34.jpeg",3,4,2,1,"Instruments",1,2,"left","right",0.639999866,0,0,1,0,98,78,1,0.3,1,"stim/34.jpeg",3,4,"stim/34.jpeg",2,"left",2.275000095,2,2,3.555999994,3,3.289999962,98,1,0,0,0,0,0
"563","stim/objects/Instruments/oboe3.png",334,78,327,0.3,"stim/32.jpeg",3,2,2,1,"Instruments",1,4,"left","right",0.493000031,0,0,1,0,141,78,1,0.3,1,"stim/32.jpeg",3,2,"stim/32.jpeg",4,"left",4.497000217,3,2,2.404999971,1,3.287000179,141,1,1,1,0,0,0
"316","stim/objects/HouseObjects/dustpan3.png",335,78,328,0.9,"stim/51.jpeg",5,1,3,2,"HouseObjects",2,2,"right","right",0.488000154,1,1,1,0,NA,NA,NA,NA,NA,NA,NA,NA,NA,NA,NA,NA,NA,NA,NA,NA,NA,NA,NA,NA,NA,NA,NA,NA
"329","stim/objects/HouseObjects/flyswatter3.png",336,78,329,0.9,"stim/52.jpeg",5,2,3,2,"HouseObjects",2,1,"right","right",0.523999929,1,1,1,0,NA,NA,NA,NA,NA,NA,NA,NA,NA,NA,NA,NA,NA,NA,NA,NA,NA,NA,NA,NA,NA,NA,NA,NA
"550","stim/objects/Instruments/keyboard4.png",337,78,330,0.1,"stim/52.jpeg",5,2,3,1,"Instruments",1,4,"left","right",0.523000002,0,0,1,0,54,78,1,0.1,1,"stim/52.jpeg",5,2,"stim/52.jpeg",4,"right",4.328999996,2,3,2.745000124,3,5.734999895,54,0,0,NA,0,NA,0
"299","stim/objects/HouseObjects/doormat3.png",338,78,331,0.9,"stim/52.jpeg",5,2,3,2,"HouseObjects",2,1,"right","right",0.487999916,1,1,1,0,NA,NA,NA,NA,NA,NA,NA,NA,NA,NA,NA,NA,NA,NA,NA,NA,NA,NA,NA,NA,NA,NA,NA,NA
"317","stim/objects/HouseObjects/dustpan3.png",339,78,332,0.9,"stim/51.jpeg",5,1,3,2,"HouseObjects",2,2,"right","right",0.406000137,1,1,1,0,NA,NA,NA,NA,NA,NA,NA,NA,NA,NA,NA,NA,NA,NA,NA,NA,NA,NA,NA,NA,NA,NA,NA,NA
"268","stim/objects/HouseObjects/clock3.png",340,78,333,0.5,"stim/22.jpeg",2,2,1,2,"HouseObjects",2,2,"right","left",0.674999952,0,0,1,0,NA,NA,NA,NA,NA,NA,NA,NA,NA,NA,NA,NA,NA,NA,NA,NA,NA,NA,NA,NA,NA,NA,NA,NA
"358","stim/objects/HouseObjects/garbagebin4.png",341,78,334,0.9,"stim/52.jpeg",5,2,3,1,"HouseObjects",2,1,"right","right",0.470999956,1,1,1,0,115,78,1,0.9,2,"stim/52.jpeg",5,2,"stim/52.jpeg",1,"left",1.09100008,4,2,3.519999981,1,1.519999981,115,1,1,1,1,1,0
"523","stim/objects/Instruments/gong4.png",342,78,335,0.1,"stim/54.jpeg",5,4,3,1,"Instruments",1,2,"left","right",0.572000027,0,0,1,0,89,78,1,0.1,1,"stim/54.jpeg",5,4,"stim/54.jpeg",2,"left",0.996999979,4,3,4.75999999,4,2.881000042,89,1,0,0,0,0,0
"430","stim/objects/Instruments/clarinet3.png",343,78,336,0.5,"stim/23.jpeg",2,3,1,2,"Instruments",1,1,"left","left",0.625999928,1,1,1,0,NA,NA,NA,NA,NA,NA,NA,NA,NA,NA,NA,NA,NA,NA,NA,NA,NA,NA,NA,NA,NA,NA,NA,NA
"257","stim/objects/HouseObjects/blender3.png",344,78,337,0.5,"stim/22.jpeg",2,2,1,2,"HouseObjects",2,2,"right","",NA,0,0,1,0,NA,NA,NA,NA,NA,NA,NA,NA,NA,NA,NA,NA,NA,NA,NA,NA,NA,NA,NA,NA,NA,NA,NA,NA
"424","stim/objects/Instruments/cello3.png",345,78,338,0.5,"stim/24.jpeg",2,4,1,2,"Instruments",1,4,"left","right",0.477999926,0,0,1,0,NA,NA,NA,NA,NA,NA,NA,NA,NA,NA,NA,NA,NA,NA,NA,NA,NA,NA,NA,NA,NA,NA,NA,NA
"419","stim/objects/Instruments/bassdrum3.png",346,78,339,0.5,"stim/11.jpeg",1,1,1,2,"Instruments",1,3,"left","right",0.588999987,0,0,1,0,NA,NA,NA,NA,NA,NA,NA,NA,NA,NA,NA,NA,NA,NA,NA,NA,NA,NA,NA,NA,NA,NA,NA,NA
"269","stim/objects/HouseObjects/clock3.png",347,78,340,0.5,"stim/23.jpeg",2,3,1,2,"HouseObjects",2,4,"right","left",0.640000105,0,0,1,0,NA,NA,NA,NA,NA,NA,NA,NA,NA,NA,NA,NA,NA,NA,NA,NA,NA,NA,NA,NA,NA,NA,NA,NA
"328","stim/objects/HouseObjects/flyswatter3.png",348,78,341,0.9,"stim/52.jpeg",5,2,3,2,"HouseObjects",2,2,"right","right",0.557999849,1,1,1,0,NA,NA,NA,NA,NA,NA,NA,NA,NA,NA,NA,NA,NA,NA,NA,NA,NA,NA,NA,NA,NA,NA,NA,NA
"331","stim/objects/HouseObjects/flyswatter3.png",349,78,342,0.9,"stim/53.jpeg",5,3,3,2,"HouseObjects",2,3,"right","right",0.559999943,1,1,1,0,NA,NA,NA,NA,NA,NA,NA,NA,NA,NA,NA,NA,NA,NA,NA,NA,NA,NA,NA,NA,NA,NA,NA,NA
"459","stim/objects/Instruments/flute3.png",350,78,343,0.9,"stim/63.jpeg",6,3,3,2,"Instruments",1,1,"left","left",0.552999973,1,1,1,0,NA,NA,NA,NA,NA,NA,NA,NA,NA,NA,NA,NA,NA,NA,NA,NA,NA,NA,NA,NA,NA,NA,NA,NA
"282","stim/objects/HouseObjects/coffee4.png",351,78,344,0.3,"stim/41.jpeg",4,1,2,1,"HouseObjects",2,3,"right","left",0.657000065,0,0,1,0,135,78,1,0.3,2,"stim/41.jpeg",4,1,"stim/41.jpeg",3,"right",1.438999891,2,2,1.765000105,3,3.864000082,135,0,0,NA,1,NA,0
"398","stim/objects/HouseObjects/pitcher3.png",352,78,345,0.7,"stim/33.jpeg",3,3,2,1,"HouseObjects",2,2,"right","right",0.826999903,1,1,1,0,64,78,1,0.7,2,"stim/33.jpeg",3,3,"stim/33.jpeg",2,"left",0.948999882,4,4,6.549999952,4,2.562999964,64,1,0,0,0,0,0
"386","stim/objects/HouseObjects/ironingboard3.png",353,78,346,0.5,"stim/24.jpeg",2,4,1,1,"HouseObjects",2,1,"right","left",0.723999977,0,0,1,0,176,78,1,0.5,2,"stim/24.jpeg",2,4,"stim/24.jpeg",1,"left",2.610999823,3,3,2.770999908,2,1.979000092,176,1,0,0,0,0,0
"300","stim/objects/HouseObjects/doormat3.png",354,78,347,0.9,"stim/54.jpeg",5,4,3,2,"HouseObjects",2,2,"right","right",0.573999882,1,1,1,0,NA,NA,NA,NA,NA,NA,NA,NA,NA,NA,NA,NA,NA,NA,NA,NA,NA,NA,NA,NA,NA,NA,NA,NA
"497","stim/objects/Instruments/frenchhorn3.png",355,78,348,0.9,"stim/62.jpeg",6,2,3,2,"Instruments",1,2,"left","left",0.527999878,1,1,1,0,NA,NA,NA,NA,NA,NA,NA,NA,NA,NA,NA,NA,NA,NA,NA,NA,NA,NA,NA,NA,NA,NA,NA,NA
"514","stim/objects/Instruments/gong3.png",356,78,349,0.9,"stim/62.jpeg",6,2,3,2,"Instruments",1,4,"left","left",0.561999798,1,1,1,0,NA,NA,NA,NA,NA,NA,NA,NA,NA,NA,NA,NA,NA,NA,NA,NA,NA,NA,NA,NA,NA,NA,NA,NA
"463","stim/objects/Instruments/flute3.png",357,78,350,0.9,"stim/61.jpeg",6,1,3,2,"Instruments",1,1,"left","left",0.512000084,1,1,1,0,NA,NA,NA,NA,NA,NA,NA,NA,NA,NA,NA,NA,NA,NA,NA,NA,NA,NA,NA,NA,NA,NA,NA,NA
"408","stim/objects/Instruments/accordion4.png",358,78,351,0.3,"stim/32.jpeg",3,2,2,1,"Instruments",1,4,"left","right",0.654999971,0,0,1,0,106,78,1,0.3,1,"stim/32.jpeg",3,2,"stim/32.jpeg",4,"right",0.993999958,3,1,2.140000105,3,1.858999968,106,0,0,NA,0,NA,0
"425","stim/objects/Instruments/cello3.png",359,78,352,0.5,"stim/21.jpeg",2,1,1,2,"Instruments",1,4,"left","left",0.722000122,1,1,1,0,NA,NA,NA,NA,NA,NA,NA,NA,NA,NA,NA,NA,NA,NA,NA,NA,NA,NA,NA,NA,NA,NA,NA,NA
"307","stim/objects/HouseObjects/doormat4.png",360,78,353,0.9,"stim/53.jpeg",5,3,3,1,"HouseObjects",2,1,"right","right",0.555999994,1,1,1,0,192,78,1,0.9,2,"stim/53.jpeg",5,3,"stim/53.jpeg",1,"left",3.461999893,4,1,1.861999989,1,2.500999928,192,1,0,0,1,1,0
"410","stim/objects/Instruments/acousticguitar3.png",361,78,354,0.5,"stim/12.jpeg",1,2,1,2,"Instruments",1,2,"left","right",0.628000021,0,0,1,0,NA,NA,NA,NA,NA,NA,NA,NA,NA,NA,NA,NA,NA,NA,NA,NA,NA,NA,NA,NA,NA,NA,NA,NA
"423","stim/objects/Instruments/bassguitar4.png",362,78,355,0.7,"stim/44.jpeg",4,4,2,1,"Instruments",1,1,"left","",NA,0,0,1,0,169,78,1,0.7,1,"stim/44.jpeg",4,4,"stim/44.jpeg",1,"right",0.904000044,2,1,1.950999975,4,1.736999989,169,0,0,NA,0,NA,0
"261","stim/objects/HouseObjects/bottle4.png",363,78,356,0.3,"stim/43.jpeg",4,3,2,1,"HouseObjects",2,3,"right","right",0.562999964,1,1,1,0,62,78,1,0.3,2,"stim/43.jpeg",4,3,"stim/43.jpeg",3,"right",1.245000124,3,2,4.049999952,3,3.279999971,62,0,0,NA,1,NA,0
"253","stim/objects/HouseObjects/bleachbottle3.png",364,78,357,0.5,"stim/14.jpeg",1,4,1,2,"HouseObjects",2,3,"right","left",0.60800004,0,0,1,0,NA,NA,NA,NA,NA,NA,NA,NA,NA,NA,NA,NA,NA,NA,NA,NA,NA,NA,NA,NA,NA,NA,NA,NA
"498","stim/objects/Instruments/frenchhorn3.png",365,78,358,0.9,"stim/64.jpeg",6,4,3,2,"Instruments",1,3,"left","left",0.508000135,1,1,1,0,NA,NA,NA,NA,NA,NA,NA,NA,NA,NA,NA,NA,NA,NA,NA,NA,NA,NA,NA,NA,NA,NA,NA,NA
"368","stim/objects/HouseObjects/glass3.png",366,78,359,0.9,"stim/51.jpeg",5,1,3,2,"HouseObjects",2,1,"right","right",0.440000057,1,1,1,0,NA,NA,NA,NA,NA,NA,NA,NA,NA,NA,NA,NA,NA,NA,NA,NA,NA,NA,NA,NA,NA,NA,NA,NA
"259","stim/objects/HouseObjects/bottle3.png",367,78,360,0.5,"stim/24.jpeg",2,4,1,2,"HouseObjects",2,1,"right","left",0.625999928,0,0,1,0,NA,NA,NA,NA,NA,NA,NA,NA,NA,NA,NA,NA,NA,NA,NA,NA,NA,NA,NA,NA,NA,NA,NA,NA
"412","stim/objects/Instruments/balalaika3.png",368,78,361,0.5,"stim/13.jpeg",1,3,1,2,"Instruments",1,1,"left","right",0.598999977,0,0,1,0,NA,NA,NA,NA,NA,NA,NA,NA,NA,NA,NA,NA,NA,NA,NA,NA,NA,NA,NA,NA,NA,NA,NA,NA
"302","stim/objects/HouseObjects/doormat3.png",369,78,362,0.9,"stim/52.jpeg",5,2,3,2,"HouseObjects",2,3,"right","right",0.496000051,1,1,1,0,NA,NA,NA,NA,NA,NA,NA,NA,NA,NA,NA,NA,NA,NA,NA,NA,NA,NA,NA,NA,NA,NA,NA,NA
"531","stim/objects/Instruments/grandpiano3.png",370,78,363,0.9,"stim/61.jpeg",6,1,3,2,"Instruments",1,4,"left","left",0.574999809,1,1,1,0,NA,NA,NA,NA,NA,NA,NA,NA,NA,NA,NA,NA,NA,NA,NA,NA,NA,NA,NA,NA,NA,NA,NA,NA
"462","stim/objects/Instruments/flute3.png",371,78,364,0.9,"stim/64.jpeg",6,4,3,2,"Instruments",1,1,"left","left",0.493999958,1,1,1,0,NA,NA,NA,NA,NA,NA,NA,NA,NA,NA,NA,NA,NA,NA,NA,NA,NA,NA,NA,NA,NA,NA,NA,NA
"568","stim/objects/Instruments/vuvuzela4.png",372,78,365,0.9,"stim/61.jpeg",6,1,3,1,"Instruments",1,4,"left","left",0.529000044,1,1,1,0,120,78,1,0.9,1,"stim/61.jpeg",6,1,"stim/61.jpeg",4,"left",2.148000002,3,2,2.584000111,2,1.576999903,120,1,0,0,0,0,0
"290","stim/objects/HouseObjects/dishsoap4.png",373,78,366,0.3,"stim/43.jpeg",4,3,2,1,"HouseObjects",2,1,"right","right",0.521000147,1,1,1,0,92,78,1,0.3,2,"stim/43.jpeg",4,3,"stim/43.jpeg",1,"right",0.996000051,4,1,3.990999937,4,1.773999929,92,0,0,NA,0,NA,0
"320","stim/objects/HouseObjects/dustpan3.png",374,78,367,0.9,"stim/54.jpeg",5,4,3,2,"HouseObjects",2,3,"right","right",0.556999922,1,1,1,0,NA,NA,NA,NA,NA,NA,NA,NA,NA,NA,NA,NA,NA,NA,NA,NA,NA,NA,NA,NA,NA,NA,NA,NA
"478","stim/objects/Instruments/flutetrans3.png",375,78,368,0.9,"stim/62.jpeg",6,2,3,2,"Instruments",1,3,"left","left",0.628000021,1,1,1,0,NA,NA,NA,NA,NA,NA,NA,NA,NA,NA,NA,NA,NA,NA,NA,NA,NA,NA,NA,NA,NA,NA,NA,NA
"464","stim/objects/Instruments/flute3.png",376,78,369,0.9,"stim/64.jpeg",6,4,3,2,"Instruments",1,4,"left","left",0.479000092,1,1,1,0,NA,NA,NA,NA,NA,NA,NA,NA,NA,NA,NA,NA,NA,NA,NA,NA,NA,NA,NA,NA,NA,NA,NA,NA
"343","stim/objects/HouseObjects/garbagebin3.png",377,78,370,0.9,"stim/52.jpeg",5,2,3,2,"HouseObjects",2,1,"right","right",0.438000202,1,1,1,0,NA,NA,NA,NA,NA,NA,NA,NA,NA,NA,NA,NA,NA,NA,NA,NA,NA,NA,NA,NA,NA,NA,NA,NA
"265","stim/objects/HouseObjects/bucket3.png",378,78,371,0.5,"stim/21.jpeg",2,1,1,2,"HouseObjects",2,4,"right","right",0.720000029,1,1,1,0,NA,NA,NA,NA,NA,NA,NA,NA,NA,NA,NA,NA,NA,NA,NA,NA,NA,NA,NA,NA,NA,NA,NA,NA
"383","stim/objects/HouseObjects/handvacuum4.png",379,78,372,0.9,"stim/53.jpeg",5,3,3,1,"HouseObjects",2,3,"right","right",0.523000002,1,1,1,0,164,78,1,0.9,2,"stim/53.jpeg",5,3,"stim/53.jpeg",3,"left",2.760999918,2,1,4.870999813,3,1.535000086,164,1,0,0,1,1,0
"303","stim/objects/HouseObjects/doormat3.png",380,78,373,0.9,"stim/54.jpeg",5,4,3,2,"HouseObjects",2,3,"right","right",0.486000061,1,1,1,0,NA,NA,NA,NA,NA,NA,NA,NA,NA,NA,NA,NA,NA,NA,NA,NA,NA,NA,NA,NA,NA,NA,NA,NA
"250","stim/objects/HouseObjects/basket3.png",381,78,374,0.5,"stim/14.jpeg",1,4,1,2,"HouseObjects",2,1,"right","left",0.676999807,0,0,1,0,NA,NA,NA,NA,NA,NA,NA,NA,NA,NA,NA,NA,NA,NA,NA,NA,NA,NA,NA,NA,NA,NA,NA,NA
"516","stim/objects/Instruments/gong3.png",382,78,375,0.9,"stim/63.jpeg",6,3,3,2,"Instruments",1,4,"left","left",0.593999863,1,1,1,0,NA,NA,NA,NA,NA,NA,NA,NA,NA,NA,NA,NA,NA,NA,NA,NA,NA,NA,NA,NA,NA,NA,NA,NA
"429","stim/objects/Instruments/chime4.png",383,78,376,0.7,"stim/42.jpeg",4,2,2,1,"Instruments",1,4,"left","left",0.832000017,1,1,1,0,84,78,1,0.7,1,"stim/42.jpeg",4,2,"stim/42.jpeg",4,"left",0.963999987,4,1,4.57799983,4,3.708999872,84,1,0,0,1,1,0
"391","stim/objects/HouseObjects/knife4.png",384,78,377,0.1,"stim/61.jpeg",6,1,3,1,"HouseObjects",2,3,"right","left",0.525999784,0,0,1,0,72,78,1,0.1,2,"stim/61.jpeg",6,1,"stim/61.jpeg",3,"left",1.678999901,4,3,3.06099987,3,8.762000084,72,1,0,0,1,1,0
"325","stim/objects/HouseObjects/flyswatter3.png",385,78,378,0.9,"stim/53.jpeg",5,3,3,2,"HouseObjects",2,2,"right","right",0.771000147,1,1,1,0,NA,NA,NA,NA,NA,NA,NA,NA,NA,NA,NA,NA,NA,NA,NA,NA,NA,NA,NA,NA,NA,NA,NA,NA
"266","stim/objects/HouseObjects/bucket3.png",386,78,379,0.5,"stim/22.jpeg",2,2,1,2,"HouseObjects",2,3,"right","left",0.855999947,0,0,1,0,NA,NA,NA,NA,NA,NA,NA,NA,NA,NA,NA,NA,NA,NA,NA,NA,NA,NA,NA,NA,NA,NA,NA,NA
"321","stim/objects/HouseObjects/dustpan3.png",387,78,380,0.9,"stim/51.jpeg",5,1,3,2,"HouseObjects",2,4,"right","right",0.478000164,1,1,1,0,NA,NA,NA,NA,NA,NA,NA,NA,NA,NA,NA,NA,NA,NA,NA,NA,NA,NA,NA,NA,NA,NA,NA,NA
"417","stim/objects/Instruments/banjo4.png",388,78,381,0.3,"stim/31.jpeg",3,1,2,1,"Instruments",1,3,"left","left",0.678999901,1,1,1,0,148,78,1,0.3,1,"stim/31.jpeg",3,1,"stim/31.jpeg",3,"right",4.473999977,2,2,3.523000002,3,2.082000017,148,0,0,NA,1,NA,0
"334","stim/objects/HouseObjects/flyswatter3.png",389,78,382,0.9,"stim/52.jpeg",5,2,3,2,"HouseObjects",2,1,"right","right",0.595000029,1,1,1,0,NA,NA,NA,NA,NA,NA,NA,NA,NA,NA,NA,NA,NA,NA,NA,NA,NA,NA,NA,NA,NA,NA,NA,NA
"513","stim/objects/Instruments/gong3.png",390,78,383,0.9,"stim/63.jpeg",6,3,3,2,"Instruments",1,3,"left","left",0.52699995,1,1,1,0,NA,NA,NA,NA,NA,NA,NA,NA,NA,NA,NA,NA,NA,NA,NA,NA,NA,NA,NA,NA,NA,NA,NA,NA
"433","stim/objects/Instruments/cornet3.png",391,78,384,0.5,"stim/23.jpeg",2,3,1,2,"Instruments",1,3,"left","left",0.775999784,1,1,1,0,NA,NA,NA,NA,NA,NA,NA,NA,NA,NA,NA,NA,NA,NA,NA,NA,NA,NA,NA,NA,NA,NA,NA,NA
"254","stim/objects/HouseObjects/bleachbottle3.png",392,78,385,0.5,"stim/11.jpeg",1,1,1,2,"HouseObjects",2,1,"right","left",0.565000057,0,0,1,0,NA,NA,NA,NA,NA,NA,NA,NA,NA,NA,NA,NA,NA,NA,NA,NA,NA,NA,NA,NA,NA,NA,NA,NA
"517","stim/objects/Instruments/gong3.png",393,78,386,0.9,"stim/63.jpeg",6,3,3,2,"Instruments",1,4,"left","left",0.539999962,1,1,1,0,NA,NA,NA,NA,NA,NA,NA,NA,NA,NA,NA,NA,NA,NA,NA,NA,NA,NA,NA,NA,NA,NA,NA,NA
"481","stim/objects/Instruments/flutetrans3.png",394,78,387,0.9,"stim/64.jpeg",6,4,3,2,"Instruments",1,3,"left","left",0.506999969,1,1,1,0,NA,NA,NA,NA,NA,NA,NA,NA,NA,NA,NA,NA,NA,NA,NA,NA,NA,NA,NA,NA,NA,NA,NA,NA
"264","stim/objects/HouseObjects/broom4.png",395,78,388,0.3,"stim/44.jpeg",4,4,2,1,"HouseObjects",2,2,"right","right",0.678999901,1,1,1,0,73,78,1,0.3,2,"stim/44.jpeg",4,4,"stim/44.jpeg",2,"left",1.010999918,4,2,6.285000086,4,3.571999788,73,1,0,0,0,0,0
"370","stim/objects/HouseObjects/glass3.png",396,78,389,0.9,"stim/54.jpeg",5,4,3,2,"HouseObjects",2,2,"right","right",0.523999929,1,1,1,0,NA,NA,NA,NA,NA,NA,NA,NA,NA,NA,NA,NA,NA,NA,NA,NA,NA,NA,NA,NA,NA,NA,NA,NA
"371","stim/objects/HouseObjects/glass3.png",397,78,390,0.9,"stim/52.jpeg",5,2,3,2,"HouseObjects",2,1,"right","left",0.524000168,0,0,1,0,NA,NA,NA,NA,NA,NA,NA,NA,NA,NA,NA,NA,NA,NA,NA,NA,NA,NA,NA,NA,NA,NA,NA,NA
"501","stim/objects/Instruments/frenchhorn3.png",398,78,391,0.9,"stim/61.jpeg",6,1,3,2,"Instruments",1,1,"left","left",0.513000011,1,1,1,0,NA,NA,NA,NA,NA,NA,NA,NA,NA,NA,NA,NA,NA,NA,NA,NA,NA,NA,NA,NA,NA,NA,NA,NA
"532","stim/objects/Instruments/grandpiano3.png",399,78,392,0.9,"stim/62.jpeg",6,2,3,2,"Instruments",1,2,"left","left",0.575999975,1,1,1,0,NA,NA,NA,NA,NA,NA,NA,NA,NA,NA,NA,NA,NA,NA,NA,NA,NA,NA,NA,NA,NA,NA,NA,NA
"437","stim/objects/Instruments/cymbal3.png",400,78,393,0.7,"stim/43.jpeg",4,3,2,2,"Instruments",1,3,"left","right",0.654000044,0,0,1,0,NA,NA,NA,NA,NA,NA,NA,NA,NA,NA,NA,NA,NA,NA,NA,NA,NA,NA,NA,NA,NA,NA,NA,NA
"467","stim/objects/Instruments/flute3.png",401,78,394,0.9,"stim/61.jpeg",6,1,3,2,"Instruments",1,1,"left","left",0.505999804,1,1,1,0,NA,NA,NA,NA,NA,NA,NA,NA,NA,NA,NA,NA,NA,NA,NA,NA,NA,NA,NA,NA,NA,NA,NA,NA
"301","stim/objects/HouseObjects/doormat3.png",402,78,395,0.9,"stim/53.jpeg",5,3,3,2,"HouseObjects",2,3,"right","right",0.559999943,1,1,1,0,NA,NA,NA,NA,NA,NA,NA,NA,NA,NA,NA,NA,NA,NA,NA,NA,NA,NA,NA,NA,NA,NA,NA,NA
"415","stim/objects/Instruments/banjo3.png",403,78,396,0.5,"stim/14.jpeg",1,4,1,2,"Instruments",1,4,"left","left",0.574999809,1,1,1,0,NA,NA,NA,NA,NA,NA,NA,NA,NA,NA,NA,NA,NA,NA,NA,NA,NA,NA,NA,NA,NA,NA,NA,NA
"518","stim/objects/Instruments/gong3.png",404,78,397,0.9,"stim/62.jpeg",6,2,3,2,"Instruments",1,2,"left","left",0.528999805,1,1,1,0,NA,NA,NA,NA,NA,NA,NA,NA,NA,NA,NA,NA,NA,NA,NA,NA,NA,NA,NA,NA,NA,NA,NA,NA
"428","stim/objects/Instruments/chime3.png",405,78,398,0.5,"stim/21.jpeg",2,1,1,2,"Instruments",1,2,"left","right",0.654999971,0,0,1,0,NA,NA,NA,NA,NA,NA,NA,NA,NA,NA,NA,NA,NA,NA,NA,NA,NA,NA,NA,NA,NA,NA,NA,NA
"243","stim/objects/HouseObjects/ashtray4.png",406,78,399,0.7,"stim/33.jpeg",3,3,2,1,"HouseObjects",2,1,"right","right",0.631000042,1,1,1,0,25,78,1,0.7,2,"stim/33.jpeg",3,3,"stim/33.jpeg",1,"left",1.025000095,4,1,7.963999987,1,1.16899991,25,1,0,0,1,1,0
"372","stim/objects/HouseObjects/glass3.png",407,78,400,0.9,"stim/52.jpeg",5,2,3,2,"HouseObjects",2,2,"right","right",0.516000032,1,1,1,0,NA,NA,NA,NA,NA,NA,NA,NA,NA,NA,NA,NA,NA,NA,NA,NA,NA,NA,NA,NA,NA,NA,NA,NA
"502","stim/objects/Instruments/frenchhorn3.png",408,78,401,0.9,"stim/61.jpeg",6,1,3,2,"Instruments",1,1,"left","left",0.521000147,1,1,1,0,NA,NA,NA,NA,NA,NA,NA,NA,NA,NA,NA,NA,NA,NA,NA,NA,NA,NA,NA,NA,NA,NA,NA,NA
"525","stim/objects/Instruments/grandpiano3.png",409,78,402,0.9,"stim/62.jpeg",6,2,3,2,"Instruments",1,4,"left","left",0.565999985,1,1,1,0,NA,NA,NA,NA,NA,NA,NA,NA,NA,NA,NA,NA,NA,NA,NA,NA,NA,NA,NA,NA,NA,NA,NA,NA
"393","stim/objects/HouseObjects/lintroller4.png",410,78,403,0.1,"stim/62.jpeg",6,2,3,1,"HouseObjects",2,4,"right","left",0.493000031,0,0,1,0,79,78,1,0.1,2,"stim/62.jpeg",6,2,"stim/62.jpeg",4,"left",1.43599987,3,2,9.786000013,2,1.864000082,79,1,1,1,0,0,0
"369","stim/objects/HouseObjects/glass3.png",411,78,404,0.9,"stim/53.jpeg",5,3,3,2,"HouseObjects",2,2,"right","right",0.520999908,1,1,1,0,NA,NA,NA,NA,NA,NA,NA,NA,NA,NA,NA,NA,NA,NA,NA,NA,NA,NA,NA,NA,NA,NA,NA,NA
"267","stim/objects/HouseObjects/bucket4.png",412,78,405,0.3,"stim/41.jpeg",4,1,2,1,"HouseObjects",2,1,"right","left",0.712000132,0,0,1,0,101,78,1,0.3,2,"stim/41.jpeg",4,1,"stim/41.jpeg",1,"left",1.50999999,4,1,0.946000099,2,6.368000031,101,1,1,1,0,0,0
"344","stim/objects/HouseObjects/garbagebin3.png",413,78,406,0.9,"stim/54.jpeg",5,4,3,2,"HouseObjects",2,3,"right","",NA,0,0,1,0,NA,NA,NA,NA,NA,NA,NA,NA,NA,NA,NA,NA,NA,NA,NA,NA,NA,NA,NA,NA,NA,NA,NA,NA
"503","stim/objects/Instruments/frenchhorn3.png",414,78,407,0.9,"stim/63.jpeg",6,3,3,2,"Instruments",1,4,"left","left",0.486999989,1,1,1,0,NA,NA,NA,NA,NA,NA,NA,NA,NA,NA,NA,NA,NA,NA,NA,NA,NA,NA,NA,NA,NA,NA,NA,NA
"554","stim/objects/Instruments/maraca4.png",415,78,408,0.9,"stim/62.jpeg",6,2,3,1,"Instruments",1,4,"left","left",0.504999876,1,1,1,0,136,78,1,0.9,1,"stim/62.jpeg",6,2,"stim/62.jpeg",4,"left",1.743999958,3,3,4.138000011,3,2.561000109,136,1,0,0,0,0,0
"494","stim/objects/Instruments/frenchhorn3.png",416,78,409,0.9,"stim/63.jpeg",6,3,3,2,"Instruments",1,3,"left","left",0.470000029,1,1,1,0,NA,NA,NA,NA,NA,NA,NA,NA,NA,NA,NA,NA,NA,NA,NA,NA,NA,NA,NA,NA,NA,NA,NA,NA
"249","stim/objects/HouseObjects/barbecuelighter4.png",417,78,410,0.7,"stim/31.jpeg",3,1,2,1,"HouseObjects",2,1,"right","right",0.490999937,1,1,1,0,56,78,1,0.7,2,"stim/31.jpeg",3,1,"stim/31.jpeg",1,"left",1.440999985,4,2,5.003000021,1,5.174999952,56,1,0,0,1,1,0
"285","stim/objects/HouseObjects/cushion3.png",418,78,411,0.7,"stim/33.jpeg",3,3,2,2,"HouseObjects",2,1,"right","right",0.484999895,1,1,1,0,NA,NA,NA,NA,NA,NA,NA,NA,NA,NA,NA,NA,NA,NA,NA,NA,NA,NA,NA,NA,NA,NA,NA,NA
"535","stim/objects/Instruments/grandpiano3.png",419,78,412,0.9,"stim/62.jpeg",6,2,3,2,"Instruments",1,2,"left","left",0.474999905,1,1,1,0,NA,NA,NA,NA,NA,NA,NA,NA,NA,NA,NA,NA,NA,NA,NA,NA,NA,NA,NA,NA,NA,NA,NA,NA
"482","stim/objects/Instruments/flutetrans3.png",420,78,413,0.9,"stim/61.jpeg",6,1,3,2,"Instruments",1,3,"left","left",0.470000029,1,1,1,0,NA,NA,NA,NA,NA,NA,NA,NA,NA,NA,NA,NA,NA,NA,NA,NA,NA,NA,NA,NA,NA,NA,NA,NA
"509","stim/objects/Instruments/gong3.png",421,78,414,0.9,"stim/61.jpeg",6,1,3,2,"Instruments",1,1,"left","left",0.434000015,1,1,1,0,NA,NA,NA,NA,NA,NA,NA,NA,NA,NA,NA,NA,NA,NA,NA,NA,NA,NA,NA,NA,NA,NA,NA,NA
"543","stim/objects/Instruments/harmonica3.png",422,78,415,0.5,"stim/14.jpeg",1,4,1,1,"Instruments",1,3,"left","right",0.552000046,0,0,1,0,110,78,1,0.5,1,"stim/14.jpeg",1,4,"stim/14.jpeg",3,"left",0.921999931,4,3,3.213999987,3,2.736999989,110,1,0,0,1,1,0
"416","stim/objects/Instruments/banjo3.png",423,78,416,0.5,"stim/11.jpeg",1,1,1,2,"Instruments",1,2,"left","left",0.537999868,1,1,1,0,NA,NA,NA,NA,NA,NA,NA,NA,NA,NA,NA,NA,NA,NA,NA,NA,NA,NA,NA,NA,NA,NA,NA,NA
"378","stim/objects/HouseObjects/hairdryer3.png",424,78,417,0.5,"stim/13.jpeg",1,3,1,1,"HouseObjects",2,1,"right","left",0.604000092,0,0,1,0,160,78,1,0.5,1,"stim/13.jpeg",1,3,"stim/13.jpeg",1,"right",0.779999971,4,1,4.467000008,2,1.947999954,160,0,0,NA,0,NA,0
"540","stim/objects/Instruments/grandpiano4.png",425,78,418,0.1,"stim/51.jpeg",5,1,3,1,"Instruments",1,4,"left","right",0.521000147,0,0,1,0,128,78,1,0.1,1,"stim/51.jpeg",5,1,"stim/51.jpeg",4,"left",0.987999916,3,1,2.678999901,3,2.875,128,1,1,1,0,0,0
"296","stim/objects/HouseObjects/doormat3.png",426,78,419,0.9,"stim/54.jpeg",5,4,3,2,"HouseObjects",2,4,"right","right",0.503999949,1,1,1,0,NA,NA,NA,NA,NA,NA,NA,NA,NA,NA,NA,NA,NA,NA,NA,NA,NA,NA,NA,NA,NA,NA,NA,NA
"248","stim/objects/HouseObjects/barbecuelighter3.png",427,78,420,0.5,"stim/13.jpeg",1,3,1,2,"HouseObjects",2,3,"right","left",0.592999935,0,0,1,0,NA,NA,NA,NA,NA,NA,NA,NA,NA,NA,NA,NA,NA,NA,NA,NA,NA,NA,NA,NA,NA,NA,NA,NA
"278","stim/objects/HouseObjects/clothespin4.png",428,78,421,0.3,"stim/44.jpeg",4,4,2,1,"HouseObjects",2,4,"right","left",0.588000059,0,0,1,0,179,78,1,0.3,2,"stim/44.jpeg",4,4,"stim/44.jpeg",4,"right",3.917000055,2,1,5.532000065,1,1.633000135,179,0,0,NA,0,NA,0
"542","stim/objects/Instruments/guitarcase4.png",429,78,422,0.1,"stim/52.jpeg",5,2,3,1,"Instruments",1,2,"left","right",0.487999916,0,0,1,0,74,78,1,0.1,1,"stim/52.jpeg",5,2,"stim/52.jpeg",2,"right",1.295000076,2,4,5.763000011,2,3.014999866,74,0,0,NA,1,NA,0
"377","stim/objects/HouseObjects/glassmop4.png",430,78,423,0.9,"stim/54.jpeg",5,4,3,1,"HouseObjects",2,3,"right","right",0.460000038,1,1,1,0,34,78,1,0.9,2,"stim/54.jpeg",5,4,"stim/54.jpeg",3,"left",1.062000036,4,1,3.799000025,3,2.446000099,34,1,0,0,1,1,0
"403","stim/objects/HouseObjects/vacuumcleaner4.png",431,78,424,0.1,"stim/63.jpeg",6,3,3,1,"HouseObjects",2,4,"right","left",0.506999969,0,0,1,0,33,78,1,0.1,2,"stim/63.jpeg",6,3,"stim/63.jpeg",4,"right",2.088999987,2,2,4.236000061,4,5.115999937,33,0,0,NA,1,NA,0
"348","stim/objects/HouseObjects/garbagebin3.png",432,78,425,0.9,"stim/51.jpeg",5,1,3,2,"HouseObjects",2,4,"right","right",0.425000191,1,1,1,0,NA,NA,NA,NA,NA,NA,NA,NA,NA,NA,NA,NA,NA,NA,NA,NA,NA,NA,NA,NA,NA,NA,NA,NA
"365","stim/objects/HouseObjects/glass3.png",433,78,426,0.9,"stim/52.jpeg",5,2,3,2,"HouseObjects",2,2,"right","right",0.489000082,1,1,1,0,NA,NA,NA,NA,NA,NA,NA,NA,NA,NA,NA,NA,NA,NA,NA,NA,NA,NA,NA,NA,NA,NA,NA,NA
"506","stim/objects/Instruments/frenchhorn4.png",434,78,427,0.1,"stim/53.jpeg",5,3,3,1,"Instruments",1,4,"left","left",0.727999926,1,1,1,0,11,78,1,0.1,1,"stim/53.jpeg",5,3,"stim/53.jpeg",4,"left",1.092999935,4,2,6.282999992,3,2.960000038,11,1,0,0,0,0,0
"451","stim/objects/Instruments/electricdrumset4.png",435,78,428,0.7,"stim/44.jpeg",4,4,2,1,"Instruments",1,3,"left","left",0.707999945,1,1,1,0,20,78,1,0.7,1,"stim/44.jpeg",4,4,"stim/44.jpeg",3,"left",1.006999969,4,2,3.786000013,3,8.240999937,20,1,0,0,1,1,0
"355","stim/objects/HouseObjects/garbagebin3.png",436,78,429,0.9,"stim/53.jpeg",5,3,3,2,"HouseObjects",2,4,"right","right",0.45299983,1,1,1,0,NA,NA,NA,NA,NA,NA,NA,NA,NA,NA,NA,NA,NA,NA,NA,NA,NA,NA,NA,NA,NA,NA,NA,NA
"477","stim/objects/Instruments/flutetrans3.png",437,78,430,0.9,"stim/61.jpeg",6,1,3,2,"Instruments",1,3,"left","left",0.460000038,1,1,1,0,NA,NA,NA,NA,NA,NA,NA,NA,NA,NA,NA,NA,NA,NA,NA,NA,NA,NA,NA,NA,NA,NA,NA,NA
"409","stim/objects/Instruments/acousticguitar3.png",438,78,431,0.5,"stim/13.jpeg",1,3,1,2,"Instruments",1,3,"left","right",0.654000044,0,0,1,0,NA,NA,NA,NA,NA,NA,NA,NA,NA,NA,NA,NA,NA,NA,NA,NA,NA,NA,NA,NA,NA,NA,NA,NA
"304","stim/objects/HouseObjects/doormat3.png",439,78,432,0.9,"stim/52.jpeg",5,2,3,2,"HouseObjects",2,2,"right","right",0.521000147,1,1,1,0,NA,NA,NA,NA,NA,NA,NA,NA,NA,NA,NA,NA,NA,NA,NA,NA,NA,NA,NA,NA,NA,NA,NA,NA
"547","stim/objects/Instruments/hihat3.png",440,78,433,0.5,"stim/12.jpeg",1,2,1,1,"Instruments",1,3,"left","left",0.622999907,1,1,1,0,100,78,1,0.5,1,"stim/12.jpeg",1,2,"stim/12.jpeg",3,"left",1.352999926,4,4,2.84100008,4,5.098999977,100,1,0,0,0,0,0
"537","stim/objects/Instruments/grandpiano3.png",441,78,434,0.9,"stim/64.jpeg",6,4,3,2,"Instruments",1,3,"left","left",0.507999897,1,1,1,0,NA,NA,NA,NA,NA,NA,NA,NA,NA,NA,NA,NA,NA,NA,NA,NA,NA,NA,NA,NA,NA,NA,NA,NA
"352","stim/objects/HouseObjects/garbagebin3.png",442,78,435,0.9,"stim/51.jpeg",5,1,3,2,"HouseObjects",2,1,"right","right",0.43200016,1,1,1,0,NA,NA,NA,NA,NA,NA,NA,NA,NA,NA,NA,NA,NA,NA,NA,NA,NA,NA,NA,NA,NA,NA,NA,NA
"548","stim/objects/Instruments/hihat4.png",443,78,436,0.1,"stim/51.jpeg",5,1,3,1,"Instruments",1,2,"left","right",0.434999943,0,0,1,0,77,78,1,0.1,1,"stim/51.jpeg",5,1,"stim/51.jpeg",2,"left",1.41899991,3,3,3.610000134,4,2.848999977,77,1,0,0,0,0,0
"461","stim/objects/Instruments/flute3.png",444,78,437,0.9,"stim/62.jpeg",6,2,3,2,"Instruments",1,3,"left","left",0.489000082,1,1,1,0,NA,NA,NA,NA,NA,NA,NA,NA,NA,NA,NA,NA,NA,NA,NA,NA,NA,NA,NA,NA,NA,NA,NA,NA
"529","stim/objects/Instruments/grandpiano3.png",445,78,438,0.9,"stim/63.jpeg",6,3,3,2,"Instruments",1,3,"left","left",0.471999884,1,1,1,0,NA,NA,NA,NA,NA,NA,NA,NA,NA,NA,NA,NA,NA,NA,NA,NA,NA,NA,NA,NA,NA,NA,NA,NA
"533","stim/objects/Instruments/grandpiano3.png",446,78,439,0.9,"stim/61.jpeg",6,1,3,2,"Instruments",1,1,"left","left",0.639999866,1,1,1,0,NA,NA,NA,NA,NA,NA,NA,NA,NA,NA,NA,NA,NA,NA,NA,NA,NA,NA,NA,NA,NA,NA,NA,NA
"356","stim/objects/HouseObjects/garbagebin3.png",447,78,440,0.9,"stim/54.jpeg",5,4,3,2,"HouseObjects",2,3,"right","right",0.659000158,1,1,1,0,NA,NA,NA,NA,NA,NA,NA,NA,NA,NA,NA,NA,NA,NA,NA,NA,NA,NA,NA,NA,NA,NA,NA,NA
"337","stim/objects/HouseObjects/flyswatter3.png",448,78,441,0.9,"stim/52.jpeg",5,2,3,2,"HouseObjects",2,1,"right","right",0.580000162,1,1,1,0,NA,NA,NA,NA,NA,NA,NA,NA,NA,NA,NA,NA,NA,NA,NA,NA,NA,NA,NA,NA,NA,NA,NA,NA
"512","stim/objects/Instruments/gong3.png",449,78,442,0.9,"stim/64.jpeg",6,4,3,2,"Instruments",1,2,"left","left",0.558000088,1,1,1,0,NA,NA,NA,NA,NA,NA,NA,NA,NA,NA,NA,NA,NA,NA,NA,NA,NA,NA,NA,NA,NA,NA,NA,NA
"284","stim/objects/HouseObjects/cushion3.png",450,78,443,0.7,"stim/34.jpeg",3,4,2,2,"HouseObjects",2,1,"right","right",0.710999966,1,1,1,0,NA,NA,NA,NA,NA,NA,NA,NA,NA,NA,NA,NA,NA,NA,NA,NA,NA,NA,NA,NA,NA,NA,NA,NA
"534","stim/objects/Instruments/grandpiano3.png",451,78,444,0.9,"stim/62.jpeg",6,2,3,2,"Instruments",1,3,"left","left",0.588999987,1,1,1,0,NA,NA,NA,NA,NA,NA,NA,NA,NA,NA,NA,NA,NA,NA,NA,NA,NA,NA,NA,NA,NA,NA,NA,NA
"448","stim/objects/Instruments/electricdrumset3.png",452,78,445,0.7,"stim/44.jpeg",4,4,2,2,"Instruments",1,1,"left","left",0.691999912,1,1,1,0,NA,NA,NA,NA,NA,NA,NA,NA,NA,NA,NA,NA,NA,NA,NA,NA,NA,NA,NA,NA,NA,NA,NA,NA
"332","stim/objects/HouseObjects/flyswatter3.png",453,78,446,0.9,"stim/54.jpeg",5,4,3,2,"HouseObjects",2,3,"right","right",0.644999981,1,1,1,0,NA,NA,NA,NA,NA,NA,NA,NA,NA,NA,NA,NA,NA,NA,NA,NA,NA,NA,NA,NA,NA,NA,NA,NA
"426","stim/objects/Instruments/cello4.png",454,78,447,0.7,"stim/41.jpeg",4,1,2,1,"Instruments",1,1,"left","left",0.705000162,1,1,1,0,58,78,1,0.7,1,"stim/41.jpeg",4,1,"stim/41.jpeg",1,"right",1.664000034,3,1,6.306999922,3,5.450000048,58,0,1,NA,0,NA,0
"559","stim/objects/Instruments/musicsheet3.png",455,78,448,0.5,"stim/21.jpeg",2,1,1,1,"Instruments",1,1,"left","right",0.694000006,0,0,1,0,2,78,1,0.5,2,"stim/21.jpeg",2,1,"stim/21.jpeg",1,"left",2.161999941,4,4,3.568000078,1,4.453999996,2,1,0,0,1,1,0
"397","stim/objects/HouseObjects/pan4.png",456,78,449,0.1,"stim/64.jpeg",6,4,3,1,"HouseObjects",2,2,"right","left",0.473999977,0,0,1,0,152,78,1,0.1,2,"stim/64.jpeg",6,4,"stim/64.jpeg",2,"right",0.940999985,3,2,3.079999924,4,2.528000116,152,0,0,NA,0,NA,0
"381","stim/objects/HouseObjects/handbrush4.png",457,78,450,0.9,"stim/52.jpeg",5,2,3,1,"HouseObjects",2,1,"right","right",0.520999908,1,1,1,0,113,78,1,0.9,2,"stim/52.jpeg",5,2,"stim/52.jpeg",1,"right",1.657999992,2,1,1.786000013,3,4.45299983,113,0,0,NA,0,NA,0
"330","stim/objects/HouseObjects/flyswatter3.png",458,78,451,0.9,"stim/53.jpeg",5,3,3,2,"HouseObjects",2,3,"right","right",0.529999971,1,1,1,0,NA,NA,NA,NA,NA,NA,NA,NA,NA,NA,NA,NA,NA,NA,NA,NA,NA,NA,NA,NA,NA,NA,NA,NA
"413","stim/objects/Instruments/balalaika3.png",459,78,452,0.5,"stim/14.jpeg",1,4,1,2,"Instruments",1,1,"left","left",0.656000137,1,1,1,0,NA,NA,NA,NA,NA,NA,NA,NA,NA,NA,NA,NA,NA,NA,NA,NA,NA,NA,NA,NA,NA,NA,NA,NA
"420","stim/objects/Instruments/bassdrum4.png",460,78,453,0.3,"stim/32.jpeg",3,2,2,1,"Instruments",1,3,"left","right",0.552999973,0,0,1,0,38,78,1,0.3,1,"stim/32.jpeg",3,2,"stim/32.jpeg",3,"left",0.789999962,4,1,5.020999908,3,2.744999886,38,1,0,0,1,1,0
"515","stim/objects/Instruments/gong3.png",461,78,454,0.9,"stim/64.jpeg",6,4,3,2,"Instruments",1,1,"left","left",0.534000158,1,1,1,0,NA,NA,NA,NA,NA,NA,NA,NA,NA,NA,NA,NA,NA,NA,NA,NA,NA,NA,NA,NA,NA,NA,NA,NA
"347","stim/objects/HouseObjects/garbagebin3.png",462,78,455,0.9,"stim/52.jpeg",5,2,3,2,"HouseObjects",2,3,"right","right",0.505999804,1,1,1,0,NA,NA,NA,NA,NA,NA,NA,NA,NA,NA,NA,NA,NA,NA,NA,NA,NA,NA,NA,NA,NA,NA,NA,NA
"350","stim/objects/HouseObjects/garbagebin3.png",463,78,456,0.9,"stim/51.jpeg",5,1,3,2,"HouseObjects",2,1,"right","right",0.472999811,1,1,1,0,NA,NA,NA,NA,NA,NA,NA,NA,NA,NA,NA,NA,NA,NA,NA,NA,NA,NA,NA,NA,NA,NA,NA,NA
"322","stim/objects/HouseObjects/dustpan3.png",464,78,457,0.9,"stim/54.jpeg",5,4,3,2,"HouseObjects",2,1,"right","right",0.555000067,1,1,1,0,NA,NA,NA,NA,NA,NA,NA,NA,NA,NA,NA,NA,NA,NA,NA,NA,NA,NA,NA,NA,NA,NA,NA,NA
"438","stim/objects/Instruments/cymbal3.png",465,78,458,0.7,"stim/42.jpeg",4,2,2,2,"Instruments",1,4,"left","left",0.663000107,1,1,1,0,NA,NA,NA,NA,NA,NA,NA,NA,NA,NA,NA,NA,NA,NA,NA,NA,NA,NA,NA,NA,NA,NA,NA,NA
"379","stim/objects/HouseObjects/hairdryer4.png",466,78,459,0.9,"stim/51.jpeg",5,1,3,1,"HouseObjects",2,4,"right","right",0.437999964,1,1,1,0,4,78,1,0.9,2,"stim/51.jpeg",5,1,"stim/51.jpeg",4,"left",2.796000004,3,2,4.378999949,4,3.140000105,4,1,0,0,1,1,0
"407","stim/objects/Instruments/accordion3.png",467,78,460,0.5,"stim/12.jpeg",1,2,1,2,"Instruments",1,4,"left","left",0.661000013,1,1,1,0,NA,NA,NA,NA,NA,NA,NA,NA,NA,NA,NA,NA,NA,NA,NA,NA,NA,NA,NA,NA,NA,NA,NA,NA
"536","stim/objects/Instruments/grandpiano3.png",468,78,461,0.9,"stim/63.jpeg",6,3,3,2,"Instruments",1,1,"left","left",0.539999962,1,1,1,0,NA,NA,NA,NA,NA,NA,NA,NA,NA,NA,NA,NA,NA,NA,NA,NA,NA,NA,NA,NA,NA,NA,NA,NA
