"","participant","OvsN","PE_level","object_cat","obj_file","scn_file","corr_scn_cat","corr_scn_inst","scn_file.1","corr_loc","key_resp_id.keys","key_resp_id.rt","key_resp_conf.keys","key_resp_assoc.keys","key_resp_assoc.rt","key_resp_loc.keys","key_resp_loc.rt","trialN","id_acc","assoc.acc","cond_assoc","loc.acc","cond_loc","group"
"1",78,1,0.9,1,"stim/objects/Instruments/musicstand4.png","stim/62.jpeg",6,2,"stim/62.jpeg",2,"left",1.39199996,4,3,5.522000074,2,3.276000023,1,1,0,0,1,1,0
"2",78,1,0.5,2,"stim/objects/Instruments/musicsheet3.png","stim/21.jpeg",2,1,"stim/21.jpeg",1,"left",2.161999941,4,4,3.568000078,1,4.453999996,2,1,0,0,1,1,0
"3",78,2,0,1,"stim/objects/Instruments/bassguitar.png","",0,0,"",0,"left",2.296999931,NA,NA,NA,NA,NA,3,0,NA,NA,NA,NA,0
"4",78,1,0.9,2,"stim/objects/HouseObjects/hairdryer4.png","stim/51.jpeg",5,1,"stim/51.jpeg",4,"left",2.796000004,3,2,4.378999949,4,3.140000105,4,1,0,0,1,1,0
"5",78,1,0.7,2,"stim/objects/HouseObjects/bleachbottle4.png","stim/33.jpeg",3,3,"stim/33.jpeg",2,"right",1.650000095,3,4,5.509000063,1,1.917999983,5,0,0,NA,0,NA,0
"6",78,2,0,2,"stim/objects/HouseObjects/clothespin.png","",0,0,"",0,"left",1.078999996,NA,NA,NA,NA,NA,6,0,NA,NA,NA,NA,0
"7",78,2,0,1,"stim/objects/Instruments/bassdrum.png","",0,0,"",0,"right",2.421999931,NA,NA,NA,NA,NA,7,1,NA,NA,NA,NA,0
"8",78,1,0.7,2,"stim/objects/HouseObjects/wateringcan3.png","stim/32.jpeg",3,2,"stim/32.jpeg",3,"left",1.381999969,3,3,6.135999918,3,4.434999943,8,1,0,0,1,1,0
"9",78,2,0,2,"stim/objects/HouseObjects/garbagebin.png","",0,0,"",0,"right",2.616000175,NA,NA,NA,NA,NA,9,1,NA,NA,NA,NA,0
"10",78,2,0,2,"stim/objects/HouseObjects/cushion2.png","",0,0,"",0,"right",2.138000011,NA,NA,NA,NA,NA,10,1,NA,NA,NA,NA,0
"11",78,1,0.1,1,"stim/objects/Instruments/frenchhorn4.png","stim/53.jpeg",5,3,"stim/53.jpeg",4,"left",1.092999935,4,2,6.282999992,3,2.960000038,11,1,0,0,0,0,0
"12",78,1,0.3,2,"stim/objects/HouseObjects/clothesdryingrack4.png","stim/43.jpeg",4,3,"stim/43.jpeg",2,"left",1.110999823,4,4,7.801999807,4,2.638000011,12,1,0,0,0,0,0
"13",78,1,0.7,2,"stim/objects/HouseObjects/vacuumcleaner3.png","stim/31.jpeg",3,1,"stim/31.jpeg",3,"left",1.573000193,3,1,8.344000101,3,1.44299984,13,1,1,1,1,1,0
"14",78,2,0,1,"stim/objects/Instruments/clarinet.png","",0,0,"",0,"left",1.389999866,NA,NA,NA,NA,NA,14,0,NA,NA,NA,NA,0
"15",78,2,0,1,"stim/objects/Instruments/violin.png","",0,0,"",0,"left",1.230999947,NA,NA,NA,NA,NA,15,0,NA,NA,NA,NA,0
"16",78,2,0,1,"stim/objects/Instruments/electricguitar.png","",0,0,"",0,"right",4.771999836,NA,NA,NA,NA,NA,16,1,NA,NA,NA,NA,0
"17",78,1,0.9,1,"stim/objects/Instruments/oboe4.png","stim/63.jpeg",6,3,"stim/63.jpeg",1,"left",1.776000023,2,2,4.342999935,3,2.321999788,17,1,0,0,0,0,0
"18",78,1,0.3,2,"stim/objects/HouseObjects/cushion4.png","stim/42.jpeg",4,2,"stim/42.jpeg",2,"right",5.055999994,2,1,7.013999939,1,2.210000038,18,0,0,NA,0,NA,0
"19",78,2,0,2,"stim/objects/HouseObjects/lintroller.png","",0,0,"",0,"left",1.029999971,NA,NA,NA,NA,NA,19,0,NA,NA,NA,NA,0
"20",78,1,0.7,1,"stim/objects/Instruments/electricdrumset4.png","stim/44.jpeg",4,4,"stim/44.jpeg",3,"left",1.006999969,4,2,3.786000013,3,8.240999937,20,1,0,0,1,1,0
"21",78,2,0,2,"stim/objects/HouseObjects/wateringcan.png","",0,0,"",0,"left",1.013999939,NA,NA,NA,NA,NA,21,0,NA,NA,NA,NA,0
"22",78,1,0.7,1,"stim/objects/Instruments/electricguitar4.png","stim/41.jpeg",4,1,"stim/41.jpeg",3,"right",1.210000038,3,4,7.721999884,3,6.953000069,22,0,0,NA,1,NA,0
"23",78,2,0,2,"stim/objects/HouseObjects/ironingboard.png","",0,0,"",0,"left",1.223999977,NA,NA,NA,NA,NA,23,0,NA,NA,NA,NA,0
"24",78,1,0.3,2,"stim/objects/HouseObjects/blender4.png","stim/42.jpeg",4,2,"stim/42.jpeg",2,"left",1.296000004,3,3,11.07199979,4,6.178999901,24,1,0,0,0,0,0
"25",78,1,0.7,2,"stim/objects/HouseObjects/ashtray4.png","stim/33.jpeg",3,3,"stim/33.jpeg",1,"left",1.025000095,4,1,7.963999987,1,1.16899991,25,1,0,0,1,1,0
"26",78,2,0,1,"stim/objects/Instruments/harmonica.png","",0,0,"",0,"left",2.19900012,NA,NA,NA,NA,NA,26,0,NA,NA,NA,NA,0
"27",78,1,0.5,1,"stim/objects/HouseObjects/handvacuum3.png","stim/11.jpeg",1,1,"stim/11.jpeg",4,"left",1.075999975,3,1,4.06099987,3,3.024999857,27,1,1,1,0,0,0
"28",78,1,0.1,2,"stim/objects/HouseObjects/wateringcan4.png","stim/64.jpeg",6,4,"stim/64.jpeg",2,"right",3.077000141,2,4,3.569999933,2,5.228000164,28,0,1,NA,1,NA,0
"29",78,2,0,2,"stim/objects/HouseObjects/knife.png","",0,0,"",0,"right",1.315999985,NA,NA,NA,NA,NA,29,1,NA,NA,NA,NA,0
"30",78,1,0.3,2,"stim/objects/HouseObjects/clock4.png","stim/42.jpeg",4,2,"stim/42.jpeg",2,"left",1.078000069,3,1,5.782999992,3,4.274999857,30,1,0,0,0,0,0
"31",78,2,0,2,"stim/objects/HouseObjects/ballofstring.png","",0,0,"",0,"right",2.994000196,NA,NA,NA,NA,NA,31,1,NA,NA,NA,NA,0
"32",78,1,0.9,2,"stim/objects/HouseObjects/flyswatter4.png","stim/51.jpeg",5,1,"stim/51.jpeg",1,"left",1.284999847,4,2,4.230999947,1,3.395999908,32,1,0,0,1,1,0
"33",78,1,0.1,2,"stim/objects/HouseObjects/vacuumcleaner4.png","stim/63.jpeg",6,3,"stim/63.jpeg",4,"right",2.088999987,2,2,4.236000061,4,5.115999937,33,0,0,NA,1,NA,0
"34",78,1,0.9,2,"stim/objects/HouseObjects/glassmop4.png","stim/54.jpeg",5,4,"stim/54.jpeg",3,"left",1.062000036,4,1,3.799000025,3,2.446000099,34,1,0,0,1,1,0
"35",78,2,0,1,"stim/objects/Instruments/harp.png","",0,0,"",0,"left",1.069000006,NA,NA,NA,NA,NA,35,0,NA,NA,NA,NA,0
"36",78,1,0.5,2,"stim/objects/HouseObjects/key3.png","stim/21.jpeg",2,1,"stim/21.jpeg",4,"left",1.559000015,3,2,4.073000193,3,6.475000143,36,1,0,0,0,0,0
"37",78,2,0,1,"stim/objects/Instruments/acousticguitar2.png","",0,0,"",0,"right",3.587999821,NA,NA,NA,NA,NA,37,1,NA,NA,NA,NA,0
"38",78,1,0.3,1,"stim/objects/Instruments/bassdrum4.png","stim/32.jpeg",3,2,"stim/32.jpeg",3,"left",0.789999962,4,1,5.020999908,3,2.744999886,38,1,0,0,1,1,0
"39",78,1,0.5,2,"stim/objects/Instruments/laud3.png","stim/21.jpeg",2,1,"stim/21.jpeg",1,"left",4.563999891,2,4,4.845999956,3,2.351999998,39,1,0,0,0,0,0
"40",78,1,0.3,1,"stim/objects/Instruments/acousticguitar4.png","stim/33.jpeg",3,3,"stim/33.jpeg",3,"right",2.532000065,2,4,4.334000111,3,2.835000038,40,0,0,NA,1,NA,0
"41",78,2,0,2,"stim/objects/HouseObjects/bleachbottle2.png","",0,0,"",0,"right",1.79700017,NA,NA,NA,NA,NA,41,1,NA,NA,NA,NA,0
"42",78,1,0.9,1,"stim/objects/Instruments/violin4.png","stim/64.jpeg",6,4,"stim/64.jpeg",3,"right",1.157999992,3,2,6.336999893,4,2.695000172,42,0,0,NA,0,NA,0
"43",78,2,0,2,"stim/objects/HouseObjects/bucket.png","",0,0,"",0,"left",1.075999975,NA,NA,NA,NA,NA,43,0,NA,NA,NA,NA,0
"44",78,2,0,1,"stim/objects/Instruments/cello2.png","",0,0,"",0,"right",2.27699995,NA,NA,NA,NA,NA,44,1,NA,NA,NA,NA,0
"45",78,2,0,1,"stim/objects/Instruments/chime2.png","",0,0,"",0,"right",2.847000122,NA,NA,NA,NA,NA,45,1,NA,NA,NA,NA,0
"46",78,1,0.1,2,"stim/objects/HouseObjects/key4.png","stim/64.jpeg",6,4,"stim/64.jpeg",4,"right",1.457999945,3,1,5.499000072,4,4.254000187,46,0,0,NA,1,NA,0
"47",78,1,0.9,2,"stim/objects/HouseObjects/dustpan4.png","stim/54.jpeg",5,4,"stim/54.jpeg",2,"left",1.105000019,4,1,3.529999971,4,4.014000177,47,1,0,0,0,0,0
"48",78,2,0,2,"stim/objects/HouseObjects/bottle.png","",0,0,"",0,"right",1.146999836,NA,NA,NA,NA,NA,48,1,NA,NA,NA,NA,0
"49",78,2,0,1,"stim/objects/Instruments/marimba.png","",0,0,"",0,"right",1.86500001,NA,NA,NA,NA,NA,49,1,NA,NA,NA,NA,0
"50",78,2,0,2,"stim/objects/HouseObjects/bleachbottle.png","",0,0,"",0,"right",1.007999897,NA,NA,NA,NA,NA,50,1,NA,NA,NA,NA,0
"51",78,1,0.1,1,"stim/objects/Instruments/flutetrans4.png","stim/52.jpeg",5,2,"stim/52.jpeg",4,"right",1.419999838,3,2,4.986000061,2,6.309999943,51,0,1,NA,0,NA,0
"52",78,1,0.3,1,"stim/objects/Instruments/vuvuzela3.png","stim/34.jpeg",3,4,"stim/34.jpeg",4,"left",1.125,4,1,4.45600009,2,6.845999956,52,1,0,0,0,0,0
"53",78,1,0.9,1,"stim/objects/Instruments/xylophone4.png","stim/62.jpeg",6,2,"stim/62.jpeg",4,"right",1.230000019,2,1,5.836999893,4,2.749000072,53,0,0,NA,1,NA,0
"54",78,1,0.1,1,"stim/objects/Instruments/keyboard4.png","stim/52.jpeg",5,2,"stim/52.jpeg",4,"right",4.328999996,2,3,2.745000124,3,5.734999895,54,0,0,NA,0,NA,0
"55",78,2,0,1,"stim/objects/Instruments/keyboard.png","",0,0,"",0,"right",1.343999863,NA,NA,NA,NA,NA,55,1,NA,NA,NA,NA,0
"56",78,1,0.7,2,"stim/objects/HouseObjects/barbecuelighter4.png","stim/31.jpeg",3,1,"stim/31.jpeg",1,"left",1.440999985,4,2,5.003000021,1,5.174999952,56,1,0,0,1,1,0
"57",78,2,0,2,"stim/objects/HouseObjects/handvacuum.png","",0,0,"",0,"right",1.406000137,NA,NA,NA,NA,NA,57,1,NA,NA,NA,NA,0
"58",78,1,0.7,1,"stim/objects/Instruments/cello4.png","stim/41.jpeg",4,1,"stim/41.jpeg",1,"right",1.664000034,3,1,6.306999922,3,5.450000048,58,0,1,NA,0,NA,0
"59",78,2,0,2,"stim/objects/HouseObjects/flyswatter.png","",0,0,"",0,"left",1.596999884,NA,NA,NA,NA,NA,59,0,NA,NA,NA,NA,0
"60",78,2,0,1,"stim/objects/Instruments/maraca.png","",0,0,"",0,"left",2.515999794,NA,NA,NA,NA,NA,60,0,NA,NA,NA,NA,0
"61",78,2,0,1,"stim/objects/Instruments/bassdrum2.png","",0,0,"",0,"right",1.159000158,NA,NA,NA,NA,NA,61,1,NA,NA,NA,NA,0
"62",78,1,0.3,2,"stim/objects/HouseObjects/bottle4.png","stim/43.jpeg",4,3,"stim/43.jpeg",3,"right",1.245000124,3,2,4.049999952,3,3.279999971,62,0,0,NA,1,NA,0
"63",78,2,0,1,"stim/objects/Instruments/musicsheet.png","",0,0,"",0,"left",4.014999866,NA,NA,NA,NA,NA,63,0,NA,NA,NA,NA,0
"64",78,1,0.7,2,"stim/objects/HouseObjects/pitcher3.png","stim/33.jpeg",3,3,"stim/33.jpeg",2,"left",0.948999882,4,4,6.549999952,4,2.562999964,64,1,0,0,0,0,0
"65",78,2,0,1,"stim/objects/Instruments/flute.png","",0,0,"",0,"left",1.582000017,NA,NA,NA,NA,NA,65,0,NA,NA,NA,NA,0
"66",78,2,0,1,"stim/objects/Instruments/gong.png","",0,0,"",0,"left",0.93900013,NA,NA,NA,NA,NA,66,0,NA,NA,NA,NA,0
"67",78,1,0.7,1,"stim/objects/Instruments/doublebass4.png","stim/42.jpeg",4,2,"stim/42.jpeg",4,"right",1.178999901,2,2,3.694999933,4,4.980000019,67,0,1,NA,1,NA,0
"68",78,1,0.5,1,"stim/objects/HouseObjects/glassmop3.png","stim/12.jpeg",1,2,"stim/12.jpeg",4,"left",2.30099988,3,2,2.730999947,3,3.143999815,68,1,1,1,0,0,0
"69",78,1,0.5,2,"stim/objects/Instruments/maraca3.png","stim/22.jpeg",2,2,"stim/22.jpeg",3,"left",1.462000132,4,2,4.546999931,4,4.265000105,69,1,1,1,0,0,0
"70",78,2,0,2,"stim/objects/HouseObjects/match.png","",0,0,"",0,"left",1.039000034,NA,NA,NA,NA,NA,70,0,NA,NA,NA,NA,0
"71",78,2,0,1,"stim/objects/Instruments/flutetrans.png","",0,0,"",0,"left",1.491999865,NA,NA,NA,NA,NA,71,0,NA,NA,NA,NA,0
"72",78,1,0.1,2,"stim/objects/HouseObjects/knife4.png","stim/61.jpeg",6,1,"stim/61.jpeg",3,"left",1.678999901,4,3,3.06099987,3,8.762000084,72,1,0,0,1,1,0
"73",78,1,0.3,2,"stim/objects/HouseObjects/broom4.png","stim/44.jpeg",4,4,"stim/44.jpeg",2,"left",1.010999918,4,2,6.285000086,4,3.571999788,73,1,0,0,0,0,0
"74",78,1,0.1,1,"stim/objects/Instruments/guitarcase4.png","stim/52.jpeg",5,2,"stim/52.jpeg",2,"right",1.295000076,2,4,5.763000011,2,3.014999866,74,0,0,NA,1,NA,0
"75",78,2,0,1,"stim/objects/Instruments/grandpiano.png","",0,0,"",0,"right",2.473999977,NA,NA,NA,NA,NA,75,1,NA,NA,NA,NA,0
"76",78,2,0,2,"stim/objects/HouseObjects/glass.png","",0,0,"",0,"right",2.317000151,NA,NA,NA,NA,NA,76,1,NA,NA,NA,NA,0
"77",78,1,0.1,1,"stim/objects/Instruments/hihat4.png","stim/51.jpeg",5,1,"stim/51.jpeg",2,"left",1.41899991,3,3,3.610000134,4,2.848999977,77,1,0,0,0,0,0
"78",78,2,0,1,"stim/objects/Instruments/vuvuzela.png","",0,0,"",0,"right",1.287000179,NA,NA,NA,NA,NA,78,1,NA,NA,NA,NA,0
"79",78,1,0.1,2,"stim/objects/HouseObjects/lintroller4.png","stim/62.jpeg",6,2,"stim/62.jpeg",4,"left",1.43599987,3,2,9.786000013,2,1.864000082,79,1,1,1,0,0,0
"80",78,2,0,2,"stim/objects/HouseObjects/broom2.png","",0,0,"",0,"left",1.959000111,NA,NA,NA,NA,NA,80,0,NA,NA,NA,NA,0
"81",78,2,0,2,"stim/objects/HouseObjects/barbecuelighter2.png","",0,0,"",0,"left",1.161999941,NA,NA,NA,NA,NA,81,0,NA,NA,NA,NA,0
"82",78,1,0.1,2,"stim/objects/HouseObjects/match4.png","stim/63.jpeg",6,3,"stim/63.jpeg",2,"left",2.508000135,4,1,7.715999842,2,4.384000063,82,1,0,0,1,1,0
"83",78,2,0,1,"stim/objects/Instruments/cornet.png","",0,0,"",0,"left",1.226999998,NA,NA,NA,NA,NA,83,0,NA,NA,NA,NA,0
"84",78,1,0.7,1,"stim/objects/Instruments/chime4.png","stim/42.jpeg",4,2,"stim/42.jpeg",4,"left",0.963999987,4,1,4.57799983,4,3.708999872,84,1,0,0,1,1,0
"85",78,2,0,2,"stim/objects/HouseObjects/pitcher.png","",0,0,"",0,"right",1.786000013,NA,NA,NA,NA,NA,85,1,NA,NA,NA,NA,0
"86",78,2,0,1,"stim/objects/Instruments/doublebass.png","",0,0,"",0,"right",1.661999941,NA,NA,NA,NA,NA,86,1,NA,NA,NA,NA,0
"87",78,2,0,2,"stim/objects/HouseObjects/ashtray.png","",0,0,"",0,"right",1.963999987,NA,NA,NA,NA,NA,87,1,NA,NA,NA,NA,0
"88",78,2,0,1,"stim/objects/Instruments/musicstand.png","",0,0,"",0,"left",3.230999947,NA,NA,NA,NA,NA,88,0,NA,NA,NA,NA,0
"89",78,1,0.1,1,"stim/objects/Instruments/gong4.png","stim/54.jpeg",5,4,"stim/54.jpeg",2,"left",0.996999979,4,3,4.75999999,4,2.881000042,89,1,0,0,0,0,0
"90",78,2,0,2,"stim/objects/HouseObjects/dustpan.png","",0,0,"",0,"right",2.769999981,NA,NA,NA,NA,NA,90,1,NA,NA,NA,NA,0
"91",78,2,0,2,"stim/objects/HouseObjects/key.png","",0,0,"",0,"right",1.459000111,NA,NA,NA,NA,NA,91,1,NA,NA,NA,NA,0
"92",78,1,0.3,2,"stim/objects/HouseObjects/dishsoap4.png","stim/43.jpeg",4,3,"stim/43.jpeg",1,"right",0.996000051,4,1,3.990999937,4,1.773999929,92,0,0,NA,0,NA,0
"93",78,2,0,2,"stim/objects/HouseObjects/vacuumcleaner.png","",0,0,"",0,"left",4.910000086,NA,NA,NA,NA,NA,93,0,NA,NA,NA,NA,0
"94",78,1,0.3,1,"stim/objects/Instruments/violin3.png","stim/33.jpeg",3,3,"stim/33.jpeg",1,"right",3.15899992,2,2,2.588999987,1,3.760999918,94,0,0,NA,1,NA,0
"95",78,2,0,1,"stim/objects/Instruments/guitarcase.png","",0,0,"",0,"left",3.012000084,NA,NA,NA,NA,NA,95,0,NA,NA,NA,NA,0
"96",78,2,0,2,"stim/objects/HouseObjects/blender.png","",0,0,"",0,"left",1.454999924,NA,NA,NA,NA,NA,96,0,NA,NA,NA,NA,0
"97",78,2,0,1,"stim/objects/Instruments/doublebass2.png","",0,0,"",0,"left",2.865999937,NA,NA,NA,NA,NA,97,0,NA,NA,NA,NA,0
"98",78,1,0.3,1,"stim/objects/Instruments/balalaika4.png","stim/34.jpeg",3,4,"stim/34.jpeg",2,"left",2.275000095,2,2,3.555999994,3,3.289999962,98,1,0,0,0,0,0
"99",78,2,0,2,"stim/objects/HouseObjects/clothespin2.png","",0,0,"",0,"right",1.371999979,NA,NA,NA,NA,NA,99,1,NA,NA,NA,NA,0
"100",78,1,0.5,1,"stim/objects/Instruments/hihat3.png","stim/12.jpeg",1,2,"stim/12.jpeg",3,"left",1.352999926,4,4,2.84100008,4,5.098999977,100,1,0,0,0,0,0
"101",78,1,0.3,2,"stim/objects/HouseObjects/bucket4.png","stim/41.jpeg",4,1,"stim/41.jpeg",1,"left",1.50999999,4,1,0.946000099,2,6.368000031,101,1,1,1,0,0,0
"102",78,1,0.7,1,"stim/objects/Instruments/cornet4.png","stim/44.jpeg",4,4,"stim/44.jpeg",4,"left",1.208999872,4,2,5.045000076,4,12.74000001,102,1,0,0,1,1,0
"103",78,2,0,2,"stim/objects/HouseObjects/ballofstring2.png","",0,0,"",0,"right",1.80099988,NA,NA,NA,NA,NA,103,1,NA,NA,NA,NA,0
"104",78,2,0,2,"stim/objects/HouseObjects/glassmop.png","",0,0,"",0,"right",21.90499997,NA,NA,NA,NA,NA,104,1,NA,NA,NA,NA,0
"105",78,2,0,2,"stim/objects/HouseObjects/barbecuelighter.png","",0,0,"",0,"left",2.230000019,NA,NA,NA,NA,NA,105,0,NA,NA,NA,NA,0
"106",78,1,0.3,1,"stim/objects/Instruments/accordion4.png","stim/32.jpeg",3,2,"stim/32.jpeg",4,"right",0.993999958,3,1,2.140000105,3,1.858999968,106,0,0,NA,0,NA,0
"107",78,2,0,1,"stim/objects/Instruments/drums.png","",0,0,"",0,"left",1.226000071,NA,NA,NA,NA,NA,107,0,NA,NA,NA,NA,0
"108",78,1,0.5,2,"stim/objects/Instruments/metronome3.png","stim/24.jpeg",2,4,"stim/24.jpeg",2,"left",0.92200017,4,3,4.082000017,4,2.237999916,108,1,0,0,0,0,0
"109",78,1,0.5,1,"stim/objects/Instruments/harp3.png","stim/11.jpeg",1,1,"stim/11.jpeg",2,"left",0.993999958,3,2,2.753999949,3,2.019999981,109,1,0,0,0,0,0
"110",78,1,0.5,1,"stim/objects/Instruments/harmonica3.png","stim/14.jpeg",1,4,"stim/14.jpeg",3,"left",0.921999931,4,3,3.213999987,3,2.736999989,110,1,0,0,1,1,0
"111",78,2,0,1,"stim/objects/Instruments/xylophone.png","",0,0,"",0,"right",1.167999983,NA,NA,NA,NA,NA,111,1,NA,NA,NA,NA,0
"112",78,1,0.5,2,"stim/objects/HouseObjects/lintroller3.png","stim/23.jpeg",2,3,"stim/23.jpeg",3,"left",0.893000126,4,3,3.56400013,4,1.776000023,112,1,1,1,0,0,0
"113",78,1,0.9,2,"stim/objects/HouseObjects/handbrush4.png","stim/52.jpeg",5,2,"stim/52.jpeg",1,"right",1.657999992,2,1,1.786000013,3,4.45299983,113,0,0,NA,0,NA,0
"114",78,2,0,1,"stim/objects/Instruments/clarinet2.png","",0,0,"",0,"left",1.273999929,NA,NA,NA,NA,NA,114,0,NA,NA,NA,NA,0
"115",78,1,0.9,2,"stim/objects/HouseObjects/garbagebin4.png","stim/52.jpeg",5,2,"stim/52.jpeg",1,"left",1.09100008,4,2,3.519999981,1,1.519999981,115,1,1,1,1,1,0
"116",78,1,0.9,1,"stim/objects/Instruments/metronome4.png","stim/64.jpeg",6,4,"stim/64.jpeg",2,"left",1.921999931,3,2,3.779999971,4,1.576999903,116,1,0,0,0,0,0
"117",78,2,0,1,"stim/objects/Instruments/electricdrumset2.png","",0,0,"",0,"right",1.411000013,NA,NA,NA,NA,NA,117,1,NA,NA,NA,NA,0
"118",78,1,0.5,1,"stim/objects/HouseObjects/iron3.png","stim/12.jpeg",1,2,"stim/12.jpeg",2,"right",1.611999989,2,1,1.971999884,2,3.442000151,118,0,0,NA,1,NA,0
"119",78,2,0,1,"stim/objects/Instruments/chime.png","",0,0,"",0,"right",1.228000164,NA,NA,NA,NA,NA,119,1,NA,NA,NA,NA,0
"120",78,1,0.9,1,"stim/objects/Instruments/vuvuzela4.png","stim/61.jpeg",6,1,"stim/61.jpeg",4,"left",2.148000002,3,2,2.584000111,2,1.576999903,120,1,0,0,0,0,0
"121",78,1,0.1,1,"stim/objects/Instruments/harp4.png","stim/54.jpeg",5,4,"stim/54.jpeg",2,"right",1.272000074,2,4,6.510999918,3,1.99000001,121,0,1,NA,0,NA,0
"122",78,2,0,2,"stim/objects/HouseObjects/blender2.png","",0,0,"",0,"right",1.927000046,NA,NA,NA,NA,NA,122,1,NA,NA,NA,NA,0
"123",78,2,0,2,"stim/objects/HouseObjects/coffee.png","",0,0,"",0,"left",1.012000084,NA,NA,NA,NA,NA,123,0,NA,NA,NA,NA,0
"124",78,2,0,2,"stim/objects/HouseObjects/broom.png","",0,0,"",0,"left",1.079999924,NA,NA,NA,NA,NA,124,0,NA,NA,NA,NA,0
"125",78,2,0,2,"stim/objects/HouseObjects/iron.png","",0,0,"",0,"right",0.958999872,NA,NA,NA,NA,NA,125,1,NA,NA,NA,NA,0
"126",78,1,0.7,1,"stim/objects/Instruments/drums4.png","stim/43.jpeg",4,3,"stim/43.jpeg",4,"left",1.120000124,4,3,4.220999956,3,2.021000147,126,1,1,1,0,0,0
"127",78,1,0.9,2,"stim/objects/HouseObjects/iron4.png","stim/54.jpeg",5,4,"stim/54.jpeg",2,"right",0.922999859,3,2,3.999000072,3,1.613000154,127,0,0,NA,0,NA,0
"128",78,1,0.1,1,"stim/objects/Instruments/grandpiano4.png","stim/51.jpeg",5,1,"stim/51.jpeg",4,"left",0.987999916,3,1,2.678999901,3,2.875,128,1,1,1,0,0,0
"129",78,2,0,1,"stim/objects/Instruments/hihat.png","",0,0,"",0,"right",1.984999895,NA,NA,NA,NA,NA,129,1,NA,NA,NA,NA,0
"130",78,2,0,1,"stim/objects/Instruments/oboe.png","",0,0,"",0,"left",1.746000051,NA,NA,NA,NA,NA,130,0,NA,NA,NA,NA,0
"131",78,1,0.1,2,"stim/objects/HouseObjects/ironingboard4.png","stim/63.jpeg",6,3,"stim/63.jpeg",4,"right",1.378000021,3,3,3.894999981,3,1.430000067,131,0,1,NA,0,NA,0
"132",78,2,0,1,"stim/objects/Instruments/cello.png","",0,0,"",0,"right",1.269000053,NA,NA,NA,NA,NA,132,1,NA,NA,NA,NA,0
"133",78,1,0.5,2,"stim/objects/HouseObjects/match3.png","stim/24.jpeg",2,4,"stim/24.jpeg",3,"left",3.213000059,3,4,4.977999926,4,7.65199995,133,1,1,1,0,0,0
"134",78,2,0,2,"stim/objects/HouseObjects/ashtray2.png","",0,0,"",0,"left",1.836999893,NA,NA,NA,NA,NA,134,0,NA,NA,NA,NA,0
"135",78,1,0.3,2,"stim/objects/HouseObjects/coffee4.png","stim/41.jpeg",4,1,"stim/41.jpeg",3,"right",1.438999891,2,2,1.765000105,3,3.864000082,135,0,0,NA,1,NA,0
"136",78,1,0.9,1,"stim/objects/Instruments/maraca4.png","stim/62.jpeg",6,2,"stim/62.jpeg",4,"left",1.743999958,3,3,4.138000011,3,2.561000109,136,1,0,0,0,0,0
"137",78,2,0,2,"stim/objects/HouseObjects/coffee2.png","",0,0,"",0,"right",1.095000029,NA,NA,NA,NA,NA,137,1,NA,NA,NA,NA,0
"138",78,2,0,1,"stim/objects/Instruments/cymbal2.png","",0,0,"",0,"right",1.555000067,NA,NA,NA,NA,NA,138,1,NA,NA,NA,NA,0
"139",78,1,0.7,2,"stim/objects/HouseObjects/towel3.png","stim/34.jpeg",3,4,"stim/34.jpeg",2,"left",1.188999891,4,2,5.89199996,1,1.847999811,139,1,0,0,0,0,0
"140",78,2,0,1,"stim/objects/Instruments/balalaika.png","",0,0,"",0,"left",1.513000011,NA,NA,NA,NA,NA,140,0,NA,NA,NA,NA,0
"141",78,1,0.3,1,"stim/objects/Instruments/oboe3.png","stim/32.jpeg",3,2,"stim/32.jpeg",4,"left",4.497000217,3,2,2.404999971,1,3.287000179,141,1,1,1,0,0,0
"142",78,2,0,1,"stim/objects/Instruments/accordion.png","",0,0,"",0,"right",1.152000189,NA,NA,NA,NA,NA,142,1,NA,NA,NA,NA,0
"143",78,1,0.7,2,"stim/objects/HouseObjects/ballofstring4.png","stim/34.jpeg",3,4,"stim/34.jpeg",4,"right",1.359999895,3,4,4.23300004,4,1.224999905,143,0,1,NA,1,NA,0
"144",78,2,0,2,"stim/objects/HouseObjects/bucket2.png","",0,0,"",0,"right",1.930999994,NA,NA,NA,NA,NA,144,1,NA,NA,NA,NA,0
"145",78,2,0,1,"stim/objects/Instruments/balalaika2.png","",0,0,"",0,"left",1.722999811,NA,NA,NA,NA,NA,145,0,NA,NA,NA,NA,0
"146",78,2,0,2,"stim/objects/HouseObjects/basket2.png","",0,0,"",0,"right",2.023999929,NA,NA,NA,NA,NA,146,1,NA,NA,NA,NA,0
"147",78,2,0,2,"stim/objects/HouseObjects/handbrush.png","",0,0,"",0,"right",0.863999844,NA,NA,NA,NA,NA,147,1,NA,NA,NA,NA,0
"148",78,1,0.3,1,"stim/objects/Instruments/banjo4.png","stim/31.jpeg",3,1,"stim/31.jpeg",3,"right",4.473999977,2,2,3.523000002,3,2.082000017,148,0,0,NA,1,NA,0
"149",78,1,0.9,1,"stim/objects/Instruments/laud4.png","stim/61.jpeg",6,1,"stim/61.jpeg",2,"right",1.021999836,3,4,3.521999836,3,4.357000113,149,0,0,NA,0,NA,0
"150",78,2,0,2,"stim/objects/HouseObjects/hairdryer.png","",0,0,"",0,"right",0.959000111,NA,NA,NA,NA,NA,150,1,NA,NA,NA,NA,0
"151",78,1,0.3,1,"stim/objects/Instruments/xylophone3.png","stim/31.jpeg",3,1,"stim/31.jpeg",3,"right",0.992000103,3,4,4.343000174,4,1.845000029,151,0,0,NA,0,NA,0
"152",78,1,0.1,2,"stim/objects/HouseObjects/pan4.png","stim/64.jpeg",6,4,"stim/64.jpeg",2,"right",0.940999985,3,2,3.079999924,4,2.528000116,152,0,0,NA,0,NA,0
"153",78,1,0.3,1,"stim/objects/Instruments/musicstand3.png","stim/31.jpeg",3,1,"stim/31.jpeg",2,"left",1.707000017,3,1,3.680000067,4,2.726999998,153,1,1,1,0,0,0
"154",78,2,0,2,"stim/objects/HouseObjects/towel.png","",0,0,"",0,"right",1.31799984,NA,NA,NA,NA,NA,154,1,NA,NA,NA,NA,0
"155",78,1,0.9,2,"stim/objects/HouseObjects/glass4.png","stim/53.jpeg",5,3,"stim/53.jpeg",4,"left",1.190000057,4,2,10.93900013,3,2.484999895,155,1,0,0,0,0,0
"156",78,1,0.5,2,"stim/objects/Instruments/marimba3.png","stim/23.jpeg",2,3,"stim/23.jpeg",2,"right",1.624000072,2,2,4.585999966,2,3.029999971,156,0,0,NA,1,NA,0
"157",78,1,0.9,1,"stim/objects/Instruments/marimba4.png","stim/63.jpeg",6,3,"stim/63.jpeg",3,"right",0.899999857,3,2,2.503000021,4,2.334000111,157,0,0,NA,0,NA,0
"158",78,2,0,1,"stim/objects/Instruments/drums2.png","",0,0,"",0,"left",1.470000029,NA,NA,NA,NA,NA,158,0,NA,NA,NA,NA,0
"159",78,2,0,2,"stim/objects/HouseObjects/dishsoap2.png","",0,0,"",0,"right",0.962000132,NA,NA,NA,NA,NA,159,1,NA,NA,NA,NA,0
"160",78,1,0.5,1,"stim/objects/HouseObjects/hairdryer3.png","stim/13.jpeg",1,3,"stim/13.jpeg",1,"right",0.779999971,4,1,4.467000008,2,1.947999954,160,0,0,NA,0,NA,0
"161",78,2,0,2,"stim/objects/HouseObjects/dishsoap.png","",0,0,"",0,"left",1.193000078,NA,NA,NA,NA,NA,161,0,NA,NA,NA,NA,0
"162",78,2,0,2,"stim/objects/HouseObjects/clock.png","",0,0,"",0,"right",1.008999825,NA,NA,NA,NA,NA,162,1,NA,NA,NA,NA,0
"163",78,2,0,2,"stim/objects/HouseObjects/bottle2.png","",0,0,"",0,"left",3.453000069,NA,NA,NA,NA,NA,163,0,NA,NA,NA,NA,0
"164",78,1,0.9,2,"stim/objects/HouseObjects/handvacuum4.png","stim/53.jpeg",5,3,"stim/53.jpeg",3,"left",2.760999918,2,1,4.870999813,3,1.535000086,164,1,0,0,1,1,0
"165",78,1,0.5,2,"stim/objects/HouseObjects/knife3.png","stim/22.jpeg",2,2,"stim/22.jpeg",2,"left",1.428999901,4,4,4.919999838,4,3.262000084,165,1,0,0,0,0,0
"166",78,1,0.7,2,"stim/objects/HouseObjects/basket4.png","stim/32.jpeg",3,2,"stim/32.jpeg",2,"right",0.972000122,4,3,4.355999947,2,2.4599998,166,0,0,NA,1,NA,0
"167",78,1,0.1,2,"stim/objects/HouseObjects/towel4.png","stim/62.jpeg",6,2,"stim/62.jpeg",2,"right",1.386000156,2,4,3.621000051,1,1.976999998,167,0,0,NA,0,NA,0
"168",78,2,0,1,"stim/objects/Instruments/banjo2.png","",0,0,"",0,"right",2.552000046,NA,NA,NA,NA,NA,168,1,NA,NA,NA,NA,0
"169",78,1,0.7,1,"stim/objects/Instruments/bassguitar4.png","stim/44.jpeg",4,4,"stim/44.jpeg",1,"right",0.904000044,2,1,1.950999975,4,1.736999989,169,0,0,NA,0,NA,0
"170",78,2,0,2,"stim/objects/HouseObjects/basket.png","",0,0,"",0,"right",0.875,NA,NA,NA,NA,NA,170,1,NA,NA,NA,NA,0
"171",78,2,0,1,"stim/objects/Instruments/accordion2.png","",0,0,"",0,"right",1.846999884,NA,NA,NA,NA,NA,171,1,NA,NA,NA,NA,0
"172",78,1,0.1,2,"stim/objects/HouseObjects/pitcher4.png","stim/61.jpeg",6,1,"stim/61.jpeg",4,"left",1.239000082,4,2,2.641000032,3,2.263999939,172,1,0,0,0,0,0
"173",78,1,0.7,2,"stim/objects/HouseObjects/pan3.png","stim/32.jpeg",3,2,"stim/32.jpeg",2,"left",1.249000072,4,2,5.934000015,3,2.717000008,173,1,1,1,0,0,0
"174",78,2,0,1,"stim/objects/Instruments/frenchhorn.png","",0,0,"",0,"left",1.362999916,NA,NA,NA,NA,NA,174,0,NA,NA,NA,NA,0
"175",78,2,0,2,"stim/objects/HouseObjects/cushion.png","",0,0,"",0,"left",2.218000174,NA,NA,NA,NA,NA,175,0,NA,NA,NA,NA,0
"176",78,1,0.5,2,"stim/objects/HouseObjects/ironingboard3.png","stim/24.jpeg",2,4,"stim/24.jpeg",1,"left",2.610999823,3,3,2.770999908,2,1.979000092,176,1,0,0,0,0,0
"177",78,2,0,1,"stim/objects/Instruments/metronome.png","",0,0,"",0,"right",1.188999891,NA,NA,NA,NA,NA,177,1,NA,NA,NA,NA,0
"178",78,2,0,2,"stim/objects/HouseObjects/clothesdryingrack2.png","",0,0,"",0,"right",8.549000025,NA,NA,NA,NA,NA,178,1,NA,NA,NA,NA,0
"179",78,1,0.3,2,"stim/objects/HouseObjects/clothespin4.png","stim/44.jpeg",4,4,"stim/44.jpeg",4,"right",3.917000055,2,1,5.532000065,1,1.633000135,179,0,0,NA,0,NA,0
"180",78,2,0,1,"stim/objects/Instruments/electricdrumset.png","",0,0,"",0,"right",1.515000105,NA,NA,NA,NA,NA,180,1,NA,NA,NA,NA,0
"181",78,1,0.7,1,"stim/objects/Instruments/clarinet4.png","stim/43.jpeg",4,3,"stim/43.jpeg",3,"left",1.289999962,3,2,2.961000204,4,2.799000025,181,1,0,0,0,0,0
"182",78,2,0,1,"stim/objects/Instruments/bassguitar2.png","",0,0,"",0,"right",3.443999767,NA,NA,NA,NA,NA,182,1,NA,NA,NA,NA,0
"183",78,2,0,1,"stim/objects/Instruments/cornet2.png","",0,0,"",0,"right",5.339999914,NA,NA,NA,NA,NA,183,1,NA,NA,NA,NA,0
"184",78,1,0.9,1,"stim/objects/Instruments/musicsheet4.png","stim/61.jpeg",6,1,"stim/61.jpeg",1,"right",2.881000042,2,2,2.251999855,2,1.786999941,184,0,0,NA,0,NA,0
"185",78,1,0.5,1,"stim/objects/HouseObjects/handbrush3.png","stim/14.jpeg",1,4,"stim/14.jpeg",2,"right",1.389000177,2,1,2.552000046,4,2.927999973,185,0,0,NA,0,NA,0
"186",78,2,0,1,"stim/objects/Instruments/cymbal.png","",0,0,"",0,"left",1.112999916,NA,NA,NA,NA,NA,186,0,NA,NA,NA,NA,0
"187",78,2,0,2,"stim/objects/HouseObjects/clock2.png","",0,0,"",0,"left",1.40199995,NA,NA,NA,NA,NA,187,0,NA,NA,NA,NA,0
"188",78,1,0.1,1,"stim/objects/Instruments/harmonica4.png","stim/53.jpeg",5,3,"stim/53.jpeg",3,"right",1.059000015,2,2,13.88700008,3,1.601999998,188,0,0,NA,1,NA,0
"189",78,1,0.5,1,"stim/objects/Instruments/guitarcase3.png","stim/13.jpeg",1,3,"stim/13.jpeg",1,"left",1.393000126,2,3,3.662000179,4,3.180000067,189,1,1,1,0,0,0
"190",78,2,0,2,"stim/objects/HouseObjects/doormat.png","",0,0,"",0,"right",1.278000116,NA,NA,NA,NA,NA,190,1,NA,NA,NA,NA,0
"191",78,2,0,2,"stim/objects/HouseObjects/pan.png","",0,0,"",0,"left",2.175000191,NA,NA,NA,NA,NA,191,0,NA,NA,NA,NA,0
"192",78,1,0.9,2,"stim/objects/HouseObjects/doormat4.png","stim/53.jpeg",5,3,"stim/53.jpeg",1,"left",3.461999893,4,1,1.861999989,1,2.500999928,192,1,0,0,1,1,0
"193",78,2,0,1,"stim/objects/Instruments/electricguitar2.png","",0,0,"",0,"right",1.037999868,NA,NA,NA,NA,NA,193,1,NA,NA,NA,NA,0
"194",78,1,0.7,1,"stim/objects/Instruments/cymbal4.png","stim/41.jpeg",4,1,"stim/41.jpeg",2,"right",1.401000023,2,2,2.600999832,2,4.832999945,194,0,0,NA,1,NA,0
"195",78,2,0,1,"stim/objects/Instruments/banjo.png","",0,0,"",0,"right",1.126000166,NA,NA,NA,NA,NA,195,1,NA,NA,NA,NA,0
"196",78,2,0,1,"stim/objects/Instruments/laud.png","",0,0,"",0,"right",0.845999956,NA,NA,NA,NA,NA,196,1,NA,NA,NA,NA,0
"197",78,2,0,2,"stim/objects/HouseObjects/clothesdryingrack.png","",0,0,"",0,"right",0.926999807,NA,NA,NA,NA,NA,197,1,NA,NA,NA,NA,0
"198",78,1,0.1,1,"stim/objects/Instruments/flute4.png","stim/51.jpeg",5,1,"stim/51.jpeg",3,"right",0.976999998,3,3,3.737999916,3,4.499000072,198,0,0,NA,1,NA,0
"199",78,1,0.5,1,"stim/objects/Instruments/keyboard3.png","stim/13.jpeg",1,3,"stim/13.jpeg",2,"left",1.291999817,3,2,3.527999878,3,1.611999989,199,1,0,0,0,0,0
"200",78,2,0,1,"stim/objects/Instruments/acousticguitar.png","",0,0,"",0,"right",1.394000053,NA,NA,NA,NA,NA,200,1,NA,NA,NA,NA,0
