"","participant","trialN","trial_cond","scn_file","scn_cat","scn_inst","scn_condition","fillers","obj_cat","obj_cat_num","obj_file","quadrant","corr_ans","key_resp_trial.keys","key_resp_trial.rt","trial_acc","trial_acc_manual","group"
"248",78,241,0.9,"stim/52.jpeg",5,2,3,2,"HouseObjects",2,"stim/objects/HouseObjects/dustpan3.png",4,"right","left",0.879999876,0,0,1
"249",78,242,0.9,"stim/54.jpeg",5,4,3,2,"HouseObjects",2,"stim/objects/HouseObjects/glass3.png",1,"right","",NA,0,0,1
"250",78,243,0.9,"stim/51.jpeg",5,1,3,2,"HouseObjects",2,"stim/objects/HouseObjects/garbagebin3.png",4,"right","right",0.59100008,1,1,1
"251",78,244,0.7,"stim/44.jpeg",4,4,2,1,"Instruments",1,"stim/objects/Instruments/cornet4.png",4,"left","left",0.644000053,1,1,1
"252",78,245,0.9,"stim/63.jpeg",6,3,3,1,"Instruments",1,"stim/objects/Instruments/oboe4.png",1,"left","left",0.537999868,1,1,1
"253",78,246,0.9,"stim/63.jpeg",6,3,3,2,"Instruments",1,"stim/objects/Instruments/frenchhorn3.png",1,"left","left",0.487999916,1,1,1
"254",78,247,0.9,"stim/61.jpeg",6,1,3,2,"Instruments",1,"stim/objects/Instruments/frenchhorn3.png",3,"left","left",0.576999903,1,1,1
"255",78,248,0.9,"stim/53.jpeg",5,3,3,2,"HouseObjects",2,"stim/objects/HouseObjects/glass3.png",3,"right","right",0.555000067,1,1,1
"256",78,249,0.3,"stim/33.jpeg",3,3,2,1,"Instruments",1,"stim/objects/Instruments/violin3.png",1,"left","right",0.820999861,0,0,1
"257",78,250,0.5,"stim/22.jpeg",2,2,1,2,"Instruments",1,"stim/objects/Instruments/chime3.png",1,"left","right",0.661000013,0,0,1
"258",78,251,0.9,"stim/61.jpeg",6,1,3,2,"Instruments",1,"stim/objects/Instruments/frenchhorn3.png",4,"left","left",0.513000011,1,1,1
"259",78,252,0.9,"stim/62.jpeg",6,2,3,2,"Instruments",1,"stim/objects/Instruments/gong3.png",2,"left","left",0.555000067,1,1,1
"260",78,253,0.9,"stim/63.jpeg",6,3,3,2,"Instruments",1,"stim/objects/Instruments/flute3.png",3,"left","left",0.544999838,1,1,1
"261",78,254,0.9,"stim/53.jpeg",5,3,3,2,"HouseObjects",2,"stim/objects/HouseObjects/glass3.png",2,"right","right",0.538999796,1,1,1
"262",78,255,0.9,"stim/62.jpeg",6,2,3,2,"Instruments",1,"stim/objects/Instruments/frenchhorn3.png",4,"left","left",0.522000074,1,1,1
"263",78,256,0.9,"stim/53.jpeg",5,3,3,2,"HouseObjects",2,"stim/objects/HouseObjects/dustpan3.png",1,"right","right",0.394000053,1,1,1
"264",78,257,0.5,"stim/13.jpeg",1,3,1,1,"Instruments",1,"stim/objects/Instruments/keyboard3.png",2,"left","left",0.578999996,1,1,1
"265",78,258,0.7,"stim/41.jpeg",4,1,2,2,"Instruments",1,"stim/objects/Instruments/cymbal3.png",3,"left","",NA,0,0,1
"266",78,259,0.9,"stim/51.jpeg",5,1,3,2,"HouseObjects",2,"stim/objects/HouseObjects/doormat3.png",1,"right","right",0.470000029,1,1,1
"267",78,260,0.9,"stim/51.jpeg",5,1,3,2,"HouseObjects",2,"stim/objects/HouseObjects/flyswatter3.png",4,"right","right",0.454999924,1,1,1
"268",78,261,0.7,"stim/34.jpeg",3,4,2,2,"HouseObjects",2,"stim/objects/HouseObjects/dishsoap3.png",4,"right","left",0.644999981,0,0,1
"269",78,262,0.9,"stim/53.jpeg",5,3,3,2,"HouseObjects",2,"stim/objects/HouseObjects/dustpan3.png",1,"right","right",0.503000021,1,1,1
"270",78,263,0.9,"stim/51.jpeg",5,1,3,2,"HouseObjects",2,"stim/objects/HouseObjects/dustpan3.png",2,"right","right",0.440000057,1,1,1
"271",78,264,0.9,"stim/51.jpeg",5,1,3,2,"HouseObjects",2,"stim/objects/HouseObjects/doormat3.png",3,"right","right",0.470000029,1,1,1
"272",78,265,0.9,"stim/53.jpeg",5,3,3,2,"HouseObjects",2,"stim/objects/HouseObjects/glass3.png",2,"right","right",0.467000008,1,1,1
"273",78,266,0.7,"stim/42.jpeg",4,2,2,2,"Instruments",1,"stim/objects/Instruments/doublebass3.png",2,"left","left",0.737999916,1,1,1
"274",78,267,0.3,"stim/31.jpeg",3,1,2,1,"Instruments",1,"stim/objects/Instruments/musicstand3.png",2,"left","right",0.806999922,0,0,1
"275",78,268,0.7,"stim/44.jpeg",4,4,2,2,"Instruments",1,"stim/objects/Instruments/drums3.png",4,"left","left",0.638999939,1,1,1
"276",78,269,0.9,"stim/52.jpeg",5,2,3,2,"HouseObjects",2,"stim/objects/HouseObjects/doormat3.png",4,"right","right",0.511000156,1,1,1
"277",78,270,0.5,"stim/11.jpeg",1,1,1,2,"Instruments",1,"stim/objects/Instruments/accordion3.png",4,"left","left",0.688999891,1,1,1
"278",78,271,0.9,"stim/61.jpeg",6,1,3,2,"Instruments",1,"stim/objects/Instruments/grandpiano3.png",1,"left","left",0.507999897,1,1,1
"279",78,272,0.7,"stim/31.jpeg",3,1,2,2,"HouseObjects",2,"stim/objects/HouseObjects/coffee3.png",4,"right","right",0.769999981,1,1,1
"280",78,273,0.9,"stim/63.jpeg",6,3,3,2,"Instruments",1,"stim/objects/Instruments/flutetrans3.png",1,"left","left",0.476999998,1,1,1
"281",78,274,0.9,"stim/53.jpeg",5,3,3,2,"HouseObjects",2,"stim/objects/HouseObjects/doormat3.png",4,"right","right",0.472999811,1,1,1
"282",78,275,0.3,"stim/34.jpeg",3,4,2,1,"Instruments",1,"stim/objects/Instruments/vuvuzela3.png",4,"left","left",0.671000004,1,1,1
"283",78,276,0.7,"stim/31.jpeg",3,1,2,2,"HouseObjects",2,"stim/objects/HouseObjects/dishsoap3.png",1,"right","right",0.552000046,1,1,1
"284",78,277,0.7,"stim/31.jpeg",3,1,2,2,"HouseObjects",2,"stim/objects/HouseObjects/clothespin3.png",1,"right","right",0.489000082,1,1,1
"285",78,278,0.5,"stim/14.jpeg",1,4,1,2,"HouseObjects",2,"stim/objects/HouseObjects/ashtray3.png",1,"right","left",0.605000019,0,0,1
"286",78,279,0.9,"stim/52.jpeg",5,2,3,2,"HouseObjects",2,"stim/objects/HouseObjects/glass3.png",4,"right","right",0.524999857,1,1,1
"287",78,280,0.5,"stim/23.jpeg",2,3,1,2,"HouseObjects",2,"stim/objects/HouseObjects/blender3.png",2,"right","right",0.749000072,1,1,1
"288",78,281,0.5,"stim/13.jpeg",1,3,1,1,"Instruments",1,"stim/objects/Instruments/guitarcase3.png",1,"left","left",0.593999863,1,1,1
"289",78,282,0.9,"stim/64.jpeg",6,4,3,2,"Instruments",1,"stim/objects/Instruments/flutetrans3.png",2,"left","left",0.503000021,1,1,1
"290",78,283,0.9,"stim/64.jpeg",6,4,3,2,"Instruments",1,"stim/objects/Instruments/gong3.png",1,"left","left",0.411000013,1,1,1
"291",78,284,0.9,"stim/62.jpeg",6,2,3,2,"Instruments",1,"stim/objects/Instruments/flutetrans3.png",2,"left","left",0.51699996,1,1,1
"292",78,285,0.9,"stim/63.jpeg",6,3,3,1,"Instruments",1,"stim/objects/Instruments/marimba4.png",3,"left","left",0.486999989,1,1,1
"293",78,286,0.9,"stim/63.jpeg",6,3,3,2,"Instruments",1,"stim/objects/Instruments/grandpiano3.png",3,"left","left",0.4599998,1,1,1
"294",78,287,0.9,"stim/64.jpeg",6,4,3,2,"Instruments",1,"stim/objects/Instruments/grandpiano3.png",3,"left","left",0.444000006,1,1,1
"295",78,288,0.5,"stim/12.jpeg",1,2,1,1,"HouseObjects",2,"stim/objects/HouseObjects/glassmop3.png",4,"right","right",0.60800004,1,1,1
"296",78,289,0.9,"stim/63.jpeg",6,3,3,2,"Instruments",1,"stim/objects/Instruments/flute3.png",2,"left","left",0.460000038,1,1,1
"297",78,290,0.9,"stim/52.jpeg",5,2,3,2,"HouseObjects",2,"stim/objects/HouseObjects/garbagebin3.png",2,"right","right",0.486000061,1,1,1
"298",78,291,0.9,"stim/52.jpeg",5,2,3,2,"HouseObjects",2,"stim/objects/HouseObjects/garbagebin3.png",4,"right","right",0.489000082,1,1,1
"299",78,292,0.7,"stim/32.jpeg",3,2,2,2,"HouseObjects",2,"stim/objects/HouseObjects/cushion3.png",1,"right","right",0.626999855,1,1,1
"300",78,293,0.1,"stim/63.jpeg",6,3,3,1,"HouseObjects",2,"stim/objects/HouseObjects/match4.png",2,"right","left",0.519000053,0,0,1
"301",78,294,0.5,"stim/22.jpeg",2,2,1,1,"Instruments",1,"stim/objects/Instruments/maraca3.png",3,"left","right",0.595999956,0,0,1
"302",78,295,0.9,"stim/51.jpeg",5,1,3,2,"HouseObjects",2,"stim/objects/HouseObjects/glass3.png",3,"right","right",0.473999977,1,1,1
"303",78,296,0.5,"stim/12.jpeg",1,2,1,2,"Instruments",1,"stim/objects/Instruments/bassdrum3.png",4,"left","left",0.654999971,1,1,1
"304",78,297,0.9,"stim/54.jpeg",5,4,3,2,"HouseObjects",2,"stim/objects/HouseObjects/dustpan3.png",2,"right","right",0.441999912,1,1,1
"305",78,298,0.3,"stim/42.jpeg",4,2,2,1,"HouseObjects",2,"stim/objects/HouseObjects/cushion4.png",2,"right","left",0.523000002,0,0,1
"306",78,299,0.9,"stim/52.jpeg",5,2,3,2,"HouseObjects",2,"stim/objects/HouseObjects/dustpan3.png",3,"right","right",0.493999958,1,1,1
"307",78,300,0.9,"stim/62.jpeg",6,2,3,2,"Instruments",1,"stim/objects/Instruments/flutetrans3.png",2,"left","left",0.506999969,1,1,1
"308",78,301,0.5,"stim/22.jpeg",2,2,1,1,"HouseObjects",2,"stim/objects/HouseObjects/knife3.png",2,"right","right",0.589999914,1,1,1
"309",78,302,0.9,"stim/62.jpeg",6,2,3,2,"Instruments",1,"stim/objects/Instruments/flute3.png",3,"left","left",0.463999987,1,1,1
"310",78,303,0.1,"stim/54.jpeg",5,4,3,1,"Instruments",1,"stim/objects/Instruments/harp4.png",2,"left","right",0.459000111,0,0,1
"311",78,304,0.7,"stim/41.jpeg",4,1,2,1,"Instruments",1,"stim/objects/Instruments/electricguitar4.png",3,"left","left",0.684000015,1,1,1
"312",78,305,0.5,"stim/23.jpeg",2,3,1,1,"Instruments",1,"stim/objects/Instruments/marimba3.png",2,"left","left",0.637000084,1,1,1
"313",78,306,0.1,"stim/62.jpeg",6,2,3,1,"HouseObjects",2,"stim/objects/HouseObjects/towel4.png",2,"right","left",0.558000088,0,0,1
"314",78,307,0.9,"stim/53.jpeg",5,3,3,2,"HouseObjects",2,"stim/objects/HouseObjects/doormat3.png",2,"right","right",0.544000149,1,1,1
"315",78,308,0.9,"stim/54.jpeg",5,4,3,2,"HouseObjects",2,"stim/objects/HouseObjects/glass3.png",1,"right","right",0.645999908,1,1,1
"316",78,309,0.5,"stim/21.jpeg",2,1,1,1,"HouseObjects",2,"stim/objects/HouseObjects/key3.png",4,"right","left",0.707000017,0,0,1
"317",78,310,0.5,"stim/24.jpeg",2,4,1,1,"HouseObjects",2,"stim/objects/HouseObjects/match3.png",3,"right","right",0.707000017,1,1,1
"318",78,311,0.9,"stim/63.jpeg",6,3,3,2,"Instruments",1,"stim/objects/Instruments/gong3.png",4,"left","left",0.505000114,1,1,1
"319",78,312,0.9,"stim/64.jpeg",6,4,3,2,"Instruments",1,"stim/objects/Instruments/grandpiano3.png",1,"left","left",0.476000071,1,1,1
"320",78,313,0.9,"stim/64.jpeg",6,4,3,2,"Instruments",1,"stim/objects/Instruments/flute3.png",4,"left","left",0.430000067,1,1,1
"321",78,314,0.7,"stim/33.jpeg",3,3,2,2,"HouseObjects",2,"stim/objects/HouseObjects/coffee3.png",1,"right","right",0.589999914,1,1,1
"322",78,315,0.7,"stim/43.jpeg",4,3,2,2,"Instruments",1,"stim/objects/Instruments/electricguitar3.png",4,"left","left",0.618999958,1,1,1
"323",78,316,0.9,"stim/54.jpeg",5,4,3,1,"HouseObjects",2,"stim/objects/HouseObjects/iron4.png",2,"right","right",0.444999933,1,1,1
"324",78,317,0.5,"stim/11.jpeg",1,1,1,1,"HouseObjects",2,"stim/objects/HouseObjects/handvacuum3.png",4,"right","left",0.53399992,0,0,1
"325",78,318,0.7,"stim/41.jpeg",4,1,2,2,"Instruments",1,"stim/objects/Instruments/drums3.png",3,"left","left",0.676000118,1,1,1
"326",78,319,0.9,"stim/63.jpeg",6,3,3,2,"Instruments",1,"stim/objects/Instruments/frenchhorn3.png",2,"left","left",0.592999935,1,1,1
"327",78,320,0.9,"stim/53.jpeg",5,3,3,2,"HouseObjects",2,"stim/objects/HouseObjects/dustpan3.png",4,"right","right",0.503000021,1,1,1
"328",78,321,0.5,"stim/21.jpeg",2,1,1,1,"Instruments",1,"stim/objects/Instruments/laud3.png",1,"left","left",0.719000101,1,1,1
"329",78,322,0.5,"stim/12.jpeg",1,2,1,2,"HouseObjects",2,"stim/objects/HouseObjects/barbecuelighter3.png",1,"right","left",0.773000002,0,0,1
"330",78,323,0.9,"stim/52.jpeg",5,2,3,2,"HouseObjects",2,"stim/objects/HouseObjects/dustpan3.png",1,"right","right",0.539000034,1,1,1
"331",78,324,0.5,"stim/14.jpeg",1,4,1,1,"HouseObjects",2,"stim/objects/HouseObjects/handbrush3.png",2,"right","right",0.715999842,1,1,1
"332",78,325,0.9,"stim/54.jpeg",5,4,3,2,"HouseObjects",2,"stim/objects/HouseObjects/doormat3.png",2,"right","right",0.459000111,1,1,1
"333",78,326,0.3,"stim/34.jpeg",3,4,2,1,"Instruments",1,"stim/objects/Instruments/balalaika4.png",2,"left","right",0.639999866,0,0,1
"334",78,327,0.3,"stim/32.jpeg",3,2,2,1,"Instruments",1,"stim/objects/Instruments/oboe3.png",4,"left","right",0.493000031,0,0,1
"335",78,328,0.9,"stim/51.jpeg",5,1,3,2,"HouseObjects",2,"stim/objects/HouseObjects/dustpan3.png",2,"right","right",0.488000154,1,1,1
"336",78,329,0.9,"stim/52.jpeg",5,2,3,2,"HouseObjects",2,"stim/objects/HouseObjects/flyswatter3.png",1,"right","right",0.523999929,1,1,1
"337",78,330,0.1,"stim/52.jpeg",5,2,3,1,"Instruments",1,"stim/objects/Instruments/keyboard4.png",4,"left","right",0.523000002,0,0,1
"338",78,331,0.9,"stim/52.jpeg",5,2,3,2,"HouseObjects",2,"stim/objects/HouseObjects/doormat3.png",1,"right","right",0.487999916,1,1,1
"339",78,332,0.9,"stim/51.jpeg",5,1,3,2,"HouseObjects",2,"stim/objects/HouseObjects/dustpan3.png",2,"right","right",0.406000137,1,1,1
"340",78,333,0.5,"stim/22.jpeg",2,2,1,2,"HouseObjects",2,"stim/objects/HouseObjects/clock3.png",2,"right","left",0.674999952,0,0,1
"341",78,334,0.9,"stim/52.jpeg",5,2,3,1,"HouseObjects",2,"stim/objects/HouseObjects/garbagebin4.png",1,"right","right",0.470999956,1,1,1
"342",78,335,0.1,"stim/54.jpeg",5,4,3,1,"Instruments",1,"stim/objects/Instruments/gong4.png",2,"left","right",0.572000027,0,0,1
"343",78,336,0.5,"stim/23.jpeg",2,3,1,2,"Instruments",1,"stim/objects/Instruments/clarinet3.png",1,"left","left",0.625999928,1,1,1
"344",78,337,0.5,"stim/22.jpeg",2,2,1,2,"HouseObjects",2,"stim/objects/HouseObjects/blender3.png",2,"right","",NA,0,0,1
"345",78,338,0.5,"stim/24.jpeg",2,4,1,2,"Instruments",1,"stim/objects/Instruments/cello3.png",4,"left","right",0.477999926,0,0,1
"346",78,339,0.5,"stim/11.jpeg",1,1,1,2,"Instruments",1,"stim/objects/Instruments/bassdrum3.png",3,"left","right",0.588999987,0,0,1
"347",78,340,0.5,"stim/23.jpeg",2,3,1,2,"HouseObjects",2,"stim/objects/HouseObjects/clock3.png",4,"right","left",0.640000105,0,0,1
"348",78,341,0.9,"stim/52.jpeg",5,2,3,2,"HouseObjects",2,"stim/objects/HouseObjects/flyswatter3.png",2,"right","right",0.557999849,1,1,1
"349",78,342,0.9,"stim/53.jpeg",5,3,3,2,"HouseObjects",2,"stim/objects/HouseObjects/flyswatter3.png",3,"right","right",0.559999943,1,1,1
"350",78,343,0.9,"stim/63.jpeg",6,3,3,2,"Instruments",1,"stim/objects/Instruments/flute3.png",1,"left","left",0.552999973,1,1,1
"351",78,344,0.3,"stim/41.jpeg",4,1,2,1,"HouseObjects",2,"stim/objects/HouseObjects/coffee4.png",3,"right","left",0.657000065,0,0,1
"352",78,345,0.7,"stim/33.jpeg",3,3,2,1,"HouseObjects",2,"stim/objects/HouseObjects/pitcher3.png",2,"right","right",0.826999903,1,1,1
"353",78,346,0.5,"stim/24.jpeg",2,4,1,1,"HouseObjects",2,"stim/objects/HouseObjects/ironingboard3.png",1,"right","left",0.723999977,0,0,1
"354",78,347,0.9,"stim/54.jpeg",5,4,3,2,"HouseObjects",2,"stim/objects/HouseObjects/doormat3.png",2,"right","right",0.573999882,1,1,1
"355",78,348,0.9,"stim/62.jpeg",6,2,3,2,"Instruments",1,"stim/objects/Instruments/frenchhorn3.png",2,"left","left",0.527999878,1,1,1
"356",78,349,0.9,"stim/62.jpeg",6,2,3,2,"Instruments",1,"stim/objects/Instruments/gong3.png",4,"left","left",0.561999798,1,1,1
"357",78,350,0.9,"stim/61.jpeg",6,1,3,2,"Instruments",1,"stim/objects/Instruments/flute3.png",1,"left","left",0.512000084,1,1,1
"358",78,351,0.3,"stim/32.jpeg",3,2,2,1,"Instruments",1,"stim/objects/Instruments/accordion4.png",4,"left","right",0.654999971,0,0,1
"359",78,352,0.5,"stim/21.jpeg",2,1,1,2,"Instruments",1,"stim/objects/Instruments/cello3.png",4,"left","left",0.722000122,1,1,1
"360",78,353,0.9,"stim/53.jpeg",5,3,3,1,"HouseObjects",2,"stim/objects/HouseObjects/doormat4.png",1,"right","right",0.555999994,1,1,1
"361",78,354,0.5,"stim/12.jpeg",1,2,1,2,"Instruments",1,"stim/objects/Instruments/acousticguitar3.png",2,"left","right",0.628000021,0,0,1
"362",78,355,0.7,"stim/44.jpeg",4,4,2,1,"Instruments",1,"stim/objects/Instruments/bassguitar4.png",1,"left","",NA,0,0,1
"363",78,356,0.3,"stim/43.jpeg",4,3,2,1,"HouseObjects",2,"stim/objects/HouseObjects/bottle4.png",3,"right","right",0.562999964,1,1,1
"364",78,357,0.5,"stim/14.jpeg",1,4,1,2,"HouseObjects",2,"stim/objects/HouseObjects/bleachbottle3.png",3,"right","left",0.60800004,0,0,1
"365",78,358,0.9,"stim/64.jpeg",6,4,3,2,"Instruments",1,"stim/objects/Instruments/frenchhorn3.png",3,"left","left",0.508000135,1,1,1
"366",78,359,0.9,"stim/51.jpeg",5,1,3,2,"HouseObjects",2,"stim/objects/HouseObjects/glass3.png",1,"right","right",0.440000057,1,1,1
"367",78,360,0.5,"stim/24.jpeg",2,4,1,2,"HouseObjects",2,"stim/objects/HouseObjects/bottle3.png",1,"right","left",0.625999928,0,0,1
"368",78,361,0.5,"stim/13.jpeg",1,3,1,2,"Instruments",1,"stim/objects/Instruments/balalaika3.png",1,"left","right",0.598999977,0,0,1
"369",78,362,0.9,"stim/52.jpeg",5,2,3,2,"HouseObjects",2,"stim/objects/HouseObjects/doormat3.png",3,"right","right",0.496000051,1,1,1
"370",78,363,0.9,"stim/61.jpeg",6,1,3,2,"Instruments",1,"stim/objects/Instruments/grandpiano3.png",4,"left","left",0.574999809,1,1,1
"371",78,364,0.9,"stim/64.jpeg",6,4,3,2,"Instruments",1,"stim/objects/Instruments/flute3.png",1,"left","left",0.493999958,1,1,1
"372",78,365,0.9,"stim/61.jpeg",6,1,3,1,"Instruments",1,"stim/objects/Instruments/vuvuzela4.png",4,"left","left",0.529000044,1,1,1
"373",78,366,0.3,"stim/43.jpeg",4,3,2,1,"HouseObjects",2,"stim/objects/HouseObjects/dishsoap4.png",1,"right","right",0.521000147,1,1,1
"374",78,367,0.9,"stim/54.jpeg",5,4,3,2,"HouseObjects",2,"stim/objects/HouseObjects/dustpan3.png",3,"right","right",0.556999922,1,1,1
"375",78,368,0.9,"stim/62.jpeg",6,2,3,2,"Instruments",1,"stim/objects/Instruments/flutetrans3.png",3,"left","left",0.628000021,1,1,1
"376",78,369,0.9,"stim/64.jpeg",6,4,3,2,"Instruments",1,"stim/objects/Instruments/flute3.png",4,"left","left",0.479000092,1,1,1
"377",78,370,0.9,"stim/52.jpeg",5,2,3,2,"HouseObjects",2,"stim/objects/HouseObjects/garbagebin3.png",1,"right","right",0.438000202,1,1,1
"378",78,371,0.5,"stim/21.jpeg",2,1,1,2,"HouseObjects",2,"stim/objects/HouseObjects/bucket3.png",4,"right","right",0.720000029,1,1,1
"379",78,372,0.9,"stim/53.jpeg",5,3,3,1,"HouseObjects",2,"stim/objects/HouseObjects/handvacuum4.png",3,"right","right",0.523000002,1,1,1
"380",78,373,0.9,"stim/54.jpeg",5,4,3,2,"HouseObjects",2,"stim/objects/HouseObjects/doormat3.png",3,"right","right",0.486000061,1,1,1
"381",78,374,0.5,"stim/14.jpeg",1,4,1,2,"HouseObjects",2,"stim/objects/HouseObjects/basket3.png",1,"right","left",0.676999807,0,0,1
"382",78,375,0.9,"stim/63.jpeg",6,3,3,2,"Instruments",1,"stim/objects/Instruments/gong3.png",4,"left","left",0.593999863,1,1,1
"383",78,376,0.7,"stim/42.jpeg",4,2,2,1,"Instruments",1,"stim/objects/Instruments/chime4.png",4,"left","left",0.832000017,1,1,1
"384",78,377,0.1,"stim/61.jpeg",6,1,3,1,"HouseObjects",2,"stim/objects/HouseObjects/knife4.png",3,"right","left",0.525999784,0,0,1
"385",78,378,0.9,"stim/53.jpeg",5,3,3,2,"HouseObjects",2,"stim/objects/HouseObjects/flyswatter3.png",2,"right","right",0.771000147,1,1,1
"386",78,379,0.5,"stim/22.jpeg",2,2,1,2,"HouseObjects",2,"stim/objects/HouseObjects/bucket3.png",3,"right","left",0.855999947,0,0,1
"387",78,380,0.9,"stim/51.jpeg",5,1,3,2,"HouseObjects",2,"stim/objects/HouseObjects/dustpan3.png",4,"right","right",0.478000164,1,1,1
"388",78,381,0.3,"stim/31.jpeg",3,1,2,1,"Instruments",1,"stim/objects/Instruments/banjo4.png",3,"left","left",0.678999901,1,1,1
"389",78,382,0.9,"stim/52.jpeg",5,2,3,2,"HouseObjects",2,"stim/objects/HouseObjects/flyswatter3.png",1,"right","right",0.595000029,1,1,1
"390",78,383,0.9,"stim/63.jpeg",6,3,3,2,"Instruments",1,"stim/objects/Instruments/gong3.png",3,"left","left",0.52699995,1,1,1
"391",78,384,0.5,"stim/23.jpeg",2,3,1,2,"Instruments",1,"stim/objects/Instruments/cornet3.png",3,"left","left",0.775999784,1,1,1
"392",78,385,0.5,"stim/11.jpeg",1,1,1,2,"HouseObjects",2,"stim/objects/HouseObjects/bleachbottle3.png",1,"right","left",0.565000057,0,0,1
"393",78,386,0.9,"stim/63.jpeg",6,3,3,2,"Instruments",1,"stim/objects/Instruments/gong3.png",4,"left","left",0.539999962,1,1,1
"394",78,387,0.9,"stim/64.jpeg",6,4,3,2,"Instruments",1,"stim/objects/Instruments/flutetrans3.png",3,"left","left",0.506999969,1,1,1
"395",78,388,0.3,"stim/44.jpeg",4,4,2,1,"HouseObjects",2,"stim/objects/HouseObjects/broom4.png",2,"right","right",0.678999901,1,1,1
"396",78,389,0.9,"stim/54.jpeg",5,4,3,2,"HouseObjects",2,"stim/objects/HouseObjects/glass3.png",2,"right","right",0.523999929,1,1,1
"397",78,390,0.9,"stim/52.jpeg",5,2,3,2,"HouseObjects",2,"stim/objects/HouseObjects/glass3.png",1,"right","left",0.524000168,0,0,1
"398",78,391,0.9,"stim/61.jpeg",6,1,3,2,"Instruments",1,"stim/objects/Instruments/frenchhorn3.png",1,"left","left",0.513000011,1,1,1
"399",78,392,0.9,"stim/62.jpeg",6,2,3,2,"Instruments",1,"stim/objects/Instruments/grandpiano3.png",2,"left","left",0.575999975,1,1,1
"400",78,393,0.7,"stim/43.jpeg",4,3,2,2,"Instruments",1,"stim/objects/Instruments/cymbal3.png",3,"left","right",0.654000044,0,0,1
"401",78,394,0.9,"stim/61.jpeg",6,1,3,2,"Instruments",1,"stim/objects/Instruments/flute3.png",1,"left","left",0.505999804,1,1,1
"402",78,395,0.9,"stim/53.jpeg",5,3,3,2,"HouseObjects",2,"stim/objects/HouseObjects/doormat3.png",3,"right","right",0.559999943,1,1,1
"403",78,396,0.5,"stim/14.jpeg",1,4,1,2,"Instruments",1,"stim/objects/Instruments/banjo3.png",4,"left","left",0.574999809,1,1,1
"404",78,397,0.9,"stim/62.jpeg",6,2,3,2,"Instruments",1,"stim/objects/Instruments/gong3.png",2,"left","left",0.528999805,1,1,1
"405",78,398,0.5,"stim/21.jpeg",2,1,1,2,"Instruments",1,"stim/objects/Instruments/chime3.png",2,"left","right",0.654999971,0,0,1
"406",78,399,0.7,"stim/33.jpeg",3,3,2,1,"HouseObjects",2,"stim/objects/HouseObjects/ashtray4.png",1,"right","right",0.631000042,1,1,1
"407",78,400,0.9,"stim/52.jpeg",5,2,3,2,"HouseObjects",2,"stim/objects/HouseObjects/glass3.png",2,"right","right",0.516000032,1,1,1
"408",78,401,0.9,"stim/61.jpeg",6,1,3,2,"Instruments",1,"stim/objects/Instruments/frenchhorn3.png",1,"left","left",0.521000147,1,1,1
"409",78,402,0.9,"stim/62.jpeg",6,2,3,2,"Instruments",1,"stim/objects/Instruments/grandpiano3.png",4,"left","left",0.565999985,1,1,1
"410",78,403,0.1,"stim/62.jpeg",6,2,3,1,"HouseObjects",2,"stim/objects/HouseObjects/lintroller4.png",4,"right","left",0.493000031,0,0,1
"411",78,404,0.9,"stim/53.jpeg",5,3,3,2,"HouseObjects",2,"stim/objects/HouseObjects/glass3.png",2,"right","right",0.520999908,1,1,1
"412",78,405,0.3,"stim/41.jpeg",4,1,2,1,"HouseObjects",2,"stim/objects/HouseObjects/bucket4.png",1,"right","left",0.712000132,0,0,1
"413",78,406,0.9,"stim/54.jpeg",5,4,3,2,"HouseObjects",2,"stim/objects/HouseObjects/garbagebin3.png",3,"right","",NA,0,0,1
"414",78,407,0.9,"stim/63.jpeg",6,3,3,2,"Instruments",1,"stim/objects/Instruments/frenchhorn3.png",4,"left","left",0.486999989,1,1,1
"415",78,408,0.9,"stim/62.jpeg",6,2,3,1,"Instruments",1,"stim/objects/Instruments/maraca4.png",4,"left","left",0.504999876,1,1,1
"416",78,409,0.9,"stim/63.jpeg",6,3,3,2,"Instruments",1,"stim/objects/Instruments/frenchhorn3.png",3,"left","left",0.470000029,1,1,1
"417",78,410,0.7,"stim/31.jpeg",3,1,2,1,"HouseObjects",2,"stim/objects/HouseObjects/barbecuelighter4.png",1,"right","right",0.490999937,1,1,1
"418",78,411,0.7,"stim/33.jpeg",3,3,2,2,"HouseObjects",2,"stim/objects/HouseObjects/cushion3.png",1,"right","right",0.484999895,1,1,1
"419",78,412,0.9,"stim/62.jpeg",6,2,3,2,"Instruments",1,"stim/objects/Instruments/grandpiano3.png",2,"left","left",0.474999905,1,1,1
"420",78,413,0.9,"stim/61.jpeg",6,1,3,2,"Instruments",1,"stim/objects/Instruments/flutetrans3.png",3,"left","left",0.470000029,1,1,1
"421",78,414,0.9,"stim/61.jpeg",6,1,3,2,"Instruments",1,"stim/objects/Instruments/gong3.png",1,"left","left",0.434000015,1,1,1
"422",78,415,0.5,"stim/14.jpeg",1,4,1,1,"Instruments",1,"stim/objects/Instruments/harmonica3.png",3,"left","right",0.552000046,0,0,1
"423",78,416,0.5,"stim/11.jpeg",1,1,1,2,"Instruments",1,"stim/objects/Instruments/banjo3.png",2,"left","left",0.537999868,1,1,1
"424",78,417,0.5,"stim/13.jpeg",1,3,1,1,"HouseObjects",2,"stim/objects/HouseObjects/hairdryer3.png",1,"right","left",0.604000092,0,0,1
"425",78,418,0.1,"stim/51.jpeg",5,1,3,1,"Instruments",1,"stim/objects/Instruments/grandpiano4.png",4,"left","right",0.521000147,0,0,1
"426",78,419,0.9,"stim/54.jpeg",5,4,3,2,"HouseObjects",2,"stim/objects/HouseObjects/doormat3.png",4,"right","right",0.503999949,1,1,1
"427",78,420,0.5,"stim/13.jpeg",1,3,1,2,"HouseObjects",2,"stim/objects/HouseObjects/barbecuelighter3.png",3,"right","left",0.592999935,0,0,1
"428",78,421,0.3,"stim/44.jpeg",4,4,2,1,"HouseObjects",2,"stim/objects/HouseObjects/clothespin4.png",4,"right","left",0.588000059,0,0,1
"429",78,422,0.1,"stim/52.jpeg",5,2,3,1,"Instruments",1,"stim/objects/Instruments/guitarcase4.png",2,"left","right",0.487999916,0,0,1
"430",78,423,0.9,"stim/54.jpeg",5,4,3,1,"HouseObjects",2,"stim/objects/HouseObjects/glassmop4.png",3,"right","right",0.460000038,1,1,1
"431",78,424,0.1,"stim/63.jpeg",6,3,3,1,"HouseObjects",2,"stim/objects/HouseObjects/vacuumcleaner4.png",4,"right","left",0.506999969,0,0,1
"432",78,425,0.9,"stim/51.jpeg",5,1,3,2,"HouseObjects",2,"stim/objects/HouseObjects/garbagebin3.png",4,"right","right",0.425000191,1,1,1
"433",78,426,0.9,"stim/52.jpeg",5,2,3,2,"HouseObjects",2,"stim/objects/HouseObjects/glass3.png",2,"right","right",0.489000082,1,1,1
"434",78,427,0.1,"stim/53.jpeg",5,3,3,1,"Instruments",1,"stim/objects/Instruments/frenchhorn4.png",4,"left","left",0.727999926,1,1,1
"435",78,428,0.7,"stim/44.jpeg",4,4,2,1,"Instruments",1,"stim/objects/Instruments/electricdrumset4.png",3,"left","left",0.707999945,1,1,1
"436",78,429,0.9,"stim/53.jpeg",5,3,3,2,"HouseObjects",2,"stim/objects/HouseObjects/garbagebin3.png",4,"right","right",0.45299983,1,1,1
"437",78,430,0.9,"stim/61.jpeg",6,1,3,2,"Instruments",1,"stim/objects/Instruments/flutetrans3.png",3,"left","left",0.460000038,1,1,1
"438",78,431,0.5,"stim/13.jpeg",1,3,1,2,"Instruments",1,"stim/objects/Instruments/acousticguitar3.png",3,"left","right",0.654000044,0,0,1
"439",78,432,0.9,"stim/52.jpeg",5,2,3,2,"HouseObjects",2,"stim/objects/HouseObjects/doormat3.png",2,"right","right",0.521000147,1,1,1
"440",78,433,0.5,"stim/12.jpeg",1,2,1,1,"Instruments",1,"stim/objects/Instruments/hihat3.png",3,"left","left",0.622999907,1,1,1
"441",78,434,0.9,"stim/64.jpeg",6,4,3,2,"Instruments",1,"stim/objects/Instruments/grandpiano3.png",3,"left","left",0.507999897,1,1,1
"442",78,435,0.9,"stim/51.jpeg",5,1,3,2,"HouseObjects",2,"stim/objects/HouseObjects/garbagebin3.png",1,"right","right",0.43200016,1,1,1
"443",78,436,0.1,"stim/51.jpeg",5,1,3,1,"Instruments",1,"stim/objects/Instruments/hihat4.png",2,"left","right",0.434999943,0,0,1
"444",78,437,0.9,"stim/62.jpeg",6,2,3,2,"Instruments",1,"stim/objects/Instruments/flute3.png",3,"left","left",0.489000082,1,1,1
"445",78,438,0.9,"stim/63.jpeg",6,3,3,2,"Instruments",1,"stim/objects/Instruments/grandpiano3.png",3,"left","left",0.471999884,1,1,1
"446",78,439,0.9,"stim/61.jpeg",6,1,3,2,"Instruments",1,"stim/objects/Instruments/grandpiano3.png",1,"left","left",0.639999866,1,1,1
"447",78,440,0.9,"stim/54.jpeg",5,4,3,2,"HouseObjects",2,"stim/objects/HouseObjects/garbagebin3.png",3,"right","right",0.659000158,1,1,1
"448",78,441,0.9,"stim/52.jpeg",5,2,3,2,"HouseObjects",2,"stim/objects/HouseObjects/flyswatter3.png",1,"right","right",0.580000162,1,1,1
"449",78,442,0.9,"stim/64.jpeg",6,4,3,2,"Instruments",1,"stim/objects/Instruments/gong3.png",2,"left","left",0.558000088,1,1,1
"450",78,443,0.7,"stim/34.jpeg",3,4,2,2,"HouseObjects",2,"stim/objects/HouseObjects/cushion3.png",1,"right","right",0.710999966,1,1,1
"451",78,444,0.9,"stim/62.jpeg",6,2,3,2,"Instruments",1,"stim/objects/Instruments/grandpiano3.png",3,"left","left",0.588999987,1,1,1
"452",78,445,0.7,"stim/44.jpeg",4,4,2,2,"Instruments",1,"stim/objects/Instruments/electricdrumset3.png",1,"left","left",0.691999912,1,1,1
"453",78,446,0.9,"stim/54.jpeg",5,4,3,2,"HouseObjects",2,"stim/objects/HouseObjects/flyswatter3.png",3,"right","right",0.644999981,1,1,1
"454",78,447,0.7,"stim/41.jpeg",4,1,2,1,"Instruments",1,"stim/objects/Instruments/cello4.png",1,"left","left",0.705000162,1,1,1
"455",78,448,0.5,"stim/21.jpeg",2,1,1,1,"Instruments",1,"stim/objects/Instruments/musicsheet3.png",1,"left","right",0.694000006,0,0,1
"456",78,449,0.1,"stim/64.jpeg",6,4,3,1,"HouseObjects",2,"stim/objects/HouseObjects/pan4.png",2,"right","left",0.473999977,0,0,1
"457",78,450,0.9,"stim/52.jpeg",5,2,3,1,"HouseObjects",2,"stim/objects/HouseObjects/handbrush4.png",1,"right","right",0.520999908,1,1,1
"458",78,451,0.9,"stim/53.jpeg",5,3,3,2,"HouseObjects",2,"stim/objects/HouseObjects/flyswatter3.png",3,"right","right",0.529999971,1,1,1
"459",78,452,0.5,"stim/14.jpeg",1,4,1,2,"Instruments",1,"stim/objects/Instruments/balalaika3.png",1,"left","left",0.656000137,1,1,1
"460",78,453,0.3,"stim/32.jpeg",3,2,2,1,"Instruments",1,"stim/objects/Instruments/bassdrum4.png",3,"left","right",0.552999973,0,0,1
"461",78,454,0.9,"stim/64.jpeg",6,4,3,2,"Instruments",1,"stim/objects/Instruments/gong3.png",1,"left","left",0.534000158,1,1,1
"462",78,455,0.9,"stim/52.jpeg",5,2,3,2,"HouseObjects",2,"stim/objects/HouseObjects/garbagebin3.png",3,"right","right",0.505999804,1,1,1
"463",78,456,0.9,"stim/51.jpeg",5,1,3,2,"HouseObjects",2,"stim/objects/HouseObjects/garbagebin3.png",1,"right","right",0.472999811,1,1,1
"464",78,457,0.9,"stim/54.jpeg",5,4,3,2,"HouseObjects",2,"stim/objects/HouseObjects/dustpan3.png",1,"right","right",0.555000067,1,1,1
"465",78,458,0.7,"stim/42.jpeg",4,2,2,2,"Instruments",1,"stim/objects/Instruments/cymbal3.png",4,"left","left",0.663000107,1,1,1
"466",78,459,0.9,"stim/51.jpeg",5,1,3,1,"HouseObjects",2,"stim/objects/HouseObjects/hairdryer4.png",4,"right","right",0.437999964,1,1,1
"467",78,460,0.5,"stim/12.jpeg",1,2,1,2,"Instruments",1,"stim/objects/Instruments/accordion3.png",4,"left","left",0.661000013,1,1,1
"468",78,461,0.9,"stim/63.jpeg",6,3,3,2,"Instruments",1,"stim/objects/Instruments/grandpiano3.png",1,"left","left",0.539999962,1,1,1
"469",78,462,0.7,"stim/41.jpeg",4,1,2,2,"Instruments",1,"stim/objects/Instruments/electricguitar3.png",2,"left","left",0.587000132,1,1,1
"470",78,463,0.9,"stim/62.jpeg",6,2,3,2,"Instruments",1,"stim/objects/Instruments/frenchhorn3.png",4,"left","left",0.492999792,1,1,1
"471",78,464,0.9,"stim/61.jpeg",6,1,3,2,"Instruments",1,"stim/objects/Instruments/gong3.png",4,"left","left",0.530999899,1,1,1
"472",78,465,0.7,"stim/44.jpeg",4,4,2,2,"Instruments",1,"stim/objects/Instruments/doublebass3.png",2,"left","left",0.703999996,1,1,1
"473",78,466,0.9,"stim/51.jpeg",5,1,3,2,"HouseObjects",2,"stim/objects/HouseObjects/glass3.png",4,"right","right",0.526000023,1,1,1
"474",78,467,0.9,"stim/54.jpeg",5,4,3,2,"HouseObjects",2,"stim/objects/HouseObjects/dustpan3.png",1,"right","left",0.475000143,0,0,1
"475",78,468,0.9,"stim/61.jpeg",6,1,3,1,"Instruments",1,"stim/objects/Instruments/musicsheet4.png",1,"left","left",0.554000139,1,1,1
"476",78,469,0.9,"stim/64.jpeg",6,4,3,2,"Instruments",1,"stim/objects/Instruments/flute3.png",3,"left","left",0.505000114,1,1,1
"477",78,470,0.1,"stim/61.jpeg",6,1,3,1,"HouseObjects",2,"stim/objects/HouseObjects/pitcher4.png",4,"right","left",0.606999874,0,0,1
"478",78,471,0.7,"stim/32.jpeg",3,2,2,2,"HouseObjects",2,"stim/objects/HouseObjects/coffee3.png",2,"right","right",0.539000034,1,1,1
"479",78,472,0.9,"stim/53.jpeg",5,3,3,2,"HouseObjects",2,"stim/objects/HouseObjects/dustpan3.png",4,"right","right",0.586999893,1,1,1
"480",78,473,0.7,"stim/32.jpeg",3,2,2,1,"HouseObjects",2,"stim/objects/HouseObjects/basket4.png",2,"right","right",0.594000101,1,1,1
"481",78,474,0.9,"stim/63.jpeg",6,3,3,2,"Instruments",1,"stim/objects/Instruments/grandpiano3.png",3,"left","left",0.471999884,1,1,1
"482",78,475,0.9,"stim/61.jpeg",6,1,3,2,"Instruments",1,"stim/objects/Instruments/flutetrans3.png",1,"left","left",0.404999971,1,1,1
"483",78,476,0.9,"stim/53.jpeg",5,3,3,1,"HouseObjects",2,"stim/objects/HouseObjects/glass4.png",4,"right","right",0.496000051,1,1,1
"484",78,477,0.7,"stim/33.jpeg",3,3,2,2,"HouseObjects",2,"stim/objects/HouseObjects/clothesdryingrack3.png",4,"right","right",0.706999779,1,1,1
"485",78,478,0.1,"stim/64.jpeg",6,4,3,1,"HouseObjects",2,"stim/objects/HouseObjects/key4.png",4,"right","left",0.652999878,0,0,1
"486",78,479,0.5,"stim/21.jpeg",2,1,1,2,"HouseObjects",2,"stim/objects/HouseObjects/broom3.png",3,"right","right",0.552000046,1,1,1
"487",78,480,0.9,"stim/64.jpeg",6,4,3,1,"Instruments",1,"stim/objects/Instruments/violin4.png",3,"left","left",0.490999937,1,1,1
"488",78,481,0.7,"stim/43.jpeg",4,3,2,2,"Instruments",1,"stim/objects/Instruments/drums3.png",3,"left","left",0.558999777,1,1,1
"489",78,482,0.9,"stim/64.jpeg",6,4,3,2,"Instruments",1,"stim/objects/Instruments/gong3.png",2,"left","left",0.521000147,1,1,1
"490",78,483,0.9,"stim/64.jpeg",6,4,3,2,"Instruments",1,"stim/objects/Instruments/grandpiano3.png",4,"left","left",0.404999971,1,1,1
"491",78,484,0.9,"stim/51.jpeg",5,1,3,2,"HouseObjects",2,"stim/objects/HouseObjects/glass3.png",3,"right","right",0.508000135,1,1,1
"492",78,485,0.7,"stim/31.jpeg",3,1,2,1,"HouseObjects",2,"stim/objects/HouseObjects/vacuumcleaner3.png",3,"right","right",0.486000061,1,1,1
"493",78,486,0.1,"stim/51.jpeg",5,1,3,1,"Instruments",1,"stim/objects/Instruments/flute4.png",3,"left","right",0.542000055,0,0,1
"494",78,487,0.9,"stim/51.jpeg",5,1,3,2,"HouseObjects",2,"stim/objects/HouseObjects/doormat3.png",3,"right","right",0.427999973,1,1,1
"495",78,488,0.5,"stim/11.jpeg",1,1,1,2,"HouseObjects",2,"stim/objects/HouseObjects/ballofstring3.png",2,"right","left",0.604999781,0,0,1
"496",78,489,0.9,"stim/63.jpeg",6,3,3,2,"Instruments",1,"stim/objects/Instruments/flutetrans3.png",1,"left","left",0.525000095,1,1,1
"497",78,490,0.7,"stim/34.jpeg",3,4,2,1,"HouseObjects",2,"stim/objects/HouseObjects/towel3.png",2,"right","right",0.729000092,1,1,1
"498",78,491,0.9,"stim/54.jpeg",5,4,3,2,"HouseObjects",2,"stim/objects/HouseObjects/flyswatter3.png",2,"right","right",0.500999928,1,1,1
"499",78,492,0.9,"stim/51.jpeg",5,1,3,1,"HouseObjects",2,"stim/objects/HouseObjects/flyswatter4.png",1,"right","right",0.516000032,1,1,1
"500",78,493,0.9,"stim/64.jpeg",6,4,3,2,"Instruments",1,"stim/objects/Instruments/flutetrans3.png",1,"left","left",0.58100009,1,1,1
"501",78,494,0.9,"stim/53.jpeg",5,3,3,2,"HouseObjects",2,"stim/objects/HouseObjects/doormat3.png",2,"right","right",0.421000004,1,1,1
"502",78,495,0.9,"stim/53.jpeg",5,3,3,2,"HouseObjects",2,"stim/objects/HouseObjects/garbagebin3.png",4,"right","right",0.476000071,1,1,1
"503",78,496,0.7,"stim/43.jpeg",4,3,2,2,"Instruments",1,"stim/objects/Instruments/doublebass3.png",2,"left","left",0.539000034,1,1,1
"504",78,497,0.9,"stim/54.jpeg",5,4,3,2,"HouseObjects",2,"stim/objects/HouseObjects/garbagebin3.png",3,"right","right",0.480999947,1,1,1
"505",78,498,0.9,"stim/63.jpeg",6,3,3,2,"Instruments",1,"stim/objects/Instruments/flutetrans3.png",3,"left","left",0.554000139,1,1,1
"506",78,499,0.9,"stim/61.jpeg",6,1,3,2,"Instruments",1,"stim/objects/Instruments/flute3.png",1,"left","left",0.490999937,1,1,1
"507",78,500,0.5,"stim/24.jpeg",2,4,1,2,"Instruments",1,"stim/objects/Instruments/cornet3.png",3,"left","right",0.603999853,0,0,1
"508",78,501,0.9,"stim/51.jpeg",5,1,3,2,"HouseObjects",2,"stim/objects/HouseObjects/flyswatter3.png",3,"right","right",0.573999882,1,1,1
"509",78,502,0.7,"stim/31.jpeg",3,1,2,2,"HouseObjects",2,"stim/objects/HouseObjects/clothesdryingrack3.png",1,"right","right",0.805999994,1,1,1
"510",78,503,0.9,"stim/61.jpeg",6,1,3,2,"Instruments",1,"stim/objects/Instruments/gong3.png",4,"left","left",0.504999876,1,1,1
"511",78,504,0.9,"stim/62.jpeg",6,2,3,2,"Instruments",1,"stim/objects/Instruments/flute3.png",3,"left","left",0.527999878,1,1,1
"512",78,505,0.7,"stim/32.jpeg",3,2,2,1,"HouseObjects",2,"stim/objects/HouseObjects/pan3.png",2,"right","right",0.487999916,1,1,1
"513",78,506,0.5,"stim/23.jpeg",2,3,1,2,"Instruments",1,"stim/objects/Instruments/bassguitar3.png",4,"left","left",0.604000092,1,1,1
"514",78,507,0.9,"stim/53.jpeg",5,3,3,2,"HouseObjects",2,"stim/objects/HouseObjects/flyswatter3.png",1,"right","right",0.508999825,1,1,1
"515",78,508,0.7,"stim/34.jpeg",3,4,2,2,"HouseObjects",2,"stim/objects/HouseObjects/clothespin3.png",4,"right","right",0.546000004,1,1,1
"516",78,509,0.9,"stim/54.jpeg",5,4,3,2,"HouseObjects",2,"stim/objects/HouseObjects/flyswatter3.png",4,"right","right",0.481000185,1,1,1
"517",78,510,0.9,"stim/62.jpeg",6,2,3,2,"Instruments",1,"stim/objects/Instruments/flutetrans3.png",4,"left","left",0.491999865,1,1,1
"518",78,511,0.9,"stim/64.jpeg",6,4,3,2,"Instruments",1,"stim/objects/Instruments/frenchhorn3.png",1,"left","right",0.390000105,0,0,1
"519",78,512,0.5,"stim/12.jpeg",1,2,1,2,"HouseObjects",2,"stim/objects/HouseObjects/ballofstring3.png",4,"right","left",0.662000179,0,0,1
"520",78,513,0.5,"stim/24.jpeg",2,4,1,2,"Instruments",1,"stim/objects/Instruments/bassguitar3.png",2,"left","",NA,0,0,1
"521",78,514,0.9,"stim/61.jpeg",6,1,3,2,"Instruments",1,"stim/objects/Instruments/gong3.png",1,"left","left",0.489000082,1,1,1
"522",78,515,0.9,"stim/52.jpeg",5,2,3,2,"HouseObjects",2,"stim/objects/HouseObjects/dustpan3.png",4,"right","right",0.490999937,1,1,1
"523",78,516,0.5,"stim/24.jpeg",2,4,1,2,"HouseObjects",2,"stim/objects/HouseObjects/broom3.png",4,"right","left",0.546999931,0,0,1
"524",78,517,0.9,"stim/62.jpeg",6,2,3,1,"Instruments",1,"stim/objects/Instruments/musicstand4.png",2,"left","left",0.505000114,1,1,1
"525",78,518,0.1,"stim/64.jpeg",6,4,3,1,"HouseObjects",2,"stim/objects/HouseObjects/wateringcan4.png",2,"right","left",0.478000164,0,0,1
"526",78,519,0.7,"stim/43.jpeg",4,3,2,1,"Instruments",1,"stim/objects/Instruments/drums4.png",4,"left","left",0.641000032,1,1,1
"527",78,520,0.7,"stim/41.jpeg",4,1,2,1,"Instruments",1,"stim/objects/Instruments/cymbal4.png",2,"left","left",0.530999899,1,1,1
"528",78,521,0.7,"stim/33.jpeg",3,3,2,2,"HouseObjects",2,"stim/objects/HouseObjects/dishsoap3.png",4,"right","right",0.602999926,1,1,1
"529",78,522,0.9,"stim/61.jpeg",6,1,3,2,"Instruments",1,"stim/objects/Instruments/flutetrans3.png",2,"left","left",0.512000084,1,1,1
"530",78,523,0.3,"stim/42.jpeg",4,2,2,1,"HouseObjects",2,"stim/objects/HouseObjects/clock4.png",2,"right","left",0.60800004,0,0,1
"531",78,524,0.7,"stim/32.jpeg",3,2,2,1,"HouseObjects",2,"stim/objects/HouseObjects/wateringcan3.png",3,"right","right",0.540999889,1,1,1
"532",78,525,0.7,"stim/34.jpeg",3,4,2,2,"HouseObjects",2,"stim/objects/HouseObjects/clothesdryingrack3.png",3,"right","right",0.575000048,1,1,1
"533",78,526,0.5,"stim/24.jpeg",2,4,1,1,"Instruments",1,"stim/objects/Instruments/metronome3.png",2,"left","left",0.604000092,1,1,1
"534",78,527,0.9,"stim/54.jpeg",5,4,3,2,"HouseObjects",2,"stim/objects/HouseObjects/garbagebin3.png",2,"right","right",0.517999887,1,1,1
"535",78,528,0.9,"stim/61.jpeg",6,1,3,2,"Instruments",1,"stim/objects/Instruments/grandpiano3.png",1,"left","left",0.536000013,1,1,1
"536",78,529,0.3,"stim/42.jpeg",4,2,2,1,"HouseObjects",2,"stim/objects/HouseObjects/blender4.png",2,"right","",NA,0,0,1
"537",78,530,0.5,"stim/23.jpeg",2,3,1,1,"HouseObjects",2,"stim/objects/HouseObjects/lintroller3.png",3,"right","left",0.502000093,0,0,1
"538",78,531,0.5,"stim/22.jpeg",2,2,1,2,"Instruments",1,"stim/objects/Instruments/clarinet3.png",1,"left","left",0.59100008,1,1,1
"539",78,532,0.5,"stim/11.jpeg",1,1,1,2,"HouseObjects",2,"stim/objects/HouseObjects/ashtray3.png",4,"right","left",0.588000059,0,0,1
"540",78,533,0.9,"stim/54.jpeg",5,4,3,1,"HouseObjects",2,"stim/objects/HouseObjects/dustpan4.png",2,"right","right",0.577000141,1,1,1
"541",78,534,0.7,"stim/43.jpeg",4,3,2,1,"Instruments",1,"stim/objects/Instruments/clarinet4.png",3,"left","left",0.539000034,1,1,1
"542",78,535,0.3,"stim/43.jpeg",4,3,2,1,"HouseObjects",2,"stim/objects/HouseObjects/clothesdryingrack4.png",2,"right","left",0.576999903,0,0,1
"543",78,536,0.7,"stim/34.jpeg",3,4,2,1,"HouseObjects",2,"stim/objects/HouseObjects/ballofstring4.png",4,"right","right",0.555999994,1,1,1
"544",78,537,0.5,"stim/23.jpeg",2,3,1,2,"HouseObjects",2,"stim/objects/HouseObjects/bottle3.png",3,"right","left",0.494999886,0,0,1
"545",78,538,0.9,"stim/53.jpeg",5,3,3,2,"HouseObjects",2,"stim/objects/HouseObjects/garbagebin3.png",3,"right","right",0.480999947,1,1,1
"546",78,539,0.3,"stim/33.jpeg",3,3,2,1,"Instruments",1,"stim/objects/Instruments/acousticguitar4.png",3,"left","right",0.603000164,0,0,1
"547",78,540,0.1,"stim/53.jpeg",5,3,3,1,"Instruments",1,"stim/objects/Instruments/harmonica4.png",3,"left","right",0.529999971,0,0,1
"548",78,541,0.9,"stim/63.jpeg",6,3,3,2,"Instruments",1,"stim/objects/Instruments/flute3.png",1,"left","left",0.555999994,1,1,1
"549",78,542,0.9,"stim/62.jpeg",6,2,3,2,"Instruments",1,"stim/objects/Instruments/flute3.png",1,"left","left",0.531000137,1,1,1
"550",78,543,0.9,"stim/61.jpeg",6,1,3,1,"Instruments",1,"stim/objects/Instruments/laud4.png",2,"left","left",0.506999969,1,1,1
"551",78,544,0.5,"stim/11.jpeg",1,1,1,1,"Instruments",1,"stim/objects/Instruments/harp3.png",2,"left","left",0.595000029,1,1,1
"552",78,545,0.1,"stim/52.jpeg",5,2,3,1,"Instruments",1,"stim/objects/Instruments/flutetrans4.png",4,"left","right",0.493000031,0,0,1
"553",78,546,0.9,"stim/64.jpeg",6,4,3,1,"Instruments",1,"stim/objects/Instruments/metronome4.png",2,"left","left",0.486999989,1,1,1
"554",78,547,0.5,"stim/13.jpeg",1,3,1,2,"HouseObjects",2,"stim/objects/HouseObjects/basket3.png",3,"right","left",0.659000158,0,0,1
"555",78,548,0.9,"stim/62.jpeg",6,2,3,2,"Instruments",1,"stim/objects/Instruments/gong3.png",1,"left","left",0.486999989,1,1,1
"556",78,549,0.7,"stim/42.jpeg",4,2,2,1,"Instruments",1,"stim/objects/Instruments/doublebass4.png",4,"left","right",0.506000042,0,0,1
"557",78,550,0.9,"stim/64.jpeg",6,4,3,2,"Instruments",1,"stim/objects/Instruments/flutetrans3.png",1,"left","left",0.487999916,1,1,1
"558",78,551,0.9,"stim/51.jpeg",5,1,3,2,"HouseObjects",2,"stim/objects/HouseObjects/flyswatter3.png",4,"right","right",0.541000128,1,1,1
"559",78,552,0.9,"stim/62.jpeg",6,2,3,2,"Instruments",1,"stim/objects/Instruments/frenchhorn3.png",2,"left","left",0.487999916,1,1,1
"560",78,553,0.9,"stim/51.jpeg",5,1,3,2,"HouseObjects",2,"stim/objects/HouseObjects/doormat3.png",2,"right","right",0.642999887,1,1,1
"561",78,554,0.1,"stim/63.jpeg",6,3,3,1,"HouseObjects",2,"stim/objects/HouseObjects/ironingboard4.png",4,"right","left",0.518000126,0,0,1
"562",78,555,0.7,"stim/42.jpeg",4,2,2,2,"Instruments",1,"stim/objects/Instruments/electricguitar3.png",1,"left","left",0.746000051,1,1,1
"563",78,556,0.9,"stim/63.jpeg",6,3,3,2,"Instruments",1,"stim/objects/Instruments/flutetrans3.png",4,"left","left",0.475000143,1,1,1
"564",78,557,0.9,"stim/61.jpeg",6,1,3,2,"Instruments",1,"stim/objects/Instruments/flute3.png",2,"left","left",0.453999996,1,1,1
"565",78,558,0.3,"stim/31.jpeg",3,1,2,1,"Instruments",1,"stim/objects/Instruments/xylophone3.png",3,"left","right",0.570999861,0,0,1
"566",78,559,0.9,"stim/51.jpeg",5,1,3,2,"HouseObjects",2,"stim/objects/HouseObjects/flyswatter3.png",3,"right","right",0.539000034,1,1,1
"567",78,560,0.7,"stim/32.jpeg",3,2,2,2,"HouseObjects",2,"stim/objects/HouseObjects/clothespin3.png",1,"right","right",0.754000187,1,1,1
"568",78,561,0.9,"stim/53.jpeg",5,3,3,2,"HouseObjects",2,"stim/objects/HouseObjects/garbagebin3.png",4,"right","right",0.634000063,1,1,1
"569",78,562,0.7,"stim/41.jpeg",4,1,2,2,"Instruments",1,"stim/objects/Instruments/electricdrumset3.png",1,"left","left",0.687999964,1,1,1
"570",78,563,0.5,"stim/12.jpeg",1,2,1,1,"HouseObjects",2,"stim/objects/HouseObjects/iron3.png",2,"right","right",0.571000099,1,1,1
"571",78,564,0.7,"stim/42.jpeg",4,2,2,2,"Instruments",1,"stim/objects/Instruments/electricdrumset3.png",3,"left","left",0.487999916,1,1,1
"572",78,565,0.9,"stim/62.jpeg",6,2,3,1,"Instruments",1,"stim/objects/Instruments/xylophone4.png",4,"left","left",0.546000004,1,1,1
"573",78,566,0.9,"stim/64.jpeg",6,4,3,2,"Instruments",1,"stim/objects/Instruments/frenchhorn3.png",3,"left","left",0.519999981,1,1,1
"574",78,567,0.9,"stim/54.jpeg",5,4,3,2,"HouseObjects",2,"stim/objects/HouseObjects/flyswatter3.png",2,"right","right",0.51699996,1,1,1
"575",78,568,0.7,"stim/33.jpeg",3,3,2,1,"HouseObjects",2,"stim/objects/HouseObjects/bleachbottle4.png",2,"right","right",0.532999992,1,1,1
"576",78,569,0.9,"stim/64.jpeg",6,4,3,2,"Instruments",1,"stim/objects/Instruments/frenchhorn3.png",3,"left","left",0.59800005,1,1,1
"577",78,570,0.9,"stim/54.jpeg",5,4,3,2,"HouseObjects",2,"stim/objects/HouseObjects/glass3.png",3,"right","right",0.582000017,1,1,1
