"","obj_file","X.x","participant.x","trialN.x","trial_cond","scn_file.x","scn_cat","scn_inst","scn_condition","fillers","obj_cat","obj_cat_num","quadrant","corr_ans","key_resp_trial.keys","key_resp_trial.rt","trial_acc","trial_acc_manual","group.x","practice","X.y","participant.y","OvsN","PE_level","object_cat","scn_file.y","corr_scn_cat","corr_scn_inst","scn_file.1","corr_loc","key_resp_id.keys","key_resp_id.rt","key_resp_conf.keys","key_resp_assoc.keys","key_resp_assoc.rt","key_resp_loc.keys","key_resp_loc.rt","trialN.y","id_acc","assoc.acc","cond_assoc","loc.acc","cond_loc","group.y"
"158","stim/objects/Instruments/metronome2.png",1,37,1,0.9,"stim/31.jpeg",3,1,3,NA,"Instruments",2,3,"right","",NA,0,0,1,1,NA,NA,NA,NA,NA,NA,NA,NA,NA,NA,NA,NA,NA,NA,NA,NA,NA,NA,NA,NA,NA,NA,NA,NA
"200","stim/objects/Instruments/oboe2.png",2,37,2,0.9,"stim/34.jpeg",3,4,3,NA,"Instruments",2,1,"right","right",0.757999897,1,1,1,1,NA,NA,NA,NA,NA,NA,NA,NA,NA,NA,NA,NA,NA,NA,NA,NA,NA,NA,NA,NA,NA,NA,NA,NA
"217","stim/objects/Instruments/pipepiano.png",3,37,3,0.7,"stim/12.jpeg",1,2,2,NA,"Instruments",2,3,"right","right",0.687000036,1,1,1,1,NA,NA,NA,NA,NA,NA,NA,NA,NA,NA,NA,NA,NA,NA,NA,NA,NA,NA,NA,NA,NA,NA,NA,NA
"233","stim/objects/Instruments/record.png",4,37,4,0.7,"stim/13.jpeg",1,3,2,NA,"Instruments",2,2,"right","right",0.620999813,1,1,1,1,NA,NA,NA,NA,NA,NA,NA,NA,NA,NA,NA,NA,NA,NA,NA,NA,NA,NA,NA,NA,NA,NA,NA,NA
"37","stim/objects/HouseObjects/knife.png",5,37,5,0.5,"stim/54.jpeg",5,4,1,NA,"HouseObjects",1,4,"left","left",0.555999994,1,1,1,1,NA,NA,NA,NA,NA,NA,NA,NA,NA,NA,NA,NA,NA,NA,NA,NA,NA,NA,NA,NA,NA,NA,NA,NA
"142","stim/objects/Instruments/maraca2.png",6,37,6,0.3,"stim/23.jpeg",2,3,2,NA,"Instruments",2,2,"right","right",0.682999849,1,1,1,1,NA,NA,NA,NA,NA,NA,NA,NA,NA,NA,NA,NA,NA,NA,NA,NA,NA,NA,NA,NA,NA,NA,NA,NA
"13","stim/objects/HouseObjects/ironingboard.png",7,37,7,0.5,"stim/52.jpeg",5,2,1,NA,"HouseObjects",1,2,"left","left",0.709000111,1,1,1,1,NA,NA,NA,NA,NA,NA,NA,NA,NA,NA,NA,NA,NA,NA,NA,NA,NA,NA,NA,NA,NA,NA,NA,NA
"159","stim/objects/Instruments/metronome2.png",8,37,8,0.9,"stim/31.jpeg",3,1,3,NA,"Instruments",2,3,"right","right",0.5,1,1,1,1,NA,NA,NA,NA,NA,NA,NA,NA,NA,NA,NA,NA,NA,NA,NA,NA,NA,NA,NA,NA,NA,NA,NA,NA
"181","stim/objects/Instruments/musicstand.png",9,37,9,0.5,"stim/63.jpeg",6,3,1,NA,"Instruments",2,1,"right","right",0.516000032,1,1,1,1,NA,NA,NA,NA,NA,NA,NA,NA,NA,NA,NA,NA,NA,NA,NA,NA,NA,NA,NA,NA,NA,NA,NA,NA
"18","stim/objects/HouseObjects/ironingboard2.png",10,37,10,0.7,"stim/22.jpeg",2,2,2,NA,"HouseObjects",1,4,"left","left",0.480000019,1,1,1,1,NA,NA,NA,NA,NA,NA,NA,NA,NA,NA,NA,NA,NA,NA,NA,NA,NA,NA,NA,NA,NA,NA,NA,NA
"160","stim/objects/Instruments/metronome2.png",11,37,11,0.9,"stim/31.jpeg",3,1,3,NA,"Instruments",2,4,"right","right",0.549999952,1,1,1,1,NA,NA,NA,NA,NA,NA,NA,NA,NA,NA,NA,NA,NA,NA,NA,NA,NA,NA,NA,NA,NA,NA,NA,NA
"172","stim/objects/Instruments/musicsheet2.png",12,37,12,0.9,"stim/32.jpeg",3,2,3,NA,"Instruments",2,1,"right","right",0.47300005,1,1,1,1,NA,NA,NA,NA,NA,NA,NA,NA,NA,NA,NA,NA,NA,NA,NA,NA,NA,NA,NA,NA,NA,NA,NA,NA
"186","stim/objects/Instruments/musicstand2.png",13,37,13,0.9,"stim/33.jpeg",3,3,3,NA,"Instruments",2,2,"right","right",0.524999857,1,1,1,1,NA,NA,NA,NA,NA,NA,NA,NA,NA,NA,NA,NA,NA,NA,NA,NA,NA,NA,NA,NA,NA,NA,NA,NA
"100","stim/objects/HouseObjects/rubbergloves2.png",14,37,14,0.9,"stim/43.jpeg",4,3,3,NA,"HouseObjects",1,2,"left","left",0.496000051,1,1,1,1,NA,NA,NA,NA,NA,NA,NA,NA,NA,NA,NA,NA,NA,NA,NA,NA,NA,NA,NA,NA,NA,NA,NA,NA
"112","stim/objects/HouseObjects/rug2.png",15,37,15,0.9,"stim/44.jpeg",4,4,3,NA,"HouseObjects",1,4,"left","left",0.597000122,1,1,1,1,NA,NA,NA,NA,NA,NA,NA,NA,NA,NA,NA,NA,NA,NA,NA,NA,NA,NA,NA,NA,NA,NA,NA,NA
"55","stim/objects/HouseObjects/match.png",16,37,16,0.5,"stim/62.jpeg",6,2,1,NA,"HouseObjects",1,1,"left","right",0.480000019,0,0,1,1,NA,NA,NA,NA,NA,NA,NA,NA,NA,NA,NA,NA,NA,NA,NA,NA,NA,NA,NA,NA,NA,NA,NA,NA
"137","stim/objects/Instruments/maraca.png",17,37,17,0.5,"stim/53.jpeg",5,3,1,NA,"Instruments",2,3,"right","right",0.882000208,1,1,1,1,NA,NA,NA,NA,NA,NA,NA,NA,NA,NA,NA,NA,NA,NA,NA,NA,NA,NA,NA,NA,NA,NA,NA,NA
"143","stim/objects/Instruments/maraca2.png",18,37,18,0.3,"stim/23.jpeg",2,3,2,NA,"Instruments",2,1,"right","left",0.725000143,0,0,1,1,NA,NA,NA,NA,NA,NA,NA,NA,NA,NA,NA,NA,NA,NA,NA,NA,NA,NA,NA,NA,NA,NA,NA,NA
"30","stim/objects/HouseObjects/key2.png",19,37,19,0.7,"stim/23.jpeg",2,3,2,NA,"HouseObjects",1,3,"left","right",0.548000097,0,0,1,1,NA,NA,NA,NA,NA,NA,NA,NA,NA,NA,NA,NA,NA,NA,NA,NA,NA,NA,NA,NA,NA,NA,NA,NA
"54","stim/objects/HouseObjects/lintroller2.png",20,37,20,0.1,"stim/31.jpeg",3,1,3,NA,"HouseObjects",1,4,"left","right",0.691999912,0,0,1,1,NA,NA,NA,NA,NA,NA,NA,NA,NA,NA,NA,NA,NA,NA,NA,NA,NA,NA,NA,NA,NA,NA,NA,NA
"126","stim/objects/Instruments/keyboard2.png",21,37,21,0.3,"stim/21.jpeg",2,1,2,NA,"Instruments",2,4,"right","left",0.632000208,0,0,1,1,NA,NA,NA,NA,NA,NA,NA,NA,NA,NA,NA,NA,NA,NA,NA,NA,NA,NA,NA,NA,NA,NA,NA,NA
"129","stim/objects/Instruments/laud.png",22,37,22,0.5,"stim/52.jpeg",5,2,1,NA,"Instruments",2,4,"right","left",0.746000051,0,0,1,1,NA,NA,NA,NA,NA,NA,NA,NA,NA,NA,NA,NA,NA,NA,NA,NA,NA,NA,NA,NA,NA,NA,NA,NA
"67","stim/objects/HouseObjects/pitcher.png",23,37,23,0.5,"stim/64.jpeg",6,4,1,NA,"HouseObjects",1,1,"left","right",0.65199995,0,0,1,1,NA,NA,NA,NA,NA,NA,NA,NA,NA,NA,NA,NA,NA,NA,NA,NA,NA,NA,NA,NA,NA,NA,NA,NA
"209","stim/objects/Instruments/panflute.png",24,37,24,0.7,"stim/11.jpeg",1,1,2,NA,"Instruments",2,1,"right","right",0.66899991,1,1,1,1,NA,NA,NA,NA,NA,NA,NA,NA,NA,NA,NA,NA,NA,NA,NA,NA,NA,NA,NA,NA,NA,NA,NA,NA
"61","stim/objects/HouseObjects/pan.png",25,37,25,0.5,"stim/63.jpeg",6,3,1,NA,"HouseObjects",1,4,"left","right",0.644999981,0,0,1,1,NA,NA,NA,NA,NA,NA,NA,NA,NA,NA,NA,NA,NA,NA,NA,NA,NA,NA,NA,NA,NA,NA,NA,NA
"113","stim/objects/HouseObjects/rug2.png",26,37,26,0.9,"stim/44.jpeg",4,4,3,NA,"HouseObjects",1,2,"left","left",0.690999985,1,1,1,1,NA,NA,NA,NA,NA,NA,NA,NA,NA,NA,NA,NA,NA,NA,NA,NA,NA,NA,NA,NA,NA,NA,NA,NA
"49","stim/objects/HouseObjects/lintroller.png",27,37,27,0.5,"stim/61.jpeg",6,1,1,NA,"HouseObjects",1,4,"left","right",0.549000025,0,0,1,1,NA,NA,NA,NA,NA,NA,NA,NA,NA,NA,NA,NA,NA,NA,NA,NA,NA,NA,NA,NA,NA,NA,NA,NA
"153","stim/objects/Instruments/metronome.png",28,37,28,0.5,"stim/61.jpeg",6,1,1,NA,"Instruments",2,2,"right","left",0.766000032,0,0,1,1,NA,NA,NA,NA,NA,NA,NA,NA,NA,NA,NA,NA,NA,NA,NA,NA,NA,NA,NA,NA,NA,NA,NA,NA
"19","stim/objects/HouseObjects/ironingboard2.png",29,37,29,0.7,"stim/22.jpeg",2,2,2,NA,"HouseObjects",1,3,"left","left",0.74000001,1,1,1,1,NA,NA,NA,NA,NA,NA,NA,NA,NA,NA,NA,NA,NA,NA,NA,NA,NA,NA,NA,NA,NA,NA,NA,NA
"161","stim/objects/Instruments/metronome2.png",30,37,30,0.9,"stim/31.jpeg",3,1,3,NA,"Instruments",2,1,"right","right",0.481000185,1,1,1,1,NA,NA,NA,NA,NA,NA,NA,NA,NA,NA,NA,NA,NA,NA,NA,NA,NA,NA,NA,NA,NA,NA,NA,NA
"76","stim/objects/HouseObjects/recyclingbin2.png",31,37,31,0.9,"stim/41.jpeg",4,1,3,NA,"HouseObjects",1,3,"left","left",0.578000069,1,1,1,1,NA,NA,NA,NA,NA,NA,NA,NA,NA,NA,NA,NA,NA,NA,NA,NA,NA,NA,NA,NA,NA,NA,NA,NA
"201","stim/objects/Instruments/oboe2.png",32,37,32,0.9,"stim/34.jpeg",3,4,3,NA,"Instruments",2,4,"right","right",0.552000046,1,1,1,1,NA,NA,NA,NA,NA,NA,NA,NA,NA,NA,NA,NA,NA,NA,NA,NA,NA,NA,NA,NA,NA,NA,NA,NA
"167","stim/objects/Instruments/musicsheet.png",33,37,33,0.5,"stim/62.jpeg",6,2,1,NA,"Instruments",2,2,"right","right",0.679999828,1,1,1,1,NA,NA,NA,NA,NA,NA,NA,NA,NA,NA,NA,NA,NA,NA,NA,NA,NA,NA,NA,NA,NA,NA,NA,NA
"134","stim/objects/Instruments/laud2.png",34,37,34,0.3,"stim/22.jpeg",2,2,2,NA,"Instruments",2,4,"right","left",0.542999983,0,0,1,1,NA,NA,NA,NA,NA,NA,NA,NA,NA,NA,NA,NA,NA,NA,NA,NA,NA,NA,NA,NA,NA,NA,NA,NA
"6","stim/objects/HouseObjects/iron2.png",35,37,35,0.7,"stim/21.jpeg",2,1,2,NA,"HouseObjects",1,1,"left","right",0.53399992,0,0,1,1,NA,NA,NA,NA,NA,NA,NA,NA,NA,NA,NA,NA,NA,NA,NA,NA,NA,NA,NA,NA,NA,NA,NA,NA
"168","stim/objects/Instruments/musicsheet.png",36,37,36,0.5,"stim/62.jpeg",6,2,1,NA,"Instruments",2,2,"right","",NA,0,0,1,1,NA,NA,NA,NA,NA,NA,NA,NA,NA,NA,NA,NA,NA,NA,NA,NA,NA,NA,NA,NA,NA,NA,NA,NA
"169","stim/objects/Instruments/musicsheet.png",37,37,37,0.5,"stim/62.jpeg",6,2,1,NA,"Instruments",2,4,"right","",NA,0,0,1,1,NA,NA,NA,NA,NA,NA,NA,NA,NA,NA,NA,NA,NA,NA,NA,NA,NA,NA,NA,NA,NA,NA,NA,NA
"73","stim/objects/HouseObjects/recyclingbin.png",38,37,38,0.3,"stim/11.jpeg",1,1,2,NA,"HouseObjects",1,1,"left","right",0.532000065,0,0,1,1,NA,NA,NA,NA,NA,NA,NA,NA,NA,NA,NA,NA,NA,NA,NA,NA,NA,NA,NA,NA,NA,NA,NA,NA
"101","stim/objects/HouseObjects/rubbergloves2.png",39,37,39,0.9,"stim/43.jpeg",4,3,3,NA,"HouseObjects",1,1,"left","left",0.494999886,1,1,1,1,NA,NA,NA,NA,NA,NA,NA,NA,NA,NA,NA,NA,NA,NA,NA,NA,NA,NA,NA,NA,NA,NA,NA,NA
"88","stim/objects/HouseObjects/remote2.png",40,37,40,0.9,"stim/42.jpeg",4,2,3,NA,"HouseObjects",1,1,"left","right",0.603999853,0,0,1,1,NA,NA,NA,NA,NA,NA,NA,NA,NA,NA,NA,NA,NA,NA,NA,NA,NA,NA,NA,NA,NA,NA,NA,NA
"7","stim/objects/HouseObjects/iron2.png",41,37,41,0.7,"stim/21.jpeg",2,1,2,NA,"HouseObjects",1,1,"left","left",0.514999866,1,1,1,1,NA,NA,NA,NA,NA,NA,NA,NA,NA,NA,NA,NA,NA,NA,NA,NA,NA,NA,NA,NA,NA,NA,NA,NA
"114","stim/objects/HouseObjects/rug2.png",42,37,42,0.9,"stim/44.jpeg",4,4,3,NA,"HouseObjects",1,1,"left","left",0.581999779,1,1,1,1,NA,NA,NA,NA,NA,NA,NA,NA,NA,NA,NA,NA,NA,NA,NA,NA,NA,NA,NA,NA,NA,NA,NA,NA
"38","stim/objects/HouseObjects/knife.png",43,37,43,0.5,"stim/54.jpeg",5,4,1,NA,"HouseObjects",1,2,"left","left",0.512000084,1,1,1,1,NA,NA,NA,NA,NA,NA,NA,NA,NA,NA,NA,NA,NA,NA,NA,NA,NA,NA,NA,NA,NA,NA,NA,NA
"202","stim/objects/Instruments/oboe2.png",44,37,44,0.9,"stim/34.jpeg",3,4,3,NA,"Instruments",2,2,"right","right",0.51699996,1,1,1,1,NA,NA,NA,NA,NA,NA,NA,NA,NA,NA,NA,NA,NA,NA,NA,NA,NA,NA,NA,NA,NA,NA,NA,NA
"109","stim/objects/HouseObjects/rug.png",45,37,45,0.3,"stim/14.jpeg",1,4,2,NA,"HouseObjects",1,2,"left","left",0.724999905,1,1,1,1,NA,NA,NA,NA,NA,NA,NA,NA,NA,NA,NA,NA,NA,NA,NA,NA,NA,NA,NA,NA,NA,NA,NA,NA
"39","stim/objects/HouseObjects/knife.png",46,37,46,0.5,"stim/54.jpeg",5,4,1,NA,"HouseObjects",1,3,"left","right",0.635999918,0,0,1,1,NA,NA,NA,NA,NA,NA,NA,NA,NA,NA,NA,NA,NA,NA,NA,NA,NA,NA,NA,NA,NA,NA,NA,NA
"162","stim/objects/Instruments/metronome2.png",47,37,47,0.9,"stim/31.jpeg",3,1,3,NA,"Instruments",2,1,"right","right",0.595999956,1,1,1,1,NA,NA,NA,NA,NA,NA,NA,NA,NA,NA,NA,NA,NA,NA,NA,NA,NA,NA,NA,NA,NA,NA,NA,NA
"89","stim/objects/HouseObjects/remote2.png",48,37,48,0.9,"stim/42.jpeg",4,2,3,NA,"HouseObjects",1,3,"left","left",0.572999954,1,1,1,1,NA,NA,NA,NA,NA,NA,NA,NA,NA,NA,NA,NA,NA,NA,NA,NA,NA,NA,NA,NA,NA,NA,NA,NA
"173","stim/objects/Instruments/musicsheet2.png",49,37,49,0.9,"stim/32.jpeg",3,2,3,NA,"Instruments",2,4,"right","right",0.583000183,1,1,1,1,NA,NA,NA,NA,NA,NA,NA,NA,NA,NA,NA,NA,NA,NA,NA,NA,NA,NA,NA,NA,NA,NA,NA,NA
"1","stim/objects/HouseObjects/iron.png",50,37,50,0.5,"stim/51.jpeg",5,1,1,NA,"HouseObjects",1,1,"left","left",0.605000019,1,1,1,1,NA,NA,NA,NA,NA,NA,NA,NA,NA,NA,NA,NA,NA,NA,NA,NA,NA,NA,NA,NA,NA,NA,NA,NA
"138","stim/objects/Instruments/maraca.png",51,37,51,0.5,"stim/53.jpeg",5,3,1,NA,"Instruments",2,2,"right","right",0.589999914,1,1,1,1,NA,NA,NA,NA,NA,NA,NA,NA,NA,NA,NA,NA,NA,NA,NA,NA,NA,NA,NA,NA,NA,NA,NA,NA
"68","stim/objects/HouseObjects/pitcher.png",52,37,52,0.5,"stim/64.jpeg",6,4,1,NA,"HouseObjects",1,3,"left","right",0.694000006,0,0,1,1,NA,NA,NA,NA,NA,NA,NA,NA,NA,NA,NA,NA,NA,NA,NA,NA,NA,NA,NA,NA,NA,NA,NA,NA
"121","stim/objects/Instruments/keyboard.png",53,37,53,0.5,"stim/51.jpeg",5,1,1,NA,"Instruments",2,4,"right","right",0.799000025,1,1,1,1,NA,NA,NA,NA,NA,NA,NA,NA,NA,NA,NA,NA,NA,NA,NA,NA,NA,NA,NA,NA,NA,NA,NA,NA
"174","stim/objects/Instruments/musicsheet2.png",54,37,54,0.9,"stim/32.jpeg",3,2,3,NA,"Instruments",2,4,"right","right",0.635999918,1,1,1,1,NA,NA,NA,NA,NA,NA,NA,NA,NA,NA,NA,NA,NA,NA,NA,NA,NA,NA,NA,NA,NA,NA,NA,NA
"224","stim/objects/Instruments/pipepiano2.png",55,37,55,0.1,"stim/42.jpeg",4,2,3,NA,"Instruments",2,3,"right","left",0.501999855,0,0,1,1,NA,NA,NA,NA,NA,NA,NA,NA,NA,NA,NA,NA,NA,NA,NA,NA,NA,NA,NA,NA,NA,NA,NA,NA
"42","stim/objects/HouseObjects/knife2.png",56,37,56,0.7,"stim/24.jpeg",2,4,2,NA,"HouseObjects",1,3,"left","left",0.60800004,1,1,1,1,NA,NA,NA,NA,NA,NA,NA,NA,NA,NA,NA,NA,NA,NA,NA,NA,NA,NA,NA,NA,NA,NA,NA,NA
"210","stim/objects/Instruments/panflute.png",57,37,57,0.7,"stim/11.jpeg",1,1,2,NA,"Instruments",2,3,"right","right",0.657999992,1,1,1,1,NA,NA,NA,NA,NA,NA,NA,NA,NA,NA,NA,NA,NA,NA,NA,NA,NA,NA,NA,NA,NA,NA,NA,NA
"187","stim/objects/Instruments/musicstand2.png",58,37,58,0.9,"stim/33.jpeg",3,3,3,NA,"Instruments",2,1,"right","right",0.562000036,1,1,1,1,NA,NA,NA,NA,NA,NA,NA,NA,NA,NA,NA,NA,NA,NA,NA,NA,NA,NA,NA,NA,NA,NA,NA,NA
"115","stim/objects/HouseObjects/rug2.png",59,37,59,0.9,"stim/44.jpeg",4,4,3,NA,"HouseObjects",1,2,"left","left",0.562000036,1,1,1,1,NA,NA,NA,NA,NA,NA,NA,NA,NA,NA,NA,NA,NA,NA,NA,NA,NA,NA,NA,NA,NA,NA,NA,NA
"102","stim/objects/HouseObjects/rubbergloves2.png",60,37,60,0.9,"stim/43.jpeg",4,3,3,NA,"HouseObjects",1,2,"left","left",0.768000126,1,1,1,1,NA,NA,NA,NA,NA,NA,NA,NA,NA,NA,NA,NA,NA,NA,NA,NA,NA,NA,NA,NA,NA,NA,NA,NA
"77","stim/objects/HouseObjects/recyclingbin2.png",61,37,61,0.9,"stim/41.jpeg",4,1,3,NA,"HouseObjects",1,1,"left","left",0.610000134,1,1,1,1,NA,NA,NA,NA,NA,NA,NA,NA,NA,NA,NA,NA,NA,NA,NA,NA,NA,NA,NA,NA,NA,NA,NA,NA
"85","stim/objects/HouseObjects/remote.png",62,37,62,0.3,"stim/12.jpeg",1,2,2,NA,"HouseObjects",1,2,"left","",NA,0,0,1,1,NA,NA,NA,NA,NA,NA,NA,NA,NA,NA,NA,NA,NA,NA,NA,NA,NA,NA,NA,NA,NA,NA,NA,NA
"2","stim/objects/HouseObjects/iron.png",63,37,63,0.5,"stim/51.jpeg",5,1,1,NA,"HouseObjects",1,1,"left","right",0.60800004,0,0,1,1,NA,NA,NA,NA,NA,NA,NA,NA,NA,NA,NA,NA,NA,NA,NA,NA,NA,NA,NA,NA,NA,NA,NA,NA
"74","stim/objects/HouseObjects/recyclingbin.png",64,37,64,0.3,"stim/11.jpeg",1,1,2,NA,"HouseObjects",1,2,"left","right",0.784999847,0,0,1,1,NA,NA,NA,NA,NA,NA,NA,NA,NA,NA,NA,NA,NA,NA,NA,NA,NA,NA,NA,NA,NA,NA,NA,NA
"25","stim/objects/HouseObjects/key.png",65,37,65,0.5,"stim/53.jpeg",5,3,1,NA,"HouseObjects",1,3,"left","left",0.804999828,1,1,1,1,NA,NA,NA,NA,NA,NA,NA,NA,NA,NA,NA,NA,NA,NA,NA,NA,NA,NA,NA,NA,NA,NA,NA,NA
"175","stim/objects/Instruments/musicsheet2.png",66,37,66,0.9,"stim/32.jpeg",3,2,3,NA,"Instruments",2,3,"right","right",0.505999804,1,1,1,1,NA,NA,NA,NA,NA,NA,NA,NA,NA,NA,NA,NA,NA,NA,NA,NA,NA,NA,NA,NA,NA,NA,NA,NA
"154","stim/objects/Instruments/metronome.png",67,37,67,0.5,"stim/61.jpeg",6,1,1,NA,"Instruments",2,2,"right","left",0.77699995,0,0,1,1,NA,NA,NA,NA,NA,NA,NA,NA,NA,NA,NA,NA,NA,NA,NA,NA,NA,NA,NA,NA,NA,NA,NA,NA
"188","stim/objects/Instruments/musicstand2.png",68,37,68,0.9,"stim/33.jpeg",3,3,3,NA,"Instruments",2,2,"right","right",0.590999842,1,1,1,1,NA,NA,NA,NA,NA,NA,NA,NA,NA,NA,NA,NA,NA,NA,NA,NA,NA,NA,NA,NA,NA,NA,NA,NA
"14","stim/objects/HouseObjects/ironingboard.png",69,37,69,0.5,"stim/52.jpeg",5,2,1,NA,"HouseObjects",1,3,"left","left",0.693000078,1,1,1,1,NA,NA,NA,NA,NA,NA,NA,NA,NA,NA,NA,NA,NA,NA,NA,NA,NA,NA,NA,NA,NA,NA,NA,NA
"31","stim/objects/HouseObjects/key2.png",70,37,70,0.7,"stim/23.jpeg",2,3,2,NA,"HouseObjects",1,2,"left","left",0.650000095,1,1,1,1,NA,NA,NA,NA,NA,NA,NA,NA,NA,NA,NA,NA,NA,NA,NA,NA,NA,NA,NA,NA,NA,NA,NA,NA
"32","stim/objects/HouseObjects/key2.png",71,37,71,0.7,"stim/23.jpeg",2,3,2,NA,"HouseObjects",1,2,"left","right",0.819000006,0,0,1,1,NA,NA,NA,NA,NA,NA,NA,NA,NA,NA,NA,NA,NA,NA,NA,NA,NA,NA,NA,NA,NA,NA,NA,NA
"189","stim/objects/Instruments/musicstand2.png",72,37,72,0.9,"stim/33.jpeg",3,3,3,NA,"Instruments",2,2,"right","right",0.663999796,1,1,1,1,NA,NA,NA,NA,NA,NA,NA,NA,NA,NA,NA,NA,NA,NA,NA,NA,NA,NA,NA,NA,NA,NA,NA,NA
"43","stim/objects/HouseObjects/knife2.png",73,37,73,0.7,"stim/24.jpeg",2,4,2,NA,"HouseObjects",1,4,"left","right",0.81099987,0,0,1,1,NA,NA,NA,NA,NA,NA,NA,NA,NA,NA,NA,NA,NA,NA,NA,NA,NA,NA,NA,NA,NA,NA,NA,NA
"139","stim/objects/Instruments/maraca.png",74,37,74,0.5,"stim/53.jpeg",5,3,1,NA,"Instruments",2,3,"right","left",0.575000048,0,0,1,1,NA,NA,NA,NA,NA,NA,NA,NA,NA,NA,NA,NA,NA,NA,NA,NA,NA,NA,NA,NA,NA,NA,NA,NA
"195","stim/objects/Instruments/oboe.png",75,37,75,0.5,"stim/64.jpeg",6,4,1,NA,"Instruments",2,2,"right","right",0.73300004,1,1,1,1,NA,NA,NA,NA,NA,NA,NA,NA,NA,NA,NA,NA,NA,NA,NA,NA,NA,NA,NA,NA,NA,NA,NA,NA
"203","stim/objects/Instruments/oboe2.png",76,37,76,0.9,"stim/34.jpeg",3,4,3,NA,"Instruments",2,2,"right","right",0.583000183,1,1,1,1,NA,NA,NA,NA,NA,NA,NA,NA,NA,NA,NA,NA,NA,NA,NA,NA,NA,NA,NA,NA,NA,NA,NA,NA
"182","stim/objects/Instruments/musicstand.png",77,37,77,0.5,"stim/63.jpeg",6,3,1,NA,"Instruments",2,2,"right","right",0.695000172,1,1,1,1,NA,NA,NA,NA,NA,NA,NA,NA,NA,NA,NA,NA,NA,NA,NA,NA,NA,NA,NA,NA,NA,NA,NA,NA
"170","stim/objects/Instruments/musicsheet.png",78,37,78,0.5,"stim/62.jpeg",6,2,1,NA,"Instruments",2,1,"right","right",0.592999935,1,1,1,1,NA,NA,NA,NA,NA,NA,NA,NA,NA,NA,NA,NA,NA,NA,NA,NA,NA,NA,NA,NA,NA,NA,NA,NA
"8","stim/objects/HouseObjects/iron2.png",79,37,79,0.7,"stim/21.jpeg",2,1,2,NA,"HouseObjects",1,2,"left","right",0.639999866,0,0,1,1,NA,NA,NA,NA,NA,NA,NA,NA,NA,NA,NA,NA,NA,NA,NA,NA,NA,NA,NA,NA,NA,NA,NA,NA
"145","stim/objects/Instruments/marimba.png",80,37,80,0.5,"stim/54.jpeg",5,4,1,NA,"Instruments",2,4,"right","right",0.69299984,1,1,1,1,NA,NA,NA,NA,NA,NA,NA,NA,NA,NA,NA,NA,NA,NA,NA,NA,NA,NA,NA,NA,NA,NA,NA,NA
"190","stim/objects/Instruments/musicstand2.png",81,37,81,0.9,"stim/33.jpeg",3,3,3,NA,"Instruments",2,4,"right","right",0.749000072,1,1,1,1,NA,NA,NA,NA,NA,NA,NA,NA,NA,NA,NA,NA,NA,NA,NA,NA,NA,NA,NA,NA,NA,NA,NA,NA
"196","stim/objects/Instruments/oboe.png",82,37,82,0.5,"stim/64.jpeg",6,4,1,NA,"Instruments",2,3,"right","right",0.660000086,1,1,1,1,NA,NA,NA,NA,NA,NA,NA,NA,NA,NA,NA,NA,NA,NA,NA,NA,NA,NA,NA,NA,NA,NA,NA,NA
"122","stim/objects/Instruments/keyboard.png",83,37,83,0.5,"stim/51.jpeg",5,1,1,NA,"Instruments",2,1,"right","right",0.757000208,1,1,1,1,NA,NA,NA,NA,NA,NA,NA,NA,NA,NA,NA,NA,NA,NA,NA,NA,NA,NA,NA,NA,NA,NA,NA,NA
"20","stim/objects/HouseObjects/ironingboard2.png",84,37,84,0.7,"stim/22.jpeg",2,2,2,NA,"HouseObjects",1,1,"left","right",0.859000206,0,0,1,1,NA,NA,NA,NA,NA,NA,NA,NA,NA,NA,NA,NA,NA,NA,NA,NA,NA,NA,NA,NA,NA,NA,NA,NA
"86","stim/objects/HouseObjects/remote.png",85,37,85,0.3,"stim/12.jpeg",1,2,2,NA,"HouseObjects",1,2,"left","right",0.799000025,0,0,1,1,NA,NA,NA,NA,NA,NA,NA,NA,NA,NA,NA,NA,NA,NA,NA,NA,NA,NA,NA,NA,NA,NA,NA,NA
"234","stim/objects/Instruments/record.png",86,37,86,0.7,"stim/13.jpeg",1,3,2,NA,"Instruments",2,1,"right","",NA,0,0,1,1,NA,NA,NA,NA,NA,NA,NA,NA,NA,NA,NA,NA,NA,NA,NA,NA,NA,NA,NA,NA,NA,NA,NA,NA
"66","stim/objects/HouseObjects/pan2.png",87,37,87,0.1,"stim/33.jpeg",3,3,3,NA,"HouseObjects",1,4,"left","right",0.871999979,0,0,1,1,NA,NA,NA,NA,NA,NA,NA,NA,NA,NA,NA,NA,NA,NA,NA,NA,NA,NA,NA,NA,NA,NA,NA,NA
"116","stim/objects/HouseObjects/rug2.png",88,37,88,0.9,"stim/44.jpeg",4,4,3,NA,"HouseObjects",1,4,"left","left",0.457999945,1,1,1,1,NA,NA,NA,NA,NA,NA,NA,NA,NA,NA,NA,NA,NA,NA,NA,NA,NA,NA,NA,NA,NA,NA,NA,NA
"225","stim/objects/Instruments/record_player.png",89,37,89,0.7,"stim/14.jpeg",1,4,2,NA,"Instruments",2,4,"right","right",0.588000059,1,1,1,1,NA,NA,NA,NA,NA,NA,NA,NA,NA,NA,NA,NA,NA,NA,NA,NA,NA,NA,NA,NA,NA,NA,NA,NA
"204","stim/objects/Instruments/oboe2.png",90,37,90,0.9,"stim/34.jpeg",3,4,3,NA,"Instruments",2,3,"right","right",0.605000019,1,1,1,1,NA,NA,NA,NA,NA,NA,NA,NA,NA,NA,NA,NA,NA,NA,NA,NA,NA,NA,NA,NA,NA,NA,NA,NA
"155","stim/objects/Instruments/metronome.png",91,37,91,0.5,"stim/61.jpeg",6,1,1,NA,"Instruments",2,3,"right","right",0.578000069,1,1,1,1,NA,NA,NA,NA,NA,NA,NA,NA,NA,NA,NA,NA,NA,NA,NA,NA,NA,NA,NA,NA,NA,NA,NA,NA
"40","stim/objects/HouseObjects/knife.png",92,37,92,0.5,"stim/54.jpeg",5,4,1,NA,"HouseObjects",1,4,"left","right",0.70600009,0,0,1,1,NA,NA,NA,NA,NA,NA,NA,NA,NA,NA,NA,NA,NA,NA,NA,NA,NA,NA,NA,NA,NA,NA,NA,NA
"211","stim/objects/Instruments/panflute.png",93,37,93,0.7,"stim/11.jpeg",1,1,2,NA,"Instruments",2,2,"right","right",0.748000145,1,1,1,1,NA,NA,NA,NA,NA,NA,NA,NA,NA,NA,NA,NA,NA,NA,NA,NA,NA,NA,NA,NA,NA,NA,NA,NA
"33","stim/objects/HouseObjects/key2.png",94,37,94,0.7,"stim/23.jpeg",2,3,2,NA,"HouseObjects",1,1,"left","left",0.619000196,1,1,1,1,NA,NA,NA,NA,NA,NA,NA,NA,NA,NA,NA,NA,NA,NA,NA,NA,NA,NA,NA,NA,NA,NA,NA,NA
"130","stim/objects/Instruments/laud.png",95,37,95,0.5,"stim/52.jpeg",5,2,1,NA,"Instruments",2,4,"right","right",0.877000093,1,1,1,1,NA,NA,NA,NA,NA,NA,NA,NA,NA,NA,NA,NA,NA,NA,NA,NA,NA,NA,NA,NA,NA,NA,NA,NA
"218","stim/objects/Instruments/pipepiano.png",96,37,96,0.7,"stim/12.jpeg",1,2,2,NA,"Instruments",2,1,"right","right",0.648000002,1,1,1,1,NA,NA,NA,NA,NA,NA,NA,NA,NA,NA,NA,NA,NA,NA,NA,NA,NA,NA,NA,NA,NA,NA,NA,NA
"50","stim/objects/HouseObjects/lintroller.png",97,37,97,0.5,"stim/61.jpeg",6,1,1,NA,"HouseObjects",1,2,"left","left",0.638999939,1,1,1,1,NA,NA,NA,NA,NA,NA,NA,NA,NA,NA,NA,NA,NA,NA,NA,NA,NA,NA,NA,NA,NA,NA,NA,NA
"103","stim/objects/HouseObjects/rubbergloves2.png",98,37,98,0.9,"stim/43.jpeg",4,3,3,NA,"HouseObjects",1,4,"left","left",0.546000004,1,1,1,1,NA,NA,NA,NA,NA,NA,NA,NA,NA,NA,NA,NA,NA,NA,NA,NA,NA,NA,NA,NA,NA,NA,NA,NA
"176","stim/objects/Instruments/musicsheet2.png",99,37,99,0.9,"stim/32.jpeg",3,2,3,NA,"Instruments",2,4,"right","right",0.70600009,1,1,1,1,NA,NA,NA,NA,NA,NA,NA,NA,NA,NA,NA,NA,NA,NA,NA,NA,NA,NA,NA,NA,NA,NA,NA,NA
"60","stim/objects/HouseObjects/match2.png",100,37,100,0.1,"stim/32.jpeg",3,2,3,NA,"HouseObjects",1,4,"left","right",0.81099987,0,0,1,1,NA,NA,NA,NA,NA,NA,NA,NA,NA,NA,NA,NA,NA,NA,NA,NA,NA,NA,NA,NA,NA,NA,NA,NA
"34","stim/objects/HouseObjects/key2.png",101,37,101,0.7,"stim/23.jpeg",2,3,2,NA,"HouseObjects",1,1,"left","right",0.75999999,0,0,1,1,NA,NA,NA,NA,NA,NA,NA,NA,NA,NA,NA,NA,NA,NA,NA,NA,NA,NA,NA,NA,NA,NA,NA,NA
"97","stim/objects/HouseObjects/rubbergloves.png",102,37,102,0.3,"stim/13.jpeg",1,3,2,NA,"HouseObjects",1,1,"left","right",0.634000063,0,0,1,1,NA,NA,NA,NA,NA,NA,NA,NA,NA,NA,NA,NA,NA,NA,NA,NA,NA,NA,NA,NA,NA,NA,NA,NA
"191","stim/objects/Instruments/musicstand2.png",103,37,103,0.9,"stim/33.jpeg",3,3,3,NA,"Instruments",2,2,"right","left",0.812000036,0,0,1,1,NA,NA,NA,NA,NA,NA,NA,NA,NA,NA,NA,NA,NA,NA,NA,NA,NA,NA,NA,NA,NA,NA,NA,NA
"150","stim/objects/Instruments/marimba2.png",104,37,104,0.3,"stim/24.jpeg",2,4,2,NA,"Instruments",2,3,"right","right",0.720000029,1,1,1,1,NA,NA,NA,NA,NA,NA,NA,NA,NA,NA,NA,NA,NA,NA,NA,NA,NA,NA,NA,NA,NA,NA,NA,NA
"232","stim/objects/Instruments/record_player2.png",105,37,105,0.1,"stim/44.jpeg",4,4,3,NA,"Instruments",2,3,"right","right",0.677000046,1,1,1,1,NA,NA,NA,NA,NA,NA,NA,NA,NA,NA,NA,NA,NA,NA,NA,NA,NA,NA,NA,NA,NA,NA,NA,NA
"51","stim/objects/HouseObjects/lintroller.png",106,37,106,0.5,"stim/61.jpeg",6,1,1,NA,"HouseObjects",1,2,"left","left",0.762999773,1,1,1,1,NA,NA,NA,NA,NA,NA,NA,NA,NA,NA,NA,NA,NA,NA,NA,NA,NA,NA,NA,NA,NA,NA,NA,NA
"192","stim/objects/Instruments/musicstand2.png",107,37,107,0.9,"stim/33.jpeg",3,3,3,NA,"Instruments",2,1,"right","right",0.565999985,1,1,1,1,NA,NA,NA,NA,NA,NA,NA,NA,NA,NA,NA,NA,NA,NA,NA,NA,NA,NA,NA,NA,NA,NA,NA,NA
"156","stim/objects/Instruments/metronome.png",108,37,108,0.5,"stim/61.jpeg",6,1,1,NA,"Instruments",2,3,"right","right",0.664999962,1,1,1,1,NA,NA,NA,NA,NA,NA,NA,NA,NA,NA,NA,NA,NA,NA,NA,NA,NA,NA,NA,NA,NA,NA,NA,NA
"62","stim/objects/HouseObjects/pan.png",109,37,109,0.5,"stim/63.jpeg",6,3,1,NA,"HouseObjects",1,1,"left","right",0.748999834,0,0,1,1,NA,NA,NA,NA,NA,NA,NA,NA,NA,NA,NA,NA,NA,NA,NA,NA,NA,NA,NA,NA,NA,NA,NA,NA
"163","stim/objects/Instruments/metronome2.png",110,37,110,0.9,"stim/31.jpeg",3,1,3,NA,"Instruments",2,3,"right","right",0.644999981,1,1,1,1,NA,NA,NA,NA,NA,NA,NA,NA,NA,NA,NA,NA,NA,NA,NA,NA,NA,NA,NA,NA,NA,NA,NA,NA
"131","stim/objects/Instruments/laud.png",111,37,111,0.5,"stim/52.jpeg",5,2,1,NA,"Instruments",2,3,"right","left",0.703000069,0,0,1,1,NA,NA,NA,NA,NA,NA,NA,NA,NA,NA,NA,NA,NA,NA,NA,NA,NA,NA,NA,NA,NA,NA,NA,NA
"44","stim/objects/HouseObjects/knife2.png",112,37,112,0.7,"stim/24.jpeg",2,4,2,NA,"HouseObjects",1,3,"left","left",0.641000032,1,1,1,1,NA,NA,NA,NA,NA,NA,NA,NA,NA,NA,NA,NA,NA,NA,NA,NA,NA,NA,NA,NA,NA,NA,NA,NA
"205","stim/objects/Instruments/oboe2.png",113,37,113,0.9,"stim/34.jpeg",3,4,3,NA,"Instruments",2,1,"right","right",0.519000053,1,1,1,1,NA,NA,NA,NA,NA,NA,NA,NA,NA,NA,NA,NA,NA,NA,NA,NA,NA,NA,NA,NA,NA,NA,NA,NA
"226","stim/objects/Instruments/record_player.png",114,37,114,0.7,"stim/14.jpeg",1,4,2,NA,"Instruments",2,4,"right","left",0.657000065,0,0,1,1,NA,NA,NA,NA,NA,NA,NA,NA,NA,NA,NA,NA,NA,NA,NA,NA,NA,NA,NA,NA,NA,NA,NA,NA
"15","stim/objects/HouseObjects/ironingboard.png",115,37,115,0.5,"stim/52.jpeg",5,2,1,NA,"HouseObjects",1,2,"left","right",0.554000139,0,0,1,1,NA,NA,NA,NA,NA,NA,NA,NA,NA,NA,NA,NA,NA,NA,NA,NA,NA,NA,NA,NA,NA,NA,NA,NA
"216","stim/objects/Instruments/panflute2.png",116,37,116,0.1,"stim/41.jpeg",4,1,3,NA,"Instruments",2,1,"right","left",0.575000048,0,0,1,1,NA,NA,NA,NA,NA,NA,NA,NA,NA,NA,NA,NA,NA,NA,NA,NA,NA,NA,NA,NA,NA,NA,NA,NA
"69","stim/objects/HouseObjects/pitcher.png",117,37,117,0.5,"stim/64.jpeg",6,4,1,NA,"HouseObjects",1,4,"left","right",0.485000134,0,0,1,1,NA,NA,NA,NA,NA,NA,NA,NA,NA,NA,NA,NA,NA,NA,NA,NA,NA,NA,NA,NA,NA,NA,NA,NA
"183","stim/objects/Instruments/musicstand.png",118,37,118,0.5,"stim/63.jpeg",6,3,1,NA,"Instruments",2,1,"right","left",0.697999954,0,0,1,1,NA,NA,NA,NA,NA,NA,NA,NA,NA,NA,NA,NA,NA,NA,NA,NA,NA,NA,NA,NA,NA,NA,NA,NA
"26","stim/objects/HouseObjects/key.png",119,37,119,0.5,"stim/53.jpeg",5,3,1,NA,"HouseObjects",1,2,"left","left",0.565000057,1,1,1,1,NA,NA,NA,NA,NA,NA,NA,NA,NA,NA,NA,NA,NA,NA,NA,NA,NA,NA,NA,NA,NA,NA,NA,NA
"104","stim/objects/HouseObjects/rubbergloves2.png",120,37,120,0.9,"stim/43.jpeg",4,3,3,NA,"HouseObjects",1,1,"left","left",0.638000011,1,1,1,1,NA,NA,NA,NA,NA,NA,NA,NA,NA,NA,NA,NA,NA,NA,NA,NA,NA,NA,NA,NA,NA,NA,NA,NA
"72","stim/objects/HouseObjects/pitcher2.png",121,37,121,0.1,"stim/34.jpeg",3,4,3,NA,"HouseObjects",1,3,"left","right",0.713999987,0,0,1,1,NA,NA,NA,NA,NA,NA,NA,NA,NA,NA,NA,NA,NA,NA,NA,NA,NA,NA,NA,NA,NA,NA,NA,NA
"206","stim/objects/Instruments/oboe2.png",122,37,122,0.9,"stim/34.jpeg",3,4,3,NA,"Instruments",2,3,"right","right",0.568000078,1,1,1,1,NA,NA,NA,NA,NA,NA,NA,NA,NA,NA,NA,NA,NA,NA,NA,NA,NA,NA,NA,NA,NA,NA,NA,NA
"219","stim/objects/Instruments/pipepiano.png",123,37,123,0.7,"stim/12.jpeg",1,2,2,NA,"Instruments",2,1,"right","right",0.64199996,1,1,1,1,NA,NA,NA,NA,NA,NA,NA,NA,NA,NA,NA,NA,NA,NA,NA,NA,NA,NA,NA,NA,NA,NA,NA,NA
"235","stim/objects/Instruments/record.png",124,37,124,0.7,"stim/13.jpeg",1,3,2,NA,"Instruments",2,1,"right","right",0.666999817,1,1,1,1,NA,NA,NA,NA,NA,NA,NA,NA,NA,NA,NA,NA,NA,NA,NA,NA,NA,NA,NA,NA,NA,NA,NA,NA
"45","stim/objects/HouseObjects/knife2.png",125,37,125,0.7,"stim/24.jpeg",2,4,2,NA,"HouseObjects",1,4,"left","left",0.626000166,1,1,1,1,NA,NA,NA,NA,NA,NA,NA,NA,NA,NA,NA,NA,NA,NA,NA,NA,NA,NA,NA,NA,NA,NA,NA,NA
"78","stim/objects/HouseObjects/recyclingbin2.png",126,37,126,0.9,"stim/41.jpeg",4,1,3,NA,"HouseObjects",1,3,"left","left",0.572000027,1,1,1,1,NA,NA,NA,NA,NA,NA,NA,NA,NA,NA,NA,NA,NA,NA,NA,NA,NA,NA,NA,NA,NA,NA,NA,NA
"79","stim/objects/HouseObjects/recyclingbin2.png",127,37,127,0.9,"stim/41.jpeg",4,1,3,NA,"HouseObjects",1,2,"left","left",0.509000063,1,1,1,1,NA,NA,NA,NA,NA,NA,NA,NA,NA,NA,NA,NA,NA,NA,NA,NA,NA,NA,NA,NA,NA,NA,NA,NA
"207","stim/objects/Instruments/oboe2.png",128,37,128,0.9,"stim/34.jpeg",3,4,3,NA,"Instruments",2,4,"right","right",0.52699995,1,1,1,1,NA,NA,NA,NA,NA,NA,NA,NA,NA,NA,NA,NA,NA,NA,NA,NA,NA,NA,NA,NA,NA,NA,NA,NA
"16","stim/objects/HouseObjects/ironingboard.png",129,37,129,0.5,"stim/52.jpeg",5,2,1,NA,"HouseObjects",1,2,"left","",NA,0,0,1,1,NA,NA,NA,NA,NA,NA,NA,NA,NA,NA,NA,NA,NA,NA,NA,NA,NA,NA,NA,NA,NA,NA,NA,NA
"41","stim/objects/HouseObjects/knife.png",130,37,130,0.5,"stim/54.jpeg",5,4,1,NA,"HouseObjects",1,1,"left","",NA,0,0,1,1,NA,NA,NA,NA,NA,NA,NA,NA,NA,NA,NA,NA,NA,NA,NA,NA,NA,NA,NA,NA,NA,NA,NA,NA
"151","stim/objects/Instruments/marimba2.png",131,37,131,0.3,"stim/24.jpeg",2,4,2,NA,"Instruments",2,2,"right","left",0.599999905,0,0,1,1,NA,NA,NA,NA,NA,NA,NA,NA,NA,NA,NA,NA,NA,NA,NA,NA,NA,NA,NA,NA,NA,NA,NA,NA
"80","stim/objects/HouseObjects/recyclingbin2.png",132,37,132,0.9,"stim/41.jpeg",4,1,3,NA,"HouseObjects",1,1,"left","left",0.542999983,1,1,1,1,NA,NA,NA,NA,NA,NA,NA,NA,NA,NA,NA,NA,NA,NA,NA,NA,NA,NA,NA,NA,NA,NA,NA,NA
"212","stim/objects/Instruments/panflute.png",133,37,133,0.7,"stim/11.jpeg",1,1,2,NA,"Instruments",2,3,"right","right",0.552999973,1,1,1,1,NA,NA,NA,NA,NA,NA,NA,NA,NA,NA,NA,NA,NA,NA,NA,NA,NA,NA,NA,NA,NA,NA,NA,NA
"81","stim/objects/HouseObjects/recyclingbin2.png",134,37,134,0.9,"stim/41.jpeg",4,1,3,NA,"HouseObjects",1,1,"left","left",0.552000046,1,1,1,1,NA,NA,NA,NA,NA,NA,NA,NA,NA,NA,NA,NA,NA,NA,NA,NA,NA,NA,NA,NA,NA,NA,NA,NA
"82","stim/objects/HouseObjects/recyclingbin2.png",135,37,135,0.9,"stim/41.jpeg",4,1,3,NA,"HouseObjects",1,1,"left","left",0.503000021,1,1,1,1,NA,NA,NA,NA,NA,NA,NA,NA,NA,NA,NA,NA,NA,NA,NA,NA,NA,NA,NA,NA,NA,NA,NA,NA
"3","stim/objects/HouseObjects/iron.png",136,37,136,0.5,"stim/51.jpeg",5,1,1,NA,"HouseObjects",1,2,"left","right",0.753000021,0,0,1,1,NA,NA,NA,NA,NA,NA,NA,NA,NA,NA,NA,NA,NA,NA,NA,NA,NA,NA,NA,NA,NA,NA,NA,NA
"46","stim/objects/HouseObjects/knife2.png",137,37,137,0.7,"stim/24.jpeg",2,4,2,NA,"HouseObjects",1,2,"left","left",0.50999999,1,1,1,1,NA,NA,NA,NA,NA,NA,NA,NA,NA,NA,NA,NA,NA,NA,NA,NA,NA,NA,NA,NA,NA,NA,NA,NA
"208","stim/objects/Instruments/oboe2.png",138,37,138,0.9,"stim/34.jpeg",3,4,3,NA,"Instruments",2,2,"right","right",0.505000114,1,1,1,1,NA,NA,NA,NA,NA,NA,NA,NA,NA,NA,NA,NA,NA,NA,NA,NA,NA,NA,NA,NA,NA,NA,NA,NA
"90","stim/objects/HouseObjects/remote2.png",139,37,139,0.9,"stim/42.jpeg",4,2,3,NA,"HouseObjects",1,1,"left","left",0.483999968,1,1,1,1,NA,NA,NA,NA,NA,NA,NA,NA,NA,NA,NA,NA,NA,NA,NA,NA,NA,NA,NA,NA,NA,NA,NA,NA
"110","stim/objects/HouseObjects/rug.png",140,37,140,0.3,"stim/14.jpeg",1,4,2,NA,"HouseObjects",1,4,"left","left",0.676999807,1,1,1,1,NA,NA,NA,NA,NA,NA,NA,NA,NA,NA,NA,NA,NA,NA,NA,NA,NA,NA,NA,NA,NA,NA,NA,NA
"117","stim/objects/HouseObjects/rug2.png",141,37,141,0.9,"stim/44.jpeg",4,4,3,NA,"HouseObjects",1,2,"left","left",0.638000011,1,1,1,1,NA,NA,NA,NA,NA,NA,NA,NA,NA,NA,NA,NA,NA,NA,NA,NA,NA,NA,NA,NA,NA,NA,NA,NA
"213","stim/objects/Instruments/panflute.png",142,37,142,0.7,"stim/11.jpeg",1,1,2,NA,"Instruments",2,3,"right","right",0.571000099,1,1,1,1,NA,NA,NA,NA,NA,NA,NA,NA,NA,NA,NA,NA,NA,NA,NA,NA,NA,NA,NA,NA,NA,NA,NA,NA
"220","stim/objects/Instruments/pipepiano.png",143,37,143,0.7,"stim/12.jpeg",1,2,2,NA,"Instruments",2,2,"right","left",0.636999846,0,0,1,1,NA,NA,NA,NA,NA,NA,NA,NA,NA,NA,NA,NA,NA,NA,NA,NA,NA,NA,NA,NA,NA,NA,NA,NA
"91","stim/objects/HouseObjects/remote2.png",144,37,144,0.9,"stim/42.jpeg",4,2,3,NA,"HouseObjects",1,2,"left","left",0.754000187,1,1,1,1,NA,NA,NA,NA,NA,NA,NA,NA,NA,NA,NA,NA,NA,NA,NA,NA,NA,NA,NA,NA,NA,NA,NA,NA
"144","stim/objects/Instruments/maraca2.png",145,37,145,0.3,"stim/23.jpeg",2,3,2,NA,"Instruments",2,1,"right","right",0.54399991,1,1,1,1,NA,NA,NA,NA,NA,NA,NA,NA,NA,NA,NA,NA,NA,NA,NA,NA,NA,NA,NA,NA,NA,NA,NA,NA
"227","stim/objects/Instruments/record_player.png",146,37,146,0.7,"stim/14.jpeg",1,4,2,NA,"Instruments",2,2,"right","left",0.546000004,0,0,1,1,NA,NA,NA,NA,NA,NA,NA,NA,NA,NA,NA,NA,NA,NA,NA,NA,NA,NA,NA,NA,NA,NA,NA,NA
"92","stim/objects/HouseObjects/remote2.png",147,37,147,0.9,"stim/42.jpeg",4,2,3,NA,"HouseObjects",1,1,"left","right",0.596999884,0,0,1,1,NA,NA,NA,NA,NA,NA,NA,NA,NA,NA,NA,NA,NA,NA,NA,NA,NA,NA,NA,NA,NA,NA,NA,NA
"105","stim/objects/HouseObjects/rubbergloves2.png",148,37,148,0.9,"stim/43.jpeg",4,3,3,NA,"HouseObjects",1,4,"left","left",0.644999981,1,1,1,1,NA,NA,NA,NA,NA,NA,NA,NA,NA,NA,NA,NA,NA,NA,NA,NA,NA,NA,NA,NA,NA,NA,NA,NA
"83","stim/objects/HouseObjects/recyclingbin2.png",149,37,149,0.9,"stim/41.jpeg",4,1,3,NA,"HouseObjects",1,3,"left","left",0.503999949,1,1,1,1,NA,NA,NA,NA,NA,NA,NA,NA,NA,NA,NA,NA,NA,NA,NA,NA,NA,NA,NA,NA,NA,NA,NA,NA
"21","stim/objects/HouseObjects/ironingboard2.png",150,37,150,0.7,"stim/22.jpeg",2,2,2,NA,"HouseObjects",1,3,"left","left",0.616999865,1,1,1,1,NA,NA,NA,NA,NA,NA,NA,NA,NA,NA,NA,NA,NA,NA,NA,NA,NA,NA,NA,NA,NA,NA,NA,NA
"240","stim/objects/Instruments/record2.png",151,37,151,0.1,"stim/43.jpeg",4,3,3,NA,"Instruments",2,3,"right","left",0.559999943,0,0,1,1,NA,NA,NA,NA,NA,NA,NA,NA,NA,NA,NA,NA,NA,NA,NA,NA,NA,NA,NA,NA,NA,NA,NA,NA
"93","stim/objects/HouseObjects/remote2.png",152,37,152,0.9,"stim/42.jpeg",4,2,3,NA,"HouseObjects",1,3,"left","left",0.504999876,1,1,1,1,NA,NA,NA,NA,NA,NA,NA,NA,NA,NA,NA,NA,NA,NA,NA,NA,NA,NA,NA,NA,NA,NA,NA,NA
"9","stim/objects/HouseObjects/iron2.png",153,37,153,0.7,"stim/21.jpeg",2,1,2,NA,"HouseObjects",1,3,"left","left",0.548000097,1,1,1,1,NA,NA,NA,NA,NA,NA,NA,NA,NA,NA,NA,NA,NA,NA,NA,NA,NA,NA,NA,NA,NA,NA,NA,NA
"27","stim/objects/HouseObjects/key.png",154,37,154,0.5,"stim/53.jpeg",5,3,1,NA,"HouseObjects",1,4,"left","right",0.736999989,0,0,1,1,NA,NA,NA,NA,NA,NA,NA,NA,NA,NA,NA,NA,NA,NA,NA,NA,NA,NA,NA,NA,NA,NA,NA,NA
"177","stim/objects/Instruments/musicsheet2.png",155,37,155,0.9,"stim/32.jpeg",3,2,3,NA,"Instruments",2,3,"right","right",0.565999985,1,1,1,1,NA,NA,NA,NA,NA,NA,NA,NA,NA,NA,NA,NA,NA,NA,NA,NA,NA,NA,NA,NA,NA,NA,NA,NA
"146","stim/objects/Instruments/marimba.png",156,37,156,0.5,"stim/54.jpeg",5,4,1,NA,"Instruments",2,2,"right","left",0.555999994,0,0,1,1,NA,NA,NA,NA,NA,NA,NA,NA,NA,NA,NA,NA,NA,NA,NA,NA,NA,NA,NA,NA,NA,NA,NA,NA
"56","stim/objects/HouseObjects/match.png",157,37,157,0.5,"stim/62.jpeg",6,2,1,NA,"HouseObjects",1,1,"left","right",0.525000095,0,0,1,1,NA,NA,NA,NA,NA,NA,NA,NA,NA,NA,NA,NA,NA,NA,NA,NA,NA,NA,NA,NA,NA,NA,NA,NA
"178","stim/objects/Instruments/musicsheet2.png",158,37,158,0.9,"stim/32.jpeg",3,2,3,NA,"Instruments",2,4,"right","right",0.637000084,1,1,1,1,NA,NA,NA,NA,NA,NA,NA,NA,NA,NA,NA,NA,NA,NA,NA,NA,NA,NA,NA,NA,NA,NA,NA,NA
"10","stim/objects/HouseObjects/iron2.png",159,37,159,0.7,"stim/21.jpeg",2,1,2,NA,"HouseObjects",1,1,"left","left",0.838999987,1,1,1,1,NA,NA,NA,NA,NA,NA,NA,NA,NA,NA,NA,NA,NA,NA,NA,NA,NA,NA,NA,NA,NA,NA,NA,NA
"47","stim/objects/HouseObjects/knife2.png",160,37,160,0.7,"stim/24.jpeg",2,4,2,NA,"HouseObjects",1,4,"left","left",0.594000101,1,1,1,1,NA,NA,NA,NA,NA,NA,NA,NA,NA,NA,NA,NA,NA,NA,NA,NA,NA,NA,NA,NA,NA,NA,NA,NA
"4","stim/objects/HouseObjects/iron.png",161,37,161,0.5,"stim/51.jpeg",5,1,1,NA,"HouseObjects",1,3,"left","right",0.715999842,0,0,1,1,NA,NA,NA,NA,NA,NA,NA,NA,NA,NA,NA,NA,NA,NA,NA,NA,NA,NA,NA,NA,NA,NA,NA,NA
"118","stim/objects/HouseObjects/rug2.png",162,37,162,0.9,"stim/44.jpeg",4,4,3,NA,"HouseObjects",1,4,"left","left",0.540999889,1,1,1,1,NA,NA,NA,NA,NA,NA,NA,NA,NA,NA,NA,NA,NA,NA,NA,NA,NA,NA,NA,NA,NA,NA,NA,NA
"140","stim/objects/Instruments/maraca.png",163,37,163,0.5,"stim/53.jpeg",5,3,1,NA,"Instruments",2,2,"right","left",0.713000059,0,0,1,1,NA,NA,NA,NA,NA,NA,NA,NA,NA,NA,NA,NA,NA,NA,NA,NA,NA,NA,NA,NA,NA,NA,NA,NA
"94","stim/objects/HouseObjects/remote2.png",164,37,164,0.9,"stim/42.jpeg",4,2,3,NA,"HouseObjects",1,4,"left","left",0.467000008,1,1,1,1,NA,NA,NA,NA,NA,NA,NA,NA,NA,NA,NA,NA,NA,NA,NA,NA,NA,NA,NA,NA,NA,NA,NA,NA
"147","stim/objects/Instruments/marimba.png",165,37,165,0.5,"stim/54.jpeg",5,4,1,NA,"Instruments",2,3,"right","left",0.592999935,0,0,1,1,NA,NA,NA,NA,NA,NA,NA,NA,NA,NA,NA,NA,NA,NA,NA,NA,NA,NA,NA,NA,NA,NA,NA,NA
"87","stim/objects/HouseObjects/remote.png",166,37,166,0.3,"stim/12.jpeg",1,2,2,NA,"HouseObjects",1,1,"left","right",0.57400012,0,0,1,1,NA,NA,NA,NA,NA,NA,NA,NA,NA,NA,NA,NA,NA,NA,NA,NA,NA,NA,NA,NA,NA,NA,NA,NA
"148","stim/objects/Instruments/marimba.png",167,37,167,0.5,"stim/54.jpeg",5,4,1,NA,"Instruments",2,2,"right","left",0.654000044,0,0,1,1,NA,NA,NA,NA,NA,NA,NA,NA,NA,NA,NA,NA,NA,NA,NA,NA,NA,NA,NA,NA,NA,NA,NA,NA
"197","stim/objects/Instruments/oboe.png",168,37,168,0.5,"stim/64.jpeg",6,4,1,NA,"Instruments",2,3,"right","right",0.621999979,1,1,1,1,NA,NA,NA,NA,NA,NA,NA,NA,NA,NA,NA,NA,NA,NA,NA,NA,NA,NA,NA,NA,NA,NA,NA,NA
"123","stim/objects/Instruments/keyboard.png",169,37,169,0.5,"stim/51.jpeg",5,1,1,NA,"Instruments",2,4,"right","right",0.917999983,1,1,1,1,NA,NA,NA,NA,NA,NA,NA,NA,NA,NA,NA,NA,NA,NA,NA,NA,NA,NA,NA,NA,NA,NA,NA,NA
"228","stim/objects/Instruments/record_player.png",170,37,170,0.7,"stim/14.jpeg",1,4,2,NA,"Instruments",2,3,"right","right",0.65899992,1,1,1,1,NA,NA,NA,NA,NA,NA,NA,NA,NA,NA,NA,NA,NA,NA,NA,NA,NA,NA,NA,NA,NA,NA,NA,NA
"22","stim/objects/HouseObjects/ironingboard2.png",171,37,171,0.7,"stim/22.jpeg",2,2,2,NA,"HouseObjects",1,4,"left","left",0.637000084,1,1,1,1,NA,NA,NA,NA,NA,NA,NA,NA,NA,NA,NA,NA,NA,NA,NA,NA,NA,NA,NA,NA,NA,NA,NA,NA
"236","stim/objects/Instruments/record.png",172,37,172,0.7,"stim/13.jpeg",1,3,2,NA,"Instruments",2,4,"right","right",0.620999813,1,1,1,1,NA,NA,NA,NA,NA,NA,NA,NA,NA,NA,NA,NA,NA,NA,NA,NA,NA,NA,NA,NA,NA,NA,NA,NA
"229","stim/objects/Instruments/record_player.png",173,37,173,0.7,"stim/14.jpeg",1,4,2,NA,"Instruments",2,1,"right","left",0.84800005,0,0,1,1,NA,NA,NA,NA,NA,NA,NA,NA,NA,NA,NA,NA,NA,NA,NA,NA,NA,NA,NA,NA,NA,NA,NA,NA
"127","stim/objects/Instruments/keyboard2.png",174,37,174,0.3,"stim/21.jpeg",2,1,2,NA,"Instruments",2,2,"right","left",0.715000153,0,0,1,1,NA,NA,NA,NA,NA,NA,NA,NA,NA,NA,NA,NA,NA,NA,NA,NA,NA,NA,NA,NA,NA,NA,NA,NA
"106","stim/objects/HouseObjects/rubbergloves2.png",175,37,175,0.9,"stim/43.jpeg",4,3,3,NA,"HouseObjects",1,3,"left","left",0.634000063,1,1,1,1,NA,NA,NA,NA,NA,NA,NA,NA,NA,NA,NA,NA,NA,NA,NA,NA,NA,NA,NA,NA,NA,NA,NA,NA
"107","stim/objects/HouseObjects/rubbergloves2.png",176,37,176,0.9,"stim/43.jpeg",4,3,3,NA,"HouseObjects",1,2,"left","left",0.63499999,1,1,1,1,NA,NA,NA,NA,NA,NA,NA,NA,NA,NA,NA,NA,NA,NA,NA,NA,NA,NA,NA,NA,NA,NA,NA,NA
"5","stim/objects/HouseObjects/iron.png",177,37,177,0.5,"stim/51.jpeg",5,1,1,NA,"HouseObjects",1,1,"left","right",0.673999786,0,0,1,1,NA,NA,NA,NA,NA,NA,NA,NA,NA,NA,NA,NA,NA,NA,NA,NA,NA,NA,NA,NA,NA,NA,NA,NA
"119","stim/objects/HouseObjects/rug2.png",178,37,178,0.9,"stim/44.jpeg",4,4,3,NA,"HouseObjects",1,4,"left","left",0.591999769,1,1,1,1,NA,NA,NA,NA,NA,NA,NA,NA,NA,NA,NA,NA,NA,NA,NA,NA,NA,NA,NA,NA,NA,NA,NA,NA
"179","stim/objects/Instruments/musicsheet2.png",179,37,179,0.9,"stim/32.jpeg",3,2,3,NA,"Instruments",2,4,"right","left",0.618000031,0,0,1,1,NA,NA,NA,NA,NA,NA,NA,NA,NA,NA,NA,NA,NA,NA,NA,NA,NA,NA,NA,NA,NA,NA,NA,NA
"135","stim/objects/Instruments/laud2.png",180,37,180,0.3,"stim/22.jpeg",2,2,2,NA,"Instruments",2,4,"right","right",0.748000145,1,1,1,1,NA,NA,NA,NA,NA,NA,NA,NA,NA,NA,NA,NA,NA,NA,NA,NA,NA,NA,NA,NA,NA,NA,NA,NA
"171","stim/objects/Instruments/musicsheet.png",181,37,181,0.5,"stim/62.jpeg",6,2,1,NA,"Instruments",2,1,"right","right",0.628999949,1,1,1,1,NA,NA,NA,NA,NA,NA,NA,NA,NA,NA,NA,NA,NA,NA,NA,NA,NA,NA,NA,NA,NA,NA,NA,NA
"214","stim/objects/Instruments/panflute.png",182,37,182,0.7,"stim/11.jpeg",1,1,2,NA,"Instruments",2,1,"right","right",0.634000063,1,1,1,1,NA,NA,NA,NA,NA,NA,NA,NA,NA,NA,NA,NA,NA,NA,NA,NA,NA,NA,NA,NA,NA,NA,NA,NA
"221","stim/objects/Instruments/pipepiano.png",183,37,183,0.7,"stim/12.jpeg",1,2,2,NA,"Instruments",2,3,"right","",NA,0,0,1,1,NA,NA,NA,NA,NA,NA,NA,NA,NA,NA,NA,NA,NA,NA,NA,NA,NA,NA,NA,NA,NA,NA,NA,NA
"70","stim/objects/HouseObjects/pitcher.png",184,37,184,0.5,"stim/64.jpeg",6,4,1,NA,"HouseObjects",1,3,"left","right",0.532999992,0,0,1,1,NA,NA,NA,NA,NA,NA,NA,NA,NA,NA,NA,NA,NA,NA,NA,NA,NA,NA,NA,NA,NA,NA,NA,NA
"95","stim/objects/HouseObjects/remote2.png",185,37,185,0.9,"stim/42.jpeg",4,2,3,NA,"HouseObjects",1,3,"left","left",0.649000168,1,1,1,1,NA,NA,NA,NA,NA,NA,NA,NA,NA,NA,NA,NA,NA,NA,NA,NA,NA,NA,NA,NA,NA,NA,NA,NA
"84","stim/objects/HouseObjects/recyclingbin2.png",186,37,186,0.9,"stim/41.jpeg",4,1,3,NA,"HouseObjects",1,1,"left","left",0.562999964,1,1,1,1,NA,NA,NA,NA,NA,NA,NA,NA,NA,NA,NA,NA,NA,NA,NA,NA,NA,NA,NA,NA,NA,NA,NA,NA
"98","stim/objects/HouseObjects/rubbergloves.png",187,37,187,0.3,"stim/13.jpeg",1,3,2,NA,"HouseObjects",1,4,"left","right",0.66899991,0,0,1,1,NA,NA,NA,NA,NA,NA,NA,NA,NA,NA,NA,NA,NA,NA,NA,NA,NA,NA,NA,NA,NA,NA,NA,NA
"63","stim/objects/HouseObjects/pan.png",188,37,188,0.5,"stim/63.jpeg",6,3,1,NA,"HouseObjects",1,1,"left","right",0.578000069,0,0,1,1,NA,NA,NA,NA,NA,NA,NA,NA,NA,NA,NA,NA,NA,NA,NA,NA,NA,NA,NA,NA,NA,NA,NA,NA
"108","stim/objects/HouseObjects/rubbergloves2.png",189,37,189,0.9,"stim/43.jpeg",4,3,3,NA,"HouseObjects",1,3,"left","left",0.559000015,1,1,1,1,NA,NA,NA,NA,NA,NA,NA,NA,NA,NA,NA,NA,NA,NA,NA,NA,NA,NA,NA,NA,NA,NA,NA,NA
"230","stim/objects/Instruments/record_player.png",190,37,190,0.7,"stim/14.jpeg",1,4,2,NA,"Instruments",2,3,"right","right",0.630000114,1,1,1,1,NA,NA,NA,NA,NA,NA,NA,NA,NA,NA,NA,NA,NA,NA,NA,NA,NA,NA,NA,NA,NA,NA,NA,NA
"35","stim/objects/HouseObjects/key2.png",191,37,191,0.7,"stim/23.jpeg",2,3,2,NA,"HouseObjects",1,3,"left","left",0.760999918,1,1,1,1,NA,NA,NA,NA,NA,NA,NA,NA,NA,NA,NA,NA,NA,NA,NA,NA,NA,NA,NA,NA,NA,NA,NA,NA
"193","stim/objects/Instruments/musicstand2.png",192,37,192,0.9,"stim/33.jpeg",3,3,3,NA,"Instruments",2,3,"right","right",0.56799984,1,1,1,1,NA,NA,NA,NA,NA,NA,NA,NA,NA,NA,NA,NA,NA,NA,NA,NA,NA,NA,NA,NA,NA,NA,NA,NA
"64","stim/objects/HouseObjects/pan.png",193,37,193,0.5,"stim/63.jpeg",6,3,1,NA,"HouseObjects",1,4,"left","left",0.747999907,1,1,1,1,NA,NA,NA,NA,NA,NA,NA,NA,NA,NA,NA,NA,NA,NA,NA,NA,NA,NA,NA,NA,NA,NA,NA,NA
"57","stim/objects/HouseObjects/match.png",194,37,194,0.5,"stim/62.jpeg",6,2,1,NA,"HouseObjects",1,4,"left","right",0.628000021,0,0,1,1,NA,NA,NA,NA,NA,NA,NA,NA,NA,NA,NA,NA,NA,NA,NA,NA,NA,NA,NA,NA,NA,NA,NA,NA
"231","stim/objects/Instruments/record_player.png",195,37,195,0.7,"stim/14.jpeg",1,4,2,NA,"Instruments",2,3,"right","right",0.77699995,1,1,1,1,NA,NA,NA,NA,NA,NA,NA,NA,NA,NA,NA,NA,NA,NA,NA,NA,NA,NA,NA,NA,NA,NA,NA,NA
"52","stim/objects/HouseObjects/lintroller.png",196,37,196,0.5,"stim/61.jpeg",6,1,1,NA,"HouseObjects",1,1,"left","right",0.552000046,0,0,1,1,NA,NA,NA,NA,NA,NA,NA,NA,NA,NA,NA,NA,NA,NA,NA,NA,NA,NA,NA,NA,NA,NA,NA,NA
"96","stim/objects/HouseObjects/remote2.png",197,37,197,0.9,"stim/42.jpeg",4,2,3,NA,"HouseObjects",1,2,"left","left",0.559000015,1,1,1,1,NA,NA,NA,NA,NA,NA,NA,NA,NA,NA,NA,NA,NA,NA,NA,NA,NA,NA,NA,NA,NA,NA,NA,NA
"164","stim/objects/Instruments/metronome2.png",198,37,198,0.9,"stim/31.jpeg",3,1,3,NA,"Instruments",2,1,"right","right",0.594000101,1,1,1,1,NA,NA,NA,NA,NA,NA,NA,NA,NA,NA,NA,NA,NA,NA,NA,NA,NA,NA,NA,NA,NA,NA,NA,NA
"124","stim/objects/Instruments/keyboard.png",199,37,199,0.5,"stim/51.jpeg",5,1,1,NA,"Instruments",2,4,"right","left",0.699999809,0,0,1,1,NA,NA,NA,NA,NA,NA,NA,NA,NA,NA,NA,NA,NA,NA,NA,NA,NA,NA,NA,NA,NA,NA,NA,NA
"23","stim/objects/HouseObjects/ironingboard2.png",200,37,200,0.7,"stim/22.jpeg",2,2,2,NA,"HouseObjects",1,3,"left","right",0.645999908,0,0,1,1,NA,NA,NA,NA,NA,NA,NA,NA,NA,NA,NA,NA,NA,NA,NA,NA,NA,NA,NA,NA,NA,NA,NA,NA
"237","stim/objects/Instruments/record.png",201,37,201,0.7,"stim/13.jpeg",1,3,2,NA,"Instruments",2,4,"right","left",0.536999941,0,0,1,1,NA,NA,NA,NA,NA,NA,NA,NA,NA,NA,NA,NA,NA,NA,NA,NA,NA,NA,NA,NA,NA,NA,NA,NA
"180","stim/objects/Instruments/musicsheet2.png",202,37,202,0.9,"stim/32.jpeg",3,2,3,NA,"Instruments",2,4,"right","right",0.596999884,1,1,1,1,NA,NA,NA,NA,NA,NA,NA,NA,NA,NA,NA,NA,NA,NA,NA,NA,NA,NA,NA,NA,NA,NA,NA,NA
"149","stim/objects/Instruments/marimba.png",203,37,203,0.5,"stim/54.jpeg",5,4,1,NA,"Instruments",2,3,"right","left",0.609999895,0,0,1,1,NA,NA,NA,NA,NA,NA,NA,NA,NA,NA,NA,NA,NA,NA,NA,NA,NA,NA,NA,NA,NA,NA,NA,NA
"11","stim/objects/HouseObjects/iron2.png",204,37,204,0.7,"stim/21.jpeg",2,1,2,NA,"HouseObjects",1,1,"left","right",0.537999868,0,0,1,1,NA,NA,NA,NA,NA,NA,NA,NA,NA,NA,NA,NA,NA,NA,NA,NA,NA,NA,NA,NA,NA,NA,NA,NA
"132","stim/objects/Instruments/laud.png",205,37,205,0.5,"stim/52.jpeg",5,2,1,NA,"Instruments",2,2,"right","left",0.51699996,0,0,1,1,NA,NA,NA,NA,NA,NA,NA,NA,NA,NA,NA,NA,NA,NA,NA,NA,NA,NA,NA,NA,NA,NA,NA,NA
"184","stim/objects/Instruments/musicstand.png",206,37,206,0.5,"stim/63.jpeg",6,3,1,NA,"Instruments",2,4,"right","right",0.527999878,1,1,1,1,NA,NA,NA,NA,NA,NA,NA,NA,NA,NA,NA,NA,NA,NA,NA,NA,NA,NA,NA,NA,NA,NA,NA,NA
"133","stim/objects/Instruments/laud.png",207,37,207,0.5,"stim/52.jpeg",5,2,1,NA,"Instruments",2,2,"right","left",0.607000113,0,0,1,1,NA,NA,NA,NA,NA,NA,NA,NA,NA,NA,NA,NA,NA,NA,NA,NA,NA,NA,NA,NA,NA,NA,NA,NA
"222","stim/objects/Instruments/pipepiano.png",208,37,208,0.7,"stim/12.jpeg",1,2,2,NA,"Instruments",2,1,"right","right",0.646000147,1,1,1,1,NA,NA,NA,NA,NA,NA,NA,NA,NA,NA,NA,NA,NA,NA,NA,NA,NA,NA,NA,NA,NA,NA,NA,NA
"36","stim/objects/HouseObjects/key2.png",209,37,209,0.7,"stim/23.jpeg",2,3,2,NA,"HouseObjects",1,4,"left","left",0.546000004,1,1,1,1,NA,NA,NA,NA,NA,NA,NA,NA,NA,NA,NA,NA,NA,NA,NA,NA,NA,NA,NA,NA,NA,NA,NA,NA
"17","stim/objects/HouseObjects/ironingboard.png",210,37,210,0.5,"stim/52.jpeg",5,2,1,NA,"HouseObjects",1,1,"left","right",0.683000088,0,0,1,1,NA,NA,NA,NA,NA,NA,NA,NA,NA,NA,NA,NA,NA,NA,NA,NA,NA,NA,NA,NA,NA,NA,NA,NA
"198","stim/objects/Instruments/oboe.png",211,37,211,0.5,"stim/64.jpeg",6,4,1,NA,"Instruments",2,3,"right","right",0.894000053,1,1,1,1,NA,NA,NA,NA,NA,NA,NA,NA,NA,NA,NA,NA,NA,NA,NA,NA,NA,NA,NA,NA,NA,NA,NA,NA
"136","stim/objects/Instruments/laud2.png",212,37,212,0.3,"stim/22.jpeg",2,2,2,NA,"Instruments",2,3,"right","left",0.663000107,0,0,1,1,NA,NA,NA,NA,NA,NA,NA,NA,NA,NA,NA,NA,NA,NA,NA,NA,NA,NA,NA,NA,NA,NA,NA,NA
"28","stim/objects/HouseObjects/key.png",213,37,213,0.5,"stim/53.jpeg",5,3,1,NA,"HouseObjects",1,1,"left","right",0.798000097,0,0,1,1,NA,NA,NA,NA,NA,NA,NA,NA,NA,NA,NA,NA,NA,NA,NA,NA,NA,NA,NA,NA,NA,NA,NA,NA
"53","stim/objects/HouseObjects/lintroller.png",214,37,214,0.5,"stim/61.jpeg",6,1,1,NA,"HouseObjects",1,4,"left","left",0.583000183,1,1,1,1,NA,NA,NA,NA,NA,NA,NA,NA,NA,NA,NA,NA,NA,NA,NA,NA,NA,NA,NA,NA,NA,NA,NA,NA
"157","stim/objects/Instruments/metronome.png",215,37,215,0.5,"stim/61.jpeg",6,1,1,NA,"Instruments",2,1,"right","left",0.858999968,0,0,1,1,NA,NA,NA,NA,NA,NA,NA,NA,NA,NA,NA,NA,NA,NA,NA,NA,NA,NA,NA,NA,NA,NA,NA,NA
"128","stim/objects/Instruments/keyboard2.png",216,37,216,0.3,"stim/21.jpeg",2,1,2,NA,"Instruments",2,4,"right","left",0.677999973,0,0,1,1,NA,NA,NA,NA,NA,NA,NA,NA,NA,NA,NA,NA,NA,NA,NA,NA,NA,NA,NA,NA,NA,NA,NA,NA
"71","stim/objects/HouseObjects/pitcher.png",217,37,217,0.5,"stim/64.jpeg",6,4,1,NA,"HouseObjects",1,4,"left","left",0.796999931,1,1,1,1,NA,NA,NA,NA,NA,NA,NA,NA,NA,NA,NA,NA,NA,NA,NA,NA,NA,NA,NA,NA,NA,NA,NA,NA
"141","stim/objects/Instruments/maraca.png",218,37,218,0.5,"stim/53.jpeg",5,3,1,NA,"Instruments",2,4,"right","",NA,0,0,1,1,NA,NA,NA,NA,NA,NA,NA,NA,NA,NA,NA,NA,NA,NA,NA,NA,NA,NA,NA,NA,NA,NA,NA,NA
"58","stim/objects/HouseObjects/match.png",219,37,219,0.5,"stim/62.jpeg",6,2,1,NA,"HouseObjects",1,3,"left","left",0.569000006,1,1,1,1,NA,NA,NA,NA,NA,NA,NA,NA,NA,NA,NA,NA,NA,NA,NA,NA,NA,NA,NA,NA,NA,NA,NA,NA
"48","stim/objects/HouseObjects/knife2.png",220,37,220,0.7,"stim/24.jpeg",2,4,2,NA,"HouseObjects",1,2,"left","left",0.623000145,1,1,1,1,NA,NA,NA,NA,NA,NA,NA,NA,NA,NA,NA,NA,NA,NA,NA,NA,NA,NA,NA,NA,NA,NA,NA,NA
"59","stim/objects/HouseObjects/match.png",221,37,221,0.5,"stim/62.jpeg",6,2,1,NA,"HouseObjects",1,3,"left","right",0.525000095,0,0,1,1,NA,NA,NA,NA,NA,NA,NA,NA,NA,NA,NA,NA,NA,NA,NA,NA,NA,NA,NA,NA,NA,NA,NA,NA
"199","stim/objects/Instruments/oboe.png",222,37,222,0.5,"stim/64.jpeg",6,4,1,NA,"Instruments",2,1,"right","left",0.65899992,0,0,1,1,NA,NA,NA,NA,NA,NA,NA,NA,NA,NA,NA,NA,NA,NA,NA,NA,NA,NA,NA,NA,NA,NA,NA,NA
"111","stim/objects/HouseObjects/rug.png",223,37,223,0.3,"stim/14.jpeg",1,4,2,NA,"HouseObjects",1,3,"left","left",0.578999996,1,1,1,1,NA,NA,NA,NA,NA,NA,NA,NA,NA,NA,NA,NA,NA,NA,NA,NA,NA,NA,NA,NA,NA,NA,NA,NA
"165","stim/objects/Instruments/metronome2.png",224,37,224,0.9,"stim/31.jpeg",3,1,3,NA,"Instruments",2,2,"right","left",0.572000027,0,0,1,1,NA,NA,NA,NA,NA,NA,NA,NA,NA,NA,NA,NA,NA,NA,NA,NA,NA,NA,NA,NA,NA,NA,NA,NA
"120","stim/objects/HouseObjects/rug2.png",225,37,225,0.9,"stim/44.jpeg",4,4,3,NA,"HouseObjects",1,2,"left","left",0.556999922,1,1,1,1,NA,NA,NA,NA,NA,NA,NA,NA,NA,NA,NA,NA,NA,NA,NA,NA,NA,NA,NA,NA,NA,NA,NA,NA
"238","stim/objects/Instruments/record.png",226,37,226,0.7,"stim/13.jpeg",1,3,2,NA,"Instruments",2,4,"right","right",0.583000183,1,1,1,1,NA,NA,NA,NA,NA,NA,NA,NA,NA,NA,NA,NA,NA,NA,NA,NA,NA,NA,NA,NA,NA,NA,NA,NA
"125","stim/objects/Instruments/keyboard.png",227,37,227,0.5,"stim/51.jpeg",5,1,1,NA,"Instruments",2,1,"right","right",0.738000154,1,1,1,1,NA,NA,NA,NA,NA,NA,NA,NA,NA,NA,NA,NA,NA,NA,NA,NA,NA,NA,NA,NA,NA,NA,NA,NA
"194","stim/objects/Instruments/musicstand2.png",228,37,228,0.9,"stim/33.jpeg",3,3,3,NA,"Instruments",2,2,"right","left",0.779000044,0,0,1,1,NA,NA,NA,NA,NA,NA,NA,NA,NA,NA,NA,NA,NA,NA,NA,NA,NA,NA,NA,NA,NA,NA,NA,NA
"152","stim/objects/Instruments/marimba2.png",229,37,229,0.3,"stim/24.jpeg",2,4,2,NA,"Instruments",2,2,"right","right",0.618000031,1,1,1,1,NA,NA,NA,NA,NA,NA,NA,NA,NA,NA,NA,NA,NA,NA,NA,NA,NA,NA,NA,NA,NA,NA,NA,NA
"24","stim/objects/HouseObjects/ironingboard2.png",230,37,230,0.7,"stim/22.jpeg",2,2,2,NA,"HouseObjects",1,3,"left","right",0.580000162,0,0,1,1,NA,NA,NA,NA,NA,NA,NA,NA,NA,NA,NA,NA,NA,NA,NA,NA,NA,NA,NA,NA,NA,NA,NA,NA
"185","stim/objects/Instruments/musicstand.png",231,37,231,0.5,"stim/63.jpeg",6,3,1,NA,"Instruments",2,3,"right","left",0.823999882,0,0,1,1,NA,NA,NA,NA,NA,NA,NA,NA,NA,NA,NA,NA,NA,NA,NA,NA,NA,NA,NA,NA,NA,NA,NA,NA
"12","stim/objects/HouseObjects/iron2.png",232,37,232,0.7,"stim/21.jpeg",2,1,2,NA,"HouseObjects",1,2,"left","left",0.631000042,1,1,1,1,NA,NA,NA,NA,NA,NA,NA,NA,NA,NA,NA,NA,NA,NA,NA,NA,NA,NA,NA,NA,NA,NA,NA,NA
"65","stim/objects/HouseObjects/pan.png",233,37,233,0.5,"stim/63.jpeg",6,3,1,NA,"HouseObjects",1,3,"left","right",0.492000103,0,0,1,1,NA,NA,NA,NA,NA,NA,NA,NA,NA,NA,NA,NA,NA,NA,NA,NA,NA,NA,NA,NA,NA,NA,NA,NA
"239","stim/objects/Instruments/record.png",234,37,234,0.7,"stim/13.jpeg",1,3,2,NA,"Instruments",2,4,"right","left",0.573000193,0,0,1,1,NA,NA,NA,NA,NA,NA,NA,NA,NA,NA,NA,NA,NA,NA,NA,NA,NA,NA,NA,NA,NA,NA,NA,NA
"223","stim/objects/Instruments/pipepiano.png",235,37,235,0.7,"stim/12.jpeg",1,2,2,NA,"Instruments",2,2,"right","left",0.512000084,0,0,1,1,NA,NA,NA,NA,NA,NA,NA,NA,NA,NA,NA,NA,NA,NA,NA,NA,NA,NA,NA,NA,NA,NA,NA,NA
"215","stim/objects/Instruments/panflute.png",236,37,236,0.7,"stim/11.jpeg",1,1,2,NA,"Instruments",2,2,"right","right",0.758999825,1,1,1,1,NA,NA,NA,NA,NA,NA,NA,NA,NA,NA,NA,NA,NA,NA,NA,NA,NA,NA,NA,NA,NA,NA,NA,NA
"75","stim/objects/HouseObjects/recyclingbin.png",237,37,237,0.3,"stim/11.jpeg",1,1,2,NA,"HouseObjects",1,4,"left","right",0.441999912,0,0,1,1,NA,NA,NA,NA,NA,NA,NA,NA,NA,NA,NA,NA,NA,NA,NA,NA,NA,NA,NA,NA,NA,NA,NA,NA
"166","stim/objects/Instruments/metronome2.png",238,37,238,0.9,"stim/31.jpeg",3,1,3,NA,"Instruments",2,2,"right","right",0.65199995,1,1,1,1,NA,NA,NA,NA,NA,NA,NA,NA,NA,NA,NA,NA,NA,NA,NA,NA,NA,NA,NA,NA,NA,NA,NA,NA
"99","stim/objects/HouseObjects/rubbergloves.png",239,37,239,0.3,"stim/13.jpeg",1,3,2,NA,"HouseObjects",1,4,"left","right",0.569000006,0,0,1,1,NA,NA,NA,NA,NA,NA,NA,NA,NA,NA,NA,NA,NA,NA,NA,NA,NA,NA,NA,NA,NA,NA,NA,NA
"29","stim/objects/HouseObjects/key.png",240,37,240,0.5,"stim/53.jpeg",5,3,1,NA,"HouseObjects",1,4,"left","left",0.765000105,1,1,1,1,NA,NA,NA,NA,NA,NA,NA,NA,NA,NA,NA,NA,NA,NA,NA,NA,NA,NA,NA,NA,NA,NA,NA,NA
"456","stim/objects/Instruments/flute.png",248,37,241,0.9,"stim/34.jpeg",3,4,3,2,"Instruments",2,2,"right","right",0.693000078,1,1,1,0,NA,NA,NA,NA,NA,NA,NA,NA,NA,NA,NA,NA,NA,NA,NA,NA,NA,NA,NA,NA,NA,NA,NA,NA
"250","stim/objects/HouseObjects/basket.png",249,37,242,0.5,"stim/54.jpeg",5,4,1,2,"HouseObjects",1,1,"left","left",0.799999952,1,1,1,0,NA,NA,NA,NA,NA,NA,NA,NA,NA,NA,NA,NA,NA,NA,NA,NA,NA,NA,NA,NA,NA,NA,NA,NA
"443","stim/objects/Instruments/doublebass2.png",250,37,243,0.3,"stim/24.jpeg",2,4,2,1,"Instruments",2,3,"right","left",0.868999958,0,0,1,0,133,37,1,0.3,2,"stim/24.jpeg",2,4,"stim/24.jpeg",3,"left",0.937000036,3,1,0.630000114,3,0.535000086,133,1,0,0,1,1,1
"473","stim/objects/Instruments/flutetrans.png",251,37,244,0.9,"stim/33.jpeg",3,3,3,2,"Instruments",2,2,"right","right",0.677999973,1,1,1,0,NA,NA,NA,NA,NA,NA,NA,NA,NA,NA,NA,NA,NA,NA,NA,NA,NA,NA,NA,NA,NA,NA,NA,NA
"381","stim/objects/HouseObjects/handbrush2.png",252,37,245,0.1,"stim/34.jpeg",3,4,3,1,"HouseObjects",1,3,"left","right",0.654000044,0,0,1,0,12,37,1,0.1,1,"stim/34.jpeg",3,4,"stim/34.jpeg",3,"left",1.092999935,3,2,2.86500001,3,1.688999891,12,1,0,0,1,1,1
"506","stim/objects/Instruments/frenchhorn2.png",253,37,246,0.9,"stim/31.jpeg",3,1,3,1,"Instruments",2,1,"right","right",0.57799983,1,1,1,0,122,37,1,0.9,2,"stim/31.jpeg",3,1,"stim/31.jpeg",1,"left",0.861999989,3,4,1.707000017,3,0.921000004,122,1,0,0,0,0,1
"382","stim/objects/HouseObjects/handvacuum.png",254,37,247,0.5,"stim/52.jpeg",5,2,1,1,"HouseObjects",1,4,"left","left",0.582000017,1,1,1,0,168,37,1,0.5,1,"stim/52.jpeg",5,2,"stim/52.jpeg",4,"left",0.861000061,2,1,0.674000025,3,0.5,168,1,0,0,0,0,1
"409","stim/objects/Instruments/acousticguitar.png",255,37,248,0.5,"stim/51.jpeg",5,1,1,2,"Instruments",2,3,"right","right",0.662000179,1,1,1,0,NA,NA,NA,NA,NA,NA,NA,NA,NA,NA,NA,NA,NA,NA,NA,NA,NA,NA,NA,NA,NA,NA,NA,NA
"559","stim/objects/Instruments/trombone.png",256,37,249,0.5,"stim/64.jpeg",6,4,1,1,"Instruments",2,1,"right","right",0.680000067,1,1,1,0,125,37,1,0.5,2,"stim/64.jpeg",6,4,"stim/64.jpeg",1,"right",1.577000141,2,1,0.53399992,3,0.541000128,125,0,0,NA,0,NA,1
"420","stim/objects/Instruments/bassdrum2.png",257,37,250,0.7,"stim/13.jpeg",1,3,2,1,"Instruments",2,1,"right","right",0.782000065,1,1,1,0,3,37,1,0.7,2,"stim/13.jpeg",1,3,"stim/13.jpeg",1,"left",1.390999794,2,1,5.868000031,3,2.616999865,3,1,0,0,0,0,1
"491","stim/objects/Instruments/frenchhorn.png",258,37,251,0.9,"stim/32.jpeg",3,2,3,2,"Instruments",2,2,"right","right",0.588000059,1,1,1,0,NA,NA,NA,NA,NA,NA,NA,NA,NA,NA,NA,NA,NA,NA,NA,NA,NA,NA,NA,NA,NA,NA,NA,NA
"474","stim/objects/Instruments/flutetrans.png",259,37,252,0.9,"stim/34.jpeg",3,4,3,2,"Instruments",2,3,"right","right",0.520999908,1,1,1,0,NA,NA,NA,NA,NA,NA,NA,NA,NA,NA,NA,NA,NA,NA,NA,NA,NA,NA,NA,NA,NA,NA,NA,NA
"508","stim/objects/Instruments/gong.png",260,37,253,0.9,"stim/32.jpeg",3,2,3,2,"Instruments",2,3,"right","right",0.457000017,1,1,1,0,NA,NA,NA,NA,NA,NA,NA,NA,NA,NA,NA,NA,NA,NA,NA,NA,NA,NA,NA,NA,NA,NA,NA,NA
"394","stim/objects/HouseObjects/teapot.png",261,37,254,0.5,"stim/61.jpeg",6,1,1,1,"HouseObjects",1,1,"left","left",0.693000078,1,1,1,0,106,37,1,0.5,2,"stim/61.jpeg",6,1,"stim/61.jpeg",1,"left",1.449999809,3,1,0.92200017,2,0.417000055,106,1,1,1,0,0,1
"457","stim/objects/Instruments/flute.png",262,37,255,0.9,"stim/31.jpeg",3,1,3,2,"Instruments",2,2,"right","right",0.539000034,1,1,1,0,NA,NA,NA,NA,NA,NA,NA,NA,NA,NA,NA,NA,NA,NA,NA,NA,NA,NA,NA,NA,NA,NA,NA,NA
"435","stim/objects/Instruments/cornet2.png",263,37,256,0.3,"stim/22.jpeg",2,2,2,1,"Instruments",2,4,"right","left",0.529000044,0,0,1,0,155,37,1,0.3,2,"stim/22.jpeg",2,2,"stim/22.jpeg",4,"right",0.94299984,2,4,0.858999968,3,0.865999937,155,0,0,NA,0,NA,1
"545","stim/objects/Instruments/harp.png",264,37,257,0.5,"stim/54.jpeg",5,4,1,1,"Instruments",2,4,"right","left",0.696000099,0,0,1,0,23,37,1,0.5,1,"stim/54.jpeg",5,4,"stim/54.jpeg",4,"left",1.208999872,2,3,5.539999962,1,0.588000059,23,1,0,0,0,0,1
"342","stim/objects/HouseObjects/garbagebin.png",265,37,258,0.9,"stim/42.jpeg",4,2,3,2,"HouseObjects",1,2,"left","left",0.717000008,1,1,1,0,NA,NA,NA,NA,NA,NA,NA,NA,NA,NA,NA,NA,NA,NA,NA,NA,NA,NA,NA,NA,NA,NA,NA,NA
"526","stim/objects/Instruments/grandpiano.png",266,37,259,0.9,"stim/32.jpeg",3,2,3,2,"Instruments",2,1,"right","right",0.499000072,1,1,1,0,NA,NA,NA,NA,NA,NA,NA,NA,NA,NA,NA,NA,NA,NA,NA,NA,NA,NA,NA,NA,NA,NA,NA,NA
"447","stim/objects/Instruments/drums2.png",267,37,260,0.3,"stim/21.jpeg",2,1,2,1,"Instruments",2,3,"right","left",0.697000027,0,0,1,0,158,37,1,0.3,2,"stim/21.jpeg",2,1,"stim/21.jpeg",3,"left",0.871000051,3,4,2.839999914,3,1.187000036,158,1,0,0,1,1,1
"418","stim/objects/Instruments/bassdrum.png",268,37,261,0.5,"stim/54.jpeg",5,4,1,2,"Instruments",2,3,"right","left",0.821000099,0,0,1,0,NA,NA,NA,NA,NA,NA,NA,NA,NA,NA,NA,NA,NA,NA,NA,NA,NA,NA,NA,NA,NA,NA,NA,NA
"560","stim/objects/Instruments/trombone2.png",269,37,262,0.1,"stim/43.jpeg",4,3,3,1,"Instruments",2,4,"right","left",0.605999947,0,0,1,0,25,37,1,0.1,2,"stim/43.jpeg",4,3,"stim/43.jpeg",4,"right",1.995000124,2,2,2.086999893,1,1.429000139,25,0,0,NA,0,NA,1
"292","stim/objects/HouseObjects/doormat.png",270,37,263,0.9,"stim/41.jpeg",4,1,3,2,"HouseObjects",1,4,"left","left",0.626999855,1,1,1,0,NA,NA,NA,NA,NA,NA,NA,NA,NA,NA,NA,NA,NA,NA,NA,NA,NA,NA,NA,NA,NA,NA,NA,NA
"308","stim/objects/HouseObjects/dustpan.png",271,37,264,0.9,"stim/41.jpeg",4,1,3,2,"HouseObjects",1,2,"left","left",0.603000164,1,1,1,0,NA,NA,NA,NA,NA,NA,NA,NA,NA,NA,NA,NA,NA,NA,NA,NA,NA,NA,NA,NA,NA,NA,NA,NA
"261","stim/objects/HouseObjects/bottle2.png",272,37,265,0.7,"stim/21.jpeg",2,1,2,1,"HouseObjects",1,1,"left","left",0.898000002,1,1,1,0,105,37,1,0.7,1,"stim/21.jpeg",2,1,"stim/21.jpeg",1,"right",1.240999937,2,3,1.101999998,2,0.648000002,105,0,0,NA,0,NA,1
"309","stim/objects/HouseObjects/dustpan.png",273,37,266,0.9,"stim/43.jpeg",4,3,3,2,"HouseObjects",1,4,"left","left",0.613000154,1,1,1,0,NA,NA,NA,NA,NA,NA,NA,NA,NA,NA,NA,NA,NA,NA,NA,NA,NA,NA,NA,NA,NA,NA,NA,NA
"267","stim/objects/HouseObjects/bucket2.png",274,37,267,0.7,"stim/23.jpeg",2,3,2,1,"HouseObjects",1,3,"left","right",0.662999868,0,0,1,0,177,37,1,0.7,1,"stim/23.jpeg",2,3,"stim/23.jpeg",3,"right",0.894999981,2,2,0.589000225,3,0.56099987,177,0,0,NA,1,NA,1
"326","stim/objects/HouseObjects/flyswatter.png",275,37,268,0.9,"stim/43.jpeg",4,3,3,2,"HouseObjects",1,1,"left","left",0.641000032,1,1,1,0,NA,NA,NA,NA,NA,NA,NA,NA,NA,NA,NA,NA,NA,NA,NA,NA,NA,NA,NA,NA,NA,NA,NA,NA
"542","stim/objects/Instruments/guitarcase2.png",276,37,269,0.9,"stim/34.jpeg",3,4,3,1,"Instruments",2,4,"right","right",0.661000013,1,1,1,0,56,37,1,0.9,2,"stim/34.jpeg",3,4,"stim/34.jpeg",4,"left",1.006999969,3,2,1.51699996,4,1.02699995,56,1,0,0,1,1,1
"440","stim/objects/Instruments/doublebass.png",277,37,270,0.7,"stim/12.jpeg",1,2,2,2,"Instruments",2,1,"right","right",0.71600008,1,1,1,0,NA,NA,NA,NA,NA,NA,NA,NA,NA,NA,NA,NA,NA,NA,NA,NA,NA,NA,NA,NA,NA,NA,NA,NA
"540","stim/objects/Instruments/grandpiano2.png",278,37,271,0.9,"stim/33.jpeg",3,3,3,1,"Instruments",2,2,"right","",NA,0,0,1,0,130,37,1,0.9,2,"stim/33.jpeg",3,3,"stim/33.jpeg",2,"right",0.817000151,2,3,0.612999916,3,0.784000158,130,0,1,NA,0,NA,1
"476","stim/objects/Instruments/flutetrans.png",279,37,272,0.9,"stim/33.jpeg",3,3,3,2,"Instruments",2,3,"right","right",0.765000105,1,1,1,0,NA,NA,NA,NA,NA,NA,NA,NA,NA,NA,NA,NA,NA,NA,NA,NA,NA,NA,NA,NA,NA,NA,NA,NA
"459","stim/objects/Instruments/flute.png",280,37,273,0.9,"stim/32.jpeg",3,2,3,2,"Instruments",2,2,"right","right",0.498000145,1,1,1,0,NA,NA,NA,NA,NA,NA,NA,NA,NA,NA,NA,NA,NA,NA,NA,NA,NA,NA,NA,NA,NA,NA,NA,NA
"558","stim/objects/Instruments/triangle2.png",281,37,274,0.1,"stim/42.jpeg",4,2,3,1,"Instruments",2,1,"right","right",0.452000141,1,1,1,0,7,37,1,0.1,2,"stim/42.jpeg",4,2,"stim/42.jpeg",1,"left",1.056999922,4,4,5.799000025,4,1.367000103,7,1,0,0,0,0,1
"343","stim/objects/HouseObjects/garbagebin.png",282,37,275,0.9,"stim/42.jpeg",4,2,3,2,"HouseObjects",1,1,"left","left",0.626000166,1,1,1,0,NA,NA,NA,NA,NA,NA,NA,NA,NA,NA,NA,NA,NA,NA,NA,NA,NA,NA,NA,NA,NA,NA,NA,NA
"358","stim/objects/HouseObjects/garbagebin2.png",283,37,276,0.1,"stim/34.jpeg",3,4,3,1,"HouseObjects",1,4,"left","right",0.501000166,0,0,1,0,114,37,1,0.1,1,"stim/34.jpeg",3,4,"stim/34.jpeg",4,"right",1.952000141,2,1,0.700000048,3,0.809999943,114,0,0,NA,0,NA,1
"253","stim/objects/HouseObjects/bleachbottle.png",284,37,277,0.5,"stim/52.jpeg",5,2,1,2,"HouseObjects",1,1,"left","right",0.517999887,0,0,1,0,NA,NA,NA,NA,NA,NA,NA,NA,NA,NA,NA,NA,NA,NA,NA,NA,NA,NA,NA,NA,NA,NA,NA,NA
"268","stim/objects/HouseObjects/clock.png",285,37,278,0.5,"stim/64.jpeg",6,4,1,2,"HouseObjects",1,1,"left","right",0.612999916,0,0,1,0,NA,NA,NA,NA,NA,NA,NA,NA,NA,NA,NA,NA,NA,NA,NA,NA,NA,NA,NA,NA,NA,NA,NA,NA
"527","stim/objects/Instruments/grandpiano.png",286,37,279,0.9,"stim/31.jpeg",3,1,3,2,"Instruments",2,2,"right","left",0.463000059,0,0,1,0,NA,NA,NA,NA,NA,NA,NA,NA,NA,NA,NA,NA,NA,NA,NA,NA,NA,NA,NA,NA,NA,NA,NA,NA
"528","stim/objects/Instruments/grandpiano.png",287,37,280,0.9,"stim/31.jpeg",3,1,3,2,"Instruments",2,3,"right","right",0.50999999,1,1,1,0,NA,NA,NA,NA,NA,NA,NA,NA,NA,NA,NA,NA,NA,NA,NA,NA,NA,NA,NA,NA,NA,NA,NA,NA
"509","stim/objects/Instruments/gong.png",288,37,281,0.9,"stim/32.jpeg",3,2,3,2,"Instruments",2,4,"right","right",0.465999842,1,1,1,0,NA,NA,NA,NA,NA,NA,NA,NA,NA,NA,NA,NA,NA,NA,NA,NA,NA,NA,NA,NA,NA,NA,NA,NA
"310","stim/objects/HouseObjects/dustpan.png",289,37,282,0.9,"stim/43.jpeg",4,3,3,2,"HouseObjects",1,2,"left","left",0.563999891,1,1,1,0,NA,NA,NA,NA,NA,NA,NA,NA,NA,NA,NA,NA,NA,NA,NA,NA,NA,NA,NA,NA,NA,NA,NA,NA
"564","stim/objects/Instruments/tuba2.png",290,37,283,0.1,"stim/41.jpeg",4,1,3,1,"Instruments",2,3,"right","left",0.567000151,0,0,1,0,142,37,1,0.1,2,"stim/41.jpeg",4,1,"stim/41.jpeg",3,"right",0.802000046,2,1,0.830000162,3,0.61500001,142,0,1,NA,1,NA,1
"360","stim/objects/HouseObjects/glass.png",291,37,284,0.9,"stim/42.jpeg",4,2,3,2,"HouseObjects",1,3,"left","left",0.761999846,1,1,1,0,NA,NA,NA,NA,NA,NA,NA,NA,NA,NA,NA,NA,NA,NA,NA,NA,NA,NA,NA,NA,NA,NA,NA,NA
"563","stim/objects/Instruments/tuba.png",292,37,285,0.7,"stim/13.jpeg",1,3,2,1,"Instruments",2,3,"right","left",0.5,0,0,1,0,119,37,1,0.7,2,"stim/13.jpeg",1,3,"stim/13.jpeg",3,"right",0.770999908,2,1,0.800000191,3,0.725000143,119,0,0,NA,1,NA,1
"441","stim/objects/Instruments/doublebass.png",293,37,286,0.7,"stim/11.jpeg",1,1,2,2,"Instruments",2,1,"right","right",0.529999971,1,1,1,0,NA,NA,NA,NA,NA,NA,NA,NA,NA,NA,NA,NA,NA,NA,NA,NA,NA,NA,NA,NA,NA,NA,NA,NA
"376","stim/objects/HouseObjects/glassmop.png",294,37,287,0.5,"stim/53.jpeg",5,3,1,1,"HouseObjects",1,3,"left","left",0.70600009,1,1,1,0,139,37,1,0.5,1,"stim/53.jpeg",5,3,"stim/53.jpeg",3,"right",1.318000078,2,1,0.585000038,3,0.743999958,139,0,0,NA,1,NA,1
"390","stim/objects/HouseObjects/sponge.png",295,37,288,0.5,"stim/63.jpeg",6,3,1,1,"HouseObjects",1,1,"left","right",0.733999968,0,0,1,0,132,37,1,0.5,2,"stim/63.jpeg",6,3,"stim/63.jpeg",1,"left",0.981999874,3,1,1.078000069,1,0.609999895,132,1,0,0,1,1,1
"361","stim/objects/HouseObjects/glass.png",296,37,289,0.9,"stim/42.jpeg",4,2,3,2,"HouseObjects",1,2,"left","left",0.645000219,1,1,1,0,NA,NA,NA,NA,NA,NA,NA,NA,NA,NA,NA,NA,NA,NA,NA,NA,NA,NA,NA,NA,NA,NA,NA,NA
"436","stim/objects/Instruments/cymbal.png",297,37,290,0.7,"stim/14.jpeg",1,4,2,2,"Instruments",2,2,"right","right",0.710999966,1,1,1,0,NA,NA,NA,NA,NA,NA,NA,NA,NA,NA,NA,NA,NA,NA,NA,NA,NA,NA,NA,NA,NA,NA,NA,NA
"414","stim/objects/Instruments/balalaika2.png",298,37,291,0.7,"stim/11.jpeg",1,1,2,1,"Instruments",2,4,"right","right",0.59100008,1,1,1,0,160,37,1,0.7,2,"stim/11.jpeg",1,1,"stim/11.jpeg",4,"left",0.839999914,3,3,1.080999851,4,0.795000076,160,1,0,0,1,1,1
"259","stim/objects/HouseObjects/bottle.png",299,37,292,0.5,"stim/64.jpeg",6,4,1,2,"HouseObjects",1,3,"left","left",0.659000158,1,1,1,0,NA,NA,NA,NA,NA,NA,NA,NA,NA,NA,NA,NA,NA,NA,NA,NA,NA,NA,NA,NA,NA,NA,NA,NA
"346","stim/objects/HouseObjects/garbagebin.png",300,37,293,0.9,"stim/44.jpeg",4,4,3,2,"HouseObjects",1,3,"left","right",0.464999914,0,0,1,0,NA,NA,NA,NA,NA,NA,NA,NA,NA,NA,NA,NA,NA,NA,NA,NA,NA,NA,NA,NA,NA,NA,NA,NA
"566","stim/objects/Instruments/violin2.png",301,37,294,0.1,"stim/42.jpeg",4,2,3,1,"Instruments",2,2,"right","left",0.626000166,0,0,1,0,118,37,1,0.1,2,"stim/42.jpeg",4,2,"stim/42.jpeg",2,"left",1.407999992,2,4,2.129999876,1,0.52699995,118,1,0,0,0,0,1
"562","stim/objects/Instruments/trumpet2.png",302,37,295,0.1,"stim/44.jpeg",4,4,3,1,"Instruments",2,1,"right","right",0.577000141,1,1,1,0,199,37,1,0.1,2,"stim/44.jpeg",4,4,"stim/44.jpeg",1,"right",1.32400012,2,3,1.058000088,1,0.573999882,199,0,0,NA,1,NA,1
"428","stim/objects/Instruments/chime.png",303,37,296,0.5,"stim/64.jpeg",6,4,1,2,"Instruments",2,1,"right","right",0.532000065,1,1,1,0,NA,NA,NA,NA,NA,NA,NA,NA,NA,NA,NA,NA,NA,NA,NA,NA,NA,NA,NA,NA,NA,NA,NA,NA
"311","stim/objects/HouseObjects/dustpan.png",304,37,297,0.9,"stim/42.jpeg",4,2,3,2,"HouseObjects",1,3,"left","left",0.536999941,1,1,1,0,NA,NA,NA,NA,NA,NA,NA,NA,NA,NA,NA,NA,NA,NA,NA,NA,NA,NA,NA,NA,NA,NA,NA,NA
"551","stim/objects/Instruments/speaker.png",305,37,298,0.5,"stim/64.jpeg",6,4,1,1,"Instruments",2,1,"right","right",0.446999788,1,1,1,0,185,37,1,0.5,2,"stim/64.jpeg",6,4,"stim/64.jpeg",1,"left",0.978999853,3,4,1.701999903,1,0.321000099,185,1,1,1,1,1,1
"415","stim/objects/Instruments/banjo.png",306,37,299,0.5,"stim/53.jpeg",5,3,1,2,"Instruments",2,4,"right","left",0.511000156,0,0,1,0,NA,NA,NA,NA,NA,NA,NA,NA,NA,NA,NA,NA,NA,NA,NA,NA,NA,NA,NA,NA,NA,NA,NA,NA
"511","stim/objects/Instruments/gong.png",307,37,300,0.9,"stim/32.jpeg",3,2,3,2,"Instruments",2,1,"right","right",0.657999992,1,1,1,0,NA,NA,NA,NA,NA,NA,NA,NA,NA,NA,NA,NA,NA,NA,NA,NA,NA,NA,NA,NA,NA,NA,NA,NA
"347","stim/objects/HouseObjects/garbagebin.png",308,37,301,0.9,"stim/41.jpeg",4,1,3,2,"HouseObjects",1,4,"left","left",0.476999998,1,1,1,0,NA,NA,NA,NA,NA,NA,NA,NA,NA,NA,NA,NA,NA,NA,NA,NA,NA,NA,NA,NA,NA,NA,NA,NA
"312","stim/objects/HouseObjects/dustpan.png",309,37,302,0.9,"stim/44.jpeg",4,4,3,2,"HouseObjects",1,2,"left","right",0.583999872,0,0,1,0,NA,NA,NA,NA,NA,NA,NA,NA,NA,NA,NA,NA,NA,NA,NA,NA,NA,NA,NA,NA,NA,NA,NA,NA
"362","stim/objects/HouseObjects/glass.png",310,37,303,0.9,"stim/41.jpeg",4,1,3,2,"HouseObjects",1,4,"left","left",0.66899991,1,1,1,0,NA,NA,NA,NA,NA,NA,NA,NA,NA,NA,NA,NA,NA,NA,NA,NA,NA,NA,NA,NA,NA,NA,NA,NA
"548","stim/objects/Instruments/hihat2.png",311,37,304,0.9,"stim/33.jpeg",3,3,3,1,"Instruments",2,3,"right","right",0.510999918,1,1,1,0,152,37,1,0.9,2,"stim/33.jpeg",3,3,"stim/33.jpeg",3,"right",0.835000038,2,1,0.569000006,3,0.513999939,152,0,0,NA,1,NA,1
"258","stim/objects/HouseObjects/blender2.png",312,37,305,0.7,"stim/24.jpeg",2,4,2,1,"HouseObjects",1,3,"left","left",0.5849998,1,1,1,0,26,37,1,0.7,1,"stim/24.jpeg",2,4,"stim/24.jpeg",3,"left",1.056999922,2,2,3.190000057,2,1.453999996,26,1,0,0,0,0,1
"492","stim/objects/Instruments/frenchhorn.png",313,37,306,0.9,"stim/31.jpeg",3,1,3,2,"Instruments",2,2,"right","right",0.694000006,1,1,1,0,NA,NA,NA,NA,NA,NA,NA,NA,NA,NA,NA,NA,NA,NA,NA,NA,NA,NA,NA,NA,NA,NA,NA,NA
"328","stim/objects/HouseObjects/flyswatter.png",314,37,307,0.9,"stim/42.jpeg",4,2,3,2,"HouseObjects",1,3,"left","",NA,0,0,1,0,NA,NA,NA,NA,NA,NA,NA,NA,NA,NA,NA,NA,NA,NA,NA,NA,NA,NA,NA,NA,NA,NA,NA,NA
"387","stim/objects/HouseObjects/saw2.png",315,37,308,0.9,"stim/41.jpeg",4,1,3,1,"HouseObjects",1,3,"left","right",0.536999941,0,0,1,0,85,37,1,0.9,1,"stim/41.jpeg",4,1,"stim/41.jpeg",3,"left",1.154000044,3,1,1.108999968,1,0.671000004,85,1,1,1,0,0,1
"363","stim/objects/HouseObjects/glass.png",316,37,309,0.9,"stim/41.jpeg",4,1,3,2,"HouseObjects",1,2,"left","left",0.457000017,1,1,1,0,NA,NA,NA,NA,NA,NA,NA,NA,NA,NA,NA,NA,NA,NA,NA,NA,NA,NA,NA,NA,NA,NA,NA,NA
"271","stim/objects/HouseObjects/clothesdryingrack.png",317,37,310,0.7,"stim/22.jpeg",2,2,2,2,"HouseObjects",1,1,"left","left",0.710000038,1,1,1,0,NA,NA,NA,NA,NA,NA,NA,NA,NA,NA,NA,NA,NA,NA,NA,NA,NA,NA,NA,NA,NA,NA,NA,NA
"379","stim/objects/HouseObjects/hairdryer2.png",318,37,311,0.1,"stim/33.jpeg",3,3,3,1,"HouseObjects",1,3,"left","right",0.671000004,0,0,1,0,120,37,1,0.1,1,"stim/33.jpeg",3,3,"stim/33.jpeg",3,"right",0.940999985,2,1,0.921000004,3,0.707000017,120,0,0,NA,1,NA,1
"295","stim/objects/HouseObjects/doormat.png",319,37,312,0.9,"stim/43.jpeg",4,3,3,2,"HouseObjects",1,4,"left","left",0.646000147,1,1,1,0,NA,NA,NA,NA,NA,NA,NA,NA,NA,NA,NA,NA,NA,NA,NA,NA,NA,NA,NA,NA,NA,NA,NA,NA
"462","stim/objects/Instruments/flute.png",320,37,313,0.9,"stim/33.jpeg",3,3,3,2,"Instruments",2,1,"right","right",0.493000031,1,1,1,0,NA,NA,NA,NA,NA,NA,NA,NA,NA,NA,NA,NA,NA,NA,NA,NA,NA,NA,NA,NA,NA,NA,NA,NA
"444","stim/objects/Instruments/drums.png",321,37,314,0.7,"stim/11.jpeg",1,1,2,2,"Instruments",2,4,"right","left",0.616000175,0,0,1,0,NA,NA,NA,NA,NA,NA,NA,NA,NA,NA,NA,NA,NA,NA,NA,NA,NA,NA,NA,NA,NA,NA,NA,NA
"251","stim/objects/HouseObjects/basket.png",322,37,315,0.5,"stim/51.jpeg",5,1,1,2,"HouseObjects",1,1,"left","right",0.621000051,0,0,1,0,NA,NA,NA,NA,NA,NA,NA,NA,NA,NA,NA,NA,NA,NA,NA,NA,NA,NA,NA,NA,NA,NA,NA,NA
"396","stim/objects/HouseObjects/thermometer.png",323,37,316,0.3,"stim/11.jpeg",1,1,2,1,"HouseObjects",1,1,"left","left",0.864000082,1,1,1,0,181,37,1,0.3,1,"stim/11.jpeg",1,1,"stim/11.jpeg",1,"right",0.835999966,2,1,0.730000019,1,0.799999952,181,0,1,NA,1,NA,1
"472","stim/objects/Instruments/flute2.png",324,37,317,0.9,"stim/33.jpeg",3,3,3,1,"Instruments",2,4,"right","right",0.56400013,1,1,1,0,194,37,1,0.9,2,"stim/33.jpeg",3,3,"stim/33.jpeg",4,"right",1.036000013,2,1,0.585000038,2,0.546999931,194,0,0,NA,0,NA,1
"463","stim/objects/Instruments/flute.png",325,37,318,0.9,"stim/33.jpeg",3,3,3,2,"Instruments",2,1,"right","right",0.631999969,1,1,1,0,NA,NA,NA,NA,NA,NA,NA,NA,NA,NA,NA,NA,NA,NA,NA,NA,NA,NA,NA,NA,NA,NA,NA,NA
"531","stim/objects/Instruments/grandpiano.png",326,37,319,0.9,"stim/31.jpeg",3,1,3,2,"Instruments",2,4,"right","right",0.536999941,1,1,1,0,NA,NA,NA,NA,NA,NA,NA,NA,NA,NA,NA,NA,NA,NA,NA,NA,NA,NA,NA,NA,NA,NA,NA,NA
"479","stim/objects/Instruments/flutetrans.png",327,37,320,0.9,"stim/32.jpeg",3,2,3,2,"Instruments",2,4,"right","right",0.513000011,1,1,1,0,NA,NA,NA,NA,NA,NA,NA,NA,NA,NA,NA,NA,NA,NA,NA,NA,NA,NA,NA,NA,NA,NA,NA,NA
"247","stim/objects/HouseObjects/barbecuelighter.png",328,37,321,0.5,"stim/53.jpeg",5,3,1,2,"HouseObjects",1,1,"left","right",0.559999943,0,0,1,0,NA,NA,NA,NA,NA,NA,NA,NA,NA,NA,NA,NA,NA,NA,NA,NA,NA,NA,NA,NA,NA,NA,NA,NA
"296","stim/objects/HouseObjects/doormat.png",329,37,322,0.9,"stim/44.jpeg",4,4,3,2,"HouseObjects",1,1,"left","right",0.597999811,0,0,1,0,NA,NA,NA,NA,NA,NA,NA,NA,NA,NA,NA,NA,NA,NA,NA,NA,NA,NA,NA,NA,NA,NA,NA,NA
"412","stim/objects/Instruments/balalaika.png",330,37,323,0.5,"stim/52.jpeg",5,2,1,2,"Instruments",2,2,"right","right",0.524999857,1,1,1,0,NA,NA,NA,NA,NA,NA,NA,NA,NA,NA,NA,NA,NA,NA,NA,NA,NA,NA,NA,NA,NA,NA,NA,NA
"493","stim/objects/Instruments/frenchhorn.png",331,37,324,0.9,"stim/34.jpeg",3,4,3,2,"Instruments",2,2,"right","right",0.55099988,1,1,1,0,NA,NA,NA,NA,NA,NA,NA,NA,NA,NA,NA,NA,NA,NA,NA,NA,NA,NA,NA,NA,NA,NA,NA,NA
"329","stim/objects/HouseObjects/flyswatter.png",332,37,325,0.9,"stim/42.jpeg",4,2,3,2,"HouseObjects",1,3,"left","right",0.559000015,0,0,1,0,NA,NA,NA,NA,NA,NA,NA,NA,NA,NA,NA,NA,NA,NA,NA,NA,NA,NA,NA,NA,NA,NA,NA,NA
"431","stim/objects/Instruments/clarinet.png",333,37,326,0.5,"stim/61.jpeg",6,1,1,2,"Instruments",2,4,"right","",NA,0,0,1,0,NA,NA,NA,NA,NA,NA,NA,NA,NA,NA,NA,NA,NA,NA,NA,NA,NA,NA,NA,NA,NA,NA,NA,NA
"344","stim/objects/HouseObjects/garbagebin.png",334,37,327,0.9,"stim/42.jpeg",4,2,3,2,"HouseObjects",1,4,"left","right",0.727999926,0,0,1,0,NA,NA,NA,NA,NA,NA,NA,NA,NA,NA,NA,NA,NA,NA,NA,NA,NA,NA,NA,NA,NA,NA,NA,NA
"532","stim/objects/Instruments/grandpiano.png",335,37,328,0.9,"stim/34.jpeg",3,4,3,2,"Instruments",2,1,"right","right",0.622999907,1,1,1,0,NA,NA,NA,NA,NA,NA,NA,NA,NA,NA,NA,NA,NA,NA,NA,NA,NA,NA,NA,NA,NA,NA,NA,NA
"313","stim/objects/HouseObjects/dustpan.png",336,37,329,0.9,"stim/41.jpeg",4,1,3,2,"HouseObjects",1,2,"left","right",0.65199995,0,0,1,0,NA,NA,NA,NA,NA,NA,NA,NA,NA,NA,NA,NA,NA,NA,NA,NA,NA,NA,NA,NA,NA,NA,NA,NA
"512","stim/objects/Instruments/gong.png",337,37,330,0.9,"stim/34.jpeg",3,4,3,2,"Instruments",2,1,"right","right",0.511999846,1,1,1,0,NA,NA,NA,NA,NA,NA,NA,NA,NA,NA,NA,NA,NA,NA,NA,NA,NA,NA,NA,NA,NA,NA,NA,NA
"460","stim/objects/Instruments/flute.png",338,37,331,0.9,"stim/32.jpeg",3,2,3,2,"Instruments",2,4,"right","right",0.565999985,1,1,1,0,NA,NA,NA,NA,NA,NA,NA,NA,NA,NA,NA,NA,NA,NA,NA,NA,NA,NA,NA,NA,NA,NA,NA,NA
"262","stim/objects/HouseObjects/broom.png",339,37,332,0.5,"stim/62.jpeg",6,2,1,2,"HouseObjects",1,2,"left","right",0.877000093,0,0,1,0,NA,NA,NA,NA,NA,NA,NA,NA,NA,NA,NA,NA,NA,NA,NA,NA,NA,NA,NA,NA,NA,NA,NA,NA
"386","stim/objects/HouseObjects/saw.png",340,37,333,0.5,"stim/61.jpeg",6,1,1,1,"HouseObjects",1,2,"left","right",0.664000034,0,0,1,0,147,37,1,0.5,2,"stim/61.jpeg",6,1,"stim/61.jpeg",2,"right",0.749000072,2,1,0.648000002,3,0.492999792,147,0,1,NA,0,NA,1
"453","stim/objects/Instruments/electricguitar.png",341,37,334,0.7,"stim/11.jpeg",1,1,2,2,"Instruments",2,2,"right","right",0.707999945,1,1,1,0,NA,NA,NA,NA,NA,NA,NA,NA,NA,NA,NA,NA,NA,NA,NA,NA,NA,NA,NA,NA,NA,NA,NA,NA
"529","stim/objects/Instruments/grandpiano.png",342,37,335,0.9,"stim/32.jpeg",3,2,3,2,"Instruments",2,1,"right","right",0.628000021,1,1,1,0,NA,NA,NA,NA,NA,NA,NA,NA,NA,NA,NA,NA,NA,NA,NA,NA,NA,NA,NA,NA,NA,NA,NA,NA
"481","stim/objects/Instruments/flutetrans.png",343,37,336,0.9,"stim/31.jpeg",3,1,3,2,"Instruments",2,1,"right","right",0.666000128,1,1,1,0,NA,NA,NA,NA,NA,NA,NA,NA,NA,NA,NA,NA,NA,NA,NA,NA,NA,NA,NA,NA,NA,NA,NA,NA
"330","stim/objects/HouseObjects/flyswatter.png",344,37,337,0.9,"stim/44.jpeg",4,4,3,2,"HouseObjects",1,3,"left","left",0.597000122,1,1,1,0,NA,NA,NA,NA,NA,NA,NA,NA,NA,NA,NA,NA,NA,NA,NA,NA,NA,NA,NA,NA,NA,NA,NA,NA
"364","stim/objects/HouseObjects/glass.png",345,37,338,0.9,"stim/44.jpeg",4,4,3,2,"HouseObjects",1,3,"left","left",0.700000048,1,1,1,0,NA,NA,NA,NA,NA,NA,NA,NA,NA,NA,NA,NA,NA,NA,NA,NA,NA,NA,NA,NA,NA,NA,NA,NA
"426","stim/objects/Instruments/cello2.png",346,37,339,0.3,"stim/23.jpeg",2,3,2,1,"Instruments",2,3,"right","right",0.81799984,1,1,1,0,10,37,1,0.3,2,"stim/23.jpeg",2,3,"stim/23.jpeg",3,"left",1.88499999,3,1,9.121999979,3,4.309000015,10,1,0,0,1,1,1
"482","stim/objects/Instruments/flutetrans.png",347,37,340,0.9,"stim/33.jpeg",3,3,3,2,"Instruments",2,2,"right","right",0.803999901,1,1,1,0,NA,NA,NA,NA,NA,NA,NA,NA,NA,NA,NA,NA,NA,NA,NA,NA,NA,NA,NA,NA,NA,NA,NA,NA
"439","stim/objects/Instruments/cymbal2.png",348,37,341,0.3,"stim/23.jpeg",2,3,2,1,"Instruments",2,4,"right","right",0.633000135,1,1,1,0,88,37,1,0.3,2,"stim/23.jpeg",2,3,"stim/23.jpeg",4,"left",0.924999952,3,1,2.407000065,2,0.669999838,88,1,0,0,0,0,1
"348","stim/objects/HouseObjects/garbagebin.png",349,37,342,0.9,"stim/43.jpeg",4,3,3,2,"HouseObjects",1,3,"left","left",0.531000137,1,1,1,0,NA,NA,NA,NA,NA,NA,NA,NA,NA,NA,NA,NA,NA,NA,NA,NA,NA,NA,NA,NA,NA,NA,NA,NA
"419","stim/objects/Instruments/bassdrum.png",350,37,343,0.5,"stim/51.jpeg",5,1,1,2,"Instruments",2,3,"right","right",0.52699995,1,1,1,0,NA,NA,NA,NA,NA,NA,NA,NA,NA,NA,NA,NA,NA,NA,NA,NA,NA,NA,NA,NA,NA,NA,NA,NA
"494","stim/objects/Instruments/frenchhorn.png",351,37,344,0.9,"stim/33.jpeg",3,3,3,2,"Instruments",2,4,"right","right",0.603999853,1,1,1,0,NA,NA,NA,NA,NA,NA,NA,NA,NA,NA,NA,NA,NA,NA,NA,NA,NA,NA,NA,NA,NA,NA,NA,NA
"389","stim/objects/HouseObjects/scale2.png",352,37,345,0.9,"stim/42.jpeg",4,2,3,1,"HouseObjects",1,4,"left","right",0.55099988,0,0,1,0,32,37,1,0.9,1,"stim/42.jpeg",4,2,"stim/42.jpeg",4,"left",1.26699996,3,3,3.559999943,3,4.555000067,32,1,0,0,0,0,1
"554","stim/objects/Instruments/tambourine2.png",353,37,346,0.1,"stim/44.jpeg",4,4,3,1,"Instruments",2,4,"right","right",0.84499979,1,1,1,0,101,37,1,0.1,2,"stim/44.jpeg",4,4,"stim/44.jpeg",4,"left",0.851000071,3,1,1.122999907,2,0.588000059,101,1,0,0,0,0,1
"315","stim/objects/HouseObjects/dustpan.png",354,37,347,0.9,"stim/41.jpeg",4,1,3,2,"HouseObjects",1,2,"left","left",0.682999849,1,1,1,0,NA,NA,NA,NA,NA,NA,NA,NA,NA,NA,NA,NA,NA,NA,NA,NA,NA,NA,NA,NA,NA,NA,NA,NA
"298","stim/objects/HouseObjects/doormat.png",355,37,348,0.9,"stim/43.jpeg",4,3,3,2,"HouseObjects",1,3,"left","left",0.559000015,1,1,1,0,NA,NA,NA,NA,NA,NA,NA,NA,NA,NA,NA,NA,NA,NA,NA,NA,NA,NA,NA,NA,NA,NA,NA,NA
"331","stim/objects/HouseObjects/flyswatter.png",356,37,349,0.9,"stim/42.jpeg",4,2,3,2,"HouseObjects",1,1,"left","left",0.559999943,1,1,1,0,NA,NA,NA,NA,NA,NA,NA,NA,NA,NA,NA,NA,NA,NA,NA,NA,NA,NA,NA,NA,NA,NA,NA,NA
"513","stim/objects/Instruments/gong.png",357,37,350,0.9,"stim/34.jpeg",3,4,3,2,"Instruments",2,4,"right","right",0.532999992,1,1,1,0,NA,NA,NA,NA,NA,NA,NA,NA,NA,NA,NA,NA,NA,NA,NA,NA,NA,NA,NA,NA,NA,NA,NA,NA
"299","stim/objects/HouseObjects/doormat.png",358,37,351,0.9,"stim/44.jpeg",4,4,3,2,"HouseObjects",1,4,"left","left",0.513999939,1,1,1,0,NA,NA,NA,NA,NA,NA,NA,NA,NA,NA,NA,NA,NA,NA,NA,NA,NA,NA,NA,NA,NA,NA,NA,NA
"264","stim/objects/HouseObjects/broom2.png",359,37,352,0.7,"stim/22.jpeg",2,2,2,1,"HouseObjects",1,4,"left","left",0.598999977,1,1,1,0,112,37,1,0.7,1,"stim/22.jpeg",2,2,"stim/22.jpeg",4,"left",1.04399991,3,1,0.928999901,3,0.703000069,112,1,0,0,0,0,1
"365","stim/objects/HouseObjects/glass.png",360,37,353,0.9,"stim/44.jpeg",4,4,3,2,"HouseObjects",1,3,"left","left",0.671000004,1,1,1,0,NA,NA,NA,NA,NA,NA,NA,NA,NA,NA,NA,NA,NA,NA,NA,NA,NA,NA,NA,NA,NA,NA,NA,NA
"350","stim/objects/HouseObjects/garbagebin.png",361,37,354,0.9,"stim/44.jpeg",4,4,3,2,"HouseObjects",1,1,"left","left",0.624000072,1,1,1,0,NA,NA,NA,NA,NA,NA,NA,NA,NA,NA,NA,NA,NA,NA,NA,NA,NA,NA,NA,NA,NA,NA,NA,NA
"316","stim/objects/HouseObjects/dustpan.png",362,37,355,0.9,"stim/43.jpeg",4,3,3,2,"HouseObjects",1,2,"left","left",0.502000093,1,1,1,0,NA,NA,NA,NA,NA,NA,NA,NA,NA,NA,NA,NA,NA,NA,NA,NA,NA,NA,NA,NA,NA,NA,NA,NA
"425","stim/objects/Instruments/cello.png",363,37,356,0.5,"stim/64.jpeg",6,4,1,2,"Instruments",2,4,"right","right",0.552000046,1,1,1,0,NA,NA,NA,NA,NA,NA,NA,NA,NA,NA,NA,NA,NA,NA,NA,NA,NA,NA,NA,NA,NA,NA,NA,NA
"279","stim/objects/HouseObjects/coffee.png",364,37,357,0.7,"stim/24.jpeg",2,4,2,2,"HouseObjects",1,4,"left","left",0.687000036,1,1,1,0,NA,NA,NA,NA,NA,NA,NA,NA,NA,NA,NA,NA,NA,NA,NA,NA,NA,NA,NA,NA,NA,NA,NA,NA
"317","stim/objects/HouseObjects/dustpan.png",365,37,358,0.9,"stim/44.jpeg",4,4,3,2,"HouseObjects",1,3,"left","left",0.753000021,1,1,1,0,NA,NA,NA,NA,NA,NA,NA,NA,NA,NA,NA,NA,NA,NA,NA,NA,NA,NA,NA,NA,NA,NA,NA,NA
"489","stim/objects/Instruments/flutetrans2.png",366,37,359,0.9,"stim/34.jpeg",3,4,3,1,"Instruments",2,4,"right","right",0.700000048,1,1,1,0,11,37,1,0.9,2,"stim/34.jpeg",3,4,"stim/34.jpeg",4,"left",0.853999853,3,1,5.886000156,1,2.290999889,11,1,0,0,0,0,1
"391","stim/objects/HouseObjects/sponge2.png",367,37,360,0.9,"stim/43.jpeg",4,3,3,1,"HouseObjects",1,4,"left","right",0.819000006,0,0,1,0,173,37,1,0.9,1,"stim/43.jpeg",4,3,"stim/43.jpeg",4,"left",1.198999882,3,1,0.554000139,3,0.53399992,173,1,0,0,0,0,1
"324","stim/objects/HouseObjects/dustpan2.png",368,37,361,0.1,"stim/32.jpeg",3,2,3,1,"HouseObjects",1,2,"left","right",0.555999994,0,0,1,0,127,37,1,0.1,1,"stim/32.jpeg",3,2,"stim/32.jpeg",2,"right",0.616999865,2,1,0.549999952,3,0.607000113,127,0,0,NA,0,NA,1
"332","stim/objects/HouseObjects/flyswatter.png",369,37,362,0.9,"stim/44.jpeg",4,4,3,2,"HouseObjects",1,2,"left","right",0.898999929,0,0,1,0,NA,NA,NA,NA,NA,NA,NA,NA,NA,NA,NA,NA,NA,NA,NA,NA,NA,NA,NA,NA,NA,NA,NA,NA
"367","stim/objects/HouseObjects/glass.png",370,37,363,0.9,"stim/42.jpeg",4,2,3,2,"HouseObjects",1,4,"left","",NA,0,0,1,0,NA,NA,NA,NA,NA,NA,NA,NA,NA,NA,NA,NA,NA,NA,NA,NA,NA,NA,NA,NA,NA,NA,NA,NA
"524","stim/objects/Instruments/grandpiano.png",371,37,364,0.9,"stim/33.jpeg",3,3,3,2,"Instruments",2,3,"right","left",0.611000061,0,0,1,0,NA,NA,NA,NA,NA,NA,NA,NA,NA,NA,NA,NA,NA,NA,NA,NA,NA,NA,NA,NA,NA,NA,NA,NA
"263","stim/objects/HouseObjects/broom.png",372,37,365,0.5,"stim/61.jpeg",6,1,1,2,"HouseObjects",1,3,"left","right",0.446000099,0,0,1,0,NA,NA,NA,NA,NA,NA,NA,NA,NA,NA,NA,NA,NA,NA,NA,NA,NA,NA,NA,NA,NA,NA,NA,NA
"507","stim/objects/Instruments/gong.png",373,37,366,0.9,"stim/33.jpeg",3,3,3,2,"Instruments",2,2,"right","right",0.590000153,1,1,1,0,NA,NA,NA,NA,NA,NA,NA,NA,NA,NA,NA,NA,NA,NA,NA,NA,NA,NA,NA,NA,NA,NA,NA,NA
"490","stim/objects/Instruments/frenchhorn.png",374,37,367,0.9,"stim/32.jpeg",3,2,3,2,"Instruments",2,4,"right","right",0.417999983,1,1,1,0,NA,NA,NA,NA,NA,NA,NA,NA,NA,NA,NA,NA,NA,NA,NA,NA,NA,NA,NA,NA,NA,NA,NA,NA
"557","stim/objects/Instruments/triangle.png",375,37,368,0.5,"stim/63.jpeg",6,3,1,1,"Instruments",2,4,"right","right",0.742000103,1,1,1,0,163,37,1,0.5,2,"stim/63.jpeg",6,3,"stim/63.jpeg",4,"left",0.843000174,3,1,0.693000078,3,0.52699995,163,1,0,0,0,0,1
"495","stim/objects/Instruments/frenchhorn.png",376,37,369,0.9,"stim/34.jpeg",3,4,3,2,"Instruments",2,1,"right","right",0.720000029,1,1,1,0,NA,NA,NA,NA,NA,NA,NA,NA,NA,NA,NA,NA,NA,NA,NA,NA,NA,NA,NA,NA,NA,NA,NA,NA
"525","stim/objects/Instruments/grandpiano.png",377,37,370,0.9,"stim/34.jpeg",3,4,3,2,"Instruments",2,4,"right","right",0.513000011,1,1,1,0,NA,NA,NA,NA,NA,NA,NA,NA,NA,NA,NA,NA,NA,NA,NA,NA,NA,NA,NA,NA,NA,NA,NA,NA
"424","stim/objects/Instruments/cello.png",378,37,371,0.5,"stim/63.jpeg",6,3,1,2,"Instruments",2,1,"right","right",0.424000025,1,1,1,0,NA,NA,NA,NA,NA,NA,NA,NA,NA,NA,NA,NA,NA,NA,NA,NA,NA,NA,NA,NA,NA,NA,NA,NA
"406","stim/objects/Instruments/accordion.png",379,37,372,0.5,"stim/51.jpeg",5,1,1,2,"Instruments",2,2,"right","right",0.529000044,1,1,1,0,NA,NA,NA,NA,NA,NA,NA,NA,NA,NA,NA,NA,NA,NA,NA,NA,NA,NA,NA,NA,NA,NA,NA,NA
"314","stim/objects/HouseObjects/dustpan.png",380,37,373,0.9,"stim/42.jpeg",4,2,3,2,"HouseObjects",1,4,"left","right",0.654000044,0,0,1,0,NA,NA,NA,NA,NA,NA,NA,NA,NA,NA,NA,NA,NA,NA,NA,NA,NA,NA,NA,NA,NA,NA,NA,NA
"432","stim/objects/Instruments/clarinet2.png",381,37,374,0.3,"stim/21.jpeg",2,1,2,1,"Instruments",2,1,"right","right",0.828000069,1,1,1,0,190,37,1,0.3,2,"stim/21.jpeg",2,1,"stim/21.jpeg",1,"left",1.038000107,3,1,0.513999939,3,0.506000042,190,1,1,1,0,0,1
"433","stim/objects/Instruments/cornet.png",382,37,375,0.5,"stim/63.jpeg",6,3,1,2,"Instruments",2,1,"right","right",0.485000134,1,1,1,0,NA,NA,NA,NA,NA,NA,NA,NA,NA,NA,NA,NA,NA,NA,NA,NA,NA,NA,NA,NA,NA,NA,NA,NA
"368","stim/objects/HouseObjects/glass.png",383,37,376,0.9,"stim/43.jpeg",4,3,3,2,"HouseObjects",1,3,"left","left",0.80099988,1,1,1,0,NA,NA,NA,NA,NA,NA,NA,NA,NA,NA,NA,NA,NA,NA,NA,NA,NA,NA,NA,NA,NA,NA,NA,NA
"359","stim/objects/HouseObjects/glass.png",384,37,377,0.9,"stim/43.jpeg",4,3,3,2,"HouseObjects",1,2,"left","right",0.501000166,0,0,1,0,NA,NA,NA,NA,NA,NA,NA,NA,NA,NA,NA,NA,NA,NA,NA,NA,NA,NA,NA,NA,NA,NA,NA,NA
"325","stim/objects/HouseObjects/flyswatter.png",385,37,378,0.9,"stim/43.jpeg",4,3,3,2,"HouseObjects",1,4,"left","right",0.542000055,0,0,1,0,NA,NA,NA,NA,NA,NA,NA,NA,NA,NA,NA,NA,NA,NA,NA,NA,NA,NA,NA,NA,NA,NA,NA,NA
"369","stim/objects/HouseObjects/glass.png",386,37,379,0.9,"stim/44.jpeg",4,4,3,2,"HouseObjects",1,2,"left","left",0.697999954,1,1,1,0,NA,NA,NA,NA,NA,NA,NA,NA,NA,NA,NA,NA,NA,NA,NA,NA,NA,NA,NA,NA,NA,NA,NA,NA
"283","stim/objects/HouseObjects/cushion.png",387,37,380,0.7,"stim/22.jpeg",2,2,2,2,"HouseObjects",1,3,"left","left",0.585999966,1,1,1,0,NA,NA,NA,NA,NA,NA,NA,NA,NA,NA,NA,NA,NA,NA,NA,NA,NA,NA,NA,NA,NA,NA,NA,NA
"287","stim/objects/HouseObjects/dishsoap.png",388,37,381,0.7,"stim/21.jpeg",2,1,2,2,"HouseObjects",1,3,"left","",NA,0,0,1,0,NA,NA,NA,NA,NA,NA,NA,NA,NA,NA,NA,NA,NA,NA,NA,NA,NA,NA,NA,NA,NA,NA,NA,NA
"497","stim/objects/Instruments/frenchhorn.png",389,37,382,0.9,"stim/33.jpeg",3,3,3,2,"Instruments",2,1,"right","right",0.687000036,1,1,1,0,NA,NA,NA,NA,NA,NA,NA,NA,NA,NA,NA,NA,NA,NA,NA,NA,NA,NA,NA,NA,NA,NA,NA,NA
"291","stim/objects/HouseObjects/doormat.png",390,37,383,0.9,"stim/44.jpeg",4,4,3,2,"HouseObjects",1,2,"left","right",0.921999931,0,0,1,0,NA,NA,NA,NA,NA,NA,NA,NA,NA,NA,NA,NA,NA,NA,NA,NA,NA,NA,NA,NA,NA,NA,NA,NA
"351","stim/objects/HouseObjects/garbagebin.png",391,37,384,0.9,"stim/44.jpeg",4,4,3,2,"HouseObjects",1,3,"left","left",0.728000164,1,1,1,0,NA,NA,NA,NA,NA,NA,NA,NA,NA,NA,NA,NA,NA,NA,NA,NA,NA,NA,NA,NA,NA,NA,NA,NA
"269","stim/objects/HouseObjects/clock.png",392,37,385,0.5,"stim/63.jpeg",6,3,1,2,"HouseObjects",1,4,"left","right",0.54399991,0,0,1,0,NA,NA,NA,NA,NA,NA,NA,NA,NA,NA,NA,NA,NA,NA,NA,NA,NA,NA,NA,NA,NA,NA,NA,NA
"265","stim/objects/HouseObjects/bucket.png",393,37,386,0.5,"stim/63.jpeg",6,3,1,2,"HouseObjects",1,2,"left","left",0.711999893,1,1,1,0,NA,NA,NA,NA,NA,NA,NA,NA,NA,NA,NA,NA,NA,NA,NA,NA,NA,NA,NA,NA,NA,NA,NA,NA
"272","stim/objects/HouseObjects/clothesdryingrack.png",394,37,387,0.7,"stim/23.jpeg",2,3,2,2,"HouseObjects",1,4,"left","left",0.717000008,1,1,1,0,NA,NA,NA,NA,NA,NA,NA,NA,NA,NA,NA,NA,NA,NA,NA,NA,NA,NA,NA,NA,NA,NA,NA,NA
"475","stim/objects/Instruments/flutetrans.png",395,37,388,0.9,"stim/34.jpeg",3,4,3,2,"Instruments",2,4,"right","right",0.519000053,1,1,1,0,NA,NA,NA,NA,NA,NA,NA,NA,NA,NA,NA,NA,NA,NA,NA,NA,NA,NA,NA,NA,NA,NA,NA,NA
"483","stim/objects/Instruments/flutetrans.png",396,37,389,0.9,"stim/32.jpeg",3,2,3,2,"Instruments",2,1,"right","right",0.49000001,1,1,1,0,NA,NA,NA,NA,NA,NA,NA,NA,NA,NA,NA,NA,NA,NA,NA,NA,NA,NA,NA,NA,NA,NA,NA,NA
"293","stim/objects/HouseObjects/doormat.png",397,37,390,0.9,"stim/43.jpeg",4,3,3,2,"HouseObjects",1,3,"left","right",0.802999973,0,0,1,0,NA,NA,NA,NA,NA,NA,NA,NA,NA,NA,NA,NA,NA,NA,NA,NA,NA,NA,NA,NA,NA,NA,NA,NA
"336","stim/objects/HouseObjects/flyswatter.png",398,37,391,0.9,"stim/44.jpeg",4,4,3,2,"HouseObjects",1,3,"left","left",0.52699995,1,1,1,0,NA,NA,NA,NA,NA,NA,NA,NA,NA,NA,NA,NA,NA,NA,NA,NA,NA,NA,NA,NA,NA,NA,NA,NA
"458","stim/objects/Instruments/flute.png",399,37,392,0.9,"stim/32.jpeg",3,2,3,2,"Instruments",2,4,"right","right",0.59800005,1,1,1,0,NA,NA,NA,NA,NA,NA,NA,NA,NA,NA,NA,NA,NA,NA,NA,NA,NA,NA,NA,NA,NA,NA,NA,NA
"437","stim/objects/Instruments/cymbal.png",400,37,393,0.7,"stim/11.jpeg",1,1,2,2,"Instruments",2,4,"right","right",0.799999952,1,1,1,0,NA,NA,NA,NA,NA,NA,NA,NA,NA,NA,NA,NA,NA,NA,NA,NA,NA,NA,NA,NA,NA,NA,NA,NA
"303","stim/objects/HouseObjects/doormat.png",401,37,394,0.9,"stim/43.jpeg",4,3,3,2,"HouseObjects",1,1,"left","left",0.555000067,1,1,1,0,NA,NA,NA,NA,NA,NA,NA,NA,NA,NA,NA,NA,NA,NA,NA,NA,NA,NA,NA,NA,NA,NA,NA,NA
"307","stim/objects/HouseObjects/doormat2.png",402,37,395,0.1,"stim/31.jpeg",3,1,3,1,"HouseObjects",1,1,"left","right",0.471999884,0,0,1,0,59,37,1,0.1,1,"stim/31.jpeg",3,1,"stim/31.jpeg",1,"left",0.894000053,3,1,1.343999863,1,0.46600008,59,1,1,1,1,1,1
"404","stim/objects/HouseObjects/wateringcan.png",403,37,396,0.3,"stim/11.jpeg",1,1,2,1,"HouseObjects",1,1,"left","right",0.542999983,0,0,1,0,77,37,1,0.3,1,"stim/11.jpeg",1,1,"stim/11.jpeg",1,"right",0.690000057,2,1,0.946000099,3,0.784000158,77,0,1,NA,0,NA,1
"294","stim/objects/HouseObjects/doormat.png",404,37,397,0.9,"stim/41.jpeg",4,1,3,2,"HouseObjects",1,2,"left","left",0.524000168,1,1,1,0,NA,NA,NA,NA,NA,NA,NA,NA,NA,NA,NA,NA,NA,NA,NA,NA,NA,NA,NA,NA,NA,NA,NA,NA
"455","stim/objects/Instruments/electricguitar2.png",405,37,398,0.3,"stim/23.jpeg",2,3,2,1,"Instruments",2,1,"right","right",0.549000025,1,1,1,0,111,37,1,0.3,2,"stim/23.jpeg",2,3,"stim/23.jpeg",1,"left",1.099999905,3,2,0.720999956,3,0.911000013,111,1,0,0,0,0,1
"465","stim/objects/Instruments/flute.png",406,37,399,0.9,"stim/34.jpeg",3,4,3,2,"Instruments",2,1,"right","right",0.611999989,1,1,1,0,NA,NA,NA,NA,NA,NA,NA,NA,NA,NA,NA,NA,NA,NA,NA,NA,NA,NA,NA,NA,NA,NA,NA,NA
"553","stim/objects/Instruments/tambourine.png",407,37,400,0.5,"stim/61.jpeg",6,1,1,1,"Instruments",2,2,"right","left",0.575999975,0,0,1,0,57,37,1,0.5,2,"stim/61.jpeg",6,1,"stim/61.jpeg",2,"left",2.06400013,3,1,2.750999928,2,0.625,57,1,1,1,1,1,1
"341","stim/objects/HouseObjects/flyswatter2.png",408,37,401,0.1,"stim/33.jpeg",3,3,3,1,"HouseObjects",1,3,"left","right",0.540999889,0,0,1,0,171,37,1,0.1,1,"stim/33.jpeg",3,3,"stim/33.jpeg",3,"right",0.769000053,1,1,0.700000048,3,0.656000137,171,0,0,NA,1,NA,1
"438","stim/objects/Instruments/cymbal.png",409,37,402,0.7,"stim/13.jpeg",1,3,2,2,"Instruments",2,2,"right","left",0.562999964,0,0,1,0,NA,NA,NA,NA,NA,NA,NA,NA,NA,NA,NA,NA,NA,NA,NA,NA,NA,NA,NA,NA,NA,NA,NA,NA
"484","stim/objects/Instruments/flutetrans.png",410,37,403,0.9,"stim/33.jpeg",3,3,3,2,"Instruments",2,3,"right","right",0.476000071,1,1,1,0,NA,NA,NA,NA,NA,NA,NA,NA,NA,NA,NA,NA,NA,NA,NA,NA,NA,NA,NA,NA,NA,NA,NA,NA
"430","stim/objects/Instruments/clarinet.png",411,37,404,0.5,"stim/62.jpeg",6,2,1,2,"Instruments",2,2,"right","left",0.806999922,0,0,1,0,NA,NA,NA,NA,NA,NA,NA,NA,NA,NA,NA,NA,NA,NA,NA,NA,NA,NA,NA,NA,NA,NA,NA,NA
"467","stim/objects/Instruments/flute.png",412,37,405,0.9,"stim/31.jpeg",3,1,3,2,"Instruments",2,2,"right","right",0.580000162,1,1,1,0,NA,NA,NA,NA,NA,NA,NA,NA,NA,NA,NA,NA,NA,NA,NA,NA,NA,NA,NA,NA,NA,NA,NA,NA
"452","stim/objects/Instruments/electricguitar.png",413,37,406,0.7,"stim/14.jpeg",1,4,2,2,"Instruments",2,4,"right","",NA,0,0,1,0,NA,NA,NA,NA,NA,NA,NA,NA,NA,NA,NA,NA,NA,NA,NA,NA,NA,NA,NA,NA,NA,NA,NA,NA
"288","stim/objects/HouseObjects/dishsoap.png",414,37,407,0.7,"stim/22.jpeg",2,2,2,2,"HouseObjects",1,2,"left","left",0.747999907,1,1,1,0,NA,NA,NA,NA,NA,NA,NA,NA,NA,NA,NA,NA,NA,NA,NA,NA,NA,NA,NA,NA,NA,NA,NA,NA
"427","stim/objects/Instruments/chime.png",415,37,408,0.5,"stim/61.jpeg",6,1,1,2,"Instruments",2,3,"right","right",0.628000021,1,1,1,0,NA,NA,NA,NA,NA,NA,NA,NA,NA,NA,NA,NA,NA,NA,NA,NA,NA,NA,NA,NA,NA,NA,NA,NA
"345","stim/objects/HouseObjects/garbagebin.png",416,37,409,0.9,"stim/41.jpeg",4,1,3,2,"HouseObjects",1,4,"left","right",0.799000025,0,0,1,0,NA,NA,NA,NA,NA,NA,NA,NA,NA,NA,NA,NA,NA,NA,NA,NA,NA,NA,NA,NA,NA,NA,NA,NA
"485","stim/objects/Instruments/flutetrans.png",417,37,410,0.9,"stim/34.jpeg",3,4,3,2,"Instruments",2,4,"right","right",0.753999949,1,1,1,0,NA,NA,NA,NA,NA,NA,NA,NA,NA,NA,NA,NA,NA,NA,NA,NA,NA,NA,NA,NA,NA,NA,NA,NA
"246","stim/objects/HouseObjects/ballofstring2.png",418,37,411,0.3,"stim/13.jpeg",1,3,2,1,"HouseObjects",1,3,"left","left",0.719000101,1,1,1,0,135,37,1,0.3,1,"stim/13.jpeg",1,3,"stim/13.jpeg",3,"left",0.789000034,3,2,0.81400013,3,1.093000174,135,1,0,0,1,1,1
"569","stim/objects/Instruments/xylophone.png",419,37,412,0.7,"stim/12.jpeg",1,2,2,1,"Instruments",2,3,"right","right",0.654000044,1,1,1,0,159,37,1,0.7,2,"stim/12.jpeg",1,2,"stim/12.jpeg",3,"right",0.888000011,2,1,0.703999996,3,0.503999949,159,0,0,NA,1,NA,1
"421","stim/objects/Instruments/bassguitar.png",420,37,413,0.5,"stim/63.jpeg",6,3,1,2,"Instruments",2,4,"right","left",0.559999943,0,0,1,0,NA,NA,NA,NA,NA,NA,NA,NA,NA,NA,NA,NA,NA,NA,NA,NA,NA,NA,NA,NA,NA,NA,NA,NA
"449","stim/objects/Instruments/electricdrumset.png",421,37,414,0.7,"stim/12.jpeg",1,2,2,2,"Instruments",2,1,"right","right",0.61500001,1,1,1,0,NA,NA,NA,NA,NA,NA,NA,NA,NA,NA,NA,NA,NA,NA,NA,NA,NA,NA,NA,NA,NA,NA,NA,NA
"385","stim/objects/HouseObjects/safetypin2.png",422,37,415,0.1,"stim/32.jpeg",3,2,3,1,"HouseObjects",1,1,"left","right",0.588000059,0,0,1,0,41,37,1,0.1,1,"stim/32.jpeg",3,2,"stim/32.jpeg",1,"right",1.378999949,2,1,2.236000061,1,0.474000216,41,0,0,NA,1,NA,1
"249","stim/objects/HouseObjects/barbecuelighter2.png",423,37,416,0.3,"stim/14.jpeg",1,4,2,1,"HouseObjects",1,3,"left","right",0.620000124,0,0,1,0,5,37,1,0.3,1,"stim/14.jpeg",1,4,"stim/14.jpeg",3,"left",1.224999905,3,1,4.340999842,4,1.680000067,5,1,0,0,0,0,1
"255","stim/objects/HouseObjects/bleachbottle2.png",424,37,417,0.3,"stim/12.jpeg",1,2,2,1,"HouseObjects",1,4,"left","right",0.628000021,0,0,1,0,166,37,1,0.3,1,"stim/12.jpeg",1,2,"stim/12.jpeg",4,"left",0.806999922,2,1,0.687999964,3,0.993000031,166,1,0,0,0,0,1
"245","stim/objects/HouseObjects/ballofstring.png",425,37,418,0.5,"stim/52.jpeg",5,2,1,2,"HouseObjects",1,2,"left","left",0.629000187,1,1,1,0,NA,NA,NA,NA,NA,NA,NA,NA,NA,NA,NA,NA,NA,NA,NA,NA,NA,NA,NA,NA,NA,NA,NA,NA
"403","stim/objects/HouseObjects/vacuumcleaner2.png",426,37,419,0.9,"stim/41.jpeg",4,1,3,1,"HouseObjects",1,2,"left","left",0.499000072,1,1,1,0,195,37,1,0.9,1,"stim/41.jpeg",4,1,"stim/41.jpeg",2,"left",1.032000065,3,1,1.657999992,2,0.555999994,195,1,1,1,1,1,1
"380","stim/objects/HouseObjects/handbrush.png",427,37,420,0.5,"stim/51.jpeg",5,1,1,1,"HouseObjects",1,1,"left","right",0.569000006,0,0,1,0,82,37,1,0.5,1,"stim/51.jpeg",5,1,"stim/51.jpeg",1,"right",0.649000168,2,1,0.996000051,1,0.424000025,82,0,1,NA,1,NA,1
"445","stim/objects/Instruments/drums.png",428,37,421,0.7,"stim/13.jpeg",1,3,2,2,"Instruments",2,2,"right","left",0.625,0,0,1,0,NA,NA,NA,NA,NA,NA,NA,NA,NA,NA,NA,NA,NA,NA,NA,NA,NA,NA,NA,NA,NA,NA,NA,NA
"503","stim/objects/Instruments/frenchhorn.png",429,37,422,0.9,"stim/31.jpeg",3,1,3,2,"Instruments",2,1,"right","right",0.525000095,1,1,1,0,NA,NA,NA,NA,NA,NA,NA,NA,NA,NA,NA,NA,NA,NA,NA,NA,NA,NA,NA,NA,NA,NA,NA,NA
"242","stim/objects/HouseObjects/ashtray.png",430,37,423,0.5,"stim/52.jpeg",5,2,1,2,"HouseObjects",1,3,"left","right",0.565999985,0,0,1,0,NA,NA,NA,NA,NA,NA,NA,NA,NA,NA,NA,NA,NA,NA,NA,NA,NA,NA,NA,NA,NA,NA,NA,NA
"286","stim/objects/HouseObjects/cushion2.png",431,37,424,0.7,"stim/24.jpeg",2,4,2,1,"HouseObjects",1,4,"left","left",0.460000038,1,1,1,0,6,37,1,0.7,1,"stim/24.jpeg",2,4,"stim/24.jpeg",4,"left",1.20600009,3,3,3.053999901,4,2.14199996,6,1,0,0,1,1,1
"530","stim/objects/Instruments/grandpiano.png",432,37,425,0.9,"stim/34.jpeg",3,4,3,2,"Instruments",2,1,"right","right",0.502000093,1,1,1,0,NA,NA,NA,NA,NA,NA,NA,NA,NA,NA,NA,NA,NA,NA,NA,NA,NA,NA,NA,NA,NA,NA,NA,NA
"451","stim/objects/Instruments/electricdrumset2.png",433,37,426,0.3,"stim/22.jpeg",2,2,2,1,"Instruments",2,2,"right","left",0.379999876,0,0,1,0,14,37,1,0.3,2,"stim/22.jpeg",2,2,"stim/22.jpeg",2,"left",1.072000027,3,4,5.111999989,1,0.696000099,14,1,0,0,0,0,1
"377","stim/objects/HouseObjects/glassmop2.png",434,37,427,0.1,"stim/32.jpeg",3,2,3,1,"HouseObjects",1,3,"left","right",0.459000111,0,0,1,0,178,37,1,0.1,1,"stim/32.jpeg",3,2,"stim/32.jpeg",3,"right",0.746999979,2,1,0.629999876,3,0.495000124,178,0,0,NA,1,NA,1
"535","stim/objects/Instruments/grandpiano.png",435,37,428,0.9,"stim/32.jpeg",3,2,3,2,"Instruments",2,3,"right","right",0.513000011,1,1,1,0,NA,NA,NA,NA,NA,NA,NA,NA,NA,NA,NA,NA,NA,NA,NA,NA,NA,NA,NA,NA,NA,NA,NA,NA
"561","stim/objects/Instruments/trumpet.png",436,37,429,0.7,"stim/12.jpeg",1,2,2,1,"Instruments",2,4,"right","left",0.608999968,0,0,1,0,145,37,1,0.7,2,"stim/12.jpeg",1,2,"stim/12.jpeg",4,"right",0.826999903,2,1,0.504999876,3,0.680000067,145,0,0,NA,0,NA,1
"446","stim/objects/Instruments/drums.png",437,37,430,0.7,"stim/12.jpeg",1,2,2,2,"Instruments",2,4,"right","left",0.473999977,0,0,1,0,NA,NA,NA,NA,NA,NA,NA,NA,NA,NA,NA,NA,NA,NA,NA,NA,NA,NA,NA,NA,NA,NA,NA,NA
"356","stim/objects/HouseObjects/garbagebin.png",438,37,431,0.9,"stim/43.jpeg",4,3,3,2,"HouseObjects",1,3,"left","right",0.518000126,0,0,1,0,NA,NA,NA,NA,NA,NA,NA,NA,NA,NA,NA,NA,NA,NA,NA,NA,NA,NA,NA,NA,NA,NA,NA,NA
"461","stim/objects/Instruments/flute.png",439,37,432,0.9,"stim/33.jpeg",3,3,3,2,"Instruments",2,2,"right","left",0.450000048,0,0,1,0,NA,NA,NA,NA,NA,NA,NA,NA,NA,NA,NA,NA,NA,NA,NA,NA,NA,NA,NA,NA,NA,NA,NA,NA
"544","stim/objects/Instruments/harmonica2.png",440,37,433,0.9,"stim/31.jpeg",3,1,3,1,"Instruments",2,1,"right","right",0.473999977,1,1,1,0,61,37,1,0.9,2,"stim/31.jpeg",3,1,"stim/31.jpeg",1,"left",0.867000103,3,1,0.738999844,1,0.750999928,61,1,1,1,1,1,1
"518","stim/objects/Instruments/gong.png",441,37,434,0.9,"stim/32.jpeg",3,2,3,2,"Instruments",2,4,"right","right",0.502000093,1,1,1,0,NA,NA,NA,NA,NA,NA,NA,NA,NA,NA,NA,NA,NA,NA,NA,NA,NA,NA,NA,NA,NA,NA,NA,NA
"289","stim/objects/HouseObjects/dishsoap.png",442,37,435,0.7,"stim/23.jpeg",2,3,2,2,"HouseObjects",1,1,"left","right",0.51699996,0,0,1,0,NA,NA,NA,NA,NA,NA,NA,NA,NA,NA,NA,NA,NA,NA,NA,NA,NA,NA,NA,NA,NA,NA,NA,NA
"464","stim/objects/Instruments/flute.png",443,37,436,0.9,"stim/34.jpeg",3,4,3,2,"Instruments",2,4,"right","right",0.503999949,1,1,1,0,NA,NA,NA,NA,NA,NA,NA,NA,NA,NA,NA,NA,NA,NA,NA,NA,NA,NA,NA,NA,NA,NA,NA,NA
"408","stim/objects/Instruments/accordion2.png",444,37,437,0.7,"stim/13.jpeg",1,3,2,1,"Instruments",2,2,"right","right",0.665999889,1,1,1,0,87,37,1,0.7,2,"stim/13.jpeg",1,3,"stim/13.jpeg",2,"left",1.39199996,2,2,1.453000069,1,0.624000072,87,1,0,0,0,0,1
"478","stim/objects/Instruments/flutetrans.png",445,37,438,0.9,"stim/31.jpeg",3,1,3,2,"Instruments",2,3,"right","right",0.51699996,1,1,1,0,NA,NA,NA,NA,NA,NA,NA,NA,NA,NA,NA,NA,NA,NA,NA,NA,NA,NA,NA,NA,NA,NA,NA,NA
"290","stim/objects/HouseObjects/dishsoap2.png",446,37,439,0.7,"stim/21.jpeg",2,1,2,1,"HouseObjects",1,4,"left","right",0.79399991,0,0,1,0,116,37,1,0.7,1,"stim/21.jpeg",2,1,"stim/21.jpeg",4,"right",0.819000006,2,1,0.846999884,3,0.996000051,116,0,1,NA,0,NA,1
"469","stim/objects/Instruments/flute.png",447,37,440,0.9,"stim/32.jpeg",3,2,3,2,"Instruments",2,2,"right","right",0.565999985,1,1,1,0,NA,NA,NA,NA,NA,NA,NA,NA,NA,NA,NA,NA,NA,NA,NA,NA,NA,NA,NA,NA,NA,NA,NA,NA
"541","stim/objects/Instruments/guitarcase.png",448,37,441,0.5,"stim/52.jpeg",5,2,1,1,"Instruments",2,3,"right","left",0.542999983,0,0,1,0,189,37,1,0.5,1,"stim/52.jpeg",5,2,"stim/52.jpeg",3,"right",1.055999994,2,2,0.878000021,3,0.502000093,189,0,1,NA,1,NA,1
"270","stim/objects/HouseObjects/clock2.png",449,37,442,0.7,"stim/24.jpeg",2,4,2,1,"HouseObjects",1,3,"left","right",0.447999954,0,0,1,0,40,37,1,0.7,1,"stim/24.jpeg",2,4,"stim/24.jpeg",3,"right",2.122999907,3,1,2.166000128,2,0.569000006,40,0,0,NA,0,NA,1
"399","stim/objects/HouseObjects/thread2.png",450,37,443,0.9,"stim/43.jpeg",4,3,3,1,"HouseObjects",1,3,"left","right",0.542000055,0,0,1,0,162,37,1,0.9,1,"stim/43.jpeg",4,3,"stim/43.jpeg",3,"right",1.611000061,2,1,0.595999956,3,0.463000059,162,0,0,NA,1,NA,1
"273","stim/objects/HouseObjects/clothesdryingrack.png",451,37,444,0.7,"stim/21.jpeg",2,1,2,2,"HouseObjects",1,1,"left","right",0.546000004,0,0,1,0,NA,NA,NA,NA,NA,NA,NA,NA,NA,NA,NA,NA,NA,NA,NA,NA,NA,NA,NA,NA,NA,NA,NA,NA
"285","stim/objects/HouseObjects/cushion.png",452,37,445,0.7,"stim/21.jpeg",2,1,2,2,"HouseObjects",1,2,"left","right",0.60800004,0,0,1,0,NA,NA,NA,NA,NA,NA,NA,NA,NA,NA,NA,NA,NA,NA,NA,NA,NA,NA,NA,NA,NA,NA,NA,NA
"276","stim/objects/HouseObjects/clothespin.png",453,37,446,0.7,"stim/23.jpeg",2,3,2,2,"HouseObjects",1,2,"left","left",0.702000141,1,1,1,0,NA,NA,NA,NA,NA,NA,NA,NA,NA,NA,NA,NA,NA,NA,NA,NA,NA,NA,NA,NA,NA,NA,NA,NA
"244","stim/objects/HouseObjects/ballofstring.png",454,37,447,0.5,"stim/53.jpeg",5,3,1,2,"HouseObjects",1,3,"left","right",0.526000023,0,0,1,0,NA,NA,NA,NA,NA,NA,NA,NA,NA,NA,NA,NA,NA,NA,NA,NA,NA,NA,NA,NA,NA,NA,NA,NA
"567","stim/objects/Instruments/vuvuzela.png",455,37,448,0.7,"stim/11.jpeg",1,1,2,1,"Instruments",2,2,"right","left",0.576999903,0,0,1,0,131,37,1,0.7,2,"stim/11.jpeg",1,1,"stim/11.jpeg",2,"right",1.186000109,2,1,0.482000113,3,0.56099987,131,0,1,NA,0,NA,1
"534","stim/objects/Instruments/grandpiano.png",456,37,449,0.9,"stim/33.jpeg",3,3,3,2,"Instruments",2,2,"right","right",0.527000189,1,1,1,0,NA,NA,NA,NA,NA,NA,NA,NA,NA,NA,NA,NA,NA,NA,NA,NA,NA,NA,NA,NA,NA,NA,NA,NA
"423","stim/objects/Instruments/bassguitar2.png",457,37,450,0.3,"stim/22.jpeg",2,2,2,1,"Instruments",2,4,"right","right",0.707999945,1,1,1,0,172,37,1,0.3,2,"stim/22.jpeg",2,2,"stim/22.jpeg",4,"right",1.047999859,2,1,0.679000139,3,0.573000193,172,0,0,NA,0,NA,1
"334","stim/objects/HouseObjects/flyswatter.png",458,37,451,0.9,"stim/44.jpeg",4,4,3,2,"HouseObjects",1,3,"left","",NA,0,0,1,0,NA,NA,NA,NA,NA,NA,NA,NA,NA,NA,NA,NA,NA,NA,NA,NA,NA,NA,NA,NA,NA,NA,NA,NA
"354","stim/objects/HouseObjects/garbagebin.png",459,37,452,0.9,"stim/43.jpeg",4,3,3,2,"HouseObjects",1,3,"left","left",0.789999962,1,1,1,0,NA,NA,NA,NA,NA,NA,NA,NA,NA,NA,NA,NA,NA,NA,NA,NA,NA,NA,NA,NA,NA,NA,NA,NA
"337","stim/objects/HouseObjects/flyswatter.png",460,37,453,0.9,"stim/41.jpeg",4,1,3,2,"HouseObjects",1,1,"left","left",0.565000057,1,1,1,0,NA,NA,NA,NA,NA,NA,NA,NA,NA,NA,NA,NA,NA,NA,NA,NA,NA,NA,NA,NA,NA,NA,NA,NA
"568","stim/objects/Instruments/vuvuzela2.png",461,37,454,0.1,"stim/43.jpeg",4,3,3,1,"Instruments",2,3,"right","right",0.644000053,1,1,1,0,71,37,1,0.1,2,"stim/43.jpeg",4,3,"stim/43.jpeg",3,"left",0.805000067,3,3,2.792000055,3,0.84100008,71,1,1,1,1,1,1
"256","stim/objects/HouseObjects/blender.png",462,37,455,0.5,"stim/63.jpeg",6,3,1,2,"HouseObjects",1,4,"left","left",0.529000044,1,1,1,0,NA,NA,NA,NA,NA,NA,NA,NA,NA,NA,NA,NA,NA,NA,NA,NA,NA,NA,NA,NA,NA,NA,NA,NA
"371","stim/objects/HouseObjects/glass.png",463,37,456,0.9,"stim/41.jpeg",4,1,3,2,"HouseObjects",1,2,"left","left",0.498999834,1,1,1,0,NA,NA,NA,NA,NA,NA,NA,NA,NA,NA,NA,NA,NA,NA,NA,NA,NA,NA,NA,NA,NA,NA,NA,NA
"392","stim/objects/HouseObjects/spraybottle.png",464,37,457,0.5,"stim/64.jpeg",6,4,1,1,"HouseObjects",1,3,"left","right",0.578999996,0,0,1,0,113,37,1,0.5,2,"stim/64.jpeg",6,4,"stim/64.jpeg",3,"right",0.747999907,2,1,0.662000179,3,0.680000067,113,0,0,NA,1,NA,1
"539","stim/objects/Instruments/grandpiano.png",465,37,458,0.9,"stim/32.jpeg",3,2,3,2,"Instruments",2,2,"right","right",0.578999996,1,1,1,0,NA,NA,NA,NA,NA,NA,NA,NA,NA,NA,NA,NA,NA,NA,NA,NA,NA,NA,NA,NA,NA,NA,NA,NA
"536","stim/objects/Instruments/grandpiano.png",466,37,459,0.9,"stim/33.jpeg",3,3,3,2,"Instruments",2,4,"right","right",0.529999971,1,1,1,0,NA,NA,NA,NA,NA,NA,NA,NA,NA,NA,NA,NA,NA,NA,NA,NA,NA,NA,NA,NA,NA,NA,NA,NA
"297","stim/objects/HouseObjects/doormat.png",467,37,460,0.9,"stim/42.jpeg",4,2,3,2,"HouseObjects",1,4,"left","right",0.631000042,0,0,1,0,NA,NA,NA,NA,NA,NA,NA,NA,NA,NA,NA,NA,NA,NA,NA,NA,NA,NA,NA,NA,NA,NA,NA,NA
