"","participant","OvsN","PE_level","object_cat","obj_file","scn_file","corr_scn_cat","corr_scn_inst","scn_file.1","corr_loc","key_resp_id.keys","key_resp_id.rt","key_resp_conf.keys","key_resp_assoc.keys","key_resp_assoc.rt","key_resp_loc.keys","key_resp_loc.rt","trialN","id_acc","assoc.acc","cond_assoc","loc.acc","cond_loc","group"
"1",37,1,0.1,2,"stim/objects/Instruments/xylophone2.png","stim/44.jpeg",4,4,"stim/44.jpeg",2,"right",1.078000069,2,1,3.597000122,1,3.220999956,1,0,0,NA,0,NA,1
"2",37,2,0,1,"stim/objects/HouseObjects/bottle4.png","",0,0,"",0,"right",1.631999969,NA,NA,NA,NA,NA,2,1,NA,NA,NA,NA,1
"3",37,1,0.7,2,"stim/objects/Instruments/bassdrum2.png","stim/13.jpeg",1,3,"stim/13.jpeg",1,"left",1.390999794,2,1,5.868000031,3,2.616999865,3,1,0,0,0,0,1
"4",37,2,0,1,"stim/objects/HouseObjects/teapot3.png","",0,0,"",0,"right",0.98300004,NA,NA,NA,NA,NA,4,1,NA,NA,NA,NA,1
"5",37,1,0.3,1,"stim/objects/HouseObjects/barbecuelighter2.png","stim/14.jpeg",1,4,"stim/14.jpeg",3,"left",1.224999905,3,1,4.340999842,4,1.680000067,5,1,0,0,0,0,1
"6",37,1,0.7,1,"stim/objects/HouseObjects/cushion2.png","stim/24.jpeg",2,4,"stim/24.jpeg",4,"left",1.20600009,3,3,3.053999901,4,2.14199996,6,1,0,0,1,1,1
"7",37,1,0.1,2,"stim/objects/Instruments/triangle2.png","stim/42.jpeg",4,2,"stim/42.jpeg",1,"left",1.056999922,4,4,5.799000025,4,1.367000103,7,1,0,0,0,0,1
"8",37,2,0,2,"stim/objects/Instruments/xylophone3.png","",0,0,"",0,"right",1.072000027,NA,NA,NA,NA,NA,8,1,NA,NA,NA,NA,1
"9",37,2,0,2,"stim/objects/Instruments/cello3.png","",0,0,"",0,"left",0.79399991,NA,NA,NA,NA,NA,9,0,NA,NA,NA,NA,1
"10",37,1,0.3,2,"stim/objects/Instruments/cello2.png","stim/23.jpeg",2,3,"stim/23.jpeg",3,"left",1.88499999,3,1,9.121999979,3,4.309000015,10,1,0,0,1,1,1
"11",37,1,0.9,2,"stim/objects/Instruments/flutetrans2.png","stim/34.jpeg",3,4,"stim/34.jpeg",4,"left",0.853999853,3,1,5.886000156,1,2.290999889,11,1,0,0,0,0,1
"12",37,1,0.1,1,"stim/objects/HouseObjects/handbrush2.png","stim/34.jpeg",3,4,"stim/34.jpeg",3,"left",1.092999935,3,2,2.86500001,3,1.688999891,12,1,0,0,1,1,1
"13",37,2,0,1,"stim/objects/HouseObjects/clothespin4.png","",0,0,"",0,"left",0.868999958,NA,NA,NA,NA,NA,13,0,NA,NA,NA,NA,1
"14",37,1,0.3,2,"stim/objects/Instruments/electricdrumset2.png","stim/22.jpeg",2,2,"stim/22.jpeg",2,"left",1.072000027,3,4,5.111999989,1,0.696000099,14,1,0,0,0,0,1
"15",37,2,0,1,"stim/objects/HouseObjects/bucket4.png","",0,0,"",0,"left",0.825000048,NA,NA,NA,NA,NA,15,0,NA,NA,NA,NA,1
"16",37,2,0,1,"stim/objects/HouseObjects/ashtray4.png","",0,0,"",0,"right",1.036000013,NA,NA,NA,NA,NA,16,1,NA,NA,NA,NA,1
"17",37,2,0,2,"stim/objects/Instruments/harp3.png","",0,0,"",0,"left",0.95600009,NA,NA,NA,NA,NA,17,0,NA,NA,NA,NA,1
"18",37,2,0,2,"stim/objects/Instruments/cello4.png","",0,0,"",0,"right",0.993999958,NA,NA,NA,NA,NA,18,1,NA,NA,NA,NA,1
"19",37,2,0,2,"stim/objects/Instruments/flutetrans3.png","",0,0,"",0,"left",1.282000065,NA,NA,NA,NA,NA,19,0,NA,NA,NA,NA,1
"20",37,2,0,1,"stim/objects/HouseObjects/basket4.png","",0,0,"",0,"right",1.136999846,NA,NA,NA,NA,NA,20,1,NA,NA,NA,NA,1
"21",37,2,0,1,"stim/objects/HouseObjects/ballofstring3.png","",0,0,"",0,"right",1.327000141,NA,NA,NA,NA,NA,21,1,NA,NA,NA,NA,1
"22",37,1,0.7,2,"stim/objects/Instruments/violin.png","stim/14.jpeg",1,4,"stim/14.jpeg",2,"right",1.092000008,2,4,5.132999897,1,3.073999882,22,0,1,NA,0,NA,1
"23",37,1,0.5,1,"stim/objects/Instruments/harp.png","stim/54.jpeg",5,4,"stim/54.jpeg",4,"left",1.208999872,2,3,5.539999962,1,0.588000059,23,1,0,0,0,0,1
"24",37,1,0.5,2,"stim/objects/Instruments/timbal.png","stim/62.jpeg",6,2,"stim/62.jpeg",4,"left",1.303000212,2,4,4.708999872,1,1.226999998,24,1,0,0,0,0,1
"25",37,1,0.1,2,"stim/objects/Instruments/trombone2.png","stim/43.jpeg",4,3,"stim/43.jpeg",4,"right",1.995000124,2,2,2.086999893,1,1.429000139,25,0,0,NA,0,NA,1
"26",37,1,0.7,1,"stim/objects/HouseObjects/blender2.png","stim/24.jpeg",2,4,"stim/24.jpeg",3,"left",1.056999922,2,2,3.190000057,2,1.453999996,26,1,0,0,0,0,1
"27",37,2,0,2,"stim/objects/Instruments/gong3.png","",0,0,"",0,"right",1.113999844,NA,NA,NA,NA,NA,27,1,NA,NA,NA,NA,1
"28",37,2,0,1,"stim/objects/HouseObjects/wateringcan3.png","",0,0,"",0,"right",1.107000113,NA,NA,NA,NA,NA,28,1,NA,NA,NA,NA,1
"29",37,2,0,2,"stim/objects/Instruments/hihat3.png","",0,0,"",0,"right",1.819999933,NA,NA,NA,NA,NA,29,1,NA,NA,NA,NA,1
"30",37,2,0,1,"stim/objects/HouseObjects/basket3.png","",0,0,"",0,"right",0.960000038,NA,NA,NA,NA,NA,30,1,NA,NA,NA,NA,1
"31",37,1,0.1,2,"stim/objects/Instruments/timbal2.png","stim/41.jpeg",4,1,"stim/41.jpeg",1,"right",1.092999935,2,3,3.534000158,2,1.347000122,31,0,0,NA,0,NA,1
"32",37,1,0.9,1,"stim/objects/HouseObjects/scale2.png","stim/42.jpeg",4,2,"stim/42.jpeg",4,"left",1.26699996,3,3,3.559999943,3,4.555000067,32,1,0,0,0,0,1
"33",37,2,0,2,"stim/objects/Instruments/balalaika4.png","",0,0,"",0,"left",2.200000048,NA,NA,NA,NA,NA,33,0,NA,NA,NA,NA,1
"34",37,2,0,2,"stim/objects/Instruments/acousticguitar4.png","",0,0,"",0,"right",1.046000004,NA,NA,NA,NA,NA,34,1,NA,NA,NA,NA,1
"35",37,2,0,2,"stim/objects/Instruments/accordion4.png","",0,0,"",0,"right",0.674999952,NA,NA,NA,NA,NA,35,1,NA,NA,NA,NA,1
"36",37,1,0.7,1,"stim/objects/HouseObjects/clothesdryingrack2.png","stim/21.jpeg",2,1,"stim/21.jpeg",3,"right",0.904000044,3,2,1.444000006,1,1.197000027,36,0,0,NA,0,NA,1
"37",37,2,0,1,"stim/objects/HouseObjects/clock4.png","",0,0,"",0,"right",0.845999956,NA,NA,NA,NA,NA,37,1,NA,NA,NA,NA,1
"38",37,2,0,1,"stim/objects/HouseObjects/bleachbottle4.png","",0,0,"",0,"right",0.743999958,NA,NA,NA,NA,NA,38,1,NA,NA,NA,NA,1
"39",37,2,0,1,"stim/objects/HouseObjects/dishsoap3.png","",0,0,"",0,"right",0.794000149,NA,NA,NA,NA,NA,39,1,NA,NA,NA,NA,1
"40",37,1,0.7,1,"stim/objects/HouseObjects/clock2.png","stim/24.jpeg",2,4,"stim/24.jpeg",3,"right",2.122999907,3,1,2.166000128,2,0.569000006,40,0,0,NA,0,NA,1
"41",37,1,0.1,1,"stim/objects/HouseObjects/safetypin2.png","stim/32.jpeg",3,2,"stim/32.jpeg",1,"right",1.378999949,2,1,2.236000061,1,0.474000216,41,0,0,NA,1,NA,1
"42",37,2,0,1,"stim/objects/HouseObjects/broom4.png","",0,0,"",0,"left",1.820000172,NA,NA,NA,NA,NA,42,0,NA,NA,NA,NA,1
"43",37,2,0,2,"stim/objects/Instruments/harmonica3.png","",0,0,"",0,"left",1.096999884,NA,NA,NA,NA,NA,43,0,NA,NA,NA,NA,1
"44",37,2,0,2,"stim/objects/Instruments/tambourine3.png","",0,0,"",0,"left",1.101999998,NA,NA,NA,NA,NA,44,0,NA,NA,NA,NA,1
"45",37,1,0.3,1,"stim/objects/HouseObjects/ashtray2.png","stim/12.jpeg",1,2,"stim/12.jpeg",2,"left",0.949999809,3,4,2.259000063,2,1.207000017,45,1,0,0,1,1,1
"46",37,2,0,2,"stim/objects/Instruments/drums4.png","",0,0,"",0,"right",1.991999865,NA,NA,NA,NA,NA,46,1,NA,NA,NA,NA,1
"47",37,1,0.1,2,"stim/objects/Instruments/speaker2.png","stim/43.jpeg",4,3,"stim/43.jpeg",1,"left",0.779000044,3,2,2.185000181,1,0.779999971,47,1,0,0,1,1,1
"48",37,2,0,2,"stim/objects/Instruments/cornet3.png","",0,0,"",0,"right",2.640000105,NA,NA,NA,NA,NA,48,1,NA,NA,NA,NA,1
"49",37,2,0,1,"stim/objects/HouseObjects/ballofstring4.png","",0,0,"",0,"left",1,NA,NA,NA,NA,NA,49,0,NA,NA,NA,NA,1
"50",37,2,0,1,"stim/objects/HouseObjects/spraybottle3.png","",0,0,"",0,"right",1.040999889,NA,NA,NA,NA,NA,50,1,NA,NA,NA,NA,1
"51",37,1,0.9,1,"stim/objects/HouseObjects/wateringcan2.png","stim/42.jpeg",4,2,"stim/42.jpeg",4,"right",1.068000078,2,1,1.304000139,1,0.757999897,51,0,0,NA,0,NA,1
"52",37,2,0,2,"stim/objects/Instruments/balalaika3.png","",0,0,"",0,"left",1.652999878,NA,NA,NA,NA,NA,52,0,NA,NA,NA,NA,1
"53",37,2,0,1,"stim/objects/HouseObjects/handvacuum3.png","",0,0,"",0,"left",0.914999962,NA,NA,NA,NA,NA,53,0,NA,NA,NA,NA,1
"54",37,2,0,1,"stim/objects/HouseObjects/dustpan3.png","",0,0,"",0,"right",0.920000076,NA,NA,NA,NA,NA,54,1,NA,NA,NA,NA,1
"55",37,2,0,1,"stim/objects/HouseObjects/bottle3.png","",0,0,"",0,"right",1.000999928,NA,NA,NA,NA,NA,55,1,NA,NA,NA,NA,1
"56",37,1,0.9,2,"stim/objects/Instruments/guitarcase2.png","stim/34.jpeg",3,4,"stim/34.jpeg",4,"left",1.006999969,3,2,1.51699996,4,1.02699995,56,1,0,0,1,1,1
"57",37,1,0.5,2,"stim/objects/Instruments/tambourine.png","stim/61.jpeg",6,1,"stim/61.jpeg",2,"left",2.06400013,3,1,2.750999928,2,0.625,57,1,1,1,1,1,1
"58",37,1,0.3,1,"stim/objects/HouseObjects/thread.png","stim/12.jpeg",1,2,"stim/12.jpeg",3,"right",1.507999897,2,1,1.005000114,4,1.88499999,58,0,0,NA,0,NA,1
"59",37,1,0.1,1,"stim/objects/HouseObjects/doormat2.png","stim/31.jpeg",3,1,"stim/31.jpeg",1,"left",0.894000053,3,1,1.343999863,1,0.46600008,59,1,1,1,1,1,1
"60",37,1,0.3,1,"stim/objects/HouseObjects/basket2.png","stim/11.jpeg",1,1,"stim/11.jpeg",2,"right",1.39199996,2,1,0.857000113,2,0.862999916,60,0,1,NA,1,NA,1
"61",37,1,0.9,2,"stim/objects/Instruments/harmonica2.png","stim/31.jpeg",3,1,"stim/31.jpeg",1,"left",0.867000103,3,1,0.738999844,1,0.750999928,61,1,1,1,1,1,1
"62",37,2,0,2,"stim/objects/Instruments/accordion3.png","",0,0,"",0,"right",1.065000057,NA,NA,NA,NA,NA,62,1,NA,NA,NA,NA,1
"63",37,2,0,2,"stim/objects/Instruments/guitarcase3.png","",0,0,"",0,"right",0.767000198,NA,NA,NA,NA,NA,63,1,NA,NA,NA,NA,1
"64",37,1,0.9,1,"stim/objects/HouseObjects/teapot2.png","stim/41.jpeg",4,1,"stim/41.jpeg",4,"right",0.661000013,2,4,2.498000145,1,0.649000168,64,0,0,NA,0,NA,1
"65",37,2,0,1,"stim/objects/HouseObjects/barbecuelighter3.png","",0,0,"",0,"right",1.13499999,NA,NA,NA,NA,NA,65,1,NA,NA,NA,NA,1
"66",37,2,0,2,"stim/objects/Instruments/bassdrum3.png","",0,0,"",0,"right",0.65899992,NA,NA,NA,NA,NA,66,1,NA,NA,NA,NA,1
"67",37,2,0,2,"stim/objects/Instruments/banjo4.png","",0,0,"",0,"right",0.799999952,NA,NA,NA,NA,NA,67,1,NA,NA,NA,NA,1
"68",37,1,0.7,2,"stim/objects/Instruments/acousticguitar2.png","stim/14.jpeg",1,4,"stim/14.jpeg",4,"right",0.688999891,1,1,0.835999966,3,0.857999802,68,0,0,NA,0,NA,1
"69",37,2,0,2,"stim/objects/Instruments/chime3.png","",0,0,"",0,"right",1.753000021,NA,NA,NA,NA,NA,69,1,NA,NA,NA,NA,1
"70",37,2,0,1,"stim/objects/HouseObjects/handbrush3.png","",0,0,"",0,"right",0.680999994,NA,NA,NA,NA,NA,70,1,NA,NA,NA,NA,1
"71",37,1,0.1,2,"stim/objects/Instruments/vuvuzela2.png","stim/43.jpeg",4,3,"stim/43.jpeg",3,"left",0.805000067,3,3,2.792000055,3,0.84100008,71,1,1,1,1,1,1
"72",37,2,0,1,"stim/objects/HouseObjects/bucket3.png","",0,0,"",0,"right",0.92599988,NA,NA,NA,NA,NA,72,1,NA,NA,NA,NA,1
"73",37,1,0.9,2,"stim/objects/Instruments/gong2.png","stim/32.jpeg",3,2,"stim/32.jpeg",2,"right",1.555999994,2,1,1.447000027,2,1.147000074,73,0,0,NA,1,NA,1
"74",37,2,0,1,"stim/objects/HouseObjects/blender4.png","",0,0,"",0,"left",0.842000008,NA,NA,NA,NA,NA,74,0,NA,NA,NA,NA,1
"75",37,1,0.1,1,"stim/objects/HouseObjects/handvacuum2.png","stim/31.jpeg",3,1,"stim/31.jpeg",2,"left",0.937000036,3,4,2.28399992,2,0.776000023,75,1,0,0,1,1,1
"76",37,2,0,1,"stim/objects/HouseObjects/vacuumcleaner3.png","",0,0,"",0,"right",1.030999899,NA,NA,NA,NA,NA,76,1,NA,NA,NA,NA,1
"77",37,1,0.3,1,"stim/objects/HouseObjects/wateringcan.png","stim/11.jpeg",1,1,"stim/11.jpeg",1,"right",0.690000057,2,1,0.946000099,3,0.784000158,77,0,1,NA,0,NA,1
"78",37,1,0.9,1,"stim/objects/HouseObjects/thermometer2.png","stim/42.jpeg",4,2,"stim/42.jpeg",1,"left",0.781000137,3,2,3.035000086,1,0.57400012,78,1,1,1,1,1,1
"79",37,2,0,1,"stim/objects/HouseObjects/coffee3.png","",0,0,"",0,"right",1.09100008,NA,NA,NA,NA,NA,79,1,NA,NA,NA,NA,1
"80",37,1,0.5,2,"stim/objects/HouseObjects/scale.png","stim/62.jpeg",6,2,"stim/62.jpeg",2,"right",0.820000172,2,1,1.021000147,3,0.677999973,80,0,0,NA,0,NA,1
"81",37,2,0,2,"stim/objects/Instruments/cymbal3.png","",0,0,"",0,"right",1.459000111,NA,NA,NA,NA,NA,81,1,NA,NA,NA,NA,1
"82",37,1,0.5,1,"stim/objects/HouseObjects/handbrush.png","stim/51.jpeg",5,1,"stim/51.jpeg",1,"right",0.649000168,2,1,0.996000051,1,0.424000025,82,0,1,NA,1,NA,1
"83",37,1,0.5,1,"stim/objects/Instruments/saxophone.png","stim/52.jpeg",5,2,"stim/52.jpeg",2,"left",2.20299983,3,2,1.566999912,1,0.609999895,83,1,1,1,0,0,1
"84",37,2,0,1,"stim/objects/HouseObjects/clothesdryingrack4.png","",0,0,"",0,"right",0.799000025,NA,NA,NA,NA,NA,84,1,NA,NA,NA,NA,1
"85",37,1,0.9,1,"stim/objects/HouseObjects/saw2.png","stim/41.jpeg",4,1,"stim/41.jpeg",3,"left",1.154000044,3,1,1.108999968,1,0.671000004,85,1,1,1,0,0,1
"86",37,1,0.3,1,"stim/objects/HouseObjects/towel.png","stim/13.jpeg",1,3,"stim/13.jpeg",1,"left",1.147000074,3,3,1.874000072,1,0.674000025,86,1,1,1,1,1,1
"87",37,1,0.7,2,"stim/objects/Instruments/accordion2.png","stim/13.jpeg",1,3,"stim/13.jpeg",2,"left",1.39199996,2,2,1.453000069,1,0.624000072,87,1,0,0,0,0,1
"88",37,1,0.3,2,"stim/objects/Instruments/cymbal2.png","stim/23.jpeg",2,3,"stim/23.jpeg",4,"left",0.924999952,3,1,2.407000065,2,0.669999838,88,1,0,0,0,0,1
"89",37,2,0,2,"stim/objects/Instruments/frenchhorn3.png","",0,0,"",0,"left",0.967000008,NA,NA,NA,NA,NA,89,0,NA,NA,NA,NA,1
"90",37,2,0,1,"stim/objects/HouseObjects/ashtray3.png","",0,0,"",0,"right",1.595000029,NA,NA,NA,NA,NA,90,1,NA,NA,NA,NA,1
"91",37,2,0,2,"stim/objects/Instruments/doublebass3.png","",0,0,"",0,"right",0.837000132,NA,NA,NA,NA,NA,91,1,NA,NA,NA,NA,1
"92",37,2,0,1,"stim/objects/HouseObjects/barbecuelighter4.png","",0,0,"",0,"right",0.655999899,NA,NA,NA,NA,NA,92,1,NA,NA,NA,NA,1
"93",37,1,0.5,1,"stim/objects/HouseObjects/hairdryer.png","stim/54.jpeg",5,4,"stim/54.jpeg",3,"left",1.183000088,2,3,1.940999985,1,0.937000036,93,1,0,0,0,0,1
"94",37,2,0,1,"stim/objects/HouseObjects/garbagebin3.png","",0,0,"",0,"right",0.610000134,NA,NA,NA,NA,NA,94,1,NA,NA,NA,NA,1
"95",37,1,0.9,2,"stim/objects/Instruments/saxophone2.png","stim/34.jpeg",3,4,"stim/34.jpeg",2,"right",0.735999823,2,2,0.762000084,1,0.351999998,95,0,0,NA,0,NA,1
"96",37,2,0,1,"stim/objects/HouseObjects/bleachbottle3.png","",0,0,"",0,"right",0.709000111,NA,NA,NA,NA,NA,96,1,NA,NA,NA,NA,1
"97",37,2,0,1,"stim/objects/HouseObjects/cushion3.png","",0,0,"",0,"right",0.647999763,NA,NA,NA,NA,NA,97,1,NA,NA,NA,NA,1
"98",37,2,0,2,"stim/objects/Instruments/bassdrum4.png","",0,0,"",0,"right",0.618999958,NA,NA,NA,NA,NA,98,1,NA,NA,NA,NA,1
"99",37,2,0,2,"stim/objects/Instruments/tuba3.png","",0,0,"",0,"right",0.735999823,NA,NA,NA,NA,NA,99,1,NA,NA,NA,NA,1
"100",37,2,0,1,"stim/objects/HouseObjects/hairdryer3.png","",0,0,"",0,"right",0.748999834,NA,NA,NA,NA,NA,100,1,NA,NA,NA,NA,1
"101",37,1,0.1,2,"stim/objects/Instruments/tambourine2.png","stim/44.jpeg",4,4,"stim/44.jpeg",4,"left",0.851000071,3,1,1.122999907,2,0.588000059,101,1,0,0,0,0,1
"102",37,1,0.7,1,"stim/objects/HouseObjects/coffee2.png","stim/23.jpeg",2,3,"stim/23.jpeg",2,"left",1.141000032,2,2,1.071000099,2,0.514999866,102,1,0,0,1,1,1
"103",37,2,0,2,"stim/objects/Instruments/drums3.png","",0,0,"",0,"right",0.708999872,NA,NA,NA,NA,NA,103,1,NA,NA,NA,NA,1
"104",37,1,0.7,1,"stim/objects/HouseObjects/clothespin2.png","stim/22.jpeg",2,2,"stim/22.jpeg",3,"right",0.52699995,2,1,0.826999903,3,0.70299983,104,0,0,NA,1,NA,1
"105",37,1,0.7,1,"stim/objects/HouseObjects/bottle2.png","stim/21.jpeg",2,1,"stim/21.jpeg",1,"right",1.240999937,2,3,1.101999998,2,0.648000002,105,0,0,NA,0,NA,1
"106",37,1,0.5,2,"stim/objects/HouseObjects/teapot.png","stim/61.jpeg",6,1,"stim/61.jpeg",1,"left",1.449999809,3,1,0.92200017,2,0.417000055,106,1,1,1,0,0,1
"107",37,2,0,2,"stim/objects/Instruments/grandpiano3.png","",0,0,"",0,"right",0.903000116,NA,NA,NA,NA,NA,107,1,NA,NA,NA,NA,1
"108",37,2,0,2,"stim/objects/Instruments/bassguitar4.png","",0,0,"",0,"right",0.659999847,NA,NA,NA,NA,NA,108,1,NA,NA,NA,NA,1
"109",37,2,0,1,"stim/objects/HouseObjects/dishsoap4.png","",0,0,"",0,"right",1.038000107,NA,NA,NA,NA,NA,109,1,NA,NA,NA,NA,1
"110",37,2,0,1,"stim/objects/HouseObjects/glass3.png","",0,0,"",0,"right",0.671999931,NA,NA,NA,NA,NA,110,1,NA,NA,NA,NA,1
"111",37,1,0.3,2,"stim/objects/Instruments/electricguitar2.png","stim/23.jpeg",2,3,"stim/23.jpeg",1,"left",1.099999905,3,2,0.720999956,3,0.911000013,111,1,0,0,0,0,1
"112",37,1,0.7,1,"stim/objects/HouseObjects/broom2.png","stim/22.jpeg",2,2,"stim/22.jpeg",4,"left",1.04399991,3,1,0.928999901,3,0.703000069,112,1,0,0,0,0,1
"113",37,1,0.5,2,"stim/objects/HouseObjects/spraybottle.png","stim/64.jpeg",6,4,"stim/64.jpeg",3,"right",0.747999907,2,1,0.662000179,3,0.680000067,113,0,0,NA,1,NA,1
"114",37,1,0.1,1,"stim/objects/HouseObjects/garbagebin2.png","stim/34.jpeg",3,4,"stim/34.jpeg",4,"right",1.952000141,2,1,0.700000048,3,0.809999943,114,0,0,NA,0,NA,1
"115",37,1,0.5,1,"stim/objects/Instruments/hihat.png","stim/51.jpeg",5,1,"stim/51.jpeg",2,"right",1.20600009,2,1,1.143999815,3,0.640999794,115,0,1,NA,0,NA,1
"116",37,1,0.7,1,"stim/objects/HouseObjects/dishsoap2.png","stim/21.jpeg",2,1,"stim/21.jpeg",4,"right",0.819000006,2,1,0.846999884,3,0.996000051,116,0,1,NA,0,NA,1
"117",37,2,0,2,"stim/objects/Instruments/banjo3.png","",0,0,"",0,"right",0.677000046,NA,NA,NA,NA,NA,117,1,NA,NA,NA,NA,1
"118",37,1,0.1,2,"stim/objects/Instruments/violin2.png","stim/42.jpeg",4,2,"stim/42.jpeg",2,"left",1.407999992,2,4,2.129999876,1,0.52699995,118,1,0,0,0,0,1
"119",37,1,0.7,2,"stim/objects/Instruments/tuba.png","stim/13.jpeg",1,3,"stim/13.jpeg",3,"right",0.770999908,2,1,0.800000191,3,0.725000143,119,0,0,NA,1,NA,1
"120",37,1,0.1,1,"stim/objects/HouseObjects/hairdryer2.png","stim/33.jpeg",3,3,"stim/33.jpeg",3,"right",0.940999985,2,1,0.921000004,3,0.707000017,120,0,0,NA,1,NA,1
"121",37,2,0,2,"stim/objects/Instruments/electricguitar3.png","",0,0,"",0,"right",0.973999977,NA,NA,NA,NA,NA,121,1,NA,NA,NA,NA,1
"122",37,1,0.9,2,"stim/objects/Instruments/frenchhorn2.png","stim/31.jpeg",3,1,"stim/31.jpeg",1,"left",0.861999989,3,4,1.707000017,3,0.921000004,122,1,0,0,0,0,1
"123",37,1,0.7,2,"stim/objects/Instruments/banjo2.png","stim/12.jpeg",1,2,"stim/12.jpeg",2,"right",0.686000109,2,1,0.746000051,3,0.887000084,123,0,0,NA,0,NA,1
"124",37,1,0.3,1,"stim/objects/HouseObjects/vacuumcleaner.png","stim/14.jpeg",1,4,"stim/14.jpeg",1,"right",0.980000019,2,1,0.722000122,3,0.796000004,124,0,0,NA,0,NA,1
"125",37,1,0.5,2,"stim/objects/Instruments/trombone.png","stim/64.jpeg",6,4,"stim/64.jpeg",1,"right",1.577000141,2,1,0.53399992,3,0.541000128,125,0,0,NA,0,NA,1
"126",37,2,0,1,"stim/objects/HouseObjects/clock3.png","",0,0,"",0,"right",0.997999907,NA,NA,NA,NA,NA,126,1,NA,NA,NA,NA,1
"127",37,1,0.1,1,"stim/objects/HouseObjects/dustpan2.png","stim/32.jpeg",3,2,"stim/32.jpeg",2,"right",0.616999865,2,1,0.549999952,3,0.607000113,127,0,0,NA,0,NA,1
"128",37,2,0,2,"stim/objects/Instruments/trombone3.png","",0,0,"",0,"left",2.694000006,NA,NA,NA,NA,NA,128,0,NA,NA,NA,NA,1
"129",37,2,0,2,"stim/objects/Instruments/triangle3.png","",0,0,"",0,"left",1.110999823,NA,NA,NA,NA,NA,129,0,NA,NA,NA,NA,1
"130",37,1,0.9,2,"stim/objects/Instruments/grandpiano2.png","stim/33.jpeg",3,3,"stim/33.jpeg",2,"right",0.817000151,2,3,0.612999916,3,0.784000158,130,0,1,NA,0,NA,1
"131",37,1,0.7,2,"stim/objects/Instruments/vuvuzela.png","stim/11.jpeg",1,1,"stim/11.jpeg",2,"right",1.186000109,2,1,0.482000113,3,0.56099987,131,0,1,NA,0,NA,1
"132",37,1,0.5,2,"stim/objects/HouseObjects/sponge.png","stim/63.jpeg",6,3,"stim/63.jpeg",1,"left",0.981999874,3,1,1.078000069,1,0.609999895,132,1,0,0,1,1,1
"133",37,1,0.3,2,"stim/objects/Instruments/doublebass2.png","stim/24.jpeg",2,4,"stim/24.jpeg",3,"left",0.937000036,3,1,0.630000114,3,0.535000086,133,1,0,0,1,1,1
"134",37,2,0,1,"stim/objects/HouseObjects/clothesdryingrack3.png","",0,0,"",0,"right",0.736000061,NA,NA,NA,NA,NA,134,1,NA,NA,NA,NA,1
"135",37,1,0.3,1,"stim/objects/HouseObjects/ballofstring2.png","stim/13.jpeg",1,3,"stim/13.jpeg",3,"left",0.789000034,3,2,0.81400013,3,1.093000174,135,1,0,0,1,1,1
"136",37,2,0,1,"stim/objects/HouseObjects/clothespin3.png","",0,0,"",0,"right",1.279000044,NA,NA,NA,NA,NA,136,1,NA,NA,NA,NA,1
"137",37,2,0,1,"stim/objects/HouseObjects/sponge3.png","",0,0,"",0,"right",0.72300005,NA,NA,NA,NA,NA,137,1,NA,NA,NA,NA,1
"138",37,2,0,2,"stim/objects/Instruments/clarinet3.png","",0,0,"",0,"left",1.173000097,NA,NA,NA,NA,NA,138,0,NA,NA,NA,NA,1
"139",37,1,0.5,1,"stim/objects/HouseObjects/glassmop.png","stim/53.jpeg",5,3,"stim/53.jpeg",3,"right",1.318000078,2,1,0.585000038,3,0.743999958,139,0,0,NA,1,NA,1
"140",37,2,0,1,"stim/objects/HouseObjects/coffee4.png","",0,0,"",0,"right",0.767999887,NA,NA,NA,NA,NA,140,1,NA,NA,NA,NA,1
"141",37,2,0,2,"stim/objects/Instruments/cornet4.png","",0,0,"",0,"right",1.066999912,NA,NA,NA,NA,NA,141,1,NA,NA,NA,NA,1
"142",37,1,0.1,2,"stim/objects/Instruments/tuba2.png","stim/41.jpeg",4,1,"stim/41.jpeg",3,"right",0.802000046,2,1,0.830000162,3,0.61500001,142,0,1,NA,1,NA,1
"143",37,2,0,1,"stim/objects/HouseObjects/flyswatter3.png","",0,0,"",0,"right",2.125,NA,NA,NA,NA,NA,143,1,NA,NA,NA,NA,1
"144",37,2,0,2,"stim/objects/Instruments/acousticguitar3.png","",0,0,"",0,"right",0.92599988,NA,NA,NA,NA,NA,144,1,NA,NA,NA,NA,1
"145",37,1,0.7,2,"stim/objects/Instruments/trumpet.png","stim/12.jpeg",1,2,"stim/12.jpeg",4,"right",0.826999903,2,1,0.504999876,3,0.680000067,145,0,0,NA,0,NA,1
"146",37,1,0.5,1,"stim/objects/Instruments/harmonica.png","stim/53.jpeg",5,3,"stim/53.jpeg",3,"right",0.882999897,2,1,1.071999788,3,0.614000082,146,0,0,NA,1,NA,1
"147",37,1,0.5,2,"stim/objects/HouseObjects/saw.png","stim/61.jpeg",6,1,"stim/61.jpeg",2,"right",0.749000072,2,1,0.648000002,3,0.492999792,147,0,1,NA,0,NA,1
"148",37,2,0,2,"stim/objects/Instruments/speaker3.png","",0,0,"",0,"right",0.789000034,NA,NA,NA,NA,NA,148,1,NA,NA,NA,NA,1
"149",37,2,0,1,"stim/objects/HouseObjects/cushion4.png","",0,0,"",0,"right",0.756999969,NA,NA,NA,NA,NA,149,1,NA,NA,NA,NA,1
"150",37,2,0,1,"stim/objects/HouseObjects/thread3.png","",0,0,"",0,"right",0.703000069,NA,NA,NA,NA,NA,150,1,NA,NA,NA,NA,1
"151",37,2,0,2,"stim/objects/Instruments/vuvuzela3.png","",0,0,"",0,"right",0.711999893,NA,NA,NA,NA,NA,151,1,NA,NA,NA,NA,1
"152",37,1,0.9,2,"stim/objects/Instruments/hihat2.png","stim/33.jpeg",3,3,"stim/33.jpeg",3,"right",0.835000038,2,1,0.569000006,3,0.513999939,152,0,0,NA,1,NA,1
"153",37,2,0,2,"stim/objects/Instruments/violin3.png","",0,0,"",0,"right",0.724999905,NA,NA,NA,NA,NA,153,1,NA,NA,NA,NA,1
"154",37,2,0,2,"stim/objects/Instruments/flute3.png","",0,0,"",0,"right",0.69299984,NA,NA,NA,NA,NA,154,1,NA,NA,NA,NA,1
"155",37,1,0.3,2,"stim/objects/Instruments/cornet2.png","stim/22.jpeg",2,2,"stim/22.jpeg",4,"right",0.94299984,2,4,0.858999968,3,0.865999937,155,0,0,NA,0,NA,1
"156",37,1,0.3,2,"stim/objects/Instruments/chime2.png","stim/24.jpeg",2,4,"stim/24.jpeg",1,"left",1.067000151,3,1,0.647000074,3,0.982000113,156,1,0,0,0,0,1
"157",37,2,0,1,"stim/objects/HouseObjects/safetypin3.png","",0,0,"",0,"right",0.813999891,NA,NA,NA,NA,NA,157,1,NA,NA,NA,NA,1
"158",37,1,0.3,2,"stim/objects/Instruments/drums2.png","stim/21.jpeg",2,1,"stim/21.jpeg",3,"left",0.871000051,3,4,2.839999914,3,1.187000036,158,1,0,0,1,1,1
"159",37,1,0.7,2,"stim/objects/Instruments/xylophone.png","stim/12.jpeg",1,2,"stim/12.jpeg",3,"right",0.888000011,2,1,0.703999996,3,0.503999949,159,0,0,NA,1,NA,1
"160",37,1,0.7,2,"stim/objects/Instruments/balalaika2.png","stim/11.jpeg",1,1,"stim/11.jpeg",4,"left",0.839999914,3,3,1.080999851,4,0.795000076,160,1,0,0,1,1,1
"161",37,2,0,2,"stim/objects/Instruments/doublebass4.png","",0,0,"",0,"left",0.860000134,NA,NA,NA,NA,NA,161,0,NA,NA,NA,NA,1
"162",37,1,0.9,1,"stim/objects/HouseObjects/thread2.png","stim/43.jpeg",4,3,"stim/43.jpeg",3,"right",1.611000061,2,1,0.595999956,3,0.463000059,162,0,0,NA,1,NA,1
"163",37,1,0.5,2,"stim/objects/Instruments/triangle.png","stim/63.jpeg",6,3,"stim/63.jpeg",4,"left",0.843000174,3,1,0.693000078,3,0.52699995,163,1,0,0,0,0,1
"164",37,2,0,2,"stim/objects/Instruments/cymbal4.png","",0,0,"",0,"right",0.694000006,NA,NA,NA,NA,NA,164,1,NA,NA,NA,NA,1
"165",37,2,0,1,"stim/objects/HouseObjects/scale3.png","",0,0,"",0,"right",0.590999842,NA,NA,NA,NA,NA,165,1,NA,NA,NA,NA,1
"166",37,1,0.3,1,"stim/objects/HouseObjects/bleachbottle2.png","stim/12.jpeg",1,2,"stim/12.jpeg",4,"left",0.806999922,2,1,0.687999964,3,0.993000031,166,1,0,0,0,0,1
"167",37,2,0,2,"stim/objects/Instruments/chime4.png","",0,0,"",0,"right",1.07799983,NA,NA,NA,NA,NA,167,1,NA,NA,NA,NA,1
"168",37,1,0.5,1,"stim/objects/HouseObjects/handvacuum.png","stim/52.jpeg",5,2,"stim/52.jpeg",4,"left",0.861000061,2,1,0.674000025,3,0.5,168,1,0,0,0,0,1
"169",37,2,0,1,"stim/objects/HouseObjects/broom3.png","",0,0,"",0,"right",0.855000019,NA,NA,NA,NA,NA,169,1,NA,NA,NA,NA,1
"170",37,1,0.9,2,"stim/objects/Instruments/harp2.png","stim/32.jpeg",3,2,"stim/32.jpeg",1,"right",1.062999964,2,1,0.493000031,3,0.424000025,170,0,0,NA,0,NA,1
"171",37,1,0.1,1,"stim/objects/HouseObjects/flyswatter2.png","stim/33.jpeg",3,3,"stim/33.jpeg",3,"right",0.769000053,1,1,0.700000048,3,0.656000137,171,0,0,NA,1,NA,1
"172",37,1,0.3,2,"stim/objects/Instruments/bassguitar2.png","stim/22.jpeg",2,2,"stim/22.jpeg",4,"right",1.047999859,2,1,0.679000139,3,0.573000193,172,0,0,NA,0,NA,1
"173",37,1,0.9,1,"stim/objects/HouseObjects/sponge2.png","stim/43.jpeg",4,3,"stim/43.jpeg",4,"left",1.198999882,3,1,0.554000139,3,0.53399992,173,1,0,0,0,0,1
"174",37,1,0.1,1,"stim/objects/HouseObjects/glass2.png","stim/31.jpeg",3,1,"stim/31.jpeg",1,"right",0.879999876,2,1,0.654000044,3,0.572999954,174,0,1,NA,0,NA,1
"175",37,2,0,2,"stim/objects/Instruments/saxophone3.png","",0,0,"",0,"left",1.190000057,NA,NA,NA,NA,NA,175,0,NA,NA,NA,NA,1
"176",37,2,0,2,"stim/objects/Instruments/electricdrumset4.png","",0,0,"",0,"right",1.160000086,NA,NA,NA,NA,NA,176,1,NA,NA,NA,NA,1
"177",37,1,0.7,1,"stim/objects/HouseObjects/bucket2.png","stim/23.jpeg",2,3,"stim/23.jpeg",3,"right",0.894999981,2,2,0.589000225,3,0.56099987,177,0,0,NA,1,NA,1
"178",37,1,0.1,1,"stim/objects/HouseObjects/glassmop2.png","stim/32.jpeg",3,2,"stim/32.jpeg",3,"right",0.746999979,2,1,0.629999876,3,0.495000124,178,0,0,NA,1,NA,1
"179",37,2,0,1,"stim/objects/HouseObjects/towel3.png","",0,0,"",0,"left",0.976999998,NA,NA,NA,NA,NA,179,0,NA,NA,NA,NA,1
"180",37,2,0,1,"stim/objects/HouseObjects/saw3.png","",0,0,"",0,"right",1.068000078,NA,NA,NA,NA,NA,180,1,NA,NA,NA,NA,1
"181",37,1,0.3,1,"stim/objects/HouseObjects/thermometer.png","stim/11.jpeg",1,1,"stim/11.jpeg",1,"right",0.835999966,2,1,0.730000019,1,0.799999952,181,0,1,NA,1,NA,1
"182",37,2,0,2,"stim/objects/Instruments/trumpet3.png","",0,0,"",0,"right",2.80700016,NA,NA,NA,NA,NA,182,1,NA,NA,NA,NA,1
"183",37,1,0.9,1,"stim/objects/HouseObjects/spraybottle2.png","stim/44.jpeg",4,4,"stim/44.jpeg",1,"right",0.681999922,2,1,0.647000074,3,0.503999949,183,0,0,NA,0,NA,1
"184",37,2,0,1,"stim/objects/HouseObjects/glassmop3.png","",0,0,"",0,"right",0.646000147,NA,NA,NA,NA,NA,184,1,NA,NA,NA,NA,1
"185",37,1,0.5,2,"stim/objects/Instruments/speaker.png","stim/64.jpeg",6,4,"stim/64.jpeg",1,"left",0.978999853,3,4,1.701999903,1,0.321000099,185,1,1,1,1,1,1
"186",37,2,0,2,"stim/objects/Instruments/timbal3.png","",0,0,"",0,"right",0.907999992,NA,NA,NA,NA,NA,186,1,NA,NA,NA,NA,1
"187",37,2,0,1,"stim/objects/HouseObjects/doormat3.png","",0,0,"",0,"right",0.622999907,NA,NA,NA,NA,NA,187,1,NA,NA,NA,NA,1
"188",37,1,0.5,1,"stim/objects/HouseObjects/safetypin.png","stim/53.jpeg",5,3,"stim/53.jpeg",3,"right",0.756000042,2,1,0.406000137,3,0.529000044,188,0,0,NA,1,NA,1
"189",37,1,0.5,1,"stim/objects/Instruments/guitarcase.png","stim/52.jpeg",5,2,"stim/52.jpeg",3,"right",1.055999994,2,2,0.878000021,3,0.502000093,189,0,1,NA,1,NA,1
"190",37,1,0.3,2,"stim/objects/Instruments/clarinet2.png","stim/21.jpeg",2,1,"stim/21.jpeg",1,"left",1.038000107,3,1,0.513999939,3,0.506000042,190,1,1,1,0,0,1
"191",37,2,0,2,"stim/objects/Instruments/electricdrumset3.png","",0,0,"",0,"right",0.777999878,NA,NA,NA,NA,NA,191,1,NA,NA,NA,NA,1
"192",37,2,0,2,"stim/objects/Instruments/bassguitar3.png","",0,0,"",0,"right",0.687999964,NA,NA,NA,NA,NA,192,1,NA,NA,NA,NA,1
"193",37,2,0,1,"stim/objects/HouseObjects/blender3.png","",0,0,"",0,"left",0.902999878,NA,NA,NA,NA,NA,193,0,NA,NA,NA,NA,1
"194",37,1,0.9,2,"stim/objects/Instruments/flute2.png","stim/33.jpeg",3,3,"stim/33.jpeg",4,"right",1.036000013,2,1,0.585000038,2,0.546999931,194,0,0,NA,0,NA,1
"195",37,1,0.9,1,"stim/objects/HouseObjects/vacuumcleaner2.png","stim/41.jpeg",4,1,"stim/41.jpeg",2,"left",1.032000065,3,1,1.657999992,2,0.555999994,195,1,1,1,1,1,1
"196",37,2,0,2,"stim/objects/Instruments/clarinet4.png","",0,0,"",0,"right",1.736000061,NA,NA,NA,NA,NA,196,1,NA,NA,NA,NA,1
"197",37,2,0,1,"stim/objects/HouseObjects/thermometer3.png","",0,0,"",0,"right",0.796000004,NA,NA,NA,NA,NA,197,1,NA,NA,NA,NA,1
"198",37,1,0.9,1,"stim/objects/HouseObjects/towel2.png","stim/44.jpeg",4,4,"stim/44.jpeg",3,"right",0.742000103,2,1,0.666000128,2,0.359999895,198,0,0,NA,0,NA,1
"199",37,1,0.1,2,"stim/objects/Instruments/trumpet2.png","stim/44.jpeg",4,4,"stim/44.jpeg",1,"right",1.32400012,2,3,1.058000088,1,0.573999882,199,0,0,NA,1,NA,1
"200",37,2,0,2,"stim/objects/Instruments/electricguitar4.png","",0,0,"",0,"right",0.640000105,NA,NA,NA,NA,NA,200,1,NA,NA,NA,NA,1
