"","obj_file","X.x","participant.x","trialN.x","trial_cond","scn_file.x","scn_cat","scn_inst","scn_condition","fillers","obj_cat","obj_cat_num","quadrant","corr_ans","key_resp_trial.keys","key_resp_trial.rt","trial_acc","trial_acc_manual","group.x","practice","X.y","participant.y","OvsN","PE_level","object_cat","scn_file.y","corr_scn_cat","corr_scn_inst","scn_file.1","corr_loc","key_resp_id.keys","key_resp_id.rt","key_resp_conf.keys","key_resp_assoc.keys","key_resp_assoc.rt","key_resp_loc.keys","key_resp_loc.rt","trialN.y","id_acc","assoc.acc","cond_assoc","loc.acc","cond_loc","group.y"
"145","stim/objects/Instruments/banjo.png",1,60,1,0.5,"stim/14.jpeg",1,4,1,NA,"Instruments",2,3,"right","",NA,0,0,0,1,NA,NA,NA,NA,NA,NA,NA,NA,NA,NA,NA,NA,NA,NA,NA,NA,NA,NA,NA,NA,NA,NA,NA,NA
"172","stim/objects/Instruments/bassguitar2.png",2,60,2,0.9,"stim/52.jpeg",5,2,3,NA,"Instruments",2,1,"right","right",0.77699995,1,1,0,1,NA,NA,NA,NA,NA,NA,NA,NA,NA,NA,NA,NA,NA,NA,NA,NA,NA,NA,NA,NA,NA,NA,NA,NA
"186","stim/objects/Instruments/cello2.png",3,60,3,0.9,"stim/53.jpeg",5,3,3,NA,"Instruments",2,1,"right","right",0.865999937,1,1,0,1,NA,NA,NA,NA,NA,NA,NA,NA,NA,NA,NA,NA,NA,NA,NA,NA,NA,NA,NA,NA,NA,NA,NA,NA
"49","stim/objects/HouseObjects/bleachbottle.png",4,60,4,0.5,"stim/21.jpeg",2,1,1,NA,"HouseObjects",1,3,"left","",NA,0,0,0,1,NA,NA,NA,NA,NA,NA,NA,NA,NA,NA,NA,NA,NA,NA,NA,NA,NA,NA,NA,NA,NA,NA,NA,NA
"112","stim/objects/HouseObjects/clothespin2.png",5,60,5,0.9,"stim/64.jpeg",6,4,3,NA,"HouseObjects",1,2,"left","left",0.554999828,1,1,0,1,NA,NA,NA,NA,NA,NA,NA,NA,NA,NA,NA,NA,NA,NA,NA,NA,NA,NA,NA,NA,NA,NA,NA,NA
"37","stim/objects/HouseObjects/basket.png",6,60,6,0.5,"stim/14.jpeg",1,4,1,NA,"HouseObjects",1,4,"left","right",0.753999949,0,0,0,1,NA,NA,NA,NA,NA,NA,NA,NA,NA,NA,NA,NA,NA,NA,NA,NA,NA,NA,NA,NA,NA,NA,NA,NA
"61","stim/objects/HouseObjects/bottle.png",7,60,7,0.5,"stim/23.jpeg",2,3,1,NA,"HouseObjects",1,1,"left","",NA,0,0,0,1,NA,NA,NA,NA,NA,NA,NA,NA,NA,NA,NA,NA,NA,NA,NA,NA,NA,NA,NA,NA,NA,NA,NA,NA
"134","stim/objects/Instruments/acousticguitar2.png",8,60,8,0.3,"stim/42.jpeg",4,2,2,NA,"Instruments",2,4,"right","right",0.78399992,1,1,0,1,NA,NA,NA,NA,NA,NA,NA,NA,NA,NA,NA,NA,NA,NA,NA,NA,NA,NA,NA,NA,NA,NA,NA,NA
"6","stim/objects/HouseObjects/ashtray2.png",9,60,9,0.7,"stim/41.jpeg",4,1,2,NA,"HouseObjects",1,4,"left","left",0.781999826,1,1,0,1,NA,NA,NA,NA,NA,NA,NA,NA,NA,NA,NA,NA,NA,NA,NA,NA,NA,NA,NA,NA,NA,NA,NA,NA
"38","stim/objects/HouseObjects/basket.png",10,60,10,0.5,"stim/14.jpeg",1,4,1,NA,"HouseObjects",1,2,"left","left",0.789000034,1,1,0,1,NA,NA,NA,NA,NA,NA,NA,NA,NA,NA,NA,NA,NA,NA,NA,NA,NA,NA,NA,NA,NA,NA,NA,NA
"88","stim/objects/HouseObjects/clock2.png",11,60,11,0.9,"stim/62.jpeg",6,2,3,NA,"HouseObjects",1,2,"left","left",0.618999958,1,1,0,1,NA,NA,NA,NA,NA,NA,NA,NA,NA,NA,NA,NA,NA,NA,NA,NA,NA,NA,NA,NA,NA,NA,NA,NA
"158","stim/objects/Instruments/bassdrum2.png",12,60,12,0.9,"stim/51.jpeg",5,1,3,NA,"Instruments",2,2,"right","right",0.679999828,1,1,0,1,NA,NA,NA,NA,NA,NA,NA,NA,NA,NA,NA,NA,NA,NA,NA,NA,NA,NA,NA,NA,NA,NA,NA,NA
"126","stim/objects/Instruments/accordion2.png",13,60,13,0.3,"stim/41.jpeg",4,1,2,NA,"Instruments",2,2,"right","left",0.838999748,0,0,0,1,NA,NA,NA,NA,NA,NA,NA,NA,NA,NA,NA,NA,NA,NA,NA,NA,NA,NA,NA,NA,NA,NA,NA,NA
"181","stim/objects/Instruments/cello.png",14,60,14,0.5,"stim/23.jpeg",2,3,1,NA,"Instruments",2,4,"right","left",0.617999792,0,0,0,1,NA,NA,NA,NA,NA,NA,NA,NA,NA,NA,NA,NA,NA,NA,NA,NA,NA,NA,NA,NA,NA,NA,NA,NA
"50","stim/objects/HouseObjects/bleachbottle.png",15,60,15,0.5,"stim/21.jpeg",2,1,1,NA,"HouseObjects",1,1,"left","left",0.832000017,1,1,0,1,NA,NA,NA,NA,NA,NA,NA,NA,NA,NA,NA,NA,NA,NA,NA,NA,NA,NA,NA,NA,NA,NA,NA,NA
"89","stim/objects/HouseObjects/clock2.png",16,60,16,0.9,"stim/62.jpeg",6,2,3,NA,"HouseObjects",1,3,"left","left",0.5849998,1,1,0,1,NA,NA,NA,NA,NA,NA,NA,NA,NA,NA,NA,NA,NA,NA,NA,NA,NA,NA,NA,NA,NA,NA,NA,NA
"129","stim/objects/Instruments/acousticguitar.png",17,60,17,0.5,"stim/12.jpeg",1,2,1,NA,"Instruments",2,2,"right","right",0.565000057,1,1,0,1,NA,NA,NA,NA,NA,NA,NA,NA,NA,NA,NA,NA,NA,NA,NA,NA,NA,NA,NA,NA,NA,NA,NA,NA
"233","stim/objects/Instruments/doublebass.png",18,60,18,0.7,"stim/34.jpeg",3,4,2,NA,"Instruments",2,4,"right","right",0.703999996,1,1,0,1,NA,NA,NA,NA,NA,NA,NA,NA,NA,NA,NA,NA,NA,NA,NA,NA,NA,NA,NA,NA,NA,NA,NA,NA
"153","stim/objects/Instruments/bassdrum.png",19,60,19,0.5,"stim/21.jpeg",2,1,1,NA,"Instruments",2,2,"right","left",0.63499999,0,0,0,1,NA,NA,NA,NA,NA,NA,NA,NA,NA,NA,NA,NA,NA,NA,NA,NA,NA,NA,NA,NA,NA,NA,NA,NA
"55","stim/objects/HouseObjects/blender.png",20,60,20,0.5,"stim/22.jpeg",2,2,1,NA,"HouseObjects",1,3,"left","right",0.911000013,0,0,0,1,NA,NA,NA,NA,NA,NA,NA,NA,NA,NA,NA,NA,NA,NA,NA,NA,NA,NA,NA,NA,NA,NA,NA,NA
"13","stim/objects/HouseObjects/ballofstring.png",21,60,21,0.5,"stim/12.jpeg",1,2,1,NA,"HouseObjects",1,3,"left","",NA,0,0,0,1,NA,NA,NA,NA,NA,NA,NA,NA,NA,NA,NA,NA,NA,NA,NA,NA,NA,NA,NA,NA,NA,NA,NA,NA
"100","stim/objects/HouseObjects/clothesdryingrack2.png",22,60,22,0.9,"stim/63.jpeg",6,3,3,NA,"HouseObjects",1,4,"left","left",0.879999876,1,1,0,1,NA,NA,NA,NA,NA,NA,NA,NA,NA,NA,NA,NA,NA,NA,NA,NA,NA,NA,NA,NA,NA,NA,NA,NA
"30","stim/objects/HouseObjects/barbecuelighter2.png",23,60,23,0.7,"stim/43.jpeg",4,3,2,NA,"HouseObjects",1,4,"left","right",0.609999895,0,0,0,1,NA,NA,NA,NA,NA,NA,NA,NA,NA,NA,NA,NA,NA,NA,NA,NA,NA,NA,NA,NA,NA,NA,NA,NA
"7","stim/objects/HouseObjects/ashtray2.png",24,60,24,0.7,"stim/41.jpeg",4,1,2,NA,"HouseObjects",1,4,"left","left",0.755999804,1,1,0,1,NA,NA,NA,NA,NA,NA,NA,NA,NA,NA,NA,NA,NA,NA,NA,NA,NA,NA,NA,NA,NA,NA,NA,NA
"137","stim/objects/Instruments/balalaika.png",25,60,25,0.5,"stim/13.jpeg",1,3,1,NA,"Instruments",2,4,"right","right",0.684000015,1,1,0,1,NA,NA,NA,NA,NA,NA,NA,NA,NA,NA,NA,NA,NA,NA,NA,NA,NA,NA,NA,NA,NA,NA,NA,NA
"18","stim/objects/HouseObjects/ballofstring2.png",26,60,26,0.7,"stim/42.jpeg",4,2,2,NA,"HouseObjects",1,3,"left","",NA,0,0,0,1,NA,NA,NA,NA,NA,NA,NA,NA,NA,NA,NA,NA,NA,NA,NA,NA,NA,NA,NA,NA,NA,NA,NA,NA
"14","stim/objects/HouseObjects/ballofstring.png",27,60,27,0.5,"stim/12.jpeg",1,2,1,NA,"HouseObjects",1,2,"left","right",0.621999979,0,0,0,1,NA,NA,NA,NA,NA,NA,NA,NA,NA,NA,NA,NA,NA,NA,NA,NA,NA,NA,NA,NA,NA,NA,NA,NA
"76","stim/objects/HouseObjects/bucket2.png",28,60,28,0.9,"stim/61.jpeg",6,1,3,NA,"HouseObjects",1,2,"left","left",0.572999954,1,1,0,1,NA,NA,NA,NA,NA,NA,NA,NA,NA,NA,NA,NA,NA,NA,NA,NA,NA,NA,NA,NA,NA,NA,NA,NA
"225","stim/objects/Instruments/cymbal.png",29,60,29,0.7,"stim/33.jpeg",3,3,2,NA,"Instruments",2,1,"right","right",0.666999817,1,1,0,1,NA,NA,NA,NA,NA,NA,NA,NA,NA,NA,NA,NA,NA,NA,NA,NA,NA,NA,NA,NA,NA,NA,NA,NA
"138","stim/objects/Instruments/balalaika.png",30,60,30,0.5,"stim/13.jpeg",1,3,1,NA,"Instruments",2,3,"right","left",0.777999878,0,0,0,1,NA,NA,NA,NA,NA,NA,NA,NA,NA,NA,NA,NA,NA,NA,NA,NA,NA,NA,NA,NA,NA,NA,NA,NA
"187","stim/objects/Instruments/cello2.png",31,60,31,0.9,"stim/53.jpeg",5,3,3,NA,"Instruments",2,2,"right","right",0.654999971,1,1,0,1,NA,NA,NA,NA,NA,NA,NA,NA,NA,NA,NA,NA,NA,NA,NA,NA,NA,NA,NA,NA,NA,NA,NA,NA
"113","stim/objects/HouseObjects/clothespin2.png",32,60,32,0.9,"stim/64.jpeg",6,4,3,NA,"HouseObjects",1,4,"left","left",0.571999788,1,1,0,1,NA,NA,NA,NA,NA,NA,NA,NA,NA,NA,NA,NA,NA,NA,NA,NA,NA,NA,NA,NA,NA,NA,NA,NA
"31","stim/objects/HouseObjects/barbecuelighter2.png",33,60,33,0.7,"stim/43.jpeg",4,3,2,NA,"HouseObjects",1,4,"left","left",0.825000048,1,1,0,1,NA,NA,NA,NA,NA,NA,NA,NA,NA,NA,NA,NA,NA,NA,NA,NA,NA,NA,NA,NA,NA,NA,NA,NA
"85","stim/objects/HouseObjects/clock.png",34,60,34,0.3,"stim/32.jpeg",3,2,2,NA,"HouseObjects",1,4,"left","right",0.667999983,0,0,0,1,NA,NA,NA,NA,NA,NA,NA,NA,NA,NA,NA,NA,NA,NA,NA,NA,NA,NA,NA,NA,NA,NA,NA,NA
"121","stim/objects/Instruments/accordion.png",35,60,35,0.5,"stim/11.jpeg",1,1,1,NA,"Instruments",2,3,"right","right",0.670999765,1,1,0,1,NA,NA,NA,NA,NA,NA,NA,NA,NA,NA,NA,NA,NA,NA,NA,NA,NA,NA,NA,NA,NA,NA,NA,NA
"62","stim/objects/HouseObjects/bottle.png",36,60,36,0.5,"stim/23.jpeg",2,3,1,NA,"HouseObjects",1,2,"left","left",0.651000023,1,1,0,1,NA,NA,NA,NA,NA,NA,NA,NA,NA,NA,NA,NA,NA,NA,NA,NA,NA,NA,NA,NA,NA,NA,NA,NA
"67","stim/objects/HouseObjects/broom.png",37,60,37,0.5,"stim/24.jpeg",2,4,1,NA,"HouseObjects",1,2,"left","",NA,0,0,0,1,NA,NA,NA,NA,NA,NA,NA,NA,NA,NA,NA,NA,NA,NA,NA,NA,NA,NA,NA,NA,NA,NA,NA,NA
"8","stim/objects/HouseObjects/ashtray2.png",38,60,38,0.7,"stim/41.jpeg",4,1,2,NA,"HouseObjects",1,4,"left","left",0.752000093,1,1,0,1,NA,NA,NA,NA,NA,NA,NA,NA,NA,NA,NA,NA,NA,NA,NA,NA,NA,NA,NA,NA,NA,NA,NA,NA
"90","stim/objects/HouseObjects/clock2.png",39,60,39,0.9,"stim/62.jpeg",6,2,3,NA,"HouseObjects",1,1,"left","left",0.562000036,1,1,0,1,NA,NA,NA,NA,NA,NA,NA,NA,NA,NA,NA,NA,NA,NA,NA,NA,NA,NA,NA,NA,NA,NA,NA,NA
"154","stim/objects/Instruments/bassdrum.png",40,60,40,0.5,"stim/21.jpeg",2,1,1,NA,"Instruments",2,1,"right","right",0.81799984,1,1,0,1,NA,NA,NA,NA,NA,NA,NA,NA,NA,NA,NA,NA,NA,NA,NA,NA,NA,NA,NA,NA,NA,NA,NA,NA
"32","stim/objects/HouseObjects/barbecuelighter2.png",41,60,41,0.7,"stim/43.jpeg",4,3,2,NA,"HouseObjects",1,2,"left","left",0.707999945,1,1,0,1,NA,NA,NA,NA,NA,NA,NA,NA,NA,NA,NA,NA,NA,NA,NA,NA,NA,NA,NA,NA,NA,NA,NA,NA
"15","stim/objects/HouseObjects/ballofstring.png",42,60,42,0.5,"stim/12.jpeg",1,2,1,NA,"HouseObjects",1,1,"left","right",0.690999985,0,0,0,1,NA,NA,NA,NA,NA,NA,NA,NA,NA,NA,NA,NA,NA,NA,NA,NA,NA,NA,NA,NA,NA,NA,NA,NA
"217","stim/objects/Instruments/cornet.png",43,60,43,0.7,"stim/32.jpeg",3,2,2,NA,"Instruments",2,2,"right","right",0.654000044,1,1,0,1,NA,NA,NA,NA,NA,NA,NA,NA,NA,NA,NA,NA,NA,NA,NA,NA,NA,NA,NA,NA,NA,NA,NA,NA
"63","stim/objects/HouseObjects/bottle.png",44,60,44,0.5,"stim/23.jpeg",2,3,1,NA,"HouseObjects",1,3,"left","left",0.736999989,1,1,0,1,NA,NA,NA,NA,NA,NA,NA,NA,NA,NA,NA,NA,NA,NA,NA,NA,NA,NA,NA,NA,NA,NA,NA,NA
"73","stim/objects/HouseObjects/bucket.png",45,60,45,0.3,"stim/31.jpeg",3,1,2,NA,"HouseObjects",1,1,"left","right",0.671000004,0,0,0,1,NA,NA,NA,NA,NA,NA,NA,NA,NA,NA,NA,NA,NA,NA,NA,NA,NA,NA,NA,NA,NA,NA,NA,NA
"182","stim/objects/Instruments/cello.png",46,60,46,0.5,"stim/23.jpeg",2,3,1,NA,"Instruments",2,4,"right","left",0.67599988,0,0,0,1,NA,NA,NA,NA,NA,NA,NA,NA,NA,NA,NA,NA,NA,NA,NA,NA,NA,NA,NA,NA,NA,NA,NA,NA
"218","stim/objects/Instruments/cornet.png",47,60,47,0.7,"stim/32.jpeg",3,2,2,NA,"Instruments",2,1,"right","right",0.505999804,1,1,0,1,NA,NA,NA,NA,NA,NA,NA,NA,NA,NA,NA,NA,NA,NA,NA,NA,NA,NA,NA,NA,NA,NA,NA,NA
"195","stim/objects/Instruments/chime.png",48,60,48,0.5,"stim/24.jpeg",2,4,1,NA,"Instruments",2,1,"right","left",0.729000092,0,0,0,1,NA,NA,NA,NA,NA,NA,NA,NA,NA,NA,NA,NA,NA,NA,NA,NA,NA,NA,NA,NA,NA,NA,NA,NA
"146","stim/objects/Instruments/banjo.png",49,60,49,0.5,"stim/14.jpeg",1,4,1,NA,"Instruments",2,1,"right","right",0.513999939,1,1,0,1,NA,NA,NA,NA,NA,NA,NA,NA,NA,NA,NA,NA,NA,NA,NA,NA,NA,NA,NA,NA,NA,NA,NA,NA
"159","stim/objects/Instruments/bassdrum2.png",50,60,50,0.9,"stim/51.jpeg",5,1,3,NA,"Instruments",2,1,"right","right",0.535999775,1,1,0,1,NA,NA,NA,NA,NA,NA,NA,NA,NA,NA,NA,NA,NA,NA,NA,NA,NA,NA,NA,NA,NA,NA,NA,NA
"160","stim/objects/Instruments/bassdrum2.png",51,60,51,0.9,"stim/51.jpeg",5,1,3,NA,"Instruments",2,4,"right","right",0.682999849,1,1,0,1,NA,NA,NA,NA,NA,NA,NA,NA,NA,NA,NA,NA,NA,NA,NA,NA,NA,NA,NA,NA,NA,NA,NA,NA
"19","stim/objects/HouseObjects/ballofstring2.png",52,60,52,0.7,"stim/42.jpeg",4,2,2,NA,"HouseObjects",1,4,"left","right",0.832000017,0,0,0,1,NA,NA,NA,NA,NA,NA,NA,NA,NA,NA,NA,NA,NA,NA,NA,NA,NA,NA,NA,NA,NA,NA,NA,NA
"51","stim/objects/HouseObjects/bleachbottle.png",53,60,53,0.5,"stim/21.jpeg",2,1,1,NA,"HouseObjects",1,1,"left","left",0.632999897,1,1,0,1,NA,NA,NA,NA,NA,NA,NA,NA,NA,NA,NA,NA,NA,NA,NA,NA,NA,NA,NA,NA,NA,NA,NA,NA
"200","stim/objects/Instruments/chime2.png",54,60,54,0.9,"stim/54.jpeg",5,4,3,NA,"Instruments",2,3,"right","right",0.62899971,1,1,0,1,NA,NA,NA,NA,NA,NA,NA,NA,NA,NA,NA,NA,NA,NA,NA,NA,NA,NA,NA,NA,NA,NA,NA,NA
"167","stim/objects/Instruments/bassguitar.png",55,60,55,0.5,"stim/22.jpeg",2,2,1,NA,"Instruments",2,2,"right","right",0.917999983,1,1,0,1,NA,NA,NA,NA,NA,NA,NA,NA,NA,NA,NA,NA,NA,NA,NA,NA,NA,NA,NA,NA,NA,NA,NA,NA
"173","stim/objects/Instruments/bassguitar2.png",56,60,56,0.9,"stim/52.jpeg",5,2,3,NA,"Instruments",2,1,"right","right",0.792999983,1,1,0,1,NA,NA,NA,NA,NA,NA,NA,NA,NA,NA,NA,NA,NA,NA,NA,NA,NA,NA,NA,NA,NA,NA,NA,NA
"39","stim/objects/HouseObjects/basket.png",57,60,57,0.5,"stim/14.jpeg",1,4,1,NA,"HouseObjects",1,3,"left","left",0.852999926,1,1,0,1,NA,NA,NA,NA,NA,NA,NA,NA,NA,NA,NA,NA,NA,NA,NA,NA,NA,NA,NA,NA,NA,NA,NA,NA
"77","stim/objects/HouseObjects/bucket2.png",58,60,58,0.9,"stim/61.jpeg",6,1,3,NA,"HouseObjects",1,2,"left","left",0.615999937,1,1,0,1,NA,NA,NA,NA,NA,NA,NA,NA,NA,NA,NA,NA,NA,NA,NA,NA,NA,NA,NA,NA,NA,NA,NA,NA
"161","stim/objects/Instruments/bassdrum2.png",59,60,59,0.9,"stim/51.jpeg",5,1,3,NA,"Instruments",2,1,"right","",NA,0,0,0,1,NA,NA,NA,NA,NA,NA,NA,NA,NA,NA,NA,NA,NA,NA,NA,NA,NA,NA,NA,NA,NA,NA,NA,NA
"91","stim/objects/HouseObjects/clock2.png",60,60,60,0.9,"stim/62.jpeg",6,2,3,NA,"HouseObjects",1,1,"left","left",0.557999849,1,1,0,1,NA,NA,NA,NA,NA,NA,NA,NA,NA,NA,NA,NA,NA,NA,NA,NA,NA,NA,NA,NA,NA,NA,NA,NA
"101","stim/objects/HouseObjects/clothesdryingrack2.png",61,60,61,0.9,"stim/63.jpeg",6,3,3,NA,"HouseObjects",1,4,"left","left",0.546999931,1,1,0,1,NA,NA,NA,NA,NA,NA,NA,NA,NA,NA,NA,NA,NA,NA,NA,NA,NA,NA,NA,NA,NA,NA,NA,NA
"54","stim/objects/HouseObjects/bleachbottle2.png",62,60,62,0.1,"stim/51.jpeg",5,1,3,NA,"HouseObjects",1,1,"left","right",0.57400012,0,0,0,1,NA,NA,NA,NA,NA,NA,NA,NA,NA,NA,NA,NA,NA,NA,NA,NA,NA,NA,NA,NA,NA,NA,NA,NA
"114","stim/objects/HouseObjects/clothespin2.png",63,60,63,0.9,"stim/64.jpeg",6,4,3,NA,"HouseObjects",1,1,"left","left",0.516000032,1,1,0,1,NA,NA,NA,NA,NA,NA,NA,NA,NA,NA,NA,NA,NA,NA,NA,NA,NA,NA,NA,NA,NA,NA,NA,NA
"188","stim/objects/Instruments/cello2.png",64,60,64,0.9,"stim/53.jpeg",5,3,3,NA,"Instruments",2,2,"right","right",0.547999859,1,1,0,1,NA,NA,NA,NA,NA,NA,NA,NA,NA,NA,NA,NA,NA,NA,NA,NA,NA,NA,NA,NA,NA,NA,NA,NA
"162","stim/objects/Instruments/bassdrum2.png",65,60,65,0.9,"stim/51.jpeg",5,1,3,NA,"Instruments",2,3,"right","right",0.601999998,1,1,0,1,NA,NA,NA,NA,NA,NA,NA,NA,NA,NA,NA,NA,NA,NA,NA,NA,NA,NA,NA,NA,NA,NA,NA,NA
"189","stim/objects/Instruments/cello2.png",66,60,66,0.9,"stim/53.jpeg",5,3,3,NA,"Instruments",2,2,"right","right",0.591999769,1,1,0,1,NA,NA,NA,NA,NA,NA,NA,NA,NA,NA,NA,NA,NA,NA,NA,NA,NA,NA,NA,NA,NA,NA,NA,NA
"97","stim/objects/HouseObjects/clothesdryingrack.png",67,60,67,0.3,"stim/33.jpeg",3,3,2,NA,"HouseObjects",1,1,"left","right",0.581999779,0,0,0,1,NA,NA,NA,NA,NA,NA,NA,NA,NA,NA,NA,NA,NA,NA,NA,NA,NA,NA,NA,NA,NA,NA,NA,NA
"139","stim/objects/Instruments/balalaika.png",68,60,68,0.5,"stim/13.jpeg",1,3,1,NA,"Instruments",2,2,"right","right",0.565000057,1,1,0,1,NA,NA,NA,NA,NA,NA,NA,NA,NA,NA,NA,NA,NA,NA,NA,NA,NA,NA,NA,NA,NA,NA,NA,NA
"234","stim/objects/Instruments/doublebass.png",69,60,69,0.7,"stim/34.jpeg",3,4,2,NA,"Instruments",2,3,"right","right",0.667999983,1,1,0,1,NA,NA,NA,NA,NA,NA,NA,NA,NA,NA,NA,NA,NA,NA,NA,NA,NA,NA,NA,NA,NA,NA,NA,NA
"40","stim/objects/HouseObjects/basket.png",70,60,70,0.5,"stim/14.jpeg",1,4,1,NA,"HouseObjects",1,4,"left","right",0.822999954,0,0,0,1,NA,NA,NA,NA,NA,NA,NA,NA,NA,NA,NA,NA,NA,NA,NA,NA,NA,NA,NA,NA,NA,NA,NA,NA
"163","stim/objects/Instruments/bassdrum2.png",71,60,71,0.9,"stim/51.jpeg",5,1,3,NA,"Instruments",2,1,"right","right",0.64199996,1,1,0,1,NA,NA,NA,NA,NA,NA,NA,NA,NA,NA,NA,NA,NA,NA,NA,NA,NA,NA,NA,NA,NA,NA,NA,NA
"219","stim/objects/Instruments/cornet.png",72,60,72,0.7,"stim/32.jpeg",3,2,2,NA,"Instruments",2,1,"right","right",0.629999876,1,1,0,1,NA,NA,NA,NA,NA,NA,NA,NA,NA,NA,NA,NA,NA,NA,NA,NA,NA,NA,NA,NA,NA,NA,NA,NA
"122","stim/objects/Instruments/accordion.png",73,60,73,0.5,"stim/11.jpeg",1,1,1,NA,"Instruments",2,3,"right","right",0.811999798,1,1,0,1,NA,NA,NA,NA,NA,NA,NA,NA,NA,NA,NA,NA,NA,NA,NA,NA,NA,NA,NA,NA,NA,NA,NA,NA
"135","stim/objects/Instruments/acousticguitar2.png",74,60,74,0.3,"stim/42.jpeg",4,2,2,NA,"Instruments",2,3,"right","right",0.573999882,1,1,0,1,NA,NA,NA,NA,NA,NA,NA,NA,NA,NA,NA,NA,NA,NA,NA,NA,NA,NA,NA,NA,NA,NA,NA,NA
"190","stim/objects/Instruments/cello2.png",75,60,75,0.9,"stim/53.jpeg",5,3,3,NA,"Instruments",2,2,"right","right",0.700999975,1,1,0,1,NA,NA,NA,NA,NA,NA,NA,NA,NA,NA,NA,NA,NA,NA,NA,NA,NA,NA,NA,NA,NA,NA,NA,NA
"102","stim/objects/HouseObjects/clothesdryingrack2.png",76,60,76,0.9,"stim/63.jpeg",6,3,3,NA,"HouseObjects",1,3,"left","left",0.607000113,1,1,0,1,NA,NA,NA,NA,NA,NA,NA,NA,NA,NA,NA,NA,NA,NA,NA,NA,NA,NA,NA,NA,NA,NA,NA,NA
"68","stim/objects/HouseObjects/broom.png",77,60,77,0.5,"stim/24.jpeg",2,4,1,NA,"HouseObjects",1,3,"left","right",0.697000027,0,0,0,1,NA,NA,NA,NA,NA,NA,NA,NA,NA,NA,NA,NA,NA,NA,NA,NA,NA,NA,NA,NA,NA,NA,NA,NA
"64","stim/objects/HouseObjects/bottle.png",78,60,78,0.5,"stim/23.jpeg",2,3,1,NA,"HouseObjects",1,1,"left","left",0.650999784,1,1,0,1,NA,NA,NA,NA,NA,NA,NA,NA,NA,NA,NA,NA,NA,NA,NA,NA,NA,NA,NA,NA,NA,NA,NA,NA
"78","stim/objects/HouseObjects/bucket2.png",79,60,79,0.9,"stim/61.jpeg",6,1,3,NA,"HouseObjects",1,2,"left","left",0.606999874,1,1,0,1,NA,NA,NA,NA,NA,NA,NA,NA,NA,NA,NA,NA,NA,NA,NA,NA,NA,NA,NA,NA,NA,NA,NA,NA
"235","stim/objects/Instruments/doublebass.png",80,60,80,0.7,"stim/34.jpeg",3,4,2,NA,"Instruments",2,4,"right","right",0.572999954,1,1,0,1,NA,NA,NA,NA,NA,NA,NA,NA,NA,NA,NA,NA,NA,NA,NA,NA,NA,NA,NA,NA,NA,NA,NA,NA
"33","stim/objects/HouseObjects/barbecuelighter2.png",81,60,81,0.7,"stim/43.jpeg",4,3,2,NA,"HouseObjects",1,4,"left","left",0.718999863,1,1,0,1,NA,NA,NA,NA,NA,NA,NA,NA,NA,NA,NA,NA,NA,NA,NA,NA,NA,NA,NA,NA,NA,NA,NA,NA
"1","stim/objects/HouseObjects/ashtray.png",82,60,82,0.5,"stim/11.jpeg",1,1,1,NA,"HouseObjects",1,2,"left","right",0.676000118,0,0,0,1,NA,NA,NA,NA,NA,NA,NA,NA,NA,NA,NA,NA,NA,NA,NA,NA,NA,NA,NA,NA,NA,NA,NA,NA
"183","stim/objects/Instruments/cello.png",83,60,83,0.5,"stim/23.jpeg",2,3,1,NA,"Instruments",2,2,"right","left",0.699999809,0,0,0,1,NA,NA,NA,NA,NA,NA,NA,NA,NA,NA,NA,NA,NA,NA,NA,NA,NA,NA,NA,NA,NA,NA,NA,NA
"226","stim/objects/Instruments/cymbal.png",84,60,84,0.7,"stim/33.jpeg",3,3,2,NA,"Instruments",2,1,"right","",NA,0,0,0,1,NA,NA,NA,NA,NA,NA,NA,NA,NA,NA,NA,NA,NA,NA,NA,NA,NA,NA,NA,NA,NA,NA,NA,NA
"79","stim/objects/HouseObjects/bucket2.png",85,60,85,0.9,"stim/61.jpeg",6,1,3,NA,"HouseObjects",1,4,"left","left",0.654000044,1,1,0,1,NA,NA,NA,NA,NA,NA,NA,NA,NA,NA,NA,NA,NA,NA,NA,NA,NA,NA,NA,NA,NA,NA,NA,NA
"216","stim/objects/Instruments/clarinet2.png",86,60,86,0.1,"stim/61.jpeg",6,1,3,NA,"Instruments",2,4,"right","left",0.652999878,0,0,0,1,NA,NA,NA,NA,NA,NA,NA,NA,NA,NA,NA,NA,NA,NA,NA,NA,NA,NA,NA,NA,NA,NA,NA,NA
"42","stim/objects/HouseObjects/basket2.png",87,60,87,0.7,"stim/44.jpeg",4,4,2,NA,"HouseObjects",1,3,"left","left",0.850999832,1,1,0,1,NA,NA,NA,NA,NA,NA,NA,NA,NA,NA,NA,NA,NA,NA,NA,NA,NA,NA,NA,NA,NA,NA,NA,NA
"232","stim/objects/Instruments/cymbal2.png",88,60,88,0.1,"stim/63.jpeg",6,3,3,NA,"Instruments",2,4,"right","left",0.660999775,0,0,0,1,NA,NA,NA,NA,NA,NA,NA,NA,NA,NA,NA,NA,NA,NA,NA,NA,NA,NA,NA,NA,NA,NA,NA,NA
"52","stim/objects/HouseObjects/bleachbottle.png",89,60,89,0.5,"stim/21.jpeg",2,1,1,NA,"HouseObjects",1,1,"left","left",0.661999941,1,1,0,1,NA,NA,NA,NA,NA,NA,NA,NA,NA,NA,NA,NA,NA,NA,NA,NA,NA,NA,NA,NA,NA,NA,NA,NA
"80","stim/objects/HouseObjects/bucket2.png",90,60,90,0.9,"stim/61.jpeg",6,1,3,NA,"HouseObjects",1,3,"left","left",0.572999954,1,1,0,1,NA,NA,NA,NA,NA,NA,NA,NA,NA,NA,NA,NA,NA,NA,NA,NA,NA,NA,NA,NA,NA,NA,NA,NA
"201","stim/objects/Instruments/chime2.png",91,60,91,0.9,"stim/54.jpeg",5,4,3,NA,"Instruments",2,4,"right","right",0.588999987,1,1,0,1,NA,NA,NA,NA,NA,NA,NA,NA,NA,NA,NA,NA,NA,NA,NA,NA,NA,NA,NA,NA,NA,NA,NA,NA
"115","stim/objects/HouseObjects/clothespin2.png",92,60,92,0.9,"stim/64.jpeg",6,4,3,NA,"HouseObjects",1,4,"left","left",0.586999893,1,1,0,1,NA,NA,NA,NA,NA,NA,NA,NA,NA,NA,NA,NA,NA,NA,NA,NA,NA,NA,NA,NA,NA,NA,NA,NA
"147","stim/objects/Instruments/banjo.png",93,60,93,0.5,"stim/14.jpeg",1,4,1,NA,"Instruments",2,2,"right","right",0.815000057,1,1,0,1,NA,NA,NA,NA,NA,NA,NA,NA,NA,NA,NA,NA,NA,NA,NA,NA,NA,NA,NA,NA,NA,NA,NA,NA
"227","stim/objects/Instruments/cymbal.png",94,60,94,0.7,"stim/33.jpeg",3,3,2,NA,"Instruments",2,2,"right","right",0.671999931,1,1,0,1,NA,NA,NA,NA,NA,NA,NA,NA,NA,NA,NA,NA,NA,NA,NA,NA,NA,NA,NA,NA,NA,NA,NA,NA
"43","stim/objects/HouseObjects/basket2.png",95,60,95,0.7,"stim/44.jpeg",4,4,2,NA,"HouseObjects",1,3,"left","right",0.653000116,0,0,0,1,NA,NA,NA,NA,NA,NA,NA,NA,NA,NA,NA,NA,NA,NA,NA,NA,NA,NA,NA,NA,NA,NA,NA,NA
"240","stim/objects/Instruments/doublebass2.png",96,60,96,0.1,"stim/64.jpeg",6,4,3,NA,"Instruments",2,3,"right","left",0.511999846,0,0,0,1,NA,NA,NA,NA,NA,NA,NA,NA,NA,NA,NA,NA,NA,NA,NA,NA,NA,NA,NA,NA,NA,NA,NA,NA
"109","stim/objects/HouseObjects/clothespin.png",97,60,97,0.3,"stim/34.jpeg",3,4,2,NA,"HouseObjects",1,1,"left","right",0.559000015,0,0,0,1,NA,NA,NA,NA,NA,NA,NA,NA,NA,NA,NA,NA,NA,NA,NA,NA,NA,NA,NA,NA,NA,NA,NA,NA
"92","stim/objects/HouseObjects/clock2.png",98,60,98,0.9,"stim/62.jpeg",6,2,3,NA,"HouseObjects",1,4,"left","left",0.605999947,1,1,0,1,NA,NA,NA,NA,NA,NA,NA,NA,NA,NA,NA,NA,NA,NA,NA,NA,NA,NA,NA,NA,NA,NA,NA,NA
"155","stim/objects/Instruments/bassdrum.png",99,60,99,0.5,"stim/21.jpeg",2,1,1,NA,"Instruments",2,1,"right","left",0.923000097,0,0,0,1,NA,NA,NA,NA,NA,NA,NA,NA,NA,NA,NA,NA,NA,NA,NA,NA,NA,NA,NA,NA,NA,NA,NA,NA
"44","stim/objects/HouseObjects/basket2.png",100,60,100,0.7,"stim/44.jpeg",4,4,2,NA,"HouseObjects",1,1,"left","right",0.639999866,0,0,0,1,NA,NA,NA,NA,NA,NA,NA,NA,NA,NA,NA,NA,NA,NA,NA,NA,NA,NA,NA,NA,NA,NA,NA,NA
"202","stim/objects/Instruments/chime2.png",101,60,101,0.9,"stim/54.jpeg",5,4,3,NA,"Instruments",2,2,"right","right",0.623999834,1,1,0,1,NA,NA,NA,NA,NA,NA,NA,NA,NA,NA,NA,NA,NA,NA,NA,NA,NA,NA,NA,NA,NA,NA,NA,NA
"236","stim/objects/Instruments/doublebass.png",102,60,102,0.7,"stim/34.jpeg",3,4,2,NA,"Instruments",2,3,"right","",NA,0,0,0,1,NA,NA,NA,NA,NA,NA,NA,NA,NA,NA,NA,NA,NA,NA,NA,NA,NA,NA,NA,NA,NA,NA,NA,NA
"103","stim/objects/HouseObjects/clothesdryingrack2.png",103,60,103,0.9,"stim/63.jpeg",6,3,3,NA,"HouseObjects",1,2,"left","left",0.59800005,1,1,0,1,NA,NA,NA,NA,NA,NA,NA,NA,NA,NA,NA,NA,NA,NA,NA,NA,NA,NA,NA,NA,NA,NA,NA,NA
"69","stim/objects/HouseObjects/broom.png",104,60,104,0.5,"stim/24.jpeg",2,4,1,NA,"HouseObjects",1,4,"left","right",0.764999866,0,0,0,1,NA,NA,NA,NA,NA,NA,NA,NA,NA,NA,NA,NA,NA,NA,NA,NA,NA,NA,NA,NA,NA,NA,NA,NA
"142","stim/objects/Instruments/balalaika2.png",105,60,105,0.3,"stim/43.jpeg",4,3,2,NA,"Instruments",2,1,"right","right",0.696999788,1,1,0,1,NA,NA,NA,NA,NA,NA,NA,NA,NA,NA,NA,NA,NA,NA,NA,NA,NA,NA,NA,NA,NA,NA,NA,NA
"25","stim/objects/HouseObjects/barbecuelighter.png",106,60,106,0.5,"stim/13.jpeg",1,3,1,NA,"HouseObjects",1,3,"left","",NA,0,0,0,1,NA,NA,NA,NA,NA,NA,NA,NA,NA,NA,NA,NA,NA,NA,NA,NA,NA,NA,NA,NA,NA,NA,NA,NA
"123","stim/objects/Instruments/accordion.png",107,60,107,0.5,"stim/11.jpeg",1,1,1,NA,"Instruments",2,4,"right","right",0.752999783,1,1,0,1,NA,NA,NA,NA,NA,NA,NA,NA,NA,NA,NA,NA,NA,NA,NA,NA,NA,NA,NA,NA,NA,NA,NA,NA
"130","stim/objects/Instruments/acousticguitar.png",108,60,108,0.5,"stim/12.jpeg",1,2,1,NA,"Instruments",2,2,"right","right",0.561999798,1,1,0,1,NA,NA,NA,NA,NA,NA,NA,NA,NA,NA,NA,NA,NA,NA,NA,NA,NA,NA,NA,NA,NA,NA,NA,NA
"174","stim/objects/Instruments/bassguitar2.png",109,60,109,0.9,"stim/52.jpeg",5,2,3,NA,"Instruments",2,1,"right","right",0.632999897,1,1,0,1,NA,NA,NA,NA,NA,NA,NA,NA,NA,NA,NA,NA,NA,NA,NA,NA,NA,NA,NA,NA,NA,NA,NA,NA
"196","stim/objects/Instruments/chime.png",110,60,110,0.5,"stim/24.jpeg",2,4,1,NA,"Instruments",2,3,"right","left",0.56799984,0,0,0,1,NA,NA,NA,NA,NA,NA,NA,NA,NA,NA,NA,NA,NA,NA,NA,NA,NA,NA,NA,NA,NA,NA,NA,NA
"127","stim/objects/Instruments/accordion2.png",111,60,111,0.3,"stim/41.jpeg",4,1,2,NA,"Instruments",2,1,"right","right",0.578999996,1,1,0,1,NA,NA,NA,NA,NA,NA,NA,NA,NA,NA,NA,NA,NA,NA,NA,NA,NA,NA,NA,NA,NA,NA,NA,NA
"228","stim/objects/Instruments/cymbal.png",112,60,112,0.7,"stim/33.jpeg",3,3,2,NA,"Instruments",2,3,"right","right",0.696999788,1,1,0,1,NA,NA,NA,NA,NA,NA,NA,NA,NA,NA,NA,NA,NA,NA,NA,NA,NA,NA,NA,NA,NA,NA,NA,NA
"65","stim/objects/HouseObjects/bottle.png",113,60,113,0.5,"stim/23.jpeg",2,3,1,NA,"HouseObjects",1,1,"left","left",0.632999897,1,1,0,1,NA,NA,NA,NA,NA,NA,NA,NA,NA,NA,NA,NA,NA,NA,NA,NA,NA,NA,NA,NA,NA,NA,NA,NA
"203","stim/objects/Instruments/chime2.png",114,60,114,0.9,"stim/54.jpeg",5,4,3,NA,"Instruments",2,4,"right","",NA,0,0,0,1,NA,NA,NA,NA,NA,NA,NA,NA,NA,NA,NA,NA,NA,NA,NA,NA,NA,NA,NA,NA,NA,NA,NA,NA
"143","stim/objects/Instruments/balalaika2.png",115,60,115,0.3,"stim/43.jpeg",4,3,2,NA,"Instruments",2,3,"right","",NA,0,0,0,1,NA,NA,NA,NA,NA,NA,NA,NA,NA,NA,NA,NA,NA,NA,NA,NA,NA,NA,NA,NA,NA,NA,NA,NA
"2","stim/objects/HouseObjects/ashtray.png",116,60,116,0.5,"stim/11.jpeg",1,1,1,NA,"HouseObjects",1,2,"left","right",0.641000032,0,0,0,1,NA,NA,NA,NA,NA,NA,NA,NA,NA,NA,NA,NA,NA,NA,NA,NA,NA,NA,NA,NA,NA,NA,NA,NA
"175","stim/objects/Instruments/bassguitar2.png",117,60,117,0.9,"stim/52.jpeg",5,2,3,NA,"Instruments",2,4,"right","right",0.619999886,1,1,0,1,NA,NA,NA,NA,NA,NA,NA,NA,NA,NA,NA,NA,NA,NA,NA,NA,NA,NA,NA,NA,NA,NA,NA,NA
"136","stim/objects/Instruments/acousticguitar2.png",118,60,118,0.3,"stim/42.jpeg",4,2,2,NA,"Instruments",2,2,"right","left",0.687999964,0,0,0,1,NA,NA,NA,NA,NA,NA,NA,NA,NA,NA,NA,NA,NA,NA,NA,NA,NA,NA,NA,NA,NA,NA,NA,NA
"34","stim/objects/HouseObjects/barbecuelighter2.png",119,60,119,0.7,"stim/43.jpeg",4,3,2,NA,"HouseObjects",1,2,"left","left",0.802999973,1,1,0,1,NA,NA,NA,NA,NA,NA,NA,NA,NA,NA,NA,NA,NA,NA,NA,NA,NA,NA,NA,NA,NA,NA,NA,NA
"209","stim/objects/Instruments/clarinet.png",120,60,120,0.7,"stim/31.jpeg",3,1,2,NA,"Instruments",2,3,"right","right",0.566999912,1,1,0,1,NA,NA,NA,NA,NA,NA,NA,NA,NA,NA,NA,NA,NA,NA,NA,NA,NA,NA,NA,NA,NA,NA,NA,NA
"104","stim/objects/HouseObjects/clothesdryingrack2.png",121,60,121,0.9,"stim/63.jpeg",6,3,3,NA,"HouseObjects",1,2,"left","left",0.612999916,1,1,0,1,NA,NA,NA,NA,NA,NA,NA,NA,NA,NA,NA,NA,NA,NA,NA,NA,NA,NA,NA,NA,NA,NA,NA,NA
"204","stim/objects/Instruments/chime2.png",122,60,122,0.9,"stim/54.jpeg",5,4,3,NA,"Instruments",2,2,"right","right",0.674000025,1,1,0,1,NA,NA,NA,NA,NA,NA,NA,NA,NA,NA,NA,NA,NA,NA,NA,NA,NA,NA,NA,NA,NA,NA,NA,NA
"237","stim/objects/Instruments/doublebass.png",123,60,123,0.7,"stim/34.jpeg",3,4,2,NA,"Instruments",2,4,"right","right",0.607999802,1,1,0,1,NA,NA,NA,NA,NA,NA,NA,NA,NA,NA,NA,NA,NA,NA,NA,NA,NA,NA,NA,NA,NA,NA,NA,NA
"86","stim/objects/HouseObjects/clock.png",124,60,124,0.3,"stim/32.jpeg",3,2,2,NA,"HouseObjects",1,2,"left","right",0.53399992,0,0,0,1,NA,NA,NA,NA,NA,NA,NA,NA,NA,NA,NA,NA,NA,NA,NA,NA,NA,NA,NA,NA,NA,NA,NA,NA
"116","stim/objects/HouseObjects/clothespin2.png",125,60,125,0.9,"stim/64.jpeg",6,4,3,NA,"HouseObjects",1,3,"left","left",0.552999973,1,1,0,1,NA,NA,NA,NA,NA,NA,NA,NA,NA,NA,NA,NA,NA,NA,NA,NA,NA,NA,NA,NA,NA,NA,NA,NA
"56","stim/objects/HouseObjects/blender.png",126,60,126,0.5,"stim/22.jpeg",2,2,1,NA,"HouseObjects",1,2,"left","right",0.578999996,0,0,0,1,NA,NA,NA,NA,NA,NA,NA,NA,NA,NA,NA,NA,NA,NA,NA,NA,NA,NA,NA,NA,NA,NA,NA,NA
"191","stim/objects/Instruments/cello2.png",127,60,127,0.9,"stim/53.jpeg",5,3,3,NA,"Instruments",2,1,"right","right",0.542999983,1,1,0,1,NA,NA,NA,NA,NA,NA,NA,NA,NA,NA,NA,NA,NA,NA,NA,NA,NA,NA,NA,NA,NA,NA,NA,NA
"168","stim/objects/Instruments/bassguitar.png",128,60,128,0.5,"stim/22.jpeg",2,2,1,NA,"Instruments",2,1,"right","left",0.553999901,0,0,0,1,NA,NA,NA,NA,NA,NA,NA,NA,NA,NA,NA,NA,NA,NA,NA,NA,NA,NA,NA,NA,NA,NA,NA,NA
"210","stim/objects/Instruments/clarinet.png",129,60,129,0.7,"stim/31.jpeg",3,1,2,NA,"Instruments",2,4,"right","right",0.555999994,1,1,0,1,NA,NA,NA,NA,NA,NA,NA,NA,NA,NA,NA,NA,NA,NA,NA,NA,NA,NA,NA,NA,NA,NA,NA,NA
"205","stim/objects/Instruments/chime2.png",130,60,130,0.9,"stim/54.jpeg",5,4,3,NA,"Instruments",2,3,"right","right",0.470999956,1,1,0,1,NA,NA,NA,NA,NA,NA,NA,NA,NA,NA,NA,NA,NA,NA,NA,NA,NA,NA,NA,NA,NA,NA,NA,NA
"20","stim/objects/HouseObjects/ballofstring2.png",131,60,131,0.7,"stim/42.jpeg",4,2,2,NA,"HouseObjects",1,2,"left","right",0.672999859,0,0,0,1,NA,NA,NA,NA,NA,NA,NA,NA,NA,NA,NA,NA,NA,NA,NA,NA,NA,NA,NA,NA,NA,NA,NA,NA
"110","stim/objects/HouseObjects/clothespin.png",132,60,132,0.3,"stim/34.jpeg",3,4,2,NA,"HouseObjects",1,4,"left","right",0.50999999,0,0,0,1,NA,NA,NA,NA,NA,NA,NA,NA,NA,NA,NA,NA,NA,NA,NA,NA,NA,NA,NA,NA,NA,NA,NA,NA
"220","stim/objects/Instruments/cornet.png",133,60,133,0.7,"stim/32.jpeg",3,2,2,NA,"Instruments",2,2,"right","right",0.728999853,1,1,0,1,NA,NA,NA,NA,NA,NA,NA,NA,NA,NA,NA,NA,NA,NA,NA,NA,NA,NA,NA,NA,NA,NA,NA,NA
"9","stim/objects/HouseObjects/ashtray2.png",134,60,134,0.7,"stim/41.jpeg",4,1,2,NA,"HouseObjects",1,2,"left","",NA,0,0,0,1,NA,NA,NA,NA,NA,NA,NA,NA,NA,NA,NA,NA,NA,NA,NA,NA,NA,NA,NA,NA,NA,NA,NA,NA
"206","stim/objects/Instruments/chime2.png",135,60,135,0.9,"stim/54.jpeg",5,4,3,NA,"Instruments",2,2,"right","left",0.627000093,0,0,0,1,NA,NA,NA,NA,NA,NA,NA,NA,NA,NA,NA,NA,NA,NA,NA,NA,NA,NA,NA,NA,NA,NA,NA,NA
"197","stim/objects/Instruments/chime.png",136,60,136,0.5,"stim/24.jpeg",2,4,1,NA,"Instruments",2,4,"right","left",0.621999979,0,0,0,1,NA,NA,NA,NA,NA,NA,NA,NA,NA,NA,NA,NA,NA,NA,NA,NA,NA,NA,NA,NA,NA,NA,NA,NA
"57","stim/objects/HouseObjects/blender.png",137,60,137,0.5,"stim/22.jpeg",2,2,1,NA,"HouseObjects",1,3,"left","right",0.884999752,0,0,0,1,NA,NA,NA,NA,NA,NA,NA,NA,NA,NA,NA,NA,NA,NA,NA,NA,NA,NA,NA,NA,NA,NA,NA,NA
"117","stim/objects/HouseObjects/clothespin2.png",138,60,138,0.9,"stim/64.jpeg",6,4,3,NA,"HouseObjects",1,3,"left","left",0.620000124,1,1,0,1,NA,NA,NA,NA,NA,NA,NA,NA,NA,NA,NA,NA,NA,NA,NA,NA,NA,NA,NA,NA,NA,NA,NA,NA
"74","stim/objects/HouseObjects/bucket.png",139,60,139,0.3,"stim/31.jpeg",3,1,2,NA,"HouseObjects",1,2,"left","right",0.556999922,0,0,0,1,NA,NA,NA,NA,NA,NA,NA,NA,NA,NA,NA,NA,NA,NA,NA,NA,NA,NA,NA,NA,NA,NA,NA,NA
"131","stim/objects/Instruments/acousticguitar.png",140,60,140,0.5,"stim/12.jpeg",1,2,1,NA,"Instruments",2,3,"right","right",0.664000034,1,1,0,1,NA,NA,NA,NA,NA,NA,NA,NA,NA,NA,NA,NA,NA,NA,NA,NA,NA,NA,NA,NA,NA,NA,NA,NA
"105","stim/objects/HouseObjects/clothesdryingrack2.png",141,60,141,0.9,"stim/63.jpeg",6,3,3,NA,"HouseObjects",1,4,"left","left",0.662999868,1,1,0,1,NA,NA,NA,NA,NA,NA,NA,NA,NA,NA,NA,NA,NA,NA,NA,NA,NA,NA,NA,NA,NA,NA,NA,NA
"16","stim/objects/HouseObjects/ballofstring.png",142,60,142,0.5,"stim/12.jpeg",1,2,1,NA,"HouseObjects",1,2,"left","right",0.401000023,0,0,0,1,NA,NA,NA,NA,NA,NA,NA,NA,NA,NA,NA,NA,NA,NA,NA,NA,NA,NA,NA,NA,NA,NA,NA,NA
"224","stim/objects/Instruments/cornet2.png",143,60,143,0.1,"stim/62.jpeg",6,2,3,NA,"Instruments",2,1,"right","left",0.572000027,0,0,0,1,NA,NA,NA,NA,NA,NA,NA,NA,NA,NA,NA,NA,NA,NA,NA,NA,NA,NA,NA,NA,NA,NA,NA,NA
"192","stim/objects/Instruments/cello2.png",144,60,144,0.9,"stim/53.jpeg",5,3,3,NA,"Instruments",2,1,"right","right",0.493999958,1,1,0,1,NA,NA,NA,NA,NA,NA,NA,NA,NA,NA,NA,NA,NA,NA,NA,NA,NA,NA,NA,NA,NA,NA,NA,NA
"98","stim/objects/HouseObjects/clothesdryingrack.png",145,60,145,0.3,"stim/33.jpeg",3,3,2,NA,"HouseObjects",1,3,"left","right",0.628000021,0,0,0,1,NA,NA,NA,NA,NA,NA,NA,NA,NA,NA,NA,NA,NA,NA,NA,NA,NA,NA,NA,NA,NA,NA,NA,NA
"176","stim/objects/Instruments/bassguitar2.png",146,60,146,0.9,"stim/52.jpeg",5,2,3,NA,"Instruments",2,3,"right","left",0.596999884,0,0,0,1,NA,NA,NA,NA,NA,NA,NA,NA,NA,NA,NA,NA,NA,NA,NA,NA,NA,NA,NA,NA,NA,NA,NA,NA
"128","stim/objects/Instruments/accordion2.png",147,60,147,0.3,"stim/41.jpeg",4,1,2,NA,"Instruments",2,3,"right","left",0.678999901,0,0,0,1,NA,NA,NA,NA,NA,NA,NA,NA,NA,NA,NA,NA,NA,NA,NA,NA,NA,NA,NA,NA,NA,NA,NA,NA
"177","stim/objects/Instruments/bassguitar2.png",148,60,148,0.9,"stim/52.jpeg",5,2,3,NA,"Instruments",2,3,"right","right",0.585999727,1,1,0,1,NA,NA,NA,NA,NA,NA,NA,NA,NA,NA,NA,NA,NA,NA,NA,NA,NA,NA,NA,NA,NA,NA,NA,NA
"150","stim/objects/Instruments/banjo2.png",149,60,149,0.3,"stim/44.jpeg",4,4,2,NA,"Instruments",2,1,"right","left",0.869999886,0,0,0,1,NA,NA,NA,NA,NA,NA,NA,NA,NA,NA,NA,NA,NA,NA,NA,NA,NA,NA,NA,NA,NA,NA,NA,NA
"144","stim/objects/Instruments/balalaika2.png",150,60,150,0.3,"stim/43.jpeg",4,3,2,NA,"Instruments",2,2,"right","",NA,0,0,0,1,NA,NA,NA,NA,NA,NA,NA,NA,NA,NA,NA,NA,NA,NA,NA,NA,NA,NA,NA,NA,NA,NA,NA,NA
"66","stim/objects/HouseObjects/bottle2.png",151,60,151,0.1,"stim/53.jpeg",5,3,3,NA,"HouseObjects",1,2,"left","right",0.592999935,0,0,0,1,NA,NA,NA,NA,NA,NA,NA,NA,NA,NA,NA,NA,NA,NA,NA,NA,NA,NA,NA,NA,NA,NA,NA,NA
"140","stim/objects/Instruments/balalaika.png",152,60,152,0.5,"stim/13.jpeg",1,3,1,NA,"Instruments",2,2,"right","right",0.470999956,1,1,0,1,NA,NA,NA,NA,NA,NA,NA,NA,NA,NA,NA,NA,NA,NA,NA,NA,NA,NA,NA,NA,NA,NA,NA,NA
"26","stim/objects/HouseObjects/barbecuelighter.png",153,60,153,0.5,"stim/13.jpeg",1,3,1,NA,"HouseObjects",1,1,"left","right",0.667999983,0,0,0,1,NA,NA,NA,NA,NA,NA,NA,NA,NA,NA,NA,NA,NA,NA,NA,NA,NA,NA,NA,NA,NA,NA,NA,NA
"207","stim/objects/Instruments/chime2.png",154,60,154,0.9,"stim/54.jpeg",5,4,3,NA,"Instruments",2,1,"right","left",0.680999756,0,0,0,1,NA,NA,NA,NA,NA,NA,NA,NA,NA,NA,NA,NA,NA,NA,NA,NA,NA,NA,NA,NA,NA,NA,NA,NA
"106","stim/objects/HouseObjects/clothesdryingrack2.png",155,60,155,0.9,"stim/63.jpeg",6,3,3,NA,"HouseObjects",1,1,"left","left",0.605999947,1,1,0,1,NA,NA,NA,NA,NA,NA,NA,NA,NA,NA,NA,NA,NA,NA,NA,NA,NA,NA,NA,NA,NA,NA,NA,NA
"164","stim/objects/Instruments/bassdrum2.png",156,60,156,0.9,"stim/51.jpeg",5,1,3,NA,"Instruments",2,1,"right","right",0.582999945,1,1,0,1,NA,NA,NA,NA,NA,NA,NA,NA,NA,NA,NA,NA,NA,NA,NA,NA,NA,NA,NA,NA,NA,NA,NA,NA
"21","stim/objects/HouseObjects/ballofstring2.png",157,60,157,0.7,"stim/42.jpeg",4,2,2,NA,"HouseObjects",1,2,"left","right",0.774999857,0,0,0,1,NA,NA,NA,NA,NA,NA,NA,NA,NA,NA,NA,NA,NA,NA,NA,NA,NA,NA,NA,NA,NA,NA,NA,NA
"27","stim/objects/HouseObjects/barbecuelighter.png",158,60,158,0.5,"stim/13.jpeg",1,3,1,NA,"HouseObjects",1,3,"left","right",0.691999912,0,0,0,1,NA,NA,NA,NA,NA,NA,NA,NA,NA,NA,NA,NA,NA,NA,NA,NA,NA,NA,NA,NA,NA,NA,NA,NA
"211","stim/objects/Instruments/clarinet.png",159,60,159,0.7,"stim/31.jpeg",3,1,2,NA,"Instruments",2,1,"right","right",0.693999767,1,1,0,1,NA,NA,NA,NA,NA,NA,NA,NA,NA,NA,NA,NA,NA,NA,NA,NA,NA,NA,NA,NA,NA,NA,NA,NA
"221","stim/objects/Instruments/cornet.png",160,60,160,0.7,"stim/32.jpeg",3,2,2,NA,"Instruments",2,1,"right","right",0.644999743,1,1,0,1,NA,NA,NA,NA,NA,NA,NA,NA,NA,NA,NA,NA,NA,NA,NA,NA,NA,NA,NA,NA,NA,NA,NA,NA
"222","stim/objects/Instruments/cornet.png",161,60,161,0.7,"stim/32.jpeg",3,2,2,NA,"Instruments",2,3,"right","right",0.549000025,1,1,0,1,NA,NA,NA,NA,NA,NA,NA,NA,NA,NA,NA,NA,NA,NA,NA,NA,NA,NA,NA,NA,NA,NA,NA,NA
"22","stim/objects/HouseObjects/ballofstring2.png",162,60,162,0.7,"stim/42.jpeg",4,2,2,NA,"HouseObjects",1,4,"left","",NA,0,0,0,1,NA,NA,NA,NA,NA,NA,NA,NA,NA,NA,NA,NA,NA,NA,NA,NA,NA,NA,NA,NA,NA,NA,NA,NA
"124","stim/objects/Instruments/accordion.png",163,60,163,0.5,"stim/11.jpeg",1,1,1,NA,"Instruments",2,3,"right","left",0.60800004,0,0,0,1,NA,NA,NA,NA,NA,NA,NA,NA,NA,NA,NA,NA,NA,NA,NA,NA,NA,NA,NA,NA,NA,NA,NA,NA
"87","stim/objects/HouseObjects/clock.png",164,60,164,0.3,"stim/32.jpeg",3,2,2,NA,"HouseObjects",1,3,"left","right",0.564999819,0,0,0,1,NA,NA,NA,NA,NA,NA,NA,NA,NA,NA,NA,NA,NA,NA,NA,NA,NA,NA,NA,NA,NA,NA,NA,NA
"23","stim/objects/HouseObjects/ballofstring2.png",165,60,165,0.7,"stim/42.jpeg",4,2,2,NA,"HouseObjects",1,2,"left","right",0.631999969,0,0,0,1,NA,NA,NA,NA,NA,NA,NA,NA,NA,NA,NA,NA,NA,NA,NA,NA,NA,NA,NA,NA,NA,NA,NA,NA
"28","stim/objects/HouseObjects/barbecuelighter.png",166,60,166,0.5,"stim/13.jpeg",1,3,1,NA,"HouseObjects",1,1,"left","right",0.631000042,0,0,0,1,NA,NA,NA,NA,NA,NA,NA,NA,NA,NA,NA,NA,NA,NA,NA,NA,NA,NA,NA,NA,NA,NA,NA,NA
"141","stim/objects/Instruments/balalaika.png",167,60,167,0.5,"stim/13.jpeg",1,3,1,NA,"Instruments",2,4,"right","left",0.780999899,0,0,0,1,NA,NA,NA,NA,NA,NA,NA,NA,NA,NA,NA,NA,NA,NA,NA,NA,NA,NA,NA,NA,NA,NA,NA,NA
"208","stim/objects/Instruments/chime2.png",168,60,168,0.9,"stim/54.jpeg",5,4,3,NA,"Instruments",2,4,"right","right",0.545000076,1,1,0,1,NA,NA,NA,NA,NA,NA,NA,NA,NA,NA,NA,NA,NA,NA,NA,NA,NA,NA,NA,NA,NA,NA,NA,NA
"41","stim/objects/HouseObjects/basket.png",169,60,169,0.5,"stim/14.jpeg",1,4,1,NA,"HouseObjects",1,3,"left","left",0.769000053,1,1,0,1,NA,NA,NA,NA,NA,NA,NA,NA,NA,NA,NA,NA,NA,NA,NA,NA,NA,NA,NA,NA,NA,NA,NA,NA
"45","stim/objects/HouseObjects/basket2.png",170,60,170,0.7,"stim/44.jpeg",4,4,2,NA,"HouseObjects",1,3,"left","right",0.717000008,0,0,0,1,NA,NA,NA,NA,NA,NA,NA,NA,NA,NA,NA,NA,NA,NA,NA,NA,NA,NA,NA,NA,NA,NA,NA,NA
"212","stim/objects/Instruments/clarinet.png",171,60,171,0.7,"stim/31.jpeg",3,1,2,NA,"Instruments",2,3,"right","right",0.529999971,1,1,0,1,NA,NA,NA,NA,NA,NA,NA,NA,NA,NA,NA,NA,NA,NA,NA,NA,NA,NA,NA,NA,NA,NA,NA,NA
"223","stim/objects/Instruments/cornet.png",172,60,172,0.7,"stim/32.jpeg",3,2,2,NA,"Instruments",2,4,"right","right",0.512999773,1,1,0,1,NA,NA,NA,NA,NA,NA,NA,NA,NA,NA,NA,NA,NA,NA,NA,NA,NA,NA,NA,NA,NA,NA,NA,NA
"93","stim/objects/HouseObjects/clock2.png",173,60,173,0.9,"stim/62.jpeg",6,2,3,NA,"HouseObjects",1,3,"left","left",0.638999939,1,1,0,1,NA,NA,NA,NA,NA,NA,NA,NA,NA,NA,NA,NA,NA,NA,NA,NA,NA,NA,NA,NA,NA,NA,NA,NA
"3","stim/objects/HouseObjects/ashtray.png",174,60,174,0.5,"stim/11.jpeg",1,1,1,NA,"HouseObjects",1,4,"left","right",0.507999897,0,0,0,1,NA,NA,NA,NA,NA,NA,NA,NA,NA,NA,NA,NA,NA,NA,NA,NA,NA,NA,NA,NA,NA,NA,NA,NA
"229","stim/objects/Instruments/cymbal.png",175,60,175,0.7,"stim/33.jpeg",3,3,2,NA,"Instruments",2,2,"right","left",0.449999809,0,0,0,1,NA,NA,NA,NA,NA,NA,NA,NA,NA,NA,NA,NA,NA,NA,NA,NA,NA,NA,NA,NA,NA,NA,NA,NA
"213","stim/objects/Instruments/clarinet.png",176,60,176,0.7,"stim/31.jpeg",3,1,2,NA,"Instruments",2,1,"right","right",0.493000031,1,1,0,1,NA,NA,NA,NA,NA,NA,NA,NA,NA,NA,NA,NA,NA,NA,NA,NA,NA,NA,NA,NA,NA,NA,NA,NA
"60","stim/objects/HouseObjects/blender2.png",177,60,177,0.1,"stim/52.jpeg",5,2,3,NA,"HouseObjects",1,3,"left","right",0.812000036,0,0,0,1,NA,NA,NA,NA,NA,NA,NA,NA,NA,NA,NA,NA,NA,NA,NA,NA,NA,NA,NA,NA,NA,NA,NA,NA
"169","stim/objects/Instruments/bassguitar.png",178,60,178,0.5,"stim/22.jpeg",2,2,1,NA,"Instruments",2,1,"right","right",0.648000002,1,1,0,1,NA,NA,NA,NA,NA,NA,NA,NA,NA,NA,NA,NA,NA,NA,NA,NA,NA,NA,NA,NA,NA,NA,NA,NA
"17","stim/objects/HouseObjects/ballofstring.png",179,60,179,0.5,"stim/12.jpeg",1,2,1,NA,"HouseObjects",1,4,"left","right",0.683000088,0,0,0,1,NA,NA,NA,NA,NA,NA,NA,NA,NA,NA,NA,NA,NA,NA,NA,NA,NA,NA,NA,NA,NA,NA,NA,NA
"151","stim/objects/Instruments/banjo2.png",180,60,180,0.3,"stim/44.jpeg",4,4,2,NA,"Instruments",2,4,"right","right",0.511999846,1,1,0,1,NA,NA,NA,NA,NA,NA,NA,NA,NA,NA,NA,NA,NA,NA,NA,NA,NA,NA,NA,NA,NA,NA,NA,NA
"178","stim/objects/Instruments/bassguitar2.png",181,60,181,0.9,"stim/52.jpeg",5,2,3,NA,"Instruments",2,2,"right","right",0.530999899,1,1,0,1,NA,NA,NA,NA,NA,NA,NA,NA,NA,NA,NA,NA,NA,NA,NA,NA,NA,NA,NA,NA,NA,NA,NA,NA
"46","stim/objects/HouseObjects/basket2.png",182,60,182,0.7,"stim/44.jpeg",4,4,2,NA,"HouseObjects",1,2,"left","right",0.648000002,0,0,0,1,NA,NA,NA,NA,NA,NA,NA,NA,NA,NA,NA,NA,NA,NA,NA,NA,NA,NA,NA,NA,NA,NA,NA,NA
"10","stim/objects/HouseObjects/ashtray2.png",183,60,183,0.7,"stim/41.jpeg",4,1,2,NA,"HouseObjects",1,2,"left","right",0.878000021,0,0,0,1,NA,NA,NA,NA,NA,NA,NA,NA,NA,NA,NA,NA,NA,NA,NA,NA,NA,NA,NA,NA,NA,NA,NA,NA
"94","stim/objects/HouseObjects/clock2.png",184,60,184,0.9,"stim/62.jpeg",6,2,3,NA,"HouseObjects",1,3,"left","left",0.613999844,1,1,0,1,NA,NA,NA,NA,NA,NA,NA,NA,NA,NA,NA,NA,NA,NA,NA,NA,NA,NA,NA,NA,NA,NA,NA,NA
"156","stim/objects/Instruments/bassdrum.png",185,60,185,0.5,"stim/21.jpeg",2,1,1,NA,"Instruments",2,4,"right","left",0.645999908,0,0,0,1,NA,NA,NA,NA,NA,NA,NA,NA,NA,NA,NA,NA,NA,NA,NA,NA,NA,NA,NA,NA,NA,NA,NA,NA
"99","stim/objects/HouseObjects/clothesdryingrack.png",186,60,186,0.3,"stim/33.jpeg",3,3,2,NA,"HouseObjects",1,4,"left","right",0.529999971,0,0,0,1,NA,NA,NA,NA,NA,NA,NA,NA,NA,NA,NA,NA,NA,NA,NA,NA,NA,NA,NA,NA,NA,NA,NA,NA
"125","stim/objects/Instruments/accordion.png",187,60,187,0.5,"stim/11.jpeg",1,1,1,NA,"Instruments",2,2,"right","right",0.581999779,1,1,0,1,NA,NA,NA,NA,NA,NA,NA,NA,NA,NA,NA,NA,NA,NA,NA,NA,NA,NA,NA,NA,NA,NA,NA,NA
"81","stim/objects/HouseObjects/bucket2.png",188,60,188,0.9,"stim/61.jpeg",6,1,3,NA,"HouseObjects",1,1,"left","left",0.616999865,1,1,0,1,NA,NA,NA,NA,NA,NA,NA,NA,NA,NA,NA,NA,NA,NA,NA,NA,NA,NA,NA,NA,NA,NA,NA,NA
"148","stim/objects/Instruments/banjo.png",189,60,189,0.5,"stim/14.jpeg",1,4,1,NA,"Instruments",2,3,"right","right",0.621999979,1,1,0,1,NA,NA,NA,NA,NA,NA,NA,NA,NA,NA,NA,NA,NA,NA,NA,NA,NA,NA,NA,NA,NA,NA,NA,NA
"214","stim/objects/Instruments/clarinet.png",190,60,190,0.7,"stim/31.jpeg",3,1,2,NA,"Instruments",2,4,"right","right",0.612999916,1,1,0,1,NA,NA,NA,NA,NA,NA,NA,NA,NA,NA,NA,NA,NA,NA,NA,NA,NA,NA,NA,NA,NA,NA,NA,NA
"107","stim/objects/HouseObjects/clothesdryingrack2.png",191,60,191,0.9,"stim/63.jpeg",6,3,3,NA,"HouseObjects",1,4,"left","left",0.67599988,1,1,0,1,NA,NA,NA,NA,NA,NA,NA,NA,NA,NA,NA,NA,NA,NA,NA,NA,NA,NA,NA,NA,NA,NA,NA,NA
"170","stim/objects/Instruments/bassguitar.png",192,60,192,0.5,"stim/22.jpeg",2,2,1,NA,"Instruments",2,1,"right","right",0.664999723,1,1,0,1,NA,NA,NA,NA,NA,NA,NA,NA,NA,NA,NA,NA,NA,NA,NA,NA,NA,NA,NA,NA,NA,NA,NA,NA
"149","stim/objects/Instruments/banjo.png",193,60,193,0.5,"stim/14.jpeg",1,4,1,NA,"Instruments",2,1,"right","right",0.529999971,1,1,0,1,NA,NA,NA,NA,NA,NA,NA,NA,NA,NA,NA,NA,NA,NA,NA,NA,NA,NA,NA,NA,NA,NA,NA,NA
"238","stim/objects/Instruments/doublebass.png",194,60,194,0.7,"stim/34.jpeg",3,4,2,NA,"Instruments",2,3,"right","right",0.580999851,1,1,0,1,NA,NA,NA,NA,NA,NA,NA,NA,NA,NA,NA,NA,NA,NA,NA,NA,NA,NA,NA,NA,NA,NA,NA,NA
"82","stim/objects/HouseObjects/bucket2.png",195,60,195,0.9,"stim/61.jpeg",6,1,3,NA,"HouseObjects",1,3,"left","left",0.633000135,1,1,0,1,NA,NA,NA,NA,NA,NA,NA,NA,NA,NA,NA,NA,NA,NA,NA,NA,NA,NA,NA,NA,NA,NA,NA,NA
"4","stim/objects/HouseObjects/ashtray.png",196,60,196,0.5,"stim/11.jpeg",1,1,1,NA,"HouseObjects",1,4,"left","right",0.553999901,0,0,0,1,NA,NA,NA,NA,NA,NA,NA,NA,NA,NA,NA,NA,NA,NA,NA,NA,NA,NA,NA,NA,NA,NA,NA,NA
"193","stim/objects/Instruments/cello2.png",197,60,197,0.9,"stim/53.jpeg",5,3,3,NA,"Instruments",2,4,"right","right",0.628999949,1,1,0,1,NA,NA,NA,NA,NA,NA,NA,NA,NA,NA,NA,NA,NA,NA,NA,NA,NA,NA,NA,NA,NA,NA,NA,NA
"58","stim/objects/HouseObjects/blender.png",198,60,198,0.5,"stim/22.jpeg",2,2,1,NA,"HouseObjects",1,2,"left","right",0.516000032,0,0,0,1,NA,NA,NA,NA,NA,NA,NA,NA,NA,NA,NA,NA,NA,NA,NA,NA,NA,NA,NA,NA,NA,NA,NA,NA
"198","stim/objects/Instruments/chime.png",199,60,199,0.5,"stim/24.jpeg",2,4,1,NA,"Instruments",2,1,"right","right",0.584000111,1,1,0,1,NA,NA,NA,NA,NA,NA,NA,NA,NA,NA,NA,NA,NA,NA,NA,NA,NA,NA,NA,NA,NA,NA,NA,NA
"152","stim/objects/Instruments/banjo2.png",200,60,200,0.3,"stim/44.jpeg",4,4,2,NA,"Instruments",2,3,"right","right",0.842999935,1,1,0,1,NA,NA,NA,NA,NA,NA,NA,NA,NA,NA,NA,NA,NA,NA,NA,NA,NA,NA,NA,NA,NA,NA,NA,NA
"199","stim/objects/Instruments/chime.png",201,60,201,0.5,"stim/24.jpeg",2,4,1,NA,"Instruments",2,1,"right","right",0.72300005,1,1,0,1,NA,NA,NA,NA,NA,NA,NA,NA,NA,NA,NA,NA,NA,NA,NA,NA,NA,NA,NA,NA,NA,NA,NA,NA
"165","stim/objects/Instruments/bassdrum2.png",202,60,202,0.9,"stim/51.jpeg",5,1,3,NA,"Instruments",2,3,"right","right",0.580999851,1,1,0,1,NA,NA,NA,NA,NA,NA,NA,NA,NA,NA,NA,NA,NA,NA,NA,NA,NA,NA,NA,NA,NA,NA,NA,NA
"59","stim/objects/HouseObjects/blender.png",203,60,203,0.5,"stim/22.jpeg",2,2,1,NA,"HouseObjects",1,4,"left","right",0.964999914,0,0,0,1,NA,NA,NA,NA,NA,NA,NA,NA,NA,NA,NA,NA,NA,NA,NA,NA,NA,NA,NA,NA,NA,NA,NA,NA
"184","stim/objects/Instruments/cello.png",204,60,204,0.5,"stim/23.jpeg",2,3,1,NA,"Instruments",2,3,"right","left",0.583999872,0,0,0,1,NA,NA,NA,NA,NA,NA,NA,NA,NA,NA,NA,NA,NA,NA,NA,NA,NA,NA,NA,NA,NA,NA,NA,NA
"95","stim/objects/HouseObjects/clock2.png",205,60,205,0.9,"stim/62.jpeg",6,2,3,NA,"HouseObjects",1,4,"left","left",0.671999931,1,1,0,1,NA,NA,NA,NA,NA,NA,NA,NA,NA,NA,NA,NA,NA,NA,NA,NA,NA,NA,NA,NA,NA,NA,NA,NA
"179","stim/objects/Instruments/bassguitar2.png",206,60,206,0.9,"stim/52.jpeg",5,2,3,NA,"Instruments",2,3,"right","right",0.721999884,1,1,0,1,NA,NA,NA,NA,NA,NA,NA,NA,NA,NA,NA,NA,NA,NA,NA,NA,NA,NA,NA,NA,NA,NA,NA,NA
"70","stim/objects/HouseObjects/broom.png",207,60,207,0.5,"stim/24.jpeg",2,4,1,NA,"HouseObjects",1,4,"left","right",0.619999886,0,0,0,1,NA,NA,NA,NA,NA,NA,NA,NA,NA,NA,NA,NA,NA,NA,NA,NA,NA,NA,NA,NA,NA,NA,NA,NA
"29","stim/objects/HouseObjects/barbecuelighter.png",208,60,208,0.5,"stim/13.jpeg",1,3,1,NA,"HouseObjects",1,4,"left","right",0.573999882,0,0,0,1,NA,NA,NA,NA,NA,NA,NA,NA,NA,NA,NA,NA,NA,NA,NA,NA,NA,NA,NA,NA,NA,NA,NA,NA
"35","stim/objects/HouseObjects/barbecuelighter2.png",209,60,209,0.7,"stim/43.jpeg",4,3,2,NA,"HouseObjects",1,1,"left","right",0.601000071,0,0,0,1,NA,NA,NA,NA,NA,NA,NA,NA,NA,NA,NA,NA,NA,NA,NA,NA,NA,NA,NA,NA,NA,NA,NA,NA
"108","stim/objects/HouseObjects/clothesdryingrack2.png",210,60,210,0.9,"stim/63.jpeg",6,3,3,NA,"HouseObjects",1,2,"left","left",0.588999987,1,1,0,1,NA,NA,NA,NA,NA,NA,NA,NA,NA,NA,NA,NA,NA,NA,NA,NA,NA,NA,NA,NA,NA,NA,NA,NA
"157","stim/objects/Instruments/bassdrum.png",211,60,211,0.5,"stim/21.jpeg",2,1,1,NA,"Instruments",2,2,"right","left",0.735999823,0,0,0,1,NA,NA,NA,NA,NA,NA,NA,NA,NA,NA,NA,NA,NA,NA,NA,NA,NA,NA,NA,NA,NA,NA,NA,NA
"171","stim/objects/Instruments/bassguitar.png",212,60,212,0.5,"stim/22.jpeg",2,2,1,NA,"Instruments",2,1,"right","left",0.507999897,0,0,0,1,NA,NA,NA,NA,NA,NA,NA,NA,NA,NA,NA,NA,NA,NA,NA,NA,NA,NA,NA,NA,NA,NA,NA,NA
"24","stim/objects/HouseObjects/ballofstring2.png",213,60,213,0.7,"stim/42.jpeg",4,2,2,NA,"HouseObjects",1,3,"left","right",0.419999838,0,0,0,1,NA,NA,NA,NA,NA,NA,NA,NA,NA,NA,NA,NA,NA,NA,NA,NA,NA,NA,NA,NA,NA,NA,NA,NA
"215","stim/objects/Instruments/clarinet.png",214,60,214,0.7,"stim/31.jpeg",3,1,2,NA,"Instruments",2,1,"right","right",0.65899992,1,1,0,1,NA,NA,NA,NA,NA,NA,NA,NA,NA,NA,NA,NA,NA,NA,NA,NA,NA,NA,NA,NA,NA,NA,NA,NA
"47","stim/objects/HouseObjects/basket2.png",215,60,215,0.7,"stim/44.jpeg",4,4,2,NA,"HouseObjects",1,1,"left","right",0.671999931,0,0,0,1,NA,NA,NA,NA,NA,NA,NA,NA,NA,NA,NA,NA,NA,NA,NA,NA,NA,NA,NA,NA,NA,NA,NA,NA
"166","stim/objects/Instruments/bassdrum2.png",216,60,216,0.9,"stim/51.jpeg",5,1,3,NA,"Instruments",2,4,"right","right",0.529999971,1,1,0,1,NA,NA,NA,NA,NA,NA,NA,NA,NA,NA,NA,NA,NA,NA,NA,NA,NA,NA,NA,NA,NA,NA,NA,NA
"132","stim/objects/Instruments/acousticguitar.png",217,60,217,0.5,"stim/12.jpeg",1,2,1,NA,"Instruments",2,4,"right","right",0.542000055,1,1,0,1,NA,NA,NA,NA,NA,NA,NA,NA,NA,NA,NA,NA,NA,NA,NA,NA,NA,NA,NA,NA,NA,NA,NA,NA
"194","stim/objects/Instruments/cello2.png",218,60,218,0.9,"stim/53.jpeg",5,3,3,NA,"Instruments",2,3,"right","right",0.73300004,1,1,0,1,NA,NA,NA,NA,NA,NA,NA,NA,NA,NA,NA,NA,NA,NA,NA,NA,NA,NA,NA,NA,NA,NA,NA,NA
"5","stim/objects/HouseObjects/ashtray.png",219,60,219,0.5,"stim/11.jpeg",1,1,1,NA,"HouseObjects",1,2,"left","right",0.489000082,0,0,0,1,NA,NA,NA,NA,NA,NA,NA,NA,NA,NA,NA,NA,NA,NA,NA,NA,NA,NA,NA,NA,NA,NA,NA,NA
"53","stim/objects/HouseObjects/bleachbottle.png",220,60,220,0.5,"stim/21.jpeg",2,1,1,NA,"HouseObjects",1,4,"left","left",0.627000093,1,1,0,1,NA,NA,NA,NA,NA,NA,NA,NA,NA,NA,NA,NA,NA,NA,NA,NA,NA,NA,NA,NA,NA,NA,NA,NA
"118","stim/objects/HouseObjects/clothespin2.png",221,60,221,0.9,"stim/64.jpeg",6,4,3,NA,"HouseObjects",1,3,"left","left",0.635999918,1,1,0,1,NA,NA,NA,NA,NA,NA,NA,NA,NA,NA,NA,NA,NA,NA,NA,NA,NA,NA,NA,NA,NA,NA,NA,NA
"96","stim/objects/HouseObjects/clock2.png",222,60,222,0.9,"stim/62.jpeg",6,2,3,NA,"HouseObjects",1,4,"left","left",0.570999861,1,1,0,1,NA,NA,NA,NA,NA,NA,NA,NA,NA,NA,NA,NA,NA,NA,NA,NA,NA,NA,NA,NA,NA,NA,NA,NA
"75","stim/objects/HouseObjects/bucket.png",223,60,223,0.3,"stim/31.jpeg",3,1,2,NA,"HouseObjects",1,3,"left","right",0.661000013,0,0,0,1,NA,NA,NA,NA,NA,NA,NA,NA,NA,NA,NA,NA,NA,NA,NA,NA,NA,NA,NA,NA,NA,NA,NA,NA
"71","stim/objects/HouseObjects/broom.png",224,60,224,0.5,"stim/24.jpeg",2,4,1,NA,"HouseObjects",1,4,"left","left",0.602999926,1,1,0,1,NA,NA,NA,NA,NA,NA,NA,NA,NA,NA,NA,NA,NA,NA,NA,NA,NA,NA,NA,NA,NA,NA,NA,NA
"180","stim/objects/Instruments/bassguitar2.png",225,60,225,0.9,"stim/52.jpeg",5,2,3,NA,"Instruments",2,3,"right","right",0.681999922,1,1,0,1,NA,NA,NA,NA,NA,NA,NA,NA,NA,NA,NA,NA,NA,NA,NA,NA,NA,NA,NA,NA,NA,NA,NA,NA
"239","stim/objects/Instruments/doublebass.png",226,60,226,0.7,"stim/34.jpeg",3,4,2,NA,"Instruments",2,1,"right","right",0.553999901,1,1,0,1,NA,NA,NA,NA,NA,NA,NA,NA,NA,NA,NA,NA,NA,NA,NA,NA,NA,NA,NA,NA,NA,NA,NA,NA
"111","stim/objects/HouseObjects/clothespin.png",227,60,227,0.3,"stim/34.jpeg",3,4,2,NA,"HouseObjects",1,1,"left","right",0.473999977,0,0,0,1,NA,NA,NA,NA,NA,NA,NA,NA,NA,NA,NA,NA,NA,NA,NA,NA,NA,NA,NA,NA,NA,NA,NA,NA
"83","stim/objects/HouseObjects/bucket2.png",228,60,228,0.9,"stim/61.jpeg",6,1,3,NA,"HouseObjects",1,2,"left","left",0.607999802,1,1,0,1,NA,NA,NA,NA,NA,NA,NA,NA,NA,NA,NA,NA,NA,NA,NA,NA,NA,NA,NA,NA,NA,NA,NA,NA
"11","stim/objects/HouseObjects/ashtray2.png",229,60,229,0.7,"stim/41.jpeg",4,1,2,NA,"HouseObjects",1,2,"left","left",0.831999779,1,1,0,1,NA,NA,NA,NA,NA,NA,NA,NA,NA,NA,NA,NA,NA,NA,NA,NA,NA,NA,NA,NA,NA,NA,NA,NA
"36","stim/objects/HouseObjects/barbecuelighter2.png",230,60,230,0.7,"stim/43.jpeg",4,3,2,NA,"HouseObjects",1,2,"left","",NA,0,0,0,1,NA,NA,NA,NA,NA,NA,NA,NA,NA,NA,NA,NA,NA,NA,NA,NA,NA,NA,NA,NA,NA,NA,NA,NA
"133","stim/objects/Instruments/acousticguitar.png",231,60,231,0.5,"stim/12.jpeg",1,2,1,NA,"Instruments",2,3,"right","right",0.026000023,1,1,0,1,NA,NA,NA,NA,NA,NA,NA,NA,NA,NA,NA,NA,NA,NA,NA,NA,NA,NA,NA,NA,NA,NA,NA,NA
"185","stim/objects/Instruments/cello.png",232,60,232,0.5,"stim/23.jpeg",2,3,1,NA,"Instruments",2,4,"right","left",0.595999956,0,0,0,1,NA,NA,NA,NA,NA,NA,NA,NA,NA,NA,NA,NA,NA,NA,NA,NA,NA,NA,NA,NA,NA,NA,NA,NA
"84","stim/objects/HouseObjects/bucket2.png",233,60,233,0.9,"stim/61.jpeg",6,1,3,NA,"HouseObjects",1,2,"left","left",0.614000082,1,1,0,1,NA,NA,NA,NA,NA,NA,NA,NA,NA,NA,NA,NA,NA,NA,NA,NA,NA,NA,NA,NA,NA,NA,NA,NA
"230","stim/objects/Instruments/cymbal.png",234,60,234,0.7,"stim/33.jpeg",3,3,2,NA,"Instruments",2,3,"right","right",0.631000042,1,1,0,1,NA,NA,NA,NA,NA,NA,NA,NA,NA,NA,NA,NA,NA,NA,NA,NA,NA,NA,NA,NA,NA,NA,NA,NA
"231","stim/objects/Instruments/cymbal.png",235,60,235,0.7,"stim/33.jpeg",3,3,2,NA,"Instruments",2,1,"right","right",0.546000004,1,1,0,1,NA,NA,NA,NA,NA,NA,NA,NA,NA,NA,NA,NA,NA,NA,NA,NA,NA,NA,NA,NA,NA,NA,NA,NA
"119","stim/objects/HouseObjects/clothespin2.png",236,60,236,0.9,"stim/64.jpeg",6,4,3,NA,"HouseObjects",1,1,"left","left",0.53399992,1,1,0,1,NA,NA,NA,NA,NA,NA,NA,NA,NA,NA,NA,NA,NA,NA,NA,NA,NA,NA,NA,NA,NA,NA,NA,NA
"48","stim/objects/HouseObjects/basket2.png",237,60,237,0.7,"stim/44.jpeg",4,4,2,NA,"HouseObjects",1,4,"left","right",0.483999968,0,0,0,1,NA,NA,NA,NA,NA,NA,NA,NA,NA,NA,NA,NA,NA,NA,NA,NA,NA,NA,NA,NA,NA,NA,NA,NA
"120","stim/objects/HouseObjects/clothespin2.png",238,60,238,0.9,"stim/64.jpeg",6,4,3,NA,"HouseObjects",1,1,"left","left",0.487999916,1,1,0,1,NA,NA,NA,NA,NA,NA,NA,NA,NA,NA,NA,NA,NA,NA,NA,NA,NA,NA,NA,NA,NA,NA,NA,NA
"12","stim/objects/HouseObjects/ashtray2.png",239,60,239,0.7,"stim/41.jpeg",4,1,2,NA,"HouseObjects",1,2,"left","right",0.45299983,0,0,0,1,NA,NA,NA,NA,NA,NA,NA,NA,NA,NA,NA,NA,NA,NA,NA,NA,NA,NA,NA,NA,NA,NA,NA,NA
"72","stim/objects/HouseObjects/broom2.png",240,60,240,0.1,"stim/54.jpeg",5,4,3,NA,"HouseObjects",1,4,"left","right",0.460999966,0,0,0,1,NA,NA,NA,NA,NA,NA,NA,NA,NA,NA,NA,NA,NA,NA,NA,NA,NA,NA,NA,NA,NA,NA,NA,NA
"507","stim/objects/Instruments/musicstand.png",248,60,241,0.9,"stim/53.jpeg",5,3,3,2,"Instruments",2,4,"right","",NA,0,0,1,0,NA,NA,NA,NA,NA,NA,NA,NA,NA,NA,NA,NA,NA,NA,NA,NA,NA,NA,NA,NA,NA,NA,NA,NA
"385","stim/objects/HouseObjects/safetypin2.png",249,60,242,0.1,"stim/52.jpeg",5,2,3,1,"HouseObjects",1,4,"left","right",0.644999981,0,0,1,0,121,60,1,0.1,1,"stim/52.jpeg",5,2,"stim/52.jpeg",4,"right",0.716999769,4,1,0.672999859,1,0.306999922,121,0,0,NA,0,NA,0
"473","stim/objects/Instruments/metronome.png",250,60,243,0.9,"stim/51.jpeg",5,1,3,2,"Instruments",2,4,"right","",NA,0,0,1,0,NA,NA,NA,NA,NA,NA,NA,NA,NA,NA,NA,NA,NA,NA,NA,NA,NA,NA,NA,NA,NA,NA,NA,NA
"548","stim/objects/Instruments/record2.png",251,60,244,0.9,"stim/52.jpeg",5,2,3,1,"Instruments",2,2,"right","right",0.565000057,1,1,1,0,33,60,1,0.9,2,"stim/52.jpeg",5,2,"stim/52.jpeg",2,"right",1.512999773,2,2,1.538000107,1,2.707999945,33,0,1,NA,0,NA,0
"426","stim/objects/Instruments/gong2.png",252,60,245,0.3,"stim/43.jpeg",4,3,2,1,"Instruments",2,4,"right","right",0.468999863,1,1,1,0,61,60,1,0.3,2,"stim/43.jpeg",4,3,"stim/43.jpeg",4,"left",1.151000023,4,3,1.635999918,4,0.751999855,61,1,1,1,1,1,0
"308","stim/objects/HouseObjects/lintroller.png",253,60,246,0.9,"stim/64.jpeg",6,4,3,2,"HouseObjects",1,2,"left","left",0.635999918,1,1,1,0,NA,NA,NA,NA,NA,NA,NA,NA,NA,NA,NA,NA,NA,NA,NA,NA,NA,NA,NA,NA,NA,NA,NA,NA
"259","stim/objects/HouseObjects/garbagebin.png",254,60,247,0.5,"stim/21.jpeg",2,1,1,2,"HouseObjects",1,4,"left","left",0.585999966,1,1,1,0,NA,NA,NA,NA,NA,NA,NA,NA,NA,NA,NA,NA,NA,NA,NA,NA,NA,NA,NA,NA,NA,NA,NA,NA
"414","stim/objects/Instruments/electricguitar2.png",255,60,248,0.7,"stim/31.jpeg",3,1,2,1,"Instruments",2,1,"right","right",0.552999973,1,1,1,0,143,60,1,0.7,2,"stim/31.jpeg",3,1,"stim/31.jpeg",1,"left",1.199999809,4,4,1.474999905,1,0.700000048,143,1,0,0,1,1,0
"358","stim/objects/HouseObjects/pan2.png",256,60,249,0.1,"stim/54.jpeg",5,4,3,1,"HouseObjects",1,3,"left","right",0.61500001,0,0,1,0,48,60,1,0.1,1,"stim/54.jpeg",5,4,"stim/54.jpeg",3,"left",1.106999874,2,3,9.090000153,3,1.267999887,48,1,0,0,1,1,0
"563","stim/objects/Instruments/tuba.png",257,60,250,0.7,"stim/33.jpeg",3,3,2,1,"Instruments",2,4,"right","right",0.576999903,1,1,1,0,187,60,1,0.7,2,"stim/33.jpeg",3,3,"stim/33.jpeg",4,"left",0.924999952,4,2,1.907000065,2,0.990999937,187,1,0,0,0,0,0
"241","stim/objects/HouseObjects/coffee.png",258,60,251,0.5,"stim/12.jpeg",1,2,1,2,"HouseObjects",1,3,"left","left",0.509000063,1,1,1,0,NA,NA,NA,NA,NA,NA,NA,NA,NA,NA,NA,NA,NA,NA,NA,NA,NA,NA,NA,NA,NA,NA,NA,NA
"392","stim/objects/HouseObjects/spraybottle.png",259,60,252,0.5,"stim/24.jpeg",2,4,1,1,"HouseObjects",1,3,"left","left",0.713999987,1,1,1,0,136,60,1,0.5,2,"stim/24.jpeg",2,4,"stim/24.jpeg",3,"left",0.945999861,4,1,2.351999998,3,0.355999947,136,1,0,0,1,1,0
"279","stim/objects/HouseObjects/iron.png",260,60,253,0.7,"stim/41.jpeg",4,1,2,2,"HouseObjects",1,4,"left","right",0.46999979,0,0,1,0,NA,NA,NA,NA,NA,NA,NA,NA,NA,NA,NA,NA,NA,NA,NA,NA,NA,NA,NA,NA,NA,NA,NA,NA
"474","stim/objects/Instruments/metronome.png",261,60,254,0.9,"stim/52.jpeg",5,2,3,2,"Instruments",2,3,"right","right",0.553999901,1,1,1,0,NA,NA,NA,NA,NA,NA,NA,NA,NA,NA,NA,NA,NA,NA,NA,NA,NA,NA,NA,NA,NA,NA,NA,NA
"309","stim/objects/HouseObjects/lintroller.png",262,60,255,0.9,"stim/61.jpeg",6,1,3,2,"HouseObjects",1,4,"left","left",0.56400013,1,1,1,0,NA,NA,NA,NA,NA,NA,NA,NA,NA,NA,NA,NA,NA,NA,NA,NA,NA,NA,NA,NA,NA,NA,NA,NA
"378","stim/objects/HouseObjects/remote.png",263,60,256,0.5,"stim/14.jpeg",1,4,1,1,"HouseObjects",1,1,"left","right",0.549000025,0,0,1,0,183,60,1,0.5,1,"stim/14.jpeg",1,4,"stim/14.jpeg",1,"right",1.007999897,2,2,0.828000069,1,0.29399991,183,0,0,NA,1,NA,0
"359","stim/objects/HouseObjects/pitcher.png",264,60,257,0.9,"stim/63.jpeg",6,3,3,2,"HouseObjects",1,4,"left","",NA,0,0,1,0,NA,NA,NA,NA,NA,NA,NA,NA,NA,NA,NA,NA,NA,NA,NA,NA,NA,NA,NA,NA,NA,NA,NA,NA
"325","stim/objects/HouseObjects/match.png",265,60,258,0.9,"stim/62.jpeg",6,2,3,2,"HouseObjects",1,1,"left","left",0.539999962,1,1,1,0,NA,NA,NA,NA,NA,NA,NA,NA,NA,NA,NA,NA,NA,NA,NA,NA,NA,NA,NA,NA,NA,NA,NA,NA
"382","stim/objects/HouseObjects/rug.png",266,60,259,0.5,"stim/12.jpeg",1,2,1,1,"HouseObjects",1,2,"left","right",0.507999897,0,0,1,0,123,60,1,0.5,1,"stim/12.jpeg",1,2,"stim/12.jpeg",2,"right",1.16899991,4,1,0.460999966,1,0.343999863,123,0,0,NA,0,NA,0
"456","stim/objects/Instruments/marimba.png",267,60,260,0.9,"stim/53.jpeg",5,3,3,2,"Instruments",2,2,"right","right",0.428999901,1,1,1,0,NA,NA,NA,NA,NA,NA,NA,NA,NA,NA,NA,NA,NA,NA,NA,NA,NA,NA,NA,NA,NA,NA,NA,NA
"326","stim/objects/HouseObjects/match.png",268,60,261,0.9,"stim/64.jpeg",6,4,3,2,"HouseObjects",1,4,"left","left",0.572000027,1,1,1,0,NA,NA,NA,NA,NA,NA,NA,NA,NA,NA,NA,NA,NA,NA,NA,NA,NA,NA,NA,NA,NA,NA,NA,NA
"327","stim/objects/HouseObjects/match.png",269,60,262,0.9,"stim/62.jpeg",6,2,3,2,"HouseObjects",1,4,"left","left",0.609999895,1,1,1,0,NA,NA,NA,NA,NA,NA,NA,NA,NA,NA,NA,NA,NA,NA,NA,NA,NA,NA,NA,NA,NA,NA,NA,NA
"570","stim/objects/Instruments/xylophone2.png",270,60,263,0.1,"stim/64.jpeg",6,4,3,1,"Instruments",2,4,"right","left",0.541999817,0,0,1,0,93,60,1,0.1,2,"stim/64.jpeg",6,4,"stim/64.jpeg",4,"right",2.845000029,2,1,1.184999943,3,0.95299983,93,0,0,NA,0,NA,0
"311","stim/objects/HouseObjects/lintroller.png",271,60,264,0.9,"stim/63.jpeg",6,3,3,2,"HouseObjects",1,1,"left","left",0.509000063,1,1,1,0,NA,NA,NA,NA,NA,NA,NA,NA,NA,NA,NA,NA,NA,NA,NA,NA,NA,NA,NA,NA,NA,NA,NA,NA
"291","stim/objects/HouseObjects/knife.png",272,60,265,0.9,"stim/63.jpeg",6,3,3,2,"HouseObjects",1,1,"left","left",0.509000063,1,1,1,0,NA,NA,NA,NA,NA,NA,NA,NA,NA,NA,NA,NA,NA,NA,NA,NA,NA,NA,NA,NA,NA,NA,NA,NA
"342","stim/objects/HouseObjects/pan.png",273,60,266,0.9,"stim/61.jpeg",6,1,3,2,"HouseObjects",1,4,"left","left",0.513999939,1,1,1,0,NA,NA,NA,NA,NA,NA,NA,NA,NA,NA,NA,NA,NA,NA,NA,NA,NA,NA,NA,NA,NA,NA,NA,NA
"243","stim/objects/HouseObjects/coffee2.png",274,60,267,0.3,"stim/32.jpeg",3,2,2,1,"HouseObjects",1,2,"left","right",0.59499979,0,0,1,0,17,60,1,0.3,1,"stim/32.jpeg",3,2,"stim/32.jpeg",2,"left",2.428999901,3,1,4.818000078,3,1.46999979,17,1,0,0,0,0,0
"288","stim/objects/HouseObjects/key.png",275,60,268,0.7,"stim/41.jpeg",4,1,2,2,"HouseObjects",1,3,"left","left",0.733999968,1,1,1,0,NA,NA,NA,NA,NA,NA,NA,NA,NA,NA,NA,NA,NA,NA,NA,NA,NA,NA,NA,NA,NA,NA,NA,NA
"508","stim/objects/Instruments/musicstand.png",276,60,269,0.9,"stim/54.jpeg",5,4,3,2,"Instruments",2,4,"right","right",0.548999786,1,1,1,0,NA,NA,NA,NA,NA,NA,NA,NA,NA,NA,NA,NA,NA,NA,NA,NA,NA,NA,NA,NA,NA,NA,NA,NA
"451","stim/objects/Instruments/laud2.png",277,60,270,0.3,"stim/42.jpeg",4,2,2,1,"Instruments",2,3,"right","left",0.573999882,0,0,1,0,195,60,1,0.3,2,"stim/42.jpeg",4,2,"stim/42.jpeg",3,"left",0.914999962,4,4,3.055999994,3,0.315999985,195,1,0,0,1,1,0
"360","stim/objects/HouseObjects/pitcher.png",278,60,271,0.9,"stim/63.jpeg",6,3,3,2,"HouseObjects",1,2,"left","left",0.553999901,1,1,1,0,NA,NA,NA,NA,NA,NA,NA,NA,NA,NA,NA,NA,NA,NA,NA,NA,NA,NA,NA,NA,NA,NA,NA,NA
"424","stim/objects/Instruments/gong.png",279,60,272,0.5,"stim/23.jpeg",2,3,1,2,"Instruments",2,2,"right","right",0.546999931,1,1,1,0,NA,NA,NA,NA,NA,NA,NA,NA,NA,NA,NA,NA,NA,NA,NA,NA,NA,NA,NA,NA,NA,NA,NA,NA
"444","stim/objects/Instruments/keyboard.png",280,60,273,0.7,"stim/31.jpeg",3,1,2,2,"Instruments",2,3,"right","left",0.705999851,0,0,1,0,NA,NA,NA,NA,NA,NA,NA,NA,NA,NA,NA,NA,NA,NA,NA,NA,NA,NA,NA,NA,NA,NA,NA,NA
"389","stim/objects/HouseObjects/scale2.png",281,60,274,0.9,"stim/62.jpeg",6,2,3,1,"HouseObjects",1,3,"left","left",0.596999884,1,1,1,0,44,60,1,0.9,1,"stim/62.jpeg",6,2,"stim/62.jpeg",3,"right",1.66899991,2,1,0.829999924,2,0.955999851,44,0,0,NA,0,NA,0
"524","stim/objects/Instruments/oboe.png",282,60,275,0.9,"stim/52.jpeg",5,2,3,2,"Instruments",2,2,"right","right",0.536999941,1,1,1,0,NA,NA,NA,NA,NA,NA,NA,NA,NA,NA,NA,NA,NA,NA,NA,NA,NA,NA,NA,NA,NA,NA,NA,NA
"361","stim/objects/HouseObjects/pitcher.png",283,60,276,0.9,"stim/63.jpeg",6,3,3,2,"HouseObjects",1,3,"left","left",0.555000067,1,1,1,0,NA,NA,NA,NA,NA,NA,NA,NA,NA,NA,NA,NA,NA,NA,NA,NA,NA,NA,NA,NA,NA,NA,NA,NA
"362","stim/objects/HouseObjects/pitcher.png",284,60,277,0.9,"stim/64.jpeg",6,4,3,2,"HouseObjects",1,2,"left","left",0.643999815,1,1,1,0,NA,NA,NA,NA,NA,NA,NA,NA,NA,NA,NA,NA,NA,NA,NA,NA,NA,NA,NA,NA,NA,NA,NA,NA
"541","stim/objects/Instruments/panflute.png",285,60,278,0.5,"stim/12.jpeg",1,2,1,1,"Instruments",2,1,"right","right",0.618999958,1,1,1,0,83,60,1,0.5,1,"stim/12.jpeg",1,2,"stim/12.jpeg",1,"left",1.025999784,4,3,3.083999872,1,0.404999971,83,1,0,0,1,1,0
"435","stim/objects/Instruments/harmonica2.png",286,60,279,0.3,"stim/42.jpeg",4,2,2,1,"Instruments",2,2,"right","left",0.572000027,0,0,1,0,117,60,1,0.3,2,"stim/42.jpeg",4,2,"stim/42.jpeg",2,"left",1.647999763,4,1,1.69900012,2,0.89199996,117,1,0,0,1,1,0
"312","stim/objects/HouseObjects/lintroller.png",287,60,280,0.9,"stim/62.jpeg",6,2,3,2,"HouseObjects",1,2,"left","left",0.59100008,1,1,1,0,NA,NA,NA,NA,NA,NA,NA,NA,NA,NA,NA,NA,NA,NA,NA,NA,NA,NA,NA,NA,NA,NA,NA,NA
"493","stim/objects/Instruments/musicsheet.png",288,60,281,0.9,"stim/51.jpeg",5,1,3,2,"Instruments",2,4,"right","right",0.532000065,1,1,1,0,NA,NA,NA,NA,NA,NA,NA,NA,NA,NA,NA,NA,NA,NA,NA,NA,NA,NA,NA,NA,NA,NA,NA,NA
"313","stim/objects/HouseObjects/lintroller.png",289,60,282,0.9,"stim/62.jpeg",6,2,3,2,"HouseObjects",1,3,"left","left",0.570999861,1,1,1,0,NA,NA,NA,NA,NA,NA,NA,NA,NA,NA,NA,NA,NA,NA,NA,NA,NA,NA,NA,NA,NA,NA,NA,NA
"417","stim/objects/Instruments/flute2.png",290,60,283,0.7,"stim/32.jpeg",3,2,2,1,"Instruments",2,2,"right","right",0.531999826,1,1,1,0,144,60,1,0.7,2,"stim/32.jpeg",3,2,"stim/32.jpeg",2,"left",0.90899992,2,2,2.822999954,1,0.870999813,144,1,1,1,0,0,0
"433","stim/objects/Instruments/harmonica.png",291,60,284,0.5,"stim/22.jpeg",2,2,1,2,"Instruments",2,3,"right","right",0.770999908,1,1,1,0,NA,NA,NA,NA,NA,NA,NA,NA,NA,NA,NA,NA,NA,NA,NA,NA,NA,NA,NA,NA,NA,NA,NA,NA
"475","stim/objects/Instruments/metronome.png",292,60,285,0.9,"stim/54.jpeg",5,4,3,2,"Instruments",2,1,"right","right",0.569999933,1,1,1,0,NA,NA,NA,NA,NA,NA,NA,NA,NA,NA,NA,NA,NA,NA,NA,NA,NA,NA,NA,NA,NA,NA,NA,NA
"391","stim/objects/HouseObjects/sponge2.png",293,60,286,0.9,"stim/63.jpeg",6,3,3,1,"HouseObjects",1,4,"left","left",0.636999846,1,1,1,0,199,60,1,0.9,1,"stim/63.jpeg",6,3,"stim/63.jpeg",4,"right",0.862999916,3,2,0.621999741,1,0.295999765,199,0,0,NA,0,NA,0
"256","stim/objects/HouseObjects/flyswatter.png",294,60,287,0.5,"stim/23.jpeg",2,3,1,2,"HouseObjects",1,4,"left","left",0.677000046,1,1,1,0,NA,NA,NA,NA,NA,NA,NA,NA,NA,NA,NA,NA,NA,NA,NA,NA,NA,NA,NA,NA,NA,NA,NA,NA
"448","stim/objects/Instruments/laud.png",295,60,288,0.7,"stim/33.jpeg",3,3,2,2,"Instruments",2,3,"right","right",0.57799983,1,1,1,0,NA,NA,NA,NA,NA,NA,NA,NA,NA,NA,NA,NA,NA,NA,NA,NA,NA,NA,NA,NA,NA,NA,NA,NA
"287","stim/objects/HouseObjects/key.png",296,60,289,0.7,"stim/42.jpeg",4,2,2,2,"HouseObjects",1,1,"left","right",0.572999954,0,0,1,0,NA,NA,NA,NA,NA,NA,NA,NA,NA,NA,NA,NA,NA,NA,NA,NA,NA,NA,NA,NA,NA,NA,NA,NA
"523","stim/objects/Instruments/musicstand2.png",297,60,290,0.9,"stim/52.jpeg",5,2,3,1,"Instruments",2,4,"right","right",0.569999933,1,1,1,0,32,60,1,0.9,2,"stim/52.jpeg",5,2,"stim/52.jpeg",4,"left",1.22699976,2,1,1.066999912,3,1.002000093,32,1,0,0,0,0,0
"292","stim/objects/HouseObjects/knife.png",298,60,291,0.9,"stim/64.jpeg",6,4,3,2,"HouseObjects",1,2,"left","left",0.530999899,1,1,1,0,NA,NA,NA,NA,NA,NA,NA,NA,NA,NA,NA,NA,NA,NA,NA,NA,NA,NA,NA,NA,NA,NA,NA,NA
"476","stim/objects/Instruments/metronome.png",299,60,292,0.9,"stim/53.jpeg",5,3,3,2,"Instruments",2,1,"right","right",0.460000038,1,1,1,0,NA,NA,NA,NA,NA,NA,NA,NA,NA,NA,NA,NA,NA,NA,NA,NA,NA,NA,NA,NA,NA,NA,NA,NA
"495","stim/objects/Instruments/musicsheet.png",300,60,293,0.9,"stim/53.jpeg",5,3,3,2,"Instruments",2,1,"right","right",0.487999916,1,1,1,0,NA,NA,NA,NA,NA,NA,NA,NA,NA,NA,NA,NA,NA,NA,NA,NA,NA,NA,NA,NA,NA,NA,NA,NA
"458","stim/objects/Instruments/marimba.png",301,60,294,0.9,"stim/51.jpeg",5,1,3,2,"Instruments",2,3,"right","right",0.565999746,1,1,1,0,NA,NA,NA,NA,NA,NA,NA,NA,NA,NA,NA,NA,NA,NA,NA,NA,NA,NA,NA,NA,NA,NA,NA,NA
"496","stim/objects/Instruments/musicsheet.png",302,60,295,0.9,"stim/51.jpeg",5,1,3,2,"Instruments",2,2,"right","right",0.470999956,1,1,1,0,NA,NA,NA,NA,NA,NA,NA,NA,NA,NA,NA,NA,NA,NA,NA,NA,NA,NA,NA,NA,NA,NA,NA,NA
"510","stim/objects/Instruments/musicstand.png",303,60,296,0.9,"stim/54.jpeg",5,4,3,2,"Instruments",2,3,"right","right",0.572999954,1,1,1,0,NA,NA,NA,NA,NA,NA,NA,NA,NA,NA,NA,NA,NA,NA,NA,NA,NA,NA,NA,NA,NA,NA,NA,NA
"329","stim/objects/HouseObjects/match.png",304,60,297,0.9,"stim/61.jpeg",6,1,3,2,"HouseObjects",1,4,"left","left",0.582999945,1,1,1,0,NA,NA,NA,NA,NA,NA,NA,NA,NA,NA,NA,NA,NA,NA,NA,NA,NA,NA,NA,NA,NA,NA,NA,NA
"255","stim/objects/HouseObjects/dustpan2.png",305,60,298,0.3,"stim/32.jpeg",3,2,2,1,"HouseObjects",1,3,"left","right",0.507999897,0,0,1,0,111,60,1,0.3,1,"stim/32.jpeg",3,2,"stim/32.jpeg",3,"left",1.356999874,3,1,0.717000008,4,2.500999928,111,1,0,0,0,0,0
"344","stim/objects/HouseObjects/pan.png",306,60,299,0.9,"stim/64.jpeg",6,4,3,2,"HouseObjects",1,1,"left","left",0.571000099,1,1,1,0,NA,NA,NA,NA,NA,NA,NA,NA,NA,NA,NA,NA,NA,NA,NA,NA,NA,NA,NA,NA,NA,NA,NA,NA
"395","stim/objects/HouseObjects/teapot2.png",307,60,300,0.9,"stim/61.jpeg",6,1,3,1,"HouseObjects",1,1,"left","left",0.510999918,1,1,1,0,75,60,1,0.9,1,"stim/61.jpeg",6,1,"stim/61.jpeg",1,"left",1.430999756,3,1,1.292999983,1,0.433000088,75,1,1,1,1,1,0
"459","stim/objects/Instruments/marimba.png",308,60,301,0.9,"stim/52.jpeg",5,2,3,2,"Instruments",2,2,"right","right",0.516000032,1,1,1,0,NA,NA,NA,NA,NA,NA,NA,NA,NA,NA,NA,NA,NA,NA,NA,NA,NA,NA,NA,NA,NA,NA,NA,NA
"511","stim/objects/Instruments/musicstand.png",309,60,302,0.9,"stim/53.jpeg",5,3,3,2,"Instruments",2,2,"right","right",0.554999828,1,1,1,0,NA,NA,NA,NA,NA,NA,NA,NA,NA,NA,NA,NA,NA,NA,NA,NA,NA,NA,NA,NA,NA,NA,NA,NA
"265","stim/objects/HouseObjects/glassmop.png",310,60,303,0.5,"stim/23.jpeg",2,3,1,2,"HouseObjects",1,3,"left","left",0.489000082,1,1,1,0,NA,NA,NA,NA,NA,NA,NA,NA,NA,NA,NA,NA,NA,NA,NA,NA,NA,NA,NA,NA,NA,NA,NA,NA
"280","stim/objects/HouseObjects/iron.png",311,60,304,0.7,"stim/43.jpeg",4,3,2,2,"HouseObjects",1,3,"left","left",0.50999999,1,1,1,0,NA,NA,NA,NA,NA,NA,NA,NA,NA,NA,NA,NA,NA,NA,NA,NA,NA,NA,NA,NA,NA,NA,NA,NA
"293","stim/objects/HouseObjects/knife.png",312,60,305,0.9,"stim/64.jpeg",6,4,3,2,"HouseObjects",1,2,"left","right",0.467999935,0,0,1,0,NA,NA,NA,NA,NA,NA,NA,NA,NA,NA,NA,NA,NA,NA,NA,NA,NA,NA,NA,NA,NA,NA,NA,NA
"477","stim/objects/Instruments/metronome.png",313,60,306,0.9,"stim/51.jpeg",5,1,3,2,"Instruments",2,3,"right","right",0.552000046,1,1,1,0,NA,NA,NA,NA,NA,NA,NA,NA,NA,NA,NA,NA,NA,NA,NA,NA,NA,NA,NA,NA,NA,NA,NA,NA
"390","stim/objects/HouseObjects/sponge.png",314,60,307,0.5,"stim/23.jpeg",2,3,1,1,"HouseObjects",1,3,"left","left",0.559999943,1,1,1,0,131,60,1,0.5,2,"stim/23.jpeg",2,3,"stim/23.jpeg",3,"left",1.636999846,4,2,2.812000036,4,0.648999929,131,1,0,0,0,0,0
"460","stim/objects/Instruments/marimba.png",315,60,308,0.9,"stim/53.jpeg",5,3,3,2,"Instruments",2,4,"right","right",0.562000036,1,1,1,0,NA,NA,NA,NA,NA,NA,NA,NA,NA,NA,NA,NA,NA,NA,NA,NA,NA,NA,NA,NA,NA,NA,NA,NA
"525","stim/objects/Instruments/oboe.png",316,60,309,0.9,"stim/52.jpeg",5,2,3,2,"Instruments",2,2,"right","right",0.124000072,1,1,1,0,NA,NA,NA,NA,NA,NA,NA,NA,NA,NA,NA,NA,NA,NA,NA,NA,NA,NA,NA,NA,NA,NA,NA,NA
"452","stim/objects/Instruments/maraca.png",317,60,310,0.7,"stim/34.jpeg",3,4,2,2,"Instruments",2,2,"right","right",0.620999813,1,1,1,0,NA,NA,NA,NA,NA,NA,NA,NA,NA,NA,NA,NA,NA,NA,NA,NA,NA,NA,NA,NA,NA,NA,NA,NA
"345","stim/objects/HouseObjects/pan.png",318,60,311,0.9,"stim/63.jpeg",6,3,3,2,"HouseObjects",1,1,"left","left",0.503000021,1,1,1,0,NA,NA,NA,NA,NA,NA,NA,NA,NA,NA,NA,NA,NA,NA,NA,NA,NA,NA,NA,NA,NA,NA,NA,NA
"363","stim/objects/HouseObjects/pitcher.png",319,60,312,0.9,"stim/64.jpeg",6,4,3,2,"HouseObjects",1,4,"left","left",0.574999809,1,1,1,0,NA,NA,NA,NA,NA,NA,NA,NA,NA,NA,NA,NA,NA,NA,NA,NA,NA,NA,NA,NA,NA,NA,NA,NA
"497","stim/objects/Instruments/musicsheet.png",320,60,313,0.9,"stim/52.jpeg",5,2,3,2,"Instruments",2,2,"right","right",0.607999802,1,1,1,0,NA,NA,NA,NA,NA,NA,NA,NA,NA,NA,NA,NA,NA,NA,NA,NA,NA,NA,NA,NA,NA,NA,NA,NA
"384","stim/objects/HouseObjects/safetypin.png",321,60,314,0.5,"stim/13.jpeg",1,3,1,1,"HouseObjects",1,1,"left","right",0.563999891,0,0,1,0,77,60,1,0.5,1,"stim/13.jpeg",1,3,"stim/13.jpeg",1,"right",1.315999985,4,1,1.040999889,1,0.47300005,77,0,0,NA,1,NA,0
"430","stim/objects/Instruments/guitarcase.png",322,60,315,0.5,"stim/22.jpeg",2,2,1,2,"Instruments",2,2,"right","right",0.590999842,1,1,1,0,NA,NA,NA,NA,NA,NA,NA,NA,NA,NA,NA,NA,NA,NA,NA,NA,NA,NA,NA,NA,NA,NA,NA,NA
"410","stim/objects/Instruments/electricdrumset.png",323,60,316,0.5,"stim/11.jpeg",1,1,1,2,"Instruments",2,1,"right","left",0.914999962,0,0,1,0,NA,NA,NA,NA,NA,NA,NA,NA,NA,NA,NA,NA,NA,NA,NA,NA,NA,NA,NA,NA,NA,NA,NA,NA
"364","stim/objects/HouseObjects/pitcher.png",324,60,317,0.9,"stim/64.jpeg",6,4,3,2,"HouseObjects",1,4,"left","left",0.607999802,1,1,1,0,NA,NA,NA,NA,NA,NA,NA,NA,NA,NA,NA,NA,NA,NA,NA,NA,NA,NA,NA,NA,NA,NA,NA,NA
"436","stim/objects/Instruments/harp.png",325,60,318,0.7,"stim/31.jpeg",3,1,2,2,"Instruments",2,3,"right","right",0.569000006,1,1,1,0,NA,NA,NA,NA,NA,NA,NA,NA,NA,NA,NA,NA,NA,NA,NA,NA,NA,NA,NA,NA,NA,NA,NA,NA
"294","stim/objects/HouseObjects/knife.png",326,60,319,0.9,"stim/61.jpeg",6,1,3,2,"HouseObjects",1,2,"left","left",0.510999918,1,1,1,0,NA,NA,NA,NA,NA,NA,NA,NA,NA,NA,NA,NA,NA,NA,NA,NA,NA,NA,NA,NA,NA,NA,NA,NA
"526","stim/objects/Instruments/oboe.png",327,60,320,0.9,"stim/53.jpeg",5,3,3,2,"Instruments",2,1,"right","right",0.437999964,1,1,1,0,NA,NA,NA,NA,NA,NA,NA,NA,NA,NA,NA,NA,NA,NA,NA,NA,NA,NA,NA,NA,NA,NA,NA,NA
"461","stim/objects/Instruments/marimba.png",328,60,321,0.9,"stim/51.jpeg",5,1,3,2,"Instruments",2,3,"right","right",0.536000013,1,1,1,0,NA,NA,NA,NA,NA,NA,NA,NA,NA,NA,NA,NA,NA,NA,NA,NA,NA,NA,NA,NA,NA,NA,NA,NA
"462","stim/objects/Instruments/marimba.png",329,60,322,0.9,"stim/52.jpeg",5,2,3,2,"Instruments",2,2,"right","right",0.520999908,1,1,1,0,NA,NA,NA,NA,NA,NA,NA,NA,NA,NA,NA,NA,NA,NA,NA,NA,NA,NA,NA,NA,NA,NA,NA,NA
"567","stim/objects/Instruments/vuvuzela.png",330,60,323,0.7,"stim/31.jpeg",3,1,2,1,"Instruments",2,3,"right","right",0.505999804,1,1,1,0,116,60,1,0.7,2,"stim/31.jpeg",3,1,"stim/31.jpeg",3,"left",0.937999964,4,2,2.321999788,2,1.542000055,116,1,0,0,0,0,0
"527","stim/objects/Instruments/oboe.png",331,60,324,0.9,"stim/51.jpeg",5,1,3,2,"Instruments",2,4,"right","right",0.595999956,1,1,1,0,NA,NA,NA,NA,NA,NA,NA,NA,NA,NA,NA,NA,NA,NA,NA,NA,NA,NA,NA,NA,NA,NA,NA,NA
"513","stim/objects/Instruments/musicstand.png",332,60,325,0.9,"stim/53.jpeg",5,3,3,2,"Instruments",2,3,"right","right",0.568999767,1,1,1,0,NA,NA,NA,NA,NA,NA,NA,NA,NA,NA,NA,NA,NA,NA,NA,NA,NA,NA,NA,NA,NA,NA,NA,NA
"528","stim/objects/Instruments/oboe.png",333,60,326,0.9,"stim/52.jpeg",5,2,3,2,"Instruments",2,1,"right","right",0.537999868,1,1,1,0,NA,NA,NA,NA,NA,NA,NA,NA,NA,NA,NA,NA,NA,NA,NA,NA,NA,NA,NA,NA,NA,NA,NA,NA
"377","stim/objects/HouseObjects/recyclingbin2.png",334,60,327,0.1,"stim/52.jpeg",5,2,3,1,"HouseObjects",1,3,"left","left",0.539999962,1,1,1,0,11,60,1,0.1,1,"stim/52.jpeg",5,2,"stim/52.jpeg",3,"left",1.694999933,4,1,7.684000015,3,3.493000031,11,1,0,0,1,1,0
"489","stim/objects/Instruments/metronome2.png",335,60,328,0.9,"stim/54.jpeg",5,4,3,1,"Instruments",2,3,"right","right",0.5,1,1,1,0,185,60,1,0.9,2,"stim/54.jpeg",5,4,"stim/54.jpeg",3,"left",1.178999901,4,1,2.934000015,3,0.682999849,185,1,0,0,1,1,0
"455","stim/objects/Instruments/maraca2.png",336,60,329,0.3,"stim/43.jpeg",4,3,2,1,"Instruments",2,2,"right","left",0.731999874,0,0,1,0,16,60,1,0.3,2,"stim/43.jpeg",4,3,"stim/43.jpeg",2,"left",3.944999933,3,4,8.032999992,2,1.862999916,16,1,0,0,1,1,0
"514","stim/objects/Instruments/musicstand.png",337,60,330,0.9,"stim/53.jpeg",5,3,3,2,"Instruments",2,1,"right","right",0.618000031,1,1,1,0,NA,NA,NA,NA,NA,NA,NA,NA,NA,NA,NA,NA,NA,NA,NA,NA,NA,NA,NA,NA,NA,NA,NA,NA
"431","stim/objects/Instruments/guitarcase.png",338,60,331,0.5,"stim/21.jpeg",2,1,1,2,"Instruments",2,1,"right","left",0.669999838,0,0,1,0,NA,NA,NA,NA,NA,NA,NA,NA,NA,NA,NA,NA,NA,NA,NA,NA,NA,NA,NA,NA,NA,NA,NA,NA
"506","stim/objects/Instruments/musicsheet2.png",339,60,332,0.9,"stim/51.jpeg",5,1,3,1,"Instruments",2,3,"right","right",0.587000132,1,1,1,0,153,60,1,0.9,2,"stim/51.jpeg",5,1,"stim/51.jpeg",3,"left",0.746999979,4,1,1.301999807,1,0.268000126,153,1,1,1,0,0,0
"315","stim/objects/HouseObjects/lintroller.png",340,60,333,0.9,"stim/62.jpeg",6,2,3,2,"HouseObjects",1,3,"left","left",0.592000008,1,1,1,0,NA,NA,NA,NA,NA,NA,NA,NA,NA,NA,NA,NA,NA,NA,NA,NA,NA,NA,NA,NA,NA,NA,NA,NA
"472","stim/objects/Instruments/marimba2.png",341,60,334,0.9,"stim/53.jpeg",5,3,3,1,"Instruments",2,1,"right","right",0.594000101,1,1,1,0,54,60,1,0.9,2,"stim/53.jpeg",5,3,"stim/53.jpeg",1,"left",1.907000065,2,4,8.311999798,4,0.832000017,54,1,0,0,0,0,0
"479","stim/objects/Instruments/metronome.png",342,60,335,0.9,"stim/54.jpeg",5,4,3,2,"Instruments",2,2,"right","right",0.552000046,1,1,1,0,NA,NA,NA,NA,NA,NA,NA,NA,NA,NA,NA,NA,NA,NA,NA,NA,NA,NA,NA,NA,NA,NA,NA,NA
"330","stim/objects/HouseObjects/match.png",343,60,336,0.9,"stim/62.jpeg",6,2,3,2,"HouseObjects",1,3,"left","left",0.490999937,1,1,1,0,NA,NA,NA,NA,NA,NA,NA,NA,NA,NA,NA,NA,NA,NA,NA,NA,NA,NA,NA,NA,NA,NA,NA,NA
"286","stim/objects/HouseObjects/ironingboard2.png",344,60,337,0.7,"stim/44.jpeg",4,4,2,1,"HouseObjects",1,1,"left","left",0.461999893,1,1,1,0,184,60,1,0.7,1,"stim/44.jpeg",4,4,"stim/44.jpeg",1,"left",0.822999954,4,2,0.973999977,1,0.406999826,184,1,0,0,1,1,0
"296","stim/objects/HouseObjects/knife.png",345,60,338,0.9,"stim/63.jpeg",6,3,3,2,"HouseObjects",1,4,"left","left",0.582000017,1,1,1,0,NA,NA,NA,NA,NA,NA,NA,NA,NA,NA,NA,NA,NA,NA,NA,NA,NA,NA,NA,NA,NA,NA,NA,NA
"383","stim/objects/HouseObjects/rug2.png",346,60,339,0.1,"stim/51.jpeg",5,1,3,1,"HouseObjects",1,2,"left","right",0.611999989,0,0,1,0,156,60,1,0.1,1,"stim/51.jpeg",5,1,"stim/51.jpeg",2,"right",1.469000101,3,2,0.68599987,1,0.621999979,156,0,0,NA,0,NA,0
"432","stim/objects/Instruments/guitarcase2.png",347,60,340,0.3,"stim/41.jpeg",4,1,2,1,"Instruments",2,4,"right","left",0.552999735,0,0,1,0,80,60,1,0.3,2,"stim/41.jpeg",4,1,"stim/41.jpeg",4,"left",1.095999956,4,2,1.756999969,3,1.133999825,80,1,0,0,0,0,0
"529","stim/objects/Instruments/oboe.png",348,60,341,0.9,"stim/52.jpeg",5,2,3,2,"Instruments",2,4,"right","right",0.737999916,1,1,1,0,NA,NA,NA,NA,NA,NA,NA,NA,NA,NA,NA,NA,NA,NA,NA,NA,NA,NA,NA,NA,NA,NA,NA,NA
"530","stim/objects/Instruments/oboe.png",349,60,342,0.9,"stim/51.jpeg",5,1,3,2,"Instruments",2,1,"right","right",0.61500001,1,1,1,0,NA,NA,NA,NA,NA,NA,NA,NA,NA,NA,NA,NA,NA,NA,NA,NA,NA,NA,NA,NA,NA,NA,NA,NA
"366","stim/objects/HouseObjects/pitcher.png",350,60,343,0.9,"stim/62.jpeg",6,2,3,2,"HouseObjects",1,4,"left","left",0.513000011,1,1,1,0,NA,NA,NA,NA,NA,NA,NA,NA,NA,NA,NA,NA,NA,NA,NA,NA,NA,NA,NA,NA,NA,NA,NA,NA
"324","stim/objects/HouseObjects/lintroller2.png",351,60,344,0.1,"stim/52.jpeg",5,2,3,1,"HouseObjects",1,3,"left","right",0.480999947,0,0,1,0,88,60,1,0.1,1,"stim/52.jpeg",5,2,"stim/52.jpeg",3,"right",1.341999769,2,2,1.069000006,4,0.828000069,88,0,1,NA,0,NA,0
"269","stim/objects/HouseObjects/hairdryer.png",352,60,345,0.5,"stim/23.jpeg",2,3,1,2,"HouseObjects",1,4,"left","right",0.470999956,0,0,1,0,NA,NA,NA,NA,NA,NA,NA,NA,NA,NA,NA,NA,NA,NA,NA,NA,NA,NA,NA,NA,NA,NA,NA,NA
"246","stim/objects/HouseObjects/cushion2.png",353,60,346,0.3,"stim/33.jpeg",3,3,2,1,"HouseObjects",1,4,"left","right",0.651000023,0,0,1,0,72,60,1,0.3,1,"stim/33.jpeg",3,3,"stim/33.jpeg",4,"left",0.849999905,3,2,2.345999956,3,0.953999996,72,1,0,0,0,0,0
"550","stim/objects/Instruments/saxophone2.png",354,60,347,0.9,"stim/54.jpeg",5,4,3,1,"Instruments",2,1,"right","right",0.582000017,1,1,1,0,173,60,1,0.9,2,"stim/54.jpeg",5,4,"stim/54.jpeg",1,"right",0.81099987,3,2,0.821000099,1,0.440999985,173,0,0,NA,1,NA,0
"331","stim/objects/HouseObjects/match.png",355,60,348,0.9,"stim/63.jpeg",6,3,3,2,"HouseObjects",1,2,"left","left",0.536999941,1,1,1,0,NA,NA,NA,NA,NA,NA,NA,NA,NA,NA,NA,NA,NA,NA,NA,NA,NA,NA,NA,NA,NA,NA,NA,NA
"420","stim/objects/Instruments/flutetrans2.png",356,60,349,0.7,"stim/33.jpeg",3,3,2,1,"Instruments",2,1,"right","right",0.736999989,1,1,1,0,57,60,1,0.7,2,"stim/33.jpeg",3,3,"stim/33.jpeg",1,"right",1.049000025,2,2,1.491999865,4,0.648000002,57,0,0,NA,0,NA,0
"332","stim/objects/HouseObjects/match.png",357,60,350,0.9,"stim/64.jpeg",6,4,3,2,"HouseObjects",1,1,"left","left",0.539999962,1,1,1,0,NA,NA,NA,NA,NA,NA,NA,NA,NA,NA,NA,NA,NA,NA,NA,NA,NA,NA,NA,NA,NA,NA,NA,NA
"299","stim/objects/HouseObjects/knife.png",358,60,351,0.9,"stim/64.jpeg",6,4,3,2,"HouseObjects",1,4,"left","left",0.605999947,1,1,1,0,NA,NA,NA,NA,NA,NA,NA,NA,NA,NA,NA,NA,NA,NA,NA,NA,NA,NA,NA,NA,NA,NA,NA,NA
"547","stim/objects/Instruments/record.png",359,60,352,0.5,"stim/14.jpeg",1,4,1,1,"Instruments",2,1,"right","right",0.609999895,1,1,1,0,20,60,1,0.5,1,"stim/14.jpeg",1,4,"stim/14.jpeg",1,"left",1.118999958,4,3,3.142999887,1,0.927999973,20,1,0,0,1,1,0
"449","stim/objects/Instruments/laud.png",360,60,353,0.7,"stim/32.jpeg",3,2,2,2,"Instruments",2,2,"right","right",0.639999866,1,1,1,0,NA,NA,NA,NA,NA,NA,NA,NA,NA,NA,NA,NA,NA,NA,NA,NA,NA,NA,NA,NA,NA,NA,NA,NA
"439","stim/objects/Instruments/harp2.png",361,60,354,0.3,"stim/43.jpeg",4,3,2,1,"Instruments",2,4,"right","left",0.693000078,0,0,1,0,10,60,1,0.3,2,"stim/43.jpeg",4,3,"stim/43.jpeg",4,"right",3.345999956,2,3,3.625,1,1.135999918,10,0,1,NA,0,NA,0
"531","stim/objects/Instruments/oboe.png",362,60,355,0.9,"stim/51.jpeg",5,1,3,2,"Instruments",2,3,"right","right",0.572000027,1,1,1,0,NA,NA,NA,NA,NA,NA,NA,NA,NA,NA,NA,NA,NA,NA,NA,NA,NA,NA,NA,NA,NA,NA,NA,NA
"263","stim/objects/HouseObjects/glass.png",363,60,356,0.5,"stim/21.jpeg",2,1,1,2,"HouseObjects",1,3,"left","left",0.951999903,1,1,1,0,NA,NA,NA,NA,NA,NA,NA,NA,NA,NA,NA,NA,NA,NA,NA,NA,NA,NA,NA,NA,NA,NA,NA,NA
"375","stim/objects/HouseObjects/pitcher2.png",364,60,357,0.1,"stim/51.jpeg",5,1,3,1,"HouseObjects",1,1,"left","right",0.621999979,0,0,1,0,110,60,1,0.1,1,"stim/51.jpeg",5,1,"stim/51.jpeg",1,"right",1.354999781,3,1,0.756000042,1,0.328999996,110,0,1,NA,1,NA,0
"463","stim/objects/Instruments/marimba.png",365,60,358,0.9,"stim/53.jpeg",5,3,3,2,"Instruments",2,1,"right","right",0.917999744,1,1,1,0,NA,NA,NA,NA,NA,NA,NA,NA,NA,NA,NA,NA,NA,NA,NA,NA,NA,NA,NA,NA,NA,NA,NA,NA
"482","stim/objects/Instruments/metronome.png",366,60,359,0.9,"stim/53.jpeg",5,3,3,2,"Instruments",2,2,"right","right",0.553999901,1,1,1,0,NA,NA,NA,NA,NA,NA,NA,NA,NA,NA,NA,NA,NA,NA,NA,NA,NA,NA,NA,NA,NA,NA,NA,NA
"464","stim/objects/Instruments/marimba.png",367,60,360,0.9,"stim/52.jpeg",5,2,3,2,"Instruments",2,3,"right","left",0.56799984,0,0,1,0,NA,NA,NA,NA,NA,NA,NA,NA,NA,NA,NA,NA,NA,NA,NA,NA,NA,NA,NA,NA,NA,NA,NA,NA
"465","stim/objects/Instruments/marimba.png",368,60,361,0.9,"stim/54.jpeg",5,4,3,2,"Instruments",2,3,"right","right",0.828999996,1,1,1,0,NA,NA,NA,NA,NA,NA,NA,NA,NA,NA,NA,NA,NA,NA,NA,NA,NA,NA,NA,NA,NA,NA,NA,NA
"427","stim/objects/Instruments/grandpiano.png",369,60,362,0.5,"stim/24.jpeg",2,4,1,2,"Instruments",2,1,"right","left",0.799999952,0,0,1,0,NA,NA,NA,NA,NA,NA,NA,NA,NA,NA,NA,NA,NA,NA,NA,NA,NA,NA,NA,NA,NA,NA,NA,NA
"546","stim/objects/Instruments/record_player2.png",370,60,363,0.9,"stim/53.jpeg",5,3,3,1,"Instruments",2,2,"right","right",0.545999765,1,1,1,0,27,60,1,0.9,2,"stim/53.jpeg",5,3,"stim/53.jpeg",2,"left",1.483999968,4,1,6.232999802,1,8.263999939,27,1,0,0,0,0,0
"483","stim/objects/Instruments/metronome.png",371,60,364,0.9,"stim/54.jpeg",5,4,3,2,"Instruments",2,1,"right","right",0.638999939,1,1,1,0,NA,NA,NA,NA,NA,NA,NA,NA,NA,NA,NA,NA,NA,NA,NA,NA,NA,NA,NA,NA,NA,NA,NA,NA
"244","stim/objects/HouseObjects/cushion.png",372,60,365,0.5,"stim/13.jpeg",1,3,1,2,"HouseObjects",1,3,"left","right",0.447999954,0,0,1,0,NA,NA,NA,NA,NA,NA,NA,NA,NA,NA,NA,NA,NA,NA,NA,NA,NA,NA,NA,NA,NA,NA,NA,NA
"409","stim/objects/Instruments/electricdrumset.png",373,60,366,0.5,"stim/12.jpeg",1,2,1,2,"Instruments",2,1,"right","right",0.573999882,1,1,1,0,NA,NA,NA,NA,NA,NA,NA,NA,NA,NA,NA,NA,NA,NA,NA,NA,NA,NA,NA,NA,NA,NA,NA,NA
"498","stim/objects/Instruments/musicsheet.png",374,60,367,0.9,"stim/54.jpeg",5,4,3,2,"Instruments",2,2,"right","right",0.573999882,1,1,1,0,NA,NA,NA,NA,NA,NA,NA,NA,NA,NA,NA,NA,NA,NA,NA,NA,NA,NA,NA,NA,NA,NA,NA,NA
"419","stim/objects/Instruments/flutetrans.png",375,60,368,0.5,"stim/11.jpeg",1,1,1,2,"Instruments",2,3,"right","right",0.513000011,1,1,1,0,NA,NA,NA,NA,NA,NA,NA,NA,NA,NA,NA,NA,NA,NA,NA,NA,NA,NA,NA,NA,NA,NA,NA,NA
"557","stim/objects/Instruments/triangle.png",376,60,369,0.5,"stim/23.jpeg",2,3,1,1,"Instruments",2,2,"right","right",0.412999868,1,1,1,0,96,60,1,0.5,2,"stim/23.jpeg",2,3,"stim/23.jpeg",2,"left",0.802999973,4,1,1.073999882,2,1.275000095,96,1,0,0,1,1,0
"396","stim/objects/HouseObjects/thermometer.png",377,60,370,0.3,"stim/31.jpeg",3,1,2,1,"HouseObjects",1,1,"left","right",0.617000103,0,0,1,0,90,60,1,0.3,1,"stim/31.jpeg",3,1,"stim/31.jpeg",1,"left",1.122999907,4,4,4.041999817,3,0.553999901,90,1,0,0,0,0,0
"418","stim/objects/Instruments/flutetrans.png",378,60,371,0.5,"stim/14.jpeg",1,4,1,2,"Instruments",2,4,"right","right",0.404999733,1,1,1,0,NA,NA,NA,NA,NA,NA,NA,NA,NA,NA,NA,NA,NA,NA,NA,NA,NA,NA,NA,NA,NA,NA,NA,NA
"295","stim/objects/HouseObjects/knife.png",379,60,372,0.9,"stim/61.jpeg",6,1,3,2,"HouseObjects",1,2,"left","left",0.815000057,1,1,1,0,NA,NA,NA,NA,NA,NA,NA,NA,NA,NA,NA,NA,NA,NA,NA,NA,NA,NA,NA,NA,NA,NA,NA,NA
"261","stim/objects/HouseObjects/garbagebin2.png",380,60,373,0.7,"stim/41.jpeg",4,1,2,1,"HouseObjects",1,1,"left","right",0.527999878,0,0,1,0,148,60,1,0.7,1,"stim/41.jpeg",4,1,"stim/41.jpeg",1,"right",1.674999952,2,2,0.792999983,3,0.757999897,148,0,0,NA,0,NA,0
"533","stim/objects/Instruments/oboe.png",381,60,374,0.9,"stim/54.jpeg",5,4,3,2,"Instruments",2,2,"right","right",0.381000042,1,1,1,0,NA,NA,NA,NA,NA,NA,NA,NA,NA,NA,NA,NA,NA,NA,NA,NA,NA,NA,NA,NA,NA,NA,NA,NA
"349","stim/objects/HouseObjects/pan.png",382,60,375,0.9,"stim/62.jpeg",6,2,3,2,"HouseObjects",1,3,"left","left",0.503000021,1,1,1,0,NA,NA,NA,NA,NA,NA,NA,NA,NA,NA,NA,NA,NA,NA,NA,NA,NA,NA,NA,NA,NA,NA,NA,NA
"350","stim/objects/HouseObjects/pan.png",383,60,376,0.9,"stim/61.jpeg",6,1,3,2,"HouseObjects",1,1,"left","right",0.496999979,0,0,1,0,NA,NA,NA,NA,NA,NA,NA,NA,NA,NA,NA,NA,NA,NA,NA,NA,NA,NA,NA,NA,NA,NA,NA,NA
"310","stim/objects/HouseObjects/lintroller.png",384,60,377,0.9,"stim/64.jpeg",6,4,3,2,"HouseObjects",1,3,"left","left",0.460000038,1,1,1,0,NA,NA,NA,NA,NA,NA,NA,NA,NA,NA,NA,NA,NA,NA,NA,NA,NA,NA,NA,NA,NA,NA,NA,NA
"300","stim/objects/HouseObjects/knife.png",385,60,378,0.9,"stim/64.jpeg",6,4,3,2,"HouseObjects",1,2,"left","left",0.61500001,1,1,1,0,NA,NA,NA,NA,NA,NA,NA,NA,NA,NA,NA,NA,NA,NA,NA,NA,NA,NA,NA,NA,NA,NA,NA,NA
"297","stim/objects/HouseObjects/knife.png",386,60,379,0.9,"stim/63.jpeg",6,3,3,2,"HouseObjects",1,1,"left","left",0.503999949,1,1,1,0,NA,NA,NA,NA,NA,NA,NA,NA,NA,NA,NA,NA,NA,NA,NA,NA,NA,NA,NA,NA,NA,NA,NA,NA
"283","stim/objects/HouseObjects/ironingboard.png",387,60,380,0.7,"stim/41.jpeg",4,1,2,2,"HouseObjects",1,4,"left","left",0.688999891,1,1,1,0,NA,NA,NA,NA,NA,NA,NA,NA,NA,NA,NA,NA,NA,NA,NA,NA,NA,NA,NA,NA,NA,NA,NA,NA
"368","stim/objects/HouseObjects/pitcher.png",388,60,381,0.9,"stim/61.jpeg",6,1,3,2,"HouseObjects",1,1,"left","left",0.613999844,1,1,1,0,NA,NA,NA,NA,NA,NA,NA,NA,NA,NA,NA,NA,NA,NA,NA,NA,NA,NA,NA,NA,NA,NA,NA,NA
"499","stim/objects/Instruments/musicsheet.png",389,60,382,0.9,"stim/54.jpeg",5,4,3,2,"Instruments",2,1,"right","right",0.602999926,1,1,1,0,NA,NA,NA,NA,NA,NA,NA,NA,NA,NA,NA,NA,NA,NA,NA,NA,NA,NA,NA,NA,NA,NA,NA,NA
"282","stim/objects/HouseObjects/iron2.png",390,60,383,0.7,"stim/43.jpeg",4,3,2,1,"HouseObjects",1,2,"left","left",0.730000019,1,1,1,0,166,60,1,0.7,1,"stim/43.jpeg",4,3,"stim/43.jpeg",2,"left",3.483999968,3,2,1.493999958,1,0.422999859,166,1,0,0,0,0,0
"491","stim/objects/Instruments/musicsheet.png",391,60,384,0.9,"stim/53.jpeg",5,3,3,2,"Instruments",2,3,"right","right",0.453999758,1,1,1,0,NA,NA,NA,NA,NA,NA,NA,NA,NA,NA,NA,NA,NA,NA,NA,NA,NA,NA,NA,NA,NA,NA,NA,NA
"318","stim/objects/HouseObjects/lintroller.png",392,60,385,0.9,"stim/63.jpeg",6,3,3,2,"HouseObjects",1,4,"left","left",0.632999897,1,1,1,0,NA,NA,NA,NA,NA,NA,NA,NA,NA,NA,NA,NA,NA,NA,NA,NA,NA,NA,NA,NA,NA,NA,NA,NA
"301","stim/objects/HouseObjects/knife.png",393,60,386,0.9,"stim/62.jpeg",6,2,3,2,"HouseObjects",1,4,"left","left",0.601999998,1,1,1,0,NA,NA,NA,NA,NA,NA,NA,NA,NA,NA,NA,NA,NA,NA,NA,NA,NA,NA,NA,NA,NA,NA,NA,NA
"316","stim/objects/HouseObjects/lintroller.png",394,60,387,0.9,"stim/64.jpeg",6,4,3,2,"HouseObjects",1,2,"left","left",0.752999783,1,1,1,0,NA,NA,NA,NA,NA,NA,NA,NA,NA,NA,NA,NA,NA,NA,NA,NA,NA,NA,NA,NA,NA,NA,NA,NA
"429","stim/objects/Instruments/grandpiano2.png",395,60,388,0.3,"stim/44.jpeg",4,4,2,1,"Instruments",2,4,"right","left",0.609999895,0,0,1,0,149,60,1,0.3,2,"stim/44.jpeg",4,4,"stim/44.jpeg",4,"left",0.890999794,4,2,2.95299983,1,0.347999811,149,1,0,0,0,0,0
"535","stim/objects/Instruments/oboe.png",396,60,389,0.9,"stim/53.jpeg",5,3,3,2,"Instruments",2,2,"right","right",0.594000101,1,1,1,0,NA,NA,NA,NA,NA,NA,NA,NA,NA,NA,NA,NA,NA,NA,NA,NA,NA,NA,NA,NA,NA,NA,NA,NA
"351","stim/objects/HouseObjects/pan.png",397,60,390,0.9,"stim/64.jpeg",6,4,3,2,"HouseObjects",1,1,"left","left",0.511999846,1,1,1,0,NA,NA,NA,NA,NA,NA,NA,NA,NA,NA,NA,NA,NA,NA,NA,NA,NA,NA,NA,NA,NA,NA,NA,NA
"492","stim/objects/Instruments/musicsheet.png",398,60,391,0.9,"stim/51.jpeg",5,1,3,2,"Instruments",2,4,"right","left",0.627999783,0,0,1,0,NA,NA,NA,NA,NA,NA,NA,NA,NA,NA,NA,NA,NA,NA,NA,NA,NA,NA,NA,NA,NA,NA,NA,NA
"536","stim/objects/Instruments/oboe.png",399,60,392,0.9,"stim/51.jpeg",5,1,3,2,"Instruments",2,3,"right","right",0.592000008,1,1,1,0,NA,NA,NA,NA,NA,NA,NA,NA,NA,NA,NA,NA,NA,NA,NA,NA,NA,NA,NA,NA,NA,NA,NA,NA
"553","stim/objects/Instruments/tambourine.png",400,60,393,0.5,"stim/21.jpeg",2,1,1,1,"Instruments",2,2,"right","left",0.680999756,0,0,1,0,56,60,1,0.5,2,"stim/21.jpeg",2,1,"stim/21.jpeg",2,"right",1.220000029,4,2,2.163000107,4,0.736999989,56,0,0,NA,0,NA,0
"303","stim/objects/HouseObjects/knife.png",401,60,394,0.9,"stim/61.jpeg",6,1,3,2,"HouseObjects",1,1,"left","right",0.645999908,0,0,1,0,NA,NA,NA,NA,NA,NA,NA,NA,NA,NA,NA,NA,NA,NA,NA,NA,NA,NA,NA,NA,NA,NA,NA,NA
"457","stim/objects/Instruments/marimba.png",402,60,395,0.9,"stim/51.jpeg",5,1,3,2,"Instruments",2,4,"right","right",0.59100008,1,1,1,0,NA,NA,NA,NA,NA,NA,NA,NA,NA,NA,NA,NA,NA,NA,NA,NA,NA,NA,NA,NA,NA,NA,NA,NA
"421","stim/objects/Instruments/frenchhorn.png",403,60,396,0.5,"stim/23.jpeg",2,3,1,2,"Instruments",2,4,"right","left",0.677000046,0,0,1,0,NA,NA,NA,NA,NA,NA,NA,NA,NA,NA,NA,NA,NA,NA,NA,NA,NA,NA,NA,NA,NA,NA,NA,NA
"441","stim/objects/Instruments/hihat.png",404,60,397,0.7,"stim/34.jpeg",3,4,2,2,"Instruments",2,4,"right","right",0.503000021,1,1,1,0,NA,NA,NA,NA,NA,NA,NA,NA,NA,NA,NA,NA,NA,NA,NA,NA,NA,NA,NA,NA,NA,NA,NA,NA
"537","stim/objects/Instruments/oboe.png",405,60,398,0.9,"stim/54.jpeg",5,4,3,2,"Instruments",2,2,"right","right",0.677999973,1,1,1,0,NA,NA,NA,NA,NA,NA,NA,NA,NA,NA,NA,NA,NA,NA,NA,NA,NA,NA,NA,NA,NA,NA,NA,NA
"328","stim/objects/HouseObjects/match.png",406,60,399,0.9,"stim/64.jpeg",6,4,3,2,"HouseObjects",1,3,"left","left",0.436999798,1,1,1,0,NA,NA,NA,NA,NA,NA,NA,NA,NA,NA,NA,NA,NA,NA,NA,NA,NA,NA,NA,NA,NA,NA,NA,NA
"562","stim/objects/Instruments/trumpet2.png",407,60,400,0.1,"stim/64.jpeg",6,4,3,1,"Instruments",2,4,"right","left",0.77699995,0,0,1,0,13,60,1,0.1,2,"stim/64.jpeg",6,4,"stim/64.jpeg",4,"right",1.136999846,2,4,2.04399991,4,1.140000105,13,0,1,NA,1,NA,0
"302","stim/objects/HouseObjects/knife.png",408,60,401,0.9,"stim/62.jpeg",6,2,3,2,"HouseObjects",1,4,"left","left",0.539000034,1,1,1,0,NA,NA,NA,NA,NA,NA,NA,NA,NA,NA,NA,NA,NA,NA,NA,NA,NA,NA,NA,NA,NA,NA,NA,NA
"336","stim/objects/HouseObjects/match.png",409,60,402,0.9,"stim/63.jpeg",6,3,3,2,"HouseObjects",1,1,"left","left",0.575000048,1,1,1,0,NA,NA,NA,NA,NA,NA,NA,NA,NA,NA,NA,NA,NA,NA,NA,NA,NA,NA,NA,NA,NA,NA,NA,NA
"257","stim/objects/HouseObjects/flyswatter.png",410,60,403,0.5,"stim/24.jpeg",2,4,1,2,"HouseObjects",1,2,"left","right",0.617000103,0,0,1,0,NA,NA,NA,NA,NA,NA,NA,NA,NA,NA,NA,NA,NA,NA,NA,NA,NA,NA,NA,NA,NA,NA,NA,NA
"398","stim/objects/HouseObjects/thread.png",411,60,404,0.3,"stim/32.jpeg",3,2,2,1,"HouseObjects",1,1,"left","right",0.635999918,0,0,1,0,172,60,1,0.3,1,"stim/32.jpeg",3,2,"stim/32.jpeg",1,"left",1.164000034,4,3,0.808999777,4,0.439999819,172,1,0,0,0,0,0
"450","stim/objects/Instruments/laud.png",412,60,405,0.7,"stim/34.jpeg",3,4,2,2,"Instruments",2,3,"right","left",0.47300005,0,0,1,0,NA,NA,NA,NA,NA,NA,NA,NA,NA,NA,NA,NA,NA,NA,NA,NA,NA,NA,NA,NA,NA,NA,NA,NA
"388","stim/objects/HouseObjects/scale.png",413,60,406,0.5,"stim/22.jpeg",2,2,1,1,"HouseObjects",1,2,"left","",NA,0,0,1,0,134,60,1,0.5,2,"stim/22.jpeg",2,2,"stim/22.jpeg",2,"right",1.691999912,2,1,0.992999792,3,0.714999914,134,0,0,NA,0,NA,0
"403","stim/objects/HouseObjects/vacuumcleaner2.png",414,60,407,0.9,"stim/61.jpeg",6,1,3,1,"HouseObjects",1,1,"left","left",0.467000008,1,1,1,0,101,60,1,0.9,1,"stim/61.jpeg",6,1,"stim/61.jpeg",1,"right",1.656999826,4,1,0.834000111,1,0.677999973,101,0,1,NA,1,NA,0
"406","stim/objects/Instruments/drums.png",415,60,408,0.5,"stim/11.jpeg",1,1,1,2,"Instruments",2,3,"right","left",0.528000116,0,0,1,0,NA,NA,NA,NA,NA,NA,NA,NA,NA,NA,NA,NA,NA,NA,NA,NA,NA,NA,NA,NA,NA,NA,NA,NA
"478","stim/objects/Instruments/metronome.png",416,60,409,0.9,"stim/51.jpeg",5,1,3,2,"Instruments",2,1,"right","left",0.667000055,0,0,1,0,NA,NA,NA,NA,NA,NA,NA,NA,NA,NA,NA,NA,NA,NA,NA,NA,NA,NA,NA,NA,NA,NA,NA,NA
"515","stim/objects/Instruments/musicstand.png",417,60,410,0.9,"stim/51.jpeg",5,1,3,2,"Instruments",2,3,"right","right",0.605000019,1,1,1,0,NA,NA,NA,NA,NA,NA,NA,NA,NA,NA,NA,NA,NA,NA,NA,NA,NA,NA,NA,NA,NA,NA,NA,NA
"343","stim/objects/HouseObjects/pan.png",418,60,411,0.9,"stim/64.jpeg",6,4,3,2,"HouseObjects",1,2,"left","left",0.520999908,1,1,1,0,NA,NA,NA,NA,NA,NA,NA,NA,NA,NA,NA,NA,NA,NA,NA,NA,NA,NA,NA,NA,NA,NA,NA,NA
"466","stim/objects/Instruments/marimba.png",419,60,412,0.9,"stim/54.jpeg",5,4,3,2,"Instruments",2,3,"right","right",0.607999802,1,1,1,0,NA,NA,NA,NA,NA,NA,NA,NA,NA,NA,NA,NA,NA,NA,NA,NA,NA,NA,NA,NA,NA,NA,NA,NA
"285","stim/objects/HouseObjects/ironingboard.png",420,60,413,0.7,"stim/44.jpeg",4,4,2,2,"HouseObjects",1,2,"left","left",0.679999828,1,1,1,0,NA,NA,NA,NA,NA,NA,NA,NA,NA,NA,NA,NA,NA,NA,NA,NA,NA,NA,NA,NA,NA,NA,NA,NA
"485","stim/objects/Instruments/metronome.png",421,60,414,0.9,"stim/54.jpeg",5,4,3,2,"Instruments",2,1,"right","right",0.748999834,1,1,1,0,NA,NA,NA,NA,NA,NA,NA,NA,NA,NA,NA,NA,NA,NA,NA,NA,NA,NA,NA,NA,NA,NA,NA,NA
"517","stim/objects/Instruments/musicstand.png",422,60,415,0.9,"stim/51.jpeg",5,1,3,2,"Instruments",2,4,"right","right",0.602999926,1,1,1,0,NA,NA,NA,NA,NA,NA,NA,NA,NA,NA,NA,NA,NA,NA,NA,NA,NA,NA,NA,NA,NA,NA,NA,NA
"370","stim/objects/HouseObjects/pitcher.png",423,60,416,0.9,"stim/62.jpeg",6,2,3,2,"HouseObjects",1,3,"left","left",0.453999758,1,1,1,0,NA,NA,NA,NA,NA,NA,NA,NA,NA,NA,NA,NA,NA,NA,NA,NA,NA,NA,NA,NA,NA,NA,NA,NA
"305","stim/objects/HouseObjects/knife.png",424,60,417,0.9,"stim/62.jpeg",6,2,3,2,"HouseObjects",1,1,"left","left",0.598999739,1,1,1,0,NA,NA,NA,NA,NA,NA,NA,NA,NA,NA,NA,NA,NA,NA,NA,NA,NA,NA,NA,NA,NA,NA,NA,NA
"379","stim/objects/HouseObjects/remote2.png",425,60,418,0.1,"stim/53.jpeg",5,3,3,1,"HouseObjects",1,1,"left","right",0.532999992,0,0,1,0,181,60,1,0.1,1,"stim/53.jpeg",5,3,"stim/53.jpeg",1,"right",1.813999891,2,2,0.756000042,1,0.214999914,181,0,0,NA,1,NA,0
"262","stim/objects/HouseObjects/glass.png",426,60,419,0.5,"stim/22.jpeg",2,2,1,2,"HouseObjects",1,4,"left","left",0.524999857,1,1,1,0,NA,NA,NA,NA,NA,NA,NA,NA,NA,NA,NA,NA,NA,NA,NA,NA,NA,NA,NA,NA,NA,NA,NA,NA
"534","stim/objects/Instruments/oboe.png",427,60,420,0.9,"stim/54.jpeg",5,4,3,2,"Instruments",2,1,"right","left",0.487999916,0,0,1,0,NA,NA,NA,NA,NA,NA,NA,NA,NA,NA,NA,NA,NA,NA,NA,NA,NA,NA,NA,NA,NA,NA,NA,NA
"549","stim/objects/Instruments/saxophone.png",428,60,421,0.5,"stim/12.jpeg",1,2,1,1,"Instruments",2,3,"right","left",0.463999987,0,0,1,0,169,60,1,0.5,1,"stim/12.jpeg",1,2,"stim/12.jpeg",3,"right",0.875,3,2,0.803999901,1,0.762000084,169,0,1,NA,0,NA,0
"278","stim/objects/HouseObjects/handvacuum2.png",429,60,422,0.7,"stim/42.jpeg",4,2,2,1,"HouseObjects",1,4,"left","right",0.514999866,0,0,1,0,91,60,1,0.7,1,"stim/42.jpeg",4,2,"stim/42.jpeg",4,"left",2.855999947,2,1,2.246999979,3,0.576999903,91,1,0,0,0,0,0
"401","stim/objects/HouseObjects/towel2.png",430,60,423,0.9,"stim/64.jpeg",6,4,3,1,"HouseObjects",1,2,"left","left",0.611999989,1,1,1,0,51,60,1,0.9,1,"stim/64.jpeg",6,4,"stim/64.jpeg",2,"left",1.052000046,3,1,1.248000145,4,1.204999924,51,1,0,0,0,0,0
"250","stim/objects/HouseObjects/doormat.png",431,60,424,0.5,"stim/11.jpeg",1,1,1,2,"HouseObjects",1,1,"left","right",0.588999748,0,0,1,0,NA,NA,NA,NA,NA,NA,NA,NA,NA,NA,NA,NA,NA,NA,NA,NA,NA,NA,NA,NA,NA,NA,NA,NA
"404","stim/objects/HouseObjects/wateringcan.png",432,60,425,0.3,"stim/31.jpeg",3,1,2,1,"HouseObjects",1,1,"left","right",0.662999868,0,0,1,0,196,60,1,0.3,1,"stim/31.jpeg",3,1,"stim/31.jpeg",1,"right",0.952000141,4,1,1.074999809,1,0.335999966,196,0,1,NA,1,NA,0
"304","stim/objects/HouseObjects/knife.png",433,60,426,0.9,"stim/61.jpeg",6,1,3,2,"HouseObjects",1,3,"left","left",0.486000061,1,1,1,0,NA,NA,NA,NA,NA,NA,NA,NA,NA,NA,NA,NA,NA,NA,NA,NA,NA,NA,NA,NA,NA,NA,NA,NA
"434","stim/objects/Instruments/harmonica.png",434,60,427,0.5,"stim/23.jpeg",2,3,1,2,"Instruments",2,1,"right","left",0.631000042,0,0,1,0,NA,NA,NA,NA,NA,NA,NA,NA,NA,NA,NA,NA,NA,NA,NA,NA,NA,NA,NA,NA,NA,NA,NA,NA
"284","stim/objects/HouseObjects/ironingboard.png",435,60,428,0.7,"stim/42.jpeg",4,2,2,2,"HouseObjects",1,1,"left","right",0.538999796,0,0,1,0,NA,NA,NA,NA,NA,NA,NA,NA,NA,NA,NA,NA,NA,NA,NA,NA,NA,NA,NA,NA,NA,NA,NA,NA
"260","stim/objects/HouseObjects/garbagebin.png",436,60,429,0.5,"stim/24.jpeg",2,4,1,2,"HouseObjects",1,4,"left","right",0.570999861,0,0,1,0,NA,NA,NA,NA,NA,NA,NA,NA,NA,NA,NA,NA,NA,NA,NA,NA,NA,NA,NA,NA,NA,NA,NA,NA
"320","stim/objects/HouseObjects/lintroller.png",437,60,430,0.9,"stim/61.jpeg",6,1,3,2,"HouseObjects",1,1,"left","left",0.495999813,1,1,1,0,NA,NA,NA,NA,NA,NA,NA,NA,NA,NA,NA,NA,NA,NA,NA,NA,NA,NA,NA,NA,NA,NA,NA,NA
"248","stim/objects/HouseObjects/dishsoap.png",438,60,431,0.5,"stim/13.jpeg",1,3,1,2,"HouseObjects",1,4,"left","right",0.648000002,0,0,1,0,NA,NA,NA,NA,NA,NA,NA,NA,NA,NA,NA,NA,NA,NA,NA,NA,NA,NA,NA,NA,NA,NA,NA,NA
"446","stim/objects/Instruments/keyboard.png",439,60,432,0.7,"stim/33.jpeg",3,3,2,2,"Instruments",2,4,"right","left",0.493999958,0,0,1,0,NA,NA,NA,NA,NA,NA,NA,NA,NA,NA,NA,NA,NA,NA,NA,NA,NA,NA,NA,NA,NA,NA,NA,NA
"500","stim/objects/Instruments/musicsheet.png",440,60,433,0.9,"stim/54.jpeg",5,4,3,2,"Instruments",2,2,"right","right",0.421000004,1,1,1,0,NA,NA,NA,NA,NA,NA,NA,NA,NA,NA,NA,NA,NA,NA,NA,NA,NA,NA,NA,NA,NA,NA,NA,NA
"565","stim/objects/Instruments/violin.png",441,60,434,0.7,"stim/34.jpeg",3,4,2,1,"Instruments",2,4,"right","right",0.520999908,1,1,1,0,174,60,1,0.7,2,"stim/34.jpeg",3,4,"stim/34.jpeg",4,"left",0.948999882,4,3,3.563999891,4,0.159999847,174,1,0,0,1,1,0
"346","stim/objects/HouseObjects/pan.png",442,60,435,0.9,"stim/63.jpeg",6,3,3,2,"HouseObjects",1,4,"left","right",0.494999886,0,0,1,0,NA,NA,NA,NA,NA,NA,NA,NA,NA,NA,NA,NA,NA,NA,NA,NA,NA,NA,NA,NA,NA,NA,NA,NA
"488","stim/objects/Instruments/metronome.png",443,60,436,0.9,"stim/52.jpeg",5,2,3,2,"Instruments",2,3,"right","left",0.486999989,0,0,1,0,NA,NA,NA,NA,NA,NA,NA,NA,NA,NA,NA,NA,NA,NA,NA,NA,NA,NA,NA,NA,NA,NA,NA,NA
"372","stim/objects/HouseObjects/pitcher.png",444,60,437,0.9,"stim/63.jpeg",6,3,3,2,"HouseObjects",1,3,"left","left",0.552000046,1,1,1,0,NA,NA,NA,NA,NA,NA,NA,NA,NA,NA,NA,NA,NA,NA,NA,NA,NA,NA,NA,NA,NA,NA,NA,NA
"321","stim/objects/HouseObjects/lintroller.png",445,60,438,0.9,"stim/63.jpeg",6,3,3,2,"HouseObjects",1,1,"left","left",0.663000107,1,1,1,0,NA,NA,NA,NA,NA,NA,NA,NA,NA,NA,NA,NA,NA,NA,NA,NA,NA,NA,NA,NA,NA,NA,NA,NA
"319","stim/objects/HouseObjects/lintroller.png",446,60,439,0.9,"stim/62.jpeg",6,2,3,2,"HouseObjects",1,1,"left","right",0.652999878,0,0,1,0,NA,NA,NA,NA,NA,NA,NA,NA,NA,NA,NA,NA,NA,NA,NA,NA,NA,NA,NA,NA,NA,NA,NA,NA
"425","stim/objects/Instruments/gong.png",447,60,440,0.5,"stim/24.jpeg",2,4,1,2,"Instruments",2,2,"right","left",0.701999903,0,0,1,0,NA,NA,NA,NA,NA,NA,NA,NA,NA,NA,NA,NA,NA,NA,NA,NA,NA,NA,NA,NA,NA,NA,NA,NA
"405","stim/objects/HouseObjects/wateringcan2.png",448,60,441,0.9,"stim/62.jpeg",6,2,3,1,"HouseObjects",1,4,"left","left",0.575999975,1,1,1,0,6,60,1,0.9,1,"stim/62.jpeg",6,2,"stim/62.jpeg",4,"right",0.95299983,4,4,5.368000031,1,0.987999916,6,0,0,NA,0,NA,0
"322","stim/objects/HouseObjects/lintroller.png",449,60,442,0.9,"stim/63.jpeg",6,3,3,2,"HouseObjects",1,2,"left","left",0.697999954,1,1,1,0,NA,NA,NA,NA,NA,NA,NA,NA,NA,NA,NA,NA,NA,NA,NA,NA,NA,NA,NA,NA,NA,NA,NA,NA
"467","stim/objects/Instruments/marimba.png",450,60,443,0.9,"stim/52.jpeg",5,2,3,2,"Instruments",2,3,"right","right",0.820999861,1,1,1,0,NA,NA,NA,NA,NA,NA,NA,NA,NA,NA,NA,NA,NA,NA,NA,NA,NA,NA,NA,NA,NA,NA,NA,NA
"347","stim/objects/HouseObjects/pan.png",451,60,444,0.9,"stim/62.jpeg",6,2,3,2,"HouseObjects",1,4,"left","left",0.56099987,1,1,1,0,NA,NA,NA,NA,NA,NA,NA,NA,NA,NA,NA,NA,NA,NA,NA,NA,NA,NA,NA,NA,NA,NA,NA,NA
"538","stim/objects/Instruments/oboe.png",452,60,445,0.9,"stim/54.jpeg",5,4,3,2,"Instruments",2,3,"right","right",0.620999813,1,1,1,0,NA,NA,NA,NA,NA,NA,NA,NA,NA,NA,NA,NA,NA,NA,NA,NA,NA,NA,NA,NA,NA,NA,NA,NA
"519","stim/objects/Instruments/musicstand.png",453,60,446,0.9,"stim/54.jpeg",5,4,3,2,"Instruments",2,4,"right","right",0.494999886,1,1,1,0,NA,NA,NA,NA,NA,NA,NA,NA,NA,NA,NA,NA,NA,NA,NA,NA,NA,NA,NA,NA,NA,NA,NA,NA
"561","stim/objects/Instruments/trumpet.png",454,60,447,0.7,"stim/32.jpeg",3,2,2,1,"Instruments",2,2,"right","right",0.568000078,1,1,1,0,63,60,1,0.7,2,"stim/32.jpeg",3,2,"stim/32.jpeg",2,"left",0.986999989,4,4,7.327000141,1,0.799999952,63,1,0,0,0,0,0
"453","stim/objects/Instruments/maraca.png",455,60,448,0.7,"stim/31.jpeg",3,1,2,2,"Instruments",2,1,"right","right",0.570999861,1,1,1,0,NA,NA,NA,NA,NA,NA,NA,NA,NA,NA,NA,NA,NA,NA,NA,NA,NA,NA,NA,NA,NA,NA,NA,NA
"314","stim/objects/HouseObjects/lintroller.png",456,60,449,0.9,"stim/61.jpeg",6,1,3,2,"HouseObjects",1,3,"left","left",0.521999836,1,1,1,0,NA,NA,NA,NA,NA,NA,NA,NA,NA,NA,NA,NA,NA,NA,NA,NA,NA,NA,NA,NA,NA,NA,NA,NA
"509","stim/objects/Instruments/musicstand.png",457,60,450,0.9,"stim/51.jpeg",5,1,3,2,"Instruments",2,4,"right","right",0.599999905,1,1,1,0,NA,NA,NA,NA,NA,NA,NA,NA,NA,NA,NA,NA,NA,NA,NA,NA,NA,NA,NA,NA,NA,NA,NA,NA
"274","stim/objects/HouseObjects/handbrush2.png",458,60,451,0.7,"stim/41.jpeg",4,1,2,1,"HouseObjects",1,1,"left","left",0.803999901,1,1,1,0,79,60,1,0.7,1,"stim/41.jpeg",4,1,"stim/41.jpeg",1,"left",1.10800004,4,4,6.339999914,1,0.447000027,79,1,0,0,1,1,0
"486","stim/objects/Instruments/metronome.png",459,60,452,0.9,"stim/53.jpeg",5,3,3,2,"Instruments",2,3,"right","right",0.509999752,1,1,1,0,NA,NA,NA,NA,NA,NA,NA,NA,NA,NA,NA,NA,NA,NA,NA,NA,NA,NA,NA,NA,NA,NA,NA,NA
"399","stim/objects/HouseObjects/thread2.png",460,60,453,0.9,"stim/63.jpeg",6,3,3,1,"HouseObjects",1,3,"left","left",0.53399992,1,1,1,0,60,60,1,0.9,1,"stim/63.jpeg",6,3,"stim/63.jpeg",3,"left",1.538999796,3,2,1.182999849,1,0.832999945,60,1,0,0,0,0,0
"469","stim/objects/Instruments/marimba.png",461,60,454,0.9,"stim/54.jpeg",5,4,3,2,"Instruments",2,4,"right","right",0.461999893,1,1,1,0,NA,NA,NA,NA,NA,NA,NA,NA,NA,NA,NA,NA,NA,NA,NA,NA,NA,NA,NA,NA,NA,NA,NA,NA
"242","stim/objects/HouseObjects/coffee.png",462,60,455,0.5,"stim/11.jpeg",1,1,1,2,"HouseObjects",1,2,"left","left",0.488999844,1,1,1,0,NA,NA,NA,NA,NA,NA,NA,NA,NA,NA,NA,NA,NA,NA,NA,NA,NA,NA,NA,NA,NA,NA,NA,NA
"470","stim/objects/Instruments/marimba.png",463,60,456,0.9,"stim/51.jpeg",5,1,3,2,"Instruments",2,3,"right","right",0.64199996,1,1,1,0,NA,NA,NA,NA,NA,NA,NA,NA,NA,NA,NA,NA,NA,NA,NA,NA,NA,NA,NA,NA,NA,NA,NA,NA
"400","stim/objects/HouseObjects/towel.png",464,60,457,0.3,"stim/33.jpeg",3,3,2,1,"HouseObjects",1,4,"left","left",0.521999836,1,1,1,0,163,60,1,0.3,1,"stim/33.jpeg",3,3,"stim/33.jpeg",4,"left",1.065999985,4,3,1.217000008,4,0.694999933,163,1,1,1,1,1,0
"480","stim/objects/Instruments/metronome.png",465,60,458,0.9,"stim/52.jpeg",5,2,3,2,"Instruments",2,4,"right","right",0.684999943,1,1,1,0,NA,NA,NA,NA,NA,NA,NA,NA,NA,NA,NA,NA,NA,NA,NA,NA,NA,NA,NA,NA,NA,NA,NA,NA
"338","stim/objects/HouseObjects/match.png",466,60,459,0.9,"stim/63.jpeg",6,3,3,2,"HouseObjects",1,2,"left","left",0.493999958,1,1,1,0,NA,NA,NA,NA,NA,NA,NA,NA,NA,NA,NA,NA,NA,NA,NA,NA,NA,NA,NA,NA,NA,NA,NA,NA
"556","stim/objects/Instruments/timbal2.png",467,60,460,0.1,"stim/61.jpeg",6,1,3,1,"Instruments",2,2,"right","left",0.647000074,0,0,1,0,186,60,1,0.1,2,"stim/61.jpeg",6,1,"stim/61.jpeg",2,"left",1.229999781,4,3,1.342999935,1,0.231999874,186,1,0,0,0,0,0
"365","stim/objects/HouseObjects/pitcher.png",468,60,461,0.9,"stim/61.jpeg",6,1,3,2,"HouseObjects",1,3,"left","left",0.43900013,1,1,1,0,NA,NA,NA,NA,NA,NA,NA,NA,NA,NA,NA,NA,NA,NA,NA,NA,NA,NA,NA,NA,NA,NA,NA,NA
