"","obj_file","X.x","participant.x","trialN.x","trial_cond","scn_file.x","scn_cat","scn_inst","scn_condition","fillers","obj_cat","obj_cat_num","quadrant","corr_ans","key_resp_trial.keys","key_resp_trial.rt","trial_acc","trial_acc_manual","group.x","practice","X.y","participant.y","OvsN","PE_level","object_cat","scn_file.y","corr_scn_cat","corr_scn_inst","scn_file.1","corr_loc","key_resp_id.keys","key_resp_id.rt","key_resp_conf.keys","key_resp_assoc.keys","key_resp_assoc.rt","key_resp_loc.keys","key_resp_loc.rt","trialN.y","id_acc","assoc.acc","cond_assoc","loc.acc","cond_loc","group.y"
"80","stim/objects/HouseObjects/glass2.png",1,1,1,0.9,"stim/14.jpeg",1,4,3,NA,"HouseObjects",2,3,"right","",NA,0,0,1,1,NA,NA,NA,NA,NA,NA,NA,NA,NA,NA,NA,NA,NA,NA,NA,NA,NA,NA,NA,NA,NA,NA,NA,NA
"220","stim/objects/Instruments/harp2.png",2,1,2,0.9,"stim/23.jpeg",2,3,3,NA,"Instruments",1,2,"left","left",0.572000265,1,1,1,1,NA,NA,NA,NA,NA,NA,NA,NA,NA,NA,NA,NA,NA,NA,NA,NA,NA,NA,NA,NA,NA,NA,NA,NA
"175","stim/objects/Instruments/frenchhorn.png",3,1,3,0.5,"stim/42.jpeg",4,2,1,NA,"Instruments",1,3,"left","right",0.754000187,0,0,1,1,NA,NA,NA,NA,NA,NA,NA,NA,NA,NA,NA,NA,NA,NA,NA,NA,NA,NA,NA,NA,NA,NA,NA,NA
"105","stim/objects/HouseObjects/handbrush.png",4,1,4,0.7,"stim/53.jpeg",5,3,2,NA,"HouseObjects",2,3,"right","right",0.608999968,1,1,1,1,NA,NA,NA,NA,NA,NA,NA,NA,NA,NA,NA,NA,NA,NA,NA,NA,NA,NA,NA,NA,NA,NA,NA,NA
"52","stim/objects/HouseObjects/flyswatter2.png",5,1,5,0.9,"stim/12.jpeg",1,2,3,NA,"HouseObjects",2,4,"right","",NA,0,0,1,1,NA,NA,NA,NA,NA,NA,NA,NA,NA,NA,NA,NA,NA,NA,NA,NA,NA,NA,NA,NA,NA,NA,NA,NA
"138","stim/objects/Instruments/electricdrumset2.png",6,1,6,0.7,"stim/62.jpeg",6,2,2,NA,"Instruments",1,4,"left","",NA,0,0,1,1,NA,NA,NA,NA,NA,NA,NA,NA,NA,NA,NA,NA,NA,NA,NA,NA,NA,NA,NA,NA,NA,NA,NA,NA
"61","stim/objects/HouseObjects/garbagebin.png",7,1,7,0.5,"stim/43.jpeg",4,3,1,NA,"HouseObjects",2,2,"right","left",0.669000149,0,0,1,1,NA,NA,NA,NA,NA,NA,NA,NA,NA,NA,NA,NA,NA,NA,NA,NA,NA,NA,NA,NA,NA,NA,NA,NA
"208","stim/objects/Instruments/harmonica2.png",8,1,8,0.9,"stim/22.jpeg",2,2,3,NA,"Instruments",1,2,"left","left",0.657000065,1,1,1,1,NA,NA,NA,NA,NA,NA,NA,NA,NA,NA,NA,NA,NA,NA,NA,NA,NA,NA,NA,NA,NA,NA,NA,NA
"181","stim/objects/Instruments/gong.png",9,1,9,0.5,"stim/43.jpeg",4,3,1,NA,"Instruments",1,4,"left","right",0.861999989,0,0,1,1,NA,NA,NA,NA,NA,NA,NA,NA,NA,NA,NA,NA,NA,NA,NA,NA,NA,NA,NA,NA,NA,NA,NA,NA
"113","stim/objects/HouseObjects/handvacuum.png",10,1,10,0.7,"stim/54.jpeg",5,4,2,NA,"HouseObjects",2,1,"right","right",0.546000004,1,1,1,1,NA,NA,NA,NA,NA,NA,NA,NA,NA,NA,NA,NA,NA,NA,NA,NA,NA,NA,NA,NA,NA,NA,NA,NA
"66","stim/objects/HouseObjects/garbagebin2.png",11,1,11,0.9,"stim/13.jpeg",1,3,3,NA,"HouseObjects",2,2,"right","",NA,0,0,1,1,NA,NA,NA,NA,NA,NA,NA,NA,NA,NA,NA,NA,NA,NA,NA,NA,NA,NA,NA,NA,NA,NA,NA,NA
"38","stim/objects/HouseObjects/dustpan2.png",12,1,12,0.9,"stim/11.jpeg",1,1,3,NA,"HouseObjects",2,4,"right","right",0.552000284,1,1,1,1,NA,NA,NA,NA,NA,NA,NA,NA,NA,NA,NA,NA,NA,NA,NA,NA,NA,NA,NA,NA,NA,NA,NA,NA
"25","stim/objects/HouseObjects/doormat.png",13,1,13,0.5,"stim/34.jpeg",3,4,1,NA,"HouseObjects",2,1,"right","left",0.679000139,0,0,1,1,NA,NA,NA,NA,NA,NA,NA,NA,NA,NA,NA,NA,NA,NA,NA,NA,NA,NA,NA,NA,NA,NA,NA,NA
"47","stim/objects/HouseObjects/flyswatter.png",14,1,14,0.5,"stim/42.jpeg",4,2,1,NA,"HouseObjects",2,4,"right","left",0.851999998,0,0,1,1,NA,NA,NA,NA,NA,NA,NA,NA,NA,NA,NA,NA,NA,NA,NA,NA,NA,NA,NA,NA,NA,NA,NA,NA
"196","stim/objects/Instruments/guitarcase2.png",15,1,15,0.9,"stim/21.jpeg",2,1,3,NA,"Instruments",1,3,"left","left",0.568000078,1,1,1,1,NA,NA,NA,NA,NA,NA,NA,NA,NA,NA,NA,NA,NA,NA,NA,NA,NA,NA,NA,NA,NA,NA,NA,NA
"187","stim/objects/Instruments/grandpiano.png",16,1,16,0.5,"stim/44.jpeg",4,4,1,NA,"Instruments",1,4,"left","left",0.769000053,1,1,1,1,NA,NA,NA,NA,NA,NA,NA,NA,NA,NA,NA,NA,NA,NA,NA,NA,NA,NA,NA,NA,NA,NA,NA,NA
"197","stim/objects/Instruments/guitarcase2.png",17,1,17,0.9,"stim/21.jpeg",2,1,3,NA,"Instruments",1,4,"left","left",0.607000113,1,1,1,1,NA,NA,NA,NA,NA,NA,NA,NA,NA,NA,NA,NA,NA,NA,NA,NA,NA,NA,NA,NA,NA,NA,NA,NA
"1","stim/objects/HouseObjects/coffee.png",18,1,18,0.5,"stim/31.jpeg",3,1,1,NA,"HouseObjects",2,4,"right","",NA,0,0,1,1,NA,NA,NA,NA,NA,NA,NA,NA,NA,NA,NA,NA,NA,NA,NA,NA,NA,NA,NA,NA,NA,NA,NA,NA
"75","stim/objects/HouseObjects/glass.png",19,1,19,0.5,"stim/44.jpeg",4,4,1,NA,"HouseObjects",2,4,"right","right",0.720999956,1,1,1,1,NA,NA,NA,NA,NA,NA,NA,NA,NA,NA,NA,NA,NA,NA,NA,NA,NA,NA,NA,NA,NA,NA,NA,NA
"169","stim/objects/Instruments/flutetrans.png",20,1,20,0.5,"stim/41.jpeg",4,1,1,NA,"Instruments",1,3,"left","left",0.741000175,1,1,1,1,NA,NA,NA,NA,NA,NA,NA,NA,NA,NA,NA,NA,NA,NA,NA,NA,NA,NA,NA,NA,NA,NA,NA,NA
"133","stim/objects/Instruments/electricdrumset.png",21,1,21,0.5,"stim/32.jpeg",3,2,1,NA,"Instruments",1,2,"left","left",0.611999989,1,1,1,1,NA,NA,NA,NA,NA,NA,NA,NA,NA,NA,NA,NA,NA,NA,NA,NA,NA,NA,NA,NA,NA,NA,NA,NA
"53","stim/objects/HouseObjects/flyswatter2.png",22,1,22,0.9,"stim/12.jpeg",1,2,3,NA,"HouseObjects",2,4,"right","right",0.561000109,1,1,1,1,NA,NA,NA,NA,NA,NA,NA,NA,NA,NA,NA,NA,NA,NA,NA,NA,NA,NA,NA,NA,NA,NA,NA,NA
"170","stim/objects/Instruments/flutetrans.png",23,1,23,0.5,"stim/41.jpeg",4,1,1,NA,"Instruments",1,1,"left","right",0.657000065,0,0,1,1,NA,NA,NA,NA,NA,NA,NA,NA,NA,NA,NA,NA,NA,NA,NA,NA,NA,NA,NA,NA,NA,NA,NA,NA
"97","stim/objects/HouseObjects/hairdryer.png",24,1,24,0.7,"stim/52.jpeg",5,2,2,NA,"HouseObjects",2,3,"right","right",0.621000051,1,1,1,1,NA,NA,NA,NA,NA,NA,NA,NA,NA,NA,NA,NA,NA,NA,NA,NA,NA,NA,NA,NA,NA,NA,NA,NA
"9","stim/objects/HouseObjects/cushion.png",25,1,25,0.5,"stim/32.jpeg",3,2,1,NA,"HouseObjects",2,1,"right","left",0.567000151,0,0,1,1,NA,NA,NA,NA,NA,NA,NA,NA,NA,NA,NA,NA,NA,NA,NA,NA,NA,NA,NA,NA,NA,NA,NA,NA
"67","stim/objects/HouseObjects/garbagebin2.png",26,1,26,0.9,"stim/13.jpeg",1,3,3,NA,"HouseObjects",2,2,"right","right",0.554000139,1,1,1,1,NA,NA,NA,NA,NA,NA,NA,NA,NA,NA,NA,NA,NA,NA,NA,NA,NA,NA,NA,NA,NA,NA,NA,NA
"232","stim/objects/Instruments/hihat2.png",27,1,27,0.9,"stim/24.jpeg",2,4,3,NA,"Instruments",1,2,"left","left",0.553000212,1,1,1,1,NA,NA,NA,NA,NA,NA,NA,NA,NA,NA,NA,NA,NA,NA,NA,NA,NA,NA,NA,NA,NA,NA,NA,NA
"10","stim/objects/HouseObjects/cushion.png",28,1,28,0.5,"stim/32.jpeg",3,2,1,NA,"HouseObjects",2,4,"right","right",0.657000065,1,1,1,1,NA,NA,NA,NA,NA,NA,NA,NA,NA,NA,NA,NA,NA,NA,NA,NA,NA,NA,NA,NA,NA,NA,NA,NA
"112","stim/objects/HouseObjects/handbrush2.png",29,1,29,0.1,"stim/23.jpeg",2,3,3,NA,"HouseObjects",2,1,"right","left",0.471999884,0,0,1,1,NA,NA,NA,NA,NA,NA,NA,NA,NA,NA,NA,NA,NA,NA,NA,NA,NA,NA,NA,NA,NA,NA,NA,NA
"76","stim/objects/HouseObjects/glass.png",30,1,30,0.5,"stim/44.jpeg",4,4,1,NA,"HouseObjects",2,2,"right","left",0.851000071,0,0,1,1,NA,NA,NA,NA,NA,NA,NA,NA,NA,NA,NA,NA,NA,NA,NA,NA,NA,NA,NA,NA,NA,NA,NA,NA
"114","stim/objects/HouseObjects/handvacuum.png",31,1,31,0.7,"stim/54.jpeg",5,4,2,NA,"HouseObjects",2,4,"right","right",0.593000174,1,1,1,1,NA,NA,NA,NA,NA,NA,NA,NA,NA,NA,NA,NA,NA,NA,NA,NA,NA,NA,NA,NA,NA,NA,NA,NA
"26","stim/objects/HouseObjects/doormat.png",32,1,32,0.5,"stim/34.jpeg",3,4,1,NA,"HouseObjects",2,1,"right","right",0.667000055,1,1,1,1,NA,NA,NA,NA,NA,NA,NA,NA,NA,NA,NA,NA,NA,NA,NA,NA,NA,NA,NA,NA,NA,NA,NA,NA
"198","stim/objects/Instruments/guitarcase2.png",33,1,33,0.9,"stim/21.jpeg",2,1,3,NA,"Instruments",1,2,"left","left",0.572000265,1,1,1,1,NA,NA,NA,NA,NA,NA,NA,NA,NA,NA,NA,NA,NA,NA,NA,NA,NA,NA,NA,NA,NA,NA,NA,NA
"157","stim/objects/Instruments/flute.png",34,1,34,0.5,"stim/34.jpeg",3,4,1,NA,"Instruments",1,3,"left","left",0.611000061,1,1,1,1,NA,NA,NA,NA,NA,NA,NA,NA,NA,NA,NA,NA,NA,NA,NA,NA,NA,NA,NA,NA,NA,NA,NA,NA
"106","stim/objects/HouseObjects/handbrush.png",35,1,35,0.7,"stim/53.jpeg",5,3,2,NA,"HouseObjects",2,3,"right","right",0.577000141,1,1,1,1,NA,NA,NA,NA,NA,NA,NA,NA,NA,NA,NA,NA,NA,NA,NA,NA,NA,NA,NA,NA,NA,NA,NA,NA
"126","stim/objects/Instruments/drums2.png",36,1,36,0.7,"stim/61.jpeg",6,1,2,NA,"Instruments",1,3,"left","left",0.620000124,1,1,1,1,NA,NA,NA,NA,NA,NA,NA,NA,NA,NA,NA,NA,NA,NA,NA,NA,NA,NA,NA,NA,NA,NA,NA,NA
"162","stim/objects/Instruments/flute2.png",37,1,37,0.7,"stim/64.jpeg",6,4,2,NA,"Instruments",1,4,"left","left",0.773000002,1,1,1,1,NA,NA,NA,NA,NA,NA,NA,NA,NA,NA,NA,NA,NA,NA,NA,NA,NA,NA,NA,NA,NA,NA,NA,NA
"48","stim/objects/HouseObjects/flyswatter.png",38,1,38,0.5,"stim/42.jpeg",4,2,1,NA,"HouseObjects",2,1,"right","right",0.57400012,1,1,1,1,NA,NA,NA,NA,NA,NA,NA,NA,NA,NA,NA,NA,NA,NA,NA,NA,NA,NA,NA,NA,NA,NA,NA,NA
"89","stim/objects/HouseObjects/glassmop.png",39,1,39,0.7,"stim/51.jpeg",5,1,2,NA,"HouseObjects",2,4,"right","right",0.513000011,1,1,1,1,NA,NA,NA,NA,NA,NA,NA,NA,NA,NA,NA,NA,NA,NA,NA,NA,NA,NA,NA,NA,NA,NA,NA,NA
"98","stim/objects/HouseObjects/hairdryer.png",40,1,40,0.7,"stim/52.jpeg",5,2,2,NA,"HouseObjects",2,4,"right","right",0.421000242,1,1,1,1,NA,NA,NA,NA,NA,NA,NA,NA,NA,NA,NA,NA,NA,NA,NA,NA,NA,NA,NA,NA,NA,NA,NA,NA
"171","stim/objects/Instruments/flutetrans.png",41,1,41,0.5,"stim/41.jpeg",4,1,1,NA,"Instruments",1,4,"left","left",0.776000023,1,1,1,1,NA,NA,NA,NA,NA,NA,NA,NA,NA,NA,NA,NA,NA,NA,NA,NA,NA,NA,NA,NA,NA,NA,NA,NA
"233","stim/objects/Instruments/hihat2.png",42,1,42,0.9,"stim/24.jpeg",2,4,3,NA,"Instruments",1,3,"left","left",0.476999998,1,1,1,1,NA,NA,NA,NA,NA,NA,NA,NA,NA,NA,NA,NA,NA,NA,NA,NA,NA,NA,NA,NA,NA,NA,NA,NA
"145","stim/objects/Instruments/electricguitar.png",43,1,43,0.5,"stim/33.jpeg",3,3,1,NA,"Instruments",1,3,"left","right",0.673000097,0,0,1,1,NA,NA,NA,NA,NA,NA,NA,NA,NA,NA,NA,NA,NA,NA,NA,NA,NA,NA,NA,NA,NA,NA,NA,NA
"54","stim/objects/HouseObjects/flyswatter2.png",44,1,44,0.9,"stim/12.jpeg",1,2,3,NA,"HouseObjects",2,1,"right","right",0.693000078,1,1,1,1,NA,NA,NA,NA,NA,NA,NA,NA,NA,NA,NA,NA,NA,NA,NA,NA,NA,NA,NA,NA,NA,NA,NA,NA
"6","stim/objects/HouseObjects/coffee2.png",45,1,45,0.3,"stim/61.jpeg",6,1,2,NA,"HouseObjects",2,4,"right","left",0.606000185,0,0,1,1,NA,NA,NA,NA,NA,NA,NA,NA,NA,NA,NA,NA,NA,NA,NA,NA,NA,NA,NA,NA,NA,NA,NA,NA
"11","stim/objects/HouseObjects/cushion.png",46,1,46,0.5,"stim/32.jpeg",3,2,1,NA,"HouseObjects",2,2,"right","right",0.652000189,1,1,1,1,NA,NA,NA,NA,NA,NA,NA,NA,NA,NA,NA,NA,NA,NA,NA,NA,NA,NA,NA,NA,NA,NA,NA,NA
"234","stim/objects/Instruments/hihat2.png",47,1,47,0.9,"stim/24.jpeg",2,4,3,NA,"Instruments",1,2,"left","left",0.562999964,1,1,1,1,NA,NA,NA,NA,NA,NA,NA,NA,NA,NA,NA,NA,NA,NA,NA,NA,NA,NA,NA,NA,NA,NA,NA,NA
"12","stim/objects/HouseObjects/cushion.png",48,1,48,0.5,"stim/32.jpeg",3,2,1,NA,"HouseObjects",2,2,"right","right",0.657000065,1,1,1,1,NA,NA,NA,NA,NA,NA,NA,NA,NA,NA,NA,NA,NA,NA,NA,NA,NA,NA,NA,NA,NA,NA,NA,NA
"180","stim/objects/Instruments/frenchhorn2.png",49,1,49,0.1,"stim/12.jpeg",1,2,3,NA,"Instruments",1,2,"left","",NA,0,0,1,1,NA,NA,NA,NA,NA,NA,NA,NA,NA,NA,NA,NA,NA,NA,NA,NA,NA,NA,NA,NA,NA,NA,NA,NA
"221","stim/objects/Instruments/harp2.png",50,1,50,0.9,"stim/23.jpeg",2,3,3,NA,"Instruments",1,3,"left","left",0.493000269,1,1,1,1,NA,NA,NA,NA,NA,NA,NA,NA,NA,NA,NA,NA,NA,NA,NA,NA,NA,NA,NA,NA,NA,NA,NA,NA
"13","stim/objects/HouseObjects/cushion.png",51,1,51,0.5,"stim/32.jpeg",3,2,1,NA,"HouseObjects",2,4,"right","left",0.659000158,0,0,1,1,NA,NA,NA,NA,NA,NA,NA,NA,NA,NA,NA,NA,NA,NA,NA,NA,NA,NA,NA,NA,NA,NA,NA,NA
"127","stim/objects/Instruments/drums2.png",52,1,52,0.7,"stim/61.jpeg",6,1,2,NA,"Instruments",1,4,"left","left",0.539999962,1,1,1,1,NA,NA,NA,NA,NA,NA,NA,NA,NA,NA,NA,NA,NA,NA,NA,NA,NA,NA,NA,NA,NA,NA,NA,NA
"14","stim/objects/HouseObjects/cushion2.png",53,1,53,0.3,"stim/62.jpeg",6,2,2,NA,"HouseObjects",2,1,"right","left",0.669000149,0,0,1,1,NA,NA,NA,NA,NA,NA,NA,NA,NA,NA,NA,NA,NA,NA,NA,NA,NA,NA,NA,NA,NA,NA,NA,NA
"115","stim/objects/HouseObjects/handvacuum.png",54,1,54,0.7,"stim/54.jpeg",5,4,2,NA,"HouseObjects",2,4,"right","right",0.647000074,1,1,1,1,NA,NA,NA,NA,NA,NA,NA,NA,NA,NA,NA,NA,NA,NA,NA,NA,NA,NA,NA,NA,NA,NA,NA,NA
"150","stim/objects/Instruments/electricguitar2.png",55,1,55,0.7,"stim/63.jpeg",6,3,2,NA,"Instruments",1,2,"left","right",0.617000103,0,0,1,1,NA,NA,NA,NA,NA,NA,NA,NA,NA,NA,NA,NA,NA,NA,NA,NA,NA,NA,NA,NA,NA,NA,NA,NA
"30","stim/objects/HouseObjects/doormat2.png",56,1,56,0.3,"stim/64.jpeg",6,4,2,NA,"HouseObjects",2,3,"right","left",0.565000057,0,0,1,1,NA,NA,NA,NA,NA,NA,NA,NA,NA,NA,NA,NA,NA,NA,NA,NA,NA,NA,NA,NA,NA,NA,NA,NA
"55","stim/objects/HouseObjects/flyswatter2.png",57,1,57,0.9,"stim/12.jpeg",1,2,3,NA,"HouseObjects",2,1,"right","left",0.503000021,0,0,1,1,NA,NA,NA,NA,NA,NA,NA,NA,NA,NA,NA,NA,NA,NA,NA,NA,NA,NA,NA,NA,NA,NA,NA,NA
"222","stim/objects/Instruments/harp2.png",58,1,58,0.9,"stim/23.jpeg",2,3,3,NA,"Instruments",1,1,"left","left",0.594000101,1,1,1,1,NA,NA,NA,NA,NA,NA,NA,NA,NA,NA,NA,NA,NA,NA,NA,NA,NA,NA,NA,NA,NA,NA,NA,NA
"174","stim/objects/Instruments/flutetrans2.png",59,1,59,0.1,"stim/11.jpeg",1,1,3,NA,"Instruments",1,3,"left","right",0.525000095,0,0,1,1,NA,NA,NA,NA,NA,NA,NA,NA,NA,NA,NA,NA,NA,NA,NA,NA,NA,NA,NA,NA,NA,NA,NA,NA
"107","stim/objects/HouseObjects/handbrush.png",60,1,60,0.7,"stim/53.jpeg",5,3,2,NA,"HouseObjects",2,4,"right","left",0.852999926,0,0,1,1,NA,NA,NA,NA,NA,NA,NA,NA,NA,NA,NA,NA,NA,NA,NA,NA,NA,NA,NA,NA,NA,NA,NA,NA
"22","stim/objects/HouseObjects/dishsoap2.png",61,1,61,0.3,"stim/63.jpeg",6,3,2,NA,"HouseObjects",2,2,"right","left",0.551000118,0,0,1,1,NA,NA,NA,NA,NA,NA,NA,NA,NA,NA,NA,NA,NA,NA,NA,NA,NA,NA,NA,NA,NA,NA,NA,NA
"39","stim/objects/HouseObjects/dustpan2.png",62,1,62,0.9,"stim/11.jpeg",1,1,3,NA,"HouseObjects",2,3,"right","right",0.587000132,1,1,1,1,NA,NA,NA,NA,NA,NA,NA,NA,NA,NA,NA,NA,NA,NA,NA,NA,NA,NA,NA,NA,NA,NA,NA,NA
"27","stim/objects/HouseObjects/doormat.png",63,1,63,0.5,"stim/34.jpeg",3,4,1,NA,"HouseObjects",2,3,"right","right",0.592000008,1,1,1,1,NA,NA,NA,NA,NA,NA,NA,NA,NA,NA,NA,NA,NA,NA,NA,NA,NA,NA,NA,NA,NA,NA,NA,NA
"229","stim/objects/Instruments/hihat.png",64,1,64,0.3,"stim/54.jpeg",5,4,2,NA,"Instruments",1,2,"left","right",0.580000162,0,0,1,1,NA,NA,NA,NA,NA,NA,NA,NA,NA,NA,NA,NA,NA,NA,NA,NA,NA,NA,NA,NA,NA,NA,NA,NA
"68","stim/objects/HouseObjects/garbagebin2.png",65,1,65,0.9,"stim/13.jpeg",1,3,3,NA,"HouseObjects",2,3,"right","left",0.480000019,0,0,1,1,NA,NA,NA,NA,NA,NA,NA,NA,NA,NA,NA,NA,NA,NA,NA,NA,NA,NA,NA,NA,NA,NA,NA,NA
"81","stim/objects/HouseObjects/glass2.png",66,1,66,0.9,"stim/14.jpeg",1,4,3,NA,"HouseObjects",2,4,"right","right",0.600000143,1,1,1,1,NA,NA,NA,NA,NA,NA,NA,NA,NA,NA,NA,NA,NA,NA,NA,NA,NA,NA,NA,NA,NA,NA,NA,NA
"223","stim/objects/Instruments/harp2.png",67,1,67,0.9,"stim/23.jpeg",2,3,3,NA,"Instruments",1,3,"left","left",0.503000021,1,1,1,1,NA,NA,NA,NA,NA,NA,NA,NA,NA,NA,NA,NA,NA,NA,NA,NA,NA,NA,NA,NA,NA,NA,NA,NA
"158","stim/objects/Instruments/flute.png",68,1,68,0.5,"stim/34.jpeg",3,4,1,NA,"Instruments",1,1,"left","right",0.600000143,0,0,1,1,NA,NA,NA,NA,NA,NA,NA,NA,NA,NA,NA,NA,NA,NA,NA,NA,NA,NA,NA,NA,NA,NA,NA,NA
"17","stim/objects/HouseObjects/dishsoap.png",69,1,69,0.5,"stim/33.jpeg",3,3,1,NA,"HouseObjects",2,3,"right","left",0.433000088,0,0,1,1,NA,NA,NA,NA,NA,NA,NA,NA,NA,NA,NA,NA,NA,NA,NA,NA,NA,NA,NA,NA,NA,NA,NA,NA
"56","stim/objects/HouseObjects/flyswatter2.png",70,1,70,0.9,"stim/12.jpeg",1,2,3,NA,"HouseObjects",2,4,"right","right",0.729000092,1,1,1,1,NA,NA,NA,NA,NA,NA,NA,NA,NA,NA,NA,NA,NA,NA,NA,NA,NA,NA,NA,NA,NA,NA,NA,NA
"82","stim/objects/HouseObjects/glass2.png",71,1,71,0.9,"stim/14.jpeg",1,4,3,NA,"HouseObjects",2,3,"right","right",0.656000137,1,1,1,1,NA,NA,NA,NA,NA,NA,NA,NA,NA,NA,NA,NA,NA,NA,NA,NA,NA,NA,NA,NA,NA,NA,NA,NA
"83","stim/objects/HouseObjects/glass2.png",72,1,72,0.9,"stim/14.jpeg",1,4,3,NA,"HouseObjects",2,2,"right","right",0.616000175,1,1,1,1,NA,NA,NA,NA,NA,NA,NA,NA,NA,NA,NA,NA,NA,NA,NA,NA,NA,NA,NA,NA,NA,NA,NA,NA
"18","stim/objects/HouseObjects/dishsoap.png",73,1,73,0.5,"stim/33.jpeg",3,3,1,NA,"HouseObjects",2,1,"right","",NA,0,0,1,1,NA,NA,NA,NA,NA,NA,NA,NA,NA,NA,NA,NA,NA,NA,NA,NA,NA,NA,NA,NA,NA,NA,NA,NA
"7","stim/objects/HouseObjects/coffee2.png",74,1,74,0.3,"stim/61.jpeg",6,1,2,NA,"HouseObjects",2,1,"right","left",0.605000019,0,0,1,1,NA,NA,NA,NA,NA,NA,NA,NA,NA,NA,NA,NA,NA,NA,NA,NA,NA,NA,NA,NA,NA,NA,NA,NA
"199","stim/objects/Instruments/guitarcase2.png",75,1,75,0.9,"stim/21.jpeg",2,1,3,NA,"Instruments",1,4,"left","left",0.628000259,1,1,1,1,NA,NA,NA,NA,NA,NA,NA,NA,NA,NA,NA,NA,NA,NA,NA,NA,NA,NA,NA,NA,NA,NA,NA,NA
"176","stim/objects/Instruments/frenchhorn.png",76,1,76,0.5,"stim/42.jpeg",4,2,1,NA,"Instruments",1,3,"left","right",0.628999949,0,0,1,1,NA,NA,NA,NA,NA,NA,NA,NA,NA,NA,NA,NA,NA,NA,NA,NA,NA,NA,NA,NA,NA,NA,NA,NA
"193","stim/objects/Instruments/guitarcase.png",77,1,77,0.3,"stim/51.jpeg",5,1,2,NA,"Instruments",1,1,"left","right",0.614000082,0,0,1,1,NA,NA,NA,NA,NA,NA,NA,NA,NA,NA,NA,NA,NA,NA,NA,NA,NA,NA,NA,NA,NA,NA,NA,NA
"2","stim/objects/HouseObjects/coffee.png",78,1,78,0.5,"stim/31.jpeg",3,1,1,NA,"HouseObjects",2,2,"right","right",0.671000242,1,1,1,1,NA,NA,NA,NA,NA,NA,NA,NA,NA,NA,NA,NA,NA,NA,NA,NA,NA,NA,NA,NA,NA,NA,NA,NA
"84","stim/objects/HouseObjects/glass2.png",79,1,79,0.9,"stim/14.jpeg",1,4,3,NA,"HouseObjects",2,4,"right","right",0.711999893,1,1,1,1,NA,NA,NA,NA,NA,NA,NA,NA,NA,NA,NA,NA,NA,NA,NA,NA,NA,NA,NA,NA,NA,NA,NA,NA
"200","stim/objects/Instruments/guitarcase2.png",80,1,80,0.9,"stim/21.jpeg",2,1,3,NA,"Instruments",1,1,"left","left",0.526000261,1,1,1,1,NA,NA,NA,NA,NA,NA,NA,NA,NA,NA,NA,NA,NA,NA,NA,NA,NA,NA,NA,NA,NA,NA,NA,NA
"205","stim/objects/Instruments/harmonica.png",81,1,81,0.3,"stim/52.jpeg",5,2,2,NA,"Instruments",1,2,"left","right",0.498000145,0,0,1,1,NA,NA,NA,NA,NA,NA,NA,NA,NA,NA,NA,NA,NA,NA,NA,NA,NA,NA,NA,NA,NA,NA,NA,NA
"85","stim/objects/HouseObjects/glass2.png",82,1,82,0.9,"stim/14.jpeg",1,4,3,NA,"HouseObjects",2,3,"right","right",0.588000059,1,1,1,1,NA,NA,NA,NA,NA,NA,NA,NA,NA,NA,NA,NA,NA,NA,NA,NA,NA,NA,NA,NA,NA,NA,NA,NA
"69","stim/objects/HouseObjects/garbagebin2.png",83,1,83,0.9,"stim/13.jpeg",1,3,3,NA,"HouseObjects",2,1,"right","right",0.476000071,1,1,1,1,NA,NA,NA,NA,NA,NA,NA,NA,NA,NA,NA,NA,NA,NA,NA,NA,NA,NA,NA,NA,NA,NA,NA,NA
"146","stim/objects/Instruments/electricguitar.png",84,1,84,0.5,"stim/33.jpeg",3,3,1,NA,"Instruments",1,2,"left","right",0.515000105,0,0,1,1,NA,NA,NA,NA,NA,NA,NA,NA,NA,NA,NA,NA,NA,NA,NA,NA,NA,NA,NA,NA,NA,NA,NA,NA
"163","stim/objects/Instruments/flute2.png",85,1,85,0.7,"stim/64.jpeg",6,4,2,NA,"Instruments",1,1,"left","left",0.79700017,1,1,1,1,NA,NA,NA,NA,NA,NA,NA,NA,NA,NA,NA,NA,NA,NA,NA,NA,NA,NA,NA,NA,NA,NA,NA,NA
"57","stim/objects/HouseObjects/flyswatter2.png",86,1,86,0.9,"stim/12.jpeg",1,2,3,NA,"HouseObjects",2,1,"right","right",0.703000069,1,1,1,1,NA,NA,NA,NA,NA,NA,NA,NA,NA,NA,NA,NA,NA,NA,NA,NA,NA,NA,NA,NA,NA,NA,NA,NA
"209","stim/objects/Instruments/harmonica2.png",87,1,87,0.9,"stim/22.jpeg",2,2,3,NA,"Instruments",1,2,"left","right",0.486000061,0,0,1,1,NA,NA,NA,NA,NA,NA,NA,NA,NA,NA,NA,NA,NA,NA,NA,NA,NA,NA,NA,NA,NA,NA,NA,NA
"70","stim/objects/HouseObjects/garbagebin2.png",88,1,88,0.9,"stim/13.jpeg",1,3,3,NA,"HouseObjects",2,4,"right","right",0.678999901,1,1,1,1,NA,NA,NA,NA,NA,NA,NA,NA,NA,NA,NA,NA,NA,NA,NA,NA,NA,NA,NA,NA,NA,NA,NA,NA
"192","stim/objects/Instruments/grandpiano2.png",89,1,89,0.1,"stim/14.jpeg",1,4,3,NA,"Instruments",1,4,"left","right",0.588000059,0,0,1,1,NA,NA,NA,NA,NA,NA,NA,NA,NA,NA,NA,NA,NA,NA,NA,NA,NA,NA,NA,NA,NA,NA,NA,NA
"151","stim/objects/Instruments/electricguitar2.png",90,1,90,0.7,"stim/63.jpeg",6,3,2,NA,"Instruments",1,1,"left","left",0.69900012,1,1,1,1,NA,NA,NA,NA,NA,NA,NA,NA,NA,NA,NA,NA,NA,NA,NA,NA,NA,NA,NA,NA,NA,NA,NA,NA
"40","stim/objects/HouseObjects/dustpan2.png",91,1,91,0.9,"stim/11.jpeg",1,1,3,NA,"HouseObjects",2,1,"right","",NA,0,0,1,1,NA,NA,NA,NA,NA,NA,NA,NA,NA,NA,NA,NA,NA,NA,NA,NA,NA,NA,NA,NA,NA,NA,NA,NA
"147","stim/objects/Instruments/electricguitar.png",92,1,92,0.5,"stim/33.jpeg",3,3,1,NA,"Instruments",1,2,"left","right",0.661000013,0,0,1,1,NA,NA,NA,NA,NA,NA,NA,NA,NA,NA,NA,NA,NA,NA,NA,NA,NA,NA,NA,NA,NA,NA,NA,NA
"139","stim/objects/Instruments/electricdrumset2.png",93,1,93,0.7,"stim/62.jpeg",6,2,2,NA,"Instruments",1,1,"left","right",0.611000061,0,0,1,1,NA,NA,NA,NA,NA,NA,NA,NA,NA,NA,NA,NA,NA,NA,NA,NA,NA,NA,NA,NA,NA,NA,NA,NA
"152","stim/objects/Instruments/electricguitar2.png",94,1,94,0.7,"stim/63.jpeg",6,3,2,NA,"Instruments",1,2,"left","right",0.397000074,0,0,1,1,NA,NA,NA,NA,NA,NA,NA,NA,NA,NA,NA,NA,NA,NA,NA,NA,NA,NA,NA,NA,NA,NA,NA,NA
"71","stim/objects/HouseObjects/garbagebin2.png",95,1,95,0.9,"stim/13.jpeg",1,3,3,NA,"HouseObjects",2,2,"right","right",0.799000263,1,1,1,1,NA,NA,NA,NA,NA,NA,NA,NA,NA,NA,NA,NA,NA,NA,NA,NA,NA,NA,NA,NA,NA,NA,NA,NA
"164","stim/objects/Instruments/flute2.png",96,1,96,0.7,"stim/64.jpeg",6,4,2,NA,"Instruments",1,1,"left","right",0.743000031,0,0,1,1,NA,NA,NA,NA,NA,NA,NA,NA,NA,NA,NA,NA,NA,NA,NA,NA,NA,NA,NA,NA,NA,NA,NA,NA
"217","stim/objects/Instruments/harp.png",97,1,97,0.3,"stim/53.jpeg",5,3,2,NA,"Instruments",1,2,"left","right",0.486999989,0,0,1,1,NA,NA,NA,NA,NA,NA,NA,NA,NA,NA,NA,NA,NA,NA,NA,NA,NA,NA,NA,NA,NA,NA,NA,NA
"128","stim/objects/Instruments/drums2.png",98,1,98,0.7,"stim/61.jpeg",6,1,2,NA,"Instruments",1,1,"left","left",0.828000069,1,1,1,1,NA,NA,NA,NA,NA,NA,NA,NA,NA,NA,NA,NA,NA,NA,NA,NA,NA,NA,NA,NA,NA,NA,NA,NA
"159","stim/objects/Instruments/flute.png",99,1,99,0.5,"stim/34.jpeg",3,4,1,NA,"Instruments",1,1,"left","right",0.69900012,0,0,1,1,NA,NA,NA,NA,NA,NA,NA,NA,NA,NA,NA,NA,NA,NA,NA,NA,NA,NA,NA,NA,NA,NA,NA,NA
"86","stim/objects/HouseObjects/glass2.png",100,1,100,0.9,"stim/14.jpeg",1,4,3,NA,"HouseObjects",2,4,"right","right",0.69900012,1,1,1,1,NA,NA,NA,NA,NA,NA,NA,NA,NA,NA,NA,NA,NA,NA,NA,NA,NA,NA,NA,NA,NA,NA,NA,NA
"41","stim/objects/HouseObjects/dustpan2.png",101,1,101,0.9,"stim/11.jpeg",1,1,3,NA,"HouseObjects",2,1,"right","right",0.532000065,1,1,1,1,NA,NA,NA,NA,NA,NA,NA,NA,NA,NA,NA,NA,NA,NA,NA,NA,NA,NA,NA,NA,NA,NA,NA,NA
"165","stim/objects/Instruments/flute2.png",102,1,102,0.7,"stim/64.jpeg",6,4,2,NA,"Instruments",1,4,"left","left",0.660000086,1,1,1,1,NA,NA,NA,NA,NA,NA,NA,NA,NA,NA,NA,NA,NA,NA,NA,NA,NA,NA,NA,NA,NA,NA,NA,NA
"104","stim/objects/HouseObjects/hairdryer2.png",103,1,103,0.1,"stim/22.jpeg",2,2,3,NA,"HouseObjects",2,4,"right","right",0.426000118,1,1,1,1,NA,NA,NA,NA,NA,NA,NA,NA,NA,NA,NA,NA,NA,NA,NA,NA,NA,NA,NA,NA,NA,NA,NA,NA
"3","stim/objects/HouseObjects/coffee.png",104,1,104,0.5,"stim/31.jpeg",3,1,1,NA,"HouseObjects",2,3,"right","left",0.692000151,0,0,1,1,NA,NA,NA,NA,NA,NA,NA,NA,NA,NA,NA,NA,NA,NA,NA,NA,NA,NA,NA,NA,NA,NA,NA,NA
"134","stim/objects/Instruments/electricdrumset.png",105,1,105,0.5,"stim/32.jpeg",3,2,1,NA,"Instruments",1,3,"left","right",0.694000006,0,0,1,1,NA,NA,NA,NA,NA,NA,NA,NA,NA,NA,NA,NA,NA,NA,NA,NA,NA,NA,NA,NA,NA,NA,NA,NA
"153","stim/objects/Instruments/electricguitar2.png",106,1,106,0.7,"stim/63.jpeg",6,3,2,NA,"Instruments",1,3,"left","left",0.562999964,1,1,1,1,NA,NA,NA,NA,NA,NA,NA,NA,NA,NA,NA,NA,NA,NA,NA,NA,NA,NA,NA,NA,NA,NA,NA,NA
"62","stim/objects/HouseObjects/garbagebin.png",107,1,107,0.5,"stim/43.jpeg",4,3,1,NA,"HouseObjects",2,1,"right","right",0.643000126,1,1,1,1,NA,NA,NA,NA,NA,NA,NA,NA,NA,NA,NA,NA,NA,NA,NA,NA,NA,NA,NA,NA,NA,NA,NA,NA
"148","stim/objects/Instruments/electricguitar.png",108,1,108,0.5,"stim/33.jpeg",3,3,1,NA,"Instruments",1,4,"left","right",0.623000145,0,0,1,1,NA,NA,NA,NA,NA,NA,NA,NA,NA,NA,NA,NA,NA,NA,NA,NA,NA,NA,NA,NA,NA,NA,NA,NA
"90","stim/objects/HouseObjects/glassmop.png",109,1,109,0.7,"stim/51.jpeg",5,1,2,NA,"HouseObjects",2,4,"right","right",0.521000147,1,1,1,1,NA,NA,NA,NA,NA,NA,NA,NA,NA,NA,NA,NA,NA,NA,NA,NA,NA,NA,NA,NA,NA,NA,NA,NA
"140","stim/objects/Instruments/electricdrumset2.png",110,1,110,0.7,"stim/62.jpeg",6,2,2,NA,"Instruments",1,2,"left","right",0.622999907,0,0,1,1,NA,NA,NA,NA,NA,NA,NA,NA,NA,NA,NA,NA,NA,NA,NA,NA,NA,NA,NA,NA,NA,NA,NA,NA
"33","stim/objects/HouseObjects/dustpan.png",111,1,111,0.5,"stim/41.jpeg",4,1,1,NA,"HouseObjects",2,3,"right","left",0.657000065,0,0,1,1,NA,NA,NA,NA,NA,NA,NA,NA,NA,NA,NA,NA,NA,NA,NA,NA,NA,NA,NA,NA,NA,NA,NA,NA
"77","stim/objects/HouseObjects/glass.png",112,1,112,0.5,"stim/44.jpeg",4,4,1,NA,"HouseObjects",2,3,"right","right",0.595999956,1,1,1,1,NA,NA,NA,NA,NA,NA,NA,NA,NA,NA,NA,NA,NA,NA,NA,NA,NA,NA,NA,NA,NA,NA,NA,NA
"235","stim/objects/Instruments/hihat2.png",113,1,113,0.9,"stim/24.jpeg",2,4,3,NA,"Instruments",1,4,"left","right",0.708000183,0,0,1,1,NA,NA,NA,NA,NA,NA,NA,NA,NA,NA,NA,NA,NA,NA,NA,NA,NA,NA,NA,NA,NA,NA,NA,NA
"154","stim/objects/Instruments/electricguitar2.png",114,1,114,0.7,"stim/63.jpeg",6,3,2,NA,"Instruments",1,2,"left","left",0.549999952,1,1,1,1,NA,NA,NA,NA,NA,NA,NA,NA,NA,NA,NA,NA,NA,NA,NA,NA,NA,NA,NA,NA,NA,NA,NA,NA
"172","stim/objects/Instruments/flutetrans.png",115,1,115,0.5,"stim/41.jpeg",4,1,1,NA,"Instruments",1,4,"left","right",0.572000027,0,0,1,1,NA,NA,NA,NA,NA,NA,NA,NA,NA,NA,NA,NA,NA,NA,NA,NA,NA,NA,NA,NA,NA,NA,NA,NA
"141","stim/objects/Instruments/electricdrumset2.png",116,1,116,0.7,"stim/62.jpeg",6,2,2,NA,"Instruments",1,3,"left","left",0.610000134,1,1,1,1,NA,NA,NA,NA,NA,NA,NA,NA,NA,NA,NA,NA,NA,NA,NA,NA,NA,NA,NA,NA,NA,NA,NA,NA
"210","stim/objects/Instruments/harmonica2.png",117,1,117,0.9,"stim/22.jpeg",2,2,3,NA,"Instruments",1,4,"left","left",0.584000111,1,1,1,1,NA,NA,NA,NA,NA,NA,NA,NA,NA,NA,NA,NA,NA,NA,NA,NA,NA,NA,NA,NA,NA,NA,NA,NA
"177","stim/objects/Instruments/frenchhorn.png",118,1,118,0.5,"stim/42.jpeg",4,2,1,NA,"Instruments",1,1,"left","left",0.783000231,1,1,1,1,NA,NA,NA,NA,NA,NA,NA,NA,NA,NA,NA,NA,NA,NA,NA,NA,NA,NA,NA,NA,NA,NA,NA,NA
"99","stim/objects/HouseObjects/hairdryer.png",119,1,119,0.7,"stim/52.jpeg",5,2,2,NA,"HouseObjects",2,2,"right","right",0.506999969,1,1,1,1,NA,NA,NA,NA,NA,NA,NA,NA,NA,NA,NA,NA,NA,NA,NA,NA,NA,NA,NA,NA,NA,NA,NA,NA
"142","stim/objects/Instruments/electricdrumset2.png",120,1,120,0.7,"stim/62.jpeg",6,2,2,NA,"Instruments",1,2,"left","left",0.694999933,1,1,1,1,NA,NA,NA,NA,NA,NA,NA,NA,NA,NA,NA,NA,NA,NA,NA,NA,NA,NA,NA,NA,NA,NA,NA,NA
"129","stim/objects/Instruments/drums2.png",121,1,121,0.7,"stim/61.jpeg",6,1,2,NA,"Instruments",1,3,"left","left",0.529000044,1,1,1,1,NA,NA,NA,NA,NA,NA,NA,NA,NA,NA,NA,NA,NA,NA,NA,NA,NA,NA,NA,NA,NA,NA,NA,NA
"211","stim/objects/Instruments/harmonica2.png",122,1,122,0.9,"stim/22.jpeg",2,2,3,NA,"Instruments",1,3,"left","left",0.493999958,1,1,1,1,NA,NA,NA,NA,NA,NA,NA,NA,NA,NA,NA,NA,NA,NA,NA,NA,NA,NA,NA,NA,NA,NA,NA,NA
"42","stim/objects/HouseObjects/dustpan2.png",123,1,123,0.9,"stim/11.jpeg",1,1,3,NA,"HouseObjects",2,3,"right","right",0.648999929,1,1,1,1,NA,NA,NA,NA,NA,NA,NA,NA,NA,NA,NA,NA,NA,NA,NA,NA,NA,NA,NA,NA,NA,NA,NA,NA
"206","stim/objects/Instruments/harmonica.png",124,1,124,0.3,"stim/52.jpeg",5,2,2,NA,"Instruments",1,4,"left","right",0.445000172,0,0,1,1,NA,NA,NA,NA,NA,NA,NA,NA,NA,NA,NA,NA,NA,NA,NA,NA,NA,NA,NA,NA,NA,NA,NA,NA
"155","stim/objects/Instruments/electricguitar2.png",125,1,125,0.7,"stim/63.jpeg",6,3,2,NA,"Instruments",1,4,"left","left",0.617000103,1,1,1,1,NA,NA,NA,NA,NA,NA,NA,NA,NA,NA,NA,NA,NA,NA,NA,NA,NA,NA,NA,NA,NA,NA,NA,NA
"8","stim/objects/HouseObjects/coffee2.png",126,1,126,0.3,"stim/61.jpeg",6,1,2,NA,"HouseObjects",2,4,"right","left",0.551000118,0,0,1,1,NA,NA,NA,NA,NA,NA,NA,NA,NA,NA,NA,NA,NA,NA,NA,NA,NA,NA,NA,NA,NA,NA,NA,NA
"108","stim/objects/HouseObjects/handbrush.png",127,1,127,0.7,"stim/53.jpeg",5,3,2,NA,"HouseObjects",2,3,"right","right",0.512000084,1,1,1,1,NA,NA,NA,NA,NA,NA,NA,NA,NA,NA,NA,NA,NA,NA,NA,NA,NA,NA,NA,NA,NA,NA,NA,NA
"224","stim/objects/Instruments/harp2.png",128,1,128,0.9,"stim/23.jpeg",2,3,3,NA,"Instruments",1,4,"left","left",0.642000198,1,1,1,1,NA,NA,NA,NA,NA,NA,NA,NA,NA,NA,NA,NA,NA,NA,NA,NA,NA,NA,NA,NA,NA,NA,NA,NA
"34","stim/objects/HouseObjects/dustpan.png",129,1,129,0.5,"stim/41.jpeg",4,1,1,NA,"HouseObjects",2,4,"right","right",0.541000128,1,1,1,1,NA,NA,NA,NA,NA,NA,NA,NA,NA,NA,NA,NA,NA,NA,NA,NA,NA,NA,NA,NA,NA,NA,NA,NA
"15","stim/objects/HouseObjects/cushion2.png",130,1,130,0.3,"stim/62.jpeg",6,2,2,NA,"HouseObjects",2,4,"right","",NA,0,0,1,1,NA,NA,NA,NA,NA,NA,NA,NA,NA,NA,NA,NA,NA,NA,NA,NA,NA,NA,NA,NA,NA,NA,NA,NA
"230","stim/objects/Instruments/hihat.png",131,1,131,0.3,"stim/54.jpeg",5,4,2,NA,"Instruments",1,1,"left","right",0.640000105,0,0,1,1,NA,NA,NA,NA,NA,NA,NA,NA,NA,NA,NA,NA,NA,NA,NA,NA,NA,NA,NA,NA,NA,NA,NA,NA
"43","stim/objects/HouseObjects/dustpan2.png",132,1,132,0.9,"stim/11.jpeg",1,1,3,NA,"HouseObjects",2,3,"right","right",0.770000219,1,1,1,1,NA,NA,NA,NA,NA,NA,NA,NA,NA,NA,NA,NA,NA,NA,NA,NA,NA,NA,NA,NA,NA,NA,NA,NA
"225","stim/objects/Instruments/harp2.png",133,1,133,0.9,"stim/23.jpeg",2,3,3,NA,"Instruments",1,2,"left","right",0.556000233,0,0,1,1,NA,NA,NA,NA,NA,NA,NA,NA,NA,NA,NA,NA,NA,NA,NA,NA,NA,NA,NA,NA,NA,NA,NA,NA
"149","stim/objects/Instruments/electricguitar.png",134,1,134,0.5,"stim/33.jpeg",3,3,1,NA,"Instruments",1,3,"left","left",0.674000025,1,1,1,1,NA,NA,NA,NA,NA,NA,NA,NA,NA,NA,NA,NA,NA,NA,NA,NA,NA,NA,NA,NA,NA,NA,NA,NA
"231","stim/objects/Instruments/hihat.png",135,1,135,0.3,"stim/54.jpeg",5,4,2,NA,"Instruments",1,1,"left","right",0.620000124,0,0,1,1,NA,NA,NA,NA,NA,NA,NA,NA,NA,NA,NA,NA,NA,NA,NA,NA,NA,NA,NA,NA,NA,NA,NA,NA
"143","stim/objects/Instruments/electricdrumset2.png",136,1,136,0.7,"stim/62.jpeg",6,2,2,NA,"Instruments",1,2,"left","right",0.741000175,0,0,1,1,NA,NA,NA,NA,NA,NA,NA,NA,NA,NA,NA,NA,NA,NA,NA,NA,NA,NA,NA,NA,NA,NA,NA,NA
"130","stim/objects/Instruments/drums2.png",137,1,137,0.7,"stim/61.jpeg",6,1,2,NA,"Instruments",1,3,"left","right",0.680999994,0,0,1,1,NA,NA,NA,NA,NA,NA,NA,NA,NA,NA,NA,NA,NA,NA,NA,NA,NA,NA,NA,NA,NA,NA,NA,NA
"212","stim/objects/Instruments/harmonica2.png",138,1,138,0.9,"stim/22.jpeg",2,2,3,NA,"Instruments",1,2,"left","right",0.513000011,0,0,1,1,NA,NA,NA,NA,NA,NA,NA,NA,NA,NA,NA,NA,NA,NA,NA,NA,NA,NA,NA,NA,NA,NA,NA,NA
"121","stim/objects/Instruments/drums.png",139,1,139,0.5,"stim/31.jpeg",3,1,1,NA,"Instruments",1,3,"left","right",0.605999947,0,0,1,1,NA,NA,NA,NA,NA,NA,NA,NA,NA,NA,NA,NA,NA,NA,NA,NA,NA,NA,NA,NA,NA,NA,NA,NA
"144","stim/objects/Instruments/electricdrumset2.png",140,1,140,0.7,"stim/62.jpeg",6,2,2,NA,"Instruments",1,2,"left","right",0.600000143,0,0,1,1,NA,NA,NA,NA,NA,NA,NA,NA,NA,NA,NA,NA,NA,NA,NA,NA,NA,NA,NA,NA,NA,NA,NA,NA
"23","stim/objects/HouseObjects/dishsoap2.png",141,1,141,0.3,"stim/63.jpeg",6,3,2,NA,"HouseObjects",2,4,"right","right",0.788000107,1,1,1,1,NA,NA,NA,NA,NA,NA,NA,NA,NA,NA,NA,NA,NA,NA,NA,NA,NA,NA,NA,NA,NA,NA,NA,NA
"213","stim/objects/Instruments/harmonica2.png",142,1,142,0.9,"stim/22.jpeg",2,2,3,NA,"Instruments",1,4,"left","left",0.569000006,1,1,1,1,NA,NA,NA,NA,NA,NA,NA,NA,NA,NA,NA,NA,NA,NA,NA,NA,NA,NA,NA,NA,NA,NA,NA,NA
"96","stim/objects/HouseObjects/glassmop2.png",143,1,143,0.1,"stim/21.jpeg",2,1,3,NA,"HouseObjects",2,1,"right","left",0.531000137,0,0,1,1,NA,NA,NA,NA,NA,NA,NA,NA,NA,NA,NA,NA,NA,NA,NA,NA,NA,NA,NA,NA,NA,NA,NA,NA
"31","stim/objects/HouseObjects/doormat2.png",144,1,144,0.3,"stim/64.jpeg",6,4,2,NA,"HouseObjects",2,4,"right","left",0.663000107,0,0,1,1,NA,NA,NA,NA,NA,NA,NA,NA,NA,NA,NA,NA,NA,NA,NA,NA,NA,NA,NA,NA,NA,NA,NA,NA
"135","stim/objects/Instruments/electricdrumset.png",145,1,145,0.5,"stim/32.jpeg",3,2,1,NA,"Instruments",1,4,"left","right",0.732000113,0,0,1,1,NA,NA,NA,NA,NA,NA,NA,NA,NA,NA,NA,NA,NA,NA,NA,NA,NA,NA,NA,NA,NA,NA,NA,NA
"194","stim/objects/Instruments/guitarcase.png",146,1,146,0.3,"stim/51.jpeg",5,1,2,NA,"Instruments",1,1,"left","right",0.561000109,0,0,1,1,NA,NA,NA,NA,NA,NA,NA,NA,NA,NA,NA,NA,NA,NA,NA,NA,NA,NA,NA,NA,NA,NA,NA,NA
"44","stim/objects/HouseObjects/dustpan2.png",147,1,147,0.9,"stim/11.jpeg",1,1,3,NA,"HouseObjects",2,1,"right","right",0.620000124,1,1,1,1,NA,NA,NA,NA,NA,NA,NA,NA,NA,NA,NA,NA,NA,NA,NA,NA,NA,NA,NA,NA,NA,NA,NA,NA
"72","stim/objects/HouseObjects/garbagebin2.png",148,1,148,0.9,"stim/13.jpeg",1,3,3,NA,"HouseObjects",2,2,"right","right",0.693000078,1,1,1,1,NA,NA,NA,NA,NA,NA,NA,NA,NA,NA,NA,NA,NA,NA,NA,NA,NA,NA,NA,NA,NA,NA,NA,NA
"45","stim/objects/HouseObjects/dustpan2.png",149,1,149,0.9,"stim/11.jpeg",1,1,3,NA,"HouseObjects",2,3,"right","right",0.806999922,1,1,1,1,NA,NA,NA,NA,NA,NA,NA,NA,NA,NA,NA,NA,NA,NA,NA,NA,NA,NA,NA,NA,NA,NA,NA,NA
"91","stim/objects/HouseObjects/glassmop.png",150,1,150,0.7,"stim/51.jpeg",5,1,2,NA,"HouseObjects",2,1,"right","right",0.549000263,1,1,1,1,NA,NA,NA,NA,NA,NA,NA,NA,NA,NA,NA,NA,NA,NA,NA,NA,NA,NA,NA,NA,NA,NA,NA,NA
"78","stim/objects/HouseObjects/glass.png",151,1,151,0.5,"stim/44.jpeg",4,4,1,NA,"HouseObjects",2,1,"right","left",0.658000231,0,0,1,1,NA,NA,NA,NA,NA,NA,NA,NA,NA,NA,NA,NA,NA,NA,NA,NA,NA,NA,NA,NA,NA,NA,NA,NA
"236","stim/objects/Instruments/hihat2.png",152,1,152,0.9,"stim/24.jpeg",2,4,3,NA,"Instruments",1,3,"left","left",0.474000216,1,1,1,1,NA,NA,NA,NA,NA,NA,NA,NA,NA,NA,NA,NA,NA,NA,NA,NA,NA,NA,NA,NA,NA,NA,NA,NA
"87","stim/objects/HouseObjects/glass2.png",153,1,153,0.9,"stim/14.jpeg",1,4,3,NA,"HouseObjects",2,2,"right","right",0.580000162,1,1,1,1,NA,NA,NA,NA,NA,NA,NA,NA,NA,NA,NA,NA,NA,NA,NA,NA,NA,NA,NA,NA,NA,NA,NA,NA
"92","stim/objects/HouseObjects/glassmop.png",154,1,154,0.7,"stim/51.jpeg",5,1,2,NA,"HouseObjects",2,1,"right","right",0.535000086,1,1,1,1,NA,NA,NA,NA,NA,NA,NA,NA,NA,NA,NA,NA,NA,NA,NA,NA,NA,NA,NA,NA,NA,NA,NA,NA
"109","stim/objects/HouseObjects/handbrush.png",155,1,155,0.7,"stim/53.jpeg",5,3,2,NA,"HouseObjects",2,2,"right","right",0.505000114,1,1,1,1,NA,NA,NA,NA,NA,NA,NA,NA,NA,NA,NA,NA,NA,NA,NA,NA,NA,NA,NA,NA,NA,NA,NA,NA
"166","stim/objects/Instruments/flute2.png",156,1,156,0.7,"stim/64.jpeg",6,4,2,NA,"Instruments",1,2,"left","left",0.527000189,1,1,1,1,NA,NA,NA,NA,NA,NA,NA,NA,NA,NA,NA,NA,NA,NA,NA,NA,NA,NA,NA,NA,NA,NA,NA,NA
"214","stim/objects/Instruments/harmonica2.png",157,1,157,0.9,"stim/22.jpeg",2,2,3,NA,"Instruments",1,2,"left","left",0.602999926,1,1,1,1,NA,NA,NA,NA,NA,NA,NA,NA,NA,NA,NA,NA,NA,NA,NA,NA,NA,NA,NA,NA,NA,NA,NA,NA
"215","stim/objects/Instruments/harmonica2.png",158,1,158,0.9,"stim/22.jpeg",2,2,3,NA,"Instruments",1,1,"left","",NA,0,0,1,1,NA,NA,NA,NA,NA,NA,NA,NA,NA,NA,NA,NA,NA,NA,NA,NA,NA,NA,NA,NA,NA,NA,NA,NA
"186","stim/objects/Instruments/gong2.png",159,1,159,0.1,"stim/13.jpeg",1,3,3,NA,"Instruments",1,1,"left","right",0.546000242,0,0,1,1,NA,NA,NA,NA,NA,NA,NA,NA,NA,NA,NA,NA,NA,NA,NA,NA,NA,NA,NA,NA,NA,NA,NA,NA
"100","stim/objects/HouseObjects/hairdryer.png",160,1,160,0.7,"stim/52.jpeg",5,2,2,NA,"HouseObjects",2,3,"right","right",0.715000153,1,1,1,1,NA,NA,NA,NA,NA,NA,NA,NA,NA,NA,NA,NA,NA,NA,NA,NA,NA,NA,NA,NA,NA,NA,NA,NA
"116","stim/objects/HouseObjects/handvacuum.png",161,1,161,0.7,"stim/54.jpeg",5,4,2,NA,"HouseObjects",2,4,"right","right",0.535000086,1,1,1,1,NA,NA,NA,NA,NA,NA,NA,NA,NA,NA,NA,NA,NA,NA,NA,NA,NA,NA,NA,NA,NA,NA,NA,NA
"122","stim/objects/Instruments/drums.png",162,1,162,0.5,"stim/31.jpeg",3,1,1,NA,"Instruments",1,4,"left","right",0.445000172,0,0,1,1,NA,NA,NA,NA,NA,NA,NA,NA,NA,NA,NA,NA,NA,NA,NA,NA,NA,NA,NA,NA,NA,NA,NA,NA
"58","stim/objects/HouseObjects/flyswatter2.png",163,1,163,0.9,"stim/12.jpeg",1,2,3,NA,"HouseObjects",2,4,"right","left",0.578000069,0,0,1,1,NA,NA,NA,NA,NA,NA,NA,NA,NA,NA,NA,NA,NA,NA,NA,NA,NA,NA,NA,NA,NA,NA,NA,NA
"167","stim/objects/Instruments/flute2.png",164,1,164,0.7,"stim/64.jpeg",6,4,2,NA,"Instruments",1,2,"left","left",0.670000076,1,1,1,1,NA,NA,NA,NA,NA,NA,NA,NA,NA,NA,NA,NA,NA,NA,NA,NA,NA,NA,NA,NA,NA,NA,NA,NA
"123","stim/objects/Instruments/drums.png",165,1,165,0.5,"stim/31.jpeg",3,1,1,NA,"Instruments",1,3,"left","left",0.597000122,1,1,1,1,NA,NA,NA,NA,NA,NA,NA,NA,NA,NA,NA,NA,NA,NA,NA,NA,NA,NA,NA,NA,NA,NA,NA,NA
"124","stim/objects/Instruments/drums.png",166,1,166,0.5,"stim/31.jpeg",3,1,1,NA,"Instruments",1,2,"left","right",0.775000095,0,0,1,1,NA,NA,NA,NA,NA,NA,NA,NA,NA,NA,NA,NA,NA,NA,NA,NA,NA,NA,NA,NA,NA,NA,NA,NA
"125","stim/objects/Instruments/drums.png",167,1,167,0.5,"stim/31.jpeg",3,1,1,NA,"Instruments",1,2,"left","right",0.692000151,0,0,1,1,NA,NA,NA,NA,NA,NA,NA,NA,NA,NA,NA,NA,NA,NA,NA,NA,NA,NA,NA,NA,NA,NA,NA,NA
"120","stim/objects/HouseObjects/handvacuum2.png",168,1,168,0.1,"stim/24.jpeg",2,4,3,NA,"HouseObjects",2,1,"right","left",0.687000275,0,0,1,1,NA,NA,NA,NA,NA,NA,NA,NA,NA,NA,NA,NA,NA,NA,NA,NA,NA,NA,NA,NA,NA,NA,NA,NA
"201","stim/objects/Instruments/guitarcase2.png",169,1,169,0.9,"stim/21.jpeg",2,1,3,NA,"Instruments",1,1,"left","left",0.851000071,1,1,1,1,NA,NA,NA,NA,NA,NA,NA,NA,NA,NA,NA,NA,NA,NA,NA,NA,NA,NA,NA,NA,NA,NA,NA,NA
"28","stim/objects/HouseObjects/doormat.png",170,1,170,0.5,"stim/34.jpeg",3,4,1,NA,"HouseObjects",2,4,"right","right",0.651000261,1,1,1,1,NA,NA,NA,NA,NA,NA,NA,NA,NA,NA,NA,NA,NA,NA,NA,NA,NA,NA,NA,NA,NA,NA,NA,NA
"16","stim/objects/HouseObjects/cushion2.png",171,1,171,0.3,"stim/62.jpeg",6,2,2,NA,"HouseObjects",2,3,"right","left",0.56400013,0,0,1,1,NA,NA,NA,NA,NA,NA,NA,NA,NA,NA,NA,NA,NA,NA,NA,NA,NA,NA,NA,NA,NA,NA,NA,NA
"59","stim/objects/HouseObjects/flyswatter2.png",172,1,172,0.9,"stim/12.jpeg",1,2,3,NA,"HouseObjects",2,4,"right","right",0.661999941,1,1,1,1,NA,NA,NA,NA,NA,NA,NA,NA,NA,NA,NA,NA,NA,NA,NA,NA,NA,NA,NA,NA,NA,NA,NA,NA
"182","stim/objects/Instruments/gong.png",173,1,173,0.5,"stim/43.jpeg",4,3,1,NA,"Instruments",1,2,"left","right",0.612000227,0,0,1,1,NA,NA,NA,NA,NA,NA,NA,NA,NA,NA,NA,NA,NA,NA,NA,NA,NA,NA,NA,NA,NA,NA,NA,NA
"19","stim/objects/HouseObjects/dishsoap.png",174,1,174,0.5,"stim/33.jpeg",3,3,1,NA,"HouseObjects",2,4,"right","right",0.585000038,1,1,1,1,NA,NA,NA,NA,NA,NA,NA,NA,NA,NA,NA,NA,NA,NA,NA,NA,NA,NA,NA,NA,NA,NA,NA,NA
"20","stim/objects/HouseObjects/dishsoap.png",175,1,175,0.5,"stim/33.jpeg",3,3,1,NA,"HouseObjects",2,2,"right","left",0.862999916,0,0,1,1,NA,NA,NA,NA,NA,NA,NA,NA,NA,NA,NA,NA,NA,NA,NA,NA,NA,NA,NA,NA,NA,NA,NA,NA
"63","stim/objects/HouseObjects/garbagebin.png",176,1,176,0.5,"stim/43.jpeg",4,3,1,NA,"HouseObjects",2,1,"right","left",0.726000071,0,0,1,1,NA,NA,NA,NA,NA,NA,NA,NA,NA,NA,NA,NA,NA,NA,NA,NA,NA,NA,NA,NA,NA,NA,NA,NA
"226","stim/objects/Instruments/harp2.png",177,1,177,0.9,"stim/23.jpeg",2,3,3,NA,"Instruments",1,3,"left","left",0.63499999,1,1,1,1,NA,NA,NA,NA,NA,NA,NA,NA,NA,NA,NA,NA,NA,NA,NA,NA,NA,NA,NA,NA,NA,NA,NA,NA
"73","stim/objects/HouseObjects/garbagebin2.png",178,1,178,0.9,"stim/13.jpeg",1,3,3,NA,"HouseObjects",2,3,"right","right",0.594000101,1,1,1,1,NA,NA,NA,NA,NA,NA,NA,NA,NA,NA,NA,NA,NA,NA,NA,NA,NA,NA,NA,NA,NA,NA,NA,NA
"35","stim/objects/HouseObjects/dustpan.png",179,1,179,0.5,"stim/41.jpeg",4,1,1,NA,"HouseObjects",2,2,"right","right",0.703999996,1,1,1,1,NA,NA,NA,NA,NA,NA,NA,NA,NA,NA,NA,NA,NA,NA,NA,NA,NA,NA,NA,NA,NA,NA,NA,NA
"117","stim/objects/HouseObjects/handvacuum.png",180,1,180,0.7,"stim/54.jpeg",5,4,2,NA,"HouseObjects",2,2,"right","right",0.568000078,1,1,1,1,NA,NA,NA,NA,NA,NA,NA,NA,NA,NA,NA,NA,NA,NA,NA,NA,NA,NA,NA,NA,NA,NA,NA,NA
"218","stim/objects/Instruments/harp.png",181,1,181,0.3,"stim/53.jpeg",5,3,2,NA,"Instruments",1,3,"left","right",0.825000286,0,0,1,1,NA,NA,NA,NA,NA,NA,NA,NA,NA,NA,NA,NA,NA,NA,NA,NA,NA,NA,NA,NA,NA,NA,NA,NA
"29","stim/objects/HouseObjects/doormat.png",182,1,182,0.5,"stim/34.jpeg",3,4,1,NA,"HouseObjects",2,1,"right","right",0.516000271,1,1,1,1,NA,NA,NA,NA,NA,NA,NA,NA,NA,NA,NA,NA,NA,NA,NA,NA,NA,NA,NA,NA,NA,NA,NA,NA
"101","stim/objects/HouseObjects/hairdryer.png",183,1,183,0.7,"stim/52.jpeg",5,2,2,NA,"HouseObjects",2,2,"right","right",0.554000139,1,1,1,1,NA,NA,NA,NA,NA,NA,NA,NA,NA,NA,NA,NA,NA,NA,NA,NA,NA,NA,NA,NA,NA,NA,NA,NA
"195","stim/objects/Instruments/guitarcase.png",184,1,184,0.3,"stim/51.jpeg",5,1,2,NA,"Instruments",1,3,"left","right",0.520999908,0,0,1,1,NA,NA,NA,NA,NA,NA,NA,NA,NA,NA,NA,NA,NA,NA,NA,NA,NA,NA,NA,NA,NA,NA,NA,NA
"160","stim/objects/Instruments/flute.png",185,1,185,0.5,"stim/34.jpeg",3,4,1,NA,"Instruments",1,1,"left","right",0.680000067,0,0,1,1,NA,NA,NA,NA,NA,NA,NA,NA,NA,NA,NA,NA,NA,NA,NA,NA,NA,NA,NA,NA,NA,NA,NA,NA
"188","stim/objects/Instruments/grandpiano.png",186,1,186,0.5,"stim/44.jpeg",4,4,1,NA,"Instruments",1,2,"left","right",0.525000095,0,0,1,1,NA,NA,NA,NA,NA,NA,NA,NA,NA,NA,NA,NA,NA,NA,NA,NA,NA,NA,NA,NA,NA,NA,NA,NA
"183","stim/objects/Instruments/gong.png",187,1,187,0.5,"stim/43.jpeg",4,3,1,NA,"Instruments",1,4,"left","right",0.45600009,0,0,1,1,NA,NA,NA,NA,NA,NA,NA,NA,NA,NA,NA,NA,NA,NA,NA,NA,NA,NA,NA,NA,NA,NA,NA,NA
"237","stim/objects/Instruments/hihat2.png",188,1,188,0.9,"stim/24.jpeg",2,4,3,NA,"Instruments",1,4,"left","left",0.605000019,1,1,1,1,NA,NA,NA,NA,NA,NA,NA,NA,NA,NA,NA,NA,NA,NA,NA,NA,NA,NA,NA,NA,NA,NA,NA,NA
"118","stim/objects/HouseObjects/handvacuum.png",189,1,189,0.7,"stim/54.jpeg",5,4,2,NA,"HouseObjects",2,1,"right","right",0.576000214,1,1,1,1,NA,NA,NA,NA,NA,NA,NA,NA,NA,NA,NA,NA,NA,NA,NA,NA,NA,NA,NA,NA,NA,NA,NA,NA
"93","stim/objects/HouseObjects/glassmop.png",190,1,190,0.7,"stim/51.jpeg",5,1,2,NA,"HouseObjects",2,4,"right","right",0.433000088,1,1,1,1,NA,NA,NA,NA,NA,NA,NA,NA,NA,NA,NA,NA,NA,NA,NA,NA,NA,NA,NA,NA,NA,NA,NA,NA
"168","stim/objects/Instruments/flute2.png",191,1,191,0.7,"stim/64.jpeg",6,4,2,NA,"Instruments",1,1,"left","left",0.571000099,1,1,1,1,NA,NA,NA,NA,NA,NA,NA,NA,NA,NA,NA,NA,NA,NA,NA,NA,NA,NA,NA,NA,NA,NA,NA,NA
"136","stim/objects/Instruments/electricdrumset.png",192,1,192,0.5,"stim/32.jpeg",3,2,1,NA,"Instruments",1,1,"left","right",0.519000292,0,0,1,1,NA,NA,NA,NA,NA,NA,NA,NA,NA,NA,NA,NA,NA,NA,NA,NA,NA,NA,NA,NA,NA,NA,NA,NA
"219","stim/objects/Instruments/harp.png",193,1,193,0.3,"stim/53.jpeg",5,3,2,NA,"Instruments",1,2,"left","right",0.506000042,0,0,1,1,NA,NA,NA,NA,NA,NA,NA,NA,NA,NA,NA,NA,NA,NA,NA,NA,NA,NA,NA,NA,NA,NA,NA,NA
"238","stim/objects/Instruments/hihat2.png",194,1,194,0.9,"stim/24.jpeg",2,4,3,NA,"Instruments",1,3,"left","left",0.565999985,1,1,1,1,NA,NA,NA,NA,NA,NA,NA,NA,NA,NA,NA,NA,NA,NA,NA,NA,NA,NA,NA,NA,NA,NA,NA,NA
"227","stim/objects/Instruments/harp2.png",195,1,195,0.9,"stim/23.jpeg",2,3,3,NA,"Instruments",1,4,"left","left",0.628000259,1,1,1,1,NA,NA,NA,NA,NA,NA,NA,NA,NA,NA,NA,NA,NA,NA,NA,NA,NA,NA,NA,NA,NA,NA,NA,NA
"64","stim/objects/HouseObjects/garbagebin.png",196,1,196,0.5,"stim/43.jpeg",4,3,1,NA,"HouseObjects",2,4,"right","right",0.755000114,1,1,1,1,NA,NA,NA,NA,NA,NA,NA,NA,NA,NA,NA,NA,NA,NA,NA,NA,NA,NA,NA,NA,NA,NA,NA,NA
"102","stim/objects/HouseObjects/hairdryer.png",197,1,197,0.7,"stim/52.jpeg",5,2,2,NA,"HouseObjects",2,3,"right","right",0.506000042,1,1,1,1,NA,NA,NA,NA,NA,NA,NA,NA,NA,NA,NA,NA,NA,NA,NA,NA,NA,NA,NA,NA,NA,NA,NA,NA
"4","stim/objects/HouseObjects/coffee.png",198,1,198,0.5,"stim/31.jpeg",3,1,1,NA,"HouseObjects",2,4,"right","right",0.476000071,1,1,1,1,NA,NA,NA,NA,NA,NA,NA,NA,NA,NA,NA,NA,NA,NA,NA,NA,NA,NA,NA,NA,NA,NA,NA,NA
"36","stim/objects/HouseObjects/dustpan.png",199,1,199,0.5,"stim/41.jpeg",4,1,1,NA,"HouseObjects",2,2,"right","left",0.714999914,0,0,1,1,NA,NA,NA,NA,NA,NA,NA,NA,NA,NA,NA,NA,NA,NA,NA,NA,NA,NA,NA,NA,NA,NA,NA,NA
"131","stim/objects/Instruments/drums2.png",200,1,200,0.7,"stim/61.jpeg",6,1,2,NA,"Instruments",1,1,"left","left",0.544000149,1,1,1,1,NA,NA,NA,NA,NA,NA,NA,NA,NA,NA,NA,NA,NA,NA,NA,NA,NA,NA,NA,NA,NA,NA,NA,NA
"189","stim/objects/Instruments/grandpiano.png",201,1,201,0.5,"stim/44.jpeg",4,4,1,NA,"Instruments",1,2,"left","left",0.805000067,1,1,1,1,NA,NA,NA,NA,NA,NA,NA,NA,NA,NA,NA,NA,NA,NA,NA,NA,NA,NA,NA,NA,NA,NA,NA,NA
"46","stim/objects/HouseObjects/dustpan2.png",202,1,202,0.9,"stim/11.jpeg",1,1,3,NA,"HouseObjects",2,2,"right","right",0.628000259,1,1,1,1,NA,NA,NA,NA,NA,NA,NA,NA,NA,NA,NA,NA,NA,NA,NA,NA,NA,NA,NA,NA,NA,NA,NA,NA
"88","stim/objects/HouseObjects/glass2.png",203,1,203,0.9,"stim/14.jpeg",1,4,3,NA,"HouseObjects",2,1,"right","right",0.65500021,1,1,1,1,NA,NA,NA,NA,NA,NA,NA,NA,NA,NA,NA,NA,NA,NA,NA,NA,NA,NA,NA,NA,NA,NA,NA,NA
"239","stim/objects/Instruments/hihat2.png",204,1,204,0.9,"stim/24.jpeg",2,4,3,NA,"Instruments",1,2,"left","left",0.608000278,1,1,1,1,NA,NA,NA,NA,NA,NA,NA,NA,NA,NA,NA,NA,NA,NA,NA,NA,NA,NA,NA,NA,NA,NA,NA,NA
"137","stim/objects/Instruments/electricdrumset.png",205,1,205,0.5,"stim/32.jpeg",3,2,1,NA,"Instruments",1,3,"left","left",0.424000025,1,1,1,1,NA,NA,NA,NA,NA,NA,NA,NA,NA,NA,NA,NA,NA,NA,NA,NA,NA,NA,NA,NA,NA,NA,NA,NA
"32","stim/objects/HouseObjects/doormat2.png",206,1,206,0.3,"stim/64.jpeg",6,4,2,NA,"HouseObjects",2,3,"right","left",0.651000023,0,0,1,1,NA,NA,NA,NA,NA,NA,NA,NA,NA,NA,NA,NA,NA,NA,NA,NA,NA,NA,NA,NA,NA,NA,NA,NA
"94","stim/objects/HouseObjects/glassmop.png",207,1,207,0.7,"stim/51.jpeg",5,1,2,NA,"HouseObjects",2,1,"right","right",0.597000122,1,1,1,1,NA,NA,NA,NA,NA,NA,NA,NA,NA,NA,NA,NA,NA,NA,NA,NA,NA,NA,NA,NA,NA,NA,NA,NA
"216","stim/objects/Instruments/harmonica2.png",208,1,208,0.9,"stim/22.jpeg",2,2,3,NA,"Instruments",1,3,"left","left",0.539000034,1,1,1,1,NA,NA,NA,NA,NA,NA,NA,NA,NA,NA,NA,NA,NA,NA,NA,NA,NA,NA,NA,NA,NA,NA,NA,NA
"95","stim/objects/HouseObjects/glassmop.png",209,1,209,0.7,"stim/51.jpeg",5,1,2,NA,"HouseObjects",2,3,"right","right",0.601000071,1,1,1,1,NA,NA,NA,NA,NA,NA,NA,NA,NA,NA,NA,NA,NA,NA,NA,NA,NA,NA,NA,NA,NA,NA,NA,NA
"49","stim/objects/HouseObjects/flyswatter.png",210,1,210,0.5,"stim/42.jpeg",4,2,1,NA,"HouseObjects",2,3,"right","left",0.739000082,0,0,1,1,NA,NA,NA,NA,NA,NA,NA,NA,NA,NA,NA,NA,NA,NA,NA,NA,NA,NA,NA,NA,NA,NA,NA,NA
"202","stim/objects/Instruments/guitarcase2.png",211,1,211,0.9,"stim/21.jpeg",2,1,3,NA,"Instruments",1,1,"left","left",0.529999971,1,1,1,1,NA,NA,NA,NA,NA,NA,NA,NA,NA,NA,NA,NA,NA,NA,NA,NA,NA,NA,NA,NA,NA,NA,NA,NA
"184","stim/objects/Instruments/gong.png",212,1,212,0.5,"stim/43.jpeg",4,3,1,NA,"Instruments",1,3,"left","right",0.624000072,0,0,1,1,NA,NA,NA,NA,NA,NA,NA,NA,NA,NA,NA,NA,NA,NA,NA,NA,NA,NA,NA,NA,NA,NA,NA,NA
"190","stim/objects/Instruments/grandpiano.png",213,1,213,0.5,"stim/44.jpeg",4,4,1,NA,"Instruments",1,3,"left","left",0.649000168,1,1,1,1,NA,NA,NA,NA,NA,NA,NA,NA,NA,NA,NA,NA,NA,NA,NA,NA,NA,NA,NA,NA,NA,NA,NA,NA
"65","stim/objects/HouseObjects/garbagebin.png",214,1,214,0.5,"stim/43.jpeg",4,3,1,NA,"HouseObjects",2,2,"right","right",0.643000126,1,1,1,1,NA,NA,NA,NA,NA,NA,NA,NA,NA,NA,NA,NA,NA,NA,NA,NA,NA,NA,NA,NA,NA,NA,NA,NA
"110","stim/objects/HouseObjects/handbrush.png",215,1,215,0.7,"stim/53.jpeg",5,3,2,NA,"HouseObjects",2,3,"right","right",0.59800005,1,1,1,1,NA,NA,NA,NA,NA,NA,NA,NA,NA,NA,NA,NA,NA,NA,NA,NA,NA,NA,NA,NA,NA,NA,NA,NA
"103","stim/objects/HouseObjects/hairdryer.png",216,1,216,0.7,"stim/52.jpeg",5,2,2,NA,"HouseObjects",2,4,"right","right",0.516000032,1,1,1,1,NA,NA,NA,NA,NA,NA,NA,NA,NA,NA,NA,NA,NA,NA,NA,NA,NA,NA,NA,NA,NA,NA,NA,NA
"161","stim/objects/Instruments/flute.png",217,1,217,0.5,"stim/34.jpeg",3,4,1,NA,"Instruments",1,2,"left","right",0.830000162,0,0,1,1,NA,NA,NA,NA,NA,NA,NA,NA,NA,NA,NA,NA,NA,NA,NA,NA,NA,NA,NA,NA,NA,NA,NA,NA
"191","stim/objects/Instruments/grandpiano.png",218,1,218,0.5,"stim/44.jpeg",4,4,1,NA,"Instruments",1,4,"left","right",0.436000109,0,0,1,1,NA,NA,NA,NA,NA,NA,NA,NA,NA,NA,NA,NA,NA,NA,NA,NA,NA,NA,NA,NA,NA,NA,NA,NA
"24","stim/objects/HouseObjects/dishsoap2.png",219,1,219,0.3,"stim/63.jpeg",6,3,2,NA,"HouseObjects",2,2,"right","left",0.603000164,0,0,1,1,NA,NA,NA,NA,NA,NA,NA,NA,NA,NA,NA,NA,NA,NA,NA,NA,NA,NA,NA,NA,NA,NA,NA,NA
"203","stim/objects/Instruments/guitarcase2.png",220,1,220,0.9,"stim/21.jpeg",2,1,3,NA,"Instruments",1,2,"left","left",0.509000063,1,1,1,1,NA,NA,NA,NA,NA,NA,NA,NA,NA,NA,NA,NA,NA,NA,NA,NA,NA,NA,NA,NA,NA,NA,NA,NA
"50","stim/objects/HouseObjects/flyswatter.png",221,1,221,0.5,"stim/42.jpeg",4,2,1,NA,"HouseObjects",2,3,"right","right",0.67200017,1,1,1,1,NA,NA,NA,NA,NA,NA,NA,NA,NA,NA,NA,NA,NA,NA,NA,NA,NA,NA,NA,NA,NA,NA,NA,NA
"228","stim/objects/Instruments/harp2.png",222,1,222,0.9,"stim/23.jpeg",2,3,3,NA,"Instruments",1,1,"left","left",0.605000019,1,1,1,1,NA,NA,NA,NA,NA,NA,NA,NA,NA,NA,NA,NA,NA,NA,NA,NA,NA,NA,NA,NA,NA,NA,NA,NA
"132","stim/objects/Instruments/drums2.png",223,1,223,0.7,"stim/61.jpeg",6,1,2,NA,"Instruments",1,2,"left","left",0.611999989,1,1,1,1,NA,NA,NA,NA,NA,NA,NA,NA,NA,NA,NA,NA,NA,NA,NA,NA,NA,NA,NA,NA,NA,NA,NA,NA
"178","stim/objects/Instruments/frenchhorn.png",224,1,224,0.5,"stim/42.jpeg",4,2,1,NA,"Instruments",1,2,"left","right",0.670000076,0,0,1,1,NA,NA,NA,NA,NA,NA,NA,NA,NA,NA,NA,NA,NA,NA,NA,NA,NA,NA,NA,NA,NA,NA,NA,NA
"173","stim/objects/Instruments/flutetrans.png",225,1,225,0.5,"stim/41.jpeg",4,1,1,NA,"Instruments",1,1,"left","left",0.465000153,1,1,1,1,NA,NA,NA,NA,NA,NA,NA,NA,NA,NA,NA,NA,NA,NA,NA,NA,NA,NA,NA,NA,NA,NA,NA,NA
"179","stim/objects/Instruments/frenchhorn.png",226,1,226,0.5,"stim/42.jpeg",4,2,1,NA,"Instruments",1,1,"left","right",0.587000132,0,0,1,1,NA,NA,NA,NA,NA,NA,NA,NA,NA,NA,NA,NA,NA,NA,NA,NA,NA,NA,NA,NA,NA,NA,NA,NA
"204","stim/objects/Instruments/guitarcase2.png",227,1,227,0.9,"stim/21.jpeg",2,1,3,NA,"Instruments",1,3,"left","left",0.48300004,1,1,1,1,NA,NA,NA,NA,NA,NA,NA,NA,NA,NA,NA,NA,NA,NA,NA,NA,NA,NA,NA,NA,NA,NA,NA,NA
"51","stim/objects/HouseObjects/flyswatter.png",228,1,228,0.5,"stim/42.jpeg",4,2,1,NA,"HouseObjects",2,1,"right","left",0.799000263,0,0,1,1,NA,NA,NA,NA,NA,NA,NA,NA,NA,NA,NA,NA,NA,NA,NA,NA,NA,NA,NA,NA,NA,NA,NA,NA
"5","stim/objects/HouseObjects/coffee.png",229,1,229,0.5,"stim/31.jpeg",3,1,1,NA,"HouseObjects",2,3,"right","left",0.572000027,0,0,1,1,NA,NA,NA,NA,NA,NA,NA,NA,NA,NA,NA,NA,NA,NA,NA,NA,NA,NA,NA,NA,NA,NA,NA,NA
"79","stim/objects/HouseObjects/glass.png",230,1,230,0.5,"stim/44.jpeg",4,4,1,NA,"HouseObjects",2,1,"right","",NA,0,0,1,1,NA,NA,NA,NA,NA,NA,NA,NA,NA,NA,NA,NA,NA,NA,NA,NA,NA,NA,NA,NA,NA,NA,NA,NA
"37","stim/objects/HouseObjects/dustpan.png",231,1,231,0.5,"stim/41.jpeg",4,1,1,NA,"HouseObjects",2,2,"right","right",0.756000042,1,1,1,1,NA,NA,NA,NA,NA,NA,NA,NA,NA,NA,NA,NA,NA,NA,NA,NA,NA,NA,NA,NA,NA,NA,NA,NA
"74","stim/objects/HouseObjects/garbagebin2.png",232,1,232,0.9,"stim/13.jpeg",1,3,3,NA,"HouseObjects",2,1,"right","",NA,0,0,1,1,NA,NA,NA,NA,NA,NA,NA,NA,NA,NA,NA,NA,NA,NA,NA,NA,NA,NA,NA,NA,NA,NA,NA,NA
"111","stim/objects/HouseObjects/handbrush.png",233,1,233,0.7,"stim/53.jpeg",5,3,2,NA,"HouseObjects",2,1,"right","right",0.576000214,1,1,1,1,NA,NA,NA,NA,NA,NA,NA,NA,NA,NA,NA,NA,NA,NA,NA,NA,NA,NA,NA,NA,NA,NA,NA,NA
"119","stim/objects/HouseObjects/handvacuum.png",234,1,234,0.7,"stim/54.jpeg",5,4,2,NA,"HouseObjects",2,1,"right","right",0.536000013,1,1,1,1,NA,NA,NA,NA,NA,NA,NA,NA,NA,NA,NA,NA,NA,NA,NA,NA,NA,NA,NA,NA,NA,NA,NA,NA
"207","stim/objects/Instruments/harmonica.png",235,1,235,0.3,"stim/52.jpeg",5,2,2,NA,"Instruments",1,3,"left","right",0.549000263,0,0,1,1,NA,NA,NA,NA,NA,NA,NA,NA,NA,NA,NA,NA,NA,NA,NA,NA,NA,NA,NA,NA,NA,NA,NA,NA
"21","stim/objects/HouseObjects/dishsoap.png",236,1,236,0.5,"stim/33.jpeg",3,3,1,NA,"HouseObjects",2,1,"right","left",0.746000051,0,0,1,1,NA,NA,NA,NA,NA,NA,NA,NA,NA,NA,NA,NA,NA,NA,NA,NA,NA,NA,NA,NA,NA,NA,NA,NA
"240","stim/objects/Instruments/hihat2.png",237,1,237,0.9,"stim/24.jpeg",2,4,3,NA,"Instruments",1,2,"left","left",0.538000107,1,1,1,1,NA,NA,NA,NA,NA,NA,NA,NA,NA,NA,NA,NA,NA,NA,NA,NA,NA,NA,NA,NA,NA,NA,NA,NA
"185","stim/objects/Instruments/gong.png",238,1,238,0.5,"stim/43.jpeg",4,3,1,NA,"Instruments",1,4,"left","right",0.639000177,0,0,1,1,NA,NA,NA,NA,NA,NA,NA,NA,NA,NA,NA,NA,NA,NA,NA,NA,NA,NA,NA,NA,NA,NA,NA,NA
"60","stim/objects/HouseObjects/flyswatter2.png",239,1,239,0.9,"stim/12.jpeg",1,2,3,NA,"HouseObjects",2,1,"right","right",0.612000227,1,1,1,1,NA,NA,NA,NA,NA,NA,NA,NA,NA,NA,NA,NA,NA,NA,NA,NA,NA,NA,NA,NA,NA,NA,NA,NA
"156","stim/objects/Instruments/electricguitar2.png",240,1,240,0.7,"stim/63.jpeg",6,3,2,NA,"Instruments",1,3,"left","left",0.553999901,1,1,1,1,NA,NA,NA,NA,NA,NA,NA,NA,NA,NA,NA,NA,NA,NA,NA,NA,NA,NA,NA,NA,NA,NA,NA,NA
"308","stim/objects/HouseObjects/lintroller3.png",248,1,241,0.9,"stim/14.jpeg",1,4,3,2,"HouseObjects",2,4,"right","",NA,0,0,1,0,NA,NA,NA,NA,NA,NA,NA,NA,NA,NA,NA,NA,NA,NA,NA,NA,NA,NA,NA,NA,NA,NA,NA,NA
"291","stim/objects/HouseObjects/knife3.png",249,1,242,0.9,"stim/11.jpeg",1,1,3,2,"HouseObjects",2,1,"right","right",0.525000095,1,1,1,0,NA,NA,NA,NA,NA,NA,NA,NA,NA,NA,NA,NA,NA,NA,NA,NA,NA,NA,NA,NA,NA,NA,NA,NA
"405","stim/objects/HouseObjects/wateringcan4.png",250,1,243,0.1,"stim/24.jpeg",2,4,3,1,"HouseObjects",2,2,"right","left",0.572999954,0,0,1,0,21,1,1,0.1,2,"stim/24.jpeg",2,4,"stim/24.jpeg",2,"right",1.046999931,4,1,1.016000032,1,0.26699996,21,0,0,NA,0,NA,1
"390","stim/objects/HouseObjects/sponge3.png",251,1,244,0.5,"stim/42.jpeg",4,2,1,1,"HouseObjects",2,1,"right","left",0.704999924,0,0,1,0,31,1,1,0.5,2,"stim/42.jpeg",4,2,"stim/42.jpeg",1,"left",1.241000175,4,1,17.31200004,1,1.715000153,31,1,0,0,1,1,1
"562","stim/objects/Instruments/trumpet4.png",252,1,245,0.9,"stim/22.jpeg",2,2,3,1,"Instruments",1,1,"left","left",0.673000097,1,1,1,0,197,1,1,0.9,1,"stim/22.jpeg",2,2,"stim/22.jpeg",1,"right",0.697999954,2,2,0.246999979,2,0.46600008,197,0,1,NA,0,NA,1
"473","stim/objects/Instruments/metronome3.png",253,1,246,0.9,"stim/21.jpeg",2,1,3,2,"Instruments",1,1,"left","left",0.742000103,1,1,1,0,NA,NA,NA,NA,NA,NA,NA,NA,NA,NA,NA,NA,NA,NA,NA,NA,NA,NA,NA,NA,NA,NA,NA,NA
"358","stim/objects/HouseObjects/pan4.png",254,1,247,0.9,"stim/12.jpeg",1,2,3,1,"HouseObjects",2,4,"right","right",0.56400013,1,1,1,0,132,1,1,0.9,2,"stim/12.jpeg",1,2,"stim/12.jpeg",4,"left",3.563000202,4,1,2.782999992,4,2.000999928,132,1,0,0,1,1,1
"394","stim/objects/HouseObjects/teapot3.png",255,1,248,0.5,"stim/44.jpeg",4,4,1,1,"HouseObjects",2,2,"right","right",0.593000174,1,1,1,0,183,1,1,0.5,2,"stim/44.jpeg",4,4,"stim/44.jpeg",2,"right",0.602999926,2,2,0.152999878,2,0.373999834,183,0,0,NA,1,NA,1
"325","stim/objects/HouseObjects/match3.png",256,1,249,0.9,"stim/14.jpeg",1,4,3,2,"HouseObjects",2,3,"right","right",0.617000103,1,1,1,0,NA,NA,NA,NA,NA,NA,NA,NA,NA,NA,NA,NA,NA,NA,NA,NA,NA,NA,NA,NA,NA,NA,NA,NA
"545","stim/objects/Instruments/record_player3.png",257,1,250,0.5,"stim/32.jpeg",3,2,1,1,"Instruments",1,3,"left","left",0.681000233,1,1,1,0,93,1,1,0.5,1,"stim/32.jpeg",3,2,"stim/32.jpeg",3,"left",2.750999928,2,1,1.373000145,2,1.445999861,93,1,0,0,0,0,1
"279","stim/objects/HouseObjects/iron3.png",258,1,251,0.7,"stim/52.jpeg",5,2,2,2,"HouseObjects",2,4,"right","right",0.522000074,1,1,1,0,NA,NA,NA,NA,NA,NA,NA,NA,NA,NA,NA,NA,NA,NA,NA,NA,NA,NA,NA,NA,NA,NA,NA,NA
"361","stim/objects/HouseObjects/pitcher3.png",259,1,252,0.9,"stim/11.jpeg",1,1,3,2,"HouseObjects",2,1,"right","right",0.483000278,1,1,1,0,NA,NA,NA,NA,NA,NA,NA,NA,NA,NA,NA,NA,NA,NA,NA,NA,NA,NA,NA,NA,NA,NA,NA,NA
"391","stim/objects/HouseObjects/sponge4.png",260,1,253,0.1,"stim/21.jpeg",2,1,3,1,"HouseObjects",2,1,"right","left",0.615999937,0,0,1,0,84,1,1,0.1,2,"stim/21.jpeg",2,1,"stim/21.jpeg",1,"right",3.000999928,1,1,0.722999811,1,0.112999916,84,0,1,NA,1,NA,1
"475","stim/objects/Instruments/metronome3.png",261,1,254,0.9,"stim/24.jpeg",2,4,3,2,"Instruments",1,3,"left","left",0.447000027,1,1,1,0,NA,NA,NA,NA,NA,NA,NA,NA,NA,NA,NA,NA,NA,NA,NA,NA,NA,NA,NA,NA,NA,NA,NA,NA
"457","stim/objects/Instruments/marimba3.png",262,1,255,0.9,"stim/24.jpeg",2,4,3,2,"Instruments",1,1,"left","left",0.609000206,1,1,1,0,NA,NA,NA,NA,NA,NA,NA,NA,NA,NA,NA,NA,NA,NA,NA,NA,NA,NA,NA,NA,NA,NA,NA,NA
"376","stim/objects/HouseObjects/recyclingbin3.png",263,1,256,0.5,"stim/32.jpeg",3,2,1,1,"HouseObjects",2,3,"right","left",0.622999907,0,0,1,0,86,1,1,0.5,1,"stim/32.jpeg",3,2,"stim/32.jpeg",3,"left",1.314999819,4,4,2.28000021,4,3.927999973,86,1,0,0,0,0,1
"343","stim/objects/HouseObjects/pan3.png",264,1,257,0.9,"stim/12.jpeg",1,2,3,2,"HouseObjects",2,3,"right","right",0.626000166,1,1,1,0,NA,NA,NA,NA,NA,NA,NA,NA,NA,NA,NA,NA,NA,NA,NA,NA,NA,NA,NA,NA,NA,NA,NA,NA
"286","stim/objects/HouseObjects/ironingboard4.png",265,1,258,0.3,"stim/62.jpeg",6,2,2,1,"HouseObjects",2,2,"right","right",0.770999908,1,1,1,0,95,1,1,0.3,2,"stim/62.jpeg",6,2,"stim/62.jpeg",2,"right",0.762000084,4,3,0.838999987,3,0.128000021,95,0,0,NA,0,NA,1
"452","stim/objects/Instruments/maraca3.png",266,1,259,0.7,"stim/63.jpeg",6,3,2,2,"Instruments",1,3,"left","left",0.656000137,1,1,1,0,NA,NA,NA,NA,NA,NA,NA,NA,NA,NA,NA,NA,NA,NA,NA,NA,NA,NA,NA,NA,NA,NA,NA,NA
"490","stim/objects/Instruments/musicsheet3.png",267,1,260,0.9,"stim/22.jpeg",2,2,3,2,"Instruments",1,4,"left","left",0.599000216,1,1,1,0,NA,NA,NA,NA,NA,NA,NA,NA,NA,NA,NA,NA,NA,NA,NA,NA,NA,NA,NA,NA,NA,NA,NA,NA
"253","stim/objects/HouseObjects/bleachbottle3.png",268,1,261,0.5,"stim/34.jpeg",3,4,1,2,"HouseObjects",2,1,"right","right",0.535000086,1,1,1,0,NA,NA,NA,NA,NA,NA,NA,NA,NA,NA,NA,NA,NA,NA,NA,NA,NA,NA,NA,NA,NA,NA,NA,NA
"375","stim/objects/HouseObjects/pitcher4.png",269,1,262,0.9,"stim/13.jpeg",1,3,3,1,"HouseObjects",2,3,"right","",NA,0,0,1,0,112,1,1,0.9,2,"stim/13.jpeg",1,3,"stim/13.jpeg",3,"left",1.110999823,4,3,10.43400002,2,0.928999901,112,1,1,1,0,0,1
"310","stim/objects/HouseObjects/lintroller3.png",270,1,263,0.9,"stim/12.jpeg",1,2,3,2,"HouseObjects",2,3,"right","right",0.746999979,1,1,1,0,NA,NA,NA,NA,NA,NA,NA,NA,NA,NA,NA,NA,NA,NA,NA,NA,NA,NA,NA,NA,NA,NA,NA,NA
"569","stim/objects/Instruments/xylophone3.png",271,1,264,0.3,"stim/51.jpeg",5,1,2,1,"Instruments",1,4,"left","right",0.482000113,0,0,1,0,14,1,1,0.3,1,"stim/51.jpeg",5,1,"stim/51.jpeg",4,"right",1.461999893,4,4,14.1500001,4,0.972999811,14,0,0,NA,1,NA,1
"362","stim/objects/HouseObjects/pitcher3.png",272,1,265,0.9,"stim/12.jpeg",1,2,3,2,"HouseObjects",2,3,"right","right",0.516000271,1,1,1,0,NA,NA,NA,NA,NA,NA,NA,NA,NA,NA,NA,NA,NA,NA,NA,NA,NA,NA,NA,NA,NA,NA,NA,NA
"550","stim/objects/Instruments/saxophone4.png",273,1,266,0.1,"stim/12.jpeg",1,2,3,1,"Instruments",1,4,"left","right",0.604000092,0,0,1,0,99,1,1,0.1,1,"stim/12.jpeg",1,2,"stim/12.jpeg",4,"right",0.886999846,3,3,0.114000082,3,1.628999949,99,0,0,NA,0,NA,1
"477","stim/objects/Instruments/metronome3.png",274,1,267,0.9,"stim/23.jpeg",2,3,3,2,"Instruments",1,4,"left","left",0.827000141,1,1,1,0,NA,NA,NA,NA,NA,NA,NA,NA,NA,NA,NA,NA,NA,NA,NA,NA,NA,NA,NA,NA,NA,NA,NA,NA
"489","stim/objects/Instruments/metronome4.png",275,1,268,0.1,"stim/12.jpeg",1,2,3,1,"Instruments",1,4,"left","right",0.592999935,0,0,1,0,17,1,1,0.1,1,"stim/12.jpeg",1,2,"stim/12.jpeg",4,"right",22.37100005,1,1,0.881000042,1,0.782000065,17,0,0,NA,0,NA,1
"381","stim/objects/HouseObjects/rubbergloves4.png",276,1,269,0.9,"stim/12.jpeg",1,2,3,1,"HouseObjects",2,3,"right","right",0.602000237,1,1,1,0,169,1,1,0.9,2,"stim/12.jpeg",1,2,"stim/12.jpeg",3,"left",2.162999868,4,1,2.601000071,1,1.84800005,169,1,0,0,0,0,1
"424","stim/objects/Instruments/cello3.png",277,1,270,0.5,"stim/41.jpeg",4,1,1,2,"Instruments",1,3,"left","left",0.782000065,1,1,1,0,NA,NA,NA,NA,NA,NA,NA,NA,NA,NA,NA,NA,NA,NA,NA,NA,NA,NA,NA,NA,NA,NA,NA,NA
"508","stim/objects/Instruments/musicstand3.png",278,1,271,0.9,"stim/22.jpeg",2,2,3,2,"Instruments",1,3,"left","left",0.654999971,1,1,1,0,NA,NA,NA,NA,NA,NA,NA,NA,NA,NA,NA,NA,NA,NA,NA,NA,NA,NA,NA,NA,NA,NA,NA,NA
"421","stim/objects/Instruments/bassguitar3.png",279,1,272,0.5,"stim/44.jpeg",4,4,1,2,"Instruments",1,2,"left","left",0.635999918,1,1,1,0,NA,NA,NA,NA,NA,NA,NA,NA,NA,NA,NA,NA,NA,NA,NA,NA,NA,NA,NA,NA,NA,NA,NA,NA
"478","stim/objects/Instruments/metronome3.png",280,1,273,0.9,"stim/21.jpeg",2,1,3,2,"Instruments",1,3,"left","left",0.57400012,1,1,1,0,NA,NA,NA,NA,NA,NA,NA,NA,NA,NA,NA,NA,NA,NA,NA,NA,NA,NA,NA,NA,NA,NA,NA,NA
"566","stim/objects/Instruments/violin4.png",281,1,274,0.9,"stim/24.jpeg",2,4,3,1,"Instruments",1,4,"left","right",0.544000149,0,0,1,0,26,1,1,0.9,1,"stim/24.jpeg",2,4,"stim/24.jpeg",4,"left",1.29399991,4,2,5.939999819,2,3.049999952,26,1,0,0,0,0,1
"560","stim/objects/Instruments/trombone4.png",282,1,275,0.9,"stim/21.jpeg",2,1,3,1,"Instruments",1,2,"left","left",0.715000153,1,1,1,0,35,1,1,0.9,1,"stim/21.jpeg",2,1,"stim/21.jpeg",2,"right",1.135999918,2,2,0.676000118,2,0.208999872,35,0,0,NA,1,NA,1
"548","stim/objects/Instruments/record4.png",283,1,276,0.1,"stim/14.jpeg",1,4,3,1,"Instruments",1,1,"left","right",0.59100008,0,0,1,0,176,1,1,0.1,1,"stim/14.jpeg",1,4,"stim/14.jpeg",1,"left",2.549999952,3,2,0.928999901,2,0.243000031,176,1,0,0,0,0,1
"292","stim/objects/HouseObjects/knife3.png",284,1,277,0.9,"stim/11.jpeg",1,1,3,2,"HouseObjects",2,3,"right","",NA,0,0,1,0,NA,NA,NA,NA,NA,NA,NA,NA,NA,NA,NA,NA,NA,NA,NA,NA,NA,NA,NA,NA,NA,NA,NA,NA
"451","stim/objects/Instruments/laud4.png",285,1,278,0.7,"stim/64.jpeg",6,4,2,1,"Instruments",1,2,"left","left",0.578000307,1,1,1,0,171,1,1,0.7,1,"stim/64.jpeg",6,4,"stim/64.jpeg",2,"right",1.132000208,2,2,0.428999901,2,0.340999842,171,0,0,NA,1,NA,1
"271","stim/objects/HouseObjects/clothesdryingrack3.png",286,1,279,0.7,"stim/53.jpeg",5,3,2,2,"HouseObjects",2,1,"right","right",0.496999979,1,1,1,0,NA,NA,NA,NA,NA,NA,NA,NA,NA,NA,NA,NA,NA,NA,NA,NA,NA,NA,NA,NA,NA,NA,NA,NA
"326","stim/objects/HouseObjects/match3.png",287,1,280,0.9,"stim/11.jpeg",1,1,3,2,"HouseObjects",2,2,"right","right",0.463000059,1,1,1,0,NA,NA,NA,NA,NA,NA,NA,NA,NA,NA,NA,NA,NA,NA,NA,NA,NA,NA,NA,NA,NA,NA,NA,NA
"341","stim/objects/HouseObjects/match4.png",288,1,281,0.9,"stim/11.jpeg",1,1,3,1,"HouseObjects",2,4,"right","right",0.403000116,1,1,1,0,111,1,1,0.9,2,"stim/11.jpeg",1,1,"stim/11.jpeg",4,"right",1.11500001,4,4,0.487999916,4,0.141000032,111,0,0,NA,1,NA,1
"401","stim/objects/HouseObjects/towel4.png",289,1,282,0.1,"stim/22.jpeg",2,2,3,1,"HouseObjects",2,3,"right","left",0.584000111,0,0,1,0,77,1,1,0.1,2,"stim/22.jpeg",2,2,"stim/22.jpeg",3,"left",1.576999903,4,4,12.93799996,2,3.222000122,77,1,0,0,0,0,1
"493","stim/objects/Instruments/musicsheet3.png",290,1,283,0.9,"stim/22.jpeg",2,2,3,2,"Instruments",1,2,"left","right",0.531000137,0,0,1,0,NA,NA,NA,NA,NA,NA,NA,NA,NA,NA,NA,NA,NA,NA,NA,NA,NA,NA,NA,NA,NA,NA,NA,NA
"312","stim/objects/HouseObjects/lintroller3.png",291,1,284,0.9,"stim/14.jpeg",1,4,3,2,"HouseObjects",2,1,"right","right",0.626000166,1,1,1,0,NA,NA,NA,NA,NA,NA,NA,NA,NA,NA,NA,NA,NA,NA,NA,NA,NA,NA,NA,NA,NA,NA,NA,NA
"287","stim/objects/HouseObjects/key3.png",292,1,285,0.7,"stim/51.jpeg",5,1,2,2,"HouseObjects",2,1,"right","right",0.59100008,1,1,1,0,NA,NA,NA,NA,NA,NA,NA,NA,NA,NA,NA,NA,NA,NA,NA,NA,NA,NA,NA,NA,NA,NA,NA,NA
"294","stim/objects/HouseObjects/knife3.png",293,1,286,0.9,"stim/13.jpeg",1,3,3,2,"HouseObjects",2,4,"right","right",0.486000299,1,1,1,0,NA,NA,NA,NA,NA,NA,NA,NA,NA,NA,NA,NA,NA,NA,NA,NA,NA,NA,NA,NA,NA,NA,NA,NA
"313","stim/objects/HouseObjects/lintroller3.png",294,1,287,0.9,"stim/14.jpeg",1,4,3,2,"HouseObjects",2,3,"right","right",0.548000097,1,1,1,0,NA,NA,NA,NA,NA,NA,NA,NA,NA,NA,NA,NA,NA,NA,NA,NA,NA,NA,NA,NA,NA,NA,NA,NA
"402","stim/objects/HouseObjects/vacuumcleaner3.png",295,1,288,0.7,"stim/51.jpeg",5,1,2,1,"HouseObjects",2,4,"right","right",0.444000006,1,1,1,0,148,1,1,0.7,2,"stim/51.jpeg",5,1,"stim/51.jpeg",4,"right",1.832999945,2,2,0.180000067,2,0.384000063,148,0,0,NA,0,NA,1
"511","stim/objects/Instruments/musicstand3.png",296,1,289,0.9,"stim/22.jpeg",2,2,3,2,"Instruments",1,1,"left","left",0.548000097,1,1,1,0,NA,NA,NA,NA,NA,NA,NA,NA,NA,NA,NA,NA,NA,NA,NA,NA,NA,NA,NA,NA,NA,NA,NA,NA
"525","stim/objects/Instruments/oboe3.png",297,1,290,0.9,"stim/22.jpeg",2,2,3,2,"Instruments",1,1,"left","left",0.423000097,1,1,1,0,NA,NA,NA,NA,NA,NA,NA,NA,NA,NA,NA,NA,NA,NA,NA,NA,NA,NA,NA,NA,NA,NA,NA,NA
"444","stim/objects/Instruments/keyboard3.png",298,1,291,0.7,"stim/61.jpeg",6,1,2,2,"Instruments",1,2,"left","left",0.535000086,1,1,1,0,NA,NA,NA,NA,NA,NA,NA,NA,NA,NA,NA,NA,NA,NA,NA,NA,NA,NA,NA,NA,NA,NA,NA,NA
"418","stim/objects/Instruments/bassdrum3.png",299,1,292,0.5,"stim/31.jpeg",3,1,1,2,"Instruments",1,1,"left","right",0.588000059,0,0,1,0,NA,NA,NA,NA,NA,NA,NA,NA,NA,NA,NA,NA,NA,NA,NA,NA,NA,NA,NA,NA,NA,NA,NA,NA
"458","stim/objects/Instruments/marimba3.png",300,1,293,0.9,"stim/21.jpeg",2,1,3,2,"Instruments",1,2,"left","left",0.562000036,1,1,1,0,NA,NA,NA,NA,NA,NA,NA,NA,NA,NA,NA,NA,NA,NA,NA,NA,NA,NA,NA,NA,NA,NA,NA,NA
"363","stim/objects/HouseObjects/pitcher3.png",301,1,294,0.9,"stim/11.jpeg",1,1,3,2,"HouseObjects",2,4,"right","right",0.577000141,1,1,1,0,NA,NA,NA,NA,NA,NA,NA,NA,NA,NA,NA,NA,NA,NA,NA,NA,NA,NA,NA,NA,NA,NA,NA,NA
"280","stim/objects/HouseObjects/iron3.png",302,1,295,0.7,"stim/53.jpeg",5,3,2,2,"HouseObjects",2,4,"right","right",0.470000029,1,1,1,0,NA,NA,NA,NA,NA,NA,NA,NA,NA,NA,NA,NA,NA,NA,NA,NA,NA,NA,NA,NA,NA,NA,NA,NA
"570","stim/objects/Instruments/xylophone4.png",303,1,296,0.9,"stim/22.jpeg",2,2,3,1,"Instruments",1,4,"left","left",0.793000221,1,1,1,0,160,1,1,0.9,1,"stim/22.jpeg",2,2,"stim/22.jpeg",4,"right",0.829999924,3,3,0.25999999,3,0.399000168,160,0,0,NA,0,NA,1
"542","stim/objects/Instruments/panflute4.png",304,1,297,0.1,"stim/12.jpeg",1,2,3,1,"Instruments",1,1,"left","right",0.534000158,0,0,1,0,123,1,1,0.1,1,"stim/12.jpeg",1,2,"stim/12.jpeg",1,"right",0.865999937,4,4,0.184999943,4,0.604000092,123,0,0,NA,0,NA,1
"327","stim/objects/HouseObjects/match3.png",305,1,298,0.9,"stim/11.jpeg",1,1,3,2,"HouseObjects",2,1,"right","right",0.539000034,1,1,1,0,NA,NA,NA,NA,NA,NA,NA,NA,NA,NA,NA,NA,NA,NA,NA,NA,NA,NA,NA,NA,NA,NA,NA,NA
"345","stim/objects/HouseObjects/pan3.png",306,1,299,0.9,"stim/11.jpeg",1,1,3,2,"HouseObjects",2,3,"right","right",0.534000158,1,1,1,0,NA,NA,NA,NA,NA,NA,NA,NA,NA,NA,NA,NA,NA,NA,NA,NA,NA,NA,NA,NA,NA,NA,NA,NA
"295","stim/objects/HouseObjects/knife3.png",307,1,300,0.9,"stim/11.jpeg",1,1,3,2,"HouseObjects",2,2,"right","right",0.450999975,1,1,1,0,NA,NA,NA,NA,NA,NA,NA,NA,NA,NA,NA,NA,NA,NA,NA,NA,NA,NA,NA,NA,NA,NA,NA,NA
"257","stim/objects/HouseObjects/blender3.png",308,1,301,0.5,"stim/42.jpeg",4,2,1,2,"HouseObjects",2,4,"right","right",0.493000031,1,1,1,0,NA,NA,NA,NA,NA,NA,NA,NA,NA,NA,NA,NA,NA,NA,NA,NA,NA,NA,NA,NA,NA,NA,NA,NA
"491","stim/objects/Instruments/musicsheet3.png",309,1,302,0.9,"stim/21.jpeg",2,1,3,2,"Instruments",1,4,"left","left",0.552000046,1,1,1,0,NA,NA,NA,NA,NA,NA,NA,NA,NA,NA,NA,NA,NA,NA,NA,NA,NA,NA,NA,NA,NA,NA,NA,NA
"283","stim/objects/HouseObjects/ironingboard3.png",310,1,303,0.7,"stim/54.jpeg",5,4,2,2,"HouseObjects",2,1,"right","right",0.619000196,1,1,1,0,NA,NA,NA,NA,NA,NA,NA,NA,NA,NA,NA,NA,NA,NA,NA,NA,NA,NA,NA,NA,NA,NA,NA,NA
"492","stim/objects/Instruments/musicsheet3.png",311,1,304,0.9,"stim/21.jpeg",2,1,3,2,"Instruments",1,4,"left","right",0.567000151,0,0,1,0,NA,NA,NA,NA,NA,NA,NA,NA,NA,NA,NA,NA,NA,NA,NA,NA,NA,NA,NA,NA,NA,NA,NA,NA
"388","stim/objects/HouseObjects/scale3.png",312,1,305,0.5,"stim/41.jpeg",4,1,1,1,"HouseObjects",2,3,"right","left",0.713999987,0,0,1,0,136,1,1,0.5,2,"stim/41.jpeg",4,1,"stim/41.jpeg",3,"right",2.27699995,2,1,0.759000063,1,0.278999805,136,0,1,NA,0,NA,1
"495","stim/objects/Instruments/musicsheet3.png",313,1,306,0.9,"stim/23.jpeg",2,3,3,2,"Instruments",1,4,"left","left",0.553000212,1,1,1,0,NA,NA,NA,NA,NA,NA,NA,NA,NA,NA,NA,NA,NA,NA,NA,NA,NA,NA,NA,NA,NA,NA,NA,NA
"314","stim/objects/HouseObjects/lintroller3.png",314,1,307,0.9,"stim/13.jpeg",1,3,3,2,"HouseObjects",2,4,"right","right",0.59800005,1,1,1,0,NA,NA,NA,NA,NA,NA,NA,NA,NA,NA,NA,NA,NA,NA,NA,NA,NA,NA,NA,NA,NA,NA,NA,NA
"506","stim/objects/Instruments/musicsheet4.png",315,1,308,0.1,"stim/13.jpeg",1,3,3,1,"Instruments",1,1,"left","right",0.548000097,0,0,1,0,140,1,1,0.1,1,"stim/13.jpeg",1,3,"stim/13.jpeg",1,"left",0.980999947,4,1,5.626999855,3,1.394000053,140,1,0,0,0,0,1
"265","stim/objects/HouseObjects/bucket3.png",316,1,309,0.5,"stim/41.jpeg",4,1,1,2,"HouseObjects",2,3,"right","left",0.631000042,0,0,1,0,NA,NA,NA,NA,NA,NA,NA,NA,NA,NA,NA,NA,NA,NA,NA,NA,NA,NA,NA,NA,NA,NA,NA,NA
"328","stim/objects/HouseObjects/match3.png",317,1,310,0.9,"stim/14.jpeg",1,4,3,2,"HouseObjects",2,3,"right","right",0.568000078,1,1,1,0,NA,NA,NA,NA,NA,NA,NA,NA,NA,NA,NA,NA,NA,NA,NA,NA,NA,NA,NA,NA,NA,NA,NA,NA
"427","stim/objects/Instruments/chime3.png",318,1,311,0.5,"stim/41.jpeg",4,1,1,2,"Instruments",1,1,"left","right",0.582000017,0,0,1,0,NA,NA,NA,NA,NA,NA,NA,NA,NA,NA,NA,NA,NA,NA,NA,NA,NA,NA,NA,NA,NA,NA,NA,NA
"415","stim/objects/Instruments/banjo3.png",319,1,312,0.5,"stim/31.jpeg",3,1,1,2,"Instruments",1,3,"left","right",0.57400012,0,0,1,0,NA,NA,NA,NA,NA,NA,NA,NA,NA,NA,NA,NA,NA,NA,NA,NA,NA,NA,NA,NA,NA,NA,NA,NA
"329","stim/objects/HouseObjects/match3.png",320,1,313,0.9,"stim/13.jpeg",1,3,3,2,"HouseObjects",2,3,"right","right",0.556000233,1,1,1,0,NA,NA,NA,NA,NA,NA,NA,NA,NA,NA,NA,NA,NA,NA,NA,NA,NA,NA,NA,NA,NA,NA,NA,NA
"384","stim/objects/HouseObjects/safetypin3.png",321,1,314,0.5,"stim/32.jpeg",3,2,1,1,"HouseObjects",2,4,"right","right",0.669000149,1,1,1,0,58,1,1,0.5,1,"stim/32.jpeg",3,2,"stim/32.jpeg",4,"left",0.90199995,4,2,4.404000044,3,2.171000004,58,1,1,1,0,0,1
"432","stim/objects/Instruments/clarinet4.png",322,1,315,0.7,"stim/63.jpeg",6,3,2,1,"Instruments",1,3,"left","left",0.630000114,1,1,1,0,115,1,1,0.7,1,"stim/63.jpeg",6,3,"stim/63.jpeg",3,"right",7.139000177,1,1,0.749000072,1,0.119000196,115,0,0,NA,0,NA,1
"426","stim/objects/Instruments/cello4.png",323,1,316,0.7,"stim/61.jpeg",6,1,2,1,"Instruments",1,4,"left","left",0.546000004,1,1,1,0,61,1,1,0.7,1,"stim/61.jpeg",6,1,"stim/61.jpeg",4,"left",1.15199995,4,4,6.496999979,3,1.01699996,61,1,0,0,0,0,1
"564","stim/objects/Instruments/tuba4.png",324,1,317,0.9,"stim/23.jpeg",2,3,3,1,"Instruments",1,2,"left","left",0.584000111,1,1,1,0,51,1,1,0.9,1,"stim/23.jpeg",2,3,"stim/23.jpeg",2,"right",2.245999813,2,4,1.315000057,4,0.243000031,51,0,0,NA,0,NA,1
"512","stim/objects/Instruments/musicstand3.png",325,1,318,0.9,"stim/23.jpeg",2,3,3,2,"Instruments",1,2,"left","left",0.548000097,1,1,1,0,NA,NA,NA,NA,NA,NA,NA,NA,NA,NA,NA,NA,NA,NA,NA,NA,NA,NA,NA,NA,NA,NA,NA,NA
"330","stim/objects/HouseObjects/match3.png",326,1,319,0.9,"stim/12.jpeg",1,2,3,2,"HouseObjects",2,4,"right","right",0.448000193,1,1,1,0,NA,NA,NA,NA,NA,NA,NA,NA,NA,NA,NA,NA,NA,NA,NA,NA,NA,NA,NA,NA,NA,NA,NA,NA
"513","stim/objects/Instruments/musicstand3.png",327,1,320,0.9,"stim/23.jpeg",2,3,3,2,"Instruments",1,3,"left","left",0.570000172,1,1,1,0,NA,NA,NA,NA,NA,NA,NA,NA,NA,NA,NA,NA,NA,NA,NA,NA,NA,NA,NA,NA,NA,NA,NA,NA
"462","stim/objects/Instruments/marimba3.png",328,1,321,0.9,"stim/21.jpeg",2,1,3,2,"Instruments",1,2,"left","left",0.469000101,1,1,1,0,NA,NA,NA,NA,NA,NA,NA,NA,NA,NA,NA,NA,NA,NA,NA,NA,NA,NA,NA,NA,NA,NA,NA,NA
"260","stim/objects/HouseObjects/bottle3.png",329,1,322,0.5,"stim/44.jpeg",4,4,1,2,"HouseObjects",2,1,"right","right",0.594000101,1,1,1,0,NA,NA,NA,NA,NA,NA,NA,NA,NA,NA,NA,NA,NA,NA,NA,NA,NA,NA,NA,NA,NA,NA,NA,NA
"281","stim/objects/HouseObjects/iron3.png",330,1,323,0.7,"stim/51.jpeg",5,1,2,2,"HouseObjects",2,1,"right","right",0.525000095,1,1,1,0,NA,NA,NA,NA,NA,NA,NA,NA,NA,NA,NA,NA,NA,NA,NA,NA,NA,NA,NA,NA,NA,NA,NA,NA
"274","stim/objects/HouseObjects/clothesdryingrack4.png",331,1,324,0.3,"stim/63.jpeg",6,3,2,1,"HouseObjects",2,3,"right","left",0.629000187,0,0,1,0,122,1,1,0.3,2,"stim/63.jpeg",6,3,"stim/63.jpeg",3,"right",1.208000183,4,4,0.177999973,4,0.559000015,122,0,0,NA,0,NA,1
"413","stim/objects/Instruments/balalaika3.png",332,1,325,0.5,"stim/34.jpeg",3,4,1,2,"Instruments",1,4,"left","left",0.740999937,1,1,1,0,NA,NA,NA,NA,NA,NA,NA,NA,NA,NA,NA,NA,NA,NA,NA,NA,NA,NA,NA,NA,NA,NA,NA,NA
"296","stim/objects/HouseObjects/knife3.png",333,1,326,0.9,"stim/12.jpeg",1,2,3,2,"HouseObjects",2,1,"right","right",0.536000013,1,1,1,0,NA,NA,NA,NA,NA,NA,NA,NA,NA,NA,NA,NA,NA,NA,NA,NA,NA,NA,NA,NA,NA,NA,NA,NA
"266","stim/objects/HouseObjects/bucket3.png",334,1,327,0.5,"stim/42.jpeg",4,2,1,2,"HouseObjects",2,2,"right","left",0.542000055,0,0,1,0,NA,NA,NA,NA,NA,NA,NA,NA,NA,NA,NA,NA,NA,NA,NA,NA,NA,NA,NA,NA,NA,NA,NA,NA
"347","stim/objects/HouseObjects/pan3.png",335,1,328,0.9,"stim/13.jpeg",1,3,3,2,"HouseObjects",2,4,"right","right",0.522000074,1,1,1,0,NA,NA,NA,NA,NA,NA,NA,NA,NA,NA,NA,NA,NA,NA,NA,NA,NA,NA,NA,NA,NA,NA,NA,NA
"250","stim/objects/HouseObjects/basket3.png",336,1,329,0.5,"stim/34.jpeg",3,4,1,2,"HouseObjects",2,3,"right","left",0.690000057,0,0,1,0,NA,NA,NA,NA,NA,NA,NA,NA,NA,NA,NA,NA,NA,NA,NA,NA,NA,NA,NA,NA,NA,NA,NA,NA
"297","stim/objects/HouseObjects/knife3.png",337,1,330,0.9,"stim/14.jpeg",1,4,3,2,"HouseObjects",2,2,"right","right",0.722000122,1,1,1,0,NA,NA,NA,NA,NA,NA,NA,NA,NA,NA,NA,NA,NA,NA,NA,NA,NA,NA,NA,NA,NA,NA,NA,NA
"551","stim/objects/Instruments/speaker3.png",338,1,331,0.5,"stim/41.jpeg",4,1,1,1,"Instruments",1,4,"left","left",0.799999952,1,1,1,0,22,1,1,0.5,2,"stim/41.jpeg",4,1,"stim/41.jpeg",4,"left",2.639999866,3,2,8.058000088,2,2.769000053,22,1,0,0,0,0,1
"479","stim/objects/Instruments/metronome3.png",339,1,332,0.9,"stim/24.jpeg",2,4,3,2,"Instruments",1,1,"left","left",0.668000221,1,1,1,0,NA,NA,NA,NA,NA,NA,NA,NA,NA,NA,NA,NA,NA,NA,NA,NA,NA,NA,NA,NA,NA,NA,NA,NA
"429","stim/objects/Instruments/chime4.png",340,1,333,0.7,"stim/62.jpeg",6,2,2,1,"Instruments",1,1,"left","left",0.6650002,1,1,1,0,76,1,1,0.7,1,"stim/62.jpeg",6,2,"stim/62.jpeg",1,"left",2.667999983,4,2,2.637000084,1,1.782000065,76,1,1,1,1,1,1
"547","stim/objects/Instruments/record3.png",341,1,334,0.5,"stim/31.jpeg",3,1,1,1,"Instruments",1,4,"left","right",0.63100028,0,0,1,0,47,1,1,0.5,1,"stim/31.jpeg",3,1,"stim/31.jpeg",4,"left",1.717000008,3,1,1.809000015,3,0.920000076,47,1,1,1,0,0,1
"241","stim/objects/HouseObjects/ashtray3.png",342,1,335,0.5,"stim/31.jpeg",3,1,1,2,"HouseObjects",2,2,"right","right",0.521000147,1,1,1,0,NA,NA,NA,NA,NA,NA,NA,NA,NA,NA,NA,NA,NA,NA,NA,NA,NA,NA,NA,NA,NA,NA,NA,NA
"567","stim/objects/Instruments/vuvuzela3.png",343,1,336,0.3,"stim/54.jpeg",5,4,2,1,"Instruments",1,4,"left","",NA,0,0,1,0,168,1,1,0.3,1,"stim/54.jpeg",5,4,"stim/54.jpeg",4,"right",0.667999983,1,1,0.493999958,1,0.187000036,168,0,0,NA,0,NA,1
"459","stim/objects/Instruments/marimba3.png",344,1,337,0.9,"stim/22.jpeg",2,2,3,2,"Instruments",1,3,"left","",NA,0,0,1,0,NA,NA,NA,NA,NA,NA,NA,NA,NA,NA,NA,NA,NA,NA,NA,NA,NA,NA,NA,NA,NA,NA,NA,NA
"480","stim/objects/Instruments/metronome3.png",345,1,338,0.9,"stim/22.jpeg",2,2,3,2,"Instruments",1,2,"left","left",0.545000076,1,1,1,0,NA,NA,NA,NA,NA,NA,NA,NA,NA,NA,NA,NA,NA,NA,NA,NA,NA,NA,NA,NA,NA,NA,NA,NA
"348","stim/objects/HouseObjects/pan3.png",346,1,339,0.9,"stim/12.jpeg",1,2,3,2,"HouseObjects",2,2,"right","right",0.480999947,1,1,1,0,NA,NA,NA,NA,NA,NA,NA,NA,NA,NA,NA,NA,NA,NA,NA,NA,NA,NA,NA,NA,NA,NA,NA,NA
"514","stim/objects/Instruments/musicstand3.png",347,1,340,0.9,"stim/21.jpeg",2,1,3,2,"Instruments",1,2,"left","left",0.595000029,1,1,1,0,NA,NA,NA,NA,NA,NA,NA,NA,NA,NA,NA,NA,NA,NA,NA,NA,NA,NA,NA,NA,NA,NA,NA,NA
"454","stim/objects/Instruments/maraca3.png",348,1,341,0.7,"stim/62.jpeg",6,2,2,2,"Instruments",1,2,"left","left",0.54700017,1,1,1,0,NA,NA,NA,NA,NA,NA,NA,NA,NA,NA,NA,NA,NA,NA,NA,NA,NA,NA,NA,NA,NA,NA,NA,NA
"400","stim/objects/HouseObjects/towel3.png",349,1,342,0.7,"stim/54.jpeg",5,4,2,1,"HouseObjects",2,3,"right","right",0.495000124,1,1,1,0,146,1,1,0.7,2,"stim/54.jpeg",5,4,"stim/54.jpeg",3,"left",1.707999945,4,4,1.888000011,1,1.703000069,146,1,1,1,0,0,1
"244","stim/objects/HouseObjects/ballofstring3.png",350,1,343,0.5,"stim/32.jpeg",3,2,1,2,"HouseObjects",2,2,"right","",NA,0,0,1,0,NA,NA,NA,NA,NA,NA,NA,NA,NA,NA,NA,NA,NA,NA,NA,NA,NA,NA,NA,NA,NA,NA,NA,NA
"288","stim/objects/HouseObjects/key3.png",351,1,344,0.7,"stim/54.jpeg",5,4,2,2,"HouseObjects",2,3,"right","right",0.444000006,1,1,1,0,NA,NA,NA,NA,NA,NA,NA,NA,NA,NA,NA,NA,NA,NA,NA,NA,NA,NA,NA,NA,NA,NA,NA,NA
"276","stim/objects/HouseObjects/clothespin3.png",352,1,345,0.7,"stim/52.jpeg",5,2,2,2,"HouseObjects",2,3,"right","right",0.553000212,1,1,1,0,NA,NA,NA,NA,NA,NA,NA,NA,NA,NA,NA,NA,NA,NA,NA,NA,NA,NA,NA,NA,NA,NA,NA,NA
"496","stim/objects/Instruments/musicsheet3.png",353,1,346,0.9,"stim/21.jpeg",2,1,3,2,"Instruments",1,4,"left","left",0.57400012,1,1,1,0,NA,NA,NA,NA,NA,NA,NA,NA,NA,NA,NA,NA,NA,NA,NA,NA,NA,NA,NA,NA,NA,NA,NA,NA
"561","stim/objects/Instruments/trumpet3.png",354,1,347,0.3,"stim/51.jpeg",5,1,2,1,"Instruments",1,1,"left","right",0.609000206,0,0,1,0,188,1,1,0.3,1,"stim/51.jpeg",5,1,"stim/51.jpeg",1,"right",0.874000072,2,2,0.305000067,2,0.386999846,188,0,0,NA,0,NA,1
"497","stim/objects/Instruments/musicsheet3.png",355,1,348,0.9,"stim/24.jpeg",2,4,3,2,"Instruments",1,2,"left","left",0.661000013,1,1,1,0,NA,NA,NA,NA,NA,NA,NA,NA,NA,NA,NA,NA,NA,NA,NA,NA,NA,NA,NA,NA,NA,NA,NA,NA
"449","stim/objects/Instruments/laud3.png",356,1,349,0.7,"stim/61.jpeg",6,1,2,2,"Instruments",1,3,"left","left",0.603000164,1,1,1,0,NA,NA,NA,NA,NA,NA,NA,NA,NA,NA,NA,NA,NA,NA,NA,NA,NA,NA,NA,NA,NA,NA,NA,NA
"396","stim/objects/HouseObjects/thermometer3.png",357,1,350,0.7,"stim/52.jpeg",5,2,2,1,"HouseObjects",2,3,"right","right",0.486000061,1,1,1,0,103,1,1,0.7,2,"stim/52.jpeg",5,2,"stim/52.jpeg",3,"right",0.882999897,4,4,0.916000128,4,0.171000004,103,0,0,NA,0,NA,1
"455","stim/objects/Instruments/maraca4.png",358,1,351,0.7,"stim/61.jpeg",6,1,2,1,"Instruments",1,2,"left","left",0.846000195,1,1,1,0,30,1,1,0.7,1,"stim/61.jpeg",6,1,"stim/61.jpeg",2,"right",1.157000065,2,2,0.689999819,2,0.415999889,30,0,0,NA,1,NA,1
"251","stim/objects/HouseObjects/basket3.png",359,1,352,0.5,"stim/33.jpeg",3,3,1,2,"HouseObjects",2,4,"right","right",0.478000164,1,1,1,0,NA,NA,NA,NA,NA,NA,NA,NA,NA,NA,NA,NA,NA,NA,NA,NA,NA,NA,NA,NA,NA,NA,NA,NA
"315","stim/objects/HouseObjects/lintroller3.png",360,1,353,0.9,"stim/11.jpeg",1,1,3,2,"HouseObjects",2,1,"right","right",0.522000074,1,1,1,0,NA,NA,NA,NA,NA,NA,NA,NA,NA,NA,NA,NA,NA,NA,NA,NA,NA,NA,NA,NA,NA,NA,NA,NA
"414","stim/objects/Instruments/balalaika4.png",361,1,354,0.3,"stim/54.jpeg",5,4,2,1,"Instruments",1,1,"left","right",0.478000164,0,0,1,0,66,1,1,0.3,1,"stim/54.jpeg",5,4,"stim/54.jpeg",1,"right",0.79700017,2,4,1.161000013,1,0.906000137,66,0,1,NA,1,NA,1
"349","stim/objects/HouseObjects/pan3.png",362,1,355,0.9,"stim/11.jpeg",1,1,3,2,"HouseObjects",2,3,"right","right",0.781000137,1,1,1,0,NA,NA,NA,NA,NA,NA,NA,NA,NA,NA,NA,NA,NA,NA,NA,NA,NA,NA,NA,NA,NA,NA,NA,NA
"515","stim/objects/Instruments/musicstand3.png",363,1,356,0.9,"stim/22.jpeg",2,2,3,2,"Instruments",1,2,"left","left",0.637000084,1,1,1,0,NA,NA,NA,NA,NA,NA,NA,NA,NA,NA,NA,NA,NA,NA,NA,NA,NA,NA,NA,NA,NA,NA,NA,NA
"446","stim/objects/Instruments/keyboard3.png",364,1,357,0.7,"stim/64.jpeg",6,4,2,2,"Instruments",1,3,"left","left",0.430999994,1,1,1,0,NA,NA,NA,NA,NA,NA,NA,NA,NA,NA,NA,NA,NA,NA,NA,NA,NA,NA,NA,NA,NA,NA,NA,NA
"324","stim/objects/HouseObjects/lintroller4.png",365,1,358,0.9,"stim/14.jpeg",1,4,3,1,"HouseObjects",2,2,"right","right",0.629999876,1,1,1,0,4,1,1,0.9,2,"stim/14.jpeg",1,4,"stim/14.jpeg",2,"right",0.960000038,4,2,16.91300011,1,5.639999866,4,0,0,NA,0,NA,1
"482","stim/objects/Instruments/metronome3.png",366,1,359,0.9,"stim/22.jpeg",2,2,3,2,"Instruments",1,3,"left","left",0.522000074,1,1,1,0,NA,NA,NA,NA,NA,NA,NA,NA,NA,NA,NA,NA,NA,NA,NA,NA,NA,NA,NA,NA,NA,NA,NA,NA
"406","stim/objects/Instruments/accordion3.png",367,1,360,0.5,"stim/31.jpeg",3,1,1,2,"Instruments",1,1,"left","right",0.577000141,0,0,1,0,NA,NA,NA,NA,NA,NA,NA,NA,NA,NA,NA,NA,NA,NA,NA,NA,NA,NA,NA,NA,NA,NA,NA,NA
"270","stim/objects/HouseObjects/clock4.png",368,1,361,0.3,"stim/62.jpeg",6,2,2,1,"HouseObjects",2,4,"right","right",0.505000114,1,1,1,0,9,1,1,0.3,2,"stim/62.jpeg",6,2,"stim/62.jpeg",4,"right",4.624000072,4,4,28.23900008,1,0.792999983,9,0,0,NA,0,NA,1
"351","stim/objects/HouseObjects/pan3.png",369,1,362,0.9,"stim/13.jpeg",1,3,3,2,"HouseObjects",2,2,"right","right",0.6650002,1,1,1,0,NA,NA,NA,NA,NA,NA,NA,NA,NA,NA,NA,NA,NA,NA,NA,NA,NA,NA,NA,NA,NA,NA,NA,NA
"404","stim/objects/HouseObjects/wateringcan3.png",370,1,363,0.7,"stim/52.jpeg",5,2,2,1,"HouseObjects",2,4,"right","right",0.567000151,1,1,1,0,91,1,1,0.7,2,"stim/52.jpeg",5,2,"stim/52.jpeg",4,"right",0.650000095,4,4,0.467999935,4,0.51699996,91,0,0,NA,1,NA,1
"448","stim/objects/Instruments/laud3.png",371,1,364,0.7,"stim/64.jpeg",6,4,2,2,"Instruments",1,1,"left","right",0.565000057,0,0,1,0,NA,NA,NA,NA,NA,NA,NA,NA,NA,NA,NA,NA,NA,NA,NA,NA,NA,NA,NA,NA,NA,NA,NA,NA
"359","stim/objects/HouseObjects/pitcher3.png",372,1,365,0.9,"stim/11.jpeg",1,1,3,2,"HouseObjects",2,1,"right","",NA,0,0,1,0,NA,NA,NA,NA,NA,NA,NA,NA,NA,NA,NA,NA,NA,NA,NA,NA,NA,NA,NA,NA,NA,NA,NA,NA
"342","stim/objects/HouseObjects/pan3.png",373,1,366,0.9,"stim/11.jpeg",1,1,3,2,"HouseObjects",2,2,"right","right",0.608000278,1,1,1,0,NA,NA,NA,NA,NA,NA,NA,NA,NA,NA,NA,NA,NA,NA,NA,NA,NA,NA,NA,NA,NA,NA,NA,NA
"465","stim/objects/Instruments/marimba3.png",374,1,367,0.9,"stim/24.jpeg",2,4,3,2,"Instruments",1,4,"left","right",0.660000086,0,0,1,0,NA,NA,NA,NA,NA,NA,NA,NA,NA,NA,NA,NA,NA,NA,NA,NA,NA,NA,NA,NA,NA,NA,NA,NA
"309","stim/objects/HouseObjects/lintroller3.png",375,1,368,0.9,"stim/13.jpeg",1,3,3,2,"HouseObjects",2,2,"right","right",0.515000105,1,1,1,0,NA,NA,NA,NA,NA,NA,NA,NA,NA,NA,NA,NA,NA,NA,NA,NA,NA,NA,NA,NA,NA,NA,NA,NA
"456","stim/objects/Instruments/marimba3.png",376,1,369,0.9,"stim/24.jpeg",2,4,3,2,"Instruments",1,1,"left","left",0.453999996,1,1,1,0,NA,NA,NA,NA,NA,NA,NA,NA,NA,NA,NA,NA,NA,NA,NA,NA,NA,NA,NA,NA,NA,NA,NA,NA
"307","stim/objects/HouseObjects/knife4.png",377,1,370,0.9,"stim/13.jpeg",1,3,3,1,"HouseObjects",2,1,"right","right",0.601000071,1,1,1,0,117,1,1,0.9,2,"stim/13.jpeg",1,3,"stim/13.jpeg",1,"left",1.421999931,4,3,4.282999992,2,1.497000217,117,1,1,1,0,0,1
"360","stim/objects/HouseObjects/pitcher3.png",378,1,371,0.9,"stim/11.jpeg",1,1,3,2,"HouseObjects",2,3,"right","right",0.724000216,1,1,1,0,NA,NA,NA,NA,NA,NA,NA,NA,NA,NA,NA,NA,NA,NA,NA,NA,NA,NA,NA,NA,NA,NA,NA,NA
"364","stim/objects/HouseObjects/pitcher3.png",379,1,372,0.9,"stim/12.jpeg",1,2,3,2,"HouseObjects",2,3,"right","right",0.611000299,1,1,1,0,NA,NA,NA,NA,NA,NA,NA,NA,NA,NA,NA,NA,NA,NA,NA,NA,NA,NA,NA,NA,NA,NA,NA,NA
"526","stim/objects/Instruments/oboe3.png",380,1,373,0.9,"stim/24.jpeg",2,4,3,2,"Instruments",1,3,"left","right",0.575000048,0,0,1,0,NA,NA,NA,NA,NA,NA,NA,NA,NA,NA,NA,NA,NA,NA,NA,NA,NA,NA,NA,NA,NA,NA,NA,NA
"568","stim/objects/Instruments/vuvuzela4.png",381,1,374,0.9,"stim/21.jpeg",2,1,3,1,"Instruments",1,1,"left","",NA,0,0,1,0,34,1,1,0.9,1,"stim/21.jpeg",2,1,"stim/21.jpeg",1,"right",3.601000071,2,2,0.864000082,2,0.25,34,0,0,NA,0,NA,1
"353","stim/objects/HouseObjects/pan3.png",382,1,375,0.9,"stim/13.jpeg",1,3,3,2,"HouseObjects",2,1,"right","right",0.625000238,1,1,1,0,NA,NA,NA,NA,NA,NA,NA,NA,NA,NA,NA,NA,NA,NA,NA,NA,NA,NA,NA,NA,NA,NA,NA,NA
"527","stim/objects/Instruments/oboe3.png",383,1,376,0.9,"stim/23.jpeg",2,3,3,2,"Instruments",1,2,"left","left",0.568000078,1,1,1,0,NA,NA,NA,NA,NA,NA,NA,NA,NA,NA,NA,NA,NA,NA,NA,NA,NA,NA,NA,NA,NA,NA,NA,NA
"524","stim/objects/Instruments/oboe3.png",384,1,377,0.9,"stim/21.jpeg",2,1,3,2,"Instruments",1,4,"left","right",0.626000166,0,0,1,0,NA,NA,NA,NA,NA,NA,NA,NA,NA,NA,NA,NA,NA,NA,NA,NA,NA,NA,NA,NA,NA,NA,NA,NA
"299","stim/objects/HouseObjects/knife3.png",385,1,378,0.9,"stim/13.jpeg",1,3,3,2,"HouseObjects",2,4,"right","right",0.498000145,1,1,1,0,NA,NA,NA,NA,NA,NA,NA,NA,NA,NA,NA,NA,NA,NA,NA,NA,NA,NA,NA,NA,NA,NA,NA,NA
"476","stim/objects/Instruments/metronome3.png",386,1,379,0.9,"stim/23.jpeg",2,3,3,2,"Instruments",1,2,"left","left",0.555000067,1,1,1,0,NA,NA,NA,NA,NA,NA,NA,NA,NA,NA,NA,NA,NA,NA,NA,NA,NA,NA,NA,NA,NA,NA,NA,NA
"435","stim/objects/Instruments/cornet4.png",387,1,380,0.7,"stim/64.jpeg",6,4,2,1,"Instruments",1,3,"left","left",0.487999916,1,1,1,0,23,1,1,0.7,1,"stim/64.jpeg",6,4,"stim/64.jpeg",3,"right",3.984000206,1,2,0.779999971,1,0.404000044,23,0,0,NA,0,NA,1
"500","stim/objects/Instruments/musicsheet3.png",388,1,381,0.9,"stim/24.jpeg",2,4,3,2,"Instruments",1,1,"left","right",0.624000072,0,0,1,0,NA,NA,NA,NA,NA,NA,NA,NA,NA,NA,NA,NA,NA,NA,NA,NA,NA,NA,NA,NA,NA,NA,NA,NA
"243","stim/objects/HouseObjects/ashtray4.png",389,1,382,0.7,"stim/53.jpeg",5,3,2,1,"HouseObjects",2,2,"right","right",0.613000154,1,1,1,0,200,1,1,0.7,2,"stim/53.jpeg",5,3,"stim/53.jpeg",2,"left",1.301000118,3,3,3.819999933,1,2.223999977,200,1,1,1,0,0,1
"403","stim/objects/HouseObjects/vacuumcleaner4.png",390,1,383,0.1,"stim/23.jpeg",2,3,3,1,"HouseObjects",2,2,"right","left",0.553999901,0,0,1,0,98,1,1,0.1,2,"stim/23.jpeg",2,3,"stim/23.jpeg",2,"right",1.086999893,3,3,0.819000006,3,0.155999899,98,0,1,NA,0,NA,1
"389","stim/objects/HouseObjects/scale4.png",391,1,384,0.1,"stim/24.jpeg",2,4,3,1,"HouseObjects",2,1,"right","left",0.788000107,0,0,1,0,68,1,1,0.1,2,"stim/24.jpeg",2,4,"stim/24.jpeg",1,"right",0.930999994,3,1,2.547999859,1,0.128000021,68,0,0,NA,1,NA,1
"555","stim/objects/Instruments/timbal3.png",392,1,385,0.5,"stim/43.jpeg",4,3,1,1,"Instruments",1,1,"left","right",0.645000219,0,0,1,0,137,1,1,0.5,2,"stim/43.jpeg",4,3,"stim/43.jpeg",1,"right",0.628000021,1,1,0.437999964,1,0.878999949,137,0,0,NA,1,NA,1
"450","stim/objects/Instruments/laud3.png",393,1,386,0.7,"stim/62.jpeg",6,2,2,2,"Instruments",1,4,"left","right",0.681000233,0,0,1,0,NA,NA,NA,NA,NA,NA,NA,NA,NA,NA,NA,NA,NA,NA,NA,NA,NA,NA,NA,NA,NA,NA,NA,NA
"472","stim/objects/Instruments/marimba4.png",394,1,387,0.1,"stim/11.jpeg",1,1,3,1,"Instruments",1,4,"left","right",0.524000168,0,0,1,0,24,1,1,0.1,1,"stim/11.jpeg",1,1,"stim/11.jpeg",4,"right",1.819999933,1,1,0.756999969,3,0.927000046,24,0,1,NA,0,NA,1
"502","stim/objects/Instruments/musicsheet3.png",395,1,388,0.9,"stim/21.jpeg",2,1,3,2,"Instruments",1,4,"left","left",0.609999895,1,1,1,0,NA,NA,NA,NA,NA,NA,NA,NA,NA,NA,NA,NA,NA,NA,NA,NA,NA,NA,NA,NA,NA,NA,NA,NA
"554","stim/objects/Instruments/tambourine4.png",396,1,389,0.9,"stim/22.jpeg",2,2,3,1,"Instruments",1,2,"left","left",0.592000008,1,1,1,0,57,1,1,0.9,1,"stim/22.jpeg",2,2,"stim/22.jpeg",2,"right",1.536999941,2,4,1.105000019,4,0.162999868,57,0,0,NA,0,NA,1
"507","stim/objects/Instruments/musicstand3.png",397,1,390,0.9,"stim/22.jpeg",2,2,3,2,"Instruments",1,4,"left","",NA,0,0,1,0,NA,NA,NA,NA,NA,NA,NA,NA,NA,NA,NA,NA,NA,NA,NA,NA,NA,NA,NA,NA,NA,NA,NA,NA
"468","stim/objects/Instruments/marimba3.png",398,1,391,0.9,"stim/22.jpeg",2,2,3,2,"Instruments",1,1,"left","left",0.392999887,1,1,1,0,NA,NA,NA,NA,NA,NA,NA,NA,NA,NA,NA,NA,NA,NA,NA,NA,NA,NA,NA,NA,NA,NA,NA,NA
"386","stim/objects/HouseObjects/saw3.png",399,1,392,0.5,"stim/44.jpeg",4,4,1,1,"HouseObjects",2,2,"right","left",0.618000031,0,0,1,0,110,1,1,0.5,2,"stim/44.jpeg",4,4,"stim/44.jpeg",2,"left",1.017000198,4,2,1.735999823,1,2.090999842,110,1,0,0,0,0,1
"469","stim/objects/Instruments/marimba3.png",400,1,393,0.9,"stim/23.jpeg",2,3,3,2,"Instruments",1,4,"left","left",0.57400012,1,1,1,0,NA,NA,NA,NA,NA,NA,NA,NA,NA,NA,NA,NA,NA,NA,NA,NA,NA,NA,NA,NA,NA,NA,NA,NA
"317","stim/objects/HouseObjects/lintroller3.png",401,1,394,0.9,"stim/13.jpeg",1,3,3,2,"HouseObjects",2,4,"right","right",0.525000095,1,1,1,0,NA,NA,NA,NA,NA,NA,NA,NA,NA,NA,NA,NA,NA,NA,NA,NA,NA,NA,NA,NA,NA,NA,NA,NA
"379","stim/objects/HouseObjects/remote4.png",402,1,395,0.9,"stim/11.jpeg",1,1,3,1,"HouseObjects",2,1,"right","right",0.488000154,1,1,1,0,48,1,1,0.9,2,"stim/11.jpeg",1,1,"stim/11.jpeg",1,"left",1.022000074,4,3,8.924999952,1,1.713999987,48,1,0,0,1,1,1
"344","stim/objects/HouseObjects/pan3.png",403,1,396,0.9,"stim/14.jpeg",1,4,3,2,"HouseObjects",2,2,"right","right",0.519000053,1,1,1,0,NA,NA,NA,NA,NA,NA,NA,NA,NA,NA,NA,NA,NA,NA,NA,NA,NA,NA,NA,NA,NA,NA,NA,NA
"453","stim/objects/Instruments/maraca3.png",404,1,397,0.7,"stim/61.jpeg",6,1,2,2,"Instruments",1,2,"left","right",0.583000183,0,0,1,0,NA,NA,NA,NA,NA,NA,NA,NA,NA,NA,NA,NA,NA,NA,NA,NA,NA,NA,NA,NA,NA,NA,NA,NA
"436","stim/objects/Instruments/cymbal3.png",405,1,398,0.7,"stim/61.jpeg",6,1,2,2,"Instruments",1,2,"left","left",0.534000158,1,1,1,0,NA,NA,NA,NA,NA,NA,NA,NA,NA,NA,NA,NA,NA,NA,NA,NA,NA,NA,NA,NA,NA,NA,NA,NA
"246","stim/objects/HouseObjects/ballofstring4.png",406,1,399,0.7,"stim/54.jpeg",5,4,2,1,"HouseObjects",2,3,"right","right",0.57400012,1,1,1,0,125,1,1,0.7,2,"stim/54.jpeg",5,4,"stim/54.jpeg",3,"right",1.325000048,4,4,0.125,4,0.453999996,125,0,1,NA,0,NA,1
"336","stim/objects/HouseObjects/match3.png",407,1,400,0.9,"stim/13.jpeg",1,3,3,2,"HouseObjects",2,2,"right","right",0.542999983,1,1,1,0,NA,NA,NA,NA,NA,NA,NA,NA,NA,NA,NA,NA,NA,NA,NA,NA,NA,NA,NA,NA,NA,NA,NA,NA
"331","stim/objects/HouseObjects/match3.png",408,1,401,0.9,"stim/11.jpeg",1,1,3,2,"HouseObjects",2,2,"right","right",0.438999891,1,1,1,0,NA,NA,NA,NA,NA,NA,NA,NA,NA,NA,NA,NA,NA,NA,NA,NA,NA,NA,NA,NA,NA,NA,NA,NA
"509","stim/objects/Instruments/musicstand3.png",409,1,402,0.9,"stim/23.jpeg",2,3,3,2,"Instruments",1,2,"left","left",0.498000145,1,1,1,0,NA,NA,NA,NA,NA,NA,NA,NA,NA,NA,NA,NA,NA,NA,NA,NA,NA,NA,NA,NA,NA,NA,NA,NA
"510","stim/objects/Instruments/musicstand3.png",410,1,403,0.9,"stim/24.jpeg",2,4,3,2,"Instruments",1,4,"left","left",0.559000015,1,1,1,0,NA,NA,NA,NA,NA,NA,NA,NA,NA,NA,NA,NA,NA,NA,NA,NA,NA,NA,NA,NA,NA,NA,NA,NA
"420","stim/objects/Instruments/bassdrum4.png",411,1,404,0.3,"stim/52.jpeg",5,2,2,1,"Instruments",1,4,"left","right",0.568000078,0,0,1,0,147,1,1,0.3,1,"stim/52.jpeg",5,2,"stim/52.jpeg",4,"right",1.806999922,2,2,0.746999979,2,0.15899992,147,0,1,NA,0,NA,1
"369","stim/objects/HouseObjects/pitcher3.png",412,1,405,0.9,"stim/13.jpeg",1,3,3,2,"HouseObjects",2,2,"right","right",0.696000099,1,1,1,0,NA,NA,NA,NA,NA,NA,NA,NA,NA,NA,NA,NA,NA,NA,NA,NA,NA,NA,NA,NA,NA,NA,NA,NA
"516","stim/objects/Instruments/musicstand3.png",413,1,406,0.9,"stim/23.jpeg",2,3,3,2,"Instruments",1,4,"left","right",0.486000299,0,0,1,0,NA,NA,NA,NA,NA,NA,NA,NA,NA,NA,NA,NA,NA,NA,NA,NA,NA,NA,NA,NA,NA,NA,NA,NA
"470","stim/objects/Instruments/marimba3.png",414,1,407,0.9,"stim/24.jpeg",2,4,3,2,"Instruments",1,4,"left","left",0.642999887,1,1,1,0,NA,NA,NA,NA,NA,NA,NA,NA,NA,NA,NA,NA,NA,NA,NA,NA,NA,NA,NA,NA,NA,NA,NA,NA
"504","stim/objects/Instruments/musicsheet3.png",415,1,408,0.9,"stim/24.jpeg",2,4,3,2,"Instruments",1,1,"left","left",0.472000122,1,1,1,0,NA,NA,NA,NA,NA,NA,NA,NA,NA,NA,NA,NA,NA,NA,NA,NA,NA,NA,NA,NA,NA,NA,NA,NA
"247","stim/objects/HouseObjects/barbecuelighter3.png",416,1,409,0.5,"stim/33.jpeg",3,3,1,2,"HouseObjects",2,4,"right","right",0.568000078,1,1,1,0,NA,NA,NA,NA,NA,NA,NA,NA,NA,NA,NA,NA,NA,NA,NA,NA,NA,NA,NA,NA,NA,NA,NA,NA
"416","stim/objects/Instruments/banjo3.png",417,1,410,0.5,"stim/34.jpeg",3,4,1,2,"Instruments",1,4,"left","right",0.637000084,0,0,1,0,NA,NA,NA,NA,NA,NA,NA,NA,NA,NA,NA,NA,NA,NA,NA,NA,NA,NA,NA,NA,NA,NA,NA,NA
"517","stim/objects/Instruments/musicstand3.png",418,1,411,0.9,"stim/24.jpeg",2,4,3,2,"Instruments",1,1,"left","left",0.458000183,1,1,1,0,NA,NA,NA,NA,NA,NA,NA,NA,NA,NA,NA,NA,NA,NA,NA,NA,NA,NA,NA,NA,NA,NA,NA,NA
"437","stim/objects/Instruments/cymbal3.png",419,1,412,0.7,"stim/63.jpeg",6,3,2,2,"Instruments",1,1,"left","left",0.631999969,1,1,1,0,NA,NA,NA,NA,NA,NA,NA,NA,NA,NA,NA,NA,NA,NA,NA,NA,NA,NA,NA,NA,NA,NA,NA,NA
"334","stim/objects/HouseObjects/match3.png",420,1,413,0.9,"stim/11.jpeg",1,1,3,2,"HouseObjects",2,3,"right","right",0.686000109,1,1,1,0,NA,NA,NA,NA,NA,NA,NA,NA,NA,NA,NA,NA,NA,NA,NA,NA,NA,NA,NA,NA,NA,NA,NA,NA
"275","stim/objects/HouseObjects/clothespin3.png",421,1,414,0.7,"stim/51.jpeg",5,1,2,2,"HouseObjects",2,2,"right","right",0.452000141,1,1,1,0,NA,NA,NA,NA,NA,NA,NA,NA,NA,NA,NA,NA,NA,NA,NA,NA,NA,NA,NA,NA,NA,NA,NA,NA
"383","stim/objects/HouseObjects/rug4.png",422,1,415,0.9,"stim/13.jpeg",1,3,3,1,"HouseObjects",2,1,"right","right",0.476000071,1,1,1,0,173,1,1,0.9,2,"stim/13.jpeg",1,3,"stim/13.jpeg",1,"left",0.960000038,4,3,2.450999975,2,2.82400012,173,1,1,1,0,0,1
"483","stim/objects/Instruments/metronome3.png",423,1,416,0.9,"stim/22.jpeg",2,2,3,2,"Instruments",1,1,"left","left",0.570000172,1,1,1,0,NA,NA,NA,NA,NA,NA,NA,NA,NA,NA,NA,NA,NA,NA,NA,NA,NA,NA,NA,NA,NA,NA,NA,NA
"256","stim/objects/HouseObjects/blender3.png",424,1,417,0.5,"stim/43.jpeg",4,3,1,2,"HouseObjects",2,4,"right","right",0.421000242,1,1,1,0,NA,NA,NA,NA,NA,NA,NA,NA,NA,NA,NA,NA,NA,NA,NA,NA,NA,NA,NA,NA,NA,NA,NA,NA
"559","stim/objects/Instruments/trombone3.png",425,1,418,0.5,"stim/41.jpeg",4,1,1,1,"Instruments",1,1,"left","right",0.529000282,0,0,1,0,133,1,1,0.5,2,"stim/41.jpeg",4,1,"stim/41.jpeg",1,"right",1.587999821,1,4,0.950999975,4,0.164000034,133,0,0,NA,0,NA,1
"499","stim/objects/Instruments/musicsheet3.png",426,1,419,0.9,"stim/24.jpeg",2,4,3,2,"Instruments",1,2,"left","left",0.566000223,1,1,1,0,NA,NA,NA,NA,NA,NA,NA,NA,NA,NA,NA,NA,NA,NA,NA,NA,NA,NA,NA,NA,NA,NA,NA,NA
"486","stim/objects/Instruments/metronome3.png",427,1,420,0.9,"stim/21.jpeg",2,1,3,2,"Instruments",1,3,"left","left",0.629000187,1,1,1,0,NA,NA,NA,NA,NA,NA,NA,NA,NA,NA,NA,NA,NA,NA,NA,NA,NA,NA,NA,NA,NA,NA,NA,NA
"471","stim/objects/Instruments/marimba3.png",428,1,421,0.9,"stim/22.jpeg",2,2,3,2,"Instruments",1,4,"left","left",0.653000116,1,1,1,0,NA,NA,NA,NA,NA,NA,NA,NA,NA,NA,NA,NA,NA,NA,NA,NA,NA,NA,NA,NA,NA,NA,NA,NA
"467","stim/objects/Instruments/marimba3.png",429,1,422,0.9,"stim/21.jpeg",2,1,3,2,"Instruments",1,1,"left","left",0.45600009,1,1,1,0,NA,NA,NA,NA,NA,NA,NA,NA,NA,NA,NA,NA,NA,NA,NA,NA,NA,NA,NA,NA,NA,NA,NA,NA
"316","stim/objects/HouseObjects/lintroller3.png",430,1,423,0.9,"stim/12.jpeg",1,2,3,2,"HouseObjects",2,4,"right","right",0.601000071,1,1,1,0,NA,NA,NA,NA,NA,NA,NA,NA,NA,NA,NA,NA,NA,NA,NA,NA,NA,NA,NA,NA,NA,NA,NA,NA
"300","stim/objects/HouseObjects/knife3.png",431,1,424,0.9,"stim/11.jpeg",1,1,3,2,"HouseObjects",2,1,"right","right",0.515000105,1,1,1,0,NA,NA,NA,NA,NA,NA,NA,NA,NA,NA,NA,NA,NA,NA,NA,NA,NA,NA,NA,NA,NA,NA,NA,NA
"366","stim/objects/HouseObjects/pitcher3.png",432,1,425,0.9,"stim/12.jpeg",1,2,3,2,"HouseObjects",2,2,"right","right",0.50999999,1,1,1,0,NA,NA,NA,NA,NA,NA,NA,NA,NA,NA,NA,NA,NA,NA,NA,NA,NA,NA,NA,NA,NA,NA,NA,NA
"346","stim/objects/HouseObjects/pan3.png",433,1,426,0.9,"stim/14.jpeg",1,4,3,2,"HouseObjects",2,1,"right","right",0.648000002,1,1,1,0,NA,NA,NA,NA,NA,NA,NA,NA,NA,NA,NA,NA,NA,NA,NA,NA,NA,NA,NA,NA,NA,NA,NA,NA
"298","stim/objects/HouseObjects/knife3.png",434,1,427,0.9,"stim/14.jpeg",1,4,3,2,"HouseObjects",2,2,"right","right",0.592000008,1,1,1,0,NA,NA,NA,NA,NA,NA,NA,NA,NA,NA,NA,NA,NA,NA,NA,NA,NA,NA,NA,NA,NA,NA,NA,NA
"301","stim/objects/HouseObjects/knife3.png",435,1,428,0.9,"stim/14.jpeg",1,4,3,2,"HouseObjects",2,2,"right","right",0.492000103,1,1,1,0,NA,NA,NA,NA,NA,NA,NA,NA,NA,NA,NA,NA,NA,NA,NA,NA,NA,NA,NA,NA,NA,NA,NA,NA
"445","stim/objects/Instruments/keyboard3.png",436,1,429,0.7,"stim/63.jpeg",6,3,2,2,"Instruments",1,3,"left","left",0.68200016,1,1,1,0,NA,NA,NA,NA,NA,NA,NA,NA,NA,NA,NA,NA,NA,NA,NA,NA,NA,NA,NA,NA,NA,NA,NA,NA
"558","stim/objects/Instruments/triangle4.png",437,1,430,0.9,"stim/24.jpeg",2,4,3,1,"Instruments",1,3,"left","left",0.411000013,1,1,1,0,49,1,1,0.9,1,"stim/24.jpeg",2,4,"stim/24.jpeg",3,"right",2.671000004,1,1,0.923000097,1,0.146999836,49,0,0,NA,0,NA,1
"487","stim/objects/Instruments/metronome3.png",438,1,431,0.9,"stim/23.jpeg",2,3,3,2,"Instruments",1,1,"left","left",0.519000053,1,1,1,0,NA,NA,NA,NA,NA,NA,NA,NA,NA,NA,NA,NA,NA,NA,NA,NA,NA,NA,NA,NA,NA,NA,NA,NA
"422","stim/objects/Instruments/bassguitar3.png",439,1,432,0.5,"stim/43.jpeg",4,3,1,2,"Instruments",1,1,"left","left",0.727000237,1,1,1,0,NA,NA,NA,NA,NA,NA,NA,NA,NA,NA,NA,NA,NA,NA,NA,NA,NA,NA,NA,NA,NA,NA,NA,NA
"535","stim/objects/Instruments/oboe3.png",440,1,433,0.9,"stim/21.jpeg",2,1,3,2,"Instruments",1,3,"left","left",0.495000124,1,1,1,0,NA,NA,NA,NA,NA,NA,NA,NA,NA,NA,NA,NA,NA,NA,NA,NA,NA,NA,NA,NA,NA,NA,NA,NA
"304","stim/objects/HouseObjects/knife3.png",441,1,434,0.9,"stim/12.jpeg",1,2,3,2,"HouseObjects",2,2,"right","right",0.652000189,1,1,1,0,NA,NA,NA,NA,NA,NA,NA,NA,NA,NA,NA,NA,NA,NA,NA,NA,NA,NA,NA,NA,NA,NA,NA,NA
"460","stim/objects/Instruments/marimba3.png",442,1,435,0.9,"stim/22.jpeg",2,2,3,2,"Instruments",1,3,"left","left",0.700000048,1,1,1,0,NA,NA,NA,NA,NA,NA,NA,NA,NA,NA,NA,NA,NA,NA,NA,NA,NA,NA,NA,NA,NA,NA,NA,NA
"549","stim/objects/Instruments/saxophone3.png",443,1,436,0.5,"stim/33.jpeg",3,3,1,1,"Instruments",1,1,"left","right",0.58100009,0,0,1,0,145,1,1,0.5,1,"stim/33.jpeg",3,3,"stim/33.jpeg",1,"right",1.492000103,1,4,0.544999838,4,0.144999981,145,0,0,NA,0,NA,1
"461","stim/objects/Instruments/marimba3.png",444,1,437,0.9,"stim/21.jpeg",2,1,3,2,"Instruments",1,3,"left","left",0.476000071,1,1,1,0,NA,NA,NA,NA,NA,NA,NA,NA,NA,NA,NA,NA,NA,NA,NA,NA,NA,NA,NA,NA,NA,NA,NA,NA
"272","stim/objects/HouseObjects/clothesdryingrack3.png",445,1,438,0.7,"stim/54.jpeg",5,4,2,2,"HouseObjects",2,3,"right","right",0.565000057,1,1,1,0,NA,NA,NA,NA,NA,NA,NA,NA,NA,NA,NA,NA,NA,NA,NA,NA,NA,NA,NA,NA,NA,NA,NA,NA
"319","stim/objects/HouseObjects/lintroller3.png",446,1,439,0.9,"stim/11.jpeg",1,1,3,2,"HouseObjects",2,4,"right","right",0.559999943,1,1,1,0,NA,NA,NA,NA,NA,NA,NA,NA,NA,NA,NA,NA,NA,NA,NA,NA,NA,NA,NA,NA,NA,NA,NA,NA
"370","stim/objects/HouseObjects/pitcher3.png",447,1,440,0.9,"stim/12.jpeg",1,2,3,2,"HouseObjects",2,4,"right","right",0.423000097,1,1,1,0,NA,NA,NA,NA,NA,NA,NA,NA,NA,NA,NA,NA,NA,NA,NA,NA,NA,NA,NA,NA,NA,NA,NA,NA
"409","stim/objects/Instruments/acousticguitar3.png",448,1,441,0.5,"stim/32.jpeg",3,2,1,2,"Instruments",1,3,"left","left",0.74000001,1,1,1,0,NA,NA,NA,NA,NA,NA,NA,NA,NA,NA,NA,NA,NA,NA,NA,NA,NA,NA,NA,NA,NA,NA,NA,NA
"410","stim/objects/Instruments/acousticguitar3.png",449,1,442,0.5,"stim/33.jpeg",3,3,1,2,"Instruments",1,1,"left","right",0.605999947,0,0,1,0,NA,NA,NA,NA,NA,NA,NA,NA,NA,NA,NA,NA,NA,NA,NA,NA,NA,NA,NA,NA,NA,NA,NA,NA
"258","stim/objects/HouseObjects/blender4.png",450,1,443,0.3,"stim/62.jpeg",6,2,2,1,"HouseObjects",2,4,"right","right",0.496000051,1,1,1,0,139,1,1,0.3,2,"stim/62.jpeg",6,2,"stim/62.jpeg",4,"right",1.50999999,1,1,0.44900012,1,0.416000128,139,0,0,NA,0,NA,1
"407","stim/objects/Instruments/accordion3.png",451,1,444,0.5,"stim/32.jpeg",3,2,1,2,"Instruments",1,3,"left","right",0.549999952,0,0,1,0,NA,NA,NA,NA,NA,NA,NA,NA,NA,NA,NA,NA,NA,NA,NA,NA,NA,NA,NA,NA,NA,NA,NA,NA
"463","stim/objects/Instruments/marimba3.png",452,1,445,0.9,"stim/23.jpeg",2,3,3,2,"Instruments",1,2,"left","left",0.674999952,1,1,1,0,NA,NA,NA,NA,NA,NA,NA,NA,NA,NA,NA,NA,NA,NA,NA,NA,NA,NA,NA,NA,NA,NA,NA,NA
"531","stim/objects/Instruments/oboe3.png",453,1,446,0.9,"stim/22.jpeg",2,2,3,2,"Instruments",1,3,"left","right",0.680000305,0,0,1,0,NA,NA,NA,NA,NA,NA,NA,NA,NA,NA,NA,NA,NA,NA,NA,NA,NA,NA,NA,NA,NA,NA,NA,NA
"556","stim/objects/Instruments/timbal4.png",454,1,447,0.9,"stim/23.jpeg",2,3,3,1,"Instruments",1,2,"left","left",0.446000099,1,1,1,0,63,1,1,0.9,1,"stim/23.jpeg",2,3,"stim/23.jpeg",2,"right",0.942000151,4,2,1.440999985,2,0.136999846,63,0,0,NA,1,NA,1
"523","stim/objects/Instruments/musicstand4.png",455,1,448,0.1,"stim/14.jpeg",1,4,3,1,"Instruments",1,4,"left","right",0.625,0,0,1,0,178,1,1,0.1,1,"stim/14.jpeg",1,4,"stim/14.jpeg",4,"right",4.263999939,1,1,0.605999947,1,0.152999878,178,0,0,NA,0,NA,1
"520","stim/objects/Instruments/musicstand3.png",456,1,449,0.9,"stim/21.jpeg",2,1,3,2,"Instruments",1,1,"left","left",0.542000055,1,1,1,0,NA,NA,NA,NA,NA,NA,NA,NA,NA,NA,NA,NA,NA,NA,NA,NA,NA,NA,NA,NA,NA,NA,NA,NA
"305","stim/objects/HouseObjects/knife3.png",457,1,450,0.9,"stim/13.jpeg",1,3,3,2,"HouseObjects",2,1,"right","right",0.621999979,1,1,1,0,NA,NA,NA,NA,NA,NA,NA,NA,NA,NA,NA,NA,NA,NA,NA,NA,NA,NA,NA,NA,NA,NA,NA,NA
"440","stim/objects/Instruments/doublebass3.png",458,1,451,0.7,"stim/62.jpeg",6,2,2,2,"Instruments",1,1,"left","right",0.637000084,0,0,1,0,NA,NA,NA,NA,NA,NA,NA,NA,NA,NA,NA,NA,NA,NA,NA,NA,NA,NA,NA,NA,NA,NA,NA,NA
"262","stim/objects/HouseObjects/broom3.png",459,1,452,0.5,"stim/41.jpeg",4,1,1,2,"HouseObjects",2,2,"right","left",0.697000027,0,0,1,0,NA,NA,NA,NA,NA,NA,NA,NA,NA,NA,NA,NA,NA,NA,NA,NA,NA,NA,NA,NA,NA,NA,NA,NA
"434","stim/objects/Instruments/cornet3.png",460,1,453,0.5,"stim/43.jpeg",4,3,1,2,"Instruments",1,1,"left","left",0.604000092,1,1,1,0,NA,NA,NA,NA,NA,NA,NA,NA,NA,NA,NA,NA,NA,NA,NA,NA,NA,NA,NA,NA,NA,NA,NA,NA
"278","stim/objects/HouseObjects/clothespin4.png",461,1,454,0.3,"stim/64.jpeg",6,4,2,1,"HouseObjects",2,2,"right","left",0.652000189,0,0,1,0,182,1,1,0.3,2,"stim/64.jpeg",6,4,"stim/64.jpeg",2,"right",0.664999962,2,2,0.727999926,2,0.205000162,182,0,0,NA,1,NA,1
"385","stim/objects/HouseObjects/safetypin4.png",462,1,455,0.9,"stim/14.jpeg",1,4,3,1,"HouseObjects",2,4,"right","right",0.536000013,1,1,1,0,108,1,1,0.9,2,"stim/14.jpeg",1,4,"stim/14.jpeg",4,"right",1.33100009,4,4,0.171000004,4,0.468999863,108,0,1,NA,1,NA,1
"532","stim/objects/Instruments/oboe3.png",463,1,456,0.9,"stim/23.jpeg",2,3,3,2,"Instruments",1,2,"left","left",0.556000233,1,1,1,0,NA,NA,NA,NA,NA,NA,NA,NA,NA,NA,NA,NA,NA,NA,NA,NA,NA,NA,NA,NA,NA,NA,NA,NA
"264","stim/objects/HouseObjects/broom4.png",464,1,457,0.3,"stim/64.jpeg",6,4,2,1,"HouseObjects",2,2,"right","left",0.587000132,0,0,1,0,5,1,1,0.3,2,"stim/64.jpeg",6,4,"stim/64.jpeg",2,"right",17.69799995,2,3,11.63599992,1,2.400000095,5,0,0,NA,0,NA,1
"534","stim/objects/Instruments/oboe3.png",465,1,458,0.9,"stim/22.jpeg",2,2,3,2,"Instruments",1,4,"left","right",0.511000156,0,0,1,0,NA,NA,NA,NA,NA,NA,NA,NA,NA,NA,NA,NA,NA,NA,NA,NA,NA,NA,NA,NA,NA,NA,NA,NA
"242","stim/objects/HouseObjects/ashtray3.png",466,1,459,0.5,"stim/34.jpeg",3,4,1,2,"HouseObjects",2,3,"right","",NA,0,0,1,0,NA,NA,NA,NA,NA,NA,NA,NA,NA,NA,NA,NA,NA,NA,NA,NA,NA,NA,NA,NA,NA,NA,NA,NA
"373","stim/objects/HouseObjects/pitcher3.png",467,1,460,0.9,"stim/14.jpeg",1,4,3,2,"HouseObjects",2,1,"right","right",0.71600008,1,1,1,0,NA,NA,NA,NA,NA,NA,NA,NA,NA,NA,NA,NA,NA,NA,NA,NA,NA,NA,NA,NA,NA,NA,NA,NA
"269","stim/objects/HouseObjects/clock3.png",468,1,461,0.5,"stim/42.jpeg",4,2,1,2,"HouseObjects",2,4,"right","right",0.494000196,1,1,1,0,NA,NA,NA,NA,NA,NA,NA,NA,NA,NA,NA,NA,NA,NA,NA,NA,NA,NA,NA,NA,NA,NA,NA,NA
"355","stim/objects/HouseObjects/pan3.png",469,1,462,0.9,"stim/11.jpeg",1,1,3,2,"HouseObjects",2,1,"right","right",0.585000038,1,1,1,0,NA,NA,NA,NA,NA,NA,NA,NA,NA,NA,NA,NA,NA,NA,NA,NA,NA,NA,NA,NA,NA,NA,NA,NA
