key_resp_pract.keys,key_resp_pract.rt,trial_acc,trial_index,practice_loop.thisRepN,practice_loop.thisTrialN,practice_loop.thisN,practice_loop.thisIndex,practice_loop.ran,practice_loop.order,scn_condition,scn_cat,scn_inst,scn_file,obj_cat,obj_cat_num,obj_file,trial_cond,quadrant,obj_x,obj_y,corr_ans,participant,date,expName,psychopyVersion,OS,frameRate,key_resp_trial.keys,key_resp_trial.rt,iterations.thisRepN,iterations.thisTrialN,iterations.thisN,iterations.thisIndex,iterations.ran,iterations.order,task_innerloop.thisRepN,task_innerloop.thisTrialN,task_innerloop.thisN,task_innerloop.thisIndex,task_innerloop.ran,task_innerloop.order,iteration_index,rating_acc,slider.response,slider.rt,slider_2.response,slider_2.rt,ratings.thisRepN,ratings.thisTrialN,ratings.thisN,ratings.thisIndex,ratings.ran,ratings.order,obj_cat_top,min_resp_top,max_resp_top,obj_cat_bottom,min_resp_bottom,max_resp_bottom
,,0,1,1,0,240,98,1,239,2,3,3,stim/33.jpeg,Instruments,2,stim/objects/Instruments/cymbal.png,0.7,3,-0.2,-0.15,right,10,2021-01-07_19h08.20.863,premup-three_ses-01_part-01_label-phase1,3.2.4,Win32,60,,,,,,,,,,,,,,,,,,,,,,,,,,,,,,,,
,,0,2,1,0,240,214,1,239,3,6,3,stim/63.jpeg,HouseObjects,1,stim/objects/HouseObjects/clothesdryingrack2.png,0.9,4,0.2,-0.15,left,10,2021-01-07_19h08.20.863,premup-three_ses-01_part-01_label-phase1,3.2.4,Win32,60,,,,,,,,,,,,,,,,,,,,,,,,,,,,,,,,
left,0.678999901,1,3,1,0,240,147,1,239,2,4,4,stim/44.jpeg,HouseObjects,1,stim/objects/HouseObjects/basket2.png,0.7,3,-0.2,-0.15,left,10,2021-01-07_19h08.20.863,premup-three_ses-01_part-01_label-phase1,3.2.4,Win32,60,,,,,,,,,,,,,,,,,,,,,,,,,,,,,,,,
right,1.039000034,0,4,1,0,240,162,1,239,3,5,3,stim/53.jpeg,HouseObjects,1,stim/objects/HouseObjects/bottle2.png,0.1,2,0.2,0.15,left,10,2021-01-07_19h08.20.863,premup-three_ses-01_part-01_label-phase1,3.2.4,Win32,60,,,,,,,,,,,,,,,,,,,,,,,,,,,,,,,,
right,0.806999922,0,5,1,0,240,223,1,239,3,6,4,stim/64.jpeg,HouseObjects,1,stim/objects/HouseObjects/clothespin2.png,0.9,2,0.2,0.15,left,10,2021-01-07_19h08.20.863,premup-three_ses-01_part-01_label-phase1,3.2.4,Win32,60,,,,,,,,,,,,,,,,,,,,,,,,,,,,,,,,
left,0.702000141,0,6,1,0,240,34,1,239,1,1,3,stim/13.jpeg,Instruments,2,stim/objects/Instruments/balalaika.png,0.5,4,0.2,-0.15,right,10,2021-01-07_19h08.20.863,premup-three_ses-01_part-01_label-phase1,3.2.4,Win32,60,,,,,,,,,,,,,,,,,,,,,,,,,,,,,,,,
left,0.779000044,0,7,1,0,240,196,1,239,3,5,1,stim/51.jpeg,Instruments,2,stim/objects/Instruments/bassdrum2.png,0.9,3,-0.2,-0.15,right,10,2021-01-07_19h08.20.863,premup-three_ses-01_part-01_label-phase1,3.2.4,Win32,60,,,,,,,,,,,,,,,,,,,,,,,,,,,,,,,,
left,1.427999973,0,8,1,0,240,37,1,239,1,1,2,stim/12.jpeg,Instruments,2,stim/objects/Instruments/acousticguitar.png,0.5,4,0.2,-0.15,right,10,2021-01-07_19h08.20.863,premup-three_ses-01_part-01_label-phase1,3.2.4,Win32,60,,,,,,,,,,,,,,,,,,,,,,,,,,,,,,,,
,,0,9,1,0,240,148,1,239,2,4,1,stim/41.jpeg,Instruments,2,stim/objects/Instruments/accordion2.png,0.3,2,0.2,0.15,right,10,2021-01-07_19h08.20.863,premup-three_ses-01_part-01_label-phase1,3.2.4,Win32,60,,,,,,,,,,,,,,,,,,,,,,,,,,,,,,,,
left,1.138999939,1,10,1,0,240,9,1,239,1,1,2,stim/12.jpeg,HouseObjects,1,stim/objects/HouseObjects/ballofstring.png,0.5,3,-0.2,-0.15,left,10,2021-01-07_19h08.20.863,premup-three_ses-01_part-01_label-phase1,3.2.4,Win32,60,,,,,,,,,,,,,,,,,,,,,,,,,,,,,,,,
,,0,1,,,,,,,1,1,4,stim/14.jpeg,Instruments,2,stim/objects/Instruments/banjo.png,0.5,3,-0.2,-0.15,right,10,2021-01-07_19h08.20.863,premup-three_ses-01_part-01_label-phase1,3.2.4,Win32,60,left,0.986999989,4,0,4,0,1,3,1,0,240,39,1,239,,,,,,,,,,,,,,,,,,
,,0,2,,,,,,,3,6,2,stim/62.jpeg,HouseObjects,1,stim/objects/HouseObjects/clock2.png,0.9,3,-0.2,-0.15,left,10,2021-01-07_19h08.20.863,premup-three_ses-01_part-01_label-phase1,3.2.4,Win32,60,right,1.078999996,4,0,4,0,1,3,1,0,240,229,1,239,,,,,,,,,,,,,,,,,,
,,1,3,,,,,,,3,6,1,stim/61.jpeg,HouseObjects,1,stim/objects/HouseObjects/bucket2.png,0.9,3,-0.2,-0.15,left,10,2021-01-07_19h08.20.863,premup-three_ses-01_part-01_label-phase1,3.2.4,Win32,60,left,1.263000011,4,0,4,0,1,3,1,0,240,220,1,239,,,,,,,,,,,,,,,,,,
,,1,4,,,,,,,3,5,3,stim/53.jpeg,Instruments,2,stim/objects/Instruments/cello2.png,0.9,2,0.2,0.15,right,10,2021-01-07_19h08.20.863,premup-three_ses-01_part-01_label-phase1,3.2.4,Win32,60,right,0.894999981,4,0,4,0,1,3,1,0,240,170,1,239,,,,,,,,,,,,,,,,,,
,,1,5,,,,,,,3,6,4,stim/64.jpeg,HouseObjects,1,stim/objects/HouseObjects/clothespin2.png,0.9,3,-0.2,-0.15,left,10,2021-01-07_19h08.20.863,premup-three_ses-01_part-01_label-phase1,3.2.4,Win32,60,left,0.74000001,4,0,4,0,1,3,1,0,240,219,1,239,,,,,,,,,,,,,,,,,,
,,1,6,,,,,,,1,1,2,stim/12.jpeg,Instruments,2,stim/objects/Instruments/acousticguitar.png,0.5,4,0.2,-0.15,right,10,2021-01-07_19h08.20.863,premup-three_ses-01_part-01_label-phase1,3.2.4,Win32,60,right,1.327000141,4,0,4,0,1,3,1,0,240,37,1,239,,,,,,,,,,,,,,,,,,
,,0,7,,,,,,,2,4,2,stim/42.jpeg,HouseObjects,1,stim/objects/HouseObjects/ballofstring2.png,0.7,3,-0.2,-0.15,left,10,2021-01-07_19h08.20.863,premup-three_ses-01_part-01_label-phase1,3.2.4,Win32,60,right,0.868999958,4,0,4,0,1,3,1,0,240,121,1,239,,,,,,,,,,,,,,,,,,
,,1,8,,,,,,,3,6,4,stim/64.jpeg,HouseObjects,1,stim/objects/HouseObjects/clothespin2.png,0.9,2,0.2,0.15,left,10,2021-01-07_19h08.20.863,premup-three_ses-01_part-01_label-phase1,3.2.4,Win32,60,left,0.799000025,4,0,4,0,1,3,1,0,240,223,1,239,,,,,,,,,,,,,,,,,,
,,0,9,,,,,,,1,1,4,stim/14.jpeg,Instruments,2,stim/objects/Instruments/banjo.png,0.5,1,-0.2,0.15,right,10,2021-01-07_19h08.20.863,premup-three_ses-01_part-01_label-phase1,3.2.4,Win32,60,left,0.558000088,4,0,4,0,1,3,1,0,240,23,1,239,,,,,,,,,,,,,,,,,,
,,0,10,,,,,,,3,5,1,stim/51.jpeg,Instruments,2,stim/objects/Instruments/bassdrum2.png,0.9,2,0.2,0.15,right,10,2021-01-07_19h08.20.863,premup-three_ses-01_part-01_label-phase1,3.2.4,Win32,60,left,0.898000002,4,0,4,0,1,3,1,0,240,180,1,239,,,,,,,,,,,,,,,,,,
,,0,11,,,,,,,1,1,2,stim/12.jpeg,HouseObjects,1,stim/objects/HouseObjects/ballofstring.png,0.5,1,-0.2,0.15,left,10,2021-01-07_19h08.20.863,premup-three_ses-01_part-01_label-phase1,3.2.4,Win32,60,right,1.542000055,4,0,4,0,1,3,1,0,240,13,1,239,,,,,,,,,,,,,,,,,,
,,0,12,,,,,,,3,5,2,stim/52.jpeg,Instruments,2,stim/objects/Instruments/bassguitar2.png,0.9,2,0.2,0.15,right,10,2021-01-07_19h08.20.863,premup-three_ses-01_part-01_label-phase1,3.2.4,Win32,60,left,1.188999891,4,0,4,0,1,3,1,0,240,197,1,239,,,,,,,,,,,,,,,,,,
,,1,13,,,,,,,2,3,2,stim/32.jpeg,HouseObjects,1,stim/objects/HouseObjects/clock.png,0.3,3,-0.2,-0.15,left,10,2021-01-07_19h08.20.863,premup-three_ses-01_part-01_label-phase1,3.2.4,Win32,60,left,1.120999813,4,0,4,0,1,3,1,0,240,85,1,239,,,,,,,,,,,,,,,,,,
,,1,14,,,,,,,2,3,1,stim/31.jpeg,Instruments,2,stim/objects/Instruments/clarinet.png,0.7,4,0.2,-0.15,right,10,2021-01-07_19h08.20.863,premup-three_ses-01_part-01_label-phase1,3.2.4,Win32,60,right,0.700999975,4,0,4,0,1,3,1,0,240,108,1,239,,,,,,,,,,,,,,,,,,
,,1,15,,,,,,,3,6,2,stim/62.jpeg,HouseObjects,1,stim/objects/HouseObjects/clock2.png,0.9,3,-0.2,-0.15,left,10,2021-01-07_19h08.20.863,premup-three_ses-01_part-01_label-phase1,3.2.4,Win32,60,left,0.700999975,4,0,4,0,1,3,1,0,240,205,1,239,,,,,,,,,,,,,,,,,,
,,1,16,,,,,,,1,2,2,stim/22.jpeg,Instruments,2,stim/objects/Instruments/bassguitar.png,0.5,2,0.2,0.15,right,10,2021-01-07_19h08.20.863,premup-three_ses-01_part-01_label-phase1,3.2.4,Win32,60,right,0.358999968,4,0,4,0,1,3,1,0,240,73,1,239,,,,,,,,,,,,,,,,,,
,,0,17,,,,,,,3,5,4,stim/54.jpeg,Instruments,2,stim/objects/Instruments/chime2.png,0.9,1,-0.2,0.15,right,10,2021-01-07_19h08.20.863,premup-three_ses-01_part-01_label-phase1,3.2.4,Win32,60,left,0.43900013,4,0,4,0,1,3,1,0,240,175,1,239,,,,,,,,,,,,,,,,,,
,,0,18,,,,,,,1,2,4,stim/24.jpeg,HouseObjects,1,stim/objects/HouseObjects/broom.png,0.5,2,0.2,0.15,left,10,2021-01-07_19h08.20.863,premup-three_ses-01_part-01_label-phase1,3.2.4,Win32,60,right,0.338000059,4,0,4,0,1,3,1,0,240,59,1,239,,,,,,,,,,,,,,,,,,
,,0,19,,,,,,,2,3,2,stim/32.jpeg,HouseObjects,1,stim/objects/HouseObjects/clock.png,0.3,4,0.2,-0.15,left,10,2021-01-07_19h08.20.863,premup-three_ses-01_part-01_label-phase1,3.2.4,Win32,60,right,0.998000145,4,0,4,0,1,3,1,0,240,89,1,239,,,,,,,,,,,,,,,,,,
,,0,20,,,,,,,3,5,4,stim/54.jpeg,Instruments,2,stim/objects/Instruments/chime2.png,0.9,4,0.2,-0.15,right,10,2021-01-07_19h08.20.863,premup-three_ses-01_part-01_label-phase1,3.2.4,Win32,60,left,1.218999863,4,0,4,0,1,3,1,0,240,179,1,239,,,,,,,,,,,,,,,,,,
,,0,21,,,,,,,3,5,3,stim/53.jpeg,Instruments,2,stim/objects/Instruments/cello2.png,0.9,2,0.2,0.15,right,10,2021-01-07_19h08.20.863,premup-three_ses-01_part-01_label-phase1,3.2.4,Win32,60,left,0.862999916,4,0,4,0,1,3,1,0,240,182,1,239,,,,,,,,,,,,,,,,,,
,,1,22,,,,,,,1,1,3,stim/13.jpeg,HouseObjects,1,stim/objects/HouseObjects/barbecuelighter.png,0.5,3,-0.2,-0.15,left,10,2021-01-07_19h08.20.863,premup-three_ses-01_part-01_label-phase1,3.2.4,Win32,60,left,1.237999916,4,0,4,0,1,3,1,0,240,18,1,239,,,,,,,,,,,,,,,,,,
,,1,23,,,,,,,1,1,4,stim/14.jpeg,HouseObjects,1,stim/objects/HouseObjects/basket.png,0.5,3,-0.2,-0.15,left,10,2021-01-07_19h08.20.863,premup-three_ses-01_part-01_label-phase1,3.2.4,Win32,60,left,0.620000124,4,0,4,0,1,3,1,0,240,15,1,239,,,,,,,,,,,,,,,,,,
,,0,24,,,,,,,3,5,3,stim/53.jpeg,Instruments,2,stim/objects/Instruments/cello2.png,0.9,1,-0.2,0.15,right,10,2021-01-07_19h08.20.863,premup-three_ses-01_part-01_label-phase1,3.2.4,Win32,60,left,0.480999947,4,0,4,0,1,3,1,0,240,190,1,239,,,,,,,,,,,,,,,,,,
,,0,25,,,,,,,3,6,2,stim/62.jpeg,HouseObjects,1,stim/objects/HouseObjects/clock2.png,0.9,4,0.2,-0.15,left,10,2021-01-07_19h08.20.863,premup-three_ses-01_part-01_label-phase1,3.2.4,Win32,60,right,1.018000126,4,0,4,0,1,3,1,0,240,201,1,239,,,,,,,,,,,,,,,,,,
,,1,26,,,,,,,1,2,4,stim/24.jpeg,Instruments,2,stim/objects/Instruments/chime.png,0.5,1,-0.2,0.15,right,10,2021-01-07_19h08.20.863,premup-three_ses-01_part-01_label-phase1,3.2.4,Win32,60,right,1.106999874,4,0,4,0,1,3,1,0,240,75,1,239,,,,,,,,,,,,,,,,,,
,,1,27,,,,,,,3,6,1,stim/61.jpeg,HouseObjects,1,stim/objects/HouseObjects/bucket2.png,0.9,3,-0.2,-0.15,left,10,2021-01-07_19h08.20.863,premup-three_ses-01_part-01_label-phase1,3.2.4,Win32,60,left,0.592999935,4,0,4,0,1,3,1,0,240,228,1,239,,,,,,,,,,,,,,,,,,
,,0,28,,,,,,,2,3,3,stim/33.jpeg,Instruments,2,stim/objects/Instruments/cymbal.png,0.7,3,-0.2,-0.15,right,10,2021-01-07_19h08.20.863,premup-three_ses-01_part-01_label-phase1,3.2.4,Win32,60,left,0.532999992,4,0,4,0,1,3,1,0,240,102,1,239,,,,,,,,,,,,,,,,,,
,,0,29,,,,,,,1,1,4,stim/14.jpeg,Instruments,2,stim/objects/Instruments/banjo.png,0.5,1,-0.2,0.15,right,10,2021-01-07_19h08.20.863,premup-three_ses-01_part-01_label-phase1,3.2.4,Win32,60,left,0.825000048,4,0,4,0,1,3,1,0,240,27,1,239,,,,,,,,,,,,,,,,,,
,,0,30,,,,,,,3,5,2,stim/52.jpeg,Instruments,2,stim/objects/Instruments/bassguitar2.png,0.9,3,-0.2,-0.15,right,10,2021-01-07_19h08.20.863,premup-three_ses-01_part-01_label-phase1,3.2.4,Win32,60,left,0.619999886,4,0,4,0,1,3,1,0,240,177,1,239,,,,,,,,,,,,,,,,,,
,,1,31,,,,,,,1,2,1,stim/21.jpeg,Instruments,2,stim/objects/Instruments/bassdrum.png,0.5,2,0.2,0.15,right,10,2021-01-07_19h08.20.863,premup-three_ses-01_part-01_label-phase1,3.2.4,Win32,60,right,1.582999945,4,0,4,0,1,3,1,0,240,60,1,239,,,,,,,,,,,,,,,,,,
,,0,32,,,,,,,2,3,4,stim/34.jpeg,HouseObjects,1,stim/objects/HouseObjects/clothespin.png,0.3,1,-0.2,0.15,left,10,2021-01-07_19h08.20.863,premup-three_ses-01_part-01_label-phase1,3.2.4,Win32,60,right,1.378999949,4,0,4,0,1,3,1,0,240,87,1,239,,,,,,,,,,,,,,,,,,
,,1,33,,,,,,,1,2,4,stim/24.jpeg,Instruments,2,stim/objects/Instruments/chime.png,0.5,4,0.2,-0.15,right,10,2021-01-07_19h08.20.863,premup-three_ses-01_part-01_label-phase1,3.2.4,Win32,60,right,0.660000086,4,0,4,0,1,3,1,0,240,63,1,239,,,,,,,,,,,,,,,,,,
,,1,34,,,,,,,1,2,1,stim/21.jpeg,Instruments,2,stim/objects/Instruments/bassdrum.png,0.5,2,0.2,0.15,right,10,2021-01-07_19h08.20.863,premup-three_ses-01_part-01_label-phase1,3.2.4,Win32,60,right,0.578000069,4,0,4,0,1,3,1,0,240,72,1,239,,,,,,,,,,,,,,,,,,
,,1,35,,,,,,,2,4,4,stim/44.jpeg,Instruments,2,stim/objects/Instruments/banjo2.png,0.3,4,0.2,-0.15,right,10,2021-01-07_19h08.20.863,premup-three_ses-01_part-01_label-phase1,3.2.4,Win32,60,right,0.580000162,4,0,4,0,1,3,1,0,240,159,1,239,,,,,,,,,,,,,,,,,,
,,1,36,,,,,,,2,4,4,stim/44.jpeg,HouseObjects,1,stim/objects/HouseObjects/basket2.png,0.7,1,-0.2,0.15,left,10,2021-01-07_19h08.20.863,premup-three_ses-01_part-01_label-phase1,3.2.4,Win32,60,left,0.592000008,4,0,4,0,1,3,1,0,240,123,1,239,,,,,,,,,,,,,,,,,,
,,1,37,,,,,,,3,6,2,stim/62.jpeg,HouseObjects,1,stim/objects/HouseObjects/clock2.png,0.9,3,-0.2,-0.15,left,10,2021-01-07_19h08.20.863,premup-three_ses-01_part-01_label-phase1,3.2.4,Win32,60,left,0.575000048,4,0,4,0,1,3,1,0,240,213,1,239,,,,,,,,,,,,,,,,,,
,,0,38,,,,,,,2,4,2,stim/42.jpeg,HouseObjects,1,stim/objects/HouseObjects/ballofstring2.png,0.7,2,0.2,0.15,left,10,2021-01-07_19h08.20.863,premup-three_ses-01_part-01_label-phase1,3.2.4,Win32,60,right,0.663000107,4,0,4,0,1,3,1,0,240,133,1,239,,,,,,,,,,,,,,,,,,
,,0,39,,,,,,,1,2,1,stim/21.jpeg,Instruments,2,stim/objects/Instruments/bassdrum.png,0.5,1,-0.2,0.15,right,10,2021-01-07_19h08.20.863,premup-three_ses-01_part-01_label-phase1,3.2.4,Win32,60,left,0.747000217,4,0,4,0,1,3,1,0,240,76,1,239,,,,,,,,,,,,,,,,,,
,,0,40,,,,,,,2,3,2,stim/32.jpeg,Instruments,2,stim/objects/Instruments/cornet.png,0.7,3,-0.2,-0.15,right,10,2021-01-07_19h08.20.863,premup-three_ses-01_part-01_label-phase1,3.2.4,Win32,60,left,0.682999849,4,0,4,0,1,3,1,0,240,113,1,239,,,,,,,,,,,,,,,,,,
,,0,41,,,,,,,2,3,3,stim/33.jpeg,HouseObjects,1,stim/objects/HouseObjects/clothesdryingrack.png,0.3,1,-0.2,0.15,left,10,2021-01-07_19h08.20.863,premup-three_ses-01_part-01_label-phase1,3.2.4,Win32,60,right,1.486999989,4,0,4,0,1,3,1,0,240,86,1,239,,,,,,,,,,,,,,,,,,
,,0,42,,,,,,,1,1,3,stim/13.jpeg,HouseObjects,1,stim/objects/HouseObjects/barbecuelighter.png,0.5,3,-0.2,-0.15,left,10,2021-01-07_19h08.20.863,premup-three_ses-01_part-01_label-phase1,3.2.4,Win32,60,right,1.125999928,4,0,4,0,1,3,1,0,240,2,1,239,,,,,,,,,,,,,,,,,,
,,0,43,,,,,,,2,4,4,stim/44.jpeg,Instruments,2,stim/objects/Instruments/banjo2.png,0.3,3,-0.2,-0.15,right,10,2021-01-07_19h08.20.863,premup-three_ses-01_part-01_label-phase1,3.2.4,Win32,60,left,0.532000065,4,0,4,0,1,3,1,0,240,155,1,239,,,,,,,,,,,,,,,,,,
,,1,44,,,,,,,2,4,2,stim/42.jpeg,Instruments,2,stim/objects/Instruments/acousticguitar2.png,0.3,2,0.2,0.15,right,10,2021-01-07_19h08.20.863,premup-three_ses-01_part-01_label-phase1,3.2.4,Win32,60,right,0.973999977,4,0,4,0,1,3,1,0,240,153,1,239,,,,,,,,,,,,,,,,,,
,,0,45,,,,,,,3,5,3,stim/53.jpeg,HouseObjects,1,stim/objects/HouseObjects/bottle2.png,0.1,2,0.2,0.15,left,10,2021-01-07_19h08.20.863,premup-three_ses-01_part-01_label-phase1,3.2.4,Win32,60,right,0.927999973,4,0,4,0,1,3,1,0,240,162,1,239,,,,,,,,,,,,,,,,,,
,,0,46,,,,,,,3,5,2,stim/52.jpeg,Instruments,2,stim/objects/Instruments/bassguitar2.png,0.9,1,-0.2,0.15,right,10,2021-01-07_19h08.20.863,premup-three_ses-01_part-01_label-phase1,3.2.4,Win32,60,left,0.960000038,4,0,4,0,1,3,1,0,240,173,1,239,,,,,,,,,,,,,,,,,,
,,1,47,,,,,,,2,4,4,stim/44.jpeg,HouseObjects,1,stim/objects/HouseObjects/basket2.png,0.7,3,-0.2,-0.15,left,10,2021-01-07_19h08.20.863,premup-three_ses-01_part-01_label-phase1,3.2.4,Win32,60,left,0.624000072,4,0,4,0,1,3,1,0,240,127,1,239,,,,,,,,,,,,,,,,,,
,,1,48,,,,,,,1,2,1,stim/21.jpeg,Instruments,2,stim/objects/Instruments/bassdrum.png,0.5,4,0.2,-0.15,right,10,2021-01-07_19h08.20.863,premup-three_ses-01_part-01_label-phase1,3.2.4,Win32,60,right,0.950999975,4,0,4,0,1,3,1,0,240,68,1,239,,,,,,,,,,,,,,,,,,
,,0,49,,,,,,,1,2,4,stim/24.jpeg,Instruments,2,stim/objects/Instruments/chime.png,0.5,1,-0.2,0.15,right,10,2021-01-07_19h08.20.863,premup-three_ses-01_part-01_label-phase1,3.2.4,Win32,60,left,1.03399992,4,0,4,0,1,3,1,0,240,79,1,239,,,,,,,,,,,,,,,,,,
,,0,50,,,,,,,1,1,1,stim/11.jpeg,Instruments,2,stim/objects/Instruments/accordion.png,0.5,3,-0.2,-0.15,right,10,2021-01-07_19h08.20.863,premup-three_ses-01_part-01_label-phase1,3.2.4,Win32,60,left,0.912999868,4,0,4,0,1,3,1,0,240,36,1,239,,,,,,,,,,,,,,,,,,
,,0,51,,,,,,,2,3,3,stim/33.jpeg,Instruments,2,stim/objects/Instruments/cymbal.png,0.7,1,-0.2,0.15,right,10,2021-01-07_19h08.20.863,premup-three_ses-01_part-01_label-phase1,3.2.4,Win32,60,left,1.071000099,4,0,4,0,1,3,1,0,240,94,1,239,,,,,,,,,,,,,,,,,,
,,1,52,,,,,,,1,1,4,stim/14.jpeg,Instruments,2,stim/objects/Instruments/banjo.png,0.5,2,0.2,0.15,right,10,2021-01-07_19h08.20.863,premup-three_ses-01_part-01_label-phase1,3.2.4,Win32,60,right,1.023999929,4,0,4,0,1,3,1,0,240,35,1,239,,,,,,,,,,,,,,,,,,
,,0,53,,,,,,,1,1,1,stim/11.jpeg,HouseObjects,1,stim/objects/HouseObjects/ashtray.png,0.5,2,0.2,0.15,left,10,2021-01-07_19h08.20.863,premup-three_ses-01_part-01_label-phase1,3.2.4,Win32,60,right,0.627000093,4,0,4,0,1,3,1,0,240,0,1,239,,,,,,,,,,,,,,,,,,
,,0,54,,,,,,,2,3,3,stim/33.jpeg,Instruments,2,stim/objects/Instruments/cymbal.png,0.7,2,0.2,0.15,right,10,2021-01-07_19h08.20.863,premup-three_ses-01_part-01_label-phase1,3.2.4,Win32,60,left,0.747999907,4,0,4,0,1,3,1,0,240,110,1,239,,,,,,,,,,,,,,,,,,
,,0,55,,,,,,,3,6,3,stim/63.jpeg,HouseObjects,1,stim/objects/HouseObjects/clothesdryingrack2.png,0.9,2,0.2,0.15,left,10,2021-01-07_19h08.20.863,premup-three_ses-01_part-01_label-phase1,3.2.4,Win32,60,right,0.51699996,4,0,4,0,1,3,1,0,240,206,1,239,,,,,,,,,,,,,,,,,,
,,1,56,,,,,,,1,2,3,stim/23.jpeg,HouseObjects,1,stim/objects/HouseObjects/bottle.png,0.5,1,-0.2,0.15,left,10,2021-01-07_19h08.20.863,premup-three_ses-01_part-01_label-phase1,3.2.4,Win32,60,left,0.760999918,4,0,4,0,1,3,1,0,240,46,1,239,,,,,,,,,,,,,,,,,,
,,1,57,,,,,,,2,4,4,stim/44.jpeg,HouseObjects,1,stim/objects/HouseObjects/basket2.png,0.7,3,-0.2,-0.15,left,10,2021-01-07_19h08.20.863,premup-three_ses-01_part-01_label-phase1,3.2.4,Win32,60,left,1.820999861,4,0,4,0,1,3,1,0,240,147,1,239,,,,,,,,,,,,,,,,,,
,,1,58,,,,,,,3,5,4,stim/54.jpeg,Instruments,2,stim/objects/Instruments/chime2.png,0.9,3,-0.2,-0.15,right,10,2021-01-07_19h08.20.863,premup-three_ses-01_part-01_label-phase1,3.2.4,Win32,60,right,0.934999943,4,0,4,0,1,3,1,0,240,183,1,239,,,,,,,,,,,,,,,,,,
,,1,59,,,,,,,3,5,3,stim/53.jpeg,Instruments,2,stim/objects/Instruments/cello2.png,0.9,2,0.2,0.15,right,10,2021-01-07_19h08.20.863,premup-three_ses-01_part-01_label-phase1,3.2.4,Win32,60,right,0.89199996,4,0,4,0,1,3,1,0,240,178,1,239,,,,,,,,,,,,,,,,,,
,,1,60,,,,,,,1,1,1,stim/11.jpeg,HouseObjects,1,stim/objects/HouseObjects/ashtray.png,0.5,4,0.2,-0.15,left,10,2021-01-07_19h08.20.863,premup-three_ses-01_part-01_label-phase1,3.2.4,Win32,60,left,0.806999922,4,0,4,0,1,3,1,0,240,16,1,239,,,,,,,,,,,,,,,,,,
,,0,61,,,,,,,2,4,1,stim/41.jpeg,Instruments,2,stim/objects/Instruments/accordion2.png,0.3,3,-0.2,-0.15,right,10,2021-01-07_19h08.20.863,premup-three_ses-01_part-01_label-phase1,3.2.4,Win32,60,left,0.894000053,4,0,4,0,1,3,1,0,240,152,1,239,,,,,,,,,,,,,,,,,,
,,1,62,,,,,,,2,3,2,stim/32.jpeg,Instruments,2,stim/objects/Instruments/cornet.png,0.7,2,0.2,0.15,right,10,2021-01-07_19h08.20.863,premup-three_ses-01_part-01_label-phase1,3.2.4,Win32,60,right,0.979000092,4,0,4,0,1,3,1,0,240,97,1,239,,,,,,,,,,,,,,,,,,
,,1,63,,,,,,,1,2,1,stim/21.jpeg,Instruments,2,stim/objects/Instruments/bassdrum.png,0.5,1,-0.2,0.15,right,10,2021-01-07_19h08.20.863,premup-three_ses-01_part-01_label-phase1,3.2.4,Win32,60,right,1.223999977,4,0,4,0,1,3,1,0,240,64,1,239,,,,,,,,,,,,,,,,,,
,,0,64,,,,,,,3,6,2,stim/62.jpeg,HouseObjects,1,stim/objects/HouseObjects/clock2.png,0.9,1,-0.2,0.15,left,10,2021-01-07_19h08.20.863,premup-three_ses-01_part-01_label-phase1,3.2.4,Win32,60,right,1.42599988,4,0,4,0,1,3,1,0,240,209,1,239,,,,,,,,,,,,,,,,,,
,,0,65,,,,,,,1,2,1,stim/21.jpeg,HouseObjects,1,stim/objects/HouseObjects/bleachbottle.png,0.5,1,-0.2,0.15,left,10,2021-01-07_19h08.20.863,premup-three_ses-01_part-01_label-phase1,3.2.4,Win32,60,right,0.882000208,4,0,4,0,1,3,1,0,240,40,1,239,,,,,,,,,,,,,,,,,,
,,0,66,,,,,,,1,2,2,stim/22.jpeg,HouseObjects,1,stim/objects/HouseObjects/blender.png,0.5,2,0.2,0.15,left,10,2021-01-07_19h08.20.863,premup-three_ses-01_part-01_label-phase1,3.2.4,Win32,60,right,0.935000181,4,0,4,0,1,3,1,0,240,49,1,239,,,,,,,,,,,,,,,,,,
,,0,67,,,,,,,2,3,3,stim/33.jpeg,Instruments,2,stim/objects/Instruments/cymbal.png,0.7,1,-0.2,0.15,right,10,2021-01-07_19h08.20.863,premup-three_ses-01_part-01_label-phase1,3.2.4,Win32,60,left,1.141000032,4,0,4,0,1,3,1,0,240,118,1,239,,,,,,,,,,,,,,,,,,
,,0,68,,,,,,,2,4,1,stim/41.jpeg,Instruments,2,stim/objects/Instruments/accordion2.png,0.3,1,-0.2,0.15,right,10,2021-01-07_19h08.20.863,premup-three_ses-01_part-01_label-phase1,3.2.4,Win32,60,left,0.890999794,4,0,4,0,1,3,1,0,240,156,1,239,,,,,,,,,,,,,,,,,,
,,0,69,,,,,,,3,6,1,stim/61.jpeg,HouseObjects,1,stim/objects/HouseObjects/bucket2.png,0.9,4,0.2,-0.15,left,10,2021-01-07_19h08.20.863,premup-three_ses-01_part-01_label-phase1,3.2.4,Win32,60,right,0.71600008,4,0,4,0,1,3,1,0,240,232,1,239,,,,,,,,,,,,,,,,,,
,,0,70,,,,,,,1,1,1,stim/11.jpeg,HouseObjects,1,stim/objects/HouseObjects/ashtray.png,0.5,2,0.2,0.15,left,10,2021-01-07_19h08.20.863,premup-three_ses-01_part-01_label-phase1,3.2.4,Win32,60,right,1.56099987,4,0,4,0,1,3,1,0,240,8,1,239,,,,,,,,,,,,,,,,,,
,,0,71,,,,,,,2,4,1,stim/41.jpeg,Instruments,2,stim/objects/Instruments/accordion2.png,0.3,2,0.2,0.15,right,10,2021-01-07_19h08.20.863,premup-three_ses-01_part-01_label-phase1,3.2.4,Win32,60,left,1.730999947,4,0,4,0,1,3,1,0,240,148,1,239,,,,,,,,,,,,,,,,,,
,,0,72,,,,,,,1,2,3,stim/23.jpeg,Instruments,2,stim/objects/Instruments/cello.png,0.5,2,0.2,0.15,right,10,2021-01-07_19h08.20.863,premup-three_ses-01_part-01_label-phase1,3.2.4,Win32,60,left,1.378000021,4,0,4,0,1,3,1,0,240,78,1,239,,,,,,,,,,,,,,,,,,
,,0,73,,,,,,,1,2,1,stim/21.jpeg,HouseObjects,1,stim/objects/HouseObjects/bleachbottle.png,0.5,4,0.2,-0.15,left,10,2021-01-07_19h08.20.863,premup-three_ses-01_part-01_label-phase1,3.2.4,Win32,60,right,1.394000053,4,0,4,0,1,3,1,0,240,48,1,239,,,,,,,,,,,,,,,,,,
,,1,74,,,,,,,2,3,2,stim/32.jpeg,Instruments,2,stim/objects/Instruments/cornet.png,0.7,1,-0.2,0.15,right,10,2021-01-07_19h08.20.863,premup-three_ses-01_part-01_label-phase1,3.2.4,Win32,60,right,1.35800004,4,0,4,0,1,3,1,0,240,105,1,239,,,,,,,,,,,,,,,,,,
,,0,75,,,,,,,3,5,2,stim/52.jpeg,Instruments,2,stim/objects/Instruments/bassguitar2.png,0.9,3,-0.2,-0.15,right,10,2021-01-07_19h08.20.863,premup-three_ses-01_part-01_label-phase1,3.2.4,Win32,60,left,1.295000076,4,0,4,0,1,3,1,0,240,169,1,239,,,,,,,,,,,,,,,,,,
,,1,76,,,,,,,2,3,3,stim/33.jpeg,HouseObjects,1,stim/objects/HouseObjects/clothesdryingrack.png,0.3,3,-0.2,-0.15,left,10,2021-01-07_19h08.20.863,premup-three_ses-01_part-01_label-phase1,3.2.4,Win32,60,left,1.09800005,4,0,4,0,1,3,1,0,240,90,1,239,,,,,,,,,,,,,,,,,,
,,1,77,,,,,,,3,6,3,stim/63.jpeg,HouseObjects,1,stim/objects/HouseObjects/clothesdryingrack2.png,0.9,2,0.2,0.15,left,10,2021-01-07_19h08.20.863,premup-three_ses-01_part-01_label-phase1,3.2.4,Win32,60,left,0.774999857,4,0,4,0,1,3,1,0,240,202,1,239,,,,,,,,,,,,,,,,,,
,,0,78,,,,,,,3,5,2,stim/52.jpeg,Instruments,2,stim/objects/Instruments/bassguitar2.png,0.9,4,0.2,-0.15,right,10,2021-01-07_19h08.20.863,premup-three_ses-01_part-01_label-phase1,3.2.4,Win32,60,left,0.787999868,4,0,4,0,1,3,1,0,240,165,1,239,,,,,,,,,,,,,,,,,,
,,1,79,,,,,,,3,5,1,stim/51.jpeg,Instruments,2,stim/objects/Instruments/bassdrum2.png,0.9,4,0.2,-0.15,right,10,2021-01-07_19h08.20.863,premup-three_ses-01_part-01_label-phase1,3.2.4,Win32,60,right,0.957000017,4,0,4,0,1,3,1,0,240,164,1,239,,,,,,,,,,,,,,,,,,
,,1,80,,,,,,,3,6,1,stim/61.jpeg,HouseObjects,1,stim/objects/HouseObjects/bucket2.png,0.9,2,0.2,0.15,left,10,2021-01-07_19h08.20.863,premup-three_ses-01_part-01_label-phase1,3.2.4,Win32,60,left,0.660999775,4,0,4,0,1,3,1,0,240,208,1,239,,,,,,,,,,,,,,,,,,
,,1,81,,,,,,,1,1,4,stim/14.jpeg,HouseObjects,1,stim/objects/HouseObjects/basket.png,0.5,2,0.2,0.15,left,10,2021-01-07_19h08.20.863,premup-three_ses-01_part-01_label-phase1,3.2.4,Win32,60,left,0.868999958,4,0,4,0,1,3,1,0,240,19,1,239,,,,,,,,,,,,,,,,,,
,,0,82,,,,,,,2,4,3,stim/43.jpeg,HouseObjects,1,stim/objects/HouseObjects/barbecuelighter2.png,0.7,2,0.2,0.15,left,10,2021-01-07_19h08.20.863,premup-three_ses-01_part-01_label-phase1,3.2.4,Win32,60,right,1.221999884,4,0,4,0,1,3,1,0,240,138,1,239,,,,,,,,,,,,,,,,,,
,,1,83,,,,,,,1,2,4,stim/24.jpeg,Instruments,2,stim/objects/Instruments/chime.png,0.5,1,-0.2,0.15,right,10,2021-01-07_19h08.20.863,premup-three_ses-01_part-01_label-phase1,3.2.4,Win32,60,right,1.108999968,4,0,4,0,1,3,1,0,240,71,1,239,,,,,,,,,,,,,,,,,,
,,1,84,,,,,,,3,5,2,stim/52.jpeg,Instruments,2,stim/objects/Instruments/bassguitar2.png,0.9,1,-0.2,0.15,right,10,2021-01-07_19h08.20.863,premup-three_ses-01_part-01_label-phase1,3.2.4,Win32,60,right,0.863000154,4,0,4,0,1,3,1,0,240,181,1,239,,,,,,,,,,,,,,,,,,
,,0,85,,,,,,,1,1,3,stim/13.jpeg,Instruments,2,stim/objects/Instruments/balalaika.png,0.5,3,-0.2,-0.15,right,10,2021-01-07_19h08.20.863,premup-three_ses-01_part-01_label-phase1,3.2.4,Win32,60,left,1.462999821,4,0,4,0,1,3,1,0,240,38,1,239,,,,,,,,,,,,,,,,,,
,,1,86,,,,,,,2,4,1,stim/41.jpeg,HouseObjects,1,stim/objects/HouseObjects/ashtray2.png,0.7,2,0.2,0.15,left,10,2021-01-07_19h08.20.863,premup-three_ses-01_part-01_label-phase1,3.2.4,Win32,60,left,0.778000116,4,0,4,0,1,3,1,0,240,120,1,239,,,,,,,,,,,,,,,,,,
,,1,87,,,,,,,2,4,1,stim/41.jpeg,HouseObjects,1,stim/objects/HouseObjects/ashtray2.png,0.7,2,0.2,0.15,left,10,2021-01-07_19h08.20.863,premup-three_ses-01_part-01_label-phase1,3.2.4,Win32,60,left,0.644999981,4,0,4,0,1,3,1,0,240,124,1,239,,,,,,,,,,,,,,,,,,
,,0,88,,,,,,,3,5,3,stim/53.jpeg,Instruments,2,stim/objects/Instruments/cello2.png,0.9,1,-0.2,0.15,right,10,2021-01-07_19h08.20.863,premup-three_ses-01_part-01_label-phase1,3.2.4,Win32,60,left,1.229000092,4,0,4,0,1,3,1,0,240,198,1,239,,,,,,,,,,,,,,,,,,
,,1,89,,,,,,,1,2,2,stim/22.jpeg,HouseObjects,1,stim/objects/HouseObjects/blender.png,0.5,3,-0.2,-0.15,left,10,2021-01-07_19h08.20.863,premup-three_ses-01_part-01_label-phase1,3.2.4,Win32,60,left,1.119000196,4,0,4,0,1,3,1,0,240,57,1,239,,,,,,,,,,,,,,,,,,
,,1,90,,,,,,,3,6,4,stim/64.jpeg,HouseObjects,1,stim/objects/HouseObjects/clothespin2.png,0.9,1,-0.2,0.15,left,10,2021-01-07_19h08.20.863,premup-three_ses-01_part-01_label-phase1,3.2.4,Win32,60,left,0.833999872,4,0,4,0,1,3,1,0,240,235,1,239,,,,,,,,,,,,,,,,,,
,,0,91,,,,,,,2,3,2,stim/32.jpeg,Instruments,2,stim/objects/Instruments/cornet.png,0.7,1,-0.2,0.15,right,10,2021-01-07_19h08.20.863,premup-three_ses-01_part-01_label-phase1,3.2.4,Win32,60,left,1.066999912,4,0,4,0,1,3,1,0,240,109,1,239,,,,,,,,,,,,,,,,,,
,,1,92,,,,,,,2,4,4,stim/44.jpeg,HouseObjects,1,stim/objects/HouseObjects/basket2.png,0.7,1,-0.2,0.15,left,10,2021-01-07_19h08.20.863,premup-three_ses-01_part-01_label-phase1,3.2.4,Win32,60,left,0.943000078,4,0,4,0,1,3,1,0,240,143,1,239,,,,,,,,,,,,,,,,,,
,,1,93,,,,,,,1,1,2,stim/12.jpeg,HouseObjects,1,stim/objects/HouseObjects/ballofstring.png,0.5,3,-0.2,-0.15,left,10,2021-01-07_19h08.20.863,premup-three_ses-01_part-01_label-phase1,3.2.4,Win32,60,left,0.821999788,4,0,4,0,1,3,1,0,240,9,1,239,,,,,,,,,,,,,,,,,,
,,1,94,,,,,,,3,5,4,stim/54.jpeg,Instruments,2,stim/objects/Instruments/chime2.png,0.9,2,0.2,0.15,right,10,2021-01-07_19h08.20.863,premup-three_ses-01_part-01_label-phase1,3.2.4,Win32,60,right,0.995000124,4,0,4,0,1,3,1,0,240,187,1,239,,,,,,,,,,,,,,,,,,
,,0,95,,,,,,,1,1,2,stim/12.jpeg,Instruments,2,stim/objects/Instruments/acousticguitar.png,0.5,2,0.2,0.15,right,10,2021-01-07_19h08.20.863,premup-three_ses-01_part-01_label-phase1,3.2.4,Win32,60,left,1.496999979,4,0,4,0,1,3,1,0,240,25,1,239,,,,,,,,,,,,,,,,,,
,,0,96,,,,,,,3,5,4,stim/54.jpeg,Instruments,2,stim/objects/Instruments/chime2.png,0.9,4,0.2,-0.15,right,10,2021-01-07_19h08.20.863,premup-three_ses-01_part-01_label-phase1,3.2.4,Win32,60,,,4,0,4,0,1,3,1,0,240,195,1,239,,,,,,,,,,,,,,,,,,
,,0,97,,,,,,,1,2,2,stim/22.jpeg,Instruments,2,stim/objects/Instruments/bassguitar.png,0.5,1,-0.2,0.15,right,10,2021-01-07_19h08.20.863,premup-three_ses-01_part-01_label-phase1,3.2.4,Win32,60,left,1.079999924,4,0,4,0,1,3,1,0,240,65,1,239,,,,,,,,,,,,,,,,,,
,,1,98,,,,,,,1,1,3,stim/13.jpeg,Instruments,2,stim/objects/Instruments/balalaika.png,0.5,2,0.2,0.15,right,10,2021-01-07_19h08.20.863,premup-three_ses-01_part-01_label-phase1,3.2.4,Win32,60,right,1.463999987,4,0,4,0,1,3,1,0,240,30,1,239,,,,,,,,,,,,,,,,,,
,,1,99,,,,,,,1,1,2,stim/12.jpeg,HouseObjects,1,stim/objects/HouseObjects/ballofstring.png,0.5,4,0.2,-0.15,left,10,2021-01-07_19h08.20.863,premup-three_ses-01_part-01_label-phase1,3.2.4,Win32,60,left,1.029000044,4,0,4,0,1,3,1,0,240,17,1,239,,,,,,,,,,,,,,,,,,
,,0,100,,,,,,,1,1,3,stim/13.jpeg,HouseObjects,1,stim/objects/HouseObjects/barbecuelighter.png,0.5,4,0.2,-0.15,left,10,2021-01-07_19h08.20.863,premup-three_ses-01_part-01_label-phase1,3.2.4,Win32,60,right,0.941999912,4,0,4,0,1,3,1,0,240,10,1,239,,,,,,,,,,,,,,,,,,
,,1,101,,,,,,,3,6,4,stim/64.jpeg,HouseObjects,1,stim/objects/HouseObjects/clothespin2.png,0.9,3,-0.2,-0.15,left,10,2021-01-07_19h08.20.863,premup-three_ses-01_part-01_label-phase1,3.2.4,Win32,60,left,0.828999996,4,0,4,0,1,3,1,0,240,231,1,239,,,,,,,,,,,,,,,,,,
,,1,102,,,,,,,3,6,3,stim/63.jpeg,HouseObjects,1,stim/objects/HouseObjects/clothesdryingrack2.png,0.9,4,0.2,-0.15,left,10,2021-01-07_19h08.20.863,premup-three_ses-01_part-01_label-phase1,3.2.4,Win32,60,left,0.699999809,4,0,4,0,1,3,1,0,240,234,1,239,,,,,,,,,,,,,,,,,,
,,1,103,,,,,,,2,4,3,stim/43.jpeg,Instruments,2,stim/objects/Instruments/balalaika2.png,0.3,1,-0.2,0.15,right,10,2021-01-07_19h08.20.863,premup-three_ses-01_part-01_label-phase1,3.2.4,Win32,60,right,0.655999899,4,0,4,0,1,3,1,0,240,154,1,239,,,,,,,,,,,,,,,,,,
,,1,104,,,,,,,3,5,2,stim/52.jpeg,Instruments,2,stim/objects/Instruments/bassguitar2.png,0.9,1,-0.2,0.15,right,10,2021-01-07_19h08.20.863,premup-three_ses-01_part-01_label-phase1,3.2.4,Win32,60,right,0.760999918,4,0,4,0,1,3,1,0,240,189,1,239,,,,,,,,,,,,,,,,,,
,,1,105,,,,,,,3,6,3,stim/63.jpeg,HouseObjects,1,stim/objects/HouseObjects/clothesdryingrack2.png,0.9,2,0.2,0.15,left,10,2021-01-07_19h08.20.863,premup-three_ses-01_part-01_label-phase1,3.2.4,Win32,60,left,0.718999863,4,0,4,0,1,3,1,0,240,218,1,239,,,,,,,,,,,,,,,,,,
,,0,106,,,,,,,3,5,1,stim/51.jpeg,Instruments,2,stim/objects/Instruments/bassdrum2.png,0.9,3,-0.2,-0.15,right,10,2021-01-07_19h08.20.863,premup-three_ses-01_part-01_label-phase1,3.2.4,Win32,60,left,0.722999811,4,0,4,0,1,3,1,0,240,192,1,239,,,,,,,,,,,,,,,,,,
,,0,107,,,,,,,2,4,4,stim/44.jpeg,Instruments,2,stim/objects/Instruments/banjo2.png,0.3,1,-0.2,0.15,right,10,2021-01-07_19h08.20.863,premup-three_ses-01_part-01_label-phase1,3.2.4,Win32,60,left,1.143000126,4,0,4,0,1,3,1,0,240,151,1,239,,,,,,,,,,,,,,,,,,
,,1,108,,,,,,,1,1,1,stim/11.jpeg,Instruments,2,stim/objects/Instruments/accordion.png,0.5,2,0.2,0.15,right,10,2021-01-07_19h08.20.863,premup-three_ses-01_part-01_label-phase1,3.2.4,Win32,60,right,1.464999914,4,0,4,0,1,3,1,0,240,32,1,239,,,,,,,,,,,,,,,,,,
,,0,109,,,,,,,2,3,4,stim/34.jpeg,Instruments,2,stim/objects/Instruments/doublebass.png,0.7,3,-0.2,-0.15,right,10,2021-01-07_19h08.20.863,premup-three_ses-01_part-01_label-phase1,3.2.4,Win32,60,left,1.411999941,4,0,4,0,1,3,1,0,240,107,1,239,,,,,,,,,,,,,,,,,,
,,1,110,,,,,,,3,6,4,stim/64.jpeg,HouseObjects,1,stim/objects/HouseObjects/clothespin2.png,0.9,4,0.2,-0.15,left,10,2021-01-07_19h08.20.863,premup-three_ses-01_part-01_label-phase1,3.2.4,Win32,60,left,0.734999895,4,0,4,0,1,3,1,0,240,227,1,239,,,,,,,,,,,,,,,,,,
,,1,111,,,,,,,3,6,3,stim/63.jpeg,HouseObjects,1,stim/objects/HouseObjects/clothesdryingrack2.png,0.9,3,-0.2,-0.15,left,10,2021-01-07_19h08.20.863,premup-three_ses-01_part-01_label-phase1,3.2.4,Win32,60,left,0.549999952,4,0,4,0,1,3,1,0,240,230,1,239,,,,,,,,,,,,,,,,,,
,,0,112,,,,,,,3,5,2,stim/52.jpeg,Instruments,2,stim/objects/Instruments/bassguitar2.png,0.9,3,-0.2,-0.15,right,10,2021-01-07_19h08.20.863,premup-three_ses-01_part-01_label-phase1,3.2.4,Win32,60,left,0.723999977,4,0,4,0,1,3,1,0,240,185,1,239,,,,,,,,,,,,,,,,,,
,,0,113,,,,,,,1,1,3,stim/13.jpeg,Instruments,2,stim/objects/Instruments/balalaika.png,0.5,2,0.2,0.15,right,10,2021-01-07_19h08.20.863,premup-three_ses-01_part-01_label-phase1,3.2.4,Win32,60,left,1.554000139,4,0,4,0,1,3,1,0,240,22,1,239,,,,,,,,,,,,,,,,,,
,,1,114,,,,,,,1,1,3,stim/13.jpeg,HouseObjects,1,stim/objects/HouseObjects/barbecuelighter.png,0.5,1,-0.2,0.15,left,10,2021-01-07_19h08.20.863,premup-three_ses-01_part-01_label-phase1,3.2.4,Win32,60,left,1.082999945,4,0,4,0,1,3,1,0,240,6,1,239,,,,,,,,,,,,,,,,,,
,,1,115,,,,,,,2,3,2,stim/32.jpeg,Instruments,2,stim/objects/Instruments/cornet.png,0.7,2,0.2,0.15,right,10,2021-01-07_19h08.20.863,premup-three_ses-01_part-01_label-phase1,3.2.4,Win32,60,right,1.450999975,4,0,4,0,1,3,1,0,240,101,1,239,,,,,,,,,,,,,,,,,,
,,1,116,,,,,,,3,6,4,stim/64.jpeg,HouseObjects,1,stim/objects/HouseObjects/clothespin2.png,0.9,4,0.2,-0.15,left,10,2021-01-07_19h08.20.863,premup-three_ses-01_part-01_label-phase1,3.2.4,Win32,60,left,0.695999861,4,0,4,0,1,3,1,0,240,203,1,239,,,,,,,,,,,,,,,,,,
,,1,117,,,,,,,2,4,2,stim/42.jpeg,HouseObjects,1,stim/objects/HouseObjects/ballofstring2.png,0.7,4,0.2,-0.15,left,10,2021-01-07_19h08.20.863,premup-three_ses-01_part-01_label-phase1,3.2.4,Win32,60,left,1.268999815,4,0,4,0,1,3,1,0,240,125,1,239,,,,,,,,,,,,,,,,,,
,,0,118,,,,,,,3,5,4,stim/54.jpeg,Instruments,2,stim/objects/Instruments/chime2.png,0.9,4,0.2,-0.15,right,10,2021-01-07_19h08.20.863,premup-three_ses-01_part-01_label-phase1,3.2.4,Win32,60,left,0.970999956,4,0,4,0,1,3,1,0,240,167,1,239,,,,,,,,,,,,,,,,,,
,,1,119,,,,,,,2,3,3,stim/33.jpeg,HouseObjects,1,stim/objects/HouseObjects/clothesdryingrack.png,0.3,4,0.2,-0.15,left,10,2021-01-07_19h08.20.863,premup-three_ses-01_part-01_label-phase1,3.2.4,Win32,60,left,0.871000051,4,0,4,0,1,3,1,0,240,82,1,239,,,,,,,,,,,,,,,,,,
,,0,120,,,,,,,1,2,3,stim/23.jpeg,HouseObjects,1,stim/objects/HouseObjects/bottle.png,0.5,1,-0.2,0.15,left,10,2021-01-07_19h08.20.863,premup-three_ses-01_part-01_label-phase1,3.2.4,Win32,60,right,1.162000179,4,0,4,0,1,3,1,0,240,58,1,239,,,,,,,,,,,,,,,,,,
,,0,121,,,,,,,1,1,4,stim/14.jpeg,HouseObjects,1,stim/objects/HouseObjects/basket.png,0.5,4,0.2,-0.15,left,10,2021-01-07_19h08.20.863,premup-three_ses-01_part-01_label-phase1,3.2.4,Win32,60,right,1.687999964,4,0,4,0,1,3,1,0,240,7,1,239,,,,,,,,,,,,,,,,,,
,,1,122,,,,,,,3,5,4,stim/54.jpeg,Instruments,2,stim/objects/Instruments/chime2.png,0.9,2,0.2,0.15,right,10,2021-01-07_19h08.20.863,premup-three_ses-01_part-01_label-phase1,3.2.4,Win32,60,right,1.071000099,4,0,4,0,1,3,1,0,240,171,1,239,,,,,,,,,,,,,,,,,,
,,1,123,,,,,,,3,5,3,stim/53.jpeg,Instruments,2,stim/objects/Instruments/cello2.png,0.9,1,-0.2,0.15,right,10,2021-01-07_19h08.20.863,premup-three_ses-01_part-01_label-phase1,3.2.4,Win32,60,right,0.737999916,4,0,4,0,1,3,1,0,240,174,1,239,,,,,,,,,,,,,,,,,,
,,0,124,,,,,,,2,4,3,stim/43.jpeg,HouseObjects,1,stim/objects/HouseObjects/barbecuelighter2.png,0.7,2,0.2,0.15,left,10,2021-01-07_19h08.20.863,premup-three_ses-01_part-01_label-phase1,3.2.4,Win32,60,right,0.911000013,4,0,4,0,1,3,1,0,240,122,1,239,,,,,,,,,,,,,,,,,,
,,1,125,,,,,,,2,4,2,stim/42.jpeg,Instruments,2,stim/objects/Instruments/acousticguitar2.png,0.3,4,0.2,-0.15,right,10,2021-01-07_19h08.20.863,premup-three_ses-01_part-01_label-phase1,3.2.4,Win32,60,right,0.754000187,4,0,4,0,1,3,1,0,240,149,1,239,,,,,,,,,,,,,,,,,,
,,0,126,,,,,,,2,4,2,stim/42.jpeg,HouseObjects,1,stim/objects/HouseObjects/ballofstring2.png,0.7,3,-0.2,-0.15,left,10,2021-01-07_19h08.20.863,premup-three_ses-01_part-01_label-phase1,3.2.4,Win32,60,right,1.292000055,4,0,4,0,1,3,1,0,240,145,1,239,,,,,,,,,,,,,,,,,,
,,1,127,,,,,,,2,3,4,stim/34.jpeg,Instruments,2,stim/objects/Instruments/doublebass.png,0.7,3,-0.2,-0.15,right,10,2021-01-07_19h08.20.863,premup-three_ses-01_part-01_label-phase1,3.2.4,Win32,60,right,1.039000034,4,0,4,0,1,3,1,0,240,103,1,239,,,,,,,,,,,,,,,,,,
,,1,128,,,,,,,1,1,3,stim/13.jpeg,Instruments,2,stim/objects/Instruments/balalaika.png,0.5,4,0.2,-0.15,right,10,2021-01-07_19h08.20.863,premup-three_ses-01_part-01_label-phase1,3.2.4,Win32,60,right,1.092000008,4,0,4,0,1,3,1,0,240,34,1,239,,,,,,,,,,,,,,,,,,
,,1,129,,,,,,,3,6,3,stim/63.jpeg,HouseObjects,1,stim/objects/HouseObjects/clothesdryingrack2.png,0.9,4,0.2,-0.15,left,10,2021-01-07_19h08.20.863,premup-three_ses-01_part-01_label-phase1,3.2.4,Win32,60,left,0.684000015,4,0,4,0,1,3,1,0,240,222,1,239,,,,,,,,,,,,,,,,,,
,,1,130,,,,,,,3,5,1,stim/51.jpeg,Instruments,2,stim/objects/Instruments/bassdrum2.png,0.9,3,-0.2,-0.15,right,10,2021-01-07_19h08.20.863,premup-three_ses-01_part-01_label-phase1,3.2.4,Win32,60,right,1.157999992,4,0,4,0,1,3,1,0,240,196,1,239,,,,,,,,,,,,,,,,,,
,,1,131,,,,,,,1,1,1,stim/11.jpeg,HouseObjects,1,stim/objects/HouseObjects/ashtray.png,0.5,2,0.2,0.15,left,10,2021-01-07_19h08.20.863,premup-three_ses-01_part-01_label-phase1,3.2.4,Win32,60,left,1.506000042,4,0,4,0,1,3,1,0,240,4,1,239,,,,,,,,,,,,,,,,,,
,,1,132,,,,,,,1,2,1,stim/21.jpeg,HouseObjects,1,stim/objects/HouseObjects/bleachbottle.png,0.5,3,-0.2,-0.15,left,10,2021-01-07_19h08.20.863,premup-three_ses-01_part-01_label-phase1,3.2.4,Win32,60,left,1.049000025,4,0,4,0,1,3,1,0,240,56,1,239,,,,,,,,,,,,,,,,,,
,,0,133,,,,,,,1,2,2,stim/22.jpeg,Instruments,2,stim/objects/Instruments/bassguitar.png,0.5,1,-0.2,0.15,right,10,2021-01-07_19h08.20.863,premup-three_ses-01_part-01_label-phase1,3.2.4,Win32,60,left,0.645999908,4,0,4,0,1,3,1,0,240,69,1,239,,,,,,,,,,,,,,,,,,
,,0,134,,,,,,,2,3,1,stim/31.jpeg,Instruments,2,stim/objects/Instruments/clarinet.png,0.7,1,-0.2,0.15,right,10,2021-01-07_19h08.20.863,premup-three_ses-01_part-01_label-phase1,3.2.4,Win32,60,left,1.779000044,4,0,4,0,1,3,1,0,240,104,1,239,,,,,,,,,,,,,,,,,,
,,0,135,,,,,,,1,2,3,stim/23.jpeg,Instruments,2,stim/objects/Instruments/cello.png,0.5,4,0.2,-0.15,right,10,2021-01-07_19h08.20.863,premup-three_ses-01_part-01_label-phase1,3.2.4,Win32,60,left,0.828999996,4,0,4,0,1,3,1,0,240,62,1,239,,,,,,,,,,,,,,,,,,
,,0,136,,,,,,,1,1,3,stim/13.jpeg,HouseObjects,1,stim/objects/HouseObjects/barbecuelighter.png,0.5,1,-0.2,0.15,left,10,2021-01-07_19h08.20.863,premup-three_ses-01_part-01_label-phase1,3.2.4,Win32,60,right,1.054999828,4,0,4,0,1,3,1,0,240,14,1,239,,,,,,,,,,,,,,,,,,
,,0,137,,,,,,,1,2,4,stim/24.jpeg,HouseObjects,1,stim/objects/HouseObjects/broom.png,0.5,3,-0.2,-0.15,left,10,2021-01-07_19h08.20.863,premup-three_ses-01_part-01_label-phase1,3.2.4,Win32,60,,,4,0,4,0,1,3,1,0,240,47,1,239,,,,,,,,,,,,,,,,,,
,,0,138,,,,,,,3,5,1,stim/51.jpeg,Instruments,2,stim/objects/Instruments/bassdrum2.png,0.9,1,-0.2,0.15,right,10,2021-01-07_19h08.20.863,premup-three_ses-01_part-01_label-phase1,3.2.4,Win32,60,left,0.817000151,4,0,4,0,1,3,1,0,240,168,1,239,,,,,,,,,,,,,,,,,,
,,0,139,,,,,,,3,5,1,stim/51.jpeg,Instruments,2,stim/objects/Instruments/bassdrum2.png,0.9,1,-0.2,0.15,right,10,2021-01-07_19h08.20.863,premup-three_ses-01_part-01_label-phase1,3.2.4,Win32,60,left,0.549000025,4,0,4,0,1,3,1,0,240,172,1,239,,,,,,,,,,,,,,,,,,
,,0,140,,,,,,,3,5,3,stim/53.jpeg,Instruments,2,stim/objects/Instruments/cello2.png,0.9,4,0.2,-0.15,right,10,2021-01-07_19h08.20.863,premup-three_ses-01_part-01_label-phase1,3.2.4,Win32,60,left,0.918000221,4,0,4,0,1,3,1,0,240,194,1,239,,,,,,,,,,,,,,,,,,
,,1,141,,,,,,,2,4,2,stim/42.jpeg,HouseObjects,1,stim/objects/HouseObjects/ballofstring2.png,0.7,4,0.2,-0.15,left,10,2021-01-07_19h08.20.863,premup-three_ses-01_part-01_label-phase1,3.2.4,Win32,60,left,1.042000055,4,0,4,0,1,3,1,0,240,141,1,239,,,,,,,,,,,,,,,,,,
,,1,142,,,,,,,2,4,1,stim/41.jpeg,HouseObjects,1,stim/objects/HouseObjects/ashtray2.png,0.7,2,0.2,0.15,left,10,2021-01-07_19h08.20.863,premup-three_ses-01_part-01_label-phase1,3.2.4,Win32,60,left,0.646999836,4,0,4,0,1,3,1,0,240,140,1,239,,,,,,,,,,,,,,,,,,
,,1,143,,,,,,,3,6,1,stim/61.jpeg,HouseObjects,1,stim/objects/HouseObjects/bucket2.png,0.9,2,0.2,0.15,left,10,2021-01-07_19h08.20.863,premup-three_ses-01_part-01_label-phase1,3.2.4,Win32,60,left,0.753000021,4,0,4,0,1,3,1,0,240,204,1,239,,,,,,,,,,,,,,,,,,
,,1,144,,,,,,,2,3,4,stim/34.jpeg,HouseObjects,1,stim/objects/HouseObjects/clothespin.png,0.3,4,0.2,-0.15,left,10,2021-01-07_19h08.20.863,premup-three_ses-01_part-01_label-phase1,3.2.4,Win32,60,left,0.950000048,4,0,4,0,1,3,1,0,240,91,1,239,,,,,,,,,,,,,,,,,,
,,0,145,,,,,,,1,2,2,stim/22.jpeg,HouseObjects,1,stim/objects/HouseObjects/blender.png,0.5,2,0.2,0.15,left,10,2021-01-07_19h08.20.863,premup-three_ses-01_part-01_label-phase1,3.2.4,Win32,60,right,0.844000101,4,0,4,0,1,3,1,0,240,45,1,239,,,,,,,,,,,,,,,,,,
,,1,146,,,,,,,1,2,2,stim/22.jpeg,HouseObjects,1,stim/objects/HouseObjects/blender.png,0.5,4,0.2,-0.15,left,10,2021-01-07_19h08.20.863,premup-three_ses-01_part-01_label-phase1,3.2.4,Win32,60,left,0.773000002,4,0,4,0,1,3,1,0,240,53,1,239,,,,,,,,,,,,,,,,,,
,,1,147,,,,,,,1,1,2,stim/12.jpeg,HouseObjects,1,stim/objects/HouseObjects/ballofstring.png,0.5,2,0.2,0.15,left,10,2021-01-07_19h08.20.863,premup-three_ses-01_part-01_label-phase1,3.2.4,Win32,60,left,1.411000013,4,0,4,0,1,3,1,0,240,5,1,239,,,,,,,,,,,,,,,,,,
,,0,148,,,,,,,2,4,3,stim/43.jpeg,HouseObjects,1,stim/objects/HouseObjects/barbecuelighter2.png,0.7,2,0.2,0.15,left,10,2021-01-07_19h08.20.863,premup-three_ses-01_part-01_label-phase1,3.2.4,Win32,60,right,1.160000086,4,0,4,0,1,3,1,0,240,126,1,239,,,,,,,,,,,,,,,,,,
,,1,149,,,,,,,1,2,2,stim/22.jpeg,Instruments,2,stim/objects/Instruments/bassguitar.png,0.5,1,-0.2,0.15,right,10,2021-01-07_19h08.20.863,premup-three_ses-01_part-01_label-phase1,3.2.4,Win32,60,right,1.03399992,4,0,4,0,1,3,1,0,240,77,1,239,,,,,,,,,,,,,,,,,,
,,0,150,,,,,,,2,3,2,stim/32.jpeg,Instruments,2,stim/objects/Instruments/cornet.png,0.7,4,0.2,-0.15,right,10,2021-01-07_19h08.20.863,premup-three_ses-01_part-01_label-phase1,3.2.4,Win32,60,left,0.958999872,4,0,4,0,1,3,1,0,240,117,1,239,,,,,,,,,,,,,,,,,,
,,1,151,,,,,,,2,4,2,stim/42.jpeg,HouseObjects,1,stim/objects/HouseObjects/ballofstring2.png,0.7,2,0.2,0.15,left,10,2021-01-07_19h08.20.863,premup-three_ses-01_part-01_label-phase1,3.2.4,Win32,60,left,1.256999969,4,0,4,0,1,3,1,0,240,129,1,239,,,,,,,,,,,,,,,,,,
,,0,152,,,,,,,2,4,2,stim/42.jpeg,Instruments,2,stim/objects/Instruments/acousticguitar2.png,0.3,3,-0.2,-0.15,right,10,2021-01-07_19h08.20.863,premup-three_ses-01_part-01_label-phase1,3.2.4,Win32,60,left,0.50999999,4,0,4,0,1,3,1,0,240,157,1,239,,,,,,,,,,,,,,,,,,
,,0,153,,,,,,,3,6,3,stim/63.jpeg,Instruments,2,stim/objects/Instruments/cymbal2.png,0.1,4,0.2,-0.15,right,10,2021-01-07_19h08.20.863,premup-three_ses-01_part-01_label-phase1,3.2.4,Win32,60,left,1.006999969,4,0,4,0,1,3,1,0,240,238,1,239,,,,,,,,,,,,,,,,,,
,,0,154,,,,,,,3,6,4,stim/64.jpeg,HouseObjects,1,stim/objects/HouseObjects/clothespin2.png,0.9,1,-0.2,0.15,left,10,2021-01-07_19h08.20.863,premup-three_ses-01_part-01_label-phase1,3.2.4,Win32,60,,,4,0,4,0,1,3,1,0,240,207,1,239,,,,,,,,,,,,,,,,,,
,,1,155,,,,,,,3,5,1,stim/51.jpeg,Instruments,2,stim/objects/Instruments/bassdrum2.png,0.9,1,-0.2,0.15,right,10,2021-01-07_19h08.20.863,premup-three_ses-01_part-01_label-phase1,3.2.4,Win32,60,right,0.855000019,4,0,4,0,1,3,1,0,240,188,1,239,,,,,,,,,,,,,,,,,,
,,1,156,,,,,,,2,3,3,stim/33.jpeg,Instruments,2,stim/objects/Instruments/cymbal.png,0.7,2,0.2,0.15,right,10,2021-01-07_19h08.20.863,premup-three_ses-01_part-01_label-phase1,3.2.4,Win32,60,right,1.267999887,4,0,4,0,1,3,1,0,240,106,1,239,,,,,,,,,,,,,,,,,,
,,1,157,,,,,,,3,6,2,stim/62.jpeg,HouseObjects,1,stim/objects/HouseObjects/clock2.png,0.9,2,0.2,0.15,left,10,2021-01-07_19h08.20.863,premup-three_ses-01_part-01_label-phase1,3.2.4,Win32,60,left,0.650000095,4,0,4,0,1,3,1,0,240,221,1,239,,,,,,,,,,,,,,,,,,
,,1,158,,,,,,,3,5,4,stim/54.jpeg,Instruments,2,stim/objects/Instruments/chime2.png,0.9,2,0.2,0.15,right,10,2021-01-07_19h08.20.863,premup-three_ses-01_part-01_label-phase1,3.2.4,Win32,60,right,0.979000092,4,0,4,0,1,3,1,0,240,191,1,239,,,,,,,,,,,,,,,,,,
,,1,159,,,,,,,3,5,3,stim/53.jpeg,Instruments,2,stim/objects/Instruments/cello2.png,0.9,2,0.2,0.15,right,10,2021-01-07_19h08.20.863,premup-three_ses-01_part-01_label-phase1,3.2.4,Win32,60,right,0.654999971,4,0,4,0,1,3,1,0,240,186,1,239,,,,,,,,,,,,,,,,,,
,,1,160,,,,,,,1,2,3,stim/23.jpeg,HouseObjects,1,stim/objects/HouseObjects/bottle.png,0.5,1,-0.2,0.15,left,10,2021-01-07_19h08.20.863,premup-three_ses-01_part-01_label-phase1,3.2.4,Win32,60,left,0.677999973,4,0,4,0,1,3,1,0,240,42,1,239,,,,,,,,,,,,,,,,,,
,,1,161,,,,,,,3,6,2,stim/62.jpeg,HouseObjects,1,stim/objects/HouseObjects/clock2.png,0.9,4,0.2,-0.15,left,10,2021-01-07_19h08.20.863,premup-three_ses-01_part-01_label-phase1,3.2.4,Win32,60,left,0.553999901,4,0,4,0,1,3,1,0,240,225,1,239,,,,,,,,,,,,,,,,,,
,,0,162,,,,,,,1,2,3,stim/23.jpeg,Instruments,2,stim/objects/Instruments/cello.png,0.5,4,0.2,-0.15,right,10,2021-01-07_19h08.20.863,premup-three_ses-01_part-01_label-phase1,3.2.4,Win32,60,left,0.398000002,4,0,4,0,1,3,1,0,240,74,1,239,,,,,,,,,,,,,,,,,,
,,1,163,,,,,,,3,6,1,stim/61.jpeg,HouseObjects,1,stim/objects/HouseObjects/bucket2.png,0.9,2,0.2,0.15,left,10,2021-01-07_19h08.20.863,premup-three_ses-01_part-01_label-phase1,3.2.4,Win32,60,left,0.726999998,4,0,4,0,1,3,1,0,240,224,1,239,,,,,,,,,,,,,,,,,,
,,0,164,,,,,,,2,3,4,stim/34.jpeg,Instruments,2,stim/objects/Instruments/doublebass.png,0.7,4,0.2,-0.15,right,10,2021-01-07_19h08.20.863,premup-three_ses-01_part-01_label-phase1,3.2.4,Win32,60,left,0.743000031,4,0,4,0,1,3,1,0,240,115,1,239,,,,,,,,,,,,,,,,,,
,,1,165,,,,,,,2,4,1,stim/41.jpeg,HouseObjects,1,stim/objects/HouseObjects/ashtray2.png,0.7,4,0.2,-0.15,left,10,2021-01-07_19h08.20.863,premup-three_ses-01_part-01_label-phase1,3.2.4,Win32,60,left,0.885999918,4,0,4,0,1,3,1,0,240,132,1,239,,,,,,,,,,,,,,,,,,
,,1,166,,,,,,,1,1,4,stim/14.jpeg,HouseObjects,1,stim/objects/HouseObjects/basket.png,0.5,4,0.2,-0.15,left,10,2021-01-07_19h08.20.863,premup-three_ses-01_part-01_label-phase1,3.2.4,Win32,60,left,1.026000023,4,0,4,0,1,3,1,0,240,3,1,239,,,,,,,,,,,,,,,,,,
,,1,167,,,,,,,1,1,1,stim/11.jpeg,Instruments,2,stim/objects/Instruments/accordion.png,0.5,4,0.2,-0.15,right,10,2021-01-07_19h08.20.863,premup-three_ses-01_part-01_label-phase1,3.2.4,Win32,60,right,1.003000021,4,0,4,0,1,3,1,0,240,24,1,239,,,,,,,,,,,,,,,,,,
,,0,168,,,,,,,1,1,4,stim/14.jpeg,HouseObjects,1,stim/objects/HouseObjects/basket.png,0.5,3,-0.2,-0.15,left,10,2021-01-07_19h08.20.863,premup-three_ses-01_part-01_label-phase1,3.2.4,Win32,60,right,0.702000141,4,0,4,0,1,3,1,0,240,11,1,239,,,,,,,,,,,,,,,,,,
,,1,169,,,,,,,3,6,3,stim/63.jpeg,HouseObjects,1,stim/objects/HouseObjects/clothesdryingrack2.png,0.9,4,0.2,-0.15,left,10,2021-01-07_19h08.20.863,premup-three_ses-01_part-01_label-phase1,3.2.4,Win32,60,left,0.576999903,4,0,4,0,1,3,1,0,240,210,1,239,,,,,,,,,,,,,,,,,,
,,0,170,,,,,,,2,3,4,stim/34.jpeg,Instruments,2,stim/objects/Instruments/doublebass.png,0.7,4,0.2,-0.15,right,10,2021-01-07_19h08.20.863,premup-three_ses-01_part-01_label-phase1,3.2.4,Win32,60,left,0.618999958,4,0,4,0,1,3,1,0,240,99,1,239,,,,,,,,,,,,,,,,,,
,,1,171,,,,,,,1,2,2,stim/22.jpeg,HouseObjects,1,stim/objects/HouseObjects/blender.png,0.5,3,-0.2,-0.15,left,10,2021-01-07_19h08.20.863,premup-three_ses-01_part-01_label-phase1,3.2.4,Win32,60,left,0.792000055,4,0,4,0,1,3,1,0,240,41,1,239,,,,,,,,,,,,,,,,,,
,,1,172,,,,,,,2,4,3,stim/43.jpeg,HouseObjects,1,stim/objects/HouseObjects/barbecuelighter2.png,0.7,4,0.2,-0.15,left,10,2021-01-07_19h08.20.863,premup-three_ses-01_part-01_label-phase1,3.2.4,Win32,60,left,0.76699996,4,0,4,0,1,3,1,0,240,146,1,239,,,,,,,,,,,,,,,,,,
,,0,173,,,,,,,1,1,2,stim/12.jpeg,Instruments,2,stim/objects/Instruments/acousticguitar.png,0.5,3,-0.2,-0.15,right,10,2021-01-07_19h08.20.863,premup-three_ses-01_part-01_label-phase1,3.2.4,Win32,60,left,0.975000143,4,0,4,0,1,3,1,0,240,33,1,239,,,,,,,,,,,,,,,,,,
,,1,174,,,,,,,2,4,3,stim/43.jpeg,HouseObjects,1,stim/objects/HouseObjects/barbecuelighter2.png,0.7,4,0.2,-0.15,left,10,2021-01-07_19h08.20.863,premup-three_ses-01_part-01_label-phase1,3.2.4,Win32,60,left,0.780999899,4,0,4,0,1,3,1,0,240,142,1,239,,,,,,,,,,,,,,,,,,
,,1,175,,,,,,,2,4,4,stim/44.jpeg,HouseObjects,1,stim/objects/HouseObjects/basket2.png,0.7,2,0.2,0.15,left,10,2021-01-07_19h08.20.863,premup-three_ses-01_part-01_label-phase1,3.2.4,Win32,60,left,0.701999903,4,0,4,0,1,3,1,0,240,139,1,239,,,,,,,,,,,,,,,,,,
,,1,176,,,,,,,3,6,2,stim/62.jpeg,HouseObjects,1,stim/objects/HouseObjects/clock2.png,0.9,4,0.2,-0.15,left,10,2021-01-07_19h08.20.863,premup-three_ses-01_part-01_label-phase1,3.2.4,Win32,60,left,0.519000053,4,0,4,0,1,3,1,0,240,217,1,239,,,,,,,,,,,,,,,,,,
,,1,177,,,,,,,1,2,1,stim/21.jpeg,HouseObjects,1,stim/objects/HouseObjects/bleachbottle.png,0.5,1,-0.2,0.15,left,10,2021-01-07_19h08.20.863,premup-three_ses-01_part-01_label-phase1,3.2.4,Win32,60,left,0.571000099,4,0,4,0,1,3,1,0,240,44,1,239,,,,,,,,,,,,,,,,,,
,,1,178,,,,,,,2,3,1,stim/31.jpeg,HouseObjects,1,stim/objects/HouseObjects/bucket.png,0.3,1,-0.2,0.15,left,10,2021-01-07_19h08.20.863,premup-three_ses-01_part-01_label-phase1,3.2.4,Win32,60,left,0.757000208,4,0,4,0,1,3,1,0,240,88,1,239,,,,,,,,,,,,,,,,,,
,,1,179,,,,,,,2,4,1,stim/41.jpeg,HouseObjects,1,stim/objects/HouseObjects/ashtray2.png,0.7,4,0.2,-0.15,left,10,2021-01-07_19h08.20.863,premup-three_ses-01_part-01_label-phase1,3.2.4,Win32,60,left,0.761999846,4,0,4,0,1,3,1,0,240,128,1,239,,,,,,,,,,,,,,,,,,
,,1,180,,,,,,,3,6,3,stim/63.jpeg,HouseObjects,1,stim/objects/HouseObjects/clothesdryingrack2.png,0.9,4,0.2,-0.15,left,10,2021-01-07_19h08.20.863,premup-three_ses-01_part-01_label-phase1,3.2.4,Win32,60,left,0.503000021,4,0,4,0,1,3,1,0,240,214,1,239,,,,,,,,,,,,,,,,,,
,,1,181,,,,,,,3,6,4,stim/64.jpeg,HouseObjects,1,stim/objects/HouseObjects/clothespin2.png,0.9,1,-0.2,0.15,left,10,2021-01-07_19h08.20.863,premup-three_ses-01_part-01_label-phase1,3.2.4,Win32,60,left,0.523999929,4,0,4,0,1,3,1,0,240,215,1,239,,,,,,,,,,,,,,,,,,
,,0,182,,,,,,,2,3,4,stim/34.jpeg,Instruments,2,stim/objects/Instruments/doublebass.png,0.7,3,-0.2,-0.15,right,10,2021-01-07_19h08.20.863,premup-three_ses-01_part-01_label-phase1,3.2.4,Win32,60,left,0.744999886,4,0,4,0,1,3,1,0,240,111,1,239,,,,,,,,,,,,,,,,,,
,,1,183,,,,,,,2,4,4,stim/44.jpeg,HouseObjects,1,stim/objects/HouseObjects/basket2.png,0.7,3,-0.2,-0.15,left,10,2021-01-07_19h08.20.863,premup-three_ses-01_part-01_label-phase1,3.2.4,Win32,60,left,0.612999916,4,0,4,0,1,3,1,0,240,131,1,239,,,,,,,,,,,,,,,,,,
,,0,184,,,,,,,1,2,3,stim/23.jpeg,Instruments,2,stim/objects/Instruments/cello.png,0.5,3,-0.2,-0.15,right,10,2021-01-07_19h08.20.863,premup-three_ses-01_part-01_label-phase1,3.2.4,Win32,60,left,0.537999868,4,0,4,0,1,3,1,0,240,66,1,239,,,,,,,,,,,,,,,,,,
,,1,185,,,,,,,1,2,4,stim/24.jpeg,HouseObjects,1,stim/objects/HouseObjects/broom.png,0.5,4,0.2,-0.15,left,10,2021-01-07_19h08.20.863,premup-three_ses-01_part-01_label-phase1,3.2.4,Win32,60,left,1.361999989,4,0,4,0,1,3,1,0,240,43,1,239,,,,,,,,,,,,,,,,,,
,,1,186,,,,,,,3,6,4,stim/64.jpeg,HouseObjects,1,stim/objects/HouseObjects/clothespin2.png,0.9,3,-0.2,-0.15,left,10,2021-01-07_19h08.20.863,premup-three_ses-01_part-01_label-phase1,3.2.4,Win32,60,left,0.549999952,4,0,4,0,1,3,1,0,240,211,1,239,,,,,,,,,,,,,,,,,,
,,1,187,,,,,,,3,5,1,stim/51.jpeg,Instruments,2,stim/objects/Instruments/bassdrum2.png,0.9,4,0.2,-0.15,right,10,2021-01-07_19h08.20.863,premup-three_ses-01_part-01_label-phase1,3.2.4,Win32,60,right,0.861000061,4,0,4,0,1,3,1,0,240,176,1,239,,,,,,,,,,,,,,,,,,
,,1,188,,,,,,,2,4,3,stim/43.jpeg,Instruments,2,stim/objects/Instruments/balalaika2.png,0.3,2,0.2,0.15,right,10,2021-01-07_19h08.20.863,premup-three_ses-01_part-01_label-phase1,3.2.4,Win32,60,right,0.458999872,4,0,4,0,1,3,1,0,240,158,1,239,,,,,,,,,,,,,,,,,,
,,1,189,,,,,,,3,6,1,stim/61.jpeg,HouseObjects,1,stim/objects/HouseObjects/bucket2.png,0.9,1,-0.2,0.15,left,10,2021-01-07_19h08.20.863,premup-three_ses-01_part-01_label-phase1,3.2.4,Win32,60,left,0.612999916,4,0,4,0,1,3,1,0,240,216,1,239,,,,,,,,,,,,,,,,,,
,,1,190,,,,,,,1,1,1,stim/11.jpeg,HouseObjects,1,stim/objects/HouseObjects/ashtray.png,0.5,4,0.2,-0.15,left,10,2021-01-07_19h08.20.863,premup-three_ses-01_part-01_label-phase1,3.2.4,Win32,60,left,1.212999821,4,0,4,0,1,3,1,0,240,12,1,239,,,,,,,,,,,,,,,,,,
,,1,191,,,,,,,3,6,1,stim/61.jpeg,HouseObjects,1,stim/objects/HouseObjects/bucket2.png,0.9,2,0.2,0.15,left,10,2021-01-07_19h08.20.863,premup-three_ses-01_part-01_label-phase1,3.2.4,Win32,60,left,0.822000027,4,0,4,0,1,3,1,0,240,200,1,239,,,,,,,,,,,,,,,,,,
,,1,192,,,,,,,3,5,4,stim/54.jpeg,Instruments,2,stim/objects/Instruments/chime2.png,0.9,3,-0.2,-0.15,right,10,2021-01-07_19h08.20.863,premup-three_ses-01_part-01_label-phase1,3.2.4,Win32,60,right,0.65899992,4,0,4,0,1,3,1,0,240,199,1,239,,,,,,,,,,,,,,,,,,
,,0,193,,,,,,,2,3,4,stim/34.jpeg,Instruments,2,stim/objects/Instruments/doublebass.png,0.7,1,-0.2,0.15,right,10,2021-01-07_19h08.20.863,premup-three_ses-01_part-01_label-phase1,3.2.4,Win32,60,left,0.997999907,4,0,4,0,1,3,1,0,240,95,1,239,,,,,,,,,,,,,,,,,,
,,0,194,,,,,,,3,5,4,stim/54.jpeg,HouseObjects,1,stim/objects/HouseObjects/broom2.png,0.1,4,0.2,-0.15,left,10,2021-01-07_19h08.20.863,premup-three_ses-01_part-01_label-phase1,3.2.4,Win32,60,right,0.756999969,4,0,4,0,1,3,1,0,240,163,1,239,,,,,,,,,,,,,,,,,,
,,1,195,,,,,,,2,4,1,stim/41.jpeg,HouseObjects,1,stim/objects/HouseObjects/ashtray2.png,0.7,4,0.2,-0.15,left,10,2021-01-07_19h08.20.863,premup-three_ses-01_part-01_label-phase1,3.2.4,Win32,60,left,0.993000031,4,0,4,0,1,3,1,0,240,144,1,239,,,,,,,,,,,,,,,,,,
,,1,196,,,,,,,2,4,3,stim/43.jpeg,HouseObjects,1,stim/objects/HouseObjects/barbecuelighter2.png,0.7,4,0.2,-0.15,left,10,2021-01-07_19h08.20.863,premup-three_ses-01_part-01_label-phase1,3.2.4,Win32,60,left,0.763999939,4,0,4,0,1,3,1,0,240,134,1,239,,,,,,,,,,,,,,,,,,
,,1,197,,,,,,,2,3,3,stim/33.jpeg,Instruments,2,stim/objects/Instruments/cymbal.png,0.7,3,-0.2,-0.15,right,10,2021-01-07_19h08.20.863,premup-three_ses-01_part-01_label-phase1,3.2.4,Win32,60,right,1.10800004,4,0,4,0,1,3,1,0,240,98,1,239,,,,,,,,,,,,,,,,,,
,,0,198,,,,,,,2,4,3,stim/43.jpeg,Instruments,2,stim/objects/Instruments/balalaika2.png,0.3,3,-0.2,-0.15,right,10,2021-01-07_19h08.20.863,premup-three_ses-01_part-01_label-phase1,3.2.4,Win32,60,left,0.871999979,4,0,4,0,1,3,1,0,240,150,1,239,,,,,,,,,,,,,,,,,,
,,0,199,,,,,,,1,2,2,stim/22.jpeg,Instruments,2,stim/objects/Instruments/bassguitar.png,0.5,1,-0.2,0.15,right,10,2021-01-07_19h08.20.863,premup-three_ses-01_part-01_label-phase1,3.2.4,Win32,60,left,0.877000093,4,0,4,0,1,3,1,0,240,61,1,239,,,,,,,,,,,,,,,,,,
,,0,200,,,,,,,3,5,1,stim/51.jpeg,HouseObjects,1,stim/objects/HouseObjects/bleachbottle2.png,0.1,1,-0.2,0.15,left,10,2021-01-07_19h08.20.863,premup-three_ses-01_part-01_label-phase1,3.2.4,Win32,60,right,0.631000042,4,0,4,0,1,3,1,0,240,160,1,239,,,,,,,,,,,,,,,,,,
,,1,201,,,,,,,3,6,2,stim/62.jpeg,HouseObjects,1,stim/objects/HouseObjects/clock2.png,0.9,1,-0.2,0.15,left,10,2021-01-07_19h08.20.863,premup-three_ses-01_part-01_label-phase1,3.2.4,Win32,60,left,0.588999987,4,0,4,0,1,3,1,0,240,233,1,239,,,,,,,,,,,,,,,,,,
,,0,202,,,,,,,1,1,2,stim/12.jpeg,Instruments,2,stim/objects/Instruments/acousticguitar.png,0.5,2,0.2,0.15,right,10,2021-01-07_19h08.20.863,premup-three_ses-01_part-01_label-phase1,3.2.4,Win32,60,left,1.109999895,4,0,4,0,1,3,1,0,240,21,1,239,,,,,,,,,,,,,,,,,,
,,1,203,,,,,,,2,4,1,stim/41.jpeg,HouseObjects,1,stim/objects/HouseObjects/ashtray2.png,0.7,2,0.2,0.15,left,10,2021-01-07_19h08.20.863,premup-three_ses-01_part-01_label-phase1,3.2.4,Win32,60,left,0.77699995,4,0,4,0,1,3,1,0,240,136,1,239,,,,,,,,,,,,,,,,,,
,,1,204,,,,,,,3,5,1,stim/51.jpeg,Instruments,2,stim/objects/Instruments/bassdrum2.png,0.9,1,-0.2,0.15,right,10,2021-01-07_19h08.20.863,premup-three_ses-01_part-01_label-phase1,3.2.4,Win32,60,right,0.748999834,4,0,4,0,1,3,1,0,240,184,1,239,,,,,,,,,,,,,,,,,,
,,1,205,,,,,,,3,5,2,stim/52.jpeg,Instruments,2,stim/objects/Instruments/bassguitar2.png,0.9,3,-0.2,-0.15,right,10,2021-01-07_19h08.20.863,premup-three_ses-01_part-01_label-phase1,3.2.4,Win32,60,right,0.837000132,4,0,4,0,1,3,1,0,240,193,1,239,,,,,,,,,,,,,,,,,,
,,0,206,,,,,,,2,3,1,stim/31.jpeg,Instruments,2,stim/objects/Instruments/clarinet.png,0.7,3,-0.2,-0.15,right,10,2021-01-07_19h08.20.863,premup-three_ses-01_part-01_label-phase1,3.2.4,Win32,60,left,0.8349998,4,0,4,0,1,3,1,0,240,116,1,239,,,,,,,,,,,,,,,,,,
,,1,207,,,,,,,2,4,4,stim/44.jpeg,HouseObjects,1,stim/objects/HouseObjects/basket2.png,0.7,4,0.2,-0.15,left,10,2021-01-07_19h08.20.863,premup-three_ses-01_part-01_label-phase1,3.2.4,Win32,60,left,0.984000206,4,0,4,0,1,3,1,0,240,135,1,239,,,,,,,,,,,,,,,,,,
,,1,208,,,,,,,1,2,1,stim/21.jpeg,HouseObjects,1,stim/objects/HouseObjects/bleachbottle.png,0.5,1,-0.2,0.15,left,10,2021-01-07_19h08.20.863,premup-three_ses-01_part-01_label-phase1,3.2.4,Win32,60,left,0.628000021,4,0,4,0,1,3,1,0,240,52,1,239,,,,,,,,,,,,,,,,,,
,,0,209,,,,,,,1,2,4,stim/24.jpeg,HouseObjects,1,stim/objects/HouseObjects/broom.png,0.5,4,0.2,-0.15,left,10,2021-01-07_19h08.20.863,premup-three_ses-01_part-01_label-phase1,3.2.4,Win32,60,right,0.703999996,4,0,4,0,1,3,1,0,240,51,1,239,,,,,,,,,,,,,,,,,,
,,1,210,,,,,,,3,6,3,stim/63.jpeg,HouseObjects,1,stim/objects/HouseObjects/clothesdryingrack2.png,0.9,1,-0.2,0.15,left,10,2021-01-07_19h08.20.863,premup-three_ses-01_part-01_label-phase1,3.2.4,Win32,60,left,0.518000126,4,0,4,0,1,3,1,0,240,226,1,239,,,,,,,,,,,,,,,,,,
,,1,211,,,,,,,1,2,4,stim/24.jpeg,Instruments,2,stim/objects/Instruments/chime.png,0.5,3,-0.2,-0.15,right,10,2021-01-07_19h08.20.863,premup-three_ses-01_part-01_label-phase1,3.2.4,Win32,60,right,0.799000025,4,0,4,0,1,3,1,0,240,67,1,239,,,,,,,,,,,,,,,,,,
,,1,212,,,,,,,1,2,4,stim/24.jpeg,HouseObjects,1,stim/objects/HouseObjects/broom.png,0.5,4,0.2,-0.15,left,10,2021-01-07_19h08.20.863,premup-three_ses-01_part-01_label-phase1,3.2.4,Win32,60,left,0.864000082,4,0,4,0,1,3,1,0,240,55,1,239,,,,,,,,,,,,,,,,,,
,,1,213,,,,,,,2,3,4,stim/34.jpeg,Instruments,2,stim/objects/Instruments/doublebass.png,0.7,4,0.2,-0.15,right,10,2021-01-07_19h08.20.863,premup-three_ses-01_part-01_label-phase1,3.2.4,Win32,60,right,1.036000013,4,0,4,0,1,3,1,0,240,119,1,239,,,,,,,,,,,,,,,,,,
,,0,214,,,,,,,1,1,2,stim/12.jpeg,HouseObjects,1,stim/objects/HouseObjects/ballofstring.png,0.5,2,0.2,0.15,left,10,2021-01-07_19h08.20.863,premup-three_ses-01_part-01_label-phase1,3.2.4,Win32,60,right,1.337000132,4,0,4,0,1,3,1,0,240,1,1,239,,,,,,,,,,,,,,,,,,
,,1,215,,,,,,,2,3,3,stim/33.jpeg,Instruments,2,stim/objects/Instruments/cymbal.png,0.7,1,-0.2,0.15,right,10,2021-01-07_19h08.20.863,premup-three_ses-01_part-01_label-phase1,3.2.4,Win32,60,right,0.808000088,4,0,4,0,1,3,1,0,240,114,1,239,,,,,,,,,,,,,,,,,,
,,0,216,,,,,,,3,6,1,stim/61.jpeg,Instruments,2,stim/objects/Instruments/clarinet2.png,0.1,4,0.2,-0.15,right,10,2021-01-07_19h08.20.863,premup-three_ses-01_part-01_label-phase1,3.2.4,Win32,60,left,0.769999981,4,0,4,0,1,3,1,0,240,236,1,239,,,,,,,,,,,,,,,,,,
,,0,217,,,,,,,3,6,2,stim/62.jpeg,Instruments,2,stim/objects/Instruments/cornet2.png,0.1,1,-0.2,0.15,right,10,2021-01-07_19h08.20.863,premup-three_ses-01_part-01_label-phase1,3.2.4,Win32,60,left,1.023999929,4,0,4,0,1,3,1,0,240,237,1,239,,,,,,,,,,,,,,,,,,
,,1,218,,,,,,,3,5,3,stim/53.jpeg,Instruments,2,stim/objects/Instruments/cello2.png,0.9,3,-0.2,-0.15,right,10,2021-01-07_19h08.20.863,premup-three_ses-01_part-01_label-phase1,3.2.4,Win32,60,right,0.818000078,4,0,4,0,1,3,1,0,240,166,1,239,,,,,,,,,,,,,,,,,,
,,0,219,,,,,,,1,2,3,stim/23.jpeg,Instruments,2,stim/objects/Instruments/cello.png,0.5,4,0.2,-0.15,right,10,2021-01-07_19h08.20.863,premup-three_ses-01_part-01_label-phase1,3.2.4,Win32,60,left,0.703000069,4,0,4,0,1,3,1,0,240,70,1,239,,,,,,,,,,,,,,,,,,
,,1,220,,,,,,,2,4,2,stim/42.jpeg,HouseObjects,1,stim/objects/HouseObjects/ballofstring2.png,0.7,2,0.2,0.15,left,10,2021-01-07_19h08.20.863,premup-three_ses-01_part-01_label-phase1,3.2.4,Win32,60,left,0.856000185,4,0,4,0,1,3,1,0,240,137,1,239,,,,,,,,,,,,,,,,,,
,,0,221,,,,,,,2,3,4,stim/34.jpeg,HouseObjects,1,stim/objects/HouseObjects/clothespin.png,0.3,1,-0.2,0.15,left,10,2021-01-07_19h08.20.863,premup-three_ses-01_part-01_label-phase1,3.2.4,Win32,60,right,0.766000032,4,0,4,0,1,3,1,0,240,83,1,239,,,,,,,,,,,,,,,,,,
,,1,222,,,,,,,1,1,3,stim/13.jpeg,Instruments,2,stim/objects/Instruments/balalaika.png,0.5,4,0.2,-0.15,right,10,2021-01-07_19h08.20.863,premup-three_ses-01_part-01_label-phase1,3.2.4,Win32,60,right,1.604000092,4,0,4,0,1,3,1,0,240,26,1,239,,,,,,,,,,,,,,,,,,
,,0,223,,,,,,,1,1,2,stim/12.jpeg,Instruments,2,stim/objects/Instruments/acousticguitar.png,0.5,3,-0.2,-0.15,right,10,2021-01-07_19h08.20.863,premup-three_ses-01_part-01_label-phase1,3.2.4,Win32,60,left,0.906000137,4,0,4,0,1,3,1,0,240,29,1,239,,,,,,,,,,,,,,,,,,
,,0,224,,,,,,,1,1,1,stim/11.jpeg,Instruments,2,stim/objects/Instruments/accordion.png,0.5,3,-0.2,-0.15,right,10,2021-01-07_19h08.20.863,premup-three_ses-01_part-01_label-phase1,3.2.4,Win32,60,left,0.799000025,4,0,4,0,1,3,1,0,240,20,1,239,,,,,,,,,,,,,,,,,,
,,0,225,,,,,,,2,3,1,stim/31.jpeg,HouseObjects,1,stim/objects/HouseObjects/bucket.png,0.3,2,0.2,0.15,left,10,2021-01-07_19h08.20.863,premup-three_ses-01_part-01_label-phase1,3.2.4,Win32,60,right,1.09100008,4,0,4,0,1,3,1,0,240,84,1,239,,,,,,,,,,,,,,,,,,
,,0,226,,,,,,,3,5,2,stim/52.jpeg,HouseObjects,1,stim/objects/HouseObjects/blender2.png,0.1,3,-0.2,-0.15,left,10,2021-01-07_19h08.20.863,premup-three_ses-01_part-01_label-phase1,3.2.4,Win32,60,right,0.769999981,4,0,4,0,1,3,1,0,240,161,1,239,,,,,,,,,,,,,,,,,,
,,1,227,,,,,,,3,6,1,stim/61.jpeg,HouseObjects,1,stim/objects/HouseObjects/bucket2.png,0.9,2,0.2,0.15,left,10,2021-01-07_19h08.20.863,premup-three_ses-01_part-01_label-phase1,3.2.4,Win32,60,left,0.521000147,4,0,4,0,1,3,1,0,240,212,1,239,,,,,,,,,,,,,,,,,,
,,0,228,,,,,,,2,3,1,stim/31.jpeg,Instruments,2,stim/objects/Instruments/clarinet.png,0.7,1,-0.2,0.15,right,10,2021-01-07_19h08.20.863,premup-three_ses-01_part-01_label-phase1,3.2.4,Win32,60,left,0.842999935,4,0,4,0,1,3,1,0,240,92,1,239,,,,,,,,,,,,,,,,,,
,,1,229,,,,,,,2,3,1,stim/31.jpeg,HouseObjects,1,stim/objects/HouseObjects/bucket.png,0.3,3,-0.2,-0.15,left,10,2021-01-07_19h08.20.863,premup-three_ses-01_part-01_label-phase1,3.2.4,Win32,60,left,0.643999815,4,0,4,0,1,3,1,0,240,80,1,239,,,,,,,,,,,,,,,,,,
,,0,230,,,,,,,2,3,2,stim/32.jpeg,Instruments,2,stim/objects/Instruments/cornet.png,0.7,1,-0.2,0.15,right,10,2021-01-07_19h08.20.863,premup-three_ses-01_part-01_label-phase1,3.2.4,Win32,60,left,0.756999969,4,0,4,0,1,3,1,0,240,93,1,239,,,,,,,,,,,,,,,,,,
,,0,231,,,,,,,2,3,2,stim/32.jpeg,HouseObjects,1,stim/objects/HouseObjects/clock.png,0.3,2,0.2,0.15,left,10,2021-01-07_19h08.20.863,premup-three_ses-01_part-01_label-phase1,3.2.4,Win32,60,right,0.53399992,4,0,4,0,1,3,1,0,240,81,1,239,,,,,,,,,,,,,,,,,,
,,1,232,,,,,,,1,2,3,stim/23.jpeg,HouseObjects,1,stim/objects/HouseObjects/bottle.png,0.5,3,-0.2,-0.15,left,10,2021-01-07_19h08.20.863,premup-three_ses-01_part-01_label-phase1,3.2.4,Win32,60,left,0.595999956,4,0,4,0,1,3,1,0,240,50,1,239,,,,,,,,,,,,,,,,,,
,,0,233,,,,,,,2,3,1,stim/31.jpeg,Instruments,2,stim/objects/Instruments/clarinet.png,0.7,3,-0.2,-0.15,right,10,2021-01-07_19h08.20.863,premup-three_ses-01_part-01_label-phase1,3.2.4,Win32,60,left,0.717999935,4,0,4,0,1,3,1,0,240,112,1,239,,,,,,,,,,,,,,,,,,
,,1,234,,,,,,,1,1,4,stim/14.jpeg,Instruments,2,stim/objects/Instruments/banjo.png,0.5,3,-0.2,-0.15,right,10,2021-01-07_19h08.20.863,premup-three_ses-01_part-01_label-phase1,3.2.4,Win32,60,right,0.395999908,4,0,4,0,1,3,1,0,240,31,1,239,,,,,,,,,,,,,,,,,,
,,1,235,,,,,,,1,2,3,stim/23.jpeg,HouseObjects,1,stim/objects/HouseObjects/bottle.png,0.5,2,0.2,0.15,left,10,2021-01-07_19h08.20.863,premup-three_ses-01_part-01_label-phase1,3.2.4,Win32,60,left,0.559000015,4,0,4,0,1,3,1,0,240,54,1,239,,,,,,,,,,,,,,,,,,
,,0,236,,,,,,,2,3,1,stim/31.jpeg,Instruments,2,stim/objects/Instruments/clarinet.png,0.7,1,-0.2,0.15,right,10,2021-01-07_19h08.20.863,premup-three_ses-01_part-01_label-phase1,3.2.4,Win32,60,left,0.568000078,4,0,4,0,1,3,1,0,240,100,1,239,,,,,,,,,,,,,,,,,,
,,1,237,,,,,,,2,4,3,stim/43.jpeg,HouseObjects,1,stim/objects/HouseObjects/barbecuelighter2.png,0.7,1,-0.2,0.15,left,10,2021-01-07_19h08.20.863,premup-three_ses-01_part-01_label-phase1,3.2.4,Win32,60,left,0.605000019,4,0,4,0,1,3,1,0,240,130,1,239,,,,,,,,,,,,,,,,,,
,,0,238,,,,,,,1,1,1,stim/11.jpeg,Instruments,2,stim/objects/Instruments/accordion.png,0.5,3,-0.2,-0.15,right,10,2021-01-07_19h08.20.863,premup-three_ses-01_part-01_label-phase1,3.2.4,Win32,60,left,0.590999842,4,0,4,0,1,3,1,0,240,28,1,239,,,,,,,,,,,,,,,,,,
,,1,239,,,,,,,2,3,1,stim/31.jpeg,Instruments,2,stim/objects/Instruments/clarinet.png,0.7,4,0.2,-0.15,right,10,2021-01-07_19h08.20.863,premup-three_ses-01_part-01_label-phase1,3.2.4,Win32,60,right,1.023999929,4,0,4,0,1,3,1,0,240,96,1,239,,,,,,,,,,,,,,,,,,
,,0,240,,,,,,,3,6,4,stim/64.jpeg,Instruments,2,stim/objects/Instruments/doublebass2.png,0.1,3,-0.2,-0.15,right,10,2021-01-07_19h08.20.863,premup-three_ses-01_part-01_label-phase1,3.2.4,Win32,60,left,0.618000031,4,0,4,0,1,3,1,0,240,239,1,239,,,,,,,,,,,,,,,,,,
,,,,,,,,,,,3,,stim/31.jpeg,,,,,,,,,10,2021-01-07_19h08.20.863,premup-three_ses-01_part-01_label-phase1,3.2.4,Win32,60,,,4,0,4,0,1,3,,,,,,,1,0,14,12.37700009,,,1,0,6,2,1,5,Household items,65,75,Music items,25,35
,,,,,,,,,,,1,,stim/11.jpeg,,,,,,,,,10,2021-01-07_19h08.20.863,premup-three_ses-01_part-01_label-phase1,3.2.4,Win32,60,,,4,0,4,0,1,3,,,,,,,1,0,38,9.167000055,,,1,0,6,0,1,5,Household items,45,55,Music items,45,55
,,,,,,,,,,,4,,stim/41.jpeg,,,,,,,,,10,2021-01-07_19h08.20.863,premup-three_ses-01_part-01_label-phase1,3.2.4,Win32,60,,,4,0,4,0,1,3,,,,,,,1,0,87,7.928999901,,,1,0,6,3,1,5,Household items,65,75,Music items,25,35
,,,,,,,,,,,6,,stim/61.jpeg,,,,,,,,,10,2021-01-07_19h08.20.863,premup-three_ses-01_part-01_label-phase1,3.2.4,Win32,60,,,4,0,4,0,1,3,,,,,,,1,0,89,6.963999987,,,1,0,6,5,1,5,Household items,5,15,Music items,85,95
,,,,,,,,,,,2,,stim/21.jpeg,,,,,,,,,10,2021-01-07_19h08.20.863,premup-three_ses-01_part-01_label-phase1,3.2.4,Win32,60,,,4,0,4,0,1,3,,,,,,,1,0,70,4.77699995,,,1,0,6,1,1,5,Music items,45,55,Household items,45,55
,,,,,,,,,,,5,,stim/51.jpeg,,,,,,,,,10,2021-01-07_19h08.20.863,premup-three_ses-01_part-01_label-phase1,3.2.4,Win32,60,,,4,0,4,0,1,3,,,,,,,1,0,90,20.2809999,,,1,0,6,4,1,5,Music items,5,15,Household items,85,95
,,,,,,,,,,,,,,,,,,,,,,10,2021-01-07_19h08.20.863,premup-three_ses-01_part-01_label-phase1,3.2.4,Win32,60,,,4,0,4,0,1,3,,,,,,,,,,,,,,,,,,,,,,,,
,,0,1,,,,,,,2,3,2,stim/32.jpeg,Instruments,2,stim/objects/Instruments/cornet.png,0.7,4,0.2,-0.15,right,10,2021-01-07_19h08.20.863,premup-three_ses-01_part-01_label-phase1,3.2.4,Win32,60,,,4,0,4,0,1,3,1,0,240,117,1,239,,,,,,,,,,,,,,,,,,
,,1,2,,,,,,,1,1,2,stim/12.jpeg,Instruments,2,stim/objects/Instruments/acousticguitar.png,0.5,2,0.2,0.15,right,10,2021-01-07_19h08.20.863,premup-three_ses-01_part-01_label-phase1,3.2.4,Win32,60,right,1.350000143,4,0,4,0,1,3,1,0,240,25,1,239,,,,,,,,,,,,,,,,,,
,,0,3,,,,,,,2,3,1,stim/31.jpeg,HouseObjects,1,stim/objects/HouseObjects/bucket.png,0.3,1,-0.2,0.15,left,10,2021-01-07_19h08.20.863,premup-three_ses-01_part-01_label-phase1,3.2.4,Win32,60,right,0.819999933,4,0,4,0,1,3,1,0,240,88,1,239,,,,,,,,,,,,,,,,,,
,,1,4,,,,,,,3,6,2,stim/62.jpeg,HouseObjects,1,stim/objects/HouseObjects/clock2.png,0.9,3,-0.2,-0.15,left,10,2021-01-07_19h08.20.863,premup-three_ses-01_part-01_label-phase1,3.2.4,Win32,60,left,1.400999784,4,0,4,0,1,3,1,0,240,213,1,239,,,,,,,,,,,,,,,,,,
,,0,5,,,,,,,1,2,3,stim/23.jpeg,HouseObjects,1,stim/objects/HouseObjects/bottle.png,0.5,2,0.2,0.15,left,10,2021-01-07_19h08.20.863,premup-three_ses-01_part-01_label-phase1,3.2.4,Win32,60,right,0.986999989,4,0,4,0,1,3,1,0,240,54,1,239,,,,,,,,,,,,,,,,,,
,,1,6,,,,,,,2,3,2,stim/32.jpeg,Instruments,2,stim/objects/Instruments/cornet.png,0.7,1,-0.2,0.15,right,10,2021-01-07_19h08.20.863,premup-three_ses-01_part-01_label-phase1,3.2.4,Win32,60,right,1.167000055,4,0,4,0,1,3,1,0,240,93,1,239,,,,,,,,,,,,,,,,,,
,,1,7,,,,,,,2,4,2,stim/42.jpeg,HouseObjects,1,stim/objects/HouseObjects/ballofstring2.png,0.7,3,-0.2,-0.15,left,10,2021-01-07_19h08.20.863,premup-three_ses-01_part-01_label-phase1,3.2.4,Win32,60,left,0.776000023,4,0,4,0,1,3,1,0,240,145,1,239,,,,,,,,,,,,,,,,,,
,,0,8,,,,,,,3,6,4,stim/64.jpeg,Instruments,2,stim/objects/Instruments/doublebass2.png,0.1,3,-0.2,-0.15,right,10,2021-01-07_19h08.20.863,premup-three_ses-01_part-01_label-phase1,3.2.4,Win32,60,left,0.959000111,4,0,4,0,1,3,1,0,240,239,1,239,,,,,,,,,,,,,,,,,,
,,0,9,,,,,,,3,5,2,stim/52.jpeg,HouseObjects,1,stim/objects/HouseObjects/blender2.png,0.1,3,-0.2,-0.15,left,10,2021-01-07_19h08.20.863,premup-three_ses-01_part-01_label-phase1,3.2.4,Win32,60,right,1.207000017,4,0,4,0,1,3,1,0,240,161,1,239,,,,,,,,,,,,,,,,,,
,,0,10,,,,,,,2,3,2,stim/32.jpeg,Instruments,2,stim/objects/Instruments/cornet.png,0.7,3,-0.2,-0.15,right,10,2021-01-07_19h08.20.863,premup-three_ses-01_part-01_label-phase1,3.2.4,Win32,60,left,1.101999998,4,0,4,0,1,3,1,0,240,113,1,239,,,,,,,,,,,,,,,,,,
,,1,11,,,,,,,2,3,1,stim/31.jpeg,Instruments,2,stim/objects/Instruments/clarinet.png,0.7,1,-0.2,0.15,right,10,2021-01-07_19h08.20.863,premup-three_ses-01_part-01_label-phase1,3.2.4,Win32,60,right,0.957000017,4,0,4,0,1,3,1,0,240,100,1,239,,,,,,,,,,,,,,,,,,
,,1,12,,,,,,,3,5,3,stim/53.jpeg,Instruments,2,stim/objects/Instruments/cello2.png,0.9,1,-0.2,0.15,right,10,2021-01-07_19h08.20.863,premup-three_ses-01_part-01_label-phase1,3.2.4,Win32,60,right,1.209000111,4,0,4,0,1,3,1,0,240,198,1,239,,,,,,,,,,,,,,,,,,
,,0,13,,,,,,,1,1,4,stim/14.jpeg,HouseObjects,1,stim/objects/HouseObjects/basket.png,0.5,4,0.2,-0.15,left,10,2021-01-07_19h08.20.863,premup-three_ses-01_part-01_label-phase1,3.2.4,Win32,60,right,1.234000206,4,0,4,0,1,3,1,0,240,7,1,239,,,,,,,,,,,,,,,,,,
,,0,14,,,,,,,3,5,2,stim/52.jpeg,Instruments,2,stim/objects/Instruments/bassguitar2.png,0.9,3,-0.2,-0.15,right,10,2021-01-07_19h08.20.863,premup-three_ses-01_part-01_label-phase1,3.2.4,Win32,60,left,1.443999767,4,0,4,0,1,3,1,0,240,177,1,239,,,,,,,,,,,,,,,,,,
,,0,15,,,,,,,1,2,2,stim/22.jpeg,Instruments,2,stim/objects/Instruments/bassguitar.png,0.5,2,0.2,0.15,right,10,2021-01-07_19h08.20.863,premup-three_ses-01_part-01_label-phase1,3.2.4,Win32,60,left,0.921000004,4,0,4,0,1,3,1,0,240,73,1,239,,,,,,,,,,,,,,,,,,
,,1,16,,,,,,,2,3,3,stim/33.jpeg,Instruments,2,stim/objects/Instruments/cymbal.png,0.7,1,-0.2,0.15,right,10,2021-01-07_19h08.20.863,premup-three_ses-01_part-01_label-phase1,3.2.4,Win32,60,right,0.789999962,4,0,4,0,1,3,1,0,240,118,1,239,,,,,,,,,,,,,,,,,,
,,1,17,,,,,,,2,3,3,stim/33.jpeg,Instruments,2,stim/objects/Instruments/cymbal.png,0.7,2,0.2,0.15,right,10,2021-01-07_19h08.20.863,premup-three_ses-01_part-01_label-phase1,3.2.4,Win32,60,right,0.838999987,4,0,4,0,1,3,1,0,240,106,1,239,,,,,,,,,,,,,,,,,,
,,0,18,,,,,,,2,4,3,stim/43.jpeg,Instruments,2,stim/objects/Instruments/balalaika2.png,0.3,1,-0.2,0.15,right,10,2021-01-07_19h08.20.863,premup-three_ses-01_part-01_label-phase1,3.2.4,Win32,60,left,0.786999941,4,0,4,0,1,3,1,0,240,154,1,239,,,,,,,,,,,,,,,,,,
,,1,19,,,,,,,3,5,2,stim/52.jpeg,Instruments,2,stim/objects/Instruments/bassguitar2.png,0.9,1,-0.2,0.15,right,10,2021-01-07_19h08.20.863,premup-three_ses-01_part-01_label-phase1,3.2.4,Win32,60,right,0.878999949,4,0,4,0,1,3,1,0,240,189,1,239,,,,,,,,,,,,,,,,,,
,,1,20,,,,,,,2,4,1,stim/41.jpeg,HouseObjects,1,stim/objects/HouseObjects/ashtray2.png,0.7,4,0.2,-0.15,left,10,2021-01-07_19h08.20.863,premup-three_ses-01_part-01_label-phase1,3.2.4,Win32,60,left,0.842999935,4,0,4,0,1,3,1,0,240,132,1,239,,,,,,,,,,,,,,,,,,
,,0,21,,,,,,,3,5,4,stim/54.jpeg,HouseObjects,1,stim/objects/HouseObjects/broom2.png,0.1,4,0.2,-0.15,left,10,2021-01-07_19h08.20.863,premup-three_ses-01_part-01_label-phase1,3.2.4,Win32,60,right,0.733999968,4,0,4,0,1,3,1,0,240,163,1,239,,,,,,,,,,,,,,,,,,
,,1,22,,,,,,,3,6,2,stim/62.jpeg,HouseObjects,1,stim/objects/HouseObjects/clock2.png,0.9,3,-0.2,-0.15,left,10,2021-01-07_19h08.20.863,premup-three_ses-01_part-01_label-phase1,3.2.4,Win32,60,left,0.823000193,4,0,4,0,1,3,1,0,240,229,1,239,,,,,,,,,,,,,,,,,,
,,1,23,,,,,,,2,3,2,stim/32.jpeg,Instruments,2,stim/objects/Instruments/cornet.png,0.7,1,-0.2,0.15,right,10,2021-01-07_19h08.20.863,premup-three_ses-01_part-01_label-phase1,3.2.4,Win32,60,right,1.161000013,4,0,4,0,1,3,1,0,240,109,1,239,,,,,,,,,,,,,,,,,,
,,0,24,,,,,,,1,2,3,stim/23.jpeg,HouseObjects,1,stim/objects/HouseObjects/bottle.png,0.5,1,-0.2,0.15,left,10,2021-01-07_19h08.20.863,premup-three_ses-01_part-01_label-phase1,3.2.4,Win32,60,right,1.24000001,4,0,4,0,1,3,1,0,240,46,1,239,,,,,,,,,,,,,,,,,,
,,0,25,,,,,,,2,4,3,stim/43.jpeg,Instruments,2,stim/objects/Instruments/balalaika2.png,0.3,2,0.2,0.15,right,10,2021-01-07_19h08.20.863,premup-three_ses-01_part-01_label-phase1,3.2.4,Win32,60,left,1.241999865,4,0,4,0,1,3,1,0,240,158,1,239,,,,,,,,,,,,,,,,,,
,,1,26,,,,,,,1,1,4,stim/14.jpeg,HouseObjects,1,stim/objects/HouseObjects/basket.png,0.5,2,0.2,0.15,left,10,2021-01-07_19h08.20.863,premup-three_ses-01_part-01_label-phase1,3.2.4,Win32,60,left,1.094000101,4,0,4,0,1,3,1,0,240,19,1,239,,,,,,,,,,,,,,,,,,
,,1,27,,,,,,,1,2,1,stim/21.jpeg,HouseObjects,1,stim/objects/HouseObjects/bleachbottle.png,0.5,3,-0.2,-0.15,left,10,2021-01-07_19h08.20.863,premup-three_ses-01_part-01_label-phase1,3.2.4,Win32,60,left,0.894999981,4,0,4,0,1,3,1,0,240,56,1,239,,,,,,,,,,,,,,,,,,
,,1,28,,,,,,,3,6,1,stim/61.jpeg,HouseObjects,1,stim/objects/HouseObjects/bucket2.png,0.9,2,0.2,0.15,left,10,2021-01-07_19h08.20.863,premup-three_ses-01_part-01_label-phase1,3.2.4,Win32,60,left,0.631999969,4,0,4,0,1,3,1,0,240,200,1,239,,,,,,,,,,,,,,,,,,
,,1,29,,,,,,,3,5,1,stim/51.jpeg,Instruments,2,stim/objects/Instruments/bassdrum2.png,0.9,1,-0.2,0.15,right,10,2021-01-07_19h08.20.863,premup-three_ses-01_part-01_label-phase1,3.2.4,Win32,60,right,0.88499999,4,0,4,0,1,3,1,0,240,184,1,239,,,,,,,,,,,,,,,,,,
,,1,30,,,,,,,3,6,1,stim/61.jpeg,HouseObjects,1,stim/objects/HouseObjects/bucket2.png,0.9,2,0.2,0.15,left,10,2021-01-07_19h08.20.863,premup-three_ses-01_part-01_label-phase1,3.2.4,Win32,60,left,0.622999907,4,0,4,0,1,3,1,0,240,204,1,239,,,,,,,,,,,,,,,,,,
,,1,31,,,,,,,2,4,2,stim/42.jpeg,HouseObjects,1,stim/objects/HouseObjects/ballofstring2.png,0.7,2,0.2,0.15,left,10,2021-01-07_19h08.20.863,premup-three_ses-01_part-01_label-phase1,3.2.4,Win32,60,left,0.736999989,4,0,4,0,1,3,1,0,240,129,1,239,,,,,,,,,,,,,,,,,,
,,1,32,,,,,,,1,2,3,stim/23.jpeg,HouseObjects,1,stim/objects/HouseObjects/bottle.png,0.5,1,-0.2,0.15,left,10,2021-01-07_19h08.20.863,premup-three_ses-01_part-01_label-phase1,3.2.4,Win32,60,left,1.214000225,4,0,4,0,1,3,1,0,240,42,1,239,,,,,,,,,,,,,,,,,,
,,0,33,,,,,,,1,1,3,stim/13.jpeg,Instruments,2,stim/objects/Instruments/balalaika.png,0.5,2,0.2,0.15,right,10,2021-01-07_19h08.20.863,premup-three_ses-01_part-01_label-phase1,3.2.4,Win32,60,left,1.082000017,4,0,4,0,1,3,1,0,240,22,1,239,,,,,,,,,,,,,,,,,,
,,1,34,,,,,,,3,6,1,stim/61.jpeg,HouseObjects,1,stim/objects/HouseObjects/bucket2.png,0.9,1,-0.2,0.15,left,10,2021-01-07_19h08.20.863,premup-three_ses-01_part-01_label-phase1,3.2.4,Win32,60,left,0.770999908,4,0,4,0,1,3,1,0,240,216,1,239,,,,,,,,,,,,,,,,,,
,,0,35,,,,,,,2,3,3,stim/33.jpeg,HouseObjects,1,stim/objects/HouseObjects/clothesdryingrack.png,0.3,3,-0.2,-0.15,left,10,2021-01-07_19h08.20.863,premup-three_ses-01_part-01_label-phase1,3.2.4,Win32,60,right,0.976000071,4,0,4,0,1,3,1,0,240,90,1,239,,,,,,,,,,,,,,,,,,
,,0,36,,,,,,,2,3,2,stim/32.jpeg,HouseObjects,1,stim/objects/HouseObjects/clock.png,0.3,2,0.2,0.15,left,10,2021-01-07_19h08.20.863,premup-three_ses-01_part-01_label-phase1,3.2.4,Win32,60,right,0.825999975,4,0,4,0,1,3,1,0,240,81,1,239,,,,,,,,,,,,,,,,,,
,,0,37,,,,,,,1,1,1,stim/11.jpeg,HouseObjects,1,stim/objects/HouseObjects/ashtray.png,0.5,2,0.2,0.15,left,10,2021-01-07_19h08.20.863,premup-three_ses-01_part-01_label-phase1,3.2.4,Win32,60,right,1.138999939,4,0,4,0,1,3,1,0,240,4,1,239,,,,,,,,,,,,,,,,,,
,,1,38,,,,,,,2,3,2,stim/32.jpeg,Instruments,2,stim/objects/Instruments/cornet.png,0.7,1,-0.2,0.15,right,10,2021-01-07_19h08.20.863,premup-three_ses-01_part-01_label-phase1,3.2.4,Win32,60,right,0.792999983,4,0,4,0,1,3,1,0,240,105,1,239,,,,,,,,,,,,,,,,,,
,,1,39,,,,,,,2,4,4,stim/44.jpeg,HouseObjects,1,stim/objects/HouseObjects/basket2.png,0.7,4,0.2,-0.15,left,10,2021-01-07_19h08.20.863,premup-three_ses-01_part-01_label-phase1,3.2.4,Win32,60,left,0.79399991,4,0,4,0,1,3,1,0,240,135,1,239,,,,,,,,,,,,,,,,,,
,,1,40,,,,,,,3,5,1,stim/51.jpeg,Instruments,2,stim/objects/Instruments/bassdrum2.png,0.9,2,0.2,0.15,right,10,2021-01-07_19h08.20.863,premup-three_ses-01_part-01_label-phase1,3.2.4,Win32,60,right,0.929000139,4,0,4,0,1,3,1,0,240,180,1,239,,,,,,,,,,,,,,,,,,
,,1,41,,,,,,,3,5,1,stim/51.jpeg,Instruments,2,stim/objects/Instruments/bassdrum2.png,0.9,1,-0.2,0.15,right,10,2021-01-07_19h08.20.863,premup-three_ses-01_part-01_label-phase1,3.2.4,Win32,60,right,0.632999897,4,0,4,0,1,3,1,0,240,188,1,239,,,,,,,,,,,,,,,,,,
,,1,42,,,,,,,3,5,1,stim/51.jpeg,Instruments,2,stim/objects/Instruments/bassdrum2.png,0.9,3,-0.2,-0.15,right,10,2021-01-07_19h08.20.863,premup-three_ses-01_part-01_label-phase1,3.2.4,Win32,60,right,0.663999796,4,0,4,0,1,3,1,0,240,196,1,239,,,,,,,,,,,,,,,,,,
,,0,43,,,,,,,1,2,1,stim/21.jpeg,Instruments,2,stim/objects/Instruments/bassdrum.png,0.5,1,-0.2,0.15,right,10,2021-01-07_19h08.20.863,premup-three_ses-01_part-01_label-phase1,3.2.4,Win32,60,left,0.654999971,4,0,4,0,1,3,1,0,240,64,1,239,,,,,,,,,,,,,,,,,,
,,1,44,,,,,,,3,5,3,stim/53.jpeg,Instruments,2,stim/objects/Instruments/cello2.png,0.9,2,0.2,0.15,right,10,2021-01-07_19h08.20.863,premup-three_ses-01_part-01_label-phase1,3.2.4,Win32,60,right,0.917000055,4,0,4,0,1,3,1,0,240,178,1,239,,,,,,,,,,,,,,,,,,
,,1,45,,,,,,,2,3,4,stim/34.jpeg,Instruments,2,stim/objects/Instruments/doublebass.png,0.7,3,-0.2,-0.15,right,10,2021-01-07_19h08.20.863,premup-three_ses-01_part-01_label-phase1,3.2.4,Win32,60,right,0.929000139,4,0,4,0,1,3,1,0,240,111,1,239,,,,,,,,,,,,,,,,,,
,,0,46,,,,,,,2,4,4,stim/44.jpeg,Instruments,2,stim/objects/Instruments/banjo2.png,0.3,1,-0.2,0.15,right,10,2021-01-07_19h08.20.863,premup-three_ses-01_part-01_label-phase1,3.2.4,Win32,60,left,0.910000086,4,0,4,0,1,3,1,0,240,151,1,239,,,,,,,,,,,,,,,,,,
,,0,47,,,,,,,2,4,3,stim/43.jpeg,HouseObjects,1,stim/objects/HouseObjects/barbecuelighter2.png,0.7,2,0.2,0.15,left,10,2021-01-07_19h08.20.863,premup-three_ses-01_part-01_label-phase1,3.2.4,Win32,60,right,0.923000097,4,0,4,0,1,3,1,0,240,138,1,239,,,,,,,,,,,,,,,,,,
,,0,48,,,,,,,1,1,3,stim/13.jpeg,Instruments,2,stim/objects/Instruments/balalaika.png,0.5,2,0.2,0.15,right,10,2021-01-07_19h08.20.863,premup-three_ses-01_part-01_label-phase1,3.2.4,Win32,60,left,0.673999786,4,0,4,0,1,3,1,0,240,30,1,239,,,,,,,,,,,,,,,,,,
,,1,49,,,,,,,2,3,1,stim/31.jpeg,Instruments,2,stim/objects/Instruments/clarinet.png,0.7,3,-0.2,-0.15,right,10,2021-01-07_19h08.20.863,premup-three_ses-01_part-01_label-phase1,3.2.4,Win32,60,right,1.075000048,4,0,4,0,1,3,1,0,240,112,1,239,,,,,,,,,,,,,,,,,,
,,0,50,,,,,,,2,4,2,stim/42.jpeg,Instruments,2,stim/objects/Instruments/acousticguitar2.png,0.3,2,0.2,0.15,right,10,2021-01-07_19h08.20.863,premup-three_ses-01_part-01_label-phase1,3.2.4,Win32,60,left,0.782999992,4,0,4,0,1,3,1,0,240,153,1,239,,,,,,,,,,,,,,,,,,
,,1,51,,,,,,,2,4,3,stim/43.jpeg,HouseObjects,1,stim/objects/HouseObjects/barbecuelighter2.png,0.7,2,0.2,0.15,left,10,2021-01-07_19h08.20.863,premup-three_ses-01_part-01_label-phase1,3.2.4,Win32,60,left,0.858999968,4,0,4,0,1,3,1,0,240,126,1,239,,,,,,,,,,,,,,,,,,
,,1,52,,,,,,,2,4,3,stim/43.jpeg,HouseObjects,1,stim/objects/HouseObjects/barbecuelighter2.png,0.7,4,0.2,-0.15,left,10,2021-01-07_19h08.20.863,premup-three_ses-01_part-01_label-phase1,3.2.4,Win32,60,left,0.467999935,4,0,4,0,1,3,1,0,240,146,1,239,,,,,,,,,,,,,,,,,,
,,1,53,,,,,,,3,6,2,stim/62.jpeg,HouseObjects,1,stim/objects/HouseObjects/clock2.png,0.9,4,0.2,-0.15,left,10,2021-01-07_19h08.20.863,premup-three_ses-01_part-01_label-phase1,3.2.4,Win32,60,left,0.61500001,4,0,4,0,1,3,1,0,240,201,1,239,,,,,,,,,,,,,,,,,,
,,1,54,,,,,,,1,2,2,stim/22.jpeg,HouseObjects,1,stim/objects/HouseObjects/blender.png,0.5,2,0.2,0.15,left,10,2021-01-07_19h08.20.863,premup-three_ses-01_part-01_label-phase1,3.2.4,Win32,60,left,1.597000122,4,0,4,0,1,3,1,0,240,49,1,239,,,,,,,,,,,,,,,,,,
,,1,55,,,,,,,2,3,3,stim/33.jpeg,Instruments,2,stim/objects/Instruments/cymbal.png,0.7,3,-0.2,-0.15,right,10,2021-01-07_19h08.20.863,premup-three_ses-01_part-01_label-phase1,3.2.4,Win32,60,right,0.654999971,4,0,4,0,1,3,1,0,240,98,1,239,,,,,,,,,,,,,,,,,,
,,1,56,,,,,,,2,3,2,stim/32.jpeg,Instruments,2,stim/objects/Instruments/cornet.png,0.7,2,0.2,0.15,right,10,2021-01-07_19h08.20.863,premup-three_ses-01_part-01_label-phase1,3.2.4,Win32,60,right,0.628000021,4,0,4,0,1,3,1,0,240,101,1,239,,,,,,,,,,,,,,,,,,
,,1,57,,,,,,,2,3,2,stim/32.jpeg,Instruments,2,stim/objects/Instruments/cornet.png,0.7,2,0.2,0.15,right,10,2021-01-07_19h08.20.863,premup-three_ses-01_part-01_label-phase1,3.2.4,Win32,60,right,0.375,4,0,4,0,1,3,1,0,240,97,1,239,,,,,,,,,,,,,,,,,,
,,0,58,,,,,,,1,1,3,stim/13.jpeg,Instruments,2,stim/objects/Instruments/balalaika.png,0.5,3,-0.2,-0.15,right,10,2021-01-07_19h08.20.863,premup-three_ses-01_part-01_label-phase1,3.2.4,Win32,60,left,0.779000044,4,0,4,0,1,3,1,0,240,38,1,239,,,,,,,,,,,,,,,,,,
,,1,59,,,,,,,1,1,2,stim/12.jpeg,Instruments,2,stim/objects/Instruments/acousticguitar.png,0.5,2,0.2,0.15,right,10,2021-01-07_19h08.20.863,premup-three_ses-01_part-01_label-phase1,3.2.4,Win32,60,right,0.629000187,4,0,4,0,1,3,1,0,240,21,1,239,,,,,,,,,,,,,,,,,,
,,1,60,,,,,,,1,2,3,stim/23.jpeg,HouseObjects,1,stim/objects/HouseObjects/bottle.png,0.5,3,-0.2,-0.15,left,10,2021-01-07_19h08.20.863,premup-three_ses-01_part-01_label-phase1,3.2.4,Win32,60,left,0.873000145,4,0,4,0,1,3,1,0,240,50,1,239,,,,,,,,,,,,,,,,,,
,,0,61,,,,,,,3,6,3,stim/63.jpeg,Instruments,2,stim/objects/Instruments/cymbal2.png,0.1,4,0.2,-0.15,right,10,2021-01-07_19h08.20.863,premup-three_ses-01_part-01_label-phase1,3.2.4,Win32,60,left,0.628000021,4,0,4,0,1,3,1,0,240,238,1,239,,,,,,,,,,,,,,,,,,
,,1,62,,,,,,,1,1,3,stim/13.jpeg,HouseObjects,1,stim/objects/HouseObjects/barbecuelighter.png,0.5,3,-0.2,-0.15,left,10,2021-01-07_19h08.20.863,premup-three_ses-01_part-01_label-phase1,3.2.4,Win32,60,left,0.632999897,4,0,4,0,1,3,1,0,240,2,1,239,,,,,,,,,,,,,,,,,,
,,1,63,,,,,,,2,3,4,stim/34.jpeg,Instruments,2,stim/objects/Instruments/doublebass.png,0.7,1,-0.2,0.15,right,10,2021-01-07_19h08.20.863,premup-three_ses-01_part-01_label-phase1,3.2.4,Win32,60,right,1.388000011,4,0,4,0,1,3,1,0,240,95,1,239,,,,,,,,,,,,,,,,,,
,,0,64,,,,,,,1,1,3,stim/13.jpeg,HouseObjects,1,stim/objects/HouseObjects/barbecuelighter.png,0.5,1,-0.2,0.15,left,10,2021-01-07_19h08.20.863,premup-three_ses-01_part-01_label-phase1,3.2.4,Win32,60,right,0.74000001,4,0,4,0,1,3,1,0,240,6,1,239,,,,,,,,,,,,,,,,,,
,,0,65,,,,,,,1,2,3,stim/23.jpeg,Instruments,2,stim/objects/Instruments/cello.png,0.5,4,0.2,-0.15,right,10,2021-01-07_19h08.20.863,premup-three_ses-01_part-01_label-phase1,3.2.4,Win32,60,left,0.761000156,4,0,4,0,1,3,1,0,240,74,1,239,,,,,,,,,,,,,,,,,,
,,0,66,,,,,,,2,3,1,stim/31.jpeg,HouseObjects,1,stim/objects/HouseObjects/bucket.png,0.3,2,0.2,0.15,left,10,2021-01-07_19h08.20.863,premup-three_ses-01_part-01_label-phase1,3.2.4,Win32,60,right,0.763000011,4,0,4,0,1,3,1,0,240,84,1,239,,,,,,,,,,,,,,,,,,
,,1,67,,,,,,,3,5,4,stim/54.jpeg,Instruments,2,stim/objects/Instruments/chime2.png,0.9,2,0.2,0.15,right,10,2021-01-07_19h08.20.863,premup-three_ses-01_part-01_label-phase1,3.2.4,Win32,60,right,1.002000093,4,0,4,0,1,3,1,0,240,187,1,239,,,,,,,,,,,,,,,,,,
,,1,68,,,,,,,1,2,1,stim/21.jpeg,Instruments,2,stim/objects/Instruments/bassdrum.png,0.5,2,0.2,0.15,right,10,2021-01-07_19h08.20.863,premup-three_ses-01_part-01_label-phase1,3.2.4,Win32,60,right,1.233999968,4,0,4,0,1,3,1,0,240,60,1,239,,,,,,,,,,,,,,,,,,
,,0,69,,,,,,,1,1,2,stim/12.jpeg,HouseObjects,1,stim/objects/HouseObjects/ballofstring.png,0.5,3,-0.2,-0.15,left,10,2021-01-07_19h08.20.863,premup-three_ses-01_part-01_label-phase1,3.2.4,Win32,60,right,1.280999899,4,0,4,0,1,3,1,0,240,9,1,239,,,,,,,,,,,,,,,,,,
,,1,70,,,,,,,2,4,1,stim/41.jpeg,HouseObjects,1,stim/objects/HouseObjects/ashtray2.png,0.7,4,0.2,-0.15,left,10,2021-01-07_19h08.20.863,premup-three_ses-01_part-01_label-phase1,3.2.4,Win32,60,left,1.113999844,4,0,4,0,1,3,1,0,240,144,1,239,,,,,,,,,,,,,,,,,,
,,1,71,,,,,,,1,1,2,stim/12.jpeg,HouseObjects,1,stim/objects/HouseObjects/ballofstring.png,0.5,2,0.2,0.15,left,10,2021-01-07_19h08.20.863,premup-three_ses-01_part-01_label-phase1,3.2.4,Win32,60,left,1.629999876,4,0,4,0,1,3,1,0,240,1,1,239,,,,,,,,,,,,,,,,,,
,,1,72,,,,,,,3,6,4,stim/64.jpeg,HouseObjects,1,stim/objects/HouseObjects/clothespin2.png,0.9,4,0.2,-0.15,left,10,2021-01-07_19h08.20.863,premup-three_ses-01_part-01_label-phase1,3.2.4,Win32,60,left,0.606000185,4,0,4,0,1,3,1,0,240,227,1,239,,,,,,,,,,,,,,,,,,
,,1,73,,,,,,,3,5,4,stim/54.jpeg,Instruments,2,stim/objects/Instruments/chime2.png,0.9,2,0.2,0.15,right,10,2021-01-07_19h08.20.863,premup-three_ses-01_part-01_label-phase1,3.2.4,Win32,60,right,1.346999884,4,0,4,0,1,3,1,0,240,171,1,239,,,,,,,,,,,,,,,,,,
,,1,74,,,,,,,2,4,4,stim/44.jpeg,HouseObjects,1,stim/objects/HouseObjects/basket2.png,0.7,1,-0.2,0.15,left,10,2021-01-07_19h08.20.863,premup-three_ses-01_part-01_label-phase1,3.2.4,Win32,60,left,0.894999981,4,0,4,0,1,3,1,0,240,123,1,239,,,,,,,,,,,,,,,,,,
,,1,75,,,,,,,2,4,1,stim/41.jpeg,HouseObjects,1,stim/objects/HouseObjects/ashtray2.png,0.7,2,0.2,0.15,left,10,2021-01-07_19h08.20.863,premup-three_ses-01_part-01_label-phase1,3.2.4,Win32,60,left,0.568000078,4,0,4,0,1,3,1,0,240,124,1,239,,,,,,,,,,,,,,,,,,
,,0,76,,,,,,,1,1,2,stim/12.jpeg,Instruments,2,stim/objects/Instruments/acousticguitar.png,0.5,3,-0.2,-0.15,right,10,2021-01-07_19h08.20.863,premup-three_ses-01_part-01_label-phase1,3.2.4,Win32,60,left,0.879999876,4,0,4,0,1,3,1,0,240,29,1,239,,,,,,,,,,,,,,,,,,
,,1,77,,,,,,,3,6,3,stim/63.jpeg,HouseObjects,1,stim/objects/HouseObjects/clothesdryingrack2.png,0.9,4,0.2,-0.15,left,10,2021-01-07_19h08.20.863,premup-three_ses-01_part-01_label-phase1,3.2.4,Win32,60,left,0.680999994,4,0,4,0,1,3,1,0,240,222,1,239,,,,,,,,,,,,,,,,,,
,,0,78,,,,,,,1,2,3,stim/23.jpeg,Instruments,2,stim/objects/Instruments/cello.png,0.5,3,-0.2,-0.15,right,10,2021-01-07_19h08.20.863,premup-three_ses-01_part-01_label-phase1,3.2.4,Win32,60,left,0.583999872,4,0,4,0,1,3,1,0,240,66,1,239,,,,,,,,,,,,,,,,,,
,,1,79,,,,,,,3,5,2,stim/52.jpeg,Instruments,2,stim/objects/Instruments/bassguitar2.png,0.9,2,0.2,0.15,right,10,2021-01-07_19h08.20.863,premup-three_ses-01_part-01_label-phase1,3.2.4,Win32,60,right,0.736000061,4,0,4,0,1,3,1,0,240,197,1,239,,,,,,,,,,,,,,,,,,
,,0,80,,,,,,,1,2,4,stim/24.jpeg,Instruments,2,stim/objects/Instruments/chime.png,0.5,4,0.2,-0.15,right,10,2021-01-07_19h08.20.863,premup-three_ses-01_part-01_label-phase1,3.2.4,Win32,60,left,0.720999956,4,0,4,0,1,3,1,0,240,63,1,239,,,,,,,,,,,,,,,,,,
,,1,81,,,,,,,3,5,2,stim/52.jpeg,Instruments,2,stim/objects/Instruments/bassguitar2.png,0.9,1,-0.2,0.15,right,10,2021-01-07_19h08.20.863,premup-three_ses-01_part-01_label-phase1,3.2.4,Win32,60,right,0.660000086,4,0,4,0,1,3,1,0,240,173,1,239,,,,,,,,,,,,,,,,,,
,,0,82,,,,,,,1,2,4,stim/24.jpeg,Instruments,2,stim/objects/Instruments/chime.png,0.5,1,-0.2,0.15,right,10,2021-01-07_19h08.20.863,premup-three_ses-01_part-01_label-phase1,3.2.4,Win32,60,left,0.740999937,4,0,4,0,1,3,1,0,240,71,1,239,,,,,,,,,,,,,,,,,,
,,0,83,,,,,,,2,3,4,stim/34.jpeg,HouseObjects,1,stim/objects/HouseObjects/clothespin.png,0.3,4,0.2,-0.15,left,10,2021-01-07_19h08.20.863,premup-three_ses-01_part-01_label-phase1,3.2.4,Win32,60,right,1.381999969,4,0,4,0,1,3,1,0,240,91,1,239,,,,,,,,,,,,,,,,,,
,,1,84,,,,,,,2,4,2,stim/42.jpeg,HouseObjects,1,stim/objects/HouseObjects/ballofstring2.png,0.7,2,0.2,0.15,left,10,2021-01-07_19h08.20.863,premup-three_ses-01_part-01_label-phase1,3.2.4,Win32,60,left,0.736000061,4,0,4,0,1,3,1,0,240,137,1,239,,,,,,,,,,,,,,,,,,
,,0,85,,,,,,,3,5,4,stim/54.jpeg,Instruments,2,stim/objects/Instruments/chime2.png,0.9,2,0.2,0.15,right,10,2021-01-07_19h08.20.863,premup-three_ses-01_part-01_label-phase1,3.2.4,Win32,60,left,1.587000132,4,0,4,0,1,3,1,0,240,191,1,239,,,,,,,,,,,,,,,,,,
,,1,86,,,,,,,2,3,1,stim/31.jpeg,Instruments,2,stim/objects/Instruments/clarinet.png,0.7,4,0.2,-0.15,right,10,2021-01-07_19h08.20.863,premup-three_ses-01_part-01_label-phase1,3.2.4,Win32,60,right,0.950999975,4,0,4,0,1,3,1,0,240,108,1,239,,,,,,,,,,,,,,,,,,
,,1,87,,,,,,,3,6,1,stim/61.jpeg,HouseObjects,1,stim/objects/HouseObjects/bucket2.png,0.9,2,0.2,0.15,left,10,2021-01-07_19h08.20.863,premup-three_ses-01_part-01_label-phase1,3.2.4,Win32,60,left,0.733999968,4,0,4,0,1,3,1,0,240,224,1,239,,,,,,,,,,,,,,,,,,
,,1,88,,,,,,,3,5,2,stim/52.jpeg,Instruments,2,stim/objects/Instruments/bassguitar2.png,0.9,1,-0.2,0.15,right,10,2021-01-07_19h08.20.863,premup-three_ses-01_part-01_label-phase1,3.2.4,Win32,60,right,1.006000042,4,0,4,0,1,3,1,0,240,181,1,239,,,,,,,,,,,,,,,,,,
,,1,89,,,,,,,2,3,3,stim/33.jpeg,Instruments,2,stim/objects/Instruments/cymbal.png,0.7,3,-0.2,-0.15,right,10,2021-01-07_19h08.20.863,premup-three_ses-01_part-01_label-phase1,3.2.4,Win32,60,right,1.126999855,4,0,4,0,1,3,1,0,240,102,1,239,,,,,,,,,,,,,,,,,,
,,0,90,,,,,,,1,1,4,stim/14.jpeg,HouseObjects,1,stim/objects/HouseObjects/basket.png,0.5,3,-0.2,-0.15,left,10,2021-01-07_19h08.20.863,premup-three_ses-01_part-01_label-phase1,3.2.4,Win32,60,right,1.242000103,4,0,4,0,1,3,1,0,240,11,1,239,,,,,,,,,,,,,,,,,,
,,1,91,,,,,,,1,1,1,stim/11.jpeg,HouseObjects,1,stim/objects/HouseObjects/ashtray.png,0.5,4,0.2,-0.15,left,10,2021-01-07_19h08.20.863,premup-three_ses-01_part-01_label-phase1,3.2.4,Win32,60,left,0.812000036,4,0,4,0,1,3,1,0,240,16,1,239,,,,,,,,,,,,,,,,,,
,,0,92,,,,,,,1,2,4,stim/24.jpeg,Instruments,2,stim/objects/Instruments/chime.png,0.5,1,-0.2,0.15,right,10,2021-01-07_19h08.20.863,premup-three_ses-01_part-01_label-phase1,3.2.4,Win32,60,left,0.765999794,4,0,4,0,1,3,1,0,240,75,1,239,,,,,,,,,,,,,,,,,,
,,1,93,,,,,,,2,3,4,stim/34.jpeg,Instruments,2,stim/objects/Instruments/doublebass.png,0.7,4,0.2,-0.15,right,10,2021-01-07_19h08.20.863,premup-three_ses-01_part-01_label-phase1,3.2.4,Win32,60,right,0.868000031,4,0,4,0,1,3,1,0,240,115,1,239,,,,,,,,,,,,,,,,,,
,,0,94,,,,,,,3,6,2,stim/62.jpeg,Instruments,2,stim/objects/Instruments/cornet2.png,0.1,1,-0.2,0.15,right,10,2021-01-07_19h08.20.863,premup-three_ses-01_part-01_label-phase1,3.2.4,Win32,60,left,0.799000025,4,0,4,0,1,3,1,0,240,237,1,239,,,,,,,,,,,,,,,,,,
,,1,95,,,,,,,1,2,2,stim/22.jpeg,HouseObjects,1,stim/objects/HouseObjects/blender.png,0.5,3,-0.2,-0.15,left,10,2021-01-07_19h08.20.863,premup-three_ses-01_part-01_label-phase1,3.2.4,Win32,60,left,0.884000063,4,0,4,0,1,3,1,0,240,41,1,239,,,,,,,,,,,,,,,,,,
,,0,96,,,,,,,1,2,2,stim/22.jpeg,Instruments,2,stim/objects/Instruments/bassguitar.png,0.5,1,-0.2,0.15,right,10,2021-01-07_19h08.20.863,premup-three_ses-01_part-01_label-phase1,3.2.4,Win32,60,left,0.467000008,4,0,4,0,1,3,1,0,240,77,1,239,,,,,,,,,,,,,,,,,,
,,0,97,,,,,,,3,5,3,stim/53.jpeg,HouseObjects,1,stim/objects/HouseObjects/bottle2.png,0.1,2,0.2,0.15,left,10,2021-01-07_19h08.20.863,premup-three_ses-01_part-01_label-phase1,3.2.4,Win32,60,right,0.687000036,4,0,4,0,1,3,1,0,240,162,1,239,,,,,,,,,,,,,,,,,,
,,1,98,,,,,,,2,3,4,stim/34.jpeg,Instruments,2,stim/objects/Instruments/doublebass.png,0.7,3,-0.2,-0.15,right,10,2021-01-07_19h08.20.863,premup-three_ses-01_part-01_label-phase1,3.2.4,Win32,60,right,0.709000111,4,0,4,0,1,3,1,0,240,107,1,239,,,,,,,,,,,,,,,,,,
,,1,99,,,,,,,3,5,4,stim/54.jpeg,Instruments,2,stim/objects/Instruments/chime2.png,0.9,4,0.2,-0.15,right,10,2021-01-07_19h08.20.863,premup-three_ses-01_part-01_label-phase1,3.2.4,Win32,60,right,0.755999804,4,0,4,0,1,3,1,0,240,167,1,239,,,,,,,,,,,,,,,,,,
,,0,100,,,,,,,1,2,4,stim/24.jpeg,Instruments,2,stim/objects/Instruments/chime.png,0.5,1,-0.2,0.15,right,10,2021-01-07_19h08.20.863,premup-three_ses-01_part-01_label-phase1,3.2.4,Win32,60,left,1.164999962,4,0,4,0,1,3,1,0,240,79,1,239,,,,,,,,,,,,,,,,,,
,,0,101,,,,,,,1,1,4,stim/14.jpeg,Instruments,2,stim/objects/Instruments/banjo.png,0.5,1,-0.2,0.15,right,10,2021-01-07_19h08.20.863,premup-three_ses-01_part-01_label-phase1,3.2.4,Win32,60,left,0.732999802,4,0,4,0,1,3,1,0,240,23,1,239,,,,,,,,,,,,,,,,,,
,,1,102,,,,,,,2,4,4,stim/44.jpeg,HouseObjects,1,stim/objects/HouseObjects/basket2.png,0.7,3,-0.2,-0.15,left,10,2021-01-07_19h08.20.863,premup-three_ses-01_part-01_label-phase1,3.2.4,Win32,60,left,0.664999962,4,0,4,0,1,3,1,0,240,131,1,239,,,,,,,,,,,,,,,,,,
,,1,103,,,,,,,3,6,2,stim/62.jpeg,HouseObjects,1,stim/objects/HouseObjects/clock2.png,0.9,1,-0.2,0.15,left,10,2021-01-07_19h08.20.863,premup-three_ses-01_part-01_label-phase1,3.2.4,Win32,60,left,0.721999884,4,0,4,0,1,3,1,0,240,233,1,239,,,,,,,,,,,,,,,,,,
,,1,104,,,,,,,3,5,2,stim/52.jpeg,Instruments,2,stim/objects/Instruments/bassguitar2.png,0.9,3,-0.2,-0.15,right,10,2021-01-07_19h08.20.863,premup-three_ses-01_part-01_label-phase1,3.2.4,Win32,60,right,0.620999813,4,0,4,0,1,3,1,0,240,185,1,239,,,,,,,,,,,,,,,,,,
,,1,105,,,,,,,1,1,1,stim/11.jpeg,Instruments,2,stim/objects/Instruments/accordion.png,0.5,3,-0.2,-0.15,right,10,2021-01-07_19h08.20.863,premup-three_ses-01_part-01_label-phase1,3.2.4,Win32,60,right,1.164000034,4,0,4,0,1,3,1,0,240,20,1,239,,,,,,,,,,,,,,,,,,
,,1,106,,,,,,,2,4,1,stim/41.jpeg,HouseObjects,1,stim/objects/HouseObjects/ashtray2.png,0.7,4,0.2,-0.15,left,10,2021-01-07_19h08.20.863,premup-three_ses-01_part-01_label-phase1,3.2.4,Win32,60,left,0.694999933,4,0,4,0,1,3,1,0,240,128,1,239,,,,,,,,,,,,,,,,,,
,,0,107,,,,,,,3,5,1,stim/51.jpeg,HouseObjects,1,stim/objects/HouseObjects/bleachbottle2.png,0.1,1,-0.2,0.15,left,10,2021-01-07_19h08.20.863,premup-three_ses-01_part-01_label-phase1,3.2.4,Win32,60,right,0.616999865,4,0,4,0,1,3,1,0,240,160,1,239,,,,,,,,,,,,,,,,,,
,,1,108,,,,,,,2,4,2,stim/42.jpeg,HouseObjects,1,stim/objects/HouseObjects/ballofstring2.png,0.7,4,0.2,-0.15,left,10,2021-01-07_19h08.20.863,premup-three_ses-01_part-01_label-phase1,3.2.4,Win32,60,left,0.736999989,4,0,4,0,1,3,1,0,240,125,1,239,,,,,,,,,,,,,,,,,,
,,1,109,,,,,,,3,6,1,stim/61.jpeg,HouseObjects,1,stim/objects/HouseObjects/bucket2.png,0.9,2,0.2,0.15,left,10,2021-01-07_19h08.20.863,premup-three_ses-01_part-01_label-phase1,3.2.4,Win32,60,left,0.627000093,4,0,4,0,1,3,1,0,240,212,1,239,,,,,,,,,,,,,,,,,,
,,1,110,,,,,,,1,2,4,stim/24.jpeg,HouseObjects,1,stim/objects/HouseObjects/broom.png,0.5,4,0.2,-0.15,left,10,2021-01-07_19h08.20.863,premup-three_ses-01_part-01_label-phase1,3.2.4,Win32,60,left,0.618999958,4,0,4,0,1,3,1,0,240,55,1,239,,,,,,,,,,,,,,,,,,
,,1,111,,,,,,,2,4,1,stim/41.jpeg,HouseObjects,1,stim/objects/HouseObjects/ashtray2.png,0.7,2,0.2,0.15,left,10,2021-01-07_19h08.20.863,premup-three_ses-01_part-01_label-phase1,3.2.4,Win32,60,left,0.588000059,4,0,4,0,1,3,1,0,240,120,1,239,,,,,,,,,,,,,,,,,,
,,1,112,,,,,,,3,5,2,stim/52.jpeg,Instruments,2,stim/objects/Instruments/bassguitar2.png,0.9,4,0.2,-0.15,right,10,2021-01-07_19h08.20.863,premup-three_ses-01_part-01_label-phase1,3.2.4,Win32,60,right,0.694999933,4,0,4,0,1,3,1,0,240,165,1,239,,,,,,,,,,,,,,,,,,
,,0,113,,,,,,,1,2,2,stim/22.jpeg,Instruments,2,stim/objects/Instruments/bassguitar.png,0.5,1,-0.2,0.15,right,10,2021-01-07_19h08.20.863,premup-three_ses-01_part-01_label-phase1,3.2.4,Win32,60,left,0.676000118,4,0,4,0,1,3,1,0,240,65,1,239,,,,,,,,,,,,,,,,,,
,,0,114,,,,,,,2,3,2,stim/32.jpeg,HouseObjects,1,stim/objects/HouseObjects/clock.png,0.3,4,0.2,-0.15,left,10,2021-01-07_19h08.20.863,premup-three_ses-01_part-01_label-phase1,3.2.4,Win32,60,right,0.881000042,4,0,4,0,1,3,1,0,240,89,1,239,,,,,,,,,,,,,,,,,,
,,0,115,,,,,,,1,2,1,stim/21.jpeg,Instruments,2,stim/objects/Instruments/bassdrum.png,0.5,4,0.2,-0.15,right,10,2021-01-07_19h08.20.863,premup-three_ses-01_part-01_label-phase1,3.2.4,Win32,60,left,0.617000103,4,0,4,0,1,3,1,0,240,68,1,239,,,,,,,,,,,,,,,,,,
,,0,116,,,,,,,2,4,4,stim/44.jpeg,Instruments,2,stim/objects/Instruments/banjo2.png,0.3,3,-0.2,-0.15,right,10,2021-01-07_19h08.20.863,premup-three_ses-01_part-01_label-phase1,3.2.4,Win32,60,left,0.700999975,4,0,4,0,1,3,1,0,240,155,1,239,,,,,,,,,,,,,,,,,,
,,1,117,,,,,,,1,2,1,stim/21.jpeg,HouseObjects,1,stim/objects/HouseObjects/bleachbottle.png,0.5,1,-0.2,0.15,left,10,2021-01-07_19h08.20.863,premup-three_ses-01_part-01_label-phase1,3.2.4,Win32,60,left,0.534000158,4,0,4,0,1,3,1,0,240,40,1,239,,,,,,,,,,,,,,,,,,
,,1,118,,,,,,,3,5,1,stim/51.jpeg,Instruments,2,stim/objects/Instruments/bassdrum2.png,0.9,1,-0.2,0.15,right,10,2021-01-07_19h08.20.863,premup-three_ses-01_part-01_label-phase1,3.2.4,Win32,60,right,0.662000179,4,0,4,0,1,3,1,0,240,168,1,239,,,,,,,,,,,,,,,,,,
,,1,119,,,,,,,3,5,3,stim/53.jpeg,Instruments,2,stim/objects/Instruments/cello2.png,0.9,2,0.2,0.15,right,10,2021-01-07_19h08.20.863,premup-three_ses-01_part-01_label-phase1,3.2.4,Win32,60,right,0.491999865,4,0,4,0,1,3,1,0,240,170,1,239,,,,,,,,,,,,,,,,,,
,,0,120,,,,,,,1,1,3,stim/13.jpeg,Instruments,2,stim/objects/Instruments/balalaika.png,0.5,4,0.2,-0.15,right,10,2021-01-07_19h08.20.863,premup-three_ses-01_part-01_label-phase1,3.2.4,Win32,60,left,1.421000004,4,0,4,0,1,3,1,0,240,26,1,239,,,,,,,,,,,,,,,,,,
,,1,121,,,,,,,1,2,2,stim/22.jpeg,HouseObjects,1,stim/objects/HouseObjects/blender.png,0.5,4,0.2,-0.15,left,10,2021-01-07_19h08.20.863,premup-three_ses-01_part-01_label-phase1,3.2.4,Win32,60,left,0.90199995,4,0,4,0,1,3,1,0,240,53,1,239,,,,,,,,,,,,,,,,,,
,,1,122,,,,,,,3,5,1,stim/51.jpeg,Instruments,2,stim/objects/Instruments/bassdrum2.png,0.9,4,0.2,-0.15,right,10,2021-01-07_19h08.20.863,premup-three_ses-01_part-01_label-phase1,3.2.4,Win32,60,right,0.729000092,4,0,4,0,1,3,1,0,240,164,1,239,,,,,,,,,,,,,,,,,,
,,1,123,,,,,,,3,5,4,stim/54.jpeg,Instruments,2,stim/objects/Instruments/chime2.png,0.9,3,-0.2,-0.15,right,10,2021-01-07_19h08.20.863,premup-three_ses-01_part-01_label-phase1,3.2.4,Win32,60,right,0.55700016,4,0,4,0,1,3,1,0,240,199,1,239,,,,,,,,,,,,,,,,,,
,,1,124,,,,,,,3,5,4,stim/54.jpeg,Instruments,2,stim/objects/Instruments/chime2.png,0.9,3,-0.2,-0.15,right,10,2021-01-07_19h08.20.863,premup-three_ses-01_part-01_label-phase1,3.2.4,Win32,60,right,0.495000124,4,0,4,0,1,3,1,0,240,183,1,239,,,,,,,,,,,,,,,,,,
,,0,125,,,,,,,3,6,1,stim/61.jpeg,Instruments,2,stim/objects/Instruments/clarinet2.png,0.1,4,0.2,-0.15,right,10,2021-01-07_19h08.20.863,premup-three_ses-01_part-01_label-phase1,3.2.4,Win32,60,left,0.593000174,4,0,4,0,1,3,1,0,240,236,1,239,,,,,,,,,,,,,,,,,,
,,0,126,,,,,,,1,1,4,stim/14.jpeg,Instruments,2,stim/objects/Instruments/banjo.png,0.5,3,-0.2,-0.15,right,10,2021-01-07_19h08.20.863,premup-three_ses-01_part-01_label-phase1,3.2.4,Win32,60,left,0.628999949,4,0,4,0,1,3,1,0,240,31,1,239,,,,,,,,,,,,,,,,,,
,,1,127,,,,,,,3,5,1,stim/51.jpeg,Instruments,2,stim/objects/Instruments/bassdrum2.png,0.9,1,-0.2,0.15,right,10,2021-01-07_19h08.20.863,premup-three_ses-01_part-01_label-phase1,3.2.4,Win32,60,right,0.684000015,4,0,4,0,1,3,1,0,240,172,1,239,,,,,,,,,,,,,,,,,,
,,0,128,,,,,,,1,1,1,stim/11.jpeg,HouseObjects,1,stim/objects/HouseObjects/ashtray.png,0.5,2,0.2,0.15,left,10,2021-01-07_19h08.20.863,premup-three_ses-01_part-01_label-phase1,3.2.4,Win32,60,right,1.016000032,4,0,4,0,1,3,1,0,240,8,1,239,,,,,,,,,,,,,,,,,,
,,0,129,,,,,,,1,2,1,stim/21.jpeg,Instruments,2,stim/objects/Instruments/bassdrum.png,0.5,2,0.2,0.15,right,10,2021-01-07_19h08.20.863,premup-three_ses-01_part-01_label-phase1,3.2.4,Win32,60,left,0.687000036,4,0,4,0,1,3,1,0,240,72,1,239,,,,,,,,,,,,,,,,,,
,,1,130,,,,,,,2,4,1,stim/41.jpeg,HouseObjects,1,stim/objects/HouseObjects/ashtray2.png,0.7,2,0.2,0.15,left,10,2021-01-07_19h08.20.863,premup-three_ses-01_part-01_label-phase1,3.2.4,Win32,60,left,0.917999983,4,0,4,0,1,3,1,0,240,136,1,239,,,,,,,,,,,,,,,,,,
,,1,131,,,,,,,3,5,2,stim/52.jpeg,Instruments,2,stim/objects/Instruments/bassguitar2.png,0.9,3,-0.2,-0.15,right,10,2021-01-07_19h08.20.863,premup-three_ses-01_part-01_label-phase1,3.2.4,Win32,60,right,0.991000175,4,0,4,0,1,3,1,0,240,193,1,239,,,,,,,,,,,,,,,,,,
,,1,132,,,,,,,2,4,4,stim/44.jpeg,HouseObjects,1,stim/objects/HouseObjects/basket2.png,0.7,3,-0.2,-0.15,left,10,2021-01-07_19h08.20.863,premup-three_ses-01_part-01_label-phase1,3.2.4,Win32,60,left,1.375999928,4,0,4,0,1,3,1,0,240,127,1,239,,,,,,,,,,,,,,,,,,
