key_resp_trial.keys,key_resp_trial.rt,trial_acc,trial_index,iterations.thisRepN,iterations.thisTrialN,iterations.thisN,iterations.thisIndex,iterations.ran,iterations.order,task_innerloop.thisRepN,task_innerloop.thisTrialN,task_innerloop.thisN,task_innerloop.thisIndex,task_innerloop.ran,task_innerloop.order,scn_condition,scn_cat,scn_inst,scn_file,obj_cat,obj_cat_num,obj_file,trial_cond,quadrant,obj_x,obj_y,corr_ans,participant,date,expName,psychopyVersion,OS,frameRate,slider.response,slider.rt,slider_2.response,slider_2.rt,ratings.thisRepN,ratings.thisTrialN,ratings.thisN,ratings.thisIndex,ratings.ran,ratings.order,obj_cat_top,min_resp_top,max_resp_top,obj_cat_bottom,min_resp_bottom,max_resp_bottom,enc_trials.thisRepN,enc_trials.thisTrialN,enc_trials.thisN,enc_trials.thisIndex,enc_trials.ran,enc_trials.order,fillers,ratings_final.thisRepN,ratings_final.thisTrialN,ratings_final.thisN,ratings_final.thisIndex,ratings_final.ran,ratings_final.order
,,0,1,1,0,1,0,1,0,1,0,240,3,1,239,1,5,4,stim/54.jpeg,HouseObjects,1,stim/objects/HouseObjects/knife.png,0.5,4,0.2,-0.15,left,12,2020-12-17_17h05.47.820,premup-three_ses-02_part-02_label-phase2,3.2.4,Win32,60,,,,,,,,,,,,,,,,,,,,,,,,,,,,,
,,0,2,1,0,1,0,1,0,1,0,240,83,1,239,2,1,4,stim/14.jpeg,HouseObjects,1,stim/objects/HouseObjects/rug.png,0.3,4,0.2,-0.15,left,12,2020-12-17_17h05.47.820,premup-three_ses-02_part-02_label-phase2,3.2.4,Win32,60,,,,,,,,,,,,,,,,,,,,,,,,,,,,,
,,0,3,1,0,1,0,1,0,1,0,240,153,1,239,2,2,2,stim/22.jpeg,Instruments,2,stim/objects/Instruments/laud2.png,0.3,3,-0.2,-0.15,right,12,2020-12-17_17h05.47.820,premup-three_ses-02_part-02_label-phase2,3.2.4,Win32,60,,,,,,,,,,,,,,,,,,,,,,,,,,,,,
left,0.703000069,1,4,1,0,1,0,1,0,1,0,240,218,1,239,3,4,3,stim/43.jpeg,HouseObjects,1,stim/objects/HouseObjects/rubbergloves2.png,0.9,2,0.2,0.15,left,12,2020-12-17_17h05.47.820,premup-three_ses-02_part-02_label-phase2,3.2.4,Win32,60,,,,,,,,,,,,,,,,,,,,,,,,,,,,,
left,0.704999924,1,5,1,0,1,0,1,0,1,0,240,136,1,239,2,2,1,stim/21.jpeg,HouseObjects,1,stim/objects/HouseObjects/iron2.png,0.7,1,-0.2,0.15,left,12,2020-12-17_17h05.47.820,premup-three_ses-02_part-02_label-phase2,3.2.4,Win32,60,,,,,,,,,,,,,,,,,,,,,,,,,,,,,
right,0.724999905,1,6,1,0,1,0,1,0,1,0,240,184,1,239,3,3,1,stim/31.jpeg,Instruments,2,stim/objects/Instruments/metronome2.png,0.9,3,-0.2,-0.15,right,12,2020-12-17_17h05.47.820,premup-three_ses-02_part-02_label-phase2,3.2.4,Win32,60,,,,,,,,,,,,,,,,,,,,,,,,,,,,,
left,0.628000021,1,7,1,0,1,0,1,0,1,0,240,121,1,239,2,2,2,stim/22.jpeg,HouseObjects,1,stim/objects/HouseObjects/ironingboard2.png,0.7,3,-0.2,-0.15,left,12,2020-12-17_17h05.47.820,premup-three_ses-02_part-02_label-phase2,3.2.4,Win32,60,,,,,,,,,,,,,,,,,,,,,,,,,,,,,
right,0.855000019,1,8,1,0,1,0,1,0,1,0,240,187,1,239,3,3,4,stim/34.jpeg,Instruments,2,stim/objects/Instruments/oboe2.png,0.9,2,0.2,0.15,right,12,2020-12-17_17h05.47.820,premup-three_ses-02_part-02_label-phase2,3.2.4,Win32,60,,,,,,,,,,,,,,,,,,,,,,,,,,,,,
left,0.835999966,1,9,1,0,1,0,1,0,1,0,240,127,1,239,2,2,4,stim/24.jpeg,HouseObjects,1,stim/objects/HouseObjects/knife2.png,0.7,4,0.2,-0.15,left,12,2020-12-17_17h05.47.820,premup-three_ses-02_part-02_label-phase2,3.2.4,Win32,60,,,,,,,,,,,,,,,,,,,,,,,,,,,,,
left,0.724999905,0,10,1,0,1,0,1,0,1,0,240,157,1,239,2,2,2,stim/22.jpeg,Instruments,2,stim/objects/Instruments/laud2.png,0.3,4,0.2,-0.15,right,12,2020-12-17_17h05.47.820,premup-three_ses-02_part-02_label-phase2,3.2.4,Win32,60,,,,,,,,,,,,,,,,,,,,,,,,,,,,,
right,0.794000149,1,11,1,0,1,0,1,0,1,0,240,108,1,239,2,1,1,stim/11.jpeg,Instruments,2,stim/objects/Instruments/panflute.png,0.7,1,-0.2,0.15,right,12,2020-12-17_17h05.47.820,premup-three_ses-02_part-02_label-phase2,3.2.4,Win32,60,,,,,,,,,,,,,,,,,,,,,,,,,,,,,
left,0.687999964,1,12,1,0,1,0,1,0,1,0,240,211,1,239,3,4,4,stim/44.jpeg,HouseObjects,1,stim/objects/HouseObjects/rug2.png,0.9,4,0.2,-0.15,left,12,2020-12-17_17h05.47.820,premup-three_ses-02_part-02_label-phase2,3.2.4,Win32,60,,,,,,,,,,,,,,,,,,,,,,,,,,,,,
,,0,13,1,0,1,0,1,0,1,0,240,64,1,239,1,6,1,stim/61.jpeg,Instruments,2,stim/objects/Instruments/metronome.png,0.5,2,0.2,0.15,right,12,2020-12-17_17h05.47.820,premup-three_ses-02_part-02_label-phase2,3.2.4,Win32,60,,,,,,,,,,,,,,,,,,,,,,,,,,,,,
,,0,14,1,0,1,0,1,0,1,0,240,155,1,239,2,2,4,stim/24.jpeg,Instruments,2,stim/objects/Instruments/marimba2.png,0.3,2,0.2,0.15,right,12,2020-12-17_17h05.47.820,premup-three_ses-02_part-02_label-phase2,3.2.4,Win32,60,,,,,,,,,,,,,,,,,,,,,,,,,,,,,
right,0.655999899,1,15,1,0,1,0,1,0,1,0,240,107,1,239,2,1,4,stim/14.jpeg,Instruments,2,stim/objects/Instruments/record_player.png,0.7,2,0.2,0.15,right,12,2020-12-17_17h05.47.820,premup-three_ses-02_part-02_label-phase2,3.2.4,Win32,60,,,,,,,,,,,,,,,,,,,,,,,,,,,,,
right,0.707000017,1,16,1,0,1,0,1,0,1,0,240,119,1,239,2,1,4,stim/14.jpeg,Instruments,2,stim/objects/Instruments/record_player.png,0.7,4,0.2,-0.15,right,12,2020-12-17_17h05.47.820,premup-three_ses-02_part-02_label-phase2,3.2.4,Win32,60,,,,,,,,,,,,,,,,,,,,,,,,,,,,,
left,0.68200016,1,17,1,0,1,0,1,0,1,0,240,202,1,239,3,4,3,stim/43.jpeg,HouseObjects,1,stim/objects/HouseObjects/rubbergloves2.png,0.9,4,0.2,-0.15,left,12,2020-12-17_17h05.47.820,premup-three_ses-02_part-02_label-phase2,3.2.4,Win32,60,,,,,,,,,,,,,,,,,,,,,,,,,,,,,
right,0.822999954,1,18,1,0,1,0,1,0,1,0,240,60,1,239,1,6,1,stim/61.jpeg,Instruments,2,stim/objects/Instruments/metronome.png,0.5,2,0.2,0.15,right,12,2020-12-17_17h05.47.820,premup-three_ses-02_part-02_label-phase2,3.2.4,Win32,60,,,,,,,,,,,,,,,,,,,,,,,,,,,,,
right,0.782999992,1,19,1,0,1,0,1,0,1,0,240,183,1,239,3,3,4,stim/34.jpeg,Instruments,2,stim/objects/Instruments/oboe2.png,0.9,1,-0.2,0.15,right,12,2020-12-17_17h05.47.820,premup-three_ses-02_part-02_label-phase2,3.2.4,Win32,60,,,,,,,,,,,,,,,,,,,,,,,,,,,,,
right,0.907999992,1,20,1,0,1,0,1,0,1,0,240,96,1,239,2,1,1,stim/11.jpeg,Instruments,2,stim/objects/Instruments/panflute.png,0.7,2,0.2,0.15,right,12,2020-12-17_17h05.47.820,premup-three_ses-02_part-02_label-phase2,3.2.4,Win32,60,,,,,,,,,,,,,,,,,,,,,,,,,,,,,
left,0.737999916,0,21,1,0,1,0,1,0,1,0,240,110,1,239,2,1,3,stim/13.jpeg,Instruments,2,stim/objects/Instruments/record.png,0.7,4,0.2,-0.15,right,12,2020-12-17_17h05.47.820,premup-three_ses-02_part-02_label-phase2,3.2.4,Win32,60,,,,,,,,,,,,,,,,,,,,,,,,,,,,,
right,0.65199995,1,22,1,0,1,0,1,0,1,0,240,93,1,239,2,1,2,stim/12.jpeg,Instruments,2,stim/objects/Instruments/pipepiano.png,0.7,1,-0.2,0.15,right,12,2020-12-17_17h05.47.820,premup-three_ses-02_part-02_label-phase2,3.2.4,Win32,60,,,,,,,,,,,,,,,,,,,,,,,,,,,,,
right,0.819999933,1,23,1,0,1,0,1,0,1,0,240,75,1,239,1,6,4,stim/64.jpeg,Instruments,2,stim/objects/Instruments/oboe.png,0.5,3,-0.2,-0.15,right,12,2020-12-17_17h05.47.820,premup-three_ses-02_part-02_label-phase2,3.2.4,Win32,60,,,,,,,,,,,,,,,,,,,,,,,,,,,,,
,,0,24,1,0,1,0,1,0,1,0,240,54,1,239,1,6,3,stim/63.jpeg,HouseObjects,1,stim/objects/HouseObjects/pan.png,0.5,3,-0.2,-0.15,left,12,2020-12-17_17h05.47.820,premup-three_ses-02_part-02_label-phase2,3.2.4,Win32,60,,,,,,,,,,,,,,,,,,,,,,,,,,,,,
right,0.657000065,1,25,1,0,1,0,1,0,1,0,240,113,1,239,2,1,2,stim/12.jpeg,Instruments,2,stim/objects/Instruments/pipepiano.png,0.7,1,-0.2,0.15,right,12,2020-12-17_17h05.47.820,premup-three_ses-02_part-02_label-phase2,3.2.4,Win32,60,,,,,,,,,,,,,,,,,,,,,,,,,,,,,
right,0.746000051,1,26,1,0,1,0,1,0,1,0,240,168,1,239,3,3,1,stim/31.jpeg,Instruments,2,stim/objects/Instruments/metronome2.png,0.9,4,0.2,-0.15,right,12,2020-12-17_17h05.47.820,premup-three_ses-02_part-02_label-phase2,3.2.4,Win32,60,,,,,,,,,,,,,,,,,,,,,,,,,,,,,
right,0.72300005,1,27,1,0,1,0,1,0,1,0,240,94,1,239,2,1,3,stim/13.jpeg,Instruments,2,stim/objects/Instruments/record.png,0.7,4,0.2,-0.15,right,12,2020-12-17_17h05.47.820,premup-three_ses-02_part-02_label-phase2,3.2.4,Win32,60,,,,,,,,,,,,,,,,,,,,,,,,,,,,,
left,0.693000078,1,28,1,0,1,0,1,0,1,0,240,217,1,239,3,4,2,stim/42.jpeg,HouseObjects,1,stim/objects/HouseObjects/remote2.png,0.9,4,0.2,-0.15,left,12,2020-12-17_17h05.47.820,premup-three_ses-02_part-02_label-phase2,3.2.4,Win32,60,,,,,,,,,,,,,,,,,,,,,,,,,,,,,
right,0.710999966,1,29,1,0,1,0,1,0,1,0,240,100,1,239,2,1,1,stim/11.jpeg,Instruments,2,stim/objects/Instruments/panflute.png,0.7,3,-0.2,-0.15,right,12,2020-12-17_17h05.47.820,premup-three_ses-02_part-02_label-phase2,3.2.4,Win32,60,,,,,,,,,,,,,,,,,,,,,,,,,,,,,
,,0,30,1,0,1,0,1,0,1,0,240,49,1,239,1,6,2,stim/62.jpeg,HouseObjects,1,stim/objects/HouseObjects/match.png,0.5,1,-0.2,0.15,left,12,2020-12-17_17h05.47.820,premup-three_ses-02_part-02_label-phase2,3.2.4,Win32,60,,,,,,,,,,,,,,,,,,,,,,,,,,,,,
,,0,31,1,0,1,0,1,0,1,0,240,146,1,239,2,2,3,stim/23.jpeg,HouseObjects,1,stim/objects/HouseObjects/key2.png,0.7,2,0.2,0.15,left,12,2020-12-17_17h05.47.820,premup-three_ses-02_part-02_label-phase2,3.2.4,Win32,60,,,,,,,,,,,,,,,,,,,,,,,,,,,,,
right,0.644999981,1,32,1,0,1,0,1,0,1,0,240,193,1,239,3,3,2,stim/32.jpeg,Instruments,2,stim/objects/Instruments/musicsheet2.png,0.9,3,-0.2,-0.15,right,12,2020-12-17_17h05.47.820,premup-three_ses-02_part-02_label-phase2,3.2.4,Win32,60,,,,,,,,,,,,,,,,,,,,,,,,,,,,,
right,0.773999929,0,33,1,0,1,0,1,0,1,0,240,0,1,239,1,5,1,stim/51.jpeg,HouseObjects,1,stim/objects/HouseObjects/iron.png,0.5,3,-0.2,-0.15,left,12,2020-12-17_17h05.47.820,premup-three_ses-02_part-02_label-phase2,3.2.4,Win32,60,,,,,,,,,,,,,,,,,,,,,,,,,,,,,
right,0.703000069,0,34,1,0,1,0,1,0,1,0,240,85,1,239,2,1,2,stim/12.jpeg,HouseObjects,1,stim/objects/HouseObjects/remote.png,0.3,2,0.2,0.15,left,12,2020-12-17_17h05.47.820,premup-three_ses-02_part-02_label-phase2,3.2.4,Win32,60,,,,,,,,,,,,,,,,,,,,,,,,,,,,,
,,0,35,1,0,1,0,1,0,1,0,240,69,1,239,1,6,2,stim/62.jpeg,Instruments,2,stim/objects/Instruments/musicsheet.png,0.5,1,-0.2,0.15,right,12,2020-12-17_17h05.47.820,premup-three_ses-02_part-02_label-phase2,3.2.4,Win32,60,,,,,,,,,,,,,,,,,,,,,,,,,,,,,
right,0.731999874,1,36,1,0,1,0,1,0,1,0,240,165,1,239,3,3,2,stim/32.jpeg,Instruments,2,stim/objects/Instruments/musicsheet2.png,0.9,4,0.2,-0.15,right,12,2020-12-17_17h05.47.820,premup-three_ses-02_part-02_label-phase2,3.2.4,Win32,60,,,,,,,,,,,,,,,,,,,,,,,,,,,,,
left,0.61500001,0,37,1,0,1,0,1,0,1,0,240,151,1,239,2,2,4,stim/24.jpeg,Instruments,2,stim/objects/Instruments/marimba2.png,0.3,3,-0.2,-0.15,right,12,2020-12-17_17h05.47.820,premup-three_ses-02_part-02_label-phase2,3.2.4,Win32,60,,,,,,,,,,,,,,,,,,,,,,,,,,,,,
right,0.633999825,1,38,1,0,1,0,1,0,1,0,240,112,1,239,2,1,1,stim/11.jpeg,Instruments,2,stim/objects/Instruments/panflute.png,0.7,2,0.2,0.15,right,12,2020-12-17_17h05.47.820,premup-three_ses-02_part-02_label-phase2,3.2.4,Win32,60,,,,,,,,,,,,,,,,,,,,,,,,,,,,,
left,0.763000011,1,39,1,0,1,0,1,0,1,0,240,125,1,239,2,2,2,stim/22.jpeg,HouseObjects,1,stim/objects/HouseObjects/ironingboard2.png,0.7,4,0.2,-0.15,left,12,2020-12-17_17h05.47.820,premup-three_ses-02_part-02_label-phase2,3.2.4,Win32,60,,,,,,,,,,,,,,,,,,,,,,,,,,,,,
right,0.606000185,0,40,1,0,1,0,1,0,1,0,240,160,1,239,3,3,1,stim/31.jpeg,HouseObjects,1,stim/objects/HouseObjects/lintroller2.png,0.1,4,0.2,-0.15,left,12,2020-12-17_17h05.47.820,premup-three_ses-02_part-02_label-phase2,3.2.4,Win32,60,,,,,,,,,,,,,,,,,,,,,,,,,,,,,
left,0.61500001,1,41,1,0,1,0,1,0,1,0,240,224,1,239,3,4,1,stim/41.jpeg,HouseObjects,1,stim/objects/HouseObjects/recyclingbin2.png,0.9,1,-0.2,0.15,left,12,2020-12-17_17h05.47.820,premup-three_ses-02_part-02_label-phase2,3.2.4,Win32,60,,,,,,,,,,,,,,,,,,,,,,,,,,,,,
left,0.623999834,1,42,1,0,1,0,1,0,1,0,240,201,1,239,3,4,2,stim/42.jpeg,HouseObjects,1,stim/objects/HouseObjects/remote2.png,0.9,1,-0.2,0.15,left,12,2020-12-17_17h05.47.820,premup-three_ses-02_part-02_label-phase2,3.2.4,Win32,60,,,,,,,,,,,,,,,,,,,,,,,,,,,,,
right,0.656999826,0,43,1,0,1,0,1,0,1,0,240,161,1,239,3,3,2,stim/32.jpeg,HouseObjects,1,stim/objects/HouseObjects/match2.png,0.1,4,0.2,-0.15,left,12,2020-12-17_17h05.47.820,premup-three_ses-02_part-02_label-phase2,3.2.4,Win32,60,,,,,,,,,,,,,,,,,,,,,,,,,,,,,
,,0,44,1,0,1,0,1,0,1,0,240,90,1,239,2,1,3,stim/13.jpeg,HouseObjects,1,stim/objects/HouseObjects/rubbergloves.png,0.3,1,-0.2,0.15,left,12,2020-12-17_17h05.47.820,premup-three_ses-02_part-02_label-phase2,3.2.4,Win32,60,,,,,,,,,,,,,,,,,,,,,,,,,,,,,
left,0.769000053,1,45,1,0,1,0,1,0,1,0,240,145,1,239,2,2,2,stim/22.jpeg,HouseObjects,1,stim/objects/HouseObjects/ironingboard2.png,0.7,3,-0.2,-0.15,left,12,2020-12-17_17h05.47.820,premup-three_ses-02_part-02_label-phase2,3.2.4,Win32,60,,,,,,,,,,,,,,,,,,,,,,,,,,,,,
right,0.520999908,0,46,1,0,1,0,1,0,1,0,240,87,1,239,2,1,4,stim/14.jpeg,HouseObjects,1,stim/objects/HouseObjects/rug.png,0.3,2,0.2,0.15,left,12,2020-12-17_17h05.47.820,premup-three_ses-02_part-02_label-phase2,3.2.4,Win32,60,,,,,,,,,,,,,,,,,,,,,,,,,,,,,
right,0.870999813,1,47,1,0,1,0,1,0,1,0,240,199,1,239,3,3,4,stim/34.jpeg,Instruments,2,stim/objects/Instruments/oboe2.png,0.9,1,-0.2,0.15,right,12,2020-12-17_17h05.47.820,premup-three_ses-02_part-02_label-phase2,3.2.4,Win32,60,,,,,,,,,,,,,,,,,,,,,,,,,,,,,
right,0.898000002,0,48,1,0,1,0,1,0,1,0,240,44,1,239,1,6,1,stim/61.jpeg,HouseObjects,1,stim/objects/HouseObjects/lintroller.png,0.5,4,0.2,-0.15,left,12,2020-12-17_17h05.47.820,premup-three_ses-02_part-02_label-phase2,3.2.4,Win32,60,,,,,,,,,,,,,,,,,,,,,,,,,,,,,
right,0.667000055,1,49,1,0,1,0,1,0,1,0,240,36,1,239,1,5,1,stim/51.jpeg,Instruments,2,stim/objects/Instruments/keyboard.png,0.5,4,0.2,-0.15,right,12,2020-12-17_17h05.47.820,premup-three_ses-02_part-02_label-phase2,3.2.4,Win32,60,,,,,,,,,,,,,,,,,,,,,,,,,,,,,
right,0.633000135,1,50,1,0,1,0,1,0,1,0,240,92,1,239,2,1,1,stim/11.jpeg,Instruments,2,stim/objects/Instruments/panflute.png,0.7,1,-0.2,0.15,right,12,2020-12-17_17h05.47.820,premup-three_ses-02_part-02_label-phase2,3.2.4,Win32,60,,,,,,,,,,,,,,,,,,,,,,,,,,,,,
left,0.835000038,1,51,1,0,1,0,1,0,1,0,240,42,1,239,1,6,3,stim/63.jpeg,HouseObjects,1,stim/objects/HouseObjects/pan.png,0.5,1,-0.2,0.15,left,12,2020-12-17_17h05.47.820,premup-three_ses-02_part-02_label-phase2,3.2.4,Win32,60,,,,,,,,,,,,,,,,,,,,,,,,,,,,,
right,0.523000002,1,52,1,0,1,0,1,0,1,0,240,173,1,239,3,3,2,stim/32.jpeg,Instruments,2,stim/objects/Instruments/musicsheet2.png,0.9,4,0.2,-0.15,right,12,2020-12-17_17h05.47.820,premup-three_ses-02_part-02_label-phase2,3.2.4,Win32,60,,,,,,,,,,,,,,,,,,,,,,,,,,,,,
left,0.601000071,0,53,1,0,1,0,1,0,1,0,240,149,1,239,2,2,2,stim/22.jpeg,Instruments,2,stim/objects/Instruments/laud2.png,0.3,4,0.2,-0.15,right,12,2020-12-17_17h05.47.820,premup-three_ses-02_part-02_label-phase2,3.2.4,Win32,60,,,,,,,,,,,,,,,,,,,,,,,,,,,,,
,,0,54,1,0,1,0,1,0,1,0,240,23,1,239,1,5,4,stim/54.jpeg,Instruments,2,stim/objects/Instruments/marimba.png,0.5,2,0.2,0.15,right,12,2020-12-17_17h05.47.820,premup-three_ses-02_part-02_label-phase2,3.2.4,Win32,60,,,,,,,,,,,,,,,,,,,,,,,,,,,,,
right,0.609999895,0,55,1,0,1,0,1,0,1,0,240,19,1,239,1,5,4,stim/54.jpeg,HouseObjects,1,stim/objects/HouseObjects/knife.png,0.5,4,0.2,-0.15,left,12,2020-12-17_17h05.47.820,premup-three_ses-02_part-02_label-phase2,3.2.4,Win32,60,,,,,,,,,,,,,,,,,,,,,,,,,,,,,
left,0.642999887,1,56,1,0,1,0,1,0,1,0,240,225,1,239,3,4,2,stim/42.jpeg,HouseObjects,1,stim/objects/HouseObjects/remote2.png,0.9,2,0.2,0.15,left,12,2020-12-17_17h05.47.820,premup-three_ses-02_part-02_label-phase2,3.2.4,Win32,60,,,,,,,,,,,,,,,,,,,,,,,,,,,,,
right,0.804000139,0,57,1,0,1,0,1,0,1,0,240,1,1,239,1,5,2,stim/52.jpeg,HouseObjects,1,stim/objects/HouseObjects/ironingboard.png,0.5,2,0.2,0.15,left,12,2020-12-17_17h05.47.820,premup-three_ses-02_part-02_label-phase2,3.2.4,Win32,60,,,,,,,,,,,,,,,,,,,,,,,,,,,,,
left,0.851999998,1,58,1,0,1,0,1,0,1,0,240,134,1,239,2,2,3,stim/23.jpeg,HouseObjects,1,stim/objects/HouseObjects/key2.png,0.7,2,0.2,0.15,left,12,2020-12-17_17h05.47.820,premup-three_ses-02_part-02_label-phase2,3.2.4,Win32,60,,,,,,,,,,,,,,,,,,,,,,,,,,,,,
left,0.687000036,0,59,1,0,1,0,1,0,1,0,240,236,1,239,3,4,1,stim/41.jpeg,Instruments,2,stim/objects/Instruments/panflute2.png,0.1,1,-0.2,0.15,right,12,2020-12-17_17h05.47.820,premup-three_ses-02_part-02_label-phase2,3.2.4,Win32,60,,,,,,,,,,,,,,,,,,,,,,,,,,,,,
left,0.680999994,1,60,1,0,1,0,1,0,1,0,240,139,1,239,2,2,4,stim/24.jpeg,HouseObjects,1,stim/objects/HouseObjects/knife2.png,0.7,3,-0.2,-0.15,left,12,2020-12-17_17h05.47.820,premup-three_ses-02_part-02_label-phase2,3.2.4,Win32,60,,,,,,,,,,,,,,,,,,,,,,,,,,,,,
left,0.704999924,1,61,1,0,1,0,1,0,1,0,240,144,1,239,2,2,1,stim/21.jpeg,HouseObjects,1,stim/objects/HouseObjects/iron2.png,0.7,2,0.2,0.15,left,12,2020-12-17_17h05.47.820,premup-three_ses-02_part-02_label-phase2,3.2.4,Win32,60,,,,,,,,,,,,,,,,,,,,,,,,,,,,,
left,0.794000149,1,62,1,0,1,0,1,0,1,0,240,137,1,239,2,2,2,stim/22.jpeg,HouseObjects,1,stim/objects/HouseObjects/ironingboard2.png,0.7,3,-0.2,-0.15,left,12,2020-12-17_17h05.47.820,premup-three_ses-02_part-02_label-phase2,3.2.4,Win32,60,,,,,,,,,,,,,,,,,,,,,,,,,,,,,
right,0.664000034,1,63,1,0,1,0,1,0,1,0,240,177,1,239,3,3,2,stim/32.jpeg,Instruments,2,stim/objects/Instruments/musicsheet2.png,0.9,4,0.2,-0.15,right,12,2020-12-17_17h05.47.820,premup-three_ses-02_part-02_label-phase2,3.2.4,Win32,60,,,,,,,,,,,,,,,,,,,,,,,,,,,,,
right,0.837999821,0,64,1,0,1,0,1,0,1,0,240,84,1,239,2,1,1,stim/11.jpeg,HouseObjects,1,stim/objects/HouseObjects/recyclingbin.png,0.3,4,0.2,-0.15,left,12,2020-12-17_17h05.47.820,premup-three_ses-02_part-02_label-phase2,3.2.4,Win32,60,,,,,,,,,,,,,,,,,,,,,,,,,,,,,
right,0.696000099,0,65,1,0,1,0,1,0,1,0,240,2,1,239,1,5,3,stim/53.jpeg,HouseObjects,1,stim/objects/HouseObjects/key.png,0.5,1,-0.2,0.15,left,12,2020-12-17_17h05.47.820,premup-three_ses-02_part-02_label-phase2,3.2.4,Win32,60,,,,,,,,,,,,,,,,,,,,,,,,,,,,,
left,0.697999954,1,66,1,0,1,0,1,0,1,0,240,210,1,239,3,4,3,stim/43.jpeg,HouseObjects,1,stim/objects/HouseObjects/rubbergloves2.png,0.9,1,-0.2,0.15,left,12,2020-12-17_17h05.47.820,premup-three_ses-02_part-02_label-phase2,3.2.4,Win32,60,,,,,,,,,,,,,,,,,,,,,,,,,,,,,
left,0.648999929,1,67,1,0,1,0,1,0,1,0,240,208,1,239,3,4,1,stim/41.jpeg,HouseObjects,1,stim/objects/HouseObjects/recyclingbin2.png,0.9,1,-0.2,0.15,left,12,2020-12-17_17h05.47.820,premup-three_ses-02_part-02_label-phase2,3.2.4,Win32,60,,,,,,,,,,,,,,,,,,,,,,,,,,,,,
right,0.67599988,1,68,1,0,1,0,1,0,1,0,240,35,1,239,1,5,4,stim/54.jpeg,Instruments,2,stim/objects/Instruments/marimba.png,0.5,4,0.2,-0.15,right,12,2020-12-17_17h05.47.820,premup-three_ses-02_part-02_label-phase2,3.2.4,Win32,60,,,,,,,,,,,,,,,,,,,,,,,,,,,,,
right,0.717000008,1,69,1,0,1,0,1,0,1,0,240,176,1,239,3,3,1,stim/31.jpeg,Instruments,2,stim/objects/Instruments/metronome2.png,0.9,2,0.2,0.15,right,12,2020-12-17_17h05.47.820,premup-three_ses-02_part-02_label-phase2,3.2.4,Win32,60,,,,,,,,,,,,,,,,,,,,,,,,,,,,,
left,0.64199996,0,70,1,0,1,0,1,0,1,0,240,237,1,239,3,4,2,stim/42.jpeg,Instruments,2,stim/objects/Instruments/pipepiano2.png,0.1,3,-0.2,-0.15,right,12,2020-12-17_17h05.47.820,premup-three_ses-02_part-02_label-phase2,3.2.4,Win32,60,,,,,,,,,,,,,,,,,,,,,,,,,,,,,
left,0.727999926,0,71,1,0,1,0,1,0,1,0,240,150,1,239,2,2,3,stim/23.jpeg,Instruments,2,stim/objects/Instruments/maraca2.png,0.3,1,-0.2,0.15,right,12,2020-12-17_17h05.47.820,premup-three_ses-02_part-02_label-phase2,3.2.4,Win32,60,,,,,,,,,,,,,,,,,,,,,,,,,,,,,
right,0.619999886,1,72,1,0,1,0,1,0,1,0,240,104,1,239,2,1,1,stim/11.jpeg,Instruments,2,stim/objects/Instruments/panflute.png,0.7,3,-0.2,-0.15,right,12,2020-12-17_17h05.47.820,premup-three_ses-02_part-02_label-phase2,3.2.4,Win32,60,,,,,,,,,,,,,,,,,,,,,,,,,,,,,
left,0.594000101,1,73,1,0,1,0,1,0,1,0,240,227,1,239,3,4,4,stim/44.jpeg,HouseObjects,1,stim/objects/HouseObjects/rug2.png,0.9,2,0.2,0.15,left,12,2020-12-17_17h05.47.820,premup-three_ses-02_part-02_label-phase2,3.2.4,Win32,60,,,,,,,,,,,,,,,,,,,,,,,,,,,,,
right,0.61500001,0,74,1,0,1,0,1,0,1,0,240,163,1,239,3,3,4,stim/34.jpeg,HouseObjects,1,stim/objects/HouseObjects/pitcher2.png,0.1,3,-0.2,-0.15,left,12,2020-12-17_17h05.47.820,premup-three_ses-02_part-02_label-phase2,3.2.4,Win32,60,,,,,,,,,,,,,,,,,,,,,,,,,,,,,
right,0.671000004,1,75,1,0,1,0,1,0,1,0,240,95,1,239,2,1,4,stim/14.jpeg,Instruments,2,stim/objects/Instruments/record_player.png,0.7,3,-0.2,-0.15,right,12,2020-12-17_17h05.47.820,premup-three_ses-02_part-02_label-phase2,3.2.4,Win32,60,,,,,,,,,,,,,,,,,,,,,,,,,,,,,
,,0,76,1,0,1,0,1,0,1,0,240,74,1,239,1,6,3,stim/63.jpeg,Instruments,2,stim/objects/Instruments/musicstand.png,0.5,1,-0.2,0.15,right,12,2020-12-17_17h05.47.820,premup-three_ses-02_part-02_label-phase2,3.2.4,Win32,60,,,,,,,,,,,,,,,,,,,,,,,,,,,,,
left,0.775000095,1,77,1,0,1,0,1,0,1,0,240,56,1,239,1,6,1,stim/61.jpeg,HouseObjects,1,stim/objects/HouseObjects/lintroller.png,0.5,1,-0.2,0.15,left,12,2020-12-17_17h05.47.820,premup-three_ses-02_part-02_label-phase2,3.2.4,Win32,60,,,,,,,,,,,,,,,,,,,,,,,,,,,,,
right,0.778000116,0,78,1,0,1,0,1,0,1,0,240,142,1,239,2,2,3,stim/23.jpeg,HouseObjects,1,stim/objects/HouseObjects/key2.png,0.7,3,-0.2,-0.15,left,12,2020-12-17_17h05.47.820,premup-three_ses-02_part-02_label-phase2,3.2.4,Win32,60,,,,,,,,,,,,,,,,,,,,,,,,,,,,,
right,0.652999878,0,79,1,0,1,0,1,0,1,0,240,9,1,239,1,5,2,stim/52.jpeg,HouseObjects,1,stim/objects/HouseObjects/ironingboard.png,0.5,2,0.2,0.15,left,12,2020-12-17_17h05.47.820,premup-three_ses-02_part-02_label-phase2,3.2.4,Win32,60,,,,,,,,,,,,,,,,,,,,,,,,,,,,,
right,0.816999912,0,80,1,0,1,0,1,0,1,0,240,14,1,239,1,5,3,stim/53.jpeg,HouseObjects,1,stim/objects/HouseObjects/key.png,0.5,2,0.2,0.15,left,12,2020-12-17_17h05.47.820,premup-three_ses-02_part-02_label-phase2,3.2.4,Win32,60,,,,,,,,,,,,,,,,,,,,,,,,,,,,,
right,0.687000036,1,81,1,0,1,0,1,0,1,0,240,32,1,239,1,5,1,stim/51.jpeg,Instruments,2,stim/objects/Instruments/keyboard.png,0.5,1,-0.2,0.15,right,12,2020-12-17_17h05.47.820,premup-three_ses-02_part-02_label-phase2,3.2.4,Win32,60,,,,,,,,,,,,,,,,,,,,,,,,,,,,,
right,0.84100008,0,82,1,0,1,0,1,0,1,0,240,13,1,239,1,5,2,stim/52.jpeg,HouseObjects,1,stim/objects/HouseObjects/ironingboard.png,0.5,1,-0.2,0.15,left,12,2020-12-17_17h05.47.820,premup-three_ses-02_part-02_label-phase2,3.2.4,Win32,60,,,,,,,,,,,,,,,,,,,,,,,,,,,,,
left,0.913000107,0,83,1,0,1,0,1,0,1,0,240,239,1,239,3,4,4,stim/44.jpeg,Instruments,2,stim/objects/Instruments/record_player2.png,0.1,3,-0.2,-0.15,right,12,2020-12-17_17h05.47.820,premup-three_ses-02_part-02_label-phase2,3.2.4,Win32,60,,,,,,,,,,,,,,,,,,,,,,,,,,,,,
right,0.638000011,1,84,1,0,1,0,1,0,1,0,240,179,1,239,3,3,4,stim/34.jpeg,Instruments,2,stim/objects/Instruments/oboe2.png,0.9,4,0.2,-0.15,right,12,2020-12-17_17h05.47.820,premup-three_ses-02_part-02_label-phase2,3.2.4,Win32,60,,,,,,,,,,,,,,,,,,,,,,,,,,,,,
right,0.616999865,1,85,1,0,1,0,1,0,1,0,240,194,1,239,3,3,3,stim/33.jpeg,Instruments,2,stim/objects/Instruments/musicstand2.png,0.9,1,-0.2,0.15,right,12,2020-12-17_17h05.47.820,premup-three_ses-02_part-02_label-phase2,3.2.4,Win32,60,,,,,,,,,,,,,,,,,,,,,,,,,,,,,
right,0.684999943,0,86,1,0,1,0,1,0,1,0,240,89,1,239,2,1,2,stim/12.jpeg,HouseObjects,1,stim/objects/HouseObjects/remote.png,0.3,1,-0.2,0.15,left,12,2020-12-17_17h05.47.820,premup-three_ses-02_part-02_label-phase2,3.2.4,Win32,60,,,,,,,,,,,,,,,,,,,,,,,,,,,,,
left,0.613999844,0,87,1,0,1,0,1,0,1,0,240,156,1,239,2,2,1,stim/21.jpeg,Instruments,2,stim/objects/Instruments/keyboard2.png,0.3,4,0.2,-0.15,right,12,2020-12-17_17h05.47.820,premup-three_ses-02_part-02_label-phase2,3.2.4,Win32,60,,,,,,,,,,,,,,,,,,,,,,,,,,,,,
right,0.715000153,1,88,1,0,1,0,1,0,1,0,240,152,1,239,2,2,1,stim/21.jpeg,Instruments,2,stim/objects/Instruments/keyboard2.png,0.3,4,0.2,-0.15,right,12,2020-12-17_17h05.47.820,premup-three_ses-02_part-02_label-phase2,3.2.4,Win32,60,,,,,,,,,,,,,,,,,,,,,,,,,,,,,
,,0,89,1,0,1,0,1,0,1,0,240,8,1,239,1,5,1,stim/51.jpeg,HouseObjects,1,stim/objects/HouseObjects/iron.png,0.5,1,-0.2,0.15,left,12,2020-12-17_17h05.47.820,premup-three_ses-02_part-02_label-phase2,3.2.4,Win32,60,,,,,,,,,,,,,,,,,,,,,,,,,,,,,
,,0,90,1,0,1,0,1,0,1,0,240,141,1,239,2,2,2,stim/22.jpeg,HouseObjects,1,stim/objects/HouseObjects/ironingboard2.png,0.7,4,0.2,-0.15,left,12,2020-12-17_17h05.47.820,premup-three_ses-02_part-02_label-phase2,3.2.4,Win32,60,,,,,,,,,,,,,,,,,,,,,,,,,,,,,
right,0.618999958,1,91,1,0,1,0,1,0,1,0,240,99,1,239,2,1,4,stim/14.jpeg,Instruments,2,stim/objects/Instruments/record_player.png,0.7,1,-0.2,0.15,right,12,2020-12-17_17h05.47.820,premup-three_ses-02_part-02_label-phase2,3.2.4,Win32,60,,,,,,,,,,,,,,,,,,,,,,,,,,,,,
right,0.621999979,0,92,1,0,1,0,1,0,1,0,240,86,1,239,2,1,3,stim/13.jpeg,HouseObjects,1,stim/objects/HouseObjects/rubbergloves.png,0.3,4,0.2,-0.15,left,12,2020-12-17_17h05.47.820,premup-three_ses-02_part-02_label-phase2,3.2.4,Win32,60,,,,,,,,,,,,,,,,,,,,,,,,,,,,,
,,0,93,1,0,1,0,1,0,1,0,240,147,1,239,2,2,4,stim/24.jpeg,HouseObjects,1,stim/objects/HouseObjects/knife2.png,0.7,4,0.2,-0.15,left,12,2020-12-17_17h05.47.820,premup-three_ses-02_part-02_label-phase2,3.2.4,Win32,60,,,,,,,,,,,,,,,,,,,,,,,,,,,,,
,,0,94,1,0,1,0,1,0,1,0,240,88,1,239,2,1,1,stim/11.jpeg,HouseObjects,1,stim/objects/HouseObjects/recyclingbin.png,0.3,2,0.2,0.15,left,12,2020-12-17_17h05.47.820,premup-three_ses-02_part-02_label-phase2,3.2.4,Win32,60,,,,,,,,,,,,,,,,,,,,,,,,,,,,,
,,0,95,1,0,1,0,1,0,1,0,240,111,1,239,2,1,4,stim/14.jpeg,Instruments,2,stim/objects/Instruments/record_player.png,0.7,3,-0.2,-0.15,right,12,2020-12-17_17h05.47.820,premup-three_ses-02_part-02_label-phase2,3.2.4,Win32,60,,,,,,,,,,,,,,,,,,,,,,,,,,,,,
left,0.670000076,1,96,1,0,1,0,1,0,1,0,240,124,1,239,2,2,1,stim/21.jpeg,HouseObjects,1,stim/objects/HouseObjects/iron2.png,0.7,1,-0.2,0.15,left,12,2020-12-17_17h05.47.820,premup-three_ses-02_part-02_label-phase2,3.2.4,Win32,60,,,,,,,,,,,,,,,,,,,,,,,,,,,,,
right,0.644000053,1,97,1,0,1,0,1,0,1,0,240,169,1,239,3,3,2,stim/32.jpeg,Instruments,2,stim/objects/Instruments/musicsheet2.png,0.9,3,-0.2,-0.15,right,12,2020-12-17_17h05.47.820,premup-three_ses-02_part-02_label-phase2,3.2.4,Win32,60,,,,,,,,,,,,,,,,,,,,,,,,,,,,,
right,0.569999933,1,98,1,0,1,0,1,0,1,0,240,188,1,239,3,3,1,stim/31.jpeg,Instruments,2,stim/objects/Instruments/metronome2.png,0.9,3,-0.2,-0.15,right,12,2020-12-17_17h05.47.820,premup-three_ses-02_part-02_label-phase2,3.2.4,Win32,60,,,,,,,,,,,,,,,,,,,,,,,,,,,,,
left,0.900000095,0,99,1,0,1,0,1,0,1,0,240,98,1,239,2,1,3,stim/13.jpeg,Instruments,2,stim/objects/Instruments/record.png,0.7,2,0.2,0.15,right,12,2020-12-17_17h05.47.820,premup-three_ses-02_part-02_label-phase2,3.2.4,Win32,60,,,,,,,,,,,,,,,,,,,,,,,,,,,,,
right,0.743999958,0,100,1,0,1,0,1,0,1,0,240,58,1,239,1,6,3,stim/63.jpeg,HouseObjects,1,stim/objects/HouseObjects/pan.png,0.5,1,-0.2,0.15,left,12,2020-12-17_17h05.47.820,premup-three_ses-02_part-02_label-phase2,3.2.4,Win32,60,,,,,,,,,,,,,,,,,,,,,,,,,,,,,
right,0.65199995,1,101,1,0,1,0,1,0,1,0,240,29,1,239,1,5,2,stim/52.jpeg,Instruments,2,stim/objects/Instruments/laud.png,0.5,2,0.2,0.15,right,12,2020-12-17_17h05.47.820,premup-three_ses-02_part-02_label-phase2,3.2.4,Win32,60,,,,,,,,,,,,,,,,,,,,,,,,,,,,,
right,0.792000055,0,102,1,0,1,0,1,0,1,0,240,82,1,239,2,1,3,stim/13.jpeg,HouseObjects,1,stim/objects/HouseObjects/rubbergloves.png,0.3,4,0.2,-0.15,left,12,2020-12-17_17h05.47.820,premup-three_ses-02_part-02_label-phase2,3.2.4,Win32,60,,,,,,,,,,,,,,,,,,,,,,,,,,,,,
left,0.630000114,1,103,1,0,1,0,1,0,1,0,240,229,1,239,3,4,2,stim/42.jpeg,HouseObjects,1,stim/objects/HouseObjects/remote2.png,0.9,3,-0.2,-0.15,left,12,2020-12-17_17h05.47.820,premup-three_ses-02_part-02_label-phase2,3.2.4,Win32,60,,,,,,,,,,,,,,,,,,,,,,,,,,,,,
right,0.644999981,0,104,1,0,1,0,1,0,1,0,240,4,1,239,1,5,1,stim/51.jpeg,HouseObjects,1,stim/objects/HouseObjects/iron.png,0.5,1,-0.2,0.15,left,12,2020-12-17_17h05.47.820,premup-three_ses-02_part-02_label-phase2,3.2.4,Win32,60,,,,,,,,,,,,,,,,,,,,,,,,,,,,,
,,0,105,1,0,1,0,1,0,1,0,240,164,1,239,3,3,1,stim/31.jpeg,Instruments,2,stim/objects/Instruments/metronome2.png,0.9,1,-0.2,0.15,right,12,2020-12-17_17h05.47.820,premup-three_ses-02_part-02_label-phase2,3.2.4,Win32,60,,,,,,,,,,,,,,,,,,,,,,,,,,,,,
left,0.773000002,1,106,1,0,1,0,1,0,1,0,240,220,1,239,3,4,1,stim/41.jpeg,HouseObjects,1,stim/objects/HouseObjects/recyclingbin2.png,0.9,1,-0.2,0.15,left,12,2020-12-17_17h05.47.820,premup-three_ses-02_part-02_label-phase2,3.2.4,Win32,60,,,,,,,,,,,,,,,,,,,,,,,,,,,,,
right,0.720000029,1,107,1,0,1,0,1,0,1,0,240,27,1,239,1,5,4,stim/54.jpeg,Instruments,2,stim/objects/Instruments/marimba.png,0.5,2,0.2,0.15,right,12,2020-12-17_17h05.47.820,premup-three_ses-02_part-02_label-phase2,3.2.4,Win32,60,,,,,,,,,,,,,,,,,,,,,,,,,,,,,
right,0.578999996,1,108,1,0,1,0,1,0,1,0,240,170,1,239,3,3,3,stim/33.jpeg,Instruments,2,stim/objects/Instruments/musicstand2.png,0.9,1,-0.2,0.15,right,12,2020-12-17_17h05.47.820,premup-three_ses-02_part-02_label-phase2,3.2.4,Win32,60,,,,,,,,,,,,,,,,,,,,,,,,,,,,,
left,0.51699996,1,109,1,0,1,0,1,0,1,0,240,204,1,239,3,4,1,stim/41.jpeg,HouseObjects,1,stim/objects/HouseObjects/recyclingbin2.png,0.9,3,-0.2,-0.15,left,12,2020-12-17_17h05.47.820,premup-three_ses-02_part-02_label-phase2,3.2.4,Win32,60,,,,,,,,,,,,,,,,,,,,,,,,,,,,,
right,0.523999929,1,110,1,0,1,0,1,0,1,0,240,175,1,239,3,3,4,stim/34.jpeg,Instruments,2,stim/objects/Instruments/oboe2.png,0.9,2,0.2,0.15,right,12,2020-12-17_17h05.47.820,premup-three_ses-02_part-02_label-phase2,3.2.4,Win32,60,,,,,,,,,,,,,,,,,,,,,,,,,,,,,
left,0.579999924,0,111,1,0,1,0,1,0,1,0,240,238,1,239,3,4,3,stim/43.jpeg,Instruments,2,stim/objects/Instruments/record2.png,0.1,3,-0.2,-0.15,right,12,2020-12-17_17h05.47.820,premup-three_ses-02_part-02_label-phase2,3.2.4,Win32,60,,,,,,,,,,,,,,,,,,,,,,,,,,,,,
right,0.667000055,1,112,1,0,1,0,1,0,1,0,240,118,1,239,2,1,3,stim/13.jpeg,Instruments,2,stim/objects/Instruments/record.png,0.7,1,-0.2,0.15,right,12,2020-12-17_17h05.47.820,premup-three_ses-02_part-02_label-phase2,3.2.4,Win32,60,,,,,,,,,,,,,,,,,,,,,,,,,,,,,
right,0.628999949,1,113,1,0,1,0,1,0,1,0,240,20,1,239,1,5,1,stim/51.jpeg,Instruments,2,stim/objects/Instruments/keyboard.png,0.5,4,0.2,-0.15,right,12,2020-12-17_17h05.47.820,premup-three_ses-02_part-02_label-phase2,3.2.4,Win32,60,,,,,,,,,,,,,,,,,,,,,,,,,,,,,
right,0.654000044,1,114,1,0,1,0,1,0,1,0,240,178,1,239,3,3,3,stim/33.jpeg,Instruments,2,stim/objects/Instruments/musicstand2.png,0.9,4,0.2,-0.15,right,12,2020-12-17_17h05.47.820,premup-three_ses-02_part-02_label-phase2,3.2.4,Win32,60,,,,,,,,,,,,,,,,,,,,,,,,,,,,,
left,0.882000208,1,115,1,0,1,0,1,0,1,0,240,55,1,239,1,6,4,stim/64.jpeg,HouseObjects,1,stim/objects/HouseObjects/pitcher.png,0.5,1,-0.2,0.15,left,12,2020-12-17_17h05.47.820,premup-three_ses-02_part-02_label-phase2,3.2.4,Win32,60,,,,,,,,,,,,,,,,,,,,,,,,,,,,,
left,0.735000134,0,116,1,0,1,0,1,0,1,0,240,79,1,239,1,6,4,stim/64.jpeg,Instruments,2,stim/objects/Instruments/oboe.png,0.5,3,-0.2,-0.15,right,12,2020-12-17_17h05.47.820,premup-three_ses-02_part-02_label-phase2,3.2.4,Win32,60,,,,,,,,,,,,,,,,,,,,,,,,,,,,,
right,0.767000198,0,117,1,0,1,0,1,0,1,0,240,11,1,239,1,5,4,stim/54.jpeg,HouseObjects,1,stim/objects/HouseObjects/knife.png,0.5,1,-0.2,0.15,left,12,2020-12-17_17h05.47.820,premup-three_ses-02_part-02_label-phase2,3.2.4,Win32,60,,,,,,,,,,,,,,,,,,,,,,,,,,,,,
right,0.58100009,0,118,1,0,1,0,1,0,1,0,240,10,1,239,1,5,3,stim/53.jpeg,HouseObjects,1,stim/objects/HouseObjects/key.png,0.5,3,-0.2,-0.15,left,12,2020-12-17_17h05.47.820,premup-three_ses-02_part-02_label-phase2,3.2.4,Win32,60,,,,,,,,,,,,,,,,,,,,,,,,,,,,,
left,0.684999943,0,119,1,0,1,0,1,0,1,0,240,148,1,239,2,2,1,stim/21.jpeg,Instruments,2,stim/objects/Instruments/keyboard2.png,0.3,2,0.2,0.15,right,12,2020-12-17_17h05.47.820,premup-three_ses-02_part-02_label-phase2,3.2.4,Win32,60,,,,,,,,,,,,,,,,,,,,,,,,,,,,,
left,0.819999933,0,120,1,0,1,0,1,0,1,0,240,166,1,239,3,3,3,stim/33.jpeg,Instruments,2,stim/objects/Instruments/musicstand2.png,0.9,2,0.2,0.15,right,12,2020-12-17_17h05.47.820,premup-three_ses-02_part-02_label-phase2,3.2.4,Win32,60,,,,,,,,,,,,,,,,,,,,,,,,,,,,,
left,0.638000011,1,121,1,0,1,0,1,0,1,0,240,5,1,239,1,5,2,stim/52.jpeg,HouseObjects,1,stim/objects/HouseObjects/ironingboard.png,0.5,3,-0.2,-0.15,left,12,2020-12-17_17h05.47.820,premup-three_ses-02_part-02_label-phase2,3.2.4,Win32,60,,,,,,,,,,,,,,,,,,,,,,,,,,,,,
right,0.608999968,1,122,1,0,1,0,1,0,1,0,240,180,1,239,3,3,1,stim/31.jpeg,Instruments,2,stim/objects/Instruments/metronome2.png,0.9,2,0.2,0.15,right,12,2020-12-17_17h05.47.820,premup-three_ses-02_part-02_label-phase2,3.2.4,Win32,60,,,,,,,,,,,,,,,,,,,,,,,,,,,,,
left,0.648000002,1,123,1,0,1,0,1,0,1,0,240,212,1,239,3,4,1,stim/41.jpeg,HouseObjects,1,stim/objects/HouseObjects/recyclingbin2.png,0.9,3,-0.2,-0.15,left,12,2020-12-17_17h05.47.820,premup-three_ses-02_part-02_label-phase2,3.2.4,Win32,60,,,,,,,,,,,,,,,,,,,,,,,,,,,,,
right,0.849999905,0,124,1,0,1,0,1,0,1,0,240,130,1,239,2,2,3,stim/23.jpeg,HouseObjects,1,stim/objects/HouseObjects/key2.png,0.7,3,-0.2,-0.15,left,12,2020-12-17_17h05.47.820,premup-three_ses-02_part-02_label-phase2,3.2.4,Win32,60,,,,,,,,,,,,,,,,,,,,,,,,,,,,,
right,0.788000107,1,125,1,0,1,0,1,0,1,0,240,114,1,239,2,1,3,stim/13.jpeg,Instruments,2,stim/objects/Instruments/record.png,0.7,4,0.2,-0.15,right,12,2020-12-17_17h05.47.820,premup-three_ses-02_part-02_label-phase2,3.2.4,Win32,60,,,,,,,,,,,,,,,,,,,,,,,,,,,,,
right,0.59800005,1,126,1,0,1,0,1,0,1,0,240,190,1,239,3,3,3,stim/33.jpeg,Instruments,2,stim/objects/Instruments/musicstand2.png,0.9,2,0.2,0.15,right,12,2020-12-17_17h05.47.820,premup-three_ses-02_part-02_label-phase2,3.2.4,Win32,60,,,,,,,,,,,,,,,,,,,,,,,,,,,,,
right,0.792999983,0,127,1,0,1,0,1,0,1,0,240,129,1,239,2,2,2,stim/22.jpeg,HouseObjects,1,stim/objects/HouseObjects/ironingboard2.png,0.7,3,-0.2,-0.15,left,12,2020-12-17_17h05.47.820,premup-three_ses-02_part-02_label-phase2,3.2.4,Win32,60,,,,,,,,,,,,,,,,,,,,,,,,,,,,,
left,0.885999918,0,128,1,0,1,0,1,0,1,0,240,22,1,239,1,5,3,stim/53.jpeg,Instruments,2,stim/objects/Instruments/maraca.png,0.5,3,-0.2,-0.15,right,12,2020-12-17_17h05.47.820,premup-three_ses-02_part-02_label-phase2,3.2.4,Win32,60,,,,,,,,,,,,,,,,,,,,,,,,,,,,,
left,0.644000053,1,129,1,0,1,0,1,0,1,0,240,223,1,239,3,4,4,stim/44.jpeg,HouseObjects,1,stim/objects/HouseObjects/rug2.png,0.9,4,0.2,-0.15,left,12,2020-12-17_17h05.47.820,premup-three_ses-02_part-02_label-phase2,3.2.4,Win32,60,,,,,,,,,,,,,,,,,,,,,,,,,,,,,
left,0.73300004,0,130,1,0,1,0,1,0,1,0,240,63,1,239,1,6,4,stim/64.jpeg,Instruments,2,stim/objects/Instruments/oboe.png,0.5,3,-0.2,-0.15,right,12,2020-12-17_17h05.47.820,premup-three_ses-02_part-02_label-phase2,3.2.4,Win32,60,,,,,,,,,,,,,,,,,,,,,,,,,,,,,
right,0.752000093,0,131,1,0,1,0,1,0,1,0,240,7,1,239,1,5,4,stim/54.jpeg,HouseObjects,1,stim/objects/HouseObjects/knife.png,0.5,2,0.2,0.15,left,12,2020-12-17_17h05.47.820,premup-three_ses-02_part-02_label-phase2,3.2.4,Win32,60,,,,,,,,,,,,,,,,,,,,,,,,,,,,,
right,0.634000063,1,132,1,0,1,0,1,0,1,0,240,174,1,239,3,3,3,stim/33.jpeg,Instruments,2,stim/objects/Instruments/musicstand2.png,0.9,2,0.2,0.15,right,12,2020-12-17_17h05.47.820,premup-three_ses-02_part-02_label-phase2,3.2.4,Win32,60,,,,,,,,,,,,,,,,,,,,,,,,,,,,,
left,0.697999954,1,133,1,0,1,0,1,0,1,0,240,59,1,239,1,6,4,stim/64.jpeg,HouseObjects,1,stim/objects/HouseObjects/pitcher.png,0.5,4,0.2,-0.15,left,12,2020-12-17_17h05.47.820,premup-three_ses-02_part-02_label-phase2,3.2.4,Win32,60,,,,,,,,,,,,,,,,,,,,,,,,,,,,,
right,0.795000076,1,134,1,0,1,0,1,0,1,0,240,66,1,239,1,6,3,stim/63.jpeg,Instruments,2,stim/objects/Instruments/musicstand.png,0.5,1,-0.2,0.15,right,12,2020-12-17_17h05.47.820,premup-three_ses-02_part-02_label-phase2,3.2.4,Win32,60,,,,,,,,,,,,,,,,,,,,,,,,,,,,,
left,0.845999956,0,135,1,0,1,0,1,0,1,0,240,77,1,239,1,6,2,stim/62.jpeg,Instruments,2,stim/objects/Instruments/musicsheet.png,0.5,2,0.2,0.15,right,12,2020-12-17_17h05.47.820,premup-three_ses-02_part-02_label-phase2,3.2.4,Win32,60,,,,,,,,,,,,,,,,,,,,,,,,,,,,,
,,0,136,1,0,1,0,1,0,1,0,240,197,1,239,3,3,2,stim/32.jpeg,Instruments,2,stim/objects/Instruments/musicsheet2.png,0.9,4,0.2,-0.15,right,12,2020-12-17_17h05.47.820,premup-three_ses-02_part-02_label-phase2,3.2.4,Win32,60,,,,,,,,,,,,,,,,,,,,,,,,,,,,,
left,0.700000048,0,137,1,0,1,0,1,0,1,0,240,159,1,239,2,2,4,stim/24.jpeg,Instruments,2,stim/objects/Instruments/marimba2.png,0.3,2,0.2,0.15,right,12,2020-12-17_17h05.47.820,premup-three_ses-02_part-02_label-phase2,3.2.4,Win32,60,,,,,,,,,,,,,,,,,,,,,,,,,,,,,
right,0.56799984,1,138,1,0,1,0,1,0,1,0,240,198,1,239,3,3,3,stim/33.jpeg,Instruments,2,stim/objects/Instruments/musicstand2.png,0.9,2,0.2,0.15,right,12,2020-12-17_17h05.47.820,premup-three_ses-02_part-02_label-phase2,3.2.4,Win32,60,,,,,,,,,,,,,,,,,,,,,,,,,,,,,
right,0.637000084,1,139,1,0,1,0,1,0,1,0,240,117,1,239,2,1,2,stim/12.jpeg,Instruments,2,stim/objects/Instruments/pipepiano.png,0.7,1,-0.2,0.15,right,12,2020-12-17_17h05.47.820,premup-three_ses-02_part-02_label-phase2,3.2.4,Win32,60,,,,,,,,,,,,,,,,,,,,,,,,,,,,,
left,0.607000113,1,140,1,0,1,0,1,0,1,0,240,132,1,239,2,2,1,stim/21.jpeg,HouseObjects,1,stim/objects/HouseObjects/iron2.png,0.7,1,-0.2,0.15,left,12,2020-12-17_17h05.47.820,premup-three_ses-02_part-02_label-phase2,3.2.4,Win32,60,,,,,,,,,,,,,,,,,,,,,,,,,,,,,
right,0.65199995,1,141,1,0,1,0,1,0,1,0,240,26,1,239,1,5,3,stim/53.jpeg,Instruments,2,stim/objects/Instruments/maraca.png,0.5,2,0.2,0.15,right,12,2020-12-17_17h05.47.820,premup-three_ses-02_part-02_label-phase2,3.2.4,Win32,60,,,,,,,,,,,,,,,,,,,,,,,,,,,,,
right,0.789999962,0,142,1,0,1,0,1,0,1,0,240,41,1,239,1,6,2,stim/62.jpeg,HouseObjects,1,stim/objects/HouseObjects/match.png,0.5,3,-0.2,-0.15,left,12,2020-12-17_17h05.47.820,premup-three_ses-02_part-02_label-phase2,3.2.4,Win32,60,,,,,,,,,,,,,,,,,,,,,,,,,,,,,
left,0.715000153,1,143,1,0,1,0,1,0,1,0,240,47,1,239,1,6,4,stim/64.jpeg,HouseObjects,1,stim/objects/HouseObjects/pitcher.png,0.5,3,-0.2,-0.15,left,12,2020-12-17_17h05.47.820,premup-three_ses-02_part-02_label-phase2,3.2.4,Win32,60,,,,,,,,,,,,,,,,,,,,,,,,,,,,,
right,0.667999983,1,144,1,0,1,0,1,0,1,0,240,24,1,239,1,5,1,stim/51.jpeg,Instruments,2,stim/objects/Instruments/keyboard.png,0.5,1,-0.2,0.15,right,12,2020-12-17_17h05.47.820,premup-three_ses-02_part-02_label-phase2,3.2.4,Win32,60,,,,,,,,,,,,,,,,,,,,,,,,,,,,,
right,0.542999983,1,145,1,0,1,0,1,0,1,0,240,34,1,239,1,5,3,stim/53.jpeg,Instruments,2,stim/objects/Instruments/maraca.png,0.5,2,0.2,0.15,right,12,2020-12-17_17h05.47.820,premup-three_ses-02_part-02_label-phase2,3.2.4,Win32,60,,,,,,,,,,,,,,,,,,,,,,,,,,,,,
left,0.56799984,1,146,1,0,1,0,1,0,1,0,240,214,1,239,3,4,3,stim/43.jpeg,HouseObjects,1,stim/objects/HouseObjects/rubbergloves2.png,0.9,2,0.2,0.15,left,12,2020-12-17_17h05.47.820,premup-three_ses-02_part-02_label-phase2,3.2.4,Win32,60,,,,,,,,,,,,,,,,,,,,,,,,,,,,,
left,0.454999924,1,147,1,0,1,0,1,0,1,0,240,226,1,239,3,4,3,stim/43.jpeg,HouseObjects,1,stim/objects/HouseObjects/rubbergloves2.png,0.9,2,0.2,0.15,left,12,2020-12-17_17h05.47.820,premup-three_ses-02_part-02_label-phase2,3.2.4,Win32,60,,,,,,,,,,,,,,,,,,,,,,,,,,,,,
right,0.589999914,1,148,1,0,1,0,1,0,1,0,240,105,1,239,2,1,2,stim/12.jpeg,Instruments,2,stim/objects/Instruments/pipepiano.png,0.7,2,0.2,0.15,right,12,2020-12-17_17h05.47.820,premup-three_ses-02_part-02_label-phase2,3.2.4,Win32,60,,,,,,,,,,,,,,,,,,,,,,,,,,,,,
left,0.554000139,1,149,1,0,1,0,1,0,1,0,240,209,1,239,3,4,2,stim/42.jpeg,HouseObjects,1,stim/objects/HouseObjects/remote2.png,0.9,1,-0.2,0.15,left,12,2020-12-17_17h05.47.820,premup-three_ses-02_part-02_label-phase2,3.2.4,Win32,60,,,,,,,,,,,,,,,,,,,,,,,,,,,,,
left,0.544000149,1,150,1,0,1,0,1,0,1,0,240,200,1,239,3,4,1,stim/41.jpeg,HouseObjects,1,stim/objects/HouseObjects/recyclingbin2.png,0.9,1,-0.2,0.15,left,12,2020-12-17_17h05.47.820,premup-three_ses-02_part-02_label-phase2,3.2.4,Win32,60,,,,,,,,,,,,,,,,,,,,,,,,,,,,,
left,0.470000029,1,151,1,0,1,0,1,0,1,0,240,230,1,239,3,4,3,stim/43.jpeg,HouseObjects,1,stim/objects/HouseObjects/rubbergloves2.png,0.9,3,-0.2,-0.15,left,12,2020-12-17_17h05.47.820,premup-three_ses-02_part-02_label-phase2,3.2.4,Win32,60,,,,,,,,,,,,,,,,,,,,,,,,,,,,,
right,0.553999901,1,152,1,0,1,0,1,0,1,0,240,181,1,239,3,3,2,stim/32.jpeg,Instruments,2,stim/objects/Instruments/musicsheet2.png,0.9,4,0.2,-0.15,right,12,2020-12-17_17h05.47.820,premup-three_ses-02_part-02_label-phase2,3.2.4,Win32,60,,,,,,,,,,,,,,,,,,,,,,,,,,,,,
left,0.621000051,1,153,1,0,1,0,1,0,1,0,240,228,1,239,3,4,1,stim/41.jpeg,HouseObjects,1,stim/objects/HouseObjects/recyclingbin2.png,0.9,1,-0.2,0.15,left,12,2020-12-17_17h05.47.820,premup-three_ses-02_part-02_label-phase2,3.2.4,Win32,60,,,,,,,,,,,,,,,,,,,,,,,,,,,,,
left,0.521999836,1,154,1,0,1,0,1,0,1,0,240,222,1,239,3,4,3,stim/43.jpeg,HouseObjects,1,stim/objects/HouseObjects/rubbergloves2.png,0.9,4,0.2,-0.15,left,12,2020-12-17_17h05.47.820,premup-three_ses-02_part-02_label-phase2,3.2.4,Win32,60,,,,,,,,,,,,,,,,,,,,,,,,,,,,,
right,0.710000038,1,155,1,0,1,0,1,0,1,0,240,33,1,239,1,5,2,stim/52.jpeg,Instruments,2,stim/objects/Instruments/laud.png,0.5,4,0.2,-0.15,right,12,2020-12-17_17h05.47.820,premup-three_ses-02_part-02_label-phase2,3.2.4,Win32,60,,,,,,,,,,,,,,,,,,,,,,,,,,,,,
right,0.833999872,1,156,1,0,1,0,1,0,1,0,240,28,1,239,1,5,1,stim/51.jpeg,Instruments,2,stim/objects/Instruments/keyboard.png,0.5,4,0.2,-0.15,right,12,2020-12-17_17h05.47.820,premup-three_ses-02_part-02_label-phase2,3.2.4,Win32,60,,,,,,,,,,,,,,,,,,,,,,,,,,,,,
right,0.784000158,1,157,1,0,1,0,1,0,1,0,240,38,1,239,1,5,3,stim/53.jpeg,Instruments,2,stim/objects/Instruments/maraca.png,0.5,4,0.2,-0.15,right,12,2020-12-17_17h05.47.820,premup-three_ses-02_part-02_label-phase2,3.2.4,Win32,60,,,,,,,,,,,,,,,,,,,,,,,,,,,,,
left,0.670000076,1,158,1,0,1,0,1,0,1,0,240,15,1,239,1,5,4,stim/54.jpeg,HouseObjects,1,stim/objects/HouseObjects/knife.png,0.5,3,-0.2,-0.15,left,12,2020-12-17_17h05.47.820,premup-three_ses-02_part-02_label-phase2,3.2.4,Win32,60,,,,,,,,,,,,,,,,,,,,,,,,,,,,,
left,0.85800004,1,159,1,0,1,0,1,0,1,0,240,53,1,239,1,6,2,stim/62.jpeg,HouseObjects,1,stim/objects/HouseObjects/match.png,0.5,1,-0.2,0.15,left,12,2020-12-17_17h05.47.820,premup-three_ses-02_part-02_label-phase2,3.2.4,Win32,60,,,,,,,,,,,,,,,,,,,,,,,,,,,,,
left,0.875999928,1,160,1,0,1,0,1,0,1,0,240,48,1,239,1,6,1,stim/61.jpeg,HouseObjects,1,stim/objects/HouseObjects/lintroller.png,0.5,2,0.2,0.15,left,12,2020-12-17_17h05.47.820,premup-three_ses-02_part-02_label-phase2,3.2.4,Win32,60,,,,,,,,,,,,,,,,,,,,,,,,,,,,,
left,0.620000124,1,161,1,0,1,0,1,0,1,0,240,43,1,239,1,6,4,stim/64.jpeg,HouseObjects,1,stim/objects/HouseObjects/pitcher.png,0.5,3,-0.2,-0.15,left,12,2020-12-17_17h05.47.820,premup-three_ses-02_part-02_label-phase2,3.2.4,Win32,60,,,,,,,,,,,,,,,,,,,,,,,,,,,,,
left,0.694000006,0,162,1,0,1,0,1,0,1,0,240,154,1,239,2,2,3,stim/23.jpeg,Instruments,2,stim/objects/Instruments/maraca2.png,0.3,2,0.2,0.15,right,12,2020-12-17_17h05.47.820,premup-three_ses-02_part-02_label-phase2,3.2.4,Win32,60,,,,,,,,,,,,,,,,,,,,,,,,,,,,,
,,0,163,1,0,1,0,1,0,1,0,240,45,1,239,1,6,2,stim/62.jpeg,HouseObjects,1,stim/objects/HouseObjects/match.png,0.5,4,0.2,-0.15,left,12,2020-12-17_17h05.47.820,premup-three_ses-02_part-02_label-phase2,3.2.4,Win32,60,,,,,,,,,,,,,,,,,,,,,,,,,,,,,
left,0.612999916,0,164,1,0,1,0,1,0,1,0,240,65,1,239,1,6,2,stim/62.jpeg,Instruments,2,stim/objects/Instruments/musicsheet.png,0.5,2,0.2,0.15,right,12,2020-12-17_17h05.47.820,premup-three_ses-02_part-02_label-phase2,3.2.4,Win32,60,,,,,,,,,,,,,,,,,,,,,,,,,,,,,
left,0.542999983,0,165,1,0,1,0,1,0,1,0,240,158,1,239,2,2,3,stim/23.jpeg,Instruments,2,stim/objects/Instruments/maraca2.png,0.3,1,-0.2,0.15,right,12,2020-12-17_17h05.47.820,premup-three_ses-02_part-02_label-phase2,3.2.4,Win32,60,,,,,,,,,,,,,,,,,,,,,,,,,,,,,
,,0,166,1,0,1,0,1,0,1,0,240,115,1,239,2,1,4,stim/14.jpeg,Instruments,2,stim/objects/Instruments/record_player.png,0.7,4,0.2,-0.15,right,12,2020-12-17_17h05.47.820,premup-three_ses-02_part-02_label-phase2,3.2.4,Win32,60,,,,,,,,,,,,,,,,,,,,,,,,,,,,,
left,0.569000006,1,167,1,0,1,0,1,0,1,0,240,140,1,239,2,2,1,stim/21.jpeg,HouseObjects,1,stim/objects/HouseObjects/iron2.png,0.7,3,-0.2,-0.15,left,12,2020-12-17_17h05.47.820,premup-three_ses-02_part-02_label-phase2,3.2.4,Win32,60,,,,,,,,,,,,,,,,,,,,,,,,,,,,,
left,0.667000055,1,168,1,0,1,0,1,0,1,0,240,205,1,239,3,4,2,stim/42.jpeg,HouseObjects,1,stim/objects/HouseObjects/remote2.png,0.9,3,-0.2,-0.15,left,12,2020-12-17_17h05.47.820,premup-three_ses-02_part-02_label-phase2,3.2.4,Win32,60,,,,,,,,,,,,,,,,,,,,,,,,,,,,,
right,0.717000008,1,169,1,0,1,0,1,0,1,0,240,62,1,239,1,6,3,stim/63.jpeg,Instruments,2,stim/objects/Instruments/musicstand.png,0.5,4,0.2,-0.15,right,12,2020-12-17_17h05.47.820,premup-three_ses-02_part-02_label-phase2,3.2.4,Win32,60,,,,,,,,,,,,,,,,,,,,,,,,,,,,,
left,0.47300005,1,170,1,0,1,0,1,0,1,0,240,213,1,239,3,4,2,stim/42.jpeg,HouseObjects,1,stim/objects/HouseObjects/remote2.png,0.9,2,0.2,0.15,left,12,2020-12-17_17h05.47.820,premup-three_ses-02_part-02_label-phase2,3.2.4,Win32,60,,,,,,,,,,,,,,,,,,,,,,,,,,,,,
right,0.592000008,0,171,1,0,1,0,1,0,1,0,240,80,1,239,2,1,1,stim/11.jpeg,HouseObjects,1,stim/objects/HouseObjects/recyclingbin.png,0.3,1,-0.2,0.15,left,12,2020-12-17_17h05.47.820,premup-three_ses-02_part-02_label-phase2,3.2.4,Win32,60,,,,,,,,,,,,,,,,,,,,,,,,,,,,,
right,0.611999989,0,172,1,0,1,0,1,0,1,0,240,46,1,239,1,6,3,stim/63.jpeg,HouseObjects,1,stim/objects/HouseObjects/pan.png,0.5,4,0.2,-0.15,left,12,2020-12-17_17h05.47.820,premup-three_ses-02_part-02_label-phase2,3.2.4,Win32,60,,,,,,,,,,,,,,,,,,,,,,,,,,,,,
left,0.694000006,1,173,1,0,1,0,1,0,1,0,240,231,1,239,3,4,4,stim/44.jpeg,HouseObjects,1,stim/objects/HouseObjects/rug2.png,0.9,2,0.2,0.15,left,12,2020-12-17_17h05.47.820,premup-three_ses-02_part-02_label-phase2,3.2.4,Win32,60,,,,,,,,,,,,,,,,,,,,,,,,,,,,,
right,0.579999924,1,174,1,0,1,0,1,0,1,0,240,195,1,239,3,3,4,stim/34.jpeg,Instruments,2,stim/objects/Instruments/oboe2.png,0.9,3,-0.2,-0.15,right,12,2020-12-17_17h05.47.820,premup-three_ses-02_part-02_label-phase2,3.2.4,Win32,60,,,,,,,,,,,,,,,,,,,,,,,,,,,,,
right,0.644000053,0,175,1,0,1,0,1,0,1,0,240,81,1,239,2,1,2,stim/12.jpeg,HouseObjects,1,stim/objects/HouseObjects/remote.png,0.3,2,0.2,0.15,left,12,2020-12-17_17h05.47.820,premup-three_ses-02_part-02_label-phase2,3.2.4,Win32,60,,,,,,,,,,,,,,,,,,,,,,,,,,,,,
right,0.657999992,0,176,1,0,1,0,1,0,1,0,240,57,1,239,1,6,2,stim/62.jpeg,HouseObjects,1,stim/objects/HouseObjects/match.png,0.5,3,-0.2,-0.15,left,12,2020-12-17_17h05.47.820,premup-three_ses-02_part-02_label-phase2,3.2.4,Win32,60,,,,,,,,,,,,,,,,,,,,,,,,,,,,,
left,0.697999954,1,177,1,0,1,0,1,0,1,0,240,135,1,239,2,2,4,stim/24.jpeg,HouseObjects,1,stim/objects/HouseObjects/knife2.png,0.7,2,0.2,0.15,left,12,2020-12-17_17h05.47.820,premup-three_ses-02_part-02_label-phase2,3.2.4,Win32,60,,,,,,,,,,,,,,,,,,,,,,,,,,,,,
left,0.532000065,1,178,1,0,1,0,1,0,1,0,240,216,1,239,3,4,1,stim/41.jpeg,HouseObjects,1,stim/objects/HouseObjects/recyclingbin2.png,0.9,2,0.2,0.15,left,12,2020-12-17_17h05.47.820,premup-three_ses-02_part-02_label-phase2,3.2.4,Win32,60,,,,,,,,,,,,,,,,,,,,,,,,,,,,,
right,0.603999853,1,179,1,0,1,0,1,0,1,0,240,182,1,239,3,3,3,stim/33.jpeg,Instruments,2,stim/objects/Instruments/musicstand2.png,0.9,2,0.2,0.15,right,12,2020-12-17_17h05.47.820,premup-three_ses-02_part-02_label-phase2,3.2.4,Win32,60,,,,,,,,,,,,,,,,,,,,,,,,,,,,,
left,0.57799983,1,180,1,0,1,0,1,0,1,0,240,133,1,239,2,2,2,stim/22.jpeg,HouseObjects,1,stim/objects/HouseObjects/ironingboard2.png,0.7,1,-0.2,0.15,left,12,2020-12-17_17h05.47.820,premup-three_ses-02_part-02_label-phase2,3.2.4,Win32,60,,,,,,,,,,,,,,,,,,,,,,,,,,,,,
right,0.832999945,1,181,1,0,1,0,1,0,1,0,240,31,1,239,1,5,4,stim/54.jpeg,Instruments,2,stim/objects/Instruments/marimba.png,0.5,3,-0.2,-0.15,right,12,2020-12-17_17h05.47.820,premup-three_ses-02_part-02_label-phase2,3.2.4,Win32,60,,,,,,,,,,,,,,,,,,,,,,,,,,,,,
left,0.822000027,0,182,1,0,1,0,1,0,1,0,240,72,1,239,1,6,1,stim/61.jpeg,Instruments,2,stim/objects/Instruments/metronome.png,0.5,1,-0.2,0.15,right,12,2020-12-17_17h05.47.820,premup-three_ses-02_part-02_label-phase2,3.2.4,Win32,60,,,,,,,,,,,,,,,,,,,,,,,,,,,,,
left,0.589999914,1,183,1,0,1,0,1,0,1,0,240,143,1,239,2,2,4,stim/24.jpeg,HouseObjects,1,stim/objects/HouseObjects/knife2.png,0.7,3,-0.2,-0.15,left,12,2020-12-17_17h05.47.820,premup-three_ses-02_part-02_label-phase2,3.2.4,Win32,60,,,,,,,,,,,,,,,,,,,,,,,,,,,,,
right,0.572999954,1,184,1,0,1,0,1,0,1,0,240,172,1,239,3,3,1,stim/31.jpeg,Instruments,2,stim/objects/Instruments/metronome2.png,0.9,1,-0.2,0.15,right,12,2020-12-17_17h05.47.820,premup-three_ses-02_part-02_label-phase2,3.2.4,Win32,60,,,,,,,,,,,,,,,,,,,,,,,,,,,,,
left,0.700999975,1,185,1,0,1,0,1,0,1,0,240,51,1,239,1,6,4,stim/64.jpeg,HouseObjects,1,stim/objects/HouseObjects/pitcher.png,0.5,4,0.2,-0.15,left,12,2020-12-17_17h05.47.820,premup-three_ses-02_part-02_label-phase2,3.2.4,Win32,60,,,,,,,,,,,,,,,,,,,,,,,,,,,,,
right,0.621000051,0,186,1,0,1,0,1,0,1,0,240,40,1,239,1,6,1,stim/61.jpeg,HouseObjects,1,stim/objects/HouseObjects/lintroller.png,0.5,4,0.2,-0.15,left,12,2020-12-17_17h05.47.820,premup-three_ses-02_part-02_label-phase2,3.2.4,Win32,60,,,,,,,,,,,,,,,,,,,,,,,,,,,,,
,,0,187,1,0,1,0,1,0,1,0,240,18,1,239,1,5,3,stim/53.jpeg,HouseObjects,1,stim/objects/HouseObjects/key.png,0.5,4,0.2,-0.15,left,12,2020-12-17_17h05.47.820,premup-three_ses-02_part-02_label-phase2,3.2.4,Win32,60,,,,,,,,,,,,,,,,,,,,,,,,,,,,,
left,0.592000008,1,188,1,0,1,0,1,0,1,0,240,120,1,239,2,2,1,stim/21.jpeg,HouseObjects,1,stim/objects/HouseObjects/iron2.png,0.7,1,-0.2,0.15,left,12,2020-12-17_17h05.47.820,premup-three_ses-02_part-02_label-phase2,3.2.4,Win32,60,,,,,,,,,,,,,,,,,,,,,,,,,,,,,
right,0.597999811,1,189,1,0,1,0,1,0,1,0,240,109,1,239,2,1,2,stim/12.jpeg,Instruments,2,stim/objects/Instruments/pipepiano.png,0.7,2,0.2,0.15,right,12,2020-12-17_17h05.47.820,premup-three_ses-02_part-02_label-phase2,3.2.4,Win32,60,,,,,,,,,,,,,,,,,,,,,,,,,,,,,
right,0.640000105,1,190,1,0,1,0,1,0,1,0,240,97,1,239,2,1,2,stim/12.jpeg,Instruments,2,stim/objects/Instruments/pipepiano.png,0.7,3,-0.2,-0.15,right,12,2020-12-17_17h05.47.820,premup-three_ses-02_part-02_label-phase2,3.2.4,Win32,60,,,,,,,,,,,,,,,,,,,,,,,,,,,,,
left,0.551999807,1,191,1,0,1,0,1,0,1,0,240,128,1,239,2,2,1,stim/21.jpeg,HouseObjects,1,stim/objects/HouseObjects/iron2.png,0.7,2,0.2,0.15,left,12,2020-12-17_17h05.47.820,premup-three_ses-02_part-02_label-phase2,3.2.4,Win32,60,,,,,,,,,,,,,,,,,,,,,,,,,,,,,
right,0.897000074,0,192,1,0,1,0,1,0,1,0,240,12,1,239,1,5,1,stim/51.jpeg,HouseObjects,1,stim/objects/HouseObjects/iron.png,0.5,2,0.2,0.15,left,12,2020-12-17_17h05.47.820,premup-three_ses-02_part-02_label-phase2,3.2.4,Win32,60,,,,,,,,,,,,,,,,,,,,,,,,,,,,,
right,0.645999908,1,193,1,0,1,0,1,0,1,0,240,116,1,239,2,1,1,stim/11.jpeg,Instruments,2,stim/objects/Instruments/panflute.png,0.7,3,-0.2,-0.15,right,12,2020-12-17_17h05.47.820,premup-three_ses-02_part-02_label-phase2,3.2.4,Win32,60,,,,,,,,,,,,,,,,,,,,,,,,,,,,,
left,0.796000004,1,194,1,0,1,0,1,0,1,0,240,123,1,239,2,2,4,stim/24.jpeg,HouseObjects,1,stim/objects/HouseObjects/knife2.png,0.7,4,0.2,-0.15,left,12,2020-12-17_17h05.47.820,premup-three_ses-02_part-02_label-phase2,3.2.4,Win32,60,,,,,,,,,,,,,,,,,,,,,,,,,,,,,
right,0.707000017,1,195,1,0,1,0,1,0,1,0,240,78,1,239,1,6,3,stim/63.jpeg,Instruments,2,stim/objects/Instruments/musicstand.png,0.5,2,0.2,0.15,right,12,2020-12-17_17h05.47.820,premup-three_ses-02_part-02_label-phase2,3.2.4,Win32,60,,,,,,,,,,,,,,,,,,,,,,,,,,,,,
right,0.678999901,1,196,1,0,1,0,1,0,1,0,240,185,1,239,3,3,2,stim/32.jpeg,Instruments,2,stim/objects/Instruments/musicsheet2.png,0.9,1,-0.2,0.15,right,12,2020-12-17_17h05.47.820,premup-three_ses-02_part-02_label-phase2,3.2.4,Win32,60,,,,,,,,,,,,,,,,,,,,,,,,,,,,,
left,0.553999901,1,197,1,0,1,0,1,0,1,0,240,234,1,239,3,4,3,stim/43.jpeg,HouseObjects,1,stim/objects/HouseObjects/rubbergloves2.png,0.9,1,-0.2,0.15,left,12,2020-12-17_17h05.47.820,premup-three_ses-02_part-02_label-phase2,3.2.4,Win32,60,,,,,,,,,,,,,,,,,,,,,,,,,,,,,
right,0.549999952,1,198,1,0,1,0,1,0,1,0,240,191,1,239,3,3,4,stim/34.jpeg,Instruments,2,stim/objects/Instruments/oboe2.png,0.9,3,-0.2,-0.15,right,12,2020-12-17_17h05.47.820,premup-three_ses-02_part-02_label-phase2,3.2.4,Win32,60,,,,,,,,,,,,,,,,,,,,,,,,,,,,,
left,0.852999926,0,199,1,0,1,0,1,0,1,0,240,61,1,239,1,6,2,stim/62.jpeg,Instruments,2,stim/objects/Instruments/musicsheet.png,0.5,4,0.2,-0.15,right,12,2020-12-17_17h05.47.820,premup-three_ses-02_part-02_label-phase2,3.2.4,Win32,60,,,,,,,,,,,,,,,,,,,,,,,,,,,,,
left,0.690999985,1,200,1,0,1,0,1,0,1,0,240,126,1,239,2,2,3,stim/23.jpeg,HouseObjects,1,stim/objects/HouseObjects/key2.png,0.7,1,-0.2,0.15,left,12,2020-12-17_17h05.47.820,premup-three_ses-02_part-02_label-phase2,3.2.4,Win32,60,,,,,,,,,,,,,,,,,,,,,,,,,,,,,
right,0.63499999,1,201,1,0,1,0,1,0,1,0,240,70,1,239,1,6,3,stim/63.jpeg,Instruments,2,stim/objects/Instruments/musicstand.png,0.5,3,-0.2,-0.15,right,12,2020-12-17_17h05.47.820,premup-three_ses-02_part-02_label-phase2,3.2.4,Win32,60,,,,,,,,,,,,,,,,,,,,,,,,,,,,,
left,0.805000067,0,202,1,0,1,0,1,0,1,0,240,68,1,239,1,6,1,stim/61.jpeg,Instruments,2,stim/objects/Instruments/metronome.png,0.5,3,-0.2,-0.15,right,12,2020-12-17_17h05.47.820,premup-three_ses-02_part-02_label-phase2,3.2.4,Win32,60,,,,,,,,,,,,,,,,,,,,,,,,,,,,,
right,0.661000013,1,203,1,0,1,0,1,0,1,0,240,101,1,239,2,1,2,stim/12.jpeg,Instruments,2,stim/objects/Instruments/pipepiano.png,0.7,3,-0.2,-0.15,right,12,2020-12-17_17h05.47.820,premup-three_ses-02_part-02_label-phase2,3.2.4,Win32,60,,,,,,,,,,,,,,,,,,,,,,,,,,,,,
right,0.754999876,0,204,1,0,1,0,1,0,1,0,240,6,1,239,1,5,3,stim/53.jpeg,HouseObjects,1,stim/objects/HouseObjects/key.png,0.5,4,0.2,-0.15,left,12,2020-12-17_17h05.47.820,premup-three_ses-02_part-02_label-phase2,3.2.4,Win32,60,,,,,,,,,,,,,,,,,,,,,,,,,,,,,
left,0.649000168,1,205,1,0,1,0,1,0,1,0,240,233,1,239,3,4,2,stim/42.jpeg,HouseObjects,1,stim/objects/HouseObjects/remote2.png,0.9,1,-0.2,0.15,left,12,2020-12-17_17h05.47.820,premup-three_ses-02_part-02_label-phase2,3.2.4,Win32,60,,,,,,,,,,,,,,,,,,,,,,,,,,,,,
right,0.625,1,206,1,0,1,0,1,0,1,0,240,106,1,239,2,1,3,stim/13.jpeg,Instruments,2,stim/objects/Instruments/record.png,0.7,4,0.2,-0.15,right,12,2020-12-17_17h05.47.820,premup-three_ses-02_part-02_label-phase2,3.2.4,Win32,60,,,,,,,,,,,,,,,,,,,,,,,,,,,,,
left,0.88499999,1,207,1,0,1,0,1,0,1,0,240,215,1,239,3,4,4,stim/44.jpeg,HouseObjects,1,stim/objects/HouseObjects/rug2.png,0.9,4,0.2,-0.15,left,12,2020-12-17_17h05.47.820,premup-three_ses-02_part-02_label-phase2,3.2.4,Win32,60,,,,,,,,,,,,,,,,,,,,,,,,,,,,,
left,0.636999846,1,208,1,0,1,0,1,0,1,0,240,122,1,239,2,2,3,stim/23.jpeg,HouseObjects,1,stim/objects/HouseObjects/key2.png,0.7,4,0.2,-0.15,left,12,2020-12-17_17h05.47.820,premup-three_ses-02_part-02_label-phase2,3.2.4,Win32,60,,,,,,,,,,,,,,,,,,,,,,,,,,,,,
right,0.770999908,0,209,1,0,1,0,1,0,1,0,240,235,1,239,3,4,4,stim/44.jpeg,HouseObjects,1,stim/objects/HouseObjects/rug2.png,0.9,4,0.2,-0.15,left,12,2020-12-17_17h05.47.820,premup-three_ses-02_part-02_label-phase2,3.2.4,Win32,60,,,,,,,,,,,,,,,,,,,,,,,,,,,,,
left,0.736000061,0,210,1,0,1,0,1,0,1,0,240,67,1,239,1,6,4,stim/64.jpeg,Instruments,2,stim/objects/Instruments/oboe.png,0.5,2,0.2,0.15,right,12,2020-12-17_17h05.47.820,premup-three_ses-02_part-02_label-phase2,3.2.4,Win32,60,,,,,,,,,,,,,,,,,,,,,,,,,,,,,
left,0.724999905,0,211,1,0,1,0,1,0,1,0,240,30,1,239,1,5,3,stim/53.jpeg,Instruments,2,stim/objects/Instruments/maraca.png,0.5,3,-0.2,-0.15,right,12,2020-12-17_17h05.47.820,premup-three_ses-02_part-02_label-phase2,3.2.4,Win32,60,,,,,,,,,,,,,,,,,,,,,,,,,,,,,
left,0.568000078,1,212,1,0,1,0,1,0,1,0,240,206,1,239,3,4,3,stim/43.jpeg,HouseObjects,1,stim/objects/HouseObjects/rubbergloves2.png,0.9,3,-0.2,-0.15,left,12,2020-12-17_17h05.47.820,premup-three_ses-02_part-02_label-phase2,3.2.4,Win32,60,,,,,,,,,,,,,,,,,,,,,,,,,,,,,
right,0.835000038,1,213,1,0,1,0,1,0,1,0,240,25,1,239,1,5,2,stim/52.jpeg,Instruments,2,stim/objects/Instruments/laud.png,0.5,3,-0.2,-0.15,right,12,2020-12-17_17h05.47.820,premup-three_ses-02_part-02_label-phase2,3.2.4,Win32,60,,,,,,,,,,,,,,,,,,,,,,,,,,,,,
left,0.654999971,1,214,1,0,1,0,1,0,1,0,240,131,1,239,2,2,4,stim/24.jpeg,HouseObjects,1,stim/objects/HouseObjects/knife2.png,0.7,2,0.2,0.15,left,12,2020-12-17_17h05.47.820,premup-three_ses-02_part-02_label-phase2,3.2.4,Win32,60,,,,,,,,,,,,,,,,,,,,,,,,,,,,,
left,0.592999935,1,215,1,0,1,0,1,0,1,0,240,232,1,239,3,4,1,stim/41.jpeg,HouseObjects,1,stim/objects/HouseObjects/recyclingbin2.png,0.9,3,-0.2,-0.15,left,12,2020-12-17_17h05.47.820,premup-three_ses-02_part-02_label-phase2,3.2.4,Win32,60,,,,,,,,,,,,,,,,,,,,,,,,,,,,,
right,0.595000029,1,216,1,0,1,0,1,0,1,0,240,196,1,239,3,3,1,stim/31.jpeg,Instruments,2,stim/objects/Instruments/metronome2.png,0.9,1,-0.2,0.15,right,12,2020-12-17_17h05.47.820,premup-three_ses-02_part-02_label-phase2,3.2.4,Win32,60,,,,,,,,,,,,,,,,,,,,,,,,,,,,,
right,0.588999987,1,217,1,0,1,0,1,0,1,0,240,189,1,239,3,3,2,stim/32.jpeg,Instruments,2,stim/objects/Instruments/musicsheet2.png,0.9,4,0.2,-0.15,right,12,2020-12-17_17h05.47.820,premup-three_ses-02_part-02_label-phase2,3.2.4,Win32,60,,,,,,,,,,,,,,,,,,,,,,,,,,,,,
right,0.695000172,1,218,1,0,1,0,1,0,1,0,240,37,1,239,1,5,2,stim/52.jpeg,Instruments,2,stim/objects/Instruments/laud.png,0.5,4,0.2,-0.15,right,12,2020-12-17_17h05.47.820,premup-three_ses-02_part-02_label-phase2,3.2.4,Win32,60,,,,,,,,,,,,,,,,,,,,,,,,,,,,,
left,0.720000029,0,219,1,0,1,0,1,0,1,0,240,76,1,239,1,6,1,stim/61.jpeg,Instruments,2,stim/objects/Instruments/metronome.png,0.5,3,-0.2,-0.15,right,12,2020-12-17_17h05.47.820,premup-three_ses-02_part-02_label-phase2,3.2.4,Win32,60,,,,,,,,,,,,,,,,,,,,,,,,,,,,,
left,0.632999897,1,220,1,0,1,0,1,0,1,0,240,207,1,239,3,4,4,stim/44.jpeg,HouseObjects,1,stim/objects/HouseObjects/rug2.png,0.9,1,-0.2,0.15,left,12,2020-12-17_17h05.47.820,premup-three_ses-02_part-02_label-phase2,3.2.4,Win32,60,,,,,,,,,,,,,,,,,,,,,,,,,,,,,
left,0.722000122,0,221,1,0,1,0,1,0,1,0,240,71,1,239,1,6,4,stim/64.jpeg,Instruments,2,stim/objects/Instruments/oboe.png,0.5,1,-0.2,0.15,right,12,2020-12-17_17h05.47.820,premup-three_ses-02_part-02_label-phase2,3.2.4,Win32,60,,,,,,,,,,,,,,,,,,,,,,,,,,,,,
right,0.869000196,1,222,1,0,1,0,1,0,1,0,240,102,1,239,2,1,3,stim/13.jpeg,Instruments,2,stim/objects/Instruments/record.png,0.7,1,-0.2,0.15,right,12,2020-12-17_17h05.47.820,premup-three_ses-02_part-02_label-phase2,3.2.4,Win32,60,,,,,,,,,,,,,,,,,,,,,,,,,,,,,
,,0,223,1,0,1,0,1,0,1,0,240,39,1,239,1,5,4,stim/54.jpeg,Instruments,2,stim/objects/Instruments/marimba.png,0.5,3,-0.2,-0.15,right,12,2020-12-17_17h05.47.820,premup-three_ses-02_part-02_label-phase2,3.2.4,Win32,60,,,,,,,,,,,,,,,,,,,,,,,,,,,,,
left,0.631999969,1,224,1,0,1,0,1,0,1,0,240,138,1,239,2,2,3,stim/23.jpeg,HouseObjects,1,stim/objects/HouseObjects/key2.png,0.7,1,-0.2,0.15,left,12,2020-12-17_17h05.47.820,premup-three_ses-02_part-02_label-phase2,3.2.4,Win32,60,,,,,,,,,,,,,,,,,,,,,,,,,,,,,
right,0.635999918,0,225,1,0,1,0,1,0,1,0,240,16,1,239,1,5,1,stim/51.jpeg,HouseObjects,1,stim/objects/HouseObjects/iron.png,0.5,1,-0.2,0.15,left,12,2020-12-17_17h05.47.820,premup-three_ses-02_part-02_label-phase2,3.2.4,Win32,60,,,,,,,,,,,,,,,,,,,,,,,,,,,,,
left,0.636999846,1,226,1,0,1,0,1,0,1,0,240,219,1,239,3,4,4,stim/44.jpeg,HouseObjects,1,stim/objects/HouseObjects/rug2.png,0.9,2,0.2,0.15,left,12,2020-12-17_17h05.47.820,premup-three_ses-02_part-02_label-phase2,3.2.4,Win32,60,,,,,,,,,,,,,,,,,,,,,,,,,,,,,
right,0.684999943,0,227,1,0,1,0,1,0,1,0,240,91,1,239,2,1,4,stim/14.jpeg,HouseObjects,1,stim/objects/HouseObjects/rug.png,0.3,3,-0.2,-0.15,left,12,2020-12-17_17h05.47.820,premup-three_ses-02_part-02_label-phase2,3.2.4,Win32,60,,,,,,,,,,,,,,,,,,,,,,,,,,,,,
right,0.670000076,0,228,1,0,1,0,1,0,1,0,240,17,1,239,1,5,2,stim/52.jpeg,HouseObjects,1,stim/objects/HouseObjects/ironingboard.png,0.5,2,0.2,0.15,left,12,2020-12-17_17h05.47.820,premup-three_ses-02_part-02_label-phase2,3.2.4,Win32,60,,,,,,,,,,,,,,,,,,,,,,,,,,,,,
right,0.705000162,0,229,1,0,1,0,1,0,1,0,240,50,1,239,1,6,3,stim/63.jpeg,HouseObjects,1,stim/objects/HouseObjects/pan.png,0.5,4,0.2,-0.15,left,12,2020-12-17_17h05.47.820,premup-three_ses-02_part-02_label-phase2,3.2.4,Win32,60,,,,,,,,,,,,,,,,,,,,,,,,,,,,,
,,0,230,1,0,1,0,1,0,1,0,240,21,1,239,1,5,2,stim/52.jpeg,Instruments,2,stim/objects/Instruments/laud.png,0.5,2,0.2,0.15,right,12,2020-12-17_17h05.47.820,premup-three_ses-02_part-02_label-phase2,3.2.4,Win32,60,,,,,,,,,,,,,,,,,,,,,,,,,,,,,
left,0.672999859,0,231,1,0,1,0,1,0,1,0,240,73,1,239,1,6,2,stim/62.jpeg,Instruments,2,stim/objects/Instruments/musicsheet.png,0.5,1,-0.2,0.15,right,12,2020-12-17_17h05.47.820,premup-three_ses-02_part-02_label-phase2,3.2.4,Win32,60,,,,,,,,,,,,,,,,,,,,,,,,,,,,,
right,0.572000027,0,232,1,0,1,0,1,0,1,0,240,162,1,239,3,3,3,stim/33.jpeg,HouseObjects,1,stim/objects/HouseObjects/pan2.png,0.1,4,0.2,-0.15,left,12,2020-12-17_17h05.47.820,premup-three_ses-02_part-02_label-phase2,3.2.4,Win32,60,,,,,,,,,,,,,,,,,,,,,,,,,,,,,
right,0.537000179,1,233,1,0,1,0,1,0,1,0,240,192,1,239,3,3,1,stim/31.jpeg,Instruments,2,stim/objects/Instruments/metronome2.png,0.9,3,-0.2,-0.15,right,12,2020-12-17_17h05.47.820,premup-three_ses-02_part-02_label-phase2,3.2.4,Win32,60,,,,,,,,,,,,,,,,,,,,,,,,,,,,,
right,0.470999956,1,234,1,0,1,0,1,0,1,0,240,186,1,239,3,3,3,stim/33.jpeg,Instruments,2,stim/objects/Instruments/musicstand2.png,0.9,3,-0.2,-0.15,right,12,2020-12-17_17h05.47.820,premup-three_ses-02_part-02_label-phase2,3.2.4,Win32,60,,,,,,,,,,,,,,,,,,,,,,,,,,,,,
right,0.638999939,1,235,1,0,1,0,1,0,1,0,240,103,1,239,2,1,4,stim/14.jpeg,Instruments,2,stim/objects/Instruments/record_player.png,0.7,3,-0.2,-0.15,right,12,2020-12-17_17h05.47.820,premup-three_ses-02_part-02_label-phase2,3.2.4,Win32,60,,,,,,,,,,,,,,,,,,,,,,,,,,,,,
right,0.572000027,1,236,1,0,1,0,1,0,1,0,240,171,1,239,3,3,4,stim/34.jpeg,Instruments,2,stim/objects/Instruments/oboe2.png,0.9,2,0.2,0.15,right,12,2020-12-17_17h05.47.820,premup-three_ses-02_part-02_label-phase2,3.2.4,Win32,60,,,,,,,,,,,,,,,,,,,,,,,,,,,,,
right,0.504999876,1,237,1,0,1,0,1,0,1,0,240,167,1,239,3,3,4,stim/34.jpeg,Instruments,2,stim/objects/Instruments/oboe2.png,0.9,4,0.2,-0.15,right,12,2020-12-17_17h05.47.820,premup-three_ses-02_part-02_label-phase2,3.2.4,Win32,60,,,,,,,,,,,,,,,,,,,,,,,,,,,,,
left,0.621000051,1,238,1,0,1,0,1,0,1,0,240,221,1,239,3,4,2,stim/42.jpeg,HouseObjects,1,stim/objects/HouseObjects/remote2.png,0.9,3,-0.2,-0.15,left,12,2020-12-17_17h05.47.820,premup-three_ses-02_part-02_label-phase2,3.2.4,Win32,60,,,,,,,,,,,,,,,,,,,,,,,,,,,,,
left,0.715000153,1,239,1,0,1,0,1,0,1,0,240,52,1,239,1,6,1,stim/61.jpeg,HouseObjects,1,stim/objects/HouseObjects/lintroller.png,0.5,2,0.2,0.15,left,12,2020-12-17_17h05.47.820,premup-three_ses-02_part-02_label-phase2,3.2.4,Win32,60,,,,,,,,,,,,,,,,,,,,,,,,,,,,,
left,0.575000048,1,240,1,0,1,0,1,0,1,0,240,203,1,239,3,4,4,stim/44.jpeg,HouseObjects,1,stim/objects/HouseObjects/rug2.png,0.9,2,0.2,0.15,left,12,2020-12-17_17h05.47.820,premup-three_ses-02_part-02_label-phase2,3.2.4,Win32,60,,,,,,,,,,,,,,,,,,,,,,,,,,,,,
,,,,1,0,1,0,1,0,,,,,,,,1,,stim/11.jpeg,,,,,,,,,12,2020-12-17_17h05.47.820,premup-three_ses-02_part-02_label-phase2,3.2.4,Win32,60,11,14.7349999,,,1,0,6,0,1,5,Household items,45,55,Music items,45,55,,,,,,,,,,,,,
,,,,1,0,1,0,1,0,,,,,,,,3,,stim/31.jpeg,,,,,,,,,12,2020-12-17_17h05.47.820,premup-three_ses-02_part-02_label-phase2,3.2.4,Win32,60,8,12.59100008,,,1,0,6,2,1,5,Household items,65,75,Music items,25,35,,,,,,,,,,,,,
,,,,1,0,1,0,1,0,,,,,,,,6,,stim/61.jpeg,,,,,,,,,12,2020-12-17_17h05.47.820,premup-three_ses-02_part-02_label-phase2,3.2.4,Win32,60,64,64.4460001,,,1,0,6,5,1,5,Household items,5,15,Music items,85,95,,,,,,,,,,,,,
,,,,1,0,1,0,1,0,,,,,,,,4,,stim/41.jpeg,,,,,,,,,12,2020-12-17_17h05.47.820,premup-three_ses-02_part-02_label-phase2,3.2.4,Win32,60,82,5.833000183,,,1,0,6,3,1,5,Household items,65,75,Music items,25,35,,,,,,,,,,,,,
,,,,1,0,1,0,1,0,,,,,,,,2,,stim/21.jpeg,,,,,,,,,12,2020-12-17_17h05.47.820,premup-three_ses-02_part-02_label-phase2,3.2.4,Win32,60,16,18.89999986,,,1,0,6,1,1,5,Music items,45,55,Household items,45,55,,,,,,,,,,,,,
,,,,1,0,1,0,1,0,,,,,,,,5,,stim/51.jpeg,,,,,,,,,12,2020-12-17_17h05.47.820,premup-three_ses-02_part-02_label-phase2,3.2.4,Win32,60,75,5.881000042,,,1,0,6,4,1,5,Music items,5,15,Household items,85,95,,,,,,,,,,,,,
,,,,1,0,1,0,1,0,,,,,,,,,,,,,,,,,,,12,2020-12-17_17h05.47.820,premup-three_ses-02_part-02_label-phase2,3.2.4,Win32,60,,,,,,,,,,,,,,,,,,,,,,,,,,,,,
,,0,241,,,,,,,,,,,,,2,2,3,stim/23.jpeg,Instruments,2,stim/objects/Instruments/electricguitar2.png,0.3,1,-0.2,0.15,right,12,2020-12-17_17h05.47.820,premup-three_ses-02_part-02_label-phase2,3.2.4,Win32,60,,,,,,,,,,,,,,,,,1,0,330,129,1,329,1,,,,,,
left,0.500999928,1,242,,,,,,,,,,,,,2,2,2,stim/22.jpeg,HouseObjects,1,stim/objects/HouseObjects/cushion.png,0.7,3,-0.2,-0.15,left,12,2020-12-17_17h05.47.820,premup-three_ses-02_part-02_label-phase2,3.2.4,Win32,60,,,,,,,,,,,,,,,,,1,0,330,108,1,329,2,,,,,,
left,0.717000008,0,243,,,,,,,,,,,,,2,2,3,stim/23.jpeg,Instruments,2,stim/objects/Instruments/cello2.png,0.3,3,-0.2,-0.15,right,12,2020-12-17_17h05.47.820,premup-three_ses-02_part-02_label-phase2,3.2.4,Win32,60,,,,,,,,,,,,,,,,,1,0,330,121,1,329,1,,,,,,
left,0.676000118,0,244,,,,,,,,,,,,,2,2,2,stim/22.jpeg,Instruments,2,stim/objects/Instruments/cornet2.png,0.3,4,0.2,-0.15,right,12,2020-12-17_17h05.47.820,premup-three_ses-02_part-02_label-phase2,3.2.4,Win32,60,,,,,,,,,,,,,,,,,1,0,330,124,1,329,1,,,,,,
left,0.784999847,1,245,,,,,,,,,,,,,2,2,2,stim/22.jpeg,HouseObjects,1,stim/objects/HouseObjects/dishsoap.png,0.7,2,0.2,0.15,left,12,2020-12-17_17h05.47.820,premup-three_ses-02_part-02_label-phase2,3.2.4,Win32,60,,,,,,,,,,,,,,,,,1,0,330,104,1,329,2,,,,,,
right,0.63499999,1,246,,,,,,,,,,,,,3,3,1,stim/31.jpeg,Instruments,2,stim/objects/Instruments/grandpiano.png,0.9,2,0.2,0.15,right,12,2020-12-17_17h05.47.820,premup-three_ses-02_part-02_label-phase2,3.2.4,Win32,60,,,,,,,,,,,,,,,,,1,0,330,154,1,329,2,,,,,,
left,0.68200016,0,247,,,,,,,,,,,,,1,6,1,stim/61.jpeg,Instruments,2,stim/objects/Instruments/tambourine.png,0.5,2,0.2,0.15,right,12,2020-12-17_17h05.47.820,premup-three_ses-02_part-02_label-phase2,3.2.4,Win32,60,,,,,,,,,,,,,,,,,1,0,330,56,1,329,1,,,,,,
right,0.720999956,1,248,,,,,,,,,,,,,2,1,4,stim/14.jpeg,Instruments,2,stim/objects/Instruments/cymbal.png,0.7,2,0.2,0.15,right,12,2020-12-17_17h05.47.820,premup-three_ses-02_part-02_label-phase2,3.2.4,Win32,60,,,,,,,,,,,,,,,,,1,0,330,75,1,329,2,,,,,,
left,0.621999979,1,249,,,,,,,,,,,,,3,4,3,stim/43.jpeg,HouseObjects,1,stim/objects/HouseObjects/glass.png,0.9,2,0.2,0.15,left,12,2020-12-17_17h05.47.820,premup-three_ses-02_part-02_label-phase2,3.2.4,Win32,60,,,,,,,,,,,,,,,,,1,0,330,244,1,329,2,,,,,,
left,0.901000023,0,250,,,,,,,,,,,,,2,1,1,stim/11.jpeg,Instruments,2,stim/objects/Instruments/balalaika2.png,0.7,4,0.2,-0.15,right,12,2020-12-17_17h05.47.820,premup-three_ses-02_part-02_label-phase2,3.2.4,Win32,60,,,,,,,,,,,,,,,,,1,0,330,92,1,329,1,,,,,,
right,0.625,0,251,,,,,,,,,,,,,3,3,2,stim/32.jpeg,HouseObjects,1,stim/objects/HouseObjects/glassmop2.png,0.1,3,-0.2,-0.15,left,12,2020-12-17_17h05.47.820,premup-three_ses-02_part-02_label-phase2,3.2.4,Win32,60,,,,,,,,,,,,,,,,,1,0,330,135,1,329,1,,,,,,
left,0.684000015,1,252,,,,,,,,,,,,,3,4,1,stim/41.jpeg,HouseObjects,1,stim/objects/HouseObjects/garbagebin.png,0.9,2,0.2,0.15,left,12,2020-12-17_17h05.47.820,premup-three_ses-02_part-02_label-phase2,3.2.4,Win32,60,,,,,,,,,,,,,,,,,1,0,330,258,1,329,2,,,,,,
right,0.601999998,1,253,,,,,,,,,,,,,2,1,3,stim/13.jpeg,Instruments,2,stim/objects/Instruments/electricguitar.png,0.7,2,0.2,0.15,right,12,2020-12-17_17h05.47.820,premup-three_ses-02_part-02_label-phase2,3.2.4,Win32,60,,,,,,,,,,,,,,,,,1,0,330,74,1,329,2,,,,,,
right,0.615999937,1,254,,,,,,,,,,,,,3,3,4,stim/34.jpeg,Instruments,2,stim/objects/Instruments/frenchhorn.png,0.9,1,-0.2,0.15,right,12,2020-12-17_17h05.47.820,premup-three_ses-02_part-02_label-phase2,3.2.4,Win32,60,,,,,,,,,,,,,,,,,1,0,330,177,1,329,2,,,,,,
left,0.631999969,0,255,,,,,,,,,,,,,2,2,1,stim/21.jpeg,Instruments,2,stim/objects/Instruments/clarinet2.png,0.3,1,-0.2,0.15,right,12,2020-12-17_17h05.47.820,premup-three_ses-02_part-02_label-phase2,3.2.4,Win32,60,,,,,,,,,,,,,,,,,1,0,330,123,1,329,1,,,,,,
right,0.769999981,0,256,,,,,,,,,,,,,1,6,2,stim/62.jpeg,HouseObjects,1,stim/objects/HouseObjects/scale.png,0.5,2,0.2,0.15,left,12,2020-12-17_17h05.47.820,premup-three_ses-02_part-02_label-phase2,3.2.4,Win32,60,,,,,,,,,,,,,,,,,1,0,330,41,1,329,1,,,,,,
left,0.718000174,1,257,,,,,,,,,,,,,3,4,2,stim/42.jpeg,HouseObjects,1,stim/objects/HouseObjects/garbagebin.png,0.9,3,-0.2,-0.15,left,12,2020-12-17_17h05.47.820,premup-three_ses-02_part-02_label-phase2,3.2.4,Win32,60,,,,,,,,,,,,,,,,,1,0,330,243,1,329,2,,,,,,
right,0.596999884,1,258,,,,,,,,,,,,,3,3,2,stim/32.jpeg,Instruments,2,stim/objects/Instruments/flute.png,0.9,2,0.2,0.15,right,12,2020-12-17_17h05.47.820,premup-three_ses-02_part-02_label-phase2,3.2.4,Win32,60,,,,,,,,,,,,,,,,,1,0,330,215,1,329,2,,,,,,
left,0.815999985,0,259,,,,,,,,,,,,,1,6,1,stim/61.jpeg,Instruments,2,stim/objects/Instruments/chime.png,0.5,3,-0.2,-0.15,right,12,2020-12-17_17h05.47.820,premup-three_ses-02_part-02_label-phase2,3.2.4,Win32,60,,,,,,,,,,,,,,,,,1,0,330,52,1,329,2,,,,,,
left,0.77699995,1,260,,,,,,,,,,,,,3,4,3,stim/43.jpeg,HouseObjects,1,stim/objects/HouseObjects/glass.png,0.9,3,-0.2,-0.15,left,12,2020-12-17_17h05.47.820,premup-three_ses-02_part-02_label-phase2,3.2.4,Win32,60,,,,,,,,,,,,,,,,,1,0,330,304,1,329,2,,,,,,
left,0.710000038,1,261,,,,,,,,,,,,,2,2,3,stim/23.jpeg,HouseObjects,1,stim/objects/HouseObjects/clothesdryingrack.png,0.7,4,0.2,-0.15,left,12,2020-12-17_17h05.47.820,premup-three_ses-02_part-02_label-phase2,3.2.4,Win32,60,,,,,,,,,,,,,,,,,1,0,330,105,1,329,2,,,,,,
right,0.671999931,1,262,,,,,,,,,,,,,3,3,4,stim/34.jpeg,Instruments,2,stim/objects/Instruments/grandpiano.png,0.9,4,0.2,-0.15,right,12,2020-12-17_17h05.47.820,premup-three_ses-02_part-02_label-phase2,3.2.4,Win32,60,,,,,,,,,,,,,,,,,1,0,330,149,1,329,2,,,,,,
left,0.606000185,1,263,,,,,,,,,,,,,3,4,4,stim/44.jpeg,HouseObjects,1,stim/objects/HouseObjects/dustpan.png,0.9,1,-0.2,0.15,left,12,2020-12-17_17h05.47.820,premup-three_ses-02_part-02_label-phase2,3.2.4,Win32,60,,,,,,,,,,,,,,,,,1,0,330,241,1,329,2,,,,,,
left,0.592999935,1,264,,,,,,,,,,,,,3,4,2,stim/42.jpeg,HouseObjects,1,stim/objects/HouseObjects/dustpan.png,0.9,3,-0.2,-0.15,left,12,2020-12-17_17h05.47.820,premup-three_ses-02_part-02_label-phase2,3.2.4,Win32,60,,,,,,,,,,,,,,,,,1,0,330,291,1,329,2,,,,,,
right,0.570999861,1,265,,,,,,,,,,,,,3,3,2,stim/32.jpeg,Instruments,2,stim/objects/Instruments/frenchhorn.png,0.9,2,0.2,0.15,right,12,2020-12-17_17h05.47.820,premup-three_ses-02_part-02_label-phase2,3.2.4,Win32,60,,,,,,,,,,,,,,,,,1,0,330,167,1,329,2,,,,,,
right,0.81400013,0,266,,,,,,,,,,,,,1,6,1,stim/61.jpeg,HouseObjects,1,stim/objects/HouseObjects/broom.png,0.5,3,-0.2,-0.15,left,12,2020-12-17_17h05.47.820,premup-three_ses-02_part-02_label-phase2,3.2.4,Win32,60,,,,,,,,,,,,,,,,,1,0,330,32,1,329,2,,,,,,
right,0.630000114,1,267,,,,,,,,,,,,,3,3,1,stim/31.jpeg,Instruments,2,stim/objects/Instruments/frenchhorn.png,0.9,1,-0.2,0.15,right,12,2020-12-17_17h05.47.820,premup-three_ses-02_part-02_label-phase2,3.2.4,Win32,60,,,,,,,,,,,,,,,,,1,0,330,162,1,329,2,,,,,,
right,0.677999973,1,268,,,,,,,,,,,,,3,3,3,stim/33.jpeg,Instruments,2,stim/objects/Instruments/gong.png,0.9,3,-0.2,-0.15,right,12,2020-12-17_17h05.47.820,premup-three_ses-02_part-02_label-phase2,3.2.4,Win32,60,,,,,,,,,,,,,,,,,1,0,330,188,1,329,2,,,,,,
right,0.569000006,1,269,,,,,,,,,,,,,3,3,3,stim/33.jpeg,Instruments,2,stim/objects/Instruments/gong.png,0.9,3,-0.2,-0.15,right,12,2020-12-17_17h05.47.820,premup-three_ses-02_part-02_label-phase2,3.2.4,Win32,60,,,,,,,,,,,,,,,,,1,0,330,168,1,329,2,,,,,,
left,0.574999809,1,270,,,,,,,,,,,,,3,4,4,stim/44.jpeg,HouseObjects,1,stim/objects/HouseObjects/glass.png,0.9,2,0.2,0.15,left,12,2020-12-17_17h05.47.820,premup-three_ses-02_part-02_label-phase2,3.2.4,Win32,60,,,,,,,,,,,,,,,,,1,0,330,249,1,329,2,,,,,,
left,0.552000046,0,271,,,,,,,,,,,,,2,2,1,stim/21.jpeg,Instruments,2,stim/objects/Instruments/drums2.png,0.3,3,-0.2,-0.15,right,12,2020-12-17_17h05.47.820,premup-three_ses-02_part-02_label-phase2,3.2.4,Win32,60,,,,,,,,,,,,,,,,,1,0,330,127,1,329,1,,,,,,
right,0.775000095,1,272,,,,,,,,,,,,,3,3,3,stim/33.jpeg,Instruments,2,stim/objects/Instruments/grandpiano.png,0.9,4,0.2,-0.15,right,12,2020-12-17_17h05.47.820,premup-three_ses-02_part-02_label-phase2,3.2.4,Win32,60,,,,,,,,,,,,,,,,,1,0,330,204,1,329,2,,,,,,
left,0.731999874,1,273,,,,,,,,,,,,,3,4,2,stim/42.jpeg,HouseObjects,1,stim/objects/HouseObjects/doormat.png,0.9,1,-0.2,0.15,left,12,2020-12-17_17h05.47.820,premup-three_ses-02_part-02_label-phase2,3.2.4,Win32,60,,,,,,,,,,,,,,,,,1,0,330,235,1,329,2,,,,,,
right,0.559999943,1,274,,,,,,,,,,,,,3,3,1,stim/31.jpeg,Instruments,2,stim/objects/Instruments/gong.png,0.9,4,0.2,-0.15,right,12,2020-12-17_17h05.47.820,premup-three_ses-02_part-02_label-phase2,3.2.4,Win32,60,,,,,,,,,,,,,,,,,1,0,330,218,1,329,2,,,,,,
left,0.648000002,1,275,,,,,,,,,,,,,3,4,3,stim/43.jpeg,HouseObjects,1,stim/objects/HouseObjects/sponge2.png,0.9,4,0.2,-0.15,left,12,2020-12-17_17h05.47.820,premup-three_ses-02_part-02_label-phase2,3.2.4,Win32,60,,,,,,,,,,,,,,,,,1,0,330,312,1,329,1,,,,,,
left,0.59100008,1,276,,,,,,,,,,,,,3,4,4,stim/44.jpeg,HouseObjects,1,stim/objects/HouseObjects/garbagebin.png,0.9,1,-0.2,0.15,left,12,2020-12-17_17h05.47.820,premup-three_ses-02_part-02_label-phase2,3.2.4,Win32,60,,,,,,,,,,,,,,,,,1,0,330,273,1,329,2,,,,,,
left,0.621999979,1,277,,,,,,,,,,,,,3,4,3,stim/43.jpeg,HouseObjects,1,stim/objects/HouseObjects/flyswatter.png,0.9,4,0.2,-0.15,left,12,2020-12-17_17h05.47.820,premup-three_ses-02_part-02_label-phase2,3.2.4,Win32,60,,,,,,,,,,,,,,,,,1,0,330,292,1,329,2,,,,,,
right,0.582999945,1,278,,,,,,,,,,,,,3,3,2,stim/32.jpeg,Instruments,2,stim/objects/Instruments/flutetrans.png,0.9,1,-0.2,0.15,right,12,2020-12-17_17h05.47.820,premup-three_ses-02_part-02_label-phase2,3.2.4,Win32,60,,,,,,,,,,,,,,,,,1,0,330,151,1,329,2,,,,,,
right,0.696000099,1,279,,,,,,,,,,,,,2,1,3,stim/13.jpeg,Instruments,2,stim/objects/Instruments/electricdrumset.png,0.7,4,0.2,-0.15,right,12,2020-12-17_17h05.47.820,premup-three_ses-02_part-02_label-phase2,3.2.4,Win32,60,,,,,,,,,,,,,,,,,1,0,330,78,1,329,2,,,,,,
right,0.822000027,0,280,,,,,,,,,,,,,1,6,3,stim/63.jpeg,HouseObjects,1,stim/objects/HouseObjects/clock.png,0.5,4,0.2,-0.15,left,12,2020-12-17_17h05.47.820,premup-three_ses-02_part-02_label-phase2,3.2.4,Win32,60,,,,,,,,,,,,,,,,,1,0,330,34,1,329,2,,,,,,
right,0.651000023,1,281,,,,,,,,,,,,,3,3,2,stim/32.jpeg,Instruments,2,stim/objects/Instruments/flute.png,0.9,4,0.2,-0.15,right,12,2020-12-17_17h05.47.820,premup-three_ses-02_part-02_label-phase2,3.2.4,Win32,60,,,,,,,,,,,,,,,,,1,0,330,155,1,329,2,,,,,,
right,0.751000166,1,282,,,,,,,,,,,,,1,5,3,stim/53.jpeg,Instruments,2,stim/objects/Instruments/balalaika.png,0.5,4,0.2,-0.15,right,12,2020-12-17_17h05.47.820,premup-three_ses-02_part-02_label-phase2,3.2.4,Win32,60,,,,,,,,,,,,,,,,,1,0,330,22,1,329,2,,,,,,
right,0.712000132,1,283,,,,,,,,,,,,,1,5,1,stim/51.jpeg,Instruments,2,stim/objects/Instruments/acousticguitar.png,0.5,3,-0.2,-0.15,right,12,2020-12-17_17h05.47.820,premup-three_ses-02_part-02_label-phase2,3.2.4,Win32,60,,,,,,,,,,,,,,,,,1,0,330,16,1,329,2,,,,,,
right,0.684000015,0,284,,,,,,,,,,,,,3,3,1,stim/31.jpeg,HouseObjects,1,stim/objects/HouseObjects/handvacuum2.png,0.1,2,0.2,0.15,left,12,2020-12-17_17h05.47.820,premup-three_ses-02_part-02_label-phase2,3.2.4,Win32,60,,,,,,,,,,,,,,,,,1,0,330,138,1,329,1,,,,,,
left,0.604000092,1,285,,,,,,,,,,,,,3,4,2,stim/42.jpeg,HouseObjects,1,stim/objects/HouseObjects/dustpan.png,0.9,1,-0.2,0.15,left,12,2020-12-17_17h05.47.820,premup-three_ses-02_part-02_label-phase2,3.2.4,Win32,60,,,,,,,,,,,,,,,,,1,0,330,251,1,329,2,,,,,,
right,0.572000027,0,286,,,,,,,,,,,,,2,1,2,stim/12.jpeg,HouseObjects,1,stim/objects/HouseObjects/thread.png,0.3,3,-0.2,-0.15,left,12,2020-12-17_17h05.47.820,premup-three_ses-02_part-02_label-phase2,3.2.4,Win32,60,,,,,,,,,,,,,,,,,1,0,330,61,1,329,1,,,,,,
right,0.664999962,0,287,,,,,,,,,,,,,3,3,4,stim/34.jpeg,HouseObjects,1,stim/objects/HouseObjects/handbrush2.png,0.1,3,-0.2,-0.15,left,12,2020-12-17_17h05.47.820,premup-three_ses-02_part-02_label-phase2,3.2.4,Win32,60,,,,,,,,,,,,,,,,,1,0,330,137,1,329,1,,,,,,
right,0.590000153,1,288,,,,,,,,,,,,,2,1,1,stim/11.jpeg,Instruments,2,stim/objects/Instruments/cymbal.png,0.7,4,0.2,-0.15,right,12,2020-12-17_17h05.47.820,premup-three_ses-02_part-02_label-phase2,3.2.4,Win32,60,,,,,,,,,,,,,,,,,1,0,330,80,1,329,2,,,,,,
left,0.633000135,1,289,,,,,,,,,,,,,3,4,4,stim/44.jpeg,HouseObjects,1,stim/objects/HouseObjects/doormat.png,0.9,1,-0.2,0.15,left,12,2020-12-17_17h05.47.820,premup-three_ses-02_part-02_label-phase2,3.2.4,Win32,60,,,,,,,,,,,,,,,,,1,0,330,245,1,329,2,,,,,,
left,0.664999962,1,290,,,,,,,,,,,,,3,4,3,stim/43.jpeg,HouseObjects,1,stim/objects/HouseObjects/glass.png,0.9,4,0.2,-0.15,left,12,2020-12-17_17h05.47.820,premup-three_ses-02_part-02_label-phase2,3.2.4,Win32,60,,,,,,,,,,,,,,,,,1,0,330,264,1,329,2,,,,,,
left,0.600000143,1,291,,,,,,,,,,,,,3,4,1,stim/41.jpeg,HouseObjects,1,stim/objects/HouseObjects/flyswatter.png,0.9,1,-0.2,0.15,left,12,2020-12-17_17h05.47.820,premup-three_ses-02_part-02_label-phase2,3.2.4,Win32,60,,,,,,,,,,,,,,,,,1,0,330,302,1,329,2,,,,,,
right,0.534000158,1,292,,,,,,,,,,,,,3,3,3,stim/33.jpeg,Instruments,2,stim/objects/Instruments/frenchhorn.png,0.9,4,0.2,-0.15,right,12,2020-12-17_17h05.47.820,premup-three_ses-02_part-02_label-phase2,3.2.4,Win32,60,,,,,,,,,,,,,,,,,1,0,330,192,1,329,2,,,,,,
right,0.749000072,0,293,,,,,,,,,,,,,2,2,3,stim/23.jpeg,HouseObjects,1,stim/objects/HouseObjects/clothespin.png,0.7,2,0.2,0.15,left,12,2020-12-17_17h05.47.820,premup-three_ses-02_part-02_label-phase2,3.2.4,Win32,60,,,,,,,,,,,,,,,,,1,0,330,101,1,329,2,,,,,,
left,0.59800005,1,294,,,,,,,,,,,,,3,4,3,stim/43.jpeg,HouseObjects,1,stim/objects/HouseObjects/garbagebin.png,0.9,3,-0.2,-0.15,left,12,2020-12-17_17h05.47.820,premup-three_ses-02_part-02_label-phase2,3.2.4,Win32,60,,,,,,,,,,,,,,,,,1,0,330,308,1,329,2,,,,,,
right,0.532000065,1,295,,,,,,,,,,,,,2,1,2,stim/12.jpeg,Instruments,2,stim/objects/Instruments/doublebass.png,0.7,1,-0.2,0.15,right,12,2020-12-17_17h05.47.820,premup-three_ses-02_part-02_label-phase2,3.2.4,Win32,60,,,,,,,,,,,,,,,,,1,0,330,81,1,329,2,,,,,,
right,0.499000072,1,296,,,,,,,,,,,,,3,3,4,stim/34.jpeg,Instruments,2,stim/objects/Instruments/grandpiano.png,0.9,4,0.2,-0.15,right,12,2020-12-17_17h05.47.820,premup-three_ses-02_part-02_label-phase2,3.2.4,Win32,60,,,,,,,,,,,,,,,,,1,0,330,169,1,329,2,,,,,,
right,0.526000023,1,297,,,,,,,,,,,,,3,3,1,stim/31.jpeg,Instruments,2,stim/objects/Instruments/flutetrans.png,0.9,1,-0.2,0.15,right,12,2020-12-17_17h05.47.820,premup-three_ses-02_part-02_label-phase2,3.2.4,Win32,60,,,,,,,,,,,,,,,,,1,0,330,186,1,329,2,,,,,,
right,0.805000067,0,298,,,,,,,,,,,,,3,4,3,stim/43.jpeg,HouseObjects,1,stim/objects/HouseObjects/flyswatter.png,0.9,4,0.2,-0.15,left,12,2020-12-17_17h05.47.820,premup-three_ses-02_part-02_label-phase2,3.2.4,Win32,60,,,,,,,,,,,,,,,,,1,0,330,272,1,329,2,,,,,,
right,0.684000015,1,299,,,,,,,,,,,,,3,3,3,stim/33.jpeg,Instruments,2,stim/objects/Instruments/flutetrans.png,0.9,3,-0.2,-0.15,right,12,2020-12-17_17h05.47.820,premup-three_ses-02_part-02_label-phase2,3.2.4,Win32,60,,,,,,,,,,,,,,,,,1,0,330,216,1,329,2,,,,,,
right,0.54399991,1,300,,,,,,,,,,,,,3,3,4,stim/34.jpeg,Instruments,2,stim/objects/Instruments/frenchhorn.png,0.9,1,-0.2,0.15,right,12,2020-12-17_17h05.47.820,premup-three_ses-02_part-02_label-phase2,3.2.4,Win32,60,,,,,,,,,,,,,,,,,1,0,330,157,1,329,2,,,,,,
left,0.638000011,1,301,,,,,,,,,,,,,2,2,1,stim/21.jpeg,HouseObjects,1,stim/objects/HouseObjects/bottle2.png,0.7,1,-0.2,0.15,left,12,2020-12-17_17h05.47.820,premup-three_ses-02_part-02_label-phase2,3.2.4,Win32,60,,,,,,,,,,,,,,,,,1,0,330,111,1,329,1,,,,,,
left,0.692000151,0,302,,,,,,,,,,,,,3,4,2,stim/42.jpeg,Instruments,2,stim/objects/Instruments/triangle2.png,0.1,1,-0.2,0.15,right,12,2020-12-17_17h05.47.820,premup-three_ses-02_part-02_label-phase2,3.2.4,Win32,60,,,,,,,,,,,,,,,,,1,0,330,323,1,329,1,,,,,,
right,0.569999933,1,303,,,,,,,,,,,,,3,3,4,stim/34.jpeg,Instruments,2,stim/objects/Instruments/gong.png,0.9,1,-0.2,0.15,right,12,2020-12-17_17h05.47.820,premup-three_ses-02_part-02_label-phase2,3.2.4,Win32,60,,,,,,,,,,,,,,,,,1,0,330,153,1,329,2,,,,,,
left,0.825999975,0,304,,,,,,,,,,,,,3,4,2,stim/42.jpeg,Instruments,2,stim/objects/Instruments/violin2.png,0.1,2,0.2,0.15,right,12,2020-12-17_17h05.47.820,premup-three_ses-02_part-02_label-phase2,3.2.4,Win32,60,,,,,,,,,,,,,,,,,1,0,330,327,1,329,1,,,,,,
left,0.868999958,1,305,,,,,,,,,,,,,1,5,4,stim/54.jpeg,HouseObjects,1,stim/objects/HouseObjects/hairdryer.png,0.5,3,-0.2,-0.15,left,12,2020-12-17_17h05.47.820,premup-three_ses-02_part-02_label-phase2,3.2.4,Win32,60,,,,,,,,,,,,,,,,,1,0,330,11,1,329,1,,,,,,
right,0.736999989,0,306,,,,,,,,,,,,,1,6,3,stim/63.jpeg,HouseObjects,1,stim/objects/HouseObjects/bucket.png,0.5,2,0.2,0.15,left,12,2020-12-17_17h05.47.820,premup-three_ses-02_part-02_label-phase2,3.2.4,Win32,60,,,,,,,,,,,,,,,,,1,0,330,38,1,329,2,,,,,,
right,0.688000202,1,307,,,,,,,,,,,,,3,3,3,stim/33.jpeg,Instruments,2,stim/objects/Instruments/flute.png,0.9,1,-0.2,0.15,right,12,2020-12-17_17h05.47.820,premup-three_ses-02_part-02_label-phase2,3.2.4,Win32,60,,,,,,,,,,,,,,,,,1,0,330,140,1,329,2,,,,,,
right,0.710999966,1,308,,,,,,,,,,,,,3,3,1,stim/31.jpeg,Instruments,2,stim/objects/Instruments/grandpiano.png,0.9,4,0.2,-0.15,right,12,2020-12-17_17h05.47.820,premup-three_ses-02_part-02_label-phase2,3.2.4,Win32,60,,,,,,,,,,,,,,,,,1,0,330,214,1,329,2,,,,,,
left,0.61500001,1,309,,,,,,,,,,,,,3,4,3,stim/43.jpeg,HouseObjects,1,stim/objects/HouseObjects/glass.png,0.9,1,-0.2,0.15,left,12,2020-12-17_17h05.47.820,premup-three_ses-02_part-02_label-phase2,3.2.4,Win32,60,,,,,,,,,,,,,,,,,1,0,330,284,1,329,2,,,,,,
left,0.88499999,0,310,,,,,,,,,,,,,1,5,4,stim/54.jpeg,Instruments,2,stim/objects/Instruments/accordion.png,0.5,4,0.2,-0.15,right,12,2020-12-17_17h05.47.820,premup-three_ses-02_part-02_label-phase2,3.2.4,Win32,60,,,,,,,,,,,,,,,,,1,0,330,15,1,329,2,,,,,,
left,0.75999999,1,311,,,,,,,,,,,,,1,6,4,stim/64.jpeg,HouseObjects,1,stim/objects/HouseObjects/spraybottle.png,0.5,3,-0.2,-0.15,left,12,2020-12-17_17h05.47.820,premup-three_ses-02_part-02_label-phase2,3.2.4,Win32,60,,,,,,,,,,,,,,,,,1,0,330,43,1,329,1,,,,,,
right,0.575999975,1,312,,,,,,,,,,,,,3,3,4,stim/34.jpeg,Instruments,2,stim/objects/Instruments/saxophone2.png,0.9,2,0.2,0.15,right,12,2020-12-17_17h05.47.820,premup-three_ses-02_part-02_label-phase2,3.2.4,Win32,60,,,,,,,,,,,,,,,,,1,0,330,229,1,329,1,,,,,,
right,0.648000002,1,313,,,,,,,,,,,,,3,3,2,stim/32.jpeg,Instruments,2,stim/objects/Instruments/gong.png,0.9,4,0.2,-0.15,right,12,2020-12-17_17h05.47.820,premup-three_ses-02_part-02_label-phase2,3.2.4,Win32,60,,,,,,,,,,,,,,,,,1,0,330,183,1,329,2,,,,,,
right,0.686999798,0,314,,,,,,,,,,,,,2,1,3,stim/13.jpeg,HouseObjects,1,stim/objects/HouseObjects/ballofstring2.png,0.3,3,-0.2,-0.15,left,12,2020-12-17_17h05.47.820,premup-three_ses-02_part-02_label-phase2,3.2.4,Win32,60,,,,,,,,,,,,,,,,,1,0,330,66,1,329,1,,,,,,
right,0.667999983,1,315,,,,,,,,,,,,,3,3,3,stim/33.jpeg,Instruments,2,stim/objects/Instruments/flutetrans.png,0.9,2,0.2,0.15,right,12,2020-12-17_17h05.47.820,premup-three_ses-02_part-02_label-phase2,3.2.4,Win32,60,,,,,,,,,,,,,,,,,1,0,330,196,1,329,2,,,,,,
left,0.799999952,1,316,,,,,,,,,,,,,1,6,1,stim/61.jpeg,HouseObjects,1,stim/objects/HouseObjects/bottle.png,0.5,2,0.2,0.15,left,12,2020-12-17_17h05.47.820,premup-three_ses-02_part-02_label-phase2,3.2.4,Win32,60,,,,,,,,,,,,,,,,,1,0,330,36,1,329,2,,,,,,
right,0.675000191,1,317,,,,,,,,,,,,,2,1,4,stim/14.jpeg,Instruments,2,stim/objects/Instruments/acousticguitar2.png,0.7,4,0.2,-0.15,right,12,2020-12-17_17h05.47.820,premup-three_ses-02_part-02_label-phase2,3.2.4,Win32,60,,,,,,,,,,,,,,,,,1,0,330,91,1,329,1,,,,,,
right,0.667000055,1,318,,,,,,,,,,,,,2,1,3,stim/13.jpeg,Instruments,2,stim/objects/Instruments/drums.png,0.7,2,0.2,0.15,right,12,2020-12-17_17h05.47.820,premup-three_ses-02_part-02_label-phase2,3.2.4,Win32,60,,,,,,,,,,,,,,,,,1,0,330,82,1,329,2,,,,,,
left,0.756000042,0,319,,,,,,,,,,,,,3,4,1,stim/41.jpeg,Instruments,2,stim/objects/Instruments/tuba2.png,0.1,3,-0.2,-0.15,right,12,2020-12-17_17h05.47.820,premup-three_ses-02_part-02_label-phase2,3.2.4,Win32,60,,,,,,,,,,,,,,,,,1,0,330,326,1,329,1,,,,,,
right,0.690999985,0,320,,,,,,,,,,,,,2,1,3,stim/13.jpeg,HouseObjects,1,stim/objects/HouseObjects/towel.png,0.3,1,-0.2,0.15,left,12,2020-12-17_17h05.47.820,premup-three_ses-02_part-02_label-phase2,3.2.4,Win32,60,,,,,,,,,,,,,,,,,1,0,330,62,1,329,1,,,,,,
right,0.556999922,0,321,,,,,,,,,,,,,3,3,1,stim/31.jpeg,HouseObjects,1,stim/objects/HouseObjects/glass2.png,0.1,1,-0.2,0.15,left,12,2020-12-17_17h05.47.820,premup-three_ses-02_part-02_label-phase2,3.2.4,Win32,60,,,,,,,,,,,,,,,,,1,0,330,134,1,329,1,,,,,,
right,0.674999952,0,322,,,,,,,,,,,,,1,5,2,stim/52.jpeg,HouseObjects,1,stim/objects/HouseObjects/ballofstring.png,0.5,2,0.2,0.15,left,12,2020-12-17_17h05.47.820,premup-three_ses-02_part-02_label-phase2,3.2.4,Win32,60,,,,,,,,,,,,,,,,,1,0,330,1,1,329,2,,,,,,
left,0.923000097,0,323,,,,,,,,,,,,,2,2,2,stim/22.jpeg,Instruments,2,stim/objects/Instruments/electricdrumset2.png,0.3,2,0.2,0.15,right,12,2020-12-17_17h05.47.820,premup-three_ses-02_part-02_label-phase2,3.2.4,Win32,60,,,,,,,,,,,,,,,,,1,0,330,128,1,329,1,,,,,,
,,0,324,,,,,,,,,,,,,1,5,3,stim/53.jpeg,HouseObjects,1,stim/objects/HouseObjects/glassmop.png,0.5,3,-0.2,-0.15,left,12,2020-12-17_17h05.47.820,premup-three_ses-02_part-02_label-phase2,3.2.4,Win32,60,,,,,,,,,,,,,,,,,1,0,330,10,1,329,1,,,,,,
left,0.625,1,325,,,,,,,,,,,,,3,4,1,stim/41.jpeg,HouseObjects,1,stim/objects/HouseObjects/glass.png,0.9,4,0.2,-0.15,left,12,2020-12-17_17h05.47.820,premup-three_ses-02_part-02_label-phase2,3.2.4,Win32,60,,,,,,,,,,,,,,,,,1,0,330,274,1,329,2,,,,,,
left,0.552999973,1,326,,,,,,,,,,,,,3,4,2,stim/42.jpeg,HouseObjects,1,stim/objects/HouseObjects/glass.png,0.9,2,0.2,0.15,left,12,2020-12-17_17h05.47.820,premup-three_ses-02_part-02_label-phase2,3.2.4,Win32,60,,,,,,,,,,,,,,,,,1,0,330,299,1,329,2,,,,,,
right,0.559000015,1,327,,,,,,,,,,,,,2,1,3,stim/13.jpeg,Instruments,2,stim/objects/Instruments/bassdrum2.png,0.7,1,-0.2,0.15,right,12,2020-12-17_17h05.47.820,premup-three_ses-02_part-02_label-phase2,3.2.4,Win32,60,,,,,,,,,,,,,,,,,1,0,330,94,1,329,1,,,,,,
left,0.644999981,1,328,,,,,,,,,,,,,2,2,1,stim/21.jpeg,HouseObjects,1,stim/objects/HouseObjects/dishsoap2.png,0.7,4,0.2,-0.15,left,12,2020-12-17_17h05.47.820,premup-three_ses-02_part-02_label-phase2,3.2.4,Win32,60,,,,,,,,,,,,,,,,,1,0,330,119,1,329,1,,,,,,
right,0.71600008,1,329,,,,,,,,,,,,,3,3,3,stim/33.jpeg,Instruments,2,stim/objects/Instruments/frenchhorn.png,0.9,1,-0.2,0.15,right,12,2020-12-17_17h05.47.820,premup-three_ses-02_part-02_label-phase2,3.2.4,Win32,60,,,,,,,,,,,,,,,,,1,0,330,152,1,329,2,,,,,,
right,0.65199995,0,330,,,,,,,,,,,,,1,5,1,stim/51.jpeg,HouseObjects,1,stim/objects/HouseObjects/ashtray.png,0.5,3,-0.2,-0.15,left,12,2020-12-17_17h05.47.820,premup-three_ses-02_part-02_label-phase2,3.2.4,Win32,60,,,,,,,,,,,,,,,,,1,0,330,0,1,329,2,,,,,,
right,0.638000011,1,331,,,,,,,,,,,,,3,3,4,stim/34.jpeg,Instruments,2,stim/objects/Instruments/gong.png,0.9,4,0.2,-0.15,right,12,2020-12-17_17h05.47.820,premup-three_ses-02_part-02_label-phase2,3.2.4,Win32,60,,,,,,,,,,,,,,,,,1,0,330,173,1,329,2,,,,,,
left,0.618999958,1,332,,,,,,,,,,,,,2,2,2,stim/22.jpeg,HouseObjects,1,stim/objects/HouseObjects/clothespin2.png,0.7,3,-0.2,-0.15,left,12,2020-12-17_17h05.47.820,premup-three_ses-02_part-02_label-phase2,3.2.4,Win32,60,,,,,,,,,,,,,,,,,1,0,330,116,1,329,1,,,,,,
left,0.726000071,1,333,,,,,,,,,,,,,3,4,2,stim/42.jpeg,HouseObjects,1,stim/objects/HouseObjects/glass.png,0.9,2,0.2,0.15,left,12,2020-12-17_17h05.47.820,premup-three_ses-02_part-02_label-phase2,3.2.4,Win32,60,,,,,,,,,,,,,,,,,1,0,330,239,1,329,2,,,,,,
right,0.530999899,1,334,,,,,,,,,,,,,3,3,3,stim/33.jpeg,Instruments,2,stim/objects/Instruments/flute.png,0.9,1,-0.2,0.15,right,12,2020-12-17_17h05.47.820,premup-three_ses-02_part-02_label-phase2,3.2.4,Win32,60,,,,,,,,,,,,,,,,,1,0,330,180,1,329,2,,,,,,
right,0.589000225,1,335,,,,,,,,,,,,,3,3,3,stim/33.jpeg,Instruments,2,stim/objects/Instruments/grandpiano2.png,0.9,2,0.2,0.15,right,12,2020-12-17_17h05.47.820,premup-three_ses-02_part-02_label-phase2,3.2.4,Win32,60,,,,,,,,,,,,,,,,,1,0,330,224,1,329,1,,,,,,
left,0.789999962,1,336,,,,,,,,,,,,,1,6,4,stim/64.jpeg,HouseObjects,1,stim/objects/HouseObjects/blender.png,0.5,1,-0.2,0.15,left,12,2020-12-17_17h05.47.820,premup-three_ses-02_part-02_label-phase2,3.2.4,Win32,60,,,,,,,,,,,,,,,,,1,0,330,35,1,329,2,,,,,,
left,0.832000017,0,337,,,,,,,,,,,,,1,6,2,stim/62.jpeg,Instruments,2,stim/objects/Instruments/clarinet.png,0.5,2,0.2,0.15,right,12,2020-12-17_17h05.47.820,premup-three_ses-02_part-02_label-phase2,3.2.4,Win32,60,,,,,,,,,,,,,,,,,1,0,330,53,1,329,2,,,,,,
right,0.741000175,0,338,,,,,,,,,,,,,1,5,1,stim/51.jpeg,HouseObjects,1,stim/objects/HouseObjects/bleachbottle.png,0.5,4,0.2,-0.15,left,12,2020-12-17_17h05.47.820,premup-three_ses-02_part-02_label-phase2,3.2.4,Win32,60,,,,,,,,,,,,,,,,,1,0,330,4,1,329,2,,,,,,
left,0.739000082,1,339,,,,,,,,,,,,,2,2,4,stim/24.jpeg,HouseObjects,1,stim/objects/HouseObjects/clock2.png,0.7,3,-0.2,-0.15,left,12,2020-12-17_17h05.47.820,premup-three_ses-02_part-02_label-phase2,3.2.4,Win32,60,,,,,,,,,,,,,,,,,1,0,330,114,1,329,1,,,,,,
left,0.697999954,1,340,,,,,,,,,,,,,3,4,2,stim/42.jpeg,HouseObjects,1,stim/objects/HouseObjects/scale2.png,0.9,4,0.2,-0.15,left,12,2020-12-17_17h05.47.820,premup-three_ses-02_part-02_label-phase2,3.2.4,Win32,60,,,,,,,,,,,,,,,,,1,0,330,311,1,329,1,,,,,,
left,0.654999971,0,341,,,,,,,,,,,,,2,2,3,stim/23.jpeg,Instruments,2,stim/objects/Instruments/cymbal2.png,0.3,4,0.2,-0.15,right,12,2020-12-17_17h05.47.820,premup-three_ses-02_part-02_label-phase2,3.2.4,Win32,60,,,,,,,,,,,,,,,,,1,0,330,125,1,329,1,,,,,,
,,0,342,,,,,,,,,,,,,3,4,1,stim/41.jpeg,HouseObjects,1,stim/objects/HouseObjects/flyswatter.png,0.9,1,-0.2,0.15,left,12,2020-12-17_17h05.47.820,premup-three_ses-02_part-02_label-phase2,3.2.4,Win32,60,,,,,,,,,,,,,,,,,1,0,330,262,1,329,2,,,,,,
right,0.802999973,1,343,,,,,,,,,,,,,1,5,2,stim/52.jpeg,Instruments,2,stim/objects/Instruments/balalaika.png,0.5,2,0.2,0.15,right,12,2020-12-17_17h05.47.820,premup-three_ses-02_part-02_label-phase2,3.2.4,Win32,60,,,,,,,,,,,,,,,,,1,0,330,17,1,329,2,,,,,,
right,0.664999962,1,344,,,,,,,,,,,,,1,5,1,stim/51.jpeg,Instruments,2,stim/objects/Instruments/bassdrum.png,0.5,3,-0.2,-0.15,right,12,2020-12-17_17h05.47.820,premup-three_ses-02_part-02_label-phase2,3.2.4,Win32,60,,,,,,,,,,,,,,,,,1,0,330,24,1,329,2,,,,,,
left,0.562000036,1,345,,,,,,,,,,,,,3,4,3,stim/43.jpeg,HouseObjects,1,stim/objects/HouseObjects/doormat.png,0.9,4,0.2,-0.15,left,12,2020-12-17_17h05.47.820,premup-three_ses-02_part-02_label-phase2,3.2.4,Win32,60,,,,,,,,,,,,,,,,,1,0,330,260,1,329,2,,,,,,
left,0.552000046,1,346,,,,,,,,,,,,,3,4,4,stim/44.jpeg,HouseObjects,1,stim/objects/HouseObjects/garbagebin.png,0.9,3,-0.2,-0.15,left,12,2020-12-17_17h05.47.820,premup-three_ses-02_part-02_label-phase2,3.2.4,Win32,60,,,,,,,,,,,,,,,,,1,0,330,253,1,329,2,,,,,,
right,0.705000162,0,347,,,,,,,,,,,,,1,5,3,stim/53.jpeg,HouseObjects,1,stim/objects/HouseObjects/ballofstring.png,0.5,3,-0.2,-0.15,left,12,2020-12-17_17h05.47.820,premup-three_ses-02_part-02_label-phase2,3.2.4,Win32,60,,,,,,,,,,,,,,,,,1,0,330,6,1,329,2,,,,,,
left,0.673000097,1,348,,,,,,,,,,,,,3,4,4,stim/44.jpeg,HouseObjects,1,stim/objects/HouseObjects/garbagebin.png,0.9,3,-0.2,-0.15,left,12,2020-12-17_17h05.47.820,premup-three_ses-02_part-02_label-phase2,3.2.4,Win32,60,,,,,,,,,,,,,,,,,1,0,330,233,1,329,2,,,,,,
left,0.583999872,1,349,,,,,,,,,,,,,3,4,2,stim/42.jpeg,HouseObjects,1,stim/objects/HouseObjects/doormat.png,0.9,1,-0.2,0.15,left,12,2020-12-17_17h05.47.820,premup-three_ses-02_part-02_label-phase2,3.2.4,Win32,60,,,,,,,,,,,,,,,,,1,0,330,255,1,329,2,,,,,,
,,0,350,,,,,,,,,,,,,2,2,1,stim/21.jpeg,HouseObjects,1,stim/objects/HouseObjects/dishsoap.png,0.7,3,-0.2,-0.15,left,12,2020-12-17_17h05.47.820,premup-three_ses-02_part-02_label-phase2,3.2.4,Win32,60,,,,,,,,,,,,,,,,,1,0,330,99,1,329,2,,,,,,
left,0.685000181,0,351,,,,,,,,,,,,,2,2,4,stim/24.jpeg,Instruments,2,stim/objects/Instruments/chime2.png,0.3,1,-0.2,0.15,right,12,2020-12-17_17h05.47.820,premup-three_ses-02_part-02_label-phase2,3.2.4,Win32,60,,,,,,,,,,,,,,,,,1,0,330,122,1,329,1,,,,,,
right,0.604000092,1,352,,,,,,,,,,,,,3,3,3,stim/33.jpeg,Instruments,2,stim/objects/Instruments/flutetrans.png,0.9,2,0.2,0.15,right,12,2020-12-17_17h05.47.820,premup-three_ses-02_part-02_label-phase2,3.2.4,Win32,60,,,,,,,,,,,,,,,,,1,0,330,176,1,329,2,,,,,,
left,0.585999966,1,353,,,,,,,,,,,,,3,4,1,stim/41.jpeg,HouseObjects,1,stim/objects/HouseObjects/garbagebin.png,0.9,4,0.2,-0.15,left,12,2020-12-17_17h05.47.820,premup-three_ses-02_part-02_label-phase2,3.2.4,Win32,60,,,,,,,,,,,,,,,,,1,0,330,238,1,329,2,,,,,,
left,0.44900012,1,354,,,,,,,,,,,,,3,4,1,stim/41.jpeg,HouseObjects,1,stim/objects/HouseObjects/flyswatter.png,0.9,1,-0.2,0.15,left,12,2020-12-17_17h05.47.820,premup-three_ses-02_part-02_label-phase2,3.2.4,Win32,60,,,,,,,,,,,,,,,,,1,0,330,242,1,329,2,,,,,,
right,0.623000145,1,355,,,,,,,,,,,,,2,1,3,stim/13.jpeg,Instruments,2,stim/objects/Instruments/tuba.png,0.7,3,-0.2,-0.15,right,12,2020-12-17_17h05.47.820,premup-three_ses-02_part-02_label-phase2,3.2.4,Win32,60,,,,,,,,,,,,,,,,,1,0,330,86,1,329,1,,,,,,
left,0.532999992,1,356,,,,,,,,,,,,,3,4,4,stim/44.jpeg,HouseObjects,1,stim/objects/HouseObjects/flyswatter.png,0.9,3,-0.2,-0.15,left,12,2020-12-17_17h05.47.820,premup-three_ses-02_part-02_label-phase2,3.2.4,Win32,60,,,,,,,,,,,,,,,,,1,0,330,277,1,329,2,,,,,,
left,0.583000183,1,357,,,,,,,,,,,,,2,2,4,stim/24.jpeg,HouseObjects,1,stim/objects/HouseObjects/clothespin.png,0.7,3,-0.2,-0.15,left,12,2020-12-17_17h05.47.820,premup-three_ses-02_part-02_label-phase2,3.2.4,Win32,60,,,,,,,,,,,,,,,,,1,0,330,106,1,329,2,,,,,,
right,0.638000011,1,358,,,,,,,,,,,,,3,3,4,stim/34.jpeg,Instruments,2,stim/objects/Instruments/flute.png,0.9,2,0.2,0.15,right,12,2020-12-17_17h05.47.820,premup-three_ses-02_part-02_label-phase2,3.2.4,Win32,60,,,,,,,,,,,,,,,,,1,0,330,185,1,329,2,,,,,,
left,0.621999979,0,359,,,,,,,,,,,,,2,1,2,stim/12.jpeg,Instruments,2,stim/objects/Instruments/electricdrumset.png,0.7,1,-0.2,0.15,right,12,2020-12-17_17h05.47.820,premup-three_ses-02_part-02_label-phase2,3.2.4,Win32,60,,,,,,,,,,,,,,,,,1,0,330,73,1,329,2,,,,,,
right,0.500999928,1,360,,,,,,,,,,,,,3,3,2,stim/32.jpeg,Instruments,2,stim/objects/Instruments/harp2.png,0.9,1,-0.2,0.15,right,12,2020-12-17_17h05.47.820,premup-three_ses-02_part-02_label-phase2,3.2.4,Win32,60,,,,,,,,,,,,,,,,,1,0,330,227,1,329,1,,,,,,
right,0.684999943,1,361,,,,,,,,,,,,,1,5,2,stim/52.jpeg,Instruments,2,stim/objects/Instruments/guitarcase.png,0.5,3,-0.2,-0.15,right,12,2020-12-17_17h05.47.820,premup-three_ses-02_part-02_label-phase2,3.2.4,Win32,60,,,,,,,,,,,,,,,,,1,0,330,25,1,329,1,,,,,,
left,0.555000067,1,362,,,,,,,,,,,,,3,4,4,stim/44.jpeg,HouseObjects,1,stim/objects/HouseObjects/flyswatter.png,0.9,2,0.2,0.15,left,12,2020-12-17_17h05.47.820,premup-three_ses-02_part-02_label-phase2,3.2.4,Win32,60,,,,,,,,,,,,,,,,,1,0,330,237,1,329,2,,,,,,
right,0.508999825,1,363,,,,,,,,,,,,,2,1,3,stim/13.jpeg,Instruments,2,stim/objects/Instruments/cymbal.png,0.7,2,0.2,0.15,right,12,2020-12-17_17h05.47.820,premup-three_ses-02_part-02_label-phase2,3.2.4,Win32,60,,,,,,,,,,,,,,,,,1,0,330,70,1,329,2,,,,,,
right,0.687999964,1,364,,,,,,,,,,,,,1,6,3,stim/63.jpeg,Instruments,2,stim/objects/Instruments/triangle.png,0.5,4,0.2,-0.15,right,12,2020-12-17_17h05.47.820,premup-three_ses-02_part-02_label-phase2,3.2.4,Win32,60,,,,,,,,,,,,,,,,,1,0,330,58,1,329,1,,,,,,
left,0.48300004,1,365,,,,,,,,,,,,,3,4,4,stim/44.jpeg,HouseObjects,1,stim/objects/HouseObjects/flyswatter.png,0.9,3,-0.2,-0.15,left,12,2020-12-17_17h05.47.820,premup-three_ses-02_part-02_label-phase2,3.2.4,Win32,60,,,,,,,,,,,,,,,,,1,0,330,297,1,329,2,,,,,,
left,0.578999996,1,366,,,,,,,,,,,,,3,4,1,stim/41.jpeg,HouseObjects,1,stim/objects/HouseObjects/garbagebin.png,0.9,3,-0.2,-0.15,left,12,2020-12-17_17h05.47.820,premup-three_ses-02_part-02_label-phase2,3.2.4,Win32,60,,,,,,,,,,,,,,,,,1,0,330,278,1,329,2,,,,,,
right,0.508000135,1,367,,,,,,,,,,,,,3,3,3,stim/33.jpeg,Instruments,2,stim/objects/Instruments/hihat2.png,0.9,3,-0.2,-0.15,right,12,2020-12-17_17h05.47.820,premup-three_ses-02_part-02_label-phase2,3.2.4,Win32,60,,,,,,,,,,,,,,,,,1,0,330,228,1,329,1,,,,,,
left,0.480999947,1,368,,,,,,,,,,,,,3,4,1,stim/41.jpeg,HouseObjects,1,stim/objects/HouseObjects/doormat.png,0.9,2,0.2,0.15,left,12,2020-12-17_17h05.47.820,premup-three_ses-02_part-02_label-phase2,3.2.4,Win32,60,,,,,,,,,,,,,,,,,1,0,330,250,1,329,2,,,,,,
left,0.562000036,1,369,,,,,,,,,,,,,3,4,1,stim/41.jpeg,HouseObjects,1,stim/objects/HouseObjects/doormat.png,0.9,4,0.2,-0.15,left,12,2020-12-17_17h05.47.820,premup-three_ses-02_part-02_label-phase2,3.2.4,Win32,60,,,,,,,,,,,,,,,,,1,0,330,270,1,329,2,,,,,,
right,0.513999939,1,370,,,,,,,,,,,,,3,3,4,stim/34.jpeg,Instruments,2,stim/objects/Instruments/frenchhorn.png,0.9,4,0.2,-0.15,right,12,2020-12-17_17h05.47.820,premup-three_ses-02_part-02_label-phase2,3.2.4,Win32,60,,,,,,,,,,,,,,,,,1,0,330,197,1,329,2,,,,,,
left,0.681999922,0,371,,,,,,,,,,,,,1,6,4,stim/64.jpeg,Instruments,2,stim/objects/Instruments/chime.png,0.5,1,-0.2,0.15,right,12,2020-12-17_17h05.47.820,premup-three_ses-02_part-02_label-phase2,3.2.4,Win32,60,,,,,,,,,,,,,,,,,1,0,330,47,1,329,2,,,,,,
right,0.561000109,1,372,,,,,,,,,,,,,3,3,4,stim/34.jpeg,Instruments,2,stim/objects/Instruments/flutetrans.png,0.9,3,-0.2,-0.15,right,12,2020-12-17_17h05.47.820,premup-three_ses-02_part-02_label-phase2,3.2.4,Win32,60,,,,,,,,,,,,,,,,,1,0,330,181,1,329,2,,,,,,
right,0.666999817,1,373,,,,,,,,,,,,,1,6,3,stim/63.jpeg,Instruments,2,stim/objects/Instruments/cornet.png,0.5,1,-0.2,0.15,right,12,2020-12-17_17h05.47.820,premup-three_ses-02_part-02_label-phase2,3.2.4,Win32,60,,,,,,,,,,,,,,,,,1,0,330,54,1,329,2,,,,,,
left,0.516000032,1,374,,,,,,,,,,,,,3,4,2,stim/42.jpeg,HouseObjects,1,stim/objects/HouseObjects/dustpan.png,0.9,4,0.2,-0.15,left,12,2020-12-17_17h05.47.820,premup-three_ses-02_part-02_label-phase2,3.2.4,Win32,60,,,,,,,,,,,,,,,,,1,0,330,271,1,329,2,,,,,,
left,0.672999859,1,375,,,,,,,,,,,,,1,6,4,stim/64.jpeg,HouseObjects,1,stim/objects/HouseObjects/clock.png,0.5,1,-0.2,0.15,left,12,2020-12-17_17h05.47.820,premup-three_ses-02_part-02_label-phase2,3.2.4,Win32,60,,,,,,,,,,,,,,,,,1,0,330,39,1,329,2,,,,,,
left,0.582000017,1,376,,,,,,,,,,,,,2,2,2,stim/22.jpeg,HouseObjects,1,stim/objects/HouseObjects/clothesdryingrack.png,0.7,1,-0.2,0.15,left,12,2020-12-17_17h05.47.820,premup-three_ses-02_part-02_label-phase2,3.2.4,Win32,60,,,,,,,,,,,,,,,,,1,0,330,100,1,329,2,,,,,,
right,0.503000021,0,377,,,,,,,,,,,,,1,6,3,stim/63.jpeg,HouseObjects,1,stim/objects/HouseObjects/blender.png,0.5,4,0.2,-0.15,left,12,2020-12-17_17h05.47.820,premup-three_ses-02_part-02_label-phase2,3.2.4,Win32,60,,,,,,,,,,,,,,,,,1,0,330,30,1,329,2,,,,,,
right,0.67200017,0,378,,,,,,,,,,,,,1,5,3,stim/53.jpeg,HouseObjects,1,stim/objects/HouseObjects/barbecuelighter.png,0.5,1,-0.2,0.15,left,12,2020-12-17_17h05.47.820,premup-three_ses-02_part-02_label-phase2,3.2.4,Win32,60,,,,,,,,,,,,,,,,,1,0,330,2,1,329,2,,,,,,
left,0.518999815,0,379,,,,,,,,,,,,,1,6,4,stim/64.jpeg,Instruments,2,stim/objects/Instruments/trombone.png,0.5,1,-0.2,0.15,right,12,2020-12-17_17h05.47.820,premup-three_ses-02_part-02_label-phase2,3.2.4,Win32,60,,,,,,,,,,,,,,,,,1,0,330,59,1,329,1,,,,,,
left,0.806999922,1,380,,,,,,,,,,,,,1,6,1,stim/61.jpeg,HouseObjects,1,stim/objects/HouseObjects/saw.png,0.5,2,0.2,0.15,left,12,2020-12-17_17h05.47.820,premup-three_ses-02_part-02_label-phase2,3.2.4,Win32,60,,,,,,,,,,,,,,,,,1,0,330,40,1,329,1,,,,,,
right,0.604000092,1,381,,,,,,,,,,,,,3,3,2,stim/32.jpeg,Instruments,2,stim/objects/Instruments/grandpiano.png,0.9,2,0.2,0.15,right,12,2020-12-17_17h05.47.820,premup-three_ses-02_part-02_label-phase2,3.2.4,Win32,60,,,,,,,,,,,,,,,,,1,0,330,159,1,329,2,,,,,,
right,0.651000023,1,382,,,,,,,,,,,,,3,3,1,stim/31.jpeg,Instruments,2,stim/objects/Instruments/flutetrans.png,0.9,3,-0.2,-0.15,right,12,2020-12-17_17h05.47.820,premup-three_ses-02_part-02_label-phase2,3.2.4,Win32,60,,,,,,,,,,,,,,,,,1,0,330,206,1,329,2,,,,,,
