key_resp_pract.keys,key_resp_pract.rt,trial_acc,trial_index,practice_loop.thisRepN,practice_loop.thisTrialN,practice_loop.thisN,practice_loop.thisIndex,practice_loop.ran,practice_loop.order,scn_condition,scn_cat,scn_inst,scn_file,obj_cat,obj_cat_num,obj_file,trial_cond,quadrant,obj_x,obj_y,corr_ans,participant,date,expName,psychopyVersion,OS,frameRate,key_resp_trial.keys,key_resp_trial.rt,iterations.thisRepN,iterations.thisTrialN,iterations.thisN,iterations.thisIndex,iterations.ran,iterations.order,task_innerloop.thisRepN,task_innerloop.thisTrialN,task_innerloop.thisN,task_innerloop.thisIndex,task_innerloop.ran,task_innerloop.order,iteration_index,rating_acc,slider.response,slider.rt,slider_2.response,slider_2.rt,ratings.thisRepN,ratings.thisTrialN,ratings.thisN,ratings.thisIndex,ratings.ran,ratings.order,obj_cat_top,min_resp_top,max_resp_top,obj_cat_bottom,min_resp_bottom,max_resp_bottom
,,0,1,1,0,240,137,1,239,2,2,2,stim/22.jpeg,HouseObjects,1,stim/objects/HouseObjects/ironingboard2.png,0.7,3,-0.2,-0.15,left,12,2020-12-16_17h07.50.476,premup-three_ses-01_part-01_label-phase1,3.2.4,Win32,60,,,,,,,,,,,,,,,,,,,,,,,,,,,,,,,,
left,1.309000015,0,2,1,0,240,168,1,239,3,3,1,stim/31.jpeg,Instruments,2,stim/objects/Instruments/metronome2.png,0.9,4,0.2,-0.15,right,12,2020-12-16_17h07.50.476,premup-three_ses-01_part-01_label-phase1,3.2.4,Win32,60,,,,,,,,,,,,,,,,,,,,,,,,,,,,,,,,
right,1.145999908,0,3,1,0,240,206,1,239,3,4,3,stim/43.jpeg,HouseObjects,1,stim/objects/HouseObjects/rubbergloves2.png,0.9,3,-0.2,-0.15,left,12,2020-12-16_17h07.50.476,premup-three_ses-01_part-01_label-phase1,3.2.4,Win32,60,,,,,,,,,,,,,,,,,,,,,,,,,,,,,,,,
left,0.996000051,0,4,1,0,240,178,1,239,3,3,3,stim/33.jpeg,Instruments,2,stim/objects/Instruments/musicstand2.png,0.9,4,0.2,-0.15,right,12,2020-12-16_17h07.50.476,premup-three_ses-01_part-01_label-phase1,3.2.4,Win32,60,,,,,,,,,,,,,,,,,,,,,,,,,,,,,,,,
left,1.046000004,1,5,1,0,240,134,1,239,2,2,3,stim/23.jpeg,HouseObjects,1,stim/objects/HouseObjects/key2.png,0.7,2,0.2,0.15,left,12,2020-12-16_17h07.50.476,premup-three_ses-01_part-01_label-phase1,3.2.4,Win32,60,,,,,,,,,,,,,,,,,,,,,,,,,,,,,,,,
right,1.180999994,0,6,1,0,240,83,1,239,2,1,4,stim/14.jpeg,HouseObjects,1,stim/objects/HouseObjects/rug.png,0.3,4,0.2,-0.15,left,12,2020-12-16_17h07.50.476,premup-three_ses-01_part-01_label-phase1,3.2.4,Win32,60,,,,,,,,,,,,,,,,,,,,,,,,,,,,,,,,
right,1.162999868,0,7,1,0,240,223,1,239,3,4,4,stim/44.jpeg,HouseObjects,1,stim/objects/HouseObjects/rug2.png,0.9,4,0.2,-0.15,left,12,2020-12-16_17h07.50.476,premup-three_ses-01_part-01_label-phase1,3.2.4,Win32,60,,,,,,,,,,,,,,,,,,,,,,,,,,,,,,,,
right,1.212999821,1,8,1,0,240,111,1,239,2,1,4,stim/14.jpeg,Instruments,2,stim/objects/Instruments/record_player.png,0.7,3,-0.2,-0.15,right,12,2020-12-16_17h07.50.476,premup-three_ses-01_part-01_label-phase1,3.2.4,Win32,60,,,,,,,,,,,,,,,,,,,,,,,,,,,,,,,,
left,0.880999804,0,9,1,0,240,237,1,239,3,4,2,stim/42.jpeg,Instruments,2,stim/objects/Instruments/pipepiano2.png,0.1,3,-0.2,-0.15,right,12,2020-12-16_17h07.50.476,premup-three_ses-01_part-01_label-phase1,3.2.4,Win32,60,,,,,,,,,,,,,,,,,,,,,,,,,,,,,,,,
right,0.59800005,1,10,1,0,240,21,1,239,1,5,2,stim/52.jpeg,Instruments,2,stim/objects/Instruments/laud.png,0.5,2,0.2,0.15,right,12,2020-12-16_17h07.50.476,premup-three_ses-01_part-01_label-phase1,3.2.4,Win32,60,,,,,,,,,,,,,,,,,,,,,,,,,,,,,,,,
,,1,1,,,,,,,1,6,3,stim/63.jpeg,HouseObjects,1,stim/objects/HouseObjects/pan.png,0.5,3,-0.2,-0.15,left,12,2020-12-16_17h07.50.476,premup-three_ses-01_part-01_label-phase1,3.2.4,Win32,60,left,0.79399991,4,0,4,0,1,3,1,0,240,54,1,239,,,,,,,,,,,,,,,,,,
,,1,2,,,,,,,3,3,4,stim/34.jpeg,Instruments,2,stim/objects/Instruments/oboe2.png,0.9,2,0.2,0.15,right,12,2020-12-16_17h07.50.476,premup-three_ses-01_part-01_label-phase1,3.2.4,Win32,60,right,0.671000004,4,0,4,0,1,3,1,0,240,187,1,239,,,,,,,,,,,,,,,,,,
,,0,3,,,,,,,1,5,4,stim/54.jpeg,HouseObjects,1,stim/objects/HouseObjects/knife.png,0.5,4,0.2,-0.15,left,12,2020-12-16_17h07.50.476,premup-three_ses-01_part-01_label-phase1,3.2.4,Win32,60,right,0.657999992,4,0,4,0,1,3,1,0,240,3,1,239,,,,,,,,,,,,,,,,,,
,,0,4,,,,,,,2,2,4,stim/24.jpeg,HouseObjects,1,stim/objects/HouseObjects/knife2.png,0.7,4,0.2,-0.15,left,12,2020-12-16_17h07.50.476,premup-three_ses-01_part-01_label-phase1,3.2.4,Win32,60,right,0.756999969,4,0,4,0,1,3,1,0,240,127,1,239,,,,,,,,,,,,,,,,,,
,,1,5,,,,,,,2,2,1,stim/21.jpeg,HouseObjects,1,stim/objects/HouseObjects/iron2.png,0.7,1,-0.2,0.15,left,12,2020-12-16_17h07.50.476,premup-three_ses-01_part-01_label-phase1,3.2.4,Win32,60,left,1.027999878,4,0,4,0,1,3,1,0,240,124,1,239,,,,,,,,,,,,,,,,,,
,,0,6,,,,,,,1,6,3,stim/63.jpeg,Instruments,2,stim/objects/Instruments/musicstand.png,0.5,1,-0.2,0.15,right,12,2020-12-16_17h07.50.476,premup-three_ses-01_part-01_label-phase1,3.2.4,Win32,60,left,1.156999826,4,0,4,0,1,3,1,0,240,66,1,239,,,,,,,,,,,,,,,,,,
,,0,7,,,,,,,1,6,1,stim/61.jpeg,HouseObjects,1,stim/objects/HouseObjects/lintroller.png,0.5,2,0.2,0.15,left,12,2020-12-16_17h07.50.476,premup-three_ses-01_part-01_label-phase1,3.2.4,Win32,60,right,0.990999937,4,0,4,0,1,3,1,0,240,48,1,239,,,,,,,,,,,,,,,,,,
,,1,8,,,,,,,2,2,1,stim/21.jpeg,Instruments,2,stim/objects/Instruments/keyboard2.png,0.3,4,0.2,-0.15,right,12,2020-12-16_17h07.50.476,premup-three_ses-01_part-01_label-phase1,3.2.4,Win32,60,right,0.846999884,4,0,4,0,1,3,1,0,240,152,1,239,,,,,,,,,,,,,,,,,,
,,0,9,,,,,,,3,3,2,stim/32.jpeg,Instruments,2,stim/objects/Instruments/musicsheet2.png,0.9,4,0.2,-0.15,right,12,2020-12-16_17h07.50.476,premup-three_ses-01_part-01_label-phase1,3.2.4,Win32,60,left,0.661000013,4,0,4,0,1,3,1,0,240,189,1,239,,,,,,,,,,,,,,,,,,
,,1,10,,,,,,,1,5,2,stim/52.jpeg,Instruments,2,stim/objects/Instruments/laud.png,0.5,4,0.2,-0.15,right,12,2020-12-16_17h07.50.476,premup-three_ses-01_part-01_label-phase1,3.2.4,Win32,60,right,0.856999874,4,0,4,0,1,3,1,0,240,37,1,239,,,,,,,,,,,,,,,,,,
,,0,11,,,,,,,3,4,2,stim/42.jpeg,HouseObjects,1,stim/objects/HouseObjects/remote2.png,0.9,1,-0.2,0.15,left,12,2020-12-16_17h07.50.476,premup-three_ses-01_part-01_label-phase1,3.2.4,Win32,60,right,0.822000027,4,0,4,0,1,3,1,0,240,209,1,239,,,,,,,,,,,,,,,,,,
,,1,12,,,,,,,1,6,3,stim/63.jpeg,HouseObjects,1,stim/objects/HouseObjects/pan.png,0.5,4,0.2,-0.15,left,12,2020-12-16_17h07.50.476,premup-three_ses-01_part-01_label-phase1,3.2.4,Win32,60,left,0.974999905,4,0,4,0,1,3,1,0,240,46,1,239,,,,,,,,,,,,,,,,,,
,,0,13,,,,,,,3,4,4,stim/44.jpeg,HouseObjects,1,stim/objects/HouseObjects/rug2.png,0.9,4,0.2,-0.15,left,12,2020-12-16_17h07.50.476,premup-three_ses-01_part-01_label-phase1,3.2.4,Win32,60,right,0.804999828,4,0,4,0,1,3,1,0,240,215,1,239,,,,,,,,,,,,,,,,,,
,,1,14,,,,,,,3,4,2,stim/42.jpeg,HouseObjects,1,stim/objects/HouseObjects/remote2.png,0.9,3,-0.2,-0.15,left,12,2020-12-16_17h07.50.476,premup-three_ses-01_part-01_label-phase1,3.2.4,Win32,60,left,0.717000008,4,0,4,0,1,3,1,0,240,229,1,239,,,,,,,,,,,,,,,,,,
,,0,15,,,,,,,2,1,1,stim/11.jpeg,Instruments,2,stim/objects/Instruments/panflute.png,0.7,3,-0.2,-0.15,right,12,2020-12-16_17h07.50.476,premup-three_ses-01_part-01_label-phase1,3.2.4,Win32,60,left,0.746999979,4,0,4,0,1,3,1,0,240,100,1,239,,,,,,,,,,,,,,,,,,
,,0,16,,,,,,,3,4,2,stim/42.jpeg,HouseObjects,1,stim/objects/HouseObjects/remote2.png,0.9,3,-0.2,-0.15,left,12,2020-12-16_17h07.50.476,premup-three_ses-01_part-01_label-phase1,3.2.4,Win32,60,right,1.075000048,4,0,4,0,1,3,1,0,240,205,1,239,,,,,,,,,,,,,,,,,,
,,0,17,,,,,,,2,1,1,stim/11.jpeg,Instruments,2,stim/objects/Instruments/panflute.png,0.7,1,-0.2,0.15,right,12,2020-12-16_17h07.50.476,premup-three_ses-01_part-01_label-phase1,3.2.4,Win32,60,left,0.945999861,4,0,4,0,1,3,1,0,240,92,1,239,,,,,,,,,,,,,,,,,,
,,1,18,,,,,,,1,5,3,stim/53.jpeg,HouseObjects,1,stim/objects/HouseObjects/key.png,0.5,3,-0.2,-0.15,left,12,2020-12-16_17h07.50.476,premup-three_ses-01_part-01_label-phase1,3.2.4,Win32,60,left,0.928999901,4,0,4,0,1,3,1,0,240,10,1,239,,,,,,,,,,,,,,,,,,
,,0,19,,,,,,,3,3,1,stim/31.jpeg,HouseObjects,1,stim/objects/HouseObjects/lintroller2.png,0.1,4,0.2,-0.15,left,12,2020-12-16_17h07.50.476,premup-three_ses-01_part-01_label-phase1,3.2.4,Win32,60,right,1.073999882,4,0,4,0,1,3,1,0,240,160,1,239,,,,,,,,,,,,,,,,,,
,,1,20,,,,,,,3,4,3,stim/43.jpeg,HouseObjects,1,stim/objects/HouseObjects/rubbergloves2.png,0.9,1,-0.2,0.15,left,12,2020-12-16_17h07.50.476,premup-three_ses-01_part-01_label-phase1,3.2.4,Win32,60,left,1.065999746,4,0,4,0,1,3,1,0,240,234,1,239,,,,,,,,,,,,,,,,,,
,,1,21,,,,,,,1,5,3,stim/53.jpeg,Instruments,2,stim/objects/Instruments/maraca.png,0.5,4,0.2,-0.15,right,12,2020-12-16_17h07.50.476,premup-three_ses-01_part-01_label-phase1,3.2.4,Win32,60,right,0.957999945,4,0,4,0,1,3,1,0,240,38,1,239,,,,,,,,,,,,,,,,,,
,,0,22,,,,,,,1,6,1,stim/61.jpeg,Instruments,2,stim/objects/Instruments/metronome.png,0.5,3,-0.2,-0.15,right,12,2020-12-16_17h07.50.476,premup-three_ses-01_part-01_label-phase1,3.2.4,Win32,60,left,0.898000002,4,0,4,0,1,3,1,0,240,68,1,239,,,,,,,,,,,,,,,,,,
,,1,23,,,,,,,3,3,2,stim/32.jpeg,Instruments,2,stim/objects/Instruments/musicsheet2.png,0.9,4,0.2,-0.15,right,12,2020-12-16_17h07.50.476,premup-three_ses-01_part-01_label-phase1,3.2.4,Win32,60,right,1.09499979,4,0,4,0,1,3,1,0,240,197,1,239,,,,,,,,,,,,,,,,,,
,,1,24,,,,,,,3,3,2,stim/32.jpeg,Instruments,2,stim/objects/Instruments/musicsheet2.png,0.9,1,-0.2,0.15,right,12,2020-12-16_17h07.50.476,premup-three_ses-01_part-01_label-phase1,3.2.4,Win32,60,right,1.019000053,4,0,4,0,1,3,1,0,240,185,1,239,,,,,,,,,,,,,,,,,,
,,1,25,,,,,,,3,4,3,stim/43.jpeg,HouseObjects,1,stim/objects/HouseObjects/rubbergloves2.png,0.9,3,-0.2,-0.15,left,12,2020-12-16_17h07.50.476,premup-three_ses-01_part-01_label-phase1,3.2.4,Win32,60,left,0.606999874,4,0,4,0,1,3,1,0,240,230,1,239,,,,,,,,,,,,,,,,,,
,,0,26,,,,,,,2,2,2,stim/22.jpeg,Instruments,2,stim/objects/Instruments/laud2.png,0.3,4,0.2,-0.15,right,12,2020-12-16_17h07.50.476,premup-three_ses-01_part-01_label-phase1,3.2.4,Win32,60,left,0.993999958,4,0,4,0,1,3,1,0,240,157,1,239,,,,,,,,,,,,,,,,,,
,,1,27,,,,,,,3,3,2,stim/32.jpeg,Instruments,2,stim/objects/Instruments/musicsheet2.png,0.9,3,-0.2,-0.15,right,12,2020-12-16_17h07.50.476,premup-three_ses-01_part-01_label-phase1,3.2.4,Win32,60,right,0.839999914,4,0,4,0,1,3,1,0,240,193,1,239,,,,,,,,,,,,,,,,,,
,,0,28,,,,,,,2,2,2,stim/22.jpeg,HouseObjects,1,stim/objects/HouseObjects/ironingboard2.png,0.7,4,0.2,-0.15,left,12,2020-12-16_17h07.50.476,premup-three_ses-01_part-01_label-phase1,3.2.4,Win32,60,right,0.921000004,4,0,4,0,1,3,1,0,240,125,1,239,,,,,,,,,,,,,,,,,,
,,1,29,,,,,,,2,1,4,stim/14.jpeg,Instruments,2,stim/objects/Instruments/record_player.png,0.7,1,-0.2,0.15,right,12,2020-12-16_17h07.50.476,premup-three_ses-01_part-01_label-phase1,3.2.4,Win32,60,right,0.93599987,4,0,4,0,1,3,1,0,240,99,1,239,,,,,,,,,,,,,,,,,,
,,0,30,,,,,,,3,3,1,stim/31.jpeg,Instruments,2,stim/objects/Instruments/metronome2.png,0.9,1,-0.2,0.15,right,12,2020-12-16_17h07.50.476,premup-three_ses-01_part-01_label-phase1,3.2.4,Win32,60,left,0.938999891,4,0,4,0,1,3,1,0,240,172,1,239,,,,,,,,,,,,,,,,,,
,,0,31,,,,,,,2,2,2,stim/22.jpeg,HouseObjects,1,stim/objects/HouseObjects/ironingboard2.png,0.7,4,0.2,-0.15,left,12,2020-12-16_17h07.50.476,premup-three_ses-01_part-01_label-phase1,3.2.4,Win32,60,right,0.77699995,4,0,4,0,1,3,1,0,240,141,1,239,,,,,,,,,,,,,,,,,,
,,0,32,,,,,,,2,1,2,stim/12.jpeg,Instruments,2,stim/objects/Instruments/pipepiano.png,0.7,1,-0.2,0.15,right,12,2020-12-16_17h07.50.476,premup-three_ses-01_part-01_label-phase1,3.2.4,Win32,60,left,1.322999954,4,0,4,0,1,3,1,0,240,113,1,239,,,,,,,,,,,,,,,,,,
,,1,33,,,,,,,3,4,4,stim/44.jpeg,HouseObjects,1,stim/objects/HouseObjects/rug2.png,0.9,2,0.2,0.15,left,12,2020-12-16_17h07.50.476,premup-three_ses-01_part-01_label-phase1,3.2.4,Win32,60,left,1.17599988,4,0,4,0,1,3,1,0,240,219,1,239,,,,,,,,,,,,,,,,,,
,,0,34,,,,,,,2,2,1,stim/21.jpeg,HouseObjects,1,stim/objects/HouseObjects/iron2.png,0.7,2,0.2,0.15,left,12,2020-12-16_17h07.50.476,premup-three_ses-01_part-01_label-phase1,3.2.4,Win32,60,right,0.715999842,4,0,4,0,1,3,1,0,240,144,1,239,,,,,,,,,,,,,,,,,,
,,0,35,,,,,,,3,4,4,stim/44.jpeg,Instruments,2,stim/objects/Instruments/record_player2.png,0.1,3,-0.2,-0.15,right,12,2020-12-16_17h07.50.476,premup-three_ses-01_part-01_label-phase1,3.2.4,Win32,60,left,1.019000053,4,0,4,0,1,3,1,0,240,239,1,239,,,,,,,,,,,,,,,,,,
,,1,36,,,,,,,1,6,2,stim/62.jpeg,HouseObjects,1,stim/objects/HouseObjects/match.png,0.5,4,0.2,-0.15,left,12,2020-12-16_17h07.50.476,premup-three_ses-01_part-01_label-phase1,3.2.4,Win32,60,left,1.664999962,4,0,4,0,1,3,1,0,240,45,1,239,,,,,,,,,,,,,,,,,,
,,1,37,,,,,,,2,2,1,stim/21.jpeg,HouseObjects,1,stim/objects/HouseObjects/iron2.png,0.7,3,-0.2,-0.15,left,12,2020-12-16_17h07.50.476,premup-three_ses-01_part-01_label-phase1,3.2.4,Win32,60,left,1.182999849,4,0,4,0,1,3,1,0,240,140,1,239,,,,,,,,,,,,,,,,,,
,,0,38,,,,,,,2,2,2,stim/22.jpeg,Instruments,2,stim/objects/Instruments/laud2.png,0.3,4,0.2,-0.15,right,12,2020-12-16_17h07.50.476,premup-three_ses-01_part-01_label-phase1,3.2.4,Win32,60,left,1.227999926,4,0,4,0,1,3,1,0,240,149,1,239,,,,,,,,,,,,,,,,,,
,,0,39,,,,,,,2,1,3,stim/13.jpeg,HouseObjects,1,stim/objects/HouseObjects/rubbergloves.png,0.3,4,0.2,-0.15,left,12,2020-12-16_17h07.50.476,premup-three_ses-01_part-01_label-phase1,3.2.4,Win32,60,right,1.177999973,4,0,4,0,1,3,1,0,240,82,1,239,,,,,,,,,,,,,,,,,,
,,0,40,,,,,,,3,4,3,stim/43.jpeg,HouseObjects,1,stim/objects/HouseObjects/rubbergloves2.png,0.9,2,0.2,0.15,left,12,2020-12-16_17h07.50.476,premup-three_ses-01_part-01_label-phase1,3.2.4,Win32,60,right,1.252000093,4,0,4,0,1,3,1,0,240,226,1,239,,,,,,,,,,,,,,,,,,
,,1,41,,,,,,,2,2,2,stim/22.jpeg,HouseObjects,1,stim/objects/HouseObjects/ironingboard2.png,0.7,3,-0.2,-0.15,left,12,2020-12-16_17h07.50.476,premup-three_ses-01_part-01_label-phase1,3.2.4,Win32,60,left,1.451999903,4,0,4,0,1,3,1,0,240,121,1,239,,,,,,,,,,,,,,,,,,
,,1,42,,,,,,,1,6,2,stim/62.jpeg,Instruments,2,stim/objects/Instruments/musicsheet.png,0.5,2,0.2,0.15,right,12,2020-12-16_17h07.50.476,premup-three_ses-01_part-01_label-phase1,3.2.4,Win32,60,right,1.569000006,4,0,4,0,1,3,1,0,240,65,1,239,,,,,,,,,,,,,,,,,,
,,0,43,,,,,,,1,6,4,stim/64.jpeg,HouseObjects,1,stim/objects/HouseObjects/pitcher.png,0.5,3,-0.2,-0.15,left,12,2020-12-16_17h07.50.476,premup-three_ses-01_part-01_label-phase1,3.2.4,Win32,60,right,0.722999811,4,0,4,0,1,3,1,0,240,47,1,239,,,,,,,,,,,,,,,,,,
,,1,44,,,,,,,2,1,2,stim/12.jpeg,HouseObjects,1,stim/objects/HouseObjects/remote.png,0.3,2,0.2,0.15,left,12,2020-12-16_17h07.50.476,premup-three_ses-01_part-01_label-phase1,3.2.4,Win32,60,left,1.108999968,4,0,4,0,1,3,1,0,240,85,1,239,,,,,,,,,,,,,,,,,,
,,1,45,,,,,,,1,6,3,stim/63.jpeg,Instruments,2,stim/objects/Instruments/musicstand.png,0.5,4,0.2,-0.15,right,12,2020-12-16_17h07.50.476,premup-three_ses-01_part-01_label-phase1,3.2.4,Win32,60,right,1.267999887,4,0,4,0,1,3,1,0,240,62,1,239,,,,,,,,,,,,,,,,,,
,,1,46,,,,,,,2,2,1,stim/21.jpeg,HouseObjects,1,stim/objects/HouseObjects/iron2.png,0.7,2,0.2,0.15,left,12,2020-12-16_17h07.50.476,premup-three_ses-01_part-01_label-phase1,3.2.4,Win32,60,left,1.191999912,4,0,4,0,1,3,1,0,240,128,1,239,,,,,,,,,,,,,,,,,,
,,0,47,,,,,,,3,4,2,stim/42.jpeg,HouseObjects,1,stim/objects/HouseObjects/remote2.png,0.9,2,0.2,0.15,left,12,2020-12-16_17h07.50.476,premup-three_ses-01_part-01_label-phase1,3.2.4,Win32,60,right,1.211999893,4,0,4,0,1,3,1,0,240,213,1,239,,,,,,,,,,,,,,,,,,
,,1,48,,,,,,,1,5,4,stim/54.jpeg,HouseObjects,1,stim/objects/HouseObjects/knife.png,0.5,4,0.2,-0.15,left,12,2020-12-16_17h07.50.476,premup-three_ses-01_part-01_label-phase1,3.2.4,Win32,60,left,1.257999897,4,0,4,0,1,3,1,0,240,19,1,239,,,,,,,,,,,,,,,,,,
,,0,49,,,,,,,1,6,4,stim/64.jpeg,Instruments,2,stim/objects/Instruments/oboe.png,0.5,3,-0.2,-0.15,right,12,2020-12-16_17h07.50.476,premup-three_ses-01_part-01_label-phase1,3.2.4,Win32,60,left,1.023999929,4,0,4,0,1,3,1,0,240,75,1,239,,,,,,,,,,,,,,,,,,
,,1,50,,,,,,,1,6,2,stim/62.jpeg,Instruments,2,stim/objects/Instruments/musicsheet.png,0.5,4,0.2,-0.15,right,12,2020-12-16_17h07.50.476,premup-three_ses-01_part-01_label-phase1,3.2.4,Win32,60,right,1.392999887,4,0,4,0,1,3,1,0,240,61,1,239,,,,,,,,,,,,,,,,,,
,,1,51,,,,,,,3,3,3,stim/33.jpeg,Instruments,2,stim/objects/Instruments/musicstand2.png,0.9,2,0.2,0.15,right,12,2020-12-16_17h07.50.476,premup-three_ses-01_part-01_label-phase1,3.2.4,Win32,60,right,1.299999714,4,0,4,0,1,3,1,0,240,174,1,239,,,,,,,,,,,,,,,,,,
,,1,52,,,,,,,2,2,3,stim/23.jpeg,HouseObjects,1,stim/objects/HouseObjects/key2.png,0.7,4,0.2,-0.15,left,12,2020-12-16_17h07.50.476,premup-three_ses-01_part-01_label-phase1,3.2.4,Win32,60,left,0.998999834,4,0,4,0,1,3,1,0,240,122,1,239,,,,,,,,,,,,,,,,,,
,,1,53,,,,,,,1,6,1,stim/61.jpeg,Instruments,2,stim/objects/Instruments/metronome.png,0.5,2,0.2,0.15,right,12,2020-12-16_17h07.50.476,premup-three_ses-01_part-01_label-phase1,3.2.4,Win32,60,right,1.085999966,4,0,4,0,1,3,1,0,240,60,1,239,,,,,,,,,,,,,,,,,,
,,1,54,,,,,,,2,2,3,stim/23.jpeg,HouseObjects,1,stim/objects/HouseObjects/key2.png,0.7,1,-0.2,0.15,left,12,2020-12-16_17h07.50.476,premup-three_ses-01_part-01_label-phase1,3.2.4,Win32,60,left,0.857999802,4,0,4,0,1,3,1,0,240,126,1,239,,,,,,,,,,,,,,,,,,
,,0,55,,,,,,,1,5,4,stim/54.jpeg,Instruments,2,stim/objects/Instruments/marimba.png,0.5,2,0.2,0.15,right,12,2020-12-16_17h07.50.476,premup-three_ses-01_part-01_label-phase1,3.2.4,Win32,60,left,1.203999996,4,0,4,0,1,3,1,0,240,23,1,239,,,,,,,,,,,,,,,,,,
,,0,56,,,,,,,2,1,3,stim/13.jpeg,Instruments,2,stim/objects/Instruments/record.png,0.7,1,-0.2,0.15,right,12,2020-12-16_17h07.50.476,premup-three_ses-01_part-01_label-phase1,3.2.4,Win32,60,left,1.24000001,4,0,4,0,1,3,1,0,240,118,1,239,,,,,,,,,,,,,,,,,,
,,1,57,,,,,,,3,3,1,stim/31.jpeg,Instruments,2,stim/objects/Instruments/metronome2.png,0.9,3,-0.2,-0.15,right,12,2020-12-16_17h07.50.476,premup-three_ses-01_part-01_label-phase1,3.2.4,Win32,60,right,1.137999773,4,0,4,0,1,3,1,0,240,192,1,239,,,,,,,,,,,,,,,,,,
,,1,58,,,,,,,2,2,2,stim/22.jpeg,HouseObjects,1,stim/objects/HouseObjects/ironingboard2.png,0.7,3,-0.2,-0.15,left,12,2020-12-16_17h07.50.476,premup-three_ses-01_part-01_label-phase1,3.2.4,Win32,60,left,0.984999895,4,0,4,0,1,3,1,0,240,137,1,239,,,,,,,,,,,,,,,,,,
,,1,59,,,,,,,2,2,4,stim/24.jpeg,HouseObjects,1,stim/objects/HouseObjects/knife2.png,0.7,3,-0.2,-0.15,left,12,2020-12-16_17h07.50.476,premup-three_ses-01_part-01_label-phase1,3.2.4,Win32,60,left,0.886999846,4,0,4,0,1,3,1,0,240,143,1,239,,,,,,,,,,,,,,,,,,
,,0,60,,,,,,,3,4,1,stim/41.jpeg,HouseObjects,1,stim/objects/HouseObjects/recyclingbin2.png,0.9,2,0.2,0.15,left,12,2020-12-16_17h07.50.476,premup-three_ses-01_part-01_label-phase1,3.2.4,Win32,60,right,0.717999935,4,0,4,0,1,3,1,0,240,216,1,239,,,,,,,,,,,,,,,,,,
,,1,61,,,,,,,3,4,1,stim/41.jpeg,HouseObjects,1,stim/objects/HouseObjects/recyclingbin2.png,0.9,3,-0.2,-0.15,left,12,2020-12-16_17h07.50.476,premup-three_ses-01_part-01_label-phase1,3.2.4,Win32,60,left,1.13499999,4,0,4,0,1,3,1,0,240,204,1,239,,,,,,,,,,,,,,,,,,
,,1,62,,,,,,,2,2,3,stim/23.jpeg,HouseObjects,1,stim/objects/HouseObjects/key2.png,0.7,1,-0.2,0.15,left,12,2020-12-16_17h07.50.476,premup-three_ses-01_part-01_label-phase1,3.2.4,Win32,60,left,0.98699975,4,0,4,0,1,3,1,0,240,138,1,239,,,,,,,,,,,,,,,,,,
,,1,63,,,,,,,3,4,4,stim/44.jpeg,HouseObjects,1,stim/objects/HouseObjects/rug2.png,0.9,2,0.2,0.15,left,12,2020-12-16_17h07.50.476,premup-three_ses-01_part-01_label-phase1,3.2.4,Win32,60,left,1.388999939,4,0,4,0,1,3,1,0,240,227,1,239,,,,,,,,,,,,,,,,,,
,,1,64,,,,,,,3,4,1,stim/41.jpeg,HouseObjects,1,stim/objects/HouseObjects/recyclingbin2.png,0.9,3,-0.2,-0.15,left,12,2020-12-16_17h07.50.476,premup-three_ses-01_part-01_label-phase1,3.2.4,Win32,60,left,1.041999817,4,0,4,0,1,3,1,0,240,212,1,239,,,,,,,,,,,,,,,,,,
,,0,65,,,,,,,1,5,2,stim/52.jpeg,HouseObjects,1,stim/objects/HouseObjects/ironingboard.png,0.5,2,0.2,0.15,left,12,2020-12-16_17h07.50.476,premup-three_ses-01_part-01_label-phase1,3.2.4,Win32,60,right,1.243999958,4,0,4,0,1,3,1,0,240,1,1,239,,,,,,,,,,,,,,,,,,
,,0,66,,,,,,,1,5,2,stim/52.jpeg,Instruments,2,stim/objects/Instruments/laud.png,0.5,2,0.2,0.15,right,12,2020-12-16_17h07.50.476,premup-three_ses-01_part-01_label-phase1,3.2.4,Win32,60,left,0.784999847,4,0,4,0,1,3,1,0,240,29,1,239,,,,,,,,,,,,,,,,,,
,,1,67,,,,,,,3,3,1,stim/31.jpeg,Instruments,2,stim/objects/Instruments/metronome2.png,0.9,2,0.2,0.15,right,12,2020-12-16_17h07.50.476,premup-three_ses-01_part-01_label-phase1,3.2.4,Win32,60,right,0.910999775,4,0,4,0,1,3,1,0,240,180,1,239,,,,,,,,,,,,,,,,,,
,,0,68,,,,,,,1,5,4,stim/54.jpeg,HouseObjects,1,stim/objects/HouseObjects/knife.png,0.5,1,-0.2,0.15,left,12,2020-12-16_17h07.50.476,premup-three_ses-01_part-01_label-phase1,3.2.4,Win32,60,right,0.962999821,4,0,4,0,1,3,1,0,240,11,1,239,,,,,,,,,,,,,,,,,,
,,0,69,,,,,,,2,1,1,stim/11.jpeg,Instruments,2,stim/objects/Instruments/panflute.png,0.7,3,-0.2,-0.15,right,12,2020-12-16_17h07.50.476,premup-three_ses-01_part-01_label-phase1,3.2.4,Win32,60,left,1.500999928,4,0,4,0,1,3,1,0,240,104,1,239,,,,,,,,,,,,,,,,,,
,,1,70,,,,,,,3,3,2,stim/32.jpeg,Instruments,2,stim/objects/Instruments/musicsheet2.png,0.9,4,0.2,-0.15,right,12,2020-12-16_17h07.50.476,premup-three_ses-01_part-01_label-phase1,3.2.4,Win32,60,right,1.298999786,4,0,4,0,1,3,1,0,240,181,1,239,,,,,,,,,,,,,,,,,,
,,1,71,,,,,,,3,3,4,stim/34.jpeg,Instruments,2,stim/objects/Instruments/oboe2.png,0.9,4,0.2,-0.15,right,12,2020-12-16_17h07.50.476,premup-three_ses-01_part-01_label-phase1,3.2.4,Win32,60,right,0.700000048,4,0,4,0,1,3,1,0,240,179,1,239,,,,,,,,,,,,,,,,,,
,,0,72,,,,,,,1,6,4,stim/64.jpeg,Instruments,2,stim/objects/Instruments/oboe.png,0.5,3,-0.2,-0.15,right,12,2020-12-16_17h07.50.476,premup-three_ses-01_part-01_label-phase1,3.2.4,Win32,60,left,1.460000038,4,0,4,0,1,3,1,0,240,79,1,239,,,,,,,,,,,,,,,,,,
,,0,73,,,,,,,3,3,4,stim/34.jpeg,HouseObjects,1,stim/objects/HouseObjects/pitcher2.png,0.1,3,-0.2,-0.15,left,12,2020-12-16_17h07.50.476,premup-three_ses-01_part-01_label-phase1,3.2.4,Win32,60,right,1.189999819,4,0,4,0,1,3,1,0,240,163,1,239,,,,,,,,,,,,,,,,,,
,,0,74,,,,,,,3,4,2,stim/42.jpeg,HouseObjects,1,stim/objects/HouseObjects/remote2.png,0.9,2,0.2,0.15,left,12,2020-12-16_17h07.50.476,premup-three_ses-01_part-01_label-phase1,3.2.4,Win32,60,right,1.019999981,4,0,4,0,1,3,1,0,240,225,1,239,,,,,,,,,,,,,,,,,,
,,0,75,,,,,,,2,2,3,stim/23.jpeg,HouseObjects,1,stim/objects/HouseObjects/key2.png,0.7,2,0.2,0.15,left,12,2020-12-16_17h07.50.476,premup-three_ses-01_part-01_label-phase1,3.2.4,Win32,60,right,1.264999866,4,0,4,0,1,3,1,0,240,146,1,239,,,,,,,,,,,,,,,,,,
,,0,76,,,,,,,2,2,4,stim/24.jpeg,Instruments,2,stim/objects/Instruments/marimba2.png,0.3,2,0.2,0.15,right,12,2020-12-16_17h07.50.476,premup-three_ses-01_part-01_label-phase1,3.2.4,Win32,60,left,0.722999811,4,0,4,0,1,3,1,0,240,159,1,239,,,,,,,,,,,,,,,,,,
,,1,77,,,,,,,1,6,3,stim/63.jpeg,Instruments,2,stim/objects/Instruments/musicstand.png,0.5,3,-0.2,-0.15,right,12,2020-12-16_17h07.50.476,premup-three_ses-01_part-01_label-phase1,3.2.4,Win32,60,right,1.596999884,4,0,4,0,1,3,1,0,240,70,1,239,,,,,,,,,,,,,,,,,,
,,0,78,,,,,,,2,1,4,stim/14.jpeg,HouseObjects,1,stim/objects/HouseObjects/rug.png,0.3,4,0.2,-0.15,left,12,2020-12-16_17h07.50.476,premup-three_ses-01_part-01_label-phase1,3.2.4,Win32,60,right,1.148000002,4,0,4,0,1,3,1,0,240,83,1,239,,,,,,,,,,,,,,,,,,
,,0,79,,,,,,,1,6,2,stim/62.jpeg,Instruments,2,stim/objects/Instruments/musicsheet.png,0.5,2,0.2,0.15,right,12,2020-12-16_17h07.50.476,premup-three_ses-01_part-01_label-phase1,3.2.4,Win32,60,left,1.363999844,4,0,4,0,1,3,1,0,240,77,1,239,,,,,,,,,,,,,,,,,,
,,1,80,,,,,,,3,4,1,stim/41.jpeg,HouseObjects,1,stim/objects/HouseObjects/recyclingbin2.png,0.9,3,-0.2,-0.15,left,12,2020-12-16_17h07.50.476,premup-three_ses-01_part-01_label-phase1,3.2.4,Win32,60,left,1.004999876,4,0,4,0,1,3,1,0,240,232,1,239,,,,,,,,,,,,,,,,,,
,,1,81,,,,,,,2,1,3,stim/13.jpeg,Instruments,2,stim/objects/Instruments/record.png,0.7,4,0.2,-0.15,right,12,2020-12-16_17h07.50.476,premup-three_ses-01_part-01_label-phase1,3.2.4,Win32,60,right,0.700000048,4,0,4,0,1,3,1,0,240,106,1,239,,,,,,,,,,,,,,,,,,
,,1,82,,,,,,,3,4,2,stim/42.jpeg,HouseObjects,1,stim/objects/HouseObjects/remote2.png,0.9,1,-0.2,0.15,left,12,2020-12-16_17h07.50.476,premup-three_ses-01_part-01_label-phase1,3.2.4,Win32,60,left,0.902999878,4,0,4,0,1,3,1,0,240,233,1,239,,,,,,,,,,,,,,,,,,
,,0,83,,,,,,,1,6,2,stim/62.jpeg,HouseObjects,1,stim/objects/HouseObjects/match.png,0.5,1,-0.2,0.15,left,12,2020-12-16_17h07.50.476,premup-three_ses-01_part-01_label-phase1,3.2.4,Win32,60,right,1.647999763,4,0,4,0,1,3,1,0,240,49,1,239,,,,,,,,,,,,,,,,,,
,,0,84,,,,,,,3,4,2,stim/42.jpeg,Instruments,2,stim/objects/Instruments/pipepiano2.png,0.1,3,-0.2,-0.15,right,12,2020-12-16_17h07.50.476,premup-three_ses-01_part-01_label-phase1,3.2.4,Win32,60,left,1.128999949,4,0,4,0,1,3,1,0,240,237,1,239,,,,,,,,,,,,,,,,,,
,,0,85,,,,,,,3,3,2,stim/32.jpeg,HouseObjects,1,stim/objects/HouseObjects/match2.png,0.1,4,0.2,-0.15,left,12,2020-12-16_17h07.50.476,premup-three_ses-01_part-01_label-phase1,3.2.4,Win32,60,right,0.787999868,4,0,4,0,1,3,1,0,240,161,1,239,,,,,,,,,,,,,,,,,,
,,0,86,,,,,,,1,6,2,stim/62.jpeg,HouseObjects,1,stim/objects/HouseObjects/match.png,0.5,1,-0.2,0.15,left,12,2020-12-16_17h07.50.476,premup-three_ses-01_part-01_label-phase1,3.2.4,Win32,60,right,1.25999999,4,0,4,0,1,3,1,0,240,53,1,239,,,,,,,,,,,,,,,,,,
,,0,87,,,,,,,2,1,2,stim/12.jpeg,Instruments,2,stim/objects/Instruments/pipepiano.png,0.7,1,-0.2,0.15,right,12,2020-12-16_17h07.50.476,premup-three_ses-01_part-01_label-phase1,3.2.4,Win32,60,left,0.812000036,4,0,4,0,1,3,1,0,240,93,1,239,,,,,,,,,,,,,,,,,,
,,1,88,,,,,,,2,1,3,stim/13.jpeg,Instruments,2,stim/objects/Instruments/record.png,0.7,4,0.2,-0.15,right,12,2020-12-16_17h07.50.476,premup-three_ses-01_part-01_label-phase1,3.2.4,Win32,60,right,1.88499999,4,0,4,0,1,3,1,0,240,94,1,239,,,,,,,,,,,,,,,,,,
,,1,89,,,,,,,1,6,1,stim/61.jpeg,HouseObjects,1,stim/objects/HouseObjects/lintroller.png,0.5,1,-0.2,0.15,left,12,2020-12-16_17h07.50.476,premup-three_ses-01_part-01_label-phase1,3.2.4,Win32,60,left,1.180000067,4,0,4,0,1,3,1,0,240,56,1,239,,,,,,,,,,,,,,,,,,
,,0,90,,,,,,,1,5,4,stim/54.jpeg,HouseObjects,1,stim/objects/HouseObjects/knife.png,0.5,2,0.2,0.15,left,12,2020-12-16_17h07.50.476,premup-three_ses-01_part-01_label-phase1,3.2.4,Win32,60,right,1.541999817,4,0,4,0,1,3,1,0,240,7,1,239,,,,,,,,,,,,,,,,,,
,,1,91,,,,,,,1,5,1,stim/51.jpeg,Instruments,2,stim/objects/Instruments/keyboard.png,0.5,4,0.2,-0.15,right,12,2020-12-16_17h07.50.476,premup-three_ses-01_part-01_label-phase1,3.2.4,Win32,60,right,1.558999777,4,0,4,0,1,3,1,0,240,36,1,239,,,,,,,,,,,,,,,,,,
,,1,92,,,,,,,1,5,2,stim/52.jpeg,HouseObjects,1,stim/objects/HouseObjects/ironingboard.png,0.5,2,0.2,0.15,left,12,2020-12-16_17h07.50.476,premup-three_ses-01_part-01_label-phase1,3.2.4,Win32,60,left,1.061000109,4,0,4,0,1,3,1,0,240,17,1,239,,,,,,,,,,,,,,,,,,
,,0,93,,,,,,,2,1,1,stim/11.jpeg,HouseObjects,1,stim/objects/HouseObjects/recyclingbin.png,0.3,1,-0.2,0.15,left,12,2020-12-16_17h07.50.476,premup-three_ses-01_part-01_label-phase1,3.2.4,Win32,60,right,1.320999861,4,0,4,0,1,3,1,0,240,80,1,239,,,,,,,,,,,,,,,,,,
,,0,94,,,,,,,3,4,4,stim/44.jpeg,HouseObjects,1,stim/objects/HouseObjects/rug2.png,0.9,4,0.2,-0.15,left,12,2020-12-16_17h07.50.476,premup-three_ses-01_part-01_label-phase1,3.2.4,Win32,60,right,1.842999935,4,0,4,0,1,3,1,0,240,223,1,239,,,,,,,,,,,,,,,,,,
,,1,95,,,,,,,3,4,2,stim/42.jpeg,HouseObjects,1,stim/objects/HouseObjects/remote2.png,0.9,4,0.2,-0.15,left,12,2020-12-16_17h07.50.476,premup-three_ses-01_part-01_label-phase1,3.2.4,Win32,60,left,0.928999901,4,0,4,0,1,3,1,0,240,217,1,239,,,,,,,,,,,,,,,,,,
,,0,96,,,,,,,2,1,2,stim/12.jpeg,Instruments,2,stim/objects/Instruments/pipepiano.png,0.7,2,0.2,0.15,right,12,2020-12-16_17h07.50.476,premup-three_ses-01_part-01_label-phase1,3.2.4,Win32,60,left,0.78399992,4,0,4,0,1,3,1,0,240,105,1,239,,,,,,,,,,,,,,,,,,
,,1,97,,,,,,,1,5,3,stim/53.jpeg,Instruments,2,stim/objects/Instruments/maraca.png,0.5,3,-0.2,-0.15,right,12,2020-12-16_17h07.50.476,premup-three_ses-01_part-01_label-phase1,3.2.4,Win32,60,right,1.046999931,4,0,4,0,1,3,1,0,240,22,1,239,,,,,,,,,,,,,,,,,,
,,1,98,,,,,,,2,1,1,stim/11.jpeg,HouseObjects,1,stim/objects/HouseObjects/recyclingbin.png,0.3,4,0.2,-0.15,left,12,2020-12-16_17h07.50.476,premup-three_ses-01_part-01_label-phase1,3.2.4,Win32,60,left,0.990999937,4,0,4,0,1,3,1,0,240,84,1,239,,,,,,,,,,,,,,,,,,
,,1,99,,,,,,,3,3,1,stim/31.jpeg,Instruments,2,stim/objects/Instruments/metronome2.png,0.9,4,0.2,-0.15,right,12,2020-12-16_17h07.50.476,premup-three_ses-01_part-01_label-phase1,3.2.4,Win32,60,right,0.898999929,4,0,4,0,1,3,1,0,240,168,1,239,,,,,,,,,,,,,,,,,,
,,1,100,,,,,,,1,6,1,stim/61.jpeg,Instruments,2,stim/objects/Instruments/metronome.png,0.5,1,-0.2,0.15,right,12,2020-12-16_17h07.50.476,premup-three_ses-01_part-01_label-phase1,3.2.4,Win32,60,right,1.450999737,4,0,4,0,1,3,1,0,240,72,1,239,,,,,,,,,,,,,,,,,,
,,1,101,,,,,,,2,1,3,stim/13.jpeg,HouseObjects,1,stim/objects/HouseObjects/rubbergloves.png,0.3,4,0.2,-0.15,left,12,2020-12-16_17h07.50.476,premup-three_ses-01_part-01_label-phase1,3.2.4,Win32,60,left,1.092999935,4,0,4,0,1,3,1,0,240,86,1,239,,,,,,,,,,,,,,,,,,
,,1,102,,,,,,,2,2,2,stim/22.jpeg,HouseObjects,1,stim/objects/HouseObjects/ironingboard2.png,0.7,1,-0.2,0.15,left,12,2020-12-16_17h07.50.476,premup-three_ses-01_part-01_label-phase1,3.2.4,Win32,60,left,1.100999832,4,0,4,0,1,3,1,0,240,133,1,239,,,,,,,,,,,,,,,,,,
,,1,103,,,,,,,2,2,4,stim/24.jpeg,HouseObjects,1,stim/objects/HouseObjects/knife2.png,0.7,4,0.2,-0.15,left,12,2020-12-16_17h07.50.476,premup-three_ses-01_part-01_label-phase1,3.2.4,Win32,60,left,0.806999922,4,0,4,0,1,3,1,0,240,123,1,239,,,,,,,,,,,,,,,,,,
,,0,104,,,,,,,1,6,4,stim/64.jpeg,Instruments,2,stim/objects/Instruments/oboe.png,0.5,1,-0.2,0.15,right,12,2020-12-16_17h07.50.476,premup-three_ses-01_part-01_label-phase1,3.2.4,Win32,60,left,1.319000006,4,0,4,0,1,3,1,0,240,71,1,239,,,,,,,,,,,,,,,,,,
,,1,105,,,,,,,3,3,3,stim/33.jpeg,Instruments,2,stim/objects/Instruments/musicstand2.png,0.9,1,-0.2,0.15,right,12,2020-12-16_17h07.50.476,premup-three_ses-01_part-01_label-phase1,3.2.4,Win32,60,right,1.284999847,4,0,4,0,1,3,1,0,240,194,1,239,,,,,,,,,,,,,,,,,,
,,1,106,,,,,,,1,6,4,stim/64.jpeg,Instruments,2,stim/objects/Instruments/oboe.png,0.5,3,-0.2,-0.15,right,12,2020-12-16_17h07.50.476,premup-three_ses-01_part-01_label-phase1,3.2.4,Win32,60,right,0.641000032,4,0,4,0,1,3,1,0,240,63,1,239,,,,,,,,,,,,,,,,,,
,,0,107,,,,,,,2,2,3,stim/23.jpeg,Instruments,2,stim/objects/Instruments/maraca2.png,0.3,2,0.2,0.15,right,12,2020-12-16_17h07.50.476,premup-three_ses-01_part-01_label-phase1,3.2.4,Win32,60,left,1.28399992,4,0,4,0,1,3,1,0,240,154,1,239,,,,,,,,,,,,,,,,,,
,,1,108,,,,,,,3,3,4,stim/34.jpeg,Instruments,2,stim/objects/Instruments/oboe2.png,0.9,1,-0.2,0.15,right,12,2020-12-16_17h07.50.476,premup-three_ses-01_part-01_label-phase1,3.2.4,Win32,60,right,1.46999979,4,0,4,0,1,3,1,0,240,183,1,239,,,,,,,,,,,,,,,,,,
,,1,109,,,,,,,2,2,4,stim/24.jpeg,HouseObjects,1,stim/objects/HouseObjects/knife2.png,0.7,3,-0.2,-0.15,left,12,2020-12-16_17h07.50.476,premup-three_ses-01_part-01_label-phase1,3.2.4,Win32,60,left,1.275000095,4,0,4,0,1,3,1,0,240,139,1,239,,,,,,,,,,,,,,,,,,
,,1,110,,,,,,,1,5,3,stim/53.jpeg,Instruments,2,stim/objects/Instruments/maraca.png,0.5,2,0.2,0.15,right,12,2020-12-16_17h07.50.476,premup-three_ses-01_part-01_label-phase1,3.2.4,Win32,60,right,1.404999971,4,0,4,0,1,3,1,0,240,26,1,239,,,,,,,,,,,,,,,,,,
,,1,111,,,,,,,2,2,2,stim/22.jpeg,HouseObjects,1,stim/objects/HouseObjects/ironingboard2.png,0.7,3,-0.2,-0.15,left,12,2020-12-16_17h07.50.476,premup-three_ses-01_part-01_label-phase1,3.2.4,Win32,60,left,0.880999804,4,0,4,0,1,3,1,0,240,145,1,239,,,,,,,,,,,,,,,,,,
,,0,112,,,,,,,2,2,3,stim/23.jpeg,Instruments,2,stim/objects/Instruments/maraca2.png,0.3,1,-0.2,0.15,right,12,2020-12-16_17h07.50.476,premup-three_ses-01_part-01_label-phase1,3.2.4,Win32,60,left,1.00999999,4,0,4,0,1,3,1,0,240,158,1,239,,,,,,,,,,,,,,,,,,
,,1,113,,,,,,,3,3,4,stim/34.jpeg,Instruments,2,stim/objects/Instruments/oboe2.png,0.9,4,0.2,-0.15,right,12,2020-12-16_17h07.50.476,premup-three_ses-01_part-01_label-phase1,3.2.4,Win32,60,right,1.119999886,4,0,4,0,1,3,1,0,240,167,1,239,,,,,,,,,,,,,,,,,,
,,1,114,,,,,,,3,4,1,stim/41.jpeg,HouseObjects,1,stim/objects/HouseObjects/recyclingbin2.png,0.9,1,-0.2,0.15,left,12,2020-12-16_17h07.50.476,premup-three_ses-01_part-01_label-phase1,3.2.4,Win32,60,left,1.139999866,4,0,4,0,1,3,1,0,240,208,1,239,,,,,,,,,,,,,,,,,,
,,0,115,,,,,,,3,3,3,stim/33.jpeg,HouseObjects,1,stim/objects/HouseObjects/pan2.png,0.1,4,0.2,-0.15,left,12,2020-12-16_17h07.50.476,premup-three_ses-01_part-01_label-phase1,3.2.4,Win32,60,right,0.851999998,4,0,4,0,1,3,1,0,240,162,1,239,,,,,,,,,,,,,,,,,,
,,0,116,,,,,,,2,1,3,stim/13.jpeg,Instruments,2,stim/objects/Instruments/record.png,0.7,4,0.2,-0.15,right,12,2020-12-16_17h07.50.476,premup-three_ses-01_part-01_label-phase1,3.2.4,Win32,60,left,1.11899972,4,0,4,0,1,3,1,0,240,114,1,239,,,,,,,,,,,,,,,,,,
,,0,117,,,,,,,1,5,3,stim/53.jpeg,HouseObjects,1,stim/objects/HouseObjects/key.png,0.5,1,-0.2,0.15,left,12,2020-12-16_17h07.50.476,premup-three_ses-01_part-01_label-phase1,3.2.4,Win32,60,right,1.095999956,4,0,4,0,1,3,1,0,240,2,1,239,,,,,,,,,,,,,,,,,,
,,1,118,,,,,,,2,2,2,stim/22.jpeg,HouseObjects,1,stim/objects/HouseObjects/ironingboard2.png,0.7,3,-0.2,-0.15,left,12,2020-12-16_17h07.50.476,premup-three_ses-01_part-01_label-phase1,3.2.4,Win32,60,left,1.766000032,4,0,4,0,1,3,1,0,240,129,1,239,,,,,,,,,,,,,,,,,,
,,0,119,,,,,,,2,1,4,stim/14.jpeg,Instruments,2,stim/objects/Instruments/record_player.png,0.7,3,-0.2,-0.15,right,12,2020-12-16_17h07.50.476,premup-three_ses-01_part-01_label-phase1,3.2.4,Win32,60,left,1.289999962,4,0,4,0,1,3,1,0,240,103,1,239,,,,,,,,,,,,,,,,,,
,,0,120,,,,,,,2,1,2,stim/12.jpeg,Instruments,2,stim/objects/Instruments/pipepiano.png,0.7,1,-0.2,0.15,right,12,2020-12-16_17h07.50.476,premup-three_ses-01_part-01_label-phase1,3.2.4,Win32,60,left,1.715999842,4,0,4,0,1,3,1,0,240,117,1,239,,,,,,,,,,,,,,,,,,
,,1,121,,,,,,,1,5,1,stim/51.jpeg,HouseObjects,1,stim/objects/HouseObjects/iron.png,0.5,3,-0.2,-0.15,left,12,2020-12-16_17h07.50.476,premup-three_ses-01_part-01_label-phase1,3.2.4,Win32,60,left,1.532999992,4,0,4,0,1,3,1,0,240,0,1,239,,,,,,,,,,,,,,,,,,
,,0,122,,,,,,,2,2,4,stim/24.jpeg,HouseObjects,1,stim/objects/HouseObjects/knife2.png,0.7,4,0.2,-0.15,left,12,2020-12-16_17h07.50.476,premup-three_ses-01_part-01_label-phase1,3.2.4,Win32,60,right,1.434000015,4,0,4,0,1,3,1,0,240,147,1,239,,,,,,,,,,,,,,,,,,
,,0,123,,,,,,,1,5,4,stim/54.jpeg,HouseObjects,1,stim/objects/HouseObjects/knife.png,0.5,3,-0.2,-0.15,left,12,2020-12-16_17h07.50.476,premup-three_ses-01_part-01_label-phase1,3.2.4,Win32,60,right,1.476999998,4,0,4,0,1,3,1,0,240,15,1,239,,,,,,,,,,,,,,,,,,
,,1,124,,,,,,,3,4,2,stim/42.jpeg,HouseObjects,1,stim/objects/HouseObjects/remote2.png,0.9,1,-0.2,0.15,left,12,2020-12-16_17h07.50.476,premup-three_ses-01_part-01_label-phase1,3.2.4,Win32,60,left,1.295000076,4,0,4,0,1,3,1,0,240,201,1,239,,,,,,,,,,,,,,,,,,
,,1,125,,,,,,,2,1,2,stim/12.jpeg,Instruments,2,stim/objects/Instruments/pipepiano.png,0.7,3,-0.2,-0.15,right,12,2020-12-16_17h07.50.476,premup-three_ses-01_part-01_label-phase1,3.2.4,Win32,60,right,1.169000149,4,0,4,0,1,3,1,0,240,101,1,239,,,,,,,,,,,,,,,,,,
,,1,126,,,,,,,3,4,4,stim/44.jpeg,HouseObjects,1,stim/objects/HouseObjects/rug2.png,0.9,4,0.2,-0.15,left,12,2020-12-16_17h07.50.476,premup-three_ses-01_part-01_label-phase1,3.2.4,Win32,60,left,1.003000021,4,0,4,0,1,3,1,0,240,211,1,239,,,,,,,,,,,,,,,,,,
,,0,127,,,,,,,1,6,2,stim/62.jpeg,HouseObjects,1,stim/objects/HouseObjects/match.png,0.5,3,-0.2,-0.15,left,12,2020-12-16_17h07.50.476,premup-three_ses-01_part-01_label-phase1,3.2.4,Win32,60,right,1.088000059,4,0,4,0,1,3,1,0,240,41,1,239,,,,,,,,,,,,,,,,,,
,,0,128,,,,,,,2,2,3,stim/23.jpeg,HouseObjects,1,stim/objects/HouseObjects/key2.png,0.7,3,-0.2,-0.15,left,12,2020-12-16_17h07.50.476,premup-three_ses-01_part-01_label-phase1,3.2.4,Win32,60,right,0.90199995,4,0,4,0,1,3,1,0,240,142,1,239,,,,,,,,,,,,,,,,,,
,,1,129,,,,,,,3,3,4,stim/34.jpeg,Instruments,2,stim/objects/Instruments/oboe2.png,0.9,1,-0.2,0.15,right,12,2020-12-16_17h07.50.476,premup-three_ses-01_part-01_label-phase1,3.2.4,Win32,60,right,1.430999756,4,0,4,0,1,3,1,0,240,199,1,239,,,,,,,,,,,,,,,,,,
,,1,130,,,,,,,2,1,4,stim/14.jpeg,HouseObjects,1,stim/objects/HouseObjects/rug.png,0.3,3,-0.2,-0.15,left,12,2020-12-16_17h07.50.476,premup-three_ses-01_part-01_label-phase1,3.2.4,Win32,60,left,1.065000057,4,0,4,0,1,3,1,0,240,91,1,239,,,,,,,,,,,,,,,,,,
,,1,131,,,,,,,3,4,3,stim/43.jpeg,HouseObjects,1,stim/objects/HouseObjects/rubbergloves2.png,0.9,4,0.2,-0.15,left,12,2020-12-16_17h07.50.476,premup-three_ses-01_part-01_label-phase1,3.2.4,Win32,60,left,1.118999958,4,0,4,0,1,3,1,0,240,222,1,239,,,,,,,,,,,,,,,,,,
,,0,132,,,,,,,1,5,1,stim/51.jpeg,Instruments,2,stim/objects/Instruments/keyboard.png,0.5,1,-0.2,0.15,right,12,2020-12-16_17h07.50.476,premup-three_ses-01_part-01_label-phase1,3.2.4,Win32,60,left,1.263000011,4,0,4,0,1,3,1,0,240,24,1,239,,,,,,,,,,,,,,,,,,
,,1,133,,,,,,,3,4,2,stim/42.jpeg,HouseObjects,1,stim/objects/HouseObjects/remote2.png,0.9,3,-0.2,-0.15,left,12,2020-12-16_17h07.50.476,premup-three_ses-01_part-01_label-phase1,3.2.4,Win32,60,left,0.931999922,4,0,4,0,1,3,1,0,240,221,1,239,,,,,,,,,,,,,,,,,,
,,1,134,,,,,,,3,3,3,stim/33.jpeg,Instruments,2,stim/objects/Instruments/musicstand2.png,0.9,4,0.2,-0.15,right,12,2020-12-16_17h07.50.476,premup-three_ses-01_part-01_label-phase1,3.2.4,Win32,60,right,0.941999912,4,0,4,0,1,3,1,0,240,178,1,239,,,,,,,,,,,,,,,,,,
,,1,135,,,,,,,3,3,3,stim/33.jpeg,Instruments,2,stim/objects/Instruments/musicstand2.png,0.9,2,0.2,0.15,right,12,2020-12-16_17h07.50.476,premup-three_ses-01_part-01_label-phase1,3.2.4,Win32,60,right,0.946999788,4,0,4,0,1,3,1,0,240,182,1,239,,,,,,,,,,,,,,,,,,
,,0,136,,,,,,,2,2,4,stim/24.jpeg,Instruments,2,stim/objects/Instruments/marimba2.png,0.3,3,-0.2,-0.15,right,12,2020-12-16_17h07.50.476,premup-three_ses-01_part-01_label-phase1,3.2.4,Win32,60,left,1.797999859,4,0,4,0,1,3,1,0,240,151,1,239,,,,,,,,,,,,,,,,,,
,,1,137,,,,,,,3,3,1,stim/31.jpeg,Instruments,2,stim/objects/Instruments/metronome2.png,0.9,3,-0.2,-0.15,right,12,2020-12-16_17h07.50.476,premup-three_ses-01_part-01_label-phase1,3.2.4,Win32,60,right,0.812000036,4,0,4,0,1,3,1,0,240,188,1,239,,,,,,,,,,,,,,,,,,
,,0,138,,,,,,,1,5,1,stim/51.jpeg,HouseObjects,1,stim/objects/HouseObjects/iron.png,0.5,1,-0.2,0.15,left,12,2020-12-16_17h07.50.476,premup-three_ses-01_part-01_label-phase1,3.2.4,Win32,60,right,1.325000048,4,0,4,0,1,3,1,0,240,16,1,239,,,,,,,,,,,,,,,,,,
,,1,139,,,,,,,3,4,3,stim/43.jpeg,HouseObjects,1,stim/objects/HouseObjects/rubbergloves2.png,0.9,1,-0.2,0.15,left,12,2020-12-16_17h07.50.476,premup-three_ses-01_part-01_label-phase1,3.2.4,Win32,60,left,0.671000004,4,0,4,0,1,3,1,0,240,210,1,239,,,,,,,,,,,,,,,,,,
,,0,140,,,,,,,2,1,2,stim/12.jpeg,Instruments,2,stim/objects/Instruments/pipepiano.png,0.7,3,-0.2,-0.15,right,12,2020-12-16_17h07.50.476,premup-three_ses-01_part-01_label-phase1,3.2.4,Win32,60,left,1.467999935,4,0,4,0,1,3,1,0,240,97,1,239,,,,,,,,,,,,,,,,,,
,,0,141,,,,,,,1,5,1,stim/51.jpeg,Instruments,2,stim/objects/Instruments/keyboard.png,0.5,1,-0.2,0.15,right,12,2020-12-16_17h07.50.476,premup-three_ses-01_part-01_label-phase1,3.2.4,Win32,60,left,1.368999958,4,0,4,0,1,3,1,0,240,32,1,239,,,,,,,,,,,,,,,,,,
,,1,142,,,,,,,3,3,3,stim/33.jpeg,Instruments,2,stim/objects/Instruments/musicstand2.png,0.9,2,0.2,0.15,right,12,2020-12-16_17h07.50.476,premup-three_ses-01_part-01_label-phase1,3.2.4,Win32,60,right,1.372999907,4,0,4,0,1,3,1,0,240,198,1,239,,,,,,,,,,,,,,,,,,
,,1,143,,,,,,,3,4,1,stim/41.jpeg,HouseObjects,1,stim/objects/HouseObjects/recyclingbin2.png,0.9,1,-0.2,0.15,left,12,2020-12-16_17h07.50.476,premup-three_ses-01_part-01_label-phase1,3.2.4,Win32,60,left,0.934000015,4,0,4,0,1,3,1,0,240,220,1,239,,,,,,,,,,,,,,,,,,
,,0,144,,,,,,,2,1,3,stim/13.jpeg,Instruments,2,stim/objects/Instruments/record.png,0.7,4,0.2,-0.15,right,12,2020-12-16_17h07.50.476,premup-three_ses-01_part-01_label-phase1,3.2.4,Win32,60,left,1.381999731,4,0,4,0,1,3,1,0,240,110,1,239,,,,,,,,,,,,,,,,,,
,,0,145,,,,,,,3,3,4,stim/34.jpeg,Instruments,2,stim/objects/Instruments/oboe2.png,0.9,3,-0.2,-0.15,right,12,2020-12-16_17h07.50.476,premup-three_ses-01_part-01_label-phase1,3.2.4,Win32,60,left,0.987999916,4,0,4,0,1,3,1,0,240,191,1,239,,,,,,,,,,,,,,,,,,
,,1,146,,,,,,,1,5,2,stim/52.jpeg,Instruments,2,stim/objects/Instruments/laud.png,0.5,4,0.2,-0.15,right,12,2020-12-16_17h07.50.476,premup-three_ses-01_part-01_label-phase1,3.2.4,Win32,60,right,1.559999943,4,0,4,0,1,3,1,0,240,33,1,239,,,,,,,,,,,,,,,,,,
,,0,147,,,,,,,1,5,4,stim/54.jpeg,Instruments,2,stim/objects/Instruments/marimba.png,0.5,3,-0.2,-0.15,right,12,2020-12-16_17h07.50.476,premup-three_ses-01_part-01_label-phase1,3.2.4,Win32,60,left,0.934999943,4,0,4,0,1,3,1,0,240,31,1,239,,,,,,,,,,,,,,,,,,
,,0,148,,,,,,,1,6,3,stim/63.jpeg,HouseObjects,1,stim/objects/HouseObjects/pan.png,0.5,4,0.2,-0.15,left,12,2020-12-16_17h07.50.476,premup-three_ses-01_part-01_label-phase1,3.2.4,Win32,60,right,0.867999792,4,0,4,0,1,3,1,0,240,50,1,239,,,,,,,,,,,,,,,,,,
,,0,149,,,,,,,3,4,1,stim/41.jpeg,Instruments,2,stim/objects/Instruments/panflute2.png,0.1,1,-0.2,0.15,right,12,2020-12-16_17h07.50.476,premup-three_ses-01_part-01_label-phase1,3.2.4,Win32,60,left,1.670000076,4,0,4,0,1,3,1,0,240,236,1,239,,,,,,,,,,,,,,,,,,
,,0,150,,,,,,,2,2,3,stim/23.jpeg,HouseObjects,1,stim/objects/HouseObjects/key2.png,0.7,3,-0.2,-0.15,left,12,2020-12-16_17h07.50.476,premup-three_ses-01_part-01_label-phase1,3.2.4,Win32,60,right,1.059999943,4,0,4,0,1,3,1,0,240,130,1,239,,,,,,,,,,,,,,,,,,
,,0,151,,,,,,,1,6,1,stim/61.jpeg,HouseObjects,1,stim/objects/HouseObjects/lintroller.png,0.5,4,0.2,-0.15,left,12,2020-12-16_17h07.50.476,premup-three_ses-01_part-01_label-phase1,3.2.4,Win32,60,right,1.285000086,4,0,4,0,1,3,1,0,240,40,1,239,,,,,,,,,,,,,,,,,,
,,1,152,,,,,,,2,1,1,stim/11.jpeg,Instruments,2,stim/objects/Instruments/panflute.png,0.7,3,-0.2,-0.15,right,12,2020-12-16_17h07.50.476,premup-three_ses-01_part-01_label-phase1,3.2.4,Win32,60,right,1.294999838,4,0,4,0,1,3,1,0,240,116,1,239,,,,,,,,,,,,,,,,,,
,,1,153,,,,,,,2,2,4,stim/24.jpeg,HouseObjects,1,stim/objects/HouseObjects/knife2.png,0.7,2,0.2,0.15,left,12,2020-12-16_17h07.50.476,premup-three_ses-01_part-01_label-phase1,3.2.4,Win32,60,left,1.210000038,4,0,4,0,1,3,1,0,240,135,1,239,,,,,,,,,,,,,,,,,,
,,1,154,,,,,,,2,1,1,stim/11.jpeg,Instruments,2,stim/objects/Instruments/panflute.png,0.7,2,0.2,0.15,right,12,2020-12-16_17h07.50.476,premup-three_ses-01_part-01_label-phase1,3.2.4,Win32,60,right,1.620999813,4,0,4,0,1,3,1,0,240,96,1,239,,,,,,,,,,,,,,,,,,
,,0,155,,,,,,,2,2,1,stim/21.jpeg,Instruments,2,stim/objects/Instruments/keyboard2.png,0.3,4,0.2,-0.15,right,12,2020-12-16_17h07.50.476,premup-three_ses-01_part-01_label-phase1,3.2.4,Win32,60,left,1.167999744,4,0,4,0,1,3,1,0,240,156,1,239,,,,,,,,,,,,,,,,,,
,,1,156,,,,,,,2,1,3,stim/13.jpeg,HouseObjects,1,stim/objects/HouseObjects/rubbergloves.png,0.3,1,-0.2,0.15,left,12,2020-12-16_17h07.50.476,premup-three_ses-01_part-01_label-phase1,3.2.4,Win32,60,left,1.068999767,4,0,4,0,1,3,1,0,240,90,1,239,,,,,,,,,,,,,,,,,,
,,1,157,,,,,,,3,4,4,stim/44.jpeg,HouseObjects,1,stim/objects/HouseObjects/rug2.png,0.9,2,0.2,0.15,left,12,2020-12-16_17h07.50.476,premup-three_ses-01_part-01_label-phase1,3.2.4,Win32,60,left,1.552999973,4,0,4,0,1,3,1,0,240,231,1,239,,,,,,,,,,,,,,,,,,
,,1,158,,,,,,,3,4,3,stim/43.jpeg,HouseObjects,1,stim/objects/HouseObjects/rubbergloves2.png,0.9,3,-0.2,-0.15,left,12,2020-12-16_17h07.50.476,premup-three_ses-01_part-01_label-phase1,3.2.4,Win32,60,left,1.151000023,4,0,4,0,1,3,1,0,240,206,1,239,,,,,,,,,,,,,,,,,,
,,0,159,,,,,,,2,2,1,stim/21.jpeg,HouseObjects,1,stim/objects/HouseObjects/iron2.png,0.7,1,-0.2,0.15,left,12,2020-12-16_17h07.50.476,premup-three_ses-01_part-01_label-phase1,3.2.4,Win32,60,right,1.245999813,4,0,4,0,1,3,1,0,240,132,1,239,,,,,,,,,,,,,,,,,,
,,1,160,,,,,,,1,6,3,stim/63.jpeg,HouseObjects,1,stim/objects/HouseObjects/pan.png,0.5,1,-0.2,0.15,left,12,2020-12-16_17h07.50.476,premup-three_ses-01_part-01_label-phase1,3.2.4,Win32,60,left,1.613999844,4,0,4,0,1,3,1,0,240,58,1,239,,,,,,,,,,,,,,,,,,
,,0,161,,,,,,,2,2,3,stim/23.jpeg,HouseObjects,1,stim/objects/HouseObjects/key2.png,0.7,2,0.2,0.15,left,12,2020-12-16_17h07.50.476,premup-three_ses-01_part-01_label-phase1,3.2.4,Win32,60,right,1.003000021,4,0,4,0,1,3,1,0,240,134,1,239,,,,,,,,,,,,,,,,,,
,,1,162,,,,,,,3,4,3,stim/43.jpeg,HouseObjects,1,stim/objects/HouseObjects/rubbergloves2.png,0.9,4,0.2,-0.15,left,12,2020-12-16_17h07.50.476,premup-three_ses-01_part-01_label-phase1,3.2.4,Win32,60,left,0.789999723,4,0,4,0,1,3,1,0,240,202,1,239,,,,,,,,,,,,,,,,,,
,,1,163,,,,,,,1,5,1,stim/51.jpeg,Instruments,2,stim/objects/Instruments/keyboard.png,0.5,4,0.2,-0.15,right,12,2020-12-16_17h07.50.476,premup-three_ses-01_part-01_label-phase1,3.2.4,Win32,60,right,0.900999784,4,0,4,0,1,3,1,0,240,20,1,239,,,,,,,,,,,,,,,,,,
,,0,164,,,,,,,1,6,3,stim/63.jpeg,Instruments,2,stim/objects/Instruments/musicstand.png,0.5,1,-0.2,0.15,right,12,2020-12-16_17h07.50.476,premup-three_ses-01_part-01_label-phase1,3.2.4,Win32,60,left,1.41899991,4,0,4,0,1,3,1,0,240,74,1,239,,,,,,,,,,,,,,,,,,
,,1,165,,,,,,,1,5,4,stim/54.jpeg,Instruments,2,stim/objects/Instruments/marimba.png,0.5,3,-0.2,-0.15,right,12,2020-12-16_17h07.50.476,premup-three_ses-01_part-01_label-phase1,3.2.4,Win32,60,right,1.756999969,4,0,4,0,1,3,1,0,240,39,1,239,,,,,,,,,,,,,,,,,,
,,1,166,,,,,,,3,4,4,stim/44.jpeg,HouseObjects,1,stim/objects/HouseObjects/rug2.png,0.9,4,0.2,-0.15,left,12,2020-12-16_17h07.50.476,premup-three_ses-01_part-01_label-phase1,3.2.4,Win32,60,left,0.889999866,4,0,4,0,1,3,1,0,240,235,1,239,,,,,,,,,,,,,,,,,,
,,1,167,,,,,,,1,5,1,stim/51.jpeg,Instruments,2,stim/objects/Instruments/keyboard.png,0.5,4,0.2,-0.15,right,12,2020-12-16_17h07.50.476,premup-three_ses-01_part-01_label-phase1,3.2.4,Win32,60,right,0.988999844,4,0,4,0,1,3,1,0,240,28,1,239,,,,,,,,,,,,,,,,,,
,,1,168,,,,,,,3,3,3,stim/33.jpeg,Instruments,2,stim/objects/Instruments/musicstand2.png,0.9,3,-0.2,-0.15,right,12,2020-12-16_17h07.50.476,premup-three_ses-01_part-01_label-phase1,3.2.4,Win32,60,right,0.999000072,4,0,4,0,1,3,1,0,240,186,1,239,,,,,,,,,,,,,,,,,,
,,0,169,,,,,,,1,5,1,stim/51.jpeg,HouseObjects,1,stim/objects/HouseObjects/iron.png,0.5,1,-0.2,0.15,left,12,2020-12-16_17h07.50.476,premup-three_ses-01_part-01_label-phase1,3.2.4,Win32,60,,,4,0,4,0,1,3,1,0,240,8,1,239,,,,,,,,,,,,,,,,,,
,,1,170,,,,,,,3,4,4,stim/44.jpeg,HouseObjects,1,stim/objects/HouseObjects/rug2.png,0.9,2,0.2,0.15,left,12,2020-12-16_17h07.50.476,premup-three_ses-01_part-01_label-phase1,3.2.4,Win32,60,left,1.14199996,4,0,4,0,1,3,1,0,240,203,1,239,,,,,,,,,,,,,,,,,,
,,0,171,,,,,,,1,5,3,stim/53.jpeg,HouseObjects,1,stim/objects/HouseObjects/key.png,0.5,2,0.2,0.15,left,12,2020-12-16_17h07.50.476,premup-three_ses-01_part-01_label-phase1,3.2.4,Win32,60,right,1.220999956,4,0,4,0,1,3,1,0,240,14,1,239,,,,,,,,,,,,,,,,,,
,,1,172,,,,,,,3,3,1,stim/31.jpeg,Instruments,2,stim/objects/Instruments/metronome2.png,0.9,1,-0.2,0.15,right,12,2020-12-16_17h07.50.476,premup-three_ses-01_part-01_label-phase1,3.2.4,Win32,60,right,1.404000044,4,0,4,0,1,3,1,0,240,164,1,239,,,,,,,,,,,,,,,,,,
,,1,173,,,,,,,3,3,4,stim/34.jpeg,Instruments,2,stim/objects/Instruments/oboe2.png,0.9,3,-0.2,-0.15,right,12,2020-12-16_17h07.50.476,premup-three_ses-01_part-01_label-phase1,3.2.4,Win32,60,right,0.80099988,4,0,4,0,1,3,1,0,240,195,1,239,,,,,,,,,,,,,,,,,,
,,0,174,,,,,,,2,1,1,stim/11.jpeg,Instruments,2,stim/objects/Instruments/panflute.png,0.7,2,0.2,0.15,right,12,2020-12-16_17h07.50.476,premup-three_ses-01_part-01_label-phase1,3.2.4,Win32,60,left,1.031999826,4,0,4,0,1,3,1,0,240,112,1,239,,,,,,,,,,,,,,,,,,
,,0,175,,,,,,,1,6,1,stim/61.jpeg,HouseObjects,1,stim/objects/HouseObjects/lintroller.png,0.5,2,0.2,0.15,left,12,2020-12-16_17h07.50.476,premup-three_ses-01_part-01_label-phase1,3.2.4,Win32,60,right,1.081999779,4,0,4,0,1,3,1,0,240,52,1,239,,,,,,,,,,,,,,,,,,
,,1,176,,,,,,,3,4,1,stim/41.jpeg,HouseObjects,1,stim/objects/HouseObjects/recyclingbin2.png,0.9,1,-0.2,0.15,left,12,2020-12-16_17h07.50.476,premup-three_ses-01_part-01_label-phase1,3.2.4,Win32,60,left,1.213000059,4,0,4,0,1,3,1,0,240,228,1,239,,,,,,,,,,,,,,,,,,
,,1,177,,,,,,,3,3,2,stim/32.jpeg,Instruments,2,stim/objects/Instruments/musicsheet2.png,0.9,4,0.2,-0.15,right,12,2020-12-16_17h07.50.476,premup-three_ses-01_part-01_label-phase1,3.2.4,Win32,60,right,0.996999979,4,0,4,0,1,3,1,0,240,177,1,239,,,,,,,,,,,,,,,,,,
,,1,178,,,,,,,1,6,4,stim/64.jpeg,Instruments,2,stim/objects/Instruments/oboe.png,0.5,2,0.2,0.15,right,12,2020-12-16_17h07.50.476,premup-three_ses-01_part-01_label-phase1,3.2.4,Win32,60,right,1.102999926,4,0,4,0,1,3,1,0,240,67,1,239,,,,,,,,,,,,,,,,,,
,,0,179,,,,,,,1,6,3,stim/63.jpeg,HouseObjects,1,stim/objects/HouseObjects/pan.png,0.5,1,-0.2,0.15,left,12,2020-12-16_17h07.50.476,premup-three_ses-01_part-01_label-phase1,3.2.4,Win32,60,right,1.092000008,4,0,4,0,1,3,1,0,240,42,1,239,,,,,,,,,,,,,,,,,,
,,1,180,,,,,,,1,5,4,stim/54.jpeg,Instruments,2,stim/objects/Instruments/marimba.png,0.5,2,0.2,0.15,right,12,2020-12-16_17h07.50.476,premup-three_ses-01_part-01_label-phase1,3.2.4,Win32,60,right,0.752000093,4,0,4,0,1,3,1,0,240,27,1,239,,,,,,,,,,,,,,,,,,
,,0,181,,,,,,,1,5,2,stim/52.jpeg,HouseObjects,1,stim/objects/HouseObjects/ironingboard.png,0.5,1,-0.2,0.15,left,12,2020-12-16_17h07.50.476,premup-three_ses-01_part-01_label-phase1,3.2.4,Win32,60,right,0.830999851,4,0,4,0,1,3,1,0,240,13,1,239,,,,,,,,,,,,,,,,,,
,,0,182,,,,,,,1,6,2,stim/62.jpeg,Instruments,2,stim/objects/Instruments/musicsheet.png,0.5,1,-0.2,0.15,right,12,2020-12-16_17h07.50.476,premup-three_ses-01_part-01_label-phase1,3.2.4,Win32,60,left,1.305999994,4,0,4,0,1,3,1,0,240,69,1,239,,,,,,,,,,,,,,,,,,
,,0,183,,,,,,,1,6,4,stim/64.jpeg,HouseObjects,1,stim/objects/HouseObjects/pitcher.png,0.5,4,0.2,-0.15,left,12,2020-12-16_17h07.50.476,premup-three_ses-01_part-01_label-phase1,3.2.4,Win32,60,right,0.939999819,4,0,4,0,1,3,1,0,240,59,1,239,,,,,,,,,,,,,,,,,,
,,1,184,,,,,,,2,2,2,stim/22.jpeg,Instruments,2,stim/objects/Instruments/laud2.png,0.3,3,-0.2,-0.15,right,12,2020-12-16_17h07.50.476,premup-three_ses-01_part-01_label-phase1,3.2.4,Win32,60,right,0.815999985,4,0,4,0,1,3,1,0,240,153,1,239,,,,,,,,,,,,,,,,,,
,,1,185,,,,,,,1,6,4,stim/64.jpeg,HouseObjects,1,stim/objects/HouseObjects/pitcher.png,0.5,4,0.2,-0.15,left,12,2020-12-16_17h07.50.476,premup-three_ses-01_part-01_label-phase1,3.2.4,Win32,60,left,1.107000113,4,0,4,0,1,3,1,0,240,51,1,239,,,,,,,,,,,,,,,,,,
,,1,186,,,,,,,3,4,3,stim/43.jpeg,HouseObjects,1,stim/objects/HouseObjects/rubbergloves2.png,0.9,2,0.2,0.15,left,12,2020-12-16_17h07.50.476,premup-three_ses-01_part-01_label-phase1,3.2.4,Win32,60,left,1.220000029,4,0,4,0,1,3,1,0,240,214,1,239,,,,,,,,,,,,,,,,,,
,,0,187,,,,,,,3,3,4,stim/34.jpeg,Instruments,2,stim/objects/Instruments/oboe2.png,0.9,2,0.2,0.15,right,12,2020-12-16_17h07.50.476,premup-three_ses-01_part-01_label-phase1,3.2.4,Win32,60,left,0.934999943,4,0,4,0,1,3,1,0,240,175,1,239,,,,,,,,,,,,,,,,,,
,,1,188,,,,,,,3,4,1,stim/41.jpeg,HouseObjects,1,stim/objects/HouseObjects/recyclingbin2.png,0.9,1,-0.2,0.15,left,12,2020-12-16_17h07.50.476,premup-three_ses-01_part-01_label-phase1,3.2.4,Win32,60,left,0.802999973,4,0,4,0,1,3,1,0,240,224,1,239,,,,,,,,,,,,,,,,,,
,,0,189,,,,,,,2,1,4,stim/14.jpeg,Instruments,2,stim/objects/Instruments/record_player.png,0.7,4,0.2,-0.15,right,12,2020-12-16_17h07.50.476,premup-three_ses-01_part-01_label-phase1,3.2.4,Win32,60,left,1.161999941,4,0,4,0,1,3,1,0,240,119,1,239,,,,,,,,,,,,,,,,,,
,,1,190,,,,,,,3,4,1,stim/41.jpeg,HouseObjects,1,stim/objects/HouseObjects/recyclingbin2.png,0.9,1,-0.2,0.15,left,12,2020-12-16_17h07.50.476,premup-three_ses-01_part-01_label-phase1,3.2.4,Win32,60,left,0.866999865,4,0,4,0,1,3,1,0,240,200,1,239,,,,,,,,,,,,,,,,,,
,,1,191,,,,,,,2,1,4,stim/14.jpeg,Instruments,2,stim/objects/Instruments/record_player.png,0.7,2,0.2,0.15,right,12,2020-12-16_17h07.50.476,premup-three_ses-01_part-01_label-phase1,3.2.4,Win32,60,right,0.705999851,4,0,4,0,1,3,1,0,240,107,1,239,,,,,,,,,,,,,,,,,,
,,1,192,,,,,,,3,3,2,stim/32.jpeg,Instruments,2,stim/objects/Instruments/musicsheet2.png,0.9,4,0.2,-0.15,right,12,2020-12-16_17h07.50.476,premup-three_ses-01_part-01_label-phase1,3.2.4,Win32,60,right,0.859999895,4,0,4,0,1,3,1,0,240,165,1,239,,,,,,,,,,,,,,,,,,
,,1,193,,,,,,,2,2,4,stim/24.jpeg,HouseObjects,1,stim/objects/HouseObjects/knife2.png,0.7,2,0.2,0.15,left,12,2020-12-16_17h07.50.476,premup-three_ses-01_part-01_label-phase1,3.2.4,Win32,60,left,1.266000032,4,0,4,0,1,3,1,0,240,131,1,239,,,,,,,,,,,,,,,,,,
,,1,194,,,,,,,2,1,3,stim/13.jpeg,Instruments,2,stim/objects/Instruments/record.png,0.7,2,0.2,0.15,right,12,2020-12-16_17h07.50.476,premup-three_ses-01_part-01_label-phase1,3.2.4,Win32,60,right,1.284999847,4,0,4,0,1,3,1,0,240,98,1,239,,,,,,,,,,,,,,,,,,
,,1,195,,,,,,,1,5,3,stim/53.jpeg,HouseObjects,1,stim/objects/HouseObjects/key.png,0.5,4,0.2,-0.15,left,12,2020-12-16_17h07.50.476,premup-three_ses-01_part-01_label-phase1,3.2.4,Win32,60,left,1.755999804,4,0,4,0,1,3,1,0,240,6,1,239,,,,,,,,,,,,,,,,,,
,,1,196,,,,,,,1,6,1,stim/61.jpeg,HouseObjects,1,stim/objects/HouseObjects/lintroller.png,0.5,4,0.2,-0.15,left,12,2020-12-16_17h07.50.476,premup-three_ses-01_part-01_label-phase1,3.2.4,Win32,60,left,1.637999773,4,0,4,0,1,3,1,0,240,44,1,239,,,,,,,,,,,,,,,,,,
,,1,197,,,,,,,1,6,4,stim/64.jpeg,HouseObjects,1,stim/objects/HouseObjects/pitcher.png,0.5,3,-0.2,-0.15,left,12,2020-12-16_17h07.50.476,premup-three_ses-01_part-01_label-phase1,3.2.4,Win32,60,left,1.014999866,4,0,4,0,1,3,1,0,240,43,1,239,,,,,,,,,,,,,,,,,,
,,1,198,,,,,,,3,3,3,stim/33.jpeg,Instruments,2,stim/objects/Instruments/musicstand2.png,0.9,2,0.2,0.15,right,12,2020-12-16_17h07.50.476,premup-three_ses-01_part-01_label-phase1,3.2.4,Win32,60,right,1.027999878,4,0,4,0,1,3,1,0,240,190,1,239,,,,,,,,,,,,,,,,,,
,,1,199,,,,,,,3,3,3,stim/33.jpeg,Instruments,2,stim/objects/Instruments/musicstand2.png,0.9,1,-0.2,0.15,right,12,2020-12-16_17h07.50.476,premup-three_ses-01_part-01_label-phase1,3.2.4,Win32,60,right,0.871999979,4,0,4,0,1,3,1,0,240,170,1,239,,,,,,,,,,,,,,,,,,
,,0,200,,,,,,,2,1,1,stim/11.jpeg,HouseObjects,1,stim/objects/HouseObjects/recyclingbin.png,0.3,2,0.2,0.15,left,12,2020-12-16_17h07.50.476,premup-three_ses-01_part-01_label-phase1,3.2.4,Win32,60,right,1.546999931,4,0,4,0,1,3,1,0,240,88,1,239,,,,,,,,,,,,,,,,,,
,,0,201,,,,,,,2,2,3,stim/23.jpeg,Instruments,2,stim/objects/Instruments/maraca2.png,0.3,1,-0.2,0.15,right,12,2020-12-16_17h07.50.476,premup-three_ses-01_part-01_label-phase1,3.2.4,Win32,60,left,1.273999929,4,0,4,0,1,3,1,0,240,150,1,239,,,,,,,,,,,,,,,,,,
,,1,202,,,,,,,1,6,2,stim/62.jpeg,HouseObjects,1,stim/objects/HouseObjects/match.png,0.5,3,-0.2,-0.15,left,12,2020-12-16_17h07.50.476,premup-three_ses-01_part-01_label-phase1,3.2.4,Win32,60,left,1.146999836,4,0,4,0,1,3,1,0,240,57,1,239,,,,,,,,,,,,,,,,,,
,,1,203,,,,,,,3,4,3,stim/43.jpeg,HouseObjects,1,stim/objects/HouseObjects/rubbergloves2.png,0.9,2,0.2,0.15,left,12,2020-12-16_17h07.50.476,premup-three_ses-01_part-01_label-phase1,3.2.4,Win32,60,left,0.937999964,4,0,4,0,1,3,1,0,240,218,1,239,,,,,,,,,,,,,,,,,,
,,1,204,,,,,,,3,3,3,stim/33.jpeg,Instruments,2,stim/objects/Instruments/musicstand2.png,0.9,2,0.2,0.15,right,12,2020-12-16_17h07.50.476,premup-three_ses-01_part-01_label-phase1,3.2.4,Win32,60,right,0.922999859,4,0,4,0,1,3,1,0,240,166,1,239,,,,,,,,,,,,,,,,,,
,,1,205,,,,,,,3,3,1,stim/31.jpeg,Instruments,2,stim/objects/Instruments/metronome2.png,0.9,2,0.2,0.15,right,12,2020-12-16_17h07.50.476,premup-three_ses-01_part-01_label-phase1,3.2.4,Win32,60,right,0.608999968,4,0,4,0,1,3,1,0,240,176,1,239,,,,,,,,,,,,,,,,,,
,,1,206,,,,,,,3,3,2,stim/32.jpeg,Instruments,2,stim/objects/Instruments/musicsheet2.png,0.9,3,-0.2,-0.15,right,12,2020-12-16_17h07.50.476,premup-three_ses-01_part-01_label-phase1,3.2.4,Win32,60,right,0.799999952,4,0,4,0,1,3,1,0,240,169,1,239,,,,,,,,,,,,,,,,,,
,,1,207,,,,,,,1,5,1,stim/51.jpeg,HouseObjects,1,stim/objects/HouseObjects/iron.png,0.5,2,0.2,0.15,left,12,2020-12-16_17h07.50.476,premup-three_ses-01_part-01_label-phase1,3.2.4,Win32,60,left,1.532999992,4,0,4,0,1,3,1,0,240,12,1,239,,,,,,,,,,,,,,,,,,
,,1,208,,,,,,,2,1,4,stim/14.jpeg,HouseObjects,1,stim/objects/HouseObjects/rug.png,0.3,2,0.2,0.15,left,12,2020-12-16_17h07.50.476,premup-three_ses-01_part-01_label-phase1,3.2.4,Win32,60,left,1.096999884,4,0,4,0,1,3,1,0,240,87,1,239,,,,,,,,,,,,,,,,,,
,,1,209,,,,,,,1,5,2,stim/52.jpeg,Instruments,2,stim/objects/Instruments/laud.png,0.5,2,0.2,0.15,right,12,2020-12-16_17h07.50.476,premup-three_ses-01_part-01_label-phase1,3.2.4,Win32,60,right,1.470000029,4,0,4,0,1,3,1,0,240,21,1,239,,,,,,,,,,,,,,,,,,
,,0,210,,,,,,,1,5,4,stim/54.jpeg,Instruments,2,stim/objects/Instruments/marimba.png,0.5,4,0.2,-0.15,right,12,2020-12-16_17h07.50.476,premup-three_ses-01_part-01_label-phase1,3.2.4,Win32,60,left,1.270999908,4,0,4,0,1,3,1,0,240,35,1,239,,,,,,,,,,,,,,,,,,
,,0,211,,,,,,,2,1,3,stim/13.jpeg,Instruments,2,stim/objects/Instruments/record.png,0.7,1,-0.2,0.15,right,12,2020-12-16_17h07.50.476,premup-three_ses-01_part-01_label-phase1,3.2.4,Win32,60,left,1.088000059,4,0,4,0,1,3,1,0,240,102,1,239,,,,,,,,,,,,,,,,,,
,,1,212,,,,,,,1,5,3,stim/53.jpeg,HouseObjects,1,stim/objects/HouseObjects/key.png,0.5,4,0.2,-0.15,left,12,2020-12-16_17h07.50.476,premup-three_ses-01_part-01_label-phase1,3.2.4,Win32,60,left,1.420999765,4,0,4,0,1,3,1,0,240,18,1,239,,,,,,,,,,,,,,,,,,
,,0,213,,,,,,,1,6,2,stim/62.jpeg,Instruments,2,stim/objects/Instruments/musicsheet.png,0.5,1,-0.2,0.15,right,12,2020-12-16_17h07.50.476,premup-three_ses-01_part-01_label-phase1,3.2.4,Win32,60,left,1.335999966,4,0,4,0,1,3,1,0,240,73,1,239,,,,,,,,,,,,,,,,,,
,,0,214,,,,,,,1,6,3,stim/63.jpeg,Instruments,2,stim/objects/Instruments/musicstand.png,0.5,2,0.2,0.15,right,12,2020-12-16_17h07.50.476,premup-three_ses-01_part-01_label-phase1,3.2.4,Win32,60,left,1.786000013,4,0,4,0,1,3,1,0,240,78,1,239,,,,,,,,,,,,,,,,,,
,,0,215,,,,,,,1,5,3,stim/53.jpeg,Instruments,2,stim/objects/Instruments/maraca.png,0.5,3,-0.2,-0.15,right,12,2020-12-16_17h07.50.476,premup-three_ses-01_part-01_label-phase1,3.2.4,Win32,60,left,1.335999966,4,0,4,0,1,3,1,0,240,30,1,239,,,,,,,,,,,,,,,,,,
,,0,216,,,,,,,3,4,3,stim/43.jpeg,Instruments,2,stim/objects/Instruments/record2.png,0.1,3,-0.2,-0.15,right,12,2020-12-16_17h07.50.476,premup-three_ses-01_part-01_label-phase1,3.2.4,Win32,60,left,1.036999941,4,0,4,0,1,3,1,0,240,238,1,239,,,,,,,,,,,,,,,,,,
,,1,217,,,,,,,3,3,1,stim/31.jpeg,Instruments,2,stim/objects/Instruments/metronome2.png,0.9,3,-0.2,-0.15,right,12,2020-12-16_17h07.50.476,premup-three_ses-01_part-01_label-phase1,3.2.4,Win32,60,right,0.757999897,4,0,4,0,1,3,1,0,240,184,1,239,,,,,,,,,,,,,,,,,,
,,0,218,,,,,,,1,5,2,stim/52.jpeg,HouseObjects,1,stim/objects/HouseObjects/ironingboard.png,0.5,2,0.2,0.15,left,12,2020-12-16_17h07.50.476,premup-three_ses-01_part-01_label-phase1,3.2.4,Win32,60,right,1.559999943,4,0,4,0,1,3,1,0,240,9,1,239,,,,,,,,,,,,,,,,,,
,,0,219,,,,,,,1,5,2,stim/52.jpeg,Instruments,2,stim/objects/Instruments/laud.png,0.5,3,-0.2,-0.15,right,12,2020-12-16_17h07.50.476,premup-three_ses-01_part-01_label-phase1,3.2.4,Win32,60,left,1.171999931,4,0,4,0,1,3,1,0,240,25,1,239,,,,,,,,,,,,,,,,,,
,,1,220,,,,,,,3,3,1,stim/31.jpeg,Instruments,2,stim/objects/Instruments/metronome2.png,0.9,1,-0.2,0.15,right,12,2020-12-16_17h07.50.476,premup-three_ses-01_part-01_label-phase1,3.2.4,Win32,60,right,0.888999939,4,0,4,0,1,3,1,0,240,196,1,239,,,,,,,,,,,,,,,,,,
,,1,221,,,,,,,2,2,1,stim/21.jpeg,HouseObjects,1,stim/objects/HouseObjects/iron2.png,0.7,1,-0.2,0.15,left,12,2020-12-16_17h07.50.476,premup-three_ses-01_part-01_label-phase1,3.2.4,Win32,60,left,1.174999952,4,0,4,0,1,3,1,0,240,136,1,239,,,,,,,,,,,,,,,,,,
,,1,222,,,,,,,2,1,4,stim/14.jpeg,Instruments,2,stim/objects/Instruments/record_player.png,0.7,3,-0.2,-0.15,right,12,2020-12-16_17h07.50.476,premup-three_ses-01_part-01_label-phase1,3.2.4,Win32,60,right,0.830999851,4,0,4,0,1,3,1,0,240,111,1,239,,,,,,,,,,,,,,,,,,
,,1,223,,,,,,,3,3,2,stim/32.jpeg,Instruments,2,stim/objects/Instruments/musicsheet2.png,0.9,4,0.2,-0.15,right,12,2020-12-16_17h07.50.476,premup-three_ses-01_part-01_label-phase1,3.2.4,Win32,60,right,0.763999939,4,0,4,0,1,3,1,0,240,173,1,239,,,,,,,,,,,,,,,,,,
,,0,224,,,,,,,2,1,1,stim/11.jpeg,Instruments,2,stim/objects/Instruments/panflute.png,0.7,1,-0.2,0.15,right,12,2020-12-16_17h07.50.476,premup-three_ses-01_part-01_label-phase1,3.2.4,Win32,60,left,1.08100009,4,0,4,0,1,3,1,0,240,108,1,239,,,,,,,,,,,,,,,,,,
,,1,225,,,,,,,2,1,2,stim/12.jpeg,Instruments,2,stim/objects/Instruments/pipepiano.png,0.7,2,0.2,0.15,right,12,2020-12-16_17h07.50.476,premup-three_ses-01_part-01_label-phase1,3.2.4,Win32,60,right,0.832999945,4,0,4,0,1,3,1,0,240,109,1,239,,,,,,,,,,,,,,,,,,
,,0,226,,,,,,,2,1,2,stim/12.jpeg,HouseObjects,1,stim/objects/HouseObjects/remote.png,0.3,2,0.2,0.15,left,12,2020-12-16_17h07.50.476,premup-three_ses-01_part-01_label-phase1,3.2.4,Win32,60,right,0.510999918,4,0,4,0,1,3,1,0,240,81,1,239,,,,,,,,,,,,,,,,,,
,,1,227,,,,,,,1,6,4,stim/64.jpeg,HouseObjects,1,stim/objects/HouseObjects/pitcher.png,0.5,1,-0.2,0.15,left,12,2020-12-16_17h07.50.476,premup-three_ses-01_part-01_label-phase1,3.2.4,Win32,60,left,1.204999924,4,0,4,0,1,3,1,0,240,55,1,239,,,,,,,,,,,,,,,,,,
,,0,228,,,,,,,2,1,2,stim/12.jpeg,HouseObjects,1,stim/objects/HouseObjects/remote.png,0.3,1,-0.2,0.15,left,12,2020-12-16_17h07.50.476,premup-three_ses-01_part-01_label-phase1,3.2.4,Win32,60,right,1.441999912,4,0,4,0,1,3,1,0,240,89,1,239,,,,,,,,,,,,,,,,,,
,,1,229,,,,,,,2,1,4,stim/14.jpeg,Instruments,2,stim/objects/Instruments/record_player.png,0.7,3,-0.2,-0.15,right,12,2020-12-16_17h07.50.476,premup-three_ses-01_part-01_label-phase1,3.2.4,Win32,60,right,1.35800004,4,0,4,0,1,3,1,0,240,95,1,239,,,,,,,,,,,,,,,,,,
,,1,230,,,,,,,2,2,1,stim/21.jpeg,HouseObjects,1,stim/objects/HouseObjects/iron2.png,0.7,1,-0.2,0.15,left,12,2020-12-16_17h07.50.476,premup-three_ses-01_part-01_label-phase1,3.2.4,Win32,60,left,1.245000124,4,0,4,0,1,3,1,0,240,120,1,239,,,,,,,,,,,,,,,,,,
,,1,231,,,,,,,3,4,4,stim/44.jpeg,HouseObjects,1,stim/objects/HouseObjects/rug2.png,0.9,1,-0.2,0.15,left,12,2020-12-16_17h07.50.476,premup-three_ses-01_part-01_label-phase1,3.2.4,Win32,60,left,1.005000114,4,0,4,0,1,3,1,0,240,207,1,239,,,,,,,,,,,,,,,,,,
,,1,232,,,,,,,1,6,1,stim/61.jpeg,Instruments,2,stim/objects/Instruments/metronome.png,0.5,3,-0.2,-0.15,right,12,2020-12-16_17h07.50.476,premup-three_ses-01_part-01_label-phase1,3.2.4,Win32,60,right,1.041000128,4,0,4,0,1,3,1,0,240,76,1,239,,,,,,,,,,,,,,,,,,
,,0,233,,,,,,,2,2,4,stim/24.jpeg,Instruments,2,stim/objects/Instruments/marimba2.png,0.3,2,0.2,0.15,right,12,2020-12-16_17h07.50.476,premup-three_ses-01_part-01_label-phase1,3.2.4,Win32,60,left,0.785999775,4,0,4,0,1,3,1,0,240,155,1,239,,,,,,,,,,,,,,,,,,
,,0,234,,,,,,,1,5,3,stim/53.jpeg,Instruments,2,stim/objects/Instruments/maraca.png,0.5,2,0.2,0.15,right,12,2020-12-16_17h07.50.476,premup-three_ses-01_part-01_label-phase1,3.2.4,Win32,60,left,1.299999952,4,0,4,0,1,3,1,0,240,34,1,239,,,,,,,,,,,,,,,,,,
,,0,235,,,,,,,1,6,1,stim/61.jpeg,Instruments,2,stim/objects/Instruments/metronome.png,0.5,2,0.2,0.15,right,12,2020-12-16_17h07.50.476,premup-three_ses-01_part-01_label-phase1,3.2.4,Win32,60,left,1.121999979,4,0,4,0,1,3,1,0,240,64,1,239,,,,,,,,,,,,,,,,,,
,,1,236,,,,,,,2,1,4,stim/14.jpeg,Instruments,2,stim/objects/Instruments/record_player.png,0.7,4,0.2,-0.15,right,12,2020-12-16_17h07.50.476,premup-three_ses-01_part-01_label-phase1,3.2.4,Win32,60,right,0.867999792,4,0,4,0,1,3,1,0,240,115,1,239,,,,,,,,,,,,,,,,,,
,,1,237,,,,,,,1,5,1,stim/51.jpeg,HouseObjects,1,stim/objects/HouseObjects/iron.png,0.5,1,-0.2,0.15,left,12,2020-12-16_17h07.50.476,premup-three_ses-01_part-01_label-phase1,3.2.4,Win32,60,left,1.125999928,4,0,4,0,1,3,1,0,240,4,1,239,,,,,,,,,,,,,,,,,,
,,1,238,,,,,,,3,3,4,stim/34.jpeg,Instruments,2,stim/objects/Instruments/oboe2.png,0.9,2,0.2,0.15,right,12,2020-12-16_17h07.50.476,premup-three_ses-01_part-01_label-phase1,3.2.4,Win32,60,right,0.740999937,4,0,4,0,1,3,1,0,240,171,1,239,,,,,,,,,,,,,,,,,,
,,0,239,,,,,,,2,2,1,stim/21.jpeg,Instruments,2,stim/objects/Instruments/keyboard2.png,0.3,2,0.2,0.15,right,12,2020-12-16_17h07.50.476,premup-three_ses-01_part-01_label-phase1,3.2.4,Win32,60,left,1.494999886,4,0,4,0,1,3,1,0,240,148,1,239,,,,,,,,,,,,,,,,,,
,,0,240,,,,,,,1,5,2,stim/52.jpeg,HouseObjects,1,stim/objects/HouseObjects/ironingboard.png,0.5,3,-0.2,-0.15,left,12,2020-12-16_17h07.50.476,premup-three_ses-01_part-01_label-phase1,3.2.4,Win32,60,right,1.502000093,4,0,4,0,1,3,1,0,240,5,1,239,,,,,,,,,,,,,,,,,,
,,,,,,,,,,,4,,stim/41.jpeg,,,,,,,,,12,2020-12-16_17h07.50.476,premup-three_ses-01_part-01_label-phase1,3.2.4,Win32,60,,,4,0,4,0,1,3,,,,,,,1,0,79,40.74099994,,,1,0,6,3,1,5,Household items,65,75,Music items,25,35
,,,,,,,,,,,6,,stim/61.jpeg,,,,,,,,,12,2020-12-16_17h07.50.476,premup-three_ses-01_part-01_label-phase1,3.2.4,Win32,60,,,4,0,4,0,1,3,,,,,,,1,0,63,39.82999992,,,1,0,6,5,1,5,Household items,5,15,Music items,85,95
,,,,,,,,,,,5,,stim/51.jpeg,,,,,,,,,12,2020-12-16_17h07.50.476,premup-three_ses-01_part-01_label-phase1,3.2.4,Win32,60,,,4,0,4,0,1,3,,,,,,,1,0,70,12.66900015,,,1,0,6,4,1,5,Music items,5,15,Household items,85,95
,,,,,,,,,,,2,,stim/21.jpeg,,,,,,,,,12,2020-12-16_17h07.50.476,premup-three_ses-01_part-01_label-phase1,3.2.4,Win32,60,,,4,0,4,0,1,3,,,,,,,1,0,35,9.256000042,,,1,0,6,1,1,5,Music items,45,55,Household items,45,55
,,,,,,,,,,,3,,stim/31.jpeg,,,,,,,,,12,2020-12-16_17h07.50.476,premup-three_ses-01_part-01_label-phase1,3.2.4,Win32,60,,,4,0,4,0,1,3,,,,,,,1,0,9,6.342000008,,,1,0,6,2,1,5,Household items,65,75,Music items,25,35
,,,,,,,,,,,1,,stim/11.jpeg,,,,,,,,,12,2020-12-16_17h07.50.476,premup-three_ses-01_part-01_label-phase1,3.2.4,Win32,60,,,4,0,4,0,1,3,,,,,,,1,0,21,10.33800006,,,1,0,6,0,1,5,Household items,45,55,Music items,45,55
,,,,,,,,,,,,,,,,,,,,,,12,2020-12-16_17h07.50.476,premup-three_ses-01_part-01_label-phase1,3.2.4,Win32,60,,,4,0,4,0,1,3,,,,,,,,,,,,,,,,,,,,,,,,
,,1,1,,,,,,,1,5,2,stim/52.jpeg,Instruments,2,stim/objects/Instruments/laud.png,0.5,4,0.2,-0.15,right,12,2020-12-16_17h07.50.476,premup-three_ses-01_part-01_label-phase1,3.2.4,Win32,60,right,1.226000071,4,0,4,0,1,3,1,0,240,33,1,239,,,,,,,,,,,,,,,,,,
,,1,2,,,,,,,3,4,1,stim/41.jpeg,HouseObjects,1,stim/objects/HouseObjects/recyclingbin2.png,0.9,1,-0.2,0.15,left,12,2020-12-16_17h07.50.476,premup-three_ses-01_part-01_label-phase1,3.2.4,Win32,60,left,0.974999905,4,0,4,0,1,3,1,0,240,224,1,239,,,,,,,,,,,,,,,,,,
,,1,3,,,,,,,2,2,2,stim/22.jpeg,Instruments,2,stim/objects/Instruments/laud2.png,0.3,4,0.2,-0.15,right,12,2020-12-16_17h07.50.476,premup-three_ses-01_part-01_label-phase1,3.2.4,Win32,60,right,0.972999811,4,0,4,0,1,3,1,0,240,157,1,239,,,,,,,,,,,,,,,,,,
,,1,4,,,,,,,2,1,2,stim/12.jpeg,Instruments,2,stim/objects/Instruments/pipepiano.png,0.7,3,-0.2,-0.15,right,12,2020-12-16_17h07.50.476,premup-three_ses-01_part-01_label-phase1,3.2.4,Win32,60,right,0.877999783,4,0,4,0,1,3,1,0,240,101,1,239,,,,,,,,,,,,,,,,,,
,,0,5,,,,,,,2,2,2,stim/22.jpeg,HouseObjects,1,stim/objects/HouseObjects/ironingboard2.png,0.7,3,-0.2,-0.15,left,12,2020-12-16_17h07.50.476,premup-three_ses-01_part-01_label-phase1,3.2.4,Win32,60,right,1.129999876,4,0,4,0,1,3,1,0,240,137,1,239,,,,,,,,,,,,,,,,,,
,,1,6,,,,,,,1,5,1,stim/51.jpeg,HouseObjects,1,stim/objects/HouseObjects/iron.png,0.5,1,-0.2,0.15,left,12,2020-12-16_17h07.50.476,premup-three_ses-01_part-01_label-phase1,3.2.4,Win32,60,left,1.50999999,4,0,4,0,1,3,1,0,240,4,1,239,,,,,,,,,,,,,,,,,,
,,1,7,,,,,,,3,3,2,stim/32.jpeg,Instruments,2,stim/objects/Instruments/musicsheet2.png,0.9,4,0.2,-0.15,right,12,2020-12-16_17h07.50.476,premup-three_ses-01_part-01_label-phase1,3.2.4,Win32,60,right,0.917000055,4,0,4,0,1,3,1,0,240,177,1,239,,,,,,,,,,,,,,,,,,
,,1,8,,,,,,,3,4,4,stim/44.jpeg,HouseObjects,1,stim/objects/HouseObjects/rug2.png,0.9,2,0.2,0.15,left,12,2020-12-16_17h07.50.476,premup-three_ses-01_part-01_label-phase1,3.2.4,Win32,60,left,0.80099988,4,0,4,0,1,3,1,0,240,203,1,239,,,,,,,,,,,,,,,,,,
,,0,9,,,,,,,3,4,2,stim/42.jpeg,HouseObjects,1,stim/objects/HouseObjects/remote2.png,0.9,3,-0.2,-0.15,left,12,2020-12-16_17h07.50.476,premup-three_ses-01_part-01_label-phase1,3.2.4,Win32,60,right,1.396000147,4,0,4,0,1,3,1,0,240,221,1,239,,,,,,,,,,,,,,,,,,
,,0,10,,,,,,,1,5,3,stim/53.jpeg,HouseObjects,1,stim/objects/HouseObjects/key.png,0.5,2,0.2,0.15,left,12,2020-12-16_17h07.50.476,premup-three_ses-01_part-01_label-phase1,3.2.4,Win32,60,right,1.151000023,4,0,4,0,1,3,1,0,240,14,1,239,,,,,,,,,,,,,,,,,,
,,1,11,,,,,,,1,5,4,stim/54.jpeg,HouseObjects,1,stim/objects/HouseObjects/knife.png,0.5,2,0.2,0.15,left,12,2020-12-16_17h07.50.476,premup-three_ses-01_part-01_label-phase1,3.2.4,Win32,60,left,1.069999933,4,0,4,0,1,3,1,0,240,7,1,239,,,,,,,,,,,,,,,,,,
,,1,12,,,,,,,1,6,2,stim/62.jpeg,Instruments,2,stim/objects/Instruments/musicsheet.png,0.5,1,-0.2,0.15,right,12,2020-12-16_17h07.50.476,premup-three_ses-01_part-01_label-phase1,3.2.4,Win32,60,right,1.419999838,4,0,4,0,1,3,1,0,240,69,1,239,,,,,,,,,,,,,,,,,,
,,1,13,,,,,,,2,1,3,stim/13.jpeg,Instruments,2,stim/objects/Instruments/record.png,0.7,4,0.2,-0.15,right,12,2020-12-16_17h07.50.476,premup-three_ses-01_part-01_label-phase1,3.2.4,Win32,60,right,1.118000031,4,0,4,0,1,3,1,0,240,106,1,239,,,,,,,,,,,,,,,,,,
,,0,14,,,,,,,1,5,4,stim/54.jpeg,Instruments,2,stim/objects/Instruments/marimba.png,0.5,2,0.2,0.15,right,12,2020-12-16_17h07.50.476,premup-three_ses-01_part-01_label-phase1,3.2.4,Win32,60,left,0.983999968,4,0,4,0,1,3,1,0,240,23,1,239,,,,,,,,,,,,,,,,,,
,,1,15,,,,,,,1,5,4,stim/54.jpeg,Instruments,2,stim/objects/Instruments/marimba.png,0.5,4,0.2,-0.15,right,12,2020-12-16_17h07.50.476,premup-three_ses-01_part-01_label-phase1,3.2.4,Win32,60,right,1.054000139,4,0,4,0,1,3,1,0,240,35,1,239,,,,,,,,,,,,,,,,,,
,,1,16,,,,,,,2,2,4,stim/24.jpeg,HouseObjects,1,stim/objects/HouseObjects/knife2.png,0.7,4,0.2,-0.15,left,12,2020-12-16_17h07.50.476,premup-three_ses-01_part-01_label-phase1,3.2.4,Win32,60,left,0.984999895,4,0,4,0,1,3,1,0,240,147,1,239,,,,,,,,,,,,,,,,,,
,,0,17,,,,,,,3,4,2,stim/42.jpeg,HouseObjects,1,stim/objects/HouseObjects/remote2.png,0.9,2,0.2,0.15,left,12,2020-12-16_17h07.50.476,premup-three_ses-01_part-01_label-phase1,3.2.4,Win32,60,right,0.823999882,4,0,4,0,1,3,1,0,240,213,1,239,,,,,,,,,,,,,,,,,,
,,0,18,,,,,,,2,2,1,stim/21.jpeg,HouseObjects,1,stim/objects/HouseObjects/iron2.png,0.7,1,-0.2,0.15,left,12,2020-12-16_17h07.50.476,premup-three_ses-01_part-01_label-phase1,3.2.4,Win32,60,right,1.326999903,4,0,4,0,1,3,1,0,240,132,1,239,,,,,,,,,,,,,,,,,,
,,0,19,,,,,,,2,2,1,stim/21.jpeg,Instruments,2,stim/objects/Instruments/keyboard2.png,0.3,4,0.2,-0.15,right,12,2020-12-16_17h07.50.476,premup-three_ses-01_part-01_label-phase1,3.2.4,Win32,60,left,0.878999949,4,0,4,0,1,3,1,0,240,152,1,239,,,,,,,,,,,,,,,,,,
,,1,20,,,,,,,3,3,2,stim/32.jpeg,Instruments,2,stim/objects/Instruments/musicsheet2.png,0.9,4,0.2,-0.15,right,12,2020-12-16_17h07.50.476,premup-three_ses-01_part-01_label-phase1,3.2.4,Win32,60,right,1.000999928,4,0,4,0,1,3,1,0,240,181,1,239,,,,,,,,,,,,,,,,,,
,,0,21,,,,,,,1,6,4,stim/64.jpeg,Instruments,2,stim/objects/Instruments/oboe.png,0.5,3,-0.2,-0.15,right,12,2020-12-16_17h07.50.476,premup-three_ses-01_part-01_label-phase1,3.2.4,Win32,60,left,1.305999994,4,0,4,0,1,3,1,0,240,63,1,239,,,,,,,,,,,,,,,,,,
,,1,22,,,,,,,3,3,3,stim/33.jpeg,Instruments,2,stim/objects/Instruments/musicstand2.png,0.9,3,-0.2,-0.15,right,12,2020-12-16_17h07.50.476,premup-three_ses-01_part-01_label-phase1,3.2.4,Win32,60,right,0.867999792,4,0,4,0,1,3,1,0,240,186,1,239,,,,,,,,,,,,,,,,,,
,,1,23,,,,,,,2,1,2,stim/12.jpeg,Instruments,2,stim/objects/Instruments/pipepiano.png,0.7,1,-0.2,0.15,right,12,2020-12-16_17h07.50.476,premup-three_ses-01_part-01_label-phase1,3.2.4,Win32,60,right,0.719000101,4,0,4,0,1,3,1,0,240,113,1,239,,,,,,,,,,,,,,,,,,
,,0,24,,,,,,,1,5,2,stim/52.jpeg,HouseObjects,1,stim/objects/HouseObjects/ironingboard.png,0.5,2,0.2,0.15,left,12,2020-12-16_17h07.50.476,premup-three_ses-01_part-01_label-phase1,3.2.4,Win32,60,right,1.066999912,4,0,4,0,1,3,1,0,240,17,1,239,,,,,,,,,,,,,,,,,,
,,0,25,,,,,,,2,2,4,stim/24.jpeg,HouseObjects,1,stim/objects/HouseObjects/knife2.png,0.7,4,0.2,-0.15,left,12,2020-12-16_17h07.50.476,premup-three_ses-01_part-01_label-phase1,3.2.4,Win32,60,right,1.391000032,4,0,4,0,1,3,1,0,240,123,1,239,,,,,,,,,,,,,,,,,,
,,0,26,,,,,,,2,1,4,stim/14.jpeg,HouseObjects,1,stim/objects/HouseObjects/rug.png,0.3,2,0.2,0.15,left,12,2020-12-16_17h07.50.476,premup-three_ses-01_part-01_label-phase1,3.2.4,Win32,60,right,0.743000031,4,0,4,0,1,3,1,0,240,87,1,239,,,,,,,,,,,,,,,,,,
,,0,27,,,,,,,1,6,2,stim/62.jpeg,HouseObjects,1,stim/objects/HouseObjects/match.png,0.5,4,0.2,-0.15,left,12,2020-12-16_17h07.50.476,premup-three_ses-01_part-01_label-phase1,3.2.4,Win32,60,right,1.474999905,4,0,4,0,1,3,1,0,240,45,1,239,,,,,,,,,,,,,,,,,,
,,1,28,,,,,,,3,3,2,stim/32.jpeg,Instruments,2,stim/objects/Instruments/musicsheet2.png,0.9,4,0.2,-0.15,right,12,2020-12-16_17h07.50.476,premup-three_ses-01_part-01_label-phase1,3.2.4,Win32,60,right,0.886999846,4,0,4,0,1,3,1,0,240,173,1,239,,,,,,,,,,,,,,,,,,
,,1,29,,,,,,,3,3,1,stim/31.jpeg,Instruments,2,stim/objects/Instruments/metronome2.png,0.9,1,-0.2,0.15,right,12,2020-12-16_17h07.50.476,premup-three_ses-01_part-01_label-phase1,3.2.4,Win32,60,right,0.725000143,4,0,4,0,1,3,1,0,240,196,1,239,,,,,,,,,,,,,,,,,,
,,0,30,,,,,,,2,1,1,stim/11.jpeg,Instruments,2,stim/objects/Instruments/panflute.png,0.7,2,0.2,0.15,right,12,2020-12-16_17h07.50.476,premup-three_ses-01_part-01_label-phase1,3.2.4,Win32,60,left,0.707999945,4,0,4,0,1,3,1,0,240,112,1,239,,,,,,,,,,,,,,,,,,
,,1,31,,,,,,,3,4,4,stim/44.jpeg,HouseObjects,1,stim/objects/HouseObjects/rug2.png,0.9,2,0.2,0.15,left,12,2020-12-16_17h07.50.476,premup-three_ses-01_part-01_label-phase1,3.2.4,Win32,60,left,0.808000088,4,0,4,0,1,3,1,0,240,219,1,239,,,,,,,,,,,,,,,,,,
,,0,32,,,,,,,3,4,2,stim/42.jpeg,HouseObjects,1,stim/objects/HouseObjects/remote2.png,0.9,3,-0.2,-0.15,left,12,2020-12-16_17h07.50.476,premup-three_ses-01_part-01_label-phase1,3.2.4,Win32,60,,,4,0,4,0,1,3,1,0,240,229,1,239,,,,,,,,,,,,,,,,,,
,,1,33,,,,,,,2,2,1,stim/21.jpeg,Instruments,2,stim/objects/Instruments/keyboard2.png,0.3,4,0.2,-0.15,right,12,2020-12-16_17h07.50.476,premup-three_ses-01_part-01_label-phase1,3.2.4,Win32,60,right,0.859999895,4,0,4,0,1,3,1,0,240,156,1,239,,,,,,,,,,,,,,,,,,
,,0,34,,,,,,,1,5,2,stim/52.jpeg,HouseObjects,1,stim/objects/HouseObjects/ironingboard.png,0.5,1,-0.2,0.15,left,12,2020-12-16_17h07.50.476,premup-three_ses-01_part-01_label-phase1,3.2.4,Win32,60,right,1.465999842,4,0,4,0,1,3,1,0,240,13,1,239,,,,,,,,,,,,,,,,,,
,,1,35,,,,,,,3,4,1,stim/41.jpeg,HouseObjects,1,stim/objects/HouseObjects/recyclingbin2.png,0.9,1,-0.2,0.15,left,12,2020-12-16_17h07.50.476,premup-three_ses-01_part-01_label-phase1,3.2.4,Win32,60,left,0.895999908,4,0,4,0,1,3,1,0,240,208,1,239,,,,,,,,,,,,,,,,,,
,,1,36,,,,,,,3,3,3,stim/33.jpeg,Instruments,2,stim/objects/Instruments/musicstand2.png,0.9,1,-0.2,0.15,right,12,2020-12-16_17h07.50.476,premup-three_ses-01_part-01_label-phase1,3.2.4,Win32,60,right,0.755999804,4,0,4,0,1,3,1,0,240,170,1,239,,,,,,,,,,,,,,,,,,
,,1,37,,,,,,,1,6,3,stim/63.jpeg,Instruments,2,stim/objects/Instruments/musicstand.png,0.5,4,0.2,-0.15,right,12,2020-12-16_17h07.50.476,premup-three_ses-01_part-01_label-phase1,3.2.4,Win32,60,right,1.004999876,4,0,4,0,1,3,1,0,240,62,1,239,,,,,,,,,,,,,,,,,,
,,0,38,,,,,,,2,2,2,stim/22.jpeg,Instruments,2,stim/objects/Instruments/laud2.png,0.3,4,0.2,-0.15,right,12,2020-12-16_17h07.50.476,premup-three_ses-01_part-01_label-phase1,3.2.4,Win32,60,left,1.178999901,4,0,4,0,1,3,1,0,240,149,1,239,,,,,,,,,,,,,,,,,,
,,0,39,,,,,,,2,2,3,stim/23.jpeg,Instruments,2,stim/objects/Instruments/maraca2.png,0.3,1,-0.2,0.15,right,12,2020-12-16_17h07.50.476,premup-three_ses-01_part-01_label-phase1,3.2.4,Win32,60,left,1.190999985,4,0,4,0,1,3,1,0,240,150,1,239,,,,,,,,,,,,,,,,,,
,,0,40,,,,,,,2,2,3,stim/23.jpeg,HouseObjects,1,stim/objects/HouseObjects/key2.png,0.7,2,0.2,0.15,left,12,2020-12-16_17h07.50.476,premup-three_ses-01_part-01_label-phase1,3.2.4,Win32,60,right,0.760999918,4,0,4,0,1,3,1,0,240,146,1,239,,,,,,,,,,,,,,,,,,
,,1,41,,,,,,,3,3,4,stim/34.jpeg,Instruments,2,stim/objects/Instruments/oboe2.png,0.9,3,-0.2,-0.15,right,12,2020-12-16_17h07.50.476,premup-three_ses-01_part-01_label-phase1,3.2.4,Win32,60,right,1.025000095,4,0,4,0,1,3,1,0,240,191,1,239,,,,,,,,,,,,,,,,,,
,,0,42,,,,,,,3,4,2,stim/42.jpeg,HouseObjects,1,stim/objects/HouseObjects/remote2.png,0.9,4,0.2,-0.15,left,12,2020-12-16_17h07.50.476,premup-three_ses-01_part-01_label-phase1,3.2.4,Win32,60,right,1.388000011,4,0,4,0,1,3,1,0,240,217,1,239,,,,,,,,,,,,,,,,,,
,,1,43,,,,,,,1,5,1,stim/51.jpeg,Instruments,2,stim/objects/Instruments/keyboard.png,0.5,4,0.2,-0.15,right,12,2020-12-16_17h07.50.476,premup-three_ses-01_part-01_label-phase1,3.2.4,Win32,60,right,1.219000101,4,0,4,0,1,3,1,0,240,20,1,239,,,,,,,,,,,,,,,,,,
,,1,44,,,,,,,2,2,1,stim/21.jpeg,HouseObjects,1,stim/objects/HouseObjects/iron2.png,0.7,3,-0.2,-0.15,left,12,2020-12-16_17h07.50.476,premup-three_ses-01_part-01_label-phase1,3.2.4,Win32,60,left,1.156999826,4,0,4,0,1,3,1,0,240,140,1,239,,,,,,,,,,,,,,,,,,
,,1,45,,,,,,,3,4,4,stim/44.jpeg,HouseObjects,1,stim/objects/HouseObjects/rug2.png,0.9,2,0.2,0.15,left,12,2020-12-16_17h07.50.476,premup-three_ses-01_part-01_label-phase1,3.2.4,Win32,60,left,0.845999956,4,0,4,0,1,3,1,0,240,231,1,239,,,,,,,,,,,,,,,,,,
,,1,46,,,,,,,1,6,2,stim/62.jpeg,Instruments,2,stim/objects/Instruments/musicsheet.png,0.5,2,0.2,0.15,right,12,2020-12-16_17h07.50.476,premup-three_ses-01_part-01_label-phase1,3.2.4,Win32,60,right,0.933999777,4,0,4,0,1,3,1,0,240,77,1,239,,,,,,,,,,,,,,,,,,
,,0,47,,,,,,,2,1,2,stim/12.jpeg,HouseObjects,1,stim/objects/HouseObjects/remote.png,0.3,2,0.2,0.15,left,12,2020-12-16_17h07.50.476,premup-three_ses-01_part-01_label-phase1,3.2.4,Win32,60,right,0.94299984,4,0,4,0,1,3,1,0,240,81,1,239,,,,,,,,,,,,,,,,,,
,,0,48,,,,,,,2,2,3,stim/23.jpeg,HouseObjects,1,stim/objects/HouseObjects/key2.png,0.7,1,-0.2,0.15,left,12,2020-12-16_17h07.50.476,premup-three_ses-01_part-01_label-phase1,3.2.4,Win32,60,right,1.18599987,4,0,4,0,1,3,1,0,240,138,1,239,,,,,,,,,,,,,,,,,,
,,0,49,,,,,,,1,5,4,stim/54.jpeg,HouseObjects,1,stim/objects/HouseObjects/knife.png,0.5,3,-0.2,-0.15,left,12,2020-12-16_17h07.50.476,premup-three_ses-01_part-01_label-phase1,3.2.4,Win32,60,right,1.40199995,4,0,4,0,1,3,1,0,240,15,1,239,,,,,,,,,,,,,,,,,,
,,1,50,,,,,,,2,1,2,stim/12.jpeg,Instruments,2,stim/objects/Instruments/pipepiano.png,0.7,3,-0.2,-0.15,right,12,2020-12-16_17h07.50.476,premup-three_ses-01_part-01_label-phase1,3.2.4,Win32,60,right,0.809999943,4,0,4,0,1,3,1,0,240,97,1,239,,,,,,,,,,,,,,,,,,
,,0,51,,,,,,,1,6,3,stim/63.jpeg,HouseObjects,1,stim/objects/HouseObjects/pan.png,0.5,3,-0.2,-0.15,left,12,2020-12-16_17h07.50.476,premup-three_ses-01_part-01_label-phase1,3.2.4,Win32,60,right,1.302999973,4,0,4,0,1,3,1,0,240,54,1,239,,,,,,,,,,,,,,,,,,
,,0,52,,,,,,,2,2,2,stim/22.jpeg,HouseObjects,1,stim/objects/HouseObjects/ironingboard2.png,0.7,3,-0.2,-0.15,left,12,2020-12-16_17h07.50.476,premup-three_ses-01_part-01_label-phase1,3.2.4,Win32,60,right,0.789999962,4,0,4,0,1,3,1,0,240,145,1,239,,,,,,,,,,,,,,,,,,
,,0,53,,,,,,,2,2,4,stim/24.jpeg,Instruments,2,stim/objects/Instruments/marimba2.png,0.3,3,-0.2,-0.15,right,12,2020-12-16_17h07.50.476,premup-three_ses-01_part-01_label-phase1,3.2.4,Win32,60,left,0.621999979,4,0,4,0,1,3,1,0,240,151,1,239,,,,,,,,,,,,,,,,,,
,,0,54,,,,,,,3,4,2,stim/42.jpeg,Instruments,2,stim/objects/Instruments/pipepiano2.png,0.1,3,-0.2,-0.15,right,12,2020-12-16_17h07.50.476,premup-three_ses-01_part-01_label-phase1,3.2.4,Win32,60,left,0.950999975,4,0,4,0,1,3,1,0,240,237,1,239,,,,,,,,,,,,,,,,,,
,,1,55,,,,,,,3,4,1,stim/41.jpeg,HouseObjects,1,stim/objects/HouseObjects/recyclingbin2.png,0.9,1,-0.2,0.15,left,12,2020-12-16_17h07.50.476,premup-three_ses-01_part-01_label-phase1,3.2.4,Win32,60,left,1.092000008,4,0,4,0,1,3,1,0,240,228,1,239,,,,,,,,,,,,,,,,,,
,,1,56,,,,,,,2,1,3,stim/13.jpeg,Instruments,2,stim/objects/Instruments/record.png,0.7,4,0.2,-0.15,right,12,2020-12-16_17h07.50.476,premup-three_ses-01_part-01_label-phase1,3.2.4,Win32,60,right,0.799000025,4,0,4,0,1,3,1,0,240,110,1,239,,,,,,,,,,,,,,,,,,
,,0,57,,,,,,,2,1,2,stim/12.jpeg,HouseObjects,1,stim/objects/HouseObjects/remote.png,0.3,2,0.2,0.15,left,12,2020-12-16_17h07.50.476,premup-three_ses-01_part-01_label-phase1,3.2.4,Win32,60,right,0.881999969,4,0,4,0,1,3,1,0,240,85,1,239,,,,,,,,,,,,,,,,,,
,,1,58,,,,,,,1,6,4,stim/64.jpeg,HouseObjects,1,stim/objects/HouseObjects/pitcher.png,0.5,4,0.2,-0.15,left,12,2020-12-16_17h07.50.476,premup-three_ses-01_part-01_label-phase1,3.2.4,Win32,60,left,1.13499999,4,0,4,0,1,3,1,0,240,51,1,239,,,,,,,,,,,,,,,,,,
,,1,59,,,,,,,1,6,3,stim/63.jpeg,Instruments,2,stim/objects/Instruments/musicstand.png,0.5,2,0.2,0.15,right,12,2020-12-16_17h07.50.476,premup-three_ses-01_part-01_label-phase1,3.2.4,Win32,60,right,1.524999857,4,0,4,0,1,3,1,0,240,78,1,239,,,,,,,,,,,,,,,,,,
,,1,60,,,,,,,3,3,4,stim/34.jpeg,Instruments,2,stim/objects/Instruments/oboe2.png,0.9,2,0.2,0.15,right,12,2020-12-16_17h07.50.476,premup-three_ses-01_part-01_label-phase1,3.2.4,Win32,60,right,0.784999847,4,0,4,0,1,3,1,0,240,171,1,239,,,,,,,,,,,,,,,,,,
,,0,61,,,,,,,2,1,1,stim/11.jpeg,Instruments,2,stim/objects/Instruments/panflute.png,0.7,3,-0.2,-0.15,right,12,2020-12-16_17h07.50.476,premup-three_ses-01_part-01_label-phase1,3.2.4,Win32,60,left,0.769999981,4,0,4,0,1,3,1,0,240,104,1,239,,,,,,,,,,,,,,,,,,
,,1,62,,,,,,,2,1,3,stim/13.jpeg,Instruments,2,stim/objects/Instruments/record.png,0.7,1,-0.2,0.15,right,12,2020-12-16_17h07.50.476,premup-three_ses-01_part-01_label-phase1,3.2.4,Win32,60,right,0.953999996,4,0,4,0,1,3,1,0,240,102,1,239,,,,,,,,,,,,,,,,,,
,,0,63,,,,,,,3,4,3,stim/43.jpeg,Instruments,2,stim/objects/Instruments/record2.png,0.1,3,-0.2,-0.15,right,12,2020-12-16_17h07.50.476,premup-three_ses-01_part-01_label-phase1,3.2.4,Win32,60,left,0.735999823,4,0,4,0,1,3,1,0,240,238,1,239,,,,,,,,,,,,,,,,,,
,,1,64,,,,,,,2,1,3,stim/13.jpeg,Instruments,2,stim/objects/Instruments/record.png,0.7,1,-0.2,0.15,right,12,2020-12-16_17h07.50.476,premup-three_ses-01_part-01_label-phase1,3.2.4,Win32,60,right,0.723999977,4,0,4,0,1,3,1,0,240,118,1,239,,,,,,,,,,,,,,,,,,
,,1,65,,,,,,,3,4,3,stim/43.jpeg,HouseObjects,1,stim/objects/HouseObjects/rubbergloves2.png,0.9,1,-0.2,0.15,left,12,2020-12-16_17h07.50.476,premup-three_ses-01_part-01_label-phase1,3.2.4,Win32,60,left,0.898000002,4,0,4,0,1,3,1,0,240,210,1,239,,,,,,,,,,,,,,,,,,
,,1,66,,,,,,,2,2,2,stim/22.jpeg,HouseObjects,1,stim/objects/HouseObjects/ironingboard2.png,0.7,3,-0.2,-0.15,left,12,2020-12-16_17h07.50.476,premup-three_ses-01_part-01_label-phase1,3.2.4,Win32,60,left,1.213000059,4,0,4,0,1,3,1,0,240,129,1,239,,,,,,,,,,,,,,,,,,
,,1,67,,,,,,,2,2,3,stim/23.jpeg,HouseObjects,1,stim/objects/HouseObjects/key2.png,0.7,3,-0.2,-0.15,left,12,2020-12-16_17h07.50.476,premup-three_ses-01_part-01_label-phase1,3.2.4,Win32,60,left,0.715999842,4,0,4,0,1,3,1,0,240,130,1,239,,,,,,,,,,,,,,,,,,
,,1,68,,,,,,,2,1,4,stim/14.jpeg,Instruments,2,stim/objects/Instruments/record_player.png,0.7,3,-0.2,-0.15,right,12,2020-12-16_17h07.50.476,premup-three_ses-01_part-01_label-phase1,3.2.4,Win32,60,right,0.796000004,4,0,4,0,1,3,1,0,240,103,1,239,,,,,,,,,,,,,,,,,,
,,0,69,,,,,,,1,5,1,stim/51.jpeg,HouseObjects,1,stim/objects/HouseObjects/iron.png,0.5,3,-0.2,-0.15,left,12,2020-12-16_17h07.50.476,premup-three_ses-01_part-01_label-phase1,3.2.4,Win32,60,right,1.464999914,4,0,4,0,1,3,1,0,240,0,1,239,,,,,,,,,,,,,,,,,,
,,1,70,,,,,,,2,1,4,stim/14.jpeg,Instruments,2,stim/objects/Instruments/record_player.png,0.7,4,0.2,-0.15,right,12,2020-12-16_17h07.50.476,premup-three_ses-01_part-01_label-phase1,3.2.4,Win32,60,right,0.775999784,4,0,4,0,1,3,1,0,240,115,1,239,,,,,,,,,,,,,,,,,,
,,0,71,,,,,,,1,5,1,stim/51.jpeg,Instruments,2,stim/objects/Instruments/keyboard.png,0.5,4,0.2,-0.15,right,12,2020-12-16_17h07.50.476,premup-three_ses-01_part-01_label-phase1,3.2.4,Win32,60,left,0.635999918,4,0,4,0,1,3,1,0,240,28,1,239,,,,,,,,,,,,,,,,,,
,,0,72,,,,,,,3,4,3,stim/43.jpeg,HouseObjects,1,stim/objects/HouseObjects/rubbergloves2.png,0.9,3,-0.2,-0.15,left,12,2020-12-16_17h07.50.476,premup-three_ses-01_part-01_label-phase1,3.2.4,Win32,60,right,1.5,4,0,4,0,1,3,1,0,240,206,1,239,,,,,,,,,,,,,,,,,,
,,1,73,,,,,,,2,2,3,stim/23.jpeg,HouseObjects,1,stim/objects/HouseObjects/key2.png,0.7,2,0.2,0.15,left,12,2020-12-16_17h07.50.476,premup-three_ses-01_part-01_label-phase1,3.2.4,Win32,60,left,1.335999966,4,0,4,0,1,3,1,0,240,134,1,239,,,,,,,,,,,,,,,,,,
,,0,74,,,,,,,1,5,1,stim/51.jpeg,Instruments,2,stim/objects/Instruments/keyboard.png,0.5,1,-0.2,0.15,right,12,2020-12-16_17h07.50.476,premup-three_ses-01_part-01_label-phase1,3.2.4,Win32,60,left,1.478999853,4,0,4,0,1,3,1,0,240,24,1,239,,,,,,,,,,,,,,,,,,
,,1,75,,,,,,,1,6,4,stim/64.jpeg,HouseObjects,1,stim/objects/HouseObjects/pitcher.png,0.5,1,-0.2,0.15,left,12,2020-12-16_17h07.50.476,premup-three_ses-01_part-01_label-phase1,3.2.4,Win32,60,left,1.428999901,4,0,4,0,1,3,1,0,240,55,1,239,,,,,,,,,,,,,,,,,,
,,1,76,,,,,,,2,1,4,stim/14.jpeg,Instruments,2,stim/objects/Instruments/record_player.png,0.7,4,0.2,-0.15,right,12,2020-12-16_17h07.50.476,premup-three_ses-01_part-01_label-phase1,3.2.4,Win32,60,right,0.786999941,4,0,4,0,1,3,1,0,240,119,1,239,,,,,,,,,,,,,,,,,,
,,0,77,,,,,,,1,6,3,stim/63.jpeg,Instruments,2,stim/objects/Instruments/musicstand.png,0.5,3,-0.2,-0.15,right,12,2020-12-16_17h07.50.476,premup-three_ses-01_part-01_label-phase1,3.2.4,Win32,60,left,1.112999916,4,0,4,0,1,3,1,0,240,70,1,239,,,,,,,,,,,,,,,,,,
,,1,78,,,,,,,2,2,4,stim/24.jpeg,HouseObjects,1,stim/objects/HouseObjects/knife2.png,0.7,3,-0.2,-0.15,left,12,2020-12-16_17h07.50.476,premup-three_ses-01_part-01_label-phase1,3.2.4,Win32,60,left,1.023000002,4,0,4,0,1,3,1,0,240,139,1,239,,,,,,,,,,,,,,,,,,
,,0,79,,,,,,,1,5,1,stim/51.jpeg,HouseObjects,1,stim/objects/HouseObjects/iron.png,0.5,1,-0.2,0.15,left,12,2020-12-16_17h07.50.476,premup-three_ses-01_part-01_label-phase1,3.2.4,Win32,60,right,0.865999937,4,0,4,0,1,3,1,0,240,16,1,239,,,,,,,,,,,,,,,,,,
,,0,80,,,,,,,3,3,3,stim/33.jpeg,HouseObjects,1,stim/objects/HouseObjects/pan2.png,0.1,4,0.2,-0.15,left,12,2020-12-16_17h07.50.476,premup-three_ses-01_part-01_label-phase1,3.2.4,Win32,60,right,1.013999939,4,0,4,0,1,3,1,0,240,162,1,239,,,,,,,,,,,,,,,,,,
,,1,81,,,,,,,3,4,1,stim/41.jpeg,HouseObjects,1,stim/objects/HouseObjects/recyclingbin2.png,0.9,3,-0.2,-0.15,left,12,2020-12-16_17h07.50.476,premup-three_ses-01_part-01_label-phase1,3.2.4,Win32,60,left,0.784999847,4,0,4,0,1,3,1,0,240,212,1,239,,,,,,,,,,,,,,,,,,
,,1,82,,,,,,,2,2,4,stim/24.jpeg,HouseObjects,1,stim/objects/HouseObjects/knife2.png,0.7,3,-0.2,-0.15,left,12,2020-12-16_17h07.50.476,premup-three_ses-01_part-01_label-phase1,3.2.4,Win32,60,left,1.118999958,4,0,4,0,1,3,1,0,240,143,1,239,,,,,,,,,,,,,,,,,,
,,1,83,,,,,,,1,5,4,stim/54.jpeg,Instruments,2,stim/objects/Instruments/marimba.png,0.5,2,0.2,0.15,right,12,2020-12-16_17h07.50.476,premup-three_ses-01_part-01_label-phase1,3.2.4,Win32,60,right,1.208999872,4,0,4,0,1,3,1,0,240,27,1,239,,,,,,,,,,,,,,,,,,
,,0,84,,,,,,,2,2,2,stim/22.jpeg,Instruments,2,stim/objects/Instruments/laud2.png,0.3,3,-0.2,-0.15,right,12,2020-12-16_17h07.50.476,premup-three_ses-01_part-01_label-phase1,3.2.4,Win32,60,left,0.768999815,4,0,4,0,1,3,1,0,240,153,1,239,,,,,,,,,,,,,,,,,,
,,1,85,,,,,,,2,1,2,stim/12.jpeg,Instruments,2,stim/objects/Instruments/pipepiano.png,0.7,1,-0.2,0.15,right,12,2020-12-16_17h07.50.476,premup-three_ses-01_part-01_label-phase1,3.2.4,Win32,60,right,0.723999739,4,0,4,0,1,3,1,0,240,93,1,239,,,,,,,,,,,,,,,,,,
,,1,86,,,,,,,3,3,4,stim/34.jpeg,Instruments,2,stim/objects/Instruments/oboe2.png,0.9,4,0.2,-0.15,right,12,2020-12-16_17h07.50.476,premup-three_ses-01_part-01_label-phase1,3.2.4,Win32,60,right,0.786999941,4,0,4,0,1,3,1,0,240,179,1,239,,,,,,,,,,,,,,,,,,
,,1,87,,,,,,,3,4,2,stim/42.jpeg,HouseObjects,1,stim/objects/HouseObjects/remote2.png,0.9,3,-0.2,-0.15,left,12,2020-12-16_17h07.50.476,premup-three_ses-01_part-01_label-phase1,3.2.4,Win32,60,left,0.889999866,4,0,4,0,1,3,1,0,240,205,1,239,,,,,,,,,,,,,,,,,,
,,1,88,,,,,,,2,2,1,stim/21.jpeg,HouseObjects,1,stim/objects/HouseObjects/iron2.png,0.7,1,-0.2,0.15,left,12,2020-12-16_17h07.50.476,premup-three_ses-01_part-01_label-phase1,3.2.4,Win32,60,left,0.836999893,4,0,4,0,1,3,1,0,240,124,1,239,,,,,,,,,,,,,,,,,,
,,1,89,,,,,,,1,5,1,stim/51.jpeg,Instruments,2,stim/objects/Instruments/keyboard.png,0.5,1,-0.2,0.15,right,12,2020-12-16_17h07.50.476,premup-three_ses-01_part-01_label-phase1,3.2.4,Win32,60,right,0.787999868,4,0,4,0,1,3,1,0,240,32,1,239,,,,,,,,,,,,,,,,,,
,,1,90,,,,,,,3,3,4,stim/34.jpeg,Instruments,2,stim/objects/Instruments/oboe2.png,0.9,3,-0.2,-0.15,right,12,2020-12-16_17h07.50.476,premup-three_ses-01_part-01_label-phase1,3.2.4,Win32,60,right,0.734999895,4,0,4,0,1,3,1,0,240,195,1,239,,,,,,,,,,,,,,,,,,
,,0,91,,,,,,,1,5,2,stim/52.jpeg,Instruments,2,stim/objects/Instruments/laud.png,0.5,3,-0.2,-0.15,right,12,2020-12-16_17h07.50.476,premup-three_ses-01_part-01_label-phase1,3.2.4,Win32,60,left,1.15199995,4,0,4,0,1,3,1,0,240,25,1,239,,,,,,,,,,,,,,,,,,
,,1,92,,,,,,,1,6,3,stim/63.jpeg,HouseObjects,1,stim/objects/HouseObjects/pan.png,0.5,1,-0.2,0.15,left,12,2020-12-16_17h07.50.476,premup-three_ses-01_part-01_label-phase1,3.2.4,Win32,60,left,1.493999958,4,0,4,0,1,3,1,0,240,42,1,239,,,,,,,,,,,,,,,,,,
,,0,93,,,,,,,3,4,1,stim/41.jpeg,Instruments,2,stim/objects/Instruments/panflute2.png,0.1,1,-0.2,0.15,right,12,2020-12-16_17h07.50.476,premup-three_ses-01_part-01_label-phase1,3.2.4,Win32,60,left,1.41899991,4,0,4,0,1,3,1,0,240,236,1,239,,,,,,,,,,,,,,,,,,
,,0,94,,,,,,,1,5,4,stim/54.jpeg,Instruments,2,stim/objects/Instruments/marimba.png,0.5,3,-0.2,-0.15,right,12,2020-12-16_17h07.50.476,premup-three_ses-01_part-01_label-phase1,3.2.4,Win32,60,left,1.559000015,4,0,4,0,1,3,1,0,240,39,1,239,,,,,,,,,,,,,,,,,,
,,0,95,,,,,,,2,1,4,stim/14.jpeg,HouseObjects,1,stim/objects/HouseObjects/rug.png,0.3,4,0.2,-0.15,left,12,2020-12-16_17h07.50.476,premup-three_ses-01_part-01_label-phase1,3.2.4,Win32,60,right,1.126999855,4,0,4,0,1,3,1,0,240,83,1,239,,,,,,,,,,,,,,,,,,
,,0,96,,,,,,,1,5,3,stim/53.jpeg,HouseObjects,1,stim/objects/HouseObjects/key.png,0.5,4,0.2,-0.15,left,12,2020-12-16_17h07.50.476,premup-three_ses-01_part-01_label-phase1,3.2.4,Win32,60,right,1.582000017,4,0,4,0,1,3,1,0,240,18,1,239,,,,,,,,,,,,,,,,,,
,,0,97,,,,,,,2,2,3,stim/23.jpeg,Instruments,2,stim/objects/Instruments/maraca2.png,0.3,1,-0.2,0.15,right,12,2020-12-16_17h07.50.476,premup-three_ses-01_part-01_label-phase1,3.2.4,Win32,60,left,0.961999893,4,0,4,0,1,3,1,0,240,158,1,239,,,,,,,,,,,,,,,,,,
,,1,98,,,,,,,1,5,4,stim/54.jpeg,HouseObjects,1,stim/objects/HouseObjects/knife.png,0.5,4,0.2,-0.15,left,12,2020-12-16_17h07.50.476,premup-three_ses-01_part-01_label-phase1,3.2.4,Win32,60,left,1.573999882,4,0,4,0,1,3,1,0,240,19,1,239,,,,,,,,,,,,,,,,,,
,,1,99,,,,,,,3,4,2,stim/42.jpeg,HouseObjects,1,stim/objects/HouseObjects/remote2.png,0.9,1,-0.2,0.15,left,12,2020-12-16_17h07.50.476,premup-three_ses-01_part-01_label-phase1,3.2.4,Win32,60,left,0.877000093,4,0,4,0,1,3,1,0,240,233,1,239,,,,,,,,,,,,,,,,,,
,,0,100,,,,,,,1,5,2,stim/52.jpeg,Instruments,2,stim/objects/Instruments/laud.png,0.5,2,0.2,0.15,right,12,2020-12-16_17h07.50.476,premup-three_ses-01_part-01_label-phase1,3.2.4,Win32,60,left,1.381000042,4,0,4,0,1,3,1,0,240,21,1,239,,,,,,,,,,,,,,,,,,
,,1,101,,,,,,,1,6,4,stim/64.jpeg,HouseObjects,1,stim/objects/HouseObjects/pitcher.png,0.5,3,-0.2,-0.15,left,12,2020-12-16_17h07.50.476,premup-three_ses-01_part-01_label-phase1,3.2.4,Win32,60,left,1.028999805,4,0,4,0,1,3,1,0,240,43,1,239,,,,,,,,,,,,,,,,,,
,,0,102,,,,,,,1,6,2,stim/62.jpeg,Instruments,2,stim/objects/Instruments/musicsheet.png,0.5,2,0.2,0.15,right,12,2020-12-16_17h07.50.476,premup-three_ses-01_part-01_label-phase1,3.2.4,Win32,60,left,1.200999737,4,0,4,0,1,3,1,0,240,65,1,239,,,,,,,,,,,,,,,,,,
,,1,103,,,,,,,1,5,2,stim/52.jpeg,HouseObjects,1,stim/objects/HouseObjects/ironingboard.png,0.5,3,-0.2,-0.15,left,12,2020-12-16_17h07.50.476,premup-three_ses-01_part-01_label-phase1,3.2.4,Win32,60,left,1.645999908,4,0,4,0,1,3,1,0,240,5,1,239,,,,,,,,,,,,,,,,,,
,,1,104,,,,,,,1,5,3,stim/53.jpeg,Instruments,2,stim/objects/Instruments/maraca.png,0.5,2,0.2,0.15,right,12,2020-12-16_17h07.50.476,premup-three_ses-01_part-01_label-phase1,3.2.4,Win32,60,right,1.030999899,4,0,4,0,1,3,1,0,240,26,1,239,,,,,,,,,,,,,,,,,,
,,1,105,,,,,,,3,3,2,stim/32.jpeg,Instruments,2,stim/objects/Instruments/musicsheet2.png,0.9,4,0.2,-0.15,right,12,2020-12-16_17h07.50.476,premup-three_ses-01_part-01_label-phase1,3.2.4,Win32,60,right,0.771999836,4,0,4,0,1,3,1,0,240,189,1,239,,,,,,,,,,,,,,,,,,
,,0,106,,,,,,,3,3,2,stim/32.jpeg,HouseObjects,1,stim/objects/HouseObjects/match2.png,0.1,4,0.2,-0.15,left,12,2020-12-16_17h07.50.476,premup-three_ses-01_part-01_label-phase1,3.2.4,Win32,60,right,1.004999876,4,0,4,0,1,3,1,0,240,161,1,239,,,,,,,,,,,,,,,,,,
,,1,107,,,,,,,2,2,3,stim/23.jpeg,HouseObjects,1,stim/objects/HouseObjects/key2.png,0.7,1,-0.2,0.15,left,12,2020-12-16_17h07.50.476,premup-three_ses-01_part-01_label-phase1,3.2.4,Win32,60,left,0.861999989,4,0,4,0,1,3,1,0,240,126,1,239,,,,,,,,,,,,,,,,,,
,,0,108,,,,,,,1,6,2,stim/62.jpeg,HouseObjects,1,stim/objects/HouseObjects/match.png,0.5,1,-0.2,0.15,left,12,2020-12-16_17h07.50.476,premup-three_ses-01_part-01_label-phase1,3.2.4,Win32,60,right,1.482999802,4,0,4,0,1,3,1,0,240,49,1,239,,,,,,,,,,,,,,,,,,
,,1,109,,,,,,,3,4,3,stim/43.jpeg,HouseObjects,1,stim/objects/HouseObjects/rubbergloves2.png,0.9,4,0.2,-0.15,left,12,2020-12-16_17h07.50.476,premup-three_ses-01_part-01_label-phase1,3.2.4,Win32,60,left,0.651000023,4,0,4,0,1,3,1,0,240,222,1,239,,,,,,,,,,,,,,,,,,
,,1,110,,,,,,,2,2,4,stim/24.jpeg,HouseObjects,1,stim/objects/HouseObjects/knife2.png,0.7,2,0.2,0.15,left,12,2020-12-16_17h07.50.476,premup-three_ses-01_part-01_label-phase1,3.2.4,Win32,60,left,0.854999781,4,0,4,0,1,3,1,0,240,135,1,239,,,,,,,,,,,,,,,,,,
,,1,111,,,,,,,2,1,4,stim/14.jpeg,Instruments,2,stim/objects/Instruments/record_player.png,0.7,3,-0.2,-0.15,right,12,2020-12-16_17h07.50.476,premup-three_ses-01_part-01_label-phase1,3.2.4,Win32,60,right,0.804999828,4,0,4,0,1,3,1,0,240,95,1,239,,,,,,,,,,,,,,,,,,
,,0,112,,,,,,,3,3,1,stim/31.jpeg,HouseObjects,1,stim/objects/HouseObjects/lintroller2.png,0.1,4,0.2,-0.15,left,12,2020-12-16_17h07.50.476,premup-three_ses-01_part-01_label-phase1,3.2.4,Win32,60,right,1.17599988,4,0,4,0,1,3,1,0,240,160,1,239,,,,,,,,,,,,,,,,,,
,,1,113,,,,,,,1,5,4,stim/54.jpeg,Instruments,2,stim/objects/Instruments/marimba.png,0.5,3,-0.2,-0.15,right,12,2020-12-16_17h07.50.476,premup-three_ses-01_part-01_label-phase1,3.2.4,Win32,60,right,1.161000013,4,0,4,0,1,3,1,0,240,31,1,239,,,,,,,,,,,,,,,,,,
,,1,114,,,,,,,3,4,2,stim/42.jpeg,HouseObjects,1,stim/objects/HouseObjects/remote2.png,0.9,1,-0.2,0.15,left,12,2020-12-16_17h07.50.476,premup-three_ses-01_part-01_label-phase1,3.2.4,Win32,60,left,0.799999952,4,0,4,0,1,3,1,0,240,209,1,239,,,,,,,,,,,,,,,,,,
,,0,115,,,,,,,1,6,2,stim/62.jpeg,Instruments,2,stim/objects/Instruments/musicsheet.png,0.5,1,-0.2,0.15,right,12,2020-12-16_17h07.50.476,premup-three_ses-01_part-01_label-phase1,3.2.4,Win32,60,left,0.930999994,4,0,4,0,1,3,1,0,240,73,1,239,,,,,,,,,,,,,,,,,,
,,1,116,,,,,,,3,3,4,stim/34.jpeg,Instruments,2,stim/objects/Instruments/oboe2.png,0.9,2,0.2,0.15,right,12,2020-12-16_17h07.50.476,premup-three_ses-01_part-01_label-phase1,3.2.4,Win32,60,right,0.68599987,4,0,4,0,1,3,1,0,240,187,1,239,,,,,,,,,,,,,,,,,,
,,1,117,,,,,,,2,2,3,stim/23.jpeg,HouseObjects,1,stim/objects/HouseObjects/key2.png,0.7,4,0.2,-0.15,left,12,2020-12-16_17h07.50.476,premup-three_ses-01_part-01_label-phase1,3.2.4,Win32,60,left,1.035000086,4,0,4,0,1,3,1,0,240,122,1,239,,,,,,,,,,,,,,,,,,
,,0,118,,,,,,,3,3,3,stim/33.jpeg,Instruments,2,stim/objects/Instruments/musicstand2.png,0.9,1,-0.2,0.15,right,12,2020-12-16_17h07.50.476,premup-three_ses-01_part-01_label-phase1,3.2.4,Win32,60,left,1.217999935,4,0,4,0,1,3,1,0,240,194,1,239,,,,,,,,,,,,,,,,,,
,,1,119,,,,,,,3,4,4,stim/44.jpeg,HouseObjects,1,stim/objects/HouseObjects/rug2.png,0.9,1,-0.2,0.15,left,12,2020-12-16_17h07.50.476,premup-three_ses-01_part-01_label-phase1,3.2.4,Win32,60,left,0.647999763,4,0,4,0,1,3,1,0,240,207,1,239,,,,,,,,,,,,,,,,,,
,,0,120,,,,,,,1,6,1,stim/61.jpeg,Instruments,2,stim/objects/Instruments/metronome.png,0.5,3,-0.2,-0.15,right,12,2020-12-16_17h07.50.476,premup-three_ses-01_part-01_label-phase1,3.2.4,Win32,60,left,1.299999952,4,0,4,0,1,3,1,0,240,68,1,239,,,,,,,,,,,,,,,,,,
,,1,121,,,,,,,2,2,4,stim/24.jpeg,HouseObjects,1,stim/objects/HouseObjects/knife2.png,0.7,4,0.2,-0.15,left,12,2020-12-16_17h07.50.476,premup-three_ses-01_part-01_label-phase1,3.2.4,Win32,60,left,0.739000082,4,0,4,0,1,3,1,0,240,127,1,239,,,,,,,,,,,,,,,,,,
,,1,122,,,,,,,1,5,3,stim/53.jpeg,Instruments,2,stim/objects/Instruments/maraca.png,0.5,3,-0.2,-0.15,right,12,2020-12-16_17h07.50.476,premup-three_ses-01_part-01_label-phase1,3.2.4,Win32,60,right,1.086999893,4,0,4,0,1,3,1,0,240,30,1,239,,,,,,,,,,,,,,,,,,
,,0,123,,,,,,,1,5,2,stim/52.jpeg,HouseObjects,1,stim/objects/HouseObjects/ironingboard.png,0.5,2,0.2,0.15,left,12,2020-12-16_17h07.50.476,premup-three_ses-01_part-01_label-phase1,3.2.4,Win32,60,right,0.968999863,4,0,4,0,1,3,1,0,240,9,1,239,,,,,,,,,,,,,,,,,,
,,1,124,,,,,,,2,1,1,stim/11.jpeg,Instruments,2,stim/objects/Instruments/panflute.png,0.7,3,-0.2,-0.15,right,12,2020-12-16_17h07.50.476,premup-three_ses-01_part-01_label-phase1,3.2.4,Win32,60,right,1.052999973,4,0,4,0,1,3,1,0,240,116,1,239,,,,,,,,,,,,,,,,,,
,,1,125,,,,,,,3,3,3,stim/33.jpeg,Instruments,2,stim/objects/Instruments/musicstand2.png,0.9,2,0.2,0.15,right,12,2020-12-16_17h07.50.476,premup-three_ses-01_part-01_label-phase1,3.2.4,Win32,60,right,0.888000011,4,0,4,0,1,3,1,0,240,166,1,239,,,,,,,,,,,,,,,,,,
,,1,126,,,,,,,3,4,3,stim/43.jpeg,HouseObjects,1,stim/objects/HouseObjects/rubbergloves2.png,0.9,1,-0.2,0.15,left,12,2020-12-16_17h07.50.476,premup-three_ses-01_part-01_label-phase1,3.2.4,Win32,60,left,0.789000034,4,0,4,0,1,3,1,0,240,234,1,239,,,,,,,,,,,,,,,,,,
,,1,127,,,,,,,3,4,3,stim/43.jpeg,HouseObjects,1,stim/objects/HouseObjects/rubbergloves2.png,0.9,3,-0.2,-0.15,left,12,2020-12-16_17h07.50.476,premup-three_ses-01_part-01_label-phase1,3.2.4,Win32,60,left,0.740999937,4,0,4,0,1,3,1,0,240,230,1,239,,,,,,,,,,,,,,,,,,
,,1,128,,,,,,,3,3,4,stim/34.jpeg,Instruments,2,stim/objects/Instruments/oboe2.png,0.9,2,0.2,0.15,right,12,2020-12-16_17h07.50.476,premup-three_ses-01_part-01_label-phase1,3.2.4,Win32,60,right,0.587999821,4,0,4,0,1,3,1,0,240,175,1,239,,,,,,,,,,,,,,,,,,
,,1,129,,,,,,,2,2,4,stim/24.jpeg,HouseObjects,1,stim/objects/HouseObjects/knife2.png,0.7,2,0.2,0.15,left,12,2020-12-16_17h07.50.476,premup-three_ses-01_part-01_label-phase1,3.2.4,Win32,60,left,0.721999884,4,0,4,0,1,3,1,0,240,131,1,239,,,,,,,,,,,,,,,,,,
,,1,130,,,,,,,2,1,1,stim/11.jpeg,Instruments,2,stim/objects/Instruments/panflute.png,0.7,3,-0.2,-0.15,right,12,2020-12-16_17h07.50.476,premup-three_ses-01_part-01_label-phase1,3.2.4,Win32,60,right,1.36500001,4,0,4,0,1,3,1,0,240,100,1,239,,,,,,,,,,,,,,,,,,
,,1,131,,,,,,,3,4,1,stim/41.jpeg,HouseObjects,1,stim/objects/HouseObjects/recyclingbin2.png,0.9,3,-0.2,-0.15,left,12,2020-12-16_17h07.50.476,premup-three_ses-01_part-01_label-phase1,3.2.4,Win32,60,left,0.689999819,4,0,4,0,1,3,1,0,240,232,1,239,,,,,,,,,,,,,,,,,,
,,1,132,,,,,,,3,3,3,stim/33.jpeg,Instruments,2,stim/objects/Instruments/musicstand2.png,0.9,2,0.2,0.15,right,12,2020-12-16_17h07.50.476,premup-three_ses-01_part-01_label-phase1,3.2.4,Win32,60,right,0.816999912,4,0,4,0,1,3,1,0,240,182,1,239,,,,,,,,,,,,,,,,,,
,,1,133,,,,,,,3,4,4,stim/44.jpeg,HouseObjects,1,stim/objects/HouseObjects/rug2.png,0.9,4,0.2,-0.15,left,12,2020-12-16_17h07.50.476,premup-three_ses-01_part-01_label-phase1,3.2.4,Win32,60,left,0.836999893,4,0,4,0,1,3,1,0,240,223,1,239,,,,,,,,,,,,,,,,,,
