id_acc,key_resp_id.keys,key_resp_id.rt,key_resp_conf.keys,key_resp_conf.rt,assoc_acc,key_resp_assoc.keys,key_resp_assoc.rt,loc_acc,key_resp_loc.keys,key_resp_loc.rt,task_innerloop.thisRepN,task_innerloop.thisTrialN,task_innerloop.thisN,task_innerloop.thisIndex,task_innerloop.ran,task_innerloop.order,context_type,object_cat,PE_level,OvsN,obj_file,scn_file,corr_scn_cat,assoc_file,corr_scn_inst,corr_loc,participant,date,expName,psychopyVersion,OS,frameRate
1,left,2.489000082,4,1.861999989,0,2,9.225000143,0,3,2.555999994,1,0,200,45,1,199,2,1,0.7,1,stim/objects/HouseObjects/clothesdryingrack2.png,stim/21.jpeg,2,stim/2.png,1,3,12,2020-12-17_17h50.31.224,premup-three_ses-02_part-03_label-phase3,3.2.4,Win32,60
1,left,6.819000006,3,2.217000008,0,3,7.349999905,0,2,4.801000118,1,0,200,67,1,199,3,1,0.1,1,stim/objects/HouseObjects/handbrush2.png,stim/34.jpeg,3,stim/3.png,4,3,12,2020-12-17_17h50.31.224,premup-three_ses-02_part-03_label-phase3,3.2.4,Win32,60
1,right,3.963999987,,,0,,,0,,,1,0,200,134,1,199,0,2,0,2,stim/objects/Instruments/electricguitar3.png,,0,stim/0.png,0,0,12,2020-12-17_17h50.31.224,premup-three_ses-02_part-03_label-phase3,3.2.4,Win32,60
1,left,4.895999908,,,0,,,0,,,1,0,200,104,1,199,0,1,0,2,stim/objects/HouseObjects/bleachbottle3.png,,0,stim/0.png,0,0,12,2020-12-17_17h50.31.224,premup-three_ses-02_part-03_label-phase3,3.2.4,Win32,60
1,left,3.681999922,4,3.937999964,0,4,6.057999849,0,4,9.303999901,1,0,200,87,1,199,3,1,0.9,1,stim/objects/HouseObjects/towel2.png,stim/44.jpeg,4,stim/4.png,4,3,12,2020-12-17_17h50.31.224,premup-three_ses-02_part-03_label-phase3,3.2.4,Win32,60
1,left,1.426999807,4,2.416000128,0,3,15.01399994,0,4,1.871000051,1,0,200,50,1,199,2,2,0.3,1,stim/objects/Instruments/bassguitar2.png,stim/22.jpeg,2,stim/2.png,2,4,12,2020-12-17_17h50.31.224,premup-three_ses-02_part-03_label-phase3,3.2.4,Win32,60
1,left,2.335999966,,,0,,,0,,,1,0,200,115,1,199,0,2,0,2,stim/objects/Instruments/bassguitar3.png,,0,stim/0.png,0,0,12,2020-12-17_17h50.31.224,premup-three_ses-02_part-03_label-phase3,3.2.4,Win32,60
1,right,3.08100009,,,0,,,0,,,1,0,200,141,1,199,0,1,0,2,stim/objects/HouseObjects/hairdryer3.png,,0,stim/0.png,0,0,12,2020-12-17_17h50.31.224,premup-three_ses-02_part-03_label-phase3,3.2.4,Win32,60
1,left,0.983999968,4,4.330999851,0,3,6.907999992,0,2,3.451999903,1,0,200,71,1,199,3,2,0.9,1,stim/objects/Instruments/flutetrans2.png,stim/34.jpeg,3,stim/3.png,4,4,12,2020-12-17_17h50.31.224,premup-three_ses-02_part-03_label-phase3,3.2.4,Win32,60
1,right,1.634000063,4,3.549000025,0,2,10.17599988,0,4,5.664999962,1,0,200,2,1,199,1,1,0.5,1,stim/objects/HouseObjects/handbrush.png,stim/51.jpeg,5,stim/5.png,1,1,12,2020-12-17_17h50.31.224,premup-three_ses-02_part-03_label-phase3,3.2.4,Win32,60
1,left,1.395999908,,,0,,,0,,,1,0,200,144,1,199,0,1,0,2,stim/objects/HouseObjects/safetypin3.png,,0,stim/0.png,0,0,12,2020-12-17_17h50.31.224,premup-three_ses-02_part-03_label-phase3,3.2.4,Win32,60
1,right,1.653000116,4,1.923999786,0,4,5.247999907,0,2,2.065999746,1,0,200,20,1,199,2,1,0.3,1,stim/objects/HouseObjects/thermometer.png,stim/11.jpeg,1,stim/1.png,1,1,12,2020-12-17_17h50.31.224,premup-three_ses-02_part-03_label-phase3,3.2.4,Win32,60
1,right,3.03399992,,,0,,,0,,,1,0,200,196,1,199,0,2,0,2,stim/objects/Instruments/doublebass4.png,,0,stim/0.png,0,0,12,2020-12-17_17h50.31.224,premup-three_ses-02_part-03_label-phase3,3.2.4,Win32,60
1,left,2.111999989,,,0,,,0,,,1,0,200,133,1,199,0,2,0,2,stim/objects/Instruments/electricdrumset3.png,,0,stim/0.png,0,0,12,2020-12-17_17h50.31.224,premup-three_ses-02_part-03_label-phase3,3.2.4,Win32,60
1,left,1.199999809,4,3.623999834,0,1,7.155999899,0,1,2.510999918,1,0,200,18,1,199,1,2,0.5,1,stim/objects/Instruments/triangle.png,stim/63.jpeg,6,stim/6.png,3,4,12,2020-12-17_17h50.31.224,premup-three_ses-02_part-03_label-phase3,3.2.4,Win32,60
1,right,1.557999849,,,0,,,0,,,1,0,200,119,1,199,0,2,0,2,stim/objects/Instruments/cornet3.png,,0,stim/0.png,0,0,12,2020-12-17_17h50.31.224,premup-three_ses-02_part-03_label-phase3,3.2.4,Win32,60
1,left,1.016000032,4,0.790999889,0,3,5.945999861,0,2,1.741999865,1,0,200,91,1,199,3,2,0.1,1,stim/objects/Instruments/tambourine2.png,stim/44.jpeg,4,stim/4.png,4,4,12,2020-12-17_17h50.31.224,premup-three_ses-02_part-03_label-phase3,3.2.4,Win32,60
1,left,2.242999792,,,0,,,0,,,1,0,200,171,1,199,0,2,0,2,stim/objects/Instruments/tuba3.png,,0,stim/0.png,0,0,12,2020-12-17_17h50.31.224,premup-three_ses-02_part-03_label-phase3,3.2.4,Win32,60
1,left,0.970999956,4,0.916999817,0,4,3.635999918,0,4,4.456999779,1,0,200,32,1,199,2,2,0.7,1,stim/objects/Instruments/violin.png,stim/14.jpeg,1,stim/1.png,4,2,12,2020-12-17_17h50.31.224,premup-three_ses-02_part-03_label-phase3,3.2.4,Win32,60
1,left,2.53399992,,,0,,,0,,,1,0,200,105,1,199,0,1,0,2,stim/objects/HouseObjects/blender3.png,,0,stim/0.png,0,0,12,2020-12-17_17h50.31.224,premup-three_ses-02_part-03_label-phase3,3.2.4,Win32,60
1,right,0.944999933,,,0,,,0,,,1,0,200,173,1,199,0,2,0,2,stim/objects/Instruments/vuvuzela3.png,,0,stim/0.png,0,0,12,2020-12-17_17h50.31.224,premup-three_ses-02_part-03_label-phase3,3.2.4,Win32,60
1,right,1.166000128,4,2.046999931,0,4,2.460999966,0,4,1.011999846,1,0,200,56,1,199,2,2,0.3,1,stim/objects/Instruments/doublebass2.png,stim/24.jpeg,2,stim/2.png,4,3,12,2020-12-17_17h50.31.224,premup-three_ses-02_part-03_label-phase3,3.2.4,Win32,60
1,left,2.996999741,4,0.582000017,0,4,5.725999832,0,3,3.368999958,1,0,200,93,1,199,3,2,0.1,1,stim/objects/Instruments/triangle2.png,stim/42.jpeg,4,stim/4.png,2,1,12,2020-12-17_17h50.31.224,premup-three_ses-02_part-03_label-phase3,3.2.4,Win32,60
1,left,1.394999981,4,1.23300004,0,3,12.65400004,0,3,4.350999832,1,0,200,3,1,199,1,1,0.5,1,stim/objects/HouseObjects/handvacuum.png,stim/52.jpeg,5,stim/5.png,2,4,12,2020-12-17_17h50.31.224,premup-three_ses-02_part-03_label-phase3,3.2.4,Win32,60
1,right,1.849999905,,,0,,,0,,,1,0,200,153,1,199,0,2,0,2,stim/objects/Instruments/hihat3.png,,0,stim/0.png,0,0,12,2020-12-17_17h50.31.224,premup-three_ses-02_part-03_label-phase3,3.2.4,Win32,60
1,right,2.181999922,,,0,,,0,,,1,0,200,186,1,199,0,1,0,2,stim/objects/HouseObjects/clothespin4.png,,0,stim/0.png,0,0,12,2020-12-17_17h50.31.224,premup-three_ses-02_part-03_label-phase3,3.2.4,Win32,60
1,right,2.754999876,,,0,,,0,,,1,0,200,129,1,199,0,1,0,2,stim/objects/HouseObjects/glass3.png,,0,stim/0.png,0,0,12,2020-12-17_17h50.31.224,premup-three_ses-02_part-03_label-phase3,3.2.4,Win32,60
1,right,3.679999828,,,0,,,0,,,1,0,200,135,1,199,0,2,0,2,stim/objects/Instruments/flute3.png,,0,stim/0.png,0,0,12,2020-12-17_17h50.31.224,premup-three_ses-02_part-03_label-phase3,3.2.4,Win32,60
1,right,1.143000126,,,0,,,0,,,1,0,200,120,1,199,0,1,0,2,stim/objects/HouseObjects/clothesdryingrack3.png,,0,stim/0.png,0,0,12,2020-12-17_17h50.31.224,premup-three_ses-02_part-03_label-phase3,3.2.4,Win32,60
1,right,2.082000017,4,1.085000038,0,4,0.838999987,0,2,1.618000031,1,0,200,61,1,199,3,1,0.1,1,stim/objects/HouseObjects/dustpan2.png,stim/32.jpeg,3,stim/3.png,2,2,12,2020-12-17_17h50.31.224,premup-three_ses-02_part-03_label-phase3,3.2.4,Win32,60
1,left,1.161000013,,,0,,,0,,,1,0,200,116,1,199,0,2,0,2,stim/objects/Instruments/cello3.png,,0,stim/0.png,0,0,12,2020-12-17_17h50.31.224,premup-three_ses-02_part-03_label-phase3,3.2.4,Win32,60
1,left,1.217999935,4,0.77699995,0,2,7.016000032,0,4,3.407999992,1,0,200,77,1,199,3,2,0.9,1,stim/objects/Instruments/harp2.png,stim/32.jpeg,3,stim/3.png,2,1,12,2020-12-17_17h50.31.224,premup-three_ses-02_part-03_label-phase3,3.2.4,Win32,60
1,right,1.274999857,,,0,,,0,,,1,0,200,157,1,199,0,2,0,2,stim/objects/Instruments/timbal3.png,,0,stim/0.png,0,0,12,2020-12-17_17h50.31.224,premup-three_ses-02_part-03_label-phase3,3.2.4,Win32,60
1,right,1.047999859,,,0,,,0,,,1,0,200,131,1,199,0,2,0,2,stim/objects/Instruments/doublebass3.png,,0,stim/0.png,0,0,12,2020-12-17_17h50.31.224,premup-three_ses-02_part-03_label-phase3,3.2.4,Win32,60
1,right,1.330999851,4,0.82799983,0,3,0.684999943,0,4,1.171000004,1,0,200,60,1,199,3,1,0.1,1,stim/objects/HouseObjects/doormat2.png,stim/31.jpeg,3,stim/3.png,1,1,12,2020-12-17_17h50.31.224,premup-three_ses-02_part-03_label-phase3,3.2.4,Win32,60
1,right,2.082999945,,,0,,,0,,,1,0,200,138,1,199,0,2,0,2,stim/objects/Instruments/gong3.png,,0,stim/0.png,0,0,12,2020-12-17_17h50.31.224,premup-three_ses-02_part-03_label-phase3,3.2.4,Win32,60
1,right,1.167999983,4,0.989000082,0,1,2.897999763,0,1,1.187999964,1,0,200,73,1,199,3,2,0.9,1,stim/objects/Instruments/gong2.png,stim/32.jpeg,3,stim/3.png,2,2,12,2020-12-17_17h50.31.224,premup-three_ses-02_part-03_label-phase3,3.2.4,Win32,60
1,right,1.117999792,,,0,,,0,,,1,0,200,160,1,199,0,1,0,2,stim/objects/HouseObjects/thermometer3.png,,0,stim/0.png,0,0,12,2020-12-17_17h50.31.224,premup-three_ses-02_part-03_label-phase3,3.2.4,Win32,60
1,right,2.123999834,,,0,,,0,,,1,0,200,147,1,199,0,1,0,2,stim/objects/HouseObjects/sponge3.png,,0,stim/0.png,0,0,12,2020-12-17_17h50.31.224,premup-three_ses-02_part-03_label-phase3,3.2.4,Win32,60
1,left,1.790999889,3,2.148999929,0,3,2.453999996,0,2,1.394000053,1,0,200,97,1,199,3,2,0.1,1,stim/objects/Instruments/violin2.png,stim/42.jpeg,4,stim/4.png,2,2,12,2020-12-17_17h50.31.224,premup-three_ses-02_part-03_label-phase3,3.2.4,Win32,60
1,left,1.345000029,4,1.101999998,0,4,34.08999991,0,4,7.993000031,1,0,200,15,1,199,1,2,0.5,1,stim/objects/Instruments/speaker.png,stim/64.jpeg,6,stim/6.png,4,1,12,2020-12-17_17h50.31.224,premup-three_ses-02_part-03_label-phase3,3.2.4,Win32,60
1,left,4.031999826,2,0.970999956,0,4,6.211999893,0,1,1.324999809,1,0,200,98,1,199,3,2,0.1,1,stim/objects/Instruments/vuvuzela2.png,stim/43.jpeg,4,stim/4.png,3,3,12,2020-12-17_17h50.31.224,premup-three_ses-02_part-03_label-phase3,3.2.4,Win32,60
1,right,1.27699995,,,0,,,0,,,1,0,200,199,1,199,0,2,0,2,stim/objects/Instruments/electricguitar4.png,,0,stim/0.png,0,0,12,2020-12-17_17h50.31.224,premup-three_ses-02_part-03_label-phase3,3.2.4,Win32,60
1,right,0.745999813,1,2.648999929,0,1,2.248999834,0,2,2.502000093,1,0,200,81,1,199,3,1,0.9,1,stim/objects/HouseObjects/scale2.png,stim/42.jpeg,4,stim/4.png,2,4,12,2020-12-17_17h50.31.224,premup-three_ses-02_part-03_label-phase3,3.2.4,Win32,60
1,right,3.047999859,,,0,,,0,,,1,0,200,143,1,199,0,1,0,2,stim/objects/HouseObjects/handvacuum3.png,,0,stim/0.png,0,0,12,2020-12-17_17h50.31.224,premup-three_ses-02_part-03_label-phase3,3.2.4,Win32,60
1,left,1.697000027,2,4.941999912,0,3,5.495999813,0,2,7.940999985,1,0,200,19,1,199,1,2,0.5,1,stim/objects/Instruments/trombone.png,stim/64.jpeg,6,stim/6.png,4,1,12,2020-12-17_17h50.31.224,premup-three_ses-02_part-03_label-phase3,3.2.4,Win32,60
1,left,1.230999708,4,0.881000042,0,3,4.296999931,0,1,2.628999949,1,0,200,28,1,199,2,1,0.3,1,stim/objects/HouseObjects/basket2.png,stim/11.jpeg,1,stim/1.png,1,2,12,2020-12-17_17h50.31.224,premup-three_ses-02_part-03_label-phase3,3.2.4,Win32,60
1,right,1.066999912,,,0,,,0,,,1,0,200,155,1,199,0,2,0,2,stim/objects/Instruments/speaker3.png,,0,stim/0.png,0,0,12,2020-12-17_17h50.31.224,premup-three_ses-02_part-03_label-phase3,3.2.4,Win32,60
1,right,1.004999876,1,1.458999872,0,1,0.725000143,0,1,1.106999874,1,0,200,0,1,199,1,1,0.5,1,stim/objects/HouseObjects/glassmop.png,stim/53.jpeg,5,stim/5.png,3,3,12,2020-12-17_17h50.31.224,premup-three_ses-02_part-03_label-phase3,3.2.4,Win32,60
1,left,1.11500001,1,0.915999889,0,2,1.103999853,0,2,0.686000109,1,0,200,72,1,199,3,2,0.9,1,stim/objects/Instruments/frenchhorn2.png,stim/31.jpeg,3,stim/3.png,1,1,12,2020-12-17_17h50.31.224,premup-three_ses-02_part-03_label-phase3,3.2.4,Win32,60
1,right,3.215999842,1,1.217000008,0,2,0.706999779,0,4,1.371999979,1,0,200,94,1,199,3,2,0.1,1,stim/objects/Instruments/trombone2.png,stim/43.jpeg,4,stim/4.png,3,4,12,2020-12-17_17h50.31.224,premup-three_ses-02_part-03_label-phase3,3.2.4,Win32,60
1,right,1.426999807,,,0,,,0,,,1,0,200,195,1,199,0,2,0,2,stim/objects/Instruments/cymbal4.png,,0,stim/0.png,0,0,12,2020-12-17_17h50.31.224,premup-three_ses-02_part-03_label-phase3,3.2.4,Win32,60
1,right,1.485999823,,,0,,,0,,,1,0,200,197,1,199,0,2,0,2,stim/objects/Instruments/drums4.png,,0,stim/0.png,0,0,12,2020-12-17_17h50.31.224,premup-three_ses-02_part-03_label-phase3,3.2.4,Win32,60
1,right,1.174999952,,,0,,,0,,,1,0,200,161,1,199,0,1,0,2,stim/objects/HouseObjects/thread3.png,,0,stim/0.png,0,0,12,2020-12-17_17h50.31.224,premup-three_ses-02_part-03_label-phase3,3.2.4,Win32,60
1,right,1.305000067,1,0.826999903,0,3,0.680000067,0,2,0.51699996,1,0,200,62,1,199,3,1,0.1,1,stim/objects/HouseObjects/flyswatter2.png,stim/33.jpeg,3,stim/3.png,3,3,12,2020-12-17_17h50.31.224,premup-three_ses-02_part-03_label-phase3,3.2.4,Win32,60
1,left,2.941999912,3,3.46600008,0,2,3.535999775,0,2,1.365999937,1,0,200,74,1,199,3,2,0.9,1,stim/objects/Instruments/grandpiano2.png,stim/33.jpeg,3,stim/3.png,3,2,12,2020-12-17_17h50.31.224,premup-three_ses-02_part-03_label-phase3,3.2.4,Win32,60
1,left,1.240999937,,,0,,,0,,,1,0,200,177,1,199,0,2,0,2,stim/objects/Instruments/balalaika4.png,,0,stim/0.png,0,0,12,2020-12-17_17h50.31.224,premup-three_ses-02_part-03_label-phase3,3.2.4,Win32,60
1,right,2.014999866,1,1.285999775,0,3,0.384000063,0,2,0.394999981,1,0,200,69,1,199,3,1,0.1,1,stim/objects/HouseObjects/safetypin2.png,stim/32.jpeg,3,stim/3.png,2,1,12,2020-12-17_17h50.31.224,premup-three_ses-02_part-03_label-phase3,3.2.4,Win32,60
1,left,1.25,4,1.467000008,0,3,7.079999924,0,1,2.098999977,1,0,200,48,1,199,2,1,0.7,1,stim/objects/HouseObjects/cushion2.png,stim/24.jpeg,2,stim/2.png,4,4,12,2020-12-17_17h50.31.224,premup-three_ses-02_part-03_label-phase3,3.2.4,Win32,60
1,right,2.539999962,,,0,,,0,,,1,0,200,150,1,199,0,2,0,2,stim/objects/Instruments/guitarcase3.png,,0,stim/0.png,0,0,12,2020-12-17_17h50.31.224,premup-three_ses-02_part-03_label-phase3,3.2.4,Win32,60
1,right,1.072000027,2,0.944000006,0,3,0.309000015,0,1,0.385999918,1,0,200,24,1,199,2,1,0.3,1,stim/objects/HouseObjects/wateringcan.png,stim/11.jpeg,1,stim/1.png,1,1,12,2020-12-17_17h50.31.224,premup-three_ses-02_part-03_label-phase3,3.2.4,Win32,60
1,right,1.133999825,,,0,,,0,,,1,0,200,158,1,199,0,2,0,2,stim/objects/Instruments/triangle3.png,,0,stim/0.png,0,0,12,2020-12-17_17h50.31.224,premup-three_ses-02_part-03_label-phase3,3.2.4,Win32,60
1,right,1.572000027,,,0,,,0,,,1,0,200,182,1,199,0,1,0,2,stim/objects/HouseObjects/broom4.png,,0,stim/0.png,0,0,12,2020-12-17_17h50.31.224,premup-three_ses-02_part-03_label-phase3,3.2.4,Win32,60
1,left,1.40899992,4,0.875999928,0,4,3.184999943,0,1,0.922999859,1,0,200,47,1,199,2,1,0.7,1,stim/objects/HouseObjects/coffee2.png,stim/23.jpeg,2,stim/2.png,3,2,12,2020-12-17_17h50.31.224,premup-three_ses-02_part-03_label-phase3,3.2.4,Win32,60
1,right,1.376999855,4,1.082999945,0,3,0.389999866,0,2,0.323999882,1,0,200,63,1,199,3,1,0.1,1,stim/objects/HouseObjects/garbagebin2.png,stim/34.jpeg,3,stim/3.png,4,4,12,2020-12-17_17h50.31.224,premup-three_ses-02_part-03_label-phase3,3.2.4,Win32,60
1,left,1.200000048,4,0.785000086,0,4,3.88499999,0,2,2.631999731,1,0,200,52,1,199,2,2,0.3,1,stim/objects/Instruments/chime2.png,stim/24.jpeg,2,stim/2.png,4,1,12,2020-12-17_17h50.31.224,premup-three_ses-02_part-03_label-phase3,3.2.4,Win32,60
1,left,1.325999975,,,0,,,0,,,1,0,200,175,1,199,0,2,0,2,stim/objects/Instruments/accordion4.png,,0,stim/0.png,0,0,12,2020-12-17_17h50.31.224,premup-three_ses-02_part-03_label-phase3,3.2.4,Win32,60
1,right,0.850999832,,,0,,,0,,,1,0,200,164,1,199,0,1,0,2,stim/objects/HouseObjects/wateringcan3.png,,0,stim/0.png,0,0,12,2020-12-17_17h50.31.224,premup-three_ses-02_part-03_label-phase3,3.2.4,Win32,60
1,right,1.249000072,,,0,,,0,,,1,0,200,136,1,199,0,2,0,2,stim/objects/Instruments/flutetrans3.png,,0,stim/0.png,0,0,12,2020-12-17_17h50.31.224,premup-three_ses-02_part-03_label-phase3,3.2.4,Win32,60
1,right,1.089999914,4,0.917000055,0,2,0.328999758,0,3,0.350999832,1,0,200,22,1,199,2,1,0.3,1,stim/objects/HouseObjects/towel.png,stim/13.jpeg,1,stim/1.png,3,1,12,2020-12-17_17h50.31.224,premup-three_ses-02_part-03_label-phase3,3.2.4,Win32,60
1,left,1.084000111,4,0.786000013,0,3,4.457999945,0,2,1.270999908,1,0,200,49,1,199,2,1,0.7,1,stim/objects/HouseObjects/dishsoap2.png,stim/21.jpeg,2,stim/2.png,1,4,12,2020-12-17_17h50.31.224,premup-three_ses-02_part-03_label-phase3,3.2.4,Win32,60
1,left,1.17599988,4,0.868999958,0,3,3.985999823,0,3,2.583999872,1,0,200,6,1,199,1,1,0.5,1,stim/objects/Instruments/harmonica.png,stim/53.jpeg,5,stim/5.png,3,3,12,2020-12-17_17h50.31.224,premup-three_ses-02_part-03_label-phase3,3.2.4,Win32,60
1,left,2.009999752,,,0,,,0,,,1,0,200,110,1,199,0,2,0,2,stim/objects/Instruments/accordion3.png,,0,stim/0.png,0,0,12,2020-12-17_17h50.31.224,premup-three_ses-02_part-03_label-phase3,3.2.4,Win32,60
1,right,2.5,4,0.847999811,0,2,0.259999752,0,3,0.323999882,1,0,200,55,1,199,2,2,0.3,1,stim/objects/Instruments/cymbal2.png,stim/23.jpeg,2,stim/2.png,3,4,12,2020-12-17_17h50.31.224,premup-three_ses-02_part-03_label-phase3,3.2.4,Win32,60
1,right,2.723999977,4,0.669999838,0,3,0.249999762,0,2,0.314999819,1,0,200,66,1,199,3,1,0.1,1,stim/objects/HouseObjects/hairdryer2.png,stim/33.jpeg,3,stim/3.png,3,3,12,2020-12-17_17h50.31.224,premup-three_ses-02_part-03_label-phase3,3.2.4,Win32,60
1,right,5.032000065,,,0,,,0,,,1,0,200,109,1,199,0,1,0,2,stim/objects/HouseObjects/clock3.png,,0,stim/0.png,0,0,12,2020-12-17_17h50.31.224,premup-three_ses-02_part-03_label-phase3,3.2.4,Win32,60
1,right,3.348999977,3,1.023000002,0,2,0.575000048,0,2,2.657999992,1,0,200,37,1,199,2,2,0.7,1,stim/objects/Instruments/balalaika2.png,stim/11.jpeg,1,stim/1.png,1,4,12,2020-12-17_17h50.31.224,premup-three_ses-02_part-03_label-phase3,3.2.4,Win32,60
1,right,1.125999928,,,0,,,0,,,1,0,200,170,1,199,0,2,0,2,stim/objects/Instruments/trumpet3.png,,0,stim/0.png,0,0,12,2020-12-17_17h50.31.224,premup-three_ses-02_part-03_label-phase3,3.2.4,Win32,60
1,right,1.178999901,3,0.58100009,0,2,0.336999893,0,3,0.944000006,1,0,200,86,1,199,3,1,0.9,1,stim/objects/HouseObjects/thread2.png,stim/43.jpeg,4,stim/4.png,3,3,12,2020-12-17_17h50.31.224,premup-three_ses-02_part-03_label-phase3,3.2.4,Win32,60
1,left,1.95299983,3,1.032999992,0,3,1.391000032,0,2,1.608999968,1,0,200,78,1,199,3,2,0.9,1,stim/objects/Instruments/hihat2.png,stim/33.jpeg,3,stim/3.png,3,3,12,2020-12-17_17h50.31.224,premup-three_ses-02_part-03_label-phase3,3.2.4,Win32,60
1,left,1.51699996,,,0,,,0,,,1,0,200,121,1,199,0,1,0,2,stim/objects/HouseObjects/clothespin3.png,,0,stim/0.png,0,0,12,2020-12-17_17h50.31.224,premup-three_ses-02_part-03_label-phase3,3.2.4,Win32,60
1,right,1.325000048,,,0,,,0,,,1,0,200,107,1,199,0,1,0,2,stim/objects/HouseObjects/broom3.png,,0,stim/0.png,0,0,12,2020-12-17_17h50.31.224,premup-three_ses-02_part-03_label-phase3,3.2.4,Win32,60
1,right,1.272000074,,,0,,,0,,,1,0,200,159,1,199,0,2,0,2,stim/objects/Instruments/trombone3.png,,0,stim/0.png,0,0,12,2020-12-17_17h50.31.224,premup-three_ses-02_part-03_label-phase3,3.2.4,Win32,60
1,left,1.004999876,4,0.799999952,0,4,5.953000069,0,3,3.815999985,1,0,200,82,1,199,3,1,0.9,1,stim/objects/HouseObjects/sponge2.png,stim/43.jpeg,4,stim/4.png,3,4,12,2020-12-17_17h50.31.224,premup-three_ses-02_part-03_label-phase3,3.2.4,Win32,60
1,right,1.148999929,,,0,,,0,,,1,0,200,190,1,199,0,2,0,2,stim/objects/Instruments/bassguitar4.png,,0,stim/0.png,0,0,12,2020-12-17_17h50.31.224,premup-three_ses-02_part-03_label-phase3,3.2.4,Win32,60
1,right,0.991999865,,,0,,,0,,,1,0,200,184,1,199,0,1,0,2,stim/objects/HouseObjects/clock4.png,,0,stim/0.png,0,0,12,2020-12-17_17h50.31.224,premup-three_ses-02_part-03_label-phase3,3.2.4,Win32,60
1,right,1.022999763,3,0.886999846,0,2,0.265000105,0,3,0.389999866,1,0,200,31,1,199,2,2,0.7,1,stim/objects/Instruments/tuba.png,stim/13.jpeg,1,stim/1.png,3,3,12,2020-12-17_17h50.31.224,premup-three_ses-02_part-03_label-phase3,3.2.4,Win32,60
1,right,1.177999973,,,0,,,0,,,1,0,200,172,1,199,0,2,0,2,stim/objects/Instruments/violin3.png,,0,stim/0.png,0,0,12,2020-12-17_17h50.31.224,premup-three_ses-02_part-03_label-phase3,3.2.4,Win32,60
1,right,5.15199995,3,0.573999882,0,2,0.27699995,0,3,0.265999794,1,0,200,39,1,199,2,2,0.7,1,stim/objects/Instruments/bassdrum2.png,stim/13.jpeg,1,stim/1.png,3,1,12,2020-12-17_17h50.31.224,premup-three_ses-02_part-03_label-phase3,3.2.4,Win32,60
1,right,0.950000048,,,0,,,0,,,1,0,200,187,1,199,0,1,0,2,stim/objects/HouseObjects/coffee4.png,,0,stim/0.png,0,0,12,2020-12-17_17h50.31.224,premup-three_ses-02_part-03_label-phase3,3.2.4,Win32,60
1,right,1.008999825,3,0.719000101,0,2,0.259999752,0,3,0.286999941,1,0,200,96,1,199,3,2,0.1,1,stim/objects/Instruments/tuba2.png,stim/41.jpeg,4,stim/4.png,1,3,12,2020-12-17_17h50.31.224,premup-three_ses-02_part-03_label-phase3,3.2.4,Win32,60
1,right,0.909999847,3,1.311999798,0,4,3.937999725,0,4,1.338999987,1,0,200,36,1,199,2,2,0.7,1,stim/objects/Instruments/acousticguitar2.png,stim/14.jpeg,1,stim/1.png,4,4,12,2020-12-17_17h50.31.224,premup-three_ses-02_part-03_label-phase3,3.2.4,Win32,60
1,left,0.977999926,4,1.013999939,0,3,0.960000038,0,1,2.42599988,1,0,200,99,1,199,3,2,0.1,1,stim/objects/Instruments/xylophone2.png,stim/44.jpeg,4,stim/4.png,4,2,12,2020-12-17_17h50.31.224,premup-three_ses-02_part-03_label-phase3,3.2.4,Win32,60
1,right,2.321999788,3,0.662999868,0,2,0.325999737,0,4,1.107999802,1,0,200,46,1,199,2,1,0.7,1,stim/objects/HouseObjects/clothespin2.png,stim/22.jpeg,2,stim/2.png,2,3,12,2020-12-17_17h50.31.224,premup-three_ses-02_part-03_label-phase3,3.2.4,Win32,60
1,right,1.118000031,,,0,,,0,,,1,0,200,148,1,199,0,1,0,2,stim/objects/HouseObjects/spraybottle3.png,,0,stim/0.png,0,0,12,2020-12-17_17h50.31.224,premup-three_ses-02_part-03_label-phase3,3.2.4,Win32,60
1,right,1.356999874,,,0,,,0,,,1,0,200,163,1,199,0,1,0,2,stim/objects/HouseObjects/vacuumcleaner3.png,,0,stim/0.png,0,0,12,2020-12-17_17h50.31.224,premup-three_ses-02_part-03_label-phase3,3.2.4,Win32,60
1,right,1.246000051,3,0.585999966,0,2,0.376999855,0,4,1.095999956,1,0,200,53,1,199,2,2,0.3,1,stim/objects/Instruments/clarinet2.png,stim/21.jpeg,2,stim/2.png,1,1,12,2020-12-17_17h50.31.224,premup-three_ses-02_part-03_label-phase3,3.2.4,Win32,60
1,left,1.961999893,3,0.680999756,0,2,2.194999933,0,2,1.902999878,1,0,200,30,1,199,2,2,0.7,1,stim/objects/Instruments/trumpet.png,stim/12.jpeg,1,stim/1.png,2,4,12,2020-12-17_17h50.31.224,premup-three_ses-02_part-03_label-phase3,3.2.4,Win32,60
1,left,1.169999838,4,0.855999947,0,3,2.274999857,0,2,1.302999973,1,0,200,7,1,199,1,1,0.5,1,stim/objects/Instruments/harp.png,stim/54.jpeg,5,stim/5.png,4,4,12,2020-12-17_17h50.31.224,premup-three_ses-02_part-03_label-phase3,3.2.4,Win32,60
1,right,1.142999887,,,0,,,0,,,1,0,200,188,1,199,0,1,0,2,stim/objects/HouseObjects/cushion4.png,,0,stim/0.png,0,0,12,2020-12-17_17h50.31.224,premup-three_ses-02_part-03_label-phase3,3.2.4,Win32,60
1,left,3.388999939,2,1.704999924,0,4,3.013000011,0,3,1.688999891,1,0,200,16,1,199,1,2,0.5,1,stim/objects/Instruments/tambourine.png,stim/61.jpeg,6,stim/6.png,1,2,12,2020-12-17_17h50.31.224,premup-three_ses-02_part-03_label-phase3,3.2.4,Win32,60
1,right,2.424000025,,,0,,,0,,,1,0,200,180,1,199,0,1,0,2,stim/objects/HouseObjects/blender4.png,,0,stim/0.png,0,0,12,2020-12-17_17h50.31.224,premup-three_ses-02_part-03_label-phase3,3.2.4,Win32,60
1,right,1.636999846,3,0.782999992,0,3,0.94299984,0,3,1.184999704,1,0,200,90,1,199,3,2,0.1,1,stim/objects/Instruments/speaker2.png,stim/43.jpeg,4,stim/4.png,3,1,12,2020-12-17_17h50.31.224,premup-three_ses-02_part-03_label-phase3,3.2.4,Win32,60
1,right,6.859999895,3,0.737999916,0,3,0.600999832,0,2,0.90899992,1,0,200,23,1,199,2,1,0.3,1,stim/objects/HouseObjects/vacuumcleaner.png,stim/14.jpeg,1,stim/1.png,4,1,12,2020-12-17_17h50.31.224,premup-three_ses-02_part-03_label-phase3,3.2.4,Win32,60
1,left,1.249000072,4,1.450999975,0,3,4.292999983,0,1,0.825999737,1,0,200,27,1,199,2,1,0.3,1,stim/objects/HouseObjects/barbecuelighter2.png,stim/14.jpeg,1,stim/1.png,4,3,12,2020-12-17_17h50.31.224,premup-three_ses-02_part-03_label-phase3,3.2.4,Win32,60
1,left,1.127999783,,,0,,,0,,,1,0,200,146,1,199,0,1,0,2,stim/objects/HouseObjects/scale3.png,,0,stim/0.png,0,0,12,2020-12-17_17h50.31.224,premup-three_ses-02_part-03_label-phase3,3.2.4,Win32,60
1,right,1.637999773,,,0,,,0,,,1,0,200,192,1,199,0,2,0,2,stim/objects/Instruments/chime4.png,,0,stim/0.png,0,0,12,2020-12-17_17h50.31.224,premup-three_ses-02_part-03_label-phase3,3.2.4,Win32,60
1,left,1.208999872,4,0.898000002,0,4,2.349999905,0,3,9.679999828,1,0,200,14,1,199,1,2,0.5,1,stim/objects/HouseObjects/teapot.png,stim/61.jpeg,6,stim/6.png,1,1,12,2020-12-17_17h50.31.224,premup-three_ses-02_part-03_label-phase3,3.2.4,Win32,60
1,right,8.641000032,,,0,,,0,,,1,0,200,174,1,199,0,2,0,2,stim/objects/Instruments/xylophone3.png,,0,stim/0.png,0,0,12,2020-12-17_17h50.31.224,premup-three_ses-02_part-03_label-phase3,3.2.4,Win32,60
1,left,1.352999926,4,0.957999945,0,3,3.346999884,0,3,1.956999779,1,0,200,41,1,199,2,1,0.7,1,stim/objects/HouseObjects/bottle2.png,stim/21.jpeg,2,stim/2.png,1,1,12,2020-12-17_17h50.31.224,premup-three_ses-02_part-03_label-phase3,3.2.4,Win32,60
1,left,2.100999832,3,1.825000048,0,1,2.115999699,0,3,4.25999999,1,0,200,70,1,199,3,2,0.9,1,stim/objects/Instruments/flute2.png,stim/33.jpeg,3,stim/3.png,3,4,12,2020-12-17_17h50.31.224,premup-three_ses-02_part-03_label-phase3,3.2.4,Win32,60
1,left,2.802999973,,,0,,,0,,,1,0,200,154,1,199,0,2,0,2,stim/objects/Instruments/saxophone3.png,,0,stim/0.png,0,0,12,2020-12-17_17h50.31.224,premup-three_ses-02_part-03_label-phase3,3.2.4,Win32,60
1,left,1.649999857,3,1.03399992,0,4,4.135999918,0,1,1.211999893,1,0,200,59,1,199,2,2,0.3,1,stim/objects/Instruments/electricguitar2.png,stim/23.jpeg,2,stim/2.png,3,1,12,2020-12-17_17h50.31.224,premup-three_ses-02_part-03_label-phase3,3.2.4,Win32,60
1,left,1.001999855,,,0,,,0,,,1,0,200,183,1,199,0,1,0,2,stim/objects/HouseObjects/bucket4.png,,0,stim/0.png,0,0,12,2020-12-17_17h50.31.224,premup-three_ses-02_part-03_label-phase3,3.2.4,Win32,60
1,right,2.767999887,,,0,,,0,,,1,0,200,152,1,199,0,2,0,2,stim/objects/Instruments/harp3.png,,0,stim/0.png,0,0,12,2020-12-17_17h50.31.224,premup-three_ses-02_part-03_label-phase3,3.2.4,Win32,60
1,right,2.847999811,1,1.249000072,0,2,1.009999752,0,3,1.118999958,1,0,200,38,1,199,2,2,0.7,1,stim/objects/Instruments/banjo2.png,stim/12.jpeg,1,stim/1.png,2,2,12,2020-12-17_17h50.31.224,premup-three_ses-02_part-03_label-phase3,3.2.4,Win32,60
1,left,1.200999975,4,1.167000055,0,3,4.802000046,0,2,2.15899992,1,0,200,12,1,199,1,2,0.5,1,stim/objects/HouseObjects/sponge.png,stim/63.jpeg,6,stim/6.png,3,1,12,2020-12-17_17h50.31.224,premup-three_ses-02_part-03_label-phase3,3.2.4,Win32,60
1,left,1.187999964,4,0.912999868,0,2,2.707000017,0,3,1.519999743,1,0,200,29,1,199,2,1,0.3,1,stim/objects/HouseObjects/bleachbottle2.png,stim/12.jpeg,1,stim/1.png,2,4,12,2020-12-17_17h50.31.224,premup-three_ses-02_part-03_label-phase3,3.2.4,Win32,60
1,left,1.210000038,3,0.954999924,0,1,2.562999725,0,1,2.156000137,1,0,200,83,1,199,3,1,0.9,1,stim/objects/HouseObjects/spraybottle2.png,stim/44.jpeg,4,stim/4.png,4,1,12,2020-12-17_17h50.31.224,premup-three_ses-02_part-03_label-phase3,3.2.4,Win32,60
1,left,1.227999926,4,0.996000051,0,2,7.154999971,0,2,1.82799983,1,0,200,8,1,199,1,1,0.5,1,stim/objects/Instruments/hihat.png,stim/51.jpeg,5,stim/5.png,1,2,12,2020-12-17_17h50.31.224,premup-three_ses-02_part-03_label-phase3,3.2.4,Win32,60
1,left,0.980999947,4,1.430999994,0,1,5.963000059,0,1,0.799999952,1,0,200,10,1,199,1,2,0.5,1,stim/objects/HouseObjects/saw.png,stim/61.jpeg,6,stim/6.png,1,2,12,2020-12-17_17h50.31.224,premup-three_ses-02_part-03_label-phase3,3.2.4,Win32,60
1,right,2.695999861,,,0,,,0,,,1,0,200,122,1,199,0,1,0,2,stim/objects/HouseObjects/coffee3.png,,0,stim/0.png,0,0,12,2020-12-17_17h50.31.224,premup-three_ses-02_part-03_label-phase3,3.2.4,Win32,60
1,right,0.955999851,,,0,,,0,,,1,0,200,140,1,199,0,1,0,2,stim/objects/HouseObjects/glassmop3.png,,0,stim/0.png,0,0,12,2020-12-17_17h50.31.224,premup-three_ses-02_part-03_label-phase3,3.2.4,Win32,60
1,right,1.639999866,,,0,,,0,,,1,0,200,127,1,199,0,1,0,2,stim/objects/HouseObjects/flyswatter3.png,,0,stim/0.png,0,0,12,2020-12-17_17h50.31.224,premup-three_ses-02_part-03_label-phase3,3.2.4,Win32,60
1,right,1.006000042,,,0,,,0,,,1,0,200,102,1,199,0,1,0,2,stim/objects/HouseObjects/barbecuelighter3.png,,0,stim/0.png,0,0,12,2020-12-17_17h50.31.224,premup-three_ses-02_part-03_label-phase3,3.2.4,Win32,60
1,left,0.981999874,4,1.030999899,0,3,4.856999874,0,1,0.760999918,1,0,200,76,1,199,3,2,0.9,1,stim/objects/Instruments/harmonica2.png,stim/31.jpeg,3,stim/3.png,1,1,12,2020-12-17_17h50.31.224,premup-three_ses-02_part-03_label-phase3,3.2.4,Win32,60
1,right,0.843999863,,,0,,,0,,,1,0,200,149,1,199,0,1,0,2,stim/objects/HouseObjects/teapot3.png,,0,stim/0.png,0,0,12,2020-12-17_17h50.31.224,premup-three_ses-02_part-03_label-phase3,3.2.4,Win32,60
1,left,1.065000057,4,0.599999905,0,2,3.225999832,0,1,1.361000061,1,0,200,13,1,199,1,2,0.5,1,stim/objects/HouseObjects/spraybottle.png,stim/64.jpeg,6,stim/6.png,4,3,12,2020-12-17_17h50.31.224,premup-three_ses-02_part-03_label-phase3,3.2.4,Win32,60
1,left,1.032999754,4,0.868999958,0,3,4.079999924,0,2,3.424999952,1,0,200,11,1,199,1,2,0.5,1,stim/objects/HouseObjects/scale.png,stim/62.jpeg,6,stim/6.png,2,2,12,2020-12-17_17h50.31.224,premup-three_ses-02_part-03_label-phase3,3.2.4,Win32,60
1,left,3.141999722,,,0,,,0,,,1,0,200,112,1,199,0,2,0,2,stim/objects/Instruments/balalaika3.png,,0,stim/0.png,0,0,12,2020-12-17_17h50.31.224,premup-three_ses-02_part-03_label-phase3,3.2.4,Win32,60
1,right,3.392999887,,,0,,,0,,,1,0,200,139,1,199,0,2,0,2,stim/objects/Instruments/grandpiano3.png,,0,stim/0.png,0,0,12,2020-12-17_17h50.31.224,premup-three_ses-02_part-03_label-phase3,3.2.4,Win32,60
1,right,0.862999916,,,0,,,0,,,1,0,200,103,1,199,0,1,0,2,stim/objects/HouseObjects/basket3.png,,0,stim/0.png,0,0,12,2020-12-17_17h50.31.224,premup-three_ses-02_part-03_label-phase3,3.2.4,Win32,60
1,right,1.069999933,,,0,,,0,,,1,0,200,100,1,199,0,1,0,2,stim/objects/HouseObjects/ashtray3.png,,0,stim/0.png,0,0,12,2020-12-17_17h50.31.224,premup-three_ses-02_part-03_label-phase3,3.2.4,Win32,60
1,right,2.999000072,,,0,,,0,,,1,0,200,118,1,199,0,2,0,2,stim/objects/Instruments/clarinet3.png,,0,stim/0.png,0,0,12,2020-12-17_17h50.31.224,premup-three_ses-02_part-03_label-phase3,3.2.4,Win32,60
1,right,1.075999975,1,1.066999912,0,2,0.369999886,0,3,0.512999773,1,0,200,80,1,199,3,1,0.9,1,stim/objects/HouseObjects/saw2.png,stim/41.jpeg,4,stim/4.png,1,3,12,2020-12-17_17h50.31.224,premup-three_ses-02_part-03_label-phase3,3.2.4,Win32,60
1,right,0.997999907,,,0,,,0,,,1,0,200,169,1,199,0,1,0,2,stim/objects/HouseObjects/bleachbottle4.png,,0,stim/0.png,0,0,12,2020-12-17_17h50.31.224,premup-three_ses-02_part-03_label-phase3,3.2.4,Win32,60
1,left,1.208999872,4,13.71099997,0,3,2.247999907,0,3,2.823999882,1,0,200,58,1,199,2,2,0.3,1,stim/objects/Instruments/electricdrumset2.png,stim/22.jpeg,2,stim/2.png,2,2,12,2020-12-17_17h50.31.224,premup-three_ses-02_part-03_label-phase3,3.2.4,Win32,60
1,left,2.197999716,3,1.113999844,0,3,0.911999941,0,3,4.138999939,1,0,200,42,1,199,2,1,0.7,1,stim/objects/HouseObjects/broom2.png,stim/22.jpeg,2,stim/2.png,2,4,12,2020-12-17_17h50.31.224,premup-three_ses-02_part-03_label-phase3,3.2.4,Win32,60
1,left,1.143999815,,,0,,,0,,,1,0,200,130,1,199,0,2,0,2,stim/objects/Instruments/cymbal3.png,,0,stim/0.png,0,0,12,2020-12-17_17h50.31.224,premup-three_ses-02_part-03_label-phase3,3.2.4,Win32,60
1,left,0.881999969,,,0,,,0,,,1,0,200,124,1,199,0,1,0,2,stim/objects/HouseObjects/dishsoap3.png,,0,stim/0.png,0,0,12,2020-12-17_17h50.31.224,premup-three_ses-02_part-03_label-phase3,3.2.4,Win32,60
1,right,1.203000069,3,2.713999987,0,3,3.004999876,0,2,0.986999989,1,0,200,25,1,199,2,1,0.3,1,stim/objects/HouseObjects/ashtray2.png,stim/12.jpeg,1,stim/1.png,2,2,12,2020-12-17_17h50.31.224,premup-three_ses-02_part-03_label-phase3,3.2.4,Win32,60
1,right,2.149999857,,,0,,,0,,,1,0,200,168,1,199,0,1,0,2,stim/objects/HouseObjects/basket4.png,,0,stim/0.png,0,0,12,2020-12-17_17h50.31.224,premup-three_ses-02_part-03_label-phase3,3.2.4,Win32,60
1,right,0.945999861,,,0,,,0,,,1,0,200,165,1,199,0,1,0,2,stim/objects/HouseObjects/ashtray4.png,,0,stim/0.png,0,0,12,2020-12-17_17h50.31.224,premup-three_ses-02_part-03_label-phase3,3.2.4,Win32,60
1,left,0.989000082,4,0.951999903,0,4,1.916999817,0,4,0.001999855,1,0,200,9,1,199,1,1,0.5,1,stim/objects/Instruments/saxophone.png,stim/52.jpeg,5,stim/5.png,2,2,12,2020-12-17_17h50.31.224,premup-three_ses-02_part-03_label-phase3,3.2.4,Win32,60
1,left,3.53399992,,,0,,,0,,,1,0,200,178,1,199,0,2,0,2,stim/objects/Instruments/banjo4.png,,0,stim/0.png,0,0,12,2020-12-17_17h50.31.224,premup-three_ses-02_part-03_label-phase3,3.2.4,Win32,60
1,left,4.77699995,3,1.48699975,0,2,1.5,0,1,1.345999956,1,0,200,89,1,199,3,1,0.9,1,stim/objects/HouseObjects/wateringcan2.png,stim/42.jpeg,4,stim/4.png,2,4,12,2020-12-17_17h50.31.224,premup-three_ses-02_part-03_label-phase3,3.2.4,Win32,60
1,left,1.200999975,4,1.135999918,0,3,1.673999786,0,2,1.128000021,1,0,200,21,1,199,2,1,0.3,1,stim/objects/HouseObjects/thread.png,stim/12.jpeg,1,stim/1.png,2,3,12,2020-12-17_17h50.31.224,premup-three_ses-02_part-03_label-phase3,3.2.4,Win32,60
1,left,2.874999762,3,0.934999943,0,4,1.013000011,0,2,1.138000011,1,0,200,17,1,199,1,2,0.5,1,stim/objects/Instruments/timbal.png,stim/62.jpeg,6,stim/6.png,2,4,12,2020-12-17_17h50.31.224,premup-three_ses-02_part-03_label-phase3,3.2.4,Win32,60
1,left,2.432999849,4,0.850999832,0,1,2.973999977,0,1,0.92599988,1,0,200,57,1,199,2,2,0.3,1,stim/objects/Instruments/drums2.png,stim/21.jpeg,2,stim/2.png,1,3,12,2020-12-17_17h50.31.224,premup-three_ses-02_part-03_label-phase3,3.2.4,Win32,60
1,left,1.04399991,4,0.814999819,0,4,0.882999897,0,2,4.494999886,1,0,200,44,1,199,2,1,0.7,1,stim/objects/HouseObjects/clock2.png,stim/24.jpeg,2,stim/2.png,4,3,12,2020-12-17_17h50.31.224,premup-three_ses-02_part-03_label-phase3,3.2.4,Win32,60
1,right,1.04399991,,,0,,,0,,,1,0,200,123,1,199,0,1,0,2,stim/objects/HouseObjects/cushion3.png,,0,stim/0.png,0,0,12,2020-12-17_17h50.31.224,premup-three_ses-02_part-03_label-phase3,3.2.4,Win32,60
1,right,0.791999817,,,0,,,0,,,1,0,200,156,1,199,0,2,0,2,stim/objects/Instruments/tambourine3.png,,0,stim/0.png,0,0,12,2020-12-17_17h50.31.224,premup-three_ses-02_part-03_label-phase3,3.2.4,Win32,60
1,left,1.121999979,4,0.88499999,0,3,4.021999836,0,2,2.29399991,1,0,200,85,1,199,3,1,0.9,1,stim/objects/HouseObjects/thermometer2.png,stim/42.jpeg,4,stim/4.png,2,1,12,2020-12-17_17h50.31.224,premup-three_ses-02_part-03_label-phase3,3.2.4,Win32,60
1,left,2.108999968,,,0,,,0,,,1,0,200,176,1,199,0,2,0,2,stim/objects/Instruments/acousticguitar4.png,,0,stim/0.png,0,0,12,2020-12-17_17h50.31.224,premup-three_ses-02_part-03_label-phase3,3.2.4,Win32,60
1,right,1.052999973,,,0,,,0,,,1,0,200,166,1,199,0,1,0,2,stim/objects/HouseObjects/ballofstring4.png,,0,stim/0.png,0,0,12,2020-12-17_17h50.31.224,premup-three_ses-02_part-03_label-phase3,3.2.4,Win32,60
1,right,0.889999866,,,0,,,0,,,1,0,200,126,1,199,0,1,0,2,stim/objects/HouseObjects/dustpan3.png,,0,stim/0.png,0,0,12,2020-12-17_17h50.31.224,premup-three_ses-02_part-03_label-phase3,3.2.4,Win32,60
1,right,2.061000109,1,1.146999836,0,3,0.699999809,0,2,0.508999825,1,0,200,54,1,199,2,2,0.3,1,stim/objects/Instruments/cornet2.png,stim/22.jpeg,2,stim/2.png,2,4,12,2020-12-17_17h50.31.224,premup-three_ses-02_part-03_label-phase3,3.2.4,Win32,60
1,left,0.97300005,,,0,,,0,,,1,0,200,198,1,199,0,2,0,2,stim/objects/Instruments/electricdrumset4.png,,0,stim/0.png,0,0,12,2020-12-17_17h50.31.224,premup-three_ses-02_part-03_label-phase3,3.2.4,Win32,60
1,right,1.987999916,3,1.59800005,0,4,0.617999792,0,2,0.703000069,1,0,200,88,1,199,3,1,0.9,1,stim/objects/HouseObjects/vacuumcleaner2.png,stim/41.jpeg,4,stim/4.png,1,2,12,2020-12-17_17h50.31.224,premup-three_ses-02_part-03_label-phase3,3.2.4,Win32,60
1,right,1.094000101,,,0,,,0,,,1,0,200,117,1,199,0,2,0,2,stim/objects/Instruments/chime3.png,,0,stim/0.png,0,0,12,2020-12-17_17h50.31.224,premup-three_ses-02_part-03_label-phase3,3.2.4,Win32,60
1,right,1.032999754,,,0,,,0,,,1,0,200,145,1,199,0,1,0,2,stim/objects/HouseObjects/saw3.png,,0,stim/0.png,0,0,12,2020-12-17_17h50.31.224,premup-three_ses-02_part-03_label-phase3,3.2.4,Win32,60
1,left,1.155999899,4,0.774999857,0,3,1.84100008,0,1,1.424999952,1,0,200,35,1,199,2,2,0.7,1,stim/objects/Instruments/accordion2.png,stim/13.jpeg,1,stim/1.png,3,2,12,2020-12-17_17h50.31.224,premup-three_ses-02_part-03_label-phase3,3.2.4,Win32,60
1,right,3.199999809,,,0,,,0,,,1,0,200,167,1,199,0,1,0,2,stim/objects/HouseObjects/barbecuelighter4.png,,0,stim/0.png,0,0,12,2020-12-17_17h50.31.224,premup-three_ses-02_part-03_label-phase3,3.2.4,Win32,60
1,left,0.990999937,4,0.717999935,0,3,1.688999891,0,1,1.767999887,1,0,200,75,1,199,3,2,0.9,1,stim/objects/Instruments/guitarcase2.png,stim/34.jpeg,3,stim/3.png,4,4,12,2020-12-17_17h50.31.224,premup-three_ses-02_part-03_label-phase3,3.2.4,Win32,60
1,right,1.962999821,3,0.915999889,0,2,0.338000059,0,3,0.743999958,1,0,200,65,1,199,3,1,0.1,1,stim/objects/HouseObjects/glassmop2.png,stim/32.jpeg,3,stim/3.png,2,3,12,2020-12-17_17h50.31.224,premup-three_ses-02_part-03_label-phase3,3.2.4,Win32,60
1,right,1.679999828,,,0,,,0,,,1,0,200,179,1,199,0,2,0,2,stim/objects/Instruments/bassdrum4.png,,0,stim/0.png,0,0,12,2020-12-17_17h50.31.224,premup-three_ses-02_part-03_label-phase3,3.2.4,Win32,60
1,left,4.220999956,4,1.007999897,0,3,9.059000015,0,1,0.953999996,1,0,200,33,1,199,2,2,0.7,1,stim/objects/Instruments/vuvuzela.png,stim/11.jpeg,1,stim/1.png,1,2,12,2020-12-17_17h50.31.224,premup-three_ses-02_part-03_label-phase3,3.2.4,Win32,60
1,right,1.838000059,,,0,,,0,,,1,0,200,162,1,199,0,1,0,2,stim/objects/HouseObjects/towel3.png,,0,stim/0.png,0,0,12,2020-12-17_17h50.31.224,premup-three_ses-02_part-03_label-phase3,3.2.4,Win32,60
1,left,0.967000008,4,0.717999935,0,4,0.001999855,0,3,2.474999905,1,0,200,5,1,199,1,1,0.5,1,stim/objects/Instruments/guitarcase.png,stim/52.jpeg,5,stim/5.png,2,3,12,2020-12-17_17h50.31.224,premup-three_ses-02_part-03_label-phase3,3.2.4,Win32,60
1,left,13.38899994,,,0,,,0,,,1,0,200,191,1,199,0,2,0,2,stim/objects/Instruments/cello4.png,,0,stim/0.png,0,0,12,2020-12-17_17h50.31.224,premup-three_ses-02_part-03_label-phase3,3.2.4,Win32,60
1,left,1.532999992,,,0,,,0,,,1,0,200,113,1,199,0,2,0,2,stim/objects/Instruments/banjo3.png,,0,stim/0.png,0,0,12,2020-12-17_17h50.31.224,premup-three_ses-02_part-03_label-phase3,3.2.4,Win32,60
1,right,1.289000034,2,1.401999712,0,3,0.619999886,0,1,0.733999968,1,0,200,43,1,199,2,1,0.7,1,stim/objects/HouseObjects/bucket2.png,stim/23.jpeg,2,stim/2.png,3,3,12,2020-12-17_17h50.31.224,premup-three_ses-02_part-03_label-phase3,3.2.4,Win32,60
1,right,2.782000065,,,0,,,0,,,1,0,200,151,1,199,0,2,0,2,stim/objects/Instruments/harmonica3.png,,0,stim/0.png,0,0,12,2020-12-17_17h50.31.224,premup-three_ses-02_part-03_label-phase3,3.2.4,Win32,60
1,right,1.032999754,3,0.677000046,0,2,0.345000029,0,3,0.339999914,1,0,200,40,1,199,2,1,0.7,1,stim/objects/HouseObjects/blender2.png,stim/24.jpeg,2,stim/2.png,4,3,12,2020-12-17_17h50.31.224,premup-three_ses-02_part-03_label-phase3,3.2.4,Win32,60
1,right,3.159999847,3,0.449999809,0,2,0.334000111,0,3,0.383999825,1,0,200,84,1,199,3,1,0.9,1,stim/objects/HouseObjects/teapot2.png,stim/41.jpeg,4,stim/4.png,1,4,12,2020-12-17_17h50.31.224,premup-three_ses-02_part-03_label-phase3,3.2.4,Win32,60
1,right,0.901000023,,,0,,,0,,,1,0,200,106,1,199,0,1,0,2,stim/objects/HouseObjects/bottle3.png,,0,stim/0.png,0,0,12,2020-12-17_17h50.31.224,premup-three_ses-02_part-03_label-phase3,3.2.4,Win32,60
1,right,2.010999918,3,0.671999931,0,2,0.30099988,0,3,0.335999966,1,0,200,95,1,199,3,2,0.1,1,stim/objects/Instruments/trumpet2.png,stim/44.jpeg,4,stim/4.png,4,1,12,2020-12-17_17h50.31.224,premup-three_ses-02_part-03_label-phase3,3.2.4,Win32,60
1,right,0.883999825,,,0,,,0,,,1,0,200,185,1,199,0,1,0,2,stim/objects/HouseObjects/clothesdryingrack4.png,,0,stim/0.png,0,0,12,2020-12-17_17h50.31.224,premup-three_ses-02_part-03_label-phase3,3.2.4,Win32,60
1,left,1.332999945,2,2.169000149,0,3,0.694999933,0,1,0.578999758,1,0,200,51,1,199,2,2,0.3,1,stim/objects/Instruments/cello2.png,stim/23.jpeg,2,stim/2.png,3,3,12,2020-12-17_17h50.31.224,premup-three_ses-02_part-03_label-phase3,3.2.4,Win32,60
1,left,2.270999908,,,0,,,0,,,1,0,200,193,1,199,0,2,0,2,stim/objects/Instruments/clarinet4.png,,0,stim/0.png,0,0,12,2020-12-17_17h50.31.224,premup-three_ses-02_part-03_label-phase3,3.2.4,Win32,60
1,right,1.737999916,,,0,,,0,,,1,0,200,125,1,199,0,1,0,2,stim/objects/HouseObjects/doormat3.png,,0,stim/0.png,0,0,12,2020-12-17_17h50.31.224,premup-three_ses-02_part-03_label-phase3,3.2.4,Win32,60
1,right,1.049999952,,,0,,,0,,,1,0,200,189,1,199,0,1,0,2,stim/objects/HouseObjects/dishsoap4.png,,0,stim/0.png,0,0,12,2020-12-17_17h50.31.224,premup-three_ses-02_part-03_label-phase3,3.2.4,Win32,60
1,left,1.009000063,4,1.000999928,0,3,4.85199976,0,3,0.001999855,1,0,200,26,1,199,2,1,0.3,1,stim/objects/HouseObjects/ballofstring2.png,stim/13.jpeg,1,stim/1.png,3,3,12,2020-12-17_17h50.31.224,premup-three_ses-02_part-03_label-phase3,3.2.4,Win32,60
1,right,5.579999924,,,0,,,0,,,1,0,200,114,1,199,0,2,0,2,stim/objects/Instruments/bassdrum3.png,,0,stim/0.png,0,0,12,2020-12-17_17h50.31.224,premup-three_ses-02_part-03_label-phase3,3.2.4,Win32,60
1,right,3.872999907,,,0,,,0,,,1,0,200,111,1,199,0,2,0,2,stim/objects/Instruments/acousticguitar3.png,,0,stim/0.png,0,0,12,2020-12-17_17h50.31.224,premup-three_ses-02_part-03_label-phase3,3.2.4,Win32,60
1,left,1.100999832,,,0,,,0,,,1,0,200,137,1,199,0,2,0,2,stim/objects/Instruments/frenchhorn3.png,,0,stim/0.png,0,0,12,2020-12-17_17h50.31.224,premup-three_ses-02_part-03_label-phase3,3.2.4,Win32,60
1,left,1.399999857,4,0.523999929,0,2,2.308999777,0,3,1.432999849,1,0,200,64,1,199,3,1,0.1,1,stim/objects/HouseObjects/glass2.png,stim/31.jpeg,3,stim/3.png,1,1,12,2020-12-17_17h50.31.224,premup-three_ses-02_part-03_label-phase3,3.2.4,Win32,60
1,right,3.852999926,,,0,,,0,,,1,0,200,181,1,199,0,1,0,2,stim/objects/HouseObjects/bottle4.png,,0,stim/0.png,0,0,12,2020-12-17_17h50.31.224,premup-three_ses-02_part-03_label-phase3,3.2.4,Win32,60
1,left,1.004999876,4,10.01099992,0,4,5.212999821,0,1,0.989999771,1,0,200,4,1,199,1,1,0.5,1,stim/objects/HouseObjects/safetypin.png,stim/53.jpeg,5,stim/5.png,3,3,12,2020-12-17_17h50.31.224,premup-three_ses-02_part-03_label-phase3,3.2.4,Win32,60
1,left,5.595999956,2,1.453000069,0,3,0.733999968,0,2,1.694999933,1,0,200,68,1,199,3,1,0.1,1,stim/objects/HouseObjects/handvacuum2.png,stim/31.jpeg,3,stim/3.png,1,2,12,2020-12-17_17h50.31.224,premup-three_ses-02_part-03_label-phase3,3.2.4,Win32,60
1,left,2.552999973,2,1.230999947,0,3,0.832999945,0,4,1.008999825,1,0,200,34,1,199,2,2,0.7,1,stim/objects/Instruments/xylophone.png,stim/12.jpeg,1,stim/1.png,2,3,12,2020-12-17_17h50.31.224,premup-three_ses-02_part-03_label-phase3,3.2.4,Win32,60
1,left,1.115999937,2,0.78399992,0,4,2.75,0,4,2.194000006,1,0,200,92,1,199,3,2,0.1,1,stim/objects/Instruments/timbal2.png,stim/41.jpeg,4,stim/4.png,1,1,12,2020-12-17_17h50.31.224,premup-three_ses-02_part-03_label-phase3,3.2.4,Win32,60
1,right,2.365999937,,,0,,,0,,,1,0,200,101,1,199,0,1,0,2,stim/objects/HouseObjects/ballofstring3.png,,0,stim/0.png,0,0,12,2020-12-17_17h50.31.224,premup-three_ses-02_part-03_label-phase3,3.2.4,Win32,60
1,right,0.850999832,,,0,,,0,,,1,0,200,194,1,199,0,2,0,2,stim/objects/Instruments/cornet4.png,,0,stim/0.png,0,0,12,2020-12-17_17h50.31.224,premup-three_ses-02_part-03_label-phase3,3.2.4,Win32,60
1,right,2.496999741,1,1.302999973,0,2,0.549999952,0,3,0.367000103,1,0,200,79,1,199,3,2,0.9,1,stim/objects/Instruments/saxophone2.png,stim/34.jpeg,3,stim/3.png,4,2,12,2020-12-17_17h50.31.224,premup-three_ses-02_part-03_label-phase3,3.2.4,Win32,60
1,right,2.315999985,,,0,,,0,,,1,0,200,132,1,199,0,2,0,2,stim/objects/Instruments/drums3.png,,0,stim/0.png,0,0,12,2020-12-17_17h50.31.224,premup-three_ses-02_part-03_label-phase3,3.2.4,Win32,60
1,right,0.927999735,,,0,,,0,,,1,0,200,142,1,199,0,1,0,2,stim/objects/HouseObjects/handbrush3.png,,0,stim/0.png,0,0,12,2020-12-17_17h50.31.224,premup-three_ses-02_part-03_label-phase3,3.2.4,Win32,60
1,right,1.133999825,,,0,,,0,,,1,0,200,128,1,199,0,1,0,2,stim/objects/HouseObjects/garbagebin3.png,,0,stim/0.png,0,0,12,2020-12-17_17h50.31.224,premup-three_ses-02_part-03_label-phase3,3.2.4,Win32,60
1,right,1.445999861,3,0.56799984,0,2,0.305999994,0,2,0.381999969,1,0,200,1,1,199,1,1,0.5,1,stim/objects/HouseObjects/hairdryer.png,stim/54.jpeg,5,stim/5.png,4,3,12,2020-12-17_17h50.31.224,premup-three_ses-02_part-03_label-phase3,3.2.4,Win32,60
1,right,1.272999763,,,0,,,0,,,1,0,200,108,1,199,0,1,0,2,stim/objects/HouseObjects/bucket3.png,,0,stim/0.png,0,0,12,2020-12-17_17h50.31.224,premup-three_ses-02_part-03_label-phase3,3.2.4,Win32,60
