id_acc,key_resp_id.keys,key_resp_id.rt,key_resp_conf.keys,key_resp_conf.rt,assoc_acc,key_resp_assoc.keys,key_resp_assoc.rt,loc_acc,key_resp_loc.keys,key_resp_loc.rt,task_innerloop.thisRepN,task_innerloop.thisTrialN,task_innerloop.thisN,task_innerloop.thisIndex,task_innerloop.ran,task_innerloop.order,context_type,object_cat,PE_level,OvsN,obj_file,scn_file,corr_scn_cat,assoc_file,corr_scn_inst,corr_loc,participant,date,expName,psychopyVersion,OS,frameRate
1,left,2.671999931,3,2.200999975,0,4,6.001999855,0,3,2.745999813,1,0,200,47,1,199,2,1,0.7,1,stim/objects/Instruments/drums4.png,stim/43.jpeg,4,stim/4.png,3,4,13,2020-11-30_13h51.20.935,premup-three_ses-02_part-03_label-phase3,3.2.4,Win32,60
1,right,3.078999996,,,0,,,0,,,1,0,200,134,1,199,0,2,0,2,stim/objects/HouseObjects/dishsoap.png,,0,stim/0.png,0,0,13,2020-11-30_13h51.20.935,premup-three_ses-02_part-03_label-phase3,3.2.4,Win32,60
1,left,5.875,,,0,,,0,,,1,0,200,143,1,199,0,1,0,2,stim/objects/Instruments/hihat.png,,0,stim/0.png,0,0,13,2020-11-30_13h51.20.935,premup-three_ses-02_part-03_label-phase3,3.2.4,Win32,60
1,right,1.463999987,,,0,,,0,,,1,0,200,149,1,199,0,1,0,2,stim/objects/Instruments/musicsheet.png,,0,stim/0.png,0,0,13,2020-11-30_13h51.20.935,premup-three_ses-02_part-03_label-phase3,3.2.4,Win32,60
1,left,1.939999819,,,0,,,0,,,1,0,200,120,1,199,0,1,0,2,stim/objects/Instruments/cymbal.png,,0,stim/0.png,0,0,13,2020-11-30_13h51.20.935,premup-three_ses-02_part-03_label-phase3,3.2.4,Win32,60
1,left,2.505000114,4,1.277999878,0,4,8.729000092,0,2,3.340000153,1,0,200,17,1,199,1,2,0.5,1,stim/objects/HouseObjects/knife3.png,stim/22.jpeg,2,stim/2.png,2,2,13,2020-11-30_13h51.20.935,premup-three_ses-02_part-03_label-phase3,3.2.4,Win32,60
1,left,1.523999929,,,0,,,0,,,1,0,200,184,1,199,0,1,0,2,stim/objects/Instruments/cornet2.png,,0,stim/0.png,0,0,13,2020-11-30_13h51.20.935,premup-three_ses-02_part-03_label-phase3,3.2.4,Win32,60
1,left,1.798000097,,,0,,,0,,,1,0,200,180,1,199,0,1,0,2,stim/objects/Instruments/bassguitar2.png,,0,stim/0.png,0,0,13,2020-11-30_13h51.20.935,premup-three_ses-02_part-03_label-phase3,3.2.4,Win32,60
1,left,41.32599998,,,0,,,0,,,1,0,200,146,1,199,0,1,0,2,stim/objects/Instruments/maraca.png,,0,stim/0.png,0,0,13,2020-11-30_13h51.20.935,premup-three_ses-02_part-03_label-phase3,3.2.4,Win32,60
1,right,2.28000021,3,10.18199992,0,3,5.157000065,0,1,5.345000029,1,0,200,11,1,199,1,2,0.5,1,stim/objects/Instruments/maraca3.png,stim/22.jpeg,2,stim/2.png,2,3,13,2020-11-30_13h51.20.935,premup-three_ses-02_part-03_label-phase3,3.2.4,Win32,60
1,left,1.568000078,4,1.390000105,0,4,4.176000118,0,2,2.720999956,1,0,200,40,1,199,2,1,0.7,1,stim/objects/Instruments/bassguitar4.png,stim/44.jpeg,4,stim/4.png,4,1,13,2020-11-30_13h51.20.935,premup-three_ses-02_part-03_label-phase3,3.2.4,Win32,60
1,right,1.600000143,2,1.617000103,0,3,6.387000084,0,1,4.604000092,1,0,200,69,1,199,3,1,0.1,1,stim/objects/Instruments/keyboard4.png,stim/52.jpeg,5,stim/5.png,2,4,13,2020-11-30_13h51.20.935,premup-three_ses-02_part-03_label-phase3,3.2.4,Win32,60
1,right,1.430999994,2,2.129999876,0,3,3.359999895,0,4,3.127000093,1,0,200,39,1,199,2,2,0.7,1,stim/objects/HouseObjects/bleachbottle4.png,stim/33.jpeg,3,stim/3.png,3,2,13,2020-11-30_13h51.20.935,premup-three_ses-02_part-03_label-phase3,3.2.4,Win32,60
1,left,1.316999912,,,0,,,0,,,1,0,200,133,1,199,0,2,0,2,stim/objects/HouseObjects/cushion.png,,0,stim/0.png,0,0,13,2020-11-30_13h51.20.935,premup-three_ses-02_part-03_label-phase3,3.2.4,Win32,60
1,left,1.008000135,4,0.829999924,0,3,5.40899992,0,4,3.284999847,1,0,200,93,1,199,3,2,0.1,1,stim/objects/HouseObjects/lintroller4.png,stim/62.jpeg,6,stim/6.png,2,4,13,2020-11-30_13h51.20.935,premup-three_ses-02_part-03_label-phase3,3.2.4,Win32,60
1,right,1.400000095,,,0,,,0,,,1,0,200,151,1,199,0,2,0,2,stim/objects/HouseObjects/hairdryer.png,,0,stim/0.png,0,0,13,2020-11-30_13h51.20.935,premup-three_ses-02_part-03_label-phase3,3.2.4,Win32,60
1,right,1.881000042,2,16.4059999,0,4,3.013000011,0,3,2.63499999,1,0,200,77,1,199,3,2,0.9,1,stim/objects/HouseObjects/handbrush4.png,stim/52.jpeg,5,stim/5.png,2,1,13,2020-11-30_13h51.20.935,premup-three_ses-02_part-03_label-phase3,3.2.4,Win32,60
1,right,1.065999985,,,0,,,0,,,1,0,200,105,1,199,0,1,0,2,stim/objects/Instruments/bassguitar.png,,0,stim/0.png,0,0,13,2020-11-30_13h51.20.935,premup-three_ses-02_part-03_label-phase3,3.2.4,Win32,60
1,right,1.354000092,1,2.224999905,0,3,11.51900005,0,3,2.361999989,1,0,200,41,1,199,2,1,0.7,1,stim/objects/Instruments/cello4.png,stim/41.jpeg,4,stim/4.png,1,1,13,2020-11-30_13h51.20.935,premup-three_ses-02_part-03_label-phase3,3.2.4,Win32,60
1,left,2.001000166,,,0,,,0,,,1,0,200,131,1,199,0,2,0,2,stim/objects/HouseObjects/clothespin.png,,0,stim/0.png,0,0,13,2020-11-30_13h51.20.935,premup-three_ses-02_part-03_label-phase3,3.2.4,Win32,60
1,left,1.292000055,4,0.796999931,0,2,3.266000032,0,1,2.968999863,1,0,200,98,1,199,3,2,0.1,1,stim/objects/HouseObjects/vacuumcleaner4.png,stim/63.jpeg,6,stim/6.png,3,4,13,2020-11-30_13h51.20.935,premup-three_ses-02_part-03_label-phase3,3.2.4,Win32,60
1,right,1.621000051,2,1.088999987,0,4,22.08599997,0,2,2.611999989,1,0,200,59,1,199,2,2,0.3,1,stim/objects/HouseObjects/dishsoap4.png,stim/43.jpeg,4,stim/4.png,3,1,13,2020-11-30_13h51.20.935,premup-three_ses-02_part-03_label-phase3,3.2.4,Win32,60
1,right,1.319000006,,,0,,,0,,,1,0,200,190,1,199,0,2,0,2,stim/objects/HouseObjects/blender2.png,,0,stim/0.png,0,0,13,2020-11-30_13h51.20.935,premup-three_ses-02_part-03_label-phase3,3.2.4,Win32,60
1,right,1.365999937,2,2.232000113,0,3,2.264999866,0,1,1.437999964,1,0,200,61,1,199,3,1,0.1,1,stim/objects/Instruments/flutetrans4.png,stim/52.jpeg,5,stim/5.png,2,4,13,2020-11-30_13h51.20.935,premup-three_ses-02_part-03_label-phase3,3.2.4,Win32,60
1,left,1.788000107,,,0,,,0,,,1,0,200,125,1,199,0,1,0,2,stim/objects/Instruments/flute.png,,0,stim/0.png,0,0,13,2020-11-30_13h51.20.935,premup-three_ses-02_part-03_label-phase3,3.2.4,Win32,60
1,left,1,,,0,,,0,,,1,0,200,136,1,199,0,2,0,2,stim/objects/HouseObjects/dustpan.png,,0,stim/0.png,0,0,13,2020-11-30_13h51.20.935,premup-three_ses-02_part-03_label-phase3,3.2.4,Win32,60
1,left,1.090000153,,,0,,,0,,,1,0,200,117,1,199,0,2,0,2,stim/objects/HouseObjects/broom.png,,0,stim/0.png,0,0,13,2020-11-30_13h51.20.935,premup-three_ses-02_part-03_label-phase3,3.2.4,Win32,60
1,right,1.429000139,2,24.81399989,0,2,1.648999929,0,3,2.201000214,1,0,200,63,1,199,3,1,0.1,1,stim/objects/Instruments/gong4.png,stim/54.jpeg,5,stim/5.png,4,2,13,2020-11-30_13h51.20.935,premup-three_ses-02_part-03_label-phase3,3.2.4,Win32,60
1,left,13.94400001,4,1.345999956,0,3,4.119000196,0,1,1.652999878,1,0,200,68,1,199,3,1,0.1,1,stim/objects/Instruments/hihat4.png,stim/51.jpeg,5,stim/5.png,1,2,13,2020-11-30_13h51.20.935,premup-three_ses-02_part-03_label-phase3,3.2.4,Win32,60
1,right,1.95600009,,,0,,,0,,,1,0,200,115,1,199,0,2,0,2,stim/objects/HouseObjects/blender.png,,0,stim/0.png,0,0,13,2020-11-30_13h51.20.935,premup-three_ses-02_part-03_label-phase3,3.2.4,Win32,60
1,left,1.123000145,4,0.697999954,0,1,1.80099988,0,4,1.809000015,1,0,200,23,1,199,2,1,0.3,1,stim/objects/Instruments/vuvuzela3.png,stim/34.jpeg,3,stim/3.png,4,4,13,2020-11-30_13h51.20.935,premup-three_ses-02_part-03_label-phase3,3.2.4,Win32,60
1,right,1.334000111,,,0,,,0,,,1,0,200,121,1,199,0,1,0,2,stim/objects/Instruments/doublebass.png,,0,stim/0.png,0,0,13,2020-11-30_13h51.20.935,premup-three_ses-02_part-03_label-phase3,3.2.4,Win32,60
1,left,1.328999996,,,0,,,0,,,1,0,200,162,1,199,0,1,0,2,stim/objects/Instruments/violin.png,,0,stim/0.png,0,0,13,2020-11-30_13h51.20.935,premup-three_ses-02_part-03_label-phase3,3.2.4,Win32,60
1,left,1.145999908,4,1.078999996,0,3,2.249000072,0,3,2.118000031,1,0,200,34,1,199,2,2,0.7,1,stim/objects/HouseObjects/wateringcan3.png,stim/32.jpeg,3,stim/3.png,2,3,13,2020-11-30_13h51.20.935,premup-three_ses-02_part-03_label-phase3,3.2.4,Win32,60
1,right,2.118999958,1,1.080000162,0,2,4.179000139,0,2,2.0400002,1,0,200,73,1,199,3,2,0.9,1,stim/objects/HouseObjects/garbagebin4.png,stim/52.jpeg,5,stim/5.png,2,1,13,2020-11-30_13h51.20.935,premup-three_ses-02_part-03_label-phase3,3.2.4,Win32,60
1,right,1.069000006,,,0,,,0,,,1,0,200,171,1,199,0,2,0,2,stim/objects/HouseObjects/pitcher.png,,0,stim/0.png,0,0,13,2020-11-30_13h51.20.935,premup-three_ses-02_part-03_label-phase3,3.2.4,Win32,60
1,left,1.119999886,,,0,,,0,,,1,0,200,183,1,199,0,1,0,2,stim/objects/Instruments/clarinet2.png,,0,stim/0.png,0,0,13,2020-11-30_13h51.20.935,premup-three_ses-02_part-03_label-phase3,3.2.4,Win32,60
1,right,0.974000216,,,0,,,0,,,1,0,200,130,1,199,0,2,0,2,stim/objects/HouseObjects/clothesdryingrack.png,,0,stim/0.png,0,0,13,2020-11-30_13h51.20.935,premup-three_ses-02_part-03_label-phase3,3.2.4,Win32,60
1,left,0.844000101,,,0,,,0,,,1,0,200,167,1,199,0,1,0,2,stim/objects/Instruments/balalaika2.png,,0,stim/0.png,0,0,13,2020-11-30_13h51.20.935,premup-three_ses-02_part-03_label-phase3,3.2.4,Win32,60
1,left,2.181999922,4,0.700999975,0,4,1.964999914,0,1,2.233999968,1,0,200,51,1,199,2,2,0.3,1,stim/objects/HouseObjects/bottle4.png,stim/43.jpeg,4,stim/4.png,3,3,13,2020-11-30_13h51.20.935,premup-three_ses-02_part-03_label-phase3,3.2.4,Win32,60
1,left,1.27699995,,,0,,,0,,,1,0,200,194,1,199,0,2,0,2,stim/objects/HouseObjects/clock2.png,,0,stim/0.png,0,0,13,2020-11-30_13h51.20.935,premup-three_ses-02_part-03_label-phase3,3.2.4,Win32,60
1,left,1.062000036,3,1.04700017,0,2,1.773000002,0,1,1.247999907,1,0,200,97,1,199,3,2,0.1,1,stim/objects/HouseObjects/towel4.png,stim/62.jpeg,6,stim/6.png,2,2,13,2020-11-30_13h51.20.935,premup-three_ses-02_part-03_label-phase3,3.2.4,Win32,60
1,right,1.376999855,2,1.661999941,0,4,14.71300006,0,1,2.432999849,1,0,200,20,1,199,2,1,0.3,1,stim/objects/Instruments/musicstand3.png,stim/31.jpeg,3,stim/3.png,1,2,13,2020-11-30_13h51.20.935,premup-three_ses-02_part-03_label-phase3,3.2.4,Win32,60
1,left,1.359999895,4,0.628000021,0,1,2.246999979,0,3,1.571000099,1,0,200,32,1,199,2,2,0.7,1,stim/objects/HouseObjects/towel3.png,stim/34.jpeg,3,stim/3.png,4,2,13,2020-11-30_13h51.20.935,premup-three_ses-02_part-03_label-phase3,3.2.4,Win32,60
1,left,1.032999992,,,0,,,0,,,1,0,200,156,1,199,0,2,0,2,stim/objects/HouseObjects/key.png,,0,stim/0.png,0,0,13,2020-11-30_13h51.20.935,premup-three_ses-02_part-03_label-phase3,3.2.4,Win32,60
1,left,2.413000107,4,0.743000031,0,4,0.746000051,0,2,1.680000067,1,0,200,4,1,199,1,1,0.5,1,stim/objects/Instruments/keyboard3.png,stim/13.jpeg,1,stim/1.png,3,2,13,2020-11-30_13h51.20.935,premup-three_ses-02_part-03_label-phase3,3.2.4,Win32,60
1,left,1.171999931,4,0.957000017,0,2,3.538999796,0,3,1.507999897,1,0,200,65,1,199,3,1,0.1,1,stim/objects/Instruments/guitarcase4.png,stim/52.jpeg,5,stim/5.png,2,2,13,2020-11-30_13h51.20.935,premup-three_ses-02_part-03_label-phase3,3.2.4,Win32,60
1,left,1.092000008,4,0.538000107,0,3,2.431999922,0,2,1.661999941,1,0,200,35,1,199,2,2,0.7,1,stim/objects/HouseObjects/ashtray4.png,stim/33.jpeg,3,stim/3.png,3,1,13,2020-11-30_13h51.20.935,premup-three_ses-02_part-03_label-phase3,3.2.4,Win32,60
1,right,0.823999882,2,1.347000122,0,1,1.363000154,0,3,0.378000021,1,0,200,96,1,199,3,2,0.1,1,stim/objects/HouseObjects/pitcher4.png,stim/61.jpeg,6,stim/6.png,1,4,13,2020-11-30_13h51.20.935,premup-three_ses-02_part-03_label-phase3,3.2.4,Win32,60
1,left,3.817000151,,,0,,,0,,,1,0,200,166,1,199,0,1,0,2,stim/objects/Instruments/acousticguitar2.png,,0,stim/0.png,0,0,13,2020-11-30_13h51.20.935,premup-three_ses-02_part-03_label-phase3,3.2.4,Win32,60
1,left,1.554999828,,,0,,,0,,,1,0,200,139,1,199,0,2,0,2,stim/objects/HouseObjects/glass.png,,0,stim/0.png,0,0,13,2020-11-30_13h51.20.935,premup-three_ses-02_part-03_label-phase3,3.2.4,Win32,60
1,right,0.919000149,,,0,,,0,,,1,0,200,157,1,199,0,2,0,2,stim/objects/HouseObjects/knife.png,,0,stim/0.png,0,0,13,2020-11-30_13h51.20.935,premup-three_ses-02_part-03_label-phase3,3.2.4,Win32,60
1,right,1.144999981,,,0,,,0,,,1,0,200,192,1,199,0,2,0,2,stim/objects/HouseObjects/broom2.png,,0,stim/0.png,0,0,13,2020-11-30_13h51.20.935,premup-three_ses-02_part-03_label-phase3,3.2.4,Win32,60
1,right,1.414999962,,,0,,,0,,,1,0,200,135,1,199,0,2,0,2,stim/objects/HouseObjects/doormat.png,,0,stim/0.png,0,0,13,2020-11-30_13h51.20.935,premup-three_ses-02_part-03_label-phase3,3.2.4,Win32,60
1,left,0.786000013,,,0,,,0,,,1,0,200,132,1,199,0,2,0,2,stim/objects/HouseObjects/coffee.png,,0,stim/0.png,0,0,13,2020-11-30_13h51.20.935,premup-three_ses-02_part-03_label-phase3,3.2.4,Win32,60
1,left,2.813999891,4,0.565999985,0,4,1.281000137,0,2,0.84100008,1,0,200,5,1,199,1,1,0.5,1,stim/objects/HouseObjects/glassmop3.png,stim/12.jpeg,1,stim/1.png,2,4,13,2020-11-30_13h51.20.935,premup-three_ses-02_part-03_label-phase3,3.2.4,Win32,60
1,left,3.993000031,,,0,,,0,,,1,0,200,160,1,199,0,1,0,2,stim/objects/Instruments/musicstand.png,,0,stim/0.png,0,0,13,2020-11-30_13h51.20.935,premup-three_ses-02_part-03_label-phase3,3.2.4,Win32,60
1,right,0.987000227,,,0,,,0,,,1,0,200,144,1,199,0,1,0,2,stim/objects/Instruments/keyboard.png,,0,stim/0.png,0,0,13,2020-11-30_13h51.20.935,premup-three_ses-02_part-03_label-phase3,3.2.4,Win32,60
1,right,1.235999823,2,0.933000088,0,4,2.896999836,0,3,1.385999918,1,0,200,48,1,199,2,1,0.7,1,stim/objects/Instruments/electricdrumset4.png,stim/44.jpeg,4,stim/4.png,4,3,13,2020-11-30_13h51.20.935,premup-three_ses-02_part-03_label-phase3,3.2.4,Win32,60
1,right,11.546,3,1.496000051,0,3,0.757999897,0,1,0.776000023,1,0,200,31,1,199,2,2,0.7,1,stim/objects/HouseObjects/pitcher3.png,stim/33.jpeg,3,stim/3.png,3,2,13,2020-11-30_13h51.20.935,premup-three_ses-02_part-03_label-phase3,3.2.4,Win32,60
1,left,2.40899992,,,0,,,0,,,1,0,200,108,1,199,0,1,0,2,stim/objects/Instruments/clarinet.png,,0,stim/0.png,0,0,13,2020-11-30_13h51.20.935,premup-three_ses-02_part-03_label-phase3,3.2.4,Win32,60
1,right,1.036999941,2,0.75,0,2,0.181999922,0,3,0.970000029,1,0,200,3,1,199,1,1,0.5,1,stim/objects/Instruments/hihat3.png,stim/12.jpeg,1,stim/1.png,2,3,13,2020-11-30_13h51.20.935,premup-three_ses-02_part-03_label-phase3,3.2.4,Win32,60
1,right,54.05900002,3,1.674999952,0,3,1.154999971,0,2,0.904999971,1,0,200,99,1,199,3,2,0.1,1,stim/objects/HouseObjects/wateringcan4.png,stim/64.jpeg,6,stim/6.png,4,2,13,2020-11-30_13h51.20.935,premup-three_ses-02_part-03_label-phase3,3.2.4,Win32,60
1,left,0.927000046,4,0.651000023,0,2,0.743000031,0,4,0.965000153,1,0,200,86,1,199,3,1,0.9,1,stim/objects/Instruments/oboe4.png,stim/63.jpeg,6,stim/6.png,3,1,13,2020-11-30_13h51.20.935,premup-three_ses-02_part-03_label-phase3,3.2.4,Win32,60
1,right,0.927000046,,,0,,,0,,,1,0,200,179,1,199,0,2,0,2,stim/objects/HouseObjects/bleachbottle2.png,,0,stim/0.png,0,0,13,2020-11-30_13h51.20.935,premup-three_ses-02_part-03_label-phase3,3.2.4,Win32,60
1,right,0.825000048,,,0,,,0,,,1,0,200,150,1,199,0,2,0,2,stim/objects/HouseObjects/glassmop.png,,0,stim/0.png,0,0,13,2020-11-30_13h51.20.935,premup-three_ses-02_part-03_label-phase3,3.2.4,Win32,60
1,right,0.796000004,,,0,,,0,,,1,0,200,126,1,199,0,1,0,2,stim/objects/Instruments/flutetrans.png,,0,stim/0.png,0,0,13,2020-11-30_13h51.20.935,premup-three_ses-02_part-03_label-phase3,3.2.4,Win32,60
1,left,1.242000103,,,0,,,0,,,1,0,200,191,1,199,0,2,0,2,stim/objects/HouseObjects/bottle2.png,,0,stim/0.png,0,0,13,2020-11-30_13h51.20.935,premup-three_ses-02_part-03_label-phase3,3.2.4,Win32,60
1,left,2.992000103,3,1.22300005,0,1,1.579999924,0,3,1.970999956,1,0,200,92,1,199,3,2,0.1,1,stim/objects/HouseObjects/knife4.png,stim/61.jpeg,6,stim/6.png,1,3,13,2020-11-30_13h51.20.935,premup-three_ses-02_part-03_label-phase3,3.2.4,Win32,60
1,left,1.176000118,,,0,,,0,,,1,0,200,186,1,199,0,1,0,2,stim/objects/Instruments/doublebass2.png,,0,stim/0.png,0,0,13,2020-11-30_13h51.20.935,premup-three_ses-02_part-03_label-phase3,3.2.4,Win32,60
1,left,0.944000006,4,0.537999868,0,4,1.340999842,0,2,1.899000168,1,0,200,87,1,199,3,1,0.9,1,stim/objects/Instruments/violin4.png,stim/64.jpeg,6,stim/6.png,4,3,13,2020-11-30_13h51.20.935,premup-three_ses-02_part-03_label-phase3,3.2.4,Win32,60
1,right,1.758999825,2,0.998999834,0,1,1.392999887,0,2,0.944000006,1,0,200,26,1,199,2,1,0.3,1,stim/objects/Instruments/acousticguitar4.png,stim/33.jpeg,3,stim/3.png,3,3,13,2020-11-30_13h51.20.935,premup-three_ses-02_part-03_label-phase3,3.2.4,Win32,60
1,left,1.434000015,3,0.957000017,0,1,2.075000048,0,4,1.236999989,1,0,200,10,1,199,1,2,0.5,1,stim/objects/Instruments/laud3.png,stim/21.jpeg,2,stim/2.png,1,1,13,2020-11-30_13h51.20.935,premup-three_ses-02_part-03_label-phase3,3.2.4,Win32,60
1,right,1.438999891,2,0.953000069,0,1,0.605999947,0,2,0.698000193,1,0,200,24,1,199,2,1,0.3,1,stim/objects/Instruments/xylophone3.png,stim/31.jpeg,3,stim/3.png,1,3,13,2020-11-30_13h51.20.935,premup-three_ses-02_part-03_label-phase3,3.2.4,Win32,60
1,right,1.06099987,2,1.105000019,0,1,0.601999998,0,4,0.771000147,1,0,200,90,1,199,3,2,0.1,1,stim/objects/HouseObjects/ironingboard4.png,stim/63.jpeg,6,stim/6.png,3,4,13,2020-11-30_13h51.20.935,premup-three_ses-02_part-03_label-phase3,3.2.4,Win32,60
1,left,1.710000038,4,0.503999949,0,3,1.280999899,0,2,1.397000074,1,0,200,8,1,199,1,1,0.5,1,stim/objects/HouseObjects/handvacuum3.png,stim/11.jpeg,1,stim/1.png,1,4,13,2020-11-30_13h51.20.935,premup-three_ses-02_part-03_label-phase3,3.2.4,Win32,60
1,left,1.98300004,4,0.459000111,0,3,1.30700016,0,3,0.97300005,1,0,200,0,1,199,1,1,0.5,1,stim/objects/Instruments/guitarcase3.png,stim/13.jpeg,1,stim/1.png,3,1,13,2020-11-30_13h51.20.935,premup-three_ses-02_part-03_label-phase3,3.2.4,Win32,60
1,left,1.068000078,4,0.513000011,0,2,2.06799984,0,4,1.744999886,1,0,200,62,1,199,3,1,0.1,1,stim/objects/Instruments/frenchhorn4.png,stim/53.jpeg,5,stim/5.png,3,4,13,2020-11-30_13h51.20.935,premup-three_ses-02_part-03_label-phase3,3.2.4,Win32,60
1,left,0.875999928,,,0,,,0,,,1,0,200,102,1,199,0,1,0,2,stim/objects/Instruments/balalaika.png,,0,stim/0.png,0,0,13,2020-11-30_13h51.20.935,premup-three_ses-02_part-03_label-phase3,3.2.4,Win32,60
1,left,1.373000145,4,0.598999977,0,1,4.299999952,0,2,1.144999981,1,0,200,89,1,199,3,1,0.9,1,stim/objects/Instruments/xylophone4.png,stim/62.jpeg,6,stim/6.png,2,4,13,2020-11-30_13h51.20.935,premup-three_ses-02_part-03_label-phase3,3.2.4,Win32,60
1,right,1.046000004,2,0.987999916,0,2,0.697999954,0,3,1.980000019,1,0,200,6,1,199,1,1,0.5,1,stim/objects/HouseObjects/hairdryer3.png,stim/13.jpeg,1,stim/1.png,3,1,13,2020-11-30_13h51.20.935,premup-three_ses-02_part-03_label-phase3,3.2.4,Win32,60
1,left,6.462999821,,,0,,,0,,,1,0,200,168,1,199,0,1,0,2,stim/objects/Instruments/banjo2.png,,0,stim/0.png,0,0,13,2020-11-30_13h51.20.935,premup-three_ses-02_part-03_label-phase3,3.2.4,Win32,60
1,right,1.565000057,,,0,,,0,,,1,0,200,100,1,199,0,1,0,2,stim/objects/Instruments/accordion.png,,0,stim/0.png,0,0,13,2020-11-30_13h51.20.935,premup-three_ses-02_part-03_label-phase3,3.2.4,Win32,60
1,right,1.296000004,2,2.07799983,0,2,0.832999945,0,1,0.986999989,1,0,200,37,1,199,2,2,0.7,1,stim/objects/HouseObjects/barbecuelighter4.png,stim/31.jpeg,3,stim/3.png,1,1,13,2020-11-30_13h51.20.935,premup-three_ses-02_part-03_label-phase3,3.2.4,Win32,60
1,left,6.764000177,,,0,,,0,,,1,0,200,110,1,199,0,2,0,2,stim/objects/HouseObjects/ashtray.png,,0,stim/0.png,0,0,13,2020-11-30_13h51.20.935,premup-three_ses-02_part-03_label-phase3,3.2.4,Win32,60
1,left,0.881000042,4,0.629999876,0,2,3.527000189,0,4,1.862999916,1,0,200,78,1,199,3,2,0.9,1,stim/objects/HouseObjects/handvacuum4.png,stim/53.jpeg,5,stim/5.png,3,3,13,2020-11-30_13h51.20.935,premup-three_ses-02_part-03_label-phase3,3.2.4,Win32,60
1,right,1.15199995,,,0,,,0,,,1,0,200,199,1,199,0,2,0,2,stim/objects/HouseObjects/dishsoap2.png,,0,stim/0.png,0,0,13,2020-11-30_13h51.20.935,premup-three_ses-02_part-03_label-phase3,3.2.4,Win32,60
1,left,0.844000101,4,1.207999945,0,4,1.907999992,0,3,2.643000126,1,0,200,9,1,199,1,1,0.5,1,stim/objects/HouseObjects/iron3.png,stim/12.jpeg,1,stim/1.png,2,2,13,2020-11-30_13h51.20.935,premup-three_ses-02_part-03_label-phase3,3.2.4,Win32,60
1,left,1.126000166,4,0.49000001,0,2,2.195999861,0,1,2.34499979,1,0,200,19,1,199,1,2,0.5,1,stim/objects/HouseObjects/match3.png,stim/24.jpeg,2,stim/2.png,4,3,13,2020-11-30_13h51.20.935,premup-three_ses-02_part-03_label-phase3,3.2.4,Win32,60
1,right,1.800000191,,,0,,,0,,,1,0,200,189,1,199,0,1,0,2,stim/objects/Instruments/electricguitar2.png,,0,stim/0.png,0,0,13,2020-11-30_13h51.20.935,premup-three_ses-02_part-03_label-phase3,3.2.4,Win32,60
1,right,1.128000021,,,0,,,0,,,1,0,200,163,1,199,0,1,0,2,stim/objects/Instruments/vuvuzela.png,,0,stim/0.png,0,0,13,2020-11-30_13h51.20.935,premup-three_ses-02_part-03_label-phase3,3.2.4,Win32,60
1,left,0.960000038,,,0,,,0,,,1,0,200,175,1,199,0,2,0,2,stim/objects/HouseObjects/ashtray2.png,,0,stim/0.png,0,0,13,2020-11-30_13h51.20.935,premup-three_ses-02_part-03_label-phase3,3.2.4,Win32,60
1,right,8.318000078,,,0,,,0,,,1,0,200,164,1,199,0,1,0,2,stim/objects/Instruments/xylophone.png,,0,stim/0.png,0,0,13,2020-11-30_13h51.20.935,premup-three_ses-02_part-03_label-phase3,3.2.4,Win32,60
1,left,1.351999998,4,0.924999952,0,4,2.496999979,0,2,4.163000107,1,0,200,55,1,199,2,2,0.3,1,stim/objects/HouseObjects/clothesdryingrack4.png,stim/43.jpeg,4,stim/4.png,3,2,13,2020-11-30_13h51.20.935,premup-three_ses-02_part-03_label-phase3,3.2.4,Win32,60
1,left,0.930000067,4,0.436999798,0,1,1.572999954,0,3,4.056999922,1,0,200,27,1,199,2,1,0.3,1,stim/objects/Instruments/balalaika4.png,stim/34.jpeg,3,stim/3.png,4,2,13,2020-11-30_13h51.20.935,premup-three_ses-02_part-03_label-phase3,3.2.4,Win32,60
1,right,1.199999809,2,0.912999868,0,2,3.032000065,0,1,1.100000143,1,0,200,84,1,199,3,1,0.9,1,stim/objects/Instruments/musicsheet4.png,stim/61.jpeg,6,stim/6.png,1,1,13,2020-11-30_13h51.20.935,premup-three_ses-02_part-03_label-phase3,3.2.4,Win32,60
1,right,0.928999901,,,0,,,0,,,1,0,200,113,1,199,0,2,0,2,stim/objects/HouseObjects/basket.png,,0,stim/0.png,0,0,13,2020-11-30_13h51.20.935,premup-three_ses-02_part-03_label-phase3,3.2.4,Win32,60
1,right,0.897000074,1,1.079999924,0,2,2.131999969,0,3,0.801000118,1,0,200,50,1,199,2,2,0.3,1,stim/objects/HouseObjects/blender4.png,stim/42.jpeg,4,stim/4.png,2,2,13,2020-11-30_13h51.20.935,premup-three_ses-02_part-03_label-phase3,3.2.4,Win32,60
1,left,1.306999922,4,0.653999805,0,4,1.148999929,0,2,3.453000069,1,0,200,46,1,199,2,1,0.7,1,stim/objects/Instruments/doublebass4.png,stim/42.jpeg,4,stim/4.png,2,4,13,2020-11-30_13h51.20.935,premup-three_ses-02_part-03_label-phase3,3.2.4,Win32,60
1,right,4.653000116,,,0,,,0,,,1,0,200,154,1,199,0,2,0,2,stim/objects/HouseObjects/iron.png,,0,stim/0.png,0,0,13,2020-11-30_13h51.20.935,premup-three_ses-02_part-03_label-phase3,3.2.4,Win32,60
1,right,1.213999987,,,0,,,0,,,1,0,200,174,1,199,0,2,0,2,stim/objects/HouseObjects/wateringcan.png,,0,stim/0.png,0,0,13,2020-11-30_13h51.20.935,premup-three_ses-02_part-03_label-phase3,3.2.4,Win32,60
1,left,0.730999947,,,0,,,0,,,1,0,200,122,1,199,0,1,0,2,stim/objects/Instruments/drums.png,,0,stim/0.png,0,0,13,2020-11-30_13h51.20.935,premup-three_ses-02_part-03_label-phase3,3.2.4,Win32,60
1,left,0.945000172,,,0,,,0,,,1,0,200,158,1,199,0,2,0,2,stim/objects/HouseObjects/lintroller.png,,0,stim/0.png,0,0,13,2020-11-30_13h51.20.935,premup-three_ses-02_part-03_label-phase3,3.2.4,Win32,60
1,right,1.319999933,2,0.802000046,0,2,0.909999847,0,4,2.267000198,1,0,200,36,1,199,2,2,0.7,1,stim/objects/HouseObjects/ballofstring4.png,stim/34.jpeg,3,stim/3.png,4,4,13,2020-11-30_13h51.20.935,premup-three_ses-02_part-03_label-phase3,3.2.4,Win32,60
1,left,7.847000122,4,0.678999901,0,4,4.121999979,0,2,1.782999992,1,0,200,85,1,199,3,1,0.9,1,stim/objects/Instruments/musicstand4.png,stim/62.jpeg,6,stim/6.png,2,2,13,2020-11-30_13h51.20.935,premup-three_ses-02_part-03_label-phase3,3.2.4,Win32,60
1,left,1.582999945,,,0,,,0,,,1,0,200,161,1,199,0,1,0,2,stim/objects/Instruments/oboe.png,,0,stim/0.png,0,0,13,2020-11-30_13h51.20.935,premup-three_ses-02_part-03_label-phase3,3.2.4,Win32,60
1,right,1.17200017,1,1.44900012,0,1,0.784000158,0,2,1.112999916,1,0,200,71,1,199,3,2,0.9,1,stim/objects/HouseObjects/dustpan4.png,stim/54.jpeg,5,stim/5.png,4,2,13,2020-11-30_13h51.20.935,premup-three_ses-02_part-03_label-phase3,3.2.4,Win32,60
1,right,0.916999817,,,0,,,0,,,1,0,200,104,1,199,0,1,0,2,stim/objects/Instruments/bassdrum.png,,0,stim/0.png,0,0,13,2020-11-30_13h51.20.935,premup-three_ses-02_part-03_label-phase3,3.2.4,Win32,60
1,right,0.89199996,2,0.923999786,0,4,1.262999773,0,1,0.947999954,1,0,200,21,1,199,2,1,0.3,1,stim/objects/Instruments/oboe3.png,stim/32.jpeg,3,stim/3.png,2,4,13,2020-11-30_13h51.20.935,premup-three_ses-02_part-03_label-phase3,3.2.4,Win32,60
1,left,0.805000067,,,0,,,0,,,1,0,200,193,1,199,0,2,0,2,stim/objects/HouseObjects/bucket2.png,,0,stim/0.png,0,0,13,2020-11-30_13h51.20.935,premup-three_ses-02_part-03_label-phase3,3.2.4,Win32,60
1,right,5.601999998,,,0,,,0,,,1,0,200,145,1,199,0,1,0,2,stim/objects/Instruments/laud.png,,0,stim/0.png,0,0,13,2020-11-30_13h51.20.935,premup-three_ses-02_part-03_label-phase3,3.2.4,Win32,60
1,left,1.077000141,4,0.572000027,0,1,1.545000076,0,2,1.651000023,1,0,200,44,1,199,2,1,0.7,1,stim/objects/Instruments/cornet4.png,stim/44.jpeg,4,stim/4.png,4,4,13,2020-11-30_13h51.20.935,premup-three_ses-02_part-03_label-phase3,3.2.4,Win32,60
1,right,6.735000134,1,1.302000046,0,2,0.651000023,0,4,0.631000042,1,0,200,22,1,199,2,1,0.3,1,stim/objects/Instruments/violin3.png,stim/33.jpeg,3,stim/3.png,3,1,13,2020-11-30_13h51.20.935,premup-three_ses-02_part-03_label-phase3,3.2.4,Win32,60
1,right,21.61800003,1,1.046000004,0,4,1.056999922,0,4,0.838000059,1,0,200,67,1,199,3,1,0.1,1,stim/objects/Instruments/harp4.png,stim/54.jpeg,5,stim/5.png,4,2,13,2020-11-30_13h51.20.935,premup-three_ses-02_part-03_label-phase3,3.2.4,Win32,60
1,right,0.860999823,,,0,,,0,,,1,0,200,185,1,199,0,1,0,2,stim/objects/Instruments/cymbal2.png,,0,stim/0.png,0,0,13,2020-11-30_13h51.20.935,premup-three_ses-02_part-03_label-phase3,3.2.4,Win32,60
1,right,0.895999908,2,0.835999966,0,2,1.097000122,0,3,0.741000175,1,0,200,88,1,199,3,1,0.9,1,stim/objects/Instruments/vuvuzela4.png,stim/61.jpeg,6,stim/6.png,1,4,13,2020-11-30_13h51.20.935,premup-three_ses-02_part-03_label-phase3,3.2.4,Win32,60
1,right,0.781999826,2,0.802999973,0,1,0.66899991,0,4,0.578000069,1,0,200,54,1,199,2,2,0.3,1,stim/objects/HouseObjects/clock4.png,stim/42.jpeg,4,stim/4.png,2,2,13,2020-11-30_13h51.20.935,premup-three_ses-02_part-03_label-phase3,3.2.4,Win32,60
1,right,2.386999846,,,0,,,0,,,1,0,200,147,1,199,0,1,0,2,stim/objects/Instruments/marimba.png,,0,stim/0.png,0,0,13,2020-11-30_13h51.20.935,premup-three_ses-02_part-03_label-phase3,3.2.4,Win32,60
1,right,2.652999878,1,0.967000008,0,4,1.000999928,0,2,0.561000109,1,0,200,42,1,199,2,1,0.7,1,stim/objects/Instruments/chime4.png,stim/42.jpeg,4,stim/4.png,2,4,13,2020-11-30_13h51.20.935,premup-three_ses-02_part-03_label-phase3,3.2.4,Win32,60
1,left,0.763999939,4,0.513999939,0,1,1.659999847,0,2,3.787999868,1,0,200,16,1,199,1,2,0.5,1,stim/objects/HouseObjects/key3.png,stim/21.jpeg,2,stim/2.png,1,4,13,2020-11-30_13h51.20.935,premup-three_ses-02_part-03_label-phase3,3.2.4,Win32,60
1,left,1.413000107,,,0,,,0,,,1,0,200,177,1,199,0,2,0,2,stim/objects/HouseObjects/barbecuelighter2.png,,0,stim/0.png,0,0,13,2020-11-30_13h51.20.935,premup-three_ses-02_part-03_label-phase3,3.2.4,Win32,60
1,right,3.403000116,,,0,,,0,,,1,0,200,116,1,199,0,2,0,2,stim/objects/HouseObjects/bottle.png,,0,stim/0.png,0,0,13,2020-11-30_13h51.20.935,premup-three_ses-02_part-03_label-phase3,3.2.4,Win32,60
1,right,0.901000023,,,0,,,0,,,1,0,200,129,1,199,0,1,0,2,stim/objects/Instruments/grandpiano.png,,0,stim/0.png,0,0,13,2020-11-30_13h51.20.935,premup-three_ses-02_part-03_label-phase3,3.2.4,Win32,60
1,left,1.56400013,3,1.246000051,0,3,1.52699995,0,4,1.917999983,1,0,200,53,1,199,2,2,0.3,1,stim/objects/HouseObjects/bucket4.png,stim/41.jpeg,4,stim/4.png,1,1,13,2020-11-30_13h51.20.935,premup-three_ses-02_part-03_label-phase3,3.2.4,Win32,60
1,right,1.117000103,,,0,,,0,,,1,0,200,103,1,199,0,1,0,2,stim/objects/Instruments/banjo.png,,0,stim/0.png,0,0,13,2020-11-30_13h51.20.935,premup-three_ses-02_part-03_label-phase3,3.2.4,Win32,60
1,right,1.066999912,1,0.924000025,0,2,0.768999815,0,4,0.713999987,1,0,200,25,1,199,2,1,0.3,1,stim/objects/Instruments/accordion4.png,stim/32.jpeg,3,stim/3.png,2,4,13,2020-11-30_13h51.20.935,premup-three_ses-02_part-03_label-phase3,3.2.4,Win32,60
1,left,1.590999842,4,0.740999937,0,1,1.312000036,0,3,2.05700016,1,0,200,75,1,199,3,2,0.9,1,stim/objects/HouseObjects/glassmop4.png,stim/54.jpeg,5,stim/5.png,4,3,13,2020-11-30_13h51.20.935,premup-three_ses-02_part-03_label-phase3,3.2.4,Win32,60
1,left,1.402999878,,,0,,,0,,,1,0,200,127,1,199,0,1,0,2,stim/objects/Instruments/frenchhorn.png,,0,stim/0.png,0,0,13,2020-11-30_13h51.20.935,premup-three_ses-02_part-03_label-phase3,3.2.4,Win32,60
1,left,1.049000025,,,0,,,0,,,1,0,200,111,1,199,0,2,0,2,stim/objects/HouseObjects/ballofstring.png,,0,stim/0.png,0,0,13,2020-11-30_13h51.20.935,premup-three_ses-02_part-03_label-phase3,3.2.4,Win32,60
1,left,1.036999941,,,0,,,0,,,1,0,200,155,1,199,0,2,0,2,stim/objects/HouseObjects/ironingboard.png,,0,stim/0.png,0,0,13,2020-11-30_13h51.20.935,premup-three_ses-02_part-03_label-phase3,3.2.4,Win32,60
1,right,1.236000061,,,0,,,0,,,1,0,200,128,1,199,0,1,0,2,stim/objects/Instruments/gong.png,,0,stim/0.png,0,0,13,2020-11-30_13h51.20.935,premup-three_ses-02_part-03_label-phase3,3.2.4,Win32,60
1,right,1.061999798,,,0,,,0,,,1,0,200,123,1,199,0,1,0,2,stim/objects/Instruments/electricdrumset.png,,0,stim/0.png,0,0,13,2020-11-30_13h51.20.935,premup-three_ses-02_part-03_label-phase3,3.2.4,Win32,60
1,left,1.092999935,,,0,,,0,,,1,0,200,137,1,199,0,2,0,2,stim/objects/HouseObjects/flyswatter.png,,0,stim/0.png,0,0,13,2020-11-30_13h51.20.935,premup-three_ses-02_part-03_label-phase3,3.2.4,Win32,60
1,right,5.856000185,,,0,,,0,,,1,0,200,141,1,199,0,1,0,2,stim/objects/Instruments/harmonica.png,,0,stim/0.png,0,0,13,2020-11-30_13h51.20.935,premup-three_ses-02_part-03_label-phase3,3.2.4,Win32,60
1,left,0.941999912,4,0.493999958,0,3,1.043000221,0,1,1.489000082,1,0,200,13,1,199,1,2,0.5,1,stim/objects/Instruments/metronome3.png,stim/24.jpeg,2,stim/2.png,4,2,13,2020-11-30_13h51.20.935,premup-three_ses-02_part-03_label-phase3,3.2.4,Win32,60
1,right,0.869999886,,,0,,,0,,,1,0,200,165,1,199,0,1,0,2,stim/objects/Instruments/accordion2.png,,0,stim/0.png,0,0,13,2020-11-30_13h51.20.935,premup-three_ses-02_part-03_label-phase3,3.2.4,Win32,60
1,left,4.018999815,4,0.437999964,0,4,0.671999931,0,1,0.620000124,1,0,200,7,1,199,1,1,0.5,1,stim/objects/HouseObjects/handbrush3.png,stim/14.jpeg,1,stim/1.png,4,2,13,2020-11-30_13h51.20.935,premup-three_ses-02_part-03_label-phase3,3.2.4,Win32,60
1,left,1.221000195,,,0,,,0,,,1,0,200,172,1,199,0,2,0,2,stim/objects/HouseObjects/towel.png,,0,stim/0.png,0,0,13,2020-11-30_13h51.20.935,premup-three_ses-02_part-03_label-phase3,3.2.4,Win32,60
1,right,1.321000099,2,1.687000036,0,3,1.473999977,0,1,0.549000025,1,0,200,57,1,199,2,2,0.3,1,stim/objects/HouseObjects/coffee4.png,stim/41.jpeg,4,stim/4.png,1,3,13,2020-11-30_13h51.20.935,premup-three_ses-02_part-03_label-phase3,3.2.4,Win32,60
1,left,1.342000008,,,0,,,0,,,1,0,200,198,1,199,0,2,0,2,stim/objects/HouseObjects/cushion2.png,,0,stim/0.png,0,0,13,2020-11-30_13h51.20.935,premup-three_ses-02_part-03_label-phase3,3.2.4,Win32,60
1,right,1.205999851,1,0.883999825,0,3,0.416999817,0,4,0.198000193,1,0,200,76,1,199,3,2,0.9,1,stim/objects/HouseObjects/hairdryer4.png,stim/51.jpeg,5,stim/5.png,1,4,13,2020-11-30_13h51.20.935,premup-three_ses-02_part-03_label-phase3,3.2.4,Win32,60
1,right,0.83100009,1,0.845999956,0,4,0.424000025,0,1,1.087000132,1,0,200,60,1,199,3,1,0.1,1,stim/objects/Instruments/flute4.png,stim/51.jpeg,5,stim/5.png,1,3,13,2020-11-30_13h51.20.935,premup-three_ses-02_part-03_label-phase3,3.2.4,Win32,60
1,right,31.64400005,2,4.9599998,0,1,0.757999897,0,4,0.757999897,1,0,200,91,1,199,3,2,0.1,1,stim/objects/HouseObjects/key4.png,stim/64.jpeg,6,stim/6.png,4,4,13,2020-11-30_13h51.20.935,premup-three_ses-02_part-03_label-phase3,3.2.4,Win32,60
1,right,3.015000105,2,1.0849998,0,3,0.933999777,0,1,0.559000015,1,0,200,94,1,199,3,2,0.1,1,stim/objects/HouseObjects/match4.png,stim/63.jpeg,6,stim/6.png,3,2,13,2020-11-30_13h51.20.935,premup-three_ses-02_part-03_label-phase3,3.2.4,Win32,60
1,left,2.247999907,4,0.595999956,0,3,2.601000071,0,2,1.358999968,1,0,200,45,1,199,2,1,0.7,1,stim/objects/Instruments/cymbal4.png,stim/41.jpeg,4,stim/4.png,1,2,13,2020-11-30_13h51.20.935,premup-three_ses-02_part-03_label-phase3,3.2.4,Win32,60
1,right,1.328000069,2,0.829999924,0,1,0.698999882,0,4,0.559999943,1,0,200,49,1,199,2,1,0.7,1,stim/objects/Instruments/electricguitar4.png,stim/41.jpeg,4,stim/4.png,1,3,13,2020-11-30_13h51.20.935,premup-three_ses-02_part-03_label-phase3,3.2.4,Win32,60
1,left,2.105999947,,,0,,,0,,,1,0,200,107,1,199,0,1,0,2,stim/objects/Instruments/chime.png,,0,stim/0.png,0,0,13,2020-11-30_13h51.20.935,premup-three_ses-02_part-03_label-phase3,3.2.4,Win32,60
1,right,1.565999985,2,0.71600008,0,3,0.298000097,0,3,0.437000036,1,0,200,30,1,199,2,2,0.7,1,stim/objects/HouseObjects/pan3.png,stim/32.jpeg,3,stim/3.png,2,2,13,2020-11-30_13h51.20.935,premup-three_ses-02_part-03_label-phase3,3.2.4,Win32,60
1,left,1.040999889,,,0,,,0,,,1,0,200,181,1,199,0,1,0,2,stim/objects/Instruments/cello2.png,,0,stim/0.png,0,0,13,2020-11-30_13h51.20.935,premup-three_ses-02_part-03_label-phase3,3.2.4,Win32,60
1,left,0.710000038,4,0.632999897,0,1,0.474000216,0,2,0.473999977,1,0,200,58,1,199,2,2,0.3,1,stim/objects/HouseObjects/cushion4.png,stim/42.jpeg,4,stim/4.png,2,2,13,2020-11-30_13h51.20.935,premup-three_ses-02_part-03_label-phase3,3.2.4,Win32,60
1,left,14.04999995,,,0,,,0,,,1,0,200,106,1,199,0,1,0,2,stim/objects/Instruments/cello.png,,0,stim/0.png,0,0,13,2020-11-30_13h51.20.935,premup-three_ses-02_part-03_label-phase3,3.2.4,Win32,60
1,left,0.806999922,,,0,,,0,,,1,0,200,142,1,199,0,1,0,2,stim/objects/Instruments/harp.png,,0,stim/0.png,0,0,13,2020-11-30_13h51.20.935,premup-three_ses-02_part-03_label-phase3,3.2.4,Win32,60
1,right,0.820999861,,,0,,,0,,,1,0,200,176,1,199,0,2,0,2,stim/objects/HouseObjects/ballofstring2.png,,0,stim/0.png,0,0,13,2020-11-30_13h51.20.935,premup-three_ses-02_part-03_label-phase3,3.2.4,Win32,60
1,right,1.717999935,2,0.759000063,0,3,0.964999914,0,4,0.650000095,1,0,200,52,1,199,2,2,0.3,1,stim/objects/HouseObjects/broom4.png,stim/44.jpeg,4,stim/4.png,4,2,13,2020-11-30_13h51.20.935,premup-three_ses-02_part-03_label-phase3,3.2.4,Win32,60
1,left,17.01199985,3,1.095999956,0,4,1.328999996,0,2,1.944999933,1,0,200,33,1,199,2,2,0.7,1,stim/objects/HouseObjects/vacuumcleaner3.png,stim/31.jpeg,3,stim/3.png,1,3,13,2020-11-30_13h51.20.935,premup-three_ses-02_part-03_label-phase3,3.2.4,Win32,60
1,left,1.00999999,4,0.480999947,0,2,1.244999886,0,3,1.167999983,1,0,200,28,1,199,2,1,0.3,1,stim/objects/Instruments/banjo4.png,stim/31.jpeg,3,stim/3.png,1,3,13,2020-11-30_13h51.20.935,premup-three_ses-02_part-03_label-phase3,3.2.4,Win32,60
1,left,0.859999895,4,0.448999882,0,2,2.296000004,0,3,2.589999914,1,0,200,70,1,199,3,2,0.9,1,stim/objects/HouseObjects/doormat4.png,stim/53.jpeg,5,stim/5.png,3,1,13,2020-11-30_13h51.20.935,premup-three_ses-02_part-03_label-phase3,3.2.4,Win32,60
1,right,1.371000051,2,0.764000177,0,4,1.850000143,0,1,3.713000059,1,0,200,83,1,199,3,1,0.9,1,stim/objects/Instruments/metronome4.png,stim/64.jpeg,6,stim/6.png,4,2,13,2020-11-30_13h51.20.935,premup-three_ses-02_part-03_label-phase3,3.2.4,Win32,60
1,right,12.8039999,4,1.463999987,0,1,0.052999973,0,3,9.819999933,1,0,200,2,1,199,1,1,0.5,1,stim/objects/Instruments/harp3.png,stim/11.jpeg,1,stim/1.png,1,2,13,2020-11-30_13h51.20.935,premup-three_ses-02_part-03_label-phase3,3.2.4,Win32,60
1,right,8.130000114,2,1.618000031,0,1,0.563999891,0,4,1.31400013,1,0,200,72,1,199,3,2,0.9,1,stim/objects/HouseObjects/flyswatter4.png,stim/51.jpeg,5,stim/5.png,1,1,13,2020-11-30_13h51.20.935,premup-three_ses-02_part-03_label-phase3,3.2.4,Win32,60
1,right,1.460999966,2,1.069999933,0,4,0.849999905,0,3,1.075000048,1,0,200,95,1,199,3,2,0.1,1,stim/objects/HouseObjects/pan4.png,stim/64.jpeg,6,stim/6.png,4,2,13,2020-11-30_13h51.20.935,premup-three_ses-02_part-03_label-phase3,3.2.4,Win32,60
1,left,1.024000168,,,0,,,0,,,1,0,200,138,1,199,0,2,0,2,stim/objects/HouseObjects/garbagebin.png,,0,stim/0.png,0,0,13,2020-11-30_13h51.20.935,premup-three_ses-02_part-03_label-phase3,3.2.4,Win32,60
1,left,1.832000017,,,0,,,0,,,1,0,200,114,1,199,0,2,0,2,stim/objects/HouseObjects/bleachbottle.png,,0,stim/0.png,0,0,13,2020-11-30_13h51.20.935,premup-three_ses-02_part-03_label-phase3,3.2.4,Win32,60
1,right,1.512000084,,,0,,,0,,,1,0,200,170,1,199,0,2,0,2,stim/objects/HouseObjects/pan.png,,0,stim/0.png,0,0,13,2020-11-30_13h51.20.935,premup-three_ses-02_part-03_label-phase3,3.2.4,Win32,60
1,right,0.875,,,0,,,0,,,1,0,200,124,1,199,0,1,0,2,stim/objects/Instruments/electricguitar.png,,0,stim/0.png,0,0,13,2020-11-30_13h51.20.935,premup-three_ses-02_part-03_label-phase3,3.2.4,Win32,60
1,left,0.746999979,,,0,,,0,,,1,0,200,188,1,199,0,1,0,2,stim/objects/Instruments/electricdrumset2.png,,0,stim/0.png,0,0,13,2020-11-30_13h51.20.935,premup-three_ses-02_part-03_label-phase3,3.2.4,Win32,60
1,right,1.092000008,1,1.647000074,0,2,0.951999903,0,4,1.596000195,1,0,200,15,1,199,1,2,0.5,1,stim/objects/HouseObjects/ironingboard3.png,stim/24.jpeg,2,stim/2.png,4,1,13,2020-11-30_13h51.20.935,premup-three_ses-02_part-03_label-phase3,3.2.4,Win32,60
1,right,2.232999802,,,0,,,0,,,1,0,200,112,1,199,0,2,0,2,stim/objects/HouseObjects/barbecuelighter.png,,0,stim/0.png,0,0,13,2020-11-30_13h51.20.935,premup-three_ses-02_part-03_label-phase3,3.2.4,Win32,60
1,right,1.016000032,,,0,,,0,,,1,0,200,119,1,199,0,2,0,2,stim/objects/HouseObjects/clock.png,,0,stim/0.png,0,0,13,2020-11-30_13h51.20.935,premup-three_ses-02_part-03_label-phase3,3.2.4,Win32,60
1,right,1.123000145,,,0,,,0,,,1,0,200,197,1,199,0,2,0,2,stim/objects/HouseObjects/coffee2.png,,0,stim/0.png,0,0,13,2020-11-30_13h51.20.935,premup-three_ses-02_part-03_label-phase3,3.2.4,Win32,60
1,right,0.840000153,2,2.478999853,0,3,1.240999937,0,4,2.183999777,1,0,200,38,1,199,2,2,0.7,1,stim/objects/HouseObjects/basket4.png,stim/32.jpeg,3,stim/3.png,2,2,13,2020-11-30_13h51.20.935,premup-three_ses-02_part-03_label-phase3,3.2.4,Win32,60
1,left,1.094000101,,,0,,,0,,,1,0,200,140,1,199,0,1,0,2,stim/objects/Instruments/guitarcase.png,,0,stim/0.png,0,0,13,2020-11-30_13h51.20.935,premup-three_ses-02_part-03_label-phase3,3.2.4,Win32,60
1,left,1.173000097,,,0,,,0,,,1,0,200,187,1,199,0,1,0,2,stim/objects/Instruments/drums2.png,,0,stim/0.png,0,0,13,2020-11-30_13h51.20.935,premup-three_ses-02_part-03_label-phase3,3.2.4,Win32,60
1,right,0.936000109,3,9.835000038,0,1,0.986000061,0,1,0.993000031,1,0,200,82,1,199,3,1,0.9,1,stim/objects/Instruments/marimba4.png,stim/63.jpeg,6,stim/6.png,3,3,13,2020-11-30_13h51.20.935,premup-three_ses-02_part-03_label-phase3,3.2.4,Win32,60
1,left,19.81699991,4,0.673999786,0,3,0.874000072,0,1,1.197999954,1,0,200,18,1,199,1,2,0.5,1,stim/objects/HouseObjects/lintroller3.png,stim/23.jpeg,2,stim/2.png,3,3,13,2020-11-30_13h51.20.935,premup-three_ses-02_part-03_label-phase3,3.2.4,Win32,60
1,right,0.712000132,,,0,,,0,,,1,0,200,118,1,199,0,2,0,2,stim/objects/HouseObjects/bucket.png,,0,stim/0.png,0,0,13,2020-11-30_13h51.20.935,premup-three_ses-02_part-03_label-phase3,3.2.4,Win32,60
1,right,0.862999916,,,0,,,0,,,1,0,200,109,1,199,0,1,0,2,stim/objects/Instruments/cornet.png,,0,stim/0.png,0,0,13,2020-11-30_13h51.20.935,premup-three_ses-02_part-03_label-phase3,3.2.4,Win32,60
1,right,0.75999999,,,0,,,0,,,1,0,200,178,1,199,0,2,0,2,stim/objects/HouseObjects/basket2.png,,0,stim/0.png,0,0,13,2020-11-30_13h51.20.935,premup-three_ses-02_part-03_label-phase3,3.2.4,Win32,60
1,left,0.838999987,4,0.453999996,0,4,1.924000025,0,2,1.460000038,1,0,200,66,1,199,3,1,0.1,1,stim/objects/Instruments/harmonica4.png,stim/53.jpeg,5,stim/5.png,3,3,13,2020-11-30_13h51.20.935,premup-three_ses-02_part-03_label-phase3,3.2.4,Win32,60
1,left,2.976999998,,,0,,,0,,,1,0,200,153,1,199,0,2,0,2,stim/objects/HouseObjects/handvacuum.png,,0,stim/0.png,0,0,13,2020-11-30_13h51.20.935,premup-three_ses-02_part-03_label-phase3,3.2.4,Win32,60
1,right,1.825000048,,,0,,,0,,,1,0,200,196,1,199,0,2,0,2,stim/objects/HouseObjects/clothespin2.png,,0,stim/0.png,0,0,13,2020-11-30_13h51.20.935,premup-three_ses-02_part-03_label-phase3,3.2.4,Win32,60
1,right,1.134000063,,,0,,,0,,,1,0,200,169,1,199,0,1,0,2,stim/objects/Instruments/bassdrum2.png,,0,stim/0.png,0,0,13,2020-11-30_13h51.20.935,premup-three_ses-02_part-03_label-phase3,3.2.4,Win32,60
1,left,1.570999861,4,0.656000137,0,1,1.194999933,0,1,1.447999954,1,0,200,14,1,199,1,2,0.5,1,stim/objects/Instruments/musicsheet3.png,stim/21.jpeg,2,stim/2.png,1,1,13,2020-11-30_13h51.20.935,premup-three_ses-02_part-03_label-phase3,3.2.4,Win32,60
1,right,0.802999973,,,0,,,0,,,1,0,200,195,1,199,0,2,0,2,stim/objects/HouseObjects/clothesdryingrack2.png,,0,stim/0.png,0,0,13,2020-11-30_13h51.20.935,premup-three_ses-02_part-03_label-phase3,3.2.4,Win32,60
1,right,6.812000036,,,0,,,0,,,1,0,200,101,1,199,0,1,0,2,stim/objects/Instruments/acousticguitar.png,,0,stim/0.png,0,0,13,2020-11-30_13h51.20.935,premup-three_ses-02_part-03_label-phase3,3.2.4,Win32,60
1,left,1.868000031,4,0.606999874,0,3,1.161999941,0,1,0.595999956,1,0,200,56,1,199,2,2,0.3,1,stim/objects/HouseObjects/clothespin4.png,stim/44.jpeg,4,stim/4.png,4,4,13,2020-11-30_13h51.20.935,premup-three_ses-02_part-03_label-phase3,3.2.4,Win32,60
1,left,2.679999828,4,0.650000095,0,2,1.757999897,0,3,1.493999958,1,0,200,74,1,199,3,2,0.9,1,stim/objects/HouseObjects/glass4.png,stim/53.jpeg,5,stim/5.png,3,4,13,2020-11-30_13h51.20.935,premup-three_ses-02_part-03_label-phase3,3.2.4,Win32,60
1,right,1.355000019,,,0,,,0,,,1,0,200,152,1,199,0,2,0,2,stim/objects/HouseObjects/handbrush.png,,0,stim/0.png,0,0,13,2020-11-30_13h51.20.935,premup-three_ses-02_part-03_label-phase3,3.2.4,Win32,60
1,right,0.875999928,2,0.998999834,0,2,3.015000105,0,1,1.282999992,1,0,200,81,1,199,3,1,0.9,1,stim/objects/Instruments/maraca4.png,stim/62.jpeg,6,stim/6.png,2,4,13,2020-11-30_13h51.20.935,premup-three_ses-02_part-03_label-phase3,3.2.4,Win32,60
1,right,2.97300005,2,1.312999964,0,3,1.259000063,0,4,1.667000055,1,0,200,64,1,199,3,1,0.1,1,stim/objects/Instruments/grandpiano4.png,stim/51.jpeg,5,stim/5.png,1,4,13,2020-11-30_13h51.20.935,premup-three_ses-02_part-03_label-phase3,3.2.4,Win32,60
1,left,1.275000095,4,0.613999844,0,1,0.710000038,0,2,0.568000078,1,0,200,1,1,199,1,1,0.5,1,stim/objects/Instruments/harmonica3.png,stim/14.jpeg,1,stim/1.png,4,3,13,2020-11-30_13h51.20.935,premup-three_ses-02_part-03_label-phase3,3.2.4,Win32,60
1,right,0.914000034,2,0.787999868,0,1,0.515999794,0,4,0.503000021,1,0,200,12,1,199,1,2,0.5,1,stim/objects/Instruments/marimba3.png,stim/23.jpeg,2,stim/2.png,3,2,13,2020-11-30_13h51.20.935,premup-three_ses-02_part-03_label-phase3,3.2.4,Win32,60
1,left,3.309000015,,,0,,,0,,,1,0,200,182,1,199,0,1,0,2,stim/objects/Instruments/chime2.png,,0,stim/0.png,0,0,13,2020-11-30_13h51.20.935,premup-three_ses-02_part-03_label-phase3,3.2.4,Win32,60
1,right,0.964999914,1,1.296000004,0,4,13.9000001,0,3,1.544999838,1,0,200,43,1,199,2,1,0.7,1,stim/objects/Instruments/clarinet4.png,stim/43.jpeg,4,stim/4.png,3,3,13,2020-11-30_13h51.20.935,premup-three_ses-02_part-03_label-phase3,3.2.4,Win32,60
1,right,2.680000067,2,0.803999901,0,1,0.634000063,0,4,0.475000143,1,0,200,79,1,199,3,2,0.9,1,stim/objects/HouseObjects/iron4.png,stim/54.jpeg,5,stim/5.png,4,2,13,2020-11-30_13h51.20.935,premup-three_ses-02_part-03_label-phase3,3.2.4,Win32,60
1,left,2.157000065,,,0,,,0,,,1,0,200,159,1,199,0,2,0,2,stim/objects/HouseObjects/match.png,,0,stim/0.png,0,0,13,2020-11-30_13h51.20.935,premup-three_ses-02_part-03_label-phase3,3.2.4,Win32,60
1,right,2.023999929,2,4.637000084,0,4,2.381999969,0,3,1.49000001,1,0,200,29,1,199,2,1,0.3,1,stim/objects/Instruments/bassdrum4.png,stim/32.jpeg,3,stim/3.png,2,3,13,2020-11-30_13h51.20.935,premup-three_ses-02_part-03_label-phase3,3.2.4,Win32,60
1,right,92.27600002,,,0,,,0,,,1,0,200,173,1,199,0,2,0,2,stim/objects/HouseObjects/vacuumcleaner.png,,0,stim/0.png,0,0,13,2020-11-30_13h51.20.935,premup-three_ses-02_part-03_label-phase3,3.2.4,Win32,60
1,right,0.769000053,2,0.782000065,0,4,0.549999952,0,1,0.45600009,1,0,200,80,1,199,3,1,0.9,1,stim/objects/Instruments/laud4.png,stim/61.jpeg,6,stim/6.png,1,2,13,2020-11-30_13h51.20.935,premup-three_ses-02_part-03_label-phase3,3.2.4,Win32,60
1,left,3.01699996,,,0,,,0,,,1,0,200,148,1,199,0,1,0,2,stim/objects/Instruments/metronome.png,,0,stim/0.png,0,0,13,2020-11-30_13h51.20.935,premup-three_ses-02_part-03_label-phase3,3.2.4,Win32,60
