id_acc,key_resp_id.keys,key_resp_id.rt,key_resp_conf.keys,key_resp_conf.rt,assoc_acc,key_resp_assoc.keys,key_resp_assoc.rt,loc_acc,key_resp_loc.keys,key_resp_loc.rt,task_innerloop.thisRepN,task_innerloop.thisTrialN,task_innerloop.thisN,task_innerloop.thisIndex,task_innerloop.ran,task_innerloop.order,context_type,object_cat,PE_level,OvsN,obj_file,scn_file,corr_scn_cat,assoc_file,corr_scn_inst,corr_loc,participant,date,expName,psychopyVersion,OS,frameRate
1,right,2.016000032,,,0,,,0,,,1,0,200,104,1,199,0,1,0,2,stim/objects/HouseObjects/bleachbottle3.png,,0,stim/0.png,0,0,14,2020-12-02_22h46.15.351,premup-three_ses-02_part-03_label-phase3,3.2.4,Win32,60
1,left,1.039999962,4,3.575999975,0,2,4.529000044,0,3,5.224000216,1,0,200,38,1,199,2,2,0.7,1,stim/objects/Instruments/banjo2.png,stim/52.jpeg,5,stim/5.png,2,1,14,2020-12-02_22h46.15.351,premup-three_ses-02_part-03_label-phase3,3.2.4,Win32,60
1,right,3.875,2,2.25999999,0,3,7.52699995,0,4,1.792999983,1,0,200,95,1,199,3,2,0.1,1,stim/objects/Instruments/musicstand2.png,stim/24.jpeg,2,stim/2.png,4,3,14,2020-12-02_22h46.15.351,premup-three_ses-02_part-03_label-phase3,3.2.4,Win32,60
1,right,1.204999924,,,0,,,0,,,1,0,200,134,1,199,0,2,0,2,stim/objects/Instruments/electricguitar3.png,,0,stim/0.png,0,0,14,2020-12-02_22h46.15.351,premup-three_ses-02_part-03_label-phase3,3.2.4,Win32,60
1,right,2.335000038,,,0,,,0,,,1,0,200,151,1,199,0,2,0,2,stim/objects/Instruments/harmonica3.png,,0,stim/0.png,0,0,14,2020-12-02_22h46.15.351,premup-three_ses-02_part-03_label-phase3,3.2.4,Win32,60
1,right,1.513000011,,,0,,,0,,,1,0,200,146,1,199,0,1,0,2,stim/objects/HouseObjects/key3.png,,0,stim/0.png,0,0,14,2020-12-02_22h46.15.351,premup-three_ses-02_part-03_label-phase3,3.2.4,Win32,60
1,left,1.035000086,,,0,,,0,,,1,0,200,178,1,199,0,2,0,2,stim/objects/Instruments/banjo4.png,,0,stim/0.png,0,0,14,2020-12-02_22h46.15.351,premup-three_ses-02_part-03_label-phase3,3.2.4,Win32,60
1,right,2.525999784,2,3.739000082,0,1,1.597000122,0,4,1.642999887,1,0,200,1,1,199,1,1,0.5,1,stim/objects/HouseObjects/hairdryer.png,stim/34.jpeg,3,stim/3.png,4,3,14,2020-12-02_22h46.15.351,premup-three_ses-02_part-03_label-phase3,3.2.4,Win32,60
1,left,2.037000179,,,0,,,0,,,1,0,200,159,1,199,0,2,0,2,stim/objects/Instruments/musicsheet3.png,,0,stim/0.png,0,0,14,2020-12-02_22h46.15.351,premup-three_ses-02_part-03_label-phase3,3.2.4,Win32,60
1,right,1.129999876,4,1.999000072,0,4,6.248000145,0,4,0.985999823,1,0,200,63,1,199,3,1,0.1,1,stim/objects/HouseObjects/garbagebin2.png,stim/14.jpeg,1,stim/1.png,4,3,14,2020-12-02_22h46.15.351,premup-three_ses-02_part-03_label-phase3,3.2.4,Win32,60
1,left,2.003999949,4,1.707999945,0,3,2.697000027,0,4,1.452000141,1,0,200,99,1,199,3,2,0.1,1,stim/objects/Instruments/record2.png,stim/24.jpeg,2,stim/2.png,4,3,14,2020-12-02_22h46.15.351,premup-three_ses-02_part-03_label-phase3,3.2.4,Win32,60
1,left,1.343999863,,,0,,,0,,,1,0,200,152,1,199,0,2,0,2,stim/objects/Instruments/harp3.png,,0,stim/0.png,0,0,14,2020-12-02_22h46.15.351,premup-three_ses-02_part-03_label-phase3,3.2.4,Win32,60
1,right,2.618999958,,,0,,,0,,,1,0,200,163,1,199,0,1,0,2,stim/objects/HouseObjects/remote3.png,,0,stim/0.png,0,0,14,2020-12-02_22h46.15.351,premup-three_ses-02_part-03_label-phase3,3.2.4,Win32,60
1,right,0.906000137,,,0,,,0,,,1,0,200,145,1,199,0,1,0,2,stim/objects/HouseObjects/ironingboard3.png,,0,stim/0.png,0,0,14,2020-12-02_22h46.15.351,premup-three_ses-02_part-03_label-phase3,3.2.4,Win32,60
1,left,0.953000069,4,1.534000158,0,4,3.379000187,0,3,1.802999973,1,0,200,61,1,199,3,1,0.1,1,stim/objects/HouseObjects/dustpan2.png,stim/12.jpeg,1,stim/1.png,2,2,14,2020-12-02_22h46.15.351,premup-three_ses-02_part-03_label-phase3,3.2.4,Win32,60
1,right,1.399000168,3,5.486999989,0,4,2.963999987,0,4,1.117000103,1,0,200,21,1,199,2,1,0.3,1,stim/objects/HouseObjects/pitcher.png,stim/52.jpeg,5,stim/5.png,2,2,14,2020-12-02_22h46.15.351,premup-three_ses-02_part-03_label-phase3,3.2.4,Win32,60
1,right,1.065999985,,,0,,,0,,,1,0,200,171,1,199,0,2,0,2,stim/objects/Instruments/oboe3.png,,0,stim/0.png,0,0,14,2020-12-02_22h46.15.351,premup-three_ses-02_part-03_label-phase3,3.2.4,Win32,60
1,right,0.892000198,,,0,,,0,,,1,0,200,138,1,199,0,2,0,2,stim/objects/Instruments/gong3.png,,0,stim/0.png,0,0,14,2020-12-02_22h46.15.351,premup-three_ses-02_part-03_label-phase3,3.2.4,Win32,60
1,right,0.86500001,,,0,,,0,,,1,0,200,162,1,199,0,1,0,2,stim/objects/HouseObjects/recyclingbin3.png,,0,stim/0.png,0,0,14,2020-12-02_22h46.15.351,premup-three_ses-02_part-03_label-phase3,3.2.4,Win32,60
1,right,2.694000006,,,0,,,0,,,1,0,200,183,1,199,0,1,0,2,stim/objects/HouseObjects/bucket4.png,,0,stim/0.png,0,0,14,2020-12-02_22h46.15.351,premup-three_ses-02_part-03_label-phase3,3.2.4,Win32,60
1,left,0.926000118,4,1.25999999,0,2,2.63499999,0,2,2.505000114,1,0,200,24,1,199,2,1,0.3,1,stim/objects/HouseObjects/rubbergloves.png,stim/51.jpeg,5,stim/5.png,1,1,14,2020-12-02_22h46.15.351,premup-three_ses-02_part-03_label-phase3,3.2.4,Win32,60
1,left,2.244000196,4,1.167000055,0,1,4.009000063,0,1,2.284000158,1,0,200,71,1,199,3,2,0.9,1,stim/objects/Instruments/flutetrans2.png,stim/14.jpeg,1,stim/1.png,4,4,14,2020-12-02_22h46.15.351,premup-three_ses-02_part-03_label-phase3,3.2.4,Win32,60
1,right,0.904999971,,,0,,,0,,,1,0,200,148,1,199,0,1,0,2,stim/objects/HouseObjects/lintroller3.png,,0,stim/0.png,0,0,14,2020-12-02_22h46.15.351,premup-three_ses-02_part-03_label-phase3,3.2.4,Win32,60
1,right,0.743999958,,,0,,,0,,,1,0,200,119,1,199,0,2,0,2,stim/objects/Instruments/cornet3.png,,0,stim/0.png,0,0,14,2020-12-02_22h46.15.351,premup-three_ses-02_part-03_label-phase3,3.2.4,Win32,60
1,right,0.819999933,,,0,,,0,,,1,0,200,127,1,199,0,1,0,2,stim/objects/HouseObjects/flyswatter3.png,,0,stim/0.png,0,0,14,2020-12-02_22h46.15.351,premup-three_ses-02_part-03_label-phase3,3.2.4,Win32,60
1,right,0.797999859,4,1.184000015,0,4,1.571000099,0,4,1.004999876,1,0,200,85,1,199,3,1,0.9,1,stim/objects/HouseObjects/pan2.png,stim/22.jpeg,2,stim/2.png,2,3,14,2020-12-02_22h46.15.351,premup-three_ses-02_part-03_label-phase3,3.2.4,Win32,60
1,left,2.799000025,,,0,,,0,,,1,0,200,166,1,199,0,1,0,2,stim/objects/HouseObjects/ballofstring4.png,,0,stim/0.png,0,0,14,2020-12-02_22h46.15.351,premup-three_ses-02_part-03_label-phase3,3.2.4,Win32,60
1,right,0.855000019,4,2.390000105,0,4,1.687999964,0,4,0.653000116,1,0,200,56,1,199,2,2,0.3,1,stim/objects/Instruments/doublebass2.png,stim/64.jpeg,6,stim/6.png,4,2,14,2020-12-02_22h46.15.351,premup-three_ses-02_part-03_label-phase3,3.2.4,Win32,60
1,left,1.263999939,4,0.794000149,0,3,1.812999964,0,4,1.696000099,1,0,200,75,1,199,3,2,0.9,1,stim/objects/Instruments/guitarcase2.png,stim/14.jpeg,1,stim/1.png,4,4,14,2020-12-02_22h46.15.351,premup-three_ses-02_part-03_label-phase3,3.2.4,Win32,60
1,right,0.797999859,,,0,,,0,,,1,0,200,194,1,199,0,2,0,2,stim/objects/Instruments/cornet4.png,,0,stim/0.png,0,0,14,2020-12-02_22h46.15.351,premup-three_ses-02_part-03_label-phase3,3.2.4,Win32,60
1,left,0.83100009,4,1.210000038,0,2,3.404000044,0,1,1.301000118,1,0,200,14,1,199,1,2,0.5,1,stim/objects/HouseObjects/match.png,stim/41.jpeg,4,stim/4.png,1,1,14,2020-12-02_22h46.15.351,premup-three_ses-02_part-03_label-phase3,3.2.4,Win32,60
1,left,1.344000101,4,1.615999937,0,3,2.020999908,0,4,1.203999996,1,0,200,98,1,199,3,2,0.1,1,stim/objects/Instruments/pipepiano2.png,stim/23.jpeg,2,stim/2.png,3,3,14,2020-12-02_22h46.15.351,premup-three_ses-02_part-03_label-phase3,3.2.4,Win32,60
1,right,1.388999939,,,0,,,0,,,1,0,200,160,1,199,0,1,0,2,stim/objects/HouseObjects/pan3.png,,0,stim/0.png,0,0,14,2020-12-02_22h46.15.351,premup-three_ses-02_part-03_label-phase3,3.2.4,Win32,60
1,right,0.904999971,,,0,,,0,,,1,0,200,180,1,199,0,1,0,2,stim/objects/HouseObjects/blender4.png,,0,stim/0.png,0,0,14,2020-12-02_22h46.15.351,premup-three_ses-02_part-03_label-phase3,3.2.4,Win32,60
1,right,0.711000204,,,0,,,0,,,1,0,200,192,1,199,0,2,0,2,stim/objects/Instruments/chime4.png,,0,stim/0.png,0,0,14,2020-12-02_22h46.15.351,premup-three_ses-02_part-03_label-phase3,3.2.4,Win32,60
1,left,0.885999918,4,1.100000143,0,2,1.355999947,0,3,1.598999977,1,0,200,65,1,199,3,1,0.1,1,stim/objects/HouseObjects/glassmop2.png,stim/12.jpeg,1,stim/1.png,2,3,14,2020-12-02_22h46.15.351,premup-three_ses-02_part-03_label-phase3,3.2.4,Win32,60
1,left,1.536000013,4,1.210999966,0,4,3.674000025,0,3,2.93900013,1,0,200,69,1,199,3,1,0.1,1,stim/objects/HouseObjects/iron2.png,stim/12.jpeg,1,stim/1.png,2,4,14,2020-12-02_22h46.15.351,premup-three_ses-02_part-03_label-phase3,3.2.4,Win32,60
1,right,1.173000097,,,0,,,0,,,1,0,200,103,1,199,0,1,0,2,stim/objects/HouseObjects/basket3.png,,0,stim/0.png,0,0,14,2020-12-02_22h46.15.351,premup-three_ses-02_part-03_label-phase3,3.2.4,Win32,60
1,right,1.63499999,2,2.579999924,0,4,1.506999969,0,4,0.861999989,1,0,200,22,1,199,2,1,0.3,1,stim/objects/HouseObjects/recyclingbin.png,stim/53.jpeg,5,stim/5.png,3,1,14,2020-12-02_22h46.15.351,premup-three_ses-02_part-03_label-phase3,3.2.4,Win32,60
1,left,1.08100009,4,0.876000166,0,3,1.631000042,0,2,1.444000006,1,0,200,86,1,199,3,1,0.9,1,stim/objects/HouseObjects/pitcher2.png,stim/23.jpeg,2,stim/2.png,3,2,14,2020-12-02_22h46.15.351,premup-three_ses-02_part-03_label-phase3,3.2.4,Win32,60
1,right,1.121999979,,,0,,,0,,,1,0,200,199,1,199,0,2,0,2,stim/objects/Instruments/electricguitar4.png,,0,stim/0.png,0,0,14,2020-12-02_22h46.15.351,premup-three_ses-02_part-03_label-phase3,3.2.4,Win32,60
1,right,0.807999849,,,0,,,0,,,1,0,200,124,1,199,0,1,0,2,stim/objects/HouseObjects/dishsoap3.png,,0,stim/0.png,0,0,14,2020-12-02_22h46.15.351,premup-three_ses-02_part-03_label-phase3,3.2.4,Win32,60
1,left,0.934000015,4,0.88499999,0,3,3.084000111,0,4,3.375,1,0,200,81,1,199,3,1,0.9,1,stim/objects/HouseObjects/key2.png,stim/22.jpeg,2,stim/2.png,2,3,14,2020-12-02_22h46.15.351,premup-three_ses-02_part-03_label-phase3,3.2.4,Win32,60
1,right,0.893000126,,,0,,,0,,,1,0,200,114,1,199,0,2,0,2,stim/objects/Instruments/bassdrum3.png,,0,stim/0.png,0,0,14,2020-12-02_22h46.15.351,premup-three_ses-02_part-03_label-phase3,3.2.4,Win32,60
1,right,0.822000027,,,0,,,0,,,1,0,200,154,1,199,0,2,0,2,stim/objects/Instruments/keyboard3.png,,0,stim/0.png,0,0,14,2020-12-02_22h46.15.351,premup-three_ses-02_part-03_label-phase3,3.2.4,Win32,60
1,right,0.737999916,4,0.995000124,0,4,1.335999966,0,4,0.601999998,1,0,200,20,1,199,2,1,0.3,1,stim/objects/HouseObjects/pan.png,stim/51.jpeg,5,stim/5.png,1,4,14,2020-12-02_22h46.15.351,premup-three_ses-02_part-03_label-phase3,3.2.4,Win32,60
1,left,2.360999823,,,0,,,0,,,1,0,200,109,1,199,0,1,0,2,stim/objects/HouseObjects/clock3.png,,0,stim/0.png,0,0,14,2020-12-02_22h46.15.351,premup-three_ses-02_part-03_label-phase3,3.2.4,Win32,60
1,left,1.654999971,2,1.184000015,0,3,1.006999969,0,2,1.094000101,1,0,200,13,1,199,1,2,0.5,1,stim/objects/HouseObjects/lintroller.png,stim/44.jpeg,4,stim/4.png,4,1,14,2020-12-02_22h46.15.351,premup-three_ses-02_part-03_label-phase3,3.2.4,Win32,60
1,right,0.873999834,,,0,,,0,,,1,0,200,197,1,199,0,2,0,2,stim/objects/Instruments/drums4.png,,0,stim/0.png,0,0,14,2020-12-02_22h46.15.351,premup-three_ses-02_part-03_label-phase3,3.2.4,Win32,60
1,right,0.836999893,,,0,,,0,,,1,0,200,164,1,199,0,1,0,2,stim/objects/HouseObjects/rubbergloves3.png,,0,stim/0.png,0,0,14,2020-12-02_22h46.15.351,premup-three_ses-02_part-03_label-phase3,3.2.4,Win32,60
1,left,2.771000147,4,1.266000032,0,4,4.287000179,0,4,1.128999949,1,0,200,41,1,199,2,1,0.7,1,stim/objects/HouseObjects/bottle2.png,stim/61.jpeg,6,stim/6.png,1,4,14,2020-12-02_22h46.15.351,premup-three_ses-02_part-03_label-phase3,3.2.4,Win32,60
1,left,1.248000145,,,0,,,0,,,1,0,200,174,1,199,0,2,0,2,stim/objects/Instruments/record3.png,,0,stim/0.png,0,0,14,2020-12-02_22h46.15.351,premup-three_ses-02_part-03_label-phase3,3.2.4,Win32,60
1,right,0.772000074,4,0.986000061,0,4,1.40199995,0,4,0.470000029,1,0,200,12,1,199,1,2,0.5,1,stim/objects/HouseObjects/knife.png,stim/43.jpeg,4,stim/4.png,3,1,14,2020-12-02_22h46.15.351,premup-three_ses-02_part-03_label-phase3,3.2.4,Win32,60
1,left,0.945999861,4,1.808000088,0,3,1.156000137,0,3,1.42599988,1,0,200,64,1,199,3,1,0.1,1,stim/objects/HouseObjects/glass2.png,stim/11.jpeg,1,stim/1.png,1,4,14,2020-12-02_22h46.15.351,premup-three_ses-02_part-03_label-phase3,3.2.4,Win32,60
1,left,1.263000011,4,1.101999998,0,1,3.210999966,0,2,1.309000015,1,0,200,9,1,199,1,1,0.5,1,stim/objects/Instruments/keyboard.png,stim/32.jpeg,3,stim/3.png,2,2,14,2020-12-02_22h46.15.351,premup-three_ses-02_part-03_label-phase3,3.2.4,Win32,60
1,right,1.993000031,,,0,,,0,,,1,0,200,126,1,199,0,1,0,2,stim/objects/HouseObjects/dustpan3.png,,0,stim/0.png,0,0,14,2020-12-02_22h46.15.351,premup-three_ses-02_part-03_label-phase3,3.2.4,Win32,60
1,right,1.146999836,2,1.59100008,0,2,1.09800005,0,3,1.385999918,1,0,200,2,1,199,1,1,0.5,1,stim/objects/HouseObjects/handbrush.png,stim/31.jpeg,3,stim/3.png,1,4,14,2020-12-02_22h46.15.351,premup-three_ses-02_part-03_label-phase3,3.2.4,Win32,60
1,left,1.282000065,4,1.04399991,0,2,1.220999956,0,3,1.539000034,1,0,200,76,1,199,3,2,0.9,1,stim/objects/Instruments/harmonica2.png,stim/11.jpeg,1,stim/1.png,1,3,14,2020-12-02_22h46.15.351,premup-three_ses-02_part-03_label-phase3,3.2.4,Win32,60
1,right,0.921999931,,,0,,,0,,,1,0,200,142,1,199,0,1,0,2,stim/objects/HouseObjects/handbrush3.png,,0,stim/0.png,0,0,14,2020-12-02_22h46.15.351,premup-three_ses-02_part-03_label-phase3,3.2.4,Win32,60
1,left,1.129999876,2,1.673999786,0,3,1.049000025,0,1,1.093999863,1,0,200,6,1,199,1,1,0.5,1,stim/objects/Instruments/harmonica.png,stim/33.jpeg,3,stim/3.png,3,3,14,2020-12-02_22h46.15.351,premup-three_ses-02_part-03_label-phase3,3.2.4,Win32,60
1,right,1.833999872,,,0,,,0,,,1,0,200,100,1,199,0,1,0,2,stim/objects/HouseObjects/ashtray3.png,,0,stim/0.png,0,0,14,2020-12-02_22h46.15.351,premup-three_ses-02_part-03_label-phase3,3.2.4,Win32,60
1,right,0.587000132,,,0,,,0,,,1,0,200,106,1,199,0,1,0,2,stim/objects/HouseObjects/bottle3.png,,0,stim/0.png,0,0,14,2020-12-02_22h46.15.351,premup-three_ses-02_part-03_label-phase3,3.2.4,Win32,60
1,right,0.763000011,1,3.630000114,0,1,1.032000065,0,2,0.880000114,1,0,200,62,1,199,3,1,0.1,1,stim/objects/HouseObjects/flyswatter2.png,stim/13.jpeg,1,stim/1.png,3,3,14,2020-12-02_22h46.15.351,premup-three_ses-02_part-03_label-phase3,3.2.4,Win32,60
1,right,5.538000107,,,0,,,0,,,1,0,200,121,1,199,0,1,0,2,stim/objects/HouseObjects/clothespin3.png,,0,stim/0.png,0,0,14,2020-12-02_22h46.15.351,premup-three_ses-02_part-03_label-phase3,3.2.4,Win32,60
1,right,2.18599987,2,1.534000158,0,3,0.855999947,0,3,0.638999939,1,0,200,66,1,199,3,1,0.1,1,stim/objects/HouseObjects/hairdryer2.png,stim/13.jpeg,1,stim/1.png,3,4,14,2020-12-02_22h46.15.351,premup-three_ses-02_part-03_label-phase3,3.2.4,Win32,60
1,right,2.03399992,2,1.15899992,0,2,1.205999851,0,4,1.177000046,1,0,200,17,1,199,1,2,0.5,1,stim/objects/Instruments/marimba.png,stim/42.jpeg,4,stim/4.png,2,4,14,2020-12-02_22h46.15.351,premup-three_ses-02_part-03_label-phase3,3.2.4,Win32,60
1,right,1.749000072,2,1.101000071,0,3,0.99000001,0,4,0.990999937,1,0,200,68,1,199,3,1,0.1,1,stim/objects/HouseObjects/handvacuum2.png,stim/11.jpeg,1,stim/1.png,1,2,14,2020-12-02_22h46.15.351,premup-three_ses-02_part-03_label-phase3,3.2.4,Win32,60
1,right,2.895999908,2,1.032999992,0,3,0.959000111,0,4,0.735000134,1,0,200,5,1,199,1,1,0.5,1,stim/objects/Instruments/guitarcase.png,stim/32.jpeg,3,stim/3.png,2,2,14,2020-12-02_22h46.15.351,premup-three_ses-02_part-03_label-phase3,3.2.4,Win32,60
1,left,1.208999872,4,0.925000191,0,1,2.895999908,0,2,2.784999847,1,0,200,54,1,199,2,2,0.3,1,stim/objects/Instruments/cornet2.png,stim/62.jpeg,6,stim/6.png,2,2,14,2020-12-02_22h46.15.351,premup-three_ses-02_part-03_label-phase3,3.2.4,Win32,60
1,left,1.294000149,,,0,,,0,,,1,0,200,196,1,199,0,2,0,2,stim/objects/Instruments/doublebass4.png,,0,stim/0.png,0,0,14,2020-12-02_22h46.15.351,premup-three_ses-02_part-03_label-phase3,3.2.4,Win32,60
1,right,1.903999805,2,1.076999903,0,3,0.964999914,0,4,1.236999989,1,0,200,4,1,199,1,1,0.5,1,stim/objects/HouseObjects/iron.png,stim/33.jpeg,3,stim/3.png,3,2,14,2020-12-02_22h46.15.351,premup-three_ses-02_part-03_label-phase3,3.2.4,Win32,60
1,right,0.963000059,,,0,,,0,,,1,0,200,168,1,199,0,1,0,2,stim/objects/HouseObjects/basket4.png,,0,stim/0.png,0,0,14,2020-12-02_22h46.15.351,premup-three_ses-02_part-03_label-phase3,3.2.4,Win32,60
1,left,1.227999926,4,0.817000151,0,2,2.562000036,0,3,1.228000164,1,0,200,15,1,199,1,2,0.5,1,stim/objects/Instruments/laud.png,stim/44.jpeg,4,stim/4.png,4,1,14,2020-12-02_22h46.15.351,premup-three_ses-02_part-03_label-phase3,3.2.4,Win32,60
1,left,1.230999947,4,1.217999935,0,1,2.71999979,0,2,2.411999941,1,0,200,50,1,199,2,2,0.3,1,stim/objects/Instruments/bassguitar2.png,stim/62.jpeg,6,stim/6.png,2,3,14,2020-12-02_22h46.15.351,premup-three_ses-02_part-03_label-phase3,3.2.4,Win32,60
1,left,1.018000126,,,0,,,0,,,1,0,200,157,1,199,0,2,0,2,stim/objects/Instruments/marimba3.png,,0,stim/0.png,0,0,14,2020-12-02_22h46.15.351,premup-three_ses-02_part-03_label-phase3,3.2.4,Win32,60
1,right,3.183000088,,,0,,,0,,,1,0,200,122,1,199,0,1,0,2,stim/objects/HouseObjects/coffee3.png,,0,stim/0.png,0,0,14,2020-12-02_22h46.15.351,premup-three_ses-02_part-03_label-phase3,3.2.4,Win32,60
1,right,0.894000053,2,1.651000023,0,3,0.950000048,0,4,0.894999981,1,0,200,53,1,199,2,2,0.3,1,stim/objects/Instruments/clarinet2.png,stim/61.jpeg,6,stim/6.png,1,3,14,2020-12-02_22h46.15.351,premup-three_ses-02_part-03_label-phase3,3.2.4,Win32,60
1,right,2.027999878,,,0,,,0,,,1,0,200,132,1,199,0,2,0,2,stim/objects/Instruments/drums3.png,,0,stim/0.png,0,0,14,2020-12-02_22h46.15.351,premup-three_ses-02_part-03_label-phase3,3.2.4,Win32,60
1,left,0.911999941,4,0.77699995,0,4,2.746999979,0,2,0.92599988,1,0,200,23,1,199,2,1,0.3,1,stim/objects/HouseObjects/remote.png,stim/54.jpeg,5,stim/5.png,4,3,14,2020-12-02_22h46.15.351,premup-three_ses-02_part-03_label-phase3,3.2.4,Win32,60
1,right,1.559999943,,,0,,,0,,,1,0,200,123,1,199,0,1,0,2,stim/objects/HouseObjects/cushion3.png,,0,stim/0.png,0,0,14,2020-12-02_22h46.15.351,premup-three_ses-02_part-03_label-phase3,3.2.4,Win32,60
1,left,1.134000063,4,0.763000011,0,3,2.169999838,0,3,1.260999918,1,0,200,26,1,199,2,1,0.3,1,stim/objects/HouseObjects/ballofstring2.png,stim/53.jpeg,5,stim/5.png,3,3,14,2020-12-02_22h46.15.351,premup-three_ses-02_part-03_label-phase3,3.2.4,Win32,60
1,right,1.232000113,2,1.284000158,0,3,0.95600009,0,3,0.582999945,1,0,200,70,1,199,3,2,0.9,1,stim/objects/Instruments/flute2.png,stim/13.jpeg,1,stim/1.png,3,3,14,2020-12-02_22h46.15.351,premup-three_ses-02_part-03_label-phase3,3.2.4,Win32,60
1,left,1.080999851,,,0,,,0,,,1,0,200,137,1,199,0,2,0,2,stim/objects/Instruments/frenchhorn3.png,,0,stim/0.png,0,0,14,2020-12-02_22h46.15.351,premup-three_ses-02_part-03_label-phase3,3.2.4,Win32,60
1,right,0.825999975,,,0,,,0,,,1,0,200,117,1,199,0,2,0,2,stim/objects/Instruments/chime3.png,,0,stim/0.png,0,0,14,2020-12-02_22h46.15.351,premup-three_ses-02_part-03_label-phase3,3.2.4,Win32,60
1,right,1.653000116,,,0,,,0,,,1,0,200,133,1,199,0,2,0,2,stim/objects/Instruments/electricdrumset3.png,,0,stim/0.png,0,0,14,2020-12-02_22h46.15.351,premup-three_ses-02_part-03_label-phase3,3.2.4,Win32,60
1,right,0.929999828,,,0,,,0,,,1,0,200,182,1,199,0,1,0,2,stim/objects/HouseObjects/broom4.png,,0,stim/0.png,0,0,14,2020-12-02_22h46.15.351,premup-three_ses-02_part-03_label-phase3,3.2.4,Win32,60
1,right,1.204999924,,,0,,,0,,,1,0,200,165,1,199,0,1,0,2,stim/objects/HouseObjects/ashtray4.png,,0,stim/0.png,0,0,14,2020-12-02_22h46.15.351,premup-three_ses-02_part-03_label-phase3,3.2.4,Win32,60
1,right,1.015000105,,,0,,,0,,,1,0,200,167,1,199,0,1,0,2,stim/objects/HouseObjects/barbecuelighter4.png,,0,stim/0.png,0,0,14,2020-12-02_22h46.15.351,premup-three_ses-02_part-03_label-phase3,3.2.4,Win32,60
1,left,1.013000011,3,1.934000015,0,2,1.187999964,0,3,0.713000059,1,0,200,8,1,199,1,1,0.5,1,stim/objects/Instruments/hihat.png,stim/31.jpeg,3,stim/3.png,1,4,14,2020-12-02_22h46.15.351,premup-three_ses-02_part-03_label-phase3,3.2.4,Win32,60
1,left,1.519999981,3,1.116999865,0,2,2.519999981,0,3,1.010999918,1,0,200,11,1,199,1,2,0.5,1,stim/objects/HouseObjects/key.png,stim/42.jpeg,4,stim/4.png,2,4,14,2020-12-02_22h46.15.351,premup-three_ses-02_part-03_label-phase3,3.2.4,Win32,60
1,left,1.476999998,4,1.127000093,0,3,1.114000082,0,2,1.671000004,1,0,200,79,1,199,3,2,0.9,1,stim/objects/Instruments/keyboard2.png,stim/14.jpeg,1,stim/1.png,4,2,14,2020-12-02_22h46.15.351,premup-three_ses-02_part-03_label-phase3,3.2.4,Win32,60
1,right,1.098999977,2,1.309000015,0,3,0.98300004,0,3,0.534999847,1,0,200,88,1,199,3,1,0.9,1,stim/objects/HouseObjects/remote2.png,stim/21.jpeg,2,stim/2.png,1,2,14,2020-12-02_22h46.15.351,premup-three_ses-02_part-03_label-phase3,3.2.4,Win32,60
1,left,0.963000059,2,0.885999918,0,4,1.736999989,0,2,1.201999903,1,0,200,7,1,199,1,1,0.5,1,stim/objects/Instruments/harp.png,stim/34.jpeg,3,stim/3.png,4,2,14,2020-12-02_22h46.15.351,premup-three_ses-02_part-03_label-phase3,3.2.4,Win32,60
1,right,1.007999897,,,0,,,0,,,1,0,200,118,1,199,0,2,0,2,stim/objects/Instruments/clarinet3.png,,0,stim/0.png,0,0,14,2020-12-02_22h46.15.351,premup-three_ses-02_part-03_label-phase3,3.2.4,Win32,60
1,right,0.761000156,,,0,,,0,,,1,0,200,107,1,199,0,1,0,2,stim/objects/HouseObjects/broom3.png,,0,stim/0.png,0,0,14,2020-12-02_22h46.15.351,premup-three_ses-02_part-03_label-phase3,3.2.4,Win32,60
1,right,0.720000029,,,0,,,0,,,1,0,200,128,1,199,0,1,0,2,stim/objects/HouseObjects/garbagebin3.png,,0,stim/0.png,0,0,14,2020-12-02_22h46.15.351,premup-three_ses-02_part-03_label-phase3,3.2.4,Win32,60
1,left,1.407999992,4,0.835000038,0,4,2.253000021,0,2,2.044999838,1,0,200,39,1,199,2,2,0.7,1,stim/objects/Instruments/bassdrum2.png,stim/53.jpeg,5,stim/5.png,3,2,14,2020-12-02_22h46.15.351,premup-three_ses-02_part-03_label-phase3,3.2.4,Win32,60
1,right,1.104000092,,,0,,,0,,,1,0,200,155,1,199,0,2,0,2,stim/objects/Instruments/laud3.png,,0,stim/0.png,0,0,14,2020-12-02_22h46.15.351,premup-three_ses-02_part-03_label-phase3,3.2.4,Win32,60
1,left,1.072000027,4,0.994000196,0,3,1.088999987,0,1,4.733999968,1,0,200,49,1,199,2,1,0.7,1,stim/objects/HouseObjects/dishsoap2.png,stim/61.jpeg,6,stim/6.png,1,1,14,2020-12-02_22h46.15.351,premup-three_ses-02_part-03_label-phase3,3.2.4,Win32,60
1,right,1.069000006,3,1.325999975,0,3,0.931999922,0,3,0.784000158,1,0,200,34,1,199,2,2,0.7,1,stim/objects/Instruments/record.png,stim/52.jpeg,5,stim/5.png,2,3,14,2020-12-02_22h46.15.351,premup-three_ses-02_part-03_label-phase3,3.2.4,Win32,60
1,right,0.839999914,2,1.251999855,0,3,1.174000025,0,4,1.222000122,1,0,200,83,1,199,3,1,0.9,1,stim/objects/HouseObjects/lintroller2.png,stim/24.jpeg,2,stim/2.png,4,4,14,2020-12-02_22h46.15.351,premup-three_ses-02_part-03_label-phase3,3.2.4,Win32,60
1,right,1.155999899,,,0,,,0,,,1,0,200,191,1,199,0,2,0,2,stim/objects/Instruments/cello4.png,,0,stim/0.png,0,0,14,2020-12-02_22h46.15.351,premup-three_ses-02_part-03_label-phase3,3.2.4,Win32,60
1,left,0.980000019,4,1.149999857,0,3,2.104000092,0,1,2.017999887,1,0,200,52,1,199,2,2,0.3,1,stim/objects/Instruments/chime2.png,stim/64.jpeg,6,stim/6.png,4,1,14,2020-12-02_22h46.15.351,premup-three_ses-02_part-03_label-phase3,3.2.4,Win32,60
1,right,0.942000151,,,0,,,0,,,1,0,200,108,1,199,0,1,0,2,stim/objects/HouseObjects/bucket3.png,,0,stim/0.png,0,0,14,2020-12-02_22h46.15.351,premup-three_ses-02_part-03_label-phase3,3.2.4,Win32,60
1,right,1.234999895,,,0,,,0,,,1,0,200,181,1,199,0,1,0,2,stim/objects/HouseObjects/bottle4.png,,0,stim/0.png,0,0,14,2020-12-02_22h46.15.351,premup-three_ses-02_part-03_label-phase3,3.2.4,Win32,60
1,right,1.365999937,,,0,,,0,,,1,0,200,186,1,199,0,1,0,2,stim/objects/HouseObjects/clothespin4.png,,0,stim/0.png,0,0,14,2020-12-02_22h46.15.351,premup-three_ses-02_part-03_label-phase3,3.2.4,Win32,60
1,right,1.13499999,2,1.153000116,0,3,0.898000002,0,2,0.00999999,1,0,200,31,1,199,2,2,0.7,1,stim/objects/Instruments/oboe.png,stim/53.jpeg,5,stim/5.png,3,1,14,2020-12-02_22h46.15.351,premup-three_ses-02_part-03_label-phase3,3.2.4,Win32,60
1,right,3.231999874,,,0,,,0,,,1,0,200,173,1,199,0,2,0,2,stim/objects/Instruments/pipepiano3.png,,0,stim/0.png,0,0,14,2020-12-02_22h46.15.351,premup-three_ses-02_part-03_label-phase3,3.2.4,Win32,60
1,right,0.81799984,,,0,,,0,,,1,0,200,125,1,199,0,1,0,2,stim/objects/HouseObjects/doormat3.png,,0,stim/0.png,0,0,14,2020-12-02_22h46.15.351,premup-three_ses-02_part-03_label-phase3,3.2.4,Win32,60
1,left,1.662999868,3,1.84800005,0,3,2.212000132,0,4,1.480000019,1,0,200,93,1,199,3,2,0.1,1,stim/objects/Instruments/metronome2.png,stim/22.jpeg,2,stim/2.png,2,3,14,2020-12-02_22h46.15.351,premup-three_ses-02_part-03_label-phase3,3.2.4,Win32,60
1,left,1.121000051,3,1.60800004,0,3,1.225000143,0,3,1.460000038,1,0,200,18,1,199,1,2,0.5,1,stim/objects/Instruments/metronome.png,stim/43.jpeg,4,stim/4.png,3,3,14,2020-12-02_22h46.15.351,premup-three_ses-02_part-03_label-phase3,3.2.4,Win32,60
1,right,1.171000004,,,0,,,0,,,1,0,200,110,1,199,0,2,0,2,stim/objects/Instruments/accordion3.png,,0,stim/0.png,0,0,14,2020-12-02_22h46.15.351,premup-three_ses-02_part-03_label-phase3,3.2.4,Win32,60
1,right,0.678999901,,,0,,,0,,,1,0,200,141,1,199,0,1,0,2,stim/objects/HouseObjects/hairdryer3.png,,0,stim/0.png,0,0,14,2020-12-02_22h46.15.351,premup-three_ses-02_part-03_label-phase3,3.2.4,Win32,60
1,right,0.853000164,3,3.604000092,0,2,1.400000095,0,3,0.76699996,1,0,200,72,1,199,3,2,0.9,1,stim/objects/Instruments/frenchhorn2.png,stim/11.jpeg,1,stim/1.png,1,1,14,2020-12-02_22h46.15.351,premup-three_ses-02_part-03_label-phase3,3.2.4,Win32,60
1,right,2.062999964,,,0,,,0,,,1,0,200,105,1,199,0,1,0,2,stim/objects/HouseObjects/blender3.png,,0,stim/0.png,0,0,14,2020-12-02_22h46.15.351,premup-three_ses-02_part-03_label-phase3,3.2.4,Win32,60
1,right,1.529000044,,,0,,,0,,,1,0,200,144,1,199,0,1,0,2,stim/objects/HouseObjects/iron3.png,,0,stim/0.png,0,0,14,2020-12-02_22h46.15.351,premup-three_ses-02_part-03_label-phase3,3.2.4,Win32,60
1,right,1.683000088,,,0,,,0,,,1,0,200,139,1,199,0,2,0,2,stim/objects/Instruments/grandpiano3.png,,0,stim/0.png,0,0,14,2020-12-02_22h46.15.351,premup-three_ses-02_part-03_label-phase3,3.2.4,Win32,60
1,left,1.135999918,,,0,,,0,,,1,0,200,112,1,199,0,2,0,2,stim/objects/Instruments/balalaika3.png,,0,stim/0.png,0,0,14,2020-12-02_22h46.15.351,premup-three_ses-02_part-03_label-phase3,3.2.4,Win32,60
1,right,1.186999798,2,3.864000082,0,4,1.503999949,0,3,0.53399992,1,0,200,67,1,199,3,1,0.1,1,stim/objects/HouseObjects/handbrush2.png,stim/14.jpeg,1,stim/1.png,4,2,14,2020-12-02_22h46.15.351,premup-three_ses-02_part-03_label-phase3,3.2.4,Win32,60
1,right,1.937000036,,,0,,,0,,,1,0,200,170,1,199,0,2,0,2,stim/objects/Instruments/musicstand3.png,,0,stim/0.png,0,0,14,2020-12-02_22h46.15.351,premup-three_ses-02_part-03_label-phase3,3.2.4,Win32,60
1,left,0.763000011,4,0.784000158,0,4,1.582000017,0,2,1.815000057,1,0,200,58,1,199,2,2,0.3,1,stim/objects/Instruments/electricdrumset2.png,stim/62.jpeg,6,stim/6.png,2,4,14,2020-12-02_22h46.15.351,premup-three_ses-02_part-03_label-phase3,3.2.4,Win32,60
1,right,0.865999937,,,0,,,0,,,1,0,200,193,1,199,0,2,0,2,stim/objects/Instruments/clarinet4.png,,0,stim/0.png,0,0,14,2020-12-02_22h46.15.351,premup-three_ses-02_part-03_label-phase3,3.2.4,Win32,60
1,left,1.569000006,2,2.149999857,0,3,1.595999956,0,1,1.889999866,1,0,200,87,1,199,3,1,0.9,1,stim/objects/HouseObjects/recyclingbin2.png,stim/24.jpeg,2,stim/2.png,4,1,14,2020-12-02_22h46.15.351,premup-three_ses-02_part-03_label-phase3,3.2.4,Win32,60
1,right,0.898000002,,,0,,,0,,,1,0,200,172,1,199,0,2,0,2,stim/objects/Instruments/panflute3.png,,0,stim/0.png,0,0,14,2020-12-02_22h46.15.351,premup-three_ses-02_part-03_label-phase3,3.2.4,Win32,60
1,right,0.705999851,,,0,,,0,,,1,0,200,135,1,199,0,2,0,2,stim/objects/Instruments/flute3.png,,0,stim/0.png,0,0,14,2020-12-02_22h46.15.351,premup-three_ses-02_part-03_label-phase3,3.2.4,Win32,60
1,left,2.252000093,4,1.100999832,0,1,1.787999868,0,3,2.673999786,1,0,200,48,1,199,2,1,0.7,1,stim/objects/HouseObjects/cushion2.png,stim/64.jpeg,6,stim/6.png,4,3,14,2020-12-02_22h46.15.351,premup-three_ses-02_part-03_label-phase3,3.2.4,Win32,60
1,left,1.296000004,4,2.622999907,0,4,3.261999846,0,3,2.455999851,1,0,200,33,1,199,2,2,0.7,1,stim/objects/Instruments/pipepiano.png,stim/51.jpeg,5,stim/5.png,1,4,14,2020-12-02_22h46.15.351,premup-three_ses-02_part-03_label-phase3,3.2.4,Win32,60
1,right,1.121999979,,,0,,,0,,,1,0,200,113,1,199,0,2,0,2,stim/objects/Instruments/banjo3.png,,0,stim/0.png,0,0,14,2020-12-02_22h46.15.351,premup-three_ses-02_part-03_label-phase3,3.2.4,Win32,60
1,right,0.993999958,1,2.883000135,0,1,1.032000065,0,1,0.486999989,1,0,200,10,1,199,1,2,0.5,1,stim/objects/HouseObjects/ironingboard.png,stim/41.jpeg,4,stim/4.png,1,3,14,2020-12-02_22h46.15.351,premup-three_ses-02_part-03_label-phase3,3.2.4,Win32,60
1,right,1.336999893,,,0,,,0,,,1,0,200,149,1,199,0,1,0,2,stim/objects/HouseObjects/match3.png,,0,stim/0.png,0,0,14,2020-12-02_22h46.15.351,premup-three_ses-02_part-03_label-phase3,3.2.4,Win32,60
1,right,0.845999956,,,0,,,0,,,1,0,200,111,1,199,0,2,0,2,stim/objects/Instruments/acousticguitar3.png,,0,stim/0.png,0,0,14,2020-12-02_22h46.15.351,premup-three_ses-02_part-03_label-phase3,3.2.4,Win32,60
1,right,0.829999924,,,0,,,0,,,1,0,200,185,1,199,0,1,0,2,stim/objects/HouseObjects/clothesdryingrack4.png,,0,stim/0.png,0,0,14,2020-12-02_22h46.15.351,premup-three_ses-02_part-03_label-phase3,3.2.4,Win32,60
1,left,0.985000134,4,0.720000029,0,4,1.746000051,0,1,1.697999954,1,0,200,3,1,199,1,1,0.5,1,stim/objects/HouseObjects/handvacuum.png,stim/32.jpeg,3,stim/3.png,2,2,14,2020-12-02_22h46.15.351,premup-three_ses-02_part-03_label-phase3,3.2.4,Win32,60
1,right,0.849999905,,,0,,,0,,,1,0,200,120,1,199,0,1,0,2,stim/objects/HouseObjects/clothesdryingrack3.png,,0,stim/0.png,0,0,14,2020-12-02_22h46.15.351,premup-three_ses-02_part-03_label-phase3,3.2.4,Win32,60
1,right,0.69299984,1,1.042000055,0,1,0.655999899,0,2,0.773000002,1,0,200,40,1,199,2,1,0.7,1,stim/objects/HouseObjects/blender2.png,stim/64.jpeg,6,stim/6.png,4,2,14,2020-12-02_22h46.15.351,premup-three_ses-02_part-03_label-phase3,3.2.4,Win32,60
1,right,0.954999924,,,0,,,0,,,1,0,200,189,1,199,0,1,0,2,stim/objects/HouseObjects/dishsoap4.png,,0,stim/0.png,0,0,14,2020-12-02_22h46.15.351,premup-three_ses-02_part-03_label-phase3,3.2.4,Win32,60
1,right,1.535000086,,,0,,,0,,,1,0,200,136,1,199,0,2,0,2,stim/objects/Instruments/flutetrans3.png,,0,stim/0.png,0,0,14,2020-12-02_22h46.15.351,premup-three_ses-02_part-03_label-phase3,3.2.4,Win32,60
1,left,1.243999958,3,1.493999958,0,2,1.063999891,0,3,0.716999769,1,0,200,37,1,199,2,2,0.7,1,stim/objects/Instruments/balalaika2.png,stim/51.jpeg,5,stim/5.png,1,3,14,2020-12-02_22h46.15.351,premup-three_ses-02_part-03_label-phase3,3.2.4,Win32,60
1,right,0.860999823,,,0,,,0,,,1,0,200,147,1,199,0,1,0,2,stim/objects/HouseObjects/knife3.png,,0,stim/0.png,0,0,14,2020-12-02_22h46.15.351,premup-three_ses-02_part-03_label-phase3,3.2.4,Win32,60
1,right,1.078000069,,,0,,,0,,,1,0,200,140,1,199,0,1,0,2,stim/objects/HouseObjects/glassmop3.png,,0,stim/0.png,0,0,14,2020-12-02_22h46.15.351,premup-three_ses-02_part-03_label-phase3,3.2.4,Win32,60
1,right,0.746999979,1,1.082000017,0,3,1.552999973,0,4,0.862999916,1,0,200,92,1,199,3,2,0.1,1,stim/objects/Instruments/marimba2.png,stim/21.jpeg,2,stim/2.png,1,2,14,2020-12-02_22h46.15.351,premup-three_ses-02_part-03_label-phase3,3.2.4,Win32,60
1,right,1.04399991,2,1.459000111,0,3,1.213999987,0,4,0.609999895,1,0,200,77,1,199,3,2,0.9,1,stim/objects/Instruments/harp2.png,stim/12.jpeg,1,stim/1.png,2,2,14,2020-12-02_22h46.15.351,premup-three_ses-02_part-03_label-phase3,3.2.4,Win32,60
1,right,0.631000042,,,0,,,0,,,1,0,200,175,1,199,0,2,0,2,stim/objects/Instruments/accordion4.png,,0,stim/0.png,0,0,14,2020-12-02_22h46.15.351,premup-three_ses-02_part-03_label-phase3,3.2.4,Win32,60
1,right,0.610999823,,,0,,,0,,,1,0,200,131,1,199,0,2,0,2,stim/objects/Instruments/doublebass3.png,,0,stim/0.png,0,0,14,2020-12-02_22h46.15.351,premup-three_ses-02_part-03_label-phase3,3.2.4,Win32,60
1,left,0.820000172,4,0.711000204,0,4,1.246999979,0,3,2.437000036,1,0,200,91,1,199,3,2,0.1,1,stim/objects/Instruments/maraca2.png,stim/24.jpeg,2,stim/2.png,4,4,14,2020-12-02_22h46.15.351,premup-three_ses-02_part-03_label-phase3,3.2.4,Win32,60
1,left,1.348999977,4,1.476000071,0,3,2.503999949,0,3,2.269999981,1,0,200,82,1,199,3,1,0.9,1,stim/objects/HouseObjects/knife2.png,stim/23.jpeg,2,stim/2.png,3,3,14,2020-12-02_22h46.15.351,premup-three_ses-02_part-03_label-phase3,3.2.4,Win32,60
1,right,0.881999969,2,1.995000124,0,3,2.16899991,0,3,0.532999992,1,0,200,80,1,199,3,1,0.9,1,stim/objects/HouseObjects/ironingboard2.png,stim/21.jpeg,2,stim/2.png,1,4,14,2020-12-02_22h46.15.351,premup-three_ses-02_part-03_label-phase3,3.2.4,Win32,60
1,right,1.246999979,,,0,,,0,,,1,0,200,129,1,199,0,1,0,2,stim/objects/HouseObjects/glass3.png,,0,stim/0.png,0,0,14,2020-12-02_22h46.15.351,premup-three_ses-02_part-03_label-phase3,3.2.4,Win32,60
1,left,0.812000036,4,0.88499999,0,4,2.530999899,0,4,1.846999884,1,0,200,60,1,199,3,1,0.1,1,stim/objects/HouseObjects/doormat2.png,stim/11.jpeg,1,stim/1.png,1,4,14,2020-12-02_22h46.15.351,premup-three_ses-02_part-03_label-phase3,3.2.4,Win32,60
1,left,1.319999933,3,0.842000008,0,3,1.927999973,0,4,1.630000114,1,0,200,55,1,199,2,2,0.3,1,stim/objects/Instruments/cymbal2.png,stim/63.jpeg,6,stim/6.png,3,3,14,2020-12-02_22h46.15.351,premup-three_ses-02_part-03_label-phase3,3.2.4,Win32,60
1,left,1.211999893,,,0,,,0,,,1,0,200,156,1,199,0,2,0,2,stim/objects/Instruments/maraca3.png,,0,stim/0.png,0,0,14,2020-12-02_22h46.15.351,premup-three_ses-02_part-03_label-phase3,3.2.4,Win32,60
1,right,0.796000004,,,0,,,0,,,1,0,200,190,1,199,0,2,0,2,stim/objects/Instruments/bassguitar4.png,,0,stim/0.png,0,0,14,2020-12-02_22h46.15.351,premup-three_ses-02_part-03_label-phase3,3.2.4,Win32,60
1,right,1.226999998,,,0,,,0,,,1,0,200,153,1,199,0,2,0,2,stim/objects/Instruments/hihat3.png,,0,stim/0.png,0,0,14,2020-12-02_22h46.15.351,premup-three_ses-02_part-03_label-phase3,3.2.4,Win32,60
1,right,0.746999979,,,0,,,0,,,1,0,200,188,1,199,0,1,0,2,stim/objects/HouseObjects/cushion4.png,,0,stim/0.png,0,0,14,2020-12-02_22h46.15.351,premup-three_ses-02_part-03_label-phase3,3.2.4,Win32,60
1,right,0.710000038,2,1.320000172,0,3,0.946000099,0,4,0.835000038,1,0,200,47,1,199,2,1,0.7,1,stim/objects/HouseObjects/coffee2.png,stim/63.jpeg,6,stim/6.png,3,1,14,2020-12-02_22h46.15.351,premup-three_ses-02_part-03_label-phase3,3.2.4,Win32,60
1,left,0.981000185,4,1.133000135,0,3,1.582000017,0,4,2.052999973,1,0,200,16,1,199,1,2,0.5,1,stim/objects/Instruments/maraca.png,stim/41.jpeg,4,stim/4.png,1,3,14,2020-12-02_22h46.15.351,premup-three_ses-02_part-03_label-phase3,3.2.4,Win32,60
1,right,0.780999899,2,1.384000063,0,3,2.520999908,0,1,1.289999962,1,0,200,25,1,199,2,1,0.3,1,stim/objects/HouseObjects/ashtray2.png,stim/52.jpeg,5,stim/5.png,2,3,14,2020-12-02_22h46.15.351,premup-three_ses-02_part-03_label-phase3,3.2.4,Win32,60
1,right,1.601000071,,,0,,,0,,,1,0,200,130,1,199,0,2,0,2,stim/objects/Instruments/cymbal3.png,,0,stim/0.png,0,0,14,2020-12-02_22h46.15.351,premup-three_ses-02_part-03_label-phase3,3.2.4,Win32,60
1,left,1.213999987,4,1.01699996,0,3,0.969000101,0,4,1.012000084,1,0,200,57,1,199,2,2,0.3,1,stim/objects/Instruments/drums2.png,stim/61.jpeg,6,stim/6.png,1,3,14,2020-12-02_22h46.15.351,premup-three_ses-02_part-03_label-phase3,3.2.4,Win32,60
1,left,1.372999907,4,0.644000053,0,3,1.506000042,0,4,0.789000034,1,0,200,45,1,199,2,1,0.7,1,stim/objects/HouseObjects/clothesdryingrack2.png,stim/61.jpeg,6,stim/6.png,1,4,14,2020-12-02_22h46.15.351,premup-three_ses-02_part-03_label-phase3,3.2.4,Win32,60
1,left,1.315999985,4,0.700000048,0,2,1.555999994,0,2,1.22300005,1,0,200,51,1,199,2,2,0.3,1,stim/objects/Instruments/cello2.png,stim/63.jpeg,6,stim/6.png,3,4,14,2020-12-02_22h46.15.351,premup-three_ses-02_part-03_label-phase3,3.2.4,Win32,60
1,left,2.011999846,,,0,,,0,,,1,0,200,176,1,199,0,2,0,2,stim/objects/Instruments/acousticguitar4.png,,0,stim/0.png,0,0,14,2020-12-02_22h46.15.351,premup-three_ses-02_part-03_label-phase3,3.2.4,Win32,60
1,right,1.613000154,,,0,,,0,,,1,0,200,169,1,199,0,1,0,2,stim/objects/HouseObjects/bleachbottle4.png,,0,stim/0.png,0,0,14,2020-12-02_22h46.15.351,premup-three_ses-02_part-03_label-phase3,3.2.4,Win32,60
1,right,0.769999981,,,0,,,0,,,1,0,200,184,1,199,0,1,0,2,stim/objects/HouseObjects/clock4.png,,0,stim/0.png,0,0,14,2020-12-02_22h46.15.351,premup-three_ses-02_part-03_label-phase3,3.2.4,Win32,60
1,right,1.078999996,,,0,,,0,,,1,0,200,158,1,199,0,2,0,2,stim/objects/Instruments/metronome3.png,,0,stim/0.png,0,0,14,2020-12-02_22h46.15.351,premup-three_ses-02_part-03_label-phase3,3.2.4,Win32,60
1,left,0.953000069,4,0.620000124,0,4,0.713999987,0,3,1.023000002,1,0,200,46,1,199,2,1,0.7,1,stim/objects/HouseObjects/clothespin2.png,stim/62.jpeg,6,stim/6.png,2,4,14,2020-12-02_22h46.15.351,premup-three_ses-02_part-03_label-phase3,3.2.4,Win32,60
1,right,0.881000042,,,0,,,0,,,1,0,200,179,1,199,0,2,0,2,stim/objects/Instruments/bassdrum4.png,,0,stim/0.png,0,0,14,2020-12-02_22h46.15.351,premup-three_ses-02_part-03_label-phase3,3.2.4,Win32,60
1,right,1.095000029,,,0,,,0,,,1,0,200,101,1,199,0,1,0,2,stim/objects/HouseObjects/ballofstring3.png,,0,stim/0.png,0,0,14,2020-12-02_22h46.15.351,premup-three_ses-02_part-03_label-phase3,3.2.4,Win32,60
1,right,0.796000004,2,1.118000031,0,2,0.842000008,0,2,0.440000057,1,0,200,42,1,199,2,1,0.7,1,stim/objects/HouseObjects/broom2.png,stim/62.jpeg,6,stim/6.png,2,2,14,2020-12-02_22h46.15.351,premup-three_ses-02_part-03_label-phase3,3.2.4,Win32,60
1,right,0.698000193,2,1.116000175,0,2,0.558000088,0,3,0.535000086,1,0,200,32,1,199,2,2,0.7,1,stim/objects/Instruments/panflute.png,stim/54.jpeg,5,stim/5.png,4,4,14,2020-12-02_22h46.15.351,premup-three_ses-02_part-03_label-phase3,3.2.4,Win32,60
1,right,1.670000076,2,0.984999895,0,3,0.605999947,0,4,0.78399992,1,0,200,89,1,199,3,1,0.9,1,stim/objects/HouseObjects/rubbergloves2.png,stim/22.jpeg,2,stim/2.png,2,4,14,2020-12-02_22h46.15.351,premup-three_ses-02_part-03_label-phase3,3.2.4,Win32,60
1,right,0.842000008,,,0,,,0,,,1,0,200,102,1,199,0,1,0,2,stim/objects/HouseObjects/barbecuelighter3.png,,0,stim/0.png,0,0,14,2020-12-02_22h46.15.351,premup-three_ses-02_part-03_label-phase3,3.2.4,Win32,60
1,left,1.126999855,4,0.91899991,0,3,1.31400013,0,4,1.646000147,1,0,200,94,1,199,3,2,0.1,1,stim/objects/Instruments/musicsheet2.png,stim/23.jpeg,2,stim/2.png,3,4,14,2020-12-02_22h46.15.351,premup-three_ses-02_part-03_label-phase3,3.2.4,Win32,60
1,right,1.198999882,2,1.028000116,0,3,1.005999804,0,4,0.211999893,1,0,200,0,1,199,1,1,0.5,1,stim/objects/HouseObjects/glassmop.png,stim/33.jpeg,3,stim/3.png,3,1,14,2020-12-02_22h46.15.351,premup-three_ses-02_part-03_label-phase3,3.2.4,Win32,60
1,right,1.286999941,,,0,,,0,,,1,0,200,177,1,199,0,2,0,2,stim/objects/Instruments/balalaika4.png,,0,stim/0.png,0,0,14,2020-12-02_22h46.15.351,premup-three_ses-02_part-03_label-phase3,3.2.4,Win32,60
1,left,0.888999939,3,1.468999863,0,2,1.496999979,0,1,2.585999966,1,0,200,44,1,199,2,1,0.7,1,stim/objects/HouseObjects/clock2.png,stim/64.jpeg,6,stim/6.png,4,1,14,2020-12-02_22h46.15.351,premup-three_ses-02_part-03_label-phase3,3.2.4,Win32,60
1,right,0.905999899,2,1.176000118,0,2,2.177000046,0,3,0.875,1,0,200,97,1,199,3,2,0.1,1,stim/objects/Instruments/panflute2.png,stim/22.jpeg,2,stim/2.png,2,1,14,2020-12-02_22h46.15.351,premup-three_ses-02_part-03_label-phase3,3.2.4,Win32,60
1,right,1.046999931,,,0,,,0,,,1,0,200,143,1,199,0,1,0,2,stim/objects/HouseObjects/handvacuum3.png,,0,stim/0.png,0,0,14,2020-12-02_22h46.15.351,premup-three_ses-02_part-03_label-phase3,3.2.4,Win32,60
1,right,1.244000196,2,1.01699996,0,2,0.573999882,0,3,0.688999891,1,0,200,35,1,199,2,2,0.7,1,stim/objects/Instruments/accordion2.png,stim/53.jpeg,5,stim/5.png,3,4,14,2020-12-02_22h46.15.351,premup-three_ses-02_part-03_label-phase3,3.2.4,Win32,60
1,left,5.288000107,3,1.101999998,0,1,1.470999956,0,1,1.503000021,1,0,200,19,1,199,1,2,0.5,1,stim/objects/Instruments/musicsheet.png,stim/44.jpeg,4,stim/4.png,4,2,14,2020-12-02_22h46.15.351,premup-three_ses-02_part-03_label-phase3,3.2.4,Win32,60
1,right,0.949999809,4,1.99000001,0,4,1.161999941,0,4,0.423000097,1,0,200,84,1,199,3,1,0.9,1,stim/objects/HouseObjects/match2.png,stim/21.jpeg,2,stim/2.png,1,2,14,2020-12-02_22h46.15.351,premup-three_ses-02_part-03_label-phase3,3.2.4,Win32,60
1,right,1.050000191,,,0,,,0,,,1,0,200,116,1,199,0,2,0,2,stim/objects/Instruments/cello3.png,,0,stim/0.png,0,0,14,2020-12-02_22h46.15.351,premup-three_ses-02_part-03_label-phase3,3.2.4,Win32,60
1,left,0.917000055,4,0.617000103,0,3,1.129999876,0,1,1.437000036,1,0,200,74,1,199,3,2,0.9,1,stim/objects/Instruments/grandpiano2.png,stim/13.jpeg,1,stim/1.png,3,1,14,2020-12-02_22h46.15.351,premup-three_ses-02_part-03_label-phase3,3.2.4,Win32,60
1,left,3.643000126,3,1.326000214,0,3,1.821000099,0,1,0.930999994,1,0,200,78,1,199,3,2,0.9,1,stim/objects/Instruments/hihat2.png,stim/13.jpeg,1,stim/1.png,3,3,14,2020-12-02_22h46.15.351,premup-three_ses-02_part-03_label-phase3,3.2.4,Win32,60
1,right,0.88499999,,,0,,,0,,,1,0,200,195,1,199,0,2,0,2,stim/objects/Instruments/cymbal4.png,,0,stim/0.png,0,0,14,2020-12-02_22h46.15.351,premup-three_ses-02_part-03_label-phase3,3.2.4,Win32,60
1,right,0.677000046,,,0,,,0,,,1,0,200,187,1,199,0,1,0,2,stim/objects/HouseObjects/coffee4.png,,0,stim/0.png,0,0,14,2020-12-02_22h46.15.351,premup-three_ses-02_part-03_label-phase3,3.2.4,Win32,60
1,right,0.95299983,4,1.26699996,0,4,1.039999962,0,4,0.516000032,1,0,200,73,1,199,3,2,0.9,1,stim/objects/Instruments/gong2.png,stim/12.jpeg,1,stim/1.png,2,2,14,2020-12-02_22h46.15.351,premup-three_ses-02_part-03_label-phase3,3.2.4,Win32,60
1,right,1.911000013,,,0,,,0,,,1,0,200,198,1,199,0,2,0,2,stim/objects/Instruments/electricdrumset4.png,,0,stim/0.png,0,0,14,2020-12-02_22h46.15.351,premup-three_ses-02_part-03_label-phase3,3.2.4,Win32,60
1,right,0.730000019,,,0,,,0,,,1,0,200,150,1,199,0,2,0,2,stim/objects/Instruments/guitarcase3.png,,0,stim/0.png,0,0,14,2020-12-02_22h46.15.351,premup-three_ses-02_part-03_label-phase3,3.2.4,Win32,60
1,right,0.641000032,,,0,,,0,,,1,0,200,115,1,199,0,2,0,2,stim/objects/Instruments/bassguitar3.png,,0,stim/0.png,0,0,14,2020-12-02_22h46.15.351,premup-three_ses-02_part-03_label-phase3,3.2.4,Win32,60
1,left,1.510999918,2,2.131999969,0,2,0.897000074,0,2,0.434000015,1,0,200,29,1,199,2,1,0.3,1,stim/objects/HouseObjects/bleachbottle2.png,stim/52.jpeg,5,stim/5.png,2,4,14,2020-12-02_22h46.15.351,premup-three_ses-02_part-03_label-phase3,3.2.4,Win32,60
1,right,1.030999899,3,1.700000048,0,3,0.980999947,0,4,1.09100008,1,0,200,30,1,199,2,2,0.7,1,stim/objects/Instruments/musicstand.png,stim/52.jpeg,5,stim/5.png,2,2,14,2020-12-02_22h46.15.351,premup-three_ses-02_part-03_label-phase3,3.2.4,Win32,60
1,right,1.638000011,2,1.310000181,0,2,0.525000095,0,3,0.664999962,1,0,200,59,1,199,2,2,0.3,1,stim/objects/Instruments/electricguitar2.png,stim/63.jpeg,6,stim/6.png,3,1,14,2020-12-02_22h46.15.351,premup-three_ses-02_part-03_label-phase3,3.2.4,Win32,60
1,right,1.006999969,1,1.447999954,0,3,2.111999989,0,4,0.754999876,1,0,200,96,1,199,3,2,0.1,1,stim/objects/Instruments/oboe2.png,stim/21.jpeg,2,stim/2.png,1,4,14,2020-12-02_22h46.15.351,premup-three_ses-02_part-03_label-phase3,3.2.4,Win32,60
1,right,0.708000183,2,1.934000015,0,3,1.446000099,0,1,1.273999929,1,0,200,90,1,199,3,2,0.1,1,stim/objects/Instruments/laud2.png,stim/23.jpeg,2,stim/2.png,3,4,14,2020-12-02_22h46.15.351,premup-three_ses-02_part-03_label-phase3,3.2.4,Win32,60
1,right,1.205999851,3,1.615999937,0,4,0.767000198,0,2,0.631000042,1,0,200,28,1,199,2,1,0.3,1,stim/objects/HouseObjects/basket2.png,stim/51.jpeg,5,stim/5.png,1,3,14,2020-12-02_22h46.15.351,premup-three_ses-02_part-03_label-phase3,3.2.4,Win32,60
1,right,1.120999813,2,1.534000158,0,3,1.535999775,0,1,0.933000088,1,0,200,36,1,199,2,2,0.7,1,stim/objects/Instruments/acousticguitar2.png,stim/54.jpeg,5,stim/5.png,4,1,14,2020-12-02_22h46.15.351,premup-three_ses-02_part-03_label-phase3,3.2.4,Win32,60
1,left,1.358999968,3,1.532999992,0,2,1.164000034,0,2,1.232000113,1,0,200,27,1,199,2,1,0.3,1,stim/objects/HouseObjects/barbecuelighter2.png,stim/54.jpeg,5,stim/5.png,4,1,14,2020-12-02_22h46.15.351,premup-three_ses-02_part-03_label-phase3,3.2.4,Win32,60
1,right,1.714999914,,,0,,,0,,,1,0,200,161,1,199,0,1,0,2,stim/objects/HouseObjects/pitcher3.png,,0,stim/0.png,0,0,14,2020-12-02_22h46.15.351,premup-three_ses-02_part-03_label-phase3,3.2.4,Win32,60
1,left,0.769999981,4,0.852999926,0,4,1.27699995,0,4,1.501999855,1,0,200,43,1,199,2,1,0.7,1,stim/objects/HouseObjects/bucket2.png,stim/63.jpeg,6,stim/6.png,3,4,14,2020-12-02_22h46.15.351,premup-three_ses-02_part-03_label-phase3,3.2.4,Win32,60
