key_resp_trial.keys,key_resp_trial.rt,trial_acc,trial_index,iterations.thisRepN,iterations.thisTrialN,iterations.thisN,iterations.thisIndex,iterations.ran,iterations.order,task_innerloop.thisRepN,task_innerloop.thisTrialN,task_innerloop.thisN,task_innerloop.thisIndex,task_innerloop.ran,task_innerloop.order,scn_condition,scn_cat,scn_inst,scn_file,obj_cat,obj_cat_num,obj_file,trial_cond,quadrant,obj_x,obj_y,corr_ans,participant,date,expName,psychopyVersion,OS,frameRate,slider.response,slider.rt,slider_2.response,slider_2.rt,ratings.thisRepN,ratings.thisTrialN,ratings.thisN,ratings.thisIndex,ratings.ran,ratings.order,obj_cat_top,min_resp_top,max_resp_top,obj_cat_bottom,min_resp_bottom,max_resp_bottom,enc_trials.thisRepN,enc_trials.thisTrialN,enc_trials.thisN,enc_trials.thisIndex,enc_trials.ran,enc_trials.order,fillers,ratings_final.thisRepN,ratings_final.thisTrialN,ratings_final.thisN,ratings_final.thisIndex,ratings_final.ran,ratings_final.order
,,0,1,1,0,1,0,1,0,1,0,240,18,1,239,1,5,3,stim/53.jpeg,HouseObjects,1,stim/objects/HouseObjects/key.png,0.5,4,0.2,-0.15,left,17,2020-12-18_13h33.57.637,premup-three_ses-02_part-02_label-phase2,3.2.4,Win32,60,,,,,,,,,,,,,,,,,,,,,,,,,,,,,
left,0.002000093,1,2,1,0,1,0,1,0,1,0,240,129,1,239,2,2,2,stim/22.jpeg,HouseObjects,1,stim/objects/HouseObjects/ironingboard2.png,0.7,3,-0.2,-0.15,left,17,2020-12-18_13h33.57.637,premup-three_ses-02_part-02_label-phase2,3.2.4,Win32,60,,,,,,,,,,,,,,,,,,,,,,,,,,,,,
left,0.77699995,1,3,1,0,1,0,1,0,1,0,240,219,1,239,3,4,4,stim/44.jpeg,HouseObjects,1,stim/objects/HouseObjects/rug2.png,0.9,2,0.2,0.15,left,17,2020-12-18_13h33.57.637,premup-three_ses-02_part-02_label-phase2,3.2.4,Win32,60,,,,,,,,,,,,,,,,,,,,,,,,,,,,,
right,0.56400013,0,4,1,0,1,0,1,0,1,0,240,41,1,239,1,6,2,stim/62.jpeg,HouseObjects,1,stim/objects/HouseObjects/match.png,0.5,3,-0.2,-0.15,left,17,2020-12-18_13h33.57.637,premup-three_ses-02_part-02_label-phase2,3.2.4,Win32,60,,,,,,,,,,,,,,,,,,,,,,,,,,,,,
left,0.739000082,0,5,1,0,1,0,1,0,1,0,240,38,1,239,1,5,3,stim/53.jpeg,Instruments,2,stim/objects/Instruments/maraca.png,0.5,4,0.2,-0.15,right,17,2020-12-18_13h33.57.637,premup-three_ses-02_part-02_label-phase2,3.2.4,Win32,60,,,,,,,,,,,,,,,,,,,,,,,,,,,,,
left,0.680999994,1,6,1,0,1,0,1,0,1,0,240,136,1,239,2,2,1,stim/21.jpeg,HouseObjects,1,stim/objects/HouseObjects/iron2.png,0.7,1,-0.2,0.15,left,17,2020-12-18_13h33.57.637,premup-three_ses-02_part-02_label-phase2,3.2.4,Win32,60,,,,,,,,,,,,,,,,,,,,,,,,,,,,,
left,0.607000113,1,7,1,0,1,0,1,0,1,0,240,135,1,239,2,2,4,stim/24.jpeg,HouseObjects,1,stim/objects/HouseObjects/knife2.png,0.7,2,0.2,0.15,left,17,2020-12-18_13h33.57.637,premup-three_ses-02_part-02_label-phase2,3.2.4,Win32,60,,,,,,,,,,,,,,,,,,,,,,,,,,,,,
left,0.461000204,0,8,1,0,1,0,1,0,1,0,240,155,1,239,2,2,4,stim/24.jpeg,Instruments,2,stim/objects/Instruments/marimba2.png,0.3,2,0.2,0.15,right,17,2020-12-18_13h33.57.637,premup-three_ses-02_part-02_label-phase2,3.2.4,Win32,60,,,,,,,,,,,,,,,,,,,,,,,,,,,,,
left,0.580000162,1,9,1,0,1,0,1,0,1,0,240,133,1,239,2,2,2,stim/22.jpeg,HouseObjects,1,stim/objects/HouseObjects/ironingboard2.png,0.7,1,-0.2,0.15,left,17,2020-12-18_13h33.57.637,premup-three_ses-02_part-02_label-phase2,3.2.4,Win32,60,,,,,,,,,,,,,,,,,,,,,,,,,,,,,
left,0.588000298,1,10,1,0,1,0,1,0,1,0,240,200,1,239,3,4,1,stim/41.jpeg,HouseObjects,1,stim/objects/HouseObjects/recyclingbin2.png,0.9,1,-0.2,0.15,left,17,2020-12-18_13h33.57.637,premup-three_ses-02_part-02_label-phase2,3.2.4,Win32,60,,,,,,,,,,,,,,,,,,,,,,,,,,,,,
left,0.637000084,0,11,1,0,1,0,1,0,1,0,240,151,1,239,2,2,4,stim/24.jpeg,Instruments,2,stim/objects/Instruments/marimba2.png,0.3,3,-0.2,-0.15,right,17,2020-12-18_13h33.57.637,premup-three_ses-02_part-02_label-phase2,3.2.4,Win32,60,,,,,,,,,,,,,,,,,,,,,,,,,,,,,
left,0.703999996,1,12,1,0,1,0,1,0,1,0,240,130,1,239,2,2,3,stim/23.jpeg,HouseObjects,1,stim/objects/HouseObjects/key2.png,0.7,3,-0.2,-0.15,left,17,2020-12-18_13h33.57.637,premup-three_ses-02_part-02_label-phase2,3.2.4,Win32,60,,,,,,,,,,,,,,,,,,,,,,,,,,,,,
,,0,13,1,0,1,0,1,0,1,0,240,169,1,239,3,3,2,stim/32.jpeg,Instruments,2,stim/objects/Instruments/musicsheet2.png,0.9,3,-0.2,-0.15,right,17,2020-12-18_13h33.57.637,premup-three_ses-02_part-02_label-phase2,3.2.4,Win32,60,,,,,,,,,,,,,,,,,,,,,,,,,,,,,
left,0.488000154,0,14,1,0,1,0,1,0,1,0,240,159,1,239,2,2,4,stim/24.jpeg,Instruments,2,stim/objects/Instruments/marimba2.png,0.3,2,0.2,0.15,right,17,2020-12-18_13h33.57.637,premup-three_ses-02_part-02_label-phase2,3.2.4,Win32,60,,,,,,,,,,,,,,,,,,,,,,,,,,,,,
left,0.503000021,0,15,1,0,1,0,1,0,1,0,240,105,1,239,2,1,2,stim/12.jpeg,Instruments,2,stim/objects/Instruments/pipepiano.png,0.7,2,0.2,0.15,right,17,2020-12-18_13h33.57.637,premup-three_ses-02_part-02_label-phase2,3.2.4,Win32,60,,,,,,,,,,,,,,,,,,,,,,,,,,,,,
,,0,16,1,0,1,0,1,0,1,0,240,46,1,239,1,6,3,stim/63.jpeg,HouseObjects,1,stim/objects/HouseObjects/pan.png,0.5,4,0.2,-0.15,left,17,2020-12-18_13h33.57.637,premup-three_ses-02_part-02_label-phase2,3.2.4,Win32,60,,,,,,,,,,,,,,,,,,,,,,,,,,,,,
left,0.605000019,1,17,1,0,1,0,1,0,1,0,240,127,1,239,2,2,4,stim/24.jpeg,HouseObjects,1,stim/objects/HouseObjects/knife2.png,0.7,4,0.2,-0.15,left,17,2020-12-18_13h33.57.637,premup-three_ses-02_part-02_label-phase2,3.2.4,Win32,60,,,,,,,,,,,,,,,,,,,,,,,,,,,,,
left,0.81400013,1,18,1,0,1,0,1,0,1,0,240,48,1,239,1,6,1,stim/61.jpeg,HouseObjects,1,stim/objects/HouseObjects/lintroller.png,0.5,2,0.2,0.15,left,17,2020-12-18_13h33.57.637,premup-three_ses-02_part-02_label-phase2,3.2.4,Win32,60,,,,,,,,,,,,,,,,,,,,,,,,,,,,,
left,0.725000143,0,19,1,0,1,0,1,0,1,0,240,71,1,239,1,6,4,stim/64.jpeg,Instruments,2,stim/objects/Instruments/oboe.png,0.5,1,-0.2,0.15,right,17,2020-12-18_13h33.57.637,premup-three_ses-02_part-02_label-phase2,3.2.4,Win32,60,,,,,,,,,,,,,,,,,,,,,,,,,,,,,
left,0.590000153,0,20,1,0,1,0,1,0,1,0,240,119,1,239,2,1,4,stim/14.jpeg,Instruments,2,stim/objects/Instruments/record_player.png,0.7,4,0.2,-0.15,right,17,2020-12-18_13h33.57.637,premup-three_ses-02_part-02_label-phase2,3.2.4,Win32,60,,,,,,,,,,,,,,,,,,,,,,,,,,,,,
left,0.724000216,1,21,1,0,1,0,1,0,1,0,240,234,1,239,3,4,3,stim/43.jpeg,HouseObjects,1,stim/objects/HouseObjects/rubbergloves2.png,0.9,1,-0.2,0.15,left,17,2020-12-18_13h33.57.637,premup-three_ses-02_part-02_label-phase2,3.2.4,Win32,60,,,,,,,,,,,,,,,,,,,,,,,,,,,,,
left,0.73900032,1,22,1,0,1,0,1,0,1,0,240,10,1,239,1,5,3,stim/53.jpeg,HouseObjects,1,stim/objects/HouseObjects/key.png,0.5,3,-0.2,-0.15,left,17,2020-12-18_13h33.57.637,premup-three_ses-02_part-02_label-phase2,3.2.4,Win32,60,,,,,,,,,,,,,,,,,,,,,,,,,,,,,
left,0.950000048,0,23,1,0,1,0,1,0,1,0,240,28,1,239,1,5,1,stim/51.jpeg,Instruments,2,stim/objects/Instruments/keyboard.png,0.5,4,0.2,-0.15,right,17,2020-12-18_13h33.57.637,premup-three_ses-02_part-02_label-phase2,3.2.4,Win32,60,,,,,,,,,,,,,,,,,,,,,,,,,,,,,
left,0.647000074,0,24,1,0,1,0,1,0,1,0,240,32,1,239,1,5,1,stim/51.jpeg,Instruments,2,stim/objects/Instruments/keyboard.png,0.5,1,-0.2,0.15,right,17,2020-12-18_13h33.57.637,premup-three_ses-02_part-02_label-phase2,3.2.4,Win32,60,,,,,,,,,,,,,,,,,,,,,,,,,,,,,
left,0.921000242,0,25,1,0,1,0,1,0,1,0,240,73,1,239,1,6,2,stim/62.jpeg,Instruments,2,stim/objects/Instruments/musicsheet.png,0.5,1,-0.2,0.15,right,17,2020-12-18_13h33.57.637,premup-three_ses-02_part-02_label-phase2,3.2.4,Win32,60,,,,,,,,,,,,,,,,,,,,,,,,,,,,,
right,0.736000299,0,26,1,0,1,0,1,0,1,0,240,86,1,239,2,1,3,stim/13.jpeg,HouseObjects,1,stim/objects/HouseObjects/rubbergloves.png,0.3,4,0.2,-0.15,left,17,2020-12-18_13h33.57.637,premup-three_ses-02_part-02_label-phase2,3.2.4,Win32,60,,,,,,,,,,,,,,,,,,,,,,,,,,,,,
,,0,27,1,0,1,0,1,0,1,0,240,168,1,239,3,3,1,stim/31.jpeg,Instruments,2,stim/objects/Instruments/metronome2.png,0.9,4,0.2,-0.15,right,17,2020-12-18_13h33.57.637,premup-three_ses-02_part-02_label-phase2,3.2.4,Win32,60,,,,,,,,,,,,,,,,,,,,,,,,,,,,,
left,0.614000082,1,28,1,0,1,0,1,0,1,0,240,232,1,239,3,4,1,stim/41.jpeg,HouseObjects,1,stim/objects/HouseObjects/recyclingbin2.png,0.9,3,-0.2,-0.15,left,17,2020-12-18_13h33.57.637,premup-three_ses-02_part-02_label-phase2,3.2.4,Win32,60,,,,,,,,,,,,,,,,,,,,,,,,,,,,,
left,0.946000338,0,29,1,0,1,0,1,0,1,0,240,107,1,239,2,1,4,stim/14.jpeg,Instruments,2,stim/objects/Instruments/record_player.png,0.7,2,0.2,0.15,right,17,2020-12-18_13h33.57.637,premup-three_ses-02_part-02_label-phase2,3.2.4,Win32,60,,,,,,,,,,,,,,,,,,,,,,,,,,,,,
left,0.877000093,0,30,1,0,1,0,1,0,1,0,240,78,1,239,1,6,3,stim/63.jpeg,Instruments,2,stim/objects/Instruments/musicstand.png,0.5,2,0.2,0.15,right,17,2020-12-18_13h33.57.637,premup-three_ses-02_part-02_label-phase2,3.2.4,Win32,60,,,,,,,,,,,,,,,,,,,,,,,,,,,,,
,,0,31,1,0,1,0,1,0,1,0,240,196,1,239,3,3,1,stim/31.jpeg,Instruments,2,stim/objects/Instruments/metronome2.png,0.9,1,-0.2,0.15,right,17,2020-12-18_13h33.57.637,premup-three_ses-02_part-02_label-phase2,3.2.4,Win32,60,,,,,,,,,,,,,,,,,,,,,,,,,,,,,
left,0.498000145,1,32,1,0,1,0,1,0,1,0,240,11,1,239,1,5,4,stim/54.jpeg,HouseObjects,1,stim/objects/HouseObjects/knife.png,0.5,1,-0.2,0.15,left,17,2020-12-18_13h33.57.637,premup-three_ses-02_part-02_label-phase2,3.2.4,Win32,60,,,,,,,,,,,,,,,,,,,,,,,,,,,,,
right,0.74600029,1,33,1,0,1,0,1,0,1,0,240,115,1,239,2,1,4,stim/14.jpeg,Instruments,2,stim/objects/Instruments/record_player.png,0.7,4,0.2,-0.15,right,17,2020-12-18_13h33.57.637,premup-three_ses-02_part-02_label-phase2,3.2.4,Win32,60,,,,,,,,,,,,,,,,,,,,,,,,,,,,,
left,0.6650002,0,34,1,0,1,0,1,0,1,0,240,97,1,239,2,1,2,stim/12.jpeg,Instruments,2,stim/objects/Instruments/pipepiano.png,0.7,3,-0.2,-0.15,right,17,2020-12-18_13h33.57.637,premup-three_ses-02_part-02_label-phase2,3.2.4,Win32,60,,,,,,,,,,,,,,,,,,,,,,,,,,,,,
left,0.678000212,0,35,1,0,1,0,1,0,1,0,240,156,1,239,2,2,1,stim/21.jpeg,Instruments,2,stim/objects/Instruments/keyboard2.png,0.3,4,0.2,-0.15,right,17,2020-12-18_13h33.57.637,premup-three_ses-02_part-02_label-phase2,3.2.4,Win32,60,,,,,,,,,,,,,,,,,,,,,,,,,,,,,
left,0.73900032,0,36,1,0,1,0,1,0,1,0,240,74,1,239,1,6,3,stim/63.jpeg,Instruments,2,stim/objects/Instruments/musicstand.png,0.5,1,-0.2,0.15,right,17,2020-12-18_13h33.57.637,premup-three_ses-02_part-02_label-phase2,3.2.4,Win32,60,,,,,,,,,,,,,,,,,,,,,,,,,,,,,
right,0.630000353,0,37,1,0,1,0,1,0,1,0,240,87,1,239,2,1,4,stim/14.jpeg,HouseObjects,1,stim/objects/HouseObjects/rug.png,0.3,2,0.2,0.15,left,17,2020-12-18_13h33.57.637,premup-three_ses-02_part-02_label-phase2,3.2.4,Win32,60,,,,,,,,,,,,,,,,,,,,,,,,,,,,,
left,0.772000313,1,38,1,0,1,0,1,0,1,0,240,55,1,239,1,6,4,stim/64.jpeg,HouseObjects,1,stim/objects/HouseObjects/pitcher.png,0.5,1,-0.2,0.15,left,17,2020-12-18_13h33.57.637,premup-three_ses-02_part-02_label-phase2,3.2.4,Win32,60,,,,,,,,,,,,,,,,,,,,,,,,,,,,,
,,0,39,1,0,1,0,1,0,1,0,240,64,1,239,1,6,1,stim/61.jpeg,Instruments,2,stim/objects/Instruments/metronome.png,0.5,2,0.2,0.15,right,17,2020-12-18_13h33.57.637,premup-three_ses-02_part-02_label-phase2,3.2.4,Win32,60,,,,,,,,,,,,,,,,,,,,,,,,,,,,,
,,0,40,1,0,1,0,1,0,1,0,240,77,1,239,1,6,2,stim/62.jpeg,Instruments,2,stim/objects/Instruments/musicsheet.png,0.5,2,0.2,0.15,right,17,2020-12-18_13h33.57.637,premup-three_ses-02_part-02_label-phase2,3.2.4,Win32,60,,,,,,,,,,,,,,,,,,,,,,,,,,,,,
left,0.513000011,1,41,1,0,1,0,1,0,1,0,240,224,1,239,3,4,1,stim/41.jpeg,HouseObjects,1,stim/objects/HouseObjects/recyclingbin2.png,0.9,1,-0.2,0.15,left,17,2020-12-18_13h33.57.637,premup-three_ses-02_part-02_label-phase2,3.2.4,Win32,60,,,,,,,,,,,,,,,,,,,,,,,,,,,,,
left,0.45600009,0,42,1,0,1,0,1,0,1,0,240,31,1,239,1,5,4,stim/54.jpeg,Instruments,2,stim/objects/Instruments/marimba.png,0.5,3,-0.2,-0.15,right,17,2020-12-18_13h33.57.637,premup-three_ses-02_part-02_label-phase2,3.2.4,Win32,60,,,,,,,,,,,,,,,,,,,,,,,,,,,,,
left,0.468000174,1,43,1,0,1,0,1,0,1,0,240,212,1,239,3,4,1,stim/41.jpeg,HouseObjects,1,stim/objects/HouseObjects/recyclingbin2.png,0.9,3,-0.2,-0.15,left,17,2020-12-18_13h33.57.637,premup-three_ses-02_part-02_label-phase2,3.2.4,Win32,60,,,,,,,,,,,,,,,,,,,,,,,,,,,,,
left,0.536000252,1,44,1,0,1,0,1,0,1,0,240,120,1,239,2,2,1,stim/21.jpeg,HouseObjects,1,stim/objects/HouseObjects/iron2.png,0.7,1,-0.2,0.15,left,17,2020-12-18_13h33.57.637,premup-three_ses-02_part-02_label-phase2,3.2.4,Win32,60,,,,,,,,,,,,,,,,,,,,,,,,,,,,,
right,0.594000101,0,45,1,0,1,0,1,0,1,0,240,59,1,239,1,6,4,stim/64.jpeg,HouseObjects,1,stim/objects/HouseObjects/pitcher.png,0.5,4,0.2,-0.15,left,17,2020-12-18_13h33.57.637,premup-three_ses-02_part-02_label-phase2,3.2.4,Win32,60,,,,,,,,,,,,,,,,,,,,,,,,,,,,,
left,0.821000338,1,46,1,0,1,0,1,0,1,0,240,57,1,239,1,6,2,stim/62.jpeg,HouseObjects,1,stim/objects/HouseObjects/match.png,0.5,3,-0.2,-0.15,left,17,2020-12-18_13h33.57.637,premup-three_ses-02_part-02_label-phase2,3.2.4,Win32,60,,,,,,,,,,,,,,,,,,,,,,,,,,,,,
left,0.601000071,1,47,1,0,1,0,1,0,1,0,240,16,1,239,1,5,1,stim/51.jpeg,HouseObjects,1,stim/objects/HouseObjects/iron.png,0.5,1,-0.2,0.15,left,17,2020-12-18_13h33.57.637,premup-three_ses-02_part-02_label-phase2,3.2.4,Win32,60,,,,,,,,,,,,,,,,,,,,,,,,,,,,,
right,0.788000107,1,48,1,0,1,0,1,0,1,0,240,194,1,239,3,3,3,stim/33.jpeg,Instruments,2,stim/objects/Instruments/musicstand2.png,0.9,1,-0.2,0.15,right,17,2020-12-18_13h33.57.637,premup-three_ses-02_part-02_label-phase2,3.2.4,Win32,60,,,,,,,,,,,,,,,,,,,,,,,,,,,,,
left,0.68900013,0,49,1,0,1,0,1,0,1,0,240,39,1,239,1,5,4,stim/54.jpeg,Instruments,2,stim/objects/Instruments/marimba.png,0.5,3,-0.2,-0.15,right,17,2020-12-18_13h33.57.637,premup-three_ses-02_part-02_label-phase2,3.2.4,Win32,60,,,,,,,,,,,,,,,,,,,,,,,,,,,,,
left,0.593000174,1,50,1,0,1,0,1,0,1,0,240,230,1,239,3,4,3,stim/43.jpeg,HouseObjects,1,stim/objects/HouseObjects/rubbergloves2.png,0.9,3,-0.2,-0.15,left,17,2020-12-18_13h33.57.637,premup-three_ses-02_part-02_label-phase2,3.2.4,Win32,60,,,,,,,,,,,,,,,,,,,,,,,,,,,,,
left,0.748000145,0,51,1,0,1,0,1,0,1,0,240,111,1,239,2,1,4,stim/14.jpeg,Instruments,2,stim/objects/Instruments/record_player.png,0.7,3,-0.2,-0.15,right,17,2020-12-18_13h33.57.637,premup-three_ses-02_part-02_label-phase2,3.2.4,Win32,60,,,,,,,,,,,,,,,,,,,,,,,,,,,,,
left,0.703999996,0,52,1,0,1,0,1,0,1,0,240,69,1,239,1,6,2,stim/62.jpeg,Instruments,2,stim/objects/Instruments/musicsheet.png,0.5,1,-0.2,0.15,right,17,2020-12-18_13h33.57.637,premup-three_ses-02_part-02_label-phase2,3.2.4,Win32,60,,,,,,,,,,,,,,,,,,,,,,,,,,,,,
left,0.742000103,1,53,1,0,1,0,1,0,1,0,240,215,1,239,3,4,4,stim/44.jpeg,HouseObjects,1,stim/objects/HouseObjects/rug2.png,0.9,4,0.2,-0.15,left,17,2020-12-18_13h33.57.637,premup-three_ses-02_part-02_label-phase2,3.2.4,Win32,60,,,,,,,,,,,,,,,,,,,,,,,,,,,,,
left,0.852000237,1,54,1,0,1,0,1,0,1,0,240,131,1,239,2,2,4,stim/24.jpeg,HouseObjects,1,stim/objects/HouseObjects/knife2.png,0.7,2,0.2,0.15,left,17,2020-12-18_13h33.57.637,premup-three_ses-02_part-02_label-phase2,3.2.4,Win32,60,,,,,,,,,,,,,,,,,,,,,,,,,,,,,
left,0.541000128,0,55,1,0,1,0,1,0,1,0,240,109,1,239,2,1,2,stim/12.jpeg,Instruments,2,stim/objects/Instruments/pipepiano.png,0.7,2,0.2,0.15,right,17,2020-12-18_13h33.57.637,premup-three_ses-02_part-02_label-phase2,3.2.4,Win32,60,,,,,,,,,,,,,,,,,,,,,,,,,,,,,
left,0.534000158,0,56,1,0,1,0,1,0,1,0,240,24,1,239,1,5,1,stim/51.jpeg,Instruments,2,stim/objects/Instruments/keyboard.png,0.5,1,-0.2,0.15,right,17,2020-12-18_13h33.57.637,premup-three_ses-02_part-02_label-phase2,3.2.4,Win32,60,,,,,,,,,,,,,,,,,,,,,,,,,,,,,
left,0.583000183,0,57,1,0,1,0,1,0,1,0,240,21,1,239,1,5,2,stim/52.jpeg,Instruments,2,stim/objects/Instruments/laud.png,0.5,2,0.2,0.15,right,17,2020-12-18_13h33.57.637,premup-three_ses-02_part-02_label-phase2,3.2.4,Win32,60,,,,,,,,,,,,,,,,,,,,,,,,,,,,,
left,0.960000038,1,58,1,0,1,0,1,0,1,0,240,5,1,239,1,5,2,stim/52.jpeg,HouseObjects,1,stim/objects/HouseObjects/ironingboard.png,0.5,3,-0.2,-0.15,left,17,2020-12-18_13h33.57.637,premup-three_ses-02_part-02_label-phase2,3.2.4,Win32,60,,,,,,,,,,,,,,,,,,,,,,,,,,,,,
right,0.647000074,1,59,1,0,1,0,1,0,1,0,240,176,1,239,3,3,1,stim/31.jpeg,Instruments,2,stim/objects/Instruments/metronome2.png,0.9,2,0.2,0.15,right,17,2020-12-18_13h33.57.637,premup-three_ses-02_part-02_label-phase2,3.2.4,Win32,60,,,,,,,,,,,,,,,,,,,,,,,,,,,,,
right,0.588000059,1,60,1,0,1,0,1,0,1,0,240,181,1,239,3,3,2,stim/32.jpeg,Instruments,2,stim/objects/Instruments/musicsheet2.png,0.9,4,0.2,-0.15,right,17,2020-12-18_13h33.57.637,premup-three_ses-02_part-02_label-phase2,3.2.4,Win32,60,,,,,,,,,,,,,,,,,,,,,,,,,,,,,
right,0.55700016,0,61,1,0,1,0,1,0,1,0,240,40,1,239,1,6,1,stim/61.jpeg,HouseObjects,1,stim/objects/HouseObjects/lintroller.png,0.5,4,0.2,-0.15,left,17,2020-12-18_13h33.57.637,premup-three_ses-02_part-02_label-phase2,3.2.4,Win32,60,,,,,,,,,,,,,,,,,,,,,,,,,,,,,
right,0.832999945,0,62,1,0,1,0,1,0,1,0,240,7,1,239,1,5,4,stim/54.jpeg,HouseObjects,1,stim/objects/HouseObjects/knife.png,0.5,2,0.2,0.15,left,17,2020-12-18_13h33.57.637,premup-three_ses-02_part-02_label-phase2,3.2.4,Win32,60,,,,,,,,,,,,,,,,,,,,,,,,,,,,,
right,0.690000057,0,63,1,0,1,0,1,0,1,0,240,91,1,239,2,1,4,stim/14.jpeg,HouseObjects,1,stim/objects/HouseObjects/rug.png,0.3,3,-0.2,-0.15,left,17,2020-12-18_13h33.57.637,premup-three_ses-02_part-02_label-phase2,3.2.4,Win32,60,,,,,,,,,,,,,,,,,,,,,,,,,,,,,
left,0.777000189,1,64,1,0,1,0,1,0,1,0,240,222,1,239,3,4,3,stim/43.jpeg,HouseObjects,1,stim/objects/HouseObjects/rubbergloves2.png,0.9,4,0.2,-0.15,left,17,2020-12-18_13h33.57.637,premup-three_ses-02_part-02_label-phase2,3.2.4,Win32,60,,,,,,,,,,,,,,,,,,,,,,,,,,,,,
right,0.646000147,1,65,1,0,1,0,1,0,1,0,240,188,1,239,3,3,1,stim/31.jpeg,Instruments,2,stim/objects/Instruments/metronome2.png,0.9,3,-0.2,-0.15,right,17,2020-12-18_13h33.57.637,premup-three_ses-02_part-02_label-phase2,3.2.4,Win32,60,,,,,,,,,,,,,,,,,,,,,,,,,,,,,
right,0.773000002,1,66,1,0,1,0,1,0,1,0,240,76,1,239,1,6,1,stim/61.jpeg,Instruments,2,stim/objects/Instruments/metronome.png,0.5,3,-0.2,-0.15,right,17,2020-12-18_13h33.57.637,premup-three_ses-02_part-02_label-phase2,3.2.4,Win32,60,,,,,,,,,,,,,,,,,,,,,,,,,,,,,
left,0.650000095,1,67,1,0,1,0,1,0,1,0,240,211,1,239,3,4,4,stim/44.jpeg,HouseObjects,1,stim/objects/HouseObjects/rug2.png,0.9,4,0.2,-0.15,left,17,2020-12-18_13h33.57.637,premup-three_ses-02_part-02_label-phase2,3.2.4,Win32,60,,,,,,,,,,,,,,,,,,,,,,,,,,,,,
left,0.602000237,1,68,1,0,1,0,1,0,1,0,240,12,1,239,1,5,1,stim/51.jpeg,HouseObjects,1,stim/objects/HouseObjects/iron.png,0.5,2,0.2,0.15,left,17,2020-12-18_13h33.57.637,premup-three_ses-02_part-02_label-phase2,3.2.4,Win32,60,,,,,,,,,,,,,,,,,,,,,,,,,,,,,
left,0.695000172,1,69,1,0,1,0,1,0,1,0,240,88,1,239,2,1,1,stim/11.jpeg,HouseObjects,1,stim/objects/HouseObjects/recyclingbin.png,0.3,2,0.2,0.15,left,17,2020-12-18_13h33.57.637,premup-three_ses-02_part-02_label-phase2,3.2.4,Win32,60,,,,,,,,,,,,,,,,,,,,,,,,,,,,,
right,0.577000141,0,70,1,0,1,0,1,0,1,0,240,44,1,239,1,6,1,stim/61.jpeg,HouseObjects,1,stim/objects/HouseObjects/lintroller.png,0.5,4,0.2,-0.15,left,17,2020-12-18_13h33.57.637,premup-three_ses-02_part-02_label-phase2,3.2.4,Win32,60,,,,,,,,,,,,,,,,,,,,,,,,,,,,,
left,0.637000084,0,71,1,0,1,0,1,0,1,0,240,33,1,239,1,5,2,stim/52.jpeg,Instruments,2,stim/objects/Instruments/laud.png,0.5,4,0.2,-0.15,right,17,2020-12-18_13h33.57.637,premup-three_ses-02_part-02_label-phase2,3.2.4,Win32,60,,,,,,,,,,,,,,,,,,,,,,,,,,,,,
left,0.740000248,0,72,1,0,1,0,1,0,1,0,240,108,1,239,2,1,1,stim/11.jpeg,Instruments,2,stim/objects/Instruments/panflute.png,0.7,1,-0.2,0.15,right,17,2020-12-18_13h33.57.637,premup-three_ses-02_part-02_label-phase2,3.2.4,Win32,60,,,,,,,,,,,,,,,,,,,,,,,,,,,,,
left,0.762000084,1,73,1,0,1,0,1,0,1,0,240,221,1,239,3,4,2,stim/42.jpeg,HouseObjects,1,stim/objects/HouseObjects/remote2.png,0.9,3,-0.2,-0.15,left,17,2020-12-18_13h33.57.637,premup-three_ses-02_part-02_label-phase2,3.2.4,Win32,60,,,,,,,,,,,,,,,,,,,,,,,,,,,,,
left,0.642000198,1,74,1,0,1,0,1,0,1,0,240,206,1,239,3,4,3,stim/43.jpeg,HouseObjects,1,stim/objects/HouseObjects/rubbergloves2.png,0.9,3,-0.2,-0.15,left,17,2020-12-18_13h33.57.637,premup-three_ses-02_part-02_label-phase2,3.2.4,Win32,60,,,,,,,,,,,,,,,,,,,,,,,,,,,,,
left,0.631000042,0,75,1,0,1,0,1,0,1,0,240,92,1,239,2,1,1,stim/11.jpeg,Instruments,2,stim/objects/Instruments/panflute.png,0.7,1,-0.2,0.15,right,17,2020-12-18_13h33.57.637,premup-three_ses-02_part-02_label-phase2,3.2.4,Win32,60,,,,,,,,,,,,,,,,,,,,,,,,,,,,,
,,0,76,1,0,1,0,1,0,1,0,240,113,1,239,2,1,2,stim/12.jpeg,Instruments,2,stim/objects/Instruments/pipepiano.png,0.7,1,-0.2,0.15,right,17,2020-12-18_13h33.57.637,premup-three_ses-02_part-02_label-phase2,3.2.4,Win32,60,,,,,,,,,,,,,,,,,,,,,,,,,,,,,
right,0.50600028,1,77,1,0,1,0,1,0,1,0,240,104,1,239,2,1,1,stim/11.jpeg,Instruments,2,stim/objects/Instruments/panflute.png,0.7,3,-0.2,-0.15,right,17,2020-12-18_13h33.57.637,premup-three_ses-02_part-02_label-phase2,3.2.4,Win32,60,,,,,,,,,,,,,,,,,,,,,,,,,,,,,
right,0.818000078,0,78,1,0,1,0,1,0,1,0,240,58,1,239,1,6,3,stim/63.jpeg,HouseObjects,1,stim/objects/HouseObjects/pan.png,0.5,1,-0.2,0.15,left,17,2020-12-18_13h33.57.637,premup-three_ses-02_part-02_label-phase2,3.2.4,Win32,60,,,,,,,,,,,,,,,,,,,,,,,,,,,,,
left,0.590000153,1,79,1,0,1,0,1,0,1,0,240,138,1,239,2,2,3,stim/23.jpeg,HouseObjects,1,stim/objects/HouseObjects/key2.png,0.7,1,-0.2,0.15,left,17,2020-12-18_13h33.57.637,premup-three_ses-02_part-02_label-phase2,3.2.4,Win32,60,,,,,,,,,,,,,,,,,,,,,,,,,,,,,
left,0.609000206,0,80,1,0,1,0,1,0,1,0,240,101,1,239,2,1,2,stim/12.jpeg,Instruments,2,stim/objects/Instruments/pipepiano.png,0.7,3,-0.2,-0.15,right,17,2020-12-18_13h33.57.637,premup-three_ses-02_part-02_label-phase2,3.2.4,Win32,60,,,,,,,,,,,,,,,,,,,,,,,,,,,,,
left,0.605000257,0,81,1,0,1,0,1,0,1,0,240,158,1,239,2,2,3,stim/23.jpeg,Instruments,2,stim/objects/Instruments/maraca2.png,0.3,1,-0.2,0.15,right,17,2020-12-18_13h33.57.637,premup-three_ses-02_part-02_label-phase2,3.2.4,Win32,60,,,,,,,,,,,,,,,,,,,,,,,,,,,,,
left,0.539999962,0,82,1,0,1,0,1,0,1,0,240,66,1,239,1,6,3,stim/63.jpeg,Instruments,2,stim/objects/Instruments/musicstand.png,0.5,1,-0.2,0.15,right,17,2020-12-18_13h33.57.637,premup-three_ses-02_part-02_label-phase2,3.2.4,Win32,60,,,,,,,,,,,,,,,,,,,,,,,,,,,,,
left,0.851000309,1,83,1,0,1,0,1,0,1,0,240,45,1,239,1,6,2,stim/62.jpeg,HouseObjects,1,stim/objects/HouseObjects/match.png,0.5,4,0.2,-0.15,left,17,2020-12-18_13h33.57.637,premup-three_ses-02_part-02_label-phase2,3.2.4,Win32,60,,,,,,,,,,,,,,,,,,,,,,,,,,,,,
right,0.350000143,1,84,1,0,1,0,1,0,1,0,240,60,1,239,1,6,1,stim/61.jpeg,Instruments,2,stim/objects/Instruments/metronome.png,0.5,2,0.2,0.15,right,17,2020-12-18_13h33.57.637,premup-three_ses-02_part-02_label-phase2,3.2.4,Win32,60,,,,,,,,,,,,,,,,,,,,,,,,,,,,,
right,0.596000195,1,85,1,0,1,0,1,0,1,0,240,170,1,239,3,3,3,stim/33.jpeg,Instruments,2,stim/objects/Instruments/musicstand2.png,0.9,1,-0.2,0.15,right,17,2020-12-18_13h33.57.637,premup-three_ses-02_part-02_label-phase2,3.2.4,Win32,60,,,,,,,,,,,,,,,,,,,,,,,,,,,,,
right,0.508000374,1,86,1,0,1,0,1,0,1,0,240,166,1,239,3,3,3,stim/33.jpeg,Instruments,2,stim/objects/Instruments/musicstand2.png,0.9,2,0.2,0.15,right,17,2020-12-18_13h33.57.637,premup-three_ses-02_part-02_label-phase2,3.2.4,Win32,60,,,,,,,,,,,,,,,,,,,,,,,,,,,,,
left,0.569000244,1,87,1,0,1,0,1,0,1,0,240,228,1,239,3,4,1,stim/41.jpeg,HouseObjects,1,stim/objects/HouseObjects/recyclingbin2.png,0.9,1,-0.2,0.15,left,17,2020-12-18_13h33.57.637,premup-three_ses-02_part-02_label-phase2,3.2.4,Win32,60,,,,,,,,,,,,,,,,,,,,,,,,,,,,,
left,0.847000122,1,88,1,0,1,0,1,0,1,0,240,15,1,239,1,5,4,stim/54.jpeg,HouseObjects,1,stim/objects/HouseObjects/knife.png,0.5,3,-0.2,-0.15,left,17,2020-12-18_13h33.57.637,premup-three_ses-02_part-02_label-phase2,3.2.4,Win32,60,,,,,,,,,,,,,,,,,,,,,,,,,,,,,
right,0.7900002,1,89,1,0,1,0,1,0,1,0,240,63,1,239,1,6,4,stim/64.jpeg,Instruments,2,stim/objects/Instruments/oboe.png,0.5,3,-0.2,-0.15,right,17,2020-12-18_13h33.57.637,premup-three_ses-02_part-02_label-phase2,3.2.4,Win32,60,,,,,,,,,,,,,,,,,,,,,,,,,,,,,
left,0.535000086,1,90,1,0,1,0,1,0,1,0,240,204,1,239,3,4,1,stim/41.jpeg,HouseObjects,1,stim/objects/HouseObjects/recyclingbin2.png,0.9,3,-0.2,-0.15,left,17,2020-12-18_13h33.57.637,premup-three_ses-02_part-02_label-phase2,3.2.4,Win32,60,,,,,,,,,,,,,,,,,,,,,,,,,,,,,
left,0.651000261,1,91,1,0,1,0,1,0,1,0,240,123,1,239,2,2,4,stim/24.jpeg,HouseObjects,1,stim/objects/HouseObjects/knife2.png,0.7,4,0.2,-0.15,left,17,2020-12-18_13h33.57.637,premup-three_ses-02_part-02_label-phase2,3.2.4,Win32,60,,,,,,,,,,,,,,,,,,,,,,,,,,,,,
right,0.927000284,0,92,1,0,1,0,1,0,1,0,240,3,1,239,1,5,4,stim/54.jpeg,HouseObjects,1,stim/objects/HouseObjects/knife.png,0.5,4,0.2,-0.15,left,17,2020-12-18_13h33.57.637,premup-three_ses-02_part-02_label-phase2,3.2.4,Win32,60,,,,,,,,,,,,,,,,,,,,,,,,,,,,,
right,0.690000057,1,93,1,0,1,0,1,0,1,0,240,72,1,239,1,6,1,stim/61.jpeg,Instruments,2,stim/objects/Instruments/metronome.png,0.5,1,-0.2,0.15,right,17,2020-12-18_13h33.57.637,premup-three_ses-02_part-02_label-phase2,3.2.4,Win32,60,,,,,,,,,,,,,,,,,,,,,,,,,,,,,
right,0.680999994,0,94,1,0,1,0,1,0,1,0,240,83,1,239,2,1,4,stim/14.jpeg,HouseObjects,1,stim/objects/HouseObjects/rug.png,0.3,4,0.2,-0.15,left,17,2020-12-18_13h33.57.637,premup-three_ses-02_part-02_label-phase2,3.2.4,Win32,60,,,,,,,,,,,,,,,,,,,,,,,,,,,,,
right,0.604000092,0,95,1,0,1,0,1,0,1,0,240,163,1,239,3,3,4,stim/34.jpeg,HouseObjects,1,stim/objects/HouseObjects/pitcher2.png,0.1,3,-0.2,-0.15,left,17,2020-12-18_13h33.57.637,premup-three_ses-02_part-02_label-phase2,3.2.4,Win32,60,,,,,,,,,,,,,,,,,,,,,,,,,,,,,
right,0.534000158,1,96,1,0,1,0,1,0,1,0,240,198,1,239,3,3,3,stim/33.jpeg,Instruments,2,stim/objects/Instruments/musicstand2.png,0.9,2,0.2,0.15,right,17,2020-12-18_13h33.57.637,premup-three_ses-02_part-02_label-phase2,3.2.4,Win32,60,,,,,,,,,,,,,,,,,,,,,,,,,,,,,
left,0.825999975,1,97,1,0,1,0,1,0,1,0,240,6,1,239,1,5,3,stim/53.jpeg,HouseObjects,1,stim/objects/HouseObjects/key.png,0.5,4,0.2,-0.15,left,17,2020-12-18_13h33.57.637,premup-three_ses-02_part-02_label-phase2,3.2.4,Win32,60,,,,,,,,,,,,,,,,,,,,,,,,,,,,,
right,0.779999971,1,98,1,0,1,0,1,0,1,0,240,190,1,239,3,3,3,stim/33.jpeg,Instruments,2,stim/objects/Instruments/musicstand2.png,0.9,2,0.2,0.15,right,17,2020-12-18_13h33.57.637,premup-three_ses-02_part-02_label-phase2,3.2.4,Win32,60,,,,,,,,,,,,,,,,,,,,,,,,,,,,,
right,0.652000189,1,99,1,0,1,0,1,0,1,0,240,68,1,239,1,6,1,stim/61.jpeg,Instruments,2,stim/objects/Instruments/metronome.png,0.5,3,-0.2,-0.15,right,17,2020-12-18_13h33.57.637,premup-three_ses-02_part-02_label-phase2,3.2.4,Win32,60,,,,,,,,,,,,,,,,,,,,,,,,,,,,,
right,0.597000122,1,100,1,0,1,0,1,0,1,0,240,178,1,239,3,3,3,stim/33.jpeg,Instruments,2,stim/objects/Instruments/musicstand2.png,0.9,4,0.2,-0.15,right,17,2020-12-18_13h33.57.637,premup-three_ses-02_part-02_label-phase2,3.2.4,Win32,60,,,,,,,,,,,,,,,,,,,,,,,,,,,,,
right,0.605000019,1,101,1,0,1,0,1,0,1,0,240,175,1,239,3,3,4,stim/34.jpeg,Instruments,2,stim/objects/Instruments/oboe2.png,0.9,2,0.2,0.15,right,17,2020-12-18_13h33.57.637,premup-three_ses-02_part-02_label-phase2,3.2.4,Win32,60,,,,,,,,,,,,,,,,,,,,,,,,,,,,,
left,0.616000175,1,102,1,0,1,0,1,0,1,0,240,226,1,239,3,4,3,stim/43.jpeg,HouseObjects,1,stim/objects/HouseObjects/rubbergloves2.png,0.9,2,0.2,0.15,left,17,2020-12-18_13h33.57.637,premup-three_ses-02_part-02_label-phase2,3.2.4,Win32,60,,,,,,,,,,,,,,,,,,,,,,,,,,,,,
right,0.594000101,0,103,1,0,1,0,1,0,1,0,240,161,1,239,3,3,2,stim/32.jpeg,HouseObjects,1,stim/objects/HouseObjects/match2.png,0.1,4,0.2,-0.15,left,17,2020-12-18_13h33.57.637,premup-three_ses-02_part-02_label-phase2,3.2.4,Win32,60,,,,,,,,,,,,,,,,,,,,,,,,,,,,,
left,0.845000029,1,104,1,0,1,0,1,0,1,0,240,143,1,239,2,2,4,stim/24.jpeg,HouseObjects,1,stim/objects/HouseObjects/knife2.png,0.7,3,-0.2,-0.15,left,17,2020-12-18_13h33.57.637,premup-three_ses-02_part-02_label-phase2,3.2.4,Win32,60,,,,,,,,,,,,,,,,,,,,,,,,,,,,,
left,0.47300005,1,105,1,0,1,0,1,0,1,0,240,126,1,239,2,2,3,stim/23.jpeg,HouseObjects,1,stim/objects/HouseObjects/key2.png,0.7,1,-0.2,0.15,left,17,2020-12-18_13h33.57.637,premup-three_ses-02_part-02_label-phase2,3.2.4,Win32,60,,,,,,,,,,,,,,,,,,,,,,,,,,,,,
right,0.613000154,1,106,1,0,1,0,1,0,1,0,240,62,1,239,1,6,3,stim/63.jpeg,Instruments,2,stim/objects/Instruments/musicstand.png,0.5,4,0.2,-0.15,right,17,2020-12-18_13h33.57.637,premup-three_ses-02_part-02_label-phase2,3.2.4,Win32,60,,,,,,,,,,,,,,,,,,,,,,,,,,,,,
left,0.526000261,1,107,1,0,1,0,1,0,1,0,240,132,1,239,2,2,1,stim/21.jpeg,HouseObjects,1,stim/objects/HouseObjects/iron2.png,0.7,1,-0.2,0.15,left,17,2020-12-18_13h33.57.637,premup-three_ses-02_part-02_label-phase2,3.2.4,Win32,60,,,,,,,,,,,,,,,,,,,,,,,,,,,,,
left,0.458000183,1,108,1,0,1,0,1,0,1,0,240,124,1,239,2,2,1,stim/21.jpeg,HouseObjects,1,stim/objects/HouseObjects/iron2.png,0.7,1,-0.2,0.15,left,17,2020-12-18_13h33.57.637,premup-three_ses-02_part-02_label-phase2,3.2.4,Win32,60,,,,,,,,,,,,,,,,,,,,,,,,,,,,,
left,0.636000156,0,109,1,0,1,0,1,0,1,0,240,238,1,239,3,4,3,stim/43.jpeg,Instruments,2,stim/objects/Instruments/record2.png,0.1,3,-0.2,-0.15,right,17,2020-12-18_13h33.57.637,premup-three_ses-02_part-02_label-phase2,3.2.4,Win32,60,,,,,,,,,,,,,,,,,,,,,,,,,,,,,
left,0.411000252,0,110,1,0,1,0,1,0,1,0,240,195,1,239,3,3,4,stim/34.jpeg,Instruments,2,stim/objects/Instruments/oboe2.png,0.9,3,-0.2,-0.15,right,17,2020-12-18_13h33.57.637,premup-three_ses-02_part-02_label-phase2,3.2.4,Win32,60,,,,,,,,,,,,,,,,,,,,,,,,,,,,,
left,0.568000078,0,111,1,0,1,0,1,0,1,0,240,93,1,239,2,1,2,stim/12.jpeg,Instruments,2,stim/objects/Instruments/pipepiano.png,0.7,1,-0.2,0.15,right,17,2020-12-18_13h33.57.637,premup-three_ses-02_part-02_label-phase2,3.2.4,Win32,60,,,,,,,,,,,,,,,,,,,,,,,,,,,,,
right,0.487000227,1,112,1,0,1,0,1,0,1,0,240,172,1,239,3,3,1,stim/31.jpeg,Instruments,2,stim/objects/Instruments/metronome2.png,0.9,1,-0.2,0.15,right,17,2020-12-18_13h33.57.637,premup-three_ses-02_part-02_label-phase2,3.2.4,Win32,60,,,,,,,,,,,,,,,,,,,,,,,,,,,,,
right,0.761000156,1,113,1,0,1,0,1,0,1,0,240,29,1,239,1,5,2,stim/52.jpeg,Instruments,2,stim/objects/Instruments/laud.png,0.5,2,0.2,0.15,right,17,2020-12-18_13h33.57.637,premup-three_ses-02_part-02_label-phase2,3.2.4,Win32,60,,,,,,,,,,,,,,,,,,,,,,,,,,,,,
right,0.467999935,1,114,1,0,1,0,1,0,1,0,240,183,1,239,3,3,4,stim/34.jpeg,Instruments,2,stim/objects/Instruments/oboe2.png,0.9,1,-0.2,0.15,right,17,2020-12-18_13h33.57.637,premup-three_ses-02_part-02_label-phase2,3.2.4,Win32,60,,,,,,,,,,,,,,,,,,,,,,,,,,,,,
right,0.417999983,1,115,1,0,1,0,1,0,1,0,240,197,1,239,3,3,2,stim/32.jpeg,Instruments,2,stim/objects/Instruments/musicsheet2.png,0.9,4,0.2,-0.15,right,17,2020-12-18_13h33.57.637,premup-three_ses-02_part-02_label-phase2,3.2.4,Win32,60,,,,,,,,,,,,,,,,,,,,,,,,,,,,,
right,0.578000069,1,116,1,0,1,0,1,0,1,0,240,61,1,239,1,6,2,stim/62.jpeg,Instruments,2,stim/objects/Instruments/musicsheet.png,0.5,4,0.2,-0.15,right,17,2020-12-18_13h33.57.637,premup-three_ses-02_part-02_label-phase2,3.2.4,Win32,60,,,,,,,,,,,,,,,,,,,,,,,,,,,,,
right,0.777000189,1,117,1,0,1,0,1,0,1,0,240,34,1,239,1,5,3,stim/53.jpeg,Instruments,2,stim/objects/Instruments/maraca.png,0.5,2,0.2,0.15,right,17,2020-12-18_13h33.57.637,premup-three_ses-02_part-02_label-phase2,3.2.4,Win32,60,,,,,,,,,,,,,,,,,,,,,,,,,,,,,
left,0.845000267,1,118,1,0,1,0,1,0,1,0,240,19,1,239,1,5,4,stim/54.jpeg,HouseObjects,1,stim/objects/HouseObjects/knife.png,0.5,4,0.2,-0.15,left,17,2020-12-18_13h33.57.637,premup-three_ses-02_part-02_label-phase2,3.2.4,Win32,60,,,,,,,,,,,,,,,,,,,,,,,,,,,,,
right,0.650000095,1,119,1,0,1,0,1,0,1,0,240,184,1,239,3,3,1,stim/31.jpeg,Instruments,2,stim/objects/Instruments/metronome2.png,0.9,3,-0.2,-0.15,right,17,2020-12-18_13h33.57.637,premup-three_ses-02_part-02_label-phase2,3.2.4,Win32,60,,,,,,,,,,,,,,,,,,,,,,,,,,,,,
,,0,120,1,0,1,0,1,0,1,0,240,202,1,239,3,4,3,stim/43.jpeg,HouseObjects,1,stim/objects/HouseObjects/rubbergloves2.png,0.9,4,0.2,-0.15,left,17,2020-12-18_13h33.57.637,premup-three_ses-02_part-02_label-phase2,3.2.4,Win32,60,,,,,,,,,,,,,,,,,,,,,,,,,,,,,
right,0.477000237,1,121,1,0,1,0,1,0,1,0,240,165,1,239,3,3,2,stim/32.jpeg,Instruments,2,stim/objects/Instruments/musicsheet2.png,0.9,4,0.2,-0.15,right,17,2020-12-18_13h33.57.637,premup-three_ses-02_part-02_label-phase2,3.2.4,Win32,60,,,,,,,,,,,,,,,,,,,,,,,,,,,,,
right,0.495000124,1,122,1,0,1,0,1,0,1,0,240,174,1,239,3,3,3,stim/33.jpeg,Instruments,2,stim/objects/Instruments/musicstand2.png,0.9,2,0.2,0.15,right,17,2020-12-18_13h33.57.637,premup-three_ses-02_part-02_label-phase2,3.2.4,Win32,60,,,,,,,,,,,,,,,,,,,,,,,,,,,,,
right,0.680999994,1,123,1,0,1,0,1,0,1,0,240,98,1,239,2,1,3,stim/13.jpeg,Instruments,2,stim/objects/Instruments/record.png,0.7,2,0.2,0.15,right,17,2020-12-18_13h33.57.637,premup-three_ses-02_part-02_label-phase2,3.2.4,Win32,60,,,,,,,,,,,,,,,,,,,,,,,,,,,,,
left,0.586000204,1,124,1,0,1,0,1,0,1,0,240,142,1,239,2,2,3,stim/23.jpeg,HouseObjects,1,stim/objects/HouseObjects/key2.png,0.7,3,-0.2,-0.15,left,17,2020-12-18_13h33.57.637,premup-three_ses-02_part-02_label-phase2,3.2.4,Win32,60,,,,,,,,,,,,,,,,,,,,,,,,,,,,,
left,0.746000051,1,125,1,0,1,0,1,0,1,0,240,227,1,239,3,4,4,stim/44.jpeg,HouseObjects,1,stim/objects/HouseObjects/rug2.png,0.9,2,0.2,0.15,left,17,2020-12-18_13h33.57.637,premup-three_ses-02_part-02_label-phase2,3.2.4,Win32,60,,,,,,,,,,,,,,,,,,,,,,,,,,,,,
left,0.556000233,1,126,1,0,1,0,1,0,1,0,240,216,1,239,3,4,1,stim/41.jpeg,HouseObjects,1,stim/objects/HouseObjects/recyclingbin2.png,0.9,2,0.2,0.15,left,17,2020-12-18_13h33.57.637,premup-three_ses-02_part-02_label-phase2,3.2.4,Win32,60,,,,,,,,,,,,,,,,,,,,,,,,,,,,,
left,0.736999989,1,127,1,0,1,0,1,0,1,0,240,233,1,239,3,4,2,stim/42.jpeg,HouseObjects,1,stim/objects/HouseObjects/remote2.png,0.9,1,-0.2,0.15,left,17,2020-12-18_13h33.57.637,premup-three_ses-02_part-02_label-phase2,3.2.4,Win32,60,,,,,,,,,,,,,,,,,,,,,,,,,,,,,
right,0.603000164,1,128,1,0,1,0,1,0,1,0,240,26,1,239,1,5,3,stim/53.jpeg,Instruments,2,stim/objects/Instruments/maraca.png,0.5,2,0.2,0.15,right,17,2020-12-18_13h33.57.637,premup-three_ses-02_part-02_label-phase2,3.2.4,Win32,60,,,,,,,,,,,,,,,,,,,,,,,,,,,,,
left,0.537000179,0,129,1,0,1,0,1,0,1,0,240,150,1,239,2,2,3,stim/23.jpeg,Instruments,2,stim/objects/Instruments/maraca2.png,0.3,1,-0.2,0.15,right,17,2020-12-18_13h33.57.637,premup-three_ses-02_part-02_label-phase2,3.2.4,Win32,60,,,,,,,,,,,,,,,,,,,,,,,,,,,,,
left,0.527000189,1,130,1,0,1,0,1,0,1,0,240,9,1,239,1,5,2,stim/52.jpeg,HouseObjects,1,stim/objects/HouseObjects/ironingboard.png,0.5,2,0.2,0.15,left,17,2020-12-18_13h33.57.637,premup-three_ses-02_part-02_label-phase2,3.2.4,Win32,60,,,,,,,,,,,,,,,,,,,,,,,,,,,,,
left,0.59400034,0,131,1,0,1,0,1,0,1,0,240,112,1,239,2,1,1,stim/11.jpeg,Instruments,2,stim/objects/Instruments/panflute.png,0.7,2,0.2,0.15,right,17,2020-12-18_13h33.57.637,premup-three_ses-02_part-02_label-phase2,3.2.4,Win32,60,,,,,,,,,,,,,,,,,,,,,,,,,,,,,
left,0.555000067,0,132,1,0,1,0,1,0,1,0,240,148,1,239,2,2,1,stim/21.jpeg,Instruments,2,stim/objects/Instruments/keyboard2.png,0.3,2,0.2,0.15,right,17,2020-12-18_13h33.57.637,premup-three_ses-02_part-02_label-phase2,3.2.4,Win32,60,,,,,,,,,,,,,,,,,,,,,,,,,,,,,
left,0.406000376,0,133,1,0,1,0,1,0,1,0,240,117,1,239,2,1,2,stim/12.jpeg,Instruments,2,stim/objects/Instruments/pipepiano.png,0.7,1,-0.2,0.15,right,17,2020-12-18_13h33.57.637,premup-three_ses-02_part-02_label-phase2,3.2.4,Win32,60,,,,,,,,,,,,,,,,,,,,,,,,,,,,,
right,0.611999989,0,134,1,0,1,0,1,0,1,0,240,2,1,239,1,5,3,stim/53.jpeg,HouseObjects,1,stim/objects/HouseObjects/key.png,0.5,1,-0.2,0.15,left,17,2020-12-18_13h33.57.637,premup-three_ses-02_part-02_label-phase2,3.2.4,Win32,60,,,,,,,,,,,,,,,,,,,,,,,,,,,,,
right,0.535000086,1,135,1,0,1,0,1,0,1,0,240,192,1,239,3,3,1,stim/31.jpeg,Instruments,2,stim/objects/Instruments/metronome2.png,0.9,3,-0.2,-0.15,right,17,2020-12-18_13h33.57.637,premup-three_ses-02_part-02_label-phase2,3.2.4,Win32,60,,,,,,,,,,,,,,,,,,,,,,,,,,,,,
left,0.511000156,0,136,1,0,1,0,1,0,1,0,240,236,1,239,3,4,1,stim/41.jpeg,Instruments,2,stim/objects/Instruments/panflute2.png,0.1,1,-0.2,0.15,right,17,2020-12-18_13h33.57.637,premup-three_ses-02_part-02_label-phase2,3.2.4,Win32,60,,,,,,,,,,,,,,,,,,,,,,,,,,,,,
right,0.641000271,0,137,1,0,1,0,1,0,1,0,240,85,1,239,2,1,2,stim/12.jpeg,HouseObjects,1,stim/objects/HouseObjects/remote.png,0.3,2,0.2,0.15,left,17,2020-12-18_13h33.57.637,premup-three_ses-02_part-02_label-phase2,3.2.4,Win32,60,,,,,,,,,,,,,,,,,,,,,,,,,,,,,
,,0,138,1,0,1,0,1,0,1,0,240,103,1,239,2,1,4,stim/14.jpeg,Instruments,2,stim/objects/Instruments/record_player.png,0.7,3,-0.2,-0.15,right,17,2020-12-18_13h33.57.637,premup-three_ses-02_part-02_label-phase2,3.2.4,Win32,60,,,,,,,,,,,,,,,,,,,,,,,,,,,,,
left,0.555999994,0,139,1,0,1,0,1,0,1,0,240,239,1,239,3,4,4,stim/44.jpeg,Instruments,2,stim/objects/Instruments/record_player2.png,0.1,3,-0.2,-0.15,right,17,2020-12-18_13h33.57.637,premup-three_ses-02_part-02_label-phase2,3.2.4,Win32,60,,,,,,,,,,,,,,,,,,,,,,,,,,,,,
left,0.585000277,1,140,1,0,1,0,1,0,1,0,240,122,1,239,2,2,3,stim/23.jpeg,HouseObjects,1,stim/objects/HouseObjects/key2.png,0.7,4,0.2,-0.15,left,17,2020-12-18_13h33.57.637,premup-three_ses-02_part-02_label-phase2,3.2.4,Win32,60,,,,,,,,,,,,,,,,,,,,,,,,,,,,,
right,0.526000023,1,141,1,0,1,0,1,0,1,0,240,182,1,239,3,3,3,stim/33.jpeg,Instruments,2,stim/objects/Instruments/musicstand2.png,0.9,2,0.2,0.15,right,17,2020-12-18_13h33.57.637,premup-three_ses-02_part-02_label-phase2,3.2.4,Win32,60,,,,,,,,,,,,,,,,,,,,,,,,,,,,,
left,0.5400002,1,142,1,0,1,0,1,0,1,0,240,214,1,239,3,4,3,stim/43.jpeg,HouseObjects,1,stim/objects/HouseObjects/rubbergloves2.png,0.9,2,0.2,0.15,left,17,2020-12-18_13h33.57.637,premup-three_ses-02_part-02_label-phase2,3.2.4,Win32,60,,,,,,,,,,,,,,,,,,,,,,,,,,,,,
left,0.524000168,0,143,1,0,1,0,1,0,1,0,240,154,1,239,2,2,3,stim/23.jpeg,Instruments,2,stim/objects/Instruments/maraca2.png,0.3,2,0.2,0.15,right,17,2020-12-18_13h33.57.637,premup-three_ses-02_part-02_label-phase2,3.2.4,Win32,60,,,,,,,,,,,,,,,,,,,,,,,,,,,,,
left,0.664000273,0,144,1,0,1,0,1,0,1,0,240,20,1,239,1,5,1,stim/51.jpeg,Instruments,2,stim/objects/Instruments/keyboard.png,0.5,4,0.2,-0.15,right,17,2020-12-18_13h33.57.637,premup-three_ses-02_part-02_label-phase2,3.2.4,Win32,60,,,,,,,,,,,,,,,,,,,,,,,,,,,,,
left,0.572000265,1,145,1,0,1,0,1,0,1,0,240,203,1,239,3,4,4,stim/44.jpeg,HouseObjects,1,stim/objects/HouseObjects/rug2.png,0.9,2,0.2,0.15,left,17,2020-12-18_13h33.57.637,premup-three_ses-02_part-02_label-phase2,3.2.4,Win32,60,,,,,,,,,,,,,,,,,,,,,,,,,,,,,
left,0.804000139,1,146,1,0,1,0,1,0,1,0,240,125,1,239,2,2,2,stim/22.jpeg,HouseObjects,1,stim/objects/HouseObjects/ironingboard2.png,0.7,4,0.2,-0.15,left,17,2020-12-18_13h33.57.637,premup-three_ses-02_part-02_label-phase2,3.2.4,Win32,60,,,,,,,,,,,,,,,,,,,,,,,,,,,,,
left,0.604000092,1,147,1,0,1,0,1,0,1,0,240,140,1,239,2,2,1,stim/21.jpeg,HouseObjects,1,stim/objects/HouseObjects/iron2.png,0.7,3,-0.2,-0.15,left,17,2020-12-18_13h33.57.637,premup-three_ses-02_part-02_label-phase2,3.2.4,Win32,60,,,,,,,,,,,,,,,,,,,,,,,,,,,,,
left,0.817000151,1,148,1,0,1,0,1,0,1,0,240,54,1,239,1,6,3,stim/63.jpeg,HouseObjects,1,stim/objects/HouseObjects/pan.png,0.5,3,-0.2,-0.15,left,17,2020-12-18_13h33.57.637,premup-three_ses-02_part-02_label-phase2,3.2.4,Win32,60,,,,,,,,,,,,,,,,,,,,,,,,,,,,,
right,0.865000248,0,149,1,0,1,0,1,0,1,0,240,90,1,239,2,1,3,stim/13.jpeg,HouseObjects,1,stim/objects/HouseObjects/rubbergloves.png,0.3,1,-0.2,0.15,left,17,2020-12-18_13h33.57.637,premup-three_ses-02_part-02_label-phase2,3.2.4,Win32,60,,,,,,,,,,,,,,,,,,,,,,,,,,,,,
left,0.583000183,0,150,1,0,1,0,1,0,1,0,240,25,1,239,1,5,2,stim/52.jpeg,Instruments,2,stim/objects/Instruments/laud.png,0.5,3,-0.2,-0.15,right,17,2020-12-18_13h33.57.637,premup-three_ses-02_part-02_label-phase2,3.2.4,Win32,60,,,,,,,,,,,,,,,,,,,,,,,,,,,,,
left,0.400000095,0,151,1,0,1,0,1,0,1,0,240,75,1,239,1,6,4,stim/64.jpeg,Instruments,2,stim/objects/Instruments/oboe.png,0.5,3,-0.2,-0.15,right,17,2020-12-18_13h33.57.637,premup-three_ses-02_part-02_label-phase2,3.2.4,Win32,60,,,,,,,,,,,,,,,,,,,,,,,,,,,,,
right,0.650000095,1,152,1,0,1,0,1,0,1,0,240,199,1,239,3,3,4,stim/34.jpeg,Instruments,2,stim/objects/Instruments/oboe2.png,0.9,1,-0.2,0.15,right,17,2020-12-18_13h33.57.637,premup-three_ses-02_part-02_label-phase2,3.2.4,Win32,60,,,,,,,,,,,,,,,,,,,,,,,,,,,,,
right,0.887000084,1,153,1,0,1,0,1,0,1,0,240,191,1,239,3,3,4,stim/34.jpeg,Instruments,2,stim/objects/Instruments/oboe2.png,0.9,3,-0.2,-0.15,right,17,2020-12-18_13h33.57.637,premup-three_ses-02_part-02_label-phase2,3.2.4,Win32,60,,,,,,,,,,,,,,,,,,,,,,,,,,,,,
,,0,154,1,0,1,0,1,0,1,0,240,35,1,239,1,5,4,stim/54.jpeg,Instruments,2,stim/objects/Instruments/marimba.png,0.5,4,0.2,-0.15,right,17,2020-12-18_13h33.57.637,premup-three_ses-02_part-02_label-phase2,3.2.4,Win32,60,,,,,,,,,,,,,,,,,,,,,,,,,,,,,
left,0.656000137,1,155,1,0,1,0,1,0,1,0,240,225,1,239,3,4,2,stim/42.jpeg,HouseObjects,1,stim/objects/HouseObjects/remote2.png,0.9,2,0.2,0.15,left,17,2020-12-18_13h33.57.637,premup-three_ses-02_part-02_label-phase2,3.2.4,Win32,60,,,,,,,,,,,,,,,,,,,,,,,,,,,,,
left,0.587000132,0,156,1,0,1,0,1,0,1,0,240,152,1,239,2,2,1,stim/21.jpeg,Instruments,2,stim/objects/Instruments/keyboard2.png,0.3,4,0.2,-0.15,right,17,2020-12-18_13h33.57.637,premup-three_ses-02_part-02_label-phase2,3.2.4,Win32,60,,,,,,,,,,,,,,,,,,,,,,,,,,,,,
left,0.882000208,0,157,1,0,1,0,1,0,1,0,240,23,1,239,1,5,4,stim/54.jpeg,Instruments,2,stim/objects/Instruments/marimba.png,0.5,2,0.2,0.15,right,17,2020-12-18_13h33.57.637,premup-three_ses-02_part-02_label-phase2,3.2.4,Win32,60,,,,,,,,,,,,,,,,,,,,,,,,,,,,,
right,0.741000175,0,158,1,0,1,0,1,0,1,0,240,160,1,239,3,3,1,stim/31.jpeg,HouseObjects,1,stim/objects/HouseObjects/lintroller2.png,0.1,4,0.2,-0.15,left,17,2020-12-18_13h33.57.637,premup-three_ses-02_part-02_label-phase2,3.2.4,Win32,60,,,,,,,,,,,,,,,,,,,,,,,,,,,,,
left,0.662000179,1,159,1,0,1,0,1,0,1,0,240,17,1,239,1,5,2,stim/52.jpeg,HouseObjects,1,stim/objects/HouseObjects/ironingboard.png,0.5,2,0.2,0.15,left,17,2020-12-18_13h33.57.637,premup-three_ses-02_part-02_label-phase2,3.2.4,Win32,60,,,,,,,,,,,,,,,,,,,,,,,,,,,,,
left,0.460000038,1,160,1,0,1,0,1,0,1,0,240,13,1,239,1,5,2,stim/52.jpeg,HouseObjects,1,stim/objects/HouseObjects/ironingboard.png,0.5,1,-0.2,0.15,left,17,2020-12-18_13h33.57.637,premup-three_ses-02_part-02_label-phase2,3.2.4,Win32,60,,,,,,,,,,,,,,,,,,,,,,,,,,,,,
left,0.774000168,1,161,1,0,1,0,1,0,1,0,240,56,1,239,1,6,1,stim/61.jpeg,HouseObjects,1,stim/objects/HouseObjects/lintroller.png,0.5,1,-0.2,0.15,left,17,2020-12-18_13h33.57.637,premup-three_ses-02_part-02_label-phase2,3.2.4,Win32,60,,,,,,,,,,,,,,,,,,,,,,,,,,,,,
right,0.518000126,1,162,1,0,1,0,1,0,1,0,240,164,1,239,3,3,1,stim/31.jpeg,Instruments,2,stim/objects/Instruments/metronome2.png,0.9,1,-0.2,0.15,right,17,2020-12-18_13h33.57.637,premup-three_ses-02_part-02_label-phase2,3.2.4,Win32,60,,,,,,,,,,,,,,,,,,,,,,,,,,,,,
right,0.536000252,0,163,1,0,1,0,1,0,1,0,240,137,1,239,2,2,2,stim/22.jpeg,HouseObjects,1,stim/objects/HouseObjects/ironingboard2.png,0.7,3,-0.2,-0.15,left,17,2020-12-18_13h33.57.637,premup-three_ses-02_part-02_label-phase2,3.2.4,Win32,60,,,,,,,,,,,,,,,,,,,,,,,,,,,,,
right,0.394000053,1,164,1,0,1,0,1,0,1,0,240,79,1,239,1,6,4,stim/64.jpeg,Instruments,2,stim/objects/Instruments/oboe.png,0.5,3,-0.2,-0.15,right,17,2020-12-18_13h33.57.637,premup-three_ses-02_part-02_label-phase2,3.2.4,Win32,60,,,,,,,,,,,,,,,,,,,,,,,,,,,,,
,,0,165,1,0,1,0,1,0,1,0,240,50,1,239,1,6,3,stim/63.jpeg,HouseObjects,1,stim/objects/HouseObjects/pan.png,0.5,4,0.2,-0.15,left,17,2020-12-18_13h33.57.637,premup-three_ses-02_part-02_label-phase2,3.2.4,Win32,60,,,,,,,,,,,,,,,,,,,,,,,,,,,,,
right,0.502000093,1,166,1,0,1,0,1,0,1,0,240,185,1,239,3,3,2,stim/32.jpeg,Instruments,2,stim/objects/Instruments/musicsheet2.png,0.9,1,-0.2,0.15,right,17,2020-12-18_13h33.57.637,premup-three_ses-02_part-02_label-phase2,3.2.4,Win32,60,,,,,,,,,,,,,,,,,,,,,,,,,,,,,
right,0.56400013,0,167,1,0,1,0,1,0,1,0,240,49,1,239,1,6,2,stim/62.jpeg,HouseObjects,1,stim/objects/HouseObjects/match.png,0.5,1,-0.2,0.15,left,17,2020-12-18_13h33.57.637,premup-three_ses-02_part-02_label-phase2,3.2.4,Win32,60,,,,,,,,,,,,,,,,,,,,,,,,,,,,,
right,0.755000353,1,168,1,0,1,0,1,0,1,0,240,100,1,239,2,1,1,stim/11.jpeg,Instruments,2,stim/objects/Instruments/panflute.png,0.7,3,-0.2,-0.15,right,17,2020-12-18_13h33.57.637,premup-three_ses-02_part-02_label-phase2,3.2.4,Win32,60,,,,,,,,,,,,,,,,,,,,,,,,,,,,,
right,0.712000132,0,169,1,0,1,0,1,0,1,0,240,0,1,239,1,5,1,stim/51.jpeg,HouseObjects,1,stim/objects/HouseObjects/iron.png,0.5,3,-0.2,-0.15,left,17,2020-12-18_13h33.57.637,premup-three_ses-02_part-02_label-phase2,3.2.4,Win32,60,,,,,,,,,,,,,,,,,,,,,,,,,,,,,
right,0.585000277,0,170,1,0,1,0,1,0,1,0,240,47,1,239,1,6,4,stim/64.jpeg,HouseObjects,1,stim/objects/HouseObjects/pitcher.png,0.5,3,-0.2,-0.15,left,17,2020-12-18_13h33.57.637,premup-three_ses-02_part-02_label-phase2,3.2.4,Win32,60,,,,,,,,,,,,,,,,,,,,,,,,,,,,,
right,0.698000193,1,171,1,0,1,0,1,0,1,0,240,179,1,239,3,3,4,stim/34.jpeg,Instruments,2,stim/objects/Instruments/oboe2.png,0.9,4,0.2,-0.15,right,17,2020-12-18_13h33.57.637,premup-three_ses-02_part-02_label-phase2,3.2.4,Win32,60,,,,,,,,,,,,,,,,,,,,,,,,,,,,,
left,0.628999949,0,172,1,0,1,0,1,0,1,0,240,153,1,239,2,2,2,stim/22.jpeg,Instruments,2,stim/objects/Instruments/laud2.png,0.3,3,-0.2,-0.15,right,17,2020-12-18_13h33.57.637,premup-three_ses-02_part-02_label-phase2,3.2.4,Win32,60,,,,,,,,,,,,,,,,,,,,,,,,,,,,,
right,0.496000051,0,173,1,0,1,0,1,0,1,0,240,231,1,239,3,4,4,stim/44.jpeg,HouseObjects,1,stim/objects/HouseObjects/rug2.png,0.9,2,0.2,0.15,left,17,2020-12-18_13h33.57.637,premup-three_ses-02_part-02_label-phase2,3.2.4,Win32,60,,,,,,,,,,,,,,,,,,,,,,,,,,,,,
left,0.711000204,0,174,1,0,1,0,1,0,1,0,240,67,1,239,1,6,4,stim/64.jpeg,Instruments,2,stim/objects/Instruments/oboe.png,0.5,2,0.2,0.15,right,17,2020-12-18_13h33.57.637,premup-three_ses-02_part-02_label-phase2,3.2.4,Win32,60,,,,,,,,,,,,,,,,,,,,,,,,,,,,,
left,0.670000076,1,175,1,0,1,0,1,0,1,0,240,8,1,239,1,5,1,stim/51.jpeg,HouseObjects,1,stim/objects/HouseObjects/iron.png,0.5,1,-0.2,0.15,left,17,2020-12-18_13h33.57.637,premup-three_ses-02_part-02_label-phase2,3.2.4,Win32,60,,,,,,,,,,,,,,,,,,,,,,,,,,,,,
,,0,176,1,0,1,0,1,0,1,0,240,139,1,239,2,2,4,stim/24.jpeg,HouseObjects,1,stim/objects/HouseObjects/knife2.png,0.7,3,-0.2,-0.15,left,17,2020-12-18_13h33.57.637,premup-three_ses-02_part-02_label-phase2,3.2.4,Win32,60,,,,,,,,,,,,,,,,,,,,,,,,,,,,,
left,0.526000023,1,177,1,0,1,0,1,0,1,0,240,208,1,239,3,4,1,stim/41.jpeg,HouseObjects,1,stim/objects/HouseObjects/recyclingbin2.png,0.9,1,-0.2,0.15,left,17,2020-12-18_13h33.57.637,premup-three_ses-02_part-02_label-phase2,3.2.4,Win32,60,,,,,,,,,,,,,,,,,,,,,,,,,,,,,
left,0.861000061,0,178,1,0,1,0,1,0,1,0,240,37,1,239,1,5,2,stim/52.jpeg,Instruments,2,stim/objects/Instruments/laud.png,0.5,4,0.2,-0.15,right,17,2020-12-18_13h33.57.637,premup-three_ses-02_part-02_label-phase2,3.2.4,Win32,60,,,,,,,,,,,,,,,,,,,,,,,,,,,,,
right,0.656000137,1,179,1,0,1,0,1,0,1,0,240,193,1,239,3,3,2,stim/32.jpeg,Instruments,2,stim/objects/Instruments/musicsheet2.png,0.9,3,-0.2,-0.15,right,17,2020-12-18_13h33.57.637,premup-three_ses-02_part-02_label-phase2,3.2.4,Win32,60,,,,,,,,,,,,,,,,,,,,,,,,,,,,,
left,0.534000158,1,180,1,0,1,0,1,0,1,0,240,218,1,239,3,4,3,stim/43.jpeg,HouseObjects,1,stim/objects/HouseObjects/rubbergloves2.png,0.9,2,0.2,0.15,left,17,2020-12-18_13h33.57.637,premup-three_ses-02_part-02_label-phase2,3.2.4,Win32,60,,,,,,,,,,,,,,,,,,,,,,,,,,,,,
right,0.761000156,1,181,1,0,1,0,1,0,1,0,240,65,1,239,1,6,2,stim/62.jpeg,Instruments,2,stim/objects/Instruments/musicsheet.png,0.5,2,0.2,0.15,right,17,2020-12-18_13h33.57.637,premup-three_ses-02_part-02_label-phase2,3.2.4,Win32,60,,,,,,,,,,,,,,,,,,,,,,,,,,,,,
left,0.67200017,1,182,1,0,1,0,1,0,1,0,240,14,1,239,1,5,3,stim/53.jpeg,HouseObjects,1,stim/objects/HouseObjects/key.png,0.5,2,0.2,0.15,left,17,2020-12-18_13h33.57.637,premup-three_ses-02_part-02_label-phase2,3.2.4,Win32,60,,,,,,,,,,,,,,,,,,,,,,,,,,,,,
left,0.446000099,1,183,1,0,1,0,1,0,1,0,240,220,1,239,3,4,1,stim/41.jpeg,HouseObjects,1,stim/objects/HouseObjects/recyclingbin2.png,0.9,1,-0.2,0.15,left,17,2020-12-18_13h33.57.637,premup-three_ses-02_part-02_label-phase2,3.2.4,Win32,60,,,,,,,,,,,,,,,,,,,,,,,,,,,,,
left,0.549000263,0,184,1,0,1,0,1,0,1,0,240,149,1,239,2,2,2,stim/22.jpeg,Instruments,2,stim/objects/Instruments/laud2.png,0.3,4,0.2,-0.15,right,17,2020-12-18_13h33.57.637,premup-three_ses-02_part-02_label-phase2,3.2.4,Win32,60,,,,,,,,,,,,,,,,,,,,,,,,,,,,,
left,0.567000151,0,185,1,0,1,0,1,0,1,0,240,237,1,239,3,4,2,stim/42.jpeg,Instruments,2,stim/objects/Instruments/pipepiano2.png,0.1,3,-0.2,-0.15,right,17,2020-12-18_13h33.57.637,premup-three_ses-02_part-02_label-phase2,3.2.4,Win32,60,,,,,,,,,,,,,,,,,,,,,,,,,,,,,
left,0.642000198,0,186,1,0,1,0,1,0,1,0,240,22,1,239,1,5,3,stim/53.jpeg,Instruments,2,stim/objects/Instruments/maraca.png,0.5,3,-0.2,-0.15,right,17,2020-12-18_13h33.57.637,premup-three_ses-02_part-02_label-phase2,3.2.4,Win32,60,,,,,,,,,,,,,,,,,,,,,,,,,,,,,
left,0.953000307,1,187,1,0,1,0,1,0,1,0,240,89,1,239,2,1,2,stim/12.jpeg,HouseObjects,1,stim/objects/HouseObjects/remote.png,0.3,1,-0.2,0.15,left,17,2020-12-18_13h33.57.637,premup-three_ses-02_part-02_label-phase2,3.2.4,Win32,60,,,,,,,,,,,,,,,,,,,,,,,,,,,,,
right,0.772000313,0,188,1,0,1,0,1,0,1,0,240,80,1,239,2,1,1,stim/11.jpeg,HouseObjects,1,stim/objects/HouseObjects/recyclingbin.png,0.3,1,-0.2,0.15,left,17,2020-12-18_13h33.57.637,premup-three_ses-02_part-02_label-phase2,3.2.4,Win32,60,,,,,,,,,,,,,,,,,,,,,,,,,,,,,
right,0.818000078,0,189,1,0,1,0,1,0,1,0,240,51,1,239,1,6,4,stim/64.jpeg,HouseObjects,1,stim/objects/HouseObjects/pitcher.png,0.5,4,0.2,-0.15,left,17,2020-12-18_13h33.57.637,premup-three_ses-02_part-02_label-phase2,3.2.4,Win32,60,,,,,,,,,,,,,,,,,,,,,,,,,,,,,
left,0.569000244,1,190,1,0,1,0,1,0,1,0,240,145,1,239,2,2,2,stim/22.jpeg,HouseObjects,1,stim/objects/HouseObjects/ironingboard2.png,0.7,3,-0.2,-0.15,left,17,2020-12-18_13h33.57.637,premup-three_ses-02_part-02_label-phase2,3.2.4,Win32,60,,,,,,,,,,,,,,,,,,,,,,,,,,,,,
left,0.583000183,1,191,1,0,1,0,1,0,1,0,240,201,1,239,3,4,2,stim/42.jpeg,HouseObjects,1,stim/objects/HouseObjects/remote2.png,0.9,1,-0.2,0.15,left,17,2020-12-18_13h33.57.637,premup-three_ses-02_part-02_label-phase2,3.2.4,Win32,60,,,,,,,,,,,,,,,,,,,,,,,,,,,,,
right,0.808000088,1,192,1,0,1,0,1,0,1,0,240,27,1,239,1,5,4,stim/54.jpeg,Instruments,2,stim/objects/Instruments/marimba.png,0.5,2,0.2,0.15,right,17,2020-12-18_13h33.57.637,premup-three_ses-02_part-02_label-phase2,3.2.4,Win32,60,,,,,,,,,,,,,,,,,,,,,,,,,,,,,
left,0.955000162,0,193,1,0,1,0,1,0,1,0,240,99,1,239,2,1,4,stim/14.jpeg,Instruments,2,stim/objects/Instruments/record_player.png,0.7,1,-0.2,0.15,right,17,2020-12-18_13h33.57.637,premup-three_ses-02_part-02_label-phase2,3.2.4,Win32,60,,,,,,,,,,,,,,,,,,,,,,,,,,,,,
,,0,194,1,0,1,0,1,0,1,0,240,167,1,239,3,3,4,stim/34.jpeg,Instruments,2,stim/objects/Instruments/oboe2.png,0.9,4,0.2,-0.15,right,17,2020-12-18_13h33.57.637,premup-three_ses-02_part-02_label-phase2,3.2.4,Win32,60,,,,,,,,,,,,,,,,,,,,,,,,,,,,,
right,0.633000135,1,195,1,0,1,0,1,0,1,0,240,94,1,239,2,1,3,stim/13.jpeg,Instruments,2,stim/objects/Instruments/record.png,0.7,4,0.2,-0.15,right,17,2020-12-18_13h33.57.637,premup-three_ses-02_part-02_label-phase2,3.2.4,Win32,60,,,,,,,,,,,,,,,,,,,,,,,,,,,,,
left,0.534000158,1,196,1,0,1,0,1,0,1,0,240,209,1,239,3,4,2,stim/42.jpeg,HouseObjects,1,stim/objects/HouseObjects/remote2.png,0.9,1,-0.2,0.15,left,17,2020-12-18_13h33.57.637,premup-three_ses-02_part-02_label-phase2,3.2.4,Win32,60,,,,,,,,,,,,,,,,,,,,,,,,,,,,,
right,0.565000296,1,197,1,0,1,0,1,0,1,0,240,110,1,239,2,1,3,stim/13.jpeg,Instruments,2,stim/objects/Instruments/record.png,0.7,4,0.2,-0.15,right,17,2020-12-18_13h33.57.637,premup-three_ses-02_part-02_label-phase2,3.2.4,Win32,60,,,,,,,,,,,,,,,,,,,,,,,,,,,,,
right,0.683000088,1,198,1,0,1,0,1,0,1,0,240,96,1,239,2,1,1,stim/11.jpeg,Instruments,2,stim/objects/Instruments/panflute.png,0.7,2,0.2,0.15,right,17,2020-12-18_13h33.57.637,premup-three_ses-02_part-02_label-phase2,3.2.4,Win32,60,,,,,,,,,,,,,,,,,,,,,,,,,,,,,
right,0.526000023,1,199,1,0,1,0,1,0,1,0,240,189,1,239,3,3,2,stim/32.jpeg,Instruments,2,stim/objects/Instruments/musicsheet2.png,0.9,4,0.2,-0.15,right,17,2020-12-18_13h33.57.637,premup-three_ses-02_part-02_label-phase2,3.2.4,Win32,60,,,,,,,,,,,,,,,,,,,,,,,,,,,,,
left,0.539000273,0,200,1,0,1,0,1,0,1,0,240,30,1,239,1,5,3,stim/53.jpeg,Instruments,2,stim/objects/Instruments/maraca.png,0.5,3,-0.2,-0.15,right,17,2020-12-18_13h33.57.637,premup-three_ses-02_part-02_label-phase2,3.2.4,Win32,60,,,,,,,,,,,,,,,,,,,,,,,,,,,,,
left,0.515000105,1,201,1,0,1,0,1,0,1,0,240,205,1,239,3,4,2,stim/42.jpeg,HouseObjects,1,stim/objects/HouseObjects/remote2.png,0.9,3,-0.2,-0.15,left,17,2020-12-18_13h33.57.637,premup-three_ses-02_part-02_label-phase2,3.2.4,Win32,60,,,,,,,,,,,,,,,,,,,,,,,,,,,,,
right,0.586000204,1,202,1,0,1,0,1,0,1,0,240,95,1,239,2,1,4,stim/14.jpeg,Instruments,2,stim/objects/Instruments/record_player.png,0.7,3,-0.2,-0.15,right,17,2020-12-18_13h33.57.637,premup-three_ses-02_part-02_label-phase2,3.2.4,Win32,60,,,,,,,,,,,,,,,,,,,,,,,,,,,,,
left,0.574000359,1,203,1,0,1,0,1,0,1,0,240,134,1,239,2,2,3,stim/23.jpeg,HouseObjects,1,stim/objects/HouseObjects/key2.png,0.7,2,0.2,0.15,left,17,2020-12-18_13h33.57.637,premup-three_ses-02_part-02_label-phase2,3.2.4,Win32,60,,,,,,,,,,,,,,,,,,,,,,,,,,,,,
left,0.719000101,1,204,1,0,1,0,1,0,1,0,240,4,1,239,1,5,1,stim/51.jpeg,HouseObjects,1,stim/objects/HouseObjects/iron.png,0.5,1,-0.2,0.15,left,17,2020-12-18_13h33.57.637,premup-three_ses-02_part-02_label-phase2,3.2.4,Win32,60,,,,,,,,,,,,,,,,,,,,,,,,,,,,,
left,0.505000353,1,205,1,0,1,0,1,0,1,0,240,128,1,239,2,2,1,stim/21.jpeg,HouseObjects,1,stim/objects/HouseObjects/iron2.png,0.7,2,0.2,0.15,left,17,2020-12-18_13h33.57.637,premup-three_ses-02_part-02_label-phase2,3.2.4,Win32,60,,,,,,,,,,,,,,,,,,,,,,,,,,,,,
left,0.707000256,1,206,1,0,1,0,1,0,1,0,240,223,1,239,3,4,4,stim/44.jpeg,HouseObjects,1,stim/objects/HouseObjects/rug2.png,0.9,4,0.2,-0.15,left,17,2020-12-18_13h33.57.637,premup-three_ses-02_part-02_label-phase2,3.2.4,Win32,60,,,,,,,,,,,,,,,,,,,,,,,,,,,,,
right,0.817000151,1,207,1,0,1,0,1,0,1,0,240,118,1,239,2,1,3,stim/13.jpeg,Instruments,2,stim/objects/Instruments/record.png,0.7,1,-0.2,0.15,right,17,2020-12-18_13h33.57.637,premup-three_ses-02_part-02_label-phase2,3.2.4,Win32,60,,,,,,,,,,,,,,,,,,,,,,,,,,,,,
right,0.813000202,0,208,1,0,1,0,1,0,1,0,240,52,1,239,1,6,1,stim/61.jpeg,HouseObjects,1,stim/objects/HouseObjects/lintroller.png,0.5,2,0.2,0.15,left,17,2020-12-18_13h33.57.637,premup-three_ses-02_part-02_label-phase2,3.2.4,Win32,60,,,,,,,,,,,,,,,,,,,,,,,,,,,,,
right,0.478000164,1,209,1,0,1,0,1,0,1,0,240,187,1,239,3,3,4,stim/34.jpeg,Instruments,2,stim/objects/Instruments/oboe2.png,0.9,2,0.2,0.15,right,17,2020-12-18_13h33.57.637,premup-three_ses-02_part-02_label-phase2,3.2.4,Win32,60,,,,,,,,,,,,,,,,,,,,,,,,,,,,,
right,0.923000097,1,210,1,0,1,0,1,0,1,0,240,106,1,239,2,1,3,stim/13.jpeg,Instruments,2,stim/objects/Instruments/record.png,0.7,4,0.2,-0.15,right,17,2020-12-18_13h33.57.637,premup-three_ses-02_part-02_label-phase2,3.2.4,Win32,60,,,,,,,,,,,,,,,,,,,,,,,,,,,,,
right,0.509000301,1,211,1,0,1,0,1,0,1,0,240,177,1,239,3,3,2,stim/32.jpeg,Instruments,2,stim/objects/Instruments/musicsheet2.png,0.9,4,0.2,-0.15,right,17,2020-12-18_13h33.57.637,premup-three_ses-02_part-02_label-phase2,3.2.4,Win32,60,,,,,,,,,,,,,,,,,,,,,,,,,,,,,
right,0.642000198,0,212,1,0,1,0,1,0,1,0,240,43,1,239,1,6,4,stim/64.jpeg,HouseObjects,1,stim/objects/HouseObjects/pitcher.png,0.5,3,-0.2,-0.15,left,17,2020-12-18_13h33.57.637,premup-three_ses-02_part-02_label-phase2,3.2.4,Win32,60,,,,,,,,,,,,,,,,,,,,,,,,,,,,,
left,0.602000237,1,213,1,0,1,0,1,0,1,0,240,1,1,239,1,5,2,stim/52.jpeg,HouseObjects,1,stim/objects/HouseObjects/ironingboard.png,0.5,2,0.2,0.15,left,17,2020-12-18_13h33.57.637,premup-three_ses-02_part-02_label-phase2,3.2.4,Win32,60,,,,,,,,,,,,,,,,,,,,,,,,,,,,,
left,0.645000219,1,214,1,0,1,0,1,0,1,0,240,42,1,239,1,6,3,stim/63.jpeg,HouseObjects,1,stim/objects/HouseObjects/pan.png,0.5,1,-0.2,0.15,left,17,2020-12-18_13h33.57.637,premup-three_ses-02_part-02_label-phase2,3.2.4,Win32,60,,,,,,,,,,,,,,,,,,,,,,,,,,,,,
right,0.698000193,0,215,1,0,1,0,1,0,1,0,240,162,1,239,3,3,3,stim/33.jpeg,HouseObjects,1,stim/objects/HouseObjects/pan2.png,0.1,4,0.2,-0.15,left,17,2020-12-18_13h33.57.637,premup-three_ses-02_part-02_label-phase2,3.2.4,Win32,60,,,,,,,,,,,,,,,,,,,,,,,,,,,,,
right,0.516000032,0,216,1,0,1,0,1,0,1,0,240,82,1,239,2,1,3,stim/13.jpeg,HouseObjects,1,stim/objects/HouseObjects/rubbergloves.png,0.3,4,0.2,-0.15,left,17,2020-12-18_13h33.57.637,premup-three_ses-02_part-02_label-phase2,3.2.4,Win32,60,,,,,,,,,,,,,,,,,,,,,,,,,,,,,
right,0.587000132,1,217,1,0,1,0,1,0,1,0,240,116,1,239,2,1,1,stim/11.jpeg,Instruments,2,stim/objects/Instruments/panflute.png,0.7,3,-0.2,-0.15,right,17,2020-12-18_13h33.57.637,premup-three_ses-02_part-02_label-phase2,3.2.4,Win32,60,,,,,,,,,,,,,,,,,,,,,,,,,,,,,
right,0.612000227,1,218,1,0,1,0,1,0,1,0,240,180,1,239,3,3,1,stim/31.jpeg,Instruments,2,stim/objects/Instruments/metronome2.png,0.9,2,0.2,0.15,right,17,2020-12-18_13h33.57.637,premup-three_ses-02_part-02_label-phase2,3.2.4,Win32,60,,,,,,,,,,,,,,,,,,,,,,,,,,,,,
right,0.403000116,0,219,1,0,1,0,1,0,1,0,240,141,1,239,2,2,2,stim/22.jpeg,HouseObjects,1,stim/objects/HouseObjects/ironingboard2.png,0.7,4,0.2,-0.15,left,17,2020-12-18_13h33.57.637,premup-three_ses-02_part-02_label-phase2,3.2.4,Win32,60,,,,,,,,,,,,,,,,,,,,,,,,,,,,,
right,0.634000301,0,220,1,0,1,0,1,0,1,0,240,53,1,239,1,6,2,stim/62.jpeg,HouseObjects,1,stim/objects/HouseObjects/match.png,0.5,1,-0.2,0.15,left,17,2020-12-18_13h33.57.637,premup-three_ses-02_part-02_label-phase2,3.2.4,Win32,60,,,,,,,,,,,,,,,,,,,,,,,,,,,,,
right,0.637000084,0,221,1,0,1,0,1,0,1,0,240,81,1,239,2,1,2,stim/12.jpeg,HouseObjects,1,stim/objects/HouseObjects/remote.png,0.3,2,0.2,0.15,left,17,2020-12-18_13h33.57.637,premup-three_ses-02_part-02_label-phase2,3.2.4,Win32,60,,,,,,,,,,,,,,,,,,,,,,,,,,,,,
,,0,222,1,0,1,0,1,0,1,0,240,235,1,239,3,4,4,stim/44.jpeg,HouseObjects,1,stim/objects/HouseObjects/rug2.png,0.9,4,0.2,-0.15,left,17,2020-12-18_13h33.57.637,premup-three_ses-02_part-02_label-phase2,3.2.4,Win32,60,,,,,,,,,,,,,,,,,,,,,,,,,,,,,
left,0.362000227,1,223,1,0,1,0,1,0,1,0,240,207,1,239,3,4,4,stim/44.jpeg,HouseObjects,1,stim/objects/HouseObjects/rug2.png,0.9,1,-0.2,0.15,left,17,2020-12-18_13h33.57.637,premup-three_ses-02_part-02_label-phase2,3.2.4,Win32,60,,,,,,,,,,,,,,,,,,,,,,,,,,,,,
right,0.729000092,1,224,1,0,1,0,1,0,1,0,240,114,1,239,2,1,3,stim/13.jpeg,Instruments,2,stim/objects/Instruments/record.png,0.7,4,0.2,-0.15,right,17,2020-12-18_13h33.57.637,premup-three_ses-02_part-02_label-phase2,3.2.4,Win32,60,,,,,,,,,,,,,,,,,,,,,,,,,,,,,
left,0.600000143,1,225,1,0,1,0,1,0,1,0,240,146,1,239,2,2,3,stim/23.jpeg,HouseObjects,1,stim/objects/HouseObjects/key2.png,0.7,2,0.2,0.15,left,17,2020-12-18_13h33.57.637,premup-three_ses-02_part-02_label-phase2,3.2.4,Win32,60,,,,,,,,,,,,,,,,,,,,,,,,,,,,,
right,0.525000095,1,226,1,0,1,0,1,0,1,0,240,186,1,239,3,3,3,stim/33.jpeg,Instruments,2,stim/objects/Instruments/musicstand2.png,0.9,3,-0.2,-0.15,right,17,2020-12-18_13h33.57.637,premup-three_ses-02_part-02_label-phase2,3.2.4,Win32,60,,,,,,,,,,,,,,,,,,,,,,,,,,,,,
left,0.756999969,1,227,1,0,1,0,1,0,1,0,240,121,1,239,2,2,2,stim/22.jpeg,HouseObjects,1,stim/objects/HouseObjects/ironingboard2.png,0.7,3,-0.2,-0.15,left,17,2020-12-18_13h33.57.637,premup-three_ses-02_part-02_label-phase2,3.2.4,Win32,60,,,,,,,,,,,,,,,,,,,,,,,,,,,,,
right,0.904000044,1,228,1,0,1,0,1,0,1,0,240,70,1,239,1,6,3,stim/63.jpeg,Instruments,2,stim/objects/Instruments/musicstand.png,0.5,3,-0.2,-0.15,right,17,2020-12-18_13h33.57.637,premup-three_ses-02_part-02_label-phase2,3.2.4,Win32,60,,,,,,,,,,,,,,,,,,,,,,,,,,,,,
left,0.65500021,1,229,1,0,1,0,1,0,1,0,240,147,1,239,2,2,4,stim/24.jpeg,HouseObjects,1,stim/objects/HouseObjects/knife2.png,0.7,4,0.2,-0.15,left,17,2020-12-18_13h33.57.637,premup-three_ses-02_part-02_label-phase2,3.2.4,Win32,60,,,,,,,,,,,,,,,,,,,,,,,,,,,,,
left,0.517000198,0,230,1,0,1,0,1,0,1,0,240,157,1,239,2,2,2,stim/22.jpeg,Instruments,2,stim/objects/Instruments/laud2.png,0.3,4,0.2,-0.15,right,17,2020-12-18_13h33.57.637,premup-three_ses-02_part-02_label-phase2,3.2.4,Win32,60,,,,,,,,,,,,,,,,,,,,,,,,,,,,,
left,0.488000154,1,231,1,0,1,0,1,0,1,0,240,217,1,239,3,4,2,stim/42.jpeg,HouseObjects,1,stim/objects/HouseObjects/remote2.png,0.9,4,0.2,-0.15,left,17,2020-12-18_13h33.57.637,premup-three_ses-02_part-02_label-phase2,3.2.4,Win32,60,,,,,,,,,,,,,,,,,,,,,,,,,,,,,
right,0.660000086,1,232,1,0,1,0,1,0,1,0,240,102,1,239,2,1,3,stim/13.jpeg,Instruments,2,stim/objects/Instruments/record.png,0.7,1,-0.2,0.15,right,17,2020-12-18_13h33.57.637,premup-three_ses-02_part-02_label-phase2,3.2.4,Win32,60,,,,,,,,,,,,,,,,,,,,,,,,,,,,,
right,0.63800025,0,233,1,0,1,0,1,0,1,0,240,84,1,239,2,1,1,stim/11.jpeg,HouseObjects,1,stim/objects/HouseObjects/recyclingbin.png,0.3,4,0.2,-0.15,left,17,2020-12-18_13h33.57.637,premup-three_ses-02_part-02_label-phase2,3.2.4,Win32,60,,,,,,,,,,,,,,,,,,,,,,,,,,,,,
left,0.516000271,1,234,1,0,1,0,1,0,1,0,240,144,1,239,2,2,1,stim/21.jpeg,HouseObjects,1,stim/objects/HouseObjects/iron2.png,0.7,2,0.2,0.15,left,17,2020-12-18_13h33.57.637,premup-three_ses-02_part-02_label-phase2,3.2.4,Win32,60,,,,,,,,,,,,,,,,,,,,,,,,,,,,,
left,0.527000189,1,235,1,0,1,0,1,0,1,0,240,229,1,239,3,4,2,stim/42.jpeg,HouseObjects,1,stim/objects/HouseObjects/remote2.png,0.9,3,-0.2,-0.15,left,17,2020-12-18_13h33.57.637,premup-three_ses-02_part-02_label-phase2,3.2.4,Win32,60,,,,,,,,,,,,,,,,,,,,,,,,,,,,,
left,0.512000322,1,236,1,0,1,0,1,0,1,0,240,213,1,239,3,4,2,stim/42.jpeg,HouseObjects,1,stim/objects/HouseObjects/remote2.png,0.9,2,0.2,0.15,left,17,2020-12-18_13h33.57.637,premup-three_ses-02_part-02_label-phase2,3.2.4,Win32,60,,,,,,,,,,,,,,,,,,,,,,,,,,,,,
right,0.489000082,1,237,1,0,1,0,1,0,1,0,240,173,1,239,3,3,2,stim/32.jpeg,Instruments,2,stim/objects/Instruments/musicsheet2.png,0.9,4,0.2,-0.15,right,17,2020-12-18_13h33.57.637,premup-three_ses-02_part-02_label-phase2,3.2.4,Win32,60,,,,,,,,,,,,,,,,,,,,,,,,,,,,,
left,0.489000082,1,238,1,0,1,0,1,0,1,0,240,210,1,239,3,4,3,stim/43.jpeg,HouseObjects,1,stim/objects/HouseObjects/rubbergloves2.png,0.9,1,-0.2,0.15,left,17,2020-12-18_13h33.57.637,premup-three_ses-02_part-02_label-phase2,3.2.4,Win32,60,,,,,,,,,,,,,,,,,,,,,,,,,,,,,
left,0.552999973,0,239,1,0,1,0,1,0,1,0,240,36,1,239,1,5,1,stim/51.jpeg,Instruments,2,stim/objects/Instruments/keyboard.png,0.5,4,0.2,-0.15,right,17,2020-12-18_13h33.57.637,premup-three_ses-02_part-02_label-phase2,3.2.4,Win32,60,,,,,,,,,,,,,,,,,,,,,,,,,,,,,
right,0.709000111,1,240,1,0,1,0,1,0,1,0,240,171,1,239,3,3,4,stim/34.jpeg,Instruments,2,stim/objects/Instruments/oboe2.png,0.9,2,0.2,0.15,right,17,2020-12-18_13h33.57.637,premup-three_ses-02_part-02_label-phase2,3.2.4,Win32,60,,,,,,,,,,,,,,,,,,,,,,,,,,,,,
,,,,1,0,1,0,1,0,,,,,,,,5,,stim/51.jpeg,,,,,,,,,17,2020-12-18_13h33.57.637,premup-three_ses-02_part-02_label-phase2,3.2.4,Win32,60,51,71.56499982,,,1,0,6,4,1,5,Music items,5,15,Household items,85,95,,,,,,,,,,,,,
,,,,1,0,1,0,1,0,,,,,,,,3,,stim/31.jpeg,,,,,,,,,17,2020-12-18_13h33.57.637,premup-three_ses-02_part-02_label-phase2,3.2.4,Win32,60,10,4.760999918,,,1,0,6,2,1,5,Household items,65,75,Music items,25,35,,,,,,,,,,,,,
,,,,1,0,1,0,1,0,,,,,,,,1,,stim/11.jpeg,,,,,,,,,17,2020-12-18_13h33.57.637,premup-three_ses-02_part-02_label-phase2,3.2.4,Win32,60,29,4.651000023,,,1,0,6,0,1,5,Household items,45,55,Music items,45,55,,,,,,,,,,,,,
,,,,1,0,1,0,1,0,,,,,,,,6,,stim/61.jpeg,,,,,,,,,17,2020-12-18_13h33.57.637,premup-three_ses-02_part-02_label-phase2,3.2.4,Win32,60,37,8.179000139,,,1,0,6,5,1,5,Household items,5,15,Music items,85,95,,,,,,,,,,,,,
,,,,1,0,1,0,1,0,,,,,,,,2,,stim/21.jpeg,,,,,,,,,17,2020-12-18_13h33.57.637,premup-three_ses-02_part-02_label-phase2,3.2.4,Win32,60,83,2.115999937,,,1,0,6,1,1,5,Music items,45,55,Household items,45,55,,,,,,,,,,,,,
,,,,1,0,1,0,1,0,,,,,,,,4,,stim/41.jpeg,,,,,,,,,17,2020-12-18_13h33.57.637,premup-three_ses-02_part-02_label-phase2,3.2.4,Win32,60,91,2.200000048,,,1,0,6,3,1,5,Household items,65,75,Music items,25,35,,,,,,,,,,,,,
,,,,1,0,1,0,1,0,,,,,,,,,,,,,,,,,,,17,2020-12-18_13h33.57.637,premup-three_ses-02_part-02_label-phase2,3.2.4,Win32,60,,,,,,,,,,,,,,,,,,,,,,,,,,,,,
left,0.832000256,1,241,,,,,,,,,,,,,3,4,3,stim/43.jpeg,HouseObjects,1,stim/objects/HouseObjects/dustpan.png,0.9,4,0.2,-0.15,left,17,2020-12-18_13h33.57.637,premup-three_ses-02_part-02_label-phase2,3.2.4,Win32,60,,,,,,,,,,,,,,,,,1,0,330,236,1,329,2,,,,,,
left,0.59100008,1,242,,,,,,,,,,,,,3,4,3,stim/43.jpeg,HouseObjects,1,stim/objects/HouseObjects/flyswatter.png,0.9,4,0.2,-0.15,left,17,2020-12-18_13h33.57.637,premup-three_ses-02_part-02_label-phase2,3.2.4,Win32,60,,,,,,,,,,,,,,,,,1,0,330,272,1,329,2,,,,,,
right,0.822000027,1,243,,,,,,,,,,,,,3,3,1,stim/31.jpeg,Instruments,2,stim/objects/Instruments/frenchhorn.png,0.9,2,0.2,0.15,right,17,2020-12-18_13h33.57.637,premup-three_ses-02_part-02_label-phase2,3.2.4,Win32,60,,,,,,,,,,,,,,,,,1,0,330,142,1,329,2,,,,,,
right,0.733000278,1,244,,,,,,,,,,,,,3,3,4,stim/34.jpeg,Instruments,2,stim/objects/Instruments/frenchhorn.png,0.9,2,0.2,0.15,right,17,2020-12-18_13h33.57.637,premup-three_ses-02_part-02_label-phase2,3.2.4,Win32,60,,,,,,,,,,,,,,,,,1,0,330,217,1,329,2,,,,,,
left,0.815000057,1,245,,,,,,,,,,,,,3,4,2,stim/42.jpeg,HouseObjects,1,stim/objects/HouseObjects/garbagebin.png,0.9,2,0.2,0.15,left,17,2020-12-18_13h33.57.637,premup-three_ses-02_part-02_label-phase2,3.2.4,Win32,60,,,,,,,,,,,,,,,,,1,0,330,303,1,329,2,,,,,,
right,0.536000252,1,246,,,,,,,,,,,,,3,3,1,stim/31.jpeg,Instruments,2,stim/objects/Instruments/grandpiano.png,0.9,4,0.2,-0.15,right,17,2020-12-18_13h33.57.637,premup-three_ses-02_part-02_label-phase2,3.2.4,Win32,60,,,,,,,,,,,,,,,,,1,0,330,214,1,329,2,,,,,,
right,0.64800024,1,247,,,,,,,,,,,,,3,3,2,stim/32.jpeg,Instruments,2,stim/objects/Instruments/gong2.png,0.9,2,0.2,0.15,right,17,2020-12-18_13h33.57.637,premup-three_ses-02_part-02_label-phase2,3.2.4,Win32,60,,,,,,,,,,,,,,,,,1,0,330,223,1,329,1,,,,,,
right,0.691000223,1,248,,,,,,,,,,,,,2,2,2,stim/22.jpeg,Instruments,2,stim/objects/Instruments/electricdrumset2.png,0.3,2,0.2,0.15,right,17,2020-12-18_13h33.57.637,premup-three_ses-02_part-02_label-phase2,3.2.4,Win32,60,,,,,,,,,,,,,,,,,1,0,330,128,1,329,1,,,,,,
left,0.482000113,0,249,,,,,,,,,,,,,3,3,3,stim/33.jpeg,Instruments,2,stim/objects/Instruments/flute.png,0.9,1,-0.2,0.15,right,17,2020-12-18_13h33.57.637,premup-three_ses-02_part-02_label-phase2,3.2.4,Win32,60,,,,,,,,,,,,,,,,,1,0,330,200,1,329,2,,,,,,
right,0.644999981,1,250,,,,,,,,,,,,,2,1,3,stim/13.jpeg,Instruments,2,stim/objects/Instruments/cymbal.png,0.7,2,0.2,0.15,right,17,2020-12-18_13h33.57.637,premup-three_ses-02_part-02_label-phase2,3.2.4,Win32,60,,,,,,,,,,,,,,,,,1,0,330,70,1,329,2,,,,,,
left,0.467000246,1,251,,,,,,,,,,,,,3,4,1,stim/41.jpeg,HouseObjects,1,stim/objects/HouseObjects/flyswatter.png,0.9,1,-0.2,0.15,left,17,2020-12-18_13h33.57.637,premup-three_ses-02_part-02_label-phase2,3.2.4,Win32,60,,,,,,,,,,,,,,,,,1,0,330,262,1,329,2,,,,,,
right,0.593000174,1,252,,,,,,,,,,,,,2,1,3,stim/13.jpeg,Instruments,2,stim/objects/Instruments/drums.png,0.7,2,0.2,0.15,right,17,2020-12-18_13h33.57.637,premup-three_ses-02_part-02_label-phase2,3.2.4,Win32,60,,,,,,,,,,,,,,,,,1,0,330,82,1,329,2,,,,,,
left,0.701000214,1,253,,,,,,,,,,,,,3,4,2,stim/42.jpeg,HouseObjects,1,stim/objects/HouseObjects/garbagebin.png,0.9,4,0.2,-0.15,left,17,2020-12-18_13h33.57.637,premup-three_ses-02_part-02_label-phase2,3.2.4,Win32,60,,,,,,,,,,,,,,,,,1,0,330,263,1,329,2,,,,,,
left,0.769999981,1,254,,,,,,,,,,,,,3,4,3,stim/43.jpeg,HouseObjects,1,stim/objects/HouseObjects/flyswatter.png,0.9,4,0.2,-0.15,left,17,2020-12-18_13h33.57.637,premup-three_ses-02_part-02_label-phase2,3.2.4,Win32,60,,,,,,,,,,,,,,,,,1,0,330,292,1,329,2,,,,,,
right,0.721000195,1,255,,,,,,,,,,,,,2,1,1,stim/11.jpeg,Instruments,2,stim/objects/Instruments/balalaika2.png,0.7,4,0.2,-0.15,right,17,2020-12-18_13h33.57.637,premup-three_ses-02_part-02_label-phase2,3.2.4,Win32,60,,,,,,,,,,,,,,,,,1,0,330,92,1,329,1,,,,,,
right,0.750000238,0,256,,,,,,,,,,,,,1,5,1,stim/51.jpeg,HouseObjects,1,stim/objects/HouseObjects/basket.png,0.5,1,-0.2,0.15,left,17,2020-12-18_13h33.57.637,premup-three_ses-02_part-02_label-phase2,3.2.4,Win32,60,,,,,,,,,,,,,,,,,1,0,330,8,1,329,2,,,,,,
left,0.707000256,0,257,,,,,,,,,,,,,3,4,1,stim/41.jpeg,Instruments,2,stim/objects/Instruments/timbal2.png,0.1,1,-0.2,0.15,right,17,2020-12-18_13h33.57.637,premup-three_ses-02_part-02_label-phase2,3.2.4,Win32,60,,,,,,,,,,,,,,,,,1,0,330,322,1,329,1,,,,,,
left,0.659000158,1,258,,,,,,,,,,,,,3,4,4,stim/44.jpeg,HouseObjects,1,stim/objects/HouseObjects/glass.png,0.9,4,0.2,-0.15,left,17,2020-12-18_13h33.57.637,premup-three_ses-02_part-02_label-phase2,3.2.4,Win32,60,,,,,,,,,,,,,,,,,1,0,330,309,1,329,2,,,,,,
left,0.569000244,1,259,,,,,,,,,,,,,3,4,2,stim/42.jpeg,HouseObjects,1,stim/objects/HouseObjects/dustpan.png,0.9,4,0.2,-0.15,left,17,2020-12-18_13h33.57.637,premup-three_ses-02_part-02_label-phase2,3.2.4,Win32,60,,,,,,,,,,,,,,,,,1,0,330,231,1,329,2,,,,,,
right,0.65500021,1,260,,,,,,,,,,,,,3,3,4,stim/34.jpeg,Instruments,2,stim/objects/Instruments/flutetrans2.png,0.9,4,0.2,-0.15,right,17,2020-12-18_13h33.57.637,premup-three_ses-02_part-02_label-phase2,3.2.4,Win32,60,,,,,,,,,,,,,,,,,1,0,330,221,1,329,1,,,,,,
left,0.659000158,1,261,,,,,,,,,,,,,2,2,3,stim/23.jpeg,HouseObjects,1,stim/objects/HouseObjects/dishsoap.png,0.7,1,-0.2,0.15,left,17,2020-12-18_13h33.57.637,premup-three_ses-02_part-02_label-phase2,3.2.4,Win32,60,,,,,,,,,,,,,,,,,1,0,330,109,1,329,2,,,,,,
right,0.569000244,1,262,,,,,,,,,,,,,3,3,3,stim/33.jpeg,Instruments,2,stim/objects/Instruments/grandpiano2.png,0.9,2,0.2,0.15,right,17,2020-12-18_13h33.57.637,premup-three_ses-02_part-02_label-phase2,3.2.4,Win32,60,,,,,,,,,,,,,,,,,1,0,330,224,1,329,1,,,,,,
left,0.553000212,1,263,,,,,,,,,,,,,3,4,3,stim/43.jpeg,HouseObjects,1,stim/objects/HouseObjects/flyswatter.png,0.9,1,-0.2,0.15,left,17,2020-12-18_13h33.57.637,premup-three_ses-02_part-02_label-phase2,3.2.4,Win32,60,,,,,,,,,,,,,,,,,1,0,330,252,1,329,2,,,,,,
left,0.859000206,0,264,,,,,,,,,,,,,1,6,2,stim/62.jpeg,Instruments,2,stim/objects/Instruments/bassguitar.png,0.5,4,0.2,-0.15,right,17,2020-12-18_13h33.57.637,premup-three_ses-02_part-02_label-phase2,3.2.4,Win32,60,,,,,,,,,,,,,,,,,1,0,330,45,1,329,2,,,,,,
left,0.721000195,1,265,,,,,,,,,,,,,3,4,2,stim/42.jpeg,HouseObjects,1,stim/objects/HouseObjects/flyswatter.png,0.9,1,-0.2,0.15,left,17,2020-12-18_13h33.57.637,premup-three_ses-02_part-02_label-phase2,3.2.4,Win32,60,,,,,,,,,,,,,,,,,1,0,330,267,1,329,2,,,,,,
left,0.697000265,1,266,,,,,,,,,,,,,2,2,4,stim/24.jpeg,HouseObjects,1,stim/objects/HouseObjects/clock2.png,0.7,3,-0.2,-0.15,left,17,2020-12-18_13h33.57.637,premup-three_ses-02_part-02_label-phase2,3.2.4,Win32,60,,,,,,,,,,,,,,,,,1,0,330,114,1,329,1,,,,,,
right,0.87100029,1,267,,,,,,,,,,,,,1,6,4,stim/64.jpeg,Instruments,2,stim/objects/Instruments/cello.png,0.5,4,0.2,-0.15,right,17,2020-12-18_13h33.57.637,premup-three_ses-02_part-02_label-phase2,3.2.4,Win32,60,,,,,,,,,,,,,,,,,1,0,330,51,1,329,2,,,,,,
left,0.732000113,1,268,,,,,,,,,,,,,3,4,4,stim/44.jpeg,HouseObjects,1,stim/objects/HouseObjects/flyswatter.png,0.9,3,-0.2,-0.15,left,17,2020-12-18_13h33.57.637,premup-three_ses-02_part-02_label-phase2,3.2.4,Win32,60,,,,,,,,,,,,,,,,,1,0,330,297,1,329,2,,,,,,
right,0.804000139,1,269,,,,,,,,,,,,,1,6,4,stim/64.jpeg,Instruments,2,stim/objects/Instruments/speaker.png,0.5,1,-0.2,0.15,right,17,2020-12-18_13h33.57.637,premup-three_ses-02_part-02_label-phase2,3.2.4,Win32,60,,,,,,,,,,,,,,,,,1,0,330,55,1,329,1,,,,,,
left,0.657000303,1,270,,,,,,,,,,,,,3,4,3,stim/43.jpeg,HouseObjects,1,stim/objects/HouseObjects/dustpan.png,0.9,2,0.2,0.15,left,17,2020-12-18_13h33.57.637,premup-three_ses-02_part-02_label-phase2,3.2.4,Win32,60,,,,,,,,,,,,,,,,,1,0,330,276,1,329,2,,,,,,
left,0.519000053,1,271,,,,,,,,,,,,,2,2,2,stim/22.jpeg,HouseObjects,1,stim/objects/HouseObjects/clothespin.png,0.7,1,-0.2,0.15,left,17,2020-12-18_13h33.57.637,premup-three_ses-02_part-02_label-phase2,3.2.4,Win32,60,,,,,,,,,,,,,,,,,1,0,330,96,1,329,2,,,,,,
left,0.561000109,1,272,,,,,,,,,,,,,3,4,1,stim/41.jpeg,HouseObjects,1,stim/objects/HouseObjects/glass.png,0.9,2,0.2,0.15,left,17,2020-12-18_13h33.57.637,premup-three_ses-02_part-02_label-phase2,3.2.4,Win32,60,,,,,,,,,,,,,,,,,1,0,330,234,1,329,2,,,,,,
left,0.56400013,1,273,,,,,,,,,,,,,3,4,1,stim/41.jpeg,HouseObjects,1,stim/objects/HouseObjects/doormat.png,0.9,4,0.2,-0.15,left,17,2020-12-18_13h33.57.637,premup-three_ses-02_part-02_label-phase2,3.2.4,Win32,60,,,,,,,,,,,,,,,,,1,0,330,290,1,329,2,,,,,,
right,0.776000023,1,274,,,,,,,,,,,,,3,3,1,stim/31.jpeg,Instruments,2,stim/objects/Instruments/gong.png,0.9,4,0.2,-0.15,right,17,2020-12-18_13h33.57.637,premup-three_ses-02_part-02_label-phase2,3.2.4,Win32,60,,,,,,,,,,,,,,,,,1,0,330,218,1,329,2,,,,,,
left,0.616000175,1,275,,,,,,,,,,,,,3,4,2,stim/42.jpeg,HouseObjects,1,stim/objects/HouseObjects/dustpan.png,0.9,3,-0.2,-0.15,left,17,2020-12-18_13h33.57.637,premup-three_ses-02_part-02_label-phase2,3.2.4,Win32,60,,,,,,,,,,,,,,,,,1,0,330,291,1,329,2,,,,,,
left,0.554000139,1,276,,,,,,,,,,,,,3,4,1,stim/41.jpeg,HouseObjects,1,stim/objects/HouseObjects/flyswatter.png,0.9,1,-0.2,0.15,left,17,2020-12-18_13h33.57.637,premup-three_ses-02_part-02_label-phase2,3.2.4,Win32,60,,,,,,,,,,,,,,,,,1,0,330,242,1,329,2,,,,,,
left,0.539999962,1,277,,,,,,,,,,,,,3,4,3,stim/43.jpeg,HouseObjects,1,stim/objects/HouseObjects/garbagebin.png,0.9,2,0.2,0.15,left,17,2020-12-18_13h33.57.637,premup-three_ses-02_part-02_label-phase2,3.2.4,Win32,60,,,,,,,,,,,,,,,,,1,0,330,248,1,329,2,,,,,,
right,0.601999998,1,278,,,,,,,,,,,,,3,3,4,stim/34.jpeg,Instruments,2,stim/objects/Instruments/guitarcase2.png,0.9,4,0.2,-0.15,right,17,2020-12-18_13h33.57.637,premup-three_ses-02_part-02_label-phase2,3.2.4,Win32,60,,,,,,,,,,,,,,,,,1,0,330,225,1,329,1,,,,,,
right,0.7900002,0,279,,,,,,,,,,,,,1,5,4,stim/54.jpeg,HouseObjects,1,stim/objects/HouseObjects/hairdryer.png,0.5,3,-0.2,-0.15,left,17,2020-12-18_13h33.57.637,premup-three_ses-02_part-02_label-phase2,3.2.4,Win32,60,,,,,,,,,,,,,,,,,1,0,330,11,1,329,1,,,,,,
left,0.779999971,1,280,,,,,,,,,,,,,3,4,2,stim/42.jpeg,HouseObjects,1,stim/objects/HouseObjects/glass.png,0.9,4,0.2,-0.15,left,17,2020-12-18_13h33.57.637,premup-three_ses-02_part-02_label-phase2,3.2.4,Win32,60,,,,,,,,,,,,,,,,,1,0,330,279,1,329,2,,,,,,
left,0.588000298,1,281,,,,,,,,,,,,,3,4,1,stim/41.jpeg,HouseObjects,1,stim/objects/HouseObjects/dustpan.png,0.9,2,0.2,0.15,left,17,2020-12-18_13h33.57.637,premup-three_ses-02_part-02_label-phase2,3.2.4,Win32,60,,,,,,,,,,,,,,,,,1,0,330,266,1,329,2,,,,,,
left,0.519000053,1,282,,,,,,,,,,,,,3,4,4,stim/44.jpeg,HouseObjects,1,stim/objects/HouseObjects/towel2.png,0.9,3,-0.2,-0.15,left,17,2020-12-18_13h33.57.637,premup-three_ses-02_part-02_label-phase2,3.2.4,Win32,60,,,,,,,,,,,,,,,,,1,0,330,317,1,329,1,,,,,,
right,0.544000149,1,283,,,,,,,,,,,,,2,1,4,stim/14.jpeg,Instruments,2,stim/objects/Instruments/electricguitar.png,0.7,4,0.2,-0.15,right,17,2020-12-18_13h33.57.637,premup-three_ses-02_part-02_label-phase2,3.2.4,Win32,60,,,,,,,,,,,,,,,,,1,0,330,79,1,329,2,,,,,,
left,0.618000031,1,284,,,,,,,,,,,,,3,4,3,stim/43.jpeg,HouseObjects,1,stim/objects/HouseObjects/doormat.png,0.9,3,-0.2,-0.15,left,17,2020-12-18_13h33.57.637,premup-three_ses-02_part-02_label-phase2,3.2.4,Win32,60,,,,,,,,,,,,,,,,,1,0,330,240,1,329,2,,,,,,
left,0.695000172,0,285,,,,,,,,,,,,,2,1,2,stim/12.jpeg,Instruments,2,stim/objects/Instruments/xylophone.png,0.7,3,-0.2,-0.15,right,17,2020-12-18_13h33.57.637,premup-three_ses-02_part-02_label-phase2,3.2.4,Win32,60,,,,,,,,,,,,,,,,,1,0,330,89,1,329,1,,,,,,
right,0.616000175,1,286,,,,,,,,,,,,,3,3,2,stim/32.jpeg,Instruments,2,stim/objects/Instruments/flute.png,0.9,2,0.2,0.15,right,17,2020-12-18_13h33.57.637,premup-three_ses-02_part-02_label-phase2,3.2.4,Win32,60,,,,,,,,,,,,,,,,,1,0,330,215,1,329,2,,,,,,
right,0.54700017,1,287,,,,,,,,,,,,,3,3,2,stim/32.jpeg,Instruments,2,stim/objects/Instruments/frenchhorn.png,0.9,4,0.2,-0.15,right,17,2020-12-18_13h33.57.637,premup-three_ses-02_part-02_label-phase2,3.2.4,Win32,60,,,,,,,,,,,,,,,,,1,0,330,207,1,329,2,,,,,,
left,0.470000267,1,288,,,,,,,,,,,,,3,4,1,stim/41.jpeg,HouseObjects,1,stim/objects/HouseObjects/flyswatter.png,0.9,1,-0.2,0.15,left,17,2020-12-18_13h33.57.637,premup-three_ses-02_part-02_label-phase2,3.2.4,Win32,60,,,,,,,,,,,,,,,,,1,0,330,282,1,329,2,,,,,,
right,0.517000198,1,289,,,,,,,,,,,,,3,3,4,stim/34.jpeg,Instruments,2,stim/objects/Instruments/gong.png,0.9,4,0.2,-0.15,right,17,2020-12-18_13h33.57.637,premup-three_ses-02_part-02_label-phase2,3.2.4,Win32,60,,,,,,,,,,,,,,,,,1,0,330,173,1,329,2,,,,,,
right,0.63800025,1,290,,,,,,,,,,,,,3,3,1,stim/31.jpeg,Instruments,2,stim/objects/Instruments/grandpiano.png,0.9,2,0.2,0.15,right,17,2020-12-18_13h33.57.637,premup-three_ses-02_part-02_label-phase2,3.2.4,Win32,60,,,,,,,,,,,,,,,,,1,0,330,194,1,329,2,,,,,,
,,0,291,,,,,,,,,,,,,3,4,1,stim/41.jpeg,HouseObjects,1,stim/objects/HouseObjects/garbagebin.png,0.9,4,0.2,-0.15,left,17,2020-12-18_13h33.57.637,premup-three_ses-02_part-02_label-phase2,3.2.4,Win32,60,,,,,,,,,,,,,,,,,1,0,330,298,1,329,2,,,,,,
right,0.731000185,1,292,,,,,,,,,,,,,3,3,3,stim/33.jpeg,Instruments,2,stim/objects/Instruments/gong.png,0.9,2,0.2,0.15,right,17,2020-12-18_13h33.57.637,premup-three_ses-02_part-02_label-phase2,3.2.4,Win32,60,,,,,,,,,,,,,,,,,1,0,330,208,1,329,2,,,,,,
right,0.691000223,0,293,,,,,,,,,,,,,2,1,3,stim/13.jpeg,HouseObjects,1,stim/objects/HouseObjects/ballofstring2.png,0.3,3,-0.2,-0.15,left,17,2020-12-18_13h33.57.637,premup-three_ses-02_part-02_label-phase2,3.2.4,Win32,60,,,,,,,,,,,,,,,,,1,0,330,66,1,329,1,,,,,,
right,0.566000223,1,294,,,,,,,,,,,,,3,3,4,stim/34.jpeg,Instruments,2,stim/objects/Instruments/gong.png,0.9,4,0.2,-0.15,right,17,2020-12-18_13h33.57.637,premup-three_ses-02_part-02_label-phase2,3.2.4,Win32,60,,,,,,,,,,,,,,,,,1,0,330,213,1,329,2,,,,,,
left,0.580000162,1,295,,,,,,,,,,,,,2,2,3,stim/23.jpeg,HouseObjects,1,stim/objects/HouseObjects/coffee2.png,0.7,2,0.2,0.15,left,17,2020-12-18_13h33.57.637,premup-three_ses-02_part-02_label-phase2,3.2.4,Win32,60,,,,,,,,,,,,,,,,,1,0,330,117,1,329,1,,,,,,
left,0.476999998,1,296,,,,,,,,,,,,,3,4,2,stim/42.jpeg,HouseObjects,1,stim/objects/HouseObjects/glass.png,0.9,3,-0.2,-0.15,left,17,2020-12-18_13h33.57.637,premup-three_ses-02_part-02_label-phase2,3.2.4,Win32,60,,,,,,,,,,,,,,,,,1,0,330,259,1,329,2,,,,,,
left,0.533000231,1,297,,,,,,,,,,,,,3,4,1,stim/41.jpeg,HouseObjects,1,stim/objects/HouseObjects/doormat.png,0.9,2,0.2,0.15,left,17,2020-12-18_13h33.57.637,premup-three_ses-02_part-02_label-phase2,3.2.4,Win32,60,,,,,,,,,,,,,,,,,1,0,330,250,1,329,2,,,,,,
left,0.566000223,1,298,,,,,,,,,,,,,3,4,4,stim/44.jpeg,HouseObjects,1,stim/objects/HouseObjects/glass.png,0.9,3,-0.2,-0.15,left,17,2020-12-18_13h33.57.637,premup-three_ses-02_part-02_label-phase2,3.2.4,Win32,60,,,,,,,,,,,,,,,,,1,0,330,289,1,329,2,,,,,,
left,0.616000175,0,299,,,,,,,,,,,,,3,4,4,stim/44.jpeg,Instruments,2,stim/objects/Instruments/tambourine2.png,0.1,4,0.2,-0.15,right,17,2020-12-18_13h33.57.637,premup-three_ses-02_part-02_label-phase2,3.2.4,Win32,60,,,,,,,,,,,,,,,,,1,0,330,321,1,329,1,,,,,,
left,0.593000174,0,300,,,,,,,,,,,,,3,3,4,stim/34.jpeg,Instruments,2,stim/objects/Instruments/gong.png,0.9,1,-0.2,0.15,right,17,2020-12-18_13h33.57.637,premup-three_ses-02_part-02_label-phase2,3.2.4,Win32,60,,,,,,,,,,,,,,,,,1,0,330,153,1,329,2,,,,,,
left,0.560000181,1,301,,,,,,,,,,,,,2,2,2,stim/22.jpeg,HouseObjects,1,stim/objects/HouseObjects/cushion.png,0.7,3,-0.2,-0.15,left,17,2020-12-18_13h33.57.637,premup-three_ses-02_part-02_label-phase2,3.2.4,Win32,60,,,,,,,,,,,,,,,,,1,0,330,108,1,329,2,,,,,,
left,0.618999958,1,302,,,,,,,,,,,,,3,4,3,stim/43.jpeg,HouseObjects,1,stim/objects/HouseObjects/glass.png,0.9,4,0.2,-0.15,left,17,2020-12-18_13h33.57.637,premup-three_ses-02_part-02_label-phase2,3.2.4,Win32,60,,,,,,,,,,,,,,,,,1,0,330,264,1,329,2,,,,,,
right,0.584000111,1,303,,,,,,,,,,,,,3,3,1,stim/31.jpeg,Instruments,2,stim/objects/Instruments/frenchhorn.png,0.9,1,-0.2,0.15,right,17,2020-12-18_13h33.57.637,premup-three_ses-02_part-02_label-phase2,3.2.4,Win32,60,,,,,,,,,,,,,,,,,1,0,330,202,1,329,2,,,,,,
right,0.828000069,0,304,,,,,,,,,,,,,1,6,1,stim/61.jpeg,HouseObjects,1,stim/objects/HouseObjects/bottle.png,0.5,2,0.2,0.15,left,17,2020-12-18_13h33.57.637,premup-three_ses-02_part-02_label-phase2,3.2.4,Win32,60,,,,,,,,,,,,,,,,,1,0,330,36,1,329,2,,,,,,
right,0.62100029,1,305,,,,,,,,,,,,,3,3,1,stim/31.jpeg,Instruments,2,stim/objects/Instruments/flutetrans.png,0.9,3,-0.2,-0.15,right,17,2020-12-18_13h33.57.637,premup-three_ses-02_part-02_label-phase2,3.2.4,Win32,60,,,,,,,,,,,,,,,,,1,0,330,166,1,329,2,,,,,,
right,0.732000351,0,306,,,,,,,,,,,,,2,2,2,stim/22.jpeg,HouseObjects,1,stim/objects/HouseObjects/dishsoap.png,0.7,2,0.2,0.15,left,17,2020-12-18_13h33.57.637,premup-three_ses-02_part-02_label-phase2,3.2.4,Win32,60,,,,,,,,,,,,,,,,,1,0,330,104,1,329,2,,,,,,
left,0.820000172,1,307,,,,,,,,,,,,,2,2,1,stim/21.jpeg,HouseObjects,1,stim/objects/HouseObjects/clothesdryingrack.png,0.7,1,-0.2,0.15,left,17,2020-12-18_13h33.57.637,premup-three_ses-02_part-02_label-phase2,3.2.4,Win32,60,,,,,,,,,,,,,,,,,1,0,330,95,1,329,2,,,,,,
left,0.465000153,0,308,,,,,,,,,,,,,3,4,1,stim/41.jpeg,Instruments,2,stim/objects/Instruments/tuba2.png,0.1,3,-0.2,-0.15,right,17,2020-12-18_13h33.57.637,premup-three_ses-02_part-02_label-phase2,3.2.4,Win32,60,,,,,,,,,,,,,,,,,1,0,330,326,1,329,1,,,,,,
right,0.598999977,1,309,,,,,,,,,,,,,3,3,4,stim/34.jpeg,Instruments,2,stim/objects/Instruments/flute.png,0.9,1,-0.2,0.15,right,17,2020-12-18_13h33.57.637,premup-three_ses-02_part-02_label-phase2,3.2.4,Win32,60,,,,,,,,,,,,,,,,,1,0,330,145,1,329,2,,,,,,
right,0.700000048,0,310,,,,,,,,,,,,,1,5,3,stim/53.jpeg,HouseObjects,1,stim/objects/HouseObjects/barbecuelighter.png,0.5,1,-0.2,0.15,left,17,2020-12-18_13h33.57.637,premup-three_ses-02_part-02_label-phase2,3.2.4,Win32,60,,,,,,,,,,,,,,,,,1,0,330,2,1,329,2,,,,,,
right,0.778000116,0,311,,,,,,,,,,,,,1,5,1,stim/51.jpeg,HouseObjects,1,stim/objects/HouseObjects/bleachbottle.png,0.5,4,0.2,-0.15,left,17,2020-12-18_13h33.57.637,premup-three_ses-02_part-02_label-phase2,3.2.4,Win32,60,,,,,,,,,,,,,,,,,1,0,330,4,1,329,2,,,,,,
right,0.666000128,1,312,,,,,,,,,,,,,3,3,3,stim/33.jpeg,Instruments,2,stim/objects/Instruments/flute.png,0.9,1,-0.2,0.15,right,17,2020-12-18_13h33.57.637,premup-three_ses-02_part-02_label-phase2,3.2.4,Win32,60,,,,,,,,,,,,,,,,,1,0,330,140,1,329,2,,,,,,
right,0.850000143,1,313,,,,,,,,,,,,,1,5,1,stim/51.jpeg,Instruments,2,stim/objects/Instruments/accordion.png,0.5,2,0.2,0.15,right,17,2020-12-18_13h33.57.637,premup-three_ses-02_part-02_label-phase2,3.2.4,Win32,60,,,,,,,,,,,,,,,,,1,0,330,20,1,329,2,,,,,,
left,0.876000166,0,314,,,,,,,,,,,,,2,2,2,stim/22.jpeg,Instruments,2,stim/objects/Instruments/bassguitar2.png,0.3,4,0.2,-0.15,right,17,2020-12-18_13h33.57.637,premup-three_ses-02_part-02_label-phase2,3.2.4,Win32,60,,,,,,,,,,,,,,,,,1,0,330,120,1,329,1,,,,,,
left,0.595000029,1,315,,,,,,,,,,,,,2,2,4,stim/24.jpeg,HouseObjects,1,stim/objects/HouseObjects/cushion2.png,0.7,4,0.2,-0.15,left,17,2020-12-18_13h33.57.637,premup-three_ses-02_part-02_label-phase2,3.2.4,Win32,60,,,,,,,,,,,,,,,,,1,0,330,118,1,329,1,,,,,,
left,0.531000137,0,316,,,,,,,,,,,,,2,2,1,stim/21.jpeg,Instruments,2,stim/objects/Instruments/clarinet2.png,0.3,1,-0.2,0.15,right,17,2020-12-18_13h33.57.637,premup-three_ses-02_part-02_label-phase2,3.2.4,Win32,60,,,,,,,,,,,,,,,,,1,0,330,123,1,329,1,,,,,,
right,0.492000103,1,317,,,,,,,,,,,,,1,6,4,stim/64.jpeg,Instruments,2,stim/objects/Instruments/trombone.png,0.5,1,-0.2,0.15,right,17,2020-12-18_13h33.57.637,premup-three_ses-02_part-02_label-phase2,3.2.4,Win32,60,,,,,,,,,,,,,,,,,1,0,330,59,1,329,1,,,,,,
right,0.757000208,0,318,,,,,,,,,,,,,1,6,3,stim/63.jpeg,HouseObjects,1,stim/objects/HouseObjects/bucket.png,0.5,2,0.2,0.15,left,17,2020-12-18_13h33.57.637,premup-three_ses-02_part-02_label-phase2,3.2.4,Win32,60,,,,,,,,,,,,,,,,,1,0,330,38,1,329,2,,,,,,
right,0.647000074,1,319,,,,,,,,,,,,,3,3,4,stim/34.jpeg,Instruments,2,stim/objects/Instruments/grandpiano.png,0.9,4,0.2,-0.15,right,17,2020-12-18_13h33.57.637,premup-three_ses-02_part-02_label-phase2,3.2.4,Win32,60,,,,,,,,,,,,,,,,,1,0,330,149,1,329,2,,,,,,
right,0.690000057,1,320,,,,,,,,,,,,,2,2,3,stim/23.jpeg,Instruments,2,stim/objects/Instruments/cymbal2.png,0.3,4,0.2,-0.15,right,17,2020-12-18_13h33.57.637,premup-three_ses-02_part-02_label-phase2,3.2.4,Win32,60,,,,,,,,,,,,,,,,,1,0,330,125,1,329,1,,,,,,
,,0,321,,,,,,,,,,,,,1,6,2,stim/62.jpeg,HouseObjects,1,stim/objects/HouseObjects/bucket.png,0.5,4,0.2,-0.15,left,17,2020-12-18_13h33.57.637,premup-three_ses-02_part-02_label-phase2,3.2.4,Win32,60,,,,,,,,,,,,,,,,,1,0,330,33,1,329,2,,,,,,
right,0.565000057,1,322,,,,,,,,,,,,,3,3,3,stim/33.jpeg,Instruments,2,stim/objects/Instruments/grandpiano.png,0.9,2,0.2,0.15,right,17,2020-12-18_13h33.57.637,premup-three_ses-02_part-02_label-phase2,3.2.4,Win32,60,,,,,,,,,,,,,,,,,1,0,330,184,1,329,2,,,,,,
right,0.454000235,0,323,,,,,,,,,,,,,3,4,2,stim/42.jpeg,HouseObjects,1,stim/objects/HouseObjects/doormat.png,0.9,1,-0.2,0.15,left,17,2020-12-18_13h33.57.637,premup-three_ses-02_part-02_label-phase2,3.2.4,Win32,60,,,,,,,,,,,,,,,,,1,0,330,295,1,329,2,,,,,,
left,0.914999962,1,324,,,,,,,,,,,,,1,5,1,stim/51.jpeg,HouseObjects,1,stim/objects/HouseObjects/handbrush.png,0.5,1,-0.2,0.15,left,17,2020-12-18_13h33.57.637,premup-three_ses-02_part-02_label-phase2,3.2.4,Win32,60,,,,,,,,,,,,,,,,,1,0,330,12,1,329,1,,,,,,
left,0.641000271,1,325,,,,,,,,,,,,,2,2,1,stim/21.jpeg,HouseObjects,1,stim/objects/HouseObjects/bottle2.png,0.7,1,-0.2,0.15,left,17,2020-12-18_13h33.57.637,premup-three_ses-02_part-02_label-phase2,3.2.4,Win32,60,,,,,,,,,,,,,,,,,1,0,330,111,1,329,1,,,,,,
left,0.861000299,1,326,,,,,,,,,,,,,2,2,1,stim/21.jpeg,HouseObjects,1,stim/objects/HouseObjects/dishsoap2.png,0.7,4,0.2,-0.15,left,17,2020-12-18_13h33.57.637,premup-three_ses-02_part-02_label-phase2,3.2.4,Win32,60,,,,,,,,,,,,,,,,,1,0,330,119,1,329,1,,,,,,
right,0.50600028,0,327,,,,,,,,,,,,,3,3,3,stim/33.jpeg,HouseObjects,1,stim/objects/HouseObjects/hairdryer2.png,0.1,3,-0.2,-0.15,left,17,2020-12-18_13h33.57.637,premup-three_ses-02_part-02_label-phase2,3.2.4,Win32,60,,,,,,,,,,,,,,,,,1,0,330,136,1,329,1,,,,,,
right,0.59700036,1,328,,,,,,,,,,,,,3,3,4,stim/34.jpeg,Instruments,2,stim/objects/Instruments/flutetrans.png,0.9,3,-0.2,-0.15,right,17,2020-12-18_13h33.57.637,premup-three_ses-02_part-02_label-phase2,3.2.4,Win32,60,,,,,,,,,,,,,,,,,1,0,330,181,1,329,2,,,,,,
right,0.669000149,1,329,,,,,,,,,,,,,2,1,1,stim/11.jpeg,Instruments,2,stim/objects/Instruments/electricguitar.png,0.7,2,0.2,0.15,right,17,2020-12-18_13h33.57.637,premup-three_ses-02_part-02_label-phase2,3.2.4,Win32,60,,,,,,,,,,,,,,,,,1,0,330,84,1,329,2,,,,,,
right,0.600000143,1,330,,,,,,,,,,,,,2,1,2,stim/12.jpeg,Instruments,2,stim/objects/Instruments/electricdrumset.png,0.7,1,-0.2,0.15,right,17,2020-12-18_13h33.57.637,premup-three_ses-02_part-02_label-phase2,3.2.4,Win32,60,,,,,,,,,,,,,,,,,1,0,330,73,1,329,2,,,,,,
left,0.68900013,0,331,,,,,,,,,,,,,1,6,2,stim/62.jpeg,Instruments,2,stim/objects/Instruments/clarinet.png,0.5,2,0.2,0.15,right,17,2020-12-18_13h33.57.637,premup-three_ses-02_part-02_label-phase2,3.2.4,Win32,60,,,,,,,,,,,,,,,,,1,0,330,53,1,329,2,,,,,,
right,0.710000038,1,332,,,,,,,,,,,,,2,1,3,stim/13.jpeg,Instruments,2,stim/objects/Instruments/electricdrumset.png,0.7,4,0.2,-0.15,right,17,2020-12-18_13h33.57.637,premup-three_ses-02_part-02_label-phase2,3.2.4,Win32,60,,,,,,,,,,,,,,,,,1,0,330,78,1,329,2,,,,,,
right,0.85800004,1,333,,,,,,,,,,,,,3,3,2,stim/32.jpeg,Instruments,2,stim/objects/Instruments/flutetrans.png,0.9,1,-0.2,0.15,right,17,2020-12-18_13h33.57.637,premup-three_ses-02_part-02_label-phase2,3.2.4,Win32,60,,,,,,,,,,,,,,,,,1,0,330,151,1,329,2,,,,,,
,,0,334,,,,,,,,,,,,,2,2,3,stim/23.jpeg,HouseObjects,1,stim/objects/HouseObjects/coffee.png,0.7,3,-0.2,-0.15,left,17,2020-12-18_13h33.57.637,premup-three_ses-02_part-02_label-phase2,3.2.4,Win32,60,,,,,,,,,,,,,,,,,1,0,330,97,1,329,2,,,,,,
left,0.467000008,0,335,,,,,,,,,,,,,2,2,3,stim/23.jpeg,Instruments,2,stim/objects/Instruments/cello2.png,0.3,3,-0.2,-0.15,right,17,2020-12-18_13h33.57.637,premup-three_ses-02_part-02_label-phase2,3.2.4,Win32,60,,,,,,,,,,,,,,,,,1,0,330,121,1,329,1,,,,,,
left,0.536999941,1,336,,,,,,,,,,,,,3,4,1,stim/41.jpeg,HouseObjects,1,stim/objects/HouseObjects/garbagebin.png,0.9,2,0.2,0.15,left,17,2020-12-18_13h33.57.637,premup-three_ses-02_part-02_label-phase2,3.2.4,Win32,60,,,,,,,,,,,,,,,,,1,0,330,258,1,329,2,,,,,,
left,0.418000221,1,337,,,,,,,,,,,,,3,4,4,stim/44.jpeg,HouseObjects,1,stim/objects/HouseObjects/garbagebin.png,0.9,1,-0.2,0.15,left,17,2020-12-18_13h33.57.637,premup-three_ses-02_part-02_label-phase2,3.2.4,Win32,60,,,,,,,,,,,,,,,,,1,0,330,273,1,329,2,,,,,,
left,0.511000156,1,338,,,,,,,,,,,,,3,4,3,stim/43.jpeg,HouseObjects,1,stim/objects/HouseObjects/doormat.png,0.9,4,0.2,-0.15,left,17,2020-12-18_13h33.57.637,premup-three_ses-02_part-02_label-phase2,3.2.4,Win32,60,,,,,,,,,,,,,,,,,1,0,330,260,1,329,2,,,,,,
right,0.551000118,1,339,,,,,,,,,,,,,3,3,1,stim/31.jpeg,Instruments,2,stim/objects/Instruments/flute.png,0.9,2,0.2,0.15,right,17,2020-12-18_13h33.57.637,premup-three_ses-02_part-02_label-phase2,3.2.4,Win32,60,,,,,,,,,,,,,,,,,1,0,330,150,1,329,2,,,,,,
right,0.571000338,0,340,,,,,,,,,,,,,3,3,1,stim/31.jpeg,HouseObjects,1,stim/objects/HouseObjects/doormat2.png,0.1,1,-0.2,0.15,left,17,2020-12-18_13h33.57.637,premup-three_ses-02_part-02_label-phase2,3.2.4,Win32,60,,,,,,,,,,,,,,,,,1,0,330,130,1,329,1,,,,,,
right,0.590000391,0,341,,,,,,,,,,,,,3,3,2,stim/32.jpeg,HouseObjects,1,stim/objects/HouseObjects/safetypin2.png,0.1,1,-0.2,0.15,left,17,2020-12-18_13h33.57.637,premup-three_ses-02_part-02_label-phase2,3.2.4,Win32,60,,,,,,,,,,,,,,,,,1,0,330,139,1,329,1,,,,,,
left,0.940000057,0,342,,,,,,,,,,,,,3,4,3,stim/43.jpeg,Instruments,2,stim/objects/Instruments/speaker2.png,0.1,1,-0.2,0.15,right,17,2020-12-18_13h33.57.637,premup-three_ses-02_part-02_label-phase2,3.2.4,Win32,60,,,,,,,,,,,,,,,,,1,0,330,320,1,329,1,,,,,,
left,0.664000273,0,343,,,,,,,,,,,,,3,3,2,stim/32.jpeg,Instruments,2,stim/objects/Instruments/flutetrans.png,0.9,1,-0.2,0.15,right,17,2020-12-18_13h33.57.637,premup-three_ses-02_part-02_label-phase2,3.2.4,Win32,60,,,,,,,,,,,,,,,,,1,0,330,211,1,329,2,,,,,,
right,0.715000153,1,344,,,,,,,,,,,,,1,6,4,stim/64.jpeg,Instruments,2,stim/objects/Instruments/chime.png,0.5,1,-0.2,0.15,right,17,2020-12-18_13h33.57.637,premup-three_ses-02_part-02_label-phase2,3.2.4,Win32,60,,,,,,,,,,,,,,,,,1,0,330,47,1,329,2,,,,,,
left,0.621999979,1,345,,,,,,,,,,,,,3,4,2,stim/42.jpeg,HouseObjects,1,stim/objects/HouseObjects/dustpan.png,0.9,4,0.2,-0.15,left,17,2020-12-18_13h33.57.637,premup-three_ses-02_part-02_label-phase2,3.2.4,Win32,60,,,,,,,,,,,,,,,,,1,0,330,271,1,329,2,,,,,,
right,0.510000229,1,346,,,,,,,,,,,,,3,3,3,stim/33.jpeg,Instruments,2,stim/objects/Instruments/frenchhorn.png,0.9,4,0.2,-0.15,right,17,2020-12-18_13h33.57.637,premup-three_ses-02_part-02_label-phase2,3.2.4,Win32,60,,,,,,,,,,,,,,,,,1,0,330,192,1,329,2,,,,,,
right,0.582000017,1,347,,,,,,,,,,,,,2,1,4,stim/14.jpeg,Instruments,2,stim/objects/Instruments/cymbal.png,0.7,2,0.2,0.15,right,17,2020-12-18_13h33.57.637,premup-three_ses-02_part-02_label-phase2,3.2.4,Win32,60,,,,,,,,,,,,,,,,,1,0,330,75,1,329,2,,,,,,
right,0.592000008,0,348,,,,,,,,,,,,,3,3,2,stim/32.jpeg,HouseObjects,1,stim/objects/HouseObjects/dustpan2.png,0.1,2,0.2,0.15,left,17,2020-12-18_13h33.57.637,premup-three_ses-02_part-02_label-phase2,3.2.4,Win32,60,,,,,,,,,,,,,,,,,1,0,330,131,1,329,1,,,,,,
right,0.503000259,1,349,,,,,,,,,,,,,3,3,4,stim/34.jpeg,Instruments,2,stim/objects/Instruments/flute.png,0.9,4,0.2,-0.15,right,17,2020-12-18_13h33.57.637,premup-three_ses-02_part-02_label-phase2,3.2.4,Win32,60,,,,,,,,,,,,,,,,,1,0,330,205,1,329,2,,,,,,
left,0.746000051,1,350,,,,,,,,,,,,,1,5,4,stim/54.jpeg,HouseObjects,1,stim/objects/HouseObjects/basket.png,0.5,1,-0.2,0.15,left,17,2020-12-18_13h33.57.637,premup-three_ses-02_part-02_label-phase2,3.2.4,Win32,60,,,,,,,,,,,,,,,,,1,0,330,3,1,329,2,,,,,,
right,0.742000103,0,351,,,,,,,,,,,,,3,3,1,stim/31.jpeg,HouseObjects,1,stim/objects/HouseObjects/glass2.png,0.1,1,-0.2,0.15,left,17,2020-12-18_13h33.57.637,premup-three_ses-02_part-02_label-phase2,3.2.4,Win32,60,,,,,,,,,,,,,,,,,1,0,330,134,1,329,1,,,,,,
right,0.787000179,0,352,,,,,,,,,,,,,1,6,4,stim/64.jpeg,HouseObjects,1,stim/objects/HouseObjects/spraybottle.png,0.5,3,-0.2,-0.15,left,17,2020-12-18_13h33.57.637,premup-three_ses-02_part-02_label-phase2,3.2.4,Win32,60,,,,,,,,,,,,,,,,,1,0,330,43,1,329,1,,,,,,
right,0.728000164,0,353,,,,,,,,,,,,,1,6,2,stim/62.jpeg,HouseObjects,1,stim/objects/HouseObjects/broom.png,0.5,2,0.2,0.15,left,17,2020-12-18_13h33.57.637,premup-three_ses-02_part-02_label-phase2,3.2.4,Win32,60,,,,,,,,,,,,,,,,,1,0,330,37,1,329,2,,,,,,
right,0.933000088,0,354,,,,,,,,,,,,,3,3,3,stim/33.jpeg,HouseObjects,1,stim/objects/HouseObjects/flyswatter2.png,0.1,3,-0.2,-0.15,left,17,2020-12-18_13h33.57.637,premup-three_ses-02_part-02_label-phase2,3.2.4,Win32,60,,,,,,,,,,,,,,,,,1,0,330,132,1,329,1,,,,,,
right,0.550000191,1,355,,,,,,,,,,,,,3,3,3,stim/33.jpeg,Instruments,2,stim/objects/Instruments/grandpiano.png,0.9,4,0.2,-0.15,right,17,2020-12-18_13h33.57.637,premup-three_ses-02_part-02_label-phase2,3.2.4,Win32,60,,,,,,,,,,,,,,,,,1,0,330,204,1,329,2,,,,,,
right,0.680000305,1,356,,,,,,,,,,,,,2,1,1,stim/11.jpeg,Instruments,2,stim/objects/Instruments/doublebass.png,0.7,1,-0.2,0.15,right,17,2020-12-18_13h33.57.637,premup-three_ses-02_part-02_label-phase2,3.2.4,Win32,60,,,,,,,,,,,,,,,,,1,0,330,76,1,329,2,,,,,,
left,0.652000189,1,357,,,,,,,,,,,,,3,4,4,stim/44.jpeg,HouseObjects,1,stim/objects/HouseObjects/flyswatter.png,0.9,3,-0.2,-0.15,left,17,2020-12-18_13h33.57.637,premup-three_ses-02_part-02_label-phase2,3.2.4,Win32,60,,,,,,,,,,,,,,,,,1,0,330,277,1,329,2,,,,,,
right,0.722000122,0,358,,,,,,,,,,,,,2,2,3,stim/23.jpeg,HouseObjects,1,stim/objects/HouseObjects/clothesdryingrack.png,0.7,4,0.2,-0.15,left,17,2020-12-18_13h33.57.637,premup-three_ses-02_part-02_label-phase2,3.2.4,Win32,60,,,,,,,,,,,,,,,,,1,0,330,105,1,329,2,,,,,,
left,0.692000151,0,359,,,,,,,,,,,,,2,2,4,stim/24.jpeg,Instruments,2,stim/objects/Instruments/doublebass2.png,0.3,3,-0.2,-0.15,right,17,2020-12-18_13h33.57.637,premup-three_ses-02_part-02_label-phase2,3.2.4,Win32,60,,,,,,,,,,,,,,,,,1,0,330,126,1,329,1,,,,,,
right,0.779000282,1,360,,,,,,,,,,,,,3,3,3,stim/33.jpeg,Instruments,2,stim/objects/Instruments/flutetrans.png,0.9,3,-0.2,-0.15,right,17,2020-12-18_13h33.57.637,premup-three_ses-02_part-02_label-phase2,3.2.4,Win32,60,,,,,,,,,,,,,,,,,1,0,330,216,1,329,2,,,,,,
right,0.566000223,1,361,,,,,,,,,,,,,3,3,2,stim/32.jpeg,Instruments,2,stim/objects/Instruments/grandpiano.png,0.9,1,-0.2,0.15,right,17,2020-12-18_13h33.57.637,premup-three_ses-02_part-02_label-phase2,3.2.4,Win32,60,,,,,,,,,,,,,,,,,1,0,330,179,1,329,2,,,,,,
left,0.602000237,1,362,,,,,,,,,,,,,3,4,2,stim/42.jpeg,HouseObjects,1,stim/objects/HouseObjects/scale2.png,0.9,4,0.2,-0.15,left,17,2020-12-18_13h33.57.637,premup-three_ses-02_part-02_label-phase2,3.2.4,Win32,60,,,,,,,,,,,,,,,,,1,0,330,311,1,329,1,,,,,,
left,0.702000141,1,363,,,,,,,,,,,,,3,4,4,stim/44.jpeg,HouseObjects,1,stim/objects/HouseObjects/garbagebin.png,0.9,3,-0.2,-0.15,left,17,2020-12-18_13h33.57.637,premup-three_ses-02_part-02_label-phase2,3.2.4,Win32,60,,,,,,,,,,,,,,,,,1,0,330,293,1,329,2,,,,,,
right,0.653000116,1,364,,,,,,,,,,,,,3,3,4,stim/34.jpeg,Instruments,2,stim/objects/Instruments/gong.png,0.9,3,-0.2,-0.15,right,17,2020-12-18_13h33.57.637,premup-three_ses-02_part-02_label-phase2,3.2.4,Win32,60,,,,,,,,,,,,,,,,,1,0,330,193,1,329,2,,,,,,
right,0.703000069,1,365,,,,,,,,,,,,,2,1,1,stim/11.jpeg,Instruments,2,stim/objects/Instruments/drums.png,0.7,4,0.2,-0.15,right,17,2020-12-18_13h33.57.637,premup-three_ses-02_part-02_label-phase2,3.2.4,Win32,60,,,,,,,,,,,,,,,,,1,0,330,72,1,329,2,,,,,,
left,0.636000156,1,366,,,,,,,,,,,,,3,4,4,stim/44.jpeg,HouseObjects,1,stim/objects/HouseObjects/doormat.png,0.9,2,0.2,0.15,left,17,2020-12-18_13h33.57.637,premup-three_ses-02_part-02_label-phase2,3.2.4,Win32,60,,,,,,,,,,,,,,,,,1,0,330,285,1,329,2,,,,,,
left,0.577000141,1,367,,,,,,,,,,,,,3,4,2,stim/42.jpeg,HouseObjects,1,stim/objects/HouseObjects/doormat.png,0.9,4,0.2,-0.15,left,17,2020-12-18_13h33.57.637,premup-three_ses-02_part-02_label-phase2,3.2.4,Win32,60,,,,,,,,,,,,,,,,,1,0,330,275,1,329,2,,,,,,
left,0.524000168,0,368,,,,,,,,,,,,,3,3,3,stim/33.jpeg,Instruments,2,stim/objects/Instruments/flutetrans.png,0.9,2,0.2,0.15,right,17,2020-12-18_13h33.57.637,premup-three_ses-02_part-02_label-phase2,3.2.4,Win32,60,,,,,,,,,,,,,,,,,1,0,330,196,1,329,2,,,,,,
right,0.428000212,1,369,,,,,,,,,,,,,3,3,4,stim/34.jpeg,Instruments,2,stim/objects/Instruments/flutetrans.png,0.9,4,0.2,-0.15,right,17,2020-12-18_13h33.57.637,premup-three_ses-02_part-02_label-phase2,3.2.4,Win32,60,,,,,,,,,,,,,,,,,1,0,330,201,1,329,2,,,,,,
left,0.695000172,1,370,,,,,,,,,,,,,3,4,3,stim/43.jpeg,HouseObjects,1,stim/objects/HouseObjects/flyswatter.png,0.9,1,-0.2,0.15,left,17,2020-12-18_13h33.57.637,premup-three_ses-02_part-02_label-phase2,3.2.4,Win32,60,,,,,,,,,,,,,,,,,1,0,330,232,1,329,2,,,,,,
right,0.649000168,1,371,,,,,,,,,,,,,1,5,2,stim/52.jpeg,Instruments,2,stim/objects/Instruments/balalaika.png,0.5,2,0.2,0.15,right,17,2020-12-18_13h33.57.637,premup-three_ses-02_part-02_label-phase2,3.2.4,Win32,60,,,,,,,,,,,,,,,,,1,0,330,17,1,329,2,,,,,,
right,0.524000168,1,372,,,,,,,,,,,,,3,3,1,stim/31.jpeg,Instruments,2,stim/objects/Instruments/gong.png,0.9,3,-0.2,-0.15,right,17,2020-12-18_13h33.57.637,premup-three_ses-02_part-02_label-phase2,3.2.4,Win32,60,,,,,,,,,,,,,,,,,1,0,330,158,1,329,2,,,,,,
right,0.667000055,1,373,,,,,,,,,,,,,2,1,3,stim/13.jpeg,Instruments,2,stim/objects/Instruments/bassdrum2.png,0.7,1,-0.2,0.15,right,17,2020-12-18_13h33.57.637,premup-three_ses-02_part-02_label-phase2,3.2.4,Win32,60,,,,,,,,,,,,,,,,,1,0,330,94,1,329,1,,,,,,
left,0.565000296,1,374,,,,,,,,,,,,,3,4,1,stim/41.jpeg,HouseObjects,1,stim/objects/HouseObjects/saw2.png,0.9,3,-0.2,-0.15,left,17,2020-12-18_13h33.57.637,premup-three_ses-02_part-02_label-phase2,3.2.4,Win32,60,,,,,,,,,,,,,,,,,1,0,330,310,1,329,1,,,,,,
left,0.475000143,1,375,,,,,,,,,,,,,3,4,4,stim/44.jpeg,HouseObjects,1,stim/objects/HouseObjects/dustpan.png,0.9,3,-0.2,-0.15,left,17,2020-12-18_13h33.57.637,premup-three_ses-02_part-02_label-phase2,3.2.4,Win32,60,,,,,,,,,,,,,,,,,1,0,330,261,1,329,2,,,,,,
right,0.594000101,1,376,,,,,,,,,,,,,3,3,4,stim/34.jpeg,Instruments,2,stim/objects/Instruments/flutetrans.png,0.9,3,-0.2,-0.15,right,17,2020-12-18_13h33.57.637,premup-three_ses-02_part-02_label-phase2,3.2.4,Win32,60,,,,,,,,,,,,,,,,,1,0,330,141,1,329,2,,,,,,
right,0.827000141,1,377,,,,,,,,,,,,,2,1,3,stim/13.jpeg,Instruments,2,stim/objects/Instruments/accordion2.png,0.7,2,0.2,0.15,right,17,2020-12-18_13h33.57.637,premup-three_ses-02_part-02_label-phase2,3.2.4,Win32,60,,,,,,,,,,,,,,,,,1,0,330,90,1,329,1,,,,,,
right,0.69900012,0,378,,,,,,,,,,,,,2,1,2,stim/12.jpeg,HouseObjects,1,stim/objects/HouseObjects/thread.png,0.3,3,-0.2,-0.15,left,17,2020-12-18_13h33.57.637,premup-three_ses-02_part-02_label-phase2,3.2.4,Win32,60,,,,,,,,,,,,,,,,,1,0,330,61,1,329,1,,,,,,
right,0.55700016,1,379,,,,,,,,,,,,,3,3,4,stim/34.jpeg,Instruments,2,stim/objects/Instruments/frenchhorn.png,0.9,4,0.2,-0.15,right,17,2020-12-18_13h33.57.637,premup-three_ses-02_part-02_label-phase2,3.2.4,Win32,60,,,,,,,,,,,,,,,,,1,0,330,197,1,329,2,,,,,,
,,0,380,,,,,,,,,,,,,2,2,4,stim/24.jpeg,Instruments,2,stim/objects/Instruments/chime2.png,0.3,1,-0.2,0.15,right,17,2020-12-18_13h33.57.637,premup-three_ses-02_part-02_label-phase2,3.2.4,Win32,60,,,,,,,,,,,,,,,,,1,0,330,122,1,329,1,,,,,,
right,0.507000208,0,381,,,,,,,,,,,,,2,2,4,stim/24.jpeg,HouseObjects,1,stim/objects/HouseObjects/clothespin.png,0.7,3,-0.2,-0.15,left,17,2020-12-18_13h33.57.637,premup-three_ses-02_part-02_label-phase2,3.2.4,Win32,60,,,,,,,,,,,,,,,,,1,0,330,106,1,329,2,,,,,,
