key_resp_pract.keys,key_resp_pract.rt,trial_acc,trial_index,practice_loop.thisRepN,practice_loop.thisTrialN,practice_loop.thisN,practice_loop.thisIndex,practice_loop.ran,practice_loop.order,scn_condition,scn_cat,scn_inst,scn_file,obj_cat,obj_cat_num,obj_file,trial_cond,quadrant,obj_x,obj_y,corr_ans,participant,date,expName,psychopyVersion,OS,frameRate,key_resp_trial.keys,key_resp_trial.rt,iterations.thisRepN,iterations.thisTrialN,iterations.thisN,iterations.thisIndex,iterations.ran,iterations.order,task_innerloop.thisRepN,task_innerloop.thisTrialN,task_innerloop.thisN,task_innerloop.thisIndex,task_innerloop.ran,task_innerloop.order,iteration_index,rating_acc,slider.response,slider.rt,slider_2.response,slider_2.rt,ratings.thisRepN,ratings.thisTrialN,ratings.thisN,ratings.thisIndex,ratings.ran,ratings.order,obj_cat_top,min_resp_top,max_resp_top,obj_cat_bottom,min_resp_bottom,max_resp_bottom
,,0,1,1,0,240,6,1,239,1,1,3,stim/13.jpeg,Instruments,1,stim/objects/Instruments/record.png,0.5,2,0.2,0.15,left,18,2020-12-17_07h10.06.658,premup-three_ses-01_part-01_label-phase1,3.2.4,Linux x86_64,60,,,,,,,,,,,,,,,,,,,,,,,,,,,,,,,,
,,0,2,1,0,240,57,1,239,1,2,2,stim/22.jpeg,Instruments,1,stim/objects/Instruments/speaker.png,0.5,1,-0.2,0.15,left,18,2020-12-17_07h10.06.658,premup-three_ses-01_part-01_label-phase1,3.2.4,Linux x86_64,60,,,,,,,,,,,,,,,,,,,,,,,,,,,,,,,,
,,0,3,1,0,240,58,1,239,1,2,3,stim/23.jpeg,Instruments,1,stim/objects/Instruments/tambourine.png,0.5,1,-0.2,0.15,left,18,2020-12-17_07h10.06.658,premup-three_ses-01_part-01_label-phase1,3.2.4,Linux x86_64,60,,,,,,,,,,,,,,,,,,,,,,,,,,,,,,,,
,,0,4,1,0,240,48,1,239,1,2,1,stim/21.jpeg,Instruments,1,stim/objects/Instruments/saxophone.png,0.5,3,-0.2,-0.15,left,18,2020-12-17_07h10.06.658,premup-three_ses-01_part-01_label-phase1,3.2.4,Linux x86_64,60,,,,,,,,,,,,,,,,,,,,,,,,,,,,,,,,
right,1.455999851,0,5,1,0,240,139,1,239,2,4,4,stim/44.jpeg,Instruments,1,stim/objects/Instruments/record_player2.png,0.7,1,-0.2,0.15,left,18,2020-12-17_07h10.06.658,premup-three_ses-01_part-01_label-phase1,3.2.4,Linux x86_64,60,,,,,,,,,,,,,,,,,,,,,,,,,,,,,,,,
left,1.459000111,0,6,1,0,240,198,1,239,3,5,3,stim/53.jpeg,HouseObjects,2,stim/objects/HouseObjects/scale2.png,0.9,1,-0.2,0.15,right,18,2020-12-17_07h10.06.658,premup-three_ses-01_part-01_label-phase1,3.2.4,Linux x86_64,60,,,,,,,,,,,,,,,,,,,,,,,,,,,,,,,,
right,1.339999914,1,7,1,0,240,164,1,239,3,5,1,stim/51.jpeg,HouseObjects,2,stim/objects/HouseObjects/safetypin2.png,0.9,2,0.2,0.15,right,18,2020-12-17_07h10.06.658,premup-three_ses-01_part-01_label-phase1,3.2.4,Linux x86_64,60,,,,,,,,,,,,,,,,,,,,,,,,,,,,,,,,
right,1.622999907,0,8,1,0,240,134,1,239,2,4,3,stim/43.jpeg,Instruments,1,stim/objects/Instruments/record2.png,0.7,1,-0.2,0.15,left,18,2020-12-17_07h10.06.658,premup-three_ses-01_part-01_label-phase1,3.2.4,Linux x86_64,60,,,,,,,,,,,,,,,,,,,,,,,,,,,,,,,,
right,1.238999844,0,9,1,0,240,234,1,239,3,6,3,stim/63.jpeg,Instruments,1,stim/objects/Instruments/trumpet2.png,0.9,4,0.2,-0.15,left,18,2020-12-17_07h10.06.658,premup-three_ses-01_part-01_label-phase1,3.2.4,Linux x86_64,60,,,,,,,,,,,,,,,,,,,,,,,,,,,,,,,,
left,1.621999979,0,10,1,0,240,93,1,239,2,3,2,stim/32.jpeg,HouseObjects,2,stim/objects/HouseObjects/teapot.png,0.7,1,-0.2,0.15,right,18,2020-12-17_07h10.06.658,premup-three_ses-01_part-01_label-phase1,3.2.4,Linux x86_64,60,,,,,,,,,,,,,,,,,,,,,,,,,,,,,,,,
,,1,1,,,,,,,1,2,1,stim/21.jpeg,Instruments,1,stim/objects/Instruments/saxophone.png,0.5,3,-0.2,-0.15,left,18,2020-12-17_07h10.06.658,premup-three_ses-01_part-01_label-phase1,3.2.4,Linux x86_64,60,left,0.924999952,4,0,4,0,1,3,1,0,240,48,1,239,,,,,,,,,,,,,,,,,,
,,1,2,,,,,,,2,3,4,stim/34.jpeg,HouseObjects,2,stim/objects/HouseObjects/thread.png,0.7,4,0.2,-0.15,right,18,2020-12-17_07h10.06.658,premup-three_ses-01_part-01_label-phase1,3.2.4,Linux x86_64,60,right,1.434999943,4,0,4,0,1,3,1,0,240,95,1,239,,,,,,,,,,,,,,,,,,
,,1,3,,,,,,,3,5,3,stim/53.jpeg,HouseObjects,2,stim/objects/HouseObjects/scale2.png,0.9,2,0.2,0.15,right,18,2020-12-17_07h10.06.658,premup-three_ses-01_part-01_label-phase1,3.2.4,Linux x86_64,60,right,1.052000046,4,0,4,0,1,3,1,0,240,186,1,239,,,,,,,,,,,,,,,,,,
,,0,4,,,,,,,2,3,1,stim/31.jpeg,HouseObjects,2,stim/objects/HouseObjects/spraybottle.png,0.7,2,0.2,0.15,right,18,2020-12-17_07h10.06.658,premup-three_ses-01_part-01_label-phase1,3.2.4,Linux x86_64,60,left,1.517999887,4,0,4,0,1,3,1,0,240,108,1,239,,,,,,,,,,,,,,,,,,
,,1,5,,,,,,,2,3,2,stim/32.jpeg,HouseObjects,2,stim/objects/HouseObjects/teapot.png,0.7,3,-0.2,-0.15,right,18,2020-12-17_07h10.06.658,premup-three_ses-01_part-01_label-phase1,3.2.4,Linux x86_64,60,right,1.266000032,4,0,4,0,1,3,1,0,240,101,1,239,,,,,,,,,,,,,,,,,,
,,1,6,,,,,,,1,2,1,stim/21.jpeg,Instruments,1,stim/objects/Instruments/saxophone.png,0.5,3,-0.2,-0.15,left,18,2020-12-17_07h10.06.658,premup-three_ses-01_part-01_label-phase1,3.2.4,Linux x86_64,60,left,1.121999979,4,0,4,0,1,3,1,0,240,44,1,239,,,,,,,,,,,,,,,,,,
,,1,7,,,,,,,1,2,1,stim/21.jpeg,HouseObjects,2,stim/objects/HouseObjects/safetypin.png,0.5,3,-0.2,-0.15,right,18,2020-12-17_07h10.06.658,premup-three_ses-01_part-01_label-phase1,3.2.4,Linux x86_64,60,right,0.937999964,4,0,4,0,1,3,1,0,240,76,1,239,,,,,,,,,,,,,,,,,,
,,0,8,,,,,,,3,6,3,stim/63.jpeg,Instruments,1,stim/objects/Instruments/trumpet2.png,0.9,1,-0.2,0.15,left,18,2020-12-17_07h10.06.658,premup-three_ses-01_part-01_label-phase1,3.2.4,Linux x86_64,60,right,1.30099988,4,0,4,0,1,3,1,0,240,222,1,239,,,,,,,,,,,,,,,,,,
,,1,9,,,,,,,2,3,3,stim/33.jpeg,HouseObjects,2,stim/objects/HouseObjects/thermometer.png,0.7,1,-0.2,0.15,right,18,2020-12-17_07h10.06.658,premup-three_ses-01_part-01_label-phase1,3.2.4,Linux x86_64,60,right,1.607000113,4,0,4,0,1,3,1,0,240,106,1,239,,,,,,,,,,,,,,,,,,
,,1,10,,,,,,,1,1,4,stim/14.jpeg,Instruments,1,stim/objects/Instruments/record_player.png,0.5,3,-0.2,-0.15,left,18,2020-12-17_07h10.06.658,premup-three_ses-01_part-01_label-phase1,3.2.4,Linux x86_64,60,left,1.585999966,4,0,4,0,1,3,1,0,240,15,1,239,,,,,,,,,,,,,,,,,,
,,0,11,,,,,,,1,2,4,stim/24.jpeg,Instruments,1,stim/objects/Instruments/timbal.png,0.5,1,-0.2,0.15,left,18,2020-12-17_07h10.06.658,premup-three_ses-01_part-01_label-phase1,3.2.4,Linux x86_64,60,right,1.065999985,4,0,4,0,1,3,1,0,240,59,1,239,,,,,,,,,,,,,,,,,,
,,0,12,,,,,,,3,6,1,stim/61.jpeg,Instruments,1,stim/objects/Instruments/triangle2.png,0.9,2,0.2,0.15,left,18,2020-12-17_07h10.06.658,premup-three_ses-01_part-01_label-phase1,3.2.4,Linux x86_64,60,right,1.650999784,4,0,4,0,1,3,1,0,240,216,1,239,,,,,,,,,,,,,,,,,,
,,1,13,,,,,,,1,1,4,stim/14.jpeg,HouseObjects,2,stim/objects/HouseObjects/rug.png,0.5,3,-0.2,-0.15,right,18,2020-12-17_07h10.06.658,premup-three_ses-01_part-01_label-phase1,3.2.4,Linux x86_64,60,right,1.472000122,4,0,4,0,1,3,1,0,240,35,1,239,,,,,,,,,,,,,,,,,,
,,1,14,,,,,,,2,4,2,stim/42.jpeg,Instruments,1,stim/objects/Instruments/pipepiano2.png,0.7,1,-0.2,0.15,left,18,2020-12-17_07h10.06.658,premup-three_ses-01_part-01_label-phase1,3.2.4,Linux x86_64,60,left,1.626999855,4,0,4,0,1,3,1,0,240,129,1,239,,,,,,,,,,,,,,,,,,
,,0,15,,,,,,,3,6,2,stim/62.jpeg,Instruments,1,stim/objects/Instruments/trombone2.png,0.9,1,-0.2,0.15,left,18,2020-12-17_07h10.06.658,premup-three_ses-01_part-01_label-phase1,3.2.4,Linux x86_64,60,right,1.224999905,4,0,4,0,1,3,1,0,240,201,1,239,,,,,,,,,,,,,,,,,,
,,1,16,,,,,,,3,6,1,stim/61.jpeg,Instruments,1,stim/objects/Instruments/triangle2.png,0.9,2,0.2,0.15,left,18,2020-12-17_07h10.06.658,premup-three_ses-01_part-01_label-phase1,3.2.4,Linux x86_64,60,left,1.15199995,4,0,4,0,1,3,1,0,240,232,1,239,,,,,,,,,,,,,,,,,,
,,1,17,,,,,,,2,4,4,stim/44.jpeg,Instruments,1,stim/objects/Instruments/record_player2.png,0.7,1,-0.2,0.15,left,18,2020-12-17_07h10.06.658,premup-three_ses-01_part-01_label-phase1,3.2.4,Linux x86_64,60,left,1.266000032,4,0,4,0,1,3,1,0,240,143,1,239,,,,,,,,,,,,,,,,,,
,,1,18,,,,,,,2,4,4,stim/44.jpeg,Instruments,1,stim/objects/Instruments/record_player2.png,0.7,1,-0.2,0.15,left,18,2020-12-17_07h10.06.658,premup-three_ses-01_part-01_label-phase1,3.2.4,Linux x86_64,60,left,1.278999805,4,0,4,0,1,3,1,0,240,139,1,239,,,,,,,,,,,,,,,,,,
,,1,19,,,,,,,2,4,4,stim/44.jpeg,HouseObjects,2,stim/objects/HouseObjects/rug2.png,0.3,4,0.2,-0.15,right,18,2020-12-17_07h10.06.658,premup-three_ses-01_part-01_label-phase1,3.2.4,Linux x86_64,60,right,1.051999807,4,0,4,0,1,3,1,0,240,151,1,239,,,,,,,,,,,,,,,,,,
,,0,20,,,,,,,1,2,2,stim/22.jpeg,Instruments,1,stim/objects/Instruments/speaker.png,0.5,4,0.2,-0.15,left,18,2020-12-17_07h10.06.658,premup-three_ses-01_part-01_label-phase1,3.2.4,Linux x86_64,60,right,0.872999907,4,0,4,0,1,3,1,0,240,49,1,239,,,,,,,,,,,,,,,,,,
,,0,21,,,,,,,3,5,4,stim/54.jpeg,Instruments,1,stim/objects/Instruments/timbal2.png,0.1,1,-0.2,0.15,left,18,2020-12-17_07h10.06.658,premup-three_ses-01_part-01_label-phase1,3.2.4,Linux x86_64,60,right,0.981999874,4,0,4,0,1,3,1,0,240,163,1,239,,,,,,,,,,,,,,,,,,
,,0,22,,,,,,,1,2,1,stim/21.jpeg,HouseObjects,2,stim/objects/HouseObjects/safetypin.png,0.5,3,-0.2,-0.15,right,18,2020-12-17_07h10.06.658,premup-three_ses-01_part-01_label-phase1,3.2.4,Linux x86_64,60,left,1.105000019,4,0,4,0,1,3,1,0,240,68,1,239,,,,,,,,,,,,,,,,,,
,,0,23,,,,,,,1,1,2,stim/12.jpeg,Instruments,1,stim/objects/Instruments/pipepiano.png,0.5,4,0.2,-0.15,left,18,2020-12-17_07h10.06.658,premup-three_ses-01_part-01_label-phase1,3.2.4,Linux x86_64,60,right,1.091999769,4,0,4,0,1,3,1,0,240,17,1,239,,,,,,,,,,,,,,,,,,
,,1,24,,,,,,,2,4,2,stim/42.jpeg,HouseObjects,2,stim/objects/HouseObjects/remote2.png,0.3,3,-0.2,-0.15,right,18,2020-12-17_07h10.06.658,premup-three_ses-01_part-01_label-phase1,3.2.4,Linux x86_64,60,right,1.372999907,4,0,4,0,1,3,1,0,240,149,1,239,,,,,,,,,,,,,,,,,,
,,1,25,,,,,,,2,4,1,stim/41.jpeg,HouseObjects,2,stim/objects/HouseObjects/recyclingbin2.png,0.3,4,0.2,-0.15,right,18,2020-12-17_07h10.06.658,premup-three_ses-01_part-01_label-phase1,3.2.4,Linux x86_64,60,right,1.253000021,4,0,4,0,1,3,1,0,240,148,1,239,,,,,,,,,,,,,,,,,,
,,1,26,,,,,,,1,1,2,stim/12.jpeg,Instruments,1,stim/objects/Instruments/pipepiano.png,0.5,3,-0.2,-0.15,left,18,2020-12-17_07h10.06.658,premup-three_ses-01_part-01_label-phase1,3.2.4,Linux x86_64,60,left,0.84800005,4,0,4,0,1,3,1,0,240,9,1,239,,,,,,,,,,,,,,,,,,
,,0,27,,,,,,,1,1,4,stim/14.jpeg,Instruments,1,stim/objects/Instruments/record_player.png,0.5,4,0.2,-0.15,left,18,2020-12-17_07h10.06.658,premup-three_ses-01_part-01_label-phase1,3.2.4,Linux x86_64,60,right,0.819999933,4,0,4,0,1,3,1,0,240,3,1,239,,,,,,,,,,,,,,,,,,
,,0,28,,,,,,,1,2,2,stim/22.jpeg,HouseObjects,2,stim/objects/HouseObjects/saw.png,0.5,1,-0.2,0.15,right,18,2020-12-17_07h10.06.658,premup-three_ses-01_part-01_label-phase1,3.2.4,Linux x86_64,60,left,1.161999941,4,0,4,0,1,3,1,0,240,61,1,239,,,,,,,,,,,,,,,,,,
,,0,29,,,,,,,1,2,2,stim/22.jpeg,Instruments,1,stim/objects/Instruments/speaker.png,0.5,4,0.2,-0.15,left,18,2020-12-17_07h10.06.658,premup-three_ses-01_part-01_label-phase1,3.2.4,Linux x86_64,60,right,0.785999775,4,0,4,0,1,3,1,0,240,41,1,239,,,,,,,,,,,,,,,,,,
,,0,30,,,,,,,1,1,2,stim/12.jpeg,Instruments,1,stim/objects/Instruments/pipepiano.png,0.5,4,0.2,-0.15,left,18,2020-12-17_07h10.06.658,premup-three_ses-01_part-01_label-phase1,3.2.4,Linux x86_64,60,right,0.976999998,4,0,4,0,1,3,1,0,240,1,1,239,,,,,,,,,,,,,,,,,,
,,0,31,,,,,,,1,1,3,stim/13.jpeg,HouseObjects,2,stim/objects/HouseObjects/rubbergloves.png,0.5,3,-0.2,-0.15,right,18,2020-12-17_07h10.06.658,premup-three_ses-01_part-01_label-phase1,3.2.4,Linux x86_64,60,left,0.802999973,4,0,4,0,1,3,1,0,240,34,1,239,,,,,,,,,,,,,,,,,,
,,0,32,,,,,,,2,4,1,stim/41.jpeg,Instruments,1,stim/objects/Instruments/panflute2.png,0.7,1,-0.2,0.15,left,18,2020-12-17_07h10.06.658,premup-three_ses-01_part-01_label-phase1,3.2.4,Linux x86_64,60,right,1.224999905,4,0,4,0,1,3,1,0,240,124,1,239,,,,,,,,,,,,,,,,,,
,,1,33,,,,,,,2,3,2,stim/32.jpeg,HouseObjects,2,stim/objects/HouseObjects/teapot.png,0.7,4,0.2,-0.15,right,18,2020-12-17_07h10.06.658,premup-three_ses-01_part-01_label-phase1,3.2.4,Linux x86_64,60,right,1.222999811,4,0,4,0,1,3,1,0,240,105,1,239,,,,,,,,,,,,,,,,,,
,,0,34,,,,,,,1,2,4,stim/24.jpeg,HouseObjects,2,stim/objects/HouseObjects/sponge.png,0.5,2,0.2,0.15,right,18,2020-12-17_07h10.06.658,premup-three_ses-01_part-01_label-phase1,3.2.4,Linux x86_64,60,left,0.939999819,4,0,4,0,1,3,1,0,240,71,1,239,,,,,,,,,,,,,,,,,,
,,0,35,,,,,,,2,4,2,stim/42.jpeg,HouseObjects,2,stim/objects/HouseObjects/remote2.png,0.3,2,0.2,0.15,right,18,2020-12-17_07h10.06.658,premup-three_ses-01_part-01_label-phase1,3.2.4,Linux x86_64,60,left,0.923000097,4,0,4,0,1,3,1,0,240,153,1,239,,,,,,,,,,,,,,,,,,
,,1,36,,,,,,,2,4,4,stim/44.jpeg,Instruments,1,stim/objects/Instruments/record_player2.png,0.7,1,-0.2,0.15,left,18,2020-12-17_07h10.06.658,premup-three_ses-01_part-01_label-phase1,3.2.4,Linux x86_64,60,left,1.055999756,4,0,4,0,1,3,1,0,240,131,1,239,,,,,,,,,,,,,,,,,,
,,1,37,,,,,,,3,6,3,stim/63.jpeg,HouseObjects,2,stim/objects/HouseObjects/thermometer2.png,0.1,4,0.2,-0.15,right,18,2020-12-17_07h10.06.658,premup-three_ses-01_part-01_label-phase1,3.2.4,Linux x86_64,60,right,0.78399992,4,0,4,0,1,3,1,0,240,238,1,239,,,,,,,,,,,,,,,,,,
,,0,38,,,,,,,1,2,4,stim/24.jpeg,Instruments,1,stim/objects/Instruments/timbal.png,0.5,4,0.2,-0.15,left,18,2020-12-17_07h10.06.658,premup-three_ses-01_part-01_label-phase1,3.2.4,Linux x86_64,60,right,0.639999866,4,0,4,0,1,3,1,0,240,51,1,239,,,,,,,,,,,,,,,,,,
,,1,39,,,,,,,3,5,1,stim/51.jpeg,HouseObjects,2,stim/objects/HouseObjects/safetypin2.png,0.9,2,0.2,0.15,right,18,2020-12-17_07h10.06.658,premup-three_ses-01_part-01_label-phase1,3.2.4,Linux x86_64,60,right,1.023000002,4,0,4,0,1,3,1,0,240,168,1,239,,,,,,,,,,,,,,,,,,
,,1,40,,,,,,,3,5,4,stim/54.jpeg,HouseObjects,2,stim/objects/HouseObjects/sponge2.png,0.9,4,0.2,-0.15,right,18,2020-12-17_07h10.06.658,premup-three_ses-01_part-01_label-phase1,3.2.4,Linux x86_64,60,right,1.509999752,4,0,4,0,1,3,1,0,240,171,1,239,,,,,,,,,,,,,,,,,,
,,0,41,,,,,,,3,6,4,stim/64.jpeg,Instruments,1,stim/objects/Instruments/tuba2.png,0.9,4,0.2,-0.15,left,18,2020-12-17_07h10.06.658,premup-three_ses-01_part-01_label-phase1,3.2.4,Linux x86_64,60,right,0.985999823,4,0,4,0,1,3,1,0,240,207,1,239,,,,,,,,,,,,,,,,,,
,,1,42,,,,,,,1,1,1,stim/11.jpeg,Instruments,1,stim/objects/Instruments/panflute.png,0.5,1,-0.2,0.15,left,18,2020-12-17_07h10.06.658,premup-three_ses-01_part-01_label-phase1,3.2.4,Linux x86_64,60,left,1.260999918,4,0,4,0,1,3,1,0,240,4,1,239,,,,,,,,,,,,,,,,,,
,,1,43,,,,,,,2,4,2,stim/42.jpeg,Instruments,1,stim/objects/Instruments/pipepiano2.png,0.7,3,-0.2,-0.15,left,18,2020-12-17_07h10.06.658,premup-three_ses-01_part-01_label-phase1,3.2.4,Linux x86_64,60,left,1.064999819,4,0,4,0,1,3,1,0,240,141,1,239,,,,,,,,,,,,,,,,,,
,,1,44,,,,,,,3,5,3,stim/53.jpeg,HouseObjects,2,stim/objects/HouseObjects/scale2.png,0.9,2,0.2,0.15,right,18,2020-12-17_07h10.06.658,premup-three_ses-01_part-01_label-phase1,3.2.4,Linux x86_64,60,right,1.140000105,4,0,4,0,1,3,1,0,240,174,1,239,,,,,,,,,,,,,,,,,,
,,1,45,,,,,,,1,2,1,stim/21.jpeg,Instruments,1,stim/objects/Instruments/saxophone.png,0.5,4,0.2,-0.15,left,18,2020-12-17_07h10.06.658,premup-three_ses-01_part-01_label-phase1,3.2.4,Linux x86_64,60,left,1.597000122,4,0,4,0,1,3,1,0,240,52,1,239,,,,,,,,,,,,,,,,,,
,,0,46,,,,,,,1,2,1,stim/21.jpeg,Instruments,1,stim/objects/Instruments/saxophone.png,0.5,2,0.2,0.15,left,18,2020-12-17_07h10.06.658,premup-three_ses-01_part-01_label-phase1,3.2.4,Linux x86_64,60,right,1.503999949,4,0,4,0,1,3,1,0,240,40,1,239,,,,,,,,,,,,,,,,,,
,,1,47,,,,,,,1,1,1,stim/11.jpeg,HouseObjects,2,stim/objects/HouseObjects/recyclingbin.png,0.5,1,-0.2,0.15,right,18,2020-12-17_07h10.06.658,premup-three_ses-01_part-01_label-phase1,3.2.4,Linux x86_64,60,right,1.210999966,4,0,4,0,1,3,1,0,240,32,1,239,,,,,,,,,,,,,,,,,,
,,0,48,,,,,,,1,2,3,stim/23.jpeg,HouseObjects,2,stim/objects/HouseObjects/scale.png,0.5,1,-0.2,0.15,right,18,2020-12-17_07h10.06.658,premup-three_ses-01_part-01_label-phase1,3.2.4,Linux x86_64,60,left,1.062999725,4,0,4,0,1,3,1,0,240,78,1,239,,,,,,,,,,,,,,,,,,
,,1,49,,,,,,,2,3,3,stim/33.jpeg,HouseObjects,2,stim/objects/HouseObjects/thermometer.png,0.7,4,0.2,-0.15,right,18,2020-12-17_07h10.06.658,premup-three_ses-01_part-01_label-phase1,3.2.4,Linux x86_64,60,right,1.578999996,4,0,4,0,1,3,1,0,240,114,1,239,,,,,,,,,,,,,,,,,,
,,1,50,,,,,,,3,6,4,stim/64.jpeg,Instruments,1,stim/objects/Instruments/tuba2.png,0.9,1,-0.2,0.15,left,18,2020-12-17_07h10.06.658,premup-three_ses-01_part-01_label-phase1,3.2.4,Linux x86_64,60,left,1.481999874,4,0,4,0,1,3,1,0,240,235,1,239,,,,,,,,,,,,,,,,,,
,,1,51,,,,,,,3,6,2,stim/62.jpeg,HouseObjects,2,stim/objects/HouseObjects/teapot2.png,0.1,1,-0.2,0.15,right,18,2020-12-17_07h10.06.658,premup-three_ses-01_part-01_label-phase1,3.2.4,Linux x86_64,60,right,1.238000154,4,0,4,0,1,3,1,0,240,237,1,239,,,,,,,,,,,,,,,,,,
,,0,52,,,,,,,2,3,1,stim/31.jpeg,HouseObjects,2,stim/objects/HouseObjects/spraybottle.png,0.7,3,-0.2,-0.15,right,18,2020-12-17_07h10.06.658,premup-three_ses-01_part-01_label-phase1,3.2.4,Linux x86_64,60,left,1.598999977,4,0,4,0,1,3,1,0,240,116,1,239,,,,,,,,,,,,,,,,,,
,,0,53,,,,,,,3,6,4,stim/64.jpeg,Instruments,1,stim/objects/Instruments/tuba2.png,0.9,3,-0.2,-0.15,left,18,2020-12-17_07h10.06.658,premup-three_ses-01_part-01_label-phase1,3.2.4,Linux x86_64,60,right,1.359999895,4,0,4,0,1,3,1,0,240,231,1,239,,,,,,,,,,,,,,,,,,
,,1,54,,,,,,,1,1,4,stim/14.jpeg,HouseObjects,2,stim/objects/HouseObjects/rug.png,0.5,2,0.2,0.15,right,18,2020-12-17_07h10.06.658,premup-three_ses-01_part-01_label-phase1,3.2.4,Linux x86_64,60,right,1.501999855,4,0,4,0,1,3,1,0,240,23,1,239,,,,,,,,,,,,,,,,,,
,,0,55,,,,,,,2,4,4,stim/44.jpeg,HouseObjects,2,stim/objects/HouseObjects/rug2.png,0.3,2,0.2,0.15,right,18,2020-12-17_07h10.06.658,premup-three_ses-01_part-01_label-phase1,3.2.4,Linux x86_64,60,left,1.604000092,4,0,4,0,1,3,1,0,240,155,1,239,,,,,,,,,,,,,,,,,,
,,0,56,,,,,,,2,3,1,stim/31.jpeg,Instruments,1,stim/objects/Instruments/triangle.png,0.3,2,0.2,0.15,left,18,2020-12-17_07h10.06.658,premup-three_ses-01_part-01_label-phase1,3.2.4,Linux x86_64,60,right,1.052999973,4,0,4,0,1,3,1,0,240,80,1,239,,,,,,,,,,,,,,,,,,
,,0,57,,,,,,,2,4,4,stim/44.jpeg,Instruments,1,stim/objects/Instruments/record_player2.png,0.7,3,-0.2,-0.15,left,18,2020-12-17_07h10.06.658,premup-three_ses-01_part-01_label-phase1,3.2.4,Linux x86_64,60,right,0.987999916,4,0,4,0,1,3,1,0,240,123,1,239,,,,,,,,,,,,,,,,,,
,,1,58,,,,,,,2,4,4,stim/44.jpeg,Instruments,1,stim/objects/Instruments/record_player2.png,0.7,2,0.2,0.15,left,18,2020-12-17_07h10.06.658,premup-three_ses-01_part-01_label-phase1,3.2.4,Linux x86_64,60,left,1.272000074,4,0,4,0,1,3,1,0,240,147,1,239,,,,,,,,,,,,,,,,,,
,,0,59,,,,,,,1,2,1,stim/21.jpeg,Instruments,1,stim/objects/Instruments/saxophone.png,0.5,4,0.2,-0.15,left,18,2020-12-17_07h10.06.658,premup-three_ses-01_part-01_label-phase1,3.2.4,Linux x86_64,60,right,1.647000074,4,0,4,0,1,3,1,0,240,56,1,239,,,,,,,,,,,,,,,,,,
,,0,60,,,,,,,3,5,3,stim/53.jpeg,HouseObjects,2,stim/objects/HouseObjects/scale2.png,0.9,1,-0.2,0.15,right,18,2020-12-17_07h10.06.658,premup-three_ses-01_part-01_label-phase1,3.2.4,Linux x86_64,60,left,1.671999931,4,0,4,0,1,3,1,0,240,194,1,239,,,,,,,,,,,,,,,,,,
,,0,61,,,,,,,3,6,1,stim/61.jpeg,HouseObjects,2,stim/objects/HouseObjects/spraybottle2.png,0.1,2,0.2,0.15,right,18,2020-12-17_07h10.06.658,premup-three_ses-01_part-01_label-phase1,3.2.4,Linux x86_64,60,left,1.062999725,4,0,4,0,1,3,1,0,240,236,1,239,,,,,,,,,,,,,,,,,,
,,0,62,,,,,,,3,6,3,stim/63.jpeg,Instruments,1,stim/objects/Instruments/trumpet2.png,0.9,2,0.2,0.15,left,18,2020-12-17_07h10.06.658,premup-three_ses-01_part-01_label-phase1,3.2.4,Linux x86_64,60,right,1.243999958,4,0,4,0,1,3,1,0,240,226,1,239,,,,,,,,,,,,,,,,,,
,,0,63,,,,,,,3,6,2,stim/62.jpeg,Instruments,1,stim/objects/Instruments/trombone2.png,0.9,1,-0.2,0.15,left,18,2020-12-17_07h10.06.658,premup-three_ses-01_part-01_label-phase1,3.2.4,Linux x86_64,60,right,1.359999895,4,0,4,0,1,3,1,0,240,221,1,239,,,,,,,,,,,,,,,,,,
,,1,64,,,,,,,2,3,4,stim/34.jpeg,HouseObjects,2,stim/objects/HouseObjects/thread.png,0.7,3,-0.2,-0.15,right,18,2020-12-17_07h10.06.658,premup-three_ses-01_part-01_label-phase1,3.2.4,Linux x86_64,60,right,1.595999956,4,0,4,0,1,3,1,0,240,103,1,239,,,,,,,,,,,,,,,,,,
,,1,65,,,,,,,1,2,3,stim/23.jpeg,Instruments,1,stim/objects/Instruments/tambourine.png,0.5,4,0.2,-0.15,left,18,2020-12-17_07h10.06.658,premup-three_ses-01_part-01_label-phase1,3.2.4,Linux x86_64,60,left,1.298000097,4,0,4,0,1,3,1,0,240,54,1,239,,,,,,,,,,,,,,,,,,
,,1,66,,,,,,,3,5,4,stim/54.jpeg,HouseObjects,2,stim/objects/HouseObjects/sponge2.png,0.9,1,-0.2,0.15,right,18,2020-12-17_07h10.06.658,premup-three_ses-01_part-01_label-phase1,3.2.4,Linux x86_64,60,right,1.100999832,4,0,4,0,1,3,1,0,240,183,1,239,,,,,,,,,,,,,,,,,,
,,1,67,,,,,,,1,1,4,stim/14.jpeg,Instruments,1,stim/objects/Instruments/record_player.png,0.5,4,0.2,-0.15,left,18,2020-12-17_07h10.06.658,premup-three_ses-01_part-01_label-phase1,3.2.4,Linux x86_64,60,left,1.05099988,4,0,4,0,1,3,1,0,240,11,1,239,,,,,,,,,,,,,,,,,,
,,1,68,,,,,,,2,4,1,stim/41.jpeg,HouseObjects,2,stim/objects/HouseObjects/recyclingbin2.png,0.3,3,-0.2,-0.15,right,18,2020-12-17_07h10.06.658,premup-three_ses-01_part-01_label-phase1,3.2.4,Linux x86_64,60,right,1.672999859,4,0,4,0,1,3,1,0,240,152,1,239,,,,,,,,,,,,,,,,,,
,,0,69,,,,,,,1,2,3,stim/23.jpeg,HouseObjects,2,stim/objects/HouseObjects/scale.png,0.5,4,0.2,-0.15,right,18,2020-12-17_07h10.06.658,premup-three_ses-01_part-01_label-phase1,3.2.4,Linux x86_64,60,left,0.930000067,4,0,4,0,1,3,1,0,240,66,1,239,,,,,,,,,,,,,,,,,,
,,1,70,,,,,,,1,1,3,stim/13.jpeg,HouseObjects,2,stim/objects/HouseObjects/rubbergloves.png,0.5,3,-0.2,-0.15,right,18,2020-12-17_07h10.06.658,premup-three_ses-01_part-01_label-phase1,3.2.4,Linux x86_64,60,right,1.437999964,4,0,4,0,1,3,1,0,240,30,1,239,,,,,,,,,,,,,,,,,,
,,1,71,,,,,,,3,6,1,stim/61.jpeg,Instruments,1,stim/objects/Instruments/triangle2.png,0.9,3,-0.2,-0.15,left,18,2020-12-17_07h10.06.658,premup-three_ses-01_part-01_label-phase1,3.2.4,Linux x86_64,60,left,1.430999994,4,0,4,0,1,3,1,0,240,204,1,239,,,,,,,,,,,,,,,,,,
,,0,72,,,,,,,1,1,1,stim/11.jpeg,Instruments,1,stim/objects/Instruments/panflute.png,0.5,2,0.2,0.15,left,18,2020-12-17_07h10.06.658,premup-three_ses-01_part-01_label-phase1,3.2.4,Linux x86_64,60,right,1.529000044,4,0,4,0,1,3,1,0,240,16,1,239,,,,,,,,,,,,,,,,,,
,,0,73,,,,,,,1,1,1,stim/11.jpeg,Instruments,1,stim/objects/Instruments/panflute.png,0.5,2,0.2,0.15,left,18,2020-12-17_07h10.06.658,premup-three_ses-01_part-01_label-phase1,3.2.4,Linux x86_64,60,right,1.259000063,4,0,4,0,1,3,1,0,240,8,1,239,,,,,,,,,,,,,,,,,,
,,1,74,,,,,,,3,6,3,stim/63.jpeg,Instruments,1,stim/objects/Instruments/trumpet2.png,0.9,3,-0.2,-0.15,left,18,2020-12-17_07h10.06.658,premup-three_ses-01_part-01_label-phase1,3.2.4,Linux x86_64,60,left,1.31099987,4,0,4,0,1,3,1,0,240,218,1,239,,,,,,,,,,,,,,,,,,
,,0,75,,,,,,,1,1,2,stim/12.jpeg,HouseObjects,2,stim/objects/HouseObjects/remote.png,0.5,2,0.2,0.15,right,18,2020-12-17_07h10.06.658,premup-three_ses-01_part-01_label-phase1,3.2.4,Linux x86_64,60,left,1.115999937,4,0,4,0,1,3,1,0,240,25,1,239,,,,,,,,,,,,,,,,,,
,,0,76,,,,,,,3,6,1,stim/61.jpeg,Instruments,1,stim/objects/Instruments/triangle2.png,0.9,2,0.2,0.15,left,18,2020-12-17_07h10.06.658,premup-three_ses-01_part-01_label-phase1,3.2.4,Linux x86_64,60,right,1.593999863,4,0,4,0,1,3,1,0,240,208,1,239,,,,,,,,,,,,,,,,,,
,,1,77,,,,,,,3,5,1,stim/51.jpeg,HouseObjects,2,stim/objects/HouseObjects/safetypin2.png,0.9,1,-0.2,0.15,right,18,2020-12-17_07h10.06.658,premup-three_ses-01_part-01_label-phase1,3.2.4,Linux x86_64,60,right,1.079999924,4,0,4,0,1,3,1,0,240,176,1,239,,,,,,,,,,,,,,,,,,
,,0,78,,,,,,,2,3,3,stim/33.jpeg,HouseObjects,2,stim/objects/HouseObjects/thermometer.png,0.7,2,0.2,0.15,right,18,2020-12-17_07h10.06.658,premup-three_ses-01_part-01_label-phase1,3.2.4,Linux x86_64,60,left,1.672999859,4,0,4,0,1,3,1,0,240,110,1,239,,,,,,,,,,,,,,,,,,
,,1,79,,,,,,,3,5,1,stim/51.jpeg,HouseObjects,2,stim/objects/HouseObjects/safetypin2.png,0.9,4,0.2,-0.15,right,18,2020-12-17_07h10.06.658,premup-three_ses-01_part-01_label-phase1,3.2.4,Linux x86_64,60,right,1.253999949,4,0,4,0,1,3,1,0,240,180,1,239,,,,,,,,,,,,,,,,,,
,,1,80,,,,,,,3,5,3,stim/53.jpeg,HouseObjects,2,stim/objects/HouseObjects/scale2.png,0.9,3,-0.2,-0.15,right,18,2020-12-17_07h10.06.658,premup-three_ses-01_part-01_label-phase1,3.2.4,Linux x86_64,60,right,1.669999838,4,0,4,0,1,3,1,0,240,170,1,239,,,,,,,,,,,,,,,,,,
,,1,81,,,,,,,3,6,1,stim/61.jpeg,Instruments,1,stim/objects/Instruments/triangle2.png,0.9,3,-0.2,-0.15,left,18,2020-12-17_07h10.06.658,premup-three_ses-01_part-01_label-phase1,3.2.4,Linux x86_64,60,left,1.13499999,4,0,4,0,1,3,1,0,240,212,1,239,,,,,,,,,,,,,,,,,,
,,0,82,,,,,,,2,3,4,stim/34.jpeg,Instruments,1,stim/objects/Instruments/tuba.png,0.3,3,-0.2,-0.15,left,18,2020-12-17_07h10.06.658,premup-three_ses-01_part-01_label-phase1,3.2.4,Linux x86_64,60,right,1.630999804,4,0,4,0,1,3,1,0,240,83,1,239,,,,,,,,,,,,,,,,,,
,,1,83,,,,,,,3,6,3,stim/63.jpeg,Instruments,1,stim/objects/Instruments/trumpet2.png,0.9,4,0.2,-0.15,left,18,2020-12-17_07h10.06.658,premup-three_ses-01_part-01_label-phase1,3.2.4,Linux x86_64,60,left,1.076999903,4,0,4,0,1,3,1,0,240,234,1,239,,,,,,,,,,,,,,,,,,
,,0,84,,,,,,,2,4,3,stim/43.jpeg,Instruments,1,stim/objects/Instruments/record2.png,0.7,4,0.2,-0.15,left,18,2020-12-17_07h10.06.658,premup-three_ses-01_part-01_label-phase1,3.2.4,Linux x86_64,60,right,0.979999781,4,0,4,0,1,3,1,0,240,130,1,239,,,,,,,,,,,,,,,,,,
,,1,85,,,,,,,2,3,1,stim/31.jpeg,HouseObjects,2,stim/objects/HouseObjects/spraybottle.png,0.7,2,0.2,0.15,right,18,2020-12-17_07h10.06.658,premup-three_ses-01_part-01_label-phase1,3.2.4,Linux x86_64,60,right,1.54399991,4,0,4,0,1,3,1,0,240,112,1,239,,,,,,,,,,,,,,,,,,
,,1,86,,,,,,,2,3,2,stim/32.jpeg,Instruments,1,stim/objects/Instruments/trombone.png,0.3,3,-0.2,-0.15,left,18,2020-12-17_07h10.06.658,premup-three_ses-01_part-01_label-phase1,3.2.4,Linux x86_64,60,left,1.236000061,4,0,4,0,1,3,1,0,240,89,1,239,,,,,,,,,,,,,,,,,,
,,1,87,,,,,,,3,6,3,stim/63.jpeg,Instruments,1,stim/objects/Instruments/trumpet2.png,0.9,3,-0.2,-0.15,left,18,2020-12-17_07h10.06.658,premup-three_ses-01_part-01_label-phase1,3.2.4,Linux x86_64,60,left,1.016999722,4,0,4,0,1,3,1,0,240,230,1,239,,,,,,,,,,,,,,,,,,
,,0,88,,,,,,,2,3,1,stim/31.jpeg,Instruments,1,stim/objects/Instruments/triangle.png,0.3,2,0.2,0.15,left,18,2020-12-17_07h10.06.658,premup-three_ses-01_part-01_label-phase1,3.2.4,Linux x86_64,60,,,4,0,4,0,1,3,1,0,240,84,1,239,,,,,,,,,,,,,,,,,,
,,0,89,,,,,,,1,1,4,stim/14.jpeg,HouseObjects,2,stim/objects/HouseObjects/rug.png,0.5,4,0.2,-0.15,right,18,2020-12-17_07h10.06.658,premup-three_ses-01_part-01_label-phase1,3.2.4,Linux x86_64,60,left,1.797999859,4,0,4,0,1,3,1,0,240,27,1,239,,,,,,,,,,,,,,,,,,
,,1,90,,,,,,,3,5,3,stim/53.jpeg,HouseObjects,2,stim/objects/HouseObjects/scale2.png,0.9,1,-0.2,0.15,right,18,2020-12-17_07h10.06.658,premup-three_ses-01_part-01_label-phase1,3.2.4,Linux x86_64,60,right,1.06799984,4,0,4,0,1,3,1,0,240,198,1,239,,,,,,,,,,,,,,,,,,
,,1,91,,,,,,,3,6,3,stim/63.jpeg,Instruments,1,stim/objects/Instruments/trumpet2.png,0.9,4,0.2,-0.15,left,18,2020-12-17_07h10.06.658,premup-three_ses-01_part-01_label-phase1,3.2.4,Linux x86_64,60,left,1.375999928,4,0,4,0,1,3,1,0,240,202,1,239,,,,,,,,,,,,,,,,,,
,,0,92,,,,,,,1,2,2,stim/22.jpeg,HouseObjects,2,stim/objects/HouseObjects/saw.png,0.5,3,-0.2,-0.15,right,18,2020-12-17_07h10.06.658,premup-three_ses-01_part-01_label-phase1,3.2.4,Linux x86_64,60,left,1.602999926,4,0,4,0,1,3,1,0,240,77,1,239,,,,,,,,,,,,,,,,,,
,,1,93,,,,,,,1,2,1,stim/21.jpeg,HouseObjects,2,stim/objects/HouseObjects/safetypin.png,0.5,4,0.2,-0.15,right,18,2020-12-17_07h10.06.658,premup-three_ses-01_part-01_label-phase1,3.2.4,Linux x86_64,60,right,1.674000025,4,0,4,0,1,3,1,0,240,64,1,239,,,,,,,,,,,,,,,,,,
,,1,94,,,,,,,3,5,3,stim/53.jpeg,HouseObjects,2,stim/objects/HouseObjects/scale2.png,0.9,1,-0.2,0.15,right,18,2020-12-17_07h10.06.658,premup-three_ses-01_part-01_label-phase1,3.2.4,Linux x86_64,60,right,1.052999973,4,0,4,0,1,3,1,0,240,182,1,239,,,,,,,,,,,,,,,,,,
,,1,95,,,,,,,3,5,4,stim/54.jpeg,HouseObjects,2,stim/objects/HouseObjects/sponge2.png,0.9,2,0.2,0.15,right,18,2020-12-17_07h10.06.658,premup-three_ses-01_part-01_label-phase1,3.2.4,Linux x86_64,60,right,1.572999954,4,0,4,0,1,3,1,0,240,195,1,239,,,,,,,,,,,,,,,,,,
,,0,96,,,,,,,1,2,4,stim/24.jpeg,HouseObjects,2,stim/objects/HouseObjects/sponge.png,0.5,2,0.2,0.15,right,18,2020-12-17_07h10.06.658,premup-three_ses-01_part-01_label-phase1,3.2.4,Linux x86_64,60,left,1.036000013,4,0,4,0,1,3,1,0,240,63,1,239,,,,,,,,,,,,,,,,,,
,,0,97,,,,,,,3,5,4,stim/54.jpeg,HouseObjects,2,stim/objects/HouseObjects/sponge2.png,0.9,3,-0.2,-0.15,right,18,2020-12-17_07h10.06.658,premup-three_ses-01_part-01_label-phase1,3.2.4,Linux x86_64,60,,,4,0,4,0,1,3,1,0,240,175,1,239,,,,,,,,,,,,,,,,,,
,,0,98,,,,,,,2,4,3,stim/43.jpeg,Instruments,1,stim/objects/Instruments/record2.png,0.7,3,-0.2,-0.15,left,18,2020-12-17_07h10.06.658,premup-three_ses-01_part-01_label-phase1,3.2.4,Linux x86_64,60,right,1.32799983,4,0,4,0,1,3,1,0,240,122,1,239,,,,,,,,,,,,,,,,,,
,,0,99,,,,,,,1,2,4,stim/24.jpeg,HouseObjects,2,stim/objects/HouseObjects/sponge.png,0.5,2,0.2,0.15,right,18,2020-12-17_07h10.06.658,premup-three_ses-01_part-01_label-phase1,3.2.4,Linux x86_64,60,left,1.069999933,4,0,4,0,1,3,1,0,240,79,1,239,,,,,,,,,,,,,,,,,,
,,1,100,,,,,,,2,4,4,stim/44.jpeg,Instruments,1,stim/objects/Instruments/record_player2.png,0.7,4,0.2,-0.15,left,18,2020-12-17_07h10.06.658,premup-three_ses-01_part-01_label-phase1,3.2.4,Linux x86_64,60,left,1.226999998,4,0,4,0,1,3,1,0,240,135,1,239,,,,,,,,,,,,,,,,,,
,,1,101,,,,,,,3,6,3,stim/63.jpeg,Instruments,1,stim/objects/Instruments/trumpet2.png,0.9,2,0.2,0.15,left,18,2020-12-17_07h10.06.658,premup-three_ses-01_part-01_label-phase1,3.2.4,Linux x86_64,60,left,0.977999926,4,0,4,0,1,3,1,0,240,214,1,239,,,,,,,,,,,,,,,,,,
,,1,102,,,,,,,3,6,2,stim/62.jpeg,Instruments,1,stim/objects/Instruments/trombone2.png,0.9,1,-0.2,0.15,left,18,2020-12-17_07h10.06.658,premup-three_ses-01_part-01_label-phase1,3.2.4,Linux x86_64,60,left,1.143999815,4,0,4,0,1,3,1,0,240,205,1,239,,,,,,,,,,,,,,,,,,
,,0,103,,,,,,,1,2,3,stim/23.jpeg,Instruments,1,stim/objects/Instruments/tambourine.png,0.5,1,-0.2,0.15,left,18,2020-12-17_07h10.06.658,premup-three_ses-01_part-01_label-phase1,3.2.4,Linux x86_64,60,right,1.389999866,4,0,4,0,1,3,1,0,240,58,1,239,,,,,,,,,,,,,,,,,,
,,1,104,,,,,,,3,6,2,stim/62.jpeg,Instruments,1,stim/objects/Instruments/trombone2.png,0.9,4,0.2,-0.15,left,18,2020-12-17_07h10.06.658,premup-three_ses-01_part-01_label-phase1,3.2.4,Linux x86_64,60,left,1.052999973,4,0,4,0,1,3,1,0,240,229,1,239,,,,,,,,,,,,,,,,,,
,,1,105,,,,,,,1,1,1,stim/11.jpeg,HouseObjects,2,stim/objects/HouseObjects/recyclingbin.png,0.5,3,-0.2,-0.15,right,18,2020-12-17_07h10.06.658,premup-three_ses-01_part-01_label-phase1,3.2.4,Linux x86_64,60,right,0.891000032,4,0,4,0,1,3,1,0,240,20,1,239,,,,,,,,,,,,,,,,,,
,,1,106,,,,,,,3,6,2,stim/62.jpeg,Instruments,1,stim/objects/Instruments/trombone2.png,0.9,4,0.2,-0.15,left,18,2020-12-17_07h10.06.658,premup-three_ses-01_part-01_label-phase1,3.2.4,Linux x86_64,60,left,1.30099988,4,0,4,0,1,3,1,0,240,225,1,239,,,,,,,,,,,,,,,,,,
,,1,107,,,,,,,2,3,1,stim/31.jpeg,HouseObjects,2,stim/objects/HouseObjects/spraybottle.png,0.7,4,0.2,-0.15,right,18,2020-12-17_07h10.06.658,premup-three_ses-01_part-01_label-phase1,3.2.4,Linux x86_64,60,right,0.876999855,4,0,4,0,1,3,1,0,240,100,1,239,,,,,,,,,,,,,,,,,,
,,0,108,,,,,,,2,3,3,stim/33.jpeg,HouseObjects,2,stim/objects/HouseObjects/thermometer.png,0.7,4,0.2,-0.15,right,18,2020-12-17_07h10.06.658,premup-three_ses-01_part-01_label-phase1,3.2.4,Linux x86_64,60,left,0.953000069,4,0,4,0,1,3,1,0,240,118,1,239,,,,,,,,,,,,,,,,,,
,,0,109,,,,,,,2,3,3,stim/33.jpeg,Instruments,1,stim/objects/Instruments/trumpet.png,0.3,3,-0.2,-0.15,left,18,2020-12-17_07h10.06.658,premup-three_ses-01_part-01_label-phase1,3.2.4,Linux x86_64,60,right,1.19900012,4,0,4,0,1,3,1,0,240,82,1,239,,,,,,,,,,,,,,,,,,
,,1,110,,,,,,,3,6,2,stim/62.jpeg,Instruments,1,stim/objects/Instruments/trombone2.png,0.9,1,-0.2,0.15,left,18,2020-12-17_07h10.06.658,premup-three_ses-01_part-01_label-phase1,3.2.4,Linux x86_64,60,left,1.086999893,4,0,4,0,1,3,1,0,240,217,1,239,,,,,,,,,,,,,,,,,,
,,0,111,,,,,,,3,5,1,stim/51.jpeg,HouseObjects,2,stim/objects/HouseObjects/safetypin2.png,0.9,3,-0.2,-0.15,right,18,2020-12-17_07h10.06.658,premup-three_ses-01_part-01_label-phase1,3.2.4,Linux x86_64,60,left,1.497999907,4,0,4,0,1,3,1,0,240,196,1,239,,,,,,,,,,,,,,,,,,
,,0,112,,,,,,,1,2,4,stim/24.jpeg,HouseObjects,2,stim/objects/HouseObjects/sponge.png,0.5,2,0.2,0.15,right,18,2020-12-17_07h10.06.658,premup-three_ses-01_part-01_label-phase1,3.2.4,Linux x86_64,60,left,1.226000071,4,0,4,0,1,3,1,0,240,67,1,239,,,,,,,,,,,,,,,,,,
,,1,113,,,,,,,1,2,3,stim/23.jpeg,Instruments,1,stim/objects/Instruments/tambourine.png,0.5,4,0.2,-0.15,left,18,2020-12-17_07h10.06.658,premup-three_ses-01_part-01_label-phase1,3.2.4,Linux x86_64,60,left,1.44900012,4,0,4,0,1,3,1,0,240,46,1,239,,,,,,,,,,,,,,,,,,
,,0,114,,,,,,,1,1,3,stim/13.jpeg,Instruments,1,stim/objects/Instruments/record.png,0.5,1,-0.2,0.15,left,18,2020-12-17_07h10.06.658,premup-three_ses-01_part-01_label-phase1,3.2.4,Linux x86_64,60,right,1.127000093,4,0,4,0,1,3,1,0,240,18,1,239,,,,,,,,,,,,,,,,,,
,,1,115,,,,,,,2,3,2,stim/32.jpeg,HouseObjects,2,stim/objects/HouseObjects/teapot.png,0.7,1,-0.2,0.15,right,18,2020-12-17_07h10.06.658,premup-three_ses-01_part-01_label-phase1,3.2.4,Linux x86_64,60,right,1.26699996,4,0,4,0,1,3,1,0,240,109,1,239,,,,,,,,,,,,,,,,,,
,,1,116,,,,,,,2,3,4,stim/34.jpeg,HouseObjects,2,stim/objects/HouseObjects/thread.png,0.7,2,0.2,0.15,right,18,2020-12-17_07h10.06.658,premup-three_ses-01_part-01_label-phase1,3.2.4,Linux x86_64,60,right,1.263999939,4,0,4,0,1,3,1,0,240,107,1,239,,,,,,,,,,,,,,,,,,
,,1,117,,,,,,,3,6,2,stim/62.jpeg,Instruments,1,stim/objects/Instruments/trombone2.png,0.9,1,-0.2,0.15,left,18,2020-12-17_07h10.06.658,premup-three_ses-01_part-01_label-phase1,3.2.4,Linux x86_64,60,left,0.869999886,4,0,4,0,1,3,1,0,240,233,1,239,,,,,,,,,,,,,,,,,,
,,1,118,,,,,,,3,5,1,stim/51.jpeg,HouseObjects,2,stim/objects/HouseObjects/safetypin2.png,0.9,3,-0.2,-0.15,right,18,2020-12-17_07h10.06.658,premup-three_ses-01_part-01_label-phase1,3.2.4,Linux x86_64,60,right,1.316999912,4,0,4,0,1,3,1,0,240,172,1,239,,,,,,,,,,,,,,,,,,
,,1,119,,,,,,,2,4,1,stim/41.jpeg,Instruments,1,stim/objects/Instruments/panflute2.png,0.7,2,0.2,0.15,left,18,2020-12-17_07h10.06.658,premup-three_ses-01_part-01_label-phase1,3.2.4,Linux x86_64,60,left,1.190999985,4,0,4,0,1,3,1,0,240,140,1,239,,,,,,,,,,,,,,,,,,
,,0,120,,,,,,,1,1,1,stim/11.jpeg,Instruments,1,stim/objects/Instruments/panflute.png,0.5,1,-0.2,0.15,left,18,2020-12-17_07h10.06.658,premup-three_ses-01_part-01_label-phase1,3.2.4,Linux x86_64,60,right,1.234999895,4,0,4,0,1,3,1,0,240,12,1,239,,,,,,,,,,,,,,,,,,
,,1,121,,,,,,,2,4,3,stim/43.jpeg,HouseObjects,2,stim/objects/HouseObjects/rubbergloves2.png,0.3,4,0.2,-0.15,right,18,2020-12-17_07h10.06.658,premup-three_ses-01_part-01_label-phase1,3.2.4,Linux x86_64,60,right,1.368000031,4,0,4,0,1,3,1,0,240,154,1,239,,,,,,,,,,,,,,,,,,
,,1,122,,,,,,,1,1,2,stim/12.jpeg,HouseObjects,2,stim/objects/HouseObjects/remote.png,0.5,1,-0.2,0.15,right,18,2020-12-17_07h10.06.658,premup-three_ses-01_part-01_label-phase1,3.2.4,Linux x86_64,60,right,1.196000099,4,0,4,0,1,3,1,0,240,29,1,239,,,,,,,,,,,,,,,,,,
,,1,123,,,,,,,3,6,4,stim/64.jpeg,Instruments,1,stim/objects/Instruments/tuba2.png,0.9,2,0.2,0.15,left,18,2020-12-17_07h10.06.658,premup-three_ses-01_part-01_label-phase1,3.2.4,Linux x86_64,60,left,0.928999901,4,0,4,0,1,3,1,0,240,219,1,239,,,,,,,,,,,,,,,,,,
,,1,124,,,,,,,3,6,1,stim/61.jpeg,Instruments,1,stim/objects/Instruments/triangle2.png,0.9,4,0.2,-0.15,left,18,2020-12-17_07h10.06.658,premup-three_ses-01_part-01_label-phase1,3.2.4,Linux x86_64,60,left,0.608999968,4,0,4,0,1,3,1,0,240,228,1,239,,,,,,,,,,,,,,,,,,
,,1,125,,,,,,,2,4,1,stim/41.jpeg,Instruments,1,stim/objects/Instruments/panflute2.png,0.7,2,0.2,0.15,left,18,2020-12-17_07h10.06.658,premup-three_ses-01_part-01_label-phase1,3.2.4,Linux x86_64,60,left,1.139999866,4,0,4,0,1,3,1,0,240,120,1,239,,,,,,,,,,,,,,,,,,
,,0,126,,,,,,,2,4,3,stim/43.jpeg,Instruments,1,stim/objects/Instruments/record2.png,0.7,2,0.2,0.15,left,18,2020-12-17_07h10.06.658,premup-three_ses-01_part-01_label-phase1,3.2.4,Linux x86_64,60,right,0.893999815,4,0,4,0,1,3,1,0,240,138,1,239,,,,,,,,,,,,,,,,,,
,,1,127,,,,,,,1,1,4,stim/14.jpeg,HouseObjects,2,stim/objects/HouseObjects/rug.png,0.5,1,-0.2,0.15,right,18,2020-12-17_07h10.06.658,premup-three_ses-01_part-01_label-phase1,3.2.4,Linux x86_64,60,right,1.487999916,4,0,4,0,1,3,1,0,240,39,1,239,,,,,,,,,,,,,,,,,,
,,1,128,,,,,,,3,5,2,stim/52.jpeg,HouseObjects,2,stim/objects/HouseObjects/saw2.png,0.9,3,-0.2,-0.15,right,18,2020-12-17_07h10.06.658,premup-three_ses-01_part-01_label-phase1,3.2.4,Linux x86_64,60,right,1.378000021,4,0,4,0,1,3,1,0,240,173,1,239,,,,,,,,,,,,,,,,,,
,,0,129,,,,,,,1,2,3,stim/23.jpeg,HouseObjects,2,stim/objects/HouseObjects/scale.png,0.5,4,0.2,-0.15,right,18,2020-12-17_07h10.06.658,premup-three_ses-01_part-01_label-phase1,3.2.4,Linux x86_64,60,left,0.946999788,4,0,4,0,1,3,1,0,240,70,1,239,,,,,,,,,,,,,,,,,,
,,0,130,,,,,,,3,5,1,stim/51.jpeg,Instruments,1,stim/objects/Instruments/saxophone2.png,0.1,4,0.2,-0.15,left,18,2020-12-17_07h10.06.658,premup-three_ses-01_part-01_label-phase1,3.2.4,Linux x86_64,60,right,1.102999926,4,0,4,0,1,3,1,0,240,160,1,239,,,,,,,,,,,,,,,,,,
,,1,131,,,,,,,3,5,2,stim/52.jpeg,HouseObjects,2,stim/objects/HouseObjects/saw2.png,0.9,2,0.2,0.15,right,18,2020-12-17_07h10.06.658,premup-three_ses-01_part-01_label-phase1,3.2.4,Linux x86_64,60,right,1.228999853,4,0,4,0,1,3,1,0,240,185,1,239,,,,,,,,,,,,,,,,,,
,,0,132,,,,,,,2,4,1,stim/41.jpeg,HouseObjects,2,stim/objects/HouseObjects/recyclingbin2.png,0.3,4,0.2,-0.15,right,18,2020-12-17_07h10.06.658,premup-three_ses-01_part-01_label-phase1,3.2.4,Linux x86_64,60,left,0.777999878,4,0,4,0,1,3,1,0,240,156,1,239,,,,,,,,,,,,,,,,,,
,,0,133,,,,,,,1,1,4,stim/14.jpeg,HouseObjects,2,stim/objects/HouseObjects/rug.png,0.5,1,-0.2,0.15,right,18,2020-12-17_07h10.06.658,premup-three_ses-01_part-01_label-phase1,3.2.4,Linux x86_64,60,left,1.621999979,4,0,4,0,1,3,1,0,240,31,1,239,,,,,,,,,,,,,,,,,,
,,1,134,,,,,,,3,5,1,stim/51.jpeg,HouseObjects,2,stim/objects/HouseObjects/safetypin2.png,0.9,1,-0.2,0.15,right,18,2020-12-17_07h10.06.658,premup-three_ses-01_part-01_label-phase1,3.2.4,Linux x86_64,60,right,0.913000107,4,0,4,0,1,3,1,0,240,192,1,239,,,,,,,,,,,,,,,,,,
,,0,135,,,,,,,1,1,2,stim/12.jpeg,HouseObjects,2,stim/objects/HouseObjects/remote.png,0.5,2,0.2,0.15,right,18,2020-12-17_07h10.06.658,premup-three_ses-01_part-01_label-phase1,3.2.4,Linux x86_64,60,left,1.095999956,4,0,4,0,1,3,1,0,240,21,1,239,,,,,,,,,,,,,,,,,,
,,1,136,,,,,,,2,3,4,stim/34.jpeg,HouseObjects,2,stim/objects/HouseObjects/thread.png,0.7,2,0.2,0.15,right,18,2020-12-17_07h10.06.658,premup-three_ses-01_part-01_label-phase1,3.2.4,Linux x86_64,60,right,1.197999954,4,0,4,0,1,3,1,0,240,111,1,239,,,,,,,,,,,,,,,,,,
,,0,137,,,,,,,3,5,2,stim/52.jpeg,HouseObjects,2,stim/objects/HouseObjects/saw2.png,0.9,2,0.2,0.15,right,18,2020-12-17_07h10.06.658,premup-three_ses-01_part-01_label-phase1,3.2.4,Linux x86_64,60,left,1.399999857,4,0,4,0,1,3,1,0,240,197,1,239,,,,,,,,,,,,,,,,,,
,,1,138,,,,,,,1,1,3,stim/13.jpeg,Instruments,1,stim/objects/Instruments/record.png,0.5,3,-0.2,-0.15,left,18,2020-12-17_07h10.06.658,premup-three_ses-01_part-01_label-phase1,3.2.4,Linux x86_64,60,left,1.232999802,4,0,4,0,1,3,1,0,240,10,1,239,,,,,,,,,,,,,,,,,,
,,0,139,,,,,,,3,6,4,stim/64.jpeg,HouseObjects,2,stim/objects/HouseObjects/thread2.png,0.1,4,0.2,-0.15,right,18,2020-12-17_07h10.06.658,premup-three_ses-01_part-01_label-phase1,3.2.4,Linux x86_64,60,left,0.720999956,4,0,4,0,1,3,1,0,240,239,1,239,,,,,,,,,,,,,,,,,,
,,0,140,,,,,,,1,2,2,stim/22.jpeg,Instruments,1,stim/objects/Instruments/speaker.png,0.5,3,-0.2,-0.15,left,18,2020-12-17_07h10.06.658,premup-three_ses-01_part-01_label-phase1,3.2.4,Linux x86_64,60,right,1.683000088,4,0,4,0,1,3,1,0,240,53,1,239,,,,,,,,,,,,,,,,,,
,,0,141,,,,,,,3,5,1,stim/51.jpeg,HouseObjects,2,stim/objects/HouseObjects/safetypin2.png,0.9,2,0.2,0.15,right,18,2020-12-17_07h10.06.658,premup-three_ses-01_part-01_label-phase1,3.2.4,Linux x86_64,60,left,1.189999819,4,0,4,0,1,3,1,0,240,164,1,239,,,,,,,,,,,,,,,,,,
,,1,142,,,,,,,3,6,2,stim/62.jpeg,Instruments,1,stim/objects/Instruments/trombone2.png,0.9,1,-0.2,0.15,left,18,2020-12-17_07h10.06.658,premup-three_ses-01_part-01_label-phase1,3.2.4,Linux x86_64,60,left,0.697000027,4,0,4,0,1,3,1,0,240,213,1,239,,,,,,,,,,,,,,,,,,
,,1,143,,,,,,,2,3,4,stim/34.jpeg,HouseObjects,2,stim/objects/HouseObjects/thread.png,0.7,3,-0.2,-0.15,right,18,2020-12-17_07h10.06.658,premup-three_ses-01_part-01_label-phase1,3.2.4,Linux x86_64,60,right,0.926999807,4,0,4,0,1,3,1,0,240,119,1,239,,,,,,,,,,,,,,,,,,
,,0,144,,,,,,,2,3,2,stim/32.jpeg,HouseObjects,2,stim/objects/HouseObjects/teapot.png,0.7,4,0.2,-0.15,right,18,2020-12-17_07h10.06.658,premup-three_ses-01_part-01_label-phase1,3.2.4,Linux x86_64,60,left,1.65899992,4,0,4,0,1,3,1,0,240,97,1,239,,,,,,,,,,,,,,,,,,
,,0,145,,,,,,,3,5,3,stim/53.jpeg,Instruments,1,stim/objects/Instruments/tambourine2.png,0.1,4,0.2,-0.15,left,18,2020-12-17_07h10.06.658,premup-three_ses-01_part-01_label-phase1,3.2.4,Linux x86_64,60,right,1.193999767,4,0,4,0,1,3,1,0,240,162,1,239,,,,,,,,,,,,,,,,,,
,,0,146,,,,,,,1,1,1,stim/11.jpeg,HouseObjects,2,stim/objects/HouseObjects/recyclingbin.png,0.5,2,0.2,0.15,right,18,2020-12-17_07h10.06.658,premup-three_ses-01_part-01_label-phase1,3.2.4,Linux x86_64,60,left,0.993999958,4,0,4,0,1,3,1,0,240,36,1,239,,,,,,,,,,,,,,,,,,
,,0,147,,,,,,,1,1,4,stim/14.jpeg,Instruments,1,stim/objects/Instruments/record_player.png,0.5,4,0.2,-0.15,left,18,2020-12-17_07h10.06.658,premup-three_ses-01_part-01_label-phase1,3.2.4,Linux x86_64,60,right,1.596999884,4,0,4,0,1,3,1,0,240,7,1,239,,,,,,,,,,,,,,,,,,
,,1,148,,,,,,,3,5,4,stim/54.jpeg,HouseObjects,2,stim/objects/HouseObjects/sponge2.png,0.9,2,0.2,0.15,right,18,2020-12-17_07h10.06.658,premup-three_ses-01_part-01_label-phase1,3.2.4,Linux x86_64,60,right,1.266000032,4,0,4,0,1,3,1,0,240,191,1,239,,,,,,,,,,,,,,,,,,
,,1,149,,,,,,,3,5,4,stim/54.jpeg,HouseObjects,2,stim/objects/HouseObjects/sponge2.png,0.9,1,-0.2,0.15,right,18,2020-12-17_07h10.06.658,premup-three_ses-01_part-01_label-phase1,3.2.4,Linux x86_64,60,right,1.362999916,4,0,4,0,1,3,1,0,240,167,1,239,,,,,,,,,,,,,,,,,,
,,1,150,,,,,,,3,5,1,stim/51.jpeg,HouseObjects,2,stim/objects/HouseObjects/safetypin2.png,0.9,4,0.2,-0.15,right,18,2020-12-17_07h10.06.658,premup-three_ses-01_part-01_label-phase1,3.2.4,Linux x86_64,60,right,1.583999872,4,0,4,0,1,3,1,0,240,184,1,239,,,,,,,,,,,,,,,,,,
,,1,151,,,,,,,1,1,1,stim/11.jpeg,Instruments,1,stim/objects/Instruments/panflute.png,0.5,4,0.2,-0.15,left,18,2020-12-17_07h10.06.658,premup-three_ses-01_part-01_label-phase1,3.2.4,Linux x86_64,60,left,1.108999968,4,0,4,0,1,3,1,0,240,0,1,239,,,,,,,,,,,,,,,,,,
,,0,152,,,,,,,1,1,2,stim/12.jpeg,HouseObjects,2,stim/objects/HouseObjects/remote.png,0.5,2,0.2,0.15,right,18,2020-12-17_07h10.06.658,premup-three_ses-01_part-01_label-phase1,3.2.4,Linux x86_64,60,left,1.5849998,4,0,4,0,1,3,1,0,240,33,1,239,,,,,,,,,,,,,,,,,,
,,0,153,,,,,,,2,3,3,stim/33.jpeg,Instruments,1,stim/objects/Instruments/trumpet.png,0.3,1,-0.2,0.15,left,18,2020-12-17_07h10.06.658,premup-three_ses-01_part-01_label-phase1,3.2.4,Linux x86_64,60,right,1.138999939,4,0,4,0,1,3,1,0,240,86,1,239,,,,,,,,,,,,,,,,,,
,,1,154,,,,,,,1,2,2,stim/22.jpeg,HouseObjects,2,stim/objects/HouseObjects/saw.png,0.5,1,-0.2,0.15,right,18,2020-12-17_07h10.06.658,premup-three_ses-01_part-01_label-phase1,3.2.4,Linux x86_64,60,right,1.489999771,4,0,4,0,1,3,1,0,240,69,1,239,,,,,,,,,,,,,,,,,,
,,0,155,,,,,,,2,4,1,stim/41.jpeg,Instruments,1,stim/objects/Instruments/panflute2.png,0.7,1,-0.2,0.15,left,18,2020-12-17_07h10.06.658,premup-three_ses-01_part-01_label-phase1,3.2.4,Linux x86_64,60,right,1.260999918,4,0,4,0,1,3,1,0,240,132,1,239,,,,,,,,,,,,,,,,,,
,,1,156,,,,,,,3,5,3,stim/53.jpeg,HouseObjects,2,stim/objects/HouseObjects/scale2.png,0.9,1,-0.2,0.15,right,18,2020-12-17_07h10.06.658,premup-three_ses-01_part-01_label-phase1,3.2.4,Linux x86_64,60,right,0.861999989,4,0,4,0,1,3,1,0,240,178,1,239,,,,,,,,,,,,,,,,,,
,,0,157,,,,,,,2,3,2,stim/32.jpeg,HouseObjects,2,stim/objects/HouseObjects/teapot.png,0.7,1,-0.2,0.15,right,18,2020-12-17_07h10.06.658,premup-three_ses-01_part-01_label-phase1,3.2.4,Linux x86_64,60,left,1.134000063,4,0,4,0,1,3,1,0,240,117,1,239,,,,,,,,,,,,,,,,,,
,,1,158,,,,,,,3,5,3,stim/53.jpeg,HouseObjects,2,stim/objects/HouseObjects/scale2.png,0.9,2,0.2,0.15,right,18,2020-12-17_07h10.06.658,premup-three_ses-01_part-01_label-phase1,3.2.4,Linux x86_64,60,right,0.980000019,4,0,4,0,1,3,1,0,240,190,1,239,,,,,,,,,,,,,,,,,,
,,1,159,,,,,,,1,2,2,stim/22.jpeg,Instruments,1,stim/objects/Instruments/speaker.png,0.5,1,-0.2,0.15,left,18,2020-12-17_07h10.06.658,premup-three_ses-01_part-01_label-phase1,3.2.4,Linux x86_64,60,left,1.169999838,4,0,4,0,1,3,1,0,240,45,1,239,,,,,,,,,,,,,,,,,,
,,0,160,,,,,,,2,3,4,stim/34.jpeg,Instruments,1,stim/objects/Instruments/tuba.png,0.3,2,0.2,0.15,left,18,2020-12-17_07h10.06.658,premup-three_ses-01_part-01_label-phase1,3.2.4,Linux x86_64,60,right,1.247999907,4,0,4,0,1,3,1,0,240,87,1,239,,,,,,,,,,,,,,,,,,
,,1,161,,,,,,,2,3,1,stim/31.jpeg,HouseObjects,2,stim/objects/HouseObjects/spraybottle.png,0.7,3,-0.2,-0.15,right,18,2020-12-17_07h10.06.658,premup-three_ses-01_part-01_label-phase1,3.2.4,Linux x86_64,60,right,1.263999939,4,0,4,0,1,3,1,0,240,92,1,239,,,,,,,,,,,,,,,,,,
,,0,162,,,,,,,2,4,3,stim/43.jpeg,Instruments,1,stim/objects/Instruments/record2.png,0.7,1,-0.2,0.15,left,18,2020-12-17_07h10.06.658,premup-three_ses-01_part-01_label-phase1,3.2.4,Linux x86_64,60,,,4,0,4,0,1,3,1,0,240,146,1,239,,,,,,,,,,,,,,,,,,
,,1,163,,,,,,,3,6,4,stim/64.jpeg,Instruments,1,stim/objects/Instruments/tuba2.png,0.9,3,-0.2,-0.15,left,18,2020-12-17_07h10.06.658,premup-three_ses-01_part-01_label-phase1,3.2.4,Linux x86_64,60,left,0.755999804,4,0,4,0,1,3,1,0,240,227,1,239,,,,,,,,,,,,,,,,,,
,,0,164,,,,,,,2,3,2,stim/32.jpeg,Instruments,1,stim/objects/Instruments/trombone.png,0.3,2,0.2,0.15,left,18,2020-12-17_07h10.06.658,premup-three_ses-01_part-01_label-phase1,3.2.4,Linux x86_64,60,right,1.536000013,4,0,4,0,1,3,1,0,240,85,1,239,,,,,,,,,,,,,,,,,,
,,1,165,,,,,,,2,3,2,stim/32.jpeg,HouseObjects,2,stim/objects/HouseObjects/teapot.png,0.7,1,-0.2,0.15,right,18,2020-12-17_07h10.06.658,premup-three_ses-01_part-01_label-phase1,3.2.4,Linux x86_64,60,right,1.525999784,4,0,4,0,1,3,1,0,240,93,1,239,,,,,,,,,,,,,,,,,,
,,1,166,,,,,,,2,4,3,stim/43.jpeg,Instruments,1,stim/objects/Instruments/record2.png,0.7,1,-0.2,0.15,left,18,2020-12-17_07h10.06.658,premup-three_ses-01_part-01_label-phase1,3.2.4,Linux x86_64,60,left,1.5849998,4,0,4,0,1,3,1,0,240,142,1,239,,,,,,,,,,,,,,,,,,
,,0,167,,,,,,,1,2,3,stim/23.jpeg,HouseObjects,2,stim/objects/HouseObjects/scale.png,0.5,2,0.2,0.15,right,18,2020-12-17_07h10.06.658,premup-three_ses-01_part-01_label-phase1,3.2.4,Linux x86_64,60,left,1.180999756,4,0,4,0,1,3,1,0,240,74,1,239,,,,,,,,,,,,,,,,,,
,,0,168,,,,,,,1,1,3,stim/13.jpeg,Instruments,1,stim/objects/Instruments/record.png,0.5,1,-0.2,0.15,left,18,2020-12-17_07h10.06.658,premup-three_ses-01_part-01_label-phase1,3.2.4,Linux x86_64,60,right,1.55099988,4,0,4,0,1,3,1,0,240,14,1,239,,,,,,,,,,,,,,,,,,
,,1,169,,,,,,,3,6,4,stim/64.jpeg,Instruments,1,stim/objects/Instruments/tuba2.png,0.9,3,-0.2,-0.15,left,18,2020-12-17_07h10.06.658,premup-three_ses-01_part-01_label-phase1,3.2.4,Linux x86_64,60,left,1.10199976,4,0,4,0,1,3,1,0,240,203,1,239,,,,,,,,,,,,,,,,,,
,,1,170,,,,,,,2,4,1,stim/41.jpeg,Instruments,1,stim/objects/Instruments/panflute2.png,0.7,2,0.2,0.15,left,18,2020-12-17_07h10.06.658,premup-three_ses-01_part-01_label-phase1,3.2.4,Linux x86_64,60,left,1.723999977,4,0,4,0,1,3,1,0,240,128,1,239,,,,,,,,,,,,,,,,,,
,,1,171,,,,,,,1,2,2,stim/22.jpeg,Instruments,1,stim/objects/Instruments/speaker.png,0.5,1,-0.2,0.15,left,18,2020-12-17_07h10.06.658,premup-three_ses-01_part-01_label-phase1,3.2.4,Linux x86_64,60,left,1.416999817,4,0,4,0,1,3,1,0,240,57,1,239,,,,,,,,,,,,,,,,,,
,,1,172,,,,,,,3,6,4,stim/64.jpeg,Instruments,1,stim/objects/Instruments/tuba2.png,0.9,3,-0.2,-0.15,left,18,2020-12-17_07h10.06.658,premup-three_ses-01_part-01_label-phase1,3.2.4,Linux x86_64,60,left,1.628999949,4,0,4,0,1,3,1,0,240,215,1,239,,,,,,,,,,,,,,,,,,
,,1,173,,,,,,,3,5,2,stim/52.jpeg,HouseObjects,2,stim/objects/HouseObjects/saw2.png,0.9,3,-0.2,-0.15,right,18,2020-12-17_07h10.06.658,premup-three_ses-01_part-01_label-phase1,3.2.4,Linux x86_64,60,right,1.214999914,4,0,4,0,1,3,1,0,240,193,1,239,,,,,,,,,,,,,,,,,,
,,1,174,,,,,,,3,6,1,stim/61.jpeg,Instruments,1,stim/objects/Instruments/triangle2.png,0.9,4,0.2,-0.15,left,18,2020-12-17_07h10.06.658,premup-three_ses-01_part-01_label-phase1,3.2.4,Linux x86_64,60,left,0.968999863,4,0,4,0,1,3,1,0,240,224,1,239,,,,,,,,,,,,,,,,,,
,,0,175,,,,,,,1,1,2,stim/12.jpeg,Instruments,1,stim/objects/Instruments/pipepiano.png,0.5,1,-0.2,0.15,left,18,2020-12-17_07h10.06.658,premup-three_ses-01_part-01_label-phase1,3.2.4,Linux x86_64,60,right,1.646999836,4,0,4,0,1,3,1,0,240,13,1,239,,,,,,,,,,,,,,,,,,
,,1,176,,,,,,,1,2,2,stim/22.jpeg,HouseObjects,2,stim/objects/HouseObjects/saw.png,0.5,1,-0.2,0.15,right,18,2020-12-17_07h10.06.658,premup-three_ses-01_part-01_label-phase1,3.2.4,Linux x86_64,60,right,1.302999973,4,0,4,0,1,3,1,0,240,73,1,239,,,,,,,,,,,,,,,,,,
,,0,177,,,,,,,2,3,3,stim/33.jpeg,HouseObjects,2,stim/objects/HouseObjects/thermometer.png,0.7,2,0.2,0.15,right,18,2020-12-17_07h10.06.658,premup-three_ses-01_part-01_label-phase1,3.2.4,Linux x86_64,60,left,1.390000105,4,0,4,0,1,3,1,0,240,94,1,239,,,,,,,,,,,,,,,,,,
,,1,178,,,,,,,2,3,3,stim/33.jpeg,HouseObjects,2,stim/objects/HouseObjects/thermometer.png,0.7,1,-0.2,0.15,right,18,2020-12-17_07h10.06.658,premup-three_ses-01_part-01_label-phase1,3.2.4,Linux x86_64,60,right,1.380000114,4,0,4,0,1,3,1,0,240,98,1,239,,,,,,,,,,,,,,,,,,
,,0,179,,,,,,,2,3,3,stim/33.jpeg,HouseObjects,2,stim/objects/HouseObjects/thermometer.png,0.7,4,0.2,-0.15,right,18,2020-12-17_07h10.06.658,premup-three_ses-01_part-01_label-phase1,3.2.4,Linux x86_64,60,left,1.076999903,4,0,4,0,1,3,1,0,240,102,1,239,,,,,,,,,,,,,,,,,,
,,1,180,,,,,,,2,4,2,stim/42.jpeg,Instruments,1,stim/objects/Instruments/pipepiano2.png,0.7,3,-0.2,-0.15,left,18,2020-12-17_07h10.06.658,premup-three_ses-01_part-01_label-phase1,3.2.4,Linux x86_64,60,left,1.367999792,4,0,4,0,1,3,1,0,240,121,1,239,,,,,,,,,,,,,,,,,,
,,1,181,,,,,,,3,6,4,stim/64.jpeg,Instruments,1,stim/objects/Instruments/tuba2.png,0.9,2,0.2,0.15,left,18,2020-12-17_07h10.06.658,premup-three_ses-01_part-01_label-phase1,3.2.4,Linux x86_64,60,left,1.160000086,4,0,4,0,1,3,1,0,240,223,1,239,,,,,,,,,,,,,,,,,,
,,0,182,,,,,,,1,2,4,stim/24.jpeg,Instruments,1,stim/objects/Instruments/timbal.png,0.5,3,-0.2,-0.15,left,18,2020-12-17_07h10.06.658,premup-three_ses-01_part-01_label-phase1,3.2.4,Linux x86_64,60,right,1.240999937,4,0,4,0,1,3,1,0,240,47,1,239,,,,,,,,,,,,,,,,,,
,,0,183,,,,,,,2,4,3,stim/43.jpeg,HouseObjects,2,stim/objects/HouseObjects/rubbergloves2.png,0.3,4,0.2,-0.15,right,18,2020-12-17_07h10.06.658,premup-three_ses-01_part-01_label-phase1,3.2.4,Linux x86_64,60,left,1.322999954,4,0,4,0,1,3,1,0,240,158,1,239,,,,,,,,,,,,,,,,,,
,,0,184,,,,,,,2,3,2,stim/32.jpeg,Instruments,1,stim/objects/Instruments/trombone.png,0.3,2,0.2,0.15,left,18,2020-12-17_07h10.06.658,premup-three_ses-01_part-01_label-phase1,3.2.4,Linux x86_64,60,right,1.375999928,4,0,4,0,1,3,1,0,240,81,1,239,,,,,,,,,,,,,,,,,,
,,0,185,,,,,,,2,4,2,stim/42.jpeg,HouseObjects,2,stim/objects/HouseObjects/remote2.png,0.3,2,0.2,0.15,right,18,2020-12-17_07h10.06.658,premup-three_ses-01_part-01_label-phase1,3.2.4,Linux x86_64,60,left,1.155999899,4,0,4,0,1,3,1,0,240,157,1,239,,,,,,,,,,,,,,,,,,
,,0,186,,,,,,,1,1,3,stim/13.jpeg,HouseObjects,2,stim/objects/HouseObjects/rubbergloves.png,0.5,4,0.2,-0.15,right,18,2020-12-17_07h10.06.658,premup-three_ses-01_part-01_label-phase1,3.2.4,Linux x86_64,60,left,1.565999746,4,0,4,0,1,3,1,0,240,26,1,239,,,,,,,,,,,,,,,,,,
,,1,187,,,,,,,1,2,1,stim/21.jpeg,HouseObjects,2,stim/objects/HouseObjects/safetypin.png,0.5,3,-0.2,-0.15,right,18,2020-12-17_07h10.06.658,premup-three_ses-01_part-01_label-phase1,3.2.4,Linux x86_64,60,right,1.141000032,4,0,4,0,1,3,1,0,240,60,1,239,,,,,,,,,,,,,,,,,,
,,0,188,,,,,,,2,4,3,stim/43.jpeg,Instruments,1,stim/objects/Instruments/record2.png,0.7,3,-0.2,-0.15,left,18,2020-12-17_07h10.06.658,premup-three_ses-01_part-01_label-phase1,3.2.4,Linux x86_64,60,right,1.246999979,4,0,4,0,1,3,1,0,240,126,1,239,,,,,,,,,,,,,,,,,,
,,1,189,,,,,,,2,4,3,stim/43.jpeg,Instruments,1,stim/objects/Instruments/record2.png,0.7,1,-0.2,0.15,left,18,2020-12-17_07h10.06.658,premup-three_ses-01_part-01_label-phase1,3.2.4,Linux x86_64,60,left,1.338999748,4,0,4,0,1,3,1,0,240,134,1,239,,,,,,,,,,,,,,,,,,
,,1,190,,,,,,,2,4,1,stim/41.jpeg,Instruments,1,stim/objects/Instruments/panflute2.png,0.7,1,-0.2,0.15,left,18,2020-12-17_07h10.06.658,premup-three_ses-01_part-01_label-phase1,3.2.4,Linux x86_64,60,left,1.106999874,4,0,4,0,1,3,1,0,240,144,1,239,,,,,,,,,,,,,,,,,,
,,1,191,,,,,,,1,1,1,stim/11.jpeg,HouseObjects,2,stim/objects/HouseObjects/recyclingbin.png,0.5,2,0.2,0.15,right,18,2020-12-17_07h10.06.658,premup-three_ses-01_part-01_label-phase1,3.2.4,Linux x86_64,60,right,0.907999992,4,0,4,0,1,3,1,0,240,28,1,239,,,,,,,,,,,,,,,,,,
,,0,192,,,,,,,2,3,3,stim/33.jpeg,Instruments,1,stim/objects/Instruments/trumpet.png,0.3,4,0.2,-0.15,left,18,2020-12-17_07h10.06.658,premup-three_ses-01_part-01_label-phase1,3.2.4,Linux x86_64,60,,,4,0,4,0,1,3,1,0,240,90,1,239,,,,,,,,,,,,,,,,,,
,,1,193,,,,,,,3,6,2,stim/62.jpeg,Instruments,1,stim/objects/Instruments/trombone2.png,0.9,4,0.2,-0.15,left,18,2020-12-17_07h10.06.658,premup-three_ses-01_part-01_label-phase1,3.2.4,Linux x86_64,60,left,1.079999924,4,0,4,0,1,3,1,0,240,209,1,239,,,,,,,,,,,,,,,,,,
,,1,194,,,,,,,3,5,4,stim/54.jpeg,HouseObjects,2,stim/objects/HouseObjects/sponge2.png,0.9,3,-0.2,-0.15,right,18,2020-12-17_07h10.06.658,premup-three_ses-01_part-01_label-phase1,3.2.4,Linux x86_64,60,right,1.019999981,4,0,4,0,1,3,1,0,240,179,1,239,,,,,,,,,,,,,,,,,,
,,1,195,,,,,,,1,1,3,stim/13.jpeg,Instruments,1,stim/objects/Instruments/record.png,0.5,2,0.2,0.15,left,18,2020-12-17_07h10.06.658,premup-three_ses-01_part-01_label-phase1,3.2.4,Linux x86_64,60,left,1.119999886,4,0,4,0,1,3,1,0,240,6,1,239,,,,,,,,,,,,,,,,,,
,,1,196,,,,,,,2,3,1,stim/31.jpeg,HouseObjects,2,stim/objects/HouseObjects/spraybottle.png,0.7,1,-0.2,0.15,right,18,2020-12-17_07h10.06.658,premup-three_ses-01_part-01_label-phase1,3.2.4,Linux x86_64,60,right,1.21600008,4,0,4,0,1,3,1,0,240,104,1,239,,,,,,,,,,,,,,,,,,
,,0,197,,,,,,,2,3,1,stim/31.jpeg,HouseObjects,2,stim/objects/HouseObjects/spraybottle.png,0.7,4,0.2,-0.15,right,18,2020-12-17_07h10.06.658,premup-three_ses-01_part-01_label-phase1,3.2.4,Linux x86_64,60,left,0.957999945,4,0,4,0,1,3,1,0,240,96,1,239,,,,,,,,,,,,,,,,,,
,,0,198,,,,,,,1,2,4,stim/24.jpeg,Instruments,1,stim/objects/Instruments/timbal.png,0.5,3,-0.2,-0.15,left,18,2020-12-17_07h10.06.658,premup-three_ses-01_part-01_label-phase1,3.2.4,Linux x86_64,60,,,4,0,4,0,1,3,1,0,240,43,1,239,,,,,,,,,,,,,,,,,,
,,0,199,,,,,,,3,6,3,stim/63.jpeg,Instruments,1,stim/objects/Instruments/trumpet2.png,0.9,3,-0.2,-0.15,left,18,2020-12-17_07h10.06.658,premup-three_ses-01_part-01_label-phase1,3.2.4,Linux x86_64,60,right,1.644999743,4,0,4,0,1,3,1,0,240,210,1,239,,,,,,,,,,,,,,,,,,
,,1,200,,,,,,,3,5,2,stim/52.jpeg,HouseObjects,2,stim/objects/HouseObjects/saw2.png,0.9,2,0.2,0.15,right,18,2020-12-17_07h10.06.658,premup-three_ses-01_part-01_label-phase1,3.2.4,Linux x86_64,60,right,0.872999907,4,0,4,0,1,3,1,0,240,165,1,239,,,,,,,,,,,,,,,,,,
,,1,201,,,,,,,3,6,3,stim/63.jpeg,Instruments,1,stim/objects/Instruments/trumpet2.png,0.9,3,-0.2,-0.15,left,18,2020-12-17_07h10.06.658,premup-three_ses-01_part-01_label-phase1,3.2.4,Linux x86_64,60,left,1.286999941,4,0,4,0,1,3,1,0,240,206,1,239,,,,,,,,,,,,,,,,,,
,,1,202,,,,,,,1,2,3,stim/23.jpeg,Instruments,1,stim/objects/Instruments/tambourine.png,0.5,3,-0.2,-0.15,left,18,2020-12-17_07h10.06.658,premup-three_ses-01_part-01_label-phase1,3.2.4,Linux x86_64,60,left,1.522999763,4,0,4,0,1,3,1,0,240,42,1,239,,,,,,,,,,,,,,,,,,
,,1,203,,,,,,,1,1,1,stim/11.jpeg,HouseObjects,2,stim/objects/HouseObjects/recyclingbin.png,0.5,2,0.2,0.15,right,18,2020-12-17_07h10.06.658,premup-three_ses-01_part-01_label-phase1,3.2.4,Linux x86_64,60,right,1.353999853,4,0,4,0,1,3,1,0,240,24,1,239,,,,,,,,,,,,,,,,,,
,,0,204,,,,,,,3,5,2,stim/52.jpeg,Instruments,1,stim/objects/Instruments/speaker2.png,0.1,3,-0.2,-0.15,left,18,2020-12-17_07h10.06.658,premup-three_ses-01_part-01_label-phase1,3.2.4,Linux x86_64,60,right,0.759000063,4,0,4,0,1,3,1,0,240,161,1,239,,,,,,,,,,,,,,,,,,
,,1,205,,,,,,,1,2,2,stim/22.jpeg,HouseObjects,2,stim/objects/HouseObjects/saw.png,0.5,2,0.2,0.15,right,18,2020-12-17_07h10.06.658,premup-three_ses-01_part-01_label-phase1,3.2.4,Linux x86_64,60,right,1.279999971,4,0,4,0,1,3,1,0,240,65,1,239,,,,,,,,,,,,,,,,,,
,,0,206,,,,,,,2,4,2,stim/42.jpeg,Instruments,1,stim/objects/Instruments/pipepiano2.png,0.7,4,0.2,-0.15,left,18,2020-12-17_07h10.06.658,premup-three_ses-01_part-01_label-phase1,3.2.4,Linux x86_64,60,right,1.152999878,4,0,4,0,1,3,1,0,240,145,1,239,,,,,,,,,,,,,,,,,,
,,0,207,,,,,,,1,2,3,stim/23.jpeg,HouseObjects,2,stim/objects/HouseObjects/scale.png,0.5,3,-0.2,-0.15,right,18,2020-12-17_07h10.06.658,premup-three_ses-01_part-01_label-phase1,3.2.4,Linux x86_64,60,left,1.306999922,4,0,4,0,1,3,1,0,240,62,1,239,,,,,,,,,,,,,,,,,,
,,1,208,,,,,,,2,4,2,stim/42.jpeg,Instruments,1,stim/objects/Instruments/pipepiano2.png,0.7,4,0.2,-0.15,left,18,2020-12-17_07h10.06.658,premup-three_ses-01_part-01_label-phase1,3.2.4,Linux x86_64,60,left,1.002999783,4,0,4,0,1,3,1,0,240,125,1,239,,,,,,,,,,,,,,,,,,
,,1,209,,,,,,,2,4,1,stim/41.jpeg,Instruments,1,stim/objects/Instruments/panflute2.png,0.7,3,-0.2,-0.15,left,18,2020-12-17_07h10.06.658,premup-three_ses-01_part-01_label-phase1,3.2.4,Linux x86_64,60,left,1.036999941,4,0,4,0,1,3,1,0,240,136,1,239,,,,,,,,,,,,,,,,,,
,,1,210,,,,,,,2,4,3,stim/43.jpeg,HouseObjects,2,stim/objects/HouseObjects/rubbergloves2.png,0.3,3,-0.2,-0.15,right,18,2020-12-17_07h10.06.658,premup-three_ses-01_part-01_label-phase1,3.2.4,Linux x86_64,60,right,1.496000051,4,0,4,0,1,3,1,0,240,150,1,239,,,,,,,,,,,,,,,,,,
,,1,211,,,,,,,3,5,4,stim/54.jpeg,HouseObjects,2,stim/objects/HouseObjects/sponge2.png,0.9,4,0.2,-0.15,right,18,2020-12-17_07h10.06.658,premup-three_ses-01_part-01_label-phase1,3.2.4,Linux x86_64,60,right,0.79399991,4,0,4,0,1,3,1,0,240,199,1,239,,,,,,,,,,,,,,,,,,
,,0,212,,,,,,,1,1,2,stim/12.jpeg,Instruments,1,stim/objects/Instruments/pipepiano.png,0.5,2,0.2,0.15,left,18,2020-12-17_07h10.06.658,premup-three_ses-01_part-01_label-phase1,3.2.4,Linux x86_64,60,right,1.644000053,4,0,4,0,1,3,1,0,240,5,1,239,,,,,,,,,,,,,,,,,,
,,0,213,,,,,,,2,3,4,stim/34.jpeg,Instruments,1,stim/objects/Instruments/tuba.png,0.3,3,-0.2,-0.15,left,18,2020-12-17_07h10.06.658,premup-three_ses-01_part-01_label-phase1,3.2.4,Linux x86_64,60,,,4,0,4,0,1,3,1,0,240,91,1,239,,,,,,,,,,,,,,,,,,
,,0,214,,,,,,,2,4,2,stim/42.jpeg,Instruments,1,stim/objects/Instruments/pipepiano2.png,0.7,1,-0.2,0.15,left,18,2020-12-17_07h10.06.658,premup-three_ses-01_part-01_label-phase1,3.2.4,Linux x86_64,60,right,1.27699995,4,0,4,0,1,3,1,0,240,133,1,239,,,,,,,,,,,,,,,,,,
,,1,215,,,,,,,3,5,1,stim/51.jpeg,HouseObjects,2,stim/objects/HouseObjects/safetypin2.png,0.9,4,0.2,-0.15,right,18,2020-12-17_07h10.06.658,premup-three_ses-01_part-01_label-phase1,3.2.4,Linux x86_64,60,right,0.819000006,4,0,4,0,1,3,1,0,240,188,1,239,,,,,,,,,,,,,,,,,,
,,0,216,,,,,,,2,3,2,stim/32.jpeg,HouseObjects,2,stim/objects/HouseObjects/teapot.png,0.7,3,-0.2,-0.15,right,18,2020-12-17_07h10.06.658,premup-three_ses-01_part-01_label-phase1,3.2.4,Linux x86_64,60,left,1.345000029,4,0,4,0,1,3,1,0,240,113,1,239,,,,,,,,,,,,,,,,,,
,,1,217,,,,,,,1,2,4,stim/24.jpeg,Instruments,1,stim/objects/Instruments/timbal.png,0.5,2,0.2,0.15,left,18,2020-12-17_07h10.06.658,premup-three_ses-01_part-01_label-phase1,3.2.4,Linux x86_64,60,left,1.092999935,4,0,4,0,1,3,1,0,240,55,1,239,,,,,,,,,,,,,,,,,,
,,1,218,,,,,,,3,5,4,stim/54.jpeg,HouseObjects,2,stim/objects/HouseObjects/sponge2.png,0.9,1,-0.2,0.15,right,18,2020-12-17_07h10.06.658,premup-three_ses-01_part-01_label-phase1,3.2.4,Linux x86_64,60,right,0.654999971,4,0,4,0,1,3,1,0,240,187,1,239,,,,,,,,,,,,,,,,,,
,,1,219,,,,,,,2,4,2,stim/42.jpeg,Instruments,1,stim/objects/Instruments/pipepiano2.png,0.7,2,0.2,0.15,left,18,2020-12-17_07h10.06.658,premup-three_ses-01_part-01_label-phase1,3.2.4,Linux x86_64,60,left,1.297999859,4,0,4,0,1,3,1,0,240,137,1,239,,,,,,,,,,,,,,,,,,
,,0,220,,,,,,,1,1,3,stim/13.jpeg,Instruments,1,stim/objects/Instruments/record.png,0.5,3,-0.2,-0.15,left,18,2020-12-17_07h10.06.658,premup-three_ses-01_part-01_label-phase1,3.2.4,Linux x86_64,60,right,1.451999903,4,0,4,0,1,3,1,0,240,2,1,239,,,,,,,,,,,,,,,,,,
,,1,221,,,,,,,2,4,4,stim/44.jpeg,Instruments,1,stim/objects/Instruments/record_player2.png,0.7,1,-0.2,0.15,left,18,2020-12-17_07h10.06.658,premup-three_ses-01_part-01_label-phase1,3.2.4,Linux x86_64,60,left,0.915999889,4,0,4,0,1,3,1,0,240,127,1,239,,,,,,,,,,,,,,,,,,
,,1,222,,,,,,,3,6,4,stim/64.jpeg,Instruments,1,stim/objects/Instruments/tuba2.png,0.9,2,0.2,0.15,left,18,2020-12-17_07h10.06.658,premup-three_ses-01_part-01_label-phase1,3.2.4,Linux x86_64,60,left,0.818000078,4,0,4,0,1,3,1,0,240,211,1,239,,,,,,,,,,,,,,,,,,
,,0,223,,,,,,,1,2,1,stim/21.jpeg,HouseObjects,2,stim/objects/HouseObjects/safetypin.png,0.5,4,0.2,-0.15,right,18,2020-12-17_07h10.06.658,premup-three_ses-01_part-01_label-phase1,3.2.4,Linux x86_64,60,,,4,0,4,0,1,3,1,0,240,72,1,239,,,,,,,,,,,,,,,,,,
,,1,224,,,,,,,2,3,4,stim/34.jpeg,HouseObjects,2,stim/objects/HouseObjects/thread.png,0.7,4,0.2,-0.15,right,18,2020-12-17_07h10.06.658,premup-three_ses-01_part-01_label-phase1,3.2.4,Linux x86_64,60,right,1.378999949,4,0,4,0,1,3,1,0,240,115,1,239,,,,,,,,,,,,,,,,,,
,,0,225,,,,,,,2,4,4,stim/44.jpeg,HouseObjects,2,stim/objects/HouseObjects/rug2.png,0.3,1,-0.2,0.15,right,18,2020-12-17_07h10.06.658,premup-three_ses-01_part-01_label-phase1,3.2.4,Linux x86_64,60,left,1.007999897,4,0,4,0,1,3,1,0,240,159,1,239,,,,,,,,,,,,,,,,,,
,,0,226,,,,,,,1,1,3,stim/13.jpeg,HouseObjects,2,stim/objects/HouseObjects/rubbergloves.png,0.5,2,0.2,0.15,right,18,2020-12-17_07h10.06.658,premup-three_ses-01_part-01_label-phase1,3.2.4,Linux x86_64,60,left,0.888999939,4,0,4,0,1,3,1,0,240,38,1,239,,,,,,,,,,,,,,,,,,
,,1,227,,,,,,,1,1,4,stim/14.jpeg,Instruments,1,stim/objects/Instruments/record_player.png,0.5,1,-0.2,0.15,left,18,2020-12-17_07h10.06.658,premup-three_ses-01_part-01_label-phase1,3.2.4,Linux x86_64,60,left,1.565000057,4,0,4,0,1,3,1,0,240,19,1,239,,,,,,,,,,,,,,,,,,
,,1,228,,,,,,,3,5,2,stim/52.jpeg,HouseObjects,2,stim/objects/HouseObjects/saw2.png,0.9,3,-0.2,-0.15,right,18,2020-12-17_07h10.06.658,premup-three_ses-01_part-01_label-phase1,3.2.4,Linux x86_64,60,right,0.759999752,4,0,4,0,1,3,1,0,240,189,1,239,,,,,,,,,,,,,,,,,,
,,1,229,,,,,,,3,5,3,stim/53.jpeg,HouseObjects,2,stim/objects/HouseObjects/scale2.png,0.9,2,0.2,0.15,right,18,2020-12-17_07h10.06.658,premup-three_ses-01_part-01_label-phase1,3.2.4,Linux x86_64,60,right,0.740999937,4,0,4,0,1,3,1,0,240,166,1,239,,,,,,,,,,,,,,,,,,
,,0,230,,,,,,,1,2,3,stim/23.jpeg,Instruments,1,stim/objects/Instruments/tambourine.png,0.5,4,0.2,-0.15,left,18,2020-12-17_07h10.06.658,premup-three_ses-01_part-01_label-phase1,3.2.4,Linux x86_64,60,,,4,0,4,0,1,3,1,0,240,50,1,239,,,,,,,,,,,,,,,,,,
,,0,231,,,,,,,2,3,1,stim/31.jpeg,Instruments,1,stim/objects/Instruments/triangle.png,0.3,3,-0.2,-0.15,left,18,2020-12-17_07h10.06.658,premup-three_ses-01_part-01_label-phase1,3.2.4,Linux x86_64,60,right,1.280999899,4,0,4,0,1,3,1,0,240,88,1,239,,,,,,,,,,,,,,,,,,
,,0,232,,,,,,,1,2,4,stim/24.jpeg,HouseObjects,2,stim/objects/HouseObjects/sponge.png,0.5,1,-0.2,0.15,right,18,2020-12-17_07h10.06.658,premup-three_ses-01_part-01_label-phase1,3.2.4,Linux x86_64,60,left,0.961999893,4,0,4,0,1,3,1,0,240,75,1,239,,,,,,,,,,,,,,,,,,
,,1,233,,,,,,,3,5,2,stim/52.jpeg,HouseObjects,2,stim/objects/HouseObjects/saw2.png,0.9,4,0.2,-0.15,right,18,2020-12-17_07h10.06.658,premup-three_ses-01_part-01_label-phase1,3.2.4,Linux x86_64,60,right,0.727999926,4,0,4,0,1,3,1,0,240,169,1,239,,,,,,,,,,,,,,,,,,
,,1,234,,,,,,,3,5,2,stim/52.jpeg,HouseObjects,2,stim/objects/HouseObjects/saw2.png,0.9,1,-0.2,0.15,right,18,2020-12-17_07h10.06.658,premup-three_ses-01_part-01_label-phase1,3.2.4,Linux x86_64,60,right,0.613999844,4,0,4,0,1,3,1,0,240,177,1,239,,,,,,,,,,,,,,,,,,
,,1,235,,,,,,,3,6,1,stim/61.jpeg,Instruments,1,stim/objects/Instruments/triangle2.png,0.9,3,-0.2,-0.15,left,18,2020-12-17_07h10.06.658,premup-three_ses-01_part-01_label-phase1,3.2.4,Linux x86_64,60,left,0.967999935,4,0,4,0,1,3,1,0,240,200,1,239,,,,,,,,,,,,,,,,,,
,,1,236,,,,,,,1,1,3,stim/13.jpeg,HouseObjects,2,stim/objects/HouseObjects/rubbergloves.png,0.5,1,-0.2,0.15,right,18,2020-12-17_07h10.06.658,premup-three_ses-01_part-01_label-phase1,3.2.4,Linux x86_64,60,right,1.545999765,4,0,4,0,1,3,1,0,240,22,1,239,,,,,,,,,,,,,,,,,,
,,1,237,,,,,,,3,6,1,stim/61.jpeg,Instruments,1,stim/objects/Instruments/triangle2.png,0.9,4,0.2,-0.15,left,18,2020-12-17_07h10.06.658,premup-three_ses-01_part-01_label-phase1,3.2.4,Linux x86_64,60,left,1.296000004,4,0,4,0,1,3,1,0,240,220,1,239,,,,,,,,,,,,,,,,,,
,,1,238,,,,,,,2,3,4,stim/34.jpeg,HouseObjects,2,stim/objects/HouseObjects/thread.png,0.7,4,0.2,-0.15,right,18,2020-12-17_07h10.06.658,premup-three_ses-01_part-01_label-phase1,3.2.4,Linux x86_64,60,right,1.50999999,4,0,4,0,1,3,1,0,240,99,1,239,,,,,,,,,,,,,,,,,,
,,1,239,,,,,,,1,1,2,stim/12.jpeg,HouseObjects,2,stim/objects/HouseObjects/remote.png,0.5,3,-0.2,-0.15,right,18,2020-12-17_07h10.06.658,premup-three_ses-01_part-01_label-phase1,3.2.4,Linux x86_64,60,right,1.371999979,4,0,4,0,1,3,1,0,240,37,1,239,,,,,,,,,,,,,,,,,,
,,1,240,,,,,,,3,5,2,stim/52.jpeg,HouseObjects,2,stim/objects/HouseObjects/saw2.png,0.9,4,0.2,-0.15,right,18,2020-12-17_07h10.06.658,premup-three_ses-01_part-01_label-phase1,3.2.4,Linux x86_64,60,right,0.717000008,4,0,4,0,1,3,1,0,240,181,1,239,,,,,,,,,,,,,,,,,,
,,,,,,,,,,,5,,stim/51.jpeg,,,,,,,,,18,2020-12-17_07h10.06.658,premup-three_ses-01_part-01_label-phase1,3.2.4,Linux x86_64,60,,,4,0,4,0,1,3,,,,,,,1,0,100,8.375,,,1,0,6,4,1,5,Household items,5,15,Music items,85,95
,,,,,,,,,,,4,,stim/41.jpeg,,,,,,,,,18,2020-12-17_07h10.06.658,premup-three_ses-01_part-01_label-phase1,3.2.4,Linux x86_64,60,,,4,0,4,0,1,3,,,,,,,1,0,87,11.10699987,,,1,0,6,3,1,5,Music items,65,75,Household items,25,35
,,,,,,,,,,,1,,stim/11.jpeg,,,,,,,,,18,2020-12-17_07h10.06.658,premup-three_ses-01_part-01_label-phase1,3.2.4,Linux x86_64,60,,,4,0,4,0,1,3,,,,,,,1,0,58,10.00600004,,,1,0,6,0,1,5,Music items,45,55,Household items,45,55
,,,,,,,,,,,2,,stim/21.jpeg,,,,,,,,,18,2020-12-17_07h10.06.658,premup-three_ses-01_part-01_label-phase1,3.2.4,Linux x86_64,60,,,4,0,4,0,1,3,,,,,,,1,0,28,13.80899978,,,1,0,6,1,1,5,Household items,45,55,Music items,45,55
,,,,,,,,,,,6,,stim/61.jpeg,,,,,,,,,18,2020-12-17_07h10.06.658,premup-three_ses-01_part-01_label-phase1,3.2.4,Linux x86_64,60,,,4,0,4,0,1,3,,,,,,,1,0,95,10.08800006,,,1,0,6,5,1,5,Music items,5,15,Household items,85,95
,,,,,,,,,,,3,,stim/31.jpeg,,,,,,,,,18,2020-12-17_07h10.06.658,premup-three_ses-01_part-01_label-phase1,3.2.4,Linux x86_64,60,,,4,0,4,0,1,3,,,,,,,1,0,31,9.088000059,,,1,0,6,2,1,5,Music items,65,75,Household items,25,35
,,,,,,,,,,,,,,,,,,,,,,18,2020-12-17_07h10.06.658,premup-three_ses-01_part-01_label-phase1,3.2.4,Linux x86_64,60,,,4,0,4,0,1,3,,,,,,,,,,,,,,,,,,,,,,,,
,,1,1,,,,,,,3,6,3,stim/63.jpeg,Instruments,1,stim/objects/Instruments/trumpet2.png,0.9,4,0.2,-0.15,left,18,2020-12-17_07h10.06.658,premup-three_ses-01_part-01_label-phase1,3.2.4,Linux x86_64,60,left,1.451999903,4,0,4,0,1,3,1,0,240,202,1,239,,,,,,,,,,,,,,,,,,
,,0,2,,,,,,,1,2,4,stim/24.jpeg,HouseObjects,2,stim/objects/HouseObjects/sponge.png,0.5,2,0.2,0.15,right,18,2020-12-17_07h10.06.658,premup-three_ses-01_part-01_label-phase1,3.2.4,Linux x86_64,60,left,1.193000078,4,0,4,0,1,3,1,0,240,63,1,239,,,,,,,,,,,,,,,,,,
,,0,3,,,,,,,2,4,2,stim/42.jpeg,HouseObjects,2,stim/objects/HouseObjects/remote2.png,0.3,3,-0.2,-0.15,right,18,2020-12-17_07h10.06.658,premup-three_ses-01_part-01_label-phase1,3.2.4,Linux x86_64,60,left,1.042999744,4,0,4,0,1,3,1,0,240,149,1,239,,,,,,,,,,,,,,,,,,
,,1,4,,,,,,,3,6,4,stim/64.jpeg,Instruments,1,stim/objects/Instruments/tuba2.png,0.9,2,0.2,0.15,left,18,2020-12-17_07h10.06.658,premup-three_ses-01_part-01_label-phase1,3.2.4,Linux x86_64,60,left,0.703000069,4,0,4,0,1,3,1,0,240,223,1,239,,,,,,,,,,,,,,,,,,
,,1,5,,,,,,,3,6,4,stim/64.jpeg,Instruments,1,stim/objects/Instruments/tuba2.png,0.9,1,-0.2,0.15,left,18,2020-12-17_07h10.06.658,premup-three_ses-01_part-01_label-phase1,3.2.4,Linux x86_64,60,left,0.811999798,4,0,4,0,1,3,1,0,240,235,1,239,,,,,,,,,,,,,,,,,,
,,1,6,,,,,,,1,1,1,stim/11.jpeg,HouseObjects,2,stim/objects/HouseObjects/recyclingbin.png,0.5,2,0.2,0.15,right,18,2020-12-17_07h10.06.658,premup-three_ses-01_part-01_label-phase1,3.2.4,Linux x86_64,60,right,1.059999943,4,0,4,0,1,3,1,0,240,28,1,239,,,,,,,,,,,,,,,,,,
,,1,7,,,,,,,1,2,2,stim/22.jpeg,Instruments,1,stim/objects/Instruments/speaker.png,0.5,4,0.2,-0.15,left,18,2020-12-17_07h10.06.658,premup-three_ses-01_part-01_label-phase1,3.2.4,Linux x86_64,60,left,1.009000063,4,0,4,0,1,3,1,0,240,41,1,239,,,,,,,,,,,,,,,,,,
,,1,8,,,,,,,3,5,4,stim/54.jpeg,HouseObjects,2,stim/objects/HouseObjects/sponge2.png,0.9,3,-0.2,-0.15,right,18,2020-12-17_07h10.06.658,premup-three_ses-01_part-01_label-phase1,3.2.4,Linux x86_64,60,right,0.691999912,4,0,4,0,1,3,1,0,240,175,1,239,,,,,,,,,,,,,,,,,,
,,0,9,,,,,,,2,3,3,stim/33.jpeg,HouseObjects,2,stim/objects/HouseObjects/thermometer.png,0.7,2,0.2,0.15,right,18,2020-12-17_07h10.06.658,premup-three_ses-01_part-01_label-phase1,3.2.4,Linux x86_64,60,left,1.332999945,4,0,4,0,1,3,1,0,240,110,1,239,,,,,,,,,,,,,,,,,,
,,1,10,,,,,,,1,1,2,stim/12.jpeg,Instruments,1,stim/objects/Instruments/pipepiano.png,0.5,4,0.2,-0.15,left,18,2020-12-17_07h10.06.658,premup-three_ses-01_part-01_label-phase1,3.2.4,Linux x86_64,60,left,1.00999999,4,0,4,0,1,3,1,0,240,17,1,239,,,,,,,,,,,,,,,,,,
,,1,11,,,,,,,3,6,2,stim/62.jpeg,Instruments,1,stim/objects/Instruments/trombone2.png,0.9,1,-0.2,0.15,left,18,2020-12-17_07h10.06.658,premup-three_ses-01_part-01_label-phase1,3.2.4,Linux x86_64,60,left,1.058000088,4,0,4,0,1,3,1,0,240,213,1,239,,,,,,,,,,,,,,,,,,
,,0,12,,,,,,,2,3,1,stim/31.jpeg,Instruments,1,stim/objects/Instruments/triangle.png,0.3,3,-0.2,-0.15,left,18,2020-12-17_07h10.06.658,premup-three_ses-01_part-01_label-phase1,3.2.4,Linux x86_64,60,right,1.464999914,4,0,4,0,1,3,1,0,240,88,1,239,,,,,,,,,,,,,,,,,,
,,1,13,,,,,,,3,5,4,stim/54.jpeg,HouseObjects,2,stim/objects/HouseObjects/sponge2.png,0.9,1,-0.2,0.15,right,18,2020-12-17_07h10.06.658,premup-three_ses-01_part-01_label-phase1,3.2.4,Linux x86_64,60,right,0.672999859,4,0,4,0,1,3,1,0,240,167,1,239,,,,,,,,,,,,,,,,,,
,,1,14,,,,,,,1,1,4,stim/14.jpeg,Instruments,1,stim/objects/Instruments/record_player.png,0.5,4,0.2,-0.15,left,18,2020-12-17_07h10.06.658,premup-three_ses-01_part-01_label-phase1,3.2.4,Linux x86_64,60,left,0.888000011,4,0,4,0,1,3,1,0,240,3,1,239,,,,,,,,,,,,,,,,,,
,,1,15,,,,,,,3,6,4,stim/64.jpeg,Instruments,1,stim/objects/Instruments/tuba2.png,0.9,3,-0.2,-0.15,left,18,2020-12-17_07h10.06.658,premup-three_ses-01_part-01_label-phase1,3.2.4,Linux x86_64,60,left,0.77699995,4,0,4,0,1,3,1,0,240,215,1,239,,,,,,,,,,,,,,,,,,
,,1,16,,,,,,,3,6,3,stim/63.jpeg,Instruments,1,stim/objects/Instruments/trumpet2.png,0.9,3,-0.2,-0.15,left,18,2020-12-17_07h10.06.658,premup-three_ses-01_part-01_label-phase1,3.2.4,Linux x86_64,60,left,0.661999941,4,0,4,0,1,3,1,0,240,206,1,239,,,,,,,,,,,,,,,,,,
,,1,17,,,,,,,3,5,4,stim/54.jpeg,HouseObjects,2,stim/objects/HouseObjects/sponge2.png,0.9,3,-0.2,-0.15,right,18,2020-12-17_07h10.06.658,premup-three_ses-01_part-01_label-phase1,3.2.4,Linux x86_64,60,right,0.712000132,4,0,4,0,1,3,1,0,240,179,1,239,,,,,,,,,,,,,,,,,,
,,1,18,,,,,,,2,4,1,stim/41.jpeg,Instruments,1,stim/objects/Instruments/panflute2.png,0.7,3,-0.2,-0.15,left,18,2020-12-17_07h10.06.658,premup-three_ses-01_part-01_label-phase1,3.2.4,Linux x86_64,60,left,1.045999765,4,0,4,0,1,3,1,0,240,136,1,239,,,,,,,,,,,,,,,,,,
,,0,19,,,,,,,1,2,4,stim/24.jpeg,Instruments,1,stim/objects/Instruments/timbal.png,0.5,3,-0.2,-0.15,left,18,2020-12-17_07h10.06.658,premup-three_ses-01_part-01_label-phase1,3.2.4,Linux x86_64,60,right,1.507999897,4,0,4,0,1,3,1,0,240,47,1,239,,,,,,,,,,,,,,,,,,
,,1,20,,,,,,,3,6,2,stim/62.jpeg,Instruments,1,stim/objects/Instruments/trombone2.png,0.9,1,-0.2,0.15,left,18,2020-12-17_07h10.06.658,premup-three_ses-01_part-01_label-phase1,3.2.4,Linux x86_64,60,left,0.802999973,4,0,4,0,1,3,1,0,240,201,1,239,,,,,,,,,,,,,,,,,,
,,1,21,,,,,,,3,5,2,stim/52.jpeg,HouseObjects,2,stim/objects/HouseObjects/saw2.png,0.9,1,-0.2,0.15,right,18,2020-12-17_07h10.06.658,premup-three_ses-01_part-01_label-phase1,3.2.4,Linux x86_64,60,right,0.642999887,4,0,4,0,1,3,1,0,240,177,1,239,,,,,,,,,,,,,,,,,,
,,0,22,,,,,,,3,6,3,stim/63.jpeg,HouseObjects,2,stim/objects/HouseObjects/thermometer2.png,0.1,4,0.2,-0.15,right,18,2020-12-17_07h10.06.658,premup-three_ses-01_part-01_label-phase1,3.2.4,Linux x86_64,60,left,0.700999975,4,0,4,0,1,3,1,0,240,238,1,239,,,,,,,,,,,,,,,,,,
,,1,23,,,,,,,3,6,3,stim/63.jpeg,Instruments,1,stim/objects/Instruments/trumpet2.png,0.9,1,-0.2,0.15,left,18,2020-12-17_07h10.06.658,premup-three_ses-01_part-01_label-phase1,3.2.4,Linux x86_64,60,left,0.940999746,4,0,4,0,1,3,1,0,240,222,1,239,,,,,,,,,,,,,,,,,,
,,0,24,,,,,,,1,1,3,stim/13.jpeg,Instruments,1,stim/objects/Instruments/record.png,0.5,1,-0.2,0.15,left,18,2020-12-17_07h10.06.658,premup-three_ses-01_part-01_label-phase1,3.2.4,Linux x86_64,60,right,1.069000006,4,0,4,0,1,3,1,0,240,18,1,239,,,,,,,,,,,,,,,,,,
,,1,25,,,,,,,2,4,4,stim/44.jpeg,Instruments,1,stim/objects/Instruments/record_player2.png,0.7,4,0.2,-0.15,left,18,2020-12-17_07h10.06.658,premup-three_ses-01_part-01_label-phase1,3.2.4,Linux x86_64,60,left,1.072999954,4,0,4,0,1,3,1,0,240,135,1,239,,,,,,,,,,,,,,,,,,
,,0,26,,,,,,,1,2,4,stim/24.jpeg,HouseObjects,2,stim/objects/HouseObjects/sponge.png,0.5,2,0.2,0.15,right,18,2020-12-17_07h10.06.658,premup-three_ses-01_part-01_label-phase1,3.2.4,Linux x86_64,60,left,0.809999943,4,0,4,0,1,3,1,0,240,71,1,239,,,,,,,,,,,,,,,,,,
,,1,27,,,,,,,1,2,4,stim/24.jpeg,HouseObjects,2,stim/objects/HouseObjects/sponge.png,0.5,2,0.2,0.15,right,18,2020-12-17_07h10.06.658,premup-three_ses-01_part-01_label-phase1,3.2.4,Linux x86_64,60,right,0.79399991,4,0,4,0,1,3,1,0,240,79,1,239,,,,,,,,,,,,,,,,,,
,,1,28,,,,,,,2,4,3,stim/43.jpeg,Instruments,1,stim/objects/Instruments/record2.png,0.7,4,0.2,-0.15,left,18,2020-12-17_07h10.06.658,premup-three_ses-01_part-01_label-phase1,3.2.4,Linux x86_64,60,left,0.825999975,4,0,4,0,1,3,1,0,240,130,1,239,,,,,,,,,,,,,,,,,,
,,0,29,,,,,,,1,2,4,stim/24.jpeg,HouseObjects,2,stim/objects/HouseObjects/sponge.png,0.5,1,-0.2,0.15,right,18,2020-12-17_07h10.06.658,premup-three_ses-01_part-01_label-phase1,3.2.4,Linux x86_64,60,left,0.901000023,4,0,4,0,1,3,1,0,240,75,1,239,,,,,,,,,,,,,,,,,,
,,0,30,,,,,,,1,1,2,stim/12.jpeg,HouseObjects,2,stim/objects/HouseObjects/remote.png,0.5,2,0.2,0.15,right,18,2020-12-17_07h10.06.658,premup-three_ses-01_part-01_label-phase1,3.2.4,Linux x86_64,60,left,0.990999937,4,0,4,0,1,3,1,0,240,21,1,239,,,,,,,,,,,,,,,,,,
,,0,31,,,,,,,1,2,2,stim/22.jpeg,HouseObjects,2,stim/objects/HouseObjects/saw.png,0.5,2,0.2,0.15,right,18,2020-12-17_07h10.06.658,premup-three_ses-01_part-01_label-phase1,3.2.4,Linux x86_64,60,left,1.15899992,4,0,4,0,1,3,1,0,240,65,1,239,,,,,,,,,,,,,,,,,,
,,1,32,,,,,,,1,1,2,stim/12.jpeg,Instruments,1,stim/objects/Instruments/pipepiano.png,0.5,4,0.2,-0.15,left,18,2020-12-17_07h10.06.658,premup-three_ses-01_part-01_label-phase1,3.2.4,Linux x86_64,60,left,0.882999897,4,0,4,0,1,3,1,0,240,1,1,239,,,,,,,,,,,,,,,,,,
,,1,33,,,,,,,2,4,2,stim/42.jpeg,Instruments,1,stim/objects/Instruments/pipepiano2.png,0.7,3,-0.2,-0.15,left,18,2020-12-17_07h10.06.658,premup-three_ses-01_part-01_label-phase1,3.2.4,Linux x86_64,60,left,1.439999819,4,0,4,0,1,3,1,0,240,141,1,239,,,,,,,,,,,,,,,,,,
,,1,34,,,,,,,1,1,4,stim/14.jpeg,HouseObjects,2,stim/objects/HouseObjects/rug.png,0.5,2,0.2,0.15,right,18,2020-12-17_07h10.06.658,premup-three_ses-01_part-01_label-phase1,3.2.4,Linux x86_64,60,right,1.055999994,4,0,4,0,1,3,1,0,240,23,1,239,,,,,,,,,,,,,,,,,,
,,1,35,,,,,,,1,1,2,stim/12.jpeg,Instruments,1,stim/objects/Instruments/pipepiano.png,0.5,1,-0.2,0.15,left,18,2020-12-17_07h10.06.658,premup-three_ses-01_part-01_label-phase1,3.2.4,Linux x86_64,60,left,0.916999817,4,0,4,0,1,3,1,0,240,13,1,239,,,,,,,,,,,,,,,,,,
,,1,36,,,,,,,3,6,1,stim/61.jpeg,Instruments,1,stim/objects/Instruments/triangle2.png,0.9,2,0.2,0.15,left,18,2020-12-17_07h10.06.658,premup-three_ses-01_part-01_label-phase1,3.2.4,Linux x86_64,60,left,1.093999863,4,0,4,0,1,3,1,0,240,208,1,239,,,,,,,,,,,,,,,,,,
,,0,37,,,,,,,1,1,3,stim/13.jpeg,Instruments,1,stim/objects/Instruments/record.png,0.5,3,-0.2,-0.15,left,18,2020-12-17_07h10.06.658,premup-three_ses-01_part-01_label-phase1,3.2.4,Linux x86_64,60,,,4,0,4,0,1,3,1,0,240,10,1,239,,,,,,,,,,,,,,,,,,
,,1,38,,,,,,,2,3,4,stim/34.jpeg,HouseObjects,2,stim/objects/HouseObjects/thread.png,0.7,4,0.2,-0.15,right,18,2020-12-17_07h10.06.658,premup-three_ses-01_part-01_label-phase1,3.2.4,Linux x86_64,60,right,1.145999908,4,0,4,0,1,3,1,0,240,115,1,239,,,,,,,,,,,,,,,,,,
,,1,39,,,,,,,3,5,4,stim/54.jpeg,HouseObjects,2,stim/objects/HouseObjects/sponge2.png,0.9,2,0.2,0.15,right,18,2020-12-17_07h10.06.658,premup-three_ses-01_part-01_label-phase1,3.2.4,Linux x86_64,60,right,0.743999958,4,0,4,0,1,3,1,0,240,195,1,239,,,,,,,,,,,,,,,,,,
,,0,40,,,,,,,1,1,1,stim/11.jpeg,HouseObjects,2,stim/objects/HouseObjects/recyclingbin.png,0.5,2,0.2,0.15,right,18,2020-12-17_07h10.06.658,premup-three_ses-01_part-01_label-phase1,3.2.4,Linux x86_64,60,left,1.383999825,4,0,4,0,1,3,1,0,240,24,1,239,,,,,,,,,,,,,,,,,,
,,0,41,,,,,,,2,3,4,stim/34.jpeg,HouseObjects,2,stim/objects/HouseObjects/thread.png,0.7,2,0.2,0.15,right,18,2020-12-17_07h10.06.658,premup-three_ses-01_part-01_label-phase1,3.2.4,Linux x86_64,60,left,1,4,0,4,0,1,3,1,0,240,111,1,239,,,,,,,,,,,,,,,,,,
,,1,42,,,,,,,1,2,2,stim/22.jpeg,Instruments,1,stim/objects/Instruments/speaker.png,0.5,4,0.2,-0.15,left,18,2020-12-17_07h10.06.658,premup-three_ses-01_part-01_label-phase1,3.2.4,Linux x86_64,60,left,0.98300004,4,0,4,0,1,3,1,0,240,49,1,239,,,,,,,,,,,,,,,,,,
,,1,43,,,,,,,2,4,2,stim/42.jpeg,Instruments,1,stim/objects/Instruments/pipepiano2.png,0.7,4,0.2,-0.15,left,18,2020-12-17_07h10.06.658,premup-three_ses-01_part-01_label-phase1,3.2.4,Linux x86_64,60,left,1.48300004,4,0,4,0,1,3,1,0,240,145,1,239,,,,,,,,,,,,,,,,,,
,,0,44,,,,,,,3,6,4,stim/64.jpeg,HouseObjects,2,stim/objects/HouseObjects/thread2.png,0.1,4,0.2,-0.15,right,18,2020-12-17_07h10.06.658,premup-three_ses-01_part-01_label-phase1,3.2.4,Linux x86_64,60,left,0.713000059,4,0,4,0,1,3,1,0,240,239,1,239,,,,,,,,,,,,,,,,,,
,,0,45,,,,,,,1,1,3,stim/13.jpeg,Instruments,1,stim/objects/Instruments/record.png,0.5,2,0.2,0.15,left,18,2020-12-17_07h10.06.658,premup-three_ses-01_part-01_label-phase1,3.2.4,Linux x86_64,60,right,1.412999868,4,0,4,0,1,3,1,0,240,6,1,239,,,,,,,,,,,,,,,,,,
,,0,46,,,,,,,2,4,4,stim/44.jpeg,Instruments,1,stim/objects/Instruments/record_player2.png,0.7,1,-0.2,0.15,left,18,2020-12-17_07h10.06.658,premup-three_ses-01_part-01_label-phase1,3.2.4,Linux x86_64,60,right,1.137999773,4,0,4,0,1,3,1,0,240,143,1,239,,,,,,,,,,,,,,,,,,
,,1,47,,,,,,,1,2,4,stim/24.jpeg,Instruments,1,stim/objects/Instruments/timbal.png,0.5,2,0.2,0.15,left,18,2020-12-17_07h10.06.658,premup-three_ses-01_part-01_label-phase1,3.2.4,Linux x86_64,60,left,0.992999792,4,0,4,0,1,3,1,0,240,55,1,239,,,,,,,,,,,,,,,,,,
,,0,48,,,,,,,2,3,4,stim/34.jpeg,Instruments,1,stim/objects/Instruments/tuba.png,0.3,3,-0.2,-0.15,left,18,2020-12-17_07h10.06.658,premup-three_ses-01_part-01_label-phase1,3.2.4,Linux x86_64,60,right,1.023000002,4,0,4,0,1,3,1,0,240,83,1,239,,,,,,,,,,,,,,,,,,
,,1,49,,,,,,,2,3,3,stim/33.jpeg,HouseObjects,2,stim/objects/HouseObjects/thermometer.png,0.7,2,0.2,0.15,right,18,2020-12-17_07h10.06.658,premup-three_ses-01_part-01_label-phase1,3.2.4,Linux x86_64,60,right,1.54399991,4,0,4,0,1,3,1,0,240,94,1,239,,,,,,,,,,,,,,,,,,
,,0,50,,,,,,,1,1,1,stim/11.jpeg,Instruments,1,stim/objects/Instruments/panflute.png,0.5,1,-0.2,0.15,left,18,2020-12-17_07h10.06.658,premup-three_ses-01_part-01_label-phase1,3.2.4,Linux x86_64,60,right,1.134000063,4,0,4,0,1,3,1,0,240,4,1,239,,,,,,,,,,,,,,,,,,
,,0,51,,,,,,,1,1,3,stim/13.jpeg,HouseObjects,2,stim/objects/HouseObjects/rubbergloves.png,0.5,3,-0.2,-0.15,right,18,2020-12-17_07h10.06.658,premup-three_ses-01_part-01_label-phase1,3.2.4,Linux x86_64,60,left,1.183999777,4,0,4,0,1,3,1,0,240,34,1,239,,,,,,,,,,,,,,,,,,
,,1,52,,,,,,,2,4,1,stim/41.jpeg,Instruments,1,stim/objects/Instruments/panflute2.png,0.7,1,-0.2,0.15,left,18,2020-12-17_07h10.06.658,premup-three_ses-01_part-01_label-phase1,3.2.4,Linux x86_64,60,left,1.160999775,4,0,4,0,1,3,1,0,240,144,1,239,,,,,,,,,,,,,,,,,,
,,1,53,,,,,,,3,6,1,stim/61.jpeg,Instruments,1,stim/objects/Instruments/triangle2.png,0.9,3,-0.2,-0.15,left,18,2020-12-17_07h10.06.658,premup-three_ses-01_part-01_label-phase1,3.2.4,Linux x86_64,60,left,0.848999977,4,0,4,0,1,3,1,0,240,212,1,239,,,,,,,,,,,,,,,,,,
,,1,54,,,,,,,3,6,1,stim/61.jpeg,Instruments,1,stim/objects/Instruments/triangle2.png,0.9,2,0.2,0.15,left,18,2020-12-17_07h10.06.658,premup-three_ses-01_part-01_label-phase1,3.2.4,Linux x86_64,60,left,0.776000023,4,0,4,0,1,3,1,0,240,216,1,239,,,,,,,,,,,,,,,,,,
,,1,55,,,,,,,3,5,1,stim/51.jpeg,HouseObjects,2,stim/objects/HouseObjects/safetypin2.png,0.9,2,0.2,0.15,right,18,2020-12-17_07h10.06.658,premup-three_ses-01_part-01_label-phase1,3.2.4,Linux x86_64,60,right,0.703000069,4,0,4,0,1,3,1,0,240,164,1,239,,,,,,,,,,,,,,,,,,
,,1,56,,,,,,,3,5,2,stim/52.jpeg,HouseObjects,2,stim/objects/HouseObjects/saw2.png,0.9,4,0.2,-0.15,right,18,2020-12-17_07h10.06.658,premup-three_ses-01_part-01_label-phase1,3.2.4,Linux x86_64,60,right,0.662999868,4,0,4,0,1,3,1,0,240,181,1,239,,,,,,,,,,,,,,,,,,
,,0,57,,,,,,,2,4,3,stim/43.jpeg,Instruments,1,stim/objects/Instruments/record2.png,0.7,1,-0.2,0.15,left,18,2020-12-17_07h10.06.658,premup-three_ses-01_part-01_label-phase1,3.2.4,Linux x86_64,60,right,0.390999794,4,0,4,0,1,3,1,0,240,142,1,239,,,,,,,,,,,,,,,,,,
,,0,58,,,,,,,1,2,1,stim/21.jpeg,HouseObjects,2,stim/objects/HouseObjects/safetypin.png,0.5,4,0.2,-0.15,right,18,2020-12-17_07h10.06.658,premup-three_ses-01_part-01_label-phase1,3.2.4,Linux x86_64,60,left,0.924000025,4,0,4,0,1,3,1,0,240,64,1,239,,,,,,,,,,,,,,,,,,
,,0,59,,,,,,,1,2,3,stim/23.jpeg,HouseObjects,2,stim/objects/HouseObjects/scale.png,0.5,3,-0.2,-0.15,right,18,2020-12-17_07h10.06.658,premup-three_ses-01_part-01_label-phase1,3.2.4,Linux x86_64,60,left,0.81099987,4,0,4,0,1,3,1,0,240,62,1,239,,,,,,,,,,,,,,,,,,
,,1,60,,,,,,,2,4,2,stim/42.jpeg,Instruments,1,stim/objects/Instruments/pipepiano2.png,0.7,3,-0.2,-0.15,left,18,2020-12-17_07h10.06.658,premup-three_ses-01_part-01_label-phase1,3.2.4,Linux x86_64,60,left,1.287999868,4,0,4,0,1,3,1,0,240,121,1,239,,,,,,,,,,,,,,,,,,
,,1,61,,,,,,,3,6,3,stim/63.jpeg,Instruments,1,stim/objects/Instruments/trumpet2.png,0.9,3,-0.2,-0.15,left,18,2020-12-17_07h10.06.658,premup-three_ses-01_part-01_label-phase1,3.2.4,Linux x86_64,60,left,0.663999796,4,0,4,0,1,3,1,0,240,218,1,239,,,,,,,,,,,,,,,,,,
,,1,62,,,,,,,1,2,3,stim/23.jpeg,HouseObjects,2,stim/objects/HouseObjects/scale.png,0.5,4,0.2,-0.15,right,18,2020-12-17_07h10.06.658,premup-three_ses-01_part-01_label-phase1,3.2.4,Linux x86_64,60,right,1.053999901,4,0,4,0,1,3,1,0,240,70,1,239,,,,,,,,,,,,,,,,,,
,,1,63,,,,,,,3,6,1,stim/61.jpeg,Instruments,1,stim/objects/Instruments/triangle2.png,0.9,4,0.2,-0.15,left,18,2020-12-17_07h10.06.658,premup-three_ses-01_part-01_label-phase1,3.2.4,Linux x86_64,60,left,0.718999863,4,0,4,0,1,3,1,0,240,224,1,239,,,,,,,,,,,,,,,,,,
,,1,64,,,,,,,1,1,4,stim/14.jpeg,Instruments,1,stim/objects/Instruments/record_player.png,0.5,1,-0.2,0.15,left,18,2020-12-17_07h10.06.658,premup-three_ses-01_part-01_label-phase1,3.2.4,Linux x86_64,60,left,1.350999832,4,0,4,0,1,3,1,0,240,19,1,239,,,,,,,,,,,,,,,,,,
,,1,65,,,,,,,2,4,3,stim/43.jpeg,Instruments,1,stim/objects/Instruments/record2.png,0.7,1,-0.2,0.15,left,18,2020-12-17_07h10.06.658,premup-three_ses-01_part-01_label-phase1,3.2.4,Linux x86_64,60,left,0.960000038,4,0,4,0,1,3,1,0,240,134,1,239,,,,,,,,,,,,,,,,,,
,,0,66,,,,,,,2,4,1,stim/41.jpeg,Instruments,1,stim/objects/Instruments/panflute2.png,0.7,2,0.2,0.15,left,18,2020-12-17_07h10.06.658,premup-three_ses-01_part-01_label-phase1,3.2.4,Linux x86_64,60,right,1.009000063,4,0,4,0,1,3,1,0,240,140,1,239,,,,,,,,,,,,,,,,,,
,,1,67,,,,,,,3,6,2,stim/62.jpeg,Instruments,1,stim/objects/Instruments/trombone2.png,0.9,1,-0.2,0.15,left,18,2020-12-17_07h10.06.658,premup-three_ses-01_part-01_label-phase1,3.2.4,Linux x86_64,60,left,0.762999773,4,0,4,0,1,3,1,0,240,217,1,239,,,,,,,,,,,,,,,,,,
,,1,68,,,,,,,2,4,4,stim/44.jpeg,Instruments,1,stim/objects/Instruments/record_player2.png,0.7,2,0.2,0.15,left,18,2020-12-17_07h10.06.658,premup-three_ses-01_part-01_label-phase1,3.2.4,Linux x86_64,60,left,1.221999884,4,0,4,0,1,3,1,0,240,147,1,239,,,,,,,,,,,,,,,,,,
,,1,69,,,,,,,1,1,4,stim/14.jpeg,Instruments,1,stim/objects/Instruments/record_player.png,0.5,4,0.2,-0.15,left,18,2020-12-17_07h10.06.658,premup-three_ses-01_part-01_label-phase1,3.2.4,Linux x86_64,60,left,1.618999958,4,0,4,0,1,3,1,0,240,11,1,239,,,,,,,,,,,,,,,,,,
,,1,70,,,,,,,2,3,3,stim/33.jpeg,HouseObjects,2,stim/objects/HouseObjects/thermometer.png,0.7,1,-0.2,0.15,right,18,2020-12-17_07h10.06.658,premup-three_ses-01_part-01_label-phase1,3.2.4,Linux x86_64,60,right,1.48300004,4,0,4,0,1,3,1,0,240,98,1,239,,,,,,,,,,,,,,,,,,
,,1,71,,,,,,,2,3,2,stim/32.jpeg,Instruments,1,stim/objects/Instruments/trombone.png,0.3,2,0.2,0.15,left,18,2020-12-17_07h10.06.658,premup-three_ses-01_part-01_label-phase1,3.2.4,Linux x86_64,60,left,1.25999999,4,0,4,0,1,3,1,0,240,85,1,239,,,,,,,,,,,,,,,,,,
,,1,72,,,,,,,2,4,2,stim/42.jpeg,Instruments,1,stim/objects/Instruments/pipepiano2.png,0.7,2,0.2,0.15,left,18,2020-12-17_07h10.06.658,premup-three_ses-01_part-01_label-phase1,3.2.4,Linux x86_64,60,left,1.119999886,4,0,4,0,1,3,1,0,240,137,1,239,,,,,,,,,,,,,,,,,,
,,0,73,,,,,,,2,3,3,stim/33.jpeg,HouseObjects,2,stim/objects/HouseObjects/thermometer.png,0.7,4,0.2,-0.15,right,18,2020-12-17_07h10.06.658,premup-three_ses-01_part-01_label-phase1,3.2.4,Linux x86_64,60,left,0.754999876,4,0,4,0,1,3,1,0,240,114,1,239,,,,,,,,,,,,,,,,,,
,,1,74,,,,,,,2,3,1,stim/31.jpeg,HouseObjects,2,stim/objects/HouseObjects/spraybottle.png,0.7,2,0.2,0.15,right,18,2020-12-17_07h10.06.658,premup-three_ses-01_part-01_label-phase1,3.2.4,Linux x86_64,60,right,1.069000006,4,0,4,0,1,3,1,0,240,108,1,239,,,,,,,,,,,,,,,,,,
,,1,75,,,,,,,1,2,4,stim/24.jpeg,Instruments,1,stim/objects/Instruments/timbal.png,0.5,3,-0.2,-0.15,left,18,2020-12-17_07h10.06.658,premup-three_ses-01_part-01_label-phase1,3.2.4,Linux x86_64,60,left,0.898000002,4,0,4,0,1,3,1,0,240,43,1,239,,,,,,,,,,,,,,,,,,
,,1,76,,,,,,,3,5,2,stim/52.jpeg,HouseObjects,2,stim/objects/HouseObjects/saw2.png,0.9,3,-0.2,-0.15,right,18,2020-12-17_07h10.06.658,premup-three_ses-01_part-01_label-phase1,3.2.4,Linux x86_64,60,right,0.669999838,4,0,4,0,1,3,1,0,240,173,1,239,,,,,,,,,,,,,,,,,,
,,1,77,,,,,,,3,6,1,stim/61.jpeg,Instruments,1,stim/objects/Instruments/triangle2.png,0.9,2,0.2,0.15,left,18,2020-12-17_07h10.06.658,premup-three_ses-01_part-01_label-phase1,3.2.4,Linux x86_64,60,left,0.742999792,4,0,4,0,1,3,1,0,240,232,1,239,,,,,,,,,,,,,,,,,,
,,1,78,,,,,,,3,6,1,stim/61.jpeg,Instruments,1,stim/objects/Instruments/triangle2.png,0.9,3,-0.2,-0.15,left,18,2020-12-17_07h10.06.658,premup-three_ses-01_part-01_label-phase1,3.2.4,Linux x86_64,60,left,1.211999893,4,0,4,0,1,3,1,0,240,200,1,239,,,,,,,,,,,,,,,,,,
,,1,79,,,,,,,1,2,3,stim/23.jpeg,Instruments,1,stim/objects/Instruments/tambourine.png,0.5,3,-0.2,-0.15,left,18,2020-12-17_07h10.06.658,premup-three_ses-01_part-01_label-phase1,3.2.4,Linux x86_64,60,left,1.131999731,4,0,4,0,1,3,1,0,240,42,1,239,,,,,,,,,,,,,,,,,,
,,1,80,,,,,,,2,3,4,stim/34.jpeg,HouseObjects,2,stim/objects/HouseObjects/thread.png,0.7,4,0.2,-0.15,right,18,2020-12-17_07h10.06.658,premup-three_ses-01_part-01_label-phase1,3.2.4,Linux x86_64,60,right,1.320999861,4,0,4,0,1,3,1,0,240,95,1,239,,,,,,,,,,,,,,,,,,
,,1,81,,,,,,,3,5,4,stim/54.jpeg,HouseObjects,2,stim/objects/HouseObjects/sponge2.png,0.9,1,-0.2,0.15,right,18,2020-12-17_07h10.06.658,premup-three_ses-01_part-01_label-phase1,3.2.4,Linux x86_64,60,right,0.75999999,4,0,4,0,1,3,1,0,240,187,1,239,,,,,,,,,,,,,,,,,,
,,1,82,,,,,,,2,3,2,stim/32.jpeg,HouseObjects,2,stim/objects/HouseObjects/teapot.png,0.7,1,-0.2,0.15,right,18,2020-12-17_07h10.06.658,premup-three_ses-01_part-01_label-phase1,3.2.4,Linux x86_64,60,right,1.73300004,4,0,4,0,1,3,1,0,240,117,1,239,,,,,,,,,,,,,,,,,,
,,1,83,,,,,,,3,6,3,stim/63.jpeg,Instruments,1,stim/objects/Instruments/trumpet2.png,0.9,3,-0.2,-0.15,left,18,2020-12-17_07h10.06.658,premup-three_ses-01_part-01_label-phase1,3.2.4,Linux x86_64,60,left,0.820999861,4,0,4,0,1,3,1,0,240,230,1,239,,,,,,,,,,,,,,,,,,
,,0,84,,,,,,,1,2,1,stim/21.jpeg,HouseObjects,2,stim/objects/HouseObjects/safetypin.png,0.5,3,-0.2,-0.15,right,18,2020-12-17_07h10.06.658,premup-three_ses-01_part-01_label-phase1,3.2.4,Linux x86_64,60,left,1.170999765,4,0,4,0,1,3,1,0,240,68,1,239,,,,,,,,,,,,,,,,,,
,,0,85,,,,,,,1,1,1,stim/11.jpeg,HouseObjects,2,stim/objects/HouseObjects/recyclingbin.png,0.5,3,-0.2,-0.15,right,18,2020-12-17_07h10.06.658,premup-three_ses-01_part-01_label-phase1,3.2.4,Linux x86_64,60,left,1.154999971,4,0,4,0,1,3,1,0,240,20,1,239,,,,,,,,,,,,,,,,,,
,,1,86,,,,,,,3,5,2,stim/52.jpeg,HouseObjects,2,stim/objects/HouseObjects/saw2.png,0.9,4,0.2,-0.15,right,18,2020-12-17_07h10.06.658,premup-three_ses-01_part-01_label-phase1,3.2.4,Linux x86_64,60,right,0.663999796,4,0,4,0,1,3,1,0,240,169,1,239,,,,,,,,,,,,,,,,,,
,,1,87,,,,,,,3,6,4,stim/64.jpeg,Instruments,1,stim/objects/Instruments/tuba2.png,0.9,3,-0.2,-0.15,left,18,2020-12-17_07h10.06.658,premup-three_ses-01_part-01_label-phase1,3.2.4,Linux x86_64,60,left,0.637999773,4,0,4,0,1,3,1,0,240,227,1,239,,,,,,,,,,,,,,,,,,
,,0,88,,,,,,,3,6,2,stim/62.jpeg,HouseObjects,2,stim/objects/HouseObjects/teapot2.png,0.1,1,-0.2,0.15,right,18,2020-12-17_07h10.06.658,premup-three_ses-01_part-01_label-phase1,3.2.4,Linux x86_64,60,left,0.740999937,4,0,4,0,1,3,1,0,240,237,1,239,,,,,,,,,,,,,,,,,,
,,0,89,,,,,,,2,3,4,stim/34.jpeg,Instruments,1,stim/objects/Instruments/tuba.png,0.3,2,0.2,0.15,left,18,2020-12-17_07h10.06.658,premup-three_ses-01_part-01_label-phase1,3.2.4,Linux x86_64,60,right,1.210999966,4,0,4,0,1,3,1,0,240,87,1,239,,,,,,,,,,,,,,,,,,
,,1,90,,,,,,,3,6,4,stim/64.jpeg,Instruments,1,stim/objects/Instruments/tuba2.png,0.9,3,-0.2,-0.15,left,18,2020-12-17_07h10.06.658,premup-three_ses-01_part-01_label-phase1,3.2.4,Linux x86_64,60,left,0.843999863,4,0,4,0,1,3,1,0,240,231,1,239,,,,,,,,,,,,,,,,,,
,,0,91,,,,,,,1,1,4,stim/14.jpeg,Instruments,1,stim/objects/Instruments/record_player.png,0.5,3,-0.2,-0.15,left,18,2020-12-17_07h10.06.658,premup-three_ses-01_part-01_label-phase1,3.2.4,Linux x86_64,60,right,1.34499979,4,0,4,0,1,3,1,0,240,15,1,239,,,,,,,,,,,,,,,,,,
,,1,92,,,,,,,3,5,3,stim/53.jpeg,HouseObjects,2,stim/objects/HouseObjects/scale2.png,0.9,1,-0.2,0.15,right,18,2020-12-17_07h10.06.658,premup-three_ses-01_part-01_label-phase1,3.2.4,Linux x86_64,60,right,0.59800005,4,0,4,0,1,3,1,0,240,194,1,239,,,,,,,,,,,,,,,,,,
,,1,93,,,,,,,2,3,2,stim/32.jpeg,HouseObjects,2,stim/objects/HouseObjects/teapot.png,0.7,4,0.2,-0.15,right,18,2020-12-17_07h10.06.658,premup-three_ses-01_part-01_label-phase1,3.2.4,Linux x86_64,60,right,1.249999762,4,0,4,0,1,3,1,0,240,105,1,239,,,,,,,,,,,,,,,,,,
,,0,94,,,,,,,2,3,2,stim/32.jpeg,HouseObjects,2,stim/objects/HouseObjects/teapot.png,0.7,3,-0.2,-0.15,right,18,2020-12-17_07h10.06.658,premup-three_ses-01_part-01_label-phase1,3.2.4,Linux x86_64,60,left,0.865999937,4,0,4,0,1,3,1,0,240,113,1,239,,,,,,,,,,,,,,,,,,
,,0,95,,,,,,,1,1,4,stim/14.jpeg,HouseObjects,2,stim/objects/HouseObjects/rug.png,0.5,1,-0.2,0.15,right,18,2020-12-17_07h10.06.658,premup-three_ses-01_part-01_label-phase1,3.2.4,Linux x86_64,60,left,1.112999916,4,0,4,0,1,3,1,0,240,31,1,239,,,,,,,,,,,,,,,,,,
,,1,96,,,,,,,2,3,3,stim/33.jpeg,HouseObjects,2,stim/objects/HouseObjects/thermometer.png,0.7,1,-0.2,0.15,right,18,2020-12-17_07h10.06.658,premup-three_ses-01_part-01_label-phase1,3.2.4,Linux x86_64,60,right,1.306999922,4,0,4,0,1,3,1,0,240,106,1,239,,,,,,,,,,,,,,,,,,
,,1,97,,,,,,,1,2,3,stim/23.jpeg,Instruments,1,stim/objects/Instruments/tambourine.png,0.5,1,-0.2,0.15,left,18,2020-12-17_07h10.06.658,premup-three_ses-01_part-01_label-phase1,3.2.4,Linux x86_64,60,left,0.840999842,4,0,4,0,1,3,1,0,240,58,1,239,,,,,,,,,,,,,,,,,,
,,0,98,,,,,,,1,1,1,stim/11.jpeg,Instruments,1,stim/objects/Instruments/panflute.png,0.5,1,-0.2,0.15,left,18,2020-12-17_07h10.06.658,premup-three_ses-01_part-01_label-phase1,3.2.4,Linux x86_64,60,right,1.023000002,4,0,4,0,1,3,1,0,240,12,1,239,,,,,,,,,,,,,,,,,,
,,0,99,,,,,,,1,2,3,stim/23.jpeg,Instruments,1,stim/objects/Instruments/tambourine.png,0.5,4,0.2,-0.15,left,18,2020-12-17_07h10.06.658,premup-three_ses-01_part-01_label-phase1,3.2.4,Linux x86_64,60,right,1.14199996,4,0,4,0,1,3,1,0,240,54,1,239,,,,,,,,,,,,,,,,,,
,,0,100,,,,,,,2,4,3,stim/43.jpeg,HouseObjects,2,stim/objects/HouseObjects/rubbergloves2.png,0.3,4,0.2,-0.15,right,18,2020-12-17_07h10.06.658,premup-three_ses-01_part-01_label-phase1,3.2.4,Linux x86_64,60,left,0.990999937,4,0,4,0,1,3,1,0,240,158,1,239,,,,,,,,,,,,,,,,,,
,,1,101,,,,,,,3,5,3,stim/53.jpeg,HouseObjects,2,stim/objects/HouseObjects/scale2.png,0.9,2,0.2,0.15,right,18,2020-12-17_07h10.06.658,premup-three_ses-01_part-01_label-phase1,3.2.4,Linux x86_64,60,right,0.650000095,4,0,4,0,1,3,1,0,240,190,1,239,,,,,,,,,,,,,,,,,,
,,1,102,,,,,,,3,5,3,stim/53.jpeg,HouseObjects,2,stim/objects/HouseObjects/scale2.png,0.9,2,0.2,0.15,right,18,2020-12-17_07h10.06.658,premup-three_ses-01_part-01_label-phase1,3.2.4,Linux x86_64,60,right,0.519999981,4,0,4,0,1,3,1,0,240,186,1,239,,,,,,,,,,,,,,,,,,
,,1,103,,,,,,,3,6,3,stim/63.jpeg,Instruments,1,stim/objects/Instruments/trumpet2.png,0.9,2,0.2,0.15,left,18,2020-12-17_07h10.06.658,premup-three_ses-01_part-01_label-phase1,3.2.4,Linux x86_64,60,left,0.707000017,4,0,4,0,1,3,1,0,240,226,1,239,,,,,,,,,,,,,,,,,,
,,1,104,,,,,,,3,5,2,stim/52.jpeg,HouseObjects,2,stim/objects/HouseObjects/saw2.png,0.9,3,-0.2,-0.15,right,18,2020-12-17_07h10.06.658,premup-three_ses-01_part-01_label-phase1,3.2.4,Linux x86_64,60,right,0.846999884,4,0,4,0,1,3,1,0,240,189,1,239,,,,,,,,,,,,,,,,,,
,,1,105,,,,,,,3,5,1,stim/51.jpeg,HouseObjects,2,stim/objects/HouseObjects/safetypin2.png,0.9,3,-0.2,-0.15,right,18,2020-12-17_07h10.06.658,premup-three_ses-01_part-01_label-phase1,3.2.4,Linux x86_64,60,right,0.823999882,4,0,4,0,1,3,1,0,240,172,1,239,,,,,,,,,,,,,,,,,,
,,1,106,,,,,,,1,1,3,stim/13.jpeg,Instruments,1,stim/objects/Instruments/record.png,0.5,1,-0.2,0.15,left,18,2020-12-17_07h10.06.658,premup-three_ses-01_part-01_label-phase1,3.2.4,Linux x86_64,60,left,0.967999935,4,0,4,0,1,3,1,0,240,14,1,239,,,,,,,,,,,,,,,,,,
,,1,107,,,,,,,2,3,1,stim/31.jpeg,HouseObjects,2,stim/objects/HouseObjects/spraybottle.png,0.7,3,-0.2,-0.15,right,18,2020-12-17_07h10.06.658,premup-three_ses-01_part-01_label-phase1,3.2.4,Linux x86_64,60,right,1.002000093,4,0,4,0,1,3,1,0,240,116,1,239,,,,,,,,,,,,,,,,,,
,,1,108,,,,,,,2,3,1,stim/31.jpeg,HouseObjects,2,stim/objects/HouseObjects/spraybottle.png,0.7,4,0.2,-0.15,right,18,2020-12-17_07h10.06.658,premup-three_ses-01_part-01_label-phase1,3.2.4,Linux x86_64,60,right,1.703000069,4,0,4,0,1,3,1,0,240,96,1,239,,,,,,,,,,,,,,,,,,
,,0,109,,,,,,,3,5,1,stim/51.jpeg,Instruments,1,stim/objects/Instruments/saxophone2.png,0.1,4,0.2,-0.15,left,18,2020-12-17_07h10.06.658,premup-three_ses-01_part-01_label-phase1,3.2.4,Linux x86_64,60,right,0.64199996,4,0,4,0,1,3,1,0,240,160,1,239,,,,,,,,,,,,,,,,,,
,,1,110,,,,,,,1,2,1,stim/21.jpeg,HouseObjects,2,stim/objects/HouseObjects/safetypin.png,0.5,3,-0.2,-0.15,right,18,2020-12-17_07h10.06.658,premup-three_ses-01_part-01_label-phase1,3.2.4,Linux x86_64,60,right,1.585999966,4,0,4,0,1,3,1,0,240,76,1,239,,,,,,,,,,,,,,,,,,
,,0,111,,,,,,,1,1,2,stim/12.jpeg,HouseObjects,2,stim/objects/HouseObjects/remote.png,0.5,2,0.2,0.15,right,18,2020-12-17_07h10.06.658,premup-three_ses-01_part-01_label-phase1,3.2.4,Linux x86_64,60,left,0.978999853,4,0,4,0,1,3,1,0,240,25,1,239,,,,,,,,,,,,,,,,,,
,,1,112,,,,,,,3,5,1,stim/51.jpeg,HouseObjects,2,stim/objects/HouseObjects/safetypin2.png,0.9,4,0.2,-0.15,right,18,2020-12-17_07h10.06.658,premup-three_ses-01_part-01_label-phase1,3.2.4,Linux x86_64,60,right,0.638999939,4,0,4,0,1,3,1,0,240,180,1,239,,,,,,,,,,,,,,,,,,
,,0,113,,,,,,,2,3,4,stim/34.jpeg,HouseObjects,2,stim/objects/HouseObjects/thread.png,0.7,3,-0.2,-0.15,right,18,2020-12-17_07h10.06.658,premup-three_ses-01_part-01_label-phase1,3.2.4,Linux x86_64,60,left,1.042999983,4,0,4,0,1,3,1,0,240,103,1,239,,,,,,,,,,,,,,,,,,
,,1,114,,,,,,,1,2,3,stim/23.jpeg,Instruments,1,stim/objects/Instruments/tambourine.png,0.5,4,0.2,-0.15,left,18,2020-12-17_07h10.06.658,premup-three_ses-01_part-01_label-phase1,3.2.4,Linux x86_64,60,left,0.796999931,4,0,4,0,1,3,1,0,240,46,1,239,,,,,,,,,,,,,,,,,,
,,1,115,,,,,,,1,1,2,stim/12.jpeg,Instruments,1,stim/objects/Instruments/pipepiano.png,0.5,3,-0.2,-0.15,left,18,2020-12-17_07h10.06.658,premup-three_ses-01_part-01_label-phase1,3.2.4,Linux x86_64,60,left,1.047999859,4,0,4,0,1,3,1,0,240,9,1,239,,,,,,,,,,,,,,,,,,
,,0,116,,,,,,,1,1,1,stim/11.jpeg,Instruments,1,stim/objects/Instruments/panflute.png,0.5,4,0.2,-0.15,left,18,2020-12-17_07h10.06.658,premup-three_ses-01_part-01_label-phase1,3.2.4,Linux x86_64,60,right,0.811000109,4,0,4,0,1,3,1,0,240,0,1,239,,,,,,,,,,,,,,,,,,
,,1,117,,,,,,,3,5,2,stim/52.jpeg,HouseObjects,2,stim/objects/HouseObjects/saw2.png,0.9,2,0.2,0.15,right,18,2020-12-17_07h10.06.658,premup-three_ses-01_part-01_label-phase1,3.2.4,Linux x86_64,60,right,0.673999786,4,0,4,0,1,3,1,0,240,165,1,239,,,,,,,,,,,,,,,,,,
,,1,118,,,,,,,1,2,1,stim/21.jpeg,Instruments,1,stim/objects/Instruments/saxophone.png,0.5,3,-0.2,-0.15,left,18,2020-12-17_07h10.06.658,premup-three_ses-01_part-01_label-phase1,3.2.4,Linux x86_64,60,left,0.772000074,4,0,4,0,1,3,1,0,240,48,1,239,,,,,,,,,,,,,,,,,,
,,1,119,,,,,,,3,5,1,stim/51.jpeg,HouseObjects,2,stim/objects/HouseObjects/safetypin2.png,0.9,4,0.2,-0.15,right,18,2020-12-17_07h10.06.658,premup-three_ses-01_part-01_label-phase1,3.2.4,Linux x86_64,60,right,0.595999956,4,0,4,0,1,3,1,0,240,184,1,239,,,,,,,,,,,,,,,,,,
,,1,120,,,,,,,3,5,4,stim/54.jpeg,HouseObjects,2,stim/objects/HouseObjects/sponge2.png,0.9,1,-0.2,0.15,right,18,2020-12-17_07h10.06.658,premup-three_ses-01_part-01_label-phase1,3.2.4,Linux x86_64,60,right,1.49000001,4,0,4,0,1,3,1,0,240,183,1,239,,,,,,,,,,,,,,,,,,
,,1,121,,,,,,,2,3,3,stim/33.jpeg,Instruments,1,stim/objects/Instruments/trumpet.png,0.3,3,-0.2,-0.15,left,18,2020-12-17_07h10.06.658,premup-three_ses-01_part-01_label-phase1,3.2.4,Linux x86_64,60,left,0.948999882,4,0,4,0,1,3,1,0,240,82,1,239,,,,,,,,,,,,,,,,,,
,,1,122,,,,,,,1,2,1,stim/21.jpeg,Instruments,1,stim/objects/Instruments/saxophone.png,0.5,4,0.2,-0.15,left,18,2020-12-17_07h10.06.658,premup-three_ses-01_part-01_label-phase1,3.2.4,Linux x86_64,60,left,1.117999792,4,0,4,0,1,3,1,0,240,56,1,239,,,,,,,,,,,,,,,,,,
,,1,123,,,,,,,2,3,3,stim/33.jpeg,Instruments,1,stim/objects/Instruments/trumpet.png,0.3,4,0.2,-0.15,left,18,2020-12-17_07h10.06.658,premup-three_ses-01_part-01_label-phase1,3.2.4,Linux x86_64,60,left,1.201999903,4,0,4,0,1,3,1,0,240,90,1,239,,,,,,,,,,,,,,,,,,
,,1,124,,,,,,,3,5,4,stim/54.jpeg,HouseObjects,2,stim/objects/HouseObjects/sponge2.png,0.9,4,0.2,-0.15,right,18,2020-12-17_07h10.06.658,premup-three_ses-01_part-01_label-phase1,3.2.4,Linux x86_64,60,right,0.691999912,4,0,4,0,1,3,1,0,240,171,1,239,,,,,,,,,,,,,,,,,,
