id_acc,key_resp_id.keys,key_resp_id.rt,key_resp_conf.keys,key_resp_conf.rt,assoc_acc,key_resp_assoc.keys,key_resp_assoc.rt,loc_acc,key_resp_loc.keys,key_resp_loc.rt,task_innerloop.thisRepN,task_innerloop.thisTrialN,task_innerloop.thisN,task_innerloop.thisIndex,task_innerloop.ran,task_innerloop.order,context_type,object_cat,PE_level,OvsN,obj_file,scn_file,corr_scn_cat,assoc_file,corr_scn_inst,corr_loc,participant,date,expName,psychopyVersion,OS,frameRate
1,right,4.020999908,3,3.396999836,0,4,17.90199995,0,4,5.003999949,1,0,200,67,1,199,3,1,0.1,1,stim/objects/Instruments/harp4.png,stim/54.jpeg,5,stim/5.png,4,2,18,2020-12-18_09h26.55.461,premup-three_ses-02_part-03_label-phase3,3.2.4,Linux x86_64,60
1,right,14.83599997,2,2.196999788,0,4,9.868999958,0,4,2.808999777,1,0,200,49,1,199,2,1,0.7,1,stim/objects/Instruments/electricguitar4.png,stim/41.jpeg,4,stim/4.png,1,3,18,2020-12-18_09h26.55.461,premup-three_ses-02_part-03_label-phase3,3.2.4,Linux x86_64,60
1,right,4.996000051,,,0,,,0,,,1,0,200,171,1,199,0,2,0,2,stim/objects/HouseObjects/pitcher.png,,0,stim/0.png,0,0,18,2020-12-18_09h26.55.461,premup-three_ses-02_part-03_label-phase3,3.2.4,Linux x86_64,60
1,right,2.03399992,,,0,,,0,,,1,0,200,123,1,199,0,1,0,2,stim/objects/Instruments/electricdrumset.png,,0,stim/0.png,0,0,18,2020-12-18_09h26.55.461,premup-three_ses-02_part-03_label-phase3,3.2.4,Linux x86_64,60
1,right,7.864000082,2,6.539000034,0,4,9.680999994,0,4,5.205999851,1,0,200,89,1,199,3,1,0.9,1,stim/objects/Instruments/xylophone4.png,stim/62.jpeg,6,stim/6.png,2,4,18,2020-12-18_09h26.55.461,premup-three_ses-02_part-03_label-phase3,3.2.4,Linux x86_64,60
1,left,1.670999765,4,1.145999908,0,3,11.96099973,0,4,6.883999825,1,0,200,75,1,199,3,2,0.9,1,stim/objects/HouseObjects/glassmop4.png,stim/54.jpeg,5,stim/5.png,4,3,18,2020-12-18_09h26.55.461,premup-three_ses-02_part-03_label-phase3,3.2.4,Linux x86_64,60
1,right,1.778999805,,,0,,,0,,,1,0,200,176,1,199,0,2,0,2,stim/objects/HouseObjects/ballofstring2.png,,0,stim/0.png,0,0,18,2020-12-18_09h26.55.461,premup-three_ses-02_part-03_label-phase3,3.2.4,Linux x86_64,60
1,right,1.405999899,,,0,,,0,,,1,0,200,120,1,199,0,1,0,2,stim/objects/Instruments/cymbal.png,,0,stim/0.png,0,0,18,2020-12-18_09h26.55.461,premup-three_ses-02_part-03_label-phase3,3.2.4,Linux x86_64,60
1,left,1.031999826,4,2.170000076,0,1,16.02200007,0,1,6.653000116,1,0,200,99,1,199,3,2,0.1,1,stim/objects/HouseObjects/wateringcan4.png,stim/64.jpeg,6,stim/6.png,4,2,18,2020-12-18_09h26.55.461,premup-three_ses-02_part-03_label-phase3,3.2.4,Linux x86_64,60
1,right,5.782999992,4,1.093999863,0,3,2.161000013,0,1,4.368000031,1,0,200,48,1,199,2,1,0.7,1,stim/objects/Instruments/electricdrumset4.png,stim/44.jpeg,4,stim/4.png,4,3,18,2020-12-18_09h26.55.461,premup-three_ses-02_part-03_label-phase3,3.2.4,Linux x86_64,60
1,right,1.513999939,,,0,,,0,,,1,0,200,148,1,199,0,1,0,2,stim/objects/Instruments/metronome.png,,0,stim/0.png,0,0,18,2020-12-18_09h26.55.461,premup-three_ses-02_part-03_label-phase3,3.2.4,Linux x86_64,60
1,right,1.288000107,,,0,,,0,,,1,0,200,149,1,199,0,1,0,2,stim/objects/Instruments/musicsheet.png,,0,stim/0.png,0,0,18,2020-12-18_09h26.55.461,premup-three_ses-02_part-03_label-phase3,3.2.4,Linux x86_64,60
1,left,1.542000055,4,1.707999945,0,3,9.846999884,0,2,1.752999783,1,0,200,6,1,199,1,1,0.5,1,stim/objects/HouseObjects/hairdryer3.png,stim/13.jpeg,1,stim/1.png,3,1,18,2020-12-18_09h26.55.461,premup-three_ses-02_part-03_label-phase3,3.2.4,Linux x86_64,60
1,right,1.639999866,,,0,,,0,,,1,0,200,115,1,199,0,2,0,2,stim/objects/HouseObjects/blender.png,,0,stim/0.png,0,0,18,2020-12-18_09h26.55.461,premup-three_ses-02_part-03_label-phase3,3.2.4,Linux x86_64,60
1,left,1.125,4,1.680999994,0,2,5.403999805,0,4,4.337999821,1,0,200,88,1,199,3,1,0.9,1,stim/objects/Instruments/vuvuzela4.png,stim/61.jpeg,6,stim/6.png,1,4,18,2020-12-18_09h26.55.461,premup-three_ses-02_part-03_label-phase3,3.2.4,Linux x86_64,60
1,right,1.980999947,4,3.599999905,0,2,3.15899992,0,1,3.744999886,1,0,200,86,1,199,3,1,0.9,1,stim/objects/Instruments/oboe4.png,stim/63.jpeg,6,stim/6.png,3,1,18,2020-12-18_09h26.55.461,premup-three_ses-02_part-03_label-phase3,3.2.4,Linux x86_64,60
1,right,6.41899991,,,0,,,0,,,1,0,200,106,1,199,0,1,0,2,stim/objects/Instruments/cello.png,,0,stim/0.png,0,0,18,2020-12-18_09h26.55.461,premup-three_ses-02_part-03_label-phase3,3.2.4,Linux x86_64,60
1,right,7.307999849,,,0,,,0,,,1,0,200,193,1,199,0,2,0,2,stim/objects/HouseObjects/bucket2.png,,0,stim/0.png,0,0,18,2020-12-18_09h26.55.461,premup-three_ses-02_part-03_label-phase3,3.2.4,Linux x86_64,60
1,right,1.843999863,,,0,,,0,,,1,0,200,190,1,199,0,2,0,2,stim/objects/HouseObjects/blender2.png,,0,stim/0.png,0,0,18,2020-12-18_09h26.55.461,premup-three_ses-02_part-03_label-phase3,3.2.4,Linux x86_64,60
1,left,1.167000055,4,2.686000109,0,1,6.971999884,0,2,5.346999884,1,0,200,59,1,199,2,2,0.3,1,stim/objects/HouseObjects/dishsoap4.png,stim/43.jpeg,4,stim/4.png,3,1,18,2020-12-18_09h26.55.461,premup-three_ses-02_part-03_label-phase3,3.2.4,Linux x86_64,60
1,left,2.544999838,4,1.288999796,0,3,10.11899996,0,4,2.846999884,1,0,200,81,1,199,3,1,0.9,1,stim/objects/Instruments/maraca4.png,stim/62.jpeg,6,stim/6.png,2,4,18,2020-12-18_09h26.55.461,premup-three_ses-02_part-03_label-phase3,3.2.4,Linux x86_64,60
1,left,4.617000103,4,1.281999826,0,1,4.096999884,0,4,3.365999937,1,0,200,82,1,199,3,1,0.9,1,stim/objects/Instruments/marimba4.png,stim/63.jpeg,6,stim/6.png,3,3,18,2020-12-18_09h26.55.461,premup-three_ses-02_part-03_label-phase3,3.2.4,Linux x86_64,60
1,right,0.978999853,,,0,,,0,,,1,0,200,143,1,199,0,1,0,2,stim/objects/Instruments/hihat.png,,0,stim/0.png,0,0,18,2020-12-18_09h26.55.461,premup-three_ses-02_part-03_label-phase3,3.2.4,Linux x86_64,60
1,right,9.222999811,,,0,,,0,,,1,0,200,150,1,199,0,2,0,2,stim/objects/HouseObjects/glassmop.png,,0,stim/0.png,0,0,18,2020-12-18_09h26.55.461,premup-three_ses-02_part-03_label-phase3,3.2.4,Linux x86_64,60
1,left,0.999000072,4,1.588000059,0,1,5.265999794,0,1,5.225999832,1,0,200,72,1,199,3,2,0.9,1,stim/objects/HouseObjects/flyswatter4.png,stim/51.jpeg,5,stim/5.png,1,1,18,2020-12-18_09h26.55.461,premup-three_ses-02_part-03_label-phase3,3.2.4,Linux x86_64,60
1,left,1.48699975,4,0.92599988,0,3,4.4599998,0,2,2.012999773,1,0,200,7,1,199,1,1,0.5,1,stim/objects/HouseObjects/handbrush3.png,stim/14.jpeg,1,stim/1.png,4,2,18,2020-12-18_09h26.55.461,premup-three_ses-02_part-03_label-phase3,3.2.4,Linux x86_64,60
1,left,1.424999952,4,3.125,0,1,7.454999924,0,4,2.769999981,1,0,200,62,1,199,3,1,0.1,1,stim/objects/Instruments/frenchhorn4.png,stim/53.jpeg,5,stim/5.png,3,4,18,2020-12-18_09h26.55.461,premup-three_ses-02_part-03_label-phase3,3.2.4,Linux x86_64,60
1,right,1.180999994,,,0,,,0,,,1,0,200,145,1,199,0,1,0,2,stim/objects/Instruments/laud.png,,0,stim/0.png,0,0,18,2020-12-18_09h26.55.461,premup-three_ses-02_part-03_label-phase3,3.2.4,Linux x86_64,60
1,left,0.873000145,4,1.319999695,0,2,8.460999966,0,4,2.040999889,1,0,200,17,1,199,1,2,0.5,1,stim/objects/HouseObjects/knife3.png,stim/22.jpeg,2,stim/2.png,2,2,18,2020-12-18_09h26.55.461,premup-three_ses-02_part-03_label-phase3,3.2.4,Linux x86_64,60
1,right,1.549000025,,,0,,,0,,,1,0,200,127,1,199,0,1,0,2,stim/objects/Instruments/frenchhorn.png,,0,stim/0.png,0,0,18,2020-12-18_09h26.55.461,premup-three_ses-02_part-03_label-phase3,3.2.4,Linux x86_64,60
1,right,1.330999851,4,2.611999989,0,2,3.165999889,0,4,3.390999794,1,0,200,64,1,199,3,1,0.1,1,stim/objects/Instruments/grandpiano4.png,stim/51.jpeg,5,stim/5.png,1,4,18,2020-12-18_09h26.55.461,premup-three_ses-02_part-03_label-phase3,3.2.4,Linux x86_64,60
1,left,0.939999819,4,1.325999975,0,4,4.852999926,0,2,1.667999983,1,0,200,8,1,199,1,1,0.5,1,stim/objects/HouseObjects/handvacuum3.png,stim/11.jpeg,1,stim/1.png,1,4,18,2020-12-18_09h26.55.461,premup-three_ses-02_part-03_label-phase3,3.2.4,Linux x86_64,60
1,left,1.438999891,2,1.81799984,0,3,2.47699976,0,3,4.93599987,1,0,200,52,1,199,2,2,0.3,1,stim/objects/HouseObjects/broom4.png,stim/44.jpeg,4,stim/4.png,4,2,18,2020-12-18_09h26.55.461,premup-three_ses-02_part-03_label-phase3,3.2.4,Linux x86_64,60
1,right,0.890999794,,,0,,,0,,,1,0,200,116,1,199,0,2,0,2,stim/objects/HouseObjects/bottle.png,,0,stim/0.png,0,0,18,2020-12-18_09h26.55.461,premup-three_ses-02_part-03_label-phase3,3.2.4,Linux x86_64,60
1,right,8.108999968,1,2.599999905,0,2,1.370999813,0,3,1.141000032,1,0,200,50,1,199,2,2,0.3,1,stim/objects/HouseObjects/blender4.png,stim/42.jpeg,4,stim/4.png,2,2,18,2020-12-18_09h26.55.461,premup-three_ses-02_part-03_label-phase3,3.2.4,Linux x86_64,60
1,left,1.837999821,4,1.302999973,0,1,4.178999901,0,4,3.061000109,1,0,200,40,1,199,2,1,0.7,1,stim/objects/Instruments/bassguitar4.png,stim/44.jpeg,4,stim/4.png,4,1,18,2020-12-18_09h26.55.461,premup-three_ses-02_part-03_label-phase3,3.2.4,Linux x86_64,60
1,right,2.454999924,,,0,,,0,,,1,0,200,103,1,199,0,1,0,2,stim/objects/Instruments/banjo.png,,0,stim/0.png,0,0,18,2020-12-18_09h26.55.461,premup-three_ses-02_part-03_label-phase3,3.2.4,Linux x86_64,60
1,left,9.593999863,2,2.112999916,0,3,2.620999813,0,2,2.661999941,1,0,200,63,1,199,3,1,0.1,1,stim/objects/Instruments/gong4.png,stim/54.jpeg,5,stim/5.png,4,2,18,2020-12-18_09h26.55.461,premup-three_ses-02_part-03_label-phase3,3.2.4,Linux x86_64,60
1,right,0.829999924,4,1.900000095,0,4,1.502999783,0,3,1.243999958,1,0,200,51,1,199,2,2,0.3,1,stim/objects/HouseObjects/bottle4.png,stim/43.jpeg,4,stim/4.png,3,3,18,2020-12-18_09h26.55.461,premup-three_ses-02_part-03_label-phase3,3.2.4,Linux x86_64,60
1,left,2.284999847,1,7.355999947,0,2,1.269000053,0,4,2.427999973,1,0,200,46,1,199,2,1,0.7,1,stim/objects/Instruments/doublebass4.png,stim/42.jpeg,4,stim/4.png,2,4,18,2020-12-18_09h26.55.461,premup-three_ses-02_part-03_label-phase3,3.2.4,Linux x86_64,60
1,right,1.541999817,,,0,,,0,,,1,0,200,128,1,199,0,1,0,2,stim/objects/Instruments/gong.png,,0,stim/0.png,0,0,18,2020-12-18_09h26.55.461,premup-three_ses-02_part-03_label-phase3,3.2.4,Linux x86_64,60
1,left,1.943999767,,,0,,,0,,,1,0,200,170,1,199,0,2,0,2,stim/objects/HouseObjects/pan.png,,0,stim/0.png,0,0,18,2020-12-18_09h26.55.461,premup-three_ses-02_part-03_label-phase3,3.2.4,Linux x86_64,60
1,right,3.13499999,3,2.585999727,0,2,1.56099987,0,3,1.125,1,0,200,61,1,199,3,1,0.1,1,stim/objects/Instruments/flutetrans4.png,stim/52.jpeg,5,stim/5.png,2,4,18,2020-12-18_09h26.55.461,premup-three_ses-02_part-03_label-phase3,3.2.4,Linux x86_64,60
1,right,1.279000044,,,0,,,0,,,1,0,200,189,1,199,0,1,0,2,stim/objects/Instruments/electricguitar2.png,,0,stim/0.png,0,0,18,2020-12-18_09h26.55.461,premup-three_ses-02_part-03_label-phase3,3.2.4,Linux x86_64,60
1,right,3.896999836,2,2.113000154,0,3,3.495999813,0,3,1.285999775,1,0,200,29,1,199,2,1,0.3,1,stim/objects/Instruments/bassdrum4.png,stim/32.jpeg,3,stim/3.png,2,3,18,2020-12-18_09h26.55.461,premup-three_ses-02_part-03_label-phase3,3.2.4,Linux x86_64,60
1,right,1.147999763,,,0,,,0,,,1,0,200,126,1,199,0,1,0,2,stim/objects/Instruments/flutetrans.png,,0,stim/0.png,0,0,18,2020-12-18_09h26.55.461,premup-three_ses-02_part-03_label-phase3,3.2.4,Linux x86_64,60
1,right,6.121000051,,,0,,,0,,,1,0,200,153,1,199,0,2,0,2,stim/objects/HouseObjects/handvacuum.png,,0,stim/0.png,0,0,18,2020-12-18_09h26.55.461,premup-three_ses-02_part-03_label-phase3,3.2.4,Linux x86_64,60
1,right,0.941999912,,,0,,,0,,,1,0,200,163,1,199,0,1,0,2,stim/objects/Instruments/vuvuzela.png,,0,stim/0.png,0,0,18,2020-12-18_09h26.55.461,premup-three_ses-02_part-03_label-phase3,3.2.4,Linux x86_64,60
1,right,1.488999844,2,1.771999836,0,3,1.061999798,0,3,1.312000036,1,0,200,26,1,199,2,1,0.3,1,stim/objects/Instruments/acousticguitar4.png,stim/33.jpeg,3,stim/3.png,3,3,18,2020-12-18_09h26.55.461,premup-three_ses-02_part-03_label-phase3,3.2.4,Linux x86_64,60
1,left,1.822999954,4,1.694000006,0,2,1.760999918,0,4,12.25999999,1,0,200,13,1,199,1,2,0.5,1,stim/objects/Instruments/metronome3.png,stim/24.jpeg,2,stim/2.png,4,2,18,2020-12-18_09h26.55.461,premup-three_ses-02_part-03_label-phase3,3.2.4,Linux x86_64,60
1,right,0.912999868,,,0,,,0,,,1,0,200,180,1,199,0,1,0,2,stim/objects/Instruments/bassguitar2.png,,0,stim/0.png,0,0,18,2020-12-18_09h26.55.461,premup-three_ses-02_part-03_label-phase3,3.2.4,Linux x86_64,60
1,right,0.995999813,,,0,,,0,,,1,0,200,111,1,199,0,2,0,2,stim/objects/HouseObjects/ballofstring.png,,0,stim/0.png,0,0,18,2020-12-18_09h26.55.461,premup-three_ses-02_part-03_label-phase3,3.2.4,Linux x86_64,60
1,right,1.129999876,,,0,,,0,,,1,0,200,161,1,199,0,1,0,2,stim/objects/Instruments/oboe.png,,0,stim/0.png,0,0,18,2020-12-18_09h26.55.461,premup-three_ses-02_part-03_label-phase3,3.2.4,Linux x86_64,60
1,left,0.964999914,4,1.378999949,0,3,4.71999979,0,2,3.84100008,1,0,200,97,1,199,3,2,0.1,1,stim/objects/HouseObjects/towel4.png,stim/62.jpeg,6,stim/6.png,2,2,18,2020-12-18_09h26.55.461,premup-three_ses-02_part-03_label-phase3,3.2.4,Linux x86_64,60
1,left,1.199999809,3,4.859999895,0,1,4.595000029,0,2,1.628999949,1,0,200,84,1,199,3,1,0.9,1,stim/objects/Instruments/musicsheet4.png,stim/61.jpeg,6,stim/6.png,1,1,18,2020-12-18_09h26.55.461,premup-three_ses-02_part-03_label-phase3,3.2.4,Linux x86_64,60
1,right,6.746999979,2,1.406999826,0,2,1.171999931,0,3,1.556999922,1,0,200,14,1,199,1,2,0.5,1,stim/objects/Instruments/musicsheet3.png,stim/21.jpeg,2,stim/2.png,1,1,18,2020-12-18_09h26.55.461,premup-three_ses-02_part-03_label-phase3,3.2.4,Linux x86_64,60
1,right,1.024999857,,,0,,,0,,,1,0,200,141,1,199,0,1,0,2,stim/objects/Instruments/harmonica.png,,0,stim/0.png,0,0,18,2020-12-18_09h26.55.461,premup-three_ses-02_part-03_label-phase3,3.2.4,Linux x86_64,60
1,left,0.993999958,4,1.246999741,0,1,7.40199995,0,3,1.076999903,1,0,200,57,1,199,2,2,0.3,1,stim/objects/HouseObjects/coffee4.png,stim/41.jpeg,4,stim/4.png,1,3,18,2020-12-18_09h26.55.461,premup-three_ses-02_part-03_label-phase3,3.2.4,Linux x86_64,60
1,right,0.953000069,,,0,,,0,,,1,0,200,117,1,199,0,2,0,2,stim/objects/HouseObjects/broom.png,,0,stim/0.png,0,0,18,2020-12-18_09h26.55.461,premup-three_ses-02_part-03_label-phase3,3.2.4,Linux x86_64,60
1,left,0.872999907,4,1.240999937,0,1,5.015999794,0,2,1.895999908,1,0,200,38,1,199,2,2,0.7,1,stim/objects/HouseObjects/basket4.png,stim/32.jpeg,3,stim/3.png,2,2,18,2020-12-18_09h26.55.461,premup-three_ses-02_part-03_label-phase3,3.2.4,Linux x86_64,60
1,left,1.099999905,4,1.390999794,0,3,3.03399992,0,3,1.161000013,1,0,200,47,1,199,2,1,0.7,1,stim/objects/Instruments/drums4.png,stim/43.jpeg,4,stim/4.png,3,4,18,2020-12-18_09h26.55.461,premup-three_ses-02_part-03_label-phase3,3.2.4,Linux x86_64,60
1,left,1.279999971,4,1.553999901,0,3,16.06999993,0,1,1.039999962,1,0,200,70,1,199,3,2,0.9,1,stim/objects/HouseObjects/doormat4.png,stim/53.jpeg,5,stim/5.png,3,1,18,2020-12-18_09h26.55.461,premup-three_ses-02_part-03_label-phase3,3.2.4,Linux x86_64,60
1,right,1.009000063,,,0,,,0,,,1,0,200,139,1,199,0,2,0,2,stim/objects/HouseObjects/glass.png,,0,stim/0.png,0,0,18,2020-12-18_09h26.55.461,premup-three_ses-02_part-03_label-phase3,3.2.4,Linux x86_64,60
1,right,0.646999836,,,0,,,0,,,1,0,200,138,1,199,0,2,0,2,stim/objects/HouseObjects/garbagebin.png,,0,stim/0.png,0,0,18,2020-12-18_09h26.55.461,premup-three_ses-02_part-03_label-phase3,3.2.4,Linux x86_64,60
1,right,0.868000031,4,1.525999784,0,4,2.075000048,0,3,1.257999897,1,0,200,21,1,199,2,1,0.3,1,stim/objects/Instruments/oboe3.png,stim/32.jpeg,3,stim/3.png,2,4,18,2020-12-18_09h26.55.461,premup-three_ses-02_part-03_label-phase3,3.2.4,Linux x86_64,60
1,right,1.356999874,3,2.070999861,0,2,1.320999861,0,3,1.000999928,1,0,200,77,1,199,3,2,0.9,1,stim/objects/HouseObjects/handbrush4.png,stim/52.jpeg,5,stim/5.png,2,1,18,2020-12-18_09h26.55.461,premup-three_ses-02_part-03_label-phase3,3.2.4,Linux x86_64,60
1,right,1.023999929,,,0,,,0,,,1,0,200,172,1,199,0,2,0,2,stim/objects/HouseObjects/towel.png,,0,stim/0.png,0,0,18,2020-12-18_09h26.55.461,premup-three_ses-02_part-03_label-phase3,3.2.4,Linux x86_64,60
1,left,1.335999966,4,1.849999905,0,3,11.29699993,0,4,2.359999895,1,0,200,42,1,199,2,1,0.7,1,stim/objects/Instruments/chime4.png,stim/42.jpeg,4,stim/4.png,2,4,18,2020-12-18_09h26.55.461,premup-three_ses-02_part-03_label-phase3,3.2.4,Linux x86_64,60
1,left,1.095999956,4,1.707000017,0,3,2.598999977,0,1,5.187999964,1,0,200,11,1,199,1,2,0.5,1,stim/objects/Instruments/maraca3.png,stim/22.jpeg,2,stim/2.png,2,3,18,2020-12-18_09h26.55.461,premup-three_ses-02_part-03_label-phase3,3.2.4,Linux x86_64,60
1,right,1.034999847,,,0,,,0,,,1,0,200,165,1,199,0,1,0,2,stim/objects/Instruments/accordion2.png,,0,stim/0.png,0,0,18,2020-12-18_09h26.55.461,premup-three_ses-02_part-03_label-phase3,3.2.4,Linux x86_64,60
1,right,0.904999971,,,0,,,0,,,1,0,200,183,1,199,0,1,0,2,stim/objects/Instruments/clarinet2.png,,0,stim/0.png,0,0,18,2020-12-18_09h26.55.461,premup-three_ses-02_part-03_label-phase3,3.2.4,Linux x86_64,60
1,right,0.74000001,,,0,,,0,,,1,0,200,130,1,199,0,2,0,2,stim/objects/HouseObjects/clothesdryingrack.png,,0,stim/0.png,0,0,18,2020-12-18_09h26.55.461,premup-three_ses-02_part-03_label-phase3,3.2.4,Linux x86_64,60
1,left,1.773000002,3,1.434000015,0,1,3.853999853,0,4,0.92599988,1,0,200,53,1,199,2,2,0.3,1,stim/objects/HouseObjects/bucket4.png,stim/41.jpeg,4,stim/4.png,1,1,18,2020-12-18_09h26.55.461,premup-three_ses-02_part-03_label-phase3,3.2.4,Linux x86_64,60
1,left,0.848999977,4,1.305999994,0,4,3.437999964,0,2,0.967000008,1,0,200,55,1,199,2,2,0.3,1,stim/objects/HouseObjects/clothesdryingrack4.png,stim/43.jpeg,4,stim/4.png,3,2,18,2020-12-18_09h26.55.461,premup-three_ses-02_part-03_label-phase3,3.2.4,Linux x86_64,60
1,right,2.394999981,,,0,,,0,,,1,0,200,162,1,199,0,1,0,2,stim/objects/Instruments/violin.png,,0,stim/0.png,0,0,18,2020-12-18_09h26.55.461,premup-three_ses-02_part-03_label-phase3,3.2.4,Linux x86_64,60
1,right,0.877999783,,,0,,,0,,,1,0,200,110,1,199,0,2,0,2,stim/objects/HouseObjects/ashtray.png,,0,stim/0.png,0,0,18,2020-12-18_09h26.55.461,premup-three_ses-02_part-03_label-phase3,3.2.4,Linux x86_64,60
1,right,2.812000036,2,1.50999999,0,3,1.506000042,0,4,0.970999956,1,0,200,27,1,199,2,1,0.3,1,stim/objects/Instruments/balalaika4.png,stim/34.jpeg,3,stim/3.png,4,2,18,2020-12-18_09h26.55.461,premup-three_ses-02_part-03_label-phase3,3.2.4,Linux x86_64,60
1,right,0.739999771,,,0,,,0,,,1,0,200,129,1,199,0,1,0,2,stim/objects/Instruments/grandpiano.png,,0,stim/0.png,0,0,18,2020-12-18_09h26.55.461,premup-three_ses-02_part-03_label-phase3,3.2.4,Linux x86_64,60
1,left,1.35800004,4,1.132999897,0,1,7.123999834,0,4,1.486999989,1,0,200,68,1,199,3,1,0.1,1,stim/objects/Instruments/hihat4.png,stim/51.jpeg,5,stim/5.png,1,2,18,2020-12-18_09h26.55.461,premup-three_ses-02_part-03_label-phase3,3.2.4,Linux x86_64,60
1,left,0.992999792,4,1.292999744,0,4,4.062000036,0,4,1.691999912,1,0,200,34,1,199,2,2,0.7,1,stim/objects/HouseObjects/wateringcan3.png,stim/32.jpeg,3,stim/3.png,2,3,18,2020-12-18_09h26.55.461,premup-three_ses-02_part-03_label-phase3,3.2.4,Linux x86_64,60
1,right,1.028999805,,,0,,,0,,,1,0,200,197,1,199,0,2,0,2,stim/objects/HouseObjects/coffee2.png,,0,stim/0.png,0,0,18,2020-12-18_09h26.55.461,premup-three_ses-02_part-03_label-phase3,3.2.4,Linux x86_64,60
1,right,1.017999887,,,0,,,0,,,1,0,200,174,1,199,0,2,0,2,stim/objects/HouseObjects/wateringcan.png,,0,stim/0.png,0,0,18,2020-12-18_09h26.55.461,premup-three_ses-02_part-03_label-phase3,3.2.4,Linux x86_64,60
1,left,1.263999939,4,1.548999786,0,2,7.523999929,0,2,1.655999899,1,0,200,85,1,199,3,1,0.9,1,stim/objects/Instruments/musicstand4.png,stim/62.jpeg,6,stim/6.png,2,2,18,2020-12-18_09h26.55.461,premup-three_ses-02_part-03_label-phase3,3.2.4,Linux x86_64,60
1,left,1.730000019,4,2.851000071,0,4,12.10099983,0,2,1.105000019,1,0,200,79,1,199,3,2,0.9,1,stim/objects/HouseObjects/iron4.png,stim/54.jpeg,5,stim/5.png,4,2,18,2020-12-18_09h26.55.461,premup-three_ses-02_part-03_label-phase3,3.2.4,Linux x86_64,60
1,right,0.965999842,,,0,,,0,,,1,0,200,132,1,199,0,2,0,2,stim/objects/HouseObjects/coffee.png,,0,stim/0.png,0,0,18,2020-12-18_09h26.55.461,premup-three_ses-02_part-03_label-phase3,3.2.4,Linux x86_64,60
1,right,1.046000004,,,0,,,0,,,1,0,200,121,1,199,0,1,0,2,stim/objects/Instruments/doublebass.png,,0,stim/0.png,0,0,18,2020-12-18_09h26.55.461,premup-three_ses-02_part-03_label-phase3,3.2.4,Linux x86_64,60
1,left,1.56799984,,,0,,,0,,,1,0,200,119,1,199,0,2,0,2,stim/objects/HouseObjects/clock.png,,0,stim/0.png,0,0,18,2020-12-18_09h26.55.461,premup-three_ses-02_part-03_label-phase3,3.2.4,Linux x86_64,60
1,right,2.70299983,3,2.070999861,0,3,1.013999939,0,4,0.927999973,1,0,200,43,1,199,2,1,0.7,1,stim/objects/Instruments/clarinet4.png,stim/43.jpeg,4,stim/4.png,3,3,18,2020-12-18_09h26.55.461,premup-three_ses-02_part-03_label-phase3,3.2.4,Linux x86_64,60
1,right,0.861999989,,,0,,,0,,,1,0,200,192,1,199,0,2,0,2,stim/objects/HouseObjects/broom2.png,,0,stim/0.png,0,0,18,2020-12-18_09h26.55.461,premup-three_ses-02_part-03_label-phase3,3.2.4,Linux x86_64,60
1,right,0.808999777,,,0,,,0,,,1,0,200,101,1,199,0,1,0,2,stim/objects/Instruments/acousticguitar.png,,0,stim/0.png,0,0,18,2020-12-18_09h26.55.461,premup-three_ses-02_part-03_label-phase3,3.2.4,Linux x86_64,60
1,right,0.763000011,,,0,,,0,,,1,0,200,178,1,199,0,2,0,2,stim/objects/HouseObjects/basket2.png,,0,stim/0.png,0,0,18,2020-12-18_09h26.55.461,premup-three_ses-02_part-03_label-phase3,3.2.4,Linux x86_64,60
1,right,0.93599987,4,1.285000086,0,2,1.037999868,0,2,0.534999847,1,0,200,60,1,199,3,1,0.1,1,stim/objects/Instruments/flute4.png,stim/51.jpeg,5,stim/5.png,1,3,18,2020-12-18_09h26.55.461,premup-three_ses-02_part-03_label-phase3,3.2.4,Linux x86_64,60
1,right,1.047999859,,,0,,,0,,,1,0,200,167,1,199,0,1,0,2,stim/objects/Instruments/balalaika2.png,,0,stim/0.png,0,0,18,2020-12-18_09h26.55.461,premup-three_ses-02_part-03_label-phase3,3.2.4,Linux x86_64,60
1,right,1.140000105,,,0,,,0,,,1,0,200,118,1,199,0,2,0,2,stim/objects/HouseObjects/bucket.png,,0,stim/0.png,0,0,18,2020-12-18_09h26.55.461,premup-three_ses-02_part-03_label-phase3,3.2.4,Linux x86_64,60
1,right,1.208999872,,,0,,,0,,,1,0,200,159,1,199,0,2,0,2,stim/objects/HouseObjects/match.png,,0,stim/0.png,0,0,18,2020-12-18_09h26.55.461,premup-three_ses-02_part-03_label-phase3,3.2.4,Linux x86_64,60
1,right,1.279999971,,,0,,,0,,,1,0,200,194,1,199,0,2,0,2,stim/objects/HouseObjects/clock2.png,,0,stim/0.png,0,0,18,2020-12-18_09h26.55.461,premup-three_ses-02_part-03_label-phase3,3.2.4,Linux x86_64,60
1,right,0.878999949,,,0,,,0,,,1,0,200,140,1,199,0,1,0,2,stim/objects/Instruments/guitarcase.png,,0,stim/0.png,0,0,18,2020-12-18_09h26.55.461,premup-three_ses-02_part-03_label-phase3,3.2.4,Linux x86_64,60
1,left,1.714999914,4,1.394000053,0,2,2.748999834,0,2,0.900000095,1,0,200,37,1,199,2,2,0.7,1,stim/objects/HouseObjects/barbecuelighter4.png,stim/31.jpeg,3,stim/3.png,1,1,18,2020-12-18_09h26.55.461,premup-three_ses-02_part-03_label-phase3,3.2.4,Linux x86_64,60
1,left,1.19299984,4,1.159999847,0,1,8.503000021,0,4,1.470000029,1,0,200,18,1,199,1,2,0.5,1,stim/objects/HouseObjects/lintroller3.png,stim/23.jpeg,2,stim/2.png,3,3,18,2020-12-18_09h26.55.461,premup-three_ses-02_part-03_label-phase3,3.2.4,Linux x86_64,60
1,left,1.074999809,4,1.892999887,0,1,7.720999956,0,3,0.97699976,1,0,200,92,1,199,3,2,0.1,1,stim/objects/HouseObjects/knife4.png,stim/61.jpeg,6,stim/6.png,1,3,18,2020-12-18_09h26.55.461,premup-three_ses-02_part-03_label-phase3,3.2.4,Linux x86_64,60
1,left,1.312999964,4,1.386999846,0,2,2.645999908,0,2,0.650000095,1,0,200,31,1,199,2,2,0.7,1,stim/objects/HouseObjects/pitcher3.png,stim/33.jpeg,3,stim/3.png,3,2,18,2020-12-18_09h26.55.461,premup-three_ses-02_part-03_label-phase3,3.2.4,Linux x86_64,60
1,right,1.468999863,3,1.885999918,0,3,1.554999828,0,3,0.930000067,1,0,200,3,1,199,1,1,0.5,1,stim/objects/Instruments/hihat3.png,stim/12.jpeg,1,stim/1.png,2,3,18,2020-12-18_09h26.55.461,premup-three_ses-02_part-03_label-phase3,3.2.4,Linux x86_64,60
1,right,0.763000011,,,0,,,0,,,1,0,200,169,1,199,0,1,0,2,stim/objects/Instruments/bassdrum2.png,,0,stim/0.png,0,0,18,2020-12-18_09h26.55.461,premup-three_ses-02_part-03_label-phase3,3.2.4,Linux x86_64,60
1,right,0.816999912,,,0,,,0,,,1,0,200,142,1,199,0,1,0,2,stim/objects/Instruments/harp.png,,0,stim/0.png,0,0,18,2020-12-18_09h26.55.461,premup-three_ses-02_part-03_label-phase3,3.2.4,Linux x86_64,60
1,left,1.545000076,4,1.108999729,0,3,5.971999884,0,2,0.555000067,1,0,200,4,1,199,1,1,0.5,1,stim/objects/Instruments/keyboard3.png,stim/13.jpeg,1,stim/1.png,3,2,18,2020-12-18_09h26.55.461,premup-three_ses-02_part-03_label-phase3,3.2.4,Linux x86_64,60
1,right,0.69900012,,,0,,,0,,,1,0,200,114,1,199,0,2,0,2,stim/objects/HouseObjects/bleachbottle.png,,0,stim/0.png,0,0,18,2020-12-18_09h26.55.461,premup-three_ses-02_part-03_label-phase3,3.2.4,Linux x86_64,60
1,right,3.911999941,2,1.701999903,0,2,1.566999912,0,2,1.231999874,1,0,200,32,1,199,2,2,0.7,1,stim/objects/HouseObjects/towel3.png,stim/34.jpeg,3,stim/3.png,4,2,18,2020-12-18_09h26.55.461,premup-three_ses-02_part-03_label-phase3,3.2.4,Linux x86_64,60
1,right,0.665999889,2,3.983999968,0,3,1.475000143,0,2,1.184999943,1,0,200,96,1,199,3,2,0.1,1,stim/objects/HouseObjects/pitcher4.png,stim/61.jpeg,6,stim/6.png,1,4,18,2020-12-18_09h26.55.461,premup-three_ses-02_part-03_label-phase3,3.2.4,Linux x86_64,60
1,right,1.073999882,3,1.457000017,0,2,1.905999899,0,3,0.944999933,1,0,200,45,1,199,2,1,0.7,1,stim/objects/Instruments/cymbal4.png,stim/41.jpeg,4,stim/4.png,1,2,18,2020-12-18_09h26.55.461,premup-three_ses-02_part-03_label-phase3,3.2.4,Linux x86_64,60
1,right,1.711999893,1,2.864999771,0,2,3.036000013,0,2,0.558999777,1,0,200,78,1,199,3,2,0.9,1,stim/objects/HouseObjects/handvacuum4.png,stim/53.jpeg,5,stim/5.png,3,3,18,2020-12-18_09h26.55.461,premup-three_ses-02_part-03_label-phase3,3.2.4,Linux x86_64,60
1,right,1.008999825,3,1.67599988,0,2,1.157000065,0,3,1.241999865,1,0,200,65,1,199,3,1,0.1,1,stim/objects/Instruments/guitarcase4.png,stim/52.jpeg,5,stim/5.png,2,2,18,2020-12-18_09h26.55.461,premup-three_ses-02_part-03_label-phase3,3.2.4,Linux x86_64,60
1,right,0.80099988,,,0,,,0,,,1,0,200,175,1,199,0,2,0,2,stim/objects/HouseObjects/ashtray2.png,,0,stim/0.png,0,0,18,2020-12-18_09h26.55.461,premup-three_ses-02_part-03_label-phase3,3.2.4,Linux x86_64,60
1,right,0.719000101,,,0,,,0,,,1,0,200,112,1,199,0,2,0,2,stim/objects/HouseObjects/barbecuelighter.png,,0,stim/0.png,0,0,18,2020-12-18_09h26.55.461,premup-three_ses-02_part-03_label-phase3,3.2.4,Linux x86_64,60
1,right,0.594000101,,,0,,,0,,,1,0,200,133,1,199,0,2,0,2,stim/objects/HouseObjects/cushion.png,,0,stim/0.png,0,0,18,2020-12-18_09h26.55.461,premup-three_ses-02_part-03_label-phase3,3.2.4,Linux x86_64,60
1,right,0.628000021,2,3.98699975,0,3,2.470999956,0,1,1.519999743,1,0,200,58,1,199,2,2,0.3,1,stim/objects/HouseObjects/cushion4.png,stim/42.jpeg,4,stim/4.png,2,2,18,2020-12-18_09h26.55.461,premup-three_ses-02_part-03_label-phase3,3.2.4,Linux x86_64,60
1,right,1.48300004,,,0,,,0,,,1,0,200,122,1,199,0,1,0,2,stim/objects/Instruments/drums.png,,0,stim/0.png,0,0,18,2020-12-18_09h26.55.461,premup-three_ses-02_part-03_label-phase3,3.2.4,Linux x86_64,60
1,left,1.724999905,4,1.747999907,0,4,3.210999966,0,2,1.747999907,1,0,200,80,1,199,3,1,0.9,1,stim/objects/Instruments/laud4.png,stim/61.jpeg,6,stim/6.png,1,2,18,2020-12-18_09h26.55.461,premup-three_ses-02_part-03_label-phase3,3.2.4,Linux x86_64,60
1,right,1.441999912,,,0,,,0,,,1,0,200,173,1,199,0,2,0,2,stim/objects/HouseObjects/vacuumcleaner.png,,0,stim/0.png,0,0,18,2020-12-18_09h26.55.461,premup-three_ses-02_part-03_label-phase3,3.2.4,Linux x86_64,60
1,left,1.118999958,4,1.655999899,0,2,7.467000008,0,3,0.857000113,1,0,200,66,1,199,3,1,0.1,1,stim/objects/Instruments/harmonica4.png,stim/53.jpeg,5,stim/5.png,3,3,18,2020-12-18_09h26.55.461,premup-three_ses-02_part-03_label-phase3,3.2.4,Linux x86_64,60
1,left,1.894000053,3,1.730999947,0,3,3.062999964,0,3,1.195999861,1,0,200,44,1,199,2,1,0.7,1,stim/objects/Instruments/cornet4.png,stim/44.jpeg,4,stim/4.png,4,4,18,2020-12-18_09h26.55.461,premup-three_ses-02_part-03_label-phase3,3.2.4,Linux x86_64,60
1,right,0.835999966,,,0,,,0,,,1,0,200,144,1,199,0,1,0,2,stim/objects/Instruments/keyboard.png,,0,stim/0.png,0,0,18,2020-12-18_09h26.55.461,premup-three_ses-02_part-03_label-phase3,3.2.4,Linux x86_64,60
1,right,0.890000105,,,0,,,0,,,1,0,200,134,1,199,0,2,0,2,stim/objects/HouseObjects/dishsoap.png,,0,stim/0.png,0,0,18,2020-12-18_09h26.55.461,premup-three_ses-02_part-03_label-phase3,3.2.4,Linux x86_64,60
1,right,0.769999743,,,0,,,0,,,1,0,200,152,1,199,0,2,0,2,stim/objects/HouseObjects/handbrush.png,,0,stim/0.png,0,0,18,2020-12-18_09h26.55.461,premup-three_ses-02_part-03_label-phase3,3.2.4,Linux x86_64,60
1,right,1.129999876,,,0,,,0,,,1,0,200,179,1,199,0,2,0,2,stim/objects/HouseObjects/bleachbottle2.png,,0,stim/0.png,0,0,18,2020-12-18_09h26.55.461,premup-three_ses-02_part-03_label-phase3,3.2.4,Linux x86_64,60
1,left,1.224999905,4,1.263999939,0,2,2.396999836,0,4,1.114000082,1,0,200,20,1,199,2,1,0.3,1,stim/objects/Instruments/musicstand3.png,stim/31.jpeg,3,stim/3.png,1,2,18,2020-12-18_09h26.55.461,premup-three_ses-02_part-03_label-phase3,3.2.4,Linux x86_64,60
1,right,0.890000105,,,0,,,0,,,1,0,200,166,1,199,0,1,0,2,stim/objects/Instruments/acousticguitar2.png,,0,stim/0.png,0,0,18,2020-12-18_09h26.55.461,premup-three_ses-02_part-03_label-phase3,3.2.4,Linux x86_64,60
1,right,5.556999922,,,0,,,0,,,1,0,200,131,1,199,0,2,0,2,stim/objects/HouseObjects/clothespin.png,,0,stim/0.png,0,0,18,2020-12-18_09h26.55.461,premup-three_ses-02_part-03_label-phase3,3.2.4,Linux x86_64,60
1,right,1.110999823,,,0,,,0,,,1,0,200,185,1,199,0,1,0,2,stim/objects/Instruments/cymbal2.png,,0,stim/0.png,0,0,18,2020-12-18_09h26.55.461,premup-three_ses-02_part-03_label-phase3,3.2.4,Linux x86_64,60
1,right,1.081999779,,,0,,,0,,,1,0,200,156,1,199,0,2,0,2,stim/objects/HouseObjects/key.png,,0,stim/0.png,0,0,18,2020-12-18_09h26.55.461,premup-three_ses-02_part-03_label-phase3,3.2.4,Linux x86_64,60
1,right,0.90199995,,,0,,,0,,,1,0,200,195,1,199,0,2,0,2,stim/objects/HouseObjects/clothesdryingrack2.png,,0,stim/0.png,0,0,18,2020-12-18_09h26.55.461,premup-three_ses-02_part-03_label-phase3,3.2.4,Linux x86_64,60
1,right,0.970999718,3,1.585000038,0,4,1.631999969,0,3,1.252999783,1,0,200,28,1,199,2,1,0.3,1,stim/objects/Instruments/banjo4.png,stim/31.jpeg,3,stim/3.png,1,3,18,2020-12-18_09h26.55.461,premup-three_ses-02_part-03_label-phase3,3.2.4,Linux x86_64,60
1,right,0.779000044,,,0,,,0,,,1,0,200,102,1,199,0,1,0,2,stim/objects/Instruments/balalaika.png,,0,stim/0.png,0,0,18,2020-12-18_09h26.55.461,premup-three_ses-02_part-03_label-phase3,3.2.4,Linux x86_64,60
1,right,0.944999933,,,0,,,0,,,1,0,200,187,1,199,0,1,0,2,stim/objects/Instruments/drums2.png,,0,stim/0.png,0,0,18,2020-12-18_09h26.55.461,premup-three_ses-02_part-03_label-phase3,3.2.4,Linux x86_64,60
1,right,1.27699995,2,2.332000017,0,3,1.261999846,0,3,1.197999954,1,0,200,91,1,199,3,2,0.1,1,stim/objects/HouseObjects/key4.png,stim/64.jpeg,6,stim/6.png,4,4,18,2020-12-18_09h26.55.461,premup-three_ses-02_part-03_label-phase3,3.2.4,Linux x86_64,60
1,right,0.905999899,,,0,,,0,,,1,0,200,137,1,199,0,2,0,2,stim/objects/HouseObjects/flyswatter.png,,0,stim/0.png,0,0,18,2020-12-18_09h26.55.461,premup-three_ses-02_part-03_label-phase3,3.2.4,Linux x86_64,60
1,right,0.933000088,,,0,,,0,,,1,0,200,157,1,199,0,2,0,2,stim/objects/HouseObjects/knife.png,,0,stim/0.png,0,0,18,2020-12-18_09h26.55.461,premup-three_ses-02_part-03_label-phase3,3.2.4,Linux x86_64,60
1,right,0.724999905,,,0,,,0,,,1,0,200,104,1,199,0,1,0,2,stim/objects/Instruments/bassdrum.png,,0,stim/0.png,0,0,18,2020-12-18_09h26.55.461,premup-three_ses-02_part-03_label-phase3,3.2.4,Linux x86_64,60
1,left,1.083999872,4,1.352999926,0,3,2.761999846,0,1,1.243000031,1,0,200,15,1,199,1,2,0.5,1,stim/objects/HouseObjects/ironingboard3.png,stim/24.jpeg,2,stim/2.png,4,1,18,2020-12-18_09h26.55.461,premup-three_ses-02_part-03_label-phase3,3.2.4,Linux x86_64,60
1,right,0.805999994,,,0,,,0,,,1,0,200,182,1,199,0,1,0,2,stim/objects/Instruments/chime2.png,,0,stim/0.png,0,0,18,2020-12-18_09h26.55.461,premup-three_ses-02_part-03_label-phase3,3.2.4,Linux x86_64,60
1,right,0.778999805,,,0,,,0,,,1,0,200,108,1,199,0,1,0,2,stim/objects/Instruments/clarinet.png,,0,stim/0.png,0,0,18,2020-12-18_09h26.55.461,premup-three_ses-02_part-03_label-phase3,3.2.4,Linux x86_64,60
1,left,0.980999947,4,1.264999866,0,2,9.172999859,0,1,5.513999939,1,0,200,74,1,199,3,2,0.9,1,stim/objects/HouseObjects/glass4.png,stim/53.jpeg,5,stim/5.png,3,4,18,2020-12-18_09h26.55.461,premup-three_ses-02_part-03_label-phase3,3.2.4,Linux x86_64,60
1,right,0.784999847,,,0,,,0,,,1,0,200,198,1,199,0,2,0,2,stim/objects/HouseObjects/cushion2.png,,0,stim/0.png,0,0,18,2020-12-18_09h26.55.461,premup-three_ses-02_part-03_label-phase3,3.2.4,Linux x86_64,60
1,left,3.227999926,3,1.934000015,0,1,1.833999872,0,3,1.368999958,1,0,200,41,1,199,2,1,0.7,1,stim/objects/Instruments/cello4.png,stim/41.jpeg,4,stim/4.png,1,1,18,2020-12-18_09h26.55.461,premup-three_ses-02_part-03_label-phase3,3.2.4,Linux x86_64,60
1,right,0.953999996,4,1.608999968,0,3,2.450999975,0,4,0.892999887,1,0,200,35,1,199,2,2,0.7,1,stim/objects/HouseObjects/ashtray4.png,stim/33.jpeg,3,stim/3.png,3,1,18,2020-12-18_09h26.55.461,premup-three_ses-02_part-03_label-phase3,3.2.4,Linux x86_64,60
1,right,0.920999765,,,0,,,0,,,1,0,200,125,1,199,0,1,0,2,stim/objects/Instruments/flute.png,,0,stim/0.png,0,0,18,2020-12-18_09h26.55.461,premup-three_ses-02_part-03_label-phase3,3.2.4,Linux x86_64,60
1,left,1.339999914,4,1.191999912,0,4,3.815000057,0,2,1.819000006,1,0,200,94,1,199,3,2,0.1,1,stim/objects/HouseObjects/match4.png,stim/63.jpeg,6,stim/6.png,3,2,18,2020-12-18_09h26.55.461,premup-three_ses-02_part-03_label-phase3,3.2.4,Linux x86_64,60
1,right,0.620999813,,,0,,,0,,,1,0,200,191,1,199,0,2,0,2,stim/objects/HouseObjects/bottle2.png,,0,stim/0.png,0,0,18,2020-12-18_09h26.55.461,premup-three_ses-02_part-03_label-phase3,3.2.4,Linux x86_64,60
1,right,0.809999943,1,1.928999901,0,2,1.325999975,0,2,1.506000042,1,0,200,2,1,199,1,1,0.5,1,stim/objects/Instruments/harp3.png,stim/11.jpeg,1,stim/1.png,1,2,18,2020-12-18_09h26.55.461,premup-three_ses-02_part-03_label-phase3,3.2.4,Linux x86_64,60
1,right,0.736999989,4,1.555999994,0,3,1.972000122,0,4,0.434999943,1,0,200,90,1,199,3,2,0.1,1,stim/objects/HouseObjects/ironingboard4.png,stim/63.jpeg,6,stim/6.png,3,4,18,2020-12-18_09h26.55.461,premup-three_ses-02_part-03_label-phase3,3.2.4,Linux x86_64,60
1,right,0.862999916,,,0,,,0,,,1,0,200,196,1,199,0,2,0,2,stim/objects/HouseObjects/clothespin2.png,,0,stim/0.png,0,0,18,2020-12-18_09h26.55.461,premup-three_ses-02_part-03_label-phase3,3.2.4,Linux x86_64,60
1,left,1.052000046,4,1.035000086,0,3,5.248999834,0,4,1.305000067,1,0,200,93,1,199,3,2,0.1,1,stim/objects/HouseObjects/lintroller4.png,stim/62.jpeg,6,stim/6.png,2,4,18,2020-12-18_09h26.55.461,premup-three_ses-02_part-03_label-phase3,3.2.4,Linux x86_64,60
1,right,11.12299991,2,1.359999895,0,3,2.02699995,0,4,2.16899991,1,0,200,12,1,199,1,2,0.5,1,stim/objects/Instruments/marimba3.png,stim/23.jpeg,2,stim/2.png,3,2,18,2020-12-18_09h26.55.461,premup-three_ses-02_part-03_label-phase3,3.2.4,Linux x86_64,60
1,right,1.309000015,3,2.540999889,0,2,1.282999992,0,3,1.21999979,1,0,200,56,1,199,2,2,0.3,1,stim/objects/HouseObjects/clothespin4.png,stim/44.jpeg,4,stim/4.png,4,4,18,2020-12-18_09h26.55.461,premup-three_ses-02_part-03_label-phase3,3.2.4,Linux x86_64,60
1,right,1.040999889,,,0,,,0,,,1,0,200,158,1,199,0,2,0,2,stim/objects/HouseObjects/lintroller.png,,0,stim/0.png,0,0,18,2020-12-18_09h26.55.461,premup-three_ses-02_part-03_label-phase3,3.2.4,Linux x86_64,60
1,left,1.401000023,4,1.053999901,0,1,5.924000025,0,4,0.934999943,1,0,200,36,1,199,2,2,0.7,1,stim/objects/HouseObjects/ballofstring4.png,stim/34.jpeg,3,stim/3.png,4,4,18,2020-12-18_09h26.55.461,premup-three_ses-02_part-03_label-phase3,3.2.4,Linux x86_64,60
1,right,0.864000082,,,0,,,0,,,1,0,200,151,1,199,0,2,0,2,stim/objects/HouseObjects/hairdryer.png,,0,stim/0.png,0,0,18,2020-12-18_09h26.55.461,premup-three_ses-02_part-03_label-phase3,3.2.4,Linux x86_64,60
1,left,1.165999889,2,1.204999924,0,3,1.626999855,0,4,1.342999935,1,0,200,5,1,199,1,1,0.5,1,stim/objects/HouseObjects/glassmop3.png,stim/12.jpeg,1,stim/1.png,2,4,18,2020-12-18_09h26.55.461,premup-three_ses-02_part-03_label-phase3,3.2.4,Linux x86_64,60
1,right,0.76699996,,,0,,,0,,,1,0,200,181,1,199,0,1,0,2,stim/objects/Instruments/cello2.png,,0,stim/0.png,0,0,18,2020-12-18_09h26.55.461,premup-three_ses-02_part-03_label-phase3,3.2.4,Linux x86_64,60
1,right,0.845000029,4,1.292999983,0,4,1.440000057,0,4,0.595999956,1,0,200,9,1,199,1,1,0.5,1,stim/objects/HouseObjects/iron3.png,stim/12.jpeg,1,stim/1.png,2,2,18,2020-12-18_09h26.55.461,premup-three_ses-02_part-03_label-phase3,3.2.4,Linux x86_64,60
1,left,1.441999912,,,0,,,0,,,1,0,200,109,1,199,0,1,0,2,stim/objects/Instruments/cornet.png,,0,stim/0.png,0,0,18,2020-12-18_09h26.55.461,premup-three_ses-02_part-03_label-phase3,3.2.4,Linux x86_64,60
1,right,2.309999943,3,3.044999838,0,2,1.006000042,0,3,1.126999855,1,0,200,87,1,199,3,1,0.9,1,stim/objects/Instruments/violin4.png,stim/64.jpeg,6,stim/6.png,4,3,18,2020-12-18_09h26.55.461,premup-three_ses-02_part-03_label-phase3,3.2.4,Linux x86_64,60
1,right,0.723999977,,,0,,,0,,,1,0,200,155,1,199,0,2,0,2,stim/objects/HouseObjects/ironingboard.png,,0,stim/0.png,0,0,18,2020-12-18_09h26.55.461,premup-three_ses-02_part-03_label-phase3,3.2.4,Linux x86_64,60
1,right,2.600999832,2,1.950999975,0,2,1.062000036,0,3,0.904999971,1,0,200,1,1,199,1,1,0.5,1,stim/objects/Instruments/harmonica3.png,stim/14.jpeg,1,stim/1.png,4,3,18,2020-12-18_09h26.55.461,premup-three_ses-02_part-03_label-phase3,3.2.4,Linux x86_64,60
1,right,1.328999996,,,0,,,0,,,1,0,200,135,1,199,0,2,0,2,stim/objects/HouseObjects/doormat.png,,0,stim/0.png,0,0,18,2020-12-18_09h26.55.461,premup-three_ses-02_part-03_label-phase3,3.2.4,Linux x86_64,60
1,left,0.922999859,4,1.519999981,0,2,2.329999924,0,4,1.902999878,1,0,200,16,1,199,1,2,0.5,1,stim/objects/HouseObjects/key3.png,stim/21.jpeg,2,stim/2.png,1,4,18,2020-12-18_09h26.55.461,premup-three_ses-02_part-03_label-phase3,3.2.4,Linux x86_64,60
1,right,0.970000029,,,0,,,0,,,1,0,200,188,1,199,0,1,0,2,stim/objects/Instruments/electricdrumset2.png,,0,stim/0.png,0,0,18,2020-12-18_09h26.55.461,premup-three_ses-02_part-03_label-phase3,3.2.4,Linux x86_64,60
1,right,0.739999771,,,0,,,0,,,1,0,200,107,1,199,0,1,0,2,stim/objects/Instruments/chime.png,,0,stim/0.png,0,0,18,2020-12-18_09h26.55.461,premup-three_ses-02_part-03_label-phase3,3.2.4,Linux x86_64,60
1,right,0.763999939,,,0,,,0,,,1,0,200,199,1,199,0,2,0,2,stim/objects/HouseObjects/dishsoap2.png,,0,stim/0.png,0,0,18,2020-12-18_09h26.55.461,premup-three_ses-02_part-03_label-phase3,3.2.4,Linux x86_64,60
1,right,1.190000057,,,0,,,0,,,1,0,200,184,1,199,0,1,0,2,stim/objects/Instruments/cornet2.png,,0,stim/0.png,0,0,18,2020-12-18_09h26.55.461,premup-three_ses-02_part-03_label-phase3,3.2.4,Linux x86_64,60
1,right,0.740999937,,,0,,,0,,,1,0,200,154,1,199,0,2,0,2,stim/objects/HouseObjects/iron.png,,0,stim/0.png,0,0,18,2020-12-18_09h26.55.461,premup-three_ses-02_part-03_label-phase3,3.2.4,Linux x86_64,60
1,right,0.761999846,4,1.700999975,0,2,1.02699995,0,3,1.121000051,1,0,200,24,1,199,2,1,0.3,1,stim/objects/Instruments/xylophone3.png,stim/31.jpeg,3,stim/3.png,1,3,18,2020-12-18_09h26.55.461,premup-three_ses-02_part-03_label-phase3,3.2.4,Linux x86_64,60
1,right,0.681999922,,,0,,,0,,,1,0,200,160,1,199,0,1,0,2,stim/objects/Instruments/musicstand.png,,0,stim/0.png,0,0,18,2020-12-18_09h26.55.461,premup-three_ses-02_part-03_label-phase3,3.2.4,Linux x86_64,60
1,right,0.903999805,,,0,,,0,,,1,0,200,177,1,199,0,2,0,2,stim/objects/HouseObjects/barbecuelighter2.png,,0,stim/0.png,0,0,18,2020-12-18_09h26.55.461,premup-three_ses-02_part-03_label-phase3,3.2.4,Linux x86_64,60
1,right,1.217999935,4,4.167000055,0,2,1.419999838,0,3,1.036999941,1,0,200,22,1,199,2,1,0.3,1,stim/objects/Instruments/violin3.png,stim/33.jpeg,3,stim/3.png,3,1,18,2020-12-18_09h26.55.461,premup-three_ses-02_part-03_label-phase3,3.2.4,Linux x86_64,60
1,right,0.678999901,4,1.171000004,0,3,1.230999947,0,2,0.979000092,1,0,200,54,1,199,2,2,0.3,1,stim/objects/HouseObjects/clock4.png,stim/42.jpeg,4,stim/4.png,2,2,18,2020-12-18_09h26.55.461,premup-three_ses-02_part-03_label-phase3,3.2.4,Linux x86_64,60
1,left,1.830999851,4,1.147000074,0,2,2.641000032,0,4,0.915999889,1,0,200,23,1,199,2,1,0.3,1,stim/objects/Instruments/vuvuzela3.png,stim/34.jpeg,3,stim/3.png,4,4,18,2020-12-18_09h26.55.461,premup-three_ses-02_part-03_label-phase3,3.2.4,Linux x86_64,60
1,right,1.142999887,2,2.339999914,0,4,2.720999956,0,2,2.983999968,1,0,200,10,1,199,1,2,0.5,1,stim/objects/Instruments/laud3.png,stim/21.jpeg,2,stim/2.png,1,1,18,2020-12-18_09h26.55.461,premup-three_ses-02_part-03_label-phase3,3.2.4,Linux x86_64,60
1,left,5.523000002,2,1.157999992,0,3,1.750999928,0,2,0.871999979,1,0,200,39,1,199,2,2,0.7,1,stim/objects/HouseObjects/bleachbottle4.png,stim/33.jpeg,3,stim/3.png,3,2,18,2020-12-18_09h26.55.461,premup-three_ses-02_part-03_label-phase3,3.2.4,Linux x86_64,60
1,right,0.780999899,,,0,,,0,,,1,0,200,124,1,199,0,1,0,2,stim/objects/Instruments/electricguitar.png,,0,stim/0.png,0,0,18,2020-12-18_09h26.55.461,premup-three_ses-02_part-03_label-phase3,3.2.4,Linux x86_64,60
1,right,4.628000021,3,2.20600009,0,1,1.5849998,0,4,1.421999931,1,0,200,83,1,199,3,1,0.9,1,stim/objects/Instruments/metronome4.png,stim/64.jpeg,6,stim/6.png,4,2,18,2020-12-18_09h26.55.461,premup-three_ses-02_part-03_label-phase3,3.2.4,Linux x86_64,60
1,right,0.715999842,,,0,,,0,,,1,0,200,105,1,199,0,1,0,2,stim/objects/Instruments/bassguitar.png,,0,stim/0.png,0,0,18,2020-12-18_09h26.55.461,premup-three_ses-02_part-03_label-phase3,3.2.4,Linux x86_64,60
1,right,1.450999975,,,0,,,0,,,1,0,200,146,1,199,0,1,0,2,stim/objects/Instruments/maraca.png,,0,stim/0.png,0,0,18,2020-12-18_09h26.55.461,premup-three_ses-02_part-03_label-phase3,3.2.4,Linux x86_64,60
1,right,1.057999849,,,0,,,0,,,1,0,200,113,1,199,0,2,0,2,stim/objects/HouseObjects/basket.png,,0,stim/0.png,0,0,18,2020-12-18_09h26.55.461,premup-three_ses-02_part-03_label-phase3,3.2.4,Linux x86_64,60
1,right,0.990999937,4,1.199999809,0,3,1.386999846,0,4,1.217000008,1,0,200,71,1,199,3,2,0.9,1,stim/objects/HouseObjects/dustpan4.png,stim/54.jpeg,5,stim/5.png,4,2,18,2020-12-18_09h26.55.461,premup-three_ses-02_part-03_label-phase3,3.2.4,Linux x86_64,60
1,right,0.65899992,,,0,,,0,,,1,0,200,168,1,199,0,1,0,2,stim/objects/Instruments/banjo2.png,,0,stim/0.png,0,0,18,2020-12-18_09h26.55.461,premup-three_ses-02_part-03_label-phase3,3.2.4,Linux x86_64,60
1,left,4.478000164,2,1.602999926,0,3,6.467999935,0,2,0.891000032,1,0,200,0,1,199,1,1,0.5,1,stim/objects/Instruments/guitarcase3.png,stim/13.jpeg,1,stim/1.png,3,1,18,2020-12-18_09h26.55.461,premup-three_ses-02_part-03_label-phase3,3.2.4,Linux x86_64,60
1,right,5.718999863,3,1.512000084,0,2,1.115999937,0,4,2.557999849,1,0,200,33,1,199,2,2,0.7,1,stim/objects/HouseObjects/vacuumcleaner3.png,stim/31.jpeg,3,stim/3.png,1,3,18,2020-12-18_09h26.55.461,premup-three_ses-02_part-03_label-phase3,3.2.4,Linux x86_64,60
1,right,0.758999825,4,1.700000048,0,2,0.864999771,0,4,1.068999767,1,0,200,69,1,199,3,1,0.1,1,stim/objects/Instruments/keyboard4.png,stim/52.jpeg,5,stim/5.png,2,4,18,2020-12-18_09h26.55.461,premup-three_ses-02_part-03_label-phase3,3.2.4,Linux x86_64,60
1,right,0.832999945,,,0,,,0,,,1,0,200,164,1,199,0,1,0,2,stim/objects/Instruments/xylophone.png,,0,stim/0.png,0,0,18,2020-12-18_09h26.55.461,premup-three_ses-02_part-03_label-phase3,3.2.4,Linux x86_64,60
1,right,1.090999842,4,1.200999975,0,4,1.194999933,0,4,1.199999809,1,0,200,95,1,199,3,2,0.1,1,stim/objects/HouseObjects/pan4.png,stim/64.jpeg,6,stim/6.png,4,2,18,2020-12-18_09h26.55.461,premup-three_ses-02_part-03_label-phase3,3.2.4,Linux x86_64,60
1,right,0.704999924,,,0,,,0,,,1,0,200,100,1,199,0,1,0,2,stim/objects/Instruments/accordion.png,,0,stim/0.png,0,0,18,2020-12-18_09h26.55.461,premup-three_ses-02_part-03_label-phase3,3.2.4,Linux x86_64,60
1,left,1.581999779,3,1.476999998,0,2,3.092999935,0,4,0.91899991,1,0,200,25,1,199,2,1,0.3,1,stim/objects/Instruments/accordion4.png,stim/32.jpeg,3,stim/3.png,2,4,18,2020-12-18_09h26.55.461,premup-three_ses-02_part-03_label-phase3,3.2.4,Linux x86_64,60
1,right,1.707999945,,,0,,,0,,,1,0,200,136,1,199,0,2,0,2,stim/objects/HouseObjects/dustpan.png,,0,stim/0.png,0,0,18,2020-12-18_09h26.55.461,premup-three_ses-02_part-03_label-phase3,3.2.4,Linux x86_64,60
1,left,7.617000103,2,1.768000126,0,2,1.812000036,0,2,2.247999907,1,0,200,98,1,199,3,2,0.1,1,stim/objects/HouseObjects/vacuumcleaner4.png,stim/63.jpeg,6,stim/6.png,3,4,18,2020-12-18_09h26.55.461,premup-three_ses-02_part-03_label-phase3,3.2.4,Linux x86_64,60
1,right,1.075999975,3,1.388999939,0,2,1.009999752,0,3,0.995000124,1,0,200,30,1,199,2,2,0.7,1,stim/objects/HouseObjects/pan3.png,stim/32.jpeg,3,stim/3.png,2,2,18,2020-12-18_09h26.55.461,premup-three_ses-02_part-03_label-phase3,3.2.4,Linux x86_64,60
1,right,11.98600006,3,1.521999836,0,2,1.552999973,0,2,1.090999842,1,0,200,76,1,199,3,2,0.9,1,stim/objects/HouseObjects/hairdryer4.png,stim/51.jpeg,5,stim/5.png,1,4,18,2020-12-18_09h26.55.461,premup-three_ses-02_part-03_label-phase3,3.2.4,Linux x86_64,60
1,left,1.028999805,4,1.250999928,0,4,7.718999863,0,4,1.08100009,1,0,200,19,1,199,1,2,0.5,1,stim/objects/HouseObjects/match3.png,stim/24.jpeg,2,stim/2.png,4,3,18,2020-12-18_09h26.55.461,premup-three_ses-02_part-03_label-phase3,3.2.4,Linux x86_64,60
1,left,1.190999985,4,1.414000034,0,2,4.233999729,0,1,0.944999933,1,0,200,73,1,199,3,2,0.9,1,stim/objects/HouseObjects/garbagebin4.png,stim/52.jpeg,5,stim/5.png,2,1,18,2020-12-18_09h26.55.461,premup-three_ses-02_part-03_label-phase3,3.2.4,Linux x86_64,60
1,right,1.086999893,,,0,,,0,,,1,0,200,186,1,199,0,1,0,2,stim/objects/Instruments/doublebass2.png,,0,stim/0.png,0,0,18,2020-12-18_09h26.55.461,premup-three_ses-02_part-03_label-phase3,3.2.4,Linux x86_64,60
1,right,0.82400012,,,0,,,0,,,1,0,200,147,1,199,0,1,0,2,stim/objects/Instruments/marimba.png,,0,stim/0.png,0,0,18,2020-12-18_09h26.55.461,premup-three_ses-02_part-03_label-phase3,3.2.4,Linux x86_64,60
