key_resp_pract.keys,key_resp_pract.rt,trial_acc,trial_index,practice_loop.thisRepN,practice_loop.thisTrialN,practice_loop.thisN,practice_loop.thisIndex,practice_loop.ran,practice_loop.order,scn_condition,scn_cat,scn_inst,scn_file,obj_cat,obj_cat_num,obj_file,trial_cond,quadrant,obj_x,obj_y,corr_ans,participant,date,expName,psychopyVersion,OS,frameRate,key_resp_trial.keys,key_resp_trial.rt,iterations.thisRepN,iterations.thisTrialN,iterations.thisN,iterations.thisIndex,iterations.ran,iterations.order,task_innerloop.thisRepN,task_innerloop.thisTrialN,task_innerloop.thisN,task_innerloop.thisIndex,task_innerloop.ran,task_innerloop.order,iteration_index,rating_acc,slider.response,slider.rt,slider_2.response,slider_2.rt,ratings.thisRepN,ratings.thisTrialN,ratings.thisN,ratings.thisIndex,ratings.ran,ratings.order,obj_cat_top,min_resp_top,max_resp_top,obj_cat_bottom,min_resp_bottom,max_resp_bottom
,,0,1,1,0,240,158,1,239,2,6,3,stim/63.jpeg,HouseObjects,2,stim/objects/HouseObjects/dishsoap2.png,0.3,4,0.2,-0.15,right,1,2020-11-19_19h31.31.614,premup-three_ses-01_part-01_label-phase1,3.2.4,Win32,60,,,,,,,,,,,,,,,,,,,,,,,,,,,,,,,,
,,0,2,1,0,240,177,1,239,3,1,2,stim/12.jpeg,HouseObjects,2,stim/objects/HouseObjects/flyswatter2.png,0.9,1,-0.2,0.15,right,1,2020-11-19_19h31.31.614,premup-three_ses-01_part-01_label-phase1,3.2.4,Win32,60,,,,,,,,,,,,,,,,,,,,,,,,,,,,,,,,
,,0,3,1,0,240,6,1,239,1,3,3,stim/33.jpeg,Instruments,1,stim/objects/Instruments/electricguitar.png,0.5,2,0.2,0.15,left,1,2020-11-19_19h31.31.614,premup-three_ses-01_part-01_label-phase1,3.2.4,Win32,60,,,,,,,,,,,,,,,,,,,,,,,,,,,,,,,,
,,0,4,1,0,240,234,1,239,3,2,3,stim/23.jpeg,Instruments,1,stim/objects/Instruments/harp2.png,0.9,2,0.2,0.15,left,1,2020-11-19_19h31.31.614,premup-three_ses-01_part-01_label-phase1,3.2.4,Win32,60,,,,,,,,,,,,,,,,,,,,,,,,,,,,,,,,
,,0,5,1,0,240,111,1,239,2,5,4,stim/54.jpeg,HouseObjects,2,stim/objects/HouseObjects/handvacuum.png,0.7,1,-0.2,0.15,right,1,2020-11-19_19h31.31.614,premup-three_ses-01_part-01_label-phase1,3.2.4,Win32,60,,,,,,,,,,,,,,,,,,,,,,,,,,,,,,,,
,,0,6,1,0,240,61,1,239,1,4,2,stim/42.jpeg,HouseObjects,2,stim/objects/HouseObjects/flyswatter.png,0.5,1,-0.2,0.15,right,1,2020-11-19_19h31.31.614,premup-three_ses-01_part-01_label-phase1,3.2.4,Win32,60,,,,,,,,,,,,,,,,,,,,,,,,,,,,,,,,
,,0,7,1,0,240,115,1,239,2,5,4,stim/54.jpeg,HouseObjects,2,stim/objects/HouseObjects/handvacuum.png,0.7,4,0.2,-0.15,right,1,2020-11-19_19h31.31.614,premup-three_ses-01_part-01_label-phase1,3.2.4,Win32,60,,,,,,,,,,,,,,,,,,,,,,,,,,,,,,,,
,,0,8,1,0,240,161,1,239,3,1,2,stim/12.jpeg,Instruments,1,stim/objects/Instruments/frenchhorn2.png,0.1,2,0.2,0.15,left,1,2020-11-19_19h31.31.614,premup-three_ses-01_part-01_label-phase1,3.2.4,Win32,60,,,,,,,,,,,,,,,,,,,,,,,,,,,,,,,,
,,0,9,1,0,240,31,1,239,1,3,4,stim/34.jpeg,HouseObjects,2,stim/objects/HouseObjects/doormat.png,0.5,3,-0.2,-0.15,right,1,2020-11-19_19h31.31.614,premup-three_ses-01_part-01_label-phase1,3.2.4,Win32,60,,,,,,,,,,,,,,,,,,,,,,,,,,,,,,,,
,,0,10,1,0,240,19,1,239,1,3,4,stim/34.jpeg,Instruments,1,stim/objects/Instruments/flute.png,0.5,1,-0.2,0.15,left,1,2020-11-19_19h31.31.614,premup-three_ses-01_part-01_label-phase1,3.2.4,Win32,60,,,,,,,,,,,,,,,,,,,,,,,,,,,,,,,,
,,0,1,,,,,,,3,2,3,stim/23.jpeg,Instruments,1,stim/objects/Instruments/harp2.png,0.9,3,-0.2,-0.15,left,1,2020-11-19_19h31.31.614,premup-three_ses-01_part-01_label-phase1,3.2.4,Win32,60,,,4,0,4,0,1,3,1,0,240,214,1,239,,,,,,,,,,,,,,,,,,
,,0,2,,,,,,,3,2,4,stim/24.jpeg,Instruments,1,stim/objects/Instruments/hihat2.png,0.9,2,0.2,0.15,left,1,2020-11-19_19h31.31.614,premup-three_ses-01_part-01_label-phase1,3.2.4,Win32,60,,,4,0,4,0,1,3,1,0,240,207,1,239,,,,,,,,,,,,,,,,,,
,,0,3,,,,,,,1,3,4,stim/34.jpeg,HouseObjects,2,stim/objects/HouseObjects/doormat.png,0.5,4,0.2,-0.15,right,1,2020-11-19_19h31.31.614,premup-three_ses-01_part-01_label-phase1,3.2.4,Win32,60,,,4,0,4,0,1,3,1,0,240,39,1,239,,,,,,,,,,,,,,,,,,
,,0,4,,,,,,,2,6,2,stim/62.jpeg,HouseObjects,2,stim/objects/HouseObjects/cushion2.png,0.3,1,-0.2,0.15,right,1,2020-11-19_19h31.31.614,premup-three_ses-01_part-01_label-phase1,3.2.4,Win32,60,,,4,0,4,0,1,3,1,0,240,149,1,239,,,,,,,,,,,,,,,,,,
,,0,5,,,,,,,1,4,4,stim/44.jpeg,HouseObjects,2,stim/objects/HouseObjects/glass.png,0.5,2,0.2,0.15,right,1,2020-11-19_19h31.31.614,premup-three_ses-01_part-01_label-phase1,3.2.4,Win32,60,,,4,0,4,0,1,3,1,0,240,67,1,239,,,,,,,,,,,,,,,,,,
,,0,6,,,,,,,3,2,2,stim/22.jpeg,Instruments,1,stim/objects/Instruments/harmonica2.png,0.9,2,0.2,0.15,left,1,2020-11-19_19h31.31.614,premup-three_ses-01_part-01_label-phase1,3.2.4,Win32,60,,,4,0,4,0,1,3,1,0,240,229,1,239,,,,,,,,,,,,,,,,,,
,,0,7,,,,,,,3,1,2,stim/12.jpeg,HouseObjects,2,stim/objects/HouseObjects/flyswatter2.png,0.9,4,0.2,-0.15,right,1,2020-11-19_19h31.31.614,premup-three_ses-01_part-01_label-phase1,3.2.4,Win32,60,,,4,0,4,0,1,3,1,0,240,189,1,239,,,,,,,,,,,,,,,,,,
,,0,8,,,,,,,3,2,2,stim/22.jpeg,Instruments,1,stim/objects/Instruments/harmonica2.png,0.9,1,-0.2,0.15,left,1,2020-11-19_19h31.31.614,premup-three_ses-01_part-01_label-phase1,3.2.4,Win32,60,,,4,0,4,0,1,3,1,0,240,201,1,239,,,,,,,,,,,,,,,,,,
,,0,9,,,,,,,3,2,2,stim/22.jpeg,Instruments,1,stim/objects/Instruments/harmonica2.png,0.9,2,0.2,0.15,left,1,2020-11-19_19h31.31.614,premup-three_ses-01_part-01_label-phase1,3.2.4,Win32,60,,,4,0,4,0,1,3,1,0,240,221,1,239,,,,,,,,,,,,,,,,,,
,,0,10,,,,,,,1,3,1,stim/31.jpeg,HouseObjects,2,stim/objects/HouseObjects/coffee.png,0.5,2,0.2,0.15,right,1,2020-11-19_19h31.31.614,premup-three_ses-01_part-01_label-phase1,3.2.4,Win32,60,,,4,0,4,0,1,3,1,0,240,36,1,239,,,,,,,,,,,,,,,,,,
,,0,11,,,,,,,1,3,2,stim/32.jpeg,Instruments,1,stim/objects/Instruments/electricdrumset.png,0.5,3,-0.2,-0.15,left,1,2020-11-19_19h31.31.614,premup-three_ses-01_part-01_label-phase1,3.2.4,Win32,60,,,4,0,4,0,1,3,1,0,240,5,1,239,,,,,,,,,,,,,,,,,,
,,0,12,,,,,,,3,2,4,stim/24.jpeg,Instruments,1,stim/objects/Instruments/hihat2.png,0.9,4,0.2,-0.15,left,1,2020-11-19_19h31.31.614,premup-three_ses-01_part-01_label-phase1,3.2.4,Win32,60,right,0.651000023,4,0,4,0,1,3,1,0,240,231,1,239,,,,,,,,,,,,,,,,,,
,,0,13,,,,,,,1,4,3,stim/43.jpeg,HouseObjects,2,stim/objects/HouseObjects/garbagebin.png,0.5,2,0.2,0.15,right,1,2020-11-19_19h31.31.614,premup-three_ses-01_part-01_label-phase1,3.2.4,Win32,60,left,1.774000168,4,0,4,0,1,3,1,0,240,74,1,239,,,,,,,,,,,,,,,,,,
,,0,14,,,,,,,3,2,1,stim/21.jpeg,Instruments,1,stim/objects/Instruments/guitarcase2.png,0.9,1,-0.2,0.15,left,1,2020-11-19_19h31.31.614,premup-three_ses-01_part-01_label-phase1,3.2.4,Win32,60,,,4,0,4,0,1,3,1,0,240,212,1,239,,,,,,,,,,,,,,,,,,
,,0,15,,,,,,,2,6,2,stim/62.jpeg,HouseObjects,2,stim/objects/HouseObjects/cushion2.png,0.3,4,0.2,-0.15,right,1,2020-11-19_19h31.31.614,premup-three_ses-01_part-01_label-phase1,3.2.4,Win32,60,,,4,0,4,0,1,3,1,0,240,157,1,239,,,,,,,,,,,,,,,,,,
,,0,16,,,,,,,1,4,3,stim/43.jpeg,HouseObjects,2,stim/objects/HouseObjects/garbagebin.png,0.5,1,-0.2,0.15,right,1,2020-11-19_19h31.31.614,premup-three_ses-01_part-01_label-phase1,3.2.4,Win32,60,left,1.299000263,4,0,4,0,1,3,1,0,240,70,1,239,,,,,,,,,,,,,,,,,,
,,1,17,,,,,,,3,2,3,stim/23.jpeg,Instruments,1,stim/objects/Instruments/harp2.png,0.9,4,0.2,-0.15,left,1,2020-11-19_19h31.31.614,premup-three_ses-01_part-01_label-phase1,3.2.4,Win32,60,left,0.910000086,4,0,4,0,1,3,1,0,240,222,1,239,,,,,,,,,,,,,,,,,,
,,1,18,,,,,,,3,2,4,stim/24.jpeg,Instruments,1,stim/objects/Instruments/hihat2.png,0.9,3,-0.2,-0.15,left,1,2020-11-19_19h31.31.614,premup-three_ses-01_part-01_label-phase1,3.2.4,Win32,60,left,0.829000235,4,0,4,0,1,3,1,0,240,203,1,239,,,,,,,,,,,,,,,,,,
,,1,19,,,,,,,3,2,1,stim/21.jpeg,Instruments,1,stim/objects/Instruments/guitarcase2.png,0.9,1,-0.2,0.15,left,1,2020-11-19_19h31.31.614,premup-three_ses-01_part-01_label-phase1,3.2.4,Win32,60,left,0.767000198,4,0,4,0,1,3,1,0,240,220,1,239,,,,,,,,,,,,,,,,,,
,,0,20,,,,,,,2,5,2,stim/52.jpeg,HouseObjects,2,stim/objects/HouseObjects/hairdryer.png,0.7,4,0.2,-0.15,right,1,2020-11-19_19h31.31.614,premup-three_ses-01_part-01_label-phase1,3.2.4,Win32,60,left,0.712000132,4,0,4,0,1,3,1,0,240,117,1,239,,,,,,,,,,,,,,,,,,
,,0,21,,,,,,,3,1,2,stim/12.jpeg,HouseObjects,2,stim/objects/HouseObjects/flyswatter2.png,0.9,1,-0.2,0.15,right,1,2020-11-19_19h31.31.614,premup-three_ses-01_part-01_label-phase1,3.2.4,Win32,60,left,0.628000021,4,0,4,0,1,3,1,0,240,169,1,239,,,,,,,,,,,,,,,,,,
,,0,22,,,,,,,2,6,4,stim/64.jpeg,HouseObjects,2,stim/objects/HouseObjects/doormat2.png,0.3,3,-0.2,-0.15,right,1,2020-11-19_19h31.31.614,premup-three_ses-01_part-01_label-phase1,3.2.4,Win32,60,left,0.66899991,4,0,4,0,1,3,1,0,240,159,1,239,,,,,,,,,,,,,,,,,,
,,0,23,,,,,,,3,1,2,stim/12.jpeg,HouseObjects,2,stim/objects/HouseObjects/flyswatter2.png,0.9,4,0.2,-0.15,right,1,2020-11-19_19h31.31.614,premup-three_ses-01_part-01_label-phase1,3.2.4,Win32,60,left,0.890000105,4,0,4,0,1,3,1,0,240,173,1,239,,,,,,,,,,,,,,,,,,
,,1,24,,,,,,,2,6,4,stim/64.jpeg,HouseObjects,2,stim/objects/HouseObjects/doormat2.png,0.3,3,-0.2,-0.15,right,1,2020-11-19_19h31.31.614,premup-three_ses-01_part-01_label-phase1,3.2.4,Win32,60,right,1.093000174,4,0,4,0,1,3,1,0,240,155,1,239,,,,,,,,,,,,,,,,,,
,,1,25,,,,,,,3,2,3,stim/23.jpeg,Instruments,1,stim/objects/Instruments/harp2.png,0.9,3,-0.2,-0.15,left,1,2020-11-19_19h31.31.614,premup-three_ses-01_part-01_label-phase1,3.2.4,Win32,60,left,0.913000107,4,0,4,0,1,3,1,0,240,226,1,239,,,,,,,,,,,,,,,,,,
,,0,26,,,,,,,3,1,1,stim/11.jpeg,HouseObjects,2,stim/objects/HouseObjects/dustpan2.png,0.9,3,-0.2,-0.15,right,1,2020-11-19_19h31.31.614,premup-three_ses-01_part-01_label-phase1,3.2.4,Win32,60,left,1.028000116,4,0,4,0,1,3,1,0,240,164,1,239,,,,,,,,,,,,,,,,,,
,,0,27,,,,,,,2,6,1,stim/61.jpeg,Instruments,1,stim/objects/Instruments/drums2.png,0.7,3,-0.2,-0.15,left,1,2020-11-19_19h31.31.614,premup-three_ses-01_part-01_label-phase1,3.2.4,Win32,60,right,1.079999924,4,0,4,0,1,3,1,0,240,144,1,239,,,,,,,,,,,,,,,,,,
,,0,28,,,,,,,2,5,4,stim/54.jpeg,Instruments,1,stim/objects/Instruments/hihat.png,0.3,2,0.2,0.15,left,1,2020-11-19_19h31.31.614,premup-three_ses-01_part-01_label-phase1,3.2.4,Win32,60,right,1.024000168,4,0,4,0,1,3,1,0,240,83,1,239,,,,,,,,,,,,,,,,,,
,,1,29,,,,,,,1,3,2,stim/32.jpeg,Instruments,1,stim/objects/Instruments/electricdrumset.png,0.5,3,-0.2,-0.15,left,1,2020-11-19_19h31.31.614,premup-three_ses-01_part-01_label-phase1,3.2.4,Win32,60,left,0.920000076,4,0,4,0,1,3,1,0,240,17,1,239,,,,,,,,,,,,,,,,,,
,,0,30,,,,,,,3,2,3,stim/23.jpeg,Instruments,1,stim/objects/Instruments/harp2.png,0.9,2,0.2,0.15,left,1,2020-11-19_19h31.31.614,premup-three_ses-01_part-01_label-phase1,3.2.4,Win32,60,right,1.072000027,4,0,4,0,1,3,1,0,240,202,1,239,,,,,,,,,,,,,,,,,,
,,0,31,,,,,,,1,3,4,stim/34.jpeg,Instruments,1,stim/objects/Instruments/flute.png,0.5,1,-0.2,0.15,left,1,2020-11-19_19h31.31.614,premup-three_ses-01_part-01_label-phase1,3.2.4,Win32,60,right,1.584000111,4,0,4,0,1,3,1,0,240,7,1,239,,,,,,,,,,,,,,,,,,
,,0,32,,,,,,,3,1,4,stim/14.jpeg,HouseObjects,2,stim/objects/HouseObjects/glass2.png,0.9,4,0.2,-0.15,right,1,2020-11-19_19h31.31.614,premup-three_ses-01_part-01_label-phase1,3.2.4,Win32,60,left,1.548000097,4,0,4,0,1,3,1,0,240,199,1,239,,,,,,,,,,,,,,,,,,
,,0,33,,,,,,,3,1,2,stim/12.jpeg,HouseObjects,2,stim/objects/HouseObjects/flyswatter2.png,0.9,4,0.2,-0.15,right,1,2020-11-19_19h31.31.614,premup-three_ses-01_part-01_label-phase1,3.2.4,Win32,60,left,0.881000042,4,0,4,0,1,3,1,0,240,185,1,239,,,,,,,,,,,,,,,,,,
,,1,34,,,,,,,1,4,2,stim/42.jpeg,Instruments,1,stim/objects/Instruments/frenchhorn.png,0.5,1,-0.2,0.15,left,1,2020-11-19_19h31.31.614,premup-three_ses-01_part-01_label-phase1,3.2.4,Win32,60,left,0.844000101,4,0,4,0,1,3,1,0,240,41,1,239,,,,,,,,,,,,,,,,,,
,,1,35,,,,,,,3,2,1,stim/21.jpeg,Instruments,1,stim/objects/Instruments/guitarcase2.png,0.9,4,0.2,-0.15,left,1,2020-11-19_19h31.31.614,premup-three_ses-01_part-01_label-phase1,3.2.4,Win32,60,left,0.992000103,4,0,4,0,1,3,1,0,240,208,1,239,,,,,,,,,,,,,,,,,,
,,0,36,,,,,,,1,3,2,stim/32.jpeg,HouseObjects,2,stim/objects/HouseObjects/cushion.png,0.5,2,0.2,0.15,right,1,2020-11-19_19h31.31.614,premup-three_ses-01_part-01_label-phase1,3.2.4,Win32,60,left,0.997000217,4,0,4,0,1,3,1,0,240,21,1,239,,,,,,,,,,,,,,,,,,
,,0,37,,,,,,,1,4,2,stim/42.jpeg,HouseObjects,2,stim/objects/HouseObjects/flyswatter.png,0.5,3,-0.2,-0.15,right,1,2020-11-19_19h31.31.614,premup-three_ses-01_part-01_label-phase1,3.2.4,Win32,60,left,1.058000088,4,0,4,0,1,3,1,0,240,77,1,239,,,,,,,,,,,,,,,,,,
,,1,38,,,,,,,1,3,3,stim/33.jpeg,HouseObjects,2,stim/objects/HouseObjects/dishsoap.png,0.5,4,0.2,-0.15,right,1,2020-11-19_19h31.31.614,premup-three_ses-01_part-01_label-phase1,3.2.4,Win32,60,right,0.753000021,4,0,4,0,1,3,1,0,240,22,1,239,,,,,,,,,,,,,,,,,,
,,0,39,,,,,,,1,4,4,stim/44.jpeg,HouseObjects,2,stim/objects/HouseObjects/glass.png,0.5,4,0.2,-0.15,right,1,2020-11-19_19h31.31.614,premup-three_ses-01_part-01_label-phase1,3.2.4,Win32,60,left,0.887000084,4,0,4,0,1,3,1,0,240,63,1,239,,,,,,,,,,,,,,,,,,
,,1,40,,,,,,,1,4,2,stim/42.jpeg,HouseObjects,2,stim/objects/HouseObjects/flyswatter.png,0.5,3,-0.2,-0.15,right,1,2020-11-19_19h31.31.614,premup-three_ses-01_part-01_label-phase1,3.2.4,Win32,60,right,1.491999865,4,0,4,0,1,3,1,0,240,73,1,239,,,,,,,,,,,,,,,,,,
,,1,41,,,,,,,2,5,1,stim/51.jpeg,HouseObjects,2,stim/objects/HouseObjects/glassmop.png,0.7,1,-0.2,0.15,right,1,2020-11-19_19h31.31.614,premup-three_ses-01_part-01_label-phase1,3.2.4,Win32,60,right,0.692000151,4,0,4,0,1,3,1,0,240,116,1,239,,,,,,,,,,,,,,,,,,
,,0,42,,,,,,,3,2,2,stim/22.jpeg,HouseObjects,2,stim/objects/HouseObjects/hairdryer2.png,0.1,4,0.2,-0.15,right,1,2020-11-19_19h31.31.614,premup-three_ses-01_part-01_label-phase1,3.2.4,Win32,60,left,0.729000092,4,0,4,0,1,3,1,0,240,237,1,239,,,,,,,,,,,,,,,,,,
,,1,43,,,,,,,3,1,4,stim/14.jpeg,HouseObjects,2,stim/objects/HouseObjects/glass2.png,0.9,4,0.2,-0.15,right,1,2020-11-19_19h31.31.614,premup-three_ses-01_part-01_label-phase1,3.2.4,Win32,60,right,1.076000214,4,0,4,0,1,3,1,0,240,175,1,239,,,,,,,,,,,,,,,,,,
,,1,44,,,,,,,3,2,3,stim/23.jpeg,Instruments,1,stim/objects/Instruments/harp2.png,0.9,1,-0.2,0.15,left,1,2020-11-19_19h31.31.614,premup-three_ses-01_part-01_label-phase1,3.2.4,Win32,60,left,0.72300005,4,0,4,0,1,3,1,0,240,218,1,239,,,,,,,,,,,,,,,,,,
,,1,45,,,,,,,3,2,3,stim/23.jpeg,Instruments,1,stim/objects/Instruments/harp2.png,0.9,2,0.2,0.15,left,1,2020-11-19_19h31.31.614,premup-three_ses-01_part-01_label-phase1,3.2.4,Win32,60,left,1.18200016,4,0,4,0,1,3,1,0,240,234,1,239,,,,,,,,,,,,,,,,,,
,,0,46,,,,,,,1,3,4,stim/34.jpeg,Instruments,1,stim/objects/Instruments/flute.png,0.5,1,-0.2,0.15,left,1,2020-11-19_19h31.31.614,premup-three_ses-01_part-01_label-phase1,3.2.4,Win32,60,right,0.962000132,4,0,4,0,1,3,1,0,240,19,1,239,,,,,,,,,,,,,,,,,,
,,1,47,,,,,,,2,5,4,stim/54.jpeg,HouseObjects,2,stim/objects/HouseObjects/handvacuum.png,0.7,1,-0.2,0.15,right,1,2020-11-19_19h31.31.614,premup-three_ses-01_part-01_label-phase1,3.2.4,Win32,60,right,0.703999996,4,0,4,0,1,3,1,0,240,119,1,239,,,,,,,,,,,,,,,,,,
,,0,48,,,,,,,1,3,4,stim/34.jpeg,Instruments,1,stim/objects/Instruments/flute.png,0.5,1,-0.2,0.15,left,1,2020-11-19_19h31.31.614,premup-three_ses-01_part-01_label-phase1,3.2.4,Win32,60,right,1.084000111,4,0,4,0,1,3,1,0,240,11,1,239,,,,,,,,,,,,,,,,,,
,,1,49,,,,,,,1,3,3,stim/33.jpeg,HouseObjects,2,stim/objects/HouseObjects/dishsoap.png,0.5,1,-0.2,0.15,right,1,2020-11-19_19h31.31.614,premup-three_ses-01_part-01_label-phase1,3.2.4,Win32,60,right,1.249000072,4,0,4,0,1,3,1,0,240,34,1,239,,,,,,,,,,,,,,,,,,
,,1,50,,,,,,,2,6,3,stim/63.jpeg,Instruments,1,stim/objects/Instruments/electricguitar2.png,0.7,1,-0.2,0.15,left,1,2020-11-19_19h31.31.614,premup-three_ses-01_part-01_label-phase1,3.2.4,Win32,60,left,0.983999968,4,0,4,0,1,3,1,0,240,146,1,239,,,,,,,,,,,,,,,,,,
,,1,51,,,,,,,1,4,3,stim/43.jpeg,Instruments,1,stim/objects/Instruments/gong.png,0.5,4,0.2,-0.15,left,1,2020-11-19_19h31.31.614,premup-three_ses-01_part-01_label-phase1,3.2.4,Win32,60,left,0.837000132,4,0,4,0,1,3,1,0,240,42,1,239,,,,,,,,,,,,,,,,,,
,,1,52,,,,,,,3,1,1,stim/11.jpeg,HouseObjects,2,stim/objects/HouseObjects/dustpan2.png,0.9,1,-0.2,0.15,right,1,2020-11-19_19h31.31.614,premup-three_ses-01_part-01_label-phase1,3.2.4,Win32,60,right,0.845000029,4,0,4,0,1,3,1,0,240,188,1,239,,,,,,,,,,,,,,,,,,
,,1,53,,,,,,,2,5,2,stim/52.jpeg,Instruments,1,stim/objects/Instruments/harmonica.png,0.3,2,0.2,0.15,left,1,2020-11-19_19h31.31.614,premup-three_ses-01_part-01_label-phase1,3.2.4,Win32,60,left,1.282000065,4,0,4,0,1,3,1,0,240,85,1,239,,,,,,,,,,,,,,,,,,
,,1,54,,,,,,,3,1,3,stim/13.jpeg,HouseObjects,2,stim/objects/HouseObjects/garbagebin2.png,0.9,3,-0.2,-0.15,right,1,2020-11-19_19h31.31.614,premup-three_ses-01_part-01_label-phase1,3.2.4,Win32,60,right,1.236000061,4,0,4,0,1,3,1,0,240,190,1,239,,,,,,,,,,,,,,,,,,
,,1,55,,,,,,,3,2,3,stim/23.jpeg,Instruments,1,stim/objects/Instruments/harp2.png,0.9,3,-0.2,-0.15,left,1,2020-11-19_19h31.31.614,premup-three_ses-01_part-01_label-phase1,3.2.4,Win32,60,left,1.070000172,4,0,4,0,1,3,1,0,240,230,1,239,,,,,,,,,,,,,,,,,,
,,0,56,,,,,,,2,6,4,stim/64.jpeg,HouseObjects,2,stim/objects/HouseObjects/doormat2.png,0.3,4,0.2,-0.15,right,1,2020-11-19_19h31.31.614,premup-three_ses-01_part-01_label-phase1,3.2.4,Win32,60,left,0.73300004,4,0,4,0,1,3,1,0,240,151,1,239,,,,,,,,,,,,,,,,,,
,,1,57,,,,,,,1,3,3,stim/33.jpeg,Instruments,1,stim/objects/Instruments/electricguitar.png,0.5,3,-0.2,-0.15,left,1,2020-11-19_19h31.31.614,premup-three_ses-01_part-01_label-phase1,3.2.4,Win32,60,left,0.924000025,4,0,4,0,1,3,1,0,240,10,1,239,,,,,,,,,,,,,,,,,,
,,0,58,,,,,,,2,6,4,stim/64.jpeg,Instruments,1,stim/objects/Instruments/flute2.png,0.7,2,0.2,0.15,left,1,2020-11-19_19h31.31.614,premup-three_ses-01_part-01_label-phase1,3.2.4,Win32,60,right,0.826000214,4,0,4,0,1,3,1,0,240,131,1,239,,,,,,,,,,,,,,,,,,
,,1,59,,,,,,,3,2,1,stim/21.jpeg,Instruments,1,stim/objects/Instruments/guitarcase2.png,0.9,3,-0.2,-0.15,left,1,2020-11-19_19h31.31.614,premup-three_ses-01_part-01_label-phase1,3.2.4,Win32,60,left,0.655999899,4,0,4,0,1,3,1,0,240,200,1,239,,,,,,,,,,,,,,,,,,
,,1,60,,,,,,,3,1,4,stim/14.jpeg,HouseObjects,2,stim/objects/HouseObjects/glass2.png,0.9,1,-0.2,0.15,right,1,2020-11-19_19h31.31.614,premup-three_ses-01_part-01_label-phase1,3.2.4,Win32,60,right,0.793000221,4,0,4,0,1,3,1,0,240,183,1,239,,,,,,,,,,,,,,,,,,
,,1,61,,,,,,,1,3,1,stim/31.jpeg,Instruments,1,stim/objects/Instruments/drums.png,0.5,2,0.2,0.15,left,1,2020-11-19_19h31.31.614,premup-three_ses-01_part-01_label-phase1,3.2.4,Win32,60,left,0.897000074,4,0,4,0,1,3,1,0,240,8,1,239,,,,,,,,,,,,,,,,,,
,,0,62,,,,,,,2,6,3,stim/63.jpeg,Instruments,1,stim/objects/Instruments/electricguitar2.png,0.7,2,0.2,0.15,left,1,2020-11-19_19h31.31.614,premup-three_ses-01_part-01_label-phase1,3.2.4,Win32,60,right,1.093000174,4,0,4,0,1,3,1,0,240,138,1,239,,,,,,,,,,,,,,,,,,
,,0,63,,,,,,,3,2,3,stim/23.jpeg,HouseObjects,2,stim/objects/HouseObjects/handbrush2.png,0.1,1,-0.2,0.15,right,1,2020-11-19_19h31.31.614,premup-three_ses-01_part-01_label-phase1,3.2.4,Win32,60,left,0.376000166,4,0,4,0,1,3,1,0,240,238,1,239,,,,,,,,,,,,,,,,,,
,,1,64,,,,,,,2,5,3,stim/53.jpeg,HouseObjects,2,stim/objects/HouseObjects/handbrush.png,0.7,1,-0.2,0.15,right,1,2020-11-19_19h31.31.614,premup-three_ses-01_part-01_label-phase1,3.2.4,Win32,60,right,0.899000168,4,0,4,0,1,3,1,0,240,110,1,239,,,,,,,,,,,,,,,,,,
,,1,65,,,,,,,1,3,4,stim/34.jpeg,Instruments,1,stim/objects/Instruments/flute.png,0.5,3,-0.2,-0.15,left,1,2020-11-19_19h31.31.614,premup-three_ses-01_part-01_label-phase1,3.2.4,Win32,60,left,0.630000114,4,0,4,0,1,3,1,0,240,15,1,239,,,,,,,,,,,,,,,,,,
,,1,66,,,,,,,2,6,1,stim/61.jpeg,HouseObjects,2,stim/objects/HouseObjects/coffee2.png,0.3,1,-0.2,0.15,right,1,2020-11-19_19h31.31.614,premup-three_ses-01_part-01_label-phase1,3.2.4,Win32,60,right,0.687000036,4,0,4,0,1,3,1,0,240,152,1,239,,,,,,,,,,,,,,,,,,
,,1,67,,,,,,,1,3,4,stim/34.jpeg,HouseObjects,2,stim/objects/HouseObjects/doormat.png,0.5,1,-0.2,0.15,right,1,2020-11-19_19h31.31.614,premup-three_ses-01_part-01_label-phase1,3.2.4,Win32,60,right,0.800000191,4,0,4,0,1,3,1,0,240,27,1,239,,,,,,,,,,,,,,,,,,
,,1,68,,,,,,,3,1,1,stim/11.jpeg,Instruments,1,stim/objects/Instruments/flutetrans2.png,0.1,3,-0.2,-0.15,left,1,2020-11-19_19h31.31.614,premup-three_ses-01_part-01_label-phase1,3.2.4,Win32,60,left,0.633000135,4,0,4,0,1,3,1,0,240,160,1,239,,,,,,,,,,,,,,,,,,
,,1,69,,,,,,,3,1,4,stim/14.jpeg,HouseObjects,2,stim/objects/HouseObjects/glass2.png,0.9,4,0.2,-0.15,right,1,2020-11-19_19h31.31.614,premup-three_ses-01_part-01_label-phase1,3.2.4,Win32,60,right,0.631000042,4,0,4,0,1,3,1,0,240,179,1,239,,,,,,,,,,,,,,,,,,
,,0,70,,,,,,,1,4,1,stim/41.jpeg,HouseObjects,2,stim/objects/HouseObjects/dustpan.png,0.5,2,0.2,0.15,right,1,2020-11-19_19h31.31.614,premup-three_ses-01_part-01_label-phase1,3.2.4,Win32,60,left,0.693000078,4,0,4,0,1,3,1,0,240,64,1,239,,,,,,,,,,,,,,,,,,
,,0,71,,,,,,,3,1,3,stim/13.jpeg,HouseObjects,2,stim/objects/HouseObjects/garbagebin2.png,0.9,2,0.2,0.15,right,1,2020-11-19_19h31.31.614,premup-three_ses-01_part-01_label-phase1,3.2.4,Win32,60,left,0.661000013,4,0,4,0,1,3,1,0,240,194,1,239,,,,,,,,,,,,,,,,,,
,,1,72,,,,,,,2,6,1,stim/61.jpeg,HouseObjects,2,stim/objects/HouseObjects/coffee2.png,0.3,4,0.2,-0.15,right,1,2020-11-19_19h31.31.614,premup-three_ses-01_part-01_label-phase1,3.2.4,Win32,60,right,0.73300004,4,0,4,0,1,3,1,0,240,156,1,239,,,,,,,,,,,,,,,,,,
,,1,73,,,,,,,3,1,2,stim/12.jpeg,HouseObjects,2,stim/objects/HouseObjects/flyswatter2.png,0.9,1,-0.2,0.15,right,1,2020-11-19_19h31.31.614,premup-three_ses-01_part-01_label-phase1,3.2.4,Win32,60,right,0.776000261,4,0,4,0,1,3,1,0,240,181,1,239,,,,,,,,,,,,,,,,,,
,,0,74,,,,,,,2,6,3,stim/63.jpeg,HouseObjects,2,stim/objects/HouseObjects/dishsoap2.png,0.3,2,0.2,0.15,right,1,2020-11-19_19h31.31.614,premup-three_ses-01_part-01_label-phase1,3.2.4,Win32,60,left,0.774000168,4,0,4,0,1,3,1,0,240,154,1,239,,,,,,,,,,,,,,,,,,
,,1,75,,,,,,,1,4,2,stim/42.jpeg,HouseObjects,2,stim/objects/HouseObjects/flyswatter.png,0.5,1,-0.2,0.15,right,1,2020-11-19_19h31.31.614,premup-three_ses-01_part-01_label-phase1,3.2.4,Win32,60,right,0.738000154,4,0,4,0,1,3,1,0,240,61,1,239,,,,,,,,,,,,,,,,,,
,,0,76,,,,,,,2,6,4,stim/64.jpeg,Instruments,1,stim/objects/Instruments/flute2.png,0.7,1,-0.2,0.15,left,1,2020-11-19_19h31.31.614,premup-three_ses-01_part-01_label-phase1,3.2.4,Win32,60,right,0.754000187,4,0,4,0,1,3,1,0,240,139,1,239,,,,,,,,,,,,,,,,,,
,,0,77,,,,,,,2,5,4,stim/54.jpeg,HouseObjects,2,stim/objects/HouseObjects/handvacuum.png,0.7,2,0.2,0.15,right,1,2020-11-19_19h31.31.614,premup-three_ses-01_part-01_label-phase1,3.2.4,Win32,60,left,0.792000055,4,0,4,0,1,3,1,0,240,95,1,239,,,,,,,,,,,,,,,,,,
,,0,78,,,,,,,1,4,2,stim/42.jpeg,Instruments,1,stim/objects/Instruments/frenchhorn.png,0.5,2,0.2,0.15,left,1,2020-11-19_19h31.31.614,premup-three_ses-01_part-01_label-phase1,3.2.4,Win32,60,right,1.671000242,4,0,4,0,1,3,1,0,240,45,1,239,,,,,,,,,,,,,,,,,,
,,1,79,,,,,,,2,5,4,stim/54.jpeg,HouseObjects,2,stim/objects/HouseObjects/handvacuum.png,0.7,4,0.2,-0.15,right,1,2020-11-19_19h31.31.614,premup-three_ses-01_part-01_label-phase1,3.2.4,Win32,60,right,0.675000191,4,0,4,0,1,3,1,0,240,99,1,239,,,,,,,,,,,,,,,,,,
,,1,80,,,,,,,2,5,4,stim/54.jpeg,HouseObjects,2,stim/objects/HouseObjects/handvacuum.png,0.7,1,-0.2,0.15,right,1,2020-11-19_19h31.31.614,premup-three_ses-01_part-01_label-phase1,3.2.4,Win32,60,right,0.559999943,4,0,4,0,1,3,1,0,240,107,1,239,,,,,,,,,,,,,,,,,,
,,0,81,,,,,,,1,3,2,stim/32.jpeg,HouseObjects,2,stim/objects/HouseObjects/cushion.png,0.5,4,0.2,-0.15,right,1,2020-11-19_19h31.31.614,premup-three_ses-01_part-01_label-phase1,3.2.4,Win32,60,left,0.664000273,4,0,4,0,1,3,1,0,240,33,1,239,,,,,,,,,,,,,,,,,,
,,0,82,,,,,,,1,4,4,stim/44.jpeg,Instruments,1,stim/objects/Instruments/grandpiano.png,0.5,2,0.2,0.15,left,1,2020-11-19_19h31.31.614,premup-three_ses-01_part-01_label-phase1,3.2.4,Win32,60,right,1.205000162,4,0,4,0,1,3,1,0,240,59,1,239,,,,,,,,,,,,,,,,,,
,,1,83,,,,,,,3,2,4,stim/24.jpeg,Instruments,1,stim/objects/Instruments/hihat2.png,0.9,3,-0.2,-0.15,left,1,2020-11-19_19h31.31.614,premup-three_ses-01_part-01_label-phase1,3.2.4,Win32,60,left,0.88800025,4,0,4,0,1,3,1,0,240,211,1,239,,,,,,,,,,,,,,,,,,
,,1,84,,,,,,,1,3,4,stim/34.jpeg,HouseObjects,2,stim/objects/HouseObjects/doormat.png,0.5,1,-0.2,0.15,right,1,2020-11-19_19h31.31.614,premup-three_ses-01_part-01_label-phase1,3.2.4,Win32,60,right,1.125000238,4,0,4,0,1,3,1,0,240,23,1,239,,,,,,,,,,,,,,,,,,
,,0,85,,,,,,,2,5,2,stim/52.jpeg,HouseObjects,2,stim/objects/HouseObjects/hairdryer.png,0.7,2,0.2,0.15,right,1,2020-11-19_19h31.31.614,premup-three_ses-01_part-01_label-phase1,3.2.4,Win32,60,left,1.584000111,4,0,4,0,1,3,1,0,240,101,1,239,,,,,,,,,,,,,,,,,,
,,1,86,,,,,,,3,1,4,stim/14.jpeg,HouseObjects,2,stim/objects/HouseObjects/glass2.png,0.9,3,-0.2,-0.15,right,1,2020-11-19_19h31.31.614,premup-three_ses-01_part-01_label-phase1,3.2.4,Win32,60,right,0.656000137,4,0,4,0,1,3,1,0,240,195,1,239,,,,,,,,,,,,,,,,,,
,,0,87,,,,,,,2,5,1,stim/51.jpeg,HouseObjects,2,stim/objects/HouseObjects/glassmop.png,0.7,4,0.2,-0.15,right,1,2020-11-19_19h31.31.614,premup-three_ses-01_part-01_label-phase1,3.2.4,Win32,60,left,0.670000076,4,0,4,0,1,3,1,0,240,96,1,239,,,,,,,,,,,,,,,,,,
,,1,88,,,,,,,2,6,1,stim/61.jpeg,HouseObjects,2,stim/objects/HouseObjects/coffee2.png,0.3,4,0.2,-0.15,right,1,2020-11-19_19h31.31.614,premup-three_ses-01_part-01_label-phase1,3.2.4,Win32,60,right,0.887000084,4,0,4,0,1,3,1,0,240,148,1,239,,,,,,,,,,,,,,,,,,
,,1,89,,,,,,,3,1,4,stim/14.jpeg,HouseObjects,2,stim/objects/HouseObjects/glass2.png,0.9,3,-0.2,-0.15,right,1,2020-11-19_19h31.31.614,premup-three_ses-01_part-01_label-phase1,3.2.4,Win32,60,right,0.769999981,4,0,4,0,1,3,1,0,240,191,1,239,,,,,,,,,,,,,,,,,,
,,1,90,,,,,,,2,5,1,stim/51.jpeg,HouseObjects,2,stim/objects/HouseObjects/glassmop.png,0.7,4,0.2,-0.15,right,1,2020-11-19_19h31.31.614,premup-three_ses-01_part-01_label-phase1,3.2.4,Win32,60,right,0.925000191,4,0,4,0,1,3,1,0,240,104,1,239,,,,,,,,,,,,,,,,,,
,,1,91,,,,,,,2,5,4,stim/54.jpeg,HouseObjects,2,stim/objects/HouseObjects/handvacuum.png,0.7,4,0.2,-0.15,right,1,2020-11-19_19h31.31.614,premup-three_ses-01_part-01_label-phase1,3.2.4,Win32,60,right,0.772000313,4,0,4,0,1,3,1,0,240,115,1,239,,,,,,,,,,,,,,,,,,
,,1,92,,,,,,,2,5,3,stim/53.jpeg,HouseObjects,2,stim/objects/HouseObjects/handbrush.png,0.7,4,0.2,-0.15,right,1,2020-11-19_19h31.31.614,premup-three_ses-01_part-01_label-phase1,3.2.4,Win32,60,right,0.452000141,4,0,4,0,1,3,1,0,240,98,1,239,,,,,,,,,,,,,,,,,,
,,1,93,,,,,,,3,2,4,stim/24.jpeg,Instruments,1,stim/objects/Instruments/hihat2.png,0.9,2,0.2,0.15,left,1,2020-11-19_19h31.31.614,premup-three_ses-01_part-01_label-phase1,3.2.4,Win32,60,left,0.526000023,4,0,4,0,1,3,1,0,240,235,1,239,,,,,,,,,,,,,,,,,,
,,0,94,,,,,,,3,1,1,stim/11.jpeg,HouseObjects,2,stim/objects/HouseObjects/dustpan2.png,0.9,4,0.2,-0.15,right,1,2020-11-19_19h31.31.614,premup-three_ses-01_part-01_label-phase1,3.2.4,Win32,60,left,1.036000252,4,0,4,0,1,3,1,0,240,196,1,239,,,,,,,,,,,,,,,,,,
,,1,95,,,,,,,2,5,1,stim/51.jpeg,HouseObjects,2,stim/objects/HouseObjects/glassmop.png,0.7,1,-0.2,0.15,right,1,2020-11-19_19h31.31.614,premup-three_ses-01_part-01_label-phase1,3.2.4,Win32,60,right,0.861999989,4,0,4,0,1,3,1,0,240,92,1,239,,,,,,,,,,,,,,,,,,
,,1,96,,,,,,,2,5,3,stim/53.jpeg,HouseObjects,2,stim/objects/HouseObjects/handbrush.png,0.7,3,-0.2,-0.15,right,1,2020-11-19_19h31.31.614,premup-three_ses-01_part-01_label-phase1,3.2.4,Win32,60,right,0.623000145,4,0,4,0,1,3,1,0,240,118,1,239,,,,,,,,,,,,,,,,,,
,,1,97,,,,,,,3,2,2,stim/22.jpeg,Instruments,1,stim/objects/Instruments/harmonica2.png,0.9,2,0.2,0.15,left,1,2020-11-19_19h31.31.614,premup-three_ses-01_part-01_label-phase1,3.2.4,Win32,60,left,0.897000074,4,0,4,0,1,3,1,0,240,205,1,239,,,,,,,,,,,,,,,,,,
,,1,98,,,,,,,1,4,4,stim/44.jpeg,Instruments,1,stim/objects/Instruments/grandpiano.png,0.5,2,0.2,0.15,left,1,2020-11-19_19h31.31.614,premup-three_ses-01_part-01_label-phase1,3.2.4,Win32,60,left,0.197999954,4,0,4,0,1,3,1,0,240,47,1,239,,,,,,,,,,,,,,,,,,
,,1,99,,,,,,,1,3,2,stim/32.jpeg,HouseObjects,2,stim/objects/HouseObjects/cushion.png,0.5,1,-0.2,0.15,right,1,2020-11-19_19h31.31.614,premup-three_ses-01_part-01_label-phase1,3.2.4,Win32,60,right,1.207000017,4,0,4,0,1,3,1,0,240,25,1,239,,,,,,,,,,,,,,,,,,
,,0,100,,,,,,,1,3,3,stim/33.jpeg,Instruments,1,stim/objects/Instruments/electricguitar.png,0.5,2,0.2,0.15,left,1,2020-11-19_19h31.31.614,premup-three_ses-01_part-01_label-phase1,3.2.4,Win32,60,right,0.609999895,4,0,4,0,1,3,1,0,240,6,1,239,,,,,,,,,,,,,,,,,,
,,0,101,,,,,,,1,4,4,stim/44.jpeg,HouseObjects,2,stim/objects/HouseObjects/glass.png,0.5,3,-0.2,-0.15,right,1,2020-11-19_19h31.31.614,premup-three_ses-01_part-01_label-phase1,3.2.4,Win32,60,left,0.836999893,4,0,4,0,1,3,1,0,240,75,1,239,,,,,,,,,,,,,,,,,,
,,0,102,,,,,,,2,6,2,stim/62.jpeg,Instruments,1,stim/objects/Instruments/electricdrumset2.png,0.7,3,-0.2,-0.15,left,1,2020-11-19_19h31.31.614,premup-three_ses-01_part-01_label-phase1,3.2.4,Win32,60,right,0.872000217,4,0,4,0,1,3,1,0,240,145,1,239,,,,,,,,,,,,,,,,,,
,,0,103,,,,,,,1,4,4,stim/44.jpeg,Instruments,1,stim/objects/Instruments/grandpiano.png,0.5,4,0.2,-0.15,left,1,2020-11-19_19h31.31.614,premup-three_ses-01_part-01_label-phase1,3.2.4,Win32,60,right,0.950000048,4,0,4,0,1,3,1,0,240,55,1,239,,,,,,,,,,,,,,,,,,
,,0,104,,,,,,,2,5,2,stim/52.jpeg,Instruments,1,stim/objects/Instruments/harmonica.png,0.3,3,-0.2,-0.15,left,1,2020-11-19_19h31.31.614,premup-three_ses-01_part-01_label-phase1,3.2.4,Win32,60,right,0.751000166,4,0,4,0,1,3,1,0,240,89,1,239,,,,,,,,,,,,,,,,,,
,,1,105,,,,,,,3,2,3,stim/23.jpeg,Instruments,1,stim/objects/Instruments/harp2.png,0.9,4,0.2,-0.15,left,1,2020-11-19_19h31.31.614,premup-three_ses-01_part-01_label-phase1,3.2.4,Win32,60,left,1.11500001,4,0,4,0,1,3,1,0,240,210,1,239,,,,,,,,,,,,,,,,,,
,,1,106,,,,,,,3,2,1,stim/21.jpeg,Instruments,1,stim/objects/Instruments/guitarcase2.png,0.9,2,0.2,0.15,left,1,2020-11-19_19h31.31.614,premup-three_ses-01_part-01_label-phase1,3.2.4,Win32,60,left,0.609000206,4,0,4,0,1,3,1,0,240,232,1,239,,,,,,,,,,,,,,,,,,
,,1,107,,,,,,,3,1,3,stim/13.jpeg,HouseObjects,2,stim/objects/HouseObjects/garbagebin2.png,0.9,4,0.2,-0.15,right,1,2020-11-19_19h31.31.614,premup-three_ses-01_part-01_label-phase1,3.2.4,Win32,60,right,0.674000025,4,0,4,0,1,3,1,0,240,170,1,239,,,,,,,,,,,,,,,,,,
,,0,108,,,,,,,2,6,2,stim/62.jpeg,Instruments,1,stim/objects/Instruments/electricdrumset2.png,0.7,2,0.2,0.15,left,1,2020-11-19_19h31.31.614,premup-three_ses-01_part-01_label-phase1,3.2.4,Win32,60,right,0.969000101,4,0,4,0,1,3,1,0,240,141,1,239,,,,,,,,,,,,,,,,,,
,,0,109,,,,,,,1,3,2,stim/32.jpeg,Instruments,1,stim/objects/Instruments/electricdrumset.png,0.5,1,-0.2,0.15,left,1,2020-11-19_19h31.31.614,premup-three_ses-01_part-01_label-phase1,3.2.4,Win32,60,right,1.177000046,4,0,4,0,1,3,1,0,240,1,1,239,,,,,,,,,,,,,,,,,,
,,1,110,,,,,,,1,3,1,stim/31.jpeg,HouseObjects,2,stim/objects/HouseObjects/coffee.png,0.5,4,0.2,-0.15,right,1,2020-11-19_19h31.31.614,premup-three_ses-01_part-01_label-phase1,3.2.4,Win32,60,right,0.628999949,4,0,4,0,1,3,1,0,240,28,1,239,,,,,,,,,,,,,,,,,,
,,0,111,,,,,,,3,1,1,stim/11.jpeg,HouseObjects,2,stim/objects/HouseObjects/dustpan2.png,0.9,2,0.2,0.15,right,1,2020-11-19_19h31.31.614,premup-three_ses-01_part-01_label-phase1,3.2.4,Win32,60,left,0.684000254,4,0,4,0,1,3,1,0,240,176,1,239,,,,,,,,,,,,,,,,,,
,,1,112,,,,,,,1,3,4,stim/34.jpeg,HouseObjects,2,stim/objects/HouseObjects/doormat.png,0.5,1,-0.2,0.15,right,1,2020-11-19_19h31.31.614,premup-three_ses-01_part-01_label-phase1,3.2.4,Win32,60,right,0.607000113,4,0,4,0,1,3,1,0,240,35,1,239,,,,,,,,,,,,,,,,,,
,,1,113,,,,,,,1,3,1,stim/31.jpeg,HouseObjects,2,stim/objects/HouseObjects/coffee.png,0.5,4,0.2,-0.15,right,1,2020-11-19_19h31.31.614,premup-three_ses-01_part-01_label-phase1,3.2.4,Win32,60,right,0.759000063,4,0,4,0,1,3,1,0,240,20,1,239,,,,,,,,,,,,,,,,,,
,,0,114,,,,,,,1,3,1,stim/31.jpeg,Instruments,1,stim/objects/Instruments/drums.png,0.5,3,-0.2,-0.15,left,1,2020-11-19_19h31.31.614,premup-three_ses-01_part-01_label-phase1,3.2.4,Win32,60,right,0.565000057,4,0,4,0,1,3,1,0,240,16,1,239,,,,,,,,,,,,,,,,,,
,,1,115,,,,,,,1,3,2,stim/32.jpeg,HouseObjects,2,stim/objects/HouseObjects/cushion.png,0.5,4,0.2,-0.15,right,1,2020-11-19_19h31.31.614,premup-three_ses-01_part-01_label-phase1,3.2.4,Win32,60,right,0.605000019,4,0,4,0,1,3,1,0,240,29,1,239,,,,,,,,,,,,,,,,,,
,,1,116,,,,,,,2,5,2,stim/52.jpeg,HouseObjects,2,stim/objects/HouseObjects/hairdryer.png,0.7,3,-0.2,-0.15,right,1,2020-11-19_19h31.31.614,premup-three_ses-01_part-01_label-phase1,3.2.4,Win32,60,right,0.776000261,4,0,4,0,1,3,1,0,240,109,1,239,,,,,,,,,,,,,,,,,,
,,0,117,,,,,,,3,1,2,stim/12.jpeg,Instruments,1,stim/objects/Instruments/frenchhorn2.png,0.1,2,0.2,0.15,left,1,2020-11-19_19h31.31.614,premup-three_ses-01_part-01_label-phase1,3.2.4,Win32,60,right,0.988000154,4,0,4,0,1,3,1,0,240,161,1,239,,,,,,,,,,,,,,,,,,
,,0,118,,,,,,,2,5,1,stim/51.jpeg,Instruments,1,stim/objects/Instruments/guitarcase.png,0.3,1,-0.2,0.15,left,1,2020-11-19_19h31.31.614,premup-three_ses-01_part-01_label-phase1,3.2.4,Win32,60,right,0.644999981,4,0,4,0,1,3,1,0,240,88,1,239,,,,,,,,,,,,,,,,,,
,,1,119,,,,,,,2,5,1,stim/51.jpeg,HouseObjects,2,stim/objects/HouseObjects/glassmop.png,0.7,1,-0.2,0.15,right,1,2020-11-19_19h31.31.614,premup-three_ses-01_part-01_label-phase1,3.2.4,Win32,60,right,0.437000036,4,0,4,0,1,3,1,0,240,112,1,239,,,,,,,,,,,,,,,,,,
,,0,120,,,,,,,3,1,4,stim/14.jpeg,Instruments,1,stim/objects/Instruments/grandpiano2.png,0.1,4,0.2,-0.15,left,1,2020-11-19_19h31.31.614,premup-three_ses-01_part-01_label-phase1,3.2.4,Win32,60,right,0.729000092,4,0,4,0,1,3,1,0,240,163,1,239,,,,,,,,,,,,,,,,,,
,,1,121,,,,,,,2,5,3,stim/53.jpeg,HouseObjects,2,stim/objects/HouseObjects/handbrush.png,0.7,2,0.2,0.15,right,1,2020-11-19_19h31.31.614,premup-three_ses-01_part-01_label-phase1,3.2.4,Win32,60,right,0.59100008,4,0,4,0,1,3,1,0,240,106,1,239,,,,,,,,,,,,,,,,,,
,,0,122,,,,,,,1,4,4,stim/44.jpeg,HouseObjects,2,stim/objects/HouseObjects/glass.png,0.5,1,-0.2,0.15,right,1,2020-11-19_19h31.31.614,premup-three_ses-01_part-01_label-phase1,3.2.4,Win32,60,left,0.657000065,4,0,4,0,1,3,1,0,240,79,1,239,,,,,,,,,,,,,,,,,,
,,0,123,,,,,,,2,6,2,stim/62.jpeg,Instruments,1,stim/objects/Instruments/electricdrumset2.png,0.7,2,0.2,0.15,left,1,2020-11-19_19h31.31.614,premup-three_ses-01_part-01_label-phase1,3.2.4,Win32,60,right,0.937999964,4,0,4,0,1,3,1,0,240,121,1,239,,,,,,,,,,,,,,,,,,
,,1,124,,,,,,,3,2,1,stim/21.jpeg,Instruments,1,stim/objects/Instruments/guitarcase2.png,0.9,2,0.2,0.15,left,1,2020-11-19_19h31.31.614,premup-three_ses-01_part-01_label-phase1,3.2.4,Win32,60,left,0.592000246,4,0,4,0,1,3,1,0,240,228,1,239,,,,,,,,,,,,,,,,,,
,,1,125,,,,,,,3,1,1,stim/11.jpeg,HouseObjects,2,stim/objects/HouseObjects/dustpan2.png,0.9,3,-0.2,-0.15,right,1,2020-11-19_19h31.31.614,premup-three_ses-01_part-01_label-phase1,3.2.4,Win32,60,right,0.980000257,4,0,4,0,1,3,1,0,240,172,1,239,,,,,,,,,,,,,,,,,,
,,0,126,,,,,,,2,5,3,stim/53.jpeg,Instruments,1,stim/objects/Instruments/harp.png,0.3,2,0.2,0.15,left,1,2020-11-19_19h31.31.614,premup-three_ses-01_part-01_label-phase1,3.2.4,Win32,60,right,0.429000139,4,0,4,0,1,3,1,0,240,86,1,239,,,,,,,,,,,,,,,,,,
,,0,127,,,,,,,1,4,4,stim/44.jpeg,HouseObjects,2,stim/objects/HouseObjects/glass.png,0.5,1,-0.2,0.15,right,1,2020-11-19_19h31.31.614,premup-three_ses-01_part-01_label-phase1,3.2.4,Win32,60,left,1.085999966,4,0,4,0,1,3,1,0,240,71,1,239,,,,,,,,,,,,,,,,,,
,,1,128,,,,,,,1,3,1,stim/31.jpeg,HouseObjects,2,stim/objects/HouseObjects/coffee.png,0.5,3,-0.2,-0.15,right,1,2020-11-19_19h31.31.614,premup-three_ses-01_part-01_label-phase1,3.2.4,Win32,60,right,1.142000198,4,0,4,0,1,3,1,0,240,24,1,239,,,,,,,,,,,,,,,,,,
,,0,129,,,,,,,2,6,3,stim/63.jpeg,Instruments,1,stim/objects/Instruments/electricguitar2.png,0.7,2,0.2,0.15,left,1,2020-11-19_19h31.31.614,premup-three_ses-01_part-01_label-phase1,3.2.4,Win32,60,right,0.957999945,4,0,4,0,1,3,1,0,240,142,1,239,,,,,,,,,,,,,,,,,,
,,1,130,,,,,,,3,1,4,stim/14.jpeg,HouseObjects,2,stim/objects/HouseObjects/glass2.png,0.9,3,-0.2,-0.15,right,1,2020-11-19_19h31.31.614,premup-three_ses-01_part-01_label-phase1,3.2.4,Win32,60,right,0.927000284,4,0,4,0,1,3,1,0,240,167,1,239,,,,,,,,,,,,,,,,,,
,,1,131,,,,,,,2,6,3,stim/63.jpeg,Instruments,1,stim/objects/Instruments/electricguitar2.png,0.7,3,-0.2,-0.15,left,1,2020-11-19_19h31.31.614,premup-three_ses-01_part-01_label-phase1,3.2.4,Win32,60,left,0.924000025,4,0,4,0,1,3,1,0,240,126,1,239,,,,,,,,,,,,,,,,,,
,,0,132,,,,,,,2,6,2,stim/62.jpeg,HouseObjects,2,stim/objects/HouseObjects/cushion2.png,0.3,3,-0.2,-0.15,right,1,2020-11-19_19h31.31.614,premup-three_ses-01_part-01_label-phase1,3.2.4,Win32,60,left,0.568000078,4,0,4,0,1,3,1,0,240,153,1,239,,,,,,,,,,,,,,,,,,
,,1,133,,,,,,,1,3,3,stim/33.jpeg,HouseObjects,2,stim/objects/HouseObjects/dishsoap.png,0.5,1,-0.2,0.15,right,1,2020-11-19_19h31.31.614,premup-three_ses-01_part-01_label-phase1,3.2.4,Win32,60,right,0.584000111,4,0,4,0,1,3,1,0,240,38,1,239,,,,,,,,,,,,,,,,,,
,,1,134,,,,,,,3,1,3,stim/13.jpeg,HouseObjects,2,stim/objects/HouseObjects/garbagebin2.png,0.9,2,0.2,0.15,right,1,2020-11-19_19h31.31.614,premup-three_ses-01_part-01_label-phase1,3.2.4,Win32,60,right,0.799000025,4,0,4,0,1,3,1,0,240,166,1,239,,,,,,,,,,,,,,,,,,
,,1,135,,,,,,,2,5,2,stim/52.jpeg,HouseObjects,2,stim/objects/HouseObjects/hairdryer.png,0.7,2,0.2,0.15,right,1,2020-11-19_19h31.31.614,premup-three_ses-01_part-01_label-phase1,3.2.4,Win32,60,right,1.013999939,4,0,4,0,1,3,1,0,240,93,1,239,,,,,,,,,,,,,,,,,,
,,0,136,,,,,,,1,3,2,stim/32.jpeg,HouseObjects,2,stim/objects/HouseObjects/cushion.png,0.5,2,0.2,0.15,right,1,2020-11-19_19h31.31.614,premup-three_ses-01_part-01_label-phase1,3.2.4,Win32,60,left,1.147000313,4,0,4,0,1,3,1,0,240,37,1,239,,,,,,,,,,,,,,,,,,
,,1,137,,,,,,,2,5,4,stim/54.jpeg,HouseObjects,2,stim/objects/HouseObjects/handvacuum.png,0.7,4,0.2,-0.15,right,1,2020-11-19_19h31.31.614,premup-three_ses-01_part-01_label-phase1,3.2.4,Win32,60,right,0.534000158,4,0,4,0,1,3,1,0,240,103,1,239,,,,,,,,,,,,,,,,,,
,,1,138,,,,,,,1,4,3,stim/43.jpeg,Instruments,1,stim/objects/Instruments/gong.png,0.5,3,-0.2,-0.15,left,1,2020-11-19_19h31.31.614,premup-three_ses-01_part-01_label-phase1,3.2.4,Win32,60,left,0.828000069,4,0,4,0,1,3,1,0,240,58,1,239,,,,,,,,,,,,,,,,,,
,,1,139,,,,,,,3,2,4,stim/24.jpeg,Instruments,1,stim/objects/Instruments/hihat2.png,0.9,4,0.2,-0.15,left,1,2020-11-19_19h31.31.614,premup-three_ses-01_part-01_label-phase1,3.2.4,Win32,60,left,0.782000065,4,0,4,0,1,3,1,0,240,215,1,239,,,,,,,,,,,,,,,,,,
,,1,140,,,,,,,3,2,2,stim/22.jpeg,Instruments,1,stim/objects/Instruments/harmonica2.png,0.9,4,0.2,-0.15,left,1,2020-11-19_19h31.31.614,premup-three_ses-01_part-01_label-phase1,3.2.4,Win32,60,left,0.444000006,4,0,4,0,1,3,1,0,240,209,1,239,,,,,,,,,,,,,,,,,,
,,0,141,,,,,,,2,6,3,stim/63.jpeg,Instruments,1,stim/objects/Instruments/electricguitar2.png,0.7,4,0.2,-0.15,left,1,2020-11-19_19h31.31.614,premup-three_ses-01_part-01_label-phase1,3.2.4,Win32,60,right,0.703000069,4,0,4,0,1,3,1,0,240,134,1,239,,,,,,,,,,,,,,,,,,
,,1,142,,,,,,,2,5,2,stim/52.jpeg,HouseObjects,2,stim/objects/HouseObjects/hairdryer.png,0.7,3,-0.2,-0.15,right,1,2020-11-19_19h31.31.614,premup-three_ses-01_part-01_label-phase1,3.2.4,Win32,60,right,0.822000027,4,0,4,0,1,3,1,0,240,97,1,239,,,,,,,,,,,,,,,,,,
,,1,143,,,,,,,3,2,1,stim/21.jpeg,Instruments,1,stim/objects/Instruments/guitarcase2.png,0.9,4,0.2,-0.15,left,1,2020-11-19_19h31.31.614,premup-three_ses-01_part-01_label-phase1,3.2.4,Win32,60,left,0.876000166,4,0,4,0,1,3,1,0,240,204,1,239,,,,,,,,,,,,,,,,,,
,,1,144,,,,,,,3,2,2,stim/22.jpeg,Instruments,1,stim/objects/Instruments/harmonica2.png,0.9,3,-0.2,-0.15,left,1,2020-11-19_19h31.31.614,premup-three_ses-01_part-01_label-phase1,3.2.4,Win32,60,left,0.499000072,4,0,4,0,1,3,1,0,240,213,1,239,,,,,,,,,,,,,,,,,,
,,0,145,,,,,,,1,4,3,stim/43.jpeg,HouseObjects,2,stim/objects/HouseObjects/garbagebin.png,0.5,4,0.2,-0.15,right,1,2020-11-19_19h31.31.614,premup-three_ses-01_part-01_label-phase1,3.2.4,Win32,60,left,1.095000029,4,0,4,0,1,3,1,0,240,66,1,239,,,,,,,,,,,,,,,,,,
,,1,146,,,,,,,2,6,2,stim/62.jpeg,Instruments,1,stim/objects/Instruments/electricdrumset2.png,0.7,4,0.2,-0.15,left,1,2020-11-19_19h31.31.614,premup-three_ses-01_part-01_label-phase1,3.2.4,Win32,60,left,0.936000109,4,0,4,0,1,3,1,0,240,137,1,239,,,,,,,,,,,,,,,,,,
,,1,147,,,,,,,1,4,1,stim/41.jpeg,HouseObjects,2,stim/objects/HouseObjects/dustpan.png,0.5,2,0.2,0.15,right,1,2020-11-19_19h31.31.614,premup-three_ses-01_part-01_label-phase1,3.2.4,Win32,60,right,0.623000145,4,0,4,0,1,3,1,0,240,76,1,239,,,,,,,,,,,,,,,,,,
,,1,148,,,,,,,2,5,1,stim/51.jpeg,HouseObjects,2,stim/objects/HouseObjects/glassmop.png,0.7,3,-0.2,-0.15,right,1,2020-11-19_19h31.31.614,premup-three_ses-01_part-01_label-phase1,3.2.4,Win32,60,right,0.63800025,4,0,4,0,1,3,1,0,240,108,1,239,,,,,,,,,,,,,,,,,,
,,1,149,,,,,,,3,1,1,stim/11.jpeg,HouseObjects,2,stim/objects/HouseObjects/dustpan2.png,0.9,3,-0.2,-0.15,right,1,2020-11-19_19h31.31.614,premup-three_ses-01_part-01_label-phase1,3.2.4,Win32,60,right,0.77699995,4,0,4,0,1,3,1,0,240,192,1,239,,,,,,,,,,,,,,,,,,
,,1,150,,,,,,,1,4,3,stim/43.jpeg,HouseObjects,2,stim/objects/HouseObjects/garbagebin.png,0.5,2,0.2,0.15,right,1,2020-11-19_19h31.31.614,premup-three_ses-01_part-01_label-phase1,3.2.4,Win32,60,right,1.184000015,4,0,4,0,1,3,1,0,240,78,1,239,,,,,,,,,,,,,,,,,,
,,0,151,,,,,,,2,6,2,stim/62.jpeg,Instruments,1,stim/objects/Instruments/electricdrumset2.png,0.7,1,-0.2,0.15,left,1,2020-11-19_19h31.31.614,premup-three_ses-01_part-01_label-phase1,3.2.4,Win32,60,right,1.014000177,4,0,4,0,1,3,1,0,240,133,1,239,,,,,,,,,,,,,,,,,,
,,1,152,,,,,,,3,1,3,stim/13.jpeg,HouseObjects,2,stim/objects/HouseObjects/garbagebin2.png,0.9,1,-0.2,0.15,right,1,2020-11-19_19h31.31.614,premup-three_ses-01_part-01_label-phase1,3.2.4,Win32,60,right,0.912000179,4,0,4,0,1,3,1,0,240,182,1,239,,,,,,,,,,,,,,,,,,
,,1,153,,,,,,,3,2,2,stim/22.jpeg,Instruments,1,stim/objects/Instruments/harmonica2.png,0.9,2,0.2,0.15,left,1,2020-11-19_19h31.31.614,premup-three_ses-01_part-01_label-phase1,3.2.4,Win32,60,left,0.659000158,4,0,4,0,1,3,1,0,240,217,1,239,,,,,,,,,,,,,,,,,,
,,1,154,,,,,,,3,2,2,stim/22.jpeg,Instruments,1,stim/objects/Instruments/harmonica2.png,0.9,3,-0.2,-0.15,left,1,2020-11-19_19h31.31.614,premup-three_ses-01_part-01_label-phase1,3.2.4,Win32,60,left,0.515000105,4,0,4,0,1,3,1,0,240,225,1,239,,,,,,,,,,,,,,,,,,
,,0,155,,,,,,,1,3,1,stim/31.jpeg,Instruments,1,stim/objects/Instruments/drums.png,0.5,3,-0.2,-0.15,left,1,2020-11-19_19h31.31.614,premup-three_ses-01_part-01_label-phase1,3.2.4,Win32,60,right,0.741000175,4,0,4,0,1,3,1,0,240,0,1,239,,,,,,,,,,,,,,,,,,
,,0,156,,,,,,,3,1,1,stim/11.jpeg,HouseObjects,2,stim/objects/HouseObjects/dustpan2.png,0.9,3,-0.2,-0.15,right,1,2020-11-19_19h31.31.614,premup-three_ses-01_part-01_label-phase1,3.2.4,Win32,60,left,0.675000191,4,0,4,0,1,3,1,0,240,184,1,239,,,,,,,,,,,,,,,,,,
,,1,157,,,,,,,1,4,2,stim/42.jpeg,HouseObjects,2,stim/objects/HouseObjects/flyswatter.png,0.5,1,-0.2,0.15,right,1,2020-11-19_19h31.31.614,premup-three_ses-01_part-01_label-phase1,3.2.4,Win32,60,right,0.953000069,4,0,4,0,1,3,1,0,240,69,1,239,,,,,,,,,,,,,,,,,,
,,0,158,,,,,,,1,4,3,stim/43.jpeg,Instruments,1,stim/objects/Instruments/gong.png,0.5,2,0.2,0.15,left,1,2020-11-19_19h31.31.614,premup-three_ses-01_part-01_label-phase1,3.2.4,Win32,60,right,0.616000175,4,0,4,0,1,3,1,0,240,54,1,239,,,,,,,,,,,,,,,,,,
,,1,159,,,,,,,1,3,3,stim/33.jpeg,Instruments,1,stim/objects/Instruments/electricguitar.png,0.5,3,-0.2,-0.15,left,1,2020-11-19_19h31.31.614,premup-three_ses-01_part-01_label-phase1,3.2.4,Win32,60,left,0.960000277,4,0,4,0,1,3,1,0,240,14,1,239,,,,,,,,,,,,,,,,,,
,,0,160,,,,,,,2,6,3,stim/63.jpeg,HouseObjects,2,stim/objects/HouseObjects/dishsoap2.png,0.3,2,0.2,0.15,right,1,2020-11-19_19h31.31.614,premup-three_ses-01_part-01_label-phase1,3.2.4,Win32,60,left,0.725000143,4,0,4,0,1,3,1,0,240,150,1,239,,,,,,,,,,,,,,,,,,
,,1,161,,,,,,,1,4,3,stim/43.jpeg,HouseObjects,2,stim/objects/HouseObjects/garbagebin.png,0.5,1,-0.2,0.15,right,1,2020-11-19_19h31.31.614,premup-three_ses-01_part-01_label-phase1,3.2.4,Win32,60,right,1.158000231,4,0,4,0,1,3,1,0,240,62,1,239,,,,,,,,,,,,,,,,,,
,,1,162,,,,,,,2,5,3,stim/53.jpeg,HouseObjects,2,stim/objects/HouseObjects/handbrush.png,0.7,3,-0.2,-0.15,right,1,2020-11-19_19h31.31.614,premup-three_ses-01_part-01_label-phase1,3.2.4,Win32,60,right,0.611000061,4,0,4,0,1,3,1,0,240,102,1,239,,,,,,,,,,,,,,,,,,
,,1,163,,,,,,,2,6,3,stim/63.jpeg,Instruments,1,stim/objects/Instruments/electricguitar2.png,0.7,2,0.2,0.15,left,1,2020-11-19_19h31.31.614,premup-three_ses-01_part-01_label-phase1,3.2.4,Win32,60,left,0.67200017,4,0,4,0,1,3,1,0,240,122,1,239,,,,,,,,,,,,,,,,,,
,,1,164,,,,,,,3,1,4,stim/14.jpeg,HouseObjects,2,stim/objects/HouseObjects/glass2.png,0.9,2,0.2,0.15,right,1,2020-11-19_19h31.31.614,premup-three_ses-01_part-01_label-phase1,3.2.4,Win32,60,right,0.781000137,4,0,4,0,1,3,1,0,240,171,1,239,,,,,,,,,,,,,,,,,,
,,1,165,,,,,,,3,1,3,stim/13.jpeg,HouseObjects,2,stim/objects/HouseObjects/garbagebin2.png,0.9,1,-0.2,0.15,right,1,2020-11-19_19h31.31.614,premup-three_ses-01_part-01_label-phase1,3.2.4,Win32,60,right,0.680000067,4,0,4,0,1,3,1,0,240,178,1,239,,,,,,,,,,,,,,,,,,
,,0,166,,,,,,,1,3,4,stim/34.jpeg,HouseObjects,2,stim/objects/HouseObjects/doormat.png,0.5,3,-0.2,-0.15,right,1,2020-11-19_19h31.31.614,premup-three_ses-01_part-01_label-phase1,3.2.4,Win32,60,left,1.006999969,4,0,4,0,1,3,1,0,240,31,1,239,,,,,,,,,,,,,,,,,,
,,1,167,,,,,,,1,4,3,stim/43.jpeg,Instruments,1,stim/objects/Instruments/gong.png,0.5,4,0.2,-0.15,left,1,2020-11-19_19h31.31.614,premup-three_ses-01_part-01_label-phase1,3.2.4,Win32,60,left,0.749000072,4,0,4,0,1,3,1,0,240,50,1,239,,,,,,,,,,,,,,,,,,
,,1,168,,,,,,,3,1,1,stim/11.jpeg,HouseObjects,2,stim/objects/HouseObjects/dustpan2.png,0.9,1,-0.2,0.15,right,1,2020-11-19_19h31.31.614,premup-three_ses-01_part-01_label-phase1,3.2.4,Win32,60,right,0.743000269,4,0,4,0,1,3,1,0,240,168,1,239,,,,,,,,,,,,,,,,,,
,,0,169,,,,,,,1,4,1,stim/41.jpeg,HouseObjects,2,stim/objects/HouseObjects/dustpan.png,0.5,4,0.2,-0.15,right,1,2020-11-19_19h31.31.614,premup-three_ses-01_part-01_label-phase1,3.2.4,Win32,60,left,0.813999891,4,0,4,0,1,3,1,0,240,60,1,239,,,,,,,,,,,,,,,,,,
,,0,170,,,,,,,1,4,1,stim/41.jpeg,Instruments,1,stim/objects/Instruments/flutetrans.png,0.5,4,0.2,-0.15,left,1,2020-11-19_19h31.31.614,premup-three_ses-01_part-01_label-phase1,3.2.4,Win32,60,right,0.694000244,4,0,4,0,1,3,1,0,240,52,1,239,,,,,,,,,,,,,,,,,,
,,0,171,,,,,,,1,3,1,stim/31.jpeg,HouseObjects,2,stim/objects/HouseObjects/coffee.png,0.5,3,-0.2,-0.15,right,1,2020-11-19_19h31.31.614,premup-three_ses-01_part-01_label-phase1,3.2.4,Win32,60,left,1.205000162,4,0,4,0,1,3,1,0,240,32,1,239,,,,,,,,,,,,,,,,,,
,,0,172,,,,,,,2,6,1,stim/61.jpeg,Instruments,1,stim/objects/Instruments/drums2.png,0.7,3,-0.2,-0.15,left,1,2020-11-19_19h31.31.614,premup-three_ses-01_part-01_label-phase1,3.2.4,Win32,60,right,1.788000107,4,0,4,0,1,3,1,0,240,136,1,239,,,,,,,,,,,,,,,,,,
,,1,173,,,,,,,2,6,1,stim/61.jpeg,Instruments,1,stim/objects/Instruments/drums2.png,0.7,3,-0.2,-0.15,left,1,2020-11-19_19h31.31.614,premup-three_ses-01_part-01_label-phase1,3.2.4,Win32,60,left,0.575000048,4,0,4,0,1,3,1,0,240,124,1,239,,,,,,,,,,,,,,,,,,
,,1,174,,,,,,,2,6,4,stim/64.jpeg,Instruments,1,stim/objects/Instruments/flute2.png,0.7,2,0.2,0.15,left,1,2020-11-19_19h31.31.614,premup-three_ses-01_part-01_label-phase1,3.2.4,Win32,60,left,0.601999998,4,0,4,0,1,3,1,0,240,147,1,239,,,,,,,,,,,,,,,,,,
,,1,175,,,,,,,2,6,1,stim/61.jpeg,Instruments,1,stim/objects/Instruments/drums2.png,0.7,1,-0.2,0.15,left,1,2020-11-19_19h31.31.614,premup-three_ses-01_part-01_label-phase1,3.2.4,Win32,60,left,0.490000248,4,0,4,0,1,3,1,0,240,140,1,239,,,,,,,,,,,,,,,,,,
,,1,176,,,,,,,2,6,4,stim/64.jpeg,Instruments,1,stim/objects/Instruments/flute2.png,0.7,1,-0.2,0.15,left,1,2020-11-19_19h31.31.614,premup-three_ses-01_part-01_label-phase1,3.2.4,Win32,60,left,0.433000088,4,0,4,0,1,3,1,0,240,135,1,239,,,,,,,,,,,,,,,,,,
,,0,177,,,,,,,1,4,1,stim/41.jpeg,Instruments,1,stim/objects/Instruments/flutetrans.png,0.5,1,-0.2,0.15,left,1,2020-11-19_19h31.31.614,premup-three_ses-01_part-01_label-phase1,3.2.4,Win32,60,right,0.815999985,4,0,4,0,1,3,1,0,240,44,1,239,,,,,,,,,,,,,,,,,,
,,0,178,,,,,,,1,3,3,stim/33.jpeg,Instruments,1,stim/objects/Instruments/electricguitar.png,0.5,4,0.2,-0.15,left,1,2020-11-19_19h31.31.614,premup-three_ses-01_part-01_label-phase1,3.2.4,Win32,60,right,0.838000059,4,0,4,0,1,3,1,0,240,2,1,239,,,,,,,,,,,,,,,,,,
,,1,179,,,,,,,3,1,2,stim/12.jpeg,HouseObjects,2,stim/objects/HouseObjects/flyswatter2.png,0.9,4,0.2,-0.15,right,1,2020-11-19_19h31.31.614,premup-three_ses-01_part-01_label-phase1,3.2.4,Win32,60,right,0.998000145,4,0,4,0,1,3,1,0,240,165,1,239,,,,,,,,,,,,,,,,,,
,,0,180,,,,,,,1,4,2,stim/42.jpeg,Instruments,1,stim/objects/Instruments/frenchhorn.png,0.5,1,-0.2,0.15,left,1,2020-11-19_19h31.31.614,premup-three_ses-01_part-01_label-phase1,3.2.4,Win32,60,right,1.39800024,4,0,4,0,1,3,1,0,240,49,1,239,,,,,,,,,,,,,,,,,,
,,1,181,,,,,,,3,1,3,stim/13.jpeg,HouseObjects,2,stim/objects/HouseObjects/garbagebin2.png,0.9,3,-0.2,-0.15,right,1,2020-11-19_19h31.31.614,premup-three_ses-01_part-01_label-phase1,3.2.4,Win32,60,right,0.792000055,4,0,4,0,1,3,1,0,240,198,1,239,,,,,,,,,,,,,,,,,,
,,0,182,,,,,,,1,3,1,stim/31.jpeg,Instruments,1,stim/objects/Instruments/drums.png,0.5,4,0.2,-0.15,left,1,2020-11-19_19h31.31.614,premup-three_ses-01_part-01_label-phase1,3.2.4,Win32,60,,,4,0,4,0,1,3,1,0,240,12,1,239,,,,,,,,,,,,,,,,,,
,,1,183,,,,,,,2,6,1,stim/61.jpeg,Instruments,1,stim/objects/Instruments/drums2.png,0.7,4,0.2,-0.15,left,1,2020-11-19_19h31.31.614,premup-three_ses-01_part-01_label-phase1,3.2.4,Win32,60,left,0.926000118,4,0,4,0,1,3,1,0,240,132,1,239,,,,,,,,,,,,,,,,,,
,,1,184,,,,,,,3,2,4,stim/24.jpeg,Instruments,1,stim/objects/Instruments/hihat2.png,0.9,3,-0.2,-0.15,left,1,2020-11-19_19h31.31.614,premup-three_ses-01_part-01_label-phase1,3.2.4,Win32,60,left,0.825000048,4,0,4,0,1,3,1,0,240,219,1,239,,,,,,,,,,,,,,,,,,
,,1,185,,,,,,,2,5,1,stim/51.jpeg,HouseObjects,2,stim/objects/HouseObjects/glassmop.png,0.7,4,0.2,-0.15,right,1,2020-11-19_19h31.31.614,premup-three_ses-01_part-01_label-phase1,3.2.4,Win32,60,right,0.678000212,4,0,4,0,1,3,1,0,240,100,1,239,,,,,,,,,,,,,,,,,,
,,0,186,,,,,,,1,3,4,stim/34.jpeg,Instruments,1,stim/objects/Instruments/flute.png,0.5,2,0.2,0.15,left,1,2020-11-19_19h31.31.614,premup-three_ses-01_part-01_label-phase1,3.2.4,Win32,60,right,0.929000139,4,0,4,0,1,3,1,0,240,3,1,239,,,,,,,,,,,,,,,,,,
,,1,187,,,,,,,1,3,3,stim/33.jpeg,Instruments,1,stim/objects/Instruments/electricguitar.png,0.5,2,0.2,0.15,left,1,2020-11-19_19h31.31.614,premup-three_ses-01_part-01_label-phase1,3.2.4,Win32,60,left,0.713000059,4,0,4,0,1,3,1,0,240,18,1,239,,,,,,,,,,,,,,,,,,
,,1,188,,,,,,,2,6,4,stim/64.jpeg,Instruments,1,stim/objects/Instruments/flute2.png,0.7,4,0.2,-0.15,left,1,2020-11-19_19h31.31.614,premup-three_ses-01_part-01_label-phase1,3.2.4,Win32,60,left,0.5400002,4,0,4,0,1,3,1,0,240,127,1,239,,,,,,,,,,,,,,,,,,
,,0,189,,,,,,,1,4,1,stim/41.jpeg,HouseObjects,2,stim/objects/HouseObjects/dustpan.png,0.5,2,0.2,0.15,right,1,2020-11-19_19h31.31.614,premup-three_ses-01_part-01_label-phase1,3.2.4,Win32,60,left,0.671999931,4,0,4,0,1,3,1,0,240,72,1,239,,,,,,,,,,,,,,,,,,
,,0,190,,,,,,,2,5,2,stim/52.jpeg,Instruments,1,stim/objects/Instruments/harmonica.png,0.3,4,0.2,-0.15,left,1,2020-11-19_19h31.31.614,premup-three_ses-01_part-01_label-phase1,3.2.4,Win32,60,right,0.646000147,4,0,4,0,1,3,1,0,240,81,1,239,,,,,,,,,,,,,,,,,,
,,1,191,,,,,,,3,1,1,stim/11.jpeg,HouseObjects,2,stim/objects/HouseObjects/dustpan2.png,0.9,1,-0.2,0.15,right,1,2020-11-19_19h31.31.614,premup-three_ses-01_part-01_label-phase1,3.2.4,Win32,60,right,0.84100008,4,0,4,0,1,3,1,0,240,180,1,239,,,,,,,,,,,,,,,,,,
,,0,192,,,,,,,2,5,3,stim/53.jpeg,HouseObjects,2,stim/objects/HouseObjects/handbrush.png,0.7,3,-0.2,-0.15,right,1,2020-11-19_19h31.31.614,premup-three_ses-01_part-01_label-phase1,3.2.4,Win32,60,left,0.749000072,4,0,4,0,1,3,1,0,240,94,1,239,,,,,,,,,,,,,,,,,,
,,1,193,,,,,,,2,5,1,stim/51.jpeg,Instruments,1,stim/objects/Instruments/guitarcase.png,0.3,3,-0.2,-0.15,left,1,2020-11-19_19h31.31.614,premup-three_ses-01_part-01_label-phase1,3.2.4,Win32,60,left,0.997000217,4,0,4,0,1,3,1,0,240,80,1,239,,,,,,,,,,,,,,,,,,
,,0,194,,,,,,,2,5,3,stim/53.jpeg,Instruments,1,stim/objects/Instruments/harp.png,0.3,2,0.2,0.15,left,1,2020-11-19_19h31.31.614,premup-three_ses-01_part-01_label-phase1,3.2.4,Win32,60,right,1.212000132,4,0,4,0,1,3,1,0,240,82,1,239,,,,,,,,,,,,,,,,,,
,,0,195,,,,,,,1,4,1,stim/41.jpeg,Instruments,1,stim/objects/Instruments/flutetrans.png,0.5,1,-0.2,0.15,left,1,2020-11-19_19h31.31.614,premup-three_ses-01_part-01_label-phase1,3.2.4,Win32,60,right,0.68900013,4,0,4,0,1,3,1,0,240,56,1,239,,,,,,,,,,,,,,,,,,
,,1,196,,,,,,,1,3,3,stim/33.jpeg,HouseObjects,2,stim/objects/HouseObjects/dishsoap.png,0.5,3,-0.2,-0.15,right,1,2020-11-19_19h31.31.614,premup-three_ses-01_part-01_label-phase1,3.2.4,Win32,60,right,0.644999981,4,0,4,0,1,3,1,0,240,26,1,239,,,,,,,,,,,,,,,,,,
,,1,197,,,,,,,2,6,1,stim/61.jpeg,Instruments,1,stim/objects/Instruments/drums2.png,0.7,2,0.2,0.15,left,1,2020-11-19_19h31.31.614,premup-three_ses-01_part-01_label-phase1,3.2.4,Win32,60,left,0.690000057,4,0,4,0,1,3,1,0,240,128,1,239,,,,,,,,,,,,,,,,,,
,,0,198,,,,,,,2,6,3,stim/63.jpeg,HouseObjects,2,stim/objects/HouseObjects/dishsoap2.png,0.3,4,0.2,-0.15,right,1,2020-11-19_19h31.31.614,premup-three_ses-01_part-01_label-phase1,3.2.4,Win32,60,left,0.609000206,4,0,4,0,1,3,1,0,240,158,1,239,,,,,,,,,,,,,,,,,,
,,0,199,,,,,,,3,1,3,stim/13.jpeg,Instruments,1,stim/objects/Instruments/gong2.png,0.1,1,-0.2,0.15,left,1,2020-11-19_19h31.31.614,premup-three_ses-01_part-01_label-phase1,3.2.4,Win32,60,right,0.734000206,4,0,4,0,1,3,1,0,240,162,1,239,,,,,,,,,,,,,,,,,,
,,1,200,,,,,,,2,6,1,stim/61.jpeg,Instruments,1,stim/objects/Instruments/drums2.png,0.7,1,-0.2,0.15,left,1,2020-11-19_19h31.31.614,premup-three_ses-01_part-01_label-phase1,3.2.4,Win32,60,left,0.553000212,4,0,4,0,1,3,1,0,240,120,1,239,,,,,,,,,,,,,,,,,,
,,1,201,,,,,,,3,1,2,stim/12.jpeg,HouseObjects,2,stim/objects/HouseObjects/flyswatter2.png,0.9,4,0.2,-0.15,right,1,2020-11-19_19h31.31.614,premup-three_ses-01_part-01_label-phase1,3.2.4,Win32,60,right,0.980000019,4,0,4,0,1,3,1,0,240,197,1,239,,,,,,,,,,,,,,,,,,
,,1,202,,,,,,,3,2,4,stim/24.jpeg,Instruments,1,stim/objects/Instruments/hihat2.png,0.9,2,0.2,0.15,left,1,2020-11-19_19h31.31.614,premup-three_ses-01_part-01_label-phase1,3.2.4,Win32,60,left,0.585000038,4,0,4,0,1,3,1,0,240,227,1,239,,,,,,,,,,,,,,,,,,
,,1,203,,,,,,,3,1,3,stim/13.jpeg,HouseObjects,2,stim/objects/HouseObjects/garbagebin2.png,0.9,2,0.2,0.15,right,1,2020-11-19_19h31.31.614,premup-three_ses-01_part-01_label-phase1,3.2.4,Win32,60,right,1.153000116,4,0,4,0,1,3,1,0,240,174,1,239,,,,,,,,,,,,,,,,,,
,,1,204,,,,,,,1,4,2,stim/42.jpeg,Instruments,1,stim/objects/Instruments/frenchhorn.png,0.5,3,-0.2,-0.15,left,1,2020-11-19_19h31.31.614,premup-three_ses-01_part-01_label-phase1,3.2.4,Win32,60,left,0.636000156,4,0,4,0,1,3,1,0,240,57,1,239,,,,,,,,,,,,,,,,,,
,,0,205,,,,,,,1,4,3,stim/43.jpeg,Instruments,1,stim/objects/Instruments/gong.png,0.5,4,0.2,-0.15,left,1,2020-11-19_19h31.31.614,premup-three_ses-01_part-01_label-phase1,3.2.4,Win32,60,right,0.836000204,4,0,4,0,1,3,1,0,240,46,1,239,,,,,,,,,,,,,,,,,,
,,1,206,,,,,,,3,1,2,stim/12.jpeg,HouseObjects,2,stim/objects/HouseObjects/flyswatter2.png,0.9,1,-0.2,0.15,right,1,2020-11-19_19h31.31.614,premup-three_ses-01_part-01_label-phase1,3.2.4,Win32,60,right,0.887000084,4,0,4,0,1,3,1,0,240,193,1,239,,,,,,,,,,,,,,,,,,
,,1,207,,,,,,,3,2,1,stim/21.jpeg,Instruments,1,stim/objects/Instruments/guitarcase2.png,0.9,1,-0.2,0.15,left,1,2020-11-19_19h31.31.614,premup-three_ses-01_part-01_label-phase1,3.2.4,Win32,60,left,0.583000183,4,0,4,0,1,3,1,0,240,216,1,239,,,,,,,,,,,,,,,,,,
,,0,208,,,,,,,1,4,4,stim/44.jpeg,Instruments,1,stim/objects/Instruments/grandpiano.png,0.5,3,-0.2,-0.15,left,1,2020-11-19_19h31.31.614,premup-three_ses-01_part-01_label-phase1,3.2.4,Win32,60,right,0.917000055,4,0,4,0,1,3,1,0,240,51,1,239,,,,,,,,,,,,,,,,,,
,,0,209,,,,,,,1,3,2,stim/32.jpeg,Instruments,1,stim/objects/Instruments/electricdrumset.png,0.5,4,0.2,-0.15,left,1,2020-11-19_19h31.31.614,premup-three_ses-01_part-01_label-phase1,3.2.4,Win32,60,right,1.003999949,4,0,4,0,1,3,1,0,240,13,1,239,,,,,,,,,,,,,,,,,,
,,1,210,,,,,,,3,1,4,stim/14.jpeg,HouseObjects,2,stim/objects/HouseObjects/glass2.png,0.9,2,0.2,0.15,right,1,2020-11-19_19h31.31.614,premup-three_ses-01_part-01_label-phase1,3.2.4,Win32,60,right,0.957000256,4,0,4,0,1,3,1,0,240,187,1,239,,,,,,,,,,,,,,,,,,
,,1,211,,,,,,,3,2,4,stim/24.jpeg,Instruments,1,stim/objects/Instruments/hihat2.png,0.9,2,0.2,0.15,left,1,2020-11-19_19h31.31.614,premup-three_ses-01_part-01_label-phase1,3.2.4,Win32,60,left,0.678999901,4,0,4,0,1,3,1,0,240,223,1,239,,,,,,,,,,,,,,,,,,
,,1,212,,,,,,,3,2,3,stim/23.jpeg,Instruments,1,stim/objects/Instruments/harp2.png,0.9,1,-0.2,0.15,left,1,2020-11-19_19h31.31.614,premup-three_ses-01_part-01_label-phase1,3.2.4,Win32,60,left,0.648000002,4,0,4,0,1,3,1,0,240,206,1,239,,,,,,,,,,,,,,,,,,
,,0,213,,,,,,,2,5,1,stim/51.jpeg,Instruments,1,stim/objects/Instruments/guitarcase.png,0.3,1,-0.2,0.15,left,1,2020-11-19_19h31.31.614,premup-three_ses-01_part-01_label-phase1,3.2.4,Win32,60,right,0.623000145,4,0,4,0,1,3,1,0,240,84,1,239,,,,,,,,,,,,,,,,,,
,,1,214,,,,,,,3,1,2,stim/12.jpeg,HouseObjects,2,stim/objects/HouseObjects/flyswatter2.png,0.9,1,-0.2,0.15,right,1,2020-11-19_19h31.31.614,premup-three_ses-01_part-01_label-phase1,3.2.4,Win32,60,right,0.721000195,4,0,4,0,1,3,1,0,240,177,1,239,,,,,,,,,,,,,,,,,,
,,1,215,,,,,,,1,4,1,stim/41.jpeg,Instruments,1,stim/objects/Instruments/flutetrans.png,0.5,3,-0.2,-0.15,left,1,2020-11-19_19h31.31.614,premup-three_ses-01_part-01_label-phase1,3.2.4,Win32,60,left,0.42200017,4,0,4,0,1,3,1,0,240,40,1,239,,,,,,,,,,,,,,,,,,
,,1,216,,,,,,,2,6,4,stim/64.jpeg,Instruments,1,stim/objects/Instruments/flute2.png,0.7,1,-0.2,0.15,left,1,2020-11-19_19h31.31.614,premup-three_ses-01_part-01_label-phase1,3.2.4,Win32,60,left,0.550000191,4,0,4,0,1,3,1,0,240,123,1,239,,,,,,,,,,,,,,,,,,
,,0,217,,,,,,,1,3,1,stim/31.jpeg,Instruments,1,stim/objects/Instruments/drums.png,0.5,2,0.2,0.15,left,1,2020-11-19_19h31.31.614,premup-three_ses-01_part-01_label-phase1,3.2.4,Win32,60,right,0.985000134,4,0,4,0,1,3,1,0,240,4,1,239,,,,,,,,,,,,,,,,,,
,,1,218,,,,,,,1,4,2,stim/42.jpeg,Instruments,1,stim/objects/Instruments/frenchhorn.png,0.5,3,-0.2,-0.15,left,1,2020-11-19_19h31.31.614,premup-three_ses-01_part-01_label-phase1,3.2.4,Win32,60,left,0.691000223,4,0,4,0,1,3,1,0,240,53,1,239,,,,,,,,,,,,,,,,,,
,,1,219,,,,,,,3,2,2,stim/22.jpeg,Instruments,1,stim/objects/Instruments/harmonica2.png,0.9,4,0.2,-0.15,left,1,2020-11-19_19h31.31.614,premup-three_ses-01_part-01_label-phase1,3.2.4,Win32,60,left,0.44900012,4,0,4,0,1,3,1,0,240,233,1,239,,,,,,,,,,,,,,,,,,
,,1,220,,,,,,,2,6,3,stim/63.jpeg,Instruments,1,stim/objects/Instruments/electricguitar2.png,0.7,3,-0.2,-0.15,left,1,2020-11-19_19h31.31.614,premup-three_ses-01_part-01_label-phase1,3.2.4,Win32,60,left,0.436000109,4,0,4,0,1,3,1,0,240,130,1,239,,,,,,,,,,,,,,,,,,
,,0,221,,,,,,,1,4,1,stim/41.jpeg,HouseObjects,2,stim/objects/HouseObjects/dustpan.png,0.5,3,-0.2,-0.15,right,1,2020-11-19_19h31.31.614,premup-three_ses-01_part-01_label-phase1,3.2.4,Win32,60,left,0.914000034,4,0,4,0,1,3,1,0,240,68,1,239,,,,,,,,,,,,,,,,,,
,,0,222,,,,,,,3,2,1,stim/21.jpeg,HouseObjects,2,stim/objects/HouseObjects/glassmop2.png,0.1,1,-0.2,0.15,right,1,2020-11-19_19h31.31.614,premup-three_ses-01_part-01_label-phase1,3.2.4,Win32,60,left,0.571000099,4,0,4,0,1,3,1,0,240,236,1,239,,,,,,,,,,,,,,,,,,
,,0,223,,,,,,,3,2,4,stim/24.jpeg,HouseObjects,2,stim/objects/HouseObjects/handvacuum2.png,0.1,1,-0.2,0.15,right,1,2020-11-19_19h31.31.614,premup-three_ses-01_part-01_label-phase1,3.2.4,Win32,60,left,0.572000027,4,0,4,0,1,3,1,0,240,239,1,239,,,,,,,,,,,,,,,,,,
,,0,224,,,,,,,2,6,4,stim/64.jpeg,Instruments,1,stim/objects/Instruments/flute2.png,0.7,4,0.2,-0.15,left,1,2020-11-19_19h31.31.614,premup-three_ses-01_part-01_label-phase1,3.2.4,Win32,60,right,0.742000103,4,0,4,0,1,3,1,0,240,143,1,239,,,,,,,,,,,,,,,,,,
,,0,225,,,,,,,2,5,4,stim/54.jpeg,Instruments,1,stim/objects/Instruments/hihat.png,0.3,1,-0.2,0.15,left,1,2020-11-19_19h31.31.614,premup-three_ses-01_part-01_label-phase1,3.2.4,Win32,60,right,0.739000082,4,0,4,0,1,3,1,0,240,87,1,239,,,,,,,,,,,,,,,,,,
,,1,226,,,,,,,2,5,3,stim/53.jpeg,Instruments,1,stim/objects/Instruments/harp.png,0.3,3,-0.2,-0.15,left,1,2020-11-19_19h31.31.614,premup-three_ses-01_part-01_label-phase1,3.2.4,Win32,60,left,0.620000124,4,0,4,0,1,3,1,0,240,90,1,239,,,,,,,,,,,,,,,,,,
,,0,227,,,,,,,2,5,2,stim/52.jpeg,HouseObjects,2,stim/objects/HouseObjects/hairdryer.png,0.7,4,0.2,-0.15,right,1,2020-11-19_19h31.31.614,premup-three_ses-01_part-01_label-phase1,3.2.4,Win32,60,left,0.673000097,4,0,4,0,1,3,1,0,240,105,1,239,,,,,,,,,,,,,,,,,,
,,1,228,,,,,,,1,3,2,stim/32.jpeg,Instruments,1,stim/objects/Instruments/electricdrumset.png,0.5,2,0.2,0.15,left,1,2020-11-19_19h31.31.614,premup-three_ses-01_part-01_label-phase1,3.2.4,Win32,60,left,0.861000061,4,0,4,0,1,3,1,0,240,9,1,239,,,,,,,,,,,,,,,,,,
,,0,229,,,,,,,1,4,4,stim/44.jpeg,Instruments,1,stim/objects/Instruments/grandpiano.png,0.5,4,0.2,-0.15,left,1,2020-11-19_19h31.31.614,premup-three_ses-01_part-01_label-phase1,3.2.4,Win32,60,right,0.83100009,4,0,4,0,1,3,1,0,240,43,1,239,,,,,,,,,,,,,,,,,,
,,1,230,,,,,,,3,1,3,stim/13.jpeg,HouseObjects,2,stim/objects/HouseObjects/garbagebin2.png,0.9,2,0.2,0.15,right,1,2020-11-19_19h31.31.614,premup-three_ses-01_part-01_label-phase1,3.2.4,Win32,60,right,0.661000013,4,0,4,0,1,3,1,0,240,186,1,239,,,,,,,,,,,,,,,,,,
,,1,231,,,,,,,1,4,1,stim/41.jpeg,Instruments,1,stim/objects/Instruments/flutetrans.png,0.5,4,0.2,-0.15,left,1,2020-11-19_19h31.31.614,premup-three_ses-01_part-01_label-phase1,3.2.4,Win32,60,left,1.065000057,4,0,4,0,1,3,1,0,240,48,1,239,,,,,,,,,,,,,,,,,,
,,0,232,,,,,,,1,3,3,stim/33.jpeg,HouseObjects,2,stim/objects/HouseObjects/dishsoap.png,0.5,2,0.2,0.15,right,1,2020-11-19_19h31.31.614,premup-three_ses-01_part-01_label-phase1,3.2.4,Win32,60,left,1.067000151,4,0,4,0,1,3,1,0,240,30,1,239,,,,,,,,,,,,,,,,,,
,,0,233,,,,,,,2,5,4,stim/54.jpeg,Instruments,1,stim/objects/Instruments/hihat.png,0.3,1,-0.2,0.15,left,1,2020-11-19_19h31.31.614,premup-three_ses-01_part-01_label-phase1,3.2.4,Win32,60,right,0.893000126,4,0,4,0,1,3,1,0,240,91,1,239,,,,,,,,,,,,,,,,,,
,,1,234,,,,,,,2,5,2,stim/52.jpeg,HouseObjects,2,stim/objects/HouseObjects/hairdryer.png,0.7,3,-0.2,-0.15,right,1,2020-11-19_19h31.31.614,premup-three_ses-01_part-01_label-phase1,3.2.4,Win32,60,right,0.630000114,4,0,4,0,1,3,1,0,240,113,1,239,,,,,,,,,,,,,,,,,,
,,1,235,,,,,,,2,6,2,stim/62.jpeg,Instruments,1,stim/objects/Instruments/electricdrumset2.png,0.7,2,0.2,0.15,left,1,2020-11-19_19h31.31.614,premup-three_ses-01_part-01_label-phase1,3.2.4,Win32,60,left,0.694000006,4,0,4,0,1,3,1,0,240,129,1,239,,,,,,,,,,,,,,,,,,
,,1,236,,,,,,,2,6,2,stim/62.jpeg,Instruments,1,stim/objects/Instruments/electricdrumset2.png,0.7,2,0.2,0.15,left,1,2020-11-19_19h31.31.614,premup-three_ses-01_part-01_label-phase1,3.2.4,Win32,60,left,0.459000111,4,0,4,0,1,3,1,0,240,125,1,239,,,,,,,,,,,,,,,,,,
,,1,237,,,,,,,2,5,3,stim/53.jpeg,HouseObjects,2,stim/objects/HouseObjects/handbrush.png,0.7,3,-0.2,-0.15,right,1,2020-11-19_19h31.31.614,premup-three_ses-01_part-01_label-phase1,3.2.4,Win32,60,right,0.617000103,4,0,4,0,1,3,1,0,240,114,1,239,,,,,,,,,,,,,,,,,,
,,1,238,,,,,,,2,5,4,stim/54.jpeg,HouseObjects,2,stim/objects/HouseObjects/handvacuum.png,0.7,1,-0.2,0.15,right,1,2020-11-19_19h31.31.614,premup-three_ses-01_part-01_label-phase1,3.2.4,Win32,60,right,0.479000092,4,0,4,0,1,3,1,0,240,111,1,239,,,,,,,,,,,,,,,,,,
,,1,239,,,,,,,3,2,1,stim/21.jpeg,Instruments,1,stim/objects/Instruments/guitarcase2.png,0.9,3,-0.2,-0.15,left,1,2020-11-19_19h31.31.614,premup-three_ses-01_part-01_label-phase1,3.2.4,Win32,60,left,0.655999899,4,0,4,0,1,3,1,0,240,224,1,239,,,,,,,,,,,,,,,,,,
,,0,240,,,,,,,1,4,2,stim/42.jpeg,HouseObjects,2,stim/objects/HouseObjects/flyswatter.png,0.5,4,0.2,-0.15,right,1,2020-11-19_19h31.31.614,premup-three_ses-01_part-01_label-phase1,3.2.4,Win32,60,left,1.01699996,4,0,4,0,1,3,1,0,240,65,1,239,,,,,,,,,,,,,,,,,,
,,,,,,,,,,,5,,stim/51.jpeg,,,,,,,,,1,2020-11-19_19h31.31.614,premup-three_ses-01_part-01_label-phase1,3.2.4,Win32,60,,,4,0,4,0,1,3,,,,,,,1,0,86,33.64199996,,,1,0,6,4,1,5,Household items,5,15,Music items,85,95
,,,,,,,,,,,1,,stim/11.jpeg,,,,,,,,,1,2020-11-19_19h31.31.614,premup-three_ses-01_part-01_label-phase1,3.2.4,Win32,60,,,4,0,4,0,1,3,,,,,,,1,0,20,10.704,,,1,0,6,0,1,5,Music items,45,55,Household items,45,55
,,,,,,,,,,,3,,stim/31.jpeg,,,,,,,,,1,2020-11-19_19h31.31.614,premup-three_ses-01_part-01_label-phase1,3.2.4,Win32,60,,,4,0,4,0,1,3,,,,,,,1,0,39,12.90299988,,,1,0,6,2,1,5,Music items,65,75,Household items,25,35
,,,,,,,,,,,2,,stim/21.jpeg,,,,,,,,,1,2020-11-19_19h31.31.614,premup-three_ses-01_part-01_label-phase1,3.2.4,Win32,60,,,4,0,4,0,1,3,,,,,,,1,0,5,9.91899991,,,1,0,6,1,1,5,Household items,45,55,Music items,45,55
,,,,,,,,,,,6,,stim/61.jpeg,,,,,,,,,1,2020-11-19_19h31.31.614,premup-three_ses-01_part-01_label-phase1,3.2.4,Win32,60,,,4,0,4,0,1,3,,,,,,,1,0,95,10.72000003,,,1,0,6,5,1,5,Music items,5,15,Household items,85,95
,,,,,,,,,,,4,,stim/41.jpeg,,,,,,,,,1,2020-11-19_19h31.31.614,premup-three_ses-01_part-01_label-phase1,3.2.4,Win32,60,,,4,0,4,0,1,3,,,,,,,1,0,,,18,7.184000015,1,0,6,3,1,5,Music items,65,75,Household items,25,35
,,,,,,,,,,,,,,,,,,,,,,1,2020-11-19_19h31.31.614,premup-three_ses-01_part-01_label-phase1,3.2.4,Win32,60,,,4,0,4,0,1,3,,,,,,,,,,,,,,,,,,,,,,,,
,,0,1,,,,,,,3,1,2,stim/12.jpeg,HouseObjects,2,stim/objects/HouseObjects/flyswatter2.png,0.9,1,-0.2,0.15,right,1,2020-11-19_19h31.31.614,premup-three_ses-01_part-01_label-phase1,3.2.4,Win32,60,,,4,0,4,0,1,3,1,0,240,169,1,239,,,,,,,,,,,,,,,,,,
,,1,2,,,,,,,2,6,1,stim/61.jpeg,Instruments,1,stim/objects/Instruments/drums2.png,0.7,1,-0.2,0.15,left,1,2020-11-19_19h31.31.614,premup-three_ses-01_part-01_label-phase1,3.2.4,Win32,60,left,1.437000036,4,0,4,0,1,3,1,0,240,120,1,239,,,,,,,,,,,,,,,,,,
,,1,3,,,,,,,1,3,3,stim/33.jpeg,HouseObjects,2,stim/objects/HouseObjects/dishsoap.png,0.5,2,0.2,0.15,right,1,2020-11-19_19h31.31.614,premup-three_ses-01_part-01_label-phase1,3.2.4,Win32,60,right,0.978000164,4,0,4,0,1,3,1,0,240,30,1,239,,,,,,,,,,,,,,,,,,
,,1,4,,,,,,,2,6,2,stim/62.jpeg,Instruments,1,stim/objects/Instruments/electricdrumset2.png,0.7,2,0.2,0.15,left,1,2020-11-19_19h31.31.614,premup-three_ses-01_part-01_label-phase1,3.2.4,Win32,60,left,0.947000027,4,0,4,0,1,3,1,0,240,141,1,239,,,,,,,,,,,,,,,,,,
,,1,5,,,,,,,1,4,3,stim/43.jpeg,HouseObjects,2,stim/objects/HouseObjects/garbagebin.png,0.5,4,0.2,-0.15,right,1,2020-11-19_19h31.31.614,premup-three_ses-01_part-01_label-phase1,3.2.4,Win32,60,right,0.976000071,4,0,4,0,1,3,1,0,240,66,1,239,,,,,,,,,,,,,,,,,,
,,0,6,,,,,,,1,4,4,stim/44.jpeg,Instruments,1,stim/objects/Instruments/grandpiano.png,0.5,3,-0.2,-0.15,left,1,2020-11-19_19h31.31.614,premup-three_ses-01_part-01_label-phase1,3.2.4,Win32,60,right,0.963000059,4,0,4,0,1,3,1,0,240,51,1,239,,,,,,,,,,,,,,,,,,
,,1,7,,,,,,,3,1,3,stim/13.jpeg,HouseObjects,2,stim/objects/HouseObjects/garbagebin2.png,0.9,2,0.2,0.15,right,1,2020-11-19_19h31.31.614,premup-three_ses-01_part-01_label-phase1,3.2.4,Win32,60,right,0.853000164,4,0,4,0,1,3,1,0,240,194,1,239,,,,,,,,,,,,,,,,,,
,,1,8,,,,,,,2,5,2,stim/52.jpeg,HouseObjects,2,stim/objects/HouseObjects/hairdryer.png,0.7,4,0.2,-0.15,right,1,2020-11-19_19h31.31.614,premup-three_ses-01_part-01_label-phase1,3.2.4,Win32,60,right,1.31400013,4,0,4,0,1,3,1,0,240,105,1,239,,,,,,,,,,,,,,,,,,
,,1,9,,,,,,,1,4,1,stim/41.jpeg,HouseObjects,2,stim/objects/HouseObjects/dustpan.png,0.5,2,0.2,0.15,right,1,2020-11-19_19h31.31.614,premup-three_ses-01_part-01_label-phase1,3.2.4,Win32,60,right,0.99000001,4,0,4,0,1,3,1,0,240,76,1,239,,,,,,,,,,,,,,,,,,
,,1,10,,,,,,,3,2,2,stim/22.jpeg,Instruments,1,stim/objects/Instruments/harmonica2.png,0.9,2,0.2,0.15,left,1,2020-11-19_19h31.31.614,premup-three_ses-01_part-01_label-phase1,3.2.4,Win32,60,left,0.59100008,4,0,4,0,1,3,1,0,240,217,1,239,,,,,,,,,,,,,,,,,,
,,1,11,,,,,,,2,6,4,stim/64.jpeg,Instruments,1,stim/objects/Instruments/flute2.png,0.7,2,0.2,0.15,left,1,2020-11-19_19h31.31.614,premup-three_ses-01_part-01_label-phase1,3.2.4,Win32,60,left,0.599000216,4,0,4,0,1,3,1,0,240,131,1,239,,,,,,,,,,,,,,,,,,
,,1,12,,,,,,,3,2,1,stim/21.jpeg,Instruments,1,stim/objects/Instruments/guitarcase2.png,0.9,3,-0.2,-0.15,left,1,2020-11-19_19h31.31.614,premup-three_ses-01_part-01_label-phase1,3.2.4,Win32,60,left,0.636000156,4,0,4,0,1,3,1,0,240,200,1,239,,,,,,,,,,,,,,,,,,
,,0,13,,,,,,,1,3,2,stim/32.jpeg,Instruments,1,stim/objects/Instruments/electricdrumset.png,0.5,3,-0.2,-0.15,left,1,2020-11-19_19h31.31.614,premup-three_ses-01_part-01_label-phase1,3.2.4,Win32,60,right,0.713999987,4,0,4,0,1,3,1,0,240,17,1,239,,,,,,,,,,,,,,,,,,
,,1,14,,,,,,,3,2,2,stim/22.jpeg,Instruments,1,stim/objects/Instruments/harmonica2.png,0.9,3,-0.2,-0.15,left,1,2020-11-19_19h31.31.614,premup-three_ses-01_part-01_label-phase1,3.2.4,Win32,60,left,0.615999937,4,0,4,0,1,3,1,0,240,225,1,239,,,,,,,,,,,,,,,,,,
,,1,15,,,,,,,3,1,2,stim/12.jpeg,HouseObjects,2,stim/objects/HouseObjects/flyswatter2.png,0.9,4,0.2,-0.15,right,1,2020-11-19_19h31.31.614,premup-three_ses-01_part-01_label-phase1,3.2.4,Win32,60,right,0.696000099,4,0,4,0,1,3,1,0,240,173,1,239,,,,,,,,,,,,,,,,,,
,,1,16,,,,,,,2,6,3,stim/63.jpeg,Instruments,1,stim/objects/Instruments/electricguitar2.png,0.7,1,-0.2,0.15,left,1,2020-11-19_19h31.31.614,premup-three_ses-01_part-01_label-phase1,3.2.4,Win32,60,left,0.548000097,4,0,4,0,1,3,1,0,240,146,1,239,,,,,,,,,,,,,,,,,,
,,0,17,,,,,,,2,6,1,stim/61.jpeg,HouseObjects,2,stim/objects/HouseObjects/coffee2.png,0.3,1,-0.2,0.15,right,1,2020-11-19_19h31.31.614,premup-three_ses-01_part-01_label-phase1,3.2.4,Win32,60,left,0.476999998,4,0,4,0,1,3,1,0,240,152,1,239,,,,,,,,,,,,,,,,,,
,,1,18,,,,,,,2,5,3,stim/53.jpeg,HouseObjects,2,stim/objects/HouseObjects/handbrush.png,0.7,3,-0.2,-0.15,right,1,2020-11-19_19h31.31.614,premup-three_ses-01_part-01_label-phase1,3.2.4,Win32,60,right,0.901000023,4,0,4,0,1,3,1,0,240,94,1,239,,,,,,,,,,,,,,,,,,
,,1,19,,,,,,,3,2,3,stim/23.jpeg,Instruments,1,stim/objects/Instruments/harp2.png,0.9,4,0.2,-0.15,left,1,2020-11-19_19h31.31.614,premup-three_ses-01_part-01_label-phase1,3.2.4,Win32,60,left,0.802000046,4,0,4,0,1,3,1,0,240,210,1,239,,,,,,,,,,,,,,,,,,
,,1,20,,,,,,,3,1,1,stim/11.jpeg,HouseObjects,2,stim/objects/HouseObjects/dustpan2.png,0.9,1,-0.2,0.15,right,1,2020-11-19_19h31.31.614,premup-three_ses-01_part-01_label-phase1,3.2.4,Win32,60,right,0.678999901,4,0,4,0,1,3,1,0,240,168,1,239,,,,,,,,,,,,,,,,,,
,,0,21,,,,,,,1,3,3,stim/33.jpeg,Instruments,1,stim/objects/Instruments/electricguitar.png,0.5,4,0.2,-0.15,left,1,2020-11-19_19h31.31.614,premup-three_ses-01_part-01_label-phase1,3.2.4,Win32,60,right,0.798000097,4,0,4,0,1,3,1,0,240,2,1,239,,,,,,,,,,,,,,,,,,
,,1,22,,,,,,,3,2,2,stim/22.jpeg,Instruments,1,stim/objects/Instruments/harmonica2.png,0.9,3,-0.2,-0.15,left,1,2020-11-19_19h31.31.614,premup-three_ses-01_part-01_label-phase1,3.2.4,Win32,60,left,0.524000168,4,0,4,0,1,3,1,0,240,213,1,239,,,,,,,,,,,,,,,,,,
,,1,23,,,,,,,1,3,2,stim/32.jpeg,Instruments,1,stim/objects/Instruments/electricdrumset.png,0.5,4,0.2,-0.15,left,1,2020-11-19_19h31.31.614,premup-three_ses-01_part-01_label-phase1,3.2.4,Win32,60,left,0.45600009,4,0,4,0,1,3,1,0,240,13,1,239,,,,,,,,,,,,,,,,,,
,,1,24,,,,,,,2,5,4,stim/54.jpeg,HouseObjects,2,stim/objects/HouseObjects/handvacuum.png,0.7,2,0.2,0.15,right,1,2020-11-19_19h31.31.614,premup-three_ses-01_part-01_label-phase1,3.2.4,Win32,60,right,0.55700016,4,0,4,0,1,3,1,0,240,95,1,239,,,,,,,,,,,,,,,,,,
,,0,25,,,,,,,2,5,2,stim/52.jpeg,Instruments,1,stim/objects/Instruments/harmonica.png,0.3,4,0.2,-0.15,left,1,2020-11-19_19h31.31.614,premup-three_ses-01_part-01_label-phase1,3.2.4,Win32,60,right,0.681999922,4,0,4,0,1,3,1,0,240,81,1,239,,,,,,,,,,,,,,,,,,
,,0,26,,,,,,,1,4,4,stim/44.jpeg,HouseObjects,2,stim/objects/HouseObjects/glass.png,0.5,4,0.2,-0.15,right,1,2020-11-19_19h31.31.614,premup-three_ses-01_part-01_label-phase1,3.2.4,Win32,60,left,1.191999912,4,0,4,0,1,3,1,0,240,63,1,239,,,,,,,,,,,,,,,,,,
,,0,27,,,,,,,1,4,1,stim/41.jpeg,HouseObjects,2,stim/objects/HouseObjects/dustpan.png,0.5,2,0.2,0.15,right,1,2020-11-19_19h31.31.614,premup-three_ses-01_part-01_label-phase1,3.2.4,Win32,60,left,1.226000071,4,0,4,0,1,3,1,0,240,72,1,239,,,,,,,,,,,,,,,,,,
,,1,28,,,,,,,1,3,4,stim/34.jpeg,HouseObjects,2,stim/objects/HouseObjects/doormat.png,0.5,1,-0.2,0.15,right,1,2020-11-19_19h31.31.614,premup-three_ses-01_part-01_label-phase1,3.2.4,Win32,60,right,1.029000044,4,0,4,0,1,3,1,0,240,23,1,239,,,,,,,,,,,,,,,,,,
,,0,29,,,,,,,1,4,4,stim/44.jpeg,Instruments,1,stim/objects/Instruments/grandpiano.png,0.5,4,0.2,-0.15,left,1,2020-11-19_19h31.31.614,premup-three_ses-01_part-01_label-phase1,3.2.4,Win32,60,right,0.968000174,4,0,4,0,1,3,1,0,240,55,1,239,,,,,,,,,,,,,,,,,,
,,0,30,,,,,,,2,6,3,stim/63.jpeg,HouseObjects,2,stim/objects/HouseObjects/dishsoap2.png,0.3,4,0.2,-0.15,right,1,2020-11-19_19h31.31.614,premup-three_ses-01_part-01_label-phase1,3.2.4,Win32,60,left,0.926000118,4,0,4,0,1,3,1,0,240,158,1,239,,,,,,,,,,,,,,,,,,
,,0,31,,,,,,,1,3,1,stim/31.jpeg,Instruments,1,stim/objects/Instruments/drums.png,0.5,4,0.2,-0.15,left,1,2020-11-19_19h31.31.614,premup-three_ses-01_part-01_label-phase1,3.2.4,Win32,60,right,1.056000233,4,0,4,0,1,3,1,0,240,12,1,239,,,,,,,,,,,,,,,,,,
,,1,32,,,,,,,2,6,2,stim/62.jpeg,Instruments,1,stim/objects/Instruments/electricdrumset2.png,0.7,1,-0.2,0.15,left,1,2020-11-19_19h31.31.614,premup-three_ses-01_part-01_label-phase1,3.2.4,Win32,60,left,0.891000032,4,0,4,0,1,3,1,0,240,133,1,239,,,,,,,,,,,,,,,,,,
,,1,33,,,,,,,2,5,4,stim/54.jpeg,HouseObjects,2,stim/objects/HouseObjects/handvacuum.png,0.7,1,-0.2,0.15,right,1,2020-11-19_19h31.31.614,premup-three_ses-01_part-01_label-phase1,3.2.4,Win32,60,right,0.707000017,4,0,4,0,1,3,1,0,240,111,1,239,,,,,,,,,,,,,,,,,,
,,1,34,,,,,,,2,5,3,stim/53.jpeg,HouseObjects,2,stim/objects/HouseObjects/handbrush.png,0.7,3,-0.2,-0.15,right,1,2020-11-19_19h31.31.614,premup-three_ses-01_part-01_label-phase1,3.2.4,Win32,60,right,0.832000256,4,0,4,0,1,3,1,0,240,102,1,239,,,,,,,,,,,,,,,,,,
,,0,35,,,,,,,3,1,1,stim/11.jpeg,HouseObjects,2,stim/objects/HouseObjects/dustpan2.png,0.9,3,-0.2,-0.15,right,1,2020-11-19_19h31.31.614,premup-three_ses-01_part-01_label-phase1,3.2.4,Win32,60,left,0.710000038,4,0,4,0,1,3,1,0,240,172,1,239,,,,,,,,,,,,,,,,,,
,,1,36,,,,,,,3,1,2,stim/12.jpeg,HouseObjects,2,stim/objects/HouseObjects/flyswatter2.png,0.9,4,0.2,-0.15,right,1,2020-11-19_19h31.31.614,premup-three_ses-01_part-01_label-phase1,3.2.4,Win32,60,right,0.728000164,4,0,4,0,1,3,1,0,240,165,1,239,,,,,,,,,,,,,,,,,,
,,0,37,,,,,,,1,3,1,stim/31.jpeg,Instruments,1,stim/objects/Instruments/drums.png,0.5,2,0.2,0.15,left,1,2020-11-19_19h31.31.614,premup-three_ses-01_part-01_label-phase1,3.2.4,Win32,60,right,1.330000162,4,0,4,0,1,3,1,0,240,8,1,239,,,,,,,,,,,,,,,,,,
,,1,38,,,,,,,1,4,3,stim/43.jpeg,Instruments,1,stim/objects/Instruments/gong.png,0.5,4,0.2,-0.15,left,1,2020-11-19_19h31.31.614,premup-three_ses-01_part-01_label-phase1,3.2.4,Win32,60,left,1.026000261,4,0,4,0,1,3,1,0,240,42,1,239,,,,,,,,,,,,,,,,,,
,,0,39,,,,,,,1,4,2,stim/42.jpeg,Instruments,1,stim/objects/Instruments/frenchhorn.png,0.5,1,-0.2,0.15,left,1,2020-11-19_19h31.31.614,premup-three_ses-01_part-01_label-phase1,3.2.4,Win32,60,right,1.362000227,4,0,4,0,1,3,1,0,240,41,1,239,,,,,,,,,,,,,,,,,,
,,0,40,,,,,,,2,5,1,stim/51.jpeg,Instruments,1,stim/objects/Instruments/guitarcase.png,0.3,1,-0.2,0.15,left,1,2020-11-19_19h31.31.614,premup-three_ses-01_part-01_label-phase1,3.2.4,Win32,60,right,1.178000212,4,0,4,0,1,3,1,0,240,84,1,239,,,,,,,,,,,,,,,,,,
,,0,41,,,,,,,2,6,2,stim/62.jpeg,HouseObjects,2,stim/objects/HouseObjects/cushion2.png,0.3,1,-0.2,0.15,right,1,2020-11-19_19h31.31.614,premup-three_ses-01_part-01_label-phase1,3.2.4,Win32,60,left,1.425000191,4,0,4,0,1,3,1,0,240,149,1,239,,,,,,,,,,,,,,,,,,
,,1,42,,,,,,,3,1,4,stim/14.jpeg,HouseObjects,2,stim/objects/HouseObjects/glass2.png,0.9,2,0.2,0.15,right,1,2020-11-19_19h31.31.614,premup-three_ses-01_part-01_label-phase1,3.2.4,Win32,60,right,0.903000116,4,0,4,0,1,3,1,0,240,187,1,239,,,,,,,,,,,,,,,,,,
,,1,43,,,,,,,2,6,1,stim/61.jpeg,Instruments,1,stim/objects/Instruments/drums2.png,0.7,4,0.2,-0.15,left,1,2020-11-19_19h31.31.614,premup-three_ses-01_part-01_label-phase1,3.2.4,Win32,60,left,0.729000092,4,0,4,0,1,3,1,0,240,132,1,239,,,,,,,,,,,,,,,,,,
,,1,44,,,,,,,3,2,3,stim/23.jpeg,Instruments,1,stim/objects/Instruments/harp2.png,0.9,4,0.2,-0.15,left,1,2020-11-19_19h31.31.614,premup-three_ses-01_part-01_label-phase1,3.2.4,Win32,60,left,0.617000103,4,0,4,0,1,3,1,0,240,222,1,239,,,,,,,,,,,,,,,,,,
,,0,45,,,,,,,1,3,2,stim/32.jpeg,Instruments,1,stim/objects/Instruments/electricdrumset.png,0.5,1,-0.2,0.15,left,1,2020-11-19_19h31.31.614,premup-three_ses-01_part-01_label-phase1,3.2.4,Win32,60,right,0.707000017,4,0,4,0,1,3,1,0,240,1,1,239,,,,,,,,,,,,,,,,,,
,,0,46,,,,,,,1,3,4,stim/34.jpeg,Instruments,1,stim/objects/Instruments/flute.png,0.5,2,0.2,0.15,left,1,2020-11-19_19h31.31.614,premup-three_ses-01_part-01_label-phase1,3.2.4,Win32,60,right,0.952000141,4,0,4,0,1,3,1,0,240,3,1,239,,,,,,,,,,,,,,,,,,
,,1,47,,,,,,,3,1,3,stim/13.jpeg,HouseObjects,2,stim/objects/HouseObjects/garbagebin2.png,0.9,1,-0.2,0.15,right,1,2020-11-19_19h31.31.614,premup-three_ses-01_part-01_label-phase1,3.2.4,Win32,60,right,0.912000179,4,0,4,0,1,3,1,0,240,178,1,239,,,,,,,,,,,,,,,,,,
,,0,48,,,,,,,2,5,2,stim/52.jpeg,Instruments,1,stim/objects/Instruments/harmonica.png,0.3,3,-0.2,-0.15,left,1,2020-11-19_19h31.31.614,premup-three_ses-01_part-01_label-phase1,3.2.4,Win32,60,right,0.676000118,4,0,4,0,1,3,1,0,240,89,1,239,,,,,,,,,,,,,,,,,,
,,1,49,,,,,,,2,5,1,stim/51.jpeg,HouseObjects,2,stim/objects/HouseObjects/glassmop.png,0.7,1,-0.2,0.15,right,1,2020-11-19_19h31.31.614,premup-three_ses-01_part-01_label-phase1,3.2.4,Win32,60,right,0.697000027,4,0,4,0,1,3,1,0,240,112,1,239,,,,,,,,,,,,,,,,,,
,,0,50,,,,,,,2,5,4,stim/54.jpeg,Instruments,1,stim/objects/Instruments/hihat.png,0.3,2,0.2,0.15,left,1,2020-11-19_19h31.31.614,premup-three_ses-01_part-01_label-phase1,3.2.4,Win32,60,right,0.60800004,4,0,4,0,1,3,1,0,240,83,1,239,,,,,,,,,,,,,,,,,,
,,1,51,,,,,,,3,2,4,stim/24.jpeg,Instruments,1,stim/objects/Instruments/hihat2.png,0.9,2,0.2,0.15,left,1,2020-11-19_19h31.31.614,premup-three_ses-01_part-01_label-phase1,3.2.4,Win32,60,left,0.664000034,4,0,4,0,1,3,1,0,240,235,1,239,,,,,,,,,,,,,,,,,,
,,0,52,,,,,,,2,5,1,stim/51.jpeg,Instruments,1,stim/objects/Instruments/guitarcase.png,0.3,1,-0.2,0.15,left,1,2020-11-19_19h31.31.614,premup-three_ses-01_part-01_label-phase1,3.2.4,Win32,60,right,0.734000206,4,0,4,0,1,3,1,0,240,88,1,239,,,,,,,,,,,,,,,,,,
,,1,53,,,,,,,3,2,1,stim/21.jpeg,Instruments,1,stim/objects/Instruments/guitarcase2.png,0.9,4,0.2,-0.15,left,1,2020-11-19_19h31.31.614,premup-three_ses-01_part-01_label-phase1,3.2.4,Win32,60,left,0.65500021,4,0,4,0,1,3,1,0,240,204,1,239,,,,,,,,,,,,,,,,,,
,,0,54,,,,,,,1,4,4,stim/44.jpeg,HouseObjects,2,stim/objects/HouseObjects/glass.png,0.5,2,0.2,0.15,right,1,2020-11-19_19h31.31.614,premup-three_ses-01_part-01_label-phase1,3.2.4,Win32,60,left,1.046000004,4,0,4,0,1,3,1,0,240,67,1,239,,,,,,,,,,,,,,,,,,
,,0,55,,,,,,,1,3,3,stim/33.jpeg,HouseObjects,2,stim/objects/HouseObjects/dishsoap.png,0.5,3,-0.2,-0.15,right,1,2020-11-19_19h31.31.614,premup-three_ses-01_part-01_label-phase1,3.2.4,Win32,60,left,0.992000103,4,0,4,0,1,3,1,0,240,26,1,239,,,,,,,,,,,,,,,,,,
,,0,56,,,,,,,1,3,1,stim/31.jpeg,HouseObjects,2,stim/objects/HouseObjects/coffee.png,0.5,3,-0.2,-0.15,right,1,2020-11-19_19h31.31.614,premup-three_ses-01_part-01_label-phase1,3.2.4,Win32,60,left,0.703000069,4,0,4,0,1,3,1,0,240,24,1,239,,,,,,,,,,,,,,,,,,
,,0,57,,,,,,,1,3,4,stim/34.jpeg,HouseObjects,2,stim/objects/HouseObjects/doormat.png,0.5,1,-0.2,0.15,right,1,2020-11-19_19h31.31.614,premup-three_ses-01_part-01_label-phase1,3.2.4,Win32,60,left,0.874000072,4,0,4,0,1,3,1,0,240,35,1,239,,,,,,,,,,,,,,,,,,
,,1,58,,,,,,,3,2,4,stim/24.jpeg,Instruments,1,stim/objects/Instruments/hihat2.png,0.9,2,0.2,0.15,left,1,2020-11-19_19h31.31.614,premup-three_ses-01_part-01_label-phase1,3.2.4,Win32,60,left,0.822000265,4,0,4,0,1,3,1,0,240,207,1,239,,,,,,,,,,,,,,,,,,
,,1,59,,,,,,,3,1,1,stim/11.jpeg,HouseObjects,2,stim/objects/HouseObjects/dustpan2.png,0.9,3,-0.2,-0.15,right,1,2020-11-19_19h31.31.614,premup-three_ses-01_part-01_label-phase1,3.2.4,Win32,60,right,1.068000078,4,0,4,0,1,3,1,0,240,192,1,239,,,,,,,,,,,,,,,,,,
,,1,60,,,,,,,3,2,1,stim/21.jpeg,Instruments,1,stim/objects/Instruments/guitarcase2.png,0.9,1,-0.2,0.15,left,1,2020-11-19_19h31.31.614,premup-three_ses-01_part-01_label-phase1,3.2.4,Win32,60,left,0.536000252,4,0,4,0,1,3,1,0,240,212,1,239,,,,,,,,,,,,,,,,,,
,,1,61,,,,,,,1,4,2,stim/42.jpeg,HouseObjects,2,stim/objects/HouseObjects/flyswatter.png,0.5,1,-0.2,0.15,right,1,2020-11-19_19h31.31.614,premup-three_ses-01_part-01_label-phase1,3.2.4,Win32,60,right,0.698000193,4,0,4,0,1,3,1,0,240,61,1,239,,,,,,,,,,,,,,,,,,
,,1,62,,,,,,,3,1,3,stim/13.jpeg,HouseObjects,2,stim/objects/HouseObjects/garbagebin2.png,0.9,4,0.2,-0.15,right,1,2020-11-19_19h31.31.614,premup-three_ses-01_part-01_label-phase1,3.2.4,Win32,60,right,0.725000143,4,0,4,0,1,3,1,0,240,170,1,239,,,,,,,,,,,,,,,,,,
,,1,63,,,,,,,3,1,4,stim/14.jpeg,HouseObjects,2,stim/objects/HouseObjects/glass2.png,0.9,4,0.2,-0.15,right,1,2020-11-19_19h31.31.614,premup-three_ses-01_part-01_label-phase1,3.2.4,Win32,60,right,0.457000017,4,0,4,0,1,3,1,0,240,179,1,239,,,,,,,,,,,,,,,,,,
,,1,64,,,,,,,3,2,3,stim/23.jpeg,Instruments,1,stim/objects/Instruments/harp2.png,0.9,1,-0.2,0.15,left,1,2020-11-19_19h31.31.614,premup-three_ses-01_part-01_label-phase1,3.2.4,Win32,60,left,0.588000059,4,0,4,0,1,3,1,0,240,206,1,239,,,,,,,,,,,,,,,,,,
,,1,65,,,,,,,3,2,2,stim/22.jpeg,HouseObjects,2,stim/objects/HouseObjects/hairdryer2.png,0.1,4,0.2,-0.15,right,1,2020-11-19_19h31.31.614,premup-three_ses-01_part-01_label-phase1,3.2.4,Win32,60,right,0.577000141,4,0,4,0,1,3,1,0,240,237,1,239,,,,,,,,,,,,,,,,,,
,,1,66,,,,,,,1,3,3,stim/33.jpeg,Instruments,1,stim/objects/Instruments/electricguitar.png,0.5,2,0.2,0.15,left,1,2020-11-19_19h31.31.614,premup-three_ses-01_part-01_label-phase1,3.2.4,Win32,60,left,1.292000294,4,0,4,0,1,3,1,0,240,18,1,239,,,,,,,,,,,,,,,,,,
,,0,67,,,,,,,2,5,2,stim/52.jpeg,Instruments,1,stim/objects/Instruments/harmonica.png,0.3,2,0.2,0.15,left,1,2020-11-19_19h31.31.614,premup-three_ses-01_part-01_label-phase1,3.2.4,Win32,60,right,0.784000158,4,0,4,0,1,3,1,0,240,85,1,239,,,,,,,,,,,,,,,,,,
,,1,68,,,,,,,1,3,4,stim/34.jpeg,Instruments,1,stim/objects/Instruments/flute.png,0.5,3,-0.2,-0.15,left,1,2020-11-19_19h31.31.614,premup-three_ses-01_part-01_label-phase1,3.2.4,Win32,60,left,0.481000185,4,0,4,0,1,3,1,0,240,15,1,239,,,,,,,,,,,,,,,,,,
,,1,69,,,,,,,2,5,3,stim/53.jpeg,HouseObjects,2,stim/objects/HouseObjects/handbrush.png,0.7,1,-0.2,0.15,right,1,2020-11-19_19h31.31.614,premup-three_ses-01_part-01_label-phase1,3.2.4,Win32,60,right,0.724000216,4,0,4,0,1,3,1,0,240,110,1,239,,,,,,,,,,,,,,,,,,
,,1,70,,,,,,,3,2,1,stim/21.jpeg,Instruments,1,stim/objects/Instruments/guitarcase2.png,0.9,2,0.2,0.15,left,1,2020-11-19_19h31.31.614,premup-three_ses-01_part-01_label-phase1,3.2.4,Win32,60,left,0.598999977,4,0,4,0,1,3,1,0,240,232,1,239,,,,,,,,,,,,,,,,,,
,,1,71,,,,,,,3,1,1,stim/11.jpeg,HouseObjects,2,stim/objects/HouseObjects/dustpan2.png,0.9,2,0.2,0.15,right,1,2020-11-19_19h31.31.614,premup-three_ses-01_part-01_label-phase1,3.2.4,Win32,60,right,0.630000114,4,0,4,0,1,3,1,0,240,176,1,239,,,,,,,,,,,,,,,,,,
,,1,72,,,,,,,3,1,3,stim/13.jpeg,HouseObjects,2,stim/objects/HouseObjects/garbagebin2.png,0.9,3,-0.2,-0.15,right,1,2020-11-19_19h31.31.614,premup-three_ses-01_part-01_label-phase1,3.2.4,Win32,60,right,0.577000141,4,0,4,0,1,3,1,0,240,198,1,239,,,,,,,,,,,,,,,,,,
,,1,73,,,,,,,2,5,1,stim/51.jpeg,HouseObjects,2,stim/objects/HouseObjects/glassmop.png,0.7,4,0.2,-0.15,right,1,2020-11-19_19h31.31.614,premup-three_ses-01_part-01_label-phase1,3.2.4,Win32,60,right,0.605000019,4,0,4,0,1,3,1,0,240,96,1,239,,,,,,,,,,,,,,,,,,
,,1,74,,,,,,,2,6,3,stim/63.jpeg,Instruments,1,stim/objects/Instruments/electricguitar2.png,0.7,2,0.2,0.15,left,1,2020-11-19_19h31.31.614,premup-three_ses-01_part-01_label-phase1,3.2.4,Win32,60,left,0.49000001,4,0,4,0,1,3,1,0,240,138,1,239,,,,,,,,,,,,,,,,,,
,,1,75,,,,,,,2,5,2,stim/52.jpeg,HouseObjects,2,stim/objects/HouseObjects/hairdryer.png,0.7,3,-0.2,-0.15,right,1,2020-11-19_19h31.31.614,premup-three_ses-01_part-01_label-phase1,3.2.4,Win32,60,right,0.661999941,4,0,4,0,1,3,1,0,240,113,1,239,,,,,,,,,,,,,,,,,,
,,1,76,,,,,,,3,2,2,stim/22.jpeg,Instruments,1,stim/objects/Instruments/harmonica2.png,0.9,2,0.2,0.15,left,1,2020-11-19_19h31.31.614,premup-three_ses-01_part-01_label-phase1,3.2.4,Win32,60,left,0.645000219,4,0,4,0,1,3,1,0,240,205,1,239,,,,,,,,,,,,,,,,,,
,,0,77,,,,,,,1,3,4,stim/34.jpeg,Instruments,1,stim/objects/Instruments/flute.png,0.5,1,-0.2,0.15,left,1,2020-11-19_19h31.31.614,premup-three_ses-01_part-01_label-phase1,3.2.4,Win32,60,right,0.707999945,4,0,4,0,1,3,1,0,240,11,1,239,,,,,,,,,,,,,,,,,,
,,1,78,,,,,,,3,2,2,stim/22.jpeg,Instruments,1,stim/objects/Instruments/harmonica2.png,0.9,2,0.2,0.15,left,1,2020-11-19_19h31.31.614,premup-three_ses-01_part-01_label-phase1,3.2.4,Win32,60,left,0.532000065,4,0,4,0,1,3,1,0,240,221,1,239,,,,,,,,,,,,,,,,,,
,,1,79,,,,,,,2,6,3,stim/63.jpeg,Instruments,1,stim/objects/Instruments/electricguitar2.png,0.7,3,-0.2,-0.15,left,1,2020-11-19_19h31.31.614,premup-three_ses-01_part-01_label-phase1,3.2.4,Win32,60,left,0.539000273,4,0,4,0,1,3,1,0,240,130,1,239,,,,,,,,,,,,,,,,,,
,,0,80,,,,,,,2,5,2,stim/52.jpeg,HouseObjects,2,stim/objects/HouseObjects/hairdryer.png,0.7,3,-0.2,-0.15,right,1,2020-11-19_19h31.31.614,premup-three_ses-01_part-01_label-phase1,3.2.4,Win32,60,left,0.451000214,4,0,4,0,1,3,1,0,240,97,1,239,,,,,,,,,,,,,,,,,,
,,1,81,,,,,,,2,5,2,stim/52.jpeg,HouseObjects,2,stim/objects/HouseObjects/hairdryer.png,0.7,3,-0.2,-0.15,right,1,2020-11-19_19h31.31.614,premup-three_ses-01_part-01_label-phase1,3.2.4,Win32,60,right,0.443000078,4,0,4,0,1,3,1,0,240,109,1,239,,,,,,,,,,,,,,,,,,
,,1,82,,,,,,,2,5,3,stim/53.jpeg,HouseObjects,2,stim/objects/HouseObjects/handbrush.png,0.7,4,0.2,-0.15,right,1,2020-11-19_19h31.31.614,premup-three_ses-01_part-01_label-phase1,3.2.4,Win32,60,right,0.476000071,4,0,4,0,1,3,1,0,240,98,1,239,,,,,,,,,,,,,,,,,,
,,1,83,,,,,,,3,2,4,stim/24.jpeg,Instruments,1,stim/objects/Instruments/hihat2.png,0.9,4,0.2,-0.15,left,1,2020-11-19_19h31.31.614,premup-three_ses-01_part-01_label-phase1,3.2.4,Win32,60,left,0.720000029,4,0,4,0,1,3,1,0,240,231,1,239,,,,,,,,,,,,,,,,,,
,,1,84,,,,,,,2,5,2,stim/52.jpeg,HouseObjects,2,stim/objects/HouseObjects/hairdryer.png,0.7,2,0.2,0.15,right,1,2020-11-19_19h31.31.614,premup-three_ses-01_part-01_label-phase1,3.2.4,Win32,60,right,0.641000271,4,0,4,0,1,3,1,0,240,101,1,239,,,,,,,,,,,,,,,,,,
,,1,85,,,,,,,2,6,3,stim/63.jpeg,Instruments,1,stim/objects/Instruments/electricguitar2.png,0.7,2,0.2,0.15,left,1,2020-11-19_19h31.31.614,premup-three_ses-01_part-01_label-phase1,3.2.4,Win32,60,left,0.562999964,4,0,4,0,1,3,1,0,240,142,1,239,,,,,,,,,,,,,,,,,,
,,1,86,,,,,,,1,3,4,stim/34.jpeg,HouseObjects,2,stim/objects/HouseObjects/doormat.png,0.5,4,0.2,-0.15,right,1,2020-11-19_19h31.31.614,premup-three_ses-01_part-01_label-phase1,3.2.4,Win32,60,right,0.825000286,4,0,4,0,1,3,1,0,240,39,1,239,,,,,,,,,,,,,,,,,,
,,0,87,,,,,,,1,3,1,stim/31.jpeg,Instruments,1,stim/objects/Instruments/drums.png,0.5,2,0.2,0.15,left,1,2020-11-19_19h31.31.614,premup-three_ses-01_part-01_label-phase1,3.2.4,Win32,60,right,0.624000072,4,0,4,0,1,3,1,0,240,4,1,239,,,,,,,,,,,,,,,,,,
,,1,88,,,,,,,1,4,4,stim/44.jpeg,Instruments,1,stim/objects/Instruments/grandpiano.png,0.5,2,0.2,0.15,left,1,2020-11-19_19h31.31.614,premup-three_ses-01_part-01_label-phase1,3.2.4,Win32,60,left,1.059000254,4,0,4,0,1,3,1,0,240,59,1,239,,,,,,,,,,,,,,,,,,
,,0,89,,,,,,,1,4,3,stim/43.jpeg,HouseObjects,2,stim/objects/HouseObjects/garbagebin.png,0.5,1,-0.2,0.15,right,1,2020-11-19_19h31.31.614,premup-three_ses-01_part-01_label-phase1,3.2.4,Win32,60,left,1.327000141,4,0,4,0,1,3,1,0,240,62,1,239,,,,,,,,,,,,,,,,,,
,,1,90,,,,,,,2,6,2,stim/62.jpeg,Instruments,1,stim/objects/Instruments/electricdrumset2.png,0.7,4,0.2,-0.15,left,1,2020-11-19_19h31.31.614,premup-three_ses-01_part-01_label-phase1,3.2.4,Win32,60,left,0.560000181,4,0,4,0,1,3,1,0,240,137,1,239,,,,,,,,,,,,,,,,,,
,,0,91,,,,,,,3,2,3,stim/23.jpeg,HouseObjects,2,stim/objects/HouseObjects/handbrush2.png,0.1,1,-0.2,0.15,right,1,2020-11-19_19h31.31.614,premup-three_ses-01_part-01_label-phase1,3.2.4,Win32,60,left,0.580000162,4,0,4,0,1,3,1,0,240,238,1,239,,,,,,,,,,,,,,,,,,
,,1,92,,,,,,,1,3,2,stim/32.jpeg,HouseObjects,2,stim/objects/HouseObjects/cushion.png,0.5,4,0.2,-0.15,right,1,2020-11-19_19h31.31.614,premup-three_ses-01_part-01_label-phase1,3.2.4,Win32,60,right,0.838000059,4,0,4,0,1,3,1,0,240,33,1,239,,,,,,,,,,,,,,,,,,
,,1,93,,,,,,,1,4,1,stim/41.jpeg,Instruments,1,stim/objects/Instruments/flutetrans.png,0.5,1,-0.2,0.15,left,1,2020-11-19_19h31.31.614,premup-three_ses-01_part-01_label-phase1,3.2.4,Win32,60,left,1.014000177,4,0,4,0,1,3,1,0,240,56,1,239,,,,,,,,,,,,,,,,,,
,,1,94,,,,,,,3,2,4,stim/24.jpeg,Instruments,1,stim/objects/Instruments/hihat2.png,0.9,3,-0.2,-0.15,left,1,2020-11-19_19h31.31.614,premup-three_ses-01_part-01_label-phase1,3.2.4,Win32,60,left,0.606000185,4,0,4,0,1,3,1,0,240,203,1,239,,,,,,,,,,,,,,,,,,
,,1,95,,,,,,,1,4,3,stim/43.jpeg,HouseObjects,2,stim/objects/HouseObjects/garbagebin.png,0.5,2,0.2,0.15,right,1,2020-11-19_19h31.31.614,premup-three_ses-01_part-01_label-phase1,3.2.4,Win32,60,right,0.560000181,4,0,4,0,1,3,1,0,240,78,1,239,,,,,,,,,,,,,,,,,,
,,0,96,,,,,,,3,1,2,stim/12.jpeg,Instruments,1,stim/objects/Instruments/frenchhorn2.png,0.1,2,0.2,0.15,left,1,2020-11-19_19h31.31.614,premup-three_ses-01_part-01_label-phase1,3.2.4,Win32,60,right,0.647000074,4,0,4,0,1,3,1,0,240,161,1,239,,,,,,,,,,,,,,,,,,
,,0,97,,,,,,,3,2,4,stim/24.jpeg,HouseObjects,2,stim/objects/HouseObjects/handvacuum2.png,0.1,1,-0.2,0.15,right,1,2020-11-19_19h31.31.614,premup-three_ses-01_part-01_label-phase1,3.2.4,Win32,60,left,0.529000044,4,0,4,0,1,3,1,0,240,239,1,239,,,,,,,,,,,,,,,,,,
,,1,98,,,,,,,2,6,1,stim/61.jpeg,Instruments,1,stim/objects/Instruments/drums2.png,0.7,2,0.2,0.15,left,1,2020-11-19_19h31.31.614,premup-three_ses-01_part-01_label-phase1,3.2.4,Win32,60,left,0.561000109,4,0,4,0,1,3,1,0,240,128,1,239,,,,,,,,,,,,,,,,,,
,,1,99,,,,,,,2,5,4,stim/54.jpeg,Instruments,1,stim/objects/Instruments/hihat.png,0.3,1,-0.2,0.15,left,1,2020-11-19_19h31.31.614,premup-three_ses-01_part-01_label-phase1,3.2.4,Win32,60,left,0.440999985,4,0,4,0,1,3,1,0,240,91,1,239,,,,,,,,,,,,,,,,,,
,,1,100,,,,,,,2,6,3,stim/63.jpeg,Instruments,1,stim/objects/Instruments/electricguitar2.png,0.7,3,-0.2,-0.15,left,1,2020-11-19_19h31.31.614,premup-three_ses-01_part-01_label-phase1,3.2.4,Win32,60,left,0.579000235,4,0,4,0,1,3,1,0,240,126,1,239,,,,,,,,,,,,,,,,,,
,,1,101,,,,,,,2,6,1,stim/61.jpeg,Instruments,1,stim/objects/Instruments/drums2.png,0.7,1,-0.2,0.15,left,1,2020-11-19_19h31.31.614,premup-three_ses-01_part-01_label-phase1,3.2.4,Win32,60,left,0.459000111,4,0,4,0,1,3,1,0,240,140,1,239,,,,,,,,,,,,,,,,,,
,,1,102,,,,,,,3,1,4,stim/14.jpeg,HouseObjects,2,stim/objects/HouseObjects/glass2.png,0.9,4,0.2,-0.15,right,1,2020-11-19_19h31.31.614,premup-three_ses-01_part-01_label-phase1,3.2.4,Win32,60,right,0.48300004,4,0,4,0,1,3,1,0,240,199,1,239,,,,,,,,,,,,,,,,,,
,,1,103,,,,,,,3,2,1,stim/21.jpeg,Instruments,1,stim/objects/Instruments/guitarcase2.png,0.9,1,-0.2,0.15,left,1,2020-11-19_19h31.31.614,premup-three_ses-01_part-01_label-phase1,3.2.4,Win32,60,left,0.519000053,4,0,4,0,1,3,1,0,240,220,1,239,,,,,,,,,,,,,,,,,,
,,0,104,,,,,,,1,4,4,stim/44.jpeg,Instruments,1,stim/objects/Instruments/grandpiano.png,0.5,4,0.2,-0.15,left,1,2020-11-19_19h31.31.614,premup-three_ses-01_part-01_label-phase1,3.2.4,Win32,60,right,0.602999926,4,0,4,0,1,3,1,0,240,43,1,239,,,,,,,,,,,,,,,,,,
,,0,105,,,,,,,2,6,3,stim/63.jpeg,HouseObjects,2,stim/objects/HouseObjects/dishsoap2.png,0.3,2,0.2,0.15,right,1,2020-11-19_19h31.31.614,premup-three_ses-01_part-01_label-phase1,3.2.4,Win32,60,left,0.644000292,4,0,4,0,1,3,1,0,240,150,1,239,,,,,,,,,,,,,,,,,,
,,1,106,,,,,,,1,4,1,stim/41.jpeg,HouseObjects,2,stim/objects/HouseObjects/dustpan.png,0.5,2,0.2,0.15,right,1,2020-11-19_19h31.31.614,premup-three_ses-01_part-01_label-phase1,3.2.4,Win32,60,right,0.995000124,4,0,4,0,1,3,1,0,240,64,1,239,,,,,,,,,,,,,,,,,,
,,0,107,,,,,,,2,5,3,stim/53.jpeg,Instruments,1,stim/objects/Instruments/harp.png,0.3,2,0.2,0.15,left,1,2020-11-19_19h31.31.614,premup-three_ses-01_part-01_label-phase1,3.2.4,Win32,60,right,0.631000042,4,0,4,0,1,3,1,0,240,86,1,239,,,,,,,,,,,,,,,,,,
,,1,108,,,,,,,1,3,1,stim/31.jpeg,Instruments,1,stim/objects/Instruments/drums.png,0.5,3,-0.2,-0.15,left,1,2020-11-19_19h31.31.614,premup-three_ses-01_part-01_label-phase1,3.2.4,Win32,60,left,0.898000002,4,0,4,0,1,3,1,0,240,0,1,239,,,,,,,,,,,,,,,,,,
,,1,109,,,,,,,2,6,4,stim/64.jpeg,Instruments,1,stim/objects/Instruments/flute2.png,0.7,4,0.2,-0.15,left,1,2020-11-19_19h31.31.614,premup-three_ses-01_part-01_label-phase1,3.2.4,Win32,60,left,0.595000029,4,0,4,0,1,3,1,0,240,143,1,239,,,,,,,,,,,,,,,,,,
,,1,110,,,,,,,1,4,1,stim/41.jpeg,Instruments,1,stim/objects/Instruments/flutetrans.png,0.5,1,-0.2,0.15,left,1,2020-11-19_19h31.31.614,premup-three_ses-01_part-01_label-phase1,3.2.4,Win32,60,left,0.748000145,4,0,4,0,1,3,1,0,240,44,1,239,,,,,,,,,,,,,,,,,,
,,1,111,,,,,,,3,2,3,stim/23.jpeg,Instruments,1,stim/objects/Instruments/harp2.png,0.9,2,0.2,0.15,left,1,2020-11-19_19h31.31.614,premup-three_ses-01_part-01_label-phase1,3.2.4,Win32,60,left,0.661000013,4,0,4,0,1,3,1,0,240,202,1,239,,,,,,,,,,,,,,,,,,
,,1,112,,,,,,,3,1,1,stim/11.jpeg,HouseObjects,2,stim/objects/HouseObjects/dustpan2.png,0.9,1,-0.2,0.15,right,1,2020-11-19_19h31.31.614,premup-three_ses-01_part-01_label-phase1,3.2.4,Win32,60,right,0.687000036,4,0,4,0,1,3,1,0,240,188,1,239,,,,,,,,,,,,,,,,,,
,,1,113,,,,,,,3,2,4,stim/24.jpeg,Instruments,1,stim/objects/Instruments/hihat2.png,0.9,2,0.2,0.15,left,1,2020-11-19_19h31.31.614,premup-three_ses-01_part-01_label-phase1,3.2.4,Win32,60,left,0.579999924,4,0,4,0,1,3,1,0,240,223,1,239,,,,,,,,,,,,,,,,,,
,,0,114,,,,,,,2,6,2,stim/62.jpeg,HouseObjects,2,stim/objects/HouseObjects/cushion2.png,0.3,4,0.2,-0.15,right,1,2020-11-19_19h31.31.614,premup-three_ses-01_part-01_label-phase1,3.2.4,Win32,60,left,0.647000074,4,0,4,0,1,3,1,0,240,157,1,239,,,,,,,,,,,,,,,,,,
,,1,115,,,,,,,2,6,2,stim/62.jpeg,Instruments,1,stim/objects/Instruments/electricdrumset2.png,0.7,2,0.2,0.15,left,1,2020-11-19_19h31.31.614,premup-three_ses-01_part-01_label-phase1,3.2.4,Win32,60,left,0.935000181,4,0,4,0,1,3,1,0,240,121,1,239,,,,,,,,,,,,,,,,,,
,,1,116,,,,,,,3,1,4,stim/14.jpeg,HouseObjects,2,stim/objects/HouseObjects/glass2.png,0.9,4,0.2,-0.15,right,1,2020-11-19_19h31.31.614,premup-three_ses-01_part-01_label-phase1,3.2.4,Win32,60,right,0.651000261,4,0,4,0,1,3,1,0,240,175,1,239,,,,,,,,,,,,,,,,,,
,,1,117,,,,,,,3,2,4,stim/24.jpeg,Instruments,1,stim/objects/Instruments/hihat2.png,0.9,4,0.2,-0.15,left,1,2020-11-19_19h31.31.614,premup-three_ses-01_part-01_label-phase1,3.2.4,Win32,60,left,0.621999979,4,0,4,0,1,3,1,0,240,215,1,239,,,,,,,,,,,,,,,,,,
,,0,118,,,,,,,3,1,4,stim/14.jpeg,Instruments,1,stim/objects/Instruments/grandpiano2.png,0.1,4,0.2,-0.15,left,1,2020-11-19_19h31.31.614,premup-three_ses-01_part-01_label-phase1,3.2.4,Win32,60,right,0.696000099,4,0,4,0,1,3,1,0,240,163,1,239,,,,,,,,,,,,,,,,,,
,,0,119,,,,,,,2,5,3,stim/53.jpeg,HouseObjects,2,stim/objects/HouseObjects/handbrush.png,0.7,2,0.2,0.15,right,1,2020-11-19_19h31.31.614,premup-three_ses-01_part-01_label-phase1,3.2.4,Win32,60,left,0.99000001,4,0,4,0,1,3,1,0,240,106,1,239,,,,,,,,,,,,,,,,,,
,,1,120,,,,,,,3,2,3,stim/23.jpeg,Instruments,1,stim/objects/Instruments/harp2.png,0.9,3,-0.2,-0.15,left,1,2020-11-19_19h31.31.614,premup-three_ses-01_part-01_label-phase1,3.2.4,Win32,60,left,0.605999947,4,0,4,0,1,3,1,0,240,230,1,239,,,,,,,,,,,,,,,,,,
,,1,121,,,,,,,3,2,2,stim/22.jpeg,Instruments,1,stim/objects/Instruments/harmonica2.png,0.9,1,-0.2,0.15,left,1,2020-11-19_19h31.31.614,premup-three_ses-01_part-01_label-phase1,3.2.4,Win32,60,left,0.611999989,4,0,4,0,1,3,1,0,240,201,1,239,,,,,,,,,,,,,,,,,,
,,1,122,,,,,,,3,1,4,stim/14.jpeg,HouseObjects,2,stim/objects/HouseObjects/glass2.png,0.9,2,0.2,0.15,right,1,2020-11-19_19h31.31.614,premup-three_ses-01_part-01_label-phase1,3.2.4,Win32,60,right,0.720000267,4,0,4,0,1,3,1,0,240,171,1,239,,,,,,,,,,,,,,,,,,
,,1,123,,,,,,,2,5,4,stim/54.jpeg,HouseObjects,2,stim/objects/HouseObjects/handvacuum.png,0.7,4,0.2,-0.15,right,1,2020-11-19_19h31.31.614,premup-three_ses-01_part-01_label-phase1,3.2.4,Win32,60,right,0.584000111,4,0,4,0,1,3,1,0,240,115,1,239,,,,,,,,,,,,,,,,,,
,,1,124,,,,,,,2,5,3,stim/53.jpeg,Instruments,1,stim/objects/Instruments/harp.png,0.3,3,-0.2,-0.15,left,1,2020-11-19_19h31.31.614,premup-three_ses-01_part-01_label-phase1,3.2.4,Win32,60,left,0.408000231,4,0,4,0,1,3,1,0,240,90,1,239,,,,,,,,,,,,,,,,,,
,,0,125,,,,,,,2,6,4,stim/64.jpeg,HouseObjects,2,stim/objects/HouseObjects/doormat2.png,0.3,3,-0.2,-0.15,right,1,2020-11-19_19h31.31.614,premup-three_ses-01_part-01_label-phase1,3.2.4,Win32,60,left,0.515000105,4,0,4,0,1,3,1,0,240,159,1,239,,,,,,,,,,,,,,,,,,
,,1,126,,,,,,,1,4,2,stim/42.jpeg,Instruments,1,stim/objects/Instruments/frenchhorn.png,0.5,3,-0.2,-0.15,left,1,2020-11-19_19h31.31.614,premup-three_ses-01_part-01_label-phase1,3.2.4,Win32,60,left,0.871000051,4,0,4,0,1,3,1,0,240,53,1,239,,,,,,,,,,,,,,,,,,
,,1,127,,,,,,,3,1,4,stim/14.jpeg,HouseObjects,2,stim/objects/HouseObjects/glass2.png,0.9,3,-0.2,-0.15,right,1,2020-11-19_19h31.31.614,premup-three_ses-01_part-01_label-phase1,3.2.4,Win32,60,right,1.450000048,4,0,4,0,1,3,1,0,240,191,1,239,,,,,,,,,,,,,,,,,,
,,0,128,,,,,,,1,3,4,stim/34.jpeg,Instruments,1,stim/objects/Instruments/flute.png,0.5,1,-0.2,0.15,left,1,2020-11-19_19h31.31.614,premup-three_ses-01_part-01_label-phase1,3.2.4,Win32,60,right,0.644000053,4,0,4,0,1,3,1,0,240,7,1,239,,,,,,,,,,,,,,,,,,
,,0,129,,,,,,,2,6,4,stim/64.jpeg,HouseObjects,2,stim/objects/HouseObjects/doormat2.png,0.3,3,-0.2,-0.15,right,1,2020-11-19_19h31.31.614,premup-three_ses-01_part-01_label-phase1,3.2.4,Win32,60,left,0.53000021,4,0,4,0,1,3,1,0,240,155,1,239,,,,,,,,,,,,,,,,,,
,,0,130,,,,,,,1,4,2,stim/42.jpeg,HouseObjects,2,stim/objects/HouseObjects/flyswatter.png,0.5,3,-0.2,-0.15,right,1,2020-11-19_19h31.31.614,premup-three_ses-01_part-01_label-phase1,3.2.4,Win32,60,left,0.538000107,4,0,4,0,1,3,1,0,240,73,1,239,,,,,,,,,,,,,,,,,,
,,1,131,,,,,,,2,5,1,stim/51.jpeg,HouseObjects,2,stim/objects/HouseObjects/glassmop.png,0.7,1,-0.2,0.15,right,1,2020-11-19_19h31.31.614,premup-three_ses-01_part-01_label-phase1,3.2.4,Win32,60,right,0.592000008,4,0,4,0,1,3,1,0,240,116,1,239,,,,,,,,,,,,,,,,,,
,,1,132,,,,,,,1,4,4,stim/44.jpeg,HouseObjects,2,stim/objects/HouseObjects/glass.png,0.5,1,-0.2,0.15,right,1,2020-11-19_19h31.31.614,premup-three_ses-01_part-01_label-phase1,3.2.4,Win32,60,right,0.627000093,4,0,4,0,1,3,1,0,240,71,1,239,,,,,,,,,,,,,,,,,,
,,1,133,,,,,,,3,1,1,stim/11.jpeg,HouseObjects,2,stim/objects/HouseObjects/dustpan2.png,0.9,3,-0.2,-0.15,right,1,2020-11-19_19h31.31.614,premup-three_ses-01_part-01_label-phase1,3.2.4,Win32,60,right,0.811000109,4,0,4,0,1,3,1,0,240,164,1,239,,,,,,,,,,,,,,,,,,
,,1,134,,,,,,,1,4,3,stim/43.jpeg,HouseObjects,2,stim/objects/HouseObjects/garbagebin.png,0.5,1,-0.2,0.15,right,1,2020-11-19_19h31.31.614,premup-three_ses-01_part-01_label-phase1,3.2.4,Win32,60,right,0.674000025,4,0,4,0,1,3,1,0,240,70,1,239,,,,,,,,,,,,,,,,,,
,,1,135,,,,,,,2,5,4,stim/54.jpeg,HouseObjects,2,stim/objects/HouseObjects/handvacuum.png,0.7,4,0.2,-0.15,right,1,2020-11-19_19h31.31.614,premup-three_ses-01_part-01_label-phase1,3.2.4,Win32,60,right,0.757000208,4,0,4,0,1,3,1,0,240,99,1,239,,,,,,,,,,,,,,,,,,
