id_acc,key_resp_id.keys,key_resp_id.rt,key_resp_conf.keys,key_resp_conf.rt,assoc_acc,key_resp_assoc.keys,key_resp_assoc.rt,loc_acc,key_resp_loc.keys,key_resp_loc.rt,task_innerloop.thisRepN,task_innerloop.thisTrialN,task_innerloop.thisN,task_innerloop.thisIndex,task_innerloop.ran,task_innerloop.order,context_type,object_cat,PE_level,OvsN,obj_file,scn_file,corr_scn_cat,assoc_file,corr_scn_inst,corr_loc,participant,date,expName,psychopyVersion,OS,frameRate
1,left,1.667999983,4,3.14199996,0,1,12.046,0,2,3.928999901,1,0,200,36,1,199,2,2,0.7,1,stim/objects/Instruments/electricdrumset2.png,stim/34.jpeg,3,stim/3.png,4,1,20,2020-12-09_19h54.39.905,premup-three_ses-02_part-03_label-phase3,3.2.4,Win32,60
1,left,2.592999935,4,1.91899991,0,2,5.839999914,0,1,1.345000029,1,0,200,88,1,199,3,1,0.9,1,stim/objects/HouseObjects/vacuumcleaner2.png,stim/61.jpeg,6,stim/6.png,1,1,20,2020-12-09_19h54.39.905,premup-three_ses-02_part-03_label-phase3,3.2.4,Win32,60
1,right,4.17599988,,,0,,,0,,,1,0,200,164,1,199,0,1,0,2,stim/objects/HouseObjects/wateringcan3.png,,0,stim/0.png,0,0,20,2020-12-09_19h54.39.905,premup-three_ses-02_part-03_label-phase3,3.2.4,Win32,60
1,right,3.367000103,3,5.437999964,0,4,5.872999907,0,1,3.583999872,1,0,200,53,1,199,2,2,0.3,1,stim/objects/Instruments/guitarcase2.png,stim/41.jpeg,4,stim/4.png,1,4,20,2020-12-09_19h54.39.905,premup-three_ses-02_part-03_label-phase3,3.2.4,Win32,60
1,left,1.616999865,,,0,,,0,,,1,0,200,190,1,199,0,2,0,2,stim/objects/Instruments/frenchhorn4.png,,0,stim/0.png,0,0,20,2020-12-09_19h54.39.905,premup-three_ses-02_part-03_label-phase3,3.2.4,Win32,60
1,right,1.788999796,,,0,,,0,,,1,0,200,101,1,199,0,1,0,2,stim/objects/HouseObjects/cushion3.png,,0,stim/0.png,0,0,20,2020-12-09_19h54.39.905,premup-three_ses-02_part-03_label-phase3,3.2.4,Win32,60
1,right,1.382999897,,,0,,,0,,,1,0,200,127,1,199,0,1,0,2,stim/objects/HouseObjects/match3.png,,0,stim/0.png,0,0,20,2020-12-09_19h54.39.905,premup-three_ses-02_part-03_label-phase3,3.2.4,Win32,60
1,left,1.24000001,,,0,,,0,,,1,0,200,130,1,199,0,2,0,2,stim/objects/Instruments/harp3.png,,0,stim/0.png,0,0,20,2020-12-09_19h54.39.905,premup-three_ses-02_part-03_label-phase3,3.2.4,Win32,60
1,right,1.728999853,,,0,,,0,,,1,0,200,118,1,199,0,2,0,2,stim/objects/Instruments/guitarcase3.png,,0,stim/0.png,0,0,20,2020-12-09_19h54.39.905,premup-three_ses-02_part-03_label-phase3,3.2.4,Win32,60
1,right,1.169999838,4,2.817000151,0,4,5.865999937,0,1,1.720000029,1,0,200,71,1,199,3,2,0.9,1,stim/objects/Instruments/metronome2.png,stim/54.jpeg,5,stim/5.png,4,3,20,2020-12-09_19h54.39.905,premup-three_ses-02_part-03_label-phase3,3.2.4,Win32,60
1,right,1.901000023,4,1.495999813,0,1,2.848999977,0,2,1.289999962,1,0,200,45,1,199,2,1,0.7,1,stim/objects/HouseObjects/handbrush2.png,stim/41.jpeg,4,stim/4.png,1,1,20,2020-12-09_19h54.39.905,premup-three_ses-02_part-03_label-phase3,3.2.4,Win32,60
1,right,1.15899992,,,0,,,0,,,1,0,200,166,1,199,0,1,0,2,stim/objects/HouseObjects/cushion4.png,,0,stim/0.png,0,0,20,2020-12-09_19h54.39.905,premup-three_ses-02_part-03_label-phase3,3.2.4,Win32,60
1,left,2.440000057,2,2.313999891,0,4,4.811999798,0,1,3.001999855,1,0,200,67,1,199,3,1,0.1,1,stim/objects/HouseObjects/rubbergloves2.png,stim/54.jpeg,5,stim/5.png,4,1,20,2020-12-09_19h54.39.905,premup-three_ses-02_part-03_label-phase3,3.2.4,Win32,60
1,left,5.018000126,,,0,,,0,,,1,0,200,121,1,199,0,1,0,2,stim/objects/HouseObjects/handvacuum3.png,,0,stim/0.png,0,0,20,2020-12-09_19h54.39.905,premup-three_ses-02_part-03_label-phase3,3.2.4,Win32,60
1,right,1.330999851,,,0,,,0,,,1,0,200,145,1,199,0,1,0,2,stim/objects/HouseObjects/saw3.png,,0,stim/0.png,0,0,20,2020-12-09_19h54.39.905,premup-three_ses-02_part-03_label-phase3,3.2.4,Win32,60
1,right,0.920999765,,,0,,,0,,,1,0,200,182,1,199,0,1,0,2,stim/objects/HouseObjects/glass4.png,,0,stim/0.png,0,0,20,2020-12-09_19h54.39.905,premup-three_ses-02_part-03_label-phase3,3.2.4,Win32,60
1,left,0.951999903,4,1.878000021,0,2,5.245999813,0,1,0.639999866,1,0,200,9,1,199,1,1,0.5,1,stim/objects/Instruments/saxophone.png,stim/12.jpeg,1,stim/1.png,2,3,20,2020-12-09_19h54.39.905,premup-three_ses-02_part-03_label-phase3,3.2.4,Win32,60
1,right,2.710999966,,,0,,,0,,,1,0,200,193,1,199,0,2,0,2,stim/objects/Instruments/guitarcase4.png,,0,stim/0.png,0,0,20,2020-12-09_19h54.39.905,premup-three_ses-02_part-03_label-phase3,3.2.4,Win32,60
1,left,1.720000029,2,1.055999994,0,4,4.023999929,0,2,2.027999878,1,0,200,19,1,199,1,2,0.5,1,stim/objects/Instruments/trombone.png,stim/24.jpeg,2,stim/2.png,4,1,20,2020-12-09_19h54.39.905,premup-three_ses-02_part-03_label-phase3,3.2.4,Win32,60
1,left,1.613999844,,,0,,,0,,,1,0,200,147,1,199,0,1,0,2,stim/objects/HouseObjects/sponge3.png,,0,stim/0.png,0,0,20,2020-12-09_19h54.39.905,premup-three_ses-02_part-03_label-phase3,3.2.4,Win32,60
1,right,1.148000002,,,0,,,0,,,1,0,200,112,1,199,0,2,0,2,stim/objects/Instruments/electricguitar3.png,,0,stim/0.png,0,0,20,2020-12-09_19h54.39.905,premup-three_ses-02_part-03_label-phase3,3.2.4,Win32,60
1,right,1.020999908,,,0,,,0,,,1,0,200,184,1,199,0,1,0,2,stim/objects/HouseObjects/hairdryer4.png,,0,stim/0.png,0,0,20,2020-12-09_19h54.39.905,premup-three_ses-02_part-03_label-phase3,3.2.4,Win32,60
1,right,1.279000044,,,0,,,0,,,1,0,200,151,1,199,0,2,0,2,stim/objects/Instruments/pipepiano3.png,,0,stim/0.png,0,0,20,2020-12-09_19h54.39.905,premup-three_ses-02_part-03_label-phase3,3.2.4,Win32,60
1,right,0.868999958,,,0,,,0,,,1,0,200,133,1,199,0,2,0,2,stim/objects/Instruments/laud3.png,,0,stim/0.png,0,0,20,2020-12-09_19h54.39.905,premup-three_ses-02_part-03_label-phase3,3.2.4,Win32,60
1,left,1.13499999,4,0.962999821,0,2,2.203999996,0,3,1.43900013,1,0,200,46,1,199,2,1,0.7,1,stim/objects/HouseObjects/handvacuum2.png,stim/42.jpeg,4,stim/4.png,2,4,20,2020-12-09_19h54.39.905,premup-three_ses-02_part-03_label-phase3,3.2.4,Win32,60
1,left,1.490999937,,,0,,,0,,,1,0,200,116,1,199,0,2,0,2,stim/objects/Instruments/gong3.png,,0,stim/0.png,0,0,20,2020-12-09_19h54.39.905,premup-three_ses-02_part-03_label-phase3,3.2.4,Win32,60
1,left,0.900999784,4,0.955999851,0,4,2.320999861,0,4,0.920000076,1,0,200,59,1,199,2,2,0.3,1,stim/objects/Instruments/maraca2.png,stim/43.jpeg,4,stim/4.png,3,2,20,2020-12-09_19h54.39.905,premup-three_ses-02_part-03_label-phase3,3.2.4,Win32,60
1,right,0.949999809,,,0,,,0,,,1,0,200,140,1,199,0,1,0,2,stim/objects/HouseObjects/recyclingbin3.png,,0,stim/0.png,0,0,20,2020-12-09_19h54.39.905,premup-three_ses-02_part-03_label-phase3,3.2.4,Win32,60
1,right,0.978999853,,,0,,,0,,,1,0,200,102,1,199,0,1,0,2,stim/objects/HouseObjects/dishsoap3.png,,0,stim/0.png,0,0,20,2020-12-09_19h54.39.905,premup-three_ses-02_part-03_label-phase3,3.2.4,Win32,60
1,left,2.076999903,2,0.89199996,0,3,5.226000071,0,4,1.073999882,1,0,200,90,1,199,3,2,0.1,1,stim/objects/Instruments/speaker2.png,stim/63.jpeg,6,stim/6.png,3,2,20,2020-12-09_19h54.39.905,premup-three_ses-02_part-03_label-phase3,3.2.4,Win32,60
1,right,1.323999882,,,0,,,0,,,1,0,200,179,1,199,0,2,0,2,stim/objects/Instruments/flutetrans4.png,,0,stim/0.png,0,0,20,2020-12-09_19h54.39.905,premup-three_ses-02_part-03_label-phase3,3.2.4,Win32,60
1,left,1.102999926,3,1.326999903,0,1,3.021999836,0,4,0.622999907,1,0,200,97,1,199,3,2,0.1,1,stim/objects/Instruments/violin2.png,stim/62.jpeg,6,stim/6.png,2,4,20,2020-12-09_19h54.39.905,premup-three_ses-02_part-03_label-phase3,3.2.4,Win32,60
1,left,1.771999836,,,0,,,0,,,1,0,200,119,1,199,0,2,0,2,stim/objects/Instruments/harmonica3.png,,0,stim/0.png,0,0,20,2020-12-09_19h54.39.905,premup-three_ses-02_part-03_label-phase3,3.2.4,Win32,60
1,right,0.934999943,4,1.248999834,0,4,1.54399991,0,1,0.847999811,1,0,200,99,1,199,3,2,0.1,1,stim/objects/Instruments/xylophone2.png,stim/64.jpeg,6,stim/6.png,4,4,20,2020-12-09_19h54.39.905,premup-three_ses-02_part-03_label-phase3,3.2.4,Win32,60
1,left,1.198999882,3,1.987999916,0,2,2.35199976,0,3,1.26699996,1,0,200,80,1,199,3,1,0.9,1,stim/objects/HouseObjects/saw2.png,stim/61.jpeg,6,stim/6.png,1,1,20,2020-12-09_19h54.39.905,premup-three_ses-02_part-03_label-phase3,3.2.4,Win32,60
1,right,1.322999954,,,0,,,0,,,1,0,200,174,1,199,0,2,0,2,stim/objects/Instruments/xylophone3.png,,0,stim/0.png,0,0,20,2020-12-09_19h54.39.905,premup-three_ses-02_part-03_label-phase3,3.2.4,Win32,60
1,right,0.871000051,,,0,,,0,,,1,0,200,178,1,199,0,2,0,2,stim/objects/Instruments/flute4.png,,0,stim/0.png,0,0,20,2020-12-09_19h54.39.905,premup-three_ses-02_part-03_label-phase3,3.2.4,Win32,60
1,left,0.840999842,4,0.904999971,0,1,2.814999819,0,3,1.517999887,1,0,200,7,1,199,1,1,0.5,1,stim/objects/Instruments/record.png,stim/14.jpeg,1,stim/1.png,4,1,20,2020-12-09_19h54.39.905,premup-three_ses-02_part-03_label-phase3,3.2.4,Win32,60
1,left,1.064999819,,,0,,,0,,,1,0,200,192,1,199,0,2,0,2,stim/objects/Instruments/grandpiano4.png,,0,stim/0.png,0,0,20,2020-12-09_19h54.39.905,premup-three_ses-02_part-03_label-phase3,3.2.4,Win32,60
1,right,1.052000046,4,1.106999874,0,3,4.066999912,0,1,1.048000097,1,0,200,50,1,199,2,2,0.3,1,stim/objects/Instruments/frenchhorn2.png,stim/42.jpeg,4,stim/4.png,2,1,20,2020-12-09_19h54.39.905,premup-three_ses-02_part-03_label-phase3,3.2.4,Win32,60
1,left,1.192000151,4,1.106999874,0,2,4.509000063,0,2,2.666999817,1,0,200,54,1,199,2,2,0.3,1,stim/objects/Instruments/harmonica2.png,stim/42.jpeg,4,stim/4.png,2,2,20,2020-12-09_19h54.39.905,premup-three_ses-02_part-03_label-phase3,3.2.4,Win32,60
1,right,1.39199996,,,0,,,0,,,1,0,200,162,1,199,0,1,0,2,stim/objects/HouseObjects/towel3.png,,0,stim/0.png,0,0,20,2020-12-09_19h54.39.905,premup-three_ses-02_part-03_label-phase3,3.2.4,Win32,60
1,left,1.290999889,,,0,,,0,,,1,0,200,176,1,199,0,2,0,2,stim/objects/Instruments/electricdrumset4.png,,0,stim/0.png,0,0,20,2020-12-09_19h54.39.905,premup-three_ses-02_part-03_label-phase3,3.2.4,Win32,60
1,left,1.305999994,1,4.40199995,0,4,3.448999882,0,1,1.052000046,1,0,200,47,1,199,2,1,0.7,1,stim/objects/HouseObjects/iron2.png,stim/43.jpeg,4,stim/4.png,3,2,20,2020-12-09_19h54.39.905,premup-three_ses-02_part-03_label-phase3,3.2.4,Win32,60
1,right,1.194999933,2,2.183000088,0,4,2.352999926,0,4,0.708999872,1,0,200,85,1,199,3,1,0.9,1,stim/objects/HouseObjects/thermometer2.png,stim/62.jpeg,6,stim/6.png,2,2,20,2020-12-09_19h54.39.905,premup-three_ses-02_part-03_label-phase3,3.2.4,Win32,60
1,right,1.065999985,1,2.500999928,0,4,4.441999912,0,3,1.322999954,1,0,200,29,1,199,2,1,0.3,1,stim/objects/HouseObjects/dustpan2.png,stim/32.jpeg,3,stim/3.png,2,3,20,2020-12-09_19h54.39.905,premup-three_ses-02_part-03_label-phase3,3.2.4,Win32,60
1,left,1.059000015,,,0,,,0,,,1,0,200,115,1,199,0,2,0,2,stim/objects/Instruments/frenchhorn3.png,,0,stim/0.png,0,0,20,2020-12-09_19h54.39.905,premup-three_ses-02_part-03_label-phase3,3.2.4,Win32,60
1,left,1.021999836,4,1.000999928,0,3,1.803999901,0,4,0.88499999,1,0,200,44,1,199,2,1,0.7,1,stim/objects/HouseObjects/hairdryer2.png,stim/44.jpeg,4,stim/4.png,4,3,20,2020-12-09_19h54.39.905,premup-three_ses-02_part-03_label-phase3,3.2.4,Win32,60
1,left,1.21999979,4,0.682999849,0,3,6.785999775,0,1,0.748999834,1,0,200,79,1,199,3,2,0.9,1,stim/objects/Instruments/saxophone2.png,stim/54.jpeg,5,stim/5.png,4,1,20,2020-12-09_19h54.39.905,premup-three_ses-02_part-03_label-phase3,3.2.4,Win32,60
1,left,1.520999908,,,0,,,0,,,1,0,200,169,1,199,0,1,0,2,stim/objects/HouseObjects/dustpan4.png,,0,stim/0.png,0,0,20,2020-12-09_19h54.39.905,premup-three_ses-02_part-03_label-phase3,3.2.4,Win32,60
1,right,0.79399991,,,0,,,0,,,1,0,200,104,1,199,0,1,0,2,stim/objects/HouseObjects/dustpan3.png,,0,stim/0.png,0,0,20,2020-12-09_19h54.39.905,premup-three_ses-02_part-03_label-phase3,3.2.4,Win32,60
1,left,1.023999929,3,1.316999912,0,1,2.442000151,0,1,1.299000025,1,0,200,13,1,199,1,2,0.5,1,stim/objects/HouseObjects/spraybottle.png,stim/24.jpeg,2,stim/2.png,4,3,20,2020-12-09_19h54.39.905,premup-three_ses-02_part-03_label-phase3,3.2.4,Win32,60
1,left,0.964999914,,,0,,,0,,,1,0,200,124,1,199,0,1,0,2,stim/objects/HouseObjects/key3.png,,0,stim/0.png,0,0,20,2020-12-09_19h54.39.905,premup-three_ses-02_part-03_label-phase3,3.2.4,Win32,60
1,right,0.854999781,2,1.430000067,0,3,2.210999966,0,3,2.660000086,1,0,200,84,1,199,3,1,0.9,1,stim/objects/HouseObjects/teapot2.png,stim/61.jpeg,6,stim/6.png,1,1,20,2020-12-09_19h54.39.905,premup-three_ses-02_part-03_label-phase3,3.2.4,Win32,60
1,left,1.869999886,,,0,,,0,,,1,0,200,113,1,199,0,2,0,2,stim/objects/Instruments/flute3.png,,0,stim/0.png,0,0,20,2020-12-09_19h54.39.905,premup-three_ses-02_part-03_label-phase3,3.2.4,Win32,60
1,right,0.748999834,,,0,,,0,,,1,0,200,175,1,199,0,2,0,2,stim/objects/Instruments/drums4.png,,0,stim/0.png,0,0,20,2020-12-09_19h54.39.905,premup-three_ses-02_part-03_label-phase3,3.2.4,Win32,60
1,left,0.864000082,3,1.164999962,0,1,2.064999819,0,1,0.595999956,1,0,200,93,1,199,3,2,0.1,1,stim/objects/Instruments/triangle2.png,stim/62.jpeg,6,stim/6.png,2,2,20,2020-12-09_19h54.39.905,premup-three_ses-02_part-03_label-phase3,3.2.4,Win32,60
1,left,1.155999899,4,1.065999746,0,4,5.133999825,0,1,0.507999897,1,0,200,95,1,199,3,2,0.1,1,stim/objects/Instruments/trumpet2.png,stim/64.jpeg,6,stim/6.png,4,4,20,2020-12-09_19h54.39.905,premup-three_ses-02_part-03_label-phase3,3.2.4,Win32,60
1,left,1.190999985,2,1.607000113,0,3,1.358999729,0,4,1.371999741,1,0,200,18,1,199,1,2,0.5,1,stim/objects/Instruments/triangle.png,stim/23.jpeg,2,stim/2.png,3,2,20,2020-12-09_19h54.39.905,premup-three_ses-02_part-03_label-phase3,3.2.4,Win32,60
1,right,0.905999899,,,0,,,0,,,1,0,200,123,1,199,0,1,0,2,stim/objects/HouseObjects/ironingboard3.png,,0,stim/0.png,0,0,20,2020-12-09_19h54.39.905,premup-three_ses-02_part-03_label-phase3,3.2.4,Win32,60
1,left,1.044999838,4,1.008999825,0,1,2.5,0,3,1.817000151,1,0,200,72,1,199,3,2,0.9,1,stim/objects/Instruments/musicsheet2.png,stim/51.jpeg,5,stim/5.png,1,3,20,2020-12-09_19h54.39.905,premup-three_ses-02_part-03_label-phase3,3.2.4,Win32,60
1,right,1.069999933,,,0,,,0,,,1,0,200,155,1,199,0,2,0,2,stim/objects/Instruments/speaker3.png,,0,stim/0.png,0,0,20,2020-12-09_19h54.39.905,premup-three_ses-02_part-03_label-phase3,3.2.4,Win32,60
1,left,0.978999853,3,1.365999937,0,1,1.638000011,0,1,0.625,1,0,200,32,1,199,2,2,0.7,1,stim/objects/Instruments/violin.png,stim/34.jpeg,3,stim/3.png,4,4,20,2020-12-09_19h54.39.905,premup-three_ses-02_part-03_label-phase3,3.2.4,Win32,60
1,right,1.089999914,3,6.142999887,0,3,2.676999807,0,4,1.14199996,1,0,200,57,1,199,2,2,0.3,1,stim/objects/Instruments/keyboard2.png,stim/41.jpeg,4,stim/4.png,1,4,20,2020-12-09_19h54.39.905,premup-three_ses-02_part-03_label-phase3,3.2.4,Win32,60
1,right,1.259000063,,,0,,,0,,,1,0,200,152,1,199,0,2,0,2,stim/objects/Instruments/record3.png,,0,stim/0.png,0,0,20,2020-12-09_19h54.39.905,premup-three_ses-02_part-03_label-phase3,3.2.4,Win32,60
1,right,0.736999989,,,0,,,0,,,1,0,200,157,1,199,0,2,0,2,stim/objects/Instruments/timbal3.png,,0,stim/0.png,0,0,20,2020-12-09_19h54.39.905,premup-three_ses-02_part-03_label-phase3,3.2.4,Win32,60
1,right,2.549000025,3,2.363999844,0,4,1.479000092,0,3,0.833999872,1,0,200,8,1,199,1,1,0.5,1,stim/objects/Instruments/record_player.png,stim/11.jpeg,1,stim/1.png,1,3,20,2020-12-09_19h54.39.905,premup-three_ses-02_part-03_label-phase3,3.2.4,Win32,60
1,left,7.895999908,4,0.94299984,0,4,18.56999993,0,3,0.881999731,1,0,200,63,1,199,3,1,0.1,1,stim/objects/HouseObjects/pan2.png,stim/54.jpeg,5,stim/5.png,4,3,20,2020-12-09_19h54.39.905,premup-three_ses-02_part-03_label-phase3,3.2.4,Win32,60
1,left,0.970999956,3,1.19900012,0,1,4.605999947,0,4,1.105999947,1,0,200,30,1,199,2,2,0.7,1,stim/objects/Instruments/trumpet.png,stim/32.jpeg,3,stim/3.png,2,2,20,2020-12-09_19h54.39.905,premup-three_ses-02_part-03_label-phase3,3.2.4,Win32,60
1,right,1.144000053,,,0,,,0,,,1,0,200,181,1,199,0,1,0,2,stim/objects/HouseObjects/garbagebin4.png,,0,stim/0.png,0,0,20,2020-12-09_19h54.39.905,premup-three_ses-02_part-03_label-phase3,3.2.4,Win32,60
1,right,1.013999939,,,0,,,0,,,1,0,200,185,1,199,0,1,0,2,stim/objects/HouseObjects/handbrush4.png,,0,stim/0.png,0,0,20,2020-12-09_19h54.39.905,premup-three_ses-02_part-03_label-phase3,3.2.4,Win32,60
1,right,0.673999786,,,0,,,0,,,1,0,200,132,1,199,0,2,0,2,stim/objects/Instruments/keyboard3.png,,0,stim/0.png,0,0,20,2020-12-09_19h54.39.905,premup-three_ses-02_part-03_label-phase3,3.2.4,Win32,60
1,right,1.130999804,4,1.31799984,0,2,1.594000101,0,4,0.578999996,1,0,200,66,1,199,3,1,0.1,1,stim/objects/HouseObjects/remote2.png,stim/53.jpeg,5,stim/5.png,3,1,20,2020-12-09_19h54.39.905,premup-three_ses-02_part-03_label-phase3,3.2.4,Win32,60
1,right,0.895999908,3,2.720999956,0,2,3.559000015,0,3,1.132999897,1,0,200,60,1,199,3,1,0.1,1,stim/objects/HouseObjects/knife2.png,stim/51.jpeg,5,stim/5.png,1,3,20,2020-12-09_19h54.39.905,premup-three_ses-02_part-03_label-phase3,3.2.4,Win32,60
1,left,3.56099987,,,0,,,0,,,1,0,200,117,1,199,0,2,0,2,stim/objects/Instruments/grandpiano3.png,,0,stim/0.png,0,0,20,2020-12-09_19h54.39.905,premup-three_ses-02_part-03_label-phase3,3.2.4,Win32,60
1,left,0.758999825,,,0,,,0,,,1,0,200,171,1,199,0,2,0,2,stim/objects/Instruments/tuba3.png,,0,stim/0.png,0,0,20,2020-12-09_19h54.39.905,premup-three_ses-02_part-03_label-phase3,3.2.4,Win32,60
1,left,0.776000023,4,0.5849998,0,3,7.411999941,0,3,0.982999802,1,0,200,12,1,199,1,2,0.5,1,stim/objects/HouseObjects/sponge.png,stim/23.jpeg,2,stim/2.png,3,3,20,2020-12-09_19h54.39.905,premup-three_ses-02_part-03_label-phase3,3.2.4,Win32,60
1,left,1.506999969,2,1.39199996,0,4,3.126999855,0,2,1.832000017,1,0,200,16,1,199,1,2,0.5,1,stim/objects/Instruments/tambourine.png,stim/21.jpeg,2,stim/2.png,1,2,20,2020-12-09_19h54.39.905,premup-three_ses-02_part-03_label-phase3,3.2.4,Win32,60
1,right,1.055999994,2,1.559000015,0,3,2.504999876,0,1,1.582999945,1,0,200,35,1,199,2,2,0.7,1,stim/objects/Instruments/drums2.png,stim/33.jpeg,3,stim/3.png,3,1,20,2020-12-09_19h54.39.905,premup-three_ses-02_part-03_label-phase3,3.2.4,Win32,60
1,left,1.237999916,4,0.584000111,0,4,4.590999842,0,4,0.728999853,1,0,200,91,1,199,3,2,0.1,1,stim/objects/Instruments/tambourine2.png,stim/64.jpeg,6,stim/6.png,4,4,20,2020-12-09_19h54.39.905,premup-three_ses-02_part-03_label-phase3,3.2.4,Win32,60
1,left,6.353999853,1,1.998999834,0,4,2.495999813,0,3,0.938999891,1,0,200,52,1,199,2,2,0.3,1,stim/objects/Instruments/grandpiano2.png,stim/44.jpeg,4,stim/4.png,4,4,20,2020-12-09_19h54.39.905,premup-three_ses-02_part-03_label-phase3,3.2.4,Win32,60
1,left,0.923000097,4,0.867000103,0,2,4.503999949,0,3,0.726999998,1,0,200,15,1,199,1,2,0.5,1,stim/objects/Instruments/speaker.png,stim/24.jpeg,2,stim/2.png,4,1,20,2020-12-09_19h54.39.905,premup-three_ses-02_part-03_label-phase3,3.2.4,Win32,60
1,right,1.11199975,,,0,,,0,,,1,0,200,148,1,199,0,1,0,2,stim/objects/HouseObjects/spraybottle3.png,,0,stim/0.png,0,0,20,2020-12-09_19h54.39.905,premup-three_ses-02_part-03_label-phase3,3.2.4,Win32,60
1,right,0.73699975,3,1.708999872,0,1,0.809999943,0,1,0.513999939,1,0,200,23,1,199,2,1,0.3,1,stim/objects/HouseObjects/vacuumcleaner.png,stim/34.jpeg,3,stim/3.png,4,3,20,2020-12-09_19h54.39.905,premup-three_ses-02_part-03_label-phase3,3.2.4,Win32,60
1,right,1.029000044,,,0,,,0,,,1,0,200,186,1,199,0,1,0,2,stim/objects/HouseObjects/handvacuum4.png,,0,stim/0.png,0,0,20,2020-12-09_19h54.39.905,premup-three_ses-02_part-03_label-phase3,3.2.4,Win32,60
1,left,0.948999882,3,1.174000025,0,3,4.324999809,0,1,0.523000002,1,0,200,4,1,199,1,1,0.5,1,stim/objects/HouseObjects/safetypin.png,stim/13.jpeg,1,stim/1.png,3,1,20,2020-12-09_19h54.39.905,premup-three_ses-02_part-03_label-phase3,3.2.4,Win32,60
1,right,0.97300005,4,1.598999977,0,1,0.825999975,0,3,0.772000074,1,0,200,3,1,199,1,1,0.5,1,stim/objects/HouseObjects/rug.png,stim/12.jpeg,1,stim/1.png,2,2,20,2020-12-09_19h54.39.905,premup-three_ses-02_part-03_label-phase3,3.2.4,Win32,60
1,left,1.166999817,2,1.284999847,0,1,2.845000029,0,1,0.515999794,1,0,200,64,1,199,3,1,0.1,1,stim/objects/HouseObjects/pitcher2.png,stim/51.jpeg,5,stim/5.png,1,1,20,2020-12-09_19h54.39.905,premup-three_ses-02_part-03_label-phase3,3.2.4,Win32,60
1,right,1.325999975,,,0,,,0,,,1,0,200,160,1,199,0,1,0,2,stim/objects/HouseObjects/thermometer3.png,,0,stim/0.png,0,0,20,2020-12-09_19h54.39.905,premup-three_ses-02_part-03_label-phase3,3.2.4,Win32,60
1,right,1.066999912,,,0,,,0,,,1,0,200,198,1,199,0,2,0,2,stim/objects/Instruments/laud4.png,,0,stim/0.png,0,0,20,2020-12-09_19h54.39.905,premup-three_ses-02_part-03_label-phase3,3.2.4,Win32,60
1,right,0.996999979,3,1.873999834,0,4,0.766000032,0,1,0.694999933,1,0,200,65,1,199,3,1,0.1,1,stim/objects/HouseObjects/recyclingbin2.png,stim/52.jpeg,5,stim/5.png,2,3,20,2020-12-09_19h54.39.905,premup-three_ses-02_part-03_label-phase3,3.2.4,Win32,60
1,left,1.136999846,,,0,,,0,,,1,0,200,170,1,199,0,2,0,2,stim/objects/Instruments/trumpet3.png,,0,stim/0.png,0,0,20,2020-12-09_19h54.39.905,premup-three_ses-02_part-03_label-phase3,3.2.4,Win32,60
1,right,1.386999846,,,0,,,0,,,1,0,200,129,1,199,0,1,0,2,stim/objects/HouseObjects/pitcher3.png,,0,stim/0.png,0,0,20,2020-12-09_19h54.39.905,premup-three_ses-02_part-03_label-phase3,3.2.4,Win32,60
1,right,0.81099987,4,0.832999945,0,4,0.677000046,0,2,0.863999844,1,0,200,68,1,199,3,1,0.1,1,stim/objects/HouseObjects/rug2.png,stim/51.jpeg,5,stim/5.png,1,2,20,2020-12-09_19h54.39.905,premup-three_ses-02_part-03_label-phase3,3.2.4,Win32,60
1,left,0.950999975,,,0,,,0,,,1,0,200,188,1,199,0,1,0,2,stim/objects/HouseObjects/ironingboard4.png,,0,stim/0.png,0,0,20,2020-12-09_19h54.39.905,premup-three_ses-02_part-03_label-phase3,3.2.4,Win32,60
1,right,0.791999817,,,0,,,0,,,1,0,200,167,1,199,0,1,0,2,stim/objects/HouseObjects/dishsoap4.png,,0,stim/0.png,0,0,20,2020-12-09_19h54.39.905,premup-three_ses-02_part-03_label-phase3,3.2.4,Win32,60
1,left,1.720000029,2,1.227999926,0,1,0.762999773,0,1,0.298999786,1,0,200,55,1,199,2,2,0.3,1,stim/objects/Instruments/harp2.png,stim/43.jpeg,4,stim/4.png,3,4,20,2020-12-09_19h54.39.905,premup-three_ses-02_part-03_label-phase3,3.2.4,Win32,60
1,right,1.020999908,,,0,,,0,,,1,0,200,156,1,199,0,2,0,2,stim/objects/Instruments/tambourine3.png,,0,stim/0.png,0,0,20,2020-12-09_19h54.39.905,premup-three_ses-02_part-03_label-phase3,3.2.4,Win32,60
1,left,1.107999802,,,0,,,0,,,1,0,200,158,1,199,0,2,0,2,stim/objects/Instruments/triangle3.png,,0,stim/0.png,0,0,20,2020-12-09_19h54.39.905,premup-three_ses-02_part-03_label-phase3,3.2.4,Win32,60
1,right,0.911000013,,,0,,,0,,,1,0,200,165,1,199,0,1,0,2,stim/objects/HouseObjects/coffee4.png,,0,stim/0.png,0,0,20,2020-12-09_19h54.39.905,premup-three_ses-02_part-03_label-phase3,3.2.4,Win32,60
1,left,0.904999971,,,0,,,0,,,1,0,200,154,1,199,0,2,0,2,stim/objects/Instruments/saxophone3.png,,0,stim/0.png,0,0,20,2020-12-09_19h54.39.905,premup-three_ses-02_part-03_label-phase3,3.2.4,Win32,60
1,left,2.816999912,3,1.335000038,0,3,4.354000092,0,4,0.889999866,1,0,200,31,1,199,2,2,0.7,1,stim/objects/Instruments/tuba.png,stim/33.jpeg,3,stim/3.png,3,4,20,2020-12-09_19h54.39.905,premup-three_ses-02_part-03_label-phase3,3.2.4,Win32,60
1,left,0.851000071,4,0.809999943,0,1,2.372999907,0,1,0.279999971,1,0,200,28,1,199,2,1,0.3,1,stim/objects/HouseObjects/doormat2.png,stim/31.jpeg,3,stim/3.png,1,3,20,2020-12-09_19h54.39.905,premup-three_ses-02_part-03_label-phase3,3.2.4,Win32,60
1,right,2.414000034,,,0,,,0,,,1,0,200,137,1,199,0,2,0,2,stim/objects/Instruments/musicsheet3.png,,0,stim/0.png,0,0,20,2020-12-09_19h54.39.905,premup-three_ses-02_part-03_label-phase3,3.2.4,Win32,60
1,left,1.122999907,4,0.743999958,0,1,2.907999992,0,4,1.236999989,1,0,200,51,1,199,2,2,0.3,1,stim/objects/Instruments/gong2.png,stim/43.jpeg,4,stim/4.png,3,4,20,2020-12-09_19h54.39.905,premup-three_ses-02_part-03_label-phase3,3.2.4,Win32,60
1,left,2.81799984,4,1.275999784,0,4,2.575999975,0,4,0.979999781,1,0,200,27,1,199,2,1,0.3,1,stim/objects/HouseObjects/dishsoap2.png,stim/34.jpeg,3,stim/3.png,4,1,20,2020-12-09_19h54.39.905,premup-three_ses-02_part-03_label-phase3,3.2.4,Win32,60
1,right,0.937000036,,,0,,,0,,,1,0,200,177,1,199,0,2,0,2,stim/objects/Instruments/electricguitar4.png,,0,stim/0.png,0,0,20,2020-12-09_19h54.39.905,premup-three_ses-02_part-03_label-phase3,3.2.4,Win32,60
1,right,0.732000113,,,0,,,0,,,1,0,200,120,1,199,0,1,0,2,stim/objects/HouseObjects/handbrush3.png,,0,stim/0.png,0,0,20,2020-12-09_19h54.39.905,premup-three_ses-02_part-03_label-phase3,3.2.4,Win32,60
1,right,0.674999952,,,0,,,0,,,1,0,200,100,1,199,0,1,0,2,stim/objects/HouseObjects/coffee3.png,,0,stim/0.png,0,0,20,2020-12-09_19h54.39.905,premup-three_ses-02_part-03_label-phase3,3.2.4,Win32,60
1,left,1.123999834,1,1.476000071,0,4,3.125999928,0,3,0.728999853,1,0,200,0,1,199,1,1,0.5,1,stim/objects/HouseObjects/recyclingbin.png,stim/13.jpeg,1,stim/1.png,3,4,20,2020-12-09_19h54.39.905,premup-three_ses-02_part-03_label-phase3,3.2.4,Win32,60
1,left,1.977999926,3,2.296000004,0,2,1.638000011,0,1,0.4599998,1,0,200,14,1,199,1,2,0.5,1,stim/objects/HouseObjects/teapot.png,stim/21.jpeg,2,stim/2.png,1,4,20,2020-12-09_19h54.39.905,premup-three_ses-02_part-03_label-phase3,3.2.4,Win32,60
1,right,1.214999914,,,0,,,0,,,1,0,200,139,1,199,0,2,0,2,stim/objects/Instruments/oboe3.png,,0,stim/0.png,0,0,20,2020-12-09_19h54.39.905,premup-three_ses-02_part-03_label-phase3,3.2.4,Win32,60
1,right,0.846999884,,,0,,,0,,,1,0,200,191,1,199,0,2,0,2,stim/objects/Instruments/gong4.png,,0,stim/0.png,0,0,20,2020-12-09_19h54.39.905,premup-three_ses-02_part-03_label-phase3,3.2.4,Win32,60
1,right,0.812000036,,,0,,,0,,,1,0,200,199,1,199,0,2,0,2,stim/objects/Instruments/maraca4.png,,0,stim/0.png,0,0,20,2020-12-09_19h54.39.905,premup-three_ses-02_part-03_label-phase3,3.2.4,Win32,60
1,right,0.983999968,,,0,,,0,,,1,0,200,111,1,199,0,2,0,2,stim/objects/Instruments/electricdrumset3.png,,0,stim/0.png,0,0,20,2020-12-09_19h54.39.905,premup-three_ses-02_part-03_label-phase3,3.2.4,Win32,60
1,right,2.843999863,4,1.786999941,0,3,2.136000156,0,3,0.826999903,1,0,200,75,1,199,3,2,0.9,1,stim/objects/Instruments/panflute2.png,stim/54.jpeg,5,stim/5.png,4,3,20,2020-12-09_19h54.39.905,premup-three_ses-02_part-03_label-phase3,3.2.4,Win32,60
1,left,1.233999968,1,3.894000053,0,4,2.166999817,0,4,0.644000053,1,0,200,62,1,199,3,1,0.1,1,stim/objects/HouseObjects/match2.png,stim/53.jpeg,5,stim/5.png,3,3,20,2020-12-09_19h54.39.905,premup-three_ses-02_part-03_label-phase3,3.2.4,Win32,60
1,right,0.950000048,3,1.631999969,0,2,1.267999887,0,3,0.649999857,1,0,200,56,1,199,2,2,0.3,1,stim/objects/Instruments/hihat2.png,stim/44.jpeg,4,stim/4.png,4,2,20,2020-12-09_19h54.39.905,premup-three_ses-02_part-03_label-phase3,3.2.4,Win32,60
1,right,0.787999868,1,4.960999727,0,2,1.934000015,0,1,0.61500001,1,0,200,37,1,199,2,2,0.7,1,stim/objects/Instruments/electricguitar2.png,stim/31.jpeg,3,stim/3.png,1,1,20,2020-12-09_19h54.39.905,premup-three_ses-02_part-03_label-phase3,3.2.4,Win32,60
1,left,1.24000001,4,0.715999842,0,4,5.319999933,0,3,1.056999922,1,0,200,2,1,199,1,1,0.5,1,stim/objects/HouseObjects/rubbergloves.png,stim/11.jpeg,1,stim/1.png,1,4,20,2020-12-09_19h54.39.905,premup-three_ses-02_part-03_label-phase3,3.2.4,Win32,60
1,left,1.200000048,3,0.792999983,0,4,4.404000044,0,4,0.298000097,1,0,200,10,1,199,1,2,0.5,1,stim/objects/HouseObjects/saw.png,stim/21.jpeg,2,stim/2.png,1,1,20,2020-12-09_19h54.39.905,premup-three_ses-02_part-03_label-phase3,3.2.4,Win32,60
1,right,1.05099988,4,1.355000019,0,1,1.91899991,0,4,0.595000029,1,0,200,89,1,199,3,1,0.9,1,stim/objects/HouseObjects/wateringcan2.png,stim/62.jpeg,6,stim/6.png,2,4,20,2020-12-09_19h54.39.905,premup-three_ses-02_part-03_label-phase3,3.2.4,Win32,60
1,right,2.887999773,,,0,,,0,,,1,0,200,143,1,199,0,1,0,2,stim/objects/HouseObjects/rug3.png,,0,stim/0.png,0,0,20,2020-12-09_19h54.39.905,premup-three_ses-02_part-03_label-phase3,3.2.4,Win32,60
1,right,0.900000095,,,0,,,0,,,1,0,200,146,1,199,0,1,0,2,stim/objects/HouseObjects/scale3.png,,0,stim/0.png,0,0,20,2020-12-09_19h54.39.905,premup-three_ses-02_part-03_label-phase3,3.2.4,Win32,60
1,left,1.066999912,4,0.515000105,0,1,1.697000027,0,2,1.079999924,1,0,200,26,1,199,2,1,0.3,1,stim/objects/HouseObjects/cushion2.png,stim/33.jpeg,3,stim/3.png,3,4,20,2020-12-09_19h54.39.905,premup-three_ses-02_part-03_label-phase3,3.2.4,Win32,60
1,right,0.797999859,4,1.423000097,0,2,1.368000031,0,1,0.78399992,1,0,200,98,1,199,3,2,0.1,1,stim/objects/Instruments/vuvuzela2.png,stim/63.jpeg,6,stim/6.png,3,2,20,2020-12-09_19h54.39.905,premup-three_ses-02_part-03_label-phase3,3.2.4,Win32,60
1,right,0.905999899,2,2.648999929,0,1,2.248999834,0,3,1.261999846,1,0,200,34,1,199,2,2,0.7,1,stim/objects/Instruments/xylophone.png,stim/32.jpeg,3,stim/3.png,2,2,20,2020-12-09_19h54.39.905,premup-three_ses-02_part-03_label-phase3,3.2.4,Win32,60
1,left,1.854000092,4,1.138999939,0,3,10.13899994,0,2,0.920000076,1,0,200,48,1,199,2,1,0.7,1,stim/objects/HouseObjects/ironingboard2.png,stim/44.jpeg,4,stim/4.png,4,1,20,2020-12-09_19h54.39.905,premup-three_ses-02_part-03_label-phase3,3.2.4,Win32,60
1,right,1.835999966,,,0,,,0,,,1,0,200,114,1,199,0,2,0,2,stim/objects/Instruments/flutetrans3.png,,0,stim/0.png,0,0,20,2020-12-09_19h54.39.905,premup-three_ses-02_part-03_label-phase3,3.2.4,Win32,60
1,left,1.096999884,3,2.644999981,0,2,1.884999752,0,2,0.693000078,1,0,200,87,1,199,3,1,0.9,1,stim/objects/HouseObjects/towel2.png,stim/64.jpeg,6,stim/6.png,4,2,20,2020-12-09_19h54.39.905,premup-three_ses-02_part-03_label-phase3,3.2.4,Win32,60
1,right,0.688999891,,,0,,,0,,,1,0,200,163,1,199,0,1,0,2,stim/objects/HouseObjects/vacuumcleaner3.png,,0,stim/0.png,0,0,20,2020-12-09_19h54.39.905,premup-three_ses-02_part-03_label-phase3,3.2.4,Win32,60
1,left,0.871999979,,,0,,,0,,,1,0,200,107,1,199,0,1,0,2,stim/objects/HouseObjects/glass3.png,,0,stim/0.png,0,0,20,2020-12-09_19h54.39.905,premup-three_ses-02_part-03_label-phase3,3.2.4,Win32,60
1,right,0.807999849,,,0,,,0,,,1,0,200,142,1,199,0,1,0,2,stim/objects/HouseObjects/rubbergloves3.png,,0,stim/0.png,0,0,20,2020-12-09_19h54.39.905,premup-three_ses-02_part-03_label-phase3,3.2.4,Win32,60
1,right,0.809000015,4,1.472999811,0,3,0.97699976,0,1,0.476999998,1,0,200,70,1,199,3,2,0.9,1,stim/objects/Instruments/marimba2.png,stim/53.jpeg,5,stim/5.png,3,1,20,2020-12-09_19h54.39.905,premup-three_ses-02_part-03_label-phase3,3.2.4,Win32,60
1,left,0.864000082,4,0.838999748,0,1,2.102999926,0,1,2.480999947,1,0,200,76,1,199,3,2,0.9,1,stim/objects/Instruments/pipepiano2.png,stim/51.jpeg,5,stim/5.png,1,1,20,2020-12-09_19h54.39.905,premup-three_ses-02_part-03_label-phase3,3.2.4,Win32,60
1,right,0.821999788,,,0,,,0,,,1,0,200,187,1,199,0,1,0,2,stim/objects/HouseObjects/iron4.png,,0,stim/0.png,0,0,20,2020-12-09_19h54.39.905,premup-three_ses-02_part-03_label-phase3,3.2.4,Win32,60
1,right,1.085999966,,,0,,,0,,,1,0,200,122,1,199,0,1,0,2,stim/objects/HouseObjects/iron3.png,,0,stim/0.png,0,0,20,2020-12-09_19h54.39.905,premup-three_ses-02_part-03_label-phase3,3.2.4,Win32,60
1,left,0.746999979,4,0.602999926,0,1,2.42599988,0,1,0.263999939,1,0,200,49,1,199,2,1,0.7,1,stim/objects/HouseObjects/key2.png,stim/41.jpeg,4,stim/4.png,1,1,20,2020-12-09_19h54.39.905,premup-three_ses-02_part-03_label-phase3,3.2.4,Win32,60
1,right,1.316999912,,,0,,,0,,,1,0,200,106,1,199,0,1,0,2,stim/objects/HouseObjects/garbagebin3.png,,0,stim/0.png,0,0,20,2020-12-09_19h54.39.905,premup-three_ses-02_part-03_label-phase3,3.2.4,Win32,60
1,right,0.845999956,4,0.884999752,0,4,1.008999825,0,1,0.595999956,1,0,200,77,1,199,3,2,0.9,1,stim/objects/Instruments/record2.png,stim/52.jpeg,5,stim/5.png,2,2,20,2020-12-09_19h54.39.905,premup-three_ses-02_part-03_label-phase3,3.2.4,Win32,60
1,right,1.7099998,,,0,,,0,,,1,0,200,108,1,199,0,1,0,2,stim/objects/HouseObjects/glassmop3.png,,0,stim/0.png,0,0,20,2020-12-09_19h54.39.905,premup-three_ses-02_part-03_label-phase3,3.2.4,Win32,60
1,right,0.894999981,,,0,,,0,,,1,0,200,180,1,199,0,1,0,2,stim/objects/HouseObjects/flyswatter4.png,,0,stim/0.png,0,0,20,2020-12-09_19h54.39.905,premup-three_ses-02_part-03_label-phase3,3.2.4,Win32,60
1,left,2.687999725,1,0.872999907,0,1,1.072000027,0,1,0.93900013,1,0,200,39,1,199,2,2,0.7,1,stim/objects/Instruments/flutetrans2.png,stim/33.jpeg,3,stim/3.png,3,1,20,2020-12-09_19h54.39.905,premup-three_ses-02_part-03_label-phase3,3.2.4,Win32,60
1,right,1.46999979,,,0,,,0,,,1,0,200,105,1,199,0,1,0,2,stim/objects/HouseObjects/flyswatter3.png,,0,stim/0.png,0,0,20,2020-12-09_19h54.39.905,premup-three_ses-02_part-03_label-phase3,3.2.4,Win32,60
1,right,0.835000038,,,0,,,0,,,1,0,200,110,1,199,0,2,0,2,stim/objects/Instruments/drums3.png,,0,stim/0.png,0,0,20,2020-12-09_19h54.39.905,premup-three_ses-02_part-03_label-phase3,3.2.4,Win32,60
1,left,1.344000101,2,0.786000013,0,2,1.072000027,0,4,1.235999823,1,0,200,24,1,199,2,1,0.3,1,stim/objects/HouseObjects/wateringcan.png,stim/31.jpeg,3,stim/3.png,1,1,20,2020-12-09_19h54.39.905,premup-three_ses-02_part-03_label-phase3,3.2.4,Win32,60
1,right,1.032999992,,,0,,,0,,,1,0,200,172,1,199,0,2,0,2,stim/objects/Instruments/violin3.png,,0,stim/0.png,0,0,20,2020-12-09_19h54.39.905,premup-three_ses-02_part-03_label-phase3,3.2.4,Win32,60
1,left,1.032999754,4,0.486999989,0,4,4.31799984,0,4,0.59499979,1,0,200,41,1,199,2,1,0.7,1,stim/objects/HouseObjects/garbagebin2.png,stim/41.jpeg,4,stim/4.png,1,1,20,2020-12-09_19h54.39.905,premup-three_ses-02_part-03_label-phase3,3.2.4,Win32,60
1,left,0.999999762,,,0,,,0,,,1,0,200,144,1,199,0,1,0,2,stim/objects/HouseObjects/safetypin3.png,,0,stim/0.png,0,0,20,2020-12-09_19h54.39.905,premup-three_ses-02_part-03_label-phase3,3.2.4,Win32,60
1,right,1.441999912,4,1.078999996,0,4,1.578999996,0,1,0.453999996,1,0,200,17,1,199,1,2,0.5,1,stim/objects/Instruments/timbal.png,stim/22.jpeg,2,stim/2.png,2,2,20,2020-12-09_19h54.39.905,premup-three_ses-02_part-03_label-phase3,3.2.4,Win32,60
1,right,0.865999937,,,0,,,0,,,1,0,200,153,1,199,0,2,0,2,stim/objects/Instruments/record_player3.png,,0,stim/0.png,0,0,20,2020-12-09_19h54.39.905,premup-three_ses-02_part-03_label-phase3,3.2.4,Win32,60
1,right,1.204999924,,,0,,,0,,,1,0,200,126,1,199,0,1,0,2,stim/objects/HouseObjects/lintroller3.png,,0,stim/0.png,0,0,20,2020-12-09_19h54.39.905,premup-three_ses-02_part-03_label-phase3,3.2.4,Win32,60
1,right,3.820999861,,,0,,,0,,,1,0,200,138,1,199,0,2,0,2,stim/objects/Instruments/musicstand3.png,,0,stim/0.png,0,0,20,2020-12-09_19h54.39.905,premup-three_ses-02_part-03_label-phase3,3.2.4,Win32,60
1,right,0.803999901,,,0,,,0,,,1,0,200,197,1,199,0,2,0,2,stim/objects/Instruments/keyboard4.png,,0,stim/0.png,0,0,20,2020-12-09_19h54.39.905,premup-three_ses-02_part-03_label-phase3,3.2.4,Win32,60
1,right,1.074999809,,,0,,,0,,,1,0,200,103,1,199,0,1,0,2,stim/objects/HouseObjects/doormat3.png,,0,stim/0.png,0,0,20,2020-12-09_19h54.39.905,premup-three_ses-02_part-03_label-phase3,3.2.4,Win32,60
1,left,3.072999954,,,0,,,0,,,1,0,200,141,1,199,0,1,0,2,stim/objects/HouseObjects/remote3.png,,0,stim/0.png,0,0,20,2020-12-09_19h54.39.905,premup-three_ses-02_part-03_label-phase3,3.2.4,Win32,60
1,right,1.031999826,4,0.871000051,0,1,1.082000017,0,4,0.54399991,1,0,200,78,1,199,3,2,0.9,1,stim/objects/Instruments/record_player2.png,stim/53.jpeg,5,stim/5.png,3,2,20,2020-12-09_19h54.39.905,premup-three_ses-02_part-03_label-phase3,3.2.4,Win32,60
1,left,1.264999866,,,0,,,0,,,1,0,200,134,1,199,0,2,0,2,stim/objects/Instruments/maraca3.png,,0,stim/0.png,0,0,20,2020-12-09_19h54.39.905,premup-three_ses-02_part-03_label-phase3,3.2.4,Win32,60
1,right,1.297999859,,,0,,,0,,,1,0,200,194,1,199,0,2,0,2,stim/objects/Instruments/harmonica4.png,,0,stim/0.png,0,0,20,2020-12-09_19h54.39.905,premup-three_ses-02_part-03_label-phase3,3.2.4,Win32,60
1,right,2.484999895,4,1.297999859,0,2,0.838999987,0,1,0.490999937,1,0,200,20,1,199,2,1,0.3,1,stim/objects/HouseObjects/thermometer.png,stim/31.jpeg,3,stim/3.png,1,1,20,2020-12-09_19h54.39.905,premup-three_ses-02_part-03_label-phase3,3.2.4,Win32,60
1,left,0.833999872,2,1.552999973,0,3,1.138000011,0,2,1.888999939,1,0,200,42,1,199,2,1,0.7,1,stim/objects/HouseObjects/glass2.png,stim/42.jpeg,4,stim/4.png,2,2,20,2020-12-09_19h54.39.905,premup-three_ses-02_part-03_label-phase3,3.2.4,Win32,60
1,left,0.917999983,4,0.85800004,0,1,1.483999968,0,3,0.828000069,1,0,200,82,1,199,3,1,0.9,1,stim/objects/HouseObjects/sponge2.png,stim/63.jpeg,6,stim/6.png,3,4,20,2020-12-09_19h54.39.905,premup-three_ses-02_part-03_label-phase3,3.2.4,Win32,60
1,right,0.871999979,1,3.49000001,0,3,1.645999908,0,1,0.60800004,1,0,200,43,1,199,2,1,0.7,1,stim/objects/HouseObjects/glassmop2.png,stim/43.jpeg,4,stim/4.png,3,3,20,2020-12-09_19h54.39.905,premup-three_ses-02_part-03_label-phase3,3.2.4,Win32,60
1,left,1.480000019,,,0,,,0,,,1,0,200,136,1,199,0,2,0,2,stim/objects/Instruments/metronome3.png,,0,stim/0.png,0,0,20,2020-12-09_19h54.39.905,premup-three_ses-02_part-03_label-phase3,3.2.4,Win32,60
1,left,0.825999975,3,1.31799984,0,3,2.494999886,0,1,0.60199976,1,0,200,86,1,199,3,1,0.9,1,stim/objects/HouseObjects/thread2.png,stim/63.jpeg,6,stim/6.png,3,3,20,2020-12-09_19h54.39.905,premup-three_ses-02_part-03_label-phase3,3.2.4,Win32,60
1,left,0.947999954,3,1.541999817,0,3,1.481999874,0,3,1.864999771,1,0,200,22,1,199,2,1,0.3,1,stim/objects/HouseObjects/towel.png,stim/33.jpeg,3,stim/3.png,3,4,20,2020-12-09_19h54.39.905,premup-three_ses-02_part-03_label-phase3,3.2.4,Win32,60
1,right,1.154999971,2,2.316999912,0,2,2.561999798,0,4,1.065000057,1,0,200,73,1,199,3,2,0.9,1,stim/objects/Instruments/musicstand2.png,stim/52.jpeg,5,stim/5.png,2,4,20,2020-12-09_19h54.39.905,premup-three_ses-02_part-03_label-phase3,3.2.4,Win32,60
1,left,1.01699996,2,0.855000019,0,3,1.377000093,0,4,0.342000008,1,0,200,92,1,199,3,2,0.1,1,stim/objects/Instruments/timbal2.png,stim/61.jpeg,6,stim/6.png,1,2,20,2020-12-09_19h54.39.905,premup-three_ses-02_part-03_label-phase3,3.2.4,Win32,60
1,left,0.855999708,3,1.00999999,0,2,2.220999956,0,1,0.756999969,1,0,200,6,1,199,1,1,0.5,1,stim/objects/Instruments/pipepiano.png,stim/13.jpeg,1,stim/1.png,3,2,20,2020-12-09_19h54.39.905,premup-three_ses-02_part-03_label-phase3,3.2.4,Win32,60
1,right,2.828999996,2,0.835999966,0,2,2.003000021,0,3,1.25999999,1,0,200,94,1,199,3,2,0.1,1,stim/objects/Instruments/trombone2.png,stim/63.jpeg,6,stim/6.png,3,4,20,2020-12-09_19h54.39.905,premup-three_ses-02_part-03_label-phase3,3.2.4,Win32,60
1,right,1.292999983,3,1.96999979,0,3,2.296999931,0,2,1.776999712,1,0,200,83,1,199,3,1,0.9,1,stim/objects/HouseObjects/spraybottle2.png,stim/64.jpeg,6,stim/6.png,4,4,20,2020-12-09_19h54.39.905,premup-three_ses-02_part-03_label-phase3,3.2.4,Win32,60
1,left,1.664999962,,,0,,,0,,,1,0,200,109,1,199,0,1,0,2,stim/objects/HouseObjects/hairdryer3.png,,0,stim/0.png,0,0,20,2020-12-09_19h54.39.905,premup-three_ses-02_part-03_label-phase3,3.2.4,Win32,60
1,right,0.769999743,4,1.18599987,0,1,0.660000086,0,1,0.363999844,1,0,200,61,1,199,3,1,0.1,1,stim/objects/HouseObjects/lintroller2.png,stim/52.jpeg,5,stim/5.png,2,3,20,2020-12-09_19h54.39.905,premup-three_ses-02_part-03_label-phase3,3.2.4,Win32,60
1,left,3.134000063,3,0.990999937,0,4,3.774999857,0,2,0.715999842,1,0,200,38,1,199,2,2,0.7,1,stim/objects/Instruments/flute2.png,stim/32.jpeg,3,stim/3.png,2,2,20,2020-12-09_19h54.39.905,premup-three_ses-02_part-03_label-phase3,3.2.4,Win32,60
1,right,1.092000008,,,0,,,0,,,1,0,200,125,1,199,0,1,0,2,stim/objects/HouseObjects/knife3.png,,0,stim/0.png,0,0,20,2020-12-09_19h54.39.905,premup-three_ses-02_part-03_label-phase3,3.2.4,Win32,60
1,left,0.964999914,4,0.517999887,0,3,3.358999968,0,1,0.389999866,1,0,200,81,1,199,3,1,0.9,1,stim/objects/HouseObjects/scale2.png,stim/62.jpeg,6,stim/6.png,2,3,20,2020-12-09_19h54.39.905,premup-three_ses-02_part-03_label-phase3,3.2.4,Win32,60
1,left,1.190000057,,,0,,,0,,,1,0,200,195,1,199,0,2,0,2,stim/objects/Instruments/harp4.png,,0,stim/0.png,0,0,20,2020-12-09_19h54.39.905,premup-three_ses-02_part-03_label-phase3,3.2.4,Win32,60
1,left,1.056999922,4,0.538999796,0,1,4.781999826,0,1,1.147000074,1,0,200,1,1,199,1,1,0.5,1,stim/objects/HouseObjects/remote.png,stim/14.jpeg,1,stim/1.png,4,1,20,2020-12-09_19h54.39.905,premup-three_ses-02_part-03_label-phase3,3.2.4,Win32,60
1,right,1.124000072,2,1.099999905,0,2,1.448999882,0,4,0.743999958,1,0,200,5,1,199,1,1,0.5,1,stim/objects/Instruments/panflute.png,stim/12.jpeg,1,stim/1.png,2,1,20,2020-12-09_19h54.39.905,premup-three_ses-02_part-03_label-phase3,3.2.4,Win32,60
1,right,1.063999891,,,0,,,0,,,1,0,200,135,1,199,0,2,0,2,stim/objects/Instruments/marimba3.png,,0,stim/0.png,0,0,20,2020-12-09_19h54.39.905,premup-three_ses-02_part-03_label-phase3,3.2.4,Win32,60
1,left,1.398000002,,,0,,,0,,,1,0,200,189,1,199,0,1,0,2,stim/objects/HouseObjects/key4.png,,0,stim/0.png,0,0,20,2020-12-09_19h54.39.905,premup-three_ses-02_part-03_label-phase3,3.2.4,Win32,60
1,left,0.903000116,3,0.941999912,0,3,3.072999954,0,4,0.524999857,1,0,200,11,1,199,1,2,0.5,1,stim/objects/HouseObjects/scale.png,stim/22.jpeg,2,stim/2.png,2,2,20,2020-12-09_19h54.39.905,premup-three_ses-02_part-03_label-phase3,3.2.4,Win32,60
1,right,0.940999985,,,0,,,0,,,1,0,200,168,1,199,0,1,0,2,stim/objects/HouseObjects/doormat4.png,,0,stim/0.png,0,0,20,2020-12-09_19h54.39.905,premup-three_ses-02_part-03_label-phase3,3.2.4,Win32,60
1,left,0.961999893,3,1.031999826,0,1,1.419999838,0,1,0.557999849,1,0,200,33,1,199,2,2,0.7,1,stim/objects/Instruments/vuvuzela.png,stim/31.jpeg,3,stim/3.png,1,3,20,2020-12-09_19h54.39.905,premup-three_ses-02_part-03_label-phase3,3.2.4,Win32,60
1,right,2.589999914,1,3.098999977,0,2,2.225999832,0,3,1.029999733,1,0,200,58,1,199,2,2,0.3,1,stim/objects/Instruments/laud2.png,stim/42.jpeg,4,stim/4.png,2,3,20,2020-12-09_19h54.39.905,premup-three_ses-02_part-03_label-phase3,3.2.4,Win32,60
1,right,2.512999773,2,1.117999792,0,3,1.254999876,0,4,1.600000143,1,0,200,69,1,199,3,1,0.1,1,stim/objects/HouseObjects/safetypin2.png,stim/52.jpeg,5,stim/5.png,2,4,20,2020-12-09_19h54.39.905,premup-three_ses-02_part-03_label-phase3,3.2.4,Win32,60
1,left,1.149999857,2,3.256000042,0,2,1.005000114,0,4,0.961999893,1,0,200,25,1,199,2,1,0.3,1,stim/objects/HouseObjects/coffee2.png,stim/32.jpeg,3,stim/3.png,2,2,20,2020-12-09_19h54.39.905,premup-three_ses-02_part-03_label-phase3,3.2.4,Win32,60
1,right,1.867000103,,,0,,,0,,,1,0,200,161,1,199,0,1,0,2,stim/objects/HouseObjects/thread3.png,,0,stim/0.png,0,0,20,2020-12-09_19h54.39.905,premup-three_ses-02_part-03_label-phase3,3.2.4,Win32,60
1,left,0.85800004,4,0.576999903,0,4,5.334000111,0,2,0.77699995,1,0,200,21,1,199,2,1,0.3,1,stim/objects/HouseObjects/thread.png,stim/32.jpeg,3,stim/3.png,2,1,20,2020-12-09_19h54.39.905,premup-three_ses-02_part-03_label-phase3,3.2.4,Win32,60
1,left,0.726000071,,,0,,,0,,,1,0,200,128,1,199,0,1,0,2,stim/objects/HouseObjects/pan3.png,,0,stim/0.png,0,0,20,2020-12-09_19h54.39.905,premup-three_ses-02_part-03_label-phase3,3.2.4,Win32,60
1,right,0.795999765,3,1.308000088,0,2,0.960999966,0,1,4.861999989,1,0,200,74,1,199,3,2,0.9,1,stim/objects/Instruments/oboe2.png,stim/53.jpeg,5,stim/5.png,3,4,20,2020-12-09_19h54.39.905,premup-three_ses-02_part-03_label-phase3,3.2.4,Win32,60
1,right,1.181999922,,,0,,,0,,,1,0,200,150,1,199,0,2,0,2,stim/objects/Instruments/panflute3.png,,0,stim/0.png,0,0,20,2020-12-09_19h54.39.905,premup-three_ses-02_part-03_label-phase3,3.2.4,Win32,60
1,right,1.207999945,,,0,,,0,,,1,0,200,159,1,199,0,2,0,2,stim/objects/Instruments/trombone3.png,,0,stim/0.png,0,0,20,2020-12-09_19h54.39.905,premup-three_ses-02_part-03_label-phase3,3.2.4,Win32,60
1,left,0.934999704,4,0.505999804,0,1,1.737999916,0,4,1.521999836,1,0,200,40,1,199,2,1,0.7,1,stim/objects/HouseObjects/flyswatter2.png,stim/44.jpeg,4,stim/4.png,4,1,20,2020-12-09_19h54.39.905,premup-three_ses-02_part-03_label-phase3,3.2.4,Win32,60
1,right,1.782999992,,,0,,,0,,,1,0,200,149,1,199,0,1,0,2,stim/objects/HouseObjects/teapot3.png,,0,stim/0.png,0,0,20,2020-12-09_19h54.39.905,premup-three_ses-02_part-03_label-phase3,3.2.4,Win32,60
1,left,1.197000027,,,0,,,0,,,1,0,200,196,1,199,0,2,0,2,stim/objects/Instruments/hihat4.png,,0,stim/0.png,0,0,20,2020-12-09_19h54.39.905,premup-three_ses-02_part-03_label-phase3,3.2.4,Win32,60
1,right,0.788000107,,,0,,,0,,,1,0,200,131,1,199,0,2,0,2,stim/objects/Instruments/hihat3.png,,0,stim/0.png,0,0,20,2020-12-09_19h54.39.905,premup-three_ses-02_part-03_label-phase3,3.2.4,Win32,60
1,right,0.788000107,,,0,,,0,,,1,0,200,173,1,199,0,2,0,2,stim/objects/Instruments/vuvuzela3.png,,0,stim/0.png,0,0,20,2020-12-09_19h54.39.905,premup-three_ses-02_part-03_label-phase3,3.2.4,Win32,60
1,right,0.829999924,4,1.111000061,0,4,1.960999727,0,4,0.445999861,1,0,200,96,1,199,3,2,0.1,1,stim/objects/Instruments/tuba2.png,stim/61.jpeg,6,stim/6.png,1,2,20,2020-12-09_19h54.39.905,premup-three_ses-02_part-03_label-phase3,3.2.4,Win32,60
1,right,0.849999905,,,0,,,0,,,1,0,200,183,1,199,0,1,0,2,stim/objects/HouseObjects/glassmop4.png,,0,stim/0.png,0,0,20,2020-12-09_19h54.39.905,premup-three_ses-02_part-03_label-phase3,3.2.4,Win32,60
