key_resp_trial.keys,key_resp_trial.rt,trial_acc,trial_index,iterations.thisRepN,iterations.thisTrialN,iterations.thisN,iterations.thisIndex,iterations.ran,iterations.order,task_innerloop.thisRepN,task_innerloop.thisTrialN,task_innerloop.thisN,task_innerloop.thisIndex,task_innerloop.ran,task_innerloop.order,scn_condition,scn_cat,scn_inst,scn_file,obj_cat,obj_cat_num,obj_file,trial_cond,quadrant,obj_x,obj_y,corr_ans,participant,date,expName,psychopyVersion,OS,frameRate,slider.response,slider.rt,slider_2.response,slider_2.rt,ratings.thisRepN,ratings.thisTrialN,ratings.thisN,ratings.thisIndex,ratings.ran,ratings.order,obj_cat_top,min_resp_top,max_resp_top,obj_cat_bottom,min_resp_bottom,max_resp_bottom,enc_trials.thisRepN,enc_trials.thisTrialN,enc_trials.thisN,enc_trials.thisIndex,enc_trials.ran,enc_trials.order,fillers,ratings_final.thisRepN,ratings_final.thisTrialN,ratings_final.thisN,ratings_final.thisIndex,ratings_final.ran,ratings_final.order
,,0,1,1,0,1,0,1,0,1,0,240,106,1,239,2,5,3,stim/53.jpeg,HouseObjects,2,stim/objects/HouseObjects/handbrush.png,0.7,3,-0.2,-0.15,right,21,2020-12-03_09h11.43.754,premup-three_ses-02_part-02_label-phase2,3.2.4,Win32,60,,,,,,,,,,,,,,,,,,,,,,,,,,,,,
left,0.504000187,1,2,1,0,1,0,1,0,1,0,240,138,1,239,2,6,3,stim/63.jpeg,Instruments,1,stim/objects/Instruments/electricguitar2.png,0.7,2,0.2,0.15,left,21,2020-12-03_09h11.43.754,premup-three_ses-02_part-02_label-phase2,3.2.4,Win32,60,,,,,,,,,,,,,,,,,,,,,,,,,,,,,
left,0.565000296,1,3,1,0,1,0,1,0,1,0,240,127,1,239,2,6,4,stim/64.jpeg,Instruments,1,stim/objects/Instruments/flute2.png,0.7,4,0.2,-0.15,left,21,2020-12-03_09h11.43.754,premup-three_ses-02_part-02_label-phase2,3.2.4,Win32,60,,,,,,,,,,,,,,,,,,,,,,,,,,,,,
left,0.630000114,1,4,1,0,1,0,1,0,1,0,240,201,1,239,3,2,2,stim/22.jpeg,Instruments,1,stim/objects/Instruments/harmonica2.png,0.9,1,-0.2,0.15,left,21,2020-12-03_09h11.43.754,premup-three_ses-02_part-02_label-phase2,3.2.4,Win32,60,,,,,,,,,,,,,,,,,,,,,,,,,,,,,
right,0.677000284,0,5,1,0,1,0,1,0,1,0,240,45,1,239,1,4,2,stim/42.jpeg,Instruments,1,stim/objects/Instruments/frenchhorn.png,0.5,3,-0.2,-0.15,left,21,2020-12-03_09h11.43.754,premup-three_ses-02_part-02_label-phase2,3.2.4,Win32,60,,,,,,,,,,,,,,,,,,,,,,,,,,,,,
right,0.788000107,1,6,1,0,1,0,1,0,1,0,240,175,1,239,3,1,4,stim/14.jpeg,HouseObjects,2,stim/objects/HouseObjects/glass2.png,0.9,2,0.2,0.15,right,21,2020-12-03_09h11.43.754,premup-three_ses-02_part-02_label-phase2,3.2.4,Win32,60,,,,,,,,,,,,,,,,,,,,,,,,,,,,,
left,0.679000378,0,7,1,0,1,0,1,0,1,0,240,151,1,239,2,6,4,stim/64.jpeg,HouseObjects,2,stim/objects/HouseObjects/doormat2.png,0.3,4,0.2,-0.15,right,21,2020-12-03_09h11.43.754,premup-three_ses-02_part-02_label-phase2,3.2.4,Win32,60,,,,,,,,,,,,,,,,,,,,,,,,,,,,,
,,0,8,1,0,1,0,1,0,1,0,240,164,1,239,3,1,1,stim/11.jpeg,HouseObjects,2,stim/objects/HouseObjects/dustpan2.png,0.9,1,-0.2,0.15,right,21,2020-12-03_09h11.43.754,premup-three_ses-02_part-02_label-phase2,3.2.4,Win32,60,,,,,,,,,,,,,,,,,,,,,,,,,,,,,
right,0.512000084,0,9,1,0,1,0,1,0,1,0,240,90,1,239,2,5,3,stim/53.jpeg,Instruments,1,stim/objects/Instruments/harp.png,0.3,1,-0.2,0.15,left,21,2020-12-03_09h11.43.754,premup-three_ses-02_part-02_label-phase2,3.2.4,Win32,60,,,,,,,,,,,,,,,,,,,,,,,,,,,,,
right,0.67200017,0,10,1,0,1,0,1,0,1,0,240,56,1,239,1,4,1,stim/41.jpeg,Instruments,1,stim/objects/Instruments/flutetrans.png,0.5,2,0.2,0.15,left,21,2020-12-03_09h11.43.754,premup-three_ses-02_part-02_label-phase2,3.2.4,Win32,60,,,,,,,,,,,,,,,,,,,,,,,,,,,,,
right,0.481000185,0,11,1,0,1,0,1,0,1,0,240,91,1,239,2,5,4,stim/54.jpeg,Instruments,1,stim/objects/Instruments/hihat.png,0.3,2,0.2,0.15,left,21,2020-12-03_09h11.43.754,premup-three_ses-02_part-02_label-phase2,3.2.4,Win32,60,,,,,,,,,,,,,,,,,,,,,,,,,,,,,
,,0,12,1,0,1,0,1,0,1,0,240,183,1,239,3,1,4,stim/14.jpeg,HouseObjects,2,stim/objects/HouseObjects/glass2.png,0.9,1,-0.2,0.15,right,21,2020-12-03_09h11.43.754,premup-three_ses-02_part-02_label-phase2,3.2.4,Win32,60,,,,,,,,,,,,,,,,,,,,,,,,,,,,,
right,0.411000252,1,13,1,0,1,0,1,0,1,0,240,93,1,239,2,5,2,stim/52.jpeg,HouseObjects,2,stim/objects/HouseObjects/hairdryer.png,0.7,3,-0.2,-0.15,right,21,2020-12-03_09h11.43.754,premup-three_ses-02_part-02_label-phase2,3.2.4,Win32,60,,,,,,,,,,,,,,,,,,,,,,,,,,,,,
left,0.446000099,1,14,1,0,1,0,1,0,1,0,240,231,1,239,3,2,4,stim/24.jpeg,Instruments,1,stim/objects/Instruments/hihat2.png,0.9,4,0.2,-0.15,left,21,2020-12-03_09h11.43.754,premup-three_ses-02_part-02_label-phase2,3.2.4,Win32,60,,,,,,,,,,,,,,,,,,,,,,,,,,,,,
right,0.409000158,1,15,1,0,1,0,1,0,1,0,240,26,1,239,1,3,3,stim/33.jpeg,HouseObjects,2,stim/objects/HouseObjects/dishsoap.png,0.5,2,0.2,0.15,right,21,2020-12-03_09h11.43.754,premup-three_ses-02_part-02_label-phase2,3.2.4,Win32,60,,,,,,,,,,,,,,,,,,,,,,,,,,,,,
right,0.554000139,1,16,1,0,1,0,1,0,1,0,240,104,1,239,2,5,1,stim/51.jpeg,HouseObjects,2,stim/objects/HouseObjects/glassmop.png,0.7,1,-0.2,0.15,right,21,2020-12-03_09h11.43.754,premup-three_ses-02_part-02_label-phase2,3.2.4,Win32,60,,,,,,,,,,,,,,,,,,,,,,,,,,,,,
left,0.40500021,1,17,1,0,1,0,1,0,1,0,240,214,1,239,3,2,3,stim/23.jpeg,Instruments,1,stim/objects/Instruments/harp2.png,0.9,1,-0.2,0.15,left,21,2020-12-03_09h11.43.754,premup-three_ses-02_part-02_label-phase2,3.2.4,Win32,60,,,,,,,,,,,,,,,,,,,,,,,,,,,,,
right,0.423000097,1,18,1,0,1,0,1,0,1,0,240,105,1,239,2,5,2,stim/52.jpeg,HouseObjects,2,stim/objects/HouseObjects/hairdryer.png,0.7,2,0.2,0.15,right,21,2020-12-03_09h11.43.754,premup-three_ses-02_part-02_label-phase2,3.2.4,Win32,60,,,,,,,,,,,,,,,,,,,,,,,,,,,,,
right,0.429000139,1,19,1,0,1,0,1,0,1,0,240,101,1,239,2,5,2,stim/52.jpeg,HouseObjects,2,stim/objects/HouseObjects/hairdryer.png,0.7,2,0.2,0.15,right,21,2020-12-03_09h11.43.754,premup-three_ses-02_part-02_label-phase2,3.2.4,Win32,60,,,,,,,,,,,,,,,,,,,,,,,,,,,,,
left,0.526000261,0,20,1,0,1,0,1,0,1,0,240,110,1,239,2,5,3,stim/53.jpeg,HouseObjects,2,stim/objects/HouseObjects/handbrush.png,0.7,2,0.2,0.15,right,21,2020-12-03_09h11.43.754,premup-three_ses-02_part-02_label-phase2,3.2.4,Win32,60,,,,,,,,,,,,,,,,,,,,,,,,,,,,,
left,0.48900032,1,21,1,0,1,0,1,0,1,0,240,135,1,239,2,6,4,stim/64.jpeg,Instruments,1,stim/objects/Instruments/flute2.png,0.7,2,0.2,0.15,left,21,2020-12-03_09h11.43.754,premup-three_ses-02_part-02_label-phase2,3.2.4,Win32,60,,,,,,,,,,,,,,,,,,,,,,,,,,,,,
right,0.749000072,1,22,1,0,1,0,1,0,1,0,240,23,1,239,1,3,4,stim/34.jpeg,HouseObjects,2,stim/objects/HouseObjects/doormat.png,0.5,1,-0.2,0.15,right,21,2020-12-03_09h11.43.754,premup-three_ses-02_part-02_label-phase2,3.2.4,Win32,60,,,,,,,,,,,,,,,,,,,,,,,,,,,,,
right,0.44900012,1,23,1,0,1,0,1,0,1,0,240,78,1,239,1,4,3,stim/43.jpeg,HouseObjects,2,stim/objects/HouseObjects/garbagebin.png,0.5,1,-0.2,0.15,right,21,2020-12-03_09h11.43.754,premup-three_ses-02_part-02_label-phase2,3.2.4,Win32,60,,,,,,,,,,,,,,,,,,,,,,,,,,,,,
right,0.48900032,1,24,1,0,1,0,1,0,1,0,240,185,1,239,3,1,2,stim/12.jpeg,HouseObjects,2,stim/objects/HouseObjects/flyswatter2.png,0.9,2,0.2,0.15,right,21,2020-12-03_09h11.43.754,premup-three_ses-02_part-02_label-phase2,3.2.4,Win32,60,,,,,,,,,,,,,,,,,,,,,,,,,,,,,
right,0.500000238,0,25,1,0,1,0,1,0,1,0,240,82,1,239,2,5,3,stim/53.jpeg,Instruments,1,stim/objects/Instruments/harp.png,0.3,1,-0.2,0.15,left,21,2020-12-03_09h11.43.754,premup-three_ses-02_part-02_label-phase2,3.2.4,Win32,60,,,,,,,,,,,,,,,,,,,,,,,,,,,,,
left,0.502000332,1,26,1,0,1,0,1,0,1,0,240,143,1,239,2,6,4,stim/64.jpeg,Instruments,1,stim/objects/Instruments/flute2.png,0.7,4,0.2,-0.15,left,21,2020-12-03_09h11.43.754,premup-three_ses-02_part-02_label-phase2,3.2.4,Win32,60,,,,,,,,,,,,,,,,,,,,,,,,,,,,,
left,0.524000168,0,27,1,0,1,0,1,0,1,0,240,150,1,239,2,6,3,stim/63.jpeg,HouseObjects,2,stim/objects/HouseObjects/dishsoap2.png,0.3,4,0.2,-0.15,right,21,2020-12-03_09h11.43.754,premup-three_ses-02_part-02_label-phase2,3.2.4,Win32,60,,,,,,,,,,,,,,,,,,,,,,,,,,,,,
left,0.679000139,1,28,1,0,1,0,1,0,1,0,240,142,1,239,2,6,3,stim/63.jpeg,Instruments,1,stim/objects/Instruments/electricguitar2.png,0.7,3,-0.2,-0.15,left,21,2020-12-03_09h11.43.754,premup-three_ses-02_part-02_label-phase2,3.2.4,Win32,60,,,,,,,,,,,,,,,,,,,,,,,,,,,,,
right,0.446000099,1,29,1,0,1,0,1,0,1,0,240,96,1,239,2,5,1,stim/51.jpeg,HouseObjects,2,stim/objects/HouseObjects/glassmop.png,0.7,3,-0.2,-0.15,right,21,2020-12-03_09h11.43.754,premup-three_ses-02_part-02_label-phase2,3.2.4,Win32,60,,,,,,,,,,,,,,,,,,,,,,,,,,,,,
left,0.584000111,1,30,1,0,1,0,1,0,1,0,240,57,1,239,1,4,2,stim/42.jpeg,Instruments,1,stim/objects/Instruments/frenchhorn.png,0.5,4,0.2,-0.15,left,21,2020-12-03_09h11.43.754,premup-three_ses-02_part-02_label-phase2,3.2.4,Win32,60,,,,,,,,,,,,,,,,,,,,,,,,,,,,,
left,0.592000008,1,31,1,0,1,0,1,0,1,0,240,141,1,239,2,6,2,stim/62.jpeg,Instruments,1,stim/objects/Instruments/electricdrumset2.png,0.7,1,-0.2,0.15,left,21,2020-12-03_09h11.43.754,premup-three_ses-02_part-02_label-phase2,3.2.4,Win32,60,,,,,,,,,,,,,,,,,,,,,,,,,,,,,
right,0.478000164,1,32,1,0,1,0,1,0,1,0,240,61,1,239,1,4,2,stim/42.jpeg,HouseObjects,2,stim/objects/HouseObjects/flyswatter.png,0.5,2,0.2,0.15,right,21,2020-12-03_09h11.43.754,premup-three_ses-02_part-02_label-phase2,3.2.4,Win32,60,,,,,,,,,,,,,,,,,,,,,,,,,,,,,
right,0.561000109,1,33,1,0,1,0,1,0,1,0,240,177,1,239,3,1,2,stim/12.jpeg,HouseObjects,2,stim/objects/HouseObjects/flyswatter2.png,0.9,4,0.2,-0.15,right,21,2020-12-03_09h11.43.754,premup-three_ses-02_part-02_label-phase2,3.2.4,Win32,60,,,,,,,,,,,,,,,,,,,,,,,,,,,,,
right,0.533000231,1,34,1,0,1,0,1,0,1,0,240,112,1,239,2,5,1,stim/51.jpeg,HouseObjects,2,stim/objects/HouseObjects/glassmop.png,0.7,4,0.2,-0.15,right,21,2020-12-03_09h11.43.754,premup-three_ses-02_part-02_label-phase2,3.2.4,Win32,60,,,,,,,,,,,,,,,,,,,,,,,,,,,,,
right,0.611999989,1,35,1,0,1,0,1,0,1,0,240,193,1,239,3,1,2,stim/12.jpeg,HouseObjects,2,stim/objects/HouseObjects/flyswatter2.png,0.9,3,-0.2,-0.15,right,21,2020-12-03_09h11.43.754,premup-three_ses-02_part-02_label-phase2,3.2.4,Win32,60,,,,,,,,,,,,,,,,,,,,,,,,,,,,,
left,0.526000261,1,36,1,0,1,0,1,0,1,0,240,226,1,239,3,2,3,stim/23.jpeg,Instruments,1,stim/objects/Instruments/harp2.png,0.9,1,-0.2,0.15,left,21,2020-12-03_09h11.43.754,premup-three_ses-02_part-02_label-phase2,3.2.4,Win32,60,,,,,,,,,,,,,,,,,,,,,,,,,,,,,
left,0.796000242,0,37,1,0,1,0,1,0,1,0,240,108,1,239,2,5,1,stim/51.jpeg,HouseObjects,2,stim/objects/HouseObjects/glassmop.png,0.7,2,0.2,0.15,right,21,2020-12-03_09h11.43.754,premup-three_ses-02_part-02_label-phase2,3.2.4,Win32,60,,,,,,,,,,,,,,,,,,,,,,,,,,,,,
,,0,38,1,0,1,0,1,0,1,0,240,27,1,239,1,3,4,stim/34.jpeg,HouseObjects,2,stim/objects/HouseObjects/doormat.png,0.5,1,-0.2,0.15,right,21,2020-12-03_09h11.43.754,premup-three_ses-02_part-02_label-phase2,3.2.4,Win32,60,,,,,,,,,,,,,,,,,,,,,,,,,,,,,
left,0.71900034,1,39,1,0,1,0,1,0,1,0,240,6,1,239,1,3,3,stim/33.jpeg,Instruments,1,stim/objects/Instruments/electricguitar.png,0.5,4,0.2,-0.15,left,21,2020-12-03_09h11.43.754,premup-three_ses-02_part-02_label-phase2,3.2.4,Win32,60,,,,,,,,,,,,,,,,,,,,,,,,,,,,,
left,0.752000093,0,40,1,0,1,0,1,0,1,0,240,72,1,239,1,4,1,stim/41.jpeg,HouseObjects,2,stim/objects/HouseObjects/dustpan.png,0.5,1,-0.2,0.15,right,21,2020-12-03_09h11.43.754,premup-three_ses-02_part-02_label-phase2,3.2.4,Win32,60,,,,,,,,,,,,,,,,,,,,,,,,,,,,,
left,0.660000086,1,41,1,0,1,0,1,0,1,0,240,145,1,239,2,6,2,stim/62.jpeg,Instruments,1,stim/objects/Instruments/electricdrumset2.png,0.7,4,0.2,-0.15,left,21,2020-12-03_09h11.43.754,premup-three_ses-02_part-02_label-phase2,3.2.4,Win32,60,,,,,,,,,,,,,,,,,,,,,,,,,,,,,
right,0.471000195,1,42,1,0,1,0,1,0,1,0,240,169,1,239,3,1,2,stim/12.jpeg,HouseObjects,2,stim/objects/HouseObjects/flyswatter2.png,0.9,1,-0.2,0.15,right,21,2020-12-03_09h11.43.754,premup-three_ses-02_part-02_label-phase2,3.2.4,Win32,60,,,,,,,,,,,,,,,,,,,,,,,,,,,,,
left,0.471000195,1,43,1,0,1,0,1,0,1,0,240,8,1,239,1,3,1,stim/31.jpeg,Instruments,1,stim/objects/Instruments/drums.png,0.5,1,-0.2,0.15,left,21,2020-12-03_09h11.43.754,premup-three_ses-02_part-02_label-phase2,3.2.4,Win32,60,,,,,,,,,,,,,,,,,,,,,,,,,,,,,
right,0.5400002,1,44,1,0,1,0,1,0,1,0,240,173,1,239,3,1,2,stim/12.jpeg,HouseObjects,2,stim/objects/HouseObjects/flyswatter2.png,0.9,2,0.2,0.15,right,21,2020-12-03_09h11.43.754,premup-three_ses-02_part-02_label-phase2,3.2.4,Win32,60,,,,,,,,,,,,,,,,,,,,,,,,,,,,,
,,0,45,1,0,1,0,1,0,1,0,240,70,1,239,1,4,3,stim/43.jpeg,HouseObjects,2,stim/objects/HouseObjects/garbagebin.png,0.5,1,-0.2,0.15,right,21,2020-12-03_09h11.43.754,premup-three_ses-02_part-02_label-phase2,3.2.4,Win32,60,,,,,,,,,,,,,,,,,,,,,,,,,,,,,
left,0.476000309,1,46,1,0,1,0,1,0,1,0,240,230,1,239,3,2,3,stim/23.jpeg,Instruments,1,stim/objects/Instruments/harp2.png,0.9,4,0.2,-0.15,left,21,2020-12-03_09h11.43.754,premup-three_ses-02_part-02_label-phase2,3.2.4,Win32,60,,,,,,,,,,,,,,,,,,,,,,,,,,,,,
right,0.608000278,1,47,1,0,1,0,1,0,1,0,240,114,1,239,2,5,3,stim/53.jpeg,HouseObjects,2,stim/objects/HouseObjects/handbrush.png,0.7,3,-0.2,-0.15,right,21,2020-12-03_09h11.43.754,premup-three_ses-02_part-02_label-phase2,3.2.4,Win32,60,,,,,,,,,,,,,,,,,,,,,,,,,,,,,
left,0.705000162,1,48,1,0,1,0,1,0,1,0,240,89,1,239,2,5,2,stim/52.jpeg,Instruments,1,stim/objects/Instruments/harmonica.png,0.3,1,-0.2,0.15,left,21,2020-12-03_09h11.43.754,premup-three_ses-02_part-02_label-phase2,3.2.4,Win32,60,,,,,,,,,,,,,,,,,,,,,,,,,,,,,
right,0.549999952,1,49,1,0,1,0,1,0,1,0,240,118,1,239,2,5,3,stim/53.jpeg,HouseObjects,2,stim/objects/HouseObjects/handbrush.png,0.7,3,-0.2,-0.15,right,21,2020-12-03_09h11.43.754,premup-three_ses-02_part-02_label-phase2,3.2.4,Win32,60,,,,,,,,,,,,,,,,,,,,,,,,,,,,,
,,0,50,1,0,1,0,1,0,1,0,240,2,1,239,1,3,3,stim/33.jpeg,Instruments,1,stim/objects/Instruments/electricguitar.png,0.5,3,-0.2,-0.15,left,21,2020-12-03_09h11.43.754,premup-three_ses-02_part-02_label-phase2,3.2.4,Win32,60,,,,,,,,,,,,,,,,,,,,,,,,,,,,,
left,0.233000278,0,51,1,0,1,0,1,0,1,0,240,31,1,239,1,3,4,stim/34.jpeg,HouseObjects,2,stim/objects/HouseObjects/doormat.png,0.5,1,-0.2,0.15,right,21,2020-12-03_09h11.43.754,premup-three_ses-02_part-02_label-phase2,3.2.4,Win32,60,,,,,,,,,,,,,,,,,,,,,,,,,,,,,
left,0.515000105,1,52,1,0,1,0,1,0,1,0,240,139,1,239,2,6,4,stim/64.jpeg,Instruments,1,stim/objects/Instruments/flute2.png,0.7,1,-0.2,0.15,left,21,2020-12-03_09h11.43.754,premup-three_ses-02_part-02_label-phase2,3.2.4,Win32,60,,,,,,,,,,,,,,,,,,,,,,,,,,,,,
right,0.609000206,1,53,1,0,1,0,1,0,1,0,240,109,1,239,2,5,2,stim/52.jpeg,HouseObjects,2,stim/objects/HouseObjects/hairdryer.png,0.7,4,0.2,-0.15,right,21,2020-12-03_09h11.43.754,premup-three_ses-02_part-02_label-phase2,3.2.4,Win32,60,,,,,,,,,,,,,,,,,,,,,,,,,,,,,
left,0.543000221,1,54,1,0,1,0,1,0,1,0,240,140,1,239,2,6,1,stim/61.jpeg,Instruments,1,stim/objects/Instruments/drums2.png,0.7,4,0.2,-0.15,left,21,2020-12-03_09h11.43.754,premup-three_ses-02_part-02_label-phase2,3.2.4,Win32,60,,,,,,,,,,,,,,,,,,,,,,,,,,,,,
left,0.501000166,1,55,1,0,1,0,1,0,1,0,240,133,1,239,2,6,2,stim/62.jpeg,Instruments,1,stim/objects/Instruments/electricdrumset2.png,0.7,4,0.2,-0.15,left,21,2020-12-03_09h11.43.754,premup-three_ses-02_part-02_label-phase2,3.2.4,Win32,60,,,,,,,,,,,,,,,,,,,,,,,,,,,,,
left,0.565000296,0,56,1,0,1,0,1,0,1,0,240,63,1,239,1,4,4,stim/44.jpeg,HouseObjects,2,stim/objects/HouseObjects/glass.png,0.5,4,0.2,-0.15,right,21,2020-12-03_09h11.43.754,premup-three_ses-02_part-02_label-phase2,3.2.4,Win32,60,,,,,,,,,,,,,,,,,,,,,,,,,,,,,
right,0.479000092,1,57,1,0,1,0,1,0,1,0,240,182,1,239,3,1,3,stim/13.jpeg,HouseObjects,2,stim/objects/HouseObjects/garbagebin2.png,0.9,1,-0.2,0.15,right,21,2020-12-03_09h11.43.754,premup-three_ses-02_part-02_label-phase2,3.2.4,Win32,60,,,,,,,,,,,,,,,,,,,,,,,,,,,,,
right,0.395000219,0,58,1,0,1,0,1,0,1,0,240,54,1,239,1,4,3,stim/43.jpeg,Instruments,1,stim/objects/Instruments/gong.png,0.5,2,0.2,0.15,left,21,2020-12-03_09h11.43.754,premup-three_ses-02_part-02_label-phase2,3.2.4,Win32,60,,,,,,,,,,,,,,,,,,,,,,,,,,,,,
right,0.395000219,0,59,1,0,1,0,1,0,1,0,240,136,1,239,2,6,1,stim/61.jpeg,Instruments,1,stim/objects/Instruments/drums2.png,0.7,1,-0.2,0.15,left,21,2020-12-03_09h11.43.754,premup-three_ses-02_part-02_label-phase2,3.2.4,Win32,60,,,,,,,,,,,,,,,,,,,,,,,,,,,,,
left,0.625,0,60,1,0,1,0,1,0,1,0,240,66,1,239,1,4,3,stim/43.jpeg,HouseObjects,2,stim/objects/HouseObjects/garbagebin.png,0.5,3,-0.2,-0.15,right,21,2020-12-03_09h11.43.754,premup-three_ses-02_part-02_label-phase2,3.2.4,Win32,60,,,,,,,,,,,,,,,,,,,,,,,,,,,,,
left,0.656000137,0,61,1,0,1,0,1,0,1,0,240,166,1,239,3,1,3,stim/13.jpeg,HouseObjects,2,stim/objects/HouseObjects/garbagebin2.png,0.9,1,-0.2,0.15,right,21,2020-12-03_09h11.43.754,premup-three_ses-02_part-02_label-phase2,3.2.4,Win32,60,,,,,,,,,,,,,,,,,,,,,,,,,,,,,
left,0.501000166,1,62,1,0,1,0,1,0,1,0,240,131,1,239,2,6,4,stim/64.jpeg,Instruments,1,stim/objects/Instruments/flute2.png,0.7,2,0.2,0.15,left,21,2020-12-03_09h11.43.754,premup-three_ses-02_part-02_label-phase2,3.2.4,Win32,60,,,,,,,,,,,,,,,,,,,,,,,,,,,,,
left,0.611000061,1,63,1,0,1,0,1,0,1,0,240,126,1,239,2,6,3,stim/63.jpeg,Instruments,1,stim/objects/Instruments/electricguitar2.png,0.7,1,-0.2,0.15,left,21,2020-12-03_09h11.43.754,premup-three_ses-02_part-02_label-phase2,3.2.4,Win32,60,,,,,,,,,,,,,,,,,,,,,,,,,,,,,
right,0.526000261,1,64,1,0,1,0,1,0,1,0,240,191,1,239,3,1,4,stim/14.jpeg,HouseObjects,2,stim/objects/HouseObjects/glass2.png,0.9,4,0.2,-0.15,right,21,2020-12-03_09h11.43.754,premup-three_ses-02_part-02_label-phase2,3.2.4,Win32,60,,,,,,,,,,,,,,,,,,,,,,,,,,,,,
left,0.662000179,0,65,1,0,1,0,1,0,1,0,240,30,1,239,1,3,3,stim/33.jpeg,HouseObjects,2,stim/objects/HouseObjects/dishsoap.png,0.5,3,-0.2,-0.15,right,21,2020-12-03_09h11.43.754,premup-three_ses-02_part-02_label-phase2,3.2.4,Win32,60,,,,,,,,,,,,,,,,,,,,,,,,,,,,,
right,0.549000263,1,66,1,0,1,0,1,0,1,0,240,20,1,239,1,3,1,stim/31.jpeg,HouseObjects,2,stim/objects/HouseObjects/coffee.png,0.5,1,-0.2,0.15,right,21,2020-12-03_09h11.43.754,premup-three_ses-02_part-02_label-phase2,3.2.4,Win32,60,,,,,,,,,,,,,,,,,,,,,,,,,,,,,
left,0.787000179,0,67,1,0,1,0,1,0,1,0,240,28,1,239,1,3,1,stim/31.jpeg,HouseObjects,2,stim/objects/HouseObjects/coffee.png,0.5,4,0.2,-0.15,right,21,2020-12-03_09h11.43.754,premup-three_ses-02_part-02_label-phase2,3.2.4,Win32,60,,,,,,,,,,,,,,,,,,,,,,,,,,,,,
right,0.75999999,1,68,1,0,1,0,1,0,1,0,240,195,1,239,3,1,4,stim/14.jpeg,HouseObjects,2,stim/objects/HouseObjects/glass2.png,0.9,3,-0.2,-0.15,right,21,2020-12-03_09h11.43.754,premup-three_ses-02_part-02_label-phase2,3.2.4,Win32,60,,,,,,,,,,,,,,,,,,,,,,,,,,,,,
right,0.63800025,0,69,1,0,1,0,1,0,1,0,240,86,1,239,2,5,3,stim/53.jpeg,Instruments,1,stim/objects/Instruments/harp.png,0.3,4,0.2,-0.15,left,21,2020-12-03_09h11.43.754,premup-three_ses-02_part-02_label-phase2,3.2.4,Win32,60,,,,,,,,,,,,,,,,,,,,,,,,,,,,,
right,0.81400013,0,70,1,0,1,0,1,0,1,0,240,19,1,239,1,3,4,stim/34.jpeg,Instruments,1,stim/objects/Instruments/flute.png,0.5,1,-0.2,0.15,left,21,2020-12-03_09h11.43.754,premup-three_ses-02_part-02_label-phase2,3.2.4,Win32,60,,,,,,,,,,,,,,,,,,,,,,,,,,,,,
left,0.697000265,0,71,1,0,1,0,1,0,1,0,240,25,1,239,1,3,2,stim/32.jpeg,HouseObjects,2,stim/objects/HouseObjects/cushion.png,0.5,3,-0.2,-0.15,right,21,2020-12-03_09h11.43.754,premup-three_ses-02_part-02_label-phase2,3.2.4,Win32,60,,,,,,,,,,,,,,,,,,,,,,,,,,,,,
right,0.811000109,0,72,1,0,1,0,1,0,1,0,240,59,1,239,1,4,4,stim/44.jpeg,Instruments,1,stim/objects/Instruments/grandpiano.png,0.5,4,0.2,-0.15,left,21,2020-12-03_09h11.43.754,premup-three_ses-02_part-02_label-phase2,3.2.4,Win32,60,,,,,,,,,,,,,,,,,,,,,,,,,,,,,
right,0.545000076,1,73,1,0,1,0,1,0,1,0,240,192,1,239,3,1,1,stim/11.jpeg,HouseObjects,2,stim/objects/HouseObjects/dustpan2.png,0.9,3,-0.2,-0.15,right,21,2020-12-03_09h11.43.754,premup-three_ses-02_part-02_label-phase2,3.2.4,Win32,60,,,,,,,,,,,,,,,,,,,,,,,,,,,,,
left,0.54700017,1,74,1,0,1,0,1,0,1,0,240,128,1,239,2,6,1,stim/61.jpeg,Instruments,1,stim/objects/Instruments/drums2.png,0.7,1,-0.2,0.15,left,21,2020-12-03_09h11.43.754,premup-three_ses-02_part-02_label-phase2,3.2.4,Win32,60,,,,,,,,,,,,,,,,,,,,,,,,,,,,,
right,0.580000162,1,75,1,0,1,0,1,0,1,0,240,188,1,239,3,1,1,stim/11.jpeg,HouseObjects,2,stim/objects/HouseObjects/dustpan2.png,0.9,4,0.2,-0.15,right,21,2020-12-03_09h11.43.754,premup-three_ses-02_part-02_label-phase2,3.2.4,Win32,60,,,,,,,,,,,,,,,,,,,,,,,,,,,,,
right,0.485000134,0,76,1,0,1,0,1,0,1,0,240,81,1,239,2,5,2,stim/52.jpeg,Instruments,1,stim/objects/Instruments/harmonica.png,0.3,1,-0.2,0.15,left,21,2020-12-03_09h11.43.754,premup-three_ses-02_part-02_label-phase2,3.2.4,Win32,60,,,,,,,,,,,,,,,,,,,,,,,,,,,,,
left,0.548000097,1,77,1,0,1,0,1,0,1,0,240,120,1,239,2,6,1,stim/61.jpeg,Instruments,1,stim/objects/Instruments/drums2.png,0.7,1,-0.2,0.15,left,21,2020-12-03_09h11.43.754,premup-three_ses-02_part-02_label-phase2,3.2.4,Win32,60,,,,,,,,,,,,,,,,,,,,,,,,,,,,,
right,0.407000303,1,78,1,0,1,0,1,0,1,0,240,35,1,239,1,3,4,stim/34.jpeg,HouseObjects,2,stim/objects/HouseObjects/doormat.png,0.5,3,-0.2,-0.15,right,21,2020-12-03_09h11.43.754,premup-three_ses-02_part-02_label-phase2,3.2.4,Win32,60,,,,,,,,,,,,,,,,,,,,,,,,,,,,,
left,0.449000359,1,79,1,0,1,0,1,0,1,0,240,130,1,239,2,6,3,stim/63.jpeg,Instruments,1,stim/objects/Instruments/electricguitar2.png,0.7,2,0.2,0.15,left,21,2020-12-03_09h11.43.754,premup-three_ses-02_part-02_label-phase2,3.2.4,Win32,60,,,,,,,,,,,,,,,,,,,,,,,,,,,,,
left,0.493000031,1,80,1,0,1,0,1,0,1,0,240,1,1,239,1,3,2,stim/32.jpeg,Instruments,1,stim/objects/Instruments/electricdrumset.png,0.5,4,0.2,-0.15,left,21,2020-12-03_09h11.43.754,premup-three_ses-02_part-02_label-phase2,3.2.4,Win32,60,,,,,,,,,,,,,,,,,,,,,,,,,,,,,
right,0.383000135,0,81,1,0,1,0,1,0,1,0,240,163,1,239,3,1,4,stim/14.jpeg,Instruments,1,stim/objects/Instruments/grandpiano2.png,0.1,2,0.2,0.15,left,21,2020-12-03_09h11.43.754,premup-three_ses-02_part-02_label-phase2,3.2.4,Win32,60,,,,,,,,,,,,,,,,,,,,,,,,,,,,,
right,0.458000183,1,82,1,0,1,0,1,0,1,0,240,68,1,239,1,4,1,stim/41.jpeg,HouseObjects,2,stim/objects/HouseObjects/dustpan.png,0.5,4,0.2,-0.15,right,21,2020-12-03_09h11.43.754,premup-three_ses-02_part-02_label-phase2,3.2.4,Win32,60,,,,,,,,,,,,,,,,,,,,,,,,,,,,,
left,0.560000181,0,83,1,0,1,0,1,0,1,0,240,24,1,239,1,3,1,stim/31.jpeg,HouseObjects,2,stim/objects/HouseObjects/coffee.png,0.5,2,0.2,0.15,right,21,2020-12-03_09h11.43.754,premup-three_ses-02_part-02_label-phase2,3.2.4,Win32,60,,,,,,,,,,,,,,,,,,,,,,,,,,,,,
left,0.4150002,1,84,1,0,1,0,1,0,1,0,240,15,1,239,1,3,4,stim/34.jpeg,Instruments,1,stim/objects/Instruments/flute.png,0.5,3,-0.2,-0.15,left,21,2020-12-03_09h11.43.754,premup-three_ses-02_part-02_label-phase2,3.2.4,Win32,60,,,,,,,,,,,,,,,,,,,,,,,,,,,,,
right,0.371000051,0,85,1,0,1,0,1,0,1,0,240,51,1,239,1,4,4,stim/44.jpeg,Instruments,1,stim/objects/Instruments/grandpiano.png,0.5,3,-0.2,-0.15,left,21,2020-12-03_09h11.43.754,premup-three_ses-02_part-02_label-phase2,3.2.4,Win32,60,,,,,,,,,,,,,,,,,,,,,,,,,,,,,
left,0.59100008,1,86,1,0,1,0,1,0,1,0,240,225,1,239,3,2,2,stim/22.jpeg,Instruments,1,stim/objects/Instruments/harmonica2.png,0.9,4,0.2,-0.15,left,21,2020-12-03_09h11.43.754,premup-three_ses-02_part-02_label-phase2,3.2.4,Win32,60,,,,,,,,,,,,,,,,,,,,,,,,,,,,,
right,0.549000263,1,87,1,0,1,0,1,0,1,0,240,196,1,239,3,1,1,stim/11.jpeg,HouseObjects,2,stim/objects/HouseObjects/dustpan2.png,0.9,2,0.2,0.15,right,21,2020-12-03_09h11.43.754,premup-three_ses-02_part-02_label-phase2,3.2.4,Win32,60,,,,,,,,,,,,,,,,,,,,,,,,,,,,,
left,0.575000286,1,88,1,0,1,0,1,0,1,0,240,48,1,239,1,4,1,stim/41.jpeg,Instruments,1,stim/objects/Instruments/flutetrans.png,0.5,4,0.2,-0.15,left,21,2020-12-03_09h11.43.754,premup-three_ses-02_part-02_label-phase2,3.2.4,Win32,60,,,,,,,,,,,,,,,,,,,,,,,,,,,,,
right,0.60400033,0,89,1,0,1,0,1,0,1,0,240,208,1,239,3,2,1,stim/21.jpeg,Instruments,1,stim/objects/Instruments/guitarcase2.png,0.9,1,-0.2,0.15,left,21,2020-12-03_09h11.43.754,premup-three_ses-02_part-02_label-phase2,3.2.4,Win32,60,,,,,,,,,,,,,,,,,,,,,,,,,,,,,
left,0.377000093,0,90,1,0,1,0,1,0,1,0,240,180,1,239,3,1,1,stim/11.jpeg,HouseObjects,2,stim/objects/HouseObjects/dustpan2.png,0.9,4,0.2,-0.15,right,21,2020-12-03_09h11.43.754,premup-three_ses-02_part-02_label-phase2,3.2.4,Win32,60,,,,,,,,,,,,,,,,,,,,,,,,,,,,,
left,0.755000114,1,91,1,0,1,0,1,0,1,0,240,52,1,239,1,4,1,stim/41.jpeg,Instruments,1,stim/objects/Instruments/flutetrans.png,0.5,2,0.2,0.15,left,21,2020-12-03_09h11.43.754,premup-three_ses-02_part-02_label-phase2,3.2.4,Win32,60,,,,,,,,,,,,,,,,,,,,,,,,,,,,,
left,0.829000235,0,92,1,0,1,0,1,0,1,0,240,79,1,239,1,4,4,stim/44.jpeg,HouseObjects,2,stim/objects/HouseObjects/glass.png,0.5,1,-0.2,0.15,right,21,2020-12-03_09h11.43.754,premup-three_ses-02_part-02_label-phase2,3.2.4,Win32,60,,,,,,,,,,,,,,,,,,,,,,,,,,,,,
left,0.890000105,0,93,1,0,1,0,1,0,1,0,240,62,1,239,1,4,3,stim/43.jpeg,HouseObjects,2,stim/objects/HouseObjects/garbagebin.png,0.5,4,0.2,-0.15,right,21,2020-12-03_09h11.43.754,premup-three_ses-02_part-02_label-phase2,3.2.4,Win32,60,,,,,,,,,,,,,,,,,,,,,,,,,,,,,
left,0.627000093,1,94,1,0,1,0,1,0,1,0,240,207,1,239,3,2,4,stim/24.jpeg,Instruments,1,stim/objects/Instruments/hihat2.png,0.9,4,0.2,-0.15,left,21,2020-12-03_09h11.43.754,premup-three_ses-02_part-02_label-phase2,3.2.4,Win32,60,,,,,,,,,,,,,,,,,,,,,,,,,,,,,
right,0.469000101,1,95,1,0,1,0,1,0,1,0,240,190,1,239,3,1,3,stim/13.jpeg,HouseObjects,2,stim/objects/HouseObjects/garbagebin2.png,0.9,2,0.2,0.15,right,21,2020-12-03_09h11.43.754,premup-three_ses-02_part-02_label-phase2,3.2.4,Win32,60,,,,,,,,,,,,,,,,,,,,,,,,,,,,,
left,0.54700017,0,96,1,0,1,0,1,0,1,0,240,239,1,239,3,2,4,stim/24.jpeg,HouseObjects,2,stim/objects/HouseObjects/handvacuum2.png,0.1,3,-0.2,-0.15,right,21,2020-12-03_09h11.43.754,premup-three_ses-02_part-02_label-phase2,3.2.4,Win32,60,,,,,,,,,,,,,,,,,,,,,,,,,,,,,
,,0,97,1,0,1,0,1,0,1,0,240,77,1,239,1,4,2,stim/42.jpeg,HouseObjects,2,stim/objects/HouseObjects/flyswatter.png,0.5,2,0.2,0.15,right,21,2020-12-03_09h11.43.754,premup-three_ses-02_part-02_label-phase2,3.2.4,Win32,60,,,,,,,,,,,,,,,,,,,,,,,,,,,,,
right,0.427000284,0,98,1,0,1,0,1,0,1,0,240,205,1,239,3,2,2,stim/22.jpeg,Instruments,1,stim/objects/Instruments/harmonica2.png,0.9,2,0.2,0.15,left,21,2020-12-03_09h11.43.754,premup-three_ses-02_part-02_label-phase2,3.2.4,Win32,60,,,,,,,,,,,,,,,,,,,,,,,,,,,,,
left,0.503000259,1,99,1,0,1,0,1,0,1,0,240,132,1,239,2,6,1,stim/61.jpeg,Instruments,1,stim/objects/Instruments/drums2.png,0.7,3,-0.2,-0.15,left,21,2020-12-03_09h11.43.754,premup-three_ses-02_part-02_label-phase2,3.2.4,Win32,60,,,,,,,,,,,,,,,,,,,,,,,,,,,,,
right,0.504000187,1,100,1,0,1,0,1,0,1,0,240,178,1,239,3,1,3,stim/13.jpeg,HouseObjects,2,stim/objects/HouseObjects/garbagebin2.png,0.9,2,0.2,0.15,right,21,2020-12-03_09h11.43.754,premup-three_ses-02_part-02_label-phase2,3.2.4,Win32,60,,,,,,,,,,,,,,,,,,,,,,,,,,,,,
right,0.623000145,1,101,1,0,1,0,1,0,1,0,240,176,1,239,3,1,1,stim/11.jpeg,HouseObjects,2,stim/objects/HouseObjects/dustpan2.png,0.9,4,0.2,-0.15,right,21,2020-12-03_09h11.43.754,premup-three_ses-02_part-02_label-phase2,3.2.4,Win32,60,,,,,,,,,,,,,,,,,,,,,,,,,,,,,
left,0.53000021,1,102,1,0,1,0,1,0,1,0,240,232,1,239,3,2,1,stim/21.jpeg,Instruments,1,stim/objects/Instruments/guitarcase2.png,0.9,2,0.2,0.15,left,21,2020-12-03_09h11.43.754,premup-three_ses-02_part-02_label-phase2,3.2.4,Win32,60,,,,,,,,,,,,,,,,,,,,,,,,,,,,,
right,0.611000061,0,103,1,0,1,0,1,0,1,0,240,53,1,239,1,4,2,stim/42.jpeg,Instruments,1,stim/objects/Instruments/frenchhorn.png,0.5,3,-0.2,-0.15,left,21,2020-12-03_09h11.43.754,premup-three_ses-02_part-02_label-phase2,3.2.4,Win32,60,,,,,,,,,,,,,,,,,,,,,,,,,,,,,
left,0.626000166,0,104,1,0,1,0,1,0,1,0,240,69,1,239,1,4,2,stim/42.jpeg,HouseObjects,2,stim/objects/HouseObjects/flyswatter.png,0.5,3,-0.2,-0.15,right,21,2020-12-03_09h11.43.754,premup-three_ses-02_part-02_label-phase2,3.2.4,Win32,60,,,,,,,,,,,,,,,,,,,,,,,,,,,,,
right,0.752000093,1,105,1,0,1,0,1,0,1,0,240,107,1,239,2,5,4,stim/54.jpeg,HouseObjects,2,stim/objects/HouseObjects/handvacuum.png,0.7,2,0.2,0.15,right,21,2020-12-03_09h11.43.754,premup-three_ses-02_part-02_label-phase2,3.2.4,Win32,60,,,,,,,,,,,,,,,,,,,,,,,,,,,,,
left,0.488000154,1,106,1,0,1,0,1,0,1,0,240,202,1,239,3,2,3,stim/23.jpeg,Instruments,1,stim/objects/Instruments/harp2.png,0.9,3,-0.2,-0.15,left,21,2020-12-03_09h11.43.754,premup-three_ses-02_part-02_label-phase2,3.2.4,Win32,60,,,,,,,,,,,,,,,,,,,,,,,,,,,,,
right,0.552000284,1,107,1,0,1,0,1,0,1,0,240,100,1,239,2,5,1,stim/51.jpeg,HouseObjects,2,stim/objects/HouseObjects/glassmop.png,0.7,4,0.2,-0.15,right,21,2020-12-03_09h11.43.754,premup-three_ses-02_part-02_label-phase2,3.2.4,Win32,60,,,,,,,,,,,,,,,,,,,,,,,,,,,,,
left,0.628999949,1,108,1,0,1,0,1,0,1,0,240,233,1,239,3,2,2,stim/22.jpeg,Instruments,1,stim/objects/Instruments/harmonica2.png,0.9,4,0.2,-0.15,left,21,2020-12-03_09h11.43.754,premup-three_ses-02_part-02_label-phase2,3.2.4,Win32,60,,,,,,,,,,,,,,,,,,,,,,,,,,,,,
left,0.554000139,0,109,1,0,1,0,1,0,1,0,240,71,1,239,1,4,4,stim/44.jpeg,HouseObjects,2,stim/objects/HouseObjects/glass.png,0.5,3,-0.2,-0.15,right,21,2020-12-03_09h11.43.754,premup-three_ses-02_part-02_label-phase2,3.2.4,Win32,60,,,,,,,,,,,,,,,,,,,,,,,,,,,,,
left,0.554000139,0,110,1,0,1,0,1,0,1,0,240,29,1,239,1,3,2,stim/32.jpeg,HouseObjects,2,stim/objects/HouseObjects/cushion.png,0.5,1,-0.2,0.15,right,21,2020-12-03_09h11.43.754,premup-three_ses-02_part-02_label-phase2,3.2.4,Win32,60,,,,,,,,,,,,,,,,,,,,,,,,,,,,,
left,0.623000145,1,111,1,0,1,0,1,0,1,0,240,221,1,239,3,2,2,stim/22.jpeg,Instruments,1,stim/objects/Instruments/harmonica2.png,0.9,2,0.2,0.15,left,21,2020-12-03_09h11.43.754,premup-three_ses-02_part-02_label-phase2,3.2.4,Win32,60,,,,,,,,,,,,,,,,,,,,,,,,,,,,,
left,0.544000149,0,112,1,0,1,0,1,0,1,0,240,155,1,239,2,6,4,stim/64.jpeg,HouseObjects,2,stim/objects/HouseObjects/doormat2.png,0.3,1,-0.2,0.15,right,21,2020-12-03_09h11.43.754,premup-three_ses-02_part-02_label-phase2,3.2.4,Win32,60,,,,,,,,,,,,,,,,,,,,,,,,,,,,,
right,0.435000181,0,113,1,0,1,0,1,0,1,0,240,144,1,239,2,6,1,stim/61.jpeg,Instruments,1,stim/objects/Instruments/drums2.png,0.7,4,0.2,-0.15,left,21,2020-12-03_09h11.43.754,premup-three_ses-02_part-02_label-phase2,3.2.4,Win32,60,,,,,,,,,,,,,,,,,,,,,,,,,,,,,
right,0.624000311,1,114,1,0,1,0,1,0,1,0,240,115,1,239,2,5,4,stim/54.jpeg,HouseObjects,2,stim/objects/HouseObjects/handvacuum.png,0.7,4,0.2,-0.15,right,21,2020-12-03_09h11.43.754,premup-three_ses-02_part-02_label-phase2,3.2.4,Win32,60,,,,,,,,,,,,,,,,,,,,,,,,,,,,,
right,0.625000238,1,115,1,0,1,0,1,0,1,0,240,198,1,239,3,1,3,stim/13.jpeg,HouseObjects,2,stim/objects/HouseObjects/garbagebin2.png,0.9,3,-0.2,-0.15,right,21,2020-12-03_09h11.43.754,premup-three_ses-02_part-02_label-phase2,3.2.4,Win32,60,,,,,,,,,,,,,,,,,,,,,,,,,,,,,
right,0.700000286,1,116,1,0,1,0,1,0,1,0,240,95,1,239,2,5,4,stim/54.jpeg,HouseObjects,2,stim/objects/HouseObjects/handvacuum.png,0.7,3,-0.2,-0.15,right,21,2020-12-03_09h11.43.754,premup-three_ses-02_part-02_label-phase2,3.2.4,Win32,60,,,,,,,,,,,,,,,,,,,,,,,,,,,,,
right,0.849000216,1,117,1,0,1,0,1,0,1,0,240,36,1,239,1,3,1,stim/31.jpeg,HouseObjects,2,stim/objects/HouseObjects/coffee.png,0.5,3,-0.2,-0.15,right,21,2020-12-03_09h11.43.754,premup-three_ses-02_part-02_label-phase2,3.2.4,Win32,60,,,,,,,,,,,,,,,,,,,,,,,,,,,,,
left,0.70600009,1,118,1,0,1,0,1,0,1,0,240,9,1,239,1,3,2,stim/32.jpeg,Instruments,1,stim/objects/Instruments/electricdrumset.png,0.5,4,0.2,-0.15,left,21,2020-12-03_09h11.43.754,premup-three_ses-02_part-02_label-phase2,3.2.4,Win32,60,,,,,,,,,,,,,,,,,,,,,,,,,,,,,
right,0.571000099,1,119,1,0,1,0,1,0,1,0,240,111,1,239,2,5,4,stim/54.jpeg,HouseObjects,2,stim/objects/HouseObjects/handvacuum.png,0.7,1,-0.2,0.15,right,21,2020-12-03_09h11.43.754,premup-three_ses-02_part-02_label-phase2,3.2.4,Win32,60,,,,,,,,,,,,,,,,,,,,,,,,,,,,,
right,0.657000065,0,120,1,0,1,0,1,0,1,0,240,85,1,239,2,5,2,stim/52.jpeg,Instruments,1,stim/objects/Instruments/harmonica.png,0.3,2,0.2,0.15,left,21,2020-12-03_09h11.43.754,premup-three_ses-02_part-02_label-phase2,3.2.4,Win32,60,,,,,,,,,,,,,,,,,,,,,,,,,,,,,
left,0.559000254,1,121,1,0,1,0,1,0,1,0,240,121,1,239,2,6,2,stim/62.jpeg,Instruments,1,stim/objects/Instruments/electricdrumset2.png,0.7,3,-0.2,-0.15,left,21,2020-12-03_09h11.43.754,premup-three_ses-02_part-02_label-phase2,3.2.4,Win32,60,,,,,,,,,,,,,,,,,,,,,,,,,,,,,
left,0.56400013,1,122,1,0,1,0,1,0,1,0,240,206,1,239,3,2,3,stim/23.jpeg,Instruments,1,stim/objects/Instruments/harp2.png,0.9,3,-0.2,-0.15,left,21,2020-12-03_09h11.43.754,premup-three_ses-02_part-02_label-phase2,3.2.4,Win32,60,,,,,,,,,,,,,,,,,,,,,,,,,,,,,
right,0.549000025,1,123,1,0,1,0,1,0,1,0,240,197,1,239,3,1,2,stim/12.jpeg,HouseObjects,2,stim/objects/HouseObjects/flyswatter2.png,0.9,2,0.2,0.15,right,21,2020-12-03_09h11.43.754,premup-three_ses-02_part-02_label-phase2,3.2.4,Win32,60,,,,,,,,,,,,,,,,,,,,,,,,,,,,,
left,0.574000359,0,124,1,0,1,0,1,0,1,0,240,22,1,239,1,3,3,stim/33.jpeg,HouseObjects,2,stim/objects/HouseObjects/dishsoap.png,0.5,3,-0.2,-0.15,right,21,2020-12-03_09h11.43.754,premup-three_ses-02_part-02_label-phase2,3.2.4,Win32,60,,,,,,,,,,,,,,,,,,,,,,,,,,,,,
left,0.532000065,0,125,1,0,1,0,1,0,1,0,240,238,1,239,3,2,3,stim/23.jpeg,HouseObjects,2,stim/objects/HouseObjects/handbrush2.png,0.1,4,0.2,-0.15,right,21,2020-12-03_09h11.43.754,premup-three_ses-02_part-02_label-phase2,3.2.4,Win32,60,,,,,,,,,,,,,,,,,,,,,,,,,,,,,
left,0.571000099,1,126,1,0,1,0,1,0,1,0,240,124,1,239,2,6,1,stim/61.jpeg,Instruments,1,stim/objects/Instruments/drums2.png,0.7,2,0.2,0.15,left,21,2020-12-03_09h11.43.754,premup-three_ses-02_part-02_label-phase2,3.2.4,Win32,60,,,,,,,,,,,,,,,,,,,,,,,,,,,,,
right,0.535000086,1,127,1,0,1,0,1,0,1,0,240,60,1,239,1,4,1,stim/41.jpeg,HouseObjects,2,stim/objects/HouseObjects/dustpan.png,0.5,1,-0.2,0.15,right,21,2020-12-03_09h11.43.754,premup-three_ses-02_part-02_label-phase2,3.2.4,Win32,60,,,,,,,,,,,,,,,,,,,,,,,,,,,,,
left,0.45600009,0,128,1,0,1,0,1,0,1,0,240,76,1,239,1,4,1,stim/41.jpeg,HouseObjects,2,stim/objects/HouseObjects/dustpan.png,0.5,4,0.2,-0.15,right,21,2020-12-03_09h11.43.754,premup-three_ses-02_part-02_label-phase2,3.2.4,Win32,60,,,,,,,,,,,,,,,,,,,,,,,,,,,,,
left,0.515000343,0,129,1,0,1,0,1,0,1,0,240,154,1,239,2,6,3,stim/63.jpeg,HouseObjects,2,stim/objects/HouseObjects/dishsoap2.png,0.3,2,0.2,0.15,right,21,2020-12-03_09h11.43.754,premup-three_ses-02_part-02_label-phase2,3.2.4,Win32,60,,,,,,,,,,,,,,,,,,,,,,,,,,,,,
right,0.474000216,1,130,1,0,1,0,1,0,1,0,240,181,1,239,3,1,2,stim/12.jpeg,HouseObjects,2,stim/objects/HouseObjects/flyswatter2.png,0.9,4,0.2,-0.15,right,21,2020-12-03_09h11.43.754,premup-three_ses-02_part-02_label-phase2,3.2.4,Win32,60,,,,,,,,,,,,,,,,,,,,,,,,,,,,,
right,0.572000027,1,131,1,0,1,0,1,0,1,0,240,116,1,239,2,5,1,stim/51.jpeg,HouseObjects,2,stim/objects/HouseObjects/glassmop.png,0.7,3,-0.2,-0.15,right,21,2020-12-03_09h11.43.754,premup-three_ses-02_part-02_label-phase2,3.2.4,Win32,60,,,,,,,,,,,,,,,,,,,,,,,,,,,,,
left,0.604000092,1,132,1,0,1,0,1,0,1,0,240,10,1,239,1,3,3,stim/33.jpeg,Instruments,1,stim/objects/Instruments/electricguitar.png,0.5,1,-0.2,0.15,left,21,2020-12-03_09h11.43.754,premup-three_ses-02_part-02_label-phase2,3.2.4,Win32,60,,,,,,,,,,,,,,,,,,,,,,,,,,,,,
right,0.394000053,0,133,1,0,1,0,1,0,1,0,240,47,1,239,1,4,4,stim/44.jpeg,Instruments,1,stim/objects/Instruments/grandpiano.png,0.5,2,0.2,0.15,left,21,2020-12-03_09h11.43.754,premup-three_ses-02_part-02_label-phase2,3.2.4,Win32,60,,,,,,,,,,,,,,,,,,,,,,,,,,,,,
left,0.430000067,1,134,1,0,1,0,1,0,1,0,240,215,1,239,3,2,4,stim/24.jpeg,Instruments,1,stim/objects/Instruments/hihat2.png,0.9,4,0.2,-0.15,left,21,2020-12-03_09h11.43.754,premup-three_ses-02_part-02_label-phase2,3.2.4,Win32,60,,,,,,,,,,,,,,,,,,,,,,,,,,,,,
left,0.526000023,1,135,1,0,1,0,1,0,1,0,240,212,1,239,3,2,1,stim/21.jpeg,Instruments,1,stim/objects/Instruments/guitarcase2.png,0.9,2,0.2,0.15,left,21,2020-12-03_09h11.43.754,premup-three_ses-02_part-02_label-phase2,3.2.4,Win32,60,,,,,,,,,,,,,,,,,,,,,,,,,,,,,
right,0.459000111,1,136,1,0,1,0,1,0,1,0,240,113,1,239,2,5,2,stim/52.jpeg,HouseObjects,2,stim/objects/HouseObjects/hairdryer.png,0.7,3,-0.2,-0.15,right,21,2020-12-03_09h11.43.754,premup-three_ses-02_part-02_label-phase2,3.2.4,Win32,60,,,,,,,,,,,,,,,,,,,,,,,,,,,,,
right,0.487000227,1,137,1,0,1,0,1,0,1,0,240,92,1,239,2,5,1,stim/51.jpeg,HouseObjects,2,stim/objects/HouseObjects/glassmop.png,0.7,4,0.2,-0.15,right,21,2020-12-03_09h11.43.754,premup-three_ses-02_part-02_label-phase2,3.2.4,Win32,60,,,,,,,,,,,,,,,,,,,,,,,,,,,,,
right,0.493999958,0,138,1,0,1,0,1,0,1,0,240,13,1,239,1,3,2,stim/32.jpeg,Instruments,1,stim/objects/Instruments/electricdrumset.png,0.5,4,0.2,-0.15,left,21,2020-12-03_09h11.43.754,premup-three_ses-02_part-02_label-phase2,3.2.4,Win32,60,,,,,,,,,,,,,,,,,,,,,,,,,,,,,
left,0.517000198,0,139,1,0,1,0,1,0,1,0,240,119,1,239,2,5,4,stim/54.jpeg,HouseObjects,2,stim/objects/HouseObjects/handvacuum.png,0.7,4,0.2,-0.15,right,21,2020-12-03_09h11.43.754,premup-three_ses-02_part-02_label-phase2,3.2.4,Win32,60,,,,,,,,,,,,,,,,,,,,,,,,,,,,,
right,0.327000141,0,140,1,0,1,0,1,0,1,0,240,5,1,239,1,3,2,stim/32.jpeg,Instruments,1,stim/objects/Instruments/electricdrumset.png,0.5,3,-0.2,-0.15,left,21,2020-12-03_09h11.43.754,premup-three_ses-02_part-02_label-phase2,3.2.4,Win32,60,,,,,,,,,,,,,,,,,,,,,,,,,,,,,
left,0.508000135,1,141,1,0,1,0,1,0,1,0,240,229,1,239,3,2,2,stim/22.jpeg,Instruments,1,stim/objects/Instruments/harmonica2.png,0.9,3,-0.2,-0.15,left,21,2020-12-03_09h11.43.754,premup-three_ses-02_part-02_label-phase2,3.2.4,Win32,60,,,,,,,,,,,,,,,,,,,,,,,,,,,,,
right,0.444000244,0,142,1,0,1,0,1,0,1,0,240,14,1,239,1,3,3,stim/33.jpeg,Instruments,1,stim/objects/Instruments/electricguitar.png,0.5,4,0.2,-0.15,left,21,2020-12-03_09h11.43.754,premup-three_ses-02_part-02_label-phase2,3.2.4,Win32,60,,,,,,,,,,,,,,,,,,,,,,,,,,,,,
left,0.531000137,0,143,1,0,1,0,1,0,1,0,240,236,1,239,3,2,1,stim/21.jpeg,HouseObjects,2,stim/objects/HouseObjects/glassmop2.png,0.1,3,-0.2,-0.15,right,21,2020-12-03_09h11.43.754,premup-three_ses-02_part-02_label-phase2,3.2.4,Win32,60,,,,,,,,,,,,,,,,,,,,,,,,,,,,,
right,0.626000166,0,144,1,0,1,0,1,0,1,0,240,43,1,239,1,4,4,stim/44.jpeg,Instruments,1,stim/objects/Instruments/grandpiano.png,0.5,3,-0.2,-0.15,left,21,2020-12-03_09h11.43.754,premup-three_ses-02_part-02_label-phase2,3.2.4,Win32,60,,,,,,,,,,,,,,,,,,,,,,,,,,,,,
left,0.543000221,1,145,1,0,1,0,1,0,1,0,240,216,1,239,3,2,1,stim/21.jpeg,Instruments,1,stim/objects/Instruments/guitarcase2.png,0.9,1,-0.2,0.15,left,21,2020-12-03_09h11.43.754,premup-three_ses-02_part-02_label-phase2,3.2.4,Win32,60,,,,,,,,,,,,,,,,,,,,,,,,,,,,,
right,0.644000053,1,146,1,0,1,0,1,0,1,0,240,117,1,239,2,5,2,stim/52.jpeg,HouseObjects,2,stim/objects/HouseObjects/hairdryer.png,0.7,3,-0.2,-0.15,right,21,2020-12-03_09h11.43.754,premup-three_ses-02_part-02_label-phase2,3.2.4,Win32,60,,,,,,,,,,,,,,,,,,,,,,,,,,,,,
right,0.642000198,0,147,1,0,1,0,1,0,1,0,240,87,1,239,2,5,4,stim/54.jpeg,Instruments,1,stim/objects/Instruments/hihat.png,0.3,2,0.2,0.15,left,21,2020-12-03_09h11.43.754,premup-three_ses-02_part-02_label-phase2,3.2.4,Win32,60,,,,,,,,,,,,,,,,,,,,,,,,,,,,,
right,0.556000233,1,148,1,0,1,0,1,0,1,0,240,168,1,239,3,1,1,stim/11.jpeg,HouseObjects,2,stim/objects/HouseObjects/dustpan2.png,0.9,3,-0.2,-0.15,right,21,2020-12-03_09h11.43.754,premup-three_ses-02_part-02_label-phase2,3.2.4,Win32,60,,,,,,,,,,,,,,,,,,,,,,,,,,,,,
left,0.535000086,1,149,1,0,1,0,1,0,1,0,240,122,1,239,2,6,3,stim/63.jpeg,Instruments,1,stim/objects/Instruments/electricguitar2.png,0.7,3,-0.2,-0.15,left,21,2020-12-03_09h11.43.754,premup-three_ses-02_part-02_label-phase2,3.2.4,Win32,60,,,,,,,,,,,,,,,,,,,,,,,,,,,,,
right,0.393000364,1,150,1,0,1,0,1,0,1,0,240,174,1,239,3,1,3,stim/13.jpeg,HouseObjects,2,stim/objects/HouseObjects/garbagebin2.png,0.9,4,0.2,-0.15,right,21,2020-12-03_09h11.43.754,premup-three_ses-02_part-02_label-phase2,3.2.4,Win32,60,,,,,,,,,,,,,,,,,,,,,,,,,,,,,
right,0.584000111,1,151,1,0,1,0,1,0,1,0,240,184,1,239,3,1,1,stim/11.jpeg,HouseObjects,2,stim/objects/HouseObjects/dustpan2.png,0.9,1,-0.2,0.15,right,21,2020-12-03_09h11.43.754,premup-three_ses-02_part-02_label-phase2,3.2.4,Win32,60,,,,,,,,,,,,,,,,,,,,,,,,,,,,,
left,0.430000067,1,152,1,0,1,0,1,0,1,0,240,211,1,239,3,2,4,stim/24.jpeg,Instruments,1,stim/objects/Instruments/hihat2.png,0.9,3,-0.2,-0.15,left,21,2020-12-03_09h11.43.754,premup-three_ses-02_part-02_label-phase2,3.2.4,Win32,60,,,,,,,,,,,,,,,,,,,,,,,,,,,,,
right,0.576000214,0,153,1,0,1,0,1,0,1,0,240,162,1,239,3,1,3,stim/13.jpeg,Instruments,1,stim/objects/Instruments/gong2.png,0.1,2,0.2,0.15,left,21,2020-12-03_09h11.43.754,premup-three_ses-02_part-02_label-phase2,3.2.4,Win32,60,,,,,,,,,,,,,,,,,,,,,,,,,,,,,
right,0.620000124,1,154,1,0,1,0,1,0,1,0,240,102,1,239,2,5,3,stim/53.jpeg,HouseObjects,2,stim/objects/HouseObjects/handbrush.png,0.7,1,-0.2,0.15,right,21,2020-12-03_09h11.43.754,premup-three_ses-02_part-02_label-phase2,3.2.4,Win32,60,,,,,,,,,,,,,,,,,,,,,,,,,,,,,
right,0.532000303,1,155,1,0,1,0,1,0,1,0,240,172,1,239,3,1,1,stim/11.jpeg,HouseObjects,2,stim/objects/HouseObjects/dustpan2.png,0.9,2,0.2,0.15,right,21,2020-12-03_09h11.43.754,premup-three_ses-02_part-02_label-phase2,3.2.4,Win32,60,,,,,,,,,,,,,,,,,,,,,,,,,,,,,
left,0.565000296,1,156,1,0,1,0,1,0,1,0,240,228,1,239,3,2,1,stim/21.jpeg,Instruments,1,stim/objects/Instruments/guitarcase2.png,0.9,2,0.2,0.15,left,21,2020-12-03_09h11.43.754,premup-three_ses-02_part-02_label-phase2,3.2.4,Win32,60,,,,,,,,,,,,,,,,,,,,,,,,,,,,,
right,0.383000135,0,157,1,0,1,0,1,0,1,0,240,217,1,239,3,2,2,stim/22.jpeg,Instruments,1,stim/objects/Instruments/harmonica2.png,0.9,3,-0.2,-0.15,left,21,2020-12-03_09h11.43.754,premup-three_ses-02_part-02_label-phase2,3.2.4,Win32,60,,,,,,,,,,,,,,,,,,,,,,,,,,,,,
left,0.508000135,1,158,1,0,1,0,1,0,1,0,240,220,1,239,3,2,1,stim/21.jpeg,Instruments,1,stim/objects/Instruments/guitarcase2.png,0.9,1,-0.2,0.15,left,21,2020-12-03_09h11.43.754,premup-three_ses-02_part-02_label-phase2,3.2.4,Win32,60,,,,,,,,,,,,,,,,,,,,,,,,,,,,,
right,0.69900012,1,159,1,0,1,0,1,0,1,0,240,34,1,239,1,3,3,stim/33.jpeg,HouseObjects,2,stim/objects/HouseObjects/dishsoap.png,0.5,4,0.2,-0.15,right,21,2020-12-03_09h11.43.754,premup-three_ses-02_part-02_label-phase2,3.2.4,Win32,60,,,,,,,,,,,,,,,,,,,,,,,,,,,,,
right,0.595999956,1,160,1,0,1,0,1,0,1,0,240,179,1,239,3,1,4,stim/14.jpeg,HouseObjects,2,stim/objects/HouseObjects/glass2.png,0.9,3,-0.2,-0.15,right,21,2020-12-03_09h11.43.754,premup-three_ses-02_part-02_label-phase2,3.2.4,Win32,60,,,,,,,,,,,,,,,,,,,,,,,,,,,,,
left,0.486000299,1,161,1,0,1,0,1,0,1,0,240,203,1,239,3,2,4,stim/24.jpeg,Instruments,1,stim/objects/Instruments/hihat2.png,0.9,1,-0.2,0.15,left,21,2020-12-03_09h11.43.754,premup-three_ses-02_part-02_label-phase2,3.2.4,Win32,60,,,,,,,,,,,,,,,,,,,,,,,,,,,,,
right,0.549000263,1,162,1,0,1,0,1,0,1,0,240,97,1,239,2,5,2,stim/52.jpeg,HouseObjects,2,stim/objects/HouseObjects/hairdryer.png,0.7,1,-0.2,0.15,right,21,2020-12-03_09h11.43.754,premup-three_ses-02_part-02_label-phase2,3.2.4,Win32,60,,,,,,,,,,,,,,,,,,,,,,,,,,,,,
right,0.627000332,1,163,1,0,1,0,1,0,1,0,240,103,1,239,2,5,4,stim/54.jpeg,HouseObjects,2,stim/objects/HouseObjects/handvacuum.png,0.7,4,0.2,-0.15,right,21,2020-12-03_09h11.43.754,premup-three_ses-02_part-02_label-phase2,3.2.4,Win32,60,,,,,,,,,,,,,,,,,,,,,,,,,,,,,
left,0.407000065,1,164,1,0,1,0,1,0,1,0,240,41,1,239,1,4,2,stim/42.jpeg,Instruments,1,stim/objects/Instruments/frenchhorn.png,0.5,2,0.2,0.15,left,21,2020-12-03_09h11.43.754,premup-three_ses-02_part-02_label-phase2,3.2.4,Win32,60,,,,,,,,,,,,,,,,,,,,,,,,,,,,,
left,0.512000084,0,165,1,0,1,0,1,0,1,0,240,152,1,239,2,6,1,stim/61.jpeg,HouseObjects,2,stim/objects/HouseObjects/coffee2.png,0.3,2,0.2,0.15,right,21,2020-12-03_09h11.43.754,premup-three_ses-02_part-02_label-phase2,3.2.4,Win32,60,,,,,,,,,,,,,,,,,,,,,,,,,,,,,
left,0.509000063,1,166,1,0,1,0,1,0,1,0,240,12,1,239,1,3,1,stim/31.jpeg,Instruments,1,stim/objects/Instruments/drums.png,0.5,2,0.2,0.15,left,21,2020-12-03_09h11.43.754,premup-three_ses-02_part-02_label-phase2,3.2.4,Win32,60,,,,,,,,,,,,,,,,,,,,,,,,,,,,,
right,0.40500021,0,167,1,0,1,0,1,0,1,0,240,80,1,239,2,5,1,stim/51.jpeg,Instruments,1,stim/objects/Instruments/guitarcase.png,0.3,3,-0.2,-0.15,left,21,2020-12-03_09h11.43.754,premup-three_ses-02_part-02_label-phase2,3.2.4,Win32,60,,,,,,,,,,,,,,,,,,,,,,,,,,,,,
right,0.516000271,1,168,1,0,1,0,1,0,1,0,240,74,1,239,1,4,3,stim/43.jpeg,HouseObjects,2,stim/objects/HouseObjects/garbagebin.png,0.5,3,-0.2,-0.15,right,21,2020-12-03_09h11.43.754,premup-three_ses-02_part-02_label-phase2,3.2.4,Win32,60,,,,,,,,,,,,,,,,,,,,,,,,,,,,,
right,0.684000254,1,169,1,0,1,0,1,0,1,0,240,237,1,239,3,2,2,stim/22.jpeg,HouseObjects,2,stim/objects/HouseObjects/hairdryer2.png,0.1,2,0.2,0.15,right,21,2020-12-03_09h11.43.754,premup-three_ses-02_part-02_label-phase2,3.2.4,Win32,60,,,,,,,,,,,,,,,,,,,,,,,,,,,,,
left,0.39800024,1,170,1,0,1,0,1,0,1,0,240,4,1,239,1,3,1,stim/31.jpeg,Instruments,1,stim/objects/Instruments/drums.png,0.5,1,-0.2,0.15,left,21,2020-12-03_09h11.43.754,premup-three_ses-02_part-02_label-phase2,3.2.4,Win32,60,,,,,,,,,,,,,,,,,,,,,,,,,,,,,
left,0.490000248,1,171,1,0,1,0,1,0,1,0,240,227,1,239,3,2,4,stim/24.jpeg,Instruments,1,stim/objects/Instruments/hihat2.png,0.9,2,0.2,0.15,left,21,2020-12-03_09h11.43.754,premup-three_ses-02_part-02_label-phase2,3.2.4,Win32,60,,,,,,,,,,,,,,,,,,,,,,,,,,,,,
right,0.495000124,0,172,1,0,1,0,1,0,1,0,240,46,1,239,1,4,3,stim/43.jpeg,Instruments,1,stim/objects/Instruments/gong.png,0.5,4,0.2,-0.15,left,21,2020-12-03_09h11.43.754,premup-three_ses-02_part-02_label-phase2,3.2.4,Win32,60,,,,,,,,,,,,,,,,,,,,,,,,,,,,,
left,0.407000065,0,173,1,0,1,0,1,0,1,0,240,38,1,239,1,3,3,stim/33.jpeg,HouseObjects,2,stim/objects/HouseObjects/dishsoap.png,0.5,3,-0.2,-0.15,right,21,2020-12-03_09h11.43.754,premup-three_ses-02_part-02_label-phase2,3.2.4,Win32,60,,,,,,,,,,,,,,,,,,,,,,,,,,,,,
left,0.42200017,1,174,1,0,1,0,1,0,1,0,240,7,1,239,1,3,4,stim/34.jpeg,Instruments,1,stim/objects/Instruments/flute.png,0.5,3,-0.2,-0.15,left,21,2020-12-03_09h11.43.754,premup-three_ses-02_part-02_label-phase2,3.2.4,Win32,60,,,,,,,,,,,,,,,,,,,,,,,,,,,,,
left,0.668000221,1,175,1,0,1,0,1,0,1,0,240,218,1,239,3,2,3,stim/23.jpeg,Instruments,1,stim/objects/Instruments/harp2.png,0.9,2,0.2,0.15,left,21,2020-12-03_09h11.43.754,premup-three_ses-02_part-02_label-phase2,3.2.4,Win32,60,,,,,,,,,,,,,,,,,,,,,,,,,,,,,
,,0,176,1,0,1,0,1,0,1,0,240,55,1,239,1,4,4,stim/44.jpeg,Instruments,1,stim/objects/Instruments/grandpiano.png,0.5,2,0.2,0.15,left,21,2020-12-03_09h11.43.754,premup-three_ses-02_part-02_label-phase2,3.2.4,Win32,60,,,,,,,,,,,,,,,,,,,,,,,,,,,,,
left,0.525000095,0,177,1,0,1,0,1,0,1,0,240,32,1,239,1,3,1,stim/31.jpeg,HouseObjects,2,stim/objects/HouseObjects/coffee.png,0.5,1,-0.2,0.15,right,21,2020-12-03_09h11.43.754,premup-three_ses-02_part-02_label-phase2,3.2.4,Win32,60,,,,,,,,,,,,,,,,,,,,,,,,,,,,,
left,0.719000101,0,178,1,0,1,0,1,0,1,0,240,153,1,239,2,6,2,stim/62.jpeg,HouseObjects,2,stim/objects/HouseObjects/cushion2.png,0.3,2,0.2,0.15,right,21,2020-12-03_09h11.43.754,premup-three_ses-02_part-02_label-phase2,3.2.4,Win32,60,,,,,,,,,,,,,,,,,,,,,,,,,,,,,
left,0.527000189,1,179,1,0,1,0,1,0,1,0,240,204,1,239,3,2,1,stim/21.jpeg,Instruments,1,stim/objects/Instruments/guitarcase2.png,0.9,4,0.2,-0.15,left,21,2020-12-03_09h11.43.754,premup-three_ses-02_part-02_label-phase2,3.2.4,Win32,60,,,,,,,,,,,,,,,,,,,,,,,,,,,,,
left,0.394000292,1,180,1,0,1,0,1,0,1,0,240,129,1,239,2,6,2,stim/62.jpeg,Instruments,1,stim/objects/Instruments/electricdrumset2.png,0.7,3,-0.2,-0.15,left,21,2020-12-03_09h11.43.754,premup-three_ses-02_part-02_label-phase2,3.2.4,Win32,60,,,,,,,,,,,,,,,,,,,,,,,,,,,,,
left,0.524000168,1,181,1,0,1,0,1,0,1,0,240,18,1,239,1,3,3,stim/33.jpeg,Instruments,1,stim/objects/Instruments/electricguitar.png,0.5,1,-0.2,0.15,left,21,2020-12-03_09h11.43.754,premup-three_ses-02_part-02_label-phase2,3.2.4,Win32,60,,,,,,,,,,,,,,,,,,,,,,,,,,,,,
left,0.51699996,0,182,1,0,1,0,1,0,1,0,240,159,1,239,2,6,4,stim/64.jpeg,HouseObjects,2,stim/objects/HouseObjects/doormat2.png,0.3,2,0.2,0.15,right,21,2020-12-03_09h11.43.754,premup-three_ses-02_part-02_label-phase2,3.2.4,Win32,60,,,,,,,,,,,,,,,,,,,,,,,,,,,,,
left,0.543000221,0,183,1,0,1,0,1,0,1,0,240,157,1,239,2,6,2,stim/62.jpeg,HouseObjects,2,stim/objects/HouseObjects/cushion2.png,0.3,1,-0.2,0.15,right,21,2020-12-03_09h11.43.754,premup-three_ses-02_part-02_label-phase2,3.2.4,Win32,60,,,,,,,,,,,,,,,,,,,,,,,,,,,,,
right,0.379000187,1,184,1,0,1,0,1,0,1,0,240,21,1,239,1,3,2,stim/32.jpeg,HouseObjects,2,stim/objects/HouseObjects/cushion.png,0.5,1,-0.2,0.15,right,21,2020-12-03_09h11.43.754,premup-three_ses-02_part-02_label-phase2,3.2.4,Win32,60,,,,,,,,,,,,,,,,,,,,,,,,,,,,,
left,0.584000111,0,185,1,0,1,0,1,0,1,0,240,167,1,239,3,1,4,stim/14.jpeg,HouseObjects,2,stim/objects/HouseObjects/glass2.png,0.9,3,-0.2,-0.15,right,21,2020-12-03_09h11.43.754,premup-three_ses-02_part-02_label-phase2,3.2.4,Win32,60,,,,,,,,,,,,,,,,,,,,,,,,,,,,,
left,0.436000109,1,186,1,0,1,0,1,0,1,0,240,219,1,239,3,2,4,stim/24.jpeg,Instruments,1,stim/objects/Instruments/hihat2.png,0.9,1,-0.2,0.15,left,21,2020-12-03_09h11.43.754,premup-three_ses-02_part-02_label-phase2,3.2.4,Win32,60,,,,,,,,,,,,,,,,,,,,,,,,,,,,,
right,0.526000023,0,187,1,0,1,0,1,0,1,0,240,83,1,239,2,5,4,stim/54.jpeg,Instruments,1,stim/objects/Instruments/hihat.png,0.3,1,-0.2,0.15,left,21,2020-12-03_09h11.43.754,premup-three_ses-02_part-02_label-phase2,3.2.4,Win32,60,,,,,,,,,,,,,,,,,,,,,,,,,,,,,
left,0.670000315,1,188,1,0,1,0,1,0,1,0,240,3,1,239,1,3,4,stim/34.jpeg,Instruments,1,stim/objects/Instruments/flute.png,0.5,2,0.2,0.15,left,21,2020-12-03_09h11.43.754,premup-three_ses-02_part-02_label-phase2,3.2.4,Win32,60,,,,,,,,,,,,,,,,,,,,,,,,,,,,,
right,0.409000158,0,189,1,0,1,0,1,0,1,0,240,0,1,239,1,3,1,stim/31.jpeg,Instruments,1,stim/objects/Instruments/drums.png,0.5,2,0.2,0.15,left,21,2020-12-03_09h11.43.754,premup-three_ses-02_part-02_label-phase2,3.2.4,Win32,60,,,,,,,,,,,,,,,,,,,,,,,,,,,,,
left,0.88100028,1,190,1,0,1,0,1,0,1,0,240,40,1,239,1,4,1,stim/41.jpeg,Instruments,1,stim/objects/Instruments/flutetrans.png,0.5,2,0.2,0.15,left,21,2020-12-03_09h11.43.754,premup-three_ses-02_part-02_label-phase2,3.2.4,Win32,60,,,,,,,,,,,,,,,,,,,,,,,,,,,,,
right,0.605000019,0,191,1,0,1,0,1,0,1,0,240,44,1,239,1,4,1,stim/41.jpeg,Instruments,1,stim/objects/Instruments/flutetrans.png,0.5,1,-0.2,0.15,left,21,2020-12-03_09h11.43.754,premup-three_ses-02_part-02_label-phase2,3.2.4,Win32,60,,,,,,,,,,,,,,,,,,,,,,,,,,,,,
right,0.482000113,1,192,1,0,1,0,1,0,1,0,240,98,1,239,2,5,3,stim/53.jpeg,HouseObjects,2,stim/objects/HouseObjects/handbrush.png,0.7,2,0.2,0.15,right,21,2020-12-03_09h11.43.754,premup-three_ses-02_part-02_label-phase2,3.2.4,Win32,60,,,,,,,,,,,,,,,,,,,,,,,,,,,,,
right,0.458000183,1,193,1,0,1,0,1,0,1,0,240,64,1,239,1,4,1,stim/41.jpeg,HouseObjects,2,stim/objects/HouseObjects/dustpan.png,0.5,4,0.2,-0.15,right,21,2020-12-03_09h11.43.754,premup-three_ses-02_part-02_label-phase2,3.2.4,Win32,60,,,,,,,,,,,,,,,,,,,,,,,,,,,,,
left,0.502000332,1,194,1,0,1,0,1,0,1,0,240,213,1,239,3,2,2,stim/22.jpeg,Instruments,1,stim/objects/Instruments/harmonica2.png,0.9,3,-0.2,-0.15,left,21,2020-12-03_09h11.43.754,premup-three_ses-02_part-02_label-phase2,3.2.4,Win32,60,,,,,,,,,,,,,,,,,,,,,,,,,,,,,
right,0.514000177,1,195,1,0,1,0,1,0,1,0,240,189,1,239,3,1,2,stim/12.jpeg,HouseObjects,2,stim/objects/HouseObjects/flyswatter2.png,0.9,4,0.2,-0.15,right,21,2020-12-03_09h11.43.754,premup-three_ses-02_part-02_label-phase2,3.2.4,Win32,60,,,,,,,,,,,,,,,,,,,,,,,,,,,,,
left,0.509000301,1,196,1,0,1,0,1,0,1,0,240,147,1,239,2,6,4,stim/64.jpeg,Instruments,1,stim/objects/Instruments/flute2.png,0.7,4,0.2,-0.15,left,21,2020-12-03_09h11.43.754,premup-three_ses-02_part-02_label-phase2,3.2.4,Win32,60,,,,,,,,,,,,,,,,,,,,,,,,,,,,,
right,0.473000288,0,197,1,0,1,0,1,0,1,0,240,84,1,239,2,5,1,stim/51.jpeg,Instruments,1,stim/objects/Instruments/guitarcase.png,0.3,1,-0.2,0.15,left,21,2020-12-03_09h11.43.754,premup-three_ses-02_part-02_label-phase2,3.2.4,Win32,60,,,,,,,,,,,,,,,,,,,,,,,,,,,,,
left,0.499000311,1,198,1,0,1,0,1,0,1,0,240,11,1,239,1,3,4,stim/34.jpeg,Instruments,1,stim/objects/Instruments/flute.png,0.5,2,0.2,0.15,left,21,2020-12-03_09h11.43.754,premup-three_ses-02_part-02_label-phase2,3.2.4,Win32,60,,,,,,,,,,,,,,,,,,,,,,,,,,,,,
left,0.457000017,1,199,1,0,1,0,1,0,1,0,240,137,1,239,2,6,2,stim/62.jpeg,Instruments,1,stim/objects/Instruments/electricdrumset2.png,0.7,2,0.2,0.15,left,21,2020-12-03_09h11.43.754,premup-three_ses-02_part-02_label-phase2,3.2.4,Win32,60,,,,,,,,,,,,,,,,,,,,,,,,,,,,,
right,0.531000376,0,200,1,0,1,0,1,0,1,0,240,17,1,239,1,3,2,stim/32.jpeg,Instruments,1,stim/objects/Instruments/electricdrumset.png,0.5,2,0.2,0.15,left,21,2020-12-03_09h11.43.754,premup-three_ses-02_part-02_label-phase2,3.2.4,Win32,60,,,,,,,,,,,,,,,,,,,,,,,,,,,,,
left,0.476000309,1,201,1,0,1,0,1,0,1,0,240,235,1,239,3,2,4,stim/24.jpeg,Instruments,1,stim/objects/Instruments/hihat2.png,0.9,3,-0.2,-0.15,left,21,2020-12-03_09h11.43.754,premup-three_ses-02_part-02_label-phase2,3.2.4,Win32,60,,,,,,,,,,,,,,,,,,,,,,,,,,,,,
left,0.517000198,0,202,1,0,1,0,1,0,1,0,240,158,1,239,2,6,3,stim/63.jpeg,HouseObjects,2,stim/objects/HouseObjects/dishsoap2.png,0.3,4,0.2,-0.15,right,21,2020-12-03_09h11.43.754,premup-three_ses-02_part-02_label-phase2,3.2.4,Win32,60,,,,,,,,,,,,,,,,,,,,,,,,,,,,,
left,0.71600008,1,203,1,0,1,0,1,0,1,0,240,234,1,239,3,2,3,stim/23.jpeg,Instruments,1,stim/objects/Instruments/harp2.png,0.9,1,-0.2,0.15,left,21,2020-12-03_09h11.43.754,premup-three_ses-02_part-02_label-phase2,3.2.4,Win32,60,,,,,,,,,,,,,,,,,,,,,,,,,,,,,
right,0.583000183,1,204,1,0,1,0,1,0,1,0,240,33,1,239,1,3,2,stim/32.jpeg,HouseObjects,2,stim/objects/HouseObjects/cushion.png,0.5,1,-0.2,0.15,right,21,2020-12-03_09h11.43.754,premup-three_ses-02_part-02_label-phase2,3.2.4,Win32,60,,,,,,,,,,,,,,,,,,,,,,,,,,,,,
right,0.601000071,0,205,1,0,1,0,1,0,1,0,240,160,1,239,3,1,1,stim/11.jpeg,Instruments,1,stim/objects/Instruments/flutetrans2.png,0.1,3,-0.2,-0.15,left,21,2020-12-03_09h11.43.754,premup-three_ses-02_part-02_label-phase2,3.2.4,Win32,60,,,,,,,,,,,,,,,,,,,,,,,,,,,,,
left,0.459000349,1,206,1,0,1,0,1,0,1,0,240,200,1,239,3,2,1,stim/21.jpeg,Instruments,1,stim/objects/Instruments/guitarcase2.png,0.9,1,-0.2,0.15,left,21,2020-12-03_09h11.43.754,premup-three_ses-02_part-02_label-phase2,3.2.4,Win32,60,,,,,,,,,,,,,,,,,,,,,,,,,,,,,
left,0.47300005,1,207,1,0,1,0,1,0,1,0,240,209,1,239,3,2,2,stim/22.jpeg,Instruments,1,stim/objects/Instruments/harmonica2.png,0.9,4,0.2,-0.15,left,21,2020-12-03_09h11.43.754,premup-three_ses-02_part-02_label-phase2,3.2.4,Win32,60,,,,,,,,,,,,,,,,,,,,,,,,,,,,,
left,0.476999998,0,208,1,0,1,0,1,0,1,0,240,156,1,239,2,6,1,stim/61.jpeg,HouseObjects,2,stim/objects/HouseObjects/coffee2.png,0.3,3,-0.2,-0.15,right,21,2020-12-03_09h11.43.754,premup-three_ses-02_part-02_label-phase2,3.2.4,Win32,60,,,,,,,,,,,,,,,,,,,,,,,,,,,,,
right,0.57400012,1,209,1,0,1,0,1,0,1,0,240,187,1,239,3,1,4,stim/14.jpeg,HouseObjects,2,stim/objects/HouseObjects/glass2.png,0.9,4,0.2,-0.15,right,21,2020-12-03_09h11.43.754,premup-three_ses-02_part-02_label-phase2,3.2.4,Win32,60,,,,,,,,,,,,,,,,,,,,,,,,,,,,,
right,0.380000114,1,210,1,0,1,0,1,0,1,0,240,67,1,239,1,4,4,stim/44.jpeg,HouseObjects,2,stim/objects/HouseObjects/glass.png,0.5,2,0.2,0.15,right,21,2020-12-03_09h11.43.754,premup-three_ses-02_part-02_label-phase2,3.2.4,Win32,60,,,,,,,,,,,,,,,,,,,,,,,,,,,,,
left,0.448000193,0,211,1,0,1,0,1,0,1,0,240,94,1,239,2,5,3,stim/53.jpeg,HouseObjects,2,stim/objects/HouseObjects/handbrush.png,0.7,3,-0.2,-0.15,right,21,2020-12-03_09h11.43.754,premup-three_ses-02_part-02_label-phase2,3.2.4,Win32,60,,,,,,,,,,,,,,,,,,,,,,,,,,,,,
left,0.509000301,1,212,1,0,1,0,1,0,1,0,240,146,1,239,2,6,3,stim/63.jpeg,Instruments,1,stim/objects/Instruments/electricguitar2.png,0.7,4,0.2,-0.15,left,21,2020-12-03_09h11.43.754,premup-three_ses-02_part-02_label-phase2,3.2.4,Win32,60,,,,,,,,,,,,,,,,,,,,,,,,,,,,,
right,0.460000277,0,213,1,0,1,0,1,0,1,0,240,134,1,239,2,6,3,stim/63.jpeg,Instruments,1,stim/objects/Instruments/electricguitar2.png,0.7,2,0.2,0.15,left,21,2020-12-03_09h11.43.754,premup-three_ses-02_part-02_label-phase2,3.2.4,Win32,60,,,,,,,,,,,,,,,,,,,,,,,,,,,,,
right,0.601000071,0,214,1,0,1,0,1,0,1,0,240,161,1,239,3,1,2,stim/12.jpeg,Instruments,1,stim/objects/Instruments/frenchhorn2.png,0.1,3,-0.2,-0.15,left,21,2020-12-03_09h11.43.754,premup-three_ses-02_part-02_label-phase2,3.2.4,Win32,60,,,,,,,,,,,,,,,,,,,,,,,,,,,,,
,,0,215,1,0,1,0,1,0,1,0,240,125,1,239,2,6,2,stim/62.jpeg,Instruments,1,stim/objects/Instruments/electricdrumset2.png,0.7,3,-0.2,-0.15,left,21,2020-12-03_09h11.43.754,premup-three_ses-02_part-02_label-phase2,3.2.4,Win32,60,,,,,,,,,,,,,,,,,,,,,,,,,,,,,
left,0.460000277,1,216,1,0,1,0,1,0,1,0,240,223,1,239,3,2,4,stim/24.jpeg,Instruments,1,stim/objects/Instruments/hihat2.png,0.9,1,-0.2,0.15,left,21,2020-12-03_09h11.43.754,premup-three_ses-02_part-02_label-phase2,3.2.4,Win32,60,,,,,,,,,,,,,,,,,,,,,,,,,,,,,
right,0.378999949,1,217,1,0,1,0,1,0,1,0,240,73,1,239,1,4,2,stim/42.jpeg,HouseObjects,2,stim/objects/HouseObjects/flyswatter.png,0.5,2,0.2,0.15,right,21,2020-12-03_09h11.43.754,premup-three_ses-02_part-02_label-phase2,3.2.4,Win32,60,,,,,,,,,,,,,,,,,,,,,,,,,,,,,
left,0.559000254,1,218,1,0,1,0,1,0,1,0,240,58,1,239,1,4,3,stim/43.jpeg,Instruments,1,stim/objects/Instruments/gong.png,0.5,2,0.2,0.15,left,21,2020-12-03_09h11.43.754,premup-three_ses-02_part-02_label-phase2,3.2.4,Win32,60,,,,,,,,,,,,,,,,,,,,,,,,,,,,,
left,0.553000212,0,219,1,0,1,0,1,0,1,0,240,65,1,239,1,4,2,stim/42.jpeg,HouseObjects,2,stim/objects/HouseObjects/flyswatter.png,0.5,4,0.2,-0.15,right,21,2020-12-03_09h11.43.754,premup-three_ses-02_part-02_label-phase2,3.2.4,Win32,60,,,,,,,,,,,,,,,,,,,,,,,,,,,,,
right,0.543000221,0,220,1,0,1,0,1,0,1,0,240,88,1,239,2,5,1,stim/51.jpeg,Instruments,1,stim/objects/Instruments/guitarcase.png,0.3,1,-0.2,0.15,left,21,2020-12-03_09h11.43.754,premup-three_ses-02_part-02_label-phase2,3.2.4,Win32,60,,,,,,,,,,,,,,,,,,,,,,,,,,,,,
left,0.359000206,1,221,1,0,1,0,1,0,1,0,240,123,1,239,2,6,4,stim/64.jpeg,Instruments,1,stim/objects/Instruments/flute2.png,0.7,3,-0.2,-0.15,left,21,2020-12-03_09h11.43.754,premup-three_ses-02_part-02_label-phase2,3.2.4,Win32,60,,,,,,,,,,,,,,,,,,,,,,,,,,,,,
left,0.401000023,1,222,1,0,1,0,1,0,1,0,240,42,1,239,1,4,3,stim/43.jpeg,Instruments,1,stim/objects/Instruments/gong.png,0.5,4,0.2,-0.15,left,21,2020-12-03_09h11.43.754,premup-three_ses-02_part-02_label-phase2,3.2.4,Win32,60,,,,,,,,,,,,,,,,,,,,,,,,,,,,,
right,0.436000109,1,223,1,0,1,0,1,0,1,0,240,171,1,239,3,1,4,stim/14.jpeg,HouseObjects,2,stim/objects/HouseObjects/glass2.png,0.9,2,0.2,0.15,right,21,2020-12-03_09h11.43.754,premup-three_ses-02_part-02_label-phase2,3.2.4,Win32,60,,,,,,,,,,,,,,,,,,,,,,,,,,,,,
left,0.515000105,1,224,1,0,1,0,1,0,1,0,240,210,1,239,3,2,3,stim/23.jpeg,Instruments,1,stim/objects/Instruments/harp2.png,0.9,4,0.2,-0.15,left,21,2020-12-03_09h11.43.754,premup-three_ses-02_part-02_label-phase2,3.2.4,Win32,60,,,,,,,,,,,,,,,,,,,,,,,,,,,,,
left,0.579000235,0,225,1,0,1,0,1,0,1,0,240,75,1,239,1,4,4,stim/44.jpeg,HouseObjects,2,stim/objects/HouseObjects/glass.png,0.5,3,-0.2,-0.15,right,21,2020-12-03_09h11.43.754,premup-three_ses-02_part-02_label-phase2,3.2.4,Win32,60,,,,,,,,,,,,,,,,,,,,,,,,,,,,,
right,0.380000114,0,226,1,0,1,0,1,0,1,0,240,222,1,239,3,2,3,stim/23.jpeg,Instruments,1,stim/objects/Instruments/harp2.png,0.9,4,0.2,-0.15,left,21,2020-12-03_09h11.43.754,premup-three_ses-02_part-02_label-phase2,3.2.4,Win32,60,,,,,,,,,,,,,,,,,,,,,,,,,,,,,
left,0.348000288,1,227,1,0,1,0,1,0,1,0,240,16,1,239,1,3,1,stim/31.jpeg,Instruments,1,stim/objects/Instruments/drums.png,0.5,2,0.2,0.15,left,21,2020-12-03_09h11.43.754,premup-three_ses-02_part-02_label-phase2,3.2.4,Win32,60,,,,,,,,,,,,,,,,,,,,,,,,,,,,,
right,0.521000147,1,228,1,0,1,0,1,0,1,0,240,186,1,239,3,1,3,stim/13.jpeg,HouseObjects,2,stim/objects/HouseObjects/garbagebin2.png,0.9,3,-0.2,-0.15,right,21,2020-12-03_09h11.43.754,premup-three_ses-02_part-02_label-phase2,3.2.4,Win32,60,,,,,,,,,,,,,,,,,,,,,,,,,,,,,
left,0.375000238,0,229,1,0,1,0,1,0,1,0,240,148,1,239,2,6,1,stim/61.jpeg,HouseObjects,2,stim/objects/HouseObjects/coffee2.png,0.3,3,-0.2,-0.15,right,21,2020-12-03_09h11.43.754,premup-three_ses-02_part-02_label-phase2,3.2.4,Win32,60,,,,,,,,,,,,,,,,,,,,,,,,,,,,,
right,0.595000267,1,230,1,0,1,0,1,0,1,0,240,39,1,239,1,3,4,stim/34.jpeg,HouseObjects,2,stim/objects/HouseObjects/doormat.png,0.5,3,-0.2,-0.15,right,21,2020-12-03_09h11.43.754,premup-three_ses-02_part-02_label-phase2,3.2.4,Win32,60,,,,,,,,,,,,,,,,,,,,,,,,,,,,,
left,0.419000149,1,231,1,0,1,0,1,0,1,0,240,224,1,239,3,2,1,stim/21.jpeg,Instruments,1,stim/objects/Instruments/guitarcase2.png,0.9,2,0.2,0.15,left,21,2020-12-03_09h11.43.754,premup-three_ses-02_part-02_label-phase2,3.2.4,Win32,60,,,,,,,,,,,,,,,,,,,,,,,,,,,,,
right,0.421000242,1,232,1,0,1,0,1,0,1,0,240,37,1,239,1,3,2,stim/32.jpeg,HouseObjects,2,stim/objects/HouseObjects/cushion.png,0.5,4,0.2,-0.15,right,21,2020-12-03_09h11.43.754,premup-three_ses-02_part-02_label-phase2,3.2.4,Win32,60,,,,,,,,,,,,,,,,,,,,,,,,,,,,,
left,0.568000078,0,233,1,0,1,0,1,0,1,0,240,149,1,239,2,6,2,stim/62.jpeg,HouseObjects,2,stim/objects/HouseObjects/cushion2.png,0.3,4,0.2,-0.15,right,21,2020-12-03_09h11.43.754,premup-three_ses-02_part-02_label-phase2,3.2.4,Win32,60,,,,,,,,,,,,,,,,,,,,,,,,,,,,,
right,0.625,1,234,1,0,1,0,1,0,1,0,240,170,1,239,3,1,3,stim/13.jpeg,HouseObjects,2,stim/objects/HouseObjects/garbagebin2.png,0.9,3,-0.2,-0.15,right,21,2020-12-03_09h11.43.754,premup-three_ses-02_part-02_label-phase2,3.2.4,Win32,60,,,,,,,,,,,,,,,,,,,,,,,,,,,,,
left,0.75,1,235,1,0,1,0,1,0,1,0,240,50,1,239,1,4,3,stim/43.jpeg,Instruments,1,stim/objects/Instruments/gong.png,0.5,1,-0.2,0.15,left,21,2020-12-03_09h11.43.754,premup-three_ses-02_part-02_label-phase2,3.2.4,Win32,60,,,,,,,,,,,,,,,,,,,,,,,,,,,,,
left,0.641000271,0,236,1,0,1,0,1,0,1,0,240,194,1,239,3,1,3,stim/13.jpeg,HouseObjects,2,stim/objects/HouseObjects/garbagebin2.png,0.9,1,-0.2,0.15,right,21,2020-12-03_09h11.43.754,premup-three_ses-02_part-02_label-phase2,3.2.4,Win32,60,,,,,,,,,,,,,,,,,,,,,,,,,,,,,
right,0.637000084,1,237,1,0,1,0,1,0,1,0,240,165,1,239,3,1,2,stim/12.jpeg,HouseObjects,2,stim/objects/HouseObjects/flyswatter2.png,0.9,1,-0.2,0.15,right,21,2020-12-03_09h11.43.754,premup-three_ses-02_part-02_label-phase2,3.2.4,Win32,60,,,,,,,,,,,,,,,,,,,,,,,,,,,,,
right,0.468000174,1,238,1,0,1,0,1,0,1,0,240,99,1,239,2,5,4,stim/54.jpeg,HouseObjects,2,stim/objects/HouseObjects/handvacuum.png,0.7,1,-0.2,0.15,right,21,2020-12-03_09h11.43.754,premup-three_ses-02_part-02_label-phase2,3.2.4,Win32,60,,,,,,,,,,,,,,,,,,,,,,,,,,,,,
right,0.489000082,1,239,1,0,1,0,1,0,1,0,240,199,1,239,3,1,4,stim/14.jpeg,HouseObjects,2,stim/objects/HouseObjects/glass2.png,0.9,1,-0.2,0.15,right,21,2020-12-03_09h11.43.754,premup-three_ses-02_part-02_label-phase2,3.2.4,Win32,60,,,,,,,,,,,,,,,,,,,,,,,,,,,,,
right,0.707000256,0,240,1,0,1,0,1,0,1,0,240,49,1,239,1,4,2,stim/42.jpeg,Instruments,1,stim/objects/Instruments/frenchhorn.png,0.5,4,0.2,-0.15,left,21,2020-12-03_09h11.43.754,premup-three_ses-02_part-02_label-phase2,3.2.4,Win32,60,,,,,,,,,,,,,,,,,,,,,,,,,,,,,
,,,,1,0,1,0,1,0,,,,,,,,3,,stim/31.jpeg,,,,,,,,,21,2020-12-03_09h11.43.754,premup-three_ses-02_part-02_label-phase2,3.2.4,Win32,60,33,10.26400018,,,1,0,6,2,1,5,Music items,65,75,Household items,25,35,,,,,,,,,,,,,
,,,,1,0,1,0,1,0,,,,,,,,4,,stim/41.jpeg,,,,,,,,,21,2020-12-03_09h11.43.754,premup-three_ses-02_part-02_label-phase2,3.2.4,Win32,60,58,5.128999949,,,1,0,6,3,1,5,Music items,65,75,Household items,25,35,,,,,,,,,,,,,
,,,,1,0,1,0,1,0,,,,,,,,1,,stim/11.jpeg,,,,,,,,,21,2020-12-03_09h11.43.754,premup-three_ses-02_part-02_label-phase2,3.2.4,Win32,60,19,9.428999901,,,1,0,6,0,1,5,Music items,45,55,Household items,45,55,,,,,,,,,,,,,
,,,,1,0,1,0,1,0,,,,,,,,2,,stim/21.jpeg,,,,,,,,,21,2020-12-03_09h11.43.754,premup-three_ses-02_part-02_label-phase2,3.2.4,Win32,60,23,5.960999966,,,1,0,6,1,1,5,Household items,45,55,Music items,45,55,,,,,,,,,,,,,
,,,,1,0,1,0,1,0,,,,,,,,5,,stim/51.jpeg,,,,,,,,,21,2020-12-03_09h11.43.754,premup-three_ses-02_part-02_label-phase2,3.2.4,Win32,60,44,8.412999868,,,1,0,6,4,1,5,Household items,5,15,Music items,85,95,,,,,,,,,,,,,
,,,,1,0,1,0,1,0,,,,,,,,6,,stim/61.jpeg,,,,,,,,,21,2020-12-03_09h11.43.754,premup-three_ses-02_part-02_label-phase2,3.2.4,Win32,60,35,12.85900021,,,1,0,6,5,1,5,Music items,5,15,Household items,85,95,,,,,,,,,,,,,
,,,,1,0,1,0,1,0,,,,,,,,,,,,,,,,,,,21,2020-12-03_09h11.43.754,premup-three_ses-02_part-02_label-phase2,3.2.4,Win32,60,,,,,,,,,,,,,,,,,,,,,,,,,,,,,
left,0.377000093,1,241,,,,,,,,,,,,,3,2,1,stim/21.jpeg,Instruments,1,stim/objects/Instruments/trombone4.png,0.9,2,0.2,0.15,left,21,2020-12-03_09h11.43.754,premup-three_ses-02_part-02_label-phase2,3.2.4,Win32,60,,,,,,,,,,,,,,,,,1,0,330,314,1,329,1,,,,,,
right,0.494000196,0,242,,,,,,,,,,,,,1,3,3,stim/33.jpeg,Instruments,1,stim/objects/Instruments/acousticguitar3.png,0.5,1,-0.2,0.15,left,21,2020-12-03_09h11.43.754,premup-three_ses-02_part-02_label-phase2,3.2.4,Win32,60,,,,,,,,,,,,,,,,,1,0,330,6,1,329,2,,,,,,
left,0.57400012,0,243,,,,,,,,,,,,,2,5,3,stim/53.jpeg,HouseObjects,2,stim/objects/HouseObjects/thread3.png,0.7,1,-0.2,0.15,right,21,2020-12-03_09h11.43.754,premup-three_ses-02_part-02_label-phase2,3.2.4,Win32,60,,,,,,,,,,,,,,,,,1,0,330,86,1,329,1,,,,,,
left,0.552000284,0,244,,,,,,,,,,,,,1,3,1,stim/31.jpeg,HouseObjects,2,stim/objects/HouseObjects/bleachbottle3.png,0.5,4,0.2,-0.15,right,21,2020-12-03_09h11.43.754,premup-three_ses-02_part-02_label-phase2,3.2.4,Win32,60,,,,,,,,,,,,,,,,,1,0,330,24,1,329,2,,,,,,
left,0.607000113,1,245,,,,,,,,,,,,,3,2,2,stim/22.jpeg,Instruments,1,stim/objects/Instruments/oboe3.png,0.9,2,0.2,0.15,left,21,2020-12-03_09h11.43.754,premup-three_ses-02_part-02_label-phase2,3.2.4,Win32,60,,,,,,,,,,,,,,,,,1,0,330,259,1,329,2,,,,,,
left,0.510000229,1,246,,,,,,,,,,,,,3,2,3,stim/23.jpeg,Instruments,1,stim/objects/Instruments/musicstand3.png,0.9,1,-0.2,0.15,left,21,2020-12-03_09h11.43.754,premup-three_ses-02_part-02_label-phase2,3.2.4,Win32,60,,,,,,,,,,,,,,,,,1,0,330,248,1,329,2,,,,,,
right,0.478000164,0,247,,,,,,,,,,,,,1,4,1,stim/41.jpeg,Instruments,1,stim/objects/Instruments/chime3.png,0.5,2,0.2,0.15,left,21,2020-12-03_09h11.43.754,premup-three_ses-02_part-02_label-phase2,3.2.4,Win32,60,,,,,,,,,,,,,,,,,1,0,330,32,1,329,2,,,,,,
left,0.478000164,1,248,,,,,,,,,,,,,3,2,2,stim/22.jpeg,Instruments,1,stim/objects/Instruments/marimba3.png,0.9,3,-0.2,-0.15,left,21,2020-12-03_09h11.43.754,premup-three_ses-02_part-02_label-phase2,3.2.4,Win32,60,,,,,,,,,,,,,,,,,1,0,330,275,1,329,2,,,,,,
left,0.512000322,0,249,,,,,,,,,,,,,3,1,4,stim/14.jpeg,HouseObjects,2,stim/objects/HouseObjects/pitcher3.png,0.9,2,0.2,0.15,right,21,2020-12-03_09h11.43.754,premup-three_ses-02_part-02_label-phase2,3.2.4,Win32,60,,,,,,,,,,,,,,,,,1,0,330,149,1,329,2,,,,,,
right,0.607000113,1,250,,,,,,,,,,,,,1,4,4,stim/44.jpeg,HouseObjects,2,stim/objects/HouseObjects/teapot3.png,0.5,3,-0.2,-0.15,right,21,2020-12-03_09h11.43.754,premup-three_ses-02_part-02_label-phase2,3.2.4,Win32,60,,,,,,,,,,,,,,,,,1,0,330,59,1,329,1,,,,,,
left,0.596000195,1,251,,,,,,,,,,,,,1,3,2,stim/32.jpeg,Instruments,1,stim/objects/Instruments/accordion3.png,0.5,1,-0.2,0.15,left,21,2020-12-03_09h11.43.754,premup-three_ses-02_part-02_label-phase2,3.2.4,Win32,60,,,,,,,,,,,,,,,,,1,0,330,5,1,329,2,,,,,,
left,0.603000164,1,252,,,,,,,,,,,,,2,6,2,stim/62.jpeg,Instruments,1,stim/objects/Instruments/doublebass3.png,0.7,3,-0.2,-0.15,left,21,2020-12-03_09h11.43.754,premup-three_ses-02_part-02_label-phase2,3.2.4,Win32,60,,,,,,,,,,,,,,,,,1,0,330,96,1,329,2,,,,,,
left,0.625000238,1,253,,,,,,,,,,,,,2,6,4,stim/64.jpeg,Instruments,1,stim/objects/Instruments/laud4.png,0.7,2,0.2,0.15,left,21,2020-12-03_09h11.43.754,premup-three_ses-02_part-02_label-phase2,3.2.4,Win32,60,,,,,,,,,,,,,,,,,1,0,330,118,1,329,1,,,,,,
right,0.552000284,1,254,,,,,,,,,,,,,1,3,3,stim/33.jpeg,HouseObjects,2,stim/objects/HouseObjects/barbecuelighter3.png,0.5,1,-0.2,0.15,right,21,2020-12-03_09h11.43.754,premup-three_ses-02_part-02_label-phase2,3.2.4,Win32,60,,,,,,,,,,,,,,,,,1,0,330,22,1,329,2,,,,,,
right,0.668000221,1,255,,,,,,,,,,,,,3,1,3,stim/13.jpeg,HouseObjects,2,stim/objects/HouseObjects/match3.png,0.9,4,0.2,-0.15,right,21,2020-12-03_09h11.43.754,premup-three_ses-02_part-02_label-phase2,3.2.4,Win32,60,,,,,,,,,,,,,,,,,1,0,330,192,1,329,2,,,,,,
left,0.616000175,1,256,,,,,,,,,,,,,1,3,2,stim/32.jpeg,Instruments,1,stim/objects/Instruments/acousticguitar3.png,0.5,2,0.2,0.15,left,21,2020-12-03_09h11.43.754,premup-three_ses-02_part-02_label-phase2,3.2.4,Win32,60,,,,,,,,,,,,,,,,,1,0,330,1,1,329,2,,,,,,
right,0.708000183,0,257,,,,,,,,,,,,,3,2,2,stim/22.jpeg,Instruments,1,stim/objects/Instruments/musicsheet3.png,0.9,2,0.2,0.15,left,21,2020-12-03_09h11.43.754,premup-three_ses-02_part-02_label-phase2,3.2.4,Win32,60,,,,,,,,,,,,,,,,,1,0,330,247,1,329,2,,,,,,
right,0.80700016,1,258,,,,,,,,,,,,,3,1,3,stim/13.jpeg,HouseObjects,2,stim/objects/HouseObjects/lintroller3.png,0.9,4,0.2,-0.15,right,21,2020-12-03_09h11.43.754,premup-three_ses-02_part-02_label-phase2,3.2.4,Win32,60,,,,,,,,,,,,,,,,,1,0,330,216,1,329,2,,,,,,
left,0.56400013,0,259,,,,,,,,,,,,,2,5,4,stim/54.jpeg,HouseObjects,2,stim/objects/HouseObjects/key3.png,0.7,2,0.2,0.15,right,21,2020-12-03_09h11.43.754,premup-three_ses-02_part-02_label-phase2,3.2.4,Win32,60,,,,,,,,,,,,,,,,,1,0,330,79,1,329,2,,,,,,
right,0.611000061,1,260,,,,,,,,,,,,,3,1,2,stim/12.jpeg,HouseObjects,2,stim/objects/HouseObjects/pitcher3.png,0.9,1,-0.2,0.15,right,21,2020-12-03_09h11.43.754,premup-three_ses-02_part-02_label-phase2,3.2.4,Win32,60,,,,,,,,,,,,,,,,,1,0,330,199,1,329,2,,,,,,
right,0.599000216,1,261,,,,,,,,,,,,,2,5,4,stim/54.jpeg,HouseObjects,2,stim/objects/HouseObjects/ballofstring4.png,0.7,3,-0.2,-0.15,right,21,2020-12-03_09h11.43.754,premup-three_ses-02_part-02_label-phase2,3.2.4,Win32,60,,,,,,,,,,,,,,,,,1,0,330,91,1,329,1,,,,,,
left,0.581000328,1,262,,,,,,,,,,,,,3,2,4,stim/24.jpeg,Instruments,1,stim/objects/Instruments/marimba3.png,0.9,4,0.2,-0.15,left,21,2020-12-03_09h11.43.754,premup-three_ses-02_part-02_label-phase2,3.2.4,Win32,60,,,,,,,,,,,,,,,,,1,0,330,245,1,329,2,,,,,,
left,0.463000298,0,263,,,,,,,,,,,,,3,2,2,stim/22.jpeg,HouseObjects,2,stim/objects/HouseObjects/towel4.png,0.1,2,0.2,0.15,right,21,2020-12-03_09h11.43.754,premup-three_ses-02_part-02_label-phase2,3.2.4,Win32,60,,,,,,,,,,,,,,,,,1,0,330,327,1,329,1,,,,,,
left,0.576000214,0,264,,,,,,,,,,,,,2,6,4,stim/64.jpeg,HouseObjects,2,stim/objects/HouseObjects/clothespin4.png,0.3,1,-0.2,0.15,right,21,2020-12-03_09h11.43.754,premup-three_ses-02_part-02_label-phase2,3.2.4,Win32,60,,,,,,,,,,,,,,,,,1,0,330,126,1,329,1,,,,,,
left,0.647000313,0,265,,,,,,,,,,,,,3,2,3,stim/23.jpeg,HouseObjects,2,stim/objects/HouseObjects/teapot4.png,0.1,2,0.2,0.15,right,21,2020-12-03_09h11.43.754,premup-three_ses-02_part-02_label-phase2,3.2.4,Win32,60,,,,,,,,,,,,,,,,,1,0,330,324,1,329,1,,,,,,
left,0.673000097,1,266,,,,,,,,,,,,,3,2,3,stim/23.jpeg,Instruments,1,stim/objects/Instruments/oboe3.png,0.9,3,-0.2,-0.15,left,21,2020-12-03_09h11.43.754,premup-three_ses-02_part-02_label-phase2,3.2.4,Win32,60,,,,,,,,,,,,,,,,,1,0,330,304,1,329,2,,,,,,
left,0.498000145,0,267,,,,,,,,,,,,,3,2,1,stim/21.jpeg,HouseObjects,2,stim/objects/HouseObjects/thread4.png,0.1,3,-0.2,-0.15,right,21,2020-12-03_09h11.43.754,premup-three_ses-02_part-02_label-phase2,3.2.4,Win32,60,,,,,,,,,,,,,,,,,1,0,330,326,1,329,1,,,,,,
right,0.730000257,1,268,,,,,,,,,,,,,1,4,2,stim/42.jpeg,HouseObjects,2,stim/objects/HouseObjects/clock3.png,0.5,4,0.2,-0.15,right,21,2020-12-03_09h11.43.754,premup-three_ses-02_part-02_label-phase2,3.2.4,Win32,60,,,,,,,,,,,,,,,,,1,0,330,49,1,329,2,,,,,,
left,0.593000174,1,269,,,,,,,,,,,,,2,6,2,stim/62.jpeg,Instruments,1,stim/objects/Instruments/cymbal3.png,0.7,4,0.2,-0.15,left,21,2020-12-03_09h11.43.754,premup-three_ses-02_part-02_label-phase2,3.2.4,Win32,60,,,,,,,,,,,,,,,,,1,0,330,100,1,329,2,,,,,,
right,0.734000206,1,270,,,,,,,,,,,,,1,3,4,stim/34.jpeg,HouseObjects,2,stim/objects/HouseObjects/rubbergloves3.png,0.5,3,-0.2,-0.15,right,21,2020-12-03_09h11.43.754,premup-three_ses-02_part-02_label-phase2,3.2.4,Win32,60,,,,,,,,,,,,,,,,,1,0,330,27,1,329,1,,,,,,
right,0.694000244,0,271,,,,,,,,,,,,,1,4,3,stim/43.jpeg,Instruments,1,stim/objects/Instruments/cornet3.png,0.5,3,-0.2,-0.15,left,21,2020-12-03_09h11.43.754,premup-three_ses-02_part-02_label-phase2,3.2.4,Win32,60,,,,,,,,,,,,,,,,,1,0,330,34,1,329,2,,,,,,
right,0.656000137,1,272,,,,,,,,,,,,,3,1,4,stim/14.jpeg,HouseObjects,2,stim/objects/HouseObjects/knife3.png,0.9,4,0.2,-0.15,right,21,2020-12-03_09h11.43.754,premup-three_ses-02_part-02_label-phase2,3.2.4,Win32,60,,,,,,,,,,,,,,,,,1,0,330,165,1,329,2,,,,,,
right,0.555000067,1,273,,,,,,,,,,,,,3,1,2,stim/12.jpeg,HouseObjects,2,stim/objects/HouseObjects/lintroller3.png,0.9,1,-0.2,0.15,right,21,2020-12-03_09h11.43.754,premup-three_ses-02_part-02_label-phase2,3.2.4,Win32,60,,,,,,,,,,,,,,,,,1,0,330,211,1,329,2,,,,,,
left,0.542000055,1,274,,,,,,,,,,,,,3,2,4,stim/24.jpeg,Instruments,1,stim/objects/Instruments/oboe3.png,0.9,4,0.2,-0.15,left,21,2020-12-03_09h11.43.754,premup-three_ses-02_part-02_label-phase2,3.2.4,Win32,60,,,,,,,,,,,,,,,,,1,0,330,309,1,329,2,,,,,,
left,0.576000214,1,275,,,,,,,,,,,,,3,2,4,stim/24.jpeg,Instruments,1,stim/objects/Instruments/oboe3.png,0.9,1,-0.2,0.15,left,21,2020-12-03_09h11.43.754,premup-three_ses-02_part-02_label-phase2,3.2.4,Win32,60,,,,,,,,,,,,,,,,,1,0,330,289,1,329,2,,,,,,
right,0.692000151,1,276,,,,,,,,,,,,,2,5,2,stim/52.jpeg,HouseObjects,2,stim/objects/HouseObjects/ironingboard3.png,0.7,3,-0.2,-0.15,right,21,2020-12-03_09h11.43.754,premup-three_ses-02_part-02_label-phase2,3.2.4,Win32,60,,,,,,,,,,,,,,,,,1,0,330,73,1,329,2,,,,,,
right,0.649000168,0,277,,,,,,,,,,,,,2,5,2,stim/52.jpeg,Instruments,1,stim/objects/Instruments/accordion4.png,0.3,1,-0.2,0.15,left,21,2020-12-03_09h11.43.754,premup-three_ses-02_part-02_label-phase2,3.2.4,Win32,60,,,,,,,,,,,,,,,,,1,0,330,65,1,329,1,,,,,,
left,0.520000219,1,278,,,,,,,,,,,,,3,2,3,stim/23.jpeg,Instruments,1,stim/objects/Instruments/musicsheet3.png,0.9,4,0.2,-0.15,left,21,2020-12-03_09h11.43.754,premup-three_ses-02_part-02_label-phase2,3.2.4,Win32,60,,,,,,,,,,,,,,,,,1,0,330,252,1,329,2,,,,,,
right,0.55700016,1,279,,,,,,,,,,,,,3,1,1,stim/11.jpeg,HouseObjects,2,stim/objects/HouseObjects/pitcher3.png,0.9,2,0.2,0.15,right,21,2020-12-03_09h11.43.754,premup-three_ses-02_part-02_label-phase2,3.2.4,Win32,60,,,,,,,,,,,,,,,,,1,0,330,154,1,329,2,,,,,,
right,0.507000208,0,280,,,,,,,,,,,,,3,2,4,stim/24.jpeg,Instruments,1,stim/objects/Instruments/marimba3.png,0.9,4,0.2,-0.15,left,21,2020-12-03_09h11.43.754,premup-three_ses-02_part-02_label-phase2,3.2.4,Win32,60,,,,,,,,,,,,,,,,,1,0,330,285,1,329,2,,,,,,
right,0.725000143,1,281,,,,,,,,,,,,,2,5,2,stim/52.jpeg,HouseObjects,2,stim/objects/HouseObjects/basket4.png,0.7,2,0.2,0.15,right,21,2020-12-03_09h11.43.754,premup-three_ses-02_part-02_label-phase2,3.2.4,Win32,60,,,,,,,,,,,,,,,,,1,0,330,93,1,329,1,,,,,,
right,0.751000166,1,282,,,,,,,,,,,,,3,1,3,stim/13.jpeg,HouseObjects,2,stim/objects/HouseObjects/lintroller3.png,0.9,2,0.2,0.15,right,21,2020-12-03_09h11.43.754,premup-three_ses-02_part-02_label-phase2,3.2.4,Win32,60,,,,,,,,,,,,,,,,,1,0,330,196,1,329,2,,,,,,
right,0.851000071,1,283,,,,,,,,,,,,,3,1,4,stim/14.jpeg,HouseObjects,2,stim/objects/HouseObjects/lintroller3.png,0.9,1,-0.2,0.15,right,21,2020-12-03_09h11.43.754,premup-three_ses-02_part-02_label-phase2,3.2.4,Win32,60,,,,,,,,,,,,,,,,,1,0,330,201,1,329,2,,,,,,
left,0.546000004,1,284,,,,,,,,,,,,,2,6,4,stim/64.jpeg,Instruments,1,stim/objects/Instruments/cornet4.png,0.7,1,-0.2,0.15,left,21,2020-12-03_09h11.43.754,premup-three_ses-02_part-02_label-phase2,3.2.4,Win32,60,,,,,,,,,,,,,,,,,1,0,330,114,1,329,1,,,,,,
left,0.586000204,1,285,,,,,,,,,,,,,3,2,3,stim/23.jpeg,Instruments,1,stim/objects/Instruments/marimba3.png,0.9,4,0.2,-0.15,left,21,2020-12-03_09h11.43.754,premup-three_ses-02_part-02_label-phase2,3.2.4,Win32,60,,,,,,,,,,,,,,,,,1,0,330,260,1,329,2,,,,,,
right,0.651000023,1,286,,,,,,,,,,,,,3,1,1,stim/11.jpeg,HouseObjects,2,stim/objects/HouseObjects/match3.png,0.9,1,-0.2,0.15,right,21,2020-12-03_09h11.43.754,premup-three_ses-02_part-02_label-phase2,3.2.4,Win32,60,,,,,,,,,,,,,,,,,1,0,330,162,1,329,2,,,,,,
left,0.565000296,0,287,,,,,,,,,,,,,2,6,3,stim/63.jpeg,HouseObjects,2,stim/objects/HouseObjects/bottle4.png,0.3,2,0.2,0.15,right,21,2020-12-03_09h11.43.754,premup-three_ses-02_part-02_label-phase2,3.2.4,Win32,60,,,,,,,,,,,,,,,,,1,0,330,121,1,329,1,,,,,,
right,0.525000095,1,288,,,,,,,,,,,,,3,1,2,stim/12.jpeg,HouseObjects,2,stim/objects/HouseObjects/knife3.png,0.9,1,-0.2,0.15,right,21,2020-12-03_09h11.43.754,premup-three_ses-02_part-02_label-phase2,3.2.4,Win32,60,,,,,,,,,,,,,,,,,1,0,330,175,1,329,2,,,,,,
right,0.636000156,1,289,,,,,,,,,,,,,3,1,2,stim/12.jpeg,HouseObjects,2,stim/objects/HouseObjects/pan3.png,0.9,1,-0.2,0.15,right,21,2020-12-03_09h11.43.754,premup-three_ses-02_part-02_label-phase2,3.2.4,Win32,60,,,,,,,,,,,,,,,,,1,0,330,183,1,329,2,,,,,,
left,0.617000103,1,290,,,,,,,,,,,,,3,2,1,stim/21.jpeg,Instruments,1,stim/objects/Instruments/musicstand3.png,0.9,3,-0.2,-0.15,left,21,2020-12-03_09h11.43.754,premup-three_ses-02_part-02_label-phase2,3.2.4,Win32,60,,,,,,,,,,,,,,,,,1,0,330,278,1,329,2,,,,,,
right,0.605000019,0,291,,,,,,,,,,,,,3,2,1,stim/21.jpeg,Instruments,1,stim/objects/Instruments/metronome3.png,0.9,4,0.2,-0.15,left,21,2020-12-03_09h11.43.754,premup-three_ses-02_part-02_label-phase2,3.2.4,Win32,60,,,,,,,,,,,,,,,,,1,0,330,246,1,329,2,,,,,,
right,0.558000088,1,292,,,,,,,,,,,,,3,1,4,stim/14.jpeg,HouseObjects,2,stim/objects/HouseObjects/match3.png,0.9,3,-0.2,-0.15,right,21,2020-12-03_09h11.43.754,premup-three_ses-02_part-02_label-phase2,3.2.4,Win32,60,,,,,,,,,,,,,,,,,1,0,330,177,1,329,2,,,,,,
left,0.553000212,0,293,,,,,,,,,,,,,3,2,3,stim/23.jpeg,HouseObjects,2,stim/objects/HouseObjects/saw4.png,0.1,2,0.2,0.15,right,21,2020-12-03_09h11.43.754,premup-three_ses-02_part-02_label-phase2,3.2.4,Win32,60,,,,,,,,,,,,,,,,,1,0,330,320,1,329,1,,,,,,
right,0.626000166,1,294,,,,,,,,,,,,,1,3,1,stim/31.jpeg,HouseObjects,2,stim/objects/HouseObjects/ballofstring3.png,0.5,3,-0.2,-0.15,right,21,2020-12-03_09h11.43.754,premup-three_ses-02_part-02_label-phase2,3.2.4,Win32,60,,,,,,,,,,,,,,,,,1,0,330,16,1,329,2,,,,,,
right,0.527000189,1,295,,,,,,,,,,,,,3,1,4,stim/14.jpeg,HouseObjects,2,stim/objects/HouseObjects/pitcher3.png,0.9,1,-0.2,0.15,right,21,2020-12-03_09h11.43.754,premup-three_ses-02_part-02_label-phase2,3.2.4,Win32,60,,,,,,,,,,,,,,,,,1,0,330,209,1,329,2,,,,,,
left,0.63100028,1,296,,,,,,,,,,,,,3,2,3,stim/23.jpeg,Instruments,1,stim/objects/Instruments/marimba3.png,0.9,3,-0.2,-0.15,left,21,2020-12-03_09h11.43.754,premup-three_ses-02_part-02_label-phase2,3.2.4,Win32,60,,,,,,,,,,,,,,,,,1,0,330,240,1,329,2,,,,,,
right,0.667000055,1,297,,,,,,,,,,,,,3,1,4,stim/14.jpeg,HouseObjects,2,stim/objects/HouseObjects/knife3.png,0.9,2,0.2,0.15,right,21,2020-12-03_09h11.43.754,premup-three_ses-02_part-02_label-phase2,3.2.4,Win32,60,,,,,,,,,,,,,,,,,1,0,330,205,1,329,2,,,,,,
left,0.47300005,1,298,,,,,,,,,,,,,3,2,1,stim/21.jpeg,Instruments,1,stim/objects/Instruments/musicsheet3.png,0.9,4,0.2,-0.15,left,21,2020-12-03_09h11.43.754,premup-three_ses-02_part-02_label-phase2,3.2.4,Win32,60,,,,,,,,,,,,,,,,,1,0,330,242,1,329,2,,,,,,
left,0.450000286,1,299,,,,,,,,,,,,,3,2,3,stim/23.jpeg,Instruments,1,stim/objects/Instruments/metronome3.png,0.9,4,0.2,-0.15,left,21,2020-12-03_09h11.43.754,premup-three_ses-02_part-02_label-phase2,3.2.4,Win32,60,,,,,,,,,,,,,,,,,1,0,330,276,1,329,2,,,,,,
right,0.476999998,1,300,,,,,,,,,,,,,3,1,2,stim/12.jpeg,HouseObjects,2,stim/objects/HouseObjects/pitcher3.png,0.9,2,0.2,0.15,right,21,2020-12-03_09h11.43.754,premup-three_ses-02_part-02_label-phase2,3.2.4,Win32,60,,,,,,,,,,,,,,,,,1,0,330,219,1,329,2,,,,,,
left,0.640000343,0,301,,,,,,,,,,,,,1,3,2,stim/32.jpeg,HouseObjects,2,stim/objects/HouseObjects/recyclingbin3.png,0.5,3,-0.2,-0.15,right,21,2020-12-03_09h11.43.754,premup-three_ses-02_part-02_label-phase2,3.2.4,Win32,60,,,,,,,,,,,,,,,,,1,0,330,25,1,329,1,,,,,,
left,0.514000177,1,302,,,,,,,,,,,,,3,2,4,stim/24.jpeg,Instruments,1,stim/objects/Instruments/musicstand3.png,0.9,3,-0.2,-0.15,left,21,2020-12-03_09h11.43.754,premup-three_ses-02_part-02_label-phase2,3.2.4,Win32,60,,,,,,,,,,,,,,,,,1,0,330,273,1,329,2,,,,,,
right,0.521000147,1,303,,,,,,,,,,,,,1,4,4,stim/44.jpeg,HouseObjects,2,stim/objects/HouseObjects/bottle3.png,0.5,2,0.2,0.15,right,21,2020-12-03_09h11.43.754,premup-three_ses-02_part-02_label-phase2,3.2.4,Win32,60,,,,,,,,,,,,,,,,,1,0,330,51,1,329,2,,,,,,
right,0.711000204,1,304,,,,,,,,,,,,,3,1,4,stim/14.jpeg,HouseObjects,2,stim/objects/HouseObjects/lintroller3.png,0.9,2,0.2,0.15,right,21,2020-12-03_09h11.43.754,premup-three_ses-02_part-02_label-phase2,3.2.4,Win32,60,,,,,,,,,,,,,,,,,1,0,330,161,1,329,2,,,,,,
right,0.611000299,1,305,,,,,,,,,,,,,3,1,3,stim/13.jpeg,HouseObjects,2,stim/objects/HouseObjects/match3.png,0.9,4,0.2,-0.15,right,21,2020-12-03_09h11.43.754,premup-three_ses-02_part-02_label-phase2,3.2.4,Win32,60,,,,,,,,,,,,,,,,,1,0,330,172,1,329,2,,,,,,
right,0.663000345,0,306,,,,,,,,,,,,,3,1,1,stim/11.jpeg,Instruments,1,stim/objects/Instruments/marimba4.png,0.1,4,0.2,-0.15,left,21,2020-12-03_09h11.43.754,premup-three_ses-02_part-02_label-phase2,3.2.4,Win32,60,,,,,,,,,,,,,,,,,1,0,330,130,1,329,1,,,,,,
right,0.414000273,0,307,,,,,,,,,,,,,2,5,4,stim/54.jpeg,Instruments,1,stim/objects/Instruments/vuvuzela3.png,0.3,4,0.2,-0.15,left,21,2020-12-03_09h11.43.754,premup-three_ses-02_part-02_label-phase2,3.2.4,Win32,60,,,,,,,,,,,,,,,,,1,0,330,63,1,329,1,,,,,,
right,0.673000097,1,308,,,,,,,,,,,,,3,1,3,stim/13.jpeg,HouseObjects,2,stim/objects/HouseObjects/pan3.png,0.9,3,-0.2,-0.15,right,21,2020-12-03_09h11.43.754,premup-three_ses-02_part-02_label-phase2,3.2.4,Win32,60,,,,,,,,,,,,,,,,,1,0,330,208,1,329,2,,,,,,
,,0,309,,,,,,,,,,,,,3,2,3,stim/23.jpeg,HouseObjects,2,stim/objects/HouseObjects/vacuumcleaner4.png,0.1,4,0.2,-0.15,right,21,2020-12-03_09h11.43.754,premup-three_ses-02_part-02_label-phase2,3.2.4,Win32,60,,,,,,,,,,,,,,,,,1,0,330,328,1,329,1,,,,,,
left,0.496000051,1,310,,,,,,,,,,,,,3,2,2,stim/22.jpeg,Instruments,1,stim/objects/Instruments/musicsheet3.png,0.9,3,-0.2,-0.15,left,21,2020-12-03_09h11.43.754,premup-three_ses-02_part-02_label-phase2,3.2.4,Win32,60,,,,,,,,,,,,,,,,,1,0,330,287,1,329,2,,,,,,
left,0.60800004,0,311,,,,,,,,,,,,,2,6,2,stim/62.jpeg,HouseObjects,2,stim/objects/HouseObjects/blender4.png,0.3,1,-0.2,0.15,right,21,2020-12-03_09h11.43.754,premup-three_ses-02_part-02_label-phase2,3.2.4,Win32,60,,,,,,,,,,,,,,,,,1,0,330,120,1,329,1,,,,,,
right,0.560000181,1,312,,,,,,,,,,,,,3,1,3,stim/13.jpeg,HouseObjects,2,stim/objects/HouseObjects/pan3.png,0.9,4,0.2,-0.15,right,21,2020-12-03_09h11.43.754,premup-three_ses-02_part-02_label-phase2,3.2.4,Win32,60,,,,,,,,,,,,,,,,,1,0,330,188,1,329,2,,,,,,
left,0.578999996,1,313,,,,,,,,,,,,,3,2,1,stim/21.jpeg,Instruments,1,stim/objects/Instruments/oboe3.png,0.9,1,-0.2,0.15,left,21,2020-12-03_09h11.43.754,premup-three_ses-02_part-02_label-phase2,3.2.4,Win32,60,,,,,,,,,,,,,,,,,1,0,330,274,1,329,2,,,,,,
left,0.484000206,0,314,,,,,,,,,,,,,3,2,1,stim/21.jpeg,HouseObjects,2,stim/objects/HouseObjects/sponge4.png,0.1,3,-0.2,-0.15,right,21,2020-12-03_09h11.43.754,premup-three_ses-02_part-02_label-phase2,3.2.4,Win32,60,,,,,,,,,,,,,,,,,1,0,330,322,1,329,1,,,,,,
right,0.601000309,1,315,,,,,,,,,,,,,2,5,3,stim/53.jpeg,HouseObjects,2,stim/objects/HouseObjects/key3.png,0.7,2,0.2,0.15,right,21,2020-12-03_09h11.43.754,premup-three_ses-02_part-02_label-phase2,3.2.4,Win32,60,,,,,,,,,,,,,,,,,1,0,330,74,1,329,2,,,,,,
left,0.789000273,0,316,,,,,,,,,,,,,1,3,1,stim/31.jpeg,HouseObjects,2,stim/objects/HouseObjects/ashtray3.png,0.5,4,0.2,-0.15,right,21,2020-12-03_09h11.43.754,premup-three_ses-02_part-02_label-phase2,3.2.4,Win32,60,,,,,,,,,,,,,,,,,1,0,330,20,1,329,2,,,,,,
right,0.630000114,1,317,,,,,,,,,,,,,3,1,2,stim/12.jpeg,HouseObjects,2,stim/objects/HouseObjects/lintroller3.png,0.9,4,0.2,-0.15,right,21,2020-12-03_09h11.43.754,premup-three_ses-02_part-02_label-phase2,3.2.4,Win32,60,,,,,,,,,,,,,,,,,1,0,330,191,1,329,2,,,,,,
right,0.548000097,1,318,,,,,,,,,,,,,1,4,1,stim/41.jpeg,HouseObjects,2,stim/objects/HouseObjects/broom3.png,0.5,4,0.2,-0.15,right,21,2020-12-03_09h11.43.754,premup-three_ses-02_part-02_label-phase2,3.2.4,Win32,60,,,,,,,,,,,,,,,,,1,0,330,52,1,329,2,,,,,,
right,0.562000275,0,319,,,,,,,,,,,,,3,1,2,stim/12.jpeg,Instruments,1,stim/objects/Instruments/metronome4.png,0.1,4,0.2,-0.15,left,21,2020-12-03_09h11.43.754,premup-three_ses-02_part-02_label-phase2,3.2.4,Win32,60,,,,,,,,,,,,,,,,,1,0,330,131,1,329,1,,,,,,
left,0.519000053,1,320,,,,,,,,,,,,,3,2,2,stim/22.jpeg,Instruments,1,stim/objects/Instruments/metronome3.png,0.9,1,-0.2,0.15,left,21,2020-12-03_09h11.43.754,premup-three_ses-02_part-02_label-phase2,3.2.4,Win32,60,,,,,,,,,,,,,,,,,1,0,330,271,1,329,2,,,,,,
left,0.521000147,1,321,,,,,,,,,,,,,3,2,4,stim/24.jpeg,Instruments,1,stim/objects/Instruments/marimba3.png,0.9,4,0.2,-0.15,left,21,2020-12-03_09h11.43.754,premup-three_ses-02_part-02_label-phase2,3.2.4,Win32,60,,,,,,,,,,,,,,,,,1,0,330,305,1,329,2,,,,,,
right,0.573000193,1,322,,,,,,,,,,,,,3,1,2,stim/12.jpeg,HouseObjects,2,stim/objects/HouseObjects/rubbergloves4.png,0.9,2,0.2,0.15,right,21,2020-12-03_09h11.43.754,premup-three_ses-02_part-02_label-phase2,3.2.4,Win32,60,,,,,,,,,,,,,,,,,1,0,330,227,1,329,1,,,,,,
left,0.498000145,0,323,,,,,,,,,,,,,1,3,2,stim/32.jpeg,HouseObjects,2,stim/objects/HouseObjects/ballofstring3.png,0.5,3,-0.2,-0.15,right,21,2020-12-03_09h11.43.754,premup-three_ses-02_part-02_label-phase2,3.2.4,Win32,60,,,,,,,,,,,,,,,,,1,0,330,21,1,329,2,,,,,,
right,0.602000237,0,324,,,,,,,,,,,,,1,4,1,stim/41.jpeg,Instruments,1,stim/objects/Instruments/speaker3.png,0.5,4,0.2,-0.15,left,21,2020-12-03_09h11.43.754,premup-three_ses-02_part-02_label-phase2,3.2.4,Win32,60,,,,,,,,,,,,,,,,,1,0,330,40,1,329,1,,,,,,
right,0.51300025,1,325,,,,,,,,,,,,,3,1,2,stim/12.jpeg,HouseObjects,2,stim/objects/HouseObjects/match3.png,0.9,1,-0.2,0.15,right,21,2020-12-03_09h11.43.754,premup-three_ses-02_part-02_label-phase2,3.2.4,Win32,60,,,,,,,,,,,,,,,,,1,0,330,207,1,329,2,,,,,,
left,0.539999962,1,326,,,,,,,,,,,,,3,2,4,stim/24.jpeg,Instruments,1,stim/objects/Instruments/marimba3.png,0.9,1,-0.2,0.15,left,21,2020-12-03_09h11.43.754,premup-three_ses-02_part-02_label-phase2,3.2.4,Win32,60,,,,,,,,,,,,,,,,,1,0,330,265,1,329,2,,,,,,
left,0.526000023,1,327,,,,,,,,,,,,,3,2,3,stim/23.jpeg,Instruments,1,stim/objects/Instruments/oboe3.png,0.9,2,0.2,0.15,left,21,2020-12-03_09h11.43.754,premup-three_ses-02_part-02_label-phase2,3.2.4,Win32,60,,,,,,,,,,,,,,,,,1,0,330,284,1,329,2,,,,,,
left,0.652000189,1,328,,,,,,,,,,,,,2,6,4,stim/64.jpeg,Instruments,1,stim/objects/Instruments/keyboard3.png,0.7,2,0.2,0.15,left,21,2020-12-03_09h11.43.754,premup-three_ses-02_part-02_label-phase2,3.2.4,Win32,60,,,,,,,,,,,,,,,,,1,0,330,102,1,329,2,,,,,,
right,0.49600029,1,329,,,,,,,,,,,,,1,4,1,stim/41.jpeg,HouseObjects,2,stim/objects/HouseObjects/scale3.png,0.5,1,-0.2,0.15,right,21,2020-12-03_09h11.43.754,premup-three_ses-02_part-02_label-phase2,3.2.4,Win32,60,,,,,,,,,,,,,,,,,1,0,330,56,1,329,1,,,,,,
left,0.506999969,0,330,,,,,,,,,,,,,2,6,3,stim/63.jpeg,HouseObjects,2,stim/objects/HouseObjects/key4.png,0.3,1,-0.2,0.15,right,21,2020-12-03_09h11.43.754,premup-three_ses-02_part-02_label-phase2,3.2.4,Win32,60,,,,,,,,,,,,,,,,,1,0,330,129,1,329,1,,,,,,
left,0.569000006,1,331,,,,,,,,,,,,,3,2,1,stim/21.jpeg,Instruments,1,stim/objects/Instruments/marimba3.png,0.9,2,0.2,0.15,left,21,2020-12-03_09h11.43.754,premup-three_ses-02_part-02_label-phase2,3.2.4,Win32,60,,,,,,,,,,,,,,,,,1,0,330,250,1,329,2,,,,,,
right,0.70600009,0,332,,,,,,,,,,,,,3,1,3,stim/13.jpeg,Instruments,1,stim/objects/Instruments/musicsheet4.png,0.1,1,-0.2,0.15,left,21,2020-12-03_09h11.43.754,premup-three_ses-02_part-02_label-phase2,3.2.4,Win32,60,,,,,,,,,,,,,,,,,1,0,330,132,1,329,1,,,,,,
left,0.657999992,1,333,,,,,,,,,,,,,1,4,1,stim/41.jpeg,Instruments,1,stim/objects/Instruments/trombone3.png,0.5,3,-0.2,-0.15,left,21,2020-12-03_09h11.43.754,premup-three_ses-02_part-02_label-phase2,3.2.4,Win32,60,,,,,,,,,,,,,,,,,1,0,330,44,1,329,1,,,,,,
right,0.481000185,0,334,,,,,,,,,,,,,3,2,2,stim/22.jpeg,Instruments,1,stim/objects/Instruments/trumpet4.png,0.9,4,0.2,-0.15,left,21,2020-12-03_09h11.43.754,premup-three_ses-02_part-02_label-phase2,3.2.4,Win32,60,,,,,,,,,,,,,,,,,1,0,330,315,1,329,1,,,,,,
right,0.81400013,0,335,,,,,,,,,,,,,3,1,4,stim/14.jpeg,Instruments,1,stim/objects/Instruments/musicstand4.png,0.1,2,0.2,0.15,left,21,2020-12-03_09h11.43.754,premup-three_ses-02_part-02_label-phase2,3.2.4,Win32,60,,,,,,,,,,,,,,,,,1,0,330,133,1,329,1,,,,,,
left,0.718000174,1,336,,,,,,,,,,,,,1,4,4,stim/44.jpeg,Instruments,1,stim/objects/Instruments/bassguitar3.png,0.5,2,0.2,0.15,left,21,2020-12-03_09h11.43.754,premup-three_ses-02_part-02_label-phase2,3.2.4,Win32,60,,,,,,,,,,,,,,,,,1,0,330,35,1,329,2,,,,,,
left,0.546000242,0,337,,,,,,,,,,,,,3,1,2,stim/12.jpeg,HouseObjects,2,stim/objects/HouseObjects/lintroller3.png,0.9,3,-0.2,-0.15,right,21,2020-12-03_09h11.43.754,premup-three_ses-02_part-02_label-phase2,3.2.4,Win32,60,,,,,,,,,,,,,,,,,1,0,330,171,1,329,2,,,,,,
right,0.549000263,1,338,,,,,,,,,,,,,3,1,4,stim/14.jpeg,HouseObjects,2,stim/objects/HouseObjects/match3.png,0.9,2,0.2,0.15,right,21,2020-12-03_09h11.43.754,premup-three_ses-02_part-02_label-phase2,3.2.4,Win32,60,,,,,,,,,,,,,,,,,1,0,330,157,1,329,2,,,,,,
left,0.709000111,1,339,,,,,,,,,,,,,1,4,4,stim/44.jpeg,Instruments,1,stim/objects/Instruments/cello3.png,0.5,3,-0.2,-0.15,left,21,2020-12-03_09h11.43.754,premup-three_ses-02_part-02_label-phase2,3.2.4,Win32,60,,,,,,,,,,,,,,,,,1,0,330,31,1,329,2,,,,,,
right,0.544000149,0,340,,,,,,,,,,,,,3,2,2,stim/22.jpeg,Instruments,1,stim/objects/Instruments/metronome3.png,0.9,3,-0.2,-0.15,left,21,2020-12-03_09h11.43.754,premup-three_ses-02_part-02_label-phase2,3.2.4,Win32,60,,,,,,,,,,,,,,,,,1,0,330,231,1,329,2,,,,,,
left,0.605999947,1,341,,,,,,,,,,,,,2,6,1,stim/61.jpeg,Instruments,1,stim/objects/Instruments/cymbal4.png,0.7,1,-0.2,0.15,left,21,2020-12-03_09h11.43.754,premup-three_ses-02_part-02_label-phase2,3.2.4,Win32,60,,,,,,,,,,,,,,,,,1,0,330,115,1,329,1,,,,,,
left,0.812000275,1,342,,,,,,,,,,,,,1,3,4,stim/34.jpeg,Instruments,1,stim/objects/Instruments/pipepiano3.png,0.5,2,0.2,0.15,left,21,2020-12-03_09h11.43.754,premup-three_ses-02_part-02_label-phase2,3.2.4,Win32,60,,,,,,,,,,,,,,,,,1,0,330,11,1,329,1,,,,,,
right,0.628000259,0,343,,,,,,,,,,,,,1,3,1,stim/31.jpeg,Instruments,1,stim/objects/Instruments/record3.png,0.5,4,0.2,-0.15,left,21,2020-12-03_09h11.43.754,premup-three_ses-02_part-02_label-phase2,3.2.4,Win32,60,,,,,,,,,,,,,,,,,1,0,330,12,1,329,1,,,,,,
right,0.795000315,1,344,,,,,,,,,,,,,3,1,1,stim/11.jpeg,HouseObjects,2,stim/objects/HouseObjects/pan3.png,0.9,2,0.2,0.15,right,21,2020-12-03_09h11.43.754,premup-three_ses-02_part-02_label-phase2,3.2.4,Win32,60,,,,,,,,,,,,,,,,,1,0,330,178,1,329,2,,,,,,
right,0.475000143,1,345,,,,,,,,,,,,,3,1,4,stim/14.jpeg,HouseObjects,2,stim/objects/HouseObjects/lintroller4.png,0.9,4,0.2,-0.15,right,21,2020-12-03_09h11.43.754,premup-three_ses-02_part-02_label-phase2,3.2.4,Win32,60,,,,,,,,,,,,,,,,,1,0,330,221,1,329,1,,,,,,
left,0.565000057,1,346,,,,,,,,,,,,,3,2,3,stim/23.jpeg,Instruments,1,stim/objects/Instruments/marimba3.png,0.9,2,0.2,0.15,left,21,2020-12-03_09h11.43.754,premup-three_ses-02_part-02_label-phase2,3.2.4,Win32,60,,,,,,,,,,,,,,,,,1,0,330,280,1,329,2,,,,,,
left,0.565000057,0,347,,,,,,,,,,,,,3,1,1,stim/11.jpeg,HouseObjects,2,stim/objects/HouseObjects/knife3.png,0.9,3,-0.2,-0.15,right,21,2020-12-03_09h11.43.754,premup-three_ses-02_part-02_label-phase2,3.2.4,Win32,60,,,,,,,,,,,,,,,,,1,0,330,210,1,329,2,,,,,,
right,0.646000147,1,348,,,,,,,,,,,,,1,4,3,stim/43.jpeg,HouseObjects,2,stim/objects/HouseObjects/bottle3.png,0.5,4,0.2,-0.15,right,21,2020-12-03_09h11.43.754,premup-three_ses-02_part-02_label-phase2,3.2.4,Win32,60,,,,,,,,,,,,,,,,,1,0,330,46,1,329,2,,,,,,
left,0.585000038,1,349,,,,,,,,,,,,,3,2,1,stim/21.jpeg,Instruments,1,stim/objects/Instruments/marimba3.png,0.9,3,-0.2,-0.15,left,21,2020-12-03_09h11.43.754,premup-three_ses-02_part-02_label-phase2,3.2.4,Win32,60,,,,,,,,,,,,,,,,,1,0,330,230,1,329,2,,,,,,
right,0.663000107,1,350,,,,,,,,,,,,,3,1,2,stim/12.jpeg,HouseObjects,2,stim/objects/HouseObjects/match3.png,0.9,2,0.2,0.15,right,21,2020-12-03_09h11.43.754,premup-three_ses-02_part-02_label-phase2,3.2.4,Win32,60,,,,,,,,,,,,,,,,,1,0,330,167,1,329,2,,,,,,
,,0,351,,,,,,,,,,,,,3,1,1,stim/11.jpeg,HouseObjects,2,stim/objects/HouseObjects/pitcher3.png,0.9,1,-0.2,0.15,right,21,2020-12-03_09h11.43.754,premup-three_ses-02_part-02_label-phase2,3.2.4,Win32,60,,,,,,,,,,,,,,,,,1,0,330,194,1,329,2,,,,,,
left,0.765000105,0,352,,,,,,,,,,,,,1,3,1,stim/31.jpeg,HouseObjects,2,stim/objects/HouseObjects/rug3.png,0.5,4,0.2,-0.15,right,21,2020-12-03_09h11.43.754,premup-three_ses-02_part-02_label-phase2,3.2.4,Win32,60,,,,,,,,,,,,,,,,,1,0,330,28,1,329,1,,,,,,
left,0.481000185,1,353,,,,,,,,,,,,,3,2,4,stim/24.jpeg,Instruments,1,stim/objects/Instruments/triangle4.png,0.9,3,-0.2,-0.15,left,21,2020-12-03_09h11.43.754,premup-three_ses-02_part-02_label-phase2,3.2.4,Win32,60,,,,,,,,,,,,,,,,,1,0,330,313,1,329,1,,,,,,
left,0.707000017,0,354,,,,,,,,,,,,,3,1,2,stim/12.jpeg,HouseObjects,2,stim/objects/HouseObjects/pan3.png,0.9,3,-0.2,-0.15,right,21,2020-12-03_09h11.43.754,premup-three_ses-02_part-02_label-phase2,3.2.4,Win32,60,,,,,,,,,,,,,,,,,1,0,330,203,1,329,2,,,,,,
left,0.529000044,1,355,,,,,,,,,,,,,2,6,1,stim/61.jpeg,Instruments,1,stim/objects/Instruments/keyboard3.png,0.7,1,-0.2,0.15,left,21,2020-12-03_09h11.43.754,premup-three_ses-02_part-02_label-phase2,3.2.4,Win32,60,,,,,,,,,,,,,,,,,1,0,330,107,1,329,2,,,,,,
right,0.528000116,0,356,,,,,,,,,,,,,3,1,2,stim/12.jpeg,Instruments,1,stim/objects/Instruments/saxophone4.png,0.1,4,0.2,-0.15,left,21,2020-12-03_09h11.43.754,premup-three_ses-02_part-02_label-phase2,3.2.4,Win32,60,,,,,,,,,,,,,,,,,1,0,330,139,1,329,1,,,,,,
right,0.592000246,0,357,,,,,,,,,,,,,3,2,2,stim/22.jpeg,Instruments,1,stim/objects/Instruments/xylophone4.png,0.9,4,0.2,-0.15,left,21,2020-12-03_09h11.43.754,premup-three_ses-02_part-02_label-phase2,3.2.4,Win32,60,,,,,,,,,,,,,,,,,1,0,330,319,1,329,1,,,,,,
left,0.517000198,0,358,,,,,,,,,,,,,3,1,2,stim/12.jpeg,HouseObjects,2,stim/objects/HouseObjects/pitcher3.png,0.9,2,0.2,0.15,right,21,2020-12-03_09h11.43.754,premup-three_ses-02_part-02_label-phase2,3.2.4,Win32,60,,,,,,,,,,,,,,,,,1,0,330,159,1,329,2,,,,,,
left,0.553000212,1,359,,,,,,,,,,,,,3,2,4,stim/24.jpeg,Instruments,1,stim/objects/Instruments/musicsheet3.png,0.9,2,0.2,0.15,left,21,2020-12-03_09h11.43.754,premup-three_ses-02_part-02_label-phase2,3.2.4,Win32,60,,,,,,,,,,,,,,,,,1,0,330,257,1,329,2,,,,,,
right,0.894000292,0,360,,,,,,,,,,,,,3,2,3,stim/23.jpeg,Instruments,1,stim/objects/Instruments/tuba4.png,0.9,3,-0.2,-0.15,left,21,2020-12-03_09h11.43.754,premup-three_ses-02_part-02_label-phase2,3.2.4,Win32,60,,,,,,,,,,,,,,,,,1,0,330,316,1,329,1,,,,,,
right,0.447000265,1,361,,,,,,,,,,,,,3,1,1,stim/11.jpeg,HouseObjects,2,stim/objects/HouseObjects/pan3.png,0.9,4,0.2,-0.15,right,21,2020-12-03_09h11.43.754,premup-three_ses-02_part-02_label-phase2,3.2.4,Win32,60,,,,,,,,,,,,,,,,,1,0,330,158,1,329,2,,,,,,
left,0.512000322,1,362,,,,,,,,,,,,,3,2,4,stim/24.jpeg,Instruments,1,stim/objects/Instruments/violin4.png,0.9,3,-0.2,-0.15,left,21,2020-12-03_09h11.43.754,premup-three_ses-02_part-02_label-phase2,3.2.4,Win32,60,,,,,,,,,,,,,,,,,1,0,330,317,1,329,1,,,,,,
left,0.517000198,1,363,,,,,,,,,,,,,2,6,4,stim/64.jpeg,Instruments,1,stim/objects/Instruments/laud3.png,0.7,3,-0.2,-0.15,left,21,2020-12-03_09h11.43.754,premup-three_ses-02_part-02_label-phase2,3.2.4,Win32,60,,,,,,,,,,,,,,,,,1,0,330,98,1,329,2,,,,,,
right,0.539000273,1,364,,,,,,,,,,,,,2,5,2,stim/52.jpeg,HouseObjects,2,stim/objects/HouseObjects/wateringcan3.png,0.7,4,0.2,-0.15,right,21,2020-12-03_09h11.43.754,premup-three_ses-02_part-02_label-phase2,3.2.4,Win32,60,,,,,,,,,,,,,,,,,1,0,330,89,1,329,1,,,,,,
left,0.460000277,0,365,,,,,,,,,,,,,3,1,1,stim/11.jpeg,HouseObjects,2,stim/objects/HouseObjects/knife3.png,0.9,3,-0.2,-0.15,right,21,2020-12-03_09h11.43.754,premup-three_ses-02_part-02_label-phase2,3.2.4,Win32,60,,,,,,,,,,,,,,,,,1,0,330,150,1,329,2,,,,,,
right,0.514000177,1,366,,,,,,,,,,,,,3,1,4,stim/14.jpeg,HouseObjects,2,stim/objects/HouseObjects/match3.png,0.9,2,0.2,0.15,right,21,2020-12-03_09h11.43.754,premup-three_ses-02_part-02_label-phase2,3.2.4,Win32,60,,,,,,,,,,,,,,,,,1,0,330,217,1,329,2,,,,,,
right,0.509000063,1,367,,,,,,,,,,,,,1,4,4,stim/44.jpeg,HouseObjects,2,stim/objects/HouseObjects/broom3.png,0.5,4,0.2,-0.15,right,21,2020-12-03_09h11.43.754,premup-three_ses-02_part-02_label-phase2,3.2.4,Win32,60,,,,,,,,,,,,,,,,,1,0,330,47,1,329,2,,,,,,
right,0.618000031,0,368,,,,,,,,,,,,,2,5,1,stim/51.jpeg,Instruments,1,stim/objects/Instruments/xylophone3.png,0.3,1,-0.2,0.15,left,21,2020-12-03_09h11.43.754,premup-three_ses-02_part-02_label-phase2,3.2.4,Win32,60,,,,,,,,,,,,,,,,,1,0,330,64,1,329,1,,,,,,
right,0.859000206,0,369,,,,,,,,,,,,,1,4,2,stim/42.jpeg,Instruments,1,stim/objects/Instruments/clarinet3.png,0.5,2,0.2,0.15,left,21,2020-12-03_09h11.43.754,premup-three_ses-02_part-02_label-phase2,3.2.4,Win32,60,,,,,,,,,,,,,,,,,1,0,330,33,1,329,2,,,,,,
,,0,370,,,,,,,,,,,,,3,1,1,stim/11.jpeg,HouseObjects,2,stim/objects/HouseObjects/lintroller3.png,0.9,3,-0.2,-0.15,right,21,2020-12-03_09h11.43.754,premup-three_ses-02_part-02_label-phase2,3.2.4,Win32,60,,,,,,,,,,,,,,,,,1,0,330,186,1,329,2,,,,,,
left,0.572000265,1,371,,,,,,,,,,,,,2,6,4,stim/64.jpeg,Instruments,1,stim/objects/Instruments/doublebass3.png,0.7,3,-0.2,-0.15,left,21,2020-12-03_09h11.43.754,premup-three_ses-02_part-02_label-phase2,3.2.4,Win32,60,,,,,,,,,,,,,,,,,1,0,330,106,1,329,2,,,,,,
left,0.57400012,1,372,,,,,,,,,,,,,3,2,1,stim/21.jpeg,Instruments,1,stim/objects/Instruments/vuvuzela4.png,0.9,2,0.2,0.15,left,21,2020-12-03_09h11.43.754,premup-three_ses-02_part-02_label-phase2,3.2.4,Win32,60,,,,,,,,,,,,,,,,,1,0,330,318,1,329,1,,,,,,
left,0.527000189,1,373,,,,,,,,,,,,,3,2,3,stim/23.jpeg,Instruments,1,stim/objects/Instruments/musicsheet3.png,0.9,1,-0.2,0.15,left,21,2020-12-03_09h11.43.754,premup-three_ses-02_part-02_label-phase2,3.2.4,Win32,60,,,,,,,,,,,,,,,,,1,0,330,292,1,329,2,,,,,,
left,0.563000202,1,374,,,,,,,,,,,,,1,3,3,stim/33.jpeg,Instruments,1,stim/objects/Instruments/saxophone3.png,0.5,3,-0.2,-0.15,left,21,2020-12-03_09h11.43.754,premup-three_ses-02_part-02_label-phase2,3.2.4,Win32,60,,,,,,,,,,,,,,,,,1,0,330,14,1,329,1,,,,,,
right,0.475000143,0,375,,,,,,,,,,,,,1,4,3,stim/43.jpeg,Instruments,1,stim/objects/Instruments/bassguitar3.png,0.5,4,0.2,-0.15,left,21,2020-12-03_09h11.43.754,premup-three_ses-02_part-02_label-phase2,3.2.4,Win32,60,,,,,,,,,,,,,,,,,1,0,330,30,1,329,2,,,,,,
right,0.664000034,1,376,,,,,,,,,,,,,2,5,1,stim/51.jpeg,HouseObjects,2,stim/objects/HouseObjects/key3.png,0.7,3,-0.2,-0.15,right,21,2020-12-03_09h11.43.754,premup-three_ses-02_part-02_label-phase2,3.2.4,Win32,60,,,,,,,,,,,,,,,,,1,0,330,84,1,329,2,,,,,,
left,0.571000099,1,377,,,,,,,,,,,,,3,2,3,stim/23.jpeg,Instruments,1,stim/objects/Instruments/musicsheet3.png,0.9,1,-0.2,0.15,left,21,2020-12-03_09h11.43.754,premup-three_ses-02_part-02_label-phase2,3.2.4,Win32,60,,,,,,,,,,,,,,,,,1,0,330,272,1,329,2,,,,,,
right,0.533000231,1,378,,,,,,,,,,,,,3,1,4,stim/14.jpeg,HouseObjects,2,stim/objects/HouseObjects/pan3.png,0.9,3,-0.2,-0.15,right,21,2020-12-03_09h11.43.754,premup-three_ses-02_part-02_label-phase2,3.2.4,Win32,60,,,,,,,,,,,,,,,,,1,0,330,193,1,329,2,,,,,,
left,0.641000271,1,379,,,,,,,,,,,,,3,2,3,stim/23.jpeg,Instruments,1,stim/objects/Instruments/oboe3.png,0.9,3,-0.2,-0.15,left,21,2020-12-03_09h11.43.754,premup-three_ses-02_part-02_label-phase2,3.2.4,Win32,60,,,,,,,,,,,,,,,,,1,0,330,244,1,329,2,,,,,,
right,0.532999992,1,380,,,,,,,,,,,,,3,1,1,stim/11.jpeg,HouseObjects,2,stim/objects/HouseObjects/match3.png,0.9,1,-0.2,0.15,right,21,2020-12-03_09h11.43.754,premup-three_ses-02_part-02_label-phase2,3.2.4,Win32,60,,,,,,,,,,,,,,,,,1,0,330,142,1,329,2,,,,,,
