id_acc,key_resp_id.keys,key_resp_id.rt,key_resp_conf.keys,key_resp_conf.rt,assoc_acc,key_resp_assoc.keys,key_resp_assoc.rt,loc_acc,key_resp_loc.keys,key_resp_loc.rt,task_innerloop.thisRepN,task_innerloop.thisTrialN,task_innerloop.thisN,task_innerloop.thisIndex,task_innerloop.ran,task_innerloop.order,context_type,object_cat,PE_level,OvsN,obj_file,scn_file,corr_scn_cat,assoc_file,corr_scn_inst,corr_loc,participant,date,expName,psychopyVersion,OS,frameRate
1,right,2.726999998,,,0,,,0,,,1,0,200,161,1,199,0,1,0,2,stim/objects/Instruments/tuba.png,,0,stim/0.png,0,0,21,2020-12-03_10h07.12.414,premup-three_ses-02_part-03_label-phase3,3.2.4,Win32,60
1,left,0.987999916,4,3.029000044,0,1,8.905999899,0,2,3.264999866,1,0,200,52,1,199,2,2,0.3,1,stim/objects/HouseObjects/broom4.png,stim/64.jpeg,6,stim/6.png,4,4,21,2020-12-03_10h07.12.414,premup-three_ses-02_part-03_label-phase3,3.2.4,Win32,60
1,right,1.586999893,,,0,,,0,,,1,0,200,196,1,199,0,2,0,2,stim/objects/HouseObjects/clothespin2.png,,0,stim/0.png,0,0,21,2020-12-03_10h07.12.414,premup-three_ses-02_part-03_label-phase3,3.2.4,Win32,60
1,left,0.937999964,4,1.512000084,0,2,3.519999981,0,1,1.694000006,1,0,200,35,1,199,2,2,0.7,1,stim/objects/HouseObjects/ashtray4.png,stim/53.jpeg,5,stim/5.png,3,3,21,2020-12-03_10h07.12.414,premup-three_ses-02_part-03_label-phase3,3.2.4,Win32,60
1,right,1.544000149,4,3.828000069,0,2,9.447999954,0,3,1.193000078,1,0,200,29,1,199,2,1,0.3,1,stim/objects/Instruments/bassdrum4.png,stim/52.jpeg,5,stim/5.png,2,2,21,2020-12-03_10h07.12.414,premup-three_ses-02_part-03_label-phase3,3.2.4,Win32,60
1,left,2.240999937,,,0,,,0,,,1,0,200,160,1,199,0,1,0,2,stim/objects/Instruments/trumpet.png,,0,stim/0.png,0,0,21,2020-12-03_10h07.12.414,premup-three_ses-02_part-03_label-phase3,3.2.4,Win32,60
1,right,2.874000072,,,0,,,0,,,1,0,200,107,1,199,0,1,0,2,stim/objects/Instruments/chime.png,,0,stim/0.png,0,0,21,2020-12-03_10h07.12.414,premup-three_ses-02_part-03_label-phase3,3.2.4,Win32,60
1,right,2.36500001,,,0,,,0,,,1,0,200,193,1,199,0,2,0,2,stim/objects/HouseObjects/bucket2.png,,0,stim/0.png,0,0,21,2020-12-03_10h07.12.414,premup-three_ses-02_part-03_label-phase3,3.2.4,Win32,60
1,left,0.826000214,4,1.236000061,0,3,8.371000051,0,3,4.669000149,1,0,200,14,1,199,1,2,0.5,1,stim/objects/Instruments/trombone3.png,stim/41.jpeg,4,stim/4.png,1,3,21,2020-12-03_10h07.12.414,premup-three_ses-02_part-03_label-phase3,3.2.4,Win32,60
1,left,2.239000082,,,0,,,0,,,1,0,200,141,1,199,0,1,0,2,stim/objects/Instruments/pipepiano.png,,0,stim/0.png,0,0,21,2020-12-03_10h07.12.414,premup-three_ses-02_part-03_label-phase3,3.2.4,Win32,60
1,right,1.09100008,,,0,,,0,,,1,0,200,144,1,199,0,1,0,2,stim/objects/Instruments/saxophone.png,,0,stim/0.png,0,0,21,2020-12-03_10h07.12.414,premup-three_ses-02_part-03_label-phase3,3.2.4,Win32,60
1,left,0.758000135,,,0,,,0,,,1,0,200,121,1,199,0,1,0,2,stim/objects/Instruments/doublebass.png,,0,stim/0.png,0,0,21,2020-12-03_10h07.12.414,premup-three_ses-02_part-03_label-phase3,3.2.4,Win32,60
1,left,0.888000011,4,0.888999939,0,2,2.150000095,0,1,0.638000011,1,0,200,25,1,199,2,1,0.3,1,stim/objects/Instruments/accordion4.png,stim/52.jpeg,5,stim/5.png,2,1,21,2020-12-03_10h07.12.414,premup-three_ses-02_part-03_label-phase3,3.2.4,Win32,60
1,right,0.99000001,,,0,,,0,,,1,0,200,130,1,199,0,2,0,2,stim/objects/HouseObjects/clothesdryingrack.png,,0,stim/0.png,0,0,21,2020-12-03_10h07.12.414,premup-three_ses-02_part-03_label-phase3,3.2.4,Win32,60
1,left,1.065000057,4,1.195999861,0,2,7.81400013,0,3,2.56400013,1,0,200,7,1,199,1,1,0.5,1,stim/objects/HouseObjects/rubbergloves3.png,stim/34.jpeg,3,stim/3.png,4,3,21,2020-12-03_10h07.12.414,premup-three_ses-02_part-03_label-phase3,3.2.4,Win32,60
1,right,2.006999969,,,0,,,0,,,1,0,200,128,1,199,0,1,0,2,stim/objects/Instruments/musicstand.png,,0,stim/0.png,0,0,21,2020-12-03_10h07.12.414,premup-three_ses-02_part-03_label-phase3,3.2.4,Win32,60
1,left,1.203999996,,,0,,,0,,,1,0,200,112,1,199,0,2,0,2,stim/objects/HouseObjects/barbecuelighter.png,,0,stim/0.png,0,0,21,2020-12-03_10h07.12.414,premup-three_ses-02_part-03_label-phase3,3.2.4,Win32,60
1,right,0.910999775,,,0,,,0,,,1,0,200,175,1,199,0,2,0,2,stim/objects/HouseObjects/ashtray2.png,,0,stim/0.png,0,0,21,2020-12-03_10h07.12.414,premup-three_ses-02_part-03_label-phase3,3.2.4,Win32,60
1,right,1.149999857,,,0,,,0,,,1,0,200,153,1,199,0,2,0,2,stim/objects/HouseObjects/rug.png,,0,stim/0.png,0,0,21,2020-12-03_10h07.12.414,premup-three_ses-02_part-03_label-phase3,3.2.4,Win32,60
1,left,1.339999914,,,0,,,0,,,1,0,200,123,1,199,0,1,0,2,stim/objects/Instruments/laud.png,,0,stim/0.png,0,0,21,2020-12-03_10h07.12.414,premup-three_ses-02_part-03_label-phase3,3.2.4,Win32,60
1,left,1.263999939,,,0,,,0,,,1,0,200,165,1,199,0,1,0,2,stim/objects/Instruments/accordion2.png,,0,stim/0.png,0,0,21,2020-12-03_10h07.12.414,premup-three_ses-02_part-03_label-phase3,3.2.4,Win32,60
1,left,0.825000048,,,0,,,0,,,1,0,200,166,1,199,0,1,0,2,stim/objects/Instruments/acousticguitar2.png,,0,stim/0.png,0,0,21,2020-12-03_10h07.12.414,premup-three_ses-02_part-03_label-phase3,3.2.4,Win32,60
1,left,1.09100008,4,1.127999783,0,2,6.837000132,0,3,0.990999937,1,0,200,65,1,199,3,1,0.1,1,stim/objects/Instruments/panflute4.png,stim/12.jpeg,1,stim/1.png,2,3,21,2020-12-03_10h07.12.414,premup-three_ses-02_part-03_label-phase3,3.2.4,Win32,60
1,left,1.003999949,4,1.454999924,0,2,5.906000137,0,3,1.013999939,1,0,200,91,1,199,3,2,0.1,1,stim/objects/HouseObjects/scale4.png,stim/24.jpeg,2,stim/2.png,4,2,21,2020-12-03_10h07.12.414,premup-three_ses-02_part-03_label-phase3,3.2.4,Win32,60
1,right,1.309000015,2,2.246999979,0,3,1.224999905,0,2,0.464999914,1,0,200,93,1,199,3,2,0.1,1,stim/objects/HouseObjects/spraybottle4.png,stim/22.jpeg,2,stim/2.png,2,1,21,2020-12-03_10h07.12.414,premup-three_ses-02_part-03_label-phase3,3.2.4,Win32,60
1,left,1.095000029,,,0,,,0,,,1,0,200,151,1,199,0,2,0,2,stim/objects/HouseObjects/remote.png,,0,stim/0.png,0,0,21,2020-12-03_10h07.12.414,premup-three_ses-02_part-03_label-phase3,3.2.4,Win32,60
1,left,0.885999918,,,0,,,0,,,1,0,200,102,1,199,0,1,0,2,stim/objects/Instruments/balalaika.png,,0,stim/0.png,0,0,21,2020-12-03_10h07.12.414,premup-three_ses-02_part-03_label-phase3,3.2.4,Win32,60
1,right,1.219000101,,,0,,,0,,,1,0,200,191,1,199,0,2,0,2,stim/objects/HouseObjects/bottle2.png,,0,stim/0.png,0,0,21,2020-12-03_10h07.12.414,premup-three_ses-02_part-03_label-phase3,3.2.4,Win32,60
1,right,0.816999912,,,0,,,0,,,1,0,200,159,1,199,0,2,0,2,stim/objects/HouseObjects/teapot.png,,0,stim/0.png,0,0,21,2020-12-03_10h07.12.414,premup-three_ses-02_part-03_label-phase3,3.2.4,Win32,60
1,left,0.786000013,4,0.887999773,0,2,2.388000011,0,3,4.299999952,1,0,200,41,1,199,2,1,0.7,1,stim/objects/Instruments/cello4.png,stim/61.jpeg,6,stim/6.png,1,4,21,2020-12-03_10h07.12.414,premup-three_ses-02_part-03_label-phase3,3.2.4,Win32,60
1,right,1.092999935,,,0,,,0,,,1,0,200,174,1,199,0,2,0,2,stim/objects/HouseObjects/wateringcan.png,,0,stim/0.png,0,0,21,2020-12-03_10h07.12.414,premup-three_ses-02_part-03_label-phase3,3.2.4,Win32,60
1,left,2.61500001,3,1.930000067,0,2,4.378999949,0,3,3.927000046,1,0,200,13,1,199,1,2,0.5,1,stim/objects/Instruments/triangle3.png,stim/44.jpeg,4,stim/4.png,4,1,21,2020-12-03_10h07.12.414,premup-three_ses-02_part-03_label-phase3,3.2.4,Win32,60
1,left,5.681999922,,,0,,,0,,,1,0,200,185,1,199,0,1,0,2,stim/objects/Instruments/cymbal2.png,,0,stim/0.png,0,0,21,2020-12-03_10h07.12.414,premup-three_ses-02_part-03_label-phase3,3.2.4,Win32,60
1,right,1.231000185,,,0,,,0,,,1,0,200,122,1,199,0,1,0,2,stim/objects/Instruments/keyboard.png,,0,stim/0.png,0,0,21,2020-12-03_10h07.12.414,premup-three_ses-02_part-03_label-phase3,3.2.4,Win32,60
1,right,0.947999954,,,0,,,0,,,1,0,200,182,1,199,0,1,0,2,stim/objects/Instruments/chime2.png,,0,stim/0.png,0,0,21,2020-12-03_10h07.12.414,premup-three_ses-02_part-03_label-phase3,3.2.4,Win32,60
1,left,0.748000145,4,0.885999918,0,2,4.267000198,0,2,2.635999918,1,0,200,73,1,199,3,2,0.9,1,stim/objects/HouseObjects/pan4.png,stim/12.jpeg,1,stim/1.png,2,4,21,2020-12-03_10h07.12.414,premup-three_ses-02_part-03_label-phase3,3.2.4,Win32,60
1,right,2.006000042,,,0,,,0,,,1,0,200,117,1,199,0,2,0,2,stim/objects/HouseObjects/broom.png,,0,stim/0.png,0,0,21,2020-12-03_10h07.12.414,premup-three_ses-02_part-03_label-phase3,3.2.4,Win32,60
1,left,0.886999846,4,0.873000145,0,4,8.262000084,0,3,1.046000004,1,0,200,37,1,199,2,2,0.7,1,stim/objects/HouseObjects/barbecuelighter4.png,stim/51.jpeg,5,stim/5.png,1,4,21,2020-12-03_10h07.12.414,premup-three_ses-02_part-03_label-phase3,3.2.4,Win32,60
1,left,2.012000084,,,0,,,0,,,1,0,200,143,1,199,0,1,0,2,stim/objects/Instruments/record_player.png,,0,stim/0.png,0,0,21,2020-12-03_10h07.12.414,premup-three_ses-02_part-03_label-phase3,3.2.4,Win32,60
1,right,0.901000023,2,2.013000011,0,3,0.73300004,0,2,0.33100009,1,0,200,3,1,199,1,1,0.5,1,stim/objects/Instruments/record_player3.png,stim/32.jpeg,3,stim/3.png,2,1,21,2020-12-03_10h07.12.414,premup-three_ses-02_part-03_label-phase3,3.2.4,Win32,60
1,left,1.405999899,,,0,,,0,,,1,0,200,194,1,199,0,2,0,2,stim/objects/HouseObjects/clock2.png,,0,stim/0.png,0,0,21,2020-12-03_10h07.12.414,premup-three_ses-02_part-03_label-phase3,3.2.4,Win32,60
1,right,0.906999826,,,0,,,0,,,1,0,200,148,1,199,0,1,0,2,stim/objects/Instruments/triangle.png,,0,stim/0.png,0,0,21,2020-12-03_10h07.12.414,premup-three_ses-02_part-03_label-phase3,3.2.4,Win32,60
1,left,0.885999918,,,0,,,0,,,1,0,200,157,1,199,0,2,0,2,stim/objects/HouseObjects/sponge.png,,0,stim/0.png,0,0,21,2020-12-03_10h07.12.414,premup-three_ses-02_part-03_label-phase3,3.2.4,Win32,60
1,right,0.837000132,,,0,,,0,,,1,0,200,179,1,199,0,2,0,2,stim/objects/HouseObjects/bleachbottle2.png,,0,stim/0.png,0,0,21,2020-12-03_10h07.12.414,premup-three_ses-02_part-03_label-phase3,3.2.4,Win32,60
1,left,0.844000101,4,0.861000061,0,1,8.573999882,0,2,1.76699996,1,0,200,64,1,199,3,1,0.1,1,stim/objects/Instruments/oboe4.png,stim/11.jpeg,1,stim/1.png,1,4,21,2020-12-03_10h07.12.414,premup-three_ses-02_part-03_label-phase3,3.2.4,Win32,60
1,right,0.982000113,,,0,,,0,,,1,0,200,132,1,199,0,2,0,2,stim/objects/HouseObjects/iron.png,,0,stim/0.png,0,0,21,2020-12-03_10h07.12.414,premup-three_ses-02_part-03_label-phase3,3.2.4,Win32,60
1,left,0.720000029,,,0,,,0,,,1,0,200,124,1,199,0,1,0,2,stim/objects/Instruments/maraca.png,,0,stim/0.png,0,0,21,2020-12-03_10h07.12.414,premup-three_ses-02_part-03_label-phase3,3.2.4,Win32,60
1,left,0.898000002,3,3.845999956,0,2,2.549999952,0,3,1.003999949,1,0,200,87,1,199,3,1,0.9,1,stim/objects/Instruments/violin4.png,stim/24.jpeg,2,stim/2.png,4,3,21,2020-12-03_10h07.12.414,premup-three_ses-02_part-03_label-phase3,3.2.4,Win32,60
1,right,0.874000072,,,0,,,0,,,1,0,200,110,1,199,0,2,0,2,stim/objects/HouseObjects/ashtray.png,,0,stim/0.png,0,0,21,2020-12-03_10h07.12.414,premup-three_ses-02_part-03_label-phase3,3.2.4,Win32,60
1,right,1.70299983,,,0,,,0,,,1,0,200,106,1,199,0,1,0,2,stim/objects/Instruments/cello.png,,0,stim/0.png,0,0,21,2020-12-03_10h07.12.414,premup-three_ses-02_part-03_label-phase3,3.2.4,Win32,60
1,left,0.907999992,3,1.06799984,0,2,3.626999855,0,3,1.385999918,1,0,200,12,1,199,1,2,0.5,1,stim/objects/Instruments/timbal3.png,stim/43.jpeg,4,stim/4.png,3,1,21,2020-12-03_10h07.12.414,premup-three_ses-02_part-03_label-phase3,3.2.4,Win32,60
1,left,0.813000202,4,0.974999905,0,3,6.84800005,0,2,2.355999947,1,0,200,47,1,199,2,1,0.7,1,stim/objects/Instruments/keyboard4.png,stim/63.jpeg,6,stim/6.png,3,2,21,2020-12-03_10h07.12.414,premup-three_ses-02_part-03_label-phase3,3.2.4,Win32,60
1,left,0.89199996,4,0.972000122,0,3,1.690999985,0,3,0.845999956,1,0,200,90,1,199,3,2,0.1,1,stim/objects/HouseObjects/saw4.png,stim/23.jpeg,2,stim/2.png,3,2,21,2020-12-03_10h07.12.414,premup-three_ses-02_part-03_label-phase3,3.2.4,Win32,60
1,left,1.339999914,4,0.861999989,0,4,1.383000135,0,3,2.101999998,1,0,200,31,1,199,2,2,0.7,1,stim/objects/HouseObjects/thread3.png,stim/53.jpeg,5,stim/5.png,3,1,21,2020-12-03_10h07.12.414,premup-three_ses-02_part-03_label-phase3,3.2.4,Win32,60
1,right,1.876000166,,,0,,,0,,,1,0,200,163,1,199,0,1,0,2,stim/objects/Instruments/vuvuzela.png,,0,stim/0.png,0,0,21,2020-12-03_10h07.12.414,premup-three_ses-02_part-03_label-phase3,3.2.4,Win32,60
1,left,0.903000116,,,0,,,0,,,1,0,200,198,1,199,0,2,0,2,stim/objects/HouseObjects/ironingboard2.png,,0,stim/0.png,0,0,21,2020-12-03_10h07.12.414,premup-three_ses-02_part-03_label-phase3,3.2.4,Win32,60
1,right,0.857999802,,,0,,,0,,,1,0,200,114,1,199,0,2,0,2,stim/objects/HouseObjects/bleachbottle.png,,0,stim/0.png,0,0,21,2020-12-03_10h07.12.414,premup-three_ses-02_part-03_label-phase3,3.2.4,Win32,60
1,left,0.730999947,4,0.922999859,0,4,6.217999935,0,2,1.574999809,1,0,200,82,1,199,3,1,0.9,1,stim/objects/Instruments/timbal4.png,stim/23.jpeg,2,stim/2.png,3,1,21,2020-12-03_10h07.12.414,premup-three_ses-02_part-03_label-phase3,3.2.4,Win32,60
1,right,0.840000153,,,0,,,0,,,1,0,200,118,1,199,0,2,0,2,stim/objects/HouseObjects/bucket.png,,0,stim/0.png,0,0,21,2020-12-03_10h07.12.414,premup-three_ses-02_part-03_label-phase3,3.2.4,Win32,60
1,right,0.893000126,2,1.601000071,0,3,0.605999947,0,2,0.90500021,1,0,200,84,1,199,3,1,0.9,1,stim/objects/Instruments/trombone4.png,stim/21.jpeg,2,stim/2.png,1,2,21,2020-12-03_10h07.12.414,premup-three_ses-02_part-03_label-phase3,3.2.4,Win32,60
1,right,0.88499999,,,0,,,0,,,1,0,200,172,1,199,0,2,0,2,stim/objects/HouseObjects/towel.png,,0,stim/0.png,0,0,21,2020-12-03_10h07.12.414,premup-three_ses-02_part-03_label-phase3,3.2.4,Win32,60
1,left,0.876999855,4,0.720000029,0,2,6.778999805,0,2,3.345999956,1,0,200,1,1,199,1,1,0.5,1,stim/objects/Instruments/pipepiano3.png,stim/34.jpeg,3,stim/3.png,4,2,21,2020-12-03_10h07.12.414,premup-three_ses-02_part-03_label-phase3,3.2.4,Win32,60
1,right,0.921000004,4,1.461999893,0,3,0.801999807,0,1,0.620000124,1,0,200,80,1,199,3,1,0.9,1,stim/objects/Instruments/speaker4.png,stim/21.jpeg,2,stim/2.png,1,2,21,2020-12-03_10h07.12.414,premup-three_ses-02_part-03_label-phase3,3.2.4,Win32,60
1,right,4.940000057,,,0,,,0,,,1,0,200,100,1,199,0,1,0,2,stim/objects/Instruments/accordion.png,,0,stim/0.png,0,0,21,2020-12-03_10h07.12.414,premup-three_ses-02_part-03_label-phase3,3.2.4,Win32,60
1,right,1.252000093,1,1.859999895,0,2,0.845999956,0,4,3.41899991,1,0,200,78,1,199,3,2,0.9,1,stim/objects/HouseObjects/rug4.png,stim/13.jpeg,1,stim/1.png,3,2,21,2020-12-03_10h07.12.414,premup-three_ses-02_part-03_label-phase3,3.2.4,Win32,60
1,right,0.729000092,3,2.382999897,0,3,0.887000084,0,2,3.172999859,1,0,200,53,1,199,2,2,0.3,1,stim/objects/HouseObjects/bucket4.png,stim/61.jpeg,6,stim/6.png,1,3,21,2020-12-03_10h07.12.414,premup-three_ses-02_part-03_label-phase3,3.2.4,Win32,60
1,right,0.820999861,,,0,,,0,,,1,0,200,169,1,199,0,1,0,2,stim/objects/Instruments/bassdrum2.png,,0,stim/0.png,0,0,21,2020-12-03_10h07.12.414,premup-three_ses-02_part-03_label-phase3,3.2.4,Win32,60
1,right,1.367000103,,,0,,,0,,,1,0,200,162,1,199,0,1,0,2,stim/objects/Instruments/violin.png,,0,stim/0.png,0,0,21,2020-12-03_10h07.12.414,premup-three_ses-02_part-03_label-phase3,3.2.4,Win32,60
1,left,0.791000128,4,0.83100009,0,1,2.134000063,0,2,2.308000088,1,0,200,98,1,199,3,2,0.1,1,stim/objects/HouseObjects/vacuumcleaner4.png,stim/23.jpeg,2,stim/2.png,3,4,21,2020-12-03_10h07.12.414,premup-three_ses-02_part-03_label-phase3,3.2.4,Win32,60
1,left,3.769000053,,,0,,,0,,,1,0,200,111,1,199,0,2,0,2,stim/objects/HouseObjects/ballofstring.png,,0,stim/0.png,0,0,21,2020-12-03_10h07.12.414,premup-three_ses-02_part-03_label-phase3,3.2.4,Win32,60
1,right,0.919000149,,,0,,,0,,,1,0,200,120,1,199,0,1,0,2,stim/objects/Instruments/cymbal.png,,0,stim/0.png,0,0,21,2020-12-03_10h07.12.414,premup-three_ses-02_part-03_label-phase3,3.2.4,Win32,60
1,left,0.787999868,4,1.229000092,0,2,3.419999838,0,2,1.236000061,1,0,200,81,1,199,3,1,0.9,1,stim/objects/Instruments/tambourine4.png,stim/22.jpeg,2,stim/2.png,2,2,21,2020-12-03_10h07.12.414,premup-three_ses-02_part-03_label-phase3,3.2.4,Win32,60
1,right,1.143000126,3,2.881999969,0,1,0.922999859,0,4,1.144999981,1,0,200,61,1,199,3,1,0.1,1,stim/objects/Instruments/metronome4.png,stim/12.jpeg,1,stim/1.png,2,4,21,2020-12-03_10h07.12.414,premup-three_ses-02_part-03_label-phase3,3.2.4,Win32,60
1,left,2.674999952,4,0.910000086,0,3,2.756999969,0,4,1.513000011,1,0,200,19,1,199,1,2,0.5,1,stim/objects/HouseObjects/teapot3.png,stim/44.jpeg,4,stim/4.png,4,3,21,2020-12-03_10h07.12.414,premup-three_ses-02_part-03_label-phase3,3.2.4,Win32,60
1,right,1.044000149,,,0,,,0,,,1,0,200,171,1,199,0,2,0,2,stim/objects/HouseObjects/thread.png,,0,stim/0.png,0,0,21,2020-12-03_10h07.12.414,premup-three_ses-02_part-03_label-phase3,3.2.4,Win32,60
1,right,8.142999887,,,0,,,0,,,1,0,200,189,1,199,0,1,0,2,stim/objects/Instruments/maraca2.png,,0,stim/0.png,0,0,21,2020-12-03_10h07.12.414,premup-three_ses-02_part-03_label-phase3,3.2.4,Win32,60
1,left,0.756999969,4,0.884000063,0,4,2.868000031,0,2,2.137000084,1,0,200,49,1,199,2,1,0.7,1,stim/objects/Instruments/maraca4.png,stim/61.jpeg,6,stim/6.png,1,4,21,2020-12-03_10h07.12.414,premup-three_ses-02_part-03_label-phase3,3.2.4,Win32,60
1,right,1.093999863,1,4.606999874,0,2,1.06799984,0,2,2.967999935,1,0,200,45,1,199,2,1,0.7,1,stim/objects/Instruments/cymbal4.png,stim/61.jpeg,6,stim/6.png,1,1,21,2020-12-03_10h07.12.414,premup-three_ses-02_part-03_label-phase3,3.2.4,Win32,60
1,left,0.789000034,,,0,,,0,,,1,0,200,188,1,199,0,1,0,2,stim/objects/Instruments/laud2.png,,0,stim/0.png,0,0,21,2020-12-03_10h07.12.414,premup-three_ses-02_part-03_label-phase3,3.2.4,Win32,60
1,right,0.975000143,,,0,,,0,,,1,0,200,135,1,199,0,2,0,2,stim/objects/HouseObjects/knife.png,,0,stim/0.png,0,0,21,2020-12-03_10h07.12.414,premup-three_ses-02_part-03_label-phase3,3.2.4,Win32,60
1,right,1,,,0,,,0,,,1,0,200,140,1,199,0,1,0,2,stim/objects/Instruments/panflute.png,,0,stim/0.png,0,0,21,2020-12-03_10h07.12.414,premup-three_ses-02_part-03_label-phase3,3.2.4,Win32,60
1,right,1.852999926,,,0,,,0,,,1,0,200,177,1,199,0,2,0,2,stim/objects/HouseObjects/barbecuelighter2.png,,0,stim/0.png,0,0,21,2020-12-03_10h07.12.414,premup-three_ses-02_part-03_label-phase3,3.2.4,Win32,60
1,left,1.458000183,3,1.228999853,0,2,0.806999922,0,4,0.733999968,1,0,200,56,1,199,2,2,0.3,1,stim/objects/HouseObjects/clothespin4.png,stim/64.jpeg,6,stim/6.png,4,1,21,2020-12-03_10h07.12.414,premup-three_ses-02_part-03_label-phase3,3.2.4,Win32,60
1,left,1.043000221,,,0,,,0,,,1,0,200,142,1,199,0,1,0,2,stim/objects/Instruments/record.png,,0,stim/0.png,0,0,21,2020-12-03_10h07.12.414,premup-three_ses-02_part-03_label-phase3,3.2.4,Win32,60
1,right,0.82400012,,,0,,,0,,,1,0,200,125,1,199,0,1,0,2,stim/objects/Instruments/marimba.png,,0,stim/0.png,0,0,21,2020-12-03_10h07.12.414,premup-three_ses-02_part-03_label-phase3,3.2.4,Win32,60
1,left,1.317000151,,,0,,,0,,,1,0,200,133,1,199,0,2,0,2,stim/objects/HouseObjects/ironingboard.png,,0,stim/0.png,0,0,21,2020-12-03_10h07.12.414,premup-three_ses-02_part-03_label-phase3,3.2.4,Win32,60
1,right,1.305999994,2,1.417000055,0,1,0.815000057,0,3,0.859000206,1,0,200,85,1,199,3,1,0.9,1,stim/objects/Instruments/trumpet4.png,stim/22.jpeg,2,stim/2.png,2,4,21,2020-12-03_10h07.12.414,premup-three_ses-02_part-03_label-phase3,3.2.4,Win32,60
1,right,1.842999935,,,0,,,0,,,1,0,200,178,1,199,0,2,0,2,stim/objects/HouseObjects/basket2.png,,0,stim/0.png,0,0,21,2020-12-03_10h07.12.414,premup-three_ses-02_part-03_label-phase3,3.2.4,Win32,60
1,left,0.875999928,4,0.763000011,0,4,5.529000044,0,3,1.863000154,1,0,200,22,1,199,2,1,0.3,1,stim/objects/Instruments/violin3.png,stim/53.jpeg,5,stim/5.png,3,2,21,2020-12-03_10h07.12.414,premup-three_ses-02_part-03_label-phase3,3.2.4,Win32,60
1,left,0.828999996,3,1.678999901,0,2,3.269999981,0,1,1.586999893,1,0,200,15,1,199,1,2,0.5,1,stim/objects/HouseObjects/saw3.png,stim/44.jpeg,4,stim/4.png,4,2,21,2020-12-03_10h07.12.414,premup-three_ses-02_part-03_label-phase3,3.2.4,Win32,60
1,right,0.907999992,,,0,,,0,,,1,0,200,158,1,199,0,2,0,2,stim/objects/HouseObjects/spraybottle.png,,0,stim/0.png,0,0,21,2020-12-03_10h07.12.414,premup-three_ses-02_part-03_label-phase3,3.2.4,Win32,60
1,left,0.761000156,4,1.078999996,0,3,0.698999882,0,2,1.269999981,1,0,200,11,1,199,1,2,0.5,1,stim/objects/Instruments/tambourine3.png,stim/42.jpeg,4,stim/4.png,2,3,21,2020-12-03_10h07.12.414,premup-three_ses-02_part-03_label-phase3,3.2.4,Win32,60
1,left,2.677999973,,,0,,,0,,,1,0,200,173,1,199,0,2,0,2,stim/objects/HouseObjects/vacuumcleaner.png,,0,stim/0.png,0,0,21,2020-12-03_10h07.12.414,premup-three_ses-02_part-03_label-phase3,3.2.4,Win32,60
1,left,1.003000021,,,0,,,0,,,1,0,200,109,1,199,0,1,0,2,stim/objects/Instruments/cornet.png,,0,stim/0.png,0,0,21,2020-12-03_10h07.12.414,premup-three_ses-02_part-03_label-phase3,3.2.4,Win32,60
1,left,1.02699995,,,0,,,0,,,1,0,200,137,1,199,0,2,0,2,stim/objects/HouseObjects/match.png,,0,stim/0.png,0,0,21,2020-12-03_10h07.12.414,premup-three_ses-02_part-03_label-phase3,3.2.4,Win32,60
1,left,1.121999979,4,0.756000042,0,4,4.107000113,0,4,3.470999956,1,0,200,8,1,199,1,1,0.5,1,stim/objects/HouseObjects/rug3.png,stim/31.jpeg,3,stim/3.png,1,4,21,2020-12-03_10h07.12.414,premup-three_ses-02_part-03_label-phase3,3.2.4,Win32,60
1,right,1.062000036,,,0,,,0,,,1,0,200,155,1,199,0,2,0,2,stim/objects/HouseObjects/saw.png,,0,stim/0.png,0,0,21,2020-12-03_10h07.12.414,premup-three_ses-02_part-03_label-phase3,3.2.4,Win32,60
1,left,0.834000111,4,0.629999876,0,2,1.001999855,0,3,0.680999994,1,0,200,86,1,199,3,1,0.9,1,stim/objects/Instruments/tuba4.png,stim/23.jpeg,2,stim/2.png,3,3,21,2020-12-03_10h07.12.414,premup-three_ses-02_part-03_label-phase3,3.2.4,Win32,60
1,right,0.805999994,4,1.875,0,3,0.606999874,0,2,0.390000105,1,0,200,18,1,199,1,2,0.5,1,stim/objects/HouseObjects/spraybottle3.png,stim/43.jpeg,4,stim/4.png,3,1,21,2020-12-03_10h07.12.414,premup-three_ses-02_part-03_label-phase3,3.2.4,Win32,60
1,left,1.807999849,,,0,,,0,,,1,0,200,197,1,199,0,2,0,2,stim/objects/HouseObjects/iron2.png,,0,stim/0.png,0,0,21,2020-12-03_10h07.12.414,premup-three_ses-02_part-03_label-phase3,3.2.4,Win32,60
1,left,2.444000006,4,0.762000084,0,3,1.054999828,0,1,2.027999878,1,0,200,79,1,199,3,2,0.9,1,stim/objects/HouseObjects/safetypin4.png,stim/14.jpeg,1,stim/1.png,4,1,21,2020-12-03_10h07.12.414,premup-three_ses-02_part-03_label-phase3,3.2.4,Win32,60
1,right,2.707000017,,,0,,,0,,,1,0,200,181,1,199,0,1,0,2,stim/objects/Instruments/cello2.png,,0,stim/0.png,0,0,21,2020-12-03_10h07.12.414,premup-three_ses-02_part-03_label-phase3,3.2.4,Win32,60
1,right,1.127000093,,,0,,,0,,,1,0,200,164,1,199,0,1,0,2,stim/objects/Instruments/xylophone.png,,0,stim/0.png,0,0,21,2020-12-03_10h07.12.414,premup-three_ses-02_part-03_label-phase3,3.2.4,Win32,60
1,right,1.769999981,,,0,,,0,,,1,0,200,134,1,199,0,2,0,2,stim/objects/HouseObjects/key.png,,0,stim/0.png,0,0,21,2020-12-03_10h07.12.414,premup-three_ses-02_part-03_label-phase3,3.2.4,Win32,60
1,left,0.753000021,4,0.799000025,0,4,4.875999928,0,1,2.069000006,1,0,200,77,1,199,3,2,0.9,1,stim/objects/HouseObjects/rubbergloves4.png,stim/12.jpeg,1,stim/1.png,2,2,21,2020-12-03_10h07.12.414,premup-three_ses-02_part-03_label-phase3,3.2.4,Win32,60
1,left,1.424999952,4,0.80099988,0,4,2.036000013,0,3,2.226000071,1,0,200,94,1,199,3,2,0.1,1,stim/objects/HouseObjects/teapot4.png,stim/23.jpeg,2,stim/2.png,3,2,21,2020-12-03_10h07.12.414,premup-three_ses-02_part-03_label-phase3,3.2.4,Win32,60
1,left,1.193000078,,,0,,,0,,,1,0,200,108,1,199,0,1,0,2,stim/objects/Instruments/clarinet.png,,0,stim/0.png,0,0,21,2020-12-03_10h07.12.414,premup-three_ses-02_part-03_label-phase3,3.2.4,Win32,60
1,left,0.973999977,2,1.730999947,0,3,0.837000132,0,3,1.118999958,1,0,200,23,1,199,2,1,0.3,1,stim/objects/Instruments/vuvuzela3.png,stim/54.jpeg,5,stim/5.png,4,4,21,2020-12-03_10h07.12.414,premup-three_ses-02_part-03_label-phase3,3.2.4,Win32,60
1,right,1.148999929,,,0,,,0,,,1,0,200,127,1,199,0,1,0,2,stim/objects/Instruments/musicsheet.png,,0,stim/0.png,0,0,21,2020-12-03_10h07.12.414,premup-three_ses-02_part-03_label-phase3,3.2.4,Win32,60
1,right,1.155999899,2,1.338000059,0,4,0.804000139,0,3,0.99000001,1,0,200,48,1,199,2,1,0.7,1,stim/objects/Instruments/laud4.png,stim/64.jpeg,6,stim/6.png,4,2,21,2020-12-03_10h07.12.414,premup-three_ses-02_part-03_label-phase3,3.2.4,Win32,60
1,left,1.07400012,4,0.686000109,0,4,1.653000116,0,3,0.950000048,1,0,200,36,1,199,2,2,0.7,1,stim/objects/HouseObjects/ballofstring4.png,stim/54.jpeg,5,stim/5.png,4,3,21,2020-12-03_10h07.12.414,premup-three_ses-02_part-03_label-phase3,3.2.4,Win32,60
1,left,3.24000001,4,1.334000111,0,2,6.551000118,0,2,1.542999983,1,0,200,68,1,199,3,1,0.1,1,stim/objects/Instruments/record_player4.png,stim/11.jpeg,1,stim/1.png,1,1,21,2020-12-03_10h07.12.414,premup-three_ses-02_part-03_label-phase3,3.2.4,Win32,60
1,right,8.873000145,3,1.650000095,0,2,0.763000011,0,1,0.527000189,1,0,200,71,1,199,3,2,0.9,1,stim/objects/HouseObjects/lintroller4.png,stim/14.jpeg,1,stim/1.png,4,4,21,2020-12-03_10h07.12.414,premup-three_ses-02_part-03_label-phase3,3.2.4,Win32,60
1,left,2.618999958,2,1.460999966,0,4,1.104000092,0,3,0.98300004,1,0,200,74,1,199,3,2,0.9,1,stim/objects/HouseObjects/pitcher4.png,stim/13.jpeg,1,stim/1.png,3,3,21,2020-12-03_10h07.12.414,premup-three_ses-02_part-03_label-phase3,3.2.4,Win32,60
1,left,1.016000032,4,1.927000046,0,3,3.198999882,0,1,1.434999943,1,0,200,72,1,199,3,2,0.9,1,stim/objects/HouseObjects/match4.png,stim/11.jpeg,1,stim/1.png,1,2,21,2020-12-03_10h07.12.414,premup-three_ses-02_part-03_label-phase3,3.2.4,Win32,60
1,right,1.280999899,,,0,,,0,,,1,0,200,131,1,199,0,2,0,2,stim/objects/HouseObjects/clothespin.png,,0,stim/0.png,0,0,21,2020-12-03_10h07.12.414,premup-three_ses-02_part-03_label-phase3,3.2.4,Win32,60
1,right,1.183000088,,,0,,,0,,,1,0,200,152,1,199,0,2,0,2,stim/objects/HouseObjects/rubbergloves.png,,0,stim/0.png,0,0,21,2020-12-03_10h07.12.414,premup-three_ses-02_part-03_label-phase3,3.2.4,Win32,60
1,left,1.006000042,4,0.900000095,0,2,5.681999922,0,1,1.717000008,1,0,200,62,1,199,3,1,0.1,1,stim/objects/Instruments/musicsheet4.png,stim/13.jpeg,1,stim/1.png,3,1,21,2020-12-03_10h07.12.414,premup-three_ses-02_part-03_label-phase3,3.2.4,Win32,60
1,left,2.89199996,4,1.138999939,0,4,1.26699996,0,3,0.815000057,1,0,200,69,1,199,3,1,0.1,1,stim/objects/Instruments/saxophone4.png,stim/12.jpeg,1,stim/1.png,2,4,21,2020-12-03_10h07.12.414,premup-three_ses-02_part-03_label-phase3,3.2.4,Win32,60
1,left,2.284000158,4,0.789000034,0,3,3.75,0,4,1.666999817,1,0,200,38,1,199,2,2,0.7,1,stim/objects/HouseObjects/basket4.png,stim/52.jpeg,5,stim/5.png,2,2,21,2020-12-03_10h07.12.414,premup-three_ses-02_part-03_label-phase3,3.2.4,Win32,60
1,right,1.743999958,2,2.753000021,0,3,0.950999975,0,4,0.933000088,1,0,200,89,1,199,3,1,0.9,1,stim/objects/Instruments/xylophone4.png,stim/22.jpeg,2,stim/2.png,2,4,21,2020-12-03_10h07.12.414,premup-three_ses-02_part-03_label-phase3,3.2.4,Win32,60
1,right,1.266000032,,,0,,,0,,,1,0,200,116,1,199,0,2,0,2,stim/objects/HouseObjects/bottle.png,,0,stim/0.png,0,0,21,2020-12-03_10h07.12.414,premup-three_ses-02_part-03_label-phase3,3.2.4,Win32,60
1,left,1.213999987,4,0.585000038,0,4,2.21600008,0,2,1.171999931,1,0,200,27,1,199,2,1,0.3,1,stim/objects/Instruments/balalaika4.png,stim/54.jpeg,5,stim/5.png,4,4,21,2020-12-03_10h07.12.414,premup-three_ses-02_part-03_label-phase3,3.2.4,Win32,60
1,right,1.184999943,,,0,,,0,,,1,0,200,168,1,199,0,1,0,2,stim/objects/Instruments/banjo2.png,,0,stim/0.png,0,0,21,2020-12-03_10h07.12.414,premup-three_ses-02_part-03_label-phase3,3.2.4,Win32,60
1,right,1.410000086,2,1.166999817,0,1,0.781999826,0,2,1.231999874,1,0,200,88,1,199,3,1,0.9,1,stim/objects/Instruments/vuvuzela4.png,stim/21.jpeg,2,stim/2.png,1,2,21,2020-12-03_10h07.12.414,premup-three_ses-02_part-03_label-phase3,3.2.4,Win32,60
1,right,1.088999987,,,0,,,0,,,1,0,200,146,1,199,0,1,0,2,stim/objects/Instruments/tambourine.png,,0,stim/0.png,0,0,21,2020-12-03_10h07.12.414,premup-three_ses-02_part-03_label-phase3,3.2.4,Win32,60
1,left,0.76699996,,,0,,,0,,,1,0,200,183,1,199,0,1,0,2,stim/objects/Instruments/clarinet2.png,,0,stim/0.png,0,0,21,2020-12-03_10h07.12.414,premup-three_ses-02_part-03_label-phase3,3.2.4,Win32,60
1,right,1.423000097,,,0,,,0,,,1,0,200,199,1,199,0,2,0,2,stim/objects/HouseObjects/key2.png,,0,stim/0.png,0,0,21,2020-12-03_10h07.12.414,premup-three_ses-02_part-03_label-phase3,3.2.4,Win32,60
1,right,1.053999901,3,1.348999977,0,4,1.282999992,0,3,0.851999998,1,0,200,92,1,199,3,2,0.1,1,stim/objects/HouseObjects/sponge4.png,stim/21.jpeg,2,stim/2.png,1,3,21,2020-12-03_10h07.12.414,premup-three_ses-02_part-03_label-phase3,3.2.4,Win32,60
1,left,1.050000191,4,0.723999977,0,2,1.856000185,0,2,1.325000048,1,0,200,46,1,199,2,1,0.7,1,stim/objects/Instruments/doublebass4.png,stim/62.jpeg,6,stim/6.png,2,3,21,2020-12-03_10h07.12.414,premup-three_ses-02_part-03_label-phase3,3.2.4,Win32,60
1,left,1.196000099,,,0,,,0,,,1,0,200,149,1,199,0,1,0,2,stim/objects/Instruments/trombone.png,,0,stim/0.png,0,0,21,2020-12-03_10h07.12.414,premup-three_ses-02_part-03_label-phase3,3.2.4,Win32,60
1,right,1.398999929,2,2.13499999,0,3,0.709000111,0,4,0.513000011,1,0,200,34,1,199,2,2,0.7,1,stim/objects/HouseObjects/wateringcan3.png,stim/52.jpeg,5,stim/5.png,2,4,21,2020-12-03_10h07.12.414,premup-three_ses-02_part-03_label-phase3,3.2.4,Win32,60
1,left,1.338999987,3,0.947000027,0,1,1.204999924,0,3,0.539000034,1,0,200,99,1,199,3,2,0.1,1,stim/objects/HouseObjects/wateringcan4.png,stim/24.jpeg,2,stim/2.png,4,4,21,2020-12-03_10h07.12.414,premup-three_ses-02_part-03_label-phase3,3.2.4,Win32,60
1,right,1.24000001,,,0,,,0,,,1,0,200,105,1,199,0,1,0,2,stim/objects/Instruments/bassguitar.png,,0,stim/0.png,0,0,21,2020-12-03_10h07.12.414,premup-three_ses-02_part-03_label-phase3,3.2.4,Win32,60
1,left,1.164999962,3,1.306999922,0,2,0.957999945,0,2,1.774999857,1,0,200,58,1,199,2,2,0.3,1,stim/objects/HouseObjects/ironingboard4.png,stim/62.jpeg,6,stim/6.png,2,1,21,2020-12-03_10h07.12.414,premup-three_ses-02_part-03_label-phase3,3.2.4,Win32,60
1,right,0.913000107,,,0,,,0,,,1,0,200,150,1,199,0,2,0,2,stim/objects/HouseObjects/recyclingbin.png,,0,stim/0.png,0,0,21,2020-12-03_10h07.12.414,premup-three_ses-02_part-03_label-phase3,3.2.4,Win32,60
1,left,0.981000185,4,0.753999949,0,2,3.707000017,0,1,0.144999981,1,0,200,75,1,199,3,2,0.9,1,stim/objects/HouseObjects/recyclingbin4.png,stim/14.jpeg,1,stim/1.png,4,3,21,2020-12-03_10h07.12.414,premup-three_ses-02_part-03_label-phase3,3.2.4,Win32,60
1,left,2.705999851,4,0.674999952,0,3,2.815999985,0,2,1.078999996,1,0,200,76,1,199,3,2,0.9,1,stim/objects/HouseObjects/remote4.png,stim/11.jpeg,1,stim/1.png,1,1,21,2020-12-03_10h07.12.414,premup-three_ses-02_part-03_label-phase3,3.2.4,Win32,60
1,left,0.897000074,,,0,,,0,,,1,0,200,184,1,199,0,1,0,2,stim/objects/Instruments/cornet2.png,,0,stim/0.png,0,0,21,2020-12-03_10h07.12.414,premup-three_ses-02_part-03_label-phase3,3.2.4,Win32,60
1,right,1.381999969,2,1.370999813,0,1,1.187999964,0,1,0.989000082,1,0,200,20,1,199,2,1,0.3,1,stim/objects/Instruments/trumpet3.png,stim/51.jpeg,5,stim/5.png,1,2,21,2020-12-03_10h07.12.414,premup-three_ses-02_part-03_label-phase3,3.2.4,Win32,60
1,right,0.906000137,,,0,,,0,,,1,0,200,195,1,199,0,2,0,2,stim/objects/HouseObjects/clothesdryingrack2.png,,0,stim/0.png,0,0,21,2020-12-03_10h07.12.414,premup-three_ses-02_part-03_label-phase3,3.2.4,Win32,60
1,right,1.200999975,,,0,,,0,,,1,0,200,156,1,199,0,2,0,2,stim/objects/HouseObjects/scale.png,,0,stim/0.png,0,0,21,2020-12-03_10h07.12.414,premup-three_ses-02_part-03_label-phase3,3.2.4,Win32,60
1,left,1.232000113,4,0.717000008,0,4,1.325000048,0,2,1.805999994,1,0,200,9,1,199,1,1,0.5,1,stim/objects/HouseObjects/safetypin3.png,stim/32.jpeg,3,stim/3.png,2,3,21,2020-12-03_10h07.12.414,premup-three_ses-02_part-03_label-phase3,3.2.4,Win32,60
1,right,3.7099998,,,0,,,0,,,1,0,200,190,1,199,0,2,0,2,stim/objects/HouseObjects/blender2.png,,0,stim/0.png,0,0,21,2020-12-03_10h07.12.414,premup-three_ses-02_part-03_label-phase3,3.2.4,Win32,60
1,left,0.795000076,,,0,,,0,,,1,0,200,101,1,199,0,1,0,2,stim/objects/Instruments/acousticguitar.png,,0,stim/0.png,0,0,21,2020-12-03_10h07.12.414,premup-three_ses-02_part-03_label-phase3,3.2.4,Win32,60
1,left,1.79399991,4,1.114000082,0,1,0.825999975,0,1,1.574999809,1,0,200,44,1,199,2,1,0.7,1,stim/objects/Instruments/cornet4.png,stim/64.jpeg,6,stim/6.png,4,1,21,2020-12-03_10h07.12.414,premup-three_ses-02_part-03_label-phase3,3.2.4,Win32,60
1,left,1.886999846,3,1.542999983,0,2,2.104000092,0,4,3.060000181,1,0,200,32,1,199,2,2,0.7,1,stim/objects/HouseObjects/towel3.png,stim/54.jpeg,5,stim/5.png,4,2,21,2020-12-03_10h07.12.414,premup-three_ses-02_part-03_label-phase3,3.2.4,Win32,60
1,left,4.367999792,,,0,,,0,,,1,0,200,145,1,199,0,1,0,2,stim/objects/Instruments/speaker.png,,0,stim/0.png,0,0,21,2020-12-03_10h07.12.414,premup-three_ses-02_part-03_label-phase3,3.2.4,Win32,60
1,left,0.93900013,4,0.680999994,0,1,3.786000013,0,1,2.472999811,1,0,200,10,1,199,1,2,0.5,1,stim/objects/Instruments/speaker3.png,stim/41.jpeg,4,stim/4.png,1,4,21,2020-12-03_10h07.12.414,premup-three_ses-02_part-03_label-phase3,3.2.4,Win32,60
1,right,0.889999866,4,2.645999908,0,3,0.779999971,0,2,0.398000002,1,0,200,59,1,199,2,2,0.3,1,stim/objects/HouseObjects/key4.png,stim/63.jpeg,6,stim/6.png,3,1,21,2020-12-03_10h07.12.414,premup-three_ses-02_part-03_label-phase3,3.2.4,Win32,60
1,left,2.857000113,4,0.728999853,0,1,1.89199996,0,3,2.430999994,1,0,200,21,1,199,2,1,0.3,1,stim/objects/Instruments/tuba3.png,stim/52.jpeg,5,stim/5.png,2,4,21,2020-12-03_10h07.12.414,premup-three_ses-02_part-03_label-phase3,3.2.4,Win32,60
1,left,1.075000048,4,0.633000135,0,1,7.585999966,0,2,1.457999945,1,0,200,43,1,199,2,1,0.7,1,stim/objects/Instruments/clarinet4.png,stim/63.jpeg,6,stim/6.png,3,4,21,2020-12-03_10h07.12.414,premup-three_ses-02_part-03_label-phase3,3.2.4,Win32,60
1,left,1.691000223,,,0,,,0,,,1,0,200,138,1,199,0,2,0,2,stim/objects/HouseObjects/pan.png,,0,stim/0.png,0,0,21,2020-12-03_10h07.12.414,premup-three_ses-02_part-03_label-phase3,3.2.4,Win32,60
1,right,2.288000107,3,1.036000013,0,4,0.792999983,0,1,1.005000114,1,0,200,60,1,199,3,1,0.1,1,stim/objects/Instruments/marimba4.png,stim/11.jpeg,1,stim/1.png,1,4,21,2020-12-03_10h07.12.414,premup-three_ses-02_part-03_label-phase3,3.2.4,Win32,60
1,right,1.316999912,,,0,,,0,,,1,0,200,126,1,199,0,1,0,2,stim/objects/Instruments/metronome.png,,0,stim/0.png,0,0,21,2020-12-03_10h07.12.414,premup-three_ses-02_part-03_label-phase3,3.2.4,Win32,60
1,left,1.226000071,,,0,,,0,,,1,0,200,136,1,199,0,2,0,2,stim/objects/HouseObjects/lintroller.png,,0,stim/0.png,0,0,21,2020-12-03_10h07.12.414,premup-three_ses-02_part-03_label-phase3,3.2.4,Win32,60
1,right,1.037000179,,,0,,,0,,,1,0,200,187,1,199,0,1,0,2,stim/objects/Instruments/keyboard2.png,,0,stim/0.png,0,0,21,2020-12-03_10h07.12.414,premup-three_ses-02_part-03_label-phase3,3.2.4,Win32,60
1,left,1.194999933,,,0,,,0,,,1,0,200,180,1,199,0,1,0,2,stim/objects/Instruments/bassguitar2.png,,0,stim/0.png,0,0,21,2020-12-03_10h07.12.414,premup-three_ses-02_part-03_label-phase3,3.2.4,Win32,60
1,left,1.818000078,1,1.316999912,0,1,2.021999836,0,3,0.697999954,1,0,200,70,1,199,3,2,0.9,1,stim/objects/HouseObjects/knife4.png,stim/13.jpeg,1,stim/1.png,3,2,21,2020-12-03_10h07.12.414,premup-three_ses-02_part-03_label-phase3,3.2.4,Win32,60
1,right,0.84499979,4,1.954999924,0,3,0.690999985,0,4,0.539999962,1,0,200,5,1,199,1,1,0.5,1,stim/objects/HouseObjects/recyclingbin3.png,stim/32.jpeg,3,stim/3.png,2,3,21,2020-12-03_10h07.12.414,premup-three_ses-02_part-03_label-phase3,3.2.4,Win32,60
1,left,0.99000001,4,0.963999987,0,4,1.389000177,0,1,0.855999947,1,0,200,67,1,199,3,1,0.1,1,stim/objects/Instruments/record4.png,stim/14.jpeg,1,stim/1.png,4,3,21,2020-12-03_10h07.12.414,premup-three_ses-02_part-03_label-phase3,3.2.4,Win32,60
1,right,1.292000055,4,2.501999855,0,2,0.506000042,0,4,0.445999861,1,0,200,63,1,199,3,1,0.1,1,stim/objects/Instruments/musicstand4.png,stim/14.jpeg,1,stim/1.png,4,2,21,2020-12-03_10h07.12.414,premup-three_ses-02_part-03_label-phase3,3.2.4,Win32,60
1,left,1.45600009,3,0.996000051,0,1,0.822000027,0,3,0.753000021,1,0,200,95,1,199,3,2,0.1,1,stim/objects/HouseObjects/thermometer4.png,stim/24.jpeg,2,stim/2.png,4,1,21,2020-12-03_10h07.12.414,premup-three_ses-02_part-03_label-phase3,3.2.4,Win32,60
1,left,1.179000139,,,0,,,0,,,1,0,200,167,1,199,0,1,0,2,stim/objects/Instruments/balalaika2.png,,0,stim/0.png,0,0,21,2020-12-03_10h07.12.414,premup-three_ses-02_part-03_label-phase3,3.2.4,Win32,60
1,left,1.315999985,,,0,,,0,,,1,0,200,154,1,199,0,2,0,2,stim/objects/HouseObjects/safetypin.png,,0,stim/0.png,0,0,21,2020-12-03_10h07.12.414,premup-three_ses-02_part-03_label-phase3,3.2.4,Win32,60
1,left,0.903000116,4,0.630000114,0,4,1.40199995,0,4,0.742000103,1,0,200,55,1,199,2,2,0.3,1,stim/objects/HouseObjects/clothesdryingrack4.png,stim/63.jpeg,6,stim/6.png,3,3,21,2020-12-03_10h07.12.414,premup-three_ses-02_part-03_label-phase3,3.2.4,Win32,60
1,right,1.944999933,,,0,,,0,,,1,0,200,176,1,199,0,2,0,2,stim/objects/HouseObjects/ballofstring2.png,,0,stim/0.png,0,0,21,2020-12-03_10h07.12.414,premup-three_ses-02_part-03_label-phase3,3.2.4,Win32,60
1,right,1.188999891,3,2.427999973,0,1,0.937000036,0,2,0.873999834,1,0,200,40,1,199,2,1,0.7,1,stim/objects/Instruments/bassguitar4.png,stim/64.jpeg,6,stim/6.png,4,1,21,2020-12-03_10h07.12.414,premup-three_ses-02_part-03_label-phase3,3.2.4,Win32,60
1,left,1.486999989,4,1.419000149,0,2,1.779999971,0,1,0.760999918,1,0,200,2,1,199,1,1,0.5,1,stim/objects/Instruments/record3.png,stim/31.jpeg,3,stim/3.png,1,4,21,2020-12-03_10h07.12.414,premup-three_ses-02_part-03_label-phase3,3.2.4,Win32,60
1,left,1.094000101,3,1.587999821,0,4,0.919000149,0,3,1.779999971,1,0,200,4,1,199,1,1,0.5,1,stim/objects/Instruments/saxophone3.png,stim/33.jpeg,3,stim/3.png,3,3,21,2020-12-03_10h07.12.414,premup-three_ses-02_part-03_label-phase3,3.2.4,Win32,60
1,right,1.139000177,,,0,,,0,,,1,0,200,119,1,199,0,2,0,2,stim/objects/HouseObjects/clock.png,,0,stim/0.png,0,0,21,2020-12-03_10h07.12.414,premup-three_ses-02_part-03_label-phase3,3.2.4,Win32,60
1,left,0.84100008,,,0,,,0,,,1,0,200,129,1,199,0,1,0,2,stim/objects/Instruments/oboe.png,,0,stim/0.png,0,0,21,2020-12-03_10h07.12.414,premup-three_ses-02_part-03_label-phase3,3.2.4,Win32,60
1,left,1.019999981,3,1.055000067,0,1,3.120000124,0,1,1.039999962,1,0,200,39,1,199,2,2,0.7,1,stim/objects/HouseObjects/bleachbottle4.png,stim/53.jpeg,5,stim/5.png,3,1,21,2020-12-03_10h07.12.414,premup-three_ses-02_part-03_label-phase3,3.2.4,Win32,60
1,left,0.989000082,3,0.996999979,0,4,0.608999968,0,3,0.746000051,1,0,200,24,1,199,2,1,0.3,1,stim/objects/Instruments/xylophone3.png,stim/51.jpeg,5,stim/5.png,1,1,21,2020-12-03_10h07.12.414,premup-three_ses-02_part-03_label-phase3,3.2.4,Win32,60
1,right,0.881999969,,,0,,,0,,,1,0,200,104,1,199,0,1,0,2,stim/objects/Instruments/bassdrum.png,,0,stim/0.png,0,0,21,2020-12-03_10h07.12.414,premup-three_ses-02_part-03_label-phase3,3.2.4,Win32,60
1,left,0.860000134,4,0.672999859,0,1,1.467000008,0,1,1.167999983,1,0,200,83,1,199,3,1,0.9,1,stim/objects/Instruments/triangle4.png,stim/24.jpeg,2,stim/2.png,4,3,21,2020-12-03_10h07.12.414,premup-three_ses-02_part-03_label-phase3,3.2.4,Win32,60
1,right,1.052999973,2,1.34800005,0,3,0.571999788,0,4,0.513999939,1,0,200,54,1,199,2,2,0.3,1,stim/objects/HouseObjects/clock4.png,stim/62.jpeg,6,stim/6.png,2,2,21,2020-12-03_10h07.12.414,premup-three_ses-02_part-03_label-phase3,3.2.4,Win32,60
1,left,1.06400013,,,0,,,0,,,1,0,200,103,1,199,0,1,0,2,stim/objects/Instruments/banjo.png,,0,stim/0.png,0,0,21,2020-12-03_10h07.12.414,premup-three_ses-02_part-03_label-phase3,3.2.4,Win32,60
1,right,0.93900013,,,0,,,0,,,1,0,200,147,1,199,0,1,0,2,stim/objects/Instruments/timbal.png,,0,stim/0.png,0,0,21,2020-12-03_10h07.12.414,premup-three_ses-02_part-03_label-phase3,3.2.4,Win32,60
1,right,0.883999825,4,1.078999996,0,4,0.488000154,0,4,0.494000196,1,0,200,57,1,199,2,2,0.3,1,stim/objects/HouseObjects/iron4.png,stim/61.jpeg,6,stim/6.png,1,1,21,2020-12-03_10h07.12.414,premup-three_ses-02_part-03_label-phase3,3.2.4,Win32,60
1,right,5.430000067,,,0,,,0,,,1,0,200,170,1,199,0,2,0,2,stim/objects/HouseObjects/thermometer.png,,0,stim/0.png,0,0,21,2020-12-03_10h07.12.414,premup-three_ses-02_part-03_label-phase3,3.2.4,Win32,60
1,left,1.112999916,2,1.912999868,0,3,0.646000147,0,1,0.996000051,1,0,200,42,1,199,2,1,0.7,1,stim/objects/Instruments/chime4.png,stim/62.jpeg,6,stim/6.png,2,4,21,2020-12-03_10h07.12.414,premup-three_ses-02_part-03_label-phase3,3.2.4,Win32,60
1,right,0.680000067,,,0,,,0,,,1,0,200,115,1,199,0,2,0,2,stim/objects/HouseObjects/blender.png,,0,stim/0.png,0,0,21,2020-12-03_10h07.12.414,premup-three_ses-02_part-03_label-phase3,3.2.4,Win32,60
1,left,0.787000179,4,0.749000072,0,4,1.868999958,0,2,1.221999884,1,0,200,26,1,199,2,1,0.3,1,stim/objects/Instruments/acousticguitar4.png,stim/53.jpeg,5,stim/5.png,3,3,21,2020-12-03_10h07.12.414,premup-three_ses-02_part-03_label-phase3,3.2.4,Win32,60
1,right,0.879000187,,,0,,,0,,,1,0,200,192,1,199,0,2,0,2,stim/objects/HouseObjects/broom2.png,,0,stim/0.png,0,0,21,2020-12-03_10h07.12.414,premup-three_ses-02_part-03_label-phase3,3.2.4,Win32,60
1,left,0.883000135,,,0,,,0,,,1,0,200,113,1,199,0,2,0,2,stim/objects/HouseObjects/basket.png,,0,stim/0.png,0,0,21,2020-12-03_10h07.12.414,premup-three_ses-02_part-03_label-phase3,3.2.4,Win32,60
1,left,0.907999992,4,0.677999973,0,3,0.677999973,0,2,0.625999928,1,0,200,51,1,199,2,2,0.3,1,stim/objects/HouseObjects/bottle4.png,stim/63.jpeg,6,stim/6.png,3,2,21,2020-12-03_10h07.12.414,premup-three_ses-02_part-03_label-phase3,3.2.4,Win32,60
1,left,1.063000202,4,0.712000132,0,1,1.226000071,0,2,0.958999872,1,0,200,0,1,199,1,1,0.5,1,stim/objects/Instruments/panflute3.png,stim/33.jpeg,3,stim/3.png,3,2,21,2020-12-03_10h07.12.414,premup-three_ses-02_part-03_label-phase3,3.2.4,Win32,60
1,left,10.26699996,4,0.836999893,0,4,3.582000017,0,1,1.919000149,1,0,200,16,1,199,1,2,0.5,1,stim/objects/HouseObjects/scale3.png,stim/41.jpeg,4,stim/4.png,1,1,21,2020-12-03_10h07.12.414,premup-three_ses-02_part-03_label-phase3,3.2.4,Win32,60
1,left,1.218000174,3,0.901000023,0,2,0.717000008,0,4,0.413000107,1,0,200,17,1,199,1,2,0.5,1,stim/objects/HouseObjects/sponge3.png,stim/42.jpeg,4,stim/4.png,2,2,21,2020-12-03_10h07.12.414,premup-three_ses-02_part-03_label-phase3,3.2.4,Win32,60
1,right,4.221999884,3,6.285000086,0,1,0.805999994,0,3,1.48300004,1,0,200,50,1,199,2,2,0.3,1,stim/objects/HouseObjects/blender4.png,stim/62.jpeg,6,stim/6.png,2,1,21,2020-12-03_10h07.12.414,premup-three_ses-02_part-03_label-phase3,3.2.4,Win32,60
1,right,1.045000076,3,1.887999773,0,1,1.023000002,0,3,0.472000122,1,0,200,6,1,199,1,1,0.5,1,stim/objects/HouseObjects/remote3.png,stim/33.jpeg,3,stim/3.png,3,2,21,2020-12-03_10h07.12.414,premup-three_ses-02_part-03_label-phase3,3.2.4,Win32,60
1,right,1.375999928,2,1.236000061,0,4,1.036999941,0,1,0.878999949,1,0,200,97,1,199,3,2,0.1,1,stim/objects/HouseObjects/towel4.png,stim/22.jpeg,2,stim/2.png,2,2,21,2020-12-03_10h07.12.414,premup-three_ses-02_part-03_label-phase3,3.2.4,Win32,60
1,right,0.990999937,,,0,,,0,,,1,0,200,139,1,199,0,2,0,2,stim/objects/HouseObjects/pitcher.png,,0,stim/0.png,0,0,21,2020-12-03_10h07.12.414,premup-three_ses-02_part-03_label-phase3,3.2.4,Win32,60
1,left,0.843999863,4,0.776000023,0,4,0.759000063,0,2,0.684000015,1,0,200,96,1,199,3,2,0.1,1,stim/objects/HouseObjects/thread4.png,stim/21.jpeg,2,stim/2.png,1,3,21,2020-12-03_10h07.12.414,premup-three_ses-02_part-03_label-phase3,3.2.4,Win32,60
1,left,1.342999935,3,1.519000053,0,3,2.164000034,0,1,1.355000019,1,0,200,30,1,199,2,2,0.7,1,stim/objects/HouseObjects/thermometer3.png,stim/52.jpeg,5,stim/5.png,2,2,21,2020-12-03_10h07.12.414,premup-three_ses-02_part-03_label-phase3,3.2.4,Win32,60
1,left,3.144000053,3,1.635999918,0,4,0.801999807,0,2,0.674000025,1,0,200,66,1,199,3,1,0.1,1,stim/objects/Instruments/pipepiano4.png,stim/13.jpeg,1,stim/1.png,3,3,21,2020-12-03_10h07.12.414,premup-three_ses-02_part-03_label-phase3,3.2.4,Win32,60
1,left,0.786000013,,,0,,,0,,,1,0,200,186,1,199,0,1,0,2,stim/objects/Instruments/doublebass2.png,,0,stim/0.png,0,0,21,2020-12-03_10h07.12.414,premup-three_ses-02_part-03_label-phase3,3.2.4,Win32,60
1,right,2.161999941,2,1.522000074,0,3,0.695000172,0,1,0.815999985,1,0,200,28,1,199,2,1,0.3,1,stim/objects/Instruments/banjo4.png,stim/51.jpeg,5,stim/5.png,1,3,21,2020-12-03_10h07.12.414,premup-three_ses-02_part-03_label-phase3,3.2.4,Win32,60
1,left,0.970999956,4,0.650000095,0,4,1.482999802,0,3,1.09100008,1,0,200,33,1,199,2,2,0.7,1,stim/objects/HouseObjects/vacuumcleaner3.png,stim/51.jpeg,5,stim/5.png,1,1,21,2020-12-03_10h07.12.414,premup-three_ses-02_part-03_label-phase3,3.2.4,Win32,60
