key_resp_pract.keys,key_resp_pract.rt,trial_acc,trial_index,practice_loop.thisRepN,practice_loop.thisTrialN,practice_loop.thisN,practice_loop.thisIndex,practice_loop.ran,practice_loop.order,scn_condition,scn_cat,scn_inst,scn_file,obj_cat,obj_cat_num,obj_file,trial_cond,quadrant,obj_x,obj_y,corr_ans,participant,date,expName,psychopyVersion,OS,frameRate,key_resp_trial.keys,key_resp_trial.rt,iterations.thisRepN,iterations.thisTrialN,iterations.thisN,iterations.thisIndex,iterations.ran,iterations.order,task_innerloop.thisRepN,task_innerloop.thisTrialN,task_innerloop.thisN,task_innerloop.thisIndex,task_innerloop.ran,task_innerloop.order,iteration_index,rating_acc,slider.response,slider.rt,slider_2.response,slider_2.rt,ratings.thisRepN,ratings.thisTrialN,ratings.thisN,ratings.thisIndex,ratings.ran,ratings.order,obj_cat_top,min_resp_top,max_resp_top,obj_cat_bottom,min_resp_bottom,max_resp_bottom
,,0,1,1,0,240,85,1,239,2,1,2,stim/12.jpeg,HouseObjects,1,stim/objects/HouseObjects/remote.png,0.3,2,0.2,0.15,left,22,2020-12-10_13h09.53.582,premup-three_ses-01_part-01_label-phase1,3.2.4,Win32,60,,,,,,,,,,,,,,,,,,,,,,,,,,,,,,,,
left,1.08100009,0,2,1,0,240,175,1,239,3,3,4,stim/34.jpeg,Instruments,2,stim/objects/Instruments/oboe2.png,0.9,2,0.2,0.15,right,22,2020-12-10_13h09.53.582,premup-three_ses-01_part-01_label-phase1,3.2.4,Win32,60,,,,,,,,,,,,,,,,,,,,,,,,,,,,,,,,
right,1.210000038,0,3,1,0,240,58,1,239,1,6,3,stim/63.jpeg,HouseObjects,1,stim/objects/HouseObjects/pan.png,0.5,1,-0.2,0.15,left,22,2020-12-10_13h09.53.582,premup-three_ses-01_part-01_label-phase1,3.2.4,Win32,60,,,,,,,,,,,,,,,,,,,,,,,,,,,,,,,,
left,0.850999832,0,4,1,0,240,172,1,239,3,3,1,stim/31.jpeg,Instruments,2,stim/objects/Instruments/metronome2.png,0.9,1,-0.2,0.15,right,22,2020-12-10_13h09.53.582,premup-three_ses-01_part-01_label-phase1,3.2.4,Win32,60,,,,,,,,,,,,,,,,,,,,,,,,,,,,,,,,
left,0.875,1,5,1,0,240,50,1,239,1,6,3,stim/63.jpeg,HouseObjects,1,stim/objects/HouseObjects/pan.png,0.5,4,0.2,-0.15,left,22,2020-12-10_13h09.53.582,premup-three_ses-01_part-01_label-phase1,3.2.4,Win32,60,,,,,,,,,,,,,,,,,,,,,,,,,,,,,,,,
right,0.907000065,1,6,1,0,240,179,1,239,3,3,4,stim/34.jpeg,Instruments,2,stim/objects/Instruments/oboe2.png,0.9,4,0.2,-0.15,right,22,2020-12-10_13h09.53.582,premup-three_ses-01_part-01_label-phase1,3.2.4,Win32,60,,,,,,,,,,,,,,,,,,,,,,,,,,,,,,,,
left,0.684000015,1,7,1,0,240,90,1,239,2,1,3,stim/13.jpeg,HouseObjects,1,stim/objects/HouseObjects/rubbergloves.png,0.3,1,-0.2,0.15,left,22,2020-12-10_13h09.53.582,premup-three_ses-01_part-01_label-phase1,3.2.4,Win32,60,,,,,,,,,,,,,,,,,,,,,,,,,,,,,,,,
right,0.655999899,0,8,1,0,240,52,1,239,1,6,1,stim/61.jpeg,HouseObjects,1,stim/objects/HouseObjects/lintroller.png,0.5,2,0.2,0.15,left,22,2020-12-10_13h09.53.582,premup-three_ses-01_part-01_label-phase1,3.2.4,Win32,60,,,,,,,,,,,,,,,,,,,,,,,,,,,,,,,,
left,0.606999874,1,9,1,0,240,18,1,239,1,5,3,stim/53.jpeg,HouseObjects,1,stim/objects/HouseObjects/key.png,0.5,4,0.2,-0.15,left,22,2020-12-10_13h09.53.582,premup-three_ses-01_part-01_label-phase1,3.2.4,Win32,60,,,,,,,,,,,,,,,,,,,,,,,,,,,,,,,,
left,0.874000072,0,10,1,0,240,117,1,239,2,1,2,stim/12.jpeg,Instruments,2,stim/objects/Instruments/pipepiano.png,0.7,1,-0.2,0.15,right,22,2020-12-10_13h09.53.582,premup-three_ses-01_part-01_label-phase1,3.2.4,Win32,60,,,,,,,,,,,,,,,,,,,,,,,,,,,,,,,,
,,0,1,,,,,,,3,3,3,stim/33.jpeg,Instruments,2,stim/objects/Instruments/musicstand2.png,0.9,1,-0.2,0.15,right,22,2020-12-10_13h09.53.582,premup-three_ses-01_part-01_label-phase1,3.2.4,Win32,60,left,0.72300005,4,0,4,0,1,3,1,0,240,194,1,239,,,,,,,,,,,,,,,,,,
,,1,2,,,,,,,2,2,4,stim/24.jpeg,HouseObjects,1,stim/objects/HouseObjects/knife2.png,0.7,3,-0.2,-0.15,left,22,2020-12-10_13h09.53.582,premup-three_ses-01_part-01_label-phase1,3.2.4,Win32,60,left,0.848999977,4,0,4,0,1,3,1,0,240,139,1,239,,,,,,,,,,,,,,,,,,
,,1,3,,,,,,,1,5,3,stim/53.jpeg,Instruments,2,stim/objects/Instruments/maraca.png,0.5,3,-0.2,-0.15,right,22,2020-12-10_13h09.53.582,premup-three_ses-01_part-01_label-phase1,3.2.4,Win32,60,right,0.911000013,4,0,4,0,1,3,1,0,240,30,1,239,,,,,,,,,,,,,,,,,,
,,1,4,,,,,,,3,3,3,stim/33.jpeg,Instruments,2,stim/objects/Instruments/musicstand2.png,0.9,2,0.2,0.15,right,22,2020-12-10_13h09.53.582,premup-three_ses-01_part-01_label-phase1,3.2.4,Win32,60,right,0.99000001,4,0,4,0,1,3,1,0,240,182,1,239,,,,,,,,,,,,,,,,,,
,,1,5,,,,,,,2,2,1,stim/21.jpeg,HouseObjects,1,stim/objects/HouseObjects/iron2.png,0.7,1,-0.2,0.15,left,22,2020-12-10_13h09.53.582,premup-three_ses-01_part-01_label-phase1,3.2.4,Win32,60,left,1.052999973,4,0,4,0,1,3,1,0,240,124,1,239,,,,,,,,,,,,,,,,,,
,,0,6,,,,,,,2,1,2,stim/12.jpeg,HouseObjects,1,stim/objects/HouseObjects/remote.png,0.3,2,0.2,0.15,left,22,2020-12-10_13h09.53.582,premup-three_ses-01_part-01_label-phase1,3.2.4,Win32,60,right,0.876999855,4,0,4,0,1,3,1,0,240,81,1,239,,,,,,,,,,,,,,,,,,
,,0,7,,,,,,,2,2,3,stim/23.jpeg,HouseObjects,1,stim/objects/HouseObjects/key2.png,0.7,1,-0.2,0.15,left,22,2020-12-10_13h09.53.582,premup-three_ses-01_part-01_label-phase1,3.2.4,Win32,60,right,0.964999914,4,0,4,0,1,3,1,0,240,138,1,239,,,,,,,,,,,,,,,,,,
,,1,8,,,,,,,3,4,4,stim/44.jpeg,HouseObjects,1,stim/objects/HouseObjects/rug2.png,0.9,4,0.2,-0.15,left,22,2020-12-10_13h09.53.582,premup-three_ses-01_part-01_label-phase1,3.2.4,Win32,60,left,0.66899991,4,0,4,0,1,3,1,0,240,235,1,239,,,,,,,,,,,,,,,,,,
,,1,9,,,,,,,1,5,3,stim/53.jpeg,Instruments,2,stim/objects/Instruments/maraca.png,0.5,3,-0.2,-0.15,right,22,2020-12-10_13h09.53.582,premup-three_ses-01_part-01_label-phase1,3.2.4,Win32,60,right,0.680999994,4,0,4,0,1,3,1,0,240,22,1,239,,,,,,,,,,,,,,,,,,
,,1,10,,,,,,,1,5,2,stim/52.jpeg,HouseObjects,1,stim/objects/HouseObjects/ironingboard.png,0.5,2,0.2,0.15,left,22,2020-12-10_13h09.53.582,premup-three_ses-01_part-01_label-phase1,3.2.4,Win32,60,left,0.601999998,4,0,4,0,1,3,1,0,240,9,1,239,,,,,,,,,,,,,,,,,,
,,1,11,,,,,,,2,1,1,stim/11.jpeg,Instruments,2,stim/objects/Instruments/panflute.png,0.7,3,-0.2,-0.15,right,22,2020-12-10_13h09.53.582,premup-three_ses-01_part-01_label-phase1,3.2.4,Win32,60,right,0.559999943,4,0,4,0,1,3,1,0,240,104,1,239,,,,,,,,,,,,,,,,,,
,,0,12,,,,,,,3,3,4,stim/34.jpeg,Instruments,2,stim/objects/Instruments/oboe2.png,0.9,3,-0.2,-0.15,right,22,2020-12-10_13h09.53.582,premup-three_ses-01_part-01_label-phase1,3.2.4,Win32,60,left,0.705999851,4,0,4,0,1,3,1,0,240,191,1,239,,,,,,,,,,,,,,,,,,
,,0,13,,,,,,,2,2,3,stim/23.jpeg,HouseObjects,1,stim/objects/HouseObjects/key2.png,0.7,1,-0.2,0.15,left,22,2020-12-10_13h09.53.582,premup-three_ses-01_part-01_label-phase1,3.2.4,Win32,60,right,0.989000082,4,0,4,0,1,3,1,0,240,126,1,239,,,,,,,,,,,,,,,,,,
,,1,14,,,,,,,3,4,4,stim/44.jpeg,HouseObjects,1,stim/objects/HouseObjects/rug2.png,0.9,4,0.2,-0.15,left,22,2020-12-10_13h09.53.582,premup-three_ses-01_part-01_label-phase1,3.2.4,Win32,60,left,0.700999975,4,0,4,0,1,3,1,0,240,223,1,239,,,,,,,,,,,,,,,,,,
,,0,15,,,,,,,2,1,4,stim/14.jpeg,Instruments,2,stim/objects/Instruments/record_player.png,0.7,3,-0.2,-0.15,right,22,2020-12-10_13h09.53.582,premup-three_ses-01_part-01_label-phase1,3.2.4,Win32,60,left,1.392999887,4,0,4,0,1,3,1,0,240,111,1,239,,,,,,,,,,,,,,,,,,
,,0,16,,,,,,,1,5,3,stim/53.jpeg,Instruments,2,stim/objects/Instruments/maraca.png,0.5,2,0.2,0.15,right,22,2020-12-10_13h09.53.582,premup-three_ses-01_part-01_label-phase1,3.2.4,Win32,60,left,0.666000128,4,0,4,0,1,3,1,0,240,34,1,239,,,,,,,,,,,,,,,,,,
,,1,17,,,,,,,1,5,1,stim/51.jpeg,Instruments,2,stim/objects/Instruments/keyboard.png,0.5,4,0.2,-0.15,right,22,2020-12-10_13h09.53.582,premup-three_ses-01_part-01_label-phase1,3.2.4,Win32,60,right,0.477999926,4,0,4,0,1,3,1,0,240,20,1,239,,,,,,,,,,,,,,,,,,
,,1,18,,,,,,,1,6,4,stim/64.jpeg,Instruments,2,stim/objects/Instruments/oboe.png,0.5,3,-0.2,-0.15,right,22,2020-12-10_13h09.53.582,premup-three_ses-01_part-01_label-phase1,3.2.4,Win32,60,right,0.64199996,4,0,4,0,1,3,1,0,240,75,1,239,,,,,,,,,,,,,,,,,,
,,1,19,,,,,,,1,6,3,stim/63.jpeg,Instruments,2,stim/objects/Instruments/musicstand.png,0.5,1,-0.2,0.15,right,22,2020-12-10_13h09.53.582,premup-three_ses-01_part-01_label-phase1,3.2.4,Win32,60,right,0.613999844,4,0,4,0,1,3,1,0,240,74,1,239,,,,,,,,,,,,,,,,,,
,,1,20,,,,,,,2,2,3,stim/23.jpeg,HouseObjects,1,stim/objects/HouseObjects/key2.png,0.7,4,0.2,-0.15,left,22,2020-12-10_13h09.53.582,premup-three_ses-01_part-01_label-phase1,3.2.4,Win32,60,left,0.496999979,4,0,4,0,1,3,1,0,240,122,1,239,,,,,,,,,,,,,,,,,,
,,0,21,,,,,,,1,5,1,stim/51.jpeg,HouseObjects,1,stim/objects/HouseObjects/iron.png,0.5,3,-0.2,-0.15,left,22,2020-12-10_13h09.53.582,premup-three_ses-01_part-01_label-phase1,3.2.4,Win32,60,right,0.694000006,4,0,4,0,1,3,1,0,240,0,1,239,,,,,,,,,,,,,,,,,,
,,1,22,,,,,,,3,4,1,stim/41.jpeg,HouseObjects,1,stim/objects/HouseObjects/recyclingbin2.png,0.9,3,-0.2,-0.15,left,22,2020-12-10_13h09.53.582,premup-three_ses-01_part-01_label-phase1,3.2.4,Win32,60,left,0.467999935,4,0,4,0,1,3,1,0,240,232,1,239,,,,,,,,,,,,,,,,,,
,,0,23,,,,,,,1,6,2,stim/62.jpeg,HouseObjects,1,stim/objects/HouseObjects/match.png,0.5,1,-0.2,0.15,left,22,2020-12-10_13h09.53.582,premup-three_ses-01_part-01_label-phase1,3.2.4,Win32,60,right,0.619999886,4,0,4,0,1,3,1,0,240,53,1,239,,,,,,,,,,,,,,,,,,
,,0,24,,,,,,,1,5,2,stim/52.jpeg,Instruments,2,stim/objects/Instruments/laud.png,0.5,4,0.2,-0.15,right,22,2020-12-10_13h09.53.582,premup-three_ses-01_part-01_label-phase1,3.2.4,Win32,60,left,0.455999851,4,0,4,0,1,3,1,0,240,33,1,239,,,,,,,,,,,,,,,,,,
,,0,25,,,,,,,2,1,4,stim/14.jpeg,HouseObjects,1,stim/objects/HouseObjects/rug.png,0.3,4,0.2,-0.15,left,22,2020-12-10_13h09.53.582,premup-three_ses-01_part-01_label-phase1,3.2.4,Win32,60,right,0.657999992,4,0,4,0,1,3,1,0,240,83,1,239,,,,,,,,,,,,,,,,,,
,,1,26,,,,,,,1,5,4,stim/54.jpeg,HouseObjects,1,stim/objects/HouseObjects/knife.png,0.5,4,0.2,-0.15,left,22,2020-12-10_13h09.53.582,premup-three_ses-01_part-01_label-phase1,3.2.4,Win32,60,left,0.679000139,4,0,4,0,1,3,1,0,240,3,1,239,,,,,,,,,,,,,,,,,,
,,0,27,,,,,,,3,4,1,stim/41.jpeg,HouseObjects,1,stim/objects/HouseObjects/recyclingbin2.png,0.9,1,-0.2,0.15,left,22,2020-12-10_13h09.53.582,premup-three_ses-01_part-01_label-phase1,3.2.4,Win32,60,right,0.74000001,4,0,4,0,1,3,1,0,240,220,1,239,,,,,,,,,,,,,,,,,,
,,0,28,,,,,,,1,5,1,stim/51.jpeg,HouseObjects,1,stim/objects/HouseObjects/iron.png,0.5,1,-0.2,0.15,left,22,2020-12-10_13h09.53.582,premup-three_ses-01_part-01_label-phase1,3.2.4,Win32,60,right,0.72300005,4,0,4,0,1,3,1,0,240,8,1,239,,,,,,,,,,,,,,,,,,
,,1,29,,,,,,,2,2,4,stim/24.jpeg,HouseObjects,1,stim/objects/HouseObjects/knife2.png,0.7,4,0.2,-0.15,left,22,2020-12-10_13h09.53.582,premup-three_ses-01_part-01_label-phase1,3.2.4,Win32,60,left,0.430999994,4,0,4,0,1,3,1,0,240,123,1,239,,,,,,,,,,,,,,,,,,
,,0,30,,,,,,,3,4,4,stim/44.jpeg,HouseObjects,1,stim/objects/HouseObjects/rug2.png,0.9,1,-0.2,0.15,left,22,2020-12-10_13h09.53.582,premup-three_ses-01_part-01_label-phase1,3.2.4,Win32,60,right,0.79399991,4,0,4,0,1,3,1,0,240,207,1,239,,,,,,,,,,,,,,,,,,
,,1,31,,,,,,,1,5,4,stim/54.jpeg,HouseObjects,1,stim/objects/HouseObjects/knife.png,0.5,4,0.2,-0.15,left,22,2020-12-10_13h09.53.582,premup-three_ses-01_part-01_label-phase1,3.2.4,Win32,60,left,0.929000139,4,0,4,0,1,3,1,0,240,19,1,239,,,,,,,,,,,,,,,,,,
,,1,32,,,,,,,2,1,2,stim/12.jpeg,Instruments,2,stim/objects/Instruments/pipepiano.png,0.7,2,0.2,0.15,right,22,2020-12-10_13h09.53.582,premup-three_ses-01_part-01_label-phase1,3.2.4,Win32,60,right,0.979999781,4,0,4,0,1,3,1,0,240,109,1,239,,,,,,,,,,,,,,,,,,
,,0,33,,,,,,,2,1,1,stim/11.jpeg,Instruments,2,stim/objects/Instruments/panflute.png,0.7,2,0.2,0.15,right,22,2020-12-10_13h09.53.582,premup-three_ses-01_part-01_label-phase1,3.2.4,Win32,60,left,0.790999889,4,0,4,0,1,3,1,0,240,112,1,239,,,,,,,,,,,,,,,,,,
,,0,34,,,,,,,1,6,2,stim/62.jpeg,HouseObjects,1,stim/objects/HouseObjects/match.png,0.5,3,-0.2,-0.15,left,22,2020-12-10_13h09.53.582,premup-three_ses-01_part-01_label-phase1,3.2.4,Win32,60,right,0.59100008,4,0,4,0,1,3,1,0,240,57,1,239,,,,,,,,,,,,,,,,,,
,,0,35,,,,,,,2,1,4,stim/14.jpeg,Instruments,2,stim/objects/Instruments/record_player.png,0.7,3,-0.2,-0.15,right,22,2020-12-10_13h09.53.582,premup-three_ses-01_part-01_label-phase1,3.2.4,Win32,60,left,1.194000006,4,0,4,0,1,3,1,0,240,95,1,239,,,,,,,,,,,,,,,,,,
,,0,36,,,,,,,1,6,2,stim/62.jpeg,HouseObjects,1,stim/objects/HouseObjects/match.png,0.5,3,-0.2,-0.15,left,22,2020-12-10_13h09.53.582,premup-three_ses-01_part-01_label-phase1,3.2.4,Win32,60,right,0.736999989,4,0,4,0,1,3,1,0,240,41,1,239,,,,,,,,,,,,,,,,,,
,,0,37,,,,,,,2,1,4,stim/14.jpeg,Instruments,2,stim/objects/Instruments/record_player.png,0.7,4,0.2,-0.15,right,22,2020-12-10_13h09.53.582,premup-three_ses-01_part-01_label-phase1,3.2.4,Win32,60,left,0.82400012,4,0,4,0,1,3,1,0,240,115,1,239,,,,,,,,,,,,,,,,,,
,,0,38,,,,,,,3,3,3,stim/33.jpeg,Instruments,2,stim/objects/Instruments/musicstand2.png,0.9,4,0.2,-0.15,right,22,2020-12-10_13h09.53.582,premup-three_ses-01_part-01_label-phase1,3.2.4,Win32,60,left,1.029000044,4,0,4,0,1,3,1,0,240,178,1,239,,,,,,,,,,,,,,,,,,
,,1,39,,,,,,,3,3,3,stim/33.jpeg,Instruments,2,stim/objects/Instruments/musicstand2.png,0.9,2,0.2,0.15,right,22,2020-12-10_13h09.53.582,premup-three_ses-01_part-01_label-phase1,3.2.4,Win32,60,right,0.832000017,4,0,4,0,1,3,1,0,240,190,1,239,,,,,,,,,,,,,,,,,,
,,1,40,,,,,,,1,5,4,stim/54.jpeg,HouseObjects,1,stim/objects/HouseObjects/knife.png,0.5,2,0.2,0.15,left,22,2020-12-10_13h09.53.582,premup-three_ses-01_part-01_label-phase1,3.2.4,Win32,60,left,0.884000063,4,0,4,0,1,3,1,0,240,7,1,239,,,,,,,,,,,,,,,,,,
,,1,41,,,,,,,3,3,1,stim/31.jpeg,Instruments,2,stim/objects/Instruments/metronome2.png,0.9,4,0.2,-0.15,right,22,2020-12-10_13h09.53.582,premup-three_ses-01_part-01_label-phase1,3.2.4,Win32,60,right,0.929999828,4,0,4,0,1,3,1,0,240,168,1,239,,,,,,,,,,,,,,,,,,
,,1,42,,,,,,,1,6,4,stim/64.jpeg,HouseObjects,1,stim/objects/HouseObjects/pitcher.png,0.5,3,-0.2,-0.15,left,22,2020-12-10_13h09.53.582,premup-three_ses-01_part-01_label-phase1,3.2.4,Win32,60,left,0.92599988,4,0,4,0,1,3,1,0,240,43,1,239,,,,,,,,,,,,,,,,,,
,,1,43,,,,,,,2,1,4,stim/14.jpeg,Instruments,2,stim/objects/Instruments/record_player.png,0.7,3,-0.2,-0.15,right,22,2020-12-10_13h09.53.582,premup-three_ses-01_part-01_label-phase1,3.2.4,Win32,60,right,1.029000044,4,0,4,0,1,3,1,0,240,103,1,239,,,,,,,,,,,,,,,,,,
,,1,44,,,,,,,3,3,1,stim/31.jpeg,Instruments,2,stim/objects/Instruments/metronome2.png,0.9,1,-0.2,0.15,right,22,2020-12-10_13h09.53.582,premup-three_ses-01_part-01_label-phase1,3.2.4,Win32,60,right,1.409999847,4,0,4,0,1,3,1,0,240,172,1,239,,,,,,,,,,,,,,,,,,
,,1,45,,,,,,,1,5,4,stim/54.jpeg,HouseObjects,1,stim/objects/HouseObjects/knife.png,0.5,3,-0.2,-0.15,left,22,2020-12-10_13h09.53.582,premup-three_ses-01_part-01_label-phase1,3.2.4,Win32,60,left,1.107000113,4,0,4,0,1,3,1,0,240,15,1,239,,,,,,,,,,,,,,,,,,
,,1,46,,,,,,,2,2,3,stim/23.jpeg,Instruments,2,stim/objects/Instruments/maraca2.png,0.3,1,-0.2,0.15,right,22,2020-12-10_13h09.53.582,premup-three_ses-01_part-01_label-phase1,3.2.4,Win32,60,right,0.983999968,4,0,4,0,1,3,1,0,240,150,1,239,,,,,,,,,,,,,,,,,,
,,0,47,,,,,,,1,6,3,stim/63.jpeg,HouseObjects,1,stim/objects/HouseObjects/pan.png,0.5,3,-0.2,-0.15,left,22,2020-12-10_13h09.53.582,premup-three_ses-01_part-01_label-phase1,3.2.4,Win32,60,right,1.272000074,4,0,4,0,1,3,1,0,240,54,1,239,,,,,,,,,,,,,,,,,,
,,1,48,,,,,,,3,3,3,stim/33.jpeg,Instruments,2,stim/objects/Instruments/musicstand2.png,0.9,3,-0.2,-0.15,right,22,2020-12-10_13h09.53.582,premup-three_ses-01_part-01_label-phase1,3.2.4,Win32,60,right,1.59800005,4,0,4,0,1,3,1,0,240,186,1,239,,,,,,,,,,,,,,,,,,
,,1,49,,,,,,,3,4,2,stim/42.jpeg,HouseObjects,1,stim/objects/HouseObjects/remote2.png,0.9,1,-0.2,0.15,left,22,2020-12-10_13h09.53.582,premup-three_ses-01_part-01_label-phase1,3.2.4,Win32,60,left,1.017999887,4,0,4,0,1,3,1,0,240,233,1,239,,,,,,,,,,,,,,,,,,
,,1,50,,,,,,,3,3,1,stim/31.jpeg,Instruments,2,stim/objects/Instruments/metronome2.png,0.9,3,-0.2,-0.15,right,22,2020-12-10_13h09.53.582,premup-three_ses-01_part-01_label-phase1,3.2.4,Win32,60,right,0.911999941,4,0,4,0,1,3,1,0,240,188,1,239,,,,,,,,,,,,,,,,,,
,,0,51,,,,,,,1,5,1,stim/51.jpeg,Instruments,2,stim/objects/Instruments/keyboard.png,0.5,4,0.2,-0.15,right,22,2020-12-10_13h09.53.582,premup-three_ses-01_part-01_label-phase1,3.2.4,Win32,60,left,0.877000093,4,0,4,0,1,3,1,0,240,36,1,239,,,,,,,,,,,,,,,,,,
,,0,52,,,,,,,1,5,4,stim/54.jpeg,Instruments,2,stim/objects/Instruments/marimba.png,0.5,3,-0.2,-0.15,right,22,2020-12-10_13h09.53.582,premup-three_ses-01_part-01_label-phase1,3.2.4,Win32,60,left,1.334000111,4,0,4,0,1,3,1,0,240,39,1,239,,,,,,,,,,,,,,,,,,
,,1,53,,,,,,,2,2,1,stim/21.jpeg,HouseObjects,1,stim/objects/HouseObjects/iron2.png,0.7,1,-0.2,0.15,left,22,2020-12-10_13h09.53.582,premup-three_ses-01_part-01_label-phase1,3.2.4,Win32,60,left,1.258999825,4,0,4,0,1,3,1,0,240,136,1,239,,,,,,,,,,,,,,,,,,
,,1,54,,,,,,,1,6,4,stim/64.jpeg,Instruments,2,stim/objects/Instruments/oboe.png,0.5,2,0.2,0.15,right,22,2020-12-10_13h09.53.582,premup-three_ses-01_part-01_label-phase1,3.2.4,Win32,60,right,0.825999975,4,0,4,0,1,3,1,0,240,67,1,239,,,,,,,,,,,,,,,,,,
,,1,55,,,,,,,3,4,2,stim/42.jpeg,HouseObjects,1,stim/objects/HouseObjects/remote2.png,0.9,1,-0.2,0.15,left,22,2020-12-10_13h09.53.582,premup-three_ses-01_part-01_label-phase1,3.2.4,Win32,60,left,1.189999819,4,0,4,0,1,3,1,0,240,209,1,239,,,,,,,,,,,,,,,,,,
,,0,56,,,,,,,2,2,2,stim/22.jpeg,HouseObjects,1,stim/objects/HouseObjects/ironingboard2.png,0.7,3,-0.2,-0.15,left,22,2020-12-10_13h09.53.582,premup-three_ses-01_part-01_label-phase1,3.2.4,Win32,60,right,0.844000101,4,0,4,0,1,3,1,0,240,129,1,239,,,,,,,,,,,,,,,,,,
,,0,57,,,,,,,3,4,1,stim/41.jpeg,HouseObjects,1,stim/objects/HouseObjects/recyclingbin2.png,0.9,1,-0.2,0.15,left,22,2020-12-10_13h09.53.582,premup-three_ses-01_part-01_label-phase1,3.2.4,Win32,60,right,0.855999947,4,0,4,0,1,3,1,0,240,228,1,239,,,,,,,,,,,,,,,,,,
,,1,58,,,,,,,2,1,2,stim/12.jpeg,Instruments,2,stim/objects/Instruments/pipepiano.png,0.7,1,-0.2,0.15,right,22,2020-12-10_13h09.53.582,premup-three_ses-01_part-01_label-phase1,3.2.4,Win32,60,right,0.901000023,4,0,4,0,1,3,1,0,240,113,1,239,,,,,,,,,,,,,,,,,,
,,0,59,,,,,,,2,2,1,stim/21.jpeg,Instruments,2,stim/objects/Instruments/keyboard2.png,0.3,4,0.2,-0.15,right,22,2020-12-10_13h09.53.582,premup-three_ses-01_part-01_label-phase1,3.2.4,Win32,60,left,0.723999977,4,0,4,0,1,3,1,0,240,152,1,239,,,,,,,,,,,,,,,,,,
,,1,60,,,,,,,2,2,1,stim/21.jpeg,HouseObjects,1,stim/objects/HouseObjects/iron2.png,0.7,1,-0.2,0.15,left,22,2020-12-10_13h09.53.582,premup-three_ses-01_part-01_label-phase1,3.2.4,Win32,60,left,1.468999863,4,0,4,0,1,3,1,0,240,120,1,239,,,,,,,,,,,,,,,,,,
,,1,61,,,,,,,3,3,3,stim/33.jpeg,Instruments,2,stim/objects/Instruments/musicstand2.png,0.9,1,-0.2,0.15,right,22,2020-12-10_13h09.53.582,premup-three_ses-01_part-01_label-phase1,3.2.4,Win32,60,right,0.710000038,4,0,4,0,1,3,1,0,240,170,1,239,,,,,,,,,,,,,,,,,,
,,1,62,,,,,,,2,1,4,stim/14.jpeg,HouseObjects,1,stim/objects/HouseObjects/rug.png,0.3,2,0.2,0.15,left,22,2020-12-10_13h09.53.582,premup-three_ses-01_part-01_label-phase1,3.2.4,Win32,60,left,0.742000103,4,0,4,0,1,3,1,0,240,87,1,239,,,,,,,,,,,,,,,,,,
,,0,63,,,,,,,1,5,2,stim/52.jpeg,Instruments,2,stim/objects/Instruments/laud.png,0.5,4,0.2,-0.15,right,22,2020-12-10_13h09.53.582,premup-three_ses-01_part-01_label-phase1,3.2.4,Win32,60,left,0.940999985,4,0,4,0,1,3,1,0,240,37,1,239,,,,,,,,,,,,,,,,,,
,,0,64,,,,,,,1,5,1,stim/51.jpeg,HouseObjects,1,stim/objects/HouseObjects/iron.png,0.5,1,-0.2,0.15,left,22,2020-12-10_13h09.53.582,premup-three_ses-01_part-01_label-phase1,3.2.4,Win32,60,right,0.888999939,4,0,4,0,1,3,1,0,240,16,1,239,,,,,,,,,,,,,,,,,,
,,1,65,,,,,,,3,4,2,stim/42.jpeg,HouseObjects,1,stim/objects/HouseObjects/remote2.png,0.9,3,-0.2,-0.15,left,22,2020-12-10_13h09.53.582,premup-three_ses-01_part-01_label-phase1,3.2.4,Win32,60,left,1.15899992,4,0,4,0,1,3,1,0,240,221,1,239,,,,,,,,,,,,,,,,,,
,,0,66,,,,,,,1,6,3,stim/63.jpeg,HouseObjects,1,stim/objects/HouseObjects/pan.png,0.5,4,0.2,-0.15,left,22,2020-12-10_13h09.53.582,premup-three_ses-01_part-01_label-phase1,3.2.4,Win32,60,right,1.770999908,4,0,4,0,1,3,1,0,240,50,1,239,,,,,,,,,,,,,,,,,,
,,1,67,,,,,,,3,3,3,stim/33.jpeg,Instruments,2,stim/objects/Instruments/musicstand2.png,0.9,2,0.2,0.15,right,22,2020-12-10_13h09.53.582,premup-three_ses-01_part-01_label-phase1,3.2.4,Win32,60,right,0.856000185,4,0,4,0,1,3,1,0,240,166,1,239,,,,,,,,,,,,,,,,,,
,,1,68,,,,,,,3,4,3,stim/43.jpeg,HouseObjects,1,stim/objects/HouseObjects/rubbergloves2.png,0.9,4,0.2,-0.15,left,22,2020-12-10_13h09.53.582,premup-three_ses-01_part-01_label-phase1,3.2.4,Win32,60,left,1.33100009,4,0,4,0,1,3,1,0,240,202,1,239,,,,,,,,,,,,,,,,,,
,,0,69,,,,,,,3,4,2,stim/42.jpeg,Instruments,2,stim/objects/Instruments/pipepiano2.png,0.1,3,-0.2,-0.15,right,22,2020-12-10_13h09.53.582,premup-three_ses-01_part-01_label-phase1,3.2.4,Win32,60,left,0.967000008,4,0,4,0,1,3,1,0,240,237,1,239,,,,,,,,,,,,,,,,,,
,,0,70,,,,,,,2,1,3,stim/13.jpeg,Instruments,2,stim/objects/Instruments/record.png,0.7,4,0.2,-0.15,right,22,2020-12-10_13h09.53.582,premup-three_ses-01_part-01_label-phase1,3.2.4,Win32,60,left,1.585999966,4,0,4,0,1,3,1,0,240,106,1,239,,,,,,,,,,,,,,,,,,
,,1,71,,,,,,,3,4,4,stim/44.jpeg,HouseObjects,1,stim/objects/HouseObjects/rug2.png,0.9,2,0.2,0.15,left,22,2020-12-10_13h09.53.582,premup-three_ses-01_part-01_label-phase1,3.2.4,Win32,60,left,1.119000196,4,0,4,0,1,3,1,0,240,219,1,239,,,,,,,,,,,,,,,,,,
,,0,72,,,,,,,3,4,3,stim/43.jpeg,HouseObjects,1,stim/objects/HouseObjects/rubbergloves2.png,0.9,3,-0.2,-0.15,left,22,2020-12-10_13h09.53.582,premup-three_ses-01_part-01_label-phase1,3.2.4,Win32,60,right,0.760999918,4,0,4,0,1,3,1,0,240,230,1,239,,,,,,,,,,,,,,,,,,
,,0,73,,,,,,,2,2,3,stim/23.jpeg,Instruments,2,stim/objects/Instruments/maraca2.png,0.3,2,0.2,0.15,right,22,2020-12-10_13h09.53.582,premup-three_ses-01_part-01_label-phase1,3.2.4,Win32,60,left,1.409999847,4,0,4,0,1,3,1,0,240,154,1,239,,,,,,,,,,,,,,,,,,
,,0,74,,,,,,,1,6,4,stim/64.jpeg,HouseObjects,1,stim/objects/HouseObjects/pitcher.png,0.5,1,-0.2,0.15,left,22,2020-12-10_13h09.53.582,premup-three_ses-01_part-01_label-phase1,3.2.4,Win32,60,right,0.758999825,4,0,4,0,1,3,1,0,240,55,1,239,,,,,,,,,,,,,,,,,,
,,1,75,,,,,,,2,1,2,stim/12.jpeg,Instruments,2,stim/objects/Instruments/pipepiano.png,0.7,3,-0.2,-0.15,right,22,2020-12-10_13h09.53.582,premup-three_ses-01_part-01_label-phase1,3.2.4,Win32,60,right,1.076999903,4,0,4,0,1,3,1,0,240,97,1,239,,,,,,,,,,,,,,,,,,
,,1,76,,,,,,,2,1,1,stim/11.jpeg,Instruments,2,stim/objects/Instruments/panflute.png,0.7,1,-0.2,0.15,right,22,2020-12-10_13h09.53.582,premup-three_ses-01_part-01_label-phase1,3.2.4,Win32,60,right,0.92599988,4,0,4,0,1,3,1,0,240,92,1,239,,,,,,,,,,,,,,,,,,
,,1,77,,,,,,,2,1,3,stim/13.jpeg,Instruments,2,stim/objects/Instruments/record.png,0.7,4,0.2,-0.15,right,22,2020-12-10_13h09.53.582,premup-three_ses-01_part-01_label-phase1,3.2.4,Win32,60,right,1.785000086,4,0,4,0,1,3,1,0,240,94,1,239,,,,,,,,,,,,,,,,,,
,,1,78,,,,,,,1,6,4,stim/64.jpeg,HouseObjects,1,stim/objects/HouseObjects/pitcher.png,0.5,4,0.2,-0.15,left,22,2020-12-10_13h09.53.582,premup-three_ses-01_part-01_label-phase1,3.2.4,Win32,60,left,1.174000025,4,0,4,0,1,3,1,0,240,59,1,239,,,,,,,,,,,,,,,,,,
,,0,79,,,,,,,1,5,1,stim/51.jpeg,Instruments,2,stim/objects/Instruments/keyboard.png,0.5,4,0.2,-0.15,right,22,2020-12-10_13h09.53.582,premup-three_ses-01_part-01_label-phase1,3.2.4,Win32,60,left,1.10800004,4,0,4,0,1,3,1,0,240,28,1,239,,,,,,,,,,,,,,,,,,
,,1,80,,,,,,,1,6,3,stim/63.jpeg,Instruments,2,stim/objects/Instruments/musicstand.png,0.5,2,0.2,0.15,right,22,2020-12-10_13h09.53.582,premup-three_ses-01_part-01_label-phase1,3.2.4,Win32,60,right,0.792000055,4,0,4,0,1,3,1,0,240,78,1,239,,,,,,,,,,,,,,,,,,
,,1,81,,,,,,,2,1,4,stim/14.jpeg,Instruments,2,stim/objects/Instruments/record_player.png,0.7,4,0.2,-0.15,right,22,2020-12-10_13h09.53.582,premup-three_ses-01_part-01_label-phase1,3.2.4,Win32,60,right,0.940000057,4,0,4,0,1,3,1,0,240,119,1,239,,,,,,,,,,,,,,,,,,
,,1,82,,,,,,,3,3,2,stim/32.jpeg,HouseObjects,1,stim/objects/HouseObjects/match2.png,0.1,4,0.2,-0.15,left,22,2020-12-10_13h09.53.582,premup-three_ses-01_part-01_label-phase1,3.2.4,Win32,60,left,0.937000036,4,0,4,0,1,3,1,0,240,161,1,239,,,,,,,,,,,,,,,,,,
,,1,83,,,,,,,3,3,4,stim/34.jpeg,Instruments,2,stim/objects/Instruments/oboe2.png,0.9,3,-0.2,-0.15,right,22,2020-12-10_13h09.53.582,premup-three_ses-01_part-01_label-phase1,3.2.4,Win32,60,right,0.852999926,4,0,4,0,1,3,1,0,240,195,1,239,,,,,,,,,,,,,,,,,,
,,0,84,,,,,,,2,1,2,stim/12.jpeg,HouseObjects,1,stim/objects/HouseObjects/remote.png,0.3,2,0.2,0.15,left,22,2020-12-10_13h09.53.582,premup-three_ses-01_part-01_label-phase1,3.2.4,Win32,60,right,1.239000082,4,0,4,0,1,3,1,0,240,85,1,239,,,,,,,,,,,,,,,,,,
,,1,85,,,,,,,3,3,3,stim/33.jpeg,Instruments,2,stim/objects/Instruments/musicstand2.png,0.9,2,0.2,0.15,right,22,2020-12-10_13h09.53.582,premup-three_ses-01_part-01_label-phase1,3.2.4,Win32,60,right,0.829999924,4,0,4,0,1,3,1,0,240,174,1,239,,,,,,,,,,,,,,,,,,
,,1,86,,,,,,,3,4,4,stim/44.jpeg,HouseObjects,1,stim/objects/HouseObjects/rug2.png,0.9,4,0.2,-0.15,left,22,2020-12-10_13h09.53.582,premup-three_ses-01_part-01_label-phase1,3.2.4,Win32,60,left,1.125999928,4,0,4,0,1,3,1,0,240,215,1,239,,,,,,,,,,,,,,,,,,
,,1,87,,,,,,,3,4,4,stim/44.jpeg,HouseObjects,1,stim/objects/HouseObjects/rug2.png,0.9,2,0.2,0.15,left,22,2020-12-10_13h09.53.582,premup-three_ses-01_part-01_label-phase1,3.2.4,Win32,60,left,0.78399992,4,0,4,0,1,3,1,0,240,231,1,239,,,,,,,,,,,,,,,,,,
,,1,88,,,,,,,1,6,1,stim/61.jpeg,Instruments,2,stim/objects/Instruments/metronome.png,0.5,3,-0.2,-0.15,right,22,2020-12-10_13h09.53.582,premup-three_ses-01_part-01_label-phase1,3.2.4,Win32,60,right,0.90899992,4,0,4,0,1,3,1,0,240,76,1,239,,,,,,,,,,,,,,,,,,
,,0,89,,,,,,,1,5,3,stim/53.jpeg,Instruments,2,stim/objects/Instruments/maraca.png,0.5,4,0.2,-0.15,right,22,2020-12-10_13h09.53.582,premup-three_ses-01_part-01_label-phase1,3.2.4,Win32,60,left,0.946000099,4,0,4,0,1,3,1,0,240,38,1,239,,,,,,,,,,,,,,,,,,
,,1,90,,,,,,,1,6,1,stim/61.jpeg,Instruments,2,stim/objects/Instruments/metronome.png,0.5,2,0.2,0.15,right,22,2020-12-10_13h09.53.582,premup-three_ses-01_part-01_label-phase1,3.2.4,Win32,60,right,1.523000002,4,0,4,0,1,3,1,0,240,64,1,239,,,,,,,,,,,,,,,,,,
,,0,91,,,,,,,2,2,1,stim/21.jpeg,Instruments,2,stim/objects/Instruments/keyboard2.png,0.3,4,0.2,-0.15,right,22,2020-12-10_13h09.53.582,premup-three_ses-01_part-01_label-phase1,3.2.4,Win32,60,left,1.362999916,4,0,4,0,1,3,1,0,240,156,1,239,,,,,,,,,,,,,,,,,,
,,1,92,,,,,,,1,6,3,stim/63.jpeg,Instruments,2,stim/objects/Instruments/musicstand.png,0.5,1,-0.2,0.15,right,22,2020-12-10_13h09.53.582,premup-three_ses-01_part-01_label-phase1,3.2.4,Win32,60,right,0.863000154,4,0,4,0,1,3,1,0,240,66,1,239,,,,,,,,,,,,,,,,,,
,,1,93,,,,,,,3,3,3,stim/33.jpeg,Instruments,2,stim/objects/Instruments/musicstand2.png,0.9,2,0.2,0.15,right,22,2020-12-10_13h09.53.582,premup-three_ses-01_part-01_label-phase1,3.2.4,Win32,60,right,1.088999987,4,0,4,0,1,3,1,0,240,198,1,239,,,,,,,,,,,,,,,,,,
,,0,94,,,,,,,2,2,2,stim/22.jpeg,HouseObjects,1,stim/objects/HouseObjects/ironingboard2.png,0.7,3,-0.2,-0.15,left,22,2020-12-10_13h09.53.582,premup-three_ses-01_part-01_label-phase1,3.2.4,Win32,60,right,1.773000002,4,0,4,0,1,3,1,0,240,121,1,239,,,,,,,,,,,,,,,,,,
,,0,95,,,,,,,1,6,3,stim/63.jpeg,HouseObjects,1,stim/objects/HouseObjects/pan.png,0.5,4,0.2,-0.15,left,22,2020-12-10_13h09.53.582,premup-three_ses-01_part-01_label-phase1,3.2.4,Win32,60,right,0.909000158,4,0,4,0,1,3,1,0,240,46,1,239,,,,,,,,,,,,,,,,,,
,,1,96,,,,,,,3,3,2,stim/32.jpeg,Instruments,2,stim/objects/Instruments/musicsheet2.png,0.9,4,0.2,-0.15,right,22,2020-12-10_13h09.53.582,premup-three_ses-01_part-01_label-phase1,3.2.4,Win32,60,right,1.139999866,4,0,4,0,1,3,1,0,240,173,1,239,,,,,,,,,,,,,,,,,,
,,1,97,,,,,,,3,3,1,stim/31.jpeg,Instruments,2,stim/objects/Instruments/metronome2.png,0.9,1,-0.2,0.15,right,22,2020-12-10_13h09.53.582,premup-three_ses-01_part-01_label-phase1,3.2.4,Win32,60,right,0.883999825,4,0,4,0,1,3,1,0,240,196,1,239,,,,,,,,,,,,,,,,,,
,,1,98,,,,,,,2,2,1,stim/21.jpeg,HouseObjects,1,stim/objects/HouseObjects/iron2.png,0.7,2,0.2,0.15,left,22,2020-12-10_13h09.53.582,premup-three_ses-01_part-01_label-phase1,3.2.4,Win32,60,left,1.113000154,4,0,4,0,1,3,1,0,240,144,1,239,,,,,,,,,,,,,,,,,,
,,0,99,,,,,,,1,5,3,stim/53.jpeg,HouseObjects,1,stim/objects/HouseObjects/key.png,0.5,4,0.2,-0.15,left,22,2020-12-10_13h09.53.582,premup-three_ses-01_part-01_label-phase1,3.2.4,Win32,60,right,0.825999975,4,0,4,0,1,3,1,0,240,18,1,239,,,,,,,,,,,,,,,,,,
,,1,100,,,,,,,3,3,1,stim/31.jpeg,Instruments,2,stim/objects/Instruments/metronome2.png,0.9,3,-0.2,-0.15,right,22,2020-12-10_13h09.53.582,premup-three_ses-01_part-01_label-phase1,3.2.4,Win32,60,right,1.192000151,4,0,4,0,1,3,1,0,240,184,1,239,,,,,,,,,,,,,,,,,,
,,1,101,,,,,,,1,6,4,stim/64.jpeg,Instruments,2,stim/objects/Instruments/oboe.png,0.5,3,-0.2,-0.15,right,22,2020-12-10_13h09.53.582,premup-three_ses-01_part-01_label-phase1,3.2.4,Win32,60,right,1.257999897,4,0,4,0,1,3,1,0,240,79,1,239,,,,,,,,,,,,,,,,,,
,,1,102,,,,,,,3,4,4,stim/44.jpeg,HouseObjects,1,stim/objects/HouseObjects/rug2.png,0.9,2,0.2,0.15,left,22,2020-12-10_13h09.53.582,premup-three_ses-01_part-01_label-phase1,3.2.4,Win32,60,left,1.207000017,4,0,4,0,1,3,1,0,240,203,1,239,,,,,,,,,,,,,,,,,,
,,1,103,,,,,,,3,3,1,stim/31.jpeg,Instruments,2,stim/objects/Instruments/metronome2.png,0.9,2,0.2,0.15,right,22,2020-12-10_13h09.53.582,premup-three_ses-01_part-01_label-phase1,3.2.4,Win32,60,right,0.885999918,4,0,4,0,1,3,1,0,240,176,1,239,,,,,,,,,,,,,,,,,,
,,1,104,,,,,,,2,2,1,stim/21.jpeg,HouseObjects,1,stim/objects/HouseObjects/iron2.png,0.7,1,-0.2,0.15,left,22,2020-12-10_13h09.53.582,premup-three_ses-01_part-01_label-phase1,3.2.4,Win32,60,left,1.208999872,4,0,4,0,1,3,1,0,240,132,1,239,,,,,,,,,,,,,,,,,,
,,0,105,,,,,,,2,1,1,stim/11.jpeg,HouseObjects,1,stim/objects/HouseObjects/recyclingbin.png,0.3,1,-0.2,0.15,left,22,2020-12-10_13h09.53.582,premup-three_ses-01_part-01_label-phase1,3.2.4,Win32,60,right,0.99000001,4,0,4,0,1,3,1,0,240,80,1,239,,,,,,,,,,,,,,,,,,
,,1,106,,,,,,,2,2,4,stim/24.jpeg,HouseObjects,1,stim/objects/HouseObjects/knife2.png,0.7,2,0.2,0.15,left,22,2020-12-10_13h09.53.582,premup-three_ses-01_part-01_label-phase1,3.2.4,Win32,60,left,1.773999929,4,0,4,0,1,3,1,0,240,131,1,239,,,,,,,,,,,,,,,,,,
,,1,107,,,,,,,1,6,2,stim/62.jpeg,Instruments,2,stim/objects/Instruments/musicsheet.png,0.5,1,-0.2,0.15,right,22,2020-12-10_13h09.53.582,premup-three_ses-01_part-01_label-phase1,3.2.4,Win32,60,right,0.787000179,4,0,4,0,1,3,1,0,240,69,1,239,,,,,,,,,,,,,,,,,,
,,1,108,,,,,,,3,3,1,stim/31.jpeg,Instruments,2,stim/objects/Instruments/metronome2.png,0.9,2,0.2,0.15,right,22,2020-12-10_13h09.53.582,premup-three_ses-01_part-01_label-phase1,3.2.4,Win32,60,right,0.907999992,4,0,4,0,1,3,1,0,240,180,1,239,,,,,,,,,,,,,,,,,,
,,1,109,,,,,,,2,2,3,stim/23.jpeg,HouseObjects,1,stim/objects/HouseObjects/key2.png,0.7,3,-0.2,-0.15,left,22,2020-12-10_13h09.53.582,premup-three_ses-01_part-01_label-phase1,3.2.4,Win32,60,left,0.951999903,4,0,4,0,1,3,1,0,240,142,1,239,,,,,,,,,,,,,,,,,,
,,1,110,,,,,,,3,4,1,stim/41.jpeg,HouseObjects,1,stim/objects/HouseObjects/recyclingbin2.png,0.9,1,-0.2,0.15,left,22,2020-12-10_13h09.53.582,premup-three_ses-01_part-01_label-phase1,3.2.4,Win32,60,left,1.36500001,4,0,4,0,1,3,1,0,240,208,1,239,,,,,,,,,,,,,,,,,,
,,1,111,,,,,,,3,3,2,stim/32.jpeg,Instruments,2,stim/objects/Instruments/musicsheet2.png,0.9,4,0.2,-0.15,right,22,2020-12-10_13h09.53.582,premup-three_ses-01_part-01_label-phase1,3.2.4,Win32,60,right,0.84100008,4,0,4,0,1,3,1,0,240,197,1,239,,,,,,,,,,,,,,,,,,
,,0,112,,,,,,,2,2,1,stim/21.jpeg,Instruments,2,stim/objects/Instruments/keyboard2.png,0.3,2,0.2,0.15,right,22,2020-12-10_13h09.53.582,premup-three_ses-01_part-01_label-phase1,3.2.4,Win32,60,left,0.859999895,4,0,4,0,1,3,1,0,240,148,1,239,,,,,,,,,,,,,,,,,,
,,1,113,,,,,,,1,5,2,stim/52.jpeg,Instruments,2,stim/objects/Instruments/laud.png,0.5,2,0.2,0.15,right,22,2020-12-10_13h09.53.582,premup-three_ses-01_part-01_label-phase1,3.2.4,Win32,60,right,1.230999947,4,0,4,0,1,3,1,0,240,21,1,239,,,,,,,,,,,,,,,,,,
,,1,114,,,,,,,3,4,2,stim/42.jpeg,HouseObjects,1,stim/objects/HouseObjects/remote2.png,0.9,1,-0.2,0.15,left,22,2020-12-10_13h09.53.582,premup-three_ses-01_part-01_label-phase1,3.2.4,Win32,60,left,1.21600008,4,0,4,0,1,3,1,0,240,201,1,239,,,,,,,,,,,,,,,,,,
,,0,115,,,,,,,1,5,2,stim/52.jpeg,Instruments,2,stim/objects/Instruments/laud.png,0.5,3,-0.2,-0.15,right,22,2020-12-10_13h09.53.582,premup-three_ses-01_part-01_label-phase1,3.2.4,Win32,60,left,1.628999949,4,0,4,0,1,3,1,0,240,25,1,239,,,,,,,,,,,,,,,,,,
,,0,116,,,,,,,2,1,1,stim/11.jpeg,HouseObjects,1,stim/objects/HouseObjects/recyclingbin.png,0.3,2,0.2,0.15,left,22,2020-12-10_13h09.53.582,premup-three_ses-01_part-01_label-phase1,3.2.4,Win32,60,right,0.927999973,4,0,4,0,1,3,1,0,240,88,1,239,,,,,,,,,,,,,,,,,,
,,0,117,,,,,,,3,4,2,stim/42.jpeg,HouseObjects,1,stim/objects/HouseObjects/remote2.png,0.9,3,-0.2,-0.15,left,22,2020-12-10_13h09.53.582,premup-three_ses-01_part-01_label-phase1,3.2.4,Win32,60,right,1.016000032,4,0,4,0,1,3,1,0,240,229,1,239,,,,,,,,,,,,,,,,,,
,,0,118,,,,,,,1,6,4,stim/64.jpeg,HouseObjects,1,stim/objects/HouseObjects/pitcher.png,0.5,3,-0.2,-0.15,left,22,2020-12-10_13h09.53.582,premup-three_ses-01_part-01_label-phase1,3.2.4,Win32,60,right,0.756999969,4,0,4,0,1,3,1,0,240,47,1,239,,,,,,,,,,,,,,,,,,
,,0,119,,,,,,,1,5,3,stim/53.jpeg,HouseObjects,1,stim/objects/HouseObjects/key.png,0.5,2,0.2,0.15,left,22,2020-12-10_13h09.53.582,premup-three_ses-01_part-01_label-phase1,3.2.4,Win32,60,right,1.711999893,4,0,4,0,1,3,1,0,240,14,1,239,,,,,,,,,,,,,,,,,,
,,0,120,,,,,,,1,6,2,stim/62.jpeg,HouseObjects,1,stim/objects/HouseObjects/match.png,0.5,1,-0.2,0.15,left,22,2020-12-10_13h09.53.582,premup-three_ses-01_part-01_label-phase1,3.2.4,Win32,60,right,1.321000099,4,0,4,0,1,3,1,0,240,49,1,239,,,,,,,,,,,,,,,,,,
,,0,121,,,,,,,1,6,1,stim/61.jpeg,HouseObjects,1,stim/objects/HouseObjects/lintroller.png,0.5,1,-0.2,0.15,left,22,2020-12-10_13h09.53.582,premup-three_ses-01_part-01_label-phase1,3.2.4,Win32,60,right,0.897000074,4,0,4,0,1,3,1,0,240,56,1,239,,,,,,,,,,,,,,,,,,
,,0,122,,,,,,,3,3,2,stim/32.jpeg,Instruments,2,stim/objects/Instruments/musicsheet2.png,0.9,3,-0.2,-0.15,right,22,2020-12-10_13h09.53.582,premup-three_ses-01_part-01_label-phase1,3.2.4,Win32,60,left,1.593000174,4,0,4,0,1,3,1,0,240,193,1,239,,,,,,,,,,,,,,,,,,
,,1,123,,,,,,,3,3,2,stim/32.jpeg,Instruments,2,stim/objects/Instruments/musicsheet2.png,0.9,4,0.2,-0.15,right,22,2020-12-10_13h09.53.582,premup-three_ses-01_part-01_label-phase1,3.2.4,Win32,60,right,0.789999962,4,0,4,0,1,3,1,0,240,181,1,239,,,,,,,,,,,,,,,,,,
,,0,124,,,,,,,1,6,1,stim/61.jpeg,Instruments,2,stim/objects/Instruments/metronome.png,0.5,3,-0.2,-0.15,right,22,2020-12-10_13h09.53.582,premup-three_ses-01_part-01_label-phase1,3.2.4,Win32,60,left,1.126000166,4,0,4,0,1,3,1,0,240,68,1,239,,,,,,,,,,,,,,,,,,
,,1,125,,,,,,,1,6,4,stim/64.jpeg,Instruments,2,stim/objects/Instruments/oboe.png,0.5,3,-0.2,-0.15,right,22,2020-12-10_13h09.53.582,premup-three_ses-01_part-01_label-phase1,3.2.4,Win32,60,right,0.714999914,4,0,4,0,1,3,1,0,240,63,1,239,,,,,,,,,,,,,,,,,,
,,0,126,,,,,,,2,2,4,stim/24.jpeg,Instruments,2,stim/objects/Instruments/marimba2.png,0.3,2,0.2,0.15,right,22,2020-12-10_13h09.53.582,premup-three_ses-01_part-01_label-phase1,3.2.4,Win32,60,left,0.888999939,4,0,4,0,1,3,1,0,240,159,1,239,,,,,,,,,,,,,,,,,,
,,1,127,,,,,,,3,3,4,stim/34.jpeg,Instruments,2,stim/objects/Instruments/oboe2.png,0.9,4,0.2,-0.15,right,22,2020-12-10_13h09.53.582,premup-three_ses-01_part-01_label-phase1,3.2.4,Win32,60,right,0.84800005,4,0,4,0,1,3,1,0,240,167,1,239,,,,,,,,,,,,,,,,,,
,,0,128,,,,,,,1,5,4,stim/54.jpeg,Instruments,2,stim/objects/Instruments/marimba.png,0.5,2,0.2,0.15,right,22,2020-12-10_13h09.53.582,premup-three_ses-01_part-01_label-phase1,3.2.4,Win32,60,left,1.597000122,4,0,4,0,1,3,1,0,240,27,1,239,,,,,,,,,,,,,,,,,,
,,0,129,,,,,,,1,5,1,stim/51.jpeg,HouseObjects,1,stim/objects/HouseObjects/iron.png,0.5,2,0.2,0.15,left,22,2020-12-10_13h09.53.582,premup-three_ses-01_part-01_label-phase1,3.2.4,Win32,60,right,0.967999935,4,0,4,0,1,3,1,0,240,12,1,239,,,,,,,,,,,,,,,,,,
,,0,130,,,,,,,1,6,1,stim/61.jpeg,HouseObjects,1,stim/objects/HouseObjects/lintroller.png,0.5,2,0.2,0.15,left,22,2020-12-10_13h09.53.582,premup-three_ses-01_part-01_label-phase1,3.2.4,Win32,60,right,0.708999872,4,0,4,0,1,3,1,0,240,52,1,239,,,,,,,,,,,,,,,,,,
,,1,131,,,,,,,3,4,1,stim/41.jpeg,HouseObjects,1,stim/objects/HouseObjects/recyclingbin2.png,0.9,1,-0.2,0.15,left,22,2020-12-10_13h09.53.582,premup-three_ses-01_part-01_label-phase1,3.2.4,Win32,60,left,1.289999962,4,0,4,0,1,3,1,0,240,200,1,239,,,,,,,,,,,,,,,,,,
,,1,132,,,,,,,1,5,1,stim/51.jpeg,HouseObjects,1,stim/objects/HouseObjects/iron.png,0.5,1,-0.2,0.15,left,22,2020-12-10_13h09.53.582,premup-three_ses-01_part-01_label-phase1,3.2.4,Win32,60,left,0.870000124,4,0,4,0,1,3,1,0,240,4,1,239,,,,,,,,,,,,,,,,,,
,,0,133,,,,,,,3,4,1,stim/41.jpeg,HouseObjects,1,stim/objects/HouseObjects/recyclingbin2.png,0.9,3,-0.2,-0.15,left,22,2020-12-10_13h09.53.582,premup-three_ses-01_part-01_label-phase1,3.2.4,Win32,60,right,1.627000093,4,0,4,0,1,3,1,0,240,212,1,239,,,,,,,,,,,,,,,,,,
,,0,134,,,,,,,2,2,3,stim/23.jpeg,Instruments,2,stim/objects/Instruments/maraca2.png,0.3,1,-0.2,0.15,right,22,2020-12-10_13h09.53.582,premup-three_ses-01_part-01_label-phase1,3.2.4,Win32,60,left,1.773999929,4,0,4,0,1,3,1,0,240,158,1,239,,,,,,,,,,,,,,,,,,
,,1,135,,,,,,,2,1,3,stim/13.jpeg,Instruments,2,stim/objects/Instruments/record.png,0.7,1,-0.2,0.15,right,22,2020-12-10_13h09.53.582,premup-three_ses-01_part-01_label-phase1,3.2.4,Win32,60,right,0.931999922,4,0,4,0,1,3,1,0,240,118,1,239,,,,,,,,,,,,,,,,,,
,,0,136,,,,,,,3,3,4,stim/34.jpeg,Instruments,2,stim/objects/Instruments/oboe2.png,0.9,2,0.2,0.15,right,22,2020-12-10_13h09.53.582,premup-three_ses-01_part-01_label-phase1,3.2.4,Win32,60,,,4,0,4,0,1,3,1,0,240,171,1,239,,,,,,,,,,,,,,,,,,
,,1,137,,,,,,,1,5,4,stim/54.jpeg,HouseObjects,1,stim/objects/HouseObjects/knife.png,0.5,1,-0.2,0.15,left,22,2020-12-10_13h09.53.582,premup-three_ses-01_part-01_label-phase1,3.2.4,Win32,60,left,1.188999891,4,0,4,0,1,3,1,0,240,11,1,239,,,,,,,,,,,,,,,,,,
,,0,138,,,,,,,3,4,4,stim/44.jpeg,Instruments,2,stim/objects/Instruments/record_player2.png,0.1,3,-0.2,-0.15,right,22,2020-12-10_13h09.53.582,premup-three_ses-01_part-01_label-phase1,3.2.4,Win32,60,left,1.008000135,4,0,4,0,1,3,1,0,240,239,1,239,,,,,,,,,,,,,,,,,,
,,1,139,,,,,,,2,2,2,stim/22.jpeg,HouseObjects,1,stim/objects/HouseObjects/ironingboard2.png,0.7,4,0.2,-0.15,left,22,2020-12-10_13h09.53.582,premup-three_ses-01_part-01_label-phase1,3.2.4,Win32,60,left,1.205999851,4,0,4,0,1,3,1,0,240,141,1,239,,,,,,,,,,,,,,,,,,
,,1,140,,,,,,,2,1,1,stim/11.jpeg,Instruments,2,stim/objects/Instruments/panflute.png,0.7,2,0.2,0.15,right,22,2020-12-10_13h09.53.582,premup-three_ses-01_part-01_label-phase1,3.2.4,Win32,60,right,0.775999784,4,0,4,0,1,3,1,0,240,96,1,239,,,,,,,,,,,,,,,,,,
,,1,141,,,,,,,3,3,2,stim/32.jpeg,Instruments,2,stim/objects/Instruments/musicsheet2.png,0.9,3,-0.2,-0.15,right,22,2020-12-10_13h09.53.582,premup-three_ses-01_part-01_label-phase1,3.2.4,Win32,60,right,0.861999989,4,0,4,0,1,3,1,0,240,169,1,239,,,,,,,,,,,,,,,,,,
,,0,142,,,,,,,2,1,1,stim/11.jpeg,Instruments,2,stim/objects/Instruments/panflute.png,0.7,3,-0.2,-0.15,right,22,2020-12-10_13h09.53.582,premup-three_ses-01_part-01_label-phase1,3.2.4,Win32,60,left,1.253999949,4,0,4,0,1,3,1,0,240,100,1,239,,,,,,,,,,,,,,,,,,
,,1,143,,,,,,,2,2,3,stim/23.jpeg,HouseObjects,1,stim/objects/HouseObjects/key2.png,0.7,3,-0.2,-0.15,left,22,2020-12-10_13h09.53.582,premup-three_ses-01_part-01_label-phase1,3.2.4,Win32,60,left,0.907999992,4,0,4,0,1,3,1,0,240,130,1,239,,,,,,,,,,,,,,,,,,
,,0,144,,,,,,,3,3,4,stim/34.jpeg,HouseObjects,1,stim/objects/HouseObjects/pitcher2.png,0.1,3,-0.2,-0.15,left,22,2020-12-10_13h09.53.582,premup-three_ses-01_part-01_label-phase1,3.2.4,Win32,60,right,0.809000015,4,0,4,0,1,3,1,0,240,163,1,239,,,,,,,,,,,,,,,,,,
,,1,145,,,,,,,3,4,3,stim/43.jpeg,HouseObjects,1,stim/objects/HouseObjects/rubbergloves2.png,0.9,2,0.2,0.15,left,22,2020-12-10_13h09.53.582,premup-three_ses-01_part-01_label-phase1,3.2.4,Win32,60,left,0.884000063,4,0,4,0,1,3,1,0,240,214,1,239,,,,,,,,,,,,,,,,,,
,,1,146,,,,,,,3,4,4,stim/44.jpeg,HouseObjects,1,stim/objects/HouseObjects/rug2.png,0.9,4,0.2,-0.15,left,22,2020-12-10_13h09.53.582,premup-three_ses-01_part-01_label-phase1,3.2.4,Win32,60,left,1.092000008,4,0,4,0,1,3,1,0,240,211,1,239,,,,,,,,,,,,,,,,,,
,,0,147,,,,,,,2,2,2,stim/22.jpeg,Instruments,2,stim/objects/Instruments/laud2.png,0.3,4,0.2,-0.15,right,22,2020-12-10_13h09.53.582,premup-three_ses-01_part-01_label-phase1,3.2.4,Win32,60,left,1.357000113,4,0,4,0,1,3,1,0,240,149,1,239,,,,,,,,,,,,,,,,,,
,,0,148,,,,,,,2,2,4,stim/24.jpeg,HouseObjects,1,stim/objects/HouseObjects/knife2.png,0.7,4,0.2,-0.15,left,22,2020-12-10_13h09.53.582,premup-three_ses-01_part-01_label-phase1,3.2.4,Win32,60,right,1.360000134,4,0,4,0,1,3,1,0,240,127,1,239,,,,,,,,,,,,,,,,,,
,,1,149,,,,,,,3,4,3,stim/43.jpeg,Instruments,2,stim/objects/Instruments/record2.png,0.1,3,-0.2,-0.15,right,22,2020-12-10_13h09.53.582,premup-three_ses-01_part-01_label-phase1,3.2.4,Win32,60,right,1.220000029,4,0,4,0,1,3,1,0,240,238,1,239,,,,,,,,,,,,,,,,,,
,,1,150,,,,,,,1,5,2,stim/52.jpeg,HouseObjects,1,stim/objects/HouseObjects/ironingboard.png,0.5,3,-0.2,-0.15,left,22,2020-12-10_13h09.53.582,premup-three_ses-01_part-01_label-phase1,3.2.4,Win32,60,left,0.717000008,4,0,4,0,1,3,1,0,240,5,1,239,,,,,,,,,,,,,,,,,,
,,1,151,,,,,,,2,1,2,stim/12.jpeg,Instruments,2,stim/objects/Instruments/pipepiano.png,0.7,2,0.2,0.15,right,22,2020-12-10_13h09.53.582,premup-three_ses-01_part-01_label-phase1,3.2.4,Win32,60,right,0.917000055,4,0,4,0,1,3,1,0,240,105,1,239,,,,,,,,,,,,,,,,,,
,,1,152,,,,,,,3,3,1,stim/31.jpeg,Instruments,2,stim/objects/Instruments/metronome2.png,0.9,3,-0.2,-0.15,right,22,2020-12-10_13h09.53.582,premup-three_ses-01_part-01_label-phase1,3.2.4,Win32,60,right,1.049000025,4,0,4,0,1,3,1,0,240,192,1,239,,,,,,,,,,,,,,,,,,
,,1,153,,,,,,,2,1,3,stim/13.jpeg,Instruments,2,stim/objects/Instruments/record.png,0.7,4,0.2,-0.15,right,22,2020-12-10_13h09.53.582,premup-three_ses-01_part-01_label-phase1,3.2.4,Win32,60,right,1.281000137,4,0,4,0,1,3,1,0,240,110,1,239,,,,,,,,,,,,,,,,,,
,,0,154,,,,,,,1,6,1,stim/61.jpeg,HouseObjects,1,stim/objects/HouseObjects/lintroller.png,0.5,4,0.2,-0.15,left,22,2020-12-10_13h09.53.582,premup-three_ses-01_part-01_label-phase1,3.2.4,Win32,60,right,0.872999907,4,0,4,0,1,3,1,0,240,44,1,239,,,,,,,,,,,,,,,,,,
,,0,155,,,,,,,1,5,2,stim/52.jpeg,Instruments,2,stim/objects/Instruments/laud.png,0.5,2,0.2,0.15,right,22,2020-12-10_13h09.53.582,premup-three_ses-01_part-01_label-phase1,3.2.4,Win32,60,left,0.907999992,4,0,4,0,1,3,1,0,240,29,1,239,,,,,,,,,,,,,,,,,,
,,1,156,,,,,,,2,1,3,stim/13.jpeg,Instruments,2,stim/objects/Instruments/record.png,0.7,2,0.2,0.15,right,22,2020-12-10_13h09.53.582,premup-three_ses-01_part-01_label-phase1,3.2.4,Win32,60,right,1.18599987,4,0,4,0,1,3,1,0,240,98,1,239,,,,,,,,,,,,,,,,,,
,,0,157,,,,,,,2,2,2,stim/22.jpeg,Instruments,2,stim/objects/Instruments/laud2.png,0.3,4,0.2,-0.15,right,22,2020-12-10_13h09.53.582,premup-three_ses-01_part-01_label-phase1,3.2.4,Win32,60,left,0.769000053,4,0,4,0,1,3,1,0,240,157,1,239,,,,,,,,,,,,,,,,,,
,,0,158,,,,,,,2,2,4,stim/24.jpeg,Instruments,2,stim/objects/Instruments/marimba2.png,0.3,3,-0.2,-0.15,right,22,2020-12-10_13h09.53.582,premup-three_ses-01_part-01_label-phase1,3.2.4,Win32,60,left,0.881000042,4,0,4,0,1,3,1,0,240,151,1,239,,,,,,,,,,,,,,,,,,
,,0,159,,,,,,,3,4,3,stim/43.jpeg,HouseObjects,1,stim/objects/HouseObjects/rubbergloves2.png,0.9,1,-0.2,0.15,left,22,2020-12-10_13h09.53.582,premup-three_ses-01_part-01_label-phase1,3.2.4,Win32,60,right,1.737999916,4,0,4,0,1,3,1,0,240,210,1,239,,,,,,,,,,,,,,,,,,
,,1,160,,,,,,,3,3,1,stim/31.jpeg,Instruments,2,stim/objects/Instruments/metronome2.png,0.9,1,-0.2,0.15,right,22,2020-12-10_13h09.53.582,premup-three_ses-01_part-01_label-phase1,3.2.4,Win32,60,right,0.842000008,4,0,4,0,1,3,1,0,240,164,1,239,,,,,,,,,,,,,,,,,,
,,1,161,,,,,,,1,6,4,stim/64.jpeg,Instruments,2,stim/objects/Instruments/oboe.png,0.5,1,-0.2,0.15,right,22,2020-12-10_13h09.53.582,premup-three_ses-01_part-01_label-phase1,3.2.4,Win32,60,right,1.138999939,4,0,4,0,1,3,1,0,240,71,1,239,,,,,,,,,,,,,,,,,,
,,0,162,,,,,,,1,5,3,stim/53.jpeg,HouseObjects,1,stim/objects/HouseObjects/key.png,0.5,3,-0.2,-0.15,left,22,2020-12-10_13h09.53.582,premup-three_ses-01_part-01_label-phase1,3.2.4,Win32,60,right,0.845999956,4,0,4,0,1,3,1,0,240,10,1,239,,,,,,,,,,,,,,,,,,
,,1,163,,,,,,,3,3,4,stim/34.jpeg,Instruments,2,stim/objects/Instruments/oboe2.png,0.9,2,0.2,0.15,right,22,2020-12-10_13h09.53.582,premup-three_ses-01_part-01_label-phase1,3.2.4,Win32,60,right,1.006999969,4,0,4,0,1,3,1,0,240,175,1,239,,,,,,,,,,,,,,,,,,
,,1,164,,,,,,,2,2,3,stim/23.jpeg,HouseObjects,1,stim/objects/HouseObjects/key2.png,0.7,2,0.2,0.15,left,22,2020-12-10_13h09.53.582,premup-three_ses-01_part-01_label-phase1,3.2.4,Win32,60,left,0.891000032,4,0,4,0,1,3,1,0,240,146,1,239,,,,,,,,,,,,,,,,,,
,,0,165,,,,,,,2,1,3,stim/13.jpeg,HouseObjects,1,stim/objects/HouseObjects/rubbergloves.png,0.3,4,0.2,-0.15,left,22,2020-12-10_13h09.53.582,premup-three_ses-01_part-01_label-phase1,3.2.4,Win32,60,right,0.960999966,4,0,4,0,1,3,1,0,240,86,1,239,,,,,,,,,,,,,,,,,,
,,0,166,,,,,,,2,1,1,stim/11.jpeg,HouseObjects,1,stim/objects/HouseObjects/recyclingbin.png,0.3,4,0.2,-0.15,left,22,2020-12-10_13h09.53.582,premup-three_ses-01_part-01_label-phase1,3.2.4,Win32,60,right,1.17599988,4,0,4,0,1,3,1,0,240,84,1,239,,,,,,,,,,,,,,,,,,
,,1,167,,,,,,,1,6,1,stim/61.jpeg,HouseObjects,1,stim/objects/HouseObjects/lintroller.png,0.5,2,0.2,0.15,left,22,2020-12-10_13h09.53.582,premup-three_ses-01_part-01_label-phase1,3.2.4,Win32,60,left,0.612999916,4,0,4,0,1,3,1,0,240,48,1,239,,,,,,,,,,,,,,,,,,
,,0,168,,,,,,,3,4,2,stim/42.jpeg,HouseObjects,1,stim/objects/HouseObjects/remote2.png,0.9,3,-0.2,-0.15,left,22,2020-12-10_13h09.53.582,premup-three_ses-01_part-01_label-phase1,3.2.4,Win32,60,right,0.768000126,4,0,4,0,1,3,1,0,240,205,1,239,,,,,,,,,,,,,,,,,,
,,1,169,,,,,,,3,3,2,stim/32.jpeg,Instruments,2,stim/objects/Instruments/musicsheet2.png,0.9,4,0.2,-0.15,right,22,2020-12-10_13h09.53.582,premup-three_ses-01_part-01_label-phase1,3.2.4,Win32,60,right,1.329999924,4,0,4,0,1,3,1,0,240,165,1,239,,,,,,,,,,,,,,,,,,
,,1,170,,,,,,,3,4,3,stim/43.jpeg,HouseObjects,1,stim/objects/HouseObjects/rubbergloves2.png,0.9,1,-0.2,0.15,left,22,2020-12-10_13h09.53.582,premup-three_ses-01_part-01_label-phase1,3.2.4,Win32,60,left,0.90899992,4,0,4,0,1,3,1,0,240,234,1,239,,,,,,,,,,,,,,,,,,
,,1,171,,,,,,,3,3,4,stim/34.jpeg,Instruments,2,stim/objects/Instruments/oboe2.png,0.9,2,0.2,0.15,right,22,2020-12-10_13h09.53.582,premup-three_ses-01_part-01_label-phase1,3.2.4,Win32,60,right,0.957000017,4,0,4,0,1,3,1,0,240,187,1,239,,,,,,,,,,,,,,,,,,
,,1,172,,,,,,,3,3,2,stim/32.jpeg,Instruments,2,stim/objects/Instruments/musicsheet2.png,0.9,4,0.2,-0.15,right,22,2020-12-10_13h09.53.582,premup-three_ses-01_part-01_label-phase1,3.2.4,Win32,60,right,1.088999987,4,0,4,0,1,3,1,0,240,189,1,239,,,,,,,,,,,,,,,,,,
,,1,173,,,,,,,2,2,4,stim/24.jpeg,HouseObjects,1,stim/objects/HouseObjects/knife2.png,0.7,2,0.2,0.15,left,22,2020-12-10_13h09.53.582,premup-three_ses-01_part-01_label-phase1,3.2.4,Win32,60,left,1.04399991,4,0,4,0,1,3,1,0,240,135,1,239,,,,,,,,,,,,,,,,,,
,,1,174,,,,,,,3,4,1,stim/41.jpeg,HouseObjects,1,stim/objects/HouseObjects/recyclingbin2.png,0.9,3,-0.2,-0.15,left,22,2020-12-10_13h09.53.582,premup-three_ses-01_part-01_label-phase1,3.2.4,Win32,60,left,0.947999954,4,0,4,0,1,3,1,0,240,204,1,239,,,,,,,,,,,,,,,,,,
,,1,175,,,,,,,1,5,1,stim/51.jpeg,Instruments,2,stim/objects/Instruments/keyboard.png,0.5,1,-0.2,0.15,right,22,2020-12-10_13h09.53.582,premup-three_ses-01_part-01_label-phase1,3.2.4,Win32,60,right,0.786000013,4,0,4,0,1,3,1,0,240,24,1,239,,,,,,,,,,,,,,,,,,
,,1,176,,,,,,,2,1,1,stim/11.jpeg,Instruments,2,stim/objects/Instruments/panflute.png,0.7,3,-0.2,-0.15,right,22,2020-12-10_13h09.53.582,premup-three_ses-01_part-01_label-phase1,3.2.4,Win32,60,right,1.270999908,4,0,4,0,1,3,1,0,240,116,1,239,,,,,,,,,,,,,,,,,,
,,0,177,,,,,,,1,6,3,stim/63.jpeg,Instruments,2,stim/objects/Instruments/musicstand.png,0.5,3,-0.2,-0.15,right,22,2020-12-10_13h09.53.582,premup-three_ses-01_part-01_label-phase1,3.2.4,Win32,60,left,1.553999901,4,0,4,0,1,3,1,0,240,70,1,239,,,,,,,,,,,,,,,,,,
,,1,178,,,,,,,2,2,2,stim/22.jpeg,HouseObjects,1,stim/objects/HouseObjects/ironingboard2.png,0.7,4,0.2,-0.15,left,22,2020-12-10_13h09.53.582,premup-three_ses-01_part-01_label-phase1,3.2.4,Win32,60,left,1.365999937,4,0,4,0,1,3,1,0,240,125,1,239,,,,,,,,,,,,,,,,,,
,,1,179,,,,,,,1,5,4,stim/54.jpeg,Instruments,2,stim/objects/Instruments/marimba.png,0.5,4,0.2,-0.15,right,22,2020-12-10_13h09.53.582,premup-three_ses-01_part-01_label-phase1,3.2.4,Win32,60,right,1.261999846,4,0,4,0,1,3,1,0,240,35,1,239,,,,,,,,,,,,,,,,,,
,,1,180,,,,,,,3,4,4,stim/44.jpeg,HouseObjects,1,stim/objects/HouseObjects/rug2.png,0.9,2,0.2,0.15,left,22,2020-12-10_13h09.53.582,premup-three_ses-01_part-01_label-phase1,3.2.4,Win32,60,left,1.230999947,4,0,4,0,1,3,1,0,240,227,1,239,,,,,,,,,,,,,,,,,,
,,0,181,,,,,,,3,4,1,stim/41.jpeg,Instruments,2,stim/objects/Instruments/panflute2.png,0.1,1,-0.2,0.15,right,22,2020-12-10_13h09.53.582,premup-three_ses-01_part-01_label-phase1,3.2.4,Win32,60,left,1.174000025,4,0,4,0,1,3,1,0,240,236,1,239,,,,,,,,,,,,,,,,,,
,,0,182,,,,,,,1,5,4,stim/54.jpeg,Instruments,2,stim/objects/Instruments/marimba.png,0.5,3,-0.2,-0.15,right,22,2020-12-10_13h09.53.582,premup-three_ses-01_part-01_label-phase1,3.2.4,Win32,60,left,1.377000093,4,0,4,0,1,3,1,0,240,31,1,239,,,,,,,,,,,,,,,,,,
,,0,183,,,,,,,2,1,3,stim/13.jpeg,HouseObjects,1,stim/objects/HouseObjects/rubbergloves.png,0.3,1,-0.2,0.15,left,22,2020-12-10_13h09.53.582,premup-three_ses-01_part-01_label-phase1,3.2.4,Win32,60,right,1.13499999,4,0,4,0,1,3,1,0,240,90,1,239,,,,,,,,,,,,,,,,,,
,,1,184,,,,,,,1,6,2,stim/62.jpeg,Instruments,2,stim/objects/Instruments/musicsheet.png,0.5,2,0.2,0.15,right,22,2020-12-10_13h09.53.582,premup-three_ses-01_part-01_label-phase1,3.2.4,Win32,60,right,1.138999939,4,0,4,0,1,3,1,0,240,65,1,239,,,,,,,,,,,,,,,,,,
,,0,185,,,,,,,2,1,4,stim/14.jpeg,HouseObjects,1,stim/objects/HouseObjects/rug.png,0.3,3,-0.2,-0.15,left,22,2020-12-10_13h09.53.582,premup-three_ses-01_part-01_label-phase1,3.2.4,Win32,60,right,0.851999998,4,0,4,0,1,3,1,0,240,91,1,239,,,,,,,,,,,,,,,,,,
,,1,186,,,,,,,2,2,4,stim/24.jpeg,HouseObjects,1,stim/objects/HouseObjects/knife2.png,0.7,4,0.2,-0.15,left,22,2020-12-10_13h09.53.582,premup-three_ses-01_part-01_label-phase1,3.2.4,Win32,60,left,1.306999922,4,0,4,0,1,3,1,0,240,147,1,239,,,,,,,,,,,,,,,,,,
,,1,187,,,,,,,2,1,3,stim/13.jpeg,Instruments,2,stim/objects/Instruments/record.png,0.7,1,-0.2,0.15,right,22,2020-12-10_13h09.53.582,premup-three_ses-01_part-01_label-phase1,3.2.4,Win32,60,right,1.088999987,4,0,4,0,1,3,1,0,240,102,1,239,,,,,,,,,,,,,,,,,,
,,1,188,,,,,,,2,2,1,stim/21.jpeg,HouseObjects,1,stim/objects/HouseObjects/iron2.png,0.7,2,0.2,0.15,left,22,2020-12-10_13h09.53.582,premup-three_ses-01_part-01_label-phase1,3.2.4,Win32,60,left,0.950999975,4,0,4,0,1,3,1,0,240,128,1,239,,,,,,,,,,,,,,,,,,
,,0,189,,,,,,,2,2,2,stim/22.jpeg,Instruments,2,stim/objects/Instruments/laud2.png,0.3,3,-0.2,-0.15,right,22,2020-12-10_13h09.53.582,premup-three_ses-01_part-01_label-phase1,3.2.4,Win32,60,left,1.101999998,4,0,4,0,1,3,1,0,240,153,1,239,,,,,,,,,,,,,,,,,,
,,1,190,,,,,,,2,1,2,stim/12.jpeg,Instruments,2,stim/objects/Instruments/pipepiano.png,0.7,1,-0.2,0.15,right,22,2020-12-10_13h09.53.582,premup-three_ses-01_part-01_label-phase1,3.2.4,Win32,60,right,0.746999979,4,0,4,0,1,3,1,0,240,93,1,239,,,,,,,,,,,,,,,,,,
,,0,191,,,,,,,2,2,1,stim/21.jpeg,HouseObjects,1,stim/objects/HouseObjects/iron2.png,0.7,3,-0.2,-0.15,left,22,2020-12-10_13h09.53.582,premup-three_ses-01_part-01_label-phase1,3.2.4,Win32,60,right,0.957999945,4,0,4,0,1,3,1,0,240,140,1,239,,,,,,,,,,,,,,,,,,
,,1,192,,,,,,,2,1,2,stim/12.jpeg,HouseObjects,1,stim/objects/HouseObjects/remote.png,0.3,1,-0.2,0.15,left,22,2020-12-10_13h09.53.582,premup-three_ses-01_part-01_label-phase1,3.2.4,Win32,60,left,1.460000038,4,0,4,0,1,3,1,0,240,89,1,239,,,,,,,,,,,,,,,,,,
,,1,193,,,,,,,3,4,2,stim/42.jpeg,HouseObjects,1,stim/objects/HouseObjects/remote2.png,0.9,2,0.2,0.15,left,22,2020-12-10_13h09.53.582,premup-three_ses-01_part-01_label-phase1,3.2.4,Win32,60,left,1.354000092,4,0,4,0,1,3,1,0,240,225,1,239,,,,,,,,,,,,,,,,,,
,,0,194,,,,,,,1,5,3,stim/53.jpeg,HouseObjects,1,stim/objects/HouseObjects/key.png,0.5,1,-0.2,0.15,left,22,2020-12-10_13h09.53.582,premup-three_ses-01_part-01_label-phase1,3.2.4,Win32,60,right,1.05099988,4,0,4,0,1,3,1,0,240,2,1,239,,,,,,,,,,,,,,,,,,
,,1,195,,,,,,,1,6,1,stim/61.jpeg,Instruments,2,stim/objects/Instruments/metronome.png,0.5,2,0.2,0.15,right,22,2020-12-10_13h09.53.582,premup-three_ses-01_part-01_label-phase1,3.2.4,Win32,60,right,1.194000006,4,0,4,0,1,3,1,0,240,60,1,239,,,,,,,,,,,,,,,,,,
,,1,196,,,,,,,3,4,3,stim/43.jpeg,HouseObjects,1,stim/objects/HouseObjects/rubbergloves2.png,0.9,2,0.2,0.15,left,22,2020-12-10_13h09.53.582,premup-three_ses-01_part-01_label-phase1,3.2.4,Win32,60,left,1.121000051,4,0,4,0,1,3,1,0,240,218,1,239,,,,,,,,,,,,,,,,,,
,,1,197,,,,,,,1,6,2,stim/62.jpeg,Instruments,2,stim/objects/Instruments/musicsheet.png,0.5,4,0.2,-0.15,right,22,2020-12-10_13h09.53.582,premup-three_ses-01_part-01_label-phase1,3.2.4,Win32,60,right,1.291000128,4,0,4,0,1,3,1,0,240,61,1,239,,,,,,,,,,,,,,,,,,
,,1,198,,,,,,,2,2,2,stim/22.jpeg,HouseObjects,1,stim/objects/HouseObjects/ironingboard2.png,0.7,3,-0.2,-0.15,left,22,2020-12-10_13h09.53.582,premup-three_ses-01_part-01_label-phase1,3.2.4,Win32,60,left,1.058000088,4,0,4,0,1,3,1,0,240,137,1,239,,,,,,,,,,,,,,,,,,
,,1,199,,,,,,,3,3,2,stim/32.jpeg,Instruments,2,stim/objects/Instruments/musicsheet2.png,0.9,4,0.2,-0.15,right,22,2020-12-10_13h09.53.582,premup-three_ses-01_part-01_label-phase1,3.2.4,Win32,60,right,0.770999908,4,0,4,0,1,3,1,0,240,177,1,239,,,,,,,,,,,,,,,,,,
,,1,200,,,,,,,2,2,4,stim/24.jpeg,HouseObjects,1,stim/objects/HouseObjects/knife2.png,0.7,3,-0.2,-0.15,left,22,2020-12-10_13h09.53.582,premup-three_ses-01_part-01_label-phase1,3.2.4,Win32,60,left,0.746000051,4,0,4,0,1,3,1,0,240,143,1,239,,,,,,,,,,,,,,,,,,
,,1,201,,,,,,,1,6,3,stim/63.jpeg,Instruments,2,stim/objects/Instruments/musicstand.png,0.5,4,0.2,-0.15,right,22,2020-12-10_13h09.53.582,premup-three_ses-01_part-01_label-phase1,3.2.4,Win32,60,right,0.747999907,4,0,4,0,1,3,1,0,240,62,1,239,,,,,,,,,,,,,,,,,,
,,1,202,,,,,,,1,6,2,stim/62.jpeg,Instruments,2,stim/objects/Instruments/musicsheet.png,0.5,2,0.2,0.15,right,22,2020-12-10_13h09.53.582,premup-three_ses-01_part-01_label-phase1,3.2.4,Win32,60,right,0.759000063,4,0,4,0,1,3,1,0,240,77,1,239,,,,,,,,,,,,,,,,,,
,,0,203,,,,,,,1,5,2,stim/52.jpeg,HouseObjects,1,stim/objects/HouseObjects/ironingboard.png,0.5,2,0.2,0.15,left,22,2020-12-10_13h09.53.582,premup-three_ses-01_part-01_label-phase1,3.2.4,Win32,60,right,1.112999916,4,0,4,0,1,3,1,0,240,1,1,239,,,,,,,,,,,,,,,,,,
,,1,204,,,,,,,2,1,4,stim/14.jpeg,Instruments,2,stim/objects/Instruments/record_player.png,0.7,1,-0.2,0.15,right,22,2020-12-10_13h09.53.582,premup-three_ses-01_part-01_label-phase1,3.2.4,Win32,60,right,1.028000116,4,0,4,0,1,3,1,0,240,99,1,239,,,,,,,,,,,,,,,,,,
,,1,205,,,,,,,1,5,2,stim/52.jpeg,HouseObjects,1,stim/objects/HouseObjects/ironingboard.png,0.5,2,0.2,0.15,left,22,2020-12-10_13h09.53.582,premup-three_ses-01_part-01_label-phase1,3.2.4,Win32,60,left,1.228000164,4,0,4,0,1,3,1,0,240,17,1,239,,,,,,,,,,,,,,,,,,
,,1,206,,,,,,,1,5,3,stim/53.jpeg,Instruments,2,stim/objects/Instruments/maraca.png,0.5,2,0.2,0.15,right,22,2020-12-10_13h09.53.582,premup-three_ses-01_part-01_label-phase1,3.2.4,Win32,60,right,1.246999979,4,0,4,0,1,3,1,0,240,26,1,239,,,,,,,,,,,,,,,,,,
,,0,207,,,,,,,2,1,3,stim/13.jpeg,Instruments,2,stim/objects/Instruments/record.png,0.7,4,0.2,-0.15,right,22,2020-12-10_13h09.53.582,premup-three_ses-01_part-01_label-phase1,3.2.4,Win32,60,left,1.263000011,4,0,4,0,1,3,1,0,240,114,1,239,,,,,,,,,,,,,,,,,,
,,1,208,,,,,,,3,4,1,stim/41.jpeg,HouseObjects,1,stim/objects/HouseObjects/recyclingbin2.png,0.9,2,0.2,0.15,left,22,2020-12-10_13h09.53.582,premup-three_ses-01_part-01_label-phase1,3.2.4,Win32,60,left,0.822000027,4,0,4,0,1,3,1,0,240,216,1,239,,,,,,,,,,,,,,,,,,
,,0,209,,,,,,,1,5,3,stim/53.jpeg,HouseObjects,1,stim/objects/HouseObjects/key.png,0.5,4,0.2,-0.15,left,22,2020-12-10_13h09.53.582,premup-three_ses-01_part-01_label-phase1,3.2.4,Win32,60,right,0.976999998,4,0,4,0,1,3,1,0,240,6,1,239,,,,,,,,,,,,,,,,,,
,,1,210,,,,,,,1,6,2,stim/62.jpeg,Instruments,2,stim/objects/Instruments/musicsheet.png,0.5,1,-0.2,0.15,right,22,2020-12-10_13h09.53.582,premup-three_ses-01_part-01_label-phase1,3.2.4,Win32,60,right,0.808000088,4,0,4,0,1,3,1,0,240,73,1,239,,,,,,,,,,,,,,,,,,
,,1,211,,,,,,,2,1,3,stim/13.jpeg,HouseObjects,1,stim/objects/HouseObjects/rubbergloves.png,0.3,4,0.2,-0.15,left,22,2020-12-10_13h09.53.582,premup-three_ses-01_part-01_label-phase1,3.2.4,Win32,60,left,1.295000076,4,0,4,0,1,3,1,0,240,82,1,239,,,,,,,,,,,,,,,,,,
,,0,212,,,,,,,1,6,1,stim/61.jpeg,HouseObjects,1,stim/objects/HouseObjects/lintroller.png,0.5,4,0.2,-0.15,left,22,2020-12-10_13h09.53.582,premup-three_ses-01_part-01_label-phase1,3.2.4,Win32,60,right,0.785000086,4,0,4,0,1,3,1,0,240,40,1,239,,,,,,,,,,,,,,,,,,
,,1,213,,,,,,,2,1,2,stim/12.jpeg,Instruments,2,stim/objects/Instruments/pipepiano.png,0.7,3,-0.2,-0.15,right,22,2020-12-10_13h09.53.582,premup-three_ses-01_part-01_label-phase1,3.2.4,Win32,60,right,0.953999996,4,0,4,0,1,3,1,0,240,101,1,239,,,,,,,,,,,,,,,,,,
,,1,214,,,,,,,1,6,1,stim/61.jpeg,Instruments,2,stim/objects/Instruments/metronome.png,0.5,1,-0.2,0.15,right,22,2020-12-10_13h09.53.582,premup-three_ses-01_part-01_label-phase1,3.2.4,Win32,60,right,0.631999969,4,0,4,0,1,3,1,0,240,72,1,239,,,,,,,,,,,,,,,,,,
,,1,215,,,,,,,3,3,4,stim/34.jpeg,Instruments,2,stim/objects/Instruments/oboe2.png,0.9,1,-0.2,0.15,right,22,2020-12-10_13h09.53.582,premup-three_ses-01_part-01_label-phase1,3.2.4,Win32,60,right,0.673000097,4,0,4,0,1,3,1,0,240,183,1,239,,,,,,,,,,,,,,,,,,
,,1,216,,,,,,,2,1,4,stim/14.jpeg,Instruments,2,stim/objects/Instruments/record_player.png,0.7,2,0.2,0.15,right,22,2020-12-10_13h09.53.582,premup-three_ses-01_part-01_label-phase1,3.2.4,Win32,60,right,0.598999977,4,0,4,0,1,3,1,0,240,107,1,239,,,,,,,,,,,,,,,,,,
,,0,217,,,,,,,1,6,3,stim/63.jpeg,HouseObjects,1,stim/objects/HouseObjects/pan.png,0.5,1,-0.2,0.15,left,22,2020-12-10_13h09.53.582,premup-three_ses-01_part-01_label-phase1,3.2.4,Win32,60,right,0.601999998,4,0,4,0,1,3,1,0,240,58,1,239,,,,,,,,,,,,,,,,,,
,,0,218,,,,,,,3,4,1,stim/41.jpeg,HouseObjects,1,stim/objects/HouseObjects/recyclingbin2.png,0.9,1,-0.2,0.15,left,22,2020-12-10_13h09.53.582,premup-three_ses-01_part-01_label-phase1,3.2.4,Win32,60,right,0.761999846,4,0,4,0,1,3,1,0,240,224,1,239,,,,,,,,,,,,,,,,,,
,,0,219,,,,,,,1,5,2,stim/52.jpeg,HouseObjects,1,stim/objects/HouseObjects/ironingboard.png,0.5,1,-0.2,0.15,left,22,2020-12-10_13h09.53.582,premup-three_ses-01_part-01_label-phase1,3.2.4,Win32,60,right,0.842999935,4,0,4,0,1,3,1,0,240,13,1,239,,,,,,,,,,,,,,,,,,
,,0,220,,,,,,,1,5,1,stim/51.jpeg,Instruments,2,stim/objects/Instruments/keyboard.png,0.5,1,-0.2,0.15,right,22,2020-12-10_13h09.53.582,premup-three_ses-01_part-01_label-phase1,3.2.4,Win32,60,left,0.846999884,4,0,4,0,1,3,1,0,240,32,1,239,,,,,,,,,,,,,,,,,,
,,1,221,,,,,,,3,4,3,stim/43.jpeg,HouseObjects,1,stim/objects/HouseObjects/rubbergloves2.png,0.9,4,0.2,-0.15,left,22,2020-12-10_13h09.53.582,premup-three_ses-01_part-01_label-phase1,3.2.4,Win32,60,left,1.088000059,4,0,4,0,1,3,1,0,240,222,1,239,,,,,,,,,,,,,,,,,,
,,1,222,,,,,,,1,5,4,stim/54.jpeg,Instruments,2,stim/objects/Instruments/marimba.png,0.5,2,0.2,0.15,right,22,2020-12-10_13h09.53.582,premup-three_ses-01_part-01_label-phase1,3.2.4,Win32,60,right,0.811000109,4,0,4,0,1,3,1,0,240,23,1,239,,,,,,,,,,,,,,,,,,
,,0,223,,,,,,,2,2,2,stim/22.jpeg,HouseObjects,1,stim/objects/HouseObjects/ironingboard2.png,0.7,1,-0.2,0.15,left,22,2020-12-10_13h09.53.582,premup-three_ses-01_part-01_label-phase1,3.2.4,Win32,60,right,0.739000082,4,0,4,0,1,3,1,0,240,133,1,239,,,,,,,,,,,,,,,,,,
,,1,224,,,,,,,2,2,2,stim/22.jpeg,HouseObjects,1,stim/objects/HouseObjects/ironingboard2.png,0.7,3,-0.2,-0.15,left,22,2020-12-10_13h09.53.582,premup-three_ses-01_part-01_label-phase1,3.2.4,Win32,60,left,0.673000097,4,0,4,0,1,3,1,0,240,145,1,239,,,,,,,,,,,,,,,,,,
,,0,225,,,,,,,3,4,2,stim/42.jpeg,HouseObjects,1,stim/objects/HouseObjects/remote2.png,0.9,2,0.2,0.15,left,22,2020-12-10_13h09.53.582,premup-three_ses-01_part-01_label-phase1,3.2.4,Win32,60,right,0.766000032,4,0,4,0,1,3,1,0,240,213,1,239,,,,,,,,,,,,,,,,,,
,,1,226,,,,,,,3,3,4,stim/34.jpeg,Instruments,2,stim/objects/Instruments/oboe2.png,0.9,4,0.2,-0.15,right,22,2020-12-10_13h09.53.582,premup-three_ses-01_part-01_label-phase1,3.2.4,Win32,60,right,0.589999914,4,0,4,0,1,3,1,0,240,179,1,239,,,,,,,,,,,,,,,,,,
,,0,227,,,,,,,2,2,4,stim/24.jpeg,Instruments,2,stim/objects/Instruments/marimba2.png,0.3,2,0.2,0.15,right,22,2020-12-10_13h09.53.582,premup-three_ses-01_part-01_label-phase1,3.2.4,Win32,60,left,0.689999819,4,0,4,0,1,3,1,0,240,155,1,239,,,,,,,,,,,,,,,,,,
,,0,228,,,,,,,1,6,4,stim/64.jpeg,HouseObjects,1,stim/objects/HouseObjects/pitcher.png,0.5,4,0.2,-0.15,left,22,2020-12-10_13h09.53.582,premup-three_ses-01_part-01_label-phase1,3.2.4,Win32,60,right,0.669000149,4,0,4,0,1,3,1,0,240,51,1,239,,,,,,,,,,,,,,,,,,
,,1,229,,,,,,,2,1,2,stim/12.jpeg,Instruments,2,stim/objects/Instruments/pipepiano.png,0.7,1,-0.2,0.15,right,22,2020-12-10_13h09.53.582,premup-three_ses-01_part-01_label-phase1,3.2.4,Win32,60,right,0.735000134,4,0,4,0,1,3,1,0,240,117,1,239,,,,,,,,,,,,,,,,,,
,,1,230,,,,,,,3,4,3,stim/43.jpeg,HouseObjects,1,stim/objects/HouseObjects/rubbergloves2.png,0.9,3,-0.2,-0.15,left,22,2020-12-10_13h09.53.582,premup-three_ses-01_part-01_label-phase1,3.2.4,Win32,60,left,0.940000057,4,0,4,0,1,3,1,0,240,206,1,239,,,,,,,,,,,,,,,,,,
,,1,231,,,,,,,3,3,2,stim/32.jpeg,Instruments,2,stim/objects/Instruments/musicsheet2.png,0.9,1,-0.2,0.15,right,22,2020-12-10_13h09.53.582,premup-three_ses-01_part-01_label-phase1,3.2.4,Win32,60,right,0.809000015,4,0,4,0,1,3,1,0,240,185,1,239,,,,,,,,,,,,,,,,,,
,,0,232,,,,,,,3,3,3,stim/33.jpeg,HouseObjects,1,stim/objects/HouseObjects/pan2.png,0.1,4,0.2,-0.15,left,22,2020-12-10_13h09.53.582,premup-three_ses-01_part-01_label-phase1,3.2.4,Win32,60,right,1.276000023,4,0,4,0,1,3,1,0,240,162,1,239,,,,,,,,,,,,,,,,,,
,,1,233,,,,,,,3,3,4,stim/34.jpeg,Instruments,2,stim/objects/Instruments/oboe2.png,0.9,1,-0.2,0.15,right,22,2020-12-10_13h09.53.582,premup-three_ses-01_part-01_label-phase1,3.2.4,Win32,60,right,0.701999903,4,0,4,0,1,3,1,0,240,199,1,239,,,,,,,,,,,,,,,,,,
,,1,234,,,,,,,3,4,2,stim/42.jpeg,HouseObjects,1,stim/objects/HouseObjects/remote2.png,0.9,4,0.2,-0.15,left,22,2020-12-10_13h09.53.582,premup-three_ses-01_part-01_label-phase1,3.2.4,Win32,60,left,0.960999966,4,0,4,0,1,3,1,0,240,217,1,239,,,,,,,,,,,,,,,,,,
,,1,235,,,,,,,2,1,1,stim/11.jpeg,Instruments,2,stim/objects/Instruments/panflute.png,0.7,1,-0.2,0.15,right,22,2020-12-10_13h09.53.582,premup-three_ses-01_part-01_label-phase1,3.2.4,Win32,60,right,0.897000074,4,0,4,0,1,3,1,0,240,108,1,239,,,,,,,,,,,,,,,,,,
,,1,236,,,,,,,2,2,3,stim/23.jpeg,HouseObjects,1,stim/objects/HouseObjects/key2.png,0.7,2,0.2,0.15,left,22,2020-12-10_13h09.53.582,premup-three_ses-01_part-01_label-phase1,3.2.4,Win32,60,left,0.796999931,4,0,4,0,1,3,1,0,240,134,1,239,,,,,,,,,,,,,,,,,,
,,0,237,,,,,,,1,6,3,stim/63.jpeg,HouseObjects,1,stim/objects/HouseObjects/pan.png,0.5,1,-0.2,0.15,left,22,2020-12-10_13h09.53.582,premup-three_ses-01_part-01_label-phase1,3.2.4,Win32,60,right,0.758000135,4,0,4,0,1,3,1,0,240,42,1,239,,,,,,,,,,,,,,,,,,
,,1,238,,,,,,,3,4,3,stim/43.jpeg,HouseObjects,1,stim/objects/HouseObjects/rubbergloves2.png,0.9,2,0.2,0.15,left,22,2020-12-10_13h09.53.582,premup-three_ses-01_part-01_label-phase1,3.2.4,Win32,60,left,0.890000105,4,0,4,0,1,3,1,0,240,226,1,239,,,,,,,,,,,,,,,,,,
,,0,239,,,,,,,3,3,1,stim/31.jpeg,HouseObjects,1,stim/objects/HouseObjects/lintroller2.png,0.1,4,0.2,-0.15,left,22,2020-12-10_13h09.53.582,premup-three_ses-01_part-01_label-phase1,3.2.4,Win32,60,right,0.647000074,4,0,4,0,1,3,1,0,240,160,1,239,,,,,,,,,,,,,,,,,,
,,0,240,,,,,,,1,6,2,stim/62.jpeg,HouseObjects,1,stim/objects/HouseObjects/match.png,0.5,4,0.2,-0.15,left,22,2020-12-10_13h09.53.582,premup-three_ses-01_part-01_label-phase1,3.2.4,Win32,60,right,0.705999851,4,0,4,0,1,3,1,0,240,45,1,239,,,,,,,,,,,,,,,,,,
,,,,,,,,,,,6,,stim/61.jpeg,,,,,,,,,22,2020-12-10_13h09.53.582,premup-three_ses-01_part-01_label-phase1,3.2.4,Win32,60,,,4,0,4,0,1,3,,,,,,,1,0,34,15.21599984,,,1,0,6,5,1,5,Household items,5,15,Music items,85,95
,,,,,,,,,,,4,,stim/41.jpeg,,,,,,,,,22,2020-12-10_13h09.53.582,premup-three_ses-01_part-01_label-phase1,3.2.4,Win32,60,,,4,0,4,0,1,3,,,,,,,1,0,79,9.292000055,,,1,0,6,3,1,5,Household items,65,75,Music items,25,35
,,,,,,,,,,,1,,stim/11.jpeg,,,,,,,,,22,2020-12-10_13h09.53.582,premup-three_ses-01_part-01_label-phase1,3.2.4,Win32,60,,,4,0,4,0,1,3,,,,,,,1,0,64,3.527999878,,,1,0,6,0,1,5,Household items,45,55,Music items,45,55
,,,,,,,,,,,5,,stim/51.jpeg,,,,,,,,,22,2020-12-10_13h09.53.582,premup-three_ses-01_part-01_label-phase1,3.2.4,Win32,60,,,4,0,4,0,1,3,,,,,,,1,0,65,4.438999891,,,1,0,6,4,1,5,Music items,5,15,Household items,85,95
,,,,,,,,,,,3,,stim/31.jpeg,,,,,,,,,22,2020-12-10_13h09.53.582,premup-three_ses-01_part-01_label-phase1,3.2.4,Win32,60,,,4,0,4,0,1,3,,,,,,,1,0,26,7.687999964,,,1,0,6,2,1,5,Household items,65,75,Music items,25,35
,,,,,,,,,,,2,,stim/21.jpeg,,,,,,,,,22,2020-12-10_13h09.53.582,premup-three_ses-01_part-01_label-phase1,3.2.4,Win32,60,,,4,0,4,0,1,3,,,,,,,1,0,27,5.823999882,,,1,0,6,1,1,5,Music items,45,55,Household items,45,55
,,,,,,,,,,,,,,,,,,,,,,22,2020-12-10_13h09.53.582,premup-three_ses-01_part-01_label-phase1,3.2.4,Win32,60,,,4,0,4,0,1,3,,,,,,,,,,,,,,,,,,,,,,,,
,,0,1,,,,,,,1,5,4,stim/54.jpeg,Instruments,2,stim/objects/Instruments/marimba.png,0.5,2,0.2,0.15,right,22,2020-12-10_13h09.53.582,premup-three_ses-01_part-01_label-phase1,3.2.4,Win32,60,left,1.388000011,4,0,4,0,1,3,1,0,240,23,1,239,,,,,,,,,,,,,,,,,,
,,0,2,,,,,,,1,5,4,stim/54.jpeg,HouseObjects,1,stim/objects/HouseObjects/knife.png,0.5,1,-0.2,0.15,left,22,2020-12-10_13h09.53.582,premup-three_ses-01_part-01_label-phase1,3.2.4,Win32,60,right,1.340000153,4,0,4,0,1,3,1,0,240,11,1,239,,,,,,,,,,,,,,,,,,
,,1,3,,,,,,,2,1,2,stim/12.jpeg,Instruments,2,stim/objects/Instruments/pipepiano.png,0.7,1,-0.2,0.15,right,22,2020-12-10_13h09.53.582,premup-three_ses-01_part-01_label-phase1,3.2.4,Win32,60,right,0.750999928,4,0,4,0,1,3,1,0,240,93,1,239,,,,,,,,,,,,,,,,,,
,,1,4,,,,,,,3,4,2,stim/42.jpeg,HouseObjects,1,stim/objects/HouseObjects/remote2.png,0.9,3,-0.2,-0.15,left,22,2020-12-10_13h09.53.582,premup-three_ses-01_part-01_label-phase1,3.2.4,Win32,60,left,0.855999947,4,0,4,0,1,3,1,0,240,221,1,239,,,,,,,,,,,,,,,,,,
,,0,5,,,,,,,1,6,3,stim/63.jpeg,HouseObjects,1,stim/objects/HouseObjects/pan.png,0.5,4,0.2,-0.15,left,22,2020-12-10_13h09.53.582,premup-three_ses-01_part-01_label-phase1,3.2.4,Win32,60,right,0.656999826,4,0,4,0,1,3,1,0,240,46,1,239,,,,,,,,,,,,,,,,,,
,,1,6,,,,,,,2,2,4,stim/24.jpeg,HouseObjects,1,stim/objects/HouseObjects/knife2.png,0.7,4,0.2,-0.15,left,22,2020-12-10_13h09.53.582,premup-three_ses-01_part-01_label-phase1,3.2.4,Win32,60,left,0.901000023,4,0,4,0,1,3,1,0,240,147,1,239,,,,,,,,,,,,,,,,,,
,,1,7,,,,,,,3,3,2,stim/32.jpeg,Instruments,2,stim/objects/Instruments/musicsheet2.png,0.9,4,0.2,-0.15,right,22,2020-12-10_13h09.53.582,premup-three_ses-01_part-01_label-phase1,3.2.4,Win32,60,right,0.738000154,4,0,4,0,1,3,1,0,240,177,1,239,,,,,,,,,,,,,,,,,,
,,0,8,,,,,,,3,4,2,stim/42.jpeg,Instruments,2,stim/objects/Instruments/pipepiano2.png,0.1,3,-0.2,-0.15,right,22,2020-12-10_13h09.53.582,premup-three_ses-01_part-01_label-phase1,3.2.4,Win32,60,left,1.259000063,4,0,4,0,1,3,1,0,240,237,1,239,,,,,,,,,,,,,,,,,,
,,1,9,,,,,,,2,2,2,stim/22.jpeg,HouseObjects,1,stim/objects/HouseObjects/ironingboard2.png,0.7,3,-0.2,-0.15,left,22,2020-12-10_13h09.53.582,premup-three_ses-01_part-01_label-phase1,3.2.4,Win32,60,left,0.792999983,4,0,4,0,1,3,1,0,240,129,1,239,,,,,,,,,,,,,,,,,,
,,1,10,,,,,,,1,5,2,stim/52.jpeg,Instruments,2,stim/objects/Instruments/laud.png,0.5,4,0.2,-0.15,right,22,2020-12-10_13h09.53.582,premup-three_ses-01_part-01_label-phase1,3.2.4,Win32,60,right,0.982000113,4,0,4,0,1,3,1,0,240,37,1,239,,,,,,,,,,,,,,,,,,
,,0,11,,,,,,,2,1,3,stim/13.jpeg,HouseObjects,1,stim/objects/HouseObjects/rubbergloves.png,0.3,4,0.2,-0.15,left,22,2020-12-10_13h09.53.582,premup-three_ses-01_part-01_label-phase1,3.2.4,Win32,60,right,0.848999977,4,0,4,0,1,3,1,0,240,82,1,239,,,,,,,,,,,,,,,,,,
,,0,12,,,,,,,1,6,2,stim/62.jpeg,HouseObjects,1,stim/objects/HouseObjects/match.png,0.5,1,-0.2,0.15,left,22,2020-12-10_13h09.53.582,premup-three_ses-01_part-01_label-phase1,3.2.4,Win32,60,right,0.947000027,4,0,4,0,1,3,1,0,240,53,1,239,,,,,,,,,,,,,,,,,,
,,0,13,,,,,,,1,5,2,stim/52.jpeg,Instruments,2,stim/objects/Instruments/laud.png,0.5,4,0.2,-0.15,right,22,2020-12-10_13h09.53.582,premup-three_ses-01_part-01_label-phase1,3.2.4,Win32,60,left,1.127000093,4,0,4,0,1,3,1,0,240,33,1,239,,,,,,,,,,,,,,,,,,
,,1,14,,,,,,,3,3,1,stim/31.jpeg,Instruments,2,stim/objects/Instruments/metronome2.png,0.9,3,-0.2,-0.15,right,22,2020-12-10_13h09.53.582,premup-three_ses-01_part-01_label-phase1,3.2.4,Win32,60,right,0.768000126,4,0,4,0,1,3,1,0,240,188,1,239,,,,,,,,,,,,,,,,,,
,,1,15,,,,,,,2,1,3,stim/13.jpeg,Instruments,2,stim/objects/Instruments/record.png,0.7,2,0.2,0.15,right,22,2020-12-10_13h09.53.582,premup-three_ses-01_part-01_label-phase1,3.2.4,Win32,60,right,0.822000027,4,0,4,0,1,3,1,0,240,98,1,239,,,,,,,,,,,,,,,,,,
,,0,16,,,,,,,1,6,4,stim/64.jpeg,HouseObjects,1,stim/objects/HouseObjects/pitcher.png,0.5,4,0.2,-0.15,left,22,2020-12-10_13h09.53.582,premup-three_ses-01_part-01_label-phase1,3.2.4,Win32,60,right,0.670000076,4,0,4,0,1,3,1,0,240,59,1,239,,,,,,,,,,,,,,,,,,
,,0,17,,,,,,,1,5,1,stim/51.jpeg,Instruments,2,stim/objects/Instruments/keyboard.png,0.5,4,0.2,-0.15,right,22,2020-12-10_13h09.53.582,premup-three_ses-01_part-01_label-phase1,3.2.4,Win32,60,left,1.495000124,4,0,4,0,1,3,1,0,240,20,1,239,,,,,,,,,,,,,,,,,,
,,1,18,,,,,,,2,1,1,stim/11.jpeg,Instruments,2,stim/objects/Instruments/panflute.png,0.7,1,-0.2,0.15,right,22,2020-12-10_13h09.53.582,premup-three_ses-01_part-01_label-phase1,3.2.4,Win32,60,right,0.697000027,4,0,4,0,1,3,1,0,240,92,1,239,,,,,,,,,,,,,,,,,,
,,1,19,,,,,,,3,3,3,stim/33.jpeg,Instruments,2,stim/objects/Instruments/musicstand2.png,0.9,1,-0.2,0.15,right,22,2020-12-10_13h09.53.582,premup-three_ses-01_part-01_label-phase1,3.2.4,Win32,60,right,0.730999947,4,0,4,0,1,3,1,0,240,170,1,239,,,,,,,,,,,,,,,,,,
,,1,20,,,,,,,2,1,3,stim/13.jpeg,Instruments,2,stim/objects/Instruments/record.png,0.7,1,-0.2,0.15,right,22,2020-12-10_13h09.53.582,premup-three_ses-01_part-01_label-phase1,3.2.4,Win32,60,right,0.773999929,4,0,4,0,1,3,1,0,240,102,1,239,,,,,,,,,,,,,,,,,,
,,1,21,,,,,,,3,3,3,stim/33.jpeg,Instruments,2,stim/objects/Instruments/musicstand2.png,0.9,1,-0.2,0.15,right,22,2020-12-10_13h09.53.582,premup-three_ses-01_part-01_label-phase1,3.2.4,Win32,60,right,0.697999954,4,0,4,0,1,3,1,0,240,194,1,239,,,,,,,,,,,,,,,,,,
,,1,22,,,,,,,1,5,1,stim/51.jpeg,Instruments,2,stim/objects/Instruments/keyboard.png,0.5,4,0.2,-0.15,right,22,2020-12-10_13h09.53.582,premup-three_ses-01_part-01_label-phase1,3.2.4,Win32,60,right,1.243999958,4,0,4,0,1,3,1,0,240,28,1,239,,,,,,,,,,,,,,,,,,
,,1,23,,,,,,,2,1,2,stim/12.jpeg,HouseObjects,1,stim/objects/HouseObjects/remote.png,0.3,2,0.2,0.15,left,22,2020-12-10_13h09.53.582,premup-three_ses-01_part-01_label-phase1,3.2.4,Win32,60,left,1.569999933,4,0,4,0,1,3,1,0,240,85,1,239,,,,,,,,,,,,,,,,,,
,,0,24,,,,,,,1,5,2,stim/52.jpeg,HouseObjects,1,stim/objects/HouseObjects/ironingboard.png,0.5,3,-0.2,-0.15,left,22,2020-12-10_13h09.53.582,premup-three_ses-01_part-01_label-phase1,3.2.4,Win32,60,right,1.174000025,4,0,4,0,1,3,1,0,240,5,1,239,,,,,,,,,,,,,,,,,,
,,0,25,,,,,,,3,3,1,stim/31.jpeg,HouseObjects,1,stim/objects/HouseObjects/lintroller2.png,0.1,4,0.2,-0.15,left,22,2020-12-10_13h09.53.582,premup-three_ses-01_part-01_label-phase1,3.2.4,Win32,60,right,0.792999983,4,0,4,0,1,3,1,0,240,160,1,239,,,,,,,,,,,,,,,,,,
,,1,26,,,,,,,3,4,2,stim/42.jpeg,HouseObjects,1,stim/objects/HouseObjects/remote2.png,0.9,3,-0.2,-0.15,left,22,2020-12-10_13h09.53.582,premup-three_ses-01_part-01_label-phase1,3.2.4,Win32,60,left,1.070999861,4,0,4,0,1,3,1,0,240,229,1,239,,,,,,,,,,,,,,,,,,
,,0,27,,,,,,,1,5,3,stim/53.jpeg,HouseObjects,1,stim/objects/HouseObjects/key.png,0.5,4,0.2,-0.15,left,22,2020-12-10_13h09.53.582,premup-three_ses-01_part-01_label-phase1,3.2.4,Win32,60,right,1.165999889,4,0,4,0,1,3,1,0,240,6,1,239,,,,,,,,,,,,,,,,,,
,,0,28,,,,,,,2,1,2,stim/12.jpeg,Instruments,2,stim/objects/Instruments/pipepiano.png,0.7,1,-0.2,0.15,right,22,2020-12-10_13h09.53.582,premup-three_ses-01_part-01_label-phase1,3.2.4,Win32,60,left,1.040999889,4,0,4,0,1,3,1,0,240,113,1,239,,,,,,,,,,,,,,,,,,
,,1,29,,,,,,,2,1,3,stim/13.jpeg,Instruments,2,stim/objects/Instruments/record.png,0.7,4,0.2,-0.15,right,22,2020-12-10_13h09.53.582,premup-three_ses-01_part-01_label-phase1,3.2.4,Win32,60,right,0.694999933,4,0,4,0,1,3,1,0,240,106,1,239,,,,,,,,,,,,,,,,,,
,,1,30,,,,,,,3,4,2,stim/42.jpeg,HouseObjects,1,stim/objects/HouseObjects/remote2.png,0.9,2,0.2,0.15,left,22,2020-12-10_13h09.53.582,premup-three_ses-01_part-01_label-phase1,3.2.4,Win32,60,left,0.69900012,4,0,4,0,1,3,1,0,240,213,1,239,,,,,,,,,,,,,,,,,,
,,1,31,,,,,,,3,3,3,stim/33.jpeg,Instruments,2,stim/objects/Instruments/musicstand2.png,0.9,4,0.2,-0.15,right,22,2020-12-10_13h09.53.582,premup-three_ses-01_part-01_label-phase1,3.2.4,Win32,60,right,0.655999899,4,0,4,0,1,3,1,0,240,178,1,239,,,,,,,,,,,,,,,,,,
,,1,32,,,,,,,2,2,4,stim/24.jpeg,HouseObjects,1,stim/objects/HouseObjects/knife2.png,0.7,3,-0.2,-0.15,left,22,2020-12-10_13h09.53.582,premup-three_ses-01_part-01_label-phase1,3.2.4,Win32,60,left,0.779000044,4,0,4,0,1,3,1,0,240,143,1,239,,,,,,,,,,,,,,,,,,
,,1,33,,,,,,,1,6,4,stim/64.jpeg,Instruments,2,stim/objects/Instruments/oboe.png,0.5,3,-0.2,-0.15,right,22,2020-12-10_13h09.53.582,premup-three_ses-01_part-01_label-phase1,3.2.4,Win32,60,right,0.720000029,4,0,4,0,1,3,1,0,240,63,1,239,,,,,,,,,,,,,,,,,,
,,0,34,,,,,,,2,1,4,stim/14.jpeg,Instruments,2,stim/objects/Instruments/record_player.png,0.7,2,0.2,0.15,right,22,2020-12-10_13h09.53.582,premup-three_ses-01_part-01_label-phase1,3.2.4,Win32,60,left,1.06400013,4,0,4,0,1,3,1,0,240,107,1,239,,,,,,,,,,,,,,,,,,
,,1,35,,,,,,,1,5,3,stim/53.jpeg,Instruments,2,stim/objects/Instruments/maraca.png,0.5,2,0.2,0.15,right,22,2020-12-10_13h09.53.582,premup-three_ses-01_part-01_label-phase1,3.2.4,Win32,60,right,0.763999939,4,0,4,0,1,3,1,0,240,34,1,239,,,,,,,,,,,,,,,,,,
,,1,36,,,,,,,2,2,3,stim/23.jpeg,HouseObjects,1,stim/objects/HouseObjects/key2.png,0.7,2,0.2,0.15,left,22,2020-12-10_13h09.53.582,premup-three_ses-01_part-01_label-phase1,3.2.4,Win32,60,left,0.742000103,4,0,4,0,1,3,1,0,240,134,1,239,,,,,,,,,,,,,,,,,,
,,0,37,,,,,,,1,5,1,stim/51.jpeg,HouseObjects,1,stim/objects/HouseObjects/iron.png,0.5,3,-0.2,-0.15,left,22,2020-12-10_13h09.53.582,premup-three_ses-01_part-01_label-phase1,3.2.4,Win32,60,right,0.816999912,4,0,4,0,1,3,1,0,240,0,1,239,,,,,,,,,,,,,,,,,,
,,1,38,,,,,,,2,2,4,stim/24.jpeg,HouseObjects,1,stim/objects/HouseObjects/knife2.png,0.7,4,0.2,-0.15,left,22,2020-12-10_13h09.53.582,premup-three_ses-01_part-01_label-phase1,3.2.4,Win32,60,left,0.789999962,4,0,4,0,1,3,1,0,240,127,1,239,,,,,,,,,,,,,,,,,,
,,0,39,,,,,,,2,2,2,stim/22.jpeg,HouseObjects,1,stim/objects/HouseObjects/ironingboard2.png,0.7,1,-0.2,0.15,left,22,2020-12-10_13h09.53.582,premup-three_ses-01_part-01_label-phase1,3.2.4,Win32,60,right,0.619000196,4,0,4,0,1,3,1,0,240,133,1,239,,,,,,,,,,,,,,,,,,
,,1,40,,,,,,,3,3,3,stim/33.jpeg,Instruments,2,stim/objects/Instruments/musicstand2.png,0.9,2,0.2,0.15,right,22,2020-12-10_13h09.53.582,premup-three_ses-01_part-01_label-phase1,3.2.4,Win32,60,right,0.733999968,4,0,4,0,1,3,1,0,240,182,1,239,,,,,,,,,,,,,,,,,,
,,1,41,,,,,,,2,1,1,stim/11.jpeg,Instruments,2,stim/objects/Instruments/panflute.png,0.7,3,-0.2,-0.15,right,22,2020-12-10_13h09.53.582,premup-three_ses-01_part-01_label-phase1,3.2.4,Win32,60,right,0.684000015,4,0,4,0,1,3,1,0,240,104,1,239,,,,,,,,,,,,,,,,,,
,,1,42,,,,,,,1,6,1,stim/61.jpeg,Instruments,2,stim/objects/Instruments/metronome.png,0.5,2,0.2,0.15,right,22,2020-12-10_13h09.53.582,premup-three_ses-01_part-01_label-phase1,3.2.4,Win32,60,right,0.903000116,4,0,4,0,1,3,1,0,240,60,1,239,,,,,,,,,,,,,,,,,,
,,1,43,,,,,,,3,4,1,stim/41.jpeg,HouseObjects,1,stim/objects/HouseObjects/recyclingbin2.png,0.9,3,-0.2,-0.15,left,22,2020-12-10_13h09.53.582,premup-three_ses-01_part-01_label-phase1,3.2.4,Win32,60,left,0.926000118,4,0,4,0,1,3,1,0,240,232,1,239,,,,,,,,,,,,,,,,,,
,,1,44,,,,,,,1,6,3,stim/63.jpeg,Instruments,2,stim/objects/Instruments/musicstand.png,0.5,1,-0.2,0.15,right,22,2020-12-10_13h09.53.582,premup-three_ses-01_part-01_label-phase1,3.2.4,Win32,60,right,0.64199996,4,0,4,0,1,3,1,0,240,66,1,239,,,,,,,,,,,,,,,,,,
,,1,45,,,,,,,1,5,3,stim/53.jpeg,Instruments,2,stim/objects/Instruments/maraca.png,0.5,3,-0.2,-0.15,right,22,2020-12-10_13h09.53.582,premup-three_ses-01_part-01_label-phase1,3.2.4,Win32,60,right,0.819000006,4,0,4,0,1,3,1,0,240,22,1,239,,,,,,,,,,,,,,,,,,
,,1,46,,,,,,,2,2,2,stim/22.jpeg,HouseObjects,1,stim/objects/HouseObjects/ironingboard2.png,0.7,3,-0.2,-0.15,left,22,2020-12-10_13h09.53.582,premup-three_ses-01_part-01_label-phase1,3.2.4,Win32,60,left,0.687000036,4,0,4,0,1,3,1,0,240,137,1,239,,,,,,,,,,,,,,,,,,
,,1,47,,,,,,,3,3,4,stim/34.jpeg,Instruments,2,stim/objects/Instruments/oboe2.png,0.9,2,0.2,0.15,right,22,2020-12-10_13h09.53.582,premup-three_ses-01_part-01_label-phase1,3.2.4,Win32,60,right,0.846999884,4,0,4,0,1,3,1,0,240,175,1,239,,,,,,,,,,,,,,,,,,
,,1,48,,,,,,,3,4,1,stim/41.jpeg,HouseObjects,1,stim/objects/HouseObjects/recyclingbin2.png,0.9,3,-0.2,-0.15,left,22,2020-12-10_13h09.53.582,premup-three_ses-01_part-01_label-phase1,3.2.4,Win32,60,left,0.742000103,4,0,4,0,1,3,1,0,240,204,1,239,,,,,,,,,,,,,,,,,,
,,0,49,,,,,,,1,6,2,stim/62.jpeg,Instruments,2,stim/objects/Instruments/musicsheet.png,0.5,1,-0.2,0.15,right,22,2020-12-10_13h09.53.582,premup-three_ses-01_part-01_label-phase1,3.2.4,Win32,60,left,1.445000172,4,0,4,0,1,3,1,0,240,69,1,239,,,,,,,,,,,,,,,,,,
,,1,50,,,,,,,1,5,2,stim/52.jpeg,HouseObjects,1,stim/objects/HouseObjects/ironingboard.png,0.5,1,-0.2,0.15,left,22,2020-12-10_13h09.53.582,premup-three_ses-01_part-01_label-phase1,3.2.4,Win32,60,left,1.068000078,4,0,4,0,1,3,1,0,240,13,1,239,,,,,,,,,,,,,,,,,,
,,1,51,,,,,,,1,6,4,stim/64.jpeg,Instruments,2,stim/objects/Instruments/oboe.png,0.5,1,-0.2,0.15,right,22,2020-12-10_13h09.53.582,premup-three_ses-01_part-01_label-phase1,3.2.4,Win32,60,right,0.974999905,4,0,4,0,1,3,1,0,240,71,1,239,,,,,,,,,,,,,,,,,,
,,1,52,,,,,,,2,2,3,stim/23.jpeg,HouseObjects,1,stim/objects/HouseObjects/key2.png,0.7,3,-0.2,-0.15,left,22,2020-12-10_13h09.53.582,premup-three_ses-01_part-01_label-phase1,3.2.4,Win32,60,left,0.973999977,4,0,4,0,1,3,1,0,240,142,1,239,,,,,,,,,,,,,,,,,,
,,1,53,,,,,,,3,3,2,stim/32.jpeg,Instruments,2,stim/objects/Instruments/musicsheet2.png,0.9,1,-0.2,0.15,right,22,2020-12-10_13h09.53.582,premup-three_ses-01_part-01_label-phase1,3.2.4,Win32,60,right,0.665999889,4,0,4,0,1,3,1,0,240,185,1,239,,,,,,,,,,,,,,,,,,
,,0,54,,,,,,,2,2,4,stim/24.jpeg,Instruments,2,stim/objects/Instruments/marimba2.png,0.3,2,0.2,0.15,right,22,2020-12-10_13h09.53.582,premup-three_ses-01_part-01_label-phase1,3.2.4,Win32,60,left,0.881000042,4,0,4,0,1,3,1,0,240,159,1,239,,,,,,,,,,,,,,,,,,
,,0,55,,,,,,,2,2,4,stim/24.jpeg,HouseObjects,1,stim/objects/HouseObjects/knife2.png,0.7,3,-0.2,-0.15,left,22,2020-12-10_13h09.53.582,premup-three_ses-01_part-01_label-phase1,3.2.4,Win32,60,right,0.950999975,4,0,4,0,1,3,1,0,240,139,1,239,,,,,,,,,,,,,,,,,,
,,1,56,,,,,,,3,3,3,stim/33.jpeg,Instruments,2,stim/objects/Instruments/musicstand2.png,0.9,3,-0.2,-0.15,right,22,2020-12-10_13h09.53.582,premup-three_ses-01_part-01_label-phase1,3.2.4,Win32,60,right,0.726999998,4,0,4,0,1,3,1,0,240,186,1,239,,,,,,,,,,,,,,,,,,
,,1,57,,,,,,,1,5,4,stim/54.jpeg,HouseObjects,1,stim/objects/HouseObjects/knife.png,0.5,3,-0.2,-0.15,left,22,2020-12-10_13h09.53.582,premup-three_ses-01_part-01_label-phase1,3.2.4,Win32,60,left,1.269000053,4,0,4,0,1,3,1,0,240,15,1,239,,,,,,,,,,,,,,,,,,
,,1,58,,,,,,,3,3,4,stim/34.jpeg,Instruments,2,stim/objects/Instruments/oboe2.png,0.9,1,-0.2,0.15,right,22,2020-12-10_13h09.53.582,premup-three_ses-01_part-01_label-phase1,3.2.4,Win32,60,right,0.787999868,4,0,4,0,1,3,1,0,240,183,1,239,,,,,,,,,,,,,,,,,,
,,1,59,,,,,,,1,6,4,stim/64.jpeg,HouseObjects,1,stim/objects/HouseObjects/pitcher.png,0.5,3,-0.2,-0.15,left,22,2020-12-10_13h09.53.582,premup-three_ses-01_part-01_label-phase1,3.2.4,Win32,60,left,0.786000013,4,0,4,0,1,3,1,0,240,43,1,239,,,,,,,,,,,,,,,,,,
,,1,60,,,,,,,2,2,2,stim/22.jpeg,HouseObjects,1,stim/objects/HouseObjects/ironingboard2.png,0.7,3,-0.2,-0.15,left,22,2020-12-10_13h09.53.582,premup-three_ses-01_part-01_label-phase1,3.2.4,Win32,60,left,0.920000076,4,0,4,0,1,3,1,0,240,121,1,239,,,,,,,,,,,,,,,,,,
,,0,61,,,,,,,2,2,2,stim/22.jpeg,HouseObjects,1,stim/objects/HouseObjects/ironingboard2.png,0.7,4,0.2,-0.15,left,22,2020-12-10_13h09.53.582,premup-three_ses-01_part-01_label-phase1,3.2.4,Win32,60,right,1.079999924,4,0,4,0,1,3,1,0,240,125,1,239,,,,,,,,,,,,,,,,,,
,,1,62,,,,,,,3,3,1,stim/31.jpeg,Instruments,2,stim/objects/Instruments/metronome2.png,0.9,2,0.2,0.15,right,22,2020-12-10_13h09.53.582,premup-three_ses-01_part-01_label-phase1,3.2.4,Win32,60,right,0.882999897,4,0,4,0,1,3,1,0,240,176,1,239,,,,,,,,,,,,,,,,,,
,,1,63,,,,,,,3,4,4,stim/44.jpeg,HouseObjects,1,stim/objects/HouseObjects/rug2.png,0.9,4,0.2,-0.15,left,22,2020-12-10_13h09.53.582,premup-three_ses-01_part-01_label-phase1,3.2.4,Win32,60,left,0.637000084,4,0,4,0,1,3,1,0,240,211,1,239,,,,,,,,,,,,,,,,,,
,,1,64,,,,,,,2,1,2,stim/12.jpeg,Instruments,2,stim/objects/Instruments/pipepiano.png,0.7,2,0.2,0.15,right,22,2020-12-10_13h09.53.582,premup-three_ses-01_part-01_label-phase1,3.2.4,Win32,60,right,0.863000154,4,0,4,0,1,3,1,0,240,105,1,239,,,,,,,,,,,,,,,,,,
,,1,65,,,,,,,3,3,1,stim/31.jpeg,Instruments,2,stim/objects/Instruments/metronome2.png,0.9,1,-0.2,0.15,right,22,2020-12-10_13h09.53.582,premup-three_ses-01_part-01_label-phase1,3.2.4,Win32,60,right,0.82400012,4,0,4,0,1,3,1,0,240,196,1,239,,,,,,,,,,,,,,,,,,
,,1,66,,,,,,,3,4,4,stim/44.jpeg,HouseObjects,1,stim/objects/HouseObjects/rug2.png,0.9,4,0.2,-0.15,left,22,2020-12-10_13h09.53.582,premup-three_ses-01_part-01_label-phase1,3.2.4,Win32,60,left,0.651000023,4,0,4,0,1,3,1,0,240,215,1,239,,,,,,,,,,,,,,,,,,
,,0,67,,,,,,,1,6,1,stim/61.jpeg,HouseObjects,1,stim/objects/HouseObjects/lintroller.png,0.5,4,0.2,-0.15,left,22,2020-12-10_13h09.53.582,premup-three_ses-01_part-01_label-phase1,3.2.4,Win32,60,right,0.701999903,4,0,4,0,1,3,1,0,240,40,1,239,,,,,,,,,,,,,,,,,,
,,0,68,,,,,,,2,2,3,stim/23.jpeg,Instruments,2,stim/objects/Instruments/maraca2.png,0.3,2,0.2,0.15,right,22,2020-12-10_13h09.53.582,premup-three_ses-01_part-01_label-phase1,3.2.4,Win32,60,left,0.982000113,4,0,4,0,1,3,1,0,240,154,1,239,,,,,,,,,,,,,,,,,,
,,1,69,,,,,,,3,3,4,stim/34.jpeg,Instruments,2,stim/objects/Instruments/oboe2.png,0.9,2,0.2,0.15,right,22,2020-12-10_13h09.53.582,premup-three_ses-01_part-01_label-phase1,3.2.4,Win32,60,right,0.753000021,4,0,4,0,1,3,1,0,240,187,1,239,,,,,,,,,,,,,,,,,,
,,0,70,,,,,,,1,6,2,stim/62.jpeg,HouseObjects,1,stim/objects/HouseObjects/match.png,0.5,3,-0.2,-0.15,left,22,2020-12-10_13h09.53.582,premup-three_ses-01_part-01_label-phase1,3.2.4,Win32,60,right,0.72300005,4,0,4,0,1,3,1,0,240,41,1,239,,,,,,,,,,,,,,,,,,
,,0,71,,,,,,,1,5,4,stim/54.jpeg,HouseObjects,1,stim/objects/HouseObjects/knife.png,0.5,4,0.2,-0.15,left,22,2020-12-10_13h09.53.582,premup-three_ses-01_part-01_label-phase1,3.2.4,Win32,60,right,1.153000116,4,0,4,0,1,3,1,0,240,19,1,239,,,,,,,,,,,,,,,,,,
,,1,72,,,,,,,1,6,3,stim/63.jpeg,Instruments,2,stim/objects/Instruments/musicstand.png,0.5,1,-0.2,0.15,right,22,2020-12-10_13h09.53.582,premup-three_ses-01_part-01_label-phase1,3.2.4,Win32,60,right,0.717000008,4,0,4,0,1,3,1,0,240,74,1,239,,,,,,,,,,,,,,,,,,
,,1,73,,,,,,,3,4,4,stim/44.jpeg,HouseObjects,1,stim/objects/HouseObjects/rug2.png,0.9,2,0.2,0.15,left,22,2020-12-10_13h09.53.582,premup-three_ses-01_part-01_label-phase1,3.2.4,Win32,60,left,0.66899991,4,0,4,0,1,3,1,0,240,203,1,239,,,,,,,,,,,,,,,,,,
,,1,74,,,,,,,3,3,4,stim/34.jpeg,Instruments,2,stim/objects/Instruments/oboe2.png,0.9,4,0.2,-0.15,right,22,2020-12-10_13h09.53.582,premup-three_ses-01_part-01_label-phase1,3.2.4,Win32,60,right,0.643000126,4,0,4,0,1,3,1,0,240,167,1,239,,,,,,,,,,,,,,,,,,
,,1,75,,,,,,,2,2,1,stim/21.jpeg,HouseObjects,1,stim/objects/HouseObjects/iron2.png,0.7,2,0.2,0.15,left,22,2020-12-10_13h09.53.582,premup-three_ses-01_part-01_label-phase1,3.2.4,Win32,60,left,0.989999771,4,0,4,0,1,3,1,0,240,144,1,239,,,,,,,,,,,,,,,,,,
,,1,76,,,,,,,2,2,3,stim/23.jpeg,HouseObjects,1,stim/objects/HouseObjects/key2.png,0.7,1,-0.2,0.15,left,22,2020-12-10_13h09.53.582,premup-three_ses-01_part-01_label-phase1,3.2.4,Win32,60,left,1.004999876,4,0,4,0,1,3,1,0,240,138,1,239,,,,,,,,,,,,,,,,,,
,,1,77,,,,,,,2,1,3,stim/13.jpeg,Instruments,2,stim/objects/Instruments/record.png,0.7,4,0.2,-0.15,right,22,2020-12-10_13h09.53.582,premup-three_ses-01_part-01_label-phase1,3.2.4,Win32,60,right,0.760999918,4,0,4,0,1,3,1,0,240,94,1,239,,,,,,,,,,,,,,,,,,
,,1,78,,,,,,,2,1,4,stim/14.jpeg,Instruments,2,stim/objects/Instruments/record_player.png,0.7,1,-0.2,0.15,right,22,2020-12-10_13h09.53.582,premup-three_ses-01_part-01_label-phase1,3.2.4,Win32,60,right,0.875999928,4,0,4,0,1,3,1,0,240,99,1,239,,,,,,,,,,,,,,,,,,
,,1,79,,,,,,,1,6,2,stim/62.jpeg,HouseObjects,1,stim/objects/HouseObjects/match.png,0.5,1,-0.2,0.15,left,22,2020-12-10_13h09.53.582,premup-three_ses-01_part-01_label-phase1,3.2.4,Win32,60,left,1.291999817,4,0,4,0,1,3,1,0,240,49,1,239,,,,,,,,,,,,,,,,,,
,,0,80,,,,,,,2,1,2,stim/12.jpeg,HouseObjects,1,stim/objects/HouseObjects/remote.png,0.3,2,0.2,0.15,left,22,2020-12-10_13h09.53.582,premup-three_ses-01_part-01_label-phase1,3.2.4,Win32,60,right,0.900000095,4,0,4,0,1,3,1,0,240,81,1,239,,,,,,,,,,,,,,,,,,
,,0,81,,,,,,,3,3,3,stim/33.jpeg,HouseObjects,1,stim/objects/HouseObjects/pan2.png,0.1,4,0.2,-0.15,left,22,2020-12-10_13h09.53.582,premup-three_ses-01_part-01_label-phase1,3.2.4,Win32,60,right,0.772000074,4,0,4,0,1,3,1,0,240,162,1,239,,,,,,,,,,,,,,,,,,
,,1,82,,,,,,,1,5,3,stim/53.jpeg,HouseObjects,1,stim/objects/HouseObjects/key.png,0.5,2,0.2,0.15,left,22,2020-12-10_13h09.53.582,premup-three_ses-01_part-01_label-phase1,3.2.4,Win32,60,left,0.967000008,4,0,4,0,1,3,1,0,240,14,1,239,,,,,,,,,,,,,,,,,,
,,1,83,,,,,,,3,4,3,stim/43.jpeg,HouseObjects,1,stim/objects/HouseObjects/rubbergloves2.png,0.9,3,-0.2,-0.15,left,22,2020-12-10_13h09.53.582,premup-three_ses-01_part-01_label-phase1,3.2.4,Win32,60,left,0.784000158,4,0,4,0,1,3,1,0,240,206,1,239,,,,,,,,,,,,,,,,,,
,,1,84,,,,,,,3,3,2,stim/32.jpeg,Instruments,2,stim/objects/Instruments/musicsheet2.png,0.9,3,-0.2,-0.15,right,22,2020-12-10_13h09.53.582,premup-three_ses-01_part-01_label-phase1,3.2.4,Win32,60,right,0.671000004,4,0,4,0,1,3,1,0,240,169,1,239,,,,,,,,,,,,,,,,,,
,,1,85,,,,,,,1,6,3,stim/63.jpeg,HouseObjects,1,stim/objects/HouseObjects/pan.png,0.5,1,-0.2,0.15,left,22,2020-12-10_13h09.53.582,premup-three_ses-01_part-01_label-phase1,3.2.4,Win32,60,left,0.940999985,4,0,4,0,1,3,1,0,240,42,1,239,,,,,,,,,,,,,,,,,,
,,0,86,,,,,,,1,5,2,stim/52.jpeg,HouseObjects,1,stim/objects/HouseObjects/ironingboard.png,0.5,2,0.2,0.15,left,22,2020-12-10_13h09.53.582,premup-three_ses-01_part-01_label-phase1,3.2.4,Win32,60,right,1.25,4,0,4,0,1,3,1,0,240,17,1,239,,,,,,,,,,,,,,,,,,
,,0,87,,,,,,,1,6,1,stim/61.jpeg,Instruments,2,stim/objects/Instruments/metronome.png,0.5,1,-0.2,0.15,right,22,2020-12-10_13h09.53.582,premup-three_ses-01_part-01_label-phase1,3.2.4,Win32,60,left,0.707000017,4,0,4,0,1,3,1,0,240,72,1,239,,,,,,,,,,,,,,,,,,
,,1,88,,,,,,,3,3,3,stim/33.jpeg,Instruments,2,stim/objects/Instruments/musicstand2.png,0.9,2,0.2,0.15,right,22,2020-12-10_13h09.53.582,premup-three_ses-01_part-01_label-phase1,3.2.4,Win32,60,right,0.773999929,4,0,4,0,1,3,1,0,240,198,1,239,,,,,,,,,,,,,,,,,,
,,1,89,,,,,,,1,6,1,stim/61.jpeg,Instruments,2,stim/objects/Instruments/metronome.png,0.5,2,0.2,0.15,right,22,2020-12-10_13h09.53.582,premup-three_ses-01_part-01_label-phase1,3.2.4,Win32,60,right,1.127000093,4,0,4,0,1,3,1,0,240,64,1,239,,,,,,,,,,,,,,,,,,
,,0,90,,,,,,,1,6,2,stim/62.jpeg,Instruments,2,stim/objects/Instruments/musicsheet.png,0.5,2,0.2,0.15,right,22,2020-12-10_13h09.53.582,premup-three_ses-01_part-01_label-phase1,3.2.4,Win32,60,left,1.174000025,4,0,4,0,1,3,1,0,240,65,1,239,,,,,,,,,,,,,,,,,,
,,0,91,,,,,,,1,6,4,stim/64.jpeg,HouseObjects,1,stim/objects/HouseObjects/pitcher.png,0.5,4,0.2,-0.15,left,22,2020-12-10_13h09.53.582,premup-three_ses-01_part-01_label-phase1,3.2.4,Win32,60,right,1.052000046,4,0,4,0,1,3,1,0,240,51,1,239,,,,,,,,,,,,,,,,,,
,,1,92,,,,,,,1,5,1,stim/51.jpeg,HouseObjects,1,stim/objects/HouseObjects/iron.png,0.5,2,0.2,0.15,left,22,2020-12-10_13h09.53.582,premup-three_ses-01_part-01_label-phase1,3.2.4,Win32,60,left,0.746000051,4,0,4,0,1,3,1,0,240,12,1,239,,,,,,,,,,,,,,,,,,
,,0,93,,,,,,,3,4,4,stim/44.jpeg,Instruments,2,stim/objects/Instruments/record_player2.png,0.1,3,-0.2,-0.15,right,22,2020-12-10_13h09.53.582,premup-three_ses-01_part-01_label-phase1,3.2.4,Win32,60,left,0.738999844,4,0,4,0,1,3,1,0,240,239,1,239,,,,,,,,,,,,,,,,,,
,,1,94,,,,,,,2,2,1,stim/21.jpeg,HouseObjects,1,stim/objects/HouseObjects/iron2.png,0.7,1,-0.2,0.15,left,22,2020-12-10_13h09.53.582,premup-three_ses-01_part-01_label-phase1,3.2.4,Win32,60,left,0.89199996,4,0,4,0,1,3,1,0,240,136,1,239,,,,,,,,,,,,,,,,,,
,,1,95,,,,,,,1,6,1,stim/61.jpeg,HouseObjects,1,stim/objects/HouseObjects/lintroller.png,0.5,2,0.2,0.15,left,22,2020-12-10_13h09.53.582,premup-three_ses-01_part-01_label-phase1,3.2.4,Win32,60,left,1.187000036,4,0,4,0,1,3,1,0,240,52,1,239,,,,,,,,,,,,,,,,,,
,,1,96,,,,,,,3,4,3,stim/43.jpeg,HouseObjects,1,stim/objects/HouseObjects/rubbergloves2.png,0.9,2,0.2,0.15,left,22,2020-12-10_13h09.53.582,premup-three_ses-01_part-01_label-phase1,3.2.4,Win32,60,left,0.682999849,4,0,4,0,1,3,1,0,240,214,1,239,,,,,,,,,,,,,,,,,,
,,0,97,,,,,,,1,5,3,stim/53.jpeg,HouseObjects,1,stim/objects/HouseObjects/key.png,0.5,1,-0.2,0.15,left,22,2020-12-10_13h09.53.582,premup-three_ses-01_part-01_label-phase1,3.2.4,Win32,60,right,0.723999977,4,0,4,0,1,3,1,0,240,2,1,239,,,,,,,,,,,,,,,,,,
,,1,98,,,,,,,2,1,3,stim/13.jpeg,Instruments,2,stim/objects/Instruments/record.png,0.7,1,-0.2,0.15,right,22,2020-12-10_13h09.53.582,premup-three_ses-01_part-01_label-phase1,3.2.4,Win32,60,right,0.746000051,4,0,4,0,1,3,1,0,240,118,1,239,,,,,,,,,,,,,,,,,,
,,1,99,,,,,,,3,4,2,stim/42.jpeg,HouseObjects,1,stim/objects/HouseObjects/remote2.png,0.9,3,-0.2,-0.15,left,22,2020-12-10_13h09.53.582,premup-three_ses-01_part-01_label-phase1,3.2.4,Win32,60,left,0.751999855,4,0,4,0,1,3,1,0,240,205,1,239,,,,,,,,,,,,,,,,,,
,,1,100,,,,,,,3,4,3,stim/43.jpeg,HouseObjects,1,stim/objects/HouseObjects/rubbergloves2.png,0.9,2,0.2,0.15,left,22,2020-12-10_13h09.53.582,premup-three_ses-01_part-01_label-phase1,3.2.4,Win32,60,left,0.70600009,4,0,4,0,1,3,1,0,240,226,1,239,,,,,,,,,,,,,,,,,,
,,1,101,,,,,,,1,5,1,stim/51.jpeg,Instruments,2,stim/objects/Instruments/keyboard.png,0.5,1,-0.2,0.15,right,22,2020-12-10_13h09.53.582,premup-three_ses-01_part-01_label-phase1,3.2.4,Win32,60,right,0.828999996,4,0,4,0,1,3,1,0,240,24,1,239,,,,,,,,,,,,,,,,,,
,,1,102,,,,,,,3,3,1,stim/31.jpeg,Instruments,2,stim/objects/Instruments/metronome2.png,0.9,2,0.2,0.15,right,22,2020-12-10_13h09.53.582,premup-three_ses-01_part-01_label-phase1,3.2.4,Win32,60,right,0.838999987,4,0,4,0,1,3,1,0,240,180,1,239,,,,,,,,,,,,,,,,,,
,,1,103,,,,,,,3,3,3,stim/33.jpeg,Instruments,2,stim/objects/Instruments/musicstand2.png,0.9,2,0.2,0.15,right,22,2020-12-10_13h09.53.582,premup-three_ses-01_part-01_label-phase1,3.2.4,Win32,60,right,0.799999952,4,0,4,0,1,3,1,0,240,190,1,239,,,,,,,,,,,,,,,,,,
,,0,104,,,,,,,2,2,1,stim/21.jpeg,Instruments,2,stim/objects/Instruments/keyboard2.png,0.3,2,0.2,0.15,right,22,2020-12-10_13h09.53.582,premup-three_ses-01_part-01_label-phase1,3.2.4,Win32,60,left,1.203999996,4,0,4,0,1,3,1,0,240,148,1,239,,,,,,,,,,,,,,,,,,
,,0,105,,,,,,,2,1,1,stim/11.jpeg,Instruments,2,stim/objects/Instruments/panflute.png,0.7,3,-0.2,-0.15,right,22,2020-12-10_13h09.53.582,premup-three_ses-01_part-01_label-phase1,3.2.4,Win32,60,left,1.302999973,4,0,4,0,1,3,1,0,240,100,1,239,,,,,,,,,,,,,,,,,,
,,1,106,,,,,,,1,6,2,stim/62.jpeg,Instruments,2,stim/objects/Instruments/musicsheet.png,0.5,2,0.2,0.15,right,22,2020-12-10_13h09.53.582,premup-three_ses-01_part-01_label-phase1,3.2.4,Win32,60,right,1.489000082,4,0,4,0,1,3,1,0,240,77,1,239,,,,,,,,,,,,,,,,,,
,,1,107,,,,,,,3,3,1,stim/31.jpeg,Instruments,2,stim/objects/Instruments/metronome2.png,0.9,3,-0.2,-0.15,right,22,2020-12-10_13h09.53.582,premup-three_ses-01_part-01_label-phase1,3.2.4,Win32,60,right,0.779999971,4,0,4,0,1,3,1,0,240,192,1,239,,,,,,,,,,,,,,,,,,
,,1,108,,,,,,,2,1,2,stim/12.jpeg,Instruments,2,stim/objects/Instruments/pipepiano.png,0.7,3,-0.2,-0.15,right,22,2020-12-10_13h09.53.582,premup-three_ses-01_part-01_label-phase1,3.2.4,Win32,60,right,0.815999985,4,0,4,0,1,3,1,0,240,97,1,239,,,,,,,,,,,,,,,,,,
,,0,109,,,,,,,1,5,4,stim/54.jpeg,Instruments,2,stim/objects/Instruments/marimba.png,0.5,3,-0.2,-0.15,right,22,2020-12-10_13h09.53.582,premup-three_ses-01_part-01_label-phase1,3.2.4,Win32,60,left,1.232999802,4,0,4,0,1,3,1,0,240,39,1,239,,,,,,,,,,,,,,,,,,
,,1,110,,,,,,,2,1,3,stim/13.jpeg,Instruments,2,stim/objects/Instruments/record.png,0.7,4,0.2,-0.15,right,22,2020-12-10_13h09.53.582,premup-three_ses-01_part-01_label-phase1,3.2.4,Win32,60,right,0.796000004,4,0,4,0,1,3,1,0,240,110,1,239,,,,,,,,,,,,,,,,,,
,,1,111,,,,,,,3,4,2,stim/42.jpeg,HouseObjects,1,stim/objects/HouseObjects/remote2.png,0.9,1,-0.2,0.15,left,22,2020-12-10_13h09.53.582,premup-three_ses-01_part-01_label-phase1,3.2.4,Win32,60,left,0.756999969,4,0,4,0,1,3,1,0,240,233,1,239,,,,,,,,,,,,,,,,,,
,,0,112,,,,,,,3,3,2,stim/32.jpeg,HouseObjects,1,stim/objects/HouseObjects/match2.png,0.1,4,0.2,-0.15,left,22,2020-12-10_13h09.53.582,premup-three_ses-01_part-01_label-phase1,3.2.4,Win32,60,right,0.703999996,4,0,4,0,1,3,1,0,240,161,1,239,,,,,,,,,,,,,,,,,,
,,0,113,,,,,,,2,1,2,stim/12.jpeg,HouseObjects,1,stim/objects/HouseObjects/remote.png,0.3,1,-0.2,0.15,left,22,2020-12-10_13h09.53.582,premup-three_ses-01_part-01_label-phase1,3.2.4,Win32,60,right,0.756999969,4,0,4,0,1,3,1,0,240,89,1,239,,,,,,,,,,,,,,,,,,
,,1,114,,,,,,,3,3,4,stim/34.jpeg,Instruments,2,stim/objects/Instruments/oboe2.png,0.9,3,-0.2,-0.15,right,22,2020-12-10_13h09.53.582,premup-three_ses-01_part-01_label-phase1,3.2.4,Win32,60,right,0.785000086,4,0,4,0,1,3,1,0,240,191,1,239,,,,,,,,,,,,,,,,,,
,,1,115,,,,,,,2,2,3,stim/23.jpeg,HouseObjects,1,stim/objects/HouseObjects/key2.png,0.7,1,-0.2,0.15,left,22,2020-12-10_13h09.53.582,premup-three_ses-01_part-01_label-phase1,3.2.4,Win32,60,left,1.104000092,4,0,4,0,1,3,1,0,240,126,1,239,,,,,,,,,,,,,,,,,,
,,0,116,,,,,,,2,2,4,stim/24.jpeg,HouseObjects,1,stim/objects/HouseObjects/knife2.png,0.7,2,0.2,0.15,left,22,2020-12-10_13h09.53.582,premup-three_ses-01_part-01_label-phase1,3.2.4,Win32,60,right,1.217000008,4,0,4,0,1,3,1,0,240,131,1,239,,,,,,,,,,,,,,,,,,
,,1,117,,,,,,,2,1,2,stim/12.jpeg,Instruments,2,stim/objects/Instruments/pipepiano.png,0.7,3,-0.2,-0.15,right,22,2020-12-10_13h09.53.582,premup-three_ses-01_part-01_label-phase1,3.2.4,Win32,60,right,0.82799983,4,0,4,0,1,3,1,0,240,101,1,239,,,,,,,,,,,,,,,,,,
,,1,118,,,,,,,1,5,2,stim/52.jpeg,HouseObjects,1,stim/objects/HouseObjects/ironingboard.png,0.5,2,0.2,0.15,left,22,2020-12-10_13h09.53.582,premup-three_ses-01_part-01_label-phase1,3.2.4,Win32,60,left,1.215000153,4,0,4,0,1,3,1,0,240,1,1,239,,,,,,,,,,,,,,,,,,
,,1,119,,,,,,,3,4,4,stim/44.jpeg,HouseObjects,1,stim/objects/HouseObjects/rug2.png,0.9,2,0.2,0.15,left,22,2020-12-10_13h09.53.582,premup-three_ses-01_part-01_label-phase1,3.2.4,Win32,60,left,0.75,4,0,4,0,1,3,1,0,240,231,1,239,,,,,,,,,,,,,,,,,,
,,1,120,,,,,,,2,2,2,stim/22.jpeg,Instruments,2,stim/objects/Instruments/laud2.png,0.3,4,0.2,-0.15,right,22,2020-12-10_13h09.53.582,premup-three_ses-01_part-01_label-phase1,3.2.4,Win32,60,right,1.139999866,4,0,4,0,1,3,1,0,240,157,1,239,,,,,,,,,,,,,,,,,,
,,0,121,,,,,,,2,2,4,stim/24.jpeg,Instruments,2,stim/objects/Instruments/marimba2.png,0.3,3,-0.2,-0.15,right,22,2020-12-10_13h09.53.582,premup-three_ses-01_part-01_label-phase1,3.2.4,Win32,60,left,0.782999992,4,0,4,0,1,3,1,0,240,151,1,239,,,,,,,,,,,,,,,,,,
,,1,122,,,,,,,3,3,2,stim/32.jpeg,Instruments,2,stim/objects/Instruments/musicsheet2.png,0.9,4,0.2,-0.15,right,22,2020-12-10_13h09.53.582,premup-three_ses-01_part-01_label-phase1,3.2.4,Win32,60,right,0.690999985,4,0,4,0,1,3,1,0,240,165,1,239,,,,,,,,,,,,,,,,,,
,,0,123,,,,,,,2,1,1,stim/11.jpeg,Instruments,2,stim/objects/Instruments/panflute.png,0.7,2,0.2,0.15,right,22,2020-12-10_13h09.53.582,premup-three_ses-01_part-01_label-phase1,3.2.4,Win32,60,left,1.073000193,4,0,4,0,1,3,1,0,240,112,1,239,,,,,,,,,,,,,,,,,,
,,0,124,,,,,,,2,2,4,stim/24.jpeg,Instruments,2,stim/objects/Instruments/marimba2.png,0.3,2,0.2,0.15,right,22,2020-12-10_13h09.53.582,premup-three_ses-01_part-01_label-phase1,3.2.4,Win32,60,left,0.756000042,4,0,4,0,1,3,1,0,240,155,1,239,,,,,,,,,,,,,,,,,,
,,1,125,,,,,,,1,5,3,stim/53.jpeg,Instruments,2,stim/objects/Instruments/maraca.png,0.5,4,0.2,-0.15,right,22,2020-12-10_13h09.53.582,premup-three_ses-01_part-01_label-phase1,3.2.4,Win32,60,right,0.589999914,4,0,4,0,1,3,1,0,240,38,1,239,,,,,,,,,,,,,,,,,,
,,1,126,,,,,,,1,5,3,stim/53.jpeg,HouseObjects,1,stim/objects/HouseObjects/key.png,0.5,3,-0.2,-0.15,left,22,2020-12-10_13h09.53.582,premup-three_ses-01_part-01_label-phase1,3.2.4,Win32,60,left,0.811999798,4,0,4,0,1,3,1,0,240,10,1,239,,,,,,,,,,,,,,,,,,
,,0,127,,,,,,,2,1,4,stim/14.jpeg,HouseObjects,1,stim/objects/HouseObjects/rug.png,0.3,3,-0.2,-0.15,left,22,2020-12-10_13h09.53.582,premup-three_ses-01_part-01_label-phase1,3.2.4,Win32,60,right,1.036000013,4,0,4,0,1,3,1,0,240,91,1,239,,,,,,,,,,,,,,,,,,
,,1,128,,,,,,,3,3,3,stim/33.jpeg,Instruments,2,stim/objects/Instruments/musicstand2.png,0.9,2,0.2,0.15,right,22,2020-12-10_13h09.53.582,premup-three_ses-01_part-01_label-phase1,3.2.4,Win32,60,right,0.891000032,4,0,4,0,1,3,1,0,240,174,1,239,,,,,,,,,,,,,,,,,,
,,1,129,,,,,,,3,4,1,stim/41.jpeg,HouseObjects,1,stim/objects/HouseObjects/recyclingbin2.png,0.9,3,-0.2,-0.15,left,22,2020-12-10_13h09.53.582,premup-three_ses-01_part-01_label-phase1,3.2.4,Win32,60,left,0.679000139,4,0,4,0,1,3,1,0,240,212,1,239,,,,,,,,,,,,,,,,,,
,,1,130,,,,,,,3,4,4,stim/44.jpeg,HouseObjects,1,stim/objects/HouseObjects/rug2.png,0.9,2,0.2,0.15,left,22,2020-12-10_13h09.53.582,premup-three_ses-01_part-01_label-phase1,3.2.4,Win32,60,left,0.608999968,4,0,4,0,1,3,1,0,240,227,1,239,,,,,,,,,,,,,,,,,,
,,1,131,,,,,,,2,1,4,stim/14.jpeg,Instruments,2,stim/objects/Instruments/record_player.png,0.7,4,0.2,-0.15,right,22,2020-12-10_13h09.53.582,premup-three_ses-01_part-01_label-phase1,3.2.4,Win32,60,right,0.822999954,4,0,4,0,1,3,1,0,240,115,1,239,,,,,,,,,,,,,,,,,,
,,0,132,,,,,,,2,1,4,stim/14.jpeg,HouseObjects,1,stim/objects/HouseObjects/rug.png,0.3,4,0.2,-0.15,left,22,2020-12-10_13h09.53.582,premup-three_ses-01_part-01_label-phase1,3.2.4,Win32,60,right,0.790999889,4,0,4,0,1,3,1,0,240,83,1,239,,,,,,,,,,,,,,,,,,
,,1,133,,,,,,,2,1,4,stim/14.jpeg,Instruments,2,stim/objects/Instruments/record_player.png,0.7,3,-0.2,-0.15,right,22,2020-12-10_13h09.53.582,premup-three_ses-01_part-01_label-phase1,3.2.4,Win32,60,right,1.371999979,4,0,4,0,1,3,1,0,240,95,1,239,,,,,,,,,,,,,,,,,,
