id_acc,key_resp_id.keys,key_resp_id.rt,key_resp_conf.keys,key_resp_conf.rt,assoc_acc,key_resp_assoc.keys,key_resp_assoc.rt,loc_acc,key_resp_loc.keys,key_resp_loc.rt,task_innerloop.thisRepN,task_innerloop.thisTrialN,task_innerloop.thisN,task_innerloop.thisIndex,task_innerloop.ran,task_innerloop.order,context_type,object_cat,PE_level,OvsN,obj_file,scn_file,corr_scn_cat,assoc_file,corr_scn_inst,corr_loc,participant,date,expName,psychopyVersion,OS,frameRate
1,left,2.813000202,4,2.258000135,0,1,4.650000095,0,1,2.835000038,1,0,200,22,1,199,2,1,0.3,1,stim/objects/HouseObjects/towel.png,stim/13.jpeg,1,stim/1.png,3,1,22,2020-12-11_13h44.50.093,premup-three_ses-02_part-03_label-phase3,3.2.4,Win32,60
1,left,2.654000044,,,0,,,0,,,1,0,200,131,1,199,0,2,0,2,stim/objects/Instruments/doublebass3.png,,0,stim/0.png,0,0,22,2020-12-11_13h44.50.093,premup-three_ses-02_part-03_label-phase3,3.2.4,Win32,60
1,right,2.778000116,,,0,,,0,,,1,0,200,189,1,199,0,1,0,2,stim/objects/HouseObjects/dishsoap4.png,,0,stim/0.png,0,0,22,2020-12-11_13h44.50.093,premup-three_ses-02_part-03_label-phase3,3.2.4,Win32,60
1,left,2.85800004,,,0,,,0,,,1,0,200,186,1,199,0,1,0,2,stim/objects/HouseObjects/clothespin4.png,,0,stim/0.png,0,0,22,2020-12-11_13h44.50.093,premup-three_ses-02_part-03_label-phase3,3.2.4,Win32,60
1,right,1.521000147,,,0,,,0,,,1,0,200,117,1,199,0,2,0,2,stim/objects/Instruments/chime3.png,,0,stim/0.png,0,0,22,2020-12-11_13h44.50.093,premup-three_ses-02_part-03_label-phase3,3.2.4,Win32,60
1,right,1.036999941,,,0,,,0,,,1,0,200,183,1,199,0,1,0,2,stim/objects/HouseObjects/bucket4.png,,0,stim/0.png,0,0,22,2020-12-11_13h44.50.093,premup-three_ses-02_part-03_label-phase3,3.2.4,Win32,60
1,right,1.038000107,,,0,,,0,,,1,0,200,173,1,199,0,2,0,2,stim/objects/Instruments/vuvuzela3.png,,0,stim/0.png,0,0,22,2020-12-11_13h44.50.093,premup-three_ses-02_part-03_label-phase3,3.2.4,Win32,60
1,right,0.854000092,3,2.703000069,0,2,3.638000011,0,2,3.602000237,1,0,200,62,1,199,3,1,0.1,1,stim/objects/HouseObjects/flyswatter2.png,stim/33.jpeg,3,stim/3.png,3,3,22,2020-12-11_13h44.50.093,premup-three_ses-02_part-03_label-phase3,3.2.4,Win32,60
1,right,1.821000099,2,1.713999987,0,3,3.214999914,0,4,1.015000105,1,0,200,12,1,199,1,2,0.5,1,stim/objects/HouseObjects/sponge.png,stim/63.jpeg,6,stim/6.png,3,1,22,2020-12-11_13h44.50.093,premup-three_ses-02_part-03_label-phase3,3.2.4,Win32,60
1,left,1.396000147,,,0,,,0,,,1,0,200,124,1,199,0,1,0,2,stim/objects/HouseObjects/dishsoap3.png,,0,stim/0.png,0,0,22,2020-12-11_13h44.50.093,premup-three_ses-02_part-03_label-phase3,3.2.4,Win32,60
1,left,1.571000099,,,0,,,0,,,1,0,200,119,1,199,0,2,0,2,stim/objects/Instruments/cornet3.png,,0,stim/0.png,0,0,22,2020-12-11_13h44.50.093,premup-three_ses-02_part-03_label-phase3,3.2.4,Win32,60
1,left,1.10800004,,,0,,,0,,,1,0,200,136,1,199,0,2,0,2,stim/objects/Instruments/flutetrans3.png,,0,stim/0.png,0,0,22,2020-12-11_13h44.50.093,premup-three_ses-02_part-03_label-phase3,3.2.4,Win32,60
1,left,1.09100008,2,1.252000093,0,2,4.170000076,0,3,1.971000195,1,0,200,18,1,199,1,2,0.5,1,stim/objects/Instruments/triangle.png,stim/63.jpeg,6,stim/6.png,3,4,22,2020-12-11_13h44.50.093,premup-three_ses-02_part-03_label-phase3,3.2.4,Win32,60
1,left,1.623000145,4,1.334000111,0,4,4.57400012,0,3,1.286000252,1,0,200,47,1,199,2,1,0.7,1,stim/objects/HouseObjects/coffee2.png,stim/23.jpeg,2,stim/2.png,3,2,22,2020-12-11_13h44.50.093,premup-three_ses-02_part-03_label-phase3,3.2.4,Win32,60
1,left,1.410000086,3,1.388000011,0,4,2.075000048,0,2,2.319000006,1,0,200,34,1,199,2,2,0.7,1,stim/objects/Instruments/xylophone.png,stim/12.jpeg,1,stim/1.png,2,3,22,2020-12-11_13h44.50.093,premup-three_ses-02_part-03_label-phase3,3.2.4,Win32,60
1,left,1.121999979,4,2.138000011,0,4,4.804000139,0,1,1.686000109,1,0,200,80,1,199,3,1,0.9,1,stim/objects/HouseObjects/saw2.png,stim/41.jpeg,4,stim/4.png,1,3,22,2020-12-11_13h44.50.093,premup-three_ses-02_part-03_label-phase3,3.2.4,Win32,60
1,right,1.821000099,,,0,,,0,,,1,0,200,174,1,199,0,2,0,2,stim/objects/Instruments/xylophone3.png,,0,stim/0.png,0,0,22,2020-12-11_13h44.50.093,premup-three_ses-02_part-03_label-phase3,3.2.4,Win32,60
1,left,0.872999907,4,1.234000206,0,3,3.588999987,0,4,1.107000113,1,0,200,51,1,199,2,2,0.3,1,stim/objects/Instruments/cello2.png,stim/23.jpeg,2,stim/2.png,3,3,22,2020-12-11_13h44.50.093,premup-three_ses-02_part-03_label-phase3,3.2.4,Win32,60
1,right,1.871000051,2,1.065000057,0,2,2.392000198,0,2,0.870000124,1,0,200,35,1,199,2,2,0.7,1,stim/objects/Instruments/accordion2.png,stim/13.jpeg,1,stim/1.png,3,2,22,2020-12-11_13h44.50.093,premup-three_ses-02_part-03_label-phase3,3.2.4,Win32,60
1,left,0.97300005,,,0,,,0,,,1,0,200,129,1,199,0,1,0,2,stim/objects/HouseObjects/glass3.png,,0,stim/0.png,0,0,22,2020-12-11_13h44.50.093,premup-three_ses-02_part-03_label-phase3,3.2.4,Win32,60
1,left,1.036999941,3,1.117000103,0,1,2.421000004,0,4,1.289999962,1,0,200,31,1,199,2,2,0.7,1,stim/objects/Instruments/tuba.png,stim/13.jpeg,1,stim/1.png,3,3,22,2020-12-11_13h44.50.093,premup-three_ses-02_part-03_label-phase3,3.2.4,Win32,60
1,right,1.605000019,,,0,,,0,,,1,0,200,169,1,199,0,1,0,2,stim/objects/HouseObjects/bleachbottle4.png,,0,stim/0.png,0,0,22,2020-12-11_13h44.50.093,premup-three_ses-02_part-03_label-phase3,3.2.4,Win32,60
1,right,1.071000099,,,0,,,0,,,1,0,200,156,1,199,0,2,0,2,stim/objects/Instruments/tambourine3.png,,0,stim/0.png,0,0,22,2020-12-11_13h44.50.093,premup-three_ses-02_part-03_label-phase3,3.2.4,Win32,60
1,right,1.720000267,,,0,,,0,,,1,0,200,199,1,199,0,2,0,2,stim/objects/Instruments/electricguitar4.png,,0,stim/0.png,0,0,22,2020-12-11_13h44.50.093,premup-three_ses-02_part-03_label-phase3,3.2.4,Win32,60
1,left,0.86500001,,,0,,,0,,,1,0,200,101,1,199,0,1,0,2,stim/objects/HouseObjects/ballofstring3.png,,0,stim/0.png,0,0,22,2020-12-11_13h44.50.093,premup-three_ses-02_part-03_label-phase3,3.2.4,Win32,60
1,left,1.203000069,,,0,,,0,,,1,0,200,130,1,199,0,2,0,2,stim/objects/Instruments/cymbal3.png,,0,stim/0.png,0,0,22,2020-12-11_13h44.50.093,premup-three_ses-02_part-03_label-phase3,3.2.4,Win32,60
1,left,0.769000053,4,1.308000088,0,3,3.159000158,0,2,2.433000088,1,0,200,66,1,199,3,1,0.1,1,stim/objects/HouseObjects/hairdryer2.png,stim/33.jpeg,3,stim/3.png,3,3,22,2020-12-11_13h44.50.093,premup-three_ses-02_part-03_label-phase3,3.2.4,Win32,60
1,left,1.238000154,,,0,,,0,,,1,0,200,163,1,199,0,1,0,2,stim/objects/HouseObjects/vacuumcleaner3.png,,0,stim/0.png,0,0,22,2020-12-11_13h44.50.093,premup-three_ses-02_part-03_label-phase3,3.2.4,Win32,60
1,right,1.192000151,,,0,,,0,,,1,0,200,133,1,199,0,2,0,2,stim/objects/Instruments/electricdrumset3.png,,0,stim/0.png,0,0,22,2020-12-11_13h44.50.093,premup-three_ses-02_part-03_label-phase3,3.2.4,Win32,60
1,right,1.077000141,2,1.316999912,0,2,4.893000126,0,4,1.937999964,1,0,200,16,1,199,1,2,0.5,1,stim/objects/Instruments/tambourine.png,stim/61.jpeg,6,stim/6.png,1,2,22,2020-12-11_13h44.50.093,premup-three_ses-02_part-03_label-phase3,3.2.4,Win32,60
1,right,1.039000034,,,0,,,0,,,1,0,200,191,1,199,0,2,0,2,stim/objects/Instruments/cello4.png,,0,stim/0.png,0,0,22,2020-12-11_13h44.50.093,premup-three_ses-02_part-03_label-phase3,3.2.4,Win32,60
1,right,0.802999973,,,0,,,0,,,1,0,200,162,1,199,0,1,0,2,stim/objects/HouseObjects/towel3.png,,0,stim/0.png,0,0,22,2020-12-11_13h44.50.093,premup-three_ses-02_part-03_label-phase3,3.2.4,Win32,60
1,left,0.805999994,2,1.4150002,0,2,4.204000235,0,4,2.95600009,1,0,200,19,1,199,1,2,0.5,1,stim/objects/Instruments/trombone.png,stim/64.jpeg,6,stim/6.png,4,1,22,2020-12-11_13h44.50.093,premup-three_ses-02_part-03_label-phase3,3.2.4,Win32,60
1,left,1.871999979,4,2.730999947,0,3,7.483999968,0,4,3.903000116,1,0,200,53,1,199,2,2,0.3,1,stim/objects/Instruments/clarinet2.png,stim/21.jpeg,2,stim/2.png,1,1,22,2020-12-11_13h44.50.093,premup-three_ses-02_part-03_label-phase3,3.2.4,Win32,60
1,right,0.843000174,2,2.779000282,0,3,3.071000099,0,2,1.805999994,1,0,200,89,1,199,3,1,0.9,1,stim/objects/HouseObjects/wateringcan2.png,stim/42.jpeg,4,stim/4.png,2,4,22,2020-12-11_13h44.50.093,premup-three_ses-02_part-03_label-phase3,3.2.4,Win32,60
1,left,1.056999922,,,0,,,0,,,1,0,200,165,1,199,0,1,0,2,stim/objects/HouseObjects/ashtray4.png,,0,stim/0.png,0,0,22,2020-12-11_13h44.50.093,premup-three_ses-02_part-03_label-phase3,3.2.4,Win32,60
1,left,0.80700016,,,0,,,0,,,1,0,200,182,1,199,0,1,0,2,stim/objects/HouseObjects/broom4.png,,0,stim/0.png,0,0,22,2020-12-11_13h44.50.093,premup-three_ses-02_part-03_label-phase3,3.2.4,Win32,60
1,left,0.854000092,4,1.115000248,0,2,5.298000097,0,3,2.390000105,1,0,200,6,1,199,1,1,0.5,1,stim/objects/Instruments/harmonica.png,stim/53.jpeg,5,stim/5.png,3,3,22,2020-12-11_13h44.50.093,premup-three_ses-02_part-03_label-phase3,3.2.4,Win32,60
1,left,1.487000227,,,0,,,0,,,1,0,200,100,1,199,0,1,0,2,stim/objects/HouseObjects/ashtray3.png,,0,stim/0.png,0,0,22,2020-12-11_13h44.50.093,premup-three_ses-02_part-03_label-phase3,3.2.4,Win32,60
1,left,0.773000002,,,0,,,0,,,1,0,200,121,1,199,0,1,0,2,stim/objects/HouseObjects/clothespin3.png,,0,stim/0.png,0,0,22,2020-12-11_13h44.50.093,premup-three_ses-02_part-03_label-phase3,3.2.4,Win32,60
1,left,1.088000059,,,0,,,0,,,1,0,200,113,1,199,0,2,0,2,stim/objects/Instruments/banjo3.png,,0,stim/0.png,0,0,22,2020-12-11_13h44.50.093,premup-three_ses-02_part-03_label-phase3,3.2.4,Win32,60
1,right,0.904000282,,,0,,,0,,,1,0,200,161,1,199,0,1,0,2,stim/objects/HouseObjects/thread3.png,,0,stim/0.png,0,0,22,2020-12-11_13h44.50.093,premup-three_ses-02_part-03_label-phase3,3.2.4,Win32,60
1,right,0.925000191,,,0,,,0,,,1,0,200,175,1,199,0,2,0,2,stim/objects/Instruments/accordion4.png,,0,stim/0.png,0,0,22,2020-12-11_13h44.50.093,premup-three_ses-02_part-03_label-phase3,3.2.4,Win32,60
1,left,1.042000055,4,3.58100009,0,3,4.767000198,0,2,2.871999979,1,0,200,38,1,199,2,2,0.7,1,stim/objects/Instruments/banjo2.png,stim/12.jpeg,1,stim/1.png,2,2,22,2020-12-11_13h44.50.093,premup-three_ses-02_part-03_label-phase3,3.2.4,Win32,60
1,right,1.65500021,2,1.236000299,0,2,2.088999987,0,2,1.186000109,1,0,200,45,1,199,2,1,0.7,1,stim/objects/HouseObjects/clothesdryingrack2.png,stim/21.jpeg,2,stim/2.png,1,3,22,2020-12-11_13h44.50.093,premup-three_ses-02_part-03_label-phase3,3.2.4,Win32,60
1,left,0.773000002,,,0,,,0,,,1,0,200,154,1,199,0,2,0,2,stim/objects/Instruments/saxophone3.png,,0,stim/0.png,0,0,22,2020-12-11_13h44.50.093,premup-three_ses-02_part-03_label-phase3,3.2.4,Win32,60
1,right,1.037000179,,,0,,,0,,,1,0,200,157,1,199,0,2,0,2,stim/objects/Instruments/timbal3.png,,0,stim/0.png,0,0,22,2020-12-11_13h44.50.093,premup-three_ses-02_part-03_label-phase3,3.2.4,Win32,60
1,left,0.738000154,3,1.115999937,0,3,4.837000132,0,4,2.469000101,1,0,200,93,1,199,3,2,0.1,1,stim/objects/Instruments/triangle2.png,stim/42.jpeg,4,stim/4.png,2,1,22,2020-12-11_13h44.50.093,premup-three_ses-02_part-03_label-phase3,3.2.4,Win32,60
1,left,1.242000103,,,0,,,0,,,1,0,200,197,1,199,0,2,0,2,stim/objects/Instruments/drums4.png,,0,stim/0.png,0,0,22,2020-12-11_13h44.50.093,premup-three_ses-02_part-03_label-phase3,3.2.4,Win32,60
1,right,0.759000063,,,0,,,0,,,1,0,200,185,1,199,0,1,0,2,stim/objects/HouseObjects/clothesdryingrack4.png,,0,stim/0.png,0,0,22,2020-12-11_13h44.50.093,premup-three_ses-02_part-03_label-phase3,3.2.4,Win32,60
1,left,1.552000284,,,0,,,0,,,1,0,200,195,1,199,0,2,0,2,stim/objects/Instruments/cymbal4.png,,0,stim/0.png,0,0,22,2020-12-11_13h44.50.093,premup-three_ses-02_part-03_label-phase3,3.2.4,Win32,60
1,left,0.786000252,,,0,,,0,,,1,0,200,118,1,199,0,2,0,2,stim/objects/Instruments/clarinet3.png,,0,stim/0.png,0,0,22,2020-12-11_13h44.50.093,premup-three_ses-02_part-03_label-phase3,3.2.4,Win32,60
1,left,0.821000099,3,1.355000257,0,4,7.037999868,0,3,2.102999926,1,0,200,9,1,199,1,1,0.5,1,stim/objects/Instruments/saxophone.png,stim/52.jpeg,5,stim/5.png,2,2,22,2020-12-11_13h44.50.093,premup-three_ses-02_part-03_label-phase3,3.2.4,Win32,60
1,right,1.162000179,,,0,,,0,,,1,0,200,167,1,199,0,1,0,2,stim/objects/HouseObjects/barbecuelighter4.png,,0,stim/0.png,0,0,22,2020-12-11_13h44.50.093,premup-three_ses-02_part-03_label-phase3,3.2.4,Win32,60
1,left,1.059000015,,,0,,,0,,,1,0,200,179,1,199,0,2,0,2,stim/objects/Instruments/bassdrum4.png,,0,stim/0.png,0,0,22,2020-12-11_13h44.50.093,premup-three_ses-02_part-03_label-phase3,3.2.4,Win32,60
1,left,0.952000141,,,0,,,0,,,1,0,200,144,1,199,0,1,0,2,stim/objects/HouseObjects/safetypin3.png,,0,stim/0.png,0,0,22,2020-12-11_13h44.50.093,premup-three_ses-02_part-03_label-phase3,3.2.4,Win32,60
1,left,1.071000099,,,0,,,0,,,1,0,200,102,1,199,0,1,0,2,stim/objects/HouseObjects/barbecuelighter3.png,,0,stim/0.png,0,0,22,2020-12-11_13h44.50.093,premup-three_ses-02_part-03_label-phase3,3.2.4,Win32,60
1,left,0.703999996,4,1.381999969,0,3,5.893000126,0,2,1.220999956,1,0,200,0,1,199,1,1,0.5,1,stim/objects/HouseObjects/glassmop.png,stim/53.jpeg,5,stim/5.png,3,3,22,2020-12-11_13h44.50.093,premup-three_ses-02_part-03_label-phase3,3.2.4,Win32,60
1,right,0.888000011,,,0,,,0,,,1,0,200,125,1,199,0,1,0,2,stim/objects/HouseObjects/doormat3.png,,0,stim/0.png,0,0,22,2020-12-11_13h44.50.093,premup-three_ses-02_part-03_label-phase3,3.2.4,Win32,60
1,left,0.990000248,4,1.251000166,0,2,4.671999931,0,3,2.874000072,1,0,200,49,1,199,2,1,0.7,1,stim/objects/HouseObjects/dishsoap2.png,stim/21.jpeg,2,stim/2.png,1,4,22,2020-12-11_13h44.50.093,premup-three_ses-02_part-03_label-phase3,3.2.4,Win32,60
1,left,1.070000172,,,0,,,0,,,1,0,200,138,1,199,0,2,0,2,stim/objects/Instruments/gong3.png,,0,stim/0.png,0,0,22,2020-12-11_13h44.50.093,premup-three_ses-02_part-03_label-phase3,3.2.4,Win32,60
1,left,0.886000156,2,1.69900012,0,4,1.391000032,0,2,2.488000154,1,0,200,52,1,199,2,2,0.3,1,stim/objects/Instruments/chime2.png,stim/24.jpeg,2,stim/2.png,4,1,22,2020-12-11_13h44.50.093,premup-three_ses-02_part-03_label-phase3,3.2.4,Win32,60
1,left,0.71600008,,,0,,,0,,,1,0,200,145,1,199,0,1,0,2,stim/objects/HouseObjects/saw3.png,,0,stim/0.png,0,0,22,2020-12-11_13h44.50.093,premup-three_ses-02_part-03_label-phase3,3.2.4,Win32,60
1,right,0.940000296,,,0,,,0,,,1,0,200,149,1,199,0,1,0,2,stim/objects/HouseObjects/teapot3.png,,0,stim/0.png,0,0,22,2020-12-11_13h44.50.093,premup-three_ses-02_part-03_label-phase3,3.2.4,Win32,60
1,left,0.753000021,3,1.883000135,0,3,4.468000174,0,2,1.154000044,1,0,200,69,1,199,3,1,0.1,1,stim/objects/HouseObjects/safetypin2.png,stim/32.jpeg,3,stim/3.png,2,1,22,2020-12-11_13h44.50.093,premup-three_ses-02_part-03_label-phase3,3.2.4,Win32,60
1,left,0.887000084,4,1.851000071,0,4,2.558000088,0,3,1.101999998,1,0,200,68,1,199,3,1,0.1,1,stim/objects/HouseObjects/handvacuum2.png,stim/31.jpeg,3,stim/3.png,1,2,22,2020-12-11_13h44.50.093,premup-three_ses-02_part-03_label-phase3,3.2.4,Win32,60
1,left,0.853000164,,,0,,,0,,,1,0,200,170,1,199,0,2,0,2,stim/objects/Instruments/trumpet3.png,,0,stim/0.png,0,0,22,2020-12-11_13h44.50.093,premup-three_ses-02_part-03_label-phase3,3.2.4,Win32,60
1,left,0.874000072,4,0.964000225,0,2,2.154000282,0,1,1.406000137,1,0,200,5,1,199,1,1,0.5,1,stim/objects/Instruments/guitarcase.png,stim/52.jpeg,5,stim/5.png,2,3,22,2020-12-11_13h44.50.093,premup-three_ses-02_part-03_label-phase3,3.2.4,Win32,60
1,left,0.839000225,3,1.931999922,0,3,1.042999983,0,2,1.522000074,1,0,200,39,1,199,2,2,0.7,1,stim/objects/Instruments/bassdrum2.png,stim/13.jpeg,1,stim/1.png,3,1,22,2020-12-11_13h44.50.093,premup-three_ses-02_part-03_label-phase3,3.2.4,Win32,60
1,left,1.168000221,4,1.00600028,0,4,3.161999941,0,2,1.804000139,1,0,200,33,1,199,2,2,0.7,1,stim/objects/Instruments/vuvuzela.png,stim/11.jpeg,1,stim/1.png,1,2,22,2020-12-11_13h44.50.093,premup-three_ses-02_part-03_label-phase3,3.2.4,Win32,60
1,left,0.851000071,4,1.085999966,0,2,2.224000216,0,1,2.034000158,1,0,200,48,1,199,2,1,0.7,1,stim/objects/HouseObjects/cushion2.png,stim/24.jpeg,2,stim/2.png,4,4,22,2020-12-11_13h44.50.093,premup-three_ses-02_part-03_label-phase3,3.2.4,Win32,60
1,left,1.453000069,,,0,,,0,,,1,0,200,155,1,199,0,2,0,2,stim/objects/Instruments/speaker3.png,,0,stim/0.png,0,0,22,2020-12-11_13h44.50.093,premup-three_ses-02_part-03_label-phase3,3.2.4,Win32,60
1,right,1.054000139,,,0,,,0,,,1,0,200,140,1,199,0,1,0,2,stim/objects/HouseObjects/glassmop3.png,,0,stim/0.png,0,0,22,2020-12-11_13h44.50.093,premup-three_ses-02_part-03_label-phase3,3.2.4,Win32,60
1,left,1.421000004,,,0,,,0,,,1,0,200,109,1,199,0,1,0,2,stim/objects/HouseObjects/clock3.png,,0,stim/0.png,0,0,22,2020-12-11_13h44.50.093,premup-three_ses-02_part-03_label-phase3,3.2.4,Win32,60
1,right,0.906000137,,,0,,,0,,,1,0,200,168,1,199,0,1,0,2,stim/objects/HouseObjects/basket4.png,,0,stim/0.png,0,0,22,2020-12-11_13h44.50.093,premup-three_ses-02_part-03_label-phase3,3.2.4,Win32,60
1,right,1.085999966,2,3.697000027,0,2,1.539000034,0,3,0.872999907,1,0,200,41,1,199,2,1,0.7,1,stim/objects/HouseObjects/bottle2.png,stim/21.jpeg,2,stim/2.png,1,1,22,2020-12-11_13h44.50.093,premup-three_ses-02_part-03_label-phase3,3.2.4,Win32,60
1,left,0.906000137,4,1.002000093,0,3,2.489000082,0,1,1.669000149,1,0,200,23,1,199,2,1,0.3,1,stim/objects/HouseObjects/vacuumcleaner.png,stim/14.jpeg,1,stim/1.png,4,1,22,2020-12-11_13h44.50.093,premup-three_ses-02_part-03_label-phase3,3.2.4,Win32,60
1,left,1.053999901,2,1.116000175,0,4,1.83100009,0,2,1.786000013,1,0,200,86,1,199,3,1,0.9,1,stim/objects/HouseObjects/thread2.png,stim/43.jpeg,4,stim/4.png,3,3,22,2020-12-11_13h44.50.093,premup-three_ses-02_part-03_label-phase3,3.2.4,Win32,60
1,left,0.851000309,4,0.833000183,0,3,2.874000072,0,2,1.14800024,1,0,200,97,1,199,3,2,0.1,1,stim/objects/Instruments/violin2.png,stim/42.jpeg,4,stim/4.png,2,2,22,2020-12-11_13h44.50.093,premup-three_ses-02_part-03_label-phase3,3.2.4,Win32,60
1,left,1.238000154,1,2.250000238,0,2,1.640000105,0,2,1.170000076,1,0,200,73,1,199,3,2,0.9,1,stim/objects/Instruments/gong2.png,stim/32.jpeg,3,stim/3.png,2,2,22,2020-12-11_13h44.50.093,premup-three_ses-02_part-03_label-phase3,3.2.4,Win32,60
1,right,0.911000252,,,0,,,0,,,1,0,200,194,1,199,0,2,0,2,stim/objects/Instruments/cornet4.png,,0,stim/0.png,0,0,22,2020-12-11_13h44.50.093,premup-three_ses-02_part-03_label-phase3,3.2.4,Win32,60
1,left,0.989000082,2,1.200000048,0,3,2.138000011,0,2,0.982000113,1,0,200,65,1,199,3,1,0.1,1,stim/objects/HouseObjects/glassmop2.png,stim/32.jpeg,3,stim/3.png,2,3,22,2020-12-11_13h44.50.093,premup-three_ses-02_part-03_label-phase3,3.2.4,Win32,60
1,left,1.041000128,2,1.098999977,0,2,1.790999889,0,3,0.57400012,1,0,200,61,1,199,3,1,0.1,1,stim/objects/HouseObjects/dustpan2.png,stim/32.jpeg,3,stim/3.png,2,2,22,2020-12-11_13h44.50.093,premup-three_ses-02_part-03_label-phase3,3.2.4,Win32,60
1,left,0.755000114,4,0.951000214,0,3,3.203000069,0,1,0.888000011,1,0,200,25,1,199,2,1,0.3,1,stim/objects/HouseObjects/ashtray2.png,stim/12.jpeg,1,stim/1.png,2,2,22,2020-12-11_13h44.50.093,premup-three_ses-02_part-03_label-phase3,3.2.4,Win32,60
1,left,1.005000114,4,0.951000214,0,3,2.338000298,0,2,1.209000111,1,0,200,58,1,199,2,2,0.3,1,stim/objects/Instruments/electricdrumset2.png,stim/22.jpeg,2,stim/2.png,2,2,22,2020-12-11_13h44.50.093,premup-three_ses-02_part-03_label-phase3,3.2.4,Win32,60
1,left,3.338000059,2,1.986999989,0,4,1.046000242,0,2,1.021000147,1,0,200,79,1,199,3,2,0.9,1,stim/objects/Instruments/saxophone2.png,stim/34.jpeg,3,stim/3.png,4,2,22,2020-12-11_13h44.50.093,premup-three_ses-02_part-03_label-phase3,3.2.4,Win32,60
1,right,0.838000059,2,1.037000179,0,3,1.387000084,0,3,1.147000074,1,0,200,2,1,199,1,1,0.5,1,stim/objects/HouseObjects/handbrush.png,stim/51.jpeg,5,stim/5.png,1,1,22,2020-12-11_13h44.50.093,premup-three_ses-02_part-03_label-phase3,3.2.4,Win32,60
1,left,1.157999992,,,0,,,0,,,1,0,200,193,1,199,0,2,0,2,stim/objects/Instruments/clarinet4.png,,0,stim/0.png,0,0,22,2020-12-11_13h44.50.093,premup-three_ses-02_part-03_label-phase3,3.2.4,Win32,60
1,left,1.820000172,,,0,,,0,,,1,0,200,116,1,199,0,2,0,2,stim/objects/Instruments/cello3.png,,0,stim/0.png,0,0,22,2020-12-11_13h44.50.093,premup-three_ses-02_part-03_label-phase3,3.2.4,Win32,60
1,right,1.069000006,,,0,,,0,,,1,0,200,164,1,199,0,1,0,2,stim/objects/HouseObjects/wateringcan3.png,,0,stim/0.png,0,0,22,2020-12-11_13h44.50.093,premup-three_ses-02_part-03_label-phase3,3.2.4,Win32,60
1,right,1.100000143,,,0,,,0,,,1,0,200,188,1,199,0,1,0,2,stim/objects/HouseObjects/cushion4.png,,0,stim/0.png,0,0,22,2020-12-11_13h44.50.093,premup-three_ses-02_part-03_label-phase3,3.2.4,Win32,60
1,right,1.406000137,,,0,,,0,,,1,0,200,135,1,199,0,2,0,2,stim/objects/Instruments/flute3.png,,0,stim/0.png,0,0,22,2020-12-11_13h44.50.093,premup-three_ses-02_part-03_label-phase3,3.2.4,Win32,60
1,right,0.960000038,1,2.236000061,0,3,1.005000114,0,2,0.778000116,1,0,200,85,1,199,3,1,0.9,1,stim/objects/HouseObjects/thermometer2.png,stim/42.jpeg,4,stim/4.png,2,1,22,2020-12-11_13h44.50.093,premup-three_ses-02_part-03_label-phase3,3.2.4,Win32,60
1,right,0.988000154,,,0,,,0,,,1,0,200,111,1,199,0,2,0,2,stim/objects/Instruments/acousticguitar3.png,,0,stim/0.png,0,0,22,2020-12-11_13h44.50.093,premup-three_ses-02_part-03_label-phase3,3.2.4,Win32,60
1,right,0.875,,,0,,,0,,,1,0,200,177,1,199,0,2,0,2,stim/objects/Instruments/balalaika4.png,,0,stim/0.png,0,0,22,2020-12-11_13h44.50.093,premup-three_ses-02_part-03_label-phase3,3.2.4,Win32,60
1,right,1.020999908,2,1.118000031,0,4,0.773000002,0,3,0.855000257,1,0,200,74,1,199,3,2,0.9,1,stim/objects/Instruments/grandpiano2.png,stim/33.jpeg,3,stim/3.png,3,2,22,2020-12-11_13h44.50.093,premup-three_ses-02_part-03_label-phase3,3.2.4,Win32,60
1,left,2.219000101,,,0,,,0,,,1,0,200,123,1,199,0,1,0,2,stim/objects/HouseObjects/cushion3.png,,0,stim/0.png,0,0,22,2020-12-11_13h44.50.093,premup-three_ses-02_part-03_label-phase3,3.2.4,Win32,60
1,right,1.281000137,,,0,,,0,,,1,0,200,151,1,199,0,2,0,2,stim/objects/Instruments/harmonica3.png,,0,stim/0.png,0,0,22,2020-12-11_13h44.50.093,premup-three_ses-02_part-03_label-phase3,3.2.4,Win32,60
1,right,1.068000078,2,0.953999996,0,4,0.742000103,0,2,1.32400012,1,0,200,84,1,199,3,1,0.9,1,stim/objects/HouseObjects/teapot2.png,stim/41.jpeg,4,stim/4.png,1,4,22,2020-12-11_13h44.50.093,premup-three_ses-02_part-03_label-phase3,3.2.4,Win32,60
1,left,0.676000118,,,0,,,0,,,1,0,200,143,1,199,0,1,0,2,stim/objects/HouseObjects/handvacuum3.png,,0,stim/0.png,0,0,22,2020-12-11_13h44.50.093,premup-three_ses-02_part-03_label-phase3,3.2.4,Win32,60
1,right,0.787000179,2,1.000999928,0,3,1.355000019,0,3,0.804000139,1,0,200,24,1,199,2,1,0.3,1,stim/objects/HouseObjects/wateringcan.png,stim/11.jpeg,1,stim/1.png,1,1,22,2020-12-11_13h44.50.093,premup-three_ses-02_part-03_label-phase3,3.2.4,Win32,60
1,right,0.821000099,1,1.365999937,0,4,0.973999977,0,3,0.653000116,1,0,200,14,1,199,1,2,0.5,1,stim/objects/HouseObjects/teapot.png,stim/61.jpeg,6,stim/6.png,1,1,22,2020-12-11_13h44.50.093,premup-three_ses-02_part-03_label-phase3,3.2.4,Win32,60
1,left,0.769999981,3,1.039000034,0,4,0.889000177,0,1,1.078000069,1,0,200,13,1,199,1,2,0.5,1,stim/objects/HouseObjects/spraybottle.png,stim/64.jpeg,6,stim/6.png,4,3,22,2020-12-11_13h44.50.093,premup-three_ses-02_part-03_label-phase3,3.2.4,Win32,60
1,left,1.673000097,,,0,,,0,,,1,0,200,127,1,199,0,1,0,2,stim/objects/HouseObjects/flyswatter3.png,,0,stim/0.png,0,0,22,2020-12-11_13h44.50.093,premup-three_ses-02_part-03_label-phase3,3.2.4,Win32,60
1,right,0.925000191,,,0,,,0,,,1,0,200,150,1,199,0,2,0,2,stim/objects/Instruments/guitarcase3.png,,0,stim/0.png,0,0,22,2020-12-11_13h44.50.093,premup-three_ses-02_part-03_label-phase3,3.2.4,Win32,60
1,right,0.854000092,,,0,,,0,,,1,0,200,192,1,199,0,2,0,2,stim/objects/Instruments/chime4.png,,0,stim/0.png,0,0,22,2020-12-11_13h44.50.093,premup-three_ses-02_part-03_label-phase3,3.2.4,Win32,60
1,right,0.953000069,,,0,,,0,,,1,0,200,128,1,199,0,1,0,2,stim/objects/HouseObjects/garbagebin3.png,,0,stim/0.png,0,0,22,2020-12-11_13h44.50.093,premup-three_ses-02_part-03_label-phase3,3.2.4,Win32,60
1,right,1.586000204,,,0,,,0,,,1,0,200,180,1,199,0,1,0,2,stim/objects/HouseObjects/blender4.png,,0,stim/0.png,0,0,22,2020-12-11_13h44.50.093,premup-three_ses-02_part-03_label-phase3,3.2.4,Win32,60
1,right,1.138000011,,,0,,,0,,,1,0,200,146,1,199,0,1,0,2,stim/objects/HouseObjects/scale3.png,,0,stim/0.png,0,0,22,2020-12-11_13h44.50.093,premup-three_ses-02_part-03_label-phase3,3.2.4,Win32,60
1,right,1.46600008,,,0,,,0,,,1,0,200,147,1,199,0,1,0,2,stim/objects/HouseObjects/sponge3.png,,0,stim/0.png,0,0,22,2020-12-11_13h44.50.093,premup-three_ses-02_part-03_label-phase3,3.2.4,Win32,60
1,right,1.370000124,2,1.483000278,0,3,0.70600009,0,1,0.710999966,1,0,200,29,1,199,2,1,0.3,1,stim/objects/HouseObjects/bleachbottle2.png,stim/12.jpeg,1,stim/1.png,2,4,22,2020-12-11_13h44.50.093,premup-three_ses-02_part-03_label-phase3,3.2.4,Win32,60
1,right,0.855000019,2,2.12100029,0,4,0.726999998,0,3,0.85800004,1,0,200,90,1,199,3,2,0.1,1,stim/objects/Instruments/speaker2.png,stim/43.jpeg,4,stim/4.png,3,1,22,2020-12-11_13h44.50.093,premup-three_ses-02_part-03_label-phase3,3.2.4,Win32,60
1,right,0.820000172,1,1.13499999,0,3,1.200999975,0,4,1.202000141,1,0,200,20,1,199,2,1,0.3,1,stim/objects/HouseObjects/thermometer.png,stim/11.jpeg,1,stim/1.png,1,1,22,2020-12-11_13h44.50.093,premup-three_ses-02_part-03_label-phase3,3.2.4,Win32,60
1,right,0.907000065,1,0.948999882,0,3,0.774000168,0,3,0.921000004,1,0,200,8,1,199,1,1,0.5,1,stim/objects/Instruments/hihat.png,stim/51.jpeg,5,stim/5.png,1,2,22,2020-12-11_13h44.50.093,premup-three_ses-02_part-03_label-phase3,3.2.4,Win32,60
1,left,0.844000101,3,1.621000051,0,2,2.400000095,0,3,1.761000156,1,0,200,3,1,199,1,1,0.5,1,stim/objects/HouseObjects/handvacuum.png,stim/52.jpeg,5,stim/5.png,2,4,22,2020-12-11_13h44.50.093,premup-three_ses-02_part-03_label-phase3,3.2.4,Win32,60
1,right,1.052000046,,,0,,,0,,,1,0,200,106,1,199,0,1,0,2,stim/objects/HouseObjects/bottle3.png,,0,stim/0.png,0,0,22,2020-12-11_13h44.50.093,premup-three_ses-02_part-03_label-phase3,3.2.4,Win32,60
1,right,1.496000051,,,0,,,0,,,1,0,200,139,1,199,0,2,0,2,stim/objects/Instruments/grandpiano3.png,,0,stim/0.png,0,0,22,2020-12-11_13h44.50.093,premup-three_ses-02_part-03_label-phase3,3.2.4,Win32,60
1,left,0.802999973,3,0.921000004,0,4,1.838000059,0,1,0.84100008,1,0,200,32,1,199,2,2,0.7,1,stim/objects/Instruments/violin.png,stim/14.jpeg,1,stim/1.png,4,2,22,2020-12-11_13h44.50.093,premup-three_ses-02_part-03_label-phase3,3.2.4,Win32,60
1,left,1.012000084,,,0,,,0,,,1,0,200,196,1,199,0,2,0,2,stim/objects/Instruments/doublebass4.png,,0,stim/0.png,0,0,22,2020-12-11_13h44.50.093,premup-three_ses-02_part-03_label-phase3,3.2.4,Win32,60
1,left,0.754000187,4,2.013000011,0,1,1.590000153,0,3,1.180000067,1,0,200,30,1,199,2,2,0.7,1,stim/objects/Instruments/trumpet.png,stim/12.jpeg,1,stim/1.png,2,4,22,2020-12-11_13h44.50.093,premup-three_ses-02_part-03_label-phase3,3.2.4,Win32,60
1,left,0.717999935,4,1.236000061,0,3,3.725000143,0,3,1.795000076,1,0,200,82,1,199,3,1,0.9,1,stim/objects/HouseObjects/sponge2.png,stim/43.jpeg,4,stim/4.png,3,4,22,2020-12-11_13h44.50.093,premup-three_ses-02_part-03_label-phase3,3.2.4,Win32,60
1,right,1.50999999,,,0,,,0,,,1,0,200,171,1,199,0,2,0,2,stim/objects/Instruments/tuba3.png,,0,stim/0.png,0,0,22,2020-12-11_13h44.50.093,premup-three_ses-02_part-03_label-phase3,3.2.4,Win32,60
1,left,0.854000092,,,0,,,0,,,1,0,200,184,1,199,0,1,0,2,stim/objects/HouseObjects/clock4.png,,0,stim/0.png,0,0,22,2020-12-11_13h44.50.093,premup-three_ses-02_part-03_label-phase3,3.2.4,Win32,60
1,left,0.820000172,4,1.578999996,0,4,1.545000076,0,1,0.601000071,1,0,200,26,1,199,2,1,0.3,1,stim/objects/HouseObjects/ballofstring2.png,stim/13.jpeg,1,stim/1.png,3,3,22,2020-12-11_13h44.50.093,premup-three_ses-02_part-03_label-phase3,3.2.4,Win32,60
1,right,0.982000113,,,0,,,0,,,1,0,200,142,1,199,0,1,0,2,stim/objects/HouseObjects/handbrush3.png,,0,stim/0.png,0,0,22,2020-12-11_13h44.50.093,premup-three_ses-02_part-03_label-phase3,3.2.4,Win32,60
1,left,0.88499999,,,0,,,0,,,1,0,200,148,1,199,0,1,0,2,stim/objects/HouseObjects/spraybottle3.png,,0,stim/0.png,0,0,22,2020-12-11_13h44.50.093,premup-three_ses-02_part-03_label-phase3,3.2.4,Win32,60
1,left,1.161999941,2,1.246000051,0,2,1.723000288,0,4,1.009000063,1,0,200,17,1,199,1,2,0.5,1,stim/objects/Instruments/timbal.png,stim/62.jpeg,6,stim/6.png,2,4,22,2020-12-11_13h44.50.093,premup-three_ses-02_part-03_label-phase3,3.2.4,Win32,60
1,left,1.369000196,,,0,,,0,,,1,0,200,110,1,199,0,2,0,2,stim/objects/Instruments/accordion3.png,,0,stim/0.png,0,0,22,2020-12-11_13h44.50.093,premup-three_ses-02_part-03_label-phase3,3.2.4,Win32,60
1,right,0.984999895,,,0,,,0,,,1,0,200,187,1,199,0,1,0,2,stim/objects/HouseObjects/coffee4.png,,0,stim/0.png,0,0,22,2020-12-11_13h44.50.093,premup-three_ses-02_part-03_label-phase3,3.2.4,Win32,60
1,right,0.84100008,,,0,,,0,,,1,0,200,134,1,199,0,2,0,2,stim/objects/Instruments/electricguitar3.png,,0,stim/0.png,0,0,22,2020-12-11_13h44.50.093,premup-three_ses-02_part-03_label-phase3,3.2.4,Win32,60
1,left,0.754000187,3,0.933000326,0,3,4.549000025,0,4,0.588000059,1,0,200,56,1,199,2,2,0.3,1,stim/objects/Instruments/doublebass2.png,stim/24.jpeg,2,stim/2.png,4,3,22,2020-12-11_13h44.50.093,premup-three_ses-02_part-03_label-phase3,3.2.4,Win32,60
1,left,1.308000088,2,1.53399992,0,4,0.879000187,0,2,1.070000172,1,0,200,36,1,199,2,2,0.7,1,stim/objects/Instruments/acousticguitar2.png,stim/14.jpeg,1,stim/1.png,4,4,22,2020-12-11_13h44.50.093,premup-three_ses-02_part-03_label-phase3,3.2.4,Win32,60
1,left,0.883000135,,,0,,,0,,,1,0,200,198,1,199,0,2,0,2,stim/objects/Instruments/electricdrumset4.png,,0,stim/0.png,0,0,22,2020-12-11_13h44.50.093,premup-three_ses-02_part-03_label-phase3,3.2.4,Win32,60
1,left,0.849000216,,,0,,,0,,,1,0,200,158,1,199,0,2,0,2,stim/objects/Instruments/triangle3.png,,0,stim/0.png,0,0,22,2020-12-11_13h44.50.093,premup-three_ses-02_part-03_label-phase3,3.2.4,Win32,60
1,left,0.697000265,,,0,,,0,,,1,0,200,176,1,199,0,2,0,2,stim/objects/Instruments/acousticguitar4.png,,0,stim/0.png,0,0,22,2020-12-11_13h44.50.093,premup-three_ses-02_part-03_label-phase3,3.2.4,Win32,60
1,right,0.754999876,2,2.586000204,0,4,1.753000021,0,3,0.736000299,1,0,200,63,1,199,3,1,0.1,1,stim/objects/HouseObjects/garbagebin2.png,stim/34.jpeg,3,stim/3.png,4,4,22,2020-12-11_13h44.50.093,premup-three_ses-02_part-03_label-phase3,3.2.4,Win32,60
1,left,1.321000099,,,0,,,0,,,1,0,200,152,1,199,0,2,0,2,stim/objects/Instruments/harp3.png,,0,stim/0.png,0,0,22,2020-12-11_13h44.50.093,premup-three_ses-02_part-03_label-phase3,3.2.4,Win32,60
1,right,0.707999945,,,0,,,0,,,1,0,200,114,1,199,0,2,0,2,stim/objects/Instruments/bassdrum3.png,,0,stim/0.png,0,0,22,2020-12-11_13h44.50.093,premup-three_ses-02_part-03_label-phase3,3.2.4,Win32,60
1,right,0.792000055,3,1.718000174,0,4,0.769000053,0,3,0.748000145,1,0,200,59,1,199,2,2,0.3,1,stim/objects/Instruments/electricguitar2.png,stim/23.jpeg,2,stim/2.png,3,1,22,2020-12-11_13h44.50.093,premup-three_ses-02_part-03_label-phase3,3.2.4,Win32,60
1,left,0.904999971,3,1.318000078,0,2,0.621999979,0,3,0.537000179,1,0,200,7,1,199,1,1,0.5,1,stim/objects/Instruments/harp.png,stim/54.jpeg,5,stim/5.png,4,4,22,2020-12-11_13h44.50.093,premup-three_ses-02_part-03_label-phase3,3.2.4,Win32,60
1,right,1.255000114,2,1.198000193,0,4,2.488000154,0,3,0.721000195,1,0,200,83,1,199,3,1,0.9,1,stim/objects/HouseObjects/spraybottle2.png,stim/44.jpeg,4,stim/4.png,4,1,22,2020-12-11_13h44.50.093,premup-three_ses-02_part-03_label-phase3,3.2.4,Win32,60
1,left,1.154999971,3,1.067000151,0,2,1.257000208,0,1,0.98300004,1,0,200,27,1,199,2,1,0.3,1,stim/objects/HouseObjects/barbecuelighter2.png,stim/14.jpeg,1,stim/1.png,4,3,22,2020-12-11_13h44.50.093,premup-three_ses-02_part-03_label-phase3,3.2.4,Win32,60
1,right,0.889000177,3,1.482000113,0,4,0.684000254,0,3,0.878000021,1,0,200,75,1,199,3,2,0.9,1,stim/objects/Instruments/guitarcase2.png,stim/34.jpeg,3,stim/3.png,4,4,22,2020-12-11_13h44.50.093,premup-three_ses-02_part-03_label-phase3,3.2.4,Win32,60
1,right,0.855999947,3,1.549000025,0,4,1.171000242,0,2,0.68200016,1,0,200,28,1,199,2,1,0.3,1,stim/objects/HouseObjects/basket2.png,stim/11.jpeg,1,stim/1.png,1,2,22,2020-12-11_13h44.50.093,premup-three_ses-02_part-03_label-phase3,3.2.4,Win32,60
1,right,0.805000067,,,0,,,0,,,1,0,200,103,1,199,0,1,0,2,stim/objects/HouseObjects/basket3.png,,0,stim/0.png,0,0,22,2020-12-11_13h44.50.093,premup-three_ses-02_part-03_label-phase3,3.2.4,Win32,60
1,right,0.789000034,2,1.26699996,0,4,1.090000153,0,1,0.805000067,1,0,200,81,1,199,3,1,0.9,1,stim/objects/HouseObjects/scale2.png,stim/42.jpeg,4,stim/4.png,2,4,22,2020-12-11_13h44.50.093,premup-three_ses-02_part-03_label-phase3,3.2.4,Win32,60
1,left,0.90500021,2,1.266000032,0,1,1.22300005,0,3,0.553000212,1,0,200,57,1,199,2,2,0.3,1,stim/objects/Instruments/drums2.png,stim/21.jpeg,2,stim/2.png,1,3,22,2020-12-11_13h44.50.093,premup-three_ses-02_part-03_label-phase3,3.2.4,Win32,60
1,left,0.954999924,3,1.684999943,0,4,1.289000034,0,3,0.855999947,1,0,200,98,1,199,3,2,0.1,1,stim/objects/Instruments/vuvuzela2.png,stim/43.jpeg,4,stim/4.png,3,3,22,2020-12-11_13h44.50.093,premup-three_ses-02_part-03_label-phase3,3.2.4,Win32,60
1,left,1.020000219,4,1.732000113,0,4,2.406000137,0,2,1.076000214,1,0,200,44,1,199,2,1,0.7,1,stim/objects/HouseObjects/clock2.png,stim/24.jpeg,2,stim/2.png,4,3,22,2020-12-11_13h44.50.093,premup-three_ses-02_part-03_label-phase3,3.2.4,Win32,60
1,left,1.019000053,,,0,,,0,,,1,0,200,105,1,199,0,1,0,2,stim/objects/HouseObjects/blender3.png,,0,stim/0.png,0,0,22,2020-12-11_13h44.50.093,premup-three_ses-02_part-03_label-phase3,3.2.4,Win32,60
1,left,1.252000093,,,0,,,0,,,1,0,200,153,1,199,0,2,0,2,stim/objects/Instruments/hihat3.png,,0,stim/0.png,0,0,22,2020-12-11_13h44.50.093,premup-three_ses-02_part-03_label-phase3,3.2.4,Win32,60
1,right,0.890000105,,,0,,,0,,,1,0,200,141,1,199,0,1,0,2,stim/objects/HouseObjects/hairdryer3.png,,0,stim/0.png,0,0,22,2020-12-11_13h44.50.093,premup-three_ses-02_part-03_label-phase3,3.2.4,Win32,60
1,right,0.972000122,,,0,,,0,,,1,0,200,132,1,199,0,2,0,2,stim/objects/Instruments/drums3.png,,0,stim/0.png,0,0,22,2020-12-11_13h44.50.093,premup-three_ses-02_part-03_label-phase3,3.2.4,Win32,60
1,right,0.976000071,,,0,,,0,,,1,0,200,107,1,199,0,1,0,2,stim/objects/HouseObjects/broom3.png,,0,stim/0.png,0,0,22,2020-12-11_13h44.50.093,premup-three_ses-02_part-03_label-phase3,3.2.4,Win32,60
1,left,0.967999935,,,0,,,0,,,1,0,200,112,1,199,0,2,0,2,stim/objects/Instruments/balalaika3.png,,0,stim/0.png,0,0,22,2020-12-11_13h44.50.093,premup-three_ses-02_part-03_label-phase3,3.2.4,Win32,60
1,right,0.955000162,2,2.097000122,0,2,0.959000111,0,3,0.700999975,1,0,200,42,1,199,2,1,0.7,1,stim/objects/HouseObjects/broom2.png,stim/22.jpeg,2,stim/2.png,2,4,22,2020-12-11_13h44.50.093,premup-three_ses-02_part-03_label-phase3,3.2.4,Win32,60
1,left,1.107000113,3,1.746999979,0,3,1.478000164,0,1,1.921000004,1,0,200,88,1,199,3,1,0.9,1,stim/objects/HouseObjects/vacuumcleaner2.png,stim/41.jpeg,4,stim/4.png,1,2,22,2020-12-11_13h44.50.093,premup-three_ses-02_part-03_label-phase3,3.2.4,Win32,60
1,left,0.973999977,3,2.183000088,0,2,2.104000092,0,3,1.836000204,1,0,200,95,1,199,3,2,0.1,1,stim/objects/Instruments/trumpet2.png,stim/44.jpeg,4,stim/4.png,4,1,22,2020-12-11_13h44.50.093,premup-three_ses-02_part-03_label-phase3,3.2.4,Win32,60
1,right,1.443000078,,,0,,,0,,,1,0,200,122,1,199,0,1,0,2,stim/objects/HouseObjects/coffee3.png,,0,stim/0.png,0,0,22,2020-12-11_13h44.50.093,premup-three_ses-02_part-03_label-phase3,3.2.4,Win32,60
1,left,0.815000057,,,0,,,0,,,1,0,200,166,1,199,0,1,0,2,stim/objects/HouseObjects/ballofstring4.png,,0,stim/0.png,0,0,22,2020-12-11_13h44.50.093,premup-three_ses-02_part-03_label-phase3,3.2.4,Win32,60
1,left,0.885000229,4,1.351999998,0,4,3.101000071,0,1,0.93900013,1,0,200,10,1,199,1,2,0.5,1,stim/objects/HouseObjects/saw.png,stim/61.jpeg,6,stim/6.png,1,2,22,2020-12-11_13h44.50.093,premup-three_ses-02_part-03_label-phase3,3.2.4,Win32,60
1,left,0.967000008,,,0,,,0,,,1,0,200,159,1,199,0,2,0,2,stim/objects/Instruments/trombone3.png,,0,stim/0.png,0,0,22,2020-12-11_13h44.50.093,premup-three_ses-02_part-03_label-phase3,3.2.4,Win32,60
1,right,0.970000029,,,0,,,0,,,1,0,200,115,1,199,0,2,0,2,stim/objects/Instruments/bassguitar3.png,,0,stim/0.png,0,0,22,2020-12-11_13h44.50.093,premup-three_ses-02_part-03_label-phase3,3.2.4,Win32,60
1,left,0.986999989,4,1.170000076,0,2,1.506000042,0,3,0.995000124,1,0,200,71,1,199,3,2,0.9,1,stim/objects/Instruments/flutetrans2.png,stim/34.jpeg,3,stim/3.png,4,4,22,2020-12-11_13h44.50.093,premup-three_ses-02_part-03_label-phase3,3.2.4,Win32,60
1,left,0.806000233,4,1.083000183,0,2,1.302000046,0,2,0.910000086,1,0,200,4,1,199,1,1,0.5,1,stim/objects/HouseObjects/safetypin.png,stim/53.jpeg,5,stim/5.png,3,3,22,2020-12-11_13h44.50.093,premup-three_ses-02_part-03_label-phase3,3.2.4,Win32,60
1,left,1.624000072,4,1.150000095,0,1,2.090000153,0,3,1.838999987,1,0,200,55,1,199,2,2,0.3,1,stim/objects/Instruments/cymbal2.png,stim/23.jpeg,2,stim/2.png,3,4,22,2020-12-11_13h44.50.093,premup-three_ses-02_part-03_label-phase3,3.2.4,Win32,60
1,left,0.937000275,3,0.546000004,0,4,0.839000225,0,2,0.774000168,1,0,200,70,1,199,3,2,0.9,1,stim/objects/Instruments/flute2.png,stim/33.jpeg,3,stim/3.png,3,4,22,2020-12-11_13h44.50.093,premup-three_ses-02_part-03_label-phase3,3.2.4,Win32,60
1,right,0.960999966,,,0,,,0,,,1,0,200,160,1,199,0,1,0,2,stim/objects/HouseObjects/thermometer3.png,,0,stim/0.png,0,0,22,2020-12-11_13h44.50.093,premup-three_ses-02_part-03_label-phase3,3.2.4,Win32,60
1,right,1.021000147,2,1.349000216,0,3,0.523000002,0,3,1.495000124,1,0,200,78,1,199,3,2,0.9,1,stim/objects/Instruments/hihat2.png,stim/33.jpeg,3,stim/3.png,3,3,22,2020-12-11_13h44.50.093,premup-three_ses-02_part-03_label-phase3,3.2.4,Win32,60
1,right,1.036000252,1,1.174000025,0,2,0.710999966,0,4,0.753000021,1,0,200,77,1,199,3,2,0.9,1,stim/objects/Instruments/harp2.png,stim/32.jpeg,3,stim/3.png,2,1,22,2020-12-11_13h44.50.093,premup-three_ses-02_part-03_label-phase3,3.2.4,Win32,60
1,left,1.019000053,2,0.963000059,0,3,0.890000105,0,1,0.910000086,1,0,200,43,1,199,2,1,0.7,1,stim/objects/HouseObjects/bucket2.png,stim/23.jpeg,2,stim/2.png,3,3,22,2020-12-11_13h44.50.093,premup-three_ses-02_part-03_label-phase3,3.2.4,Win32,60
1,right,0.942000151,,,0,,,0,,,1,0,200,126,1,199,0,1,0,2,stim/objects/HouseObjects/dustpan3.png,,0,stim/0.png,0,0,22,2020-12-11_13h44.50.093,premup-three_ses-02_part-03_label-phase3,3.2.4,Win32,60
1,right,0.800000191,3,1.75,0,4,0.851000071,0,1,0.660000086,1,0,200,96,1,199,3,2,0.1,1,stim/objects/Instruments/tuba2.png,stim/41.jpeg,4,stim/4.png,1,3,22,2020-12-11_13h44.50.093,premup-three_ses-02_part-03_label-phase3,3.2.4,Win32,60
1,left,0.959000111,2,1.149000168,0,4,0.84100008,0,3,0.770000219,1,0,200,21,1,199,2,1,0.3,1,stim/objects/HouseObjects/thread.png,stim/12.jpeg,1,stim/1.png,2,3,22,2020-12-11_13h44.50.093,premup-three_ses-02_part-03_label-phase3,3.2.4,Win32,60
1,left,0.953999996,4,0.866999865,0,4,1.59100008,0,1,0.796000004,1,0,200,99,1,199,3,2,0.1,1,stim/objects/Instruments/xylophone2.png,stim/44.jpeg,4,stim/4.png,4,2,22,2020-12-11_13h44.50.093,premup-three_ses-02_part-03_label-phase3,3.2.4,Win32,60
1,left,0.921999931,2,0.784000158,0,1,2.522000313,0,2,0.825999975,1,0,200,92,1,199,3,2,0.1,1,stim/objects/Instruments/timbal2.png,stim/41.jpeg,4,stim/4.png,1,1,22,2020-12-11_13h44.50.093,premup-three_ses-02_part-03_label-phase3,3.2.4,Win32,60
1,left,1.753000021,3,1.031000137,0,1,1.507000208,0,4,0.476000071,1,0,200,91,1,199,3,2,0.1,1,stim/objects/Instruments/tambourine2.png,stim/44.jpeg,4,stim/4.png,4,4,22,2020-12-11_13h44.50.093,premup-three_ses-02_part-03_label-phase3,3.2.4,Win32,60
1,left,1.22300005,4,1.1650002,0,1,3.30099988,0,2,1.311000109,1,0,200,11,1,199,1,2,0.5,1,stim/objects/HouseObjects/scale.png,stim/62.jpeg,6,stim/6.png,2,2,22,2020-12-11_13h44.50.093,premup-three_ses-02_part-03_label-phase3,3.2.4,Win32,60
1,right,1.690999985,2,0.899000168,0,2,1.003000259,0,3,0.586000204,1,0,200,72,1,199,3,2,0.9,1,stim/objects/Instruments/frenchhorn2.png,stim/31.jpeg,3,stim/3.png,1,1,22,2020-12-11_13h44.50.093,premup-three_ses-02_part-03_label-phase3,3.2.4,Win32,60
1,right,1.093000174,,,0,,,0,,,1,0,200,108,1,199,0,1,0,2,stim/objects/HouseObjects/bucket3.png,,0,stim/0.png,0,0,22,2020-12-11_13h44.50.093,premup-three_ses-02_part-03_label-phase3,3.2.4,Win32,60
1,left,1.786000013,4,1.532999992,0,1,1.495000124,0,2,1.302999973,1,0,200,1,1,199,1,1,0.5,1,stim/objects/HouseObjects/hairdryer.png,stim/54.jpeg,5,stim/5.png,4,3,22,2020-12-11_13h44.50.093,premup-three_ses-02_part-03_label-phase3,3.2.4,Win32,60
1,right,0.72300005,,,0,,,0,,,1,0,200,181,1,199,0,1,0,2,stim/objects/HouseObjects/bottle4.png,,0,stim/0.png,0,0,22,2020-12-11_13h44.50.093,premup-three_ses-02_part-03_label-phase3,3.2.4,Win32,60
1,right,0.887000084,,,0,,,0,,,1,0,200,104,1,199,0,1,0,2,stim/objects/HouseObjects/bleachbottle3.png,,0,stim/0.png,0,0,22,2020-12-11_13h44.50.093,premup-three_ses-02_part-03_label-phase3,3.2.4,Win32,60
1,left,0.906000137,3,1.835000038,0,4,1.123000145,0,2,0.754000187,1,0,200,37,1,199,2,2,0.7,1,stim/objects/Instruments/balalaika2.png,stim/11.jpeg,1,stim/1.png,1,4,22,2020-12-11_13h44.50.093,premup-three_ses-02_part-03_label-phase3,3.2.4,Win32,60
1,left,1.795000076,4,1.588999987,0,3,2.440000057,0,4,0.842000008,1,0,200,76,1,199,3,2,0.9,1,stim/objects/Instruments/harmonica2.png,stim/31.jpeg,3,stim/3.png,1,1,22,2020-12-11_13h44.50.093,premup-three_ses-02_part-03_label-phase3,3.2.4,Win32,60
1,right,1.018000126,2,1.014000177,0,3,1.340000153,0,1,0.481000185,1,0,200,87,1,199,3,1,0.9,1,stim/objects/HouseObjects/towel2.png,stim/44.jpeg,4,stim/4.png,4,3,22,2020-12-11_13h44.50.093,premup-three_ses-02_part-03_label-phase3,3.2.4,Win32,60
1,right,1.136000156,,,0,,,0,,,1,0,200,120,1,199,0,1,0,2,stim/objects/HouseObjects/clothesdryingrack3.png,,0,stim/0.png,0,0,22,2020-12-11_13h44.50.093,premup-three_ses-02_part-03_label-phase3,3.2.4,Win32,60
1,right,0.786000013,,,0,,,0,,,1,0,200,190,1,199,0,2,0,2,stim/objects/Instruments/bassguitar4.png,,0,stim/0.png,0,0,22,2020-12-11_13h44.50.093,premup-three_ses-02_part-03_label-phase3,3.2.4,Win32,60
1,left,0.822999954,3,0.828000069,0,4,1.10800004,0,2,1.160000086,1,0,200,50,1,199,2,2,0.3,1,stim/objects/Instruments/bassguitar2.png,stim/22.jpeg,2,stim/2.png,2,4,22,2020-12-11_13h44.50.093,premup-three_ses-02_part-03_label-phase3,3.2.4,Win32,60
1,left,0.970999956,4,1.032999992,0,4,1.503999949,0,2,1.180000305,1,0,200,15,1,199,1,2,0.5,1,stim/objects/Instruments/speaker.png,stim/64.jpeg,6,stim/6.png,4,1,22,2020-12-11_13h44.50.093,premup-three_ses-02_part-03_label-phase3,3.2.4,Win32,60
1,left,2.104000092,,,0,,,0,,,1,0,200,172,1,199,0,2,0,2,stim/objects/Instruments/violin3.png,,0,stim/0.png,0,0,22,2020-12-11_13h44.50.093,premup-three_ses-02_part-03_label-phase3,3.2.4,Win32,60
1,right,1.154000044,2,1.568000078,0,2,1.020999908,0,3,0.631000042,1,0,200,40,1,199,2,1,0.7,1,stim/objects/HouseObjects/blender2.png,stim/24.jpeg,2,stim/2.png,4,3,22,2020-12-11_13h44.50.093,premup-three_ses-02_part-03_label-phase3,3.2.4,Win32,60
1,right,0.925000191,,,0,,,0,,,1,0,200,178,1,199,0,2,0,2,stim/objects/Instruments/banjo4.png,,0,stim/0.png,0,0,22,2020-12-11_13h44.50.093,premup-three_ses-02_part-03_label-phase3,3.2.4,Win32,60
1,left,0.834000111,4,0.788000107,0,3,2.070000172,0,3,0.829000235,1,0,200,67,1,199,3,1,0.1,1,stim/objects/HouseObjects/handbrush2.png,stim/34.jpeg,3,stim/3.png,4,3,22,2020-12-11_13h44.50.093,premup-three_ses-02_part-03_label-phase3,3.2.4,Win32,60
1,left,1.090000153,4,0.631000042,0,3,2.442000151,0,2,1.924999952,1,0,200,60,1,199,3,1,0.1,1,stim/objects/HouseObjects/doormat2.png,stim/31.jpeg,3,stim/3.png,1,1,22,2020-12-11_13h44.50.093,premup-three_ses-02_part-03_label-phase3,3.2.4,Win32,60
1,left,0.976999998,3,0.851999998,0,2,2.372000217,0,4,0.786999941,1,0,200,94,1,199,3,2,0.1,1,stim/objects/Instruments/trombone2.png,stim/43.jpeg,4,stim/4.png,3,4,22,2020-12-11_13h44.50.093,premup-three_ses-02_part-03_label-phase3,3.2.4,Win32,60
1,right,1.150000095,2,1.588999987,0,1,0.707000017,0,4,0.736000299,1,0,200,64,1,199,3,1,0.1,1,stim/objects/HouseObjects/glass2.png,stim/31.jpeg,3,stim/3.png,1,1,22,2020-12-11_13h44.50.093,premup-three_ses-02_part-03_label-phase3,3.2.4,Win32,60
1,left,1.869000196,,,0,,,0,,,1,0,200,137,1,199,0,2,0,2,stim/objects/Instruments/frenchhorn3.png,,0,stim/0.png,0,0,22,2020-12-11_13h44.50.093,premup-three_ses-02_part-03_label-phase3,3.2.4,Win32,60
1,left,0.904000044,4,1.002000093,0,2,0.861999989,0,4,0.749000072,1,0,200,46,1,199,2,1,0.7,1,stim/objects/HouseObjects/clothespin2.png,stim/22.jpeg,2,stim/2.png,2,3,22,2020-12-11_13h44.50.093,premup-three_ses-02_part-03_label-phase3,3.2.4,Win32,60
1,left,1.167999983,3,0.847000122,0,4,0.74000001,0,2,1.411000013,1,0,200,54,1,199,2,2,0.3,1,stim/objects/Instruments/cornet2.png,stim/22.jpeg,2,stim/2.png,2,4,22,2020-12-11_13h44.50.093,premup-three_ses-02_part-03_label-phase3,3.2.4,Win32,60
