key_resp_trial.keys,key_resp_trial.rt,trial_acc,trial_index,iterations.thisRepN,iterations.thisTrialN,iterations.thisN,iterations.thisIndex,iterations.ran,iterations.order,task_innerloop.thisRepN,task_innerloop.thisTrialN,task_innerloop.thisN,task_innerloop.thisIndex,task_innerloop.ran,task_innerloop.order,scn_condition,scn_cat,scn_inst,scn_file,obj_cat,obj_cat_num,obj_file,trial_cond,quadrant,obj_x,obj_y,corr_ans,participant,date,expName,psychopyVersion,OS,frameRate,slider.response,slider.rt,slider_2.response,slider_2.rt,ratings.thisRepN,ratings.thisTrialN,ratings.thisN,ratings.thisIndex,ratings.ran,ratings.order,obj_cat_top,min_resp_top,max_resp_top,obj_cat_bottom,min_resp_bottom,max_resp_bottom,enc_trials.thisRepN,enc_trials.thisTrialN,enc_trials.thisN,enc_trials.thisIndex,enc_trials.ran,enc_trials.order,fillers,ratings_final.thisRepN,ratings_final.thisTrialN,ratings_final.thisN,ratings_final.thisIndex,ratings_final.ran,ratings_final.order
,,0,1,1,0,1,0,1,0,1,0,240,164,1,239,3,5,1,stim/51.jpeg,HouseObjects,2,stim/objects/HouseObjects/safetypin2.png,0.9,2,0.2,0.15,right,23,2020-12-18_10h10.05.997,premup-three_ses-02_part-02_label-phase2,3.2.4,Win32,60,,,,,,,,,,,,,,,,,,,,,,,,,,,,,
right,0.633000135,1,2,1,0,1,0,1,0,1,0,240,103,1,239,2,3,4,stim/34.jpeg,HouseObjects,2,stim/objects/HouseObjects/thread.png,0.7,3,-0.2,-0.15,right,23,2020-12-18_10h10.05.997,premup-three_ses-02_part-02_label-phase2,3.2.4,Win32,60,,,,,,,,,,,,,,,,,,,,,,,,,,,,,
right,0.484000206,1,3,1,0,1,0,1,0,1,0,240,165,1,239,3,5,2,stim/52.jpeg,HouseObjects,2,stim/objects/HouseObjects/saw2.png,0.9,2,0.2,0.15,right,23,2020-12-18_10h10.05.997,premup-three_ses-02_part-02_label-phase2,3.2.4,Win32,60,,,,,,,,,,,,,,,,,,,,,,,,,,,,,
right,0.837000132,0,4,1,0,1,0,1,0,1,0,240,81,1,239,2,3,2,stim/32.jpeg,Instruments,1,stim/objects/Instruments/trombone.png,0.3,2,0.2,0.15,left,23,2020-12-18_10h10.05.997,premup-three_ses-02_part-02_label-phase2,3.2.4,Win32,60,,,,,,,,,,,,,,,,,,,,,,,,,,,,,
left,0.723999977,1,5,1,0,1,0,1,0,1,0,240,145,1,239,2,4,2,stim/42.jpeg,Instruments,1,stim/objects/Instruments/pipepiano2.png,0.7,4,0.2,-0.15,left,23,2020-12-18_10h10.05.997,premup-three_ses-02_part-02_label-phase2,3.2.4,Win32,60,,,,,,,,,,,,,,,,,,,,,,,,,,,,,
right,0.652000189,1,6,1,0,1,0,1,0,1,0,240,169,1,239,3,5,2,stim/52.jpeg,HouseObjects,2,stim/objects/HouseObjects/saw2.png,0.9,4,0.2,-0.15,right,23,2020-12-18_10h10.05.997,premup-three_ses-02_part-02_label-phase2,3.2.4,Win32,60,,,,,,,,,,,,,,,,,,,,,,,,,,,,,
left,0.59700036,1,7,1,0,1,0,1,0,1,0,240,234,1,239,3,6,3,stim/63.jpeg,Instruments,1,stim/objects/Instruments/trumpet2.png,0.9,4,0.2,-0.15,left,23,2020-12-18_10h10.05.997,premup-three_ses-02_part-02_label-phase2,3.2.4,Win32,60,,,,,,,,,,,,,,,,,,,,,,,,,,,,,
left,0.577000141,1,8,1,0,1,0,1,0,1,0,240,12,1,239,1,1,1,stim/11.jpeg,Instruments,1,stim/objects/Instruments/panflute.png,0.5,1,-0.2,0.15,left,23,2020-12-18_10h10.05.997,premup-three_ses-02_part-02_label-phase2,3.2.4,Win32,60,,,,,,,,,,,,,,,,,,,,,,,,,,,,,
left,0.579000235,1,9,1,0,1,0,1,0,1,0,240,219,1,239,3,6,4,stim/64.jpeg,Instruments,1,stim/objects/Instruments/tuba2.png,0.9,2,0.2,0.15,left,23,2020-12-18_10h10.05.997,premup-three_ses-02_part-02_label-phase2,3.2.4,Win32,60,,,,,,,,,,,,,,,,,,,,,,,,,,,,,
left,0.56400013,1,10,1,0,1,0,1,0,1,0,240,141,1,239,2,4,2,stim/42.jpeg,Instruments,1,stim/objects/Instruments/pipepiano2.png,0.7,3,-0.2,-0.15,left,23,2020-12-18_10h10.05.997,premup-three_ses-02_part-02_label-phase2,3.2.4,Win32,60,,,,,,,,,,,,,,,,,,,,,,,,,,,,,
right,0.507000208,1,11,1,0,1,0,1,0,1,0,240,70,1,239,1,2,3,stim/23.jpeg,HouseObjects,2,stim/objects/HouseObjects/scale.png,0.5,4,0.2,-0.15,right,23,2020-12-18_10h10.05.997,premup-three_ses-02_part-02_label-phase2,3.2.4,Win32,60,,,,,,,,,,,,,,,,,,,,,,,,,,,,,
right,0.609000206,1,12,1,0,1,0,1,0,1,0,240,23,1,239,1,1,4,stim/14.jpeg,HouseObjects,2,stim/objects/HouseObjects/rug.png,0.5,2,0.2,0.15,right,23,2020-12-18_10h10.05.997,premup-three_ses-02_part-02_label-phase2,3.2.4,Win32,60,,,,,,,,,,,,,,,,,,,,,,,,,,,,,
left,0.510000229,1,13,1,0,1,0,1,0,1,0,240,227,1,239,3,6,4,stim/64.jpeg,Instruments,1,stim/objects/Instruments/tuba2.png,0.9,3,-0.2,-0.15,left,23,2020-12-18_10h10.05.997,premup-three_ses-02_part-02_label-phase2,3.2.4,Win32,60,,,,,,,,,,,,,,,,,,,,,,,,,,,,,
left,0.583000183,0,14,1,0,1,0,1,0,1,0,240,238,1,239,3,6,3,stim/63.jpeg,HouseObjects,2,stim/objects/HouseObjects/thermometer2.png,0.1,4,0.2,-0.15,right,23,2020-12-18_10h10.05.997,premup-three_ses-02_part-02_label-phase2,3.2.4,Win32,60,,,,,,,,,,,,,,,,,,,,,,,,,,,,,
right,0.671000004,1,15,1,0,1,0,1,0,1,0,240,196,1,239,3,5,1,stim/51.jpeg,HouseObjects,2,stim/objects/HouseObjects/safetypin2.png,0.9,3,-0.2,-0.15,right,23,2020-12-18_10h10.05.997,premup-three_ses-02_part-02_label-phase2,3.2.4,Win32,60,,,,,,,,,,,,,,,,,,,,,,,,,,,,,
left,0.660000324,0,16,1,0,1,0,1,0,1,0,240,158,1,239,2,4,3,stim/43.jpeg,HouseObjects,2,stim/objects/HouseObjects/rubbergloves2.png,0.3,4,0.2,-0.15,right,23,2020-12-18_10h10.05.997,premup-three_ses-02_part-02_label-phase2,3.2.4,Win32,60,,,,,,,,,,,,,,,,,,,,,,,,,,,,,
left,0.671000242,1,17,1,0,1,0,1,0,1,0,240,41,1,239,1,2,2,stim/22.jpeg,Instruments,1,stim/objects/Instruments/speaker.png,0.5,4,0.2,-0.15,left,23,2020-12-18_10h10.05.997,premup-three_ses-02_part-02_label-phase2,3.2.4,Win32,60,,,,,,,,,,,,,,,,,,,,,,,,,,,,,
left,0.480000019,0,18,1,0,1,0,1,0,1,0,240,77,1,239,1,2,2,stim/22.jpeg,HouseObjects,2,stim/objects/HouseObjects/saw.png,0.5,3,-0.2,-0.15,right,23,2020-12-18_10h10.05.997,premup-three_ses-02_part-02_label-phase2,3.2.4,Win32,60,,,,,,,,,,,,,,,,,,,,,,,,,,,,,
right,0.676000118,0,19,1,0,1,0,1,0,1,0,240,59,1,239,1,2,4,stim/24.jpeg,Instruments,1,stim/objects/Instruments/timbal.png,0.5,1,-0.2,0.15,left,23,2020-12-18_10h10.05.997,premup-three_ses-02_part-02_label-phase2,3.2.4,Win32,60,,,,,,,,,,,,,,,,,,,,,,,,,,,,,
left,0.674000263,1,20,1,0,1,0,1,0,1,0,240,128,1,239,2,4,1,stim/41.jpeg,Instruments,1,stim/objects/Instruments/panflute2.png,0.7,2,0.2,0.15,left,23,2020-12-18_10h10.05.997,premup-three_ses-02_part-02_label-phase2,3.2.4,Win32,60,,,,,,,,,,,,,,,,,,,,,,,,,,,,,
left,0.554000139,1,21,1,0,1,0,1,0,1,0,240,88,1,239,2,3,1,stim/31.jpeg,Instruments,1,stim/objects/Instruments/triangle.png,0.3,3,-0.2,-0.15,left,23,2020-12-18_10h10.05.997,premup-three_ses-02_part-02_label-phase2,3.2.4,Win32,60,,,,,,,,,,,,,,,,,,,,,,,,,,,,,
left,0.675000191,0,22,1,0,1,0,1,0,1,0,240,151,1,239,2,4,4,stim/44.jpeg,HouseObjects,2,stim/objects/HouseObjects/rug2.png,0.3,4,0.2,-0.15,right,23,2020-12-18_10h10.05.997,premup-three_ses-02_part-02_label-phase2,3.2.4,Win32,60,,,,,,,,,,,,,,,,,,,,,,,,,,,,,
,,0,23,1,0,1,0,1,0,1,0,240,46,1,239,1,2,3,stim/23.jpeg,Instruments,1,stim/objects/Instruments/tambourine.png,0.5,4,0.2,-0.15,left,23,2020-12-18_10h10.05.997,premup-three_ses-02_part-02_label-phase2,3.2.4,Win32,60,,,,,,,,,,,,,,,,,,,,,,,,,,,,,
right,0.414000034,1,24,1,0,1,0,1,0,1,0,240,166,1,239,3,5,3,stim/53.jpeg,HouseObjects,2,stim/objects/HouseObjects/scale2.png,0.9,2,0.2,0.15,right,23,2020-12-18_10h10.05.997,premup-three_ses-02_part-02_label-phase2,3.2.4,Win32,60,,,,,,,,,,,,,,,,,,,,,,,,,,,,,
left,0.542000055,1,25,1,0,1,0,1,0,1,0,240,146,1,239,2,4,3,stim/43.jpeg,Instruments,1,stim/objects/Instruments/record2.png,0.7,1,-0.2,0.15,left,23,2020-12-18_10h10.05.997,premup-three_ses-02_part-02_label-phase2,3.2.4,Win32,60,,,,,,,,,,,,,,,,,,,,,,,,,,,,,
left,0.419000149,1,26,1,0,1,0,1,0,1,0,240,44,1,239,1,2,1,stim/21.jpeg,Instruments,1,stim/objects/Instruments/saxophone.png,0.5,3,-0.2,-0.15,left,23,2020-12-18_10h10.05.997,premup-three_ses-02_part-02_label-phase2,3.2.4,Win32,60,,,,,,,,,,,,,,,,,,,,,,,,,,,,,
left,0.567000151,1,27,1,0,1,0,1,0,1,0,240,228,1,239,3,6,1,stim/61.jpeg,Instruments,1,stim/objects/Instruments/triangle2.png,0.9,4,0.2,-0.15,left,23,2020-12-18_10h10.05.997,premup-three_ses-02_part-02_label-phase2,3.2.4,Win32,60,,,,,,,,,,,,,,,,,,,,,,,,,,,,,
left,0.486000061,0,28,1,0,1,0,1,0,1,0,240,152,1,239,2,4,1,stim/41.jpeg,HouseObjects,2,stim/objects/HouseObjects/recyclingbin2.png,0.3,3,-0.2,-0.15,right,23,2020-12-18_10h10.05.997,premup-three_ses-02_part-02_label-phase2,3.2.4,Win32,60,,,,,,,,,,,,,,,,,,,,,,,,,,,,,
left,0.60800004,0,29,1,0,1,0,1,0,1,0,240,102,1,239,2,3,3,stim/33.jpeg,HouseObjects,2,stim/objects/HouseObjects/thermometer.png,0.7,4,0.2,-0.15,right,23,2020-12-18_10h10.05.997,premup-three_ses-02_part-02_label-phase2,3.2.4,Win32,60,,,,,,,,,,,,,,,,,,,,,,,,,,,,,
right,0.576000214,1,30,1,0,1,0,1,0,1,0,240,32,1,239,1,1,1,stim/11.jpeg,HouseObjects,2,stim/objects/HouseObjects/recyclingbin.png,0.5,1,-0.2,0.15,right,23,2020-12-18_10h10.05.997,premup-three_ses-02_part-02_label-phase2,3.2.4,Win32,60,,,,,,,,,,,,,,,,,,,,,,,,,,,,,
left,0.664999962,0,31,1,0,1,0,1,0,1,0,240,116,1,239,2,3,1,stim/31.jpeg,HouseObjects,2,stim/objects/HouseObjects/spraybottle.png,0.7,3,-0.2,-0.15,right,23,2020-12-18_10h10.05.997,premup-three_ses-02_part-02_label-phase2,3.2.4,Win32,60,,,,,,,,,,,,,,,,,,,,,,,,,,,,,
left,0.563000202,1,32,1,0,1,0,1,0,1,0,240,54,1,239,1,2,3,stim/23.jpeg,Instruments,1,stim/objects/Instruments/tambourine.png,0.5,4,0.2,-0.15,left,23,2020-12-18_10h10.05.997,premup-three_ses-02_part-02_label-phase2,3.2.4,Win32,60,,,,,,,,,,,,,,,,,,,,,,,,,,,,,
right,0.532999992,1,33,1,0,1,0,1,0,1,0,240,33,1,239,1,1,2,stim/12.jpeg,HouseObjects,2,stim/objects/HouseObjects/remote.png,0.5,2,0.2,0.15,right,23,2020-12-18_10h10.05.997,premup-three_ses-02_part-02_label-phase2,3.2.4,Win32,60,,,,,,,,,,,,,,,,,,,,,,,,,,,,,
right,0.521000147,1,34,1,0,1,0,1,0,1,0,240,190,1,239,3,5,3,stim/53.jpeg,HouseObjects,2,stim/objects/HouseObjects/scale2.png,0.9,2,0.2,0.15,right,23,2020-12-18_10h10.05.997,premup-three_ses-02_part-02_label-phase2,3.2.4,Win32,60,,,,,,,,,,,,,,,,,,,,,,,,,,,,,
right,0.460000277,0,35,1,0,1,0,1,0,1,0,240,17,1,239,1,1,2,stim/12.jpeg,Instruments,1,stim/objects/Instruments/pipepiano.png,0.5,4,0.2,-0.15,left,23,2020-12-18_10h10.05.997,premup-three_ses-02_part-02_label-phase2,3.2.4,Win32,60,,,,,,,,,,,,,,,,,,,,,,,,,,,,,
left,0.562000036,1,36,1,0,1,0,1,0,1,0,240,129,1,239,2,4,2,stim/42.jpeg,Instruments,1,stim/objects/Instruments/pipepiano2.png,0.7,1,-0.2,0.15,left,23,2020-12-18_10h10.05.997,premup-three_ses-02_part-02_label-phase2,3.2.4,Win32,60,,,,,,,,,,,,,,,,,,,,,,,,,,,,,
left,0.472000122,1,37,1,0,1,0,1,0,1,0,240,13,1,239,1,1,2,stim/12.jpeg,Instruments,1,stim/objects/Instruments/pipepiano.png,0.5,1,-0.2,0.15,left,23,2020-12-18_10h10.05.997,premup-three_ses-02_part-02_label-phase2,3.2.4,Win32,60,,,,,,,,,,,,,,,,,,,,,,,,,,,,,
right,0.620000124,0,38,1,0,1,0,1,0,1,0,240,6,1,239,1,1,3,stim/13.jpeg,Instruments,1,stim/objects/Instruments/record.png,0.5,2,0.2,0.15,left,23,2020-12-18_10h10.05.997,premup-three_ses-02_part-02_label-phase2,3.2.4,Win32,60,,,,,,,,,,,,,,,,,,,,,,,,,,,,,
left,0.558000088,1,39,1,0,1,0,1,0,1,0,240,89,1,239,2,3,2,stim/32.jpeg,Instruments,1,stim/objects/Instruments/trombone.png,0.3,3,-0.2,-0.15,left,23,2020-12-18_10h10.05.997,premup-three_ses-02_part-02_label-phase2,3.2.4,Win32,60,,,,,,,,,,,,,,,,,,,,,,,,,,,,,
left,0.583000183,1,40,1,0,1,0,1,0,1,0,240,202,1,239,3,6,3,stim/63.jpeg,Instruments,1,stim/objects/Instruments/trumpet2.png,0.9,4,0.2,-0.15,left,23,2020-12-18_10h10.05.997,premup-three_ses-02_part-02_label-phase2,3.2.4,Win32,60,,,,,,,,,,,,,,,,,,,,,,,,,,,,,
left,0.457000256,1,41,1,0,1,0,1,0,1,0,240,85,1,239,2,3,2,stim/32.jpeg,Instruments,1,stim/objects/Instruments/trombone.png,0.3,2,0.2,0.15,left,23,2020-12-18_10h10.05.997,premup-three_ses-02_part-02_label-phase2,3.2.4,Win32,60,,,,,,,,,,,,,,,,,,,,,,,,,,,,,
right,0.408000231,0,42,1,0,1,0,1,0,1,0,240,4,1,239,1,1,1,stim/11.jpeg,Instruments,1,stim/objects/Instruments/panflute.png,0.5,1,-0.2,0.15,left,23,2020-12-18_10h10.05.997,premup-three_ses-02_part-02_label-phase2,3.2.4,Win32,60,,,,,,,,,,,,,,,,,,,,,,,,,,,,,
right,0.421000242,0,43,1,0,1,0,1,0,1,0,240,162,1,239,3,5,3,stim/53.jpeg,Instruments,1,stim/objects/Instruments/tambourine2.png,0.1,4,0.2,-0.15,left,23,2020-12-18_10h10.05.997,premup-three_ses-02_part-02_label-phase2,3.2.4,Win32,60,,,,,,,,,,,,,,,,,,,,,,,,,,,,,
left,0.550000191,0,44,1,0,1,0,1,0,1,0,240,181,1,239,3,5,2,stim/52.jpeg,HouseObjects,2,stim/objects/HouseObjects/saw2.png,0.9,4,0.2,-0.15,right,23,2020-12-18_10h10.05.997,premup-three_ses-02_part-02_label-phase2,3.2.4,Win32,60,,,,,,,,,,,,,,,,,,,,,,,,,,,,,
left,0.761000156,0,45,1,0,1,0,1,0,1,0,240,176,1,239,3,5,1,stim/51.jpeg,HouseObjects,2,stim/objects/HouseObjects/safetypin2.png,0.9,1,-0.2,0.15,right,23,2020-12-18_10h10.05.997,premup-three_ses-02_part-02_label-phase2,3.2.4,Win32,60,,,,,,,,,,,,,,,,,,,,,,,,,,,,,
left,0.562000275,0,46,1,0,1,0,1,0,1,0,240,105,1,239,2,3,2,stim/32.jpeg,HouseObjects,2,stim/objects/HouseObjects/teapot.png,0.7,4,0.2,-0.15,right,23,2020-12-18_10h10.05.997,premup-three_ses-02_part-02_label-phase2,3.2.4,Win32,60,,,,,,,,,,,,,,,,,,,,,,,,,,,,,
left,0.529999971,1,47,1,0,1,0,1,0,1,0,240,233,1,239,3,6,2,stim/62.jpeg,Instruments,1,stim/objects/Instruments/trombone2.png,0.9,1,-0.2,0.15,left,23,2020-12-18_10h10.05.997,premup-three_ses-02_part-02_label-phase2,3.2.4,Win32,60,,,,,,,,,,,,,,,,,,,,,,,,,,,,,
left,0.503000021,1,48,1,0,1,0,1,0,1,0,240,235,1,239,3,6,4,stim/64.jpeg,Instruments,1,stim/objects/Instruments/tuba2.png,0.9,1,-0.2,0.15,left,23,2020-12-18_10h10.05.997,premup-three_ses-02_part-02_label-phase2,3.2.4,Win32,60,,,,,,,,,,,,,,,,,,,,,,,,,,,,,
left,0.725000381,1,49,1,0,1,0,1,0,1,0,240,16,1,239,1,1,1,stim/11.jpeg,Instruments,1,stim/objects/Instruments/panflute.png,0.5,2,0.2,0.15,left,23,2020-12-18_10h10.05.997,premup-three_ses-02_part-02_label-phase2,3.2.4,Win32,60,,,,,,,,,,,,,,,,,,,,,,,,,,,,,
left,0.518000364,0,50,1,0,1,0,1,0,1,0,240,76,1,239,1,2,1,stim/21.jpeg,HouseObjects,2,stim/objects/HouseObjects/safetypin.png,0.5,3,-0.2,-0.15,right,23,2020-12-18_10h10.05.997,premup-three_ses-02_part-02_label-phase2,3.2.4,Win32,60,,,,,,,,,,,,,,,,,,,,,,,,,,,,,
right,0.555000067,1,51,1,0,1,0,1,0,1,0,240,22,1,239,1,1,3,stim/13.jpeg,HouseObjects,2,stim/objects/HouseObjects/rubbergloves.png,0.5,1,-0.2,0.15,right,23,2020-12-18_10h10.05.997,premup-three_ses-02_part-02_label-phase2,3.2.4,Win32,60,,,,,,,,,,,,,,,,,,,,,,,,,,,,,
right,0.693000317,1,52,1,0,1,0,1,0,1,0,240,175,1,239,3,5,4,stim/54.jpeg,HouseObjects,2,stim/objects/HouseObjects/sponge2.png,0.9,3,-0.2,-0.15,right,23,2020-12-18_10h10.05.997,premup-three_ses-02_part-02_label-phase2,3.2.4,Win32,60,,,,,,,,,,,,,,,,,,,,,,,,,,,,,
right,0.50600028,1,53,1,0,1,0,1,0,1,0,240,183,1,239,3,5,4,stim/54.jpeg,HouseObjects,2,stim/objects/HouseObjects/sponge2.png,0.9,1,-0.2,0.15,right,23,2020-12-18_10h10.05.997,premup-three_ses-02_part-02_label-phase2,3.2.4,Win32,60,,,,,,,,,,,,,,,,,,,,,,,,,,,,,
left,0.667000055,1,54,1,0,1,0,1,0,1,0,240,43,1,239,1,2,4,stim/24.jpeg,Instruments,1,stim/objects/Instruments/timbal.png,0.5,3,-0.2,-0.15,left,23,2020-12-18_10h10.05.997,premup-three_ses-02_part-02_label-phase2,3.2.4,Win32,60,,,,,,,,,,,,,,,,,,,,,,,,,,,,,
right,0.613000154,1,55,1,0,1,0,1,0,1,0,240,174,1,239,3,5,3,stim/53.jpeg,HouseObjects,2,stim/objects/HouseObjects/scale2.png,0.9,2,0.2,0.15,right,23,2020-12-18_10h10.05.997,premup-three_ses-02_part-02_label-phase2,3.2.4,Win32,60,,,,,,,,,,,,,,,,,,,,,,,,,,,,,
left,0.570000172,0,56,1,0,1,0,1,0,1,0,240,107,1,239,2,3,4,stim/34.jpeg,HouseObjects,2,stim/objects/HouseObjects/thread.png,0.7,2,0.2,0.15,right,23,2020-12-18_10h10.05.997,premup-three_ses-02_part-02_label-phase2,3.2.4,Win32,60,,,,,,,,,,,,,,,,,,,,,,,,,,,,,
left,0.687000036,0,57,1,0,1,0,1,0,1,0,240,61,1,239,1,2,2,stim/22.jpeg,HouseObjects,2,stim/objects/HouseObjects/saw.png,0.5,1,-0.2,0.15,right,23,2020-12-18_10h10.05.997,premup-three_ses-02_part-02_label-phase2,3.2.4,Win32,60,,,,,,,,,,,,,,,,,,,,,,,,,,,,,
right,0.857000113,1,58,1,0,1,0,1,0,1,0,240,118,1,239,2,3,3,stim/33.jpeg,HouseObjects,2,stim/objects/HouseObjects/thermometer.png,0.7,4,0.2,-0.15,right,23,2020-12-18_10h10.05.997,premup-three_ses-02_part-02_label-phase2,3.2.4,Win32,60,,,,,,,,,,,,,,,,,,,,,,,,,,,,,
left,0.690000296,1,59,1,0,1,0,1,0,1,0,240,42,1,239,1,2,3,stim/23.jpeg,Instruments,1,stim/objects/Instruments/tambourine.png,0.5,3,-0.2,-0.15,left,23,2020-12-18_10h10.05.997,premup-three_ses-02_part-02_label-phase2,3.2.4,Win32,60,,,,,,,,,,,,,,,,,,,,,,,,,,,,,
left,0.472000122,1,60,1,0,1,0,1,0,1,0,240,57,1,239,1,2,2,stim/22.jpeg,Instruments,1,stim/objects/Instruments/speaker.png,0.5,1,-0.2,0.15,left,23,2020-12-18_10h10.05.997,premup-three_ses-02_part-02_label-phase2,3.2.4,Win32,60,,,,,,,,,,,,,,,,,,,,,,,,,,,,,
right,0.463000059,1,61,1,0,1,0,1,0,1,0,240,194,1,239,3,5,3,stim/53.jpeg,HouseObjects,2,stim/objects/HouseObjects/scale2.png,0.9,1,-0.2,0.15,right,23,2020-12-18_10h10.05.997,premup-three_ses-02_part-02_label-phase2,3.2.4,Win32,60,,,,,,,,,,,,,,,,,,,,,,,,,,,,,
left,0.611000061,1,62,1,0,1,0,1,0,1,0,240,138,1,239,2,4,3,stim/43.jpeg,Instruments,1,stim/objects/Instruments/record2.png,0.7,2,0.2,0.15,left,23,2020-12-18_10h10.05.997,premup-three_ses-02_part-02_label-phase2,3.2.4,Win32,60,,,,,,,,,,,,,,,,,,,,,,,,,,,,,
right,0.615000248,1,63,1,0,1,0,1,0,1,0,240,20,1,239,1,1,1,stim/11.jpeg,HouseObjects,2,stim/objects/HouseObjects/recyclingbin.png,0.5,3,-0.2,-0.15,right,23,2020-12-18_10h10.05.997,premup-three_ses-02_part-02_label-phase2,3.2.4,Win32,60,,,,,,,,,,,,,,,,,,,,,,,,,,,,,
left,0.803000212,0,64,1,0,1,0,1,0,1,0,240,172,1,239,3,5,1,stim/51.jpeg,HouseObjects,2,stim/objects/HouseObjects/safetypin2.png,0.9,3,-0.2,-0.15,right,23,2020-12-18_10h10.05.997,premup-three_ses-02_part-02_label-phase2,3.2.4,Win32,60,,,,,,,,,,,,,,,,,,,,,,,,,,,,,
left,0.534000158,0,65,1,0,1,0,1,0,1,0,240,62,1,239,1,2,3,stim/23.jpeg,HouseObjects,2,stim/objects/HouseObjects/scale.png,0.5,3,-0.2,-0.15,right,23,2020-12-18_10h10.05.997,premup-three_ses-02_part-02_label-phase2,3.2.4,Win32,60,,,,,,,,,,,,,,,,,,,,,,,,,,,,,
left,0.617000103,1,66,1,0,1,0,1,0,1,0,240,130,1,239,2,4,3,stim/43.jpeg,Instruments,1,stim/objects/Instruments/record2.png,0.7,4,0.2,-0.15,left,23,2020-12-18_10h10.05.997,premup-three_ses-02_part-02_label-phase2,3.2.4,Win32,60,,,,,,,,,,,,,,,,,,,,,,,,,,,,,
left,0.457000256,1,67,1,0,1,0,1,0,1,0,240,126,1,239,2,4,3,stim/43.jpeg,Instruments,1,stim/objects/Instruments/record2.png,0.7,3,-0.2,-0.15,left,23,2020-12-18_10h10.05.997,premup-three_ses-02_part-02_label-phase2,3.2.4,Win32,60,,,,,,,,,,,,,,,,,,,,,,,,,,,,,
,,0,68,1,0,1,0,1,0,1,0,240,159,1,239,2,4,4,stim/44.jpeg,HouseObjects,2,stim/objects/HouseObjects/rug2.png,0.3,1,-0.2,0.15,right,23,2020-12-18_10h10.05.997,premup-three_ses-02_part-02_label-phase2,3.2.4,Win32,60,,,,,,,,,,,,,,,,,,,,,,,,,,,,,
left,0.795000076,0,69,1,0,1,0,1,0,1,0,240,73,1,239,1,2,2,stim/22.jpeg,HouseObjects,2,stim/objects/HouseObjects/saw.png,0.5,1,-0.2,0.15,right,23,2020-12-18_10h10.05.997,premup-three_ses-02_part-02_label-phase2,3.2.4,Win32,60,,,,,,,,,,,,,,,,,,,,,,,,,,,,,
left,0.688000202,1,70,1,0,1,0,1,0,1,0,240,124,1,239,2,4,1,stim/41.jpeg,Instruments,1,stim/objects/Instruments/panflute2.png,0.7,1,-0.2,0.15,left,23,2020-12-18_10h10.05.997,premup-three_ses-02_part-02_label-phase2,3.2.4,Win32,60,,,,,,,,,,,,,,,,,,,,,,,,,,,,,
right,0.417000294,0,71,1,0,1,0,1,0,1,0,240,7,1,239,1,1,4,stim/14.jpeg,Instruments,1,stim/objects/Instruments/record_player.png,0.5,4,0.2,-0.15,left,23,2020-12-18_10h10.05.997,premup-three_ses-02_part-02_label-phase2,3.2.4,Win32,60,,,,,,,,,,,,,,,,,,,,,,,,,,,,,
right,0.54700017,1,72,1,0,1,0,1,0,1,0,240,180,1,239,3,5,1,stim/51.jpeg,HouseObjects,2,stim/objects/HouseObjects/safetypin2.png,0.9,4,0.2,-0.15,right,23,2020-12-18_10h10.05.997,premup-three_ses-02_part-02_label-phase2,3.2.4,Win32,60,,,,,,,,,,,,,,,,,,,,,,,,,,,,,
left,0.683000326,0,73,1,0,1,0,1,0,1,0,240,187,1,239,3,5,4,stim/54.jpeg,HouseObjects,2,stim/objects/HouseObjects/sponge2.png,0.9,1,-0.2,0.15,right,23,2020-12-18_10h10.05.997,premup-three_ses-02_part-02_label-phase2,3.2.4,Win32,60,,,,,,,,,,,,,,,,,,,,,,,,,,,,,
right,0.686000347,1,74,1,0,1,0,1,0,1,0,240,99,1,239,2,3,4,stim/34.jpeg,HouseObjects,2,stim/objects/HouseObjects/thread.png,0.7,4,0.2,-0.15,right,23,2020-12-18_10h10.05.997,premup-three_ses-02_part-02_label-phase2,3.2.4,Win32,60,,,,,,,,,,,,,,,,,,,,,,,,,,,,,
right,0.712000132,1,75,1,0,1,0,1,0,1,0,240,26,1,239,1,1,3,stim/13.jpeg,HouseObjects,2,stim/objects/HouseObjects/rubbergloves.png,0.5,4,0.2,-0.15,right,23,2020-12-18_10h10.05.997,premup-three_ses-02_part-02_label-phase2,3.2.4,Win32,60,,,,,,,,,,,,,,,,,,,,,,,,,,,,,
right,0.583000183,1,76,1,0,1,0,1,0,1,0,240,117,1,239,2,3,2,stim/32.jpeg,HouseObjects,2,stim/objects/HouseObjects/teapot.png,0.7,1,-0.2,0.15,right,23,2020-12-18_10h10.05.997,premup-three_ses-02_part-02_label-phase2,3.2.4,Win32,60,,,,,,,,,,,,,,,,,,,,,,,,,,,,,
left,0.522000074,1,77,1,0,1,0,1,0,1,0,240,140,1,239,2,4,1,stim/41.jpeg,Instruments,1,stim/objects/Instruments/panflute2.png,0.7,2,0.2,0.15,left,23,2020-12-18_10h10.05.997,premup-three_ses-02_part-02_label-phase2,3.2.4,Win32,60,,,,,,,,,,,,,,,,,,,,,,,,,,,,,
right,0.423000097,0,78,1,0,1,0,1,0,1,0,240,160,1,239,3,5,1,stim/51.jpeg,Instruments,1,stim/objects/Instruments/saxophone2.png,0.1,4,0.2,-0.15,left,23,2020-12-18_10h10.05.997,premup-three_ses-02_part-02_label-phase2,3.2.4,Win32,60,,,,,,,,,,,,,,,,,,,,,,,,,,,,,
right,0.44900012,1,79,1,0,1,0,1,0,1,0,240,27,1,239,1,1,4,stim/14.jpeg,HouseObjects,2,stim/objects/HouseObjects/rug.png,0.5,4,0.2,-0.15,right,23,2020-12-18_10h10.05.997,premup-three_ses-02_part-02_label-phase2,3.2.4,Win32,60,,,,,,,,,,,,,,,,,,,,,,,,,,,,,
right,0.585000277,0,80,1,0,1,0,1,0,1,0,240,82,1,239,2,3,3,stim/33.jpeg,Instruments,1,stim/objects/Instruments/trumpet.png,0.3,3,-0.2,-0.15,left,23,2020-12-18_10h10.05.997,premup-three_ses-02_part-02_label-phase2,3.2.4,Win32,60,,,,,,,,,,,,,,,,,,,,,,,,,,,,,
right,0.562999964,0,81,1,0,1,0,1,0,1,0,240,18,1,239,1,1,3,stim/13.jpeg,Instruments,1,stim/objects/Instruments/record.png,0.5,1,-0.2,0.15,left,23,2020-12-18_10h10.05.997,premup-three_ses-02_part-02_label-phase2,3.2.4,Win32,60,,,,,,,,,,,,,,,,,,,,,,,,,,,,,
right,0.568000078,1,82,1,0,1,0,1,0,1,0,240,182,1,239,3,5,3,stim/53.jpeg,HouseObjects,2,stim/objects/HouseObjects/scale2.png,0.9,1,-0.2,0.15,right,23,2020-12-18_10h10.05.997,premup-three_ses-02_part-02_label-phase2,3.2.4,Win32,60,,,,,,,,,,,,,,,,,,,,,,,,,,,,,
right,0.391000032,0,83,1,0,1,0,1,0,1,0,240,86,1,239,2,3,3,stim/33.jpeg,Instruments,1,stim/objects/Instruments/trumpet.png,0.3,1,-0.2,0.15,left,23,2020-12-18_10h10.05.997,premup-three_ses-02_part-02_label-phase2,3.2.4,Win32,60,,,,,,,,,,,,,,,,,,,,,,,,,,,,,
right,0.4150002,0,84,1,0,1,0,1,0,1,0,240,55,1,239,1,2,4,stim/24.jpeg,Instruments,1,stim/objects/Instruments/timbal.png,0.5,2,0.2,0.15,left,23,2020-12-18_10h10.05.997,premup-three_ses-02_part-02_label-phase2,3.2.4,Win32,60,,,,,,,,,,,,,,,,,,,,,,,,,,,,,
right,0.527000189,0,85,1,0,1,0,1,0,1,0,240,10,1,239,1,1,3,stim/13.jpeg,Instruments,1,stim/objects/Instruments/record.png,0.5,3,-0.2,-0.15,left,23,2020-12-18_10h10.05.997,premup-three_ses-02_part-02_label-phase2,3.2.4,Win32,60,,,,,,,,,,,,,,,,,,,,,,,,,,,,,
left,0.554000139,1,86,1,0,1,0,1,0,1,0,240,223,1,239,3,6,4,stim/64.jpeg,Instruments,1,stim/objects/Instruments/tuba2.png,0.9,2,0.2,0.15,left,23,2020-12-18_10h10.05.997,premup-three_ses-02_part-02_label-phase2,3.2.4,Win32,60,,,,,,,,,,,,,,,,,,,,,,,,,,,,,
right,0.518000364,1,87,1,0,1,0,1,0,1,0,240,78,1,239,1,2,3,stim/23.jpeg,HouseObjects,2,stim/objects/HouseObjects/scale.png,0.5,1,-0.2,0.15,right,23,2020-12-18_10h10.05.997,premup-three_ses-02_part-02_label-phase2,3.2.4,Win32,60,,,,,,,,,,,,,,,,,,,,,,,,,,,,,
left,0.576000214,1,88,1,0,1,0,1,0,1,0,240,125,1,239,2,4,2,stim/42.jpeg,Instruments,1,stim/objects/Instruments/pipepiano2.png,0.7,4,0.2,-0.15,left,23,2020-12-18_10h10.05.997,premup-three_ses-02_part-02_label-phase2,3.2.4,Win32,60,,,,,,,,,,,,,,,,,,,,,,,,,,,,,
left,0.610000134,1,89,1,0,1,0,1,0,1,0,240,218,1,239,3,6,3,stim/63.jpeg,Instruments,1,stim/objects/Instruments/trumpet2.png,0.9,3,-0.2,-0.15,left,23,2020-12-18_10h10.05.997,premup-three_ses-02_part-02_label-phase2,3.2.4,Win32,60,,,,,,,,,,,,,,,,,,,,,,,,,,,,,
left,0.513000011,0,90,1,0,1,0,1,0,1,0,240,167,1,239,3,5,4,stim/54.jpeg,HouseObjects,2,stim/objects/HouseObjects/sponge2.png,0.9,1,-0.2,0.15,right,23,2020-12-18_10h10.05.997,premup-three_ses-02_part-02_label-phase2,3.2.4,Win32,60,,,,,,,,,,,,,,,,,,,,,,,,,,,,,
right,0.482000113,1,91,1,0,1,0,1,0,1,0,240,170,1,239,3,5,3,stim/53.jpeg,HouseObjects,2,stim/objects/HouseObjects/scale2.png,0.9,3,-0.2,-0.15,right,23,2020-12-18_10h10.05.997,premup-three_ses-02_part-02_label-phase2,3.2.4,Win32,60,,,,,,,,,,,,,,,,,,,,,,,,,,,,,
left,0.536000252,1,92,1,0,1,0,1,0,1,0,240,212,1,239,3,6,1,stim/61.jpeg,Instruments,1,stim/objects/Instruments/triangle2.png,0.9,3,-0.2,-0.15,left,23,2020-12-18_10h10.05.997,premup-three_ses-02_part-02_label-phase2,3.2.4,Win32,60,,,,,,,,,,,,,,,,,,,,,,,,,,,,,
left,0.543000221,1,93,1,0,1,0,1,0,1,0,240,225,1,239,3,6,2,stim/62.jpeg,Instruments,1,stim/objects/Instruments/trombone2.png,0.9,4,0.2,-0.15,left,23,2020-12-18_10h10.05.997,premup-three_ses-02_part-02_label-phase2,3.2.4,Win32,60,,,,,,,,,,,,,,,,,,,,,,,,,,,,,
right,0.555000067,1,94,1,0,1,0,1,0,1,0,240,189,1,239,3,5,2,stim/52.jpeg,HouseObjects,2,stim/objects/HouseObjects/saw2.png,0.9,3,-0.2,-0.15,right,23,2020-12-18_10h10.05.997,premup-three_ses-02_part-02_label-phase2,3.2.4,Win32,60,,,,,,,,,,,,,,,,,,,,,,,,,,,,,
right,0.693000078,1,95,1,0,1,0,1,0,1,0,240,178,1,239,3,5,3,stim/53.jpeg,HouseObjects,2,stim/objects/HouseObjects/scale2.png,0.9,1,-0.2,0.15,right,23,2020-12-18_10h10.05.997,premup-three_ses-02_part-02_label-phase2,3.2.4,Win32,60,,,,,,,,,,,,,,,,,,,,,,,,,,,,,
left,0.634000301,0,96,1,0,1,0,1,0,1,0,240,111,1,239,2,3,4,stim/34.jpeg,HouseObjects,2,stim/objects/HouseObjects/thread.png,0.7,2,0.2,0.15,right,23,2020-12-18_10h10.05.997,premup-three_ses-02_part-02_label-phase2,3.2.4,Win32,60,,,,,,,,,,,,,,,,,,,,,,,,,,,,,
right,0.575000048,1,97,1,0,1,0,1,0,1,0,240,168,1,239,3,5,1,stim/51.jpeg,HouseObjects,2,stim/objects/HouseObjects/safetypin2.png,0.9,2,0.2,0.15,right,23,2020-12-18_10h10.05.997,premup-three_ses-02_part-02_label-phase2,3.2.4,Win32,60,,,,,,,,,,,,,,,,,,,,,,,,,,,,,
left,0.576000214,1,98,1,0,1,0,1,0,1,0,240,205,1,239,3,6,2,stim/62.jpeg,Instruments,1,stim/objects/Instruments/trombone2.png,0.9,1,-0.2,0.15,left,23,2020-12-18_10h10.05.997,premup-three_ses-02_part-02_label-phase2,3.2.4,Win32,60,,,,,,,,,,,,,,,,,,,,,,,,,,,,,
left,0.430000305,0,99,1,0,1,0,1,0,1,0,240,237,1,239,3,6,2,stim/62.jpeg,HouseObjects,2,stim/objects/HouseObjects/teapot2.png,0.1,1,-0.2,0.15,right,23,2020-12-18_10h10.05.997,premup-three_ses-02_part-02_label-phase2,3.2.4,Win32,60,,,,,,,,,,,,,,,,,,,,,,,,,,,,,
left,0.53000021,1,100,1,0,1,0,1,0,1,0,240,50,1,239,1,2,3,stim/23.jpeg,Instruments,1,stim/objects/Instruments/tambourine.png,0.5,4,0.2,-0.15,left,23,2020-12-18_10h10.05.997,premup-three_ses-02_part-02_label-phase2,3.2.4,Win32,60,,,,,,,,,,,,,,,,,,,,,,,,,,,,,
left,0.463000059,1,101,1,0,1,0,1,0,1,0,240,211,1,239,3,6,4,stim/64.jpeg,Instruments,1,stim/objects/Instruments/tuba2.png,0.9,2,0.2,0.15,left,23,2020-12-18_10h10.05.997,premup-three_ses-02_part-02_label-phase2,3.2.4,Win32,60,,,,,,,,,,,,,,,,,,,,,,,,,,,,,
left,0.529000044,0,102,1,0,1,0,1,0,1,0,240,65,1,239,1,2,2,stim/22.jpeg,HouseObjects,2,stim/objects/HouseObjects/saw.png,0.5,2,0.2,0.15,right,23,2020-12-18_10h10.05.997,premup-three_ses-02_part-02_label-phase2,3.2.4,Win32,60,,,,,,,,,,,,,,,,,,,,,,,,,,,,,
right,0.553000212,1,103,1,0,1,0,1,0,1,0,240,177,1,239,3,5,2,stim/52.jpeg,HouseObjects,2,stim/objects/HouseObjects/saw2.png,0.9,1,-0.2,0.15,right,23,2020-12-18_10h10.05.997,premup-three_ses-02_part-02_label-phase2,3.2.4,Win32,60,,,,,,,,,,,,,,,,,,,,,,,,,,,,,
left,0.557000399,0,104,1,0,1,0,1,0,1,0,240,64,1,239,1,2,1,stim/21.jpeg,HouseObjects,2,stim/objects/HouseObjects/safetypin.png,0.5,4,0.2,-0.15,right,23,2020-12-18_10h10.05.997,premup-three_ses-02_part-02_label-phase2,3.2.4,Win32,60,,,,,,,,,,,,,,,,,,,,,,,,,,,,,
right,0.634000301,1,105,1,0,1,0,1,0,1,0,240,39,1,239,1,1,4,stim/14.jpeg,HouseObjects,2,stim/objects/HouseObjects/rug.png,0.5,1,-0.2,0.15,right,23,2020-12-18_10h10.05.997,premup-three_ses-02_part-02_label-phase2,3.2.4,Win32,60,,,,,,,,,,,,,,,,,,,,,,,,,,,,,
left,0.52300024,1,106,1,0,1,0,1,0,1,0,240,210,1,239,3,6,3,stim/63.jpeg,Instruments,1,stim/objects/Instruments/trumpet2.png,0.9,3,-0.2,-0.15,left,23,2020-12-18_10h10.05.997,premup-three_ses-02_part-02_label-phase2,3.2.4,Win32,60,,,,,,,,,,,,,,,,,,,,,,,,,,,,,
left,0.821000338,1,107,1,0,1,0,1,0,1,0,240,121,1,239,2,4,2,stim/42.jpeg,Instruments,1,stim/objects/Instruments/pipepiano2.png,0.7,3,-0.2,-0.15,left,23,2020-12-18_10h10.05.997,premup-three_ses-02_part-02_label-phase2,3.2.4,Win32,60,,,,,,,,,,,,,,,,,,,,,,,,,,,,,
left,0.466000319,0,108,1,0,1,0,1,0,1,0,240,72,1,239,1,2,1,stim/21.jpeg,HouseObjects,2,stim/objects/HouseObjects/safetypin.png,0.5,4,0.2,-0.15,right,23,2020-12-18_10h10.05.997,premup-three_ses-02_part-02_label-phase2,3.2.4,Win32,60,,,,,,,,,,,,,,,,,,,,,,,,,,,,,
left,0.483000278,0,109,1,0,1,0,1,0,1,0,240,150,1,239,2,4,3,stim/43.jpeg,HouseObjects,2,stim/objects/HouseObjects/rubbergloves2.png,0.3,3,-0.2,-0.15,right,23,2020-12-18_10h10.05.997,premup-three_ses-02_part-02_label-phase2,3.2.4,Win32,60,,,,,,,,,,,,,,,,,,,,,,,,,,,,,
left,0.630000114,0,110,1,0,1,0,1,0,1,0,240,24,1,239,1,1,1,stim/11.jpeg,HouseObjects,2,stim/objects/HouseObjects/recyclingbin.png,0.5,2,0.2,0.15,right,23,2020-12-18_10h10.05.997,premup-three_ses-02_part-02_label-phase2,3.2.4,Win32,60,,,,,,,,,,,,,,,,,,,,,,,,,,,,,
left,0.559000015,0,111,1,0,1,0,1,0,1,0,240,68,1,239,1,2,1,stim/21.jpeg,HouseObjects,2,stim/objects/HouseObjects/safetypin.png,0.5,3,-0.2,-0.15,right,23,2020-12-18_10h10.05.997,premup-three_ses-02_part-02_label-phase2,3.2.4,Win32,60,,,,,,,,,,,,,,,,,,,,,,,,,,,,,
left,0.532000303,1,112,1,0,1,0,1,0,1,0,240,47,1,239,1,2,4,stim/24.jpeg,Instruments,1,stim/objects/Instruments/timbal.png,0.5,3,-0.2,-0.15,left,23,2020-12-18_10h10.05.997,premup-three_ses-02_part-02_label-phase2,3.2.4,Win32,60,,,,,,,,,,,,,,,,,,,,,,,,,,,,,
right,0.59100008,1,113,1,0,1,0,1,0,1,0,240,30,1,239,1,1,3,stim/13.jpeg,HouseObjects,2,stim/objects/HouseObjects/rubbergloves.png,0.5,3,-0.2,-0.15,right,23,2020-12-18_10h10.05.997,premup-three_ses-02_part-02_label-phase2,3.2.4,Win32,60,,,,,,,,,,,,,,,,,,,,,,,,,,,,,
right,0.533000231,0,114,1,0,1,0,1,0,1,0,240,3,1,239,1,1,4,stim/14.jpeg,Instruments,1,stim/objects/Instruments/record_player.png,0.5,4,0.2,-0.15,left,23,2020-12-18_10h10.05.997,premup-three_ses-02_part-02_label-phase2,3.2.4,Win32,60,,,,,,,,,,,,,,,,,,,,,,,,,,,,,
left,0.525000095,1,115,1,0,1,0,1,0,1,0,240,215,1,239,3,6,4,stim/64.jpeg,Instruments,1,stim/objects/Instruments/tuba2.png,0.9,3,-0.2,-0.15,left,23,2020-12-18_10h10.05.997,premup-three_ses-02_part-02_label-phase2,3.2.4,Win32,60,,,,,,,,,,,,,,,,,,,,,,,,,,,,,
,,0,116,1,0,1,0,1,0,1,0,240,36,1,239,1,1,1,stim/11.jpeg,HouseObjects,2,stim/objects/HouseObjects/recyclingbin.png,0.5,2,0.2,0.15,right,23,2020-12-18_10h10.05.997,premup-three_ses-02_part-02_label-phase2,3.2.4,Win32,60,,,,,,,,,,,,,,,,,,,,,,,,,,,,,
left,0.424999952,0,117,1,0,1,0,1,0,1,0,240,93,1,239,2,3,2,stim/32.jpeg,HouseObjects,2,stim/objects/HouseObjects/teapot.png,0.7,1,-0.2,0.15,right,23,2020-12-18_10h10.05.997,premup-three_ses-02_part-02_label-phase2,3.2.4,Win32,60,,,,,,,,,,,,,,,,,,,,,,,,,,,,,
left,0.555000067,0,118,1,0,1,0,1,0,1,0,240,154,1,239,2,4,3,stim/43.jpeg,HouseObjects,2,stim/objects/HouseObjects/rubbergloves2.png,0.3,4,0.2,-0.15,right,23,2020-12-18_10h10.05.997,premup-three_ses-02_part-02_label-phase2,3.2.4,Win32,60,,,,,,,,,,,,,,,,,,,,,,,,,,,,,
left,0.463000059,1,119,1,0,1,0,1,0,1,0,240,11,1,239,1,1,4,stim/14.jpeg,Instruments,1,stim/objects/Instruments/record_player.png,0.5,4,0.2,-0.15,left,23,2020-12-18_10h10.05.997,premup-three_ses-02_part-02_label-phase2,3.2.4,Win32,60,,,,,,,,,,,,,,,,,,,,,,,,,,,,,
left,0.508000374,0,120,1,0,1,0,1,0,1,0,240,148,1,239,2,4,1,stim/41.jpeg,HouseObjects,2,stim/objects/HouseObjects/recyclingbin2.png,0.3,4,0.2,-0.15,right,23,2020-12-18_10h10.05.997,premup-three_ses-02_part-02_label-phase2,3.2.4,Win32,60,,,,,,,,,,,,,,,,,,,,,,,,,,,,,
left,0.434000015,1,121,1,0,1,0,1,0,1,0,240,87,1,239,2,3,4,stim/34.jpeg,Instruments,1,stim/objects/Instruments/tuba.png,0.3,2,0.2,0.15,left,23,2020-12-18_10h10.05.997,premup-three_ses-02_part-02_label-phase2,3.2.4,Win32,60,,,,,,,,,,,,,,,,,,,,,,,,,,,,,
,,0,122,1,0,1,0,1,0,1,0,240,98,1,239,2,3,3,stim/33.jpeg,HouseObjects,2,stim/objects/HouseObjects/thermometer.png,0.7,1,-0.2,0.15,right,23,2020-12-18_10h10.05.997,premup-three_ses-02_part-02_label-phase2,3.2.4,Win32,60,,,,,,,,,,,,,,,,,,,,,,,,,,,,,
right,0.395000219,1,123,1,0,1,0,1,0,1,0,240,75,1,239,1,2,4,stim/24.jpeg,HouseObjects,2,stim/objects/HouseObjects/sponge.png,0.5,1,-0.2,0.15,right,23,2020-12-18_10h10.05.997,premup-three_ses-02_part-02_label-phase2,3.2.4,Win32,60,,,,,,,,,,,,,,,,,,,,,,,,,,,,,
right,0.644000053,1,124,1,0,1,0,1,0,1,0,240,94,1,239,2,3,3,stim/33.jpeg,HouseObjects,2,stim/objects/HouseObjects/thermometer.png,0.7,2,0.2,0.15,right,23,2020-12-18_10h10.05.997,premup-three_ses-02_part-02_label-phase2,3.2.4,Win32,60,,,,,,,,,,,,,,,,,,,,,,,,,,,,,
left,0.587000132,0,125,1,0,1,0,1,0,1,0,240,66,1,239,1,2,3,stim/23.jpeg,HouseObjects,2,stim/objects/HouseObjects/scale.png,0.5,4,0.2,-0.15,right,23,2020-12-18_10h10.05.997,premup-three_ses-02_part-02_label-phase2,3.2.4,Win32,60,,,,,,,,,,,,,,,,,,,,,,,,,,,,,
left,0.464000225,1,126,1,0,1,0,1,0,1,0,240,207,1,239,3,6,4,stim/64.jpeg,Instruments,1,stim/objects/Instruments/tuba2.png,0.9,4,0.2,-0.15,left,23,2020-12-18_10h10.05.997,premup-three_ses-02_part-02_label-phase2,3.2.4,Win32,60,,,,,,,,,,,,,,,,,,,,,,,,,,,,,
left,0.793000221,0,127,1,0,1,0,1,0,1,0,240,92,1,239,2,3,1,stim/31.jpeg,HouseObjects,2,stim/objects/HouseObjects/spraybottle.png,0.7,3,-0.2,-0.15,right,23,2020-12-18_10h10.05.997,premup-three_ses-02_part-02_label-phase2,3.2.4,Win32,60,,,,,,,,,,,,,,,,,,,,,,,,,,,,,
left,0.537000179,1,128,1,0,1,0,1,0,1,0,240,161,1,239,3,5,2,stim/52.jpeg,Instruments,1,stim/objects/Instruments/speaker2.png,0.1,3,-0.2,-0.15,left,23,2020-12-18_10h10.05.997,premup-three_ses-02_part-02_label-phase2,3.2.4,Win32,60,,,,,,,,,,,,,,,,,,,,,,,,,,,,,
left,0.444000244,0,129,1,0,1,0,1,0,1,0,240,236,1,239,3,6,1,stim/61.jpeg,HouseObjects,2,stim/objects/HouseObjects/spraybottle2.png,0.1,2,0.2,0.15,right,23,2020-12-18_10h10.05.997,premup-three_ses-02_part-02_label-phase2,3.2.4,Win32,60,,,,,,,,,,,,,,,,,,,,,,,,,,,,,
left,0.38800025,1,130,1,0,1,0,1,0,1,0,240,51,1,239,1,2,4,stim/24.jpeg,Instruments,1,stim/objects/Instruments/timbal.png,0.5,4,0.2,-0.15,left,23,2020-12-18_10h10.05.997,premup-three_ses-02_part-02_label-phase2,3.2.4,Win32,60,,,,,,,,,,,,,,,,,,,,,,,,,,,,,
left,0.779000282,1,131,1,0,1,0,1,0,1,0,240,122,1,239,2,4,3,stim/43.jpeg,Instruments,1,stim/objects/Instruments/record2.png,0.7,3,-0.2,-0.15,left,23,2020-12-18_10h10.05.997,premup-three_ses-02_part-02_label-phase2,3.2.4,Win32,60,,,,,,,,,,,,,,,,,,,,,,,,,,,,,
left,0.526000023,1,132,1,0,1,0,1,0,1,0,240,209,1,239,3,6,2,stim/62.jpeg,Instruments,1,stim/objects/Instruments/trombone2.png,0.9,4,0.2,-0.15,left,23,2020-12-18_10h10.05.997,premup-three_ses-02_part-02_label-phase2,3.2.4,Win32,60,,,,,,,,,,,,,,,,,,,,,,,,,,,,,
left,0.390000105,1,133,1,0,1,0,1,0,1,0,240,217,1,239,3,6,2,stim/62.jpeg,Instruments,1,stim/objects/Instruments/trombone2.png,0.9,1,-0.2,0.15,left,23,2020-12-18_10h10.05.997,premup-three_ses-02_part-02_label-phase2,3.2.4,Win32,60,,,,,,,,,,,,,,,,,,,,,,,,,,,,,
left,0.529000282,1,134,1,0,1,0,1,0,1,0,240,136,1,239,2,4,1,stim/41.jpeg,Instruments,1,stim/objects/Instruments/panflute2.png,0.7,3,-0.2,-0.15,left,23,2020-12-18_10h10.05.997,premup-three_ses-02_part-02_label-phase2,3.2.4,Win32,60,,,,,,,,,,,,,,,,,,,,,,,,,,,,,
left,0.410000086,0,135,1,0,1,0,1,0,1,0,240,37,1,239,1,1,2,stim/12.jpeg,HouseObjects,2,stim/objects/HouseObjects/remote.png,0.5,3,-0.2,-0.15,right,23,2020-12-18_10h10.05.997,premup-three_ses-02_part-02_label-phase2,3.2.4,Win32,60,,,,,,,,,,,,,,,,,,,,,,,,,,,,,
left,0.508000135,0,136,1,0,1,0,1,0,1,0,240,25,1,239,1,1,2,stim/12.jpeg,HouseObjects,2,stim/objects/HouseObjects/remote.png,0.5,2,0.2,0.15,right,23,2020-12-18_10h10.05.997,premup-three_ses-02_part-02_label-phase2,3.2.4,Win32,60,,,,,,,,,,,,,,,,,,,,,,,,,,,,,
left,0.668000221,0,137,1,0,1,0,1,0,1,0,240,96,1,239,2,3,1,stim/31.jpeg,HouseObjects,2,stim/objects/HouseObjects/spraybottle.png,0.7,4,0.2,-0.15,right,23,2020-12-18_10h10.05.997,premup-three_ses-02_part-02_label-phase2,3.2.4,Win32,60,,,,,,,,,,,,,,,,,,,,,,,,,,,,,
right,0.627000332,1,138,1,0,1,0,1,0,1,0,240,100,1,239,2,3,1,stim/31.jpeg,HouseObjects,2,stim/objects/HouseObjects/spraybottle.png,0.7,4,0.2,-0.15,right,23,2020-12-18_10h10.05.997,premup-three_ses-02_part-02_label-phase2,3.2.4,Win32,60,,,,,,,,,,,,,,,,,,,,,,,,,,,,,
right,0.587000132,1,139,1,0,1,0,1,0,1,0,240,197,1,239,3,5,2,stim/52.jpeg,HouseObjects,2,stim/objects/HouseObjects/saw2.png,0.9,2,0.2,0.15,right,23,2020-12-18_10h10.05.997,premup-three_ses-02_part-02_label-phase2,3.2.4,Win32,60,,,,,,,,,,,,,,,,,,,,,,,,,,,,,
right,0.726000071,0,140,1,0,1,0,1,0,1,0,240,19,1,239,1,1,4,stim/14.jpeg,Instruments,1,stim/objects/Instruments/record_player.png,0.5,1,-0.2,0.15,left,23,2020-12-18_10h10.05.997,premup-three_ses-02_part-02_label-phase2,3.2.4,Win32,60,,,,,,,,,,,,,,,,,,,,,,,,,,,,,
right,0.604000092,0,141,1,0,1,0,1,0,1,0,240,163,1,239,3,5,4,stim/54.jpeg,Instruments,1,stim/objects/Instruments/timbal2.png,0.1,1,-0.2,0.15,left,23,2020-12-18_10h10.05.997,premup-three_ses-02_part-02_label-phase2,3.2.4,Win32,60,,,,,,,,,,,,,,,,,,,,,,,,,,,,,
left,0.525000095,1,142,1,0,1,0,1,0,1,0,240,53,1,239,1,2,2,stim/22.jpeg,Instruments,1,stim/objects/Instruments/speaker.png,0.5,3,-0.2,-0.15,left,23,2020-12-18_10h10.05.997,premup-three_ses-02_part-02_label-phase2,3.2.4,Win32,60,,,,,,,,,,,,,,,,,,,,,,,,,,,,,
left,0.643000126,0,143,1,0,1,0,1,0,1,0,240,155,1,239,2,4,4,stim/44.jpeg,HouseObjects,2,stim/objects/HouseObjects/rug2.png,0.3,2,0.2,0.15,right,23,2020-12-18_10h10.05.997,premup-three_ses-02_part-02_label-phase2,3.2.4,Win32,60,,,,,,,,,,,,,,,,,,,,,,,,,,,,,
left,0.471000195,1,144,1,0,1,0,1,0,1,0,240,142,1,239,2,4,3,stim/43.jpeg,Instruments,1,stim/objects/Instruments/record2.png,0.7,1,-0.2,0.15,left,23,2020-12-18_10h10.05.997,premup-three_ses-02_part-02_label-phase2,3.2.4,Win32,60,,,,,,,,,,,,,,,,,,,,,,,,,,,,,
left,0.583000183,1,145,1,0,1,0,1,0,1,0,240,48,1,239,1,2,1,stim/21.jpeg,Instruments,1,stim/objects/Instruments/saxophone.png,0.5,3,-0.2,-0.15,left,23,2020-12-18_10h10.05.997,premup-three_ses-02_part-02_label-phase2,3.2.4,Win32,60,,,,,,,,,,,,,,,,,,,,,,,,,,,,,
left,0.583000183,0,146,1,0,1,0,1,0,1,0,240,63,1,239,1,2,4,stim/24.jpeg,HouseObjects,2,stim/objects/HouseObjects/sponge.png,0.5,2,0.2,0.15,right,23,2020-12-18_10h10.05.997,premup-three_ses-02_part-02_label-phase2,3.2.4,Win32,60,,,,,,,,,,,,,,,,,,,,,,,,,,,,,
left,0.617000103,0,147,1,0,1,0,1,0,1,0,240,29,1,239,1,1,2,stim/12.jpeg,HouseObjects,2,stim/objects/HouseObjects/remote.png,0.5,1,-0.2,0.15,right,23,2020-12-18_10h10.05.997,premup-three_ses-02_part-02_label-phase2,3.2.4,Win32,60,,,,,,,,,,,,,,,,,,,,,,,,,,,,,
right,0.368000269,1,148,1,0,1,0,1,0,1,0,240,38,1,239,1,1,3,stim/13.jpeg,HouseObjects,2,stim/objects/HouseObjects/rubbergloves.png,0.5,2,0.2,0.15,right,23,2020-12-18_10h10.05.997,premup-three_ses-02_part-02_label-phase2,3.2.4,Win32,60,,,,,,,,,,,,,,,,,,,,,,,,,,,,,
left,0.509000301,0,149,1,0,1,0,1,0,1,0,240,74,1,239,1,2,3,stim/23.jpeg,HouseObjects,2,stim/objects/HouseObjects/scale.png,0.5,2,0.2,0.15,right,23,2020-12-18_10h10.05.997,premup-three_ses-02_part-02_label-phase2,3.2.4,Win32,60,,,,,,,,,,,,,,,,,,,,,,,,,,,,,
left,0.777000189,0,150,1,0,1,0,1,0,1,0,240,157,1,239,2,4,2,stim/42.jpeg,HouseObjects,2,stim/objects/HouseObjects/remote2.png,0.3,2,0.2,0.15,right,23,2020-12-18_10h10.05.997,premup-three_ses-02_part-02_label-phase2,3.2.4,Win32,60,,,,,,,,,,,,,,,,,,,,,,,,,,,,,
left,0.417000294,0,151,1,0,1,0,1,0,1,0,240,79,1,239,1,2,4,stim/24.jpeg,HouseObjects,2,stim/objects/HouseObjects/sponge.png,0.5,2,0.2,0.15,right,23,2020-12-18_10h10.05.997,premup-three_ses-02_part-02_label-phase2,3.2.4,Win32,60,,,,,,,,,,,,,,,,,,,,,,,,,,,,,
left,0.445000172,0,152,1,0,1,0,1,0,1,0,240,188,1,239,3,5,1,stim/51.jpeg,HouseObjects,2,stim/objects/HouseObjects/safetypin2.png,0.9,4,0.2,-0.15,right,23,2020-12-18_10h10.05.997,premup-three_ses-02_part-02_label-phase2,3.2.4,Win32,60,,,,,,,,,,,,,,,,,,,,,,,,,,,,,
left,0.533000231,1,153,1,0,1,0,1,0,1,0,240,213,1,239,3,6,2,stim/62.jpeg,Instruments,1,stim/objects/Instruments/trombone2.png,0.9,1,-0.2,0.15,left,23,2020-12-18_10h10.05.997,premup-three_ses-02_part-02_label-phase2,3.2.4,Win32,60,,,,,,,,,,,,,,,,,,,,,,,,,,,,,
left,0.544000149,0,154,1,0,1,0,1,0,1,0,240,239,1,239,3,6,4,stim/64.jpeg,HouseObjects,2,stim/objects/HouseObjects/thread2.png,0.1,4,0.2,-0.15,right,23,2020-12-18_10h10.05.997,premup-three_ses-02_part-02_label-phase2,3.2.4,Win32,60,,,,,,,,,,,,,,,,,,,,,,,,,,,,,
left,0.417000055,1,155,1,0,1,0,1,0,1,0,240,80,1,239,2,3,1,stim/31.jpeg,Instruments,1,stim/objects/Instruments/triangle.png,0.3,2,0.2,0.15,left,23,2020-12-18_10h10.05.997,premup-three_ses-02_part-02_label-phase2,3.2.4,Win32,60,,,,,,,,,,,,,,,,,,,,,,,,,,,,,
left,0.504000187,0,156,1,0,1,0,1,0,1,0,240,101,1,239,2,3,2,stim/32.jpeg,HouseObjects,2,stim/objects/HouseObjects/teapot.png,0.7,3,-0.2,-0.15,right,23,2020-12-18_10h10.05.997,premup-three_ses-02_part-02_label-phase2,3.2.4,Win32,60,,,,,,,,,,,,,,,,,,,,,,,,,,,,,
right,0.569000244,1,157,1,0,1,0,1,0,1,0,240,192,1,239,3,5,1,stim/51.jpeg,HouseObjects,2,stim/objects/HouseObjects/safetypin2.png,0.9,1,-0.2,0.15,right,23,2020-12-18_10h10.05.997,premup-three_ses-02_part-02_label-phase2,3.2.4,Win32,60,,,,,,,,,,,,,,,,,,,,,,,,,,,,,
left,0.587000132,0,158,1,0,1,0,1,0,1,0,240,97,1,239,2,3,2,stim/32.jpeg,HouseObjects,2,stim/objects/HouseObjects/teapot.png,0.7,4,0.2,-0.15,right,23,2020-12-18_10h10.05.997,premup-three_ses-02_part-02_label-phase2,3.2.4,Win32,60,,,,,,,,,,,,,,,,,,,,,,,,,,,,,
right,0.486000061,1,159,1,0,1,0,1,0,1,0,240,199,1,239,3,5,4,stim/54.jpeg,HouseObjects,2,stim/objects/HouseObjects/sponge2.png,0.9,4,0.2,-0.15,right,23,2020-12-18_10h10.05.997,premup-three_ses-02_part-02_label-phase2,3.2.4,Win32,60,,,,,,,,,,,,,,,,,,,,,,,,,,,,,
right,0.366000175,1,160,1,0,1,0,1,0,1,0,240,115,1,239,2,3,4,stim/34.jpeg,HouseObjects,2,stim/objects/HouseObjects/thread.png,0.7,4,0.2,-0.15,right,23,2020-12-18_10h10.05.997,premup-three_ses-02_part-02_label-phase2,3.2.4,Win32,60,,,,,,,,,,,,,,,,,,,,,,,,,,,,,
left,0.525000095,1,161,1,0,1,0,1,0,1,0,240,231,1,239,3,6,4,stim/64.jpeg,Instruments,1,stim/objects/Instruments/tuba2.png,0.9,3,-0.2,-0.15,left,23,2020-12-18_10h10.05.997,premup-three_ses-02_part-02_label-phase2,3.2.4,Win32,60,,,,,,,,,,,,,,,,,,,,,,,,,,,,,
left,0.425000191,1,162,1,0,1,0,1,0,1,0,240,91,1,239,2,3,4,stim/34.jpeg,Instruments,1,stim/objects/Instruments/tuba.png,0.3,3,-0.2,-0.15,left,23,2020-12-18_10h10.05.997,premup-three_ses-02_part-02_label-phase2,3.2.4,Win32,60,,,,,,,,,,,,,,,,,,,,,,,,,,,,,
right,0.519000292,1,163,1,0,1,0,1,0,1,0,240,149,1,239,2,4,2,stim/42.jpeg,HouseObjects,2,stim/objects/HouseObjects/remote2.png,0.3,3,-0.2,-0.15,right,23,2020-12-18_10h10.05.997,premup-three_ses-02_part-02_label-phase2,3.2.4,Win32,60,,,,,,,,,,,,,,,,,,,,,,,,,,,,,
left,0.413000107,1,164,1,0,1,0,1,0,1,0,240,134,1,239,2,4,3,stim/43.jpeg,Instruments,1,stim/objects/Instruments/record2.png,0.7,1,-0.2,0.15,left,23,2020-12-18_10h10.05.997,premup-three_ses-02_part-02_label-phase2,3.2.4,Win32,60,,,,,,,,,,,,,,,,,,,,,,,,,,,,,
right,0.448000193,1,165,1,0,1,0,1,0,1,0,240,95,1,239,2,3,4,stim/34.jpeg,HouseObjects,2,stim/objects/HouseObjects/thread.png,0.7,4,0.2,-0.15,right,23,2020-12-18_10h10.05.997,premup-three_ses-02_part-02_label-phase2,3.2.4,Win32,60,,,,,,,,,,,,,,,,,,,,,,,,,,,,,
right,0.519000292,1,166,1,0,1,0,1,0,1,0,240,104,1,239,2,3,1,stim/31.jpeg,HouseObjects,2,stim/objects/HouseObjects/spraybottle.png,0.7,1,-0.2,0.15,right,23,2020-12-18_10h10.05.997,premup-three_ses-02_part-02_label-phase2,3.2.4,Win32,60,,,,,,,,,,,,,,,,,,,,,,,,,,,,,
left,0.419000149,1,167,1,0,1,0,1,0,1,0,240,204,1,239,3,6,1,stim/61.jpeg,Instruments,1,stim/objects/Instruments/triangle2.png,0.9,3,-0.2,-0.15,left,23,2020-12-18_10h10.05.997,premup-three_ses-02_part-02_label-phase2,3.2.4,Win32,60,,,,,,,,,,,,,,,,,,,,,,,,,,,,,
left,0.688000202,0,168,1,0,1,0,1,0,1,0,240,34,1,239,1,1,3,stim/13.jpeg,HouseObjects,2,stim/objects/HouseObjects/rubbergloves.png,0.5,3,-0.2,-0.15,right,23,2020-12-18_10h10.05.997,premup-three_ses-02_part-02_label-phase2,3.2.4,Win32,60,,,,,,,,,,,,,,,,,,,,,,,,,,,,,
right,0.696000099,1,169,1,0,1,0,1,0,1,0,240,119,1,239,2,3,4,stim/34.jpeg,HouseObjects,2,stim/objects/HouseObjects/thread.png,0.7,3,-0.2,-0.15,right,23,2020-12-18_10h10.05.997,premup-three_ses-02_part-02_label-phase2,3.2.4,Win32,60,,,,,,,,,,,,,,,,,,,,,,,,,,,,,
left,0.633000135,0,170,1,0,1,0,1,0,1,0,240,67,1,239,1,2,4,stim/24.jpeg,HouseObjects,2,stim/objects/HouseObjects/sponge.png,0.5,2,0.2,0.15,right,23,2020-12-18_10h10.05.997,premup-three_ses-02_part-02_label-phase2,3.2.4,Win32,60,,,,,,,,,,,,,,,,,,,,,,,,,,,,,
right,0.512000322,1,171,1,0,1,0,1,0,1,0,240,184,1,239,3,5,1,stim/51.jpeg,HouseObjects,2,stim/objects/HouseObjects/safetypin2.png,0.9,4,0.2,-0.15,right,23,2020-12-18_10h10.05.997,premup-three_ses-02_part-02_label-phase2,3.2.4,Win32,60,,,,,,,,,,,,,,,,,,,,,,,,,,,,,
left,0.514000177,1,172,1,0,1,0,1,0,1,0,240,144,1,239,2,4,1,stim/41.jpeg,Instruments,1,stim/objects/Instruments/panflute2.png,0.7,1,-0.2,0.15,left,23,2020-12-18_10h10.05.997,premup-three_ses-02_part-02_label-phase2,3.2.4,Win32,60,,,,,,,,,,,,,,,,,,,,,,,,,,,,,
right,0.671000242,1,173,1,0,1,0,1,0,1,0,240,113,1,239,2,3,2,stim/32.jpeg,HouseObjects,2,stim/objects/HouseObjects/teapot.png,0.7,3,-0.2,-0.15,right,23,2020-12-18_10h10.05.997,premup-three_ses-02_part-02_label-phase2,3.2.4,Win32,60,,,,,,,,,,,,,,,,,,,,,,,,,,,,,
right,0.550000191,1,174,1,0,1,0,1,0,1,0,240,185,1,239,3,5,2,stim/52.jpeg,HouseObjects,2,stim/objects/HouseObjects/saw2.png,0.9,2,0.2,0.15,right,23,2020-12-18_10h10.05.997,premup-three_ses-02_part-02_label-phase2,3.2.4,Win32,60,,,,,,,,,,,,,,,,,,,,,,,,,,,,,
left,0.570000172,1,175,1,0,1,0,1,0,1,0,240,45,1,239,1,2,2,stim/22.jpeg,Instruments,1,stim/objects/Instruments/speaker.png,0.5,1,-0.2,0.15,left,23,2020-12-18_10h10.05.997,premup-three_ses-02_part-02_label-phase2,3.2.4,Win32,60,,,,,,,,,,,,,,,,,,,,,,,,,,,,,
right,0.492000103,0,176,1,0,1,0,1,0,1,0,240,84,1,239,2,3,1,stim/31.jpeg,Instruments,1,stim/objects/Instruments/triangle.png,0.3,2,0.2,0.15,left,23,2020-12-18_10h10.05.997,premup-three_ses-02_part-02_label-phase2,3.2.4,Win32,60,,,,,,,,,,,,,,,,,,,,,,,,,,,,,
,,0,177,1,0,1,0,1,0,1,0,240,58,1,239,1,2,3,stim/23.jpeg,Instruments,1,stim/objects/Instruments/tambourine.png,0.5,1,-0.2,0.15,left,23,2020-12-18_10h10.05.997,premup-three_ses-02_part-02_label-phase2,3.2.4,Win32,60,,,,,,,,,,,,,,,,,,,,,,,,,,,,,
,,0,178,1,0,1,0,1,0,1,0,240,35,1,239,1,1,4,stim/14.jpeg,HouseObjects,2,stim/objects/HouseObjects/rug.png,0.5,3,-0.2,-0.15,right,23,2020-12-18_10h10.05.997,premup-three_ses-02_part-02_label-phase2,3.2.4,Win32,60,,,,,,,,,,,,,,,,,,,,,,,,,,,,,
left,0.58700037,1,179,1,0,1,0,1,0,1,0,240,40,1,239,1,2,1,stim/21.jpeg,Instruments,1,stim/objects/Instruments/saxophone.png,0.5,2,0.2,0.15,left,23,2020-12-18_10h10.05.997,premup-three_ses-02_part-02_label-phase2,3.2.4,Win32,60,,,,,,,,,,,,,,,,,,,,,,,,,,,,,
left,0.561000109,1,180,1,0,1,0,1,0,1,0,240,131,1,239,2,4,4,stim/44.jpeg,Instruments,1,stim/objects/Instruments/record_player2.png,0.7,1,-0.2,0.15,left,23,2020-12-18_10h10.05.997,premup-three_ses-02_part-02_label-phase2,3.2.4,Win32,60,,,,,,,,,,,,,,,,,,,,,,,,,,,,,
left,0.690000296,1,181,1,0,1,0,1,0,1,0,240,0,1,239,1,1,1,stim/11.jpeg,Instruments,1,stim/objects/Instruments/panflute.png,0.5,4,0.2,-0.15,left,23,2020-12-18_10h10.05.997,premup-three_ses-02_part-02_label-phase2,3.2.4,Win32,60,,,,,,,,,,,,,,,,,,,,,,,,,,,,,
left,0.478000164,1,182,1,0,1,0,1,0,1,0,240,8,1,239,1,1,1,stim/11.jpeg,Instruments,1,stim/objects/Instruments/panflute.png,0.5,2,0.2,0.15,left,23,2020-12-18_10h10.05.997,premup-three_ses-02_part-02_label-phase2,3.2.4,Win32,60,,,,,,,,,,,,,,,,,,,,,,,,,,,,,
left,0.420000315,0,183,1,0,1,0,1,0,1,0,240,31,1,239,1,1,4,stim/14.jpeg,HouseObjects,2,stim/objects/HouseObjects/rug.png,0.5,1,-0.2,0.15,right,23,2020-12-18_10h10.05.997,premup-three_ses-02_part-02_label-phase2,3.2.4,Win32,60,,,,,,,,,,,,,,,,,,,,,,,,,,,,,
right,0.728000164,1,184,1,0,1,0,1,0,1,0,240,21,1,239,1,1,2,stim/12.jpeg,HouseObjects,2,stim/objects/HouseObjects/remote.png,0.5,2,0.2,0.15,right,23,2020-12-18_10h10.05.997,premup-three_ses-02_part-02_label-phase2,3.2.4,Win32,60,,,,,,,,,,,,,,,,,,,,,,,,,,,,,
left,0.635000229,1,185,1,0,1,0,1,0,1,0,240,5,1,239,1,1,2,stim/12.jpeg,Instruments,1,stim/objects/Instruments/pipepiano.png,0.5,2,0.2,0.15,left,23,2020-12-18_10h10.05.997,premup-three_ses-02_part-02_label-phase2,3.2.4,Win32,60,,,,,,,,,,,,,,,,,,,,,,,,,,,,,
right,0.657999992,1,186,1,0,1,0,1,0,1,0,240,191,1,239,3,5,4,stim/54.jpeg,HouseObjects,2,stim/objects/HouseObjects/sponge2.png,0.9,2,0.2,0.15,right,23,2020-12-18_10h10.05.997,premup-three_ses-02_part-02_label-phase2,3.2.4,Win32,60,,,,,,,,,,,,,,,,,,,,,,,,,,,,,
left,0.518000126,1,187,1,0,1,0,1,0,1,0,240,208,1,239,3,6,1,stim/61.jpeg,Instruments,1,stim/objects/Instruments/triangle2.png,0.9,2,0.2,0.15,left,23,2020-12-18_10h10.05.997,premup-three_ses-02_part-02_label-phase2,3.2.4,Win32,60,,,,,,,,,,,,,,,,,,,,,,,,,,,,,
left,0.561000109,1,188,1,0,1,0,1,0,1,0,240,139,1,239,2,4,4,stim/44.jpeg,Instruments,1,stim/objects/Instruments/record_player2.png,0.7,1,-0.2,0.15,left,23,2020-12-18_10h10.05.997,premup-three_ses-02_part-02_label-phase2,3.2.4,Win32,60,,,,,,,,,,,,,,,,,,,,,,,,,,,,,
left,0.550000191,1,189,1,0,1,0,1,0,1,0,240,56,1,239,1,2,1,stim/21.jpeg,Instruments,1,stim/objects/Instruments/saxophone.png,0.5,4,0.2,-0.15,left,23,2020-12-18_10h10.05.997,premup-three_ses-02_part-02_label-phase2,3.2.4,Win32,60,,,,,,,,,,,,,,,,,,,,,,,,,,,,,
right,0.635000229,0,190,1,0,1,0,1,0,1,0,240,9,1,239,1,1,2,stim/12.jpeg,Instruments,1,stim/objects/Instruments/pipepiano.png,0.5,3,-0.2,-0.15,left,23,2020-12-18_10h10.05.997,premup-three_ses-02_part-02_label-phase2,3.2.4,Win32,60,,,,,,,,,,,,,,,,,,,,,,,,,,,,,
left,0.542000294,0,191,1,0,1,0,1,0,1,0,240,69,1,239,1,2,2,stim/22.jpeg,HouseObjects,2,stim/objects/HouseObjects/saw.png,0.5,1,-0.2,0.15,right,23,2020-12-18_10h10.05.997,premup-three_ses-02_part-02_label-phase2,3.2.4,Win32,60,,,,,,,,,,,,,,,,,,,,,,,,,,,,,
left,0.445000172,1,192,1,0,1,0,1,0,1,0,240,127,1,239,2,4,4,stim/44.jpeg,Instruments,1,stim/objects/Instruments/record_player2.png,0.7,1,-0.2,0.15,left,23,2020-12-18_10h10.05.997,premup-three_ses-02_part-02_label-phase2,3.2.4,Win32,60,,,,,,,,,,,,,,,,,,,,,,,,,,,,,
left,0.729000092,1,193,1,0,1,0,1,0,1,0,240,120,1,239,2,4,1,stim/41.jpeg,Instruments,1,stim/objects/Instruments/panflute2.png,0.7,2,0.2,0.15,left,23,2020-12-18_10h10.05.997,premup-three_ses-02_part-02_label-phase2,3.2.4,Win32,60,,,,,,,,,,,,,,,,,,,,,,,,,,,,,
right,0.669000149,0,194,1,0,1,0,1,0,1,0,240,83,1,239,2,3,4,stim/34.jpeg,Instruments,1,stim/objects/Instruments/tuba.png,0.3,3,-0.2,-0.15,left,23,2020-12-18_10h10.05.997,premup-three_ses-02_part-02_label-phase2,3.2.4,Win32,60,,,,,,,,,,,,,,,,,,,,,,,,,,,,,
right,0.548000097,1,195,1,0,1,0,1,0,1,0,240,112,1,239,2,3,1,stim/31.jpeg,HouseObjects,2,stim/objects/HouseObjects/spraybottle.png,0.7,2,0.2,0.15,right,23,2020-12-18_10h10.05.997,premup-three_ses-02_part-02_label-phase2,3.2.4,Win32,60,,,,,,,,,,,,,,,,,,,,,,,,,,,,,
left,0.597000122,1,196,1,0,1,0,1,0,1,0,240,222,1,239,3,6,3,stim/63.jpeg,Instruments,1,stim/objects/Instruments/trumpet2.png,0.9,1,-0.2,0.15,left,23,2020-12-18_10h10.05.997,premup-three_ses-02_part-02_label-phase2,3.2.4,Win32,60,,,,,,,,,,,,,,,,,,,,,,,,,,,,,
left,0.505000353,1,197,1,0,1,0,1,0,1,0,240,221,1,239,3,6,2,stim/62.jpeg,Instruments,1,stim/objects/Instruments/trombone2.png,0.9,1,-0.2,0.15,left,23,2020-12-18_10h10.05.997,premup-three_ses-02_part-02_label-phase2,3.2.4,Win32,60,,,,,,,,,,,,,,,,,,,,,,,,,,,,,
left,0.592000008,1,198,1,0,1,0,1,0,1,0,240,135,1,239,2,4,4,stim/44.jpeg,Instruments,1,stim/objects/Instruments/record_player2.png,0.7,4,0.2,-0.15,left,23,2020-12-18_10h10.05.997,premup-three_ses-02_part-02_label-phase2,3.2.4,Win32,60,,,,,,,,,,,,,,,,,,,,,,,,,,,,,
right,0.59100008,1,199,1,0,1,0,1,0,1,0,240,186,1,239,3,5,3,stim/53.jpeg,HouseObjects,2,stim/objects/HouseObjects/scale2.png,0.9,2,0.2,0.15,right,23,2020-12-18_10h10.05.997,premup-three_ses-02_part-02_label-phase2,3.2.4,Win32,60,,,,,,,,,,,,,,,,,,,,,,,,,,,,,
left,0.430000305,0,200,1,0,1,0,1,0,1,0,240,109,1,239,2,3,2,stim/32.jpeg,HouseObjects,2,stim/objects/HouseObjects/teapot.png,0.7,1,-0.2,0.15,right,23,2020-12-18_10h10.05.997,premup-three_ses-02_part-02_label-phase2,3.2.4,Win32,60,,,,,,,,,,,,,,,,,,,,,,,,,,,,,
right,0.454000235,0,201,1,0,1,0,1,0,1,0,240,147,1,239,2,4,4,stim/44.jpeg,Instruments,1,stim/objects/Instruments/record_player2.png,0.7,2,0.2,0.15,left,23,2020-12-18_10h10.05.997,premup-three_ses-02_part-02_label-phase2,3.2.4,Win32,60,,,,,,,,,,,,,,,,,,,,,,,,,,,,,
right,0.636000156,1,202,1,0,1,0,1,0,1,0,240,28,1,239,1,1,1,stim/11.jpeg,HouseObjects,2,stim/objects/HouseObjects/recyclingbin.png,0.5,2,0.2,0.15,right,23,2020-12-18_10h10.05.997,premup-three_ses-02_part-02_label-phase2,3.2.4,Win32,60,,,,,,,,,,,,,,,,,,,,,,,,,,,,,
left,0.509000063,0,203,1,0,1,0,1,0,1,0,240,114,1,239,2,3,3,stim/33.jpeg,HouseObjects,2,stim/objects/HouseObjects/thermometer.png,0.7,4,0.2,-0.15,right,23,2020-12-18_10h10.05.997,premup-three_ses-02_part-02_label-phase2,3.2.4,Win32,60,,,,,,,,,,,,,,,,,,,,,,,,,,,,,
left,0.759000063,1,204,1,0,1,0,1,0,1,0,240,49,1,239,1,2,2,stim/22.jpeg,Instruments,1,stim/objects/Instruments/speaker.png,0.5,4,0.2,-0.15,left,23,2020-12-18_10h10.05.997,premup-three_ses-02_part-02_label-phase2,3.2.4,Win32,60,,,,,,,,,,,,,,,,,,,,,,,,,,,,,
left,0.56400013,0,205,1,0,1,0,1,0,1,0,240,60,1,239,1,2,1,stim/21.jpeg,HouseObjects,2,stim/objects/HouseObjects/safetypin.png,0.5,3,-0.2,-0.15,right,23,2020-12-18_10h10.05.997,premup-three_ses-02_part-02_label-phase2,3.2.4,Win32,60,,,,,,,,,,,,,,,,,,,,,,,,,,,,,
right,0.63800025,0,206,1,0,1,0,1,0,1,0,240,2,1,239,1,1,3,stim/13.jpeg,Instruments,1,stim/objects/Instruments/record.png,0.5,3,-0.2,-0.15,left,23,2020-12-18_10h10.05.997,premup-three_ses-02_part-02_label-phase2,3.2.4,Win32,60,,,,,,,,,,,,,,,,,,,,,,,,,,,,,
right,0.524000168,1,207,1,0,1,0,1,0,1,0,240,173,1,239,3,5,2,stim/52.jpeg,HouseObjects,2,stim/objects/HouseObjects/saw2.png,0.9,3,-0.2,-0.15,right,23,2020-12-18_10h10.05.997,premup-three_ses-02_part-02_label-phase2,3.2.4,Win32,60,,,,,,,,,,,,,,,,,,,,,,,,,,,,,
left,0.562999964,0,208,1,0,1,0,1,0,1,0,240,71,1,239,1,2,4,stim/24.jpeg,HouseObjects,2,stim/objects/HouseObjects/sponge.png,0.5,2,0.2,0.15,right,23,2020-12-18_10h10.05.997,premup-three_ses-02_part-02_label-phase2,3.2.4,Win32,60,,,,,,,,,,,,,,,,,,,,,,,,,,,,,
left,0.487000227,1,209,1,0,1,0,1,0,1,0,240,216,1,239,3,6,1,stim/61.jpeg,Instruments,1,stim/objects/Instruments/triangle2.png,0.9,2,0.2,0.15,left,23,2020-12-18_10h10.05.997,premup-three_ses-02_part-02_label-phase2,3.2.4,Win32,60,,,,,,,,,,,,,,,,,,,,,,,,,,,,,
left,0.486000299,1,210,1,0,1,0,1,0,1,0,240,203,1,239,3,6,4,stim/64.jpeg,Instruments,1,stim/objects/Instruments/tuba2.png,0.9,3,-0.2,-0.15,left,23,2020-12-18_10h10.05.997,premup-three_ses-02_part-02_label-phase2,3.2.4,Win32,60,,,,,,,,,,,,,,,,,,,,,,,,,,,,,
left,0.509000301,0,211,1,0,1,0,1,0,1,0,240,106,1,239,2,3,3,stim/33.jpeg,HouseObjects,2,stim/objects/HouseObjects/thermometer.png,0.7,1,-0.2,0.15,right,23,2020-12-18_10h10.05.997,premup-three_ses-02_part-02_label-phase2,3.2.4,Win32,60,,,,,,,,,,,,,,,,,,,,,,,,,,,,,
left,0.465000153,1,212,1,0,1,0,1,0,1,0,240,201,1,239,3,6,2,stim/62.jpeg,Instruments,1,stim/objects/Instruments/trombone2.png,0.9,1,-0.2,0.15,left,23,2020-12-18_10h10.05.997,premup-three_ses-02_part-02_label-phase2,3.2.4,Win32,60,,,,,,,,,,,,,,,,,,,,,,,,,,,,,
right,0.455000162,1,213,1,0,1,0,1,0,1,0,240,195,1,239,3,5,4,stim/54.jpeg,HouseObjects,2,stim/objects/HouseObjects/sponge2.png,0.9,2,0.2,0.15,right,23,2020-12-18_10h10.05.997,premup-three_ses-02_part-02_label-phase2,3.2.4,Win32,60,,,,,,,,,,,,,,,,,,,,,,,,,,,,,
right,0.408000231,0,214,1,0,1,0,1,0,1,0,240,52,1,239,1,2,1,stim/21.jpeg,Instruments,1,stim/objects/Instruments/saxophone.png,0.5,4,0.2,-0.15,left,23,2020-12-18_10h10.05.997,premup-three_ses-02_part-02_label-phase2,3.2.4,Win32,60,,,,,,,,,,,,,,,,,,,,,,,,,,,,,
left,0.697000265,1,215,1,0,1,0,1,0,1,0,240,132,1,239,2,4,1,stim/41.jpeg,Instruments,1,stim/objects/Instruments/panflute2.png,0.7,1,-0.2,0.15,left,23,2020-12-18_10h10.05.997,premup-three_ses-02_part-02_label-phase2,3.2.4,Win32,60,,,,,,,,,,,,,,,,,,,,,,,,,,,,,
,,0,216,1,0,1,0,1,0,1,0,240,110,1,239,2,3,3,stim/33.jpeg,HouseObjects,2,stim/objects/HouseObjects/thermometer.png,0.7,2,0.2,0.15,right,23,2020-12-18_10h10.05.997,premup-three_ses-02_part-02_label-phase2,3.2.4,Win32,60,,,,,,,,,,,,,,,,,,,,,,,,,,,,,
right,0.379000187,0,217,1,0,1,0,1,0,1,0,240,90,1,239,2,3,3,stim/33.jpeg,Instruments,1,stim/objects/Instruments/trumpet.png,0.3,4,0.2,-0.15,left,23,2020-12-18_10h10.05.997,premup-three_ses-02_part-02_label-phase2,3.2.4,Win32,60,,,,,,,,,,,,,,,,,,,,,,,,,,,,,
left,0.47900033,1,218,1,0,1,0,1,0,1,0,240,143,1,239,2,4,4,stim/44.jpeg,Instruments,1,stim/objects/Instruments/record_player2.png,0.7,1,-0.2,0.15,left,23,2020-12-18_10h10.05.997,premup-three_ses-02_part-02_label-phase2,3.2.4,Win32,60,,,,,,,,,,,,,,,,,,,,,,,,,,,,,
left,0.543000221,1,219,1,0,1,0,1,0,1,0,240,123,1,239,2,4,4,stim/44.jpeg,Instruments,1,stim/objects/Instruments/record_player2.png,0.7,3,-0.2,-0.15,left,23,2020-12-18_10h10.05.997,premup-three_ses-02_part-02_label-phase2,3.2.4,Win32,60,,,,,,,,,,,,,,,,,,,,,,,,,,,,,
left,0.480000019,1,220,1,0,1,0,1,0,1,0,240,226,1,239,3,6,3,stim/63.jpeg,Instruments,1,stim/objects/Instruments/trumpet2.png,0.9,2,0.2,0.15,left,23,2020-12-18_10h10.05.997,premup-three_ses-02_part-02_label-phase2,3.2.4,Win32,60,,,,,,,,,,,,,,,,,,,,,,,,,,,,,
left,0.528000116,1,221,1,0,1,0,1,0,1,0,240,224,1,239,3,6,1,stim/61.jpeg,Instruments,1,stim/objects/Instruments/triangle2.png,0.9,4,0.2,-0.15,left,23,2020-12-18_10h10.05.997,premup-three_ses-02_part-02_label-phase2,3.2.4,Win32,60,,,,,,,,,,,,,,,,,,,,,,,,,,,,,
left,0.462000132,0,222,1,0,1,0,1,0,1,0,240,108,1,239,2,3,1,stim/31.jpeg,HouseObjects,2,stim/objects/HouseObjects/spraybottle.png,0.7,2,0.2,0.15,right,23,2020-12-18_10h10.05.997,premup-three_ses-02_part-02_label-phase2,3.2.4,Win32,60,,,,,,,,,,,,,,,,,,,,,,,,,,,,,
left,0.424000025,1,223,1,0,1,0,1,0,1,0,240,206,1,239,3,6,3,stim/63.jpeg,Instruments,1,stim/objects/Instruments/trumpet2.png,0.9,3,-0.2,-0.15,left,23,2020-12-18_10h10.05.997,premup-three_ses-02_part-02_label-phase2,3.2.4,Win32,60,,,,,,,,,,,,,,,,,,,,,,,,,,,,,
left,0.816000223,1,224,1,0,1,0,1,0,1,0,240,220,1,239,3,6,1,stim/61.jpeg,Instruments,1,stim/objects/Instruments/triangle2.png,0.9,4,0.2,-0.15,left,23,2020-12-18_10h10.05.997,premup-three_ses-02_part-02_label-phase2,3.2.4,Win32,60,,,,,,,,,,,,,,,,,,,,,,,,,,,,,
,,0,225,1,0,1,0,1,0,1,0,240,14,1,239,1,1,3,stim/13.jpeg,Instruments,1,stim/objects/Instruments/record.png,0.5,1,-0.2,0.15,left,23,2020-12-18_10h10.05.997,premup-three_ses-02_part-02_label-phase2,3.2.4,Win32,60,,,,,,,,,,,,,,,,,,,,,,,,,,,,,
right,0.492000341,0,226,1,0,1,0,1,0,1,0,240,214,1,239,3,6,3,stim/63.jpeg,Instruments,1,stim/objects/Instruments/trumpet2.png,0.9,2,0.2,0.15,left,23,2020-12-18_10h10.05.997,premup-three_ses-02_part-02_label-phase2,3.2.4,Win32,60,,,,,,,,,,,,,,,,,,,,,,,,,,,,,
left,0.396000147,1,227,1,0,1,0,1,0,1,0,240,200,1,239,3,6,1,stim/61.jpeg,Instruments,1,stim/objects/Instruments/triangle2.png,0.9,3,-0.2,-0.15,left,23,2020-12-18_10h10.05.997,premup-three_ses-02_part-02_label-phase2,3.2.4,Win32,60,,,,,,,,,,,,,,,,,,,,,,,,,,,,,
left,0.575999975,1,228,1,0,1,0,1,0,1,0,240,229,1,239,3,6,2,stim/62.jpeg,Instruments,1,stim/objects/Instruments/trombone2.png,0.9,4,0.2,-0.15,left,23,2020-12-18_10h10.05.997,premup-three_ses-02_part-02_label-phase2,3.2.4,Win32,60,,,,,,,,,,,,,,,,,,,,,,,,,,,,,
left,0.498000145,1,229,1,0,1,0,1,0,1,0,240,137,1,239,2,4,2,stim/42.jpeg,Instruments,1,stim/objects/Instruments/pipepiano2.png,0.7,2,0.2,0.15,left,23,2020-12-18_10h10.05.997,premup-three_ses-02_part-02_label-phase2,3.2.4,Win32,60,,,,,,,,,,,,,,,,,,,,,,,,,,,,,
left,0.663000107,1,230,1,0,1,0,1,0,1,0,240,133,1,239,2,4,2,stim/42.jpeg,Instruments,1,stim/objects/Instruments/pipepiano2.png,0.7,1,-0.2,0.15,left,23,2020-12-18_10h10.05.997,premup-three_ses-02_part-02_label-phase2,3.2.4,Win32,60,,,,,,,,,,,,,,,,,,,,,,,,,,,,,
left,0.439000368,0,231,1,0,1,0,1,0,1,0,240,153,1,239,2,4,2,stim/42.jpeg,HouseObjects,2,stim/objects/HouseObjects/remote2.png,0.3,2,0.2,0.15,right,23,2020-12-18_10h10.05.997,premup-three_ses-02_part-02_label-phase2,3.2.4,Win32,60,,,,,,,,,,,,,,,,,,,,,,,,,,,,,
right,0.635000229,1,232,1,0,1,0,1,0,1,0,240,179,1,239,3,5,4,stim/54.jpeg,HouseObjects,2,stim/objects/HouseObjects/sponge2.png,0.9,3,-0.2,-0.15,right,23,2020-12-18_10h10.05.997,premup-three_ses-02_part-02_label-phase2,3.2.4,Win32,60,,,,,,,,,,,,,,,,,,,,,,,,,,,,,
left,0.516000271,1,233,1,0,1,0,1,0,1,0,240,230,1,239,3,6,3,stim/63.jpeg,Instruments,1,stim/objects/Instruments/trumpet2.png,0.9,3,-0.2,-0.15,left,23,2020-12-18_10h10.05.997,premup-three_ses-02_part-02_label-phase2,3.2.4,Win32,60,,,,,,,,,,,,,,,,,,,,,,,,,,,,,
right,0.433000088,1,234,1,0,1,0,1,0,1,0,240,171,1,239,3,5,4,stim/54.jpeg,HouseObjects,2,stim/objects/HouseObjects/sponge2.png,0.9,4,0.2,-0.15,right,23,2020-12-18_10h10.05.997,premup-three_ses-02_part-02_label-phase2,3.2.4,Win32,60,,,,,,,,,,,,,,,,,,,,,,,,,,,,,
left,0.54700017,1,235,1,0,1,0,1,0,1,0,240,232,1,239,3,6,1,stim/61.jpeg,Instruments,1,stim/objects/Instruments/triangle2.png,0.9,2,0.2,0.15,left,23,2020-12-18_10h10.05.997,premup-three_ses-02_part-02_label-phase2,3.2.4,Win32,60,,,,,,,,,,,,,,,,,,,,,,,,,,,,,
right,0.69900012,0,236,1,0,1,0,1,0,1,0,240,1,1,239,1,1,2,stim/12.jpeg,Instruments,1,stim/objects/Instruments/pipepiano.png,0.5,4,0.2,-0.15,left,23,2020-12-18_10h10.05.997,premup-three_ses-02_part-02_label-phase2,3.2.4,Win32,60,,,,,,,,,,,,,,,,,,,,,,,,,,,,,
left,0.59400034,0,237,1,0,1,0,1,0,1,0,240,156,1,239,2,4,1,stim/41.jpeg,HouseObjects,2,stim/objects/HouseObjects/recyclingbin2.png,0.3,4,0.2,-0.15,right,23,2020-12-18_10h10.05.997,premup-three_ses-02_part-02_label-phase2,3.2.4,Win32,60,,,,,,,,,,,,,,,,,,,,,,,,,,,,,
left,0.418000221,0,238,1,0,1,0,1,0,1,0,240,193,1,239,3,5,2,stim/52.jpeg,HouseObjects,2,stim/objects/HouseObjects/saw2.png,0.9,3,-0.2,-0.15,right,23,2020-12-18_10h10.05.997,premup-three_ses-02_part-02_label-phase2,3.2.4,Win32,60,,,,,,,,,,,,,,,,,,,,,,,,,,,,,
right,0.571000099,1,239,1,0,1,0,1,0,1,0,240,198,1,239,3,5,3,stim/53.jpeg,HouseObjects,2,stim/objects/HouseObjects/scale2.png,0.9,1,-0.2,0.15,right,23,2020-12-18_10h10.05.997,premup-three_ses-02_part-02_label-phase2,3.2.4,Win32,60,,,,,,,,,,,,,,,,,,,,,,,,,,,,,
left,0.661000252,1,240,1,0,1,0,1,0,1,0,240,15,1,239,1,1,4,stim/14.jpeg,Instruments,1,stim/objects/Instruments/record_player.png,0.5,3,-0.2,-0.15,left,23,2020-12-18_10h10.05.997,premup-three_ses-02_part-02_label-phase2,3.2.4,Win32,60,,,,,,,,,,,,,,,,,,,,,,,,,,,,,
,,,,1,0,1,0,1,0,,,,,,,,6,,stim/61.jpeg,,,,,,,,,23,2020-12-18_10h10.05.997,premup-three_ses-02_part-02_label-phase2,3.2.4,Win32,60,86,5.375999928,,,1,0,6,5,1,5,Music items,5,15,Household items,85,95,,,,,,,,,,,,,
,,,,1,0,1,0,1,0,,,,,,,,2,,stim/21.jpeg,,,,,,,,,23,2020-12-18_10h10.05.997,premup-three_ses-02_part-02_label-phase2,3.2.4,Win32,60,80,3.088999987,,,1,0,6,1,1,5,Household items,45,55,Music items,45,55,,,,,,,,,,,,,
,,,,1,0,1,0,1,0,,,,,,,,3,,stim/31.jpeg,,,,,,,,,23,2020-12-18_10h10.05.997,premup-three_ses-02_part-02_label-phase2,3.2.4,Win32,60,57,7.23300004,,,1,0,6,2,1,5,Music items,65,75,Household items,25,35,,,,,,,,,,,,,
,,,,1,0,1,0,1,0,,,,,,,,4,,stim/41.jpeg,,,,,,,,,23,2020-12-18_10h10.05.997,premup-three_ses-02_part-02_label-phase2,3.2.4,Win32,60,80,4.394000053,,,1,0,6,3,1,5,Music items,65,75,Household items,25,35,,,,,,,,,,,,,
,,,,1,0,1,0,1,0,,,,,,,,1,,stim/11.jpeg,,,,,,,,,23,2020-12-18_10h10.05.997,premup-three_ses-02_part-02_label-phase2,3.2.4,Win32,60,70,3.680000067,,,1,0,6,0,1,5,Music items,45,55,Household items,45,55,,,,,,,,,,,,,
,,,,1,0,1,0,1,0,,,,,,,,5,,stim/51.jpeg,,,,,,,,,23,2020-12-18_10h10.05.997,premup-three_ses-02_part-02_label-phase2,3.2.4,Win32,60,80,5.319000006,,,1,0,6,4,1,5,Household items,5,15,Music items,85,95,,,,,,,,,,,,,
,,,,1,0,1,0,1,0,,,,,,,,,,,,,,,,,,,23,2020-12-18_10h10.05.997,premup-three_ses-02_part-02_label-phase2,3.2.4,Win32,60,,,,,,,,,,,,,,,,,,,,,,,,,,,,,
left,0.584000111,1,241,,,,,,,,,,,,,3,6,4,stim/64.jpeg,Instruments,1,stim/objects/Instruments/violin4.png,0.9,3,-0.2,-0.15,left,23,2020-12-18_10h10.05.997,premup-three_ses-02_part-02_label-phase2,3.2.4,Win32,60,,,,,,,,,,,,,,,,,1,0,330,317,1,329,1,,,,,,
right,0.59800005,1,242,,,,,,,,,,,,,3,5,4,stim/54.jpeg,HouseObjects,2,stim/objects/HouseObjects/glass3.png,0.9,1,-0.2,0.15,right,23,2020-12-18_10h10.05.997,premup-three_ses-02_part-02_label-phase2,3.2.4,Win32,60,,,,,,,,,,,,,,,,,1,0,330,209,1,329,2,,,,,,
left,0.57400012,1,243,,,,,,,,,,,,,3,6,4,stim/64.jpeg,Instruments,1,stim/objects/Instruments/gong3.png,0.9,1,-0.2,0.15,left,23,2020-12-18_10h10.05.997,premup-three_ses-02_part-02_label-phase2,3.2.4,Win32,60,,,,,,,,,,,,,,,,,1,0,330,233,1,329,2,,,,,,
left,0.451000214,0,244,,,,,,,,,,,,,1,2,3,stim/23.jpeg,HouseObjects,2,stim/objects/HouseObjects/bottle3.png,0.5,3,-0.2,-0.15,right,23,2020-12-18_10h10.05.997,premup-three_ses-02_part-02_label-phase2,3.2.4,Win32,60,,,,,,,,,,,,,,,,,1,0,330,46,1,329,2,,,,,,
right,0.580000162,1,245,,,,,,,,,,,,,3,5,1,stim/51.jpeg,HouseObjects,2,stim/objects/HouseObjects/glass3.png,0.9,1,-0.2,0.15,right,23,2020-12-18_10h10.05.997,premup-three_ses-02_part-02_label-phase2,3.2.4,Win32,60,,,,,,,,,,,,,,,,,1,0,330,154,1,329,2,,,,,,
left,0.578000069,1,246,,,,,,,,,,,,,1,2,3,stim/23.jpeg,Instruments,1,stim/objects/Instruments/clarinet3.png,0.5,1,-0.2,0.15,left,23,2020-12-18_10h10.05.997,premup-three_ses-02_part-02_label-phase2,3.2.4,Win32,60,,,,,,,,,,,,,,,,,1,0,330,38,1,329,2,,,,,,
right,0.509000301,1,247,,,,,,,,,,,,,3,5,4,stim/54.jpeg,HouseObjects,2,stim/objects/HouseObjects/garbagebin3.png,0.9,2,0.2,0.15,right,23,2020-12-18_10h10.05.997,premup-three_ses-02_part-02_label-phase2,3.2.4,Win32,60,,,,,,,,,,,,,,,,,1,0,330,213,1,329,2,,,,,,
right,0.418000221,0,248,,,,,,,,,,,,,3,6,4,stim/64.jpeg,Instruments,1,stim/objects/Instruments/gong3.png,0.9,2,0.2,0.15,left,23,2020-12-18_10h10.05.997,premup-three_ses-02_part-02_label-phase2,3.2.4,Win32,60,,,,,,,,,,,,,,,,,1,0,330,293,1,329,2,,,,,,
left,0.474000216,0,249,,,,,,,,,,,,,2,4,2,stim/42.jpeg,HouseObjects,2,stim/objects/HouseObjects/clock4.png,0.3,2,0.2,0.15,right,23,2020-12-18_10h10.05.997,premup-three_ses-02_part-02_label-phase2,3.2.4,Win32,60,,,,,,,,,,,,,,,,,1,0,330,124,1,329,1,,,,,,
right,0.413000107,1,250,,,,,,,,,,,,,3,5,2,stim/52.jpeg,HouseObjects,2,stim/objects/HouseObjects/garbagebin3.png,0.9,4,0.2,-0.15,right,23,2020-12-18_10h10.05.997,premup-three_ses-02_part-02_label-phase2,3.2.4,Win32,60,,,,,,,,,,,,,,,,,1,0,330,163,1,329,2,,,,,,
left,0.367000103,0,251,,,,,,,,,,,,,3,5,3,stim/53.jpeg,HouseObjects,2,stim/objects/HouseObjects/doormat4.png,0.9,1,-0.2,0.15,right,23,2020-12-18_10h10.05.997,premup-three_ses-02_part-02_label-phase2,3.2.4,Win32,60,,,,,,,,,,,,,,,,,1,0,330,220,1,329,1,,,,,,
right,0.424999952,0,252,,,,,,,,,,,,,3,6,3,stim/63.jpeg,Instruments,1,stim/objects/Instruments/flute3.png,0.9,2,0.2,0.15,left,23,2020-12-18_10h10.05.997,premup-three_ses-02_part-02_label-phase2,3.2.4,Win32,60,,,,,,,,,,,,,,,,,1,0,330,260,1,329,2,,,,,,
left,0.584000349,1,253,,,,,,,,,,,,,3,6,3,stim/63.jpeg,Instruments,1,stim/objects/Instruments/flutetrans3.png,0.9,4,0.2,-0.15,left,23,2020-12-18_10h10.05.997,premup-three_ses-02_part-02_label-phase2,3.2.4,Win32,60,,,,,,,,,,,,,,,,,1,0,330,236,1,329,2,,,,,,
right,0.586000204,0,254,,,,,,,,,,,,,1,1,3,stim/13.jpeg,Instruments,1,stim/objects/Instruments/acousticguitar3.png,0.5,3,-0.2,-0.15,left,23,2020-12-18_10h10.05.997,premup-three_ses-02_part-02_label-phase2,3.2.4,Win32,60,,,,,,,,,,,,,,,,,1,0,330,6,1,329,2,,,,,,
right,0.480000257,0,255,,,,,,,,,,,,,1,1,1,stim/11.jpeg,Instruments,1,stim/objects/Instruments/harp3.png,0.5,2,0.2,0.15,left,23,2020-12-18_10h10.05.997,premup-three_ses-02_part-02_label-phase2,3.2.4,Win32,60,,,,,,,,,,,,,,,,,1,0,330,12,1,329,1,,,,,,
right,0.421000242,1,256,,,,,,,,,,,,,3,5,3,stim/53.jpeg,HouseObjects,2,stim/objects/HouseObjects/dustpan3.png,0.9,4,0.2,-0.15,right,23,2020-12-18_10h10.05.997,premup-three_ses-02_part-02_label-phase2,3.2.4,Win32,60,,,,,,,,,,,,,,,,,1,0,330,156,1,329,2,,,,,,
right,0.610000134,1,257,,,,,,,,,,,,,3,5,4,stim/54.jpeg,HouseObjects,2,stim/objects/HouseObjects/doormat3.png,0.9,4,0.2,-0.15,right,23,2020-12-18_10h10.05.997,premup-three_ses-02_part-02_label-phase2,3.2.4,Win32,60,,,,,,,,,,,,,,,,,1,0,330,185,1,329,2,,,,,,
left,0.553000212,0,258,,,,,,,,,,,,,2,3,3,stim/33.jpeg,HouseObjects,2,stim/objects/HouseObjects/cushion3.png,0.7,1,-0.2,0.15,right,23,2020-12-18_10h10.05.997,premup-three_ses-02_part-02_label-phase2,3.2.4,Win32,60,,,,,,,,,,,,,,,,,1,0,330,78,1,329,2,,,,,,
left,0.53000021,0,259,,,,,,,,,,,,,3,6,4,stim/64.jpeg,HouseObjects,2,stim/objects/HouseObjects/pan4.png,0.1,2,0.2,0.15,right,23,2020-12-18_10h10.05.997,premup-three_ses-02_part-02_label-phase2,3.2.4,Win32,60,,,,,,,,,,,,,,,,,1,0,330,325,1,329,1,,,,,,
right,0.532000303,1,260,,,,,,,,,,,,,1,1,4,stim/14.jpeg,HouseObjects,2,stim/objects/HouseObjects/handbrush3.png,0.5,2,0.2,0.15,right,23,2020-12-18_10h10.05.997,premup-three_ses-02_part-02_label-phase2,3.2.4,Win32,60,,,,,,,,,,,,,,,,,1,0,330,27,1,329,1,,,,,,
right,0.620000362,1,261,,,,,,,,,,,,,2,3,4,stim/34.jpeg,HouseObjects,2,stim/objects/HouseObjects/towel3.png,0.7,2,0.2,0.15,right,23,2020-12-18_10h10.05.997,premup-three_ses-02_part-02_label-phase2,3.2.4,Win32,60,,,,,,,,,,,,,,,,,1,0,330,87,1,329,1,,,,,,
right,0.505000114,1,262,,,,,,,,,,,,,3,5,3,stim/53.jpeg,HouseObjects,2,stim/objects/HouseObjects/glass3.png,0.9,2,0.2,0.15,right,23,2020-12-18_10h10.05.997,premup-three_ses-02_part-02_label-phase2,3.2.4,Win32,60,,,,,,,,,,,,,,,,,1,0,330,184,1,329,2,,,,,,
left,0.558000088,1,263,,,,,,,,,,,,,3,6,2,stim/62.jpeg,Instruments,1,stim/objects/Instruments/gong3.png,0.9,2,0.2,0.15,left,23,2020-12-18_10h10.05.997,premup-three_ses-02_part-02_label-phase2,3.2.4,Win32,60,,,,,,,,,,,,,,,,,1,0,330,283,1,329,2,,,,,,
left,0.539000273,1,264,,,,,,,,,,,,,3,6,2,stim/62.jpeg,Instruments,1,stim/objects/Instruments/flutetrans3.png,0.9,3,-0.2,-0.15,left,23,2020-12-18_10h10.05.997,premup-three_ses-02_part-02_label-phase2,3.2.4,Win32,60,,,,,,,,,,,,,,,,,1,0,330,231,1,329,2,,,,,,
left,0.505000114,1,265,,,,,,,,,,,,,3,6,2,stim/62.jpeg,Instruments,1,stim/objects/Instruments/frenchhorn3.png,0.9,4,0.2,-0.15,left,23,2020-12-18_10h10.05.997,premup-three_ses-02_part-02_label-phase2,3.2.4,Win32,60,,,,,,,,,,,,,,,,,1,0,330,267,1,329,2,,,,,,
left,0.627000093,1,266,,,,,,,,,,,,,3,6,3,stim/63.jpeg,Instruments,1,stim/objects/Instruments/flutetrans3.png,0.9,1,-0.2,0.15,left,23,2020-12-18_10h10.05.997,premup-three_ses-02_part-02_label-phase2,3.2.4,Win32,60,,,,,,,,,,,,,,,,,1,0,330,256,1,329,2,,,,,,
right,0.516000032,1,267,,,,,,,,,,,,,1,1,1,stim/11.jpeg,HouseObjects,2,stim/objects/HouseObjects/bleachbottle3.png,0.5,1,-0.2,0.15,right,23,2020-12-18_10h10.05.997,premup-three_ses-02_part-02_label-phase2,3.2.4,Win32,60,,,,,,,,,,,,,,,,,1,0,330,24,1,329,2,,,,,,
right,0.419000149,1,268,,,,,,,,,,,,,2,3,4,stim/34.jpeg,HouseObjects,2,stim/objects/HouseObjects/clothesdryingrack3.png,0.7,3,-0.2,-0.15,right,23,2020-12-18_10h10.05.997,premup-three_ses-02_part-02_label-phase2,3.2.4,Win32,60,,,,,,,,,,,,,,,,,1,0,330,75,1,329,2,,,,,,
right,0.59800005,1,269,,,,,,,,,,,,,2,3,1,stim/31.jpeg,HouseObjects,2,stim/objects/HouseObjects/clothesdryingrack3.png,0.7,1,-0.2,0.15,right,23,2020-12-18_10h10.05.997,premup-three_ses-02_part-02_label-phase2,3.2.4,Win32,60,,,,,,,,,,,,,,,,,1,0,330,80,1,329,2,,,,,,
right,0.438000202,0,270,,,,,,,,,,,,,1,2,2,stim/22.jpeg,Instruments,1,stim/objects/Instruments/clarinet3.png,0.5,1,-0.2,0.15,left,23,2020-12-18_10h10.05.997,premup-three_ses-02_part-02_label-phase2,3.2.4,Win32,60,,,,,,,,,,,,,,,,,1,0,330,33,1,329,2,,,,,,
left,0.520000219,1,271,,,,,,,,,,,,,2,4,2,stim/42.jpeg,Instruments,1,stim/objects/Instruments/electricguitar3.png,0.7,1,-0.2,0.15,left,23,2020-12-18_10h10.05.997,premup-three_ses-02_part-02_label-phase2,3.2.4,Win32,60,,,,,,,,,,,,,,,,,1,0,330,104,1,329,2,,,,,,
left,0.572000027,1,272,,,,,,,,,,,,,1,2,3,stim/23.jpeg,Instruments,1,stim/objects/Instruments/cornet3.png,0.5,3,-0.2,-0.15,left,23,2020-12-18_10h10.05.997,premup-three_ses-02_part-02_label-phase2,3.2.4,Win32,60,,,,,,,,,,,,,,,,,1,0,330,34,1,329,2,,,,,,
right,0.494000196,1,273,,,,,,,,,,,,,3,5,3,stim/53.jpeg,HouseObjects,2,stim/objects/HouseObjects/doormat3.png,0.9,2,0.2,0.15,right,23,2020-12-18_10h10.05.997,premup-three_ses-02_part-02_label-phase2,3.2.4,Win32,60,,,,,,,,,,,,,,,,,1,0,330,180,1,329,2,,,,,,
right,0.773000002,0,274,,,,,,,,,,,,,3,5,1,stim/51.jpeg,Instruments,1,stim/objects/Instruments/hihat4.png,0.1,2,0.2,0.15,left,23,2020-12-18_10h10.05.997,premup-three_ses-02_part-02_label-phase2,3.2.4,Win32,60,,,,,,,,,,,,,,,,,1,0,330,138,1,329,1,,,,,,
left,0.782000303,0,275,,,,,,,,,,,,,1,2,4,stim/24.jpeg,HouseObjects,2,stim/objects/HouseObjects/match3.png,0.5,3,-0.2,-0.15,right,23,2020-12-18_10h10.05.997,premup-three_ses-02_part-02_label-phase2,3.2.4,Win32,60,,,,,,,,,,,,,,,,,1,0,330,59,1,329,1,,,,,,
right,0.674000263,1,276,,,,,,,,,,,,,3,5,1,stim/51.jpeg,HouseObjects,2,stim/objects/HouseObjects/flyswatter3.png,0.9,3,-0.2,-0.15,right,23,2020-12-18_10h10.05.997,premup-three_ses-02_part-02_label-phase2,3.2.4,Win32,60,,,,,,,,,,,,,,,,,1,0,330,162,1,329,2,,,,,,
right,0.68900013,1,277,,,,,,,,,,,,,3,5,3,stim/53.jpeg,HouseObjects,2,stim/objects/HouseObjects/dustpan3.png,0.9,4,0.2,-0.15,right,23,2020-12-18_10h10.05.997,premup-three_ses-02_part-02_label-phase2,3.2.4,Win32,60,,,,,,,,,,,,,,,,,1,0,330,176,1,329,2,,,,,,
left,0.630000114,0,278,,,,,,,,,,,,,3,5,2,stim/52.jpeg,HouseObjects,2,stim/objects/HouseObjects/dustpan3.png,0.9,4,0.2,-0.15,right,23,2020-12-18_10h10.05.997,premup-three_ses-02_part-02_label-phase2,3.2.4,Win32,60,,,,,,,,,,,,,,,,,1,0,330,211,1,329,2,,,,,,
left,0.525000095,0,279,,,,,,,,,,,,,3,5,2,stim/52.jpeg,HouseObjects,2,stim/objects/HouseObjects/dustpan3.png,0.9,4,0.2,-0.15,right,23,2020-12-18_10h10.05.997,premup-three_ses-02_part-02_label-phase2,3.2.4,Win32,60,,,,,,,,,,,,,,,,,1,0,330,191,1,329,2,,,,,,
left,0.819000006,0,280,,,,,,,,,,,,,1,2,4,stim/24.jpeg,HouseObjects,2,stim/objects/HouseObjects/broom3.png,0.5,4,0.2,-0.15,right,23,2020-12-18_10h10.05.997,premup-three_ses-02_part-02_label-phase2,3.2.4,Win32,60,,,,,,,,,,,,,,,,,1,0,330,47,1,329,2,,,,,,
left,0.613000154,1,281,,,,,,,,,,,,,2,3,3,stim/33.jpeg,Instruments,1,stim/objects/Instruments/violin3.png,0.3,1,-0.2,0.15,left,23,2020-12-18_10h10.05.997,premup-three_ses-02_part-02_label-phase2,3.2.4,Win32,60,,,,,,,,,,,,,,,,,1,0,330,62,1,329,1,,,,,,
right,0.493999958,1,282,,,,,,,,,,,,,3,5,1,stim/51.jpeg,HouseObjects,2,stim/objects/HouseObjects/dustpan3.png,0.9,2,0.2,0.15,right,23,2020-12-18_10h10.05.997,premup-three_ses-02_part-02_label-phase2,3.2.4,Win32,60,,,,,,,,,,,,,,,,,1,0,330,186,1,329,2,,,,,,
right,0.59100008,1,283,,,,,,,,,,,,,2,3,4,stim/34.jpeg,HouseObjects,2,stim/objects/HouseObjects/cushion3.png,0.7,1,-0.2,0.15,right,23,2020-12-18_10h10.05.997,premup-three_ses-02_part-02_label-phase2,3.2.4,Win32,60,,,,,,,,,,,,,,,,,1,0,330,83,1,329,2,,,,,,
right,0.585000277,1,284,,,,,,,,,,,,,2,3,2,stim/32.jpeg,HouseObjects,2,stim/objects/HouseObjects/clothespin3.png,0.7,1,-0.2,0.15,right,23,2020-12-18_10h10.05.997,premup-three_ses-02_part-02_label-phase2,3.2.4,Win32,60,,,,,,,,,,,,,,,,,1,0,330,81,1,329,2,,,,,,
left,0.532999992,1,285,,,,,,,,,,,,,3,6,2,stim/62.jpeg,Instruments,1,stim/objects/Instruments/grandpiano3.png,0.9,2,0.2,0.15,left,23,2020-12-18_10h10.05.997,premup-three_ses-02_part-02_label-phase2,3.2.4,Win32,60,,,,,,,,,,,,,,,,,1,0,330,279,1,329,2,,,,,,
left,0.474000216,1,286,,,,,,,,,,,,,3,6,4,stim/64.jpeg,Instruments,1,stim/objects/Instruments/frenchhorn3.png,0.9,1,-0.2,0.15,left,23,2020-12-18_10h10.05.997,premup-three_ses-02_part-02_label-phase2,3.2.4,Win32,60,,,,,,,,,,,,,,,,,1,0,330,297,1,329,2,,,,,,
left,0.670000076,1,287,,,,,,,,,,,,,2,4,1,stim/41.jpeg,Instruments,1,stim/objects/Instruments/cello4.png,0.7,1,-0.2,0.15,left,23,2020-12-18_10h10.05.997,premup-three_ses-02_part-02_label-phase2,3.2.4,Win32,60,,,,,,,,,,,,,,,,,1,0,330,111,1,329,1,,,,,,
left,0.478000164,0,288,,,,,,,,,,,,,3,6,1,stim/61.jpeg,HouseObjects,2,stim/objects/HouseObjects/knife4.png,0.1,3,-0.2,-0.15,right,23,2020-12-18_10h10.05.997,premup-three_ses-02_part-02_label-phase2,3.2.4,Win32,60,,,,,,,,,,,,,,,,,1,0,330,322,1,329,1,,,,,,
left,0.480000257,1,289,,,,,,,,,,,,,2,4,4,stim/44.jpeg,Instruments,1,stim/objects/Instruments/electricdrumset4.png,0.7,3,-0.2,-0.15,left,23,2020-12-18_10h10.05.997,premup-three_ses-02_part-02_label-phase2,3.2.4,Win32,60,,,,,,,,,,,,,,,,,1,0,330,118,1,329,1,,,,,,
left,0.475000143,1,290,,,,,,,,,,,,,3,6,3,stim/63.jpeg,Instruments,1,stim/objects/Instruments/flute3.png,0.9,1,-0.2,0.15,left,23,2020-12-18_10h10.05.997,premup-three_ses-02_part-02_label-phase2,3.2.4,Win32,60,,,,,,,,,,,,,,,,,1,0,330,240,1,329,2,,,,,,
left,0.483000278,1,291,,,,,,,,,,,,,1,1,4,stim/14.jpeg,Instruments,1,stim/objects/Instruments/banjo3.png,0.5,4,0.2,-0.15,left,23,2020-12-18_10h10.05.997,premup-three_ses-02_part-02_label-phase2,3.2.4,Win32,60,,,,,,,,,,,,,,,,,1,0,330,3,1,329,2,,,,,,
right,0.522000074,1,292,,,,,,,,,,,,,3,5,2,stim/52.jpeg,HouseObjects,2,stim/objects/HouseObjects/glass3.png,0.9,4,0.2,-0.15,right,23,2020-12-18_10h10.05.997,premup-three_ses-02_part-02_label-phase2,3.2.4,Win32,60,,,,,,,,,,,,,,,,,1,0,330,179,1,329,2,,,,,,
right,0.468000174,0,293,,,,,,,,,,,,,1,2,1,stim/21.jpeg,Instruments,1,stim/objects/Instruments/cello3.png,0.5,4,0.2,-0.15,left,23,2020-12-18_10h10.05.997,premup-three_ses-02_part-02_label-phase2,3.2.4,Win32,60,,,,,,,,,,,,,,,,,1,0,330,36,1,329,2,,,,,,
left,0.450000048,1,294,,,,,,,,,,,,,3,6,1,stim/61.jpeg,Instruments,1,stim/objects/Instruments/gong3.png,0.9,4,0.2,-0.15,left,23,2020-12-18_10h10.05.997,premup-three_ses-02_part-02_label-phase2,3.2.4,Win32,60,,,,,,,,,,,,,,,,,1,0,330,258,1,329,2,,,,,,
left,0.701000214,0,295,,,,,,,,,,,,,3,5,4,stim/54.jpeg,HouseObjects,2,stim/objects/HouseObjects/dustpan3.png,0.9,1,-0.2,0.15,right,23,2020-12-18_10h10.05.997,premup-three_ses-02_part-02_label-phase2,3.2.4,Win32,60,,,,,,,,,,,,,,,,,1,0,330,181,1,329,2,,,,,,
left,0.56400013,1,296,,,,,,,,,,,,,3,6,2,stim/62.jpeg,Instruments,1,stim/objects/Instruments/musicstand4.png,0.9,2,0.2,0.15,left,23,2020-12-18_10h10.05.997,premup-three_ses-02_part-02_label-phase2,3.2.4,Win32,60,,,,,,,,,,,,,,,,,1,0,330,315,1,329,1,,,,,,
left,0.641000032,1,297,,,,,,,,,,,,,3,6,4,stim/64.jpeg,Instruments,1,stim/objects/Instruments/flutetrans3.png,0.9,3,-0.2,-0.15,left,23,2020-12-18_10h10.05.997,premup-three_ses-02_part-02_label-phase2,3.2.4,Win32,60,,,,,,,,,,,,,,,,,1,0,330,261,1,329,2,,,,,,
right,0.618000269,1,298,,,,,,,,,,,,,2,3,1,stim/31.jpeg,HouseObjects,2,stim/objects/HouseObjects/coffee3.png,0.7,4,0.2,-0.15,right,23,2020-12-18_10h10.05.997,premup-three_ses-02_part-02_label-phase2,3.2.4,Win32,60,,,,,,,,,,,,,,,,,1,0,330,72,1,329,2,,,,,,
left,0.493000269,1,299,,,,,,,,,,,,,3,6,3,stim/63.jpeg,Instruments,1,stim/objects/Instruments/grandpiano3.png,0.9,1,-0.2,0.15,left,23,2020-12-18_10h10.05.997,premup-three_ses-02_part-02_label-phase2,3.2.4,Win32,60,,,,,,,,,,,,,,,,,1,0,330,304,1,329,2,,,,,,
right,0.466000319,1,300,,,,,,,,,,,,,3,5,1,stim/51.jpeg,HouseObjects,2,stim/objects/HouseObjects/flyswatter3.png,0.9,4,0.2,-0.15,right,23,2020-12-18_10h10.05.997,premup-three_ses-02_part-02_label-phase2,3.2.4,Win32,60,,,,,,,,,,,,,,,,,1,0,330,142,1,329,2,,,,,,
left,0.565999985,0,301,,,,,,,,,,,,,3,6,3,stim/63.jpeg,HouseObjects,2,stim/objects/HouseObjects/match4.png,0.1,2,0.2,0.15,right,23,2020-12-18_10h10.05.997,premup-three_ses-02_part-02_label-phase2,3.2.4,Win32,60,,,,,,,,,,,,,,,,,1,0,330,324,1,329,1,,,,,,
right,0.606000185,1,302,,,,,,,,,,,,,1,1,2,stim/12.jpeg,HouseObjects,2,stim/objects/HouseObjects/ballofstring3.png,0.5,4,0.2,-0.15,right,23,2020-12-18_10h10.05.997,premup-three_ses-02_part-02_label-phase2,3.2.4,Win32,60,,,,,,,,,,,,,,,,,1,0,330,21,1,329,2,,,,,,
right,0.474000216,1,303,,,,,,,,,,,,,3,5,3,stim/53.jpeg,HouseObjects,2,stim/objects/HouseObjects/garbagebin3.png,0.9,3,-0.2,-0.15,right,23,2020-12-18_10h10.05.997,premup-three_ses-02_part-02_label-phase2,3.2.4,Win32,60,,,,,,,,,,,,,,,,,1,0,330,168,1,329,2,,,,,,
right,0.534000158,1,304,,,,,,,,,,,,,3,5,1,stim/51.jpeg,HouseObjects,2,stim/objects/HouseObjects/dustpan3.png,0.9,2,0.2,0.15,right,23,2020-12-18_10h10.05.997,premup-three_ses-02_part-02_label-phase2,3.2.4,Win32,60,,,,,,,,,,,,,,,,,1,0,330,166,1,329,2,,,,,,
left,0.596000195,1,305,,,,,,,,,,,,,3,6,3,stim/63.jpeg,Instruments,1,stim/objects/Instruments/frenchhorn3.png,0.9,4,0.2,-0.15,left,23,2020-12-18_10h10.05.997,premup-three_ses-02_part-02_label-phase2,3.2.4,Win32,60,,,,,,,,,,,,,,,,,1,0,330,272,1,329,2,,,,,,
right,0.588000059,0,306,,,,,,,,,,,,,3,5,2,stim/52.jpeg,Instruments,1,stim/objects/Instruments/keyboard4.png,0.1,4,0.2,-0.15,left,23,2020-12-18_10h10.05.997,premup-three_ses-02_part-02_label-phase2,3.2.4,Win32,60,,,,,,,,,,,,,,,,,1,0,330,139,1,329,1,,,,,,
right,0.687000036,1,307,,,,,,,,,,,,,3,5,1,stim/51.jpeg,HouseObjects,2,stim/objects/HouseObjects/flyswatter4.png,0.9,1,-0.2,0.15,right,23,2020-12-18_10h10.05.997,premup-three_ses-02_part-02_label-phase2,3.2.4,Win32,60,,,,,,,,,,,,,,,,,1,0,330,222,1,329,1,,,,,,
right,0.416000128,1,308,,,,,,,,,,,,,3,5,4,stim/54.jpeg,HouseObjects,2,stim/objects/HouseObjects/doormat3.png,0.9,2,0.2,0.15,right,23,2020-12-18_10h10.05.997,premup-three_ses-02_part-02_label-phase2,3.2.4,Win32,60,,,,,,,,,,,,,,,,,1,0,330,145,1,329,2,,,,,,
left,0.59800005,0,309,,,,,,,,,,,,,2,4,2,stim/42.jpeg,HouseObjects,2,stim/objects/HouseObjects/cushion4.png,0.3,2,0.2,0.15,right,23,2020-12-18_10h10.05.997,premup-three_ses-02_part-02_label-phase2,3.2.4,Win32,60,,,,,,,,,,,,,,,,,1,0,330,128,1,329,1,,,,,,
right,0.531000137,1,310,,,,,,,,,,,,,3,5,3,stim/53.jpeg,HouseObjects,2,stim/objects/HouseObjects/flyswatter3.png,0.9,3,-0.2,-0.15,right,23,2020-12-18_10h10.05.997,premup-three_ses-02_part-02_label-phase2,3.2.4,Win32,60,,,,,,,,,,,,,,,,,1,0,330,152,1,329,2,,,,,,
right,0.441000223,1,311,,,,,,,,,,,,,3,5,3,stim/53.jpeg,HouseObjects,2,stim/objects/HouseObjects/doormat3.png,0.9,2,0.2,0.15,right,23,2020-12-18_10h10.05.997,premup-three_ses-02_part-02_label-phase2,3.2.4,Win32,60,,,,,,,,,,,,,,,,,1,0,330,140,1,329,2,,,,,,
left,0.453000069,1,312,,,,,,,,,,,,,3,6,3,stim/63.jpeg,Instruments,1,stim/objects/Instruments/grandpiano3.png,0.9,3,-0.2,-0.15,left,23,2020-12-18_10h10.05.997,premup-three_ses-02_part-02_label-phase2,3.2.4,Win32,60,,,,,,,,,,,,,,,,,1,0,330,244,1,329,2,,,,,,
right,0.596000195,1,313,,,,,,,,,,,,,3,5,3,stim/53.jpeg,HouseObjects,2,stim/objects/HouseObjects/glass3.png,0.9,3,-0.2,-0.15,right,23,2020-12-18_10h10.05.997,premup-three_ses-02_part-02_label-phase2,3.2.4,Win32,60,,,,,,,,,,,,,,,,,1,0,330,164,1,329,2,,,,,,
left,0.494000196,1,314,,,,,,,,,,,,,3,6,4,stim/64.jpeg,Instruments,1,stim/objects/Instruments/flute3.png,0.9,4,0.2,-0.15,left,23,2020-12-18_10h10.05.997,premup-three_ses-02_part-02_label-phase2,3.2.4,Win32,60,,,,,,,,,,,,,,,,,1,0,330,285,1,329,2,,,,,,
right,0.666000128,1,315,,,,,,,,,,,,,1,1,1,stim/11.jpeg,HouseObjects,2,stim/objects/HouseObjects/handvacuum3.png,0.5,4,0.2,-0.15,right,23,2020-12-18_10h10.05.997,premup-three_ses-02_part-02_label-phase2,3.2.4,Win32,60,,,,,,,,,,,,,,,,,1,0,330,28,1,329,1,,,,,,
right,0.4150002,1,316,,,,,,,,,,,,,2,3,2,stim/32.jpeg,HouseObjects,2,stim/objects/HouseObjects/coffee3.png,0.7,2,0.2,0.15,right,23,2020-12-18_10h10.05.997,premup-three_ses-02_part-02_label-phase2,3.2.4,Win32,60,,,,,,,,,,,,,,,,,1,0,330,77,1,329,2,,,,,,
left,0.573000193,1,317,,,,,,,,,,,,,3,6,4,stim/64.jpeg,Instruments,1,stim/objects/Instruments/flutetrans3.png,0.9,2,0.2,0.15,left,23,2020-12-18_10h10.05.997,premup-three_ses-02_part-02_label-phase2,3.2.4,Win32,60,,,,,,,,,,,,,,,,,1,0,330,241,1,329,2,,,,,,
right,0.485000372,1,318,,,,,,,,,,,,,3,5,3,stim/53.jpeg,HouseObjects,2,stim/objects/HouseObjects/glass3.png,0.9,2,0.2,0.15,right,23,2020-12-18_10h10.05.997,premup-three_ses-02_part-02_label-phase2,3.2.4,Win32,60,,,,,,,,,,,,,,,,,1,0,330,204,1,329,2,,,,,,
left,0.468000174,1,319,,,,,,,,,,,,,3,6,1,stim/61.jpeg,Instruments,1,stim/objects/Instruments/vuvuzela4.png,0.9,4,0.2,-0.15,left,23,2020-12-18_10h10.05.997,premup-three_ses-02_part-02_label-phase2,3.2.4,Win32,60,,,,,,,,,,,,,,,,,1,0,330,318,1,329,1,,,,,,
right,0.609000206,1,320,,,,,,,,,,,,,3,5,4,stim/54.jpeg,HouseObjects,2,stim/objects/HouseObjects/glass3.png,0.9,3,-0.2,-0.15,right,23,2020-12-18_10h10.05.997,premup-three_ses-02_part-02_label-phase2,3.2.4,Win32,60,,,,,,,,,,,,,,,,,1,0,330,189,1,329,2,,,,,,
right,0.554000378,0,321,,,,,,,,,,,,,1,1,3,stim/13.jpeg,Instruments,1,stim/objects/Instruments/guitarcase3.png,0.5,1,-0.2,0.15,left,23,2020-12-18_10h10.05.997,premup-three_ses-02_part-02_label-phase2,3.2.4,Win32,60,,,,,,,,,,,,,,,,,1,0,330,10,1,329,1,,,,,,
left,0.582000256,0,322,,,,,,,,,,,,,3,6,4,stim/64.jpeg,HouseObjects,2,stim/objects/HouseObjects/wateringcan4.png,0.1,2,0.2,0.15,right,23,2020-12-18_10h10.05.997,premup-three_ses-02_part-02_label-phase2,3.2.4,Win32,60,,,,,,,,,,,,,,,,,1,0,330,329,1,329,1,,,,,,
left,0.820000172,1,323,,,,,,,,,,,,,1,2,2,stim/22.jpeg,Instruments,1,stim/objects/Instruments/maraca3.png,0.5,3,-0.2,-0.15,left,23,2020-12-18_10h10.05.997,premup-three_ses-02_part-02_label-phase2,3.2.4,Win32,60,,,,,,,,,,,,,,,,,1,0,330,41,1,329,1,,,,,,
left,0.525000095,1,324,,,,,,,,,,,,,3,6,2,stim/62.jpeg,Instruments,1,stim/objects/Instruments/gong3.png,0.9,1,-0.2,0.15,left,23,2020-12-18_10h10.05.997,premup-three_ses-02_part-02_label-phase2,3.2.4,Win32,60,,,,,,,,,,,,,,,,,1,0,330,303,1,329,2,,,,,,
right,0.430000067,1,325,,,,,,,,,,,,,2,4,3,stim/43.jpeg,HouseObjects,2,stim/objects/HouseObjects/clothesdryingrack4.png,0.3,2,0.2,0.15,right,23,2020-12-18_10h10.05.997,premup-three_ses-02_part-02_label-phase2,3.2.4,Win32,60,,,,,,,,,,,,,,,,,1,0,330,125,1,329,1,,,,,,
left,0.537000179,1,326,,,,,,,,,,,,,3,6,3,stim/63.jpeg,Instruments,1,stim/objects/Instruments/gong3.png,0.9,4,0.2,-0.15,left,23,2020-12-18_10h10.05.997,premup-three_ses-02_part-02_label-phase2,3.2.4,Win32,60,,,,,,,,,,,,,,,,,1,0,330,288,1,329,2,,,,,,
left,0.565000057,1,327,,,,,,,,,,,,,1,2,3,stim/23.jpeg,Instruments,1,stim/objects/Instruments/bassguitar3.png,0.5,4,0.2,-0.15,left,23,2020-12-18_10h10.05.997,premup-three_ses-02_part-02_label-phase2,3.2.4,Win32,60,,,,,,,,,,,,,,,,,1,0,330,30,1,329,2,,,,,,
left,0.752000093,0,328,,,,,,,,,,,,,2,3,1,stim/31.jpeg,HouseObjects,2,stim/objects/HouseObjects/barbecuelighter4.png,0.7,1,-0.2,0.15,right,23,2020-12-18_10h10.05.997,premup-three_ses-02_part-02_label-phase2,3.2.4,Win32,60,,,,,,,,,,,,,,,,,1,0,330,92,1,329,1,,,,,,
left,0.47900033,1,329,,,,,,,,,,,,,3,6,2,stim/62.jpeg,Instruments,1,stim/objects/Instruments/xylophone4.png,0.9,4,0.2,-0.15,left,23,2020-12-18_10h10.05.997,premup-three_ses-02_part-02_label-phase2,3.2.4,Win32,60,,,,,,,,,,,,,,,,,1,0,330,319,1,329,1,,,,,,
right,0.368000031,0,330,,,,,,,,,,,,,3,6,4,stim/64.jpeg,Instruments,1,stim/objects/Instruments/flute3.png,0.9,3,-0.2,-0.15,left,23,2020-12-18_10h10.05.997,premup-three_ses-02_part-02_label-phase2,3.2.4,Win32,60,,,,,,,,,,,,,,,,,1,0,330,265,1,329,2,,,,,,
left,0.437000036,0,331,,,,,,,,,,,,,3,5,4,stim/54.jpeg,HouseObjects,2,stim/objects/HouseObjects/flyswatter3.png,0.9,2,0.2,0.15,right,23,2020-12-18_10h10.05.997,premup-three_ses-02_part-02_label-phase2,3.2.4,Win32,60,,,,,,,,,,,,,,,,,1,0,330,157,1,329,2,,,,,,
right,0.397000074,1,332,,,,,,,,,,,,,3,5,1,stim/51.jpeg,HouseObjects,2,stim/objects/HouseObjects/garbagebin3.png,0.9,4,0.2,-0.15,right,23,2020-12-18_10h10.05.997,premup-three_ses-02_part-02_label-phase2,3.2.4,Win32,60,,,,,,,,,,,,,,,,,1,0,330,218,1,329,2,,,,,,
right,0.481000185,1,333,,,,,,,,,,,,,2,3,2,stim/32.jpeg,HouseObjects,2,stim/objects/HouseObjects/cushion3.png,0.7,1,-0.2,0.15,right,23,2020-12-18_10h10.05.997,premup-three_ses-02_part-02_label-phase2,3.2.4,Win32,60,,,,,,,,,,,,,,,,,1,0,330,73,1,329,2,,,,,,
left,0.632000208,0,334,,,,,,,,,,,,,1,2,2,stim/22.jpeg,HouseObjects,2,stim/objects/HouseObjects/knife3.png,0.5,2,0.2,0.15,right,23,2020-12-18_10h10.05.997,premup-three_ses-02_part-02_label-phase2,3.2.4,Win32,60,,,,,,,,,,,,,,,,,1,0,330,57,1,329,1,,,,,,
left,0.525000095,1,335,,,,,,,,,,,,,1,2,4,stim/24.jpeg,Instruments,1,stim/objects/Instruments/cornet3.png,0.5,3,-0.2,-0.15,left,23,2020-12-18_10h10.05.997,premup-three_ses-02_part-02_label-phase2,3.2.4,Win32,60,,,,,,,,,,,,,,,,,1,0,330,39,1,329,2,,,,,,
right,0.563000202,1,336,,,,,,,,,,,,,3,5,2,stim/52.jpeg,HouseObjects,2,stim/objects/HouseObjects/doormat3.png,0.9,3,-0.2,-0.15,right,23,2020-12-18_10h10.05.997,premup-three_ses-02_part-02_label-phase2,3.2.4,Win32,60,,,,,,,,,,,,,,,,,1,0,330,195,1,329,2,,,,,,
right,0.634000063,1,337,,,,,,,,,,,,,3,5,1,stim/51.jpeg,HouseObjects,2,stim/objects/HouseObjects/doormat3.png,0.9,2,0.2,0.15,right,23,2020-12-18_10h10.05.997,premup-three_ses-02_part-02_label-phase2,3.2.4,Win32,60,,,,,,,,,,,,,,,,,1,0,330,210,1,329,2,,,,,,
right,0.788000345,1,338,,,,,,,,,,,,,3,5,2,stim/52.jpeg,HouseObjects,2,stim/objects/HouseObjects/doormat3.png,0.9,1,-0.2,0.15,right,23,2020-12-18_10h10.05.997,premup-three_ses-02_part-02_label-phase2,3.2.4,Win32,60,,,,,,,,,,,,,,,,,1,0,330,155,1,329,2,,,,,,
left,0.599000216,1,339,,,,,,,,,,,,,3,6,2,stim/62.jpeg,Instruments,1,stim/objects/Instruments/maraca4.png,0.9,4,0.2,-0.15,left,23,2020-12-18_10h10.05.997,premup-three_ses-02_part-02_label-phase2,3.2.4,Win32,60,,,,,,,,,,,,,,,,,1,0,330,311,1,329,1,,,,,,
left,0.447000027,0,340,,,,,,,,,,,,,3,6,3,stim/63.jpeg,HouseObjects,2,stim/objects/HouseObjects/ironingboard4.png,0.1,4,0.2,-0.15,right,23,2020-12-18_10h10.05.997,premup-three_ses-02_part-02_label-phase2,3.2.4,Win32,60,,,,,,,,,,,,,,,,,1,0,330,320,1,329,1,,,,,,
,,0,341,,,,,,,,,,,,,3,5,1,stim/51.jpeg,HouseObjects,2,stim/objects/HouseObjects/garbagebin3.png,0.9,4,0.2,-0.15,right,23,2020-12-18_10h10.05.997,premup-three_ses-02_part-02_label-phase2,3.2.4,Win32,60,,,,,,,,,,,,,,,,,1,0,330,158,1,329,2,,,,,,
right,0.578999996,1,342,,,,,,,,,,,,,2,3,3,stim/33.jpeg,HouseObjects,2,stim/objects/HouseObjects/clothesdryingrack3.png,0.7,4,0.2,-0.15,right,23,2020-12-18_10h10.05.997,premup-three_ses-02_part-02_label-phase2,3.2.4,Win32,60,,,,,,,,,,,,,,,,,1,0,330,70,1,329,2,,,,,,
right,0.829000235,1,343,,,,,,,,,,,,,2,4,3,stim/43.jpeg,HouseObjects,2,stim/objects/HouseObjects/bottle4.png,0.3,3,-0.2,-0.15,right,23,2020-12-18_10h10.05.997,premup-three_ses-02_part-02_label-phase2,3.2.4,Win32,60,,,,,,,,,,,,,,,,,1,0,330,121,1,329,1,,,,,,
,,0,344,,,,,,,,,,,,,3,5,3,stim/53.jpeg,HouseObjects,2,stim/objects/HouseObjects/glass4.png,0.9,4,0.2,-0.15,right,23,2020-12-18_10h10.05.997,premup-three_ses-02_part-02_label-phase2,3.2.4,Win32,60,,,,,,,,,,,,,,,,,1,0,330,224,1,329,1,,,,,,
,,0,345,,,,,,,,,,,,,1,1,4,stim/14.jpeg,HouseObjects,2,stim/objects/HouseObjects/basket3.png,0.5,1,-0.2,0.15,right,23,2020-12-18_10h10.05.997,premup-three_ses-02_part-02_label-phase2,3.2.4,Win32,60,,,,,,,,,,,,,,,,,1,0,330,23,1,329,2,,,,,,
left,0.544000149,1,346,,,,,,,,,,,,,3,6,1,stim/61.jpeg,Instruments,1,stim/objects/Instruments/flute3.png,0.9,2,0.2,0.15,left,23,2020-12-18_10h10.05.997,premup-three_ses-02_part-02_label-phase2,3.2.4,Win32,60,,,,,,,,,,,,,,,,,1,0,330,290,1,329,2,,,,,,
left,0.446000338,1,347,,,,,,,,,,,,,3,6,1,stim/61.jpeg,Instruments,1,stim/objects/Instruments/flute3.png,0.9,1,-0.2,0.15,left,23,2020-12-18_10h10.05.997,premup-three_ses-02_part-02_label-phase2,3.2.4,Win32,60,,,,,,,,,,,,,,,,,1,0,330,250,1,329,2,,,,,,
right,0.582999945,0,348,,,,,,,,,,,,,3,6,2,stim/62.jpeg,Instruments,1,stim/objects/Instruments/grandpiano3.png,0.9,3,-0.2,-0.15,left,23,2020-12-18_10h10.05.997,premup-three_ses-02_part-02_label-phase2,3.2.4,Win32,60,,,,,,,,,,,,,,,,,1,0,330,259,1,329,2,,,,,,
right,0.643000364,1,349,,,,,,,,,,,,,3,5,1,stim/51.jpeg,HouseObjects,2,stim/objects/HouseObjects/garbagebin3.png,0.9,1,-0.2,0.15,right,23,2020-12-18_10h10.05.997,premup-three_ses-02_part-02_label-phase2,3.2.4,Win32,60,,,,,,,,,,,,,,,,,1,0,330,198,1,329,2,,,,,,
left,0.543000221,1,350,,,,,,,,,,,,,3,6,3,stim/63.jpeg,Instruments,1,stim/objects/Instruments/gong3.png,0.9,3,-0.2,-0.15,left,23,2020-12-18_10h10.05.997,premup-three_ses-02_part-02_label-phase2,3.2.4,Win32,60,,,,,,,,,,,,,,,,,1,0,330,268,1,329,2,,,,,,
left,0.67200017,1,351,,,,,,,,,,,,,2,3,2,stim/32.jpeg,Instruments,1,stim/objects/Instruments/bassdrum4.png,0.3,3,-0.2,-0.15,left,23,2020-12-18_10h10.05.997,premup-three_ses-02_part-02_label-phase2,3.2.4,Win32,60,,,,,,,,,,,,,,,,,1,0,330,69,1,329,1,,,,,,
right,0.37100029,0,352,,,,,,,,,,,,,1,1,3,stim/13.jpeg,Instruments,1,stim/objects/Instruments/keyboard3.png,0.5,2,0.2,0.15,left,23,2020-12-18_10h10.05.997,premup-three_ses-02_part-02_label-phase2,3.2.4,Win32,60,,,,,,,,,,,,,,,,,1,0,330,14,1,329,1,,,,,,
right,0.31400013,0,353,,,,,,,,,,,,,1,1,1,stim/11.jpeg,Instruments,1,stim/objects/Instruments/accordion3.png,0.5,4,0.2,-0.15,left,23,2020-12-18_10h10.05.997,premup-three_ses-02_part-02_label-phase2,3.2.4,Win32,60,,,,,,,,,,,,,,,,,1,0,330,0,1,329,2,,,,,,
right,0.674000263,1,354,,,,,,,,,,,,,2,4,4,stim/44.jpeg,HouseObjects,2,stim/objects/HouseObjects/clothespin4.png,0.3,4,0.2,-0.15,right,23,2020-12-18_10h10.05.997,premup-three_ses-02_part-02_label-phase2,3.2.4,Win32,60,,,,,,,,,,,,,,,,,1,0,330,126,1,329,1,,,,,,
left,0.585000038,1,355,,,,,,,,,,,,,3,6,3,stim/63.jpeg,Instruments,1,stim/objects/Instruments/flutetrans3.png,0.9,3,-0.2,-0.15,left,23,2020-12-18_10h10.05.997,premup-three_ses-02_part-02_label-phase2,3.2.4,Win32,60,,,,,,,,,,,,,,,,,1,0,330,296,1,329,2,,,,,,
right,0.385000229,1,356,,,,,,,,,,,,,3,5,2,stim/52.jpeg,HouseObjects,2,stim/objects/HouseObjects/flyswatter3.png,0.9,1,-0.2,0.15,right,23,2020-12-18_10h10.05.997,premup-three_ses-02_part-02_label-phase2,3.2.4,Win32,60,,,,,,,,,,,,,,,,,1,0,330,207,1,329,2,,,,,,
right,0.394000053,0,357,,,,,,,,,,,,,2,4,3,stim/43.jpeg,Instruments,1,stim/objects/Instruments/clarinet4.png,0.7,3,-0.2,-0.15,left,23,2020-12-18_10h10.05.997,premup-three_ses-02_part-02_label-phase2,3.2.4,Win32,60,,,,,,,,,,,,,,,,,1,0,330,113,1,329,1,,,,,,
left,0.609000206,1,358,,,,,,,,,,,,,1,2,4,stim/24.jpeg,Instruments,1,stim/objects/Instruments/metronome3.png,0.5,2,0.2,0.15,left,23,2020-12-18_10h10.05.997,premup-three_ses-02_part-02_label-phase2,3.2.4,Win32,60,,,,,,,,,,,,,,,,,1,0,330,43,1,329,1,,,,,,
right,0.629000187,1,359,,,,,,,,,,,,,2,3,1,stim/31.jpeg,HouseObjects,2,stim/objects/HouseObjects/vacuumcleaner3.png,0.7,3,-0.2,-0.15,right,23,2020-12-18_10h10.05.997,premup-three_ses-02_part-02_label-phase2,3.2.4,Win32,60,,,,,,,,,,,,,,,,,1,0,330,88,1,329,1,,,,,,
left,0.75999999,1,360,,,,,,,,,,,,,3,6,1,stim/61.jpeg,Instruments,1,stim/objects/Instruments/flutetrans3.png,0.9,3,-0.2,-0.15,left,23,2020-12-18_10h10.05.997,premup-three_ses-02_part-02_label-phase2,3.2.4,Win32,60,,,,,,,,,,,,,,,,,1,0,330,306,1,329,2,,,,,,
right,0.57400012,1,361,,,,,,,,,,,,,3,5,2,stim/52.jpeg,HouseObjects,2,stim/objects/HouseObjects/dustpan3.png,0.9,3,-0.2,-0.15,right,23,2020-12-18_10h10.05.997,premup-three_ses-02_part-02_label-phase2,3.2.4,Win32,60,,,,,,,,,,,,,,,,,1,0,330,151,1,329,2,,,,,,
left,0.559000015,1,362,,,,,,,,,,,,,3,6,1,stim/61.jpeg,Instruments,1,stim/objects/Instruments/flutetrans3.png,0.9,3,-0.2,-0.15,left,23,2020-12-18_10h10.05.997,premup-three_ses-02_part-02_label-phase2,3.2.4,Win32,60,,,,,,,,,,,,,,,,,1,0,330,286,1,329,2,,,,,,
,,0,363,,,,,,,,,,,,,2,4,2,stim/42.jpeg,Instruments,1,stim/objects/Instruments/electricdrumset3.png,0.7,3,-0.2,-0.15,left,23,2020-12-18_10h10.05.997,premup-three_ses-02_part-02_label-phase2,3.2.4,Win32,60,,,,,,,,,,,,,,,,,1,0,330,108,1,329,2,,,,,,
left,0.520000219,1,364,,,,,,,,,,,,,3,6,2,stim/62.jpeg,Instruments,1,stim/objects/Instruments/flutetrans3.png,0.9,4,0.2,-0.15,left,23,2020-12-18_10h10.05.997,premup-three_ses-02_part-02_label-phase2,3.2.4,Win32,60,,,,,,,,,,,,,,,,,1,0,330,291,1,329,2,,,,,,
left,0.535000086,1,365,,,,,,,,,,,,,1,2,4,stim/24.jpeg,Instruments,1,stim/objects/Instruments/bassguitar3.png,0.5,2,0.2,0.15,left,23,2020-12-18_10h10.05.997,premup-three_ses-02_part-02_label-phase2,3.2.4,Win32,60,,,,,,,,,,,,,,,,,1,0,330,35,1,329,2,,,,,,
left,0.465000153,1,366,,,,,,,,,,,,,3,6,4,stim/64.jpeg,Instruments,1,stim/objects/Instruments/gong3.png,0.9,1,-0.2,0.15,left,23,2020-12-18_10h10.05.997,premup-three_ses-02_part-02_label-phase2,3.2.4,Win32,60,,,,,,,,,,,,,,,,,1,0,330,273,1,329,2,,,,,,
left,0.552000046,1,367,,,,,,,,,,,,,3,6,4,stim/64.jpeg,Instruments,1,stim/objects/Instruments/flutetrans3.png,0.9,1,-0.2,0.15,left,23,2020-12-18_10h10.05.997,premup-three_ses-02_part-02_label-phase2,3.2.4,Win32,60,,,,,,,,,,,,,,,,,1,0,330,301,1,329,2,,,,,,
right,0.567000151,1,368,,,,,,,,,,,,,3,5,1,stim/51.jpeg,HouseObjects,2,stim/objects/HouseObjects/glass3.png,0.9,3,-0.2,-0.15,right,23,2020-12-18_10h10.05.997,premup-three_ses-02_part-02_label-phase2,3.2.4,Win32,60,,,,,,,,,,,,,,,,,1,0,330,214,1,329,2,,,,,,
right,0.440000296,1,369,,,,,,,,,,,,,2,3,4,stim/34.jpeg,HouseObjects,2,stim/objects/HouseObjects/dishsoap3.png,0.7,4,0.2,-0.15,right,23,2020-12-18_10h10.05.997,premup-three_ses-02_part-02_label-phase2,3.2.4,Win32,60,,,,,,,,,,,,,,,,,1,0,330,79,1,329,2,,,,,,
left,0.687000036,1,370,,,,,,,,,,,,,3,6,2,stim/62.jpeg,Instruments,1,stim/objects/Instruments/flutetrans3.png,0.9,2,0.2,0.15,left,23,2020-12-18_10h10.05.997,premup-three_ses-02_part-02_label-phase2,3.2.4,Win32,60,,,,,,,,,,,,,,,,,1,0,330,271,1,329,2,,,,,,
left,0.427000046,1,371,,,,,,,,,,,,,2,4,1,stim/41.jpeg,Instruments,1,stim/objects/Instruments/drums3.png,0.7,3,-0.2,-0.15,left,23,2020-12-18_10h10.05.997,premup-three_ses-02_part-02_label-phase2,3.2.4,Win32,60,,,,,,,,,,,,,,,,,1,0,330,107,1,329,2,,,,,,
left,0.725000143,0,372,,,,,,,,,,,,,2,3,3,stim/33.jpeg,HouseObjects,2,stim/objects/HouseObjects/ashtray4.png,0.7,1,-0.2,0.15,right,23,2020-12-18_10h10.05.997,premup-three_ses-02_part-02_label-phase2,3.2.4,Win32,60,,,,,,,,,,,,,,,,,1,0,330,90,1,329,1,,,,,,
left,0.635000229,1,373,,,,,,,,,,,,,2,4,1,stim/41.jpeg,Instruments,1,stim/objects/Instruments/cymbal3.png,0.7,3,-0.2,-0.15,left,23,2020-12-18_10h10.05.997,premup-three_ses-02_part-02_label-phase2,3.2.4,Win32,60,,,,,,,,,,,,,,,,,1,0,330,95,1,329,2,,,,,,
left,0.438000202,1,374,,,,,,,,,,,,,3,5,3,stim/53.jpeg,Instruments,1,stim/objects/Instruments/frenchhorn4.png,0.1,4,0.2,-0.15,left,23,2020-12-18_10h10.05.997,premup-three_ses-02_part-02_label-phase2,3.2.4,Win32,60,,,,,,,,,,,,,,,,,1,0,330,132,1,329,1,,,,,,
right,0.412000179,0,375,,,,,,,,,,,,,2,3,2,stim/32.jpeg,Instruments,1,stim/objects/Instruments/oboe3.png,0.3,4,0.2,-0.15,left,23,2020-12-18_10h10.05.997,premup-three_ses-02_part-02_label-phase2,3.2.4,Win32,60,,,,,,,,,,,,,,,,,1,0,330,61,1,329,1,,,,,,
left,0.394999981,0,376,,,,,,,,,,,,,1,1,3,stim/13.jpeg,HouseObjects,2,stim/objects/HouseObjects/barbecuelighter3.png,0.5,3,-0.2,-0.15,right,23,2020-12-18_10h10.05.997,premup-three_ses-02_part-02_label-phase2,3.2.4,Win32,60,,,,,,,,,,,,,,,,,1,0,330,22,1,329,2,,,,,,
right,0.376000166,0,377,,,,,,,,,,,,,2,3,1,stim/31.jpeg,Instruments,1,stim/objects/Instruments/musicstand3.png,0.3,2,0.2,0.15,left,23,2020-12-18_10h10.05.997,premup-three_ses-02_part-02_label-phase2,3.2.4,Win32,60,,,,,,,,,,,,,,,,,1,0,330,60,1,329,1,,,,,,
right,0.409000158,1,378,,,,,,,,,,,,,1,1,2,stim/12.jpeg,HouseObjects,2,stim/objects/HouseObjects/iron3.png,0.5,2,0.2,0.15,right,23,2020-12-18_10h10.05.997,premup-three_ses-02_part-02_label-phase2,3.2.4,Win32,60,,,,,,,,,,,,,,,,,1,0,330,29,1,329,1,,,,,,
right,0.390000343,1,379,,,,,,,,,,,,,3,5,4,stim/54.jpeg,HouseObjects,2,stim/objects/HouseObjects/doormat3.png,0.9,2,0.2,0.15,right,23,2020-12-18_10h10.05.997,premup-three_ses-02_part-02_label-phase2,3.2.4,Win32,60,,,,,,,,,,,,,,,,,1,0,330,205,1,329,2,,,,,,
left,0.611000299,1,380,,,,,,,,,,,,,1,1,1,stim/11.jpeg,Instruments,1,stim/objects/Instruments/bassdrum3.png,0.5,3,-0.2,-0.15,left,23,2020-12-18_10h10.05.997,premup-three_ses-02_part-02_label-phase2,3.2.4,Win32,60,,,,,,,,,,,,,,,,,1,0,330,4,1,329,2,,,,,,
left,0.554000139,1,381,,,,,,,,,,,,,3,6,1,stim/61.jpeg,Instruments,1,stim/objects/Instruments/frenchhorn3.png,0.9,1,-0.2,0.15,left,23,2020-12-18_10h10.05.997,premup-three_ses-02_part-02_label-phase2,3.2.4,Win32,60,,,,,,,,,,,,,,,,,1,0,330,282,1,329,2,,,,,,
