id_acc,key_resp_id.keys,key_resp_id.rt,key_resp_conf.keys,key_resp_conf.rt,assoc_acc,key_resp_assoc.keys,key_resp_assoc.rt,loc_acc,key_resp_loc.keys,key_resp_loc.rt,task_innerloop.thisRepN,task_innerloop.thisTrialN,task_innerloop.thisN,task_innerloop.thisIndex,task_innerloop.ran,task_innerloop.order,context_type,object_cat,PE_level,OvsN,obj_file,scn_file,corr_scn_cat,assoc_file,corr_scn_inst,corr_loc,participant,date,expName,psychopyVersion,OS,frameRate
1,right,1.187999964,,,0,,,0,,,1,0,200,102,1,199,0,1,0,2,stim/objects/HouseObjects/dishsoap3.png,,0,stim/0.png,0,0,25,2020-12-10_12h15.20.379,premup-three_ses-02_part-03_label-phase3,3.2.4,Win32,60
1,right,1.142999887,,,0,,,0,,,1,0,200,152,1,199,0,2,0,2,stim/objects/Instruments/record3.png,,0,stim/0.png,0,0,25,2020-12-10_12h15.20.379,premup-three_ses-02_part-03_label-phase3,3.2.4,Win32,60
1,left,1.384000063,,,0,,,0,,,1,0,200,184,1,199,0,1,0,2,stim/objects/HouseObjects/hairdryer4.png,,0,stim/0.png,0,0,25,2020-12-10_12h15.20.379,premup-three_ses-02_part-03_label-phase3,3.2.4,Win32,60
1,right,1.191999912,2,5.011999846,0,2,3.122999907,0,2,1.42599988,1,0,200,37,1,199,2,2,0.7,1,stim/objects/Instruments/electricguitar2.png,stim/31.jpeg,3,stim/3.png,1,1,25,2020-12-10_12h15.20.379,premup-three_ses-02_part-03_label-phase3,3.2.4,Win32,60
1,left,1.710999727,4,1.069999933,0,4,4.82799983,0,1,0.661999941,1,0,200,4,1,199,1,1,0.5,1,stim/objects/HouseObjects/safetypin.png,stim/13.jpeg,1,stim/1.png,3,1,25,2020-12-10_12h15.20.379,premup-three_ses-02_part-03_label-phase3,3.2.4,Win32,60
1,right,2.378000021,,,0,,,0,,,1,0,200,173,1,199,0,2,0,2,stim/objects/Instruments/vuvuzela3.png,,0,stim/0.png,0,0,25,2020-12-10_12h15.20.379,premup-three_ses-02_part-03_label-phase3,3.2.4,Win32,60
1,right,1.822999954,2,1.339999914,0,2,3.532999992,0,3,1.230000019,1,0,200,53,1,199,2,2,0.3,1,stim/objects/Instruments/guitarcase2.png,stim/41.jpeg,4,stim/4.png,1,4,25,2020-12-10_12h15.20.379,premup-three_ses-02_part-03_label-phase3,3.2.4,Win32,60
1,right,1.536999941,,,0,,,0,,,1,0,200,121,1,199,0,1,0,2,stim/objects/HouseObjects/handvacuum3.png,,0,stim/0.png,0,0,25,2020-12-10_12h15.20.379,premup-three_ses-02_part-03_label-phase3,3.2.4,Win32,60
1,left,1.014999866,,,0,,,0,,,1,0,200,190,1,199,0,2,0,2,stim/objects/Instruments/frenchhorn4.png,,0,stim/0.png,0,0,25,2020-12-10_12h15.20.379,premup-three_ses-02_part-03_label-phase3,3.2.4,Win32,60
1,left,1.194000006,2,2.027999878,0,3,2.171999931,0,2,1.157000065,1,0,200,80,1,199,3,1,0.9,1,stim/objects/HouseObjects/saw2.png,stim/61.jpeg,6,stim/6.png,1,1,25,2020-12-10_12h15.20.379,premup-three_ses-02_part-03_label-phase3,3.2.4,Win32,60
1,right,1.296999931,,,0,,,0,,,1,0,200,140,1,199,0,1,0,2,stim/objects/HouseObjects/recyclingbin3.png,,0,stim/0.png,0,0,25,2020-12-10_12h15.20.379,premup-three_ses-02_part-03_label-phase3,3.2.4,Win32,60
1,left,1.002000093,3,0.999999762,0,4,2.389999866,0,2,1.212999821,1,0,200,16,1,199,1,2,0.5,1,stim/objects/Instruments/tambourine.png,stim/21.jpeg,2,stim/2.png,1,2,25,2020-12-10_12h15.20.379,premup-three_ses-02_part-03_label-phase3,3.2.4,Win32,60
1,left,1.360999823,3,1.45299983,0,1,1.028999805,0,3,1.648999929,1,0,200,15,1,199,1,2,0.5,1,stim/objects/Instruments/speaker.png,stim/24.jpeg,2,stim/2.png,4,1,25,2020-12-10_12h15.20.379,premup-three_ses-02_part-03_label-phase3,3.2.4,Win32,60
1,right,2.487999916,,,0,,,0,,,1,0,200,103,1,199,0,1,0,2,stim/objects/HouseObjects/doormat3.png,,0,stim/0.png,0,0,25,2020-12-10_12h15.20.379,premup-three_ses-02_part-03_label-phase3,3.2.4,Win32,60
1,left,0.756999969,4,0.971999884,0,3,5.638999939,0,1,0.888999939,1,0,200,35,1,199,2,2,0.7,1,stim/objects/Instruments/drums2.png,stim/33.jpeg,3,stim/3.png,3,1,25,2020-12-10_12h15.20.379,premup-three_ses-02_part-03_label-phase3,3.2.4,Win32,60
1,left,2.663000107,3,1.081999779,0,4,3.805999994,0,4,0.91899991,1,0,200,79,1,199,3,2,0.9,1,stim/objects/Instruments/saxophone2.png,stim/54.jpeg,5,stim/5.png,4,1,25,2020-12-10_12h15.20.379,premup-three_ses-02_part-03_label-phase3,3.2.4,Win32,60
1,right,1.082000017,,,0,,,0,,,1,0,200,136,1,199,0,2,0,2,stim/objects/Instruments/metronome3.png,,0,stim/0.png,0,0,25,2020-12-10_12h15.20.379,premup-three_ses-02_part-03_label-phase3,3.2.4,Win32,60
1,left,1.013000011,,,0,,,0,,,1,0,200,147,1,199,0,1,0,2,stim/objects/HouseObjects/sponge3.png,,0,stim/0.png,0,0,25,2020-12-10_12h15.20.379,premup-three_ses-02_part-03_label-phase3,3.2.4,Win32,60
1,left,0.948999882,4,0.809999943,0,2,5.243000031,0,4,0.556999922,1,0,200,54,1,199,2,2,0.3,1,stim/objects/Instruments/harmonica2.png,stim/42.jpeg,4,stim/4.png,2,2,25,2020-12-10_12h15.20.379,premup-three_ses-02_part-03_label-phase3,3.2.4,Win32,60
1,left,1.008999825,2,0.862999916,0,1,1.501999855,0,1,1.467999935,1,0,200,7,1,199,1,1,0.5,1,stim/objects/Instruments/record.png,stim/14.jpeg,1,stim/1.png,4,1,25,2020-12-10_12h15.20.379,premup-three_ses-02_part-03_label-phase3,3.2.4,Win32,60
1,left,1.069999933,4,1.087000132,0,4,1.677999973,0,2,1.046999931,1,0,200,44,1,199,2,1,0.7,1,stim/objects/HouseObjects/hairdryer2.png,stim/44.jpeg,4,stim/4.png,4,3,25,2020-12-10_12h15.20.379,premup-three_ses-02_part-03_label-phase3,3.2.4,Win32,60
1,right,0.823999882,,,0,,,0,,,1,0,200,161,1,199,0,1,0,2,stim/objects/HouseObjects/thread3.png,,0,stim/0.png,0,0,25,2020-12-10_12h15.20.379,premup-three_ses-02_part-03_label-phase3,3.2.4,Win32,60
1,left,0.95600009,4,0.901000023,0,4,3.979000092,0,2,0.976000071,1,0,200,57,1,199,2,2,0.3,1,stim/objects/Instruments/keyboard2.png,stim/41.jpeg,4,stim/4.png,1,4,25,2020-12-10_12h15.20.379,premup-three_ses-02_part-03_label-phase3,3.2.4,Win32,60
1,left,0.84499979,4,0.853999853,0,2,1.564999819,0,3,1.271999836,1,0,200,73,1,199,3,2,0.9,1,stim/objects/Instruments/musicstand2.png,stim/52.jpeg,5,stim/5.png,2,4,25,2020-12-10_12h15.20.379,premup-three_ses-02_part-03_label-phase3,3.2.4,Win32,60
1,left,0.963999987,3,0.86500001,0,4,1.671000004,0,2,1.145999908,1,0,200,48,1,199,2,1,0.7,1,stim/objects/HouseObjects/ironingboard2.png,stim/44.jpeg,4,stim/4.png,4,1,25,2020-12-10_12h15.20.379,premup-three_ses-02_part-03_label-phase3,3.2.4,Win32,60
1,right,1.311999798,2,1.35800004,0,1,2.359999895,0,3,1.910999775,1,0,200,94,1,199,3,2,0.1,1,stim/objects/Instruments/trombone2.png,stim/63.jpeg,6,stim/6.png,3,4,25,2020-12-10_12h15.20.379,premup-three_ses-02_part-03_label-phase3,3.2.4,Win32,60
1,left,1.605999947,,,0,,,0,,,1,0,200,180,1,199,0,1,0,2,stim/objects/HouseObjects/flyswatter4.png,,0,stim/0.png,0,0,25,2020-12-10_12h15.20.379,premup-three_ses-02_part-03_label-phase3,3.2.4,Win32,60
1,left,1.06799984,2,1.349999905,0,1,2.561999798,0,1,0.471999884,1,0,200,20,1,199,2,1,0.3,1,stim/objects/HouseObjects/thermometer.png,stim/31.jpeg,3,stim/3.png,1,1,25,2020-12-10_12h15.20.379,premup-three_ses-02_part-03_label-phase3,3.2.4,Win32,60
1,right,1.15199995,,,0,,,0,,,1,0,200,107,1,199,0,1,0,2,stim/objects/HouseObjects/glass3.png,,0,stim/0.png,0,0,25,2020-12-10_12h15.20.379,premup-three_ses-02_part-03_label-phase3,3.2.4,Win32,60
1,right,0.855999947,,,0,,,0,,,1,0,200,181,1,199,0,1,0,2,stim/objects/HouseObjects/garbagebin4.png,,0,stim/0.png,0,0,25,2020-12-10_12h15.20.379,premup-three_ses-02_part-03_label-phase3,3.2.4,Win32,60
1,left,0.914999962,4,0.789999962,0,2,3.641000032,0,2,2.106999874,1,0,200,84,1,199,3,1,0.9,1,stim/objects/HouseObjects/teapot2.png,stim/61.jpeg,6,stim/6.png,1,1,25,2020-12-10_12h15.20.379,premup-three_ses-02_part-03_label-phase3,3.2.4,Win32,60
1,right,0.977999926,,,0,,,0,,,1,0,200,183,1,199,0,1,0,2,stim/objects/HouseObjects/glassmop4.png,,0,stim/0.png,0,0,25,2020-12-10_12h15.20.379,premup-three_ses-02_part-03_label-phase3,3.2.4,Win32,60
1,right,0.888999939,,,0,,,0,,,1,0,200,177,1,199,0,2,0,2,stim/objects/Instruments/electricguitar4.png,,0,stim/0.png,0,0,25,2020-12-10_12h15.20.379,premup-three_ses-02_part-03_label-phase3,3.2.4,Win32,60
1,left,0.804999828,4,0.801999807,0,3,3.850999832,0,2,1.931999922,1,0,200,43,1,199,2,1,0.7,1,stim/objects/HouseObjects/glassmop2.png,stim/43.jpeg,4,stim/4.png,3,3,25,2020-12-10_12h15.20.379,premup-three_ses-02_part-03_label-phase3,3.2.4,Win32,60
1,left,1.138999939,,,0,,,0,,,1,0,200,134,1,199,0,2,0,2,stim/objects/Instruments/maraca3.png,,0,stim/0.png,0,0,25,2020-12-10_12h15.20.379,premup-three_ses-02_part-03_label-phase3,3.2.4,Win32,60
1,right,1.029000044,,,0,,,0,,,1,0,200,120,1,199,0,1,0,2,stim/objects/HouseObjects/handbrush3.png,,0,stim/0.png,0,0,25,2020-12-10_12h15.20.379,premup-three_ses-02_part-03_label-phase3,3.2.4,Win32,60
1,left,0.818999767,,,0,,,0,,,1,0,200,133,1,199,0,2,0,2,stim/objects/Instruments/laud3.png,,0,stim/0.png,0,0,25,2020-12-10_12h15.20.379,premup-three_ses-02_part-03_label-phase3,3.2.4,Win32,60
1,left,0.776000023,4,1.214999914,0,1,5.592999935,0,3,1.819000006,1,0,200,72,1,199,3,2,0.9,1,stim/objects/Instruments/musicsheet2.png,stim/51.jpeg,5,stim/5.png,1,3,25,2020-12-10_12h15.20.379,premup-three_ses-02_part-03_label-phase3,3.2.4,Win32,60
1,right,1.110999823,,,0,,,0,,,1,0,200,185,1,199,0,1,0,2,stim/objects/HouseObjects/handbrush4.png,,0,stim/0.png,0,0,25,2020-12-10_12h15.20.379,premup-three_ses-02_part-03_label-phase3,3.2.4,Win32,60
1,right,1.213999987,,,0,,,0,,,1,0,200,125,1,199,0,1,0,2,stim/objects/HouseObjects/knife3.png,,0,stim/0.png,0,0,25,2020-12-10_12h15.20.379,premup-three_ses-02_part-03_label-phase3,3.2.4,Win32,60
1,left,0.781999826,3,1.013000011,0,2,1.279999971,0,2,1.041000128,1,0,200,50,1,199,2,2,0.3,1,stim/objects/Instruments/frenchhorn2.png,stim/42.jpeg,4,stim/4.png,2,1,25,2020-12-10_12h15.20.379,premup-three_ses-02_part-03_label-phase3,3.2.4,Win32,60
1,left,0.951999903,2,1.006999969,0,3,1.03399992,0,3,1.129999876,1,0,200,78,1,199,3,2,0.9,1,stim/objects/Instruments/record_player2.png,stim/53.jpeg,5,stim/5.png,3,2,25,2020-12-10_12h15.20.379,premup-three_ses-02_part-03_label-phase3,3.2.4,Win32,60
1,right,1.128999949,,,0,,,0,,,1,0,200,187,1,199,0,1,0,2,stim/objects/HouseObjects/iron4.png,,0,stim/0.png,0,0,25,2020-12-10_12h15.20.379,premup-three_ses-02_part-03_label-phase3,3.2.4,Win32,60
1,left,0.855999947,4,1.299999952,0,4,6.993999958,0,2,0.885999918,1,0,200,6,1,199,1,1,0.5,1,stim/objects/Instruments/pipepiano.png,stim/13.jpeg,1,stim/1.png,3,2,25,2020-12-10_12h15.20.379,premup-three_ses-02_part-03_label-phase3,3.2.4,Win32,60
1,left,1.062999725,2,0.847999811,0,3,0.838999987,0,2,0.85800004,1,0,200,3,1,199,1,1,0.5,1,stim/objects/HouseObjects/rug.png,stim/12.jpeg,1,stim/1.png,2,2,25,2020-12-10_12h15.20.379,premup-three_ses-02_part-03_label-phase3,3.2.4,Win32,60
1,right,0.954999924,,,0,,,0,,,1,0,200,179,1,199,0,2,0,2,stim/objects/Instruments/flutetrans4.png,,0,stim/0.png,0,0,25,2020-12-10_12h15.20.379,premup-three_ses-02_part-03_label-phase3,3.2.4,Win32,60
1,right,0.676000118,,,0,,,0,,,1,0,200,108,1,199,0,1,0,2,stim/objects/HouseObjects/glassmop3.png,,0,stim/0.png,0,0,25,2020-12-10_12h15.20.379,premup-three_ses-02_part-03_label-phase3,3.2.4,Win32,60
1,left,0.622999907,3,0.764999866,0,2,1.264999866,0,3,1.180999756,1,0,200,24,1,199,2,1,0.3,1,stim/objects/HouseObjects/wateringcan.png,stim/31.jpeg,3,stim/3.png,1,1,25,2020-12-10_12h15.20.379,premup-three_ses-02_part-03_label-phase3,3.2.4,Win32,60
1,right,0.894999981,1,1.652999878,0,1,0.676000118,0,3,1.476999998,1,0,200,23,1,199,2,1,0.3,1,stim/objects/HouseObjects/vacuumcleaner.png,stim/34.jpeg,3,stim/3.png,4,3,25,2020-12-10_12h15.20.379,premup-three_ses-02_part-03_label-phase3,3.2.4,Win32,60
1,left,1.068000078,4,1.462999821,0,4,3.069999933,0,2,0.926999807,1,0,200,55,1,199,2,2,0.3,1,stim/objects/Instruments/harp2.png,stim/43.jpeg,4,stim/4.png,3,4,25,2020-12-10_12h15.20.379,premup-three_ses-02_part-03_label-phase3,3.2.4,Win32,60
1,left,1.118999958,,,0,,,0,,,1,0,200,158,1,199,0,2,0,2,stim/objects/Instruments/triangle3.png,,0,stim/0.png,0,0,25,2020-12-10_12h15.20.379,premup-three_ses-02_part-03_label-phase3,3.2.4,Win32,60
1,right,0.750999928,,,0,,,0,,,1,0,200,145,1,199,0,1,0,2,stim/objects/HouseObjects/saw3.png,,0,stim/0.png,0,0,25,2020-12-10_12h15.20.379,premup-three_ses-02_part-03_label-phase3,3.2.4,Win32,60
1,left,0.614999771,,,0,,,0,,,1,0,200,171,1,199,0,2,0,2,stim/objects/Instruments/tuba3.png,,0,stim/0.png,0,0,25,2020-12-10_12h15.20.379,premup-three_ses-02_part-03_label-phase3,3.2.4,Win32,60
1,left,0.799999952,3,1.092999935,0,4,3.476999998,0,3,0.926000118,1,0,200,98,1,199,3,2,0.1,1,stim/objects/Instruments/vuvuzela2.png,stim/63.jpeg,6,stim/6.png,3,2,25,2020-12-10_12h15.20.379,premup-three_ses-02_part-03_label-phase3,3.2.4,Win32,60
1,left,1.073999882,,,0,,,0,,,1,0,200,127,1,199,0,1,0,2,stim/objects/HouseObjects/match3.png,,0,stim/0.png,0,0,25,2020-12-10_12h15.20.379,premup-three_ses-02_part-03_label-phase3,3.2.4,Win32,60
1,right,0.707999945,2,1.003999949,0,4,1.503000021,0,2,1.14199996,1,0,200,89,1,199,3,1,0.9,1,stim/objects/HouseObjects/wateringcan2.png,stim/62.jpeg,6,stim/6.png,2,4,25,2020-12-10_12h15.20.379,premup-three_ses-02_part-03_label-phase3,3.2.4,Win32,60
1,right,0.964999914,,,0,,,0,,,1,0,200,174,1,199,0,2,0,2,stim/objects/Instruments/xylophone3.png,,0,stim/0.png,0,0,25,2020-12-10_12h15.20.379,premup-three_ses-02_part-03_label-phase3,3.2.4,Win32,60
1,right,0.715999842,,,0,,,0,,,1,0,200,143,1,199,0,1,0,2,stim/objects/HouseObjects/rug3.png,,0,stim/0.png,0,0,25,2020-12-10_12h15.20.379,premup-three_ses-02_part-03_label-phase3,3.2.4,Win32,60
1,left,0.687999964,4,1.024999857,0,4,4.042999983,0,2,4.875,1,0,200,18,1,199,1,2,0.5,1,stim/objects/Instruments/triangle.png,stim/23.jpeg,2,stim/2.png,3,2,25,2020-12-10_12h15.20.379,premup-three_ses-02_part-03_label-phase3,3.2.4,Win32,60
1,left,0.971999884,4,1.247999907,0,1,3.304999828,0,4,0.853999853,1,0,200,30,1,199,2,2,0.7,1,stim/objects/Instruments/trumpet.png,stim/32.jpeg,3,stim/3.png,2,2,25,2020-12-10_12h15.20.379,premup-three_ses-02_part-03_label-phase3,3.2.4,Win32,60
1,right,0.934999943,,,0,,,0,,,1,0,200,151,1,199,0,2,0,2,stim/objects/Instruments/pipepiano3.png,,0,stim/0.png,0,0,25,2020-12-10_12h15.20.379,premup-three_ses-02_part-03_label-phase3,3.2.4,Win32,60
1,left,0.947000027,4,0.681999922,0,4,4.088999987,0,1,0.887000084,1,0,200,65,1,199,3,1,0.1,1,stim/objects/HouseObjects/recyclingbin2.png,stim/52.jpeg,5,stim/5.png,2,3,25,2020-12-10_12h15.20.379,premup-three_ses-02_part-03_label-phase3,3.2.4,Win32,60
1,right,0.898000002,,,0,,,0,,,1,0,200,150,1,199,0,2,0,2,stim/objects/Instruments/panflute3.png,,0,stim/0.png,0,0,25,2020-12-10_12h15.20.379,premup-three_ses-02_part-03_label-phase3,3.2.4,Win32,60
1,left,0.882999897,4,0.69299984,0,2,2.051999807,0,1,0.969000101,1,0,200,49,1,199,2,1,0.7,1,stim/objects/HouseObjects/key2.png,stim/41.jpeg,4,stim/4.png,1,1,25,2020-12-10_12h15.20.379,premup-three_ses-02_part-03_label-phase3,3.2.4,Win32,60
1,right,1.177999973,,,0,,,0,,,1,0,200,112,1,199,0,2,0,2,stim/objects/Instruments/electricguitar3.png,,0,stim/0.png,0,0,25,2020-12-10_12h15.20.379,premup-three_ses-02_part-03_label-phase3,3.2.4,Win32,60
1,right,0.872999907,,,0,,,0,,,1,0,200,167,1,199,0,1,0,2,stim/objects/HouseObjects/dishsoap4.png,,0,stim/0.png,0,0,25,2020-12-10_12h15.20.379,premup-three_ses-02_part-03_label-phase3,3.2.4,Win32,60
1,right,0.732999802,2,1.044999838,0,3,1.045000076,0,1,0.691999912,1,0,200,45,1,199,2,1,0.7,1,stim/objects/HouseObjects/handbrush2.png,stim/41.jpeg,4,stim/4.png,1,1,25,2020-12-10_12h15.20.379,premup-three_ses-02_part-03_label-phase3,3.2.4,Win32,60
1,right,0.680999994,,,0,,,0,,,1,0,200,129,1,199,0,1,0,2,stim/objects/HouseObjects/pitcher3.png,,0,stim/0.png,0,0,25,2020-12-10_12h15.20.379,premup-three_ses-02_part-03_label-phase3,3.2.4,Win32,60
1,right,0.67599988,,,0,,,0,,,1,0,200,142,1,199,0,1,0,2,stim/objects/HouseObjects/rubbergloves3.png,,0,stim/0.png,0,0,25,2020-12-10_12h15.20.379,premup-three_ses-02_part-03_label-phase3,3.2.4,Win32,60
1,left,0.888999939,3,0.888999939,0,4,2.079999924,0,2,2.393999815,1,0,200,27,1,199,2,1,0.3,1,stim/objects/HouseObjects/dishsoap2.png,stim/34.jpeg,3,stim/3.png,4,1,25,2020-12-10_12h15.20.379,premup-three_ses-02_part-03_label-phase3,3.2.4,Win32,60
1,right,1.052999973,,,0,,,0,,,1,0,200,178,1,199,0,2,0,2,stim/objects/Instruments/flute4.png,,0,stim/0.png,0,0,25,2020-12-10_12h15.20.379,premup-three_ses-02_part-03_label-phase3,3.2.4,Win32,60
1,left,0.808000088,3,1.180999756,0,3,1.429999828,0,2,0.690999985,1,0,200,9,1,199,1,1,0.5,1,stim/objects/Instruments/saxophone.png,stim/12.jpeg,1,stim/1.png,2,3,25,2020-12-10_12h15.20.379,premup-three_ses-02_part-03_label-phase3,3.2.4,Win32,60
1,left,2.986000061,,,0,,,0,,,1,0,200,196,1,199,0,2,0,2,stim/objects/Instruments/hihat4.png,,0,stim/0.png,0,0,25,2020-12-10_12h15.20.379,premup-three_ses-02_part-03_label-phase3,3.2.4,Win32,60
1,left,0.968999863,2,1.14199996,0,3,1.433999777,0,2,1.260999918,1,0,200,75,1,199,3,2,0.9,1,stim/objects/Instruments/panflute2.png,stim/54.jpeg,5,stim/5.png,4,3,25,2020-12-10_12h15.20.379,premup-three_ses-02_part-03_label-phase3,3.2.4,Win32,60
1,right,1.316999912,,,0,,,0,,,1,0,200,195,1,199,0,2,0,2,stim/objects/Instruments/harp4.png,,0,stim/0.png,0,0,25,2020-12-10_12h15.20.379,premup-three_ses-02_part-03_label-phase3,3.2.4,Win32,60
1,left,0.822999954,,,0,,,0,,,1,0,200,130,1,199,0,2,0,2,stim/objects/Instruments/harp3.png,,0,stim/0.png,0,0,25,2020-12-10_12h15.20.379,premup-three_ses-02_part-03_label-phase3,3.2.4,Win32,60
1,right,0.869999886,,,0,,,0,,,1,0,200,117,1,199,0,2,0,2,stim/objects/Instruments/grandpiano3.png,,0,stim/0.png,0,0,25,2020-12-10_12h15.20.379,premup-three_ses-02_part-03_label-phase3,3.2.4,Win32,60
1,left,0.786999941,4,1.11500001,0,4,4.59800005,0,3,1.09499979,1,0,200,33,1,199,2,2,0.7,1,stim/objects/Instruments/vuvuzela.png,stim/31.jpeg,3,stim/3.png,1,3,25,2020-12-10_12h15.20.379,premup-three_ses-02_part-03_label-phase3,3.2.4,Win32,60
1,left,2.921999931,4,1.672999859,0,3,1.751999855,0,3,1.913999796,1,0,200,5,1,199,1,1,0.5,1,stim/objects/Instruments/panflute.png,stim/12.jpeg,1,stim/1.png,2,1,25,2020-12-10_12h15.20.379,premup-three_ses-02_part-03_label-phase3,3.2.4,Win32,60
1,left,1.14199996,4,1.125,0,3,2.736999989,0,4,0.89199996,1,0,200,56,1,199,2,2,0.3,1,stim/objects/Instruments/hihat2.png,stim/44.jpeg,4,stim/4.png,4,2,25,2020-12-10_12h15.20.379,premup-three_ses-02_part-03_label-phase3,3.2.4,Win32,60
1,right,0.9599998,,,0,,,0,,,1,0,200,164,1,199,0,1,0,2,stim/objects/HouseObjects/wateringcan3.png,,0,stim/0.png,0,0,25,2020-12-10_12h15.20.379,premup-three_ses-02_part-03_label-phase3,3.2.4,Win32,60
1,right,0.967000008,,,0,,,0,,,1,0,200,165,1,199,0,1,0,2,stim/objects/HouseObjects/coffee4.png,,0,stim/0.png,0,0,25,2020-12-10_12h15.20.379,premup-three_ses-02_part-03_label-phase3,3.2.4,Win32,60
1,left,1.087999821,2,0.77699995,0,2,0.822000027,0,2,0.995999813,1,0,200,41,1,199,2,1,0.7,1,stim/objects/HouseObjects/garbagebin2.png,stim/41.jpeg,4,stim/4.png,1,1,25,2020-12-10_12h15.20.379,premup-three_ses-02_part-03_label-phase3,3.2.4,Win32,60
1,left,1.051999807,3,1.083999872,0,4,1.371999741,0,2,0.996999979,1,0,200,58,1,199,2,2,0.3,1,stim/objects/Instruments/laud2.png,stim/42.jpeg,4,stim/4.png,2,3,25,2020-12-10_12h15.20.379,premup-three_ses-02_part-03_label-phase3,3.2.4,Win32,60
1,right,0.916999817,,,0,,,0,,,1,0,200,191,1,199,0,2,0,2,stim/objects/Instruments/gong4.png,,0,stim/0.png,0,0,25,2020-12-10_12h15.20.379,premup-three_ses-02_part-03_label-phase3,3.2.4,Win32,60
1,left,0.774999857,4,0.866999865,0,3,2.635999918,0,3,1.105999947,1,0,200,82,1,199,3,1,0.9,1,stim/objects/HouseObjects/sponge2.png,stim/63.jpeg,6,stim/6.png,3,4,25,2020-12-10_12h15.20.379,premup-three_ses-02_part-03_label-phase3,3.2.4,Win32,60
1,left,1.198999882,,,0,,,0,,,1,0,200,170,1,199,0,2,0,2,stim/objects/Instruments/trumpet3.png,,0,stim/0.png,0,0,25,2020-12-10_12h15.20.379,premup-three_ses-02_part-03_label-phase3,3.2.4,Win32,60
1,left,0.811999798,2,0.912999868,0,2,0.766000032,0,2,0.819999933,1,0,200,97,1,199,3,2,0.1,1,stim/objects/Instruments/violin2.png,stim/62.jpeg,6,stim/6.png,2,4,25,2020-12-10_12h15.20.379,premup-three_ses-02_part-03_label-phase3,3.2.4,Win32,60
1,left,3.039000034,3,1.311999798,0,2,0.75999999,0,1,0.822999954,1,0,200,93,1,199,3,2,0.1,1,stim/objects/Instruments/triangle2.png,stim/62.jpeg,6,stim/6.png,2,2,25,2020-12-10_12h15.20.379,premup-three_ses-02_part-03_label-phase3,3.2.4,Win32,60
1,right,1.157999992,,,0,,,0,,,1,0,200,182,1,199,0,1,0,2,stim/objects/HouseObjects/glass4.png,,0,stim/0.png,0,0,25,2020-12-10_12h15.20.379,premup-three_ses-02_part-03_label-phase3,3.2.4,Win32,60
1,left,0.750999928,,,0,,,0,,,1,0,200,198,1,199,0,2,0,2,stim/objects/Instruments/laud4.png,,0,stim/0.png,0,0,25,2020-12-10_12h15.20.379,premup-three_ses-02_part-03_label-phase3,3.2.4,Win32,60
1,left,1.471999884,,,0,,,0,,,1,0,200,186,1,199,0,1,0,2,stim/objects/HouseObjects/handvacuum4.png,,0,stim/0.png,0,0,25,2020-12-10_12h15.20.379,premup-three_ses-02_part-03_label-phase3,3.2.4,Win32,60
1,right,1.586999893,,,0,,,0,,,1,0,200,144,1,199,0,1,0,2,stim/objects/HouseObjects/safetypin3.png,,0,stim/0.png,0,0,25,2020-12-10_12h15.20.379,premup-three_ses-02_part-03_label-phase3,3.2.4,Win32,60
1,left,0.890999794,3,0.766000032,0,4,1.991999865,0,2,0.904999971,1,0,200,92,1,199,3,2,0.1,1,stim/objects/Instruments/timbal2.png,stim/61.jpeg,6,stim/6.png,1,2,25,2020-12-10_12h15.20.379,premup-three_ses-02_part-03_label-phase3,3.2.4,Win32,60
1,left,0.859999895,,,0,,,0,,,1,0,200,154,1,199,0,2,0,2,stim/objects/Instruments/saxophone3.png,,0,stim/0.png,0,0,25,2020-12-10_12h15.20.379,premup-three_ses-02_part-03_label-phase3,3.2.4,Win32,60
1,right,0.911999941,,,0,,,0,,,1,0,200,100,1,199,0,1,0,2,stim/objects/HouseObjects/coffee3.png,,0,stim/0.png,0,0,25,2020-12-10_12h15.20.379,premup-three_ses-02_part-03_label-phase3,3.2.4,Win32,60
1,right,1.088999987,,,0,,,0,,,1,0,200,119,1,199,0,2,0,2,stim/objects/Instruments/harmonica3.png,,0,stim/0.png,0,0,25,2020-12-10_12h15.20.379,premup-three_ses-02_part-03_label-phase3,3.2.4,Win32,60
1,right,1.366999865,2,1.332999945,0,4,1.153000116,0,4,1.179999828,1,0,200,61,1,199,3,1,0.1,1,stim/objects/HouseObjects/lintroller2.png,stim/52.jpeg,5,stim/5.png,2,3,25,2020-12-10_12h15.20.379,premup-three_ses-02_part-03_label-phase3,3.2.4,Win32,60
1,left,1.078999758,,,0,,,0,,,1,0,200,123,1,199,0,1,0,2,stim/objects/HouseObjects/ironingboard3.png,,0,stim/0.png,0,0,25,2020-12-10_12h15.20.379,premup-three_ses-02_part-03_label-phase3,3.2.4,Win32,60
1,left,0.940999985,,,0,,,0,,,1,0,200,162,1,199,0,1,0,2,stim/objects/HouseObjects/towel3.png,,0,stim/0.png,0,0,25,2020-12-10_12h15.20.379,premup-three_ses-02_part-03_label-phase3,3.2.4,Win32,60
1,left,1.296000004,1,1.536999941,0,1,0.86899972,0,4,2.344000101,1,0,200,31,1,199,2,2,0.7,1,stim/objects/Instruments/tuba.png,stim/33.jpeg,3,stim/3.png,3,4,25,2020-12-10_12h15.20.379,premup-three_ses-02_part-03_label-phase3,3.2.4,Win32,60
1,left,1.008999825,2,0.847999811,0,4,0.9599998,0,3,1.136999846,1,0,200,96,1,199,3,2,0.1,1,stim/objects/Instruments/tuba2.png,stim/61.jpeg,6,stim/6.png,1,2,25,2020-12-10_12h15.20.379,premup-three_ses-02_part-03_label-phase3,3.2.4,Win32,60
1,left,0.867000103,4,0.621000051,0,4,1.956999779,0,2,0.78399992,1,0,200,51,1,199,2,2,0.3,1,stim/objects/Instruments/gong2.png,stim/43.jpeg,4,stim/4.png,3,4,25,2020-12-10_12h15.20.379,premup-three_ses-02_part-03_label-phase3,3.2.4,Win32,60
1,left,0.86500001,,,0,,,0,,,1,0,200,126,1,199,0,1,0,2,stim/objects/HouseObjects/lintroller3.png,,0,stim/0.png,0,0,25,2020-12-10_12h15.20.379,premup-three_ses-02_part-03_label-phase3,3.2.4,Win32,60
1,left,0.96999979,2,1.154000044,0,1,0.742999792,0,1,0.727999926,1,0,200,0,1,199,1,1,0.5,1,stim/objects/HouseObjects/recyclingbin.png,stim/13.jpeg,1,stim/1.png,3,4,25,2020-12-10_12h15.20.379,premup-three_ses-02_part-03_label-phase3,3.2.4,Win32,60
1,left,0.79399991,4,1.141000032,0,2,1.153999805,0,1,2.771999836,1,0,200,10,1,199,1,2,0.5,1,stim/objects/HouseObjects/saw.png,stim/21.jpeg,2,stim/2.png,1,1,25,2020-12-10_12h15.20.379,premup-three_ses-02_part-03_label-phase3,3.2.4,Win32,60
1,right,1.022999763,1,1.303999901,0,4,2.94299984,0,2,0.654000044,1,0,200,34,1,199,2,2,0.7,1,stim/objects/Instruments/xylophone.png,stim/32.jpeg,3,stim/3.png,2,2,25,2020-12-10_12h15.20.379,premup-three_ses-02_part-03_label-phase3,3.2.4,Win32,60
1,left,0.876999855,2,2.558000088,0,3,1.162999868,0,2,0.846999884,1,0,200,95,1,199,3,2,0.1,1,stim/objects/Instruments/trumpet2.png,stim/64.jpeg,6,stim/6.png,4,4,25,2020-12-10_12h15.20.379,premup-three_ses-02_part-03_label-phase3,3.2.4,Win32,60
1,right,1.264999866,,,0,,,0,,,1,0,200,110,1,199,0,2,0,2,stim/objects/Instruments/drums3.png,,0,stim/0.png,0,0,25,2020-12-10_12h15.20.379,premup-three_ses-02_part-03_label-phase3,3.2.4,Win32,60
1,right,0.851999998,,,0,,,0,,,1,0,200,166,1,199,0,1,0,2,stim/objects/HouseObjects/cushion4.png,,0,stim/0.png,0,0,25,2020-12-10_12h15.20.379,premup-three_ses-02_part-03_label-phase3,3.2.4,Win32,60
1,left,1.186999798,2,0.559000015,0,2,1.370999813,0,3,0.931999922,1,0,200,69,1,199,3,1,0.1,1,stim/objects/HouseObjects/safetypin2.png,stim/52.jpeg,5,stim/5.png,2,4,25,2020-12-10_12h15.20.379,premup-three_ses-02_part-03_label-phase3,3.2.4,Win32,60
1,right,1.203999996,,,0,,,0,,,1,0,200,101,1,199,0,1,0,2,stim/objects/HouseObjects/cushion3.png,,0,stim/0.png,0,0,25,2020-12-10_12h15.20.379,premup-three_ses-02_part-03_label-phase3,3.2.4,Win32,60
1,right,1.40199995,,,0,,,0,,,1,0,200,197,1,199,0,2,0,2,stim/objects/Instruments/keyboard4.png,,0,stim/0.png,0,0,25,2020-12-10_12h15.20.379,premup-three_ses-02_part-03_label-phase3,3.2.4,Win32,60
1,left,0.773000002,4,0.642999887,0,2,4.921999931,0,3,0.853999853,1,0,200,42,1,199,2,1,0.7,1,stim/objects/HouseObjects/glass2.png,stim/42.jpeg,4,stim/4.png,2,2,25,2020-12-10_12h15.20.379,premup-three_ses-02_part-03_label-phase3,3.2.4,Win32,60
1,left,1.098999977,4,2.548999786,0,3,2.366999865,0,4,0.816999912,1,0,200,28,1,199,2,1,0.3,1,stim/objects/HouseObjects/doormat2.png,stim/31.jpeg,3,stim/3.png,1,3,25,2020-12-10_12h15.20.379,premup-three_ses-02_part-03_label-phase3,3.2.4,Win32,60
1,right,3.648999929,,,0,,,0,,,1,0,200,169,1,199,0,1,0,2,stim/objects/HouseObjects/dustpan4.png,,0,stim/0.png,0,0,25,2020-12-10_12h15.20.379,premup-three_ses-02_part-03_label-phase3,3.2.4,Win32,60
1,right,0.690999985,2,0.878000021,0,2,1.323999882,0,1,1.008999825,1,0,200,86,1,199,3,1,0.9,1,stim/objects/HouseObjects/thread2.png,stim/63.jpeg,6,stim/6.png,3,3,25,2020-12-10_12h15.20.379,premup-three_ses-02_part-03_label-phase3,3.2.4,Win32,60
1,right,1.053999901,,,0,,,0,,,1,0,200,189,1,199,0,1,0,2,stim/objects/HouseObjects/key4.png,,0,stim/0.png,0,0,25,2020-12-10_12h15.20.379,premup-three_ses-02_part-03_label-phase3,3.2.4,Win32,60
1,left,1.161999941,3,1.874000072,0,3,3.463999748,0,1,0.398000002,1,0,200,77,1,199,3,2,0.9,1,stim/objects/Instruments/record2.png,stim/52.jpeg,5,stim/5.png,2,2,25,2020-12-10_12h15.20.379,premup-three_ses-02_part-03_label-phase3,3.2.4,Win32,60
1,right,2.029000044,,,0,,,0,,,1,0,200,137,1,199,0,2,0,2,stim/objects/Instruments/musicsheet3.png,,0,stim/0.png,0,0,25,2020-12-10_12h15.20.379,premup-three_ses-02_part-03_label-phase3,3.2.4,Win32,60
1,left,0.944999933,,,0,,,0,,,1,0,200,111,1,199,0,2,0,2,stim/objects/Instruments/electricdrumset3.png,,0,stim/0.png,0,0,25,2020-12-10_12h15.20.379,premup-three_ses-02_part-03_label-phase3,3.2.4,Win32,60
1,left,0.739000082,,,0,,,0,,,1,0,200,159,1,199,0,2,0,2,stim/objects/Instruments/trombone3.png,,0,stim/0.png,0,0,25,2020-12-10_12h15.20.379,premup-three_ses-02_part-03_label-phase3,3.2.4,Win32,60
1,right,0.638000011,,,0,,,0,,,1,0,200,153,1,199,0,2,0,2,stim/objects/Instruments/record_player3.png,,0,stim/0.png,0,0,25,2020-12-10_12h15.20.379,premup-three_ses-02_part-03_label-phase3,3.2.4,Win32,60
1,right,0.780999899,,,0,,,0,,,1,0,200,149,1,199,0,1,0,2,stim/objects/HouseObjects/teapot3.png,,0,stim/0.png,0,0,25,2020-12-10_12h15.20.379,premup-three_ses-02_part-03_label-phase3,3.2.4,Win32,60
1,right,0.638000011,1,1.312999725,0,2,1.92599988,0,1,0.55700016,1,0,200,60,1,199,3,1,0.1,1,stim/objects/HouseObjects/knife2.png,stim/51.jpeg,5,stim/5.png,1,3,25,2020-12-10_12h15.20.379,premup-three_ses-02_part-03_label-phase3,3.2.4,Win32,60
1,left,1.199999809,2,0.892999887,0,4,2.04399991,0,2,1.269000053,1,0,200,91,1,199,3,2,0.1,1,stim/objects/Instruments/tambourine2.png,stim/64.jpeg,6,stim/6.png,4,4,25,2020-12-10_12h15.20.379,premup-three_ses-02_part-03_label-phase3,3.2.4,Win32,60
1,right,0.92599988,1,1.027999878,0,1,1.51699996,0,1,0.222000122,1,0,200,12,1,199,1,2,0.5,1,stim/objects/HouseObjects/sponge.png,stim/23.jpeg,2,stim/2.png,3,3,25,2020-12-10_12h15.20.379,premup-three_ses-02_part-03_label-phase3,3.2.4,Win32,60
1,right,2.542999744,2,1.015000105,0,1,0.607000113,0,1,3.400000095,1,0,200,47,1,199,2,1,0.7,1,stim/objects/HouseObjects/iron2.png,stim/43.jpeg,4,stim/4.png,3,2,25,2020-12-10_12h15.20.379,premup-three_ses-02_part-03_label-phase3,3.2.4,Win32,60
1,right,1.053999901,1,0.823999882,0,3,1.154999733,0,2,0.604000092,1,0,200,29,1,199,2,1,0.3,1,stim/objects/HouseObjects/dustpan2.png,stim/32.jpeg,3,stim/3.png,2,3,25,2020-12-10_12h15.20.379,premup-three_ses-02_part-03_label-phase3,3.2.4,Win32,60
1,left,0.904999971,2,1.154999971,0,3,0.92599988,0,2,0.976000071,1,0,200,68,1,199,3,1,0.1,1,stim/objects/HouseObjects/rug2.png,stim/51.jpeg,5,stim/5.png,1,2,25,2020-12-10_12h15.20.379,premup-three_ses-02_part-03_label-phase3,3.2.4,Win32,60
1,left,1.074999809,,,0,,,0,,,1,0,200,192,1,199,0,2,0,2,stim/objects/Instruments/grandpiano4.png,,0,stim/0.png,0,0,25,2020-12-10_12h15.20.379,premup-three_ses-02_part-03_label-phase3,3.2.4,Win32,60
1,left,1.228999853,2,1.03399992,0,3,1.217000008,0,4,1.43599987,1,0,200,8,1,199,1,1,0.5,1,stim/objects/Instruments/record_player.png,stim/11.jpeg,1,stim/1.png,1,3,25,2020-12-10_12h15.20.379,premup-three_ses-02_part-03_label-phase3,3.2.4,Win32,60
1,right,0.927999973,3,1.869999886,0,2,0.701999903,0,2,1.055999756,1,0,200,90,1,199,3,2,0.1,1,stim/objects/Instruments/speaker2.png,stim/63.jpeg,6,stim/6.png,3,2,25,2020-12-10_12h15.20.379,premup-three_ses-02_part-03_label-phase3,3.2.4,Win32,60
1,left,1.016000032,,,0,,,0,,,1,0,200,138,1,199,0,2,0,2,stim/objects/Instruments/musicstand3.png,,0,stim/0.png,0,0,25,2020-12-10_12h15.20.379,premup-three_ses-02_part-03_label-phase3,3.2.4,Win32,60
1,right,0.786999941,,,0,,,0,,,1,0,200,109,1,199,0,1,0,2,stim/objects/HouseObjects/hairdryer3.png,,0,stim/0.png,0,0,25,2020-12-10_12h15.20.379,premup-three_ses-02_part-03_label-phase3,3.2.4,Win32,60
1,left,1.125999928,3,1.739000082,0,3,1.024999857,0,1,1.629999876,1,0,200,63,1,199,3,1,0.1,1,stim/objects/HouseObjects/pan2.png,stim/54.jpeg,5,stim/5.png,4,3,25,2020-12-10_12h15.20.379,premup-three_ses-02_part-03_label-phase3,3.2.4,Win32,60
1,right,0.947999716,2,0.89199996,0,2,0.842999935,0,4,1.440000057,1,0,200,25,1,199,2,1,0.3,1,stim/objects/HouseObjects/coffee2.png,stim/32.jpeg,3,stim/3.png,2,2,25,2020-12-10_12h15.20.379,premup-three_ses-02_part-03_label-phase3,3.2.4,Win32,60
1,right,0.974999905,,,0,,,0,,,1,0,200,156,1,199,0,2,0,2,stim/objects/Instruments/tambourine3.png,,0,stim/0.png,0,0,25,2020-12-10_12h15.20.379,premup-three_ses-02_part-03_label-phase3,3.2.4,Win32,60
1,right,0.764999866,1,1.258999825,0,4,0.915999889,0,4,0.743999958,1,0,200,21,1,199,2,1,0.3,1,stim/objects/HouseObjects/thread.png,stim/32.jpeg,3,stim/3.png,2,1,25,2020-12-10_12h15.20.379,premup-three_ses-02_part-03_label-phase3,3.2.4,Win32,60
1,left,1.207999945,3,0.915999889,0,1,1.266000032,0,1,0.701999903,1,0,200,22,1,199,2,1,0.3,1,stim/objects/HouseObjects/towel.png,stim/33.jpeg,3,stim/3.png,3,4,25,2020-12-10_12h15.20.379,premup-three_ses-02_part-03_label-phase3,3.2.4,Win32,60
1,left,0.728999853,3,0.816999912,0,3,1.417999744,0,2,0.712999821,1,0,200,46,1,199,2,1,0.7,1,stim/objects/HouseObjects/handvacuum2.png,stim/42.jpeg,4,stim/4.png,2,4,25,2020-12-10_12h15.20.379,premup-three_ses-02_part-03_label-phase3,3.2.4,Win32,60
1,right,0.75,,,0,,,0,,,1,0,200,199,1,199,0,2,0,2,stim/objects/Instruments/maraca4.png,,0,stim/0.png,0,0,25,2020-12-10_12h15.20.379,premup-three_ses-02_part-03_label-phase3,3.2.4,Win32,60
1,right,0.946999788,1,0.844000101,0,2,0.843999863,0,3,0.970999956,1,0,200,87,1,199,3,1,0.9,1,stim/objects/HouseObjects/towel2.png,stim/64.jpeg,6,stim/6.png,4,2,25,2020-12-10_12h15.20.379,premup-three_ses-02_part-03_label-phase3,3.2.4,Win32,60
1,right,0.819999933,,,0,,,0,,,1,0,200,141,1,199,0,1,0,2,stim/objects/HouseObjects/remote3.png,,0,stim/0.png,0,0,25,2020-12-10_12h15.20.379,premup-three_ses-02_part-03_label-phase3,3.2.4,Win32,60
1,right,3.055000067,2,0.707999945,0,4,1.450000048,0,1,1.376999855,1,0,200,52,1,199,2,2,0.3,1,stim/objects/Instruments/grandpiano2.png,stim/44.jpeg,4,stim/4.png,4,4,25,2020-12-10_12h15.20.379,premup-three_ses-02_part-03_label-phase3,3.2.4,Win32,60
1,left,1.047999859,4,1.059000015,0,4,2.105999947,0,1,0.517999887,1,0,200,40,1,199,2,1,0.7,1,stim/objects/HouseObjects/flyswatter2.png,stim/44.jpeg,4,stim/4.png,4,1,25,2020-12-10_12h15.20.379,premup-three_ses-02_part-03_label-phase3,3.2.4,Win32,60
1,left,1.120000124,2,0.832000017,0,1,0.809000015,0,1,0.827000141,1,0,200,66,1,199,3,1,0.1,1,stim/objects/HouseObjects/remote2.png,stim/53.jpeg,5,stim/5.png,3,1,25,2020-12-10_12h15.20.379,premup-three_ses-02_part-03_label-phase3,3.2.4,Win32,60
1,right,2.799000025,3,0.801999807,0,2,1.907999754,0,2,0.471999884,1,0,200,88,1,199,3,1,0.9,1,stim/objects/HouseObjects/vacuumcleaner2.png,stim/61.jpeg,6,stim/6.png,1,1,25,2020-12-10_12h15.20.379,premup-three_ses-02_part-03_label-phase3,3.2.4,Win32,60
1,right,1.194999933,,,0,,,0,,,1,0,200,122,1,199,0,1,0,2,stim/objects/HouseObjects/iron3.png,,0,stim/0.png,0,0,25,2020-12-10_12h15.20.379,premup-three_ses-02_part-03_label-phase3,3.2.4,Win32,60
1,left,0.904999971,,,0,,,0,,,1,0,200,116,1,199,0,2,0,2,stim/objects/Instruments/gong3.png,,0,stim/0.png,0,0,25,2020-12-10_12h15.20.379,premup-three_ses-02_part-03_label-phase3,3.2.4,Win32,60
1,right,0.910999775,1,1.014999866,0,1,0.926999807,0,1,0.230999947,1,0,200,13,1,199,1,2,0.5,1,stim/objects/HouseObjects/spraybottle.png,stim/24.jpeg,2,stim/2.png,4,3,25,2020-12-10_12h15.20.379,premup-three_ses-02_part-03_label-phase3,3.2.4,Win32,60
1,left,2.056999922,3,0.914999962,0,4,1.864000082,0,2,0.748999834,1,0,200,38,1,199,2,2,0.7,1,stim/objects/Instruments/flute2.png,stim/32.jpeg,3,stim/3.png,2,2,25,2020-12-10_12h15.20.379,premup-three_ses-02_part-03_label-phase3,3.2.4,Win32,60
1,left,1.439999819,4,0.961999893,0,1,4.589999914,0,2,1.065000057,1,0,200,11,1,199,1,2,0.5,1,stim/objects/HouseObjects/scale.png,stim/22.jpeg,2,stim/2.png,2,2,25,2020-12-10_12h15.20.379,premup-three_ses-02_part-03_label-phase3,3.2.4,Win32,60
1,left,0.934999943,,,0,,,0,,,1,0,200,176,1,199,0,2,0,2,stim/objects/Instruments/electricdrumset4.png,,0,stim/0.png,0,0,25,2020-12-10_12h15.20.379,premup-three_ses-02_part-03_label-phase3,3.2.4,Win32,60
1,right,0.762999773,,,0,,,0,,,1,0,200,163,1,199,0,1,0,2,stim/objects/HouseObjects/vacuumcleaner3.png,,0,stim/0.png,0,0,25,2020-12-10_12h15.20.379,premup-three_ses-02_part-03_label-phase3,3.2.4,Win32,60
1,left,0.865999699,,,0,,,0,,,1,0,200,168,1,199,0,1,0,2,stim/objects/HouseObjects/doormat4.png,,0,stim/0.png,0,0,25,2020-12-10_12h15.20.379,premup-three_ses-02_part-03_label-phase3,3.2.4,Win32,60
1,right,0.833999872,,,0,,,0,,,1,0,200,146,1,199,0,1,0,2,stim/objects/HouseObjects/scale3.png,,0,stim/0.png,0,0,25,2020-12-10_12h15.20.379,premup-three_ses-02_part-03_label-phase3,3.2.4,Win32,60
1,left,1.189999819,3,0.828999996,0,3,3.88499999,0,2,0.913000107,1,0,200,59,1,199,2,2,0.3,1,stim/objects/Instruments/maraca2.png,stim/43.jpeg,4,stim/4.png,3,2,25,2020-12-10_12h15.20.379,premup-three_ses-02_part-03_label-phase3,3.2.4,Win32,60
1,right,0.916999817,2,1.628999949,0,4,1.133999825,0,2,0.832999945,1,0,200,14,1,199,1,2,0.5,1,stim/objects/HouseObjects/teapot.png,stim/21.jpeg,2,stim/2.png,1,4,25,2020-12-10_12h15.20.379,premup-three_ses-02_part-03_label-phase3,3.2.4,Win32,60
1,right,0.943999767,,,0,,,0,,,1,0,200,193,1,199,0,2,0,2,stim/objects/Instruments/guitarcase4.png,,0,stim/0.png,0,0,25,2020-12-10_12h15.20.379,premup-three_ses-02_part-03_label-phase3,3.2.4,Win32,60
1,right,0.76699996,,,0,,,0,,,1,0,200,106,1,199,0,1,0,2,stim/objects/HouseObjects/garbagebin3.png,,0,stim/0.png,0,0,25,2020-12-10_12h15.20.379,premup-three_ses-02_part-03_label-phase3,3.2.4,Win32,60
1,left,1.381999731,,,0,,,0,,,1,0,200,115,1,199,0,2,0,2,stim/objects/Instruments/frenchhorn3.png,,0,stim/0.png,0,0,25,2020-12-10_12h15.20.379,premup-three_ses-02_part-03_label-phase3,3.2.4,Win32,60
1,right,0.919999838,1,0.767999887,0,4,2.034999847,0,2,0.585999727,1,0,200,39,1,199,2,2,0.7,1,stim/objects/Instruments/flutetrans2.png,stim/33.jpeg,3,stim/3.png,3,1,25,2020-12-10_12h15.20.379,premup-three_ses-02_part-03_label-phase3,3.2.4,Win32,60
1,right,0.905999899,2,0.730000019,0,2,0.686999798,0,2,3.368999958,1,0,200,1,1,199,1,1,0.5,1,stim/objects/HouseObjects/remote.png,stim/14.jpeg,1,stim/1.png,4,1,25,2020-12-10_12h15.20.379,premup-three_ses-02_part-03_label-phase3,3.2.4,Win32,60
1,left,0.877999783,3,0.990999937,0,1,2.479999781,0,4,0.842000008,1,0,200,17,1,199,1,2,0.5,1,stim/objects/Instruments/timbal.png,stim/22.jpeg,2,stim/2.png,2,2,25,2020-12-10_12h15.20.379,premup-three_ses-02_part-03_label-phase3,3.2.4,Win32,60
1,right,1.018999815,,,0,,,0,,,1,0,200,118,1,199,0,2,0,2,stim/objects/Instruments/guitarcase3.png,,0,stim/0.png,0,0,25,2020-12-10_12h15.20.379,premup-three_ses-02_part-03_label-phase3,3.2.4,Win32,60
1,right,0.842000008,,,0,,,0,,,1,0,200,139,1,199,0,2,0,2,stim/objects/Instruments/oboe3.png,,0,stim/0.png,0,0,25,2020-12-10_12h15.20.379,premup-three_ses-02_part-03_label-phase3,3.2.4,Win32,60
1,right,0.997999907,1,0.721999884,0,1,0.678999901,0,2,2.06099987,1,0,200,71,1,199,3,2,0.9,1,stim/objects/Instruments/metronome2.png,stim/54.jpeg,5,stim/5.png,4,3,25,2020-12-10_12h15.20.379,premup-three_ses-02_part-03_label-phase3,3.2.4,Win32,60
1,right,0.763000011,,,0,,,0,,,1,0,200,157,1,199,0,2,0,2,stim/objects/Instruments/timbal3.png,,0,stim/0.png,0,0,25,2020-12-10_12h15.20.379,premup-three_ses-02_part-03_label-phase3,3.2.4,Win32,60
1,right,1.135999918,2,0.720000029,0,4,1.142999887,0,3,1.341999769,1,0,200,2,1,199,1,1,0.5,1,stim/objects/HouseObjects/rubbergloves.png,stim/11.jpeg,1,stim/1.png,1,4,25,2020-12-10_12h15.20.379,premup-three_ses-02_part-03_label-phase3,3.2.4,Win32,60
1,left,0.961999893,4,0.911000013,0,4,2.36500001,0,3,1.013999701,1,0,200,99,1,199,3,2,0.1,1,stim/objects/Instruments/xylophone2.png,stim/64.jpeg,6,stim/6.png,4,4,25,2020-12-10_12h15.20.379,premup-three_ses-02_part-03_label-phase3,3.2.4,Win32,60
1,left,1.461999893,3,0.799000025,0,2,1.529000044,0,3,0.961999893,1,0,200,62,1,199,3,1,0.1,1,stim/objects/HouseObjects/match2.png,stim/53.jpeg,5,stim/5.png,3,3,25,2020-12-10_12h15.20.379,premup-three_ses-02_part-03_label-phase3,3.2.4,Win32,60
1,right,0.779999971,,,0,,,0,,,1,0,200,155,1,199,0,2,0,2,stim/objects/Instruments/speaker3.png,,0,stim/0.png,0,0,25,2020-12-10_12h15.20.379,premup-three_ses-02_part-03_label-phase3,3.2.4,Win32,60
1,left,4.19299984,3,1.118000031,0,2,8.932999849,0,2,1.085999966,1,0,200,32,1,199,2,2,0.7,1,stim/objects/Instruments/violin.png,stim/34.jpeg,3,stim/3.png,4,4,25,2020-12-10_12h15.20.379,premup-three_ses-02_part-03_label-phase3,3.2.4,Win32,60
1,left,0.915999889,3,0.953999996,0,1,0.789999962,0,1,0.943999767,1,0,200,36,1,199,2,2,0.7,1,stim/objects/Instruments/electricdrumset2.png,stim/34.jpeg,3,stim/3.png,4,1,25,2020-12-10_12h15.20.379,premup-three_ses-02_part-03_label-phase3,3.2.4,Win32,60
1,right,1.456999779,,,0,,,0,,,1,0,200,172,1,199,0,2,0,2,stim/objects/Instruments/violin3.png,,0,stim/0.png,0,0,25,2020-12-10_12h15.20.379,premup-three_ses-02_part-03_label-phase3,3.2.4,Win32,60
1,right,0.90199995,,,0,,,0,,,1,0,200,114,1,199,0,2,0,2,stim/objects/Instruments/flutetrans3.png,,0,stim/0.png,0,0,25,2020-12-10_12h15.20.379,premup-three_ses-02_part-03_label-phase3,3.2.4,Win32,60
1,right,0.736000061,,,0,,,0,,,1,0,200,175,1,199,0,2,0,2,stim/objects/Instruments/drums4.png,,0,stim/0.png,0,0,25,2020-12-10_12h15.20.379,premup-three_ses-02_part-03_label-phase3,3.2.4,Win32,60
1,right,0.785999775,,,0,,,0,,,1,0,200,124,1,199,0,1,0,2,stim/objects/HouseObjects/key3.png,,0,stim/0.png,0,0,25,2020-12-10_12h15.20.379,premup-three_ses-02_part-03_label-phase3,3.2.4,Win32,60
1,right,0.77699995,,,0,,,0,,,1,0,200,194,1,199,0,2,0,2,stim/objects/Instruments/harmonica4.png,,0,stim/0.png,0,0,25,2020-12-10_12h15.20.379,premup-three_ses-02_part-03_label-phase3,3.2.4,Win32,60
1,right,0.595999956,,,0,,,0,,,1,0,200,132,1,199,0,2,0,2,stim/objects/Instruments/keyboard3.png,,0,stim/0.png,0,0,25,2020-12-10_12h15.20.379,premup-three_ses-02_part-03_label-phase3,3.2.4,Win32,60
1,right,2.072999954,,,0,,,0,,,1,0,200,131,1,199,0,2,0,2,stim/objects/Instruments/hihat3.png,,0,stim/0.png,0,0,25,2020-12-10_12h15.20.379,premup-three_ses-02_part-03_label-phase3,3.2.4,Win32,60
1,right,1.389999866,1,0.782000065,0,1,0.493999958,0,1,0.434000015,1,0,200,64,1,199,3,1,0.1,1,stim/objects/HouseObjects/pitcher2.png,stim/51.jpeg,5,stim/5.png,1,1,25,2020-12-10_12h15.20.379,premup-three_ses-02_part-03_label-phase3,3.2.4,Win32,60
1,right,1.188999891,3,1.564999819,0,2,0.871999979,0,1,1.212999821,1,0,200,76,1,199,3,2,0.9,1,stim/objects/Instruments/pipepiano2.png,stim/51.jpeg,5,stim/5.png,1,1,25,2020-12-10_12h15.20.379,premup-three_ses-02_part-03_label-phase3,3.2.4,Win32,60
1,left,1.878000021,3,0.893999815,0,4,3.388999939,0,4,0.796000004,1,0,200,74,1,199,3,2,0.9,1,stim/objects/Instruments/oboe2.png,stim/53.jpeg,5,stim/5.png,3,4,25,2020-12-10_12h15.20.379,premup-three_ses-02_part-03_label-phase3,3.2.4,Win32,60
1,right,0.835000038,,,0,,,0,,,1,0,200,135,1,199,0,2,0,2,stim/objects/Instruments/marimba3.png,,0,stim/0.png,0,0,25,2020-12-10_12h15.20.379,premup-three_ses-02_part-03_label-phase3,3.2.4,Win32,60
1,right,1.207000017,,,0,,,0,,,1,0,200,188,1,199,0,1,0,2,stim/objects/HouseObjects/ironingboard4.png,,0,stim/0.png,0,0,25,2020-12-10_12h15.20.379,premup-three_ses-02_part-03_label-phase3,3.2.4,Win32,60
1,right,0.902999878,2,0.704999924,0,2,0.88499999,0,2,0.809999943,1,0,200,19,1,199,1,2,0.5,1,stim/objects/Instruments/trombone.png,stim/24.jpeg,2,stim/2.png,4,1,25,2020-12-10_12h15.20.379,premup-three_ses-02_part-03_label-phase3,3.2.4,Win32,60
1,right,0.833999872,,,0,,,0,,,1,0,200,160,1,199,0,1,0,2,stim/objects/HouseObjects/thermometer3.png,,0,stim/0.png,0,0,25,2020-12-10_12h15.20.379,premup-three_ses-02_part-03_label-phase3,3.2.4,Win32,60
1,right,0.59800005,1,1.570999861,0,1,0.56099987,0,1,0.393999815,1,0,200,81,1,199,3,1,0.9,1,stim/objects/HouseObjects/scale2.png,stim/62.jpeg,6,stim/6.png,2,3,25,2020-12-10_12h15.20.379,premup-three_ses-02_part-03_label-phase3,3.2.4,Win32,60
1,right,1.09499979,,,0,,,0,,,1,0,200,104,1,199,0,1,0,2,stim/objects/HouseObjects/dustpan3.png,,0,stim/0.png,0,0,25,2020-12-10_12h15.20.379,premup-three_ses-02_part-03_label-phase3,3.2.4,Win32,60
1,left,0.911000013,2,1.243000031,0,3,0.835999966,0,2,0.943999767,1,0,200,26,1,199,2,1,0.3,1,stim/objects/HouseObjects/cushion2.png,stim/33.jpeg,3,stim/3.png,3,4,25,2020-12-10_12h15.20.379,premup-three_ses-02_part-03_label-phase3,3.2.4,Win32,60
1,left,1.04399991,,,0,,,0,,,1,0,200,105,1,199,0,1,0,2,stim/objects/HouseObjects/flyswatter3.png,,0,stim/0.png,0,0,25,2020-12-10_12h15.20.379,premup-three_ses-02_part-03_label-phase3,3.2.4,Win32,60
1,right,1.109999895,,,0,,,0,,,1,0,200,113,1,199,0,2,0,2,stim/objects/Instruments/flute3.png,,0,stim/0.png,0,0,25,2020-12-10_12h15.20.379,premup-three_ses-02_part-03_label-phase3,3.2.4,Win32,60
1,right,0.961999893,2,0.720999956,0,2,0.428999901,0,1,1.051999807,1,0,200,85,1,199,3,1,0.9,1,stim/objects/HouseObjects/thermometer2.png,stim/62.jpeg,6,stim/6.png,2,2,25,2020-12-10_12h15.20.379,premup-three_ses-02_part-03_label-phase3,3.2.4,Win32,60
1,right,0.928999901,2,1.161000013,0,2,0.243999958,0,2,0.520999908,1,0,200,83,1,199,3,1,0.9,1,stim/objects/HouseObjects/spraybottle2.png,stim/64.jpeg,6,stim/6.png,4,4,25,2020-12-10_12h15.20.379,premup-three_ses-02_part-03_label-phase3,3.2.4,Win32,60
1,right,0.950999975,,,0,,,0,,,1,0,200,148,1,199,0,1,0,2,stim/objects/HouseObjects/spraybottle3.png,,0,stim/0.png,0,0,25,2020-12-10_12h15.20.379,premup-three_ses-02_part-03_label-phase3,3.2.4,Win32,60
1,right,1.371000051,1,2.108999968,0,4,0.953999758,0,1,1.052000046,1,0,200,70,1,199,3,2,0.9,1,stim/objects/Instruments/marimba2.png,stim/53.jpeg,5,stim/5.png,3,1,25,2020-12-10_12h15.20.379,premup-three_ses-02_part-03_label-phase3,3.2.4,Win32,60
1,left,1.041000128,,,0,,,0,,,1,0,200,128,1,199,0,1,0,2,stim/objects/HouseObjects/pan3.png,,0,stim/0.png,0,0,25,2020-12-10_12h15.20.379,premup-three_ses-02_part-03_label-phase3,3.2.4,Win32,60
1,right,1.052000046,2,0.825000048,0,4,0.944000006,0,2,0.779999971,1,0,200,67,1,199,3,1,0.1,1,stim/objects/HouseObjects/rubbergloves2.png,stim/54.jpeg,5,stim/5.png,4,1,25,2020-12-10_12h15.20.379,premup-three_ses-02_part-03_label-phase3,3.2.4,Win32,60
