key_resp_trial.keys,key_resp_trial.rt,trial_acc,trial_index,iterations.thisRepN,iterations.thisTrialN,iterations.thisN,iterations.thisIndex,iterations.ran,iterations.order,task_innerloop.thisRepN,task_innerloop.thisTrialN,task_innerloop.thisN,task_innerloop.thisIndex,task_innerloop.ran,task_innerloop.order,scn_condition,scn_cat,scn_inst,scn_file,obj_cat,obj_cat_num,obj_file,trial_cond,quadrant,obj_x,obj_y,corr_ans,participant,date,expName,psychopyVersion,OS,frameRate,slider.response,slider.rt,slider_2.response,slider_2.rt,ratings.thisRepN,ratings.thisTrialN,ratings.thisN,ratings.thisIndex,ratings.ran,ratings.order,obj_cat_top,min_resp_top,max_resp_top,obj_cat_bottom,min_resp_bottom,max_resp_bottom,enc_trials.thisRepN,enc_trials.thisTrialN,enc_trials.thisN,enc_trials.thisIndex,enc_trials.ran,enc_trials.order,fillers,ratings_final.thisRepN,ratings_final.thisTrialN,ratings_final.thisN,ratings_final.thisIndex,ratings_final.ran,ratings_final.order
,,0,1,1,0,1,0,1,0,1,0,240,10,1,239,1,5,3,stim/53.jpeg,HouseObjects,1,stim/objects/HouseObjects/key.png,0.5,3,-0.2,-0.15,left,27,2020-12-04_09h06.34.048,premup-three_ses-02_part-02_label-phase2,3.2.4,MacIntel,60,,,,,,,,,,,,,,,,,,,,,,,,,,,,,
,,0,2,1,0,1,0,1,0,1,0,240,146,1,239,2,2,3,stim/23.jpeg,HouseObjects,1,stim/objects/HouseObjects/key2.png,0.7,2,0.2,0.15,left,27,2020-12-04_09h06.34.048,premup-three_ses-02_part-02_label-phase2,3.2.4,MacIntel,60,,,,,,,,,,,,,,,,,,,,,,,,,,,,,
left,0.55700016,1,3,1,0,1,0,1,0,1,0,240,124,1,239,2,2,1,stim/21.jpeg,HouseObjects,1,stim/objects/HouseObjects/iron2.png,0.7,1,-0.2,0.15,left,27,2020-12-04_09h06.34.048,premup-three_ses-02_part-02_label-phase2,3.2.4,MacIntel,60,,,,,,,,,,,,,,,,,,,,,,,,,,,,,
right,0.546000242,1,4,1,0,1,0,1,0,1,0,240,97,1,239,2,1,2,stim/12.jpeg,Instruments,2,stim/objects/Instruments/pipepiano.png,0.7,3,-0.2,-0.15,right,27,2020-12-04_09h06.34.048,premup-three_ses-02_part-02_label-phase2,3.2.4,MacIntel,60,,,,,,,,,,,,,,,,,,,,,,,,,,,,,
right,0.670000315,0,5,1,0,1,0,1,0,1,0,240,9,1,239,1,5,2,stim/52.jpeg,HouseObjects,1,stim/objects/HouseObjects/ironingboard.png,0.5,2,0.2,0.15,left,27,2020-12-04_09h06.34.048,premup-three_ses-02_part-02_label-phase2,3.2.4,MacIntel,60,,,,,,,,,,,,,,,,,,,,,,,,,,,,,
left,0.440000057,0,6,1,0,1,0,1,0,1,0,240,182,1,239,3,3,3,stim/33.jpeg,Instruments,2,stim/objects/Instruments/musicstand2.png,0.9,2,0.2,0.15,right,27,2020-12-04_09h06.34.048,premup-three_ses-02_part-02_label-phase2,3.2.4,MacIntel,60,,,,,,,,,,,,,,,,,,,,,,,,,,,,,
left,0.704000235,1,7,1,0,1,0,1,0,1,0,240,57,1,239,1,6,2,stim/62.jpeg,HouseObjects,1,stim/objects/HouseObjects/match.png,0.5,3,-0.2,-0.15,left,27,2020-12-04_09h06.34.048,premup-three_ses-02_part-02_label-phase2,3.2.4,MacIntel,60,,,,,,,,,,,,,,,,,,,,,,,,,,,,,
right,0.542999983,0,8,1,0,1,0,1,0,1,0,240,91,1,239,2,1,4,stim/14.jpeg,HouseObjects,1,stim/objects/HouseObjects/rug.png,0.3,3,-0.2,-0.15,left,27,2020-12-04_09h06.34.048,premup-three_ses-02_part-02_label-phase2,3.2.4,MacIntel,60,,,,,,,,,,,,,,,,,,,,,,,,,,,,,
right,0.614000082,1,9,1,0,1,0,1,0,1,0,240,186,1,239,3,3,3,stim/33.jpeg,Instruments,2,stim/objects/Instruments/musicstand2.png,0.9,3,-0.2,-0.15,right,27,2020-12-04_09h06.34.048,premup-three_ses-02_part-02_label-phase2,3.2.4,MacIntel,60,,,,,,,,,,,,,,,,,,,,,,,,,,,,,
left,0.870000362,1,10,1,0,1,0,1,0,1,0,240,144,1,239,2,2,1,stim/21.jpeg,HouseObjects,1,stim/objects/HouseObjects/iron2.png,0.7,2,0.2,0.15,left,27,2020-12-04_09h06.34.048,premup-three_ses-02_part-02_label-phase2,3.2.4,MacIntel,60,,,,,,,,,,,,,,,,,,,,,,,,,,,,,
right,0.596000195,1,11,1,0,1,0,1,0,1,0,240,177,1,239,3,3,2,stim/32.jpeg,Instruments,2,stim/objects/Instruments/musicsheet2.png,0.9,4,0.2,-0.15,right,27,2020-12-04_09h06.34.048,premup-three_ses-02_part-02_label-phase2,3.2.4,MacIntel,60,,,,,,,,,,,,,,,,,,,,,,,,,,,,,
right,0.477000237,1,12,1,0,1,0,1,0,1,0,240,190,1,239,3,3,3,stim/33.jpeg,Instruments,2,stim/objects/Instruments/musicstand2.png,0.9,2,0.2,0.15,right,27,2020-12-04_09h06.34.048,premup-three_ses-02_part-02_label-phase2,3.2.4,MacIntel,60,,,,,,,,,,,,,,,,,,,,,,,,,,,,,
left,0.542000294,1,13,1,0,1,0,1,0,1,0,240,123,1,239,2,2,4,stim/24.jpeg,HouseObjects,1,stim/objects/HouseObjects/knife2.png,0.7,4,0.2,-0.15,left,27,2020-12-04_09h06.34.048,premup-three_ses-02_part-02_label-phase2,3.2.4,MacIntel,60,,,,,,,,,,,,,,,,,,,,,,,,,,,,,
left,0.663000107,0,14,1,0,1,0,1,0,1,0,240,63,1,239,1,6,4,stim/64.jpeg,Instruments,2,stim/objects/Instruments/oboe.png,0.5,3,-0.2,-0.15,right,27,2020-12-04_09h06.34.048,premup-three_ses-02_part-02_label-phase2,3.2.4,MacIntel,60,,,,,,,,,,,,,,,,,,,,,,,,,,,,,
right,0.569000244,1,15,1,0,1,0,1,0,1,0,240,165,1,239,3,3,2,stim/32.jpeg,Instruments,2,stim/objects/Instruments/musicsheet2.png,0.9,4,0.2,-0.15,right,27,2020-12-04_09h06.34.048,premup-three_ses-02_part-02_label-phase2,3.2.4,MacIntel,60,,,,,,,,,,,,,,,,,,,,,,,,,,,,,
right,0.719000101,1,16,1,0,1,0,1,0,1,0,240,20,1,239,1,5,1,stim/51.jpeg,Instruments,2,stim/objects/Instruments/keyboard.png,0.5,4,0.2,-0.15,right,27,2020-12-04_09h06.34.048,premup-three_ses-02_part-02_label-phase2,3.2.4,MacIntel,60,,,,,,,,,,,,,,,,,,,,,,,,,,,,,
left,0.496999979,0,17,1,0,1,0,1,0,1,0,240,25,1,239,1,5,2,stim/52.jpeg,Instruments,2,stim/objects/Instruments/laud.png,0.5,3,-0.2,-0.15,right,27,2020-12-04_09h06.34.048,premup-three_ses-02_part-02_label-phase2,3.2.4,MacIntel,60,,,,,,,,,,,,,,,,,,,,,,,,,,,,,
left,0.630000114,1,18,1,0,1,0,1,0,1,0,240,211,1,239,3,4,4,stim/44.jpeg,HouseObjects,1,stim/objects/HouseObjects/rug2.png,0.9,4,0.2,-0.15,left,27,2020-12-04_09h06.34.048,premup-three_ses-02_part-02_label-phase2,3.2.4,MacIntel,60,,,,,,,,,,,,,,,,,,,,,,,,,,,,,
right,0.622000217,1,19,1,0,1,0,1,0,1,0,240,105,1,239,2,1,2,stim/12.jpeg,Instruments,2,stim/objects/Instruments/pipepiano.png,0.7,2,0.2,0.15,right,27,2020-12-04_09h06.34.048,premup-three_ses-02_part-02_label-phase2,3.2.4,MacIntel,60,,,,,,,,,,,,,,,,,,,,,,,,,,,,,
right,0.663000107,1,20,1,0,1,0,1,0,1,0,240,110,1,239,2,1,3,stim/13.jpeg,Instruments,2,stim/objects/Instruments/record.png,0.7,4,0.2,-0.15,right,27,2020-12-04_09h06.34.048,premup-three_ses-02_part-02_label-phase2,3.2.4,MacIntel,60,,,,,,,,,,,,,,,,,,,,,,,,,,,,,
left,0.573000193,0,21,1,0,1,0,1,0,1,0,240,153,1,239,2,2,2,stim/22.jpeg,Instruments,2,stim/objects/Instruments/laud2.png,0.3,3,-0.2,-0.15,right,27,2020-12-04_09h06.34.048,premup-three_ses-02_part-02_label-phase2,3.2.4,MacIntel,60,,,,,,,,,,,,,,,,,,,,,,,,,,,,,
left,0.641000271,0,22,1,0,1,0,1,0,1,0,240,26,1,239,1,5,3,stim/53.jpeg,Instruments,2,stim/objects/Instruments/maraca.png,0.5,2,0.2,0.15,right,27,2020-12-04_09h06.34.048,premup-three_ses-02_part-02_label-phase2,3.2.4,MacIntel,60,,,,,,,,,,,,,,,,,,,,,,,,,,,,,
left,0.726000071,0,23,1,0,1,0,1,0,1,0,240,77,1,239,1,6,2,stim/62.jpeg,Instruments,2,stim/objects/Instruments/musicsheet.png,0.5,2,0.2,0.15,right,27,2020-12-04_09h06.34.048,premup-three_ses-02_part-02_label-phase2,3.2.4,MacIntel,60,,,,,,,,,,,,,,,,,,,,,,,,,,,,,
right,0.795000076,1,24,1,0,1,0,1,0,1,0,240,114,1,239,2,1,3,stim/13.jpeg,Instruments,2,stim/objects/Instruments/record.png,0.7,4,0.2,-0.15,right,27,2020-12-04_09h06.34.048,premup-three_ses-02_part-02_label-phase2,3.2.4,MacIntel,60,,,,,,,,,,,,,,,,,,,,,,,,,,,,,
left,0.668000221,0,25,1,0,1,0,1,0,1,0,240,31,1,239,1,5,4,stim/54.jpeg,Instruments,2,stim/objects/Instruments/marimba.png,0.5,3,-0.2,-0.15,right,27,2020-12-04_09h06.34.048,premup-three_ses-02_part-02_label-phase2,3.2.4,MacIntel,60,,,,,,,,,,,,,,,,,,,,,,,,,,,,,
left,0.560000181,1,26,1,0,1,0,1,0,1,0,240,127,1,239,2,2,4,stim/24.jpeg,HouseObjects,1,stim/objects/HouseObjects/knife2.png,0.7,4,0.2,-0.15,left,27,2020-12-04_09h06.34.048,premup-three_ses-02_part-02_label-phase2,3.2.4,MacIntel,60,,,,,,,,,,,,,,,,,,,,,,,,,,,,,
right,0.850000143,1,27,1,0,1,0,1,0,1,0,240,68,1,239,1,6,1,stim/61.jpeg,Instruments,2,stim/objects/Instruments/metronome.png,0.5,3,-0.2,-0.15,right,27,2020-12-04_09h06.34.048,premup-three_ses-02_part-02_label-phase2,3.2.4,MacIntel,60,,,,,,,,,,,,,,,,,,,,,,,,,,,,,
left,0.596000195,1,28,1,0,1,0,1,0,1,0,240,41,1,239,1,6,2,stim/62.jpeg,HouseObjects,1,stim/objects/HouseObjects/match.png,0.5,3,-0.2,-0.15,left,27,2020-12-04_09h06.34.048,premup-three_ses-02_part-02_label-phase2,3.2.4,MacIntel,60,,,,,,,,,,,,,,,,,,,,,,,,,,,,,
right,0.825000286,1,29,1,0,1,0,1,0,1,0,240,98,1,239,2,1,3,stim/13.jpeg,Instruments,2,stim/objects/Instruments/record.png,0.7,2,0.2,0.15,right,27,2020-12-04_09h06.34.048,premup-three_ses-02_part-02_label-phase2,3.2.4,MacIntel,60,,,,,,,,,,,,,,,,,,,,,,,,,,,,,
left,0.56400013,1,30,1,0,1,0,1,0,1,0,240,216,1,239,3,4,1,stim/41.jpeg,HouseObjects,1,stim/objects/HouseObjects/recyclingbin2.png,0.9,2,0.2,0.15,left,27,2020-12-04_09h06.34.048,premup-three_ses-02_part-02_label-phase2,3.2.4,MacIntel,60,,,,,,,,,,,,,,,,,,,,,,,,,,,,,
,,0,31,1,0,1,0,1,0,1,0,240,133,1,239,2,2,2,stim/22.jpeg,HouseObjects,1,stim/objects/HouseObjects/ironingboard2.png,0.7,1,-0.2,0.15,left,27,2020-12-04_09h06.34.048,premup-three_ses-02_part-02_label-phase2,3.2.4,MacIntel,60,,,,,,,,,,,,,,,,,,,,,,,,,,,,,
right,0.711000204,0,32,1,0,1,0,1,0,1,0,240,43,1,239,1,6,4,stim/64.jpeg,HouseObjects,1,stim/objects/HouseObjects/pitcher.png,0.5,3,-0.2,-0.15,left,27,2020-12-04_09h06.34.048,premup-three_ses-02_part-02_label-phase2,3.2.4,MacIntel,60,,,,,,,,,,,,,,,,,,,,,,,,,,,,,
right,0.488000154,1,33,1,0,1,0,1,0,1,0,240,107,1,239,2,1,4,stim/14.jpeg,Instruments,2,stim/objects/Instruments/record_player.png,0.7,2,0.2,0.15,right,27,2020-12-04_09h06.34.048,premup-three_ses-02_part-02_label-phase2,3.2.4,MacIntel,60,,,,,,,,,,,,,,,,,,,,,,,,,,,,,
right,0.624000072,1,34,1,0,1,0,1,0,1,0,240,118,1,239,2,1,3,stim/13.jpeg,Instruments,2,stim/objects/Instruments/record.png,0.7,1,-0.2,0.15,right,27,2020-12-04_09h06.34.048,premup-three_ses-02_part-02_label-phase2,3.2.4,MacIntel,60,,,,,,,,,,,,,,,,,,,,,,,,,,,,,
,,0,35,1,0,1,0,1,0,1,0,240,157,1,239,2,2,2,stim/22.jpeg,Instruments,2,stim/objects/Instruments/laud2.png,0.3,4,0.2,-0.15,right,27,2020-12-04_09h06.34.048,premup-three_ses-02_part-02_label-phase2,3.2.4,MacIntel,60,,,,,,,,,,,,,,,,,,,,,,,,,,,,,
left,0.627000332,1,36,1,0,1,0,1,0,1,0,240,200,1,239,3,4,1,stim/41.jpeg,HouseObjects,1,stim/objects/HouseObjects/recyclingbin2.png,0.9,1,-0.2,0.15,left,27,2020-12-04_09h06.34.048,premup-three_ses-02_part-02_label-phase2,3.2.4,MacIntel,60,,,,,,,,,,,,,,,,,,,,,,,,,,,,,
left,0.596000195,0,37,1,0,1,0,1,0,1,0,240,158,1,239,2,2,3,stim/23.jpeg,Instruments,2,stim/objects/Instruments/maraca2.png,0.3,1,-0.2,0.15,right,27,2020-12-04_09h06.34.048,premup-three_ses-02_part-02_label-phase2,3.2.4,MacIntel,60,,,,,,,,,,,,,,,,,,,,,,,,,,,,,
left,0.712000132,1,38,1,0,1,0,1,0,1,0,240,126,1,239,2,2,3,stim/23.jpeg,HouseObjects,1,stim/objects/HouseObjects/key2.png,0.7,1,-0.2,0.15,left,27,2020-12-04_09h06.34.048,premup-three_ses-02_part-02_label-phase2,3.2.4,MacIntel,60,,,,,,,,,,,,,,,,,,,,,,,,,,,,,
left,0.6650002,1,39,1,0,1,0,1,0,1,0,240,213,1,239,3,4,2,stim/42.jpeg,HouseObjects,1,stim/objects/HouseObjects/remote2.png,0.9,2,0.2,0.15,left,27,2020-12-04_09h06.34.048,premup-three_ses-02_part-02_label-phase2,3.2.4,MacIntel,60,,,,,,,,,,,,,,,,,,,,,,,,,,,,,
right,0.565000057,1,40,1,0,1,0,1,0,1,0,240,111,1,239,2,1,4,stim/14.jpeg,Instruments,2,stim/objects/Instruments/record_player.png,0.7,3,-0.2,-0.15,right,27,2020-12-04_09h06.34.048,premup-three_ses-02_part-02_label-phase2,3.2.4,MacIntel,60,,,,,,,,,,,,,,,,,,,,,,,,,,,,,
left,0.627000093,1,41,1,0,1,0,1,0,1,0,240,234,1,239,3,4,3,stim/43.jpeg,HouseObjects,1,stim/objects/HouseObjects/rubbergloves2.png,0.9,1,-0.2,0.15,left,27,2020-12-04_09h06.34.048,premup-three_ses-02_part-02_label-phase2,3.2.4,MacIntel,60,,,,,,,,,,,,,,,,,,,,,,,,,,,,,
left,0.619000196,1,42,1,0,1,0,1,0,1,0,240,134,1,239,2,2,3,stim/23.jpeg,HouseObjects,1,stim/objects/HouseObjects/key2.png,0.7,2,0.2,0.15,left,27,2020-12-04_09h06.34.048,premup-three_ses-02_part-02_label-phase2,3.2.4,MacIntel,60,,,,,,,,,,,,,,,,,,,,,,,,,,,,,
left,0.563000202,1,43,1,0,1,0,1,0,1,0,240,137,1,239,2,2,2,stim/22.jpeg,HouseObjects,1,stim/objects/HouseObjects/ironingboard2.png,0.7,3,-0.2,-0.15,left,27,2020-12-04_09h06.34.048,premup-three_ses-02_part-02_label-phase2,3.2.4,MacIntel,60,,,,,,,,,,,,,,,,,,,,,,,,,,,,,
right,0.450000048,1,44,1,0,1,0,1,0,1,0,240,172,1,239,3,3,1,stim/31.jpeg,Instruments,2,stim/objects/Instruments/metronome2.png,0.9,1,-0.2,0.15,right,27,2020-12-04_09h06.34.048,premup-three_ses-02_part-02_label-phase2,3.2.4,MacIntel,60,,,,,,,,,,,,,,,,,,,,,,,,,,,,,
right,0.52300024,1,45,1,0,1,0,1,0,1,0,240,113,1,239,2,1,2,stim/12.jpeg,Instruments,2,stim/objects/Instruments/pipepiano.png,0.7,1,-0.2,0.15,right,27,2020-12-04_09h06.34.048,premup-three_ses-02_part-02_label-phase2,3.2.4,MacIntel,60,,,,,,,,,,,,,,,,,,,,,,,,,,,,,
right,0.413000107,1,46,1,0,1,0,1,0,1,0,240,178,1,239,3,3,3,stim/33.jpeg,Instruments,2,stim/objects/Instruments/musicstand2.png,0.9,4,0.2,-0.15,right,27,2020-12-04_09h06.34.048,premup-three_ses-02_part-02_label-phase2,3.2.4,MacIntel,60,,,,,,,,,,,,,,,,,,,,,,,,,,,,,
right,0.502000332,1,47,1,0,1,0,1,0,1,0,240,168,1,239,3,3,1,stim/31.jpeg,Instruments,2,stim/objects/Instruments/metronome2.png,0.9,4,0.2,-0.15,right,27,2020-12-04_09h06.34.048,premup-three_ses-02_part-02_label-phase2,3.2.4,MacIntel,60,,,,,,,,,,,,,,,,,,,,,,,,,,,,,
left,0.531000137,0,48,1,0,1,0,1,0,1,0,240,30,1,239,1,5,3,stim/53.jpeg,Instruments,2,stim/objects/Instruments/maraca.png,0.5,3,-0.2,-0.15,right,27,2020-12-04_09h06.34.048,premup-three_ses-02_part-02_label-phase2,3.2.4,MacIntel,60,,,,,,,,,,,,,,,,,,,,,,,,,,,,,
left,0.532999992,1,49,1,0,1,0,1,0,1,0,240,229,1,239,3,4,2,stim/42.jpeg,HouseObjects,1,stim/objects/HouseObjects/remote2.png,0.9,3,-0.2,-0.15,left,27,2020-12-04_09h06.34.048,premup-three_ses-02_part-02_label-phase2,3.2.4,MacIntel,60,,,,,,,,,,,,,,,,,,,,,,,,,,,,,
left,0.718000174,1,50,1,0,1,0,1,0,1,0,240,55,1,239,1,6,4,stim/64.jpeg,HouseObjects,1,stim/objects/HouseObjects/pitcher.png,0.5,1,-0.2,0.15,left,27,2020-12-04_09h06.34.048,premup-three_ses-02_part-02_label-phase2,3.2.4,MacIntel,60,,,,,,,,,,,,,,,,,,,,,,,,,,,,,
right,0.671000242,0,51,1,0,1,0,1,0,1,0,240,50,1,239,1,6,3,stim/63.jpeg,HouseObjects,1,stim/objects/HouseObjects/pan.png,0.5,4,0.2,-0.15,left,27,2020-12-04_09h06.34.048,premup-three_ses-02_part-02_label-phase2,3.2.4,MacIntel,60,,,,,,,,,,,,,,,,,,,,,,,,,,,,,
right,0.525000095,1,52,1,0,1,0,1,0,1,0,240,171,1,239,3,3,4,stim/34.jpeg,Instruments,2,stim/objects/Instruments/oboe2.png,0.9,2,0.2,0.15,right,27,2020-12-04_09h06.34.048,premup-three_ses-02_part-02_label-phase2,3.2.4,MacIntel,60,,,,,,,,,,,,,,,,,,,,,,,,,,,,,
left,0.558000088,1,53,1,0,1,0,1,0,1,0,240,231,1,239,3,4,4,stim/44.jpeg,HouseObjects,1,stim/objects/HouseObjects/rug2.png,0.9,2,0.2,0.15,left,27,2020-12-04_09h06.34.048,premup-three_ses-02_part-02_label-phase2,3.2.4,MacIntel,60,,,,,,,,,,,,,,,,,,,,,,,,,,,,,
left,0.657000303,0,54,1,0,1,0,1,0,1,0,240,150,1,239,2,2,3,stim/23.jpeg,Instruments,2,stim/objects/Instruments/maraca2.png,0.3,1,-0.2,0.15,right,27,2020-12-04_09h06.34.048,premup-three_ses-02_part-02_label-phase2,3.2.4,MacIntel,60,,,,,,,,,,,,,,,,,,,,,,,,,,,,,
left,0.610000134,1,55,1,0,1,0,1,0,1,0,240,11,1,239,1,5,4,stim/54.jpeg,HouseObjects,1,stim/objects/HouseObjects/knife.png,0.5,1,-0.2,0.15,left,27,2020-12-04_09h06.34.048,premup-three_ses-02_part-02_label-phase2,3.2.4,MacIntel,60,,,,,,,,,,,,,,,,,,,,,,,,,,,,,
,,0,56,1,0,1,0,1,0,1,0,240,60,1,239,1,6,1,stim/61.jpeg,Instruments,2,stim/objects/Instruments/metronome.png,0.5,2,0.2,0.15,right,27,2020-12-04_09h06.34.048,premup-three_ses-02_part-02_label-phase2,3.2.4,MacIntel,60,,,,,,,,,,,,,,,,,,,,,,,,,,,,,
right,0.59800005,1,57,1,0,1,0,1,0,1,0,240,116,1,239,2,1,1,stim/11.jpeg,Instruments,2,stim/objects/Instruments/panflute.png,0.7,3,-0.2,-0.15,right,27,2020-12-04_09h06.34.048,premup-three_ses-02_part-02_label-phase2,3.2.4,MacIntel,60,,,,,,,,,,,,,,,,,,,,,,,,,,,,,
left,0.696000099,1,58,1,0,1,0,1,0,1,0,240,59,1,239,1,6,4,stim/64.jpeg,HouseObjects,1,stim/objects/HouseObjects/pitcher.png,0.5,4,0.2,-0.15,left,27,2020-12-04_09h06.34.048,premup-three_ses-02_part-02_label-phase2,3.2.4,MacIntel,60,,,,,,,,,,,,,,,,,,,,,,,,,,,,,
,,0,59,1,0,1,0,1,0,1,0,240,161,1,239,3,3,2,stim/32.jpeg,HouseObjects,1,stim/objects/HouseObjects/match2.png,0.1,4,0.2,-0.15,left,27,2020-12-04_09h06.34.048,premup-three_ses-02_part-02_label-phase2,3.2.4,MacIntel,60,,,,,,,,,,,,,,,,,,,,,,,,,,,,,
left,0.71600008,0,60,1,0,1,0,1,0,1,0,240,67,1,239,1,6,4,stim/64.jpeg,Instruments,2,stim/objects/Instruments/oboe.png,0.5,2,0.2,0.15,right,27,2020-12-04_09h06.34.048,premup-three_ses-02_part-02_label-phase2,3.2.4,MacIntel,60,,,,,,,,,,,,,,,,,,,,,,,,,,,,,
left,0.696000338,1,61,1,0,1,0,1,0,1,0,240,42,1,239,1,6,3,stim/63.jpeg,HouseObjects,1,stim/objects/HouseObjects/pan.png,0.5,1,-0.2,0.15,left,27,2020-12-04_09h06.34.048,premup-three_ses-02_part-02_label-phase2,3.2.4,MacIntel,60,,,,,,,,,,,,,,,,,,,,,,,,,,,,,
left,0.684000015,1,62,1,0,1,0,1,0,1,0,240,138,1,239,2,2,3,stim/23.jpeg,HouseObjects,1,stim/objects/HouseObjects/key2.png,0.7,1,-0.2,0.15,left,27,2020-12-04_09h06.34.048,premup-three_ses-02_part-02_label-phase2,3.2.4,MacIntel,60,,,,,,,,,,,,,,,,,,,,,,,,,,,,,
right,0.401000261,1,63,1,0,1,0,1,0,1,0,240,198,1,239,3,3,3,stim/33.jpeg,Instruments,2,stim/objects/Instruments/musicstand2.png,0.9,2,0.2,0.15,right,27,2020-12-04_09h06.34.048,premup-three_ses-02_part-02_label-phase2,3.2.4,MacIntel,60,,,,,,,,,,,,,,,,,,,,,,,,,,,,,
left,0.696000338,1,64,1,0,1,0,1,0,1,0,240,46,1,239,1,6,3,stim/63.jpeg,HouseObjects,1,stim/objects/HouseObjects/pan.png,0.5,4,0.2,-0.15,left,27,2020-12-04_09h06.34.048,premup-three_ses-02_part-02_label-phase2,3.2.4,MacIntel,60,,,,,,,,,,,,,,,,,,,,,,,,,,,,,
right,0.442000151,1,65,1,0,1,0,1,0,1,0,240,170,1,239,3,3,3,stim/33.jpeg,Instruments,2,stim/objects/Instruments/musicstand2.png,0.9,1,-0.2,0.15,right,27,2020-12-04_09h06.34.048,premup-three_ses-02_part-02_label-phase2,3.2.4,MacIntel,60,,,,,,,,,,,,,,,,,,,,,,,,,,,,,
left,0.566000223,0,66,1,0,1,0,1,0,1,0,240,149,1,239,2,2,2,stim/22.jpeg,Instruments,2,stim/objects/Instruments/laud2.png,0.3,4,0.2,-0.15,right,27,2020-12-04_09h06.34.048,premup-three_ses-02_part-02_label-phase2,3.2.4,MacIntel,60,,,,,,,,,,,,,,,,,,,,,,,,,,,,,
right,0.457999945,0,67,1,0,1,0,1,0,1,0,240,86,1,239,2,1,3,stim/13.jpeg,HouseObjects,1,stim/objects/HouseObjects/rubbergloves.png,0.3,4,0.2,-0.15,left,27,2020-12-04_09h06.34.048,premup-three_ses-02_part-02_label-phase2,3.2.4,MacIntel,60,,,,,,,,,,,,,,,,,,,,,,,,,,,,,
left,0.580000162,1,68,1,0,1,0,1,0,1,0,240,2,1,239,1,5,3,stim/53.jpeg,HouseObjects,1,stim/objects/HouseObjects/key.png,0.5,1,-0.2,0.15,left,27,2020-12-04_09h06.34.048,premup-three_ses-02_part-02_label-phase2,3.2.4,MacIntel,60,,,,,,,,,,,,,,,,,,,,,,,,,,,,,
left,0.570000172,1,69,1,0,1,0,1,0,1,0,240,214,1,239,3,4,3,stim/43.jpeg,HouseObjects,1,stim/objects/HouseObjects/rubbergloves2.png,0.9,2,0.2,0.15,left,27,2020-12-04_09h06.34.048,premup-three_ses-02_part-02_label-phase2,3.2.4,MacIntel,60,,,,,,,,,,,,,,,,,,,,,,,,,,,,,
right,0.408000231,1,70,1,0,1,0,1,0,1,0,240,196,1,239,3,3,1,stim/31.jpeg,Instruments,2,stim/objects/Instruments/metronome2.png,0.9,1,-0.2,0.15,right,27,2020-12-04_09h06.34.048,premup-three_ses-02_part-02_label-phase2,3.2.4,MacIntel,60,,,,,,,,,,,,,,,,,,,,,,,,,,,,,
right,0.772000074,1,71,1,0,1,0,1,0,1,0,240,106,1,239,2,1,3,stim/13.jpeg,Instruments,2,stim/objects/Instruments/record.png,0.7,4,0.2,-0.15,right,27,2020-12-04_09h06.34.048,premup-three_ses-02_part-02_label-phase2,3.2.4,MacIntel,60,,,,,,,,,,,,,,,,,,,,,,,,,,,,,
left,0.455000162,0,72,1,0,1,0,1,0,1,0,240,159,1,239,2,2,4,stim/24.jpeg,Instruments,2,stim/objects/Instruments/marimba2.png,0.3,2,0.2,0.15,right,27,2020-12-04_09h06.34.048,premup-three_ses-02_part-02_label-phase2,3.2.4,MacIntel,60,,,,,,,,,,,,,,,,,,,,,,,,,,,,,
right,0.441000223,1,73,1,0,1,0,1,0,1,0,240,173,1,239,3,3,2,stim/32.jpeg,Instruments,2,stim/objects/Instruments/musicsheet2.png,0.9,4,0.2,-0.15,right,27,2020-12-04_09h06.34.048,premup-three_ses-02_part-02_label-phase2,3.2.4,MacIntel,60,,,,,,,,,,,,,,,,,,,,,,,,,,,,,
left,0.583000183,1,74,1,0,1,0,1,0,1,0,240,202,1,239,3,4,3,stim/43.jpeg,HouseObjects,1,stim/objects/HouseObjects/rubbergloves2.png,0.9,4,0.2,-0.15,left,27,2020-12-04_09h06.34.048,premup-three_ses-02_part-02_label-phase2,3.2.4,MacIntel,60,,,,,,,,,,,,,,,,,,,,,,,,,,,,,
right,0.57400012,1,75,1,0,1,0,1,0,1,0,240,183,1,239,3,3,4,stim/34.jpeg,Instruments,2,stim/objects/Instruments/oboe2.png,0.9,1,-0.2,0.15,right,27,2020-12-04_09h06.34.048,premup-three_ses-02_part-02_label-phase2,3.2.4,MacIntel,60,,,,,,,,,,,,,,,,,,,,,,,,,,,,,
left,0.620000362,1,76,1,0,1,0,1,0,1,0,240,1,1,239,1,5,2,stim/52.jpeg,HouseObjects,1,stim/objects/HouseObjects/ironingboard.png,0.5,2,0.2,0.15,left,27,2020-12-04_09h06.34.048,premup-three_ses-02_part-02_label-phase2,3.2.4,MacIntel,60,,,,,,,,,,,,,,,,,,,,,,,,,,,,,
right,0.528000355,0,77,1,0,1,0,1,0,1,0,240,81,1,239,2,1,2,stim/12.jpeg,HouseObjects,1,stim/objects/HouseObjects/remote.png,0.3,2,0.2,0.15,left,27,2020-12-04_09h06.34.048,premup-three_ses-02_part-02_label-phase2,3.2.4,MacIntel,60,,,,,,,,,,,,,,,,,,,,,,,,,,,,,
,,0,78,1,0,1,0,1,0,1,0,240,82,1,239,2,1,3,stim/13.jpeg,HouseObjects,1,stim/objects/HouseObjects/rubbergloves.png,0.3,4,0.2,-0.15,left,27,2020-12-04_09h06.34.048,premup-three_ses-02_part-02_label-phase2,3.2.4,MacIntel,60,,,,,,,,,,,,,,,,,,,,,,,,,,,,,
right,0.489000082,1,79,1,0,1,0,1,0,1,0,240,115,1,239,2,1,4,stim/14.jpeg,Instruments,2,stim/objects/Instruments/record_player.png,0.7,4,0.2,-0.15,right,27,2020-12-04_09h06.34.048,premup-three_ses-02_part-02_label-phase2,3.2.4,MacIntel,60,,,,,,,,,,,,,,,,,,,,,,,,,,,,,
left,0.582000256,0,80,1,0,1,0,1,0,1,0,240,148,1,239,2,2,1,stim/21.jpeg,Instruments,2,stim/objects/Instruments/keyboard2.png,0.3,2,0.2,0.15,right,27,2020-12-04_09h06.34.048,premup-three_ses-02_part-02_label-phase2,3.2.4,MacIntel,60,,,,,,,,,,,,,,,,,,,,,,,,,,,,,
right,0.541000128,1,81,1,0,1,0,1,0,1,0,240,96,1,239,2,1,1,stim/11.jpeg,Instruments,2,stim/objects/Instruments/panflute.png,0.7,2,0.2,0.15,right,27,2020-12-04_09h06.34.048,premup-three_ses-02_part-02_label-phase2,3.2.4,MacIntel,60,,,,,,,,,,,,,,,,,,,,,,,,,,,,,
left,0.57400012,1,82,1,0,1,0,1,0,1,0,240,145,1,239,2,2,2,stim/22.jpeg,HouseObjects,1,stim/objects/HouseObjects/ironingboard2.png,0.7,3,-0.2,-0.15,left,27,2020-12-04_09h06.34.048,premup-three_ses-02_part-02_label-phase2,3.2.4,MacIntel,60,,,,,,,,,,,,,,,,,,,,,,,,,,,,,
left,0.562000275,1,83,1,0,1,0,1,0,1,0,240,220,1,239,3,4,1,stim/41.jpeg,HouseObjects,1,stim/objects/HouseObjects/recyclingbin2.png,0.9,1,-0.2,0.15,left,27,2020-12-04_09h06.34.048,premup-three_ses-02_part-02_label-phase2,3.2.4,MacIntel,60,,,,,,,,,,,,,,,,,,,,,,,,,,,,,
right,0.472000122,0,84,1,0,1,0,1,0,1,0,240,162,1,239,3,3,3,stim/33.jpeg,HouseObjects,1,stim/objects/HouseObjects/pan2.png,0.1,4,0.2,-0.15,left,27,2020-12-04_09h06.34.048,premup-three_ses-02_part-02_label-phase2,3.2.4,MacIntel,60,,,,,,,,,,,,,,,,,,,,,,,,,,,,,
right,0.597000122,0,85,1,0,1,0,1,0,1,0,240,6,1,239,1,5,3,stim/53.jpeg,HouseObjects,1,stim/objects/HouseObjects/key.png,0.5,4,0.2,-0.15,left,27,2020-12-04_09h06.34.048,premup-three_ses-02_part-02_label-phase2,3.2.4,MacIntel,60,,,,,,,,,,,,,,,,,,,,,,,,,,,,,
left,0.656000137,1,86,1,0,1,0,1,0,1,0,240,206,1,239,3,4,3,stim/43.jpeg,HouseObjects,1,stim/objects/HouseObjects/rubbergloves2.png,0.9,3,-0.2,-0.15,left,27,2020-12-04_09h06.34.048,premup-three_ses-02_part-02_label-phase2,3.2.4,MacIntel,60,,,,,,,,,,,,,,,,,,,,,,,,,,,,,
right,0.519000053,1,87,1,0,1,0,1,0,1,0,240,180,1,239,3,3,1,stim/31.jpeg,Instruments,2,stim/objects/Instruments/metronome2.png,0.9,2,0.2,0.15,right,27,2020-12-04_09h06.34.048,premup-three_ses-02_part-02_label-phase2,3.2.4,MacIntel,60,,,,,,,,,,,,,,,,,,,,,,,,,,,,,
,,0,88,1,0,1,0,1,0,1,0,240,151,1,239,2,2,4,stim/24.jpeg,Instruments,2,stim/objects/Instruments/marimba2.png,0.3,3,-0.2,-0.15,right,27,2020-12-04_09h06.34.048,premup-three_ses-02_part-02_label-phase2,3.2.4,MacIntel,60,,,,,,,,,,,,,,,,,,,,,,,,,,,,,
left,0.641000032,1,89,1,0,1,0,1,0,1,0,240,215,1,239,3,4,4,stim/44.jpeg,HouseObjects,1,stim/objects/HouseObjects/rug2.png,0.9,4,0.2,-0.15,left,27,2020-12-04_09h06.34.048,premup-three_ses-02_part-02_label-phase2,3.2.4,MacIntel,60,,,,,,,,,,,,,,,,,,,,,,,,,,,,,
right,0.527000189,1,90,1,0,1,0,1,0,1,0,240,169,1,239,3,3,2,stim/32.jpeg,Instruments,2,stim/objects/Instruments/musicsheet2.png,0.9,3,-0.2,-0.15,right,27,2020-12-04_09h06.34.048,premup-three_ses-02_part-02_label-phase2,3.2.4,MacIntel,60,,,,,,,,,,,,,,,,,,,,,,,,,,,,,
right,0.400000334,0,91,1,0,1,0,1,0,1,0,240,45,1,239,1,6,2,stim/62.jpeg,HouseObjects,1,stim/objects/HouseObjects/match.png,0.5,4,0.2,-0.15,left,27,2020-12-04_09h06.34.048,premup-three_ses-02_part-02_label-phase2,3.2.4,MacIntel,60,,,,,,,,,,,,,,,,,,,,,,,,,,,,,
right,0.543000221,1,92,1,0,1,0,1,0,1,0,240,195,1,239,3,3,4,stim/34.jpeg,Instruments,2,stim/objects/Instruments/oboe2.png,0.9,3,-0.2,-0.15,right,27,2020-12-04_09h06.34.048,premup-three_ses-02_part-02_label-phase2,3.2.4,MacIntel,60,,,,,,,,,,,,,,,,,,,,,,,,,,,,,
right,0.507000208,1,93,1,0,1,0,1,0,1,0,240,175,1,239,3,3,4,stim/34.jpeg,Instruments,2,stim/objects/Instruments/oboe2.png,0.9,2,0.2,0.15,right,27,2020-12-04_09h06.34.048,premup-three_ses-02_part-02_label-phase2,3.2.4,MacIntel,60,,,,,,,,,,,,,,,,,,,,,,,,,,,,,
left,0.446000338,1,94,1,0,1,0,1,0,1,0,240,130,1,239,2,2,3,stim/23.jpeg,HouseObjects,1,stim/objects/HouseObjects/key2.png,0.7,3,-0.2,-0.15,left,27,2020-12-04_09h06.34.048,premup-three_ses-02_part-02_label-phase2,3.2.4,MacIntel,60,,,,,,,,,,,,,,,,,,,,,,,,,,,,,
left,0.624000072,0,95,1,0,1,0,1,0,1,0,240,66,1,239,1,6,3,stim/63.jpeg,Instruments,2,stim/objects/Instruments/musicstand.png,0.5,1,-0.2,0.15,right,27,2020-12-04_09h06.34.048,premup-three_ses-02_part-02_label-phase2,3.2.4,MacIntel,60,,,,,,,,,,,,,,,,,,,,,,,,,,,,,
right,0.529000044,1,96,1,0,1,0,1,0,1,0,240,92,1,239,2,1,1,stim/11.jpeg,Instruments,2,stim/objects/Instruments/panflute.png,0.7,1,-0.2,0.15,right,27,2020-12-04_09h06.34.048,premup-three_ses-02_part-02_label-phase2,3.2.4,MacIntel,60,,,,,,,,,,,,,,,,,,,,,,,,,,,,,
right,0.650000334,1,97,1,0,1,0,1,0,1,0,240,32,1,239,1,5,1,stim/51.jpeg,Instruments,2,stim/objects/Instruments/keyboard.png,0.5,1,-0.2,0.15,right,27,2020-12-04_09h06.34.048,premup-three_ses-02_part-02_label-phase2,3.2.4,MacIntel,60,,,,,,,,,,,,,,,,,,,,,,,,,,,,,
left,0.63100028,1,98,1,0,1,0,1,0,1,0,240,224,1,239,3,4,1,stim/41.jpeg,HouseObjects,1,stim/objects/HouseObjects/recyclingbin2.png,0.9,1,-0.2,0.15,left,27,2020-12-04_09h06.34.048,premup-three_ses-02_part-02_label-phase2,3.2.4,MacIntel,60,,,,,,,,,,,,,,,,,,,,,,,,,,,,,
right,0.440000057,0,99,1,0,1,0,1,0,1,0,240,160,1,239,3,3,1,stim/31.jpeg,HouseObjects,1,stim/objects/HouseObjects/lintroller2.png,0.1,4,0.2,-0.15,left,27,2020-12-04_09h06.34.048,premup-three_ses-02_part-02_label-phase2,3.2.4,MacIntel,60,,,,,,,,,,,,,,,,,,,,,,,,,,,,,
right,0.448000193,0,100,1,0,1,0,1,0,1,0,240,89,1,239,2,1,2,stim/12.jpeg,HouseObjects,1,stim/objects/HouseObjects/remote.png,0.3,1,-0.2,0.15,left,27,2020-12-04_09h06.34.048,premup-three_ses-02_part-02_label-phase2,3.2.4,MacIntel,60,,,,,,,,,,,,,,,,,,,,,,,,,,,,,
left,0.769000292,1,101,1,0,1,0,1,0,1,0,240,47,1,239,1,6,4,stim/64.jpeg,HouseObjects,1,stim/objects/HouseObjects/pitcher.png,0.5,3,-0.2,-0.15,left,27,2020-12-04_09h06.34.048,premup-three_ses-02_part-02_label-phase2,3.2.4,MacIntel,60,,,,,,,,,,,,,,,,,,,,,,,,,,,,,
left,0.740000248,0,102,1,0,1,0,1,0,1,0,240,156,1,239,2,2,1,stim/21.jpeg,Instruments,2,stim/objects/Instruments/keyboard2.png,0.3,4,0.2,-0.15,right,27,2020-12-04_09h06.34.048,premup-three_ses-02_part-02_label-phase2,3.2.4,MacIntel,60,,,,,,,,,,,,,,,,,,,,,,,,,,,,,
right,0.805000067,1,103,1,0,1,0,1,0,1,0,240,34,1,239,1,5,3,stim/53.jpeg,Instruments,2,stim/objects/Instruments/maraca.png,0.5,2,0.2,0.15,right,27,2020-12-04_09h06.34.048,premup-three_ses-02_part-02_label-phase2,3.2.4,MacIntel,60,,,,,,,,,,,,,,,,,,,,,,,,,,,,,
right,0.690999985,1,104,1,0,1,0,1,0,1,0,240,27,1,239,1,5,4,stim/54.jpeg,Instruments,2,stim/objects/Instruments/marimba.png,0.5,2,0.2,0.15,right,27,2020-12-04_09h06.34.048,premup-three_ses-02_part-02_label-phase2,3.2.4,MacIntel,60,,,,,,,,,,,,,,,,,,,,,,,,,,,,,
left,0.686000109,1,105,1,0,1,0,1,0,1,0,240,205,1,239,3,4,2,stim/42.jpeg,HouseObjects,1,stim/objects/HouseObjects/remote2.png,0.9,3,-0.2,-0.15,left,27,2020-12-04_09h06.34.048,premup-three_ses-02_part-02_label-phase2,3.2.4,MacIntel,60,,,,,,,,,,,,,,,,,,,,,,,,,,,,,
left,0.529000044,0,106,1,0,1,0,1,0,1,0,240,39,1,239,1,5,4,stim/54.jpeg,Instruments,2,stim/objects/Instruments/marimba.png,0.5,3,-0.2,-0.15,right,27,2020-12-04_09h06.34.048,premup-three_ses-02_part-02_label-phase2,3.2.4,MacIntel,60,,,,,,,,,,,,,,,,,,,,,,,,,,,,,
left,0.741000175,1,107,1,0,1,0,1,0,1,0,240,48,1,239,1,6,1,stim/61.jpeg,HouseObjects,1,stim/objects/HouseObjects/lintroller.png,0.5,2,0.2,0.15,left,27,2020-12-04_09h06.34.048,premup-three_ses-02_part-02_label-phase2,3.2.4,MacIntel,60,,,,,,,,,,,,,,,,,,,,,,,,,,,,,
right,0.521000147,1,108,1,0,1,0,1,0,1,0,240,108,1,239,2,1,1,stim/11.jpeg,Instruments,2,stim/objects/Instruments/panflute.png,0.7,1,-0.2,0.15,right,27,2020-12-04_09h06.34.048,premup-three_ses-02_part-02_label-phase2,3.2.4,MacIntel,60,,,,,,,,,,,,,,,,,,,,,,,,,,,,,
right,0.486000061,1,109,1,0,1,0,1,0,1,0,240,192,1,239,3,3,1,stim/31.jpeg,Instruments,2,stim/objects/Instruments/metronome2.png,0.9,3,-0.2,-0.15,right,27,2020-12-04_09h06.34.048,premup-three_ses-02_part-02_label-phase2,3.2.4,MacIntel,60,,,,,,,,,,,,,,,,,,,,,,,,,,,,,
left,0.774000168,0,110,1,0,1,0,1,0,1,0,240,76,1,239,1,6,1,stim/61.jpeg,Instruments,2,stim/objects/Instruments/metronome.png,0.5,3,-0.2,-0.15,right,27,2020-12-04_09h06.34.048,premup-three_ses-02_part-02_label-phase2,3.2.4,MacIntel,60,,,,,,,,,,,,,,,,,,,,,,,,,,,,,
left,0.601000071,1,111,1,0,1,0,1,0,1,0,240,228,1,239,3,4,1,stim/41.jpeg,HouseObjects,1,stim/objects/HouseObjects/recyclingbin2.png,0.9,1,-0.2,0.15,left,27,2020-12-04_09h06.34.048,premup-three_ses-02_part-02_label-phase2,3.2.4,MacIntel,60,,,,,,,,,,,,,,,,,,,,,,,,,,,,,
right,0.575000286,1,112,1,0,1,0,1,0,1,0,240,193,1,239,3,3,2,stim/32.jpeg,Instruments,2,stim/objects/Instruments/musicsheet2.png,0.9,3,-0.2,-0.15,right,27,2020-12-04_09h06.34.048,premup-three_ses-02_part-02_label-phase2,3.2.4,MacIntel,60,,,,,,,,,,,,,,,,,,,,,,,,,,,,,
right,0.751000166,1,113,1,0,1,0,1,0,1,0,240,23,1,239,1,5,4,stim/54.jpeg,Instruments,2,stim/objects/Instruments/marimba.png,0.5,2,0.2,0.15,right,27,2020-12-04_09h06.34.048,premup-three_ses-02_part-02_label-phase2,3.2.4,MacIntel,60,,,,,,,,,,,,,,,,,,,,,,,,,,,,,
right,0.791000366,0,114,1,0,1,0,1,0,1,0,240,142,1,239,2,2,3,stim/23.jpeg,HouseObjects,1,stim/objects/HouseObjects/key2.png,0.7,3,-0.2,-0.15,left,27,2020-12-04_09h06.34.048,premup-three_ses-02_part-02_label-phase2,3.2.4,MacIntel,60,,,,,,,,,,,,,,,,,,,,,,,,,,,,,
right,0.650000095,0,115,1,0,1,0,1,0,1,0,240,80,1,239,2,1,1,stim/11.jpeg,HouseObjects,1,stim/objects/HouseObjects/recyclingbin.png,0.3,1,-0.2,0.15,left,27,2020-12-04_09h06.34.048,premup-three_ses-02_part-02_label-phase2,3.2.4,MacIntel,60,,,,,,,,,,,,,,,,,,,,,,,,,,,,,
right,0.486000061,1,116,1,0,1,0,1,0,1,0,240,199,1,239,3,3,4,stim/34.jpeg,Instruments,2,stim/objects/Instruments/oboe2.png,0.9,1,-0.2,0.15,right,27,2020-12-04_09h06.34.048,premup-three_ses-02_part-02_label-phase2,3.2.4,MacIntel,60,,,,,,,,,,,,,,,,,,,,,,,,,,,,,
right,0.675000191,0,117,1,0,1,0,1,0,1,0,240,14,1,239,1,5,3,stim/53.jpeg,HouseObjects,1,stim/objects/HouseObjects/key.png,0.5,2,0.2,0.15,left,27,2020-12-04_09h06.34.048,premup-three_ses-02_part-02_label-phase2,3.2.4,MacIntel,60,,,,,,,,,,,,,,,,,,,,,,,,,,,,,
right,0.829000235,0,118,1,0,1,0,1,0,1,0,240,143,1,239,2,2,4,stim/24.jpeg,HouseObjects,1,stim/objects/HouseObjects/knife2.png,0.7,3,-0.2,-0.15,left,27,2020-12-04_09h06.34.048,premup-three_ses-02_part-02_label-phase2,3.2.4,MacIntel,60,,,,,,,,,,,,,,,,,,,,,,,,,,,,,
right,0.541000128,1,119,1,0,1,0,1,0,1,0,240,164,1,239,3,3,1,stim/31.jpeg,Instruments,2,stim/objects/Instruments/metronome2.png,0.9,1,-0.2,0.15,right,27,2020-12-04_09h06.34.048,premup-three_ses-02_part-02_label-phase2,3.2.4,MacIntel,60,,,,,,,,,,,,,,,,,,,,,,,,,,,,,
left,0.784000158,0,120,1,0,1,0,1,0,1,0,240,62,1,239,1,6,3,stim/63.jpeg,Instruments,2,stim/objects/Instruments/musicstand.png,0.5,4,0.2,-0.15,right,27,2020-12-04_09h06.34.048,premup-three_ses-02_part-02_label-phase2,3.2.4,MacIntel,60,,,,,,,,,,,,,,,,,,,,,,,,,,,,,
,,0,121,1,0,1,0,1,0,1,0,240,103,1,239,2,1,4,stim/14.jpeg,Instruments,2,stim/objects/Instruments/record_player.png,0.7,3,-0.2,-0.15,right,27,2020-12-04_09h06.34.048,premup-three_ses-02_part-02_label-phase2,3.2.4,MacIntel,60,,,,,,,,,,,,,,,,,,,,,,,,,,,,,
left,0.650000334,0,122,1,0,1,0,1,0,1,0,240,65,1,239,1,6,2,stim/62.jpeg,Instruments,2,stim/objects/Instruments/musicsheet.png,0.5,2,0.2,0.15,right,27,2020-12-04_09h06.34.048,premup-three_ses-02_part-02_label-phase2,3.2.4,MacIntel,60,,,,,,,,,,,,,,,,,,,,,,,,,,,,,
left,0.586000204,0,123,1,0,1,0,1,0,1,0,240,236,1,239,3,4,1,stim/41.jpeg,Instruments,2,stim/objects/Instruments/panflute2.png,0.1,1,-0.2,0.15,right,27,2020-12-04_09h06.34.048,premup-three_ses-02_part-02_label-phase2,3.2.4,MacIntel,60,,,,,,,,,,,,,,,,,,,,,,,,,,,,,
right,0.713000059,1,124,1,0,1,0,1,0,1,0,240,33,1,239,1,5,2,stim/52.jpeg,Instruments,2,stim/objects/Instruments/laud.png,0.5,4,0.2,-0.15,right,27,2020-12-04_09h06.34.048,premup-three_ses-02_part-02_label-phase2,3.2.4,MacIntel,60,,,,,,,,,,,,,,,,,,,,,,,,,,,,,
left,0.766000032,1,125,1,0,1,0,1,0,1,0,240,140,1,239,2,2,1,stim/21.jpeg,HouseObjects,1,stim/objects/HouseObjects/iron2.png,0.7,3,-0.2,-0.15,left,27,2020-12-04_09h06.34.048,premup-three_ses-02_part-02_label-phase2,3.2.4,MacIntel,60,,,,,,,,,,,,,,,,,,,,,,,,,,,,,
left,0.585000277,1,126,1,0,1,0,1,0,1,0,240,136,1,239,2,2,1,stim/21.jpeg,HouseObjects,1,stim/objects/HouseObjects/iron2.png,0.7,1,-0.2,0.15,left,27,2020-12-04_09h06.34.048,premup-three_ses-02_part-02_label-phase2,3.2.4,MacIntel,60,,,,,,,,,,,,,,,,,,,,,,,,,,,,,
left,0.541000128,0,127,1,0,1,0,1,0,1,0,240,238,1,239,3,4,3,stim/43.jpeg,Instruments,2,stim/objects/Instruments/record2.png,0.1,3,-0.2,-0.15,right,27,2020-12-04_09h06.34.048,premup-three_ses-02_part-02_label-phase2,3.2.4,MacIntel,60,,,,,,,,,,,,,,,,,,,,,,,,,,,,,
,,0,128,1,0,1,0,1,0,1,0,240,121,1,239,2,2,2,stim/22.jpeg,HouseObjects,1,stim/objects/HouseObjects/ironingboard2.png,0.7,3,-0.2,-0.15,left,27,2020-12-04_09h06.34.048,premup-three_ses-02_part-02_label-phase2,3.2.4,MacIntel,60,,,,,,,,,,,,,,,,,,,,,,,,,,,,,
right,0.463000059,1,129,1,0,1,0,1,0,1,0,240,102,1,239,2,1,3,stim/13.jpeg,Instruments,2,stim/objects/Instruments/record.png,0.7,1,-0.2,0.15,right,27,2020-12-04_09h06.34.048,premup-three_ses-02_part-02_label-phase2,3.2.4,MacIntel,60,,,,,,,,,,,,,,,,,,,,,,,,,,,,,
right,0.448000193,0,130,1,0,1,0,1,0,1,0,240,56,1,239,1,6,1,stim/61.jpeg,HouseObjects,1,stim/objects/HouseObjects/lintroller.png,0.5,1,-0.2,0.15,left,27,2020-12-04_09h06.34.048,premup-three_ses-02_part-02_label-phase2,3.2.4,MacIntel,60,,,,,,,,,,,,,,,,,,,,,,,,,,,,,
right,0.483000278,1,131,1,0,1,0,1,0,1,0,240,64,1,239,1,6,1,stim/61.jpeg,Instruments,2,stim/objects/Instruments/metronome.png,0.5,2,0.2,0.15,right,27,2020-12-04_09h06.34.048,premup-three_ses-02_part-02_label-phase2,3.2.4,MacIntel,60,,,,,,,,,,,,,,,,,,,,,,,,,,,,,
left,0.394000292,1,132,1,0,1,0,1,0,1,0,240,13,1,239,1,5,2,stim/52.jpeg,HouseObjects,1,stim/objects/HouseObjects/ironingboard.png,0.5,1,-0.2,0.15,left,27,2020-12-04_09h06.34.048,premup-three_ses-02_part-02_label-phase2,3.2.4,MacIntel,60,,,,,,,,,,,,,,,,,,,,,,,,,,,,,
right,0.58100009,0,133,1,0,1,0,1,0,1,0,240,3,1,239,1,5,4,stim/54.jpeg,HouseObjects,1,stim/objects/HouseObjects/knife.png,0.5,4,0.2,-0.15,left,27,2020-12-04_09h06.34.048,premup-three_ses-02_part-02_label-phase2,3.2.4,MacIntel,60,,,,,,,,,,,,,,,,,,,,,,,,,,,,,
right,0.484000206,0,134,1,0,1,0,1,0,1,0,240,235,1,239,3,4,4,stim/44.jpeg,HouseObjects,1,stim/objects/HouseObjects/rug2.png,0.9,4,0.2,-0.15,left,27,2020-12-04_09h06.34.048,premup-three_ses-02_part-02_label-phase2,3.2.4,MacIntel,60,,,,,,,,,,,,,,,,,,,,,,,,,,,,,
right,0.537000179,0,135,1,0,1,0,1,0,1,0,240,85,1,239,2,1,2,stim/12.jpeg,HouseObjects,1,stim/objects/HouseObjects/remote.png,0.3,2,0.2,0.15,left,27,2020-12-04_09h06.34.048,premup-three_ses-02_part-02_label-phase2,3.2.4,MacIntel,60,,,,,,,,,,,,,,,,,,,,,,,,,,,,,
left,0.686000109,1,136,1,0,1,0,1,0,1,0,240,12,1,239,1,5,1,stim/51.jpeg,HouseObjects,1,stim/objects/HouseObjects/iron.png,0.5,2,0.2,0.15,left,27,2020-12-04_09h06.34.048,premup-three_ses-02_part-02_label-phase2,3.2.4,MacIntel,60,,,,,,,,,,,,,,,,,,,,,,,,,,,,,
left,0.567000151,0,137,1,0,1,0,1,0,1,0,240,73,1,239,1,6,2,stim/62.jpeg,Instruments,2,stim/objects/Instruments/musicsheet.png,0.5,1,-0.2,0.15,right,27,2020-12-04_09h06.34.048,premup-three_ses-02_part-02_label-phase2,3.2.4,MacIntel,60,,,,,,,,,,,,,,,,,,,,,,,,,,,,,
right,0.509000063,1,138,1,0,1,0,1,0,1,0,240,167,1,239,3,3,4,stim/34.jpeg,Instruments,2,stim/objects/Instruments/oboe2.png,0.9,4,0.2,-0.15,right,27,2020-12-04_09h06.34.048,premup-three_ses-02_part-02_label-phase2,3.2.4,MacIntel,60,,,,,,,,,,,,,,,,,,,,,,,,,,,,,
right,0.562000275,1,139,1,0,1,0,1,0,1,0,240,117,1,239,2,1,2,stim/12.jpeg,Instruments,2,stim/objects/Instruments/pipepiano.png,0.7,1,-0.2,0.15,right,27,2020-12-04_09h06.34.048,premup-three_ses-02_part-02_label-phase2,3.2.4,MacIntel,60,,,,,,,,,,,,,,,,,,,,,,,,,,,,,
right,0.670000076,1,140,1,0,1,0,1,0,1,0,240,93,1,239,2,1,2,stim/12.jpeg,Instruments,2,stim/objects/Instruments/pipepiano.png,0.7,1,-0.2,0.15,right,27,2020-12-04_09h06.34.048,premup-three_ses-02_part-02_label-phase2,3.2.4,MacIntel,60,,,,,,,,,,,,,,,,,,,,,,,,,,,,,
right,0.68200016,1,141,1,0,1,0,1,0,1,0,240,37,1,239,1,5,2,stim/52.jpeg,Instruments,2,stim/objects/Instruments/laud.png,0.5,4,0.2,-0.15,right,27,2020-12-04_09h06.34.048,premup-three_ses-02_part-02_label-phase2,3.2.4,MacIntel,60,,,,,,,,,,,,,,,,,,,,,,,,,,,,,
right,0.502000093,1,142,1,0,1,0,1,0,1,0,240,119,1,239,2,1,4,stim/14.jpeg,Instruments,2,stim/objects/Instruments/record_player.png,0.7,4,0.2,-0.15,right,27,2020-12-04_09h06.34.048,premup-three_ses-02_part-02_label-phase2,3.2.4,MacIntel,60,,,,,,,,,,,,,,,,,,,,,,,,,,,,,
right,0.614000082,1,143,1,0,1,0,1,0,1,0,240,74,1,239,1,6,3,stim/63.jpeg,Instruments,2,stim/objects/Instruments/musicstand.png,0.5,1,-0.2,0.15,right,27,2020-12-04_09h06.34.048,premup-three_ses-02_part-02_label-phase2,3.2.4,MacIntel,60,,,,,,,,,,,,,,,,,,,,,,,,,,,,,
right,0.520000219,0,144,1,0,1,0,1,0,1,0,240,84,1,239,2,1,1,stim/11.jpeg,HouseObjects,1,stim/objects/HouseObjects/recyclingbin.png,0.3,4,0.2,-0.15,left,27,2020-12-04_09h06.34.048,premup-three_ses-02_part-02_label-phase2,3.2.4,MacIntel,60,,,,,,,,,,,,,,,,,,,,,,,,,,,,,
right,0.802000046,0,145,1,0,1,0,1,0,1,0,240,40,1,239,1,6,1,stim/61.jpeg,HouseObjects,1,stim/objects/HouseObjects/lintroller.png,0.5,4,0.2,-0.15,left,27,2020-12-04_09h06.34.048,premup-three_ses-02_part-02_label-phase2,3.2.4,MacIntel,60,,,,,,,,,,,,,,,,,,,,,,,,,,,,,
right,0.518000364,1,146,1,0,1,0,1,0,1,0,240,188,1,239,3,3,1,stim/31.jpeg,Instruments,2,stim/objects/Instruments/metronome2.png,0.9,3,-0.2,-0.15,right,27,2020-12-04_09h06.34.048,premup-three_ses-02_part-02_label-phase2,3.2.4,MacIntel,60,,,,,,,,,,,,,,,,,,,,,,,,,,,,,
right,0.588000059,1,147,1,0,1,0,1,0,1,0,240,112,1,239,2,1,1,stim/11.jpeg,Instruments,2,stim/objects/Instruments/panflute.png,0.7,2,0.2,0.15,right,27,2020-12-04_09h06.34.048,premup-three_ses-02_part-02_label-phase2,3.2.4,MacIntel,60,,,,,,,,,,,,,,,,,,,,,,,,,,,,,
right,0.675000191,0,148,1,0,1,0,1,0,1,0,240,18,1,239,1,5,3,stim/53.jpeg,HouseObjects,1,stim/objects/HouseObjects/key.png,0.5,4,0.2,-0.15,left,27,2020-12-04_09h06.34.048,premup-three_ses-02_part-02_label-phase2,3.2.4,MacIntel,60,,,,,,,,,,,,,,,,,,,,,,,,,,,,,
left,0.585999966,0,149,1,0,1,0,1,0,1,0,240,237,1,239,3,4,2,stim/42.jpeg,Instruments,2,stim/objects/Instruments/pipepiano2.png,0.1,3,-0.2,-0.15,right,27,2020-12-04_09h06.34.048,premup-three_ses-02_part-02_label-phase2,3.2.4,MacIntel,60,,,,,,,,,,,,,,,,,,,,,,,,,,,,,
right,0.581000328,1,150,1,0,1,0,1,0,1,0,240,94,1,239,2,1,3,stim/13.jpeg,Instruments,2,stim/objects/Instruments/record.png,0.7,4,0.2,-0.15,right,27,2020-12-04_09h06.34.048,premup-three_ses-02_part-02_label-phase2,3.2.4,MacIntel,60,,,,,,,,,,,,,,,,,,,,,,,,,,,,,
left,0.575000286,1,151,1,0,1,0,1,0,1,0,240,217,1,239,3,4,2,stim/42.jpeg,HouseObjects,1,stim/objects/HouseObjects/remote2.png,0.9,4,0.2,-0.15,left,27,2020-12-04_09h06.34.048,premup-three_ses-02_part-02_label-phase2,3.2.4,MacIntel,60,,,,,,,,,,,,,,,,,,,,,,,,,,,,,
left,0.778000116,0,152,1,0,1,0,1,0,1,0,240,72,1,239,1,6,1,stim/61.jpeg,Instruments,2,stim/objects/Instruments/metronome.png,0.5,1,-0.2,0.15,right,27,2020-12-04_09h06.34.048,premup-three_ses-02_part-02_label-phase2,3.2.4,MacIntel,60,,,,,,,,,,,,,,,,,,,,,,,,,,,,,
left,0.624000072,0,153,1,0,1,0,1,0,1,0,240,61,1,239,1,6,2,stim/62.jpeg,Instruments,2,stim/objects/Instruments/musicsheet.png,0.5,4,0.2,-0.15,right,27,2020-12-04_09h06.34.048,premup-three_ses-02_part-02_label-phase2,3.2.4,MacIntel,60,,,,,,,,,,,,,,,,,,,,,,,,,,,,,
left,0.754000187,1,154,1,0,1,0,1,0,1,0,240,218,1,239,3,4,3,stim/43.jpeg,HouseObjects,1,stim/objects/HouseObjects/rubbergloves2.png,0.9,2,0.2,0.15,left,27,2020-12-04_09h06.34.048,premup-three_ses-02_part-02_label-phase2,3.2.4,MacIntel,60,,,,,,,,,,,,,,,,,,,,,,,,,,,,,
left,0.634000063,1,155,1,0,1,0,1,0,1,0,240,122,1,239,2,2,3,stim/23.jpeg,HouseObjects,1,stim/objects/HouseObjects/key2.png,0.7,4,0.2,-0.15,left,27,2020-12-04_09h06.34.048,premup-three_ses-02_part-02_label-phase2,3.2.4,MacIntel,60,,,,,,,,,,,,,,,,,,,,,,,,,,,,,
right,0.842000008,0,156,1,0,1,0,1,0,1,0,240,52,1,239,1,6,1,stim/61.jpeg,HouseObjects,1,stim/objects/HouseObjects/lintroller.png,0.5,2,0.2,0.15,left,27,2020-12-04_09h06.34.048,premup-three_ses-02_part-02_label-phase2,3.2.4,MacIntel,60,,,,,,,,,,,,,,,,,,,,,,,,,,,,,
,,0,157,1,0,1,0,1,0,1,0,240,24,1,239,1,5,1,stim/51.jpeg,Instruments,2,stim/objects/Instruments/keyboard.png,0.5,1,-0.2,0.15,right,27,2020-12-04_09h06.34.048,premup-three_ses-02_part-02_label-phase2,3.2.4,MacIntel,60,,,,,,,,,,,,,,,,,,,,,,,,,,,,,
left,0.615000248,1,158,1,0,1,0,1,0,1,0,240,53,1,239,1,6,2,stim/62.jpeg,HouseObjects,1,stim/objects/HouseObjects/match.png,0.5,1,-0.2,0.15,left,27,2020-12-04_09h06.34.048,premup-three_ses-02_part-02_label-phase2,3.2.4,MacIntel,60,,,,,,,,,,,,,,,,,,,,,,,,,,,,,
right,0.451000214,1,159,1,0,1,0,1,0,1,0,240,38,1,239,1,5,3,stim/53.jpeg,Instruments,2,stim/objects/Instruments/maraca.png,0.5,4,0.2,-0.15,right,27,2020-12-04_09h06.34.048,premup-three_ses-02_part-02_label-phase2,3.2.4,MacIntel,60,,,,,,,,,,,,,,,,,,,,,,,,,,,,,
left,0.5400002,0,160,1,0,1,0,1,0,1,0,240,154,1,239,2,2,3,stim/23.jpeg,Instruments,2,stim/objects/Instruments/maraca2.png,0.3,2,0.2,0.15,right,27,2020-12-04_09h06.34.048,premup-three_ses-02_part-02_label-phase2,3.2.4,MacIntel,60,,,,,,,,,,,,,,,,,,,,,,,,,,,,,
right,0.830000162,1,161,1,0,1,0,1,0,1,0,240,152,1,239,2,2,1,stim/21.jpeg,Instruments,2,stim/objects/Instruments/keyboard2.png,0.3,4,0.2,-0.15,right,27,2020-12-04_09h06.34.048,premup-three_ses-02_part-02_label-phase2,3.2.4,MacIntel,60,,,,,,,,,,,,,,,,,,,,,,,,,,,,,
left,0.551000118,1,162,1,0,1,0,1,0,1,0,240,204,1,239,3,4,1,stim/41.jpeg,HouseObjects,1,stim/objects/HouseObjects/recyclingbin2.png,0.9,3,-0.2,-0.15,left,27,2020-12-04_09h06.34.048,premup-three_ses-02_part-02_label-phase2,3.2.4,MacIntel,60,,,,,,,,,,,,,,,,,,,,,,,,,,,,,
right,0.705000162,0,163,1,0,1,0,1,0,1,0,240,83,1,239,2,1,4,stim/14.jpeg,HouseObjects,1,stim/objects/HouseObjects/rug.png,0.3,4,0.2,-0.15,left,27,2020-12-04_09h06.34.048,premup-three_ses-02_part-02_label-phase2,3.2.4,MacIntel,60,,,,,,,,,,,,,,,,,,,,,,,,,,,,,
right,0.526000261,1,164,1,0,1,0,1,0,1,0,240,176,1,239,3,3,1,stim/31.jpeg,Instruments,2,stim/objects/Instruments/metronome2.png,0.9,2,0.2,0.15,right,27,2020-12-04_09h06.34.048,premup-three_ses-02_part-02_label-phase2,3.2.4,MacIntel,60,,,,,,,,,,,,,,,,,,,,,,,,,,,,,
right,0.676000357,1,165,1,0,1,0,1,0,1,0,240,104,1,239,2,1,1,stim/11.jpeg,Instruments,2,stim/objects/Instruments/panflute.png,0.7,3,-0.2,-0.15,right,27,2020-12-04_09h06.34.048,premup-three_ses-02_part-02_label-phase2,3.2.4,MacIntel,60,,,,,,,,,,,,,,,,,,,,,,,,,,,,,
right,0.399000168,1,166,1,0,1,0,1,0,1,0,240,99,1,239,2,1,4,stim/14.jpeg,Instruments,2,stim/objects/Instruments/record_player.png,0.7,1,-0.2,0.15,right,27,2020-12-04_09h06.34.048,premup-three_ses-02_part-02_label-phase2,3.2.4,MacIntel,60,,,,,,,,,,,,,,,,,,,,,,,,,,,,,
left,0.657000065,0,167,1,0,1,0,1,0,1,0,240,21,1,239,1,5,2,stim/52.jpeg,Instruments,2,stim/objects/Instruments/laud.png,0.5,2,0.2,0.15,right,27,2020-12-04_09h06.34.048,premup-three_ses-02_part-02_label-phase2,3.2.4,MacIntel,60,,,,,,,,,,,,,,,,,,,,,,,,,,,,,
left,0.630000353,1,168,1,0,1,0,1,0,1,0,240,120,1,239,2,2,1,stim/21.jpeg,HouseObjects,1,stim/objects/HouseObjects/iron2.png,0.7,1,-0.2,0.15,left,27,2020-12-04_09h06.34.048,premup-three_ses-02_part-02_label-phase2,3.2.4,MacIntel,60,,,,,,,,,,,,,,,,,,,,,,,,,,,,,
right,0.529000044,0,169,1,0,1,0,1,0,1,0,240,4,1,239,1,5,1,stim/51.jpeg,HouseObjects,1,stim/objects/HouseObjects/iron.png,0.5,1,-0.2,0.15,left,27,2020-12-04_09h06.34.048,premup-three_ses-02_part-02_label-phase2,3.2.4,MacIntel,60,,,,,,,,,,,,,,,,,,,,,,,,,,,,,
right,0.476000309,1,170,1,0,1,0,1,0,1,0,240,70,1,239,1,6,3,stim/63.jpeg,Instruments,2,stim/objects/Instruments/musicstand.png,0.5,3,-0.2,-0.15,right,27,2020-12-04_09h06.34.048,premup-three_ses-02_part-02_label-phase2,3.2.4,MacIntel,60,,,,,,,,,,,,,,,,,,,,,,,,,,,,,
right,0.553000212,1,171,1,0,1,0,1,0,1,0,240,101,1,239,2,1,2,stim/12.jpeg,Instruments,2,stim/objects/Instruments/pipepiano.png,0.7,3,-0.2,-0.15,right,27,2020-12-04_09h06.34.048,premup-three_ses-02_part-02_label-phase2,3.2.4,MacIntel,60,,,,,,,,,,,,,,,,,,,,,,,,,,,,,
right,0.484000206,1,172,1,0,1,0,1,0,1,0,240,197,1,239,3,3,2,stim/32.jpeg,Instruments,2,stim/objects/Instruments/musicsheet2.png,0.9,4,0.2,-0.15,right,27,2020-12-04_09h06.34.048,premup-three_ses-02_part-02_label-phase2,3.2.4,MacIntel,60,,,,,,,,,,,,,,,,,,,,,,,,,,,,,
left,0.593000174,1,173,1,0,1,0,1,0,1,0,240,141,1,239,2,2,2,stim/22.jpeg,HouseObjects,1,stim/objects/HouseObjects/ironingboard2.png,0.7,4,0.2,-0.15,left,27,2020-12-04_09h06.34.048,premup-three_ses-02_part-02_label-phase2,3.2.4,MacIntel,60,,,,,,,,,,,,,,,,,,,,,,,,,,,,,
right,0.551000357,1,174,1,0,1,0,1,0,1,0,240,174,1,239,3,3,3,stim/33.jpeg,Instruments,2,stim/objects/Instruments/musicstand2.png,0.9,2,0.2,0.15,right,27,2020-12-04_09h06.34.048,premup-three_ses-02_part-02_label-phase2,3.2.4,MacIntel,60,,,,,,,,,,,,,,,,,,,,,,,,,,,,,
right,0.555000305,0,175,1,0,1,0,1,0,1,0,240,7,1,239,1,5,4,stim/54.jpeg,HouseObjects,1,stim/objects/HouseObjects/knife.png,0.5,2,0.2,0.15,left,27,2020-12-04_09h06.34.048,premup-three_ses-02_part-02_label-phase2,3.2.4,MacIntel,60,,,,,,,,,,,,,,,,,,,,,,,,,,,,,
right,0.391000032,1,176,1,0,1,0,1,0,1,0,240,179,1,239,3,3,4,stim/34.jpeg,Instruments,2,stim/objects/Instruments/oboe2.png,0.9,4,0.2,-0.15,right,27,2020-12-04_09h06.34.048,premup-three_ses-02_part-02_label-phase2,3.2.4,MacIntel,60,,,,,,,,,,,,,,,,,,,,,,,,,,,,,
left,0.676000118,1,177,1,0,1,0,1,0,1,0,240,222,1,239,3,4,3,stim/43.jpeg,HouseObjects,1,stim/objects/HouseObjects/rubbergloves2.png,0.9,4,0.2,-0.15,left,27,2020-12-04_09h06.34.048,premup-three_ses-02_part-02_label-phase2,3.2.4,MacIntel,60,,,,,,,,,,,,,,,,,,,,,,,,,,,,,
right,0.527000189,0,178,1,0,1,0,1,0,1,0,240,88,1,239,2,1,1,stim/11.jpeg,HouseObjects,1,stim/objects/HouseObjects/recyclingbin.png,0.3,2,0.2,0.15,left,27,2020-12-04_09h06.34.048,premup-three_ses-02_part-02_label-phase2,3.2.4,MacIntel,60,,,,,,,,,,,,,,,,,,,,,,,,,,,,,
right,0.477000237,0,179,1,0,1,0,1,0,1,0,240,128,1,239,2,2,1,stim/21.jpeg,HouseObjects,1,stim/objects/HouseObjects/iron2.png,0.7,2,0.2,0.15,left,27,2020-12-04_09h06.34.048,premup-three_ses-02_part-02_label-phase2,3.2.4,MacIntel,60,,,,,,,,,,,,,,,,,,,,,,,,,,,,,
left,0.531000137,1,180,1,0,1,0,1,0,1,0,240,132,1,239,2,2,1,stim/21.jpeg,HouseObjects,1,stim/objects/HouseObjects/iron2.png,0.7,1,-0.2,0.15,left,27,2020-12-04_09h06.34.048,premup-three_ses-02_part-02_label-phase2,3.2.4,MacIntel,60,,,,,,,,,,,,,,,,,,,,,,,,,,,,,
left,0.784000397,1,181,1,0,1,0,1,0,1,0,240,58,1,239,1,6,3,stim/63.jpeg,HouseObjects,1,stim/objects/HouseObjects/pan.png,0.5,1,-0.2,0.15,left,27,2020-12-04_09h06.34.048,premup-three_ses-02_part-02_label-phase2,3.2.4,MacIntel,60,,,,,,,,,,,,,,,,,,,,,,,,,,,,,
right,0.531000137,1,182,1,0,1,0,1,0,1,0,240,184,1,239,3,3,1,stim/31.jpeg,Instruments,2,stim/objects/Instruments/metronome2.png,0.9,3,-0.2,-0.15,right,27,2020-12-04_09h06.34.048,premup-three_ses-02_part-02_label-phase2,3.2.4,MacIntel,60,,,,,,,,,,,,,,,,,,,,,,,,,,,,,
left,0.566000223,1,183,1,0,1,0,1,0,1,0,240,225,1,239,3,4,2,stim/42.jpeg,HouseObjects,1,stim/objects/HouseObjects/remote2.png,0.9,2,0.2,0.15,left,27,2020-12-04_09h06.34.048,premup-three_ses-02_part-02_label-phase2,3.2.4,MacIntel,60,,,,,,,,,,,,,,,,,,,,,,,,,,,,,
left,0.59400034,0,184,1,0,1,0,1,0,1,0,240,29,1,239,1,5,2,stim/52.jpeg,Instruments,2,stim/objects/Instruments/laud.png,0.5,2,0.2,0.15,right,27,2020-12-04_09h06.34.048,premup-three_ses-02_part-02_label-phase2,3.2.4,MacIntel,60,,,,,,,,,,,,,,,,,,,,,,,,,,,,,
left,0.565000057,1,185,1,0,1,0,1,0,1,0,240,49,1,239,1,6,2,stim/62.jpeg,HouseObjects,1,stim/objects/HouseObjects/match.png,0.5,1,-0.2,0.15,left,27,2020-12-04_09h06.34.048,premup-three_ses-02_part-02_label-phase2,3.2.4,MacIntel,60,,,,,,,,,,,,,,,,,,,,,,,,,,,,,
right,0.661000013,1,186,1,0,1,0,1,0,1,0,240,75,1,239,1,6,4,stim/64.jpeg,Instruments,2,stim/objects/Instruments/oboe.png,0.5,3,-0.2,-0.15,right,27,2020-12-04_09h06.34.048,premup-three_ses-02_part-02_label-phase2,3.2.4,MacIntel,60,,,,,,,,,,,,,,,,,,,,,,,,,,,,,
left,0.661000013,1,187,1,0,1,0,1,0,1,0,240,51,1,239,1,6,4,stim/64.jpeg,HouseObjects,1,stim/objects/HouseObjects/pitcher.png,0.5,4,0.2,-0.15,left,27,2020-12-04_09h06.34.048,premup-three_ses-02_part-02_label-phase2,3.2.4,MacIntel,60,,,,,,,,,,,,,,,,,,,,,,,,,,,,,
left,0.579000235,1,188,1,0,1,0,1,0,1,0,240,209,1,239,3,4,2,stim/42.jpeg,HouseObjects,1,stim/objects/HouseObjects/remote2.png,0.9,1,-0.2,0.15,left,27,2020-12-04_09h06.34.048,premup-three_ses-02_part-02_label-phase2,3.2.4,MacIntel,60,,,,,,,,,,,,,,,,,,,,,,,,,,,,,
left,0.718000174,1,189,1,0,1,0,1,0,1,0,240,219,1,239,3,4,4,stim/44.jpeg,HouseObjects,1,stim/objects/HouseObjects/rug2.png,0.9,2,0.2,0.15,left,27,2020-12-04_09h06.34.048,premup-three_ses-02_part-02_label-phase2,3.2.4,MacIntel,60,,,,,,,,,,,,,,,,,,,,,,,,,,,,,
left,0.598999977,1,190,1,0,1,0,1,0,1,0,240,232,1,239,3,4,1,stim/41.jpeg,HouseObjects,1,stim/objects/HouseObjects/recyclingbin2.png,0.9,3,-0.2,-0.15,left,27,2020-12-04_09h06.34.048,premup-three_ses-02_part-02_label-phase2,3.2.4,MacIntel,60,,,,,,,,,,,,,,,,,,,,,,,,,,,,,
left,0.671000242,1,191,1,0,1,0,1,0,1,0,240,16,1,239,1,5,1,stim/51.jpeg,HouseObjects,1,stim/objects/HouseObjects/iron.png,0.5,1,-0.2,0.15,left,27,2020-12-04_09h06.34.048,premup-three_ses-02_part-02_label-phase2,3.2.4,MacIntel,60,,,,,,,,,,,,,,,,,,,,,,,,,,,,,
right,0.485000134,1,192,1,0,1,0,1,0,1,0,240,181,1,239,3,3,2,stim/32.jpeg,Instruments,2,stim/objects/Instruments/musicsheet2.png,0.9,4,0.2,-0.15,right,27,2020-12-04_09h06.34.048,premup-three_ses-02_part-02_label-phase2,3.2.4,MacIntel,60,,,,,,,,,,,,,,,,,,,,,,,,,,,,,
left,0.693000078,0,193,1,0,1,0,1,0,1,0,240,79,1,239,1,6,4,stim/64.jpeg,Instruments,2,stim/objects/Instruments/oboe.png,0.5,3,-0.2,-0.15,right,27,2020-12-04_09h06.34.048,premup-three_ses-02_part-02_label-phase2,3.2.4,MacIntel,60,,,,,,,,,,,,,,,,,,,,,,,,,,,,,
left,0.603000164,1,194,1,0,1,0,1,0,1,0,240,19,1,239,1,5,4,stim/54.jpeg,HouseObjects,1,stim/objects/HouseObjects/knife.png,0.5,4,0.2,-0.15,left,27,2020-12-04_09h06.34.048,premup-three_ses-02_part-02_label-phase2,3.2.4,MacIntel,60,,,,,,,,,,,,,,,,,,,,,,,,,,,,,
left,0.625000238,1,195,1,0,1,0,1,0,1,0,240,8,1,239,1,5,1,stim/51.jpeg,HouseObjects,1,stim/objects/HouseObjects/iron.png,0.5,1,-0.2,0.15,left,27,2020-12-04_09h06.34.048,premup-three_ses-02_part-02_label-phase2,3.2.4,MacIntel,60,,,,,,,,,,,,,,,,,,,,,,,,,,,,,
left,0.552000046,0,196,1,0,1,0,1,0,1,0,240,155,1,239,2,2,4,stim/24.jpeg,Instruments,2,stim/objects/Instruments/marimba2.png,0.3,2,0.2,0.15,right,27,2020-12-04_09h06.34.048,premup-three_ses-02_part-02_label-phase2,3.2.4,MacIntel,60,,,,,,,,,,,,,,,,,,,,,,,,,,,,,
right,0.633000135,1,197,1,0,1,0,1,0,1,0,240,100,1,239,2,1,1,stim/11.jpeg,Instruments,2,stim/objects/Instruments/panflute.png,0.7,3,-0.2,-0.15,right,27,2020-12-04_09h06.34.048,premup-three_ses-02_part-02_label-phase2,3.2.4,MacIntel,60,,,,,,,,,,,,,,,,,,,,,,,,,,,,,
left,0.490000248,0,198,1,0,1,0,1,0,1,0,240,22,1,239,1,5,3,stim/53.jpeg,Instruments,2,stim/objects/Instruments/maraca.png,0.5,3,-0.2,-0.15,right,27,2020-12-04_09h06.34.048,premup-three_ses-02_part-02_label-phase2,3.2.4,MacIntel,60,,,,,,,,,,,,,,,,,,,,,,,,,,,,,
left,0.528000355,1,199,1,0,1,0,1,0,1,0,240,135,1,239,2,2,4,stim/24.jpeg,HouseObjects,1,stim/objects/HouseObjects/knife2.png,0.7,2,0.2,0.15,left,27,2020-12-04_09h06.34.048,premup-three_ses-02_part-02_label-phase2,3.2.4,MacIntel,60,,,,,,,,,,,,,,,,,,,,,,,,,,,,,
left,0.589000225,1,200,1,0,1,0,1,0,1,0,240,131,1,239,2,2,4,stim/24.jpeg,HouseObjects,1,stim/objects/HouseObjects/knife2.png,0.7,2,0.2,0.15,left,27,2020-12-04_09h06.34.048,premup-three_ses-02_part-02_label-phase2,3.2.4,MacIntel,60,,,,,,,,,,,,,,,,,,,,,,,,,,,,,
right,0.507000208,1,201,1,0,1,0,1,0,1,0,240,194,1,239,3,3,3,stim/33.jpeg,Instruments,2,stim/objects/Instruments/musicstand2.png,0.9,1,-0.2,0.15,right,27,2020-12-04_09h06.34.048,premup-three_ses-02_part-02_label-phase2,3.2.4,MacIntel,60,,,,,,,,,,,,,,,,,,,,,,,,,,,,,
left,0.607000351,1,202,1,0,1,0,1,0,1,0,240,0,1,239,1,5,1,stim/51.jpeg,HouseObjects,1,stim/objects/HouseObjects/iron.png,0.5,3,-0.2,-0.15,left,27,2020-12-04_09h06.34.048,premup-three_ses-02_part-02_label-phase2,3.2.4,MacIntel,60,,,,,,,,,,,,,,,,,,,,,,,,,,,,,
right,0.549000025,1,203,1,0,1,0,1,0,1,0,240,189,1,239,3,3,2,stim/32.jpeg,Instruments,2,stim/objects/Instruments/musicsheet2.png,0.9,4,0.2,-0.15,right,27,2020-12-04_09h06.34.048,premup-three_ses-02_part-02_label-phase2,3.2.4,MacIntel,60,,,,,,,,,,,,,,,,,,,,,,,,,,,,,
left,0.795000076,0,204,1,0,1,0,1,0,1,0,240,109,1,239,2,1,2,stim/12.jpeg,Instruments,2,stim/objects/Instruments/pipepiano.png,0.7,2,0.2,0.15,right,27,2020-12-04_09h06.34.048,premup-three_ses-02_part-02_label-phase2,3.2.4,MacIntel,60,,,,,,,,,,,,,,,,,,,,,,,,,,,,,
left,0.573000193,0,205,1,0,1,0,1,0,1,0,240,69,1,239,1,6,2,stim/62.jpeg,Instruments,2,stim/objects/Instruments/musicsheet.png,0.5,1,-0.2,0.15,right,27,2020-12-04_09h06.34.048,premup-three_ses-02_part-02_label-phase2,3.2.4,MacIntel,60,,,,,,,,,,,,,,,,,,,,,,,,,,,,,
right,0.565000296,1,206,1,0,1,0,1,0,1,0,240,95,1,239,2,1,4,stim/14.jpeg,Instruments,2,stim/objects/Instruments/record_player.png,0.7,3,-0.2,-0.15,right,27,2020-12-04_09h06.34.048,premup-three_ses-02_part-02_label-phase2,3.2.4,MacIntel,60,,,,,,,,,,,,,,,,,,,,,,,,,,,,,
right,0.647000313,0,207,1,0,1,0,1,0,1,0,240,17,1,239,1,5,2,stim/52.jpeg,HouseObjects,1,stim/objects/HouseObjects/ironingboard.png,0.5,2,0.2,0.15,left,27,2020-12-04_09h06.34.048,premup-three_ses-02_part-02_label-phase2,3.2.4,MacIntel,60,,,,,,,,,,,,,,,,,,,,,,,,,,,,,
left,0.562000036,1,208,1,0,1,0,1,0,1,0,240,223,1,239,3,4,4,stim/44.jpeg,HouseObjects,1,stim/objects/HouseObjects/rug2.png,0.9,4,0.2,-0.15,left,27,2020-12-04_09h06.34.048,premup-three_ses-02_part-02_label-phase2,3.2.4,MacIntel,60,,,,,,,,,,,,,,,,,,,,,,,,,,,,,
right,0.525000095,1,209,1,0,1,0,1,0,1,0,240,36,1,239,1,5,1,stim/51.jpeg,Instruments,2,stim/objects/Instruments/keyboard.png,0.5,4,0.2,-0.15,right,27,2020-12-04_09h06.34.048,premup-three_ses-02_part-02_label-phase2,3.2.4,MacIntel,60,,,,,,,,,,,,,,,,,,,,,,,,,,,,,
right,0.455000162,1,210,1,0,1,0,1,0,1,0,240,28,1,239,1,5,1,stim/51.jpeg,Instruments,2,stim/objects/Instruments/keyboard.png,0.5,4,0.2,-0.15,right,27,2020-12-04_09h06.34.048,premup-three_ses-02_part-02_label-phase2,3.2.4,MacIntel,60,,,,,,,,,,,,,,,,,,,,,,,,,,,,,
left,0.697000265,1,211,1,0,1,0,1,0,1,0,240,90,1,239,2,1,3,stim/13.jpeg,HouseObjects,1,stim/objects/HouseObjects/rubbergloves.png,0.3,1,-0.2,0.15,left,27,2020-12-04_09h06.34.048,premup-three_ses-02_part-02_label-phase2,3.2.4,MacIntel,60,,,,,,,,,,,,,,,,,,,,,,,,,,,,,
left,0.58700037,1,212,1,0,1,0,1,0,1,0,240,125,1,239,2,2,2,stim/22.jpeg,HouseObjects,1,stim/objects/HouseObjects/ironingboard2.png,0.7,4,0.2,-0.15,left,27,2020-12-04_09h06.34.048,premup-three_ses-02_part-02_label-phase2,3.2.4,MacIntel,60,,,,,,,,,,,,,,,,,,,,,,,,,,,,,
left,0.542000055,1,213,1,0,1,0,1,0,1,0,240,233,1,239,3,4,2,stim/42.jpeg,HouseObjects,1,stim/objects/HouseObjects/remote2.png,0.9,1,-0.2,0.15,left,27,2020-12-04_09h06.34.048,premup-three_ses-02_part-02_label-phase2,3.2.4,MacIntel,60,,,,,,,,,,,,,,,,,,,,,,,,,,,,,
left,0.531000137,1,214,1,0,1,0,1,0,1,0,240,230,1,239,3,4,3,stim/43.jpeg,HouseObjects,1,stim/objects/HouseObjects/rubbergloves2.png,0.9,3,-0.2,-0.15,left,27,2020-12-04_09h06.34.048,premup-three_ses-02_part-02_label-phase2,3.2.4,MacIntel,60,,,,,,,,,,,,,,,,,,,,,,,,,,,,,
left,0.425000191,1,215,1,0,1,0,1,0,1,0,240,207,1,239,3,4,4,stim/44.jpeg,HouseObjects,1,stim/objects/HouseObjects/rug2.png,0.9,1,-0.2,0.15,left,27,2020-12-04_09h06.34.048,premup-three_ses-02_part-02_label-phase2,3.2.4,MacIntel,60,,,,,,,,,,,,,,,,,,,,,,,,,,,,,
right,0.428000212,0,216,1,0,1,0,1,0,1,0,240,163,1,239,3,3,4,stim/34.jpeg,HouseObjects,1,stim/objects/HouseObjects/pitcher2.png,0.1,3,-0.2,-0.15,left,27,2020-12-04_09h06.34.048,premup-three_ses-02_part-02_label-phase2,3.2.4,MacIntel,60,,,,,,,,,,,,,,,,,,,,,,,,,,,,,
right,0.691000223,1,217,1,0,1,0,1,0,1,0,240,78,1,239,1,6,3,stim/63.jpeg,Instruments,2,stim/objects/Instruments/musicstand.png,0.5,2,0.2,0.15,right,27,2020-12-04_09h06.34.048,premup-three_ses-02_part-02_label-phase2,3.2.4,MacIntel,60,,,,,,,,,,,,,,,,,,,,,,,,,,,,,
left,0.669000149,1,218,1,0,1,0,1,0,1,0,240,226,1,239,3,4,3,stim/43.jpeg,HouseObjects,1,stim/objects/HouseObjects/rubbergloves2.png,0.9,2,0.2,0.15,left,27,2020-12-04_09h06.34.048,premup-three_ses-02_part-02_label-phase2,3.2.4,MacIntel,60,,,,,,,,,,,,,,,,,,,,,,,,,,,,,
left,0.57400012,1,219,1,0,1,0,1,0,1,0,240,44,1,239,1,6,1,stim/61.jpeg,HouseObjects,1,stim/objects/HouseObjects/lintroller.png,0.5,4,0.2,-0.15,left,27,2020-12-04_09h06.34.048,premup-three_ses-02_part-02_label-phase2,3.2.4,MacIntel,60,,,,,,,,,,,,,,,,,,,,,,,,,,,,,
left,0.518000364,0,220,1,0,1,0,1,0,1,0,240,239,1,239,3,4,4,stim/44.jpeg,Instruments,2,stim/objects/Instruments/record_player2.png,0.1,3,-0.2,-0.15,right,27,2020-12-04_09h06.34.048,premup-three_ses-02_part-02_label-phase2,3.2.4,MacIntel,60,,,,,,,,,,,,,,,,,,,,,,,,,,,,,
left,0.50999999,1,221,1,0,1,0,1,0,1,0,240,212,1,239,3,4,1,stim/41.jpeg,HouseObjects,1,stim/objects/HouseObjects/recyclingbin2.png,0.9,3,-0.2,-0.15,left,27,2020-12-04_09h06.34.048,premup-three_ses-02_part-02_label-phase2,3.2.4,MacIntel,60,,,,,,,,,,,,,,,,,,,,,,,,,,,,,
right,0.844000101,1,222,1,0,1,0,1,0,1,0,240,187,1,239,3,3,4,stim/34.jpeg,Instruments,2,stim/objects/Instruments/oboe2.png,0.9,2,0.2,0.15,right,27,2020-12-04_09h06.34.048,premup-three_ses-02_part-02_label-phase2,3.2.4,MacIntel,60,,,,,,,,,,,,,,,,,,,,,,,,,,,,,
left,0.565000057,0,223,1,0,1,0,1,0,1,0,240,71,1,239,1,6,4,stim/64.jpeg,Instruments,2,stim/objects/Instruments/oboe.png,0.5,1,-0.2,0.15,right,27,2020-12-04_09h06.34.048,premup-three_ses-02_part-02_label-phase2,3.2.4,MacIntel,60,,,,,,,,,,,,,,,,,,,,,,,,,,,,,
left,0.485000134,1,224,1,0,1,0,1,0,1,0,240,129,1,239,2,2,2,stim/22.jpeg,HouseObjects,1,stim/objects/HouseObjects/ironingboard2.png,0.7,3,-0.2,-0.15,left,27,2020-12-04_09h06.34.048,premup-three_ses-02_part-02_label-phase2,3.2.4,MacIntel,60,,,,,,,,,,,,,,,,,,,,,,,,,,,,,
left,0.627000332,1,225,1,0,1,0,1,0,1,0,240,5,1,239,1,5,2,stim/52.jpeg,HouseObjects,1,stim/objects/HouseObjects/ironingboard.png,0.5,3,-0.2,-0.15,left,27,2020-12-04_09h06.34.048,premup-three_ses-02_part-02_label-phase2,3.2.4,MacIntel,60,,,,,,,,,,,,,,,,,,,,,,,,,,,,,
left,0.520000219,1,226,1,0,1,0,1,0,1,0,240,208,1,239,3,4,1,stim/41.jpeg,HouseObjects,1,stim/objects/HouseObjects/recyclingbin2.png,0.9,1,-0.2,0.15,left,27,2020-12-04_09h06.34.048,premup-three_ses-02_part-02_label-phase2,3.2.4,MacIntel,60,,,,,,,,,,,,,,,,,,,,,,,,,,,,,
right,0.522000313,1,227,1,0,1,0,1,0,1,0,240,185,1,239,3,3,2,stim/32.jpeg,Instruments,2,stim/objects/Instruments/musicsheet2.png,0.9,1,-0.2,0.15,right,27,2020-12-04_09h06.34.048,premup-three_ses-02_part-02_label-phase2,3.2.4,MacIntel,60,,,,,,,,,,,,,,,,,,,,,,,,,,,,,
left,0.571000338,1,228,1,0,1,0,1,0,1,0,240,221,1,239,3,4,2,stim/42.jpeg,HouseObjects,1,stim/objects/HouseObjects/remote2.png,0.9,3,-0.2,-0.15,left,27,2020-12-04_09h06.34.048,premup-three_ses-02_part-02_label-phase2,3.2.4,MacIntel,60,,,,,,,,,,,,,,,,,,,,,,,,,,,,,
left,0.687999964,0,229,1,0,1,0,1,0,1,0,240,35,1,239,1,5,4,stim/54.jpeg,Instruments,2,stim/objects/Instruments/marimba.png,0.5,4,0.2,-0.15,right,27,2020-12-04_09h06.34.048,premup-three_ses-02_part-02_label-phase2,3.2.4,MacIntel,60,,,,,,,,,,,,,,,,,,,,,,,,,,,,,
left,0.523000002,1,230,1,0,1,0,1,0,1,0,240,201,1,239,3,4,2,stim/42.jpeg,HouseObjects,1,stim/objects/HouseObjects/remote2.png,0.9,1,-0.2,0.15,left,27,2020-12-04_09h06.34.048,premup-three_ses-02_part-02_label-phase2,3.2.4,MacIntel,60,,,,,,,,,,,,,,,,,,,,,,,,,,,,,
right,0.688000202,0,231,1,0,1,0,1,0,1,0,240,87,1,239,2,1,4,stim/14.jpeg,HouseObjects,1,stim/objects/HouseObjects/rug.png,0.3,2,0.2,0.15,left,27,2020-12-04_09h06.34.048,premup-three_ses-02_part-02_label-phase2,3.2.4,MacIntel,60,,,,,,,,,,,,,,,,,,,,,,,,,,,,,
left,0.685000181,1,232,1,0,1,0,1,0,1,0,240,54,1,239,1,6,3,stim/63.jpeg,HouseObjects,1,stim/objects/HouseObjects/pan.png,0.5,3,-0.2,-0.15,left,27,2020-12-04_09h06.34.048,premup-three_ses-02_part-02_label-phase2,3.2.4,MacIntel,60,,,,,,,,,,,,,,,,,,,,,,,,,,,,,
left,0.71600008,1,233,1,0,1,0,1,0,1,0,240,210,1,239,3,4,3,stim/43.jpeg,HouseObjects,1,stim/objects/HouseObjects/rubbergloves2.png,0.9,1,-0.2,0.15,left,27,2020-12-04_09h06.34.048,premup-three_ses-02_part-02_label-phase2,3.2.4,MacIntel,60,,,,,,,,,,,,,,,,,,,,,,,,,,,,,
left,0.536000013,1,234,1,0,1,0,1,0,1,0,240,15,1,239,1,5,4,stim/54.jpeg,HouseObjects,1,stim/objects/HouseObjects/knife.png,0.5,3,-0.2,-0.15,left,27,2020-12-04_09h06.34.048,premup-three_ses-02_part-02_label-phase2,3.2.4,MacIntel,60,,,,,,,,,,,,,,,,,,,,,,,,,,,,,
right,0.558000088,1,235,1,0,1,0,1,0,1,0,240,166,1,239,3,3,3,stim/33.jpeg,Instruments,2,stim/objects/Instruments/musicstand2.png,0.9,2,0.2,0.15,right,27,2020-12-04_09h06.34.048,premup-three_ses-02_part-02_label-phase2,3.2.4,MacIntel,60,,,,,,,,,,,,,,,,,,,,,,,,,,,,,
left,0.470000029,1,236,1,0,1,0,1,0,1,0,240,139,1,239,2,2,4,stim/24.jpeg,HouseObjects,1,stim/objects/HouseObjects/knife2.png,0.7,3,-0.2,-0.15,left,27,2020-12-04_09h06.34.048,premup-three_ses-02_part-02_label-phase2,3.2.4,MacIntel,60,,,,,,,,,,,,,,,,,,,,,,,,,,,,,
left,0.504000187,1,237,1,0,1,0,1,0,1,0,240,203,1,239,3,4,4,stim/44.jpeg,HouseObjects,1,stim/objects/HouseObjects/rug2.png,0.9,2,0.2,0.15,left,27,2020-12-04_09h06.34.048,premup-three_ses-02_part-02_label-phase2,3.2.4,MacIntel,60,,,,,,,,,,,,,,,,,,,,,,,,,,,,,
left,0.537000179,1,238,1,0,1,0,1,0,1,0,240,147,1,239,2,2,4,stim/24.jpeg,HouseObjects,1,stim/objects/HouseObjects/knife2.png,0.7,4,0.2,-0.15,left,27,2020-12-04_09h06.34.048,premup-three_ses-02_part-02_label-phase2,3.2.4,MacIntel,60,,,,,,,,,,,,,,,,,,,,,,,,,,,,,
right,0.534000158,1,239,1,0,1,0,1,0,1,0,240,191,1,239,3,3,4,stim/34.jpeg,Instruments,2,stim/objects/Instruments/oboe2.png,0.9,3,-0.2,-0.15,right,27,2020-12-04_09h06.34.048,premup-three_ses-02_part-02_label-phase2,3.2.4,MacIntel,60,,,,,,,,,,,,,,,,,,,,,,,,,,,,,
left,0.588000059,1,240,1,0,1,0,1,0,1,0,240,227,1,239,3,4,4,stim/44.jpeg,HouseObjects,1,stim/objects/HouseObjects/rug2.png,0.9,2,0.2,0.15,left,27,2020-12-04_09h06.34.048,premup-three_ses-02_part-02_label-phase2,3.2.4,MacIntel,60,,,,,,,,,,,,,,,,,,,,,,,,,,,,,
,,,,1,0,1,0,1,0,,,,,,,,1,,stim/11.jpeg,,,,,,,,,27,2020-12-04_09h06.34.048,premup-three_ses-02_part-02_label-phase2,3.2.4,MacIntel,60,20,9.930999994,,,1,0,6,0,1,5,Household items,45,55,Music items,45,55,,,,,,,,,,,,,
,,,,1,0,1,0,1,0,,,,,,,,3,,stim/31.jpeg,,,,,,,,,27,2020-12-04_09h06.34.048,premup-three_ses-02_part-02_label-phase2,3.2.4,MacIntel,60,0,5.690000057,,,1,0,6,2,1,5,Household items,65,75,Music items,25,35,,,,,,,,,,,,,
,,,,1,0,1,0,1,0,,,,,,,,6,,stim/61.jpeg,,,,,,,,,27,2020-12-04_09h06.34.048,premup-three_ses-02_part-02_label-phase2,3.2.4,MacIntel,60,50,4.796000004,,,1,0,6,5,1,5,Household items,5,15,Music items,85,95,,,,,,,,,,,,,
,,,,1,0,1,0,1,0,,,,,,,,2,,stim/21.jpeg,,,,,,,,,27,2020-12-04_09h06.34.048,premup-three_ses-02_part-02_label-phase2,3.2.4,MacIntel,60,30,6.210000038,,,1,0,6,1,1,5,Music items,45,55,Household items,45,55,,,,,,,,,,,,,
,,,,1,0,1,0,1,0,,,,,,,,4,,stim/41.jpeg,,,,,,,,,27,2020-12-04_09h06.34.048,premup-three_ses-02_part-02_label-phase2,3.2.4,MacIntel,60,100,4.186000109,,,1,0,6,3,1,5,Household items,65,75,Music items,25,35,,,,,,,,,,,,,
,,,,1,0,1,0,1,0,,,,,,,,5,,stim/51.jpeg,,,,,,,,,27,2020-12-04_09h06.34.048,premup-three_ses-02_part-02_label-phase2,3.2.4,MacIntel,60,50,17.94799995,,,1,0,6,4,1,5,Music items,5,15,Household items,85,95,,,,,,,,,,,,,
,,,,1,0,1,0,1,0,,,,,,,,,,,,,,,,,,,27,2020-12-04_09h06.34.048,premup-three_ses-02_part-02_label-phase2,3.2.4,MacIntel,60,,,,,,,,,,,,,,,,,,,,,,,,,,,,,
left,0.529000044,0,241,,,,,,,,,,,,,1,5,2,stim/52.jpeg,Instruments,2,stim/objects/Instruments/acousticguitar.png,0.5,1,-0.2,0.15,right,27,2020-12-04_09h06.34.048,premup-three_ses-02_part-02_label-phase2,3.2.4,MacIntel,60,,,,,,,,,,,,,,,,,1,0,330,21,1,329,2,,,,,,
left,0.705000162,1,242,,,,,,,,,,,,,1,6,2,stim/62.jpeg,HouseObjects,1,stim/objects/HouseObjects/broom.png,0.5,2,0.2,0.15,left,27,2020-12-04_09h06.34.048,premup-three_ses-02_part-02_label-phase2,3.2.4,MacIntel,60,,,,,,,,,,,,,,,,,1,0,330,37,1,329,2,,,,,,
right,0.509000301,1,243,,,,,,,,,,,,,3,3,1,stim/31.jpeg,Instruments,2,stim/objects/Instruments/flute.png,0.9,2,0.2,0.15,right,27,2020-12-04_09h06.34.048,premup-three_ses-02_part-02_label-phase2,3.2.4,MacIntel,60,,,,,,,,,,,,,,,,,1,0,330,210,1,329,2,,,,,,
left,0.658000231,1,244,,,,,,,,,,,,,1,5,4,stim/54.jpeg,HouseObjects,1,stim/objects/HouseObjects/basket.png,0.5,1,-0.2,0.15,left,27,2020-12-04_09h06.34.048,premup-three_ses-02_part-02_label-phase2,3.2.4,MacIntel,60,,,,,,,,,,,,,,,,,1,0,330,3,1,329,2,,,,,,
right,0.440000057,1,245,,,,,,,,,,,,,3,3,4,stim/34.jpeg,Instruments,2,stim/objects/Instruments/flute.png,0.9,4,0.2,-0.15,right,27,2020-12-04_09h06.34.048,premup-three_ses-02_part-02_label-phase2,3.2.4,MacIntel,60,,,,,,,,,,,,,,,,,1,0,330,165,1,329,2,,,,,,
left,0.559000015,1,246,,,,,,,,,,,,,3,4,3,stim/43.jpeg,HouseObjects,1,stim/objects/HouseObjects/flyswatter.png,0.9,1,-0.2,0.15,left,27,2020-12-04_09h06.34.048,premup-three_ses-02_part-02_label-phase2,3.2.4,MacIntel,60,,,,,,,,,,,,,,,,,1,0,330,252,1,329,2,,,,,,
right,0.554000139,0,247,,,,,,,,,,,,,2,1,1,stim/11.jpeg,HouseObjects,1,stim/objects/HouseObjects/thermometer.png,0.3,1,-0.2,0.15,left,27,2020-12-04_09h06.34.048,premup-three_ses-02_part-02_label-phase2,3.2.4,MacIntel,60,,,,,,,,,,,,,,,,,1,0,330,60,1,329,1,,,,,,
left,0.588000059,1,248,,,,,,,,,,,,,3,4,1,stim/41.jpeg,HouseObjects,1,stim/objects/HouseObjects/doormat.png,0.9,4,0.2,-0.15,left,27,2020-12-04_09h06.34.048,premup-three_ses-02_part-02_label-phase2,3.2.4,MacIntel,60,,,,,,,,,,,,,,,,,1,0,330,290,1,329,2,,,,,,
left,0.524000168,1,249,,,,,,,,,,,,,3,4,2,stim/42.jpeg,HouseObjects,1,stim/objects/HouseObjects/garbagebin.png,0.9,4,0.2,-0.15,left,27,2020-12-04_09h06.34.048,premup-three_ses-02_part-02_label-phase2,3.2.4,MacIntel,60,,,,,,,,,,,,,,,,,1,0,330,263,1,329,2,,,,,,
right,0.454000235,1,250,,,,,,,,,,,,,3,3,4,stim/34.jpeg,Instruments,2,stim/objects/Instruments/flutetrans.png,0.9,4,0.2,-0.15,right,27,2020-12-04_09h06.34.048,premup-three_ses-02_part-02_label-phase2,3.2.4,MacIntel,60,,,,,,,,,,,,,,,,,1,0,330,161,1,329,2,,,,,,
left,0.620000124,0,251,,,,,,,,,,,,,1,5,2,stim/52.jpeg,Instruments,2,stim/objects/Instruments/saxophone.png,0.5,2,0.2,0.15,right,27,2020-12-04_09h06.34.048,premup-three_ses-02_part-02_label-phase2,3.2.4,MacIntel,60,,,,,,,,,,,,,,,,,1,0,330,29,1,329,1,,,,,,
left,0.639000177,1,252,,,,,,,,,,,,,2,2,1,stim/21.jpeg,HouseObjects,1,stim/objects/HouseObjects/dishsoap2.png,0.7,4,0.2,-0.15,left,27,2020-12-04_09h06.34.048,premup-three_ses-02_part-02_label-phase2,3.2.4,MacIntel,60,,,,,,,,,,,,,,,,,1,0,330,119,1,329,1,,,,,,
left,0.620000124,0,253,,,,,,,,,,,,,1,5,4,stim/54.jpeg,Instruments,2,stim/objects/Instruments/accordion.png,0.5,4,0.2,-0.15,right,27,2020-12-04_09h06.34.048,premup-three_ses-02_part-02_label-phase2,3.2.4,MacIntel,60,,,,,,,,,,,,,,,,,1,0,330,15,1,329,2,,,,,,
left,0.590000153,1,254,,,,,,,,,,,,,3,4,2,stim/42.jpeg,HouseObjects,1,stim/objects/HouseObjects/doormat.png,0.9,1,-0.2,0.15,left,27,2020-12-04_09h06.34.048,premup-three_ses-02_part-02_label-phase2,3.2.4,MacIntel,60,,,,,,,,,,,,,,,,,1,0,330,295,1,329,2,,,,,,
left,0.43900013,0,255,,,,,,,,,,,,,2,2,4,stim/24.jpeg,Instruments,2,stim/objects/Instruments/doublebass2.png,0.3,3,-0.2,-0.15,right,27,2020-12-04_09h06.34.048,premup-three_ses-02_part-02_label-phase2,3.2.4,MacIntel,60,,,,,,,,,,,,,,,,,1,0,330,126,1,329,1,,,,,,
right,0.560000181,1,256,,,,,,,,,,,,,3,3,2,stim/32.jpeg,Instruments,2,stim/objects/Instruments/grandpiano.png,0.9,3,-0.2,-0.15,right,27,2020-12-04_09h06.34.048,premup-three_ses-02_part-02_label-phase2,3.2.4,MacIntel,60,,,,,,,,,,,,,,,,,1,0,330,219,1,329,2,,,,,,
right,0.495000124,1,257,,,,,,,,,,,,,3,3,2,stim/32.jpeg,Instruments,2,stim/objects/Instruments/gong2.png,0.9,2,0.2,0.15,right,27,2020-12-04_09h06.34.048,premup-three_ses-02_part-02_label-phase2,3.2.4,MacIntel,60,,,,,,,,,,,,,,,,,1,0,330,223,1,329,1,,,,,,
left,0.510000229,1,258,,,,,,,,,,,,,3,4,2,stim/42.jpeg,HouseObjects,1,stim/objects/HouseObjects/dustpan.png,0.9,4,0.2,-0.15,left,27,2020-12-04_09h06.34.048,premup-three_ses-02_part-02_label-phase2,3.2.4,MacIntel,60,,,,,,,,,,,,,,,,,1,0,330,271,1,329,2,,,,,,
left,0.592000008,1,259,,,,,,,,,,,,,3,4,4,stim/44.jpeg,HouseObjects,1,stim/objects/HouseObjects/dustpan.png,0.9,1,-0.2,0.15,left,27,2020-12-04_09h06.34.048,premup-three_ses-02_part-02_label-phase2,3.2.4,MacIntel,60,,,,,,,,,,,,,,,,,1,0,330,241,1,329,2,,,,,,
right,0.446000338,1,260,,,,,,,,,,,,,3,3,1,stim/31.jpeg,Instruments,2,stim/objects/Instruments/frenchhorn.png,0.9,2,0.2,0.15,right,27,2020-12-04_09h06.34.048,premup-three_ses-02_part-02_label-phase2,3.2.4,MacIntel,60,,,,,,,,,,,,,,,,,1,0,330,142,1,329,2,,,,,,
right,0.713000059,1,261,,,,,,,,,,,,,1,5,3,stim/53.jpeg,Instruments,2,stim/objects/Instruments/balalaika.png,0.5,4,0.2,-0.15,right,27,2020-12-04_09h06.34.048,premup-three_ses-02_part-02_label-phase2,3.2.4,MacIntel,60,,,,,,,,,,,,,,,,,1,0,330,22,1,329,2,,,,,,
left,0.512000084,1,262,,,,,,,,,,,,,3,4,4,stim/44.jpeg,HouseObjects,1,stim/objects/HouseObjects/flyswatter.png,0.9,3,-0.2,-0.15,left,27,2020-12-04_09h06.34.048,premup-three_ses-02_part-02_label-phase2,3.2.4,MacIntel,60,,,,,,,,,,,,,,,,,1,0,330,277,1,329,2,,,,,,
left,0.569000006,1,263,,,,,,,,,,,,,3,4,1,stim/41.jpeg,HouseObjects,1,stim/objects/HouseObjects/doormat.png,0.9,2,0.2,0.15,left,27,2020-12-04_09h06.34.048,premup-three_ses-02_part-02_label-phase2,3.2.4,MacIntel,60,,,,,,,,,,,,,,,,,1,0,330,250,1,329,2,,,,,,
right,0.412000179,1,264,,,,,,,,,,,,,3,3,4,stim/34.jpeg,Instruments,2,stim/objects/Instruments/frenchhorn.png,0.9,1,-0.2,0.15,right,27,2020-12-04_09h06.34.048,premup-three_ses-02_part-02_label-phase2,3.2.4,MacIntel,60,,,,,,,,,,,,,,,,,1,0,330,177,1,329,2,,,,,,
,,0,265,,,,,,,,,,,,,2,1,3,stim/13.jpeg,HouseObjects,1,stim/objects/HouseObjects/towel.png,0.3,1,-0.2,0.15,left,27,2020-12-04_09h06.34.048,premup-three_ses-02_part-02_label-phase2,3.2.4,MacIntel,60,,,,,,,,,,,,,,,,,1,0,330,62,1,329,1,,,,,,
right,0.453000069,1,266,,,,,,,,,,,,,3,3,2,stim/32.jpeg,Instruments,2,stim/objects/Instruments/frenchhorn.png,0.9,2,0.2,0.15,right,27,2020-12-04_09h06.34.048,premup-three_ses-02_part-02_label-phase2,3.2.4,MacIntel,60,,,,,,,,,,,,,,,,,1,0,330,187,1,329,2,,,,,,
right,0.465000153,1,267,,,,,,,,,,,,,3,3,1,stim/31.jpeg,Instruments,2,stim/objects/Instruments/flute.png,0.9,2,0.2,0.15,right,27,2020-12-04_09h06.34.048,premup-three_ses-02_part-02_label-phase2,3.2.4,MacIntel,60,,,,,,,,,,,,,,,,,1,0,330,170,1,329,2,,,,,,
left,0.513999939,1,268,,,,,,,,,,,,,2,2,3,stim/23.jpeg,HouseObjects,1,stim/objects/HouseObjects/clothesdryingrack.png,0.7,4,0.2,-0.15,left,27,2020-12-04_09h06.34.048,premup-three_ses-02_part-02_label-phase2,3.2.4,MacIntel,60,,,,,,,,,,,,,,,,,1,0,330,105,1,329,2,,,,,,
right,0.508000135,0,269,,,,,,,,,,,,,3,3,4,stim/34.jpeg,HouseObjects,1,stim/objects/HouseObjects/garbagebin2.png,0.1,4,0.2,-0.15,left,27,2020-12-04_09h06.34.048,premup-three_ses-02_part-02_label-phase2,3.2.4,MacIntel,60,,,,,,,,,,,,,,,,,1,0,330,133,1,329,1,,,,,,
left,0.560000181,1,270,,,,,,,,,,,,,1,5,3,stim/53.jpeg,HouseObjects,1,stim/objects/HouseObjects/ballofstring.png,0.5,3,-0.2,-0.15,left,27,2020-12-04_09h06.34.048,premup-three_ses-02_part-02_label-phase2,3.2.4,MacIntel,60,,,,,,,,,,,,,,,,,1,0,330,6,1,329,2,,,,,,
left,0.607000113,0,271,,,,,,,,,,,,,1,5,1,stim/51.jpeg,Instruments,2,stim/objects/Instruments/acousticguitar.png,0.5,3,-0.2,-0.15,right,27,2020-12-04_09h06.34.048,premup-three_ses-02_part-02_label-phase2,3.2.4,MacIntel,60,,,,,,,,,,,,,,,,,1,0,330,16,1,329,2,,,,,,
right,0.562000036,0,272,,,,,,,,,,,,,1,5,1,stim/51.jpeg,HouseObjects,1,stim/objects/HouseObjects/ashtray.png,0.5,3,-0.2,-0.15,left,27,2020-12-04_09h06.34.048,premup-three_ses-02_part-02_label-phase2,3.2.4,MacIntel,60,,,,,,,,,,,,,,,,,1,0,330,0,1,329,2,,,,,,
left,0.798000097,1,273,,,,,,,,,,,,,3,4,1,stim/41.jpeg,HouseObjects,1,stim/objects/HouseObjects/dustpan.png,0.9,2,0.2,0.15,left,27,2020-12-04_09h06.34.048,premup-three_ses-02_part-02_label-phase2,3.2.4,MacIntel,60,,,,,,,,,,,,,,,,,1,0,330,286,1,329,2,,,,,,
left,0.767000198,1,274,,,,,,,,,,,,,3,3,2,stim/32.jpeg,HouseObjects,1,stim/objects/HouseObjects/safetypin2.png,0.1,1,-0.2,0.15,left,27,2020-12-04_09h06.34.048,premup-three_ses-02_part-02_label-phase2,3.2.4,MacIntel,60,,,,,,,,,,,,,,,,,1,0,330,139,1,329,1,,,,,,
right,0.770000219,0,275,,,,,,,,,,,,,1,6,4,stim/64.jpeg,HouseObjects,1,stim/objects/HouseObjects/bottle.png,0.5,3,-0.2,-0.15,left,27,2020-12-04_09h06.34.048,premup-three_ses-02_part-02_label-phase2,3.2.4,MacIntel,60,,,,,,,,,,,,,,,,,1,0,330,31,1,329,2,,,,,,
right,0.585000038,1,276,,,,,,,,,,,,,2,1,2,stim/12.jpeg,Instruments,2,stim/objects/Instruments/drums.png,0.7,4,0.2,-0.15,right,27,2020-12-04_09h06.34.048,premup-three_ses-02_part-02_label-phase2,3.2.4,MacIntel,60,,,,,,,,,,,,,,,,,1,0,330,77,1,329,2,,,,,,
right,0.468000174,0,277,,,,,,,,,,,,,2,1,2,stim/12.jpeg,HouseObjects,1,stim/objects/HouseObjects/bleachbottle2.png,0.3,4,0.2,-0.15,left,27,2020-12-04_09h06.34.048,premup-three_ses-02_part-02_label-phase2,3.2.4,MacIntel,60,,,,,,,,,,,,,,,,,1,0,330,69,1,329,1,,,,,,
left,0.541000128,1,278,,,,,,,,,,,,,3,4,3,stim/43.jpeg,HouseObjects,1,stim/objects/HouseObjects/dustpan.png,0.9,2,0.2,0.15,left,27,2020-12-04_09h06.34.048,premup-three_ses-02_part-02_label-phase2,3.2.4,MacIntel,60,,,,,,,,,,,,,,,,,1,0,330,296,1,329,2,,,,,,
left,0.62100029,1,279,,,,,,,,,,,,,3,4,1,stim/41.jpeg,HouseObjects,1,stim/objects/HouseObjects/garbagebin.png,0.9,4,0.2,-0.15,left,27,2020-12-04_09h06.34.048,premup-three_ses-02_part-02_label-phase2,3.2.4,MacIntel,60,,,,,,,,,,,,,,,,,1,0,330,298,1,329,2,,,,,,
right,0.601000071,1,280,,,,,,,,,,,,,2,1,4,stim/14.jpeg,Instruments,2,stim/objects/Instruments/doublebass.png,0.7,4,0.2,-0.15,right,27,2020-12-04_09h06.34.048,premup-three_ses-02_part-02_label-phase2,3.2.4,MacIntel,60,,,,,,,,,,,,,,,,,1,0,330,71,1,329,2,,,,,,
right,0.568000078,0,281,,,,,,,,,,,,,3,3,3,stim/33.jpeg,HouseObjects,1,stim/objects/HouseObjects/hairdryer2.png,0.1,3,-0.2,-0.15,left,27,2020-12-04_09h06.34.048,premup-three_ses-02_part-02_label-phase2,3.2.4,MacIntel,60,,,,,,,,,,,,,,,,,1,0,330,136,1,329,1,,,,,,
left,0.682000399,1,282,,,,,,,,,,,,,3,4,2,stim/42.jpeg,HouseObjects,1,stim/objects/HouseObjects/dustpan.png,0.9,3,-0.2,-0.15,left,27,2020-12-04_09h06.34.048,premup-three_ses-02_part-02_label-phase2,3.2.4,MacIntel,60,,,,,,,,,,,,,,,,,1,0,330,291,1,329,2,,,,,,
left,0.571000099,1,283,,,,,,,,,,,,,3,4,3,stim/43.jpeg,HouseObjects,1,stim/objects/HouseObjects/garbagebin.png,0.9,3,-0.2,-0.15,left,27,2020-12-04_09h06.34.048,premup-three_ses-02_part-02_label-phase2,3.2.4,MacIntel,60,,,,,,,,,,,,,,,,,1,0,330,288,1,329,2,,,,,,
left,0.65500021,1,284,,,,,,,,,,,,,2,2,3,stim/23.jpeg,HouseObjects,1,stim/objects/HouseObjects/coffee2.png,0.7,2,0.2,0.15,left,27,2020-12-04_09h06.34.048,premup-three_ses-02_part-02_label-phase2,3.2.4,MacIntel,60,,,,,,,,,,,,,,,,,1,0,330,117,1,329,1,,,,,,
left,0.526000261,0,285,,,,,,,,,,,,,2,1,4,stim/14.jpeg,Instruments,2,stim/objects/Instruments/violin.png,0.7,2,0.2,0.15,right,27,2020-12-04_09h06.34.048,premup-three_ses-02_part-02_label-phase2,3.2.4,MacIntel,60,,,,,,,,,,,,,,,,,1,0,330,87,1,329,1,,,,,,
right,0.594000101,1,286,,,,,,,,,,,,,3,3,2,stim/32.jpeg,Instruments,2,stim/objects/Instruments/grandpiano.png,0.9,2,0.2,0.15,right,27,2020-12-04_09h06.34.048,premup-three_ses-02_part-02_label-phase2,3.2.4,MacIntel,60,,,,,,,,,,,,,,,,,1,0,330,159,1,329,2,,,,,,
right,0.592000246,1,287,,,,,,,,,,,,,3,3,3,stim/33.jpeg,Instruments,2,stim/objects/Instruments/grandpiano.png,0.9,2,0.2,0.15,right,27,2020-12-04_09h06.34.048,premup-three_ses-02_part-02_label-phase2,3.2.4,MacIntel,60,,,,,,,,,,,,,,,,,1,0,330,164,1,329,2,,,,,,
right,0.509000063,1,288,,,,,,,,,,,,,3,3,1,stim/31.jpeg,Instruments,2,stim/objects/Instruments/flute.png,0.9,2,0.2,0.15,right,27,2020-12-04_09h06.34.048,premup-three_ses-02_part-02_label-phase2,3.2.4,MacIntel,60,,,,,,,,,,,,,,,,,1,0,330,150,1,329,2,,,,,,
right,0.493000269,1,289,,,,,,,,,,,,,3,3,3,stim/33.jpeg,Instruments,2,stim/objects/Instruments/flutetrans.png,0.9,2,0.2,0.15,right,27,2020-12-04_09h06.34.048,premup-three_ses-02_part-02_label-phase2,3.2.4,MacIntel,60,,,,,,,,,,,,,,,,,1,0,330,196,1,329,2,,,,,,
left,0.493000269,1,290,,,,,,,,,,,,,3,4,1,stim/41.jpeg,HouseObjects,1,stim/objects/HouseObjects/dustpan.png,0.9,2,0.2,0.15,left,27,2020-12-04_09h06.34.048,premup-three_ses-02_part-02_label-phase2,3.2.4,MacIntel,60,,,,,,,,,,,,,,,,,1,0,330,266,1,329,2,,,,,,
left,0.626000166,0,291,,,,,,,,,,,,,2,2,4,stim/24.jpeg,Instruments,2,stim/objects/Instruments/chime2.png,0.3,1,-0.2,0.15,right,27,2020-12-04_09h06.34.048,premup-three_ses-02_part-02_label-phase2,3.2.4,MacIntel,60,,,,,,,,,,,,,,,,,1,0,330,122,1,329,1,,,,,,
left,0.649000168,1,292,,,,,,,,,,,,,3,4,1,stim/41.jpeg,HouseObjects,1,stim/objects/HouseObjects/glass.png,0.9,2,0.2,0.15,left,27,2020-12-04_09h06.34.048,premup-three_ses-02_part-02_label-phase2,3.2.4,MacIntel,60,,,,,,,,,,,,,,,,,1,0,330,294,1,329,2,,,,,,
left,0.490000248,1,293,,,,,,,,,,,,,3,4,1,stim/41.jpeg,HouseObjects,1,stim/objects/HouseObjects/garbagebin.png,0.9,2,0.2,0.15,left,27,2020-12-04_09h06.34.048,premup-three_ses-02_part-02_label-phase2,3.2.4,MacIntel,60,,,,,,,,,,,,,,,,,1,0,330,258,1,329,2,,,,,,
left,0.768000126,0,294,,,,,,,,,,,,,1,6,1,stim/61.jpeg,Instruments,2,stim/objects/Instruments/chime.png,0.5,3,-0.2,-0.15,right,27,2020-12-04_09h06.34.048,premup-three_ses-02_part-02_label-phase2,3.2.4,MacIntel,60,,,,,,,,,,,,,,,,,1,0,330,52,1,329,2,,,,,,
left,0.659000158,1,295,,,,,,,,,,,,,1,5,2,stim/52.jpeg,HouseObjects,1,stim/objects/HouseObjects/handvacuum.png,0.5,4,0.2,-0.15,left,27,2020-12-04_09h06.34.048,premup-three_ses-02_part-02_label-phase2,3.2.4,MacIntel,60,,,,,,,,,,,,,,,,,1,0,330,13,1,329,1,,,,,,
right,0.470000267,1,296,,,,,,,,,,,,,3,3,2,stim/32.jpeg,Instruments,2,stim/objects/Instruments/grandpiano.png,0.9,1,-0.2,0.15,right,27,2020-12-04_09h06.34.048,premup-three_ses-02_part-02_label-phase2,3.2.4,MacIntel,60,,,,,,,,,,,,,,,,,1,0,330,179,1,329,2,,,,,,
right,0.743000269,1,297,,,,,,,,,,,,,2,1,4,stim/14.jpeg,Instruments,2,stim/objects/Instruments/electricdrumset.png,0.7,2,0.2,0.15,right,27,2020-12-04_09h06.34.048,premup-three_ses-02_part-02_label-phase2,3.2.4,MacIntel,60,,,,,,,,,,,,,,,,,1,0,330,83,1,329,2,,,,,,
right,0.452000141,1,298,,,,,,,,,,,,,3,3,1,stim/31.jpeg,Instruments,2,stim/objects/Instruments/gong.png,0.9,4,0.2,-0.15,right,27,2020-12-04_09h06.34.048,premup-three_ses-02_part-02_label-phase2,3.2.4,MacIntel,60,,,,,,,,,,,,,,,,,1,0,330,218,1,329,2,,,,,,
left,0.452000141,1,299,,,,,,,,,,,,,3,4,2,stim/42.jpeg,HouseObjects,1,stim/objects/HouseObjects/flyswatter.png,0.9,3,-0.2,-0.15,left,27,2020-12-04_09h06.34.048,premup-three_ses-02_part-02_label-phase2,3.2.4,MacIntel,60,,,,,,,,,,,,,,,,,1,0,330,287,1,329,2,,,,,,
left,0.49000001,1,300,,,,,,,,,,,,,3,4,3,stim/43.jpeg,HouseObjects,1,stim/objects/HouseObjects/flyswatter.png,0.9,1,-0.2,0.15,left,27,2020-12-04_09h06.34.048,premup-three_ses-02_part-02_label-phase2,3.2.4,MacIntel,60,,,,,,,,,,,,,,,,,1,0,330,232,1,329,2,,,,,,
left,0.686000109,1,301,,,,,,,,,,,,,3,4,1,stim/41.jpeg,HouseObjects,1,stim/objects/HouseObjects/doormat.png,0.9,4,0.2,-0.15,left,27,2020-12-04_09h06.34.048,premup-three_ses-02_part-02_label-phase2,3.2.4,MacIntel,60,,,,,,,,,,,,,,,,,1,0,330,270,1,329,2,,,,,,
right,0.702000141,1,302,,,,,,,,,,,,,2,1,1,stim/11.jpeg,Instruments,2,stim/objects/Instruments/electricguitar.png,0.7,2,0.2,0.15,right,27,2020-12-04_09h06.34.048,premup-three_ses-02_part-02_label-phase2,3.2.4,MacIntel,60,,,,,,,,,,,,,,,,,1,0,330,84,1,329,2,,,,,,
right,0.563000202,1,303,,,,,,,,,,,,,3,3,4,stim/34.jpeg,Instruments,2,stim/objects/Instruments/flute.png,0.9,4,0.2,-0.15,right,27,2020-12-04_09h06.34.048,premup-three_ses-02_part-02_label-phase2,3.2.4,MacIntel,60,,,,,,,,,,,,,,,,,1,0,330,205,1,329,2,,,,,,
left,0.534000158,1,304,,,,,,,,,,,,,2,2,4,stim/24.jpeg,HouseObjects,1,stim/objects/HouseObjects/blender2.png,0.7,3,-0.2,-0.15,left,27,2020-12-04_09h06.34.048,premup-three_ses-02_part-02_label-phase2,3.2.4,MacIntel,60,,,,,,,,,,,,,,,,,1,0,330,110,1,329,1,,,,,,
left,0.589000225,1,305,,,,,,,,,,,,,3,4,1,stim/41.jpeg,HouseObjects,1,stim/objects/HouseObjects/glass.png,0.9,4,0.2,-0.15,left,27,2020-12-04_09h06.34.048,premup-three_ses-02_part-02_label-phase2,3.2.4,MacIntel,60,,,,,,,,,,,,,,,,,1,0,330,254,1,329,2,,,,,,
left,0.626000166,1,306,,,,,,,,,,,,,3,4,4,stim/44.jpeg,HouseObjects,1,stim/objects/HouseObjects/dustpan.png,0.9,2,0.2,0.15,left,27,2020-12-04_09h06.34.048,premup-three_ses-02_part-02_label-phase2,3.2.4,MacIntel,60,,,,,,,,,,,,,,,,,1,0,330,301,1,329,2,,,,,,
left,0.555000305,1,307,,,,,,,,,,,,,1,6,1,stim/61.jpeg,HouseObjects,1,stim/objects/HouseObjects/saw.png,0.5,2,0.2,0.15,left,27,2020-12-04_09h06.34.048,premup-three_ses-02_part-02_label-phase2,3.2.4,MacIntel,60,,,,,,,,,,,,,,,,,1,0,330,40,1,329,1,,,,,,
right,0.626000166,1,308,,,,,,,,,,,,,3,3,3,stim/33.jpeg,Instruments,2,stim/objects/Instruments/gong.png,0.9,3,-0.2,-0.15,right,27,2020-12-04_09h06.34.048,premup-three_ses-02_part-02_label-phase2,3.2.4,MacIntel,60,,,,,,,,,,,,,,,,,1,0,330,188,1,329,2,,,,,,
left,0.541000128,1,309,,,,,,,,,,,,,3,4,4,stim/44.jpeg,HouseObjects,1,stim/objects/HouseObjects/dustpan.png,0.9,3,-0.2,-0.15,left,27,2020-12-04_09h06.34.048,premup-three_ses-02_part-02_label-phase2,3.2.4,MacIntel,60,,,,,,,,,,,,,,,,,1,0,330,281,1,329,2,,,,,,
left,0.621999979,0,310,,,,,,,,,,,,,3,4,4,stim/44.jpeg,Instruments,2,stim/objects/Instruments/trumpet2.png,0.1,1,-0.2,0.15,right,27,2020-12-04_09h06.34.048,premup-three_ses-02_part-02_label-phase2,3.2.4,MacIntel,60,,,,,,,,,,,,,,,,,1,0,330,325,1,329,1,,,,,,
right,0.559000015,0,311,,,,,,,,,,,,,3,4,3,stim/43.jpeg,HouseObjects,1,stim/objects/HouseObjects/dustpan.png,0.9,4,0.2,-0.15,left,27,2020-12-04_09h06.34.048,premup-three_ses-02_part-02_label-phase2,3.2.4,MacIntel,60,,,,,,,,,,,,,,,,,1,0,330,236,1,329,2,,,,,,
left,0.731000185,0,312,,,,,,,,,,,,,1,6,2,stim/62.jpeg,Instruments,2,stim/objects/Instruments/clarinet.png,0.5,2,0.2,0.15,right,27,2020-12-04_09h06.34.048,premup-three_ses-02_part-02_label-phase2,3.2.4,MacIntel,60,,,,,,,,,,,,,,,,,1,0,330,53,1,329,2,,,,,,
,,0,313,,,,,,,,,,,,,1,5,3,stim/53.jpeg,HouseObjects,1,stim/objects/HouseObjects/barbecuelighter.png,0.5,1,-0.2,0.15,left,27,2020-12-04_09h06.34.048,premup-three_ses-02_part-02_label-phase2,3.2.4,MacIntel,60,,,,,,,,,,,,,,,,,1,0,330,2,1,329,2,,,,,,
right,0.569000244,1,314,,,,,,,,,,,,,3,3,1,stim/31.jpeg,Instruments,2,stim/objects/Instruments/frenchhorn.png,0.9,1,-0.2,0.15,right,27,2020-12-04_09h06.34.048,premup-three_ses-02_part-02_label-phase2,3.2.4,MacIntel,60,,,,,,,,,,,,,,,,,1,0,330,202,1,329,2,,,,,,
left,0.653000116,1,315,,,,,,,,,,,,,3,4,3,stim/43.jpeg,HouseObjects,1,stim/objects/HouseObjects/sponge2.png,0.9,4,0.2,-0.15,left,27,2020-12-04_09h06.34.048,premup-three_ses-02_part-02_label-phase2,3.2.4,MacIntel,60,,,,,,,,,,,,,,,,,1,0,330,312,1,329,1,,,,,,
left,0.572000265,1,316,,,,,,,,,,,,,2,2,2,stim/22.jpeg,HouseObjects,1,stim/objects/HouseObjects/broom2.png,0.7,4,0.2,-0.15,left,27,2020-12-04_09h06.34.048,premup-three_ses-02_part-02_label-phase2,3.2.4,MacIntel,60,,,,,,,,,,,,,,,,,1,0,330,112,1,329,1,,,,,,
left,0.588000059,0,317,,,,,,,,,,,,,2,1,1,stim/11.jpeg,Instruments,2,stim/objects/Instruments/balalaika2.png,0.7,4,0.2,-0.15,right,27,2020-12-04_09h06.34.048,premup-three_ses-02_part-02_label-phase2,3.2.4,MacIntel,60,,,,,,,,,,,,,,,,,1,0,330,92,1,329,1,,,,,,
right,0.461000204,1,318,,,,,,,,,,,,,3,3,1,stim/31.jpeg,Instruments,2,stim/objects/Instruments/grandpiano.png,0.9,2,0.2,0.15,right,27,2020-12-04_09h06.34.048,premup-three_ses-02_part-02_label-phase2,3.2.4,MacIntel,60,,,,,,,,,,,,,,,,,1,0,330,154,1,329,2,,,,,,
left,0.578000069,0,319,,,,,,,,,,,,,1,6,3,stim/63.jpeg,Instruments,2,stim/objects/Instruments/cornet.png,0.5,1,-0.2,0.15,right,27,2020-12-04_09h06.34.048,premup-three_ses-02_part-02_label-phase2,3.2.4,MacIntel,60,,,,,,,,,,,,,,,,,1,0,330,54,1,329,2,,,,,,
left,0.686000109,0,320,,,,,,,,,,,,,1,6,2,stim/62.jpeg,Instruments,2,stim/objects/Instruments/timbal.png,0.5,4,0.2,-0.15,right,27,2020-12-04_09h06.34.048,premup-three_ses-02_part-02_label-phase2,3.2.4,MacIntel,60,,,,,,,,,,,,,,,,,1,0,330,57,1,329,1,,,,,,
left,0.695000172,1,321,,,,,,,,,,,,,3,4,1,stim/41.jpeg,HouseObjects,1,stim/objects/HouseObjects/glass.png,0.9,2,0.2,0.15,left,27,2020-12-04_09h06.34.048,premup-three_ses-02_part-02_label-phase2,3.2.4,MacIntel,60,,,,,,,,,,,,,,,,,1,0,330,234,1,329,2,,,,,,
left,0.551000118,0,322,,,,,,,,,,,,,1,6,3,stim/63.jpeg,Instruments,2,stim/objects/Instruments/bassguitar.png,0.5,4,0.2,-0.15,right,27,2020-12-04_09h06.34.048,premup-three_ses-02_part-02_label-phase2,3.2.4,MacIntel,60,,,,,,,,,,,,,,,,,1,0,330,50,1,329,2,,,,,,
right,0.58100009,1,323,,,,,,,,,,,,,3,3,4,stim/34.jpeg,Instruments,2,stim/objects/Instruments/gong.png,0.9,1,-0.2,0.15,right,27,2020-12-04_09h06.34.048,premup-three_ses-02_part-02_label-phase2,3.2.4,MacIntel,60,,,,,,,,,,,,,,,,,1,0,330,153,1,329,2,,,,,,
left,0.657000303,1,324,,,,,,,,,,,,,2,2,1,stim/21.jpeg,HouseObjects,1,stim/objects/HouseObjects/dishsoap.png,0.7,3,-0.2,-0.15,left,27,2020-12-04_09h06.34.048,premup-three_ses-02_part-02_label-phase2,3.2.4,MacIntel,60,,,,,,,,,,,,,,,,,1,0,330,99,1,329,2,,,,,,
right,0.673000097,1,325,,,,,,,,,,,,,2,1,3,stim/13.jpeg,Instruments,2,stim/objects/Instruments/electricdrumset.png,0.7,4,0.2,-0.15,right,27,2020-12-04_09h06.34.048,premup-three_ses-02_part-02_label-phase2,3.2.4,MacIntel,60,,,,,,,,,,,,,,,,,1,0,330,78,1,329,2,,,,,,
right,0.575000048,1,326,,,,,,,,,,,,,2,1,3,stim/13.jpeg,Instruments,2,stim/objects/Instruments/cymbal.png,0.7,2,0.2,0.15,right,27,2020-12-04_09h06.34.048,premup-three_ses-02_part-02_label-phase2,3.2.4,MacIntel,60,,,,,,,,,,,,,,,,,1,0,330,70,1,329,2,,,,,,
left,0.555000067,1,327,,,,,,,,,,,,,1,5,2,stim/52.jpeg,HouseObjects,1,stim/objects/HouseObjects/ashtray.png,0.5,3,-0.2,-0.15,left,27,2020-12-04_09h06.34.048,premup-three_ses-02_part-02_label-phase2,3.2.4,MacIntel,60,,,,,,,,,,,,,,,,,1,0,330,5,1,329,2,,,,,,
left,0.548000336,1,328,,,,,,,,,,,,,1,5,3,stim/53.jpeg,HouseObjects,1,stim/objects/HouseObjects/glassmop.png,0.5,3,-0.2,-0.15,left,27,2020-12-04_09h06.34.048,premup-three_ses-02_part-02_label-phase2,3.2.4,MacIntel,60,,,,,,,,,,,,,,,,,1,0,330,10,1,329,1,,,,,,
left,0.584000111,1,329,,,,,,,,,,,,,3,4,4,stim/44.jpeg,HouseObjects,1,stim/objects/HouseObjects/doormat.png,0.9,2,0.2,0.15,left,27,2020-12-04_09h06.34.048,premup-three_ses-02_part-02_label-phase2,3.2.4,MacIntel,60,,,,,,,,,,,,,,,,,1,0,330,285,1,329,2,,,,,,
left,0.559000254,0,330,,,,,,,,,,,,,3,3,2,stim/32.jpeg,Instruments,2,stim/objects/Instruments/flute.png,0.9,2,0.2,0.15,right,27,2020-12-04_09h06.34.048,premup-three_ses-02_part-02_label-phase2,3.2.4,MacIntel,60,,,,,,,,,,,,,,,,,1,0,330,215,1,329,2,,,,,,
right,0.492000103,1,331,,,,,,,,,,,,,3,3,1,stim/31.jpeg,Instruments,2,stim/objects/Instruments/flutetrans.png,0.9,4,0.2,-0.15,right,27,2020-12-04_09h06.34.048,premup-three_ses-02_part-02_label-phase2,3.2.4,MacIntel,60,,,,,,,,,,,,,,,,,1,0,330,146,1,329,2,,,,,,
right,0.565000296,1,332,,,,,,,,,,,,,3,3,1,stim/31.jpeg,Instruments,2,stim/objects/Instruments/flutetrans.png,0.9,3,-0.2,-0.15,right,27,2020-12-04_09h06.34.048,premup-three_ses-02_part-02_label-phase2,3.2.4,MacIntel,60,,,,,,,,,,,,,,,,,1,0,330,206,1,329,2,,,,,,
right,0.762000322,1,333,,,,,,,,,,,,,3,3,4,stim/34.jpeg,Instruments,2,stim/objects/Instruments/frenchhorn.png,0.9,2,0.2,0.15,right,27,2020-12-04_09h06.34.048,premup-three_ses-02_part-02_label-phase2,3.2.4,MacIntel,60,,,,,,,,,,,,,,,,,1,0,330,217,1,329,2,,,,,,
right,0.450000048,1,334,,,,,,,,,,,,,3,3,2,stim/32.jpeg,Instruments,2,stim/objects/Instruments/gong.png,0.9,4,0.2,-0.15,right,27,2020-12-04_09h06.34.048,premup-three_ses-02_part-02_label-phase2,3.2.4,MacIntel,60,,,,,,,,,,,,,,,,,1,0,330,183,1,329,2,,,,,,
right,0.410000086,1,335,,,,,,,,,,,,,3,3,4,stim/34.jpeg,Instruments,2,stim/objects/Instruments/guitarcase2.png,0.9,4,0.2,-0.15,right,27,2020-12-04_09h06.34.048,premup-three_ses-02_part-02_label-phase2,3.2.4,MacIntel,60,,,,,,,,,,,,,,,,,1,0,330,225,1,329,1,,,,,,
left,0.604000092,1,336,,,,,,,,,,,,,1,5,3,stim/53.jpeg,HouseObjects,1,stim/objects/HouseObjects/safetypin.png,0.5,3,-0.2,-0.15,left,27,2020-12-04_09h06.34.048,premup-three_ses-02_part-02_label-phase2,3.2.4,MacIntel,60,,,,,,,,,,,,,,,,,1,0,330,14,1,329,1,,,,,,
left,0.64800024,1,337,,,,,,,,,,,,,1,6,2,stim/62.jpeg,HouseObjects,1,stim/objects/HouseObjects/bucket.png,0.5,4,0.2,-0.15,left,27,2020-12-04_09h06.34.048,premup-three_ses-02_part-02_label-phase2,3.2.4,MacIntel,60,,,,,,,,,,,,,,,,,1,0,330,33,1,329,2,,,,,,
left,0.488000154,1,338,,,,,,,,,,,,,1,6,3,stim/63.jpeg,HouseObjects,1,stim/objects/HouseObjects/clock.png,0.5,4,0.2,-0.15,left,27,2020-12-04_09h06.34.048,premup-three_ses-02_part-02_label-phase2,3.2.4,MacIntel,60,,,,,,,,,,,,,,,,,1,0,330,34,1,329,2,,,,,,
left,0.54700017,1,339,,,,,,,,,,,,,2,2,2,stim/22.jpeg,HouseObjects,1,stim/objects/HouseObjects/dishsoap.png,0.7,2,0.2,0.15,left,27,2020-12-04_09h06.34.048,premup-three_ses-02_part-02_label-phase2,3.2.4,MacIntel,60,,,,,,,,,,,,,,,,,1,0,330,104,1,329,2,,,,,,
left,0.588000298,1,340,,,,,,,,,,,,,3,4,3,stim/43.jpeg,HouseObjects,1,stim/objects/HouseObjects/thread2.png,0.9,3,-0.2,-0.15,left,27,2020-12-04_09h06.34.048,premup-three_ses-02_part-02_label-phase2,3.2.4,MacIntel,60,,,,,,,,,,,,,,,,,1,0,330,316,1,329,1,,,,,,
left,0.586000204,1,341,,,,,,,,,,,,,3,4,2,stim/42.jpeg,HouseObjects,1,stim/objects/HouseObjects/doormat.png,0.9,1,-0.2,0.15,left,27,2020-12-04_09h06.34.048,premup-three_ses-02_part-02_label-phase2,3.2.4,MacIntel,60,,,,,,,,,,,,,,,,,1,0,330,255,1,329,2,,,,,,
left,0.486999989,1,342,,,,,,,,,,,,,1,5,4,stim/54.jpeg,HouseObjects,1,stim/objects/HouseObjects/barbecuelighter.png,0.5,2,0.2,0.15,left,27,2020-12-04_09h06.34.048,premup-three_ses-02_part-02_label-phase2,3.2.4,MacIntel,60,,,,,,,,,,,,,,,,,1,0,330,7,1,329,2,,,,,,
right,0.595000029,0,343,,,,,,,,,,,,,3,3,3,stim/33.jpeg,HouseObjects,1,stim/objects/HouseObjects/flyswatter2.png,0.1,3,-0.2,-0.15,left,27,2020-12-04_09h06.34.048,premup-three_ses-02_part-02_label-phase2,3.2.4,MacIntel,60,,,,,,,,,,,,,,,,,1,0,330,132,1,329,1,,,,,,
left,0.589000225,1,344,,,,,,,,,,,,,3,4,2,stim/42.jpeg,HouseObjects,1,stim/objects/HouseObjects/scale2.png,0.9,4,0.2,-0.15,left,27,2020-12-04_09h06.34.048,premup-three_ses-02_part-02_label-phase2,3.2.4,MacIntel,60,,,,,,,,,,,,,,,,,1,0,330,311,1,329,1,,,,,,
left,0.54700017,0,345,,,,,,,,,,,,,1,5,2,stim/52.jpeg,Instruments,2,stim/objects/Instruments/balalaika.png,0.5,2,0.2,0.15,right,27,2020-12-04_09h06.34.048,premup-three_ses-02_part-02_label-phase2,3.2.4,MacIntel,60,,,,,,,,,,,,,,,,,1,0,330,17,1,329,2,,,,,,
left,0.693000317,1,346,,,,,,,,,,,,,3,4,3,stim/43.jpeg,HouseObjects,1,stim/objects/HouseObjects/glass.png,0.9,4,0.2,-0.15,left,27,2020-12-04_09h06.34.048,premup-three_ses-02_part-02_label-phase2,3.2.4,MacIntel,60,,,,,,,,,,,,,,,,,1,0,330,264,1,329,2,,,,,,
,,0,347,,,,,,,,,,,,,2,1,4,stim/14.jpeg,HouseObjects,1,stim/objects/HouseObjects/barbecuelighter2.png,0.3,3,-0.2,-0.15,left,27,2020-12-04_09h06.34.048,premup-three_ses-02_part-02_label-phase2,3.2.4,MacIntel,60,,,,,,,,,,,,,,,,,1,0,330,67,1,329,1,,,,,,
left,0.592000246,1,348,,,,,,,,,,,,,3,4,3,stim/43.jpeg,HouseObjects,1,stim/objects/HouseObjects/doormat.png,0.9,4,0.2,-0.15,left,27,2020-12-04_09h06.34.048,premup-three_ses-02_part-02_label-phase2,3.2.4,MacIntel,60,,,,,,,,,,,,,,,,,1,0,330,260,1,329,2,,,,,,
left,0.550000191,1,349,,,,,,,,,,,,,3,4,4,stim/44.jpeg,HouseObjects,1,stim/objects/HouseObjects/flyswatter.png,0.9,3,-0.2,-0.15,left,27,2020-12-04_09h06.34.048,premup-three_ses-02_part-02_label-phase2,3.2.4,MacIntel,60,,,,,,,,,,,,,,,,,1,0,330,297,1,329,2,,,,,,
left,0.420000315,1,350,,,,,,,,,,,,,3,4,2,stim/42.jpeg,HouseObjects,1,stim/objects/HouseObjects/garbagebin.png,0.9,2,0.2,0.15,left,27,2020-12-04_09h06.34.048,premup-three_ses-02_part-02_label-phase2,3.2.4,MacIntel,60,,,,,,,,,,,,,,,,,1,0,330,303,1,329,2,,,,,,
right,0.609000206,1,351,,,,,,,,,,,,,3,3,2,stim/32.jpeg,Instruments,2,stim/objects/Instruments/flute.png,0.9,4,0.2,-0.15,right,27,2020-12-04_09h06.34.048,premup-three_ses-02_part-02_label-phase2,3.2.4,MacIntel,60,,,,,,,,,,,,,,,,,1,0,330,155,1,329,2,,,,,,
right,0.469000101,1,352,,,,,,,,,,,,,3,3,4,stim/34.jpeg,Instruments,2,stim/objects/Instruments/grandpiano.png,0.9,4,0.2,-0.15,right,27,2020-12-04_09h06.34.048,premup-three_ses-02_part-02_label-phase2,3.2.4,MacIntel,60,,,,,,,,,,,,,,,,,1,0,330,169,1,329,2,,,,,,
right,0.446000338,1,353,,,,,,,,,,,,,3,3,1,stim/31.jpeg,Instruments,2,stim/objects/Instruments/gong.png,0.9,3,-0.2,-0.15,right,27,2020-12-04_09h06.34.048,premup-three_ses-02_part-02_label-phase2,3.2.4,MacIntel,60,,,,,,,,,,,,,,,,,1,0,330,178,1,329,2,,,,,,
left,0.535000086,0,354,,,,,,,,,,,,,1,5,1,stim/51.jpeg,Instruments,2,stim/objects/Instruments/bassdrum.png,0.5,3,-0.2,-0.15,right,27,2020-12-04_09h06.34.048,premup-three_ses-02_part-02_label-phase2,3.2.4,MacIntel,60,,,,,,,,,,,,,,,,,1,0,330,24,1,329,2,,,,,,
right,0.499000311,1,355,,,,,,,,,,,,,3,3,3,stim/33.jpeg,Instruments,2,stim/objects/Instruments/hihat2.png,0.9,3,-0.2,-0.15,right,27,2020-12-04_09h06.34.048,premup-three_ses-02_part-02_label-phase2,3.2.4,MacIntel,60,,,,,,,,,,,,,,,,,1,0,330,228,1,329,1,,,,,,
right,0.515000105,0,356,,,,,,,,,,,,,3,3,1,stim/31.jpeg,HouseObjects,1,stim/objects/HouseObjects/handvacuum2.png,0.1,2,0.2,0.15,left,27,2020-12-04_09h06.34.048,premup-three_ses-02_part-02_label-phase2,3.2.4,MacIntel,60,,,,,,,,,,,,,,,,,1,0,330,138,1,329,1,,,,,,
left,0.480000257,1,357,,,,,,,,,,,,,3,4,4,stim/44.jpeg,HouseObjects,1,stim/objects/HouseObjects/glass.png,0.9,2,0.2,0.15,left,27,2020-12-04_09h06.34.048,premup-three_ses-02_part-02_label-phase2,3.2.4,MacIntel,60,,,,,,,,,,,,,,,,,1,0,330,249,1,329,2,,,,,,
right,0.519000292,1,358,,,,,,,,,,,,,3,3,2,stim/32.jpeg,Instruments,2,stim/objects/Instruments/frenchhorn.png,0.9,4,0.2,-0.15,right,27,2020-12-04_09h06.34.048,premup-three_ses-02_part-02_label-phase2,3.2.4,MacIntel,60,,,,,,,,,,,,,,,,,1,0,330,207,1,329,2,,,,,,
right,0.565999985,1,359,,,,,,,,,,,,,3,3,1,stim/31.jpeg,Instruments,2,stim/objects/Instruments/flute.png,0.9,4,0.2,-0.15,right,27,2020-12-04_09h06.34.048,premup-three_ses-02_part-02_label-phase2,3.2.4,MacIntel,60,,,,,,,,,,,,,,,,,1,0,330,190,1,329,2,,,,,,
left,0.509000301,1,360,,,,,,,,,,,,,2,2,4,stim/24.jpeg,HouseObjects,1,stim/objects/HouseObjects/clothespin.png,0.7,3,-0.2,-0.15,left,27,2020-12-04_09h06.34.048,premup-three_ses-02_part-02_label-phase2,3.2.4,MacIntel,60,,,,,,,,,,,,,,,,,1,0,330,106,1,329,2,,,,,,
left,0.799999952,0,361,,,,,,,,,,,,,2,1,3,stim/13.jpeg,Instruments,2,stim/objects/Instruments/accordion2.png,0.7,2,0.2,0.15,right,27,2020-12-04_09h06.34.048,premup-three_ses-02_part-02_label-phase2,3.2.4,MacIntel,60,,,,,,,,,,,,,,,,,1,0,330,90,1,329,1,,,,,,
right,0.49000001,1,362,,,,,,,,,,,,,3,3,4,stim/34.jpeg,Instruments,2,stim/objects/Instruments/flutetrans.png,0.9,4,0.2,-0.15,right,27,2020-12-04_09h06.34.048,premup-three_ses-02_part-02_label-phase2,3.2.4,MacIntel,60,,,,,,,,,,,,,,,,,1,0,330,201,1,329,2,,,,,,
left,0.571000338,1,363,,,,,,,,,,,,,3,4,3,stim/43.jpeg,HouseObjects,1,stim/objects/HouseObjects/dustpan.png,0.9,2,0.2,0.15,left,27,2020-12-04_09h06.34.048,premup-three_ses-02_part-02_label-phase2,3.2.4,MacIntel,60,,,,,,,,,,,,,,,,,1,0,330,276,1,329,2,,,,,,
right,0.622000217,0,364,,,,,,,,,,,,,3,3,1,stim/31.jpeg,HouseObjects,1,stim/objects/HouseObjects/doormat2.png,0.1,1,-0.2,0.15,left,27,2020-12-04_09h06.34.048,premup-three_ses-02_part-02_label-phase2,3.2.4,MacIntel,60,,,,,,,,,,,,,,,,,1,0,330,130,1,329,1,,,,,,
right,0.458000183,1,365,,,,,,,,,,,,,3,3,2,stim/32.jpeg,Instruments,2,stim/objects/Instruments/frenchhorn.png,0.9,1,-0.2,0.15,right,27,2020-12-04_09h06.34.048,premup-three_ses-02_part-02_label-phase2,3.2.4,MacIntel,60,,,,,,,,,,,,,,,,,1,0,330,147,1,329,2,,,,,,
left,0.482000113,1,366,,,,,,,,,,,,,2,2,3,stim/23.jpeg,HouseObjects,1,stim/objects/HouseObjects/dishsoap.png,0.7,1,-0.2,0.15,left,27,2020-12-04_09h06.34.048,premup-three_ses-02_part-02_label-phase2,3.2.4,MacIntel,60,,,,,,,,,,,,,,,,,1,0,330,109,1,329,2,,,,,,
right,0.529000044,1,367,,,,,,,,,,,,,3,3,3,stim/33.jpeg,Instruments,2,stim/objects/Instruments/flute.png,0.9,1,-0.2,0.15,right,27,2020-12-04_09h06.34.048,premup-three_ses-02_part-02_label-phase2,3.2.4,MacIntel,60,,,,,,,,,,,,,,,,,1,0,330,180,1,329,2,,,,,,
left,0.653000116,1,368,,,,,,,,,,,,,3,4,3,stim/43.jpeg,HouseObjects,1,stim/objects/HouseObjects/dustpan.png,0.9,4,0.2,-0.15,left,27,2020-12-04_09h06.34.048,premup-three_ses-02_part-02_label-phase2,3.2.4,MacIntel,60,,,,,,,,,,,,,,,,,1,0,330,256,1,329,2,,,,,,
left,0.725000143,0,369,,,,,,,,,,,,,1,6,1,stim/61.jpeg,Instruments,2,stim/objects/Instruments/clarinet.png,0.5,4,0.2,-0.15,right,27,2020-12-04_09h06.34.048,premup-three_ses-02_part-02_label-phase2,3.2.4,MacIntel,60,,,,,,,,,,,,,,,,,1,0,330,48,1,329,2,,,,,,
left,0.607000113,0,370,,,,,,,,,,,,,1,5,1,stim/51.jpeg,Instruments,2,stim/objects/Instruments/hihat.png,0.5,2,0.2,0.15,right,27,2020-12-04_09h06.34.048,premup-three_ses-02_part-02_label-phase2,3.2.4,MacIntel,60,,,,,,,,,,,,,,,,,1,0,330,28,1,329,1,,,,,,
left,0.568000317,1,371,,,,,,,,,,,,,3,4,4,stim/44.jpeg,HouseObjects,1,stim/objects/HouseObjects/glass.png,0.9,4,0.2,-0.15,left,27,2020-12-04_09h06.34.048,premup-three_ses-02_part-02_label-phase2,3.2.4,MacIntel,60,,,,,,,,,,,,,,,,,1,0,330,309,1,329,2,,,,,,
left,0.835000038,1,372,,,,,,,,,,,,,1,6,1,stim/61.jpeg,HouseObjects,1,stim/objects/HouseObjects/teapot.png,0.5,1,-0.2,0.15,left,27,2020-12-04_09h06.34.048,premup-three_ses-02_part-02_label-phase2,3.2.4,MacIntel,60,,,,,,,,,,,,,,,,,1,0,330,44,1,329,1,,,,,,
right,0.565000057,1,373,,,,,,,,,,,,,3,3,2,stim/32.jpeg,Instruments,2,stim/objects/Instruments/flutetrans.png,0.9,1,-0.2,0.15,right,27,2020-12-04_09h06.34.048,premup-three_ses-02_part-02_label-phase2,3.2.4,MacIntel,60,,,,,,,,,,,,,,,,,1,0,330,191,1,329,2,,,,,,
left,0.592000246,1,374,,,,,,,,,,,,,1,6,4,stim/64.jpeg,HouseObjects,1,stim/objects/HouseObjects/clock.png,0.5,1,-0.2,0.15,left,27,2020-12-04_09h06.34.048,premup-three_ses-02_part-02_label-phase2,3.2.4,MacIntel,60,,,,,,,,,,,,,,,,,1,0,330,39,1,329,2,,,,,,
,,0,375,,,,,,,,,,,,,3,3,4,stim/34.jpeg,Instruments,2,stim/objects/Instruments/flute.png,0.9,1,-0.2,0.15,right,27,2020-12-04_09h06.34.048,premup-three_ses-02_part-02_label-phase2,3.2.4,MacIntel,60,,,,,,,,,,,,,,,,,1,0,330,145,1,329,2,,,,,,
right,0.651000261,1,376,,,,,,,,,,,,,2,1,3,stim/13.jpeg,Instruments,2,stim/objects/Instruments/electricguitar.png,0.7,2,0.2,0.15,right,27,2020-12-04_09h06.34.048,premup-three_ses-02_part-02_label-phase2,3.2.4,MacIntel,60,,,,,,,,,,,,,,,,,1,0,330,74,1,329,2,,,,,,
right,0.559000015,1,377,,,,,,,,,,,,,3,3,3,stim/33.jpeg,Instruments,2,stim/objects/Instruments/gong.png,0.9,3,-0.2,-0.15,right,27,2020-12-04_09h06.34.048,premup-three_ses-02_part-02_label-phase2,3.2.4,MacIntel,60,,,,,,,,,,,,,,,,,1,0,330,168,1,329,2,,,,,,
