key_resp_pract.keys,key_resp_pract.rt,trial_acc,trial_index,practice_loop.thisRepN,practice_loop.thisTrialN,practice_loop.thisN,practice_loop.thisIndex,practice_loop.ran,practice_loop.order,scn_condition,scn_cat,scn_inst,scn_file,obj_cat,obj_cat_num,obj_file,trial_cond,quadrant,obj_x,obj_y,corr_ans,participant,date,expName,psychopyVersion,OS,frameRate,key_resp_trial.keys,key_resp_trial.rt,iterations.thisRepN,iterations.thisTrialN,iterations.thisN,iterations.thisIndex,iterations.ran,iterations.order,task_innerloop.thisRepN,task_innerloop.thisTrialN,task_innerloop.thisN,task_innerloop.thisIndex,task_innerloop.ran,task_innerloop.order,iteration_index,rating_acc,slider.response,slider.rt,slider_2.response,slider_2.rt,ratings.thisRepN,ratings.thisTrialN,ratings.thisN,ratings.thisIndex,ratings.ran,ratings.order,obj_cat_top,min_resp_top,max_resp_top,obj_cat_bottom,min_resp_bottom,max_resp_bottom
,,0,1,1,0,240,108,1,239,2,1,1,stim/11.jpeg,Instruments,2,stim/objects/Instruments/panflute.png,0.7,1,-0.2,0.15,right,27,2020-12-03_09h12.38.272,premup-three_ses-01_part-01_label-phase1,3.2.4,MacIntel,60,,,,,,,,,,,,,,,,,,,,,,,,,,,,,,,,
left,1.314999819,1,2,1,0,240,86,1,239,2,1,3,stim/13.jpeg,HouseObjects,1,stim/objects/HouseObjects/rubbergloves.png,0.3,4,0.2,-0.15,left,27,2020-12-03_09h12.38.272,premup-three_ses-01_part-01_label-phase1,3.2.4,MacIntel,60,,,,,,,,,,,,,,,,,,,,,,,,,,,,,,,,
right,1.075000048,1,3,1,0,240,29,1,239,1,5,2,stim/52.jpeg,Instruments,2,stim/objects/Instruments/laud.png,0.5,2,0.2,0.15,right,27,2020-12-03_09h12.38.272,premup-three_ses-01_part-01_label-phase1,3.2.4,MacIntel,60,,,,,,,,,,,,,,,,,,,,,,,,,,,,,,,,
right,1.110000134,1,4,1,0,240,154,1,239,2,2,3,stim/23.jpeg,Instruments,2,stim/objects/Instruments/maraca2.png,0.3,2,0.2,0.15,right,27,2020-12-03_09h12.38.272,premup-three_ses-01_part-01_label-phase1,3.2.4,MacIntel,60,,,,,,,,,,,,,,,,,,,,,,,,,,,,,,,,
right,1.040999889,0,5,1,0,240,202,1,239,3,4,3,stim/43.jpeg,HouseObjects,1,stim/objects/HouseObjects/rubbergloves2.png,0.9,4,0.2,-0.15,left,27,2020-12-03_09h12.38.272,premup-three_ses-01_part-01_label-phase1,3.2.4,MacIntel,60,,,,,,,,,,,,,,,,,,,,,,,,,,,,,,,,
right,1.027000189,0,6,1,0,240,135,1,239,2,2,4,stim/24.jpeg,HouseObjects,1,stim/objects/HouseObjects/knife2.png,0.7,2,0.2,0.15,left,27,2020-12-03_09h12.38.272,premup-three_ses-01_part-01_label-phase1,3.2.4,MacIntel,60,,,,,,,,,,,,,,,,,,,,,,,,,,,,,,,,
left,1.257999897,0,7,1,0,240,186,1,239,3,3,3,stim/33.jpeg,Instruments,2,stim/objects/Instruments/musicstand2.png,0.9,3,-0.2,-0.15,right,27,2020-12-03_09h12.38.272,premup-three_ses-01_part-01_label-phase1,3.2.4,MacIntel,60,,,,,,,,,,,,,,,,,,,,,,,,,,,,,,,,
right,1.480999947,0,8,1,0,240,120,1,239,2,2,1,stim/21.jpeg,HouseObjects,1,stim/objects/HouseObjects/iron2.png,0.7,1,-0.2,0.15,left,27,2020-12-03_09h12.38.272,premup-three_ses-01_part-01_label-phase1,3.2.4,MacIntel,60,,,,,,,,,,,,,,,,,,,,,,,,,,,,,,,,
right,1.338999987,1,9,1,0,240,75,1,239,1,6,4,stim/64.jpeg,Instruments,2,stim/objects/Instruments/oboe.png,0.5,3,-0.2,-0.15,right,27,2020-12-03_09h12.38.272,premup-three_ses-01_part-01_label-phase1,3.2.4,MacIntel,60,,,,,,,,,,,,,,,,,,,,,,,,,,,,,,,,
left,0.819999933,1,10,1,0,240,51,1,239,1,6,4,stim/64.jpeg,HouseObjects,1,stim/objects/HouseObjects/pitcher.png,0.5,4,0.2,-0.15,left,27,2020-12-03_09h12.38.272,premup-three_ses-01_part-01_label-phase1,3.2.4,MacIntel,60,,,,,,,,,,,,,,,,,,,,,,,,,,,,,,,,
,,0,1,,,,,,,3,3,3,stim/33.jpeg,Instruments,2,stim/objects/Instruments/musicstand2.png,0.9,1,-0.2,0.15,right,27,2020-12-03_09h12.38.272,premup-three_ses-01_part-01_label-phase1,3.2.4,MacIntel,60,left,0.903000116,4,0,4,0,1,3,1,0,240,194,1,239,,,,,,,,,,,,,,,,,,
,,1,2,,,,,,,3,3,4,stim/34.jpeg,Instruments,2,stim/objects/Instruments/oboe2.png,0.9,1,-0.2,0.15,right,27,2020-12-03_09h12.38.272,premup-three_ses-01_part-01_label-phase1,3.2.4,MacIntel,60,right,0.811000109,4,0,4,0,1,3,1,0,240,183,1,239,,,,,,,,,,,,,,,,,,
,,0,3,,,,,,,2,1,3,stim/13.jpeg,Instruments,2,stim/objects/Instruments/record.png,0.7,4,0.2,-0.15,right,27,2020-12-03_09h12.38.272,premup-three_ses-01_part-01_label-phase1,3.2.4,MacIntel,60,left,0.855000019,4,0,4,0,1,3,1,0,240,110,1,239,,,,,,,,,,,,,,,,,,
,,0,4,,,,,,,2,2,4,stim/24.jpeg,HouseObjects,1,stim/objects/HouseObjects/knife2.png,0.7,3,-0.2,-0.15,left,27,2020-12-03_09h12.38.272,premup-three_ses-01_part-01_label-phase1,3.2.4,MacIntel,60,right,1.082999945,4,0,4,0,1,3,1,0,240,143,1,239,,,,,,,,,,,,,,,,,,
,,1,5,,,,,,,2,1,1,stim/11.jpeg,Instruments,2,stim/objects/Instruments/panflute.png,0.7,3,-0.2,-0.15,right,27,2020-12-03_09h12.38.272,premup-three_ses-01_part-01_label-phase1,3.2.4,MacIntel,60,right,0.796000004,4,0,4,0,1,3,1,0,240,104,1,239,,,,,,,,,,,,,,,,,,
,,0,6,,,,,,,2,1,1,stim/11.jpeg,Instruments,2,stim/objects/Instruments/panflute.png,0.7,2,0.2,0.15,right,27,2020-12-03_09h12.38.272,premup-three_ses-01_part-01_label-phase1,3.2.4,MacIntel,60,left,1.118999958,4,0,4,0,1,3,1,0,240,112,1,239,,,,,,,,,,,,,,,,,,
,,0,7,,,,,,,2,2,3,stim/23.jpeg,Instruments,2,stim/objects/Instruments/maraca2.png,0.3,1,-0.2,0.15,right,27,2020-12-03_09h12.38.272,premup-three_ses-01_part-01_label-phase1,3.2.4,MacIntel,60,left,1.263999939,4,0,4,0,1,3,1,0,240,150,1,239,,,,,,,,,,,,,,,,,,
,,0,8,,,,,,,2,2,3,stim/23.jpeg,HouseObjects,1,stim/objects/HouseObjects/key2.png,0.7,1,-0.2,0.15,left,27,2020-12-03_09h12.38.272,premup-three_ses-01_part-01_label-phase1,3.2.4,MacIntel,60,right,0.559000015,4,0,4,0,1,3,1,0,240,138,1,239,,,,,,,,,,,,,,,,,,
,,0,9,,,,,,,2,2,2,stim/22.jpeg,HouseObjects,1,stim/objects/HouseObjects/ironingboard2.png,0.7,3,-0.2,-0.15,left,27,2020-12-03_09h12.38.272,premup-three_ses-01_part-01_label-phase1,3.2.4,MacIntel,60,right,0.96600008,4,0,4,0,1,3,1,0,240,121,1,239,,,,,,,,,,,,,,,,,,
,,0,10,,,,,,,2,1,2,stim/12.jpeg,HouseObjects,1,stim/objects/HouseObjects/remote.png,0.3,2,0.2,0.15,left,27,2020-12-03_09h12.38.272,premup-three_ses-01_part-01_label-phase1,3.2.4,MacIntel,60,right,1.604000092,4,0,4,0,1,3,1,0,240,81,1,239,,,,,,,,,,,,,,,,,,
,,0,11,,,,,,,3,4,4,stim/44.jpeg,HouseObjects,1,stim/objects/HouseObjects/rug2.png,0.9,2,0.2,0.15,left,27,2020-12-03_09h12.38.272,premup-three_ses-01_part-01_label-phase1,3.2.4,MacIntel,60,right,0.95600009,4,0,4,0,1,3,1,0,240,219,1,239,,,,,,,,,,,,,,,,,,
,,1,12,,,,,,,1,5,4,stim/54.jpeg,HouseObjects,1,stim/objects/HouseObjects/knife.png,0.5,3,-0.2,-0.15,left,27,2020-12-03_09h12.38.272,premup-three_ses-01_part-01_label-phase1,3.2.4,MacIntel,60,left,0.808000088,4,0,4,0,1,3,1,0,240,15,1,239,,,,,,,,,,,,,,,,,,
,,1,13,,,,,,,3,3,2,stim/32.jpeg,Instruments,2,stim/objects/Instruments/musicsheet2.png,0.9,4,0.2,-0.15,right,27,2020-12-03_09h12.38.272,premup-three_ses-01_part-01_label-phase1,3.2.4,MacIntel,60,right,1.47300005,4,0,4,0,1,3,1,0,240,181,1,239,,,,,,,,,,,,,,,,,,
,,0,14,,,,,,,3,4,4,stim/44.jpeg,HouseObjects,1,stim/objects/HouseObjects/rug2.png,0.9,4,0.2,-0.15,left,27,2020-12-03_09h12.38.272,premup-three_ses-01_part-01_label-phase1,3.2.4,MacIntel,60,right,1.302999973,4,0,4,0,1,3,1,0,240,223,1,239,,,,,,,,,,,,,,,,,,
,,1,15,,,,,,,1,6,3,stim/63.jpeg,Instruments,2,stim/objects/Instruments/musicstand.png,0.5,4,0.2,-0.15,right,27,2020-12-03_09h12.38.272,premup-three_ses-01_part-01_label-phase1,3.2.4,MacIntel,60,right,0.753000021,4,0,4,0,1,3,1,0,240,62,1,239,,,,,,,,,,,,,,,,,,
,,1,16,,,,,,,2,2,4,stim/24.jpeg,HouseObjects,1,stim/objects/HouseObjects/knife2.png,0.7,4,0.2,-0.15,left,27,2020-12-03_09h12.38.272,premup-three_ses-01_part-01_label-phase1,3.2.4,MacIntel,60,left,0.673000097,4,0,4,0,1,3,1,0,240,123,1,239,,,,,,,,,,,,,,,,,,
,,0,17,,,,,,,1,6,4,stim/64.jpeg,HouseObjects,1,stim/objects/HouseObjects/pitcher.png,0.5,1,-0.2,0.15,left,27,2020-12-03_09h12.38.272,premup-three_ses-01_part-01_label-phase1,3.2.4,MacIntel,60,right,0.797999859,4,0,4,0,1,3,1,0,240,55,1,239,,,,,,,,,,,,,,,,,,
,,0,18,,,,,,,1,5,1,stim/51.jpeg,HouseObjects,1,stim/objects/HouseObjects/iron.png,0.5,1,-0.2,0.15,left,27,2020-12-03_09h12.38.272,premup-three_ses-01_part-01_label-phase1,3.2.4,MacIntel,60,right,0.753999949,4,0,4,0,1,3,1,0,240,16,1,239,,,,,,,,,,,,,,,,,,
,,1,19,,,,,,,1,5,3,stim/53.jpeg,HouseObjects,1,stim/objects/HouseObjects/key.png,0.5,1,-0.2,0.15,left,27,2020-12-03_09h12.38.272,premup-three_ses-01_part-01_label-phase1,3.2.4,MacIntel,60,left,0.757999897,4,0,4,0,1,3,1,0,240,2,1,239,,,,,,,,,,,,,,,,,,
,,0,20,,,,,,,3,4,1,stim/41.jpeg,HouseObjects,1,stim/objects/HouseObjects/recyclingbin2.png,0.9,1,-0.2,0.15,left,27,2020-12-03_09h12.38.272,premup-three_ses-01_part-01_label-phase1,3.2.4,MacIntel,60,right,0.638000011,4,0,4,0,1,3,1,0,240,200,1,239,,,,,,,,,,,,,,,,,,
,,1,21,,,,,,,2,1,1,stim/11.jpeg,HouseObjects,1,stim/objects/HouseObjects/recyclingbin.png,0.3,1,-0.2,0.15,left,27,2020-12-03_09h12.38.272,premup-three_ses-01_part-01_label-phase1,3.2.4,MacIntel,60,left,1.453000069,4,0,4,0,1,3,1,0,240,80,1,239,,,,,,,,,,,,,,,,,,
,,1,22,,,,,,,2,1,4,stim/14.jpeg,Instruments,2,stim/objects/Instruments/record_player.png,0.7,4,0.2,-0.15,right,27,2020-12-03_09h12.38.272,premup-three_ses-01_part-01_label-phase1,3.2.4,MacIntel,60,right,1.791999817,4,0,4,0,1,3,1,0,240,115,1,239,,,,,,,,,,,,,,,,,,
,,1,23,,,,,,,1,5,4,stim/54.jpeg,Instruments,2,stim/objects/Instruments/marimba.png,0.5,2,0.2,0.15,right,27,2020-12-03_09h12.38.272,premup-three_ses-01_part-01_label-phase1,3.2.4,MacIntel,60,right,0.910000086,4,0,4,0,1,3,1,0,240,27,1,239,,,,,,,,,,,,,,,,,,
,,1,24,,,,,,,1,6,3,stim/63.jpeg,Instruments,2,stim/objects/Instruments/musicstand.png,0.5,3,-0.2,-0.15,right,27,2020-12-03_09h12.38.272,premup-three_ses-01_part-01_label-phase1,3.2.4,MacIntel,60,right,1.31799984,4,0,4,0,1,3,1,0,240,70,1,239,,,,,,,,,,,,,,,,,,
,,0,25,,,,,,,1,6,4,stim/64.jpeg,HouseObjects,1,stim/objects/HouseObjects/pitcher.png,0.5,3,-0.2,-0.15,left,27,2020-12-03_09h12.38.272,premup-three_ses-01_part-01_label-phase1,3.2.4,MacIntel,60,right,1.411999941,4,0,4,0,1,3,1,0,240,43,1,239,,,,,,,,,,,,,,,,,,
,,0,26,,,,,,,3,4,2,stim/42.jpeg,HouseObjects,1,stim/objects/HouseObjects/remote2.png,0.9,3,-0.2,-0.15,left,27,2020-12-03_09h12.38.272,premup-three_ses-01_part-01_label-phase1,3.2.4,MacIntel,60,right,1.444000006,4,0,4,0,1,3,1,0,240,205,1,239,,,,,,,,,,,,,,,,,,
,,1,27,,,,,,,2,2,2,stim/22.jpeg,HouseObjects,1,stim/objects/HouseObjects/ironingboard2.png,0.7,4,0.2,-0.15,left,27,2020-12-03_09h12.38.272,premup-three_ses-01_part-01_label-phase1,3.2.4,MacIntel,60,left,0.980000019,4,0,4,0,1,3,1,0,240,125,1,239,,,,,,,,,,,,,,,,,,
,,0,28,,,,,,,3,4,4,stim/44.jpeg,Instruments,2,stim/objects/Instruments/record_player2.png,0.1,3,-0.2,-0.15,right,27,2020-12-03_09h12.38.272,premup-three_ses-01_part-01_label-phase1,3.2.4,MacIntel,60,left,0.610000134,4,0,4,0,1,3,1,0,240,239,1,239,,,,,,,,,,,,,,,,,,
,,1,29,,,,,,,2,2,2,stim/22.jpeg,Instruments,2,stim/objects/Instruments/laud2.png,0.3,4,0.2,-0.15,right,27,2020-12-03_09h12.38.272,premup-three_ses-01_part-01_label-phase1,3.2.4,MacIntel,60,right,1.138000011,4,0,4,0,1,3,1,0,240,157,1,239,,,,,,,,,,,,,,,,,,
,,0,30,,,,,,,2,2,1,stim/21.jpeg,HouseObjects,1,stim/objects/HouseObjects/iron2.png,0.7,1,-0.2,0.15,left,27,2020-12-03_09h12.38.272,premup-three_ses-01_part-01_label-phase1,3.2.4,MacIntel,60,right,1.046999931,4,0,4,0,1,3,1,0,240,136,1,239,,,,,,,,,,,,,,,,,,
,,0,31,,,,,,,3,4,1,stim/41.jpeg,HouseObjects,1,stim/objects/HouseObjects/recyclingbin2.png,0.9,2,0.2,0.15,left,27,2020-12-03_09h12.38.272,premup-three_ses-01_part-01_label-phase1,3.2.4,MacIntel,60,right,0.73300004,4,0,4,0,1,3,1,0,240,216,1,239,,,,,,,,,,,,,,,,,,
,,0,32,,,,,,,2,1,4,stim/14.jpeg,Instruments,2,stim/objects/Instruments/record_player.png,0.7,2,0.2,0.15,right,27,2020-12-03_09h12.38.272,premup-three_ses-01_part-01_label-phase1,3.2.4,MacIntel,60,left,1.203000069,4,0,4,0,1,3,1,0,240,107,1,239,,,,,,,,,,,,,,,,,,
,,1,33,,,,,,,2,1,4,stim/14.jpeg,Instruments,2,stim/objects/Instruments/record_player.png,0.7,3,-0.2,-0.15,right,27,2020-12-03_09h12.38.272,premup-three_ses-01_part-01_label-phase1,3.2.4,MacIntel,60,right,1.013000011,4,0,4,0,1,3,1,0,240,111,1,239,,,,,,,,,,,,,,,,,,
,,1,34,,,,,,,2,2,4,stim/24.jpeg,HouseObjects,1,stim/objects/HouseObjects/knife2.png,0.7,2,0.2,0.15,left,27,2020-12-03_09h12.38.272,premup-three_ses-01_part-01_label-phase1,3.2.4,MacIntel,60,left,0.934000015,4,0,4,0,1,3,1,0,240,135,1,239,,,,,,,,,,,,,,,,,,
,,0,35,,,,,,,1,6,4,stim/64.jpeg,Instruments,2,stim/objects/Instruments/oboe.png,0.5,1,-0.2,0.15,right,27,2020-12-03_09h12.38.272,premup-three_ses-01_part-01_label-phase1,3.2.4,MacIntel,60,left,0.960000038,4,0,4,0,1,3,1,0,240,71,1,239,,,,,,,,,,,,,,,,,,
,,0,36,,,,,,,2,2,3,stim/23.jpeg,HouseObjects,1,stim/objects/HouseObjects/key2.png,0.7,1,-0.2,0.15,left,27,2020-12-03_09h12.38.272,premup-three_ses-01_part-01_label-phase1,3.2.4,MacIntel,60,right,0.877999783,4,0,4,0,1,3,1,0,240,126,1,239,,,,,,,,,,,,,,,,,,
,,0,37,,,,,,,3,3,3,stim/33.jpeg,HouseObjects,1,stim/objects/HouseObjects/pan2.png,0.1,4,0.2,-0.15,left,27,2020-12-03_09h12.38.272,premup-three_ses-01_part-01_label-phase1,3.2.4,MacIntel,60,right,1.371000051,4,0,4,0,1,3,1,0,240,162,1,239,,,,,,,,,,,,,,,,,,
,,0,38,,,,,,,2,2,3,stim/23.jpeg,Instruments,2,stim/objects/Instruments/maraca2.png,0.3,2,0.2,0.15,right,27,2020-12-03_09h12.38.272,premup-three_ses-01_part-01_label-phase1,3.2.4,MacIntel,60,left,1.447999954,4,0,4,0,1,3,1,0,240,154,1,239,,,,,,,,,,,,,,,,,,
,,0,39,,,,,,,3,4,1,stim/41.jpeg,HouseObjects,1,stim/objects/HouseObjects/recyclingbin2.png,0.9,3,-0.2,-0.15,left,27,2020-12-03_09h12.38.272,premup-three_ses-01_part-01_label-phase1,3.2.4,MacIntel,60,right,1.369999886,4,0,4,0,1,3,1,0,240,232,1,239,,,,,,,,,,,,,,,,,,
,,1,40,,,,,,,1,6,1,stim/61.jpeg,Instruments,2,stim/objects/Instruments/metronome.png,0.5,3,-0.2,-0.15,right,27,2020-12-03_09h12.38.272,premup-three_ses-01_part-01_label-phase1,3.2.4,MacIntel,60,right,0.838999987,4,0,4,0,1,3,1,0,240,68,1,239,,,,,,,,,,,,,,,,,,
,,1,41,,,,,,,3,3,3,stim/33.jpeg,Instruments,2,stim/objects/Instruments/musicstand2.png,0.9,4,0.2,-0.15,right,27,2020-12-03_09h12.38.272,premup-three_ses-01_part-01_label-phase1,3.2.4,MacIntel,60,right,0.847999811,4,0,4,0,1,3,1,0,240,178,1,239,,,,,,,,,,,,,,,,,,
,,1,42,,,,,,,3,4,4,stim/44.jpeg,HouseObjects,1,stim/objects/HouseObjects/rug2.png,0.9,4,0.2,-0.15,left,27,2020-12-03_09h12.38.272,premup-three_ses-01_part-01_label-phase1,3.2.4,MacIntel,60,left,1.183000088,4,0,4,0,1,3,1,0,240,235,1,239,,,,,,,,,,,,,,,,,,
,,0,43,,,,,,,1,6,1,stim/61.jpeg,Instruments,2,stim/objects/Instruments/metronome.png,0.5,2,0.2,0.15,right,27,2020-12-03_09h12.38.272,premup-three_ses-01_part-01_label-phase1,3.2.4,MacIntel,60,left,0.781000137,4,0,4,0,1,3,1,0,240,64,1,239,,,,,,,,,,,,,,,,,,
,,1,44,,,,,,,2,2,1,stim/21.jpeg,HouseObjects,1,stim/objects/HouseObjects/iron2.png,0.7,1,-0.2,0.15,left,27,2020-12-03_09h12.38.272,premup-three_ses-01_part-01_label-phase1,3.2.4,MacIntel,60,left,0.815999985,4,0,4,0,1,3,1,0,240,120,1,239,,,,,,,,,,,,,,,,,,
,,0,45,,,,,,,1,5,1,stim/51.jpeg,Instruments,2,stim/objects/Instruments/keyboard.png,0.5,1,-0.2,0.15,right,27,2020-12-03_09h12.38.272,premup-three_ses-01_part-01_label-phase1,3.2.4,MacIntel,60,left,0.746000051,4,0,4,0,1,3,1,0,240,24,1,239,,,,,,,,,,,,,,,,,,
,,1,46,,,,,,,2,1,3,stim/13.jpeg,Instruments,2,stim/objects/Instruments/record.png,0.7,4,0.2,-0.15,right,27,2020-12-03_09h12.38.272,premup-three_ses-01_part-01_label-phase1,3.2.4,MacIntel,60,right,1.878999949,4,0,4,0,1,3,1,0,240,94,1,239,,,,,,,,,,,,,,,,,,
,,1,47,,,,,,,2,1,3,stim/13.jpeg,Instruments,2,stim/objects/Instruments/record.png,0.7,4,0.2,-0.15,right,27,2020-12-03_09h12.38.272,premup-three_ses-01_part-01_label-phase1,3.2.4,MacIntel,60,right,0.726000071,4,0,4,0,1,3,1,0,240,114,1,239,,,,,,,,,,,,,,,,,,
,,1,48,,,,,,,3,3,4,stim/34.jpeg,Instruments,2,stim/objects/Instruments/oboe2.png,0.9,4,0.2,-0.15,right,27,2020-12-03_09h12.38.272,premup-three_ses-01_part-01_label-phase1,3.2.4,MacIntel,60,right,0.671999931,4,0,4,0,1,3,1,0,240,179,1,239,,,,,,,,,,,,,,,,,,
,,1,49,,,,,,,1,6,1,stim/61.jpeg,Instruments,2,stim/objects/Instruments/metronome.png,0.5,3,-0.2,-0.15,right,27,2020-12-03_09h12.38.272,premup-three_ses-01_part-01_label-phase1,3.2.4,MacIntel,60,right,0.914999962,4,0,4,0,1,3,1,0,240,76,1,239,,,,,,,,,,,,,,,,,,
,,0,50,,,,,,,2,2,3,stim/23.jpeg,Instruments,2,stim/objects/Instruments/maraca2.png,0.3,1,-0.2,0.15,right,27,2020-12-03_09h12.38.272,premup-three_ses-01_part-01_label-phase1,3.2.4,MacIntel,60,left,1.378000021,4,0,4,0,1,3,1,0,240,158,1,239,,,,,,,,,,,,,,,,,,
,,0,51,,,,,,,2,1,3,stim/13.jpeg,Instruments,2,stim/objects/Instruments/record.png,0.7,1,-0.2,0.15,right,27,2020-12-03_09h12.38.272,premup-three_ses-01_part-01_label-phase1,3.2.4,MacIntel,60,left,1.114000082,4,0,4,0,1,3,1,0,240,102,1,239,,,,,,,,,,,,,,,,,,
,,1,52,,,,,,,2,2,3,stim/23.jpeg,HouseObjects,1,stim/objects/HouseObjects/key2.png,0.7,3,-0.2,-0.15,left,27,2020-12-03_09h12.38.272,premup-three_ses-01_part-01_label-phase1,3.2.4,MacIntel,60,left,1.309999943,4,0,4,0,1,3,1,0,240,142,1,239,,,,,,,,,,,,,,,,,,
,,1,53,,,,,,,3,3,3,stim/33.jpeg,Instruments,2,stim/objects/Instruments/musicstand2.png,0.9,3,-0.2,-0.15,right,27,2020-12-03_09h12.38.272,premup-three_ses-01_part-01_label-phase1,3.2.4,MacIntel,60,right,0.753999949,4,0,4,0,1,3,1,0,240,186,1,239,,,,,,,,,,,,,,,,,,
,,0,54,,,,,,,1,5,4,stim/54.jpeg,Instruments,2,stim/objects/Instruments/marimba.png,0.5,4,0.2,-0.15,right,27,2020-12-03_09h12.38.272,premup-three_ses-01_part-01_label-phase1,3.2.4,MacIntel,60,left,0.96600008,4,0,4,0,1,3,1,0,240,35,1,239,,,,,,,,,,,,,,,,,,
,,1,55,,,,,,,3,3,1,stim/31.jpeg,Instruments,2,stim/objects/Instruments/metronome2.png,0.9,1,-0.2,0.15,right,27,2020-12-03_09h12.38.272,premup-three_ses-01_part-01_label-phase1,3.2.4,MacIntel,60,right,0.773999929,4,0,4,0,1,3,1,0,240,196,1,239,,,,,,,,,,,,,,,,,,
,,1,56,,,,,,,1,5,2,stim/52.jpeg,HouseObjects,1,stim/objects/HouseObjects/ironingboard.png,0.5,3,-0.2,-0.15,left,27,2020-12-03_09h12.38.272,premup-three_ses-01_part-01_label-phase1,3.2.4,MacIntel,60,left,1.269000053,4,0,4,0,1,3,1,0,240,5,1,239,,,,,,,,,,,,,,,,,,
,,1,57,,,,,,,2,2,2,stim/22.jpeg,HouseObjects,1,stim/objects/HouseObjects/ironingboard2.png,0.7,3,-0.2,-0.15,left,27,2020-12-03_09h12.38.272,premup-three_ses-01_part-01_label-phase1,3.2.4,MacIntel,60,left,1.516000032,4,0,4,0,1,3,1,0,240,137,1,239,,,,,,,,,,,,,,,,,,
,,1,58,,,,,,,1,6,3,stim/63.jpeg,Instruments,2,stim/objects/Instruments/musicstand.png,0.5,1,-0.2,0.15,right,27,2020-12-03_09h12.38.272,premup-three_ses-01_part-01_label-phase1,3.2.4,MacIntel,60,right,0.921000004,4,0,4,0,1,3,1,0,240,66,1,239,,,,,,,,,,,,,,,,,,
,,0,59,,,,,,,3,4,3,stim/43.jpeg,HouseObjects,1,stim/objects/HouseObjects/rubbergloves2.png,0.9,1,-0.2,0.15,left,27,2020-12-03_09h12.38.272,premup-three_ses-01_part-01_label-phase1,3.2.4,MacIntel,60,right,0.970000029,4,0,4,0,1,3,1,0,240,210,1,239,,,,,,,,,,,,,,,,,,
,,0,60,,,,,,,1,6,2,stim/62.jpeg,HouseObjects,1,stim/objects/HouseObjects/match.png,0.5,1,-0.2,0.15,left,27,2020-12-03_09h12.38.272,premup-three_ses-01_part-01_label-phase1,3.2.4,MacIntel,60,right,1.049999952,4,0,4,0,1,3,1,0,240,53,1,239,,,,,,,,,,,,,,,,,,
,,1,61,,,,,,,2,2,4,stim/24.jpeg,HouseObjects,1,stim/objects/HouseObjects/knife2.png,0.7,4,0.2,-0.15,left,27,2020-12-03_09h12.38.272,premup-three_ses-01_part-01_label-phase1,3.2.4,MacIntel,60,left,0.874000072,4,0,4,0,1,3,1,0,240,147,1,239,,,,,,,,,,,,,,,,,,
,,0,62,,,,,,,1,6,1,stim/61.jpeg,HouseObjects,1,stim/objects/HouseObjects/lintroller.png,0.5,4,0.2,-0.15,left,27,2020-12-03_09h12.38.272,premup-three_ses-01_part-01_label-phase1,3.2.4,MacIntel,60,right,0.924999952,4,0,4,0,1,3,1,0,240,44,1,239,,,,,,,,,,,,,,,,,,
,,0,63,,,,,,,1,5,1,stim/51.jpeg,Instruments,2,stim/objects/Instruments/keyboard.png,0.5,4,0.2,-0.15,right,27,2020-12-03_09h12.38.272,premup-three_ses-01_part-01_label-phase1,3.2.4,MacIntel,60,,,4,0,4,0,1,3,1,0,240,20,1,239,,,,,,,,,,,,,,,,,,
,,0,64,,,,,,,2,2,1,stim/21.jpeg,HouseObjects,1,stim/objects/HouseObjects/iron2.png,0.7,1,-0.2,0.15,left,27,2020-12-03_09h12.38.272,premup-three_ses-01_part-01_label-phase1,3.2.4,MacIntel,60,right,0.970000029,4,0,4,0,1,3,1,0,240,124,1,239,,,,,,,,,,,,,,,,,,
,,1,65,,,,,,,2,2,2,stim/22.jpeg,HouseObjects,1,stim/objects/HouseObjects/ironingboard2.png,0.7,3,-0.2,-0.15,left,27,2020-12-03_09h12.38.272,premup-three_ses-01_part-01_label-phase1,3.2.4,MacIntel,60,left,1.087999821,4,0,4,0,1,3,1,0,240,145,1,239,,,,,,,,,,,,,,,,,,
,,0,66,,,,,,,1,6,4,stim/64.jpeg,HouseObjects,1,stim/objects/HouseObjects/pitcher.png,0.5,3,-0.2,-0.15,left,27,2020-12-03_09h12.38.272,premup-three_ses-01_part-01_label-phase1,3.2.4,MacIntel,60,right,0.79700017,4,0,4,0,1,3,1,0,240,47,1,239,,,,,,,,,,,,,,,,,,
,,1,67,,,,,,,1,5,3,stim/53.jpeg,HouseObjects,1,stim/objects/HouseObjects/key.png,0.5,3,-0.2,-0.15,left,27,2020-12-03_09h12.38.272,premup-three_ses-01_part-01_label-phase1,3.2.4,MacIntel,60,left,0.703000069,4,0,4,0,1,3,1,0,240,10,1,239,,,,,,,,,,,,,,,,,,
,,1,68,,,,,,,3,4,2,stim/42.jpeg,HouseObjects,1,stim/objects/HouseObjects/remote2.png,0.9,3,-0.2,-0.15,left,27,2020-12-03_09h12.38.272,premup-three_ses-01_part-01_label-phase1,3.2.4,MacIntel,60,left,0.798000097,4,0,4,0,1,3,1,0,240,229,1,239,,,,,,,,,,,,,,,,,,
,,1,69,,,,,,,3,4,2,stim/42.jpeg,HouseObjects,1,stim/objects/HouseObjects/remote2.png,0.9,1,-0.2,0.15,left,27,2020-12-03_09h12.38.272,premup-three_ses-01_part-01_label-phase1,3.2.4,MacIntel,60,left,1.25,4,0,4,0,1,3,1,0,240,209,1,239,,,,,,,,,,,,,,,,,,
,,0,70,,,,,,,1,5,3,stim/53.jpeg,Instruments,2,stim/objects/Instruments/maraca.png,0.5,2,0.2,0.15,right,27,2020-12-03_09h12.38.272,premup-three_ses-01_part-01_label-phase1,3.2.4,MacIntel,60,left,0.912999868,4,0,4,0,1,3,1,0,240,34,1,239,,,,,,,,,,,,,,,,,,
,,0,71,,,,,,,2,1,2,stim/12.jpeg,HouseObjects,1,stim/objects/HouseObjects/remote.png,0.3,1,-0.2,0.15,left,27,2020-12-03_09h12.38.272,premup-three_ses-01_part-01_label-phase1,3.2.4,MacIntel,60,right,0.796000004,4,0,4,0,1,3,1,0,240,89,1,239,,,,,,,,,,,,,,,,,,
,,1,72,,,,,,,3,3,2,stim/32.jpeg,Instruments,2,stim/objects/Instruments/musicsheet2.png,0.9,4,0.2,-0.15,right,27,2020-12-03_09h12.38.272,premup-three_ses-01_part-01_label-phase1,3.2.4,MacIntel,60,right,0.82799983,4,0,4,0,1,3,1,0,240,165,1,239,,,,,,,,,,,,,,,,,,
,,0,73,,,,,,,1,6,4,stim/64.jpeg,Instruments,2,stim/objects/Instruments/oboe.png,0.5,3,-0.2,-0.15,right,27,2020-12-03_09h12.38.272,premup-three_ses-01_part-01_label-phase1,3.2.4,MacIntel,60,left,0.74000001,4,0,4,0,1,3,1,0,240,79,1,239,,,,,,,,,,,,,,,,,,
,,0,74,,,,,,,1,5,3,stim/53.jpeg,Instruments,2,stim/objects/Instruments/maraca.png,0.5,3,-0.2,-0.15,right,27,2020-12-03_09h12.38.272,premup-three_ses-01_part-01_label-phase1,3.2.4,MacIntel,60,left,0.743000031,4,0,4,0,1,3,1,0,240,22,1,239,,,,,,,,,,,,,,,,,,
,,0,75,,,,,,,1,6,4,stim/64.jpeg,Instruments,2,stim/objects/Instruments/oboe.png,0.5,3,-0.2,-0.15,right,27,2020-12-03_09h12.38.272,premup-three_ses-01_part-01_label-phase1,3.2.4,MacIntel,60,left,1.516000032,4,0,4,0,1,3,1,0,240,63,1,239,,,,,,,,,,,,,,,,,,
,,1,76,,,,,,,3,4,3,stim/43.jpeg,HouseObjects,1,stim/objects/HouseObjects/rubbergloves2.png,0.9,4,0.2,-0.15,left,27,2020-12-03_09h12.38.272,premup-three_ses-01_part-01_label-phase1,3.2.4,MacIntel,60,left,0.890000105,4,0,4,0,1,3,1,0,240,222,1,239,,,,,,,,,,,,,,,,,,
,,0,77,,,,,,,1,6,2,stim/62.jpeg,HouseObjects,1,stim/objects/HouseObjects/match.png,0.5,4,0.2,-0.15,left,27,2020-12-03_09h12.38.272,premup-three_ses-01_part-01_label-phase1,3.2.4,MacIntel,60,right,0.657000065,4,0,4,0,1,3,1,0,240,45,1,239,,,,,,,,,,,,,,,,,,
,,0,78,,,,,,,2,2,1,stim/21.jpeg,Instruments,2,stim/objects/Instruments/keyboard2.png,0.3,2,0.2,0.15,right,27,2020-12-03_09h12.38.272,premup-three_ses-01_part-01_label-phase1,3.2.4,MacIntel,60,,,4,0,4,0,1,3,1,0,240,148,1,239,,,,,,,,,,,,,,,,,,
,,0,79,,,,,,,1,6,3,stim/63.jpeg,HouseObjects,1,stim/objects/HouseObjects/pan.png,0.5,1,-0.2,0.15,left,27,2020-12-03_09h12.38.272,premup-three_ses-01_part-01_label-phase1,3.2.4,MacIntel,60,right,0.811000109,4,0,4,0,1,3,1,0,240,42,1,239,,,,,,,,,,,,,,,,,,
,,0,80,,,,,,,2,1,2,stim/12.jpeg,Instruments,2,stim/objects/Instruments/pipepiano.png,0.7,2,0.2,0.15,right,27,2020-12-03_09h12.38.272,premup-three_ses-01_part-01_label-phase1,3.2.4,MacIntel,60,left,0.687999964,4,0,4,0,1,3,1,0,240,105,1,239,,,,,,,,,,,,,,,,,,
,,1,81,,,,,,,3,3,3,stim/33.jpeg,Instruments,2,stim/objects/Instruments/musicstand2.png,0.9,2,0.2,0.15,right,27,2020-12-03_09h12.38.272,premup-three_ses-01_part-01_label-phase1,3.2.4,MacIntel,60,right,0.696000099,4,0,4,0,1,3,1,0,240,182,1,239,,,,,,,,,,,,,,,,,,
,,1,82,,,,,,,3,3,4,stim/34.jpeg,Instruments,2,stim/objects/Instruments/oboe2.png,0.9,4,0.2,-0.15,right,27,2020-12-03_09h12.38.272,premup-three_ses-01_part-01_label-phase1,3.2.4,MacIntel,60,right,0.717999935,4,0,4,0,1,3,1,0,240,167,1,239,,,,,,,,,,,,,,,,,,
,,1,83,,,,,,,2,2,1,stim/21.jpeg,Instruments,2,stim/objects/Instruments/keyboard2.png,0.3,4,0.2,-0.15,right,27,2020-12-03_09h12.38.272,premup-three_ses-01_part-01_label-phase1,3.2.4,MacIntel,60,right,1.121999979,4,0,4,0,1,3,1,0,240,156,1,239,,,,,,,,,,,,,,,,,,
,,0,84,,,,,,,2,2,1,stim/21.jpeg,HouseObjects,1,stim/objects/HouseObjects/iron2.png,0.7,2,0.2,0.15,left,27,2020-12-03_09h12.38.272,premup-three_ses-01_part-01_label-phase1,3.2.4,MacIntel,60,right,0.680999994,4,0,4,0,1,3,1,0,240,144,1,239,,,,,,,,,,,,,,,,,,
,,1,85,,,,,,,1,5,2,stim/52.jpeg,Instruments,2,stim/objects/Instruments/laud.png,0.5,2,0.2,0.15,right,27,2020-12-03_09h12.38.272,premup-three_ses-01_part-01_label-phase1,3.2.4,MacIntel,60,right,0.903000116,4,0,4,0,1,3,1,0,240,21,1,239,,,,,,,,,,,,,,,,,,
,,1,86,,,,,,,3,4,1,stim/41.jpeg,HouseObjects,1,stim/objects/HouseObjects/recyclingbin2.png,0.9,1,-0.2,0.15,left,27,2020-12-03_09h12.38.272,premup-three_ses-01_part-01_label-phase1,3.2.4,MacIntel,60,left,0.681999922,4,0,4,0,1,3,1,0,240,220,1,239,,,,,,,,,,,,,,,,,,
,,1,87,,,,,,,3,3,2,stim/32.jpeg,Instruments,2,stim/objects/Instruments/musicsheet2.png,0.9,4,0.2,-0.15,right,27,2020-12-03_09h12.38.272,premup-three_ses-01_part-01_label-phase1,3.2.4,MacIntel,60,right,0.5849998,4,0,4,0,1,3,1,0,240,197,1,239,,,,,,,,,,,,,,,,,,
,,1,88,,,,,,,2,1,1,stim/11.jpeg,Instruments,2,stim/objects/Instruments/panflute.png,0.7,1,-0.2,0.15,right,27,2020-12-03_09h12.38.272,premup-three_ses-01_part-01_label-phase1,3.2.4,MacIntel,60,right,0.700999975,4,0,4,0,1,3,1,0,240,92,1,239,,,,,,,,,,,,,,,,,,
,,0,89,,,,,,,3,4,4,stim/44.jpeg,HouseObjects,1,stim/objects/HouseObjects/rug2.png,0.9,2,0.2,0.15,left,27,2020-12-03_09h12.38.272,premup-three_ses-01_part-01_label-phase1,3.2.4,MacIntel,60,right,1.036000013,4,0,4,0,1,3,1,0,240,227,1,239,,,,,,,,,,,,,,,,,,
,,1,90,,,,,,,1,5,1,stim/51.jpeg,HouseObjects,1,stim/objects/HouseObjects/iron.png,0.5,1,-0.2,0.15,left,27,2020-12-03_09h12.38.272,premup-three_ses-01_part-01_label-phase1,3.2.4,MacIntel,60,left,0.779999971,4,0,4,0,1,3,1,0,240,4,1,239,,,,,,,,,,,,,,,,,,
,,1,91,,,,,,,2,1,3,stim/13.jpeg,Instruments,2,stim/objects/Instruments/record.png,0.7,4,0.2,-0.15,right,27,2020-12-03_09h12.38.272,premup-three_ses-01_part-01_label-phase1,3.2.4,MacIntel,60,right,0.615999937,4,0,4,0,1,3,1,0,240,106,1,239,,,,,,,,,,,,,,,,,,
,,1,92,,,,,,,3,3,4,stim/34.jpeg,Instruments,2,stim/objects/Instruments/oboe2.png,0.9,2,0.2,0.15,right,27,2020-12-03_09h12.38.272,premup-three_ses-01_part-01_label-phase1,3.2.4,MacIntel,60,right,0.67599988,4,0,4,0,1,3,1,0,240,175,1,239,,,,,,,,,,,,,,,,,,
,,0,93,,,,,,,1,6,3,stim/63.jpeg,HouseObjects,1,stim/objects/HouseObjects/pan.png,0.5,1,-0.2,0.15,left,27,2020-12-03_09h12.38.272,premup-three_ses-01_part-01_label-phase1,3.2.4,MacIntel,60,right,0.812999964,4,0,4,0,1,3,1,0,240,58,1,239,,,,,,,,,,,,,,,,,,
,,1,94,,,,,,,2,1,1,stim/11.jpeg,Instruments,2,stim/objects/Instruments/panflute.png,0.7,2,0.2,0.15,right,27,2020-12-03_09h12.38.272,premup-three_ses-01_part-01_label-phase1,3.2.4,MacIntel,60,right,0.607999802,4,0,4,0,1,3,1,0,240,96,1,239,,,,,,,,,,,,,,,,,,
,,0,95,,,,,,,1,5,4,stim/54.jpeg,Instruments,2,stim/objects/Instruments/marimba.png,0.5,2,0.2,0.15,right,27,2020-12-03_09h12.38.272,premup-three_ses-01_part-01_label-phase1,3.2.4,MacIntel,60,left,0.715999842,4,0,4,0,1,3,1,0,240,23,1,239,,,,,,,,,,,,,,,,,,
,,1,96,,,,,,,3,4,3,stim/43.jpeg,HouseObjects,1,stim/objects/HouseObjects/rubbergloves2.png,0.9,1,-0.2,0.15,left,27,2020-12-03_09h12.38.272,premup-three_ses-01_part-01_label-phase1,3.2.4,MacIntel,60,left,1.072999954,4,0,4,0,1,3,1,0,240,234,1,239,,,,,,,,,,,,,,,,,,
,,1,97,,,,,,,1,6,1,stim/61.jpeg,Instruments,2,stim/objects/Instruments/metronome.png,0.5,2,0.2,0.15,right,27,2020-12-03_09h12.38.272,premup-three_ses-01_part-01_label-phase1,3.2.4,MacIntel,60,right,1.085999966,4,0,4,0,1,3,1,0,240,60,1,239,,,,,,,,,,,,,,,,,,
,,0,98,,,,,,,2,1,2,stim/12.jpeg,Instruments,2,stim/objects/Instruments/pipepiano.png,0.7,3,-0.2,-0.15,right,27,2020-12-03_09h12.38.272,premup-three_ses-01_part-01_label-phase1,3.2.4,MacIntel,60,left,1.200000048,4,0,4,0,1,3,1,0,240,101,1,239,,,,,,,,,,,,,,,,,,
,,0,99,,,,,,,1,6,2,stim/62.jpeg,Instruments,2,stim/objects/Instruments/musicsheet.png,0.5,4,0.2,-0.15,right,27,2020-12-03_09h12.38.272,premup-three_ses-01_part-01_label-phase1,3.2.4,MacIntel,60,left,0.773999929,4,0,4,0,1,3,1,0,240,61,1,239,,,,,,,,,,,,,,,,,,
,,1,100,,,,,,,3,3,1,stim/31.jpeg,Instruments,2,stim/objects/Instruments/metronome2.png,0.9,3,-0.2,-0.15,right,27,2020-12-03_09h12.38.272,premup-three_ses-01_part-01_label-phase1,3.2.4,MacIntel,60,right,0.972000122,4,0,4,0,1,3,1,0,240,192,1,239,,,,,,,,,,,,,,,,,,
,,0,101,,,,,,,1,5,2,stim/52.jpeg,Instruments,2,stim/objects/Instruments/laud.png,0.5,3,-0.2,-0.15,right,27,2020-12-03_09h12.38.272,premup-three_ses-01_part-01_label-phase1,3.2.4,MacIntel,60,left,0.830999851,4,0,4,0,1,3,1,0,240,25,1,239,,,,,,,,,,,,,,,,,,
,,0,102,,,,,,,1,5,1,stim/51.jpeg,HouseObjects,1,stim/objects/HouseObjects/iron.png,0.5,2,0.2,0.15,left,27,2020-12-03_09h12.38.272,premup-three_ses-01_part-01_label-phase1,3.2.4,MacIntel,60,right,1.087000132,4,0,4,0,1,3,1,0,240,12,1,239,,,,,,,,,,,,,,,,,,
,,0,103,,,,,,,3,4,3,stim/43.jpeg,HouseObjects,1,stim/objects/HouseObjects/rubbergloves2.png,0.9,3,-0.2,-0.15,left,27,2020-12-03_09h12.38.272,premup-three_ses-01_part-01_label-phase1,3.2.4,MacIntel,60,right,1.643999815,4,0,4,0,1,3,1,0,240,230,1,239,,,,,,,,,,,,,,,,,,
,,1,104,,,,,,,2,1,3,stim/13.jpeg,Instruments,2,stim/objects/Instruments/record.png,0.7,1,-0.2,0.15,right,27,2020-12-03_09h12.38.272,premup-three_ses-01_part-01_label-phase1,3.2.4,MacIntel,60,right,0.799000025,4,0,4,0,1,3,1,0,240,118,1,239,,,,,,,,,,,,,,,,,,
,,1,105,,,,,,,2,1,1,stim/11.jpeg,Instruments,2,stim/objects/Instruments/panflute.png,0.7,3,-0.2,-0.15,right,27,2020-12-03_09h12.38.272,premup-three_ses-01_part-01_label-phase1,3.2.4,MacIntel,60,right,0.85800004,4,0,4,0,1,3,1,0,240,100,1,239,,,,,,,,,,,,,,,,,,
,,1,106,,,,,,,3,4,3,stim/43.jpeg,HouseObjects,1,stim/objects/HouseObjects/rubbergloves2.png,0.9,2,0.2,0.15,left,27,2020-12-03_09h12.38.272,premup-three_ses-01_part-01_label-phase1,3.2.4,MacIntel,60,left,1.370000124,4,0,4,0,1,3,1,0,240,226,1,239,,,,,,,,,,,,,,,,,,
,,1,107,,,,,,,2,1,4,stim/14.jpeg,Instruments,2,stim/objects/Instruments/record_player.png,0.7,3,-0.2,-0.15,right,27,2020-12-03_09h12.38.272,premup-three_ses-01_part-01_label-phase1,3.2.4,MacIntel,60,right,0.910000086,4,0,4,0,1,3,1,0,240,103,1,239,,,,,,,,,,,,,,,,,,
,,1,108,,,,,,,2,2,1,stim/21.jpeg,HouseObjects,1,stim/objects/HouseObjects/iron2.png,0.7,1,-0.2,0.15,left,27,2020-12-03_09h12.38.272,premup-three_ses-01_part-01_label-phase1,3.2.4,MacIntel,60,left,0.760999918,4,0,4,0,1,3,1,0,240,132,1,239,,,,,,,,,,,,,,,,,,
,,1,109,,,,,,,1,5,2,stim/52.jpeg,HouseObjects,1,stim/objects/HouseObjects/ironingboard.png,0.5,2,0.2,0.15,left,27,2020-12-03_09h12.38.272,premup-three_ses-01_part-01_label-phase1,3.2.4,MacIntel,60,left,0.749000072,4,0,4,0,1,3,1,0,240,17,1,239,,,,,,,,,,,,,,,,,,
,,0,110,,,,,,,2,1,4,stim/14.jpeg,HouseObjects,1,stim/objects/HouseObjects/rug.png,0.3,2,0.2,0.15,left,27,2020-12-03_09h12.38.272,premup-three_ses-01_part-01_label-phase1,3.2.4,MacIntel,60,right,0.826999903,4,0,4,0,1,3,1,0,240,87,1,239,,,,,,,,,,,,,,,,,,
,,1,111,,,,,,,3,3,3,stim/33.jpeg,Instruments,2,stim/objects/Instruments/musicstand2.png,0.9,1,-0.2,0.15,right,27,2020-12-03_09h12.38.272,premup-three_ses-01_part-01_label-phase1,3.2.4,MacIntel,60,right,0.995000124,4,0,4,0,1,3,1,0,240,170,1,239,,,,,,,,,,,,,,,,,,
,,0,112,,,,,,,1,5,3,stim/53.jpeg,Instruments,2,stim/objects/Instruments/maraca.png,0.5,2,0.2,0.15,right,27,2020-12-03_09h12.38.272,premup-three_ses-01_part-01_label-phase1,3.2.4,MacIntel,60,left,0.751000166,4,0,4,0,1,3,1,0,240,26,1,239,,,,,,,,,,,,,,,,,,
,,1,113,,,,,,,3,3,4,stim/34.jpeg,Instruments,2,stim/objects/Instruments/oboe2.png,0.9,2,0.2,0.15,right,27,2020-12-03_09h12.38.272,premup-three_ses-01_part-01_label-phase1,3.2.4,MacIntel,60,right,1.375,4,0,4,0,1,3,1,0,240,187,1,239,,,,,,,,,,,,,,,,,,
,,0,114,,,,,,,1,6,3,stim/63.jpeg,HouseObjects,1,stim/objects/HouseObjects/pan.png,0.5,4,0.2,-0.15,left,27,2020-12-03_09h12.38.272,premup-three_ses-01_part-01_label-phase1,3.2.4,MacIntel,60,right,0.805000067,4,0,4,0,1,3,1,0,240,46,1,239,,,,,,,,,,,,,,,,,,
,,1,115,,,,,,,3,4,3,stim/43.jpeg,HouseObjects,1,stim/objects/HouseObjects/rubbergloves2.png,0.9,2,0.2,0.15,left,27,2020-12-03_09h12.38.272,premup-three_ses-01_part-01_label-phase1,3.2.4,MacIntel,60,left,0.755000114,4,0,4,0,1,3,1,0,240,214,1,239,,,,,,,,,,,,,,,,,,
,,1,116,,,,,,,3,3,2,stim/32.jpeg,Instruments,2,stim/objects/Instruments/musicsheet2.png,0.9,1,-0.2,0.15,right,27,2020-12-03_09h12.38.272,premup-three_ses-01_part-01_label-phase1,3.2.4,MacIntel,60,right,0.603000164,4,0,4,0,1,3,1,0,240,185,1,239,,,,,,,,,,,,,,,,,,
,,0,117,,,,,,,2,2,2,stim/22.jpeg,Instruments,2,stim/objects/Instruments/laud2.png,0.3,4,0.2,-0.15,right,27,2020-12-03_09h12.38.272,premup-three_ses-01_part-01_label-phase1,3.2.4,MacIntel,60,left,0.862999916,4,0,4,0,1,3,1,0,240,149,1,239,,,,,,,,,,,,,,,,,,
,,0,118,,,,,,,1,6,1,stim/61.jpeg,HouseObjects,1,stim/objects/HouseObjects/lintroller.png,0.5,4,0.2,-0.15,left,27,2020-12-03_09h12.38.272,premup-three_ses-01_part-01_label-phase1,3.2.4,MacIntel,60,right,0.768999815,4,0,4,0,1,3,1,0,240,40,1,239,,,,,,,,,,,,,,,,,,
,,0,119,,,,,,,3,4,1,stim/41.jpeg,Instruments,2,stim/objects/Instruments/panflute2.png,0.1,1,-0.2,0.15,right,27,2020-12-03_09h12.38.272,premup-three_ses-01_part-01_label-phase1,3.2.4,MacIntel,60,left,0.795000076,4,0,4,0,1,3,1,0,240,236,1,239,,,,,,,,,,,,,,,,,,
,,1,120,,,,,,,2,1,2,stim/12.jpeg,Instruments,2,stim/objects/Instruments/pipepiano.png,0.7,3,-0.2,-0.15,right,27,2020-12-03_09h12.38.272,premup-three_ses-01_part-01_label-phase1,3.2.4,MacIntel,60,right,0.57400012,4,0,4,0,1,3,1,0,240,97,1,239,,,,,,,,,,,,,,,,,,
,,1,121,,,,,,,2,1,2,stim/12.jpeg,Instruments,2,stim/objects/Instruments/pipepiano.png,0.7,1,-0.2,0.15,right,27,2020-12-03_09h12.38.272,premup-three_ses-01_part-01_label-phase1,3.2.4,MacIntel,60,right,0.548000097,4,0,4,0,1,3,1,0,240,93,1,239,,,,,,,,,,,,,,,,,,
,,1,122,,,,,,,2,2,4,stim/24.jpeg,HouseObjects,1,stim/objects/HouseObjects/knife2.png,0.7,3,-0.2,-0.15,left,27,2020-12-03_09h12.38.272,premup-three_ses-01_part-01_label-phase1,3.2.4,MacIntel,60,left,0.911000013,4,0,4,0,1,3,1,0,240,139,1,239,,,,,,,,,,,,,,,,,,
,,0,123,,,,,,,1,6,3,stim/63.jpeg,Instruments,2,stim/objects/Instruments/musicstand.png,0.5,2,0.2,0.15,right,27,2020-12-03_09h12.38.272,premup-three_ses-01_part-01_label-phase1,3.2.4,MacIntel,60,left,0.859999895,4,0,4,0,1,3,1,0,240,78,1,239,,,,,,,,,,,,,,,,,,
,,0,124,,,,,,,1,5,2,stim/52.jpeg,Instruments,2,stim/objects/Instruments/laud.png,0.5,4,0.2,-0.15,right,27,2020-12-03_09h12.38.272,premup-three_ses-01_part-01_label-phase1,3.2.4,MacIntel,60,left,0.985999823,4,0,4,0,1,3,1,0,240,37,1,239,,,,,,,,,,,,,,,,,,
,,0,125,,,,,,,1,6,1,stim/61.jpeg,HouseObjects,1,stim/objects/HouseObjects/lintroller.png,0.5,2,0.2,0.15,left,27,2020-12-03_09h12.38.272,premup-three_ses-01_part-01_label-phase1,3.2.4,MacIntel,60,right,1.196999788,4,0,4,0,1,3,1,0,240,48,1,239,,,,,,,,,,,,,,,,,,
,,1,126,,,,,,,2,1,1,stim/11.jpeg,Instruments,2,stim/objects/Instruments/panflute.png,0.7,1,-0.2,0.15,right,27,2020-12-03_09h12.38.272,premup-three_ses-01_part-01_label-phase1,3.2.4,MacIntel,60,right,0.539999962,4,0,4,0,1,3,1,0,240,108,1,239,,,,,,,,,,,,,,,,,,
,,0,127,,,,,,,2,2,4,stim/24.jpeg,Instruments,2,stim/objects/Instruments/marimba2.png,0.3,3,-0.2,-0.15,right,27,2020-12-03_09h12.38.272,premup-three_ses-01_part-01_label-phase1,3.2.4,MacIntel,60,left,0.676999807,4,0,4,0,1,3,1,0,240,151,1,239,,,,,,,,,,,,,,,,,,
,,1,128,,,,,,,2,1,2,stim/12.jpeg,Instruments,2,stim/objects/Instruments/pipepiano.png,0.7,1,-0.2,0.15,right,27,2020-12-03_09h12.38.272,premup-three_ses-01_part-01_label-phase1,3.2.4,MacIntel,60,right,1.474999905,4,0,4,0,1,3,1,0,240,113,1,239,,,,,,,,,,,,,,,,,,
,,1,129,,,,,,,2,1,4,stim/14.jpeg,Instruments,2,stim/objects/Instruments/record_player.png,0.7,3,-0.2,-0.15,right,27,2020-12-03_09h12.38.272,premup-three_ses-01_part-01_label-phase1,3.2.4,MacIntel,60,right,0.667000055,4,0,4,0,1,3,1,0,240,95,1,239,,,,,,,,,,,,,,,,,,
,,0,130,,,,,,,2,1,3,stim/13.jpeg,HouseObjects,1,stim/objects/HouseObjects/rubbergloves.png,0.3,4,0.2,-0.15,left,27,2020-12-03_09h12.38.272,premup-three_ses-01_part-01_label-phase1,3.2.4,MacIntel,60,right,0.862999916,4,0,4,0,1,3,1,0,240,82,1,239,,,,,,,,,,,,,,,,,,
,,1,131,,,,,,,1,5,1,stim/51.jpeg,HouseObjects,1,stim/objects/HouseObjects/iron.png,0.5,3,-0.2,-0.15,left,27,2020-12-03_09h12.38.272,premup-three_ses-01_part-01_label-phase1,3.2.4,MacIntel,60,left,1.290999889,4,0,4,0,1,3,1,0,240,0,1,239,,,,,,,,,,,,,,,,,,
,,1,132,,,,,,,2,1,2,stim/12.jpeg,Instruments,2,stim/objects/Instruments/pipepiano.png,0.7,2,0.2,0.15,right,27,2020-12-03_09h12.38.272,premup-three_ses-01_part-01_label-phase1,3.2.4,MacIntel,60,right,0.812000036,4,0,4,0,1,3,1,0,240,109,1,239,,,,,,,,,,,,,,,,,,
,,0,133,,,,,,,1,5,3,stim/53.jpeg,Instruments,2,stim/objects/Instruments/maraca.png,0.5,3,-0.2,-0.15,right,27,2020-12-03_09h12.38.272,premup-three_ses-01_part-01_label-phase1,3.2.4,MacIntel,60,left,1.353000164,4,0,4,0,1,3,1,0,240,30,1,239,,,,,,,,,,,,,,,,,,
,,1,134,,,,,,,1,5,2,stim/52.jpeg,HouseObjects,1,stim/objects/HouseObjects/ironingboard.png,0.5,2,0.2,0.15,left,27,2020-12-03_09h12.38.272,premup-three_ses-01_part-01_label-phase1,3.2.4,MacIntel,60,left,0.893000126,4,0,4,0,1,3,1,0,240,1,1,239,,,,,,,,,,,,,,,,,,
,,1,135,,,,,,,3,3,1,stim/31.jpeg,Instruments,2,stim/objects/Instruments/metronome2.png,0.9,1,-0.2,0.15,right,27,2020-12-03_09h12.38.272,premup-three_ses-01_part-01_label-phase1,3.2.4,MacIntel,60,right,0.838000059,4,0,4,0,1,3,1,0,240,164,1,239,,,,,,,,,,,,,,,,,,
,,0,136,,,,,,,1,6,2,stim/62.jpeg,Instruments,2,stim/objects/Instruments/musicsheet.png,0.5,1,-0.2,0.15,right,27,2020-12-03_09h12.38.272,premup-three_ses-01_part-01_label-phase1,3.2.4,MacIntel,60,left,1.273999929,4,0,4,0,1,3,1,0,240,69,1,239,,,,,,,,,,,,,,,,,,
,,0,137,,,,,,,3,3,3,stim/33.jpeg,Instruments,2,stim/objects/Instruments/musicstand2.png,0.9,2,0.2,0.15,right,27,2020-12-03_09h12.38.272,premup-three_ses-01_part-01_label-phase1,3.2.4,MacIntel,60,left,1.47300005,4,0,4,0,1,3,1,0,240,190,1,239,,,,,,,,,,,,,,,,,,
,,1,138,,,,,,,3,3,1,stim/31.jpeg,Instruments,2,stim/objects/Instruments/metronome2.png,0.9,1,-0.2,0.15,right,27,2020-12-03_09h12.38.272,premup-three_ses-01_part-01_label-phase1,3.2.4,MacIntel,60,right,0.529999971,4,0,4,0,1,3,1,0,240,172,1,239,,,,,,,,,,,,,,,,,,
,,0,139,,,,,,,1,5,2,stim/52.jpeg,Instruments,2,stim/objects/Instruments/laud.png,0.5,4,0.2,-0.15,right,27,2020-12-03_09h12.38.272,premup-three_ses-01_part-01_label-phase1,3.2.4,MacIntel,60,left,0.680999994,4,0,4,0,1,3,1,0,240,33,1,239,,,,,,,,,,,,,,,,,,
,,0,140,,,,,,,2,2,4,stim/24.jpeg,Instruments,2,stim/objects/Instruments/marimba2.png,0.3,2,0.2,0.15,right,27,2020-12-03_09h12.38.272,premup-three_ses-01_part-01_label-phase1,3.2.4,MacIntel,60,left,1.756999969,4,0,4,0,1,3,1,0,240,159,1,239,,,,,,,,,,,,,,,,,,
,,0,141,,,,,,,1,5,1,stim/51.jpeg,Instruments,2,stim/objects/Instruments/keyboard.png,0.5,4,0.2,-0.15,right,27,2020-12-03_09h12.38.272,premup-three_ses-01_part-01_label-phase1,3.2.4,MacIntel,60,left,0.665999889,4,0,4,0,1,3,1,0,240,36,1,239,,,,,,,,,,,,,,,,,,
,,1,142,,,,,,,2,2,4,stim/24.jpeg,HouseObjects,1,stim/objects/HouseObjects/knife2.png,0.7,2,0.2,0.15,left,27,2020-12-03_09h12.38.272,premup-three_ses-01_part-01_label-phase1,3.2.4,MacIntel,60,left,0.766000032,4,0,4,0,1,3,1,0,240,131,1,239,,,,,,,,,,,,,,,,,,
,,1,143,,,,,,,2,2,2,stim/22.jpeg,HouseObjects,1,stim/objects/HouseObjects/ironingboard2.png,0.7,3,-0.2,-0.15,left,27,2020-12-03_09h12.38.272,premup-three_ses-01_part-01_label-phase1,3.2.4,MacIntel,60,left,1.759000063,4,0,4,0,1,3,1,0,240,129,1,239,,,,,,,,,,,,,,,,,,
,,1,144,,,,,,,3,4,4,stim/44.jpeg,HouseObjects,1,stim/objects/HouseObjects/rug2.png,0.9,2,0.2,0.15,left,27,2020-12-03_09h12.38.272,premup-three_ses-01_part-01_label-phase1,3.2.4,MacIntel,60,left,0.75999999,4,0,4,0,1,3,1,0,240,203,1,239,,,,,,,,,,,,,,,,,,
,,1,145,,,,,,,2,2,1,stim/21.jpeg,HouseObjects,1,stim/objects/HouseObjects/iron2.png,0.7,3,-0.2,-0.15,left,27,2020-12-03_09h12.38.272,premup-three_ses-01_part-01_label-phase1,3.2.4,MacIntel,60,left,1.200999975,4,0,4,0,1,3,1,0,240,140,1,239,,,,,,,,,,,,,,,,,,
,,0,146,,,,,,,2,1,2,stim/12.jpeg,HouseObjects,1,stim/objects/HouseObjects/remote.png,0.3,2,0.2,0.15,left,27,2020-12-03_09h12.38.272,premup-three_ses-01_part-01_label-phase1,3.2.4,MacIntel,60,right,1.344000101,4,0,4,0,1,3,1,0,240,85,1,239,,,,,,,,,,,,,,,,,,
,,1,147,,,,,,,3,3,2,stim/32.jpeg,Instruments,2,stim/objects/Instruments/musicsheet2.png,0.9,3,-0.2,-0.15,right,27,2020-12-03_09h12.38.272,premup-three_ses-01_part-01_label-phase1,3.2.4,MacIntel,60,right,0.609999895,4,0,4,0,1,3,1,0,240,193,1,239,,,,,,,,,,,,,,,,,,
,,0,148,,,,,,,1,6,1,stim/61.jpeg,HouseObjects,1,stim/objects/HouseObjects/lintroller.png,0.5,2,0.2,0.15,left,27,2020-12-03_09h12.38.272,premup-three_ses-01_part-01_label-phase1,3.2.4,MacIntel,60,right,0.743999958,4,0,4,0,1,3,1,0,240,52,1,239,,,,,,,,,,,,,,,,,,
,,0,149,,,,,,,1,5,3,stim/53.jpeg,HouseObjects,1,stim/objects/HouseObjects/key.png,0.5,4,0.2,-0.15,left,27,2020-12-03_09h12.38.272,premup-three_ses-01_part-01_label-phase1,3.2.4,MacIntel,60,,,4,0,4,0,1,3,1,0,240,18,1,239,,,,,,,,,,,,,,,,,,
,,1,150,,,,,,,3,4,2,stim/42.jpeg,HouseObjects,1,stim/objects/HouseObjects/remote2.png,0.9,1,-0.2,0.15,left,27,2020-12-03_09h12.38.272,premup-three_ses-01_part-01_label-phase1,3.2.4,MacIntel,60,left,1.319000006,4,0,4,0,1,3,1,0,240,201,1,239,,,,,,,,,,,,,,,,,,
,,0,151,,,,,,,3,3,2,stim/32.jpeg,HouseObjects,1,stim/objects/HouseObjects/match2.png,0.1,4,0.2,-0.15,left,27,2020-12-03_09h12.38.272,premup-three_ses-01_part-01_label-phase1,3.2.4,MacIntel,60,right,0.629000187,4,0,4,0,1,3,1,0,240,161,1,239,,,,,,,,,,,,,,,,,,
,,1,152,,,,,,,1,6,4,stim/64.jpeg,Instruments,2,stim/objects/Instruments/oboe.png,0.5,2,0.2,0.15,right,27,2020-12-03_09h12.38.272,premup-three_ses-01_part-01_label-phase1,3.2.4,MacIntel,60,right,0.944999933,4,0,4,0,1,3,1,0,240,67,1,239,,,,,,,,,,,,,,,,,,
,,1,153,,,,,,,3,4,4,stim/44.jpeg,HouseObjects,1,stim/objects/HouseObjects/rug2.png,0.9,1,-0.2,0.15,left,27,2020-12-03_09h12.38.272,premup-three_ses-01_part-01_label-phase1,3.2.4,MacIntel,60,left,0.944999933,4,0,4,0,1,3,1,0,240,207,1,239,,,,,,,,,,,,,,,,,,
,,1,154,,,,,,,2,2,3,stim/23.jpeg,HouseObjects,1,stim/objects/HouseObjects/key2.png,0.7,3,-0.2,-0.15,left,27,2020-12-03_09h12.38.272,premup-three_ses-01_part-01_label-phase1,3.2.4,MacIntel,60,left,0.65899992,4,0,4,0,1,3,1,0,240,130,1,239,,,,,,,,,,,,,,,,,,
,,0,155,,,,,,,1,6,4,stim/64.jpeg,HouseObjects,1,stim/objects/HouseObjects/pitcher.png,0.5,4,0.2,-0.15,left,27,2020-12-03_09h12.38.272,premup-three_ses-01_part-01_label-phase1,3.2.4,MacIntel,60,right,0.756999969,4,0,4,0,1,3,1,0,240,59,1,239,,,,,,,,,,,,,,,,,,
,,1,156,,,,,,,1,6,2,stim/62.jpeg,Instruments,2,stim/objects/Instruments/musicsheet.png,0.5,1,-0.2,0.15,right,27,2020-12-03_09h12.38.272,premup-three_ses-01_part-01_label-phase1,3.2.4,MacIntel,60,right,0.753999949,4,0,4,0,1,3,1,0,240,73,1,239,,,,,,,,,,,,,,,,,,
,,1,157,,,,,,,3,4,3,stim/43.jpeg,HouseObjects,1,stim/objects/HouseObjects/rubbergloves2.png,0.9,3,-0.2,-0.15,left,27,2020-12-03_09h12.38.272,premup-three_ses-01_part-01_label-phase1,3.2.4,MacIntel,60,left,0.622000217,4,0,4,0,1,3,1,0,240,206,1,239,,,,,,,,,,,,,,,,,,
,,0,158,,,,,,,2,1,1,stim/11.jpeg,HouseObjects,1,stim/objects/HouseObjects/recyclingbin.png,0.3,4,0.2,-0.15,left,27,2020-12-03_09h12.38.272,premup-three_ses-01_part-01_label-phase1,3.2.4,MacIntel,60,right,0.669999838,4,0,4,0,1,3,1,0,240,84,1,239,,,,,,,,,,,,,,,,,,
,,1,159,,,,,,,1,6,2,stim/62.jpeg,Instruments,2,stim/objects/Instruments/musicsheet.png,0.5,2,0.2,0.15,right,27,2020-12-03_09h12.38.272,premup-three_ses-01_part-01_label-phase1,3.2.4,MacIntel,60,right,0.625999928,4,0,4,0,1,3,1,0,240,77,1,239,,,,,,,,,,,,,,,,,,
,,0,160,,,,,,,1,5,3,stim/53.jpeg,Instruments,2,stim/objects/Instruments/maraca.png,0.5,4,0.2,-0.15,right,27,2020-12-03_09h12.38.272,premup-three_ses-01_part-01_label-phase1,3.2.4,MacIntel,60,left,0.854999781,4,0,4,0,1,3,1,0,240,38,1,239,,,,,,,,,,,,,,,,,,
,,1,161,,,,,,,3,3,1,stim/31.jpeg,Instruments,2,stim/objects/Instruments/metronome2.png,0.9,2,0.2,0.15,right,27,2020-12-03_09h12.38.272,premup-three_ses-01_part-01_label-phase1,3.2.4,MacIntel,60,right,0.755999804,4,0,4,0,1,3,1,0,240,176,1,239,,,,,,,,,,,,,,,,,,
,,1,162,,,,,,,2,2,3,stim/23.jpeg,HouseObjects,1,stim/objects/HouseObjects/key2.png,0.7,2,0.2,0.15,left,27,2020-12-03_09h12.38.272,premup-three_ses-01_part-01_label-phase1,3.2.4,MacIntel,60,left,0.885999918,4,0,4,0,1,3,1,0,240,134,1,239,,,,,,,,,,,,,,,,,,
,,1,163,,,,,,,1,5,1,stim/51.jpeg,Instruments,2,stim/objects/Instruments/keyboard.png,0.5,4,0.2,-0.15,right,27,2020-12-03_09h12.38.272,premup-three_ses-01_part-01_label-phase1,3.2.4,MacIntel,60,right,1.120999813,4,0,4,0,1,3,1,0,240,28,1,239,,,,,,,,,,,,,,,,,,
,,1,164,,,,,,,2,1,1,stim/11.jpeg,Instruments,2,stim/objects/Instruments/panflute.png,0.7,3,-0.2,-0.15,right,27,2020-12-03_09h12.38.272,premup-three_ses-01_part-01_label-phase1,3.2.4,MacIntel,60,right,0.65899992,4,0,4,0,1,3,1,0,240,116,1,239,,,,,,,,,,,,,,,,,,
,,1,165,,,,,,,2,1,4,stim/14.jpeg,Instruments,2,stim/objects/Instruments/record_player.png,0.7,4,0.2,-0.15,right,27,2020-12-03_09h12.38.272,premup-three_ses-01_part-01_label-phase1,3.2.4,MacIntel,60,right,0.796999931,4,0,4,0,1,3,1,0,240,119,1,239,,,,,,,,,,,,,,,,,,
,,1,166,,,,,,,2,1,2,stim/12.jpeg,Instruments,2,stim/objects/Instruments/pipepiano.png,0.7,1,-0.2,0.15,right,27,2020-12-03_09h12.38.272,premup-three_ses-01_part-01_label-phase1,3.2.4,MacIntel,60,right,0.638000011,4,0,4,0,1,3,1,0,240,117,1,239,,,,,,,,,,,,,,,,,,
,,1,167,,,,,,,3,3,3,stim/33.jpeg,Instruments,2,stim/objects/Instruments/musicstand2.png,0.9,2,0.2,0.15,right,27,2020-12-03_09h12.38.272,premup-three_ses-01_part-01_label-phase1,3.2.4,MacIntel,60,right,0.937999964,4,0,4,0,1,3,1,0,240,174,1,239,,,,,,,,,,,,,,,,,,
,,1,168,,,,,,,3,4,1,stim/41.jpeg,HouseObjects,1,stim/objects/HouseObjects/recyclingbin2.png,0.9,3,-0.2,-0.15,left,27,2020-12-03_09h12.38.272,premup-three_ses-01_part-01_label-phase1,3.2.4,MacIntel,60,left,1.088999987,4,0,4,0,1,3,1,0,240,212,1,239,,,,,,,,,,,,,,,,,,
,,0,169,,,,,,,1,6,2,stim/62.jpeg,HouseObjects,1,stim/objects/HouseObjects/match.png,0.5,1,-0.2,0.15,left,27,2020-12-03_09h12.38.272,premup-three_ses-01_part-01_label-phase1,3.2.4,MacIntel,60,right,1.112999916,4,0,4,0,1,3,1,0,240,49,1,239,,,,,,,,,,,,,,,,,,
,,1,170,,,,,,,3,3,1,stim/31.jpeg,Instruments,2,stim/objects/Instruments/metronome2.png,0.9,3,-0.2,-0.15,right,27,2020-12-03_09h12.38.272,premup-three_ses-01_part-01_label-phase1,3.2.4,MacIntel,60,right,0.757999897,4,0,4,0,1,3,1,0,240,188,1,239,,,,,,,,,,,,,,,,,,
,,1,171,,,,,,,3,3,4,stim/34.jpeg,Instruments,2,stim/objects/Instruments/oboe2.png,0.9,1,-0.2,0.15,right,27,2020-12-03_09h12.38.272,premup-three_ses-01_part-01_label-phase1,3.2.4,MacIntel,60,right,1.474000216,4,0,4,0,1,3,1,0,240,199,1,239,,,,,,,,,,,,,,,,,,
,,1,172,,,,,,,3,3,1,stim/31.jpeg,Instruments,2,stim/objects/Instruments/metronome2.png,0.9,3,-0.2,-0.15,right,27,2020-12-03_09h12.38.272,premup-three_ses-01_part-01_label-phase1,3.2.4,MacIntel,60,right,0.579999924,4,0,4,0,1,3,1,0,240,184,1,239,,,,,,,,,,,,,,,,,,
,,1,173,,,,,,,2,2,2,stim/22.jpeg,HouseObjects,1,stim/objects/HouseObjects/ironingboard2.png,0.7,4,0.2,-0.15,left,27,2020-12-03_09h12.38.272,premup-three_ses-01_part-01_label-phase1,3.2.4,MacIntel,60,left,0.753999949,4,0,4,0,1,3,1,0,240,141,1,239,,,,,,,,,,,,,,,,,,
,,1,174,,,,,,,3,4,2,stim/42.jpeg,HouseObjects,1,stim/objects/HouseObjects/remote2.png,0.9,3,-0.2,-0.15,left,27,2020-12-03_09h12.38.272,premup-three_ses-01_part-01_label-phase1,3.2.4,MacIntel,60,left,0.77699995,4,0,4,0,1,3,1,0,240,221,1,239,,,,,,,,,,,,,,,,,,
,,1,175,,,,,,,3,4,1,stim/41.jpeg,HouseObjects,1,stim/objects/HouseObjects/recyclingbin2.png,0.9,3,-0.2,-0.15,left,27,2020-12-03_09h12.38.272,premup-three_ses-01_part-01_label-phase1,3.2.4,MacIntel,60,left,0.562999964,4,0,4,0,1,3,1,0,240,204,1,239,,,,,,,,,,,,,,,,,,
,,1,176,,,,,,,2,1,4,stim/14.jpeg,Instruments,2,stim/objects/Instruments/record_player.png,0.7,1,-0.2,0.15,right,27,2020-12-03_09h12.38.272,premup-three_ses-01_part-01_label-phase1,3.2.4,MacIntel,60,right,0.52699995,4,0,4,0,1,3,1,0,240,99,1,239,,,,,,,,,,,,,,,,,,
,,0,177,,,,,,,1,5,4,stim/54.jpeg,Instruments,2,stim/objects/Instruments/marimba.png,0.5,3,-0.2,-0.15,right,27,2020-12-03_09h12.38.272,premup-three_ses-01_part-01_label-phase1,3.2.4,MacIntel,60,left,1.430000067,4,0,4,0,1,3,1,0,240,31,1,239,,,,,,,,,,,,,,,,,,
,,1,178,,,,,,,2,1,3,stim/13.jpeg,Instruments,2,stim/objects/Instruments/record.png,0.7,2,0.2,0.15,right,27,2020-12-03_09h12.38.272,premup-three_ses-01_part-01_label-phase1,3.2.4,MacIntel,60,right,0.605000019,4,0,4,0,1,3,1,0,240,98,1,239,,,,,,,,,,,,,,,,,,
,,0,179,,,,,,,1,6,3,stim/63.jpeg,HouseObjects,1,stim/objects/HouseObjects/pan.png,0.5,4,0.2,-0.15,left,27,2020-12-03_09h12.38.272,premup-three_ses-01_part-01_label-phase1,3.2.4,MacIntel,60,right,0.855000019,4,0,4,0,1,3,1,0,240,50,1,239,,,,,,,,,,,,,,,,,,
,,0,180,,,,,,,2,1,4,stim/14.jpeg,HouseObjects,1,stim/objects/HouseObjects/rug.png,0.3,3,-0.2,-0.15,left,27,2020-12-03_09h12.38.272,premup-three_ses-01_part-01_label-phase1,3.2.4,MacIntel,60,right,0.555000067,4,0,4,0,1,3,1,0,240,91,1,239,,,,,,,,,,,,,,,,,,
,,1,181,,,,,,,1,6,2,stim/62.jpeg,HouseObjects,1,stim/objects/HouseObjects/match.png,0.5,3,-0.2,-0.15,left,27,2020-12-03_09h12.38.272,premup-three_ses-01_part-01_label-phase1,3.2.4,MacIntel,60,left,0.964999914,4,0,4,0,1,3,1,0,240,57,1,239,,,,,,,,,,,,,,,,,,
,,0,182,,,,,,,2,2,1,stim/21.jpeg,Instruments,2,stim/objects/Instruments/keyboard2.png,0.3,4,0.2,-0.15,right,27,2020-12-03_09h12.38.272,premup-three_ses-01_part-01_label-phase1,3.2.4,MacIntel,60,left,0.657999992,4,0,4,0,1,3,1,0,240,152,1,239,,,,,,,,,,,,,,,,,,
,,0,183,,,,,,,3,4,2,stim/42.jpeg,Instruments,2,stim/objects/Instruments/pipepiano2.png,0.1,3,-0.2,-0.15,right,27,2020-12-03_09h12.38.272,premup-three_ses-01_part-01_label-phase1,3.2.4,MacIntel,60,left,0.677999973,4,0,4,0,1,3,1,0,240,237,1,239,,,,,,,,,,,,,,,,,,
,,1,184,,,,,,,3,4,1,stim/41.jpeg,HouseObjects,1,stim/objects/HouseObjects/recyclingbin2.png,0.9,1,-0.2,0.15,left,27,2020-12-03_09h12.38.272,premup-three_ses-01_part-01_label-phase1,3.2.4,MacIntel,60,left,0.960000038,4,0,4,0,1,3,1,0,240,208,1,239,,,,,,,,,,,,,,,,,,
,,1,185,,,,,,,1,6,2,stim/62.jpeg,Instruments,2,stim/objects/Instruments/musicsheet.png,0.5,2,0.2,0.15,right,27,2020-12-03_09h12.38.272,premup-three_ses-01_part-01_label-phase1,3.2.4,MacIntel,60,right,0.69900012,4,0,4,0,1,3,1,0,240,65,1,239,,,,,,,,,,,,,,,,,,
,,1,186,,,,,,,1,5,4,stim/54.jpeg,HouseObjects,1,stim/objects/HouseObjects/knife.png,0.5,1,-0.2,0.15,left,27,2020-12-03_09h12.38.272,premup-three_ses-01_part-01_label-phase1,3.2.4,MacIntel,60,left,0.822999954,4,0,4,0,1,3,1,0,240,11,1,239,,,,,,,,,,,,,,,,,,
,,1,187,,,,,,,1,6,4,stim/64.jpeg,Instruments,2,stim/objects/Instruments/oboe.png,0.5,3,-0.2,-0.15,right,27,2020-12-03_09h12.38.272,premup-three_ses-01_part-01_label-phase1,3.2.4,MacIntel,60,right,0.679000139,4,0,4,0,1,3,1,0,240,75,1,239,,,,,,,,,,,,,,,,,,
,,1,188,,,,,,,3,4,3,stim/43.jpeg,HouseObjects,1,stim/objects/HouseObjects/rubbergloves2.png,0.9,4,0.2,-0.15,left,27,2020-12-03_09h12.38.272,premup-three_ses-01_part-01_label-phase1,3.2.4,MacIntel,60,left,0.726999998,4,0,4,0,1,3,1,0,240,202,1,239,,,,,,,,,,,,,,,,,,
,,1,189,,,,,,,3,4,1,stim/41.jpeg,HouseObjects,1,stim/objects/HouseObjects/recyclingbin2.png,0.9,1,-0.2,0.15,left,27,2020-12-03_09h12.38.272,premup-three_ses-01_part-01_label-phase1,3.2.4,MacIntel,60,left,0.572000027,4,0,4,0,1,3,1,0,240,228,1,239,,,,,,,,,,,,,,,,,,
,,1,190,,,,,,,3,4,2,stim/42.jpeg,HouseObjects,1,stim/objects/HouseObjects/remote2.png,0.9,2,0.2,0.15,left,27,2020-12-03_09h12.38.272,premup-three_ses-01_part-01_label-phase1,3.2.4,MacIntel,60,left,0.680000067,4,0,4,0,1,3,1,0,240,213,1,239,,,,,,,,,,,,,,,,,,
,,1,191,,,,,,,3,4,2,stim/42.jpeg,HouseObjects,1,stim/objects/HouseObjects/remote2.png,0.9,4,0.2,-0.15,left,27,2020-12-03_09h12.38.272,premup-three_ses-01_part-01_label-phase1,3.2.4,MacIntel,60,left,0.530999899,4,0,4,0,1,3,1,0,240,217,1,239,,,,,,,,,,,,,,,,,,
,,0,192,,,,,,,1,5,4,stim/54.jpeg,HouseObjects,1,stim/objects/HouseObjects/knife.png,0.5,4,0.2,-0.15,left,27,2020-12-03_09h12.38.272,premup-three_ses-01_part-01_label-phase1,3.2.4,MacIntel,60,right,1.038999796,4,0,4,0,1,3,1,0,240,3,1,239,,,,,,,,,,,,,,,,,,
,,0,193,,,,,,,1,6,1,stim/61.jpeg,HouseObjects,1,stim/objects/HouseObjects/lintroller.png,0.5,1,-0.2,0.15,left,27,2020-12-03_09h12.38.272,premup-three_ses-01_part-01_label-phase1,3.2.4,MacIntel,60,right,0.691999912,4,0,4,0,1,3,1,0,240,56,1,239,,,,,,,,,,,,,,,,,,
,,1,194,,,,,,,1,5,3,stim/53.jpeg,HouseObjects,1,stim/objects/HouseObjects/key.png,0.5,4,0.2,-0.15,left,27,2020-12-03_09h12.38.272,premup-three_ses-01_part-01_label-phase1,3.2.4,MacIntel,60,left,0.747999907,4,0,4,0,1,3,1,0,240,6,1,239,,,,,,,,,,,,,,,,,,
,,1,195,,,,,,,3,3,2,stim/32.jpeg,Instruments,2,stim/objects/Instruments/musicsheet2.png,0.9,3,-0.2,-0.15,right,27,2020-12-03_09h12.38.272,premup-three_ses-01_part-01_label-phase1,3.2.4,MacIntel,60,right,0.567000151,4,0,4,0,1,3,1,0,240,169,1,239,,,,,,,,,,,,,,,,,,
,,1,196,,,,,,,1,5,4,stim/54.jpeg,HouseObjects,1,stim/objects/HouseObjects/knife.png,0.5,2,0.2,0.15,left,27,2020-12-03_09h12.38.272,premup-three_ses-01_part-01_label-phase1,3.2.4,MacIntel,60,left,0.805999994,4,0,4,0,1,3,1,0,240,7,1,239,,,,,,,,,,,,,,,,,,
,,1,197,,,,,,,3,3,4,stim/34.jpeg,Instruments,2,stim/objects/Instruments/oboe2.png,0.9,3,-0.2,-0.15,right,27,2020-12-03_09h12.38.272,premup-three_ses-01_part-01_label-phase1,3.2.4,MacIntel,60,right,0.58100009,4,0,4,0,1,3,1,0,240,191,1,239,,,,,,,,,,,,,,,,,,
,,0,198,,,,,,,1,6,2,stim/62.jpeg,HouseObjects,1,stim/objects/HouseObjects/match.png,0.5,3,-0.2,-0.15,left,27,2020-12-03_09h12.38.272,premup-three_ses-01_part-01_label-phase1,3.2.4,MacIntel,60,right,0.980999947,4,0,4,0,1,3,1,0,240,41,1,239,,,,,,,,,,,,,,,,,,
,,1,199,,,,,,,1,5,4,stim/54.jpeg,HouseObjects,1,stim/objects/HouseObjects/knife.png,0.5,4,0.2,-0.15,left,27,2020-12-03_09h12.38.272,premup-three_ses-01_part-01_label-phase1,3.2.4,MacIntel,60,left,0.871000051,4,0,4,0,1,3,1,0,240,19,1,239,,,,,,,,,,,,,,,,,,
,,1,200,,,,,,,3,3,1,stim/31.jpeg,Instruments,2,stim/objects/Instruments/metronome2.png,0.9,4,0.2,-0.15,right,27,2020-12-03_09h12.38.272,premup-three_ses-01_part-01_label-phase1,3.2.4,MacIntel,60,right,0.539999962,4,0,4,0,1,3,1,0,240,168,1,239,,,,,,,,,,,,,,,,,,
,,1,201,,,,,,,3,4,1,stim/41.jpeg,HouseObjects,1,stim/objects/HouseObjects/recyclingbin2.png,0.9,1,-0.2,0.15,left,27,2020-12-03_09h12.38.272,premup-three_ses-01_part-01_label-phase1,3.2.4,MacIntel,60,left,0.730999947,4,0,4,0,1,3,1,0,240,224,1,239,,,,,,,,,,,,,,,,,,
,,1,202,,,,,,,3,4,4,stim/44.jpeg,HouseObjects,1,stim/objects/HouseObjects/rug2.png,0.9,2,0.2,0.15,left,27,2020-12-03_09h12.38.272,premup-three_ses-01_part-01_label-phase1,3.2.4,MacIntel,60,left,0.822000027,4,0,4,0,1,3,1,0,240,231,1,239,,,,,,,,,,,,,,,,,,
,,1,203,,,,,,,2,2,1,stim/21.jpeg,HouseObjects,1,stim/objects/HouseObjects/iron2.png,0.7,2,0.2,0.15,left,27,2020-12-03_09h12.38.272,premup-three_ses-01_part-01_label-phase1,3.2.4,MacIntel,60,left,0.792000055,4,0,4,0,1,3,1,0,240,128,1,239,,,,,,,,,,,,,,,,,,
,,0,204,,,,,,,1,6,4,stim/64.jpeg,HouseObjects,1,stim/objects/HouseObjects/pitcher.png,0.5,4,0.2,-0.15,left,27,2020-12-03_09h12.38.272,premup-three_ses-01_part-01_label-phase1,3.2.4,MacIntel,60,right,0.700999975,4,0,4,0,1,3,1,0,240,51,1,239,,,,,,,,,,,,,,,,,,
,,0,205,,,,,,,1,6,3,stim/63.jpeg,Instruments,2,stim/objects/Instruments/musicstand.png,0.5,1,-0.2,0.15,right,27,2020-12-03_09h12.38.272,premup-three_ses-01_part-01_label-phase1,3.2.4,MacIntel,60,left,1.012000084,4,0,4,0,1,3,1,0,240,74,1,239,,,,,,,,,,,,,,,,,,
,,1,206,,,,,,,2,2,3,stim/23.jpeg,HouseObjects,1,stim/objects/HouseObjects/key2.png,0.7,4,0.2,-0.15,left,27,2020-12-03_09h12.38.272,premup-three_ses-01_part-01_label-phase1,3.2.4,MacIntel,60,left,0.636000156,4,0,4,0,1,3,1,0,240,122,1,239,,,,,,,,,,,,,,,,,,
,,0,207,,,,,,,2,1,4,stim/14.jpeg,HouseObjects,1,stim/objects/HouseObjects/rug.png,0.3,4,0.2,-0.15,left,27,2020-12-03_09h12.38.272,premup-three_ses-01_part-01_label-phase1,3.2.4,MacIntel,60,right,0.641000032,4,0,4,0,1,3,1,0,240,83,1,239,,,,,,,,,,,,,,,,,,
,,1,208,,,,,,,3,3,4,stim/34.jpeg,Instruments,2,stim/objects/Instruments/oboe2.png,0.9,2,0.2,0.15,right,27,2020-12-03_09h12.38.272,premup-three_ses-01_part-01_label-phase1,3.2.4,MacIntel,60,right,0.862999916,4,0,4,0,1,3,1,0,240,171,1,239,,,,,,,,,,,,,,,,,,
,,0,209,,,,,,,2,1,3,stim/13.jpeg,HouseObjects,1,stim/objects/HouseObjects/rubbergloves.png,0.3,4,0.2,-0.15,left,27,2020-12-03_09h12.38.272,premup-three_ses-01_part-01_label-phase1,3.2.4,MacIntel,60,right,0.621999979,4,0,4,0,1,3,1,0,240,86,1,239,,,,,,,,,,,,,,,,,,
,,0,210,,,,,,,2,1,1,stim/11.jpeg,HouseObjects,1,stim/objects/HouseObjects/recyclingbin.png,0.3,2,0.2,0.15,left,27,2020-12-03_09h12.38.272,premup-three_ses-01_part-01_label-phase1,3.2.4,MacIntel,60,right,0.513000011,4,0,4,0,1,3,1,0,240,88,1,239,,,,,,,,,,,,,,,,,,
,,1,211,,,,,,,3,4,4,stim/44.jpeg,HouseObjects,1,stim/objects/HouseObjects/rug2.png,0.9,4,0.2,-0.15,left,27,2020-12-03_09h12.38.272,premup-three_ses-01_part-01_label-phase1,3.2.4,MacIntel,60,left,0.792000055,4,0,4,0,1,3,1,0,240,211,1,239,,,,,,,,,,,,,,,,,,
,,1,212,,,,,,,1,5,2,stim/52.jpeg,HouseObjects,1,stim/objects/HouseObjects/ironingboard.png,0.5,2,0.2,0.15,left,27,2020-12-03_09h12.38.272,premup-three_ses-01_part-01_label-phase1,3.2.4,MacIntel,60,left,0.723999977,4,0,4,0,1,3,1,0,240,9,1,239,,,,,,,,,,,,,,,,,,
,,1,213,,,,,,,1,5,1,stim/51.jpeg,HouseObjects,1,stim/objects/HouseObjects/iron.png,0.5,1,-0.2,0.15,left,27,2020-12-03_09h12.38.272,premup-three_ses-01_part-01_label-phase1,3.2.4,MacIntel,60,left,0.84800005,4,0,4,0,1,3,1,0,240,8,1,239,,,,,,,,,,,,,,,,,,
,,1,214,,,,,,,3,3,2,stim/32.jpeg,Instruments,2,stim/objects/Instruments/musicsheet2.png,0.9,4,0.2,-0.15,right,27,2020-12-03_09h12.38.272,premup-three_ses-01_part-01_label-phase1,3.2.4,MacIntel,60,right,0.536000013,4,0,4,0,1,3,1,0,240,173,1,239,,,,,,,,,,,,,,,,,,
,,1,215,,,,,,,1,5,2,stim/52.jpeg,Instruments,2,stim/objects/Instruments/laud.png,0.5,2,0.2,0.15,right,27,2020-12-03_09h12.38.272,premup-three_ses-01_part-01_label-phase1,3.2.4,MacIntel,60,right,0.599999905,4,0,4,0,1,3,1,0,240,29,1,239,,,,,,,,,,,,,,,,,,
,,0,216,,,,,,,2,2,4,stim/24.jpeg,Instruments,2,stim/objects/Instruments/marimba2.png,0.3,2,0.2,0.15,right,27,2020-12-03_09h12.38.272,premup-three_ses-01_part-01_label-phase1,3.2.4,MacIntel,60,left,0.89199996,4,0,4,0,1,3,1,0,240,155,1,239,,,,,,,,,,,,,,,,,,
,,1,217,,,,,,,3,3,3,stim/33.jpeg,Instruments,2,stim/objects/Instruments/musicstand2.png,0.9,2,0.2,0.15,right,27,2020-12-03_09h12.38.272,premup-three_ses-01_part-01_label-phase1,3.2.4,MacIntel,60,right,0.585000038,4,0,4,0,1,3,1,0,240,166,1,239,,,,,,,,,,,,,,,,,,
,,1,218,,,,,,,2,2,4,stim/24.jpeg,HouseObjects,1,stim/objects/HouseObjects/knife2.png,0.7,4,0.2,-0.15,left,27,2020-12-03_09h12.38.272,premup-three_ses-01_part-01_label-phase1,3.2.4,MacIntel,60,left,0.968999863,4,0,4,0,1,3,1,0,240,127,1,239,,,,,,,,,,,,,,,,,,
,,0,219,,,,,,,1,5,4,stim/54.jpeg,Instruments,2,stim/objects/Instruments/marimba.png,0.5,3,-0.2,-0.15,right,27,2020-12-03_09h12.38.272,premup-three_ses-01_part-01_label-phase1,3.2.4,MacIntel,60,left,0.861000061,4,0,4,0,1,3,1,0,240,39,1,239,,,,,,,,,,,,,,,,,,
,,1,220,,,,,,,3,3,3,stim/33.jpeg,Instruments,2,stim/objects/Instruments/musicstand2.png,0.9,2,0.2,0.15,right,27,2020-12-03_09h12.38.272,premup-three_ses-01_part-01_label-phase1,3.2.4,MacIntel,60,right,0.911000013,4,0,4,0,1,3,1,0,240,198,1,239,,,,,,,,,,,,,,,,,,
,,1,221,,,,,,,3,3,4,stim/34.jpeg,Instruments,2,stim/objects/Instruments/oboe2.png,0.9,3,-0.2,-0.15,right,27,2020-12-03_09h12.38.272,premup-three_ses-01_part-01_label-phase1,3.2.4,MacIntel,60,right,0.544000149,4,0,4,0,1,3,1,0,240,195,1,239,,,,,,,,,,,,,,,,,,
,,1,222,,,,,,,3,4,4,stim/44.jpeg,HouseObjects,1,stim/objects/HouseObjects/rug2.png,0.9,4,0.2,-0.15,left,27,2020-12-03_09h12.38.272,premup-three_ses-01_part-01_label-phase1,3.2.4,MacIntel,60,left,0.70600009,4,0,4,0,1,3,1,0,240,215,1,239,,,,,,,,,,,,,,,,,,
,,0,223,,,,,,,3,3,1,stim/31.jpeg,Instruments,2,stim/objects/Instruments/metronome2.png,0.9,2,0.2,0.15,right,27,2020-12-03_09h12.38.272,premup-three_ses-01_part-01_label-phase1,3.2.4,MacIntel,60,left,1.457999945,4,0,4,0,1,3,1,0,240,180,1,239,,,,,,,,,,,,,,,,,,
,,1,224,,,,,,,3,4,2,stim/42.jpeg,HouseObjects,1,stim/objects/HouseObjects/remote2.png,0.9,2,0.2,0.15,left,27,2020-12-03_09h12.38.272,premup-three_ses-01_part-01_label-phase1,3.2.4,MacIntel,60,left,0.971999884,4,0,4,0,1,3,1,0,240,225,1,239,,,,,,,,,,,,,,,,,,
,,0,225,,,,,,,3,3,4,stim/34.jpeg,HouseObjects,1,stim/objects/HouseObjects/pitcher2.png,0.1,3,-0.2,-0.15,left,27,2020-12-03_09h12.38.272,premup-three_ses-01_part-01_label-phase1,3.2.4,MacIntel,60,right,1.454999924,4,0,4,0,1,3,1,0,240,163,1,239,,,,,,,,,,,,,,,,,,
,,1,226,,,,,,,1,5,3,stim/53.jpeg,HouseObjects,1,stim/objects/HouseObjects/key.png,0.5,2,0.2,0.15,left,27,2020-12-03_09h12.38.272,premup-three_ses-01_part-01_label-phase1,3.2.4,MacIntel,60,left,0.701999903,4,0,4,0,1,3,1,0,240,14,1,239,,,,,,,,,,,,,,,,,,
,,0,227,,,,,,,3,3,2,stim/32.jpeg,Instruments,2,stim/objects/Instruments/musicsheet2.png,0.9,4,0.2,-0.15,right,27,2020-12-03_09h12.38.272,premup-three_ses-01_part-01_label-phase1,3.2.4,MacIntel,60,left,1.631000042,4,0,4,0,1,3,1,0,240,189,1,239,,,,,,,,,,,,,,,,,,
,,1,228,,,,,,,2,2,2,stim/22.jpeg,HouseObjects,1,stim/objects/HouseObjects/ironingboard2.png,0.7,1,-0.2,0.15,left,27,2020-12-03_09h12.38.272,premup-three_ses-01_part-01_label-phase1,3.2.4,MacIntel,60,left,1.015000105,4,0,4,0,1,3,1,0,240,133,1,239,,,,,,,,,,,,,,,,,,
,,0,229,,,,,,,1,6,3,stim/63.jpeg,HouseObjects,1,stim/objects/HouseObjects/pan.png,0.5,3,-0.2,-0.15,left,27,2020-12-03_09h12.38.272,premup-three_ses-01_part-01_label-phase1,3.2.4,MacIntel,60,right,0.719000101,4,0,4,0,1,3,1,0,240,54,1,239,,,,,,,,,,,,,,,,,,
,,0,230,,,,,,,1,5,1,stim/51.jpeg,Instruments,2,stim/objects/Instruments/keyboard.png,0.5,1,-0.2,0.15,right,27,2020-12-03_09h12.38.272,premup-three_ses-01_part-01_label-phase1,3.2.4,MacIntel,60,left,0.75999999,4,0,4,0,1,3,1,0,240,32,1,239,,,,,,,,,,,,,,,,,,
,,0,231,,,,,,,2,1,3,stim/13.jpeg,HouseObjects,1,stim/objects/HouseObjects/rubbergloves.png,0.3,1,-0.2,0.15,left,27,2020-12-03_09h12.38.272,premup-three_ses-01_part-01_label-phase1,3.2.4,MacIntel,60,right,1.194999933,4,0,4,0,1,3,1,0,240,90,1,239,,,,,,,,,,,,,,,,,,
,,1,232,,,,,,,3,4,2,stim/42.jpeg,HouseObjects,1,stim/objects/HouseObjects/remote2.png,0.9,1,-0.2,0.15,left,27,2020-12-03_09h12.38.272,premup-three_ses-01_part-01_label-phase1,3.2.4,MacIntel,60,left,0.610000134,4,0,4,0,1,3,1,0,240,233,1,239,,,,,,,,,,,,,,,,,,
,,1,233,,,,,,,3,4,3,stim/43.jpeg,HouseObjects,1,stim/objects/HouseObjects/rubbergloves2.png,0.9,2,0.2,0.15,left,27,2020-12-03_09h12.38.272,premup-three_ses-01_part-01_label-phase1,3.2.4,MacIntel,60,left,0.769000053,4,0,4,0,1,3,1,0,240,218,1,239,,,,,,,,,,,,,,,,,,
,,0,234,,,,,,,2,2,2,stim/22.jpeg,Instruments,2,stim/objects/Instruments/laud2.png,0.3,3,-0.2,-0.15,right,27,2020-12-03_09h12.38.272,premup-three_ses-01_part-01_label-phase1,3.2.4,MacIntel,60,left,0.799999952,4,0,4,0,1,3,1,0,240,153,1,239,,,,,,,,,,,,,,,,,,
,,1,235,,,,,,,3,3,2,stim/32.jpeg,Instruments,2,stim/objects/Instruments/musicsheet2.png,0.9,4,0.2,-0.15,right,27,2020-12-03_09h12.38.272,premup-three_ses-01_part-01_label-phase1,3.2.4,MacIntel,60,right,0.50999999,4,0,4,0,1,3,1,0,240,177,1,239,,,,,,,,,,,,,,,,,,
,,1,236,,,,,,,1,5,2,stim/52.jpeg,HouseObjects,1,stim/objects/HouseObjects/ironingboard.png,0.5,1,-0.2,0.15,left,27,2020-12-03_09h12.38.272,premup-three_ses-01_part-01_label-phase1,3.2.4,MacIntel,60,left,0.791999817,4,0,4,0,1,3,1,0,240,13,1,239,,,,,,,,,,,,,,,,,,
,,0,237,,,,,,,2,2,3,stim/23.jpeg,HouseObjects,1,stim/objects/HouseObjects/key2.png,0.7,2,0.2,0.15,left,27,2020-12-03_09h12.38.272,premup-three_ses-01_part-01_label-phase1,3.2.4,MacIntel,60,right,1.641000032,4,0,4,0,1,3,1,0,240,146,1,239,,,,,,,,,,,,,,,,,,
,,0,238,,,,,,,3,3,1,stim/31.jpeg,HouseObjects,1,stim/objects/HouseObjects/lintroller2.png,0.1,4,0.2,-0.15,left,27,2020-12-03_09h12.38.272,premup-three_ses-01_part-01_label-phase1,3.2.4,MacIntel,60,right,0.522000074,4,0,4,0,1,3,1,0,240,160,1,239,,,,,,,,,,,,,,,,,,
,,1,239,,,,,,,1,6,1,stim/61.jpeg,Instruments,2,stim/objects/Instruments/metronome.png,0.5,1,-0.2,0.15,right,27,2020-12-03_09h12.38.272,premup-three_ses-01_part-01_label-phase1,3.2.4,MacIntel,60,right,1.058000088,4,0,4,0,1,3,1,0,240,72,1,239,,,,,,,,,,,,,,,,,,
,,0,240,,,,,,,3,4,3,stim/43.jpeg,Instruments,2,stim/objects/Instruments/record2.png,0.1,3,-0.2,-0.15,right,27,2020-12-03_09h12.38.272,premup-three_ses-01_part-01_label-phase1,3.2.4,MacIntel,60,left,0.549000025,4,0,4,0,1,3,1,0,240,238,1,239,,,,,,,,,,,,,,,,,,
,,,,,,,,,,,1,,stim/11.jpeg,,,,,,,,,27,2020-12-03_09h12.38.272,premup-three_ses-01_part-01_label-phase1,3.2.4,MacIntel,60,,,4,0,4,0,1,3,,,,,,,1,0,10,10.8130002,,,1,0,6,0,1,5,Household items,45,55,Music items,45,55
,,,,,,,,,,,4,,stim/41.jpeg,,,,,,,,,27,2020-12-03_09h12.38.272,premup-three_ses-01_part-01_label-phase1,3.2.4,MacIntel,60,,,4,0,4,0,1,3,,,,,,,1,0,100,14.95600009,,,1,0,6,3,1,5,Household items,65,75,Music items,25,35
,,,,,,,,,,,2,,stim/21.jpeg,,,,,,,,,27,2020-12-03_09h12.38.272,premup-three_ses-01_part-01_label-phase1,3.2.4,MacIntel,60,,,4,0,4,0,1,3,,,,,,,1,1,50,4.763999939,,,1,0,6,1,1,5,Music items,45,55,Household items,45,55
,,,,,,,,,,,3,,stim/31.jpeg,,,,,,,,,27,2020-12-03_09h12.38.272,premup-three_ses-01_part-01_label-phase1,3.2.4,MacIntel,60,,,4,0,4,0,1,3,,,,,,,1,1,0,8.871999979,,,1,0,6,2,1,5,Household items,65,75,Music items,25,35
,,,,,,,,,,,5,,stim/51.jpeg,,,,,,,,,27,2020-12-03_09h12.38.272,premup-three_ses-01_part-01_label-phase1,3.2.4,MacIntel,60,,,4,0,4,0,1,3,,,,,,,1,1,60,5.967000008,,,1,0,6,4,1,5,Music items,5,15,Household items,85,95
,,,,,,,,,,,6,,stim/61.jpeg,,,,,,,,,27,2020-12-03_09h12.38.272,premup-three_ses-01_part-01_label-phase1,3.2.4,MacIntel,60,,,4,0,4,0,1,3,,,,,,,1,1,50,6.710000038,,,1,0,6,5,1,5,Household items,5,15,Music items,85,95
,,,,,,,,,,,,,,,,,,,,,,27,2020-12-03_09h12.38.272,premup-three_ses-01_part-01_label-phase1,3.2.4,MacIntel,60,,,4,0,4,0,1,3,,,,,,,,,,,,,,,,,,,,,,,,
,,1,1,,,,,,,3,3,3,stim/33.jpeg,Instruments,2,stim/objects/Instruments/musicstand2.png,0.9,1,-0.2,0.15,right,27,2020-12-03_09h12.38.272,premup-three_ses-01_part-01_label-phase1,3.2.4,MacIntel,60,right,0.745999813,4,0,4,0,1,3,1,0,240,194,1,239,,,,,,,,,,,,,,,,,,
,,0,2,,,,,,,3,3,4,stim/34.jpeg,HouseObjects,1,stim/objects/HouseObjects/pitcher2.png,0.1,3,-0.2,-0.15,left,27,2020-12-03_09h12.38.272,premup-three_ses-01_part-01_label-phase1,3.2.4,MacIntel,60,right,0.578999996,4,0,4,0,1,3,1,0,240,163,1,239,,,,,,,,,,,,,,,,,,
,,1,3,,,,,,,2,1,2,stim/12.jpeg,Instruments,2,stim/objects/Instruments/pipepiano.png,0.7,3,-0.2,-0.15,right,27,2020-12-03_09h12.38.272,premup-three_ses-01_part-01_label-phase1,3.2.4,MacIntel,60,right,0.995000124,4,0,4,0,1,3,1,0,240,97,1,239,,,,,,,,,,,,,,,,,,
,,1,4,,,,,,,3,3,4,stim/34.jpeg,Instruments,2,stim/objects/Instruments/oboe2.png,0.9,4,0.2,-0.15,right,27,2020-12-03_09h12.38.272,premup-three_ses-01_part-01_label-phase1,3.2.4,MacIntel,60,right,0.524999857,4,0,4,0,1,3,1,0,240,179,1,239,,,,,,,,,,,,,,,,,,
,,1,5,,,,,,,2,2,1,stim/21.jpeg,HouseObjects,1,stim/objects/HouseObjects/iron2.png,0.7,2,0.2,0.15,left,27,2020-12-03_09h12.38.272,premup-three_ses-01_part-01_label-phase1,3.2.4,MacIntel,60,left,0.583999872,4,0,4,0,1,3,1,0,240,144,1,239,,,,,,,,,,,,,,,,,,
,,1,6,,,,,,,3,4,4,stim/44.jpeg,HouseObjects,1,stim/objects/HouseObjects/rug2.png,0.9,1,-0.2,0.15,left,27,2020-12-03_09h12.38.272,premup-three_ses-01_part-01_label-phase1,3.2.4,MacIntel,60,left,0.728999853,4,0,4,0,1,3,1,0,240,207,1,239,,,,,,,,,,,,,,,,,,
,,1,7,,,,,,,3,4,4,stim/44.jpeg,HouseObjects,1,stim/objects/HouseObjects/rug2.png,0.9,2,0.2,0.15,left,27,2020-12-03_09h12.38.272,premup-three_ses-01_part-01_label-phase1,3.2.4,MacIntel,60,left,0.610999823,4,0,4,0,1,3,1,0,240,231,1,239,,,,,,,,,,,,,,,,,,
,,0,8,,,,,,,2,2,3,stim/23.jpeg,Instruments,2,stim/objects/Instruments/maraca2.png,0.3,1,-0.2,0.15,right,27,2020-12-03_09h12.38.272,premup-three_ses-01_part-01_label-phase1,3.2.4,MacIntel,60,left,0.539999962,4,0,4,0,1,3,1,0,240,150,1,239,,,,,,,,,,,,,,,,,,
,,0,9,,,,,,,1,5,3,stim/53.jpeg,HouseObjects,1,stim/objects/HouseObjects/key.png,0.5,1,-0.2,0.15,left,27,2020-12-03_09h12.38.272,premup-three_ses-01_part-01_label-phase1,3.2.4,MacIntel,60,right,0.414999962,4,0,4,0,1,3,1,0,240,2,1,239,,,,,,,,,,,,,,,,,,
,,0,10,,,,,,,1,5,3,stim/53.jpeg,Instruments,2,stim/objects/Instruments/maraca.png,0.5,3,-0.2,-0.15,right,27,2020-12-03_09h12.38.272,premup-three_ses-01_part-01_label-phase1,3.2.4,MacIntel,60,left,0.921999931,4,0,4,0,1,3,1,0,240,30,1,239,,,,,,,,,,,,,,,,,,
,,1,11,,,,,,,3,3,4,stim/34.jpeg,Instruments,2,stim/objects/Instruments/oboe2.png,0.9,3,-0.2,-0.15,right,27,2020-12-03_09h12.38.272,premup-three_ses-01_part-01_label-phase1,3.2.4,MacIntel,60,right,0.526000023,4,0,4,0,1,3,1,0,240,195,1,239,,,,,,,,,,,,,,,,,,
,,0,12,,,,,,,3,4,3,stim/43.jpeg,Instruments,2,stim/objects/Instruments/record2.png,0.1,3,-0.2,-0.15,right,27,2020-12-03_09h12.38.272,premup-three_ses-01_part-01_label-phase1,3.2.4,MacIntel,60,left,0.740999937,4,0,4,0,1,3,1,0,240,238,1,239,,,,,,,,,,,,,,,,,,
,,1,13,,,,,,,3,3,1,stim/31.jpeg,Instruments,2,stim/objects/Instruments/metronome2.png,0.9,4,0.2,-0.15,right,27,2020-12-03_09h12.38.272,premup-three_ses-01_part-01_label-phase1,3.2.4,MacIntel,60,right,0.496000051,4,0,4,0,1,3,1,0,240,168,1,239,,,,,,,,,,,,,,,,,,
,,0,14,,,,,,,3,3,2,stim/32.jpeg,HouseObjects,1,stim/objects/HouseObjects/match2.png,0.1,4,0.2,-0.15,left,27,2020-12-03_09h12.38.272,premup-three_ses-01_part-01_label-phase1,3.2.4,MacIntel,60,right,0.523000002,4,0,4,0,1,3,1,0,240,161,1,239,,,,,,,,,,,,,,,,,,
,,1,15,,,,,,,3,4,4,stim/44.jpeg,HouseObjects,1,stim/objects/HouseObjects/rug2.png,0.9,2,0.2,0.15,left,27,2020-12-03_09h12.38.272,premup-three_ses-01_part-01_label-phase1,3.2.4,MacIntel,60,left,0.726999998,4,0,4,0,1,3,1,0,240,227,1,239,,,,,,,,,,,,,,,,,,
,,1,16,,,,,,,3,3,2,stim/32.jpeg,Instruments,2,stim/objects/Instruments/musicsheet2.png,0.9,3,-0.2,-0.15,right,27,2020-12-03_09h12.38.272,premup-three_ses-01_part-01_label-phase1,3.2.4,MacIntel,60,right,0.572000027,4,0,4,0,1,3,1,0,240,193,1,239,,,,,,,,,,,,,,,,,,
,,1,17,,,,,,,3,4,4,stim/44.jpeg,HouseObjects,1,stim/objects/HouseObjects/rug2.png,0.9,4,0.2,-0.15,left,27,2020-12-03_09h12.38.272,premup-three_ses-01_part-01_label-phase1,3.2.4,MacIntel,60,left,1.062000036,4,0,4,0,1,3,1,0,240,215,1,239,,,,,,,,,,,,,,,,,,
,,1,18,,,,,,,2,2,4,stim/24.jpeg,HouseObjects,1,stim/objects/HouseObjects/knife2.png,0.7,3,-0.2,-0.15,left,27,2020-12-03_09h12.38.272,premup-three_ses-01_part-01_label-phase1,3.2.4,MacIntel,60,left,1.372999907,4,0,4,0,1,3,1,0,240,143,1,239,,,,,,,,,,,,,,,,,,
,,0,19,,,,,,,2,1,1,stim/11.jpeg,HouseObjects,1,stim/objects/HouseObjects/recyclingbin.png,0.3,1,-0.2,0.15,left,27,2020-12-03_09h12.38.272,premup-three_ses-01_part-01_label-phase1,3.2.4,MacIntel,60,right,0.667999983,4,0,4,0,1,3,1,0,240,80,1,239,,,,,,,,,,,,,,,,,,
,,1,20,,,,,,,3,3,3,stim/33.jpeg,Instruments,2,stim/objects/Instruments/musicstand2.png,0.9,2,0.2,0.15,right,27,2020-12-03_09h12.38.272,premup-three_ses-01_part-01_label-phase1,3.2.4,MacIntel,60,right,0.722999811,4,0,4,0,1,3,1,0,240,166,1,239,,,,,,,,,,,,,,,,,,
,,1,21,,,,,,,1,6,4,stim/64.jpeg,Instruments,2,stim/objects/Instruments/oboe.png,0.5,1,-0.2,0.15,right,27,2020-12-03_09h12.38.272,premup-three_ses-01_part-01_label-phase1,3.2.4,MacIntel,60,right,1.049999952,4,0,4,0,1,3,1,0,240,71,1,239,,,,,,,,,,,,,,,,,,
,,0,22,,,,,,,2,2,4,stim/24.jpeg,Instruments,2,stim/objects/Instruments/marimba2.png,0.3,3,-0.2,-0.15,right,27,2020-12-03_09h12.38.272,premup-three_ses-01_part-01_label-phase1,3.2.4,MacIntel,60,left,0.478999853,4,0,4,0,1,3,1,0,240,151,1,239,,,,,,,,,,,,,,,,,,
,,0,23,,,,,,,2,1,2,stim/12.jpeg,Instruments,2,stim/objects/Instruments/pipepiano.png,0.7,1,-0.2,0.15,right,27,2020-12-03_09h12.38.272,premup-three_ses-01_part-01_label-phase1,3.2.4,MacIntel,60,left,0.85800004,4,0,4,0,1,3,1,0,240,93,1,239,,,,,,,,,,,,,,,,,,
,,1,24,,,,,,,1,5,1,stim/51.jpeg,HouseObjects,1,stim/objects/HouseObjects/iron.png,0.5,3,-0.2,-0.15,left,27,2020-12-03_09h12.38.272,premup-three_ses-01_part-01_label-phase1,3.2.4,MacIntel,60,left,0.612999916,4,0,4,0,1,3,1,0,240,0,1,239,,,,,,,,,,,,,,,,,,
,,1,25,,,,,,,1,5,4,stim/54.jpeg,HouseObjects,1,stim/objects/HouseObjects/knife.png,0.5,2,0.2,0.15,left,27,2020-12-03_09h12.38.272,premup-three_ses-01_part-01_label-phase1,3.2.4,MacIntel,60,left,0.734999895,4,0,4,0,1,3,1,0,240,7,1,239,,,,,,,,,,,,,,,,,,
,,1,26,,,,,,,1,5,4,stim/54.jpeg,HouseObjects,1,stim/objects/HouseObjects/knife.png,0.5,4,0.2,-0.15,left,27,2020-12-03_09h12.38.272,premup-three_ses-01_part-01_label-phase1,3.2.4,MacIntel,60,left,0.690999985,4,0,4,0,1,3,1,0,240,19,1,239,,,,,,,,,,,,,,,,,,
,,1,27,,,,,,,3,3,2,stim/32.jpeg,Instruments,2,stim/objects/Instruments/musicsheet2.png,0.9,4,0.2,-0.15,right,27,2020-12-03_09h12.38.272,premup-three_ses-01_part-01_label-phase1,3.2.4,MacIntel,60,right,1.796000004,4,0,4,0,1,3,1,0,240,173,1,239,,,,,,,,,,,,,,,,,,
,,1,28,,,,,,,1,5,4,stim/54.jpeg,HouseObjects,1,stim/objects/HouseObjects/knife.png,0.5,3,-0.2,-0.15,left,27,2020-12-03_09h12.38.272,premup-three_ses-01_part-01_label-phase1,3.2.4,MacIntel,60,left,1.551000118,4,0,4,0,1,3,1,0,240,15,1,239,,,,,,,,,,,,,,,,,,
,,0,29,,,,,,,3,4,1,stim/41.jpeg,Instruments,2,stim/objects/Instruments/panflute2.png,0.1,1,-0.2,0.15,right,27,2020-12-03_09h12.38.272,premup-three_ses-01_part-01_label-phase1,3.2.4,MacIntel,60,left,1.319000006,4,0,4,0,1,3,1,0,240,236,1,239,,,,,,,,,,,,,,,,,,
,,0,30,,,,,,,1,6,3,stim/63.jpeg,HouseObjects,1,stim/objects/HouseObjects/pan.png,0.5,3,-0.2,-0.15,left,27,2020-12-03_09h12.38.272,premup-three_ses-01_part-01_label-phase1,3.2.4,MacIntel,60,right,0.968999863,4,0,4,0,1,3,1,0,240,54,1,239,,,,,,,,,,,,,,,,,,
,,1,31,,,,,,,3,3,1,stim/31.jpeg,Instruments,2,stim/objects/Instruments/metronome2.png,0.9,1,-0.2,0.15,right,27,2020-12-03_09h12.38.272,premup-three_ses-01_part-01_label-phase1,3.2.4,MacIntel,60,right,0.604000092,4,0,4,0,1,3,1,0,240,196,1,239,,,,,,,,,,,,,,,,,,
,,1,32,,,,,,,3,3,2,stim/32.jpeg,Instruments,2,stim/objects/Instruments/musicsheet2.png,0.9,4,0.2,-0.15,right,27,2020-12-03_09h12.38.272,premup-three_ses-01_part-01_label-phase1,3.2.4,MacIntel,60,right,0.766000032,4,0,4,0,1,3,1,0,240,165,1,239,,,,,,,,,,,,,,,,,,
,,1,33,,,,,,,2,1,3,stim/13.jpeg,Instruments,2,stim/objects/Instruments/record.png,0.7,2,0.2,0.15,right,27,2020-12-03_09h12.38.272,premup-three_ses-01_part-01_label-phase1,3.2.4,MacIntel,60,right,0.977999926,4,0,4,0,1,3,1,0,240,98,1,239,,,,,,,,,,,,,,,,,,
,,1,34,,,,,,,2,1,2,stim/12.jpeg,Instruments,2,stim/objects/Instruments/pipepiano.png,0.7,1,-0.2,0.15,right,27,2020-12-03_09h12.38.272,premup-three_ses-01_part-01_label-phase1,3.2.4,MacIntel,60,right,0.828999996,4,0,4,0,1,3,1,0,240,117,1,239,,,,,,,,,,,,,,,,,,
,,1,35,,,,,,,3,4,2,stim/42.jpeg,HouseObjects,1,stim/objects/HouseObjects/remote2.png,0.9,2,0.2,0.15,left,27,2020-12-03_09h12.38.272,premup-three_ses-01_part-01_label-phase1,3.2.4,MacIntel,60,left,0.529000044,4,0,4,0,1,3,1,0,240,225,1,239,,,,,,,,,,,,,,,,,,
,,1,36,,,,,,,1,6,1,stim/61.jpeg,Instruments,2,stim/objects/Instruments/metronome.png,0.5,2,0.2,0.15,right,27,2020-12-03_09h12.38.272,premup-three_ses-01_part-01_label-phase1,3.2.4,MacIntel,60,right,0.901000023,4,0,4,0,1,3,1,0,240,64,1,239,,,,,,,,,,,,,,,,,,
,,1,37,,,,,,,2,1,2,stim/12.jpeg,Instruments,2,stim/objects/Instruments/pipepiano.png,0.7,3,-0.2,-0.15,right,27,2020-12-03_09h12.38.272,premup-three_ses-01_part-01_label-phase1,3.2.4,MacIntel,60,right,0.690000057,4,0,4,0,1,3,1,0,240,101,1,239,,,,,,,,,,,,,,,,,,
,,1,38,,,,,,,3,3,2,stim/32.jpeg,Instruments,2,stim/objects/Instruments/musicsheet2.png,0.9,4,0.2,-0.15,right,27,2020-12-03_09h12.38.272,premup-three_ses-01_part-01_label-phase1,3.2.4,MacIntel,60,right,0.584000111,4,0,4,0,1,3,1,0,240,197,1,239,,,,,,,,,,,,,,,,,,
,,0,39,,,,,,,1,6,3,stim/63.jpeg,Instruments,2,stim/objects/Instruments/musicstand.png,0.5,3,-0.2,-0.15,right,27,2020-12-03_09h12.38.272,premup-three_ses-01_part-01_label-phase1,3.2.4,MacIntel,60,left,0.855999947,4,0,4,0,1,3,1,0,240,70,1,239,,,,,,,,,,,,,,,,,,
,,1,40,,,,,,,3,3,1,stim/31.jpeg,Instruments,2,stim/objects/Instruments/metronome2.png,0.9,1,-0.2,0.15,right,27,2020-12-03_09h12.38.272,premup-three_ses-01_part-01_label-phase1,3.2.4,MacIntel,60,right,0.782999992,4,0,4,0,1,3,1,0,240,164,1,239,,,,,,,,,,,,,,,,,,
,,1,41,,,,,,,1,5,2,stim/52.jpeg,HouseObjects,1,stim/objects/HouseObjects/ironingboard.png,0.5,2,0.2,0.15,left,27,2020-12-03_09h12.38.272,premup-three_ses-01_part-01_label-phase1,3.2.4,MacIntel,60,left,0.592000008,4,0,4,0,1,3,1,0,240,9,1,239,,,,,,,,,,,,,,,,,,
,,1,42,,,,,,,2,2,4,stim/24.jpeg,HouseObjects,1,stim/objects/HouseObjects/knife2.png,0.7,3,-0.2,-0.15,left,27,2020-12-03_09h12.38.272,premup-three_ses-01_part-01_label-phase1,3.2.4,MacIntel,60,left,0.532000065,4,0,4,0,1,3,1,0,240,139,1,239,,,,,,,,,,,,,,,,,,
,,1,43,,,,,,,1,5,1,stim/51.jpeg,HouseObjects,1,stim/objects/HouseObjects/iron.png,0.5,1,-0.2,0.15,left,27,2020-12-03_09h12.38.272,premup-three_ses-01_part-01_label-phase1,3.2.4,MacIntel,60,left,0.709000111,4,0,4,0,1,3,1,0,240,16,1,239,,,,,,,,,,,,,,,,,,
,,0,44,,,,,,,2,2,2,stim/22.jpeg,Instruments,2,stim/objects/Instruments/laud2.png,0.3,3,-0.2,-0.15,right,27,2020-12-03_09h12.38.272,premup-three_ses-01_part-01_label-phase1,3.2.4,MacIntel,60,left,0.921999931,4,0,4,0,1,3,1,0,240,153,1,239,,,,,,,,,,,,,,,,,,
,,1,45,,,,,,,1,5,2,stim/52.jpeg,HouseObjects,1,stim/objects/HouseObjects/ironingboard.png,0.5,2,0.2,0.15,left,27,2020-12-03_09h12.38.272,premup-three_ses-01_part-01_label-phase1,3.2.4,MacIntel,60,left,0.678999901,4,0,4,0,1,3,1,0,240,1,1,239,,,,,,,,,,,,,,,,,,
,,1,46,,,,,,,2,2,3,stim/23.jpeg,HouseObjects,1,stim/objects/HouseObjects/key2.png,0.7,4,0.2,-0.15,left,27,2020-12-03_09h12.38.272,premup-three_ses-01_part-01_label-phase1,3.2.4,MacIntel,60,left,1.292000055,4,0,4,0,1,3,1,0,240,122,1,239,,,,,,,,,,,,,,,,,,
,,1,47,,,,,,,2,2,4,stim/24.jpeg,Instruments,2,stim/objects/Instruments/marimba2.png,0.3,2,0.2,0.15,right,27,2020-12-03_09h12.38.272,premup-three_ses-01_part-01_label-phase1,3.2.4,MacIntel,60,right,1.320999861,4,0,4,0,1,3,1,0,240,155,1,239,,,,,,,,,,,,,,,,,,
,,0,48,,,,,,,2,1,4,stim/14.jpeg,HouseObjects,1,stim/objects/HouseObjects/rug.png,0.3,3,-0.2,-0.15,left,27,2020-12-03_09h12.38.272,premup-three_ses-01_part-01_label-phase1,3.2.4,MacIntel,60,right,0.730000019,4,0,4,0,1,3,1,0,240,91,1,239,,,,,,,,,,,,,,,,,,
,,0,49,,,,,,,1,5,4,stim/54.jpeg,Instruments,2,stim/objects/Instruments/marimba.png,0.5,4,0.2,-0.15,right,27,2020-12-03_09h12.38.272,premup-three_ses-01_part-01_label-phase1,3.2.4,MacIntel,60,left,0.674000025,4,0,4,0,1,3,1,0,240,35,1,239,,,,,,,,,,,,,,,,,,
,,1,50,,,,,,,3,3,2,stim/32.jpeg,Instruments,2,stim/objects/Instruments/musicsheet2.png,0.9,4,0.2,-0.15,right,27,2020-12-03_09h12.38.272,premup-three_ses-01_part-01_label-phase1,3.2.4,MacIntel,60,right,0.944000006,4,0,4,0,1,3,1,0,240,177,1,239,,,,,,,,,,,,,,,,,,
,,0,51,,,,,,,1,5,4,stim/54.jpeg,Instruments,2,stim/objects/Instruments/marimba.png,0.5,2,0.2,0.15,right,27,2020-12-03_09h12.38.272,premup-three_ses-01_part-01_label-phase1,3.2.4,MacIntel,60,left,1.603999853,4,0,4,0,1,3,1,0,240,27,1,239,,,,,,,,,,,,,,,,,,
,,1,52,,,,,,,2,1,4,stim/14.jpeg,Instruments,2,stim/objects/Instruments/record_player.png,0.7,3,-0.2,-0.15,right,27,2020-12-03_09h12.38.272,premup-three_ses-01_part-01_label-phase1,3.2.4,MacIntel,60,right,0.604000092,4,0,4,0,1,3,1,0,240,111,1,239,,,,,,,,,,,,,,,,,,
,,1,53,,,,,,,1,5,3,stim/53.jpeg,HouseObjects,1,stim/objects/HouseObjects/key.png,0.5,4,0.2,-0.15,left,27,2020-12-03_09h12.38.272,premup-three_ses-01_part-01_label-phase1,3.2.4,MacIntel,60,left,0.607000113,4,0,4,0,1,3,1,0,240,6,1,239,,,,,,,,,,,,,,,,,,
,,1,54,,,,,,,2,2,2,stim/22.jpeg,HouseObjects,1,stim/objects/HouseObjects/ironingboard2.png,0.7,3,-0.2,-0.15,left,27,2020-12-03_09h12.38.272,premup-three_ses-01_part-01_label-phase1,3.2.4,MacIntel,60,left,0.844000101,4,0,4,0,1,3,1,0,240,145,1,239,,,,,,,,,,,,,,,,,,
,,1,55,,,,,,,2,2,2,stim/22.jpeg,HouseObjects,1,stim/objects/HouseObjects/ironingboard2.png,0.7,4,0.2,-0.15,left,27,2020-12-03_09h12.38.272,premup-three_ses-01_part-01_label-phase1,3.2.4,MacIntel,60,left,1.303999901,4,0,4,0,1,3,1,0,240,141,1,239,,,,,,,,,,,,,,,,,,
,,1,56,,,,,,,2,1,4,stim/14.jpeg,Instruments,2,stim/objects/Instruments/record_player.png,0.7,4,0.2,-0.15,right,27,2020-12-03_09h12.38.272,premup-three_ses-01_part-01_label-phase1,3.2.4,MacIntel,60,right,0.556999922,4,0,4,0,1,3,1,0,240,119,1,239,,,,,,,,,,,,,,,,,,
,,1,57,,,,,,,2,1,1,stim/11.jpeg,Instruments,2,stim/objects/Instruments/panflute.png,0.7,2,0.2,0.15,right,27,2020-12-03_09h12.38.272,premup-three_ses-01_part-01_label-phase1,3.2.4,MacIntel,60,right,0.826000214,4,0,4,0,1,3,1,0,240,112,1,239,,,,,,,,,,,,,,,,,,
,,0,58,,,,,,,1,5,3,stim/53.jpeg,Instruments,2,stim/objects/Instruments/maraca.png,0.5,3,-0.2,-0.15,right,27,2020-12-03_09h12.38.272,premup-three_ses-01_part-01_label-phase1,3.2.4,MacIntel,60,left,1.241000175,4,0,4,0,1,3,1,0,240,22,1,239,,,,,,,,,,,,,,,,,,
,,0,59,,,,,,,1,5,1,stim/51.jpeg,Instruments,2,stim/objects/Instruments/keyboard.png,0.5,4,0.2,-0.15,right,27,2020-12-03_09h12.38.272,premup-three_ses-01_part-01_label-phase1,3.2.4,MacIntel,60,left,0.624000072,4,0,4,0,1,3,1,0,240,20,1,239,,,,,,,,,,,,,,,,,,
,,1,60,,,,,,,3,4,1,stim/41.jpeg,HouseObjects,1,stim/objects/HouseObjects/recyclingbin2.png,0.9,1,-0.2,0.15,left,27,2020-12-03_09h12.38.272,premup-three_ses-01_part-01_label-phase1,3.2.4,MacIntel,60,left,0.680999994,4,0,4,0,1,3,1,0,240,224,1,239,,,,,,,,,,,,,,,,,,
,,1,61,,,,,,,2,2,1,stim/21.jpeg,HouseObjects,1,stim/objects/HouseObjects/iron2.png,0.7,1,-0.2,0.15,left,27,2020-12-03_09h12.38.272,premup-three_ses-01_part-01_label-phase1,3.2.4,MacIntel,60,left,1.015000105,4,0,4,0,1,3,1,0,240,120,1,239,,,,,,,,,,,,,,,,,,
,,0,62,,,,,,,1,6,3,stim/63.jpeg,HouseObjects,1,stim/objects/HouseObjects/pan.png,0.5,4,0.2,-0.15,left,27,2020-12-03_09h12.38.272,premup-three_ses-01_part-01_label-phase1,3.2.4,MacIntel,60,,,4,0,4,0,1,3,1,0,240,46,1,239,,,,,,,,,,,,,,,,,,
,,1,63,,,,,,,2,2,4,stim/24.jpeg,HouseObjects,1,stim/objects/HouseObjects/knife2.png,0.7,4,0.2,-0.15,left,27,2020-12-03_09h12.38.272,premup-three_ses-01_part-01_label-phase1,3.2.4,MacIntel,60,left,0.710999966,4,0,4,0,1,3,1,0,240,127,1,239,,,,,,,,,,,,,,,,,,
,,1,64,,,,,,,3,3,3,stim/33.jpeg,Instruments,2,stim/objects/Instruments/musicstand2.png,0.9,2,0.2,0.15,right,27,2020-12-03_09h12.38.272,premup-three_ses-01_part-01_label-phase1,3.2.4,MacIntel,60,right,0.623000145,4,0,4,0,1,3,1,0,240,198,1,239,,,,,,,,,,,,,,,,,,
,,0,65,,,,,,,3,4,1,stim/41.jpeg,HouseObjects,1,stim/objects/HouseObjects/recyclingbin2.png,0.9,1,-0.2,0.15,left,27,2020-12-03_09h12.38.272,premup-three_ses-01_part-01_label-phase1,3.2.4,MacIntel,60,right,0.786000013,4,0,4,0,1,3,1,0,240,200,1,239,,,,,,,,,,,,,,,,,,
,,1,66,,,,,,,3,4,2,stim/42.jpeg,HouseObjects,1,stim/objects/HouseObjects/remote2.png,0.9,1,-0.2,0.15,left,27,2020-12-03_09h12.38.272,premup-three_ses-01_part-01_label-phase1,3.2.4,MacIntel,60,left,0.622999907,4,0,4,0,1,3,1,0,240,209,1,239,,,,,,,,,,,,,,,,,,
,,1,67,,,,,,,3,3,3,stim/33.jpeg,Instruments,2,stim/objects/Instruments/musicstand2.png,0.9,2,0.2,0.15,right,27,2020-12-03_09h12.38.272,premup-three_ses-01_part-01_label-phase1,3.2.4,MacIntel,60,right,0.880000114,4,0,4,0,1,3,1,0,240,182,1,239,,,,,,,,,,,,,,,,,,
,,1,68,,,,,,,3,3,2,stim/32.jpeg,Instruments,2,stim/objects/Instruments/musicsheet2.png,0.9,4,0.2,-0.15,right,27,2020-12-03_09h12.38.272,premup-three_ses-01_part-01_label-phase1,3.2.4,MacIntel,60,right,0.547999859,4,0,4,0,1,3,1,0,240,181,1,239,,,,,,,,,,,,,,,,,,
,,1,69,,,,,,,2,1,2,stim/12.jpeg,Instruments,2,stim/objects/Instruments/pipepiano.png,0.7,2,0.2,0.15,right,27,2020-12-03_09h12.38.272,premup-three_ses-01_part-01_label-phase1,3.2.4,MacIntel,60,right,0.585000038,4,0,4,0,1,3,1,0,240,109,1,239,,,,,,,,,,,,,,,,,,
,,1,70,,,,,,,3,4,1,stim/41.jpeg,HouseObjects,1,stim/objects/HouseObjects/recyclingbin2.png,0.9,3,-0.2,-0.15,left,27,2020-12-03_09h12.38.272,premup-three_ses-01_part-01_label-phase1,3.2.4,MacIntel,60,left,0.532999992,4,0,4,0,1,3,1,0,240,212,1,239,,,,,,,,,,,,,,,,,,
,,0,71,,,,,,,1,6,3,stim/63.jpeg,HouseObjects,1,stim/objects/HouseObjects/pan.png,0.5,1,-0.2,0.15,left,27,2020-12-03_09h12.38.272,premup-three_ses-01_part-01_label-phase1,3.2.4,MacIntel,60,right,1.200999975,4,0,4,0,1,3,1,0,240,58,1,239,,,,,,,,,,,,,,,,,,
,,1,72,,,,,,,1,6,4,stim/64.jpeg,Instruments,2,stim/objects/Instruments/oboe.png,0.5,3,-0.2,-0.15,right,27,2020-12-03_09h12.38.272,premup-three_ses-01_part-01_label-phase1,3.2.4,MacIntel,60,right,0.673000097,4,0,4,0,1,3,1,0,240,63,1,239,,,,,,,,,,,,,,,,,,
,,1,73,,,,,,,2,2,4,stim/24.jpeg,HouseObjects,1,stim/objects/HouseObjects/knife2.png,0.7,4,0.2,-0.15,left,27,2020-12-03_09h12.38.272,premup-three_ses-01_part-01_label-phase1,3.2.4,MacIntel,60,left,0.622000217,4,0,4,0,1,3,1,0,240,123,1,239,,,,,,,,,,,,,,,,,,
,,1,74,,,,,,,2,2,2,stim/22.jpeg,HouseObjects,1,stim/objects/HouseObjects/ironingboard2.png,0.7,3,-0.2,-0.15,left,27,2020-12-03_09h12.38.272,premup-three_ses-01_part-01_label-phase1,3.2.4,MacIntel,60,left,0.538999796,4,0,4,0,1,3,1,0,240,137,1,239,,,,,,,,,,,,,,,,,,
,,0,75,,,,,,,1,5,1,stim/51.jpeg,Instruments,2,stim/objects/Instruments/keyboard.png,0.5,1,-0.2,0.15,right,27,2020-12-03_09h12.38.272,premup-three_ses-01_part-01_label-phase1,3.2.4,MacIntel,60,left,1.210999966,4,0,4,0,1,3,1,0,240,32,1,239,,,,,,,,,,,,,,,,,,
,,1,76,,,,,,,3,4,1,stim/41.jpeg,HouseObjects,1,stim/objects/HouseObjects/recyclingbin2.png,0.9,3,-0.2,-0.15,left,27,2020-12-03_09h12.38.272,premup-three_ses-01_part-01_label-phase1,3.2.4,MacIntel,60,left,0.609999895,4,0,4,0,1,3,1,0,240,232,1,239,,,,,,,,,,,,,,,,,,
,,1,77,,,,,,,3,4,2,stim/42.jpeg,HouseObjects,1,stim/objects/HouseObjects/remote2.png,0.9,1,-0.2,0.15,left,27,2020-12-03_09h12.38.272,premup-three_ses-01_part-01_label-phase1,3.2.4,MacIntel,60,left,0.642999887,4,0,4,0,1,3,1,0,240,233,1,239,,,,,,,,,,,,,,,,,,
,,1,78,,,,,,,3,4,1,stim/41.jpeg,HouseObjects,1,stim/objects/HouseObjects/recyclingbin2.png,0.9,1,-0.2,0.15,left,27,2020-12-03_09h12.38.272,premup-three_ses-01_part-01_label-phase1,3.2.4,MacIntel,60,left,0.704999924,4,0,4,0,1,3,1,0,240,208,1,239,,,,,,,,,,,,,,,,,,
,,0,79,,,,,,,1,5,1,stim/51.jpeg,HouseObjects,1,stim/objects/HouseObjects/iron.png,0.5,1,-0.2,0.15,left,27,2020-12-03_09h12.38.272,premup-three_ses-01_part-01_label-phase1,3.2.4,MacIntel,60,right,0.628999949,4,0,4,0,1,3,1,0,240,4,1,239,,,,,,,,,,,,,,,,,,
,,0,80,,,,,,,2,1,4,stim/14.jpeg,HouseObjects,1,stim/objects/HouseObjects/rug.png,0.3,4,0.2,-0.15,left,27,2020-12-03_09h12.38.272,premup-three_ses-01_part-01_label-phase1,3.2.4,MacIntel,60,right,0.508000135,4,0,4,0,1,3,1,0,240,83,1,239,,,,,,,,,,,,,,,,,,
,,1,81,,,,,,,2,2,4,stim/24.jpeg,HouseObjects,1,stim/objects/HouseObjects/knife2.png,0.7,2,0.2,0.15,left,27,2020-12-03_09h12.38.272,premup-three_ses-01_part-01_label-phase1,3.2.4,MacIntel,60,left,1.080999851,4,0,4,0,1,3,1,0,240,135,1,239,,,,,,,,,,,,,,,,,,
,,1,82,,,,,,,1,6,4,stim/64.jpeg,Instruments,2,stim/objects/Instruments/oboe.png,0.5,3,-0.2,-0.15,right,27,2020-12-03_09h12.38.272,premup-three_ses-01_part-01_label-phase1,3.2.4,MacIntel,60,right,0.937000036,4,0,4,0,1,3,1,0,240,75,1,239,,,,,,,,,,,,,,,,,,
,,0,83,,,,,,,1,5,3,stim/53.jpeg,Instruments,2,stim/objects/Instruments/maraca.png,0.5,2,0.2,0.15,right,27,2020-12-03_09h12.38.272,premup-three_ses-01_part-01_label-phase1,3.2.4,MacIntel,60,left,1.128000021,4,0,4,0,1,3,1,0,240,34,1,239,,,,,,,,,,,,,,,,,,
,,0,84,,,,,,,2,1,3,stim/13.jpeg,HouseObjects,1,stim/objects/HouseObjects/rubbergloves.png,0.3,4,0.2,-0.15,left,27,2020-12-03_09h12.38.272,premup-three_ses-01_part-01_label-phase1,3.2.4,MacIntel,60,right,0.588999987,4,0,4,0,1,3,1,0,240,82,1,239,,,,,,,,,,,,,,,,,,
,,1,85,,,,,,,2,2,1,stim/21.jpeg,HouseObjects,1,stim/objects/HouseObjects/iron2.png,0.7,1,-0.2,0.15,left,27,2020-12-03_09h12.38.272,premup-three_ses-01_part-01_label-phase1,3.2.4,MacIntel,60,left,0.611999989,4,0,4,0,1,3,1,0,240,136,1,239,,,,,,,,,,,,,,,,,,
,,0,86,,,,,,,1,5,1,stim/51.jpeg,Instruments,2,stim/objects/Instruments/keyboard.png,0.5,4,0.2,-0.15,right,27,2020-12-03_09h12.38.272,premup-three_ses-01_part-01_label-phase1,3.2.4,MacIntel,60,left,0.789999962,4,0,4,0,1,3,1,0,240,36,1,239,,,,,,,,,,,,,,,,,,
,,0,87,,,,,,,1,6,1,stim/61.jpeg,HouseObjects,1,stim/objects/HouseObjects/lintroller.png,0.5,4,0.2,-0.15,left,27,2020-12-03_09h12.38.272,premup-three_ses-01_part-01_label-phase1,3.2.4,MacIntel,60,right,0.588000059,4,0,4,0,1,3,1,0,240,40,1,239,,,,,,,,,,,,,,,,,,
,,0,88,,,,,,,1,6,2,stim/62.jpeg,HouseObjects,1,stim/objects/HouseObjects/match.png,0.5,4,0.2,-0.15,left,27,2020-12-03_09h12.38.272,premup-three_ses-01_part-01_label-phase1,3.2.4,MacIntel,60,right,0.79700017,4,0,4,0,1,3,1,0,240,45,1,239,,,,,,,,,,,,,,,,,,
,,1,89,,,,,,,2,1,1,stim/11.jpeg,Instruments,2,stim/objects/Instruments/panflute.png,0.7,3,-0.2,-0.15,right,27,2020-12-03_09h12.38.272,premup-three_ses-01_part-01_label-phase1,3.2.4,MacIntel,60,right,0.686999798,4,0,4,0,1,3,1,0,240,104,1,239,,,,,,,,,,,,,,,,,,
,,1,90,,,,,,,1,6,2,stim/62.jpeg,HouseObjects,1,stim/objects/HouseObjects/match.png,0.5,1,-0.2,0.15,left,27,2020-12-03_09h12.38.272,premup-three_ses-01_part-01_label-phase1,3.2.4,MacIntel,60,left,0.907999992,4,0,4,0,1,3,1,0,240,49,1,239,,,,,,,,,,,,,,,,,,
,,0,91,,,,,,,2,1,2,stim/12.jpeg,HouseObjects,1,stim/objects/HouseObjects/remote.png,0.3,2,0.2,0.15,left,27,2020-12-03_09h12.38.272,premup-three_ses-01_part-01_label-phase1,3.2.4,MacIntel,60,right,0.660000086,4,0,4,0,1,3,1,0,240,81,1,239,,,,,,,,,,,,,,,,,,
,,1,92,,,,,,,2,1,3,stim/13.jpeg,Instruments,2,stim/objects/Instruments/record.png,0.7,4,0.2,-0.15,right,27,2020-12-03_09h12.38.272,premup-three_ses-01_part-01_label-phase1,3.2.4,MacIntel,60,right,0.674000025,4,0,4,0,1,3,1,0,240,114,1,239,,,,,,,,,,,,,,,,,,
,,1,93,,,,,,,3,4,3,stim/43.jpeg,HouseObjects,1,stim/objects/HouseObjects/rubbergloves2.png,0.9,2,0.2,0.15,left,27,2020-12-03_09h12.38.272,premup-three_ses-01_part-01_label-phase1,3.2.4,MacIntel,60,left,0.680000067,4,0,4,0,1,3,1,0,240,218,1,239,,,,,,,,,,,,,,,,,,
,,1,94,,,,,,,1,6,3,stim/63.jpeg,Instruments,2,stim/objects/Instruments/musicstand.png,0.5,1,-0.2,0.15,right,27,2020-12-03_09h12.38.272,premup-three_ses-01_part-01_label-phase1,3.2.4,MacIntel,60,right,0.736999989,4,0,4,0,1,3,1,0,240,74,1,239,,,,,,,,,,,,,,,,,,
,,0,95,,,,,,,2,1,3,stim/13.jpeg,HouseObjects,1,stim/objects/HouseObjects/rubbergloves.png,0.3,4,0.2,-0.15,left,27,2020-12-03_09h12.38.272,premup-three_ses-01_part-01_label-phase1,3.2.4,MacIntel,60,right,0.602999926,4,0,4,0,1,3,1,0,240,86,1,239,,,,,,,,,,,,,,,,,,
,,0,96,,,,,,,1,5,4,stim/54.jpeg,Instruments,2,stim/objects/Instruments/marimba.png,0.5,3,-0.2,-0.15,right,27,2020-12-03_09h12.38.272,premup-three_ses-01_part-01_label-phase1,3.2.4,MacIntel,60,left,0.46600008,4,0,4,0,1,3,1,0,240,31,1,239,,,,,,,,,,,,,,,,,,
,,1,97,,,,,,,1,6,1,stim/61.jpeg,Instruments,2,stim/objects/Instruments/metronome.png,0.5,2,0.2,0.15,right,27,2020-12-03_09h12.38.272,premup-three_ses-01_part-01_label-phase1,3.2.4,MacIntel,60,right,0.643000126,4,0,4,0,1,3,1,0,240,60,1,239,,,,,,,,,,,,,,,,,,
,,1,98,,,,,,,3,3,1,stim/31.jpeg,Instruments,2,stim/objects/Instruments/metronome2.png,0.9,3,-0.2,-0.15,right,27,2020-12-03_09h12.38.272,premup-three_ses-01_part-01_label-phase1,3.2.4,MacIntel,60,right,0.942000151,4,0,4,0,1,3,1,0,240,192,1,239,,,,,,,,,,,,,,,,,,
,,0,99,,,,,,,1,6,1,stim/61.jpeg,HouseObjects,1,stim/objects/HouseObjects/lintroller.png,0.5,2,0.2,0.15,left,27,2020-12-03_09h12.38.272,premup-three_ses-01_part-01_label-phase1,3.2.4,MacIntel,60,right,0.818000078,4,0,4,0,1,3,1,0,240,48,1,239,,,,,,,,,,,,,,,,,,
,,1,100,,,,,,,3,3,1,stim/31.jpeg,Instruments,2,stim/objects/Instruments/metronome2.png,0.9,1,-0.2,0.15,right,27,2020-12-03_09h12.38.272,premup-three_ses-01_part-01_label-phase1,3.2.4,MacIntel,60,right,0.572999954,4,0,4,0,1,3,1,0,240,172,1,239,,,,,,,,,,,,,,,,,,
,,0,101,,,,,,,2,1,2,stim/12.jpeg,HouseObjects,1,stim/objects/HouseObjects/remote.png,0.3,1,-0.2,0.15,left,27,2020-12-03_09h12.38.272,premup-three_ses-01_part-01_label-phase1,3.2.4,MacIntel,60,right,0.944000006,4,0,4,0,1,3,1,0,240,89,1,239,,,,,,,,,,,,,,,,,,
,,1,102,,,,,,,1,5,3,stim/53.jpeg,Instruments,2,stim/objects/Instruments/maraca.png,0.5,2,0.2,0.15,right,27,2020-12-03_09h12.38.272,premup-three_ses-01_part-01_label-phase1,3.2.4,MacIntel,60,right,0.798999786,4,0,4,0,1,3,1,0,240,26,1,239,,,,,,,,,,,,,,,,,,
,,0,103,,,,,,,2,1,4,stim/14.jpeg,HouseObjects,1,stim/objects/HouseObjects/rug.png,0.3,2,0.2,0.15,left,27,2020-12-03_09h12.38.272,premup-three_ses-01_part-01_label-phase1,3.2.4,MacIntel,60,right,0.65899992,4,0,4,0,1,3,1,0,240,87,1,239,,,,,,,,,,,,,,,,,,
,,1,104,,,,,,,3,3,3,stim/33.jpeg,Instruments,2,stim/objects/Instruments/musicstand2.png,0.9,1,-0.2,0.15,right,27,2020-12-03_09h12.38.272,premup-three_ses-01_part-01_label-phase1,3.2.4,MacIntel,60,right,0.496000051,4,0,4,0,1,3,1,0,240,170,1,239,,,,,,,,,,,,,,,,,,
,,1,105,,,,,,,3,3,4,stim/34.jpeg,Instruments,2,stim/objects/Instruments/oboe2.png,0.9,4,0.2,-0.15,right,27,2020-12-03_09h12.38.272,premup-three_ses-01_part-01_label-phase1,3.2.4,MacIntel,60,right,0.636000156,4,0,4,0,1,3,1,0,240,167,1,239,,,,,,,,,,,,,,,,,,
,,0,106,,,,,,,2,2,1,stim/21.jpeg,Instruments,2,stim/objects/Instruments/keyboard2.png,0.3,4,0.2,-0.15,right,27,2020-12-03_09h12.38.272,premup-three_ses-01_part-01_label-phase1,3.2.4,MacIntel,60,left,0.810000181,4,0,4,0,1,3,1,0,240,152,1,239,,,,,,,,,,,,,,,,,,
,,1,107,,,,,,,3,3,4,stim/34.jpeg,Instruments,2,stim/objects/Instruments/oboe2.png,0.9,3,-0.2,-0.15,right,27,2020-12-03_09h12.38.272,premup-three_ses-01_part-01_label-phase1,3.2.4,MacIntel,60,right,0.647000074,4,0,4,0,1,3,1,0,240,191,1,239,,,,,,,,,,,,,,,,,,
,,1,108,,,,,,,3,3,1,stim/31.jpeg,Instruments,2,stim/objects/Instruments/metronome2.png,0.9,3,-0.2,-0.15,right,27,2020-12-03_09h12.38.272,premup-three_ses-01_part-01_label-phase1,3.2.4,MacIntel,60,right,0.593000174,4,0,4,0,1,3,1,0,240,188,1,239,,,,,,,,,,,,,,,,,,
,,1,109,,,,,,,3,3,4,stim/34.jpeg,Instruments,2,stim/objects/Instruments/oboe2.png,0.9,2,0.2,0.15,right,27,2020-12-03_09h12.38.272,premup-three_ses-01_part-01_label-phase1,3.2.4,MacIntel,60,right,1.020999908,4,0,4,0,1,3,1,0,240,175,1,239,,,,,,,,,,,,,,,,,,
,,1,110,,,,,,,3,3,4,stim/34.jpeg,Instruments,2,stim/objects/Instruments/oboe2.png,0.9,2,0.2,0.15,right,27,2020-12-03_09h12.38.272,premup-three_ses-01_part-01_label-phase1,3.2.4,MacIntel,60,right,0.811000109,4,0,4,0,1,3,1,0,240,187,1,239,,,,,,,,,,,,,,,,,,
,,0,111,,,,,,,2,2,2,stim/22.jpeg,Instruments,2,stim/objects/Instruments/laud2.png,0.3,4,0.2,-0.15,right,27,2020-12-03_09h12.38.272,premup-three_ses-01_part-01_label-phase1,3.2.4,MacIntel,60,left,0.802999973,4,0,4,0,1,3,1,0,240,149,1,239,,,,,,,,,,,,,,,,,,
,,1,112,,,,,,,2,2,2,stim/22.jpeg,HouseObjects,1,stim/objects/HouseObjects/ironingboard2.png,0.7,1,-0.2,0.15,left,27,2020-12-03_09h12.38.272,premup-three_ses-01_part-01_label-phase1,3.2.4,MacIntel,60,left,0.69900012,4,0,4,0,1,3,1,0,240,133,1,239,,,,,,,,,,,,,,,,,,
,,1,113,,,,,,,3,4,2,stim/42.jpeg,HouseObjects,1,stim/objects/HouseObjects/remote2.png,0.9,2,0.2,0.15,left,27,2020-12-03_09h12.38.272,premup-three_ses-01_part-01_label-phase1,3.2.4,MacIntel,60,left,0.707999945,4,0,4,0,1,3,1,0,240,213,1,239,,,,,,,,,,,,,,,,,,
,,1,114,,,,,,,2,2,4,stim/24.jpeg,HouseObjects,1,stim/objects/HouseObjects/knife2.png,0.7,4,0.2,-0.15,left,27,2020-12-03_09h12.38.272,premup-three_ses-01_part-01_label-phase1,3.2.4,MacIntel,60,left,0.731000185,4,0,4,0,1,3,1,0,240,147,1,239,,,,,,,,,,,,,,,,,,
,,1,115,,,,,,,3,4,3,stim/43.jpeg,HouseObjects,1,stim/objects/HouseObjects/rubbergloves2.png,0.9,3,-0.2,-0.15,left,27,2020-12-03_09h12.38.272,premup-three_ses-01_part-01_label-phase1,3.2.4,MacIntel,60,left,0.582000017,4,0,4,0,1,3,1,0,240,230,1,239,,,,,,,,,,,,,,,,,,
,,1,116,,,,,,,1,6,2,stim/62.jpeg,Instruments,2,stim/objects/Instruments/musicsheet.png,0.5,1,-0.2,0.15,right,27,2020-12-03_09h12.38.272,premup-three_ses-01_part-01_label-phase1,3.2.4,MacIntel,60,right,1.186000109,4,0,4,0,1,3,1,0,240,73,1,239,,,,,,,,,,,,,,,,,,
,,1,117,,,,,,,2,1,1,stim/11.jpeg,Instruments,2,stim/objects/Instruments/panflute.png,0.7,1,-0.2,0.15,right,27,2020-12-03_09h12.38.272,premup-three_ses-01_part-01_label-phase1,3.2.4,MacIntel,60,right,0.815000057,4,0,4,0,1,3,1,0,240,108,1,239,,,,,,,,,,,,,,,,,,
,,1,118,,,,,,,3,3,2,stim/32.jpeg,Instruments,2,stim/objects/Instruments/musicsheet2.png,0.9,3,-0.2,-0.15,right,27,2020-12-03_09h12.38.272,premup-three_ses-01_part-01_label-phase1,3.2.4,MacIntel,60,right,0.571000099,4,0,4,0,1,3,1,0,240,169,1,239,,,,,,,,,,,,,,,,,,
,,0,119,,,,,,,1,5,2,stim/52.jpeg,Instruments,2,stim/objects/Instruments/laud.png,0.5,4,0.2,-0.15,right,27,2020-12-03_09h12.38.272,premup-three_ses-01_part-01_label-phase1,3.2.4,MacIntel,60,left,0.789999962,4,0,4,0,1,3,1,0,240,33,1,239,,,,,,,,,,,,,,,,,,
,,1,120,,,,,,,1,6,2,stim/62.jpeg,HouseObjects,1,stim/objects/HouseObjects/match.png,0.5,1,-0.2,0.15,left,27,2020-12-03_09h12.38.272,premup-three_ses-01_part-01_label-phase1,3.2.4,MacIntel,60,left,0.821999788,4,0,4,0,1,3,1,0,240,53,1,239,,,,,,,,,,,,,,,,,,
,,1,121,,,,,,,2,2,3,stim/23.jpeg,HouseObjects,1,stim/objects/HouseObjects/key2.png,0.7,1,-0.2,0.15,left,27,2020-12-03_09h12.38.272,premup-three_ses-01_part-01_label-phase1,3.2.4,MacIntel,60,left,1.065000057,4,0,4,0,1,3,1,0,240,138,1,239,,,,,,,,,,,,,,,,,,
,,1,122,,,,,,,3,4,2,stim/42.jpeg,HouseObjects,1,stim/objects/HouseObjects/remote2.png,0.9,4,0.2,-0.15,left,27,2020-12-03_09h12.38.272,premup-three_ses-01_part-01_label-phase1,3.2.4,MacIntel,60,left,0.808000088,4,0,4,0,1,3,1,0,240,217,1,239,,,,,,,,,,,,,,,,,,
,,1,123,,,,,,,3,4,1,stim/41.jpeg,HouseObjects,1,stim/objects/HouseObjects/recyclingbin2.png,0.9,1,-0.2,0.15,left,27,2020-12-03_09h12.38.272,premup-three_ses-01_part-01_label-phase1,3.2.4,MacIntel,60,left,0.921000004,4,0,4,0,1,3,1,0,240,228,1,239,,,,,,,,,,,,,,,,,,
,,0,124,,,,,,,1,5,1,stim/51.jpeg,HouseObjects,1,stim/objects/HouseObjects/iron.png,0.5,2,0.2,0.15,left,27,2020-12-03_09h12.38.272,premup-three_ses-01_part-01_label-phase1,3.2.4,MacIntel,60,right,0.875,4,0,4,0,1,3,1,0,240,12,1,239,,,,,,,,,,,,,,,,,,
,,1,125,,,,,,,2,2,3,stim/23.jpeg,HouseObjects,1,stim/objects/HouseObjects/key2.png,0.7,2,0.2,0.15,left,27,2020-12-03_09h12.38.272,premup-three_ses-01_part-01_label-phase1,3.2.4,MacIntel,60,left,0.940999985,4,0,4,0,1,3,1,0,240,134,1,239,,,,,,,,,,,,,,,,,,
,,0,126,,,,,,,2,1,3,stim/13.jpeg,Instruments,2,stim/objects/Instruments/record.png,0.7,1,-0.2,0.15,right,27,2020-12-03_09h12.38.272,premup-three_ses-01_part-01_label-phase1,3.2.4,MacIntel,60,left,0.859999895,4,0,4,0,1,3,1,0,240,118,1,239,,,,,,,,,,,,,,,,,,
,,1,127,,,,,,,2,2,1,stim/21.jpeg,HouseObjects,1,stim/objects/HouseObjects/iron2.png,0.7,1,-0.2,0.15,left,27,2020-12-03_09h12.38.272,premup-three_ses-01_part-01_label-phase1,3.2.4,MacIntel,60,left,0.549000025,4,0,4,0,1,3,1,0,240,124,1,239,,,,,,,,,,,,,,,,,,
,,1,128,,,,,,,1,5,3,stim/53.jpeg,Instruments,2,stim/objects/Instruments/maraca.png,0.5,4,0.2,-0.15,right,27,2020-12-03_09h12.38.272,premup-three_ses-01_part-01_label-phase1,3.2.4,MacIntel,60,right,1.057999849,4,0,4,0,1,3,1,0,240,38,1,239,,,,,,,,,,,,,,,,,,
,,1,129,,,,,,,1,5,2,stim/52.jpeg,HouseObjects,1,stim/objects/HouseObjects/ironingboard.png,0.5,2,0.2,0.15,left,27,2020-12-03_09h12.38.272,premup-three_ses-01_part-01_label-phase1,3.2.4,MacIntel,60,left,1.149999857,4,0,4,0,1,3,1,0,240,17,1,239,,,,,,,,,,,,,,,,,,
