id_acc,key_resp_id.keys,key_resp_id.rt,key_resp_conf.keys,key_resp_conf.rt,assoc_acc,key_resp_assoc.keys,key_resp_assoc.rt,loc_acc,key_resp_loc.keys,key_resp_loc.rt,task_innerloop.thisRepN,task_innerloop.thisTrialN,task_innerloop.thisN,task_innerloop.thisIndex,task_innerloop.ran,task_innerloop.order,context_type,object_cat,PE_level,OvsN,obj_file,scn_file,corr_scn_cat,assoc_file,corr_scn_inst,corr_loc,participant,date,expName,psychopyVersion,OS,frameRate
1,left,1.279000044,4,1.990999937,0,1,2.812000036,0,1,5.444000006,1,0,200,57,1,199,2,2,0.3,1,stim/objects/HouseObjects/coffee4.png,stim/41.jpeg,4,stim/4.png,1,3,28,2020-12-04_19h37.34.314,premup-three_ses-02_part-03_label-phase3,3.2.4,Win32,60
1,right,1.812000036,,,0,,,0,,,1,0,200,174,1,199,0,2,0,2,stim/objects/HouseObjects/wateringcan.png,,0,stim/0.png,0,0,28,2020-12-04_19h37.34.314,premup-three_ses-02_part-03_label-phase3,3.2.4,Win32,60
1,left,0.978000164,,,0,,,0,,,1,0,200,187,1,199,0,1,0,2,stim/objects/Instruments/drums2.png,,0,stim/0.png,0,0,28,2020-12-04_19h37.34.314,premup-three_ses-02_part-03_label-phase3,3.2.4,Win32,60
1,right,0.937000036,3,1.847000122,0,3,2.229000092,0,4,2.534000158,1,0,200,41,1,199,2,1,0.7,1,stim/objects/Instruments/cello4.png,stim/41.jpeg,4,stim/4.png,1,1,28,2020-12-04_19h37.34.314,premup-three_ses-02_part-03_label-phase3,3.2.4,Win32,60
1,left,1.282000065,,,0,,,0,,,1,0,200,109,1,199,0,1,0,2,stim/objects/Instruments/cornet.png,,0,stim/0.png,0,0,28,2020-12-04_19h37.34.314,premup-three_ses-02_part-03_label-phase3,3.2.4,Win32,60
1,right,1.210000277,2,2.243000269,0,2,1.098999977,0,3,1.916000128,1,0,200,43,1,199,2,1,0.7,1,stim/objects/Instruments/clarinet4.png,stim/43.jpeg,4,stim/4.png,3,3,28,2020-12-04_19h37.34.314,premup-three_ses-02_part-03_label-phase3,3.2.4,Win32,60
1,left,1.266000032,4,1.117000103,0,4,1.549000025,0,2,3.101000071,1,0,200,48,1,199,2,1,0.7,1,stim/objects/Instruments/electricdrumset4.png,stim/44.jpeg,4,stim/4.png,4,3,28,2020-12-04_19h37.34.314,premup-three_ses-02_part-03_label-phase3,3.2.4,Win32,60
1,left,0.967000246,4,0.902000189,0,4,3.522000074,0,2,1.779000282,1,0,200,74,1,199,3,2,0.9,1,stim/objects/HouseObjects/glass4.png,stim/53.jpeg,5,stim/5.png,3,4,28,2020-12-04_19h37.34.314,premup-three_ses-02_part-03_label-phase3,3.2.4,Win32,60
1,right,1.112000227,2,1.123000145,0,3,1.105999947,0,3,1.228000164,1,0,200,87,1,199,3,1,0.9,1,stim/objects/Instruments/violin4.png,stim/64.jpeg,6,stim/6.png,4,3,28,2020-12-04_19h37.34.314,premup-three_ses-02_part-03_label-phase3,3.2.4,Win32,60
1,right,2.079000235,,,0,,,0,,,1,0,200,156,1,199,0,2,0,2,stim/objects/HouseObjects/key.png,,0,stim/0.png,0,0,28,2020-12-04_19h37.34.314,premup-three_ses-02_part-03_label-phase3,3.2.4,Win32,60
1,left,0.850000143,4,1.164999962,0,2,2.048000097,0,2,0.944000244,1,0,200,32,1,199,2,2,0.7,1,stim/objects/HouseObjects/towel3.png,stim/34.jpeg,3,stim/3.png,4,2,28,2020-12-04_19h37.34.314,premup-three_ses-02_part-03_label-phase3,3.2.4,Win32,60
1,right,1.233999968,,,0,,,0,,,1,0,200,108,1,199,0,1,0,2,stim/objects/Instruments/clarinet.png,,0,stim/0.png,0,0,28,2020-12-04_19h37.34.314,premup-three_ses-02_part-03_label-phase3,3.2.4,Win32,60
1,left,0.938999891,3,1.15500021,0,2,1.212000132,0,3,2.108999968,1,0,200,62,1,199,3,1,0.1,1,stim/objects/Instruments/frenchhorn4.png,stim/53.jpeg,5,stim/5.png,3,4,28,2020-12-04_19h37.34.314,premup-three_ses-02_part-03_label-phase3,3.2.4,Win32,60
1,right,1.424000025,,,0,,,0,,,1,0,200,186,1,199,0,1,0,2,stim/objects/Instruments/doublebass2.png,,0,stim/0.png,0,0,28,2020-12-04_19h37.34.314,premup-three_ses-02_part-03_label-phase3,3.2.4,Win32,60
1,right,0.748000145,3,1.437999964,0,2,1.126000166,0,1,1.123000145,1,0,200,91,1,199,3,2,0.1,1,stim/objects/HouseObjects/key4.png,stim/64.jpeg,6,stim/6.png,4,4,28,2020-12-04_19h37.34.314,premup-three_ses-02_part-03_label-phase3,3.2.4,Win32,60
1,right,1.051000118,,,0,,,0,,,1,0,200,185,1,199,0,1,0,2,stim/objects/Instruments/cymbal2.png,,0,stim/0.png,0,0,28,2020-12-04_19h37.34.314,premup-three_ses-02_part-03_label-phase3,3.2.4,Win32,60
1,right,1.374000072,,,0,,,0,,,1,0,200,107,1,199,0,1,0,2,stim/objects/Instruments/chime.png,,0,stim/0.png,0,0,28,2020-12-04_19h37.34.314,premup-three_ses-02_part-03_label-phase3,3.2.4,Win32,60
1,right,0.892000198,,,0,,,0,,,1,0,200,105,1,199,0,1,0,2,stim/objects/Instruments/bassguitar.png,,0,stim/0.png,0,0,28,2020-12-04_19h37.34.314,premup-three_ses-02_part-03_label-phase3,3.2.4,Win32,60
1,left,0.763000011,,,0,,,0,,,1,0,200,193,1,199,0,2,0,2,stim/objects/HouseObjects/bucket2.png,,0,stim/0.png,0,0,28,2020-12-04_19h37.34.314,premup-three_ses-02_part-03_label-phase3,3.2.4,Win32,60
1,right,1.013000011,3,1.322000265,0,3,1.128000259,0,1,1.631000042,1,0,200,67,1,199,3,1,0.1,1,stim/objects/Instruments/harp4.png,stim/54.jpeg,5,stim/5.png,4,2,28,2020-12-04_19h37.34.314,premup-three_ses-02_part-03_label-phase3,3.2.4,Win32,60
1,left,0.948000193,,,0,,,0,,,1,0,200,147,1,199,0,1,0,2,stim/objects/Instruments/marimba.png,,0,stim/0.png,0,0,28,2020-12-04_19h37.34.314,premup-three_ses-02_part-03_label-phase3,3.2.4,Win32,60
1,right,0.746999979,2,1.230000019,0,4,1.296999931,0,1,1.532999992,1,0,200,0,1,199,1,1,0.5,1,stim/objects/Instruments/guitarcase3.png,stim/13.jpeg,1,stim/1.png,3,1,28,2020-12-04_19h37.34.314,premup-three_ses-02_part-03_label-phase3,3.2.4,Win32,60
1,left,0.894999981,,,0,,,0,,,1,0,200,179,1,199,0,2,0,2,stim/objects/HouseObjects/bleachbottle2.png,,0,stim/0.png,0,0,28,2020-12-04_19h37.34.314,premup-three_ses-02_part-03_label-phase3,3.2.4,Win32,60
1,right,0.999000072,,,0,,,0,,,1,0,200,197,1,199,0,2,0,2,stim/objects/HouseObjects/coffee2.png,,0,stim/0.png,0,0,28,2020-12-04_19h37.34.314,premup-three_ses-02_part-03_label-phase3,3.2.4,Win32,60
1,right,1.913000107,2,0.859999895,0,4,1.073000193,0,3,0.941000223,1,0,200,99,1,199,3,2,0.1,1,stim/objects/HouseObjects/wateringcan4.png,stim/64.jpeg,6,stim/6.png,4,2,28,2020-12-04_19h37.34.314,premup-three_ses-02_part-03_label-phase3,3.2.4,Win32,60
1,left,1.154999971,,,0,,,0,,,1,0,200,160,1,199,0,1,0,2,stim/objects/Instruments/musicstand.png,,0,stim/0.png,0,0,28,2020-12-04_19h37.34.314,premup-three_ses-02_part-03_label-phase3,3.2.4,Win32,60
1,right,0.729000092,3,1.673000097,0,4,0.898000002,0,1,0.711000204,1,0,200,10,1,199,1,2,0.5,1,stim/objects/Instruments/laud3.png,stim/21.jpeg,2,stim/2.png,1,1,28,2020-12-04_19h37.34.314,premup-three_ses-02_part-03_label-phase3,3.2.4,Win32,60
1,right,1.529999971,,,0,,,0,,,1,0,200,123,1,199,0,1,0,2,stim/objects/Instruments/electricdrumset.png,,0,stim/0.png,0,0,28,2020-12-04_19h37.34.314,premup-three_ses-02_part-03_label-phase3,3.2.4,Win32,60
1,right,1.48300004,,,0,,,0,,,1,0,200,190,1,199,0,2,0,2,stim/objects/HouseObjects/blender2.png,,0,stim/0.png,0,0,28,2020-12-04_19h37.34.314,premup-three_ses-02_part-03_label-phase3,3.2.4,Win32,60
1,left,1.270000219,,,0,,,0,,,1,0,200,183,1,199,0,1,0,2,stim/objects/Instruments/clarinet2.png,,0,stim/0.png,0,0,28,2020-12-04_19h37.34.314,premup-three_ses-02_part-03_label-phase3,3.2.4,Win32,60
1,right,1.286000013,2,2.431000233,0,2,0.904999971,0,3,1.305000067,1,0,200,18,1,199,1,2,0.5,1,stim/objects/HouseObjects/lintroller3.png,stim/23.jpeg,2,stim/2.png,3,3,28,2020-12-04_19h37.34.314,premup-three_ses-02_part-03_label-phase3,3.2.4,Win32,60
1,left,1.373000145,3,0.996000051,0,2,0.834000111,0,2,1.196000099,1,0,200,4,1,199,1,1,0.5,1,stim/objects/Instruments/keyboard3.png,stim/13.jpeg,1,stim/1.png,3,2,28,2020-12-04_19h37.34.314,premup-three_ses-02_part-03_label-phase3,3.2.4,Win32,60
1,right,1.01699996,,,0,,,0,,,1,0,200,189,1,199,0,1,0,2,stim/objects/Instruments/electricguitar2.png,,0,stim/0.png,0,0,28,2020-12-04_19h37.34.314,premup-three_ses-02_part-03_label-phase3,3.2.4,Win32,60
1,right,1.585000038,2,0.788000107,0,1,1.102999926,0,4,2.068000078,1,0,200,28,1,199,2,1,0.3,1,stim/objects/Instruments/banjo4.png,stim/31.jpeg,3,stim/3.png,1,3,28,2020-12-04_19h37.34.314,premup-three_ses-02_part-03_label-phase3,3.2.4,Win32,60
1,left,1.21600008,4,1.562000036,0,1,0.766000032,0,2,0.729000092,1,0,200,20,1,199,2,1,0.3,1,stim/objects/Instruments/musicstand3.png,stim/31.jpeg,3,stim/3.png,1,2,28,2020-12-04_19h37.34.314,premup-three_ses-02_part-03_label-phase3,3.2.4,Win32,60
1,left,1.164000034,4,0.731000185,0,3,1.657000065,0,2,2.577000141,1,0,200,55,1,199,2,2,0.3,1,stim/objects/HouseObjects/clothesdryingrack4.png,stim/43.jpeg,4,stim/4.png,3,2,28,2020-12-04_19h37.34.314,premup-three_ses-02_part-03_label-phase3,3.2.4,Win32,60
1,left,1.687000036,4,0.89199996,0,3,0.857000113,0,2,1.539999962,1,0,200,53,1,199,2,2,0.3,1,stim/objects/HouseObjects/bucket4.png,stim/41.jpeg,4,stim/4.png,1,1,28,2020-12-04_19h37.34.314,premup-three_ses-02_part-03_label-phase3,3.2.4,Win32,60
1,right,1.01300025,,,0,,,0,,,1,0,200,194,1,199,0,2,0,2,stim/objects/HouseObjects/clock2.png,,0,stim/0.png,0,0,28,2020-12-04_19h37.34.314,premup-three_ses-02_part-03_label-phase3,3.2.4,Win32,60
1,right,1.039999962,2,0.987999916,0,3,0.71600008,0,1,1.228000164,1,0,200,86,1,199,3,1,0.9,1,stim/objects/Instruments/oboe4.png,stim/63.jpeg,6,stim/6.png,3,1,28,2020-12-04_19h37.34.314,premup-three_ses-02_part-03_label-phase3,3.2.4,Win32,60
1,left,1.09100008,3,1.245000124,0,3,1.326000214,0,3,1.520999908,1,0,200,83,1,199,3,1,0.9,1,stim/objects/Instruments/metronome4.png,stim/64.jpeg,6,stim/6.png,4,2,28,2020-12-04_19h37.34.314,premup-three_ses-02_part-03_label-phase3,3.2.4,Win32,60
1,left,1.639000177,,,0,,,0,,,1,0,200,148,1,199,0,1,0,2,stim/objects/Instruments/metronome.png,,0,stim/0.png,0,0,28,2020-12-04_19h37.34.314,premup-three_ses-02_part-03_label-phase3,3.2.4,Win32,60
1,right,1.003999949,3,1.035000086,0,1,0.921999931,0,3,2.234000206,1,0,200,65,1,199,3,1,0.1,1,stim/objects/Instruments/guitarcase4.png,stim/52.jpeg,5,stim/5.png,2,2,28,2020-12-04_19h37.34.314,premup-three_ses-02_part-03_label-phase3,3.2.4,Win32,60
1,left,1.115000248,4,0.82400012,0,4,1.160000086,0,1,1.164000273,1,0,200,71,1,199,3,2,0.9,1,stim/objects/HouseObjects/dustpan4.png,stim/54.jpeg,5,stim/5.png,4,2,28,2020-12-04_19h37.34.314,premup-three_ses-02_part-03_label-phase3,3.2.4,Win32,60
1,left,1.156000137,3,0.857000113,0,1,0.621999979,0,2,1.611999989,1,0,200,45,1,199,2,1,0.7,1,stim/objects/Instruments/cymbal4.png,stim/41.jpeg,4,stim/4.png,1,2,28,2020-12-04_19h37.34.314,premup-three_ses-02_part-03_label-phase3,3.2.4,Win32,60
1,left,0.935000181,,,0,,,0,,,1,0,200,114,1,199,0,2,0,2,stim/objects/HouseObjects/bleachbottle.png,,0,stim/0.png,0,0,28,2020-12-04_19h37.34.314,premup-three_ses-02_part-03_label-phase3,3.2.4,Win32,60
1,right,0.710000038,4,1.021000147,0,2,0.997000217,0,1,0.634000063,1,0,200,96,1,199,3,2,0.1,1,stim/objects/HouseObjects/pitcher4.png,stim/61.jpeg,6,stim/6.png,1,4,28,2020-12-04_19h37.34.314,premup-three_ses-02_part-03_label-phase3,3.2.4,Win32,60
1,left,1.010000229,4,0.781000137,0,4,1.575000048,0,2,1.283000231,1,0,200,97,1,199,3,2,0.1,1,stim/objects/HouseObjects/towel4.png,stim/62.jpeg,6,stim/6.png,2,2,28,2020-12-04_19h37.34.314,premup-three_ses-02_part-03_label-phase3,3.2.4,Win32,60
1,left,0.965000153,,,0,,,0,,,1,0,200,158,1,199,0,2,0,2,stim/objects/HouseObjects/lintroller.png,,0,stim/0.png,0,0,28,2020-12-04_19h37.34.314,premup-three_ses-02_part-03_label-phase3,3.2.4,Win32,60
1,left,0.846000195,4,0.805999994,0,3,2.603000164,0,1,0.845000029,1,0,200,78,1,199,3,2,0.9,1,stim/objects/HouseObjects/handvacuum4.png,stim/53.jpeg,5,stim/5.png,3,3,28,2020-12-04_19h37.34.314,premup-three_ses-02_part-03_label-phase3,3.2.4,Win32,60
1,right,1.052000046,,,0,,,0,,,1,0,200,192,1,199,0,2,0,2,stim/objects/HouseObjects/broom2.png,,0,stim/0.png,0,0,28,2020-12-04_19h37.34.314,premup-three_ses-02_part-03_label-phase3,3.2.4,Win32,60
1,left,1.763000011,3,0.845000029,0,2,0.822000027,0,3,1.582000017,1,0,200,34,1,199,2,2,0.7,1,stim/objects/HouseObjects/wateringcan3.png,stim/32.jpeg,3,stim/3.png,2,3,28,2020-12-04_19h37.34.314,premup-three_ses-02_part-03_label-phase3,3.2.4,Win32,60
1,left,1.680000067,,,0,,,0,,,1,0,200,184,1,199,0,1,0,2,stim/objects/Instruments/cornet2.png,,0,stim/0.png,0,0,28,2020-12-04_19h37.34.314,premup-three_ses-02_part-03_label-phase3,3.2.4,Win32,60
1,right,0.714999914,,,0,,,0,,,1,0,200,141,1,199,0,1,0,2,stim/objects/Instruments/harmonica.png,,0,stim/0.png,0,0,28,2020-12-04_19h37.34.314,premup-three_ses-02_part-03_label-phase3,3.2.4,Win32,60
1,left,0.849999905,4,0.69900012,0,1,1.248000145,0,1,2.281000137,1,0,200,70,1,199,3,2,0.9,1,stim/objects/HouseObjects/doormat4.png,stim/53.jpeg,5,stim/5.png,3,1,28,2020-12-04_19h37.34.314,premup-three_ses-02_part-03_label-phase3,3.2.4,Win32,60
1,right,0.80700016,2,1.29700017,0,2,1.674999952,0,2,1.354000092,1,0,200,22,1,199,2,1,0.3,1,stim/objects/Instruments/violin3.png,stim/33.jpeg,3,stim/3.png,3,1,28,2020-12-04_19h37.34.314,premup-three_ses-02_part-03_label-phase3,3.2.4,Win32,60
1,left,1.094000101,3,1.295000076,0,3,1.197000027,0,2,1.137000084,1,0,200,15,1,199,1,2,0.5,1,stim/objects/HouseObjects/ironingboard3.png,stim/24.jpeg,2,stim/2.png,4,1,28,2020-12-04_19h37.34.314,premup-three_ses-02_part-03_label-phase3,3.2.4,Win32,60
1,right,1.15500021,,,0,,,0,,,1,0,200,159,1,199,0,2,0,2,stim/objects/HouseObjects/match.png,,0,stim/0.png,0,0,28,2020-12-04_19h37.34.314,premup-three_ses-02_part-03_label-phase3,3.2.4,Win32,60
1,left,0.752000093,4,0.746999979,0,3,2.251000166,0,2,2.06400013,1,0,200,19,1,199,1,2,0.5,1,stim/objects/HouseObjects/match3.png,stim/24.jpeg,2,stim/2.png,4,3,28,2020-12-04_19h37.34.314,premup-three_ses-02_part-03_label-phase3,3.2.4,Win32,60
1,left,1.75999999,3,0.702000141,0,2,0.758000135,0,2,1.520000219,1,0,200,98,1,199,3,2,0.1,1,stim/objects/HouseObjects/vacuumcleaner4.png,stim/63.jpeg,6,stim/6.png,3,4,28,2020-12-04_19h37.34.314,premup-three_ses-02_part-03_label-phase3,3.2.4,Win32,60
1,right,1.575000048,2,0.945000172,0,1,0.65899992,0,2,1.329000235,1,0,200,47,1,199,2,1,0.7,1,stim/objects/Instruments/drums4.png,stim/43.jpeg,4,stim/4.png,3,4,28,2020-12-04_19h37.34.314,premup-three_ses-02_part-03_label-phase3,3.2.4,Win32,60
1,left,0.938000202,,,0,,,0,,,1,0,200,122,1,199,0,1,0,2,stim/objects/Instruments/drums.png,,0,stim/0.png,0,0,28,2020-12-04_19h37.34.314,premup-three_ses-02_part-03_label-phase3,3.2.4,Win32,60
1,right,0.914000034,3,0.947000027,0,3,1.29700017,0,4,3.118000269,1,0,200,76,1,199,3,2,0.9,1,stim/objects/HouseObjects/hairdryer4.png,stim/51.jpeg,5,stim/5.png,1,4,28,2020-12-04_19h37.34.314,premup-three_ses-02_part-03_label-phase3,3.2.4,Win32,60
1,left,1.166000128,3,0.991000175,0,1,5.149000168,0,2,2.549000025,1,0,200,93,1,199,3,2,0.1,1,stim/objects/HouseObjects/lintroller4.png,stim/62.jpeg,6,stim/6.png,2,4,28,2020-12-04_19h37.34.314,premup-three_ses-02_part-03_label-phase3,3.2.4,Win32,60
1,right,1.0400002,2,1.411000013,0,4,1.231000185,0,3,1.827000141,1,0,200,54,1,199,2,2,0.3,1,stim/objects/HouseObjects/clock4.png,stim/42.jpeg,4,stim/4.png,2,2,28,2020-12-04_19h37.34.314,premup-three_ses-02_part-03_label-phase3,3.2.4,Win32,60
1,left,0.971000195,4,0.858999968,0,3,1.782000065,0,2,2.590000153,1,0,200,85,1,199,3,1,0.9,1,stim/objects/Instruments/musicstand4.png,stim/62.jpeg,6,stim/6.png,2,2,28,2020-12-04_19h37.34.314,premup-three_ses-02_part-03_label-phase3,3.2.4,Win32,60
1,left,1.226999998,4,1.516000032,0,4,0.965000153,0,1,2.525000095,1,0,200,12,1,199,1,2,0.5,1,stim/objects/Instruments/marimba3.png,stim/23.jpeg,2,stim/2.png,3,2,28,2020-12-04_19h37.34.314,premup-three_ses-02_part-03_label-phase3,3.2.4,Win32,60
1,right,0.946000099,,,0,,,0,,,1,0,200,102,1,199,0,1,0,2,stim/objects/Instruments/balalaika.png,,0,stim/0.png,0,0,28,2020-12-04_19h37.34.314,premup-three_ses-02_part-03_label-phase3,3.2.4,Win32,60
1,right,1.025000095,3,1.278000116,0,2,1.019000053,0,1,0.835000038,1,0,200,31,1,199,2,2,0.7,1,stim/objects/HouseObjects/pitcher3.png,stim/33.jpeg,3,stim/3.png,3,2,28,2020-12-04_19h37.34.314,premup-three_ses-02_part-03_label-phase3,3.2.4,Win32,60
1,right,1.859000206,,,0,,,0,,,1,0,200,144,1,199,0,1,0,2,stim/objects/Instruments/keyboard.png,,0,stim/0.png,0,0,28,2020-12-04_19h37.34.314,premup-three_ses-02_part-03_label-phase3,3.2.4,Win32,60
1,right,0.802000046,3,1.046000004,0,2,0.828999996,0,2,1.423000097,1,0,200,16,1,199,1,2,0.5,1,stim/objects/HouseObjects/key3.png,stim/21.jpeg,2,stim/2.png,1,4,28,2020-12-04_19h37.34.314,premup-three_ses-02_part-03_label-phase3,3.2.4,Win32,60
1,right,0.734000206,3,0.875,0,2,0.545000076,0,1,0.680000067,1,0,200,6,1,199,1,1,0.5,1,stim/objects/HouseObjects/hairdryer3.png,stim/13.jpeg,1,stim/1.png,3,1,28,2020-12-04_19h37.34.314,premup-three_ses-02_part-03_label-phase3,3.2.4,Win32,60
1,left,1.470000029,2,1.845000029,0,1,1.612000227,0,2,2.067000151,1,0,200,72,1,199,3,2,0.9,1,stim/objects/HouseObjects/flyswatter4.png,stim/51.jpeg,5,stim/5.png,1,1,28,2020-12-04_19h37.34.314,premup-three_ses-02_part-03_label-phase3,3.2.4,Win32,60
1,right,0.977999926,3,1.20600009,0,1,0.544000149,0,2,1.211999893,1,0,200,29,1,199,2,1,0.3,1,stim/objects/Instruments/bassdrum4.png,stim/32.jpeg,3,stim/3.png,2,3,28,2020-12-04_19h37.34.314,premup-three_ses-02_part-03_label-phase3,3.2.4,Win32,60
1,right,0.934000015,,,0,,,0,,,1,0,200,151,1,199,0,2,0,2,stim/objects/HouseObjects/hairdryer.png,,0,stim/0.png,0,0,28,2020-12-04_19h37.34.314,premup-three_ses-02_part-03_label-phase3,3.2.4,Win32,60
1,right,1.171000242,,,0,,,0,,,1,0,200,154,1,199,0,2,0,2,stim/objects/HouseObjects/iron.png,,0,stim/0.png,0,0,28,2020-12-04_19h37.34.314,premup-three_ses-02_part-03_label-phase3,3.2.4,Win32,60
1,right,1.106000185,3,1.210000038,0,3,0.9150002,0,2,1.006000042,1,0,200,17,1,199,1,2,0.5,1,stim/objects/HouseObjects/knife3.png,stim/22.jpeg,2,stim/2.png,2,2,28,2020-12-04_19h37.34.314,premup-three_ses-02_part-03_label-phase3,3.2.4,Win32,60
1,right,0.805000067,,,0,,,0,,,1,0,200,181,1,199,0,1,0,2,stim/objects/Instruments/cello2.png,,0,stim/0.png,0,0,28,2020-12-04_19h37.34.314,premup-three_ses-02_part-03_label-phase3,3.2.4,Win32,60
1,left,1.34100008,,,0,,,0,,,1,0,200,124,1,199,0,1,0,2,stim/objects/Instruments/electricguitar.png,,0,stim/0.png,0,0,28,2020-12-04_19h37.34.314,premup-three_ses-02_part-03_label-phase3,3.2.4,Win32,60
1,left,1.595000029,,,0,,,0,,,1,0,200,152,1,199,0,2,0,2,stim/objects/HouseObjects/handbrush.png,,0,stim/0.png,0,0,28,2020-12-04_19h37.34.314,premup-three_ses-02_part-03_label-phase3,3.2.4,Win32,60
1,right,0.946000099,,,0,,,0,,,1,0,200,167,1,199,0,1,0,2,stim/objects/Instruments/balalaika2.png,,0,stim/0.png,0,0,28,2020-12-04_19h37.34.314,premup-three_ses-02_part-03_label-phase3,3.2.4,Win32,60
1,left,0.900000095,4,0.657000065,0,2,3.571000099,0,4,2.313000202,1,0,200,23,1,199,2,1,0.3,1,stim/objects/Instruments/vuvuzela3.png,stim/34.jpeg,3,stim/3.png,4,4,28,2020-12-04_19h37.34.314,premup-three_ses-02_part-03_label-phase3,3.2.4,Win32,60
1,left,0.998000145,3,0.930000067,0,3,0.834000111,0,3,4.750000238,1,0,200,2,1,199,1,1,0.5,1,stim/objects/Instruments/harp3.png,stim/11.jpeg,1,stim/1.png,1,2,28,2020-12-04_19h37.34.314,premup-three_ses-02_part-03_label-phase3,3.2.4,Win32,60
1,left,1.745000124,3,0.710000038,0,2,0.812000036,0,2,1.555000067,1,0,200,95,1,199,3,2,0.1,1,stim/objects/HouseObjects/pan4.png,stim/64.jpeg,6,stim/6.png,4,2,28,2020-12-04_19h37.34.314,premup-three_ses-02_part-03_label-phase3,3.2.4,Win32,60
1,right,1.786000013,,,0,,,0,,,1,0,200,138,1,199,0,2,0,2,stim/objects/HouseObjects/garbagebin.png,,0,stim/0.png,0,0,28,2020-12-04_19h37.34.314,premup-three_ses-02_part-03_label-phase3,3.2.4,Win32,60
1,left,1.193000078,,,0,,,0,,,1,0,200,191,1,199,0,2,0,2,stim/objects/HouseObjects/bottle2.png,,0,stim/0.png,0,0,28,2020-12-04_19h37.34.314,premup-three_ses-02_part-03_label-phase3,3.2.4,Win32,60
1,right,1.407999992,,,0,,,0,,,1,0,200,131,1,199,0,2,0,2,stim/objects/HouseObjects/clothespin.png,,0,stim/0.png,0,0,28,2020-12-04_19h37.34.314,premup-three_ses-02_part-03_label-phase3,3.2.4,Win32,60
1,right,1.309999943,,,0,,,0,,,1,0,200,195,1,199,0,2,0,2,stim/objects/HouseObjects/clothesdryingrack2.png,,0,stim/0.png,0,0,28,2020-12-04_19h37.34.314,premup-three_ses-02_part-03_label-phase3,3.2.4,Win32,60
1,right,1.031000137,,,0,,,0,,,1,0,200,171,1,199,0,2,0,2,stim/objects/HouseObjects/pitcher.png,,0,stim/0.png,0,0,28,2020-12-04_19h37.34.314,premup-three_ses-02_part-03_label-phase3,3.2.4,Win32,60
1,left,1.147000074,,,0,,,0,,,1,0,200,115,1,199,0,2,0,2,stim/objects/HouseObjects/blender.png,,0,stim/0.png,0,0,28,2020-12-04_19h37.34.314,premup-three_ses-02_part-03_label-phase3,3.2.4,Win32,60
1,right,1.194999933,,,0,,,0,,,1,0,200,128,1,199,0,1,0,2,stim/objects/Instruments/gong.png,,0,stim/0.png,0,0,28,2020-12-04_19h37.34.314,premup-three_ses-02_part-03_label-phase3,3.2.4,Win32,60
1,left,1.295000076,,,0,,,0,,,1,0,200,182,1,199,0,1,0,2,stim/objects/Instruments/chime2.png,,0,stim/0.png,0,0,28,2020-12-04_19h37.34.314,premup-three_ses-02_part-03_label-phase3,3.2.4,Win32,60
1,left,1.610000134,,,0,,,0,,,1,0,200,112,1,199,0,2,0,2,stim/objects/HouseObjects/barbecuelighter.png,,0,stim/0.png,0,0,28,2020-12-04_19h37.34.314,premup-three_ses-02_part-03_label-phase3,3.2.4,Win32,60
1,left,1.976000071,,,0,,,0,,,1,0,200,135,1,199,0,2,0,2,stim/objects/HouseObjects/doormat.png,,0,stim/0.png,0,0,28,2020-12-04_19h37.34.314,premup-three_ses-02_part-03_label-phase3,3.2.4,Win32,60
1,left,0.893000126,3,0.892999887,0,2,1.138999939,0,1,1.412000179,1,0,200,60,1,199,3,1,0.1,1,stim/objects/Instruments/flute4.png,stim/51.jpeg,5,stim/5.png,1,3,28,2020-12-04_19h37.34.314,premup-three_ses-02_part-03_label-phase3,3.2.4,Win32,60
1,right,0.950999975,,,0,,,0,,,1,0,200,140,1,199,0,1,0,2,stim/objects/Instruments/guitarcase.png,,0,stim/0.png,0,0,28,2020-12-04_19h37.34.314,premup-three_ses-02_part-03_label-phase3,3.2.4,Win32,60
1,right,0.798000097,3,1.030999899,0,2,0.681999922,0,2,0.843000174,1,0,200,5,1,199,1,1,0.5,1,stim/objects/HouseObjects/glassmop3.png,stim/12.jpeg,1,stim/1.png,2,4,28,2020-12-04_19h37.34.314,premup-three_ses-02_part-03_label-phase3,3.2.4,Win32,60
1,left,0.977000237,,,0,,,0,,,1,0,200,169,1,199,0,1,0,2,stim/objects/Instruments/bassdrum2.png,,0,stim/0.png,0,0,28,2020-12-04_19h37.34.314,premup-three_ses-02_part-03_label-phase3,3.2.4,Win32,60
1,left,0.921000242,,,0,,,0,,,1,0,200,199,1,199,0,2,0,2,stim/objects/HouseObjects/dishsoap2.png,,0,stim/0.png,0,0,28,2020-12-04_19h37.34.314,premup-three_ses-02_part-03_label-phase3,3.2.4,Win32,60
1,right,1.282999992,3,1.036000013,0,3,1.019000053,0,1,1.192000151,1,0,200,49,1,199,2,1,0.7,1,stim/objects/Instruments/electricguitar4.png,stim/41.jpeg,4,stim/4.png,1,3,28,2020-12-04_19h37.34.314,premup-three_ses-02_part-03_label-phase3,3.2.4,Win32,60
1,left,1.423000097,4,1.430999994,0,3,1.099000216,0,4,0.973000288,1,0,200,36,1,199,2,2,0.7,1,stim/objects/HouseObjects/ballofstring4.png,stim/34.jpeg,3,stim/3.png,4,4,28,2020-12-04_19h37.34.314,premup-three_ses-02_part-03_label-phase3,3.2.4,Win32,60
1,right,1.239000082,4,1.275000095,0,2,1.125000238,0,1,0.878000021,1,0,200,59,1,199,2,2,0.3,1,stim/objects/HouseObjects/dishsoap4.png,stim/43.jpeg,4,stim/4.png,3,1,28,2020-12-04_19h37.34.314,premup-three_ses-02_part-03_label-phase3,3.2.4,Win32,60
1,left,1,3,1.042999983,0,2,0.836000204,0,2,1.861999989,1,0,200,33,1,199,2,2,0.7,1,stim/objects/HouseObjects/vacuumcleaner3.png,stim/31.jpeg,3,stim/3.png,1,3,28,2020-12-04_19h37.34.314,premup-three_ses-02_part-03_label-phase3,3.2.4,Win32,60
1,left,1.302999973,3,1.279000044,0,4,2.039000034,0,2,3.207000017,1,0,200,40,1,199,2,1,0.7,1,stim/objects/Instruments/bassguitar4.png,stim/44.jpeg,4,stim/4.png,4,1,28,2020-12-04_19h37.34.314,premup-three_ses-02_part-03_label-phase3,3.2.4,Win32,60
1,right,0.826000214,,,0,,,0,,,1,0,200,175,1,199,0,2,0,2,stim/objects/HouseObjects/ashtray2.png,,0,stim/0.png,0,0,28,2020-12-04_19h37.34.314,premup-three_ses-02_part-03_label-phase3,3.2.4,Win32,60
1,right,0.629000187,4,1.099000216,0,2,0.815999985,0,1,1.069999933,1,0,200,81,1,199,3,1,0.9,1,stim/objects/Instruments/maraca4.png,stim/62.jpeg,6,stim/6.png,2,4,28,2020-12-04_19h37.34.314,premup-three_ses-02_part-03_label-phase3,3.2.4,Win32,60
1,left,1.048000097,2,1.828999996,0,3,0.687000275,0,1,0.997999907,1,0,200,82,1,199,3,1,0.9,1,stim/objects/Instruments/marimba4.png,stim/63.jpeg,6,stim/6.png,3,3,28,2020-12-04_19h37.34.314,premup-three_ses-02_part-03_label-phase3,3.2.4,Win32,60
1,left,1.879000187,2,1.105999947,0,3,0.508000135,0,2,1.498000145,1,0,200,27,1,199,2,1,0.3,1,stim/objects/Instruments/balalaika4.png,stim/34.jpeg,3,stim/3.png,4,2,28,2020-12-04_19h37.34.314,premup-three_ses-02_part-03_label-phase3,3.2.4,Win32,60
1,right,0.789999962,,,0,,,0,,,1,0,200,110,1,199,0,2,0,2,stim/objects/HouseObjects/ashtray.png,,0,stim/0.png,0,0,28,2020-12-04_19h37.34.314,premup-three_ses-02_part-03_label-phase3,3.2.4,Win32,60
1,right,1.571000099,,,0,,,0,,,1,0,200,133,1,199,0,2,0,2,stim/objects/HouseObjects/cushion.png,,0,stim/0.png,0,0,28,2020-12-04_19h37.34.314,premup-three_ses-02_part-03_label-phase3,3.2.4,Win32,60
1,left,1.176000118,,,0,,,0,,,1,0,200,180,1,199,0,1,0,2,stim/objects/Instruments/bassguitar2.png,,0,stim/0.png,0,0,28,2020-12-04_19h37.34.314,premup-three_ses-02_part-03_label-phase3,3.2.4,Win32,60
1,left,1.258000135,,,0,,,0,,,1,0,200,132,1,199,0,2,0,2,stim/objects/HouseObjects/coffee.png,,0,stim/0.png,0,0,28,2020-12-04_19h37.34.314,premup-three_ses-02_part-03_label-phase3,3.2.4,Win32,60
1,right,0.826000214,,,0,,,0,,,1,0,200,198,1,199,0,2,0,2,stim/objects/HouseObjects/cushion2.png,,0,stim/0.png,0,0,28,2020-12-04_19h37.34.314,premup-three_ses-02_part-03_label-phase3,3.2.4,Win32,60
1,left,1.401000023,,,0,,,0,,,1,0,200,153,1,199,0,2,0,2,stim/objects/HouseObjects/handvacuum.png,,0,stim/0.png,0,0,28,2020-12-04_19h37.34.314,premup-three_ses-02_part-03_label-phase3,3.2.4,Win32,60
1,right,0.879000187,,,0,,,0,,,1,0,200,162,1,199,0,1,0,2,stim/objects/Instruments/violin.png,,0,stim/0.png,0,0,28,2020-12-04_19h37.34.314,premup-three_ses-02_part-03_label-phase3,3.2.4,Win32,60
1,right,0.802000046,3,1.282000065,0,1,1.028000116,0,1,0.900000095,1,0,200,58,1,199,2,2,0.3,1,stim/objects/HouseObjects/cushion4.png,stim/42.jpeg,4,stim/4.png,2,2,28,2020-12-04_19h37.34.314,premup-three_ses-02_part-03_label-phase3,3.2.4,Win32,60
1,right,1.19900012,,,0,,,0,,,1,0,200,170,1,199,0,2,0,2,stim/objects/HouseObjects/pan.png,,0,stim/0.png,0,0,28,2020-12-04_19h37.34.314,premup-three_ses-02_part-03_label-phase3,3.2.4,Win32,60
1,left,1.138999939,2,1.044000149,0,3,1.627000093,0,1,0.828000069,1,0,200,75,1,199,3,2,0.9,1,stim/objects/HouseObjects/glassmop4.png,stim/54.jpeg,5,stim/5.png,4,3,28,2020-12-04_19h37.34.314,premup-three_ses-02_part-03_label-phase3,3.2.4,Win32,60
1,right,0.962000132,1,1.856000185,0,1,0.948000193,0,1,1.029000044,1,0,200,84,1,199,3,1,0.9,1,stim/objects/Instruments/musicsheet4.png,stim/61.jpeg,6,stim/6.png,1,1,28,2020-12-04_19h37.34.314,premup-three_ses-02_part-03_label-phase3,3.2.4,Win32,60
1,left,1.193000078,,,0,,,0,,,1,0,200,155,1,199,0,2,0,2,stim/objects/HouseObjects/ironingboard.png,,0,stim/0.png,0,0,28,2020-12-04_19h37.34.314,premup-three_ses-02_part-03_label-phase3,3.2.4,Win32,60
1,right,0.661999941,,,0,,,0,,,1,0,200,136,1,199,0,2,0,2,stim/objects/HouseObjects/dustpan.png,,0,stim/0.png,0,0,28,2020-12-04_19h37.34.314,premup-three_ses-02_part-03_label-phase3,3.2.4,Win32,60
1,right,0.832000017,,,0,,,0,,,1,0,200,157,1,199,0,2,0,2,stim/objects/HouseObjects/knife.png,,0,stim/0.png,0,0,28,2020-12-04_19h37.34.314,premup-three_ses-02_part-03_label-phase3,3.2.4,Win32,60
1,right,0.684000015,,,0,,,0,,,1,0,200,134,1,199,0,2,0,2,stim/objects/HouseObjects/dishsoap.png,,0,stim/0.png,0,0,28,2020-12-04_19h37.34.314,premup-three_ses-02_part-03_label-phase3,3.2.4,Win32,60
1,right,0.991000175,3,1.454999924,0,4,1.562000036,0,2,1.633000135,1,0,200,7,1,199,1,1,0.5,1,stim/objects/HouseObjects/handbrush3.png,stim/14.jpeg,1,stim/1.png,4,2,28,2020-12-04_19h37.34.314,premup-three_ses-02_part-03_label-phase3,3.2.4,Win32,60
1,left,1.058000088,4,1.003000259,0,3,0.765000105,0,2,1.463000059,1,0,200,38,1,199,2,2,0.7,1,stim/objects/HouseObjects/basket4.png,stim/32.jpeg,3,stim/3.png,2,2,28,2020-12-04_19h37.34.314,premup-three_ses-02_part-03_label-phase3,3.2.4,Win32,60
1,right,1.414999962,,,0,,,0,,,1,0,200,101,1,199,0,1,0,2,stim/objects/Instruments/acousticguitar.png,,0,stim/0.png,0,0,28,2020-12-04_19h37.34.314,premup-three_ses-02_part-03_label-phase3,3.2.4,Win32,60
1,left,0.677000046,,,0,,,0,,,1,0,200,142,1,199,0,1,0,2,stim/objects/Instruments/harp.png,,0,stim/0.png,0,0,28,2020-12-04_19h37.34.314,premup-three_ses-02_part-03_label-phase3,3.2.4,Win32,60
1,left,1.299999952,,,0,,,0,,,1,0,200,100,1,199,0,1,0,2,stim/objects/Instruments/accordion.png,,0,stim/0.png,0,0,28,2020-12-04_19h37.34.314,premup-three_ses-02_part-03_label-phase3,3.2.4,Win32,60
1,right,0.788000107,,,0,,,0,,,1,0,200,176,1,199,0,2,0,2,stim/objects/HouseObjects/ballofstring2.png,,0,stim/0.png,0,0,28,2020-12-04_19h37.34.314,premup-three_ses-02_part-03_label-phase3,3.2.4,Win32,60
1,left,1.068000078,3,1.00999999,0,1,0.743000031,0,2,0.778000116,1,0,200,13,1,199,1,2,0.5,1,stim/objects/Instruments/metronome3.png,stim/24.jpeg,2,stim/2.png,4,2,28,2020-12-04_19h37.34.314,premup-three_ses-02_part-03_label-phase3,3.2.4,Win32,60
1,left,1.18200016,4,1.095999956,0,3,0.938999891,0,2,1.895999908,1,0,200,39,1,199,2,2,0.7,1,stim/objects/HouseObjects/bleachbottle4.png,stim/33.jpeg,3,stim/3.png,3,2,28,2020-12-04_19h37.34.314,premup-three_ses-02_part-03_label-phase3,3.2.4,Win32,60
1,left,1.309000254,,,0,,,0,,,1,0,200,127,1,199,0,1,0,2,stim/objects/Instruments/frenchhorn.png,,0,stim/0.png,0,0,28,2020-12-04_19h37.34.314,premup-three_ses-02_part-03_label-phase3,3.2.4,Win32,60
1,left,0.875999928,4,0.594000101,0,4,2.605000019,0,2,1.069000244,1,0,200,63,1,199,3,1,0.1,1,stim/objects/Instruments/gong4.png,stim/54.jpeg,5,stim/5.png,4,2,28,2020-12-04_19h37.34.314,premup-three_ses-02_part-03_label-phase3,3.2.4,Win32,60
1,left,1.74000001,2,1.03000021,0,3,1.345000029,0,2,2.230000019,1,0,200,68,1,199,3,1,0.1,1,stim/objects/Instruments/hihat4.png,stim/51.jpeg,5,stim/5.png,1,2,28,2020-12-04_19h37.34.314,premup-three_ses-02_part-03_label-phase3,3.2.4,Win32,60
1,left,0.917999983,,,0,,,0,,,1,0,200,126,1,199,0,1,0,2,stim/objects/Instruments/flutetrans.png,,0,stim/0.png,0,0,28,2020-12-04_19h37.34.314,premup-three_ses-02_part-03_label-phase3,3.2.4,Win32,60
1,left,1.767000198,3,1.078000069,0,2,0.596000195,0,1,3.031000137,1,0,200,46,1,199,2,1,0.7,1,stim/objects/Instruments/doublebass4.png,stim/42.jpeg,4,stim/4.png,2,4,28,2020-12-04_19h37.34.314,premup-three_ses-02_part-03_label-phase3,3.2.4,Win32,60
1,right,1.088000059,1,0.863000154,0,2,1.170000076,0,1,1.06400013,1,0,200,35,1,199,2,2,0.7,1,stim/objects/HouseObjects/ashtray4.png,stim/33.jpeg,3,stim/3.png,3,1,28,2020-12-04_19h37.34.314,premup-three_ses-02_part-03_label-phase3,3.2.4,Win32,60
1,right,0.879000187,2,1.059000015,0,2,1.312000036,0,3,0.796000004,1,0,200,26,1,199,2,1,0.3,1,stim/objects/Instruments/acousticguitar4.png,stim/33.jpeg,3,stim/3.png,3,3,28,2020-12-04_19h37.34.314,premup-three_ses-02_part-03_label-phase3,3.2.4,Win32,60
1,right,1.125000238,3,0.920000076,0,2,0.975000143,0,2,1.61500001,1,0,200,79,1,199,3,2,0.9,1,stim/objects/HouseObjects/iron4.png,stim/54.jpeg,5,stim/5.png,4,2,28,2020-12-04_19h37.34.314,premup-three_ses-02_part-03_label-phase3,3.2.4,Win32,60
1,left,1.107000113,,,0,,,0,,,1,0,200,172,1,199,0,2,0,2,stim/objects/HouseObjects/towel.png,,0,stim/0.png,0,0,28,2020-12-04_19h37.34.314,premup-three_ses-02_part-03_label-phase3,3.2.4,Win32,60
1,right,0.833000183,,,0,,,0,,,1,0,200,143,1,199,0,1,0,2,stim/objects/Instruments/hihat.png,,0,stim/0.png,0,0,28,2020-12-04_19h37.34.314,premup-three_ses-02_part-03_label-phase3,3.2.4,Win32,60
1,left,0.738000154,4,0.669000149,0,4,1.679000139,0,3,2.448000193,1,0,200,11,1,199,1,2,0.5,1,stim/objects/Instruments/maraca3.png,stim/22.jpeg,2,stim/2.png,2,3,28,2020-12-04_19h37.34.314,premup-three_ses-02_part-03_label-phase3,3.2.4,Win32,60
1,right,1.283000231,,,0,,,0,,,1,0,200,188,1,199,0,1,0,2,stim/objects/Instruments/electricdrumset2.png,,0,stim/0.png,0,0,28,2020-12-04_19h37.34.314,premup-three_ses-02_part-03_label-phase3,3.2.4,Win32,60
1,right,0.732000113,,,0,,,0,,,1,0,200,145,1,199,0,1,0,2,stim/objects/Instruments/laud.png,,0,stim/0.png,0,0,28,2020-12-04_19h37.34.314,premup-three_ses-02_part-03_label-phase3,3.2.4,Win32,60
1,right,0.970000267,,,0,,,0,,,1,0,200,106,1,199,0,1,0,2,stim/objects/Instruments/cello.png,,0,stim/0.png,0,0,28,2020-12-04_19h37.34.314,premup-three_ses-02_part-03_label-phase3,3.2.4,Win32,60
1,right,1.878000021,2,1.626000166,0,2,0.7900002,0,2,1.502000093,1,0,200,88,1,199,3,1,0.9,1,stim/objects/Instruments/vuvuzela4.png,stim/61.jpeg,6,stim/6.png,1,4,28,2020-12-04_19h37.34.314,premup-three_ses-02_part-03_label-phase3,3.2.4,Win32,60
1,right,1.062000036,2,1.818000078,0,3,1.611999989,0,1,1.102000237,1,0,200,80,1,199,3,1,0.9,1,stim/objects/Instruments/laud4.png,stim/61.jpeg,6,stim/6.png,1,2,28,2020-12-04_19h37.34.314,premup-three_ses-02_part-03_label-phase3,3.2.4,Win32,60
1,right,0.969000101,3,0.985000134,0,1,0.70600009,0,2,0.804000139,1,0,200,8,1,199,1,1,0.5,1,stim/objects/HouseObjects/handvacuum3.png,stim/11.jpeg,1,stim/1.png,1,4,28,2020-12-04_19h37.34.314,premup-three_ses-02_part-03_label-phase3,3.2.4,Win32,60
1,right,1.959000111,3,1.685000181,0,1,0.875,0,3,1.180999994,1,0,200,61,1,199,3,1,0.1,1,stim/objects/Instruments/flutetrans4.png,stim/52.jpeg,5,stim/5.png,2,4,28,2020-12-04_19h37.34.314,premup-three_ses-02_part-03_label-phase3,3.2.4,Win32,60
1,left,1.318000078,3,0.93200016,0,2,0.661999941,0,3,1.362000227,1,0,200,24,1,199,2,1,0.3,1,stim/objects/Instruments/xylophone3.png,stim/31.jpeg,3,stim/3.png,1,3,28,2020-12-04_19h37.34.314,premup-three_ses-02_part-03_label-phase3,3.2.4,Win32,60
1,right,1.187000036,,,0,,,0,,,1,0,200,117,1,199,0,2,0,2,stim/objects/HouseObjects/broom.png,,0,stim/0.png,0,0,28,2020-12-04_19h37.34.314,premup-three_ses-02_part-03_label-phase3,3.2.4,Win32,60
1,right,0.911000252,3,1.046000242,0,4,1.04700017,0,2,1.188999891,1,0,200,94,1,199,3,2,0.1,1,stim/objects/HouseObjects/match4.png,stim/63.jpeg,6,stim/6.png,3,2,28,2020-12-04_19h37.34.314,premup-three_ses-02_part-03_label-phase3,3.2.4,Win32,60
1,right,0.852999926,3,0.828999996,0,2,0.624000072,0,2,0.960000038,1,0,200,42,1,199,2,1,0.7,1,stim/objects/Instruments/chime4.png,stim/42.jpeg,4,stim/4.png,2,4,28,2020-12-04_19h37.34.314,premup-three_ses-02_part-03_label-phase3,3.2.4,Win32,60
1,left,0.993000031,,,0,,,0,,,1,0,200,118,1,199,0,2,0,2,stim/objects/HouseObjects/bucket.png,,0,stim/0.png,0,0,28,2020-12-04_19h37.34.314,premup-three_ses-02_part-03_label-phase3,3.2.4,Win32,60
1,right,0.756000042,,,0,,,0,,,1,0,200,178,1,199,0,2,0,2,stim/objects/HouseObjects/basket2.png,,0,stim/0.png,0,0,28,2020-12-04_19h37.34.314,premup-three_ses-02_part-03_label-phase3,3.2.4,Win32,60
1,left,1.130000114,,,0,,,0,,,1,0,200,149,1,199,0,1,0,2,stim/objects/Instruments/musicsheet.png,,0,stim/0.png,0,0,28,2020-12-04_19h37.34.314,premup-three_ses-02_part-03_label-phase3,3.2.4,Win32,60
1,right,1.085000277,3,1.010999918,0,2,0.582999945,0,1,0.918000221,1,0,200,37,1,199,2,2,0.7,1,stim/objects/HouseObjects/barbecuelighter4.png,stim/31.jpeg,3,stim/3.png,1,1,28,2020-12-04_19h37.34.314,premup-three_ses-02_part-03_label-phase3,3.2.4,Win32,60
1,right,0.78000021,,,0,,,0,,,1,0,200,168,1,199,0,1,0,2,stim/objects/Instruments/banjo2.png,,0,stim/0.png,0,0,28,2020-12-04_19h37.34.314,premup-three_ses-02_part-03_label-phase3,3.2.4,Win32,60
1,left,1.244000196,3,1.151000023,0,1,0.590000153,0,2,0.828000307,1,0,200,9,1,199,1,1,0.5,1,stim/objects/HouseObjects/iron3.png,stim/12.jpeg,1,stim/1.png,2,2,28,2020-12-04_19h37.34.314,premup-three_ses-02_part-03_label-phase3,3.2.4,Win32,60
1,left,4.969000101,,,0,,,0,,,1,0,200,146,1,199,0,1,0,2,stim/objects/Instruments/maraca.png,,0,stim/0.png,0,0,28,2020-12-04_19h37.34.314,premup-three_ses-02_part-03_label-phase3,3.2.4,Win32,60
1,right,0.873000145,,,0,,,0,,,1,0,200,113,1,199,0,2,0,2,stim/objects/HouseObjects/basket.png,,0,stim/0.png,0,0,28,2020-12-04_19h37.34.314,premup-three_ses-02_part-03_label-phase3,3.2.4,Win32,60
1,right,1.825999975,,,0,,,0,,,1,0,200,119,1,199,0,2,0,2,stim/objects/HouseObjects/clock.png,,0,stim/0.png,0,0,28,2020-12-04_19h37.34.314,premup-three_ses-02_part-03_label-phase3,3.2.4,Win32,60
1,right,1.31400013,2,0.944000244,0,2,0.710999966,0,2,0.963000059,1,0,200,1,1,199,1,1,0.5,1,stim/objects/Instruments/harmonica3.png,stim/14.jpeg,1,stim/1.png,4,3,28,2020-12-04_19h37.34.314,premup-three_ses-02_part-03_label-phase3,3.2.4,Win32,60
1,right,1.046000242,2,0.95600009,0,3,0.563000202,0,1,0.738000154,1,0,200,64,1,199,3,1,0.1,1,stim/objects/Instruments/grandpiano4.png,stim/51.jpeg,5,stim/5.png,1,4,28,2020-12-04_19h37.34.314,premup-three_ses-02_part-03_label-phase3,3.2.4,Win32,60
1,right,0.986000061,,,0,,,0,,,1,0,200,161,1,199,0,1,0,2,stim/objects/Instruments/oboe.png,,0,stim/0.png,0,0,28,2020-12-04_19h37.34.314,premup-three_ses-02_part-03_label-phase3,3.2.4,Win32,60
1,right,0.827000141,4,0.986000061,0,3,0.72300005,0,2,0.727999926,1,0,200,90,1,199,3,2,0.1,1,stim/objects/HouseObjects/ironingboard4.png,stim/63.jpeg,6,stim/6.png,3,4,28,2020-12-04_19h37.34.314,premup-three_ses-02_part-03_label-phase3,3.2.4,Win32,60
1,right,2.86500001,,,0,,,0,,,1,0,200,129,1,199,0,1,0,2,stim/objects/Instruments/grandpiano.png,,0,stim/0.png,0,0,28,2020-12-04_19h37.34.314,premup-three_ses-02_part-03_label-phase3,3.2.4,Win32,60
1,left,1.298000097,3,0.86500001,0,2,0.487000227,0,1,0.005000114,1,0,200,66,1,199,3,1,0.1,1,stim/objects/Instruments/harmonica4.png,stim/53.jpeg,5,stim/5.png,3,3,28,2020-12-04_19h37.34.314,premup-three_ses-02_part-03_label-phase3,3.2.4,Win32,60
1,left,1.644000053,,,0,,,0,,,1,0,200,163,1,199,0,1,0,2,stim/objects/Instruments/vuvuzela.png,,0,stim/0.png,0,0,28,2020-12-04_19h37.34.314,premup-three_ses-02_part-03_label-phase3,3.2.4,Win32,60
1,left,0.860000134,,,0,,,0,,,1,0,200,120,1,199,0,1,0,2,stim/objects/Instruments/cymbal.png,,0,stim/0.png,0,0,28,2020-12-04_19h37.34.314,premup-three_ses-02_part-03_label-phase3,3.2.4,Win32,60
1,right,1.980000019,2,0.959000111,0,3,0.631000042,0,1,0.726999998,1,0,200,73,1,199,3,2,0.9,1,stim/objects/HouseObjects/garbagebin4.png,stim/52.jpeg,5,stim/5.png,2,1,28,2020-12-04_19h37.34.314,premup-three_ses-02_part-03_label-phase3,3.2.4,Win32,60
1,right,1.096999884,,,0,,,0,,,1,0,200,139,1,199,0,2,0,2,stim/objects/HouseObjects/glass.png,,0,stim/0.png,0,0,28,2020-12-04_19h37.34.314,premup-three_ses-02_part-03_label-phase3,3.2.4,Win32,60
1,left,3.368999958,,,0,,,0,,,1,0,200,116,1,199,0,2,0,2,stim/objects/HouseObjects/bottle.png,,0,stim/0.png,0,0,28,2020-12-04_19h37.34.314,premup-three_ses-02_part-03_label-phase3,3.2.4,Win32,60
1,right,0.920000076,3,1.127000093,0,3,1.715000153,0,2,1.369000196,1,0,200,56,1,199,2,2,0.3,1,stim/objects/HouseObjects/clothespin4.png,stim/44.jpeg,4,stim/4.png,4,4,28,2020-12-04_19h37.34.314,premup-three_ses-02_part-03_label-phase3,3.2.4,Win32,60
1,right,1.011000156,3,1.796000242,0,2,0.736999989,0,1,0.810000181,1,0,200,92,1,199,3,2,0.1,1,stim/objects/HouseObjects/knife4.png,stim/61.jpeg,6,stim/6.png,1,3,28,2020-12-04_19h37.34.314,premup-three_ses-02_part-03_label-phase3,3.2.4,Win32,60
1,left,0.996999979,,,0,,,0,,,1,0,200,150,1,199,0,2,0,2,stim/objects/HouseObjects/glassmop.png,,0,stim/0.png,0,0,28,2020-12-04_19h37.34.314,premup-three_ses-02_part-03_label-phase3,3.2.4,Win32,60
1,right,0.651000023,,,0,,,0,,,1,0,200,166,1,199,0,1,0,2,stim/objects/Instruments/acousticguitar2.png,,0,stim/0.png,0,0,28,2020-12-04_19h37.34.314,premup-three_ses-02_part-03_label-phase3,3.2.4,Win32,60
1,left,0.898000002,3,0.97300005,0,1,0.573000193,0,2,1.095000267,1,0,200,3,1,199,1,1,0.5,1,stim/objects/Instruments/hihat3.png,stim/12.jpeg,1,stim/1.png,2,3,28,2020-12-04_19h37.34.314,premup-three_ses-02_part-03_label-phase3,3.2.4,Win32,60
1,right,0.784000158,,,0,,,0,,,1,0,200,177,1,199,0,2,0,2,stim/objects/HouseObjects/barbecuelighter2.png,,0,stim/0.png,0,0,28,2020-12-04_19h37.34.314,premup-three_ses-02_part-03_label-phase3,3.2.4,Win32,60
1,right,1.319000006,,,0,,,0,,,1,0,200,111,1,199,0,2,0,2,stim/objects/HouseObjects/ballofstring.png,,0,stim/0.png,0,0,28,2020-12-04_19h37.34.314,premup-three_ses-02_part-03_label-phase3,3.2.4,Win32,60
1,right,0.910000086,3,1.110000134,0,3,0.881000042,0,1,0.781000137,1,0,200,44,1,199,2,1,0.7,1,stim/objects/Instruments/cornet4.png,stim/44.jpeg,4,stim/4.png,4,4,28,2020-12-04_19h37.34.314,premup-three_ses-02_part-03_label-phase3,3.2.4,Win32,60
1,right,1.166000128,,,0,,,0,,,1,0,200,130,1,199,0,2,0,2,stim/objects/HouseObjects/clothesdryingrack.png,,0,stim/0.png,0,0,28,2020-12-04_19h37.34.314,premup-three_ses-02_part-03_label-phase3,3.2.4,Win32,60
1,right,1.857000113,4,1.461000204,0,2,0.848999977,0,1,0.702000141,1,0,200,51,1,199,2,2,0.3,1,stim/objects/HouseObjects/bottle4.png,stim/43.jpeg,4,stim/4.png,3,3,28,2020-12-04_19h37.34.314,premup-three_ses-02_part-03_label-phase3,3.2.4,Win32,60
1,right,1.351000071,,,0,,,0,,,1,0,200,165,1,199,0,1,0,2,stim/objects/Instruments/accordion2.png,,0,stim/0.png,0,0,28,2020-12-04_19h37.34.314,premup-three_ses-02_part-03_label-phase3,3.2.4,Win32,60
1,right,0.878000021,,,0,,,0,,,1,0,200,196,1,199,0,2,0,2,stim/objects/HouseObjects/clothespin2.png,,0,stim/0.png,0,0,28,2020-12-04_19h37.34.314,premup-three_ses-02_part-03_label-phase3,3.2.4,Win32,60
1,right,0.763000011,,,0,,,0,,,1,0,200,121,1,199,0,1,0,2,stim/objects/Instruments/doublebass.png,,0,stim/0.png,0,0,28,2020-12-04_19h37.34.314,premup-three_ses-02_part-03_label-phase3,3.2.4,Win32,60
1,right,0.731000185,2,2.095000029,0,1,0.619000196,0,2,0.629000187,1,0,200,14,1,199,1,2,0.5,1,stim/objects/Instruments/musicsheet3.png,stim/21.jpeg,2,stim/2.png,1,1,28,2020-12-04_19h37.34.314,premup-three_ses-02_part-03_label-phase3,3.2.4,Win32,60
1,left,0.979000092,,,0,,,0,,,1,0,200,104,1,199,0,1,0,2,stim/objects/Instruments/bassdrum.png,,0,stim/0.png,0,0,28,2020-12-04_19h37.34.314,premup-three_ses-02_part-03_label-phase3,3.2.4,Win32,60
1,right,0.731000185,3,0.81400013,0,2,0.680000067,0,3,0.917000055,1,0,200,30,1,199,2,2,0.7,1,stim/objects/HouseObjects/pan3.png,stim/32.jpeg,3,stim/3.png,2,2,28,2020-12-04_19h37.34.314,premup-three_ses-02_part-03_label-phase3,3.2.4,Win32,60
1,left,1.241999865,,,0,,,0,,,1,0,200,125,1,199,0,1,0,2,stim/objects/Instruments/flute.png,,0,stim/0.png,0,0,28,2020-12-04_19h37.34.314,premup-three_ses-02_part-03_label-phase3,3.2.4,Win32,60
1,right,0.844000101,,,0,,,0,,,1,0,200,173,1,199,0,2,0,2,stim/objects/HouseObjects/vacuumcleaner.png,,0,stim/0.png,0,0,28,2020-12-04_19h37.34.314,premup-three_ses-02_part-03_label-phase3,3.2.4,Win32,60
1,right,0.980000019,3,1.174000263,0,1,0.632000208,0,1,0.779000044,1,0,200,21,1,199,2,1,0.3,1,stim/objects/Instruments/oboe3.png,stim/32.jpeg,3,stim/3.png,2,4,28,2020-12-04_19h37.34.314,premup-three_ses-02_part-03_label-phase3,3.2.4,Win32,60
1,right,0.995000124,3,0.946000099,0,2,0.828000069,0,4,1.86400032,1,0,200,69,1,199,3,1,0.1,1,stim/objects/Instruments/keyboard4.png,stim/52.jpeg,5,stim/5.png,2,4,28,2020-12-04_19h37.34.314,premup-three_ses-02_part-03_label-phase3,3.2.4,Win32,60
1,left,1.235000134,3,1.062000036,0,3,1.042999983,0,2,1.134000063,1,0,200,50,1,199,2,2,0.3,1,stim/objects/HouseObjects/blender4.png,stim/42.jpeg,4,stim/4.png,2,2,28,2020-12-04_19h37.34.314,premup-three_ses-02_part-03_label-phase3,3.2.4,Win32,60
1,left,1.087000132,,,0,,,0,,,1,0,200,164,1,199,0,1,0,2,stim/objects/Instruments/xylophone.png,,0,stim/0.png,0,0,28,2020-12-04_19h37.34.314,premup-three_ses-02_part-03_label-phase3,3.2.4,Win32,60
1,right,1.072000027,,,0,,,0,,,1,0,200,137,1,199,0,2,0,2,stim/objects/HouseObjects/flyswatter.png,,0,stim/0.png,0,0,28,2020-12-04_19h37.34.314,premup-three_ses-02_part-03_label-phase3,3.2.4,Win32,60
1,right,1.832999945,2,1.115000248,0,1,2.388000011,0,2,1.334000111,1,0,200,52,1,199,2,2,0.3,1,stim/objects/HouseObjects/broom4.png,stim/44.jpeg,4,stim/4.png,4,2,28,2020-12-04_19h37.34.314,premup-three_ses-02_part-03_label-phase3,3.2.4,Win32,60
1,right,0.776000023,3,0.93900013,0,2,0.491999865,0,2,1.481000185,1,0,200,77,1,199,3,2,0.9,1,stim/objects/HouseObjects/handbrush4.png,stim/52.jpeg,5,stim/5.png,2,1,28,2020-12-04_19h37.34.314,premup-three_ses-02_part-03_label-phase3,3.2.4,Win32,60
1,left,1.10800004,4,0.726000071,0,3,0.670000076,0,3,2.098999977,1,0,200,25,1,199,2,1,0.3,1,stim/objects/Instruments/accordion4.png,stim/32.jpeg,3,stim/3.png,2,4,28,2020-12-04_19h37.34.314,premup-three_ses-02_part-03_label-phase3,3.2.4,Win32,60
1,right,0.765000105,,,0,,,0,,,1,0,200,103,1,199,0,1,0,2,stim/objects/Instruments/banjo.png,,0,stim/0.png,0,0,28,2020-12-04_19h37.34.314,premup-three_ses-02_part-03_label-phase3,3.2.4,Win32,60
1,right,0.913000107,3,0.827000141,0,3,0.670000076,0,1,0.635000229,1,0,200,89,1,199,3,1,0.9,1,stim/objects/Instruments/xylophone4.png,stim/62.jpeg,6,stim/6.png,2,4,28,2020-12-04_19h37.34.314,premup-three_ses-02_part-03_label-phase3,3.2.4,Win32,60
