key_resp_trial.keys,key_resp_trial.rt,trial_acc,trial_index,iterations.thisRepN,iterations.thisTrialN,iterations.thisN,iterations.thisIndex,iterations.ran,iterations.order,task_innerloop.thisRepN,task_innerloop.thisTrialN,task_innerloop.thisN,task_innerloop.thisIndex,task_innerloop.ran,task_innerloop.order,scn_condition,scn_cat,scn_inst,scn_file,obj_cat,obj_cat_num,obj_file,trial_cond,quadrant,obj_x,obj_y,corr_ans,participant,date,expName,psychopyVersion,OS,frameRate,slider.response,slider.rt,slider_2.response,slider_2.rt,ratings.thisRepN,ratings.thisTrialN,ratings.thisN,ratings.thisIndex,ratings.ran,ratings.order,obj_cat_top,min_resp_top,max_resp_top,obj_cat_bottom,min_resp_bottom,max_resp_bottom,enc_trials.thisRepN,enc_trials.thisTrialN,enc_trials.thisN,enc_trials.thisIndex,enc_trials.ran,enc_trials.order,fillers,ratings_final.thisRepN,ratings_final.thisTrialN,ratings_final.thisN,ratings_final.thisIndex,ratings_final.ran,ratings_final.order
,,0,1,1,0,1,0,1,0,1,0,240,184,1,239,3,1,1,stim/11.jpeg,Instruments,2,stim/objects/Instruments/timbal2.png,0.9,1,-0.2,0.15,right,29,2020-12-05_10h53.08.914,premup-three_ses-02_part-02_label-phase2,3.2.4,Win32,60,,,,,,,,,,,,,,,,,,,,,,,,,,,,,
left,0.57799983,1,2,1,0,1,0,1,0,1,0,240,231,1,239,3,2,4,stim/24.jpeg,HouseObjects,1,stim/objects/HouseObjects/wateringcan2.png,0.9,1,-0.2,0.15,left,29,2020-12-05_10h53.08.914,premup-three_ses-02_part-02_label-phase2,3.2.4,Win32,60,,,,,,,,,,,,,,,,,,,,,,,,,,,,,
right,0.541000128,1,3,1,0,1,0,1,0,1,0,240,195,1,239,3,1,4,stim/14.jpeg,Instruments,2,stim/objects/Instruments/trumpet2.png,0.9,3,-0.2,-0.15,right,29,2020-12-05_10h53.08.914,premup-three_ses-02_part-02_label-phase2,3.2.4,Win32,60,,,,,,,,,,,,,,,,,,,,,,,,,,,,,
left,0.811000109,0,4,1,0,1,0,1,0,1,0,240,35,1,239,1,3,4,stim/34.jpeg,Instruments,2,stim/objects/Instruments/tambourine.png,0.5,2,0.2,0.15,right,29,2020-12-05_10h53.08.914,premup-three_ses-02_part-02_label-phase2,3.2.4,Win32,60,,,,,,,,,,,,,,,,,,,,,,,,,,,,,
right,0.734999895,1,5,1,0,1,0,1,0,1,0,240,23,1,239,1,3,4,stim/34.jpeg,Instruments,2,stim/objects/Instruments/tambourine.png,0.5,1,-0.2,0.15,right,29,2020-12-05_10h53.08.914,premup-three_ses-02_part-02_label-phase2,3.2.4,Win32,60,,,,,,,,,,,,,,,,,,,,,,,,,,,,,
left,0.519000053,1,6,1,0,1,0,1,0,1,0,240,216,1,239,3,2,1,stim/21.jpeg,HouseObjects,1,stim/objects/HouseObjects/thread2.png,0.9,2,0.2,0.15,left,29,2020-12-05_10h53.08.914,premup-three_ses-02_part-02_label-phase2,3.2.4,Win32,60,,,,,,,,,,,,,,,,,,,,,,,,,,,,,
right,0.5,1,7,1,0,1,0,1,0,1,0,240,174,1,239,3,1,3,stim/13.jpeg,Instruments,2,stim/objects/Instruments/trombone2.png,0.9,2,0.2,0.15,right,29,2020-12-05_10h53.08.914,premup-three_ses-02_part-02_label-phase2,3.2.4,Win32,60,,,,,,,,,,,,,,,,,,,,,,,,,,,,,
left,0.664000034,0,8,1,0,1,0,1,0,1,0,240,67,1,239,1,4,4,stim/44.jpeg,Instruments,2,stim/objects/Instruments/trumpet.png,0.5,3,-0.2,-0.15,right,29,2020-12-05_10h53.08.914,premup-three_ses-02_part-02_label-phase2,3.2.4,Win32,60,,,,,,,,,,,,,,,,,,,,,,,,,,,,,
right,0.528999805,1,9,1,0,1,0,1,0,1,0,240,176,1,239,3,1,1,stim/11.jpeg,Instruments,2,stim/objects/Instruments/timbal2.png,0.9,1,-0.2,0.15,right,29,2020-12-05_10h53.08.914,premup-three_ses-02_part-02_label-phase2,3.2.4,Win32,60,,,,,,,,,,,,,,,,,,,,,,,,,,,,,
left,0.629999876,1,10,1,0,1,0,1,0,1,0,240,17,1,239,1,3,2,stim/32.jpeg,HouseObjects,1,stim/objects/HouseObjects/safetypin.png,0.5,4,0.2,-0.15,left,29,2020-12-05_10h53.08.914,premup-three_ses-02_part-02_label-phase2,3.2.4,Win32,60,,,,,,,,,,,,,,,,,,,,,,,,,,,,,
right,0.701999903,0,11,1,0,1,0,1,0,1,0,240,82,1,239,2,5,3,stim/53.jpeg,HouseObjects,1,stim/objects/HouseObjects/vacuumcleaner.png,0.3,3,-0.2,-0.15,left,29,2020-12-05_10h53.08.914,premup-three_ses-02_part-02_label-phase2,3.2.4,Win32,60,,,,,,,,,,,,,,,,,,,,,,,,,,,,,
right,0.51699996,1,12,1,0,1,0,1,0,1,0,240,169,1,239,3,1,2,stim/12.jpeg,Instruments,2,stim/objects/Instruments/triangle2.png,0.9,1,-0.2,0.15,right,29,2020-12-05_10h53.08.914,premup-three_ses-02_part-02_label-phase2,3.2.4,Win32,60,,,,,,,,,,,,,,,,,,,,,,,,,,,,,
left,0.562000036,1,13,1,0,1,0,1,0,1,0,240,228,1,239,3,2,1,stim/21.jpeg,HouseObjects,1,stim/objects/HouseObjects/thread2.png,0.9,1,-0.2,0.15,left,29,2020-12-05_10h53.08.914,premup-three_ses-02_part-02_label-phase2,3.2.4,Win32,60,,,,,,,,,,,,,,,,,,,,,,,,,,,,,
left,0.802999973,1,14,1,0,1,0,1,0,1,0,240,52,1,239,1,4,1,stim/41.jpeg,HouseObjects,1,stim/objects/HouseObjects/sponge.png,0.5,3,-0.2,-0.15,left,29,2020-12-05_10h53.08.914,premup-three_ses-02_part-02_label-phase2,3.2.4,Win32,60,,,,,,,,,,,,,,,,,,,,,,,,,,,,,
,,0,15,1,0,1,0,1,0,1,0,240,13,1,239,1,3,2,stim/32.jpeg,HouseObjects,1,stim/objects/HouseObjects/safetypin.png,0.5,4,0.2,-0.15,left,29,2020-12-05_10h53.08.914,premup-three_ses-02_part-02_label-phase2,3.2.4,Win32,60,,,,,,,,,,,,,,,,,,,,,,,,,,,,,
,,0,16,1,0,1,0,1,0,1,0,240,141,1,239,2,6,2,stim/62.jpeg,HouseObjects,1,stim/objects/HouseObjects/safetypin2.png,0.7,1,-0.2,0.15,left,29,2020-12-05_10h53.08.914,premup-three_ses-02_part-02_label-phase2,3.2.4,Win32,60,,,,,,,,,,,,,,,,,,,,,,,,,,,,,
left,0.759000063,1,17,1,0,1,0,1,0,1,0,240,1,1,239,1,3,2,stim/32.jpeg,HouseObjects,1,stim/objects/HouseObjects/safetypin.png,0.5,1,-0.2,0.15,left,29,2020-12-05_10h53.08.914,premup-three_ses-02_part-02_label-phase2,3.2.4,Win32,60,,,,,,,,,,,,,,,,,,,,,,,,,,,,,
right,0.552999973,0,18,1,0,1,0,1,0,1,0,240,161,1,239,3,1,2,stim/12.jpeg,HouseObjects,1,stim/objects/HouseObjects/spraybottle2.png,0.1,3,-0.2,-0.15,left,29,2020-12-05_10h53.08.914,premup-three_ses-02_part-02_label-phase2,3.2.4,Win32,60,,,,,,,,,,,,,,,,,,,,,,,,,,,,,
left,0.525999784,1,19,1,0,1,0,1,0,1,0,240,121,1,239,2,6,2,stim/62.jpeg,HouseObjects,1,stim/objects/HouseObjects/safetypin2.png,0.7,3,-0.2,-0.15,left,29,2020-12-05_10h53.08.914,premup-three_ses-02_part-02_label-phase2,3.2.4,Win32,60,,,,,,,,,,,,,,,,,,,,,,,,,,,,,
left,0.494999886,1,20,1,0,1,0,1,0,1,0,240,218,1,239,3,2,3,stim/23.jpeg,HouseObjects,1,stim/objects/HouseObjects/vacuumcleaner2.png,0.9,1,-0.2,0.15,left,29,2020-12-05_10h53.08.914,premup-three_ses-02_part-02_label-phase2,3.2.4,Win32,60,,,,,,,,,,,,,,,,,,,,,,,,,,,,,
right,0.687999725,1,21,1,0,1,0,1,0,1,0,240,187,1,239,3,1,4,stim/14.jpeg,Instruments,2,stim/objects/Instruments/trumpet2.png,0.9,4,0.2,-0.15,right,29,2020-12-05_10h53.08.914,premup-three_ses-02_part-02_label-phase2,3.2.4,Win32,60,,,,,,,,,,,,,,,,,,,,,,,,,,,,,
left,0.548000097,1,22,1,0,1,0,1,0,1,0,240,125,1,239,2,6,2,stim/62.jpeg,HouseObjects,1,stim/objects/HouseObjects/safetypin2.png,0.7,4,0.2,-0.15,left,29,2020-12-05_10h53.08.914,premup-three_ses-02_part-02_label-phase2,3.2.4,Win32,60,,,,,,,,,,,,,,,,,,,,,,,,,,,,,
left,0.619999886,0,23,1,0,1,0,1,0,1,0,240,71,1,239,1,4,4,stim/44.jpeg,Instruments,2,stim/objects/Instruments/trumpet.png,0.5,3,-0.2,-0.15,right,29,2020-12-05_10h53.08.914,premup-three_ses-02_part-02_label-phase2,3.2.4,Win32,60,,,,,,,,,,,,,,,,,,,,,,,,,,,,,
,,0,24,1,0,1,0,1,0,1,0,240,127,1,239,2,6,4,stim/64.jpeg,HouseObjects,1,stim/objects/HouseObjects/scale2.png,0.7,3,-0.2,-0.15,left,29,2020-12-05_10h53.08.914,premup-three_ses-02_part-02_label-phase2,3.2.4,Win32,60,,,,,,,,,,,,,,,,,,,,,,,,,,,,,
,,0,25,1,0,1,0,1,0,1,0,240,97,1,239,2,5,2,stim/52.jpeg,Instruments,2,stim/objects/Instruments/violin.png,0.7,3,-0.2,-0.15,right,29,2020-12-05_10h53.08.914,premup-three_ses-02_part-02_label-phase2,3.2.4,Win32,60,,,,,,,,,,,,,,,,,,,,,,,,,,,,,
left,0.667999983,1,26,1,0,1,0,1,0,1,0,240,18,1,239,1,3,3,stim/33.jpeg,HouseObjects,1,stim/objects/HouseObjects/saw.png,0.5,3,-0.2,-0.15,left,29,2020-12-05_10h53.08.914,premup-three_ses-02_part-02_label-phase2,3.2.4,Win32,60,,,,,,,,,,,,,,,,,,,,,,,,,,,,,
right,0.687000036,1,27,1,0,1,0,1,0,1,0,240,101,1,239,2,5,2,stim/52.jpeg,Instruments,2,stim/objects/Instruments/violin.png,0.7,4,0.2,-0.15,right,29,2020-12-05_10h53.08.914,premup-three_ses-02_part-02_label-phase2,3.2.4,Win32,60,,,,,,,,,,,,,,,,,,,,,,,,,,,,,
left,0.461999893,1,28,1,0,1,0,1,0,1,0,240,234,1,239,3,2,3,stim/23.jpeg,HouseObjects,1,stim/objects/HouseObjects/vacuumcleaner2.png,0.9,3,-0.2,-0.15,left,29,2020-12-05_10h53.08.914,premup-three_ses-02_part-02_label-phase2,3.2.4,Win32,60,,,,,,,,,,,,,,,,,,,,,,,,,,,,,
left,0.589999914,0,29,1,0,1,0,1,0,1,0,240,156,1,239,2,6,1,stim/61.jpeg,Instruments,2,stim/objects/Instruments/record_player2.png,0.3,3,-0.2,-0.15,right,29,2020-12-05_10h53.08.914,premup-three_ses-02_part-02_label-phase2,3.2.4,Win32,60,,,,,,,,,,,,,,,,,,,,,,,,,,,,,
,,0,30,1,0,1,0,1,0,1,0,240,87,1,239,2,5,4,stim/54.jpeg,HouseObjects,1,stim/objects/HouseObjects/wateringcan.png,0.3,2,0.2,0.15,left,29,2020-12-05_10h53.08.914,premup-three_ses-02_part-02_label-phase2,3.2.4,Win32,60,,,,,,,,,,,,,,,,,,,,,,,,,,,,,
left,0.602999926,1,31,1,0,1,0,1,0,1,0,240,47,1,239,1,4,4,stim/44.jpeg,HouseObjects,1,stim/objects/HouseObjects/thermometer.png,0.5,3,-0.2,-0.15,left,29,2020-12-05_10h53.08.914,premup-three_ses-02_part-02_label-phase2,3.2.4,Win32,60,,,,,,,,,,,,,,,,,,,,,,,,,,,,,
left,0.494999886,1,32,1,0,1,0,1,0,1,0,240,207,1,239,3,2,4,stim/24.jpeg,HouseObjects,1,stim/objects/HouseObjects/wateringcan2.png,0.9,1,-0.2,0.15,left,29,2020-12-05_10h53.08.914,premup-three_ses-02_part-02_label-phase2,3.2.4,Win32,60,,,,,,,,,,,,,,,,,,,,,,,,,,,,,
left,0.562999964,0,33,1,0,1,0,1,0,1,0,240,62,1,239,1,4,3,stim/43.jpeg,Instruments,2,stim/objects/Instruments/trombone.png,0.5,4,0.2,-0.15,right,29,2020-12-05_10h53.08.914,premup-three_ses-02_part-02_label-phase2,3.2.4,Win32,60,,,,,,,,,,,,,,,,,,,,,,,,,,,,,
left,0.553999901,1,34,1,0,1,0,1,0,1,0,240,206,1,239,3,2,3,stim/23.jpeg,HouseObjects,1,stim/objects/HouseObjects/vacuumcleaner2.png,0.9,4,0.2,-0.15,left,29,2020-12-05_10h53.08.914,premup-three_ses-02_part-02_label-phase2,3.2.4,Win32,60,,,,,,,,,,,,,,,,,,,,,,,,,,,,,
left,0.562999964,1,35,1,0,1,0,1,0,1,0,240,58,1,239,1,4,3,stim/43.jpeg,HouseObjects,1,stim/objects/HouseObjects/teapot.png,0.5,4,0.2,-0.15,left,29,2020-12-05_10h53.08.914,premup-three_ses-02_part-02_label-phase2,3.2.4,Win32,60,,,,,,,,,,,,,,,,,,,,,,,,,,,,,
left,0.529000044,1,36,1,0,1,0,1,0,1,0,240,230,1,239,3,2,3,stim/23.jpeg,HouseObjects,1,stim/objects/HouseObjects/vacuumcleaner2.png,0.9,2,0.2,0.15,left,29,2020-12-05_10h53.08.914,premup-three_ses-02_part-02_label-phase2,3.2.4,Win32,60,,,,,,,,,,,,,,,,,,,,,,,,,,,,,
right,0.629999876,0,37,1,0,1,0,1,0,1,0,240,86,1,239,2,5,3,stim/53.jpeg,HouseObjects,1,stim/objects/HouseObjects/vacuumcleaner.png,0.3,4,0.2,-0.15,left,29,2020-12-05_10h53.08.914,premup-three_ses-02_part-02_label-phase2,3.2.4,Win32,60,,,,,,,,,,,,,,,,,,,,,,,,,,,,,
left,0.458999872,1,38,1,0,1,0,1,0,1,0,240,133,1,239,2,6,2,stim/62.jpeg,HouseObjects,1,stim/objects/HouseObjects/safetypin2.png,0.7,3,-0.2,-0.15,left,29,2020-12-05_10h53.08.914,premup-three_ses-02_part-02_label-phase2,3.2.4,Win32,60,,,,,,,,,,,,,,,,,,,,,,,,,,,,,
left,0.512999773,1,39,1,0,1,0,1,0,1,0,240,210,1,239,3,2,3,stim/23.jpeg,HouseObjects,1,stim/objects/HouseObjects/vacuumcleaner2.png,0.9,4,0.2,-0.15,left,29,2020-12-05_10h53.08.914,premup-three_ses-02_part-02_label-phase2,3.2.4,Win32,60,,,,,,,,,,,,,,,,,,,,,,,,,,,,,
right,0.514999866,1,40,1,0,1,0,1,0,1,0,240,186,1,239,3,1,3,stim/13.jpeg,Instruments,2,stim/objects/Instruments/trombone2.png,0.9,3,-0.2,-0.15,right,29,2020-12-05_10h53.08.914,premup-three_ses-02_part-02_label-phase2,3.2.4,Win32,60,,,,,,,,,,,,,,,,,,,,,,,,,,,,,
left,0.542999983,1,41,1,0,1,0,1,0,1,0,240,41,1,239,1,4,2,stim/42.jpeg,HouseObjects,1,stim/objects/HouseObjects/spraybottle.png,0.5,2,0.2,0.15,left,29,2020-12-05_10h53.08.914,premup-three_ses-02_part-02_label-phase2,3.2.4,Win32,60,,,,,,,,,,,,,,,,,,,,,,,,,,,,,
left,0.565999985,0,42,1,0,1,0,1,0,1,0,240,149,1,239,2,6,2,stim/62.jpeg,Instruments,2,stim/objects/Instruments/saxophone2.png,0.3,4,0.2,-0.15,right,29,2020-12-05_10h53.08.914,premup-three_ses-02_part-02_label-phase2,3.2.4,Win32,60,,,,,,,,,,,,,,,,,,,,,,,,,,,,,
left,0.569999933,1,43,1,0,1,0,1,0,1,0,240,212,1,239,3,2,1,stim/21.jpeg,HouseObjects,1,stim/objects/HouseObjects/thread2.png,0.9,2,0.2,0.15,left,29,2020-12-05_10h53.08.914,premup-three_ses-02_part-02_label-phase2,3.2.4,Win32,60,,,,,,,,,,,,,,,,,,,,,,,,,,,,,
left,0.545999765,1,44,1,0,1,0,1,0,1,0,240,54,1,239,1,4,3,stim/43.jpeg,HouseObjects,1,stim/objects/HouseObjects/teapot.png,0.5,4,0.2,-0.15,left,29,2020-12-05_10h53.08.914,premup-three_ses-02_part-02_label-phase2,3.2.4,Win32,60,,,,,,,,,,,,,,,,,,,,,,,,,,,,,
left,0.444999933,0,45,1,0,1,0,1,0,1,0,240,157,1,239,2,6,2,stim/62.jpeg,Instruments,2,stim/objects/Instruments/saxophone2.png,0.3,3,-0.2,-0.15,right,29,2020-12-05_10h53.08.914,premup-three_ses-02_part-02_label-phase2,3.2.4,Win32,60,,,,,,,,,,,,,,,,,,,,,,,,,,,,,
left,0.5,0,46,1,0,1,0,1,0,1,0,240,154,1,239,2,6,3,stim/63.jpeg,Instruments,2,stim/objects/Instruments/speaker2.png,0.3,4,0.2,-0.15,right,29,2020-12-05_10h53.08.914,premup-three_ses-02_part-02_label-phase2,3.2.4,Win32,60,,,,,,,,,,,,,,,,,,,,,,,,,,,,,
,,0,47,1,0,1,0,1,0,1,0,240,21,1,239,1,3,2,stim/32.jpeg,Instruments,2,stim/objects/Instruments/saxophone.png,0.5,1,-0.2,0.15,right,29,2020-12-05_10h53.08.914,premup-three_ses-02_part-02_label-phase2,3.2.4,Win32,60,,,,,,,,,,,,,,,,,,,,,,,,,,,,,
left,0.530999899,0,48,1,0,1,0,1,0,1,0,240,148,1,239,2,6,1,stim/61.jpeg,Instruments,2,stim/objects/Instruments/record_player2.png,0.3,1,-0.2,0.15,right,29,2020-12-05_10h53.08.914,premup-three_ses-02_part-02_label-phase2,3.2.4,Win32,60,,,,,,,,,,,,,,,,,,,,,,,,,,,,,
left,0.565999746,1,49,1,0,1,0,1,0,1,0,240,16,1,239,1,3,1,stim/31.jpeg,HouseObjects,1,stim/objects/HouseObjects/rug.png,0.5,1,-0.2,0.15,left,29,2020-12-05_10h53.08.914,premup-three_ses-02_part-02_label-phase2,3.2.4,Win32,60,,,,,,,,,,,,,,,,,,,,,,,,,,,,,
right,0.756999969,0,50,1,0,1,0,1,0,1,0,240,88,1,239,2,5,1,stim/51.jpeg,HouseObjects,1,stim/objects/HouseObjects/thread.png,0.3,2,0.2,0.15,left,29,2020-12-05_10h53.08.914,premup-three_ses-02_part-02_label-phase2,3.2.4,Win32,60,,,,,,,,,,,,,,,,,,,,,,,,,,,,,
left,0.565000057,1,51,1,0,1,0,1,0,1,0,240,126,1,239,2,6,3,stim/63.jpeg,HouseObjects,1,stim/objects/HouseObjects/saw2.png,0.7,4,0.2,-0.15,left,29,2020-12-05_10h53.08.914,premup-three_ses-02_part-02_label-phase2,3.2.4,Win32,60,,,,,,,,,,,,,,,,,,,,,,,,,,,,,
left,0.523000002,0,52,1,0,1,0,1,0,1,0,240,170,1,239,3,1,3,stim/13.jpeg,Instruments,2,stim/objects/Instruments/trombone2.png,0.9,2,0.2,0.15,right,29,2020-12-05_10h53.08.914,premup-three_ses-02_part-02_label-phase2,3.2.4,Win32,60,,,,,,,,,,,,,,,,,,,,,,,,,,,,,
right,0.394999981,0,53,1,0,1,0,1,0,1,0,240,162,1,239,3,1,3,stim/13.jpeg,HouseObjects,1,stim/objects/HouseObjects/teapot2.png,0.1,1,-0.2,0.15,left,29,2020-12-05_10h53.08.914,premup-three_ses-02_part-02_label-phase2,3.2.4,Win32,60,,,,,,,,,,,,,,,,,,,,,,,,,,,,,
left,0.516000032,0,54,1,0,1,0,1,0,1,0,240,159,1,239,2,6,4,stim/64.jpeg,Instruments,2,stim/objects/Instruments/tambourine2.png,0.3,4,0.2,-0.15,right,29,2020-12-05_10h53.08.914,premup-three_ses-02_part-02_label-phase2,3.2.4,Win32,60,,,,,,,,,,,,,,,,,,,,,,,,,,,,,
left,0.509999752,1,55,1,0,1,0,1,0,1,0,240,142,1,239,2,6,3,stim/63.jpeg,HouseObjects,1,stim/objects/HouseObjects/saw2.png,0.7,3,-0.2,-0.15,left,29,2020-12-05_10h53.08.914,premup-three_ses-02_part-02_label-phase2,3.2.4,Win32,60,,,,,,,,,,,,,,,,,,,,,,,,,,,,,
left,0.520999908,0,56,1,0,1,0,1,0,1,0,240,66,1,239,1,4,3,stim/43.jpeg,Instruments,2,stim/objects/Instruments/trombone.png,0.5,4,0.2,-0.15,right,29,2020-12-05_10h53.08.914,premup-three_ses-02_part-02_label-phase2,3.2.4,Win32,60,,,,,,,,,,,,,,,,,,,,,,,,,,,,,
left,0.588000059,0,57,1,0,1,0,1,0,1,0,240,73,1,239,1,4,2,stim/42.jpeg,Instruments,2,stim/objects/Instruments/triangle.png,0.5,2,0.2,0.15,right,29,2020-12-05_10h53.08.914,premup-three_ses-02_part-02_label-phase2,3.2.4,Win32,60,,,,,,,,,,,,,,,,,,,,,,,,,,,,,
left,0.541000128,1,58,1,0,1,0,1,0,1,0,240,219,1,239,3,2,4,stim/24.jpeg,HouseObjects,1,stim/objects/HouseObjects/wateringcan2.png,0.9,2,0.2,0.15,left,29,2020-12-05_10h53.08.914,premup-three_ses-02_part-02_label-phase2,3.2.4,Win32,60,,,,,,,,,,,,,,,,,,,,,,,,,,,,,
left,0.542999983,1,59,1,0,1,0,1,0,1,0,240,204,1,239,3,2,1,stim/21.jpeg,HouseObjects,1,stim/objects/HouseObjects/thread2.png,0.9,4,0.2,-0.15,left,29,2020-12-05_10h53.08.914,premup-three_ses-02_part-02_label-phase2,3.2.4,Win32,60,,,,,,,,,,,,,,,,,,,,,,,,,,,,,
right,0.614999771,1,60,1,0,1,0,1,0,1,0,240,111,1,239,2,5,4,stim/54.jpeg,Instruments,2,stim/objects/Instruments/xylophone.png,0.7,4,0.2,-0.15,right,29,2020-12-05_10h53.08.914,premup-three_ses-02_part-02_label-phase2,3.2.4,Win32,60,,,,,,,,,,,,,,,,,,,,,,,,,,,,,
right,0.404999971,1,61,1,0,1,0,1,0,1,0,240,94,1,239,2,5,3,stim/53.jpeg,Instruments,2,stim/objects/Instruments/vuvuzela.png,0.7,2,0.2,0.15,right,29,2020-12-05_10h53.08.914,premup-three_ses-02_part-02_label-phase2,3.2.4,Win32,60,,,,,,,,,,,,,,,,,,,,,,,,,,,,,
right,0.664999962,1,62,1,0,1,0,1,0,1,0,240,178,1,239,3,1,3,stim/13.jpeg,Instruments,2,stim/objects/Instruments/trombone2.png,0.9,2,0.2,0.15,right,29,2020-12-05_10h53.08.914,premup-three_ses-02_part-02_label-phase2,3.2.4,Win32,60,,,,,,,,,,,,,,,,,,,,,,,,,,,,,
left,0.508999825,1,63,1,0,1,0,1,0,1,0,240,138,1,239,2,6,3,stim/63.jpeg,HouseObjects,1,stim/objects/HouseObjects/saw2.png,0.7,3,-0.2,-0.15,left,29,2020-12-05_10h53.08.914,premup-three_ses-02_part-02_label-phase2,3.2.4,Win32,60,,,,,,,,,,,,,,,,,,,,,,,,,,,,,
,,0,64,1,0,1,0,1,0,1,0,240,98,1,239,2,5,3,stim/53.jpeg,Instruments,2,stim/objects/Instruments/vuvuzela.png,0.7,1,-0.2,0.15,right,29,2020-12-05_10h53.08.914,premup-three_ses-02_part-02_label-phase2,3.2.4,Win32,60,,,,,,,,,,,,,,,,,,,,,,,,,,,,,
left,0.549000025,0,65,1,0,1,0,1,0,1,0,240,70,1,239,1,4,3,stim/43.jpeg,Instruments,2,stim/objects/Instruments/trombone.png,0.5,3,-0.2,-0.15,right,29,2020-12-05_10h53.08.914,premup-three_ses-02_part-02_label-phase2,3.2.4,Win32,60,,,,,,,,,,,,,,,,,,,,,,,,,,,,,
right,0.475999832,0,66,1,0,1,0,1,0,1,0,240,215,1,239,3,2,4,stim/24.jpeg,HouseObjects,1,stim/objects/HouseObjects/wateringcan2.png,0.9,2,0.2,0.15,left,29,2020-12-05_10h53.08.914,premup-three_ses-02_part-02_label-phase2,3.2.4,Win32,60,,,,,,,,,,,,,,,,,,,,,,,,,,,,,
right,0.751999855,0,67,1,0,1,0,1,0,1,0,240,4,1,239,1,3,1,stim/31.jpeg,HouseObjects,1,stim/objects/HouseObjects/rug.png,0.5,3,-0.2,-0.15,left,29,2020-12-05_10h53.08.914,premup-three_ses-02_part-02_label-phase2,3.2.4,Win32,60,,,,,,,,,,,,,,,,,,,,,,,,,,,,,
left,0.614000082,0,68,1,0,1,0,1,0,1,0,240,236,1,239,3,2,1,stim/21.jpeg,Instruments,2,stim/objects/Instruments/tuba2.png,0.1,1,-0.2,0.15,right,29,2020-12-05_10h53.08.914,premup-three_ses-02_part-02_label-phase2,3.2.4,Win32,60,,,,,,,,,,,,,,,,,,,,,,,,,,,,,
,,0,69,1,0,1,0,1,0,1,0,240,2,1,239,1,3,3,stim/33.jpeg,HouseObjects,1,stim/objects/HouseObjects/saw.png,0.5,3,-0.2,-0.15,left,29,2020-12-05_10h53.08.914,premup-three_ses-02_part-02_label-phase2,3.2.4,Win32,60,,,,,,,,,,,,,,,,,,,,,,,,,,,,,
left,0.623000145,0,70,1,0,1,0,1,0,1,0,240,68,1,239,1,4,1,stim/41.jpeg,Instruments,2,stim/objects/Instruments/timbal.png,0.5,2,0.2,0.15,right,29,2020-12-05_10h53.08.914,premup-three_ses-02_part-02_label-phase2,3.2.4,Win32,60,,,,,,,,,,,,,,,,,,,,,,,,,,,,,
left,0.703000069,0,71,1,0,1,0,1,0,1,0,240,155,1,239,2,6,4,stim/64.jpeg,Instruments,2,stim/objects/Instruments/tambourine2.png,0.3,1,-0.2,0.15,right,29,2020-12-05_10h53.08.914,premup-three_ses-02_part-02_label-phase2,3.2.4,Win32,60,,,,,,,,,,,,,,,,,,,,,,,,,,,,,
right,0.745000124,1,72,1,0,1,0,1,0,1,0,240,92,1,239,2,5,1,stim/51.jpeg,Instruments,2,stim/objects/Instruments/tuba.png,0.7,1,-0.2,0.15,right,29,2020-12-05_10h53.08.914,premup-three_ses-02_part-02_label-phase2,3.2.4,Win32,60,,,,,,,,,,,,,,,,,,,,,,,,,,,,,
right,0.409999847,0,73,1,0,1,0,1,0,1,0,240,85,1,239,2,5,2,stim/52.jpeg,HouseObjects,1,stim/objects/HouseObjects/towel.png,0.3,1,-0.2,0.15,left,29,2020-12-05_10h53.08.914,premup-three_ses-02_part-02_label-phase2,3.2.4,Win32,60,,,,,,,,,,,,,,,,,,,,,,,,,,,,,
left,0.527999878,1,74,1,0,1,0,1,0,1,0,240,233,1,239,3,2,2,stim/22.jpeg,HouseObjects,1,stim/objects/HouseObjects/towel2.png,0.9,2,0.2,0.15,left,29,2020-12-05_10h53.08.914,premup-three_ses-02_part-02_label-phase2,3.2.4,Win32,60,,,,,,,,,,,,,,,,,,,,,,,,,,,,,
left,0.551000118,1,75,1,0,1,0,1,0,1,0,240,225,1,239,3,2,2,stim/22.jpeg,HouseObjects,1,stim/objects/HouseObjects/towel2.png,0.9,1,-0.2,0.15,left,29,2020-12-05_10h53.08.914,premup-three_ses-02_part-02_label-phase2,3.2.4,Win32,60,,,,,,,,,,,,,,,,,,,,,,,,,,,,,
left,0.534999847,1,76,1,0,1,0,1,0,1,0,240,122,1,239,2,6,3,stim/63.jpeg,HouseObjects,1,stim/objects/HouseObjects/saw2.png,0.7,3,-0.2,-0.15,left,29,2020-12-05_10h53.08.914,premup-three_ses-02_part-02_label-phase2,3.2.4,Win32,60,,,,,,,,,,,,,,,,,,,,,,,,,,,,,
left,0.541999817,1,77,1,0,1,0,1,0,1,0,240,132,1,239,2,6,1,stim/61.jpeg,HouseObjects,1,stim/objects/HouseObjects/rug2.png,0.7,2,0.2,0.15,left,29,2020-12-05_10h53.08.914,premup-three_ses-02_part-02_label-phase2,3.2.4,Win32,60,,,,,,,,,,,,,,,,,,,,,,,,,,,,,
right,0.69299984,1,78,1,0,1,0,1,0,1,0,240,113,1,239,2,5,2,stim/52.jpeg,Instruments,2,stim/objects/Instruments/violin.png,0.7,2,0.2,0.15,right,29,2020-12-05_10h53.08.914,premup-three_ses-02_part-02_label-phase2,3.2.4,Win32,60,,,,,,,,,,,,,,,,,,,,,,,,,,,,,
right,0.687000036,1,79,1,0,1,0,1,0,1,0,240,115,1,239,2,5,4,stim/54.jpeg,Instruments,2,stim/objects/Instruments/xylophone.png,0.7,1,-0.2,0.15,right,29,2020-12-05_10h53.08.914,premup-three_ses-02_part-02_label-phase2,3.2.4,Win32,60,,,,,,,,,,,,,,,,,,,,,,,,,,,,,
left,0.56799984,1,80,1,0,1,0,1,0,1,0,240,224,1,239,3,2,1,stim/21.jpeg,HouseObjects,1,stim/objects/HouseObjects/thread2.png,0.9,4,0.2,-0.15,left,29,2020-12-05_10h53.08.914,premup-three_ses-02_part-02_label-phase2,3.2.4,Win32,60,,,,,,,,,,,,,,,,,,,,,,,,,,,,,
left,0.490999937,1,81,1,0,1,0,1,0,1,0,240,130,1,239,2,6,3,stim/63.jpeg,HouseObjects,1,stim/objects/HouseObjects/saw2.png,0.7,2,0.2,0.15,left,29,2020-12-05_10h53.08.914,premup-three_ses-02_part-02_label-phase2,3.2.4,Win32,60,,,,,,,,,,,,,,,,,,,,,,,,,,,,,
left,0.597000122,1,82,1,0,1,0,1,0,1,0,240,44,1,239,1,4,1,stim/41.jpeg,HouseObjects,1,stim/objects/HouseObjects/sponge.png,0.5,4,0.2,-0.15,left,29,2020-12-05_10h53.08.914,premup-three_ses-02_part-02_label-phase2,3.2.4,Win32,60,,,,,,,,,,,,,,,,,,,,,,,,,,,,,
left,0.459000111,0,83,1,0,1,0,1,0,1,0,240,64,1,239,1,4,1,stim/41.jpeg,Instruments,2,stim/objects/Instruments/timbal.png,0.5,2,0.2,0.15,right,29,2020-12-05_10h53.08.914,premup-three_ses-02_part-02_label-phase2,3.2.4,Win32,60,,,,,,,,,,,,,,,,,,,,,,,,,,,,,
,,0,84,1,0,1,0,1,0,1,0,240,119,1,239,2,5,4,stim/54.jpeg,Instruments,2,stim/objects/Instruments/xylophone.png,0.7,1,-0.2,0.15,right,29,2020-12-05_10h53.08.914,premup-three_ses-02_part-02_label-phase2,3.2.4,Win32,60,,,,,,,,,,,,,,,,,,,,,,,,,,,,,
right,0.638000011,0,85,1,0,1,0,1,0,1,0,240,8,1,239,1,3,1,stim/31.jpeg,HouseObjects,1,stim/objects/HouseObjects/rug.png,0.5,2,0.2,0.15,left,29,2020-12-05_10h53.08.914,premup-three_ses-02_part-02_label-phase2,3.2.4,Win32,60,,,,,,,,,,,,,,,,,,,,,,,,,,,,,
right,0.619999886,1,86,1,0,1,0,1,0,1,0,240,181,1,239,3,1,2,stim/12.jpeg,Instruments,2,stim/objects/Instruments/triangle2.png,0.9,3,-0.2,-0.15,right,29,2020-12-05_10h53.08.914,premup-three_ses-02_part-02_label-phase2,3.2.4,Win32,60,,,,,,,,,,,,,,,,,,,,,,,,,,,,,
,,0,87,1,0,1,0,1,0,1,0,240,63,1,239,1,4,4,stim/44.jpeg,Instruments,2,stim/objects/Instruments/trumpet.png,0.5,1,-0.2,0.15,right,29,2020-12-05_10h53.08.914,premup-three_ses-02_part-02_label-phase2,3.2.4,Win32,60,,,,,,,,,,,,,,,,,,,,,,,,,,,,,
right,0.704999924,0,88,1,0,1,0,1,0,1,0,240,84,1,239,2,5,1,stim/51.jpeg,HouseObjects,1,stim/objects/HouseObjects/thread.png,0.3,4,0.2,-0.15,left,29,2020-12-05_10h53.08.914,premup-three_ses-02_part-02_label-phase2,3.2.4,Win32,60,,,,,,,,,,,,,,,,,,,,,,,,,,,,,
left,0.538999796,1,89,1,0,1,0,1,0,1,0,240,227,1,239,3,2,4,stim/24.jpeg,HouseObjects,1,stim/objects/HouseObjects/wateringcan2.png,0.9,4,0.2,-0.15,left,29,2020-12-05_10h53.08.914,premup-three_ses-02_part-02_label-phase2,3.2.4,Win32,60,,,,,,,,,,,,,,,,,,,,,,,,,,,,,
left,0.373000145,1,90,1,0,1,0,1,0,1,0,240,223,1,239,3,2,4,stim/24.jpeg,HouseObjects,1,stim/objects/HouseObjects/wateringcan2.png,0.9,4,0.2,-0.15,left,29,2020-12-05_10h53.08.914,premup-three_ses-02_part-02_label-phase2,3.2.4,Win32,60,,,,,,,,,,,,,,,,,,,,,,,,,,,,,
left,0.505999804,1,91,1,0,1,0,1,0,1,0,240,120,1,239,2,6,1,stim/61.jpeg,HouseObjects,1,stim/objects/HouseObjects/rug2.png,0.7,3,-0.2,-0.15,left,29,2020-12-05_10h53.08.914,premup-three_ses-02_part-02_label-phase2,3.2.4,Win32,60,,,,,,,,,,,,,,,,,,,,,,,,,,,,,
left,0.461999893,1,92,1,0,1,0,1,0,1,0,240,0,1,239,1,3,1,stim/31.jpeg,HouseObjects,1,stim/objects/HouseObjects/rug.png,0.5,3,-0.2,-0.15,left,29,2020-12-05_10h53.08.914,premup-three_ses-02_part-02_label-phase2,3.2.4,Win32,60,,,,,,,,,,,,,,,,,,,,,,,,,,,,,
left,0.648999929,0,93,1,0,1,0,1,0,1,0,240,65,1,239,1,4,2,stim/42.jpeg,Instruments,2,stim/objects/Instruments/triangle.png,0.5,1,-0.2,0.15,right,29,2020-12-05_10h53.08.914,premup-three_ses-02_part-02_label-phase2,3.2.4,Win32,60,,,,,,,,,,,,,,,,,,,,,,,,,,,,,
right,0.629999876,1,94,1,0,1,0,1,0,1,0,240,104,1,239,2,5,1,stim/51.jpeg,Instruments,2,stim/objects/Instruments/tuba.png,0.7,2,0.2,0.15,right,29,2020-12-05_10h53.08.914,premup-three_ses-02_part-02_label-phase2,3.2.4,Win32,60,,,,,,,,,,,,,,,,,,,,,,,,,,,,,
,,0,95,1,0,1,0,1,0,1,0,240,93,1,239,2,5,2,stim/52.jpeg,Instruments,2,stim/objects/Instruments/violin.png,0.7,3,-0.2,-0.15,right,29,2020-12-05_10h53.08.914,premup-three_ses-02_part-02_label-phase2,3.2.4,Win32,60,,,,,,,,,,,,,,,,,,,,,,,,,,,,,
right,0.451999903,0,96,1,0,1,0,1,0,1,0,240,89,1,239,2,5,2,stim/52.jpeg,HouseObjects,1,stim/objects/HouseObjects/towel.png,0.3,2,0.2,0.15,left,29,2020-12-05_10h53.08.914,premup-three_ses-02_part-02_label-phase2,3.2.4,Win32,60,,,,,,,,,,,,,,,,,,,,,,,,,,,,,
right,0.602999926,0,97,1,0,1,0,1,0,1,0,240,163,1,239,3,1,4,stim/14.jpeg,HouseObjects,1,stim/objects/HouseObjects/thermometer2.png,0.1,3,-0.2,-0.15,left,29,2020-12-05_10h53.08.914,premup-three_ses-02_part-02_label-phase2,3.2.4,Win32,60,,,,,,,,,,,,,,,,,,,,,,,,,,,,,
left,0.622999907,0,98,1,0,1,0,1,0,1,0,240,37,1,239,1,3,2,stim/32.jpeg,Instruments,2,stim/objects/Instruments/saxophone.png,0.5,1,-0.2,0.15,right,29,2020-12-05_10h53.08.914,premup-three_ses-02_part-02_label-phase2,3.2.4,Win32,60,,,,,,,,,,,,,,,,,,,,,,,,,,,,,
right,0.480000019,1,99,1,0,1,0,1,0,1,0,240,106,1,239,2,5,3,stim/53.jpeg,Instruments,2,stim/objects/Instruments/vuvuzela.png,0.7,4,0.2,-0.15,right,29,2020-12-05_10h53.08.914,premup-three_ses-02_part-02_label-phase2,3.2.4,Win32,60,,,,,,,,,,,,,,,,,,,,,,,,,,,,,
left,0.638999939,1,100,1,0,1,0,1,0,1,0,240,135,1,239,2,6,4,stim/64.jpeg,HouseObjects,1,stim/objects/HouseObjects/scale2.png,0.7,4,0.2,-0.15,left,29,2020-12-05_10h53.08.914,premup-three_ses-02_part-02_label-phase2,3.2.4,Win32,60,,,,,,,,,,,,,,,,,,,,,,,,,,,,,
left,0.773999929,0,101,1,0,1,0,1,0,1,0,240,74,1,239,1,4,3,stim/43.jpeg,Instruments,2,stim/objects/Instruments/trombone.png,0.5,3,-0.2,-0.15,right,29,2020-12-05_10h53.08.914,premup-three_ses-02_part-02_label-phase2,3.2.4,Win32,60,,,,,,,,,,,,,,,,,,,,,,,,,,,,,
,,0,102,1,0,1,0,1,0,1,0,240,6,1,239,1,3,3,stim/33.jpeg,HouseObjects,1,stim/objects/HouseObjects/saw.png,0.5,2,0.2,0.15,left,29,2020-12-05_10h53.08.914,premup-three_ses-02_part-02_label-phase2,3.2.4,Win32,60,,,,,,,,,,,,,,,,,,,,,,,,,,,,,
right,0.681999922,1,103,1,0,1,0,1,0,1,0,240,172,1,239,3,1,1,stim/11.jpeg,Instruments,2,stim/objects/Instruments/timbal2.png,0.9,4,0.2,-0.15,right,29,2020-12-05_10h53.08.914,premup-three_ses-02_part-02_label-phase2,3.2.4,Win32,60,,,,,,,,,,,,,,,,,,,,,,,,,,,,,
left,0.563999891,1,104,1,0,1,0,1,0,1,0,240,208,1,239,3,2,1,stim/21.jpeg,HouseObjects,1,stim/objects/HouseObjects/thread2.png,0.9,2,0.2,0.15,left,29,2020-12-05_10h53.08.914,premup-three_ses-02_part-02_label-phase2,3.2.4,Win32,60,,,,,,,,,,,,,,,,,,,,,,,,,,,,,
right,0.802999973,1,105,1,0,1,0,1,0,1,0,240,28,1,239,1,3,1,stim/31.jpeg,Instruments,2,stim/objects/Instruments/record_player.png,0.5,2,0.2,0.15,right,29,2020-12-05_10h53.08.914,premup-three_ses-02_part-02_label-phase2,3.2.4,Win32,60,,,,,,,,,,,,,,,,,,,,,,,,,,,,,
left,0.470999956,1,106,1,0,1,0,1,0,1,0,240,229,1,239,3,2,2,stim/22.jpeg,HouseObjects,1,stim/objects/HouseObjects/towel2.png,0.9,3,-0.2,-0.15,left,29,2020-12-05_10h53.08.914,premup-three_ses-02_part-02_label-phase2,3.2.4,Win32,60,,,,,,,,,,,,,,,,,,,,,,,,,,,,,
right,0.528999805,1,107,1,0,1,0,1,0,1,0,240,171,1,239,3,1,4,stim/14.jpeg,Instruments,2,stim/objects/Instruments/trumpet2.png,0.9,2,0.2,0.15,right,29,2020-12-05_10h53.08.914,premup-three_ses-02_part-02_label-phase2,3.2.4,Win32,60,,,,,,,,,,,,,,,,,,,,,,,,,,,,,
left,0.601000071,1,108,1,0,1,0,1,0,1,0,240,46,1,239,1,4,3,stim/43.jpeg,HouseObjects,1,stim/objects/HouseObjects/teapot.png,0.5,2,0.2,0.15,left,29,2020-12-05_10h53.08.914,premup-three_ses-02_part-02_label-phase2,3.2.4,Win32,60,,,,,,,,,,,,,,,,,,,,,,,,,,,,,
right,0.574999809,1,109,1,0,1,0,1,0,1,0,240,22,1,239,1,3,3,stim/33.jpeg,Instruments,2,stim/objects/Instruments/speaker.png,0.5,3,-0.2,-0.15,right,29,2020-12-05_10h53.08.914,premup-three_ses-02_part-02_label-phase2,3.2.4,Win32,60,,,,,,,,,,,,,,,,,,,,,,,,,,,,,
left,0.662999868,0,110,1,0,1,0,1,0,1,0,240,79,1,239,1,4,4,stim/44.jpeg,Instruments,2,stim/objects/Instruments/trumpet.png,0.5,4,0.2,-0.15,right,29,2020-12-05_10h53.08.914,premup-three_ses-02_part-02_label-phase2,3.2.4,Win32,60,,,,,,,,,,,,,,,,,,,,,,,,,,,,,
,,0,111,1,0,1,0,1,0,1,0,240,60,1,239,1,4,1,stim/41.jpeg,Instruments,2,stim/objects/Instruments/timbal.png,0.5,4,0.2,-0.15,right,29,2020-12-05_10h53.08.914,premup-three_ses-02_part-02_label-phase2,3.2.4,Win32,60,,,,,,,,,,,,,,,,,,,,,,,,,,,,,
left,0.585000038,1,112,1,0,1,0,1,0,1,0,240,200,1,239,3,2,1,stim/21.jpeg,HouseObjects,1,stim/objects/HouseObjects/thread2.png,0.9,1,-0.2,0.15,left,29,2020-12-05_10h53.08.914,premup-three_ses-02_part-02_label-phase2,3.2.4,Win32,60,,,,,,,,,,,,,,,,,,,,,,,,,,,,,
left,0.489999771,1,113,1,0,1,0,1,0,1,0,240,211,1,239,3,2,4,stim/24.jpeg,HouseObjects,1,stim/objects/HouseObjects/wateringcan2.png,0.9,3,-0.2,-0.15,left,29,2020-12-05_10h53.08.914,premup-three_ses-02_part-02_label-phase2,3.2.4,Win32,60,,,,,,,,,,,,,,,,,,,,,,,,,,,,,
right,0.717000008,1,114,1,0,1,0,1,0,1,0,240,100,1,239,2,5,1,stim/51.jpeg,Instruments,2,stim/objects/Instruments/tuba.png,0.7,1,-0.2,0.15,right,29,2020-12-05_10h53.08.914,premup-three_ses-02_part-02_label-phase2,3.2.4,Win32,60,,,,,,,,,,,,,,,,,,,,,,,,,,,,,
left,0.569000006,1,115,1,0,1,0,1,0,1,0,240,10,1,239,1,3,3,stim/33.jpeg,HouseObjects,1,stim/objects/HouseObjects/saw.png,0.5,1,-0.2,0.15,left,29,2020-12-05_10h53.08.914,premup-three_ses-02_part-02_label-phase2,3.2.4,Win32,60,,,,,,,,,,,,,,,,,,,,,,,,,,,,,
right,0.615999937,1,116,1,0,1,0,1,0,1,0,240,165,1,239,3,1,2,stim/12.jpeg,Instruments,2,stim/objects/Instruments/triangle2.png,0.9,2,0.2,0.15,right,29,2020-12-05_10h53.08.914,premup-three_ses-02_part-02_label-phase2,3.2.4,Win32,60,,,,,,,,,,,,,,,,,,,,,,,,,,,,,
left,0.592999935,1,117,1,0,1,0,1,0,1,0,240,40,1,239,1,4,1,stim/41.jpeg,HouseObjects,1,stim/objects/HouseObjects/sponge.png,0.5,3,-0.2,-0.15,left,29,2020-12-05_10h53.08.914,premup-three_ses-02_part-02_label-phase2,3.2.4,Win32,60,,,,,,,,,,,,,,,,,,,,,,,,,,,,,
right,0.540999889,1,118,1,0,1,0,1,0,1,0,240,189,1,239,3,1,2,stim/12.jpeg,Instruments,2,stim/objects/Instruments/triangle2.png,0.9,3,-0.2,-0.15,right,29,2020-12-05_10h53.08.914,premup-three_ses-02_part-02_label-phase2,3.2.4,Win32,60,,,,,,,,,,,,,,,,,,,,,,,,,,,,,
left,0.474999905,0,119,1,0,1,0,1,0,1,0,240,239,1,239,3,2,4,stim/24.jpeg,Instruments,2,stim/objects/Instruments/xylophone2.png,0.1,3,-0.2,-0.15,right,29,2020-12-05_10h53.08.914,premup-three_ses-02_part-02_label-phase2,3.2.4,Win32,60,,,,,,,,,,,,,,,,,,,,,,,,,,,,,
right,0.674999952,1,120,1,0,1,0,1,0,1,0,240,32,1,239,1,3,1,stim/31.jpeg,Instruments,2,stim/objects/Instruments/record_player.png,0.5,1,-0.2,0.15,right,29,2020-12-05_10h53.08.914,premup-three_ses-02_part-02_label-phase2,3.2.4,Win32,60,,,,,,,,,,,,,,,,,,,,,,,,,,,,,
,,0,121,1,0,1,0,1,0,1,0,240,11,1,239,1,3,4,stim/34.jpeg,HouseObjects,1,stim/objects/HouseObjects/scale.png,0.5,3,-0.2,-0.15,left,29,2020-12-05_10h53.08.914,premup-three_ses-02_part-02_label-phase2,3.2.4,Win32,60,,,,,,,,,,,,,,,,,,,,,,,,,,,,,
right,0.65199995,1,122,1,0,1,0,1,0,1,0,240,164,1,239,3,1,1,stim/11.jpeg,Instruments,2,stim/objects/Instruments/timbal2.png,0.9,1,-0.2,0.15,right,29,2020-12-05_10h53.08.914,premup-three_ses-02_part-02_label-phase2,3.2.4,Win32,60,,,,,,,,,,,,,,,,,,,,,,,,,,,,,
left,0.648999929,1,123,1,0,1,0,1,0,1,0,240,201,1,239,3,2,2,stim/22.jpeg,HouseObjects,1,stim/objects/HouseObjects/towel2.png,0.9,2,0.2,0.15,left,29,2020-12-05_10h53.08.914,premup-three_ses-02_part-02_label-phase2,3.2.4,Win32,60,,,,,,,,,,,,,,,,,,,,,,,,,,,,,
right,0.710999966,1,124,1,0,1,0,1,0,1,0,240,117,1,239,2,5,2,stim/52.jpeg,Instruments,2,stim/objects/Instruments/violin.png,0.7,2,0.2,0.15,right,29,2020-12-05_10h53.08.914,premup-three_ses-02_part-02_label-phase2,3.2.4,Win32,60,,,,,,,,,,,,,,,,,,,,,,,,,,,,,
left,0.650999784,0,125,1,0,1,0,1,0,1,0,240,77,1,239,1,4,2,stim/42.jpeg,Instruments,2,stim/objects/Instruments/triangle.png,0.5,3,-0.2,-0.15,right,29,2020-12-05_10h53.08.914,premup-three_ses-02_part-02_label-phase2,3.2.4,Win32,60,,,,,,,,,,,,,,,,,,,,,,,,,,,,,
left,0.659999847,1,126,1,0,1,0,1,0,1,0,240,144,1,239,2,6,1,stim/61.jpeg,HouseObjects,1,stim/objects/HouseObjects/rug2.png,0.7,3,-0.2,-0.15,left,29,2020-12-05_10h53.08.914,premup-three_ses-02_part-02_label-phase2,3.2.4,Win32,60,,,,,,,,,,,,,,,,,,,,,,,,,,,,,
right,0.640999794,1,127,1,0,1,0,1,0,1,0,240,190,1,239,3,1,3,stim/13.jpeg,Instruments,2,stim/objects/Instruments/trombone2.png,0.9,3,-0.2,-0.15,right,29,2020-12-05_10h53.08.914,premup-three_ses-02_part-02_label-phase2,3.2.4,Win32,60,,,,,,,,,,,,,,,,,,,,,,,,,,,,,
left,0.756999969,0,128,1,0,1,0,1,0,1,0,240,153,1,239,2,6,2,stim/62.jpeg,Instruments,2,stim/objects/Instruments/saxophone2.png,0.3,4,0.2,-0.15,right,29,2020-12-05_10h53.08.914,premup-three_ses-02_part-02_label-phase2,3.2.4,Win32,60,,,,,,,,,,,,,,,,,,,,,,,,,,,,,
left,0.565999985,1,129,1,0,1,0,1,0,1,0,240,129,1,239,2,6,2,stim/62.jpeg,HouseObjects,1,stim/objects/HouseObjects/safetypin2.png,0.7,2,0.2,0.15,left,29,2020-12-05_10h53.08.914,premup-three_ses-02_part-02_label-phase2,3.2.4,Win32,60,,,,,,,,,,,,,,,,,,,,,,,,,,,,,
left,0.616999865,0,130,1,0,1,0,1,0,1,0,240,30,1,239,1,3,3,stim/33.jpeg,Instruments,2,stim/objects/Instruments/speaker.png,0.5,2,0.2,0.15,right,29,2020-12-05_10h53.08.914,premup-three_ses-02_part-02_label-phase2,3.2.4,Win32,60,,,,,,,,,,,,,,,,,,,,,,,,,,,,,
left,0.612999916,1,131,1,0,1,0,1,0,1,0,240,205,1,239,3,2,2,stim/22.jpeg,HouseObjects,1,stim/objects/HouseObjects/towel2.png,0.9,4,0.2,-0.15,left,29,2020-12-05_10h53.08.914,premup-three_ses-02_part-02_label-phase2,3.2.4,Win32,60,,,,,,,,,,,,,,,,,,,,,,,,,,,,,
left,0.546999931,1,132,1,0,1,0,1,0,1,0,240,222,1,239,3,2,3,stim/23.jpeg,HouseObjects,1,stim/objects/HouseObjects/vacuumcleaner2.png,0.9,3,-0.2,-0.15,left,29,2020-12-05_10h53.08.914,premup-three_ses-02_part-02_label-phase2,3.2.4,Win32,60,,,,,,,,,,,,,,,,,,,,,,,,,,,,,
right,0.723999977,1,133,1,0,1,0,1,0,1,0,240,20,1,239,1,3,1,stim/31.jpeg,Instruments,2,stim/objects/Instruments/record_player.png,0.5,1,-0.2,0.15,right,29,2020-12-05_10h53.08.914,premup-three_ses-02_part-02_label-phase2,3.2.4,Win32,60,,,,,,,,,,,,,,,,,,,,,,,,,,,,,
left,0.552000046,1,134,1,0,1,0,1,0,1,0,240,136,1,239,2,6,1,stim/61.jpeg,HouseObjects,1,stim/objects/HouseObjects/rug2.png,0.7,2,0.2,0.15,left,29,2020-12-05_10h53.08.914,premup-three_ses-02_part-02_label-phase2,3.2.4,Win32,60,,,,,,,,,,,,,,,,,,,,,,,,,,,,,
left,0.585999966,1,135,1,0,1,0,1,0,1,0,240,131,1,239,2,6,4,stim/64.jpeg,HouseObjects,1,stim/objects/HouseObjects/scale2.png,0.7,2,0.2,0.15,left,29,2020-12-05_10h53.08.914,premup-three_ses-02_part-02_label-phase2,3.2.4,Win32,60,,,,,,,,,,,,,,,,,,,,,,,,,,,,,
left,0.476000071,0,136,1,0,1,0,1,0,1,0,240,116,1,239,2,5,1,stim/51.jpeg,Instruments,2,stim/objects/Instruments/tuba.png,0.7,2,0.2,0.15,right,29,2020-12-05_10h53.08.914,premup-three_ses-02_part-02_label-phase2,3.2.4,Win32,60,,,,,,,,,,,,,,,,,,,,,,,,,,,,,
left,0.529000044,0,137,1,0,1,0,1,0,1,0,240,185,1,239,3,1,2,stim/12.jpeg,Instruments,2,stim/objects/Instruments/triangle2.png,0.9,4,0.2,-0.15,right,29,2020-12-05_10h53.08.914,premup-three_ses-02_part-02_label-phase2,3.2.4,Win32,60,,,,,,,,,,,,,,,,,,,,,,,,,,,,,
right,0.615999937,1,138,1,0,1,0,1,0,1,0,240,168,1,239,3,1,1,stim/11.jpeg,Instruments,2,stim/objects/Instruments/timbal2.png,0.9,2,0.2,0.15,right,29,2020-12-05_10h53.08.914,premup-three_ses-02_part-02_label-phase2,3.2.4,Win32,60,,,,,,,,,,,,,,,,,,,,,,,,,,,,,
left,0.572999954,1,139,1,0,1,0,1,0,1,0,240,232,1,239,3,2,1,stim/21.jpeg,HouseObjects,1,stim/objects/HouseObjects/thread2.png,0.9,4,0.2,-0.15,left,29,2020-12-05_10h53.08.914,premup-three_ses-02_part-02_label-phase2,3.2.4,Win32,60,,,,,,,,,,,,,,,,,,,,,,,,,,,,,
right,0.728999853,1,140,1,0,1,0,1,0,1,0,240,36,1,239,1,3,1,stim/31.jpeg,Instruments,2,stim/objects/Instruments/record_player.png,0.5,1,-0.2,0.15,right,29,2020-12-05_10h53.08.914,premup-three_ses-02_part-02_label-phase2,3.2.4,Win32,60,,,,,,,,,,,,,,,,,,,,,,,,,,,,,
left,0.527999878,1,141,1,0,1,0,1,0,1,0,240,217,1,239,3,2,2,stim/22.jpeg,HouseObjects,1,stim/objects/HouseObjects/towel2.png,0.9,2,0.2,0.15,left,29,2020-12-05_10h53.08.914,premup-three_ses-02_part-02_label-phase2,3.2.4,Win32,60,,,,,,,,,,,,,,,,,,,,,,,,,,,,,
left,0.503999949,0,142,1,0,1,0,1,0,1,0,240,237,1,239,3,2,2,stim/22.jpeg,Instruments,2,stim/objects/Instruments/violin2.png,0.1,4,0.2,-0.15,right,29,2020-12-05_10h53.08.914,premup-three_ses-02_part-02_label-phase2,3.2.4,Win32,60,,,,,,,,,,,,,,,,,,,,,,,,,,,,,
left,0.722999811,0,143,1,0,1,0,1,0,1,0,240,39,1,239,1,3,4,stim/34.jpeg,Instruments,2,stim/objects/Instruments/tambourine.png,0.5,4,0.2,-0.15,right,29,2020-12-05_10h53.08.914,premup-three_ses-02_part-02_label-phase2,3.2.4,Win32,60,,,,,,,,,,,,,,,,,,,,,,,,,,,,,
left,0.724999905,0,144,1,0,1,0,1,0,1,0,240,158,1,239,2,6,3,stim/63.jpeg,Instruments,2,stim/objects/Instruments/speaker2.png,0.3,3,-0.2,-0.15,right,29,2020-12-05_10h53.08.914,premup-three_ses-02_part-02_label-phase2,3.2.4,Win32,60,,,,,,,,,,,,,,,,,,,,,,,,,,,,,
left,0.474999905,1,145,1,0,1,0,1,0,1,0,240,226,1,239,3,2,3,stim/23.jpeg,HouseObjects,1,stim/objects/HouseObjects/vacuumcleaner2.png,0.9,4,0.2,-0.15,left,29,2020-12-05_10h53.08.914,premup-three_ses-02_part-02_label-phase2,3.2.4,Win32,60,,,,,,,,,,,,,,,,,,,,,,,,,,,,,
left,0.520999908,1,146,1,0,1,0,1,0,1,0,240,134,1,239,2,6,3,stim/63.jpeg,HouseObjects,1,stim/objects/HouseObjects/saw2.png,0.7,4,0.2,-0.15,left,29,2020-12-05_10h53.08.914,premup-three_ses-02_part-02_label-phase2,3.2.4,Win32,60,,,,,,,,,,,,,,,,,,,,,,,,,,,,,
left,0.553999901,1,147,1,0,1,0,1,0,1,0,240,49,1,239,1,4,2,stim/42.jpeg,HouseObjects,1,stim/objects/HouseObjects/spraybottle.png,0.5,4,0.2,-0.15,left,29,2020-12-05_10h53.08.914,premup-three_ses-02_part-02_label-phase2,3.2.4,Win32,60,,,,,,,,,,,,,,,,,,,,,,,,,,,,,
left,0.527999878,1,148,1,0,1,0,1,0,1,0,240,50,1,239,1,4,3,stim/43.jpeg,HouseObjects,1,stim/objects/HouseObjects/teapot.png,0.5,2,0.2,0.15,left,29,2020-12-05_10h53.08.914,premup-three_ses-02_part-02_label-phase2,3.2.4,Win32,60,,,,,,,,,,,,,,,,,,,,,,,,,,,,,
right,0.558999777,1,149,1,0,1,0,1,0,1,0,240,193,1,239,3,1,2,stim/12.jpeg,Instruments,2,stim/objects/Instruments/triangle2.png,0.9,1,-0.2,0.15,right,29,2020-12-05_10h53.08.914,premup-three_ses-02_part-02_label-phase2,3.2.4,Win32,60,,,,,,,,,,,,,,,,,,,,,,,,,,,,,
right,0.53399992,1,150,1,0,1,0,1,0,1,0,240,175,1,239,3,1,4,stim/14.jpeg,Instruments,2,stim/objects/Instruments/trumpet2.png,0.9,2,0.2,0.15,right,29,2020-12-05_10h53.08.914,premup-three_ses-02_part-02_label-phase2,3.2.4,Win32,60,,,,,,,,,,,,,,,,,,,,,,,,,,,,,
left,0.414999962,0,151,1,0,1,0,1,0,1,0,240,167,1,239,3,1,4,stim/14.jpeg,Instruments,2,stim/objects/Instruments/trumpet2.png,0.9,3,-0.2,-0.15,right,29,2020-12-05_10h53.08.914,premup-three_ses-02_part-02_label-phase2,3.2.4,Win32,60,,,,,,,,,,,,,,,,,,,,,,,,,,,,,
right,0.483999729,1,152,1,0,1,0,1,0,1,0,240,166,1,239,3,1,3,stim/13.jpeg,Instruments,2,stim/objects/Instruments/trombone2.png,0.9,4,0.2,-0.15,right,29,2020-12-05_10h53.08.914,premup-three_ses-02_part-02_label-phase2,3.2.4,Win32,60,,,,,,,,,,,,,,,,,,,,,,,,,,,,,
left,0.56099987,1,153,1,0,1,0,1,0,1,0,240,56,1,239,1,4,1,stim/41.jpeg,HouseObjects,1,stim/objects/HouseObjects/sponge.png,0.5,4,0.2,-0.15,left,29,2020-12-05_10h53.08.914,premup-three_ses-02_part-02_label-phase2,3.2.4,Win32,60,,,,,,,,,,,,,,,,,,,,,,,,,,,,,
right,0.816999912,1,154,1,0,1,0,1,0,1,0,240,26,1,239,1,3,3,stim/33.jpeg,Instruments,2,stim/objects/Instruments/speaker.png,0.5,1,-0.2,0.15,right,29,2020-12-05_10h53.08.914,premup-three_ses-02_part-02_label-phase2,3.2.4,Win32,60,,,,,,,,,,,,,,,,,,,,,,,,,,,,,
left,0.604000092,0,155,1,0,1,0,1,0,1,0,240,150,1,239,2,6,3,stim/63.jpeg,Instruments,2,stim/objects/Instruments/speaker2.png,0.3,1,-0.2,0.15,right,29,2020-12-05_10h53.08.914,premup-three_ses-02_part-02_label-phase2,3.2.4,Win32,60,,,,,,,,,,,,,,,,,,,,,,,,,,,,,
right,0.809000015,0,156,1,0,1,0,1,0,1,0,240,91,1,239,2,5,4,stim/54.jpeg,HouseObjects,1,stim/objects/HouseObjects/wateringcan.png,0.3,2,0.2,0.15,left,29,2020-12-05_10h53.08.914,premup-three_ses-02_part-02_label-phase2,3.2.4,Win32,60,,,,,,,,,,,,,,,,,,,,,,,,,,,,,
,,0,157,1,0,1,0,1,0,1,0,240,95,1,239,2,5,4,stim/54.jpeg,Instruments,2,stim/objects/Instruments/xylophone.png,0.7,1,-0.2,0.15,right,29,2020-12-05_10h53.08.914,premup-three_ses-02_part-02_label-phase2,3.2.4,Win32,60,,,,,,,,,,,,,,,,,,,,,,,,,,,,,
,,0,158,1,0,1,0,1,0,1,0,240,34,1,239,1,3,3,stim/33.jpeg,Instruments,2,stim/objects/Instruments/speaker.png,0.5,3,-0.2,-0.15,right,29,2020-12-05_10h53.08.914,premup-three_ses-02_part-02_label-phase2,3.2.4,Win32,60,,,,,,,,,,,,,,,,,,,,,,,,,,,,,
right,0.671999931,1,159,1,0,1,0,1,0,1,0,240,99,1,239,2,5,4,stim/54.jpeg,Instruments,2,stim/objects/Instruments/xylophone.png,0.7,2,0.2,0.15,right,29,2020-12-05_10h53.08.914,premup-three_ses-02_part-02_label-phase2,3.2.4,Win32,60,,,,,,,,,,,,,,,,,,,,,,,,,,,,,
left,0.506000042,1,160,1,0,1,0,1,0,1,0,240,137,1,239,2,6,2,stim/62.jpeg,HouseObjects,1,stim/objects/HouseObjects/safetypin2.png,0.7,2,0.2,0.15,left,29,2020-12-05_10h53.08.914,premup-three_ses-02_part-02_label-phase2,3.2.4,Win32,60,,,,,,,,,,,,,,,,,,,,,,,,,,,,,
left,0.661999941,1,161,1,0,1,0,1,0,1,0,240,14,1,239,1,3,3,stim/33.jpeg,HouseObjects,1,stim/objects/HouseObjects/saw.png,0.5,1,-0.2,0.15,left,29,2020-12-05_10h53.08.914,premup-three_ses-02_part-02_label-phase2,3.2.4,Win32,60,,,,,,,,,,,,,,,,,,,,,,,,,,,,,
right,0.677999973,0,162,1,0,1,0,1,0,1,0,240,160,1,239,3,1,1,stim/11.jpeg,HouseObjects,1,stim/objects/HouseObjects/sponge2.png,0.1,2,0.2,0.15,left,29,2020-12-05_10h53.08.914,premup-three_ses-02_part-02_label-phase2,3.2.4,Win32,60,,,,,,,,,,,,,,,,,,,,,,,,,,,,,
right,0.707999945,0,163,1,0,1,0,1,0,1,0,240,81,1,239,2,5,2,stim/52.jpeg,HouseObjects,1,stim/objects/HouseObjects/towel.png,0.3,4,0.2,-0.15,left,29,2020-12-05_10h53.08.914,premup-three_ses-02_part-02_label-phase2,3.2.4,Win32,60,,,,,,,,,,,,,,,,,,,,,,,,,,,,,
right,0.572999954,1,164,1,0,1,0,1,0,1,0,240,198,1,239,3,1,3,stim/13.jpeg,Instruments,2,stim/objects/Instruments/trombone2.png,0.9,3,-0.2,-0.15,right,29,2020-12-05_10h53.08.914,premup-three_ses-02_part-02_label-phase2,3.2.4,Win32,60,,,,,,,,,,,,,,,,,,,,,,,,,,,,,
left,0.715999842,1,165,1,0,1,0,1,0,1,0,240,124,1,239,2,6,1,stim/61.jpeg,HouseObjects,1,stim/objects/HouseObjects/rug2.png,0.7,1,-0.2,0.15,left,29,2020-12-05_10h53.08.914,premup-three_ses-02_part-02_label-phase2,3.2.4,Win32,60,,,,,,,,,,,,,,,,,,,,,,,,,,,,,
left,0.536000013,1,166,1,0,1,0,1,0,1,0,240,140,1,239,2,6,1,stim/61.jpeg,HouseObjects,1,stim/objects/HouseObjects/rug2.png,0.7,1,-0.2,0.15,left,29,2020-12-05_10h53.08.914,premup-three_ses-02_part-02_label-phase2,3.2.4,Win32,60,,,,,,,,,,,,,,,,,,,,,,,,,,,,,
right,0.503000021,1,167,1,0,1,0,1,0,1,0,240,105,1,239,2,5,2,stim/52.jpeg,Instruments,2,stim/objects/Instruments/violin.png,0.7,2,0.2,0.15,right,29,2020-12-05_10h53.08.914,premup-three_ses-02_part-02_label-phase2,3.2.4,Win32,60,,,,,,,,,,,,,,,,,,,,,,,,,,,,,
left,0.690000057,1,168,1,0,1,0,1,0,1,0,240,7,1,239,1,3,4,stim/34.jpeg,HouseObjects,1,stim/objects/HouseObjects/scale.png,0.5,2,0.2,0.15,left,29,2020-12-05_10h53.08.914,premup-three_ses-02_part-02_label-phase2,3.2.4,Win32,60,,,,,,,,,,,,,,,,,,,,,,,,,,,,,
left,0.549999952,1,169,1,0,1,0,1,0,1,0,240,221,1,239,3,2,2,stim/22.jpeg,HouseObjects,1,stim/objects/HouseObjects/towel2.png,0.9,4,0.2,-0.15,left,29,2020-12-05_10h53.08.914,premup-three_ses-02_part-02_label-phase2,3.2.4,Win32,60,,,,,,,,,,,,,,,,,,,,,,,,,,,,,
right,0.586999893,1,170,1,0,1,0,1,0,1,0,240,177,1,239,3,1,2,stim/12.jpeg,Instruments,2,stim/objects/Instruments/triangle2.png,0.9,3,-0.2,-0.15,right,29,2020-12-05_10h53.08.914,premup-three_ses-02_part-02_label-phase2,3.2.4,Win32,60,,,,,,,,,,,,,,,,,,,,,,,,,,,,,
left,0.536000013,1,171,1,0,1,0,1,0,1,0,240,57,1,239,1,4,2,stim/42.jpeg,HouseObjects,1,stim/objects/HouseObjects/spraybottle.png,0.5,4,0.2,-0.15,left,29,2020-12-05_10h53.08.914,premup-three_ses-02_part-02_label-phase2,3.2.4,Win32,60,,,,,,,,,,,,,,,,,,,,,,,,,,,,,
left,0.542999983,1,172,1,0,1,0,1,0,1,0,240,128,1,239,2,6,1,stim/61.jpeg,HouseObjects,1,stim/objects/HouseObjects/rug2.png,0.7,3,-0.2,-0.15,left,29,2020-12-05_10h53.08.914,premup-three_ses-02_part-02_label-phase2,3.2.4,Win32,60,,,,,,,,,,,,,,,,,,,,,,,,,,,,,
left,0.495999813,1,173,1,0,1,0,1,0,1,0,240,235,1,239,3,2,4,stim/24.jpeg,HouseObjects,1,stim/objects/HouseObjects/wateringcan2.png,0.9,3,-0.2,-0.15,left,29,2020-12-05_10h53.08.914,premup-three_ses-02_part-02_label-phase2,3.2.4,Win32,60,,,,,,,,,,,,,,,,,,,,,,,,,,,,,
left,0.621999979,0,174,1,0,1,0,1,0,1,0,240,31,1,239,1,3,4,stim/34.jpeg,Instruments,2,stim/objects/Instruments/tambourine.png,0.5,1,-0.2,0.15,right,29,2020-12-05_10h53.08.914,premup-three_ses-02_part-02_label-phase2,3.2.4,Win32,60,,,,,,,,,,,,,,,,,,,,,,,,,,,,,
right,0.767999887,1,175,1,0,1,0,1,0,1,0,240,102,1,239,2,5,3,stim/53.jpeg,Instruments,2,stim/objects/Instruments/vuvuzela.png,0.7,1,-0.2,0.15,right,29,2020-12-05_10h53.08.914,premup-three_ses-02_part-02_label-phase2,3.2.4,Win32,60,,,,,,,,,,,,,,,,,,,,,,,,,,,,,
left,0.474999905,1,176,1,0,1,0,1,0,1,0,240,139,1,239,2,6,4,stim/64.jpeg,HouseObjects,1,stim/objects/HouseObjects/scale2.png,0.7,4,0.2,-0.15,left,29,2020-12-05_10h53.08.914,premup-three_ses-02_part-02_label-phase2,3.2.4,Win32,60,,,,,,,,,,,,,,,,,,,,,,,,,,,,,
left,0.507999897,1,177,1,0,1,0,1,0,1,0,240,214,1,239,3,2,3,stim/23.jpeg,HouseObjects,1,stim/objects/HouseObjects/vacuumcleaner2.png,0.9,1,-0.2,0.15,left,29,2020-12-05_10h53.08.914,premup-three_ses-02_part-02_label-phase2,3.2.4,Win32,60,,,,,,,,,,,,,,,,,,,,,,,,,,,,,
left,0.513999939,0,178,1,0,1,0,1,0,1,0,240,180,1,239,3,1,1,stim/11.jpeg,Instruments,2,stim/objects/Instruments/timbal2.png,0.9,1,-0.2,0.15,right,29,2020-12-05_10h53.08.914,premup-three_ses-02_part-02_label-phase2,3.2.4,Win32,60,,,,,,,,,,,,,,,,,,,,,,,,,,,,,
left,0.598999977,0,179,1,0,1,0,1,0,1,0,240,75,1,239,1,4,4,stim/44.jpeg,Instruments,2,stim/objects/Instruments/trumpet.png,0.5,2,0.2,0.15,right,29,2020-12-05_10h53.08.914,premup-three_ses-02_part-02_label-phase2,3.2.4,Win32,60,,,,,,,,,,,,,,,,,,,,,,,,,,,,,
left,0.70299983,1,180,1,0,1,0,1,0,1,0,240,43,1,239,1,4,4,stim/44.jpeg,HouseObjects,1,stim/objects/HouseObjects/thermometer.png,0.5,3,-0.2,-0.15,left,29,2020-12-05_10h53.08.914,premup-three_ses-02_part-02_label-phase2,3.2.4,Win32,60,,,,,,,,,,,,,,,,,,,,,,,,,,,,,
,,0,181,1,0,1,0,1,0,1,0,240,48,1,239,1,4,1,stim/41.jpeg,HouseObjects,1,stim/objects/HouseObjects/sponge.png,0.5,2,0.2,0.15,left,29,2020-12-05_10h53.08.914,premup-three_ses-02_part-02_label-phase2,3.2.4,Win32,60,,,,,,,,,,,,,,,,,,,,,,,,,,,,,
left,0.732999802,0,182,1,0,1,0,1,0,1,0,240,61,1,239,1,4,2,stim/42.jpeg,Instruments,2,stim/objects/Instruments/triangle.png,0.5,1,-0.2,0.15,right,29,2020-12-05_10h53.08.914,premup-three_ses-02_part-02_label-phase2,3.2.4,Win32,60,,,,,,,,,,,,,,,,,,,,,,,,,,,,,
left,0.612999916,1,183,1,0,1,0,1,0,1,0,240,220,1,239,3,2,1,stim/21.jpeg,HouseObjects,1,stim/objects/HouseObjects/thread2.png,0.9,4,0.2,-0.15,left,29,2020-12-05_10h53.08.914,premup-three_ses-02_part-02_label-phase2,3.2.4,Win32,60,,,,,,,,,,,,,,,,,,,,,,,,,,,,,
left,0.806999922,0,184,1,0,1,0,1,0,1,0,240,29,1,239,1,3,2,stim/32.jpeg,Instruments,2,stim/objects/Instruments/saxophone.png,0.5,4,0.2,-0.15,right,29,2020-12-05_10h53.08.914,premup-three_ses-02_part-02_label-phase2,3.2.4,Win32,60,,,,,,,,,,,,,,,,,,,,,,,,,,,,,
right,0.728999853,1,185,1,0,1,0,1,0,1,0,240,182,1,239,3,1,3,stim/13.jpeg,Instruments,2,stim/objects/Instruments/trombone2.png,0.9,2,0.2,0.15,right,29,2020-12-05_10h53.08.914,premup-three_ses-02_part-02_label-phase2,3.2.4,Win32,60,,,,,,,,,,,,,,,,,,,,,,,,,,,,,
left,0.691999912,0,186,1,0,1,0,1,0,1,0,240,25,1,239,1,3,2,stim/32.jpeg,Instruments,2,stim/objects/Instruments/saxophone.png,0.5,3,-0.2,-0.15,right,29,2020-12-05_10h53.08.914,premup-three_ses-02_part-02_label-phase2,3.2.4,Win32,60,,,,,,,,,,,,,,,,,,,,,,,,,,,,,
right,0.744999886,0,187,1,0,1,0,1,0,1,0,240,19,1,239,1,3,4,stim/34.jpeg,HouseObjects,1,stim/objects/HouseObjects/scale.png,0.5,4,0.2,-0.15,left,29,2020-12-05_10h53.08.914,premup-three_ses-02_part-02_label-phase2,3.2.4,Win32,60,,,,,,,,,,,,,,,,,,,,,,,,,,,,,
right,0.786000013,1,188,1,0,1,0,1,0,1,0,240,191,1,239,3,1,4,stim/14.jpeg,Instruments,2,stim/objects/Instruments/trumpet2.png,0.9,3,-0.2,-0.15,right,29,2020-12-05_10h53.08.914,premup-three_ses-02_part-02_label-phase2,3.2.4,Win32,60,,,,,,,,,,,,,,,,,,,,,,,,,,,,,
left,0.562999725,1,189,1,0,1,0,1,0,1,0,240,146,1,239,2,6,3,stim/63.jpeg,HouseObjects,1,stim/objects/HouseObjects/saw2.png,0.7,4,0.2,-0.15,left,29,2020-12-05_10h53.08.914,premup-three_ses-02_part-02_label-phase2,3.2.4,Win32,60,,,,,,,,,,,,,,,,,,,,,,,,,,,,,
right,0.682999849,1,190,1,0,1,0,1,0,1,0,240,38,1,239,1,3,3,stim/33.jpeg,Instruments,2,stim/objects/Instruments/speaker.png,0.5,1,-0.2,0.15,right,29,2020-12-05_10h53.08.914,premup-three_ses-02_part-02_label-phase2,3.2.4,Win32,60,,,,,,,,,,,,,,,,,,,,,,,,,,,,,
right,0.657999754,1,191,1,0,1,0,1,0,1,0,240,183,1,239,3,1,4,stim/14.jpeg,Instruments,2,stim/objects/Instruments/trumpet2.png,0.9,3,-0.2,-0.15,right,29,2020-12-05_10h53.08.914,premup-three_ses-02_part-02_label-phase2,3.2.4,Win32,60,,,,,,,,,,,,,,,,,,,,,,,,,,,,,
right,0.463999748,1,192,1,0,1,0,1,0,1,0,240,199,1,239,3,1,4,stim/14.jpeg,Instruments,2,stim/objects/Instruments/trumpet2.png,0.9,1,-0.2,0.15,right,29,2020-12-05_10h53.08.914,premup-three_ses-02_part-02_label-phase2,3.2.4,Win32,60,,,,,,,,,,,,,,,,,,,,,,,,,,,,,
right,0.681999922,1,193,1,0,1,0,1,0,1,0,240,118,1,239,2,5,3,stim/53.jpeg,Instruments,2,stim/objects/Instruments/vuvuzela.png,0.7,4,0.2,-0.15,right,29,2020-12-05_10h53.08.914,premup-three_ses-02_part-02_label-phase2,3.2.4,Win32,60,,,,,,,,,,,,,,,,,,,,,,,,,,,,,
,,0,194,1,0,1,0,1,0,1,0,240,9,1,239,1,3,2,stim/32.jpeg,HouseObjects,1,stim/objects/HouseObjects/safetypin.png,0.5,3,-0.2,-0.15,left,29,2020-12-05_10h53.08.914,premup-three_ses-02_part-02_label-phase2,3.2.4,Win32,60,,,,,,,,,,,,,,,,,,,,,,,,,,,,,
right,0.712999821,1,195,1,0,1,0,1,0,1,0,240,24,1,239,1,3,1,stim/31.jpeg,Instruments,2,stim/objects/Instruments/record_player.png,0.5,4,0.2,-0.15,right,29,2020-12-05_10h53.08.914,premup-three_ses-02_part-02_label-phase2,3.2.4,Win32,60,,,,,,,,,,,,,,,,,,,,,,,,,,,,,
right,0.665999889,1,196,1,0,1,0,1,0,1,0,240,196,1,239,3,1,1,stim/11.jpeg,Instruments,2,stim/objects/Instruments/timbal2.png,0.9,2,0.2,0.15,right,29,2020-12-05_10h53.08.914,premup-three_ses-02_part-02_label-phase2,3.2.4,Win32,60,,,,,,,,,,,,,,,,,,,,,,,,,,,,,
right,0.651000023,0,197,1,0,1,0,1,0,1,0,240,15,1,239,1,3,4,stim/34.jpeg,HouseObjects,1,stim/objects/HouseObjects/scale.png,0.5,2,0.2,0.15,left,29,2020-12-05_10h53.08.914,premup-three_ses-02_part-02_label-phase2,3.2.4,Win32,60,,,,,,,,,,,,,,,,,,,,,,,,,,,,,
left,0.54399991,1,198,1,0,1,0,1,0,1,0,240,202,1,239,3,2,3,stim/23.jpeg,HouseObjects,1,stim/objects/HouseObjects/vacuumcleaner2.png,0.9,4,0.2,-0.15,left,29,2020-12-05_10h53.08.914,premup-three_ses-02_part-02_label-phase2,3.2.4,Win32,60,,,,,,,,,,,,,,,,,,,,,,,,,,,,,
right,0.717999935,0,199,1,0,1,0,1,0,1,0,240,5,1,239,1,3,2,stim/32.jpeg,HouseObjects,1,stim/objects/HouseObjects/safetypin.png,0.5,3,-0.2,-0.15,left,29,2020-12-05_10h53.08.914,premup-three_ses-02_part-02_label-phase2,3.2.4,Win32,60,,,,,,,,,,,,,,,,,,,,,,,,,,,,,
right,0.703999996,1,200,1,0,1,0,1,0,1,0,240,112,1,239,2,5,1,stim/51.jpeg,Instruments,2,stim/objects/Instruments/tuba.png,0.7,2,0.2,0.15,right,29,2020-12-05_10h53.08.914,premup-three_ses-02_part-02_label-phase2,3.2.4,Win32,60,,,,,,,,,,,,,,,,,,,,,,,,,,,,,
right,0.748999834,1,201,1,0,1,0,1,0,1,0,240,33,1,239,1,3,2,stim/32.jpeg,Instruments,2,stim/objects/Instruments/saxophone.png,0.5,1,-0.2,0.15,right,29,2020-12-05_10h53.08.914,premup-three_ses-02_part-02_label-phase2,3.2.4,Win32,60,,,,,,,,,,,,,,,,,,,,,,,,,,,,,
right,0.725000143,1,202,1,0,1,0,1,0,1,0,240,197,1,239,3,1,2,stim/12.jpeg,Instruments,2,stim/objects/Instruments/triangle2.png,0.9,1,-0.2,0.15,right,29,2020-12-05_10h53.08.914,premup-three_ses-02_part-02_label-phase2,3.2.4,Win32,60,,,,,,,,,,,,,,,,,,,,,,,,,,,,,
right,0.660999775,1,203,1,0,1,0,1,0,1,0,240,179,1,239,3,1,4,stim/14.jpeg,Instruments,2,stim/objects/Instruments/trumpet2.png,0.9,1,-0.2,0.15,right,29,2020-12-05_10h53.08.914,premup-three_ses-02_part-02_label-phase2,3.2.4,Win32,60,,,,,,,,,,,,,,,,,,,,,,,,,,,,,
left,0.579999924,0,204,1,0,1,0,1,0,1,0,240,152,1,239,2,6,1,stim/61.jpeg,Instruments,2,stim/objects/Instruments/record_player2.png,0.3,1,-0.2,0.15,right,29,2020-12-05_10h53.08.914,premup-three_ses-02_part-02_label-phase2,3.2.4,Win32,60,,,,,,,,,,,,,,,,,,,,,,,,,,,,,
right,0.747999907,1,205,1,0,1,0,1,0,1,0,240,27,1,239,1,3,4,stim/34.jpeg,Instruments,2,stim/objects/Instruments/tambourine.png,0.5,1,-0.2,0.15,right,29,2020-12-05_10h53.08.914,premup-three_ses-02_part-02_label-phase2,3.2.4,Win32,60,,,,,,,,,,,,,,,,,,,,,,,,,,,,,
right,0.690000057,1,206,1,0,1,0,1,0,1,0,240,72,1,239,1,4,1,stim/41.jpeg,Instruments,2,stim/objects/Instruments/timbal.png,0.5,1,-0.2,0.15,right,29,2020-12-05_10h53.08.914,premup-three_ses-02_part-02_label-phase2,3.2.4,Win32,60,,,,,,,,,,,,,,,,,,,,,,,,,,,,,
right,0.805999756,1,207,1,0,1,0,1,0,1,0,240,103,1,239,2,5,4,stim/54.jpeg,Instruments,2,stim/objects/Instruments/xylophone.png,0.7,3,-0.2,-0.15,right,29,2020-12-05_10h53.08.914,premup-three_ses-02_part-02_label-phase2,3.2.4,Win32,60,,,,,,,,,,,,,,,,,,,,,,,,,,,,,
right,0.513999939,1,208,1,0,1,0,1,0,1,0,240,110,1,239,2,5,3,stim/53.jpeg,Instruments,2,stim/objects/Instruments/vuvuzela.png,0.7,1,-0.2,0.15,right,29,2020-12-05_10h53.08.914,premup-three_ses-02_part-02_label-phase2,3.2.4,Win32,60,,,,,,,,,,,,,,,,,,,,,,,,,,,,,
left,0.50999999,1,209,1,0,1,0,1,0,1,0,240,209,1,239,3,2,2,stim/22.jpeg,HouseObjects,1,stim/objects/HouseObjects/towel2.png,0.9,3,-0.2,-0.15,left,29,2020-12-05_10h53.08.914,premup-three_ses-02_part-02_label-phase2,3.2.4,Win32,60,,,,,,,,,,,,,,,,,,,,,,,,,,,,,
right,0.484999895,1,210,1,0,1,0,1,0,1,0,240,107,1,239,2,5,4,stim/54.jpeg,Instruments,2,stim/objects/Instruments/xylophone.png,0.7,1,-0.2,0.15,right,29,2020-12-05_10h53.08.914,premup-three_ses-02_part-02_label-phase2,3.2.4,Win32,60,,,,,,,,,,,,,,,,,,,,,,,,,,,,,
left,0.694999933,1,211,1,0,1,0,1,0,1,0,240,203,1,239,3,2,4,stim/24.jpeg,HouseObjects,1,stim/objects/HouseObjects/wateringcan2.png,0.9,4,0.2,-0.15,left,29,2020-12-05_10h53.08.914,premup-three_ses-02_part-02_label-phase2,3.2.4,Win32,60,,,,,,,,,,,,,,,,,,,,,,,,,,,,,
right,0.698999882,1,212,1,0,1,0,1,0,1,0,240,76,1,239,1,4,1,stim/41.jpeg,Instruments,2,stim/objects/Instruments/timbal.png,0.5,2,0.2,0.15,right,29,2020-12-05_10h53.08.914,premup-three_ses-02_part-02_label-phase2,3.2.4,Win32,60,,,,,,,,,,,,,,,,,,,,,,,,,,,,,
,,0,213,1,0,1,0,1,0,1,0,240,69,1,239,1,4,2,stim/42.jpeg,Instruments,2,stim/objects/Instruments/triangle.png,0.5,2,0.2,0.15,right,29,2020-12-05_10h53.08.914,premup-three_ses-02_part-02_label-phase2,3.2.4,Win32,60,,,,,,,,,,,,,,,,,,,,,,,,,,,,,
right,0.65899992,1,214,1,0,1,0,1,0,1,0,240,108,1,239,2,5,1,stim/51.jpeg,Instruments,2,stim/objects/Instruments/tuba.png,0.7,3,-0.2,-0.15,right,29,2020-12-05_10h53.08.914,premup-three_ses-02_part-02_label-phase2,3.2.4,Win32,60,,,,,,,,,,,,,,,,,,,,,,,,,,,,,
right,0.585999966,1,215,1,0,1,0,1,0,1,0,240,173,1,239,3,1,2,stim/12.jpeg,Instruments,2,stim/objects/Instruments/triangle2.png,0.9,1,-0.2,0.15,right,29,2020-12-05_10h53.08.914,premup-three_ses-02_part-02_label-phase2,3.2.4,Win32,60,,,,,,,,,,,,,,,,,,,,,,,,,,,,,
left,0.59800005,1,216,1,0,1,0,1,0,1,0,240,53,1,239,1,4,2,stim/42.jpeg,HouseObjects,1,stim/objects/HouseObjects/spraybottle.png,0.5,4,0.2,-0.15,left,29,2020-12-05_10h53.08.914,premup-three_ses-02_part-02_label-phase2,3.2.4,Win32,60,,,,,,,,,,,,,,,,,,,,,,,,,,,,,
left,0.553999901,1,217,1,0,1,0,1,0,1,0,240,143,1,239,2,6,4,stim/64.jpeg,HouseObjects,1,stim/objects/HouseObjects/scale2.png,0.7,4,0.2,-0.15,left,29,2020-12-05_10h53.08.914,premup-three_ses-02_part-02_label-phase2,3.2.4,Win32,60,,,,,,,,,,,,,,,,,,,,,,,,,,,,,
left,0.470999718,1,218,1,0,1,0,1,0,1,0,240,147,1,239,2,6,4,stim/64.jpeg,HouseObjects,1,stim/objects/HouseObjects/scale2.png,0.7,2,0.2,0.15,left,29,2020-12-05_10h53.08.914,premup-three_ses-02_part-02_label-phase2,3.2.4,Win32,60,,,,,,,,,,,,,,,,,,,,,,,,,,,,,
right,0.618000031,0,219,1,0,1,0,1,0,1,0,240,83,1,239,2,5,4,stim/54.jpeg,HouseObjects,1,stim/objects/HouseObjects/wateringcan.png,0.3,3,-0.2,-0.15,left,29,2020-12-05_10h53.08.914,premup-three_ses-02_part-02_label-phase2,3.2.4,Win32,60,,,,,,,,,,,,,,,,,,,,,,,,,,,,,
right,0.593999863,1,220,1,0,1,0,1,0,1,0,240,192,1,239,3,1,1,stim/11.jpeg,Instruments,2,stim/objects/Instruments/timbal2.png,0.9,4,0.2,-0.15,right,29,2020-12-05_10h53.08.914,premup-three_ses-02_part-02_label-phase2,3.2.4,Win32,60,,,,,,,,,,,,,,,,,,,,,,,,,,,,,
left,0.789999962,1,221,1,0,1,0,1,0,1,0,240,59,1,239,1,4,4,stim/44.jpeg,HouseObjects,1,stim/objects/HouseObjects/thermometer.png,0.5,2,0.2,0.15,left,29,2020-12-05_10h53.08.914,premup-three_ses-02_part-02_label-phase2,3.2.4,Win32,60,,,,,,,,,,,,,,,,,,,,,,,,,,,,,
left,0.464999914,1,222,1,0,1,0,1,0,1,0,240,55,1,239,1,4,4,stim/44.jpeg,HouseObjects,1,stim/objects/HouseObjects/thermometer.png,0.5,2,0.2,0.15,left,29,2020-12-05_10h53.08.914,premup-three_ses-02_part-02_label-phase2,3.2.4,Win32,60,,,,,,,,,,,,,,,,,,,,,,,,,,,,,
left,0.486999989,1,223,1,0,1,0,1,0,1,0,240,213,1,239,3,2,2,stim/22.jpeg,HouseObjects,1,stim/objects/HouseObjects/towel2.png,0.9,3,-0.2,-0.15,left,29,2020-12-05_10h53.08.914,premup-three_ses-02_part-02_label-phase2,3.2.4,Win32,60,,,,,,,,,,,,,,,,,,,,,,,,,,,,,
left,0.510999918,1,224,1,0,1,0,1,0,1,0,240,145,1,239,2,6,2,stim/62.jpeg,HouseObjects,1,stim/objects/HouseObjects/safetypin2.png,0.7,1,-0.2,0.15,left,29,2020-12-05_10h53.08.914,premup-three_ses-02_part-02_label-phase2,3.2.4,Win32,60,,,,,,,,,,,,,,,,,,,,,,,,,,,,,
right,0.722999811,1,225,1,0,1,0,1,0,1,0,240,109,1,239,2,5,2,stim/52.jpeg,Instruments,2,stim/objects/Instruments/violin.png,0.7,4,0.2,-0.15,right,29,2020-12-05_10h53.08.914,premup-three_ses-02_part-02_label-phase2,3.2.4,Win32,60,,,,,,,,,,,,,,,,,,,,,,,,,,,,,
left,0.625999928,1,226,1,0,1,0,1,0,1,0,240,51,1,239,1,4,4,stim/44.jpeg,HouseObjects,1,stim/objects/HouseObjects/thermometer.png,0.5,1,-0.2,0.15,left,29,2020-12-05_10h53.08.914,premup-three_ses-02_part-02_label-phase2,3.2.4,Win32,60,,,,,,,,,,,,,,,,,,,,,,,,,,,,,
right,0.67599988,0,227,1,0,1,0,1,0,1,0,240,12,1,239,1,3,1,stim/31.jpeg,HouseObjects,1,stim/objects/HouseObjects/rug.png,0.5,2,0.2,0.15,left,29,2020-12-05_10h53.08.914,premup-three_ses-02_part-02_label-phase2,3.2.4,Win32,60,,,,,,,,,,,,,,,,,,,,,,,,,,,,,
right,0.750999928,1,228,1,0,1,0,1,0,1,0,240,188,1,239,3,1,1,stim/11.jpeg,Instruments,2,stim/objects/Instruments/timbal2.png,0.9,1,-0.2,0.15,right,29,2020-12-05_10h53.08.914,premup-three_ses-02_part-02_label-phase2,3.2.4,Win32,60,,,,,,,,,,,,,,,,,,,,,,,,,,,,,
left,0.698999882,1,229,1,0,1,0,1,0,1,0,240,45,1,239,1,4,2,stim/42.jpeg,HouseObjects,1,stim/objects/HouseObjects/spraybottle.png,0.5,4,0.2,-0.15,left,29,2020-12-05_10h53.08.914,premup-three_ses-02_part-02_label-phase2,3.2.4,Win32,60,,,,,,,,,,,,,,,,,,,,,,,,,,,,,
,,0,230,1,0,1,0,1,0,1,0,240,3,1,239,1,3,4,stim/34.jpeg,HouseObjects,1,stim/objects/HouseObjects/scale.png,0.5,3,-0.2,-0.15,left,29,2020-12-05_10h53.08.914,premup-three_ses-02_part-02_label-phase2,3.2.4,Win32,60,,,,,,,,,,,,,,,,,,,,,,,,,,,,,
right,0.809999943,0,231,1,0,1,0,1,0,1,0,240,90,1,239,2,5,3,stim/53.jpeg,HouseObjects,1,stim/objects/HouseObjects/vacuumcleaner.png,0.3,3,-0.2,-0.15,left,29,2020-12-05_10h53.08.914,premup-three_ses-02_part-02_label-phase2,3.2.4,Win32,60,,,,,,,,,,,,,,,,,,,,,,,,,,,,,
right,0.546000004,1,232,1,0,1,0,1,0,1,0,240,96,1,239,2,5,1,stim/51.jpeg,Instruments,2,stim/objects/Instruments/tuba.png,0.7,1,-0.2,0.15,right,29,2020-12-05_10h53.08.914,premup-three_ses-02_part-02_label-phase2,3.2.4,Win32,60,,,,,,,,,,,,,,,,,,,,,,,,,,,,,
left,0.600999832,1,233,1,0,1,0,1,0,1,0,240,123,1,239,2,6,4,stim/64.jpeg,HouseObjects,1,stim/objects/HouseObjects/scale2.png,0.7,4,0.2,-0.15,left,29,2020-12-05_10h53.08.914,premup-three_ses-02_part-02_label-phase2,3.2.4,Win32,60,,,,,,,,,,,,,,,,,,,,,,,,,,,,,
right,0.667000055,1,234,1,0,1,0,1,0,1,0,240,114,1,239,2,5,3,stim/53.jpeg,Instruments,2,stim/objects/Instruments/vuvuzela.png,0.7,2,0.2,0.15,right,29,2020-12-05_10h53.08.914,premup-three_ses-02_part-02_label-phase2,3.2.4,Win32,60,,,,,,,,,,,,,,,,,,,,,,,,,,,,,
left,0.536000013,0,235,1,0,1,0,1,0,1,0,240,151,1,239,2,6,4,stim/64.jpeg,Instruments,2,stim/objects/Instruments/tambourine2.png,0.3,3,-0.2,-0.15,right,29,2020-12-05_10h53.08.914,premup-three_ses-02_part-02_label-phase2,3.2.4,Win32,60,,,,,,,,,,,,,,,,,,,,,,,,,,,,,
left,0.597999811,0,236,1,0,1,0,1,0,1,0,240,78,1,239,1,4,3,stim/43.jpeg,Instruments,2,stim/objects/Instruments/trombone.png,0.5,4,0.2,-0.15,right,29,2020-12-05_10h53.08.914,premup-three_ses-02_part-02_label-phase2,3.2.4,Win32,60,,,,,,,,,,,,,,,,,,,,,,,,,,,,,
right,0.536999941,0,237,1,0,1,0,1,0,1,0,240,80,1,239,2,5,1,stim/51.jpeg,HouseObjects,1,stim/objects/HouseObjects/thread.png,0.3,1,-0.2,0.15,left,29,2020-12-05_10h53.08.914,premup-three_ses-02_part-02_label-phase2,3.2.4,Win32,60,,,,,,,,,,,,,,,,,,,,,,,,,,,,,
,,0,238,1,0,1,0,1,0,1,0,240,194,1,239,3,1,3,stim/13.jpeg,Instruments,2,stim/objects/Instruments/trombone2.png,0.9,4,0.2,-0.15,right,29,2020-12-05_10h53.08.914,premup-three_ses-02_part-02_label-phase2,3.2.4,Win32,60,,,,,,,,,,,,,,,,,,,,,,,,,,,,,
left,0.54399991,0,239,1,0,1,0,1,0,1,0,240,238,1,239,3,2,3,stim/23.jpeg,Instruments,2,stim/objects/Instruments/vuvuzela2.png,0.1,2,0.2,0.15,right,29,2020-12-05_10h53.08.914,premup-three_ses-02_part-02_label-phase2,3.2.4,Win32,60,,,,,,,,,,,,,,,,,,,,,,,,,,,,,
left,0.760999918,1,240,1,0,1,0,1,0,1,0,240,42,1,239,1,4,3,stim/43.jpeg,HouseObjects,1,stim/objects/HouseObjects/teapot.png,0.5,4,0.2,-0.15,left,29,2020-12-05_10h53.08.914,premup-three_ses-02_part-02_label-phase2,3.2.4,Win32,60,,,,,,,,,,,,,,,,,,,,,,,,,,,,,
,,,,1,0,1,0,1,0,,,,,,,,6,,stim/61.jpeg,,,,,,,,,29,2020-12-05_10h53.08.914,premup-three_ses-02_part-02_label-phase2,3.2.4,Win32,60,80,7.138999939,,,1,0,6,5,1,5,Household items,5,15,Music items,85,95,,,,,,,,,,,,,
,,,,1,0,1,0,1,0,,,,,,,,2,,stim/21.jpeg,,,,,,,,,29,2020-12-05_10h53.08.914,premup-three_ses-02_part-02_label-phase2,3.2.4,Win32,60,10,7.352999926,,,1,0,6,1,1,5,Music items,45,55,Household items,45,55,,,,,,,,,,,,,
,,,,1,0,1,0,1,0,,,,,,,,4,,stim/41.jpeg,,,,,,,,,29,2020-12-05_10h53.08.914,premup-three_ses-02_part-02_label-phase2,3.2.4,Win32,60,50,5.703000069,,,1,0,6,3,1,5,Household items,65,75,Music items,25,35,,,,,,,,,,,,,
,,,,1,0,1,0,1,0,,,,,,,,5,,stim/51.jpeg,,,,,,,,,29,2020-12-05_10h53.08.914,premup-three_ses-02_part-02_label-phase2,3.2.4,Win32,60,61,3.526000023,,,1,0,6,4,1,5,Music items,5,15,Household items,85,95,,,,,,,,,,,,,
,,,,1,0,1,0,1,0,,,,,,,,1,,stim/11.jpeg,,,,,,,,,29,2020-12-05_10h53.08.914,premup-three_ses-02_part-02_label-phase2,3.2.4,Win32,60,20,3.593999863,,,1,0,6,0,1,5,Household items,45,55,Music items,45,55,,,,,,,,,,,,,
,,,,1,0,1,0,1,0,,,,,,,,3,,stim/31.jpeg,,,,,,,,,29,2020-12-05_10h53.08.914,premup-three_ses-02_part-02_label-phase2,3.2.4,Win32,60,60,5.720000029,,,1,0,6,2,1,5,Household items,65,75,Music items,25,35,,,,,,,,,,,,,
,,,,1,0,1,0,1,0,,,,,,,,,,,,,,,,,,,29,2020-12-05_10h53.08.914,premup-three_ses-02_part-02_label-phase2,3.2.4,Win32,60,,,,,,,,,,,,,,,,,,,,,,,,,,,,,
right,0.817000151,1,241,,,,,,,,,,,,,3,1,1,stim/11.jpeg,Instruments,2,stim/objects/Instruments/frenchhorn.png,0.9,3,-0.2,-0.15,right,29,2020-12-05_10h53.08.914,premup-three_ses-02_part-02_label-phase2,3.2.4,Win32,60,,,,,,,,,,,,,,,,,1,0,330,182,1,329,2,,,,,,
left,0.542000055,1,242,,,,,,,,,,,,,2,6,4,stim/64.jpeg,HouseObjects,1,stim/objects/HouseObjects/coffee.png,0.7,2,0.2,0.15,left,29,2020-12-05_10h53.08.914,premup-three_ses-02_part-02_label-phase2,3.2.4,Win32,60,,,,,,,,,,,,,,,,,1,0,330,102,1,329,2,,,,,,
left,0.430999994,0,243,,,,,,,,,,,,,2,6,4,stim/64.jpeg,Instruments,2,stim/objects/Instruments/doublebass2.png,0.3,2,0.2,0.15,right,29,2020-12-05_10h53.08.914,premup-three_ses-02_part-02_label-phase2,3.2.4,Win32,60,,,,,,,,,,,,,,,,,1,0,330,126,1,329,1,,,,,,
left,0.481999874,1,244,,,,,,,,,,,,,3,2,2,stim/22.jpeg,HouseObjects,1,stim/objects/HouseObjects/glass.png,0.9,2,0.2,0.15,left,29,2020-12-05_10h53.08.914,premup-three_ses-02_part-02_label-phase2,3.2.4,Win32,60,,,,,,,,,,,,,,,,,1,0,330,299,1,329,2,,,,,,
right,0.569999933,1,245,,,,,,,,,,,,,2,5,2,stim/52.jpeg,Instruments,2,stim/objects/Instruments/doublebass.png,0.7,2,0.2,0.15,right,29,2020-12-05_10h53.08.914,premup-three_ses-02_part-02_label-phase2,3.2.4,Win32,60,,,,,,,,,,,,,,,,,1,0,330,81,1,329,2,,,,,,
right,0.636999846,1,246,,,,,,,,,,,,,3,1,1,stim/11.jpeg,Instruments,2,stim/objects/Instruments/grandpiano.png,0.9,3,-0.2,-0.15,right,29,2020-12-05_10h53.08.914,premup-three_ses-02_part-02_label-phase2,3.2.4,Win32,60,,,,,,,,,,,,,,,,,1,0,330,174,1,329,2,,,,,,
right,0.495999813,0,247,,,,,,,,,,,,,2,6,3,stim/63.jpeg,HouseObjects,1,stim/objects/HouseObjects/coffee2.png,0.7,1,-0.2,0.15,left,29,2020-12-05_10h53.08.914,premup-three_ses-02_part-02_label-phase2,3.2.4,Win32,60,,,,,,,,,,,,,,,,,1,0,330,117,1,329,1,,,,,,
left,0.496000051,1,248,,,,,,,,,,,,,3,2,4,stim/24.jpeg,HouseObjects,1,stim/objects/HouseObjects/flyswatter.png,0.9,1,-0.2,0.15,left,29,2020-12-05_10h53.08.914,premup-three_ses-02_part-02_label-phase2,3.2.4,Win32,60,,,,,,,,,,,,,,,,,1,0,330,297,1,329,2,,,,,,
left,0.466999769,0,249,,,,,,,,,,,,,3,2,1,stim/21.jpeg,Instruments,2,stim/objects/Instruments/marimba2.png,0.1,2,0.2,0.15,right,29,2020-12-05_10h53.08.914,premup-three_ses-02_part-02_label-phase2,3.2.4,Win32,60,,,,,,,,,,,,,,,,,1,0,330,322,1,329,1,,,,,,
left,0.476999998,1,250,,,,,,,,,,,,,3,2,4,stim/24.jpeg,HouseObjects,1,stim/objects/HouseObjects/flyswatter.png,0.9,4,0.2,-0.15,left,29,2020-12-05_10h53.08.914,premup-three_ses-02_part-02_label-phase2,3.2.4,Win32,60,,,,,,,,,,,,,,,,,1,0,330,237,1,329,2,,,,,,
left,0.601999998,0,251,,,,,,,,,,,,,1,4,3,stim/43.jpeg,Instruments,2,stim/objects/Instruments/cornet.png,0.5,4,0.2,-0.15,right,29,2020-12-05_10h53.08.914,premup-three_ses-02_part-02_label-phase2,3.2.4,Win32,60,,,,,,,,,,,,,,,,,1,0,330,54,1,329,2,,,,,,
right,0.518999815,1,252,,,,,,,,,,,,,3,1,2,stim/12.jpeg,Instruments,2,stim/objects/Instruments/frenchhorn.png,0.9,3,-0.2,-0.15,right,29,2020-12-05_10h53.08.914,premup-three_ses-02_part-02_label-phase2,3.2.4,Win32,60,,,,,,,,,,,,,,,,,1,0,330,167,1,329,2,,,,,,
left,0.559999943,1,253,,,,,,,,,,,,,1,4,1,stim/41.jpeg,HouseObjects,1,stim/objects/HouseObjects/ironingboard.png,0.5,3,-0.2,-0.15,left,29,2020-12-05_10h53.08.914,premup-three_ses-02_part-02_label-phase2,3.2.4,Win32,60,,,,,,,,,,,,,,,,,1,0,330,40,1,329,1,,,,,,
right,0.582999945,1,254,,,,,,,,,,,,,3,1,1,stim/11.jpeg,Instruments,2,stim/objects/Instruments/flute.png,0.9,1,-0.2,0.15,right,29,2020-12-05_10h53.08.914,premup-three_ses-02_part-02_label-phase2,3.2.4,Win32,60,,,,,,,,,,,,,,,,,1,0,330,210,1,329,2,,,,,,
left,0.552999973,1,255,,,,,,,,,,,,,1,4,4,stim/44.jpeg,HouseObjects,1,stim/objects/HouseObjects/bottle.png,0.5,2,0.2,0.15,left,29,2020-12-05_10h53.08.914,premup-three_ses-02_part-02_label-phase2,3.2.4,Win32,60,,,,,,,,,,,,,,,,,1,0,330,31,1,329,2,,,,,,
left,0.464999914,0,256,,,,,,,,,,,,,1,4,3,stim/43.jpeg,Instruments,2,stim/objects/Instruments/cello.png,0.5,2,0.2,0.15,right,29,2020-12-05_10h53.08.914,premup-three_ses-02_part-02_label-phase2,3.2.4,Win32,60,,,,,,,,,,,,,,,,,1,0,330,46,1,329,2,,,,,,
left,0.736999989,1,257,,,,,,,,,,,,,3,2,2,stim/22.jpeg,HouseObjects,1,stim/objects/HouseObjects/flyswatter.png,0.9,1,-0.2,0.15,left,29,2020-12-05_10h53.08.914,premup-three_ses-02_part-02_label-phase2,3.2.4,Win32,60,,,,,,,,,,,,,,,,,1,0,330,267,1,329,2,,,,,,
right,0.565000057,1,258,,,,,,,,,,,,,3,1,1,stim/11.jpeg,Instruments,2,stim/objects/Instruments/frenchhorn2.png,0.9,1,-0.2,0.15,right,29,2020-12-05_10h53.08.914,premup-three_ses-02_part-02_label-phase2,3.2.4,Win32,60,,,,,,,,,,,,,,,,,1,0,330,222,1,329,1,,,,,,
left,0.556999922,1,259,,,,,,,,,,,,,2,6,2,stim/62.jpeg,HouseObjects,1,stim/objects/HouseObjects/dishsoap.png,0.7,1,-0.2,0.15,left,29,2020-12-05_10h53.08.914,premup-three_ses-02_part-02_label-phase2,3.2.4,Win32,60,,,,,,,,,,,,,,,,,1,0,330,104,1,329,2,,,,,,
right,0.631999969,1,260,,,,,,,,,,,,,3,1,3,stim/13.jpeg,Instruments,2,stim/objects/Instruments/frenchhorn.png,0.9,1,-0.2,0.15,right,29,2020-12-05_10h53.08.914,premup-three_ses-02_part-02_label-phase2,3.2.4,Win32,60,,,,,,,,,,,,,,,,,1,0,330,212,1,329,2,,,,,,
right,0.59800005,1,261,,,,,,,,,,,,,3,1,1,stim/11.jpeg,Instruments,2,stim/objects/Instruments/flutetrans.png,0.9,3,-0.2,-0.15,right,29,2020-12-05_10h53.08.914,premup-three_ses-02_part-02_label-phase2,3.2.4,Win32,60,,,,,,,,,,,,,,,,,1,0,330,166,1,329,2,,,,,,
left,0.490999937,1,262,,,,,,,,,,,,,3,2,4,stim/24.jpeg,HouseObjects,1,stim/objects/HouseObjects/glass.png,0.9,4,0.2,-0.15,left,29,2020-12-05_10h53.08.914,premup-three_ses-02_part-02_label-phase2,3.2.4,Win32,60,,,,,,,,,,,,,,,,,1,0,330,309,1,329,2,,,,,,
,,0,263,,,,,,,,,,,,,2,5,3,stim/53.jpeg,HouseObjects,1,stim/objects/HouseObjects/ballofstring2.png,0.3,3,-0.2,-0.15,left,29,2020-12-05_10h53.08.914,premup-three_ses-02_part-02_label-phase2,3.2.4,Win32,60,,,,,,,,,,,,,,,,,1,0,330,66,1,329,1,,,,,,
right,0.583999872,1,264,,,,,,,,,,,,,3,1,2,stim/12.jpeg,Instruments,2,stim/objects/Instruments/grandpiano.png,0.9,4,0.2,-0.15,right,29,2020-12-05_10h53.08.914,premup-three_ses-02_part-02_label-phase2,3.2.4,Win32,60,,,,,,,,,,,,,,,,,1,0,330,199,1,329,2,,,,,,
right,0.568000078,1,265,,,,,,,,,,,,,3,1,3,stim/13.jpeg,Instruments,2,stim/objects/Instruments/flute.png,0.9,3,-0.2,-0.15,right,29,2020-12-05_10h53.08.914,premup-three_ses-02_part-02_label-phase2,3.2.4,Win32,60,,,,,,,,,,,,,,,,,1,0,330,140,1,329,2,,,,,,
left,0.527999878,0,266,,,,,,,,,,,,,1,3,4,stim/34.jpeg,Instruments,2,stim/objects/Instruments/bassdrum.png,0.5,3,-0.2,-0.15,right,29,2020-12-05_10h53.08.914,premup-three_ses-02_part-02_label-phase2,3.2.4,Win32,60,,,,,,,,,,,,,,,,,1,0,330,19,1,329,2,,,,,,
right,0.539999962,1,267,,,,,,,,,,,,,3,1,1,stim/11.jpeg,Instruments,2,stim/objects/Instruments/flutetrans.png,0.9,2,0.2,0.15,right,29,2020-12-05_10h53.08.914,premup-three_ses-02_part-02_label-phase2,3.2.4,Win32,60,,,,,,,,,,,,,,,,,1,0,330,206,1,329,2,,,,,,
left,0.500999928,1,268,,,,,,,,,,,,,3,2,3,stim/23.jpeg,HouseObjects,1,stim/objects/HouseObjects/glass.png,0.9,1,-0.2,0.15,left,29,2020-12-05_10h53.08.914,premup-three_ses-02_part-02_label-phase2,3.2.4,Win32,60,,,,,,,,,,,,,,,,,1,0,330,284,1,329,2,,,,,,
left,0.445999861,0,269,,,,,,,,,,,,,3,2,4,stim/24.jpeg,Instruments,2,stim/objects/Instruments/maraca2.png,0.1,4,0.2,-0.15,right,29,2020-12-05_10h53.08.914,premup-three_ses-02_part-02_label-phase2,3.2.4,Win32,60,,,,,,,,,,,,,,,,,1,0,330,321,1,329,1,,,,,,
left,0.436999798,1,270,,,,,,,,,,,,,3,2,1,stim/21.jpeg,HouseObjects,1,stim/objects/HouseObjects/dustpan.png,0.9,2,0.2,0.15,left,29,2020-12-05_10h53.08.914,premup-three_ses-02_part-02_label-phase2,3.2.4,Win32,60,,,,,,,,,,,,,,,,,1,0,330,246,1,329,2,,,,,,
right,0.556999922,1,271,,,,,,,,,,,,,3,1,4,stim/14.jpeg,Instruments,2,stim/objects/Instruments/grandpiano.png,0.9,2,0.2,0.15,right,29,2020-12-05_10h53.08.914,premup-three_ses-02_part-02_label-phase2,3.2.4,Win32,60,,,,,,,,,,,,,,,,,1,0,330,169,1,329,2,,,,,,
right,0.499999762,1,272,,,,,,,,,,,,,3,1,4,stim/14.jpeg,Instruments,2,stim/objects/Instruments/guitarcase2.png,0.9,4,0.2,-0.15,right,29,2020-12-05_10h53.08.914,premup-three_ses-02_part-02_label-phase2,3.2.4,Win32,60,,,,,,,,,,,,,,,,,1,0,330,225,1,329,1,,,,,,
right,0.463999987,1,273,,,,,,,,,,,,,3,1,3,stim/13.jpeg,Instruments,2,stim/objects/Instruments/flute.png,0.9,2,0.2,0.15,right,29,2020-12-05_10h53.08.914,premup-three_ses-02_part-02_label-phase2,3.2.4,Win32,60,,,,,,,,,,,,,,,,,1,0,330,180,1,329,2,,,,,,
left,0.684000015,0,274,,,,,,,,,,,,,1,3,2,stim/32.jpeg,Instruments,2,stim/objects/Instruments/keyboard.png,0.5,2,0.2,0.15,right,29,2020-12-05_10h53.08.914,premup-three_ses-02_part-02_label-phase2,3.2.4,Win32,60,,,,,,,,,,,,,,,,,1,0,330,29,1,329,1,,,,,,
left,0.53399992,1,275,,,,,,,,,,,,,3,2,1,stim/21.jpeg,HouseObjects,1,stim/objects/HouseObjects/doormat.png,0.9,3,-0.2,-0.15,left,29,2020-12-05_10h53.08.914,premup-three_ses-02_part-02_label-phase2,3.2.4,Win32,60,,,,,,,,,,,,,,,,,1,0,330,270,1,329,2,,,,,,
right,0.819999933,1,276,,,,,,,,,,,,,2,5,4,stim/54.jpeg,Instruments,2,stim/objects/Instruments/acousticguitar2.png,0.7,1,-0.2,0.15,right,29,2020-12-05_10h53.08.914,premup-three_ses-02_part-02_label-phase2,3.2.4,Win32,60,,,,,,,,,,,,,,,,,1,0,330,91,1,329,1,,,,,,
right,0.636999846,1,277,,,,,,,,,,,,,3,1,4,stim/14.jpeg,Instruments,2,stim/objects/Instruments/grandpiano.png,0.9,4,0.2,-0.15,right,29,2020-12-05_10h53.08.914,premup-three_ses-02_part-02_label-phase2,3.2.4,Win32,60,,,,,,,,,,,,,,,,,1,0,330,149,1,329,2,,,,,,
right,0.473999977,1,278,,,,,,,,,,,,,3,1,3,stim/13.jpeg,Instruments,2,stim/objects/Instruments/gong.png,0.9,3,-0.2,-0.15,right,29,2020-12-05_10h53.08.914,premup-three_ses-02_part-02_label-phase2,3.2.4,Win32,60,,,,,,,,,,,,,,,,,1,0,330,188,1,329,2,,,,,,
left,0.684999943,1,279,,,,,,,,,,,,,3,2,3,stim/23.jpeg,HouseObjects,1,stim/objects/HouseObjects/knife2.png,0.9,3,-0.2,-0.15,left,29,2020-12-05_10h53.08.914,premup-three_ses-02_part-02_label-phase2,3.2.4,Win32,60,,,,,,,,,,,,,,,,,1,0,330,312,1,329,1,,,,,,
right,0.552999973,1,280,,,,,,,,,,,,,3,1,3,stim/13.jpeg,Instruments,2,stim/objects/Instruments/grandpiano.png,0.9,4,0.2,-0.15,right,29,2020-12-05_10h53.08.914,premup-three_ses-02_part-02_label-phase2,3.2.4,Win32,60,,,,,,,,,,,,,,,,,1,0,330,204,1,329,2,,,,,,
left,0.582999945,1,281,,,,,,,,,,,,,3,2,4,stim/24.jpeg,HouseObjects,1,stim/objects/HouseObjects/garbagebin.png,0.9,1,-0.2,0.15,left,29,2020-12-05_10h53.08.914,premup-three_ses-02_part-02_label-phase2,3.2.4,Win32,60,,,,,,,,,,,,,,,,,1,0,330,273,1,329,2,,,,,,
right,0.602999926,1,282,,,,,,,,,,,,,2,5,3,stim/53.jpeg,Instruments,2,stim/objects/Instruments/bassdrum2.png,0.7,2,0.2,0.15,right,29,2020-12-05_10h53.08.914,premup-three_ses-02_part-02_label-phase2,3.2.4,Win32,60,,,,,,,,,,,,,,,,,1,0,330,94,1,329,1,,,,,,
right,0.546000004,1,283,,,,,,,,,,,,,3,1,1,stim/11.jpeg,Instruments,2,stim/objects/Instruments/frenchhorn.png,0.9,1,-0.2,0.15,right,29,2020-12-05_10h53.08.914,premup-three_ses-02_part-02_label-phase2,3.2.4,Win32,60,,,,,,,,,,,,,,,,,1,0,330,142,1,329,2,,,,,,
right,0.528000116,1,284,,,,,,,,,,,,,2,5,4,stim/54.jpeg,Instruments,2,stim/objects/Instruments/doublebass.png,0.7,2,0.2,0.15,right,29,2020-12-05_10h53.08.914,premup-three_ses-02_part-02_label-phase2,3.2.4,Win32,60,,,,,,,,,,,,,,,,,1,0,330,71,1,329,2,,,,,,
right,0.505999804,1,285,,,,,,,,,,,,,3,1,4,stim/14.jpeg,Instruments,2,stim/objects/Instruments/flutetrans.png,0.9,3,-0.2,-0.15,right,29,2020-12-05_10h53.08.914,premup-three_ses-02_part-02_label-phase2,3.2.4,Win32,60,,,,,,,,,,,,,,,,,1,0,330,161,1,329,2,,,,,,
left,0.569000006,1,286,,,,,,,,,,,,,2,6,1,stim/61.jpeg,HouseObjects,1,stim/objects/HouseObjects/dishsoap.png,0.7,3,-0.2,-0.15,left,29,2020-12-05_10h53.08.914,premup-three_ses-02_part-02_label-phase2,3.2.4,Win32,60,,,,,,,,,,,,,,,,,1,0,330,99,1,329,2,,,,,,
left,0.552999973,0,287,,,,,,,,,,,,,1,4,4,stim/44.jpeg,Instruments,2,stim/objects/Instruments/musicsheet.png,0.5,2,0.2,0.15,right,29,2020-12-05_10h53.08.914,premup-three_ses-02_part-02_label-phase2,3.2.4,Win32,60,,,,,,,,,,,,,,,,,1,0,330,59,1,329,1,,,,,,
right,0.743000031,0,288,,,,,,,,,,,,,1,3,1,stim/31.jpeg,HouseObjects,1,stim/objects/HouseObjects/basket.png,0.5,3,-0.2,-0.15,left,29,2020-12-05_10h53.08.914,premup-three_ses-02_part-02_label-phase2,3.2.4,Win32,60,,,,,,,,,,,,,,,,,1,0,330,8,1,329,2,,,,,,
left,0.578000069,1,289,,,,,,,,,,,,,3,2,1,stim/21.jpeg,HouseObjects,1,stim/objects/HouseObjects/garbagebin.png,0.9,3,-0.2,-0.15,left,29,2020-12-05_10h53.08.914,premup-three_ses-02_part-02_label-phase2,3.2.4,Win32,60,,,,,,,,,,,,,,,,,1,0,330,238,1,329,2,,,,,,
left,0.718999863,1,290,,,,,,,,,,,,,1,3,4,stim/34.jpeg,HouseObjects,1,stim/objects/HouseObjects/barbecuelighter.png,0.5,1,-0.2,0.15,left,29,2020-12-05_10h53.08.914,premup-three_ses-02_part-02_label-phase2,3.2.4,Win32,60,,,,,,,,,,,,,,,,,1,0,330,7,1,329,2,,,,,,
left,0.572999954,1,291,,,,,,,,,,,,,3,2,3,stim/23.jpeg,HouseObjects,1,stim/objects/HouseObjects/garbagebin.png,0.9,3,-0.2,-0.15,left,29,2020-12-05_10h53.08.914,premup-three_ses-02_part-02_label-phase2,3.2.4,Win32,60,,,,,,,,,,,,,,,,,1,0,330,248,1,329,2,,,,,,
left,0.394000053,1,292,,,,,,,,,,,,,3,2,2,stim/22.jpeg,HouseObjects,1,stim/objects/HouseObjects/glass.png,0.9,3,-0.2,-0.15,left,29,2020-12-05_10h53.08.914,premup-three_ses-02_part-02_label-phase2,3.2.4,Win32,60,,,,,,,,,,,,,,,,,1,0,330,279,1,329,2,,,,,,
left,0.576999903,1,293,,,,,,,,,,,,,2,6,1,stim/61.jpeg,HouseObjects,1,stim/objects/HouseObjects/cushion.png,0.7,4,0.2,-0.15,left,29,2020-12-05_10h53.08.914,premup-three_ses-02_part-02_label-phase2,3.2.4,Win32,60,,,,,,,,,,,,,,,,,1,0,330,103,1,329,2,,,,,,
left,0.68599987,1,294,,,,,,,,,,,,,1,4,1,stim/41.jpeg,HouseObjects,1,stim/objects/HouseObjects/bottle.png,0.5,2,0.2,0.15,left,29,2020-12-05_10h53.08.914,premup-three_ses-02_part-02_label-phase2,3.2.4,Win32,60,,,,,,,,,,,,,,,,,1,0,330,36,1,329,2,,,,,,
right,0.558000088,1,295,,,,,,,,,,,,,3,1,2,stim/12.jpeg,Instruments,2,stim/objects/Instruments/frenchhorn.png,0.9,2,0.2,0.15,right,29,2020-12-05_10h53.08.914,premup-three_ses-02_part-02_label-phase2,3.2.4,Win32,60,,,,,,,,,,,,,,,,,1,0,330,147,1,329,2,,,,,,
left,0.495999813,1,296,,,,,,,,,,,,,3,2,2,stim/22.jpeg,HouseObjects,1,stim/objects/HouseObjects/dustpan.png,0.9,1,-0.2,0.15,left,29,2020-12-05_10h53.08.914,premup-three_ses-02_part-02_label-phase2,3.2.4,Win32,60,,,,,,,,,,,,,,,,,1,0,330,251,1,329,2,,,,,,
left,0.621000051,1,297,,,,,,,,,,,,,1,3,2,stim/32.jpeg,HouseObjects,1,stim/objects/HouseObjects/ashtray.png,0.5,2,0.2,0.15,left,29,2020-12-05_10h53.08.914,premup-three_ses-02_part-02_label-phase2,3.2.4,Win32,60,,,,,,,,,,,,,,,,,1,0,330,5,1,329,2,,,,,,
left,0.523999929,1,298,,,,,,,,,,,,,3,2,4,stim/24.jpeg,HouseObjects,1,stim/objects/HouseObjects/lintroller2.png,0.9,4,0.2,-0.15,left,29,2020-12-05_10h53.08.914,premup-three_ses-02_part-02_label-phase2,3.2.4,Win32,60,,,,,,,,,,,,,,,,,1,0,330,313,1,329,1,,,,,,
left,0.471999884,1,299,,,,,,,,,,,,,3,2,2,stim/22.jpeg,HouseObjects,1,stim/objects/HouseObjects/garbagebin.png,0.9,1,-0.2,0.15,left,29,2020-12-05_10h53.08.914,premup-three_ses-02_part-02_label-phase2,3.2.4,Win32,60,,,,,,,,,,,,,,,,,1,0,330,283,1,329,2,,,,,,
right,0.602999926,1,300,,,,,,,,,,,,,3,1,4,stim/14.jpeg,Instruments,2,stim/objects/Instruments/frenchhorn.png,0.9,1,-0.2,0.15,right,29,2020-12-05_10h53.08.914,premup-three_ses-02_part-02_label-phase2,3.2.4,Win32,60,,,,,,,,,,,,,,,,,1,0,330,177,1,329,2,,,,,,
right,0.47699976,1,301,,,,,,,,,,,,,3,1,2,stim/12.jpeg,Instruments,2,stim/objects/Instruments/gong.png,0.9,4,0.2,-0.15,right,29,2020-12-05_10h53.08.914,premup-three_ses-02_part-02_label-phase2,3.2.4,Win32,60,,,,,,,,,,,,,,,,,1,0,330,183,1,329,2,,,,,,
left,0.47699976,1,302,,,,,,,,,,,,,2,5,4,stim/54.jpeg,HouseObjects,1,stim/objects/HouseObjects/barbecuelighter2.png,0.3,1,-0.2,0.15,left,29,2020-12-05_10h53.08.914,premup-three_ses-02_part-02_label-phase2,3.2.4,Win32,60,,,,,,,,,,,,,,,,,1,0,330,67,1,329,1,,,,,,
left,0.45299983,0,303,,,,,,,,,,,,,2,5,4,stim/54.jpeg,Instruments,2,stim/objects/Instruments/electricguitar.png,0.7,1,-0.2,0.15,right,29,2020-12-05_10h53.08.914,premup-three_ses-02_part-02_label-phase2,3.2.4,Win32,60,,,,,,,,,,,,,,,,,1,0,330,79,1,329,2,,,,,,
right,0.56799984,1,304,,,,,,,,,,,,,1,4,1,stim/41.jpeg,Instruments,2,stim/objects/Instruments/chime.png,0.5,2,0.2,0.15,right,29,2020-12-05_10h53.08.914,premup-three_ses-02_part-02_label-phase2,3.2.4,Win32,60,,,,,,,,,,,,,,,,,1,0,330,52,1,329,2,,,,,,
left,0.480999947,0,305,,,,,,,,,,,,,2,6,1,stim/61.jpeg,Instruments,2,stim/objects/Instruments/drums2.png,0.3,3,-0.2,-0.15,right,29,2020-12-05_10h53.08.914,premup-three_ses-02_part-02_label-phase2,3.2.4,Win32,60,,,,,,,,,,,,,,,,,1,0,330,127,1,329,1,,,,,,
left,0.569999933,1,306,,,,,,,,,,,,,2,6,2,stim/62.jpeg,HouseObjects,1,stim/objects/HouseObjects/broom2.png,0.7,2,0.2,0.15,left,29,2020-12-05_10h53.08.914,premup-three_ses-02_part-02_label-phase2,3.2.4,Win32,60,,,,,,,,,,,,,,,,,1,0,330,112,1,329,1,,,,,,
left,0.619999886,1,307,,,,,,,,,,,,,2,6,4,stim/64.jpeg,HouseObjects,1,stim/objects/HouseObjects/clothespin.png,0.7,3,-0.2,-0.15,left,29,2020-12-05_10h53.08.914,premup-three_ses-02_part-02_label-phase2,3.2.4,Win32,60,,,,,,,,,,,,,,,,,1,0,330,106,1,329,2,,,,,,
left,0.446999788,1,308,,,,,,,,,,,,,3,2,4,stim/24.jpeg,HouseObjects,1,stim/objects/HouseObjects/doormat.png,0.9,2,0.2,0.15,left,29,2020-12-05_10h53.08.914,premup-three_ses-02_part-02_label-phase2,3.2.4,Win32,60,,,,,,,,,,,,,,,,,1,0,330,305,1,329,2,,,,,,
left,0.646999836,0,309,,,,,,,,,,,,,1,3,2,stim/32.jpeg,Instruments,2,stim/objects/Instruments/balalaika.png,0.5,1,-0.2,0.15,right,29,2020-12-05_10h53.08.914,premup-three_ses-02_part-02_label-phase2,3.2.4,Win32,60,,,,,,,,,,,,,,,,,1,0,330,17,1,329,2,,,,,,
left,0.544000149,1,310,,,,,,,,,,,,,3,2,3,stim/23.jpeg,HouseObjects,1,stim/objects/HouseObjects/doormat.png,0.9,3,-0.2,-0.15,left,29,2020-12-05_10h53.08.914,premup-three_ses-02_part-02_label-phase2,3.2.4,Win32,60,,,,,,,,,,,,,,,,,1,0,330,300,1,329,2,,,,,,
left,0.457999945,0,311,,,,,,,,,,,,,2,6,3,stim/63.jpeg,Instruments,2,stim/objects/Instruments/cello2.png,0.3,4,0.2,-0.15,right,29,2020-12-05_10h53.08.914,premup-three_ses-02_part-02_label-phase2,3.2.4,Win32,60,,,,,,,,,,,,,,,,,1,0,330,121,1,329,1,,,,,,
left,0.519999981,0,312,,,,,,,,,,,,,3,1,2,stim/12.jpeg,Instruments,2,stim/objects/Instruments/frenchhorn.png,0.9,1,-0.2,0.15,right,29,2020-12-05_10h53.08.914,premup-three_ses-02_part-02_label-phase2,3.2.4,Win32,60,,,,,,,,,,,,,,,,,1,0,330,187,1,329,2,,,,,,
left,0.644000053,1,313,,,,,,,,,,,,,1,4,2,stim/42.jpeg,HouseObjects,1,stim/objects/HouseObjects/key.png,0.5,4,0.2,-0.15,left,29,2020-12-05_10h53.08.914,premup-three_ses-02_part-02_label-phase2,3.2.4,Win32,60,,,,,,,,,,,,,,,,,1,0,330,41,1,329,1,,,,,,
left,0.486000061,0,314,,,,,,,,,,,,,3,2,4,stim/24.jpeg,Instruments,2,stim/objects/Instruments/record2.png,0.1,3,-0.2,-0.15,right,29,2020-12-05_10h53.08.914,premup-three_ses-02_part-02_label-phase2,3.2.4,Win32,60,,,,,,,,,,,,,,,,,1,0,330,329,1,329,1,,,,,,
right,0.770999908,0,315,,,,,,,,,,,,,3,1,1,stim/11.jpeg,HouseObjects,1,stim/objects/HouseObjects/handvacuum2.png,0.1,2,0.2,0.15,left,29,2020-12-05_10h53.08.914,premup-three_ses-02_part-02_label-phase2,3.2.4,Win32,60,,,,,,,,,,,,,,,,,1,0,330,138,1,329,1,,,,,,
left,0.713000059,1,316,,,,,,,,,,,,,3,2,3,stim/23.jpeg,HouseObjects,1,stim/objects/HouseObjects/doormat.png,0.9,2,0.2,0.15,left,29,2020-12-05_10h53.08.914,premup-three_ses-02_part-02_label-phase2,3.2.4,Win32,60,,,,,,,,,,,,,,,,,1,0,330,240,1,329,2,,,,,,
right,0.822000027,1,317,,,,,,,,,,,,,1,4,1,stim/41.jpeg,Instruments,2,stim/objects/Instruments/clarinet.png,0.5,4,0.2,-0.15,right,29,2020-12-05_10h53.08.914,premup-three_ses-02_part-02_label-phase2,3.2.4,Win32,60,,,,,,,,,,,,,,,,,1,0,330,48,1,329,2,,,,,,
left,0.480999947,1,318,,,,,,,,,,,,,3,2,3,stim/23.jpeg,HouseObjects,1,stim/objects/HouseObjects/garbagebin.png,0.9,2,0.2,0.15,left,29,2020-12-05_10h53.08.914,premup-three_ses-02_part-02_label-phase2,3.2.4,Win32,60,,,,,,,,,,,,,,,,,1,0,330,268,1,329,2,,,,,,
right,0.564999819,1,319,,,,,,,,,,,,,3,1,2,stim/12.jpeg,Instruments,2,stim/objects/Instruments/grandpiano.png,0.9,2,0.2,0.15,right,29,2020-12-05_10h53.08.914,premup-three_ses-02_part-02_label-phase2,3.2.4,Win32,60,,,,,,,,,,,,,,,,,1,0,330,159,1,329,2,,,,,,
right,0.838000059,0,320,,,,,,,,,,,,,1,3,3,stim/33.jpeg,HouseObjects,1,stim/objects/HouseObjects/ballofstring.png,0.5,1,-0.2,0.15,left,29,2020-12-05_10h53.08.914,premup-three_ses-02_part-02_label-phase2,3.2.4,Win32,60,,,,,,,,,,,,,,,,,1,0,330,6,1,329,2,,,,,,
left,0.427999973,1,321,,,,,,,,,,,,,3,2,2,stim/22.jpeg,HouseObjects,1,stim/objects/HouseObjects/flyswatter.png,0.9,3,-0.2,-0.15,left,29,2020-12-05_10h53.08.914,premup-three_ses-02_part-02_label-phase2,3.2.4,Win32,60,,,,,,,,,,,,,,,,,1,0,330,307,1,329,2,,,,,,
right,0.485999823,1,322,,,,,,,,,,,,,3,1,3,stim/13.jpeg,Instruments,2,stim/objects/Instruments/flutetrans.png,0.9,2,0.2,0.15,right,29,2020-12-05_10h53.08.914,premup-three_ses-02_part-02_label-phase2,3.2.4,Win32,60,,,,,,,,,,,,,,,,,1,0,330,196,1,329,2,,,,,,
left,0.487999916,1,323,,,,,,,,,,,,,3,2,2,stim/22.jpeg,HouseObjects,1,stim/objects/HouseObjects/flyswatter.png,0.9,1,-0.2,0.15,left,29,2020-12-05_10h53.08.914,premup-three_ses-02_part-02_label-phase2,3.2.4,Win32,60,,,,,,,,,,,,,,,,,1,0,330,287,1,329,2,,,,,,
right,0.49399972,1,324,,,,,,,,,,,,,3,1,4,stim/14.jpeg,Instruments,2,stim/objects/Instruments/gong.png,0.9,1,-0.2,0.15,right,29,2020-12-05_10h53.08.914,premup-three_ses-02_part-02_label-phase2,3.2.4,Win32,60,,,,,,,,,,,,,,,,,1,0,330,213,1,329,2,,,,,,
right,0.514999866,1,325,,,,,,,,,,,,,3,1,2,stim/12.jpeg,Instruments,2,stim/objects/Instruments/flute.png,0.9,2,0.2,0.15,right,29,2020-12-05_10h53.08.914,premup-three_ses-02_part-02_label-phase2,3.2.4,Win32,60,,,,,,,,,,,,,,,,,1,0,330,195,1,329,2,,,,,,
right,0.488999844,1,326,,,,,,,,,,,,,3,1,1,stim/11.jpeg,Instruments,2,stim/objects/Instruments/grandpiano.png,0.9,3,-0.2,-0.15,right,29,2020-12-05_10h53.08.914,premup-three_ses-02_part-02_label-phase2,3.2.4,Win32,60,,,,,,,,,,,,,,,,,1,0,330,194,1,329,2,,,,,,
left,0.536000013,1,327,,,,,,,,,,,,,1,4,1,stim/41.jpeg,HouseObjects,1,stim/objects/HouseObjects/broom.png,0.5,4,0.2,-0.15,left,29,2020-12-05_10h53.08.914,premup-three_ses-02_part-02_label-phase2,3.2.4,Win32,60,,,,,,,,,,,,,,,,,1,0,330,32,1,329,2,,,,,,
left,0.728999853,1,328,,,,,,,,,,,,,2,5,1,stim/51.jpeg,HouseObjects,1,stim/objects/HouseObjects/basket2.png,0.3,3,-0.2,-0.15,left,29,2020-12-05_10h53.08.914,premup-three_ses-02_part-02_label-phase2,3.2.4,Win32,60,,,,,,,,,,,,,,,,,1,0,330,68,1,329,1,,,,,,
left,0.684000015,0,329,,,,,,,,,,,,,1,4,4,stim/44.jpeg,Instruments,2,stim/objects/Instruments/cello.png,0.5,4,0.2,-0.15,right,29,2020-12-05_10h53.08.914,premup-three_ses-02_part-02_label-phase2,3.2.4,Win32,60,,,,,,,,,,,,,,,,,1,0,330,51,1,329,2,,,,,,
right,0.625,1,330,,,,,,,,,,,,,3,1,4,stim/14.jpeg,Instruments,2,stim/objects/Instruments/grandpiano.png,0.9,4,0.2,-0.15,right,29,2020-12-05_10h53.08.914,premup-three_ses-02_part-02_label-phase2,3.2.4,Win32,60,,,,,,,,,,,,,,,,,1,0,330,209,1,329,2,,,,,,
left,0.506000042,1,331,,,,,,,,,,,,,3,2,1,stim/21.jpeg,HouseObjects,1,stim/objects/HouseObjects/glass.png,0.9,1,-0.2,0.15,left,29,2020-12-05_10h53.08.914,premup-three_ses-02_part-02_label-phase2,3.2.4,Win32,60,,,,,,,,,,,,,,,,,1,0,330,254,1,329,2,,,,,,
right,0.627999783,1,332,,,,,,,,,,,,,3,1,2,stim/12.jpeg,Instruments,2,stim/objects/Instruments/grandpiano.png,0.9,3,-0.2,-0.15,right,29,2020-12-05_10h53.08.914,premup-three_ses-02_part-02_label-phase2,3.2.4,Win32,60,,,,,,,,,,,,,,,,,1,0,330,219,1,329,2,,,,,,
left,0.631000042,0,333,,,,,,,,,,,,,1,4,1,stim/41.jpeg,Instruments,2,stim/objects/Instruments/maraca.png,0.5,3,-0.2,-0.15,right,29,2020-12-05_10h53.08.914,premup-three_ses-02_part-02_label-phase2,3.2.4,Win32,60,,,,,,,,,,,,,,,,,1,0,330,56,1,329,1,,,,,,
left,0.665999889,1,334,,,,,,,,,,,,,3,2,2,stim/22.jpeg,HouseObjects,1,stim/objects/HouseObjects/pan2.png,0.9,3,-0.2,-0.15,left,29,2020-12-05_10h53.08.914,premup-three_ses-02_part-02_label-phase2,3.2.4,Win32,60,,,,,,,,,,,,,,,,,1,0,330,315,1,329,1,,,,,,
left,0.43599987,1,335,,,,,,,,,,,,,3,2,4,stim/24.jpeg,HouseObjects,1,stim/objects/HouseObjects/dustpan.png,0.9,4,0.2,-0.15,left,29,2020-12-05_10h53.08.914,premup-three_ses-02_part-02_label-phase2,3.2.4,Win32,60,,,,,,,,,,,,,,,,,1,0,330,261,1,329,2,,,,,,
left,0.421999931,0,336,,,,,,,,,,,,,3,2,3,stim/23.jpeg,Instruments,2,stim/objects/Instruments/musicsheet2.png,0.1,4,0.2,-0.15,right,29,2020-12-05_10h53.08.914,premup-three_ses-02_part-02_label-phase2,3.2.4,Win32,60,,,,,,,,,,,,,,,,,1,0,330,324,1,329,1,,,,,,
right,0.552000046,1,337,,,,,,,,,,,,,3,1,3,stim/13.jpeg,Instruments,2,stim/objects/Instruments/flutetrans.png,0.9,2,0.2,0.15,right,29,2020-12-05_10h53.08.914,premup-three_ses-02_part-02_label-phase2,3.2.4,Win32,60,,,,,,,,,,,,,,,,,1,0,330,216,1,329,2,,,,,,
right,0.479000092,1,338,,,,,,,,,,,,,3,1,4,stim/14.jpeg,Instruments,2,stim/objects/Instruments/gong.png,0.9,4,0.2,-0.15,right,29,2020-12-05_10h53.08.914,premup-three_ses-02_part-02_label-phase2,3.2.4,Win32,60,,,,,,,,,,,,,,,,,1,0,330,153,1,329,2,,,,,,
right,0.481999874,1,339,,,,,,,,,,,,,3,1,4,stim/14.jpeg,Instruments,2,stim/objects/Instruments/grandpiano.png,0.9,2,0.2,0.15,right,29,2020-12-05_10h53.08.914,premup-three_ses-02_part-02_label-phase2,3.2.4,Win32,60,,,,,,,,,,,,,,,,,1,0,330,189,1,329,2,,,,,,
left,0.523999929,1,340,,,,,,,,,,,,,3,2,1,stim/21.jpeg,HouseObjects,1,stim/objects/HouseObjects/match2.png,0.9,2,0.2,0.15,left,29,2020-12-05_10h53.08.914,premup-three_ses-02_part-02_label-phase2,3.2.4,Win32,60,,,,,,,,,,,,,,,,,1,0,330,314,1,329,1,,,,,,
left,0.720999956,0,341,,,,,,,,,,,,,2,5,1,stim/51.jpeg,Instruments,2,stim/objects/Instruments/electricguitar.png,0.7,1,-0.2,0.15,right,29,2020-12-05_10h53.08.914,premup-three_ses-02_part-02_label-phase2,3.2.4,Win32,60,,,,,,,,,,,,,,,,,1,0,330,84,1,329,2,,,,,,
right,0.570999861,1,342,,,,,,,,,,,,,3,1,4,stim/14.jpeg,Instruments,2,stim/objects/Instruments/flute.png,0.9,2,0.2,0.15,right,29,2020-12-05_10h53.08.914,premup-three_ses-02_part-02_label-phase2,3.2.4,Win32,60,,,,,,,,,,,,,,,,,1,0,330,165,1,329,2,,,,,,
right,0.412999868,1,343,,,,,,,,,,,,,3,1,4,stim/14.jpeg,Instruments,2,stim/objects/Instruments/gong.png,0.9,3,-0.2,-0.15,right,29,2020-12-05_10h53.08.914,premup-three_ses-02_part-02_label-phase2,3.2.4,Win32,60,,,,,,,,,,,,,,,,,1,0,330,193,1,329,2,,,,,,
right,0.398999929,0,344,,,,,,,,,,,,,3,2,1,stim/21.jpeg,HouseObjects,1,stim/objects/HouseObjects/glass.png,0.9,4,0.2,-0.15,left,29,2020-12-05_10h53.08.914,premup-three_ses-02_part-02_label-phase2,3.2.4,Win32,60,,,,,,,,,,,,,,,,,1,0,330,234,1,329,2,,,,,,
left,0.598999739,1,345,,,,,,,,,,,,,2,6,4,stim/64.jpeg,HouseObjects,1,stim/objects/HouseObjects/clock2.png,0.7,1,-0.2,0.15,left,29,2020-12-05_10h53.08.914,premup-three_ses-02_part-02_label-phase2,3.2.4,Win32,60,,,,,,,,,,,,,,,,,1,0,330,114,1,329,1,,,,,,
right,0.707000017,1,346,,,,,,,,,,,,,2,5,2,stim/52.jpeg,Instruments,2,stim/objects/Instruments/electricdrumset.png,0.7,3,-0.2,-0.15,right,29,2020-12-05_10h53.08.914,premup-three_ses-02_part-02_label-phase2,3.2.4,Win32,60,,,,,,,,,,,,,,,,,1,0,330,73,1,329,2,,,,,,
left,0.457999945,1,347,,,,,,,,,,,,,3,2,4,stim/24.jpeg,HouseObjects,1,stim/objects/HouseObjects/flyswatter.png,0.9,3,-0.2,-0.15,left,29,2020-12-05_10h53.08.914,premup-three_ses-02_part-02_label-phase2,3.2.4,Win32,60,,,,,,,,,,,,,,,,,1,0,330,257,1,329,2,,,,,,
right,0.532999992,1,348,,,,,,,,,,,,,3,1,2,stim/12.jpeg,Instruments,2,stim/objects/Instruments/flute.png,0.9,2,0.2,0.15,right,29,2020-12-05_10h53.08.914,premup-three_ses-02_part-02_label-phase2,3.2.4,Win32,60,,,,,,,,,,,,,,,,,1,0,330,215,1,329,2,,,,,,
right,0.633999825,0,349,,,,,,,,,,,,,1,3,1,stim/31.jpeg,HouseObjects,1,stim/objects/HouseObjects/ashtray.png,0.5,1,-0.2,0.15,left,29,2020-12-05_10h53.08.914,premup-three_ses-02_part-02_label-phase2,3.2.4,Win32,60,,,,,,,,,,,,,,,,,1,0,330,0,1,329,2,,,,,,
left,0.467999935,1,350,,,,,,,,,,,,,2,6,2,stim/62.jpeg,HouseObjects,1,stim/objects/HouseObjects/clothespin.png,0.7,2,0.2,0.15,left,29,2020-12-05_10h53.08.914,premup-three_ses-02_part-02_label-phase2,3.2.4,Win32,60,,,,,,,,,,,,,,,,,1,0,330,96,1,329,2,,,,,,
left,0.739000082,0,351,,,,,,,,,,,,,1,3,3,stim/33.jpeg,Instruments,2,stim/objects/Instruments/banjo.png,0.5,2,0.2,0.15,right,29,2020-12-05_10h53.08.914,premup-three_ses-02_part-02_label-phase2,3.2.4,Win32,60,,,,,,,,,,,,,,,,,1,0,330,18,1,329,2,,,,,,
,,0,352,,,,,,,,,,,,,2,5,3,stim/53.jpeg,Instruments,2,stim/objects/Instruments/electricguitar.png,0.7,4,0.2,-0.15,right,29,2020-12-05_10h53.08.914,premup-three_ses-02_part-02_label-phase2,3.2.4,Win32,60,,,,,,,,,,,,,,,,,1,0,330,74,1,329,2,,,,,,
right,0.616999865,1,353,,,,,,,,,,,,,3,1,1,stim/11.jpeg,Instruments,2,stim/objects/Instruments/gong.png,0.9,2,0.2,0.15,right,29,2020-12-05_10h53.08.914,premup-three_ses-02_part-02_label-phase2,3.2.4,Win32,60,,,,,,,,,,,,,,,,,1,0,330,198,1,329,2,,,,,,
right,0.609999895,0,354,,,,,,,,,,,,,3,1,1,stim/11.jpeg,HouseObjects,1,stim/objects/HouseObjects/glass2.png,0.1,4,0.2,-0.15,left,29,2020-12-05_10h53.08.914,premup-three_ses-02_part-02_label-phase2,3.2.4,Win32,60,,,,,,,,,,,,,,,,,1,0,330,134,1,329,1,,,,,,
right,0.652999878,0,355,,,,,,,,,,,,,3,2,4,stim/24.jpeg,HouseObjects,1,stim/objects/HouseObjects/garbagebin.png,0.9,3,-0.2,-0.15,left,29,2020-12-05_10h53.08.914,premup-three_ses-02_part-02_label-phase2,3.2.4,Win32,60,,,,,,,,,,,,,,,,,1,0,330,233,1,329,2,,,,,,
right,0.633999825,1,356,,,,,,,,,,,,,2,5,2,stim/52.jpeg,Instruments,2,stim/objects/Instruments/musicstand.png,0.7,2,0.2,0.15,right,29,2020-12-05_10h53.08.914,premup-three_ses-02_part-02_label-phase2,3.2.4,Win32,60,,,,,,,,,,,,,,,,,1,0,330,85,1,329,1,,,,,,
right,0.772000074,1,357,,,,,,,,,,,,,2,5,4,stim/54.jpeg,Instruments,2,stim/objects/Instruments/electricdrumset.png,0.7,1,-0.2,0.15,right,29,2020-12-05_10h53.08.914,premup-three_ses-02_part-02_label-phase2,3.2.4,Win32,60,,,,,,,,,,,,,,,,,1,0,330,83,1,329,2,,,,,,
left,0.484999895,1,358,,,,,,,,,,,,,3,2,3,stim/23.jpeg,HouseObjects,1,stim/objects/HouseObjects/dustpan.png,0.9,4,0.2,-0.15,left,29,2020-12-05_10h53.08.914,premup-three_ses-02_part-02_label-phase2,3.2.4,Win32,60,,,,,,,,,,,,,,,,,1,0,330,296,1,329,2,,,,,,
,,0,359,,,,,,,,,,,,,1,3,2,stim/32.jpeg,HouseObjects,1,stim/objects/HouseObjects/bleachbottle.png,0.5,3,-0.2,-0.15,left,29,2020-12-05_10h53.08.914,premup-three_ses-02_part-02_label-phase2,3.2.4,Win32,60,,,,,,,,,,,,,,,,,1,0,330,9,1,329,2,,,,,,
left,0.555999994,1,360,,,,,,,,,,,,,1,4,4,stim/44.jpeg,HouseObjects,1,stim/objects/HouseObjects/blender.png,0.5,2,0.2,0.15,left,29,2020-12-05_10h53.08.914,premup-three_ses-02_part-02_label-phase2,3.2.4,Win32,60,,,,,,,,,,,,,,,,,1,0,330,35,1,329,2,,,,,,
left,0.705999851,0,361,,,,,,,,,,,,,1,4,2,stim/42.jpeg,Instruments,2,stim/objects/Instruments/bassguitar.png,0.5,4,0.2,-0.15,right,29,2020-12-05_10h53.08.914,premup-three_ses-02_part-02_label-phase2,3.2.4,Win32,60,,,,,,,,,,,,,,,,,1,0,330,45,1,329,2,,,,,,
right,0.680000067,0,362,,,,,,,,,,,,,1,3,3,stim/33.jpeg,HouseObjects,1,stim/objects/HouseObjects/glassmop.png,0.5,1,-0.2,0.15,left,29,2020-12-05_10h53.08.914,premup-three_ses-02_part-02_label-phase2,3.2.4,Win32,60,,,,,,,,,,,,,,,,,1,0,330,10,1,329,1,,,,,,
left,0.514999866,0,363,,,,,,,,,,,,,2,6,2,stim/62.jpeg,Instruments,2,stim/objects/Instruments/cornet2.png,0.3,2,0.2,0.15,right,29,2020-12-05_10h53.08.914,premup-three_ses-02_part-02_label-phase2,3.2.4,Win32,60,,,,,,,,,,,,,,,,,1,0,330,124,1,329,1,,,,,,
right,0.639999866,1,364,,,,,,,,,,,,,3,1,2,stim/12.jpeg,Instruments,2,stim/objects/Instruments/flutetrans.png,0.9,3,-0.2,-0.15,right,29,2020-12-05_10h53.08.914,premup-three_ses-02_part-02_label-phase2,3.2.4,Win32,60,,,,,,,,,,,,,,,,,1,0,330,191,1,329,2,,,,,,
right,0.46600008,1,365,,,,,,,,,,,,,3,1,1,stim/11.jpeg,Instruments,2,stim/objects/Instruments/frenchhorn.png,0.9,4,0.2,-0.15,right,29,2020-12-05_10h53.08.914,premup-three_ses-02_part-02_label-phase2,3.2.4,Win32,60,,,,,,,,,,,,,,,,,1,0,330,162,1,329,2,,,,,,
left,0.512000084,1,366,,,,,,,,,,,,,3,2,4,stim/24.jpeg,HouseObjects,1,stim/objects/HouseObjects/recyclingbin2.png,0.9,1,-0.2,0.15,left,29,2020-12-05_10h53.08.914,premup-three_ses-02_part-02_label-phase2,3.2.4,Win32,60,,,,,,,,,,,,,,,,,1,0,330,317,1,329,1,,,,,,
left,0.511999846,1,367,,,,,,,,,,,,,3,2,1,stim/21.jpeg,HouseObjects,1,stim/objects/HouseObjects/remote2.png,0.9,2,0.2,0.15,left,29,2020-12-05_10h53.08.914,premup-three_ses-02_part-02_label-phase2,3.2.4,Win32,60,,,,,,,,,,,,,,,,,1,0,330,318,1,329,1,,,,,,
right,0.569999933,1,368,,,,,,,,,,,,,1,3,4,stim/34.jpeg,Instruments,2,stim/objects/Instruments/accordion.png,0.5,1,-0.2,0.15,right,29,2020-12-05_10h53.08.914,premup-three_ses-02_part-02_label-phase2,3.2.4,Win32,60,,,,,,,,,,,,,,,,,1,0,330,15,1,329,2,,,,,,
left,0.519000053,1,369,,,,,,,,,,,,,3,2,3,stim/23.jpeg,HouseObjects,1,stim/objects/HouseObjects/garbagebin.png,0.9,1,-0.2,0.15,left,29,2020-12-05_10h53.08.914,premup-three_ses-02_part-02_label-phase2,3.2.4,Win32,60,,,,,,,,,,,,,,,,,1,0,330,288,1,329,2,,,,,,
left,0.492999792,1,370,,,,,,,,,,,,,3,2,4,stim/24.jpeg,HouseObjects,1,stim/objects/HouseObjects/doormat.png,0.9,4,0.2,-0.15,left,29,2020-12-05_10h53.08.914,premup-three_ses-02_part-02_label-phase2,3.2.4,Win32,60,,,,,,,,,,,,,,,,,1,0,330,265,1,329,2,,,,,,
left,0.798999786,1,371,,,,,,,,,,,,,1,4,2,stim/42.jpeg,HouseObjects,1,stim/objects/HouseObjects/broom.png,0.5,1,-0.2,0.15,left,29,2020-12-05_10h53.08.914,premup-three_ses-02_part-02_label-phase2,3.2.4,Win32,60,,,,,,,,,,,,,,,,,1,0,330,37,1,329,2,,,,,,
left,0.493000031,1,372,,,,,,,,,,,,,3,2,4,stim/24.jpeg,HouseObjects,1,stim/objects/HouseObjects/flyswatter.png,0.9,4,0.2,-0.15,left,29,2020-12-05_10h53.08.914,premup-three_ses-02_part-02_label-phase2,3.2.4,Win32,60,,,,,,,,,,,,,,,,,1,0,330,277,1,329,2,,,,,,
right,0.529000044,0,373,,,,,,,,,,,,,1,3,1,stim/31.jpeg,HouseObjects,1,stim/objects/HouseObjects/handbrush.png,0.5,4,0.2,-0.15,left,29,2020-12-05_10h53.08.914,premup-three_ses-02_part-02_label-phase2,3.2.4,Win32,60,,,,,,,,,,,,,,,,,1,0,330,12,1,329,1,,,,,,
left,0.545999765,1,374,,,,,,,,,,,,,2,6,4,stim/64.jpeg,HouseObjects,1,stim/objects/HouseObjects/blender2.png,0.7,2,0.2,0.15,left,29,2020-12-05_10h53.08.914,premup-three_ses-02_part-02_label-phase2,3.2.4,Win32,60,,,,,,,,,,,,,,,,,1,0,330,110,1,329,1,,,,,,
left,0.482000113,0,375,,,,,,,,,,,,,3,1,4,stim/14.jpeg,Instruments,2,stim/objects/Instruments/frenchhorn.png,0.9,1,-0.2,0.15,right,29,2020-12-05_10h53.08.914,premup-three_ses-02_part-02_label-phase2,3.2.4,Win32,60,,,,,,,,,,,,,,,,,1,0,330,157,1,329,2,,,,,,
left,0.57400012,1,376,,,,,,,,,,,,,3,2,1,stim/21.jpeg,HouseObjects,1,stim/objects/HouseObjects/glass.png,0.9,1,-0.2,0.15,left,29,2020-12-05_10h53.08.914,premup-three_ses-02_part-02_label-phase2,3.2.4,Win32,60,,,,,,,,,,,,,,,,,1,0,330,274,1,329,2,,,,,,
right,0.559999943,1,377,,,,,,,,,,,,,3,1,2,stim/12.jpeg,Instruments,2,stim/objects/Instruments/flutetrans.png,0.9,4,0.2,-0.15,right,29,2020-12-05_10h53.08.914,premup-three_ses-02_part-02_label-phase2,3.2.4,Win32,60,,,,,,,,,,,,,,,,,1,0,330,151,1,329,2,,,,,,
right,0.436999798,0,378,,,,,,,,,,,,,3,2,1,stim/21.jpeg,HouseObjects,1,stim/objects/HouseObjects/doormat.png,0.9,2,0.2,0.15,left,29,2020-12-05_10h53.08.914,premup-three_ses-02_part-02_label-phase2,3.2.4,Win32,60,,,,,,,,,,,,,,,,,1,0,330,290,1,329,2,,,,,,
right,0.656999826,0,379,,,,,,,,,,,,,2,5,2,stim/52.jpeg,HouseObjects,1,stim/objects/HouseObjects/bleachbottle2.png,0.3,4,0.2,-0.15,left,29,2020-12-05_10h53.08.914,premup-three_ses-02_part-02_label-phase2,3.2.4,Win32,60,,,,,,,,,,,,,,,,,1,0,330,69,1,329,1,,,,,,
left,0.595000029,1,380,,,,,,,,,,,,,1,4,4,stim/44.jpeg,HouseObjects,1,stim/objects/HouseObjects/clock.png,0.5,1,-0.2,0.15,left,29,2020-12-05_10h53.08.914,premup-three_ses-02_part-02_label-phase2,3.2.4,Win32,60,,,,,,,,,,,,,,,,,1,0,330,39,1,329,2,,,,,,
left,0.529999971,1,381,,,,,,,,,,,,,1,4,3,stim/43.jpeg,HouseObjects,1,stim/objects/HouseObjects/knife.png,0.5,1,-0.2,0.15,left,29,2020-12-05_10h53.08.914,premup-three_ses-02_part-02_label-phase2,3.2.4,Win32,60,,,,,,,,,,,,,,,,,1,0,330,42,1,329,1,,,,,,
left,0.464999914,1,382,,,,,,,,,,,,,3,2,2,stim/22.jpeg,HouseObjects,1,stim/objects/HouseObjects/key2.png,0.9,3,-0.2,-0.15,left,29,2020-12-05_10h53.08.914,premup-three_ses-02_part-02_label-phase2,3.2.4,Win32,60,,,,,,,,,,,,,,,,,1,0,330,311,1,329,1,,,,,,
