key_resp_pract.keys,key_resp_pract.rt,trial_acc,trial_index,practice_loop.thisRepN,practice_loop.thisTrialN,practice_loop.thisN,practice_loop.thisIndex,practice_loop.ran,practice_loop.order,scn_condition,scn_cat,scn_inst,scn_file,obj_cat,obj_cat_num,obj_file,trial_cond,quadrant,obj_x,obj_y,corr_ans,participant,date,expName,psychopyVersion,OS,frameRate,key_resp_trial.keys,key_resp_trial.rt,iterations.thisRepN,iterations.thisTrialN,iterations.thisN,iterations.thisIndex,iterations.ran,iterations.order,task_innerloop.thisRepN,task_innerloop.thisTrialN,task_innerloop.thisN,task_innerloop.thisIndex,task_innerloop.ran,task_innerloop.order,iteration_index,rating_acc,slider.response,slider.rt,slider_2.response,slider_2.rt,ratings.thisRepN,ratings.thisTrialN,ratings.thisN,ratings.thisIndex,ratings.ran,ratings.order,obj_cat_top,min_resp_top,max_resp_top,obj_cat_bottom,min_resp_bottom,max_resp_bottom
left,1.27699995,1,1,1,0,240,134,1,239,2,6,3,stim/63.jpeg,HouseObjects,1,stim/objects/HouseObjects/saw2.png,0.7,4,0.2,-0.15,left,29,2020-12-04_09h56.18.718,premup-three_ses-01_part-01_label-phase1,3.2.4,Win32,60,,,,,,,,,,,,,,,,,,,,,,,,,,,,,,,,
right,1.174000025,1,2,1,0,240,26,1,239,1,3,3,stim/33.jpeg,Instruments,2,stim/objects/Instruments/speaker.png,0.5,1,-0.2,0.15,right,29,2020-12-04_09h56.18.718,premup-three_ses-01_part-01_label-phase1,3.2.4,Win32,60,,,,,,,,,,,,,,,,,,,,,,,,,,,,,,,,
right,0.763000011,1,3,1,0,240,25,1,239,1,3,2,stim/32.jpeg,Instruments,2,stim/objects/Instruments/saxophone.png,0.5,3,-0.2,-0.15,right,29,2020-12-04_09h56.18.718,premup-three_ses-01_part-01_label-phase1,3.2.4,Win32,60,,,,,,,,,,,,,,,,,,,,,,,,,,,,,,,,
left,0.955999851,1,4,1,0,240,42,1,239,1,4,3,stim/43.jpeg,HouseObjects,1,stim/objects/HouseObjects/teapot.png,0.5,4,0.2,-0.15,left,29,2020-12-04_09h56.18.718,premup-three_ses-01_part-01_label-phase1,3.2.4,Win32,60,,,,,,,,,,,,,,,,,,,,,,,,,,,,,,,,
right,0.842999935,1,5,1,0,240,181,1,239,3,1,2,stim/12.jpeg,Instruments,2,stim/objects/Instruments/triangle2.png,0.9,3,-0.2,-0.15,right,29,2020-12-04_09h56.18.718,premup-three_ses-01_part-01_label-phase1,3.2.4,Win32,60,,,,,,,,,,,,,,,,,,,,,,,,,,,,,,,,
left,0.954999924,1,6,1,0,240,222,1,239,3,2,3,stim/23.jpeg,HouseObjects,1,stim/objects/HouseObjects/vacuumcleaner2.png,0.9,3,-0.2,-0.15,left,29,2020-12-04_09h56.18.718,premup-three_ses-01_part-01_label-phase1,3.2.4,Win32,60,,,,,,,,,,,,,,,,,,,,,,,,,,,,,,,,
right,0.857999802,1,7,1,0,240,171,1,239,3,1,4,stim/14.jpeg,Instruments,2,stim/objects/Instruments/trumpet2.png,0.9,2,0.2,0.15,right,29,2020-12-04_09h56.18.718,premup-three_ses-01_part-01_label-phase1,3.2.4,Win32,60,,,,,,,,,,,,,,,,,,,,,,,,,,,,,,,,
left,1.35800004,0,8,1,0,240,65,1,239,1,4,2,stim/42.jpeg,Instruments,2,stim/objects/Instruments/triangle.png,0.5,1,-0.2,0.15,right,29,2020-12-04_09h56.18.718,premup-three_ses-01_part-01_label-phase1,3.2.4,Win32,60,,,,,,,,,,,,,,,,,,,,,,,,,,,,,,,,
left,1.075000048,0,9,1,0,240,104,1,239,2,5,1,stim/51.jpeg,Instruments,2,stim/objects/Instruments/tuba.png,0.7,2,0.2,0.15,right,29,2020-12-04_09h56.18.718,premup-three_ses-01_part-01_label-phase1,3.2.4,Win32,60,,,,,,,,,,,,,,,,,,,,,,,,,,,,,,,,
right,0.763000011,0,10,1,0,240,131,1,239,2,6,4,stim/64.jpeg,HouseObjects,1,stim/objects/HouseObjects/scale2.png,0.7,2,0.2,0.15,left,29,2020-12-04_09h56.18.718,premup-three_ses-01_part-01_label-phase1,3.2.4,Win32,60,,,,,,,,,,,,,,,,,,,,,,,,,,,,,,,,
,,0,1,,,,,,,2,6,4,stim/64.jpeg,HouseObjects,1,stim/objects/HouseObjects/scale2.png,0.7,4,0.2,-0.15,left,29,2020-12-04_09h56.18.718,premup-three_ses-01_part-01_label-phase1,3.2.4,Win32,60,right,0.819000006,4,0,4,0,1,3,1,0,240,123,1,239,,,,,,,,,,,,,,,,,,
,,1,2,,,,,,,1,3,2,stim/32.jpeg,Instruments,2,stim/objects/Instruments/saxophone.png,0.5,1,-0.2,0.15,right,29,2020-12-04_09h56.18.718,premup-three_ses-01_part-01_label-phase1,3.2.4,Win32,60,right,1.238999844,4,0,4,0,1,3,1,0,240,21,1,239,,,,,,,,,,,,,,,,,,
,,1,3,,,,,,,2,6,4,stim/64.jpeg,HouseObjects,1,stim/objects/HouseObjects/scale2.png,0.7,4,0.2,-0.15,left,29,2020-12-04_09h56.18.718,premup-three_ses-01_part-01_label-phase1,3.2.4,Win32,60,left,0.792999983,4,0,4,0,1,3,1,0,240,139,1,239,,,,,,,,,,,,,,,,,,
,,0,4,,,,,,,3,2,4,stim/24.jpeg,HouseObjects,1,stim/objects/HouseObjects/wateringcan2.png,0.9,1,-0.2,0.15,left,29,2020-12-04_09h56.18.718,premup-three_ses-01_part-01_label-phase1,3.2.4,Win32,60,right,1.188999891,4,0,4,0,1,3,1,0,240,231,1,239,,,,,,,,,,,,,,,,,,
,,0,5,,,,,,,2,5,2,stim/52.jpeg,Instruments,2,stim/objects/Instruments/violin.png,0.7,2,0.2,0.15,right,29,2020-12-04_09h56.18.718,premup-three_ses-01_part-01_label-phase1,3.2.4,Win32,60,left,0.842000008,4,0,4,0,1,3,1,0,240,105,1,239,,,,,,,,,,,,,,,,,,
,,0,6,,,,,,,1,4,1,stim/41.jpeg,HouseObjects,1,stim/objects/HouseObjects/sponge.png,0.5,2,0.2,0.15,left,29,2020-12-04_09h56.18.718,premup-three_ses-01_part-01_label-phase1,3.2.4,Win32,60,right,1.098999977,4,0,4,0,1,3,1,0,240,48,1,239,,,,,,,,,,,,,,,,,,
,,1,7,,,,,,,3,1,1,stim/11.jpeg,Instruments,2,stim/objects/Instruments/timbal2.png,0.9,1,-0.2,0.15,right,29,2020-12-04_09h56.18.718,premup-three_ses-01_part-01_label-phase1,3.2.4,Win32,60,right,1.440999985,4,0,4,0,1,3,1,0,240,188,1,239,,,,,,,,,,,,,,,,,,
,,0,8,,,,,,,2,5,1,stim/51.jpeg,HouseObjects,1,stim/objects/HouseObjects/thread.png,0.3,4,0.2,-0.15,left,29,2020-12-04_09h56.18.718,premup-three_ses-01_part-01_label-phase1,3.2.4,Win32,60,right,0.910000086,4,0,4,0,1,3,1,0,240,84,1,239,,,,,,,,,,,,,,,,,,
,,0,9,,,,,,,1,4,4,stim/44.jpeg,Instruments,2,stim/objects/Instruments/trumpet.png,0.5,1,-0.2,0.15,right,29,2020-12-04_09h56.18.718,premup-three_ses-01_part-01_label-phase1,3.2.4,Win32,60,left,1.40199995,4,0,4,0,1,3,1,0,240,63,1,239,,,,,,,,,,,,,,,,,,
,,0,10,,,,,,,1,3,2,stim/32.jpeg,HouseObjects,1,stim/objects/HouseObjects/safetypin.png,0.5,4,0.2,-0.15,left,29,2020-12-04_09h56.18.718,premup-three_ses-01_part-01_label-phase1,3.2.4,Win32,60,right,1.65899992,4,0,4,0,1,3,1,0,240,17,1,239,,,,,,,,,,,,,,,,,,
,,1,11,,,,,,,1,3,2,stim/32.jpeg,HouseObjects,1,stim/objects/HouseObjects/safetypin.png,0.5,4,0.2,-0.15,left,29,2020-12-04_09h56.18.718,premup-three_ses-01_part-01_label-phase1,3.2.4,Win32,60,left,0.428999901,4,0,4,0,1,3,1,0,240,13,1,239,,,,,,,,,,,,,,,,,,
,,1,12,,,,,,,3,2,4,stim/24.jpeg,Instruments,2,stim/objects/Instruments/xylophone2.png,0.1,3,-0.2,-0.15,right,29,2020-12-04_09h56.18.718,premup-three_ses-01_part-01_label-phase1,3.2.4,Win32,60,right,1.019999981,4,0,4,0,1,3,1,0,240,239,1,239,,,,,,,,,,,,,,,,,,
,,0,13,,,,,,,2,5,3,stim/53.jpeg,HouseObjects,1,stim/objects/HouseObjects/vacuumcleaner.png,0.3,3,-0.2,-0.15,left,29,2020-12-04_09h56.18.718,premup-three_ses-01_part-01_label-phase1,3.2.4,Win32,60,,,4,0,4,0,1,3,1,0,240,90,1,239,,,,,,,,,,,,,,,,,,
,,0,14,,,,,,,2,5,1,stim/51.jpeg,Instruments,2,stim/objects/Instruments/tuba.png,0.7,2,0.2,0.15,right,29,2020-12-04_09h56.18.718,premup-three_ses-01_part-01_label-phase1,3.2.4,Win32,60,,,4,0,4,0,1,3,1,0,240,104,1,239,,,,,,,,,,,,,,,,,,
,,1,15,,,,,,,3,2,4,stim/24.jpeg,HouseObjects,1,stim/objects/HouseObjects/wateringcan2.png,0.9,1,-0.2,0.15,left,29,2020-12-04_09h56.18.718,premup-three_ses-01_part-01_label-phase1,3.2.4,Win32,60,left,1.328999996,4,0,4,0,1,3,1,0,240,207,1,239,,,,,,,,,,,,,,,,,,
,,1,16,,,,,,,3,1,2,stim/12.jpeg,Instruments,2,stim/objects/Instruments/triangle2.png,0.9,1,-0.2,0.15,right,29,2020-12-04_09h56.18.718,premup-three_ses-01_part-01_label-phase1,3.2.4,Win32,60,right,1.061999798,4,0,4,0,1,3,1,0,240,173,1,239,,,,,,,,,,,,,,,,,,
,,0,17,,,,,,,1,3,1,stim/31.jpeg,HouseObjects,1,stim/objects/HouseObjects/rug.png,0.5,3,-0.2,-0.15,left,29,2020-12-04_09h56.18.718,premup-three_ses-01_part-01_label-phase1,3.2.4,Win32,60,,,4,0,4,0,1,3,1,0,240,4,1,239,,,,,,,,,,,,,,,,,,
,,1,18,,,,,,,3,1,4,stim/14.jpeg,Instruments,2,stim/objects/Instruments/trumpet2.png,0.9,3,-0.2,-0.15,right,29,2020-12-04_09h56.18.718,premup-three_ses-01_part-01_label-phase1,3.2.4,Win32,60,right,1.000999928,4,0,4,0,1,3,1,0,240,191,1,239,,,,,,,,,,,,,,,,,,
,,1,19,,,,,,,1,4,1,stim/41.jpeg,Instruments,2,stim/objects/Instruments/timbal.png,0.5,2,0.2,0.15,right,29,2020-12-04_09h56.18.718,premup-three_ses-01_part-01_label-phase1,3.2.4,Win32,60,right,1.17599988,4,0,4,0,1,3,1,0,240,76,1,239,,,,,,,,,,,,,,,,,,
,,1,20,,,,,,,1,3,1,stim/31.jpeg,Instruments,2,stim/objects/Instruments/record_player.png,0.5,1,-0.2,0.15,right,29,2020-12-04_09h56.18.718,premup-three_ses-01_part-01_label-phase1,3.2.4,Win32,60,right,0.717999935,4,0,4,0,1,3,1,0,240,32,1,239,,,,,,,,,,,,,,,,,,
,,1,21,,,,,,,1,3,1,stim/31.jpeg,Instruments,2,stim/objects/Instruments/record_player.png,0.5,1,-0.2,0.15,right,29,2020-12-04_09h56.18.718,premup-three_ses-01_part-01_label-phase1,3.2.4,Win32,60,right,0.513999939,4,0,4,0,1,3,1,0,240,20,1,239,,,,,,,,,,,,,,,,,,
,,1,22,,,,,,,2,6,4,stim/64.jpeg,HouseObjects,1,stim/objects/HouseObjects/scale2.png,0.7,3,-0.2,-0.15,left,29,2020-12-04_09h56.18.718,premup-three_ses-01_part-01_label-phase1,3.2.4,Win32,60,left,1.035000086,4,0,4,0,1,3,1,0,240,127,1,239,,,,,,,,,,,,,,,,,,
,,1,23,,,,,,,1,4,2,stim/42.jpeg,HouseObjects,1,stim/objects/HouseObjects/spraybottle.png,0.5,4,0.2,-0.15,left,29,2020-12-04_09h56.18.718,premup-three_ses-01_part-01_label-phase1,3.2.4,Win32,60,left,0.684999943,4,0,4,0,1,3,1,0,240,49,1,239,,,,,,,,,,,,,,,,,,
,,0,24,,,,,,,3,2,3,stim/23.jpeg,HouseObjects,1,stim/objects/HouseObjects/vacuumcleaner2.png,0.9,4,0.2,-0.15,left,29,2020-12-04_09h56.18.718,premup-three_ses-01_part-01_label-phase1,3.2.4,Win32,60,right,0.855999947,4,0,4,0,1,3,1,0,240,226,1,239,,,,,,,,,,,,,,,,,,
,,1,25,,,,,,,2,6,2,stim/62.jpeg,Instruments,2,stim/objects/Instruments/saxophone2.png,0.3,3,-0.2,-0.15,right,29,2020-12-04_09h56.18.718,premup-three_ses-01_part-01_label-phase1,3.2.4,Win32,60,right,0.993999958,4,0,4,0,1,3,1,0,240,157,1,239,,,,,,,,,,,,,,,,,,
,,0,26,,,,,,,1,4,3,stim/43.jpeg,Instruments,2,stim/objects/Instruments/trombone.png,0.5,3,-0.2,-0.15,right,29,2020-12-04_09h56.18.718,premup-three_ses-01_part-01_label-phase1,3.2.4,Win32,60,left,0.789000034,4,0,4,0,1,3,1,0,240,74,1,239,,,,,,,,,,,,,,,,,,
,,0,27,,,,,,,1,3,1,stim/31.jpeg,Instruments,2,stim/objects/Instruments/record_player.png,0.5,2,0.2,0.15,right,29,2020-12-04_09h56.18.718,premup-three_ses-01_part-01_label-phase1,3.2.4,Win32,60,left,1.536999941,4,0,4,0,1,3,1,0,240,28,1,239,,,,,,,,,,,,,,,,,,
,,0,28,,,,,,,1,3,4,stim/34.jpeg,HouseObjects,1,stim/objects/HouseObjects/scale.png,0.5,3,-0.2,-0.15,left,29,2020-12-04_09h56.18.718,premup-three_ses-01_part-01_label-phase1,3.2.4,Win32,60,right,0.494999886,4,0,4,0,1,3,1,0,240,11,1,239,,,,,,,,,,,,,,,,,,
,,0,29,,,,,,,2,5,2,stim/52.jpeg,Instruments,2,stim/objects/Instruments/violin.png,0.7,3,-0.2,-0.15,right,29,2020-12-04_09h56.18.718,premup-three_ses-01_part-01_label-phase1,3.2.4,Win32,60,left,0.951999903,4,0,4,0,1,3,1,0,240,97,1,239,,,,,,,,,,,,,,,,,,
,,1,30,,,,,,,1,4,3,stim/43.jpeg,HouseObjects,1,stim/objects/HouseObjects/teapot.png,0.5,4,0.2,-0.15,left,29,2020-12-04_09h56.18.718,premup-three_ses-01_part-01_label-phase1,3.2.4,Win32,60,left,0.713999987,4,0,4,0,1,3,1,0,240,42,1,239,,,,,,,,,,,,,,,,,,
,,1,31,,,,,,,1,4,3,stim/43.jpeg,HouseObjects,1,stim/objects/HouseObjects/teapot.png,0.5,2,0.2,0.15,left,29,2020-12-04_09h56.18.718,premup-three_ses-01_part-01_label-phase1,3.2.4,Win32,60,left,0.563999891,4,0,4,0,1,3,1,0,240,46,1,239,,,,,,,,,,,,,,,,,,
,,0,32,,,,,,,3,2,3,stim/23.jpeg,Instruments,2,stim/objects/Instruments/vuvuzela2.png,0.1,2,0.2,0.15,right,29,2020-12-04_09h56.18.718,premup-three_ses-01_part-01_label-phase1,3.2.4,Win32,60,left,1.247999907,4,0,4,0,1,3,1,0,240,238,1,239,,,,,,,,,,,,,,,,,,
,,1,33,,,,,,,1,3,3,stim/33.jpeg,Instruments,2,stim/objects/Instruments/speaker.png,0.5,2,0.2,0.15,right,29,2020-12-04_09h56.18.718,premup-three_ses-01_part-01_label-phase1,3.2.4,Win32,60,right,1.103999853,4,0,4,0,1,3,1,0,240,30,1,239,,,,,,,,,,,,,,,,,,
,,1,34,,,,,,,3,1,3,stim/13.jpeg,Instruments,2,stim/objects/Instruments/trombone2.png,0.9,2,0.2,0.15,right,29,2020-12-04_09h56.18.718,premup-three_ses-01_part-01_label-phase1,3.2.4,Win32,60,right,0.900999784,4,0,4,0,1,3,1,0,240,178,1,239,,,,,,,,,,,,,,,,,,
,,0,35,,,,,,,1,4,2,stim/42.jpeg,Instruments,2,stim/objects/Instruments/triangle.png,0.5,1,-0.2,0.15,right,29,2020-12-04_09h56.18.718,premup-three_ses-01_part-01_label-phase1,3.2.4,Win32,60,left,0.85800004,4,0,4,0,1,3,1,0,240,61,1,239,,,,,,,,,,,,,,,,,,
,,1,36,,,,,,,2,5,3,stim/53.jpeg,HouseObjects,1,stim/objects/HouseObjects/vacuumcleaner.png,0.3,4,0.2,-0.15,left,29,2020-12-04_09h56.18.718,premup-three_ses-01_part-01_label-phase1,3.2.4,Win32,60,left,1.369999886,4,0,4,0,1,3,1,0,240,86,1,239,,,,,,,,,,,,,,,,,,
,,0,37,,,,,,,1,4,2,stim/42.jpeg,Instruments,2,stim/objects/Instruments/triangle.png,0.5,2,0.2,0.15,right,29,2020-12-04_09h56.18.718,premup-three_ses-01_part-01_label-phase1,3.2.4,Win32,60,left,0.789999962,4,0,4,0,1,3,1,0,240,73,1,239,,,,,,,,,,,,,,,,,,
,,0,38,,,,,,,2,5,3,stim/53.jpeg,Instruments,2,stim/objects/Instruments/vuvuzela.png,0.7,1,-0.2,0.15,right,29,2020-12-04_09h56.18.718,premup-three_ses-01_part-01_label-phase1,3.2.4,Win32,60,left,0.55099988,4,0,4,0,1,3,1,0,240,110,1,239,,,,,,,,,,,,,,,,,,
,,1,39,,,,,,,1,3,2,stim/32.jpeg,Instruments,2,stim/objects/Instruments/saxophone.png,0.5,1,-0.2,0.15,right,29,2020-12-04_09h56.18.718,premup-three_ses-01_part-01_label-phase1,3.2.4,Win32,60,right,0.775999784,4,0,4,0,1,3,1,0,240,33,1,239,,,,,,,,,,,,,,,,,,
,,0,40,,,,,,,2,5,1,stim/51.jpeg,Instruments,2,stim/objects/Instruments/tuba.png,0.7,1,-0.2,0.15,right,29,2020-12-04_09h56.18.718,premup-three_ses-01_part-01_label-phase1,3.2.4,Win32,60,left,0.680999994,4,0,4,0,1,3,1,0,240,92,1,239,,,,,,,,,,,,,,,,,,
,,0,41,,,,,,,1,4,3,stim/43.jpeg,Instruments,2,stim/objects/Instruments/trombone.png,0.5,3,-0.2,-0.15,right,29,2020-12-04_09h56.18.718,premup-three_ses-01_part-01_label-phase1,3.2.4,Win32,60,left,0.979000092,4,0,4,0,1,3,1,0,240,70,1,239,,,,,,,,,,,,,,,,,,
,,1,42,,,,,,,1,4,2,stim/42.jpeg,Instruments,2,stim/objects/Instruments/triangle.png,0.5,3,-0.2,-0.15,right,29,2020-12-04_09h56.18.718,premup-three_ses-01_part-01_label-phase1,3.2.4,Win32,60,right,0.697000027,4,0,4,0,1,3,1,0,240,77,1,239,,,,,,,,,,,,,,,,,,
,,1,43,,,,,,,3,1,1,stim/11.jpeg,Instruments,2,stim/objects/Instruments/timbal2.png,0.9,2,0.2,0.15,right,29,2020-12-04_09h56.18.718,premup-three_ses-01_part-01_label-phase1,3.2.4,Win32,60,right,1.124999762,4,0,4,0,1,3,1,0,240,196,1,239,,,,,,,,,,,,,,,,,,
,,1,44,,,,,,,3,1,1,stim/11.jpeg,Instruments,2,stim/objects/Instruments/timbal2.png,0.9,1,-0.2,0.15,right,29,2020-12-04_09h56.18.718,premup-three_ses-01_part-01_label-phase1,3.2.4,Win32,60,right,0.506999969,4,0,4,0,1,3,1,0,240,180,1,239,,,,,,,,,,,,,,,,,,
,,1,45,,,,,,,1,3,4,stim/34.jpeg,Instruments,2,stim/objects/Instruments/tambourine.png,0.5,1,-0.2,0.15,right,29,2020-12-04_09h56.18.718,premup-three_ses-01_part-01_label-phase1,3.2.4,Win32,60,right,0.884999752,4,0,4,0,1,3,1,0,240,27,1,239,,,,,,,,,,,,,,,,,,
,,1,46,,,,,,,2,6,4,stim/64.jpeg,HouseObjects,1,stim/objects/HouseObjects/scale2.png,0.7,4,0.2,-0.15,left,29,2020-12-04_09h56.18.718,premup-three_ses-01_part-01_label-phase1,3.2.4,Win32,60,left,0.592000008,4,0,4,0,1,3,1,0,240,135,1,239,,,,,,,,,,,,,,,,,,
,,0,47,,,,,,,3,2,4,stim/24.jpeg,HouseObjects,1,stim/objects/HouseObjects/wateringcan2.png,0.9,2,0.2,0.15,left,29,2020-12-04_09h56.18.718,premup-three_ses-01_part-01_label-phase1,3.2.4,Win32,60,right,0.98699975,4,0,4,0,1,3,1,0,240,215,1,239,,,,,,,,,,,,,,,,,,
,,0,48,,,,,,,2,6,2,stim/62.jpeg,Instruments,2,stim/objects/Instruments/saxophone2.png,0.3,4,0.2,-0.15,right,29,2020-12-04_09h56.18.718,premup-three_ses-01_part-01_label-phase1,3.2.4,Win32,60,left,0.823999882,4,0,4,0,1,3,1,0,240,149,1,239,,,,,,,,,,,,,,,,,,
,,1,49,,,,,,,2,6,3,stim/63.jpeg,HouseObjects,1,stim/objects/HouseObjects/saw2.png,0.7,3,-0.2,-0.15,left,29,2020-12-04_09h56.18.718,premup-three_ses-01_part-01_label-phase1,3.2.4,Win32,60,left,0.656999826,4,0,4,0,1,3,1,0,240,122,1,239,,,,,,,,,,,,,,,,,,
,,1,50,,,,,,,3,1,1,stim/11.jpeg,HouseObjects,1,stim/objects/HouseObjects/sponge2.png,0.1,2,0.2,0.15,left,29,2020-12-04_09h56.18.718,premup-three_ses-01_part-01_label-phase1,3.2.4,Win32,60,left,1.812999725,4,0,4,0,1,3,1,0,240,160,1,239,,,,,,,,,,,,,,,,,,
,,1,51,,,,,,,2,6,4,stim/64.jpeg,HouseObjects,1,stim/objects/HouseObjects/scale2.png,0.7,4,0.2,-0.15,left,29,2020-12-04_09h56.18.718,premup-three_ses-01_part-01_label-phase1,3.2.4,Win32,60,left,0.784999847,4,0,4,0,1,3,1,0,240,143,1,239,,,,,,,,,,,,,,,,,,
,,1,52,,,,,,,1,4,2,stim/42.jpeg,Instruments,2,stim/objects/Instruments/triangle.png,0.5,1,-0.2,0.15,right,29,2020-12-04_09h56.18.718,premup-three_ses-01_part-01_label-phase1,3.2.4,Win32,60,right,1.072000027,4,0,4,0,1,3,1,0,240,65,1,239,,,,,,,,,,,,,,,,,,
,,1,53,,,,,,,1,3,4,stim/34.jpeg,Instruments,2,stim/objects/Instruments/tambourine.png,0.5,4,0.2,-0.15,right,29,2020-12-04_09h56.18.718,premup-three_ses-01_part-01_label-phase1,3.2.4,Win32,60,right,1.174000025,4,0,4,0,1,3,1,0,240,39,1,239,,,,,,,,,,,,,,,,,,
,,1,54,,,,,,,1,3,1,stim/31.jpeg,Instruments,2,stim/objects/Instruments/record_player.png,0.5,1,-0.2,0.15,right,29,2020-12-04_09h56.18.718,premup-three_ses-01_part-01_label-phase1,3.2.4,Win32,60,right,0.467999935,4,0,4,0,1,3,1,0,240,36,1,239,,,,,,,,,,,,,,,,,,
,,1,55,,,,,,,3,2,3,stim/23.jpeg,HouseObjects,1,stim/objects/HouseObjects/vacuumcleaner2.png,0.9,4,0.2,-0.15,left,29,2020-12-04_09h56.18.718,premup-three_ses-01_part-01_label-phase1,3.2.4,Win32,60,left,0.996999741,4,0,4,0,1,3,1,0,240,210,1,239,,,,,,,,,,,,,,,,,,
,,0,56,,,,,,,2,5,2,stim/52.jpeg,Instruments,2,stim/objects/Instruments/violin.png,0.7,4,0.2,-0.15,right,29,2020-12-04_09h56.18.718,premup-three_ses-01_part-01_label-phase1,3.2.4,Win32,60,left,0.9599998,4,0,4,0,1,3,1,0,240,101,1,239,,,,,,,,,,,,,,,,,,
,,1,57,,,,,,,1,4,1,stim/41.jpeg,HouseObjects,1,stim/objects/HouseObjects/sponge.png,0.5,4,0.2,-0.15,left,29,2020-12-04_09h56.18.718,premup-three_ses-01_part-01_label-phase1,3.2.4,Win32,60,left,1.160000086,4,0,4,0,1,3,1,0,240,44,1,239,,,,,,,,,,,,,,,,,,
,,1,58,,,,,,,2,5,2,stim/52.jpeg,HouseObjects,1,stim/objects/HouseObjects/towel.png,0.3,4,0.2,-0.15,left,29,2020-12-04_09h56.18.718,premup-three_ses-01_part-01_label-phase1,3.2.4,Win32,60,left,0.826999903,4,0,4,0,1,3,1,0,240,81,1,239,,,,,,,,,,,,,,,,,,
,,0,59,,,,,,,2,6,1,stim/61.jpeg,HouseObjects,1,stim/objects/HouseObjects/rug2.png,0.7,2,0.2,0.15,left,29,2020-12-04_09h56.18.718,premup-three_ses-01_part-01_label-phase1,3.2.4,Win32,60,right,1.102999926,4,0,4,0,1,3,1,0,240,132,1,239,,,,,,,,,,,,,,,,,,
,,0,60,,,,,,,2,5,4,stim/54.jpeg,Instruments,2,stim/objects/Instruments/xylophone.png,0.7,1,-0.2,0.15,right,29,2020-12-04_09h56.18.718,premup-three_ses-01_part-01_label-phase1,3.2.4,Win32,60,left,1.080999851,4,0,4,0,1,3,1,0,240,95,1,239,,,,,,,,,,,,,,,,,,
,,0,61,,,,,,,3,1,4,stim/14.jpeg,Instruments,2,stim/objects/Instruments/trumpet2.png,0.9,2,0.2,0.15,right,29,2020-12-04_09h56.18.718,premup-three_ses-01_part-01_label-phase1,3.2.4,Win32,60,left,0.904999971,4,0,4,0,1,3,1,0,240,175,1,239,,,,,,,,,,,,,,,,,,
,,1,62,,,,,,,3,1,2,stim/12.jpeg,Instruments,2,stim/objects/Instruments/triangle2.png,0.9,3,-0.2,-0.15,right,29,2020-12-04_09h56.18.718,premup-three_ses-01_part-01_label-phase1,3.2.4,Win32,60,right,0.482999802,4,0,4,0,1,3,1,0,240,181,1,239,,,,,,,,,,,,,,,,,,
,,0,63,,,,,,,1,3,1,stim/31.jpeg,HouseObjects,1,stim/objects/HouseObjects/rug.png,0.5,2,0.2,0.15,left,29,2020-12-04_09h56.18.718,premup-three_ses-01_part-01_label-phase1,3.2.4,Win32,60,right,0.944999933,4,0,4,0,1,3,1,0,240,8,1,239,,,,,,,,,,,,,,,,,,
,,1,64,,,,,,,3,1,4,stim/14.jpeg,Instruments,2,stim/objects/Instruments/trumpet2.png,0.9,1,-0.2,0.15,right,29,2020-12-04_09h56.18.718,premup-three_ses-01_part-01_label-phase1,3.2.4,Win32,60,right,0.651000023,4,0,4,0,1,3,1,0,240,199,1,239,,,,,,,,,,,,,,,,,,
,,1,65,,,,,,,1,4,1,stim/41.jpeg,HouseObjects,1,stim/objects/HouseObjects/sponge.png,0.5,3,-0.2,-0.15,left,29,2020-12-04_09h56.18.718,premup-three_ses-01_part-01_label-phase1,3.2.4,Win32,60,left,1.238999844,4,0,4,0,1,3,1,0,240,40,1,239,,,,,,,,,,,,,,,,,,
,,1,66,,,,,,,2,6,3,stim/63.jpeg,HouseObjects,1,stim/objects/HouseObjects/saw2.png,0.7,4,0.2,-0.15,left,29,2020-12-04_09h56.18.718,premup-three_ses-01_part-01_label-phase1,3.2.4,Win32,60,left,1.124999762,4,0,4,0,1,3,1,0,240,126,1,239,,,,,,,,,,,,,,,,,,
,,0,67,,,,,,,1,3,1,stim/31.jpeg,HouseObjects,1,stim/objects/HouseObjects/rug.png,0.5,3,-0.2,-0.15,left,29,2020-12-04_09h56.18.718,premup-three_ses-01_part-01_label-phase1,3.2.4,Win32,60,right,1.089999914,4,0,4,0,1,3,1,0,240,0,1,239,,,,,,,,,,,,,,,,,,
,,1,68,,,,,,,2,6,2,stim/62.jpeg,HouseObjects,1,stim/objects/HouseObjects/safetypin2.png,0.7,2,0.2,0.15,left,29,2020-12-04_09h56.18.718,premup-three_ses-01_part-01_label-phase1,3.2.4,Win32,60,left,0.809999943,4,0,4,0,1,3,1,0,240,129,1,239,,,,,,,,,,,,,,,,,,
,,0,69,,,,,,,3,1,2,stim/12.jpeg,Instruments,2,stim/objects/Instruments/triangle2.png,0.9,1,-0.2,0.15,right,29,2020-12-04_09h56.18.718,premup-three_ses-01_part-01_label-phase1,3.2.4,Win32,60,left,0.713000059,4,0,4,0,1,3,1,0,240,169,1,239,,,,,,,,,,,,,,,,,,
,,1,70,,,,,,,1,3,3,stim/33.jpeg,HouseObjects,1,stim/objects/HouseObjects/saw.png,0.5,1,-0.2,0.15,left,29,2020-12-04_09h56.18.718,premup-three_ses-01_part-01_label-phase1,3.2.4,Win32,60,left,1.352999926,4,0,4,0,1,3,1,0,240,14,1,239,,,,,,,,,,,,,,,,,,
,,0,71,,,,,,,3,1,4,stim/14.jpeg,HouseObjects,1,stim/objects/HouseObjects/thermometer2.png,0.1,3,-0.2,-0.15,left,29,2020-12-04_09h56.18.718,premup-three_ses-01_part-01_label-phase1,3.2.4,Win32,60,right,0.643000126,4,0,4,0,1,3,1,0,240,163,1,239,,,,,,,,,,,,,,,,,,
,,0,72,,,,,,,1,4,4,stim/44.jpeg,Instruments,2,stim/objects/Instruments/trumpet.png,0.5,4,0.2,-0.15,right,29,2020-12-04_09h56.18.718,premup-three_ses-01_part-01_label-phase1,3.2.4,Win32,60,left,1.042999744,4,0,4,0,1,3,1,0,240,79,1,239,,,,,,,,,,,,,,,,,,
,,1,73,,,,,,,2,6,3,stim/63.jpeg,HouseObjects,1,stim/objects/HouseObjects/saw2.png,0.7,4,0.2,-0.15,left,29,2020-12-04_09h56.18.718,premup-three_ses-01_part-01_label-phase1,3.2.4,Win32,60,left,1.197999954,4,0,4,0,1,3,1,0,240,134,1,239,,,,,,,,,,,,,,,,,,
,,0,74,,,,,,,3,1,2,stim/12.jpeg,Instruments,2,stim/objects/Instruments/triangle2.png,0.9,3,-0.2,-0.15,right,29,2020-12-04_09h56.18.718,premup-three_ses-01_part-01_label-phase1,3.2.4,Win32,60,left,0.697999954,4,0,4,0,1,3,1,0,240,177,1,239,,,,,,,,,,,,,,,,,,
,,1,75,,,,,,,2,5,3,stim/53.jpeg,Instruments,2,stim/objects/Instruments/vuvuzela.png,0.7,2,0.2,0.15,right,29,2020-12-04_09h56.18.718,premup-three_ses-01_part-01_label-phase1,3.2.4,Win32,60,right,1.046999931,4,0,4,0,1,3,1,0,240,114,1,239,,,,,,,,,,,,,,,,,,
,,1,76,,,,,,,3,2,2,stim/22.jpeg,HouseObjects,1,stim/objects/HouseObjects/towel2.png,0.9,2,0.2,0.15,left,29,2020-12-04_09h56.18.718,premup-three_ses-01_part-01_label-phase1,3.2.4,Win32,60,left,1.275999784,4,0,4,0,1,3,1,0,240,217,1,239,,,,,,,,,,,,,,,,,,
,,0,77,,,,,,,1,4,4,stim/44.jpeg,HouseObjects,1,stim/objects/HouseObjects/thermometer.png,0.5,3,-0.2,-0.15,left,29,2020-12-04_09h56.18.718,premup-three_ses-01_part-01_label-phase1,3.2.4,Win32,60,right,0.97300005,4,0,4,0,1,3,1,0,240,43,1,239,,,,,,,,,,,,,,,,,,
,,1,78,,,,,,,1,4,3,stim/43.jpeg,HouseObjects,1,stim/objects/HouseObjects/teapot.png,0.5,2,0.2,0.15,left,29,2020-12-04_09h56.18.718,premup-three_ses-01_part-01_label-phase1,3.2.4,Win32,60,left,0.78399992,4,0,4,0,1,3,1,0,240,50,1,239,,,,,,,,,,,,,,,,,,
,,0,79,,,,,,,1,3,2,stim/32.jpeg,Instruments,2,stim/objects/Instruments/saxophone.png,0.5,4,0.2,-0.15,right,29,2020-12-04_09h56.18.718,premup-three_ses-01_part-01_label-phase1,3.2.4,Win32,60,left,1.308000088,4,0,4,0,1,3,1,0,240,29,1,239,,,,,,,,,,,,,,,,,,
,,0,80,,,,,,,2,5,4,stim/54.jpeg,Instruments,2,stim/objects/Instruments/xylophone.png,0.7,2,0.2,0.15,right,29,2020-12-04_09h56.18.718,premup-three_ses-01_part-01_label-phase1,3.2.4,Win32,60,left,0.678999901,4,0,4,0,1,3,1,0,240,99,1,239,,,,,,,,,,,,,,,,,,
,,0,81,,,,,,,3,2,1,stim/21.jpeg,HouseObjects,1,stim/objects/HouseObjects/thread2.png,0.9,4,0.2,-0.15,left,29,2020-12-04_09h56.18.718,premup-three_ses-01_part-01_label-phase1,3.2.4,Win32,60,right,0.919000149,4,0,4,0,1,3,1,0,240,224,1,239,,,,,,,,,,,,,,,,,,
,,1,82,,,,,,,3,2,1,stim/21.jpeg,HouseObjects,1,stim/objects/HouseObjects/thread2.png,0.9,4,0.2,-0.15,left,29,2020-12-04_09h56.18.718,premup-three_ses-01_part-01_label-phase1,3.2.4,Win32,60,left,0.640000105,4,0,4,0,1,3,1,0,240,232,1,239,,,,,,,,,,,,,,,,,,
,,0,83,,,,,,,1,3,3,stim/33.jpeg,HouseObjects,1,stim/objects/HouseObjects/saw.png,0.5,3,-0.2,-0.15,left,29,2020-12-04_09h56.18.718,premup-three_ses-01_part-01_label-phase1,3.2.4,Win32,60,right,1.260999918,4,0,4,0,1,3,1,0,240,2,1,239,,,,,,,,,,,,,,,,,,
,,0,84,,,,,,,2,6,2,stim/62.jpeg,Instruments,2,stim/objects/Instruments/saxophone2.png,0.3,4,0.2,-0.15,right,29,2020-12-04_09h56.18.718,premup-three_ses-01_part-01_label-phase1,3.2.4,Win32,60,left,0.657999992,4,0,4,0,1,3,1,0,240,153,1,239,,,,,,,,,,,,,,,,,,
,,1,85,,,,,,,2,6,2,stim/62.jpeg,HouseObjects,1,stim/objects/HouseObjects/safetypin2.png,0.7,2,0.2,0.15,left,29,2020-12-04_09h56.18.718,premup-three_ses-01_part-01_label-phase1,3.2.4,Win32,60,left,0.740999937,4,0,4,0,1,3,1,0,240,137,1,239,,,,,,,,,,,,,,,,,,
,,1,86,,,,,,,1,4,1,stim/41.jpeg,Instruments,2,stim/objects/Instruments/timbal.png,0.5,2,0.2,0.15,right,29,2020-12-04_09h56.18.718,premup-three_ses-01_part-01_label-phase1,3.2.4,Win32,60,right,1.070999861,4,0,4,0,1,3,1,0,240,68,1,239,,,,,,,,,,,,,,,,,,
,,1,87,,,,,,,3,1,3,stim/13.jpeg,HouseObjects,1,stim/objects/HouseObjects/teapot2.png,0.1,1,-0.2,0.15,left,29,2020-12-04_09h56.18.718,premup-three_ses-01_part-01_label-phase1,3.2.4,Win32,60,left,0.914999962,4,0,4,0,1,3,1,0,240,162,1,239,,,,,,,,,,,,,,,,,,
,,1,88,,,,,,,2,6,4,stim/64.jpeg,HouseObjects,1,stim/objects/HouseObjects/scale2.png,0.7,2,0.2,0.15,left,29,2020-12-04_09h56.18.718,premup-three_ses-01_part-01_label-phase1,3.2.4,Win32,60,left,0.907000065,4,0,4,0,1,3,1,0,240,147,1,239,,,,,,,,,,,,,,,,,,
,,0,89,,,,,,,2,5,2,stim/52.jpeg,Instruments,2,stim/objects/Instruments/violin.png,0.7,2,0.2,0.15,right,29,2020-12-04_09h56.18.718,premup-three_ses-01_part-01_label-phase1,3.2.4,Win32,60,left,0.939999819,4,0,4,0,1,3,1,0,240,113,1,239,,,,,,,,,,,,,,,,,,
,,0,90,,,,,,,2,6,3,stim/63.jpeg,Instruments,2,stim/objects/Instruments/speaker2.png,0.3,1,-0.2,0.15,right,29,2020-12-04_09h56.18.718,premup-three_ses-01_part-01_label-phase1,3.2.4,Win32,60,left,0.653000116,4,0,4,0,1,3,1,0,240,150,1,239,,,,,,,,,,,,,,,,,,
,,1,91,,,,,,,2,6,1,stim/61.jpeg,HouseObjects,1,stim/objects/HouseObjects/rug2.png,0.7,3,-0.2,-0.15,left,29,2020-12-04_09h56.18.718,premup-three_ses-01_part-01_label-phase1,3.2.4,Win32,60,left,0.518000126,4,0,4,0,1,3,1,0,240,144,1,239,,,,,,,,,,,,,,,,,,
,,1,92,,,,,,,3,2,3,stim/23.jpeg,HouseObjects,1,stim/objects/HouseObjects/vacuumcleaner2.png,0.9,3,-0.2,-0.15,left,29,2020-12-04_09h56.18.718,premup-three_ses-01_part-01_label-phase1,3.2.4,Win32,60,left,0.952000141,4,0,4,0,1,3,1,0,240,234,1,239,,,,,,,,,,,,,,,,,,
,,0,93,,,,,,,3,1,2,stim/12.jpeg,Instruments,2,stim/objects/Instruments/triangle2.png,0.9,2,0.2,0.15,right,29,2020-12-04_09h56.18.718,premup-three_ses-01_part-01_label-phase1,3.2.4,Win32,60,left,0.580999851,4,0,4,0,1,3,1,0,240,165,1,239,,,,,,,,,,,,,,,,,,
,,1,94,,,,,,,1,3,3,stim/33.jpeg,Instruments,2,stim/objects/Instruments/speaker.png,0.5,1,-0.2,0.15,right,29,2020-12-04_09h56.18.718,premup-three_ses-01_part-01_label-phase1,3.2.4,Win32,60,right,0.917000055,4,0,4,0,1,3,1,0,240,38,1,239,,,,,,,,,,,,,,,,,,
,,1,95,,,,,,,3,2,2,stim/22.jpeg,HouseObjects,1,stim/objects/HouseObjects/towel2.png,0.9,4,0.2,-0.15,left,29,2020-12-04_09h56.18.718,premup-three_ses-01_part-01_label-phase1,3.2.4,Win32,60,left,0.988000154,4,0,4,0,1,3,1,0,240,221,1,239,,,,,,,,,,,,,,,,,,
,,1,96,,,,,,,2,6,1,stim/61.jpeg,Instruments,2,stim/objects/Instruments/record_player2.png,0.3,1,-0.2,0.15,right,29,2020-12-04_09h56.18.718,premup-three_ses-01_part-01_label-phase1,3.2.4,Win32,60,right,0.943999767,4,0,4,0,1,3,1,0,240,148,1,239,,,,,,,,,,,,,,,,,,
,,0,97,,,,,,,3,1,4,stim/14.jpeg,Instruments,2,stim/objects/Instruments/trumpet2.png,0.9,2,0.2,0.15,right,29,2020-12-04_09h56.18.718,premup-three_ses-01_part-01_label-phase1,3.2.4,Win32,60,left,0.773000002,4,0,4,0,1,3,1,0,240,171,1,239,,,,,,,,,,,,,,,,,,
,,0,98,,,,,,,2,6,4,stim/64.jpeg,Instruments,2,stim/objects/Instruments/tambourine2.png,0.3,1,-0.2,0.15,right,29,2020-12-04_09h56.18.718,premup-three_ses-01_part-01_label-phase1,3.2.4,Win32,60,left,0.576999903,4,0,4,0,1,3,1,0,240,155,1,239,,,,,,,,,,,,,,,,,,
,,0,99,,,,,,,3,1,1,stim/11.jpeg,Instruments,2,stim/objects/Instruments/timbal2.png,0.9,1,-0.2,0.15,right,29,2020-12-04_09h56.18.718,premup-three_ses-01_part-01_label-phase1,3.2.4,Win32,60,left,0.746000051,4,0,4,0,1,3,1,0,240,176,1,239,,,,,,,,,,,,,,,,,,
,,0,100,,,,,,,1,3,3,stim/33.jpeg,Instruments,2,stim/objects/Instruments/speaker.png,0.5,3,-0.2,-0.15,right,29,2020-12-04_09h56.18.718,premup-three_ses-01_part-01_label-phase1,3.2.4,Win32,60,left,0.86500001,4,0,4,0,1,3,1,0,240,22,1,239,,,,,,,,,,,,,,,,,,
,,1,101,,,,,,,1,3,4,stim/34.jpeg,Instruments,2,stim/objects/Instruments/tambourine.png,0.5,1,-0.2,0.15,right,29,2020-12-04_09h56.18.718,premup-three_ses-01_part-01_label-phase1,3.2.4,Win32,60,right,1.171000004,4,0,4,0,1,3,1,0,240,31,1,239,,,,,,,,,,,,,,,,,,
,,1,102,,,,,,,3,2,4,stim/24.jpeg,HouseObjects,1,stim/objects/HouseObjects/wateringcan2.png,0.9,3,-0.2,-0.15,left,29,2020-12-04_09h56.18.718,premup-three_ses-01_part-01_label-phase1,3.2.4,Win32,60,left,0.720999956,4,0,4,0,1,3,1,0,240,235,1,239,,,,,,,,,,,,,,,,,,
,,1,103,,,,,,,3,2,1,stim/21.jpeg,HouseObjects,1,stim/objects/HouseObjects/thread2.png,0.9,2,0.2,0.15,left,29,2020-12-04_09h56.18.718,premup-three_ses-01_part-01_label-phase1,3.2.4,Win32,60,left,0.57799983,4,0,4,0,1,3,1,0,240,208,1,239,,,,,,,,,,,,,,,,,,
,,1,104,,,,,,,3,2,3,stim/23.jpeg,HouseObjects,1,stim/objects/HouseObjects/vacuumcleaner2.png,0.9,4,0.2,-0.15,left,29,2020-12-04_09h56.18.718,premup-three_ses-01_part-01_label-phase1,3.2.4,Win32,60,left,0.464999914,4,0,4,0,1,3,1,0,240,202,1,239,,,,,,,,,,,,,,,,,,
,,1,105,,,,,,,1,4,4,stim/44.jpeg,Instruments,2,stim/objects/Instruments/trumpet.png,0.5,2,0.2,0.15,right,29,2020-12-04_09h56.18.718,premup-three_ses-01_part-01_label-phase1,3.2.4,Win32,60,right,0.86199975,4,0,4,0,1,3,1,0,240,75,1,239,,,,,,,,,,,,,,,,,,
,,1,106,,,,,,,2,5,4,stim/54.jpeg,Instruments,2,stim/objects/Instruments/xylophone.png,0.7,1,-0.2,0.15,right,29,2020-12-04_09h56.18.718,premup-three_ses-01_part-01_label-phase1,3.2.4,Win32,60,right,0.703999996,4,0,4,0,1,3,1,0,240,107,1,239,,,,,,,,,,,,,,,,,,
,,1,107,,,,,,,2,5,4,stim/54.jpeg,Instruments,2,stim/objects/Instruments/xylophone.png,0.7,3,-0.2,-0.15,right,29,2020-12-04_09h56.18.718,premup-three_ses-01_part-01_label-phase1,3.2.4,Win32,60,right,0.434000015,4,0,4,0,1,3,1,0,240,103,1,239,,,,,,,,,,,,,,,,,,
,,1,108,,,,,,,2,5,1,stim/51.jpeg,Instruments,2,stim/objects/Instruments/tuba.png,0.7,1,-0.2,0.15,right,29,2020-12-04_09h56.18.718,premup-three_ses-01_part-01_label-phase1,3.2.4,Win32,60,right,0.44299984,4,0,4,0,1,3,1,0,240,96,1,239,,,,,,,,,,,,,,,,,,
,,1,109,,,,,,,2,6,1,stim/61.jpeg,HouseObjects,1,stim/objects/HouseObjects/rug2.png,0.7,1,-0.2,0.15,left,29,2020-12-04_09h56.18.718,premup-three_ses-01_part-01_label-phase1,3.2.4,Win32,60,left,0.840999842,4,0,4,0,1,3,1,0,240,140,1,239,,,,,,,,,,,,,,,,,,
,,1,110,,,,,,,2,6,1,stim/61.jpeg,HouseObjects,1,stim/objects/HouseObjects/rug2.png,0.7,2,0.2,0.15,left,29,2020-12-04_09h56.18.718,premup-three_ses-01_part-01_label-phase1,3.2.4,Win32,60,left,0.447999954,4,0,4,0,1,3,1,0,240,136,1,239,,,,,,,,,,,,,,,,,,
,,0,111,,,,,,,2,5,1,stim/51.jpeg,HouseObjects,1,stim/objects/HouseObjects/thread.png,0.3,2,0.2,0.15,left,29,2020-12-04_09h56.18.718,premup-three_ses-01_part-01_label-phase1,3.2.4,Win32,60,right,0.409999847,4,0,4,0,1,3,1,0,240,88,1,239,,,,,,,,,,,,,,,,,,
,,0,112,,,,,,,1,3,4,stim/34.jpeg,HouseObjects,1,stim/objects/HouseObjects/scale.png,0.5,2,0.2,0.15,left,29,2020-12-04_09h56.18.718,premup-three_ses-01_part-01_label-phase1,3.2.4,Win32,60,right,1.105000019,4,0,4,0,1,3,1,0,240,15,1,239,,,,,,,,,,,,,,,,,,
,,1,113,,,,,,,3,2,2,stim/22.jpeg,HouseObjects,1,stim/objects/HouseObjects/towel2.png,0.9,1,-0.2,0.15,left,29,2020-12-04_09h56.18.718,premup-three_ses-01_part-01_label-phase1,3.2.4,Win32,60,left,0.727999926,4,0,4,0,1,3,1,0,240,225,1,239,,,,,,,,,,,,,,,,,,
,,0,114,,,,,,,1,3,4,stim/34.jpeg,HouseObjects,1,stim/objects/HouseObjects/scale.png,0.5,2,0.2,0.15,left,29,2020-12-04_09h56.18.718,premup-three_ses-01_part-01_label-phase1,3.2.4,Win32,60,right,0.519000053,4,0,4,0,1,3,1,0,240,7,1,239,,,,,,,,,,,,,,,,,,
,,1,115,,,,,,,2,5,3,stim/53.jpeg,Instruments,2,stim/objects/Instruments/vuvuzela.png,0.7,1,-0.2,0.15,right,29,2020-12-04_09h56.18.718,premup-three_ses-01_part-01_label-phase1,3.2.4,Win32,60,right,1.397000074,4,0,4,0,1,3,1,0,240,98,1,239,,,,,,,,,,,,,,,,,,
,,1,116,,,,,,,1,4,2,stim/42.jpeg,HouseObjects,1,stim/objects/HouseObjects/spraybottle.png,0.5,4,0.2,-0.15,left,29,2020-12-04_09h56.18.718,premup-three_ses-01_part-01_label-phase1,3.2.4,Win32,60,left,1.201999903,4,0,4,0,1,3,1,0,240,57,1,239,,,,,,,,,,,,,,,,,,
,,1,117,,,,,,,2,6,2,stim/62.jpeg,HouseObjects,1,stim/objects/HouseObjects/safetypin2.png,0.7,3,-0.2,-0.15,left,29,2020-12-04_09h56.18.718,premup-three_ses-01_part-01_label-phase1,3.2.4,Win32,60,left,0.738999844,4,0,4,0,1,3,1,0,240,133,1,239,,,,,,,,,,,,,,,,,,
,,0,118,,,,,,,1,4,3,stim/43.jpeg,Instruments,2,stim/objects/Instruments/trombone.png,0.5,4,0.2,-0.15,right,29,2020-12-04_09h56.18.718,premup-three_ses-01_part-01_label-phase1,3.2.4,Win32,60,left,0.636999846,4,0,4,0,1,3,1,0,240,62,1,239,,,,,,,,,,,,,,,,,,
,,0,119,,,,,,,3,1,3,stim/13.jpeg,Instruments,2,stim/objects/Instruments/trombone2.png,0.9,3,-0.2,-0.15,right,29,2020-12-04_09h56.18.718,premup-three_ses-01_part-01_label-phase1,3.2.4,Win32,60,left,0.699999809,4,0,4,0,1,3,1,0,240,198,1,239,,,,,,,,,,,,,,,,,,
,,0,120,,,,,,,1,4,1,stim/41.jpeg,HouseObjects,1,stim/objects/HouseObjects/sponge.png,0.5,4,0.2,-0.15,left,29,2020-12-04_09h56.18.718,premup-three_ses-01_part-01_label-phase1,3.2.4,Win32,60,right,1.18900013,4,0,4,0,1,3,1,0,240,56,1,239,,,,,,,,,,,,,,,,,,
,,0,121,,,,,,,1,3,2,stim/32.jpeg,HouseObjects,1,stim/objects/HouseObjects/safetypin.png,0.5,3,-0.2,-0.15,left,29,2020-12-04_09h56.18.718,premup-three_ses-01_part-01_label-phase1,3.2.4,Win32,60,right,1.481999874,4,0,4,0,1,3,1,0,240,9,1,239,,,,,,,,,,,,,,,,,,
,,1,122,,,,,,,3,2,4,stim/24.jpeg,HouseObjects,1,stim/objects/HouseObjects/wateringcan2.png,0.9,3,-0.2,-0.15,left,29,2020-12-04_09h56.18.718,premup-three_ses-01_part-01_label-phase1,3.2.4,Win32,60,left,0.625,4,0,4,0,1,3,1,0,240,211,1,239,,,,,,,,,,,,,,,,,,
,,0,123,,,,,,,3,1,3,stim/13.jpeg,Instruments,2,stim/objects/Instruments/trombone2.png,0.9,4,0.2,-0.15,right,29,2020-12-04_09h56.18.718,premup-three_ses-01_part-01_label-phase1,3.2.4,Win32,60,left,0.710000038,4,0,4,0,1,3,1,0,240,166,1,239,,,,,,,,,,,,,,,,,,
,,1,124,,,,,,,2,6,3,stim/63.jpeg,HouseObjects,1,stim/objects/HouseObjects/saw2.png,0.7,2,0.2,0.15,left,29,2020-12-04_09h56.18.718,premup-three_ses-01_part-01_label-phase1,3.2.4,Win32,60,left,0.788000107,4,0,4,0,1,3,1,0,240,130,1,239,,,,,,,,,,,,,,,,,,
,,0,125,,,,,,,2,5,1,stim/51.jpeg,Instruments,2,stim/objects/Instruments/tuba.png,0.7,2,0.2,0.15,right,29,2020-12-04_09h56.18.718,premup-three_ses-01_part-01_label-phase1,3.2.4,Win32,60,left,0.779999971,4,0,4,0,1,3,1,0,240,116,1,239,,,,,,,,,,,,,,,,,,
,,1,126,,,,,,,3,2,3,stim/23.jpeg,HouseObjects,1,stim/objects/HouseObjects/vacuumcleaner2.png,0.9,1,-0.2,0.15,left,29,2020-12-04_09h56.18.718,premup-three_ses-01_part-01_label-phase1,3.2.4,Win32,60,left,0.825999737,4,0,4,0,1,3,1,0,240,218,1,239,,,,,,,,,,,,,,,,,,
,,1,127,,,,,,,3,2,4,stim/24.jpeg,HouseObjects,1,stim/objects/HouseObjects/wateringcan2.png,0.9,4,0.2,-0.15,left,29,2020-12-04_09h56.18.718,premup-three_ses-01_part-01_label-phase1,3.2.4,Win32,60,left,0.698999882,4,0,4,0,1,3,1,0,240,227,1,239,,,,,,,,,,,,,,,,,,
,,0,128,,,,,,,3,1,4,stim/14.jpeg,Instruments,2,stim/objects/Instruments/trumpet2.png,0.9,3,-0.2,-0.15,right,29,2020-12-04_09h56.18.718,premup-three_ses-01_part-01_label-phase1,3.2.4,Win32,60,left,1.027999878,4,0,4,0,1,3,1,0,240,183,1,239,,,,,,,,,,,,,,,,,,
,,1,129,,,,,,,3,1,4,stim/14.jpeg,Instruments,2,stim/objects/Instruments/trumpet2.png,0.9,3,-0.2,-0.15,right,29,2020-12-04_09h56.18.718,premup-three_ses-01_part-01_label-phase1,3.2.4,Win32,60,right,0.5,4,0,4,0,1,3,1,0,240,195,1,239,,,,,,,,,,,,,,,,,,
,,1,130,,,,,,,2,5,4,stim/54.jpeg,HouseObjects,1,stim/objects/HouseObjects/wateringcan.png,0.3,2,0.2,0.15,left,29,2020-12-04_09h56.18.718,premup-three_ses-01_part-01_label-phase1,3.2.4,Win32,60,left,1.176000118,4,0,4,0,1,3,1,0,240,91,1,239,,,,,,,,,,,,,,,,,,
,,1,131,,,,,,,2,5,2,stim/52.jpeg,Instruments,2,stim/objects/Instruments/violin.png,0.7,3,-0.2,-0.15,right,29,2020-12-04_09h56.18.718,premup-three_ses-01_part-01_label-phase1,3.2.4,Win32,60,right,1.363999844,4,0,4,0,1,3,1,0,240,93,1,239,,,,,,,,,,,,,,,,,,
,,1,132,,,,,,,1,4,2,stim/42.jpeg,HouseObjects,1,stim/objects/HouseObjects/spraybottle.png,0.5,4,0.2,-0.15,left,29,2020-12-04_09h56.18.718,premup-three_ses-01_part-01_label-phase1,3.2.4,Win32,60,left,1.396000147,4,0,4,0,1,3,1,0,240,53,1,239,,,,,,,,,,,,,,,,,,
,,1,133,,,,,,,3,1,4,stim/14.jpeg,Instruments,2,stim/objects/Instruments/trumpet2.png,0.9,4,0.2,-0.15,right,29,2020-12-04_09h56.18.718,premup-three_ses-01_part-01_label-phase1,3.2.4,Win32,60,right,1.215999842,4,0,4,0,1,3,1,0,240,187,1,239,,,,,,,,,,,,,,,,,,
,,0,134,,,,,,,2,6,4,stim/64.jpeg,Instruments,2,stim/objects/Instruments/tambourine2.png,0.3,4,0.2,-0.15,right,29,2020-12-04_09h56.18.718,premup-three_ses-01_part-01_label-phase1,3.2.4,Win32,60,left,0.986000061,4,0,4,0,1,3,1,0,240,159,1,239,,,,,,,,,,,,,,,,,,
,,1,135,,,,,,,3,1,3,stim/13.jpeg,Instruments,2,stim/objects/Instruments/trombone2.png,0.9,2,0.2,0.15,right,29,2020-12-04_09h56.18.718,premup-three_ses-01_part-01_label-phase1,3.2.4,Win32,60,right,0.643000126,4,0,4,0,1,3,1,0,240,170,1,239,,,,,,,,,,,,,,,,,,
,,1,136,,,,,,,3,2,2,stim/22.jpeg,HouseObjects,1,stim/objects/HouseObjects/towel2.png,0.9,3,-0.2,-0.15,left,29,2020-12-04_09h56.18.718,premup-three_ses-01_part-01_label-phase1,3.2.4,Win32,60,left,0.981999874,4,0,4,0,1,3,1,0,240,209,1,239,,,,,,,,,,,,,,,,,,
,,1,137,,,,,,,3,2,4,stim/24.jpeg,HouseObjects,1,stim/objects/HouseObjects/wateringcan2.png,0.9,2,0.2,0.15,left,29,2020-12-04_09h56.18.718,premup-three_ses-01_part-01_label-phase1,3.2.4,Win32,60,left,0.605999947,4,0,4,0,1,3,1,0,240,219,1,239,,,,,,,,,,,,,,,,,,
,,1,138,,,,,,,3,2,4,stim/24.jpeg,HouseObjects,1,stim/objects/HouseObjects/wateringcan2.png,0.9,4,0.2,-0.15,left,29,2020-12-04_09h56.18.718,premup-three_ses-01_part-01_label-phase1,3.2.4,Win32,60,left,0.43599987,4,0,4,0,1,3,1,0,240,203,1,239,,,,,,,,,,,,,,,,,,
,,0,139,,,,,,,3,2,2,stim/22.jpeg,Instruments,2,stim/objects/Instruments/violin2.png,0.1,4,0.2,-0.15,right,29,2020-12-04_09h56.18.718,premup-three_ses-01_part-01_label-phase1,3.2.4,Win32,60,left,0.457000017,4,0,4,0,1,3,1,0,240,237,1,239,,,,,,,,,,,,,,,,,,
,,1,140,,,,,,,2,6,3,stim/63.jpeg,HouseObjects,1,stim/objects/HouseObjects/saw2.png,0.7,4,0.2,-0.15,left,29,2020-12-04_09h56.18.718,premup-three_ses-01_part-01_label-phase1,3.2.4,Win32,60,left,0.798000097,4,0,4,0,1,3,1,0,240,146,1,239,,,,,,,,,,,,,,,,,,
,,1,141,,,,,,,2,5,1,stim/51.jpeg,Instruments,2,stim/objects/Instruments/tuba.png,0.7,1,-0.2,0.15,right,29,2020-12-04_09h56.18.718,premup-three_ses-01_part-01_label-phase1,3.2.4,Win32,60,right,0.942000151,4,0,4,0,1,3,1,0,240,100,1,239,,,,,,,,,,,,,,,,,,
,,1,142,,,,,,,1,3,3,stim/33.jpeg,HouseObjects,1,stim/objects/HouseObjects/saw.png,0.5,2,0.2,0.15,left,29,2020-12-04_09h56.18.718,premup-three_ses-01_part-01_label-phase1,3.2.4,Win32,60,left,1.486000061,4,0,4,0,1,3,1,0,240,6,1,239,,,,,,,,,,,,,,,,,,
,,0,143,,,,,,,2,5,2,stim/52.jpeg,HouseObjects,1,stim/objects/HouseObjects/towel.png,0.3,1,-0.2,0.15,left,29,2020-12-04_09h56.18.718,premup-three_ses-01_part-01_label-phase1,3.2.4,Win32,60,right,0.878999949,4,0,4,0,1,3,1,0,240,85,1,239,,,,,,,,,,,,,,,,,,
,,0,144,,,,,,,1,4,4,stim/44.jpeg,Instruments,2,stim/objects/Instruments/trumpet.png,0.5,3,-0.2,-0.15,right,29,2020-12-04_09h56.18.718,premup-three_ses-01_part-01_label-phase1,3.2.4,Win32,60,left,1.670000076,4,0,4,0,1,3,1,0,240,67,1,239,,,,,,,,,,,,,,,,,,
,,0,145,,,,,,,1,3,3,stim/33.jpeg,HouseObjects,1,stim/objects/HouseObjects/saw.png,0.5,1,-0.2,0.15,left,29,2020-12-04_09h56.18.718,premup-three_ses-01_part-01_label-phase1,3.2.4,Win32,60,right,0.902999878,4,0,4,0,1,3,1,0,240,10,1,239,,,,,,,,,,,,,,,,,,
,,1,146,,,,,,,3,1,2,stim/12.jpeg,HouseObjects,1,stim/objects/HouseObjects/spraybottle2.png,0.1,3,-0.2,-0.15,left,29,2020-12-04_09h56.18.718,premup-three_ses-01_part-01_label-phase1,3.2.4,Win32,60,left,0.911999941,4,0,4,0,1,3,1,0,240,161,1,239,,,,,,,,,,,,,,,,,,
,,1,147,,,,,,,2,6,1,stim/61.jpeg,HouseObjects,1,stim/objects/HouseObjects/rug2.png,0.7,1,-0.2,0.15,left,29,2020-12-04_09h56.18.718,premup-three_ses-01_part-01_label-phase1,3.2.4,Win32,60,left,0.762000084,4,0,4,0,1,3,1,0,240,124,1,239,,,,,,,,,,,,,,,,,,
,,1,148,,,,,,,1,4,3,stim/43.jpeg,HouseObjects,1,stim/objects/HouseObjects/teapot.png,0.5,4,0.2,-0.15,left,29,2020-12-04_09h56.18.718,premup-three_ses-01_part-01_label-phase1,3.2.4,Win32,60,left,0.94299984,4,0,4,0,1,3,1,0,240,54,1,239,,,,,,,,,,,,,,,,,,
,,0,149,,,,,,,2,6,1,stim/61.jpeg,Instruments,2,stim/objects/Instruments/record_player2.png,0.3,1,-0.2,0.15,right,29,2020-12-04_09h56.18.718,premup-three_ses-01_part-01_label-phase1,3.2.4,Win32,60,left,0.643999815,4,0,4,0,1,3,1,0,240,152,1,239,,,,,,,,,,,,,,,,,,
,,1,150,,,,,,,3,1,2,stim/12.jpeg,Instruments,2,stim/objects/Instruments/triangle2.png,0.9,1,-0.2,0.15,right,29,2020-12-04_09h56.18.718,premup-three_ses-01_part-01_label-phase1,3.2.4,Win32,60,right,0.912999868,4,0,4,0,1,3,1,0,240,197,1,239,,,,,,,,,,,,,,,,,,
,,0,151,,,,,,,2,6,1,stim/61.jpeg,Instruments,2,stim/objects/Instruments/record_player2.png,0.3,3,-0.2,-0.15,right,29,2020-12-04_09h56.18.718,premup-three_ses-01_part-01_label-phase1,3.2.4,Win32,60,left,0.681999922,4,0,4,0,1,3,1,0,240,156,1,239,,,,,,,,,,,,,,,,,,
,,1,152,,,,,,,3,2,1,stim/21.jpeg,HouseObjects,1,stim/objects/HouseObjects/thread2.png,0.9,4,0.2,-0.15,left,29,2020-12-04_09h56.18.718,premup-three_ses-01_part-01_label-phase1,3.2.4,Win32,60,left,0.657999992,4,0,4,0,1,3,1,0,240,204,1,239,,,,,,,,,,,,,,,,,,
,,1,153,,,,,,,3,2,1,stim/21.jpeg,HouseObjects,1,stim/objects/HouseObjects/thread2.png,0.9,2,0.2,0.15,left,29,2020-12-04_09h56.18.718,premup-three_ses-01_part-01_label-phase1,3.2.4,Win32,60,left,0.471999884,4,0,4,0,1,3,1,0,240,216,1,239,,,,,,,,,,,,,,,,,,
,,0,154,,,,,,,1,4,1,stim/41.jpeg,Instruments,2,stim/objects/Instruments/timbal.png,0.5,2,0.2,0.15,right,29,2020-12-04_09h56.18.718,premup-three_ses-01_part-01_label-phase1,3.2.4,Win32,60,left,1.232000113,4,0,4,0,1,3,1,0,240,64,1,239,,,,,,,,,,,,,,,,,,
,,0,155,,,,,,,3,1,3,stim/13.jpeg,Instruments,2,stim/objects/Instruments/trombone2.png,0.9,2,0.2,0.15,right,29,2020-12-04_09h56.18.718,premup-three_ses-01_part-01_label-phase1,3.2.4,Win32,60,left,0.639999866,4,0,4,0,1,3,1,0,240,182,1,239,,,,,,,,,,,,,,,,,,
,,1,156,,,,,,,1,3,3,stim/33.jpeg,Instruments,2,stim/objects/Instruments/speaker.png,0.5,1,-0.2,0.15,right,29,2020-12-04_09h56.18.718,premup-three_ses-01_part-01_label-phase1,3.2.4,Win32,60,right,1.220999956,4,0,4,0,1,3,1,0,240,26,1,239,,,,,,,,,,,,,,,,,,
,,1,157,,,,,,,3,1,1,stim/11.jpeg,Instruments,2,stim/objects/Instruments/timbal2.png,0.9,1,-0.2,0.15,right,29,2020-12-04_09h56.18.718,premup-three_ses-01_part-01_label-phase1,3.2.4,Win32,60,right,0.752000093,4,0,4,0,1,3,1,0,240,164,1,239,,,,,,,,,,,,,,,,,,
,,1,158,,,,,,,3,1,3,stim/13.jpeg,Instruments,2,stim/objects/Instruments/trombone2.png,0.9,3,-0.2,-0.15,right,29,2020-12-04_09h56.18.718,premup-three_ses-01_part-01_label-phase1,3.2.4,Win32,60,right,0.654999971,4,0,4,0,1,3,1,0,240,186,1,239,,,,,,,,,,,,,,,,,,
,,1,159,,,,,,,3,1,3,stim/13.jpeg,Instruments,2,stim/objects/Instruments/trombone2.png,0.9,2,0.2,0.15,right,29,2020-12-04_09h56.18.718,premup-three_ses-01_part-01_label-phase1,3.2.4,Win32,60,right,0.478999853,4,0,4,0,1,3,1,0,240,174,1,239,,,,,,,,,,,,,,,,,,
,,1,160,,,,,,,3,2,1,stim/21.jpeg,HouseObjects,1,stim/objects/HouseObjects/thread2.png,0.9,1,-0.2,0.15,left,29,2020-12-04_09h56.18.718,premup-three_ses-01_part-01_label-phase1,3.2.4,Win32,60,left,0.548999786,4,0,4,0,1,3,1,0,240,200,1,239,,,,,,,,,,,,,,,,,,
,,1,161,,,,,,,3,2,2,stim/22.jpeg,HouseObjects,1,stim/objects/HouseObjects/towel2.png,0.9,2,0.2,0.15,left,29,2020-12-04_09h56.18.718,premup-three_ses-01_part-01_label-phase1,3.2.4,Win32,60,left,0.569999933,4,0,4,0,1,3,1,0,240,233,1,239,,,,,,,,,,,,,,,,,,
,,1,162,,,,,,,3,2,3,stim/23.jpeg,HouseObjects,1,stim/objects/HouseObjects/vacuumcleaner2.png,0.9,1,-0.2,0.15,left,29,2020-12-04_09h56.18.718,premup-three_ses-01_part-01_label-phase1,3.2.4,Win32,60,left,0.465999842,4,0,4,0,1,3,1,0,240,214,1,239,,,,,,,,,,,,,,,,,,
,,1,163,,,,,,,2,5,4,stim/54.jpeg,HouseObjects,1,stim/objects/HouseObjects/wateringcan.png,0.3,3,-0.2,-0.15,left,29,2020-12-04_09h56.18.718,premup-three_ses-01_part-01_label-phase1,3.2.4,Win32,60,left,1.093999863,4,0,4,0,1,3,1,0,240,83,1,239,,,,,,,,,,,,,,,,,,
,,1,164,,,,,,,3,2,2,stim/22.jpeg,HouseObjects,1,stim/objects/HouseObjects/towel2.png,0.9,2,0.2,0.15,left,29,2020-12-04_09h56.18.718,premup-three_ses-01_part-01_label-phase1,3.2.4,Win32,60,left,1.125,4,0,4,0,1,3,1,0,240,201,1,239,,,,,,,,,,,,,,,,,,
,,0,165,,,,,,,1,3,3,stim/33.jpeg,HouseObjects,1,stim/objects/HouseObjects/saw.png,0.5,3,-0.2,-0.15,left,29,2020-12-04_09h56.18.718,premup-three_ses-01_part-01_label-phase1,3.2.4,Win32,60,right,0.963999987,4,0,4,0,1,3,1,0,240,18,1,239,,,,,,,,,,,,,,,,,,
,,0,166,,,,,,,1,4,1,stim/41.jpeg,Instruments,2,stim/objects/Instruments/timbal.png,0.5,4,0.2,-0.15,right,29,2020-12-04_09h56.18.718,premup-three_ses-01_part-01_label-phase1,3.2.4,Win32,60,left,0.820999861,4,0,4,0,1,3,1,0,240,60,1,239,,,,,,,,,,,,,,,,,,
,,1,167,,,,,,,3,1,2,stim/12.jpeg,Instruments,2,stim/objects/Instruments/triangle2.png,0.9,1,-0.2,0.15,right,29,2020-12-04_09h56.18.718,premup-three_ses-01_part-01_label-phase1,3.2.4,Win32,60,right,0.969000101,4,0,4,0,1,3,1,0,240,193,1,239,,,,,,,,,,,,,,,,,,
,,0,168,,,,,,,1,4,4,stim/44.jpeg,HouseObjects,1,stim/objects/HouseObjects/thermometer.png,0.5,3,-0.2,-0.15,left,29,2020-12-04_09h56.18.718,premup-three_ses-01_part-01_label-phase1,3.2.4,Win32,60,right,0.788000107,4,0,4,0,1,3,1,0,240,47,1,239,,,,,,,,,,,,,,,,,,
,,0,169,,,,,,,1,4,4,stim/44.jpeg,HouseObjects,1,stim/objects/HouseObjects/thermometer.png,0.5,2,0.2,0.15,left,29,2020-12-04_09h56.18.718,premup-three_ses-01_part-01_label-phase1,3.2.4,Win32,60,right,1.498999834,4,0,4,0,1,3,1,0,240,59,1,239,,,,,,,,,,,,,,,,,,
,,0,170,,,,,,,1,3,2,stim/32.jpeg,Instruments,2,stim/objects/Instruments/saxophone.png,0.5,3,-0.2,-0.15,right,29,2020-12-04_09h56.18.718,premup-three_ses-01_part-01_label-phase1,3.2.4,Win32,60,left,1.295000076,4,0,4,0,1,3,1,0,240,25,1,239,,,,,,,,,,,,,,,,,,
,,0,171,,,,,,,3,1,1,stim/11.jpeg,Instruments,2,stim/objects/Instruments/timbal2.png,0.9,4,0.2,-0.15,right,29,2020-12-04_09h56.18.718,premup-three_ses-01_part-01_label-phase1,3.2.4,Win32,60,left,1.143999815,4,0,4,0,1,3,1,0,240,172,1,239,,,,,,,,,,,,,,,,,,
,,1,172,,,,,,,1,4,1,stim/41.jpeg,Instruments,2,stim/objects/Instruments/timbal.png,0.5,1,-0.2,0.15,right,29,2020-12-04_09h56.18.718,premup-three_ses-01_part-01_label-phase1,3.2.4,Win32,60,right,1.323999882,4,0,4,0,1,3,1,0,240,72,1,239,,,,,,,,,,,,,,,,,,
,,1,173,,,,,,,3,1,4,stim/14.jpeg,Instruments,2,stim/objects/Instruments/trumpet2.png,0.9,3,-0.2,-0.15,right,29,2020-12-04_09h56.18.718,premup-three_ses-01_part-01_label-phase1,3.2.4,Win32,60,right,0.716999769,4,0,4,0,1,3,1,0,240,167,1,239,,,,,,,,,,,,,,,,,,
,,1,174,,,,,,,2,6,2,stim/62.jpeg,HouseObjects,1,stim/objects/HouseObjects/safetypin2.png,0.7,1,-0.2,0.15,left,29,2020-12-04_09h56.18.718,premup-three_ses-01_part-01_label-phase1,3.2.4,Win32,60,left,0.828999996,4,0,4,0,1,3,1,0,240,145,1,239,,,,,,,,,,,,,,,,,,
,,1,175,,,,,,,2,6,2,stim/62.jpeg,HouseObjects,1,stim/objects/HouseObjects/safetypin2.png,0.7,3,-0.2,-0.15,left,29,2020-12-04_09h56.18.718,premup-three_ses-01_part-01_label-phase1,3.2.4,Win32,60,left,0.464999914,4,0,4,0,1,3,1,0,240,121,1,239,,,,,,,,,,,,,,,,,,
,,1,176,,,,,,,3,2,2,stim/22.jpeg,HouseObjects,1,stim/objects/HouseObjects/towel2.png,0.9,4,0.2,-0.15,left,29,2020-12-04_09h56.18.718,premup-three_ses-01_part-01_label-phase1,3.2.4,Win32,60,left,0.768999815,4,0,4,0,1,3,1,0,240,205,1,239,,,,,,,,,,,,,,,,,,
,,1,177,,,,,,,3,1,1,stim/11.jpeg,Instruments,2,stim/objects/Instruments/timbal2.png,0.9,1,-0.2,0.15,right,29,2020-12-04_09h56.18.718,premup-three_ses-01_part-01_label-phase1,3.2.4,Win32,60,right,0.713999987,4,0,4,0,1,3,1,0,240,184,1,239,,,,,,,,,,,,,,,,,,
,,0,178,,,,,,,1,3,2,stim/32.jpeg,HouseObjects,1,stim/objects/HouseObjects/safetypin.png,0.5,1,-0.2,0.15,left,29,2020-12-04_09h56.18.718,premup-three_ses-01_part-01_label-phase1,3.2.4,Win32,60,right,1.059999943,4,0,4,0,1,3,1,0,240,1,1,239,,,,,,,,,,,,,,,,,,
,,1,179,,,,,,,1,4,3,stim/43.jpeg,HouseObjects,1,stim/objects/HouseObjects/teapot.png,0.5,4,0.2,-0.15,left,29,2020-12-04_09h56.18.718,premup-three_ses-01_part-01_label-phase1,3.2.4,Win32,60,left,1.239000082,4,0,4,0,1,3,1,0,240,58,1,239,,,,,,,,,,,,,,,,,,
,,0,180,,,,,,,1,3,1,stim/31.jpeg,HouseObjects,1,stim/objects/HouseObjects/rug.png,0.5,1,-0.2,0.15,left,29,2020-12-04_09h56.18.718,premup-three_ses-01_part-01_label-phase1,3.2.4,Win32,60,right,0.666999817,4,0,4,0,1,3,1,0,240,16,1,239,,,,,,,,,,,,,,,,,,
,,1,181,,,,,,,2,6,3,stim/63.jpeg,HouseObjects,1,stim/objects/HouseObjects/saw2.png,0.7,3,-0.2,-0.15,left,29,2020-12-04_09h56.18.718,premup-three_ses-01_part-01_label-phase1,3.2.4,Win32,60,left,0.629999876,4,0,4,0,1,3,1,0,240,138,1,239,,,,,,,,,,,,,,,,,,
,,1,182,,,,,,,1,4,2,stim/42.jpeg,HouseObjects,1,stim/objects/HouseObjects/spraybottle.png,0.5,4,0.2,-0.15,left,29,2020-12-04_09h56.18.718,premup-three_ses-01_part-01_label-phase1,3.2.4,Win32,60,left,1.121999979,4,0,4,0,1,3,1,0,240,45,1,239,,,,,,,,,,,,,,,,,,
,,1,183,,,,,,,1,3,3,stim/33.jpeg,Instruments,2,stim/objects/Instruments/speaker.png,0.5,3,-0.2,-0.15,right,29,2020-12-04_09h56.18.718,premup-three_ses-01_part-01_label-phase1,3.2.4,Win32,60,right,1.53399992,4,0,4,0,1,3,1,0,240,34,1,239,,,,,,,,,,,,,,,,,,
,,0,184,,,,,,,2,5,2,stim/52.jpeg,HouseObjects,1,stim/objects/HouseObjects/towel.png,0.3,2,0.2,0.15,left,29,2020-12-04_09h56.18.718,premup-three_ses-01_part-01_label-phase1,3.2.4,Win32,60,right,1.589999914,4,0,4,0,1,3,1,0,240,89,1,239,,,,,,,,,,,,,,,,,,
,,1,185,,,,,,,1,3,1,stim/31.jpeg,Instruments,2,stim/objects/Instruments/record_player.png,0.5,4,0.2,-0.15,right,29,2020-12-04_09h56.18.718,premup-three_ses-01_part-01_label-phase1,3.2.4,Win32,60,right,1.243999958,4,0,4,0,1,3,1,0,240,24,1,239,,,,,,,,,,,,,,,,,,
,,1,186,,,,,,,2,6,4,stim/64.jpeg,HouseObjects,1,stim/objects/HouseObjects/scale2.png,0.7,2,0.2,0.15,left,29,2020-12-04_09h56.18.718,premup-three_ses-01_part-01_label-phase1,3.2.4,Win32,60,left,0.723999977,4,0,4,0,1,3,1,0,240,131,1,239,,,,,,,,,,,,,,,,,,
,,0,187,,,,,,,2,5,4,stim/54.jpeg,Instruments,2,stim/objects/Instruments/xylophone.png,0.7,1,-0.2,0.15,right,29,2020-12-04_09h56.18.718,premup-three_ses-01_part-01_label-phase1,3.2.4,Win32,60,left,0.999000072,4,0,4,0,1,3,1,0,240,119,1,239,,,,,,,,,,,,,,,,,,
,,1,188,,,,,,,2,5,3,stim/53.jpeg,Instruments,2,stim/objects/Instruments/vuvuzela.png,0.7,2,0.2,0.15,right,29,2020-12-04_09h56.18.718,premup-three_ses-01_part-01_label-phase1,3.2.4,Win32,60,right,0.683000088,4,0,4,0,1,3,1,0,240,94,1,239,,,,,,,,,,,,,,,,,,
,,1,189,,,,,,,3,2,3,stim/23.jpeg,HouseObjects,1,stim/objects/HouseObjects/vacuumcleaner2.png,0.9,3,-0.2,-0.15,left,29,2020-12-04_09h56.18.718,premup-three_ses-01_part-01_label-phase1,3.2.4,Win32,60,left,0.599999905,4,0,4,0,1,3,1,0,240,222,1,239,,,,,,,,,,,,,,,,,,
,,1,190,,,,,,,2,5,3,stim/53.jpeg,Instruments,2,stim/objects/Instruments/vuvuzela.png,0.7,1,-0.2,0.15,right,29,2020-12-04_09h56.18.718,premup-three_ses-01_part-01_label-phase1,3.2.4,Win32,60,right,1.44299984,4,0,4,0,1,3,1,0,240,102,1,239,,,,,,,,,,,,,,,,,,
,,1,191,,,,,,,2,6,1,stim/61.jpeg,HouseObjects,1,stim/objects/HouseObjects/rug2.png,0.7,3,-0.2,-0.15,left,29,2020-12-04_09h56.18.718,premup-three_ses-01_part-01_label-phase1,3.2.4,Win32,60,left,0.838999987,4,0,4,0,1,3,1,0,240,128,1,239,,,,,,,,,,,,,,,,,,
,,1,192,,,,,,,3,1,2,stim/12.jpeg,Instruments,2,stim/objects/Instruments/triangle2.png,0.9,4,0.2,-0.15,right,29,2020-12-04_09h56.18.718,premup-three_ses-01_part-01_label-phase1,3.2.4,Win32,60,right,0.976999998,4,0,4,0,1,3,1,0,240,185,1,239,,,,,,,,,,,,,,,,,,
,,1,193,,,,,,,1,4,4,stim/44.jpeg,HouseObjects,1,stim/objects/HouseObjects/thermometer.png,0.5,1,-0.2,0.15,left,29,2020-12-04_09h56.18.718,premup-three_ses-01_part-01_label-phase1,3.2.4,Win32,60,left,1.703000069,4,0,4,0,1,3,1,0,240,51,1,239,,,,,,,,,,,,,,,,,,
,,1,194,,,,,,,3,1,3,stim/13.jpeg,Instruments,2,stim/objects/Instruments/trombone2.png,0.9,4,0.2,-0.15,right,29,2020-12-04_09h56.18.718,premup-three_ses-01_part-01_label-phase1,3.2.4,Win32,60,right,1.268999815,4,0,4,0,1,3,1,0,240,194,1,239,,,,,,,,,,,,,,,,,,
,,1,195,,,,,,,1,4,2,stim/42.jpeg,HouseObjects,1,stim/objects/HouseObjects/spraybottle.png,0.5,2,0.2,0.15,left,29,2020-12-04_09h56.18.718,premup-three_ses-01_part-01_label-phase1,3.2.4,Win32,60,left,1.125,4,0,4,0,1,3,1,0,240,41,1,239,,,,,,,,,,,,,,,,,,
,,0,196,,,,,,,1,4,1,stim/41.jpeg,HouseObjects,1,stim/objects/HouseObjects/sponge.png,0.5,3,-0.2,-0.15,left,29,2020-12-04_09h56.18.718,premup-three_ses-01_part-01_label-phase1,3.2.4,Win32,60,right,0.987999916,4,0,4,0,1,3,1,0,240,52,1,239,,,,,,,,,,,,,,,,,,
,,1,197,,,,,,,2,5,4,stim/54.jpeg,Instruments,2,stim/objects/Instruments/xylophone.png,0.7,4,0.2,-0.15,right,29,2020-12-04_09h56.18.718,premup-three_ses-01_part-01_label-phase1,3.2.4,Win32,60,right,1.118999958,4,0,4,0,1,3,1,0,240,111,1,239,,,,,,,,,,,,,,,,,,
,,1,198,,,,,,,2,6,2,stim/62.jpeg,HouseObjects,1,stim/objects/HouseObjects/safetypin2.png,0.7,4,0.2,-0.15,left,29,2020-12-04_09h56.18.718,premup-three_ses-01_part-01_label-phase1,3.2.4,Win32,60,left,0.66899991,4,0,4,0,1,3,1,0,240,125,1,239,,,,,,,,,,,,,,,,,,
,,1,199,,,,,,,1,3,2,stim/32.jpeg,HouseObjects,1,stim/objects/HouseObjects/safetypin.png,0.5,3,-0.2,-0.15,left,29,2020-12-04_09h56.18.718,premup-three_ses-01_part-01_label-phase1,3.2.4,Win32,60,left,0.753999949,4,0,4,0,1,3,1,0,240,5,1,239,,,,,,,,,,,,,,,,,,
,,1,200,,,,,,,3,1,4,stim/14.jpeg,Instruments,2,stim/objects/Instruments/trumpet2.png,0.9,1,-0.2,0.15,right,29,2020-12-04_09h56.18.718,premup-three_ses-01_part-01_label-phase1,3.2.4,Win32,60,right,0.838999987,4,0,4,0,1,3,1,0,240,179,1,239,,,,,,,,,,,,,,,,,,
,,1,201,,,,,,,3,1,1,stim/11.jpeg,Instruments,2,stim/objects/Instruments/timbal2.png,0.9,4,0.2,-0.15,right,29,2020-12-04_09h56.18.718,premup-three_ses-01_part-01_label-phase1,3.2.4,Win32,60,right,0.686999798,4,0,4,0,1,3,1,0,240,192,1,239,,,,,,,,,,,,,,,,,,
,,0,202,,,,,,,2,6,1,stim/61.jpeg,HouseObjects,1,stim/objects/HouseObjects/rug2.png,0.7,3,-0.2,-0.15,left,29,2020-12-04_09h56.18.718,premup-three_ses-01_part-01_label-phase1,3.2.4,Win32,60,right,0.479000092,4,0,4,0,1,3,1,0,240,120,1,239,,,,,,,,,,,,,,,,,,
,,1,203,,,,,,,3,2,2,stim/22.jpeg,HouseObjects,1,stim/objects/HouseObjects/towel2.png,0.9,3,-0.2,-0.15,left,29,2020-12-04_09h56.18.718,premup-three_ses-01_part-01_label-phase1,3.2.4,Win32,60,left,0.634000063,4,0,4,0,1,3,1,0,240,229,1,239,,,,,,,,,,,,,,,,,,
,,0,204,,,,,,,2,6,3,stim/63.jpeg,Instruments,2,stim/objects/Instruments/speaker2.png,0.3,3,-0.2,-0.15,right,29,2020-12-04_09h56.18.718,premup-three_ses-01_part-01_label-phase1,3.2.4,Win32,60,left,0.681999922,4,0,4,0,1,3,1,0,240,158,1,239,,,,,,,,,,,,,,,,,,
,,0,205,,,,,,,2,6,4,stim/64.jpeg,Instruments,2,stim/objects/Instruments/tambourine2.png,0.3,3,-0.2,-0.15,right,29,2020-12-04_09h56.18.718,premup-three_ses-01_part-01_label-phase1,3.2.4,Win32,60,left,0.930000067,4,0,4,0,1,3,1,0,240,151,1,239,,,,,,,,,,,,,,,,,,
,,1,206,,,,,,,3,2,3,stim/23.jpeg,HouseObjects,1,stim/objects/HouseObjects/vacuumcleaner2.png,0.9,2,0.2,0.15,left,29,2020-12-04_09h56.18.718,premup-three_ses-01_part-01_label-phase1,3.2.4,Win32,60,left,0.588000059,4,0,4,0,1,3,1,0,240,230,1,239,,,,,,,,,,,,,,,,,,
,,1,207,,,,,,,1,3,4,stim/34.jpeg,HouseObjects,1,stim/objects/HouseObjects/scale.png,0.5,3,-0.2,-0.15,left,29,2020-12-04_09h56.18.718,premup-three_ses-01_part-01_label-phase1,3.2.4,Win32,60,left,1.450999975,4,0,4,0,1,3,1,0,240,3,1,239,,,,,,,,,,,,,,,,,,
,,1,208,,,,,,,2,6,2,stim/62.jpeg,HouseObjects,1,stim/objects/HouseObjects/safetypin2.png,0.7,1,-0.2,0.15,left,29,2020-12-04_09h56.18.718,premup-three_ses-01_part-01_label-phase1,3.2.4,Win32,60,left,0.842000008,4,0,4,0,1,3,1,0,240,141,1,239,,,,,,,,,,,,,,,,,,
,,1,209,,,,,,,2,5,1,stim/51.jpeg,Instruments,2,stim/objects/Instruments/tuba.png,0.7,2,0.2,0.15,right,29,2020-12-04_09h56.18.718,premup-three_ses-01_part-01_label-phase1,3.2.4,Win32,60,right,0.959000111,4,0,4,0,1,3,1,0,240,112,1,239,,,,,,,,,,,,,,,,,,
,,1,210,,,,,,,1,3,4,stim/34.jpeg,Instruments,2,stim/objects/Instruments/tambourine.png,0.5,1,-0.2,0.15,right,29,2020-12-04_09h56.18.718,premup-three_ses-01_part-01_label-phase1,3.2.4,Win32,60,right,1.066999912,4,0,4,0,1,3,1,0,240,23,1,239,,,,,,,,,,,,,,,,,,
,,0,211,,,,,,,2,5,4,stim/54.jpeg,HouseObjects,1,stim/objects/HouseObjects/wateringcan.png,0.3,2,0.2,0.15,left,29,2020-12-04_09h56.18.718,premup-three_ses-01_part-01_label-phase1,3.2.4,Win32,60,right,0.64199996,4,0,4,0,1,3,1,0,240,87,1,239,,,,,,,,,,,,,,,,,,
,,0,212,,,,,,,1,4,2,stim/42.jpeg,Instruments,2,stim/objects/Instruments/triangle.png,0.5,2,0.2,0.15,right,29,2020-12-04_09h56.18.718,premup-three_ses-01_part-01_label-phase1,3.2.4,Win32,60,left,1.155999899,4,0,4,0,1,3,1,0,240,69,1,239,,,,,,,,,,,,,,,,,,
,,0,213,,,,,,,1,3,2,stim/32.jpeg,Instruments,2,stim/objects/Instruments/saxophone.png,0.5,1,-0.2,0.15,right,29,2020-12-04_09h56.18.718,premup-three_ses-01_part-01_label-phase1,3.2.4,Win32,60,left,1.511999846,4,0,4,0,1,3,1,0,240,37,1,239,,,,,,,,,,,,,,,,,,
,,0,214,,,,,,,1,4,3,stim/43.jpeg,Instruments,2,stim/objects/Instruments/trombone.png,0.5,4,0.2,-0.15,right,29,2020-12-04_09h56.18.718,premup-three_ses-01_part-01_label-phase1,3.2.4,Win32,60,left,0.993999958,4,0,4,0,1,3,1,0,240,66,1,239,,,,,,,,,,,,,,,,,,
,,1,215,,,,,,,3,1,2,stim/12.jpeg,Instruments,2,stim/objects/Instruments/triangle2.png,0.9,3,-0.2,-0.15,right,29,2020-12-04_09h56.18.718,premup-three_ses-01_part-01_label-phase1,3.2.4,Win32,60,right,0.866999865,4,0,4,0,1,3,1,0,240,189,1,239,,,,,,,,,,,,,,,,,,
,,1,216,,,,,,,2,5,3,stim/53.jpeg,Instruments,2,stim/objects/Instruments/vuvuzela.png,0.7,4,0.2,-0.15,right,29,2020-12-04_09h56.18.718,premup-three_ses-01_part-01_label-phase1,3.2.4,Win32,60,right,1.177999973,4,0,4,0,1,3,1,0,240,106,1,239,,,,,,,,,,,,,,,,,,
,,1,217,,,,,,,1,4,4,stim/44.jpeg,HouseObjects,1,stim/objects/HouseObjects/thermometer.png,0.5,2,0.2,0.15,left,29,2020-12-04_09h56.18.718,premup-three_ses-01_part-01_label-phase1,3.2.4,Win32,60,left,0.960999966,4,0,4,0,1,3,1,0,240,55,1,239,,,,,,,,,,,,,,,,,,
,,1,218,,,,,,,3,1,1,stim/11.jpeg,Instruments,2,stim/objects/Instruments/timbal2.png,0.9,2,0.2,0.15,right,29,2020-12-04_09h56.18.718,premup-three_ses-01_part-01_label-phase1,3.2.4,Win32,60,right,0.885999918,4,0,4,0,1,3,1,0,240,168,1,239,,,,,,,,,,,,,,,,,,
,,0,219,,,,,,,2,5,2,stim/52.jpeg,Instruments,2,stim/objects/Instruments/violin.png,0.7,2,0.2,0.15,right,29,2020-12-04_09h56.18.718,premup-three_ses-01_part-01_label-phase1,3.2.4,Win32,60,left,1.052999973,4,0,4,0,1,3,1,0,240,117,1,239,,,,,,,,,,,,,,,,,,
,,0,220,,,,,,,1,3,4,stim/34.jpeg,HouseObjects,1,stim/objects/HouseObjects/scale.png,0.5,4,0.2,-0.15,left,29,2020-12-04_09h56.18.718,premup-three_ses-01_part-01_label-phase1,3.2.4,Win32,60,right,1.154999733,4,0,4,0,1,3,1,0,240,19,1,239,,,,,,,,,,,,,,,,,,
,,1,221,,,,,,,3,2,1,stim/21.jpeg,HouseObjects,1,stim/objects/HouseObjects/thread2.png,0.9,4,0.2,-0.15,left,29,2020-12-04_09h56.18.718,premup-three_ses-01_part-01_label-phase1,3.2.4,Win32,60,left,0.684000015,4,0,4,0,1,3,1,0,240,220,1,239,,,,,,,,,,,,,,,,,,
,,1,222,,,,,,,3,1,3,stim/13.jpeg,Instruments,2,stim/objects/Instruments/trombone2.png,0.9,3,-0.2,-0.15,right,29,2020-12-04_09h56.18.718,premup-three_ses-01_part-01_label-phase1,3.2.4,Win32,60,right,1.131000042,4,0,4,0,1,3,1,0,240,190,1,239,,,,,,,,,,,,,,,,,,
,,0,223,,,,,,,2,5,2,stim/52.jpeg,Instruments,2,stim/objects/Instruments/violin.png,0.7,4,0.2,-0.15,right,29,2020-12-04_09h56.18.718,premup-three_ses-01_part-01_label-phase1,3.2.4,Win32,60,left,1.49000001,4,0,4,0,1,3,1,0,240,109,1,239,,,,,,,,,,,,,,,,,,
,,1,224,,,,,,,2,6,3,stim/63.jpeg,Instruments,2,stim/objects/Instruments/speaker2.png,0.3,4,0.2,-0.15,right,29,2020-12-04_09h56.18.718,premup-three_ses-01_part-01_label-phase1,3.2.4,Win32,60,right,0.981999874,4,0,4,0,1,3,1,0,240,154,1,239,,,,,,,,,,,,,,,,,,
,,0,225,,,,,,,2,5,1,stim/51.jpeg,HouseObjects,1,stim/objects/HouseObjects/thread.png,0.3,1,-0.2,0.15,left,29,2020-12-04_09h56.18.718,premup-three_ses-01_part-01_label-phase1,3.2.4,Win32,60,right,1.324999809,4,0,4,0,1,3,1,0,240,80,1,239,,,,,,,,,,,,,,,,,,
,,0,226,,,,,,,2,6,3,stim/63.jpeg,HouseObjects,1,stim/objects/HouseObjects/saw2.png,0.7,3,-0.2,-0.15,left,29,2020-12-04_09h56.18.718,premup-three_ses-01_part-01_label-phase1,3.2.4,Win32,60,right,0.915999889,4,0,4,0,1,3,1,0,240,142,1,239,,,,,,,,,,,,,,,,,,
,,0,227,,,,,,,3,2,1,stim/21.jpeg,Instruments,2,stim/objects/Instruments/tuba2.png,0.1,1,-0.2,0.15,right,29,2020-12-04_09h56.18.718,premup-three_ses-01_part-01_label-phase1,3.2.4,Win32,60,left,0.676999807,4,0,4,0,1,3,1,0,240,236,1,239,,,,,,,,,,,,,,,,,,
,,1,228,,,,,,,3,2,1,stim/21.jpeg,HouseObjects,1,stim/objects/HouseObjects/thread2.png,0.9,2,0.2,0.15,left,29,2020-12-04_09h56.18.718,premup-three_ses-01_part-01_label-phase1,3.2.4,Win32,60,left,0.634000063,4,0,4,0,1,3,1,0,240,212,1,239,,,,,,,,,,,,,,,,,,
,,1,229,,,,,,,3,2,4,stim/24.jpeg,HouseObjects,1,stim/objects/HouseObjects/wateringcan2.png,0.9,4,0.2,-0.15,left,29,2020-12-04_09h56.18.718,premup-three_ses-01_part-01_label-phase1,3.2.4,Win32,60,left,0.434999943,4,0,4,0,1,3,1,0,240,223,1,239,,,,,,,,,,,,,,,,,,
,,1,230,,,,,,,1,3,4,stim/34.jpeg,Instruments,2,stim/objects/Instruments/tambourine.png,0.5,2,0.2,0.15,right,29,2020-12-04_09h56.18.718,premup-three_ses-01_part-01_label-phase1,3.2.4,Win32,60,right,1.031999826,4,0,4,0,1,3,1,0,240,35,1,239,,,,,,,,,,,,,,,,,,
,,0,231,,,,,,,3,2,1,stim/21.jpeg,HouseObjects,1,stim/objects/HouseObjects/thread2.png,0.9,1,-0.2,0.15,left,29,2020-12-04_09h56.18.718,premup-three_ses-01_part-01_label-phase1,3.2.4,Win32,60,right,0.976999998,4,0,4,0,1,3,1,0,240,228,1,239,,,,,,,,,,,,,,,,,,
,,0,232,,,,,,,2,5,3,stim/53.jpeg,Instruments,2,stim/objects/Instruments/vuvuzela.png,0.7,4,0.2,-0.15,right,29,2020-12-04_09h56.18.718,premup-three_ses-01_part-01_label-phase1,3.2.4,Win32,60,left,1.200999975,4,0,4,0,1,3,1,0,240,118,1,239,,,,,,,,,,,,,,,,,,
,,0,233,,,,,,,1,4,4,stim/44.jpeg,Instruments,2,stim/objects/Instruments/trumpet.png,0.5,3,-0.2,-0.15,right,29,2020-12-04_09h56.18.718,premup-three_ses-01_part-01_label-phase1,3.2.4,Win32,60,left,1.041000128,4,0,4,0,1,3,1,0,240,71,1,239,,,,,,,,,,,,,,,,,,
,,1,234,,,,,,,2,5,4,stim/54.jpeg,Instruments,2,stim/objects/Instruments/xylophone.png,0.7,1,-0.2,0.15,right,29,2020-12-04_09h56.18.718,premup-three_ses-01_part-01_label-phase1,3.2.4,Win32,60,right,0.88499999,4,0,4,0,1,3,1,0,240,115,1,239,,,,,,,,,,,,,,,,,,
,,0,235,,,,,,,2,5,3,stim/53.jpeg,HouseObjects,1,stim/objects/HouseObjects/vacuumcleaner.png,0.3,3,-0.2,-0.15,left,29,2020-12-04_09h56.18.718,premup-three_ses-01_part-01_label-phase1,3.2.4,Win32,60,right,0.585999966,4,0,4,0,1,3,1,0,240,82,1,239,,,,,,,,,,,,,,,,,,
,,1,236,,,,,,,1,3,1,stim/31.jpeg,HouseObjects,1,stim/objects/HouseObjects/rug.png,0.5,2,0.2,0.15,left,29,2020-12-04_09h56.18.718,premup-three_ses-01_part-01_label-phase1,3.2.4,Win32,60,left,1.144999743,4,0,4,0,1,3,1,0,240,12,1,239,,,,,,,,,,,,,,,,,,
,,1,237,,,,,,,3,2,2,stim/22.jpeg,HouseObjects,1,stim/objects/HouseObjects/towel2.png,0.9,3,-0.2,-0.15,left,29,2020-12-04_09h56.18.718,premup-three_ses-01_part-01_label-phase1,3.2.4,Win32,60,left,1.19299984,4,0,4,0,1,3,1,0,240,213,1,239,,,,,,,,,,,,,,,,,,
,,1,238,,,,,,,3,2,3,stim/23.jpeg,HouseObjects,1,stim/objects/HouseObjects/vacuumcleaner2.png,0.9,4,0.2,-0.15,left,29,2020-12-04_09h56.18.718,premup-three_ses-01_part-01_label-phase1,3.2.4,Win32,60,left,0.465000153,4,0,4,0,1,3,1,0,240,206,1,239,,,,,,,,,,,,,,,,,,
,,1,239,,,,,,,2,5,1,stim/51.jpeg,Instruments,2,stim/objects/Instruments/tuba.png,0.7,3,-0.2,-0.15,right,29,2020-12-04_09h56.18.718,premup-three_ses-01_part-01_label-phase1,3.2.4,Win32,60,right,1.416000128,4,0,4,0,1,3,1,0,240,108,1,239,,,,,,,,,,,,,,,,,,
,,0,240,,,,,,,1,4,3,stim/43.jpeg,Instruments,2,stim/objects/Instruments/trombone.png,0.5,4,0.2,-0.15,right,29,2020-12-04_09h56.18.718,premup-three_ses-01_part-01_label-phase1,3.2.4,Win32,60,left,0.84800005,4,0,4,0,1,3,1,0,240,78,1,239,,,,,,,,,,,,,,,,,,
,,,,,,,,,,,6,,stim/61.jpeg,,,,,,,,,29,2020-12-04_09h56.18.718,premup-three_ses-01_part-01_label-phase1,3.2.4,Win32,60,,,4,0,4,0,1,3,,,,,,,1,0,80,17.14299989,,,1,0,6,5,1,5,Household items,5,15,Music items,85,95
,,,,,,,,,,,2,,stim/21.jpeg,,,,,,,,,29,2020-12-04_09h56.18.718,premup-three_ses-01_part-01_label-phase1,3.2.4,Win32,60,,,4,0,4,0,1,3,,,,,,,1,0,90,3.65199995,,,1,0,6,1,1,5,Music items,45,55,Household items,45,55
,,,,,,,,,,,1,,stim/11.jpeg,,,,,,,,,29,2020-12-04_09h56.18.718,premup-three_ses-01_part-01_label-phase1,3.2.4,Win32,60,,,4,0,4,0,1,3,,,,,,,1,0,20,11.64899993,,,1,0,6,0,1,5,Household items,45,55,Music items,45,55
,,,,,,,,,,,3,,stim/31.jpeg,,,,,,,,,29,2020-12-04_09h56.18.718,premup-three_ses-01_part-01_label-phase1,3.2.4,Win32,60,,,4,0,4,0,1,3,,,,,,,1,0,40,8.761999846,,,1,0,6,2,1,5,Household items,65,75,Music items,25,35
,,,,,,,,,,,5,,stim/51.jpeg,,,,,,,,,29,2020-12-04_09h56.18.718,premup-three_ses-01_part-01_label-phase1,3.2.4,Win32,60,,,4,0,4,0,1,3,,,,,,,1,0,70,4.540999889,,,1,0,6,4,1,5,Music items,5,15,Household items,85,95
,,,,,,,,,,,4,,stim/41.jpeg,,,,,,,,,29,2020-12-04_09h56.18.718,premup-three_ses-01_part-01_label-phase1,3.2.4,Win32,60,,,4,0,4,0,1,3,,,,,,,1,0,79,5.429999828,,,1,0,6,3,1,5,Household items,65,75,Music items,25,35
,,,,,,,,,,,,,,,,,,,,,,29,2020-12-04_09h56.18.718,premup-three_ses-01_part-01_label-phase1,3.2.4,Win32,60,,,4,0,4,0,1,3,,,,,,,,,,,,,,,,,,,,,,,,
,,0,1,,,,,,,1,4,1,stim/41.jpeg,Instruments,2,stim/objects/Instruments/timbal.png,0.5,1,-0.2,0.15,right,29,2020-12-04_09h56.18.718,premup-three_ses-01_part-01_label-phase1,3.2.4,Win32,60,left,1.613000154,4,0,4,0,1,3,1,0,240,72,1,239,,,,,,,,,,,,,,,,,,
,,0,2,,,,,,,1,4,1,stim/41.jpeg,HouseObjects,1,stim/objects/HouseObjects/sponge.png,0.5,4,0.2,-0.15,left,29,2020-12-04_09h56.18.718,premup-three_ses-01_part-01_label-phase1,3.2.4,Win32,60,right,0.785000086,4,0,4,0,1,3,1,0,240,44,1,239,,,,,,,,,,,,,,,,,,
,,0,3,,,,,,,2,6,3,stim/63.jpeg,Instruments,2,stim/objects/Instruments/speaker2.png,0.3,3,-0.2,-0.15,right,29,2020-12-04_09h56.18.718,premup-three_ses-01_part-01_label-phase1,3.2.4,Win32,60,left,1.253999949,4,0,4,0,1,3,1,0,240,158,1,239,,,,,,,,,,,,,,,,,,
,,1,4,,,,,,,3,2,1,stim/21.jpeg,HouseObjects,1,stim/objects/HouseObjects/thread2.png,0.9,2,0.2,0.15,left,29,2020-12-04_09h56.18.718,premup-three_ses-01_part-01_label-phase1,3.2.4,Win32,60,left,0.864999771,4,0,4,0,1,3,1,0,240,212,1,239,,,,,,,,,,,,,,,,,,
,,0,5,,,,,,,1,4,2,stim/42.jpeg,HouseObjects,1,stim/objects/HouseObjects/spraybottle.png,0.5,2,0.2,0.15,left,29,2020-12-04_09h56.18.718,premup-three_ses-01_part-01_label-phase1,3.2.4,Win32,60,right,1.267999887,4,0,4,0,1,3,1,0,240,41,1,239,,,,,,,,,,,,,,,,,,
,,1,6,,,,,,,3,1,1,stim/11.jpeg,Instruments,2,stim/objects/Instruments/timbal2.png,0.9,1,-0.2,0.15,right,29,2020-12-04_09h56.18.718,premup-three_ses-01_part-01_label-phase1,3.2.4,Win32,60,right,0.88499999,4,0,4,0,1,3,1,0,240,184,1,239,,,,,,,,,,,,,,,,,,
,,0,7,,,,,,,2,6,3,stim/63.jpeg,HouseObjects,1,stim/objects/HouseObjects/saw2.png,0.7,4,0.2,-0.15,left,29,2020-12-04_09h56.18.718,premup-three_ses-01_part-01_label-phase1,3.2.4,Win32,60,right,0.930999994,4,0,4,0,1,3,1,0,240,126,1,239,,,,,,,,,,,,,,,,,,
,,0,8,,,,,,,1,3,1,stim/31.jpeg,HouseObjects,1,stim/objects/HouseObjects/rug.png,0.5,3,-0.2,-0.15,left,29,2020-12-04_09h56.18.718,premup-three_ses-01_part-01_label-phase1,3.2.4,Win32,60,right,1.118000031,4,0,4,0,1,3,1,0,240,0,1,239,,,,,,,,,,,,,,,,,,
,,1,9,,,,,,,1,3,3,stim/33.jpeg,Instruments,2,stim/objects/Instruments/speaker.png,0.5,1,-0.2,0.15,right,29,2020-12-04_09h56.18.718,premup-three_ses-01_part-01_label-phase1,3.2.4,Win32,60,right,0.680999994,4,0,4,0,1,3,1,0,240,38,1,239,,,,,,,,,,,,,,,,,,
,,1,10,,,,,,,2,5,3,stim/53.jpeg,HouseObjects,1,stim/objects/HouseObjects/vacuumcleaner.png,0.3,3,-0.2,-0.15,left,29,2020-12-04_09h56.18.718,premup-three_ses-01_part-01_label-phase1,3.2.4,Win32,60,left,0.901000023,4,0,4,0,1,3,1,0,240,82,1,239,,,,,,,,,,,,,,,,,,
,,1,11,,,,,,,3,2,3,stim/23.jpeg,HouseObjects,1,stim/objects/HouseObjects/vacuumcleaner2.png,0.9,1,-0.2,0.15,left,29,2020-12-04_09h56.18.718,premup-three_ses-01_part-01_label-phase1,3.2.4,Win32,60,left,0.967999935,4,0,4,0,1,3,1,0,240,214,1,239,,,,,,,,,,,,,,,,,,
,,1,12,,,,,,,3,1,1,stim/11.jpeg,Instruments,2,stim/objects/Instruments/timbal2.png,0.9,2,0.2,0.15,right,29,2020-12-04_09h56.18.718,premup-three_ses-01_part-01_label-phase1,3.2.4,Win32,60,right,0.829999924,4,0,4,0,1,3,1,0,240,168,1,239,,,,,,,,,,,,,,,,,,
,,1,13,,,,,,,3,2,1,stim/21.jpeg,HouseObjects,1,stim/objects/HouseObjects/thread2.png,0.9,1,-0.2,0.15,left,29,2020-12-04_09h56.18.718,premup-three_ses-01_part-01_label-phase1,3.2.4,Win32,60,left,0.687999964,4,0,4,0,1,3,1,0,240,228,1,239,,,,,,,,,,,,,,,,,,
,,0,14,,,,,,,2,5,2,stim/52.jpeg,Instruments,2,stim/objects/Instruments/violin.png,0.7,3,-0.2,-0.15,right,29,2020-12-04_09h56.18.718,premup-three_ses-01_part-01_label-phase1,3.2.4,Win32,60,left,1.419999838,4,0,4,0,1,3,1,0,240,97,1,239,,,,,,,,,,,,,,,,,,
,,1,15,,,,,,,3,1,3,stim/13.jpeg,Instruments,2,stim/objects/Instruments/trombone2.png,0.9,3,-0.2,-0.15,right,29,2020-12-04_09h56.18.718,premup-three_ses-01_part-01_label-phase1,3.2.4,Win32,60,right,1.051000118,4,0,4,0,1,3,1,0,240,190,1,239,,,,,,,,,,,,,,,,,,
,,1,16,,,,,,,2,5,4,stim/54.jpeg,Instruments,2,stim/objects/Instruments/xylophone.png,0.7,1,-0.2,0.15,right,29,2020-12-04_09h56.18.718,premup-three_ses-01_part-01_label-phase1,3.2.4,Win32,60,right,0.60800004,4,0,4,0,1,3,1,0,240,115,1,239,,,,,,,,,,,,,,,,,,
,,1,17,,,,,,,2,5,3,stim/53.jpeg,Instruments,2,stim/objects/Instruments/vuvuzela.png,0.7,1,-0.2,0.15,right,29,2020-12-04_09h56.18.718,premup-three_ses-01_part-01_label-phase1,3.2.4,Win32,60,right,0.486999989,4,0,4,0,1,3,1,0,240,110,1,239,,,,,,,,,,,,,,,,,,
,,1,18,,,,,,,3,2,1,stim/21.jpeg,HouseObjects,1,stim/objects/HouseObjects/thread2.png,0.9,4,0.2,-0.15,left,29,2020-12-04_09h56.18.718,premup-three_ses-01_part-01_label-phase1,3.2.4,Win32,60,left,1.017999887,4,0,4,0,1,3,1,0,240,232,1,239,,,,,,,,,,,,,,,,,,
,,1,19,,,,,,,3,1,1,stim/11.jpeg,Instruments,2,stim/objects/Instruments/timbal2.png,0.9,4,0.2,-0.15,right,29,2020-12-04_09h56.18.718,premup-three_ses-01_part-01_label-phase1,3.2.4,Win32,60,right,0.854000092,4,0,4,0,1,3,1,0,240,192,1,239,,,,,,,,,,,,,,,,,,
,,1,20,,,,,,,3,2,2,stim/22.jpeg,HouseObjects,1,stim/objects/HouseObjects/towel2.png,0.9,3,-0.2,-0.15,left,29,2020-12-04_09h56.18.718,premup-three_ses-01_part-01_label-phase1,3.2.4,Win32,60,left,0.609999895,4,0,4,0,1,3,1,0,240,229,1,239,,,,,,,,,,,,,,,,,,
,,1,21,,,,,,,3,1,4,stim/14.jpeg,Instruments,2,stim/objects/Instruments/trumpet2.png,0.9,3,-0.2,-0.15,right,29,2020-12-04_09h56.18.718,premup-three_ses-01_part-01_label-phase1,3.2.4,Win32,60,right,0.819000006,4,0,4,0,1,3,1,0,240,195,1,239,,,,,,,,,,,,,,,,,,
,,1,22,,,,,,,1,3,4,stim/34.jpeg,Instruments,2,stim/objects/Instruments/tambourine.png,0.5,1,-0.2,0.15,right,29,2020-12-04_09h56.18.718,premup-three_ses-01_part-01_label-phase1,3.2.4,Win32,60,right,1.638000011,4,0,4,0,1,3,1,0,240,27,1,239,,,,,,,,,,,,,,,,,,
,,1,23,,,,,,,3,2,1,stim/21.jpeg,HouseObjects,1,stim/objects/HouseObjects/thread2.png,0.9,1,-0.2,0.15,left,29,2020-12-04_09h56.18.718,premup-three_ses-01_part-01_label-phase1,3.2.4,Win32,60,left,0.79399991,4,0,4,0,1,3,1,0,240,200,1,239,,,,,,,,,,,,,,,,,,
,,1,24,,,,,,,3,2,4,stim/24.jpeg,HouseObjects,1,stim/objects/HouseObjects/wateringcan2.png,0.9,2,0.2,0.15,left,29,2020-12-04_09h56.18.718,premup-three_ses-01_part-01_label-phase1,3.2.4,Win32,60,left,0.464999914,4,0,4,0,1,3,1,0,240,215,1,239,,,,,,,,,,,,,,,,,,
,,1,25,,,,,,,3,1,2,stim/12.jpeg,Instruments,2,stim/objects/Instruments/triangle2.png,0.9,3,-0.2,-0.15,right,29,2020-12-04_09h56.18.718,premup-three_ses-01_part-01_label-phase1,3.2.4,Win32,60,right,0.781999826,4,0,4,0,1,3,1,0,240,181,1,239,,,,,,,,,,,,,,,,,,
,,1,26,,,,,,,1,3,2,stim/32.jpeg,Instruments,2,stim/objects/Instruments/saxophone.png,0.5,1,-0.2,0.15,right,29,2020-12-04_09h56.18.718,premup-three_ses-01_part-01_label-phase1,3.2.4,Win32,60,right,1.493000031,4,0,4,0,1,3,1,0,240,21,1,239,,,,,,,,,,,,,,,,,,
,,0,27,,,,,,,3,2,2,stim/22.jpeg,Instruments,2,stim/objects/Instruments/violin2.png,0.1,4,0.2,-0.15,right,29,2020-12-04_09h56.18.718,premup-three_ses-01_part-01_label-phase1,3.2.4,Win32,60,left,0.745999813,4,0,4,0,1,3,1,0,240,237,1,239,,,,,,,,,,,,,,,,,,
,,1,28,,,,,,,1,4,1,stim/41.jpeg,HouseObjects,1,stim/objects/HouseObjects/sponge.png,0.5,4,0.2,-0.15,left,29,2020-12-04_09h56.18.718,premup-three_ses-01_part-01_label-phase1,3.2.4,Win32,60,left,1.125999928,4,0,4,0,1,3,1,0,240,56,1,239,,,,,,,,,,,,,,,,,,
,,0,29,,,,,,,1,4,4,stim/44.jpeg,Instruments,2,stim/objects/Instruments/trumpet.png,0.5,4,0.2,-0.15,right,29,2020-12-04_09h56.18.718,premup-three_ses-01_part-01_label-phase1,3.2.4,Win32,60,left,1.266000032,4,0,4,0,1,3,1,0,240,79,1,239,,,,,,,,,,,,,,,,,,
,,0,30,,,,,,,1,3,4,stim/34.jpeg,HouseObjects,1,stim/objects/HouseObjects/scale.png,0.5,2,0.2,0.15,left,29,2020-12-04_09h56.18.718,premup-three_ses-01_part-01_label-phase1,3.2.4,Win32,60,right,1.717000008,4,0,4,0,1,3,1,0,240,7,1,239,,,,,,,,,,,,,,,,,,
,,0,31,,,,,,,2,6,3,stim/63.jpeg,Instruments,2,stim/objects/Instruments/speaker2.png,0.3,4,0.2,-0.15,right,29,2020-12-04_09h56.18.718,premup-three_ses-01_part-01_label-phase1,3.2.4,Win32,60,left,1.184999943,4,0,4,0,1,3,1,0,240,154,1,239,,,,,,,,,,,,,,,,,,
,,0,32,,,,,,,1,4,3,stim/43.jpeg,HouseObjects,1,stim/objects/HouseObjects/teapot.png,0.5,2,0.2,0.15,left,29,2020-12-04_09h56.18.718,premup-three_ses-01_part-01_label-phase1,3.2.4,Win32,60,,,4,0,4,0,1,3,1,0,240,50,1,239,,,,,,,,,,,,,,,,,,
,,0,33,,,,,,,2,6,4,stim/64.jpeg,HouseObjects,1,stim/objects/HouseObjects/scale2.png,0.7,4,0.2,-0.15,left,29,2020-12-04_09h56.18.718,premup-three_ses-01_part-01_label-phase1,3.2.4,Win32,60,right,1.230000019,4,0,4,0,1,3,1,0,240,123,1,239,,,,,,,,,,,,,,,,,,
,,1,34,,,,,,,1,4,2,stim/42.jpeg,HouseObjects,1,stim/objects/HouseObjects/spraybottle.png,0.5,4,0.2,-0.15,left,29,2020-12-04_09h56.18.718,premup-three_ses-01_part-01_label-phase1,3.2.4,Win32,60,left,1.32400012,4,0,4,0,1,3,1,0,240,53,1,239,,,,,,,,,,,,,,,,,,
,,1,35,,,,,,,1,4,3,stim/43.jpeg,Instruments,2,stim/objects/Instruments/trombone.png,0.5,4,0.2,-0.15,right,29,2020-12-04_09h56.18.718,premup-three_ses-01_part-01_label-phase1,3.2.4,Win32,60,right,1.19299984,4,0,4,0,1,3,1,0,240,66,1,239,,,,,,,,,,,,,,,,,,
,,1,36,,,,,,,3,2,2,stim/22.jpeg,HouseObjects,1,stim/objects/HouseObjects/towel2.png,0.9,2,0.2,0.15,left,29,2020-12-04_09h56.18.718,premup-three_ses-01_part-01_label-phase1,3.2.4,Win32,60,left,0.813999891,4,0,4,0,1,3,1,0,240,217,1,239,,,,,,,,,,,,,,,,,,
,,0,37,,,,,,,2,5,2,stim/52.jpeg,Instruments,2,stim/objects/Instruments/violin.png,0.7,2,0.2,0.15,right,29,2020-12-04_09h56.18.718,premup-three_ses-01_part-01_label-phase1,3.2.4,Win32,60,left,0.917000055,4,0,4,0,1,3,1,0,240,113,1,239,,,,,,,,,,,,,,,,,,
,,0,38,,,,,,,1,3,3,stim/33.jpeg,Instruments,2,stim/objects/Instruments/speaker.png,0.5,3,-0.2,-0.15,right,29,2020-12-04_09h56.18.718,premup-three_ses-01_part-01_label-phase1,3.2.4,Win32,60,left,0.940999746,4,0,4,0,1,3,1,0,240,22,1,239,,,,,,,,,,,,,,,,,,
,,1,39,,,,,,,3,1,1,stim/11.jpeg,Instruments,2,stim/objects/Instruments/timbal2.png,0.9,1,-0.2,0.15,right,29,2020-12-04_09h56.18.718,premup-three_ses-01_part-01_label-phase1,3.2.4,Win32,60,right,0.779000044,4,0,4,0,1,3,1,0,240,164,1,239,,,,,,,,,,,,,,,,,,
,,1,40,,,,,,,3,1,3,stim/13.jpeg,Instruments,2,stim/objects/Instruments/trombone2.png,0.9,2,0.2,0.15,right,29,2020-12-04_09h56.18.718,premup-three_ses-01_part-01_label-phase1,3.2.4,Win32,60,right,0.444999933,4,0,4,0,1,3,1,0,240,170,1,239,,,,,,,,,,,,,,,,,,
,,0,41,,,,,,,1,4,2,stim/42.jpeg,Instruments,2,stim/objects/Instruments/triangle.png,0.5,1,-0.2,0.15,right,29,2020-12-04_09h56.18.718,premup-three_ses-01_part-01_label-phase1,3.2.4,Win32,60,left,0.898999929,4,0,4,0,1,3,1,0,240,61,1,239,,,,,,,,,,,,,,,,,,
,,1,42,,,,,,,3,1,3,stim/13.jpeg,Instruments,2,stim/objects/Instruments/trombone2.png,0.9,3,-0.2,-0.15,right,29,2020-12-04_09h56.18.718,premup-three_ses-01_part-01_label-phase1,3.2.4,Win32,60,right,0.69299984,4,0,4,0,1,3,1,0,240,198,1,239,,,,,,,,,,,,,,,,,,
,,1,43,,,,,,,3,2,1,stim/21.jpeg,HouseObjects,1,stim/objects/HouseObjects/thread2.png,0.9,4,0.2,-0.15,left,29,2020-12-04_09h56.18.718,premup-three_ses-01_part-01_label-phase1,3.2.4,Win32,60,left,0.572999954,4,0,4,0,1,3,1,0,240,220,1,239,,,,,,,,,,,,,,,,,,
,,1,44,,,,,,,3,2,4,stim/24.jpeg,HouseObjects,1,stim/objects/HouseObjects/wateringcan2.png,0.9,1,-0.2,0.15,left,29,2020-12-04_09h56.18.718,premup-three_ses-01_part-01_label-phase1,3.2.4,Win32,60,left,0.644999981,4,0,4,0,1,3,1,0,240,207,1,239,,,,,,,,,,,,,,,,,,
,,1,45,,,,,,,1,3,3,stim/33.jpeg,Instruments,2,stim/objects/Instruments/speaker.png,0.5,1,-0.2,0.15,right,29,2020-12-04_09h56.18.718,premup-three_ses-01_part-01_label-phase1,3.2.4,Win32,60,right,1.009000063,4,0,4,0,1,3,1,0,240,26,1,239,,,,,,,,,,,,,,,,,,
,,1,46,,,,,,,1,3,4,stim/34.jpeg,HouseObjects,1,stim/objects/HouseObjects/scale.png,0.5,3,-0.2,-0.15,left,29,2020-12-04_09h56.18.718,premup-three_ses-01_part-01_label-phase1,3.2.4,Win32,60,left,0.973999977,4,0,4,0,1,3,1,0,240,3,1,239,,,,,,,,,,,,,,,,,,
,,0,47,,,,,,,2,6,4,stim/64.jpeg,Instruments,2,stim/objects/Instruments/tambourine2.png,0.3,1,-0.2,0.15,right,29,2020-12-04_09h56.18.718,premup-three_ses-01_part-01_label-phase1,3.2.4,Win32,60,left,0.832999945,4,0,4,0,1,3,1,0,240,155,1,239,,,,,,,,,,,,,,,,,,
,,1,48,,,,,,,1,4,4,stim/44.jpeg,HouseObjects,1,stim/objects/HouseObjects/thermometer.png,0.5,3,-0.2,-0.15,left,29,2020-12-04_09h56.18.718,premup-three_ses-01_part-01_label-phase1,3.2.4,Win32,60,left,1.001000166,4,0,4,0,1,3,1,0,240,43,1,239,,,,,,,,,,,,,,,,,,
,,0,49,,,,,,,2,5,1,stim/51.jpeg,HouseObjects,1,stim/objects/HouseObjects/thread.png,0.3,2,0.2,0.15,left,29,2020-12-04_09h56.18.718,premup-three_ses-01_part-01_label-phase1,3.2.4,Win32,60,right,1.026000023,4,0,4,0,1,3,1,0,240,88,1,239,,,,,,,,,,,,,,,,,,
,,0,50,,,,,,,2,6,3,stim/63.jpeg,HouseObjects,1,stim/objects/HouseObjects/saw2.png,0.7,2,0.2,0.15,left,29,2020-12-04_09h56.18.718,premup-three_ses-01_part-01_label-phase1,3.2.4,Win32,60,right,1.233999968,4,0,4,0,1,3,1,0,240,130,1,239,,,,,,,,,,,,,,,,,,
,,0,51,,,,,,,3,1,4,stim/14.jpeg,HouseObjects,1,stim/objects/HouseObjects/thermometer2.png,0.1,3,-0.2,-0.15,left,29,2020-12-04_09h56.18.718,premup-three_ses-01_part-01_label-phase1,3.2.4,Win32,60,right,0.63499999,4,0,4,0,1,3,1,0,240,163,1,239,,,,,,,,,,,,,,,,,,
,,1,52,,,,,,,1,3,3,stim/33.jpeg,HouseObjects,1,stim/objects/HouseObjects/saw.png,0.5,3,-0.2,-0.15,left,29,2020-12-04_09h56.18.718,premup-three_ses-01_part-01_label-phase1,3.2.4,Win32,60,left,1.708999872,4,0,4,0,1,3,1,0,240,2,1,239,,,,,,,,,,,,,,,,,,
,,1,53,,,,,,,1,3,1,stim/31.jpeg,Instruments,2,stim/objects/Instruments/record_player.png,0.5,1,-0.2,0.15,right,29,2020-12-04_09h56.18.718,premup-three_ses-01_part-01_label-phase1,3.2.4,Win32,60,right,0.89199996,4,0,4,0,1,3,1,0,240,20,1,239,,,,,,,,,,,,,,,,,,
,,1,54,,,,,,,3,1,2,stim/12.jpeg,Instruments,2,stim/objects/Instruments/triangle2.png,0.9,3,-0.2,-0.15,right,29,2020-12-04_09h56.18.718,premup-three_ses-01_part-01_label-phase1,3.2.4,Win32,60,right,0.869999886,4,0,4,0,1,3,1,0,240,189,1,239,,,,,,,,,,,,,,,,,,
,,0,55,,,,,,,2,5,2,stim/52.jpeg,HouseObjects,1,stim/objects/HouseObjects/towel.png,0.3,2,0.2,0.15,left,29,2020-12-04_09h56.18.718,premup-three_ses-01_part-01_label-phase1,3.2.4,Win32,60,right,1.013000011,4,0,4,0,1,3,1,0,240,89,1,239,,,,,,,,,,,,,,,,,,
,,1,56,,,,,,,1,3,4,stim/34.jpeg,HouseObjects,1,stim/objects/HouseObjects/scale.png,0.5,2,0.2,0.15,left,29,2020-12-04_09h56.18.718,premup-three_ses-01_part-01_label-phase1,3.2.4,Win32,60,left,1.135999918,4,0,4,0,1,3,1,0,240,15,1,239,,,,,,,,,,,,,,,,,,
,,0,57,,,,,,,3,1,1,stim/11.jpeg,HouseObjects,1,stim/objects/HouseObjects/sponge2.png,0.1,2,0.2,0.15,left,29,2020-12-04_09h56.18.718,premup-three_ses-01_part-01_label-phase1,3.2.4,Win32,60,right,0.643999815,4,0,4,0,1,3,1,0,240,160,1,239,,,,,,,,,,,,,,,,,,
,,1,58,,,,,,,1,4,4,stim/44.jpeg,HouseObjects,1,stim/objects/HouseObjects/thermometer.png,0.5,1,-0.2,0.15,left,29,2020-12-04_09h56.18.718,premup-three_ses-01_part-01_label-phase1,3.2.4,Win32,60,left,1.036000013,4,0,4,0,1,3,1,0,240,51,1,239,,,,,,,,,,,,,,,,,,
,,1,59,,,,,,,1,4,1,stim/41.jpeg,HouseObjects,1,stim/objects/HouseObjects/sponge.png,0.5,3,-0.2,-0.15,left,29,2020-12-04_09h56.18.718,premup-three_ses-01_part-01_label-phase1,3.2.4,Win32,60,left,1.075999975,4,0,4,0,1,3,1,0,240,52,1,239,,,,,,,,,,,,,,,,,,
,,1,60,,,,,,,3,2,3,stim/23.jpeg,HouseObjects,1,stim/objects/HouseObjects/vacuumcleaner2.png,0.9,4,0.2,-0.15,left,29,2020-12-04_09h56.18.718,premup-three_ses-01_part-01_label-phase1,3.2.4,Win32,60,left,0.644000053,4,0,4,0,1,3,1,0,240,202,1,239,,,,,,,,,,,,,,,,,,
,,0,61,,,,,,,1,4,4,stim/44.jpeg,Instruments,2,stim/objects/Instruments/trumpet.png,0.5,1,-0.2,0.15,right,29,2020-12-04_09h56.18.718,premup-three_ses-01_part-01_label-phase1,3.2.4,Win32,60,left,0.850999832,4,0,4,0,1,3,1,0,240,63,1,239,,,,,,,,,,,,,,,,,,
,,1,62,,,,,,,2,6,2,stim/62.jpeg,HouseObjects,1,stim/objects/HouseObjects/safetypin2.png,0.7,4,0.2,-0.15,left,29,2020-12-04_09h56.18.718,premup-three_ses-01_part-01_label-phase1,3.2.4,Win32,60,left,1.44900012,4,0,4,0,1,3,1,0,240,125,1,239,,,,,,,,,,,,,,,,,,
,,0,63,,,,,,,1,4,1,stim/41.jpeg,Instruments,2,stim/objects/Instruments/timbal.png,0.5,2,0.2,0.15,right,29,2020-12-04_09h56.18.718,premup-three_ses-01_part-01_label-phase1,3.2.4,Win32,60,left,1.153000116,4,0,4,0,1,3,1,0,240,76,1,239,,,,,,,,,,,,,,,,,,
,,1,64,,,,,,,2,5,2,stim/52.jpeg,HouseObjects,1,stim/objects/HouseObjects/towel.png,0.3,4,0.2,-0.15,left,29,2020-12-04_09h56.18.718,premup-three_ses-01_part-01_label-phase1,3.2.4,Win32,60,left,1.269000053,4,0,4,0,1,3,1,0,240,81,1,239,,,,,,,,,,,,,,,,,,
,,1,65,,,,,,,2,5,1,stim/51.jpeg,Instruments,2,stim/objects/Instruments/tuba.png,0.7,1,-0.2,0.15,right,29,2020-12-04_09h56.18.718,premup-three_ses-01_part-01_label-phase1,3.2.4,Win32,60,right,1.181999922,4,0,4,0,1,3,1,0,240,100,1,239,,,,,,,,,,,,,,,,,,
,,1,66,,,,,,,1,3,1,stim/31.jpeg,Instruments,2,stim/objects/Instruments/record_player.png,0.5,4,0.2,-0.15,right,29,2020-12-04_09h56.18.718,premup-three_ses-01_part-01_label-phase1,3.2.4,Win32,60,right,1.453000069,4,0,4,0,1,3,1,0,240,24,1,239,,,,,,,,,,,,,,,,,,
,,0,67,,,,,,,1,4,4,stim/44.jpeg,Instruments,2,stim/objects/Instruments/trumpet.png,0.5,3,-0.2,-0.15,right,29,2020-12-04_09h56.18.718,premup-three_ses-01_part-01_label-phase1,3.2.4,Win32,60,left,0.860000134,4,0,4,0,1,3,1,0,240,67,1,239,,,,,,,,,,,,,,,,,,
,,0,68,,,,,,,3,1,2,stim/12.jpeg,HouseObjects,1,stim/objects/HouseObjects/spraybottle2.png,0.1,3,-0.2,-0.15,left,29,2020-12-04_09h56.18.718,premup-three_ses-01_part-01_label-phase1,3.2.4,Win32,60,right,0.628999949,4,0,4,0,1,3,1,0,240,161,1,239,,,,,,,,,,,,,,,,,,
,,1,69,,,,,,,1,4,4,stim/44.jpeg,HouseObjects,1,stim/objects/HouseObjects/thermometer.png,0.5,3,-0.2,-0.15,left,29,2020-12-04_09h56.18.718,premup-three_ses-01_part-01_label-phase1,3.2.4,Win32,60,left,0.799000025,4,0,4,0,1,3,1,0,240,47,1,239,,,,,,,,,,,,,,,,,,
,,1,70,,,,,,,3,1,3,stim/13.jpeg,Instruments,2,stim/objects/Instruments/trombone2.png,0.9,4,0.2,-0.15,right,29,2020-12-04_09h56.18.718,premup-three_ses-01_part-01_label-phase1,3.2.4,Win32,60,right,0.910000086,4,0,4,0,1,3,1,0,240,194,1,239,,,,,,,,,,,,,,,,,,
,,0,71,,,,,,,1,4,2,stim/42.jpeg,Instruments,2,stim/objects/Instruments/triangle.png,0.5,1,-0.2,0.15,right,29,2020-12-04_09h56.18.718,premup-three_ses-01_part-01_label-phase1,3.2.4,Win32,60,left,1.027999878,4,0,4,0,1,3,1,0,240,65,1,239,,,,,,,,,,,,,,,,,,
,,0,72,,,,,,,1,3,1,stim/31.jpeg,HouseObjects,1,stim/objects/HouseObjects/rug.png,0.5,1,-0.2,0.15,left,29,2020-12-04_09h56.18.718,premup-three_ses-01_part-01_label-phase1,3.2.4,Win32,60,right,0.915999889,4,0,4,0,1,3,1,0,240,16,1,239,,,,,,,,,,,,,,,,,,
,,1,73,,,,,,,1,3,4,stim/34.jpeg,HouseObjects,1,stim/objects/HouseObjects/scale.png,0.5,4,0.2,-0.15,left,29,2020-12-04_09h56.18.718,premup-three_ses-01_part-01_label-phase1,3.2.4,Win32,60,left,0.859999895,4,0,4,0,1,3,1,0,240,19,1,239,,,,,,,,,,,,,,,,,,
,,1,74,,,,,,,2,6,4,stim/64.jpeg,Instruments,2,stim/objects/Instruments/tambourine2.png,0.3,3,-0.2,-0.15,right,29,2020-12-04_09h56.18.718,premup-three_ses-01_part-01_label-phase1,3.2.4,Win32,60,right,1.375,4,0,4,0,1,3,1,0,240,151,1,239,,,,,,,,,,,,,,,,,,
,,1,75,,,,,,,2,5,3,stim/53.jpeg,Instruments,2,stim/objects/Instruments/vuvuzela.png,0.7,2,0.2,0.15,right,29,2020-12-04_09h56.18.718,premup-three_ses-01_part-01_label-phase1,3.2.4,Win32,60,right,1.048000097,4,0,4,0,1,3,1,0,240,94,1,239,,,,,,,,,,,,,,,,,,
,,1,76,,,,,,,3,2,3,stim/23.jpeg,HouseObjects,1,stim/objects/HouseObjects/vacuumcleaner2.png,0.9,2,0.2,0.15,left,29,2020-12-04_09h56.18.718,premup-three_ses-01_part-01_label-phase1,3.2.4,Win32,60,left,0.828000069,4,0,4,0,1,3,1,0,240,230,1,239,,,,,,,,,,,,,,,,,,
,,0,77,,,,,,,2,5,4,stim/54.jpeg,HouseObjects,1,stim/objects/HouseObjects/wateringcan.png,0.3,3,-0.2,-0.15,left,29,2020-12-04_09h56.18.718,premup-three_ses-01_part-01_label-phase1,3.2.4,Win32,60,right,1.127999783,4,0,4,0,1,3,1,0,240,83,1,239,,,,,,,,,,,,,,,,,,
,,0,78,,,,,,,1,4,2,stim/42.jpeg,HouseObjects,1,stim/objects/HouseObjects/spraybottle.png,0.5,4,0.2,-0.15,left,29,2020-12-04_09h56.18.718,premup-three_ses-01_part-01_label-phase1,3.2.4,Win32,60,right,1.124000072,4,0,4,0,1,3,1,0,240,49,1,239,,,,,,,,,,,,,,,,,,
,,0,79,,,,,,,2,6,2,stim/62.jpeg,HouseObjects,1,stim/objects/HouseObjects/safetypin2.png,0.7,2,0.2,0.15,left,29,2020-12-04_09h56.18.718,premup-three_ses-01_part-01_label-phase1,3.2.4,Win32,60,right,1.353000164,4,0,4,0,1,3,1,0,240,129,1,239,,,,,,,,,,,,,,,,,,
,,0,80,,,,,,,1,3,2,stim/32.jpeg,HouseObjects,1,stim/objects/HouseObjects/safetypin.png,0.5,4,0.2,-0.15,left,29,2020-12-04_09h56.18.718,premup-three_ses-01_part-01_label-phase1,3.2.4,Win32,60,right,1.256000042,4,0,4,0,1,3,1,0,240,17,1,239,,,,,,,,,,,,,,,,,,
,,1,81,,,,,,,1,3,3,stim/33.jpeg,HouseObjects,1,stim/objects/HouseObjects/saw.png,0.5,1,-0.2,0.15,left,29,2020-12-04_09h56.18.718,premup-three_ses-01_part-01_label-phase1,3.2.4,Win32,60,left,0.968999863,4,0,4,0,1,3,1,0,240,14,1,239,,,,,,,,,,,,,,,,,,
,,1,82,,,,,,,1,3,2,stim/32.jpeg,HouseObjects,1,stim/objects/HouseObjects/safetypin.png,0.5,3,-0.2,-0.15,left,29,2020-12-04_09h56.18.718,premup-three_ses-01_part-01_label-phase1,3.2.4,Win32,60,left,0.728999853,4,0,4,0,1,3,1,0,240,5,1,239,,,,,,,,,,,,,,,,,,
,,1,83,,,,,,,2,5,1,stim/51.jpeg,Instruments,2,stim/objects/Instruments/tuba.png,0.7,2,0.2,0.15,right,29,2020-12-04_09h56.18.718,premup-three_ses-01_part-01_label-phase1,3.2.4,Win32,60,right,0.934000015,4,0,4,0,1,3,1,0,240,104,1,239,,,,,,,,,,,,,,,,,,
,,0,84,,,,,,,2,5,2,stim/52.jpeg,HouseObjects,1,stim/objects/HouseObjects/towel.png,0.3,1,-0.2,0.15,left,29,2020-12-04_09h56.18.718,premup-three_ses-01_part-01_label-phase1,3.2.4,Win32,60,right,0.86500001,4,0,4,0,1,3,1,0,240,85,1,239,,,,,,,,,,,,,,,,,,
,,1,85,,,,,,,2,6,3,stim/63.jpeg,HouseObjects,1,stim/objects/HouseObjects/saw2.png,0.7,4,0.2,-0.15,left,29,2020-12-04_09h56.18.718,premup-three_ses-01_part-01_label-phase1,3.2.4,Win32,60,left,0.902999878,4,0,4,0,1,3,1,0,240,146,1,239,,,,,,,,,,,,,,,,,,
,,0,86,,,,,,,2,6,4,stim/64.jpeg,HouseObjects,1,stim/objects/HouseObjects/scale2.png,0.7,2,0.2,0.15,left,29,2020-12-04_09h56.18.718,premup-three_ses-01_part-01_label-phase1,3.2.4,Win32,60,right,0.822999954,4,0,4,0,1,3,1,0,240,131,1,239,,,,,,,,,,,,,,,,,,
,,1,87,,,,,,,2,6,2,stim/62.jpeg,HouseObjects,1,stim/objects/HouseObjects/safetypin2.png,0.7,3,-0.2,-0.15,left,29,2020-12-04_09h56.18.718,premup-three_ses-01_part-01_label-phase1,3.2.4,Win32,60,left,0.811999798,4,0,4,0,1,3,1,0,240,133,1,239,,,,,,,,,,,,,,,,,,
,,1,88,,,,,,,3,2,2,stim/22.jpeg,HouseObjects,1,stim/objects/HouseObjects/towel2.png,0.9,3,-0.2,-0.15,left,29,2020-12-04_09h56.18.718,premup-three_ses-01_part-01_label-phase1,3.2.4,Win32,60,left,0.926000118,4,0,4,0,1,3,1,0,240,213,1,239,,,,,,,,,,,,,,,,,,
,,1,89,,,,,,,3,1,4,stim/14.jpeg,Instruments,2,stim/objects/Instruments/trumpet2.png,0.9,2,0.2,0.15,right,29,2020-12-04_09h56.18.718,premup-three_ses-01_part-01_label-phase1,3.2.4,Win32,60,right,0.647000074,4,0,4,0,1,3,1,0,240,175,1,239,,,,,,,,,,,,,,,,,,
,,0,90,,,,,,,1,4,4,stim/44.jpeg,Instruments,2,stim/objects/Instruments/trumpet.png,0.5,2,0.2,0.15,right,29,2020-12-04_09h56.18.718,premup-three_ses-01_part-01_label-phase1,3.2.4,Win32,60,left,0.934000015,4,0,4,0,1,3,1,0,240,75,1,239,,,,,,,,,,,,,,,,,,
,,1,91,,,,,,,2,6,2,stim/62.jpeg,HouseObjects,1,stim/objects/HouseObjects/safetypin2.png,0.7,3,-0.2,-0.15,left,29,2020-12-04_09h56.18.718,premup-three_ses-01_part-01_label-phase1,3.2.4,Win32,60,left,0.753999949,4,0,4,0,1,3,1,0,240,121,1,239,,,,,,,,,,,,,,,,,,
,,0,92,,,,,,,2,6,1,stim/61.jpeg,Instruments,2,stim/objects/Instruments/record_player2.png,0.3,1,-0.2,0.15,right,29,2020-12-04_09h56.18.718,premup-three_ses-01_part-01_label-phase1,3.2.4,Win32,60,left,1.179999828,4,0,4,0,1,3,1,0,240,148,1,239,,,,,,,,,,,,,,,,,,
,,1,93,,,,,,,2,5,3,stim/53.jpeg,Instruments,2,stim/objects/Instruments/vuvuzela.png,0.7,4,0.2,-0.15,right,29,2020-12-04_09h56.18.718,premup-three_ses-01_part-01_label-phase1,3.2.4,Win32,60,right,0.873999834,4,0,4,0,1,3,1,0,240,106,1,239,,,,,,,,,,,,,,,,,,
,,1,94,,,,,,,2,6,3,stim/63.jpeg,HouseObjects,1,stim/objects/HouseObjects/saw2.png,0.7,3,-0.2,-0.15,left,29,2020-12-04_09h56.18.718,premup-three_ses-01_part-01_label-phase1,3.2.4,Win32,60,left,0.887000084,4,0,4,0,1,3,1,0,240,142,1,239,,,,,,,,,,,,,,,,,,
,,0,95,,,,,,,1,4,2,stim/42.jpeg,HouseObjects,1,stim/objects/HouseObjects/spraybottle.png,0.5,4,0.2,-0.15,left,29,2020-12-04_09h56.18.718,premup-three_ses-01_part-01_label-phase1,3.2.4,Win32,60,right,1.133999825,4,0,4,0,1,3,1,0,240,45,1,239,,,,,,,,,,,,,,,,,,
,,0,96,,,,,,,1,3,1,stim/31.jpeg,HouseObjects,1,stim/objects/HouseObjects/rug.png,0.5,3,-0.2,-0.15,left,29,2020-12-04_09h56.18.718,premup-three_ses-01_part-01_label-phase1,3.2.4,Win32,60,right,1.229999781,4,0,4,0,1,3,1,0,240,4,1,239,,,,,,,,,,,,,,,,,,
,,0,97,,,,,,,1,3,4,stim/34.jpeg,Instruments,2,stim/objects/Instruments/tambourine.png,0.5,1,-0.2,0.15,right,29,2020-12-04_09h56.18.718,premup-three_ses-01_part-01_label-phase1,3.2.4,Win32,60,left,1.023000002,4,0,4,0,1,3,1,0,240,23,1,239,,,,,,,,,,,,,,,,,,
,,1,98,,,,,,,3,2,1,stim/21.jpeg,HouseObjects,1,stim/objects/HouseObjects/thread2.png,0.9,2,0.2,0.15,left,29,2020-12-04_09h56.18.718,premup-three_ses-01_part-01_label-phase1,3.2.4,Win32,60,left,0.673000097,4,0,4,0,1,3,1,0,240,208,1,239,,,,,,,,,,,,,,,,,,
,,1,99,,,,,,,2,6,1,stim/61.jpeg,Instruments,2,stim/objects/Instruments/record_player2.png,0.3,3,-0.2,-0.15,right,29,2020-12-04_09h56.18.718,premup-three_ses-01_part-01_label-phase1,3.2.4,Win32,60,right,1.223999977,4,0,4,0,1,3,1,0,240,156,1,239,,,,,,,,,,,,,,,,,,
,,1,100,,,,,,,2,6,3,stim/63.jpeg,HouseObjects,1,stim/objects/HouseObjects/saw2.png,0.7,3,-0.2,-0.15,left,29,2020-12-04_09h56.18.718,premup-three_ses-01_part-01_label-phase1,3.2.4,Win32,60,left,0.837000132,4,0,4,0,1,3,1,0,240,138,1,239,,,,,,,,,,,,,,,,,,
,,1,101,,,,,,,3,1,2,stim/12.jpeg,Instruments,2,stim/objects/Instruments/triangle2.png,0.9,1,-0.2,0.15,right,29,2020-12-04_09h56.18.718,premup-three_ses-01_part-01_label-phase1,3.2.4,Win32,60,right,0.865999937,4,0,4,0,1,3,1,0,240,173,1,239,,,,,,,,,,,,,,,,,,
,,0,102,,,,,,,1,3,2,stim/32.jpeg,HouseObjects,1,stim/objects/HouseObjects/safetypin.png,0.5,4,0.2,-0.15,left,29,2020-12-04_09h56.18.718,premup-three_ses-01_part-01_label-phase1,3.2.4,Win32,60,right,1.44299984,4,0,4,0,1,3,1,0,240,13,1,239,,,,,,,,,,,,,,,,,,
,,1,103,,,,,,,2,6,4,stim/64.jpeg,Instruments,2,stim/objects/Instruments/tambourine2.png,0.3,4,0.2,-0.15,right,29,2020-12-04_09h56.18.718,premup-three_ses-01_part-01_label-phase1,3.2.4,Win32,60,right,0.987999916,4,0,4,0,1,3,1,0,240,159,1,239,,,,,,,,,,,,,,,,,,
,,0,104,,,,,,,2,6,1,stim/61.jpeg,HouseObjects,1,stim/objects/HouseObjects/rug2.png,0.7,3,-0.2,-0.15,left,29,2020-12-04_09h56.18.718,premup-three_ses-01_part-01_label-phase1,3.2.4,Win32,60,right,1.677000046,4,0,4,0,1,3,1,0,240,120,1,239,,,,,,,,,,,,,,,,,,
,,1,105,,,,,,,1,4,3,stim/43.jpeg,HouseObjects,1,stim/objects/HouseObjects/teapot.png,0.5,4,0.2,-0.15,left,29,2020-12-04_09h56.18.718,premup-three_ses-01_part-01_label-phase1,3.2.4,Win32,60,left,1.036000013,4,0,4,0,1,3,1,0,240,42,1,239,,,,,,,,,,,,,,,,,,
,,1,106,,,,,,,2,6,1,stim/61.jpeg,HouseObjects,1,stim/objects/HouseObjects/rug2.png,0.7,2,0.2,0.15,left,29,2020-12-04_09h56.18.718,premup-three_ses-01_part-01_label-phase1,3.2.4,Win32,60,left,0.865999937,4,0,4,0,1,3,1,0,240,132,1,239,,,,,,,,,,,,,,,,,,
,,1,107,,,,,,,2,5,3,stim/53.jpeg,Instruments,2,stim/objects/Instruments/vuvuzela.png,0.7,1,-0.2,0.15,right,29,2020-12-04_09h56.18.718,premup-three_ses-01_part-01_label-phase1,3.2.4,Win32,60,right,0.838999987,4,0,4,0,1,3,1,0,240,98,1,239,,,,,,,,,,,,,,,,,,
,,1,108,,,,,,,3,2,2,stim/22.jpeg,HouseObjects,1,stim/objects/HouseObjects/towel2.png,0.9,1,-0.2,0.15,left,29,2020-12-04_09h56.18.718,premup-three_ses-01_part-01_label-phase1,3.2.4,Win32,60,left,0.707999945,4,0,4,0,1,3,1,0,240,225,1,239,,,,,,,,,,,,,,,,,,
,,0,109,,,,,,,1,3,4,stim/34.jpeg,Instruments,2,stim/objects/Instruments/tambourine.png,0.5,1,-0.2,0.15,right,29,2020-12-04_09h56.18.718,premup-three_ses-01_part-01_label-phase1,3.2.4,Win32,60,left,1.133000135,4,0,4,0,1,3,1,0,240,31,1,239,,,,,,,,,,,,,,,,,,
,,0,110,,,,,,,1,3,2,stim/32.jpeg,Instruments,2,stim/objects/Instruments/saxophone.png,0.5,1,-0.2,0.15,right,29,2020-12-04_09h56.18.718,premup-three_ses-01_part-01_label-phase1,3.2.4,Win32,60,left,1.04399991,4,0,4,0,1,3,1,0,240,33,1,239,,,,,,,,,,,,,,,,,,
,,1,111,,,,,,,1,4,1,stim/41.jpeg,HouseObjects,1,stim/objects/HouseObjects/sponge.png,0.5,2,0.2,0.15,left,29,2020-12-04_09h56.18.718,premup-three_ses-01_part-01_label-phase1,3.2.4,Win32,60,left,1.101000071,4,0,4,0,1,3,1,0,240,48,1,239,,,,,,,,,,,,,,,,,,
,,1,112,,,,,,,1,3,1,stim/31.jpeg,Instruments,2,stim/objects/Instruments/record_player.png,0.5,1,-0.2,0.15,right,29,2020-12-04_09h56.18.718,premup-three_ses-01_part-01_label-phase1,3.2.4,Win32,60,right,1.089999914,4,0,4,0,1,3,1,0,240,36,1,239,,,,,,,,,,,,,,,,,,
,,1,113,,,,,,,3,2,3,stim/23.jpeg,HouseObjects,1,stim/objects/HouseObjects/vacuumcleaner2.png,0.9,3,-0.2,-0.15,left,29,2020-12-04_09h56.18.718,premup-three_ses-01_part-01_label-phase1,3.2.4,Win32,60,left,0.634000063,4,0,4,0,1,3,1,0,240,222,1,239,,,,,,,,,,,,,,,,,,
,,1,114,,,,,,,3,2,2,stim/22.jpeg,HouseObjects,1,stim/objects/HouseObjects/towel2.png,0.9,2,0.2,0.15,left,29,2020-12-04_09h56.18.718,premup-three_ses-01_part-01_label-phase1,3.2.4,Win32,60,left,0.478999853,4,0,4,0,1,3,1,0,240,201,1,239,,,,,,,,,,,,,,,,,,
,,0,115,,,,,,,2,6,4,stim/64.jpeg,HouseObjects,1,stim/objects/HouseObjects/scale2.png,0.7,3,-0.2,-0.15,left,29,2020-12-04_09h56.18.718,premup-three_ses-01_part-01_label-phase1,3.2.4,Win32,60,right,1.421999931,4,0,4,0,1,3,1,0,240,127,1,239,,,,,,,,,,,,,,,,,,
,,0,116,,,,,,,1,4,3,stim/43.jpeg,Instruments,2,stim/objects/Instruments/trombone.png,0.5,4,0.2,-0.15,right,29,2020-12-04_09h56.18.718,premup-three_ses-01_part-01_label-phase1,3.2.4,Win32,60,left,0.74399972,4,0,4,0,1,3,1,0,240,78,1,239,,,,,,,,,,,,,,,,,,
,,1,117,,,,,,,3,1,2,stim/12.jpeg,Instruments,2,stim/objects/Instruments/triangle2.png,0.9,1,-0.2,0.15,right,29,2020-12-04_09h56.18.718,premup-three_ses-01_part-01_label-phase1,3.2.4,Win32,60,right,0.662999868,4,0,4,0,1,3,1,0,240,197,1,239,,,,,,,,,,,,,,,,,,
,,1,118,,,,,,,3,2,3,stim/23.jpeg,HouseObjects,1,stim/objects/HouseObjects/vacuumcleaner2.png,0.9,4,0.2,-0.15,left,29,2020-12-04_09h56.18.718,premup-three_ses-01_part-01_label-phase1,3.2.4,Win32,60,left,0.82799983,4,0,4,0,1,3,1,0,240,226,1,239,,,,,,,,,,,,,,,,,,
,,0,119,,,,,,,2,5,4,stim/54.jpeg,Instruments,2,stim/objects/Instruments/xylophone.png,0.7,4,0.2,-0.15,right,29,2020-12-04_09h56.18.718,premup-three_ses-01_part-01_label-phase1,3.2.4,Win32,60,left,0.896999836,4,0,4,0,1,3,1,0,240,111,1,239,,,,,,,,,,,,,,,,,,
,,0,120,,,,,,,1,3,4,stim/34.jpeg,Instruments,2,stim/objects/Instruments/tambourine.png,0.5,4,0.2,-0.15,right,29,2020-12-04_09h56.18.718,premup-three_ses-01_part-01_label-phase1,3.2.4,Win32,60,left,1.513000011,4,0,4,0,1,3,1,0,240,39,1,239,,,,,,,,,,,,,,,,,,
,,1,121,,,,,,,2,6,1,stim/61.jpeg,HouseObjects,1,stim/objects/HouseObjects/rug2.png,0.7,1,-0.2,0.15,left,29,2020-12-04_09h56.18.718,premup-three_ses-01_part-01_label-phase1,3.2.4,Win32,60,left,1.203000069,4,0,4,0,1,3,1,0,240,124,1,239,,,,,,,,,,,,,,,,,,
,,1,122,,,,,,,1,4,3,stim/43.jpeg,HouseObjects,1,stim/objects/HouseObjects/teapot.png,0.5,4,0.2,-0.15,left,29,2020-12-04_09h56.18.718,premup-three_ses-01_part-01_label-phase1,3.2.4,Win32,60,left,0.711999893,4,0,4,0,1,3,1,0,240,58,1,239,,,,,,,,,,,,,,,,,,
,,0,123,,,,,,,3,2,4,stim/24.jpeg,Instruments,2,stim/objects/Instruments/xylophone2.png,0.1,3,-0.2,-0.15,right,29,2020-12-04_09h56.18.718,premup-three_ses-01_part-01_label-phase1,3.2.4,Win32,60,left,0.619999886,4,0,4,0,1,3,1,0,240,239,1,239,,,,,,,,,,,,,,,,,,
,,1,124,,,,,,,3,1,2,stim/12.jpeg,Instruments,2,stim/objects/Instruments/triangle2.png,0.9,1,-0.2,0.15,right,29,2020-12-04_09h56.18.718,premup-three_ses-01_part-01_label-phase1,3.2.4,Win32,60,right,0.75999999,4,0,4,0,1,3,1,0,240,169,1,239,,,,,,,,,,,,,,,,,,
,,1,125,,,,,,,3,1,1,stim/11.jpeg,Instruments,2,stim/objects/Instruments/timbal2.png,0.9,1,-0.2,0.15,right,29,2020-12-04_09h56.18.718,premup-three_ses-01_part-01_label-phase1,3.2.4,Win32,60,right,0.614000082,4,0,4,0,1,3,1,0,240,180,1,239,,,,,,,,,,,,,,,,,,
,,0,126,,,,,,,1,4,2,stim/42.jpeg,HouseObjects,1,stim/objects/HouseObjects/spraybottle.png,0.5,4,0.2,-0.15,left,29,2020-12-04_09h56.18.718,premup-three_ses-01_part-01_label-phase1,3.2.4,Win32,60,right,1.315999985,4,0,4,0,1,3,1,0,240,57,1,239,,,,,,,,,,,,,,,,,,
,,1,127,,,,,,,2,6,1,stim/61.jpeg,HouseObjects,1,stim/objects/HouseObjects/rug2.png,0.7,3,-0.2,-0.15,left,29,2020-12-04_09h56.18.718,premup-three_ses-01_part-01_label-phase1,3.2.4,Win32,60,left,0.869999886,4,0,4,0,1,3,1,0,240,144,1,239,,,,,,,,,,,,,,,,,,
,,1,128,,,,,,,1,3,2,stim/32.jpeg,HouseObjects,1,stim/objects/HouseObjects/safetypin.png,0.5,1,-0.2,0.15,left,29,2020-12-04_09h56.18.718,premup-three_ses-01_part-01_label-phase1,3.2.4,Win32,60,left,1.148000002,4,0,4,0,1,3,1,0,240,1,1,239,,,,,,,,,,,,,,,,,,
,,1,129,,,,,,,3,1,2,stim/12.jpeg,Instruments,2,stim/objects/Instruments/triangle2.png,0.9,4,0.2,-0.15,right,29,2020-12-04_09h56.18.718,premup-three_ses-01_part-01_label-phase1,3.2.4,Win32,60,right,0.720999956,4,0,4,0,1,3,1,0,240,185,1,239,,,,,,,,,,,,,,,,,,
,,0,130,,,,,,,2,5,4,stim/54.jpeg,HouseObjects,1,stim/objects/HouseObjects/wateringcan.png,0.3,2,0.2,0.15,left,29,2020-12-04_09h56.18.718,premup-three_ses-01_part-01_label-phase1,3.2.4,Win32,60,right,0.861999989,4,0,4,0,1,3,1,0,240,91,1,239,,,,,,,,,,,,,,,,,,
,,1,131,,,,,,,2,5,3,stim/53.jpeg,Instruments,2,stim/objects/Instruments/vuvuzela.png,0.7,2,0.2,0.15,right,29,2020-12-04_09h56.18.718,premup-three_ses-01_part-01_label-phase1,3.2.4,Win32,60,right,0.797999859,4,0,4,0,1,3,1,0,240,114,1,239,,,,,,,,,,,,,,,,,,
,,0,132,,,,,,,1,4,2,stim/42.jpeg,Instruments,2,stim/objects/Instruments/triangle.png,0.5,2,0.2,0.15,right,29,2020-12-04_09h56.18.718,premup-three_ses-01_part-01_label-phase1,3.2.4,Win32,60,left,0.813999891,4,0,4,0,1,3,1,0,240,69,1,239,,,,,,,,,,,,,,,,,,
,,0,133,,,,,,,2,5,4,stim/54.jpeg,HouseObjects,1,stim/objects/HouseObjects/wateringcan.png,0.3,2,0.2,0.15,left,29,2020-12-04_09h56.18.718,premup-three_ses-01_part-01_label-phase1,3.2.4,Win32,60,right,0.988999844,4,0,4,0,1,3,1,0,240,87,1,239,,,,,,,,,,,,,,,,,,
,,1,134,,,,,,,2,5,1,stim/51.jpeg,Instruments,2,stim/objects/Instruments/tuba.png,0.7,3,-0.2,-0.15,right,29,2020-12-04_09h56.18.718,premup-three_ses-01_part-01_label-phase1,3.2.4,Win32,60,right,1.373999834,4,0,4,0,1,3,1,0,240,108,1,239,,,,,,,,,,,,,,,,,,
