key_resp_pract.keys,key_resp_pract.rt,trial_acc,trial_index,practice_loop.thisRepN,practice_loop.thisTrialN,practice_loop.thisN,practice_loop.thisIndex,practice_loop.ran,practice_loop.order,scn_condition,scn_cat,scn_inst,scn_file,obj_cat,obj_cat_num,obj_file,trial_cond,quadrant,obj_x,obj_y,corr_ans,participant,date,expName,psychopyVersion,OS,frameRate,key_resp_trial.keys,key_resp_trial.rt,iterations.thisRepN,iterations.thisTrialN,iterations.thisN,iterations.thisIndex,iterations.ran,iterations.order,task_innerloop.thisRepN,task_innerloop.thisTrialN,task_innerloop.thisN,task_innerloop.thisIndex,task_innerloop.ran,task_innerloop.order,iteration_index,rating_acc,slider.response,slider.rt,slider_2.response,slider_2.rt,ratings.thisRepN,ratings.thisTrialN,ratings.thisN,ratings.thisIndex,ratings.ran,ratings.order,obj_cat_top,min_resp_top,max_resp_top,obj_cat_bottom,min_resp_bottom,max_resp_bottom
,,0,1,1,0,240,203,1,239,3,4,4,stim/44.jpeg,HouseObjects,1,stim/objects/HouseObjects/rug2.png,0.9,2,0.2,0.15,left,2,2020-11-25_11h39.15.140,premup-three_ses-01_part-01_label-phase1,3.2.4,Win32,60,,,,,,,,,,,,,,,,,,,,,,,,,,,,,,,,
right,1.402000189,0,2,1,0,240,12,1,239,1,5,1,stim/51.jpeg,HouseObjects,1,stim/objects/HouseObjects/iron.png,0.5,2,0.2,0.15,left,2,2020-11-25_11h39.15.140,premup-three_ses-01_part-01_label-phase1,3.2.4,Win32,60,,,,,,,,,,,,,,,,,,,,,,,,,,,,,,,,
right,0.696000099,1,3,1,0,240,168,1,239,3,3,1,stim/31.jpeg,Instruments,2,stim/objects/Instruments/metronome2.png,0.9,4,0.2,-0.15,right,2,2020-11-25_11h39.15.140,premup-three_ses-01_part-01_label-phase1,3.2.4,Win32,60,,,,,,,,,,,,,,,,,,,,,,,,,,,,,,,,
right,0.811000109,0,4,1,0,240,18,1,239,1,5,3,stim/53.jpeg,HouseObjects,1,stim/objects/HouseObjects/key.png,0.5,4,0.2,-0.15,left,2,2020-11-25_11h39.15.140,premup-three_ses-01_part-01_label-phase1,3.2.4,Win32,60,,,,,,,,,,,,,,,,,,,,,,,,,,,,,,,,
right,1.236000061,0,5,1,0,240,44,1,239,1,6,1,stim/61.jpeg,HouseObjects,1,stim/objects/HouseObjects/lintroller.png,0.5,4,0.2,-0.15,left,2,2020-11-25_11h39.15.140,premup-three_ses-01_part-01_label-phase1,3.2.4,Win32,60,,,,,,,,,,,,,,,,,,,,,,,,,,,,,,,,
left,1.430000067,0,6,1,0,240,197,1,239,3,3,2,stim/32.jpeg,Instruments,2,stim/objects/Instruments/musicsheet2.png,0.9,4,0.2,-0.15,right,2,2020-11-25_11h39.15.140,premup-three_ses-01_part-01_label-phase1,3.2.4,Win32,60,,,,,,,,,,,,,,,,,,,,,,,,,,,,,,,,
left,1.102000237,1,7,1,0,240,140,1,239,2,2,1,stim/21.jpeg,HouseObjects,1,stim/objects/HouseObjects/iron2.png,0.7,3,-0.2,-0.15,left,2,2020-11-25_11h39.15.140,premup-three_ses-01_part-01_label-phase1,3.2.4,Win32,60,,,,,,,,,,,,,,,,,,,,,,,,,,,,,,,,
left,1.128000259,1,8,1,0,240,88,1,239,2,1,1,stim/11.jpeg,HouseObjects,1,stim/objects/HouseObjects/recyclingbin.png,0.3,2,0.2,0.15,left,2,2020-11-25_11h39.15.140,premup-three_ses-01_part-01_label-phase1,3.2.4,Win32,60,,,,,,,,,,,,,,,,,,,,,,,,,,,,,,,,
left,1.062000036,1,9,1,0,240,8,1,239,1,5,1,stim/51.jpeg,HouseObjects,1,stim/objects/HouseObjects/iron.png,0.5,1,-0.2,0.15,left,2,2020-11-25_11h39.15.140,premup-three_ses-01_part-01_label-phase1,3.2.4,Win32,60,,,,,,,,,,,,,,,,,,,,,,,,,,,,,,,,
left,0.562000275,1,10,1,0,240,16,1,239,1,5,1,stim/51.jpeg,HouseObjects,1,stim/objects/HouseObjects/iron.png,0.5,1,-0.2,0.15,left,2,2020-11-25_11h39.15.140,premup-three_ses-01_part-01_label-phase1,3.2.4,Win32,60,,,,,,,,,,,,,,,,,,,,,,,,,,,,,,,,
,,0,1,,,,,,,1,6,2,stim/62.jpeg,Instruments,2,stim/objects/Instruments/musicsheet.png,0.5,2,0.2,0.15,right,2,2020-11-25_11h39.15.140,premup-three_ses-01_part-01_label-phase1,3.2.4,Win32,60,,,4,0,4,0,1,3,1,0,240,77,1,239,,,,,,,,,,,,,,,,,,
,,0,2,,,,,,,1,5,2,stim/52.jpeg,Instruments,2,stim/objects/Instruments/laud.png,0.5,3,-0.2,-0.15,right,2,2020-11-25_11h39.15.140,premup-three_ses-01_part-01_label-phase1,3.2.4,Win32,60,left,0.927000284,4,0,4,0,1,3,1,0,240,25,1,239,,,,,,,,,,,,,,,,,,
,,0,3,,,,,,,3,3,3,stim/33.jpeg,Instruments,2,stim/objects/Instruments/musicstand2.png,0.9,2,0.2,0.15,right,2,2020-11-25_11h39.15.140,premup-three_ses-01_part-01_label-phase1,3.2.4,Win32,60,left,0.941000223,4,0,4,0,1,3,1,0,240,174,1,239,,,,,,,,,,,,,,,,,,
,,1,4,,,,,,,3,3,3,stim/33.jpeg,Instruments,2,stim/objects/Instruments/musicstand2.png,0.9,2,0.2,0.15,right,2,2020-11-25_11h39.15.140,premup-three_ses-01_part-01_label-phase1,3.2.4,Win32,60,right,0.457000017,4,0,4,0,1,3,1,0,240,198,1,239,,,,,,,,,,,,,,,,,,
,,1,5,,,,,,,1,6,2,stim/62.jpeg,Instruments,2,stim/objects/Instruments/musicsheet.png,0.5,1,-0.2,0.15,right,2,2020-11-25_11h39.15.140,premup-three_ses-01_part-01_label-phase1,3.2.4,Win32,60,right,0.692000151,4,0,4,0,1,3,1,0,240,69,1,239,,,,,,,,,,,,,,,,,,
,,1,6,,,,,,,3,3,3,stim/33.jpeg,Instruments,2,stim/objects/Instruments/musicstand2.png,0.9,3,-0.2,-0.15,right,2,2020-11-25_11h39.15.140,premup-three_ses-01_part-01_label-phase1,3.2.4,Win32,60,right,0.732000113,4,0,4,0,1,3,1,0,240,186,1,239,,,,,,,,,,,,,,,,,,
,,0,7,,,,,,,2,1,4,stim/14.jpeg,Instruments,2,stim/objects/Instruments/record_player.png,0.7,4,0.2,-0.15,right,2,2020-11-25_11h39.15.140,premup-three_ses-01_part-01_label-phase1,3.2.4,Win32,60,left,1.11400032,4,0,4,0,1,3,1,0,240,115,1,239,,,,,,,,,,,,,,,,,,
,,1,8,,,,,,,3,4,4,stim/44.jpeg,HouseObjects,1,stim/objects/HouseObjects/rug2.png,0.9,4,0.2,-0.15,left,2,2020-11-25_11h39.15.140,premup-three_ses-01_part-01_label-phase1,3.2.4,Win32,60,left,0.619000196,4,0,4,0,1,3,1,0,240,235,1,239,,,,,,,,,,,,,,,,,,
,,0,9,,,,,,,1,6,4,stim/64.jpeg,HouseObjects,1,stim/objects/HouseObjects/pitcher.png,0.5,4,0.2,-0.15,left,2,2020-11-25_11h39.15.140,premup-three_ses-01_part-01_label-phase1,3.2.4,Win32,60,right,0.94900012,4,0,4,0,1,3,1,0,240,59,1,239,,,,,,,,,,,,,,,,,,
,,1,10,,,,,,,2,1,2,stim/12.jpeg,Instruments,2,stim/objects/Instruments/pipepiano.png,0.7,1,-0.2,0.15,right,2,2020-11-25_11h39.15.140,premup-three_ses-01_part-01_label-phase1,3.2.4,Win32,60,right,0.601999998,4,0,4,0,1,3,1,0,240,93,1,239,,,,,,,,,,,,,,,,,,
,,1,11,,,,,,,1,5,3,stim/53.jpeg,Instruments,2,stim/objects/Instruments/maraca.png,0.5,3,-0.2,-0.15,right,2,2020-11-25_11h39.15.140,premup-three_ses-01_part-01_label-phase1,3.2.4,Win32,60,right,1.159000158,4,0,4,0,1,3,1,0,240,22,1,239,,,,,,,,,,,,,,,,,,
,,0,12,,,,,,,2,2,4,stim/24.jpeg,Instruments,2,stim/objects/Instruments/marimba2.png,0.3,2,0.2,0.15,right,2,2020-11-25_11h39.15.140,premup-three_ses-01_part-01_label-phase1,3.2.4,Win32,60,left,0.645000219,4,0,4,0,1,3,1,0,240,159,1,239,,,,,,,,,,,,,,,,,,
,,1,13,,,,,,,2,1,3,stim/13.jpeg,Instruments,2,stim/objects/Instruments/record.png,0.7,4,0.2,-0.15,right,2,2020-11-25_11h39.15.140,premup-three_ses-01_part-01_label-phase1,3.2.4,Win32,60,right,0.633000374,4,0,4,0,1,3,1,0,240,114,1,239,,,,,,,,,,,,,,,,,,
,,1,14,,,,,,,3,3,3,stim/33.jpeg,Instruments,2,stim/objects/Instruments/musicstand2.png,0.9,2,0.2,0.15,right,2,2020-11-25_11h39.15.140,premup-three_ses-01_part-01_label-phase1,3.2.4,Win32,60,right,0.553000212,4,0,4,0,1,3,1,0,240,190,1,239,,,,,,,,,,,,,,,,,,
,,1,15,,,,,,,1,5,3,stim/53.jpeg,Instruments,2,stim/objects/Instruments/maraca.png,0.5,4,0.2,-0.15,right,2,2020-11-25_11h39.15.140,premup-three_ses-01_part-01_label-phase1,3.2.4,Win32,60,right,0.644000292,4,0,4,0,1,3,1,0,240,38,1,239,,,,,,,,,,,,,,,,,,
,,0,16,,,,,,,2,2,3,stim/23.jpeg,HouseObjects,1,stim/objects/HouseObjects/key2.png,0.7,2,0.2,0.15,left,2,2020-11-25_11h39.15.140,premup-three_ses-01_part-01_label-phase1,3.2.4,Win32,60,right,0.610000134,4,0,4,0,1,3,1,0,240,134,1,239,,,,,,,,,,,,,,,,,,
,,1,17,,,,,,,1,6,3,stim/63.jpeg,Instruments,2,stim/objects/Instruments/musicstand.png,0.5,3,-0.2,-0.15,right,2,2020-11-25_11h39.15.140,premup-three_ses-01_part-01_label-phase1,3.2.4,Win32,60,right,1.222000122,4,0,4,0,1,3,1,0,240,70,1,239,,,,,,,,,,,,,,,,,,
,,0,18,,,,,,,2,2,2,stim/22.jpeg,Instruments,2,stim/objects/Instruments/laud2.png,0.3,4,0.2,-0.15,right,2,2020-11-25_11h39.15.140,premup-three_ses-01_part-01_label-phase1,3.2.4,Win32,60,left,0.695000172,4,0,4,0,1,3,1,0,240,149,1,239,,,,,,,,,,,,,,,,,,
,,1,19,,,,,,,3,3,4,stim/34.jpeg,Instruments,2,stim/objects/Instruments/oboe2.png,0.9,3,-0.2,-0.15,right,2,2020-11-25_11h39.15.140,premup-three_ses-01_part-01_label-phase1,3.2.4,Win32,60,right,0.723000288,4,0,4,0,1,3,1,0,240,191,1,239,,,,,,,,,,,,,,,,,,
,,0,20,,,,,,,1,6,1,stim/61.jpeg,HouseObjects,1,stim/objects/HouseObjects/lintroller.png,0.5,4,0.2,-0.15,left,2,2020-11-25_11h39.15.140,premup-three_ses-01_part-01_label-phase1,3.2.4,Win32,60,right,0.804000139,4,0,4,0,1,3,1,0,240,40,1,239,,,,,,,,,,,,,,,,,,
,,0,21,,,,,,,2,2,4,stim/24.jpeg,HouseObjects,1,stim/objects/HouseObjects/knife2.png,0.7,2,0.2,0.15,left,2,2020-11-25_11h39.15.140,premup-three_ses-01_part-01_label-phase1,3.2.4,Win32,60,right,0.674000025,4,0,4,0,1,3,1,0,240,135,1,239,,,,,,,,,,,,,,,,,,
,,0,22,,,,,,,1,5,1,stim/51.jpeg,HouseObjects,1,stim/objects/HouseObjects/iron.png,0.5,2,0.2,0.15,left,2,2020-11-25_11h39.15.140,premup-three_ses-01_part-01_label-phase1,3.2.4,Win32,60,right,1.191000223,4,0,4,0,1,3,1,0,240,12,1,239,,,,,,,,,,,,,,,,,,
,,1,23,,,,,,,1,5,4,stim/54.jpeg,Instruments,2,stim/objects/Instruments/marimba.png,0.5,2,0.2,0.15,right,2,2020-11-25_11h39.15.140,premup-three_ses-01_part-01_label-phase1,3.2.4,Win32,60,right,1.166000128,4,0,4,0,1,3,1,0,240,23,1,239,,,,,,,,,,,,,,,,,,
,,1,24,,,,,,,2,2,2,stim/22.jpeg,HouseObjects,1,stim/objects/HouseObjects/ironingboard2.png,0.7,4,0.2,-0.15,left,2,2020-11-25_11h39.15.140,premup-three_ses-01_part-01_label-phase1,3.2.4,Win32,60,left,1.115000248,4,0,4,0,1,3,1,0,240,141,1,239,,,,,,,,,,,,,,,,,,
,,0,25,,,,,,,3,4,3,stim/43.jpeg,Instruments,2,stim/objects/Instruments/record2.png,0.1,3,-0.2,-0.15,right,2,2020-11-25_11h39.15.140,premup-three_ses-01_part-01_label-phase1,3.2.4,Win32,60,left,1.243000031,4,0,4,0,1,3,1,0,240,238,1,239,,,,,,,,,,,,,,,,,,
,,1,26,,,,,,,2,1,3,stim/13.jpeg,Instruments,2,stim/objects/Instruments/record.png,0.7,1,-0.2,0.15,right,2,2020-11-25_11h39.15.140,premup-three_ses-01_part-01_label-phase1,3.2.4,Win32,60,right,1.45600009,4,0,4,0,1,3,1,0,240,102,1,239,,,,,,,,,,,,,,,,,,
,,0,27,,,,,,,2,2,4,stim/24.jpeg,HouseObjects,1,stim/objects/HouseObjects/knife2.png,0.7,3,-0.2,-0.15,left,2,2020-11-25_11h39.15.140,premup-three_ses-01_part-01_label-phase1,3.2.4,Win32,60,right,0.786000013,4,0,4,0,1,3,1,0,240,143,1,239,,,,,,,,,,,,,,,,,,
,,1,28,,,,,,,3,3,2,stim/32.jpeg,Instruments,2,stim/objects/Instruments/musicsheet2.png,0.9,1,-0.2,0.15,right,2,2020-11-25_11h39.15.140,premup-three_ses-01_part-01_label-phase1,3.2.4,Win32,60,right,0.716000319,4,0,4,0,1,3,1,0,240,185,1,239,,,,,,,,,,,,,,,,,,
,,1,29,,,,,,,2,2,4,stim/24.jpeg,HouseObjects,1,stim/objects/HouseObjects/knife2.png,0.7,4,0.2,-0.15,left,2,2020-11-25_11h39.15.140,premup-three_ses-01_part-01_label-phase1,3.2.4,Win32,60,left,0.942000151,4,0,4,0,1,3,1,0,240,147,1,239,,,,,,,,,,,,,,,,,,
,,1,30,,,,,,,2,1,1,stim/11.jpeg,Instruments,2,stim/objects/Instruments/panflute.png,0.7,2,0.2,0.15,right,2,2020-11-25_11h39.15.140,premup-three_ses-01_part-01_label-phase1,3.2.4,Win32,60,right,0.632000208,4,0,4,0,1,3,1,0,240,96,1,239,,,,,,,,,,,,,,,,,,
,,1,31,,,,,,,1,5,4,stim/54.jpeg,Instruments,2,stim/objects/Instruments/marimba.png,0.5,4,0.2,-0.15,right,2,2020-11-25_11h39.15.140,premup-three_ses-01_part-01_label-phase1,3.2.4,Win32,60,right,1.012000084,4,0,4,0,1,3,1,0,240,35,1,239,,,,,,,,,,,,,,,,,,
,,0,32,,,,,,,2,2,3,stim/23.jpeg,HouseObjects,1,stim/objects/HouseObjects/key2.png,0.7,3,-0.2,-0.15,left,2,2020-11-25_11h39.15.140,premup-three_ses-01_part-01_label-phase1,3.2.4,Win32,60,right,0.965000153,4,0,4,0,1,3,1,0,240,142,1,239,,,,,,,,,,,,,,,,,,
,,1,33,,,,,,,2,1,4,stim/14.jpeg,Instruments,2,stim/objects/Instruments/record_player.png,0.7,1,-0.2,0.15,right,2,2020-11-25_11h39.15.140,premup-three_ses-01_part-01_label-phase1,3.2.4,Win32,60,right,0.544000149,4,0,4,0,1,3,1,0,240,99,1,239,,,,,,,,,,,,,,,,,,
,,1,34,,,,,,,2,2,2,stim/22.jpeg,HouseObjects,1,stim/objects/HouseObjects/ironingboard2.png,0.7,1,-0.2,0.15,left,2,2020-11-25_11h39.15.140,premup-three_ses-01_part-01_label-phase1,3.2.4,Win32,60,left,0.561000347,4,0,4,0,1,3,1,0,240,133,1,239,,,,,,,,,,,,,,,,,,
,,1,35,,,,,,,2,1,1,stim/11.jpeg,Instruments,2,stim/objects/Instruments/panflute.png,0.7,3,-0.2,-0.15,right,2,2020-11-25_11h39.15.140,premup-three_ses-01_part-01_label-phase1,3.2.4,Win32,60,right,0.870000124,4,0,4,0,1,3,1,0,240,100,1,239,,,,,,,,,,,,,,,,,,
,,1,36,,,,,,,1,5,1,stim/51.jpeg,Instruments,2,stim/objects/Instruments/keyboard.png,0.5,4,0.2,-0.15,right,2,2020-11-25_11h39.15.140,premup-three_ses-01_part-01_label-phase1,3.2.4,Win32,60,right,0.776000261,4,0,4,0,1,3,1,0,240,20,1,239,,,,,,,,,,,,,,,,,,
,,1,37,,,,,,,2,2,3,stim/23.jpeg,HouseObjects,1,stim/objects/HouseObjects/key2.png,0.7,1,-0.2,0.15,left,2,2020-11-25_11h39.15.140,premup-three_ses-01_part-01_label-phase1,3.2.4,Win32,60,left,0.611000299,4,0,4,0,1,3,1,0,240,126,1,239,,,,,,,,,,,,,,,,,,
,,0,38,,,,,,,1,5,3,stim/53.jpeg,HouseObjects,1,stim/objects/HouseObjects/key.png,0.5,3,-0.2,-0.15,left,2,2020-11-25_11h39.15.140,premup-three_ses-01_part-01_label-phase1,3.2.4,Win32,60,right,1.011000156,4,0,4,0,1,3,1,0,240,10,1,239,,,,,,,,,,,,,,,,,,
,,0,39,,,,,,,3,4,1,stim/41.jpeg,HouseObjects,1,stim/objects/HouseObjects/recyclingbin2.png,0.9,2,0.2,0.15,left,2,2020-11-25_11h39.15.140,premup-three_ses-01_part-01_label-phase1,3.2.4,Win32,60,right,0.756999969,4,0,4,0,1,3,1,0,240,216,1,239,,,,,,,,,,,,,,,,,,
,,1,40,,,,,,,1,6,2,stim/62.jpeg,Instruments,2,stim/objects/Instruments/musicsheet.png,0.5,1,-0.2,0.15,right,2,2020-11-25_11h39.15.140,premup-three_ses-01_part-01_label-phase1,3.2.4,Win32,60,right,0.745000124,4,0,4,0,1,3,1,0,240,73,1,239,,,,,,,,,,,,,,,,,,
,,1,41,,,,,,,1,5,2,stim/52.jpeg,Instruments,2,stim/objects/Instruments/laud.png,0.5,4,0.2,-0.15,right,2,2020-11-25_11h39.15.140,premup-three_ses-01_part-01_label-phase1,3.2.4,Win32,60,right,1.01699996,4,0,4,0,1,3,1,0,240,37,1,239,,,,,,,,,,,,,,,,,,
,,0,42,,,,,,,2,1,3,stim/13.jpeg,HouseObjects,1,stim/objects/HouseObjects/rubbergloves.png,0.3,4,0.2,-0.15,left,2,2020-11-25_11h39.15.140,premup-three_ses-01_part-01_label-phase1,3.2.4,Win32,60,right,0.784000158,4,0,4,0,1,3,1,0,240,86,1,239,,,,,,,,,,,,,,,,,,
,,0,43,,,,,,,1,6,4,stim/64.jpeg,Instruments,2,stim/objects/Instruments/oboe.png,0.5,1,-0.2,0.15,right,2,2020-11-25_11h39.15.140,premup-three_ses-01_part-01_label-phase1,3.2.4,Win32,60,left,1.015000105,4,0,4,0,1,3,1,0,240,71,1,239,,,,,,,,,,,,,,,,,,
,,1,44,,,,,,,2,1,2,stim/12.jpeg,Instruments,2,stim/objects/Instruments/pipepiano.png,0.7,3,-0.2,-0.15,right,2,2020-11-25_11h39.15.140,premup-three_ses-01_part-01_label-phase1,3.2.4,Win32,60,right,0.786000252,4,0,4,0,1,3,1,0,240,97,1,239,,,,,,,,,,,,,,,,,,
,,0,45,,,,,,,2,1,2,stim/12.jpeg,HouseObjects,1,stim/objects/HouseObjects/remote.png,0.3,2,0.2,0.15,left,2,2020-11-25_11h39.15.140,premup-three_ses-01_part-01_label-phase1,3.2.4,Win32,60,right,0.710000038,4,0,4,0,1,3,1,0,240,81,1,239,,,,,,,,,,,,,,,,,,
,,0,46,,,,,,,3,4,1,stim/41.jpeg,Instruments,2,stim/objects/Instruments/panflute2.png,0.1,1,-0.2,0.15,right,2,2020-11-25_11h39.15.140,premup-three_ses-01_part-01_label-phase1,3.2.4,Win32,60,left,1.756000042,4,0,4,0,1,3,1,0,240,236,1,239,,,,,,,,,,,,,,,,,,
,,1,47,,,,,,,1,6,3,stim/63.jpeg,Instruments,2,stim/objects/Instruments/musicstand.png,0.5,1,-0.2,0.15,right,2,2020-11-25_11h39.15.140,premup-three_ses-01_part-01_label-phase1,3.2.4,Win32,60,right,1.519000292,4,0,4,0,1,3,1,0,240,74,1,239,,,,,,,,,,,,,,,,,,
,,0,48,,,,,,,3,4,3,stim/43.jpeg,HouseObjects,1,stim/objects/HouseObjects/rubbergloves2.png,0.9,2,0.2,0.15,left,2,2020-11-25_11h39.15.140,premup-three_ses-01_part-01_label-phase1,3.2.4,Win32,60,right,0.958000183,4,0,4,0,1,3,1,0,240,214,1,239,,,,,,,,,,,,,,,,,,
,,0,49,,,,,,,1,5,3,stim/53.jpeg,HouseObjects,1,stim/objects/HouseObjects/key.png,0.5,2,0.2,0.15,left,2,2020-11-25_11h39.15.140,premup-three_ses-01_part-01_label-phase1,3.2.4,Win32,60,right,0.658000231,4,0,4,0,1,3,1,0,240,14,1,239,,,,,,,,,,,,,,,,,,
,,1,50,,,,,,,3,4,2,stim/42.jpeg,Instruments,2,stim/objects/Instruments/pipepiano2.png,0.1,3,-0.2,-0.15,right,2,2020-11-25_11h39.15.140,premup-three_ses-01_part-01_label-phase1,3.2.4,Win32,60,right,1.679000139,4,0,4,0,1,3,1,0,240,237,1,239,,,,,,,,,,,,,,,,,,
,,1,51,,,,,,,2,1,1,stim/11.jpeg,Instruments,2,stim/objects/Instruments/panflute.png,0.7,1,-0.2,0.15,right,2,2020-11-25_11h39.15.140,premup-three_ses-01_part-01_label-phase1,3.2.4,Win32,60,right,0.667000055,4,0,4,0,1,3,1,0,240,108,1,239,,,,,,,,,,,,,,,,,,
,,0,52,,,,,,,3,3,2,stim/32.jpeg,Instruments,2,stim/objects/Instruments/musicsheet2.png,0.9,3,-0.2,-0.15,right,2,2020-11-25_11h39.15.140,premup-three_ses-01_part-01_label-phase1,3.2.4,Win32,60,left,0.748000145,4,0,4,0,1,3,1,0,240,193,1,239,,,,,,,,,,,,,,,,,,
,,1,53,,,,,,,3,3,1,stim/31.jpeg,Instruments,2,stim/objects/Instruments/metronome2.png,0.9,1,-0.2,0.15,right,2,2020-11-25_11h39.15.140,premup-three_ses-01_part-01_label-phase1,3.2.4,Win32,60,right,0.843000174,4,0,4,0,1,3,1,0,240,196,1,239,,,,,,,,,,,,,,,,,,
,,1,54,,,,,,,1,6,1,stim/61.jpeg,HouseObjects,1,stim/objects/HouseObjects/lintroller.png,0.5,2,0.2,0.15,left,2,2020-11-25_11h39.15.140,premup-three_ses-01_part-01_label-phase1,3.2.4,Win32,60,left,0.803000212,4,0,4,0,1,3,1,0,240,52,1,239,,,,,,,,,,,,,,,,,,
,,1,55,,,,,,,3,4,1,stim/41.jpeg,HouseObjects,1,stim/objects/HouseObjects/recyclingbin2.png,0.9,1,-0.2,0.15,left,2,2020-11-25_11h39.15.140,premup-three_ses-01_part-01_label-phase1,3.2.4,Win32,60,left,1.171000242,4,0,4,0,1,3,1,0,240,208,1,239,,,,,,,,,,,,,,,,,,
,,1,56,,,,,,,2,1,2,stim/12.jpeg,Instruments,2,stim/objects/Instruments/pipepiano.png,0.7,2,0.2,0.15,right,2,2020-11-25_11h39.15.140,premup-three_ses-01_part-01_label-phase1,3.2.4,Win32,60,right,0.806000233,4,0,4,0,1,3,1,0,240,105,1,239,,,,,,,,,,,,,,,,,,
,,1,57,,,,,,,1,6,4,stim/64.jpeg,HouseObjects,1,stim/objects/HouseObjects/pitcher.png,0.5,1,-0.2,0.15,left,2,2020-11-25_11h39.15.140,premup-three_ses-01_part-01_label-phase1,3.2.4,Win32,60,left,1.103000164,4,0,4,0,1,3,1,0,240,55,1,239,,,,,,,,,,,,,,,,,,
,,0,58,,,,,,,3,4,1,stim/41.jpeg,HouseObjects,1,stim/objects/HouseObjects/recyclingbin2.png,0.9,3,-0.2,-0.15,left,2,2020-11-25_11h39.15.140,premup-three_ses-01_part-01_label-phase1,3.2.4,Win32,60,right,1.565000296,4,0,4,0,1,3,1,0,240,212,1,239,,,,,,,,,,,,,,,,,,
,,0,59,,,,,,,1,6,2,stim/62.jpeg,Instruments,2,stim/objects/Instruments/musicsheet.png,0.5,4,0.2,-0.15,right,2,2020-11-25_11h39.15.140,premup-three_ses-01_part-01_label-phase1,3.2.4,Win32,60,left,1.151000261,4,0,4,0,1,3,1,0,240,61,1,239,,,,,,,,,,,,,,,,,,
,,1,60,,,,,,,1,5,4,stim/54.jpeg,HouseObjects,1,stim/objects/HouseObjects/knife.png,0.5,4,0.2,-0.15,left,2,2020-11-25_11h39.15.140,premup-three_ses-01_part-01_label-phase1,3.2.4,Win32,60,left,1.067000151,4,0,4,0,1,3,1,0,240,3,1,239,,,,,,,,,,,,,,,,,,
,,1,61,,,,,,,2,1,3,stim/13.jpeg,Instruments,2,stim/objects/Instruments/record.png,0.7,4,0.2,-0.15,right,2,2020-11-25_11h39.15.140,premup-three_ses-01_part-01_label-phase1,3.2.4,Win32,60,right,0.73900032,4,0,4,0,1,3,1,0,240,110,1,239,,,,,,,,,,,,,,,,,,
,,1,62,,,,,,,3,4,4,stim/44.jpeg,HouseObjects,1,stim/objects/HouseObjects/rug2.png,0.9,2,0.2,0.15,left,2,2020-11-25_11h39.15.140,premup-three_ses-01_part-01_label-phase1,3.2.4,Win32,60,left,1.360000134,4,0,4,0,1,3,1,0,240,203,1,239,,,,,,,,,,,,,,,,,,
,,1,63,,,,,,,3,4,4,stim/44.jpeg,HouseObjects,1,stim/objects/HouseObjects/rug2.png,0.9,1,-0.2,0.15,left,2,2020-11-25_11h39.15.140,premup-three_ses-01_part-01_label-phase1,3.2.4,Win32,60,left,0.766000032,4,0,4,0,1,3,1,0,240,207,1,239,,,,,,,,,,,,,,,,,,
,,1,64,,,,,,,2,2,4,stim/24.jpeg,HouseObjects,1,stim/objects/HouseObjects/knife2.png,0.7,3,-0.2,-0.15,left,2,2020-11-25_11h39.15.140,premup-three_ses-01_part-01_label-phase1,3.2.4,Win32,60,left,0.607000113,4,0,4,0,1,3,1,0,240,139,1,239,,,,,,,,,,,,,,,,,,
,,0,65,,,,,,,3,3,4,stim/34.jpeg,Instruments,2,stim/objects/Instruments/oboe2.png,0.9,2,0.2,0.15,right,2,2020-11-25_11h39.15.140,premup-three_ses-01_part-01_label-phase1,3.2.4,Win32,60,left,0.937000275,4,0,4,0,1,3,1,0,240,187,1,239,,,,,,,,,,,,,,,,,,
,,0,66,,,,,,,1,6,4,stim/64.jpeg,Instruments,2,stim/objects/Instruments/oboe.png,0.5,2,0.2,0.15,right,2,2020-11-25_11h39.15.140,premup-three_ses-01_part-01_label-phase1,3.2.4,Win32,60,left,0.728000164,4,0,4,0,1,3,1,0,240,67,1,239,,,,,,,,,,,,,,,,,,
,,0,67,,,,,,,3,3,3,stim/33.jpeg,Instruments,2,stim/objects/Instruments/musicstand2.png,0.9,2,0.2,0.15,right,2,2020-11-25_11h39.15.140,premup-three_ses-01_part-01_label-phase1,3.2.4,Win32,60,left,1.238000154,4,0,4,0,1,3,1,0,240,182,1,239,,,,,,,,,,,,,,,,,,
,,1,68,,,,,,,3,3,3,stim/33.jpeg,Instruments,2,stim/objects/Instruments/musicstand2.png,0.9,2,0.2,0.15,right,2,2020-11-25_11h39.15.140,premup-three_ses-01_part-01_label-phase1,3.2.4,Win32,60,right,0.49000001,4,0,4,0,1,3,1,0,240,166,1,239,,,,,,,,,,,,,,,,,,
,,0,69,,,,,,,3,4,4,stim/44.jpeg,HouseObjects,1,stim/objects/HouseObjects/rug2.png,0.9,4,0.2,-0.15,left,2,2020-11-25_11h39.15.140,premup-three_ses-01_part-01_label-phase1,3.2.4,Win32,60,right,0.605000257,4,0,4,0,1,3,1,0,240,211,1,239,,,,,,,,,,,,,,,,,,
,,1,70,,,,,,,1,5,4,stim/54.jpeg,Instruments,2,stim/objects/Instruments/marimba.png,0.5,2,0.2,0.15,right,2,2020-11-25_11h39.15.140,premup-three_ses-01_part-01_label-phase1,3.2.4,Win32,60,right,1.039000034,4,0,4,0,1,3,1,0,240,27,1,239,,,,,,,,,,,,,,,,,,
,,1,71,,,,,,,3,4,4,stim/44.jpeg,HouseObjects,1,stim/objects/HouseObjects/rug2.png,0.9,2,0.2,0.15,left,2,2020-11-25_11h39.15.140,premup-three_ses-01_part-01_label-phase1,3.2.4,Win32,60,left,0.861000061,4,0,4,0,1,3,1,0,240,219,1,239,,,,,,,,,,,,,,,,,,
,,1,72,,,,,,,1,5,1,stim/51.jpeg,Instruments,2,stim/objects/Instruments/keyboard.png,0.5,4,0.2,-0.15,right,2,2020-11-25_11h39.15.140,premup-three_ses-01_part-01_label-phase1,3.2.4,Win32,60,right,1.088000059,4,0,4,0,1,3,1,0,240,28,1,239,,,,,,,,,,,,,,,,,,
,,1,73,,,,,,,1,5,3,stim/53.jpeg,HouseObjects,1,stim/objects/HouseObjects/key.png,0.5,4,0.2,-0.15,left,2,2020-11-25_11h39.15.140,premup-three_ses-01_part-01_label-phase1,3.2.4,Win32,60,left,0.97900033,4,0,4,0,1,3,1,0,240,18,1,239,,,,,,,,,,,,,,,,,,
,,1,74,,,,,,,1,6,4,stim/64.jpeg,HouseObjects,1,stim/objects/HouseObjects/pitcher.png,0.5,4,0.2,-0.15,left,2,2020-11-25_11h39.15.140,premup-three_ses-01_part-01_label-phase1,3.2.4,Win32,60,left,0.855000257,4,0,4,0,1,3,1,0,240,51,1,239,,,,,,,,,,,,,,,,,,
,,0,75,,,,,,,1,6,1,stim/61.jpeg,HouseObjects,1,stim/objects/HouseObjects/lintroller.png,0.5,1,-0.2,0.15,left,2,2020-11-25_11h39.15.140,premup-three_ses-01_part-01_label-phase1,3.2.4,Win32,60,right,0.751000166,4,0,4,0,1,3,1,0,240,56,1,239,,,,,,,,,,,,,,,,,,
,,1,76,,,,,,,2,1,4,stim/14.jpeg,Instruments,2,stim/objects/Instruments/record_player.png,0.7,3,-0.2,-0.15,right,2,2020-11-25_11h39.15.140,premup-three_ses-01_part-01_label-phase1,3.2.4,Win32,60,right,1.408000231,4,0,4,0,1,3,1,0,240,103,1,239,,,,,,,,,,,,,,,,,,
,,0,77,,,,,,,2,1,4,stim/14.jpeg,HouseObjects,1,stim/objects/HouseObjects/rug.png,0.3,2,0.2,0.15,left,2,2020-11-25_11h39.15.140,premup-three_ses-01_part-01_label-phase1,3.2.4,Win32,60,right,0.575999975,4,0,4,0,1,3,1,0,240,87,1,239,,,,,,,,,,,,,,,,,,
,,0,78,,,,,,,1,5,3,stim/53.jpeg,Instruments,2,stim/objects/Instruments/maraca.png,0.5,2,0.2,0.15,right,2,2020-11-25_11h39.15.140,premup-three_ses-01_part-01_label-phase1,3.2.4,Win32,60,left,0.742000103,4,0,4,0,1,3,1,0,240,26,1,239,,,,,,,,,,,,,,,,,,
,,1,79,,,,,,,3,3,1,stim/31.jpeg,Instruments,2,stim/objects/Instruments/metronome2.png,0.9,2,0.2,0.15,right,2,2020-11-25_11h39.15.140,premup-three_ses-01_part-01_label-phase1,3.2.4,Win32,60,right,1.311000109,4,0,4,0,1,3,1,0,240,176,1,239,,,,,,,,,,,,,,,,,,
,,1,80,,,,,,,3,4,3,stim/43.jpeg,HouseObjects,1,stim/objects/HouseObjects/rubbergloves2.png,0.9,4,0.2,-0.15,left,2,2020-11-25_11h39.15.140,premup-three_ses-01_part-01_label-phase1,3.2.4,Win32,60,left,0.684000254,4,0,4,0,1,3,1,0,240,202,1,239,,,,,,,,,,,,,,,,,,
,,1,81,,,,,,,2,2,1,stim/21.jpeg,HouseObjects,1,stim/objects/HouseObjects/iron2.png,0.7,2,0.2,0.15,left,2,2020-11-25_11h39.15.140,premup-three_ses-01_part-01_label-phase1,3.2.4,Win32,60,left,1.446000338,4,0,4,0,1,3,1,0,240,128,1,239,,,,,,,,,,,,,,,,,,
,,0,82,,,,,,,3,4,2,stim/42.jpeg,HouseObjects,1,stim/objects/HouseObjects/remote2.png,0.9,1,-0.2,0.15,left,2,2020-11-25_11h39.15.140,premup-three_ses-01_part-01_label-phase1,3.2.4,Win32,60,right,1.086000204,4,0,4,0,1,3,1,0,240,233,1,239,,,,,,,,,,,,,,,,,,
,,1,83,,,,,,,1,6,2,stim/62.jpeg,HouseObjects,1,stim/objects/HouseObjects/match.png,0.5,1,-0.2,0.15,left,2,2020-11-25_11h39.15.140,premup-three_ses-01_part-01_label-phase1,3.2.4,Win32,60,left,0.85800004,4,0,4,0,1,3,1,0,240,53,1,239,,,,,,,,,,,,,,,,,,
,,1,84,,,,,,,1,5,4,stim/54.jpeg,HouseObjects,1,stim/objects/HouseObjects/knife.png,0.5,1,-0.2,0.15,left,2,2020-11-25_11h39.15.140,premup-three_ses-01_part-01_label-phase1,3.2.4,Win32,60,left,0.899000168,4,0,4,0,1,3,1,0,240,11,1,239,,,,,,,,,,,,,,,,,,
,,1,85,,,,,,,2,2,1,stim/21.jpeg,HouseObjects,1,stim/objects/HouseObjects/iron2.png,0.7,2,0.2,0.15,left,2,2020-11-25_11h39.15.140,premup-three_ses-01_part-01_label-phase1,3.2.4,Win32,60,left,0.640000105,4,0,4,0,1,3,1,0,240,144,1,239,,,,,,,,,,,,,,,,,,
,,1,86,,,,,,,1,6,3,stim/63.jpeg,Instruments,2,stim/objects/Instruments/musicstand.png,0.5,4,0.2,-0.15,right,2,2020-11-25_11h39.15.140,premup-three_ses-01_part-01_label-phase1,3.2.4,Win32,60,right,1.264000177,4,0,4,0,1,3,1,0,240,62,1,239,,,,,,,,,,,,,,,,,,
,,0,87,,,,,,,1,6,1,stim/61.jpeg,Instruments,2,stim/objects/Instruments/metronome.png,0.5,2,0.2,0.15,right,2,2020-11-25_11h39.15.140,premup-three_ses-01_part-01_label-phase1,3.2.4,Win32,60,left,0.685000181,4,0,4,0,1,3,1,0,240,64,1,239,,,,,,,,,,,,,,,,,,
,,1,88,,,,,,,2,1,2,stim/12.jpeg,HouseObjects,1,stim/objects/HouseObjects/remote.png,0.3,2,0.2,0.15,left,2,2020-11-25_11h39.15.140,premup-three_ses-01_part-01_label-phase1,3.2.4,Win32,60,left,0.85400033,4,0,4,0,1,3,1,0,240,85,1,239,,,,,,,,,,,,,,,,,,
,,0,89,,,,,,,2,1,1,stim/11.jpeg,Instruments,2,stim/objects/Instruments/panflute.png,0.7,3,-0.2,-0.15,right,2,2020-11-25_11h39.15.140,premup-three_ses-01_part-01_label-phase1,3.2.4,Win32,60,left,0.999000311,4,0,4,0,1,3,1,0,240,104,1,239,,,,,,,,,,,,,,,,,,
,,1,90,,,,,,,1,5,2,stim/52.jpeg,HouseObjects,1,stim/objects/HouseObjects/ironingboard.png,0.5,3,-0.2,-0.15,left,2,2020-11-25_11h39.15.140,premup-three_ses-01_part-01_label-phase1,3.2.4,Win32,60,left,0.683000088,4,0,4,0,1,3,1,0,240,5,1,239,,,,,,,,,,,,,,,,,,
,,0,91,,,,,,,1,5,2,stim/52.jpeg,Instruments,2,stim/objects/Instruments/laud.png,0.5,2,0.2,0.15,right,2,2020-11-25_11h39.15.140,premup-three_ses-01_part-01_label-phase1,3.2.4,Win32,60,left,0.857000113,4,0,4,0,1,3,1,0,240,29,1,239,,,,,,,,,,,,,,,,,,
,,0,92,,,,,,,2,1,4,stim/14.jpeg,Instruments,2,stim/objects/Instruments/record_player.png,0.7,3,-0.2,-0.15,right,2,2020-11-25_11h39.15.140,premup-three_ses-01_part-01_label-phase1,3.2.4,Win32,60,left,0.757000208,4,0,4,0,1,3,1,0,240,95,1,239,,,,,,,,,,,,,,,,,,
,,1,93,,,,,,,2,1,3,stim/13.jpeg,HouseObjects,1,stim/objects/HouseObjects/rubbergloves.png,0.3,4,0.2,-0.15,left,2,2020-11-25_11h39.15.140,premup-three_ses-01_part-01_label-phase1,3.2.4,Win32,60,left,1.459000349,4,0,4,0,1,3,1,0,240,82,1,239,,,,,,,,,,,,,,,,,,
,,1,94,,,,,,,2,2,2,stim/22.jpeg,HouseObjects,1,stim/objects/HouseObjects/ironingboard2.png,0.7,3,-0.2,-0.15,left,2,2020-11-25_11h39.15.140,premup-three_ses-01_part-01_label-phase1,3.2.4,Win32,60,left,0.680000067,4,0,4,0,1,3,1,0,240,145,1,239,,,,,,,,,,,,,,,,,,
,,0,95,,,,,,,1,5,1,stim/51.jpeg,Instruments,2,stim/objects/Instruments/keyboard.png,0.5,1,-0.2,0.15,right,2,2020-11-25_11h39.15.140,premup-three_ses-01_part-01_label-phase1,3.2.4,Win32,60,left,0.913000107,4,0,4,0,1,3,1,0,240,24,1,239,,,,,,,,,,,,,,,,,,
,,1,96,,,,,,,2,2,1,stim/21.jpeg,HouseObjects,1,stim/objects/HouseObjects/iron2.png,0.7,1,-0.2,0.15,left,2,2020-11-25_11h39.15.140,premup-three_ses-01_part-01_label-phase1,3.2.4,Win32,60,left,0.576000214,4,0,4,0,1,3,1,0,240,120,1,239,,,,,,,,,,,,,,,,,,
,,1,97,,,,,,,2,2,2,stim/22.jpeg,HouseObjects,1,stim/objects/HouseObjects/ironingboard2.png,0.7,3,-0.2,-0.15,left,2,2020-11-25_11h39.15.140,premup-three_ses-01_part-01_label-phase1,3.2.4,Win32,60,left,0.751000166,4,0,4,0,1,3,1,0,240,137,1,239,,,,,,,,,,,,,,,,,,
,,1,98,,,,,,,1,6,3,stim/63.jpeg,HouseObjects,1,stim/objects/HouseObjects/pan.png,0.5,4,0.2,-0.15,left,2,2020-11-25_11h39.15.140,premup-three_ses-01_part-01_label-phase1,3.2.4,Win32,60,left,1.74000001,4,0,4,0,1,3,1,0,240,46,1,239,,,,,,,,,,,,,,,,,,
,,0,99,,,,,,,3,3,4,stim/34.jpeg,Instruments,2,stim/objects/Instruments/oboe2.png,0.9,4,0.2,-0.15,right,2,2020-11-25_11h39.15.140,premup-three_ses-01_part-01_label-phase1,3.2.4,Win32,60,left,1.014000177,4,0,4,0,1,3,1,0,240,179,1,239,,,,,,,,,,,,,,,,,,
,,0,100,,,,,,,2,1,1,stim/11.jpeg,Instruments,2,stim/objects/Instruments/panflute.png,0.7,3,-0.2,-0.15,right,2,2020-11-25_11h39.15.140,premup-three_ses-01_part-01_label-phase1,3.2.4,Win32,60,left,1.383000135,4,0,4,0,1,3,1,0,240,116,1,239,,,,,,,,,,,,,,,,,,
,,0,101,,,,,,,2,1,4,stim/14.jpeg,Instruments,2,stim/objects/Instruments/record_player.png,0.7,3,-0.2,-0.15,right,2,2020-11-25_11h39.15.140,premup-three_ses-01_part-01_label-phase1,3.2.4,Win32,60,left,0.659000158,4,0,4,0,1,3,1,0,240,111,1,239,,,,,,,,,,,,,,,,,,
,,1,102,,,,,,,2,2,2,stim/22.jpeg,HouseObjects,1,stim/objects/HouseObjects/ironingboard2.png,0.7,3,-0.2,-0.15,left,2,2020-11-25_11h39.15.140,premup-three_ses-01_part-01_label-phase1,3.2.4,Win32,60,left,0.475000381,4,0,4,0,1,3,1,0,240,129,1,239,,,,,,,,,,,,,,,,,,
,,1,103,,,,,,,3,4,4,stim/44.jpeg,HouseObjects,1,stim/objects/HouseObjects/rug2.png,0.9,4,0.2,-0.15,left,2,2020-11-25_11h39.15.140,premup-three_ses-01_part-01_label-phase1,3.2.4,Win32,60,left,0.864000082,4,0,4,0,1,3,1,0,240,215,1,239,,,,,,,,,,,,,,,,,,
,,1,104,,,,,,,3,4,4,stim/44.jpeg,HouseObjects,1,stim/objects/HouseObjects/rug2.png,0.9,4,0.2,-0.15,left,2,2020-11-25_11h39.15.140,premup-three_ses-01_part-01_label-phase1,3.2.4,Win32,60,left,0.444000006,4,0,4,0,1,3,1,0,240,223,1,239,,,,,,,,,,,,,,,,,,
,,1,105,,,,,,,1,6,3,stim/63.jpeg,HouseObjects,1,stim/objects/HouseObjects/pan.png,0.5,3,-0.2,-0.15,left,2,2020-11-25_11h39.15.140,premup-three_ses-01_part-01_label-phase1,3.2.4,Win32,60,left,0.63100028,4,0,4,0,1,3,1,0,240,54,1,239,,,,,,,,,,,,,,,,,,
,,1,106,,,,,,,2,2,3,stim/23.jpeg,HouseObjects,1,stim/objects/HouseObjects/key2.png,0.7,4,0.2,-0.15,left,2,2020-11-25_11h39.15.140,premup-three_ses-01_part-01_label-phase1,3.2.4,Win32,60,left,0.5400002,4,0,4,0,1,3,1,0,240,122,1,239,,,,,,,,,,,,,,,,,,
,,0,107,,,,,,,1,5,1,stim/51.jpeg,HouseObjects,1,stim/objects/HouseObjects/iron.png,0.5,1,-0.2,0.15,left,2,2020-11-25_11h39.15.140,premup-three_ses-01_part-01_label-phase1,3.2.4,Win32,60,right,1.071000099,4,0,4,0,1,3,1,0,240,4,1,239,,,,,,,,,,,,,,,,,,
,,0,108,,,,,,,3,3,1,stim/31.jpeg,Instruments,2,stim/objects/Instruments/metronome2.png,0.9,2,0.2,0.15,right,2,2020-11-25_11h39.15.140,premup-three_ses-01_part-01_label-phase1,3.2.4,Win32,60,left,0.562000036,4,0,4,0,1,3,1,0,240,180,1,239,,,,,,,,,,,,,,,,,,
,,1,109,,,,,,,3,4,3,stim/43.jpeg,HouseObjects,1,stim/objects/HouseObjects/rubbergloves2.png,0.9,2,0.2,0.15,left,2,2020-11-25_11h39.15.140,premup-three_ses-01_part-01_label-phase1,3.2.4,Win32,60,left,0.710000038,4,0,4,0,1,3,1,0,240,226,1,239,,,,,,,,,,,,,,,,,,
,,0,110,,,,,,,2,1,3,stim/13.jpeg,HouseObjects,1,stim/objects/HouseObjects/rubbergloves.png,0.3,1,-0.2,0.15,left,2,2020-11-25_11h39.15.140,premup-three_ses-01_part-01_label-phase1,3.2.4,Win32,60,right,0.998000145,4,0,4,0,1,3,1,0,240,90,1,239,,,,,,,,,,,,,,,,,,
,,1,111,,,,,,,2,1,2,stim/12.jpeg,Instruments,2,stim/objects/Instruments/pipepiano.png,0.7,1,-0.2,0.15,right,2,2020-11-25_11h39.15.140,premup-three_ses-01_part-01_label-phase1,3.2.4,Win32,60,right,0.563000202,4,0,4,0,1,3,1,0,240,117,1,239,,,,,,,,,,,,,,,,,,
,,1,112,,,,,,,2,2,3,stim/23.jpeg,HouseObjects,1,stim/objects/HouseObjects/key2.png,0.7,2,0.2,0.15,left,2,2020-11-25_11h39.15.140,premup-three_ses-01_part-01_label-phase1,3.2.4,Win32,60,left,0.600000143,4,0,4,0,1,3,1,0,240,146,1,239,,,,,,,,,,,,,,,,,,
,,1,113,,,,,,,3,3,4,stim/34.jpeg,Instruments,2,stim/objects/Instruments/oboe2.png,0.9,3,-0.2,-0.15,right,2,2020-11-25_11h39.15.140,premup-three_ses-01_part-01_label-phase1,3.2.4,Win32,60,right,0.641000032,4,0,4,0,1,3,1,0,240,195,1,239,,,,,,,,,,,,,,,,,,
,,1,114,,,,,,,3,4,1,stim/41.jpeg,HouseObjects,1,stim/objects/HouseObjects/recyclingbin2.png,0.9,1,-0.2,0.15,left,2,2020-11-25_11h39.15.140,premup-three_ses-01_part-01_label-phase1,3.2.4,Win32,60,left,0.53000021,4,0,4,0,1,3,1,0,240,200,1,239,,,,,,,,,,,,,,,,,,
,,1,115,,,,,,,3,3,4,stim/34.jpeg,Instruments,2,stim/objects/Instruments/oboe2.png,0.9,2,0.2,0.15,right,2,2020-11-25_11h39.15.140,premup-three_ses-01_part-01_label-phase1,3.2.4,Win32,60,right,1.194000244,4,0,4,0,1,3,1,0,240,171,1,239,,,,,,,,,,,,,,,,,,
,,1,116,,,,,,,2,2,4,stim/24.jpeg,HouseObjects,1,stim/objects/HouseObjects/knife2.png,0.7,4,0.2,-0.15,left,2,2020-11-25_11h39.15.140,premup-three_ses-01_part-01_label-phase1,3.2.4,Win32,60,left,0.429000139,4,0,4,0,1,3,1,0,240,123,1,239,,,,,,,,,,,,,,,,,,
,,0,117,,,,,,,2,1,1,stim/11.jpeg,HouseObjects,1,stim/objects/HouseObjects/recyclingbin.png,0.3,4,0.2,-0.15,left,2,2020-11-25_11h39.15.140,premup-three_ses-01_part-01_label-phase1,3.2.4,Win32,60,right,0.809000254,4,0,4,0,1,3,1,0,240,84,1,239,,,,,,,,,,,,,,,,,,
,,1,118,,,,,,,3,3,2,stim/32.jpeg,Instruments,2,stim/objects/Instruments/musicsheet2.png,0.9,4,0.2,-0.15,right,2,2020-11-25_11h39.15.140,premup-three_ses-01_part-01_label-phase1,3.2.4,Win32,60,right,0.73900032,4,0,4,0,1,3,1,0,240,197,1,239,,,,,,,,,,,,,,,,,,
,,1,119,,,,,,,3,3,1,stim/31.jpeg,Instruments,2,stim/objects/Instruments/metronome2.png,0.9,3,-0.2,-0.15,right,2,2020-11-25_11h39.15.140,premup-three_ses-01_part-01_label-phase1,3.2.4,Win32,60,right,0.410000086,4,0,4,0,1,3,1,0,240,192,1,239,,,,,,,,,,,,,,,,,,
,,1,120,,,,,,,3,4,1,stim/41.jpeg,HouseObjects,1,stim/objects/HouseObjects/recyclingbin2.png,0.9,1,-0.2,0.15,left,2,2020-11-25_11h39.15.140,premup-three_ses-01_part-01_label-phase1,3.2.4,Win32,60,left,0.517000198,4,0,4,0,1,3,1,0,240,224,1,239,,,,,,,,,,,,,,,,,,
,,1,121,,,,,,,3,3,1,stim/31.jpeg,Instruments,2,stim/objects/Instruments/metronome2.png,0.9,3,-0.2,-0.15,right,2,2020-11-25_11h39.15.140,premup-three_ses-01_part-01_label-phase1,3.2.4,Win32,60,right,0.568000317,4,0,4,0,1,3,1,0,240,184,1,239,,,,,,,,,,,,,,,,,,
,,0,122,,,,,,,1,6,1,stim/61.jpeg,Instruments,2,stim/objects/Instruments/metronome.png,0.5,3,-0.2,-0.15,right,2,2020-11-25_11h39.15.140,premup-three_ses-01_part-01_label-phase1,3.2.4,Win32,60,left,0.603000164,4,0,4,0,1,3,1,0,240,68,1,239,,,,,,,,,,,,,,,,,,
,,1,123,,,,,,,3,4,2,stim/42.jpeg,HouseObjects,1,stim/objects/HouseObjects/remote2.png,0.9,1,-0.2,0.15,left,2,2020-11-25_11h39.15.140,premup-three_ses-01_part-01_label-phase1,3.2.4,Win32,60,left,1.214000225,4,0,4,0,1,3,1,0,240,209,1,239,,,,,,,,,,,,,,,,,,
,,1,124,,,,,,,2,1,3,stim/13.jpeg,Instruments,2,stim/objects/Instruments/record.png,0.7,4,0.2,-0.15,right,2,2020-11-25_11h39.15.140,premup-three_ses-01_part-01_label-phase1,3.2.4,Win32,60,right,1.136000156,4,0,4,0,1,3,1,0,240,94,1,239,,,,,,,,,,,,,,,,,,
,,1,125,,,,,,,3,3,2,stim/32.jpeg,Instruments,2,stim/objects/Instruments/musicsheet2.png,0.9,4,0.2,-0.15,right,2,2020-11-25_11h39.15.140,premup-three_ses-01_part-01_label-phase1,3.2.4,Win32,60,right,0.627000093,4,0,4,0,1,3,1,0,240,181,1,239,,,,,,,,,,,,,,,,,,
,,0,126,,,,,,,1,6,4,stim/64.jpeg,Instruments,2,stim/objects/Instruments/oboe.png,0.5,3,-0.2,-0.15,right,2,2020-11-25_11h39.15.140,premup-three_ses-01_part-01_label-phase1,3.2.4,Win32,60,left,0.676000118,4,0,4,0,1,3,1,0,240,79,1,239,,,,,,,,,,,,,,,,,,
,,1,127,,,,,,,3,4,1,stim/41.jpeg,HouseObjects,1,stim/objects/HouseObjects/recyclingbin2.png,0.9,1,-0.2,0.15,left,2,2020-11-25_11h39.15.140,premup-three_ses-01_part-01_label-phase1,3.2.4,Win32,60,left,0.675000191,4,0,4,0,1,3,1,0,240,220,1,239,,,,,,,,,,,,,,,,,,
,,1,128,,,,,,,3,3,2,stim/32.jpeg,Instruments,2,stim/objects/Instruments/musicsheet2.png,0.9,4,0.2,-0.15,right,2,2020-11-25_11h39.15.140,premup-three_ses-01_part-01_label-phase1,3.2.4,Win32,60,right,0.501000166,4,0,4,0,1,3,1,0,240,165,1,239,,,,,,,,,,,,,,,,,,
,,0,129,,,,,,,2,2,3,stim/23.jpeg,Instruments,2,stim/objects/Instruments/maraca2.png,0.3,1,-0.2,0.15,right,2,2020-11-25_11h39.15.140,premup-three_ses-01_part-01_label-phase1,3.2.4,Win32,60,left,0.550000191,4,0,4,0,1,3,1,0,240,158,1,239,,,,,,,,,,,,,,,,,,
,,0,130,,,,,,,2,1,2,stim/12.jpeg,Instruments,2,stim/objects/Instruments/pipepiano.png,0.7,3,-0.2,-0.15,right,2,2020-11-25_11h39.15.140,premup-three_ses-01_part-01_label-phase1,3.2.4,Win32,60,left,1.317000151,4,0,4,0,1,3,1,0,240,101,1,239,,,,,,,,,,,,,,,,,,
,,1,131,,,,,,,1,6,1,stim/61.jpeg,Instruments,2,stim/objects/Instruments/metronome.png,0.5,3,-0.2,-0.15,right,2,2020-11-25_11h39.15.140,premup-three_ses-01_part-01_label-phase1,3.2.4,Win32,60,right,1.178000212,4,0,4,0,1,3,1,0,240,76,1,239,,,,,,,,,,,,,,,,,,
,,0,132,,,,,,,1,6,2,stim/62.jpeg,Instruments,2,stim/objects/Instruments/musicsheet.png,0.5,2,0.2,0.15,right,2,2020-11-25_11h39.15.140,premup-three_ses-01_part-01_label-phase1,3.2.4,Win32,60,left,0.613000154,4,0,4,0,1,3,1,0,240,65,1,239,,,,,,,,,,,,,,,,,,
,,0,133,,,,,,,1,6,3,stim/63.jpeg,Instruments,2,stim/objects/Instruments/musicstand.png,0.5,2,0.2,0.15,right,2,2020-11-25_11h39.15.140,premup-three_ses-01_part-01_label-phase1,3.2.4,Win32,60,left,0.613000154,4,0,4,0,1,3,1,0,240,78,1,239,,,,,,,,,,,,,,,,,,
,,0,134,,,,,,,1,5,4,stim/54.jpeg,Instruments,2,stim/objects/Instruments/marimba.png,0.5,3,-0.2,-0.15,right,2,2020-11-25_11h39.15.140,premup-three_ses-01_part-01_label-phase1,3.2.4,Win32,60,left,1.652000189,4,0,4,0,1,3,1,0,240,31,1,239,,,,,,,,,,,,,,,,,,
,,1,135,,,,,,,1,5,1,stim/51.jpeg,Instruments,2,stim/objects/Instruments/keyboard.png,0.5,4,0.2,-0.15,right,2,2020-11-25_11h39.15.140,premup-three_ses-01_part-01_label-phase1,3.2.4,Win32,60,right,1.693000317,4,0,4,0,1,3,1,0,240,36,1,239,,,,,,,,,,,,,,,,,,
,,1,136,,,,,,,1,6,3,stim/63.jpeg,HouseObjects,1,stim/objects/HouseObjects/pan.png,0.5,1,-0.2,0.15,left,2,2020-11-25_11h39.15.140,premup-three_ses-01_part-01_label-phase1,3.2.4,Win32,60,left,0.704000235,4,0,4,0,1,3,1,0,240,58,1,239,,,,,,,,,,,,,,,,,,
,,0,137,,,,,,,2,2,3,stim/23.jpeg,Instruments,2,stim/objects/Instruments/maraca2.png,0.3,2,0.2,0.15,right,2,2020-11-25_11h39.15.140,premup-three_ses-01_part-01_label-phase1,3.2.4,Win32,60,left,1.012000084,4,0,4,0,1,3,1,0,240,154,1,239,,,,,,,,,,,,,,,,,,
,,0,138,,,,,,,1,6,3,stim/63.jpeg,Instruments,2,stim/objects/Instruments/musicstand.png,0.5,1,-0.2,0.15,right,2,2020-11-25_11h39.15.140,premup-three_ses-01_part-01_label-phase1,3.2.4,Win32,60,left,1.203000307,4,0,4,0,1,3,1,0,240,66,1,239,,,,,,,,,,,,,,,,,,
,,0,139,,,,,,,3,3,2,stim/32.jpeg,Instruments,2,stim/objects/Instruments/musicsheet2.png,0.9,3,-0.2,-0.15,right,2,2020-11-25_11h39.15.140,premup-three_ses-01_part-01_label-phase1,3.2.4,Win32,60,,,4,0,4,0,1,3,1,0,240,169,1,239,,,,,,,,,,,,,,,,,,
,,1,140,,,,,,,1,5,1,stim/51.jpeg,HouseObjects,1,stim/objects/HouseObjects/iron.png,0.5,1,-0.2,0.15,left,2,2020-11-25_11h39.15.140,premup-three_ses-01_part-01_label-phase1,3.2.4,Win32,60,left,0.656000376,4,0,4,0,1,3,1,0,240,8,1,239,,,,,,,,,,,,,,,,,,
,,1,141,,,,,,,1,5,2,stim/52.jpeg,HouseObjects,1,stim/objects/HouseObjects/ironingboard.png,0.5,2,0.2,0.15,left,2,2020-11-25_11h39.15.140,premup-three_ses-01_part-01_label-phase1,3.2.4,Win32,60,left,1.071000338,4,0,4,0,1,3,1,0,240,1,1,239,,,,,,,,,,,,,,,,,,
,,1,142,,,,,,,3,4,2,stim/42.jpeg,HouseObjects,1,stim/objects/HouseObjects/remote2.png,0.9,3,-0.2,-0.15,left,2,2020-11-25_11h39.15.140,premup-three_ses-01_part-01_label-phase1,3.2.4,Win32,60,left,0.687000036,4,0,4,0,1,3,1,0,240,229,1,239,,,,,,,,,,,,,,,,,,
,,1,143,,,,,,,3,3,2,stim/32.jpeg,Instruments,2,stim/objects/Instruments/musicsheet2.png,0.9,4,0.2,-0.15,right,2,2020-11-25_11h39.15.140,premup-three_ses-01_part-01_label-phase1,3.2.4,Win32,60,right,0.558000088,4,0,4,0,1,3,1,0,240,189,1,239,,,,,,,,,,,,,,,,,,
,,1,144,,,,,,,2,1,4,stim/14.jpeg,HouseObjects,1,stim/objects/HouseObjects/rug.png,0.3,3,-0.2,-0.15,left,2,2020-11-25_11h39.15.140,premup-three_ses-01_part-01_label-phase1,3.2.4,Win32,60,left,1.084000111,4,0,4,0,1,3,1,0,240,91,1,239,,,,,,,,,,,,,,,,,,
,,1,145,,,,,,,1,5,4,stim/54.jpeg,HouseObjects,1,stim/objects/HouseObjects/knife.png,0.5,4,0.2,-0.15,left,2,2020-11-25_11h39.15.140,premup-three_ses-01_part-01_label-phase1,3.2.4,Win32,60,left,0.903000116,4,0,4,0,1,3,1,0,240,19,1,239,,,,,,,,,,,,,,,,,,
,,0,146,,,,,,,2,2,1,stim/21.jpeg,Instruments,2,stim/objects/Instruments/keyboard2.png,0.3,4,0.2,-0.15,right,2,2020-11-25_11h39.15.140,premup-three_ses-01_part-01_label-phase1,3.2.4,Win32,60,left,0.899000168,4,0,4,0,1,3,1,0,240,156,1,239,,,,,,,,,,,,,,,,,,
,,1,147,,,,,,,3,4,2,stim/42.jpeg,HouseObjects,1,stim/objects/HouseObjects/remote2.png,0.9,2,0.2,0.15,left,2,2020-11-25_11h39.15.140,premup-three_ses-01_part-01_label-phase1,3.2.4,Win32,60,left,0.700999975,4,0,4,0,1,3,1,0,240,225,1,239,,,,,,,,,,,,,,,,,,
,,1,148,,,,,,,3,3,4,stim/34.jpeg,HouseObjects,1,stim/objects/HouseObjects/pitcher2.png,0.1,3,-0.2,-0.15,left,2,2020-11-25_11h39.15.140,premup-three_ses-01_part-01_label-phase1,3.2.4,Win32,60,left,0.731000185,4,0,4,0,1,3,1,0,240,163,1,239,,,,,,,,,,,,,,,,,,
,,1,149,,,,,,,3,4,3,stim/43.jpeg,HouseObjects,1,stim/objects/HouseObjects/rubbergloves2.png,0.9,2,0.2,0.15,left,2,2020-11-25_11h39.15.140,premup-three_ses-01_part-01_label-phase1,3.2.4,Win32,60,left,0.627000093,4,0,4,0,1,3,1,0,240,218,1,239,,,,,,,,,,,,,,,,,,
,,1,150,,,,,,,1,5,2,stim/52.jpeg,HouseObjects,1,stim/objects/HouseObjects/ironingboard.png,0.5,1,-0.2,0.15,left,2,2020-11-25_11h39.15.140,premup-three_ses-01_part-01_label-phase1,3.2.4,Win32,60,left,0.759000301,4,0,4,0,1,3,1,0,240,13,1,239,,,,,,,,,,,,,,,,,,
,,1,151,,,,,,,2,2,2,stim/22.jpeg,HouseObjects,1,stim/objects/HouseObjects/ironingboard2.png,0.7,3,-0.2,-0.15,left,2,2020-11-25_11h39.15.140,premup-three_ses-01_part-01_label-phase1,3.2.4,Win32,60,left,0.788000345,4,0,4,0,1,3,1,0,240,121,1,239,,,,,,,,,,,,,,,,,,
,,0,152,,,,,,,1,5,2,stim/52.jpeg,Instruments,2,stim/objects/Instruments/laud.png,0.5,4,0.2,-0.15,right,2,2020-11-25_11h39.15.140,premup-three_ses-01_part-01_label-phase1,3.2.4,Win32,60,left,0.846000195,4,0,4,0,1,3,1,0,240,33,1,239,,,,,,,,,,,,,,,,,,
,,1,153,,,,,,,3,4,2,stim/42.jpeg,HouseObjects,1,stim/objects/HouseObjects/remote2.png,0.9,2,0.2,0.15,left,2,2020-11-25_11h39.15.140,premup-three_ses-01_part-01_label-phase1,3.2.4,Win32,60,left,0.640000343,4,0,4,0,1,3,1,0,240,213,1,239,,,,,,,,,,,,,,,,,,
,,1,154,,,,,,,1,6,3,stim/63.jpeg,HouseObjects,1,stim/objects/HouseObjects/pan.png,0.5,4,0.2,-0.15,left,2,2020-11-25_11h39.15.140,premup-three_ses-01_part-01_label-phase1,3.2.4,Win32,60,left,0.751000166,4,0,4,0,1,3,1,0,240,50,1,239,,,,,,,,,,,,,,,,,,
,,1,155,,,,,,,3,4,2,stim/42.jpeg,HouseObjects,1,stim/objects/HouseObjects/remote2.png,0.9,3,-0.2,-0.15,left,2,2020-11-25_11h39.15.140,premup-three_ses-01_part-01_label-phase1,3.2.4,Win32,60,left,0.680000067,4,0,4,0,1,3,1,0,240,205,1,239,,,,,,,,,,,,,,,,,,
,,1,156,,,,,,,3,4,3,stim/43.jpeg,HouseObjects,1,stim/objects/HouseObjects/rubbergloves2.png,0.9,1,-0.2,0.15,left,2,2020-11-25_11h39.15.140,premup-three_ses-01_part-01_label-phase1,3.2.4,Win32,60,left,0.604000092,4,0,4,0,1,3,1,0,240,210,1,239,,,,,,,,,,,,,,,,,,
,,1,157,,,,,,,3,3,1,stim/31.jpeg,Instruments,2,stim/objects/Instruments/metronome2.png,0.9,1,-0.2,0.15,right,2,2020-11-25_11h39.15.140,premup-three_ses-01_part-01_label-phase1,3.2.4,Win32,60,right,0.691000223,4,0,4,0,1,3,1,0,240,164,1,239,,,,,,,,,,,,,,,,,,
,,0,158,,,,,,,1,6,4,stim/64.jpeg,Instruments,2,stim/objects/Instruments/oboe.png,0.5,3,-0.2,-0.15,right,2,2020-11-25_11h39.15.140,premup-three_ses-01_part-01_label-phase1,3.2.4,Win32,60,left,0.761000156,4,0,4,0,1,3,1,0,240,75,1,239,,,,,,,,,,,,,,,,,,
,,1,159,,,,,,,3,4,3,stim/43.jpeg,HouseObjects,1,stim/objects/HouseObjects/rubbergloves2.png,0.9,3,-0.2,-0.15,left,2,2020-11-25_11h39.15.140,premup-three_ses-01_part-01_label-phase1,3.2.4,Win32,60,left,0.548000336,4,0,4,0,1,3,1,0,240,230,1,239,,,,,,,,,,,,,,,,,,
,,0,160,,,,,,,3,3,1,stim/31.jpeg,HouseObjects,1,stim/objects/HouseObjects/lintroller2.png,0.1,4,0.2,-0.15,left,2,2020-11-25_11h39.15.140,premup-three_ses-01_part-01_label-phase1,3.2.4,Win32,60,right,0.444000244,4,0,4,0,1,3,1,0,240,160,1,239,,,,,,,,,,,,,,,,,,
,,0,161,,,,,,,1,6,4,stim/64.jpeg,HouseObjects,1,stim/objects/HouseObjects/pitcher.png,0.5,3,-0.2,-0.15,left,2,2020-11-25_11h39.15.140,premup-three_ses-01_part-01_label-phase1,3.2.4,Win32,60,right,0.702000141,4,0,4,0,1,3,1,0,240,47,1,239,,,,,,,,,,,,,,,,,,
,,1,162,,,,,,,2,2,1,stim/21.jpeg,HouseObjects,1,stim/objects/HouseObjects/iron2.png,0.7,1,-0.2,0.15,left,2,2020-11-25_11h39.15.140,premup-three_ses-01_part-01_label-phase1,3.2.4,Win32,60,left,1.213000298,4,0,4,0,1,3,1,0,240,136,1,239,,,,,,,,,,,,,,,,,,
,,1,163,,,,,,,3,3,2,stim/32.jpeg,Instruments,2,stim/objects/Instruments/musicsheet2.png,0.9,4,0.2,-0.15,right,2,2020-11-25_11h39.15.140,premup-three_ses-01_part-01_label-phase1,3.2.4,Win32,60,right,0.581000328,4,0,4,0,1,3,1,0,240,173,1,239,,,,,,,,,,,,,,,,,,
,,1,164,,,,,,,2,2,1,stim/21.jpeg,HouseObjects,1,stim/objects/HouseObjects/iron2.png,0.7,1,-0.2,0.15,left,2,2020-11-25_11h39.15.140,premup-three_ses-01_part-01_label-phase1,3.2.4,Win32,60,left,0.5400002,4,0,4,0,1,3,1,0,240,124,1,239,,,,,,,,,,,,,,,,,,
,,1,165,,,,,,,3,4,3,stim/43.jpeg,HouseObjects,1,stim/objects/HouseObjects/rubbergloves2.png,0.9,1,-0.2,0.15,left,2,2020-11-25_11h39.15.140,premup-three_ses-01_part-01_label-phase1,3.2.4,Win32,60,left,0.560000181,4,0,4,0,1,3,1,0,240,234,1,239,,,,,,,,,,,,,,,,,,
,,1,166,,,,,,,1,6,1,stim/61.jpeg,Instruments,2,stim/objects/Instruments/metronome.png,0.5,1,-0.2,0.15,right,2,2020-11-25_11h39.15.140,premup-three_ses-01_part-01_label-phase1,3.2.4,Win32,60,right,0.913000107,4,0,4,0,1,3,1,0,240,72,1,239,,,,,,,,,,,,,,,,,,
,,1,167,,,,,,,2,2,2,stim/22.jpeg,HouseObjects,1,stim/objects/HouseObjects/ironingboard2.png,0.7,4,0.2,-0.15,left,2,2020-11-25_11h39.15.140,premup-three_ses-01_part-01_label-phase1,3.2.4,Win32,60,left,0.580000162,4,0,4,0,1,3,1,0,240,125,1,239,,,,,,,,,,,,,,,,,,
,,0,168,,,,,,,1,6,2,stim/62.jpeg,HouseObjects,1,stim/objects/HouseObjects/match.png,0.5,3,-0.2,-0.15,left,2,2020-11-25_11h39.15.140,premup-three_ses-01_part-01_label-phase1,3.2.4,Win32,60,right,0.875,4,0,4,0,1,3,1,0,240,41,1,239,,,,,,,,,,,,,,,,,,
,,0,169,,,,,,,2,2,4,stim/24.jpeg,Instruments,2,stim/objects/Instruments/marimba2.png,0.3,3,-0.2,-0.15,right,2,2020-11-25_11h39.15.140,premup-three_ses-01_part-01_label-phase1,3.2.4,Win32,60,left,1.353000164,4,0,4,0,1,3,1,0,240,151,1,239,,,,,,,,,,,,,,,,,,
,,1,170,,,,,,,3,3,1,stim/31.jpeg,Instruments,2,stim/objects/Instruments/metronome2.png,0.9,1,-0.2,0.15,right,2,2020-11-25_11h39.15.140,premup-three_ses-01_part-01_label-phase1,3.2.4,Win32,60,right,0.578999996,4,0,4,0,1,3,1,0,240,172,1,239,,,,,,,,,,,,,,,,,,
,,1,171,,,,,,,2,1,3,stim/13.jpeg,Instruments,2,stim/objects/Instruments/record.png,0.7,1,-0.2,0.15,right,2,2020-11-25_11h39.15.140,premup-three_ses-01_part-01_label-phase1,3.2.4,Win32,60,right,0.575000286,4,0,4,0,1,3,1,0,240,118,1,239,,,,,,,,,,,,,,,,,,
,,0,172,,,,,,,2,2,2,stim/22.jpeg,Instruments,2,stim/objects/Instruments/laud2.png,0.3,3,-0.2,-0.15,right,2,2020-11-25_11h39.15.140,premup-three_ses-01_part-01_label-phase1,3.2.4,Win32,60,left,0.521000147,4,0,4,0,1,3,1,0,240,153,1,239,,,,,,,,,,,,,,,,,,
,,0,173,,,,,,,1,6,4,stim/64.jpeg,HouseObjects,1,stim/objects/HouseObjects/pitcher.png,0.5,3,-0.2,-0.15,left,2,2020-11-25_11h39.15.140,premup-three_ses-01_part-01_label-phase1,3.2.4,Win32,60,right,0.621000051,4,0,4,0,1,3,1,0,240,43,1,239,,,,,,,,,,,,,,,,,,
,,0,174,,,,,,,2,1,2,stim/12.jpeg,Instruments,2,stim/objects/Instruments/pipepiano.png,0.7,2,0.2,0.15,right,2,2020-11-25_11h39.15.140,premup-three_ses-01_part-01_label-phase1,3.2.4,Win32,60,left,1.144999981,4,0,4,0,1,3,1,0,240,109,1,239,,,,,,,,,,,,,,,,,,
,,0,175,,,,,,,1,6,2,stim/62.jpeg,HouseObjects,1,stim/objects/HouseObjects/match.png,0.5,3,-0.2,-0.15,left,2,2020-11-25_11h39.15.140,premup-three_ses-01_part-01_label-phase1,3.2.4,Win32,60,right,0.707000017,4,0,4,0,1,3,1,0,240,57,1,239,,,,,,,,,,,,,,,,,,
,,1,176,,,,,,,3,3,4,stim/34.jpeg,Instruments,2,stim/objects/Instruments/oboe2.png,0.9,1,-0.2,0.15,right,2,2020-11-25_11h39.15.140,premup-three_ses-01_part-01_label-phase1,3.2.4,Win32,60,right,0.676000118,4,0,4,0,1,3,1,0,240,199,1,239,,,,,,,,,,,,,,,,,,
,,0,177,,,,,,,1,6,2,stim/62.jpeg,HouseObjects,1,stim/objects/HouseObjects/match.png,0.5,4,0.2,-0.15,left,2,2020-11-25_11h39.15.140,premup-three_ses-01_part-01_label-phase1,3.2.4,Win32,60,right,0.742000103,4,0,4,0,1,3,1,0,240,45,1,239,,,,,,,,,,,,,,,,,,
,,0,178,,,,,,,1,5,1,stim/51.jpeg,HouseObjects,1,stim/objects/HouseObjects/iron.png,0.5,3,-0.2,-0.15,left,2,2020-11-25_11h39.15.140,premup-three_ses-01_part-01_label-phase1,3.2.4,Win32,60,right,1.278000116,4,0,4,0,1,3,1,0,240,0,1,239,,,,,,,,,,,,,,,,,,
,,0,179,,,,,,,2,1,2,stim/12.jpeg,HouseObjects,1,stim/objects/HouseObjects/remote.png,0.3,1,-0.2,0.15,left,2,2020-11-25_11h39.15.140,premup-three_ses-01_part-01_label-phase1,3.2.4,Win32,60,right,0.686000109,4,0,4,0,1,3,1,0,240,89,1,239,,,,,,,,,,,,,,,,,,
,,0,180,,,,,,,1,5,3,stim/53.jpeg,Instruments,2,stim/objects/Instruments/maraca.png,0.5,2,0.2,0.15,right,2,2020-11-25_11h39.15.140,premup-three_ses-01_part-01_label-phase1,3.2.4,Win32,60,left,0.693000317,4,0,4,0,1,3,1,0,240,34,1,239,,,,,,,,,,,,,,,,,,
,,1,181,,,,,,,1,6,3,stim/63.jpeg,HouseObjects,1,stim/objects/HouseObjects/pan.png,0.5,1,-0.2,0.15,left,2,2020-11-25_11h39.15.140,premup-three_ses-01_part-01_label-phase1,3.2.4,Win32,60,left,0.789000273,4,0,4,0,1,3,1,0,240,42,1,239,,,,,,,,,,,,,,,,,,
,,1,182,,,,,,,3,3,3,stim/33.jpeg,Instruments,2,stim/objects/Instruments/musicstand2.png,0.9,1,-0.2,0.15,right,2,2020-11-25_11h39.15.140,premup-three_ses-01_part-01_label-phase1,3.2.4,Win32,60,right,0.65500021,4,0,4,0,1,3,1,0,240,170,1,239,,,,,,,,,,,,,,,,,,
,,1,183,,,,,,,2,1,4,stim/14.jpeg,HouseObjects,1,stim/objects/HouseObjects/rug.png,0.3,4,0.2,-0.15,left,2,2020-11-25_11h39.15.140,premup-three_ses-01_part-01_label-phase1,3.2.4,Win32,60,left,1.010000229,4,0,4,0,1,3,1,0,240,83,1,239,,,,,,,,,,,,,,,,,,
,,1,184,,,,,,,1,5,3,stim/53.jpeg,HouseObjects,1,stim/objects/HouseObjects/key.png,0.5,1,-0.2,0.15,left,2,2020-11-25_11h39.15.140,premup-three_ses-01_part-01_label-phase1,3.2.4,Win32,60,left,0.717000246,4,0,4,0,1,3,1,0,240,2,1,239,,,,,,,,,,,,,,,,,,
,,1,185,,,,,,,1,6,2,stim/62.jpeg,HouseObjects,1,stim/objects/HouseObjects/match.png,0.5,1,-0.2,0.15,left,2,2020-11-25_11h39.15.140,premup-three_ses-01_part-01_label-phase1,3.2.4,Win32,60,left,0.851000309,4,0,4,0,1,3,1,0,240,49,1,239,,,,,,,,,,,,,,,,,,
,,0,186,,,,,,,3,3,3,stim/33.jpeg,HouseObjects,1,stim/objects/HouseObjects/pan2.png,0.1,4,0.2,-0.15,left,2,2020-11-25_11h39.15.140,premup-three_ses-01_part-01_label-phase1,3.2.4,Win32,60,right,0.524000168,4,0,4,0,1,3,1,0,240,162,1,239,,,,,,,,,,,,,,,,,,
,,0,187,,,,,,,2,2,3,stim/23.jpeg,HouseObjects,1,stim/objects/HouseObjects/key2.png,0.7,3,-0.2,-0.15,left,2,2020-11-25_11h39.15.140,premup-three_ses-01_part-01_label-phase1,3.2.4,Win32,60,right,1.177999973,4,0,4,0,1,3,1,0,240,130,1,239,,,,,,,,,,,,,,,,,,
,,1,188,,,,,,,3,4,3,stim/43.jpeg,HouseObjects,1,stim/objects/HouseObjects/rubbergloves2.png,0.9,3,-0.2,-0.15,left,2,2020-11-25_11h39.15.140,premup-three_ses-01_part-01_label-phase1,3.2.4,Win32,60,left,0.618000031,4,0,4,0,1,3,1,0,240,206,1,239,,,,,,,,,,,,,,,,,,
,,1,189,,,,,,,3,4,2,stim/42.jpeg,HouseObjects,1,stim/objects/HouseObjects/remote2.png,0.9,3,-0.2,-0.15,left,2,2020-11-25_11h39.15.140,premup-three_ses-01_part-01_label-phase1,3.2.4,Win32,60,left,0.600000143,4,0,4,0,1,3,1,0,240,221,1,239,,,,,,,,,,,,,,,,,,
,,0,190,,,,,,,1,5,1,stim/51.jpeg,Instruments,2,stim/objects/Instruments/keyboard.png,0.5,1,-0.2,0.15,right,2,2020-11-25_11h39.15.140,premup-three_ses-01_part-01_label-phase1,3.2.4,Win32,60,left,0.837000132,4,0,4,0,1,3,1,0,240,32,1,239,,,,,,,,,,,,,,,,,,
,,0,191,,,,,,,1,5,1,stim/51.jpeg,HouseObjects,1,stim/objects/HouseObjects/iron.png,0.5,1,-0.2,0.15,left,2,2020-11-25_11h39.15.140,premup-three_ses-01_part-01_label-phase1,3.2.4,Win32,60,right,0.713000059,4,0,4,0,1,3,1,0,240,16,1,239,,,,,,,,,,,,,,,,,,
,,1,192,,,,,,,1,6,1,stim/61.jpeg,Instruments,2,stim/objects/Instruments/metronome.png,0.5,2,0.2,0.15,right,2,2020-11-25_11h39.15.140,premup-three_ses-01_part-01_label-phase1,3.2.4,Win32,60,right,1.647000313,4,0,4,0,1,3,1,0,240,60,1,239,,,,,,,,,,,,,,,,,,
,,1,193,,,,,,,3,3,2,stim/32.jpeg,Instruments,2,stim/objects/Instruments/musicsheet2.png,0.9,4,0.2,-0.15,right,2,2020-11-25_11h39.15.140,premup-three_ses-01_part-01_label-phase1,3.2.4,Win32,60,right,0.54700017,4,0,4,0,1,3,1,0,240,177,1,239,,,,,,,,,,,,,,,,,,
,,0,194,,,,,,,2,1,3,stim/13.jpeg,Instruments,2,stim/objects/Instruments/record.png,0.7,2,0.2,0.15,right,2,2020-11-25_11h39.15.140,premup-three_ses-01_part-01_label-phase1,3.2.4,Win32,60,left,0.841000319,4,0,4,0,1,3,1,0,240,98,1,239,,,,,,,,,,,,,,,,,,
,,1,195,,,,,,,3,4,4,stim/44.jpeg,HouseObjects,1,stim/objects/HouseObjects/rug2.png,0.9,2,0.2,0.15,left,2,2020-11-25_11h39.15.140,premup-three_ses-01_part-01_label-phase1,3.2.4,Win32,60,left,0.615000248,4,0,4,0,1,3,1,0,240,227,1,239,,,,,,,,,,,,,,,,,,
,,0,196,,,,,,,2,1,4,stim/14.jpeg,Instruments,2,stim/objects/Instruments/record_player.png,0.7,4,0.2,-0.15,right,2,2020-11-25_11h39.15.140,premup-three_ses-01_part-01_label-phase1,3.2.4,Win32,60,left,1.046000004,4,0,4,0,1,3,1,0,240,119,1,239,,,,,,,,,,,,,,,,,,
,,1,197,,,,,,,1,5,4,stim/54.jpeg,HouseObjects,1,stim/objects/HouseObjects/knife.png,0.5,3,-0.2,-0.15,left,2,2020-11-25_11h39.15.140,premup-three_ses-01_part-01_label-phase1,3.2.4,Win32,60,left,0.612000227,4,0,4,0,1,3,1,0,240,15,1,239,,,,,,,,,,,,,,,,,,
,,1,198,,,,,,,2,2,1,stim/21.jpeg,HouseObjects,1,stim/objects/HouseObjects/iron2.png,0.7,3,-0.2,-0.15,left,2,2020-11-25_11h39.15.140,premup-three_ses-01_part-01_label-phase1,3.2.4,Win32,60,left,0.861000299,4,0,4,0,1,3,1,0,240,140,1,239,,,,,,,,,,,,,,,,,,
,,1,199,,,,,,,1,5,2,stim/52.jpeg,HouseObjects,1,stim/objects/HouseObjects/ironingboard.png,0.5,2,0.2,0.15,left,2,2020-11-25_11h39.15.140,premup-three_ses-01_part-01_label-phase1,3.2.4,Win32,60,left,0.840000153,4,0,4,0,1,3,1,0,240,17,1,239,,,,,,,,,,,,,,,,,,
,,1,200,,,,,,,3,3,3,stim/33.jpeg,Instruments,2,stim/objects/Instruments/musicstand2.png,0.9,1,-0.2,0.15,right,2,2020-11-25_11h39.15.140,premup-three_ses-01_part-01_label-phase1,3.2.4,Win32,60,right,0.754000187,4,0,4,0,1,3,1,0,240,194,1,239,,,,,,,,,,,,,,,,,,
,,1,201,,,,,,,3,4,4,stim/44.jpeg,HouseObjects,1,stim/objects/HouseObjects/rug2.png,0.9,2,0.2,0.15,left,2,2020-11-25_11h39.15.140,premup-three_ses-01_part-01_label-phase1,3.2.4,Win32,60,left,0.68200016,4,0,4,0,1,3,1,0,240,231,1,239,,,,,,,,,,,,,,,,,,
,,0,202,,,,,,,2,2,2,stim/22.jpeg,Instruments,2,stim/objects/Instruments/laud2.png,0.3,4,0.2,-0.15,right,2,2020-11-25_11h39.15.140,premup-three_ses-01_part-01_label-phase1,3.2.4,Win32,60,left,0.572000027,4,0,4,0,1,3,1,0,240,157,1,239,,,,,,,,,,,,,,,,,,
,,0,203,,,,,,,2,2,4,stim/24.jpeg,HouseObjects,1,stim/objects/HouseObjects/knife2.png,0.7,2,0.2,0.15,left,2,2020-11-25_11h39.15.140,premup-three_ses-01_part-01_label-phase1,3.2.4,Win32,60,right,0.69900012,4,0,4,0,1,3,1,0,240,131,1,239,,,,,,,,,,,,,,,,,,
,,1,204,,,,,,,3,4,1,stim/41.jpeg,HouseObjects,1,stim/objects/HouseObjects/recyclingbin2.png,0.9,3,-0.2,-0.15,left,2,2020-11-25_11h39.15.140,premup-three_ses-01_part-01_label-phase1,3.2.4,Win32,60,left,0.695000172,4,0,4,0,1,3,1,0,240,232,1,239,,,,,,,,,,,,,,,,,,
,,0,205,,,,,,,1,6,1,stim/61.jpeg,HouseObjects,1,stim/objects/HouseObjects/lintroller.png,0.5,2,0.2,0.15,left,2,2020-11-25_11h39.15.140,premup-three_ses-01_part-01_label-phase1,3.2.4,Win32,60,right,0.562000036,4,0,4,0,1,3,1,0,240,48,1,239,,,,,,,,,,,,,,,,,,
,,1,206,,,,,,,1,5,2,stim/52.jpeg,HouseObjects,1,stim/objects/HouseObjects/ironingboard.png,0.5,2,0.2,0.15,left,2,2020-11-25_11h39.15.140,premup-three_ses-01_part-01_label-phase1,3.2.4,Win32,60,left,0.57400012,4,0,4,0,1,3,1,0,240,9,1,239,,,,,,,,,,,,,,,,,,
,,0,207,,,,,,,3,3,1,stim/31.jpeg,Instruments,2,stim/objects/Instruments/metronome2.png,0.9,3,-0.2,-0.15,right,2,2020-11-25_11h39.15.140,premup-three_ses-01_part-01_label-phase1,3.2.4,Win32,60,left,0.60800004,4,0,4,0,1,3,1,0,240,188,1,239,,,,,,,,,,,,,,,,,,
,,0,208,,,,,,,2,2,1,stim/21.jpeg,Instruments,2,stim/objects/Instruments/keyboard2.png,0.3,4,0.2,-0.15,right,2,2020-11-25_11h39.15.140,premup-three_ses-01_part-01_label-phase1,3.2.4,Win32,60,left,0.552000284,4,0,4,0,1,3,1,0,240,152,1,239,,,,,,,,,,,,,,,,,,
,,0,209,,,,,,,2,1,1,stim/11.jpeg,HouseObjects,1,stim/objects/HouseObjects/recyclingbin.png,0.3,1,-0.2,0.15,left,2,2020-11-25_11h39.15.140,premup-three_ses-01_part-01_label-phase1,3.2.4,Win32,60,right,0.811000109,4,0,4,0,1,3,1,0,240,80,1,239,,,,,,,,,,,,,,,,,,
,,1,210,,,,,,,3,3,4,stim/34.jpeg,Instruments,2,stim/objects/Instruments/oboe2.png,0.9,2,0.2,0.15,right,2,2020-11-25_11h39.15.140,premup-three_ses-01_part-01_label-phase1,3.2.4,Win32,60,right,0.478000164,4,0,4,0,1,3,1,0,240,175,1,239,,,,,,,,,,,,,,,,,,
,,1,211,,,,,,,2,2,4,stim/24.jpeg,HouseObjects,1,stim/objects/HouseObjects/knife2.png,0.7,4,0.2,-0.15,left,2,2020-11-25_11h39.15.140,premup-three_ses-01_part-01_label-phase1,3.2.4,Win32,60,left,0.58100009,4,0,4,0,1,3,1,0,240,127,1,239,,,,,,,,,,,,,,,,,,
,,1,212,,,,,,,2,1,1,stim/11.jpeg,Instruments,2,stim/objects/Instruments/panflute.png,0.7,2,0.2,0.15,right,2,2020-11-25_11h39.15.140,premup-three_ses-01_part-01_label-phase1,3.2.4,Win32,60,right,0.478000164,4,0,4,0,1,3,1,0,240,112,1,239,,,,,,,,,,,,,,,,,,
,,0,213,,,,,,,2,2,1,stim/21.jpeg,HouseObjects,1,stim/objects/HouseObjects/iron2.png,0.7,1,-0.2,0.15,left,2,2020-11-25_11h39.15.140,premup-three_ses-01_part-01_label-phase1,3.2.4,Win32,60,right,0.907000303,4,0,4,0,1,3,1,0,240,132,1,239,,,,,,,,,,,,,,,,,,
,,0,214,,,,,,,2,1,1,stim/11.jpeg,HouseObjects,1,stim/objects/HouseObjects/recyclingbin.png,0.3,2,0.2,0.15,left,2,2020-11-25_11h39.15.140,premup-three_ses-01_part-01_label-phase1,3.2.4,Win32,60,right,0.738000154,4,0,4,0,1,3,1,0,240,88,1,239,,,,,,,,,,,,,,,,,,
,,0,215,,,,,,,3,4,4,stim/44.jpeg,Instruments,2,stim/objects/Instruments/record_player2.png,0.1,3,-0.2,-0.15,right,2,2020-11-25_11h39.15.140,premup-three_ses-01_part-01_label-phase1,3.2.4,Win32,60,left,0.615000248,4,0,4,0,1,3,1,0,240,239,1,239,,,,,,,,,,,,,,,,,,
,,1,216,,,,,,,2,1,1,stim/11.jpeg,Instruments,2,stim/objects/Instruments/panflute.png,0.7,1,-0.2,0.15,right,2,2020-11-25_11h39.15.140,premup-three_ses-01_part-01_label-phase1,3.2.4,Win32,60,right,0.773000002,4,0,4,0,1,3,1,0,240,92,1,239,,,,,,,,,,,,,,,,,,
,,0,217,,,,,,,1,5,3,stim/53.jpeg,Instruments,2,stim/objects/Instruments/maraca.png,0.5,3,-0.2,-0.15,right,2,2020-11-25_11h39.15.140,premup-three_ses-01_part-01_label-phase1,3.2.4,Win32,60,left,0.684000254,4,0,4,0,1,3,1,0,240,30,1,239,,,,,,,,,,,,,,,,,,
,,0,218,,,,,,,2,2,3,stim/23.jpeg,Instruments,2,stim/objects/Instruments/maraca2.png,0.3,1,-0.2,0.15,right,2,2020-11-25_11h39.15.140,premup-three_ses-01_part-01_label-phase1,3.2.4,Win32,60,left,0.612000227,4,0,4,0,1,3,1,0,240,150,1,239,,,,,,,,,,,,,,,,,,
,,1,219,,,,,,,3,3,4,stim/34.jpeg,Instruments,2,stim/objects/Instruments/oboe2.png,0.9,4,0.2,-0.15,right,2,2020-11-25_11h39.15.140,premup-three_ses-01_part-01_label-phase1,3.2.4,Win32,60,right,0.620000124,4,0,4,0,1,3,1,0,240,167,1,239,,,,,,,,,,,,,,,,,,
,,1,220,,,,,,,3,3,3,stim/33.jpeg,Instruments,2,stim/objects/Instruments/musicstand2.png,0.9,4,0.2,-0.15,right,2,2020-11-25_11h39.15.140,premup-three_ses-01_part-01_label-phase1,3.2.4,Win32,60,right,0.548000336,4,0,4,0,1,3,1,0,240,178,1,239,,,,,,,,,,,,,,,,,,
,,0,221,,,,,,,1,5,4,stim/54.jpeg,Instruments,2,stim/objects/Instruments/marimba.png,0.5,3,-0.2,-0.15,right,2,2020-11-25_11h39.15.140,premup-three_ses-01_part-01_label-phase1,3.2.4,Win32,60,left,0.619000196,4,0,4,0,1,3,1,0,240,39,1,239,,,,,,,,,,,,,,,,,,
,,0,222,,,,,,,2,2,1,stim/21.jpeg,Instruments,2,stim/objects/Instruments/keyboard2.png,0.3,2,0.2,0.15,right,2,2020-11-25_11h39.15.140,premup-three_ses-01_part-01_label-phase1,3.2.4,Win32,60,left,0.891000271,4,0,4,0,1,3,1,0,240,148,1,239,,,,,,,,,,,,,,,,,,
,,0,223,,,,,,,2,2,4,stim/24.jpeg,Instruments,2,stim/objects/Instruments/marimba2.png,0.3,2,0.2,0.15,right,2,2020-11-25_11h39.15.140,premup-three_ses-01_part-01_label-phase1,3.2.4,Win32,60,left,0.961000204,4,0,4,0,1,3,1,0,240,155,1,239,,,,,,,,,,,,,,,,,,
,,1,224,,,,,,,3,3,1,stim/31.jpeg,Instruments,2,stim/objects/Instruments/metronome2.png,0.9,4,0.2,-0.15,right,2,2020-11-25_11h39.15.140,premup-three_ses-01_part-01_label-phase1,3.2.4,Win32,60,right,0.994000196,4,0,4,0,1,3,1,0,240,168,1,239,,,,,,,,,,,,,,,,,,
,,0,225,,,,,,,1,5,3,stim/53.jpeg,HouseObjects,1,stim/objects/HouseObjects/key.png,0.5,4,0.2,-0.15,left,2,2020-11-25_11h39.15.140,premup-three_ses-01_part-01_label-phase1,3.2.4,Win32,60,right,0.674000025,4,0,4,0,1,3,1,0,240,6,1,239,,,,,,,,,,,,,,,,,,
,,1,226,,,,,,,1,5,4,stim/54.jpeg,HouseObjects,1,stim/objects/HouseObjects/knife.png,0.5,2,0.2,0.15,left,2,2020-11-25_11h39.15.140,premup-three_ses-01_part-01_label-phase1,3.2.4,Win32,60,left,0.629000187,4,0,4,0,1,3,1,0,240,7,1,239,,,,,,,,,,,,,,,,,,
,,1,227,,,,,,,2,1,3,stim/13.jpeg,Instruments,2,stim/objects/Instruments/record.png,0.7,4,0.2,-0.15,right,2,2020-11-25_11h39.15.140,premup-three_ses-01_part-01_label-phase1,3.2.4,Win32,60,right,0.843000174,4,0,4,0,1,3,1,0,240,106,1,239,,,,,,,,,,,,,,,,,,
,,1,228,,,,,,,3,4,1,stim/41.jpeg,HouseObjects,1,stim/objects/HouseObjects/recyclingbin2.png,0.9,1,-0.2,0.15,left,2,2020-11-25_11h39.15.140,premup-three_ses-01_part-01_label-phase1,3.2.4,Win32,60,left,0.608000278,4,0,4,0,1,3,1,0,240,228,1,239,,,,,,,,,,,,,,,,,,
,,1,229,,,,,,,2,2,3,stim/23.jpeg,HouseObjects,1,stim/objects/HouseObjects/key2.png,0.7,1,-0.2,0.15,left,2,2020-11-25_11h39.15.140,premup-three_ses-01_part-01_label-phase1,3.2.4,Win32,60,left,0.862000227,4,0,4,0,1,3,1,0,240,138,1,239,,,,,,,,,,,,,,,,,,
,,1,230,,,,,,,3,4,1,stim/41.jpeg,HouseObjects,1,stim/objects/HouseObjects/recyclingbin2.png,0.9,3,-0.2,-0.15,left,2,2020-11-25_11h39.15.140,premup-three_ses-01_part-01_label-phase1,3.2.4,Win32,60,left,0.538000107,4,0,4,0,1,3,1,0,240,204,1,239,,,,,,,,,,,,,,,,,,
,,1,231,,,,,,,3,3,4,stim/34.jpeg,Instruments,2,stim/objects/Instruments/oboe2.png,0.9,1,-0.2,0.15,right,2,2020-11-25_11h39.15.140,premup-three_ses-01_part-01_label-phase1,3.2.4,Win32,60,right,1.279000282,4,0,4,0,1,3,1,0,240,183,1,239,,,,,,,,,,,,,,,,,,
,,1,232,,,,,,,3,4,2,stim/42.jpeg,HouseObjects,1,stim/objects/HouseObjects/remote2.png,0.9,1,-0.2,0.15,left,2,2020-11-25_11h39.15.140,premup-three_ses-01_part-01_label-phase1,3.2.4,Win32,60,left,0.492000341,4,0,4,0,1,3,1,0,240,201,1,239,,,,,,,,,,,,,,,,,,
,,0,233,,,,,,,1,6,1,stim/61.jpeg,HouseObjects,1,stim/objects/HouseObjects/lintroller.png,0.5,4,0.2,-0.15,left,2,2020-11-25_11h39.15.140,premup-three_ses-01_part-01_label-phase1,3.2.4,Win32,60,right,0.601000309,4,0,4,0,1,3,1,0,240,44,1,239,,,,,,,,,,,,,,,,,,
,,0,234,,,,,,,1,5,2,stim/52.jpeg,Instruments,2,stim/objects/Instruments/laud.png,0.5,2,0.2,0.15,right,2,2020-11-25_11h39.15.140,premup-three_ses-01_part-01_label-phase1,3.2.4,Win32,60,left,0.64800024,4,0,4,0,1,3,1,0,240,21,1,239,,,,,,,,,,,,,,,,,,
,,1,235,,,,,,,3,4,3,stim/43.jpeg,HouseObjects,1,stim/objects/HouseObjects/rubbergloves2.png,0.9,4,0.2,-0.15,left,2,2020-11-25_11h39.15.140,premup-three_ses-01_part-01_label-phase1,3.2.4,Win32,60,left,0.751000166,4,0,4,0,1,3,1,0,240,222,1,239,,,,,,,,,,,,,,,,,,
,,1,236,,,,,,,2,1,4,stim/14.jpeg,Instruments,2,stim/objects/Instruments/record_player.png,0.7,2,0.2,0.15,right,2,2020-11-25_11h39.15.140,premup-three_ses-01_part-01_label-phase1,3.2.4,Win32,60,right,0.817000151,4,0,4,0,1,3,1,0,240,107,1,239,,,,,,,,,,,,,,,,,,
,,1,237,,,,,,,3,4,2,stim/42.jpeg,HouseObjects,1,stim/objects/HouseObjects/remote2.png,0.9,4,0.2,-0.15,left,2,2020-11-25_11h39.15.140,premup-three_ses-01_part-01_label-phase1,3.2.4,Win32,60,left,0.497000217,4,0,4,0,1,3,1,0,240,217,1,239,,,,,,,,,,,,,,,,,,
,,0,238,,,,,,,1,6,4,stim/64.jpeg,Instruments,2,stim/objects/Instruments/oboe.png,0.5,3,-0.2,-0.15,right,2,2020-11-25_11h39.15.140,premup-three_ses-01_part-01_label-phase1,3.2.4,Win32,60,left,0.685000181,4,0,4,0,1,3,1,0,240,63,1,239,,,,,,,,,,,,,,,,,,
,,0,239,,,,,,,3,3,2,stim/32.jpeg,HouseObjects,1,stim/objects/HouseObjects/match2.png,0.1,4,0.2,-0.15,left,2,2020-11-25_11h39.15.140,premup-three_ses-01_part-01_label-phase1,3.2.4,Win32,60,right,0.51300025,4,0,4,0,1,3,1,0,240,161,1,239,,,,,,,,,,,,,,,,,,
,,1,240,,,,,,,2,1,2,stim/12.jpeg,Instruments,2,stim/objects/Instruments/pipepiano.png,0.7,1,-0.2,0.15,right,2,2020-11-25_11h39.15.140,premup-three_ses-01_part-01_label-phase1,3.2.4,Win32,60,right,0.785000086,4,0,4,0,1,3,1,0,240,113,1,239,,,,,,,,,,,,,,,,,,
,,,,,,,,,,,2,,stim/21.jpeg,,,,,,,,,2,2020-11-25_11h39.15.140,premup-three_ses-01_part-01_label-phase1,3.2.4,Win32,60,,,4,0,4,0,1,3,,,,,,,1,0,90,10.4690001,,,1,0,6,1,1,5,Music items,45,55,Household items,45,55
,,,,,,,,,,,1,,stim/11.jpeg,,,,,,,,,2,2020-11-25_11h39.15.140,premup-three_ses-01_part-01_label-phase1,3.2.4,Win32,60,,,4,0,4,0,1,3,,,,,,,1,0,20,4.921000004,,,1,0,6,0,1,5,Household items,45,55,Music items,45,55
,,,,,,,,,,,4,,stim/41.jpeg,,,,,,,,,2,2020-11-25_11h39.15.140,premup-three_ses-01_part-01_label-phase1,3.2.4,Win32,60,,,4,0,4,0,1,3,,,,,,,1,0,100,3.473999977,,,1,0,6,3,1,5,Household items,65,75,Music items,25,35
,,,,,,,,,,,5,,stim/51.jpeg,,,,,,,,,2,2020-11-25_11h39.15.140,premup-three_ses-01_part-01_label-phase1,3.2.4,Win32,60,,,4,0,4,0,1,3,,,,,,,1,0,30,5.578999996,,,1,0,6,4,1,5,Music items,5,15,Household items,85,95
,,,,,,,,,,,3,,stim/31.jpeg,,,,,,,,,2,2020-11-25_11h39.15.140,premup-three_ses-01_part-01_label-phase1,3.2.4,Win32,60,,,4,0,4,0,1,3,,,,,,,1,0,100,3.700999975,,,1,0,6,2,1,5,Household items,65,75,Music items,25,35
,,,,,,,,,,,6,,stim/61.jpeg,,,,,,,,,2,2020-11-25_11h39.15.140,premup-three_ses-01_part-01_label-phase1,3.2.4,Win32,60,,,4,0,4,0,1,3,,,,,,,1,0,67,5.128999949,,,1,0,6,5,1,5,Household items,5,15,Music items,85,95
,,,,,,,,,,,,,,,,,,,,,,2,2020-11-25_11h39.15.140,premup-three_ses-01_part-01_label-phase1,3.2.4,Win32,60,,,4,0,4,0,1,3,,,,,,,,,,,,,,,,,,,,,,,,
,,1,1,,,,,,,3,3,4,stim/34.jpeg,Instruments,2,stim/objects/Instruments/oboe2.png,0.9,1,-0.2,0.15,right,2,2020-11-25_11h39.15.140,premup-three_ses-01_part-01_label-phase1,3.2.4,Win32,60,right,1.283000231,4,0,4,0,1,3,1,0,240,199,1,239,,,,,,,,,,,,,,,,,,
,,1,2,,,,,,,2,2,2,stim/22.jpeg,HouseObjects,1,stim/objects/HouseObjects/ironingboard2.png,0.7,1,-0.2,0.15,left,2,2020-11-25_11h39.15.140,premup-three_ses-01_part-01_label-phase1,3.2.4,Win32,60,left,0.631999969,4,0,4,0,1,3,1,0,240,133,1,239,,,,,,,,,,,,,,,,,,
,,1,3,,,,,,,1,6,1,stim/61.jpeg,Instruments,2,stim/objects/Instruments/metronome.png,0.5,3,-0.2,-0.15,right,2,2020-11-25_11h39.15.140,premup-three_ses-01_part-01_label-phase1,3.2.4,Win32,60,right,0.776000261,4,0,4,0,1,3,1,0,240,68,1,239,,,,,,,,,,,,,,,,,,
,,1,4,,,,,,,3,4,1,stim/41.jpeg,HouseObjects,1,stim/objects/HouseObjects/recyclingbin2.png,0.9,3,-0.2,-0.15,left,2,2020-11-25_11h39.15.140,premup-three_ses-01_part-01_label-phase1,3.2.4,Win32,60,left,0.525000334,4,0,4,0,1,3,1,0,240,232,1,239,,,,,,,,,,,,,,,,,,
,,0,5,,,,,,,1,5,4,stim/54.jpeg,HouseObjects,1,stim/objects/HouseObjects/knife.png,0.5,3,-0.2,-0.15,left,2,2020-11-25_11h39.15.140,premup-three_ses-01_part-01_label-phase1,3.2.4,Win32,60,right,0.6650002,4,0,4,0,1,3,1,0,240,15,1,239,,,,,,,,,,,,,,,,,,
,,1,6,,,,,,,3,3,4,stim/34.jpeg,Instruments,2,stim/objects/Instruments/oboe2.png,0.9,2,0.2,0.15,right,2,2020-11-25_11h39.15.140,premup-three_ses-01_part-01_label-phase1,3.2.4,Win32,60,right,0.508000135,4,0,4,0,1,3,1,0,240,187,1,239,,,,,,,,,,,,,,,,,,
,,1,7,,,,,,,3,4,3,stim/43.jpeg,HouseObjects,1,stim/objects/HouseObjects/rubbergloves2.png,0.9,4,0.2,-0.15,left,2,2020-11-25_11h39.15.140,premup-three_ses-01_part-01_label-phase1,3.2.4,Win32,60,left,0.702000141,4,0,4,0,1,3,1,0,240,222,1,239,,,,,,,,,,,,,,,,,,
,,0,8,,,,,,,1,6,2,stim/62.jpeg,Instruments,2,stim/objects/Instruments/musicsheet.png,0.5,1,-0.2,0.15,right,2,2020-11-25_11h39.15.140,premup-three_ses-01_part-01_label-phase1,3.2.4,Win32,60,left,0.955000162,4,0,4,0,1,3,1,0,240,69,1,239,,,,,,,,,,,,,,,,,,
,,1,9,,,,,,,3,3,4,stim/34.jpeg,Instruments,2,stim/objects/Instruments/oboe2.png,0.9,3,-0.2,-0.15,right,2,2020-11-25_11h39.15.140,premup-three_ses-01_part-01_label-phase1,3.2.4,Win32,60,right,0.806000233,4,0,4,0,1,3,1,0,240,191,1,239,,,,,,,,,,,,,,,,,,
,,1,10,,,,,,,2,2,4,stim/24.jpeg,HouseObjects,1,stim/objects/HouseObjects/knife2.png,0.7,3,-0.2,-0.15,left,2,2020-11-25_11h39.15.140,premup-three_ses-01_part-01_label-phase1,3.2.4,Win32,60,left,0.616000175,4,0,4,0,1,3,1,0,240,139,1,239,,,,,,,,,,,,,,,,,,
,,1,11,,,,,,,3,3,3,stim/33.jpeg,Instruments,2,stim/objects/Instruments/musicstand2.png,0.9,3,-0.2,-0.15,right,2,2020-11-25_11h39.15.140,premup-three_ses-01_part-01_label-phase1,3.2.4,Win32,60,right,0.526000023,4,0,4,0,1,3,1,0,240,186,1,239,,,,,,,,,,,,,,,,,,
,,0,12,,,,,,,1,5,4,stim/54.jpeg,HouseObjects,1,stim/objects/HouseObjects/knife.png,0.5,4,0.2,-0.15,left,2,2020-11-25_11h39.15.140,premup-three_ses-01_part-01_label-phase1,3.2.4,Win32,60,right,1.249000072,4,0,4,0,1,3,1,0,240,19,1,239,,,,,,,,,,,,,,,,,,
,,1,13,,,,,,,3,4,4,stim/44.jpeg,HouseObjects,1,stim/objects/HouseObjects/rug2.png,0.9,1,-0.2,0.15,left,2,2020-11-25_11h39.15.140,premup-three_ses-01_part-01_label-phase1,3.2.4,Win32,60,left,0.60400033,4,0,4,0,1,3,1,0,240,207,1,239,,,,,,,,,,,,,,,,,,
,,1,14,,,,,,,1,6,3,stim/63.jpeg,HouseObjects,1,stim/objects/HouseObjects/pan.png,0.5,1,-0.2,0.15,left,2,2020-11-25_11h39.15.140,premup-three_ses-01_part-01_label-phase1,3.2.4,Win32,60,left,0.72300005,4,0,4,0,1,3,1,0,240,58,1,239,,,,,,,,,,,,,,,,,,
,,0,15,,,,,,,1,5,1,stim/51.jpeg,Instruments,2,stim/objects/Instruments/keyboard.png,0.5,1,-0.2,0.15,right,2,2020-11-25_11h39.15.140,premup-three_ses-01_part-01_label-phase1,3.2.4,Win32,60,left,0.868000269,4,0,4,0,1,3,1,0,240,32,1,239,,,,,,,,,,,,,,,,,,
,,1,16,,,,,,,3,4,1,stim/41.jpeg,HouseObjects,1,stim/objects/HouseObjects/recyclingbin2.png,0.9,2,0.2,0.15,left,2,2020-11-25_11h39.15.140,premup-three_ses-01_part-01_label-phase1,3.2.4,Win32,60,left,0.541000128,4,0,4,0,1,3,1,0,240,216,1,239,,,,,,,,,,,,,,,,,,
,,1,17,,,,,,,1,5,3,stim/53.jpeg,Instruments,2,stim/objects/Instruments/maraca.png,0.5,2,0.2,0.15,right,2,2020-11-25_11h39.15.140,premup-three_ses-01_part-01_label-phase1,3.2.4,Win32,60,right,0.89800024,4,0,4,0,1,3,1,0,240,26,1,239,,,,,,,,,,,,,,,,,,
,,1,18,,,,,,,1,6,1,stim/61.jpeg,Instruments,2,stim/objects/Instruments/metronome.png,0.5,1,-0.2,0.15,right,2,2020-11-25_11h39.15.140,premup-three_ses-01_part-01_label-phase1,3.2.4,Win32,60,right,0.726999998,4,0,4,0,1,3,1,0,240,72,1,239,,,,,,,,,,,,,,,,,,
,,0,19,,,,,,,1,5,4,stim/54.jpeg,HouseObjects,1,stim/objects/HouseObjects/knife.png,0.5,4,0.2,-0.15,left,2,2020-11-25_11h39.15.140,premup-three_ses-01_part-01_label-phase1,3.2.4,Win32,60,right,1.032999992,4,0,4,0,1,3,1,0,240,3,1,239,,,,,,,,,,,,,,,,,,
,,1,20,,,,,,,1,5,2,stim/52.jpeg,HouseObjects,1,stim/objects/HouseObjects/ironingboard.png,0.5,2,0.2,0.15,left,2,2020-11-25_11h39.15.140,premup-three_ses-01_part-01_label-phase1,3.2.4,Win32,60,left,0.659000158,4,0,4,0,1,3,1,0,240,17,1,239,,,,,,,,,,,,,,,,,,
,,1,21,,,,,,,1,5,3,stim/53.jpeg,HouseObjects,1,stim/objects/HouseObjects/key.png,0.5,1,-0.2,0.15,left,2,2020-11-25_11h39.15.140,premup-three_ses-01_part-01_label-phase1,3.2.4,Win32,60,left,0.817000151,4,0,4,0,1,3,1,0,240,2,1,239,,,,,,,,,,,,,,,,,,
,,1,22,,,,,,,3,4,2,stim/42.jpeg,HouseObjects,1,stim/objects/HouseObjects/remote2.png,0.9,3,-0.2,-0.15,left,2,2020-11-25_11h39.15.140,premup-three_ses-01_part-01_label-phase1,3.2.4,Win32,60,left,0.726000071,4,0,4,0,1,3,1,0,240,205,1,239,,,,,,,,,,,,,,,,,,
,,0,23,,,,,,,3,4,2,stim/42.jpeg,Instruments,2,stim/objects/Instruments/pipepiano2.png,0.1,3,-0.2,-0.15,right,2,2020-11-25_11h39.15.140,premup-three_ses-01_part-01_label-phase1,3.2.4,Win32,60,left,0.450000286,4,0,4,0,1,3,1,0,240,237,1,239,,,,,,,,,,,,,,,,,,
,,1,24,,,,,,,3,4,2,stim/42.jpeg,HouseObjects,1,stim/objects/HouseObjects/remote2.png,0.9,1,-0.2,0.15,left,2,2020-11-25_11h39.15.140,premup-three_ses-01_part-01_label-phase1,3.2.4,Win32,60,left,0.552000284,4,0,4,0,1,3,1,0,240,201,1,239,,,,,,,,,,,,,,,,,,
,,1,25,,,,,,,3,3,3,stim/33.jpeg,Instruments,2,stim/objects/Instruments/musicstand2.png,0.9,2,0.2,0.15,right,2,2020-11-25_11h39.15.140,premup-three_ses-01_part-01_label-phase1,3.2.4,Win32,60,right,0.791000128,4,0,4,0,1,3,1,0,240,198,1,239,,,,,,,,,,,,,,,,,,
,,1,26,,,,,,,2,2,2,stim/22.jpeg,HouseObjects,1,stim/objects/HouseObjects/ironingboard2.png,0.7,3,-0.2,-0.15,left,2,2020-11-25_11h39.15.140,premup-three_ses-01_part-01_label-phase1,3.2.4,Win32,60,left,0.722000122,4,0,4,0,1,3,1,0,240,137,1,239,,,,,,,,,,,,,,,,,,
,,1,27,,,,,,,2,1,4,stim/14.jpeg,Instruments,2,stim/objects/Instruments/record_player.png,0.7,3,-0.2,-0.15,right,2,2020-11-25_11h39.15.140,premup-three_ses-01_part-01_label-phase1,3.2.4,Win32,60,right,1.002000093,4,0,4,0,1,3,1,0,240,95,1,239,,,,,,,,,,,,,,,,,,
,,0,28,,,,,,,1,6,1,stim/61.jpeg,HouseObjects,1,stim/objects/HouseObjects/lintroller.png,0.5,4,0.2,-0.15,left,2,2020-11-25_11h39.15.140,premup-three_ses-01_part-01_label-phase1,3.2.4,Win32,60,right,0.581000328,4,0,4,0,1,3,1,0,240,40,1,239,,,,,,,,,,,,,,,,,,
,,1,29,,,,,,,2,1,3,stim/13.jpeg,Instruments,2,stim/objects/Instruments/record.png,0.7,4,0.2,-0.15,right,2,2020-11-25_11h39.15.140,premup-three_ses-01_part-01_label-phase1,3.2.4,Win32,60,right,0.559000254,4,0,4,0,1,3,1,0,240,114,1,239,,,,,,,,,,,,,,,,,,
,,1,30,,,,,,,3,3,2,stim/32.jpeg,Instruments,2,stim/objects/Instruments/musicsheet2.png,0.9,1,-0.2,0.15,right,2,2020-11-25_11h39.15.140,premup-three_ses-01_part-01_label-phase1,3.2.4,Win32,60,right,0.583000183,4,0,4,0,1,3,1,0,240,185,1,239,,,,,,,,,,,,,,,,,,
,,0,31,,,,,,,1,5,4,stim/54.jpeg,Instruments,2,stim/objects/Instruments/marimba.png,0.5,3,-0.2,-0.15,right,2,2020-11-25_11h39.15.140,premup-three_ses-01_part-01_label-phase1,3.2.4,Win32,60,left,0.642000198,4,0,4,0,1,3,1,0,240,31,1,239,,,,,,,,,,,,,,,,,,
,,0,32,,,,,,,2,1,2,stim/12.jpeg,HouseObjects,1,stim/objects/HouseObjects/remote.png,0.3,2,0.2,0.15,left,2,2020-11-25_11h39.15.140,premup-three_ses-01_part-01_label-phase1,3.2.4,Win32,60,right,0.671000242,4,0,4,0,1,3,1,0,240,85,1,239,,,,,,,,,,,,,,,,,,
,,1,33,,,,,,,3,3,3,stim/33.jpeg,Instruments,2,stim/objects/Instruments/musicstand2.png,0.9,2,0.2,0.15,right,2,2020-11-25_11h39.15.140,premup-three_ses-01_part-01_label-phase1,3.2.4,Win32,60,right,0.481000185,4,0,4,0,1,3,1,0,240,174,1,239,,,,,,,,,,,,,,,,,,
,,1,34,,,,,,,2,2,1,stim/21.jpeg,HouseObjects,1,stim/objects/HouseObjects/iron2.png,0.7,3,-0.2,-0.15,left,2,2020-11-25_11h39.15.140,premup-three_ses-01_part-01_label-phase1,3.2.4,Win32,60,left,0.577000141,4,0,4,0,1,3,1,0,240,140,1,239,,,,,,,,,,,,,,,,,,
,,1,35,,,,,,,1,6,2,stim/62.jpeg,Instruments,2,stim/objects/Instruments/musicsheet.png,0.5,4,0.2,-0.15,right,2,2020-11-25_11h39.15.140,premup-three_ses-01_part-01_label-phase1,3.2.4,Win32,60,right,1.414000273,4,0,4,0,1,3,1,0,240,61,1,239,,,,,,,,,,,,,,,,,,
,,0,36,,,,,,,1,6,4,stim/64.jpeg,Instruments,2,stim/objects/Instruments/oboe.png,0.5,2,0.2,0.15,right,2,2020-11-25_11h39.15.140,premup-three_ses-01_part-01_label-phase1,3.2.4,Win32,60,left,1.012000322,4,0,4,0,1,3,1,0,240,67,1,239,,,,,,,,,,,,,,,,,,
,,1,37,,,,,,,3,3,4,stim/34.jpeg,Instruments,2,stim/objects/Instruments/oboe2.png,0.9,4,0.2,-0.15,right,2,2020-11-25_11h39.15.140,premup-three_ses-01_part-01_label-phase1,3.2.4,Win32,60,right,0.588999987,4,0,4,0,1,3,1,0,240,179,1,239,,,,,,,,,,,,,,,,,,
,,0,38,,,,,,,2,1,3,stim/13.jpeg,HouseObjects,1,stim/objects/HouseObjects/rubbergloves.png,0.3,4,0.2,-0.15,left,2,2020-11-25_11h39.15.140,premup-three_ses-01_part-01_label-phase1,3.2.4,Win32,60,right,0.643000126,4,0,4,0,1,3,1,0,240,86,1,239,,,,,,,,,,,,,,,,,,
,,0,39,,,,,,,3,3,1,stim/31.jpeg,HouseObjects,1,stim/objects/HouseObjects/lintroller2.png,0.1,4,0.2,-0.15,left,2,2020-11-25_11h39.15.140,premup-three_ses-01_part-01_label-phase1,3.2.4,Win32,60,right,0.58100009,4,0,4,0,1,3,1,0,240,160,1,239,,,,,,,,,,,,,,,,,,
,,1,40,,,,,,,3,4,2,stim/42.jpeg,HouseObjects,1,stim/objects/HouseObjects/remote2.png,0.9,3,-0.2,-0.15,left,2,2020-11-25_11h39.15.140,premup-three_ses-01_part-01_label-phase1,3.2.4,Win32,60,left,0.494000196,4,0,4,0,1,3,1,0,240,229,1,239,,,,,,,,,,,,,,,,,,
,,0,41,,,,,,,2,2,2,stim/22.jpeg,Instruments,2,stim/objects/Instruments/laud2.png,0.3,3,-0.2,-0.15,right,2,2020-11-25_11h39.15.140,premup-three_ses-01_part-01_label-phase1,3.2.4,Win32,60,left,0.622000217,4,0,4,0,1,3,1,0,240,153,1,239,,,,,,,,,,,,,,,,,,
,,0,42,,,,,,,2,1,3,stim/13.jpeg,HouseObjects,1,stim/objects/HouseObjects/rubbergloves.png,0.3,4,0.2,-0.15,left,2,2020-11-25_11h39.15.140,premup-three_ses-01_part-01_label-phase1,3.2.4,Win32,60,right,0.467000246,4,0,4,0,1,3,1,0,240,82,1,239,,,,,,,,,,,,,,,,,,
,,1,43,,,,,,,3,4,1,stim/41.jpeg,HouseObjects,1,stim/objects/HouseObjects/recyclingbin2.png,0.9,1,-0.2,0.15,left,2,2020-11-25_11h39.15.140,premup-three_ses-01_part-01_label-phase1,3.2.4,Win32,60,left,0.714000225,4,0,4,0,1,3,1,0,240,224,1,239,,,,,,,,,,,,,,,,,,
,,1,44,,,,,,,2,1,1,stim/11.jpeg,Instruments,2,stim/objects/Instruments/panflute.png,0.7,1,-0.2,0.15,right,2,2020-11-25_11h39.15.140,premup-three_ses-01_part-01_label-phase1,3.2.4,Win32,60,right,0.678000212,4,0,4,0,1,3,1,0,240,108,1,239,,,,,,,,,,,,,,,,,,
,,0,45,,,,,,,2,2,2,stim/22.jpeg,Instruments,2,stim/objects/Instruments/laud2.png,0.3,4,0.2,-0.15,right,2,2020-11-25_11h39.15.140,premup-three_ses-01_part-01_label-phase1,3.2.4,Win32,60,left,0.621000051,4,0,4,0,1,3,1,0,240,149,1,239,,,,,,,,,,,,,,,,,,
,,1,46,,,,,,,3,4,1,stim/41.jpeg,HouseObjects,1,stim/objects/HouseObjects/recyclingbin2.png,0.9,3,-0.2,-0.15,left,2,2020-11-25_11h39.15.140,premup-three_ses-01_part-01_label-phase1,3.2.4,Win32,60,left,0.493000031,4,0,4,0,1,3,1,0,240,212,1,239,,,,,,,,,,,,,,,,,,
,,0,47,,,,,,,1,5,3,stim/53.jpeg,Instruments,2,stim/objects/Instruments/maraca.png,0.5,3,-0.2,-0.15,right,2,2020-11-25_11h39.15.140,premup-three_ses-01_part-01_label-phase1,3.2.4,Win32,60,left,0.822000265,4,0,4,0,1,3,1,0,240,30,1,239,,,,,,,,,,,,,,,,,,
,,0,48,,,,,,,2,2,1,stim/21.jpeg,Instruments,2,stim/objects/Instruments/keyboard2.png,0.3,4,0.2,-0.15,right,2,2020-11-25_11h39.15.140,premup-three_ses-01_part-01_label-phase1,3.2.4,Win32,60,left,1.28000021,4,0,4,0,1,3,1,0,240,156,1,239,,,,,,,,,,,,,,,,,,
,,1,49,,,,,,,3,3,2,stim/32.jpeg,Instruments,2,stim/objects/Instruments/musicsheet2.png,0.9,4,0.2,-0.15,right,2,2020-11-25_11h39.15.140,premup-three_ses-01_part-01_label-phase1,3.2.4,Win32,60,right,0.599000216,4,0,4,0,1,3,1,0,240,177,1,239,,,,,,,,,,,,,,,,,,
,,1,50,,,,,,,3,3,3,stim/33.jpeg,Instruments,2,stim/objects/Instruments/musicstand2.png,0.9,1,-0.2,0.15,right,2,2020-11-25_11h39.15.140,premup-three_ses-01_part-01_label-phase1,3.2.4,Win32,60,right,0.923000336,4,0,4,0,1,3,1,0,240,170,1,239,,,,,,,,,,,,,,,,,,
,,1,51,,,,,,,1,6,1,stim/61.jpeg,Instruments,2,stim/objects/Instruments/metronome.png,0.5,2,0.2,0.15,right,2,2020-11-25_11h39.15.140,premup-three_ses-01_part-01_label-phase1,3.2.4,Win32,60,right,0.55700016,4,0,4,0,1,3,1,0,240,64,1,239,,,,,,,,,,,,,,,,,,
,,1,52,,,,,,,1,5,2,stim/52.jpeg,HouseObjects,1,stim/objects/HouseObjects/ironingboard.png,0.5,3,-0.2,-0.15,left,2,2020-11-25_11h39.15.140,premup-three_ses-01_part-01_label-phase1,3.2.4,Win32,60,left,0.470000267,4,0,4,0,1,3,1,0,240,5,1,239,,,,,,,,,,,,,,,,,,
,,0,53,,,,,,,2,1,4,stim/14.jpeg,HouseObjects,1,stim/objects/HouseObjects/rug.png,0.3,4,0.2,-0.15,left,2,2020-11-25_11h39.15.140,premup-three_ses-01_part-01_label-phase1,3.2.4,Win32,60,right,1.312000036,4,0,4,0,1,3,1,0,240,83,1,239,,,,,,,,,,,,,,,,,,
,,1,54,,,,,,,3,4,4,stim/44.jpeg,HouseObjects,1,stim/objects/HouseObjects/rug2.png,0.9,2,0.2,0.15,left,2,2020-11-25_11h39.15.140,premup-three_ses-01_part-01_label-phase1,3.2.4,Win32,60,left,0.664000273,4,0,4,0,1,3,1,0,240,219,1,239,,,,,,,,,,,,,,,,,,
,,1,55,,,,,,,2,1,2,stim/12.jpeg,Instruments,2,stim/objects/Instruments/pipepiano.png,0.7,3,-0.2,-0.15,right,2,2020-11-25_11h39.15.140,premup-three_ses-01_part-01_label-phase1,3.2.4,Win32,60,right,0.565000296,4,0,4,0,1,3,1,0,240,101,1,239,,,,,,,,,,,,,,,,,,
,,0,56,,,,,,,2,1,4,stim/14.jpeg,HouseObjects,1,stim/objects/HouseObjects/rug.png,0.3,2,0.2,0.15,left,2,2020-11-25_11h39.15.140,premup-three_ses-01_part-01_label-phase1,3.2.4,Win32,60,right,0.465000153,4,0,4,0,1,3,1,0,240,87,1,239,,,,,,,,,,,,,,,,,,
,,0,57,,,,,,,1,5,4,stim/54.jpeg,Instruments,2,stim/objects/Instruments/marimba.png,0.5,2,0.2,0.15,right,2,2020-11-25_11h39.15.140,premup-three_ses-01_part-01_label-phase1,3.2.4,Win32,60,left,1.21200037,4,0,4,0,1,3,1,0,240,23,1,239,,,,,,,,,,,,,,,,,,
,,0,58,,,,,,,1,6,4,stim/64.jpeg,Instruments,2,stim/objects/Instruments/oboe.png,0.5,3,-0.2,-0.15,right,2,2020-11-25_11h39.15.140,premup-three_ses-01_part-01_label-phase1,3.2.4,Win32,60,left,0.908000231,4,0,4,0,1,3,1,0,240,79,1,239,,,,,,,,,,,,,,,,,,
,,0,59,,,,,,,1,6,2,stim/62.jpeg,HouseObjects,1,stim/objects/HouseObjects/match.png,0.5,1,-0.2,0.15,left,2,2020-11-25_11h39.15.140,premup-three_ses-01_part-01_label-phase1,3.2.4,Win32,60,right,1.156000137,4,0,4,0,1,3,1,0,240,49,1,239,,,,,,,,,,,,,,,,,,
,,0,60,,,,,,,1,6,4,stim/64.jpeg,HouseObjects,1,stim/objects/HouseObjects/pitcher.png,0.5,3,-0.2,-0.15,left,2,2020-11-25_11h39.15.140,premup-three_ses-01_part-01_label-phase1,3.2.4,Win32,60,right,0.755000353,4,0,4,0,1,3,1,0,240,47,1,239,,,,,,,,,,,,,,,,,,
,,1,61,,,,,,,2,1,2,stim/12.jpeg,Instruments,2,stim/objects/Instruments/pipepiano.png,0.7,1,-0.2,0.15,right,2,2020-11-25_11h39.15.140,premup-three_ses-01_part-01_label-phase1,3.2.4,Win32,60,right,1.061000347,4,0,4,0,1,3,1,0,240,113,1,239,,,,,,,,,,,,,,,,,,
,,0,62,,,,,,,1,5,3,stim/53.jpeg,Instruments,2,stim/objects/Instruments/maraca.png,0.5,3,-0.2,-0.15,right,2,2020-11-25_11h39.15.140,premup-three_ses-01_part-01_label-phase1,3.2.4,Win32,60,left,1.015000343,4,0,4,0,1,3,1,0,240,22,1,239,,,,,,,,,,,,,,,,,,
,,0,63,,,,,,,1,6,1,stim/61.jpeg,HouseObjects,1,stim/objects/HouseObjects/lintroller.png,0.5,4,0.2,-0.15,left,2,2020-11-25_11h39.15.140,premup-three_ses-01_part-01_label-phase1,3.2.4,Win32,60,right,0.953999996,4,0,4,0,1,3,1,0,240,44,1,239,,,,,,,,,,,,,,,,,,
,,1,64,,,,,,,2,2,3,stim/23.jpeg,HouseObjects,1,stim/objects/HouseObjects/key2.png,0.7,3,-0.2,-0.15,left,2,2020-11-25_11h39.15.140,premup-three_ses-01_part-01_label-phase1,3.2.4,Win32,60,left,0.882000208,4,0,4,0,1,3,1,0,240,142,1,239,,,,,,,,,,,,,,,,,,
,,0,65,,,,,,,1,6,4,stim/64.jpeg,HouseObjects,1,stim/objects/HouseObjects/pitcher.png,0.5,1,-0.2,0.15,left,2,2020-11-25_11h39.15.140,premup-three_ses-01_part-01_label-phase1,3.2.4,Win32,60,right,1.184000254,4,0,4,0,1,3,1,0,240,55,1,239,,,,,,,,,,,,,,,,,,
,,1,66,,,,,,,3,4,2,stim/42.jpeg,HouseObjects,1,stim/objects/HouseObjects/remote2.png,0.9,2,0.2,0.15,left,2,2020-11-25_11h39.15.140,premup-three_ses-01_part-01_label-phase1,3.2.4,Win32,60,left,0.637000084,4,0,4,0,1,3,1,0,240,213,1,239,,,,,,,,,,,,,,,,,,
,,1,67,,,,,,,3,4,2,stim/42.jpeg,HouseObjects,1,stim/objects/HouseObjects/remote2.png,0.9,1,-0.2,0.15,left,2,2020-11-25_11h39.15.140,premup-three_ses-01_part-01_label-phase1,3.2.4,Win32,60,left,0.602000237,4,0,4,0,1,3,1,0,240,233,1,239,,,,,,,,,,,,,,,,,,
,,1,68,,,,,,,1,6,1,stim/61.jpeg,Instruments,2,stim/objects/Instruments/metronome.png,0.5,3,-0.2,-0.15,right,2,2020-11-25_11h39.15.140,premup-three_ses-01_part-01_label-phase1,3.2.4,Win32,60,right,0.669000149,4,0,4,0,1,3,1,0,240,76,1,239,,,,,,,,,,,,,,,,,,
,,1,69,,,,,,,2,1,1,stim/11.jpeg,Instruments,2,stim/objects/Instruments/panflute.png,0.7,3,-0.2,-0.15,right,2,2020-11-25_11h39.15.140,premup-three_ses-01_part-01_label-phase1,3.2.4,Win32,60,right,0.874000311,4,0,4,0,1,3,1,0,240,104,1,239,,,,,,,,,,,,,,,,,,
,,0,70,,,,,,,1,6,1,stim/61.jpeg,HouseObjects,1,stim/objects/HouseObjects/lintroller.png,0.5,2,0.2,0.15,left,2,2020-11-25_11h39.15.140,premup-three_ses-01_part-01_label-phase1,3.2.4,Win32,60,right,0.86500001,4,0,4,0,1,3,1,0,240,48,1,239,,,,,,,,,,,,,,,,,,
,,1,71,,,,,,,1,6,4,stim/64.jpeg,HouseObjects,1,stim/objects/HouseObjects/pitcher.png,0.5,3,-0.2,-0.15,left,2,2020-11-25_11h39.15.140,premup-three_ses-01_part-01_label-phase1,3.2.4,Win32,60,left,0.912000179,4,0,4,0,1,3,1,0,240,43,1,239,,,,,,,,,,,,,,,,,,
,,1,72,,,,,,,3,3,2,stim/32.jpeg,Instruments,2,stim/objects/Instruments/musicsheet2.png,0.9,4,0.2,-0.15,right,2,2020-11-25_11h39.15.140,premup-three_ses-01_part-01_label-phase1,3.2.4,Win32,60,right,0.535000086,4,0,4,0,1,3,1,0,240,197,1,239,,,,,,,,,,,,,,,,,,
,,1,73,,,,,,,3,3,4,stim/34.jpeg,Instruments,2,stim/objects/Instruments/oboe2.png,0.9,4,0.2,-0.15,right,2,2020-11-25_11h39.15.140,premup-three_ses-01_part-01_label-phase1,3.2.4,Win32,60,right,0.561000109,4,0,4,0,1,3,1,0,240,167,1,239,,,,,,,,,,,,,,,,,,
,,0,74,,,,,,,2,2,3,stim/23.jpeg,Instruments,2,stim/objects/Instruments/maraca2.png,0.3,1,-0.2,0.15,right,2,2020-11-25_11h39.15.140,premup-three_ses-01_part-01_label-phase1,3.2.4,Win32,60,left,0.577000141,4,0,4,0,1,3,1,0,240,158,1,239,,,,,,,,,,,,,,,,,,
,,1,75,,,,,,,2,1,2,stim/12.jpeg,Instruments,2,stim/objects/Instruments/pipepiano.png,0.7,3,-0.2,-0.15,right,2,2020-11-25_11h39.15.140,premup-three_ses-01_part-01_label-phase1,3.2.4,Win32,60,right,1.022000074,4,0,4,0,1,3,1,0,240,97,1,239,,,,,,,,,,,,,,,,,,
,,1,76,,,,,,,3,3,4,stim/34.jpeg,Instruments,2,stim/objects/Instruments/oboe2.png,0.9,1,-0.2,0.15,right,2,2020-11-25_11h39.15.140,premup-three_ses-01_part-01_label-phase1,3.2.4,Win32,60,right,0.637000084,4,0,4,0,1,3,1,0,240,183,1,239,,,,,,,,,,,,,,,,,,
,,0,77,,,,,,,2,2,4,stim/24.jpeg,Instruments,2,stim/objects/Instruments/marimba2.png,0.3,3,-0.2,-0.15,right,2,2020-11-25_11h39.15.140,premup-three_ses-01_part-01_label-phase1,3.2.4,Win32,60,left,0.651000023,4,0,4,0,1,3,1,0,240,151,1,239,,,,,,,,,,,,,,,,,,
,,0,78,,,,,,,1,5,3,stim/53.jpeg,HouseObjects,1,stim/objects/HouseObjects/key.png,0.5,2,0.2,0.15,left,2,2020-11-25_11h39.15.140,premup-three_ses-01_part-01_label-phase1,3.2.4,Win32,60,right,0.664000273,4,0,4,0,1,3,1,0,240,14,1,239,,,,,,,,,,,,,,,,,,
,,1,79,,,,,,,3,3,1,stim/31.jpeg,Instruments,2,stim/objects/Instruments/metronome2.png,0.9,1,-0.2,0.15,right,2,2020-11-25_11h39.15.140,premup-three_ses-01_part-01_label-phase1,3.2.4,Win32,60,right,0.544000149,4,0,4,0,1,3,1,0,240,164,1,239,,,,,,,,,,,,,,,,,,
,,1,80,,,,,,,2,2,2,stim/22.jpeg,HouseObjects,1,stim/objects/HouseObjects/ironingboard2.png,0.7,4,0.2,-0.15,left,2,2020-11-25_11h39.15.140,premup-three_ses-01_part-01_label-phase1,3.2.4,Win32,60,left,0.643000126,4,0,4,0,1,3,1,0,240,141,1,239,,,,,,,,,,,,,,,,,,
,,0,81,,,,,,,1,6,1,stim/61.jpeg,HouseObjects,1,stim/objects/HouseObjects/lintroller.png,0.5,1,-0.2,0.15,left,2,2020-11-25_11h39.15.140,premup-three_ses-01_part-01_label-phase1,3.2.4,Win32,60,right,0.616000175,4,0,4,0,1,3,1,0,240,56,1,239,,,,,,,,,,,,,,,,,,
,,1,82,,,,,,,2,2,3,stim/23.jpeg,HouseObjects,1,stim/objects/HouseObjects/key2.png,0.7,4,0.2,-0.15,left,2,2020-11-25_11h39.15.140,premup-three_ses-01_part-01_label-phase1,3.2.4,Win32,60,left,0.607000113,4,0,4,0,1,3,1,0,240,122,1,239,,,,,,,,,,,,,,,,,,
,,0,83,,,,,,,2,1,4,stim/14.jpeg,Instruments,2,stim/objects/Instruments/record_player.png,0.7,4,0.2,-0.15,right,2,2020-11-25_11h39.15.140,premup-three_ses-01_part-01_label-phase1,3.2.4,Win32,60,left,0.562000036,4,0,4,0,1,3,1,0,240,115,1,239,,,,,,,,,,,,,,,,,,
,,1,84,,,,,,,2,2,3,stim/23.jpeg,HouseObjects,1,stim/objects/HouseObjects/key2.png,0.7,3,-0.2,-0.15,left,2,2020-11-25_11h39.15.140,premup-three_ses-01_part-01_label-phase1,3.2.4,Win32,60,left,0.477000237,4,0,4,0,1,3,1,0,240,130,1,239,,,,,,,,,,,,,,,,,,
,,1,85,,,,,,,1,5,3,stim/53.jpeg,Instruments,2,stim/objects/Instruments/maraca.png,0.5,2,0.2,0.15,right,2,2020-11-25_11h39.15.140,premup-three_ses-01_part-01_label-phase1,3.2.4,Win32,60,right,0.588999987,4,0,4,0,1,3,1,0,240,34,1,239,,,,,,,,,,,,,,,,,,
,,1,86,,,,,,,2,1,2,stim/12.jpeg,Instruments,2,stim/objects/Instruments/pipepiano.png,0.7,2,0.2,0.15,right,2,2020-11-25_11h39.15.140,premup-three_ses-01_part-01_label-phase1,3.2.4,Win32,60,right,0.65500021,4,0,4,0,1,3,1,0,240,105,1,239,,,,,,,,,,,,,,,,,,
,,0,87,,,,,,,1,5,3,stim/53.jpeg,Instruments,2,stim/objects/Instruments/maraca.png,0.5,4,0.2,-0.15,right,2,2020-11-25_11h39.15.140,premup-three_ses-01_part-01_label-phase1,3.2.4,Win32,60,left,0.589000225,4,0,4,0,1,3,1,0,240,38,1,239,,,,,,,,,,,,,,,,,,
,,0,88,,,,,,,1,5,1,stim/51.jpeg,Instruments,2,stim/objects/Instruments/keyboard.png,0.5,1,-0.2,0.15,right,2,2020-11-25_11h39.15.140,premup-three_ses-01_part-01_label-phase1,3.2.4,Win32,60,left,0.421000242,4,0,4,0,1,3,1,0,240,24,1,239,,,,,,,,,,,,,,,,,,
,,1,89,,,,,,,1,6,2,stim/62.jpeg,HouseObjects,1,stim/objects/HouseObjects/match.png,0.5,4,0.2,-0.15,left,2,2020-11-25_11h39.15.140,premup-three_ses-01_part-01_label-phase1,3.2.4,Win32,60,left,0.726999998,4,0,4,0,1,3,1,0,240,45,1,239,,,,,,,,,,,,,,,,,,
,,1,90,,,,,,,3,4,1,stim/41.jpeg,HouseObjects,1,stim/objects/HouseObjects/recyclingbin2.png,0.9,3,-0.2,-0.15,left,2,2020-11-25_11h39.15.140,premup-three_ses-01_part-01_label-phase1,3.2.4,Win32,60,left,0.599000216,4,0,4,0,1,3,1,0,240,204,1,239,,,,,,,,,,,,,,,,,,
,,1,91,,,,,,,2,2,2,stim/22.jpeg,HouseObjects,1,stim/objects/HouseObjects/ironingboard2.png,0.7,3,-0.2,-0.15,left,2,2020-11-25_11h39.15.140,premup-three_ses-01_part-01_label-phase1,3.2.4,Win32,60,left,0.558000326,4,0,4,0,1,3,1,0,240,129,1,239,,,,,,,,,,,,,,,,,,
,,1,92,,,,,,,1,5,1,stim/51.jpeg,Instruments,2,stim/objects/Instruments/keyboard.png,0.5,4,0.2,-0.15,right,2,2020-11-25_11h39.15.140,premup-three_ses-01_part-01_label-phase1,3.2.4,Win32,60,right,0.868000269,4,0,4,0,1,3,1,0,240,28,1,239,,,,,,,,,,,,,,,,,,
,,0,93,,,,,,,1,6,1,stim/61.jpeg,HouseObjects,1,stim/objects/HouseObjects/lintroller.png,0.5,2,0.2,0.15,left,2,2020-11-25_11h39.15.140,premup-three_ses-01_part-01_label-phase1,3.2.4,Win32,60,right,0.590000153,4,0,4,0,1,3,1,0,240,52,1,239,,,,,,,,,,,,,,,,,,
,,1,94,,,,,,,2,2,4,stim/24.jpeg,HouseObjects,1,stim/objects/HouseObjects/knife2.png,0.7,3,-0.2,-0.15,left,2,2020-11-25_11h39.15.140,premup-three_ses-01_part-01_label-phase1,3.2.4,Win32,60,left,0.675000191,4,0,4,0,1,3,1,0,240,143,1,239,,,,,,,,,,,,,,,,,,
,,1,95,,,,,,,3,4,1,stim/41.jpeg,HouseObjects,1,stim/objects/HouseObjects/recyclingbin2.png,0.9,1,-0.2,0.15,left,2,2020-11-25_11h39.15.140,premup-three_ses-01_part-01_label-phase1,3.2.4,Win32,60,left,0.514000177,4,0,4,0,1,3,1,0,240,220,1,239,,,,,,,,,,,,,,,,,,
,,1,96,,,,,,,2,2,1,stim/21.jpeg,Instruments,2,stim/objects/Instruments/keyboard2.png,0.3,4,0.2,-0.15,right,2,2020-11-25_11h39.15.140,premup-three_ses-01_part-01_label-phase1,3.2.4,Win32,60,right,0.82400012,4,0,4,0,1,3,1,0,240,152,1,239,,,,,,,,,,,,,,,,,,
,,0,97,,,,,,,3,4,4,stim/44.jpeg,HouseObjects,1,stim/objects/HouseObjects/rug2.png,0.9,4,0.2,-0.15,left,2,2020-11-25_11h39.15.140,premup-three_ses-01_part-01_label-phase1,3.2.4,Win32,60,right,0.538000107,4,0,4,0,1,3,1,0,240,235,1,239,,,,,,,,,,,,,,,,,,
,,1,98,,,,,,,3,4,2,stim/42.jpeg,HouseObjects,1,stim/objects/HouseObjects/remote2.png,0.9,3,-0.2,-0.15,left,2,2020-11-25_11h39.15.140,premup-three_ses-01_part-01_label-phase1,3.2.4,Win32,60,left,0.504000187,4,0,4,0,1,3,1,0,240,221,1,239,,,,,,,,,,,,,,,,,,
,,0,99,,,,,,,3,3,2,stim/32.jpeg,HouseObjects,1,stim/objects/HouseObjects/match2.png,0.1,4,0.2,-0.15,left,2,2020-11-25_11h39.15.140,premup-three_ses-01_part-01_label-phase1,3.2.4,Win32,60,right,0.532000065,4,0,4,0,1,3,1,0,240,161,1,239,,,,,,,,,,,,,,,,,,
,,0,100,,,,,,,2,2,1,stim/21.jpeg,HouseObjects,1,stim/objects/HouseObjects/iron2.png,0.7,2,0.2,0.15,left,2,2020-11-25_11h39.15.140,premup-three_ses-01_part-01_label-phase1,3.2.4,Win32,60,right,1.028000116,4,0,4,0,1,3,1,0,240,144,1,239,,,,,,,,,,,,,,,,,,
,,0,101,,,,,,,1,6,3,stim/63.jpeg,Instruments,2,stim/objects/Instruments/musicstand.png,0.5,1,-0.2,0.15,right,2,2020-11-25_11h39.15.140,premup-three_ses-01_part-01_label-phase1,3.2.4,Win32,60,left,0.656000137,4,0,4,0,1,3,1,0,240,74,1,239,,,,,,,,,,,,,,,,,,
,,1,102,,,,,,,2,1,2,stim/12.jpeg,Instruments,2,stim/objects/Instruments/pipepiano.png,0.7,2,0.2,0.15,right,2,2020-11-25_11h39.15.140,premup-three_ses-01_part-01_label-phase1,3.2.4,Win32,60,right,0.885000229,4,0,4,0,1,3,1,0,240,109,1,239,,,,,,,,,,,,,,,,,,
,,1,103,,,,,,,2,1,1,stim/11.jpeg,Instruments,2,stim/objects/Instruments/panflute.png,0.7,3,-0.2,-0.15,right,2,2020-11-25_11h39.15.140,premup-three_ses-01_part-01_label-phase1,3.2.4,Win32,60,right,1.06400013,4,0,4,0,1,3,1,0,240,116,1,239,,,,,,,,,,,,,,,,,,
,,0,104,,,,,,,1,6,3,stim/63.jpeg,Instruments,2,stim/objects/Instruments/musicstand.png,0.5,1,-0.2,0.15,right,2,2020-11-25_11h39.15.140,premup-three_ses-01_part-01_label-phase1,3.2.4,Win32,60,left,0.62100029,4,0,4,0,1,3,1,0,240,66,1,239,,,,,,,,,,,,,,,,,,
,,0,105,,,,,,,2,2,1,stim/21.jpeg,HouseObjects,1,stim/objects/HouseObjects/iron2.png,0.7,1,-0.2,0.15,left,2,2020-11-25_11h39.15.140,premup-three_ses-01_part-01_label-phase1,3.2.4,Win32,60,right,1.192000151,4,0,4,0,1,3,1,0,240,132,1,239,,,,,,,,,,,,,,,,,,
,,1,106,,,,,,,3,3,2,stim/32.jpeg,Instruments,2,stim/objects/Instruments/musicsheet2.png,0.9,4,0.2,-0.15,right,2,2020-11-25_11h39.15.140,premup-three_ses-01_part-01_label-phase1,3.2.4,Win32,60,right,0.497000217,4,0,4,0,1,3,1,0,240,189,1,239,,,,,,,,,,,,,,,,,,
,,0,107,,,,,,,2,1,4,stim/14.jpeg,Instruments,2,stim/objects/Instruments/record_player.png,0.7,4,0.2,-0.15,right,2,2020-11-25_11h39.15.140,premup-three_ses-01_part-01_label-phase1,3.2.4,Win32,60,left,0.842000008,4,0,4,0,1,3,1,0,240,119,1,239,,,,,,,,,,,,,,,,,,
,,0,108,,,,,,,1,5,2,stim/52.jpeg,Instruments,2,stim/objects/Instruments/laud.png,0.5,4,0.2,-0.15,right,2,2020-11-25_11h39.15.140,premup-three_ses-01_part-01_label-phase1,3.2.4,Win32,60,left,0.59400034,4,0,4,0,1,3,1,0,240,37,1,239,,,,,,,,,,,,,,,,,,
,,1,109,,,,,,,1,6,1,stim/61.jpeg,Instruments,2,stim/objects/Instruments/metronome.png,0.5,2,0.2,0.15,right,2,2020-11-25_11h39.15.140,premup-three_ses-01_part-01_label-phase1,3.2.4,Win32,60,right,0.805999994,4,0,4,0,1,3,1,0,240,60,1,239,,,,,,,,,,,,,,,,,,
,,1,110,,,,,,,1,5,2,stim/52.jpeg,HouseObjects,1,stim/objects/HouseObjects/ironingboard.png,0.5,1,-0.2,0.15,left,2,2020-11-25_11h39.15.140,premup-three_ses-01_part-01_label-phase1,3.2.4,Win32,60,left,0.632000208,4,0,4,0,1,3,1,0,240,13,1,239,,,,,,,,,,,,,,,,,,
,,1,111,,,,,,,1,6,3,stim/63.jpeg,HouseObjects,1,stim/objects/HouseObjects/pan.png,0.5,1,-0.2,0.15,left,2,2020-11-25_11h39.15.140,premup-three_ses-01_part-01_label-phase1,3.2.4,Win32,60,left,0.711000204,4,0,4,0,1,3,1,0,240,42,1,239,,,,,,,,,,,,,,,,,,
,,1,112,,,,,,,2,1,2,stim/12.jpeg,Instruments,2,stim/objects/Instruments/pipepiano.png,0.7,1,-0.2,0.15,right,2,2020-11-25_11h39.15.140,premup-three_ses-01_part-01_label-phase1,3.2.4,Win32,60,right,0.744000196,4,0,4,0,1,3,1,0,240,117,1,239,,,,,,,,,,,,,,,,,,
,,1,113,,,,,,,1,5,1,stim/51.jpeg,Instruments,2,stim/objects/Instruments/keyboard.png,0.5,4,0.2,-0.15,right,2,2020-11-25_11h39.15.140,premup-three_ses-01_part-01_label-phase1,3.2.4,Win32,60,right,1.13499999,4,0,4,0,1,3,1,0,240,20,1,239,,,,,,,,,,,,,,,,,,
,,1,114,,,,,,,3,4,3,stim/43.jpeg,HouseObjects,1,stim/objects/HouseObjects/rubbergloves2.png,0.9,1,-0.2,0.15,left,2,2020-11-25_11h39.15.140,premup-three_ses-01_part-01_label-phase1,3.2.4,Win32,60,left,0.538000107,4,0,4,0,1,3,1,0,240,234,1,239,,,,,,,,,,,,,,,,,,
,,1,115,,,,,,,3,3,2,stim/32.jpeg,Instruments,2,stim/objects/Instruments/musicsheet2.png,0.9,3,-0.2,-0.15,right,2,2020-11-25_11h39.15.140,premup-three_ses-01_part-01_label-phase1,3.2.4,Win32,60,right,0.558000088,4,0,4,0,1,3,1,0,240,193,1,239,,,,,,,,,,,,,,,,,,
,,0,116,,,,,,,2,2,3,stim/23.jpeg,Instruments,2,stim/objects/Instruments/maraca2.png,0.3,2,0.2,0.15,right,2,2020-11-25_11h39.15.140,premup-three_ses-01_part-01_label-phase1,3.2.4,Win32,60,left,0.570000172,4,0,4,0,1,3,1,0,240,154,1,239,,,,,,,,,,,,,,,,,,
,,1,117,,,,,,,3,4,4,stim/44.jpeg,HouseObjects,1,stim/objects/HouseObjects/rug2.png,0.9,4,0.2,-0.15,left,2,2020-11-25_11h39.15.140,premup-three_ses-01_part-01_label-phase1,3.2.4,Win32,60,left,0.55700016,4,0,4,0,1,3,1,0,240,223,1,239,,,,,,,,,,,,,,,,,,
,,0,118,,,,,,,1,5,2,stim/52.jpeg,HouseObjects,1,stim/objects/HouseObjects/ironingboard.png,0.5,2,0.2,0.15,left,2,2020-11-25_11h39.15.140,premup-three_ses-01_part-01_label-phase1,3.2.4,Win32,60,right,0.743999958,4,0,4,0,1,3,1,0,240,9,1,239,,,,,,,,,,,,,,,,,,
,,1,119,,,,,,,3,3,3,stim/33.jpeg,Instruments,2,stim/objects/Instruments/musicstand2.png,0.9,1,-0.2,0.15,right,2,2020-11-25_11h39.15.140,premup-three_ses-01_part-01_label-phase1,3.2.4,Win32,60,right,0.548000097,4,0,4,0,1,3,1,0,240,194,1,239,,,,,,,,,,,,,,,,,,
,,1,120,,,,,,,2,1,1,stim/11.jpeg,Instruments,2,stim/objects/Instruments/panflute.png,0.7,2,0.2,0.15,right,2,2020-11-25_11h39.15.140,premup-three_ses-01_part-01_label-phase1,3.2.4,Win32,60,right,0.750000238,4,0,4,0,1,3,1,0,240,96,1,239,,,,,,,,,,,,,,,,,,
,,1,121,,,,,,,3,4,3,stim/43.jpeg,HouseObjects,1,stim/objects/HouseObjects/rubbergloves2.png,0.9,2,0.2,0.15,left,2,2020-11-25_11h39.15.140,premup-three_ses-01_part-01_label-phase1,3.2.4,Win32,60,left,0.651000261,4,0,4,0,1,3,1,0,240,218,1,239,,,,,,,,,,,,,,,,,,
,,1,122,,,,,,,3,3,3,stim/33.jpeg,Instruments,2,stim/objects/Instruments/musicstand2.png,0.9,2,0.2,0.15,right,2,2020-11-25_11h39.15.140,premup-three_ses-01_part-01_label-phase1,3.2.4,Win32,60,right,0.659000158,4,0,4,0,1,3,1,0,240,182,1,239,,,,,,,,,,,,,,,,,,
,,1,123,,,,,,,3,3,2,stim/32.jpeg,Instruments,2,stim/objects/Instruments/musicsheet2.png,0.9,4,0.2,-0.15,right,2,2020-11-25_11h39.15.140,premup-three_ses-01_part-01_label-phase1,3.2.4,Win32,60,right,0.528000116,4,0,4,0,1,3,1,0,240,165,1,239,,,,,,,,,,,,,,,,,,
,,1,124,,,,,,,2,2,3,stim/23.jpeg,HouseObjects,1,stim/objects/HouseObjects/key2.png,0.7,1,-0.2,0.15,left,2,2020-11-25_11h39.15.140,premup-three_ses-01_part-01_label-phase1,3.2.4,Win32,60,left,0.616000175,4,0,4,0,1,3,1,0,240,126,1,239,,,,,,,,,,,,,,,,,,
,,1,125,,,,,,,2,2,3,stim/23.jpeg,HouseObjects,1,stim/objects/HouseObjects/key2.png,0.7,2,0.2,0.15,left,2,2020-11-25_11h39.15.140,premup-three_ses-01_part-01_label-phase1,3.2.4,Win32,60,left,0.904000044,4,0,4,0,1,3,1,0,240,146,1,239,,,,,,,,,,,,,,,,,,
,,0,126,,,,,,,2,1,1,stim/11.jpeg,HouseObjects,1,stim/objects/HouseObjects/recyclingbin.png,0.3,4,0.2,-0.15,left,2,2020-11-25_11h39.15.140,premup-three_ses-01_part-01_label-phase1,3.2.4,Win32,60,right,0.755000114,4,0,4,0,1,3,1,0,240,84,1,239,,,,,,,,,,,,,,,,,,
,,1,127,,,,,,,3,4,3,stim/43.jpeg,HouseObjects,1,stim/objects/HouseObjects/rubbergloves2.png,0.9,1,-0.2,0.15,left,2,2020-11-25_11h39.15.140,premup-three_ses-01_part-01_label-phase1,3.2.4,Win32,60,left,0.528000116,4,0,4,0,1,3,1,0,240,210,1,239,,,,,,,,,,,,,,,,,,
,,1,128,,,,,,,3,4,4,stim/44.jpeg,HouseObjects,1,stim/objects/HouseObjects/rug2.png,0.9,4,0.2,-0.15,left,2,2020-11-25_11h39.15.140,premup-three_ses-01_part-01_label-phase1,3.2.4,Win32,60,left,0.634000063,4,0,4,0,1,3,1,0,240,215,1,239,,,,,,,,,,,,,,,,,,
,,1,129,,,,,,,1,6,4,stim/64.jpeg,Instruments,2,stim/objects/Instruments/oboe.png,0.5,1,-0.2,0.15,right,2,2020-11-25_11h39.15.140,premup-three_ses-01_part-01_label-phase1,3.2.4,Win32,60,right,0.749000072,4,0,4,0,1,3,1,0,240,71,1,239,,,,,,,,,,,,,,,,,,
,,1,130,,,,,,,2,1,1,stim/11.jpeg,Instruments,2,stim/objects/Instruments/panflute.png,0.7,1,-0.2,0.15,right,2,2020-11-25_11h39.15.140,premup-three_ses-01_part-01_label-phase1,3.2.4,Win32,60,right,0.63100028,4,0,4,0,1,3,1,0,240,92,1,239,,,,,,,,,,,,,,,,,,
,,1,131,,,,,,,3,3,4,stim/34.jpeg,Instruments,2,stim/objects/Instruments/oboe2.png,0.9,2,0.2,0.15,right,2,2020-11-25_11h39.15.140,premup-three_ses-01_part-01_label-phase1,3.2.4,Win32,60,right,0.526000261,4,0,4,0,1,3,1,0,240,171,1,239,,,,,,,,,,,,,,,,,,
,,1,132,,,,,,,1,5,3,stim/53.jpeg,HouseObjects,1,stim/objects/HouseObjects/key.png,0.5,3,-0.2,-0.15,left,2,2020-11-25_11h39.15.140,premup-three_ses-01_part-01_label-phase1,3.2.4,Win32,60,left,1.045000076,4,0,4,0,1,3,1,0,240,10,1,239,,,,,,,,,,,,,,,,,,
,,0,133,,,,,,,2,2,1,stim/21.jpeg,HouseObjects,1,stim/objects/HouseObjects/iron2.png,0.7,2,0.2,0.15,left,2,2020-11-25_11h39.15.140,premup-three_ses-01_part-01_label-phase1,3.2.4,Win32,60,right,0.900000334,4,0,4,0,1,3,1,0,240,128,1,239,,,,,,,,,,,,,,,,,,
,,1,134,,,,,,,2,1,3,stim/13.jpeg,HouseObjects,1,stim/objects/HouseObjects/rubbergloves.png,0.3,1,-0.2,0.15,left,2,2020-11-25_11h39.15.140,premup-three_ses-01_part-01_label-phase1,3.2.4,Win32,60,left,0.809000254,4,0,4,0,1,3,1,0,240,90,1,239,,,,,,,,,,,,,,,,,,
,,0,135,,,,,,,1,6,3,stim/63.jpeg,Instruments,2,stim/objects/Instruments/musicstand.png,0.5,4,0.2,-0.15,right,2,2020-11-25_11h39.15.140,premup-three_ses-01_part-01_label-phase1,3.2.4,Win32,60,left,0.618000031,4,0,4,0,1,3,1,0,240,62,1,239,,,,,,,,,,,,,,,,,,
