id_acc,key_resp_id.keys,key_resp_id.rt,key_resp_conf.keys,key_resp_conf.rt,assoc_acc,key_resp_assoc.keys,key_resp_assoc.rt,loc_acc,key_resp_loc.keys,key_resp_loc.rt,task_innerloop.thisRepN,task_innerloop.thisTrialN,task_innerloop.thisN,task_innerloop.thisIndex,task_innerloop.ran,task_innerloop.order,context_type,object_cat,PE_level,OvsN,obj_file,scn_file,corr_scn_cat,assoc_file,corr_scn_inst,corr_loc,participant,date,expName,psychopyVersion,OS,frameRate
1,left,2.749000311,4,2.650000095,0,2,9.177000046,0,1,2.493000031,1,0,200,35,1,199,2,2,0.7,1,stim/objects/Instruments/drums2.png,stim/33.jpeg,3,stim/3.png,3,1,30,2020-12-10_14h12.49.112,premup-three_ses-02_part-03_label-phase3,3.2.4,Win32,60
1,right,2.164000273,,,0,,,0,,,1,0,200,173,1,199,0,2,0,2,stim/objects/Instruments/vuvuzela3.png,,0,stim/0.png,0,0,30,2020-12-10_14h12.49.112,premup-three_ses-02_part-03_label-phase3,3.2.4,Win32,60
1,left,3.4150002,,,0,,,0,,,1,0,200,111,1,199,0,2,0,2,stim/objects/Instruments/electricdrumset3.png,,0,stim/0.png,0,0,30,2020-12-10_14h12.49.112,premup-three_ses-02_part-03_label-phase3,3.2.4,Win32,60
1,left,4.721000195,2,7.026000261,0,2,5.938000202,0,3,2.83100009,1,0,200,58,1,199,2,2,0.3,1,stim/objects/Instruments/laud2.png,stim/42.jpeg,4,stim/4.png,2,3,30,2020-12-10_14h12.49.112,premup-three_ses-02_part-03_label-phase3,3.2.4,Win32,60
1,left,2.014000177,3,2.518000126,0,1,6.998000145,0,4,2.082000256,1,0,200,14,1,199,1,2,0.5,1,stim/objects/HouseObjects/teapot.png,stim/21.jpeg,2,stim/2.png,1,4,30,2020-12-10_14h12.49.112,premup-three_ses-02_part-03_label-phase3,3.2.4,Win32,60
1,right,3.315999985,3,5.639000177,0,1,6.6650002,0,2,2.770000219,1,0,200,13,1,199,1,2,0.5,1,stim/objects/HouseObjects/spraybottle.png,stim/24.jpeg,2,stim/2.png,4,3,30,2020-12-10_14h12.49.112,premup-three_ses-02_part-03_label-phase3,3.2.4,Win32,60
1,left,4.957000256,,,0,,,0,,,1,0,200,190,1,199,0,2,0,2,stim/objects/Instruments/frenchhorn4.png,,0,stim/0.png,0,0,30,2020-12-10_14h12.49.112,premup-three_ses-02_part-03_label-phase3,3.2.4,Win32,60
1,right,4.106000185,,,0,,,0,,,1,0,200,105,1,199,0,1,0,2,stim/objects/HouseObjects/flyswatter3.png,,0,stim/0.png,0,0,30,2020-12-10_14h12.49.112,premup-three_ses-02_part-03_label-phase3,3.2.4,Win32,60
1,right,3.675000191,,,0,,,0,,,1,0,200,163,1,199,0,1,0,2,stim/objects/HouseObjects/vacuumcleaner3.png,,0,stim/0.png,0,0,30,2020-12-10_14h12.49.112,premup-three_ses-02_part-03_label-phase3,3.2.4,Win32,60
1,right,2.360000134,,,0,,,0,,,1,0,200,183,1,199,0,1,0,2,stim/objects/HouseObjects/glassmop4.png,,0,stim/0.png,0,0,30,2020-12-10_14h12.49.112,premup-three_ses-02_part-03_label-phase3,3.2.4,Win32,60
1,right,3.396000147,2,6.588000298,0,4,6.045000076,0,2,3.321000099,1,0,200,75,1,199,3,2,0.9,1,stim/objects/Instruments/panflute2.png,stim/54.jpeg,5,stim/5.png,4,3,30,2020-12-10_14h12.49.112,premup-three_ses-02_part-03_label-phase3,3.2.4,Win32,60
1,left,2.410000086,,,0,,,0,,,1,0,200,134,1,199,0,2,0,2,stim/objects/Instruments/maraca3.png,,0,stim/0.png,0,0,30,2020-12-10_14h12.49.112,premup-three_ses-02_part-03_label-phase3,3.2.4,Win32,60
1,left,1.910000086,2,3.935000181,0,3,4.407000303,0,2,2.34100008,1,0,200,44,1,199,2,1,0.7,1,stim/objects/HouseObjects/hairdryer2.png,stim/44.jpeg,4,stim/4.png,4,3,30,2020-12-10_14h12.49.112,premup-three_ses-02_part-03_label-phase3,3.2.4,Win32,60
1,right,1.82400012,,,0,,,0,,,1,0,200,188,1,199,0,1,0,2,stim/objects/HouseObjects/ironingboard4.png,,0,stim/0.png,0,0,30,2020-12-10_14h12.49.112,premup-three_ses-02_part-03_label-phase3,3.2.4,Win32,60
1,right,1.754000187,1,4.269999981,0,2,4.553000212,0,2,2.389000177,1,0,200,50,1,199,2,2,0.3,1,stim/objects/Instruments/frenchhorn2.png,stim/42.jpeg,4,stim/4.png,2,1,30,2020-12-10_14h12.49.112,premup-three_ses-02_part-03_label-phase3,3.2.4,Win32,60
1,left,2.643000126,3,2.042000055,0,2,6.952000141,0,1,2.419000149,1,0,200,6,1,199,1,1,0.5,1,stim/objects/Instruments/pipepiano.png,stim/13.jpeg,1,stim/1.png,3,2,30,2020-12-10_14h12.49.112,premup-three_ses-02_part-03_label-phase3,3.2.4,Win32,60
1,right,2.154000282,2,3.912000179,0,4,3.733999968,0,2,2.070000172,1,0,200,96,1,199,3,2,0.1,1,stim/objects/Instruments/tuba2.png,stim/61.jpeg,6,stim/6.png,1,2,30,2020-12-10_14h12.49.112,premup-three_ses-02_part-03_label-phase3,3.2.4,Win32,60
1,right,2.144000292,,,0,,,0,,,1,0,200,141,1,199,0,1,0,2,stim/objects/HouseObjects/remote3.png,,0,stim/0.png,0,0,30,2020-12-10_14h12.49.112,premup-three_ses-02_part-03_label-phase3,3.2.4,Win32,60
1,right,1.670000315,,,0,,,0,,,1,0,200,103,1,199,0,1,0,2,stim/objects/HouseObjects/doormat3.png,,0,stim/0.png,0,0,30,2020-12-10_14h12.49.112,premup-three_ses-02_part-03_label-phase3,3.2.4,Win32,60
1,left,1.808000088,3,2.143000126,0,2,5.756000042,0,4,2.526000261,1,0,200,40,1,199,2,1,0.7,1,stim/objects/HouseObjects/flyswatter2.png,stim/44.jpeg,4,stim/4.png,4,1,30,2020-12-10_14h12.49.112,premup-three_ses-02_part-03_label-phase3,3.2.4,Win32,60
1,left,2.044000149,3,2.027000189,0,1,7.117000341,0,3,1.82400012,1,0,200,5,1,199,1,1,0.5,1,stim/objects/Instruments/panflute.png,stim/12.jpeg,1,stim/1.png,2,1,30,2020-12-10_14h12.49.112,premup-three_ses-02_part-03_label-phase3,3.2.4,Win32,60
1,left,2.333000183,2,2.028000116,0,3,4.968000174,0,1,1.367000103,1,0,200,64,1,199,3,1,0.1,1,stim/objects/HouseObjects/pitcher2.png,stim/51.jpeg,5,stim/5.png,1,1,30,2020-12-10_14h12.49.112,premup-three_ses-02_part-03_label-phase3,3.2.4,Win32,60
1,right,1.416000128,,,0,,,0,,,1,0,200,160,1,199,0,1,0,2,stim/objects/HouseObjects/thermometer3.png,,0,stim/0.png,0,0,30,2020-12-10_14h12.49.112,premup-three_ses-02_part-03_label-phase3,3.2.4,Win32,60
1,right,2.094000101,1,2.95600009,0,4,4.265000105,0,2,3.748000145,1,0,200,94,1,199,3,2,0.1,1,stim/objects/Instruments/trombone2.png,stim/63.jpeg,6,stim/6.png,3,4,30,2020-12-10_14h12.49.112,premup-three_ses-02_part-03_label-phase3,3.2.4,Win32,60
1,right,1.990000248,,,0,,,0,,,1,0,200,113,1,199,0,2,0,2,stim/objects/Instruments/flute3.png,,0,stim/0.png,0,0,30,2020-12-10_14h12.49.112,premup-three_ses-02_part-03_label-phase3,3.2.4,Win32,60
1,right,1.588000059,,,0,,,0,,,1,0,200,174,1,199,0,2,0,2,stim/objects/Instruments/xylophone3.png,,0,stim/0.png,0,0,30,2020-12-10_14h12.49.112,premup-three_ses-02_part-03_label-phase3,3.2.4,Win32,60
1,left,1.565000296,3,1.944000006,0,1,4.366000175,0,1,2.680999994,1,0,200,1,1,199,1,1,0.5,1,stim/objects/HouseObjects/remote.png,stim/14.jpeg,1,stim/1.png,4,1,30,2020-12-10_14h12.49.112,premup-three_ses-02_part-03_label-phase3,3.2.4,Win32,60
1,right,1.715000153,,,0,,,0,,,1,0,200,116,1,199,0,2,0,2,stim/objects/Instruments/gong3.png,,0,stim/0.png,0,0,30,2020-12-10_14h12.49.112,premup-three_ses-02_part-03_label-phase3,3.2.4,Win32,60
1,left,1.973000288,2,2.022000313,0,2,4.072000265,0,2,4.878000021,1,0,200,17,1,199,1,2,0.5,1,stim/objects/Instruments/timbal.png,stim/22.jpeg,2,stim/2.png,2,2,30,2020-12-10_14h12.49.112,premup-three_ses-02_part-03_label-phase3,3.2.4,Win32,60
1,right,1.613000154,,,0,,,0,,,1,0,200,187,1,199,0,1,0,2,stim/objects/HouseObjects/iron4.png,,0,stim/0.png,0,0,30,2020-12-10_14h12.49.112,premup-three_ses-02_part-03_label-phase3,3.2.4,Win32,60
1,right,1.838999987,,,0,,,0,,,1,0,200,199,1,199,0,2,0,2,stim/objects/Instruments/maraca4.png,,0,stim/0.png,0,0,30,2020-12-10_14h12.49.112,premup-three_ses-02_part-03_label-phase3,3.2.4,Win32,60
1,left,1.34800005,3,1.607000113,0,1,3.386000156,0,2,2.985000372,1,0,200,19,1,199,1,2,0.5,1,stim/objects/Instruments/trombone.png,stim/24.jpeg,2,stim/2.png,4,1,30,2020-12-10_14h12.49.112,premup-three_ses-02_part-03_label-phase3,3.2.4,Win32,60
1,left,1.554000139,,,0,,,0,,,1,0,200,144,1,199,0,1,0,2,stim/objects/HouseObjects/safetypin3.png,,0,stim/0.png,0,0,30,2020-12-10_14h12.49.112,premup-three_ses-02_part-03_label-phase3,3.2.4,Win32,60
1,right,2.394000053,,,0,,,0,,,1,0,200,181,1,199,0,1,0,2,stim/objects/HouseObjects/garbagebin4.png,,0,stim/0.png,0,0,30,2020-12-10_14h12.49.112,premup-three_ses-02_part-03_label-phase3,3.2.4,Win32,60
1,left,1.18900013,4,1.911000252,0,1,3.122000217,0,4,2.126000166,1,0,200,0,1,199,1,1,0.5,1,stim/objects/HouseObjects/recyclingbin.png,stim/13.jpeg,1,stim/1.png,3,4,30,2020-12-10_14h12.49.112,premup-three_ses-02_part-03_label-phase3,3.2.4,Win32,60
1,right,1.860000134,,,0,,,0,,,1,0,200,177,1,199,0,2,0,2,stim/objects/Instruments/electricguitar4.png,,0,stim/0.png,0,0,30,2020-12-10_14h12.49.112,premup-three_ses-02_part-03_label-phase3,3.2.4,Win32,60
1,left,1.375000238,,,0,,,0,,,1,0,200,159,1,199,0,2,0,2,stim/objects/Instruments/trombone3.png,,0,stim/0.png,0,0,30,2020-12-10_14h12.49.112,premup-three_ses-02_part-03_label-phase3,3.2.4,Win32,60
1,right,1.848000288,2,2.259000063,0,2,6.133000135,0,4,2.419000149,1,0,200,32,1,199,2,2,0.7,1,stim/objects/Instruments/violin.png,stim/34.jpeg,3,stim/3.png,4,4,30,2020-12-10_14h12.49.112,premup-three_ses-02_part-03_label-phase3,3.2.4,Win32,60
1,left,1.80700016,3,1.508000135,0,3,7.299000263,0,2,2.537000179,1,0,200,62,1,199,3,1,0.1,1,stim/objects/HouseObjects/match2.png,stim/53.jpeg,5,stim/5.png,3,3,30,2020-12-10_14h12.49.112,premup-three_ses-02_part-03_label-phase3,3.2.4,Win32,60
1,right,1.258000135,2,1.626000166,0,4,4.111000061,0,1,2.935000181,1,0,200,63,1,199,3,1,0.1,1,stim/objects/HouseObjects/pan2.png,stim/54.jpeg,5,stim/5.png,4,3,30,2020-12-10_14h12.49.112,premup-three_ses-02_part-03_label-phase3,3.2.4,Win32,60
1,left,1.406000137,3,1.612000227,0,1,5.203000069,0,1,2.146000147,1,0,200,95,1,199,3,2,0.1,1,stim/objects/Instruments/trumpet2.png,stim/64.jpeg,6,stim/6.png,4,4,30,2020-12-10_14h12.49.112,premup-three_ses-02_part-03_label-phase3,3.2.4,Win32,60
1,left,1.319000006,3,1.567000389,0,1,3.38100028,0,4,2.195000172,1,0,200,30,1,199,2,2,0.7,1,stim/objects/Instruments/trumpet.png,stim/32.jpeg,3,stim/3.png,2,2,30,2020-12-10_14h12.49.112,premup-three_ses-02_part-03_label-phase3,3.2.4,Win32,60
1,left,1.45600009,,,0,,,0,,,1,0,200,158,1,199,0,2,0,2,stim/objects/Instruments/triangle3.png,,0,stim/0.png,0,0,30,2020-12-10_14h12.49.112,premup-three_ses-02_part-03_label-phase3,3.2.4,Win32,60
1,left,1.467000246,3,3.037000179,0,4,5.205000162,0,3,2.37100029,1,0,200,53,1,199,2,2,0.3,1,stim/objects/Instruments/guitarcase2.png,stim/41.jpeg,4,stim/4.png,1,4,30,2020-12-10_14h12.49.112,premup-three_ses-02_part-03_label-phase3,3.2.4,Win32,60
1,right,2.210000038,2,1.980000257,0,2,6.034000158,0,1,1.502000093,1,0,200,28,1,199,2,1,0.3,1,stim/objects/HouseObjects/doormat2.png,stim/31.jpeg,3,stim/3.png,1,3,30,2020-12-10_14h12.49.112,premup-three_ses-02_part-03_label-phase3,3.2.4,Win32,60
1,right,1.411000013,1,1.938000202,0,1,3.984000206,0,3,5.258000135,1,0,200,65,1,199,3,1,0.1,1,stim/objects/HouseObjects/recyclingbin2.png,stim/52.jpeg,5,stim/5.png,2,3,30,2020-12-10_14h12.49.112,premup-three_ses-02_part-03_label-phase3,3.2.4,Win32,60
1,right,1.317000151,,,0,,,0,,,1,0,200,129,1,199,0,1,0,2,stim/objects/HouseObjects/pitcher3.png,,0,stim/0.png,0,0,30,2020-12-10_14h12.49.112,premup-three_ses-02_part-03_label-phase3,3.2.4,Win32,60
1,right,1.532000303,,,0,,,0,,,1,0,200,138,1,199,0,2,0,2,stim/objects/Instruments/musicstand3.png,,0,stim/0.png,0,0,30,2020-12-10_14h12.49.112,premup-three_ses-02_part-03_label-phase3,3.2.4,Win32,60
1,right,1.810000181,,,0,,,0,,,1,0,200,125,1,199,0,1,0,2,stim/objects/HouseObjects/knife3.png,,0,stim/0.png,0,0,30,2020-12-10_14h12.49.112,premup-three_ses-02_part-03_label-phase3,3.2.4,Win32,60
1,right,2.243000031,,,0,,,0,,,1,0,200,178,1,199,0,2,0,2,stim/objects/Instruments/flute4.png,,0,stim/0.png,0,0,30,2020-12-10_14h12.49.112,premup-three_ses-02_part-03_label-phase3,3.2.4,Win32,60
1,right,2.38800025,,,0,,,0,,,1,0,200,175,1,199,0,2,0,2,stim/objects/Instruments/drums4.png,,0,stim/0.png,0,0,30,2020-12-10_14h12.49.112,premup-three_ses-02_part-03_label-phase3,3.2.4,Win32,60
1,left,1.288000345,,,0,,,0,,,1,0,200,128,1,199,0,1,0,2,stim/objects/HouseObjects/pan3.png,,0,stim/0.png,0,0,30,2020-12-10_14h12.49.112,premup-three_ses-02_part-03_label-phase3,3.2.4,Win32,60
1,left,2.759000063,3,1.78000021,0,3,3.983000278,0,3,2.55700016,1,0,200,97,1,199,3,2,0.1,1,stim/objects/Instruments/violin2.png,stim/62.jpeg,6,stim/6.png,2,4,30,2020-12-10_14h12.49.112,premup-three_ses-02_part-03_label-phase3,3.2.4,Win32,60
1,left,2.114000082,2,2.008000135,0,4,3.069000244,0,1,1.758000135,1,0,200,34,1,199,2,2,0.7,1,stim/objects/Instruments/xylophone.png,stim/32.jpeg,3,stim/3.png,2,2,30,2020-12-10_14h12.49.112,premup-three_ses-02_part-03_label-phase3,3.2.4,Win32,60
1,left,1.791000128,2,1.564000368,0,4,5.999000311,0,4,2.542000055,1,0,200,70,1,199,3,2,0.9,1,stim/objects/Instruments/marimba2.png,stim/53.jpeg,5,stim/5.png,3,1,30,2020-12-10_14h12.49.112,premup-three_ses-02_part-03_label-phase3,3.2.4,Win32,60
1,right,1.338000298,,,0,,,0,,,1,0,200,118,1,199,0,2,0,2,stim/objects/Instruments/guitarcase3.png,,0,stim/0.png,0,0,30,2020-12-10_14h12.49.112,premup-three_ses-02_part-03_label-phase3,3.2.4,Win32,60
1,left,1.323000193,4,2.702000141,0,4,5.261000156,0,2,1.887000084,1,0,200,18,1,199,1,2,0.5,1,stim/objects/Instruments/triangle.png,stim/23.jpeg,2,stim/2.png,3,2,30,2020-12-10_14h12.49.112,premup-three_ses-02_part-03_label-phase3,3.2.4,Win32,60
1,left,1.576000214,,,0,,,0,,,1,0,200,179,1,199,0,2,0,2,stim/objects/Instruments/flutetrans4.png,,0,stim/0.png,0,0,30,2020-12-10_14h12.49.112,premup-three_ses-02_part-03_label-phase3,3.2.4,Win32,60
1,left,1.579000235,3,1.625000238,0,4,5.022000313,0,4,2.137000084,1,0,200,51,1,199,2,2,0.3,1,stim/objects/Instruments/gong2.png,stim/43.jpeg,4,stim/4.png,3,4,30,2020-12-10_14h12.49.112,premup-three_ses-02_part-03_label-phase3,3.2.4,Win32,60
1,right,1.565000296,,,0,,,0,,,1,0,200,182,1,199,0,1,0,2,stim/objects/HouseObjects/glass4.png,,0,stim/0.png,0,0,30,2020-12-10_14h12.49.112,premup-three_ses-02_part-03_label-phase3,3.2.4,Win32,60
1,left,2.240000248,1,2.799999952,0,1,2.729000092,0,1,5.346000195,1,0,200,80,1,199,3,1,0.9,1,stim/objects/HouseObjects/saw2.png,stim/61.jpeg,6,stim/6.png,1,1,30,2020-12-10_14h12.49.112,premup-three_ses-02_part-03_label-phase3,3.2.4,Win32,60
1,left,2.194000244,3,1.565000057,0,1,5.947000027,0,4,5.578999996,1,0,200,73,1,199,3,2,0.9,1,stim/objects/Instruments/musicstand2.png,stim/52.jpeg,5,stim/5.png,2,4,30,2020-12-10_14h12.49.112,premup-three_ses-02_part-03_label-phase3,3.2.4,Win32,60
1,left,1.644000053,3,1.386000156,0,2,2.163000107,0,2,1.684000254,1,0,200,48,1,199,2,1,0.7,1,stim/objects/HouseObjects/ironingboard2.png,stim/44.jpeg,4,stim/4.png,4,1,30,2020-12-10_14h12.49.112,premup-three_ses-02_part-03_label-phase3,3.2.4,Win32,60
1,right,1.494000196,,,0,,,0,,,1,0,200,151,1,199,0,2,0,2,stim/objects/Instruments/pipepiano3.png,,0,stim/0.png,0,0,30,2020-12-10_14h12.49.112,premup-three_ses-02_part-03_label-phase3,3.2.4,Win32,60
1,right,1.440000057,1,1.924000263,0,2,2.63100028,0,1,1.911000013,1,0,200,99,1,199,3,2,0.1,1,stim/objects/Instruments/xylophone2.png,stim/64.jpeg,6,stim/6.png,4,4,30,2020-12-10_14h12.49.112,premup-three_ses-02_part-03_label-phase3,3.2.4,Win32,60
1,left,1.285000086,4,1.53000021,0,4,4.13100028,0,3,2.747000217,1,0,200,69,1,199,3,1,0.1,1,stim/objects/HouseObjects/safetypin2.png,stim/52.jpeg,5,stim/5.png,2,4,30,2020-12-10_14h12.49.112,premup-three_ses-02_part-03_label-phase3,3.2.4,Win32,60
1,left,1.53000021,3,1.597000122,0,2,2.767000198,0,2,1.761000156,1,0,200,36,1,199,2,2,0.7,1,stim/objects/Instruments/electricdrumset2.png,stim/34.jpeg,3,stim/3.png,4,1,30,2020-12-10_14h12.49.112,premup-three_ses-02_part-03_label-phase3,3.2.4,Win32,60
1,left,1.738000154,,,0,,,0,,,1,0,200,139,1,199,0,2,0,2,stim/objects/Instruments/oboe3.png,,0,stim/0.png,0,0,30,2020-12-10_14h12.49.112,premup-three_ses-02_part-03_label-phase3,3.2.4,Win32,60
1,right,2.234000206,,,0,,,0,,,1,0,200,161,1,199,0,1,0,2,stim/objects/HouseObjects/thread3.png,,0,stim/0.png,0,0,30,2020-12-10_14h12.49.112,premup-three_ses-02_part-03_label-phase3,3.2.4,Win32,60
1,left,1.263999939,4,1.77300024,0,1,3.296000242,0,1,1.796000242,1,0,200,15,1,199,1,2,0.5,1,stim/objects/Instruments/speaker.png,stim/24.jpeg,2,stim/2.png,4,1,30,2020-12-10_14h12.49.112,premup-three_ses-02_part-03_label-phase3,3.2.4,Win32,60
1,left,1.822000265,2,2.299000025,0,3,3.019000292,0,2,1.592000008,1,0,200,29,1,199,2,1,0.3,1,stim/objects/HouseObjects/dustpan2.png,stim/32.jpeg,3,stim/3.png,2,3,30,2020-12-10_14h12.49.112,premup-three_ses-02_part-03_label-phase3,3.2.4,Win32,60
1,left,1.383000374,2,1.697000265,0,1,1.890000105,0,1,2.095000267,1,0,200,23,1,199,2,1,0.3,1,stim/objects/HouseObjects/vacuumcleaner.png,stim/34.jpeg,3,stim/3.png,4,3,30,2020-12-10_14h12.49.112,premup-three_ses-02_part-03_label-phase3,3.2.4,Win32,60
1,right,1.418000221,2,2.631000042,0,3,1.59800005,0,3,2.906000137,1,0,200,90,1,199,3,2,0.1,1,stim/objects/Instruments/speaker2.png,stim/63.jpeg,6,stim/6.png,3,2,30,2020-12-10_14h12.49.112,premup-three_ses-02_part-03_label-phase3,3.2.4,Win32,60
1,right,1.319000244,1,1.626000166,0,2,2.338000059,0,2,2.178000212,1,0,200,24,1,199,2,1,0.3,1,stim/objects/HouseObjects/wateringcan.png,stim/31.jpeg,3,stim/3.png,1,1,30,2020-12-10_14h12.49.112,premup-three_ses-02_part-03_label-phase3,3.2.4,Win32,60
1,right,1.843000174,,,0,,,0,,,1,0,200,186,1,199,0,1,0,2,stim/objects/HouseObjects/handvacuum4.png,,0,stim/0.png,0,0,30,2020-12-10_14h12.49.112,premup-three_ses-02_part-03_label-phase3,3.2.4,Win32,60
1,right,1.675000191,2,1.709000349,0,2,1.866000175,0,1,1.643000126,1,0,200,47,1,199,2,1,0.7,1,stim/objects/HouseObjects/iron2.png,stim/43.jpeg,4,stim/4.png,3,2,30,2020-12-10_14h12.49.112,premup-three_ses-02_part-03_label-phase3,3.2.4,Win32,60
1,left,1.788000345,2,2.55700016,0,1,1.638000011,0,1,1.717000246,1,0,200,59,1,199,2,2,0.3,1,stim/objects/Instruments/maraca2.png,stim/43.jpeg,4,stim/4.png,3,2,30,2020-12-10_14h12.49.112,premup-three_ses-02_part-03_label-phase3,3.2.4,Win32,60
1,right,1.509000063,,,0,,,0,,,1,0,200,110,1,199,0,2,0,2,stim/objects/Instruments/drums3.png,,0,stim/0.png,0,0,30,2020-12-10_14h12.49.112,premup-three_ses-02_part-03_label-phase3,3.2.4,Win32,60
1,right,1.387000322,1,1.218000174,0,4,2.810000181,0,2,3.069000244,1,0,200,83,1,199,3,1,0.9,1,stim/objects/HouseObjects/spraybottle2.png,stim/64.jpeg,6,stim/6.png,4,4,30,2020-12-10_14h12.49.112,premup-three_ses-02_part-03_label-phase3,3.2.4,Win32,60
1,right,1.380000114,,,0,,,0,,,1,0,200,156,1,199,0,2,0,2,stim/objects/Instruments/tambourine3.png,,0,stim/0.png,0,0,30,2020-12-10_14h12.49.112,premup-three_ses-02_part-03_label-phase3,3.2.4,Win32,60
1,right,1.475000143,2,2.243000269,0,2,1.691000223,0,2,1.907999992,1,0,200,12,1,199,1,2,0.5,1,stim/objects/HouseObjects/sponge.png,stim/23.jpeg,2,stim/2.png,3,3,30,2020-12-10_14h12.49.112,premup-three_ses-02_part-03_label-phase3,3.2.4,Win32,60
1,left,1.878000021,,,0,,,0,,,1,0,200,137,1,199,0,2,0,2,stim/objects/Instruments/musicsheet3.png,,0,stim/0.png,0,0,30,2020-12-10_14h12.49.112,premup-three_ses-02_part-03_label-phase3,3.2.4,Win32,60
1,right,1.593000174,,,0,,,0,,,1,0,200,157,1,199,0,2,0,2,stim/objects/Instruments/timbal3.png,,0,stim/0.png,0,0,30,2020-12-10_14h12.49.112,premup-three_ses-02_part-03_label-phase3,3.2.4,Win32,60
1,right,1.461000204,,,0,,,0,,,1,0,200,108,1,199,0,1,0,2,stim/objects/HouseObjects/glassmop3.png,,0,stim/0.png,0,0,30,2020-12-10_14h12.49.112,premup-three_ses-02_part-03_label-phase3,3.2.4,Win32,60
1,right,1.632000208,,,0,,,0,,,1,0,200,142,1,199,0,1,0,2,stim/objects/HouseObjects/rubbergloves3.png,,0,stim/0.png,0,0,30,2020-12-10_14h12.49.112,premup-three_ses-02_part-03_label-phase3,3.2.4,Win32,60
1,right,1.782000065,,,0,,,0,,,1,0,200,164,1,199,0,1,0,2,stim/objects/HouseObjects/wateringcan3.png,,0,stim/0.png,0,0,30,2020-12-10_14h12.49.112,premup-three_ses-02_part-03_label-phase3,3.2.4,Win32,60
1,left,1.537000179,2,2.0400002,0,3,3.693000078,0,2,1.822000265,1,0,200,54,1,199,2,2,0.3,1,stim/objects/Instruments/harmonica2.png,stim/42.jpeg,4,stim/4.png,2,2,30,2020-12-10_14h12.49.112,premup-three_ses-02_part-03_label-phase3,3.2.4,Win32,60
1,right,1.983000278,1,1.612000227,0,2,1.55700016,0,2,1.860000372,1,0,200,89,1,199,3,1,0.9,1,stim/objects/HouseObjects/wateringcan2.png,stim/62.jpeg,6,stim/6.png,2,4,30,2020-12-10_14h12.49.112,premup-three_ses-02_part-03_label-phase3,3.2.4,Win32,60
1,left,1.379000187,,,0,,,0,,,1,0,200,152,1,199,0,2,0,2,stim/objects/Instruments/record3.png,,0,stim/0.png,0,0,30,2020-12-10_14h12.49.112,premup-three_ses-02_part-03_label-phase3,3.2.4,Win32,60
1,right,2.220000267,2,1.309000254,0,3,4.276000261,0,2,2.06400013,1,0,200,33,1,199,2,2,0.7,1,stim/objects/Instruments/vuvuzela.png,stim/31.jpeg,3,stim/3.png,1,3,30,2020-12-10_14h12.49.112,premup-three_ses-02_part-03_label-phase3,3.2.4,Win32,60
1,right,1.30700016,,,0,,,0,,,1,0,200,166,1,199,0,1,0,2,stim/objects/HouseObjects/cushion4.png,,0,stim/0.png,0,0,30,2020-12-10_14h12.49.112,premup-three_ses-02_part-03_label-phase3,3.2.4,Win32,60
1,right,1.419000149,,,0,,,0,,,1,0,200,154,1,199,0,2,0,2,stim/objects/Instruments/saxophone3.png,,0,stim/0.png,0,0,30,2020-12-10_14h12.49.112,premup-three_ses-02_part-03_label-phase3,3.2.4,Win32,60
1,right,1.442000151,2,1.504000187,0,2,1.983000278,0,1,3.085999966,1,0,200,10,1,199,1,2,0.5,1,stim/objects/HouseObjects/saw.png,stim/21.jpeg,2,stim/2.png,1,1,30,2020-12-10_14h12.49.112,premup-three_ses-02_part-03_label-phase3,3.2.4,Win32,60
1,left,1.846000195,4,1.858000278,0,4,4.032000303,0,4,2.007000208,1,0,200,57,1,199,2,2,0.3,1,stim/objects/Instruments/keyboard2.png,stim/41.jpeg,4,stim/4.png,1,4,30,2020-12-10_14h12.49.112,premup-three_ses-02_part-03_label-phase3,3.2.4,Win32,60
1,right,1.434000015,2,2.193000317,0,2,4.154000282,0,2,1.496000051,1,0,200,37,1,199,2,2,0.7,1,stim/objects/Instruments/electricguitar2.png,stim/31.jpeg,3,stim/3.png,1,1,30,2020-12-10_14h12.49.112,premup-three_ses-02_part-03_label-phase3,3.2.4,Win32,60
1,right,0.993000031,,,0,,,0,,,1,0,200,104,1,199,0,1,0,2,stim/objects/HouseObjects/dustpan3.png,,0,stim/0.png,0,0,30,2020-12-10_14h12.49.112,premup-three_ses-02_part-03_label-phase3,3.2.4,Win32,60
1,right,1.513000011,,,0,,,0,,,1,0,200,150,1,199,0,2,0,2,stim/objects/Instruments/panflute3.png,,0,stim/0.png,0,0,30,2020-12-10_14h12.49.112,premup-three_ses-02_part-03_label-phase3,3.2.4,Win32,60
1,right,2.04700017,2,1.145000219,0,2,1.84100008,0,4,2.085000038,1,0,200,55,1,199,2,2,0.3,1,stim/objects/Instruments/harp2.png,stim/43.jpeg,4,stim/4.png,3,4,30,2020-12-10_14h12.49.112,premup-three_ses-02_part-03_label-phase3,3.2.4,Win32,60
1,left,1.60800004,,,0,,,0,,,1,0,200,119,1,199,0,2,0,2,stim/objects/Instruments/harmonica3.png,,0,stim/0.png,0,0,30,2020-12-10_14h12.49.112,premup-three_ses-02_part-03_label-phase3,3.2.4,Win32,60
1,right,1.4150002,,,0,,,0,,,1,0,200,180,1,199,0,1,0,2,stim/objects/HouseObjects/flyswatter4.png,,0,stim/0.png,0,0,30,2020-12-10_14h12.49.112,premup-three_ses-02_part-03_label-phase3,3.2.4,Win32,60
1,left,1.22900033,,,0,,,0,,,1,0,200,114,1,199,0,2,0,2,stim/objects/Instruments/flutetrans3.png,,0,stim/0.png,0,0,30,2020-12-10_14h12.49.112,premup-three_ses-02_part-03_label-phase3,3.2.4,Win32,60
1,left,1.652000189,2,2.128000021,0,2,4.471000195,0,2,1.853000164,1,0,200,76,1,199,3,2,0.9,1,stim/objects/Instruments/pipepiano2.png,stim/51.jpeg,5,stim/5.png,1,1,30,2020-12-10_14h12.49.112,premup-three_ses-02_part-03_label-phase3,3.2.4,Win32,60
1,right,1.443000317,,,0,,,0,,,1,0,200,135,1,199,0,2,0,2,stim/objects/Instruments/marimba3.png,,0,stim/0.png,0,0,30,2020-12-10_14h12.49.112,premup-three_ses-02_part-03_label-phase3,3.2.4,Win32,60
1,left,1.166000128,4,1.632000208,0,2,4.183000088,0,1,3.504000187,1,0,200,72,1,199,3,2,0.9,1,stim/objects/Instruments/musicsheet2.png,stim/51.jpeg,5,stim/5.png,1,3,30,2020-12-10_14h12.49.112,premup-three_ses-02_part-03_label-phase3,3.2.4,Win32,60
1,right,1.320000172,2,1.225000143,0,3,2.690000057,0,3,2.207000256,1,0,200,9,1,199,1,1,0.5,1,stim/objects/Instruments/saxophone.png,stim/12.jpeg,1,stim/1.png,2,3,30,2020-12-10_14h12.49.112,premup-three_ses-02_part-03_label-phase3,3.2.4,Win32,60
1,right,1.115000248,,,0,,,0,,,1,0,200,100,1,199,0,1,0,2,stim/objects/HouseObjects/coffee3.png,,0,stim/0.png,0,0,30,2020-12-10_14h12.49.112,premup-three_ses-02_part-03_label-phase3,3.2.4,Win32,60
1,right,1.181000233,2,1.315000296,0,1,1.962000132,0,1,1.302999973,1,0,200,31,1,199,2,2,0.7,1,stim/objects/Instruments/tuba.png,stim/33.jpeg,3,stim/3.png,3,4,30,2020-12-10_14h12.49.112,premup-three_ses-02_part-03_label-phase3,3.2.4,Win32,60
1,right,1.075000048,2,3.135000229,0,1,1.656000137,0,1,1.979000092,1,0,200,45,1,199,2,1,0.7,1,stim/objects/HouseObjects/handbrush2.png,stim/41.jpeg,4,stim/4.png,1,1,30,2020-12-10_14h12.49.112,premup-three_ses-02_part-03_label-phase3,3.2.4,Win32,60
1,right,1.798000097,,,0,,,0,,,1,0,200,189,1,199,0,1,0,2,stim/objects/HouseObjects/key4.png,,0,stim/0.png,0,0,30,2020-12-10_14h12.49.112,premup-three_ses-02_part-03_label-phase3,3.2.4,Win32,60
1,right,1.678000212,1,2.269999981,0,3,3.410000324,0,2,1.815999985,1,0,200,84,1,199,3,1,0.9,1,stim/objects/HouseObjects/teapot2.png,stim/61.jpeg,6,stim/6.png,1,1,30,2020-12-10_14h12.49.112,premup-three_ses-02_part-03_label-phase3,3.2.4,Win32,60
1,right,1.147000074,,,0,,,0,,,1,0,200,146,1,199,0,1,0,2,stim/objects/HouseObjects/scale3.png,,0,stim/0.png,0,0,30,2020-12-10_14h12.49.112,premup-three_ses-02_part-03_label-phase3,3.2.4,Win32,60
1,right,1.349000216,,,0,,,0,,,1,0,200,107,1,199,0,1,0,2,stim/objects/HouseObjects/glass3.png,,0,stim/0.png,0,0,30,2020-12-10_14h12.49.112,premup-three_ses-02_part-03_label-phase3,3.2.4,Win32,60
1,right,1.515000343,,,0,,,0,,,1,0,200,122,1,199,0,1,0,2,stim/objects/HouseObjects/iron3.png,,0,stim/0.png,0,0,30,2020-12-10_14h12.49.112,premup-three_ses-02_part-03_label-phase3,3.2.4,Win32,60
1,right,1.772000313,2,1.732000351,0,3,3.420000315,0,2,2.304000139,1,0,200,93,1,199,3,2,0.1,1,stim/objects/Instruments/triangle2.png,stim/62.jpeg,6,stim/6.png,2,2,30,2020-12-10_14h12.49.112,premup-three_ses-02_part-03_label-phase3,3.2.4,Win32,60
1,right,1.144000053,2,1.237000227,0,1,2.726000309,0,1,1.192000151,1,0,200,3,1,199,1,1,0.5,1,stim/objects/HouseObjects/rug.png,stim/12.jpeg,1,stim/1.png,2,2,30,2020-12-10_14h12.49.112,premup-three_ses-02_part-03_label-phase3,3.2.4,Win32,60
1,right,2.186000347,,,0,,,0,,,1,0,200,176,1,199,0,2,0,2,stim/objects/Instruments/electricdrumset4.png,,0,stim/0.png,0,0,30,2020-12-10_14h12.49.112,premup-three_ses-02_part-03_label-phase3,3.2.4,Win32,60
1,right,1.666000128,2,2.029000044,0,4,2.344000101,0,4,1.978000164,1,0,200,88,1,199,3,1,0.9,1,stim/objects/HouseObjects/vacuumcleaner2.png,stim/61.jpeg,6,stim/6.png,1,1,30,2020-12-10_14h12.49.112,premup-three_ses-02_part-03_label-phase3,3.2.4,Win32,60
1,left,1.597000122,3,1.646000147,0,2,3.371000051,0,1,3.357000113,1,0,200,43,1,199,2,1,0.7,1,stim/objects/HouseObjects/glassmop2.png,stim/43.jpeg,4,stim/4.png,3,3,30,2020-12-10_14h12.49.112,premup-three_ses-02_part-03_label-phase3,3.2.4,Win32,60
1,right,1.315000057,,,0,,,0,,,1,0,200,170,1,199,0,2,0,2,stim/objects/Instruments/trumpet3.png,,0,stim/0.png,0,0,30,2020-12-10_14h12.49.112,premup-three_ses-02_part-03_label-phase3,3.2.4,Win32,60
1,right,1.35400033,,,0,,,0,,,1,0,200,147,1,199,0,1,0,2,stim/objects/HouseObjects/sponge3.png,,0,stim/0.png,0,0,30,2020-12-10_14h12.49.112,premup-three_ses-02_part-03_label-phase3,3.2.4,Win32,60
1,right,1.930000067,,,0,,,0,,,1,0,200,194,1,199,0,2,0,2,stim/objects/Instruments/harmonica4.png,,0,stim/0.png,0,0,30,2020-12-10_14h12.49.112,premup-three_ses-02_part-03_label-phase3,3.2.4,Win32,60
1,right,1.837000132,,,0,,,0,,,1,0,200,140,1,199,0,1,0,2,stim/objects/HouseObjects/recyclingbin3.png,,0,stim/0.png,0,0,30,2020-12-10_14h12.49.112,premup-three_ses-02_part-03_label-phase3,3.2.4,Win32,60
1,right,1.860000134,1,1.591000319,0,2,2.519000053,0,2,2.024000168,1,0,200,61,1,199,3,1,0.1,1,stim/objects/HouseObjects/lintroller2.png,stim/52.jpeg,5,stim/5.png,2,3,30,2020-12-10_14h12.49.112,premup-three_ses-02_part-03_label-phase3,3.2.4,Win32,60
1,right,1.209000111,,,0,,,0,,,1,0,200,145,1,199,0,1,0,2,stim/objects/HouseObjects/saw3.png,,0,stim/0.png,0,0,30,2020-12-10_14h12.49.112,premup-three_ses-02_part-03_label-phase3,3.2.4,Win32,60
1,left,1.453000069,,,0,,,0,,,1,0,200,115,1,199,0,2,0,2,stim/objects/Instruments/frenchhorn3.png,,0,stim/0.png,0,0,30,2020-12-10_14h12.49.112,premup-three_ses-02_part-03_label-phase3,3.2.4,Win32,60
1,right,1.879000187,,,0,,,0,,,1,0,200,192,1,199,0,2,0,2,stim/objects/Instruments/grandpiano4.png,,0,stim/0.png,0,0,30,2020-12-10_14h12.49.112,premup-three_ses-02_part-03_label-phase3,3.2.4,Win32,60
1,right,2.431000233,,,0,,,0,,,1,0,200,143,1,199,0,1,0,2,stim/objects/HouseObjects/rug3.png,,0,stim/0.png,0,0,30,2020-12-10_14h12.49.112,premup-three_ses-02_part-03_label-phase3,3.2.4,Win32,60
1,right,0.936000109,1,1.93200016,0,1,2.582000017,0,2,2.822000265,1,0,200,16,1,199,1,2,0.5,1,stim/objects/Instruments/tambourine.png,stim/21.jpeg,2,stim/2.png,1,2,30,2020-12-10_14h12.49.112,premup-three_ses-02_part-03_label-phase3,3.2.4,Win32,60
1,right,1.686000109,,,0,,,0,,,1,0,200,131,1,199,0,2,0,2,stim/objects/Instruments/hihat3.png,,0,stim/0.png,0,0,30,2020-12-10_14h12.49.112,premup-three_ses-02_part-03_label-phase3,3.2.4,Win32,60
1,left,1.79700017,2,2.054000139,0,1,3.052999973,0,2,3.078999996,1,0,200,87,1,199,3,1,0.9,1,stim/objects/HouseObjects/towel2.png,stim/64.jpeg,6,stim/6.png,4,2,30,2020-12-10_14h12.49.112,premup-three_ses-02_part-03_label-phase3,3.2.4,Win32,60
1,right,1.573000193,,,0,,,0,,,1,0,200,132,1,199,0,2,0,2,stim/objects/Instruments/keyboard3.png,,0,stim/0.png,0,0,30,2020-12-10_14h12.49.112,premup-three_ses-02_part-03_label-phase3,3.2.4,Win32,60
1,right,1.652000189,2,1.502000093,0,1,1.871000051,0,3,2.24600029,1,0,200,42,1,199,2,1,0.7,1,stim/objects/HouseObjects/glass2.png,stim/42.jpeg,4,stim/4.png,2,2,30,2020-12-10_14h12.49.112,premup-three_ses-02_part-03_label-phase3,3.2.4,Win32,60
1,right,1.669000387,,,0,,,0,,,1,0,200,193,1,199,0,2,0,2,stim/objects/Instruments/guitarcase4.png,,0,stim/0.png,0,0,30,2020-12-10_14h12.49.112,premup-three_ses-02_part-03_label-phase3,3.2.4,Win32,60
1,left,1.571000099,3,2.534000397,0,2,3.087000132,0,2,2.497000217,1,0,200,46,1,199,2,1,0.7,1,stim/objects/HouseObjects/handvacuum2.png,stim/42.jpeg,4,stim/4.png,2,4,30,2020-12-10_14h12.49.112,premup-three_ses-02_part-03_label-phase3,3.2.4,Win32,60
1,right,1.777000189,,,0,,,0,,,1,0,200,195,1,199,0,2,0,2,stim/objects/Instruments/harp4.png,,0,stim/0.png,0,0,30,2020-12-10_14h12.49.112,premup-three_ses-02_part-03_label-phase3,3.2.4,Win32,60
1,right,1.130000353,1,1.588999987,0,4,2.33100009,0,4,2.279000282,1,0,200,27,1,199,2,1,0.3,1,stim/objects/HouseObjects/dishsoap2.png,stim/34.jpeg,3,stim/3.png,4,1,30,2020-12-10_14h12.49.112,premup-three_ses-02_part-03_label-phase3,3.2.4,Win32,60
1,right,1.658000231,2,2.391000271,0,1,2.051000357,0,2,2.434000254,1,0,200,67,1,199,3,1,0.1,1,stim/objects/HouseObjects/rubbergloves2.png,stim/54.jpeg,5,stim/5.png,4,1,30,2020-12-10_14h12.49.112,premup-three_ses-02_part-03_label-phase3,3.2.4,Win32,60
1,right,1.125000238,2,1.550000191,0,1,1.654000044,0,1,2.961000204,1,0,200,39,1,199,2,2,0.7,1,stim/objects/Instruments/flutetrans2.png,stim/33.jpeg,3,stim/3.png,3,1,30,2020-12-10_14h12.49.112,premup-three_ses-02_part-03_label-phase3,3.2.4,Win32,60
1,left,1.828999996,3,1.318000078,0,4,4.693000317,0,2,2.799000263,1,0,200,60,1,199,3,1,0.1,1,stim/objects/HouseObjects/knife2.png,stim/51.jpeg,5,stim/5.png,1,3,30,2020-12-10_14h12.49.112,premup-three_ses-02_part-03_label-phase3,3.2.4,Win32,60
1,right,1.424000263,,,0,,,0,,,1,0,200,136,1,199,0,2,0,2,stim/objects/Instruments/metronome3.png,,0,stim/0.png,0,0,30,2020-12-10_14h12.49.112,premup-three_ses-02_part-03_label-phase3,3.2.4,Win32,60
1,right,1.498000145,2,1.724000216,0,1,1.630000114,0,3,2.53000021,1,0,200,82,1,199,3,1,0.9,1,stim/objects/HouseObjects/sponge2.png,stim/63.jpeg,6,stim/6.png,3,4,30,2020-12-10_14h12.49.112,premup-three_ses-02_part-03_label-phase3,3.2.4,Win32,60
1,right,1.139000177,,,0,,,0,,,1,0,200,149,1,199,0,1,0,2,stim/objects/HouseObjects/teapot3.png,,0,stim/0.png,0,0,30,2020-12-10_14h12.49.112,premup-three_ses-02_part-03_label-phase3,3.2.4,Win32,60
1,left,1.570000172,3,1.639000177,0,1,4.144000053,0,1,2.312999964,1,0,200,8,1,199,1,1,0.5,1,stim/objects/Instruments/record_player.png,stim/11.jpeg,1,stim/1.png,1,3,30,2020-12-10_14h12.49.112,premup-three_ses-02_part-03_label-phase3,3.2.4,Win32,60
1,right,1.401000261,,,0,,,0,,,1,0,200,133,1,199,0,2,0,2,stim/objects/Instruments/laud3.png,,0,stim/0.png,0,0,30,2020-12-10_14h12.49.112,premup-three_ses-02_part-03_label-phase3,3.2.4,Win32,60
1,right,1.340000153,2,1.679000139,0,2,2.284000158,0,3,1.97300005,1,0,200,92,1,199,3,2,0.1,1,stim/objects/Instruments/timbal2.png,stim/61.jpeg,6,stim/6.png,1,2,30,2020-12-10_14h12.49.112,premup-three_ses-02_part-03_label-phase3,3.2.4,Win32,60
1,right,1.219000101,,,0,,,0,,,1,0,200,127,1,199,0,1,0,2,stim/objects/HouseObjects/match3.png,,0,stim/0.png,0,0,30,2020-12-10_14h12.49.112,premup-three_ses-02_part-03_label-phase3,3.2.4,Win32,60
1,right,1.452000141,2,1.55700016,0,3,3.037000179,0,2,2.552000046,1,0,200,79,1,199,3,2,0.9,1,stim/objects/Instruments/saxophone2.png,stim/54.jpeg,5,stim/5.png,4,1,30,2020-12-10_14h12.49.112,premup-three_ses-02_part-03_label-phase3,3.2.4,Win32,60
1,right,1.791000128,2,1.552999973,0,3,2.467000008,0,2,2.482000351,1,0,200,25,1,199,2,1,0.3,1,stim/objects/HouseObjects/coffee2.png,stim/32.jpeg,3,stim/3.png,2,2,30,2020-12-10_14h12.49.112,premup-three_ses-02_part-03_label-phase3,3.2.4,Win32,60
1,right,1.575000286,2,5.917000294,0,1,2.243000031,0,1,2.164000273,1,0,200,22,1,199,2,1,0.3,1,stim/objects/HouseObjects/towel.png,stim/33.jpeg,3,stim/3.png,3,4,30,2020-12-10_14h12.49.112,premup-three_ses-02_part-03_label-phase3,3.2.4,Win32,60
1,right,1.088000059,2,2.279000044,0,2,3.097000122,0,3,2.923000097,1,0,200,86,1,199,3,1,0.9,1,stim/objects/HouseObjects/thread2.png,stim/63.jpeg,6,stim/6.png,3,3,30,2020-12-10_14h12.49.112,premup-three_ses-02_part-03_label-phase3,3.2.4,Win32,60
1,right,1.486000061,1,2.090000153,0,3,3.005000353,0,2,1.711000204,1,0,200,11,1,199,1,2,0.5,1,stim/objects/HouseObjects/scale.png,stim/22.jpeg,2,stim/2.png,2,2,30,2020-12-10_14h12.49.112,premup-three_ses-02_part-03_label-phase3,3.2.4,Win32,60
1,right,2.330000162,,,0,,,0,,,1,0,200,198,1,199,0,2,0,2,stim/objects/Instruments/laud4.png,,0,stim/0.png,0,0,30,2020-12-10_14h12.49.112,premup-three_ses-02_part-03_label-phase3,3.2.4,Win32,60
1,right,1.309000254,1,2.291000128,0,4,3.163000107,0,4,1.737000227,1,0,200,38,1,199,2,2,0.7,1,stim/objects/Instruments/flute2.png,stim/32.jpeg,3,stim/3.png,2,2,30,2020-12-10_14h12.49.112,premup-three_ses-02_part-03_label-phase3,3.2.4,Win32,60
1,right,1.399000168,,,0,,,0,,,1,0,200,196,1,199,0,2,0,2,stim/objects/Instruments/hihat4.png,,0,stim/0.png,0,0,30,2020-12-10_14h12.49.112,premup-three_ses-02_part-03_label-phase3,3.2.4,Win32,60
1,left,1.600000143,3,1.731000185,0,3,4.735000134,0,2,1.637000322,1,0,200,78,1,199,3,2,0.9,1,stim/objects/Instruments/record_player2.png,stim/53.jpeg,5,stim/5.png,3,2,30,2020-12-10_14h12.49.112,premup-three_ses-02_part-03_label-phase3,3.2.4,Win32,60
1,right,1.541000128,,,0,,,0,,,1,0,200,112,1,199,0,2,0,2,stim/objects/Instruments/electricguitar3.png,,0,stim/0.png,0,0,30,2020-12-10_14h12.49.112,premup-three_ses-02_part-03_label-phase3,3.2.4,Win32,60
1,right,1.575000286,1,2.326000214,0,2,1.733000278,0,1,2.588000298,1,0,200,77,1,199,3,2,0.9,1,stim/objects/Instruments/record2.png,stim/52.jpeg,5,stim/5.png,2,2,30,2020-12-10_14h12.49.112,premup-three_ses-02_part-03_label-phase3,3.2.4,Win32,60
1,left,1.541000128,3,1.754000187,0,1,3.528000116,0,3,2.200999975,1,0,200,52,1,199,2,2,0.3,1,stim/objects/Instruments/grandpiano2.png,stim/44.jpeg,4,stim/4.png,4,4,30,2020-12-10_14h12.49.112,premup-three_ses-02_part-03_label-phase3,3.2.4,Win32,60
1,right,1.269000053,,,0,,,0,,,1,0,200,184,1,199,0,1,0,2,stim/objects/HouseObjects/hairdryer4.png,,0,stim/0.png,0,0,30,2020-12-10_14h12.49.112,premup-three_ses-02_part-03_label-phase3,3.2.4,Win32,60
1,right,1.629000187,,,0,,,0,,,1,0,200,162,1,199,0,1,0,2,stim/objects/HouseObjects/towel3.png,,0,stim/0.png,0,0,30,2020-12-10_14h12.49.112,premup-three_ses-02_part-03_label-phase3,3.2.4,Win32,60
1,right,1.615000248,,,0,,,0,,,1,0,200,165,1,199,0,1,0,2,stim/objects/HouseObjects/coffee4.png,,0,stim/0.png,0,0,30,2020-12-10_14h12.49.112,premup-three_ses-02_part-03_label-phase3,3.2.4,Win32,60
1,right,2.351000309,,,0,,,0,,,1,0,200,197,1,199,0,2,0,2,stim/objects/Instruments/keyboard4.png,,0,stim/0.png,0,0,30,2020-12-10_14h12.49.112,premup-three_ses-02_part-03_label-phase3,3.2.4,Win32,60
1,right,1.973999977,,,0,,,0,,,1,0,200,102,1,199,0,1,0,2,stim/objects/HouseObjects/dishsoap3.png,,0,stim/0.png,0,0,30,2020-12-10_14h12.49.112,premup-three_ses-02_part-03_label-phase3,3.2.4,Win32,60
1,right,2.187000275,2,1.975000143,0,2,3.049000263,0,2,2.242000103,1,0,200,41,1,199,2,1,0.7,1,stim/objects/HouseObjects/garbagebin2.png,stim/41.jpeg,4,stim/4.png,1,1,30,2020-12-10_14h12.49.112,premup-three_ses-02_part-03_label-phase3,3.2.4,Win32,60
1,left,1.839000225,,,0,,,0,,,1,0,200,121,1,199,0,1,0,2,stim/objects/HouseObjects/handvacuum3.png,,0,stim/0.png,0,0,30,2020-12-10_14h12.49.112,premup-three_ses-02_part-03_label-phase3,3.2.4,Win32,60
1,right,1.940000296,,,0,,,0,,,1,0,200,130,1,199,0,2,0,2,stim/objects/Instruments/harp3.png,,0,stim/0.png,0,0,30,2020-12-10_14h12.49.112,premup-three_ses-02_part-03_label-phase3,3.2.4,Win32,60
1,left,2.061000109,3,1.44900012,0,2,2.207000256,0,3,2.02300024,1,0,200,56,1,199,2,2,0.3,1,stim/objects/Instruments/hihat2.png,stim/44.jpeg,4,stim/4.png,4,2,30,2020-12-10_14h12.49.112,premup-three_ses-02_part-03_label-phase3,3.2.4,Win32,60
1,left,1.143000126,3,1.569000006,0,2,3.796000004,0,2,1.536000252,1,0,200,7,1,199,1,1,0.5,1,stim/objects/Instruments/record.png,stim/14.jpeg,1,stim/1.png,4,1,30,2020-12-10_14h12.49.112,premup-three_ses-02_part-03_label-phase3,3.2.4,Win32,60
1,right,1.161000252,2,1.294000149,0,3,2.13499999,0,1,1.767000198,1,0,200,2,1,199,1,1,0.5,1,stim/objects/HouseObjects/rubbergloves.png,stim/11.jpeg,1,stim/1.png,1,4,30,2020-12-10_14h12.49.112,premup-three_ses-02_part-03_label-phase3,3.2.4,Win32,60
1,left,1.368999958,3,1.197000027,0,3,4.800000191,0,2,2.616000175,1,0,200,74,1,199,3,2,0.9,1,stim/objects/Instruments/oboe2.png,stim/53.jpeg,5,stim/5.png,3,4,30,2020-12-10_14h12.49.112,premup-three_ses-02_part-03_label-phase3,3.2.4,Win32,60
1,right,1.372000217,2,1.327000141,0,2,2.211000204,0,2,2.11400032,1,0,200,26,1,199,2,1,0.3,1,stim/objects/HouseObjects/cushion2.png,stim/33.jpeg,3,stim/3.png,3,4,30,2020-12-10_14h12.49.112,premup-three_ses-02_part-03_label-phase3,3.2.4,Win32,60
1,right,1.419000387,2,0.919000149,0,1,1.784000158,0,2,2.345000029,1,0,200,98,1,199,3,2,0.1,1,stim/objects/Instruments/vuvuzela2.png,stim/63.jpeg,6,stim/6.png,3,2,30,2020-12-10_14h12.49.112,premup-three_ses-02_part-03_label-phase3,3.2.4,Win32,60
1,left,2.499000072,3,2.916000128,0,2,1.73300004,0,2,1.828000307,1,0,200,81,1,199,3,1,0.9,1,stim/objects/HouseObjects/scale2.png,stim/62.jpeg,6,stim/6.png,2,3,30,2020-12-10_14h12.49.112,premup-three_ses-02_part-03_label-phase3,3.2.4,Win32,60
1,right,1.508000135,,,0,,,0,,,1,0,200,101,1,199,0,1,0,2,stim/objects/HouseObjects/cushion3.png,,0,stim/0.png,0,0,30,2020-12-10_14h12.49.112,premup-three_ses-02_part-03_label-phase3,3.2.4,Win32,60
1,left,1.649000168,2,2.512000322,0,1,1.516000271,0,1,1.752000093,1,0,200,91,1,199,3,2,0.1,1,stim/objects/Instruments/tambourine2.png,stim/64.jpeg,6,stim/6.png,4,4,30,2020-12-10_14h12.49.112,premup-three_ses-02_part-03_label-phase3,3.2.4,Win32,60
1,right,1.270000219,,,0,,,0,,,1,0,200,106,1,199,0,1,0,2,stim/objects/HouseObjects/garbagebin3.png,,0,stim/0.png,0,0,30,2020-12-10_14h12.49.112,premup-three_ses-02_part-03_label-phase3,3.2.4,Win32,60
1,right,1.236000061,,,0,,,0,,,1,0,200,148,1,199,0,1,0,2,stim/objects/HouseObjects/spraybottle3.png,,0,stim/0.png,0,0,30,2020-12-10_14h12.49.112,premup-three_ses-02_part-03_label-phase3,3.2.4,Win32,60
1,right,1.755000114,,,0,,,0,,,1,0,200,167,1,199,0,1,0,2,stim/objects/HouseObjects/dishsoap4.png,,0,stim/0.png,0,0,30,2020-12-10_14h12.49.112,premup-three_ses-02_part-03_label-phase3,3.2.4,Win32,60
1,left,1.28000021,,,0,,,0,,,1,0,200,126,1,199,0,1,0,2,stim/objects/HouseObjects/lintroller3.png,,0,stim/0.png,0,0,30,2020-12-10_14h12.49.112,premup-three_ses-02_part-03_label-phase3,3.2.4,Win32,60
1,right,2.080000162,,,0,,,0,,,1,0,200,168,1,199,0,1,0,2,stim/objects/HouseObjects/doormat4.png,,0,stim/0.png,0,0,30,2020-12-10_14h12.49.112,premup-three_ses-02_part-03_label-phase3,3.2.4,Win32,60
1,left,1.401000261,,,0,,,0,,,1,0,200,172,1,199,0,2,0,2,stim/objects/Instruments/violin3.png,,0,stim/0.png,0,0,30,2020-12-10_14h12.49.112,premup-three_ses-02_part-03_label-phase3,3.2.4,Win32,60
1,right,2.238000154,,,0,,,0,,,1,0,200,171,1,199,0,2,0,2,stim/objects/Instruments/tuba3.png,,0,stim/0.png,0,0,30,2020-12-10_14h12.49.112,premup-three_ses-02_part-03_label-phase3,3.2.4,Win32,60
1,right,1.244000196,1,2.197000265,0,2,1.543000221,0,2,1.970000267,1,0,200,85,1,199,3,1,0.9,1,stim/objects/HouseObjects/thermometer2.png,stim/62.jpeg,6,stim/6.png,2,2,30,2020-12-10_14h12.49.112,premup-three_ses-02_part-03_label-phase3,3.2.4,Win32,60
1,left,1.837000132,3,1.404000282,0,1,5.695000172,0,2,2.032000065,1,0,200,66,1,199,3,1,0.1,1,stim/objects/HouseObjects/remote2.png,stim/53.jpeg,5,stim/5.png,3,1,30,2020-12-10_14h12.49.112,premup-three_ses-02_part-03_label-phase3,3.2.4,Win32,60
1,right,1.126000166,,,0,,,0,,,1,0,200,153,1,199,0,2,0,2,stim/objects/Instruments/record_player3.png,,0,stim/0.png,0,0,30,2020-12-10_14h12.49.112,premup-three_ses-02_part-03_label-phase3,3.2.4,Win32,60
1,right,1.652000189,,,0,,,0,,,1,0,200,109,1,199,0,1,0,2,stim/objects/HouseObjects/hairdryer3.png,,0,stim/0.png,0,0,30,2020-12-10_14h12.49.112,premup-three_ses-02_part-03_label-phase3,3.2.4,Win32,60
1,right,1.429000378,2,1.863000154,0,1,3.02300024,0,1,1.463000059,1,0,200,4,1,199,1,1,0.5,1,stim/objects/HouseObjects/safetypin.png,stim/13.jpeg,1,stim/1.png,3,1,30,2020-12-10_14h12.49.112,premup-three_ses-02_part-03_label-phase3,3.2.4,Win32,60
1,right,1.383000135,1,2.813000202,0,4,3.524000168,0,2,1.914999962,1,0,200,68,1,199,3,1,0.1,1,stim/objects/HouseObjects/rug2.png,stim/51.jpeg,5,stim/5.png,1,2,30,2020-12-10_14h12.49.112,premup-three_ses-02_part-03_label-phase3,3.2.4,Win32,60
1,left,2.007000208,3,1.583000183,0,1,3.765000105,0,1,1.737000227,1,0,200,71,1,199,3,2,0.9,1,stim/objects/Instruments/metronome2.png,stim/54.jpeg,5,stim/5.png,4,3,30,2020-12-10_14h12.49.112,premup-three_ses-02_part-03_label-phase3,3.2.4,Win32,60
1,right,1.067000389,,,0,,,0,,,1,0,200,185,1,199,0,1,0,2,stim/objects/HouseObjects/handbrush4.png,,0,stim/0.png,0,0,30,2020-12-10_14h12.49.112,premup-three_ses-02_part-03_label-phase3,3.2.4,Win32,60
1,right,1.049000025,,,0,,,0,,,1,0,200,155,1,199,0,2,0,2,stim/objects/Instruments/speaker3.png,,0,stim/0.png,0,0,30,2020-12-10_14h12.49.112,premup-three_ses-02_part-03_label-phase3,3.2.4,Win32,60
1,right,2.823000193,2,1.847000122,0,2,2.207000256,0,2,1.517000198,1,0,200,49,1,199,2,1,0.7,1,stim/objects/HouseObjects/key2.png,stim/41.jpeg,4,stim/4.png,1,1,30,2020-12-10_14h12.49.112,premup-three_ses-02_part-03_label-phase3,3.2.4,Win32,60
1,right,1.170000076,,,0,,,0,,,1,0,200,120,1,199,0,1,0,2,stim/objects/HouseObjects/handbrush3.png,,0,stim/0.png,0,0,30,2020-12-10_14h12.49.112,premup-three_ses-02_part-03_label-phase3,3.2.4,Win32,60
1,right,1.447000027,,,0,,,0,,,1,0,200,124,1,199,0,1,0,2,stim/objects/HouseObjects/key3.png,,0,stim/0.png,0,0,30,2020-12-10_14h12.49.112,premup-three_ses-02_part-03_label-phase3,3.2.4,Win32,60
1,right,1.771000147,,,0,,,0,,,1,0,200,123,1,199,0,1,0,2,stim/objects/HouseObjects/ironingboard3.png,,0,stim/0.png,0,0,30,2020-12-10_14h12.49.112,premup-three_ses-02_part-03_label-phase3,3.2.4,Win32,60
1,right,1.06400013,,,0,,,0,,,1,0,200,169,1,199,0,1,0,2,stim/objects/HouseObjects/dustpan4.png,,0,stim/0.png,0,0,30,2020-12-10_14h12.49.112,premup-three_ses-02_part-03_label-phase3,3.2.4,Win32,60
1,right,1.068000317,1,3.417000294,0,1,1.972000122,0,4,2.277000189,1,0,200,20,1,199,2,1,0.3,1,stim/objects/HouseObjects/thermometer.png,stim/31.jpeg,3,stim/3.png,1,1,30,2020-12-10_14h12.49.112,premup-three_ses-02_part-03_label-phase3,3.2.4,Win32,60
1,right,1.059000254,1,1.779000044,0,2,1.837000132,0,2,1.963999987,1,0,200,21,1,199,2,1,0.3,1,stim/objects/HouseObjects/thread.png,stim/32.jpeg,3,stim/3.png,2,1,30,2020-12-10_14h12.49.112,premup-three_ses-02_part-03_label-phase3,3.2.4,Win32,60
1,left,1.555999994,,,0,,,0,,,1,0,200,117,1,199,0,2,0,2,stim/objects/Instruments/grandpiano3.png,,0,stim/0.png,0,0,30,2020-12-10_14h12.49.112,premup-three_ses-02_part-03_label-phase3,3.2.4,Win32,60
1,right,0.937000275,,,0,,,0,,,1,0,200,191,1,199,0,2,0,2,stim/objects/Instruments/gong4.png,,0,stim/0.png,0,0,30,2020-12-10_14h12.49.112,premup-three_ses-02_part-03_label-phase3,3.2.4,Win32,60
