key_resp_trial.keys,key_resp_trial.rt,trial_acc,trial_index,iterations.thisRepN,iterations.thisTrialN,iterations.thisN,iterations.thisIndex,iterations.ran,iterations.order,task_innerloop.thisRepN,task_innerloop.thisTrialN,task_innerloop.thisN,task_innerloop.thisIndex,task_innerloop.ran,task_innerloop.order,scn_condition,scn_cat,scn_inst,scn_file,obj_cat,obj_cat_num,obj_file,trial_cond,quadrant,obj_x,obj_y,corr_ans,participant,date,expName,psychopyVersion,OS,frameRate,slider.response,slider.rt,slider_2.response,slider_2.rt,ratings.thisRepN,ratings.thisTrialN,ratings.thisN,ratings.thisIndex,ratings.ran,ratings.order,obj_cat_top,min_resp_top,max_resp_top,obj_cat_bottom,min_resp_bottom,max_resp_bottom,enc_trials.thisRepN,enc_trials.thisTrialN,enc_trials.thisN,enc_trials.thisIndex,enc_trials.ran,enc_trials.order,fillers,ratings_final.thisRepN,ratings_final.thisTrialN,ratings_final.thisN,ratings_final.thisIndex,ratings_final.ran,ratings_final.order
,,0,1,1,0,1,0,1,0,1,0,240,15,1,239,1,3,4,stim/34.jpeg,Instruments,1,stim/objects/Instruments/flute.png,0.5,3,-0.2,-0.15,left,31,2020-12-05_10h02.55.063,premup-three_ses-02_part-02_label-phase2,3.2.4,MacIntel,60,,,,,,,,,,,,,,,,,,,,,,,,,,,,,
,,0,2,1,0,1,0,1,0,1,0,240,179,1,239,3,1,4,stim/14.jpeg,HouseObjects,2,stim/objects/HouseObjects/glass2.png,0.9,3,-0.2,-0.15,right,31,2020-12-05_10h02.55.063,premup-three_ses-02_part-02_label-phase2,3.2.4,MacIntel,60,,,,,,,,,,,,,,,,,,,,,,,,,,,,,
left,0.777999878,1,3,1,0,1,0,1,0,1,0,240,3,1,239,1,3,4,stim/34.jpeg,Instruments,1,stim/objects/Instruments/flute.png,0.5,2,0.2,0.15,left,31,2020-12-05_10h02.55.063,premup-three_ses-02_part-02_label-phase2,3.2.4,MacIntel,60,,,,,,,,,,,,,,,,,,,,,,,,,,,,,
right,0.671999931,0,4,1,0,1,0,1,0,1,0,240,125,1,239,2,6,2,stim/62.jpeg,Instruments,1,stim/objects/Instruments/electricdrumset2.png,0.7,3,-0.2,-0.15,left,31,2020-12-05_10h02.55.063,premup-three_ses-02_part-02_label-phase2,3.2.4,MacIntel,60,,,,,,,,,,,,,,,,,,,,,,,,,,,,,
left,0.582999945,1,5,1,0,1,0,1,0,1,0,240,232,1,239,3,2,1,stim/21.jpeg,Instruments,1,stim/objects/Instruments/guitarcase2.png,0.9,2,0.2,0.15,left,31,2020-12-05_10h02.55.063,premup-three_ses-02_part-02_label-phase2,3.2.4,MacIntel,60,,,,,,,,,,,,,,,,,,,,,,,,,,,,,
left,0.687999964,1,6,1,0,1,0,1,0,1,0,240,44,1,239,1,4,1,stim/41.jpeg,Instruments,1,stim/objects/Instruments/flutetrans.png,0.5,1,-0.2,0.15,left,31,2020-12-05_10h02.55.063,premup-three_ses-02_part-02_label-phase2,3.2.4,MacIntel,60,,,,,,,,,,,,,,,,,,,,,,,,,,,,,
right,0.777000189,1,7,1,0,1,0,1,0,1,0,240,95,1,239,2,5,4,stim/54.jpeg,HouseObjects,2,stim/objects/HouseObjects/handvacuum.png,0.7,3,-0.2,-0.15,right,31,2020-12-05_10h02.55.063,premup-three_ses-02_part-02_label-phase2,3.2.4,MacIntel,60,,,,,,,,,,,,,,,,,,,,,,,,,,,,,
left,0.549999952,1,8,1,0,1,0,1,0,1,0,240,222,1,239,3,2,3,stim/23.jpeg,Instruments,1,stim/objects/Instruments/harp2.png,0.9,4,0.2,-0.15,left,31,2020-12-05_10h02.55.063,premup-three_ses-02_part-02_label-phase2,3.2.4,MacIntel,60,,,,,,,,,,,,,,,,,,,,,,,,,,,,,
right,0.600999832,0,9,1,0,1,0,1,0,1,0,240,6,1,239,1,3,3,stim/33.jpeg,Instruments,1,stim/objects/Instruments/electricguitar.png,0.5,4,0.2,-0.15,left,31,2020-12-05_10h02.55.063,premup-three_ses-02_part-02_label-phase2,3.2.4,MacIntel,60,,,,,,,,,,,,,,,,,,,,,,,,,,,,,
right,0.634000063,0,10,1,0,1,0,1,0,1,0,240,40,1,239,1,4,1,stim/41.jpeg,Instruments,1,stim/objects/Instruments/flutetrans.png,0.5,2,0.2,0.15,left,31,2020-12-05_10h02.55.063,premup-three_ses-02_part-02_label-phase2,3.2.4,MacIntel,60,,,,,,,,,,,,,,,,,,,,,,,,,,,,,
left,0.643000126,1,11,1,0,1,0,1,0,1,0,240,0,1,239,1,3,1,stim/31.jpeg,Instruments,1,stim/objects/Instruments/drums.png,0.5,2,0.2,0.15,left,31,2020-12-05_10h02.55.063,premup-three_ses-02_part-02_label-phase2,3.2.4,MacIntel,60,,,,,,,,,,,,,,,,,,,,,,,,,,,,,
left,0.755000114,1,12,1,0,1,0,1,0,1,0,240,42,1,239,1,4,3,stim/43.jpeg,Instruments,1,stim/objects/Instruments/gong.png,0.5,4,0.2,-0.15,left,31,2020-12-05_10h02.55.063,premup-three_ses-02_part-02_label-phase2,3.2.4,MacIntel,60,,,,,,,,,,,,,,,,,,,,,,,,,,,,,
right,0.823999882,0,13,1,0,1,0,1,0,1,0,240,127,1,239,2,6,4,stim/64.jpeg,Instruments,1,stim/objects/Instruments/flute2.png,0.7,4,0.2,-0.15,left,31,2020-12-05_10h02.55.063,premup-three_ses-02_part-02_label-phase2,3.2.4,MacIntel,60,,,,,,,,,,,,,,,,,,,,,,,,,,,,,
left,0.661999941,1,14,1,0,1,0,1,0,1,0,240,140,1,239,2,6,1,stim/61.jpeg,Instruments,1,stim/objects/Instruments/drums2.png,0.7,4,0.2,-0.15,left,31,2020-12-05_10h02.55.063,premup-three_ses-02_part-02_label-phase2,3.2.4,MacIntel,60,,,,,,,,,,,,,,,,,,,,,,,,,,,,,
right,0.671000004,1,15,1,0,1,0,1,0,1,0,240,190,1,239,3,1,3,stim/13.jpeg,HouseObjects,2,stim/objects/HouseObjects/garbagebin2.png,0.9,2,0.2,0.15,right,31,2020-12-05_10h02.55.063,premup-three_ses-02_part-02_label-phase2,3.2.4,MacIntel,60,,,,,,,,,,,,,,,,,,,,,,,,,,,,,
left,0.613000154,0,16,1,0,1,0,1,0,1,0,240,67,1,239,1,4,4,stim/44.jpeg,HouseObjects,2,stim/objects/HouseObjects/glass.png,0.5,2,0.2,0.15,right,31,2020-12-05_10h02.55.063,premup-three_ses-02_part-02_label-phase2,3.2.4,MacIntel,60,,,,,,,,,,,,,,,,,,,,,,,,,,,,,
left,0.684000015,0,17,1,0,1,0,1,0,1,0,240,72,1,239,1,4,1,stim/41.jpeg,HouseObjects,2,stim/objects/HouseObjects/dustpan.png,0.5,1,-0.2,0.15,right,31,2020-12-05_10h02.55.063,premup-three_ses-02_part-02_label-phase2,3.2.4,MacIntel,60,,,,,,,,,,,,,,,,,,,,,,,,,,,,,
right,0.582000017,1,18,1,0,1,0,1,0,1,0,240,112,1,239,2,5,1,stim/51.jpeg,HouseObjects,2,stim/objects/HouseObjects/glassmop.png,0.7,4,0.2,-0.15,right,31,2020-12-05_10h02.55.063,premup-three_ses-02_part-02_label-phase2,3.2.4,MacIntel,60,,,,,,,,,,,,,,,,,,,,,,,,,,,,,
left,0.855000019,1,19,1,0,1,0,1,0,1,0,240,144,1,239,2,6,1,stim/61.jpeg,Instruments,1,stim/objects/Instruments/drums2.png,0.7,4,0.2,-0.15,left,31,2020-12-05_10h02.55.063,premup-three_ses-02_part-02_label-phase2,3.2.4,MacIntel,60,,,,,,,,,,,,,,,,,,,,,,,,,,,,,
right,0.654999971,1,20,1,0,1,0,1,0,1,0,240,178,1,239,3,1,3,stim/13.jpeg,HouseObjects,2,stim/objects/HouseObjects/garbagebin2.png,0.9,2,0.2,0.15,right,31,2020-12-05_10h02.55.063,premup-three_ses-02_part-02_label-phase2,3.2.4,MacIntel,60,,,,,,,,,,,,,,,,,,,,,,,,,,,,,
left,0.717999935,0,21,1,0,1,0,1,0,1,0,240,75,1,239,1,4,4,stim/44.jpeg,HouseObjects,2,stim/objects/HouseObjects/glass.png,0.5,3,-0.2,-0.15,right,31,2020-12-05_10h02.55.063,premup-three_ses-02_part-02_label-phase2,3.2.4,MacIntel,60,,,,,,,,,,,,,,,,,,,,,,,,,,,,,
left,0.581999779,1,22,1,0,1,0,1,0,1,0,240,200,1,239,3,2,1,stim/21.jpeg,Instruments,1,stim/objects/Instruments/guitarcase2.png,0.9,1,-0.2,0.15,left,31,2020-12-05_10h02.55.063,premup-three_ses-02_part-02_label-phase2,3.2.4,MacIntel,60,,,,,,,,,,,,,,,,,,,,,,,,,,,,,
right,0.595999956,0,23,1,0,1,0,1,0,1,0,240,91,1,239,2,5,4,stim/54.jpeg,Instruments,1,stim/objects/Instruments/hihat.png,0.3,2,0.2,0.15,left,31,2020-12-05_10h02.55.063,premup-three_ses-02_part-02_label-phase2,3.2.4,MacIntel,60,,,,,,,,,,,,,,,,,,,,,,,,,,,,,
right,0.556999922,1,24,1,0,1,0,1,0,1,0,240,165,1,239,3,1,2,stim/12.jpeg,HouseObjects,2,stim/objects/HouseObjects/flyswatter2.png,0.9,1,-0.2,0.15,right,31,2020-12-05_10h02.55.063,premup-three_ses-02_part-02_label-phase2,3.2.4,MacIntel,60,,,,,,,,,,,,,,,,,,,,,,,,,,,,,
left,0.60800004,1,25,1,0,1,0,1,0,1,0,240,11,1,239,1,3,4,stim/34.jpeg,Instruments,1,stim/objects/Instruments/flute.png,0.5,2,0.2,0.15,left,31,2020-12-05_10h02.55.063,premup-three_ses-02_part-02_label-phase2,3.2.4,MacIntel,60,,,,,,,,,,,,,,,,,,,,,,,,,,,,,
,,0,26,1,0,1,0,1,0,1,0,240,28,1,239,1,3,1,stim/31.jpeg,HouseObjects,2,stim/objects/HouseObjects/coffee.png,0.5,4,0.2,-0.15,right,31,2020-12-05_10h02.55.063,premup-three_ses-02_part-02_label-phase2,3.2.4,MacIntel,60,,,,,,,,,,,,,,,,,,,,,,,,,,,,,
left,0.752999783,0,27,1,0,1,0,1,0,1,0,240,33,1,239,1,3,2,stim/32.jpeg,HouseObjects,2,stim/objects/HouseObjects/cushion.png,0.5,1,-0.2,0.15,right,31,2020-12-05_10h02.55.063,premup-three_ses-02_part-02_label-phase2,3.2.4,MacIntel,60,,,,,,,,,,,,,,,,,,,,,,,,,,,,,
right,0.881999969,0,28,1,0,1,0,1,0,1,0,240,50,1,239,1,4,3,stim/43.jpeg,Instruments,1,stim/objects/Instruments/gong.png,0.5,1,-0.2,0.15,left,31,2020-12-05_10h02.55.063,premup-three_ses-02_part-02_label-phase2,3.2.4,MacIntel,60,,,,,,,,,,,,,,,,,,,,,,,,,,,,,
right,0.648999929,1,29,1,0,1,0,1,0,1,0,240,197,1,239,3,1,2,stim/12.jpeg,HouseObjects,2,stim/objects/HouseObjects/flyswatter2.png,0.9,2,0.2,0.15,right,31,2020-12-05_10h02.55.063,premup-three_ses-02_part-02_label-phase2,3.2.4,MacIntel,60,,,,,,,,,,,,,,,,,,,,,,,,,,,,,
right,0.482999802,1,30,1,0,1,0,1,0,1,0,240,152,1,239,2,6,1,stim/61.jpeg,HouseObjects,2,stim/objects/HouseObjects/coffee2.png,0.3,2,0.2,0.15,right,31,2020-12-05_10h02.55.063,premup-three_ses-02_part-02_label-phase2,3.2.4,MacIntel,60,,,,,,,,,,,,,,,,,,,,,,,,,,,,,
left,0.553999901,1,31,1,0,1,0,1,0,1,0,240,212,1,239,3,2,1,stim/21.jpeg,Instruments,1,stim/objects/Instruments/guitarcase2.png,0.9,2,0.2,0.15,left,31,2020-12-05_10h02.55.063,premup-three_ses-02_part-02_label-phase2,3.2.4,MacIntel,60,,,,,,,,,,,,,,,,,,,,,,,,,,,,,
right,0.638000011,1,32,1,0,1,0,1,0,1,0,240,186,1,239,3,1,3,stim/13.jpeg,HouseObjects,2,stim/objects/HouseObjects/garbagebin2.png,0.9,3,-0.2,-0.15,right,31,2020-12-05_10h02.55.063,premup-three_ses-02_part-02_label-phase2,3.2.4,MacIntel,60,,,,,,,,,,,,,,,,,,,,,,,,,,,,,
left,0.684999943,1,33,1,0,1,0,1,0,1,0,240,130,1,239,2,6,3,stim/63.jpeg,Instruments,1,stim/objects/Instruments/electricguitar2.png,0.7,2,0.2,0.15,left,31,2020-12-05_10h02.55.063,premup-three_ses-02_part-02_label-phase2,3.2.4,MacIntel,60,,,,,,,,,,,,,,,,,,,,,,,,,,,,,
right,0.570000172,0,34,1,0,1,0,1,0,1,0,240,80,1,239,2,5,1,stim/51.jpeg,Instruments,1,stim/objects/Instruments/guitarcase.png,0.3,3,-0.2,-0.15,left,31,2020-12-05_10h02.55.063,premup-three_ses-02_part-02_label-phase2,3.2.4,MacIntel,60,,,,,,,,,,,,,,,,,,,,,,,,,,,,,
right,0.51699996,0,35,1,0,1,0,1,0,1,0,240,82,1,239,2,5,3,stim/53.jpeg,Instruments,1,stim/objects/Instruments/harp.png,0.3,1,-0.2,0.15,left,31,2020-12-05_10h02.55.063,premup-three_ses-02_part-02_label-phase2,3.2.4,MacIntel,60,,,,,,,,,,,,,,,,,,,,,,,,,,,,,
right,0.561000109,1,36,1,0,1,0,1,0,1,0,240,192,1,239,3,1,1,stim/11.jpeg,HouseObjects,2,stim/objects/HouseObjects/dustpan2.png,0.9,3,-0.2,-0.15,right,31,2020-12-05_10h02.55.063,premup-three_ses-02_part-02_label-phase2,3.2.4,MacIntel,60,,,,,,,,,,,,,,,,,,,,,,,,,,,,,
left,0.751000166,0,37,1,0,1,0,1,0,1,0,240,70,1,239,1,4,3,stim/43.jpeg,HouseObjects,2,stim/objects/HouseObjects/garbagebin.png,0.5,1,-0.2,0.15,right,31,2020-12-05_10h02.55.063,premup-three_ses-02_part-02_label-phase2,3.2.4,MacIntel,60,,,,,,,,,,,,,,,,,,,,,,,,,,,,,
right,0.542000055,1,38,1,0,1,0,1,0,1,0,240,189,1,239,3,1,2,stim/12.jpeg,HouseObjects,2,stim/objects/HouseObjects/flyswatter2.png,0.9,4,0.2,-0.15,right,31,2020-12-05_10h02.55.063,premup-three_ses-02_part-02_label-phase2,3.2.4,MacIntel,60,,,,,,,,,,,,,,,,,,,,,,,,,,,,,
left,0.75,0,39,1,0,1,0,1,0,1,0,240,116,1,239,2,5,1,stim/51.jpeg,HouseObjects,2,stim/objects/HouseObjects/glassmop.png,0.7,3,-0.2,-0.15,right,31,2020-12-05_10h02.55.063,premup-three_ses-02_part-02_label-phase2,3.2.4,MacIntel,60,,,,,,,,,,,,,,,,,,,,,,,,,,,,,
right,0.534999847,0,40,1,0,1,0,1,0,1,0,240,41,1,239,1,4,2,stim/42.jpeg,Instruments,1,stim/objects/Instruments/frenchhorn.png,0.5,2,0.2,0.15,left,31,2020-12-05_10h02.55.063,premup-three_ses-02_part-02_label-phase2,3.2.4,MacIntel,60,,,,,,,,,,,,,,,,,,,,,,,,,,,,,
left,0.849999905,0,41,1,0,1,0,1,0,1,0,240,26,1,239,1,3,3,stim/33.jpeg,HouseObjects,2,stim/objects/HouseObjects/dishsoap.png,0.5,2,0.2,0.15,right,31,2020-12-05_10h02.55.063,premup-three_ses-02_part-02_label-phase2,3.2.4,MacIntel,60,,,,,,,,,,,,,,,,,,,,,,,,,,,,,
left,0.684000015,1,42,1,0,1,0,1,0,1,0,240,147,1,239,2,6,4,stim/64.jpeg,Instruments,1,stim/objects/Instruments/flute2.png,0.7,4,0.2,-0.15,left,31,2020-12-05_10h02.55.063,premup-three_ses-02_part-02_label-phase2,3.2.4,MacIntel,60,,,,,,,,,,,,,,,,,,,,,,,,,,,,,
right,0.484999895,1,43,1,0,1,0,1,0,1,0,240,102,1,239,2,5,3,stim/53.jpeg,HouseObjects,2,stim/objects/HouseObjects/handbrush.png,0.7,1,-0.2,0.15,right,31,2020-12-05_10h02.55.063,premup-three_ses-02_part-02_label-phase2,3.2.4,MacIntel,60,,,,,,,,,,,,,,,,,,,,,,,,,,,,,
right,0.664000034,1,44,1,0,1,0,1,0,1,0,240,196,1,239,3,1,1,stim/11.jpeg,HouseObjects,2,stim/objects/HouseObjects/dustpan2.png,0.9,2,0.2,0.15,right,31,2020-12-05_10h02.55.063,premup-three_ses-02_part-02_label-phase2,3.2.4,MacIntel,60,,,,,,,,,,,,,,,,,,,,,,,,,,,,,
right,0.717999935,1,45,1,0,1,0,1,0,1,0,240,99,1,239,2,5,4,stim/54.jpeg,HouseObjects,2,stim/objects/HouseObjects/handvacuum.png,0.7,1,-0.2,0.15,right,31,2020-12-05_10h02.55.063,premup-three_ses-02_part-02_label-phase2,3.2.4,MacIntel,60,,,,,,,,,,,,,,,,,,,,,,,,,,,,,
left,0.579999924,1,46,1,0,1,0,1,0,1,0,240,231,1,239,3,2,4,stim/24.jpeg,Instruments,1,stim/objects/Instruments/hihat2.png,0.9,4,0.2,-0.15,left,31,2020-12-05_10h02.55.063,premup-three_ses-02_part-02_label-phase2,3.2.4,MacIntel,60,,,,,,,,,,,,,,,,,,,,,,,,,,,,,
right,0.738000154,1,47,1,0,1,0,1,0,1,0,240,92,1,239,2,5,1,stim/51.jpeg,HouseObjects,2,stim/objects/HouseObjects/glassmop.png,0.7,4,0.2,-0.15,right,31,2020-12-05_10h02.55.063,premup-three_ses-02_part-02_label-phase2,3.2.4,MacIntel,60,,,,,,,,,,,,,,,,,,,,,,,,,,,,,
left,0.701000214,0,48,1,0,1,0,1,0,1,0,240,23,1,239,1,3,4,stim/34.jpeg,HouseObjects,2,stim/objects/HouseObjects/doormat.png,0.5,1,-0.2,0.15,right,31,2020-12-05_10h02.55.063,premup-three_ses-02_part-02_label-phase2,3.2.4,MacIntel,60,,,,,,,,,,,,,,,,,,,,,,,,,,,,,
right,0.539999962,1,49,1,0,1,0,1,0,1,0,240,172,1,239,3,1,1,stim/11.jpeg,HouseObjects,2,stim/objects/HouseObjects/dustpan2.png,0.9,2,0.2,0.15,right,31,2020-12-05_10h02.55.063,premup-three_ses-02_part-02_label-phase2,3.2.4,MacIntel,60,,,,,,,,,,,,,,,,,,,,,,,,,,,,,
left,0.786999941,0,50,1,0,1,0,1,0,1,0,240,93,1,239,2,5,2,stim/52.jpeg,HouseObjects,2,stim/objects/HouseObjects/hairdryer.png,0.7,3,-0.2,-0.15,right,31,2020-12-05_10h02.55.063,premup-three_ses-02_part-02_label-phase2,3.2.4,MacIntel,60,,,,,,,,,,,,,,,,,,,,,,,,,,,,,
right,0.565999985,1,51,1,0,1,0,1,0,1,0,240,166,1,239,3,1,3,stim/13.jpeg,HouseObjects,2,stim/objects/HouseObjects/garbagebin2.png,0.9,1,-0.2,0.15,right,31,2020-12-05_10h02.55.063,premup-three_ses-02_part-02_label-phase2,3.2.4,MacIntel,60,,,,,,,,,,,,,,,,,,,,,,,,,,,,,
left,0.60800004,1,52,1,0,1,0,1,0,1,0,240,234,1,239,3,2,3,stim/23.jpeg,Instruments,1,stim/objects/Instruments/harp2.png,0.9,1,-0.2,0.15,left,31,2020-12-05_10h02.55.063,premup-three_ses-02_part-02_label-phase2,3.2.4,MacIntel,60,,,,,,,,,,,,,,,,,,,,,,,,,,,,,
right,0.556999922,1,53,1,0,1,0,1,0,1,0,240,183,1,239,3,1,4,stim/14.jpeg,HouseObjects,2,stim/objects/HouseObjects/glass2.png,0.9,1,-0.2,0.15,right,31,2020-12-05_10h02.55.063,premup-three_ses-02_part-02_label-phase2,3.2.4,MacIntel,60,,,,,,,,,,,,,,,,,,,,,,,,,,,,,
right,0.480000019,1,54,1,0,1,0,1,0,1,0,240,180,1,239,3,1,1,stim/11.jpeg,HouseObjects,2,stim/objects/HouseObjects/dustpan2.png,0.9,4,0.2,-0.15,right,31,2020-12-05_10h02.55.063,premup-three_ses-02_part-02_label-phase2,3.2.4,MacIntel,60,,,,,,,,,,,,,,,,,,,,,,,,,,,,,
left,0.59100008,1,55,1,0,1,0,1,0,1,0,240,126,1,239,2,6,3,stim/63.jpeg,Instruments,1,stim/objects/Instruments/electricguitar2.png,0.7,1,-0.2,0.15,left,31,2020-12-05_10h02.55.063,premup-three_ses-02_part-02_label-phase2,3.2.4,MacIntel,60,,,,,,,,,,,,,,,,,,,,,,,,,,,,,
right,0.546999931,0,56,1,0,1,0,1,0,1,0,240,53,1,239,1,4,2,stim/42.jpeg,Instruments,1,stim/objects/Instruments/frenchhorn.png,0.5,3,-0.2,-0.15,left,31,2020-12-05_10h02.55.063,premup-three_ses-02_part-02_label-phase2,3.2.4,MacIntel,60,,,,,,,,,,,,,,,,,,,,,,,,,,,,,
left,0.625999928,1,57,1,0,1,0,1,0,1,0,240,121,1,239,2,6,2,stim/62.jpeg,Instruments,1,stim/objects/Instruments/electricdrumset2.png,0.7,3,-0.2,-0.15,left,31,2020-12-05_10h02.55.063,premup-three_ses-02_part-02_label-phase2,3.2.4,MacIntel,60,,,,,,,,,,,,,,,,,,,,,,,,,,,,,
left,0.720000029,1,58,1,0,1,0,1,0,1,0,240,10,1,239,1,3,3,stim/33.jpeg,Instruments,1,stim/objects/Instruments/electricguitar.png,0.5,1,-0.2,0.15,left,31,2020-12-05_10h02.55.063,premup-three_ses-02_part-02_label-phase2,3.2.4,MacIntel,60,,,,,,,,,,,,,,,,,,,,,,,,,,,,,
right,0.81799984,1,59,1,0,1,0,1,0,1,0,240,97,1,239,2,5,2,stim/52.jpeg,HouseObjects,2,stim/objects/HouseObjects/hairdryer.png,0.7,1,-0.2,0.15,right,31,2020-12-05_10h02.55.063,premup-three_ses-02_part-02_label-phase2,3.2.4,MacIntel,60,,,,,,,,,,,,,,,,,,,,,,,,,,,,,
left,0.654999971,1,60,1,0,1,0,1,0,1,0,240,5,1,239,1,3,2,stim/32.jpeg,Instruments,1,stim/objects/Instruments/electricdrumset.png,0.5,3,-0.2,-0.15,left,31,2020-12-05_10h02.55.063,premup-three_ses-02_part-02_label-phase2,3.2.4,MacIntel,60,,,,,,,,,,,,,,,,,,,,,,,,,,,,,
right,0.556999922,1,61,1,0,1,0,1,0,1,0,240,170,1,239,3,1,3,stim/13.jpeg,HouseObjects,2,stim/objects/HouseObjects/garbagebin2.png,0.9,3,-0.2,-0.15,right,31,2020-12-05_10h02.55.063,premup-three_ses-02_part-02_label-phase2,3.2.4,MacIntel,60,,,,,,,,,,,,,,,,,,,,,,,,,,,,,
right,0.555999994,1,62,1,0,1,0,1,0,1,0,240,74,1,239,1,4,3,stim/43.jpeg,HouseObjects,2,stim/objects/HouseObjects/garbagebin.png,0.5,3,-0.2,-0.15,right,31,2020-12-05_10h02.55.063,premup-three_ses-02_part-02_label-phase2,3.2.4,MacIntel,60,,,,,,,,,,,,,,,,,,,,,,,,,,,,,
right,0.585999966,0,63,1,0,1,0,1,0,1,0,240,43,1,239,1,4,4,stim/44.jpeg,Instruments,1,stim/objects/Instruments/grandpiano.png,0.5,3,-0.2,-0.15,left,31,2020-12-05_10h02.55.063,premup-three_ses-02_part-02_label-phase2,3.2.4,MacIntel,60,,,,,,,,,,,,,,,,,,,,,,,,,,,,,
left,0.618000031,1,64,1,0,1,0,1,0,1,0,240,211,1,239,3,2,4,stim/24.jpeg,Instruments,1,stim/objects/Instruments/hihat2.png,0.9,3,-0.2,-0.15,left,31,2020-12-05_10h02.55.063,premup-three_ses-02_part-02_label-phase2,3.2.4,MacIntel,60,,,,,,,,,,,,,,,,,,,,,,,,,,,,,
right,0.5,1,65,1,0,1,0,1,0,1,0,240,64,1,239,1,4,1,stim/41.jpeg,HouseObjects,2,stim/objects/HouseObjects/dustpan.png,0.5,4,0.2,-0.15,right,31,2020-12-05_10h02.55.063,premup-three_ses-02_part-02_label-phase2,3.2.4,MacIntel,60,,,,,,,,,,,,,,,,,,,,,,,,,,,,,
left,0.548000097,1,66,1,0,1,0,1,0,1,0,240,208,1,239,3,2,1,stim/21.jpeg,Instruments,1,stim/objects/Instruments/guitarcase2.png,0.9,1,-0.2,0.15,left,31,2020-12-05_10h02.55.063,premup-three_ses-02_part-02_label-phase2,3.2.4,MacIntel,60,,,,,,,,,,,,,,,,,,,,,,,,,,,,,
right,0.584000111,1,67,1,0,1,0,1,0,1,0,240,115,1,239,2,5,4,stim/54.jpeg,HouseObjects,2,stim/objects/HouseObjects/handvacuum.png,0.7,4,0.2,-0.15,right,31,2020-12-05_10h02.55.063,premup-three_ses-02_part-02_label-phase2,3.2.4,MacIntel,60,,,,,,,,,,,,,,,,,,,,,,,,,,,,,
right,0.494999886,1,68,1,0,1,0,1,0,1,0,240,73,1,239,1,4,2,stim/42.jpeg,HouseObjects,2,stim/objects/HouseObjects/flyswatter.png,0.5,2,0.2,0.15,right,31,2020-12-05_10h02.55.063,premup-three_ses-02_part-02_label-phase2,3.2.4,MacIntel,60,,,,,,,,,,,,,,,,,,,,,,,,,,,,,
,,0,69,1,0,1,0,1,0,1,0,240,104,1,239,2,5,1,stim/51.jpeg,HouseObjects,2,stim/objects/HouseObjects/glassmop.png,0.7,1,-0.2,0.15,right,31,2020-12-05_10h02.55.063,premup-three_ses-02_part-02_label-phase2,3.2.4,MacIntel,60,,,,,,,,,,,,,,,,,,,,,,,,,,,,,
right,0.67200017,1,70,1,0,1,0,1,0,1,0,240,66,1,239,1,4,3,stim/43.jpeg,HouseObjects,2,stim/objects/HouseObjects/garbagebin.png,0.5,3,-0.2,-0.15,right,31,2020-12-05_10h02.55.063,premup-three_ses-02_part-02_label-phase2,3.2.4,MacIntel,60,,,,,,,,,,,,,,,,,,,,,,,,,,,,,
right,0.541999817,1,71,1,0,1,0,1,0,1,0,240,103,1,239,2,5,4,stim/54.jpeg,HouseObjects,2,stim/objects/HouseObjects/handvacuum.png,0.7,4,0.2,-0.15,right,31,2020-12-05_10h02.55.063,premup-three_ses-02_part-02_label-phase2,3.2.4,MacIntel,60,,,,,,,,,,,,,,,,,,,,,,,,,,,,,
right,0.584000111,1,72,1,0,1,0,1,0,1,0,240,191,1,239,3,1,4,stim/14.jpeg,HouseObjects,2,stim/objects/HouseObjects/glass2.png,0.9,4,0.2,-0.15,right,31,2020-12-05_10h02.55.063,premup-three_ses-02_part-02_label-phase2,3.2.4,MacIntel,60,,,,,,,,,,,,,,,,,,,,,,,,,,,,,
right,0.51699996,1,73,1,0,1,0,1,0,1,0,240,150,1,239,2,6,3,stim/63.jpeg,HouseObjects,2,stim/objects/HouseObjects/dishsoap2.png,0.3,4,0.2,-0.15,right,31,2020-12-05_10h02.55.063,premup-three_ses-02_part-02_label-phase2,3.2.4,MacIntel,60,,,,,,,,,,,,,,,,,,,,,,,,,,,,,
left,0.525000095,0,74,1,0,1,0,1,0,1,0,240,25,1,239,1,3,2,stim/32.jpeg,HouseObjects,2,stim/objects/HouseObjects/cushion.png,0.5,3,-0.2,-0.15,right,31,2020-12-05_10h02.55.063,premup-three_ses-02_part-02_label-phase2,3.2.4,MacIntel,60,,,,,,,,,,,,,,,,,,,,,,,,,,,,,
right,0.741999865,1,75,1,0,1,0,1,0,1,0,240,79,1,239,1,4,4,stim/44.jpeg,HouseObjects,2,stim/objects/HouseObjects/glass.png,0.5,1,-0.2,0.15,right,31,2020-12-05_10h02.55.063,premup-three_ses-02_part-02_label-phase2,3.2.4,MacIntel,60,,,,,,,,,,,,,,,,,,,,,,,,,,,,,
right,0.475999832,1,76,1,0,1,0,1,0,1,0,240,65,1,239,1,4,2,stim/42.jpeg,HouseObjects,2,stim/objects/HouseObjects/flyswatter.png,0.5,4,0.2,-0.15,right,31,2020-12-05_10h02.55.063,premup-three_ses-02_part-02_label-phase2,3.2.4,MacIntel,60,,,,,,,,,,,,,,,,,,,,,,,,,,,,,
left,0.569999933,1,77,1,0,1,0,1,0,1,0,240,4,1,239,1,3,1,stim/31.jpeg,Instruments,1,stim/objects/Instruments/drums.png,0.5,1,-0.2,0.15,left,31,2020-12-05_10h02.55.063,premup-three_ses-02_part-02_label-phase2,3.2.4,MacIntel,60,,,,,,,,,,,,,,,,,,,,,,,,,,,,,
right,0.417999983,1,78,1,0,1,0,1,0,1,0,240,113,1,239,2,5,2,stim/52.jpeg,HouseObjects,2,stim/objects/HouseObjects/hairdryer.png,0.7,3,-0.2,-0.15,right,31,2020-12-05_10h02.55.063,premup-three_ses-02_part-02_label-phase2,3.2.4,MacIntel,60,,,,,,,,,,,,,,,,,,,,,,,,,,,,,
left,0.645999908,1,79,1,0,1,0,1,0,1,0,240,214,1,239,3,2,3,stim/23.jpeg,Instruments,1,stim/objects/Instruments/harp2.png,0.9,1,-0.2,0.15,left,31,2020-12-05_10h02.55.063,premup-three_ses-02_part-02_label-phase2,3.2.4,MacIntel,60,,,,,,,,,,,,,,,,,,,,,,,,,,,,,
left,0.548000097,0,80,1,0,1,0,1,0,1,0,240,239,1,239,3,2,4,stim/24.jpeg,HouseObjects,2,stim/objects/HouseObjects/handvacuum2.png,0.1,3,-0.2,-0.15,right,31,2020-12-05_10h02.55.063,premup-three_ses-02_part-02_label-phase2,3.2.4,MacIntel,60,,,,,,,,,,,,,,,,,,,,,,,,,,,,,
right,0.450999975,1,81,1,0,1,0,1,0,1,0,240,194,1,239,3,1,3,stim/13.jpeg,HouseObjects,2,stim/objects/HouseObjects/garbagebin2.png,0.9,1,-0.2,0.15,right,31,2020-12-05_10h02.55.063,premup-three_ses-02_part-02_label-phase2,3.2.4,MacIntel,60,,,,,,,,,,,,,,,,,,,,,,,,,,,,,
left,0.655999899,1,82,1,0,1,0,1,0,1,0,240,124,1,239,2,6,1,stim/61.jpeg,Instruments,1,stim/objects/Instruments/drums2.png,0.7,2,0.2,0.15,left,31,2020-12-05_10h02.55.063,premup-three_ses-02_part-02_label-phase2,3.2.4,MacIntel,60,,,,,,,,,,,,,,,,,,,,,,,,,,,,,
right,0.76699996,1,83,1,0,1,0,1,0,1,0,240,149,1,239,2,6,2,stim/62.jpeg,HouseObjects,2,stim/objects/HouseObjects/cushion2.png,0.3,4,0.2,-0.15,right,31,2020-12-05_10h02.55.063,premup-three_ses-02_part-02_label-phase2,3.2.4,MacIntel,60,,,,,,,,,,,,,,,,,,,,,,,,,,,,,
right,0.626999855,0,84,1,0,1,0,1,0,1,0,240,48,1,239,1,4,1,stim/41.jpeg,Instruments,1,stim/objects/Instruments/flutetrans.png,0.5,4,0.2,-0.15,left,31,2020-12-05_10h02.55.063,premup-three_ses-02_part-02_label-phase2,3.2.4,MacIntel,60,,,,,,,,,,,,,,,,,,,,,,,,,,,,,
right,0.532999992,0,85,1,0,1,0,1,0,1,0,240,59,1,239,1,4,4,stim/44.jpeg,Instruments,1,stim/objects/Instruments/grandpiano.png,0.5,4,0.2,-0.15,left,31,2020-12-05_10h02.55.063,premup-three_ses-02_part-02_label-phase2,3.2.4,MacIntel,60,,,,,,,,,,,,,,,,,,,,,,,,,,,,,
left,0.73300004,0,86,1,0,1,0,1,0,1,0,240,154,1,239,2,6,3,stim/63.jpeg,HouseObjects,2,stim/objects/HouseObjects/dishsoap2.png,0.3,2,0.2,0.15,right,31,2020-12-05_10h02.55.063,premup-three_ses-02_part-02_label-phase2,3.2.4,MacIntel,60,,,,,,,,,,,,,,,,,,,,,,,,,,,,,
right,0.470000029,1,87,1,0,1,0,1,0,1,0,240,106,1,239,2,5,3,stim/53.jpeg,HouseObjects,2,stim/objects/HouseObjects/handbrush.png,0.7,3,-0.2,-0.15,right,31,2020-12-05_10h02.55.063,premup-three_ses-02_part-02_label-phase2,3.2.4,MacIntel,60,,,,,,,,,,,,,,,,,,,,,,,,,,,,,
right,0.451999903,1,88,1,0,1,0,1,0,1,0,240,61,1,239,1,4,2,stim/42.jpeg,HouseObjects,2,stim/objects/HouseObjects/flyswatter.png,0.5,2,0.2,0.15,right,31,2020-12-05_10h02.55.063,premup-three_ses-02_part-02_label-phase2,3.2.4,MacIntel,60,,,,,,,,,,,,,,,,,,,,,,,,,,,,,
right,0.75,1,89,1,0,1,0,1,0,1,0,240,148,1,239,2,6,1,stim/61.jpeg,HouseObjects,2,stim/objects/HouseObjects/coffee2.png,0.3,3,-0.2,-0.15,right,31,2020-12-05_10h02.55.063,premup-three_ses-02_part-02_label-phase2,3.2.4,MacIntel,60,,,,,,,,,,,,,,,,,,,,,,,,,,,,,
left,0.834000111,1,90,1,0,1,0,1,0,1,0,240,135,1,239,2,6,4,stim/64.jpeg,Instruments,1,stim/objects/Instruments/flute2.png,0.7,2,0.2,0.15,left,31,2020-12-05_10h02.55.063,premup-three_ses-02_part-02_label-phase2,3.2.4,MacIntel,60,,,,,,,,,,,,,,,,,,,,,,,,,,,,,
left,0.569000006,1,91,1,0,1,0,1,0,1,0,240,210,1,239,3,2,3,stim/23.jpeg,Instruments,1,stim/objects/Instruments/harp2.png,0.9,4,0.2,-0.15,left,31,2020-12-05_10h02.55.063,premup-three_ses-02_part-02_label-phase2,3.2.4,MacIntel,60,,,,,,,,,,,,,,,,,,,,,,,,,,,,,
left,0.738999844,1,92,1,0,1,0,1,0,1,0,240,14,1,239,1,3,3,stim/33.jpeg,Instruments,1,stim/objects/Instruments/electricguitar.png,0.5,4,0.2,-0.15,left,31,2020-12-05_10h02.55.063,premup-three_ses-02_part-02_label-phase2,3.2.4,MacIntel,60,,,,,,,,,,,,,,,,,,,,,,,,,,,,,
right,0.450000048,0,93,1,0,1,0,1,0,1,0,240,58,1,239,1,4,3,stim/43.jpeg,Instruments,1,stim/objects/Instruments/gong.png,0.5,2,0.2,0.15,left,31,2020-12-05_10h02.55.063,premup-three_ses-02_part-02_label-phase2,3.2.4,MacIntel,60,,,,,,,,,,,,,,,,,,,,,,,,,,,,,
left,0.549000025,1,94,1,0,1,0,1,0,1,0,240,227,1,239,3,2,4,stim/24.jpeg,Instruments,1,stim/objects/Instruments/hihat2.png,0.9,2,0.2,0.15,left,31,2020-12-05_10h02.55.063,premup-three_ses-02_part-02_label-phase2,3.2.4,MacIntel,60,,,,,,,,,,,,,,,,,,,,,,,,,,,,,
right,0.582000017,1,95,1,0,1,0,1,0,1,0,240,117,1,239,2,5,2,stim/52.jpeg,HouseObjects,2,stim/objects/HouseObjects/hairdryer.png,0.7,3,-0.2,-0.15,right,31,2020-12-05_10h02.55.063,premup-three_ses-02_part-02_label-phase2,3.2.4,MacIntel,60,,,,,,,,,,,,,,,,,,,,,,,,,,,,,
right,0.569000006,1,96,1,0,1,0,1,0,1,0,240,199,1,239,3,1,4,stim/14.jpeg,HouseObjects,2,stim/objects/HouseObjects/glass2.png,0.9,1,-0.2,0.15,right,31,2020-12-05_10h02.55.063,premup-three_ses-02_part-02_label-phase2,3.2.4,MacIntel,60,,,,,,,,,,,,,,,,,,,,,,,,,,,,,
right,0.532000065,1,97,1,0,1,0,1,0,1,0,240,101,1,239,2,5,2,stim/52.jpeg,HouseObjects,2,stim/objects/HouseObjects/hairdryer.png,0.7,2,0.2,0.15,right,31,2020-12-05_10h02.55.063,premup-three_ses-02_part-02_label-phase2,3.2.4,MacIntel,60,,,,,,,,,,,,,,,,,,,,,,,,,,,,,
left,0.88499999,1,98,1,0,1,0,1,0,1,0,240,142,1,239,2,6,3,stim/63.jpeg,Instruments,1,stim/objects/Instruments/electricguitar2.png,0.7,3,-0.2,-0.15,left,31,2020-12-05_10h02.55.063,premup-three_ses-02_part-02_label-phase2,3.2.4,MacIntel,60,,,,,,,,,,,,,,,,,,,,,,,,,,,,,
right,0.437999964,0,99,1,0,1,0,1,0,1,0,240,141,1,239,2,6,2,stim/62.jpeg,Instruments,1,stim/objects/Instruments/electricdrumset2.png,0.7,1,-0.2,0.15,left,31,2020-12-05_10h02.55.063,premup-three_ses-02_part-02_label-phase2,3.2.4,MacIntel,60,,,,,,,,,,,,,,,,,,,,,,,,,,,,,
right,0.587000132,0,100,1,0,1,0,1,0,1,0,240,161,1,239,3,1,2,stim/12.jpeg,Instruments,1,stim/objects/Instruments/frenchhorn2.png,0.1,3,-0.2,-0.15,left,31,2020-12-05_10h02.55.063,premup-three_ses-02_part-02_label-phase2,3.2.4,MacIntel,60,,,,,,,,,,,,,,,,,,,,,,,,,,,,,
left,0.868999958,0,101,1,0,1,0,1,0,1,0,240,78,1,239,1,4,3,stim/43.jpeg,HouseObjects,2,stim/objects/HouseObjects/garbagebin.png,0.5,1,-0.2,0.15,right,31,2020-12-05_10h02.55.063,premup-three_ses-02_part-02_label-phase2,3.2.4,MacIntel,60,,,,,,,,,,,,,,,,,,,,,,,,,,,,,
right,0.488000154,0,102,1,0,1,0,1,0,1,0,240,131,1,239,2,6,4,stim/64.jpeg,Instruments,1,stim/objects/Instruments/flute2.png,0.7,2,0.2,0.15,left,31,2020-12-05_10h02.55.063,premup-three_ses-02_part-02_label-phase2,3.2.4,MacIntel,60,,,,,,,,,,,,,,,,,,,,,,,,,,,,,
right,0.728999853,0,103,1,0,1,0,1,0,1,0,240,88,1,239,2,5,1,stim/51.jpeg,Instruments,1,stim/objects/Instruments/guitarcase.png,0.3,1,-0.2,0.15,left,31,2020-12-05_10h02.55.063,premup-three_ses-02_part-02_label-phase2,3.2.4,MacIntel,60,,,,,,,,,,,,,,,,,,,,,,,,,,,,,
left,0.752000093,1,104,1,0,1,0,1,0,1,0,240,139,1,239,2,6,4,stim/64.jpeg,Instruments,1,stim/objects/Instruments/flute2.png,0.7,1,-0.2,0.15,left,31,2020-12-05_10h02.55.063,premup-three_ses-02_part-02_label-phase2,3.2.4,MacIntel,60,,,,,,,,,,,,,,,,,,,,,,,,,,,,,
right,0.417999983,0,105,1,0,1,0,1,0,1,0,240,230,1,239,3,2,3,stim/23.jpeg,Instruments,1,stim/objects/Instruments/harp2.png,0.9,4,0.2,-0.15,left,31,2020-12-05_10h02.55.063,premup-three_ses-02_part-02_label-phase2,3.2.4,MacIntel,60,,,,,,,,,,,,,,,,,,,,,,,,,,,,,
right,0.636000156,0,106,1,0,1,0,1,0,1,0,240,57,1,239,1,4,2,stim/42.jpeg,Instruments,1,stim/objects/Instruments/frenchhorn.png,0.5,4,0.2,-0.15,left,31,2020-12-05_10h02.55.063,premup-three_ses-02_part-02_label-phase2,3.2.4,MacIntel,60,,,,,,,,,,,,,,,,,,,,,,,,,,,,,
left,0.467999935,1,107,1,0,1,0,1,0,1,0,240,228,1,239,3,2,1,stim/21.jpeg,Instruments,1,stim/objects/Instruments/guitarcase2.png,0.9,2,0.2,0.15,left,31,2020-12-05_10h02.55.063,premup-three_ses-02_part-02_label-phase2,3.2.4,MacIntel,60,,,,,,,,,,,,,,,,,,,,,,,,,,,,,
right,0.709000111,1,108,1,0,1,0,1,0,1,0,240,176,1,239,3,1,1,stim/11.jpeg,HouseObjects,2,stim/objects/HouseObjects/dustpan2.png,0.9,4,0.2,-0.15,right,31,2020-12-05_10h02.55.063,premup-three_ses-02_part-02_label-phase2,3.2.4,MacIntel,60,,,,,,,,,,,,,,,,,,,,,,,,,,,,,
left,0.585999966,1,109,1,0,1,0,1,0,1,0,240,134,1,239,2,6,3,stim/63.jpeg,Instruments,1,stim/objects/Instruments/electricguitar2.png,0.7,2,0.2,0.15,left,31,2020-12-05_10h02.55.063,premup-three_ses-02_part-02_label-phase2,3.2.4,MacIntel,60,,,,,,,,,,,,,,,,,,,,,,,,,,,,,
left,0.780999899,1,110,1,0,1,0,1,0,1,0,240,9,1,239,1,3,2,stim/32.jpeg,Instruments,1,stim/objects/Instruments/electricdrumset.png,0.5,4,0.2,-0.15,left,31,2020-12-05_10h02.55.063,premup-three_ses-02_part-02_label-phase2,3.2.4,MacIntel,60,,,,,,,,,,,,,,,,,,,,,,,,,,,,,
right,0.682999849,0,111,1,0,1,0,1,0,1,0,240,87,1,239,2,5,4,stim/54.jpeg,Instruments,1,stim/objects/Instruments/hihat.png,0.3,2,0.2,0.15,left,31,2020-12-05_10h02.55.063,premup-three_ses-02_part-02_label-phase2,3.2.4,MacIntel,60,,,,,,,,,,,,,,,,,,,,,,,,,,,,,
,,0,112,1,0,1,0,1,0,1,0,240,84,1,239,2,5,1,stim/51.jpeg,Instruments,1,stim/objects/Instruments/guitarcase.png,0.3,1,-0.2,0.15,left,31,2020-12-05_10h02.55.063,premup-three_ses-02_part-02_label-phase2,3.2.4,MacIntel,60,,,,,,,,,,,,,,,,,,,,,,,,,,,,,
right,0.601999998,0,113,1,0,1,0,1,0,1,0,240,51,1,239,1,4,4,stim/44.jpeg,Instruments,1,stim/objects/Instruments/grandpiano.png,0.5,3,-0.2,-0.15,left,31,2020-12-05_10h02.55.063,premup-three_ses-02_part-02_label-phase2,3.2.4,MacIntel,60,,,,,,,,,,,,,,,,,,,,,,,,,,,,,
left,0.536999941,1,114,1,0,1,0,1,0,1,0,240,89,1,239,2,5,2,stim/52.jpeg,Instruments,1,stim/objects/Instruments/harmonica.png,0.3,1,-0.2,0.15,left,31,2020-12-05_10h02.55.063,premup-three_ses-02_part-02_label-phase2,3.2.4,MacIntel,60,,,,,,,,,,,,,,,,,,,,,,,,,,,,,
left,0.58100009,1,115,1,0,1,0,1,0,1,0,240,162,1,239,3,1,3,stim/13.jpeg,Instruments,1,stim/objects/Instruments/gong2.png,0.1,2,0.2,0.15,left,31,2020-12-05_10h02.55.063,premup-three_ses-02_part-02_label-phase2,3.2.4,MacIntel,60,,,,,,,,,,,,,,,,,,,,,,,,,,,,,
left,0.506000042,1,116,1,0,1,0,1,0,1,0,240,233,1,239,3,2,2,stim/22.jpeg,Instruments,1,stim/objects/Instruments/harmonica2.png,0.9,4,0.2,-0.15,left,31,2020-12-05_10h02.55.063,premup-three_ses-02_part-02_label-phase2,3.2.4,MacIntel,60,,,,,,,,,,,,,,,,,,,,,,,,,,,,,
left,0.562999964,1,117,1,0,1,0,1,0,1,0,240,17,1,239,1,3,2,stim/32.jpeg,Instruments,1,stim/objects/Instruments/electricdrumset.png,0.5,2,0.2,0.15,left,31,2020-12-05_10h02.55.063,premup-three_ses-02_part-02_label-phase2,3.2.4,MacIntel,60,,,,,,,,,,,,,,,,,,,,,,,,,,,,,
left,0.551000118,0,118,1,0,1,0,1,0,1,0,240,27,1,239,1,3,4,stim/34.jpeg,HouseObjects,2,stim/objects/HouseObjects/doormat.png,0.5,1,-0.2,0.15,right,31,2020-12-05_10h02.55.063,premup-three_ses-02_part-02_label-phase2,3.2.4,MacIntel,60,,,,,,,,,,,,,,,,,,,,,,,,,,,,,
left,0.684000015,1,119,1,0,1,0,1,0,1,0,240,213,1,239,3,2,2,stim/22.jpeg,Instruments,1,stim/objects/Instruments/harmonica2.png,0.9,3,-0.2,-0.15,left,31,2020-12-05_10h02.55.063,premup-three_ses-02_part-02_label-phase2,3.2.4,MacIntel,60,,,,,,,,,,,,,,,,,,,,,,,,,,,,,
right,0.555000067,0,120,1,0,1,0,1,0,1,0,240,133,1,239,2,6,2,stim/62.jpeg,Instruments,1,stim/objects/Instruments/electricdrumset2.png,0.7,4,0.2,-0.15,left,31,2020-12-05_10h02.55.063,premup-three_ses-02_part-02_label-phase2,3.2.4,MacIntel,60,,,,,,,,,,,,,,,,,,,,,,,,,,,,,
left,0.546999931,0,121,1,0,1,0,1,0,1,0,240,237,1,239,3,2,2,stim/22.jpeg,HouseObjects,2,stim/objects/HouseObjects/hairdryer2.png,0.1,2,0.2,0.15,right,31,2020-12-05_10h02.55.063,premup-three_ses-02_part-02_label-phase2,3.2.4,MacIntel,60,,,,,,,,,,,,,,,,,,,,,,,,,,,,,
left,0.562999964,0,122,1,0,1,0,1,0,1,0,240,236,1,239,3,2,1,stim/21.jpeg,HouseObjects,2,stim/objects/HouseObjects/glassmop2.png,0.1,3,-0.2,-0.15,right,31,2020-12-05_10h02.55.063,premup-three_ses-02_part-02_label-phase2,3.2.4,MacIntel,60,,,,,,,,,,,,,,,,,,,,,,,,,,,,,
right,0.596000195,0,123,1,0,1,0,1,0,1,0,240,207,1,239,3,2,4,stim/24.jpeg,Instruments,1,stim/objects/Instruments/hihat2.png,0.9,4,0.2,-0.15,left,31,2020-12-05_10h02.55.063,premup-three_ses-02_part-02_label-phase2,3.2.4,MacIntel,60,,,,,,,,,,,,,,,,,,,,,,,,,,,,,
left,0.453999996,0,124,1,0,1,0,1,0,1,0,240,159,1,239,2,6,4,stim/64.jpeg,HouseObjects,2,stim/objects/HouseObjects/doormat2.png,0.3,2,0.2,0.15,right,31,2020-12-05_10h02.55.063,premup-three_ses-02_part-02_label-phase2,3.2.4,MacIntel,60,,,,,,,,,,,,,,,,,,,,,,,,,,,,,
left,0.445999861,1,125,1,0,1,0,1,0,1,0,240,235,1,239,3,2,4,stim/24.jpeg,Instruments,1,stim/objects/Instruments/hihat2.png,0.9,3,-0.2,-0.15,left,31,2020-12-05_10h02.55.063,premup-three_ses-02_part-02_label-phase2,3.2.4,MacIntel,60,,,,,,,,,,,,,,,,,,,,,,,,,,,,,
right,0.604000092,1,126,1,0,1,0,1,0,1,0,240,175,1,239,3,1,4,stim/14.jpeg,HouseObjects,2,stim/objects/HouseObjects/glass2.png,0.9,2,0.2,0.15,right,31,2020-12-05_10h02.55.063,premup-three_ses-02_part-02_label-phase2,3.2.4,MacIntel,60,,,,,,,,,,,,,,,,,,,,,,,,,,,,,
left,0.461999893,1,127,1,0,1,0,1,0,1,0,240,83,1,239,2,5,4,stim/54.jpeg,Instruments,1,stim/objects/Instruments/hihat.png,0.3,1,-0.2,0.15,left,31,2020-12-05_10h02.55.063,premup-three_ses-02_part-02_label-phase2,3.2.4,MacIntel,60,,,,,,,,,,,,,,,,,,,,,,,,,,,,,
right,0.453000069,0,128,1,0,1,0,1,0,1,0,240,215,1,239,3,2,4,stim/24.jpeg,Instruments,1,stim/objects/Instruments/hihat2.png,0.9,4,0.2,-0.15,left,31,2020-12-05_10h02.55.063,premup-three_ses-02_part-02_label-phase2,3.2.4,MacIntel,60,,,,,,,,,,,,,,,,,,,,,,,,,,,,,
right,0.564999819,1,129,1,0,1,0,1,0,1,0,240,167,1,239,3,1,4,stim/14.jpeg,HouseObjects,2,stim/objects/HouseObjects/glass2.png,0.9,3,-0.2,-0.15,right,31,2020-12-05_10h02.55.063,premup-three_ses-02_part-02_label-phase2,3.2.4,MacIntel,60,,,,,,,,,,,,,,,,,,,,,,,,,,,,,
right,0.632999897,1,130,1,0,1,0,1,0,1,0,240,107,1,239,2,5,4,stim/54.jpeg,HouseObjects,2,stim/objects/HouseObjects/handvacuum.png,0.7,2,0.2,0.15,right,31,2020-12-05_10h02.55.063,premup-three_ses-02_part-02_label-phase2,3.2.4,MacIntel,60,,,,,,,,,,,,,,,,,,,,,,,,,,,,,
left,0.535000086,0,131,1,0,1,0,1,0,1,0,240,31,1,239,1,3,4,stim/34.jpeg,HouseObjects,2,stim/objects/HouseObjects/doormat.png,0.5,1,-0.2,0.15,right,31,2020-12-05_10h02.55.063,premup-three_ses-02_part-02_label-phase2,3.2.4,MacIntel,60,,,,,,,,,,,,,,,,,,,,,,,,,,,,,
right,0.433999777,1,132,1,0,1,0,1,0,1,0,240,77,1,239,1,4,2,stim/42.jpeg,HouseObjects,2,stim/objects/HouseObjects/flyswatter.png,0.5,2,0.2,0.15,right,31,2020-12-05_10h02.55.063,premup-three_ses-02_part-02_label-phase2,3.2.4,MacIntel,60,,,,,,,,,,,,,,,,,,,,,,,,,,,,,
right,0.430000067,1,133,1,0,1,0,1,0,1,0,240,181,1,239,3,1,2,stim/12.jpeg,HouseObjects,2,stim/objects/HouseObjects/flyswatter2.png,0.9,4,0.2,-0.15,right,31,2020-12-05_10h02.55.063,premup-three_ses-02_part-02_label-phase2,3.2.4,MacIntel,60,,,,,,,,,,,,,,,,,,,,,,,,,,,,,
right,0.717999935,1,134,1,0,1,0,1,0,1,0,240,24,1,239,1,3,1,stim/31.jpeg,HouseObjects,2,stim/objects/HouseObjects/coffee.png,0.5,2,0.2,0.15,right,31,2020-12-05_10h02.55.063,premup-three_ses-02_part-02_label-phase2,3.2.4,MacIntel,60,,,,,,,,,,,,,,,,,,,,,,,,,,,,,
right,0.485000134,0,135,1,0,1,0,1,0,1,0,240,1,1,239,1,3,2,stim/32.jpeg,Instruments,1,stim/objects/Instruments/electricdrumset.png,0.5,4,0.2,-0.15,left,31,2020-12-05_10h02.55.063,premup-three_ses-02_part-02_label-phase2,3.2.4,MacIntel,60,,,,,,,,,,,,,,,,,,,,,,,,,,,,,
left,0.611999989,0,136,1,0,1,0,1,0,1,0,240,32,1,239,1,3,1,stim/31.jpeg,HouseObjects,2,stim/objects/HouseObjects/coffee.png,0.5,1,-0.2,0.15,right,31,2020-12-05_10h02.55.063,premup-three_ses-02_part-02_label-phase2,3.2.4,MacIntel,60,,,,,,,,,,,,,,,,,,,,,,,,,,,,,
right,0.585000038,1,137,1,0,1,0,1,0,1,0,240,105,1,239,2,5,2,stim/52.jpeg,HouseObjects,2,stim/objects/HouseObjects/hairdryer.png,0.7,2,0.2,0.15,right,31,2020-12-05_10h02.55.063,premup-three_ses-02_part-02_label-phase2,3.2.4,MacIntel,60,,,,,,,,,,,,,,,,,,,,,,,,,,,,,
right,0.481000185,0,138,1,0,1,0,1,0,1,0,240,216,1,239,3,2,1,stim/21.jpeg,Instruments,1,stim/objects/Instruments/guitarcase2.png,0.9,1,-0.2,0.15,left,31,2020-12-05_10h02.55.063,premup-three_ses-02_part-02_label-phase2,3.2.4,MacIntel,60,,,,,,,,,,,,,,,,,,,,,,,,,,,,,
left,0.769000053,1,139,1,0,1,0,1,0,1,0,240,45,1,239,1,4,2,stim/42.jpeg,Instruments,1,stim/objects/Instruments/frenchhorn.png,0.5,3,-0.2,-0.15,left,31,2020-12-05_10h02.55.063,premup-three_ses-02_part-02_label-phase2,3.2.4,MacIntel,60,,,,,,,,,,,,,,,,,,,,,,,,,,,,,
left,0.587000132,1,140,1,0,1,0,1,0,1,0,240,137,1,239,2,6,2,stim/62.jpeg,Instruments,1,stim/objects/Instruments/electricdrumset2.png,0.7,2,0.2,0.15,left,31,2020-12-05_10h02.55.063,premup-three_ses-02_part-02_label-phase2,3.2.4,MacIntel,60,,,,,,,,,,,,,,,,,,,,,,,,,,,,,
left,0.619999886,1,141,1,0,1,0,1,0,1,0,240,226,1,239,3,2,3,stim/23.jpeg,Instruments,1,stim/objects/Instruments/harp2.png,0.9,1,-0.2,0.15,left,31,2020-12-05_10h02.55.063,premup-three_ses-02_part-02_label-phase2,3.2.4,MacIntel,60,,,,,,,,,,,,,,,,,,,,,,,,,,,,,
left,0.602999926,0,142,1,0,1,0,1,0,1,0,240,156,1,239,2,6,1,stim/61.jpeg,HouseObjects,2,stim/objects/HouseObjects/coffee2.png,0.3,3,-0.2,-0.15,right,31,2020-12-05_10h02.55.063,premup-three_ses-02_part-02_label-phase2,3.2.4,MacIntel,60,,,,,,,,,,,,,,,,,,,,,,,,,,,,,
right,0.482999802,1,143,1,0,1,0,1,0,1,0,240,177,1,239,3,1,2,stim/12.jpeg,HouseObjects,2,stim/objects/HouseObjects/flyswatter2.png,0.9,4,0.2,-0.15,right,31,2020-12-05_10h02.55.063,premup-three_ses-02_part-02_label-phase2,3.2.4,MacIntel,60,,,,,,,,,,,,,,,,,,,,,,,,,,,,,
right,0.465000153,1,144,1,0,1,0,1,0,1,0,240,185,1,239,3,1,2,stim/12.jpeg,HouseObjects,2,stim/objects/HouseObjects/flyswatter2.png,0.9,2,0.2,0.15,right,31,2020-12-05_10h02.55.063,premup-three_ses-02_part-02_label-phase2,3.2.4,MacIntel,60,,,,,,,,,,,,,,,,,,,,,,,,,,,,,
right,0.5,1,145,1,0,1,0,1,0,1,0,240,110,1,239,2,5,3,stim/53.jpeg,HouseObjects,2,stim/objects/HouseObjects/handbrush.png,0.7,2,0.2,0.15,right,31,2020-12-05_10h02.55.063,premup-three_ses-02_part-02_label-phase2,3.2.4,MacIntel,60,,,,,,,,,,,,,,,,,,,,,,,,,,,,,
left,0.770999908,1,146,1,0,1,0,1,0,1,0,240,56,1,239,1,4,1,stim/41.jpeg,Instruments,1,stim/objects/Instruments/flutetrans.png,0.5,2,0.2,0.15,left,31,2020-12-05_10h02.55.063,premup-three_ses-02_part-02_label-phase2,3.2.4,MacIntel,60,,,,,,,,,,,,,,,,,,,,,,,,,,,,,
right,0.880000114,1,147,1,0,1,0,1,0,1,0,240,37,1,239,1,3,2,stim/32.jpeg,HouseObjects,2,stim/objects/HouseObjects/cushion.png,0.5,4,0.2,-0.15,right,31,2020-12-05_10h02.55.063,premup-three_ses-02_part-02_label-phase2,3.2.4,MacIntel,60,,,,,,,,,,,,,,,,,,,,,,,,,,,,,
left,0.636000156,1,148,1,0,1,0,1,0,1,0,240,132,1,239,2,6,1,stim/61.jpeg,Instruments,1,stim/objects/Instruments/drums2.png,0.7,3,-0.2,-0.15,left,31,2020-12-05_10h02.55.063,premup-three_ses-02_part-02_label-phase2,3.2.4,MacIntel,60,,,,,,,,,,,,,,,,,,,,,,,,,,,,,
left,0.632000208,1,149,1,0,1,0,1,0,1,0,240,16,1,239,1,3,1,stim/31.jpeg,Instruments,1,stim/objects/Instruments/drums.png,0.5,2,0.2,0.15,left,31,2020-12-05_10h02.55.063,premup-three_ses-02_part-02_label-phase2,3.2.4,MacIntel,60,,,,,,,,,,,,,,,,,,,,,,,,,,,,,
left,0.597000122,1,150,1,0,1,0,1,0,1,0,240,138,1,239,2,6,3,stim/63.jpeg,Instruments,1,stim/objects/Instruments/electricguitar2.png,0.7,2,0.2,0.15,left,31,2020-12-05_10h02.55.063,premup-three_ses-02_part-02_label-phase2,3.2.4,MacIntel,60,,,,,,,,,,,,,,,,,,,,,,,,,,,,,
left,0.663000107,1,151,1,0,1,0,1,0,1,0,240,54,1,239,1,4,3,stim/43.jpeg,Instruments,1,stim/objects/Instruments/gong.png,0.5,2,0.2,0.15,left,31,2020-12-05_10h02.55.063,premup-three_ses-02_part-02_label-phase2,3.2.4,MacIntel,60,,,,,,,,,,,,,,,,,,,,,,,,,,,,,
right,0.588000059,1,152,1,0,1,0,1,0,1,0,240,34,1,239,1,3,3,stim/33.jpeg,HouseObjects,2,stim/objects/HouseObjects/dishsoap.png,0.5,4,0.2,-0.15,right,31,2020-12-05_10h02.55.063,premup-three_ses-02_part-02_label-phase2,3.2.4,MacIntel,60,,,,,,,,,,,,,,,,,,,,,,,,,,,,,
left,0.542999983,0,153,1,0,1,0,1,0,1,0,240,36,1,239,1,3,1,stim/31.jpeg,HouseObjects,2,stim/objects/HouseObjects/coffee.png,0.5,3,-0.2,-0.15,right,31,2020-12-05_10h02.55.063,premup-three_ses-02_part-02_label-phase2,3.2.4,MacIntel,60,,,,,,,,,,,,,,,,,,,,,,,,,,,,,
,,0,154,1,0,1,0,1,0,1,0,240,96,1,239,2,5,1,stim/51.jpeg,HouseObjects,2,stim/objects/HouseObjects/glassmop.png,0.7,3,-0.2,-0.15,right,31,2020-12-05_10h02.55.063,premup-three_ses-02_part-02_label-phase2,3.2.4,MacIntel,60,,,,,,,,,,,,,,,,,,,,,,,,,,,,,
right,0.615999937,1,155,1,0,1,0,1,0,1,0,240,173,1,239,3,1,2,stim/12.jpeg,HouseObjects,2,stim/objects/HouseObjects/flyswatter2.png,0.9,2,0.2,0.15,right,31,2020-12-05_10h02.55.063,premup-three_ses-02_part-02_label-phase2,3.2.4,MacIntel,60,,,,,,,,,,,,,,,,,,,,,,,,,,,,,
left,0.601999998,1,156,1,0,1,0,1,0,1,0,240,7,1,239,1,3,4,stim/34.jpeg,Instruments,1,stim/objects/Instruments/flute.png,0.5,3,-0.2,-0.15,left,31,2020-12-05_10h02.55.063,premup-three_ses-02_part-02_label-phase2,3.2.4,MacIntel,60,,,,,,,,,,,,,,,,,,,,,,,,,,,,,
right,0.732000113,1,157,1,0,1,0,1,0,1,0,240,98,1,239,2,5,3,stim/53.jpeg,HouseObjects,2,stim/objects/HouseObjects/handbrush.png,0.7,2,0.2,0.15,right,31,2020-12-05_10h02.55.063,premup-three_ses-02_part-02_label-phase2,3.2.4,MacIntel,60,,,,,,,,,,,,,,,,,,,,,,,,,,,,,
right,0.631000042,0,158,1,0,1,0,1,0,1,0,240,160,1,239,3,1,1,stim/11.jpeg,Instruments,1,stim/objects/Instruments/flutetrans2.png,0.1,3,-0.2,-0.15,left,31,2020-12-05_10h02.55.063,premup-three_ses-02_part-02_label-phase2,3.2.4,MacIntel,60,,,,,,,,,,,,,,,,,,,,,,,,,,,,,
left,0.546999931,1,159,1,0,1,0,1,0,1,0,240,52,1,239,1,4,1,stim/41.jpeg,Instruments,1,stim/objects/Instruments/flutetrans.png,0.5,2,0.2,0.15,left,31,2020-12-05_10h02.55.063,premup-three_ses-02_part-02_label-phase2,3.2.4,MacIntel,60,,,,,,,,,,,,,,,,,,,,,,,,,,,,,
right,0.634000063,1,160,1,0,1,0,1,0,1,0,240,76,1,239,1,4,1,stim/41.jpeg,HouseObjects,2,stim/objects/HouseObjects/dustpan.png,0.5,4,0.2,-0.15,right,31,2020-12-05_10h02.55.063,premup-three_ses-02_part-02_label-phase2,3.2.4,MacIntel,60,,,,,,,,,,,,,,,,,,,,,,,,,,,,,
left,0.534000158,1,161,1,0,1,0,1,0,1,0,240,223,1,239,3,2,4,stim/24.jpeg,Instruments,1,stim/objects/Instruments/hihat2.png,0.9,1,-0.2,0.15,left,31,2020-12-05_10h02.55.063,premup-three_ses-02_part-02_label-phase2,3.2.4,MacIntel,60,,,,,,,,,,,,,,,,,,,,,,,,,,,,,
left,0.532999992,1,162,1,0,1,0,1,0,1,0,240,2,1,239,1,3,3,stim/33.jpeg,Instruments,1,stim/objects/Instruments/electricguitar.png,0.5,3,-0.2,-0.15,left,31,2020-12-05_10h02.55.063,premup-three_ses-02_part-02_label-phase2,3.2.4,MacIntel,60,,,,,,,,,,,,,,,,,,,,,,,,,,,,,
left,0.480000019,1,163,1,0,1,0,1,0,1,0,240,202,1,239,3,2,3,stim/23.jpeg,Instruments,1,stim/objects/Instruments/harp2.png,0.9,3,-0.2,-0.15,left,31,2020-12-05_10h02.55.063,premup-three_ses-02_part-02_label-phase2,3.2.4,MacIntel,60,,,,,,,,,,,,,,,,,,,,,,,,,,,,,
right,0.61500001,1,164,1,0,1,0,1,0,1,0,240,118,1,239,2,5,3,stim/53.jpeg,HouseObjects,2,stim/objects/HouseObjects/handbrush.png,0.7,3,-0.2,-0.15,right,31,2020-12-05_10h02.55.063,premup-three_ses-02_part-02_label-phase2,3.2.4,MacIntel,60,,,,,,,,,,,,,,,,,,,,,,,,,,,,,
left,0.483999968,1,165,1,0,1,0,1,0,1,0,240,120,1,239,2,6,1,stim/61.jpeg,Instruments,1,stim/objects/Instruments/drums2.png,0.7,1,-0.2,0.15,left,31,2020-12-05_10h02.55.063,premup-three_ses-02_part-02_label-phase2,3.2.4,MacIntel,60,,,,,,,,,,,,,,,,,,,,,,,,,,,,,
left,0.532999992,1,166,1,0,1,0,1,0,1,0,240,217,1,239,3,2,2,stim/22.jpeg,Instruments,1,stim/objects/Instruments/harmonica2.png,0.9,3,-0.2,-0.15,left,31,2020-12-05_10h02.55.063,premup-three_ses-02_part-02_label-phase2,3.2.4,MacIntel,60,,,,,,,,,,,,,,,,,,,,,,,,,,,,,
right,0.447000027,0,167,1,0,1,0,1,0,1,0,240,49,1,239,1,4,2,stim/42.jpeg,Instruments,1,stim/objects/Instruments/frenchhorn.png,0.5,4,0.2,-0.15,left,31,2020-12-05_10h02.55.063,premup-three_ses-02_part-02_label-phase2,3.2.4,MacIntel,60,,,,,,,,,,,,,,,,,,,,,,,,,,,,,
left,0.644999981,0,168,1,0,1,0,1,0,1,0,240,184,1,239,3,1,1,stim/11.jpeg,HouseObjects,2,stim/objects/HouseObjects/dustpan2.png,0.9,1,-0.2,0.15,right,31,2020-12-05_10h02.55.063,premup-three_ses-02_part-02_label-phase2,3.2.4,MacIntel,60,,,,,,,,,,,,,,,,,,,,,,,,,,,,,
left,0.559000015,1,169,1,0,1,0,1,0,1,0,240,19,1,239,1,3,4,stim/34.jpeg,Instruments,1,stim/objects/Instruments/flute.png,0.5,1,-0.2,0.15,left,31,2020-12-05_10h02.55.063,premup-three_ses-02_part-02_label-phase2,3.2.4,MacIntel,60,,,,,,,,,,,,,,,,,,,,,,,,,,,,,
right,0.525000095,1,170,1,0,1,0,1,0,1,0,240,94,1,239,2,5,3,stim/53.jpeg,HouseObjects,2,stim/objects/HouseObjects/handbrush.png,0.7,3,-0.2,-0.15,right,31,2020-12-05_10h02.55.063,premup-three_ses-02_part-02_label-phase2,3.2.4,MacIntel,60,,,,,,,,,,,,,,,,,,,,,,,,,,,,,
left,0.600000143,1,171,1,0,1,0,1,0,1,0,240,219,1,239,3,2,4,stim/24.jpeg,Instruments,1,stim/objects/Instruments/hihat2.png,0.9,1,-0.2,0.15,left,31,2020-12-05_10h02.55.063,premup-three_ses-02_part-02_label-phase2,3.2.4,MacIntel,60,,,,,,,,,,,,,,,,,,,,,,,,,,,,,
right,0.513000011,0,172,1,0,1,0,1,0,1,0,240,18,1,239,1,3,3,stim/33.jpeg,Instruments,1,stim/objects/Instruments/electricguitar.png,0.5,1,-0.2,0.15,left,31,2020-12-05_10h02.55.063,premup-three_ses-02_part-02_label-phase2,3.2.4,MacIntel,60,,,,,,,,,,,,,,,,,,,,,,,,,,,,,
right,0.517999887,0,173,1,0,1,0,1,0,1,0,240,46,1,239,1,4,3,stim/43.jpeg,Instruments,1,stim/objects/Instruments/gong.png,0.5,4,0.2,-0.15,left,31,2020-12-05_10h02.55.063,premup-three_ses-02_part-02_label-phase2,3.2.4,MacIntel,60,,,,,,,,,,,,,,,,,,,,,,,,,,,,,
left,0.531999826,1,174,1,0,1,0,1,0,1,0,240,229,1,239,3,2,2,stim/22.jpeg,Instruments,1,stim/objects/Instruments/harmonica2.png,0.9,3,-0.2,-0.15,left,31,2020-12-05_10h02.55.063,premup-three_ses-02_part-02_label-phase2,3.2.4,MacIntel,60,,,,,,,,,,,,,,,,,,,,,,,,,,,,,
right,0.597000122,0,175,1,0,1,0,1,0,1,0,240,218,1,239,3,2,3,stim/23.jpeg,Instruments,1,stim/objects/Instruments/harp2.png,0.9,2,0.2,0.15,left,31,2020-12-05_10h02.55.063,premup-three_ses-02_part-02_label-phase2,3.2.4,MacIntel,60,,,,,,,,,,,,,,,,,,,,,,,,,,,,,
left,0.647000074,1,176,1,0,1,0,1,0,1,0,240,221,1,239,3,2,2,stim/22.jpeg,Instruments,1,stim/objects/Instruments/harmonica2.png,0.9,2,0.2,0.15,left,31,2020-12-05_10h02.55.063,premup-three_ses-02_part-02_label-phase2,3.2.4,MacIntel,60,,,,,,,,,,,,,,,,,,,,,,,,,,,,,
right,0.400000095,1,177,1,0,1,0,1,0,1,0,240,62,1,239,1,4,3,stim/43.jpeg,HouseObjects,2,stim/objects/HouseObjects/garbagebin.png,0.5,4,0.2,-0.15,right,31,2020-12-05_10h02.55.063,premup-three_ses-02_part-02_label-phase2,3.2.4,MacIntel,60,,,,,,,,,,,,,,,,,,,,,,,,,,,,,
right,0.398000002,0,178,1,0,1,0,1,0,1,0,240,55,1,239,1,4,4,stim/44.jpeg,Instruments,1,stim/objects/Instruments/grandpiano.png,0.5,2,0.2,0.15,left,31,2020-12-05_10h02.55.063,premup-three_ses-02_part-02_label-phase2,3.2.4,MacIntel,60,,,,,,,,,,,,,,,,,,,,,,,,,,,,,
right,0.463999987,1,179,1,0,1,0,1,0,1,0,240,158,1,239,2,6,3,stim/63.jpeg,HouseObjects,2,stim/objects/HouseObjects/dishsoap2.png,0.3,4,0.2,-0.15,right,31,2020-12-05_10h02.55.063,premup-three_ses-02_part-02_label-phase2,3.2.4,MacIntel,60,,,,,,,,,,,,,,,,,,,,,,,,,,,,,
left,0.480999947,1,180,1,0,1,0,1,0,1,0,240,81,1,239,2,5,2,stim/52.jpeg,Instruments,1,stim/objects/Instruments/harmonica.png,0.3,1,-0.2,0.15,left,31,2020-12-05_10h02.55.063,premup-three_ses-02_part-02_label-phase2,3.2.4,MacIntel,60,,,,,,,,,,,,,,,,,,,,,,,,,,,,,
right,0.330000162,0,181,1,0,1,0,1,0,1,0,240,143,1,239,2,6,4,stim/64.jpeg,Instruments,1,stim/objects/Instruments/flute2.png,0.7,4,0.2,-0.15,left,31,2020-12-05_10h02.55.063,premup-three_ses-02_part-02_label-phase2,3.2.4,MacIntel,60,,,,,,,,,,,,,,,,,,,,,,,,,,,,,
left,0.397000074,0,182,1,0,1,0,1,0,1,0,240,38,1,239,1,3,3,stim/33.jpeg,HouseObjects,2,stim/objects/HouseObjects/dishsoap.png,0.5,3,-0.2,-0.15,right,31,2020-12-05_10h02.55.063,premup-three_ses-02_part-02_label-phase2,3.2.4,MacIntel,60,,,,,,,,,,,,,,,,,,,,,,,,,,,,,
left,0.450999975,0,183,1,0,1,0,1,0,1,0,240,193,1,239,3,1,2,stim/12.jpeg,HouseObjects,2,stim/objects/HouseObjects/flyswatter2.png,0.9,3,-0.2,-0.15,right,31,2020-12-05_10h02.55.063,premup-three_ses-02_part-02_label-phase2,3.2.4,MacIntel,60,,,,,,,,,,,,,,,,,,,,,,,,,,,,,
right,0.355999947,1,184,1,0,1,0,1,0,1,0,240,114,1,239,2,5,3,stim/53.jpeg,HouseObjects,2,stim/objects/HouseObjects/handbrush.png,0.7,3,-0.2,-0.15,right,31,2020-12-05_10h02.55.063,premup-three_ses-02_part-02_label-phase2,3.2.4,MacIntel,60,,,,,,,,,,,,,,,,,,,,,,,,,,,,,
right,0.652999878,1,185,1,0,1,0,1,0,1,0,240,29,1,239,1,3,2,stim/32.jpeg,HouseObjects,2,stim/objects/HouseObjects/cushion.png,0.5,1,-0.2,0.15,right,31,2020-12-05_10h02.55.063,premup-three_ses-02_part-02_label-phase2,3.2.4,MacIntel,60,,,,,,,,,,,,,,,,,,,,,,,,,,,,,
right,0.450999975,1,186,1,0,1,0,1,0,1,0,240,182,1,239,3,1,3,stim/13.jpeg,HouseObjects,2,stim/objects/HouseObjects/garbagebin2.png,0.9,1,-0.2,0.15,right,31,2020-12-05_10h02.55.063,premup-three_ses-02_part-02_label-phase2,3.2.4,MacIntel,60,,,,,,,,,,,,,,,,,,,,,,,,,,,,,
left,0.596999884,1,187,1,0,1,0,1,0,1,0,240,206,1,239,3,2,3,stim/23.jpeg,Instruments,1,stim/objects/Instruments/harp2.png,0.9,3,-0.2,-0.15,left,31,2020-12-05_10h02.55.063,premup-three_ses-02_part-02_label-phase2,3.2.4,MacIntel,60,,,,,,,,,,,,,,,,,,,,,,,,,,,,,
right,0.368000031,1,188,1,0,1,0,1,0,1,0,240,63,1,239,1,4,4,stim/44.jpeg,HouseObjects,2,stim/objects/HouseObjects/glass.png,0.5,4,0.2,-0.15,right,31,2020-12-05_10h02.55.063,premup-three_ses-02_part-02_label-phase2,3.2.4,MacIntel,60,,,,,,,,,,,,,,,,,,,,,,,,,,,,,
right,0.78399992,1,189,1,0,1,0,1,0,1,0,240,21,1,239,1,3,2,stim/32.jpeg,HouseObjects,2,stim/objects/HouseObjects/cushion.png,0.5,1,-0.2,0.15,right,31,2020-12-05_10h02.55.063,premup-three_ses-02_part-02_label-phase2,3.2.4,MacIntel,60,,,,,,,,,,,,,,,,,,,,,,,,,,,,,
left,0.56799984,1,190,1,0,1,0,1,0,1,0,240,128,1,239,2,6,1,stim/61.jpeg,Instruments,1,stim/objects/Instruments/drums2.png,0.7,1,-0.2,0.15,left,31,2020-12-05_10h02.55.063,premup-three_ses-02_part-02_label-phase2,3.2.4,MacIntel,60,,,,,,,,,,,,,,,,,,,,,,,,,,,,,
right,0.419000149,1,191,1,0,1,0,1,0,1,0,240,39,1,239,1,3,4,stim/34.jpeg,HouseObjects,2,stim/objects/HouseObjects/doormat.png,0.5,3,-0.2,-0.15,right,31,2020-12-05_10h02.55.063,premup-three_ses-02_part-02_label-phase2,3.2.4,MacIntel,60,,,,,,,,,,,,,,,,,,,,,,,,,,,,,
left,0.44900012,0,192,1,0,1,0,1,0,1,0,240,198,1,239,3,1,3,stim/13.jpeg,HouseObjects,2,stim/objects/HouseObjects/garbagebin2.png,0.9,3,-0.2,-0.15,right,31,2020-12-05_10h02.55.063,premup-three_ses-02_part-02_label-phase2,3.2.4,MacIntel,60,,,,,,,,,,,,,,,,,,,,,,,,,,,,,
right,0.345000029,0,193,1,0,1,0,1,0,1,0,240,225,1,239,3,2,2,stim/22.jpeg,Instruments,1,stim/objects/Instruments/harmonica2.png,0.9,4,0.2,-0.15,left,31,2020-12-05_10h02.55.063,premup-three_ses-02_part-02_label-phase2,3.2.4,MacIntel,60,,,,,,,,,,,,,,,,,,,,,,,,,,,,,
right,0.485000134,1,194,1,0,1,0,1,0,1,0,240,168,1,239,3,1,1,stim/11.jpeg,HouseObjects,2,stim/objects/HouseObjects/dustpan2.png,0.9,3,-0.2,-0.15,right,31,2020-12-05_10h02.55.063,premup-three_ses-02_part-02_label-phase2,3.2.4,MacIntel,60,,,,,,,,,,,,,,,,,,,,,,,,,,,,,
right,0.388000011,1,195,1,0,1,0,1,0,1,0,240,188,1,239,3,1,1,stim/11.jpeg,HouseObjects,2,stim/objects/HouseObjects/dustpan2.png,0.9,4,0.2,-0.15,right,31,2020-12-05_10h02.55.063,premup-three_ses-02_part-02_label-phase2,3.2.4,MacIntel,60,,,,,,,,,,,,,,,,,,,,,,,,,,,,,
left,0.614000082,1,196,1,0,1,0,1,0,1,0,240,146,1,239,2,6,3,stim/63.jpeg,Instruments,1,stim/objects/Instruments/electricguitar2.png,0.7,4,0.2,-0.15,left,31,2020-12-05_10h02.55.063,premup-three_ses-02_part-02_label-phase2,3.2.4,MacIntel,60,,,,,,,,,,,,,,,,,,,,,,,,,,,,,
right,0.479000092,0,197,1,0,1,0,1,0,1,0,240,123,1,239,2,6,4,stim/64.jpeg,Instruments,1,stim/objects/Instruments/flute2.png,0.7,3,-0.2,-0.15,left,31,2020-12-05_10h02.55.063,premup-three_ses-02_part-02_label-phase2,3.2.4,MacIntel,60,,,,,,,,,,,,,,,,,,,,,,,,,,,,,
left,0.633000135,1,198,1,0,1,0,1,0,1,0,240,209,1,239,3,2,2,stim/22.jpeg,Instruments,1,stim/objects/Instruments/harmonica2.png,0.9,4,0.2,-0.15,left,31,2020-12-05_10h02.55.063,premup-three_ses-02_part-02_label-phase2,3.2.4,MacIntel,60,,,,,,,,,,,,,,,,,,,,,,,,,,,,,
right,0.48300004,1,199,1,0,1,0,1,0,1,0,240,155,1,239,2,6,4,stim/64.jpeg,HouseObjects,2,stim/objects/HouseObjects/doormat2.png,0.3,1,-0.2,0.15,right,31,2020-12-05_10h02.55.063,premup-three_ses-02_part-02_label-phase2,3.2.4,MacIntel,60,,,,,,,,,,,,,,,,,,,,,,,,,,,,,
right,0.549000025,1,200,1,0,1,0,1,0,1,0,240,171,1,239,3,1,4,stim/14.jpeg,HouseObjects,2,stim/objects/HouseObjects/glass2.png,0.9,2,0.2,0.15,right,31,2020-12-05_10h02.55.063,premup-three_ses-02_part-02_label-phase2,3.2.4,MacIntel,60,,,,,,,,,,,,,,,,,,,,,,,,,,,,,
left,0.566999912,1,201,1,0,1,0,1,0,1,0,240,204,1,239,3,2,1,stim/21.jpeg,Instruments,1,stim/objects/Instruments/guitarcase2.png,0.9,4,0.2,-0.15,left,31,2020-12-05_10h02.55.063,premup-three_ses-02_part-02_label-phase2,3.2.4,MacIntel,60,,,,,,,,,,,,,,,,,,,,,,,,,,,,,
right,0.529000044,1,202,1,0,1,0,1,0,1,0,240,151,1,239,2,6,4,stim/64.jpeg,HouseObjects,2,stim/objects/HouseObjects/doormat2.png,0.3,4,0.2,-0.15,right,31,2020-12-05_10h02.55.063,premup-three_ses-02_part-02_label-phase2,3.2.4,MacIntel,60,,,,,,,,,,,,,,,,,,,,,,,,,,,,,
left,0.51699996,1,203,1,0,1,0,1,0,1,0,240,220,1,239,3,2,1,stim/21.jpeg,Instruments,1,stim/objects/Instruments/guitarcase2.png,0.9,1,-0.2,0.15,left,31,2020-12-05_10h02.55.063,premup-three_ses-02_part-02_label-phase2,3.2.4,MacIntel,60,,,,,,,,,,,,,,,,,,,,,,,,,,,,,
left,0.799999952,1,204,1,0,1,0,1,0,1,0,240,122,1,239,2,6,3,stim/63.jpeg,Instruments,1,stim/objects/Instruments/electricguitar2.png,0.7,3,-0.2,-0.15,left,31,2020-12-05_10h02.55.063,premup-three_ses-02_part-02_label-phase2,3.2.4,MacIntel,60,,,,,,,,,,,,,,,,,,,,,,,,,,,,,
left,0.779000044,0,205,1,0,1,0,1,0,1,0,240,153,1,239,2,6,2,stim/62.jpeg,HouseObjects,2,stim/objects/HouseObjects/cushion2.png,0.3,2,0.2,0.15,right,31,2020-12-05_10h02.55.063,premup-three_ses-02_part-02_label-phase2,3.2.4,MacIntel,60,,,,,,,,,,,,,,,,,,,,,,,,,,,,,
right,0.5,1,206,1,0,1,0,1,0,1,0,240,174,1,239,3,1,3,stim/13.jpeg,HouseObjects,2,stim/objects/HouseObjects/garbagebin2.png,0.9,4,0.2,-0.15,right,31,2020-12-05_10h02.55.063,premup-three_ses-02_part-02_label-phase2,3.2.4,MacIntel,60,,,,,,,,,,,,,,,,,,,,,,,,,,,,,
right,0.748000145,1,207,1,0,1,0,1,0,1,0,240,100,1,239,2,5,1,stim/51.jpeg,HouseObjects,2,stim/objects/HouseObjects/glassmop.png,0.7,4,0.2,-0.15,right,31,2020-12-05_10h02.55.063,premup-three_ses-02_part-02_label-phase2,3.2.4,MacIntel,60,,,,,,,,,,,,,,,,,,,,,,,,,,,,,
right,0.618000031,1,208,1,0,1,0,1,0,1,0,240,60,1,239,1,4,1,stim/41.jpeg,HouseObjects,2,stim/objects/HouseObjects/dustpan.png,0.5,1,-0.2,0.15,right,31,2020-12-05_10h02.55.063,premup-three_ses-02_part-02_label-phase2,3.2.4,MacIntel,60,,,,,,,,,,,,,,,,,,,,,,,,,,,,,
left,0.717000008,0,209,1,0,1,0,1,0,1,0,240,35,1,239,1,3,4,stim/34.jpeg,HouseObjects,2,stim/objects/HouseObjects/doormat.png,0.5,3,-0.2,-0.15,right,31,2020-12-05_10h02.55.063,premup-three_ses-02_part-02_label-phase2,3.2.4,MacIntel,60,,,,,,,,,,,,,,,,,,,,,,,,,,,,,
right,0.452000141,0,210,1,0,1,0,1,0,1,0,240,129,1,239,2,6,2,stim/62.jpeg,Instruments,1,stim/objects/Instruments/electricdrumset2.png,0.7,3,-0.2,-0.15,left,31,2020-12-05_10h02.55.063,premup-three_ses-02_part-02_label-phase2,3.2.4,MacIntel,60,,,,,,,,,,,,,,,,,,,,,,,,,,,,,
left,0.634000063,1,211,1,0,1,0,1,0,1,0,240,205,1,239,3,2,2,stim/22.jpeg,Instruments,1,stim/objects/Instruments/harmonica2.png,0.9,2,0.2,0.15,left,31,2020-12-05_10h02.55.063,premup-three_ses-02_part-02_label-phase2,3.2.4,MacIntel,60,,,,,,,,,,,,,,,,,,,,,,,,,,,,,
right,0.480999947,0,212,1,0,1,0,1,0,1,0,240,86,1,239,2,5,3,stim/53.jpeg,Instruments,1,stim/objects/Instruments/harp.png,0.3,4,0.2,-0.15,left,31,2020-12-05_10h02.55.063,premup-three_ses-02_part-02_label-phase2,3.2.4,MacIntel,60,,,,,,,,,,,,,,,,,,,,,,,,,,,,,
left,0.513999939,0,213,1,0,1,0,1,0,1,0,240,30,1,239,1,3,3,stim/33.jpeg,HouseObjects,2,stim/objects/HouseObjects/dishsoap.png,0.5,3,-0.2,-0.15,right,31,2020-12-05_10h02.55.063,premup-three_ses-02_part-02_label-phase2,3.2.4,MacIntel,60,,,,,,,,,,,,,,,,,,,,,,,,,,,,,
right,0.857999802,1,214,1,0,1,0,1,0,1,0,240,71,1,239,1,4,4,stim/44.jpeg,HouseObjects,2,stim/objects/HouseObjects/glass.png,0.5,3,-0.2,-0.15,right,31,2020-12-05_10h02.55.063,premup-three_ses-02_part-02_label-phase2,3.2.4,MacIntel,60,,,,,,,,,,,,,,,,,,,,,,,,,,,,,
right,0.532000065,1,215,1,0,1,0,1,0,1,0,240,69,1,239,1,4,2,stim/42.jpeg,HouseObjects,2,stim/objects/HouseObjects/flyswatter.png,0.5,3,-0.2,-0.15,right,31,2020-12-05_10h02.55.063,premup-three_ses-02_part-02_label-phase2,3.2.4,MacIntel,60,,,,,,,,,,,,,,,,,,,,,,,,,,,,,
right,0.501999855,1,216,1,0,1,0,1,0,1,0,240,119,1,239,2,5,4,stim/54.jpeg,HouseObjects,2,stim/objects/HouseObjects/handvacuum.png,0.7,4,0.2,-0.15,right,31,2020-12-05_10h02.55.063,premup-three_ses-02_part-02_label-phase2,3.2.4,MacIntel,60,,,,,,,,,,,,,,,,,,,,,,,,,,,,,
right,0.481000185,0,217,1,0,1,0,1,0,1,0,240,13,1,239,1,3,2,stim/32.jpeg,Instruments,1,stim/objects/Instruments/electricdrumset.png,0.5,4,0.2,-0.15,left,31,2020-12-05_10h02.55.063,premup-three_ses-02_part-02_label-phase2,3.2.4,MacIntel,60,,,,,,,,,,,,,,,,,,,,,,,,,,,,,
left,0.443000078,0,218,1,0,1,0,1,0,1,0,240,22,1,239,1,3,3,stim/33.jpeg,HouseObjects,2,stim/objects/HouseObjects/dishsoap.png,0.5,3,-0.2,-0.15,right,31,2020-12-05_10h02.55.063,premup-three_ses-02_part-02_label-phase2,3.2.4,MacIntel,60,,,,,,,,,,,,,,,,,,,,,,,,,,,,,
right,0.404999971,1,219,1,0,1,0,1,0,1,0,240,164,1,239,3,1,1,stim/11.jpeg,HouseObjects,2,stim/objects/HouseObjects/dustpan2.png,0.9,1,-0.2,0.15,right,31,2020-12-05_10h02.55.063,premup-three_ses-02_part-02_label-phase2,3.2.4,MacIntel,60,,,,,,,,,,,,,,,,,,,,,,,,,,,,,
right,0.444000006,0,220,1,0,1,0,1,0,1,0,240,12,1,239,1,3,1,stim/31.jpeg,Instruments,1,stim/objects/Instruments/drums.png,0.5,2,0.2,0.15,left,31,2020-12-05_10h02.55.063,premup-three_ses-02_part-02_label-phase2,3.2.4,MacIntel,60,,,,,,,,,,,,,,,,,,,,,,,,,,,,,
left,0.813999891,1,221,1,0,1,0,1,0,1,0,240,224,1,239,3,2,1,stim/21.jpeg,Instruments,1,stim/objects/Instruments/guitarcase2.png,0.9,2,0.2,0.15,left,31,2020-12-05_10h02.55.063,premup-three_ses-02_part-02_label-phase2,3.2.4,MacIntel,60,,,,,,,,,,,,,,,,,,,,,,,,,,,,,
right,0.46600008,0,222,1,0,1,0,1,0,1,0,240,145,1,239,2,6,2,stim/62.jpeg,Instruments,1,stim/objects/Instruments/electricdrumset2.png,0.7,4,0.2,-0.15,left,31,2020-12-05_10h02.55.063,premup-three_ses-02_part-02_label-phase2,3.2.4,MacIntel,60,,,,,,,,,,,,,,,,,,,,,,,,,,,,,
left,0.563999891,0,223,1,0,1,0,1,0,1,0,240,238,1,239,3,2,3,stim/23.jpeg,HouseObjects,2,stim/objects/HouseObjects/handbrush2.png,0.1,4,0.2,-0.15,right,31,2020-12-05_10h02.55.063,premup-three_ses-02_part-02_label-phase2,3.2.4,MacIntel,60,,,,,,,,,,,,,,,,,,,,,,,,,,,,,
right,0.496000051,0,224,1,0,1,0,1,0,1,0,240,47,1,239,1,4,4,stim/44.jpeg,Instruments,1,stim/objects/Instruments/grandpiano.png,0.5,2,0.2,0.15,left,31,2020-12-05_10h02.55.063,premup-three_ses-02_part-02_label-phase2,3.2.4,MacIntel,60,,,,,,,,,,,,,,,,,,,,,,,,,,,,,
left,0.461999893,1,225,1,0,1,0,1,0,1,0,240,201,1,239,3,2,2,stim/22.jpeg,Instruments,1,stim/objects/Instruments/harmonica2.png,0.9,1,-0.2,0.15,left,31,2020-12-05_10h02.55.063,premup-three_ses-02_part-02_label-phase2,3.2.4,MacIntel,60,,,,,,,,,,,,,,,,,,,,,,,,,,,,,
right,0.463999987,0,226,1,0,1,0,1,0,1,0,240,163,1,239,3,1,4,stim/14.jpeg,Instruments,1,stim/objects/Instruments/grandpiano2.png,0.1,2,0.2,0.15,left,31,2020-12-05_10h02.55.063,premup-three_ses-02_part-02_label-phase2,3.2.4,MacIntel,60,,,,,,,,,,,,,,,,,,,,,,,,,,,,,
left,0.5,1,227,1,0,1,0,1,0,1,0,240,136,1,239,2,6,1,stim/61.jpeg,Instruments,1,stim/objects/Instruments/drums2.png,0.7,1,-0.2,0.15,left,31,2020-12-05_10h02.55.063,premup-three_ses-02_part-02_label-phase2,3.2.4,MacIntel,60,,,,,,,,,,,,,,,,,,,,,,,,,,,,,
left,0.462000132,0,228,1,0,1,0,1,0,1,0,240,169,1,239,3,1,2,stim/12.jpeg,HouseObjects,2,stim/objects/HouseObjects/flyswatter2.png,0.9,1,-0.2,0.15,right,31,2020-12-05_10h02.55.063,premup-three_ses-02_part-02_label-phase2,3.2.4,MacIntel,60,,,,,,,,,,,,,,,,,,,,,,,,,,,,,
right,0.645999908,1,229,1,0,1,0,1,0,1,0,240,108,1,239,2,5,1,stim/51.jpeg,HouseObjects,2,stim/objects/HouseObjects/glassmop.png,0.7,2,0.2,0.15,right,31,2020-12-05_10h02.55.063,premup-three_ses-02_part-02_label-phase2,3.2.4,MacIntel,60,,,,,,,,,,,,,,,,,,,,,,,,,,,,,
right,0.483999968,1,230,1,0,1,0,1,0,1,0,240,195,1,239,3,1,4,stim/14.jpeg,HouseObjects,2,stim/objects/HouseObjects/glass2.png,0.9,3,-0.2,-0.15,right,31,2020-12-05_10h02.55.063,premup-three_ses-02_part-02_label-phase2,3.2.4,MacIntel,60,,,,,,,,,,,,,,,,,,,,,,,,,,,,,
left,0.683000088,0,231,1,0,1,0,1,0,1,0,240,157,1,239,2,6,2,stim/62.jpeg,HouseObjects,2,stim/objects/HouseObjects/cushion2.png,0.3,1,-0.2,0.15,right,31,2020-12-05_10h02.55.063,premup-three_ses-02_part-02_label-phase2,3.2.4,MacIntel,60,,,,,,,,,,,,,,,,,,,,,,,,,,,,,
right,0.480000019,0,232,1,0,1,0,1,0,1,0,240,8,1,239,1,3,1,stim/31.jpeg,Instruments,1,stim/objects/Instruments/drums.png,0.5,1,-0.2,0.15,left,31,2020-12-05_10h02.55.063,premup-three_ses-02_part-02_label-phase2,3.2.4,MacIntel,60,,,,,,,,,,,,,,,,,,,,,,,,,,,,,
left,0.593999863,1,233,1,0,1,0,1,0,1,0,240,203,1,239,3,2,4,stim/24.jpeg,Instruments,1,stim/objects/Instruments/hihat2.png,0.9,1,-0.2,0.15,left,31,2020-12-05_10h02.55.063,premup-three_ses-02_part-02_label-phase2,3.2.4,MacIntel,60,,,,,,,,,,,,,,,,,,,,,,,,,,,,,
right,0.499000072,1,234,1,0,1,0,1,0,1,0,240,68,1,239,1,4,1,stim/41.jpeg,HouseObjects,2,stim/objects/HouseObjects/dustpan.png,0.5,4,0.2,-0.15,right,31,2020-12-05_10h02.55.063,premup-three_ses-02_part-02_label-phase2,3.2.4,MacIntel,60,,,,,,,,,,,,,,,,,,,,,,,,,,,,,
right,0.684999943,0,235,1,0,1,0,1,0,1,0,240,90,1,239,2,5,3,stim/53.jpeg,Instruments,1,stim/objects/Instruments/harp.png,0.3,1,-0.2,0.15,left,31,2020-12-05_10h02.55.063,premup-three_ses-02_part-02_label-phase2,3.2.4,MacIntel,60,,,,,,,,,,,,,,,,,,,,,,,,,,,,,
right,0.730999947,1,236,1,0,1,0,1,0,1,0,240,111,1,239,2,5,4,stim/54.jpeg,HouseObjects,2,stim/objects/HouseObjects/handvacuum.png,0.7,1,-0.2,0.15,right,31,2020-12-05_10h02.55.063,premup-three_ses-02_part-02_label-phase2,3.2.4,MacIntel,60,,,,,,,,,,,,,,,,,,,,,,,,,,,,,
left,0.582999945,0,237,1,0,1,0,1,0,1,0,240,20,1,239,1,3,1,stim/31.jpeg,HouseObjects,2,stim/objects/HouseObjects/coffee.png,0.5,1,-0.2,0.15,right,31,2020-12-05_10h02.55.063,premup-three_ses-02_part-02_label-phase2,3.2.4,MacIntel,60,,,,,,,,,,,,,,,,,,,,,,,,,,,,,
right,0.464999914,1,238,1,0,1,0,1,0,1,0,240,109,1,239,2,5,2,stim/52.jpeg,HouseObjects,2,stim/objects/HouseObjects/hairdryer.png,0.7,4,0.2,-0.15,right,31,2020-12-05_10h02.55.063,premup-three_ses-02_part-02_label-phase2,3.2.4,MacIntel,60,,,,,,,,,,,,,,,,,,,,,,,,,,,,,
right,0.569999933,0,239,1,0,1,0,1,0,1,0,240,85,1,239,2,5,2,stim/52.jpeg,Instruments,1,stim/objects/Instruments/harmonica.png,0.3,2,0.2,0.15,left,31,2020-12-05_10h02.55.063,premup-three_ses-02_part-02_label-phase2,3.2.4,MacIntel,60,,,,,,,,,,,,,,,,,,,,,,,,,,,,,
right,0.463999987,1,240,1,0,1,0,1,0,1,0,240,187,1,239,3,1,4,stim/14.jpeg,HouseObjects,2,stim/objects/HouseObjects/glass2.png,0.9,4,0.2,-0.15,right,31,2020-12-05_10h02.55.063,premup-three_ses-02_part-02_label-phase2,3.2.4,MacIntel,60,,,,,,,,,,,,,,,,,,,,,,,,,,,,,
,,,,1,0,1,0,1,0,,,,,,,,5,,stim/51.jpeg,,,,,,,,,31,2020-12-05_10h02.55.063,premup-three_ses-02_part-02_label-phase2,3.2.4,MacIntel,60,80,6.351999998,,,1,0,6,4,1,5,Household items,5,15,Music items,85,95,,,,,,,,,,,,,
,,,,1,0,1,0,1,0,,,,,,,,1,,stim/11.jpeg,,,,,,,,,31,2020-12-05_10h02.55.063,premup-three_ses-02_part-02_label-phase2,3.2.4,MacIntel,60,10,4.375999928,,,1,0,6,0,1,5,Music items,45,55,Household items,45,55,,,,,,,,,,,,,
,,,,1,0,1,0,1,0,,,,,,,,3,,stim/31.jpeg,,,,,,,,,31,2020-12-05_10h02.55.063,premup-three_ses-02_part-02_label-phase2,3.2.4,MacIntel,60,70,7.812000036,,,1,0,6,2,1,5,Music items,65,75,Household items,25,35,,,,,,,,,,,,,
,,,,1,0,1,0,1,0,,,,,,,,2,,stim/21.jpeg,,,,,,,,,31,2020-12-05_10h02.55.063,premup-three_ses-02_part-02_label-phase2,3.2.4,MacIntel,60,10,5.945999861,,,1,0,6,1,1,5,Household items,45,55,Music items,45,55,,,,,,,,,,,,,
,,,,1,0,1,0,1,0,,,,,,,,4,,stim/41.jpeg,,,,,,,,,31,2020-12-05_10h02.55.063,premup-three_ses-02_part-02_label-phase2,3.2.4,MacIntel,60,38,4.046000004,,,1,0,6,3,1,5,Music items,65,75,Household items,25,35,,,,,,,,,,,,,
,,,,1,0,1,0,1,0,,,,,,,,6,,stim/61.jpeg,,,,,,,,,31,2020-12-05_10h02.55.063,premup-three_ses-02_part-02_label-phase2,3.2.4,MacIntel,60,76,4.864000082,,,1,0,6,5,1,5,Music items,5,15,Household items,85,95,,,,,,,,,,,,,
,,,,1,0,1,0,1,0,,,,,,,,,,,,,,,,,,,31,2020-12-05_10h02.55.063,premup-three_ses-02_part-02_label-phase2,3.2.4,MacIntel,60,,,,,,,,,,,,,,,,,,,,,,,,,,,,,
,,0,241,,,,,,,,,,,,,1,4,3,stim/43.jpeg,Instruments,1,stim/objects/Instruments/cornet3.png,0.5,3,-0.2,-0.15,left,31,2020-12-05_10h02.55.063,premup-three_ses-02_part-02_label-phase2,3.2.4,MacIntel,60,,,,,,,,,,,,,,,,,1,0,330,34,1,329,2,,,,,,
left,0.634000063,1,242,,,,,,,,,,,,,3,2,3,stim/23.jpeg,Instruments,1,stim/objects/Instruments/marimba3.png,0.9,4,0.2,-0.15,left,31,2020-12-05_10h02.55.063,premup-three_ses-02_part-02_label-phase2,3.2.4,MacIntel,60,,,,,,,,,,,,,,,,,1,0,330,260,1,329,2,,,,,,
left,0.528000116,1,243,,,,,,,,,,,,,3,2,2,stim/22.jpeg,Instruments,1,stim/objects/Instruments/musicsheet3.png,0.9,4,0.2,-0.15,left,31,2020-12-05_10h02.55.063,premup-three_ses-02_part-02_label-phase2,3.2.4,MacIntel,60,,,,,,,,,,,,,,,,,1,0,330,267,1,329,2,,,,,,
right,0.576999903,1,244,,,,,,,,,,,,,2,5,4,stim/54.jpeg,HouseObjects,2,stim/objects/HouseObjects/clothesdryingrack3.png,0.7,1,-0.2,0.15,right,31,2020-12-05_10h02.55.063,premup-three_ses-02_part-02_label-phase2,3.2.4,MacIntel,60,,,,,,,,,,,,,,,,,1,0,330,75,1,329,2,,,,,,
right,0.531999826,1,245,,,,,,,,,,,,,1,4,4,stim/44.jpeg,HouseObjects,2,stim/objects/HouseObjects/saw3.png,0.5,2,0.2,0.15,right,31,2020-12-05_10h02.55.063,premup-three_ses-02_part-02_label-phase2,3.2.4,MacIntel,60,,,,,,,,,,,,,,,,,1,0,330,55,1,329,1,,,,,,
left,0.592000008,1,246,,,,,,,,,,,,,1,3,1,stim/31.jpeg,Instruments,1,stim/objects/Instruments/bassdrum3.png,0.5,3,-0.2,-0.15,left,31,2020-12-05_10h02.55.063,premup-three_ses-02_part-02_label-phase2,3.2.4,MacIntel,60,,,,,,,,,,,,,,,,,1,0,330,4,1,329,2,,,,,,
right,0.679000139,1,247,,,,,,,,,,,,,2,5,1,stim/51.jpeg,HouseObjects,2,stim/objects/HouseObjects/iron3.png,0.7,3,-0.2,-0.15,right,31,2020-12-05_10h02.55.063,premup-three_ses-02_part-02_label-phase2,3.2.4,MacIntel,60,,,,,,,,,,,,,,,,,1,0,330,72,1,329,2,,,,,,
right,0.593999863,1,248,,,,,,,,,,,,,3,1,2,stim/12.jpeg,HouseObjects,2,stim/objects/HouseObjects/knife3.png,0.9,1,-0.2,0.15,right,31,2020-12-05_10h02.55.063,premup-three_ses-02_part-02_label-phase2,3.2.4,MacIntel,60,,,,,,,,,,,,,,,,,1,0,330,215,1,329,2,,,,,,
right,0.446000099,1,249,,,,,,,,,,,,,3,1,4,stim/14.jpeg,HouseObjects,2,stim/objects/HouseObjects/knife3.png,0.9,3,-0.2,-0.15,right,31,2020-12-05_10h02.55.063,premup-three_ses-02_part-02_label-phase2,3.2.4,MacIntel,60,,,,,,,,,,,,,,,,,1,0,330,145,1,329,2,,,,,,
left,0.582999945,1,250,,,,,,,,,,,,,3,2,1,stim/21.jpeg,Instruments,1,stim/objects/Instruments/metronome3.png,0.9,4,0.2,-0.15,left,31,2020-12-05_10h02.55.063,premup-three_ses-02_part-02_label-phase2,3.2.4,MacIntel,60,,,,,,,,,,,,,,,,,1,0,330,246,1,329,2,,,,,,
right,0.414000034,1,251,,,,,,,,,,,,,3,1,4,stim/14.jpeg,HouseObjects,2,stim/objects/HouseObjects/match3.png,0.9,3,-0.2,-0.15,right,31,2020-12-05_10h02.55.063,premup-three_ses-02_part-02_label-phase2,3.2.4,MacIntel,60,,,,,,,,,,,,,,,,,1,0,330,197,1,329,2,,,,,,
right,0.463999987,1,252,,,,,,,,,,,,,3,1,3,stim/13.jpeg,HouseObjects,2,stim/objects/HouseObjects/match3.png,0.9,4,0.2,-0.15,right,31,2020-12-05_10h02.55.063,premup-three_ses-02_part-02_label-phase2,3.2.4,MacIntel,60,,,,,,,,,,,,,,,,,1,0,330,192,1,329,2,,,,,,
left,0.497999907,1,253,,,,,,,,,,,,,3,2,3,stim/23.jpeg,Instruments,1,stim/objects/Instruments/oboe3.png,0.9,3,-0.2,-0.15,left,31,2020-12-05_10h02.55.063,premup-three_ses-02_part-02_label-phase2,3.2.4,MacIntel,60,,,,,,,,,,,,,,,,,1,0,330,304,1,329,2,,,,,,
right,0.502000093,1,254,,,,,,,,,,,,,2,5,3,stim/53.jpeg,HouseObjects,2,stim/objects/HouseObjects/thread3.png,0.7,1,-0.2,0.15,right,31,2020-12-05_10h02.55.063,premup-three_ses-02_part-02_label-phase2,3.2.4,MacIntel,60,,,,,,,,,,,,,,,,,1,0,330,86,1,329,1,,,,,,
left,0.525000095,1,255,,,,,,,,,,,,,3,2,4,stim/24.jpeg,Instruments,1,stim/objects/Instruments/musicstand3.png,0.9,3,-0.2,-0.15,left,31,2020-12-05_10h02.55.063,premup-three_ses-02_part-02_label-phase2,3.2.4,MacIntel,60,,,,,,,,,,,,,,,,,1,0,330,233,1,329,2,,,,,,
right,0.49000001,1,256,,,,,,,,,,,,,1,4,1,stim/41.jpeg,HouseObjects,2,stim/objects/HouseObjects/bucket3.png,0.5,2,0.2,0.15,right,31,2020-12-05_10h02.55.063,premup-three_ses-02_part-02_label-phase2,3.2.4,MacIntel,60,,,,,,,,,,,,,,,,,1,0,330,48,1,329,2,,,,,,
left,0.482000113,1,257,,,,,,,,,,,,,3,2,3,stim/23.jpeg,Instruments,1,stim/objects/Instruments/musicsheet3.png,0.9,1,-0.2,0.15,left,31,2020-12-05_10h02.55.063,premup-three_ses-02_part-02_label-phase2,3.2.4,MacIntel,60,,,,,,,,,,,,,,,,,1,0,330,292,1,329,2,,,,,,
right,0.457000017,1,258,,,,,,,,,,,,,3,1,4,stim/14.jpeg,HouseObjects,2,stim/objects/HouseObjects/knife3.png,0.9,2,0.2,0.15,right,31,2020-12-05_10h02.55.063,premup-three_ses-02_part-02_label-phase2,3.2.4,MacIntel,60,,,,,,,,,,,,,,,,,1,0,330,205,1,329,2,,,,,,
right,0.36500001,0,259,,,,,,,,,,,,,3,2,2,stim/22.jpeg,Instruments,1,stim/objects/Instruments/musicsheet3.png,0.9,4,0.2,-0.15,left,31,2020-12-05_10h02.55.063,premup-three_ses-02_part-02_label-phase2,3.2.4,MacIntel,60,,,,,,,,,,,,,,,,,1,0,330,307,1,329,2,,,,,,
right,0.688999891,0,260,,,,,,,,,,,,,2,5,4,stim/54.jpeg,Instruments,1,stim/objects/Instruments/balalaika4.png,0.3,4,0.2,-0.15,left,31,2020-12-05_10h02.55.063,premup-three_ses-02_part-02_label-phase2,3.2.4,MacIntel,60,,,,,,,,,,,,,,,,,1,0,330,67,1,329,1,,,,,,
left,0.838999987,1,261,,,,,,,,,,,,,2,6,1,stim/61.jpeg,Instruments,1,stim/objects/Instruments/keyboard3.png,0.7,1,-0.2,0.15,left,31,2020-12-05_10h02.55.063,premup-three_ses-02_part-02_label-phase2,3.2.4,MacIntel,60,,,,,,,,,,,,,,,,,1,0,330,107,1,329,2,,,,,,
left,0.516000032,1,262,,,,,,,,,,,,,3,2,1,stim/21.jpeg,Instruments,1,stim/objects/Instruments/musicstand3.png,0.9,3,-0.2,-0.15,left,31,2020-12-05_10h02.55.063,premup-three_ses-02_part-02_label-phase2,3.2.4,MacIntel,60,,,,,,,,,,,,,,,,,1,0,330,298,1,329,2,,,,,,
left,0.531000137,1,263,,,,,,,,,,,,,3,2,1,stim/21.jpeg,Instruments,1,stim/objects/Instruments/musicsheet3.png,0.9,4,0.2,-0.15,left,31,2020-12-05_10h02.55.063,premup-three_ses-02_part-02_label-phase2,3.2.4,MacIntel,60,,,,,,,,,,,,,,,,,1,0,330,242,1,329,2,,,,,,
right,0.572000027,1,264,,,,,,,,,,,,,3,1,3,stim/13.jpeg,HouseObjects,2,stim/objects/HouseObjects/lintroller3.png,0.9,2,0.2,0.15,right,31,2020-12-05_10h02.55.063,premup-three_ses-02_part-02_label-phase2,3.2.4,MacIntel,60,,,,,,,,,,,,,,,,,1,0,330,196,1,329,2,,,,,,
right,0.602999926,0,265,,,,,,,,,,,,,1,4,2,stim/42.jpeg,Instruments,1,stim/objects/Instruments/clarinet3.png,0.5,2,0.2,0.15,left,31,2020-12-05_10h02.55.063,premup-three_ses-02_part-02_label-phase2,3.2.4,MacIntel,60,,,,,,,,,,,,,,,,,1,0,330,33,1,329,2,,,,,,
left,0.481999874,1,266,,,,,,,,,,,,,3,2,4,stim/24.jpeg,Instruments,1,stim/objects/Instruments/musicstand3.png,0.9,3,-0.2,-0.15,left,31,2020-12-05_10h02.55.063,premup-three_ses-02_part-02_label-phase2,3.2.4,MacIntel,60,,,,,,,,,,,,,,,,,1,0,330,253,1,329,2,,,,,,
right,0.447999954,1,267,,,,,,,,,,,,,3,1,3,stim/13.jpeg,HouseObjects,2,stim/objects/HouseObjects/match3.png,0.9,2,0.2,0.15,right,31,2020-12-05_10h02.55.063,premup-three_ses-02_part-02_label-phase2,3.2.4,MacIntel,60,,,,,,,,,,,,,,,,,1,0,330,212,1,329,2,,,,,,
left,0.634000063,0,268,,,,,,,,,,,,,2,6,3,stim/63.jpeg,HouseObjects,2,stim/objects/HouseObjects/key4.png,0.3,1,-0.2,0.15,right,31,2020-12-05_10h02.55.063,premup-three_ses-02_part-02_label-phase2,3.2.4,MacIntel,60,,,,,,,,,,,,,,,,,1,0,330,129,1,329,1,,,,,,
right,0.667000055,0,269,,,,,,,,,,,,,2,6,4,stim/64.jpeg,Instruments,1,stim/objects/Instruments/doublebass3.png,0.7,3,-0.2,-0.15,left,31,2020-12-05_10h02.55.063,premup-three_ses-02_part-02_label-phase2,3.2.4,MacIntel,60,,,,,,,,,,,,,,,,,1,0,330,106,1,329,2,,,,,,
left,0.68599987,0,270,,,,,,,,,,,,,1,3,3,stim/33.jpeg,HouseObjects,2,stim/objects/HouseObjects/barbecuelighter3.png,0.5,1,-0.2,0.15,right,31,2020-12-05_10h02.55.063,premup-three_ses-02_part-02_label-phase2,3.2.4,MacIntel,60,,,,,,,,,,,,,,,,,1,0,330,22,1,329,2,,,,,,
right,0.575000048,0,271,,,,,,,,,,,,,3,2,3,stim/23.jpeg,Instruments,1,stim/objects/Instruments/musicstand3.png,0.9,4,0.2,-0.15,left,31,2020-12-05_10h02.55.063,premup-three_ses-02_part-02_label-phase2,3.2.4,MacIntel,60,,,,,,,,,,,,,,,,,1,0,330,268,1,329,2,,,,,,
left,0.615999937,0,272,,,,,,,,,,,,,2,6,3,stim/63.jpeg,HouseObjects,2,stim/objects/HouseObjects/bottle4.png,0.3,2,0.2,0.15,right,31,2020-12-05_10h02.55.063,premup-three_ses-02_part-02_label-phase2,3.2.4,MacIntel,60,,,,,,,,,,,,,,,,,1,0,330,121,1,329,1,,,,,,
right,0.431999922,0,273,,,,,,,,,,,,,2,6,3,stim/63.jpeg,Instruments,1,stim/objects/Instruments/keyboard3.png,0.7,2,0.2,0.15,left,31,2020-12-05_10h02.55.063,premup-three_ses-02_part-02_label-phase2,3.2.4,MacIntel,60,,,,,,,,,,,,,,,,,1,0,330,97,1,329,2,,,,,,
left,0.470999956,0,274,,,,,,,,,,,,,1,4,4,stim/44.jpeg,HouseObjects,2,stim/objects/HouseObjects/teapot3.png,0.5,3,-0.2,-0.15,right,31,2020-12-05_10h02.55.063,premup-three_ses-02_part-02_label-phase2,3.2.4,MacIntel,60,,,,,,,,,,,,,,,,,1,0,330,59,1,329,1,,,,,,
right,0.424000025,1,275,,,,,,,,,,,,,1,4,4,stim/44.jpeg,HouseObjects,2,stim/objects/HouseObjects/broom3.png,0.5,4,0.2,-0.15,right,31,2020-12-05_10h02.55.063,premup-three_ses-02_part-02_label-phase2,3.2.4,MacIntel,60,,,,,,,,,,,,,,,,,1,0,330,47,1,329,2,,,,,,
right,0.621000051,1,276,,,,,,,,,,,,,1,4,3,stim/43.jpeg,HouseObjects,2,stim/objects/HouseObjects/spraybottle3.png,0.5,1,-0.2,0.15,right,31,2020-12-05_10h02.55.063,premup-three_ses-02_part-02_label-phase2,3.2.4,MacIntel,60,,,,,,,,,,,,,,,,,1,0,330,58,1,329,1,,,,,,
left,0.53399992,0,277,,,,,,,,,,,,,3,2,3,stim/23.jpeg,HouseObjects,2,stim/objects/HouseObjects/vacuumcleaner4.png,0.1,4,0.2,-0.15,right,31,2020-12-05_10h02.55.063,premup-three_ses-02_part-02_label-phase2,3.2.4,MacIntel,60,,,,,,,,,,,,,,,,,1,0,330,328,1,329,1,,,,,,
left,0.565000057,1,278,,,,,,,,,,,,,3,2,1,stim/21.jpeg,Instruments,1,stim/objects/Instruments/marimba3.png,0.9,2,0.2,0.15,left,31,2020-12-05_10h02.55.063,premup-three_ses-02_part-02_label-phase2,3.2.4,MacIntel,60,,,,,,,,,,,,,,,,,1,0,330,250,1,329,2,,,,,,
right,0.588000059,1,279,,,,,,,,,,,,,2,6,1,stim/61.jpeg,HouseObjects,2,stim/objects/HouseObjects/iron4.png,0.3,1,-0.2,0.15,right,31,2020-12-05_10h02.55.063,premup-three_ses-02_part-02_label-phase2,3.2.4,MacIntel,60,,,,,,,,,,,,,,,,,1,0,330,127,1,329,1,,,,,,
right,0.570000172,1,280,,,,,,,,,,,,,2,5,2,stim/52.jpeg,HouseObjects,2,stim/objects/HouseObjects/wateringcan3.png,0.7,4,0.2,-0.15,right,31,2020-12-05_10h02.55.063,premup-three_ses-02_part-02_label-phase2,3.2.4,MacIntel,60,,,,,,,,,,,,,,,,,1,0,330,89,1,329,1,,,,,,
left,0.541000128,0,281,,,,,,,,,,,,,2,6,3,stim/63.jpeg,HouseObjects,2,stim/objects/HouseObjects/clothesdryingrack4.png,0.3,3,-0.2,-0.15,right,31,2020-12-05_10h02.55.063,premup-three_ses-02_part-02_label-phase2,3.2.4,MacIntel,60,,,,,,,,,,,,,,,,,1,0,330,125,1,329,1,,,,,,
left,0.477999926,1,282,,,,,,,,,,,,,3,2,1,stim/21.jpeg,Instruments,1,stim/objects/Instruments/oboe3.png,0.9,2,0.2,0.15,left,31,2020-12-05_10h02.55.063,premup-three_ses-02_part-02_label-phase2,3.2.4,MacIntel,60,,,,,,,,,,,,,,,,,1,0,330,294,1,329,2,,,,,,
right,0.414000034,0,283,,,,,,,,,,,,,3,2,3,stim/23.jpeg,Instruments,1,stim/objects/Instruments/musicsheet3.png,0.9,4,0.2,-0.15,left,31,2020-12-05_10h02.55.063,premup-three_ses-02_part-02_label-phase2,3.2.4,MacIntel,60,,,,,,,,,,,,,,,,,1,0,330,252,1,329,2,,,,,,
right,0.534000158,0,284,,,,,,,,,,,,,3,1,1,stim/11.jpeg,Instruments,1,stim/objects/Instruments/oboe4.png,0.1,4,0.2,-0.15,left,31,2020-12-05_10h02.55.063,premup-three_ses-02_part-02_label-phase2,3.2.4,MacIntel,60,,,,,,,,,,,,,,,,,1,0,330,134,1,329,1,,,,,,
left,0.460999966,1,285,,,,,,,,,,,,,3,2,2,stim/22.jpeg,Instruments,1,stim/objects/Instruments/metronome3.png,0.9,3,-0.2,-0.15,left,31,2020-12-05_10h02.55.063,premup-three_ses-02_part-02_label-phase2,3.2.4,MacIntel,60,,,,,,,,,,,,,,,,,1,0,330,231,1,329,2,,,,,,
left,0.568000078,1,286,,,,,,,,,,,,,3,2,1,stim/21.jpeg,Instruments,1,stim/objects/Instruments/marimba3.png,0.9,2,0.2,0.15,left,31,2020-12-05_10h02.55.063,premup-three_ses-02_part-02_label-phase2,3.2.4,MacIntel,60,,,,,,,,,,,,,,,,,1,0,330,270,1,329,2,,,,,,
right,0.467999935,1,287,,,,,,,,,,,,,3,1,3,stim/13.jpeg,HouseObjects,2,stim/objects/HouseObjects/knife3.png,0.9,1,-0.2,0.15,right,31,2020-12-05_10h02.55.063,premup-three_ses-02_part-02_label-phase2,3.2.4,MacIntel,60,,,,,,,,,,,,,,,,,1,0,330,180,1,329,2,,,,,,
right,0.556999922,1,288,,,,,,,,,,,,,3,1,3,stim/13.jpeg,HouseObjects,2,stim/objects/HouseObjects/pan3.png,0.9,1,-0.2,0.15,right,31,2020-12-05_10h02.55.063,premup-three_ses-02_part-02_label-phase2,3.2.4,MacIntel,60,,,,,,,,,,,,,,,,,1,0,330,148,1,329,2,,,,,,
right,0.423000097,1,289,,,,,,,,,,,,,3,1,1,stim/11.jpeg,HouseObjects,2,stim/objects/HouseObjects/pan3.png,0.9,1,-0.2,0.15,right,31,2020-12-05_10h02.55.063,premup-three_ses-02_part-02_label-phase2,3.2.4,MacIntel,60,,,,,,,,,,,,,,,,,1,0,330,198,1,329,2,,,,,,
right,0.450000048,1,290,,,,,,,,,,,,,3,1,1,stim/11.jpeg,HouseObjects,2,stim/objects/HouseObjects/pitcher3.png,0.9,1,-0.2,0.15,right,31,2020-12-05_10h02.55.063,premup-three_ses-02_part-02_label-phase2,3.2.4,MacIntel,60,,,,,,,,,,,,,,,,,1,0,330,194,1,329,2,,,,,,
right,0.411000013,0,291,,,,,,,,,,,,,2,5,3,stim/53.jpeg,Instruments,1,stim/objects/Instruments/acousticguitar4.png,0.3,3,-0.2,-0.15,left,31,2020-12-05_10h02.55.063,premup-three_ses-02_part-02_label-phase2,3.2.4,MacIntel,60,,,,,,,,,,,,,,,,,1,0,330,66,1,329,1,,,,,,
right,0.536000013,1,292,,,,,,,,,,,,,1,4,1,stim/41.jpeg,HouseObjects,2,stim/objects/HouseObjects/scale3.png,0.5,1,-0.2,0.15,right,31,2020-12-05_10h02.55.063,premup-three_ses-02_part-02_label-phase2,3.2.4,MacIntel,60,,,,,,,,,,,,,,,,,1,0,330,56,1,329,1,,,,,,
right,0.597000122,1,293,,,,,,,,,,,,,3,1,3,stim/13.jpeg,HouseObjects,2,stim/objects/HouseObjects/knife3.png,0.9,1,-0.2,0.15,right,31,2020-12-05_10h02.55.063,premup-three_ses-02_part-02_label-phase2,3.2.4,MacIntel,60,,,,,,,,,,,,,,,,,1,0,330,200,1,329,2,,,,,,
left,0.480999947,1,294,,,,,,,,,,,,,3,2,3,stim/23.jpeg,Instruments,1,stim/objects/Instruments/marimba3.png,0.9,1,-0.2,0.15,left,31,2020-12-05_10h02.55.063,premup-three_ses-02_part-02_label-phase2,3.2.4,MacIntel,60,,,,,,,,,,,,,,,,,1,0,330,300,1,329,2,,,,,,
left,0.463000059,1,295,,,,,,,,,,,,,3,2,3,stim/23.jpeg,Instruments,1,stim/objects/Instruments/musicstand3.png,0.9,1,-0.2,0.15,left,31,2020-12-05_10h02.55.063,premup-three_ses-02_part-02_label-phase2,3.2.4,MacIntel,60,,,,,,,,,,,,,,,,,1,0,330,248,1,329,2,,,,,,
right,0.404000044,1,296,,,,,,,,,,,,,3,1,1,stim/11.jpeg,HouseObjects,2,stim/objects/HouseObjects/pan3.png,0.9,2,0.2,0.15,right,31,2020-12-05_10h02.55.063,premup-three_ses-02_part-02_label-phase2,3.2.4,MacIntel,60,,,,,,,,,,,,,,,,,1,0,330,178,1,329,2,,,,,,
left,0.606000185,0,297,,,,,,,,,,,,,1,3,2,stim/32.jpeg,HouseObjects,2,stim/objects/HouseObjects/safetypin3.png,0.5,3,-0.2,-0.15,right,31,2020-12-05_10h02.55.063,premup-three_ses-02_part-02_label-phase2,3.2.4,MacIntel,60,,,,,,,,,,,,,,,,,1,0,330,29,1,329,1,,,,,,
right,0.424000025,0,298,,,,,,,,,,,,,2,6,2,stim/62.jpeg,Instruments,1,stim/objects/Instruments/doublebass4.png,0.7,3,-0.2,-0.15,left,31,2020-12-05_10h02.55.063,premup-three_ses-02_part-02_label-phase2,3.2.4,MacIntel,60,,,,,,,,,,,,,,,,,1,0,330,116,1,329,1,,,,,,
right,0.519999981,1,299,,,,,,,,,,,,,3,1,4,stim/14.jpeg,HouseObjects,2,stim/objects/HouseObjects/pitcher3.png,0.9,1,-0.2,0.15,right,31,2020-12-05_10h02.55.063,premup-three_ses-02_part-02_label-phase2,3.2.4,MacIntel,60,,,,,,,,,,,,,,,,,1,0,330,189,1,329,2,,,,,,
left,0.55099988,0,300,,,,,,,,,,,,,3,2,3,stim/23.jpeg,HouseObjects,2,stim/objects/HouseObjects/saw4.png,0.1,2,0.2,0.15,right,31,2020-12-05_10h02.55.063,premup-three_ses-02_part-02_label-phase2,3.2.4,MacIntel,60,,,,,,,,,,,,,,,,,1,0,330,320,1,329,1,,,,,,
left,0.617000103,0,301,,,,,,,,,,,,,3,2,4,stim/24.jpeg,HouseObjects,2,stim/objects/HouseObjects/scale4.png,0.1,2,0.2,0.15,right,31,2020-12-05_10h02.55.063,premup-three_ses-02_part-02_label-phase2,3.2.4,MacIntel,60,,,,,,,,,,,,,,,,,1,0,330,321,1,329,1,,,,,,
right,0.475000143,0,302,,,,,,,,,,,,,1,4,3,stim/43.jpeg,Instruments,1,stim/objects/Instruments/timbal3.png,0.5,1,-0.2,0.15,left,31,2020-12-05_10h02.55.063,premup-three_ses-02_part-02_label-phase2,3.2.4,MacIntel,60,,,,,,,,,,,,,,,,,1,0,330,42,1,329,1,,,,,,
left,0.511000156,1,303,,,,,,,,,,,,,3,2,2,stim/22.jpeg,Instruments,1,stim/objects/Instruments/marimba3.png,0.9,3,-0.2,-0.15,left,31,2020-12-05_10h02.55.063,premup-three_ses-02_part-02_label-phase2,3.2.4,MacIntel,60,,,,,,,,,,,,,,,,,1,0,330,275,1,329,2,,,,,,
right,0.547999859,1,304,,,,,,,,,,,,,3,1,2,stim/12.jpeg,HouseObjects,2,stim/objects/HouseObjects/lintroller3.png,0.9,1,-0.2,0.15,right,31,2020-12-05_10h02.55.063,premup-three_ses-02_part-02_label-phase2,3.2.4,MacIntel,60,,,,,,,,,,,,,,,,,1,0,330,151,1,329,2,,,,,,
left,0.536000013,1,305,,,,,,,,,,,,,3,2,1,stim/21.jpeg,Instruments,1,stim/objects/Instruments/musicsheet3.png,0.9,3,-0.2,-0.15,left,31,2020-12-05_10h02.55.063,premup-three_ses-02_part-02_label-phase2,3.2.4,MacIntel,60,,,,,,,,,,,,,,,,,1,0,330,262,1,329,2,,,,,,
left,0.674000025,1,306,,,,,,,,,,,,,2,6,3,stim/63.jpeg,Instruments,1,stim/objects/Instruments/clarinet4.png,0.7,4,0.2,-0.15,left,31,2020-12-05_10h02.55.063,premup-three_ses-02_part-02_label-phase2,3.2.4,MacIntel,60,,,,,,,,,,,,,,,,,1,0,330,113,1,329,1,,,,,,
left,0.631000042,1,307,,,,,,,,,,,,,1,3,2,stim/32.jpeg,Instruments,1,stim/objects/Instruments/accordion3.png,0.5,1,-0.2,0.15,left,31,2020-12-05_10h02.55.063,premup-three_ses-02_part-02_label-phase2,3.2.4,MacIntel,60,,,,,,,,,,,,,,,,,1,0,330,5,1,329,2,,,,,,
left,0.53399992,0,308,,,,,,,,,,,,,1,3,1,stim/31.jpeg,HouseObjects,2,stim/objects/HouseObjects/ballofstring3.png,0.5,3,-0.2,-0.15,right,31,2020-12-05_10h02.55.063,premup-three_ses-02_part-02_label-phase2,3.2.4,MacIntel,60,,,,,,,,,,,,,,,,,1,0,330,16,1,329,2,,,,,,
right,0.743999958,0,309,,,,,,,,,,,,,2,5,1,stim/51.jpeg,Instruments,1,stim/objects/Instruments/banjo4.png,0.3,3,-0.2,-0.15,left,31,2020-12-05_10h02.55.063,premup-three_ses-02_part-02_label-phase2,3.2.4,MacIntel,60,,,,,,,,,,,,,,,,,1,0,330,68,1,329,1,,,,,,
left,0.506000042,1,310,,,,,,,,,,,,,3,2,2,stim/22.jpeg,Instruments,1,stim/objects/Instruments/marimba3.png,0.9,1,-0.2,0.15,left,31,2020-12-05_10h02.55.063,premup-three_ses-02_part-02_label-phase2,3.2.4,MacIntel,60,,,,,,,,,,,,,,,,,1,0,330,255,1,329,2,,,,,,
left,0.584000111,0,311,,,,,,,,,,,,,1,3,1,stim/31.jpeg,HouseObjects,2,stim/objects/HouseObjects/rug3.png,0.5,4,0.2,-0.15,right,31,2020-12-05_10h02.55.063,premup-three_ses-02_part-02_label-phase2,3.2.4,MacIntel,60,,,,,,,,,,,,,,,,,1,0,330,28,1,329,1,,,,,,
left,0.626999855,1,312,,,,,,,,,,,,,2,6,3,stim/63.jpeg,Instruments,1,stim/objects/Instruments/cymbal3.png,0.7,1,-0.2,0.15,left,31,2020-12-05_10h02.55.063,premup-three_ses-02_part-02_label-phase2,3.2.4,MacIntel,60,,,,,,,,,,,,,,,,,1,0,330,105,1,329,2,,,,,,
right,0.467000008,0,313,,,,,,,,,,,,,3,1,2,stim/12.jpeg,Instruments,1,stim/objects/Instruments/saxophone4.png,0.1,4,0.2,-0.15,left,31,2020-12-05_10h02.55.063,premup-three_ses-02_part-02_label-phase2,3.2.4,MacIntel,60,,,,,,,,,,,,,,,,,1,0,330,139,1,329,1,,,,,,
right,0.500999928,1,314,,,,,,,,,,,,,3,1,1,stim/11.jpeg,HouseObjects,2,stim/objects/HouseObjects/pitcher3.png,0.9,2,0.2,0.15,right,31,2020-12-05_10h02.55.063,premup-three_ses-02_part-02_label-phase2,3.2.4,MacIntel,60,,,,,,,,,,,,,,,,,1,0,330,154,1,329,2,,,,,,
right,0.779000044,0,315,,,,,,,,,,,,,2,5,1,stim/51.jpeg,Instruments,1,stim/objects/Instruments/trumpet3.png,0.3,2,0.2,0.15,left,31,2020-12-05_10h02.55.063,premup-three_ses-02_part-02_label-phase2,3.2.4,MacIntel,60,,,,,,,,,,,,,,,,,1,0,330,60,1,329,1,,,,,,
right,0.46600008,1,316,,,,,,,,,,,,,2,5,2,stim/52.jpeg,HouseObjects,2,stim/objects/HouseObjects/thermometer3.png,0.7,2,0.2,0.15,right,31,2020-12-05_10h02.55.063,premup-three_ses-02_part-02_label-phase2,3.2.4,MacIntel,60,,,,,,,,,,,,,,,,,1,0,330,85,1,329,1,,,,,,
left,0.56099987,1,317,,,,,,,,,,,,,3,2,1,stim/21.jpeg,Instruments,1,stim/objects/Instruments/musicsheet3.png,0.9,3,-0.2,-0.15,left,31,2020-12-05_10h02.55.063,premup-three_ses-02_part-02_label-phase2,3.2.4,MacIntel,60,,,,,,,,,,,,,,,,,1,0,330,302,1,329,2,,,,,,
right,0.416000128,1,318,,,,,,,,,,,,,3,1,2,stim/12.jpeg,HouseObjects,2,stim/objects/HouseObjects/lintroller3.png,0.9,4,0.2,-0.15,right,31,2020-12-05_10h02.55.063,premup-three_ses-02_part-02_label-phase2,3.2.4,MacIntel,60,,,,,,,,,,,,,,,,,1,0,330,191,1,329,2,,,,,,
left,0.588000059,1,319,,,,,,,,,,,,,3,2,4,stim/24.jpeg,Instruments,1,stim/objects/Instruments/violin4.png,0.9,3,-0.2,-0.15,left,31,2020-12-05_10h02.55.063,premup-three_ses-02_part-02_label-phase2,3.2.4,MacIntel,60,,,,,,,,,,,,,,,,,1,0,330,317,1,329,1,,,,,,
right,0.631999969,1,320,,,,,,,,,,,,,3,1,3,stim/13.jpeg,HouseObjects,2,stim/objects/HouseObjects/knife4.png,0.9,2,0.2,0.15,right,31,2020-12-05_10h02.55.063,premup-three_ses-02_part-02_label-phase2,3.2.4,MacIntel,60,,,,,,,,,,,,,,,,,1,0,330,220,1,329,1,,,,,,
right,0.389999866,1,321,,,,,,,,,,,,,1,4,2,stim/42.jpeg,HouseObjects,2,stim/objects/HouseObjects/clock3.png,0.5,4,0.2,-0.15,right,31,2020-12-05_10h02.55.063,premup-three_ses-02_part-02_label-phase2,3.2.4,MacIntel,60,,,,,,,,,,,,,,,,,1,0,330,49,1,329,2,,,,,,
left,0.54700017,1,322,,,,,,,,,,,,,3,2,1,stim/21.jpeg,Instruments,1,stim/objects/Instruments/metronome3.png,0.9,1,-0.2,0.15,left,31,2020-12-05_10h02.55.063,premup-three_ses-02_part-02_label-phase2,3.2.4,MacIntel,60,,,,,,,,,,,,,,,,,1,0,330,286,1,329,2,,,,,,
right,0.358999968,1,323,,,,,,,,,,,,,3,1,1,stim/11.jpeg,HouseObjects,2,stim/objects/HouseObjects/knife3.png,0.9,4,0.2,-0.15,right,31,2020-12-05_10h02.55.063,premup-three_ses-02_part-02_label-phase2,3.2.4,MacIntel,60,,,,,,,,,,,,,,,,,1,0,330,190,1,329,2,,,,,,
right,0.49000001,1,324,,,,,,,,,,,,,3,1,3,stim/13.jpeg,HouseObjects,2,stim/objects/HouseObjects/match3.png,0.9,4,0.2,-0.15,right,31,2020-12-05_10h02.55.063,premup-three_ses-02_part-02_label-phase2,3.2.4,MacIntel,60,,,,,,,,,,,,,,,,,1,0,330,172,1,329,2,,,,,,
right,0.463999987,0,325,,,,,,,,,,,,,1,4,3,stim/43.jpeg,Instruments,1,stim/objects/Instruments/clarinet3.png,0.5,2,0.2,0.15,left,31,2020-12-05_10h02.55.063,premup-three_ses-02_part-02_label-phase2,3.2.4,MacIntel,60,,,,,,,,,,,,,,,,,1,0,330,38,1,329,2,,,,,,
left,0.496000051,1,326,,,,,,,,,,,,,3,2,1,stim/21.jpeg,Instruments,1,stim/objects/Instruments/oboe3.png,0.9,4,0.2,-0.15,left,31,2020-12-05_10h02.55.063,premup-three_ses-02_part-02_label-phase2,3.2.4,MacIntel,60,,,,,,,,,,,,,,,,,1,0,330,254,1,329,2,,,,,,
left,0.554999828,1,327,,,,,,,,,,,,,3,2,3,stim/23.jpeg,Instruments,1,stim/objects/Instruments/metronome3.png,0.9,3,-0.2,-0.15,left,31,2020-12-05_10h02.55.063,premup-three_ses-02_part-02_label-phase2,3.2.4,MacIntel,60,,,,,,,,,,,,,,,,,1,0,330,236,1,329,2,,,,,,
left,0.467999935,1,328,,,,,,,,,,,,,3,2,1,stim/21.jpeg,Instruments,1,stim/objects/Instruments/musicstand3.png,0.9,3,-0.2,-0.15,left,31,2020-12-05_10h02.55.063,premup-three_ses-02_part-02_label-phase2,3.2.4,MacIntel,60,,,,,,,,,,,,,,,,,1,0,330,278,1,329,2,,,,,,
right,0.46600008,1,329,,,,,,,,,,,,,3,1,2,stim/12.jpeg,HouseObjects,2,stim/objects/HouseObjects/pitcher3.png,0.9,2,0.2,0.15,right,31,2020-12-05_10h02.55.063,premup-three_ses-02_part-02_label-phase2,3.2.4,MacIntel,60,,,,,,,,,,,,,,,,,1,0,330,219,1,329,2,,,,,,
right,0.444999933,1,330,,,,,,,,,,,,,3,1,4,stim/14.jpeg,HouseObjects,2,stim/objects/HouseObjects/match3.png,0.9,2,0.2,0.15,right,31,2020-12-05_10h02.55.063,premup-three_ses-02_part-02_label-phase2,3.2.4,MacIntel,60,,,,,,,,,,,,,,,,,1,0,330,217,1,329,2,,,,,,
right,0.451999903,1,331,,,,,,,,,,,,,1,4,4,stim/44.jpeg,HouseObjects,2,stim/objects/HouseObjects/bottle3.png,0.5,2,0.2,0.15,right,31,2020-12-05_10h02.55.063,premup-three_ses-02_part-02_label-phase2,3.2.4,MacIntel,60,,,,,,,,,,,,,,,,,1,0,330,51,1,329,2,,,,,,
right,0.488999844,1,332,,,,,,,,,,,,,3,1,1,stim/11.jpeg,HouseObjects,2,stim/objects/HouseObjects/pitcher3.png,0.9,2,0.2,0.15,right,31,2020-12-05_10h02.55.063,premup-three_ses-02_part-02_label-phase2,3.2.4,MacIntel,60,,,,,,,,,,,,,,,,,1,0,330,214,1,329,2,,,,,,
left,0.510999918,1,333,,,,,,,,,,,,,3,2,2,stim/22.jpeg,Instruments,1,stim/objects/Instruments/oboe3.png,0.9,1,-0.2,0.15,left,31,2020-12-05_10h02.55.063,premup-three_ses-02_part-02_label-phase2,3.2.4,MacIntel,60,,,,,,,,,,,,,,,,,1,0,330,239,1,329,2,,,,,,
right,0.404000044,0,334,,,,,,,,,,,,,1,4,4,stim/44.jpeg,Instruments,1,stim/objects/Instruments/cello3.png,0.5,3,-0.2,-0.15,left,31,2020-12-05_10h02.55.063,premup-three_ses-02_part-02_label-phase2,3.2.4,MacIntel,60,,,,,,,,,,,,,,,,,1,0,330,31,1,329,2,,,,,,
right,0.529999971,1,335,,,,,,,,,,,,,3,1,2,stim/12.jpeg,HouseObjects,2,stim/objects/HouseObjects/match3.png,0.9,3,-0.2,-0.15,right,31,2020-12-05_10h02.55.063,premup-three_ses-02_part-02_label-phase2,3.2.4,MacIntel,60,,,,,,,,,,,,,,,,,1,0,330,187,1,329,2,,,,,,
right,0.319999933,1,336,,,,,,,,,,,,,3,1,1,stim/11.jpeg,HouseObjects,2,stim/objects/HouseObjects/knife3.png,0.9,3,-0.2,-0.15,right,31,2020-12-05_10h02.55.063,premup-three_ses-02_part-02_label-phase2,3.2.4,MacIntel,60,,,,,,,,,,,,,,,,,1,0,330,150,1,329,2,,,,,,
right,0.434000015,1,337,,,,,,,,,,,,,2,5,3,stim/53.jpeg,HouseObjects,2,stim/objects/HouseObjects/ashtray4.png,0.7,3,-0.2,-0.15,right,31,2020-12-05_10h02.55.063,premup-three_ses-02_part-02_label-phase2,3.2.4,MacIntel,60,,,,,,,,,,,,,,,,,1,0,330,90,1,329,1,,,,,,
right,0.368000031,0,338,,,,,,,,,,,,,3,2,3,stim/23.jpeg,Instruments,1,stim/objects/Instruments/oboe3.png,0.9,3,-0.2,-0.15,left,31,2020-12-05_10h02.55.063,premup-three_ses-02_part-02_label-phase2,3.2.4,MacIntel,60,,,,,,,,,,,,,,,,,1,0,330,244,1,329,2,,,,,,
left,0.615999937,1,339,,,,,,,,,,,,,2,6,2,stim/62.jpeg,Instruments,1,stim/objects/Instruments/chime4.png,0.7,4,0.2,-0.15,left,31,2020-12-05_10h02.55.063,premup-three_ses-02_part-02_label-phase2,3.2.4,MacIntel,60,,,,,,,,,,,,,,,,,1,0,330,112,1,329,1,,,,,,
left,0.53399992,1,340,,,,,,,,,,,,,3,2,1,stim/21.jpeg,Instruments,1,stim/objects/Instruments/oboe3.png,0.9,1,-0.2,0.15,left,31,2020-12-05_10h02.55.063,premup-three_ses-02_part-02_label-phase2,3.2.4,MacIntel,60,,,,,,,,,,,,,,,,,1,0,330,274,1,329,2,,,,,,
right,0.551000118,0,341,,,,,,,,,,,,,1,4,4,stim/44.jpeg,Instruments,1,stim/objects/Instruments/cornet3.png,0.5,4,0.2,-0.15,left,31,2020-12-05_10h02.55.063,premup-three_ses-02_part-02_label-phase2,3.2.4,MacIntel,60,,,,,,,,,,,,,,,,,1,0,330,39,1,329,2,,,,,,
left,0.516000032,1,342,,,,,,,,,,,,,3,2,4,stim/24.jpeg,Instruments,1,stim/objects/Instruments/marimba3.png,0.9,1,-0.2,0.15,left,31,2020-12-05_10h02.55.063,premup-three_ses-02_part-02_label-phase2,3.2.4,MacIntel,60,,,,,,,,,,,,,,,,,1,0,330,265,1,329,2,,,,,,
left,0.453000069,0,343,,,,,,,,,,,,,1,3,4,stim/34.jpeg,HouseObjects,2,stim/objects/HouseObjects/rubbergloves3.png,0.5,3,-0.2,-0.15,right,31,2020-12-05_10h02.55.063,premup-three_ses-02_part-02_label-phase2,3.2.4,MacIntel,60,,,,,,,,,,,,,,,,,1,0,330,27,1,329,1,,,,,,
right,0.378999949,0,344,,,,,,,,,,,,,2,6,4,stim/64.jpeg,Instruments,1,stim/objects/Instruments/keyboard3.png,0.7,2,0.2,0.15,left,31,2020-12-05_10h02.55.063,premup-three_ses-02_part-02_label-phase2,3.2.4,MacIntel,60,,,,,,,,,,,,,,,,,1,0,330,102,1,329,2,,,,,,
right,0.556999922,1,345,,,,,,,,,,,,,3,1,3,stim/13.jpeg,HouseObjects,2,stim/objects/HouseObjects/knife3.png,0.9,2,0.2,0.15,right,31,2020-12-05_10h02.55.063,premup-three_ses-02_part-02_label-phase2,3.2.4,MacIntel,60,,,,,,,,,,,,,,,,,1,0,330,140,1,329,2,,,,,,
left,0.515000105,1,346,,,,,,,,,,,,,1,4,1,stim/41.jpeg,Instruments,1,stim/objects/Instruments/trombone3.png,0.5,3,-0.2,-0.15,left,31,2020-12-05_10h02.55.063,premup-three_ses-02_part-02_label-phase2,3.2.4,MacIntel,60,,,,,,,,,,,,,,,,,1,0,330,44,1,329,1,,,,,,
right,0.428999901,0,347,,,,,,,,,,,,,3,2,2,stim/22.jpeg,Instruments,1,stim/objects/Instruments/musicstand3.png,0.9,1,-0.2,0.15,left,31,2020-12-05_10h02.55.063,premup-three_ses-02_part-02_label-phase2,3.2.4,MacIntel,60,,,,,,,,,,,,,,,,,1,0,330,303,1,329,2,,,,,,
right,0.444999933,0,348,,,,,,,,,,,,,1,3,2,stim/32.jpeg,Instruments,1,stim/objects/Instruments/acousticguitar3.png,0.5,2,0.2,0.15,left,31,2020-12-05_10h02.55.063,premup-three_ses-02_part-02_label-phase2,3.2.4,MacIntel,60,,,,,,,,,,,,,,,,,1,0,330,1,1,329,2,,,,,,
right,0.582000017,1,349,,,,,,,,,,,,,3,1,4,stim/14.jpeg,HouseObjects,2,stim/objects/HouseObjects/lintroller3.png,0.9,2,0.2,0.15,right,31,2020-12-05_10h02.55.063,premup-three_ses-02_part-02_label-phase2,3.2.4,MacIntel,60,,,,,,,,,,,,,,,,,1,0,330,141,1,329,2,,,,,,
right,0.621999979,0,350,,,,,,,,,,,,,2,5,2,stim/52.jpeg,Instruments,1,stim/objects/Instruments/accordion4.png,0.3,1,-0.2,0.15,left,31,2020-12-05_10h02.55.063,premup-three_ses-02_part-02_label-phase2,3.2.4,MacIntel,60,,,,,,,,,,,,,,,,,1,0,330,65,1,329,1,,,,,,
left,0.766000032,0,351,,,,,,,,,,,,,1,3,1,stim/31.jpeg,HouseObjects,2,stim/objects/HouseObjects/bleachbottle3.png,0.5,4,0.2,-0.15,right,31,2020-12-05_10h02.55.063,premup-three_ses-02_part-02_label-phase2,3.2.4,MacIntel,60,,,,,,,,,,,,,,,,,1,0,330,24,1,329,2,,,,,,
right,0.501999855,1,352,,,,,,,,,,,,,3,1,3,stim/13.jpeg,HouseObjects,2,stim/objects/HouseObjects/pan3.png,0.9,3,-0.2,-0.15,right,31,2020-12-05_10h02.55.063,premup-three_ses-02_part-02_label-phase2,3.2.4,MacIntel,60,,,,,,,,,,,,,,,,,1,0,330,168,1,329,2,,,,,,
right,0.607000113,0,353,,,,,,,,,,,,,1,3,1,stim/31.jpeg,Instruments,1,stim/objects/Instruments/accordion3.png,0.5,1,-0.2,0.15,left,31,2020-12-05_10h02.55.063,premup-three_ses-02_part-02_label-phase2,3.2.4,MacIntel,60,,,,,,,,,,,,,,,,,1,0,330,0,1,329,2,,,,,,
left,0.518000126,1,354,,,,,,,,,,,,,3,2,3,stim/23.jpeg,Instruments,1,stim/objects/Instruments/tuba4.png,0.9,3,-0.2,-0.15,left,31,2020-12-05_10h02.55.063,premup-three_ses-02_part-02_label-phase2,3.2.4,MacIntel,60,,,,,,,,,,,,,,,,,1,0,330,316,1,329,1,,,,,,
right,0.514999866,1,355,,,,,,,,,,,,,3,1,1,stim/11.jpeg,HouseObjects,2,stim/objects/HouseObjects/match3.png,0.9,1,-0.2,0.15,right,31,2020-12-05_10h02.55.063,premup-three_ses-02_part-02_label-phase2,3.2.4,MacIntel,60,,,,,,,,,,,,,,,,,1,0,330,142,1,329,2,,,,,,
right,0.353000164,0,356,,,,,,,,,,,,,3,2,2,stim/22.jpeg,Instruments,1,stim/objects/Instruments/musicstand3.png,0.9,3,-0.2,-0.15,left,31,2020-12-05_10h02.55.063,premup-three_ses-02_part-02_label-phase2,3.2.4,MacIntel,60,,,,,,,,,,,,,,,,,1,0,330,263,1,329,2,,,,,,
left,0.480000019,1,357,,,,,,,,,,,,,3,2,2,stim/22.jpeg,Instruments,1,stim/objects/Instruments/musicsheet3.png,0.9,3,-0.2,-0.15,left,31,2020-12-05_10h02.55.063,premup-three_ses-02_part-02_label-phase2,3.2.4,MacIntel,60,,,,,,,,,,,,,,,,,1,0,330,287,1,329,2,,,,,,
right,0.542999983,1,358,,,,,,,,,,,,,3,1,3,stim/13.jpeg,HouseObjects,2,stim/objects/HouseObjects/pitcher4.png,0.9,3,-0.2,-0.15,right,31,2020-12-05_10h02.55.063,premup-three_ses-02_part-02_label-phase2,3.2.4,MacIntel,60,,,,,,,,,,,,,,,,,1,0,330,224,1,329,1,,,,,,
right,0.762000084,1,359,,,,,,,,,,,,,2,6,1,stim/61.jpeg,HouseObjects,2,stim/objects/HouseObjects/bucket4.png,0.3,3,-0.2,-0.15,right,31,2020-12-05_10h02.55.063,premup-three_ses-02_part-02_label-phase2,3.2.4,MacIntel,60,,,,,,,,,,,,,,,,,1,0,330,123,1,329,1,,,,,,
right,0.531000137,0,360,,,,,,,,,,,,,2,5,3,stim/53.jpeg,Instruments,1,stim/objects/Instruments/violin3.png,0.3,2,0.2,0.15,left,31,2020-12-05_10h02.55.063,premup-three_ses-02_part-02_label-phase2,3.2.4,MacIntel,60,,,,,,,,,,,,,,,,,1,0,330,62,1,329,1,,,,,,
right,0.519000053,1,361,,,,,,,,,,,,,3,1,3,stim/13.jpeg,HouseObjects,2,stim/objects/HouseObjects/match3.png,0.9,4,0.2,-0.15,right,31,2020-12-05_10h02.55.063,premup-three_ses-02_part-02_label-phase2,3.2.4,MacIntel,60,,,,,,,,,,,,,,,,,1,0,330,152,1,329,2,,,,,,
left,0.660000086,1,362,,,,,,,,,,,,,3,2,4,stim/24.jpeg,Instruments,1,stim/objects/Instruments/marimba3.png,0.9,4,0.2,-0.15,left,31,2020-12-05_10h02.55.063,premup-three_ses-02_part-02_label-phase2,3.2.4,MacIntel,60,,,,,,,,,,,,,,,,,1,0,330,305,1,329,2,,,,,,
right,0.560000181,1,363,,,,,,,,,,,,,3,1,1,stim/11.jpeg,HouseObjects,2,stim/objects/HouseObjects/pitcher3.png,0.9,4,0.2,-0.15,right,31,2020-12-05_10h02.55.063,premup-three_ses-02_part-02_label-phase2,3.2.4,MacIntel,60,,,,,,,,,,,,,,,,,1,0,330,174,1,329,2,,,,,,
right,0.585999966,1,364,,,,,,,,,,,,,1,4,3,stim/43.jpeg,HouseObjects,2,stim/objects/HouseObjects/blender3.png,0.5,2,0.2,0.15,right,31,2020-12-05_10h02.55.063,premup-three_ses-02_part-02_label-phase2,3.2.4,MacIntel,60,,,,,,,,,,,,,,,,,1,0,330,50,1,329,2,,,,,,
right,0.55099988,1,365,,,,,,,,,,,,,3,1,2,stim/12.jpeg,HouseObjects,2,stim/objects/HouseObjects/match3.png,0.9,2,0.2,0.15,right,31,2020-12-05_10h02.55.063,premup-three_ses-02_part-02_label-phase2,3.2.4,MacIntel,60,,,,,,,,,,,,,,,,,1,0,330,147,1,329,2,,,,,,
right,0.435000181,1,366,,,,,,,,,,,,,2,5,4,stim/54.jpeg,HouseObjects,2,stim/objects/HouseObjects/towel3.png,0.7,2,0.2,0.15,right,31,2020-12-05_10h02.55.063,premup-three_ses-02_part-02_label-phase2,3.2.4,MacIntel,60,,,,,,,,,,,,,,,,,1,0,330,87,1,329,1,,,,,,
right,0.451999903,1,367,,,,,,,,,,,,,3,1,2,stim/12.jpeg,HouseObjects,2,stim/objects/HouseObjects/lintroller3.png,0.9,3,-0.2,-0.15,right,31,2020-12-05_10h02.55.063,premup-three_ses-02_part-02_label-phase2,3.2.4,MacIntel,60,,,,,,,,,,,,,,,,,1,0,330,171,1,329,2,,,,,,
right,0.381000042,0,368,,,,,,,,,,,,,1,4,4,stim/44.jpeg,Instruments,1,stim/objects/Instruments/bassguitar3.png,0.5,2,0.2,0.15,left,31,2020-12-05_10h02.55.063,premup-three_ses-02_part-02_label-phase2,3.2.4,MacIntel,60,,,,,,,,,,,,,,,,,1,0,330,35,1,329,2,,,,,,
left,0.684000015,1,369,,,,,,,,,,,,,3,2,2,stim/22.jpeg,Instruments,1,stim/objects/Instruments/trumpet4.png,0.9,4,0.2,-0.15,left,31,2020-12-05_10h02.55.063,premup-three_ses-02_part-02_label-phase2,3.2.4,MacIntel,60,,,,,,,,,,,,,,,,,1,0,330,315,1,329,1,,,,,,
right,0.488999844,0,370,,,,,,,,,,,,,3,2,3,stim/23.jpeg,Instruments,1,stim/objects/Instruments/musicsheet3.png,0.9,1,-0.2,0.15,left,31,2020-12-05_10h02.55.063,premup-three_ses-02_part-02_label-phase2,3.2.4,MacIntel,60,,,,,,,,,,,,,,,,,1,0,330,272,1,329,2,,,,,,
right,0.779000044,1,371,,,,,,,,,,,,,2,5,1,stim/51.jpeg,HouseObjects,2,stim/objects/HouseObjects/clothespin3.png,0.7,2,0.2,0.15,right,31,2020-12-05_10h02.55.063,premup-three_ses-02_part-02_label-phase2,3.2.4,MacIntel,60,,,,,,,,,,,,,,,,,1,0,330,76,1,329,2,,,,,,
left,0.592000008,1,372,,,,,,,,,,,,,3,2,1,stim/21.jpeg,Instruments,1,stim/objects/Instruments/musicstand3.png,0.9,2,0.2,0.15,left,31,2020-12-05_10h02.55.063,premup-three_ses-02_part-02_label-phase2,3.2.4,MacIntel,60,,,,,,,,,,,,,,,,,1,0,330,258,1,329,2,,,,,,
left,0.569999933,0,373,,,,,,,,,,,,,2,5,2,stim/52.jpeg,HouseObjects,2,stim/objects/HouseObjects/clothespin3.png,0.7,1,-0.2,0.15,right,31,2020-12-05_10h02.55.063,premup-three_ses-02_part-02_label-phase2,3.2.4,MacIntel,60,,,,,,,,,,,,,,,,,1,0,330,81,1,329,2,,,,,,
right,0.400000095,0,374,,,,,,,,,,,,,3,1,2,stim/12.jpeg,Instruments,1,stim/objects/Instruments/panflute4.png,0.1,3,-0.2,-0.15,left,31,2020-12-05_10h02.55.063,premup-three_ses-02_part-02_label-phase2,3.2.4,MacIntel,60,,,,,,,,,,,,,,,,,1,0,330,135,1,329,1,,,,,,
left,0.483999968,1,375,,,,,,,,,,,,,3,2,1,stim/21.jpeg,Instruments,1,stim/objects/Instruments/musicsheet3.png,0.9,4,0.2,-0.15,left,31,2020-12-05_10h02.55.063,premup-three_ses-02_part-02_label-phase2,3.2.4,MacIntel,60,,,,,,,,,,,,,,,,,1,0,330,282,1,329,2,,,,,,
