key_resp_pract.keys,key_resp_pract.rt,trial_acc,trial_index,practice_loop.thisRepN,practice_loop.thisTrialN,practice_loop.thisN,practice_loop.thisIndex,practice_loop.ran,practice_loop.order,scn_condition,scn_cat,scn_inst,scn_file,obj_cat,obj_cat_num,obj_file,trial_cond,quadrant,obj_x,obj_y,corr_ans,participant,date,expName,psychopyVersion,OS,frameRate,key_resp_trial.keys,key_resp_trial.rt,iterations.thisRepN,iterations.thisTrialN,iterations.thisN,iterations.thisIndex,iterations.ran,iterations.order,task_innerloop.thisRepN,task_innerloop.thisTrialN,task_innerloop.thisN,task_innerloop.thisIndex,task_innerloop.ran,task_innerloop.order,iteration_index,rating_acc,slider.response,slider.rt,slider_2.response,slider_2.rt,ratings.thisRepN,ratings.thisTrialN,ratings.thisN,ratings.thisIndex,ratings.ran,ratings.order,obj_cat_top,min_resp_top,max_resp_top,obj_cat_bottom,min_resp_bottom,max_resp_bottom
right,1.832000017,1,1,1,0,240,73,1,239,1,6,2,stim/62.jpeg,Instruments,2,stim/objects/Instruments/musicsheet.png,0.5,1,-0.2,0.15,right,32,2020-12-06_09h38.33.601,premup-three_ses-01_part-01_label-phase1,3.2.4,Win32,60,,,,,,,,,,,,,,,,,,,,,,,,,,,,,,,,
right,1.212999821,1,2,1,0,240,177,1,239,3,3,2,stim/32.jpeg,Instruments,2,stim/objects/Instruments/musicsheet2.png,0.9,4,0.2,-0.15,right,32,2020-12-06_09h38.33.601,premup-three_ses-01_part-01_label-phase1,3.2.4,Win32,60,,,,,,,,,,,,,,,,,,,,,,,,,,,,,,,,
left,0.997999907,0,3,1,0,240,104,1,239,2,1,1,stim/11.jpeg,Instruments,2,stim/objects/Instruments/panflute.png,0.7,3,-0.2,-0.15,right,32,2020-12-06_09h38.33.601,premup-three_ses-01_part-01_label-phase1,3.2.4,Win32,60,,,,,,,,,,,,,,,,,,,,,,,,,,,,,,,,
right,1.631000042,1,4,1,0,240,92,1,239,2,1,1,stim/11.jpeg,Instruments,2,stim/objects/Instruments/panflute.png,0.7,1,-0.2,0.15,right,32,2020-12-06_09h38.33.601,premup-three_ses-01_part-01_label-phase1,3.2.4,Win32,60,,,,,,,,,,,,,,,,,,,,,,,,,,,,,,,,
left,0.813999891,0,5,1,0,240,22,1,239,1,5,3,stim/53.jpeg,Instruments,2,stim/objects/Instruments/maraca.png,0.5,3,-0.2,-0.15,right,32,2020-12-06_09h38.33.601,premup-three_ses-01_part-01_label-phase1,3.2.4,Win32,60,,,,,,,,,,,,,,,,,,,,,,,,,,,,,,,,
right,1.022000074,1,6,1,0,240,186,1,239,3,3,3,stim/33.jpeg,Instruments,2,stim/objects/Instruments/musicstand2.png,0.9,3,-0.2,-0.15,right,32,2020-12-06_09h38.33.601,premup-three_ses-01_part-01_label-phase1,3.2.4,Win32,60,,,,,,,,,,,,,,,,,,,,,,,,,,,,,,,,
right,0.819999933,1,7,1,0,240,76,1,239,1,6,1,stim/61.jpeg,Instruments,2,stim/objects/Instruments/metronome.png,0.5,3,-0.2,-0.15,right,32,2020-12-06_09h38.33.601,premup-three_ses-01_part-01_label-phase1,3.2.4,Win32,60,,,,,,,,,,,,,,,,,,,,,,,,,,,,,,,,
right,0.973999977,0,8,1,0,240,58,1,239,1,6,3,stim/63.jpeg,HouseObjects,1,stim/objects/HouseObjects/pan.png,0.5,1,-0.2,0.15,left,32,2020-12-06_09h38.33.601,premup-three_ses-01_part-01_label-phase1,3.2.4,Win32,60,,,,,,,,,,,,,,,,,,,,,,,,,,,,,,,,
,,0,9,1,0,240,130,1,239,2,2,3,stim/23.jpeg,HouseObjects,1,stim/objects/HouseObjects/key2.png,0.7,3,-0.2,-0.15,left,32,2020-12-06_09h38.33.601,premup-three_ses-01_part-01_label-phase1,3.2.4,Win32,60,,,,,,,,,,,,,,,,,,,,,,,,,,,,,,,,
,,0,10,1,0,240,28,1,239,1,5,1,stim/51.jpeg,Instruments,2,stim/objects/Instruments/keyboard.png,0.5,4,0.2,-0.15,right,32,2020-12-06_09h38.33.601,premup-three_ses-01_part-01_label-phase1,3.2.4,Win32,60,,,,,,,,,,,,,,,,,,,,,,,,,,,,,,,,
,,0,1,,,,,,,2,2,4,stim/24.jpeg,HouseObjects,1,stim/objects/HouseObjects/knife2.png,0.7,3,-0.2,-0.15,left,32,2020-12-06_09h38.33.601,premup-three_ses-01_part-01_label-phase1,3.2.4,Win32,60,right,1.058000088,4,0,4,0,1,3,1,0,240,143,1,239,,,,,,,,,,,,,,,,,,
,,1,2,,,,,,,2,2,2,stim/22.jpeg,HouseObjects,1,stim/objects/HouseObjects/ironingboard2.png,0.7,3,-0.2,-0.15,left,32,2020-12-06_09h38.33.601,premup-three_ses-01_part-01_label-phase1,3.2.4,Win32,60,left,1.368999958,4,0,4,0,1,3,1,0,240,129,1,239,,,,,,,,,,,,,,,,,,
,,1,3,,,,,,,1,5,3,stim/53.jpeg,HouseObjects,1,stim/objects/HouseObjects/key.png,0.5,4,0.2,-0.15,left,32,2020-12-06_09h38.33.601,premup-three_ses-01_part-01_label-phase1,3.2.4,Win32,60,left,1.046999931,4,0,4,0,1,3,1,0,240,18,1,239,,,,,,,,,,,,,,,,,,
,,1,4,,,,,,,1,5,3,stim/53.jpeg,HouseObjects,1,stim/objects/HouseObjects/key.png,0.5,1,-0.2,0.15,left,32,2020-12-06_09h38.33.601,premup-three_ses-01_part-01_label-phase1,3.2.4,Win32,60,left,0.782000065,4,0,4,0,1,3,1,0,240,2,1,239,,,,,,,,,,,,,,,,,,
,,0,5,,,,,,,1,5,3,stim/53.jpeg,Instruments,2,stim/objects/Instruments/maraca.png,0.5,4,0.2,-0.15,right,32,2020-12-06_09h38.33.601,premup-three_ses-01_part-01_label-phase1,3.2.4,Win32,60,left,0.679999828,4,0,4,0,1,3,1,0,240,38,1,239,,,,,,,,,,,,,,,,,,
,,1,6,,,,,,,1,6,3,stim/63.jpeg,Instruments,2,stim/objects/Instruments/musicstand.png,0.5,1,-0.2,0.15,right,32,2020-12-06_09h38.33.601,premup-three_ses-01_part-01_label-phase1,3.2.4,Win32,60,right,0.828999996,4,0,4,0,1,3,1,0,240,66,1,239,,,,,,,,,,,,,,,,,,
,,1,7,,,,,,,3,4,2,stim/42.jpeg,HouseObjects,1,stim/objects/HouseObjects/remote2.png,0.9,1,-0.2,0.15,left,32,2020-12-06_09h38.33.601,premup-three_ses-01_part-01_label-phase1,3.2.4,Win32,60,left,0.856000185,4,0,4,0,1,3,1,0,240,233,1,239,,,,,,,,,,,,,,,,,,
,,1,8,,,,,,,3,3,2,stim/32.jpeg,Instruments,2,stim/objects/Instruments/musicsheet2.png,0.9,3,-0.2,-0.15,right,32,2020-12-06_09h38.33.601,premup-three_ses-01_part-01_label-phase1,3.2.4,Win32,60,right,0.887000084,4,0,4,0,1,3,1,0,240,169,1,239,,,,,,,,,,,,,,,,,,
,,0,9,,,,,,,3,3,4,stim/34.jpeg,HouseObjects,1,stim/objects/HouseObjects/pitcher2.png,0.1,3,-0.2,-0.15,left,32,2020-12-06_09h38.33.601,premup-three_ses-01_part-01_label-phase1,3.2.4,Win32,60,right,0.986000061,4,0,4,0,1,3,1,0,240,163,1,239,,,,,,,,,,,,,,,,,,
,,1,10,,,,,,,2,2,2,stim/22.jpeg,Instruments,2,stim/objects/Instruments/laud2.png,0.3,4,0.2,-0.15,right,32,2020-12-06_09h38.33.601,premup-three_ses-01_part-01_label-phase1,3.2.4,Win32,60,right,1.588000059,4,0,4,0,1,3,1,0,240,149,1,239,,,,,,,,,,,,,,,,,,
,,0,11,,,,,,,3,3,3,stim/33.jpeg,Instruments,2,stim/objects/Instruments/musicstand2.png,0.9,2,0.2,0.15,right,32,2020-12-06_09h38.33.601,premup-three_ses-01_part-01_label-phase1,3.2.4,Win32,60,left,1.436999798,4,0,4,0,1,3,1,0,240,182,1,239,,,,,,,,,,,,,,,,,,
,,0,12,,,,,,,2,1,3,stim/13.jpeg,Instruments,2,stim/objects/Instruments/record.png,0.7,4,0.2,-0.15,right,32,2020-12-06_09h38.33.601,premup-three_ses-01_part-01_label-phase1,3.2.4,Win32,60,left,1.146000147,4,0,4,0,1,3,1,0,240,110,1,239,,,,,,,,,,,,,,,,,,
,,0,13,,,,,,,3,4,4,stim/44.jpeg,HouseObjects,1,stim/objects/HouseObjects/rug2.png,0.9,2,0.2,0.15,left,32,2020-12-06_09h38.33.601,premup-three_ses-01_part-01_label-phase1,3.2.4,Win32,60,right,0.900999784,4,0,4,0,1,3,1,0,240,227,1,239,,,,,,,,,,,,,,,,,,
,,0,14,,,,,,,3,3,4,stim/34.jpeg,Instruments,2,stim/objects/Instruments/oboe2.png,0.9,1,-0.2,0.15,right,32,2020-12-06_09h38.33.601,premup-three_ses-01_part-01_label-phase1,3.2.4,Win32,60,,,4,0,4,0,1,3,1,0,240,199,1,239,,,,,,,,,,,,,,,,,,
,,1,15,,,,,,,3,4,3,stim/43.jpeg,HouseObjects,1,stim/objects/HouseObjects/rubbergloves2.png,0.9,3,-0.2,-0.15,left,32,2020-12-06_09h38.33.601,premup-three_ses-01_part-01_label-phase1,3.2.4,Win32,60,left,0.654999971,4,0,4,0,1,3,1,0,240,206,1,239,,,,,,,,,,,,,,,,,,
,,0,16,,,,,,,3,3,1,stim/31.jpeg,Instruments,2,stim/objects/Instruments/metronome2.png,0.9,1,-0.2,0.15,right,32,2020-12-06_09h38.33.601,premup-three_ses-01_part-01_label-phase1,3.2.4,Win32,60,left,1.133000135,4,0,4,0,1,3,1,0,240,196,1,239,,,,,,,,,,,,,,,,,,
,,1,17,,,,,,,1,6,1,stim/61.jpeg,Instruments,2,stim/objects/Instruments/metronome.png,0.5,3,-0.2,-0.15,right,32,2020-12-06_09h38.33.601,premup-three_ses-01_part-01_label-phase1,3.2.4,Win32,60,right,0.726999998,4,0,4,0,1,3,1,0,240,76,1,239,,,,,,,,,,,,,,,,,,
,,1,18,,,,,,,3,4,1,stim/41.jpeg,HouseObjects,1,stim/objects/HouseObjects/recyclingbin2.png,0.9,1,-0.2,0.15,left,32,2020-12-06_09h38.33.601,premup-three_ses-01_part-01_label-phase1,3.2.4,Win32,60,left,0.894999981,4,0,4,0,1,3,1,0,240,224,1,239,,,,,,,,,,,,,,,,,,
,,0,19,,,,,,,2,1,2,stim/12.jpeg,Instruments,2,stim/objects/Instruments/pipepiano.png,0.7,1,-0.2,0.15,right,32,2020-12-06_09h38.33.601,premup-three_ses-01_part-01_label-phase1,3.2.4,Win32,60,left,0.733999968,4,0,4,0,1,3,1,0,240,93,1,239,,,,,,,,,,,,,,,,,,
,,0,20,,,,,,,1,5,1,stim/51.jpeg,Instruments,2,stim/objects/Instruments/keyboard.png,0.5,1,-0.2,0.15,right,32,2020-12-06_09h38.33.601,premup-three_ses-01_part-01_label-phase1,3.2.4,Win32,60,left,1.065000057,4,0,4,0,1,3,1,0,240,32,1,239,,,,,,,,,,,,,,,,,,
,,0,21,,,,,,,3,4,1,stim/41.jpeg,HouseObjects,1,stim/objects/HouseObjects/recyclingbin2.png,0.9,3,-0.2,-0.15,left,32,2020-12-06_09h38.33.601,premup-three_ses-01_part-01_label-phase1,3.2.4,Win32,60,right,1.140999794,4,0,4,0,1,3,1,0,240,212,1,239,,,,,,,,,,,,,,,,,,
,,0,22,,,,,,,3,4,1,stim/41.jpeg,Instruments,2,stim/objects/Instruments/panflute2.png,0.1,1,-0.2,0.15,right,32,2020-12-06_09h38.33.601,premup-three_ses-01_part-01_label-phase1,3.2.4,Win32,60,left,1.213000059,4,0,4,0,1,3,1,0,240,236,1,239,,,,,,,,,,,,,,,,,,
,,1,23,,,,,,,2,2,1,stim/21.jpeg,HouseObjects,1,stim/objects/HouseObjects/iron2.png,0.7,1,-0.2,0.15,left,32,2020-12-06_09h38.33.601,premup-three_ses-01_part-01_label-phase1,3.2.4,Win32,60,left,1.718999863,4,0,4,0,1,3,1,0,240,136,1,239,,,,,,,,,,,,,,,,,,
,,1,24,,,,,,,2,1,1,stim/11.jpeg,Instruments,2,stim/objects/Instruments/panflute.png,0.7,2,0.2,0.15,right,32,2020-12-06_09h38.33.601,premup-three_ses-01_part-01_label-phase1,3.2.4,Win32,60,right,1.124000072,4,0,4,0,1,3,1,0,240,96,1,239,,,,,,,,,,,,,,,,,,
,,1,25,,,,,,,1,5,2,stim/52.jpeg,Instruments,2,stim/objects/Instruments/laud.png,0.5,2,0.2,0.15,right,32,2020-12-06_09h38.33.601,premup-three_ses-01_part-01_label-phase1,3.2.4,Win32,60,right,1.013000011,4,0,4,0,1,3,1,0,240,29,1,239,,,,,,,,,,,,,,,,,,
,,1,26,,,,,,,1,5,4,stim/54.jpeg,Instruments,2,stim/objects/Instruments/marimba.png,0.5,2,0.2,0.15,right,32,2020-12-06_09h38.33.601,premup-three_ses-01_part-01_label-phase1,3.2.4,Win32,60,right,0.532999992,4,0,4,0,1,3,1,0,240,27,1,239,,,,,,,,,,,,,,,,,,
,,1,27,,,,,,,2,1,3,stim/13.jpeg,HouseObjects,1,stim/objects/HouseObjects/rubbergloves.png,0.3,1,-0.2,0.15,left,32,2020-12-06_09h38.33.601,premup-three_ses-01_part-01_label-phase1,3.2.4,Win32,60,left,0.768000126,4,0,4,0,1,3,1,0,240,90,1,239,,,,,,,,,,,,,,,,,,
,,0,28,,,,,,,1,5,1,stim/51.jpeg,HouseObjects,1,stim/objects/HouseObjects/iron.png,0.5,2,0.2,0.15,left,32,2020-12-06_09h38.33.601,premup-three_ses-01_part-01_label-phase1,3.2.4,Win32,60,right,0.5,4,0,4,0,1,3,1,0,240,12,1,239,,,,,,,,,,,,,,,,,,
,,1,29,,,,,,,1,6,2,stim/62.jpeg,HouseObjects,1,stim/objects/HouseObjects/match.png,0.5,3,-0.2,-0.15,left,32,2020-12-06_09h38.33.601,premup-three_ses-01_part-01_label-phase1,3.2.4,Win32,60,left,0.523000002,4,0,4,0,1,3,1,0,240,41,1,239,,,,,,,,,,,,,,,,,,
,,1,30,,,,,,,2,2,2,stim/22.jpeg,HouseObjects,1,stim/objects/HouseObjects/ironingboard2.png,0.7,1,-0.2,0.15,left,32,2020-12-06_09h38.33.601,premup-three_ses-01_part-01_label-phase1,3.2.4,Win32,60,left,0.858999968,4,0,4,0,1,3,1,0,240,133,1,239,,,,,,,,,,,,,,,,,,
,,0,31,,,,,,,1,6,4,stim/64.jpeg,HouseObjects,1,stim/objects/HouseObjects/pitcher.png,0.5,4,0.2,-0.15,left,32,2020-12-06_09h38.33.601,premup-three_ses-01_part-01_label-phase1,3.2.4,Win32,60,right,0.506999969,4,0,4,0,1,3,1,0,240,51,1,239,,,,,,,,,,,,,,,,,,
,,0,32,,,,,,,1,5,4,stim/54.jpeg,HouseObjects,1,stim/objects/HouseObjects/knife.png,0.5,4,0.2,-0.15,left,32,2020-12-06_09h38.33.601,premup-three_ses-01_part-01_label-phase1,3.2.4,Win32,60,right,0.977999926,4,0,4,0,1,3,1,0,240,3,1,239,,,,,,,,,,,,,,,,,,
,,1,33,,,,,,,1,6,4,stim/64.jpeg,Instruments,2,stim/objects/Instruments/oboe.png,0.5,3,-0.2,-0.15,right,32,2020-12-06_09h38.33.601,premup-three_ses-01_part-01_label-phase1,3.2.4,Win32,60,right,0.781999826,4,0,4,0,1,3,1,0,240,63,1,239,,,,,,,,,,,,,,,,,,
,,1,34,,,,,,,1,5,2,stim/52.jpeg,HouseObjects,1,stim/objects/HouseObjects/ironingboard.png,0.5,3,-0.2,-0.15,left,32,2020-12-06_09h38.33.601,premup-three_ses-01_part-01_label-phase1,3.2.4,Win32,60,left,0.633999825,4,0,4,0,1,3,1,0,240,5,1,239,,,,,,,,,,,,,,,,,,
,,1,35,,,,,,,2,2,1,stim/21.jpeg,HouseObjects,1,stim/objects/HouseObjects/iron2.png,0.7,1,-0.2,0.15,left,32,2020-12-06_09h38.33.601,premup-three_ses-01_part-01_label-phase1,3.2.4,Win32,60,left,1.148999929,4,0,4,0,1,3,1,0,240,120,1,239,,,,,,,,,,,,,,,,,,
,,1,36,,,,,,,1,5,1,stim/51.jpeg,HouseObjects,1,stim/objects/HouseObjects/iron.png,0.5,1,-0.2,0.15,left,32,2020-12-06_09h38.33.601,premup-three_ses-01_part-01_label-phase1,3.2.4,Win32,60,left,0.623000145,4,0,4,0,1,3,1,0,240,8,1,239,,,,,,,,,,,,,,,,,,
,,0,37,,,,,,,3,3,1,stim/31.jpeg,Instruments,2,stim/objects/Instruments/metronome2.png,0.9,1,-0.2,0.15,right,32,2020-12-06_09h38.33.601,premup-three_ses-01_part-01_label-phase1,3.2.4,Win32,60,left,0.98300004,4,0,4,0,1,3,1,0,240,164,1,239,,,,,,,,,,,,,,,,,,
,,1,38,,,,,,,1,5,4,stim/54.jpeg,HouseObjects,1,stim/objects/HouseObjects/knife.png,0.5,3,-0.2,-0.15,left,32,2020-12-06_09h38.33.601,premup-three_ses-01_part-01_label-phase1,3.2.4,Win32,60,left,0.776000023,4,0,4,0,1,3,1,0,240,15,1,239,,,,,,,,,,,,,,,,,,
,,0,39,,,,,,,3,4,1,stim/41.jpeg,HouseObjects,1,stim/objects/HouseObjects/recyclingbin2.png,0.9,1,-0.2,0.15,left,32,2020-12-06_09h38.33.601,premup-three_ses-01_part-01_label-phase1,3.2.4,Win32,60,right,1.22300005,4,0,4,0,1,3,1,0,240,208,1,239,,,,,,,,,,,,,,,,,,
,,1,40,,,,,,,2,2,4,stim/24.jpeg,HouseObjects,1,stim/objects/HouseObjects/knife2.png,0.7,3,-0.2,-0.15,left,32,2020-12-06_09h38.33.601,premup-three_ses-01_part-01_label-phase1,3.2.4,Win32,60,left,0.761999846,4,0,4,0,1,3,1,0,240,139,1,239,,,,,,,,,,,,,,,,,,
,,0,41,,,,,,,3,4,3,stim/43.jpeg,HouseObjects,1,stim/objects/HouseObjects/rubbergloves2.png,0.9,4,0.2,-0.15,left,32,2020-12-06_09h38.33.601,premup-three_ses-01_part-01_label-phase1,3.2.4,Win32,60,right,1.511000156,4,0,4,0,1,3,1,0,240,202,1,239,,,,,,,,,,,,,,,,,,
,,0,42,,,,,,,3,3,4,stim/34.jpeg,Instruments,2,stim/objects/Instruments/oboe2.png,0.9,2,0.2,0.15,right,32,2020-12-06_09h38.33.601,premup-three_ses-01_part-01_label-phase1,3.2.4,Win32,60,left,1.241999865,4,0,4,0,1,3,1,0,240,175,1,239,,,,,,,,,,,,,,,,,,
,,0,43,,,,,,,2,1,3,stim/13.jpeg,Instruments,2,stim/objects/Instruments/record.png,0.7,4,0.2,-0.15,right,32,2020-12-06_09h38.33.601,premup-three_ses-01_part-01_label-phase1,3.2.4,Win32,60,left,1.215999842,4,0,4,0,1,3,1,0,240,114,1,239,,,,,,,,,,,,,,,,,,
,,0,44,,,,,,,3,4,3,stim/43.jpeg,Instruments,2,stim/objects/Instruments/record2.png,0.1,3,-0.2,-0.15,right,32,2020-12-06_09h38.33.601,premup-three_ses-01_part-01_label-phase1,3.2.4,Win32,60,left,1.240999937,4,0,4,0,1,3,1,0,240,238,1,239,,,,,,,,,,,,,,,,,,
,,1,45,,,,,,,2,1,3,stim/13.jpeg,Instruments,2,stim/objects/Instruments/record.png,0.7,4,0.2,-0.15,right,32,2020-12-06_09h38.33.601,premup-three_ses-01_part-01_label-phase1,3.2.4,Win32,60,right,0.901000023,4,0,4,0,1,3,1,0,240,106,1,239,,,,,,,,,,,,,,,,,,
,,1,46,,,,,,,1,6,4,stim/64.jpeg,Instruments,2,stim/objects/Instruments/oboe.png,0.5,2,0.2,0.15,right,32,2020-12-06_09h38.33.601,premup-three_ses-01_part-01_label-phase1,3.2.4,Win32,60,right,0.985000134,4,0,4,0,1,3,1,0,240,67,1,239,,,,,,,,,,,,,,,,,,
,,0,47,,,,,,,3,3,4,stim/34.jpeg,Instruments,2,stim/objects/Instruments/oboe2.png,0.9,4,0.2,-0.15,right,32,2020-12-06_09h38.33.601,premup-three_ses-01_part-01_label-phase1,3.2.4,Win32,60,,,4,0,4,0,1,3,1,0,240,179,1,239,,,,,,,,,,,,,,,,,,
,,1,48,,,,,,,1,6,2,stim/62.jpeg,HouseObjects,1,stim/objects/HouseObjects/match.png,0.5,1,-0.2,0.15,left,32,2020-12-06_09h38.33.601,premup-three_ses-01_part-01_label-phase1,3.2.4,Win32,60,left,0.663000107,4,0,4,0,1,3,1,0,240,53,1,239,,,,,,,,,,,,,,,,,,
,,0,49,,,,,,,2,2,1,stim/21.jpeg,Instruments,2,stim/objects/Instruments/keyboard2.png,0.3,4,0.2,-0.15,right,32,2020-12-06_09h38.33.601,premup-three_ses-01_part-01_label-phase1,3.2.4,Win32,60,left,0.747999907,4,0,4,0,1,3,1,0,240,152,1,239,,,,,,,,,,,,,,,,,,
,,0,50,,,,,,,2,1,2,stim/12.jpeg,Instruments,2,stim/objects/Instruments/pipepiano.png,0.7,1,-0.2,0.15,right,32,2020-12-06_09h38.33.601,premup-three_ses-01_part-01_label-phase1,3.2.4,Win32,60,left,0.729000092,4,0,4,0,1,3,1,0,240,113,1,239,,,,,,,,,,,,,,,,,,
,,1,51,,,,,,,3,3,2,stim/32.jpeg,Instruments,2,stim/objects/Instruments/musicsheet2.png,0.9,4,0.2,-0.15,right,32,2020-12-06_09h38.33.601,premup-three_ses-01_part-01_label-phase1,3.2.4,Win32,60,right,0.953000069,4,0,4,0,1,3,1,0,240,165,1,239,,,,,,,,,,,,,,,,,,
,,0,52,,,,,,,3,4,4,stim/44.jpeg,Instruments,2,stim/objects/Instruments/record_player2.png,0.1,3,-0.2,-0.15,right,32,2020-12-06_09h38.33.601,premup-three_ses-01_part-01_label-phase1,3.2.4,Win32,60,left,0.730999947,4,0,4,0,1,3,1,0,240,239,1,239,,,,,,,,,,,,,,,,,,
,,0,53,,,,,,,2,2,4,stim/24.jpeg,Instruments,2,stim/objects/Instruments/marimba2.png,0.3,3,-0.2,-0.15,right,32,2020-12-06_09h38.33.601,premup-three_ses-01_part-01_label-phase1,3.2.4,Win32,60,left,0.65899992,4,0,4,0,1,3,1,0,240,151,1,239,,,,,,,,,,,,,,,,,,
,,1,54,,,,,,,1,6,1,stim/61.jpeg,Instruments,2,stim/objects/Instruments/metronome.png,0.5,3,-0.2,-0.15,right,32,2020-12-06_09h38.33.601,premup-three_ses-01_part-01_label-phase1,3.2.4,Win32,60,right,0.618000031,4,0,4,0,1,3,1,0,240,68,1,239,,,,,,,,,,,,,,,,,,
,,1,55,,,,,,,3,4,2,stim/42.jpeg,HouseObjects,1,stim/objects/HouseObjects/remote2.png,0.9,3,-0.2,-0.15,left,32,2020-12-06_09h38.33.601,premup-three_ses-01_part-01_label-phase1,3.2.4,Win32,60,left,0.601999998,4,0,4,0,1,3,1,0,240,229,1,239,,,,,,,,,,,,,,,,,,
,,1,56,,,,,,,2,2,1,stim/21.jpeg,HouseObjects,1,stim/objects/HouseObjects/iron2.png,0.7,3,-0.2,-0.15,left,32,2020-12-06_09h38.33.601,premup-three_ses-01_part-01_label-phase1,3.2.4,Win32,60,left,0.594000101,4,0,4,0,1,3,1,0,240,140,1,239,,,,,,,,,,,,,,,,,,
,,1,57,,,,,,,2,2,3,stim/23.jpeg,HouseObjects,1,stim/objects/HouseObjects/key2.png,0.7,4,0.2,-0.15,left,32,2020-12-06_09h38.33.601,premup-three_ses-01_part-01_label-phase1,3.2.4,Win32,60,left,0.779000044,4,0,4,0,1,3,1,0,240,122,1,239,,,,,,,,,,,,,,,,,,
,,0,58,,,,,,,3,4,3,stim/43.jpeg,HouseObjects,1,stim/objects/HouseObjects/rubbergloves2.png,0.9,2,0.2,0.15,left,32,2020-12-06_09h38.33.601,premup-three_ses-01_part-01_label-phase1,3.2.4,Win32,60,right,1.215999842,4,0,4,0,1,3,1,0,240,214,1,239,,,,,,,,,,,,,,,,,,
,,0,59,,,,,,,1,6,1,stim/61.jpeg,HouseObjects,1,stim/objects/HouseObjects/lintroller.png,0.5,2,0.2,0.15,left,32,2020-12-06_09h38.33.601,premup-three_ses-01_part-01_label-phase1,3.2.4,Win32,60,right,0.904000044,4,0,4,0,1,3,1,0,240,48,1,239,,,,,,,,,,,,,,,,,,
,,0,60,,,,,,,3,3,4,stim/34.jpeg,Instruments,2,stim/objects/Instruments/oboe2.png,0.9,2,0.2,0.15,right,32,2020-12-06_09h38.33.601,premup-three_ses-01_part-01_label-phase1,3.2.4,Win32,60,left,0.798000097,4,0,4,0,1,3,1,0,240,171,1,239,,,,,,,,,,,,,,,,,,
,,0,61,,,,,,,2,1,1,stim/11.jpeg,Instruments,2,stim/objects/Instruments/panflute.png,0.7,1,-0.2,0.15,right,32,2020-12-06_09h38.33.601,premup-three_ses-01_part-01_label-phase1,3.2.4,Win32,60,left,0.760999918,4,0,4,0,1,3,1,0,240,92,1,239,,,,,,,,,,,,,,,,,,
,,0,62,,,,,,,3,4,4,stim/44.jpeg,HouseObjects,1,stim/objects/HouseObjects/rug2.png,0.9,4,0.2,-0.15,left,32,2020-12-06_09h38.33.601,premup-three_ses-01_part-01_label-phase1,3.2.4,Win32,60,right,1.138999939,4,0,4,0,1,3,1,0,240,235,1,239,,,,,,,,,,,,,,,,,,
,,0,63,,,,,,,1,5,3,stim/53.jpeg,Instruments,2,stim/objects/Instruments/maraca.png,0.5,3,-0.2,-0.15,right,32,2020-12-06_09h38.33.601,premup-three_ses-01_part-01_label-phase1,3.2.4,Win32,60,left,0.911999941,4,0,4,0,1,3,1,0,240,30,1,239,,,,,,,,,,,,,,,,,,
,,0,64,,,,,,,2,1,2,stim/12.jpeg,HouseObjects,1,stim/objects/HouseObjects/remote.png,0.3,2,0.2,0.15,left,32,2020-12-06_09h38.33.601,premup-three_ses-01_part-01_label-phase1,3.2.4,Win32,60,right,0.784000158,4,0,4,0,1,3,1,0,240,85,1,239,,,,,,,,,,,,,,,,,,
,,1,65,,,,,,,1,5,1,stim/51.jpeg,HouseObjects,1,stim/objects/HouseObjects/iron.png,0.5,1,-0.2,0.15,left,32,2020-12-06_09h38.33.601,premup-three_ses-01_part-01_label-phase1,3.2.4,Win32,60,left,0.912999868,4,0,4,0,1,3,1,0,240,16,1,239,,,,,,,,,,,,,,,,,,
,,1,66,,,,,,,2,2,3,stim/23.jpeg,HouseObjects,1,stim/objects/HouseObjects/key2.png,0.7,2,0.2,0.15,left,32,2020-12-06_09h38.33.601,premup-three_ses-01_part-01_label-phase1,3.2.4,Win32,60,left,0.733999968,4,0,4,0,1,3,1,0,240,146,1,239,,,,,,,,,,,,,,,,,,
,,1,67,,,,,,,3,4,1,stim/41.jpeg,HouseObjects,1,stim/objects/HouseObjects/recyclingbin2.png,0.9,2,0.2,0.15,left,32,2020-12-06_09h38.33.601,premup-three_ses-01_part-01_label-phase1,3.2.4,Win32,60,left,0.593999863,4,0,4,0,1,3,1,0,240,216,1,239,,,,,,,,,,,,,,,,,,
,,1,68,,,,,,,2,2,4,stim/24.jpeg,HouseObjects,1,stim/objects/HouseObjects/knife2.png,0.7,2,0.2,0.15,left,32,2020-12-06_09h38.33.601,premup-three_ses-01_part-01_label-phase1,3.2.4,Win32,60,left,0.634000063,4,0,4,0,1,3,1,0,240,135,1,239,,,,,,,,,,,,,,,,,,
,,1,69,,,,,,,2,2,3,stim/23.jpeg,HouseObjects,1,stim/objects/HouseObjects/key2.png,0.7,3,-0.2,-0.15,left,32,2020-12-06_09h38.33.601,premup-three_ses-01_part-01_label-phase1,3.2.4,Win32,60,left,0.726999998,4,0,4,0,1,3,1,0,240,142,1,239,,,,,,,,,,,,,,,,,,
,,1,70,,,,,,,2,1,4,stim/14.jpeg,HouseObjects,1,stim/objects/HouseObjects/rug.png,0.3,2,0.2,0.15,left,32,2020-12-06_09h38.33.601,premup-three_ses-01_part-01_label-phase1,3.2.4,Win32,60,left,0.861000061,4,0,4,0,1,3,1,0,240,87,1,239,,,,,,,,,,,,,,,,,,
,,1,71,,,,,,,3,3,3,stim/33.jpeg,Instruments,2,stim/objects/Instruments/musicstand2.png,0.9,2,0.2,0.15,right,32,2020-12-06_09h38.33.601,premup-three_ses-01_part-01_label-phase1,3.2.4,Win32,60,right,1.355000019,4,0,4,0,1,3,1,0,240,190,1,239,,,,,,,,,,,,,,,,,,
,,1,72,,,,,,,1,5,2,stim/52.jpeg,Instruments,2,stim/objects/Instruments/laud.png,0.5,4,0.2,-0.15,right,32,2020-12-06_09h38.33.601,premup-three_ses-01_part-01_label-phase1,3.2.4,Win32,60,right,0.554999828,4,0,4,0,1,3,1,0,240,37,1,239,,,,,,,,,,,,,,,,,,
,,0,73,,,,,,,2,1,1,stim/11.jpeg,Instruments,2,stim/objects/Instruments/panflute.png,0.7,3,-0.2,-0.15,right,32,2020-12-06_09h38.33.601,premup-three_ses-01_part-01_label-phase1,3.2.4,Win32,60,left,0.697999954,4,0,4,0,1,3,1,0,240,100,1,239,,,,,,,,,,,,,,,,,,
,,0,74,,,,,,,1,6,1,stim/61.jpeg,HouseObjects,1,stim/objects/HouseObjects/lintroller.png,0.5,2,0.2,0.15,left,32,2020-12-06_09h38.33.601,premup-three_ses-01_part-01_label-phase1,3.2.4,Win32,60,right,0.68200016,4,0,4,0,1,3,1,0,240,52,1,239,,,,,,,,,,,,,,,,,,
,,1,75,,,,,,,1,6,4,stim/64.jpeg,Instruments,2,stim/objects/Instruments/oboe.png,0.5,3,-0.2,-0.15,right,32,2020-12-06_09h38.33.601,premup-three_ses-01_part-01_label-phase1,3.2.4,Win32,60,right,0.868999958,4,0,4,0,1,3,1,0,240,79,1,239,,,,,,,,,,,,,,,,,,
,,1,76,,,,,,,3,4,2,stim/42.jpeg,HouseObjects,1,stim/objects/HouseObjects/remote2.png,0.9,2,0.2,0.15,left,32,2020-12-06_09h38.33.601,premup-three_ses-01_part-01_label-phase1,3.2.4,Win32,60,left,0.996999979,4,0,4,0,1,3,1,0,240,213,1,239,,,,,,,,,,,,,,,,,,
,,0,77,,,,,,,3,3,1,stim/31.jpeg,Instruments,2,stim/objects/Instruments/metronome2.png,0.9,2,0.2,0.15,right,32,2020-12-06_09h38.33.601,premup-three_ses-01_part-01_label-phase1,3.2.4,Win32,60,left,1.132000208,4,0,4,0,1,3,1,0,240,180,1,239,,,,,,,,,,,,,,,,,,
,,1,78,,,,,,,3,4,4,stim/44.jpeg,HouseObjects,1,stim/objects/HouseObjects/rug2.png,0.9,4,0.2,-0.15,left,32,2020-12-06_09h38.33.601,premup-three_ses-01_part-01_label-phase1,3.2.4,Win32,60,left,0.611999989,4,0,4,0,1,3,1,0,240,211,1,239,,,,,,,,,,,,,,,,,,
,,1,79,,,,,,,2,2,2,stim/22.jpeg,HouseObjects,1,stim/objects/HouseObjects/ironingboard2.png,0.7,3,-0.2,-0.15,left,32,2020-12-06_09h38.33.601,premup-three_ses-01_part-01_label-phase1,3.2.4,Win32,60,left,0.639999866,4,0,4,0,1,3,1,0,240,145,1,239,,,,,,,,,,,,,,,,,,
,,1,80,,,,,,,2,1,2,stim/12.jpeg,HouseObjects,1,stim/objects/HouseObjects/remote.png,0.3,1,-0.2,0.15,left,32,2020-12-06_09h38.33.601,premup-three_ses-01_part-01_label-phase1,3.2.4,Win32,60,left,0.988999844,4,0,4,0,1,3,1,0,240,89,1,239,,,,,,,,,,,,,,,,,,
,,1,81,,,,,,,3,3,2,stim/32.jpeg,Instruments,2,stim/objects/Instruments/musicsheet2.png,0.9,4,0.2,-0.15,right,32,2020-12-06_09h38.33.601,premup-three_ses-01_part-01_label-phase1,3.2.4,Win32,60,right,0.845999956,4,0,4,0,1,3,1,0,240,189,1,239,,,,,,,,,,,,,,,,,,
,,1,82,,,,,,,3,3,3,stim/33.jpeg,Instruments,2,stim/objects/Instruments/musicstand2.png,0.9,4,0.2,-0.15,right,32,2020-12-06_09h38.33.601,premup-three_ses-01_part-01_label-phase1,3.2.4,Win32,60,right,0.836999893,4,0,4,0,1,3,1,0,240,178,1,239,,,,,,,,,,,,,,,,,,
,,1,83,,,,,,,1,5,2,stim/52.jpeg,HouseObjects,1,stim/objects/HouseObjects/ironingboard.png,0.5,1,-0.2,0.15,left,32,2020-12-06_09h38.33.601,premup-three_ses-01_part-01_label-phase1,3.2.4,Win32,60,left,0.784000158,4,0,4,0,1,3,1,0,240,13,1,239,,,,,,,,,,,,,,,,,,
,,0,84,,,,,,,2,1,2,stim/12.jpeg,HouseObjects,1,stim/objects/HouseObjects/remote.png,0.3,2,0.2,0.15,left,32,2020-12-06_09h38.33.601,premup-three_ses-01_part-01_label-phase1,3.2.4,Win32,60,right,1.120000124,4,0,4,0,1,3,1,0,240,81,1,239,,,,,,,,,,,,,,,,,,
,,0,85,,,,,,,3,3,2,stim/32.jpeg,Instruments,2,stim/objects/Instruments/musicsheet2.png,0.9,1,-0.2,0.15,right,32,2020-12-06_09h38.33.601,premup-three_ses-01_part-01_label-phase1,3.2.4,Win32,60,left,0.81799984,4,0,4,0,1,3,1,0,240,185,1,239,,,,,,,,,,,,,,,,,,
,,1,86,,,,,,,2,2,2,stim/22.jpeg,HouseObjects,1,stim/objects/HouseObjects/ironingboard2.png,0.7,3,-0.2,-0.15,left,32,2020-12-06_09h38.33.601,premup-three_ses-01_part-01_label-phase1,3.2.4,Win32,60,left,0.779000044,4,0,4,0,1,3,1,0,240,121,1,239,,,,,,,,,,,,,,,,,,
,,1,87,,,,,,,1,6,2,stim/62.jpeg,Instruments,2,stim/objects/Instruments/musicsheet.png,0.5,2,0.2,0.15,right,32,2020-12-06_09h38.33.601,premup-three_ses-01_part-01_label-phase1,3.2.4,Win32,60,right,1.271999836,4,0,4,0,1,3,1,0,240,77,1,239,,,,,,,,,,,,,,,,,,
,,0,88,,,,,,,1,6,3,stim/63.jpeg,HouseObjects,1,stim/objects/HouseObjects/pan.png,0.5,1,-0.2,0.15,left,32,2020-12-06_09h38.33.601,premup-three_ses-01_part-01_label-phase1,3.2.4,Win32,60,right,0.744999886,4,0,4,0,1,3,1,0,240,42,1,239,,,,,,,,,,,,,,,,,,
,,1,89,,,,,,,1,5,1,stim/51.jpeg,Instruments,2,stim/objects/Instruments/keyboard.png,0.5,4,0.2,-0.15,right,32,2020-12-06_09h38.33.601,premup-three_ses-01_part-01_label-phase1,3.2.4,Win32,60,right,1.423000097,4,0,4,0,1,3,1,0,240,20,1,239,,,,,,,,,,,,,,,,,,
,,1,90,,,,,,,3,3,2,stim/32.jpeg,Instruments,2,stim/objects/Instruments/musicsheet2.png,0.9,4,0.2,-0.15,right,32,2020-12-06_09h38.33.601,premup-three_ses-01_part-01_label-phase1,3.2.4,Win32,60,right,1.011000156,4,0,4,0,1,3,1,0,240,197,1,239,,,,,,,,,,,,,,,,,,
,,1,91,,,,,,,1,6,2,stim/62.jpeg,Instruments,2,stim/objects/Instruments/musicsheet.png,0.5,4,0.2,-0.15,right,32,2020-12-06_09h38.33.601,premup-three_ses-01_part-01_label-phase1,3.2.4,Win32,60,right,0.696000099,4,0,4,0,1,3,1,0,240,61,1,239,,,,,,,,,,,,,,,,,,
,,0,92,,,,,,,2,1,1,stim/11.jpeg,Instruments,2,stim/objects/Instruments/panflute.png,0.7,3,-0.2,-0.15,right,32,2020-12-06_09h38.33.601,premup-three_ses-01_part-01_label-phase1,3.2.4,Win32,60,left,0.82400012,4,0,4,0,1,3,1,0,240,104,1,239,,,,,,,,,,,,,,,,,,
,,0,93,,,,,,,1,6,3,stim/63.jpeg,HouseObjects,1,stim/objects/HouseObjects/pan.png,0.5,3,-0.2,-0.15,left,32,2020-12-06_09h38.33.601,premup-three_ses-01_part-01_label-phase1,3.2.4,Win32,60,right,0.899000168,4,0,4,0,1,3,1,0,240,54,1,239,,,,,,,,,,,,,,,,,,
,,1,94,,,,,,,1,6,3,stim/63.jpeg,Instruments,2,stim/objects/Instruments/musicstand.png,0.5,4,0.2,-0.15,right,32,2020-12-06_09h38.33.601,premup-three_ses-01_part-01_label-phase1,3.2.4,Win32,60,right,0.723999977,4,0,4,0,1,3,1,0,240,62,1,239,,,,,,,,,,,,,,,,,,
,,0,95,,,,,,,2,1,4,stim/14.jpeg,Instruments,2,stim/objects/Instruments/record_player.png,0.7,3,-0.2,-0.15,right,32,2020-12-06_09h38.33.601,premup-three_ses-01_part-01_label-phase1,3.2.4,Win32,60,left,1.381999969,4,0,4,0,1,3,1,0,240,95,1,239,,,,,,,,,,,,,,,,,,
,,1,96,,,,,,,2,2,3,stim/23.jpeg,HouseObjects,1,stim/objects/HouseObjects/key2.png,0.7,2,0.2,0.15,left,32,2020-12-06_09h38.33.601,premup-three_ses-01_part-01_label-phase1,3.2.4,Win32,60,left,0.876999855,4,0,4,0,1,3,1,0,240,134,1,239,,,,,,,,,,,,,,,,,,
,,1,97,,,,,,,2,1,4,stim/14.jpeg,Instruments,2,stim/objects/Instruments/record_player.png,0.7,4,0.2,-0.15,right,32,2020-12-06_09h38.33.601,premup-three_ses-01_part-01_label-phase1,3.2.4,Win32,60,right,0.996000051,4,0,4,0,1,3,1,0,240,119,1,239,,,,,,,,,,,,,,,,,,
,,0,98,,,,,,,3,4,2,stim/42.jpeg,Instruments,2,stim/objects/Instruments/pipepiano2.png,0.1,3,-0.2,-0.15,right,32,2020-12-06_09h38.33.601,premup-three_ses-01_part-01_label-phase1,3.2.4,Win32,60,left,0.884000063,4,0,4,0,1,3,1,0,240,237,1,239,,,,,,,,,,,,,,,,,,
,,0,99,,,,,,,2,1,3,stim/13.jpeg,Instruments,2,stim/objects/Instruments/record.png,0.7,1,-0.2,0.15,right,32,2020-12-06_09h38.33.601,premup-three_ses-01_part-01_label-phase1,3.2.4,Win32,60,left,1.039000034,4,0,4,0,1,3,1,0,240,118,1,239,,,,,,,,,,,,,,,,,,
,,1,100,,,,,,,2,1,3,stim/13.jpeg,Instruments,2,stim/objects/Instruments/record.png,0.7,1,-0.2,0.15,right,32,2020-12-06_09h38.33.601,premup-three_ses-01_part-01_label-phase1,3.2.4,Win32,60,right,1.144000053,4,0,4,0,1,3,1,0,240,102,1,239,,,,,,,,,,,,,,,,,,
,,1,101,,,,,,,3,4,1,stim/41.jpeg,HouseObjects,1,stim/objects/HouseObjects/recyclingbin2.png,0.9,3,-0.2,-0.15,left,32,2020-12-06_09h38.33.601,premup-three_ses-01_part-01_label-phase1,3.2.4,Win32,60,left,1.284000158,4,0,4,0,1,3,1,0,240,204,1,239,,,,,,,,,,,,,,,,,,
,,0,102,,,,,,,1,6,2,stim/62.jpeg,HouseObjects,1,stim/objects/HouseObjects/match.png,0.5,3,-0.2,-0.15,left,32,2020-12-06_09h38.33.601,premup-three_ses-01_part-01_label-phase1,3.2.4,Win32,60,right,1.072000027,4,0,4,0,1,3,1,0,240,57,1,239,,,,,,,,,,,,,,,,,,
,,0,103,,,,,,,3,3,3,stim/33.jpeg,Instruments,2,stim/objects/Instruments/musicstand2.png,0.9,2,0.2,0.15,right,32,2020-12-06_09h38.33.601,premup-three_ses-01_part-01_label-phase1,3.2.4,Win32,60,left,0.72300005,4,0,4,0,1,3,1,0,240,166,1,239,,,,,,,,,,,,,,,,,,
,,0,104,,,,,,,2,1,1,stim/11.jpeg,HouseObjects,1,stim/objects/HouseObjects/recyclingbin.png,0.3,4,0.2,-0.15,left,32,2020-12-06_09h38.33.601,premup-three_ses-01_part-01_label-phase1,3.2.4,Win32,60,right,0.686000109,4,0,4,0,1,3,1,0,240,84,1,239,,,,,,,,,,,,,,,,,,
,,1,105,,,,,,,2,2,1,stim/21.jpeg,HouseObjects,1,stim/objects/HouseObjects/iron2.png,0.7,1,-0.2,0.15,left,32,2020-12-06_09h38.33.601,premup-three_ses-01_part-01_label-phase1,3.2.4,Win32,60,left,0.577000141,4,0,4,0,1,3,1,0,240,132,1,239,,,,,,,,,,,,,,,,,,
,,0,106,,,,,,,1,5,1,stim/51.jpeg,HouseObjects,1,stim/objects/HouseObjects/iron.png,0.5,3,-0.2,-0.15,left,32,2020-12-06_09h38.33.601,premup-three_ses-01_part-01_label-phase1,3.2.4,Win32,60,right,1.318000078,4,0,4,0,1,3,1,0,240,0,1,239,,,,,,,,,,,,,,,,,,
,,1,107,,,,,,,3,3,2,stim/32.jpeg,Instruments,2,stim/objects/Instruments/musicsheet2.png,0.9,4,0.2,-0.15,right,32,2020-12-06_09h38.33.601,premup-three_ses-01_part-01_label-phase1,3.2.4,Win32,60,right,1.357000113,4,0,4,0,1,3,1,0,240,173,1,239,,,,,,,,,,,,,,,,,,
,,0,108,,,,,,,2,2,1,stim/21.jpeg,Instruments,2,stim/objects/Instruments/keyboard2.png,0.3,2,0.2,0.15,right,32,2020-12-06_09h38.33.601,premup-three_ses-01_part-01_label-phase1,3.2.4,Win32,60,left,0.743000031,4,0,4,0,1,3,1,0,240,148,1,239,,,,,,,,,,,,,,,,,,
,,0,109,,,,,,,1,6,1,stim/61.jpeg,HouseObjects,1,stim/objects/HouseObjects/lintroller.png,0.5,1,-0.2,0.15,left,32,2020-12-06_09h38.33.601,premup-three_ses-01_part-01_label-phase1,3.2.4,Win32,60,right,0.836999893,4,0,4,0,1,3,1,0,240,56,1,239,,,,,,,,,,,,,,,,,,
,,0,110,,,,,,,2,1,2,stim/12.jpeg,Instruments,2,stim/objects/Instruments/pipepiano.png,0.7,3,-0.2,-0.15,right,32,2020-12-06_09h38.33.601,premup-three_ses-01_part-01_label-phase1,3.2.4,Win32,60,left,0.65199995,4,0,4,0,1,3,1,0,240,97,1,239,,,,,,,,,,,,,,,,,,
,,1,111,,,,,,,2,2,1,stim/21.jpeg,HouseObjects,1,stim/objects/HouseObjects/iron2.png,0.7,2,0.2,0.15,left,32,2020-12-06_09h38.33.601,premup-three_ses-01_part-01_label-phase1,3.2.4,Win32,60,left,0.852999926,4,0,4,0,1,3,1,0,240,144,1,239,,,,,,,,,,,,,,,,,,
,,0,112,,,,,,,3,3,4,stim/34.jpeg,Instruments,2,stim/objects/Instruments/oboe2.png,0.9,4,0.2,-0.15,right,32,2020-12-06_09h38.33.601,premup-three_ses-01_part-01_label-phase1,3.2.4,Win32,60,,,4,0,4,0,1,3,1,0,240,167,1,239,,,,,,,,,,,,,,,,,,
,,1,113,,,,,,,2,1,3,stim/13.jpeg,HouseObjects,1,stim/objects/HouseObjects/rubbergloves.png,0.3,4,0.2,-0.15,left,32,2020-12-06_09h38.33.601,premup-three_ses-01_part-01_label-phase1,3.2.4,Win32,60,left,0.701999903,4,0,4,0,1,3,1,0,240,82,1,239,,,,,,,,,,,,,,,,,,
,,1,114,,,,,,,2,2,1,stim/21.jpeg,HouseObjects,1,stim/objects/HouseObjects/iron2.png,0.7,1,-0.2,0.15,left,32,2020-12-06_09h38.33.601,premup-three_ses-01_part-01_label-phase1,3.2.4,Win32,60,left,0.858999968,4,0,4,0,1,3,1,0,240,124,1,239,,,,,,,,,,,,,,,,,,
,,0,115,,,,,,,1,6,4,stim/64.jpeg,HouseObjects,1,stim/objects/HouseObjects/pitcher.png,0.5,4,0.2,-0.15,left,32,2020-12-06_09h38.33.601,premup-three_ses-01_part-01_label-phase1,3.2.4,Win32,60,right,0.538000107,4,0,4,0,1,3,1,0,240,59,1,239,,,,,,,,,,,,,,,,,,
,,1,116,,,,,,,3,3,3,stim/33.jpeg,Instruments,2,stim/objects/Instruments/musicstand2.png,0.9,2,0.2,0.15,right,32,2020-12-06_09h38.33.601,premup-three_ses-01_part-01_label-phase1,3.2.4,Win32,60,right,0.787999868,4,0,4,0,1,3,1,0,240,198,1,239,,,,,,,,,,,,,,,,,,
,,1,117,,,,,,,1,5,3,stim/53.jpeg,HouseObjects,1,stim/objects/HouseObjects/key.png,0.5,3,-0.2,-0.15,left,32,2020-12-06_09h38.33.601,premup-three_ses-01_part-01_label-phase1,3.2.4,Win32,60,left,0.588999987,4,0,4,0,1,3,1,0,240,10,1,239,,,,,,,,,,,,,,,,,,
,,0,118,,,,,,,3,3,1,stim/31.jpeg,Instruments,2,stim/objects/Instruments/metronome2.png,0.9,3,-0.2,-0.15,right,32,2020-12-06_09h38.33.601,premup-three_ses-01_part-01_label-phase1,3.2.4,Win32,60,left,0.64199996,4,0,4,0,1,3,1,0,240,188,1,239,,,,,,,,,,,,,,,,,,
,,0,119,,,,,,,1,6,1,stim/61.jpeg,HouseObjects,1,stim/objects/HouseObjects/lintroller.png,0.5,4,0.2,-0.15,left,32,2020-12-06_09h38.33.601,premup-three_ses-01_part-01_label-phase1,3.2.4,Win32,60,right,0.633000135,4,0,4,0,1,3,1,0,240,44,1,239,,,,,,,,,,,,,,,,,,
,,1,120,,,,,,,2,1,4,stim/14.jpeg,Instruments,2,stim/objects/Instruments/record_player.png,0.7,2,0.2,0.15,right,32,2020-12-06_09h38.33.601,premup-three_ses-01_part-01_label-phase1,3.2.4,Win32,60,right,0.895999908,4,0,4,0,1,3,1,0,240,107,1,239,,,,,,,,,,,,,,,,,,
,,1,121,,,,,,,3,4,2,stim/42.jpeg,HouseObjects,1,stim/objects/HouseObjects/remote2.png,0.9,3,-0.2,-0.15,left,32,2020-12-06_09h38.33.601,premup-three_ses-01_part-01_label-phase1,3.2.4,Win32,60,left,0.680999994,4,0,4,0,1,3,1,0,240,221,1,239,,,,,,,,,,,,,,,,,,
,,0,122,,,,,,,1,5,1,stim/51.jpeg,Instruments,2,stim/objects/Instruments/keyboard.png,0.5,4,0.2,-0.15,right,32,2020-12-06_09h38.33.601,premup-three_ses-01_part-01_label-phase1,3.2.4,Win32,60,left,0.670000076,4,0,4,0,1,3,1,0,240,28,1,239,,,,,,,,,,,,,,,,,,
,,0,123,,,,,,,3,3,2,stim/32.jpeg,Instruments,2,stim/objects/Instruments/musicsheet2.png,0.9,4,0.2,-0.15,right,32,2020-12-06_09h38.33.601,premup-three_ses-01_part-01_label-phase1,3.2.4,Win32,60,left,0.82799983,4,0,4,0,1,3,1,0,240,181,1,239,,,,,,,,,,,,,,,,,,
,,0,124,,,,,,,1,6,3,stim/63.jpeg,HouseObjects,1,stim/objects/HouseObjects/pan.png,0.5,4,0.2,-0.15,left,32,2020-12-06_09h38.33.601,premup-three_ses-01_part-01_label-phase1,3.2.4,Win32,60,right,1.026000023,4,0,4,0,1,3,1,0,240,46,1,239,,,,,,,,,,,,,,,,,,
,,0,125,,,,,,,2,2,1,stim/21.jpeg,Instruments,2,stim/objects/Instruments/keyboard2.png,0.3,4,0.2,-0.15,right,32,2020-12-06_09h38.33.601,premup-three_ses-01_part-01_label-phase1,3.2.4,Win32,60,left,0.650000095,4,0,4,0,1,3,1,0,240,156,1,239,,,,,,,,,,,,,,,,,,
,,0,126,,,,,,,3,3,1,stim/31.jpeg,Instruments,2,stim/objects/Instruments/metronome2.png,0.9,3,-0.2,-0.15,right,32,2020-12-06_09h38.33.601,premup-three_ses-01_part-01_label-phase1,3.2.4,Win32,60,left,0.579999924,4,0,4,0,1,3,1,0,240,192,1,239,,,,,,,,,,,,,,,,,,
,,0,127,,,,,,,2,1,1,stim/11.jpeg,Instruments,2,stim/objects/Instruments/panflute.png,0.7,2,0.2,0.15,right,32,2020-12-06_09h38.33.601,premup-three_ses-01_part-01_label-phase1,3.2.4,Win32,60,left,0.811000109,4,0,4,0,1,3,1,0,240,112,1,239,,,,,,,,,,,,,,,,,,
,,1,128,,,,,,,2,2,2,stim/22.jpeg,HouseObjects,1,stim/objects/HouseObjects/ironingboard2.png,0.7,3,-0.2,-0.15,left,32,2020-12-06_09h38.33.601,premup-three_ses-01_part-01_label-phase1,3.2.4,Win32,60,left,1.505000114,4,0,4,0,1,3,1,0,240,137,1,239,,,,,,,,,,,,,,,,,,
,,1,129,,,,,,,3,4,2,stim/42.jpeg,HouseObjects,1,stim/objects/HouseObjects/remote2.png,0.9,2,0.2,0.15,left,32,2020-12-06_09h38.33.601,premup-three_ses-01_part-01_label-phase1,3.2.4,Win32,60,left,1.875,4,0,4,0,1,3,1,0,240,225,1,239,,,,,,,,,,,,,,,,,,
,,0,130,,,,,,,3,4,1,stim/41.jpeg,HouseObjects,1,stim/objects/HouseObjects/recyclingbin2.png,0.9,1,-0.2,0.15,left,32,2020-12-06_09h38.33.601,premup-three_ses-01_part-01_label-phase1,3.2.4,Win32,60,right,0.998000145,4,0,4,0,1,3,1,0,240,200,1,239,,,,,,,,,,,,,,,,,,
,,1,131,,,,,,,1,6,3,stim/63.jpeg,Instruments,2,stim/objects/Instruments/musicstand.png,0.5,1,-0.2,0.15,right,32,2020-12-06_09h38.33.601,premup-three_ses-01_part-01_label-phase1,3.2.4,Win32,60,right,0.884000063,4,0,4,0,1,3,1,0,240,74,1,239,,,,,,,,,,,,,,,,,,
,,1,132,,,,,,,3,4,3,stim/43.jpeg,HouseObjects,1,stim/objects/HouseObjects/rubbergloves2.png,0.9,2,0.2,0.15,left,32,2020-12-06_09h38.33.601,premup-three_ses-01_part-01_label-phase1,3.2.4,Win32,60,left,0.81400013,4,0,4,0,1,3,1,0,240,218,1,239,,,,,,,,,,,,,,,,,,
,,1,133,,,,,,,1,5,2,stim/52.jpeg,HouseObjects,1,stim/objects/HouseObjects/ironingboard.png,0.5,2,0.2,0.15,left,32,2020-12-06_09h38.33.601,premup-three_ses-01_part-01_label-phase1,3.2.4,Win32,60,left,0.726000071,4,0,4,0,1,3,1,0,240,1,1,239,,,,,,,,,,,,,,,,,,
,,1,134,,,,,,,1,5,1,stim/51.jpeg,Instruments,2,stim/objects/Instruments/keyboard.png,0.5,4,0.2,-0.15,right,32,2020-12-06_09h38.33.601,premup-three_ses-01_part-01_label-phase1,3.2.4,Win32,60,right,1.746999979,4,0,4,0,1,3,1,0,240,36,1,239,,,,,,,,,,,,,,,,,,
,,0,135,,,,,,,1,5,4,stim/54.jpeg,Instruments,2,stim/objects/Instruments/marimba.png,0.5,3,-0.2,-0.15,right,32,2020-12-06_09h38.33.601,premup-three_ses-01_part-01_label-phase1,3.2.4,Win32,60,left,1.24000001,4,0,4,0,1,3,1,0,240,31,1,239,,,,,,,,,,,,,,,,,,
,,0,136,,,,,,,1,6,2,stim/62.jpeg,Instruments,2,stim/objects/Instruments/musicsheet.png,0.5,1,-0.2,0.15,right,32,2020-12-06_09h38.33.601,premup-three_ses-01_part-01_label-phase1,3.2.4,Win32,60,left,0.798000097,4,0,4,0,1,3,1,0,240,69,1,239,,,,,,,,,,,,,,,,,,
,,0,137,,,,,,,1,6,1,stim/61.jpeg,HouseObjects,1,stim/objects/HouseObjects/lintroller.png,0.5,4,0.2,-0.15,left,32,2020-12-06_09h38.33.601,premup-three_ses-01_part-01_label-phase1,3.2.4,Win32,60,right,0.601999998,4,0,4,0,1,3,1,0,240,40,1,239,,,,,,,,,,,,,,,,,,
,,0,138,,,,,,,1,6,3,stim/63.jpeg,HouseObjects,1,stim/objects/HouseObjects/pan.png,0.5,1,-0.2,0.15,left,32,2020-12-06_09h38.33.601,premup-three_ses-01_part-01_label-phase1,3.2.4,Win32,60,right,1.046000004,4,0,4,0,1,3,1,0,240,58,1,239,,,,,,,,,,,,,,,,,,
,,0,139,,,,,,,3,3,2,stim/32.jpeg,Instruments,2,stim/objects/Instruments/musicsheet2.png,0.9,3,-0.2,-0.15,right,32,2020-12-06_09h38.33.601,premup-three_ses-01_part-01_label-phase1,3.2.4,Win32,60,left,0.70600009,4,0,4,0,1,3,1,0,240,193,1,239,,,,,,,,,,,,,,,,,,
,,1,140,,,,,,,3,4,1,stim/41.jpeg,HouseObjects,1,stim/objects/HouseObjects/recyclingbin2.png,0.9,1,-0.2,0.15,left,32,2020-12-06_09h38.33.601,premup-three_ses-01_part-01_label-phase1,3.2.4,Win32,60,left,1.128000021,4,0,4,0,1,3,1,0,240,220,1,239,,,,,,,,,,,,,,,,,,
,,0,141,,,,,,,2,1,4,stim/14.jpeg,Instruments,2,stim/objects/Instruments/record_player.png,0.7,3,-0.2,-0.15,right,32,2020-12-06_09h38.33.601,premup-three_ses-01_part-01_label-phase1,3.2.4,Win32,60,left,1.305000067,4,0,4,0,1,3,1,0,240,103,1,239,,,,,,,,,,,,,,,,,,
,,1,142,,,,,,,2,2,3,stim/23.jpeg,HouseObjects,1,stim/objects/HouseObjects/key2.png,0.7,3,-0.2,-0.15,left,32,2020-12-06_09h38.33.601,premup-three_ses-01_part-01_label-phase1,3.2.4,Win32,60,left,0.714999914,4,0,4,0,1,3,1,0,240,130,1,239,,,,,,,,,,,,,,,,,,
,,0,143,,,,,,,3,3,1,stim/31.jpeg,Instruments,2,stim/objects/Instruments/metronome2.png,0.9,1,-0.2,0.15,right,32,2020-12-06_09h38.33.601,premup-three_ses-01_part-01_label-phase1,3.2.4,Win32,60,left,1.047999859,4,0,4,0,1,3,1,0,240,172,1,239,,,,,,,,,,,,,,,,,,
,,0,144,,,,,,,1,6,1,stim/61.jpeg,Instruments,2,stim/objects/Instruments/metronome.png,0.5,2,0.2,0.15,right,32,2020-12-06_09h38.33.601,premup-three_ses-01_part-01_label-phase1,3.2.4,Win32,60,left,0.934000015,4,0,4,0,1,3,1,0,240,64,1,239,,,,,,,,,,,,,,,,,,
,,0,145,,,,,,,1,5,3,stim/53.jpeg,Instruments,2,stim/objects/Instruments/maraca.png,0.5,2,0.2,0.15,right,32,2020-12-06_09h38.33.601,premup-three_ses-01_part-01_label-phase1,3.2.4,Win32,60,left,1.493999958,4,0,4,0,1,3,1,0,240,26,1,239,,,,,,,,,,,,,,,,,,
,,0,146,,,,,,,3,4,4,stim/44.jpeg,HouseObjects,1,stim/objects/HouseObjects/rug2.png,0.9,1,-0.2,0.15,left,32,2020-12-06_09h38.33.601,premup-three_ses-01_part-01_label-phase1,3.2.4,Win32,60,right,0.630000114,4,0,4,0,1,3,1,0,240,207,1,239,,,,,,,,,,,,,,,,,,
,,0,147,,,,,,,2,2,3,stim/23.jpeg,Instruments,2,stim/objects/Instruments/maraca2.png,0.3,1,-0.2,0.15,right,32,2020-12-06_09h38.33.601,premup-three_ses-01_part-01_label-phase1,3.2.4,Win32,60,left,0.68200016,4,0,4,0,1,3,1,0,240,150,1,239,,,,,,,,,,,,,,,,,,
,,1,148,,,,,,,2,1,2,stim/12.jpeg,Instruments,2,stim/objects/Instruments/pipepiano.png,0.7,2,0.2,0.15,right,32,2020-12-06_09h38.33.601,premup-three_ses-01_part-01_label-phase1,3.2.4,Win32,60,right,0.815000057,4,0,4,0,1,3,1,0,240,109,1,239,,,,,,,,,,,,,,,,,,
,,1,149,,,,,,,3,4,1,stim/41.jpeg,HouseObjects,1,stim/objects/HouseObjects/recyclingbin2.png,0.9,1,-0.2,0.15,left,32,2020-12-06_09h38.33.601,premup-three_ses-01_part-01_label-phase1,3.2.4,Win32,60,left,1.117000103,4,0,4,0,1,3,1,0,240,228,1,239,,,,,,,,,,,,,,,,,,
,,0,150,,,,,,,1,6,4,stim/64.jpeg,Instruments,2,stim/objects/Instruments/oboe.png,0.5,1,-0.2,0.15,right,32,2020-12-06_09h38.33.601,premup-three_ses-01_part-01_label-phase1,3.2.4,Win32,60,left,1.137000084,4,0,4,0,1,3,1,0,240,71,1,239,,,,,,,,,,,,,,,,,,
,,0,151,,,,,,,1,5,1,stim/51.jpeg,HouseObjects,1,stim/objects/HouseObjects/iron.png,0.5,1,-0.2,0.15,left,32,2020-12-06_09h38.33.601,premup-three_ses-01_part-01_label-phase1,3.2.4,Win32,60,right,1.687000036,4,0,4,0,1,3,1,0,240,4,1,239,,,,,,,,,,,,,,,,,,
,,1,152,,,,,,,3,4,3,stim/43.jpeg,HouseObjects,1,stim/objects/HouseObjects/rubbergloves2.png,0.9,1,-0.2,0.15,left,32,2020-12-06_09h38.33.601,premup-three_ses-01_part-01_label-phase1,3.2.4,Win32,60,left,1.101999998,4,0,4,0,1,3,1,0,240,210,1,239,,,,,,,,,,,,,,,,,,
,,1,153,,,,,,,3,4,4,stim/44.jpeg,HouseObjects,1,stim/objects/HouseObjects/rug2.png,0.9,2,0.2,0.15,left,32,2020-12-06_09h38.33.601,premup-three_ses-01_part-01_label-phase1,3.2.4,Win32,60,left,1.125,4,0,4,0,1,3,1,0,240,219,1,239,,,,,,,,,,,,,,,,,,
,,0,154,,,,,,,1,5,3,stim/53.jpeg,Instruments,2,stim/objects/Instruments/maraca.png,0.5,3,-0.2,-0.15,right,32,2020-12-06_09h38.33.601,premup-three_ses-01_part-01_label-phase1,3.2.4,Win32,60,left,0.875,4,0,4,0,1,3,1,0,240,22,1,239,,,,,,,,,,,,,,,,,,
,,0,155,,,,,,,2,2,4,stim/24.jpeg,HouseObjects,1,stim/objects/HouseObjects/knife2.png,0.7,4,0.2,-0.15,left,32,2020-12-06_09h38.33.601,premup-three_ses-01_part-01_label-phase1,3.2.4,Win32,60,right,0.400000095,4,0,4,0,1,3,1,0,240,123,1,239,,,,,,,,,,,,,,,,,,
,,1,156,,,,,,,1,5,2,stim/52.jpeg,Instruments,2,stim/objects/Instruments/laud.png,0.5,2,0.2,0.15,right,32,2020-12-06_09h38.33.601,premup-three_ses-01_part-01_label-phase1,3.2.4,Win32,60,right,1.069000006,4,0,4,0,1,3,1,0,240,21,1,239,,,,,,,,,,,,,,,,,,
,,1,157,,,,,,,2,2,1,stim/21.jpeg,HouseObjects,1,stim/objects/HouseObjects/iron2.png,0.7,2,0.2,0.15,left,32,2020-12-06_09h38.33.601,premup-three_ses-01_part-01_label-phase1,3.2.4,Win32,60,left,0.95299983,4,0,4,0,1,3,1,0,240,128,1,239,,,,,,,,,,,,,,,,,,
,,0,158,,,,,,,3,3,2,stim/32.jpeg,Instruments,2,stim/objects/Instruments/musicsheet2.png,0.9,4,0.2,-0.15,right,32,2020-12-06_09h38.33.601,premup-three_ses-01_part-01_label-phase1,3.2.4,Win32,60,left,0.891000032,4,0,4,0,1,3,1,0,240,177,1,239,,,,,,,,,,,,,,,,,,
,,1,159,,,,,,,1,6,4,stim/64.jpeg,Instruments,2,stim/objects/Instruments/oboe.png,0.5,3,-0.2,-0.15,right,32,2020-12-06_09h38.33.601,premup-three_ses-01_part-01_label-phase1,3.2.4,Win32,60,right,0.96999979,4,0,4,0,1,3,1,0,240,75,1,239,,,,,,,,,,,,,,,,,,
,,1,160,,,,,,,2,1,4,stim/14.jpeg,Instruments,2,stim/objects/Instruments/record_player.png,0.7,1,-0.2,0.15,right,32,2020-12-06_09h38.33.601,premup-three_ses-01_part-01_label-phase1,3.2.4,Win32,60,right,0.838999987,4,0,4,0,1,3,1,0,240,99,1,239,,,,,,,,,,,,,,,,,,
,,0,161,,,,,,,1,5,3,stim/53.jpeg,Instruments,2,stim/objects/Instruments/maraca.png,0.5,2,0.2,0.15,right,32,2020-12-06_09h38.33.601,premup-three_ses-01_part-01_label-phase1,3.2.4,Win32,60,left,0.919999838,4,0,4,0,1,3,1,0,240,34,1,239,,,,,,,,,,,,,,,,,,
,,0,162,,,,,,,1,5,2,stim/52.jpeg,Instruments,2,stim/objects/Instruments/laud.png,0.5,4,0.2,-0.15,right,32,2020-12-06_09h38.33.601,premup-three_ses-01_part-01_label-phase1,3.2.4,Win32,60,left,0.612999916,4,0,4,0,1,3,1,0,240,33,1,239,,,,,,,,,,,,,,,,,,
,,1,163,,,,,,,1,5,2,stim/52.jpeg,Instruments,2,stim/objects/Instruments/laud.png,0.5,3,-0.2,-0.15,right,32,2020-12-06_09h38.33.601,premup-three_ses-01_part-01_label-phase1,3.2.4,Win32,60,right,0.926000118,4,0,4,0,1,3,1,0,240,25,1,239,,,,,,,,,,,,,,,,,,
,,1,164,,,,,,,1,5,1,stim/51.jpeg,Instruments,2,stim/objects/Instruments/keyboard.png,0.5,1,-0.2,0.15,right,32,2020-12-06_09h38.33.601,premup-three_ses-01_part-01_label-phase1,3.2.4,Win32,60,right,0.802999973,4,0,4,0,1,3,1,0,240,24,1,239,,,,,,,,,,,,,,,,,,
,,1,165,,,,,,,3,4,3,stim/43.jpeg,HouseObjects,1,stim/objects/HouseObjects/rubbergloves2.png,0.9,3,-0.2,-0.15,left,32,2020-12-06_09h38.33.601,premup-three_ses-01_part-01_label-phase1,3.2.4,Win32,60,left,0.91899991,4,0,4,0,1,3,1,0,240,230,1,239,,,,,,,,,,,,,,,,,,
,,0,166,,,,,,,2,1,4,stim/14.jpeg,Instruments,2,stim/objects/Instruments/record_player.png,0.7,3,-0.2,-0.15,right,32,2020-12-06_09h38.33.601,premup-three_ses-01_part-01_label-phase1,3.2.4,Win32,60,left,0.525000095,4,0,4,0,1,3,1,0,240,111,1,239,,,,,,,,,,,,,,,,,,
,,1,167,,,,,,,2,2,2,stim/22.jpeg,HouseObjects,1,stim/objects/HouseObjects/ironingboard2.png,0.7,4,0.2,-0.15,left,32,2020-12-06_09h38.33.601,premup-three_ses-01_part-01_label-phase1,3.2.4,Win32,60,left,0.779999971,4,0,4,0,1,3,1,0,240,125,1,239,,,,,,,,,,,,,,,,,,
,,1,168,,,,,,,2,1,1,stim/11.jpeg,HouseObjects,1,stim/objects/HouseObjects/recyclingbin.png,0.3,1,-0.2,0.15,left,32,2020-12-06_09h38.33.601,premup-three_ses-01_part-01_label-phase1,3.2.4,Win32,60,left,0.835999966,4,0,4,0,1,3,1,0,240,80,1,239,,,,,,,,,,,,,,,,,,
,,1,169,,,,,,,2,1,4,stim/14.jpeg,HouseObjects,1,stim/objects/HouseObjects/rug.png,0.3,4,0.2,-0.15,left,32,2020-12-06_09h38.33.601,premup-three_ses-01_part-01_label-phase1,3.2.4,Win32,60,left,0.711999893,4,0,4,0,1,3,1,0,240,83,1,239,,,,,,,,,,,,,,,,,,
,,0,170,,,,,,,2,1,2,stim/12.jpeg,Instruments,2,stim/objects/Instruments/pipepiano.png,0.7,2,0.2,0.15,right,32,2020-12-06_09h38.33.601,premup-three_ses-01_part-01_label-phase1,3.2.4,Win32,60,left,0.582000017,4,0,4,0,1,3,1,0,240,105,1,239,,,,,,,,,,,,,,,,,,
,,1,171,,,,,,,1,6,2,stim/62.jpeg,Instruments,2,stim/objects/Instruments/musicsheet.png,0.5,1,-0.2,0.15,right,32,2020-12-06_09h38.33.601,premup-three_ses-01_part-01_label-phase1,3.2.4,Win32,60,right,0.582000017,4,0,4,0,1,3,1,0,240,73,1,239,,,,,,,,,,,,,,,,,,
,,0,172,,,,,,,2,2,2,stim/22.jpeg,Instruments,2,stim/objects/Instruments/laud2.png,0.3,4,0.2,-0.15,right,32,2020-12-06_09h38.33.601,premup-three_ses-01_part-01_label-phase1,3.2.4,Win32,60,left,0.713999987,4,0,4,0,1,3,1,0,240,157,1,239,,,,,,,,,,,,,,,,,,
,,0,173,,,,,,,2,2,2,stim/22.jpeg,Instruments,2,stim/objects/Instruments/laud2.png,0.3,3,-0.2,-0.15,right,32,2020-12-06_09h38.33.601,premup-three_ses-01_part-01_label-phase1,3.2.4,Win32,60,left,0.661999941,4,0,4,0,1,3,1,0,240,153,1,239,,,,,,,,,,,,,,,,,,
,,1,174,,,,,,,3,3,4,stim/34.jpeg,Instruments,2,stim/objects/Instruments/oboe2.png,0.9,3,-0.2,-0.15,right,32,2020-12-06_09h38.33.601,premup-three_ses-01_part-01_label-phase1,3.2.4,Win32,60,right,0.768000126,4,0,4,0,1,3,1,0,240,195,1,239,,,,,,,,,,,,,,,,,,
,,1,175,,,,,,,2,2,3,stim/23.jpeg,HouseObjects,1,stim/objects/HouseObjects/key2.png,0.7,1,-0.2,0.15,left,32,2020-12-06_09h38.33.601,premup-three_ses-01_part-01_label-phase1,3.2.4,Win32,60,left,0.670000076,4,0,4,0,1,3,1,0,240,126,1,239,,,,,,,,,,,,,,,,,,
,,1,176,,,,,,,3,3,4,stim/34.jpeg,Instruments,2,stim/objects/Instruments/oboe2.png,0.9,3,-0.2,-0.15,right,32,2020-12-06_09h38.33.601,premup-three_ses-01_part-01_label-phase1,3.2.4,Win32,60,right,0.82799983,4,0,4,0,1,3,1,0,240,191,1,239,,,,,,,,,,,,,,,,,,
,,1,177,,,,,,,3,3,3,stim/33.jpeg,Instruments,2,stim/objects/Instruments/musicstand2.png,0.9,2,0.2,0.15,right,32,2020-12-06_09h38.33.601,premup-three_ses-01_part-01_label-phase1,3.2.4,Win32,60,right,0.621999979,4,0,4,0,1,3,1,0,240,174,1,239,,,,,,,,,,,,,,,,,,
,,0,178,,,,,,,2,1,1,stim/11.jpeg,HouseObjects,1,stim/objects/HouseObjects/recyclingbin.png,0.3,2,0.2,0.15,left,32,2020-12-06_09h38.33.601,premup-three_ses-01_part-01_label-phase1,3.2.4,Win32,60,right,0.586999893,4,0,4,0,1,3,1,0,240,88,1,239,,,,,,,,,,,,,,,,,,
,,1,179,,,,,,,3,4,4,stim/44.jpeg,HouseObjects,1,stim/objects/HouseObjects/rug2.png,0.9,2,0.2,0.15,left,32,2020-12-06_09h38.33.601,premup-three_ses-01_part-01_label-phase1,3.2.4,Win32,60,left,1.029000044,4,0,4,0,1,3,1,0,240,203,1,239,,,,,,,,,,,,,,,,,,
,,0,180,,,,,,,3,4,2,stim/42.jpeg,HouseObjects,1,stim/objects/HouseObjects/remote2.png,0.9,1,-0.2,0.15,left,32,2020-12-06_09h38.33.601,premup-three_ses-01_part-01_label-phase1,3.2.4,Win32,60,right,0.961999893,4,0,4,0,1,3,1,0,240,209,1,239,,,,,,,,,,,,,,,,,,
,,1,181,,,,,,,1,6,2,stim/62.jpeg,Instruments,2,stim/objects/Instruments/musicsheet.png,0.5,2,0.2,0.15,right,32,2020-12-06_09h38.33.601,premup-three_ses-01_part-01_label-phase1,3.2.4,Win32,60,right,1.230999947,4,0,4,0,1,3,1,0,240,65,1,239,,,,,,,,,,,,,,,,,,
,,0,182,,,,,,,3,3,3,stim/33.jpeg,HouseObjects,1,stim/objects/HouseObjects/pan2.png,0.1,4,0.2,-0.15,left,32,2020-12-06_09h38.33.601,premup-three_ses-01_part-01_label-phase1,3.2.4,Win32,60,right,0.911999941,4,0,4,0,1,3,1,0,240,162,1,239,,,,,,,,,,,,,,,,,,
,,1,183,,,,,,,2,1,3,stim/13.jpeg,Instruments,2,stim/objects/Instruments/record.png,0.7,2,0.2,0.15,right,32,2020-12-06_09h38.33.601,premup-three_ses-01_part-01_label-phase1,3.2.4,Win32,60,right,0.71600008,4,0,4,0,1,3,1,0,240,98,1,239,,,,,,,,,,,,,,,,,,
,,1,184,,,,,,,3,4,2,stim/42.jpeg,HouseObjects,1,stim/objects/HouseObjects/remote2.png,0.9,3,-0.2,-0.15,left,32,2020-12-06_09h38.33.601,premup-three_ses-01_part-01_label-phase1,3.2.4,Win32,60,left,0.565000057,4,0,4,0,1,3,1,0,240,205,1,239,,,,,,,,,,,,,,,,,,
,,0,185,,,,,,,1,5,3,stim/53.jpeg,HouseObjects,1,stim/objects/HouseObjects/key.png,0.5,4,0.2,-0.15,left,32,2020-12-06_09h38.33.601,premup-three_ses-01_part-01_label-phase1,3.2.4,Win32,60,right,0.99000001,4,0,4,0,1,3,1,0,240,6,1,239,,,,,,,,,,,,,,,,,,
,,0,186,,,,,,,3,3,4,stim/34.jpeg,Instruments,2,stim/objects/Instruments/oboe2.png,0.9,2,0.2,0.15,right,32,2020-12-06_09h38.33.601,premup-three_ses-01_part-01_label-phase1,3.2.4,Win32,60,left,0.793000221,4,0,4,0,1,3,1,0,240,187,1,239,,,,,,,,,,,,,,,,,,
,,0,187,,,,,,,1,6,3,stim/63.jpeg,Instruments,2,stim/objects/Instruments/musicstand.png,0.5,3,-0.2,-0.15,right,32,2020-12-06_09h38.33.601,premup-three_ses-01_part-01_label-phase1,3.2.4,Win32,60,left,1.200999975,4,0,4,0,1,3,1,0,240,70,1,239,,,,,,,,,,,,,,,,,,
,,1,188,,,,,,,1,6,4,stim/64.jpeg,HouseObjects,1,stim/objects/HouseObjects/pitcher.png,0.5,3,-0.2,-0.15,left,32,2020-12-06_09h38.33.601,premup-three_ses-01_part-01_label-phase1,3.2.4,Win32,60,left,1.559999943,4,0,4,0,1,3,1,0,240,47,1,239,,,,,,,,,,,,,,,,,,
,,1,189,,,,,,,1,6,4,stim/64.jpeg,HouseObjects,1,stim/objects/HouseObjects/pitcher.png,0.5,1,-0.2,0.15,left,32,2020-12-06_09h38.33.601,premup-three_ses-01_part-01_label-phase1,3.2.4,Win32,60,left,1.049000025,4,0,4,0,1,3,1,0,240,55,1,239,,,,,,,,,,,,,,,,,,
,,0,190,,,,,,,2,1,2,stim/12.jpeg,Instruments,2,stim/objects/Instruments/pipepiano.png,0.7,3,-0.2,-0.15,right,32,2020-12-06_09h38.33.601,premup-three_ses-01_part-01_label-phase1,3.2.4,Win32,60,left,0.842999935,4,0,4,0,1,3,1,0,240,101,1,239,,,,,,,,,,,,,,,,,,
,,0,191,,,,,,,2,2,4,stim/24.jpeg,Instruments,2,stim/objects/Instruments/marimba2.png,0.3,2,0.2,0.15,right,32,2020-12-06_09h38.33.601,premup-three_ses-01_part-01_label-phase1,3.2.4,Win32,60,left,0.762000084,4,0,4,0,1,3,1,0,240,155,1,239,,,,,,,,,,,,,,,,,,
,,0,192,,,,,,,1,5,4,stim/54.jpeg,Instruments,2,stim/objects/Instruments/marimba.png,0.5,3,-0.2,-0.15,right,32,2020-12-06_09h38.33.601,premup-three_ses-01_part-01_label-phase1,3.2.4,Win32,60,left,0.758999825,4,0,4,0,1,3,1,0,240,39,1,239,,,,,,,,,,,,,,,,,,
,,1,193,,,,,,,3,4,4,stim/44.jpeg,HouseObjects,1,stim/objects/HouseObjects/rug2.png,0.9,2,0.2,0.15,left,32,2020-12-06_09h38.33.601,premup-three_ses-01_part-01_label-phase1,3.2.4,Win32,60,left,0.694000006,4,0,4,0,1,3,1,0,240,231,1,239,,,,,,,,,,,,,,,,,,
,,0,194,,,,,,,2,2,3,stim/23.jpeg,Instruments,2,stim/objects/Instruments/maraca2.png,0.3,2,0.2,0.15,right,32,2020-12-06_09h38.33.601,premup-three_ses-01_part-01_label-phase1,3.2.4,Win32,60,left,0.809999943,4,0,4,0,1,3,1,0,240,154,1,239,,,,,,,,,,,,,,,,,,
,,1,195,,,,,,,3,3,1,stim/31.jpeg,Instruments,2,stim/objects/Instruments/metronome2.png,0.9,3,-0.2,-0.15,right,32,2020-12-06_09h38.33.601,premup-three_ses-01_part-01_label-phase1,3.2.4,Win32,60,right,0.985000134,4,0,4,0,1,3,1,0,240,184,1,239,,,,,,,,,,,,,,,,,,
,,0,196,,,,,,,1,5,4,stim/54.jpeg,HouseObjects,1,stim/objects/HouseObjects/knife.png,0.5,4,0.2,-0.15,left,32,2020-12-06_09h38.33.601,premup-three_ses-01_part-01_label-phase1,3.2.4,Win32,60,right,0.680999994,4,0,4,0,1,3,1,0,240,19,1,239,,,,,,,,,,,,,,,,,,
,,0,197,,,,,,,1,5,2,stim/52.jpeg,HouseObjects,1,stim/objects/HouseObjects/ironingboard.png,0.5,2,0.2,0.15,left,32,2020-12-06_09h38.33.601,premup-three_ses-01_part-01_label-phase1,3.2.4,Win32,60,right,1.102999926,4,0,4,0,1,3,1,0,240,17,1,239,,,,,,,,,,,,,,,,,,
,,1,198,,,,,,,1,5,4,stim/54.jpeg,HouseObjects,1,stim/objects/HouseObjects/knife.png,0.5,1,-0.2,0.15,left,32,2020-12-06_09h38.33.601,premup-three_ses-01_part-01_label-phase1,3.2.4,Win32,60,left,1.144999981,4,0,4,0,1,3,1,0,240,11,1,239,,,,,,,,,,,,,,,,,,
,,1,199,,,,,,,1,6,1,stim/61.jpeg,Instruments,2,stim/objects/Instruments/metronome.png,0.5,1,-0.2,0.15,right,32,2020-12-06_09h38.33.601,premup-three_ses-01_part-01_label-phase1,3.2.4,Win32,60,right,0.851999998,4,0,4,0,1,3,1,0,240,72,1,239,,,,,,,,,,,,,,,,,,
,,0,200,,,,,,,1,6,3,stim/63.jpeg,Instruments,2,stim/objects/Instruments/musicstand.png,0.5,2,0.2,0.15,right,32,2020-12-06_09h38.33.601,premup-three_ses-01_part-01_label-phase1,3.2.4,Win32,60,left,0.861000061,4,0,4,0,1,3,1,0,240,78,1,239,,,,,,,,,,,,,,,,,,
,,0,201,,,,,,,3,3,3,stim/33.jpeg,Instruments,2,stim/objects/Instruments/musicstand2.png,0.9,1,-0.2,0.15,right,32,2020-12-06_09h38.33.601,premup-three_ses-01_part-01_label-phase1,3.2.4,Win32,60,left,1.683000088,4,0,4,0,1,3,1,0,240,194,1,239,,,,,,,,,,,,,,,,,,
,,0,202,,,,,,,2,1,1,stim/11.jpeg,Instruments,2,stim/objects/Instruments/panflute.png,0.7,1,-0.2,0.15,right,32,2020-12-06_09h38.33.601,premup-three_ses-01_part-01_label-phase1,3.2.4,Win32,60,,,4,0,4,0,1,3,1,0,240,108,1,239,,,,,,,,,,,,,,,,,,
,,1,203,,,,,,,2,1,2,stim/12.jpeg,Instruments,2,stim/objects/Instruments/pipepiano.png,0.7,1,-0.2,0.15,right,32,2020-12-06_09h38.33.601,premup-three_ses-01_part-01_label-phase1,3.2.4,Win32,60,right,0.562999964,4,0,4,0,1,3,1,0,240,117,1,239,,,,,,,,,,,,,,,,,,
,,0,204,,,,,,,3,3,1,stim/31.jpeg,Instruments,2,stim/objects/Instruments/metronome2.png,0.9,2,0.2,0.15,right,32,2020-12-06_09h38.33.601,premup-three_ses-01_part-01_label-phase1,3.2.4,Win32,60,left,0.976999998,4,0,4,0,1,3,1,0,240,176,1,239,,,,,,,,,,,,,,,,,,
,,1,205,,,,,,,2,2,4,stim/24.jpeg,HouseObjects,1,stim/objects/HouseObjects/knife2.png,0.7,2,0.2,0.15,left,32,2020-12-06_09h38.33.601,premup-three_ses-01_part-01_label-phase1,3.2.4,Win32,60,left,0.549000025,4,0,4,0,1,3,1,0,240,131,1,239,,,,,,,,,,,,,,,,,,
,,1,206,,,,,,,2,2,2,stim/22.jpeg,HouseObjects,1,stim/objects/HouseObjects/ironingboard2.png,0.7,4,0.2,-0.15,left,32,2020-12-06_09h38.33.601,premup-three_ses-01_part-01_label-phase1,3.2.4,Win32,60,left,1.239000082,4,0,4,0,1,3,1,0,240,141,1,239,,,,,,,,,,,,,,,,,,
,,0,207,,,,,,,2,2,4,stim/24.jpeg,Instruments,2,stim/objects/Instruments/marimba2.png,0.3,2,0.2,0.15,right,32,2020-12-06_09h38.33.601,premup-three_ses-01_part-01_label-phase1,3.2.4,Win32,60,left,0.613000154,4,0,4,0,1,3,1,0,240,159,1,239,,,,,,,,,,,,,,,,,,
,,0,208,,,,,,,1,6,4,stim/64.jpeg,HouseObjects,1,stim/objects/HouseObjects/pitcher.png,0.5,3,-0.2,-0.15,left,32,2020-12-06_09h38.33.601,premup-three_ses-01_part-01_label-phase1,3.2.4,Win32,60,right,0.625,4,0,4,0,1,3,1,0,240,43,1,239,,,,,,,,,,,,,,,,,,
,,1,209,,,,,,,3,4,3,stim/43.jpeg,HouseObjects,1,stim/objects/HouseObjects/rubbergloves2.png,0.9,1,-0.2,0.15,left,32,2020-12-06_09h38.33.601,premup-three_ses-01_part-01_label-phase1,3.2.4,Win32,60,left,1.130000114,4,0,4,0,1,3,1,0,240,234,1,239,,,,,,,,,,,,,,,,,,
,,1,210,,,,,,,3,4,2,stim/42.jpeg,HouseObjects,1,stim/objects/HouseObjects/remote2.png,0.9,1,-0.2,0.15,left,32,2020-12-06_09h38.33.601,premup-three_ses-01_part-01_label-phase1,3.2.4,Win32,60,left,0.444999933,4,0,4,0,1,3,1,0,240,201,1,239,,,,,,,,,,,,,,,,,,
,,0,211,,,,,,,3,3,3,stim/33.jpeg,Instruments,2,stim/objects/Instruments/musicstand2.png,0.9,1,-0.2,0.15,right,32,2020-12-06_09h38.33.601,premup-three_ses-01_part-01_label-phase1,3.2.4,Win32,60,left,0.804000139,4,0,4,0,1,3,1,0,240,170,1,239,,,,,,,,,,,,,,,,,,
,,1,212,,,,,,,1,5,2,stim/52.jpeg,HouseObjects,1,stim/objects/HouseObjects/ironingboard.png,0.5,2,0.2,0.15,left,32,2020-12-06_09h38.33.601,premup-three_ses-01_part-01_label-phase1,3.2.4,Win32,60,left,0.596000195,4,0,4,0,1,3,1,0,240,9,1,239,,,,,,,,,,,,,,,,,,
,,1,213,,,,,,,2,2,4,stim/24.jpeg,HouseObjects,1,stim/objects/HouseObjects/knife2.png,0.7,4,0.2,-0.15,left,32,2020-12-06_09h38.33.601,premup-three_ses-01_part-01_label-phase1,3.2.4,Win32,60,left,0.657000065,4,0,4,0,1,3,1,0,240,127,1,239,,,,,,,,,,,,,,,,,,
,,0,214,,,,,,,3,4,4,stim/44.jpeg,HouseObjects,1,stim/objects/HouseObjects/rug2.png,0.9,4,0.2,-0.15,left,32,2020-12-06_09h38.33.601,premup-three_ses-01_part-01_label-phase1,3.2.4,Win32,60,right,0.80700016,4,0,4,0,1,3,1,0,240,215,1,239,,,,,,,,,,,,,,,,,,
,,0,215,,,,,,,2,1,3,stim/13.jpeg,HouseObjects,1,stim/objects/HouseObjects/rubbergloves.png,0.3,4,0.2,-0.15,left,32,2020-12-06_09h38.33.601,premup-three_ses-01_part-01_label-phase1,3.2.4,Win32,60,,,4,0,4,0,1,3,1,0,240,86,1,239,,,,,,,,,,,,,,,,,,
,,1,216,,,,,,,1,6,2,stim/62.jpeg,HouseObjects,1,stim/objects/HouseObjects/match.png,0.5,4,0.2,-0.15,left,32,2020-12-06_09h38.33.601,premup-three_ses-01_part-01_label-phase1,3.2.4,Win32,60,left,0.534000158,4,0,4,0,1,3,1,0,240,45,1,239,,,,,,,,,,,,,,,,,,
,,0,217,,,,,,,2,1,4,stim/14.jpeg,HouseObjects,1,stim/objects/HouseObjects/rug.png,0.3,3,-0.2,-0.15,left,32,2020-12-06_09h38.33.601,premup-three_ses-01_part-01_label-phase1,3.2.4,Win32,60,right,0.628000021,4,0,4,0,1,3,1,0,240,91,1,239,,,,,,,,,,,,,,,,,,
,,0,218,,,,,,,1,6,1,stim/61.jpeg,Instruments,2,stim/objects/Instruments/metronome.png,0.5,2,0.2,0.15,right,32,2020-12-06_09h38.33.601,premup-three_ses-01_part-01_label-phase1,3.2.4,Win32,60,left,0.659000158,4,0,4,0,1,3,1,0,240,60,1,239,,,,,,,,,,,,,,,,,,
,,1,219,,,,,,,3,4,2,stim/42.jpeg,HouseObjects,1,stim/objects/HouseObjects/remote2.png,0.9,4,0.2,-0.15,left,32,2020-12-06_09h38.33.601,premup-three_ses-01_part-01_label-phase1,3.2.4,Win32,60,left,0.906000137,4,0,4,0,1,3,1,0,240,217,1,239,,,,,,,,,,,,,,,,,,
,,1,220,,,,,,,3,4,4,stim/44.jpeg,HouseObjects,1,stim/objects/HouseObjects/rug2.png,0.9,4,0.2,-0.15,left,32,2020-12-06_09h38.33.601,premup-three_ses-01_part-01_label-phase1,3.2.4,Win32,60,left,0.832999945,4,0,4,0,1,3,1,0,240,223,1,239,,,,,,,,,,,,,,,,,,
,,1,221,,,,,,,3,4,1,stim/41.jpeg,HouseObjects,1,stim/objects/HouseObjects/recyclingbin2.png,0.9,3,-0.2,-0.15,left,32,2020-12-06_09h38.33.601,premup-three_ses-01_part-01_label-phase1,3.2.4,Win32,60,left,0.742000103,4,0,4,0,1,3,1,0,240,232,1,239,,,,,,,,,,,,,,,,,,
,,0,222,,,,,,,1,6,2,stim/62.jpeg,HouseObjects,1,stim/objects/HouseObjects/match.png,0.5,1,-0.2,0.15,left,32,2020-12-06_09h38.33.601,premup-three_ses-01_part-01_label-phase1,3.2.4,Win32,60,right,0.75999999,4,0,4,0,1,3,1,0,240,49,1,239,,,,,,,,,,,,,,,,,,
,,0,223,,,,,,,1,5,4,stim/54.jpeg,Instruments,2,stim/objects/Instruments/marimba.png,0.5,4,0.2,-0.15,right,32,2020-12-06_09h38.33.601,premup-three_ses-01_part-01_label-phase1,3.2.4,Win32,60,left,0.55700016,4,0,4,0,1,3,1,0,240,35,1,239,,,,,,,,,,,,,,,,,,
,,1,224,,,,,,,2,2,4,stim/24.jpeg,HouseObjects,1,stim/objects/HouseObjects/knife2.png,0.7,4,0.2,-0.15,left,32,2020-12-06_09h38.33.601,premup-three_ses-01_part-01_label-phase1,3.2.4,Win32,60,left,0.530999899,4,0,4,0,1,3,1,0,240,147,1,239,,,,,,,,,,,,,,,,,,
,,0,225,,,,,,,2,2,3,stim/23.jpeg,Instruments,2,stim/objects/Instruments/maraca2.png,0.3,1,-0.2,0.15,right,32,2020-12-06_09h38.33.601,premup-three_ses-01_part-01_label-phase1,3.2.4,Win32,60,left,0.42599988,4,0,4,0,1,3,1,0,240,158,1,239,,,,,,,,,,,,,,,,,,
,,0,226,,,,,,,1,5,3,stim/53.jpeg,HouseObjects,1,stim/objects/HouseObjects/key.png,0.5,2,0.2,0.15,left,32,2020-12-06_09h38.33.601,premup-three_ses-01_part-01_label-phase1,3.2.4,Win32,60,right,0.348999977,4,0,4,0,1,3,1,0,240,14,1,239,,,,,,,,,,,,,,,,,,
,,0,227,,,,,,,2,1,1,stim/11.jpeg,Instruments,2,stim/objects/Instruments/panflute.png,0.7,3,-0.2,-0.15,right,32,2020-12-06_09h38.33.601,premup-three_ses-01_part-01_label-phase1,3.2.4,Win32,60,left,0.461999893,4,0,4,0,1,3,1,0,240,116,1,239,,,,,,,,,,,,,,,,,,
,,0,228,,,,,,,3,4,3,stim/43.jpeg,HouseObjects,1,stim/objects/HouseObjects/rubbergloves2.png,0.9,4,0.2,-0.15,left,32,2020-12-06_09h38.33.601,premup-three_ses-01_part-01_label-phase1,3.2.4,Win32,60,right,0.723999977,4,0,4,0,1,3,1,0,240,222,1,239,,,,,,,,,,,,,,,,,,
,,0,229,,,,,,,2,1,3,stim/13.jpeg,Instruments,2,stim/objects/Instruments/record.png,0.7,4,0.2,-0.15,right,32,2020-12-06_09h38.33.601,premup-three_ses-01_part-01_label-phase1,3.2.4,Win32,60,left,0.812000036,4,0,4,0,1,3,1,0,240,94,1,239,,,,,,,,,,,,,,,,,,
,,0,230,,,,,,,3,3,3,stim/33.jpeg,Instruments,2,stim/objects/Instruments/musicstand2.png,0.9,3,-0.2,-0.15,right,32,2020-12-06_09h38.33.601,premup-three_ses-01_part-01_label-phase1,3.2.4,Win32,60,left,0.417000055,4,0,4,0,1,3,1,0,240,186,1,239,,,,,,,,,,,,,,,,,,
,,1,231,,,,,,,3,3,1,stim/31.jpeg,HouseObjects,1,stim/objects/HouseObjects/lintroller2.png,0.1,4,0.2,-0.15,left,32,2020-12-06_09h38.33.601,premup-three_ses-01_part-01_label-phase1,3.2.4,Win32,60,left,0.809000015,4,0,4,0,1,3,1,0,240,160,1,239,,,,,,,,,,,,,,,,,,
,,0,232,,,,,,,3,3,4,stim/34.jpeg,Instruments,2,stim/objects/Instruments/oboe2.png,0.9,1,-0.2,0.15,right,32,2020-12-06_09h38.33.601,premup-three_ses-01_part-01_label-phase1,3.2.4,Win32,60,left,0.839999914,4,0,4,0,1,3,1,0,240,183,1,239,,,,,,,,,,,,,,,,,,
,,1,233,,,,,,,3,3,1,stim/31.jpeg,Instruments,2,stim/objects/Instruments/metronome2.png,0.9,4,0.2,-0.15,right,32,2020-12-06_09h38.33.601,premup-three_ses-01_part-01_label-phase1,3.2.4,Win32,60,right,0.583999872,4,0,4,0,1,3,1,0,240,168,1,239,,,,,,,,,,,,,,,,,,
,,0,234,,,,,,,1,5,4,stim/54.jpeg,Instruments,2,stim/objects/Instruments/marimba.png,0.5,2,0.2,0.15,right,32,2020-12-06_09h38.33.601,premup-three_ses-01_part-01_label-phase1,3.2.4,Win32,60,left,0.519999981,4,0,4,0,1,3,1,0,240,23,1,239,,,,,,,,,,,,,,,,,,
,,1,235,,,,,,,1,6,3,stim/63.jpeg,HouseObjects,1,stim/objects/HouseObjects/pan.png,0.5,4,0.2,-0.15,left,32,2020-12-06_09h38.33.601,premup-three_ses-01_part-01_label-phase1,3.2.4,Win32,60,left,0.875,4,0,4,0,1,3,1,0,240,50,1,239,,,,,,,,,,,,,,,,,,
,,0,236,,,,,,,2,1,4,stim/14.jpeg,Instruments,2,stim/objects/Instruments/record_player.png,0.7,4,0.2,-0.15,right,32,2020-12-06_09h38.33.601,premup-three_ses-01_part-01_label-phase1,3.2.4,Win32,60,left,0.843000174,4,0,4,0,1,3,1,0,240,115,1,239,,,,,,,,,,,,,,,,,,
,,0,237,,,,,,,2,2,3,stim/23.jpeg,HouseObjects,1,stim/objects/HouseObjects/key2.png,0.7,1,-0.2,0.15,left,32,2020-12-06_09h38.33.601,premup-three_ses-01_part-01_label-phase1,3.2.4,Win32,60,right,0.697000027,4,0,4,0,1,3,1,0,240,138,1,239,,,,,,,,,,,,,,,,,,
,,1,238,,,,,,,1,5,4,stim/54.jpeg,HouseObjects,1,stim/objects/HouseObjects/knife.png,0.5,2,0.2,0.15,left,32,2020-12-06_09h38.33.601,premup-three_ses-01_part-01_label-phase1,3.2.4,Win32,60,left,0.263000011,4,0,4,0,1,3,1,0,240,7,1,239,,,,,,,,,,,,,,,,,,
,,1,239,,,,,,,3,3,2,stim/32.jpeg,HouseObjects,1,stim/objects/HouseObjects/match2.png,0.1,4,0.2,-0.15,left,32,2020-12-06_09h38.33.601,premup-three_ses-01_part-01_label-phase1,3.2.4,Win32,60,left,0.194000006,4,0,4,0,1,3,1,0,240,161,1,239,,,,,,,,,,,,,,,,,,
,,1,240,,,,,,,3,4,3,stim/43.jpeg,HouseObjects,1,stim/objects/HouseObjects/rubbergloves2.png,0.9,2,0.2,0.15,left,32,2020-12-06_09h38.33.601,premup-three_ses-01_part-01_label-phase1,3.2.4,Win32,60,left,0.652999878,4,0,4,0,1,3,1,0,240,226,1,239,,,,,,,,,,,,,,,,,,
,,,,,,,,,,,5,,stim/51.jpeg,,,,,,,,,32,2020-12-06_09h38.33.601,premup-three_ses-01_part-01_label-phase1,3.2.4,Win32,60,,,4,0,4,0,1,3,,,,,,,1,0,100,5.836999893,,,1,0,6,4,1,5,Music items,5,15,Household items,85,95
,,,,,,,,,,,6,,stim/61.jpeg,,,,,,,,,32,2020-12-06_09h38.33.601,premup-three_ses-01_part-01_label-phase1,3.2.4,Win32,60,,,4,0,4,0,1,3,,,,,,,1,0,80,5.597999811,,,1,0,6,5,1,5,Household items,5,15,Music items,85,95
,,,,,,,,,,,4,,stim/41.jpeg,,,,,,,,,32,2020-12-06_09h38.33.601,premup-three_ses-01_part-01_label-phase1,3.2.4,Win32,60,,,4,0,4,0,1,3,,,,,,,1,0,0,2.835000038,,,1,0,6,3,1,5,Household items,65,75,Music items,25,35
,,,,,,,,,,,2,,stim/21.jpeg,,,,,,,,,32,2020-12-06_09h38.33.601,premup-three_ses-01_part-01_label-phase1,3.2.4,Win32,60,,,4,0,4,0,1,3,,,,,,,1,0,30,2.950999975,,,1,0,6,1,1,5,Music items,45,55,Household items,45,55
,,,,,,,,,,,3,,stim/31.jpeg,,,,,,,,,32,2020-12-06_09h38.33.601,premup-three_ses-01_part-01_label-phase1,3.2.4,Win32,60,,,4,0,4,0,1,3,,,,,,,1,1,71,2.200999975,,,1,0,6,2,1,5,Household items,65,75,Music items,25,35
,,,,,,,,,,,1,,stim/11.jpeg,,,,,,,,,32,2020-12-06_09h38.33.601,premup-three_ses-01_part-01_label-phase1,3.2.4,Win32,60,,,4,0,4,0,1,3,,,,,,,1,1,19,1.978000164,,,1,0,6,0,1,5,Household items,45,55,Music items,45,55
,,,,,,,,,,,,,,,,,,,,,,32,2020-12-06_09h38.33.601,premup-three_ses-01_part-01_label-phase1,3.2.4,Win32,60,,,4,0,4,0,1,3,,,,,,,,,,,,,,,,,,,,,,,,
,,1,1,,,,,,,3,4,4,stim/44.jpeg,HouseObjects,1,stim/objects/HouseObjects/rug2.png,0.9,1,-0.2,0.15,left,32,2020-12-06_09h38.33.601,premup-three_ses-01_part-01_label-phase1,3.2.4,Win32,60,left,0.803999901,4,0,4,0,1,3,1,0,240,207,1,239,,,,,,,,,,,,,,,,,,
,,0,2,,,,,,,2,1,4,stim/14.jpeg,HouseObjects,1,stim/objects/HouseObjects/rug.png,0.3,4,0.2,-0.15,left,32,2020-12-06_09h38.33.601,premup-three_ses-01_part-01_label-phase1,3.2.4,Win32,60,right,0.56400013,4,0,4,0,1,3,1,0,240,83,1,239,,,,,,,,,,,,,,,,,,
,,0,3,,,,,,,1,6,3,stim/63.jpeg,HouseObjects,1,stim/objects/HouseObjects/pan.png,0.5,3,-0.2,-0.15,left,32,2020-12-06_09h38.33.601,premup-three_ses-01_part-01_label-phase1,3.2.4,Win32,60,right,0.924000025,4,0,4,0,1,3,1,0,240,54,1,239,,,,,,,,,,,,,,,,,,
,,0,4,,,,,,,1,6,3,stim/63.jpeg,Instruments,2,stim/objects/Instruments/musicstand.png,0.5,2,0.2,0.15,right,32,2020-12-06_09h38.33.601,premup-three_ses-01_part-01_label-phase1,3.2.4,Win32,60,left,0.578000069,4,0,4,0,1,3,1,0,240,78,1,239,,,,,,,,,,,,,,,,,,
,,0,5,,,,,,,1,6,4,stim/64.jpeg,Instruments,2,stim/objects/Instruments/oboe.png,0.5,3,-0.2,-0.15,right,32,2020-12-06_09h38.33.601,premup-three_ses-01_part-01_label-phase1,3.2.4,Win32,60,left,0.644999981,4,0,4,0,1,3,1,0,240,79,1,239,,,,,,,,,,,,,,,,,,
,,0,6,,,,,,,2,1,2,stim/12.jpeg,Instruments,2,stim/objects/Instruments/pipepiano.png,0.7,2,0.2,0.15,right,32,2020-12-06_09h38.33.601,premup-three_ses-01_part-01_label-phase1,3.2.4,Win32,60,left,0.546000004,4,0,4,0,1,3,1,0,240,109,1,239,,,,,,,,,,,,,,,,,,
,,0,7,,,,,,,2,1,3,stim/13.jpeg,Instruments,2,stim/objects/Instruments/record.png,0.7,4,0.2,-0.15,right,32,2020-12-06_09h38.33.601,premup-three_ses-01_part-01_label-phase1,3.2.4,Win32,60,left,0.582000017,4,0,4,0,1,3,1,0,240,106,1,239,,,,,,,,,,,,,,,,,,
,,0,8,,,,,,,3,3,2,stim/32.jpeg,Instruments,2,stim/objects/Instruments/musicsheet2.png,0.9,1,-0.2,0.15,right,32,2020-12-06_09h38.33.601,premup-three_ses-01_part-01_label-phase1,3.2.4,Win32,60,left,0.68599987,4,0,4,0,1,3,1,0,240,185,1,239,,,,,,,,,,,,,,,,,,
,,1,9,,,,,,,2,1,3,stim/13.jpeg,Instruments,2,stim/objects/Instruments/record.png,0.7,1,-0.2,0.15,right,32,2020-12-06_09h38.33.601,premup-three_ses-01_part-01_label-phase1,3.2.4,Win32,60,right,0.590999842,4,0,4,0,1,3,1,0,240,102,1,239,,,,,,,,,,,,,,,,,,
,,0,10,,,,,,,1,5,1,stim/51.jpeg,Instruments,2,stim/objects/Instruments/keyboard.png,0.5,4,0.2,-0.15,right,32,2020-12-06_09h38.33.601,premup-three_ses-01_part-01_label-phase1,3.2.4,Win32,60,left,0.700999975,4,0,4,0,1,3,1,0,240,28,1,239,,,,,,,,,,,,,,,,,,
,,1,11,,,,,,,2,1,3,stim/13.jpeg,Instruments,2,stim/objects/Instruments/record.png,0.7,4,0.2,-0.15,right,32,2020-12-06_09h38.33.601,premup-three_ses-01_part-01_label-phase1,3.2.4,Win32,60,right,0.74000001,4,0,4,0,1,3,1,0,240,114,1,239,,,,,,,,,,,,,,,,,,
,,1,12,,,,,,,2,1,4,stim/14.jpeg,Instruments,2,stim/objects/Instruments/record_player.png,0.7,3,-0.2,-0.15,right,32,2020-12-06_09h38.33.601,premup-three_ses-01_part-01_label-phase1,3.2.4,Win32,60,right,0.625999928,4,0,4,0,1,3,1,0,240,111,1,239,,,,,,,,,,,,,,,,,,
,,1,13,,,,,,,2,2,1,stim/21.jpeg,Instruments,2,stim/objects/Instruments/keyboard2.png,0.3,2,0.2,0.15,right,32,2020-12-06_09h38.33.601,premup-three_ses-01_part-01_label-phase1,3.2.4,Win32,60,right,0.465000153,4,0,4,0,1,3,1,0,240,148,1,239,,,,,,,,,,,,,,,,,,
,,1,14,,,,,,,2,2,2,stim/22.jpeg,Instruments,2,stim/objects/Instruments/laud2.png,0.3,4,0.2,-0.15,right,32,2020-12-06_09h38.33.601,premup-three_ses-01_part-01_label-phase1,3.2.4,Win32,60,right,0.55099988,4,0,4,0,1,3,1,0,240,149,1,239,,,,,,,,,,,,,,,,,,
,,0,15,,,,,,,3,3,1,stim/31.jpeg,HouseObjects,1,stim/objects/HouseObjects/lintroller2.png,0.1,4,0.2,-0.15,left,32,2020-12-06_09h38.33.601,premup-three_ses-01_part-01_label-phase1,3.2.4,Win32,60,right,0.585000038,4,0,4,0,1,3,1,0,240,160,1,239,,,,,,,,,,,,,,,,,,
,,1,16,,,,,,,3,4,1,stim/41.jpeg,HouseObjects,1,stim/objects/HouseObjects/recyclingbin2.png,0.9,3,-0.2,-0.15,left,32,2020-12-06_09h38.33.601,premup-three_ses-01_part-01_label-phase1,3.2.4,Win32,60,left,0.681999922,4,0,4,0,1,3,1,0,240,212,1,239,,,,,,,,,,,,,,,,,,
,,1,17,,,,,,,2,2,4,stim/24.jpeg,HouseObjects,1,stim/objects/HouseObjects/knife2.png,0.7,4,0.2,-0.15,left,32,2020-12-06_09h38.33.601,premup-three_ses-01_part-01_label-phase1,3.2.4,Win32,60,left,0.567000151,4,0,4,0,1,3,1,0,240,123,1,239,,,,,,,,,,,,,,,,,,
,,1,18,,,,,,,1,5,3,stim/53.jpeg,HouseObjects,1,stim/objects/HouseObjects/key.png,0.5,4,0.2,-0.15,left,32,2020-12-06_09h38.33.601,premup-three_ses-01_part-01_label-phase1,3.2.4,Win32,60,left,0.552000046,4,0,4,0,1,3,1,0,240,6,1,239,,,,,,,,,,,,,,,,,,
,,1,19,,,,,,,1,5,4,stim/54.jpeg,HouseObjects,1,stim/objects/HouseObjects/knife.png,0.5,1,-0.2,0.15,left,32,2020-12-06_09h38.33.601,premup-three_ses-01_part-01_label-phase1,3.2.4,Win32,60,left,0.548000097,4,0,4,0,1,3,1,0,240,11,1,239,,,,,,,,,,,,,,,,,,
,,0,20,,,,,,,2,1,2,stim/12.jpeg,Instruments,2,stim/objects/Instruments/pipepiano.png,0.7,2,0.2,0.15,right,32,2020-12-06_09h38.33.601,premup-three_ses-01_part-01_label-phase1,3.2.4,Win32,60,left,0.514999866,4,0,4,0,1,3,1,0,240,105,1,239,,,,,,,,,,,,,,,,,,
,,0,21,,,,,,,2,1,4,stim/14.jpeg,Instruments,2,stim/objects/Instruments/record_player.png,0.7,1,-0.2,0.15,right,32,2020-12-06_09h38.33.601,premup-three_ses-01_part-01_label-phase1,3.2.4,Win32,60,left,0.648000002,4,0,4,0,1,3,1,0,240,99,1,239,,,,,,,,,,,,,,,,,,
,,1,22,,,,,,,1,6,4,stim/64.jpeg,HouseObjects,1,stim/objects/HouseObjects/pitcher.png,0.5,3,-0.2,-0.15,left,32,2020-12-06_09h38.33.601,premup-three_ses-01_part-01_label-phase1,3.2.4,Win32,60,left,0.648999929,4,0,4,0,1,3,1,0,240,47,1,239,,,,,,,,,,,,,,,,,,
,,1,23,,,,,,,2,1,1,stim/11.jpeg,Instruments,2,stim/objects/Instruments/panflute.png,0.7,2,0.2,0.15,right,32,2020-12-06_09h38.33.601,premup-three_ses-01_part-01_label-phase1,3.2.4,Win32,60,right,0.398000002,4,0,4,0,1,3,1,0,240,112,1,239,,,,,,,,,,,,,,,,,,
,,0,24,,,,,,,3,4,4,stim/44.jpeg,HouseObjects,1,stim/objects/HouseObjects/rug2.png,0.9,2,0.2,0.15,left,32,2020-12-06_09h38.33.601,premup-three_ses-01_part-01_label-phase1,3.2.4,Win32,60,right,0.532000065,4,0,4,0,1,3,1,0,240,227,1,239,,,,,,,,,,,,,,,,,,
,,1,25,,,,,,,3,3,2,stim/32.jpeg,Instruments,2,stim/objects/Instruments/musicsheet2.png,0.9,4,0.2,-0.15,right,32,2020-12-06_09h38.33.601,premup-three_ses-01_part-01_label-phase1,3.2.4,Win32,60,right,0.656000137,4,0,4,0,1,3,1,0,240,177,1,239,,,,,,,,,,,,,,,,,,
,,0,26,,,,,,,1,5,4,stim/54.jpeg,HouseObjects,1,stim/objects/HouseObjects/knife.png,0.5,4,0.2,-0.15,left,32,2020-12-06_09h38.33.601,premup-three_ses-01_part-01_label-phase1,3.2.4,Win32,60,right,0.643000126,4,0,4,0,1,3,1,0,240,19,1,239,,,,,,,,,,,,,,,,,,
,,0,27,,,,,,,1,6,1,stim/61.jpeg,Instruments,2,stim/objects/Instruments/metronome.png,0.5,3,-0.2,-0.15,right,32,2020-12-06_09h38.33.601,premup-three_ses-01_part-01_label-phase1,3.2.4,Win32,60,left,0.486999989,4,0,4,0,1,3,1,0,240,76,1,239,,,,,,,,,,,,,,,,,,
,,1,28,,,,,,,2,2,4,stim/24.jpeg,Instruments,2,stim/objects/Instruments/marimba2.png,0.3,2,0.2,0.15,right,32,2020-12-06_09h38.33.601,premup-three_ses-01_part-01_label-phase1,3.2.4,Win32,60,right,0.644999981,4,0,4,0,1,3,1,0,240,155,1,239,,,,,,,,,,,,,,,,,,
,,1,29,,,,,,,1,6,1,stim/61.jpeg,HouseObjects,1,stim/objects/HouseObjects/lintroller.png,0.5,2,0.2,0.15,left,32,2020-12-06_09h38.33.601,premup-three_ses-01_part-01_label-phase1,3.2.4,Win32,60,left,0.657999992,4,0,4,0,1,3,1,0,240,52,1,239,,,,,,,,,,,,,,,,,,
,,1,30,,,,,,,3,4,4,stim/44.jpeg,HouseObjects,1,stim/objects/HouseObjects/rug2.png,0.9,4,0.2,-0.15,left,32,2020-12-06_09h38.33.601,premup-three_ses-01_part-01_label-phase1,3.2.4,Win32,60,left,0.604000092,4,0,4,0,1,3,1,0,240,211,1,239,,,,,,,,,,,,,,,,,,
,,1,31,,,,,,,3,4,4,stim/44.jpeg,HouseObjects,1,stim/objects/HouseObjects/rug2.png,0.9,4,0.2,-0.15,left,32,2020-12-06_09h38.33.601,premup-three_ses-01_part-01_label-phase1,3.2.4,Win32,60,left,0.493000031,4,0,4,0,1,3,1,0,240,223,1,239,,,,,,,,,,,,,,,,,,
,,0,32,,,,,,,1,5,1,stim/51.jpeg,Instruments,2,stim/objects/Instruments/keyboard.png,0.5,4,0.2,-0.15,right,32,2020-12-06_09h38.33.601,premup-three_ses-01_part-01_label-phase1,3.2.4,Win32,60,left,0.957999945,4,0,4,0,1,3,1,0,240,20,1,239,,,,,,,,,,,,,,,,,,
,,0,33,,,,,,,1,5,1,stim/51.jpeg,HouseObjects,1,stim/objects/HouseObjects/iron.png,0.5,1,-0.2,0.15,left,32,2020-12-06_09h38.33.601,premup-three_ses-01_part-01_label-phase1,3.2.4,Win32,60,right,1.146000147,4,0,4,0,1,3,1,0,240,16,1,239,,,,,,,,,,,,,,,,,,
,,0,34,,,,,,,3,3,3,stim/33.jpeg,Instruments,2,stim/objects/Instruments/musicstand2.png,0.9,2,0.2,0.15,right,32,2020-12-06_09h38.33.601,premup-three_ses-01_part-01_label-phase1,3.2.4,Win32,60,left,0.605999947,4,0,4,0,1,3,1,0,240,182,1,239,,,,,,,,,,,,,,,,,,
,,0,35,,,,,,,2,2,3,stim/23.jpeg,HouseObjects,1,stim/objects/HouseObjects/key2.png,0.7,2,0.2,0.15,left,32,2020-12-06_09h38.33.601,premup-three_ses-01_part-01_label-phase1,3.2.4,Win32,60,right,0.421999931,4,0,4,0,1,3,1,0,240,134,1,239,,,,,,,,,,,,,,,,,,
,,1,36,,,,,,,2,2,2,stim/22.jpeg,HouseObjects,1,stim/objects/HouseObjects/ironingboard2.png,0.7,4,0.2,-0.15,left,32,2020-12-06_09h38.33.601,premup-three_ses-01_part-01_label-phase1,3.2.4,Win32,60,left,0.717000008,4,0,4,0,1,3,1,0,240,141,1,239,,,,,,,,,,,,,,,,,,
,,1,37,,,,,,,3,4,3,stim/43.jpeg,HouseObjects,1,stim/objects/HouseObjects/rubbergloves2.png,0.9,3,-0.2,-0.15,left,32,2020-12-06_09h38.33.601,premup-three_ses-01_part-01_label-phase1,3.2.4,Win32,60,left,0.582000017,4,0,4,0,1,3,1,0,240,230,1,239,,,,,,,,,,,,,,,,,,
,,0,38,,,,,,,2,1,4,stim/14.jpeg,Instruments,2,stim/objects/Instruments/record_player.png,0.7,3,-0.2,-0.15,right,32,2020-12-06_09h38.33.601,premup-three_ses-01_part-01_label-phase1,3.2.4,Win32,60,left,0.475000143,4,0,4,0,1,3,1,0,240,103,1,239,,,,,,,,,,,,,,,,,,
,,0,39,,,,,,,2,1,4,stim/14.jpeg,Instruments,2,stim/objects/Instruments/record_player.png,0.7,4,0.2,-0.15,right,32,2020-12-06_09h38.33.601,premup-three_ses-01_part-01_label-phase1,3.2.4,Win32,60,left,0.398000002,4,0,4,0,1,3,1,0,240,119,1,239,,,,,,,,,,,,,,,,,,
,,1,40,,,,,,,2,1,2,stim/12.jpeg,Instruments,2,stim/objects/Instruments/pipepiano.png,0.7,1,-0.2,0.15,right,32,2020-12-06_09h38.33.601,premup-three_ses-01_part-01_label-phase1,3.2.4,Win32,60,right,0.592000008,4,0,4,0,1,3,1,0,240,117,1,239,,,,,,,,,,,,,,,,,,
,,0,41,,,,,,,3,4,3,stim/43.jpeg,HouseObjects,1,stim/objects/HouseObjects/rubbergloves2.png,0.9,3,-0.2,-0.15,left,32,2020-12-06_09h38.33.601,premup-three_ses-01_part-01_label-phase1,3.2.4,Win32,60,right,0.484999895,4,0,4,0,1,3,1,0,240,206,1,239,,,,,,,,,,,,,,,,,,
,,0,42,,,,,,,3,3,4,stim/34.jpeg,Instruments,2,stim/objects/Instruments/oboe2.png,0.9,2,0.2,0.15,right,32,2020-12-06_09h38.33.601,premup-three_ses-01_part-01_label-phase1,3.2.4,Win32,60,left,0.613999844,4,0,4,0,1,3,1,0,240,187,1,239,,,,,,,,,,,,,,,,,,
,,1,43,,,,,,,1,6,3,stim/63.jpeg,Instruments,2,stim/objects/Instruments/musicstand.png,0.5,1,-0.2,0.15,right,32,2020-12-06_09h38.33.601,premup-three_ses-01_part-01_label-phase1,3.2.4,Win32,60,right,0.598999977,4,0,4,0,1,3,1,0,240,66,1,239,,,,,,,,,,,,,,,,,,
,,0,44,,,,,,,1,6,2,stim/62.jpeg,HouseObjects,1,stim/objects/HouseObjects/match.png,0.5,1,-0.2,0.15,left,32,2020-12-06_09h38.33.601,premup-three_ses-01_part-01_label-phase1,3.2.4,Win32,60,right,0.64199996,4,0,4,0,1,3,1,0,240,49,1,239,,,,,,,,,,,,,,,,,,
,,0,45,,,,,,,3,3,3,stim/33.jpeg,Instruments,2,stim/objects/Instruments/musicstand2.png,0.9,2,0.2,0.15,right,32,2020-12-06_09h38.33.601,premup-three_ses-01_part-01_label-phase1,3.2.4,Win32,60,left,0.559999943,4,0,4,0,1,3,1,0,240,190,1,239,,,,,,,,,,,,,,,,,,
,,1,46,,,,,,,3,4,3,stim/43.jpeg,HouseObjects,1,stim/objects/HouseObjects/rubbergloves2.png,0.9,4,0.2,-0.15,left,32,2020-12-06_09h38.33.601,premup-three_ses-01_part-01_label-phase1,3.2.4,Win32,60,left,0.565999985,4,0,4,0,1,3,1,0,240,202,1,239,,,,,,,,,,,,,,,,,,
,,0,47,,,,,,,3,3,1,stim/31.jpeg,Instruments,2,stim/objects/Instruments/metronome2.png,0.9,2,0.2,0.15,right,32,2020-12-06_09h38.33.601,premup-three_ses-01_part-01_label-phase1,3.2.4,Win32,60,left,0.568000078,4,0,4,0,1,3,1,0,240,180,1,239,,,,,,,,,,,,,,,,,,
,,1,48,,,,,,,1,6,4,stim/64.jpeg,Instruments,2,stim/objects/Instruments/oboe.png,0.5,1,-0.2,0.15,right,32,2020-12-06_09h38.33.601,premup-three_ses-01_part-01_label-phase1,3.2.4,Win32,60,right,0.97300005,4,0,4,0,1,3,1,0,240,71,1,239,,,,,,,,,,,,,,,,,,
,,1,49,,,,,,,2,2,2,stim/22.jpeg,HouseObjects,1,stim/objects/HouseObjects/ironingboard2.png,0.7,3,-0.2,-0.15,left,32,2020-12-06_09h38.33.601,premup-three_ses-01_part-01_label-phase1,3.2.4,Win32,60,left,0.40899992,4,0,4,0,1,3,1,0,240,129,1,239,,,,,,,,,,,,,,,,,,
,,0,50,,,,,,,3,4,3,stim/43.jpeg,HouseObjects,1,stim/objects/HouseObjects/rubbergloves2.png,0.9,2,0.2,0.15,left,32,2020-12-06_09h38.33.601,premup-three_ses-01_part-01_label-phase1,3.2.4,Win32,60,right,0.568000078,4,0,4,0,1,3,1,0,240,218,1,239,,,,,,,,,,,,,,,,,,
,,1,51,,,,,,,3,3,1,stim/31.jpeg,Instruments,2,stim/objects/Instruments/metronome2.png,0.9,3,-0.2,-0.15,right,32,2020-12-06_09h38.33.601,premup-three_ses-01_part-01_label-phase1,3.2.4,Win32,60,right,0.75,4,0,4,0,1,3,1,0,240,188,1,239,,,,,,,,,,,,,,,,,,
,,0,52,,,,,,,1,5,4,stim/54.jpeg,HouseObjects,1,stim/objects/HouseObjects/knife.png,0.5,2,0.2,0.15,left,32,2020-12-06_09h38.33.601,premup-three_ses-01_part-01_label-phase1,3.2.4,Win32,60,right,0.539999962,4,0,4,0,1,3,1,0,240,7,1,239,,,,,,,,,,,,,,,,,,
,,1,53,,,,,,,1,5,1,stim/51.jpeg,Instruments,2,stim/objects/Instruments/keyboard.png,0.5,1,-0.2,0.15,right,32,2020-12-06_09h38.33.601,premup-three_ses-01_part-01_label-phase1,3.2.4,Win32,60,right,0.75,4,0,4,0,1,3,1,0,240,24,1,239,,,,,,,,,,,,,,,,,,
,,0,54,,,,,,,3,3,4,stim/34.jpeg,Instruments,2,stim/objects/Instruments/oboe2.png,0.9,2,0.2,0.15,right,32,2020-12-06_09h38.33.601,premup-three_ses-01_part-01_label-phase1,3.2.4,Win32,60,left,0.479000092,4,0,4,0,1,3,1,0,240,175,1,239,,,,,,,,,,,,,,,,,,
,,1,55,,,,,,,3,4,2,stim/42.jpeg,HouseObjects,1,stim/objects/HouseObjects/remote2.png,0.9,2,0.2,0.15,left,32,2020-12-06_09h38.33.601,premup-three_ses-01_part-01_label-phase1,3.2.4,Win32,60,left,0.443000078,4,0,4,0,1,3,1,0,240,213,1,239,,,,,,,,,,,,,,,,,,
,,0,56,,,,,,,2,2,3,stim/23.jpeg,HouseObjects,1,stim/objects/HouseObjects/key2.png,0.7,1,-0.2,0.15,left,32,2020-12-06_09h38.33.601,premup-three_ses-01_part-01_label-phase1,3.2.4,Win32,60,right,0.484999895,4,0,4,0,1,3,1,0,240,126,1,239,,,,,,,,,,,,,,,,,,
,,1,57,,,,,,,2,2,4,stim/24.jpeg,HouseObjects,1,stim/objects/HouseObjects/knife2.png,0.7,3,-0.2,-0.15,left,32,2020-12-06_09h38.33.601,premup-three_ses-01_part-01_label-phase1,3.2.4,Win32,60,left,0.633000135,4,0,4,0,1,3,1,0,240,139,1,239,,,,,,,,,,,,,,,,,,
,,0,58,,,,,,,2,1,1,stim/11.jpeg,Instruments,2,stim/objects/Instruments/panflute.png,0.7,3,-0.2,-0.15,right,32,2020-12-06_09h38.33.601,premup-three_ses-01_part-01_label-phase1,3.2.4,Win32,60,left,0.496999979,4,0,4,0,1,3,1,0,240,104,1,239,,,,,,,,,,,,,,,,,,
,,1,59,,,,,,,2,1,2,stim/12.jpeg,HouseObjects,1,stim/objects/HouseObjects/remote.png,0.3,1,-0.2,0.15,left,32,2020-12-06_09h38.33.601,premup-three_ses-01_part-01_label-phase1,3.2.4,Win32,60,left,0.59100008,4,0,4,0,1,3,1,0,240,89,1,239,,,,,,,,,,,,,,,,,,
,,1,60,,,,,,,1,6,2,stim/62.jpeg,Instruments,2,stim/objects/Instruments/musicsheet.png,0.5,1,-0.2,0.15,right,32,2020-12-06_09h38.33.601,premup-three_ses-01_part-01_label-phase1,3.2.4,Win32,60,right,0.689999819,4,0,4,0,1,3,1,0,240,73,1,239,,,,,,,,,,,,,,,,,,
,,1,61,,,,,,,2,1,2,stim/12.jpeg,HouseObjects,1,stim/objects/HouseObjects/remote.png,0.3,2,0.2,0.15,left,32,2020-12-06_09h38.33.601,premup-three_ses-01_part-01_label-phase1,3.2.4,Win32,60,left,0.467000008,4,0,4,0,1,3,1,0,240,85,1,239,,,,,,,,,,,,,,,,,,
,,1,62,,,,,,,1,6,4,stim/64.jpeg,HouseObjects,1,stim/objects/HouseObjects/pitcher.png,0.5,4,0.2,-0.15,left,32,2020-12-06_09h38.33.601,premup-three_ses-01_part-01_label-phase1,3.2.4,Win32,60,left,0.5,4,0,4,0,1,3,1,0,240,59,1,239,,,,,,,,,,,,,,,,,,
,,1,63,,,,,,,2,2,2,stim/22.jpeg,HouseObjects,1,stim/objects/HouseObjects/ironingboard2.png,0.7,4,0.2,-0.15,left,32,2020-12-06_09h38.33.601,premup-three_ses-01_part-01_label-phase1,3.2.4,Win32,60,left,0.660000086,4,0,4,0,1,3,1,0,240,125,1,239,,,,,,,,,,,,,,,,,,
,,0,64,,,,,,,1,5,1,stim/51.jpeg,HouseObjects,1,stim/objects/HouseObjects/iron.png,0.5,1,-0.2,0.15,left,32,2020-12-06_09h38.33.601,premup-three_ses-01_part-01_label-phase1,3.2.4,Win32,60,right,0.541000128,4,0,4,0,1,3,1,0,240,4,1,239,,,,,,,,,,,,,,,,,,
,,0,65,,,,,,,3,3,3,stim/33.jpeg,Instruments,2,stim/objects/Instruments/musicstand2.png,0.9,3,-0.2,-0.15,right,32,2020-12-06_09h38.33.601,premup-three_ses-01_part-01_label-phase1,3.2.4,Win32,60,left,0.539000034,4,0,4,0,1,3,1,0,240,186,1,239,,,,,,,,,,,,,,,,,,
,,1,66,,,,,,,3,3,3,stim/33.jpeg,Instruments,2,stim/objects/Instruments/musicstand2.png,0.9,1,-0.2,0.15,right,32,2020-12-06_09h38.33.601,premup-three_ses-01_part-01_label-phase1,3.2.4,Win32,60,right,0.287000179,4,0,4,0,1,3,1,0,240,194,1,239,,,,,,,,,,,,,,,,,,
,,1,67,,,,,,,2,1,2,stim/12.jpeg,Instruments,2,stim/objects/Instruments/pipepiano.png,0.7,1,-0.2,0.15,right,32,2020-12-06_09h38.33.601,premup-three_ses-01_part-01_label-phase1,3.2.4,Win32,60,right,0.390000105,4,0,4,0,1,3,1,0,240,113,1,239,,,,,,,,,,,,,,,,,,
,,1,68,,,,,,,3,4,4,stim/44.jpeg,HouseObjects,1,stim/objects/HouseObjects/rug2.png,0.9,4,0.2,-0.15,left,32,2020-12-06_09h38.33.601,premup-three_ses-01_part-01_label-phase1,3.2.4,Win32,60,left,0.475000143,4,0,4,0,1,3,1,0,240,215,1,239,,,,,,,,,,,,,,,,,,
,,1,69,,,,,,,1,6,4,stim/64.jpeg,HouseObjects,1,stim/objects/HouseObjects/pitcher.png,0.5,3,-0.2,-0.15,left,32,2020-12-06_09h38.33.601,premup-three_ses-01_part-01_label-phase1,3.2.4,Win32,60,left,0.491999865,4,0,4,0,1,3,1,0,240,43,1,239,,,,,,,,,,,,,,,,,,
,,1,70,,,,,,,3,3,4,stim/34.jpeg,Instruments,2,stim/objects/Instruments/oboe2.png,0.9,1,-0.2,0.15,right,32,2020-12-06_09h38.33.601,premup-three_ses-01_part-01_label-phase1,3.2.4,Win32,60,right,0.319999933,4,0,4,0,1,3,1,0,240,183,1,239,,,,,,,,,,,,,,,,,,
,,0,71,,,,,,,2,2,3,stim/23.jpeg,HouseObjects,1,stim/objects/HouseObjects/key2.png,0.7,1,-0.2,0.15,left,32,2020-12-06_09h38.33.601,premup-three_ses-01_part-01_label-phase1,3.2.4,Win32,60,right,0.217000008,4,0,4,0,1,3,1,0,240,138,1,239,,,,,,,,,,,,,,,,,,
,,1,72,,,,,,,2,2,3,stim/23.jpeg,HouseObjects,1,stim/objects/HouseObjects/key2.png,0.7,2,0.2,0.15,left,32,2020-12-06_09h38.33.601,premup-three_ses-01_part-01_label-phase1,3.2.4,Win32,60,left,0.19900012,4,0,4,0,1,3,1,0,240,146,1,239,,,,,,,,,,,,,,,,,,
,,0,73,,,,,,,2,2,2,stim/22.jpeg,Instruments,2,stim/objects/Instruments/laud2.png,0.3,3,-0.2,-0.15,right,32,2020-12-06_09h38.33.601,premup-three_ses-01_part-01_label-phase1,3.2.4,Win32,60,left,0.45600009,4,0,4,0,1,3,1,0,240,153,1,239,,,,,,,,,,,,,,,,,,
,,1,74,,,,,,,3,3,4,stim/34.jpeg,Instruments,2,stim/objects/Instruments/oboe2.png,0.9,4,0.2,-0.15,right,32,2020-12-06_09h38.33.601,premup-three_ses-01_part-01_label-phase1,3.2.4,Win32,60,right,0.300000191,4,0,4,0,1,3,1,0,240,179,1,239,,,,,,,,,,,,,,,,,,
,,1,75,,,,,,,1,6,1,stim/61.jpeg,Instruments,2,stim/objects/Instruments/metronome.png,0.5,2,0.2,0.15,right,32,2020-12-06_09h38.33.601,premup-three_ses-01_part-01_label-phase1,3.2.4,Win32,60,right,0.422999859,4,0,4,0,1,3,1,0,240,64,1,239,,,,,,,,,,,,,,,,,,
,,1,76,,,,,,,1,6,4,stim/64.jpeg,HouseObjects,1,stim/objects/HouseObjects/pitcher.png,0.5,4,0.2,-0.15,left,32,2020-12-06_09h38.33.601,premup-three_ses-01_part-01_label-phase1,3.2.4,Win32,60,left,0.072999954,4,0,4,0,1,3,1,0,240,51,1,239,,,,,,,,,,,,,,,,,,
,,1,77,,,,,,,3,4,3,stim/43.jpeg,HouseObjects,1,stim/objects/HouseObjects/rubbergloves2.png,0.9,1,-0.2,0.15,left,32,2020-12-06_09h38.33.601,premup-three_ses-01_part-01_label-phase1,3.2.4,Win32,60,left,0.236999989,4,0,4,0,1,3,1,0,240,234,1,239,,,,,,,,,,,,,,,,,,
,,1,78,,,,,,,1,5,2,stim/52.jpeg,Instruments,2,stim/objects/Instruments/laud.png,0.5,4,0.2,-0.15,right,32,2020-12-06_09h38.33.601,premup-three_ses-01_part-01_label-phase1,3.2.4,Win32,60,right,0.251000166,4,0,4,0,1,3,1,0,240,37,1,239,,,,,,,,,,,,,,,,,,
,,0,79,,,,,,,2,1,3,stim/13.jpeg,HouseObjects,1,stim/objects/HouseObjects/rubbergloves.png,0.3,1,-0.2,0.15,left,32,2020-12-06_09h38.33.601,premup-three_ses-01_part-01_label-phase1,3.2.4,Win32,60,right,0.252000093,4,0,4,0,1,3,1,0,240,90,1,239,,,,,,,,,,,,,,,,,,
,,0,80,,,,,,,3,4,2,stim/42.jpeg,HouseObjects,1,stim/objects/HouseObjects/remote2.png,0.9,2,0.2,0.15,left,32,2020-12-06_09h38.33.601,premup-three_ses-01_part-01_label-phase1,3.2.4,Win32,60,right,0.256999969,4,0,4,0,1,3,1,0,240,225,1,239,,,,,,,,,,,,,,,,,,
,,0,81,,,,,,,3,4,1,stim/41.jpeg,HouseObjects,1,stim/objects/HouseObjects/recyclingbin2.png,0.9,1,-0.2,0.15,left,32,2020-12-06_09h38.33.601,premup-three_ses-01_part-01_label-phase1,3.2.4,Win32,60,right,0.231999874,4,0,4,0,1,3,1,0,240,224,1,239,,,,,,,,,,,,,,,,,,
,,1,82,,,,,,,1,6,1,stim/61.jpeg,HouseObjects,1,stim/objects/HouseObjects/lintroller.png,0.5,2,0.2,0.15,left,32,2020-12-06_09h38.33.601,premup-three_ses-01_part-01_label-phase1,3.2.4,Win32,60,left,0.203999996,4,0,4,0,1,3,1,0,240,48,1,239,,,,,,,,,,,,,,,,,,
,,0,83,,,,,,,1,6,4,stim/64.jpeg,Instruments,2,stim/objects/Instruments/oboe.png,0.5,2,0.2,0.15,right,32,2020-12-06_09h38.33.601,premup-three_ses-01_part-01_label-phase1,3.2.4,Win32,60,left,0.19900012,4,0,4,0,1,3,1,0,240,67,1,239,,,,,,,,,,,,,,,,,,
,,1,84,,,,,,,2,1,1,stim/11.jpeg,Instruments,2,stim/objects/Instruments/panflute.png,0.7,3,-0.2,-0.15,right,32,2020-12-06_09h38.33.601,premup-three_ses-01_part-01_label-phase1,3.2.4,Win32,60,right,0.156999826,4,0,4,0,1,3,1,0,240,100,1,239,,,,,,,,,,,,,,,,,,
,,0,85,,,,,,,1,5,1,stim/51.jpeg,Instruments,2,stim/objects/Instruments/keyboard.png,0.5,1,-0.2,0.15,right,32,2020-12-06_09h38.33.601,premup-three_ses-01_part-01_label-phase1,3.2.4,Win32,60,left,0.226999998,4,0,4,0,1,3,1,0,240,32,1,239,,,,,,,,,,,,,,,,,,
,,1,86,,,,,,,3,3,2,stim/32.jpeg,Instruments,2,stim/objects/Instruments/musicsheet2.png,0.9,3,-0.2,-0.15,right,32,2020-12-06_09h38.33.601,premup-three_ses-01_part-01_label-phase1,3.2.4,Win32,60,right,0.202000141,4,0,4,0,1,3,1,0,240,193,1,239,,,,,,,,,,,,,,,,,,
,,1,87,,,,,,,3,3,3,stim/33.jpeg,HouseObjects,1,stim/objects/HouseObjects/pan2.png,0.1,4,0.2,-0.15,left,32,2020-12-06_09h38.33.601,premup-three_ses-01_part-01_label-phase1,3.2.4,Win32,60,left,0.240999937,4,0,4,0,1,3,1,0,240,162,1,239,,,,,,,,,,,,,,,,,,
,,0,88,,,,,,,3,3,1,stim/31.jpeg,Instruments,2,stim/objects/Instruments/metronome2.png,0.9,3,-0.2,-0.15,right,32,2020-12-06_09h38.33.601,premup-three_ses-01_part-01_label-phase1,3.2.4,Win32,60,left,0.180999994,4,0,4,0,1,3,1,0,240,192,1,239,,,,,,,,,,,,,,,,,,
,,0,89,,,,,,,3,4,1,stim/41.jpeg,HouseObjects,1,stim/objects/HouseObjects/recyclingbin2.png,0.9,1,-0.2,0.15,left,32,2020-12-06_09h38.33.601,premup-three_ses-01_part-01_label-phase1,3.2.4,Win32,60,right,0.198999882,4,0,4,0,1,3,1,0,240,200,1,239,,,,,,,,,,,,,,,,,,
,,0,90,,,,,,,1,5,4,stim/54.jpeg,Instruments,2,stim/objects/Instruments/marimba.png,0.5,3,-0.2,-0.15,right,32,2020-12-06_09h38.33.601,premup-three_ses-01_part-01_label-phase1,3.2.4,Win32,60,left,0.052000046,4,0,4,0,1,3,1,0,240,31,1,239,,,,,,,,,,,,,,,,,,
,,1,91,,,,,,,3,4,2,stim/42.jpeg,HouseObjects,1,stim/objects/HouseObjects/remote2.png,0.9,1,-0.2,0.15,left,32,2020-12-06_09h38.33.601,premup-three_ses-01_part-01_label-phase1,3.2.4,Win32,60,left,0.59100008,4,0,4,0,1,3,1,0,240,201,1,239,,,,,,,,,,,,,,,,,,
,,1,92,,,,,,,1,6,2,stim/62.jpeg,Instruments,2,stim/objects/Instruments/musicsheet.png,0.5,4,0.2,-0.15,right,32,2020-12-06_09h38.33.601,premup-three_ses-01_part-01_label-phase1,3.2.4,Win32,60,right,0.593999863,4,0,4,0,1,3,1,0,240,61,1,239,,,,,,,,,,,,,,,,,,
,,0,93,,,,,,,2,2,1,stim/21.jpeg,Instruments,2,stim/objects/Instruments/keyboard2.png,0.3,4,0.2,-0.15,right,32,2020-12-06_09h38.33.601,premup-three_ses-01_part-01_label-phase1,3.2.4,Win32,60,left,0.392999887,4,0,4,0,1,3,1,0,240,152,1,239,,,,,,,,,,,,,,,,,,
,,0,94,,,,,,,1,5,3,stim/53.jpeg,HouseObjects,1,stim/objects/HouseObjects/key.png,0.5,3,-0.2,-0.15,left,32,2020-12-06_09h38.33.601,premup-three_ses-01_part-01_label-phase1,3.2.4,Win32,60,right,0.302999973,4,0,4,0,1,3,1,0,240,10,1,239,,,,,,,,,,,,,,,,,,
,,1,95,,,,,,,1,5,2,stim/52.jpeg,HouseObjects,1,stim/objects/HouseObjects/ironingboard.png,0.5,2,0.2,0.15,left,32,2020-12-06_09h38.33.601,premup-three_ses-01_part-01_label-phase1,3.2.4,Win32,60,left,0.412000179,4,0,4,0,1,3,1,0,240,9,1,239,,,,,,,,,,,,,,,,,,
,,1,96,,,,,,,3,3,2,stim/32.jpeg,Instruments,2,stim/objects/Instruments/musicsheet2.png,0.9,4,0.2,-0.15,right,32,2020-12-06_09h38.33.601,premup-three_ses-01_part-01_label-phase1,3.2.4,Win32,60,right,0.732999802,4,0,4,0,1,3,1,0,240,181,1,239,,,,,,,,,,,,,,,,,,
,,0,97,,,,,,,2,1,4,stim/14.jpeg,Instruments,2,stim/objects/Instruments/record_player.png,0.7,3,-0.2,-0.15,right,32,2020-12-06_09h38.33.601,premup-three_ses-01_part-01_label-phase1,3.2.4,Win32,60,left,0.226000071,4,0,4,0,1,3,1,0,240,95,1,239,,,,,,,,,,,,,,,,,,
,,0,98,,,,,,,1,6,3,stim/63.jpeg,HouseObjects,1,stim/objects/HouseObjects/pan.png,0.5,4,0.2,-0.15,left,32,2020-12-06_09h38.33.601,premup-three_ses-01_part-01_label-phase1,3.2.4,Win32,60,right,0.398000002,4,0,4,0,1,3,1,0,240,50,1,239,,,,,,,,,,,,,,,,,,
,,1,99,,,,,,,3,4,3,stim/43.jpeg,HouseObjects,1,stim/objects/HouseObjects/rubbergloves2.png,0.9,4,0.2,-0.15,left,32,2020-12-06_09h38.33.601,premup-three_ses-01_part-01_label-phase1,3.2.4,Win32,60,left,1.029999971,4,0,4,0,1,3,1,0,240,222,1,239,,,,,,,,,,,,,,,,,,
,,1,100,,,,,,,2,1,2,stim/12.jpeg,HouseObjects,1,stim/objects/HouseObjects/remote.png,0.3,2,0.2,0.15,left,32,2020-12-06_09h38.33.601,premup-three_ses-01_part-01_label-phase1,3.2.4,Win32,60,left,1.042000055,4,0,4,0,1,3,1,0,240,81,1,239,,,,,,,,,,,,,,,,,,
,,0,101,,,,,,,1,5,1,stim/51.jpeg,HouseObjects,1,stim/objects/HouseObjects/iron.png,0.5,1,-0.2,0.15,left,32,2020-12-06_09h38.33.601,premup-three_ses-01_part-01_label-phase1,3.2.4,Win32,60,right,0.845999956,4,0,4,0,1,3,1,0,240,8,1,239,,,,,,,,,,,,,,,,,,
,,1,102,,,,,,,1,5,3,stim/53.jpeg,HouseObjects,1,stim/objects/HouseObjects/key.png,0.5,4,0.2,-0.15,left,32,2020-12-06_09h38.33.601,premup-three_ses-01_part-01_label-phase1,3.2.4,Win32,60,left,0.82400012,4,0,4,0,1,3,1,0,240,18,1,239,,,,,,,,,,,,,,,,,,
,,0,103,,,,,,,2,1,2,stim/12.jpeg,Instruments,2,stim/objects/Instruments/pipepiano.png,0.7,3,-0.2,-0.15,right,32,2020-12-06_09h38.33.601,premup-three_ses-01_part-01_label-phase1,3.2.4,Win32,60,left,0.932999849,4,0,4,0,1,3,1,0,240,97,1,239,,,,,,,,,,,,,,,,,,
,,0,104,,,,,,,1,6,2,stim/62.jpeg,HouseObjects,1,stim/objects/HouseObjects/match.png,0.5,3,-0.2,-0.15,left,32,2020-12-06_09h38.33.601,premup-three_ses-01_part-01_label-phase1,3.2.4,Win32,60,right,0.823999882,4,0,4,0,1,3,1,0,240,41,1,239,,,,,,,,,,,,,,,,,,
,,1,105,,,,,,,1,5,4,stim/54.jpeg,HouseObjects,1,stim/objects/HouseObjects/knife.png,0.5,3,-0.2,-0.15,left,32,2020-12-06_09h38.33.601,premup-three_ses-01_part-01_label-phase1,3.2.4,Win32,60,left,0.588999987,4,0,4,0,1,3,1,0,240,15,1,239,,,,,,,,,,,,,,,,,,
,,1,106,,,,,,,1,6,2,stim/62.jpeg,HouseObjects,1,stim/objects/HouseObjects/match.png,0.5,3,-0.2,-0.15,left,32,2020-12-06_09h38.33.601,premup-three_ses-01_part-01_label-phase1,3.2.4,Win32,60,left,0.496999979,4,0,4,0,1,3,1,0,240,57,1,239,,,,,,,,,,,,,,,,,,
,,0,107,,,,,,,3,3,1,stim/31.jpeg,Instruments,2,stim/objects/Instruments/metronome2.png,0.9,4,0.2,-0.15,right,32,2020-12-06_09h38.33.601,premup-three_ses-01_part-01_label-phase1,3.2.4,Win32,60,left,0.671000004,4,0,4,0,1,3,1,0,240,168,1,239,,,,,,,,,,,,,,,,,,
,,1,108,,,,,,,3,3,3,stim/33.jpeg,Instruments,2,stim/objects/Instruments/musicstand2.png,0.9,2,0.2,0.15,right,32,2020-12-06_09h38.33.601,premup-three_ses-01_part-01_label-phase1,3.2.4,Win32,60,right,0.50999999,4,0,4,0,1,3,1,0,240,166,1,239,,,,,,,,,,,,,,,,,,
,,1,109,,,,,,,2,2,3,stim/23.jpeg,HouseObjects,1,stim/objects/HouseObjects/key2.png,0.7,3,-0.2,-0.15,left,32,2020-12-06_09h38.33.601,premup-three_ses-01_part-01_label-phase1,3.2.4,Win32,60,left,0.582000017,4,0,4,0,1,3,1,0,240,130,1,239,,,,,,,,,,,,,,,,,,
,,1,110,,,,,,,1,6,1,stim/61.jpeg,Instruments,2,stim/objects/Instruments/metronome.png,0.5,1,-0.2,0.15,right,32,2020-12-06_09h38.33.601,premup-three_ses-01_part-01_label-phase1,3.2.4,Win32,60,right,0.737999916,4,0,4,0,1,3,1,0,240,72,1,239,,,,,,,,,,,,,,,,,,
,,1,111,,,,,,,2,2,2,stim/22.jpeg,HouseObjects,1,stim/objects/HouseObjects/ironingboard2.png,0.7,3,-0.2,-0.15,left,32,2020-12-06_09h38.33.601,premup-three_ses-01_part-01_label-phase1,3.2.4,Win32,60,left,0.539000034,4,0,4,0,1,3,1,0,240,145,1,239,,,,,,,,,,,,,,,,,,
,,0,112,,,,,,,3,3,4,stim/34.jpeg,HouseObjects,1,stim/objects/HouseObjects/pitcher2.png,0.1,3,-0.2,-0.15,left,32,2020-12-06_09h38.33.601,premup-three_ses-01_part-01_label-phase1,3.2.4,Win32,60,right,0.118999958,4,0,4,0,1,3,1,0,240,163,1,239,,,,,,,,,,,,,,,,,,
,,0,113,,,,,,,1,5,4,stim/54.jpeg,Instruments,2,stim/objects/Instruments/marimba.png,0.5,2,0.2,0.15,right,32,2020-12-06_09h38.33.601,premup-three_ses-01_part-01_label-phase1,3.2.4,Win32,60,left,0.213999987,4,0,4,0,1,3,1,0,240,23,1,239,,,,,,,,,,,,,,,,,,
,,0,114,,,,,,,2,2,1,stim/21.jpeg,Instruments,2,stim/objects/Instruments/keyboard2.png,0.3,4,0.2,-0.15,right,32,2020-12-06_09h38.33.601,premup-three_ses-01_part-01_label-phase1,3.2.4,Win32,60,left,0.201999903,4,0,4,0,1,3,1,0,240,156,1,239,,,,,,,,,,,,,,,,,,
,,0,115,,,,,,,3,3,2,stim/32.jpeg,HouseObjects,1,stim/objects/HouseObjects/match2.png,0.1,4,0.2,-0.15,left,32,2020-12-06_09h38.33.601,premup-three_ses-01_part-01_label-phase1,3.2.4,Win32,60,right,0.58100009,4,0,4,0,1,3,1,0,240,161,1,239,,,,,,,,,,,,,,,,,,
,,0,116,,,,,,,1,6,4,stim/64.jpeg,HouseObjects,1,stim/objects/HouseObjects/pitcher.png,0.5,1,-0.2,0.15,left,32,2020-12-06_09h38.33.601,premup-three_ses-01_part-01_label-phase1,3.2.4,Win32,60,right,0.746999979,4,0,4,0,1,3,1,0,240,55,1,239,,,,,,,,,,,,,,,,,,
,,0,117,,,,,,,2,1,4,stim/14.jpeg,Instruments,2,stim/objects/Instruments/record_player.png,0.7,2,0.2,0.15,right,32,2020-12-06_09h38.33.601,premup-three_ses-01_part-01_label-phase1,3.2.4,Win32,60,left,0.471999884,4,0,4,0,1,3,1,0,240,107,1,239,,,,,,,,,,,,,,,,,,
,,1,118,,,,,,,1,6,1,stim/61.jpeg,HouseObjects,1,stim/objects/HouseObjects/lintroller.png,0.5,4,0.2,-0.15,left,32,2020-12-06_09h38.33.601,premup-three_ses-01_part-01_label-phase1,3.2.4,Win32,60,left,0.604999781,4,0,4,0,1,3,1,0,240,44,1,239,,,,,,,,,,,,,,,,,,
,,0,119,,,,,,,3,4,4,stim/44.jpeg,Instruments,2,stim/objects/Instruments/record_player2.png,0.1,3,-0.2,-0.15,right,32,2020-12-06_09h38.33.601,premup-three_ses-01_part-01_label-phase1,3.2.4,Win32,60,left,0.823999882,4,0,4,0,1,3,1,0,240,239,1,239,,,,,,,,,,,,,,,,,,
,,0,120,,,,,,,3,4,2,stim/42.jpeg,HouseObjects,1,stim/objects/HouseObjects/remote2.png,0.9,3,-0.2,-0.15,left,32,2020-12-06_09h38.33.601,premup-three_ses-01_part-01_label-phase1,3.2.4,Win32,60,right,0.539000034,4,0,4,0,1,3,1,0,240,221,1,239,,,,,,,,,,,,,,,,,,
,,1,121,,,,,,,1,6,2,stim/62.jpeg,HouseObjects,1,stim/objects/HouseObjects/match.png,0.5,1,-0.2,0.15,left,32,2020-12-06_09h38.33.601,premup-three_ses-01_part-01_label-phase1,3.2.4,Win32,60,left,0.34800005,4,0,4,0,1,3,1,0,240,53,1,239,,,,,,,,,,,,,,,,,,
,,1,122,,,,,,,2,2,1,stim/21.jpeg,HouseObjects,1,stim/objects/HouseObjects/iron2.png,0.7,1,-0.2,0.15,left,32,2020-12-06_09h38.33.601,premup-three_ses-01_part-01_label-phase1,3.2.4,Win32,60,left,0.574999809,4,0,4,0,1,3,1,0,240,136,1,239,,,,,,,,,,,,,,,,,,
,,0,123,,,,,,,2,1,3,stim/13.jpeg,HouseObjects,1,stim/objects/HouseObjects/rubbergloves.png,0.3,4,0.2,-0.15,left,32,2020-12-06_09h38.33.601,premup-three_ses-01_part-01_label-phase1,3.2.4,Win32,60,right,0.409999847,4,0,4,0,1,3,1,0,240,82,1,239,,,,,,,,,,,,,,,,,,
,,0,124,,,,,,,3,3,1,stim/31.jpeg,Instruments,2,stim/objects/Instruments/metronome2.png,0.9,1,-0.2,0.15,right,32,2020-12-06_09h38.33.601,premup-three_ses-01_part-01_label-phase1,3.2.4,Win32,60,left,0.121000051,4,0,4,0,1,3,1,0,240,172,1,239,,,,,,,,,,,,,,,,,,
,,0,125,,,,,,,2,2,2,stim/22.jpeg,HouseObjects,1,stim/objects/HouseObjects/ironingboard2.png,0.7,3,-0.2,-0.15,left,32,2020-12-06_09h38.33.601,premup-three_ses-01_part-01_label-phase1,3.2.4,Win32,60,right,0.277999878,4,0,4,0,1,3,1,0,240,137,1,239,,,,,,,,,,,,,,,,,,
,,0,126,,,,,,,1,6,3,stim/63.jpeg,Instruments,2,stim/objects/Instruments/musicstand.png,0.5,3,-0.2,-0.15,right,32,2020-12-06_09h38.33.601,premup-three_ses-01_part-01_label-phase1,3.2.4,Win32,60,left,0.343000174,4,0,4,0,1,3,1,0,240,70,1,239,,,,,,,,,,,,,,,,,,
,,0,127,,,,,,,2,2,3,stim/23.jpeg,Instruments,2,stim/objects/Instruments/maraca2.png,0.3,1,-0.2,0.15,right,32,2020-12-06_09h38.33.601,premup-three_ses-01_part-01_label-phase1,3.2.4,Win32,60,left,0.967999935,4,0,4,0,1,3,1,0,240,158,1,239,,,,,,,,,,,,,,,,,,
,,1,128,,,,,,,2,2,4,stim/24.jpeg,Instruments,2,stim/objects/Instruments/marimba2.png,0.3,3,-0.2,-0.15,right,32,2020-12-06_09h38.33.601,premup-three_ses-01_part-01_label-phase1,3.2.4,Win32,60,right,0.381999969,4,0,4,0,1,3,1,0,240,151,1,239,,,,,,,,,,,,,,,,,,
,,0,129,,,,,,,1,6,1,stim/61.jpeg,HouseObjects,1,stim/objects/HouseObjects/lintroller.png,0.5,4,0.2,-0.15,left,32,2020-12-06_09h38.33.601,premup-three_ses-01_part-01_label-phase1,3.2.4,Win32,60,right,0.618999958,4,0,4,0,1,3,1,0,240,40,1,239,,,,,,,,,,,,,,,,,,
,,1,130,,,,,,,3,3,3,stim/33.jpeg,Instruments,2,stim/objects/Instruments/musicstand2.png,0.9,2,0.2,0.15,right,32,2020-12-06_09h38.33.601,premup-three_ses-01_part-01_label-phase1,3.2.4,Win32,60,right,0.598999977,4,0,4,0,1,3,1,0,240,174,1,239,,,,,,,,,,,,,,,,,,
,,0,131,,,,,,,1,5,2,stim/52.jpeg,Instruments,2,stim/objects/Instruments/laud.png,0.5,2,0.2,0.15,right,32,2020-12-06_09h38.33.601,premup-three_ses-01_part-01_label-phase1,3.2.4,Win32,60,left,0.514999866,4,0,4,0,1,3,1,0,240,29,1,239,,,,,,,,,,,,,,,,,,
,,1,132,,,,,,,2,1,3,stim/13.jpeg,Instruments,2,stim/objects/Instruments/record.png,0.7,1,-0.2,0.15,right,32,2020-12-06_09h38.33.601,premup-three_ses-01_part-01_label-phase1,3.2.4,Win32,60,right,0.434999943,4,0,4,0,1,3,1,0,240,118,1,239,,,,,,,,,,,,,,,,,,
,,1,133,,,,,,,3,4,2,stim/42.jpeg,HouseObjects,1,stim/objects/HouseObjects/remote2.png,0.9,3,-0.2,-0.15,left,32,2020-12-06_09h38.33.601,premup-three_ses-01_part-01_label-phase1,3.2.4,Win32,60,left,0.61500001,4,0,4,0,1,3,1,0,240,229,1,239,,,,,,,,,,,,,,,,,,
,,0,134,,,,,,,2,1,2,stim/12.jpeg,Instruments,2,stim/objects/Instruments/pipepiano.png,0.7,3,-0.2,-0.15,right,32,2020-12-06_09h38.33.601,premup-three_ses-01_part-01_label-phase1,3.2.4,Win32,60,left,0.654999971,4,0,4,0,1,3,1,0,240,101,1,239,,,,,,,,,,,,,,,,,,
