id_acc,key_resp_id.keys,key_resp_id.rt,key_resp_conf.keys,key_resp_conf.rt,assoc_acc,key_resp_assoc.keys,key_resp_assoc.rt,loc_acc,key_resp_loc.keys,key_resp_loc.rt,task_innerloop.thisRepN,task_innerloop.thisTrialN,task_innerloop.thisN,task_innerloop.thisIndex,task_innerloop.ran,task_innerloop.order,context_type,object_cat,PE_level,OvsN,obj_file,scn_file,corr_scn_cat,assoc_file,corr_scn_inst,corr_loc,participant,date,expName,psychopyVersion,OS,frameRate
1,left,1.368000031,4,1.482000113,0,4,3.373000145,0,2,3.343000174,1,0,200,30,1,199,2,2,0.7,1,stim/objects/HouseObjects/pan3.png,stim/32.jpeg,3,stim/3.png,2,2,33,2020-12-20_12h15.00.587,premup-three_ses-02_part-03_label-phase3,3.2.4,MacIntel,60
1,right,3.097000122,2,2.848000288,0,2,2.294000149,0,1,2.059000254,1,0,200,4,1,199,1,1,0.5,1,stim/objects/Instruments/keyboard3.png,stim/13.jpeg,1,stim/1.png,3,2,33,2020-12-20_12h15.00.587,premup-three_ses-02_part-03_label-phase3,3.2.4,MacIntel,60
1,left,2.460000038,4,1.837000132,0,1,3.458000183,0,3,1.702000141,1,0,200,33,1,199,2,2,0.7,1,stim/objects/HouseObjects/vacuumcleaner3.png,stim/31.jpeg,3,stim/3.png,1,3,33,2020-12-20_12h15.00.587,premup-three_ses-02_part-03_label-phase3,3.2.4,MacIntel,60
1,left,1.570000172,4,1.187000275,0,3,1.322000265,0,4,2.649000168,1,0,200,27,1,199,2,1,0.3,1,stim/objects/Instruments/balalaika4.png,stim/34.jpeg,3,stim/3.png,4,2,33,2020-12-20_12h15.00.587,premup-three_ses-02_part-03_label-phase3,3.2.4,MacIntel,60
1,left,1.327000141,4,1.133000135,0,3,3.923000097,0,1,1.51699996,1,0,200,15,1,199,1,2,0.5,1,stim/objects/HouseObjects/ironingboard3.png,stim/24.jpeg,2,stim/2.png,4,1,33,2020-12-20_12h15.00.587,premup-three_ses-02_part-03_label-phase3,3.2.4,MacIntel,60
1,left,1.221000195,,,0,,,0,,,1,0,200,166,1,199,0,1,0,2,stim/objects/Instruments/acousticguitar2.png,,0,stim/0.png,0,0,33,2020-12-20_12h15.00.587,premup-three_ses-02_part-03_label-phase3,3.2.4,MacIntel,60
1,right,3.604000092,,,0,,,0,,,1,0,200,192,1,199,0,2,0,2,stim/objects/HouseObjects/broom2.png,,0,stim/0.png,0,0,33,2020-12-20_12h15.00.587,premup-three_ses-02_part-03_label-phase3,3.2.4,MacIntel,60
1,left,1.686000109,3,3.355000257,0,2,3.918000221,0,3,1.401000023,1,0,200,88,1,199,3,1,0.9,1,stim/objects/Instruments/vuvuzela4.png,stim/61.jpeg,6,stim/6.png,1,4,33,2020-12-20_12h15.00.587,premup-three_ses-02_part-03_label-phase3,3.2.4,MacIntel,60
1,left,1.844000101,4,1.133000135,0,3,0.74600029,0,4,1.184000015,1,0,200,3,1,199,1,1,0.5,1,stim/objects/Instruments/hihat3.png,stim/12.jpeg,1,stim/1.png,2,3,33,2020-12-20_12h15.00.587,premup-three_ses-02_part-03_label-phase3,3.2.4,MacIntel,60
1,right,1.660000324,,,0,,,0,,,1,0,200,135,1,199,0,2,0,2,stim/objects/HouseObjects/doormat.png,,0,stim/0.png,0,0,33,2020-12-20_12h15.00.587,premup-three_ses-02_part-03_label-phase3,3.2.4,MacIntel,60
1,right,2.270000219,2,1.604000092,0,3,2.606000185,0,4,1.515000105,1,0,200,61,1,199,3,1,0.1,1,stim/objects/Instruments/flutetrans4.png,stim/52.jpeg,5,stim/5.png,2,4,33,2020-12-20_12h15.00.587,premup-three_ses-02_part-03_label-phase3,3.2.4,MacIntel,60
1,right,1.395000219,,,0,,,0,,,1,0,200,171,1,199,0,2,0,2,stim/objects/HouseObjects/pitcher.png,,0,stim/0.png,0,0,33,2020-12-20_12h15.00.587,premup-three_ses-02_part-03_label-phase3,3.2.4,MacIntel,60
1,right,1.037000179,,,0,,,0,,,1,0,200,193,1,199,0,2,0,2,stim/objects/HouseObjects/bucket2.png,,0,stim/0.png,0,0,33,2020-12-20_12h15.00.587,premup-three_ses-02_part-03_label-phase3,3.2.4,MacIntel,60
1,right,1.753000259,2,1.418000221,0,3,1.760000229,0,1,1.109000206,1,0,200,85,1,199,3,1,0.9,1,stim/objects/Instruments/musicstand4.png,stim/62.jpeg,6,stim/6.png,2,2,33,2020-12-20_12h15.00.587,premup-three_ses-02_part-03_label-phase3,3.2.4,MacIntel,60
1,right,1.520000219,4,1.384000063,0,4,2.121999979,0,4,0.584000111,1,0,200,92,1,199,3,2,0.1,1,stim/objects/HouseObjects/knife4.png,stim/61.jpeg,6,stim/6.png,1,3,33,2020-12-20_12h15.00.587,premup-three_ses-02_part-03_label-phase3,3.2.4,MacIntel,60
1,right,1.364000082,,,0,,,0,,,1,0,200,174,1,199,0,2,0,2,stim/objects/HouseObjects/wateringcan.png,,0,stim/0.png,0,0,33,2020-12-20_12h15.00.587,premup-three_ses-02_part-03_label-phase3,3.2.4,MacIntel,60
1,left,1.336000204,3,1.769000292,0,4,2.570000172,0,4,1.757000208,1,0,200,89,1,199,3,1,0.9,1,stim/objects/Instruments/xylophone4.png,stim/62.jpeg,6,stim/6.png,2,4,33,2020-12-20_12h15.00.587,premup-three_ses-02_part-03_label-phase3,3.2.4,MacIntel,60
1,right,1.221000195,,,0,,,0,,,1,0,200,138,1,199,0,2,0,2,stim/objects/HouseObjects/garbagebin.png,,0,stim/0.png,0,0,33,2020-12-20_12h15.00.587,premup-three_ses-02_part-03_label-phase3,3.2.4,MacIntel,60
1,left,1.419000149,3,1.15500021,0,4,0.835000277,0,2,1.20600009,1,0,200,87,1,199,3,1,0.9,1,stim/objects/Instruments/violin4.png,stim/64.jpeg,6,stim/6.png,4,3,33,2020-12-20_12h15.00.587,premup-three_ses-02_part-03_label-phase3,3.2.4,MacIntel,60
1,left,1.25999999,3,4.536000013,0,4,0.768000126,0,2,1.218000174,1,0,200,5,1,199,1,1,0.5,1,stim/objects/HouseObjects/glassmop3.png,stim/12.jpeg,1,stim/1.png,2,4,33,2020-12-20_12h15.00.587,premup-three_ses-02_part-03_label-phase3,3.2.4,MacIntel,60
1,left,2.163000345,4,1.885000229,0,1,2.7900002,0,4,1.686000347,1,0,200,52,1,199,2,2,0.3,1,stim/objects/HouseObjects/broom4.png,stim/44.jpeg,4,stim/4.png,4,2,33,2020-12-20_12h15.00.587,premup-three_ses-02_part-03_label-phase3,3.2.4,MacIntel,60
1,right,2.313000202,,,0,,,0,,,1,0,200,181,1,199,0,1,0,2,stim/objects/Instruments/cello2.png,,0,stim/0.png,0,0,33,2020-12-20_12h15.00.587,premup-three_ses-02_part-03_label-phase3,3.2.4,MacIntel,60
1,left,2.309000015,3,0.951000214,0,1,1.459000349,0,1,0.861000061,1,0,200,98,1,199,3,2,0.1,1,stim/objects/HouseObjects/vacuumcleaner4.png,stim/63.jpeg,6,stim/6.png,3,4,33,2020-12-20_12h15.00.587,premup-three_ses-02_part-03_label-phase3,3.2.4,MacIntel,60
1,left,2.233000278,,,0,,,0,,,1,0,200,183,1,199,0,1,0,2,stim/objects/Instruments/clarinet2.png,,0,stim/0.png,0,0,33,2020-12-20_12h15.00.587,premup-three_ses-02_part-03_label-phase3,3.2.4,MacIntel,60
1,right,2.715000153,2,1.369000196,0,3,0.769000292,0,1,1.050000191,1,0,200,35,1,199,2,2,0.7,1,stim/objects/HouseObjects/ashtray4.png,stim/33.jpeg,3,stim/3.png,3,1,33,2020-12-20_12h15.00.587,premup-three_ses-02_part-03_label-phase3,3.2.4,MacIntel,60
1,right,2.887000322,2,1.705000162,0,3,0.487000227,0,2,0.412000179,1,0,200,59,1,199,2,2,0.3,1,stim/objects/HouseObjects/dishsoap4.png,stim/43.jpeg,4,stim/4.png,3,1,33,2020-12-20_12h15.00.587,premup-three_ses-02_part-03_label-phase3,3.2.4,MacIntel,60
1,right,2.804000139,,,0,,,0,,,1,0,200,197,1,199,0,2,0,2,stim/objects/HouseObjects/coffee2.png,,0,stim/0.png,0,0,33,2020-12-20_12h15.00.587,premup-three_ses-02_part-03_label-phase3,3.2.4,MacIntel,60
1,left,1.150000095,,,0,,,0,,,1,0,200,152,1,199,0,2,0,2,stim/objects/HouseObjects/handbrush.png,,0,stim/0.png,0,0,33,2020-12-20_12h15.00.587,premup-three_ses-02_part-03_label-phase3,3.2.4,MacIntel,60
1,left,1.825000286,3,1.634000063,0,3,0.580000162,0,2,0.333000183,1,0,200,64,1,199,3,1,0.1,1,stim/objects/Instruments/grandpiano4.png,stim/51.jpeg,5,stim/5.png,1,4,33,2020-12-20_12h15.00.587,premup-three_ses-02_part-03_label-phase3,3.2.4,MacIntel,60
1,right,1.487000227,3,0.982000113,0,4,0.71200037,0,3,0.633000135,1,0,200,58,1,199,2,2,0.3,1,stim/objects/HouseObjects/cushion4.png,stim/42.jpeg,4,stim/4.png,2,2,33,2020-12-20_12h15.00.587,premup-three_ses-02_part-03_label-phase3,3.2.4,MacIntel,60
1,right,1.246999979,,,0,,,0,,,1,0,200,134,1,199,0,2,0,2,stim/objects/HouseObjects/dishsoap.png,,0,stim/0.png,0,0,33,2020-12-20_12h15.00.587,premup-three_ses-02_part-03_label-phase3,3.2.4,MacIntel,60
1,right,1.002000332,,,0,,,0,,,1,0,200,182,1,199,0,1,0,2,stim/objects/Instruments/chime2.png,,0,stim/0.png,0,0,33,2020-12-20_12h15.00.587,premup-three_ses-02_part-03_label-phase3,3.2.4,MacIntel,60
1,left,0.900000334,,,0,,,0,,,1,0,200,186,1,199,0,1,0,2,stim/objects/Instruments/doublebass2.png,,0,stim/0.png,0,0,33,2020-12-20_12h15.00.587,premup-three_ses-02_part-03_label-phase3,3.2.4,MacIntel,60
1,right,0.903000116,4,1.302000284,0,4,0.659000158,0,1,0.881999969,1,0,200,54,1,199,2,2,0.3,1,stim/objects/HouseObjects/clock4.png,stim/42.jpeg,4,stim/4.png,2,2,33,2020-12-20_12h15.00.587,premup-three_ses-02_part-03_label-phase3,3.2.4,MacIntel,60
1,left,2.135000229,4,1.052000046,0,3,1.953999996,0,1,1.034000158,1,0,200,45,1,199,2,1,0.7,1,stim/objects/Instruments/cymbal4.png,stim/41.jpeg,4,stim/4.png,1,2,33,2020-12-20_12h15.00.587,premup-three_ses-02_part-03_label-phase3,3.2.4,MacIntel,60
1,right,1.043000221,,,0,,,0,,,1,0,200,136,1,199,0,2,0,2,stim/objects/HouseObjects/dustpan.png,,0,stim/0.png,0,0,33,2020-12-20_12h15.00.587,premup-three_ses-02_part-03_label-phase3,3.2.4,MacIntel,60
1,left,2.218000174,2,0.483999968,0,3,0.544000149,0,4,2.486999989,1,0,200,69,1,199,3,1,0.1,1,stim/objects/Instruments/keyboard4.png,stim/52.jpeg,5,stim/5.png,2,4,33,2020-12-20_12h15.00.587,premup-three_ses-02_part-03_label-phase3,3.2.4,MacIntel,60
1,left,1.230000019,3,1.002000332,0,4,1.168000221,0,2,1.087000132,1,0,200,39,1,199,2,2,0.7,1,stim/objects/HouseObjects/bleachbottle4.png,stim/33.jpeg,3,stim/3.png,3,2,33,2020-12-20_12h15.00.587,premup-three_ses-02_part-03_label-phase3,3.2.4,MacIntel,60
1,left,1.23300004,3,1.003000021,0,2,2.720000267,0,2,0.885000229,1,0,200,0,1,199,1,1,0.5,1,stim/objects/Instruments/guitarcase3.png,stim/13.jpeg,1,stim/1.png,3,1,33,2020-12-20_12h15.00.587,premup-three_ses-02_part-03_label-phase3,3.2.4,MacIntel,60
1,right,1.43900013,,,0,,,0,,,1,0,200,143,1,199,0,1,0,2,stim/objects/Instruments/hihat.png,,0,stim/0.png,0,0,33,2020-12-20_12h15.00.587,premup-three_ses-02_part-03_label-phase3,3.2.4,MacIntel,60
1,right,1.003000259,,,0,,,0,,,1,0,200,162,1,199,0,1,0,2,stim/objects/Instruments/violin.png,,0,stim/0.png,0,0,33,2020-12-20_12h15.00.587,premup-three_ses-02_part-03_label-phase3,3.2.4,MacIntel,60
1,left,1.752000093,4,1.203000069,0,3,3.031000137,0,2,1.184000254,1,0,200,13,1,199,1,2,0.5,1,stim/objects/Instruments/metronome3.png,stim/24.jpeg,2,stim/2.png,4,2,33,2020-12-20_12h15.00.587,premup-three_ses-02_part-03_label-phase3,3.2.4,MacIntel,60
1,right,1.148000002,,,0,,,0,,,1,0,200,108,1,199,0,1,0,2,stim/objects/Instruments/clarinet.png,,0,stim/0.png,0,0,33,2020-12-20_12h15.00.587,premup-three_ses-02_part-03_label-phase3,3.2.4,MacIntel,60
1,right,1.724000216,,,0,,,0,,,1,0,200,194,1,199,0,2,0,2,stim/objects/HouseObjects/clock2.png,,0,stim/0.png,0,0,33,2020-12-20_12h15.00.587,premup-three_ses-02_part-03_label-phase3,3.2.4,MacIntel,60
1,left,1.037000179,3,0.918000221,0,3,0.842000246,0,4,0.666000128,1,0,200,40,1,199,2,1,0.7,1,stim/objects/Instruments/bassguitar4.png,stim/44.jpeg,4,stim/4.png,4,1,33,2020-12-20_12h15.00.587,premup-three_ses-02_part-03_label-phase3,3.2.4,MacIntel,60
1,right,0.929000139,,,0,,,0,,,1,0,200,139,1,199,0,2,0,2,stim/objects/HouseObjects/glass.png,,0,stim/0.png,0,0,33,2020-12-20_12h15.00.587,premup-three_ses-02_part-03_label-phase3,3.2.4,MacIntel,60
1,right,0.953000307,4,1.086000204,0,4,1.002000093,0,4,0.634000063,1,0,200,10,1,199,1,2,0.5,1,stim/objects/Instruments/laud3.png,stim/21.jpeg,2,stim/2.png,1,1,33,2020-12-20_12h15.00.587,premup-three_ses-02_part-03_label-phase3,3.2.4,MacIntel,60
1,left,1.361000299,,,0,,,0,,,1,0,200,180,1,199,0,1,0,2,stim/objects/Instruments/bassguitar2.png,,0,stim/0.png,0,0,33,2020-12-20_12h15.00.587,premup-three_ses-02_part-03_label-phase3,3.2.4,MacIntel,60
1,right,1.069000244,,,0,,,0,,,1,0,200,147,1,199,0,1,0,2,stim/objects/Instruments/marimba.png,,0,stim/0.png,0,0,33,2020-12-20_12h15.00.587,premup-three_ses-02_part-03_label-phase3,3.2.4,MacIntel,60
1,right,0.935000181,,,0,,,0,,,1,0,200,107,1,199,0,1,0,2,stim/objects/Instruments/chime.png,,0,stim/0.png,0,0,33,2020-12-20_12h15.00.587,premup-three_ses-02_part-03_label-phase3,3.2.4,MacIntel,60
1,right,0.919000149,,,0,,,0,,,1,0,200,131,1,199,0,2,0,2,stim/objects/HouseObjects/clothespin.png,,0,stim/0.png,0,0,33,2020-12-20_12h15.00.587,premup-three_ses-02_part-03_label-phase3,3.2.4,MacIntel,60
1,left,1.085000277,3,1.151000023,0,4,0.643000126,0,2,1.210999966,1,0,200,95,1,199,3,2,0.1,1,stim/objects/HouseObjects/pan4.png,stim/64.jpeg,6,stim/6.png,4,2,33,2020-12-20_12h15.00.587,premup-three_ses-02_part-03_label-phase3,3.2.4,MacIntel,60
1,left,1.910000086,4,1.401000023,0,3,0.771000147,0,2,0.537000179,1,0,200,93,1,199,3,2,0.1,1,stim/objects/HouseObjects/lintroller4.png,stim/62.jpeg,6,stim/6.png,2,4,33,2020-12-20_12h15.00.587,premup-three_ses-02_part-03_label-phase3,3.2.4,MacIntel,60
1,right,1.076000214,,,0,,,0,,,1,0,200,191,1,199,0,2,0,2,stim/objects/HouseObjects/bottle2.png,,0,stim/0.png,0,0,33,2020-12-20_12h15.00.587,premup-three_ses-02_part-03_label-phase3,3.2.4,MacIntel,60
1,right,0.795000076,,,0,,,0,,,1,0,200,117,1,199,0,2,0,2,stim/objects/HouseObjects/broom.png,,0,stim/0.png,0,0,33,2020-12-20_12h15.00.587,premup-three_ses-02_part-03_label-phase3,3.2.4,MacIntel,60
1,right,1.720000267,3,1.286000013,0,2,0.509000063,0,1,0.37100029,1,0,200,6,1,199,1,1,0.5,1,stim/objects/HouseObjects/hairdryer3.png,stim/13.jpeg,1,stim/1.png,3,1,33,2020-12-20_12h15.00.587,premup-three_ses-02_part-03_label-phase3,3.2.4,MacIntel,60
1,left,1.663000107,3,0.802000046,0,1,1.275000095,0,1,0.553000212,1,0,200,57,1,199,2,2,0.3,1,stim/objects/HouseObjects/coffee4.png,stim/41.jpeg,4,stim/4.png,1,3,33,2020-12-20_12h15.00.587,premup-three_ses-02_part-03_label-phase3,3.2.4,MacIntel,60
1,left,1.552000046,3,0.908000231,0,4,0.904000044,0,2,0.805999994,1,0,200,32,1,199,2,2,0.7,1,stim/objects/HouseObjects/towel3.png,stim/34.jpeg,3,stim/3.png,4,2,33,2020-12-20_12h15.00.587,premup-three_ses-02_part-03_label-phase3,3.2.4,MacIntel,60
1,left,2.50999999,3,0.651000261,0,2,0.586000204,0,2,2.054000139,1,0,200,42,1,199,2,1,0.7,1,stim/objects/Instruments/chime4.png,stim/42.jpeg,4,stim/4.png,2,4,33,2020-12-20_12h15.00.587,premup-three_ses-02_part-03_label-phase3,3.2.4,MacIntel,60
1,right,2.095000267,2,1.13499999,0,2,1.203999996,0,1,0.936000347,1,0,200,12,1,199,1,2,0.5,1,stim/objects/Instruments/marimba3.png,stim/23.jpeg,2,stim/2.png,3,2,33,2020-12-20_12h15.00.587,premup-three_ses-02_part-03_label-phase3,3.2.4,MacIntel,60
1,right,1.089000225,4,1.066000223,0,4,0.619000196,0,3,0.728000164,1,0,200,90,1,199,3,2,0.1,1,stim/objects/HouseObjects/ironingboard4.png,stim/63.jpeg,6,stim/6.png,3,4,33,2020-12-20_12h15.00.587,premup-three_ses-02_part-03_label-phase3,3.2.4,MacIntel,60
1,right,0.848000288,,,0,,,0,,,1,0,200,133,1,199,0,2,0,2,stim/objects/HouseObjects/cushion.png,,0,stim/0.png,0,0,33,2020-12-20_12h15.00.587,premup-three_ses-02_part-03_label-phase3,3.2.4,MacIntel,60
1,left,1.637000084,3,1.302000046,0,2,0.576000214,0,3,1.019999981,1,0,200,83,1,199,3,1,0.9,1,stim/objects/Instruments/metronome4.png,stim/64.jpeg,6,stim/6.png,4,2,33,2020-12-20_12h15.00.587,premup-three_ses-02_part-03_label-phase3,3.2.4,MacIntel,60
1,right,0.94900012,,,0,,,0,,,1,0,200,157,1,199,0,2,0,2,stim/objects/HouseObjects/knife.png,,0,stim/0.png,0,0,33,2020-12-20_12h15.00.587,premup-three_ses-02_part-03_label-phase3,3.2.4,MacIntel,60
1,right,1.442000151,,,0,,,0,,,1,0,200,187,1,199,0,1,0,2,stim/objects/Instruments/drums2.png,,0,stim/0.png,0,0,33,2020-12-20_12h15.00.587,premup-three_ses-02_part-03_label-phase3,3.2.4,MacIntel,60
1,left,0.884000063,,,0,,,0,,,1,0,200,101,1,199,0,1,0,2,stim/objects/Instruments/acousticguitar.png,,0,stim/0.png,0,0,33,2020-12-20_12h15.00.587,premup-three_ses-02_part-03_label-phase3,3.2.4,MacIntel,60
1,left,1.070000172,4,1.202000141,0,3,0.443000317,0,1,3.004000187,1,0,200,84,1,199,3,1,0.9,1,stim/objects/Instruments/musicsheet4.png,stim/61.jpeg,6,stim/6.png,1,1,33,2020-12-20_12h15.00.587,premup-three_ses-02_part-03_label-phase3,3.2.4,MacIntel,60
1,left,1.160000086,4,0.868000031,0,3,2.70600009,0,1,1.451000214,1,0,200,77,1,199,3,2,0.9,1,stim/objects/HouseObjects/handbrush4.png,stim/52.jpeg,5,stim/5.png,2,1,33,2020-12-20_12h15.00.587,premup-three_ses-02_part-03_label-phase3,3.2.4,MacIntel,60
1,right,1.669000149,3,1.609000206,0,4,0.802000284,0,3,0.343000174,1,0,200,17,1,199,1,2,0.5,1,stim/objects/HouseObjects/knife3.png,stim/22.jpeg,2,stim/2.png,2,2,33,2020-12-20_12h15.00.587,premup-three_ses-02_part-03_label-phase3,3.2.4,MacIntel,60
1,right,2.281000376,,,0,,,0,,,1,0,200,158,1,199,0,2,0,2,stim/objects/HouseObjects/lintroller.png,,0,stim/0.png,0,0,33,2020-12-20_12h15.00.587,premup-three_ses-02_part-03_label-phase3,3.2.4,MacIntel,60
1,left,1.569000006,,,0,,,0,,,1,0,200,127,1,199,0,1,0,2,stim/objects/Instruments/frenchhorn.png,,0,stim/0.png,0,0,33,2020-12-20_12h15.00.587,premup-three_ses-02_part-03_label-phase3,3.2.4,MacIntel,60
1,left,0.802000284,,,0,,,0,,,1,0,200,184,1,199,0,1,0,2,stim/objects/Instruments/cornet2.png,,0,stim/0.png,0,0,33,2020-12-20_12h15.00.587,premup-three_ses-02_part-03_label-phase3,3.2.4,MacIntel,60
1,left,0.970000267,3,0.569000006,0,2,0.428000212,0,1,0.410000086,1,0,200,65,1,199,3,1,0.1,1,stim/objects/Instruments/guitarcase4.png,stim/52.jpeg,5,stim/5.png,2,2,33,2020-12-20_12h15.00.587,premup-three_ses-02_part-03_label-phase3,3.2.4,MacIntel,60
1,left,1.04700017,3,0.474000216,0,2,1.152000189,0,3,2.186000347,1,0,200,43,1,199,2,1,0.7,1,stim/objects/Instruments/clarinet4.png,stim/43.jpeg,4,stim/4.png,3,3,33,2020-12-20_12h15.00.587,premup-three_ses-02_part-03_label-phase3,3.2.4,MacIntel,60
1,right,0.984000206,,,0,,,0,,,1,0,200,112,1,199,0,2,0,2,stim/objects/HouseObjects/barbecuelighter.png,,0,stim/0.png,0,0,33,2020-12-20_12h15.00.587,premup-three_ses-02_part-03_label-phase3,3.2.4,MacIntel,60
1,left,0.886000156,4,0.919000149,0,3,0.512000084,0,4,0.758000135,1,0,200,53,1,199,2,2,0.3,1,stim/objects/HouseObjects/bucket4.png,stim/41.jpeg,4,stim/4.png,1,1,33,2020-12-20_12h15.00.587,premup-three_ses-02_part-03_label-phase3,3.2.4,MacIntel,60
1,right,1.025000095,,,0,,,0,,,1,0,200,105,1,199,0,1,0,2,stim/objects/Instruments/bassguitar.png,,0,stim/0.png,0,0,33,2020-12-20_12h15.00.587,premup-three_ses-02_part-03_label-phase3,3.2.4,MacIntel,60
1,right,0.970000029,,,0,,,0,,,1,0,200,128,1,199,0,1,0,2,stim/objects/Instruments/gong.png,,0,stim/0.png,0,0,33,2020-12-20_12h15.00.587,premup-three_ses-02_part-03_label-phase3,3.2.4,MacIntel,60
1,right,0.769000292,,,0,,,0,,,1,0,200,172,1,199,0,2,0,2,stim/objects/HouseObjects/towel.png,,0,stim/0.png,0,0,33,2020-12-20_12h15.00.587,premup-three_ses-02_part-03_label-phase3,3.2.4,MacIntel,60
1,right,0.702000141,,,0,,,0,,,1,0,200,110,1,199,0,2,0,2,stim/objects/HouseObjects/ashtray.png,,0,stim/0.png,0,0,33,2020-12-20_12h15.00.587,premup-three_ses-02_part-03_label-phase3,3.2.4,MacIntel,60
1,right,1.459000111,2,1.668000221,0,3,0.554000139,0,1,0.626000166,1,0,200,94,1,199,3,2,0.1,1,stim/objects/HouseObjects/match4.png,stim/63.jpeg,6,stim/6.png,3,2,33,2020-12-20_12h15.00.587,premup-three_ses-02_part-03_label-phase3,3.2.4,MacIntel,60
1,right,1.174000025,,,0,,,0,,,1,0,200,188,1,199,0,1,0,2,stim/objects/Instruments/electricdrumset2.png,,0,stim/0.png,0,0,33,2020-12-20_12h15.00.587,premup-three_ses-02_part-03_label-phase3,3.2.4,MacIntel,60
1,right,1.007000208,4,1.018000126,0,4,0.493000031,0,4,0.319000244,1,0,200,8,1,199,1,1,0.5,1,stim/objects/HouseObjects/handvacuum3.png,stim/11.jpeg,1,stim/1.png,1,4,33,2020-12-20_12h15.00.587,premup-three_ses-02_part-03_label-phase3,3.2.4,MacIntel,60
1,right,1.00600028,,,0,,,0,,,1,0,200,165,1,199,0,1,0,2,stim/objects/Instruments/accordion2.png,,0,stim/0.png,0,0,33,2020-12-20_12h15.00.587,premup-three_ses-02_part-03_label-phase3,3.2.4,MacIntel,60
1,right,1.269999981,,,0,,,0,,,1,0,200,119,1,199,0,2,0,2,stim/objects/HouseObjects/clock.png,,0,stim/0.png,0,0,33,2020-12-20_12h15.00.587,premup-three_ses-02_part-03_label-phase3,3.2.4,MacIntel,60
1,right,1.236000299,4,0.788000345,0,3,0.321000099,0,4,0.670000315,1,0,200,1,1,199,1,1,0.5,1,stim/objects/Instruments/harmonica3.png,stim/14.jpeg,1,stim/1.png,4,3,33,2020-12-20_12h15.00.587,premup-three_ses-02_part-03_label-phase3,3.2.4,MacIntel,60
1,right,0.878000259,3,0.38499999,0,4,0.514000177,0,3,0.601999998,1,0,200,18,1,199,1,2,0.5,1,stim/objects/HouseObjects/lintroller3.png,stim/23.jpeg,2,stim/2.png,3,3,33,2020-12-20_12h15.00.587,premup-three_ses-02_part-03_label-phase3,3.2.4,MacIntel,60
1,left,1.226000071,4,1.651000261,0,2,1.928000212,0,3,1.102000237,1,0,200,11,1,199,1,2,0.5,1,stim/objects/Instruments/maraca3.png,stim/22.jpeg,2,stim/2.png,2,3,33,2020-12-20_12h15.00.587,premup-three_ses-02_part-03_label-phase3,3.2.4,MacIntel,60
1,left,1.509000063,2,0.436000109,0,1,0.676000357,0,1,0.538000107,1,0,200,66,1,199,3,1,0.1,1,stim/objects/Instruments/harmonica4.png,stim/53.jpeg,5,stim/5.png,3,3,33,2020-12-20_12h15.00.587,premup-three_ses-02_part-03_label-phase3,3.2.4,MacIntel,60
1,right,1.28000021,,,0,,,0,,,1,0,200,173,1,199,0,2,0,2,stim/objects/HouseObjects/vacuumcleaner.png,,0,stim/0.png,0,0,33,2020-12-20_12h15.00.587,premup-three_ses-02_part-03_label-phase3,3.2.4,MacIntel,60
1,right,0.852000237,2,1.085000277,0,3,0.493000031,0,2,1.205000162,1,0,200,99,1,199,3,2,0.1,1,stim/objects/HouseObjects/wateringcan4.png,stim/64.jpeg,6,stim/6.png,4,2,33,2020-12-20_12h15.00.587,premup-three_ses-02_part-03_label-phase3,3.2.4,MacIntel,60
1,left,1.859000206,,,0,,,0,,,1,0,200,123,1,199,0,1,0,2,stim/objects/Instruments/electricdrumset.png,,0,stim/0.png,0,0,33,2020-12-20_12h15.00.587,premup-three_ses-02_part-03_label-phase3,3.2.4,MacIntel,60
1,right,0.935000181,3,0.768000126,0,2,0.535000086,0,2,0.735000134,1,0,200,7,1,199,1,1,0.5,1,stim/objects/HouseObjects/handbrush3.png,stim/14.jpeg,1,stim/1.png,4,2,33,2020-12-20_12h15.00.587,premup-three_ses-02_part-03_label-phase3,3.2.4,MacIntel,60
1,left,1.310000181,3,0.820000172,0,3,1.440999985,0,1,1.784000158,1,0,200,79,1,199,3,2,0.9,1,stim/objects/HouseObjects/iron4.png,stim/54.jpeg,5,stim/5.png,4,2,33,2020-12-20_12h15.00.587,premup-three_ses-02_part-03_label-phase3,3.2.4,MacIntel,60
1,left,1.144000053,3,1.019000053,0,3,1.820000172,0,2,1.036000252,1,0,200,75,1,199,3,2,0.9,1,stim/objects/HouseObjects/glassmop4.png,stim/54.jpeg,5,stim/5.png,4,3,33,2020-12-20_12h15.00.587,premup-three_ses-02_part-03_label-phase3,3.2.4,MacIntel,60
1,left,1.328000307,4,1.086000204,0,1,1.075000286,0,3,0.955000162,1,0,200,47,1,199,2,1,0.7,1,stim/objects/Instruments/drums4.png,stim/43.jpeg,4,stim/4.png,3,4,33,2020-12-20_12h15.00.587,premup-three_ses-02_part-03_label-phase3,3.2.4,MacIntel,60
1,left,1.445000172,4,0.718000174,0,3,0.492000103,0,2,1.721000195,1,0,200,50,1,199,2,2,0.3,1,stim/objects/HouseObjects/blender4.png,stim/42.jpeg,4,stim/4.png,2,2,33,2020-12-20_12h15.00.587,premup-three_ses-02_part-03_label-phase3,3.2.4,MacIntel,60
1,left,1.304000139,,,0,,,0,,,1,0,200,142,1,199,0,1,0,2,stim/objects/Instruments/harp.png,,0,stim/0.png,0,0,33,2020-12-20_12h15.00.587,premup-three_ses-02_part-03_label-phase3,3.2.4,MacIntel,60
1,left,1.686000109,3,1.34100008,0,4,0.618999958,0,2,0.794000149,1,0,200,26,1,199,2,1,0.3,1,stim/objects/Instruments/acousticguitar4.png,stim/33.jpeg,3,stim/3.png,3,3,33,2020-12-20_12h15.00.587,premup-three_ses-02_part-03_label-phase3,3.2.4,MacIntel,60
1,left,1.394000292,4,0.619000196,0,2,1.275000095,0,1,1.502000332,1,0,200,34,1,199,2,2,0.7,1,stim/objects/HouseObjects/wateringcan3.png,stim/32.jpeg,3,stim/3.png,2,3,33,2020-12-20_12h15.00.587,premup-three_ses-02_part-03_label-phase3,3.2.4,MacIntel,60
1,left,1.662000179,4,1.051000118,0,3,0.409000158,0,2,0.720000267,1,0,200,55,1,199,2,2,0.3,1,stim/objects/HouseObjects/clothesdryingrack4.png,stim/43.jpeg,4,stim/4.png,3,2,33,2020-12-20_12h15.00.587,premup-three_ses-02_part-03_label-phase3,3.2.4,MacIntel,60
1,left,1.058000088,3,0.402000189,0,2,0.387000322,0,2,1.186000109,1,0,200,76,1,199,3,2,0.9,1,stim/objects/HouseObjects/hairdryer4.png,stim/51.jpeg,5,stim/5.png,1,4,33,2020-12-20_12h15.00.587,premup-three_ses-02_part-03_label-phase3,3.2.4,MacIntel,60
1,right,1.147000074,,,0,,,0,,,1,0,200,118,1,199,0,2,0,2,stim/objects/HouseObjects/bucket.png,,0,stim/0.png,0,0,33,2020-12-20_12h15.00.587,premup-three_ses-02_part-03_label-phase3,3.2.4,MacIntel,60
1,right,0.701000214,2,1.207000256,0,2,0.562999964,0,2,0.268000126,1,0,200,49,1,199,2,1,0.7,1,stim/objects/Instruments/electricguitar4.png,stim/41.jpeg,4,stim/4.png,1,3,33,2020-12-20_12h15.00.587,premup-three_ses-02_part-03_label-phase3,3.2.4,MacIntel,60
1,left,1.008000135,4,0.887000084,0,3,0.396000147,0,1,0.833000183,1,0,200,20,1,199,2,1,0.3,1,stim/objects/Instruments/musicstand3.png,stim/31.jpeg,3,stim/3.png,1,2,33,2020-12-20_12h15.00.587,premup-three_ses-02_part-03_label-phase3,3.2.4,MacIntel,60
1,right,0.968000174,,,0,,,0,,,1,0,200,179,1,199,0,2,0,2,stim/objects/HouseObjects/bleachbottle2.png,,0,stim/0.png,0,0,33,2020-12-20_12h15.00.587,premup-three_ses-02_part-03_label-phase3,3.2.4,MacIntel,60
1,left,0.894000053,4,0.566000223,0,3,0.502000332,0,1,4.084000111,1,0,200,46,1,199,2,1,0.7,1,stim/objects/Instruments/doublebass4.png,stim/42.jpeg,4,stim/4.png,2,4,33,2020-12-20_12h15.00.587,premup-three_ses-02_part-03_label-phase3,3.2.4,MacIntel,60
1,right,1.855999947,,,0,,,0,,,1,0,200,159,1,199,0,2,0,2,stim/objects/HouseObjects/match.png,,0,stim/0.png,0,0,33,2020-12-20_12h15.00.587,premup-three_ses-02_part-03_label-phase3,3.2.4,MacIntel,60
1,left,1.026000023,4,0.836000204,0,2,2.045000076,0,3,1.335000038,1,0,200,19,1,199,1,2,0.5,1,stim/objects/HouseObjects/match3.png,stim/24.jpeg,2,stim/2.png,4,3,33,2020-12-20_12h15.00.587,premup-three_ses-02_part-03_label-phase3,3.2.4,MacIntel,60
1,right,2.349000216,,,0,,,0,,,1,0,200,164,1,199,0,1,0,2,stim/objects/Instruments/xylophone.png,,0,stim/0.png,0,0,33,2020-12-20_12h15.00.587,premup-three_ses-02_part-03_label-phase3,3.2.4,MacIntel,60
1,right,0.786000013,,,0,,,0,,,1,0,200,116,1,199,0,2,0,2,stim/objects/HouseObjects/bottle.png,,0,stim/0.png,0,0,33,2020-12-20_12h15.00.587,premup-three_ses-02_part-03_label-phase3,3.2.4,MacIntel,60
1,left,1.085000038,4,0.568000078,0,2,1.837000132,0,3,1.140000343,1,0,200,63,1,199,3,1,0.1,1,stim/objects/Instruments/gong4.png,stim/54.jpeg,5,stim/5.png,4,2,33,2020-12-20_12h15.00.587,premup-three_ses-02_part-03_label-phase3,3.2.4,MacIntel,60
1,right,1.704000235,3,1.301000118,0,3,0.658000231,0,3,0.207000017,1,0,200,70,1,199,3,2,0.9,1,stim/objects/HouseObjects/doormat4.png,stim/53.jpeg,5,stim/5.png,3,1,33,2020-12-20_12h15.00.587,premup-three_ses-02_part-03_label-phase3,3.2.4,MacIntel,60
1,left,1.097000122,,,0,,,0,,,1,0,200,161,1,199,0,1,0,2,stim/objects/Instruments/oboe.png,,0,stim/0.png,0,0,33,2020-12-20_12h15.00.587,premup-three_ses-02_part-03_label-phase3,3.2.4,MacIntel,60
1,left,1.129000187,4,0.686000109,0,3,0.328000069,0,1,0.65500021,1,0,200,86,1,199,3,1,0.9,1,stim/objects/Instruments/oboe4.png,stim/63.jpeg,6,stim/6.png,3,1,33,2020-12-20_12h15.00.587,premup-three_ses-02_part-03_label-phase3,3.2.4,MacIntel,60
1,left,1.282000065,4,0.653000116,0,2,1.108999968,0,1,0.854000092,1,0,200,31,1,199,2,2,0.7,1,stim/objects/HouseObjects/pitcher3.png,stim/33.jpeg,3,stim/3.png,3,2,33,2020-12-20_12h15.00.587,premup-three_ses-02_part-03_label-phase3,3.2.4,MacIntel,60
1,right,1.196000099,,,0,,,0,,,1,0,200,126,1,199,0,1,0,2,stim/objects/Instruments/flutetrans.png,,0,stim/0.png,0,0,33,2020-12-20_12h15.00.587,premup-three_ses-02_part-03_label-phase3,3.2.4,MacIntel,60
1,right,0.934000015,2,0.869000196,0,2,0.426000357,0,2,0.253000259,1,0,200,48,1,199,2,1,0.7,1,stim/objects/Instruments/electricdrumset4.png,stim/44.jpeg,4,stim/4.png,4,3,33,2020-12-20_12h15.00.587,premup-three_ses-02_part-03_label-phase3,3.2.4,MacIntel,60
1,right,0.886000156,,,0,,,0,,,1,0,200,198,1,199,0,2,0,2,stim/objects/HouseObjects/cushion2.png,,0,stim/0.png,0,0,33,2020-12-20_12h15.00.587,premup-three_ses-02_part-03_label-phase3,3.2.4,MacIntel,60
1,right,1.192000151,2,0.885000229,0,3,0.425000191,0,1,0.605000019,1,0,200,37,1,199,2,2,0.7,1,stim/objects/HouseObjects/barbecuelighter4.png,stim/31.jpeg,3,stim/3.png,1,1,33,2020-12-20_12h15.00.587,premup-three_ses-02_part-03_label-phase3,3.2.4,MacIntel,60
1,right,1.129000187,,,0,,,0,,,1,0,200,196,1,199,0,2,0,2,stim/objects/HouseObjects/clothespin2.png,,0,stim/0.png,0,0,33,2020-12-20_12h15.00.587,premup-three_ses-02_part-03_label-phase3,3.2.4,MacIntel,60
1,right,0.783000231,2,0.903000355,0,3,0.576000214,0,1,0.770000219,1,0,200,82,1,199,3,1,0.9,1,stim/objects/Instruments/marimba4.png,stim/63.jpeg,6,stim/6.png,3,3,33,2020-12-20_12h15.00.587,premup-three_ses-02_part-03_label-phase3,3.2.4,MacIntel,60
1,right,0.983000278,,,0,,,0,,,1,0,200,195,1,199,0,2,0,2,stim/objects/HouseObjects/clothesdryingrack2.png,,0,stim/0.png,0,0,33,2020-12-20_12h15.00.587,premup-three_ses-02_part-03_label-phase3,3.2.4,MacIntel,60
1,right,1.191000223,,,0,,,0,,,1,0,200,111,1,199,0,2,0,2,stim/objects/HouseObjects/ballofstring.png,,0,stim/0.png,0,0,33,2020-12-20_12h15.00.587,premup-three_ses-02_part-03_label-phase3,3.2.4,MacIntel,60
1,right,0.735000372,,,0,,,0,,,1,0,200,121,1,199,0,1,0,2,stim/objects/Instruments/doublebass.png,,0,stim/0.png,0,0,33,2020-12-20_12h15.00.587,premup-three_ses-02_part-03_label-phase3,3.2.4,MacIntel,60
1,right,0.876000166,,,0,,,0,,,1,0,200,150,1,199,0,2,0,2,stim/objects/HouseObjects/glassmop.png,,0,stim/0.png,0,0,33,2020-12-20_12h15.00.587,premup-three_ses-02_part-03_label-phase3,3.2.4,MacIntel,60
1,right,0.735000134,,,0,,,0,,,1,0,200,144,1,199,0,1,0,2,stim/objects/Instruments/keyboard.png,,0,stim/0.png,0,0,33,2020-12-20_12h15.00.587,premup-three_ses-02_part-03_label-phase3,3.2.4,MacIntel,60
1,left,1.004000187,4,0.769000292,0,3,2.222000122,0,2,0.668000221,1,0,200,67,1,199,3,1,0.1,1,stim/objects/Instruments/harp4.png,stim/54.jpeg,5,stim/5.png,4,2,33,2020-12-20_12h15.00.587,premup-three_ses-02_part-03_label-phase3,3.2.4,MacIntel,60
1,right,2.611000299,2,0.916000366,0,3,0.45600009,0,1,0.354000092,1,0,200,23,1,199,2,1,0.3,1,stim/objects/Instruments/vuvuzela3.png,stim/34.jpeg,3,stim/3.png,4,4,33,2020-12-20_12h15.00.587,premup-three_ses-02_part-03_label-phase3,3.2.4,MacIntel,60
1,right,2.425000191,,,0,,,0,,,1,0,200,148,1,199,0,1,0,2,stim/objects/Instruments/metronome.png,,0,stim/0.png,0,0,33,2020-12-20_12h15.00.587,premup-three_ses-02_part-03_label-phase3,3.2.4,MacIntel,60
1,right,0.975000381,,,0,,,0,,,1,0,200,137,1,199,0,2,0,2,stim/objects/HouseObjects/flyswatter.png,,0,stim/0.png,0,0,33,2020-12-20_12h15.00.587,premup-three_ses-02_part-03_label-phase3,3.2.4,MacIntel,60
1,right,1.413000107,2,2.370000124,0,2,1.117000103,0,2,0.469000101,1,0,200,29,1,199,2,1,0.3,1,stim/objects/Instruments/bassdrum4.png,stim/32.jpeg,3,stim/3.png,2,3,33,2020-12-20_12h15.00.587,premup-three_ses-02_part-03_label-phase3,3.2.4,MacIntel,60
1,right,0.982000113,,,0,,,0,,,1,0,200,177,1,199,0,2,0,2,stim/objects/HouseObjects/barbecuelighter2.png,,0,stim/0.png,0,0,33,2020-12-20_12h15.00.587,premup-three_ses-02_part-03_label-phase3,3.2.4,MacIntel,60
1,right,0.836000204,,,0,,,0,,,1,0,200,154,1,199,0,2,0,2,stim/objects/HouseObjects/iron.png,,0,stim/0.png,0,0,33,2020-12-20_12h15.00.587,premup-three_ses-02_part-03_label-phase3,3.2.4,MacIntel,60
1,left,0.869000196,,,0,,,0,,,1,0,200,167,1,199,0,1,0,2,stim/objects/Instruments/balalaika2.png,,0,stim/0.png,0,0,33,2020-12-20_12h15.00.587,premup-three_ses-02_part-03_label-phase3,3.2.4,MacIntel,60
1,right,0.786000252,,,0,,,0,,,1,0,200,169,1,199,0,1,0,2,stim/objects/Instruments/bassdrum2.png,,0,stim/0.png,0,0,33,2020-12-20_12h15.00.587,premup-three_ses-02_part-03_label-phase3,3.2.4,MacIntel,60
1,left,0.936000109,4,0.704000235,0,1,0.692000151,0,3,0.935000181,1,0,200,51,1,199,2,2,0.3,1,stim/objects/HouseObjects/bottle4.png,stim/43.jpeg,4,stim/4.png,3,3,33,2020-12-20_12h15.00.587,premup-three_ses-02_part-03_label-phase3,3.2.4,MacIntel,60
1,right,0.9150002,,,0,,,0,,,1,0,200,163,1,199,0,1,0,2,stim/objects/Instruments/vuvuzela.png,,0,stim/0.png,0,0,33,2020-12-20_12h15.00.587,premup-three_ses-02_part-03_label-phase3,3.2.4,MacIntel,60
1,right,1.213000298,,,0,,,0,,,1,0,200,129,1,199,0,1,0,2,stim/objects/Instruments/grandpiano.png,,0,stim/0.png,0,0,33,2020-12-20_12h15.00.587,premup-three_ses-02_part-03_label-phase3,3.2.4,MacIntel,60
1,right,0.746000051,2,0.903000116,0,2,1.370000124,0,2,0.832000256,1,0,200,21,1,199,2,1,0.3,1,stim/objects/Instruments/oboe3.png,stim/32.jpeg,3,stim/3.png,2,4,33,2020-12-20_12h15.00.587,premup-three_ses-02_part-03_label-phase3,3.2.4,MacIntel,60
1,right,1.260000229,,,0,,,0,,,1,0,200,103,1,199,0,1,0,2,stim/objects/Instruments/banjo.png,,0,stim/0.png,0,0,33,2020-12-20_12h15.00.587,premup-three_ses-02_part-03_label-phase3,3.2.4,MacIntel,60
1,left,0.937000036,4,0.586000204,0,3,0.945000172,0,1,0.553000212,1,0,200,44,1,199,2,1,0.7,1,stim/objects/Instruments/cornet4.png,stim/44.jpeg,4,stim/4.png,4,4,33,2020-12-20_12h15.00.587,premup-three_ses-02_part-03_label-phase3,3.2.4,MacIntel,60
1,right,1.434999943,,,0,,,0,,,1,0,200,149,1,199,0,1,0,2,stim/objects/Instruments/musicsheet.png,,0,stim/0.png,0,0,33,2020-12-20_12h15.00.587,premup-three_ses-02_part-03_label-phase3,3.2.4,MacIntel,60
1,right,1.019000053,,,0,,,0,,,1,0,200,156,1,199,0,2,0,2,stim/objects/HouseObjects/key.png,,0,stim/0.png,0,0,33,2020-12-20_12h15.00.587,premup-three_ses-02_part-03_label-phase3,3.2.4,MacIntel,60
1,right,1.002000332,,,0,,,0,,,1,0,200,130,1,199,0,2,0,2,stim/objects/HouseObjects/clothesdryingrack.png,,0,stim/0.png,0,0,33,2020-12-20_12h15.00.587,premup-three_ses-02_part-03_label-phase3,3.2.4,MacIntel,60
1,right,0.887000322,4,1.118999958,0,3,1.43900013,0,4,0.786000252,1,0,200,74,1,199,3,2,0.9,1,stim/objects/HouseObjects/glass4.png,stim/53.jpeg,5,stim/5.png,3,4,33,2020-12-20_12h15.00.587,premup-three_ses-02_part-03_label-phase3,3.2.4,MacIntel,60
1,left,1.293000221,,,0,,,0,,,1,0,200,102,1,199,0,1,0,2,stim/objects/Instruments/balalaika.png,,0,stim/0.png,0,0,33,2020-12-20_12h15.00.587,premup-three_ses-02_part-03_label-phase3,3.2.4,MacIntel,60
1,right,1.235000134,,,0,,,0,,,1,0,200,104,1,199,0,1,0,2,stim/objects/Instruments/bassdrum.png,,0,stim/0.png,0,0,33,2020-12-20_12h15.00.587,premup-three_ses-02_part-03_label-phase3,3.2.4,MacIntel,60
1,right,0.836000204,,,0,,,0,,,1,0,200,120,1,199,0,1,0,2,stim/objects/Instruments/cymbal.png,,0,stim/0.png,0,0,33,2020-12-20_12h15.00.587,premup-three_ses-02_part-03_label-phase3,3.2.4,MacIntel,60
1,right,0.686000109,,,0,,,0,,,1,0,200,168,1,199,0,1,0,2,stim/objects/Instruments/banjo2.png,,0,stim/0.png,0,0,33,2020-12-20_12h15.00.587,premup-three_ses-02_part-03_label-phase3,3.2.4,MacIntel,60
1,left,1.585000038,2,0.753000259,0,1,0.446000099,0,3,1.52300024,1,0,200,73,1,199,3,2,0.9,1,stim/objects/HouseObjects/garbagebin4.png,stim/52.jpeg,5,stim/5.png,2,1,33,2020-12-20_12h15.00.587,premup-three_ses-02_part-03_label-phase3,3.2.4,MacIntel,60
1,right,1.06400013,4,1.334000349,0,4,0.709000111,0,4,0.227000237,1,0,200,60,1,199,3,1,0.1,1,stim/objects/Instruments/flute4.png,stim/51.jpeg,5,stim/5.png,1,3,33,2020-12-20_12h15.00.587,premup-three_ses-02_part-03_label-phase3,3.2.4,MacIntel,60
1,left,0.962000132,,,0,,,0,,,1,0,200,109,1,199,0,1,0,2,stim/objects/Instruments/cornet.png,,0,stim/0.png,0,0,33,2020-12-20_12h15.00.587,premup-three_ses-02_part-03_label-phase3,3.2.4,MacIntel,60
1,right,0.765000105,3,0.993000031,0,4,0.400000095,0,4,0.664999962,1,0,200,71,1,199,3,2,0.9,1,stim/objects/HouseObjects/dustpan4.png,stim/54.jpeg,5,stim/5.png,4,2,33,2020-12-20_12h15.00.587,premup-three_ses-02_part-03_label-phase3,3.2.4,MacIntel,60
1,right,0.900000095,,,0,,,0,,,1,0,200,170,1,199,0,2,0,2,stim/objects/HouseObjects/pan.png,,0,stim/0.png,0,0,33,2020-12-20_12h15.00.587,premup-three_ses-02_part-03_label-phase3,3.2.4,MacIntel,60
1,right,0.736000299,2,1.292000055,0,2,1.300000191,0,3,0.782999992,1,0,200,97,1,199,3,2,0.1,1,stim/objects/HouseObjects/towel4.png,stim/62.jpeg,6,stim/6.png,2,2,33,2020-12-20_12h15.00.587,premup-three_ses-02_part-03_label-phase3,3.2.4,MacIntel,60
1,right,0.843000174,4,1.242000341,0,3,1.003000259,0,1,0.451000214,1,0,200,72,1,199,3,2,0.9,1,stim/objects/HouseObjects/flyswatter4.png,stim/51.jpeg,5,stim/5.png,1,1,33,2020-12-20_12h15.00.587,premup-three_ses-02_part-03_label-phase3,3.2.4,MacIntel,60
1,left,1.379000187,3,0.802000046,0,2,0.485000134,0,1,0.570000172,1,0,200,68,1,199,3,1,0.1,1,stim/objects/Instruments/hihat4.png,stim/51.jpeg,5,stim/5.png,1,2,33,2020-12-20_12h15.00.587,premup-three_ses-02_part-03_label-phase3,3.2.4,MacIntel,60
1,left,1.122000217,3,0.395000219,0,2,0.647000074,0,1,0.498000145,1,0,200,22,1,199,2,1,0.3,1,stim/objects/Instruments/violin3.png,stim/33.jpeg,3,stim/3.png,3,1,33,2020-12-20_12h15.00.587,premup-three_ses-02_part-03_label-phase3,3.2.4,MacIntel,60
1,left,1.551000357,4,0.710000277,0,2,1.663000107,0,2,0.478000164,1,0,200,38,1,199,2,2,0.7,1,stim/objects/HouseObjects/basket4.png,stim/32.jpeg,3,stim/3.png,2,2,33,2020-12-20_12h15.00.587,premup-three_ses-02_part-03_label-phase3,3.2.4,MacIntel,60
1,left,1.066000223,,,0,,,0,,,1,0,200,189,1,199,0,1,0,2,stim/objects/Instruments/electricguitar2.png,,0,stim/0.png,0,0,33,2020-12-20_12h15.00.587,premup-three_ses-02_part-03_label-phase3,3.2.4,MacIntel,60
1,right,1.220999956,4,1.436000109,0,3,0.469000101,0,2,0.301000118,1,0,200,14,1,199,1,2,0.5,1,stim/objects/Instruments/musicsheet3.png,stim/21.jpeg,2,stim/2.png,1,1,33,2020-12-20_12h15.00.587,premup-three_ses-02_part-03_label-phase3,3.2.4,MacIntel,60
1,right,0.842000008,,,0,,,0,,,1,0,200,155,1,199,0,2,0,2,stim/objects/HouseObjects/ironingboard.png,,0,stim/0.png,0,0,33,2020-12-20_12h15.00.587,premup-three_ses-02_part-03_label-phase3,3.2.4,MacIntel,60
1,left,1.343000174,2,0.286000252,0,1,0.471000195,0,1,0.763000011,1,0,200,41,1,199,2,1,0.7,1,stim/objects/Instruments/cello4.png,stim/41.jpeg,4,stim/4.png,1,1,33,2020-12-20_12h15.00.587,premup-three_ses-02_part-03_label-phase3,3.2.4,MacIntel,60
1,right,0.86500001,,,0,,,0,,,1,0,200,114,1,199,0,2,0,2,stim/objects/HouseObjects/bleachbottle.png,,0,stim/0.png,0,0,33,2020-12-20_12h15.00.587,premup-three_ses-02_part-03_label-phase3,3.2.4,MacIntel,60
1,right,0.736000061,2,0.947000027,0,3,0.601999998,0,1,0.554000139,1,0,200,80,1,199,3,1,0.9,1,stim/objects/Instruments/laud4.png,stim/61.jpeg,6,stim/6.png,1,2,33,2020-12-20_12h15.00.587,premup-three_ses-02_part-03_label-phase3,3.2.4,MacIntel,60
1,left,1.0400002,,,0,,,0,,,1,0,200,146,1,199,0,1,0,2,stim/objects/Instruments/maraca.png,,0,stim/0.png,0,0,33,2020-12-20_12h15.00.587,premup-three_ses-02_part-03_label-phase3,3.2.4,MacIntel,60
1,right,1.069000006,,,0,,,0,,,1,0,200,153,1,199,0,2,0,2,stim/objects/HouseObjects/handvacuum.png,,0,stim/0.png,0,0,33,2020-12-20_12h15.00.587,premup-three_ses-02_part-03_label-phase3,3.2.4,MacIntel,60
1,right,1.218000174,4,0.989000082,0,3,0.687000275,0,2,0.300000191,1,0,200,16,1,199,1,2,0.5,1,stim/objects/HouseObjects/key3.png,stim/21.jpeg,2,stim/2.png,1,4,33,2020-12-20_12h15.00.587,premup-three_ses-02_part-03_label-phase3,3.2.4,MacIntel,60
1,right,0.881000042,,,0,,,0,,,1,0,200,122,1,199,0,1,0,2,stim/objects/Instruments/drums.png,,0,stim/0.png,0,0,33,2020-12-20_12h15.00.587,premup-three_ses-02_part-03_label-phase3,3.2.4,MacIntel,60
1,right,1.048000097,,,0,,,0,,,1,0,200,160,1,199,0,1,0,2,stim/objects/Instruments/musicstand.png,,0,stim/0.png,0,0,33,2020-12-20_12h15.00.587,premup-three_ses-02_part-03_label-phase3,3.2.4,MacIntel,60
1,right,1.002000093,,,0,,,0,,,1,0,200,124,1,199,0,1,0,2,stim/objects/Instruments/electricguitar.png,,0,stim/0.png,0,0,33,2020-12-20_12h15.00.587,premup-three_ses-02_part-03_label-phase3,3.2.4,MacIntel,60
1,left,0.75,4,1.467000246,0,1,1.345000029,0,1,0.284000158,1,0,200,78,1,199,3,2,0.9,1,stim/objects/HouseObjects/handvacuum4.png,stim/53.jpeg,5,stim/5.png,3,3,33,2020-12-20_12h15.00.587,premup-three_ses-02_part-03_label-phase3,3.2.4,MacIntel,60
1,right,1.282000303,,,0,,,0,,,1,0,200,190,1,199,0,2,0,2,stim/objects/HouseObjects/blender2.png,,0,stim/0.png,0,0,33,2020-12-20_12h15.00.587,premup-three_ses-02_part-03_label-phase3,3.2.4,MacIntel,60
1,right,0.737000227,,,0,,,0,,,1,0,200,175,1,199,0,2,0,2,stim/objects/HouseObjects/ashtray2.png,,0,stim/0.png,0,0,33,2020-12-20_12h15.00.587,premup-three_ses-02_part-03_label-phase3,3.2.4,MacIntel,60
1,left,1.085000277,4,0.702000141,0,2,1.309000015,0,3,1.154000044,1,0,200,81,1,199,3,1,0.9,1,stim/objects/Instruments/maraca4.png,stim/62.jpeg,6,stim/6.png,2,4,33,2020-12-20_12h15.00.587,premup-three_ses-02_part-03_label-phase3,3.2.4,MacIntel,60
1,right,0.763000011,,,0,,,0,,,1,0,200,199,1,199,0,2,0,2,stim/objects/HouseObjects/dishsoap2.png,,0,stim/0.png,0,0,33,2020-12-20_12h15.00.587,premup-three_ses-02_part-03_label-phase3,3.2.4,MacIntel,60
1,right,0.713000298,,,0,,,0,,,1,0,200,125,1,199,0,1,0,2,stim/objects/Instruments/flute.png,,0,stim/0.png,0,0,33,2020-12-20_12h15.00.587,premup-three_ses-02_part-03_label-phase3,3.2.4,MacIntel,60
1,right,0.63499999,3,1.018000364,0,4,0.058000088,0,4,0.65500021,1,0,200,91,1,199,3,2,0.1,1,stim/objects/HouseObjects/key4.png,stim/64.jpeg,6,stim/6.png,4,4,33,2020-12-20_12h15.00.587,premup-three_ses-02_part-03_label-phase3,3.2.4,MacIntel,60
1,right,0.328000069,,,0,,,0,,,1,0,200,145,1,199,0,1,0,2,stim/objects/Instruments/laud.png,,0,stim/0.png,0,0,33,2020-12-20_12h15.00.587,premup-three_ses-02_part-03_label-phase3,3.2.4,MacIntel,60
1,right,1.151000261,,,0,,,0,,,1,0,200,185,1,199,0,1,0,2,stim/objects/Instruments/cymbal2.png,,0,stim/0.png,0,0,33,2020-12-20_12h15.00.587,premup-three_ses-02_part-03_label-phase3,3.2.4,MacIntel,60
1,left,0.918000221,4,0.836000204,0,3,0.693000317,0,2,1.770000219,1,0,200,36,1,199,2,2,0.7,1,stim/objects/HouseObjects/ballofstring4.png,stim/34.jpeg,3,stim/3.png,4,4,33,2020-12-20_12h15.00.587,premup-three_ses-02_part-03_label-phase3,3.2.4,MacIntel,60
1,left,1.269000053,3,0.501000166,0,2,0.241000175,0,1,0.736000299,1,0,200,2,1,199,1,1,0.5,1,stim/objects/Instruments/harp3.png,stim/11.jpeg,1,stim/1.png,1,2,33,2020-12-20_12h15.00.587,premup-three_ses-02_part-03_label-phase3,3.2.4,MacIntel,60
1,left,1.110000134,4,1.903000116,0,3,1.070000172,0,4,1.653000116,1,0,200,56,1,199,2,2,0.3,1,stim/objects/HouseObjects/clothespin4.png,stim/44.jpeg,4,stim/4.png,4,4,33,2020-12-20_12h15.00.587,premup-three_ses-02_part-03_label-phase3,3.2.4,MacIntel,60
1,right,1.342000008,,,0,,,0,,,1,0,200,100,1,199,0,1,0,2,stim/objects/Instruments/accordion.png,,0,stim/0.png,0,0,33,2020-12-20_12h15.00.587,premup-three_ses-02_part-03_label-phase3,3.2.4,MacIntel,60
1,right,0.907000303,,,0,,,0,,,1,0,200,151,1,199,0,2,0,2,stim/objects/HouseObjects/hairdryer.png,,0,stim/0.png,0,0,33,2020-12-20_12h15.00.587,premup-three_ses-02_part-03_label-phase3,3.2.4,MacIntel,60
1,left,0.832000256,3,0.893000126,0,2,0.421000242,0,1,0.503000021,1,0,200,25,1,199,2,1,0.3,1,stim/objects/Instruments/accordion4.png,stim/32.jpeg,3,stim/3.png,2,4,33,2020-12-20_12h15.00.587,premup-three_ses-02_part-03_label-phase3,3.2.4,MacIntel,60
1,right,1.168000221,,,0,,,0,,,1,0,200,141,1,199,0,1,0,2,stim/objects/Instruments/harmonica.png,,0,stim/0.png,0,0,33,2020-12-20_12h15.00.587,premup-three_ses-02_part-03_label-phase3,3.2.4,MacIntel,60
1,right,0.595000267,3,1.303000212,0,4,0.594000101,0,2,0.286000013,1,0,200,96,1,199,3,2,0.1,1,stim/objects/HouseObjects/pitcher4.png,stim/61.jpeg,6,stim/6.png,1,4,33,2020-12-20_12h15.00.587,premup-three_ses-02_part-03_label-phase3,3.2.4,MacIntel,60
1,right,0.829000235,,,0,,,0,,,1,0,200,178,1,199,0,2,0,2,stim/objects/HouseObjects/basket2.png,,0,stim/0.png,0,0,33,2020-12-20_12h15.00.587,premup-three_ses-02_part-03_label-phase3,3.2.4,MacIntel,60
1,right,0.918000221,3,0.734000206,0,4,0.337000132,0,1,0.613000154,1,0,200,9,1,199,1,1,0.5,1,stim/objects/HouseObjects/iron3.png,stim/12.jpeg,1,stim/1.png,2,2,33,2020-12-20_12h15.00.587,premup-three_ses-02_part-03_label-phase3,3.2.4,MacIntel,60
1,left,1.071000099,4,0.576000214,0,3,0.670000076,0,1,0.647000074,1,0,200,24,1,199,2,1,0.3,1,stim/objects/Instruments/xylophone3.png,stim/31.jpeg,3,stim/3.png,1,3,33,2020-12-20_12h15.00.587,premup-three_ses-02_part-03_label-phase3,3.2.4,MacIntel,60
1,right,1.34100008,2,2.130000114,0,1,1.387000322,0,1,0.177000046,1,0,200,28,1,199,2,1,0.3,1,stim/objects/Instruments/banjo4.png,stim/31.jpeg,3,stim/3.png,1,3,33,2020-12-20_12h15.00.587,premup-three_ses-02_part-03_label-phase3,3.2.4,MacIntel,60
1,right,1.215000153,,,0,,,0,,,1,0,200,140,1,199,0,1,0,2,stim/objects/Instruments/guitarcase.png,,0,stim/0.png,0,0,33,2020-12-20_12h15.00.587,premup-three_ses-02_part-03_label-phase3,3.2.4,MacIntel,60
1,left,0.965000153,3,0.835000277,0,2,0.906000376,0,1,0.536000252,1,0,200,62,1,199,3,1,0.1,1,stim/objects/Instruments/frenchhorn4.png,stim/53.jpeg,5,stim/5.png,3,4,33,2020-12-20_12h15.00.587,premup-three_ses-02_part-03_label-phase3,3.2.4,MacIntel,60
1,right,0.860000134,,,0,,,0,,,1,0,200,132,1,199,0,2,0,2,stim/objects/HouseObjects/coffee.png,,0,stim/0.png,0,0,33,2020-12-20_12h15.00.587,premup-three_ses-02_part-03_label-phase3,3.2.4,MacIntel,60
1,right,0.769000053,,,0,,,0,,,1,0,200,106,1,199,0,1,0,2,stim/objects/Instruments/cello.png,,0,stim/0.png,0,0,33,2020-12-20_12h15.00.587,premup-three_ses-02_part-03_label-phase3,3.2.4,MacIntel,60
1,right,0.683000088,,,0,,,0,,,1,0,200,176,1,199,0,2,0,2,stim/objects/HouseObjects/ballofstring2.png,,0,stim/0.png,0,0,33,2020-12-20_12h15.00.587,premup-three_ses-02_part-03_label-phase3,3.2.4,MacIntel,60
1,right,0.734000206,,,0,,,0,,,1,0,200,115,1,199,0,2,0,2,stim/objects/HouseObjects/blender.png,,0,stim/0.png,0,0,33,2020-12-20_12h15.00.587,premup-three_ses-02_part-03_label-phase3,3.2.4,MacIntel,60
1,right,0.719000101,,,0,,,0,,,1,0,200,113,1,199,0,2,0,2,stim/objects/HouseObjects/basket.png,,0,stim/0.png,0,0,33,2020-12-20_12h15.00.587,premup-three_ses-02_part-03_label-phase3,3.2.4,MacIntel,60
