key_resp_pract.keys,key_resp_pract.rt,trial_acc,trial_index,practice_loop.thisRepN,practice_loop.thisTrialN,practice_loop.thisN,practice_loop.thisIndex,practice_loop.ran,practice_loop.order,scn_condition,scn_cat,scn_inst,scn_file,obj_cat,obj_cat_num,obj_file,trial_cond,quadrant,obj_x,obj_y,corr_ans,participant,date,expName,psychopyVersion,OS,frameRate,key_resp_trial.keys,key_resp_trial.rt,iterations.thisRepN,iterations.thisTrialN,iterations.thisN,iterations.thisIndex,iterations.ran,iterations.order,task_innerloop.thisRepN,task_innerloop.thisTrialN,task_innerloop.thisN,task_innerloop.thisIndex,task_innerloop.ran,task_innerloop.order,iteration_index,rating_acc,slider.response,slider.rt,slider_2.response,slider_2.rt,ratings.thisRepN,ratings.thisTrialN,ratings.thisN,ratings.thisIndex,ratings.ran,ratings.order,obj_cat_top,min_resp_top,max_resp_top,obj_cat_bottom,min_resp_bottom,max_resp_bottom
,,0,1,1,0,240,127,1,239,2,4,4,stim/44.jpeg,Instruments,1,stim/objects/Instruments/record_player2.png,0.7,1,-0.2,0.15,left,33,2020-12-19_11h35.04.912,premup-three_ses-01_part-01_label-phase1,3.2.4,MacIntel,60,,,,,,,,,,,,,,,,,,,,,,,,,,,,,,,,
left,0.588000298,1,2,1,0,240,144,1,239,2,4,1,stim/41.jpeg,Instruments,1,stim/objects/Instruments/panflute2.png,0.7,1,-0.2,0.15,left,33,2020-12-19_11h35.04.912,premup-three_ses-01_part-01_label-phase1,3.2.4,MacIntel,60,,,,,,,,,,,,,,,,,,,,,,,,,,,,,,,,
right,0.6650002,1,3,1,0,240,72,1,239,1,2,1,stim/21.jpeg,HouseObjects,2,stim/objects/HouseObjects/safetypin.png,0.5,4,0.2,-0.15,right,33,2020-12-19_11h35.04.912,premup-three_ses-01_part-01_label-phase1,3.2.4,MacIntel,60,,,,,,,,,,,,,,,,,,,,,,,,,,,,,,,,
right,0.794000149,1,4,1,0,240,65,1,239,1,2,2,stim/22.jpeg,HouseObjects,2,stim/objects/HouseObjects/saw.png,0.5,2,0.2,0.15,right,33,2020-12-19_11h35.04.912,premup-three_ses-01_part-01_label-phase1,3.2.4,MacIntel,60,,,,,,,,,,,,,,,,,,,,,,,,,,,,,,,,
right,0.979000092,0,5,1,0,240,205,1,239,3,6,2,stim/62.jpeg,Instruments,1,stim/objects/Instruments/trombone2.png,0.9,1,-0.2,0.15,left,33,2020-12-19_11h35.04.912,premup-three_ses-01_part-01_label-phase1,3.2.4,MacIntel,60,,,,,,,,,,,,,,,,,,,,,,,,,,,,,,,,
right,1.127000332,0,6,1,0,240,47,1,239,1,2,4,stim/24.jpeg,Instruments,1,stim/objects/Instruments/timbal.png,0.5,3,-0.2,-0.15,left,33,2020-12-19_11h35.04.912,premup-three_ses-01_part-01_label-phase1,3.2.4,MacIntel,60,,,,,,,,,,,,,,,,,,,,,,,,,,,,,,,,
left,0.846000195,0,7,1,0,240,195,1,239,3,5,4,stim/54.jpeg,HouseObjects,2,stim/objects/HouseObjects/sponge2.png,0.9,2,0.2,0.15,right,33,2020-12-19_11h35.04.912,premup-three_ses-01_part-01_label-phase1,3.2.4,MacIntel,60,,,,,,,,,,,,,,,,,,,,,,,,,,,,,,,,
right,1.233000278,0,8,1,0,240,222,1,239,3,6,3,stim/63.jpeg,Instruments,1,stim/objects/Instruments/trumpet2.png,0.9,1,-0.2,0.15,left,33,2020-12-19_11h35.04.912,premup-three_ses-01_part-01_label-phase1,3.2.4,MacIntel,60,,,,,,,,,,,,,,,,,,,,,,,,,,,,,,,,
left,1.373000145,1,9,1,0,240,210,1,239,3,6,3,stim/63.jpeg,Instruments,1,stim/objects/Instruments/trumpet2.png,0.9,3,-0.2,-0.15,left,33,2020-12-19_11h35.04.912,premup-three_ses-01_part-01_label-phase1,3.2.4,MacIntel,60,,,,,,,,,,,,,,,,,,,,,,,,,,,,,,,,
right,1.201000214,1,10,1,0,240,67,1,239,1,2,4,stim/24.jpeg,HouseObjects,2,stim/objects/HouseObjects/sponge.png,0.5,2,0.2,0.15,right,33,2020-12-19_11h35.04.912,premup-three_ses-01_part-01_label-phase1,3.2.4,MacIntel,60,,,,,,,,,,,,,,,,,,,,,,,,,,,,,,,,
,,0,1,,,,,,,2,3,1,stim/31.jpeg,Instruments,1,stim/objects/Instruments/triangle.png,0.3,2,0.2,0.15,left,33,2020-12-19_11h35.04.912,premup-three_ses-01_part-01_label-phase1,3.2.4,MacIntel,60,right,0.823000193,4,0,4,0,1,3,1,0,240,80,1,239,,,,,,,,,,,,,,,,,,
,,0,2,,,,,,,3,5,3,stim/53.jpeg,Instruments,1,stim/objects/Instruments/tambourine2.png,0.1,4,0.2,-0.15,left,33,2020-12-19_11h35.04.912,premup-three_ses-01_part-01_label-phase1,3.2.4,MacIntel,60,right,1.071000338,4,0,4,0,1,3,1,0,240,162,1,239,,,,,,,,,,,,,,,,,,
,,0,3,,,,,,,2,3,3,stim/33.jpeg,HouseObjects,2,stim/objects/HouseObjects/thermometer.png,0.7,4,0.2,-0.15,right,33,2020-12-19_11h35.04.912,premup-three_ses-01_part-01_label-phase1,3.2.4,MacIntel,60,left,1.121000051,4,0,4,0,1,3,1,0,240,118,1,239,,,,,,,,,,,,,,,,,,
,,0,4,,,,,,,1,2,3,stim/23.jpeg,Instruments,1,stim/objects/Instruments/tambourine.png,0.5,1,-0.2,0.15,left,33,2020-12-19_11h35.04.912,premup-three_ses-01_part-01_label-phase1,3.2.4,MacIntel,60,right,1.111000299,4,0,4,0,1,3,1,0,240,58,1,239,,,,,,,,,,,,,,,,,,
,,0,5,,,,,,,2,3,4,stim/34.jpeg,HouseObjects,2,stim/objects/HouseObjects/thread.png,0.7,3,-0.2,-0.15,right,33,2020-12-19_11h35.04.912,premup-three_ses-01_part-01_label-phase1,3.2.4,MacIntel,60,left,1.699000359,4,0,4,0,1,3,1,0,240,103,1,239,,,,,,,,,,,,,,,,,,
,,1,6,,,,,,,2,3,1,stim/31.jpeg,HouseObjects,2,stim/objects/HouseObjects/spraybottle.png,0.7,3,-0.2,-0.15,right,33,2020-12-19_11h35.04.912,premup-three_ses-01_part-01_label-phase1,3.2.4,MacIntel,60,right,1.337000132,4,0,4,0,1,3,1,0,240,92,1,239,,,,,,,,,,,,,,,,,,
,,0,7,,,,,,,3,6,2,stim/62.jpeg,Instruments,1,stim/objects/Instruments/trombone2.png,0.9,1,-0.2,0.15,left,33,2020-12-19_11h35.04.912,premup-three_ses-01_part-01_label-phase1,3.2.4,MacIntel,60,right,1.321000338,4,0,4,0,1,3,1,0,240,233,1,239,,,,,,,,,,,,,,,,,,
,,0,8,,,,,,,3,5,4,stim/54.jpeg,HouseObjects,2,stim/objects/HouseObjects/sponge2.png,0.9,1,-0.2,0.15,right,33,2020-12-19_11h35.04.912,premup-three_ses-01_part-01_label-phase1,3.2.4,MacIntel,60,,,4,0,4,0,1,3,1,0,240,167,1,239,,,,,,,,,,,,,,,,,,
,,1,9,,,,,,,2,4,4,stim/44.jpeg,Instruments,1,stim/objects/Instruments/record_player2.png,0.7,1,-0.2,0.15,left,33,2020-12-19_11h35.04.912,premup-three_ses-01_part-01_label-phase1,3.2.4,MacIntel,60,left,0.984000206,4,0,4,0,1,3,1,0,240,143,1,239,,,,,,,,,,,,,,,,,,
,,1,10,,,,,,,3,6,4,stim/64.jpeg,Instruments,1,stim/objects/Instruments/tuba2.png,0.9,1,-0.2,0.15,left,33,2020-12-19_11h35.04.912,premup-three_ses-01_part-01_label-phase1,3.2.4,MacIntel,60,left,1.576000214,4,0,4,0,1,3,1,0,240,235,1,239,,,,,,,,,,,,,,,,,,
,,0,11,,,,,,,1,1,2,stim/12.jpeg,HouseObjects,2,stim/objects/HouseObjects/remote.png,0.5,2,0.2,0.15,right,33,2020-12-19_11h35.04.912,premup-three_ses-01_part-01_label-phase1,3.2.4,MacIntel,60,left,0.997000217,4,0,4,0,1,3,1,0,240,21,1,239,,,,,,,,,,,,,,,,,,
,,1,12,,,,,,,2,3,3,stim/33.jpeg,HouseObjects,2,stim/objects/HouseObjects/thermometer.png,0.7,1,-0.2,0.15,right,33,2020-12-19_11h35.04.912,premup-three_ses-01_part-01_label-phase1,3.2.4,MacIntel,60,right,0.929000378,4,0,4,0,1,3,1,0,240,98,1,239,,,,,,,,,,,,,,,,,,
,,0,13,,,,,,,1,1,2,stim/12.jpeg,Instruments,1,stim/objects/Instruments/pipepiano.png,0.5,3,-0.2,-0.15,left,33,2020-12-19_11h35.04.912,premup-three_ses-01_part-01_label-phase1,3.2.4,MacIntel,60,right,1.379000187,4,0,4,0,1,3,1,0,240,9,1,239,,,,,,,,,,,,,,,,,,
,,1,14,,,,,,,1,2,3,stim/23.jpeg,Instruments,1,stim/objects/Instruments/tambourine.png,0.5,4,0.2,-0.15,left,33,2020-12-19_11h35.04.912,premup-three_ses-01_part-01_label-phase1,3.2.4,MacIntel,60,left,1.088000298,4,0,4,0,1,3,1,0,240,46,1,239,,,,,,,,,,,,,,,,,,
,,1,15,,,,,,,2,4,4,stim/44.jpeg,Instruments,1,stim/objects/Instruments/record_player2.png,0.7,3,-0.2,-0.15,left,33,2020-12-19_11h35.04.912,premup-three_ses-01_part-01_label-phase1,3.2.4,MacIntel,60,left,0.918000221,4,0,4,0,1,3,1,0,240,123,1,239,,,,,,,,,,,,,,,,,,
,,1,16,,,,,,,2,4,2,stim/42.jpeg,Instruments,1,stim/objects/Instruments/pipepiano2.png,0.7,1,-0.2,0.15,left,33,2020-12-19_11h35.04.912,premup-three_ses-01_part-01_label-phase1,3.2.4,MacIntel,60,left,0.971000195,4,0,4,0,1,3,1,0,240,129,1,239,,,,,,,,,,,,,,,,,,
,,0,17,,,,,,,2,3,2,stim/32.jpeg,Instruments,1,stim/objects/Instruments/trombone.png,0.3,3,-0.2,-0.15,left,33,2020-12-19_11h35.04.912,premup-three_ses-01_part-01_label-phase1,3.2.4,MacIntel,60,right,0.948000193,4,0,4,0,1,3,1,0,240,89,1,239,,,,,,,,,,,,,,,,,,
,,0,18,,,,,,,1,1,1,stim/11.jpeg,Instruments,1,stim/objects/Instruments/panflute.png,0.5,4,0.2,-0.15,left,33,2020-12-19_11h35.04.912,premup-three_ses-01_part-01_label-phase1,3.2.4,MacIntel,60,,,4,0,4,0,1,3,1,0,240,0,1,239,,,,,,,,,,,,,,,,,,
,,1,19,,,,,,,1,1,1,stim/11.jpeg,Instruments,1,stim/objects/Instruments/panflute.png,0.5,2,0.2,0.15,left,33,2020-12-19_11h35.04.912,premup-three_ses-01_part-01_label-phase1,3.2.4,MacIntel,60,left,1.048000336,4,0,4,0,1,3,1,0,240,8,1,239,,,,,,,,,,,,,,,,,,
,,0,20,,,,,,,2,4,1,stim/41.jpeg,HouseObjects,2,stim/objects/HouseObjects/recyclingbin2.png,0.3,4,0.2,-0.15,right,33,2020-12-19_11h35.04.912,premup-three_ses-01_part-01_label-phase1,3.2.4,MacIntel,60,left,1.033000231,4,0,4,0,1,3,1,0,240,156,1,239,,,,,,,,,,,,,,,,,,
,,1,21,,,,,,,3,5,1,stim/51.jpeg,HouseObjects,2,stim/objects/HouseObjects/safetypin2.png,0.9,4,0.2,-0.15,right,33,2020-12-19_11h35.04.912,premup-three_ses-01_part-01_label-phase1,3.2.4,MacIntel,60,right,0.890000105,4,0,4,0,1,3,1,0,240,188,1,239,,,,,,,,,,,,,,,,,,
,,1,22,,,,,,,1,1,1,stim/11.jpeg,Instruments,1,stim/objects/Instruments/panflute.png,0.5,1,-0.2,0.15,left,33,2020-12-19_11h35.04.912,premup-three_ses-01_part-01_label-phase1,3.2.4,MacIntel,60,left,1.368000269,4,0,4,0,1,3,1,0,240,12,1,239,,,,,,,,,,,,,,,,,,
,,1,23,,,,,,,2,4,3,stim/43.jpeg,Instruments,1,stim/objects/Instruments/record2.png,0.7,1,-0.2,0.15,left,33,2020-12-19_11h35.04.912,premup-three_ses-01_part-01_label-phase1,3.2.4,MacIntel,60,left,0.72900033,4,0,4,0,1,3,1,0,240,142,1,239,,,,,,,,,,,,,,,,,,
,,1,24,,,,,,,1,2,1,stim/21.jpeg,HouseObjects,2,stim/objects/HouseObjects/safetypin.png,0.5,4,0.2,-0.15,right,33,2020-12-19_11h35.04.912,premup-three_ses-01_part-01_label-phase1,3.2.4,MacIntel,60,right,0.856000185,4,0,4,0,1,3,1,0,240,64,1,239,,,,,,,,,,,,,,,,,,
,,1,25,,,,,,,1,2,2,stim/22.jpeg,HouseObjects,2,stim/objects/HouseObjects/saw.png,0.5,3,-0.2,-0.15,right,33,2020-12-19_11h35.04.912,premup-three_ses-01_part-01_label-phase1,3.2.4,MacIntel,60,right,0.640000105,4,0,4,0,1,3,1,0,240,77,1,239,,,,,,,,,,,,,,,,,,
,,0,26,,,,,,,1,1,1,stim/11.jpeg,Instruments,1,stim/objects/Instruments/panflute.png,0.5,2,0.2,0.15,left,33,2020-12-19_11h35.04.912,premup-three_ses-01_part-01_label-phase1,3.2.4,MacIntel,60,right,1.095000267,4,0,4,0,1,3,1,0,240,16,1,239,,,,,,,,,,,,,,,,,,
,,0,27,,,,,,,1,1,3,stim/13.jpeg,HouseObjects,2,stim/objects/HouseObjects/rubbergloves.png,0.5,3,-0.2,-0.15,right,33,2020-12-19_11h35.04.912,premup-three_ses-01_part-01_label-phase1,3.2.4,MacIntel,60,left,1.162000179,4,0,4,0,1,3,1,0,240,30,1,239,,,,,,,,,,,,,,,,,,
,,1,28,,,,,,,2,3,1,stim/31.jpeg,HouseObjects,2,stim/objects/HouseObjects/spraybottle.png,0.7,4,0.2,-0.15,right,33,2020-12-19_11h35.04.912,premup-three_ses-01_part-01_label-phase1,3.2.4,MacIntel,60,right,1.127000093,4,0,4,0,1,3,1,0,240,100,1,239,,,,,,,,,,,,,,,,,,
,,0,29,,,,,,,1,1,3,stim/13.jpeg,Instruments,1,stim/objects/Instruments/record.png,0.5,3,-0.2,-0.15,left,33,2020-12-19_11h35.04.912,premup-three_ses-01_part-01_label-phase1,3.2.4,MacIntel,60,right,1.019000053,4,0,4,0,1,3,1,0,240,10,1,239,,,,,,,,,,,,,,,,,,
,,1,30,,,,,,,2,4,1,stim/41.jpeg,Instruments,1,stim/objects/Instruments/panflute2.png,0.7,2,0.2,0.15,left,33,2020-12-19_11h35.04.912,premup-three_ses-01_part-01_label-phase1,3.2.4,MacIntel,60,left,0.868000269,4,0,4,0,1,3,1,0,240,128,1,239,,,,,,,,,,,,,,,,,,
,,0,31,,,,,,,3,6,1,stim/61.jpeg,Instruments,1,stim/objects/Instruments/triangle2.png,0.9,2,0.2,0.15,left,33,2020-12-19_11h35.04.912,premup-three_ses-01_part-01_label-phase1,3.2.4,MacIntel,60,right,1.008000135,4,0,4,0,1,3,1,0,240,216,1,239,,,,,,,,,,,,,,,,,,
,,1,32,,,,,,,2,4,1,stim/41.jpeg,Instruments,1,stim/objects/Instruments/panflute2.png,0.7,1,-0.2,0.15,left,33,2020-12-19_11h35.04.912,premup-three_ses-01_part-01_label-phase1,3.2.4,MacIntel,60,left,0.721000195,4,0,4,0,1,3,1,0,240,144,1,239,,,,,,,,,,,,,,,,,,
,,0,33,,,,,,,3,6,1,stim/61.jpeg,HouseObjects,2,stim/objects/HouseObjects/spraybottle2.png,0.1,2,0.2,0.15,right,33,2020-12-19_11h35.04.912,premup-three_ses-01_part-01_label-phase1,3.2.4,MacIntel,60,left,0.749000072,4,0,4,0,1,3,1,0,240,236,1,239,,,,,,,,,,,,,,,,,,
,,0,34,,,,,,,3,6,2,stim/62.jpeg,Instruments,1,stim/objects/Instruments/trombone2.png,0.9,1,-0.2,0.15,left,33,2020-12-19_11h35.04.912,premup-three_ses-01_part-01_label-phase1,3.2.4,MacIntel,60,right,1.005000353,4,0,4,0,1,3,1,0,240,201,1,239,,,,,,,,,,,,,,,,,,
,,0,35,,,,,,,3,5,2,stim/52.jpeg,HouseObjects,2,stim/objects/HouseObjects/saw2.png,0.9,1,-0.2,0.15,right,33,2020-12-19_11h35.04.912,premup-three_ses-01_part-01_label-phase1,3.2.4,MacIntel,60,left,1.017000198,4,0,4,0,1,3,1,0,240,177,1,239,,,,,,,,,,,,,,,,,,
,,1,36,,,,,,,2,4,1,stim/41.jpeg,HouseObjects,2,stim/objects/HouseObjects/recyclingbin2.png,0.3,4,0.2,-0.15,right,33,2020-12-19_11h35.04.912,premup-three_ses-01_part-01_label-phase1,3.2.4,MacIntel,60,right,1.039000273,4,0,4,0,1,3,1,0,240,148,1,239,,,,,,,,,,,,,,,,,,
,,1,37,,,,,,,3,5,1,stim/51.jpeg,HouseObjects,2,stim/objects/HouseObjects/safetypin2.png,0.9,1,-0.2,0.15,right,33,2020-12-19_11h35.04.912,premup-three_ses-01_part-01_label-phase1,3.2.4,MacIntel,60,right,0.974000216,4,0,4,0,1,3,1,0,240,176,1,239,,,,,,,,,,,,,,,,,,
,,1,38,,,,,,,3,6,2,stim/62.jpeg,Instruments,1,stim/objects/Instruments/trombone2.png,0.9,4,0.2,-0.15,left,33,2020-12-19_11h35.04.912,premup-three_ses-01_part-01_label-phase1,3.2.4,MacIntel,60,left,0.722000122,4,0,4,0,1,3,1,0,240,229,1,239,,,,,,,,,,,,,,,,,,
,,1,39,,,,,,,1,2,4,stim/24.jpeg,HouseObjects,2,stim/objects/HouseObjects/sponge.png,0.5,1,-0.2,0.15,right,33,2020-12-19_11h35.04.912,premup-three_ses-01_part-01_label-phase1,3.2.4,MacIntel,60,right,0.747000217,4,0,4,0,1,3,1,0,240,75,1,239,,,,,,,,,,,,,,,,,,
,,0,40,,,,,,,3,5,2,stim/52.jpeg,HouseObjects,2,stim/objects/HouseObjects/saw2.png,0.9,3,-0.2,-0.15,right,33,2020-12-19_11h35.04.912,premup-three_ses-01_part-01_label-phase1,3.2.4,MacIntel,60,left,0.831000328,4,0,4,0,1,3,1,0,240,193,1,239,,,,,,,,,,,,,,,,,,
,,1,41,,,,,,,1,1,2,stim/12.jpeg,Instruments,1,stim/objects/Instruments/pipepiano.png,0.5,4,0.2,-0.15,left,33,2020-12-19_11h35.04.912,premup-three_ses-01_part-01_label-phase1,3.2.4,MacIntel,60,left,1.368000269,4,0,4,0,1,3,1,0,240,1,1,239,,,,,,,,,,,,,,,,,,
,,0,42,,,,,,,2,4,2,stim/42.jpeg,HouseObjects,2,stim/objects/HouseObjects/remote2.png,0.3,3,-0.2,-0.15,right,33,2020-12-19_11h35.04.912,premup-three_ses-01_part-01_label-phase1,3.2.4,MacIntel,60,left,0.750000238,4,0,4,0,1,3,1,0,240,149,1,239,,,,,,,,,,,,,,,,,,
,,1,43,,,,,,,1,2,4,stim/24.jpeg,HouseObjects,2,stim/objects/HouseObjects/sponge.png,0.5,2,0.2,0.15,right,33,2020-12-19_11h35.04.912,premup-three_ses-01_part-01_label-phase1,3.2.4,MacIntel,60,right,0.739000082,4,0,4,0,1,3,1,0,240,67,1,239,,,,,,,,,,,,,,,,,,
,,1,44,,,,,,,3,6,1,stim/61.jpeg,Instruments,1,stim/objects/Instruments/triangle2.png,0.9,3,-0.2,-0.15,left,33,2020-12-19_11h35.04.912,premup-three_ses-01_part-01_label-phase1,3.2.4,MacIntel,60,left,1.815000296,4,0,4,0,1,3,1,0,240,200,1,239,,,,,,,,,,,,,,,,,,
,,1,45,,,,,,,1,1,4,stim/14.jpeg,Instruments,1,stim/objects/Instruments/record_player.png,0.5,1,-0.2,0.15,left,33,2020-12-19_11h35.04.912,premup-three_ses-01_part-01_label-phase1,3.2.4,MacIntel,60,left,1.588999987,4,0,4,0,1,3,1,0,240,19,1,239,,,,,,,,,,,,,,,,,,
,,1,46,,,,,,,1,1,1,stim/11.jpeg,HouseObjects,2,stim/objects/HouseObjects/recyclingbin.png,0.5,1,-0.2,0.15,right,33,2020-12-19_11h35.04.912,premup-three_ses-01_part-01_label-phase1,3.2.4,MacIntel,60,right,0.969000101,4,0,4,0,1,3,1,0,240,32,1,239,,,,,,,,,,,,,,,,,,
,,1,47,,,,,,,2,4,2,stim/42.jpeg,Instruments,1,stim/objects/Instruments/pipepiano2.png,0.7,3,-0.2,-0.15,left,33,2020-12-19_11h35.04.912,premup-three_ses-01_part-01_label-phase1,3.2.4,MacIntel,60,left,0.806000233,4,0,4,0,1,3,1,0,240,141,1,239,,,,,,,,,,,,,,,,,,
,,0,48,,,,,,,1,1,1,stim/11.jpeg,HouseObjects,2,stim/objects/HouseObjects/recyclingbin.png,0.5,2,0.2,0.15,right,33,2020-12-19_11h35.04.912,premup-three_ses-01_part-01_label-phase1,3.2.4,MacIntel,60,left,0.864000082,4,0,4,0,1,3,1,0,240,24,1,239,,,,,,,,,,,,,,,,,,
,,0,49,,,,,,,2,4,4,stim/44.jpeg,Instruments,1,stim/objects/Instruments/record_player2.png,0.7,2,0.2,0.15,left,33,2020-12-19_11h35.04.912,premup-three_ses-01_part-01_label-phase1,3.2.4,MacIntel,60,right,1.069000244,4,0,4,0,1,3,1,0,240,147,1,239,,,,,,,,,,,,,,,,,,
,,1,50,,,,,,,2,3,1,stim/31.jpeg,HouseObjects,2,stim/objects/HouseObjects/spraybottle.png,0.7,2,0.2,0.15,right,33,2020-12-19_11h35.04.912,premup-three_ses-01_part-01_label-phase1,3.2.4,MacIntel,60,right,1.033000231,4,0,4,0,1,3,1,0,240,112,1,239,,,,,,,,,,,,,,,,,,
,,1,51,,,,,,,2,3,4,stim/34.jpeg,HouseObjects,2,stim/objects/HouseObjects/thread.png,0.7,3,-0.2,-0.15,right,33,2020-12-19_11h35.04.912,premup-three_ses-01_part-01_label-phase1,3.2.4,MacIntel,60,right,0.625,4,0,4,0,1,3,1,0,240,119,1,239,,,,,,,,,,,,,,,,,,
,,1,52,,,,,,,3,6,1,stim/61.jpeg,Instruments,1,stim/objects/Instruments/triangle2.png,0.9,4,0.2,-0.15,left,33,2020-12-19_11h35.04.912,premup-three_ses-01_part-01_label-phase1,3.2.4,MacIntel,60,left,0.829000235,4,0,4,0,1,3,1,0,240,228,1,239,,,,,,,,,,,,,,,,,,
,,1,53,,,,,,,2,3,2,stim/32.jpeg,HouseObjects,2,stim/objects/HouseObjects/teapot.png,0.7,4,0.2,-0.15,right,33,2020-12-19_11h35.04.912,premup-three_ses-01_part-01_label-phase1,3.2.4,MacIntel,60,right,1.479000092,4,0,4,0,1,3,1,0,240,97,1,239,,,,,,,,,,,,,,,,,,
,,1,54,,,,,,,3,5,4,stim/54.jpeg,HouseObjects,2,stim/objects/HouseObjects/sponge2.png,0.9,3,-0.2,-0.15,right,33,2020-12-19_11h35.04.912,premup-three_ses-01_part-01_label-phase1,3.2.4,MacIntel,60,right,1.111999989,4,0,4,0,1,3,1,0,240,175,1,239,,,,,,,,,,,,,,,,,,
,,1,55,,,,,,,1,1,2,stim/12.jpeg,Instruments,1,stim/objects/Instruments/pipepiano.png,0.5,1,-0.2,0.15,left,33,2020-12-19_11h35.04.912,premup-three_ses-01_part-01_label-phase1,3.2.4,MacIntel,60,left,1.525000095,4,0,4,0,1,3,1,0,240,13,1,239,,,,,,,,,,,,,,,,,,
,,0,56,,,,,,,1,2,2,stim/22.jpeg,Instruments,1,stim/objects/Instruments/speaker.png,0.5,4,0.2,-0.15,left,33,2020-12-19_11h35.04.912,premup-three_ses-01_part-01_label-phase1,3.2.4,MacIntel,60,right,0.865000248,4,0,4,0,1,3,1,0,240,49,1,239,,,,,,,,,,,,,,,,,,
,,0,57,,,,,,,3,5,3,stim/53.jpeg,HouseObjects,2,stim/objects/HouseObjects/scale2.png,0.9,1,-0.2,0.15,right,33,2020-12-19_11h35.04.912,premup-three_ses-01_part-01_label-phase1,3.2.4,MacIntel,60,left,0.809000015,4,0,4,0,1,3,1,0,240,178,1,239,,,,,,,,,,,,,,,,,,
,,1,58,,,,,,,2,4,1,stim/41.jpeg,Instruments,1,stim/objects/Instruments/panflute2.png,0.7,1,-0.2,0.15,left,33,2020-12-19_11h35.04.912,premup-three_ses-01_part-01_label-phase1,3.2.4,MacIntel,60,left,0.709000111,4,0,4,0,1,3,1,0,240,132,1,239,,,,,,,,,,,,,,,,,,
,,0,59,,,,,,,1,2,1,stim/21.jpeg,Instruments,1,stim/objects/Instruments/saxophone.png,0.5,3,-0.2,-0.15,left,33,2020-12-19_11h35.04.912,premup-three_ses-01_part-01_label-phase1,3.2.4,MacIntel,60,right,0.713000059,4,0,4,0,1,3,1,0,240,44,1,239,,,,,,,,,,,,,,,,,,
,,1,60,,,,,,,1,1,3,stim/13.jpeg,Instruments,1,stim/objects/Instruments/record.png,0.5,2,0.2,0.15,left,33,2020-12-19_11h35.04.912,premup-three_ses-01_part-01_label-phase1,3.2.4,MacIntel,60,left,0.812000275,4,0,4,0,1,3,1,0,240,6,1,239,,,,,,,,,,,,,,,,,,
,,0,61,,,,,,,2,4,2,stim/42.jpeg,HouseObjects,2,stim/objects/HouseObjects/remote2.png,0.3,2,0.2,0.15,right,33,2020-12-19_11h35.04.912,premup-three_ses-01_part-01_label-phase1,3.2.4,MacIntel,60,left,0.83100009,4,0,4,0,1,3,1,0,240,153,1,239,,,,,,,,,,,,,,,,,,
,,1,62,,,,,,,1,2,1,stim/21.jpeg,HouseObjects,2,stim/objects/HouseObjects/safetypin.png,0.5,3,-0.2,-0.15,right,33,2020-12-19_11h35.04.912,premup-three_ses-01_part-01_label-phase1,3.2.4,MacIntel,60,right,0.707000017,4,0,4,0,1,3,1,0,240,76,1,239,,,,,,,,,,,,,,,,,,
,,0,63,,,,,,,1,2,2,stim/22.jpeg,Instruments,1,stim/objects/Instruments/speaker.png,0.5,3,-0.2,-0.15,left,33,2020-12-19_11h35.04.912,premup-three_ses-01_part-01_label-phase1,3.2.4,MacIntel,60,right,0.747000217,4,0,4,0,1,3,1,0,240,53,1,239,,,,,,,,,,,,,,,,,,
,,0,64,,,,,,,2,3,1,stim/31.jpeg,Instruments,1,stim/objects/Instruments/triangle.png,0.3,3,-0.2,-0.15,left,33,2020-12-19_11h35.04.912,premup-three_ses-01_part-01_label-phase1,3.2.4,MacIntel,60,right,1.102000237,4,0,4,0,1,3,1,0,240,88,1,239,,,,,,,,,,,,,,,,,,
,,1,65,,,,,,,1,1,3,stim/13.jpeg,Instruments,1,stim/objects/Instruments/record.png,0.5,1,-0.2,0.15,left,33,2020-12-19_11h35.04.912,premup-three_ses-01_part-01_label-phase1,3.2.4,MacIntel,60,left,0.693000317,4,0,4,0,1,3,1,0,240,18,1,239,,,,,,,,,,,,,,,,,,
,,1,66,,,,,,,1,2,2,stim/22.jpeg,HouseObjects,2,stim/objects/HouseObjects/saw.png,0.5,1,-0.2,0.15,right,33,2020-12-19_11h35.04.912,premup-three_ses-01_part-01_label-phase1,3.2.4,MacIntel,60,right,0.696000099,4,0,4,0,1,3,1,0,240,73,1,239,,,,,,,,,,,,,,,,,,
,,1,67,,,,,,,1,1,3,stim/13.jpeg,Instruments,1,stim/objects/Instruments/record.png,0.5,3,-0.2,-0.15,left,33,2020-12-19_11h35.04.912,premup-three_ses-01_part-01_label-phase1,3.2.4,MacIntel,60,left,0.903000116,4,0,4,0,1,3,1,0,240,2,1,239,,,,,,,,,,,,,,,,,,
,,1,68,,,,,,,3,5,3,stim/53.jpeg,HouseObjects,2,stim/objects/HouseObjects/scale2.png,0.9,1,-0.2,0.15,right,33,2020-12-19_11h35.04.912,premup-three_ses-01_part-01_label-phase1,3.2.4,MacIntel,60,right,1.863000393,4,0,4,0,1,3,1,0,240,194,1,239,,,,,,,,,,,,,,,,,,
,,1,69,,,,,,,3,6,1,stim/61.jpeg,Instruments,1,stim/objects/Instruments/triangle2.png,0.9,4,0.2,-0.15,left,33,2020-12-19_11h35.04.912,premup-three_ses-01_part-01_label-phase1,3.2.4,MacIntel,60,left,1.210000038,4,0,4,0,1,3,1,0,240,220,1,239,,,,,,,,,,,,,,,,,,
,,1,70,,,,,,,2,3,3,stim/33.jpeg,HouseObjects,2,stim/objects/HouseObjects/thermometer.png,0.7,2,0.2,0.15,right,33,2020-12-19_11h35.04.912,premup-three_ses-01_part-01_label-phase1,3.2.4,MacIntel,60,right,0.761000156,4,0,4,0,1,3,1,0,240,110,1,239,,,,,,,,,,,,,,,,,,
,,1,71,,,,,,,3,5,4,stim/54.jpeg,HouseObjects,2,stim/objects/HouseObjects/sponge2.png,0.9,4,0.2,-0.15,right,33,2020-12-19_11h35.04.912,premup-three_ses-01_part-01_label-phase1,3.2.4,MacIntel,60,right,0.862000227,4,0,4,0,1,3,1,0,240,199,1,239,,,,,,,,,,,,,,,,,,
,,1,72,,,,,,,2,4,4,stim/44.jpeg,Instruments,1,stim/objects/Instruments/record_player2.png,0.7,1,-0.2,0.15,left,33,2020-12-19_11h35.04.912,premup-three_ses-01_part-01_label-phase1,3.2.4,MacIntel,60,left,0.630000114,4,0,4,0,1,3,1,0,240,127,1,239,,,,,,,,,,,,,,,,,,
,,1,73,,,,,,,3,5,3,stim/53.jpeg,HouseObjects,2,stim/objects/HouseObjects/scale2.png,0.9,3,-0.2,-0.15,right,33,2020-12-19_11h35.04.912,premup-three_ses-01_part-01_label-phase1,3.2.4,MacIntel,60,right,0.79700017,4,0,4,0,1,3,1,0,240,170,1,239,,,,,,,,,,,,,,,,,,
,,1,74,,,,,,,1,1,3,stim/13.jpeg,HouseObjects,2,stim/objects/HouseObjects/rubbergloves.png,0.5,4,0.2,-0.15,right,33,2020-12-19_11h35.04.912,premup-three_ses-01_part-01_label-phase1,3.2.4,MacIntel,60,right,0.938000202,4,0,4,0,1,3,1,0,240,26,1,239,,,,,,,,,,,,,,,,,,
,,1,75,,,,,,,3,6,2,stim/62.jpeg,Instruments,1,stim/objects/Instruments/trombone2.png,0.9,1,-0.2,0.15,left,33,2020-12-19_11h35.04.912,premup-three_ses-01_part-01_label-phase1,3.2.4,MacIntel,60,left,0.851000309,4,0,4,0,1,3,1,0,240,213,1,239,,,,,,,,,,,,,,,,,,
,,1,76,,,,,,,3,6,2,stim/62.jpeg,Instruments,1,stim/objects/Instruments/trombone2.png,0.9,4,0.2,-0.15,left,33,2020-12-19_11h35.04.912,premup-three_ses-01_part-01_label-phase1,3.2.4,MacIntel,60,left,0.549000025,4,0,4,0,1,3,1,0,240,225,1,239,,,,,,,,,,,,,,,,,,
,,1,77,,,,,,,3,5,1,stim/51.jpeg,HouseObjects,2,stim/objects/HouseObjects/safetypin2.png,0.9,4,0.2,-0.15,right,33,2020-12-19_11h35.04.912,premup-three_ses-01_part-01_label-phase1,3.2.4,MacIntel,60,right,0.804000378,4,0,4,0,1,3,1,0,240,180,1,239,,,,,,,,,,,,,,,,,,
,,1,78,,,,,,,3,5,2,stim/52.jpeg,HouseObjects,2,stim/objects/HouseObjects/saw2.png,0.9,3,-0.2,-0.15,right,33,2020-12-19_11h35.04.912,premup-three_ses-01_part-01_label-phase1,3.2.4,MacIntel,60,right,1.021000147,4,0,4,0,1,3,1,0,240,189,1,239,,,,,,,,,,,,,,,,,,
,,0,79,,,,,,,1,2,3,stim/23.jpeg,Instruments,1,stim/objects/Instruments/tambourine.png,0.5,3,-0.2,-0.15,left,33,2020-12-19_11h35.04.912,premup-three_ses-01_part-01_label-phase1,3.2.4,MacIntel,60,right,0.643000126,4,0,4,0,1,3,1,0,240,42,1,239,,,,,,,,,,,,,,,,,,
,,0,80,,,,,,,1,1,4,stim/14.jpeg,HouseObjects,2,stim/objects/HouseObjects/rug.png,0.5,4,0.2,-0.15,right,33,2020-12-19_11h35.04.912,premup-three_ses-01_part-01_label-phase1,3.2.4,MacIntel,60,left,1.079000235,4,0,4,0,1,3,1,0,240,27,1,239,,,,,,,,,,,,,,,,,,
,,1,81,,,,,,,3,5,3,stim/53.jpeg,HouseObjects,2,stim/objects/HouseObjects/scale2.png,0.9,2,0.2,0.15,right,33,2020-12-19_11h35.04.912,premup-three_ses-01_part-01_label-phase1,3.2.4,MacIntel,60,right,0.705000162,4,0,4,0,1,3,1,0,240,190,1,239,,,,,,,,,,,,,,,,,,
,,0,82,,,,,,,2,4,1,stim/41.jpeg,Instruments,1,stim/objects/Instruments/panflute2.png,0.7,2,0.2,0.15,left,33,2020-12-19_11h35.04.912,premup-three_ses-01_part-01_label-phase1,3.2.4,MacIntel,60,right,1.090000153,4,0,4,0,1,3,1,0,240,140,1,239,,,,,,,,,,,,,,,,,,
,,0,83,,,,,,,1,2,4,stim/24.jpeg,Instruments,1,stim/objects/Instruments/timbal.png,0.5,3,-0.2,-0.15,left,33,2020-12-19_11h35.04.912,premup-three_ses-01_part-01_label-phase1,3.2.4,MacIntel,60,right,0.812000036,4,0,4,0,1,3,1,0,240,47,1,239,,,,,,,,,,,,,,,,,,
,,1,84,,,,,,,2,3,1,stim/31.jpeg,HouseObjects,2,stim/objects/HouseObjects/spraybottle.png,0.7,4,0.2,-0.15,right,33,2020-12-19_11h35.04.912,premup-three_ses-01_part-01_label-phase1,3.2.4,MacIntel,60,right,0.903000355,4,0,4,0,1,3,1,0,240,96,1,239,,,,,,,,,,,,,,,,,,
,,0,85,,,,,,,3,6,4,stim/64.jpeg,HouseObjects,2,stim/objects/HouseObjects/thread2.png,0.1,4,0.2,-0.15,right,33,2020-12-19_11h35.04.912,premup-three_ses-01_part-01_label-phase1,3.2.4,MacIntel,60,left,0.795000076,4,0,4,0,1,3,1,0,240,239,1,239,,,,,,,,,,,,,,,,,,
,,0,86,,,,,,,1,1,4,stim/14.jpeg,Instruments,1,stim/objects/Instruments/record_player.png,0.5,4,0.2,-0.15,left,33,2020-12-19_11h35.04.912,premup-three_ses-01_part-01_label-phase1,3.2.4,MacIntel,60,right,1.359000206,4,0,4,0,1,3,1,0,240,11,1,239,,,,,,,,,,,,,,,,,,
,,1,87,,,,,,,3,5,4,stim/54.jpeg,HouseObjects,2,stim/objects/HouseObjects/sponge2.png,0.9,2,0.2,0.15,right,33,2020-12-19_11h35.04.912,premup-three_ses-01_part-01_label-phase1,3.2.4,MacIntel,60,right,0.711000204,4,0,4,0,1,3,1,0,240,191,1,239,,,,,,,,,,,,,,,,,,
,,1,88,,,,,,,3,6,4,stim/64.jpeg,Instruments,1,stim/objects/Instruments/tuba2.png,0.9,3,-0.2,-0.15,left,33,2020-12-19_11h35.04.912,premup-three_ses-01_part-01_label-phase1,3.2.4,MacIntel,60,left,0.774000168,4,0,4,0,1,3,1,0,240,203,1,239,,,,,,,,,,,,,,,,,,
,,1,89,,,,,,,1,1,2,stim/12.jpeg,Instruments,1,stim/objects/Instruments/pipepiano.png,0.5,2,0.2,0.15,left,33,2020-12-19_11h35.04.912,premup-three_ses-01_part-01_label-phase1,3.2.4,MacIntel,60,left,1.185000181,4,0,4,0,1,3,1,0,240,5,1,239,,,,,,,,,,,,,,,,,,
,,0,90,,,,,,,1,1,4,stim/14.jpeg,HouseObjects,2,stim/objects/HouseObjects/rug.png,0.5,3,-0.2,-0.15,right,33,2020-12-19_11h35.04.912,premup-three_ses-01_part-01_label-phase1,3.2.4,MacIntel,60,,,4,0,4,0,1,3,1,0,240,35,1,239,,,,,,,,,,,,,,,,,,
,,0,91,,,,,,,1,2,2,stim/22.jpeg,Instruments,1,stim/objects/Instruments/speaker.png,0.5,4,0.2,-0.15,left,33,2020-12-19_11h35.04.912,premup-three_ses-01_part-01_label-phase1,3.2.4,MacIntel,60,right,0.663000107,4,0,4,0,1,3,1,0,240,41,1,239,,,,,,,,,,,,,,,,,,
,,0,92,,,,,,,2,3,4,stim/34.jpeg,Instruments,1,stim/objects/Instruments/tuba.png,0.3,3,-0.2,-0.15,left,33,2020-12-19_11h35.04.912,premup-three_ses-01_part-01_label-phase1,3.2.4,MacIntel,60,right,1.050000191,4,0,4,0,1,3,1,0,240,83,1,239,,,,,,,,,,,,,,,,,,
,,1,93,,,,,,,1,1,1,stim/11.jpeg,Instruments,1,stim/objects/Instruments/panflute.png,0.5,1,-0.2,0.15,left,33,2020-12-19_11h35.04.912,premup-three_ses-01_part-01_label-phase1,3.2.4,MacIntel,60,left,0.907000303,4,0,4,0,1,3,1,0,240,4,1,239,,,,,,,,,,,,,,,,,,
,,1,94,,,,,,,3,5,4,stim/54.jpeg,HouseObjects,2,stim/objects/HouseObjects/sponge2.png,0.9,4,0.2,-0.15,right,33,2020-12-19_11h35.04.912,premup-three_ses-01_part-01_label-phase1,3.2.4,MacIntel,60,right,0.711000204,4,0,4,0,1,3,1,0,240,171,1,239,,,,,,,,,,,,,,,,,,
,,1,95,,,,,,,1,2,4,stim/24.jpeg,HouseObjects,2,stim/objects/HouseObjects/sponge.png,0.5,2,0.2,0.15,right,33,2020-12-19_11h35.04.912,premup-three_ses-01_part-01_label-phase1,3.2.4,MacIntel,60,right,0.681000233,4,0,4,0,1,3,1,0,240,63,1,239,,,,,,,,,,,,,,,,,,
,,0,96,,,,,,,1,1,1,stim/11.jpeg,HouseObjects,2,stim/objects/HouseObjects/recyclingbin.png,0.5,2,0.2,0.15,right,33,2020-12-19_11h35.04.912,premup-three_ses-01_part-01_label-phase1,3.2.4,MacIntel,60,left,0.85800004,4,0,4,0,1,3,1,0,240,28,1,239,,,,,,,,,,,,,,,,,,
,,0,97,,,,,,,1,1,4,stim/14.jpeg,Instruments,1,stim/objects/Instruments/record_player.png,0.5,3,-0.2,-0.15,left,33,2020-12-19_11h35.04.912,premup-three_ses-01_part-01_label-phase1,3.2.4,MacIntel,60,right,1.086000204,4,0,4,0,1,3,1,0,240,15,1,239,,,,,,,,,,,,,,,,,,
,,1,98,,,,,,,3,6,1,stim/61.jpeg,Instruments,1,stim/objects/Instruments/triangle2.png,0.9,2,0.2,0.15,left,33,2020-12-19_11h35.04.912,premup-three_ses-01_part-01_label-phase1,3.2.4,MacIntel,60,left,1.120000124,4,0,4,0,1,3,1,0,240,232,1,239,,,,,,,,,,,,,,,,,,
,,1,99,,,,,,,1,2,3,stim/23.jpeg,HouseObjects,2,stim/objects/HouseObjects/scale.png,0.5,2,0.2,0.15,right,33,2020-12-19_11h35.04.912,premup-three_ses-01_part-01_label-phase1,3.2.4,MacIntel,60,right,0.697000027,4,0,4,0,1,3,1,0,240,74,1,239,,,,,,,,,,,,,,,,,,
,,1,100,,,,,,,2,3,3,stim/33.jpeg,HouseObjects,2,stim/objects/HouseObjects/thermometer.png,0.7,1,-0.2,0.15,right,33,2020-12-19_11h35.04.912,premup-three_ses-01_part-01_label-phase1,3.2.4,MacIntel,60,right,0.84100008,4,0,4,0,1,3,1,0,240,106,1,239,,,,,,,,,,,,,,,,,,
,,1,101,,,,,,,3,5,1,stim/51.jpeg,HouseObjects,2,stim/objects/HouseObjects/safetypin2.png,0.9,3,-0.2,-0.15,right,33,2020-12-19_11h35.04.912,premup-three_ses-01_part-01_label-phase1,3.2.4,MacIntel,60,right,0.845000029,4,0,4,0,1,3,1,0,240,196,1,239,,,,,,,,,,,,,,,,,,
,,1,102,,,,,,,3,6,3,stim/63.jpeg,Instruments,1,stim/objects/Instruments/trumpet2.png,0.9,3,-0.2,-0.15,left,33,2020-12-19_11h35.04.912,premup-three_ses-01_part-01_label-phase1,3.2.4,MacIntel,60,left,0.843000174,4,0,4,0,1,3,1,0,240,230,1,239,,,,,,,,,,,,,,,,,,
,,1,103,,,,,,,1,2,2,stim/22.jpeg,HouseObjects,2,stim/objects/HouseObjects/saw.png,0.5,2,0.2,0.15,right,33,2020-12-19_11h35.04.912,premup-three_ses-01_part-01_label-phase1,3.2.4,MacIntel,60,right,0.633000374,4,0,4,0,1,3,1,0,240,65,1,239,,,,,,,,,,,,,,,,,,
,,1,104,,,,,,,2,3,3,stim/33.jpeg,HouseObjects,2,stim/objects/HouseObjects/thermometer.png,0.7,2,0.2,0.15,right,33,2020-12-19_11h35.04.912,premup-three_ses-01_part-01_label-phase1,3.2.4,MacIntel,60,right,0.575000048,4,0,4,0,1,3,1,0,240,94,1,239,,,,,,,,,,,,,,,,,,
,,0,105,,,,,,,3,5,1,stim/51.jpeg,Instruments,1,stim/objects/Instruments/saxophone2.png,0.1,4,0.2,-0.15,left,33,2020-12-19_11h35.04.912,premup-three_ses-01_part-01_label-phase1,3.2.4,MacIntel,60,right,0.667000055,4,0,4,0,1,3,1,0,240,160,1,239,,,,,,,,,,,,,,,,,,
,,1,106,,,,,,,3,6,1,stim/61.jpeg,Instruments,1,stim/objects/Instruments/triangle2.png,0.9,3,-0.2,-0.15,left,33,2020-12-19_11h35.04.912,premup-three_ses-01_part-01_label-phase1,3.2.4,MacIntel,60,left,0.839000225,4,0,4,0,1,3,1,0,240,204,1,239,,,,,,,,,,,,,,,,,,
,,0,107,,,,,,,1,1,2,stim/12.jpeg,HouseObjects,2,stim/objects/HouseObjects/remote.png,0.5,1,-0.2,0.15,right,33,2020-12-19_11h35.04.912,premup-three_ses-01_part-01_label-phase1,3.2.4,MacIntel,60,left,0.734000206,4,0,4,0,1,3,1,0,240,29,1,239,,,,,,,,,,,,,,,,,,
,,1,108,,,,,,,3,5,3,stim/53.jpeg,HouseObjects,2,stim/objects/HouseObjects/scale2.png,0.9,2,0.2,0.15,right,33,2020-12-19_11h35.04.912,premup-three_ses-01_part-01_label-phase1,3.2.4,MacIntel,60,right,0.63499999,4,0,4,0,1,3,1,0,240,174,1,239,,,,,,,,,,,,,,,,,,
,,0,109,,,,,,,1,2,1,stim/21.jpeg,Instruments,1,stim/objects/Instruments/saxophone.png,0.5,4,0.2,-0.15,left,33,2020-12-19_11h35.04.912,premup-three_ses-01_part-01_label-phase1,3.2.4,MacIntel,60,right,0.736000061,4,0,4,0,1,3,1,0,240,56,1,239,,,,,,,,,,,,,,,,,,
,,1,110,,,,,,,2,4,4,stim/44.jpeg,Instruments,1,stim/objects/Instruments/record_player2.png,0.7,1,-0.2,0.15,left,33,2020-12-19_11h35.04.912,premup-three_ses-01_part-01_label-phase1,3.2.4,MacIntel,60,left,0.846000195,4,0,4,0,1,3,1,0,240,131,1,239,,,,,,,,,,,,,,,,,,
,,1,111,,,,,,,1,1,4,stim/14.jpeg,Instruments,1,stim/objects/Instruments/record_player.png,0.5,4,0.2,-0.15,left,33,2020-12-19_11h35.04.912,premup-three_ses-01_part-01_label-phase1,3.2.4,MacIntel,60,left,0.789000273,4,0,4,0,1,3,1,0,240,3,1,239,,,,,,,,,,,,,,,,,,
,,1,112,,,,,,,3,6,4,stim/64.jpeg,Instruments,1,stim/objects/Instruments/tuba2.png,0.9,3,-0.2,-0.15,left,33,2020-12-19_11h35.04.912,premup-three_ses-01_part-01_label-phase1,3.2.4,MacIntel,60,left,0.586000204,4,0,4,0,1,3,1,0,240,215,1,239,,,,,,,,,,,,,,,,,,
,,1,113,,,,,,,1,2,1,stim/21.jpeg,HouseObjects,2,stim/objects/HouseObjects/safetypin.png,0.5,3,-0.2,-0.15,right,33,2020-12-19_11h35.04.912,premup-three_ses-01_part-01_label-phase1,3.2.4,MacIntel,60,right,0.646000147,4,0,4,0,1,3,1,0,240,68,1,239,,,,,,,,,,,,,,,,,,
,,1,114,,,,,,,3,6,3,stim/63.jpeg,Instruments,1,stim/objects/Instruments/trumpet2.png,0.9,3,-0.2,-0.15,left,33,2020-12-19_11h35.04.912,premup-three_ses-01_part-01_label-phase1,3.2.4,MacIntel,60,left,0.713000298,4,0,4,0,1,3,1,0,240,210,1,239,,,,,,,,,,,,,,,,,,
,,1,115,,,,,,,2,3,4,stim/34.jpeg,HouseObjects,2,stim/objects/HouseObjects/thread.png,0.7,2,0.2,0.15,right,33,2020-12-19_11h35.04.912,premup-three_ses-01_part-01_label-phase1,3.2.4,MacIntel,60,right,0.701000214,4,0,4,0,1,3,1,0,240,107,1,239,,,,,,,,,,,,,,,,,,
,,1,116,,,,,,,2,3,2,stim/32.jpeg,HouseObjects,2,stim/objects/HouseObjects/teapot.png,0.7,1,-0.2,0.15,right,33,2020-12-19_11h35.04.912,premup-three_ses-01_part-01_label-phase1,3.2.4,MacIntel,60,right,0.563000202,4,0,4,0,1,3,1,0,240,109,1,239,,,,,,,,,,,,,,,,,,
,,1,117,,,,,,,2,3,3,stim/33.jpeg,HouseObjects,2,stim/objects/HouseObjects/thermometer.png,0.7,4,0.2,-0.15,right,33,2020-12-19_11h35.04.912,premup-three_ses-01_part-01_label-phase1,3.2.4,MacIntel,60,right,0.661000013,4,0,4,0,1,3,1,0,240,114,1,239,,,,,,,,,,,,,,,,,,
,,1,118,,,,,,,1,2,4,stim/24.jpeg,Instruments,1,stim/objects/Instruments/timbal.png,0.5,3,-0.2,-0.15,left,33,2020-12-19_11h35.04.912,premup-three_ses-01_part-01_label-phase1,3.2.4,MacIntel,60,left,0.832000017,4,0,4,0,1,3,1,0,240,43,1,239,,,,,,,,,,,,,,,,,,
,,1,119,,,,,,,3,5,4,stim/54.jpeg,HouseObjects,2,stim/objects/HouseObjects/sponge2.png,0.9,1,-0.2,0.15,right,33,2020-12-19_11h35.04.912,premup-three_ses-01_part-01_label-phase1,3.2.4,MacIntel,60,right,1.025000095,4,0,4,0,1,3,1,0,240,187,1,239,,,,,,,,,,,,,,,,,,
,,1,120,,,,,,,2,3,2,stim/32.jpeg,HouseObjects,2,stim/objects/HouseObjects/teapot.png,0.7,4,0.2,-0.15,right,33,2020-12-19_11h35.04.912,premup-three_ses-01_part-01_label-phase1,3.2.4,MacIntel,60,right,0.663000107,4,0,4,0,1,3,1,0,240,105,1,239,,,,,,,,,,,,,,,,,,
,,1,121,,,,,,,2,3,1,stim/31.jpeg,HouseObjects,2,stim/objects/HouseObjects/spraybottle.png,0.7,2,0.2,0.15,right,33,2020-12-19_11h35.04.912,premup-three_ses-01_part-01_label-phase1,3.2.4,MacIntel,60,right,0.493000031,4,0,4,0,1,3,1,0,240,108,1,239,,,,,,,,,,,,,,,,,,
,,1,122,,,,,,,2,4,2,stim/42.jpeg,Instruments,1,stim/objects/Instruments/pipepiano2.png,0.7,2,0.2,0.15,left,33,2020-12-19_11h35.04.912,premup-three_ses-01_part-01_label-phase1,3.2.4,MacIntel,60,left,0.738000154,4,0,4,0,1,3,1,0,240,137,1,239,,,,,,,,,,,,,,,,,,
,,1,123,,,,,,,1,2,3,stim/23.jpeg,HouseObjects,2,stim/objects/HouseObjects/scale.png,0.5,4,0.2,-0.15,right,33,2020-12-19_11h35.04.912,premup-three_ses-01_part-01_label-phase1,3.2.4,MacIntel,60,right,0.566000223,4,0,4,0,1,3,1,0,240,70,1,239,,,,,,,,,,,,,,,,,,
,,0,124,,,,,,,1,2,4,stim/24.jpeg,Instruments,1,stim/objects/Instruments/timbal.png,0.5,4,0.2,-0.15,left,33,2020-12-19_11h35.04.912,premup-three_ses-01_part-01_label-phase1,3.2.4,MacIntel,60,right,0.582000256,4,0,4,0,1,3,1,0,240,51,1,239,,,,,,,,,,,,,,,,,,
,,0,125,,,,,,,2,3,4,stim/34.jpeg,Instruments,1,stim/objects/Instruments/tuba.png,0.3,2,0.2,0.15,left,33,2020-12-19_11h35.04.912,premup-three_ses-01_part-01_label-phase1,3.2.4,MacIntel,60,right,0.92200017,4,0,4,0,1,3,1,0,240,87,1,239,,,,,,,,,,,,,,,,,,
,,0,126,,,,,,,3,6,3,stim/63.jpeg,HouseObjects,2,stim/objects/HouseObjects/thermometer2.png,0.1,4,0.2,-0.15,right,33,2020-12-19_11h35.04.912,premup-three_ses-01_part-01_label-phase1,3.2.4,MacIntel,60,left,0.684000015,4,0,4,0,1,3,1,0,240,238,1,239,,,,,,,,,,,,,,,,,,
,,0,127,,,,,,,1,1,3,stim/13.jpeg,HouseObjects,2,stim/objects/HouseObjects/rubbergloves.png,0.5,3,-0.2,-0.15,right,33,2020-12-19_11h35.04.912,premup-three_ses-01_part-01_label-phase1,3.2.4,MacIntel,60,left,1.178000212,4,0,4,0,1,3,1,0,240,34,1,239,,,,,,,,,,,,,,,,,,
,,1,128,,,,,,,2,3,2,stim/32.jpeg,HouseObjects,2,stim/objects/HouseObjects/teapot.png,0.7,3,-0.2,-0.15,right,33,2020-12-19_11h35.04.912,premup-three_ses-01_part-01_label-phase1,3.2.4,MacIntel,60,right,0.647000313,4,0,4,0,1,3,1,0,240,113,1,239,,,,,,,,,,,,,,,,,,
,,0,129,,,,,,,2,3,3,stim/33.jpeg,Instruments,1,stim/objects/Instruments/trumpet.png,0.3,1,-0.2,0.15,left,33,2020-12-19_11h35.04.912,premup-three_ses-01_part-01_label-phase1,3.2.4,MacIntel,60,right,0.88100028,4,0,4,0,1,3,1,0,240,86,1,239,,,,,,,,,,,,,,,,,,
,,1,130,,,,,,,3,5,1,stim/51.jpeg,HouseObjects,2,stim/objects/HouseObjects/safetypin2.png,0.9,2,0.2,0.15,right,33,2020-12-19_11h35.04.912,premup-three_ses-01_part-01_label-phase1,3.2.4,MacIntel,60,right,0.703000069,4,0,4,0,1,3,1,0,240,168,1,239,,,,,,,,,,,,,,,,,,
,,1,131,,,,,,,2,4,4,stim/44.jpeg,Instruments,1,stim/objects/Instruments/record_player2.png,0.7,1,-0.2,0.15,left,33,2020-12-19_11h35.04.912,premup-three_ses-01_part-01_label-phase1,3.2.4,MacIntel,60,left,0.667000294,4,0,4,0,1,3,1,0,240,139,1,239,,,,,,,,,,,,,,,,,,
,,1,132,,,,,,,2,3,1,stim/31.jpeg,HouseObjects,2,stim/objects/HouseObjects/spraybottle.png,0.7,3,-0.2,-0.15,right,33,2020-12-19_11h35.04.912,premup-three_ses-01_part-01_label-phase1,3.2.4,MacIntel,60,right,0.82400012,4,0,4,0,1,3,1,0,240,116,1,239,,,,,,,,,,,,,,,,,,
,,1,133,,,,,,,2,4,3,stim/43.jpeg,Instruments,1,stim/objects/Instruments/record2.png,0.7,2,0.2,0.15,left,33,2020-12-19_11h35.04.912,premup-three_ses-01_part-01_label-phase1,3.2.4,MacIntel,60,left,0.802000284,4,0,4,0,1,3,1,0,240,138,1,239,,,,,,,,,,,,,,,,,,
,,0,134,,,,,,,2,4,4,stim/44.jpeg,HouseObjects,2,stim/objects/HouseObjects/rug2.png,0.3,4,0.2,-0.15,right,33,2020-12-19_11h35.04.912,premup-three_ses-01_part-01_label-phase1,3.2.4,MacIntel,60,left,0.578999996,4,0,4,0,1,3,1,0,240,151,1,239,,,,,,,,,,,,,,,,,,
,,1,135,,,,,,,3,5,1,stim/51.jpeg,HouseObjects,2,stim/objects/HouseObjects/safetypin2.png,0.9,4,0.2,-0.15,right,33,2020-12-19_11h35.04.912,premup-three_ses-01_part-01_label-phase1,3.2.4,MacIntel,60,right,0.575000048,4,0,4,0,1,3,1,0,240,184,1,239,,,,,,,,,,,,,,,,,,
,,1,136,,,,,,,2,3,2,stim/32.jpeg,HouseObjects,2,stim/objects/HouseObjects/teapot.png,0.7,3,-0.2,-0.15,right,33,2020-12-19_11h35.04.912,premup-three_ses-01_part-01_label-phase1,3.2.4,MacIntel,60,right,0.649000168,4,0,4,0,1,3,1,0,240,101,1,239,,,,,,,,,,,,,,,,,,
,,0,137,,,,,,,1,2,2,stim/22.jpeg,HouseObjects,2,stim/objects/HouseObjects/saw.png,0.5,1,-0.2,0.15,right,33,2020-12-19_11h35.04.912,premup-three_ses-01_part-01_label-phase1,3.2.4,MacIntel,60,left,0.827000141,4,0,4,0,1,3,1,0,240,61,1,239,,,,,,,,,,,,,,,,,,
,,1,138,,,,,,,1,2,2,stim/22.jpeg,HouseObjects,2,stim/objects/HouseObjects/saw.png,0.5,1,-0.2,0.15,right,33,2020-12-19_11h35.04.912,premup-three_ses-01_part-01_label-phase1,3.2.4,MacIntel,60,right,0.493999958,4,0,4,0,1,3,1,0,240,69,1,239,,,,,,,,,,,,,,,,,,
,,1,139,,,,,,,2,4,2,stim/42.jpeg,Instruments,1,stim/objects/Instruments/pipepiano2.png,0.7,3,-0.2,-0.15,left,33,2020-12-19_11h35.04.912,premup-three_ses-01_part-01_label-phase1,3.2.4,MacIntel,60,left,0.863000154,4,0,4,0,1,3,1,0,240,121,1,239,,,,,,,,,,,,,,,,,,
,,0,140,,,,,,,1,2,3,stim/23.jpeg,Instruments,1,stim/objects/Instruments/tambourine.png,0.5,4,0.2,-0.15,left,33,2020-12-19_11h35.04.912,premup-three_ses-01_part-01_label-phase1,3.2.4,MacIntel,60,right,0.552000046,4,0,4,0,1,3,1,0,240,54,1,239,,,,,,,,,,,,,,,,,,
,,0,141,,,,,,,1,1,4,stim/14.jpeg,HouseObjects,2,stim/objects/HouseObjects/rug.png,0.5,1,-0.2,0.15,right,33,2020-12-19_11h35.04.912,premup-three_ses-01_part-01_label-phase1,3.2.4,MacIntel,60,left,0.590000153,4,0,4,0,1,3,1,0,240,31,1,239,,,,,,,,,,,,,,,,,,
,,1,142,,,,,,,1,2,1,stim/21.jpeg,HouseObjects,2,stim/objects/HouseObjects/safetypin.png,0.5,3,-0.2,-0.15,right,33,2020-12-19_11h35.04.912,premup-three_ses-01_part-01_label-phase1,3.2.4,MacIntel,60,right,1.093000174,4,0,4,0,1,3,1,0,240,60,1,239,,,,,,,,,,,,,,,,,,
,,0,143,,,,,,,2,4,1,stim/41.jpeg,HouseObjects,2,stim/objects/HouseObjects/recyclingbin2.png,0.3,3,-0.2,-0.15,right,33,2020-12-19_11h35.04.912,premup-three_ses-01_part-01_label-phase1,3.2.4,MacIntel,60,left,0.985000372,4,0,4,0,1,3,1,0,240,152,1,239,,,,,,,,,,,,,,,,,,
,,1,144,,,,,,,3,6,2,stim/62.jpeg,Instruments,1,stim/objects/Instruments/trombone2.png,0.9,4,0.2,-0.15,left,33,2020-12-19_11h35.04.912,premup-three_ses-01_part-01_label-phase1,3.2.4,MacIntel,60,left,0.704000235,4,0,4,0,1,3,1,0,240,209,1,239,,,,,,,,,,,,,,,,,,
,,1,145,,,,,,,3,6,4,stim/64.jpeg,Instruments,1,stim/objects/Instruments/tuba2.png,0.9,2,0.2,0.15,left,33,2020-12-19_11h35.04.912,premup-three_ses-01_part-01_label-phase1,3.2.4,MacIntel,60,left,0.716000319,4,0,4,0,1,3,1,0,240,219,1,239,,,,,,,,,,,,,,,,,,
,,1,146,,,,,,,2,3,4,stim/34.jpeg,HouseObjects,2,stim/objects/HouseObjects/thread.png,0.7,2,0.2,0.15,right,33,2020-12-19_11h35.04.912,premup-three_ses-01_part-01_label-phase1,3.2.4,MacIntel,60,right,0.654000282,4,0,4,0,1,3,1,0,240,111,1,239,,,,,,,,,,,,,,,,,,
,,0,147,,,,,,,1,1,2,stim/12.jpeg,HouseObjects,2,stim/objects/HouseObjects/remote.png,0.5,2,0.2,0.15,right,33,2020-12-19_11h35.04.912,premup-three_ses-01_part-01_label-phase1,3.2.4,MacIntel,60,left,1.164000273,4,0,4,0,1,3,1,0,240,25,1,239,,,,,,,,,,,,,,,,,,
,,0,148,,,,,,,2,3,2,stim/32.jpeg,Instruments,1,stim/objects/Instruments/trombone.png,0.3,2,0.2,0.15,left,33,2020-12-19_11h35.04.912,premup-three_ses-01_part-01_label-phase1,3.2.4,MacIntel,60,right,0.580000162,4,0,4,0,1,3,1,0,240,81,1,239,,,,,,,,,,,,,,,,,,
,,1,149,,,,,,,1,1,3,stim/13.jpeg,Instruments,1,stim/objects/Instruments/record.png,0.5,1,-0.2,0.15,left,33,2020-12-19_11h35.04.912,premup-three_ses-01_part-01_label-phase1,3.2.4,MacIntel,60,left,1.201000214,4,0,4,0,1,3,1,0,240,14,1,239,,,,,,,,,,,,,,,,,,
,,0,150,,,,,,,1,1,3,stim/13.jpeg,HouseObjects,2,stim/objects/HouseObjects/rubbergloves.png,0.5,2,0.2,0.15,right,33,2020-12-19_11h35.04.912,premup-three_ses-01_part-01_label-phase1,3.2.4,MacIntel,60,left,1.016000032,4,0,4,0,1,3,1,0,240,38,1,239,,,,,,,,,,,,,,,,,,
,,1,151,,,,,,,2,4,3,stim/43.jpeg,Instruments,1,stim/objects/Instruments/record2.png,0.7,4,0.2,-0.15,left,33,2020-12-19_11h35.04.912,premup-three_ses-01_part-01_label-phase1,3.2.4,MacIntel,60,left,1.174000263,4,0,4,0,1,3,1,0,240,130,1,239,,,,,,,,,,,,,,,,,,
,,1,152,,,,,,,3,6,3,stim/63.jpeg,Instruments,1,stim/objects/Instruments/trumpet2.png,0.9,3,-0.2,-0.15,left,33,2020-12-19_11h35.04.912,premup-three_ses-01_part-01_label-phase1,3.2.4,MacIntel,60,left,1.011000156,4,0,4,0,1,3,1,0,240,206,1,239,,,,,,,,,,,,,,,,,,
,,0,153,,,,,,,1,2,4,stim/24.jpeg,Instruments,1,stim/objects/Instruments/timbal.png,0.5,2,0.2,0.15,left,33,2020-12-19_11h35.04.912,premup-three_ses-01_part-01_label-phase1,3.2.4,MacIntel,60,right,0.720999956,4,0,4,0,1,3,1,0,240,55,1,239,,,,,,,,,,,,,,,,,,
,,1,154,,,,,,,3,5,2,stim/52.jpeg,HouseObjects,2,stim/objects/HouseObjects/saw2.png,0.9,3,-0.2,-0.15,right,33,2020-12-19_11h35.04.912,premup-three_ses-01_part-01_label-phase1,3.2.4,MacIntel,60,right,1.072000265,4,0,4,0,1,3,1,0,240,173,1,239,,,,,,,,,,,,,,,,,,
,,1,155,,,,,,,3,6,1,stim/61.jpeg,Instruments,1,stim/objects/Instruments/triangle2.png,0.9,4,0.2,-0.15,left,33,2020-12-19_11h35.04.912,premup-three_ses-01_part-01_label-phase1,3.2.4,MacIntel,60,left,0.73300004,4,0,4,0,1,3,1,0,240,224,1,239,,,,,,,,,,,,,,,,,,
,,1,156,,,,,,,2,3,1,stim/31.jpeg,HouseObjects,2,stim/objects/HouseObjects/spraybottle.png,0.7,1,-0.2,0.15,right,33,2020-12-19_11h35.04.912,premup-three_ses-01_part-01_label-phase1,3.2.4,MacIntel,60,right,0.703000307,4,0,4,0,1,3,1,0,240,104,1,239,,,,,,,,,,,,,,,,,,
,,0,157,,,,,,,3,6,3,stim/63.jpeg,Instruments,1,stim/objects/Instruments/trumpet2.png,0.9,4,0.2,-0.15,left,33,2020-12-19_11h35.04.912,premup-three_ses-01_part-01_label-phase1,3.2.4,MacIntel,60,right,0.64800024,4,0,4,0,1,3,1,0,240,234,1,239,,,,,,,,,,,,,,,,,,
,,1,158,,,,,,,3,6,4,stim/64.jpeg,Instruments,1,stim/objects/Instruments/tuba2.png,0.9,2,0.2,0.15,left,33,2020-12-19_11h35.04.912,premup-three_ses-01_part-01_label-phase1,3.2.4,MacIntel,60,left,0.632000208,4,0,4,0,1,3,1,0,240,211,1,239,,,,,,,,,,,,,,,,,,
,,1,159,,,,,,,3,5,4,stim/54.jpeg,HouseObjects,2,stim/objects/HouseObjects/sponge2.png,0.9,2,0.2,0.15,right,33,2020-12-19_11h35.04.912,premup-three_ses-01_part-01_label-phase1,3.2.4,MacIntel,60,right,1.250000238,4,0,4,0,1,3,1,0,240,195,1,239,,,,,,,,,,,,,,,,,,
,,1,160,,,,,,,2,3,2,stim/32.jpeg,HouseObjects,2,stim/objects/HouseObjects/teapot.png,0.7,1,-0.2,0.15,right,33,2020-12-19_11h35.04.912,premup-three_ses-01_part-01_label-phase1,3.2.4,MacIntel,60,right,0.64800024,4,0,4,0,1,3,1,0,240,117,1,239,,,,,,,,,,,,,,,,,,
,,1,161,,,,,,,2,4,3,stim/43.jpeg,Instruments,1,stim/objects/Instruments/record2.png,0.7,3,-0.2,-0.15,left,33,2020-12-19_11h35.04.912,premup-three_ses-01_part-01_label-phase1,3.2.4,MacIntel,60,left,0.980000257,4,0,4,0,1,3,1,0,240,126,1,239,,,,,,,,,,,,,,,,,,
,,1,162,,,,,,,3,6,4,stim/64.jpeg,Instruments,1,stim/objects/Instruments/tuba2.png,0.9,3,-0.2,-0.15,left,33,2020-12-19_11h35.04.912,premup-three_ses-01_part-01_label-phase1,3.2.4,MacIntel,60,left,0.776000023,4,0,4,0,1,3,1,0,240,231,1,239,,,,,,,,,,,,,,,,,,
,,1,163,,,,,,,3,5,1,stim/51.jpeg,HouseObjects,2,stim/objects/HouseObjects/safetypin2.png,0.9,1,-0.2,0.15,right,33,2020-12-19_11h35.04.912,premup-three_ses-01_part-01_label-phase1,3.2.4,MacIntel,60,right,0.646000147,4,0,4,0,1,3,1,0,240,192,1,239,,,,,,,,,,,,,,,,,,
,,0,164,,,,,,,2,3,4,stim/34.jpeg,Instruments,1,stim/objects/Instruments/tuba.png,0.3,3,-0.2,-0.15,left,33,2020-12-19_11h35.04.912,premup-three_ses-01_part-01_label-phase1,3.2.4,MacIntel,60,right,0.746000051,4,0,4,0,1,3,1,0,240,91,1,239,,,,,,,,,,,,,,,,,,
,,1,165,,,,,,,2,4,3,stim/43.jpeg,Instruments,1,stim/objects/Instruments/record2.png,0.7,1,-0.2,0.15,left,33,2020-12-19_11h35.04.912,premup-three_ses-01_part-01_label-phase1,3.2.4,MacIntel,60,left,0.748000145,4,0,4,0,1,3,1,0,240,146,1,239,,,,,,,,,,,,,,,,,,
,,1,166,,,,,,,3,5,2,stim/52.jpeg,HouseObjects,2,stim/objects/HouseObjects/saw2.png,0.9,2,0.2,0.15,right,33,2020-12-19_11h35.04.912,premup-three_ses-01_part-01_label-phase1,3.2.4,MacIntel,60,right,0.646000147,4,0,4,0,1,3,1,0,240,185,1,239,,,,,,,,,,,,,,,,,,
,,0,167,,,,,,,2,4,4,stim/44.jpeg,HouseObjects,2,stim/objects/HouseObjects/rug2.png,0.3,1,-0.2,0.15,right,33,2020-12-19_11h35.04.912,premup-three_ses-01_part-01_label-phase1,3.2.4,MacIntel,60,left,0.859000206,4,0,4,0,1,3,1,0,240,159,1,239,,,,,,,,,,,,,,,,,,
,,0,168,,,,,,,2,4,2,stim/42.jpeg,HouseObjects,2,stim/objects/HouseObjects/remote2.png,0.3,2,0.2,0.15,right,33,2020-12-19_11h35.04.912,premup-three_ses-01_part-01_label-phase1,3.2.4,MacIntel,60,left,0.974000216,4,0,4,0,1,3,1,0,240,157,1,239,,,,,,,,,,,,,,,,,,
,,1,169,,,,,,,3,5,3,stim/53.jpeg,HouseObjects,2,stim/objects/HouseObjects/scale2.png,0.9,2,0.2,0.15,right,33,2020-12-19_11h35.04.912,premup-three_ses-01_part-01_label-phase1,3.2.4,MacIntel,60,right,0.674999952,4,0,4,0,1,3,1,0,240,186,1,239,,,,,,,,,,,,,,,,,,
,,1,170,,,,,,,1,1,4,stim/14.jpeg,HouseObjects,2,stim/objects/HouseObjects/rug.png,0.5,2,0.2,0.15,right,33,2020-12-19_11h35.04.912,premup-three_ses-01_part-01_label-phase1,3.2.4,MacIntel,60,right,1.083000183,4,0,4,0,1,3,1,0,240,23,1,239,,,,,,,,,,,,,,,,,,
,,0,171,,,,,,,1,2,1,stim/21.jpeg,HouseObjects,2,stim/objects/HouseObjects/safetypin.png,0.5,4,0.2,-0.15,right,33,2020-12-19_11h35.04.912,premup-three_ses-01_part-01_label-phase1,3.2.4,MacIntel,60,left,1.142000198,4,0,4,0,1,3,1,0,240,72,1,239,,,,,,,,,,,,,,,,,,
,,0,172,,,,,,,1,2,3,stim/23.jpeg,HouseObjects,2,stim/objects/HouseObjects/scale.png,0.5,4,0.2,-0.15,right,33,2020-12-19_11h35.04.912,premup-three_ses-01_part-01_label-phase1,3.2.4,MacIntel,60,left,0.967000246,4,0,4,0,1,3,1,0,240,66,1,239,,,,,,,,,,,,,,,,,,
,,0,173,,,,,,,2,3,3,stim/33.jpeg,Instruments,1,stim/objects/Instruments/trumpet.png,0.3,3,-0.2,-0.15,left,33,2020-12-19_11h35.04.912,premup-three_ses-01_part-01_label-phase1,3.2.4,MacIntel,60,right,0.977000237,4,0,4,0,1,3,1,0,240,82,1,239,,,,,,,,,,,,,,,,,,
,,1,174,,,,,,,3,6,3,stim/63.jpeg,Instruments,1,stim/objects/Instruments/trumpet2.png,0.9,3,-0.2,-0.15,left,33,2020-12-19_11h35.04.912,premup-three_ses-01_part-01_label-phase1,3.2.4,MacIntel,60,left,0.775000095,4,0,4,0,1,3,1,0,240,218,1,239,,,,,,,,,,,,,,,,,,
,,1,175,,,,,,,3,5,2,stim/52.jpeg,HouseObjects,2,stim/objects/HouseObjects/saw2.png,0.9,4,0.2,-0.15,right,33,2020-12-19_11h35.04.912,premup-three_ses-01_part-01_label-phase1,3.2.4,MacIntel,60,right,0.669000149,4,0,4,0,1,3,1,0,240,181,1,239,,,,,,,,,,,,,,,,,,
,,0,176,,,,,,,2,4,3,stim/43.jpeg,HouseObjects,2,stim/objects/HouseObjects/rubbergloves2.png,0.3,4,0.2,-0.15,right,33,2020-12-19_11h35.04.912,premup-three_ses-01_part-01_label-phase1,3.2.4,MacIntel,60,left,0.925000191,4,0,4,0,1,3,1,0,240,158,1,239,,,,,,,,,,,,,,,,,,
,,1,177,,,,,,,3,5,2,stim/52.jpeg,HouseObjects,2,stim/objects/HouseObjects/saw2.png,0.9,4,0.2,-0.15,right,33,2020-12-19_11h35.04.912,premup-three_ses-01_part-01_label-phase1,3.2.4,MacIntel,60,right,0.68200016,4,0,4,0,1,3,1,0,240,169,1,239,,,,,,,,,,,,,,,,,,
,,1,178,,,,,,,2,4,3,stim/43.jpeg,Instruments,1,stim/objects/Instruments/record2.png,0.7,3,-0.2,-0.15,left,33,2020-12-19_11h35.04.912,premup-three_ses-01_part-01_label-phase1,3.2.4,MacIntel,60,left,1.013000011,4,0,4,0,1,3,1,0,240,122,1,239,,,,,,,,,,,,,,,,,,
,,1,179,,,,,,,2,3,3,stim/33.jpeg,HouseObjects,2,stim/objects/HouseObjects/thermometer.png,0.7,4,0.2,-0.15,right,33,2020-12-19_11h35.04.912,premup-three_ses-01_part-01_label-phase1,3.2.4,MacIntel,60,right,0.626000166,4,0,4,0,1,3,1,0,240,102,1,239,,,,,,,,,,,,,,,,,,
,,1,180,,,,,,,2,3,4,stim/34.jpeg,HouseObjects,2,stim/objects/HouseObjects/thread.png,0.7,4,0.2,-0.15,right,33,2020-12-19_11h35.04.912,premup-three_ses-01_part-01_label-phase1,3.2.4,MacIntel,60,right,0.597000122,4,0,4,0,1,3,1,0,240,95,1,239,,,,,,,,,,,,,,,,,,
,,0,181,,,,,,,2,4,3,stim/43.jpeg,HouseObjects,2,stim/objects/HouseObjects/rubbergloves2.png,0.3,3,-0.2,-0.15,right,33,2020-12-19_11h35.04.912,premup-three_ses-01_part-01_label-phase1,3.2.4,MacIntel,60,left,0.64800024,4,0,4,0,1,3,1,0,240,150,1,239,,,,,,,,,,,,,,,,,,
,,0,182,,,,,,,2,4,1,stim/41.jpeg,Instruments,1,stim/objects/Instruments/panflute2.png,0.7,2,0.2,0.15,left,33,2020-12-19_11h35.04.912,premup-three_ses-01_part-01_label-phase1,3.2.4,MacIntel,60,,,4,0,4,0,1,3,1,0,240,120,1,239,,,,,,,,,,,,,,,,,,
,,0,183,,,,,,,1,2,1,stim/21.jpeg,Instruments,1,stim/objects/Instruments/saxophone.png,0.5,4,0.2,-0.15,left,33,2020-12-19_11h35.04.912,premup-three_ses-01_part-01_label-phase1,3.2.4,MacIntel,60,right,0.482000351,4,0,4,0,1,3,1,0,240,52,1,239,,,,,,,,,,,,,,,,,,
,,1,184,,,,,,,2,4,1,stim/41.jpeg,Instruments,1,stim/objects/Instruments/panflute2.png,0.7,1,-0.2,0.15,left,33,2020-12-19_11h35.04.912,premup-three_ses-01_part-01_label-phase1,3.2.4,MacIntel,60,left,0.667000294,4,0,4,0,1,3,1,0,240,124,1,239,,,,,,,,,,,,,,,,,,
,,1,185,,,,,,,3,6,3,stim/63.jpeg,Instruments,1,stim/objects/Instruments/trumpet2.png,0.9,2,0.2,0.15,left,33,2020-12-19_11h35.04.912,premup-three_ses-01_part-01_label-phase1,3.2.4,MacIntel,60,left,0.668000221,4,0,4,0,1,3,1,0,240,226,1,239,,,,,,,,,,,,,,,,,,
,,1,186,,,,,,,3,6,2,stim/62.jpeg,Instruments,1,stim/objects/Instruments/trombone2.png,0.9,1,-0.2,0.15,left,33,2020-12-19_11h35.04.912,premup-three_ses-01_part-01_label-phase1,3.2.4,MacIntel,60,left,0.536000013,4,0,4,0,1,3,1,0,240,221,1,239,,,,,,,,,,,,,,,,,,
,,0,187,,,,,,,1,2,4,stim/24.jpeg,Instruments,1,stim/objects/Instruments/timbal.png,0.5,1,-0.2,0.15,left,33,2020-12-19_11h35.04.912,premup-three_ses-01_part-01_label-phase1,3.2.4,MacIntel,60,right,0.752000093,4,0,4,0,1,3,1,0,240,59,1,239,,,,,,,,,,,,,,,,,,
,,0,188,,,,,,,2,3,3,stim/33.jpeg,Instruments,1,stim/objects/Instruments/trumpet.png,0.3,4,0.2,-0.15,left,33,2020-12-19_11h35.04.912,premup-three_ses-01_part-01_label-phase1,3.2.4,MacIntel,60,right,1.04700017,4,0,4,0,1,3,1,0,240,90,1,239,,,,,,,,,,,,,,,,,,
,,1,189,,,,,,,3,5,1,stim/51.jpeg,HouseObjects,2,stim/objects/HouseObjects/safetypin2.png,0.9,2,0.2,0.15,right,33,2020-12-19_11h35.04.912,premup-three_ses-01_part-01_label-phase1,3.2.4,MacIntel,60,right,0.679000139,4,0,4,0,1,3,1,0,240,164,1,239,,,,,,,,,,,,,,,,,,
,,0,190,,,,,,,1,2,4,stim/24.jpeg,HouseObjects,2,stim/objects/HouseObjects/sponge.png,0.5,2,0.2,0.15,right,33,2020-12-19_11h35.04.912,premup-three_ses-01_part-01_label-phase1,3.2.4,MacIntel,60,left,1.348000288,4,0,4,0,1,3,1,0,240,71,1,239,,,,,,,,,,,,,,,,,,
,,0,191,,,,,,,1,1,1,stim/11.jpeg,HouseObjects,2,stim/objects/HouseObjects/recyclingbin.png,0.5,3,-0.2,-0.15,right,33,2020-12-19_11h35.04.912,premup-three_ses-01_part-01_label-phase1,3.2.4,MacIntel,60,left,0.889000177,4,0,4,0,1,3,1,0,240,20,1,239,,,,,,,,,,,,,,,,,,
,,1,192,,,,,,,2,4,4,stim/44.jpeg,HouseObjects,2,stim/objects/HouseObjects/rug2.png,0.3,2,0.2,0.15,right,33,2020-12-19_11h35.04.912,premup-three_ses-01_part-01_label-phase1,3.2.4,MacIntel,60,right,0.986000299,4,0,4,0,1,3,1,0,240,155,1,239,,,,,,,,,,,,,,,,,,
,,1,193,,,,,,,3,5,4,stim/54.jpeg,HouseObjects,2,stim/objects/HouseObjects/sponge2.png,0.9,3,-0.2,-0.15,right,33,2020-12-19_11h35.04.912,premup-three_ses-01_part-01_label-phase1,3.2.4,MacIntel,60,right,0.842000246,4,0,4,0,1,3,1,0,240,179,1,239,,,,,,,,,,,,,,,,,,
,,0,194,,,,,,,3,6,2,stim/62.jpeg,HouseObjects,2,stim/objects/HouseObjects/teapot2.png,0.1,1,-0.2,0.15,right,33,2020-12-19_11h35.04.912,premup-three_ses-01_part-01_label-phase1,3.2.4,MacIntel,60,left,0.666000128,4,0,4,0,1,3,1,0,240,237,1,239,,,,,,,,,,,,,,,,,,
,,0,195,,,,,,,3,6,2,stim/62.jpeg,Instruments,1,stim/objects/Instruments/trombone2.png,0.9,1,-0.2,0.15,left,33,2020-12-19_11h35.04.912,premup-three_ses-01_part-01_label-phase1,3.2.4,MacIntel,60,right,1.203000307,4,0,4,0,1,3,1,0,240,205,1,239,,,,,,,,,,,,,,,,,,
,,0,196,,,,,,,1,1,4,stim/14.jpeg,HouseObjects,2,stim/objects/HouseObjects/rug.png,0.5,1,-0.2,0.15,right,33,2020-12-19_11h35.04.912,premup-three_ses-01_part-01_label-phase1,3.2.4,MacIntel,60,,,4,0,4,0,1,3,1,0,240,39,1,239,,,,,,,,,,,,,,,,,,
,,0,197,,,,,,,3,6,1,stim/61.jpeg,Instruments,1,stim/objects/Instruments/triangle2.png,0.9,3,-0.2,-0.15,left,33,2020-12-19_11h35.04.912,premup-three_ses-01_part-01_label-phase1,3.2.4,MacIntel,60,right,0.9150002,4,0,4,0,1,3,1,0,240,212,1,239,,,,,,,,,,,,,,,,,,
,,1,198,,,,,,,2,4,3,stim/43.jpeg,Instruments,1,stim/objects/Instruments/record2.png,0.7,1,-0.2,0.15,left,33,2020-12-19_11h35.04.912,premup-three_ses-01_part-01_label-phase1,3.2.4,MacIntel,60,left,0.751000166,4,0,4,0,1,3,1,0,240,134,1,239,,,,,,,,,,,,,,,,,,
,,1,199,,,,,,,2,3,2,stim/32.jpeg,HouseObjects,2,stim/objects/HouseObjects/teapot.png,0.7,1,-0.2,0.15,right,33,2020-12-19_11h35.04.912,premup-three_ses-01_part-01_label-phase1,3.2.4,MacIntel,60,right,1.525000095,4,0,4,0,1,3,1,0,240,93,1,239,,,,,,,,,,,,,,,,,,
,,1,200,,,,,,,2,4,2,stim/42.jpeg,Instruments,1,stim/objects/Instruments/pipepiano2.png,0.7,4,0.2,-0.15,left,33,2020-12-19_11h35.04.912,premup-three_ses-01_part-01_label-phase1,3.2.4,MacIntel,60,left,0.913000107,4,0,4,0,1,3,1,0,240,125,1,239,,,,,,,,,,,,,,,,,,
,,1,201,,,,,,,3,5,4,stim/54.jpeg,HouseObjects,2,stim/objects/HouseObjects/sponge2.png,0.9,1,-0.2,0.15,right,33,2020-12-19_11h35.04.912,premup-three_ses-01_part-01_label-phase1,3.2.4,MacIntel,60,right,0.753999949,4,0,4,0,1,3,1,0,240,183,1,239,,,,,,,,,,,,,,,,,,
,,0,202,,,,,,,1,2,1,stim/21.jpeg,Instruments,1,stim/objects/Instruments/saxophone.png,0.5,2,0.2,0.15,left,33,2020-12-19_11h35.04.912,premup-three_ses-01_part-01_label-phase1,3.2.4,MacIntel,60,right,1.053000212,4,0,4,0,1,3,1,0,240,40,1,239,,,,,,,,,,,,,,,,,,
,,0,203,,,,,,,1,1,2,stim/12.jpeg,HouseObjects,2,stim/objects/HouseObjects/remote.png,0.5,3,-0.2,-0.15,right,33,2020-12-19_11h35.04.912,premup-three_ses-01_part-01_label-phase1,3.2.4,MacIntel,60,left,0.963000298,4,0,4,0,1,3,1,0,240,37,1,239,,,,,,,,,,,,,,,,,,
,,1,204,,,,,,,3,6,3,stim/63.jpeg,Instruments,1,stim/objects/Instruments/trumpet2.png,0.9,1,-0.2,0.15,left,33,2020-12-19_11h35.04.912,premup-three_ses-01_part-01_label-phase1,3.2.4,MacIntel,60,left,0.617000341,4,0,4,0,1,3,1,0,240,222,1,239,,,,,,,,,,,,,,,,,,
,,1,205,,,,,,,1,2,3,stim/23.jpeg,HouseObjects,2,stim/objects/HouseObjects/scale.png,0.5,1,-0.2,0.15,right,33,2020-12-19_11h35.04.912,premup-three_ses-01_part-01_label-phase1,3.2.4,MacIntel,60,right,0.746000051,4,0,4,0,1,3,1,0,240,78,1,239,,,,,,,,,,,,,,,,,,
,,1,206,,,,,,,3,6,3,stim/63.jpeg,Instruments,1,stim/objects/Instruments/trumpet2.png,0.9,2,0.2,0.15,left,33,2020-12-19_11h35.04.912,premup-three_ses-01_part-01_label-phase1,3.2.4,MacIntel,60,left,0.70200038,4,0,4,0,1,3,1,0,240,214,1,239,,,,,,,,,,,,,,,,,,
,,0,207,,,,,,,2,3,1,stim/31.jpeg,Instruments,1,stim/objects/Instruments/triangle.png,0.3,2,0.2,0.15,left,33,2020-12-19_11h35.04.912,premup-three_ses-01_part-01_label-phase1,3.2.4,MacIntel,60,right,1.323000193,4,0,4,0,1,3,1,0,240,84,1,239,,,,,,,,,,,,,,,,,,
,,0,208,,,,,,,1,2,3,stim/23.jpeg,Instruments,1,stim/objects/Instruments/tambourine.png,0.5,4,0.2,-0.15,left,33,2020-12-19_11h35.04.912,premup-three_ses-01_part-01_label-phase1,3.2.4,MacIntel,60,right,0.713000059,4,0,4,0,1,3,1,0,240,50,1,239,,,,,,,,,,,,,,,,,,
,,0,209,,,,,,,3,5,2,stim/52.jpeg,Instruments,1,stim/objects/Instruments/speaker2.png,0.1,3,-0.2,-0.15,left,33,2020-12-19_11h35.04.912,premup-three_ses-01_part-01_label-phase1,3.2.4,MacIntel,60,right,0.676000118,4,0,4,0,1,3,1,0,240,161,1,239,,,,,,,,,,,,,,,,,,
,,1,210,,,,,,,1,2,4,stim/24.jpeg,HouseObjects,2,stim/objects/HouseObjects/sponge.png,0.5,2,0.2,0.15,right,33,2020-12-19_11h35.04.912,premup-three_ses-01_part-01_label-phase1,3.2.4,MacIntel,60,right,1.433000326,4,0,4,0,1,3,1,0,240,79,1,239,,,,,,,,,,,,,,,,,,
,,1,211,,,,,,,3,5,3,stim/53.jpeg,HouseObjects,2,stim/objects/HouseObjects/scale2.png,0.9,2,0.2,0.15,right,33,2020-12-19_11h35.04.912,premup-three_ses-01_part-01_label-phase1,3.2.4,MacIntel,60,right,0.85800004,4,0,4,0,1,3,1,0,240,166,1,239,,,,,,,,,,,,,,,,,,
,,1,212,,,,,,,1,1,2,stim/12.jpeg,HouseObjects,2,stim/objects/HouseObjects/remote.png,0.5,2,0.2,0.15,right,33,2020-12-19_11h35.04.912,premup-three_ses-01_part-01_label-phase1,3.2.4,MacIntel,60,right,1.419000149,4,0,4,0,1,3,1,0,240,33,1,239,,,,,,,,,,,,,,,,,,
,,0,213,,,,,,,1,2,2,stim/22.jpeg,Instruments,1,stim/objects/Instruments/speaker.png,0.5,1,-0.2,0.15,left,33,2020-12-19_11h35.04.912,premup-three_ses-01_part-01_label-phase1,3.2.4,MacIntel,60,right,0.810000181,4,0,4,0,1,3,1,0,240,57,1,239,,,,,,,,,,,,,,,,,,
,,1,214,,,,,,,3,6,2,stim/62.jpeg,Instruments,1,stim/objects/Instruments/trombone2.png,0.9,1,-0.2,0.15,left,33,2020-12-19_11h35.04.912,premup-three_ses-01_part-01_label-phase1,3.2.4,MacIntel,60,left,0.683000088,4,0,4,0,1,3,1,0,240,217,1,239,,,,,,,,,,,,,,,,,,
,,1,215,,,,,,,3,5,1,stim/51.jpeg,HouseObjects,2,stim/objects/HouseObjects/safetypin2.png,0.9,3,-0.2,-0.15,right,33,2020-12-19_11h35.04.912,premup-three_ses-01_part-01_label-phase1,3.2.4,MacIntel,60,right,0.784000158,4,0,4,0,1,3,1,0,240,172,1,239,,,,,,,,,,,,,,,,,,
,,1,216,,,,,,,2,3,4,stim/34.jpeg,HouseObjects,2,stim/objects/HouseObjects/thread.png,0.7,4,0.2,-0.15,right,33,2020-12-19_11h35.04.912,premup-three_ses-01_part-01_label-phase1,3.2.4,MacIntel,60,right,0.781000137,4,0,4,0,1,3,1,0,240,99,1,239,,,,,,,,,,,,,,,,,,
,,0,217,,,,,,,2,4,4,stim/44.jpeg,Instruments,1,stim/objects/Instruments/record_player2.png,0.7,4,0.2,-0.15,left,33,2020-12-19_11h35.04.912,premup-three_ses-01_part-01_label-phase1,3.2.4,MacIntel,60,right,0.736000061,4,0,4,0,1,3,1,0,240,135,1,239,,,,,,,,,,,,,,,,,,
,,0,218,,,,,,,1,1,2,stim/12.jpeg,Instruments,1,stim/objects/Instruments/pipepiano.png,0.5,4,0.2,-0.15,left,33,2020-12-19_11h35.04.912,premup-three_ses-01_part-01_label-phase1,3.2.4,MacIntel,60,right,1.078000069,4,0,4,0,1,3,1,0,240,17,1,239,,,,,,,,,,,,,,,,,,
,,1,219,,,,,,,2,4,2,stim/42.jpeg,Instruments,1,stim/objects/Instruments/pipepiano2.png,0.7,1,-0.2,0.15,left,33,2020-12-19_11h35.04.912,premup-three_ses-01_part-01_label-phase1,3.2.4,MacIntel,60,left,1.464000225,4,0,4,0,1,3,1,0,240,133,1,239,,,,,,,,,,,,,,,,,,
,,0,220,,,,,,,1,1,1,stim/11.jpeg,HouseObjects,2,stim/objects/HouseObjects/recyclingbin.png,0.5,2,0.2,0.15,right,33,2020-12-19_11h35.04.912,premup-three_ses-01_part-01_label-phase1,3.2.4,MacIntel,60,left,1.482000113,4,0,4,0,1,3,1,0,240,36,1,239,,,,,,,,,,,,,,,,,,
,,0,221,,,,,,,2,4,3,stim/43.jpeg,HouseObjects,2,stim/objects/HouseObjects/rubbergloves2.png,0.3,4,0.2,-0.15,right,33,2020-12-19_11h35.04.912,premup-three_ses-01_part-01_label-phase1,3.2.4,MacIntel,60,left,1.014000177,4,0,4,0,1,3,1,0,240,154,1,239,,,,,,,,,,,,,,,,,,
,,0,222,,,,,,,1,2,2,stim/22.jpeg,Instruments,1,stim/objects/Instruments/speaker.png,0.5,1,-0.2,0.15,left,33,2020-12-19_11h35.04.912,premup-three_ses-01_part-01_label-phase1,3.2.4,MacIntel,60,right,0.611000061,4,0,4,0,1,3,1,0,240,45,1,239,,,,,,,,,,,,,,,,,,
,,0,223,,,,,,,2,4,1,stim/41.jpeg,Instruments,1,stim/objects/Instruments/panflute2.png,0.7,3,-0.2,-0.15,left,33,2020-12-19_11h35.04.912,premup-three_ses-01_part-01_label-phase1,3.2.4,MacIntel,60,right,1.477000237,4,0,4,0,1,3,1,0,240,136,1,239,,,,,,,,,,,,,,,,,,
,,1,224,,,,,,,1,2,3,stim/23.jpeg,HouseObjects,2,stim/objects/HouseObjects/scale.png,0.5,3,-0.2,-0.15,right,33,2020-12-19_11h35.04.912,premup-three_ses-01_part-01_label-phase1,3.2.4,MacIntel,60,right,0.833000183,4,0,4,0,1,3,1,0,240,62,1,239,,,,,,,,,,,,,,,,,,
,,1,225,,,,,,,1,1,4,stim/14.jpeg,Instruments,1,stim/objects/Instruments/record_player.png,0.5,4,0.2,-0.15,left,33,2020-12-19_11h35.04.912,premup-three_ses-01_part-01_label-phase1,3.2.4,MacIntel,60,left,0.995000124,4,0,4,0,1,3,1,0,240,7,1,239,,,,,,,,,,,,,,,,,,
,,1,226,,,,,,,3,6,4,stim/64.jpeg,Instruments,1,stim/objects/Instruments/tuba2.png,0.9,4,0.2,-0.15,left,33,2020-12-19_11h35.04.912,premup-three_ses-01_part-01_label-phase1,3.2.4,MacIntel,60,left,0.786000013,4,0,4,0,1,3,1,0,240,207,1,239,,,,,,,,,,,,,,,,,,
,,1,227,,,,,,,3,5,2,stim/52.jpeg,HouseObjects,2,stim/objects/HouseObjects/saw2.png,0.9,2,0.2,0.15,right,33,2020-12-19_11h35.04.912,premup-three_ses-01_part-01_label-phase1,3.2.4,MacIntel,60,right,0.732000113,4,0,4,0,1,3,1,0,240,165,1,239,,,,,,,,,,,,,,,,,,
,,0,228,,,,,,,1,2,1,stim/21.jpeg,Instruments,1,stim/objects/Instruments/saxophone.png,0.5,3,-0.2,-0.15,left,33,2020-12-19_11h35.04.912,premup-three_ses-01_part-01_label-phase1,3.2.4,MacIntel,60,right,0.670000076,4,0,4,0,1,3,1,0,240,48,1,239,,,,,,,,,,,,,,,,,,
,,0,229,,,,,,,1,1,3,stim/13.jpeg,HouseObjects,2,stim/objects/HouseObjects/rubbergloves.png,0.5,1,-0.2,0.15,right,33,2020-12-19_11h35.04.912,premup-three_ses-01_part-01_label-phase1,3.2.4,MacIntel,60,left,1.402000189,4,0,4,0,1,3,1,0,240,22,1,239,,,,,,,,,,,,,,,,,,
,,1,230,,,,,,,3,5,3,stim/53.jpeg,HouseObjects,2,stim/objects/HouseObjects/scale2.png,0.9,1,-0.2,0.15,right,33,2020-12-19_11h35.04.912,premup-three_ses-01_part-01_label-phase1,3.2.4,MacIntel,60,right,0.801000357,4,0,4,0,1,3,1,0,240,198,1,239,,,,,,,,,,,,,,,,,,
,,1,231,,,,,,,3,6,1,stim/61.jpeg,Instruments,1,stim/objects/Instruments/triangle2.png,0.9,2,0.2,0.15,left,33,2020-12-19_11h35.04.912,premup-three_ses-01_part-01_label-phase1,3.2.4,MacIntel,60,left,0.690000296,4,0,4,0,1,3,1,0,240,208,1,239,,,,,,,,,,,,,,,,,,
,,0,232,,,,,,,2,3,2,stim/32.jpeg,Instruments,1,stim/objects/Instruments/trombone.png,0.3,2,0.2,0.15,left,33,2020-12-19_11h35.04.912,premup-three_ses-01_part-01_label-phase1,3.2.4,MacIntel,60,,,4,0,4,0,1,3,1,0,240,85,1,239,,,,,,,,,,,,,,,,,,
,,1,233,,,,,,,3,5,3,stim/53.jpeg,HouseObjects,2,stim/objects/HouseObjects/scale2.png,0.9,1,-0.2,0.15,right,33,2020-12-19_11h35.04.912,premup-three_ses-01_part-01_label-phase1,3.2.4,MacIntel,60,right,0.703000069,4,0,4,0,1,3,1,0,240,182,1,239,,,,,,,,,,,,,,,,,,
,,1,234,,,,,,,2,4,2,stim/42.jpeg,Instruments,1,stim/objects/Instruments/pipepiano2.png,0.7,4,0.2,-0.15,left,33,2020-12-19_11h35.04.912,premup-three_ses-01_part-01_label-phase1,3.2.4,MacIntel,60,left,0.671000242,4,0,4,0,1,3,1,0,240,145,1,239,,,,,,,,,,,,,,,,,,
,,1,235,,,,,,,3,5,2,stim/52.jpeg,HouseObjects,2,stim/objects/HouseObjects/saw2.png,0.9,2,0.2,0.15,right,33,2020-12-19_11h35.04.912,premup-three_ses-01_part-01_label-phase1,3.2.4,MacIntel,60,right,0.739000082,4,0,4,0,1,3,1,0,240,197,1,239,,,,,,,,,,,,,,,,,,
,,1,236,,,,,,,3,6,4,stim/64.jpeg,Instruments,1,stim/objects/Instruments/tuba2.png,0.9,3,-0.2,-0.15,left,33,2020-12-19_11h35.04.912,premup-three_ses-01_part-01_label-phase1,3.2.4,MacIntel,60,left,0.79700017,4,0,4,0,1,3,1,0,240,227,1,239,,,,,,,,,,,,,,,,,,
,,1,237,,,,,,,2,3,4,stim/34.jpeg,HouseObjects,2,stim/objects/HouseObjects/thread.png,0.7,4,0.2,-0.15,right,33,2020-12-19_11h35.04.912,premup-three_ses-01_part-01_label-phase1,3.2.4,MacIntel,60,right,1.205000162,4,0,4,0,1,3,1,0,240,115,1,239,,,,,,,,,,,,,,,,,,
,,1,238,,,,,,,3,6,4,stim/64.jpeg,Instruments,1,stim/objects/Instruments/tuba2.png,0.9,2,0.2,0.15,left,33,2020-12-19_11h35.04.912,premup-three_ses-01_part-01_label-phase1,3.2.4,MacIntel,60,left,0.589000225,4,0,4,0,1,3,1,0,240,223,1,239,,,,,,,,,,,,,,,,,,
,,0,239,,,,,,,3,5,4,stim/54.jpeg,Instruments,1,stim/objects/Instruments/timbal2.png,0.1,1,-0.2,0.15,left,33,2020-12-19_11h35.04.912,premup-three_ses-01_part-01_label-phase1,3.2.4,MacIntel,60,right,0.748000145,4,0,4,0,1,3,1,0,240,163,1,239,,,,,,,,,,,,,,,,,,
,,1,240,,,,,,,3,6,3,stim/63.jpeg,Instruments,1,stim/objects/Instruments/trumpet2.png,0.9,4,0.2,-0.15,left,33,2020-12-19_11h35.04.912,premup-three_ses-01_part-01_label-phase1,3.2.4,MacIntel,60,left,0.820000172,4,0,4,0,1,3,1,0,240,202,1,239,,,,,,,,,,,,,,,,,,
,,,,,,,,,,,1,,stim/11.jpeg,,,,,,,,,33,2020-12-19_11h35.04.912,premup-three_ses-01_part-01_label-phase1,3.2.4,MacIntel,60,,,4,0,4,0,1,3,,,,,,,1,0,30,11.71099997,,,1,0,6,0,1,5,Music items,45,55,Household items,45,55
,,,,,,,,,,,6,,stim/61.jpeg,,,,,,,,,33,2020-12-19_11h35.04.912,premup-three_ses-01_part-01_label-phase1,3.2.4,MacIntel,60,,,4,0,4,0,1,3,,,,,,,1,0,90,6.080999851,,,1,0,6,5,1,5,Music items,5,15,Household items,85,95
,,,,,,,,,,,5,,stim/51.jpeg,,,,,,,,,33,2020-12-19_11h35.04.912,premup-three_ses-01_part-01_label-phase1,3.2.4,MacIntel,60,,,4,0,4,0,1,3,,,,,,,1,0,80,4.882999897,,,1,0,6,4,1,5,Household items,5,15,Music items,85,95
,,,,,,,,,,,4,,stim/41.jpeg,,,,,,,,,33,2020-12-19_11h35.04.912,premup-three_ses-01_part-01_label-phase1,3.2.4,MacIntel,60,,,4,0,4,0,1,3,,,,,,,1,0,50,3.061000109,,,1,0,6,3,1,5,Music items,65,75,Household items,25,35
,,,,,,,,,,,2,,stim/21.jpeg,,,,,,,,,33,2020-12-19_11h35.04.912,premup-three_ses-01_part-01_label-phase1,3.2.4,MacIntel,60,,,4,0,4,0,1,3,,,,,,,1,1,50,3.128999949,,,1,0,6,1,1,5,Household items,45,55,Music items,45,55
,,,,,,,,,,,3,,stim/31.jpeg,,,,,,,,,33,2020-12-19_11h35.04.912,premup-three_ses-01_part-01_label-phase1,3.2.4,MacIntel,60,,,4,0,4,0,1,3,,,,,,,1,1,40,5.046999931,,,1,0,6,2,1,5,Music items,65,75,Household items,25,35
,,,,,,,,,,,,,,,,,,,,,,33,2020-12-19_11h35.04.912,premup-three_ses-01_part-01_label-phase1,3.2.4,MacIntel,60,,,4,0,4,0,1,3,,,,,,,,,,,,,,,,,,,,,,,,
,,1,1,,,,,,,3,6,3,stim/63.jpeg,Instruments,1,stim/objects/Instruments/trumpet2.png,0.9,2,0.2,0.15,left,33,2020-12-19_11h35.04.912,premup-three_ses-01_part-01_label-phase1,3.2.4,MacIntel,60,left,1.812000036,4,0,4,0,1,3,1,0,240,214,1,239,,,,,,,,,,,,,,,,,,
,,1,2,,,,,,,2,4,4,stim/44.jpeg,Instruments,1,stim/objects/Instruments/record_player2.png,0.7,3,-0.2,-0.15,left,33,2020-12-19_11h35.04.912,premup-three_ses-01_part-01_label-phase1,3.2.4,MacIntel,60,left,0.935000181,4,0,4,0,1,3,1,0,240,123,1,239,,,,,,,,,,,,,,,,,,
,,0,3,,,,,,,1,1,1,stim/11.jpeg,HouseObjects,2,stim/objects/HouseObjects/recyclingbin.png,0.5,3,-0.2,-0.15,right,33,2020-12-19_11h35.04.912,premup-three_ses-01_part-01_label-phase1,3.2.4,MacIntel,60,left,1.367000103,4,0,4,0,1,3,1,0,240,20,1,239,,,,,,,,,,,,,,,,,,
,,1,4,,,,,,,3,6,3,stim/63.jpeg,Instruments,1,stim/objects/Instruments/trumpet2.png,0.9,3,-0.2,-0.15,left,33,2020-12-19_11h35.04.912,premup-three_ses-01_part-01_label-phase1,3.2.4,MacIntel,60,left,0.71200037,4,0,4,0,1,3,1,0,240,218,1,239,,,,,,,,,,,,,,,,,,
,,0,5,,,,,,,2,4,3,stim/43.jpeg,HouseObjects,2,stim/objects/HouseObjects/rubbergloves2.png,0.3,4,0.2,-0.15,right,33,2020-12-19_11h35.04.912,premup-three_ses-01_part-01_label-phase1,3.2.4,MacIntel,60,left,1.193000078,4,0,4,0,1,3,1,0,240,154,1,239,,,,,,,,,,,,,,,,,,
,,1,6,,,,,,,3,5,4,stim/54.jpeg,HouseObjects,2,stim/objects/HouseObjects/sponge2.png,0.9,1,-0.2,0.15,right,33,2020-12-19_11h35.04.912,premup-three_ses-01_part-01_label-phase1,3.2.4,MacIntel,60,right,0.659000158,4,0,4,0,1,3,1,0,240,187,1,239,,,,,,,,,,,,,,,,,,
,,1,7,,,,,,,2,3,4,stim/34.jpeg,HouseObjects,2,stim/objects/HouseObjects/thread.png,0.7,4,0.2,-0.15,right,33,2020-12-19_11h35.04.912,premup-three_ses-01_part-01_label-phase1,3.2.4,MacIntel,60,right,0.771000147,4,0,4,0,1,3,1,0,240,99,1,239,,,,,,,,,,,,,,,,,,
,,1,8,,,,,,,3,6,3,stim/63.jpeg,Instruments,1,stim/objects/Instruments/trumpet2.png,0.9,3,-0.2,-0.15,left,33,2020-12-19_11h35.04.912,premup-three_ses-01_part-01_label-phase1,3.2.4,MacIntel,60,left,0.71600008,4,0,4,0,1,3,1,0,240,206,1,239,,,,,,,,,,,,,,,,,,
,,1,9,,,,,,,1,1,3,stim/13.jpeg,HouseObjects,2,stim/objects/HouseObjects/rubbergloves.png,0.5,3,-0.2,-0.15,right,33,2020-12-19_11h35.04.912,premup-three_ses-01_part-01_label-phase1,3.2.4,MacIntel,60,right,0.917000055,4,0,4,0,1,3,1,0,240,30,1,239,,,,,,,,,,,,,,,,,,
,,1,10,,,,,,,1,1,1,stim/11.jpeg,Instruments,1,stim/objects/Instruments/panflute.png,0.5,1,-0.2,0.15,left,33,2020-12-19_11h35.04.912,premup-three_ses-01_part-01_label-phase1,3.2.4,MacIntel,60,left,0.726000309,4,0,4,0,1,3,1,0,240,4,1,239,,,,,,,,,,,,,,,,,,
,,1,11,,,,,,,2,3,4,stim/34.jpeg,HouseObjects,2,stim/objects/HouseObjects/thread.png,0.7,4,0.2,-0.15,right,33,2020-12-19_11h35.04.912,premup-three_ses-01_part-01_label-phase1,3.2.4,MacIntel,60,right,0.611000299,4,0,4,0,1,3,1,0,240,115,1,239,,,,,,,,,,,,,,,,,,
,,1,12,,,,,,,1,2,3,stim/23.jpeg,HouseObjects,2,stim/objects/HouseObjects/scale.png,0.5,1,-0.2,0.15,right,33,2020-12-19_11h35.04.912,premup-three_ses-01_part-01_label-phase1,3.2.4,MacIntel,60,right,0.712000132,4,0,4,0,1,3,1,0,240,78,1,239,,,,,,,,,,,,,,,,,,
,,0,13,,,,,,,3,6,2,stim/62.jpeg,HouseObjects,2,stim/objects/HouseObjects/teapot2.png,0.1,1,-0.2,0.15,right,33,2020-12-19_11h35.04.912,premup-three_ses-01_part-01_label-phase1,3.2.4,MacIntel,60,left,0.548000097,4,0,4,0,1,3,1,0,240,237,1,239,,,,,,,,,,,,,,,,,,
,,0,14,,,,,,,1,2,3,stim/23.jpeg,Instruments,1,stim/objects/Instruments/tambourine.png,0.5,3,-0.2,-0.15,left,33,2020-12-19_11h35.04.912,premup-three_ses-01_part-01_label-phase1,3.2.4,MacIntel,60,right,0.645000219,4,0,4,0,1,3,1,0,240,42,1,239,,,,,,,,,,,,,,,,,,
,,1,15,,,,,,,3,5,3,stim/53.jpeg,HouseObjects,2,stim/objects/HouseObjects/scale2.png,0.9,2,0.2,0.15,right,33,2020-12-19_11h35.04.912,premup-three_ses-01_part-01_label-phase1,3.2.4,MacIntel,60,right,1.596000195,4,0,4,0,1,3,1,0,240,174,1,239,,,,,,,,,,,,,,,,,,
,,0,16,,,,,,,1,1,1,stim/11.jpeg,HouseObjects,2,stim/objects/HouseObjects/recyclingbin.png,0.5,2,0.2,0.15,right,33,2020-12-19_11h35.04.912,premup-three_ses-01_part-01_label-phase1,3.2.4,MacIntel,60,left,0.693000078,4,0,4,0,1,3,1,0,240,28,1,239,,,,,,,,,,,,,,,,,,
,,1,17,,,,,,,3,5,3,stim/53.jpeg,HouseObjects,2,stim/objects/HouseObjects/scale2.png,0.9,1,-0.2,0.15,right,33,2020-12-19_11h35.04.912,premup-three_ses-01_part-01_label-phase1,3.2.4,MacIntel,60,right,0.632000208,4,0,4,0,1,3,1,0,240,178,1,239,,,,,,,,,,,,,,,,,,
,,1,18,,,,,,,2,4,3,stim/43.jpeg,Instruments,1,stim/objects/Instruments/record2.png,0.7,3,-0.2,-0.15,left,33,2020-12-19_11h35.04.912,premup-three_ses-01_part-01_label-phase1,3.2.4,MacIntel,60,left,0.870000124,4,0,4,0,1,3,1,0,240,126,1,239,,,,,,,,,,,,,,,,,,
,,1,19,,,,,,,1,1,1,stim/11.jpeg,Instruments,1,stim/objects/Instruments/panflute.png,0.5,2,0.2,0.15,left,33,2020-12-19_11h35.04.912,premup-three_ses-01_part-01_label-phase1,3.2.4,MacIntel,60,left,1.315000057,4,0,4,0,1,3,1,0,240,8,1,239,,,,,,,,,,,,,,,,,,
,,1,20,,,,,,,2,3,1,stim/31.jpeg,HouseObjects,2,stim/objects/HouseObjects/spraybottle.png,0.7,2,0.2,0.15,right,33,2020-12-19_11h35.04.912,premup-three_ses-01_part-01_label-phase1,3.2.4,MacIntel,60,right,0.681000233,4,0,4,0,1,3,1,0,240,108,1,239,,,,,,,,,,,,,,,,,,
,,1,21,,,,,,,2,3,1,stim/31.jpeg,HouseObjects,2,stim/objects/HouseObjects/spraybottle.png,0.7,1,-0.2,0.15,right,33,2020-12-19_11h35.04.912,premup-three_ses-01_part-01_label-phase1,3.2.4,MacIntel,60,right,0.462000132,4,0,4,0,1,3,1,0,240,104,1,239,,,,,,,,,,,,,,,,,,
,,0,22,,,,,,,3,6,3,stim/63.jpeg,HouseObjects,2,stim/objects/HouseObjects/thermometer2.png,0.1,4,0.2,-0.15,right,33,2020-12-19_11h35.04.912,premup-three_ses-01_part-01_label-phase1,3.2.4,MacIntel,60,left,0.653000116,4,0,4,0,1,3,1,0,240,238,1,239,,,,,,,,,,,,,,,,,,
,,1,23,,,,,,,2,3,2,stim/32.jpeg,HouseObjects,2,stim/objects/HouseObjects/teapot.png,0.7,3,-0.2,-0.15,right,33,2020-12-19_11h35.04.912,premup-three_ses-01_part-01_label-phase1,3.2.4,MacIntel,60,right,0.680999994,4,0,4,0,1,3,1,0,240,101,1,239,,,,,,,,,,,,,,,,,,
,,0,24,,,,,,,1,1,2,stim/12.jpeg,HouseObjects,2,stim/objects/HouseObjects/remote.png,0.5,2,0.2,0.15,right,33,2020-12-19_11h35.04.912,premup-three_ses-01_part-01_label-phase1,3.2.4,MacIntel,60,left,0.758000374,4,0,4,0,1,3,1,0,240,33,1,239,,,,,,,,,,,,,,,,,,
,,0,25,,,,,,,2,3,3,stim/33.jpeg,Instruments,1,stim/objects/Instruments/trumpet.png,0.3,3,-0.2,-0.15,left,33,2020-12-19_11h35.04.912,premup-three_ses-01_part-01_label-phase1,3.2.4,MacIntel,60,right,0.641000271,4,0,4,0,1,3,1,0,240,82,1,239,,,,,,,,,,,,,,,,,,
,,1,26,,,,,,,1,2,3,stim/23.jpeg,HouseObjects,2,stim/objects/HouseObjects/scale.png,0.5,3,-0.2,-0.15,right,33,2020-12-19_11h35.04.912,premup-three_ses-01_part-01_label-phase1,3.2.4,MacIntel,60,right,1.019000292,4,0,4,0,1,3,1,0,240,62,1,239,,,,,,,,,,,,,,,,,,
,,0,27,,,,,,,1,2,1,stim/21.jpeg,Instruments,1,stim/objects/Instruments/saxophone.png,0.5,3,-0.2,-0.15,left,33,2020-12-19_11h35.04.912,premup-three_ses-01_part-01_label-phase1,3.2.4,MacIntel,60,right,0.523000002,4,0,4,0,1,3,1,0,240,44,1,239,,,,,,,,,,,,,,,,,,
,,1,28,,,,,,,2,3,1,stim/31.jpeg,HouseObjects,2,stim/objects/HouseObjects/spraybottle.png,0.7,2,0.2,0.15,right,33,2020-12-19_11h35.04.912,premup-three_ses-01_part-01_label-phase1,3.2.4,MacIntel,60,right,0.800000191,4,0,4,0,1,3,1,0,240,112,1,239,,,,,,,,,,,,,,,,,,
,,0,29,,,,,,,1,1,4,stim/14.jpeg,HouseObjects,2,stim/objects/HouseObjects/rug.png,0.5,1,-0.2,0.15,right,33,2020-12-19_11h35.04.912,premup-three_ses-01_part-01_label-phase1,3.2.4,MacIntel,60,left,0.573000193,4,0,4,0,1,3,1,0,240,39,1,239,,,,,,,,,,,,,,,,,,
,,0,30,,,,,,,1,2,4,stim/24.jpeg,HouseObjects,2,stim/objects/HouseObjects/sponge.png,0.5,1,-0.2,0.15,right,33,2020-12-19_11h35.04.912,premup-three_ses-01_part-01_label-phase1,3.2.4,MacIntel,60,left,1.225000143,4,0,4,0,1,3,1,0,240,75,1,239,,,,,,,,,,,,,,,,,,
,,1,31,,,,,,,3,6,2,stim/62.jpeg,Instruments,1,stim/objects/Instruments/trombone2.png,0.9,1,-0.2,0.15,left,33,2020-12-19_11h35.04.912,premup-three_ses-01_part-01_label-phase1,3.2.4,MacIntel,60,left,0.649000168,4,0,4,0,1,3,1,0,240,205,1,239,,,,,,,,,,,,,,,,,,
,,1,32,,,,,,,1,1,3,stim/13.jpeg,HouseObjects,2,stim/objects/HouseObjects/rubbergloves.png,0.5,3,-0.2,-0.15,right,33,2020-12-19_11h35.04.912,premup-three_ses-01_part-01_label-phase1,3.2.4,MacIntel,60,right,0.955000162,4,0,4,0,1,3,1,0,240,34,1,239,,,,,,,,,,,,,,,,,,
,,1,33,,,,,,,2,4,1,stim/41.jpeg,Instruments,1,stim/objects/Instruments/panflute2.png,0.7,2,0.2,0.15,left,33,2020-12-19_11h35.04.912,premup-three_ses-01_part-01_label-phase1,3.2.4,MacIntel,60,left,0.647000313,4,0,4,0,1,3,1,0,240,120,1,239,,,,,,,,,,,,,,,,,,
,,1,34,,,,,,,3,5,1,stim/51.jpeg,HouseObjects,2,stim/objects/HouseObjects/safetypin2.png,0.9,1,-0.2,0.15,right,33,2020-12-19_11h35.04.912,premup-three_ses-01_part-01_label-phase1,3.2.4,MacIntel,60,right,0.613000154,4,0,4,0,1,3,1,0,240,176,1,239,,,,,,,,,,,,,,,,,,
,,1,35,,,,,,,3,5,3,stim/53.jpeg,HouseObjects,2,stim/objects/HouseObjects/scale2.png,0.9,1,-0.2,0.15,right,33,2020-12-19_11h35.04.912,premup-three_ses-01_part-01_label-phase1,3.2.4,MacIntel,60,right,0.567000151,4,0,4,0,1,3,1,0,240,194,1,239,,,,,,,,,,,,,,,,,,
,,1,36,,,,,,,1,1,4,stim/14.jpeg,Instruments,1,stim/objects/Instruments/record_player.png,0.5,3,-0.2,-0.15,left,33,2020-12-19_11h35.04.912,premup-three_ses-01_part-01_label-phase1,3.2.4,MacIntel,60,left,0.6650002,4,0,4,0,1,3,1,0,240,15,1,239,,,,,,,,,,,,,,,,,,
,,1,37,,,,,,,3,5,4,stim/54.jpeg,HouseObjects,2,stim/objects/HouseObjects/sponge2.png,0.9,1,-0.2,0.15,right,33,2020-12-19_11h35.04.912,premup-three_ses-01_part-01_label-phase1,3.2.4,MacIntel,60,right,0.687000275,4,0,4,0,1,3,1,0,240,167,1,239,,,,,,,,,,,,,,,,,,
,,1,38,,,,,,,1,2,2,stim/22.jpeg,HouseObjects,2,stim/objects/HouseObjects/saw.png,0.5,1,-0.2,0.15,right,33,2020-12-19_11h35.04.912,premup-three_ses-01_part-01_label-phase1,3.2.4,MacIntel,60,right,0.726000309,4,0,4,0,1,3,1,0,240,61,1,239,,,,,,,,,,,,,,,,,,
,,0,39,,,,,,,2,3,1,stim/31.jpeg,HouseObjects,2,stim/objects/HouseObjects/spraybottle.png,0.7,3,-0.2,-0.15,right,33,2020-12-19_11h35.04.912,premup-three_ses-01_part-01_label-phase1,3.2.4,MacIntel,60,left,1.144000053,4,0,4,0,1,3,1,0,240,116,1,239,,,,,,,,,,,,,,,,,,
,,1,40,,,,,,,3,6,1,stim/61.jpeg,Instruments,1,stim/objects/Instruments/triangle2.png,0.9,2,0.2,0.15,left,33,2020-12-19_11h35.04.912,premup-three_ses-01_part-01_label-phase1,3.2.4,MacIntel,60,left,0.60800004,4,0,4,0,1,3,1,0,240,208,1,239,,,,,,,,,,,,,,,,,,
,,1,41,,,,,,,3,6,2,stim/62.jpeg,Instruments,1,stim/objects/Instruments/trombone2.png,0.9,1,-0.2,0.15,left,33,2020-12-19_11h35.04.912,premup-three_ses-01_part-01_label-phase1,3.2.4,MacIntel,60,left,0.96200037,4,0,4,0,1,3,1,0,240,213,1,239,,,,,,,,,,,,,,,,,,
,,1,42,,,,,,,2,3,1,stim/31.jpeg,HouseObjects,2,stim/objects/HouseObjects/spraybottle.png,0.7,4,0.2,-0.15,right,33,2020-12-19_11h35.04.912,premup-three_ses-01_part-01_label-phase1,3.2.4,MacIntel,60,right,0.6650002,4,0,4,0,1,3,1,0,240,100,1,239,,,,,,,,,,,,,,,,,,
,,1,43,,,,,,,3,6,2,stim/62.jpeg,Instruments,1,stim/objects/Instruments/trombone2.png,0.9,1,-0.2,0.15,left,33,2020-12-19_11h35.04.912,premup-three_ses-01_part-01_label-phase1,3.2.4,MacIntel,60,left,0.727000237,4,0,4,0,1,3,1,0,240,233,1,239,,,,,,,,,,,,,,,,,,
,,1,44,,,,,,,3,5,4,stim/54.jpeg,HouseObjects,2,stim/objects/HouseObjects/sponge2.png,0.9,4,0.2,-0.15,right,33,2020-12-19_11h35.04.912,premup-three_ses-01_part-01_label-phase1,3.2.4,MacIntel,60,right,0.65500021,4,0,4,0,1,3,1,0,240,199,1,239,,,,,,,,,,,,,,,,,,
,,1,45,,,,,,,2,4,4,stim/44.jpeg,Instruments,1,stim/objects/Instruments/record_player2.png,0.7,1,-0.2,0.15,left,33,2020-12-19_11h35.04.912,premup-three_ses-01_part-01_label-phase1,3.2.4,MacIntel,60,left,1.111000061,4,0,4,0,1,3,1,0,240,139,1,239,,,,,,,,,,,,,,,,,,
,,0,46,,,,,,,1,1,3,stim/13.jpeg,Instruments,1,stim/objects/Instruments/record.png,0.5,1,-0.2,0.15,left,33,2020-12-19_11h35.04.912,premup-three_ses-01_part-01_label-phase1,3.2.4,MacIntel,60,right,0.870000124,4,0,4,0,1,3,1,0,240,18,1,239,,,,,,,,,,,,,,,,,,
,,1,47,,,,,,,2,3,3,stim/33.jpeg,HouseObjects,2,stim/objects/HouseObjects/thermometer.png,0.7,1,-0.2,0.15,right,33,2020-12-19_11h35.04.912,premup-three_ses-01_part-01_label-phase1,3.2.4,MacIntel,60,right,0.775000334,4,0,4,0,1,3,1,0,240,98,1,239,,,,,,,,,,,,,,,,,,
,,1,48,,,,,,,2,4,4,stim/44.jpeg,Instruments,1,stim/objects/Instruments/record_player2.png,0.7,4,0.2,-0.15,left,33,2020-12-19_11h35.04.912,premup-three_ses-01_part-01_label-phase1,3.2.4,MacIntel,60,left,0.779999971,4,0,4,0,1,3,1,0,240,135,1,239,,,,,,,,,,,,,,,,,,
,,1,49,,,,,,,3,5,1,stim/51.jpeg,HouseObjects,2,stim/objects/HouseObjects/safetypin2.png,0.9,1,-0.2,0.15,right,33,2020-12-19_11h35.04.912,premup-three_ses-01_part-01_label-phase1,3.2.4,MacIntel,60,right,0.632000208,4,0,4,0,1,3,1,0,240,192,1,239,,,,,,,,,,,,,,,,,,
,,1,50,,,,,,,1,1,1,stim/11.jpeg,Instruments,1,stim/objects/Instruments/panflute.png,0.5,1,-0.2,0.15,left,33,2020-12-19_11h35.04.912,premup-three_ses-01_part-01_label-phase1,3.2.4,MacIntel,60,left,1.04700017,4,0,4,0,1,3,1,0,240,12,1,239,,,,,,,,,,,,,,,,,,
,,1,51,,,,,,,3,5,4,stim/54.jpeg,HouseObjects,2,stim/objects/HouseObjects/sponge2.png,0.9,4,0.2,-0.15,right,33,2020-12-19_11h35.04.912,premup-three_ses-01_part-01_label-phase1,3.2.4,MacIntel,60,right,0.562000036,4,0,4,0,1,3,1,0,240,171,1,239,,,,,,,,,,,,,,,,,,
,,1,52,,,,,,,2,4,3,stim/43.jpeg,Instruments,1,stim/objects/Instruments/record2.png,0.7,1,-0.2,0.15,left,33,2020-12-19_11h35.04.912,premup-three_ses-01_part-01_label-phase1,3.2.4,MacIntel,60,left,0.713000059,4,0,4,0,1,3,1,0,240,134,1,239,,,,,,,,,,,,,,,,,,
,,1,53,,,,,,,3,6,2,stim/62.jpeg,Instruments,1,stim/objects/Instruments/trombone2.png,0.9,1,-0.2,0.15,left,33,2020-12-19_11h35.04.912,premup-three_ses-01_part-01_label-phase1,3.2.4,MacIntel,60,left,0.636000156,4,0,4,0,1,3,1,0,240,217,1,239,,,,,,,,,,,,,,,,,,
,,0,54,,,,,,,1,1,2,stim/12.jpeg,Instruments,1,stim/objects/Instruments/pipepiano.png,0.5,4,0.2,-0.15,left,33,2020-12-19_11h35.04.912,premup-three_ses-01_part-01_label-phase1,3.2.4,MacIntel,60,right,1.35800004,4,0,4,0,1,3,1,0,240,17,1,239,,,,,,,,,,,,,,,,,,
,,1,55,,,,,,,3,5,4,stim/54.jpeg,HouseObjects,2,stim/objects/HouseObjects/sponge2.png,0.9,3,-0.2,-0.15,right,33,2020-12-19_11h35.04.912,premup-three_ses-01_part-01_label-phase1,3.2.4,MacIntel,60,right,0.610000134,4,0,4,0,1,3,1,0,240,175,1,239,,,,,,,,,,,,,,,,,,
,,1,56,,,,,,,3,6,4,stim/64.jpeg,Instruments,1,stim/objects/Instruments/tuba2.png,0.9,3,-0.2,-0.15,left,33,2020-12-19_11h35.04.912,premup-three_ses-01_part-01_label-phase1,3.2.4,MacIntel,60,left,0.603000164,4,0,4,0,1,3,1,0,240,215,1,239,,,,,,,,,,,,,,,,,,
,,1,57,,,,,,,2,4,2,stim/42.jpeg,Instruments,1,stim/objects/Instruments/pipepiano2.png,0.7,3,-0.2,-0.15,left,33,2020-12-19_11h35.04.912,premup-three_ses-01_part-01_label-phase1,3.2.4,MacIntel,60,left,0.637000084,4,0,4,0,1,3,1,0,240,121,1,239,,,,,,,,,,,,,,,,,,
,,0,58,,,,,,,3,5,4,stim/54.jpeg,Instruments,1,stim/objects/Instruments/timbal2.png,0.1,1,-0.2,0.15,left,33,2020-12-19_11h35.04.912,premup-three_ses-01_part-01_label-phase1,3.2.4,MacIntel,60,right,1.185000181,4,0,4,0,1,3,1,0,240,163,1,239,,,,,,,,,,,,,,,,,,
,,0,59,,,,,,,1,2,2,stim/22.jpeg,HouseObjects,2,stim/objects/HouseObjects/saw.png,0.5,1,-0.2,0.15,right,33,2020-12-19_11h35.04.912,premup-three_ses-01_part-01_label-phase1,3.2.4,MacIntel,60,left,1.118000269,4,0,4,0,1,3,1,0,240,69,1,239,,,,,,,,,,,,,,,,,,
,,1,60,,,,,,,3,6,1,stim/61.jpeg,Instruments,1,stim/objects/Instruments/triangle2.png,0.9,2,0.2,0.15,left,33,2020-12-19_11h35.04.912,premup-three_ses-01_part-01_label-phase1,3.2.4,MacIntel,60,left,0.576000214,4,0,4,0,1,3,1,0,240,216,1,239,,,,,,,,,,,,,,,,,,
,,0,61,,,,,,,3,5,1,stim/51.jpeg,Instruments,1,stim/objects/Instruments/saxophone2.png,0.1,4,0.2,-0.15,left,33,2020-12-19_11h35.04.912,premup-three_ses-01_part-01_label-phase1,3.2.4,MacIntel,60,,,4,0,4,0,1,3,1,0,240,160,1,239,,,,,,,,,,,,,,,,,,
,,1,62,,,,,,,2,4,2,stim/42.jpeg,Instruments,1,stim/objects/Instruments/pipepiano2.png,0.7,4,0.2,-0.15,left,33,2020-12-19_11h35.04.912,premup-three_ses-01_part-01_label-phase1,3.2.4,MacIntel,60,left,0.676000118,4,0,4,0,1,3,1,0,240,145,1,239,,,,,,,,,,,,,,,,,,
,,1,63,,,,,,,3,5,2,stim/52.jpeg,HouseObjects,2,stim/objects/HouseObjects/saw2.png,0.9,3,-0.2,-0.15,right,33,2020-12-19_11h35.04.912,premup-three_ses-01_part-01_label-phase1,3.2.4,MacIntel,60,right,0.642000198,4,0,4,0,1,3,1,0,240,193,1,239,,,,,,,,,,,,,,,,,,
,,1,64,,,,,,,2,3,4,stim/34.jpeg,HouseObjects,2,stim/objects/HouseObjects/thread.png,0.7,3,-0.2,-0.15,right,33,2020-12-19_11h35.04.912,premup-three_ses-01_part-01_label-phase1,3.2.4,MacIntel,60,right,0.660000086,4,0,4,0,1,3,1,0,240,103,1,239,,,,,,,,,,,,,,,,,,
,,0,65,,,,,,,1,1,2,stim/12.jpeg,HouseObjects,2,stim/objects/HouseObjects/remote.png,0.5,3,-0.2,-0.15,right,33,2020-12-19_11h35.04.912,premup-three_ses-01_part-01_label-phase1,3.2.4,MacIntel,60,left,0.730000257,4,0,4,0,1,3,1,0,240,37,1,239,,,,,,,,,,,,,,,,,,
,,1,66,,,,,,,1,2,4,stim/24.jpeg,HouseObjects,2,stim/objects/HouseObjects/sponge.png,0.5,2,0.2,0.15,right,33,2020-12-19_11h35.04.912,premup-three_ses-01_part-01_label-phase1,3.2.4,MacIntel,60,right,0.731000185,4,0,4,0,1,3,1,0,240,67,1,239,,,,,,,,,,,,,,,,,,
,,1,67,,,,,,,1,2,1,stim/21.jpeg,HouseObjects,2,stim/objects/HouseObjects/safetypin.png,0.5,3,-0.2,-0.15,right,33,2020-12-19_11h35.04.912,premup-three_ses-01_part-01_label-phase1,3.2.4,MacIntel,60,right,0.623000145,4,0,4,0,1,3,1,0,240,76,1,239,,,,,,,,,,,,,,,,,,
,,0,68,,,,,,,1,2,4,stim/24.jpeg,HouseObjects,2,stim/objects/HouseObjects/sponge.png,0.5,2,0.2,0.15,right,33,2020-12-19_11h35.04.912,premup-three_ses-01_part-01_label-phase1,3.2.4,MacIntel,60,left,0.818000317,4,0,4,0,1,3,1,0,240,79,1,239,,,,,,,,,,,,,,,,,,
,,0,69,,,,,,,1,2,1,stim/21.jpeg,HouseObjects,2,stim/objects/HouseObjects/safetypin.png,0.5,3,-0.2,-0.15,right,33,2020-12-19_11h35.04.912,premup-three_ses-01_part-01_label-phase1,3.2.4,MacIntel,60,left,0.549000025,4,0,4,0,1,3,1,0,240,68,1,239,,,,,,,,,,,,,,,,,,
,,1,70,,,,,,,3,6,4,stim/64.jpeg,Instruments,1,stim/objects/Instruments/tuba2.png,0.9,2,0.2,0.15,left,33,2020-12-19_11h35.04.912,premup-three_ses-01_part-01_label-phase1,3.2.4,MacIntel,60,left,0.613000154,4,0,4,0,1,3,1,0,240,211,1,239,,,,,,,,,,,,,,,,,,
,,1,71,,,,,,,2,3,3,stim/33.jpeg,HouseObjects,2,stim/objects/HouseObjects/thermometer.png,0.7,1,-0.2,0.15,right,33,2020-12-19_11h35.04.912,premup-three_ses-01_part-01_label-phase1,3.2.4,MacIntel,60,right,0.623000145,4,0,4,0,1,3,1,0,240,106,1,239,,,,,,,,,,,,,,,,,,
,,0,72,,,,,,,1,1,3,stim/13.jpeg,Instruments,1,stim/objects/Instruments/record.png,0.5,2,0.2,0.15,left,33,2020-12-19_11h35.04.912,premup-three_ses-01_part-01_label-phase1,3.2.4,MacIntel,60,right,0.975000143,4,0,4,0,1,3,1,0,240,6,1,239,,,,,,,,,,,,,,,,,,
,,1,73,,,,,,,3,6,1,stim/61.jpeg,Instruments,1,stim/objects/Instruments/triangle2.png,0.9,4,0.2,-0.15,left,33,2020-12-19_11h35.04.912,premup-three_ses-01_part-01_label-phase1,3.2.4,MacIntel,60,left,0.507000208,4,0,4,0,1,3,1,0,240,228,1,239,,,,,,,,,,,,,,,,,,
,,0,74,,,,,,,1,2,2,stim/22.jpeg,Instruments,1,stim/objects/Instruments/speaker.png,0.5,4,0.2,-0.15,left,33,2020-12-19_11h35.04.912,premup-three_ses-01_part-01_label-phase1,3.2.4,MacIntel,60,right,0.569000244,4,0,4,0,1,3,1,0,240,49,1,239,,,,,,,,,,,,,,,,,,
,,0,75,,,,,,,2,3,4,stim/34.jpeg,Instruments,1,stim/objects/Instruments/tuba.png,0.3,2,0.2,0.15,left,33,2020-12-19_11h35.04.912,premup-three_ses-01_part-01_label-phase1,3.2.4,MacIntel,60,right,0.867000341,4,0,4,0,1,3,1,0,240,87,1,239,,,,,,,,,,,,,,,,,,
,,1,76,,,,,,,3,5,1,stim/51.jpeg,HouseObjects,2,stim/objects/HouseObjects/safetypin2.png,0.9,4,0.2,-0.15,right,33,2020-12-19_11h35.04.912,premup-three_ses-01_part-01_label-phase1,3.2.4,MacIntel,60,right,0.680999994,4,0,4,0,1,3,1,0,240,188,1,239,,,,,,,,,,,,,,,,,,
,,1,77,,,,,,,2,4,2,stim/42.jpeg,Instruments,1,stim/objects/Instruments/pipepiano2.png,0.7,4,0.2,-0.15,left,33,2020-12-19_11h35.04.912,premup-three_ses-01_part-01_label-phase1,3.2.4,MacIntel,60,left,0.784000158,4,0,4,0,1,3,1,0,240,125,1,239,,,,,,,,,,,,,,,,,,
,,1,78,,,,,,,3,5,2,stim/52.jpeg,HouseObjects,2,stim/objects/HouseObjects/saw2.png,0.9,4,0.2,-0.15,right,33,2020-12-19_11h35.04.912,premup-three_ses-01_part-01_label-phase1,3.2.4,MacIntel,60,right,0.701000214,4,0,4,0,1,3,1,0,240,169,1,239,,,,,,,,,,,,,,,,,,
,,1,79,,,,,,,2,4,3,stim/43.jpeg,Instruments,1,stim/objects/Instruments/record2.png,0.7,4,0.2,-0.15,left,33,2020-12-19_11h35.04.912,premup-three_ses-01_part-01_label-phase1,3.2.4,MacIntel,60,left,1.352000237,4,0,4,0,1,3,1,0,240,130,1,239,,,,,,,,,,,,,,,,,,
,,1,80,,,,,,,1,1,3,stim/13.jpeg,HouseObjects,2,stim/objects/HouseObjects/rubbergloves.png,0.5,2,0.2,0.15,right,33,2020-12-19_11h35.04.912,premup-three_ses-01_part-01_label-phase1,3.2.4,MacIntel,60,right,0.796000242,4,0,4,0,1,3,1,0,240,38,1,239,,,,,,,,,,,,,,,,,,
,,1,81,,,,,,,2,3,4,stim/34.jpeg,HouseObjects,2,stim/objects/HouseObjects/thread.png,0.7,3,-0.2,-0.15,right,33,2020-12-19_11h35.04.912,premup-three_ses-01_part-01_label-phase1,3.2.4,MacIntel,60,right,1.080000162,4,0,4,0,1,3,1,0,240,119,1,239,,,,,,,,,,,,,,,,,,
,,1,82,,,,,,,3,5,4,stim/54.jpeg,HouseObjects,2,stim/objects/HouseObjects/sponge2.png,0.9,2,0.2,0.15,right,33,2020-12-19_11h35.04.912,premup-three_ses-01_part-01_label-phase1,3.2.4,MacIntel,60,right,0.808000326,4,0,4,0,1,3,1,0,240,191,1,239,,,,,,,,,,,,,,,,,,
,,0,83,,,,,,,1,1,3,stim/13.jpeg,Instruments,1,stim/objects/Instruments/record.png,0.5,3,-0.2,-0.15,left,33,2020-12-19_11h35.04.912,premup-three_ses-01_part-01_label-phase1,3.2.4,MacIntel,60,right,1.20200038,4,0,4,0,1,3,1,0,240,10,1,239,,,,,,,,,,,,,,,,,,
,,1,84,,,,,,,2,4,4,stim/44.jpeg,Instruments,1,stim/objects/Instruments/record_player2.png,0.7,1,-0.2,0.15,left,33,2020-12-19_11h35.04.912,premup-three_ses-01_part-01_label-phase1,3.2.4,MacIntel,60,left,0.598000288,4,0,4,0,1,3,1,0,240,127,1,239,,,,,,,,,,,,,,,,,,
,,1,85,,,,,,,3,5,4,stim/54.jpeg,HouseObjects,2,stim/objects/HouseObjects/sponge2.png,0.9,2,0.2,0.15,right,33,2020-12-19_11h35.04.912,premup-three_ses-01_part-01_label-phase1,3.2.4,MacIntel,60,right,0.610000372,4,0,4,0,1,3,1,0,240,195,1,239,,,,,,,,,,,,,,,,,,
,,0,86,,,,,,,3,5,2,stim/52.jpeg,HouseObjects,2,stim/objects/HouseObjects/saw2.png,0.9,3,-0.2,-0.15,right,33,2020-12-19_11h35.04.912,premup-three_ses-01_part-01_label-phase1,3.2.4,MacIntel,60,left,0.743000031,4,0,4,0,1,3,1,0,240,173,1,239,,,,,,,,,,,,,,,,,,
,,1,87,,,,,,,2,4,2,stim/42.jpeg,HouseObjects,2,stim/objects/HouseObjects/remote2.png,0.3,3,-0.2,-0.15,right,33,2020-12-19_11h35.04.912,premup-three_ses-01_part-01_label-phase1,3.2.4,MacIntel,60,right,1.061000109,4,0,4,0,1,3,1,0,240,149,1,239,,,,,,,,,,,,,,,,,,
,,1,88,,,,,,,3,5,2,stim/52.jpeg,HouseObjects,2,stim/objects/HouseObjects/saw2.png,0.9,1,-0.2,0.15,right,33,2020-12-19_11h35.04.912,premup-three_ses-01_part-01_label-phase1,3.2.4,MacIntel,60,right,0.82400012,4,0,4,0,1,3,1,0,240,177,1,239,,,,,,,,,,,,,,,,,,
,,0,89,,,,,,,1,1,3,stim/13.jpeg,Instruments,1,stim/objects/Instruments/record.png,0.5,1,-0.2,0.15,left,33,2020-12-19_11h35.04.912,premup-three_ses-01_part-01_label-phase1,3.2.4,MacIntel,60,right,0.800000191,4,0,4,0,1,3,1,0,240,14,1,239,,,,,,,,,,,,,,,,,,
,,1,90,,,,,,,2,3,3,stim/33.jpeg,Instruments,1,stim/objects/Instruments/trumpet.png,0.3,4,0.2,-0.15,left,33,2020-12-19_11h35.04.912,premup-three_ses-01_part-01_label-phase1,3.2.4,MacIntel,60,left,0.658000231,4,0,4,0,1,3,1,0,240,90,1,239,,,,,,,,,,,,,,,,,,
,,1,91,,,,,,,3,6,1,stim/61.jpeg,Instruments,1,stim/objects/Instruments/triangle2.png,0.9,3,-0.2,-0.15,left,33,2020-12-19_11h35.04.912,premup-three_ses-01_part-01_label-phase1,3.2.4,MacIntel,60,left,0.560000181,4,0,4,0,1,3,1,0,240,212,1,239,,,,,,,,,,,,,,,,,,
,,1,92,,,,,,,3,6,3,stim/63.jpeg,Instruments,1,stim/objects/Instruments/trumpet2.png,0.9,4,0.2,-0.15,left,33,2020-12-19_11h35.04.912,premup-three_ses-01_part-01_label-phase1,3.2.4,MacIntel,60,left,0.799000263,4,0,4,0,1,3,1,0,240,234,1,239,,,,,,,,,,,,,,,,,,
,,1,93,,,,,,,2,3,3,stim/33.jpeg,HouseObjects,2,stim/objects/HouseObjects/thermometer.png,0.7,2,0.2,0.15,right,33,2020-12-19_11h35.04.912,premup-three_ses-01_part-01_label-phase1,3.2.4,MacIntel,60,right,0.63100028,4,0,4,0,1,3,1,0,240,94,1,239,,,,,,,,,,,,,,,,,,
,,0,94,,,,,,,2,3,1,stim/31.jpeg,Instruments,1,stim/objects/Instruments/triangle.png,0.3,3,-0.2,-0.15,left,33,2020-12-19_11h35.04.912,premup-three_ses-01_part-01_label-phase1,3.2.4,MacIntel,60,right,0.643000126,4,0,4,0,1,3,1,0,240,88,1,239,,,,,,,,,,,,,,,,,,
,,1,95,,,,,,,3,5,2,stim/52.jpeg,HouseObjects,2,stim/objects/HouseObjects/saw2.png,0.9,2,0.2,0.15,right,33,2020-12-19_11h35.04.912,premup-three_ses-01_part-01_label-phase1,3.2.4,MacIntel,60,right,0.632000208,4,0,4,0,1,3,1,0,240,165,1,239,,,,,,,,,,,,,,,,,,
,,0,96,,,,,,,1,2,2,stim/22.jpeg,Instruments,1,stim/objects/Instruments/speaker.png,0.5,1,-0.2,0.15,left,33,2020-12-19_11h35.04.912,premup-three_ses-01_part-01_label-phase1,3.2.4,MacIntel,60,,,4,0,4,0,1,3,1,0,240,45,1,239,,,,,,,,,,,,,,,,,,
,,1,97,,,,,,,3,5,1,stim/51.jpeg,HouseObjects,2,stim/objects/HouseObjects/safetypin2.png,0.9,4,0.2,-0.15,right,33,2020-12-19_11h35.04.912,premup-three_ses-01_part-01_label-phase1,3.2.4,MacIntel,60,right,0.619000196,4,0,4,0,1,3,1,0,240,184,1,239,,,,,,,,,,,,,,,,,,
,,0,98,,,,,,,2,4,2,stim/42.jpeg,HouseObjects,2,stim/objects/HouseObjects/remote2.png,0.3,2,0.2,0.15,right,33,2020-12-19_11h35.04.912,premup-three_ses-01_part-01_label-phase1,3.2.4,MacIntel,60,left,0.906000376,4,0,4,0,1,3,1,0,240,153,1,239,,,,,,,,,,,,,,,,,,
,,0,99,,,,,,,1,2,1,stim/21.jpeg,Instruments,1,stim/objects/Instruments/saxophone.png,0.5,4,0.2,-0.15,left,33,2020-12-19_11h35.04.912,premup-three_ses-01_part-01_label-phase1,3.2.4,MacIntel,60,right,0.926000118,4,0,4,0,1,3,1,0,240,52,1,239,,,,,,,,,,,,,,,,,,
,,1,100,,,,,,,3,5,1,stim/51.jpeg,HouseObjects,2,stim/objects/HouseObjects/safetypin2.png,0.9,4,0.2,-0.15,right,33,2020-12-19_11h35.04.912,premup-three_ses-01_part-01_label-phase1,3.2.4,MacIntel,60,right,0.700999975,4,0,4,0,1,3,1,0,240,180,1,239,,,,,,,,,,,,,,,,,,
,,0,101,,,,,,,3,6,4,stim/64.jpeg,HouseObjects,2,stim/objects/HouseObjects/thread2.png,0.1,4,0.2,-0.15,right,33,2020-12-19_11h35.04.912,premup-three_ses-01_part-01_label-phase1,3.2.4,MacIntel,60,left,0.677000284,4,0,4,0,1,3,1,0,240,239,1,239,,,,,,,,,,,,,,,,,,
,,1,102,,,,,,,3,6,4,stim/64.jpeg,Instruments,1,stim/objects/Instruments/tuba2.png,0.9,2,0.2,0.15,left,33,2020-12-19_11h35.04.912,premup-three_ses-01_part-01_label-phase1,3.2.4,MacIntel,60,left,0.512000084,4,0,4,0,1,3,1,0,240,223,1,239,,,,,,,,,,,,,,,,,,
,,1,103,,,,,,,1,2,3,stim/23.jpeg,HouseObjects,2,stim/objects/HouseObjects/scale.png,0.5,4,0.2,-0.15,right,33,2020-12-19_11h35.04.912,premup-three_ses-01_part-01_label-phase1,3.2.4,MacIntel,60,right,0.715000153,4,0,4,0,1,3,1,0,240,70,1,239,,,,,,,,,,,,,,,,,,
,,1,104,,,,,,,3,6,2,stim/62.jpeg,Instruments,1,stim/objects/Instruments/trombone2.png,0.9,4,0.2,-0.15,left,33,2020-12-19_11h35.04.912,premup-three_ses-01_part-01_label-phase1,3.2.4,MacIntel,60,left,0.659000158,4,0,4,0,1,3,1,0,240,225,1,239,,,,,,,,,,,,,,,,,,
,,1,105,,,,,,,1,2,2,stim/22.jpeg,HouseObjects,2,stim/objects/HouseObjects/saw.png,0.5,2,0.2,0.15,right,33,2020-12-19_11h35.04.912,premup-three_ses-01_part-01_label-phase1,3.2.4,MacIntel,60,right,0.667000294,4,0,4,0,1,3,1,0,240,65,1,239,,,,,,,,,,,,,,,,,,
,,1,106,,,,,,,2,3,2,stim/32.jpeg,HouseObjects,2,stim/objects/HouseObjects/teapot.png,0.7,4,0.2,-0.15,right,33,2020-12-19_11h35.04.912,premup-three_ses-01_part-01_label-phase1,3.2.4,MacIntel,60,right,0.621000051,4,0,4,0,1,3,1,0,240,105,1,239,,,,,,,,,,,,,,,,,,
,,1,107,,,,,,,2,3,1,stim/31.jpeg,Instruments,1,stim/objects/Instruments/triangle.png,0.3,2,0.2,0.15,left,33,2020-12-19_11h35.04.912,premup-three_ses-01_part-01_label-phase1,3.2.4,MacIntel,60,left,0.651000261,4,0,4,0,1,3,1,0,240,84,1,239,,,,,,,,,,,,,,,,,,
,,1,108,,,,,,,1,1,2,stim/12.jpeg,HouseObjects,2,stim/objects/HouseObjects/remote.png,0.5,1,-0.2,0.15,right,33,2020-12-19_11h35.04.912,premup-three_ses-01_part-01_label-phase1,3.2.4,MacIntel,60,right,1.286000252,4,0,4,0,1,3,1,0,240,29,1,239,,,,,,,,,,,,,,,,,,
,,1,109,,,,,,,3,6,2,stim/62.jpeg,Instruments,1,stim/objects/Instruments/trombone2.png,0.9,4,0.2,-0.15,left,33,2020-12-19_11h35.04.912,premup-three_ses-01_part-01_label-phase1,3.2.4,MacIntel,60,left,0.700000286,4,0,4,0,1,3,1,0,240,229,1,239,,,,,,,,,,,,,,,,,,
,,0,110,,,,,,,2,4,4,stim/44.jpeg,HouseObjects,2,stim/objects/HouseObjects/rug2.png,0.3,2,0.2,0.15,right,33,2020-12-19_11h35.04.912,premup-three_ses-01_part-01_label-phase1,3.2.4,MacIntel,60,left,0.934000015,4,0,4,0,1,3,1,0,240,155,1,239,,,,,,,,,,,,,,,,,,
,,1,111,,,,,,,3,5,1,stim/51.jpeg,HouseObjects,2,stim/objects/HouseObjects/safetypin2.png,0.9,2,0.2,0.15,right,33,2020-12-19_11h35.04.912,premup-three_ses-01_part-01_label-phase1,3.2.4,MacIntel,60,right,0.459000111,4,0,4,0,1,3,1,0,240,164,1,239,,,,,,,,,,,,,,,,,,
,,1,112,,,,,,,1,2,1,stim/21.jpeg,Instruments,1,stim/objects/Instruments/saxophone.png,0.5,4,0.2,-0.15,left,33,2020-12-19_11h35.04.912,premup-three_ses-01_part-01_label-phase1,3.2.4,MacIntel,60,left,0.629000187,4,0,4,0,1,3,1,0,240,56,1,239,,,,,,,,,,,,,,,,,,
,,0,113,,,,,,,1,2,4,stim/24.jpeg,HouseObjects,2,stim/objects/HouseObjects/sponge.png,0.5,2,0.2,0.15,right,33,2020-12-19_11h35.04.912,premup-three_ses-01_part-01_label-phase1,3.2.4,MacIntel,60,left,0.715000153,4,0,4,0,1,3,1,0,240,63,1,239,,,,,,,,,,,,,,,,,,
,,1,114,,,,,,,2,3,4,stim/34.jpeg,HouseObjects,2,stim/objects/HouseObjects/thread.png,0.7,4,0.2,-0.15,right,33,2020-12-19_11h35.04.912,premup-three_ses-01_part-01_label-phase1,3.2.4,MacIntel,60,right,0.518000126,4,0,4,0,1,3,1,0,240,95,1,239,,,,,,,,,,,,,,,,,,
,,0,115,,,,,,,2,4,3,stim/43.jpeg,HouseObjects,2,stim/objects/HouseObjects/rubbergloves2.png,0.3,4,0.2,-0.15,right,33,2020-12-19_11h35.04.912,premup-three_ses-01_part-01_label-phase1,3.2.4,MacIntel,60,left,1.096000195,4,0,4,0,1,3,1,0,240,158,1,239,,,,,,,,,,,,,,,,,,
,,0,116,,,,,,,2,4,2,stim/42.jpeg,Instruments,1,stim/objects/Instruments/pipepiano2.png,0.7,2,0.2,0.15,left,33,2020-12-19_11h35.04.912,premup-three_ses-01_part-01_label-phase1,3.2.4,MacIntel,60,right,0.656000137,4,0,4,0,1,3,1,0,240,137,1,239,,,,,,,,,,,,,,,,,,
,,0,117,,,,,,,2,4,3,stim/43.jpeg,Instruments,1,stim/objects/Instruments/record2.png,0.7,1,-0.2,0.15,left,33,2020-12-19_11h35.04.912,premup-three_ses-01_part-01_label-phase1,3.2.4,MacIntel,60,right,0.754000187,4,0,4,0,1,3,1,0,240,142,1,239,,,,,,,,,,,,,,,,,,
,,0,118,,,,,,,2,4,1,stim/41.jpeg,HouseObjects,2,stim/objects/HouseObjects/recyclingbin2.png,0.3,4,0.2,-0.15,right,33,2020-12-19_11h35.04.912,premup-three_ses-01_part-01_label-phase1,3.2.4,MacIntel,60,left,0.637000084,4,0,4,0,1,3,1,0,240,148,1,239,,,,,,,,,,,,,,,,,,
,,1,119,,,,,,,2,3,3,stim/33.jpeg,HouseObjects,2,stim/objects/HouseObjects/thermometer.png,0.7,4,0.2,-0.15,right,33,2020-12-19_11h35.04.912,premup-three_ses-01_part-01_label-phase1,3.2.4,MacIntel,60,right,0.781000376,4,0,4,0,1,3,1,0,240,114,1,239,,,,,,,,,,,,,,,,,,
,,0,120,,,,,,,1,2,2,stim/22.jpeg,Instruments,1,stim/objects/Instruments/speaker.png,0.5,4,0.2,-0.15,left,33,2020-12-19_11h35.04.912,premup-three_ses-01_part-01_label-phase1,3.2.4,MacIntel,60,right,0.542999983,4,0,4,0,1,3,1,0,240,41,1,239,,,,,,,,,,,,,,,,,,
,,1,121,,,,,,,3,6,4,stim/64.jpeg,Instruments,1,stim/objects/Instruments/tuba2.png,0.9,1,-0.2,0.15,left,33,2020-12-19_11h35.04.912,premup-three_ses-01_part-01_label-phase1,3.2.4,MacIntel,60,left,0.823000193,4,0,4,0,1,3,1,0,240,235,1,239,,,,,,,,,,,,,,,,,,
,,0,122,,,,,,,3,5,3,stim/53.jpeg,Instruments,1,stim/objects/Instruments/tambourine2.png,0.1,4,0.2,-0.15,left,33,2020-12-19_11h35.04.912,premup-three_ses-01_part-01_label-phase1,3.2.4,MacIntel,60,right,0.681000233,4,0,4,0,1,3,1,0,240,162,1,239,,,,,,,,,,,,,,,,,,
,,0,123,,,,,,,1,2,3,stim/23.jpeg,Instruments,1,stim/objects/Instruments/tambourine.png,0.5,4,0.2,-0.15,left,33,2020-12-19_11h35.04.912,premup-three_ses-01_part-01_label-phase1,3.2.4,MacIntel,60,right,0.753000259,4,0,4,0,1,3,1,0,240,46,1,239,,,,,,,,,,,,,,,,,,
,,1,124,,,,,,,1,2,4,stim/24.jpeg,Instruments,1,stim/objects/Instruments/timbal.png,0.5,2,0.2,0.15,left,33,2020-12-19_11h35.04.912,premup-three_ses-01_part-01_label-phase1,3.2.4,MacIntel,60,left,0.636000156,4,0,4,0,1,3,1,0,240,55,1,239,,,,,,,,,,,,,,,,,,
,,0,125,,,,,,,2,4,1,stim/41.jpeg,HouseObjects,2,stim/objects/HouseObjects/recyclingbin2.png,0.3,4,0.2,-0.15,right,33,2020-12-19_11h35.04.912,premup-three_ses-01_part-01_label-phase1,3.2.4,MacIntel,60,left,0.755000114,4,0,4,0,1,3,1,0,240,156,1,239,,,,,,,,,,,,,,,,,,
,,0,126,,,,,,,1,2,4,stim/24.jpeg,Instruments,1,stim/objects/Instruments/timbal.png,0.5,3,-0.2,-0.15,left,33,2020-12-19_11h35.04.912,premup-three_ses-01_part-01_label-phase1,3.2.4,MacIntel,60,right,0.681000233,4,0,4,0,1,3,1,0,240,43,1,239,,,,,,,,,,,,,,,,,,
,,1,127,,,,,,,3,6,2,stim/62.jpeg,Instruments,1,stim/objects/Instruments/trombone2.png,0.9,1,-0.2,0.15,left,33,2020-12-19_11h35.04.912,premup-three_ses-01_part-01_label-phase1,3.2.4,MacIntel,60,left,0.692000151,4,0,4,0,1,3,1,0,240,221,1,239,,,,,,,,,,,,,,,,,,
,,1,128,,,,,,,3,6,3,stim/63.jpeg,Instruments,1,stim/objects/Instruments/trumpet2.png,0.9,4,0.2,-0.15,left,33,2020-12-19_11h35.04.912,premup-three_ses-01_part-01_label-phase1,3.2.4,MacIntel,60,left,1.502000093,4,0,4,0,1,3,1,0,240,202,1,239,,,,,,,,,,,,,,,,,,
,,1,129,,,,,,,2,3,2,stim/32.jpeg,HouseObjects,2,stim/objects/HouseObjects/teapot.png,0.7,3,-0.2,-0.15,right,33,2020-12-19_11h35.04.912,premup-three_ses-01_part-01_label-phase1,3.2.4,MacIntel,60,right,0.745000124,4,0,4,0,1,3,1,0,240,113,1,239,,,,,,,,,,,,,,,,,,
