key_resp_pract.keys,key_resp_pract.rt,trial_acc,trial_index,practice_loop.thisRepN,practice_loop.thisTrialN,practice_loop.thisN,practice_loop.thisIndex,practice_loop.ran,practice_loop.order,scn_condition,scn_cat,scn_inst,scn_file,obj_cat,obj_cat_num,obj_file,trial_cond,quadrant,obj_x,obj_y,corr_ans,participant,date,expName,psychopyVersion,OS,frameRate,key_resp_trial.keys,key_resp_trial.rt,iterations.thisRepN,iterations.thisTrialN,iterations.thisN,iterations.thisIndex,iterations.ran,iterations.order,task_innerloop.thisRepN,task_innerloop.thisTrialN,task_innerloop.thisN,task_innerloop.thisIndex,task_innerloop.ran,task_innerloop.order,iteration_index,rating_acc,slider.response,slider.rt,slider_2.response,slider_2.rt,ratings.thisRepN,ratings.thisTrialN,ratings.thisN,ratings.thisIndex,ratings.ran,ratings.order,obj_cat_top,min_resp_top,max_resp_top,obj_cat_bottom,min_resp_bottom,max_resp_bottom
,,0,1,1,0,240,99,1,239,2,5,4,stim/54.jpeg,Instruments,2,stim/objects/Instruments/xylophone.png,0.7,2,0.2,0.15,right,34,2020-12-07_16h10.37.794,premup-three_ses-01_part-01_label-phase1,3.2.4,MacIntel,60,,,,,,,,,,,,,,,,,,,,,,,,,,,,,,,,
left,1.213000059,1,2,1,0,240,121,1,239,2,6,2,stim/62.jpeg,HouseObjects,1,stim/objects/HouseObjects/safetypin2.png,0.7,3,-0.2,-0.15,left,34,2020-12-07_16h10.37.794,premup-three_ses-01_part-01_label-phase1,3.2.4,MacIntel,60,,,,,,,,,,,,,,,,,,,,,,,,,,,,,,,,
right,1.35800004,0,3,1,0,240,202,1,239,3,2,3,stim/23.jpeg,HouseObjects,1,stim/objects/HouseObjects/vacuumcleaner2.png,0.9,4,0.2,-0.15,left,34,2020-12-07_16h10.37.794,premup-three_ses-01_part-01_label-phase1,3.2.4,MacIntel,60,,,,,,,,,,,,,,,,,,,,,,,,,,,,,,,,
left,1.47300005,1,4,1,0,240,140,1,239,2,6,1,stim/61.jpeg,HouseObjects,1,stim/objects/HouseObjects/rug2.png,0.7,1,-0.2,0.15,left,34,2020-12-07_16h10.37.794,premup-three_ses-01_part-01_label-phase1,3.2.4,MacIntel,60,,,,,,,,,,,,,,,,,,,,,,,,,,,,,,,,
left,1.368999958,1,5,1,0,240,124,1,239,2,6,1,stim/61.jpeg,HouseObjects,1,stim/objects/HouseObjects/rug2.png,0.7,1,-0.2,0.15,left,34,2020-12-07_16h10.37.794,premup-three_ses-01_part-01_label-phase1,3.2.4,MacIntel,60,,,,,,,,,,,,,,,,,,,,,,,,,,,,,,,,
left,1.39199996,1,6,1,0,240,146,1,239,2,6,3,stim/63.jpeg,HouseObjects,1,stim/objects/HouseObjects/saw2.png,0.7,4,0.2,-0.15,left,34,2020-12-07_16h10.37.794,premup-three_ses-01_part-01_label-phase1,3.2.4,MacIntel,60,,,,,,,,,,,,,,,,,,,,,,,,,,,,,,,,
,,0,7,1,0,240,164,1,239,3,1,1,stim/11.jpeg,Instruments,2,stim/objects/Instruments/timbal2.png,0.9,1,-0.2,0.15,right,34,2020-12-07_16h10.37.794,premup-three_ses-01_part-01_label-phase1,3.2.4,MacIntel,60,,,,,,,,,,,,,,,,,,,,,,,,,,,,,,,,
right,0.967000008,1,8,1,0,240,192,1,239,3,1,1,stim/11.jpeg,Instruments,2,stim/objects/Instruments/timbal2.png,0.9,4,0.2,-0.15,right,34,2020-12-07_16h10.37.794,premup-three_ses-01_part-01_label-phase1,3.2.4,MacIntel,60,,,,,,,,,,,,,,,,,,,,,,,,,,,,,,,,
right,1.325999975,1,9,1,0,240,170,1,239,3,1,3,stim/13.jpeg,Instruments,2,stim/objects/Instruments/trombone2.png,0.9,2,0.2,0.15,right,34,2020-12-07_16h10.37.794,premup-three_ses-01_part-01_label-phase1,3.2.4,MacIntel,60,,,,,,,,,,,,,,,,,,,,,,,,,,,,,,,,
right,1.032999992,1,10,1,0,240,114,1,239,2,5,3,stim/53.jpeg,Instruments,2,stim/objects/Instruments/vuvuzela.png,0.7,2,0.2,0.15,right,34,2020-12-07_16h10.37.794,premup-three_ses-01_part-01_label-phase1,3.2.4,MacIntel,60,,,,,,,,,,,,,,,,,,,,,,,,,,,,,,,,
,,1,1,,,,,,,2,6,1,stim/61.jpeg,HouseObjects,1,stim/objects/HouseObjects/rug2.png,0.7,3,-0.2,-0.15,left,34,2020-12-07_16h10.37.794,premup-three_ses-01_part-01_label-phase1,3.2.4,MacIntel,60,left,1.207000017,4,0,4,0,1,3,1,0,240,120,1,239,,,,,,,,,,,,,,,,,,
,,1,2,,,,,,,1,3,2,stim/32.jpeg,HouseObjects,1,stim/objects/HouseObjects/safetypin.png,0.5,3,-0.2,-0.15,left,34,2020-12-07_16h10.37.794,premup-three_ses-01_part-01_label-phase1,3.2.4,MacIntel,60,left,1.082999945,4,0,4,0,1,3,1,0,240,9,1,239,,,,,,,,,,,,,,,,,,
,,0,3,,,,,,,2,6,2,stim/62.jpeg,HouseObjects,1,stim/objects/HouseObjects/safetypin2.png,0.7,2,0.2,0.15,left,34,2020-12-07_16h10.37.794,premup-three_ses-01_part-01_label-phase1,3.2.4,MacIntel,60,right,1.428000212,4,0,4,0,1,3,1,0,240,137,1,239,,,,,,,,,,,,,,,,,,
,,0,4,,,,,,,3,1,1,stim/11.jpeg,Instruments,2,stim/objects/Instruments/timbal2.png,0.9,1,-0.2,0.15,right,34,2020-12-07_16h10.37.794,premup-three_ses-01_part-01_label-phase1,3.2.4,MacIntel,60,left,0.981999874,4,0,4,0,1,3,1,0,240,180,1,239,,,,,,,,,,,,,,,,,,
,,1,5,,,,,,,3,1,2,stim/12.jpeg,Instruments,2,stim/objects/Instruments/triangle2.png,0.9,3,-0.2,-0.15,right,34,2020-12-07_16h10.37.794,premup-three_ses-01_part-01_label-phase1,3.2.4,MacIntel,60,right,0.774999857,4,0,4,0,1,3,1,0,240,181,1,239,,,,,,,,,,,,,,,,,,
,,0,6,,,,,,,1,4,3,stim/43.jpeg,HouseObjects,1,stim/objects/HouseObjects/teapot.png,0.5,4,0.2,-0.15,left,34,2020-12-07_16h10.37.794,premup-three_ses-01_part-01_label-phase1,3.2.4,MacIntel,60,right,1.083999872,4,0,4,0,1,3,1,0,240,54,1,239,,,,,,,,,,,,,,,,,,
,,1,7,,,,,,,3,1,3,stim/13.jpeg,Instruments,2,stim/objects/Instruments/trombone2.png,0.9,2,0.2,0.15,right,34,2020-12-07_16h10.37.794,premup-three_ses-01_part-01_label-phase1,3.2.4,MacIntel,60,right,1.345000029,4,0,4,0,1,3,1,0,240,178,1,239,,,,,,,,,,,,,,,,,,
,,0,8,,,,,,,2,5,2,stim/52.jpeg,Instruments,2,stim/objects/Instruments/violin.png,0.7,4,0.2,-0.15,right,34,2020-12-07_16h10.37.794,premup-three_ses-01_part-01_label-phase1,3.2.4,MacIntel,60,left,1.299000025,4,0,4,0,1,3,1,0,240,101,1,239,,,,,,,,,,,,,,,,,,
,,1,9,,,,,,,3,2,2,stim/22.jpeg,Instruments,2,stim/objects/Instruments/violin2.png,0.1,4,0.2,-0.15,right,34,2020-12-07_16h10.37.794,premup-three_ses-01_part-01_label-phase1,3.2.4,MacIntel,60,right,1.090999842,4,0,4,0,1,3,1,0,240,237,1,239,,,,,,,,,,,,,,,,,,
,,1,10,,,,,,,3,1,1,stim/11.jpeg,Instruments,2,stim/objects/Instruments/timbal2.png,0.9,1,-0.2,0.15,right,34,2020-12-07_16h10.37.794,premup-three_ses-01_part-01_label-phase1,3.2.4,MacIntel,60,right,0.881999969,4,0,4,0,1,3,1,0,240,176,1,239,,,,,,,,,,,,,,,,,,
,,1,11,,,,,,,2,6,3,stim/63.jpeg,HouseObjects,1,stim/objects/HouseObjects/saw2.png,0.7,3,-0.2,-0.15,left,34,2020-12-07_16h10.37.794,premup-three_ses-01_part-01_label-phase1,3.2.4,MacIntel,60,left,0.979000092,4,0,4,0,1,3,1,0,240,142,1,239,,,,,,,,,,,,,,,,,,
,,0,12,,,,,,,2,5,1,stim/51.jpeg,Instruments,2,stim/objects/Instruments/tuba.png,0.7,2,0.2,0.15,right,34,2020-12-07_16h10.37.794,premup-three_ses-01_part-01_label-phase1,3.2.4,MacIntel,60,left,1.215000153,4,0,4,0,1,3,1,0,240,104,1,239,,,,,,,,,,,,,,,,,,
,,0,13,,,,,,,2,5,4,stim/54.jpeg,HouseObjects,1,stim/objects/HouseObjects/wateringcan.png,0.3,3,-0.2,-0.15,left,34,2020-12-07_16h10.37.794,premup-three_ses-01_part-01_label-phase1,3.2.4,MacIntel,60,right,1.396000147,4,0,4,0,1,3,1,0,240,83,1,239,,,,,,,,,,,,,,,,,,
,,1,14,,,,,,,3,1,1,stim/11.jpeg,HouseObjects,1,stim/objects/HouseObjects/sponge2.png,0.1,2,0.2,0.15,left,34,2020-12-07_16h10.37.794,premup-three_ses-01_part-01_label-phase1,3.2.4,MacIntel,60,left,0.789000034,4,0,4,0,1,3,1,0,240,160,1,239,,,,,,,,,,,,,,,,,,
,,0,15,,,,,,,2,5,1,stim/51.jpeg,Instruments,2,stim/objects/Instruments/tuba.png,0.7,1,-0.2,0.15,right,34,2020-12-07_16h10.37.794,premup-three_ses-01_part-01_label-phase1,3.2.4,MacIntel,60,left,0.938999891,4,0,4,0,1,3,1,0,240,92,1,239,,,,,,,,,,,,,,,,,,
,,1,16,,,,,,,2,6,1,stim/61.jpeg,Instruments,2,stim/objects/Instruments/record_player2.png,0.3,3,-0.2,-0.15,right,34,2020-12-07_16h10.37.794,premup-three_ses-01_part-01_label-phase1,3.2.4,MacIntel,60,right,0.967000008,4,0,4,0,1,3,1,0,240,156,1,239,,,,,,,,,,,,,,,,,,
,,0,17,,,,,,,1,4,1,stim/41.jpeg,Instruments,2,stim/objects/Instruments/timbal.png,0.5,2,0.2,0.15,right,34,2020-12-07_16h10.37.794,premup-three_ses-01_part-01_label-phase1,3.2.4,MacIntel,60,left,0.79399991,4,0,4,0,1,3,1,0,240,76,1,239,,,,,,,,,,,,,,,,,,
,,1,18,,,,,,,1,3,2,stim/32.jpeg,Instruments,2,stim/objects/Instruments/saxophone.png,0.5,1,-0.2,0.15,right,34,2020-12-07_16h10.37.794,premup-three_ses-01_part-01_label-phase1,3.2.4,MacIntel,60,right,0.624000072,4,0,4,0,1,3,1,0,240,21,1,239,,,,,,,,,,,,,,,,,,
,,1,19,,,,,,,3,1,1,stim/11.jpeg,Instruments,2,stim/objects/Instruments/timbal2.png,0.9,1,-0.2,0.15,right,34,2020-12-07_16h10.37.794,premup-three_ses-01_part-01_label-phase1,3.2.4,MacIntel,60,right,0.835999966,4,0,4,0,1,3,1,0,240,184,1,239,,,,,,,,,,,,,,,,,,
,,0,20,,,,,,,2,6,1,stim/61.jpeg,Instruments,2,stim/objects/Instruments/record_player2.png,0.3,1,-0.2,0.15,right,34,2020-12-07_16h10.37.794,premup-three_ses-01_part-01_label-phase1,3.2.4,MacIntel,60,left,0.848999977,4,0,4,0,1,3,1,0,240,148,1,239,,,,,,,,,,,,,,,,,,
,,1,21,,,,,,,1,3,3,stim/33.jpeg,Instruments,2,stim/objects/Instruments/speaker.png,0.5,2,0.2,0.15,right,34,2020-12-07_16h10.37.794,premup-three_ses-01_part-01_label-phase1,3.2.4,MacIntel,60,right,0.559999943,4,0,4,0,1,3,1,0,240,30,1,239,,,,,,,,,,,,,,,,,,
,,0,22,,,,,,,3,2,2,stim/22.jpeg,HouseObjects,1,stim/objects/HouseObjects/towel2.png,0.9,1,-0.2,0.15,left,34,2020-12-07_16h10.37.794,premup-three_ses-01_part-01_label-phase1,3.2.4,MacIntel,60,right,0.75999999,4,0,4,0,1,3,1,0,240,225,1,239,,,,,,,,,,,,,,,,,,
,,1,23,,,,,,,3,2,1,stim/21.jpeg,HouseObjects,1,stim/objects/HouseObjects/thread2.png,0.9,4,0.2,-0.15,left,34,2020-12-07_16h10.37.794,premup-three_ses-01_part-01_label-phase1,3.2.4,MacIntel,60,left,0.599000216,4,0,4,0,1,3,1,0,240,204,1,239,,,,,,,,,,,,,,,,,,
,,0,24,,,,,,,2,5,4,stim/54.jpeg,Instruments,2,stim/objects/Instruments/xylophone.png,0.7,4,0.2,-0.15,right,34,2020-12-07_16h10.37.794,premup-three_ses-01_part-01_label-phase1,3.2.4,MacIntel,60,left,0.690000057,4,0,4,0,1,3,1,0,240,111,1,239,,,,,,,,,,,,,,,,,,
,,1,25,,,,,,,2,5,4,stim/54.jpeg,Instruments,2,stim/objects/Instruments/xylophone.png,0.7,1,-0.2,0.15,right,34,2020-12-07_16h10.37.794,premup-three_ses-01_part-01_label-phase1,3.2.4,MacIntel,60,right,0.77699995,4,0,4,0,1,3,1,0,240,119,1,239,,,,,,,,,,,,,,,,,,
,,0,26,,,,,,,3,2,2,stim/22.jpeg,HouseObjects,1,stim/objects/HouseObjects/towel2.png,0.9,3,-0.2,-0.15,left,34,2020-12-07_16h10.37.794,premup-three_ses-01_part-01_label-phase1,3.2.4,MacIntel,60,right,0.703999996,4,0,4,0,1,3,1,0,240,209,1,239,,,,,,,,,,,,,,,,,,
,,1,27,,,,,,,2,6,3,stim/63.jpeg,HouseObjects,1,stim/objects/HouseObjects/saw2.png,0.7,3,-0.2,-0.15,left,34,2020-12-07_16h10.37.794,premup-three_ses-01_part-01_label-phase1,3.2.4,MacIntel,60,left,0.763999939,4,0,4,0,1,3,1,0,240,122,1,239,,,,,,,,,,,,,,,,,,
,,1,28,,,,,,,1,3,1,stim/31.jpeg,HouseObjects,1,stim/objects/HouseObjects/rug.png,0.5,3,-0.2,-0.15,left,34,2020-12-07_16h10.37.794,premup-three_ses-01_part-01_label-phase1,3.2.4,MacIntel,60,left,0.787999868,4,0,4,0,1,3,1,0,240,4,1,239,,,,,,,,,,,,,,,,,,
,,0,29,,,,,,,3,1,2,stim/12.jpeg,Instruments,2,stim/objects/Instruments/triangle2.png,0.9,1,-0.2,0.15,right,34,2020-12-07_16h10.37.794,premup-three_ses-01_part-01_label-phase1,3.2.4,MacIntel,60,left,0.847000122,4,0,4,0,1,3,1,0,240,193,1,239,,,,,,,,,,,,,,,,,,
,,0,30,,,,,,,1,4,1,stim/41.jpeg,HouseObjects,1,stim/objects/HouseObjects/sponge.png,0.5,3,-0.2,-0.15,left,34,2020-12-07_16h10.37.794,premup-three_ses-01_part-01_label-phase1,3.2.4,MacIntel,60,right,1.101000071,4,0,4,0,1,3,1,0,240,52,1,239,,,,,,,,,,,,,,,,,,
,,1,31,,,,,,,1,4,3,stim/43.jpeg,HouseObjects,1,stim/objects/HouseObjects/teapot.png,0.5,4,0.2,-0.15,left,34,2020-12-07_16h10.37.794,premup-three_ses-01_part-01_label-phase1,3.2.4,MacIntel,60,left,0.691999912,4,0,4,0,1,3,1,0,240,42,1,239,,,,,,,,,,,,,,,,,,
,,1,32,,,,,,,2,6,3,stim/63.jpeg,HouseObjects,1,stim/objects/HouseObjects/saw2.png,0.7,4,0.2,-0.15,left,34,2020-12-07_16h10.37.794,premup-three_ses-01_part-01_label-phase1,3.2.4,MacIntel,60,left,1.110999823,4,0,4,0,1,3,1,0,240,134,1,239,,,,,,,,,,,,,,,,,,
,,1,33,,,,,,,1,3,3,stim/33.jpeg,Instruments,2,stim/objects/Instruments/speaker.png,0.5,3,-0.2,-0.15,right,34,2020-12-07_16h10.37.794,premup-three_ses-01_part-01_label-phase1,3.2.4,MacIntel,60,right,0.796000004,4,0,4,0,1,3,1,0,240,22,1,239,,,,,,,,,,,,,,,,,,
,,1,34,,,,,,,2,6,4,stim/64.jpeg,HouseObjects,1,stim/objects/HouseObjects/scale2.png,0.7,4,0.2,-0.15,left,34,2020-12-07_16h10.37.794,premup-three_ses-01_part-01_label-phase1,3.2.4,MacIntel,60,left,0.837999821,4,0,4,0,1,3,1,0,240,143,1,239,,,,,,,,,,,,,,,,,,
,,0,35,,,,,,,1,4,4,stim/44.jpeg,HouseObjects,1,stim/objects/HouseObjects/thermometer.png,0.5,1,-0.2,0.15,left,34,2020-12-07_16h10.37.794,premup-three_ses-01_part-01_label-phase1,3.2.4,MacIntel,60,right,0.72300005,4,0,4,0,1,3,1,0,240,51,1,239,,,,,,,,,,,,,,,,,,
,,1,36,,,,,,,3,2,4,stim/24.jpeg,HouseObjects,1,stim/objects/HouseObjects/wateringcan2.png,0.9,4,0.2,-0.15,left,34,2020-12-07_16h10.37.794,premup-three_ses-01_part-01_label-phase1,3.2.4,MacIntel,60,left,0.585999966,4,0,4,0,1,3,1,0,240,227,1,239,,,,,,,,,,,,,,,,,,
,,1,37,,,,,,,2,6,4,stim/64.jpeg,HouseObjects,1,stim/objects/HouseObjects/scale2.png,0.7,4,0.2,-0.15,left,34,2020-12-07_16h10.37.794,premup-three_ses-01_part-01_label-phase1,3.2.4,MacIntel,60,left,0.835000038,4,0,4,0,1,3,1,0,240,139,1,239,,,,,,,,,,,,,,,,,,
,,0,38,,,,,,,1,4,1,stim/41.jpeg,Instruments,2,stim/objects/Instruments/timbal.png,0.5,1,-0.2,0.15,right,34,2020-12-07_16h10.37.794,premup-three_ses-01_part-01_label-phase1,3.2.4,MacIntel,60,left,1.042000055,4,0,4,0,1,3,1,0,240,72,1,239,,,,,,,,,,,,,,,,,,
,,1,39,,,,,,,3,1,4,stim/14.jpeg,Instruments,2,stim/objects/Instruments/trumpet2.png,0.9,3,-0.2,-0.15,right,34,2020-12-07_16h10.37.794,premup-three_ses-01_part-01_label-phase1,3.2.4,MacIntel,60,right,0.473999977,4,0,4,0,1,3,1,0,240,191,1,239,,,,,,,,,,,,,,,,,,
,,0,40,,,,,,,2,6,2,stim/62.jpeg,HouseObjects,1,stim/objects/HouseObjects/safetypin2.png,0.7,1,-0.2,0.15,left,34,2020-12-07_16h10.37.794,premup-three_ses-01_part-01_label-phase1,3.2.4,MacIntel,60,right,0.694000006,4,0,4,0,1,3,1,0,240,141,1,239,,,,,,,,,,,,,,,,,,
,,1,41,,,,,,,2,6,1,stim/61.jpeg,HouseObjects,1,stim/objects/HouseObjects/rug2.png,0.7,2,0.2,0.15,left,34,2020-12-07_16h10.37.794,premup-three_ses-01_part-01_label-phase1,3.2.4,MacIntel,60,left,0.556999922,4,0,4,0,1,3,1,0,240,136,1,239,,,,,,,,,,,,,,,,,,
,,1,42,,,,,,,1,3,4,stim/34.jpeg,HouseObjects,1,stim/objects/HouseObjects/scale.png,0.5,3,-0.2,-0.15,left,34,2020-12-07_16h10.37.794,premup-three_ses-01_part-01_label-phase1,3.2.4,MacIntel,60,left,0.680000067,4,0,4,0,1,3,1,0,240,11,1,239,,,,,,,,,,,,,,,,,,
,,1,43,,,,,,,1,3,3,stim/33.jpeg,Instruments,2,stim/objects/Instruments/speaker.png,0.5,3,-0.2,-0.15,right,34,2020-12-07_16h10.37.794,premup-three_ses-01_part-01_label-phase1,3.2.4,MacIntel,60,right,0.883999825,4,0,4,0,1,3,1,0,240,34,1,239,,,,,,,,,,,,,,,,,,
,,0,44,,,,,,,1,4,3,stim/43.jpeg,HouseObjects,1,stim/objects/HouseObjects/teapot.png,0.5,4,0.2,-0.15,left,34,2020-12-07_16h10.37.794,premup-three_ses-01_part-01_label-phase1,3.2.4,MacIntel,60,right,0.974999905,4,0,4,0,1,3,1,0,240,58,1,239,,,,,,,,,,,,,,,,,,
,,1,45,,,,,,,2,6,4,stim/64.jpeg,HouseObjects,1,stim/objects/HouseObjects/scale2.png,0.7,2,0.2,0.15,left,34,2020-12-07_16h10.37.794,premup-three_ses-01_part-01_label-phase1,3.2.4,MacIntel,60,left,0.559999943,4,0,4,0,1,3,1,0,240,147,1,239,,,,,,,,,,,,,,,,,,
,,0,46,,,,,,,3,2,3,stim/23.jpeg,HouseObjects,1,stim/objects/HouseObjects/vacuumcleaner2.png,0.9,4,0.2,-0.15,left,34,2020-12-07_16h10.37.794,premup-three_ses-01_part-01_label-phase1,3.2.4,MacIntel,60,right,1.011999846,4,0,4,0,1,3,1,0,240,210,1,239,,,,,,,,,,,,,,,,,,
,,0,47,,,,,,,2,6,4,stim/64.jpeg,Instruments,2,stim/objects/Instruments/tambourine2.png,0.3,1,-0.2,0.15,right,34,2020-12-07_16h10.37.794,premup-three_ses-01_part-01_label-phase1,3.2.4,MacIntel,60,left,0.520999908,4,0,4,0,1,3,1,0,240,155,1,239,,,,,,,,,,,,,,,,,,
,,0,48,,,,,,,3,1,3,stim/13.jpeg,HouseObjects,1,stim/objects/HouseObjects/teapot2.png,0.1,1,-0.2,0.15,left,34,2020-12-07_16h10.37.794,premup-three_ses-01_part-01_label-phase1,3.2.4,MacIntel,60,right,0.554000139,4,0,4,0,1,3,1,0,240,162,1,239,,,,,,,,,,,,,,,,,,
,,1,49,,,,,,,1,4,3,stim/43.jpeg,HouseObjects,1,stim/objects/HouseObjects/teapot.png,0.5,2,0.2,0.15,left,34,2020-12-07_16h10.37.794,premup-three_ses-01_part-01_label-phase1,3.2.4,MacIntel,60,left,0.743000031,4,0,4,0,1,3,1,0,240,46,1,239,,,,,,,,,,,,,,,,,,
,,0,50,,,,,,,1,4,3,stim/43.jpeg,Instruments,2,stim/objects/Instruments/trombone.png,0.5,3,-0.2,-0.15,right,34,2020-12-07_16h10.37.794,premup-three_ses-01_part-01_label-phase1,3.2.4,MacIntel,60,left,0.736999989,4,0,4,0,1,3,1,0,240,74,1,239,,,,,,,,,,,,,,,,,,
,,1,51,,,,,,,2,6,3,stim/63.jpeg,Instruments,2,stim/objects/Instruments/speaker2.png,0.3,4,0.2,-0.15,right,34,2020-12-07_16h10.37.794,premup-three_ses-01_part-01_label-phase1,3.2.4,MacIntel,60,right,0.766000032,4,0,4,0,1,3,1,0,240,154,1,239,,,,,,,,,,,,,,,,,,
,,0,52,,,,,,,2,5,1,stim/51.jpeg,HouseObjects,1,stim/objects/HouseObjects/thread.png,0.3,4,0.2,-0.15,left,34,2020-12-07_16h10.37.794,premup-three_ses-01_part-01_label-phase1,3.2.4,MacIntel,60,right,0.595000029,4,0,4,0,1,3,1,0,240,84,1,239,,,,,,,,,,,,,,,,,,
,,1,53,,,,,,,3,2,3,stim/23.jpeg,HouseObjects,1,stim/objects/HouseObjects/vacuumcleaner2.png,0.9,1,-0.2,0.15,left,34,2020-12-07_16h10.37.794,premup-three_ses-01_part-01_label-phase1,3.2.4,MacIntel,60,left,0.609999895,4,0,4,0,1,3,1,0,240,218,1,239,,,,,,,,,,,,,,,,,,
,,1,54,,,,,,,2,5,3,stim/53.jpeg,Instruments,2,stim/objects/Instruments/vuvuzela.png,0.7,4,0.2,-0.15,right,34,2020-12-07_16h10.37.794,premup-three_ses-01_part-01_label-phase1,3.2.4,MacIntel,60,right,1.017999887,4,0,4,0,1,3,1,0,240,106,1,239,,,,,,,,,,,,,,,,,,
,,1,55,,,,,,,2,6,4,stim/64.jpeg,HouseObjects,1,stim/objects/HouseObjects/scale2.png,0.7,2,0.2,0.15,left,34,2020-12-07_16h10.37.794,premup-three_ses-01_part-01_label-phase1,3.2.4,MacIntel,60,left,0.624000072,4,0,4,0,1,3,1,0,240,131,1,239,,,,,,,,,,,,,,,,,,
,,1,56,,,,,,,1,3,2,stim/32.jpeg,Instruments,2,stim/objects/Instruments/saxophone.png,0.5,1,-0.2,0.15,right,34,2020-12-07_16h10.37.794,premup-three_ses-01_part-01_label-phase1,3.2.4,MacIntel,60,right,0.735000134,4,0,4,0,1,3,1,0,240,37,1,239,,,,,,,,,,,,,,,,,,
,,0,57,,,,,,,2,5,2,stim/52.jpeg,Instruments,2,stim/objects/Instruments/violin.png,0.7,2,0.2,0.15,right,34,2020-12-07_16h10.37.794,premup-three_ses-01_part-01_label-phase1,3.2.4,MacIntel,60,left,0.874000072,4,0,4,0,1,3,1,0,240,105,1,239,,,,,,,,,,,,,,,,,,
,,1,58,,,,,,,3,1,3,stim/13.jpeg,Instruments,2,stim/objects/Instruments/trombone2.png,0.9,2,0.2,0.15,right,34,2020-12-07_16h10.37.794,premup-three_ses-01_part-01_label-phase1,3.2.4,MacIntel,60,right,0.734999895,4,0,4,0,1,3,1,0,240,170,1,239,,,,,,,,,,,,,,,,,,
,,1,59,,,,,,,3,2,4,stim/24.jpeg,HouseObjects,1,stim/objects/HouseObjects/wateringcan2.png,0.9,1,-0.2,0.15,left,34,2020-12-07_16h10.37.794,premup-three_ses-01_part-01_label-phase1,3.2.4,MacIntel,60,left,1.513000011,4,0,4,0,1,3,1,0,240,231,1,239,,,,,,,,,,,,,,,,,,
,,1,60,,,,,,,3,1,4,stim/14.jpeg,Instruments,2,stim/objects/Instruments/trumpet2.png,0.9,1,-0.2,0.15,right,34,2020-12-07_16h10.37.794,premup-three_ses-01_part-01_label-phase1,3.2.4,MacIntel,60,right,1.165999889,4,0,4,0,1,3,1,0,240,179,1,239,,,,,,,,,,,,,,,,,,
,,0,61,,,,,,,1,4,4,stim/44.jpeg,Instruments,2,stim/objects/Instruments/trumpet.png,0.5,2,0.2,0.15,right,34,2020-12-07_16h10.37.794,premup-three_ses-01_part-01_label-phase1,3.2.4,MacIntel,60,left,1.144999981,4,0,4,0,1,3,1,0,240,75,1,239,,,,,,,,,,,,,,,,,,
,,0,62,,,,,,,1,3,3,stim/33.jpeg,HouseObjects,1,stim/objects/HouseObjects/saw.png,0.5,2,0.2,0.15,left,34,2020-12-07_16h10.37.794,premup-three_ses-01_part-01_label-phase1,3.2.4,MacIntel,60,right,0.631000042,4,0,4,0,1,3,1,0,240,6,1,239,,,,,,,,,,,,,,,,,,
,,1,63,,,,,,,1,4,2,stim/42.jpeg,HouseObjects,1,stim/objects/HouseObjects/spraybottle.png,0.5,4,0.2,-0.15,left,34,2020-12-07_16h10.37.794,premup-three_ses-01_part-01_label-phase1,3.2.4,MacIntel,60,left,0.576999903,4,0,4,0,1,3,1,0,240,57,1,239,,,,,,,,,,,,,,,,,,
,,0,64,,,,,,,3,2,2,stim/22.jpeg,HouseObjects,1,stim/objects/HouseObjects/towel2.png,0.9,2,0.2,0.15,left,34,2020-12-07_16h10.37.794,premup-three_ses-01_part-01_label-phase1,3.2.4,MacIntel,60,right,0.785000086,4,0,4,0,1,3,1,0,240,201,1,239,,,,,,,,,,,,,,,,,,
,,0,65,,,,,,,3,2,4,stim/24.jpeg,Instruments,2,stim/objects/Instruments/xylophone2.png,0.1,3,-0.2,-0.15,right,34,2020-12-07_16h10.37.794,premup-three_ses-01_part-01_label-phase1,3.2.4,MacIntel,60,left,0.604000092,4,0,4,0,1,3,1,0,240,239,1,239,,,,,,,,,,,,,,,,,,
,,0,66,,,,,,,3,2,2,stim/22.jpeg,HouseObjects,1,stim/objects/HouseObjects/towel2.png,0.9,4,0.2,-0.15,left,34,2020-12-07_16h10.37.794,premup-three_ses-01_part-01_label-phase1,3.2.4,MacIntel,60,right,0.695999861,4,0,4,0,1,3,1,0,240,221,1,239,,,,,,,,,,,,,,,,,,
,,1,67,,,,,,,1,4,3,stim/43.jpeg,HouseObjects,1,stim/objects/HouseObjects/teapot.png,0.5,2,0.2,0.15,left,34,2020-12-07_16h10.37.794,premup-three_ses-01_part-01_label-phase1,3.2.4,MacIntel,60,left,0.577000141,4,0,4,0,1,3,1,0,240,50,1,239,,,,,,,,,,,,,,,,,,
,,1,68,,,,,,,3,2,1,stim/21.jpeg,HouseObjects,1,stim/objects/HouseObjects/thread2.png,0.9,2,0.2,0.15,left,34,2020-12-07_16h10.37.794,premup-three_ses-01_part-01_label-phase1,3.2.4,MacIntel,60,left,1.253999949,4,0,4,0,1,3,1,0,240,216,1,239,,,,,,,,,,,,,,,,,,
,,0,69,,,,,,,3,1,4,stim/14.jpeg,Instruments,2,stim/objects/Instruments/trumpet2.png,0.9,4,0.2,-0.15,right,34,2020-12-07_16h10.37.794,premup-three_ses-01_part-01_label-phase1,3.2.4,MacIntel,60,left,1.585000038,4,0,4,0,1,3,1,0,240,187,1,239,,,,,,,,,,,,,,,,,,
,,1,70,,,,,,,2,5,4,stim/54.jpeg,Instruments,2,stim/objects/Instruments/xylophone.png,0.7,1,-0.2,0.15,right,34,2020-12-07_16h10.37.794,premup-three_ses-01_part-01_label-phase1,3.2.4,MacIntel,60,right,0.67200017,4,0,4,0,1,3,1,0,240,95,1,239,,,,,,,,,,,,,,,,,,
,,1,71,,,,,,,2,5,1,stim/51.jpeg,Instruments,2,stim/objects/Instruments/tuba.png,0.7,2,0.2,0.15,right,34,2020-12-07_16h10.37.794,premup-three_ses-01_part-01_label-phase1,3.2.4,MacIntel,60,right,0.809000015,4,0,4,0,1,3,1,0,240,116,1,239,,,,,,,,,,,,,,,,,,
,,0,72,,,,,,,1,3,2,stim/32.jpeg,Instruments,2,stim/objects/Instruments/saxophone.png,0.5,1,-0.2,0.15,right,34,2020-12-07_16h10.37.794,premup-three_ses-01_part-01_label-phase1,3.2.4,MacIntel,60,left,1.440999985,4,0,4,0,1,3,1,0,240,33,1,239,,,,,,,,,,,,,,,,,,
,,0,73,,,,,,,2,6,2,stim/62.jpeg,HouseObjects,1,stim/objects/HouseObjects/safetypin2.png,0.7,3,-0.2,-0.15,left,34,2020-12-07_16h10.37.794,premup-three_ses-01_part-01_label-phase1,3.2.4,MacIntel,60,,,4,0,4,0,1,3,1,0,240,133,1,239,,,,,,,,,,,,,,,,,,
,,1,74,,,,,,,2,5,4,stim/54.jpeg,Instruments,2,stim/objects/Instruments/xylophone.png,0.7,3,-0.2,-0.15,right,34,2020-12-07_16h10.37.794,premup-three_ses-01_part-01_label-phase1,3.2.4,MacIntel,60,right,0.719000101,4,0,4,0,1,3,1,0,240,103,1,239,,,,,,,,,,,,,,,,,,
,,0,75,,,,,,,1,4,4,stim/44.jpeg,HouseObjects,1,stim/objects/HouseObjects/thermometer.png,0.5,3,-0.2,-0.15,left,34,2020-12-07_16h10.37.794,premup-three_ses-01_part-01_label-phase1,3.2.4,MacIntel,60,right,0.846999884,4,0,4,0,1,3,1,0,240,43,1,239,,,,,,,,,,,,,,,,,,
,,0,76,,,,,,,1,3,4,stim/34.jpeg,HouseObjects,1,stim/objects/HouseObjects/scale.png,0.5,3,-0.2,-0.15,left,34,2020-12-07_16h10.37.794,premup-three_ses-01_part-01_label-phase1,3.2.4,MacIntel,60,right,0.773999929,4,0,4,0,1,3,1,0,240,3,1,239,,,,,,,,,,,,,,,,,,
,,1,77,,,,,,,3,2,4,stim/24.jpeg,HouseObjects,1,stim/objects/HouseObjects/wateringcan2.png,0.9,3,-0.2,-0.15,left,34,2020-12-07_16h10.37.794,premup-three_ses-01_part-01_label-phase1,3.2.4,MacIntel,60,left,0.487999916,4,0,4,0,1,3,1,0,240,235,1,239,,,,,,,,,,,,,,,,,,
,,1,78,,,,,,,2,6,3,stim/63.jpeg,Instruments,2,stim/objects/Instruments/speaker2.png,0.3,3,-0.2,-0.15,right,34,2020-12-07_16h10.37.794,premup-three_ses-01_part-01_label-phase1,3.2.4,MacIntel,60,right,0.821000099,4,0,4,0,1,3,1,0,240,158,1,239,,,,,,,,,,,,,,,,,,
,,1,79,,,,,,,1,3,1,stim/31.jpeg,HouseObjects,1,stim/objects/HouseObjects/rug.png,0.5,2,0.2,0.15,left,34,2020-12-07_16h10.37.794,premup-three_ses-01_part-01_label-phase1,3.2.4,MacIntel,60,left,1.075000048,4,0,4,0,1,3,1,0,240,12,1,239,,,,,,,,,,,,,,,,,,
,,0,80,,,,,,,3,1,3,stim/13.jpeg,Instruments,2,stim/objects/Instruments/trombone2.png,0.9,3,-0.2,-0.15,right,34,2020-12-07_16h10.37.794,premup-three_ses-01_part-01_label-phase1,3.2.4,MacIntel,60,left,0.712000132,4,0,4,0,1,3,1,0,240,198,1,239,,,,,,,,,,,,,,,,,,
,,0,81,,,,,,,1,4,1,stim/41.jpeg,HouseObjects,1,stim/objects/HouseObjects/sponge.png,0.5,3,-0.2,-0.15,left,34,2020-12-07_16h10.37.794,premup-three_ses-01_part-01_label-phase1,3.2.4,MacIntel,60,right,0.532999992,4,0,4,0,1,3,1,0,240,40,1,239,,,,,,,,,,,,,,,,,,
,,1,82,,,,,,,2,5,4,stim/54.jpeg,Instruments,2,stim/objects/Instruments/xylophone.png,0.7,2,0.2,0.15,right,34,2020-12-07_16h10.37.794,premup-three_ses-01_part-01_label-phase1,3.2.4,MacIntel,60,right,1.088999987,4,0,4,0,1,3,1,0,240,99,1,239,,,,,,,,,,,,,,,,,,
,,1,83,,,,,,,1,4,4,stim/44.jpeg,Instruments,2,stim/objects/Instruments/trumpet.png,0.5,1,-0.2,0.15,right,34,2020-12-07_16h10.37.794,premup-three_ses-01_part-01_label-phase1,3.2.4,MacIntel,60,right,0.78399992,4,0,4,0,1,3,1,0,240,63,1,239,,,,,,,,,,,,,,,,,,
,,1,84,,,,,,,1,3,1,stim/31.jpeg,Instruments,2,stim/objects/Instruments/record_player.png,0.5,4,0.2,-0.15,right,34,2020-12-07_16h10.37.794,premup-three_ses-01_part-01_label-phase1,3.2.4,MacIntel,60,right,0.715000153,4,0,4,0,1,3,1,0,240,24,1,239,,,,,,,,,,,,,,,,,,
,,0,85,,,,,,,2,6,3,stim/63.jpeg,HouseObjects,1,stim/objects/HouseObjects/saw2.png,0.7,2,0.2,0.15,left,34,2020-12-07_16h10.37.794,premup-three_ses-01_part-01_label-phase1,3.2.4,MacIntel,60,right,0.664999962,4,0,4,0,1,3,1,0,240,130,1,239,,,,,,,,,,,,,,,,,,
,,0,86,,,,,,,1,4,3,stim/43.jpeg,Instruments,2,stim/objects/Instruments/trombone.png,0.5,4,0.2,-0.15,right,34,2020-12-07_16h10.37.794,premup-three_ses-01_part-01_label-phase1,3.2.4,MacIntel,60,left,0.646999836,4,0,4,0,1,3,1,0,240,62,1,239,,,,,,,,,,,,,,,,,,
,,1,87,,,,,,,1,4,2,stim/42.jpeg,Instruments,2,stim/objects/Instruments/triangle.png,0.5,3,-0.2,-0.15,right,34,2020-12-07_16h10.37.794,premup-three_ses-01_part-01_label-phase1,3.2.4,MacIntel,60,right,0.490999937,4,0,4,0,1,3,1,0,240,77,1,239,,,,,,,,,,,,,,,,,,
,,1,88,,,,,,,2,5,2,stim/52.jpeg,Instruments,2,stim/objects/Instruments/violin.png,0.7,3,-0.2,-0.15,right,34,2020-12-07_16h10.37.794,premup-three_ses-01_part-01_label-phase1,3.2.4,MacIntel,60,right,0.709000111,4,0,4,0,1,3,1,0,240,93,1,239,,,,,,,,,,,,,,,,,,
,,0,89,,,,,,,1,4,1,stim/41.jpeg,Instruments,2,stim/objects/Instruments/timbal.png,0.5,2,0.2,0.15,right,34,2020-12-07_16h10.37.794,premup-three_ses-01_part-01_label-phase1,3.2.4,MacIntel,60,left,0.717999935,4,0,4,0,1,3,1,0,240,68,1,239,,,,,,,,,,,,,,,,,,
,,1,90,,,,,,,3,2,1,stim/21.jpeg,Instruments,2,stim/objects/Instruments/tuba2.png,0.1,1,-0.2,0.15,right,34,2020-12-07_16h10.37.794,premup-three_ses-01_part-01_label-phase1,3.2.4,MacIntel,60,right,0.78000021,4,0,4,0,1,3,1,0,240,236,1,239,,,,,,,,,,,,,,,,,,
,,0,91,,,,,,,3,1,4,stim/14.jpeg,HouseObjects,1,stim/objects/HouseObjects/thermometer2.png,0.1,3,-0.2,-0.15,left,34,2020-12-07_16h10.37.794,premup-three_ses-01_part-01_label-phase1,3.2.4,MacIntel,60,right,0.484999895,4,0,4,0,1,3,1,0,240,163,1,239,,,,,,,,,,,,,,,,,,
,,1,92,,,,,,,3,1,3,stim/13.jpeg,Instruments,2,stim/objects/Instruments/trombone2.png,0.9,2,0.2,0.15,right,34,2020-12-07_16h10.37.794,premup-three_ses-01_part-01_label-phase1,3.2.4,MacIntel,60,right,0.794999838,4,0,4,0,1,3,1,0,240,182,1,239,,,,,,,,,,,,,,,,,,
,,1,93,,,,,,,1,3,1,stim/31.jpeg,Instruments,2,stim/objects/Instruments/record_player.png,0.5,1,-0.2,0.15,right,34,2020-12-07_16h10.37.794,premup-three_ses-01_part-01_label-phase1,3.2.4,MacIntel,60,right,0.766000032,4,0,4,0,1,3,1,0,240,20,1,239,,,,,,,,,,,,,,,,,,
,,1,94,,,,,,,1,3,3,stim/33.jpeg,Instruments,2,stim/objects/Instruments/speaker.png,0.5,1,-0.2,0.15,right,34,2020-12-07_16h10.37.794,premup-three_ses-01_part-01_label-phase1,3.2.4,MacIntel,60,right,0.86500001,4,0,4,0,1,3,1,0,240,38,1,239,,,,,,,,,,,,,,,,,,
,,1,95,,,,,,,3,2,3,stim/23.jpeg,HouseObjects,1,stim/objects/HouseObjects/vacuumcleaner2.png,0.9,1,-0.2,0.15,left,34,2020-12-07_16h10.37.794,premup-three_ses-01_part-01_label-phase1,3.2.4,MacIntel,60,left,0.808000088,4,0,4,0,1,3,1,0,240,214,1,239,,,,,,,,,,,,,,,,,,
,,1,96,,,,,,,2,6,4,stim/64.jpeg,HouseObjects,1,stim/objects/HouseObjects/scale2.png,0.7,3,-0.2,-0.15,left,34,2020-12-07_16h10.37.794,premup-three_ses-01_part-01_label-phase1,3.2.4,MacIntel,60,left,0.958999872,4,0,4,0,1,3,1,0,240,127,1,239,,,,,,,,,,,,,,,,,,
,,1,97,,,,,,,1,3,1,stim/31.jpeg,Instruments,2,stim/objects/Instruments/record_player.png,0.5,2,0.2,0.15,right,34,2020-12-07_16h10.37.794,premup-three_ses-01_part-01_label-phase1,3.2.4,MacIntel,60,right,1.130000114,4,0,4,0,1,3,1,0,240,28,1,239,,,,,,,,,,,,,,,,,,
,,1,98,,,,,,,1,4,2,stim/42.jpeg,HouseObjects,1,stim/objects/HouseObjects/spraybottle.png,0.5,2,0.2,0.15,left,34,2020-12-07_16h10.37.794,premup-three_ses-01_part-01_label-phase1,3.2.4,MacIntel,60,left,0.802000046,4,0,4,0,1,3,1,0,240,41,1,239,,,,,,,,,,,,,,,,,,
,,1,99,,,,,,,1,3,4,stim/34.jpeg,Instruments,2,stim/objects/Instruments/tambourine.png,0.5,1,-0.2,0.15,right,34,2020-12-07_16h10.37.794,premup-three_ses-01_part-01_label-phase1,3.2.4,MacIntel,60,right,0.765000105,4,0,4,0,1,3,1,0,240,31,1,239,,,,,,,,,,,,,,,,,,
,,1,100,,,,,,,1,4,2,stim/42.jpeg,HouseObjects,1,stim/objects/HouseObjects/spraybottle.png,0.5,4,0.2,-0.15,left,34,2020-12-07_16h10.37.794,premup-three_ses-01_part-01_label-phase1,3.2.4,MacIntel,60,left,0.986999989,4,0,4,0,1,3,1,0,240,45,1,239,,,,,,,,,,,,,,,,,,
,,0,101,,,,,,,2,5,2,stim/52.jpeg,Instruments,2,stim/objects/Instruments/violin.png,0.7,3,-0.2,-0.15,right,34,2020-12-07_16h10.37.794,premup-three_ses-01_part-01_label-phase1,3.2.4,MacIntel,60,left,1.477999926,4,0,4,0,1,3,1,0,240,97,1,239,,,,,,,,,,,,,,,,,,
,,0,102,,,,,,,1,4,1,stim/41.jpeg,HouseObjects,1,stim/objects/HouseObjects/sponge.png,0.5,4,0.2,-0.15,left,34,2020-12-07_16h10.37.794,premup-three_ses-01_part-01_label-phase1,3.2.4,MacIntel,60,right,0.644999981,4,0,4,0,1,3,1,0,240,44,1,239,,,,,,,,,,,,,,,,,,
,,1,103,,,,,,,1,3,2,stim/32.jpeg,HouseObjects,1,stim/objects/HouseObjects/safetypin.png,0.5,4,0.2,-0.15,left,34,2020-12-07_16h10.37.794,premup-three_ses-01_part-01_label-phase1,3.2.4,MacIntel,60,left,0.802000046,4,0,4,0,1,3,1,0,240,17,1,239,,,,,,,,,,,,,,,,,,
,,1,104,,,,,,,2,5,1,stim/51.jpeg,HouseObjects,1,stim/objects/HouseObjects/thread.png,0.3,1,-0.2,0.15,left,34,2020-12-07_16h10.37.794,premup-three_ses-01_part-01_label-phase1,3.2.4,MacIntel,60,left,0.801000118,4,0,4,0,1,3,1,0,240,80,1,239,,,,,,,,,,,,,,,,,,
,,0,105,,,,,,,1,3,3,stim/33.jpeg,HouseObjects,1,stim/objects/HouseObjects/saw.png,0.5,1,-0.2,0.15,left,34,2020-12-07_16h10.37.794,premup-three_ses-01_part-01_label-phase1,3.2.4,MacIntel,60,right,1.051000118,4,0,4,0,1,3,1,0,240,14,1,239,,,,,,,,,,,,,,,,,,
,,0,106,,,,,,,2,5,4,stim/54.jpeg,HouseObjects,1,stim/objects/HouseObjects/wateringcan.png,0.3,2,0.2,0.15,left,34,2020-12-07_16h10.37.794,premup-three_ses-01_part-01_label-phase1,3.2.4,MacIntel,60,right,0.943999767,4,0,4,0,1,3,1,0,240,91,1,239,,,,,,,,,,,,,,,,,,
,,1,107,,,,,,,2,6,2,stim/62.jpeg,HouseObjects,1,stim/objects/HouseObjects/safetypin2.png,0.7,4,0.2,-0.15,left,34,2020-12-07_16h10.37.794,premup-three_ses-01_part-01_label-phase1,3.2.4,MacIntel,60,left,0.784000158,4,0,4,0,1,3,1,0,240,125,1,239,,,,,,,,,,,,,,,,,,
,,0,108,,,,,,,2,6,3,stim/63.jpeg,Instruments,2,stim/objects/Instruments/speaker2.png,0.3,1,-0.2,0.15,right,34,2020-12-07_16h10.37.794,premup-three_ses-01_part-01_label-phase1,3.2.4,MacIntel,60,left,1.020000219,4,0,4,0,1,3,1,0,240,150,1,239,,,,,,,,,,,,,,,,,,
,,0,109,,,,,,,1,4,4,stim/44.jpeg,HouseObjects,1,stim/objects/HouseObjects/thermometer.png,0.5,3,-0.2,-0.15,left,34,2020-12-07_16h10.37.794,premup-three_ses-01_part-01_label-phase1,3.2.4,MacIntel,60,right,0.786000013,4,0,4,0,1,3,1,0,240,47,1,239,,,,,,,,,,,,,,,,,,
,,1,110,,,,,,,3,2,2,stim/22.jpeg,HouseObjects,1,stim/objects/HouseObjects/towel2.png,0.9,2,0.2,0.15,left,34,2020-12-07_16h10.37.794,premup-three_ses-01_part-01_label-phase1,3.2.4,MacIntel,60,left,0.624000072,4,0,4,0,1,3,1,0,240,217,1,239,,,,,,,,,,,,,,,,,,
,,1,111,,,,,,,3,1,2,stim/12.jpeg,Instruments,2,stim/objects/Instruments/triangle2.png,0.9,1,-0.2,0.15,right,34,2020-12-07_16h10.37.794,premup-three_ses-01_part-01_label-phase1,3.2.4,MacIntel,60,right,1.099999905,4,0,4,0,1,3,1,0,240,169,1,239,,,,,,,,,,,,,,,,,,
,,1,112,,,,,,,3,2,3,stim/23.jpeg,HouseObjects,1,stim/objects/HouseObjects/vacuumcleaner2.png,0.9,3,-0.2,-0.15,left,34,2020-12-07_16h10.37.794,premup-three_ses-01_part-01_label-phase1,3.2.4,MacIntel,60,left,0.957999945,4,0,4,0,1,3,1,0,240,222,1,239,,,,,,,,,,,,,,,,,,
,,1,113,,,,,,,3,2,3,stim/23.jpeg,HouseObjects,1,stim/objects/HouseObjects/vacuumcleaner2.png,0.9,2,0.2,0.15,left,34,2020-12-07_16h10.37.794,premup-three_ses-01_part-01_label-phase1,3.2.4,MacIntel,60,left,0.569000006,4,0,4,0,1,3,1,0,240,230,1,239,,,,,,,,,,,,,,,,,,
,,0,114,,,,,,,2,5,2,stim/52.jpeg,HouseObjects,1,stim/objects/HouseObjects/towel.png,0.3,1,-0.2,0.15,left,34,2020-12-07_16h10.37.794,premup-three_ses-01_part-01_label-phase1,3.2.4,MacIntel,60,right,1.023000002,4,0,4,0,1,3,1,0,240,85,1,239,,,,,,,,,,,,,,,,,,
,,0,115,,,,,,,1,3,4,stim/34.jpeg,Instruments,2,stim/objects/Instruments/tambourine.png,0.5,4,0.2,-0.15,right,34,2020-12-07_16h10.37.794,premup-three_ses-01_part-01_label-phase1,3.2.4,MacIntel,60,left,0.879999876,4,0,4,0,1,3,1,0,240,39,1,239,,,,,,,,,,,,,,,,,,
,,0,116,,,,,,,2,6,2,stim/62.jpeg,Instruments,2,stim/objects/Instruments/saxophone2.png,0.3,4,0.2,-0.15,right,34,2020-12-07_16h10.37.794,premup-three_ses-01_part-01_label-phase1,3.2.4,MacIntel,60,left,1.197999954,4,0,4,0,1,3,1,0,240,149,1,239,,,,,,,,,,,,,,,,,,
,,1,117,,,,,,,2,5,3,stim/53.jpeg,Instruments,2,stim/objects/Instruments/vuvuzela.png,0.7,1,-0.2,0.15,right,34,2020-12-07_16h10.37.794,premup-three_ses-01_part-01_label-phase1,3.2.4,MacIntel,60,right,0.433000088,4,0,4,0,1,3,1,0,240,102,1,239,,,,,,,,,,,,,,,,,,
,,1,118,,,,,,,1,3,4,stim/34.jpeg,Instruments,2,stim/objects/Instruments/tambourine.png,0.5,1,-0.2,0.15,right,34,2020-12-07_16h10.37.794,premup-three_ses-01_part-01_label-phase1,3.2.4,MacIntel,60,right,0.723999977,4,0,4,0,1,3,1,0,240,27,1,239,,,,,,,,,,,,,,,,,,
,,0,119,,,,,,,3,1,2,stim/12.jpeg,Instruments,2,stim/objects/Instruments/triangle2.png,0.9,2,0.2,0.15,right,34,2020-12-07_16h10.37.794,premup-three_ses-01_part-01_label-phase1,3.2.4,MacIntel,60,left,1.002000093,4,0,4,0,1,3,1,0,240,165,1,239,,,,,,,,,,,,,,,,,,
,,1,120,,,,,,,2,5,1,stim/51.jpeg,Instruments,2,stim/objects/Instruments/tuba.png,0.7,3,-0.2,-0.15,right,34,2020-12-07_16h10.37.794,premup-three_ses-01_part-01_label-phase1,3.2.4,MacIntel,60,right,0.805000067,4,0,4,0,1,3,1,0,240,108,1,239,,,,,,,,,,,,,,,,,,
,,1,121,,,,,,,2,5,3,stim/53.jpeg,Instruments,2,stim/objects/Instruments/vuvuzela.png,0.7,1,-0.2,0.15,right,34,2020-12-07_16h10.37.794,premup-three_ses-01_part-01_label-phase1,3.2.4,MacIntel,60,right,0.707000017,4,0,4,0,1,3,1,0,240,98,1,239,,,,,,,,,,,,,,,,,,
,,1,122,,,,,,,3,2,4,stim/24.jpeg,HouseObjects,1,stim/objects/HouseObjects/wateringcan2.png,0.9,3,-0.2,-0.15,left,34,2020-12-07_16h10.37.794,premup-three_ses-01_part-01_label-phase1,3.2.4,MacIntel,60,left,0.782000065,4,0,4,0,1,3,1,0,240,211,1,239,,,,,,,,,,,,,,,,,,
,,1,123,,,,,,,1,4,1,stim/41.jpeg,HouseObjects,1,stim/objects/HouseObjects/sponge.png,0.5,4,0.2,-0.15,left,34,2020-12-07_16h10.37.794,premup-three_ses-01_part-01_label-phase1,3.2.4,MacIntel,60,left,0.812999964,4,0,4,0,1,3,1,0,240,56,1,239,,,,,,,,,,,,,,,,,,
,,0,124,,,,,,,2,5,4,stim/54.jpeg,Instruments,2,stim/objects/Instruments/xylophone.png,0.7,1,-0.2,0.15,right,34,2020-12-07_16h10.37.794,premup-three_ses-01_part-01_label-phase1,3.2.4,MacIntel,60,left,1.027999878,4,0,4,0,1,3,1,0,240,115,1,239,,,,,,,,,,,,,,,,,,
,,0,125,,,,,,,1,3,2,stim/32.jpeg,HouseObjects,1,stim/objects/HouseObjects/safetypin.png,0.5,1,-0.2,0.15,left,34,2020-12-07_16h10.37.794,premup-three_ses-01_part-01_label-phase1,3.2.4,MacIntel,60,right,0.678999901,4,0,4,0,1,3,1,0,240,1,1,239,,,,,,,,,,,,,,,,,,
,,1,126,,,,,,,2,5,4,stim/54.jpeg,HouseObjects,1,stim/objects/HouseObjects/wateringcan.png,0.3,2,0.2,0.15,left,34,2020-12-07_16h10.37.794,premup-three_ses-01_part-01_label-phase1,3.2.4,MacIntel,60,left,0.394000053,4,0,4,0,1,3,1,0,240,87,1,239,,,,,,,,,,,,,,,,,,
,,0,127,,,,,,,2,5,2,stim/52.jpeg,Instruments,2,stim/objects/Instruments/violin.png,0.7,2,0.2,0.15,right,34,2020-12-07_16h10.37.794,premup-three_ses-01_part-01_label-phase1,3.2.4,MacIntel,60,left,0.763000011,4,0,4,0,1,3,1,0,240,117,1,239,,,,,,,,,,,,,,,,,,
,,0,128,,,,,,,3,2,4,stim/24.jpeg,HouseObjects,1,stim/objects/HouseObjects/wateringcan2.png,0.9,4,0.2,-0.15,left,34,2020-12-07_16h10.37.794,premup-three_ses-01_part-01_label-phase1,3.2.4,MacIntel,60,right,0.489000082,4,0,4,0,1,3,1,0,240,223,1,239,,,,,,,,,,,,,,,,,,
,,1,129,,,,,,,3,2,1,stim/21.jpeg,HouseObjects,1,stim/objects/HouseObjects/thread2.png,0.9,4,0.2,-0.15,left,34,2020-12-07_16h10.37.794,premup-three_ses-01_part-01_label-phase1,3.2.4,MacIntel,60,left,0.583999872,4,0,4,0,1,3,1,0,240,232,1,239,,,,,,,,,,,,,,,,,,
,,0,130,,,,,,,3,1,1,stim/11.jpeg,Instruments,2,stim/objects/Instruments/timbal2.png,0.9,4,0.2,-0.15,right,34,2020-12-07_16h10.37.794,premup-three_ses-01_part-01_label-phase1,3.2.4,MacIntel,60,left,0.813999891,4,0,4,0,1,3,1,0,240,172,1,239,,,,,,,,,,,,,,,,,,
,,1,131,,,,,,,2,5,2,stim/52.jpeg,Instruments,2,stim/objects/Instruments/violin.png,0.7,2,0.2,0.15,right,34,2020-12-07_16h10.37.794,premup-three_ses-01_part-01_label-phase1,3.2.4,MacIntel,60,right,0.712999821,4,0,4,0,1,3,1,0,240,113,1,239,,,,,,,,,,,,,,,,,,
,,0,132,,,,,,,3,1,2,stim/12.jpeg,Instruments,2,stim/objects/Instruments/triangle2.png,0.9,1,-0.2,0.15,right,34,2020-12-07_16h10.37.794,premup-three_ses-01_part-01_label-phase1,3.2.4,MacIntel,60,left,1.069000006,4,0,4,0,1,3,1,0,240,173,1,239,,,,,,,,,,,,,,,,,,
,,1,133,,,,,,,3,1,4,stim/14.jpeg,Instruments,2,stim/objects/Instruments/trumpet2.png,0.9,3,-0.2,-0.15,right,34,2020-12-07_16h10.37.794,premup-three_ses-01_part-01_label-phase1,3.2.4,MacIntel,60,right,0.625,4,0,4,0,1,3,1,0,240,183,1,239,,,,,,,,,,,,,,,,,,
,,0,134,,,,,,,2,6,1,stim/61.jpeg,HouseObjects,1,stim/objects/HouseObjects/rug2.png,0.7,3,-0.2,-0.15,left,34,2020-12-07_16h10.37.794,premup-three_ses-01_part-01_label-phase1,3.2.4,MacIntel,60,right,0.894999981,4,0,4,0,1,3,1,0,240,128,1,239,,,,,,,,,,,,,,,,,,
,,1,135,,,,,,,2,6,1,stim/61.jpeg,HouseObjects,1,stim/objects/HouseObjects/rug2.png,0.7,1,-0.2,0.15,left,34,2020-12-07_16h10.37.794,premup-three_ses-01_part-01_label-phase1,3.2.4,MacIntel,60,left,0.680999994,4,0,4,0,1,3,1,0,240,124,1,239,,,,,,,,,,,,,,,,,,
,,0,136,,,,,,,2,6,1,stim/61.jpeg,Instruments,2,stim/objects/Instruments/record_player2.png,0.3,1,-0.2,0.15,right,34,2020-12-07_16h10.37.794,premup-three_ses-01_part-01_label-phase1,3.2.4,MacIntel,60,left,0.700999975,4,0,4,0,1,3,1,0,240,152,1,239,,,,,,,,,,,,,,,,,,
,,1,137,,,,,,,3,2,1,stim/21.jpeg,HouseObjects,1,stim/objects/HouseObjects/thread2.png,0.9,2,0.2,0.15,left,34,2020-12-07_16h10.37.794,premup-three_ses-01_part-01_label-phase1,3.2.4,MacIntel,60,left,1.687999964,4,0,4,0,1,3,1,0,240,208,1,239,,,,,,,,,,,,,,,,,,
,,1,138,,,,,,,3,2,4,stim/24.jpeg,HouseObjects,1,stim/objects/HouseObjects/wateringcan2.png,0.9,1,-0.2,0.15,left,34,2020-12-07_16h10.37.794,premup-three_ses-01_part-01_label-phase1,3.2.4,MacIntel,60,left,0.72300005,4,0,4,0,1,3,1,0,240,207,1,239,,,,,,,,,,,,,,,,,,
,,1,139,,,,,,,3,2,3,stim/23.jpeg,HouseObjects,1,stim/objects/HouseObjects/vacuumcleaner2.png,0.9,4,0.2,-0.15,left,34,2020-12-07_16h10.37.794,premup-three_ses-01_part-01_label-phase1,3.2.4,MacIntel,60,left,0.582000017,4,0,4,0,1,3,1,0,240,202,1,239,,,,,,,,,,,,,,,,,,
,,0,140,,,,,,,3,1,3,stim/13.jpeg,Instruments,2,stim/objects/Instruments/trombone2.png,0.9,2,0.2,0.15,right,34,2020-12-07_16h10.37.794,premup-three_ses-01_part-01_label-phase1,3.2.4,MacIntel,60,left,1.402999878,4,0,4,0,1,3,1,0,240,174,1,239,,,,,,,,,,,,,,,,,,
,,1,141,,,,,,,3,1,1,stim/11.jpeg,Instruments,2,stim/objects/Instruments/timbal2.png,0.9,2,0.2,0.15,right,34,2020-12-07_16h10.37.794,premup-three_ses-01_part-01_label-phase1,3.2.4,MacIntel,60,right,1.388999939,4,0,4,0,1,3,1,0,240,168,1,239,,,,,,,,,,,,,,,,,,
,,1,142,,,,,,,2,6,2,stim/62.jpeg,HouseObjects,1,stim/objects/HouseObjects/safetypin2.png,0.7,1,-0.2,0.15,left,34,2020-12-07_16h10.37.794,premup-three_ses-01_part-01_label-phase1,3.2.4,MacIntel,60,left,1.13499999,4,0,4,0,1,3,1,0,240,145,1,239,,,,,,,,,,,,,,,,,,
,,1,143,,,,,,,1,3,1,stim/31.jpeg,Instruments,2,stim/objects/Instruments/record_player.png,0.5,1,-0.2,0.15,right,34,2020-12-07_16h10.37.794,premup-three_ses-01_part-01_label-phase1,3.2.4,MacIntel,60,right,1.257999897,4,0,4,0,1,3,1,0,240,32,1,239,,,,,,,,,,,,,,,,,,
,,0,144,,,,,,,1,3,3,stim/33.jpeg,HouseObjects,1,stim/objects/HouseObjects/saw.png,0.5,3,-0.2,-0.15,left,34,2020-12-07_16h10.37.794,premup-three_ses-01_part-01_label-phase1,3.2.4,MacIntel,60,right,0.766000032,4,0,4,0,1,3,1,0,240,18,1,239,,,,,,,,,,,,,,,,,,
,,1,145,,,,,,,2,6,4,stim/64.jpeg,Instruments,2,stim/objects/Instruments/tambourine2.png,0.3,4,0.2,-0.15,right,34,2020-12-07_16h10.37.794,premup-three_ses-01_part-01_label-phase1,3.2.4,MacIntel,60,right,1.325999975,4,0,4,0,1,3,1,0,240,159,1,239,,,,,,,,,,,,,,,,,,
,,1,146,,,,,,,1,3,4,stim/34.jpeg,Instruments,2,stim/objects/Instruments/tambourine.png,0.5,1,-0.2,0.15,right,34,2020-12-07_16h10.37.794,premup-three_ses-01_part-01_label-phase1,3.2.4,MacIntel,60,right,1.246999979,4,0,4,0,1,3,1,0,240,23,1,239,,,,,,,,,,,,,,,,,,
,,0,147,,,,,,,2,5,1,stim/51.jpeg,Instruments,2,stim/objects/Instruments/tuba.png,0.7,2,0.2,0.15,right,34,2020-12-07_16h10.37.794,premup-three_ses-01_part-01_label-phase1,3.2.4,MacIntel,60,left,1.048999786,4,0,4,0,1,3,1,0,240,112,1,239,,,,,,,,,,,,,,,,,,
,,1,148,,,,,,,2,6,4,stim/64.jpeg,Instruments,2,stim/objects/Instruments/tambourine2.png,0.3,3,-0.2,-0.15,right,34,2020-12-07_16h10.37.794,premup-three_ses-01_part-01_label-phase1,3.2.4,MacIntel,60,right,0.546000004,4,0,4,0,1,3,1,0,240,151,1,239,,,,,,,,,,,,,,,,,,
,,1,149,,,,,,,3,1,2,stim/12.jpeg,Instruments,2,stim/objects/Instruments/triangle2.png,0.9,3,-0.2,-0.15,right,34,2020-12-07_16h10.37.794,premup-three_ses-01_part-01_label-phase1,3.2.4,MacIntel,60,right,0.806999922,4,0,4,0,1,3,1,0,240,177,1,239,,,,,,,,,,,,,,,,,,
,,1,150,,,,,,,3,2,3,stim/23.jpeg,HouseObjects,1,stim/objects/HouseObjects/vacuumcleaner2.png,0.9,4,0.2,-0.15,left,34,2020-12-07_16h10.37.794,premup-three_ses-01_part-01_label-phase1,3.2.4,MacIntel,60,left,0.913000107,4,0,4,0,1,3,1,0,240,226,1,239,,,,,,,,,,,,,,,,,,
,,1,151,,,,,,,1,4,4,stim/44.jpeg,HouseObjects,1,stim/objects/HouseObjects/thermometer.png,0.5,2,0.2,0.15,left,34,2020-12-07_16h10.37.794,premup-three_ses-01_part-01_label-phase1,3.2.4,MacIntel,60,left,0.857000113,4,0,4,0,1,3,1,0,240,59,1,239,,,,,,,,,,,,,,,,,,
,,1,152,,,,,,,3,1,4,stim/14.jpeg,Instruments,2,stim/objects/Instruments/trumpet2.png,0.9,2,0.2,0.15,right,34,2020-12-07_16h10.37.794,premup-three_ses-01_part-01_label-phase1,3.2.4,MacIntel,60,right,0.805000067,4,0,4,0,1,3,1,0,240,171,1,239,,,,,,,,,,,,,,,,,,
,,1,153,,,,,,,1,3,3,stim/33.jpeg,HouseObjects,1,stim/objects/HouseObjects/saw.png,0.5,1,-0.2,0.15,left,34,2020-12-07_16h10.37.794,premup-three_ses-01_part-01_label-phase1,3.2.4,MacIntel,60,left,0.714999914,4,0,4,0,1,3,1,0,240,10,1,239,,,,,,,,,,,,,,,,,,
,,0,154,,,,,,,1,4,4,stim/44.jpeg,Instruments,2,stim/objects/Instruments/trumpet.png,0.5,4,0.2,-0.15,right,34,2020-12-07_16h10.37.794,premup-three_ses-01_part-01_label-phase1,3.2.4,MacIntel,60,left,1.464999914,4,0,4,0,1,3,1,0,240,79,1,239,,,,,,,,,,,,,,,,,,
,,0,155,,,,,,,1,4,1,stim/41.jpeg,HouseObjects,1,stim/objects/HouseObjects/sponge.png,0.5,2,0.2,0.15,left,34,2020-12-07_16h10.37.794,premup-three_ses-01_part-01_label-phase1,3.2.4,MacIntel,60,right,0.845000029,4,0,4,0,1,3,1,0,240,48,1,239,,,,,,,,,,,,,,,,,,
,,0,156,,,,,,,1,4,3,stim/43.jpeg,Instruments,2,stim/objects/Instruments/trombone.png,0.5,4,0.2,-0.15,right,34,2020-12-07_16h10.37.794,premup-three_ses-01_part-01_label-phase1,3.2.4,MacIntel,60,left,0.710000038,4,0,4,0,1,3,1,0,240,66,1,239,,,,,,,,,,,,,,,,,,
,,0,157,,,,,,,2,5,2,stim/52.jpeg,HouseObjects,1,stim/objects/HouseObjects/towel.png,0.3,4,0.2,-0.15,left,34,2020-12-07_16h10.37.794,premup-three_ses-01_part-01_label-phase1,3.2.4,MacIntel,60,right,1.136999846,4,0,4,0,1,3,1,0,240,81,1,239,,,,,,,,,,,,,,,,,,
,,1,158,,,,,,,2,6,1,stim/61.jpeg,HouseObjects,1,stim/objects/HouseObjects/rug2.png,0.7,2,0.2,0.15,left,34,2020-12-07_16h10.37.794,premup-three_ses-01_part-01_label-phase1,3.2.4,MacIntel,60,left,1.236000061,4,0,4,0,1,3,1,0,240,132,1,239,,,,,,,,,,,,,,,,,,
,,1,159,,,,,,,1,3,3,stim/33.jpeg,Instruments,2,stim/objects/Instruments/speaker.png,0.5,1,-0.2,0.15,right,34,2020-12-07_16h10.37.794,premup-three_ses-01_part-01_label-phase1,3.2.4,MacIntel,60,right,1.184000015,4,0,4,0,1,3,1,0,240,26,1,239,,,,,,,,,,,,,,,,,,
,,1,160,,,,,,,3,2,2,stim/22.jpeg,HouseObjects,1,stim/objects/HouseObjects/towel2.png,0.9,4,0.2,-0.15,left,34,2020-12-07_16h10.37.794,premup-three_ses-01_part-01_label-phase1,3.2.4,MacIntel,60,left,1.393000126,4,0,4,0,1,3,1,0,240,205,1,239,,,,,,,,,,,,,,,,,,
,,1,161,,,,,,,2,5,3,stim/53.jpeg,HouseObjects,1,stim/objects/HouseObjects/vacuumcleaner.png,0.3,4,0.2,-0.15,left,34,2020-12-07_16h10.37.794,premup-three_ses-01_part-01_label-phase1,3.2.4,MacIntel,60,left,1.315000057,4,0,4,0,1,3,1,0,240,86,1,239,,,,,,,,,,,,,,,,,,
,,0,162,,,,,,,1,3,1,stim/31.jpeg,HouseObjects,1,stim/objects/HouseObjects/rug.png,0.5,3,-0.2,-0.15,left,34,2020-12-07_16h10.37.794,premup-three_ses-01_part-01_label-phase1,3.2.4,MacIntel,60,right,0.854000092,4,0,4,0,1,3,1,0,240,0,1,239,,,,,,,,,,,,,,,,,,
,,0,163,,,,,,,1,4,2,stim/42.jpeg,Instruments,2,stim/objects/Instruments/triangle.png,0.5,1,-0.2,0.15,right,34,2020-12-07_16h10.37.794,premup-three_ses-01_part-01_label-phase1,3.2.4,MacIntel,60,left,0.84800005,4,0,4,0,1,3,1,0,240,61,1,239,,,,,,,,,,,,,,,,,,
,,1,164,,,,,,,3,2,1,stim/21.jpeg,HouseObjects,1,stim/objects/HouseObjects/thread2.png,0.9,1,-0.2,0.15,left,34,2020-12-07_16h10.37.794,premup-three_ses-01_part-01_label-phase1,3.2.4,MacIntel,60,left,0.68900013,4,0,4,0,1,3,1,0,240,200,1,239,,,,,,,,,,,,,,,,,,
,,1,165,,,,,,,3,2,3,stim/23.jpeg,HouseObjects,1,stim/objects/HouseObjects/vacuumcleaner2.png,0.9,3,-0.2,-0.15,left,34,2020-12-07_16h10.37.794,premup-three_ses-01_part-01_label-phase1,3.2.4,MacIntel,60,left,0.651000023,4,0,4,0,1,3,1,0,240,234,1,239,,,,,,,,,,,,,,,,,,
,,1,166,,,,,,,3,2,1,stim/21.jpeg,HouseObjects,1,stim/objects/HouseObjects/thread2.png,0.9,4,0.2,-0.15,left,34,2020-12-07_16h10.37.794,premup-three_ses-01_part-01_label-phase1,3.2.4,MacIntel,60,left,0.868999958,4,0,4,0,1,3,1,0,240,220,1,239,,,,,,,,,,,,,,,,,,
,,1,167,,,,,,,2,6,2,stim/62.jpeg,HouseObjects,1,stim/objects/HouseObjects/safetypin2.png,0.7,2,0.2,0.15,left,34,2020-12-07_16h10.37.794,premup-three_ses-01_part-01_label-phase1,3.2.4,MacIntel,60,left,1.570999861,4,0,4,0,1,3,1,0,240,129,1,239,,,,,,,,,,,,,,,,,,
,,1,168,,,,,,,1,4,2,stim/42.jpeg,Instruments,2,stim/objects/Instruments/triangle.png,0.5,1,-0.2,0.15,right,34,2020-12-07_16h10.37.794,premup-three_ses-01_part-01_label-phase1,3.2.4,MacIntel,60,right,0.808000088,4,0,4,0,1,3,1,0,240,65,1,239,,,,,,,,,,,,,,,,,,
,,0,169,,,,,,,1,3,1,stim/31.jpeg,HouseObjects,1,stim/objects/HouseObjects/rug.png,0.5,1,-0.2,0.15,left,34,2020-12-07_16h10.37.794,premup-three_ses-01_part-01_label-phase1,3.2.4,MacIntel,60,right,1.394999981,4,0,4,0,1,3,1,0,240,16,1,239,,,,,,,,,,,,,,,,,,
,,1,170,,,,,,,3,1,3,stim/13.jpeg,Instruments,2,stim/objects/Instruments/trombone2.png,0.9,4,0.2,-0.15,right,34,2020-12-07_16h10.37.794,premup-three_ses-01_part-01_label-phase1,3.2.4,MacIntel,60,right,1.135999918,4,0,4,0,1,3,1,0,240,166,1,239,,,,,,,,,,,,,,,,,,
,,0,171,,,,,,,1,4,2,stim/42.jpeg,Instruments,2,stim/objects/Instruments/triangle.png,0.5,2,0.2,0.15,right,34,2020-12-07_16h10.37.794,premup-three_ses-01_part-01_label-phase1,3.2.4,MacIntel,60,left,0.838999987,4,0,4,0,1,3,1,0,240,73,1,239,,,,,,,,,,,,,,,,,,
,,1,172,,,,,,,3,2,1,stim/21.jpeg,HouseObjects,1,stim/objects/HouseObjects/thread2.png,0.9,1,-0.2,0.15,left,34,2020-12-07_16h10.37.794,premup-three_ses-01_part-01_label-phase1,3.2.4,MacIntel,60,left,0.836999893,4,0,4,0,1,3,1,0,240,228,1,239,,,,,,,,,,,,,,,,,,
,,1,173,,,,,,,2,5,3,stim/53.jpeg,Instruments,2,stim/objects/Instruments/vuvuzela.png,0.7,4,0.2,-0.15,right,34,2020-12-07_16h10.37.794,premup-three_ses-01_part-01_label-phase1,3.2.4,MacIntel,60,right,1.348999977,4,0,4,0,1,3,1,0,240,118,1,239,,,,,,,,,,,,,,,,,,
,,1,174,,,,,,,1,4,4,stim/44.jpeg,Instruments,2,stim/objects/Instruments/trumpet.png,0.5,3,-0.2,-0.15,right,34,2020-12-07_16h10.37.794,premup-three_ses-01_part-01_label-phase1,3.2.4,MacIntel,60,right,1.154000044,4,0,4,0,1,3,1,0,240,67,1,239,,,,,,,,,,,,,,,,,,
,,1,175,,,,,,,3,2,4,stim/24.jpeg,HouseObjects,1,stim/objects/HouseObjects/wateringcan2.png,0.9,4,0.2,-0.15,left,34,2020-12-07_16h10.37.794,premup-three_ses-01_part-01_label-phase1,3.2.4,MacIntel,60,left,0.927000046,4,0,4,0,1,3,1,0,240,203,1,239,,,,,,,,,,,,,,,,,,
,,1,176,,,,,,,3,1,3,stim/13.jpeg,Instruments,2,stim/objects/Instruments/trombone2.png,0.9,3,-0.2,-0.15,right,34,2020-12-07_16h10.37.794,premup-three_ses-01_part-01_label-phase1,3.2.4,MacIntel,60,right,1.68900013,4,0,4,0,1,3,1,0,240,186,1,239,,,,,,,,,,,,,,,,,,
,,1,177,,,,,,,1,3,4,stim/34.jpeg,HouseObjects,1,stim/objects/HouseObjects/scale.png,0.5,4,0.2,-0.15,left,34,2020-12-07_16h10.37.794,premup-three_ses-01_part-01_label-phase1,3.2.4,MacIntel,60,left,0.819999933,4,0,4,0,1,3,1,0,240,19,1,239,,,,,,,,,,,,,,,,,,
,,1,178,,,,,,,3,1,2,stim/12.jpeg,Instruments,2,stim/objects/Instruments/triangle2.png,0.9,1,-0.2,0.15,right,34,2020-12-07_16h10.37.794,premup-three_ses-01_part-01_label-phase1,3.2.4,MacIntel,60,right,0.760999918,4,0,4,0,1,3,1,0,240,197,1,239,,,,,,,,,,,,,,,,,,
,,0,179,,,,,,,2,5,3,stim/53.jpeg,HouseObjects,1,stim/objects/HouseObjects/vacuumcleaner.png,0.3,3,-0.2,-0.15,left,34,2020-12-07_16h10.37.794,premup-three_ses-01_part-01_label-phase1,3.2.4,MacIntel,60,right,1.413000107,4,0,4,0,1,3,1,0,240,82,1,239,,,,,,,,,,,,,,,,,,
,,0,180,,,,,,,2,5,3,stim/53.jpeg,Instruments,2,stim/objects/Instruments/vuvuzela.png,0.7,1,-0.2,0.15,right,34,2020-12-07_16h10.37.794,premup-three_ses-01_part-01_label-phase1,3.2.4,MacIntel,60,left,0.694999933,4,0,4,0,1,3,1,0,240,110,1,239,,,,,,,,,,,,,,,,,,
,,1,181,,,,,,,2,5,2,stim/52.jpeg,Instruments,2,stim/objects/Instruments/violin.png,0.7,4,0.2,-0.15,right,34,2020-12-07_16h10.37.794,premup-three_ses-01_part-01_label-phase1,3.2.4,MacIntel,60,right,0.934999943,4,0,4,0,1,3,1,0,240,109,1,239,,,,,,,,,,,,,,,,,,
,,0,182,,,,,,,2,5,1,stim/51.jpeg,HouseObjects,1,stim/objects/HouseObjects/thread.png,0.3,2,0.2,0.15,left,34,2020-12-07_16h10.37.794,premup-three_ses-01_part-01_label-phase1,3.2.4,MacIntel,60,right,0.739000082,4,0,4,0,1,3,1,0,240,88,1,239,,,,,,,,,,,,,,,,,,
,,1,183,,,,,,,1,4,3,stim/43.jpeg,Instruments,2,stim/objects/Instruments/trombone.png,0.5,3,-0.2,-0.15,right,34,2020-12-07_16h10.37.794,premup-three_ses-01_part-01_label-phase1,3.2.4,MacIntel,60,right,1.146000147,4,0,4,0,1,3,1,0,240,70,1,239,,,,,,,,,,,,,,,,,,
,,0,184,,,,,,,3,1,1,stim/11.jpeg,Instruments,2,stim/objects/Instruments/timbal2.png,0.9,4,0.2,-0.15,right,34,2020-12-07_16h10.37.794,premup-three_ses-01_part-01_label-phase1,3.2.4,MacIntel,60,left,0.735999823,4,0,4,0,1,3,1,0,240,192,1,239,,,,,,,,,,,,,,,,,,
,,1,185,,,,,,,3,2,1,stim/21.jpeg,HouseObjects,1,stim/objects/HouseObjects/thread2.png,0.9,4,0.2,-0.15,left,34,2020-12-07_16h10.37.794,premup-three_ses-01_part-01_label-phase1,3.2.4,MacIntel,60,left,0.723999977,4,0,4,0,1,3,1,0,240,224,1,239,,,,,,,,,,,,,,,,,,
,,1,186,,,,,,,3,1,3,stim/13.jpeg,Instruments,2,stim/objects/Instruments/trombone2.png,0.9,4,0.2,-0.15,right,34,2020-12-07_16h10.37.794,premup-three_ses-01_part-01_label-phase1,3.2.4,MacIntel,60,right,0.707000017,4,0,4,0,1,3,1,0,240,194,1,239,,,,,,,,,,,,,,,,,,
,,1,187,,,,,,,2,6,3,stim/63.jpeg,HouseObjects,1,stim/objects/HouseObjects/saw2.png,0.7,4,0.2,-0.15,left,34,2020-12-07_16h10.37.794,premup-three_ses-01_part-01_label-phase1,3.2.4,MacIntel,60,left,1.05099988,4,0,4,0,1,3,1,0,240,126,1,239,,,,,,,,,,,,,,,,,,
,,1,188,,,,,,,1,4,2,stim/42.jpeg,HouseObjects,1,stim/objects/HouseObjects/spraybottle.png,0.5,4,0.2,-0.15,left,34,2020-12-07_16h10.37.794,premup-three_ses-01_part-01_label-phase1,3.2.4,MacIntel,60,left,1.399000168,4,0,4,0,1,3,1,0,240,53,1,239,,,,,,,,,,,,,,,,,,
,,1,189,,,,,,,3,2,1,stim/21.jpeg,HouseObjects,1,stim/objects/HouseObjects/thread2.png,0.9,2,0.2,0.15,left,34,2020-12-07_16h10.37.794,premup-three_ses-01_part-01_label-phase1,3.2.4,MacIntel,60,left,0.790999889,4,0,4,0,1,3,1,0,240,212,1,239,,,,,,,,,,,,,,,,,,
,,0,190,,,,,,,2,6,4,stim/64.jpeg,HouseObjects,1,stim/objects/HouseObjects/scale2.png,0.7,4,0.2,-0.15,left,34,2020-12-07_16h10.37.794,premup-three_ses-01_part-01_label-phase1,3.2.4,MacIntel,60,right,1.282000065,4,0,4,0,1,3,1,0,240,123,1,239,,,,,,,,,,,,,,,,,,
,,1,191,,,,,,,3,2,2,stim/22.jpeg,HouseObjects,1,stim/objects/HouseObjects/towel2.png,0.9,3,-0.2,-0.15,left,34,2020-12-07_16h10.37.794,premup-three_ses-01_part-01_label-phase1,3.2.4,MacIntel,60,left,0.579999924,4,0,4,0,1,3,1,0,240,229,1,239,,,,,,,,,,,,,,,,,,
,,1,192,,,,,,,1,3,2,stim/32.jpeg,Instruments,2,stim/objects/Instruments/saxophone.png,0.5,3,-0.2,-0.15,right,34,2020-12-07_16h10.37.794,premup-three_ses-01_part-01_label-phase1,3.2.4,MacIntel,60,right,1.613999844,4,0,4,0,1,3,1,0,240,25,1,239,,,,,,,,,,,,,,,,,,
,,1,193,,,,,,,3,2,2,stim/22.jpeg,HouseObjects,1,stim/objects/HouseObjects/towel2.png,0.9,3,-0.2,-0.15,left,34,2020-12-07_16h10.37.794,premup-three_ses-01_part-01_label-phase1,3.2.4,MacIntel,60,left,0.708999872,4,0,4,0,1,3,1,0,240,213,1,239,,,,,,,,,,,,,,,,,,
,,1,194,,,,,,,1,3,2,stim/32.jpeg,Instruments,2,stim/objects/Instruments/saxophone.png,0.5,4,0.2,-0.15,right,34,2020-12-07_16h10.37.794,premup-three_ses-01_part-01_label-phase1,3.2.4,MacIntel,60,right,0.805000067,4,0,4,0,1,3,1,0,240,29,1,239,,,,,,,,,,,,,,,,,,
,,0,195,,,,,,,3,1,4,stim/14.jpeg,Instruments,2,stim/objects/Instruments/trumpet2.png,0.9,1,-0.2,0.15,right,34,2020-12-07_16h10.37.794,premup-three_ses-01_part-01_label-phase1,3.2.4,MacIntel,60,,,4,0,4,0,1,3,1,0,240,199,1,239,,,,,,,,,,,,,,,,,,
,,0,196,,,,,,,2,6,3,stim/63.jpeg,HouseObjects,1,stim/objects/HouseObjects/saw2.png,0.7,4,0.2,-0.15,left,34,2020-12-07_16h10.37.794,premup-three_ses-01_part-01_label-phase1,3.2.4,MacIntel,60,right,1.407000065,4,0,4,0,1,3,1,0,240,146,1,239,,,,,,,,,,,,,,,,,,
,,1,197,,,,,,,2,5,3,stim/53.jpeg,Instruments,2,stim/objects/Instruments/vuvuzela.png,0.7,2,0.2,0.15,right,34,2020-12-07_16h10.37.794,premup-three_ses-01_part-01_label-phase1,3.2.4,MacIntel,60,right,1.134000063,4,0,4,0,1,3,1,0,240,114,1,239,,,,,,,,,,,,,,,,,,
,,0,198,,,,,,,1,3,4,stim/34.jpeg,Instruments,2,stim/objects/Instruments/tambourine.png,0.5,2,0.2,0.15,right,34,2020-12-07_16h10.37.794,premup-three_ses-01_part-01_label-phase1,3.2.4,MacIntel,60,left,1.265000105,4,0,4,0,1,3,1,0,240,35,1,239,,,,,,,,,,,,,,,,,,
,,1,199,,,,,,,2,5,2,stim/52.jpeg,HouseObjects,1,stim/objects/HouseObjects/towel.png,0.3,2,0.2,0.15,left,34,2020-12-07_16h10.37.794,premup-three_ses-01_part-01_label-phase1,3.2.4,MacIntel,60,left,1.342000008,4,0,4,0,1,3,1,0,240,89,1,239,,,,,,,,,,,,,,,,,,
,,1,200,,,,,,,3,1,1,stim/11.jpeg,Instruments,2,stim/objects/Instruments/timbal2.png,0.9,1,-0.2,0.15,right,34,2020-12-07_16h10.37.794,premup-three_ses-01_part-01_label-phase1,3.2.4,MacIntel,60,right,0.684000015,4,0,4,0,1,3,1,0,240,188,1,239,,,,,,,,,,,,,,,,,,
,,0,201,,,,,,,2,6,2,stim/62.jpeg,Instruments,2,stim/objects/Instruments/saxophone2.png,0.3,4,0.2,-0.15,right,34,2020-12-07_16h10.37.794,premup-three_ses-01_part-01_label-phase1,3.2.4,MacIntel,60,left,0.971999884,4,0,4,0,1,3,1,0,240,153,1,239,,,,,,,,,,,,,,,,,,
,,1,202,,,,,,,2,5,1,stim/51.jpeg,Instruments,2,stim/objects/Instruments/tuba.png,0.7,1,-0.2,0.15,right,34,2020-12-07_16h10.37.794,premup-three_ses-01_part-01_label-phase1,3.2.4,MacIntel,60,right,0.482999802,4,0,4,0,1,3,1,0,240,100,1,239,,,,,,,,,,,,,,,,,,
,,0,203,,,,,,,2,5,3,stim/53.jpeg,HouseObjects,1,stim/objects/HouseObjects/vacuumcleaner.png,0.3,3,-0.2,-0.15,left,34,2020-12-07_16h10.37.794,premup-three_ses-01_part-01_label-phase1,3.2.4,MacIntel,60,right,0.664000034,4,0,4,0,1,3,1,0,240,90,1,239,,,,,,,,,,,,,,,,,,
,,0,204,,,,,,,3,1,2,stim/12.jpeg,Instruments,2,stim/objects/Instruments/triangle2.png,0.9,4,0.2,-0.15,right,34,2020-12-07_16h10.37.794,premup-three_ses-01_part-01_label-phase1,3.2.4,MacIntel,60,left,0.568000078,4,0,4,0,1,3,1,0,240,185,1,239,,,,,,,,,,,,,,,,,,
,,0,205,,,,,,,1,3,3,stim/33.jpeg,HouseObjects,1,stim/objects/HouseObjects/saw.png,0.5,3,-0.2,-0.15,left,34,2020-12-07_16h10.37.794,premup-three_ses-01_part-01_label-phase1,3.2.4,MacIntel,60,right,0.721999884,4,0,4,0,1,3,1,0,240,2,1,239,,,,,,,,,,,,,,,,,,
,,0,206,,,,,,,1,4,1,stim/41.jpeg,Instruments,2,stim/objects/Instruments/timbal.png,0.5,4,0.2,-0.15,right,34,2020-12-07_16h10.37.794,premup-three_ses-01_part-01_label-phase1,3.2.4,MacIntel,60,left,0.756999969,4,0,4,0,1,3,1,0,240,60,1,239,,,,,,,,,,,,,,,,,,
,,1,207,,,,,,,1,4,4,stim/44.jpeg,Instruments,2,stim/objects/Instruments/trumpet.png,0.5,3,-0.2,-0.15,right,34,2020-12-07_16h10.37.794,premup-three_ses-01_part-01_label-phase1,3.2.4,MacIntel,60,right,0.748999834,4,0,4,0,1,3,1,0,240,71,1,239,,,,,,,,,,,,,,,,,,
,,1,208,,,,,,,3,1,4,stim/14.jpeg,Instruments,2,stim/objects/Instruments/trumpet2.png,0.9,3,-0.2,-0.15,right,34,2020-12-07_16h10.37.794,premup-three_ses-01_part-01_label-phase1,3.2.4,MacIntel,60,right,0.891000032,4,0,4,0,1,3,1,0,240,167,1,239,,,,,,,,,,,,,,,,,,
,,0,209,,,,,,,1,3,1,stim/31.jpeg,HouseObjects,1,stim/objects/HouseObjects/rug.png,0.5,2,0.2,0.15,left,34,2020-12-07_16h10.37.794,premup-three_ses-01_part-01_label-phase1,3.2.4,MacIntel,60,right,0.80099988,4,0,4,0,1,3,1,0,240,8,1,239,,,,,,,,,,,,,,,,,,
,,1,210,,,,,,,2,5,4,stim/54.jpeg,Instruments,2,stim/objects/Instruments/xylophone.png,0.7,1,-0.2,0.15,right,34,2020-12-07_16h10.37.794,premup-three_ses-01_part-01_label-phase1,3.2.4,MacIntel,60,right,1.256000042,4,0,4,0,1,3,1,0,240,107,1,239,,,,,,,,,,,,,,,,,,
,,1,211,,,,,,,3,2,4,stim/24.jpeg,HouseObjects,1,stim/objects/HouseObjects/wateringcan2.png,0.9,2,0.2,0.15,left,34,2020-12-07_16h10.37.794,premup-three_ses-01_part-01_label-phase1,3.2.4,MacIntel,60,left,0.654000044,4,0,4,0,1,3,1,0,240,219,1,239,,,,,,,,,,,,,,,,,,
,,0,212,,,,,,,1,4,3,stim/43.jpeg,Instruments,2,stim/objects/Instruments/trombone.png,0.5,4,0.2,-0.15,right,34,2020-12-07_16h10.37.794,premup-three_ses-01_part-01_label-phase1,3.2.4,MacIntel,60,left,1.773999929,4,0,4,0,1,3,1,0,240,78,1,239,,,,,,,,,,,,,,,,,,
,,1,213,,,,,,,3,1,4,stim/14.jpeg,Instruments,2,stim/objects/Instruments/trumpet2.png,0.9,2,0.2,0.15,right,34,2020-12-07_16h10.37.794,premup-three_ses-01_part-01_label-phase1,3.2.4,MacIntel,60,right,0.621999979,4,0,4,0,1,3,1,0,240,175,1,239,,,,,,,,,,,,,,,,,,
,,1,214,,,,,,,3,1,4,stim/14.jpeg,Instruments,2,stim/objects/Instruments/trumpet2.png,0.9,3,-0.2,-0.15,right,34,2020-12-07_16h10.37.794,premup-three_ses-01_part-01_label-phase1,3.2.4,MacIntel,60,right,0.963000059,4,0,4,0,1,3,1,0,240,195,1,239,,,,,,,,,,,,,,,,,,
,,1,215,,,,,,,3,1,2,stim/12.jpeg,Instruments,2,stim/objects/Instruments/triangle2.png,0.9,3,-0.2,-0.15,right,34,2020-12-07_16h10.37.794,premup-three_ses-01_part-01_label-phase1,3.2.4,MacIntel,60,right,0.774999857,4,0,4,0,1,3,1,0,240,189,1,239,,,,,,,,,,,,,,,,,,
,,1,216,,,,,,,1,3,4,stim/34.jpeg,HouseObjects,1,stim/objects/HouseObjects/scale.png,0.5,2,0.2,0.15,left,34,2020-12-07_16h10.37.794,premup-three_ses-01_part-01_label-phase1,3.2.4,MacIntel,60,left,1.343999863,4,0,4,0,1,3,1,0,240,15,1,239,,,,,,,,,,,,,,,,,,
,,1,217,,,,,,,2,6,2,stim/62.jpeg,Instruments,2,stim/objects/Instruments/saxophone2.png,0.3,3,-0.2,-0.15,right,34,2020-12-07_16h10.37.794,premup-three_ses-01_part-01_label-phase1,3.2.4,MacIntel,60,right,0.736999989,4,0,4,0,1,3,1,0,240,157,1,239,,,,,,,,,,,,,,,,,,
,,0,218,,,,,,,2,6,1,stim/61.jpeg,HouseObjects,1,stim/objects/HouseObjects/rug2.png,0.7,3,-0.2,-0.15,left,34,2020-12-07_16h10.37.794,premup-three_ses-01_part-01_label-phase1,3.2.4,MacIntel,60,right,0.998999834,4,0,4,0,1,3,1,0,240,144,1,239,,,,,,,,,,,,,,,,,,
,,1,219,,,,,,,1,3,2,stim/32.jpeg,HouseObjects,1,stim/objects/HouseObjects/safetypin.png,0.5,4,0.2,-0.15,left,34,2020-12-07_16h10.37.794,premup-three_ses-01_part-01_label-phase1,3.2.4,MacIntel,60,left,1.174999952,4,0,4,0,1,3,1,0,240,13,1,239,,,,,,,,,,,,,,,,,,
,,0,220,,,,,,,1,3,4,stim/34.jpeg,HouseObjects,1,stim/objects/HouseObjects/scale.png,0.5,2,0.2,0.15,left,34,2020-12-07_16h10.37.794,premup-three_ses-01_part-01_label-phase1,3.2.4,MacIntel,60,right,1.361999989,4,0,4,0,1,3,1,0,240,7,1,239,,,,,,,,,,,,,,,,,,
,,1,221,,,,,,,2,6,2,stim/62.jpeg,HouseObjects,1,stim/objects/HouseObjects/safetypin2.png,0.7,3,-0.2,-0.15,left,34,2020-12-07_16h10.37.794,premup-three_ses-01_part-01_label-phase1,3.2.4,MacIntel,60,left,1.628000021,4,0,4,0,1,3,1,0,240,121,1,239,,,,,,,,,,,,,,,,,,
,,1,222,,,,,,,2,6,3,stim/63.jpeg,HouseObjects,1,stim/objects/HouseObjects/saw2.png,0.7,3,-0.2,-0.15,left,34,2020-12-07_16h10.37.794,premup-three_ses-01_part-01_label-phase1,3.2.4,MacIntel,60,left,0.620000124,4,0,4,0,1,3,1,0,240,138,1,239,,,,,,,,,,,,,,,,,,
,,0,223,,,,,,,1,4,4,stim/44.jpeg,HouseObjects,1,stim/objects/HouseObjects/thermometer.png,0.5,2,0.2,0.15,left,34,2020-12-07_16h10.37.794,premup-three_ses-01_part-01_label-phase1,3.2.4,MacIntel,60,right,1.014999866,4,0,4,0,1,3,1,0,240,55,1,239,,,,,,,,,,,,,,,,,,
,,0,224,,,,,,,3,2,3,stim/23.jpeg,Instruments,2,stim/objects/Instruments/vuvuzela2.png,0.1,2,0.2,0.15,right,34,2020-12-07_16h10.37.794,premup-three_ses-01_part-01_label-phase1,3.2.4,MacIntel,60,left,0.667999983,4,0,4,0,1,3,1,0,240,238,1,239,,,,,,,,,,,,,,,,,,
,,0,225,,,,,,,2,6,1,stim/61.jpeg,HouseObjects,1,stim/objects/HouseObjects/rug2.png,0.7,1,-0.2,0.15,left,34,2020-12-07_16h10.37.794,premup-three_ses-01_part-01_label-phase1,3.2.4,MacIntel,60,,,4,0,4,0,1,3,1,0,240,140,1,239,,,,,,,,,,,,,,,,,,
,,1,226,,,,,,,1,3,2,stim/32.jpeg,HouseObjects,1,stim/objects/HouseObjects/safetypin.png,0.5,3,-0.2,-0.15,left,34,2020-12-07_16h10.37.794,premup-three_ses-01_part-01_label-phase1,3.2.4,MacIntel,60,left,0.652000189,4,0,4,0,1,3,1,0,240,5,1,239,,,,,,,,,,,,,,,,,,
,,1,227,,,,,,,3,2,2,stim/22.jpeg,HouseObjects,1,stim/objects/HouseObjects/towel2.png,0.9,2,0.2,0.15,left,34,2020-12-07_16h10.37.794,premup-three_ses-01_part-01_label-phase1,3.2.4,MacIntel,60,left,0.792000055,4,0,4,0,1,3,1,0,240,233,1,239,,,,,,,,,,,,,,,,,,
,,1,228,,,,,,,2,5,1,stim/51.jpeg,Instruments,2,stim/objects/Instruments/tuba.png,0.7,1,-0.2,0.15,right,34,2020-12-07_16h10.37.794,premup-three_ses-01_part-01_label-phase1,3.2.4,MacIntel,60,right,1.032000065,4,0,4,0,1,3,1,0,240,96,1,239,,,,,,,,,,,,,,,,,,
,,1,229,,,,,,,3,1,3,stim/13.jpeg,Instruments,2,stim/objects/Instruments/trombone2.png,0.9,3,-0.2,-0.15,right,34,2020-12-07_16h10.37.794,premup-three_ses-01_part-01_label-phase1,3.2.4,MacIntel,60,right,0.710000038,4,0,4,0,1,3,1,0,240,190,1,239,,,,,,,,,,,,,,,,,,
,,1,230,,,,,,,3,2,3,stim/23.jpeg,HouseObjects,1,stim/objects/HouseObjects/vacuumcleaner2.png,0.9,4,0.2,-0.15,left,34,2020-12-07_16h10.37.794,premup-three_ses-01_part-01_label-phase1,3.2.4,MacIntel,60,left,0.697999954,4,0,4,0,1,3,1,0,240,206,1,239,,,,,,,,,,,,,,,,,,
,,0,231,,,,,,,2,5,3,stim/53.jpeg,Instruments,2,stim/objects/Instruments/vuvuzela.png,0.7,2,0.2,0.15,right,34,2020-12-07_16h10.37.794,premup-three_ses-01_part-01_label-phase1,3.2.4,MacIntel,60,left,0.924000025,4,0,4,0,1,3,1,0,240,94,1,239,,,,,,,,,,,,,,,,,,
,,1,232,,,,,,,1,3,1,stim/31.jpeg,Instruments,2,stim/objects/Instruments/record_player.png,0.5,1,-0.2,0.15,right,34,2020-12-07_16h10.37.794,premup-three_ses-01_part-01_label-phase1,3.2.4,MacIntel,60,right,0.937999964,4,0,4,0,1,3,1,0,240,36,1,239,,,,,,,,,,,,,,,,,,
,,1,233,,,,,,,3,2,4,stim/24.jpeg,HouseObjects,1,stim/objects/HouseObjects/wateringcan2.png,0.9,2,0.2,0.15,left,34,2020-12-07_16h10.37.794,premup-three_ses-01_part-01_label-phase1,3.2.4,MacIntel,60,left,0.753999949,4,0,4,0,1,3,1,0,240,215,1,239,,,,,,,,,,,,,,,,,,
,,0,234,,,,,,,1,4,2,stim/42.jpeg,Instruments,2,stim/objects/Instruments/triangle.png,0.5,2,0.2,0.15,right,34,2020-12-07_16h10.37.794,premup-three_ses-01_part-01_label-phase1,3.2.4,MacIntel,60,left,0.708000183,4,0,4,0,1,3,1,0,240,69,1,239,,,,,,,,,,,,,,,,,,
,,0,235,,,,,,,3,1,2,stim/12.jpeg,HouseObjects,1,stim/objects/HouseObjects/spraybottle2.png,0.1,3,-0.2,-0.15,left,34,2020-12-07_16h10.37.794,premup-three_ses-01_part-01_label-phase1,3.2.4,MacIntel,60,right,0.688999891,4,0,4,0,1,3,1,0,240,161,1,239,,,,,,,,,,,,,,,,,,
,,0,236,,,,,,,1,4,1,stim/41.jpeg,Instruments,2,stim/objects/Instruments/timbal.png,0.5,2,0.2,0.15,right,34,2020-12-07_16h10.37.794,premup-three_ses-01_part-01_label-phase1,3.2.4,MacIntel,60,left,0.957999945,4,0,4,0,1,3,1,0,240,64,1,239,,,,,,,,,,,,,,,,,,
,,1,237,,,,,,,3,1,1,stim/11.jpeg,Instruments,2,stim/objects/Instruments/timbal2.png,0.9,1,-0.2,0.15,right,34,2020-12-07_16h10.37.794,premup-three_ses-01_part-01_label-phase1,3.2.4,MacIntel,60,right,0.943000078,4,0,4,0,1,3,1,0,240,164,1,239,,,,,,,,,,,,,,,,,,
,,0,238,,,,,,,2,6,4,stim/64.jpeg,HouseObjects,1,stim/objects/HouseObjects/scale2.png,0.7,4,0.2,-0.15,left,34,2020-12-07_16h10.37.794,premup-three_ses-01_part-01_label-phase1,3.2.4,MacIntel,60,right,1.180999994,4,0,4,0,1,3,1,0,240,135,1,239,,,,,,,,,,,,,,,,,,
,,1,239,,,,,,,3,1,1,stim/11.jpeg,Instruments,2,stim/objects/Instruments/timbal2.png,0.9,2,0.2,0.15,right,34,2020-12-07_16h10.37.794,premup-three_ses-01_part-01_label-phase1,3.2.4,MacIntel,60,right,1.261000156,4,0,4,0,1,3,1,0,240,196,1,239,,,,,,,,,,,,,,,,,,
,,1,240,,,,,,,1,4,2,stim/42.jpeg,HouseObjects,1,stim/objects/HouseObjects/spraybottle.png,0.5,4,0.2,-0.15,left,34,2020-12-07_16h10.37.794,premup-three_ses-01_part-01_label-phase1,3.2.4,MacIntel,60,left,1.213000059,4,0,4,0,1,3,1,0,240,49,1,239,,,,,,,,,,,,,,,,,,
,,,,,,,,,,,1,,stim/11.jpeg,,,,,,,,,34,2020-12-07_16h10.37.794,premup-three_ses-01_part-01_label-phase1,3.2.4,MacIntel,60,,,4,0,4,0,1,3,,,,,,,1,0,38,9.54399991,,,1,0,6,0,1,5,Household items,45,55,Music items,45,55
,,,,,,,,,,,5,,stim/51.jpeg,,,,,,,,,34,2020-12-07_16h10.37.794,premup-three_ses-01_part-01_label-phase1,3.2.4,MacIntel,60,,,4,0,4,0,1,3,,,,,,,1,0,42,4.566999912,,,1,0,6,4,1,5,Music items,5,15,Household items,85,95
,,,,,,,,,,,3,,stim/31.jpeg,,,,,,,,,34,2020-12-07_16h10.37.794,premup-three_ses-01_part-01_label-phase1,3.2.4,MacIntel,60,,,4,0,4,0,1,3,,,,,,,1,1,71,9.002000093,,,1,0,6,2,1,5,Household items,65,75,Music items,25,35
,,,,,,,,,,,6,,stim/61.jpeg,,,,,,,,,34,2020-12-07_16h10.37.794,premup-three_ses-01_part-01_label-phase1,3.2.4,MacIntel,60,,,4,0,4,0,1,3,,,,,,,1,1,79,5.055999994,,,1,0,6,5,1,5,Household items,5,15,Music items,85,95
,,,,,,,,,,,4,,stim/41.jpeg,,,,,,,,,34,2020-12-07_16h10.37.794,premup-three_ses-01_part-01_label-phase1,3.2.4,MacIntel,60,,,4,0,4,0,1,3,,,,,,,1,1,47,4.143000126,,,1,0,6,3,1,5,Household items,65,75,Music items,25,35
,,,,,,,,,,,2,,stim/21.jpeg,,,,,,,,,34,2020-12-07_16h10.37.794,premup-three_ses-01_part-01_label-phase1,3.2.4,MacIntel,60,,,4,0,4,0,1,3,,,,,,,1,1,,,0,11.75200009,1,0,6,1,1,5,Music items,45,55,Household items,45,55
,,,,,,,,,,,,,,,,,,,,,,34,2020-12-07_16h10.37.794,premup-three_ses-01_part-01_label-phase1,3.2.4,MacIntel,60,,,4,0,4,0,1,3,,,,,,,,,,,,,,,,,,,,,,,,
,,0,1,,,,,,,1,3,1,stim/31.jpeg,Instruments,2,stim/objects/Instruments/record_player.png,0.5,2,0.2,0.15,right,34,2020-12-07_16h10.37.794,premup-three_ses-01_part-01_label-phase1,3.2.4,MacIntel,60,,,4,0,4,0,1,3,1,0,240,28,1,239,,,,,,,,,,,,,,,,,,
,,0,2,,,,,,,3,1,1,stim/11.jpeg,Instruments,2,stim/objects/Instruments/timbal2.png,0.9,1,-0.2,0.15,right,34,2020-12-07_16h10.37.794,premup-three_ses-01_part-01_label-phase1,3.2.4,MacIntel,60,left,1.176000118,4,0,4,0,1,3,1,0,240,184,1,239,,,,,,,,,,,,,,,,,,
,,1,3,,,,,,,2,6,1,stim/61.jpeg,HouseObjects,1,stim/objects/HouseObjects/rug2.png,0.7,3,-0.2,-0.15,left,34,2020-12-07_16h10.37.794,premup-three_ses-01_part-01_label-phase1,3.2.4,MacIntel,60,left,1.070999861,4,0,4,0,1,3,1,0,240,128,1,239,,,,,,,,,,,,,,,,,,
,,0,4,,,,,,,2,6,3,stim/63.jpeg,HouseObjects,1,stim/objects/HouseObjects/saw2.png,0.7,3,-0.2,-0.15,left,34,2020-12-07_16h10.37.794,premup-three_ses-01_part-01_label-phase1,3.2.4,MacIntel,60,right,0.91899991,4,0,4,0,1,3,1,0,240,138,1,239,,,,,,,,,,,,,,,,,,
,,1,5,,,,,,,2,5,4,stim/54.jpeg,Instruments,2,stim/objects/Instruments/xylophone.png,0.7,1,-0.2,0.15,right,34,2020-12-07_16h10.37.794,premup-three_ses-01_part-01_label-phase1,3.2.4,MacIntel,60,right,0.789000034,4,0,4,0,1,3,1,0,240,119,1,239,,,,,,,,,,,,,,,,,,
,,1,6,,,,,,,3,2,1,stim/21.jpeg,HouseObjects,1,stim/objects/HouseObjects/thread2.png,0.9,4,0.2,-0.15,left,34,2020-12-07_16h10.37.794,premup-three_ses-01_part-01_label-phase1,3.2.4,MacIntel,60,left,0.66899991,4,0,4,0,1,3,1,0,240,204,1,239,,,,,,,,,,,,,,,,,,
,,1,7,,,,,,,2,5,2,stim/52.jpeg,Instruments,2,stim/objects/Instruments/violin.png,0.7,3,-0.2,-0.15,right,34,2020-12-07_16h10.37.794,premup-three_ses-01_part-01_label-phase1,3.2.4,MacIntel,60,right,0.932999849,4,0,4,0,1,3,1,0,240,97,1,239,,,,,,,,,,,,,,,,,,
,,0,8,,,,,,,1,4,4,stim/44.jpeg,Instruments,2,stim/objects/Instruments/trumpet.png,0.5,3,-0.2,-0.15,right,34,2020-12-07_16h10.37.794,premup-three_ses-01_part-01_label-phase1,3.2.4,MacIntel,60,left,0.736999989,4,0,4,0,1,3,1,0,240,67,1,239,,,,,,,,,,,,,,,,,,
,,0,9,,,,,,,2,6,1,stim/61.jpeg,HouseObjects,1,stim/objects/HouseObjects/rug2.png,0.7,2,0.2,0.15,left,34,2020-12-07_16h10.37.794,premup-three_ses-01_part-01_label-phase1,3.2.4,MacIntel,60,right,0.513999939,4,0,4,0,1,3,1,0,240,132,1,239,,,,,,,,,,,,,,,,,,
,,1,10,,,,,,,2,6,4,stim/64.jpeg,HouseObjects,1,stim/objects/HouseObjects/scale2.png,0.7,2,0.2,0.15,left,34,2020-12-07_16h10.37.794,premup-three_ses-01_part-01_label-phase1,3.2.4,MacIntel,60,left,0.638999939,4,0,4,0,1,3,1,0,240,131,1,239,,,,,,,,,,,,,,,,,,
,,1,11,,,,,,,3,2,4,stim/24.jpeg,HouseObjects,1,stim/objects/HouseObjects/wateringcan2.png,0.9,2,0.2,0.15,left,34,2020-12-07_16h10.37.794,premup-three_ses-01_part-01_label-phase1,3.2.4,MacIntel,60,left,0.698999882,4,0,4,0,1,3,1,0,240,215,1,239,,,,,,,,,,,,,,,,,,
,,0,12,,,,,,,2,5,3,stim/53.jpeg,Instruments,2,stim/objects/Instruments/vuvuzela.png,0.7,4,0.2,-0.15,right,34,2020-12-07_16h10.37.794,premup-three_ses-01_part-01_label-phase1,3.2.4,MacIntel,60,left,0.744999886,4,0,4,0,1,3,1,0,240,118,1,239,,,,,,,,,,,,,,,,,,
,,0,13,,,,,,,2,6,1,stim/61.jpeg,HouseObjects,1,stim/objects/HouseObjects/rug2.png,0.7,2,0.2,0.15,left,34,2020-12-07_16h10.37.794,premup-three_ses-01_part-01_label-phase1,3.2.4,MacIntel,60,right,0.851999998,4,0,4,0,1,3,1,0,240,136,1,239,,,,,,,,,,,,,,,,,,
,,1,14,,,,,,,1,4,1,stim/41.jpeg,HouseObjects,1,stim/objects/HouseObjects/sponge.png,0.5,4,0.2,-0.15,left,34,2020-12-07_16h10.37.794,premup-three_ses-01_part-01_label-phase1,3.2.4,MacIntel,60,left,0.621999979,4,0,4,0,1,3,1,0,240,56,1,239,,,,,,,,,,,,,,,,,,
,,1,15,,,,,,,3,2,2,stim/22.jpeg,HouseObjects,1,stim/objects/HouseObjects/towel2.png,0.9,3,-0.2,-0.15,left,34,2020-12-07_16h10.37.794,premup-three_ses-01_part-01_label-phase1,3.2.4,MacIntel,60,left,0.638000011,4,0,4,0,1,3,1,0,240,213,1,239,,,,,,,,,,,,,,,,,,
,,1,16,,,,,,,2,6,1,stim/61.jpeg,Instruments,2,stim/objects/Instruments/record_player2.png,0.3,1,-0.2,0.15,right,34,2020-12-07_16h10.37.794,premup-three_ses-01_part-01_label-phase1,3.2.4,MacIntel,60,right,1.312999964,4,0,4,0,1,3,1,0,240,152,1,239,,,,,,,,,,,,,,,,,,
,,0,17,,,,,,,2,5,4,stim/54.jpeg,HouseObjects,1,stim/objects/HouseObjects/wateringcan.png,0.3,3,-0.2,-0.15,left,34,2020-12-07_16h10.37.794,premup-three_ses-01_part-01_label-phase1,3.2.4,MacIntel,60,right,1.003000021,4,0,4,0,1,3,1,0,240,83,1,239,,,,,,,,,,,,,,,,,,
,,0,18,,,,,,,1,4,4,stim/44.jpeg,Instruments,2,stim/objects/Instruments/trumpet.png,0.5,1,-0.2,0.15,right,34,2020-12-07_16h10.37.794,premup-three_ses-01_part-01_label-phase1,3.2.4,MacIntel,60,left,1.030999899,4,0,4,0,1,3,1,0,240,63,1,239,,,,,,,,,,,,,,,,,,
,,1,19,,,,,,,2,5,1,stim/51.jpeg,Instruments,2,stim/objects/Instruments/tuba.png,0.7,2,0.2,0.15,right,34,2020-12-07_16h10.37.794,premup-three_ses-01_part-01_label-phase1,3.2.4,MacIntel,60,right,0.980999947,4,0,4,0,1,3,1,0,240,116,1,239,,,,,,,,,,,,,,,,,,
,,1,20,,,,,,,1,4,3,stim/43.jpeg,HouseObjects,1,stim/objects/HouseObjects/teapot.png,0.5,2,0.2,0.15,left,34,2020-12-07_16h10.37.794,premup-three_ses-01_part-01_label-phase1,3.2.4,MacIntel,60,left,1.144999981,4,0,4,0,1,3,1,0,240,50,1,239,,,,,,,,,,,,,,,,,,
,,0,21,,,,,,,3,1,4,stim/14.jpeg,HouseObjects,1,stim/objects/HouseObjects/thermometer2.png,0.1,3,-0.2,-0.15,left,34,2020-12-07_16h10.37.794,premup-three_ses-01_part-01_label-phase1,3.2.4,MacIntel,60,right,0.773000002,4,0,4,0,1,3,1,0,240,163,1,239,,,,,,,,,,,,,,,,,,
,,0,22,,,,,,,2,5,3,stim/53.jpeg,HouseObjects,1,stim/objects/HouseObjects/vacuumcleaner.png,0.3,3,-0.2,-0.15,left,34,2020-12-07_16h10.37.794,premup-three_ses-01_part-01_label-phase1,3.2.4,MacIntel,60,right,1.031000137,4,0,4,0,1,3,1,0,240,90,1,239,,,,,,,,,,,,,,,,,,
,,1,23,,,,,,,3,2,1,stim/21.jpeg,HouseObjects,1,stim/objects/HouseObjects/thread2.png,0.9,2,0.2,0.15,left,34,2020-12-07_16h10.37.794,premup-three_ses-01_part-01_label-phase1,3.2.4,MacIntel,60,left,0.738999844,4,0,4,0,1,3,1,0,240,208,1,239,,,,,,,,,,,,,,,,,,
,,0,24,,,,,,,1,3,2,stim/32.jpeg,HouseObjects,1,stim/objects/HouseObjects/safetypin.png,0.5,3,-0.2,-0.15,left,34,2020-12-07_16h10.37.794,premup-three_ses-01_part-01_label-phase1,3.2.4,MacIntel,60,right,0.812000036,4,0,4,0,1,3,1,0,240,5,1,239,,,,,,,,,,,,,,,,,,
,,1,25,,,,,,,2,5,4,stim/54.jpeg,HouseObjects,1,stim/objects/HouseObjects/wateringcan.png,0.3,2,0.2,0.15,left,34,2020-12-07_16h10.37.794,premup-three_ses-01_part-01_label-phase1,3.2.4,MacIntel,60,left,1.055999994,4,0,4,0,1,3,1,0,240,91,1,239,,,,,,,,,,,,,,,,,,
,,1,26,,,,,,,1,3,2,stim/32.jpeg,HouseObjects,1,stim/objects/HouseObjects/safetypin.png,0.5,1,-0.2,0.15,left,34,2020-12-07_16h10.37.794,premup-three_ses-01_part-01_label-phase1,3.2.4,MacIntel,60,left,0.654000044,4,0,4,0,1,3,1,0,240,1,1,239,,,,,,,,,,,,,,,,,,
,,0,27,,,,,,,2,5,1,stim/51.jpeg,Instruments,2,stim/objects/Instruments/tuba.png,0.7,2,0.2,0.15,right,34,2020-12-07_16h10.37.794,premup-three_ses-01_part-01_label-phase1,3.2.4,MacIntel,60,left,0.776000023,4,0,4,0,1,3,1,0,240,104,1,239,,,,,,,,,,,,,,,,,,
,,0,28,,,,,,,1,4,1,stim/41.jpeg,Instruments,2,stim/objects/Instruments/timbal.png,0.5,1,-0.2,0.15,right,34,2020-12-07_16h10.37.794,premup-three_ses-01_part-01_label-phase1,3.2.4,MacIntel,60,left,0.845999956,4,0,4,0,1,3,1,0,240,72,1,239,,,,,,,,,,,,,,,,,,
,,1,29,,,,,,,3,1,2,stim/12.jpeg,Instruments,2,stim/objects/Instruments/triangle2.png,0.9,4,0.2,-0.15,right,34,2020-12-07_16h10.37.794,premup-three_ses-01_part-01_label-phase1,3.2.4,MacIntel,60,right,1.004999876,4,0,4,0,1,3,1,0,240,185,1,239,,,,,,,,,,,,,,,,,,
,,1,30,,,,,,,3,1,3,stim/13.jpeg,Instruments,2,stim/objects/Instruments/trombone2.png,0.9,3,-0.2,-0.15,right,34,2020-12-07_16h10.37.794,premup-three_ses-01_part-01_label-phase1,3.2.4,MacIntel,60,right,0.717000008,4,0,4,0,1,3,1,0,240,190,1,239,,,,,,,,,,,,,,,,,,
,,0,31,,,,,,,1,4,2,stim/42.jpeg,HouseObjects,1,stim/objects/HouseObjects/spraybottle.png,0.5,4,0.2,-0.15,left,34,2020-12-07_16h10.37.794,premup-three_ses-01_part-01_label-phase1,3.2.4,MacIntel,60,right,0.576999903,4,0,4,0,1,3,1,0,240,57,1,239,,,,,,,,,,,,,,,,,,
,,0,32,,,,,,,1,3,4,stim/34.jpeg,Instruments,2,stim/objects/Instruments/tambourine.png,0.5,1,-0.2,0.15,right,34,2020-12-07_16h10.37.794,premup-three_ses-01_part-01_label-phase1,3.2.4,MacIntel,60,left,0.544000149,4,0,4,0,1,3,1,0,240,23,1,239,,,,,,,,,,,,,,,,,,
,,0,33,,,,,,,3,2,4,stim/24.jpeg,HouseObjects,1,stim/objects/HouseObjects/wateringcan2.png,0.9,3,-0.2,-0.15,left,34,2020-12-07_16h10.37.794,premup-three_ses-01_part-01_label-phase1,3.2.4,MacIntel,60,right,0.378000021,4,0,4,0,1,3,1,0,240,235,1,239,,,,,,,,,,,,,,,,,,
,,1,34,,,,,,,1,3,4,stim/34.jpeg,HouseObjects,1,stim/objects/HouseObjects/scale.png,0.5,2,0.2,0.15,left,34,2020-12-07_16h10.37.794,premup-three_ses-01_part-01_label-phase1,3.2.4,MacIntel,60,left,0.684000015,4,0,4,0,1,3,1,0,240,15,1,239,,,,,,,,,,,,,,,,,,
,,1,35,,,,,,,2,5,3,stim/53.jpeg,Instruments,2,stim/objects/Instruments/vuvuzela.png,0.7,1,-0.2,0.15,right,34,2020-12-07_16h10.37.794,premup-three_ses-01_part-01_label-phase1,3.2.4,MacIntel,60,right,0.839999914,4,0,4,0,1,3,1,0,240,102,1,239,,,,,,,,,,,,,,,,,,
,,1,36,,,,,,,3,1,3,stim/13.jpeg,Instruments,2,stim/objects/Instruments/trombone2.png,0.9,3,-0.2,-0.15,right,34,2020-12-07_16h10.37.794,premup-three_ses-01_part-01_label-phase1,3.2.4,MacIntel,60,right,1.305999994,4,0,4,0,1,3,1,0,240,186,1,239,,,,,,,,,,,,,,,,,,
,,0,37,,,,,,,1,3,4,stim/34.jpeg,HouseObjects,1,stim/objects/HouseObjects/scale.png,0.5,4,0.2,-0.15,left,34,2020-12-07_16h10.37.794,premup-three_ses-01_part-01_label-phase1,3.2.4,MacIntel,60,right,1.142999887,4,0,4,0,1,3,1,0,240,19,1,239,,,,,,,,,,,,,,,,,,
,,0,38,,,,,,,1,3,4,stim/34.jpeg,Instruments,2,stim/objects/Instruments/tambourine.png,0.5,1,-0.2,0.15,right,34,2020-12-07_16h10.37.794,premup-three_ses-01_part-01_label-phase1,3.2.4,MacIntel,60,left,1.008000135,4,0,4,0,1,3,1,0,240,31,1,239,,,,,,,,,,,,,,,,,,
,,0,39,,,,,,,3,1,3,stim/13.jpeg,Instruments,2,stim/objects/Instruments/trombone2.png,0.9,2,0.2,0.15,right,34,2020-12-07_16h10.37.794,premup-three_ses-01_part-01_label-phase1,3.2.4,MacIntel,60,left,1.191999912,4,0,4,0,1,3,1,0,240,178,1,239,,,,,,,,,,,,,,,,,,
,,0,40,,,,,,,1,3,1,stim/31.jpeg,HouseObjects,1,stim/objects/HouseObjects/rug.png,0.5,1,-0.2,0.15,left,34,2020-12-07_16h10.37.794,premup-three_ses-01_part-01_label-phase1,3.2.4,MacIntel,60,right,0.66899991,4,0,4,0,1,3,1,0,240,16,1,239,,,,,,,,,,,,,,,,,,
,,1,41,,,,,,,3,2,1,stim/21.jpeg,HouseObjects,1,stim/objects/HouseObjects/thread2.png,0.9,1,-0.2,0.15,left,34,2020-12-07_16h10.37.794,premup-three_ses-01_part-01_label-phase1,3.2.4,MacIntel,60,left,0.700999975,4,0,4,0,1,3,1,0,240,228,1,239,,,,,,,,,,,,,,,,,,
,,1,42,,,,,,,2,5,4,stim/54.jpeg,Instruments,2,stim/objects/Instruments/xylophone.png,0.7,2,0.2,0.15,right,34,2020-12-07_16h10.37.794,premup-three_ses-01_part-01_label-phase1,3.2.4,MacIntel,60,right,0.879000187,4,0,4,0,1,3,1,0,240,99,1,239,,,,,,,,,,,,,,,,,,
,,0,43,,,,,,,3,2,2,stim/22.jpeg,Instruments,2,stim/objects/Instruments/violin2.png,0.1,4,0.2,-0.15,right,34,2020-12-07_16h10.37.794,premup-three_ses-01_part-01_label-phase1,3.2.4,MacIntel,60,left,0.666000128,4,0,4,0,1,3,1,0,240,237,1,239,,,,,,,,,,,,,,,,,,
,,1,44,,,,,,,3,1,3,stim/13.jpeg,Instruments,2,stim/objects/Instruments/trombone2.png,0.9,3,-0.2,-0.15,right,34,2020-12-07_16h10.37.794,premup-three_ses-01_part-01_label-phase1,3.2.4,MacIntel,60,right,1.207000017,4,0,4,0,1,3,1,0,240,198,1,239,,,,,,,,,,,,,,,,,,
,,0,45,,,,,,,2,5,4,stim/54.jpeg,Instruments,2,stim/objects/Instruments/xylophone.png,0.7,3,-0.2,-0.15,right,34,2020-12-07_16h10.37.794,premup-three_ses-01_part-01_label-phase1,3.2.4,MacIntel,60,left,1.315999985,4,0,4,0,1,3,1,0,240,103,1,239,,,,,,,,,,,,,,,,,,
,,1,46,,,,,,,3,1,1,stim/11.jpeg,Instruments,2,stim/objects/Instruments/timbal2.png,0.9,4,0.2,-0.15,right,34,2020-12-07_16h10.37.794,premup-three_ses-01_part-01_label-phase1,3.2.4,MacIntel,60,right,0.684999943,4,0,4,0,1,3,1,0,240,192,1,239,,,,,,,,,,,,,,,,,,
,,1,47,,,,,,,3,2,3,stim/23.jpeg,Instruments,2,stim/objects/Instruments/vuvuzela2.png,0.1,2,0.2,0.15,right,34,2020-12-07_16h10.37.794,premup-three_ses-01_part-01_label-phase1,3.2.4,MacIntel,60,right,1.520999908,4,0,4,0,1,3,1,0,240,238,1,239,,,,,,,,,,,,,,,,,,
,,0,48,,,,,,,3,2,3,stim/23.jpeg,HouseObjects,1,stim/objects/HouseObjects/vacuumcleaner2.png,0.9,4,0.2,-0.15,left,34,2020-12-07_16h10.37.794,premup-three_ses-01_part-01_label-phase1,3.2.4,MacIntel,60,right,0.773999929,4,0,4,0,1,3,1,0,240,206,1,239,,,,,,,,,,,,,,,,,,
,,1,49,,,,,,,3,1,2,stim/12.jpeg,Instruments,2,stim/objects/Instruments/triangle2.png,0.9,3,-0.2,-0.15,right,34,2020-12-07_16h10.37.794,premup-three_ses-01_part-01_label-phase1,3.2.4,MacIntel,60,right,0.717999935,4,0,4,0,1,3,1,0,240,177,1,239,,,,,,,,,,,,,,,,,,
,,1,50,,,,,,,1,3,1,stim/31.jpeg,HouseObjects,1,stim/objects/HouseObjects/rug.png,0.5,2,0.2,0.15,left,34,2020-12-07_16h10.37.794,premup-three_ses-01_part-01_label-phase1,3.2.4,MacIntel,60,left,0.723999977,4,0,4,0,1,3,1,0,240,8,1,239,,,,,,,,,,,,,,,,,,
,,1,51,,,,,,,3,1,2,stim/12.jpeg,Instruments,2,stim/objects/Instruments/triangle2.png,0.9,3,-0.2,-0.15,right,34,2020-12-07_16h10.37.794,premup-three_ses-01_part-01_label-phase1,3.2.4,MacIntel,60,right,0.829999924,4,0,4,0,1,3,1,0,240,181,1,239,,,,,,,,,,,,,,,,,,
,,0,52,,,,,,,1,4,2,stim/42.jpeg,Instruments,2,stim/objects/Instruments/triangle.png,0.5,1,-0.2,0.15,right,34,2020-12-07_16h10.37.794,premup-three_ses-01_part-01_label-phase1,3.2.4,MacIntel,60,left,0.76699996,4,0,4,0,1,3,1,0,240,65,1,239,,,,,,,,,,,,,,,,,,
,,0,53,,,,,,,3,2,1,stim/21.jpeg,HouseObjects,1,stim/objects/HouseObjects/thread2.png,0.9,4,0.2,-0.15,left,34,2020-12-07_16h10.37.794,premup-three_ses-01_part-01_label-phase1,3.2.4,MacIntel,60,right,0.950999975,4,0,4,0,1,3,1,0,240,224,1,239,,,,,,,,,,,,,,,,,,
,,1,54,,,,,,,1,4,4,stim/44.jpeg,HouseObjects,1,stim/objects/HouseObjects/thermometer.png,0.5,3,-0.2,-0.15,left,34,2020-12-07_16h10.37.794,premup-three_ses-01_part-01_label-phase1,3.2.4,MacIntel,60,left,0.862999916,4,0,4,0,1,3,1,0,240,43,1,239,,,,,,,,,,,,,,,,,,
,,0,55,,,,,,,1,4,4,stim/44.jpeg,Instruments,2,stim/objects/Instruments/trumpet.png,0.5,3,-0.2,-0.15,right,34,2020-12-07_16h10.37.794,premup-three_ses-01_part-01_label-phase1,3.2.4,MacIntel,60,left,0.573999882,4,0,4,0,1,3,1,0,240,71,1,239,,,,,,,,,,,,,,,,,,
,,1,56,,,,,,,3,2,2,stim/22.jpeg,HouseObjects,1,stim/objects/HouseObjects/towel2.png,0.9,4,0.2,-0.15,left,34,2020-12-07_16h10.37.794,premup-three_ses-01_part-01_label-phase1,3.2.4,MacIntel,60,left,0.881999969,4,0,4,0,1,3,1,0,240,205,1,239,,,,,,,,,,,,,,,,,,
,,1,57,,,,,,,2,5,1,stim/51.jpeg,Instruments,2,stim/objects/Instruments/tuba.png,0.7,2,0.2,0.15,right,34,2020-12-07_16h10.37.794,premup-three_ses-01_part-01_label-phase1,3.2.4,MacIntel,60,right,0.807999849,4,0,4,0,1,3,1,0,240,112,1,239,,,,,,,,,,,,,,,,,,
,,1,58,,,,,,,1,3,1,stim/31.jpeg,Instruments,2,stim/objects/Instruments/record_player.png,0.5,4,0.2,-0.15,right,34,2020-12-07_16h10.37.794,premup-three_ses-01_part-01_label-phase1,3.2.4,MacIntel,60,right,0.742000103,4,0,4,0,1,3,1,0,240,24,1,239,,,,,,,,,,,,,,,,,,
,,0,59,,,,,,,3,1,3,stim/13.jpeg,Instruments,2,stim/objects/Instruments/trombone2.png,0.9,2,0.2,0.15,right,34,2020-12-07_16h10.37.794,premup-three_ses-01_part-01_label-phase1,3.2.4,MacIntel,60,left,1.325000048,4,0,4,0,1,3,1,0,240,170,1,239,,,,,,,,,,,,,,,,,,
,,1,60,,,,,,,3,2,2,stim/22.jpeg,HouseObjects,1,stim/objects/HouseObjects/towel2.png,0.9,3,-0.2,-0.15,left,34,2020-12-07_16h10.37.794,premup-three_ses-01_part-01_label-phase1,3.2.4,MacIntel,60,left,0.849000216,4,0,4,0,1,3,1,0,240,209,1,239,,,,,,,,,,,,,,,,,,
,,1,61,,,,,,,3,2,3,stim/23.jpeg,HouseObjects,1,stim/objects/HouseObjects/vacuumcleaner2.png,0.9,3,-0.2,-0.15,left,34,2020-12-07_16h10.37.794,premup-three_ses-01_part-01_label-phase1,3.2.4,MacIntel,60,left,1.25,4,0,4,0,1,3,1,0,240,234,1,239,,,,,,,,,,,,,,,,,,
,,0,62,,,,,,,1,4,2,stim/42.jpeg,HouseObjects,1,stim/objects/HouseObjects/spraybottle.png,0.5,4,0.2,-0.15,left,34,2020-12-07_16h10.37.794,premup-three_ses-01_part-01_label-phase1,3.2.4,MacIntel,60,right,0.811000109,4,0,4,0,1,3,1,0,240,49,1,239,,,,,,,,,,,,,,,,,,
,,0,63,,,,,,,1,4,1,stim/41.jpeg,Instruments,2,stim/objects/Instruments/timbal.png,0.5,2,0.2,0.15,right,34,2020-12-07_16h10.37.794,premup-three_ses-01_part-01_label-phase1,3.2.4,MacIntel,60,left,1.131000042,4,0,4,0,1,3,1,0,240,76,1,239,,,,,,,,,,,,,,,,,,
,,0,64,,,,,,,3,1,3,stim/13.jpeg,Instruments,2,stim/objects/Instruments/trombone2.png,0.9,2,0.2,0.15,right,34,2020-12-07_16h10.37.794,premup-three_ses-01_part-01_label-phase1,3.2.4,MacIntel,60,left,0.822999954,4,0,4,0,1,3,1,0,240,182,1,239,,,,,,,,,,,,,,,,,,
,,0,65,,,,,,,2,5,4,stim/54.jpeg,Instruments,2,stim/objects/Instruments/xylophone.png,0.7,4,0.2,-0.15,right,34,2020-12-07_16h10.37.794,premup-three_ses-01_part-01_label-phase1,3.2.4,MacIntel,60,left,1.36500001,4,0,4,0,1,3,1,0,240,111,1,239,,,,,,,,,,,,,,,,,,
,,1,66,,,,,,,3,2,3,stim/23.jpeg,HouseObjects,1,stim/objects/HouseObjects/vacuumcleaner2.png,0.9,4,0.2,-0.15,left,34,2020-12-07_16h10.37.794,premup-three_ses-01_part-01_label-phase1,3.2.4,MacIntel,60,left,1.006999969,4,0,4,0,1,3,1,0,240,202,1,239,,,,,,,,,,,,,,,,,,
,,1,67,,,,,,,3,2,1,stim/21.jpeg,HouseObjects,1,stim/objects/HouseObjects/thread2.png,0.9,2,0.2,0.15,left,34,2020-12-07_16h10.37.794,premup-three_ses-01_part-01_label-phase1,3.2.4,MacIntel,60,left,0.880000114,4,0,4,0,1,3,1,0,240,212,1,239,,,,,,,,,,,,,,,,,,
,,1,68,,,,,,,3,2,4,stim/24.jpeg,HouseObjects,1,stim/objects/HouseObjects/wateringcan2.png,0.9,3,-0.2,-0.15,left,34,2020-12-07_16h10.37.794,premup-three_ses-01_part-01_label-phase1,3.2.4,MacIntel,60,left,0.712999821,4,0,4,0,1,3,1,0,240,211,1,239,,,,,,,,,,,,,,,,,,
,,1,69,,,,,,,3,2,4,stim/24.jpeg,HouseObjects,1,stim/objects/HouseObjects/wateringcan2.png,0.9,4,0.2,-0.15,left,34,2020-12-07_16h10.37.794,premup-three_ses-01_part-01_label-phase1,3.2.4,MacIntel,60,left,0.539000034,4,0,4,0,1,3,1,0,240,227,1,239,,,,,,,,,,,,,,,,,,
,,0,70,,,,,,,1,3,2,stim/32.jpeg,HouseObjects,1,stim/objects/HouseObjects/safetypin.png,0.5,3,-0.2,-0.15,left,34,2020-12-07_16h10.37.794,premup-three_ses-01_part-01_label-phase1,3.2.4,MacIntel,60,right,0.928999901,4,0,4,0,1,3,1,0,240,9,1,239,,,,,,,,,,,,,,,,,,
,,1,71,,,,,,,2,6,4,stim/64.jpeg,HouseObjects,1,stim/objects/HouseObjects/scale2.png,0.7,4,0.2,-0.15,left,34,2020-12-07_16h10.37.794,premup-three_ses-01_part-01_label-phase1,3.2.4,MacIntel,60,left,1.317000151,4,0,4,0,1,3,1,0,240,135,1,239,,,,,,,,,,,,,,,,,,
,,1,72,,,,,,,2,6,1,stim/61.jpeg,HouseObjects,1,stim/objects/HouseObjects/rug2.png,0.7,3,-0.2,-0.15,left,34,2020-12-07_16h10.37.794,premup-three_ses-01_part-01_label-phase1,3.2.4,MacIntel,60,left,0.659999847,4,0,4,0,1,3,1,0,240,144,1,239,,,,,,,,,,,,,,,,,,
,,0,73,,,,,,,2,5,2,stim/52.jpeg,Instruments,2,stim/objects/Instruments/violin.png,0.7,4,0.2,-0.15,right,34,2020-12-07_16h10.37.794,premup-three_ses-01_part-01_label-phase1,3.2.4,MacIntel,60,left,1.193000078,4,0,4,0,1,3,1,0,240,109,1,239,,,,,,,,,,,,,,,,,,
,,1,74,,,,,,,2,5,1,stim/51.jpeg,Instruments,2,stim/objects/Instruments/tuba.png,0.7,3,-0.2,-0.15,right,34,2020-12-07_16h10.37.794,premup-three_ses-01_part-01_label-phase1,3.2.4,MacIntel,60,right,0.861000061,4,0,4,0,1,3,1,0,240,108,1,239,,,,,,,,,,,,,,,,,,
,,1,75,,,,,,,2,6,3,stim/63.jpeg,HouseObjects,1,stim/objects/HouseObjects/saw2.png,0.7,3,-0.2,-0.15,left,34,2020-12-07_16h10.37.794,premup-three_ses-01_part-01_label-phase1,3.2.4,MacIntel,60,left,1.494999886,4,0,4,0,1,3,1,0,240,142,1,239,,,,,,,,,,,,,,,,,,
,,1,76,,,,,,,1,3,3,stim/33.jpeg,Instruments,2,stim/objects/Instruments/speaker.png,0.5,3,-0.2,-0.15,right,34,2020-12-07_16h10.37.794,premup-three_ses-01_part-01_label-phase1,3.2.4,MacIntel,60,right,1.118999958,4,0,4,0,1,3,1,0,240,22,1,239,,,,,,,,,,,,,,,,,,
,,1,77,,,,,,,2,5,1,stim/51.jpeg,Instruments,2,stim/objects/Instruments/tuba.png,0.7,1,-0.2,0.15,right,34,2020-12-07_16h10.37.794,premup-three_ses-01_part-01_label-phase1,3.2.4,MacIntel,60,right,0.909000158,4,0,4,0,1,3,1,0,240,100,1,239,,,,,,,,,,,,,,,,,,
,,0,78,,,,,,,1,3,3,stim/33.jpeg,Instruments,2,stim/objects/Instruments/speaker.png,0.5,1,-0.2,0.15,right,34,2020-12-07_16h10.37.794,premup-three_ses-01_part-01_label-phase1,3.2.4,MacIntel,60,left,0.865999937,4,0,4,0,1,3,1,0,240,26,1,239,,,,,,,,,,,,,,,,,,
,,0,79,,,,,,,1,3,1,stim/31.jpeg,HouseObjects,1,stim/objects/HouseObjects/rug.png,0.5,3,-0.2,-0.15,left,34,2020-12-07_16h10.37.794,premup-three_ses-01_part-01_label-phase1,3.2.4,MacIntel,60,right,0.590999842,4,0,4,0,1,3,1,0,240,4,1,239,,,,,,,,,,,,,,,,,,
,,0,80,,,,,,,3,1,1,stim/11.jpeg,Instruments,2,stim/objects/Instruments/timbal2.png,0.9,2,0.2,0.15,right,34,2020-12-07_16h10.37.794,premup-three_ses-01_part-01_label-phase1,3.2.4,MacIntel,60,left,0.734999895,4,0,4,0,1,3,1,0,240,168,1,239,,,,,,,,,,,,,,,,,,
,,1,81,,,,,,,2,6,2,stim/62.jpeg,Instruments,2,stim/objects/Instruments/saxophone2.png,0.3,3,-0.2,-0.15,right,34,2020-12-07_16h10.37.794,premup-three_ses-01_part-01_label-phase1,3.2.4,MacIntel,60,right,0.492999792,4,0,4,0,1,3,1,0,240,157,1,239,,,,,,,,,,,,,,,,,,
,,1,82,,,,,,,1,3,1,stim/31.jpeg,Instruments,2,stim/objects/Instruments/record_player.png,0.5,1,-0.2,0.15,right,34,2020-12-07_16h10.37.794,premup-three_ses-01_part-01_label-phase1,3.2.4,MacIntel,60,right,0.732000113,4,0,4,0,1,3,1,0,240,20,1,239,,,,,,,,,,,,,,,,,,
,,1,83,,,,,,,1,4,2,stim/42.jpeg,HouseObjects,1,stim/objects/HouseObjects/spraybottle.png,0.5,4,0.2,-0.15,left,34,2020-12-07_16h10.37.794,premup-three_ses-01_part-01_label-phase1,3.2.4,MacIntel,60,left,0.816999912,4,0,4,0,1,3,1,0,240,53,1,239,,,,,,,,,,,,,,,,,,
,,1,84,,,,,,,3,2,1,stim/21.jpeg,HouseObjects,1,stim/objects/HouseObjects/thread2.png,0.9,1,-0.2,0.15,left,34,2020-12-07_16h10.37.794,premup-three_ses-01_part-01_label-phase1,3.2.4,MacIntel,60,left,0.76699996,4,0,4,0,1,3,1,0,240,200,1,239,,,,,,,,,,,,,,,,,,
,,0,85,,,,,,,3,2,1,stim/21.jpeg,Instruments,2,stim/objects/Instruments/tuba2.png,0.1,1,-0.2,0.15,right,34,2020-12-07_16h10.37.794,premup-three_ses-01_part-01_label-phase1,3.2.4,MacIntel,60,left,0.476000071,4,0,4,0,1,3,1,0,240,236,1,239,,,,,,,,,,,,,,,,,,
,,0,86,,,,,,,1,4,1,stim/41.jpeg,HouseObjects,1,stim/objects/HouseObjects/sponge.png,0.5,3,-0.2,-0.15,left,34,2020-12-07_16h10.37.794,premup-three_ses-01_part-01_label-phase1,3.2.4,MacIntel,60,right,1.085999966,4,0,4,0,1,3,1,0,240,40,1,239,,,,,,,,,,,,,,,,,,
,,1,87,,,,,,,2,6,4,stim/64.jpeg,HouseObjects,1,stim/objects/HouseObjects/scale2.png,0.7,3,-0.2,-0.15,left,34,2020-12-07_16h10.37.794,premup-three_ses-01_part-01_label-phase1,3.2.4,MacIntel,60,left,0.677999973,4,0,4,0,1,3,1,0,240,127,1,239,,,,,,,,,,,,,,,,,,
,,0,88,,,,,,,1,3,3,stim/33.jpeg,Instruments,2,stim/objects/Instruments/speaker.png,0.5,2,0.2,0.15,right,34,2020-12-07_16h10.37.794,premup-three_ses-01_part-01_label-phase1,3.2.4,MacIntel,60,left,0.597000122,4,0,4,0,1,3,1,0,240,30,1,239,,,,,,,,,,,,,,,,,,
,,1,89,,,,,,,1,4,3,stim/43.jpeg,Instruments,2,stim/objects/Instruments/trombone.png,0.5,3,-0.2,-0.15,right,34,2020-12-07_16h10.37.794,premup-three_ses-01_part-01_label-phase1,3.2.4,MacIntel,60,right,0.45600009,4,0,4,0,1,3,1,0,240,70,1,239,,,,,,,,,,,,,,,,,,
,,0,90,,,,,,,2,6,1,stim/61.jpeg,HouseObjects,1,stim/objects/HouseObjects/rug2.png,0.7,3,-0.2,-0.15,left,34,2020-12-07_16h10.37.794,premup-three_ses-01_part-01_label-phase1,3.2.4,MacIntel,60,right,0.755000114,4,0,4,0,1,3,1,0,240,120,1,239,,,,,,,,,,,,,,,,,,
,,0,91,,,,,,,3,1,4,stim/14.jpeg,Instruments,2,stim/objects/Instruments/trumpet2.png,0.9,1,-0.2,0.15,right,34,2020-12-07_16h10.37.794,premup-three_ses-01_part-01_label-phase1,3.2.4,MacIntel,60,left,0.756000042,4,0,4,0,1,3,1,0,240,179,1,239,,,,,,,,,,,,,,,,,,
,,1,92,,,,,,,3,2,2,stim/22.jpeg,HouseObjects,1,stim/objects/HouseObjects/towel2.png,0.9,2,0.2,0.15,left,34,2020-12-07_16h10.37.794,premup-three_ses-01_part-01_label-phase1,3.2.4,MacIntel,60,left,0.795000076,4,0,4,0,1,3,1,0,240,217,1,239,,,,,,,,,,,,,,,,,,
,,1,93,,,,,,,3,1,3,stim/13.jpeg,Instruments,2,stim/objects/Instruments/trombone2.png,0.9,4,0.2,-0.15,right,34,2020-12-07_16h10.37.794,premup-three_ses-01_part-01_label-phase1,3.2.4,MacIntel,60,right,0.898999929,4,0,4,0,1,3,1,0,240,194,1,239,,,,,,,,,,,,,,,,,,
,,1,94,,,,,,,3,2,3,stim/23.jpeg,HouseObjects,1,stim/objects/HouseObjects/vacuumcleaner2.png,0.9,1,-0.2,0.15,left,34,2020-12-07_16h10.37.794,premup-three_ses-01_part-01_label-phase1,3.2.4,MacIntel,60,left,0.730000019,4,0,4,0,1,3,1,0,240,218,1,239,,,,,,,,,,,,,,,,,,
,,0,95,,,,,,,2,6,2,stim/62.jpeg,Instruments,2,stim/objects/Instruments/saxophone2.png,0.3,4,0.2,-0.15,right,34,2020-12-07_16h10.37.794,premup-three_ses-01_part-01_label-phase1,3.2.4,MacIntel,60,left,0.685000181,4,0,4,0,1,3,1,0,240,153,1,239,,,,,,,,,,,,,,,,,,
,,0,96,,,,,,,2,6,2,stim/62.jpeg,HouseObjects,1,stim/objects/HouseObjects/safetypin2.png,0.7,1,-0.2,0.15,left,34,2020-12-07_16h10.37.794,premup-three_ses-01_part-01_label-phase1,3.2.4,MacIntel,60,right,0.566999912,4,0,4,0,1,3,1,0,240,141,1,239,,,,,,,,,,,,,,,,,,
,,0,97,,,,,,,3,1,3,stim/13.jpeg,Instruments,2,stim/objects/Instruments/trombone2.png,0.9,2,0.2,0.15,right,34,2020-12-07_16h10.37.794,premup-three_ses-01_part-01_label-phase1,3.2.4,MacIntel,60,left,1.398000002,4,0,4,0,1,3,1,0,240,174,1,239,,,,,,,,,,,,,,,,,,
,,1,98,,,,,,,1,4,4,stim/44.jpeg,HouseObjects,1,stim/objects/HouseObjects/thermometer.png,0.5,2,0.2,0.15,left,34,2020-12-07_16h10.37.794,premup-three_ses-01_part-01_label-phase1,3.2.4,MacIntel,60,left,1.001000166,4,0,4,0,1,3,1,0,240,59,1,239,,,,,,,,,,,,,,,,,,
,,0,99,,,,,,,1,4,1,stim/41.jpeg,Instruments,2,stim/objects/Instruments/timbal.png,0.5,2,0.2,0.15,right,34,2020-12-07_16h10.37.794,premup-three_ses-01_part-01_label-phase1,3.2.4,MacIntel,60,left,0.791000128,4,0,4,0,1,3,1,0,240,68,1,239,,,,,,,,,,,,,,,,,,
,,0,100,,,,,,,2,5,2,stim/52.jpeg,HouseObjects,1,stim/objects/HouseObjects/towel.png,0.3,4,0.2,-0.15,left,34,2020-12-07_16h10.37.794,premup-three_ses-01_part-01_label-phase1,3.2.4,MacIntel,60,right,0.869999886,4,0,4,0,1,3,1,0,240,81,1,239,,,,,,,,,,,,,,,,,,
,,1,101,,,,,,,2,6,4,stim/64.jpeg,HouseObjects,1,stim/objects/HouseObjects/scale2.png,0.7,4,0.2,-0.15,left,34,2020-12-07_16h10.37.794,premup-three_ses-01_part-01_label-phase1,3.2.4,MacIntel,60,left,0.687000036,4,0,4,0,1,3,1,0,240,143,1,239,,,,,,,,,,,,,,,,,,
,,1,102,,,,,,,2,5,3,stim/53.jpeg,Instruments,2,stim/objects/Instruments/vuvuzela.png,0.7,4,0.2,-0.15,right,34,2020-12-07_16h10.37.794,premup-three_ses-01_part-01_label-phase1,3.2.4,MacIntel,60,right,0.874000072,4,0,4,0,1,3,1,0,240,106,1,239,,,,,,,,,,,,,,,,,,
,,0,103,,,,,,,1,3,4,stim/34.jpeg,Instruments,2,stim/objects/Instruments/tambourine.png,0.5,1,-0.2,0.15,right,34,2020-12-07_16h10.37.794,premup-three_ses-01_part-01_label-phase1,3.2.4,MacIntel,60,left,0.683000088,4,0,4,0,1,3,1,0,240,27,1,239,,,,,,,,,,,,,,,,,,
,,1,104,,,,,,,1,3,4,stim/34.jpeg,Instruments,2,stim/objects/Instruments/tambourine.png,0.5,2,0.2,0.15,right,34,2020-12-07_16h10.37.794,premup-three_ses-01_part-01_label-phase1,3.2.4,MacIntel,60,right,1.571000099,4,0,4,0,1,3,1,0,240,35,1,239,,,,,,,,,,,,,,,,,,
,,0,105,,,,,,,2,6,3,stim/63.jpeg,HouseObjects,1,stim/objects/HouseObjects/saw2.png,0.7,3,-0.2,-0.15,left,34,2020-12-07_16h10.37.794,premup-three_ses-01_part-01_label-phase1,3.2.4,MacIntel,60,right,1.057999849,4,0,4,0,1,3,1,0,240,122,1,239,,,,,,,,,,,,,,,,,,
,,1,106,,,,,,,2,6,3,stim/63.jpeg,HouseObjects,1,stim/objects/HouseObjects/saw2.png,0.7,2,0.2,0.15,left,34,2020-12-07_16h10.37.794,premup-three_ses-01_part-01_label-phase1,3.2.4,MacIntel,60,left,0.793000221,4,0,4,0,1,3,1,0,240,130,1,239,,,,,,,,,,,,,,,,,,
,,1,107,,,,,,,1,3,2,stim/32.jpeg,Instruments,2,stim/objects/Instruments/saxophone.png,0.5,1,-0.2,0.15,right,34,2020-12-07_16h10.37.794,premup-three_ses-01_part-01_label-phase1,3.2.4,MacIntel,60,right,0.741999865,4,0,4,0,1,3,1,0,240,33,1,239,,,,,,,,,,,,,,,,,,
,,0,108,,,,,,,1,4,2,stim/42.jpeg,HouseObjects,1,stim/objects/HouseObjects/spraybottle.png,0.5,2,0.2,0.15,left,34,2020-12-07_16h10.37.794,premup-three_ses-01_part-01_label-phase1,3.2.4,MacIntel,60,right,1.132999897,4,0,4,0,1,3,1,0,240,41,1,239,,,,,,,,,,,,,,,,,,
,,1,109,,,,,,,2,6,3,stim/63.jpeg,HouseObjects,1,stim/objects/HouseObjects/saw2.png,0.7,4,0.2,-0.15,left,34,2020-12-07_16h10.37.794,premup-three_ses-01_part-01_label-phase1,3.2.4,MacIntel,60,left,1.22300005,4,0,4,0,1,3,1,0,240,126,1,239,,,,,,,,,,,,,,,,,,
,,0,110,,,,,,,1,3,3,stim/33.jpeg,HouseObjects,1,stim/objects/HouseObjects/saw.png,0.5,1,-0.2,0.15,left,34,2020-12-07_16h10.37.794,premup-three_ses-01_part-01_label-phase1,3.2.4,MacIntel,60,right,0.77699995,4,0,4,0,1,3,1,0,240,10,1,239,,,,,,,,,,,,,,,,,,
,,1,111,,,,,,,1,3,3,stim/33.jpeg,Instruments,2,stim/objects/Instruments/speaker.png,0.5,1,-0.2,0.15,right,34,2020-12-07_16h10.37.794,premup-three_ses-01_part-01_label-phase1,3.2.4,MacIntel,60,right,0.753999949,4,0,4,0,1,3,1,0,240,38,1,239,,,,,,,,,,,,,,,,,,
,,0,112,,,,,,,3,1,3,stim/13.jpeg,HouseObjects,1,stim/objects/HouseObjects/teapot2.png,0.1,1,-0.2,0.15,left,34,2020-12-07_16h10.37.794,premup-three_ses-01_part-01_label-phase1,3.2.4,MacIntel,60,right,0.801999807,4,0,4,0,1,3,1,0,240,162,1,239,,,,,,,,,,,,,,,,,,
,,0,113,,,,,,,3,1,4,stim/14.jpeg,Instruments,2,stim/objects/Instruments/trumpet2.png,0.9,3,-0.2,-0.15,right,34,2020-12-07_16h10.37.794,premup-three_ses-01_part-01_label-phase1,3.2.4,MacIntel,60,,,4,0,4,0,1,3,1,0,240,167,1,239,,,,,,,,,,,,,,,,,,
,,1,114,,,,,,,2,5,3,stim/53.jpeg,Instruments,2,stim/objects/Instruments/vuvuzela.png,0.7,2,0.2,0.15,right,34,2020-12-07_16h10.37.794,premup-three_ses-01_part-01_label-phase1,3.2.4,MacIntel,60,right,0.660000086,4,0,4,0,1,3,1,0,240,94,1,239,,,,,,,,,,,,,,,,,,
,,0,115,,,,,,,1,3,2,stim/32.jpeg,HouseObjects,1,stim/objects/HouseObjects/safetypin.png,0.5,4,0.2,-0.15,left,34,2020-12-07_16h10.37.794,premup-three_ses-01_part-01_label-phase1,3.2.4,MacIntel,60,right,0.934999943,4,0,4,0,1,3,1,0,240,17,1,239,,,,,,,,,,,,,,,,,,
,,1,116,,,,,,,1,4,3,stim/43.jpeg,HouseObjects,1,stim/objects/HouseObjects/teapot.png,0.5,4,0.2,-0.15,left,34,2020-12-07_16h10.37.794,premup-three_ses-01_part-01_label-phase1,3.2.4,MacIntel,60,left,0.609999895,4,0,4,0,1,3,1,0,240,54,1,239,,,,,,,,,,,,,,,,,,
,,1,117,,,,,,,2,5,4,stim/54.jpeg,Instruments,2,stim/objects/Instruments/xylophone.png,0.7,1,-0.2,0.15,right,34,2020-12-07_16h10.37.794,premup-three_ses-01_part-01_label-phase1,3.2.4,MacIntel,60,right,0.789000034,4,0,4,0,1,3,1,0,240,95,1,239,,,,,,,,,,,,,,,,,,
,,1,118,,,,,,,2,6,3,stim/63.jpeg,Instruments,2,stim/objects/Instruments/speaker2.png,0.3,4,0.2,-0.15,right,34,2020-12-07_16h10.37.794,premup-three_ses-01_part-01_label-phase1,3.2.4,MacIntel,60,right,1.012000084,4,0,4,0,1,3,1,0,240,154,1,239,,,,,,,,,,,,,,,,,,
,,0,119,,,,,,,1,4,1,stim/41.jpeg,Instruments,2,stim/objects/Instruments/timbal.png,0.5,2,0.2,0.15,right,34,2020-12-07_16h10.37.794,premup-three_ses-01_part-01_label-phase1,3.2.4,MacIntel,60,left,1.226999998,4,0,4,0,1,3,1,0,240,64,1,239,,,,,,,,,,,,,,,,,,
,,0,120,,,,,,,1,4,1,stim/41.jpeg,Instruments,2,stim/objects/Instruments/timbal.png,0.5,4,0.2,-0.15,right,34,2020-12-07_16h10.37.794,premup-three_ses-01_part-01_label-phase1,3.2.4,MacIntel,60,left,1.106999874,4,0,4,0,1,3,1,0,240,60,1,239,,,,,,,,,,,,,,,,,,
,,0,121,,,,,,,2,5,4,stim/54.jpeg,HouseObjects,1,stim/objects/HouseObjects/wateringcan.png,0.3,2,0.2,0.15,left,34,2020-12-07_16h10.37.794,premup-three_ses-01_part-01_label-phase1,3.2.4,MacIntel,60,right,1.123000145,4,0,4,0,1,3,1,0,240,87,1,239,,,,,,,,,,,,,,,,,,
,,1,122,,,,,,,3,1,4,stim/14.jpeg,Instruments,2,stim/objects/Instruments/trumpet2.png,0.9,2,0.2,0.15,right,34,2020-12-07_16h10.37.794,premup-three_ses-01_part-01_label-phase1,3.2.4,MacIntel,60,right,0.825999975,4,0,4,0,1,3,1,0,240,171,1,239,,,,,,,,,,,,,,,,,,
,,1,123,,,,,,,2,6,2,stim/62.jpeg,HouseObjects,1,stim/objects/HouseObjects/safetypin2.png,0.7,1,-0.2,0.15,left,34,2020-12-07_16h10.37.794,premup-three_ses-01_part-01_label-phase1,3.2.4,MacIntel,60,left,1.282000065,4,0,4,0,1,3,1,0,240,145,1,239,,,,,,,,,,,,,,,,,,
,,1,124,,,,,,,2,6,2,stim/62.jpeg,HouseObjects,1,stim/objects/HouseObjects/safetypin2.png,0.7,2,0.2,0.15,left,34,2020-12-07_16h10.37.794,premup-three_ses-01_part-01_label-phase1,3.2.4,MacIntel,60,left,0.799999952,4,0,4,0,1,3,1,0,240,137,1,239,,,,,,,,,,,,,,,,,,
,,1,125,,,,,,,1,4,2,stim/42.jpeg,Instruments,2,stim/objects/Instruments/triangle.png,0.5,3,-0.2,-0.15,right,34,2020-12-07_16h10.37.794,premup-three_ses-01_part-01_label-phase1,3.2.4,MacIntel,60,right,0.796999931,4,0,4,0,1,3,1,0,240,77,1,239,,,,,,,,,,,,,,,,,,
,,1,126,,,,,,,1,3,2,stim/32.jpeg,Instruments,2,stim/objects/Instruments/saxophone.png,0.5,4,0.2,-0.15,right,34,2020-12-07_16h10.37.794,premup-three_ses-01_part-01_label-phase1,3.2.4,MacIntel,60,right,1.055999994,4,0,4,0,1,3,1,0,240,29,1,239,,,,,,,,,,,,,,,,,,
,,1,127,,,,,,,2,6,2,stim/62.jpeg,HouseObjects,1,stim/objects/HouseObjects/safetypin2.png,0.7,4,0.2,-0.15,left,34,2020-12-07_16h10.37.794,premup-three_ses-01_part-01_label-phase1,3.2.4,MacIntel,60,left,1.072999954,4,0,4,0,1,3,1,0,240,125,1,239,,,,,,,,,,,,,,,,,,
,,1,128,,,,,,,3,1,3,stim/13.jpeg,Instruments,2,stim/objects/Instruments/trombone2.png,0.9,4,0.2,-0.15,right,34,2020-12-07_16h10.37.794,premup-three_ses-01_part-01_label-phase1,3.2.4,MacIntel,60,right,1.104000092,4,0,4,0,1,3,1,0,240,166,1,239,,,,,,,,,,,,,,,,,,
,,0,129,,,,,,,1,3,3,stim/33.jpeg,HouseObjects,1,stim/objects/HouseObjects/saw.png,0.5,2,0.2,0.15,left,34,2020-12-07_16h10.37.794,premup-three_ses-01_part-01_label-phase1,3.2.4,MacIntel,60,right,1.138999939,4,0,4,0,1,3,1,0,240,6,1,239,,,,,,,,,,,,,,,,,,
