key_resp_pract.keys,key_resp_pract.rt,trial_acc,trial_index,practice_loop.thisRepN,practice_loop.thisTrialN,practice_loop.thisN,practice_loop.thisIndex,practice_loop.ran,practice_loop.order,scn_condition,scn_cat,scn_inst,scn_file,obj_cat,obj_cat_num,obj_file,trial_cond,quadrant,obj_x,obj_y,corr_ans,participant,date,expName,psychopyVersion,OS,frameRate,key_resp_trial.keys,key_resp_trial.rt,iterations.thisRepN,iterations.thisTrialN,iterations.thisN,iterations.thisIndex,iterations.ran,iterations.order,task_innerloop.thisRepN,task_innerloop.thisTrialN,task_innerloop.thisN,task_innerloop.thisIndex,task_innerloop.ran,task_innerloop.order,iteration_index,rating_acc,slider.response,slider.rt,slider_2.response,slider_2.rt,ratings.thisRepN,ratings.thisTrialN,ratings.thisN,ratings.thisIndex,ratings.ran,ratings.order,obj_cat_top,min_resp_top,max_resp_top,obj_cat_bottom,min_resp_bottom,max_resp_bottom
,,0,1,1,0,240,47,1,239,1,2,4,stim/24.jpeg,HouseObjects,1,stim/objects/HouseObjects/broom.png,0.5,3,-0.2,-0.15,left,35,2020-12-07_19h59.16.974,premup-three_ses-01_part-01_label-phase1,3.2.4,Win32,60,,,,,,,,,,,,,,,,,,,,,,,,,,,,,,,,
right,0.849999905,1,2,1,0,240,191,1,239,3,5,4,stim/54.jpeg,Instruments,2,stim/objects/Instruments/chime2.png,0.9,2,0.2,0.15,right,35,2020-12-07_19h59.16.974,premup-three_ses-01_part-01_label-phase1,3.2.4,Win32,60,,,,,,,,,,,,,,,,,,,,,,,,,,,,,,,,
right,0.681000233,1,3,1,0,240,171,1,239,3,5,4,stim/54.jpeg,Instruments,2,stim/objects/Instruments/chime2.png,0.9,2,0.2,0.15,right,35,2020-12-07_19h59.16.974,premup-three_ses-01_part-01_label-phase1,3.2.4,Win32,60,,,,,,,,,,,,,,,,,,,,,,,,,,,,,,,,
left,0.666999817,1,4,1,0,240,227,1,239,3,6,4,stim/64.jpeg,HouseObjects,1,stim/objects/HouseObjects/clothespin2.png,0.9,4,0.2,-0.15,left,35,2020-12-07_19h59.16.974,premup-three_ses-01_part-01_label-phase1,3.2.4,Win32,60,,,,,,,,,,,,,,,,,,,,,,,,,,,,,,,,
left,0.487999916,0,5,1,0,240,168,1,239,3,5,1,stim/51.jpeg,Instruments,2,stim/objects/Instruments/bassdrum2.png,0.9,1,-0.2,0.15,right,35,2020-12-07_19h59.16.974,premup-three_ses-01_part-01_label-phase1,3.2.4,Win32,60,,,,,,,,,,,,,,,,,,,,,,,,,,,,,,,,
right,0.450000048,1,6,1,0,240,101,1,239,2,3,2,stim/32.jpeg,Instruments,2,stim/objects/Instruments/cornet.png,0.7,2,0.2,0.15,right,35,2020-12-07_19h59.16.974,premup-three_ses-01_part-01_label-phase1,3.2.4,Win32,60,,,,,,,,,,,,,,,,,,,,,,,,,,,,,,,,
right,0.788000107,0,7,1,0,240,12,1,239,1,1,1,stim/11.jpeg,HouseObjects,1,stim/objects/HouseObjects/ashtray.png,0.5,4,0.2,-0.15,left,35,2020-12-07_19h59.16.974,premup-three_ses-01_part-01_label-phase1,3.2.4,Win32,60,,,,,,,,,,,,,,,,,,,,,,,,,,,,,,,,
right,1.01699996,0,8,1,0,240,202,1,239,3,6,3,stim/63.jpeg,HouseObjects,1,stim/objects/HouseObjects/clothesdryingrack2.png,0.9,2,0.2,0.15,left,35,2020-12-07_19h59.16.974,premup-three_ses-01_part-01_label-phase1,3.2.4,Win32,60,,,,,,,,,,,,,,,,,,,,,,,,,,,,,,,,
right,0.97300005,0,9,1,0,240,132,1,239,2,4,1,stim/41.jpeg,HouseObjects,1,stim/objects/HouseObjects/ashtray2.png,0.7,4,0.2,-0.15,left,35,2020-12-07_19h59.16.974,premup-three_ses-01_part-01_label-phase1,3.2.4,Win32,60,,,,,,,,,,,,,,,,,,,,,,,,,,,,,,,,
left,1.220000029,1,10,1,0,240,18,1,239,1,1,3,stim/13.jpeg,HouseObjects,1,stim/objects/HouseObjects/barbecuelighter.png,0.5,3,-0.2,-0.15,left,35,2020-12-07_19h59.16.974,premup-three_ses-01_part-01_label-phase1,3.2.4,Win32,60,,,,,,,,,,,,,,,,,,,,,,,,,,,,,,,,
,,0,1,,,,,,,3,6,2,stim/62.jpeg,HouseObjects,1,stim/objects/HouseObjects/clock2.png,0.9,3,-0.2,-0.15,left,35,2020-12-07_19h59.16.974,premup-three_ses-01_part-01_label-phase1,3.2.4,Win32,60,right,1.058000088,4,0,4,0,1,3,1,0,240,205,1,239,,,,,,,,,,,,,,,,,,
,,1,2,,,,,,,2,4,1,stim/41.jpeg,HouseObjects,1,stim/objects/HouseObjects/ashtray2.png,0.7,2,0.2,0.15,left,35,2020-12-07_19h59.16.974,premup-three_ses-01_part-01_label-phase1,3.2.4,Win32,60,left,1.078999996,4,0,4,0,1,3,1,0,240,140,1,239,,,,,,,,,,,,,,,,,,
,,1,3,,,,,,,1,1,3,stim/13.jpeg,Instruments,2,stim/objects/Instruments/balalaika.png,0.5,2,0.2,0.15,right,35,2020-12-07_19h59.16.974,premup-three_ses-01_part-01_label-phase1,3.2.4,Win32,60,right,0.771000147,4,0,4,0,1,3,1,0,240,22,1,239,,,,,,,,,,,,,,,,,,
,,0,4,,,,,,,3,5,1,stim/51.jpeg,Instruments,2,stim/objects/Instruments/bassdrum2.png,0.9,4,0.2,-0.15,right,35,2020-12-07_19h59.16.974,premup-three_ses-01_part-01_label-phase1,3.2.4,Win32,60,left,1.073000193,4,0,4,0,1,3,1,0,240,164,1,239,,,,,,,,,,,,,,,,,,
,,0,5,,,,,,,2,4,1,stim/41.jpeg,HouseObjects,1,stim/objects/HouseObjects/ashtray2.png,0.7,2,0.2,0.15,left,35,2020-12-07_19h59.16.974,premup-three_ses-01_part-01_label-phase1,3.2.4,Win32,60,right,0.744999886,4,0,4,0,1,3,1,0,240,136,1,239,,,,,,,,,,,,,,,,,,
,,1,6,,,,,,,3,5,2,stim/52.jpeg,HouseObjects,1,stim/objects/HouseObjects/blender2.png,0.1,3,-0.2,-0.15,left,35,2020-12-07_19h59.16.974,premup-three_ses-01_part-01_label-phase1,3.2.4,Win32,60,left,0.96600008,4,0,4,0,1,3,1,0,240,161,1,239,,,,,,,,,,,,,,,,,,
,,1,7,,,,,,,1,2,3,stim/23.jpeg,Instruments,2,stim/objects/Instruments/cello.png,0.5,2,0.2,0.15,right,35,2020-12-07_19h59.16.974,premup-three_ses-01_part-01_label-phase1,3.2.4,Win32,60,right,0.848999977,4,0,4,0,1,3,1,0,240,78,1,239,,,,,,,,,,,,,,,,,,
,,0,8,,,,,,,2,3,2,stim/32.jpeg,HouseObjects,1,stim/objects/HouseObjects/clock.png,0.3,4,0.2,-0.15,left,35,2020-12-07_19h59.16.974,premup-three_ses-01_part-01_label-phase1,3.2.4,Win32,60,right,0.695999861,4,0,4,0,1,3,1,0,240,89,1,239,,,,,,,,,,,,,,,,,,
,,0,9,,,,,,,1,1,3,stim/13.jpeg,HouseObjects,1,stim/objects/HouseObjects/barbecuelighter.png,0.5,1,-0.2,0.15,left,35,2020-12-07_19h59.16.974,premup-three_ses-01_part-01_label-phase1,3.2.4,Win32,60,right,0.785000086,4,0,4,0,1,3,1,0,240,6,1,239,,,,,,,,,,,,,,,,,,
,,1,10,,,,,,,3,5,4,stim/54.jpeg,Instruments,2,stim/objects/Instruments/chime2.png,0.9,4,0.2,-0.15,right,35,2020-12-07_19h59.16.974,premup-three_ses-01_part-01_label-phase1,3.2.4,Win32,60,right,0.955999851,4,0,4,0,1,3,1,0,240,167,1,239,,,,,,,,,,,,,,,,,,
,,1,11,,,,,,,1,1,1,stim/11.jpeg,HouseObjects,1,stim/objects/HouseObjects/ashtray.png,0.5,2,0.2,0.15,left,35,2020-12-07_19h59.16.974,premup-three_ses-01_part-01_label-phase1,3.2.4,Win32,60,left,0.991999865,4,0,4,0,1,3,1,0,240,0,1,239,,,,,,,,,,,,,,,,,,
,,1,12,,,,,,,3,6,3,stim/63.jpeg,HouseObjects,1,stim/objects/HouseObjects/clothesdryingrack2.png,0.9,2,0.2,0.15,left,35,2020-12-07_19h59.16.974,premup-three_ses-01_part-01_label-phase1,3.2.4,Win32,60,left,0.760999918,4,0,4,0,1,3,1,0,240,206,1,239,,,,,,,,,,,,,,,,,,
,,1,13,,,,,,,1,1,1,stim/11.jpeg,Instruments,2,stim/objects/Instruments/accordion.png,0.5,4,0.2,-0.15,right,35,2020-12-07_19h59.16.974,premup-three_ses-01_part-01_label-phase1,3.2.4,Win32,60,right,0.782000065,4,0,4,0,1,3,1,0,240,24,1,239,,,,,,,,,,,,,,,,,,
,,1,14,,,,,,,2,4,3,stim/43.jpeg,Instruments,2,stim/objects/Instruments/balalaika2.png,0.3,1,-0.2,0.15,right,35,2020-12-07_19h59.16.974,premup-three_ses-01_part-01_label-phase1,3.2.4,Win32,60,right,1.11500001,4,0,4,0,1,3,1,0,240,154,1,239,,,,,,,,,,,,,,,,,,
,,1,15,,,,,,,2,3,1,stim/31.jpeg,HouseObjects,1,stim/objects/HouseObjects/bucket.png,0.3,3,-0.2,-0.15,left,35,2020-12-07_19h59.16.974,premup-three_ses-01_part-01_label-phase1,3.2.4,Win32,60,left,0.850000143,4,0,4,0,1,3,1,0,240,80,1,239,,,,,,,,,,,,,,,,,,
,,1,16,,,,,,,1,1,2,stim/12.jpeg,Instruments,2,stim/objects/Instruments/acousticguitar.png,0.5,3,-0.2,-0.15,right,35,2020-12-07_19h59.16.974,premup-three_ses-01_part-01_label-phase1,3.2.4,Win32,60,right,0.680999994,4,0,4,0,1,3,1,0,240,29,1,239,,,,,,,,,,,,,,,,,,
,,0,17,,,,,,,1,2,4,stim/24.jpeg,HouseObjects,1,stim/objects/HouseObjects/broom.png,0.5,4,0.2,-0.15,left,35,2020-12-07_19h59.16.974,premup-three_ses-01_part-01_label-phase1,3.2.4,Win32,60,right,0.825000048,4,0,4,0,1,3,1,0,240,51,1,239,,,,,,,,,,,,,,,,,,
,,1,18,,,,,,,2,3,3,stim/33.jpeg,Instruments,2,stim/objects/Instruments/cymbal.png,0.7,1,-0.2,0.15,right,35,2020-12-07_19h59.16.974,premup-three_ses-01_part-01_label-phase1,3.2.4,Win32,60,right,0.960000038,4,0,4,0,1,3,1,0,240,94,1,239,,,,,,,,,,,,,,,,,,
,,0,19,,,,,,,2,3,1,stim/31.jpeg,Instruments,2,stim/objects/Instruments/clarinet.png,0.7,4,0.2,-0.15,right,35,2020-12-07_19h59.16.974,premup-three_ses-01_part-01_label-phase1,3.2.4,Win32,60,left,0.694000006,4,0,4,0,1,3,1,0,240,96,1,239,,,,,,,,,,,,,,,,,,
,,0,20,,,,,,,2,3,4,stim/34.jpeg,Instruments,2,stim/objects/Instruments/doublebass.png,0.7,1,-0.2,0.15,right,35,2020-12-07_19h59.16.974,premup-three_ses-01_part-01_label-phase1,3.2.4,Win32,60,left,0.710999966,4,0,4,0,1,3,1,0,240,95,1,239,,,,,,,,,,,,,,,,,,
,,0,21,,,,,,,3,6,1,stim/61.jpeg,HouseObjects,1,stim/objects/HouseObjects/bucket2.png,0.9,1,-0.2,0.15,left,35,2020-12-07_19h59.16.974,premup-three_ses-01_part-01_label-phase1,3.2.4,Win32,60,right,0.859000206,4,0,4,0,1,3,1,0,240,216,1,239,,,,,,,,,,,,,,,,,,
,,1,22,,,,,,,1,2,2,stim/22.jpeg,HouseObjects,1,stim/objects/HouseObjects/blender.png,0.5,3,-0.2,-0.15,left,35,2020-12-07_19h59.16.974,premup-three_ses-01_part-01_label-phase1,3.2.4,Win32,60,left,1.113999844,4,0,4,0,1,3,1,0,240,57,1,239,,,,,,,,,,,,,,,,,,
,,1,23,,,,,,,1,2,3,stim/23.jpeg,Instruments,2,stim/objects/Instruments/cello.png,0.5,4,0.2,-0.15,right,35,2020-12-07_19h59.16.974,premup-three_ses-01_part-01_label-phase1,3.2.4,Win32,60,right,0.700000048,4,0,4,0,1,3,1,0,240,74,1,239,,,,,,,,,,,,,,,,,,
,,1,24,,,,,,,3,6,2,stim/62.jpeg,HouseObjects,1,stim/objects/HouseObjects/clock2.png,0.9,1,-0.2,0.15,left,35,2020-12-07_19h59.16.974,premup-three_ses-01_part-01_label-phase1,3.2.4,Win32,60,left,0.980000019,4,0,4,0,1,3,1,0,240,209,1,239,,,,,,,,,,,,,,,,,,
,,0,25,,,,,,,2,4,2,stim/42.jpeg,HouseObjects,1,stim/objects/HouseObjects/ballofstring2.png,0.7,3,-0.2,-0.15,left,35,2020-12-07_19h59.16.974,premup-three_ses-01_part-01_label-phase1,3.2.4,Win32,60,right,0.929999828,4,0,4,0,1,3,1,0,240,121,1,239,,,,,,,,,,,,,,,,,,
,,0,26,,,,,,,1,2,1,stim/21.jpeg,Instruments,2,stim/objects/Instruments/bassdrum.png,0.5,2,0.2,0.15,right,35,2020-12-07_19h59.16.974,premup-three_ses-01_part-01_label-phase1,3.2.4,Win32,60,left,1.139000177,4,0,4,0,1,3,1,0,240,72,1,239,,,,,,,,,,,,,,,,,,
,,1,27,,,,,,,3,5,3,stim/53.jpeg,Instruments,2,stim/objects/Instruments/cello2.png,0.9,1,-0.2,0.15,right,35,2020-12-07_19h59.16.974,premup-three_ses-01_part-01_label-phase1,3.2.4,Win32,60,right,0.608999968,4,0,4,0,1,3,1,0,240,198,1,239,,,,,,,,,,,,,,,,,,
,,0,28,,,,,,,1,2,1,stim/21.jpeg,Instruments,2,stim/objects/Instruments/bassdrum.png,0.5,2,0.2,0.15,right,35,2020-12-07_19h59.16.974,premup-three_ses-01_part-01_label-phase1,3.2.4,Win32,60,left,0.992000103,4,0,4,0,1,3,1,0,240,60,1,239,,,,,,,,,,,,,,,,,,
,,1,29,,,,,,,3,5,2,stim/52.jpeg,Instruments,2,stim/objects/Instruments/bassguitar2.png,0.9,3,-0.2,-0.15,right,35,2020-12-07_19h59.16.974,premup-three_ses-01_part-01_label-phase1,3.2.4,Win32,60,right,1.187999964,4,0,4,0,1,3,1,0,240,193,1,239,,,,,,,,,,,,,,,,,,
,,1,30,,,,,,,3,5,1,stim/51.jpeg,HouseObjects,1,stim/objects/HouseObjects/bleachbottle2.png,0.1,1,-0.2,0.15,left,35,2020-12-07_19h59.16.974,premup-three_ses-01_part-01_label-phase1,3.2.4,Win32,60,left,1.052000046,4,0,4,0,1,3,1,0,240,160,1,239,,,,,,,,,,,,,,,,,,
,,1,31,,,,,,,2,4,1,stim/41.jpeg,HouseObjects,1,stim/objects/HouseObjects/ashtray2.png,0.7,4,0.2,-0.15,left,35,2020-12-07_19h59.16.974,premup-three_ses-01_part-01_label-phase1,3.2.4,Win32,60,left,1.142999887,4,0,4,0,1,3,1,0,240,128,1,239,,,,,,,,,,,,,,,,,,
,,0,32,,,,,,,3,5,1,stim/51.jpeg,Instruments,2,stim/objects/Instruments/bassdrum2.png,0.9,1,-0.2,0.15,right,35,2020-12-07_19h59.16.974,premup-three_ses-01_part-01_label-phase1,3.2.4,Win32,60,left,1.105000019,4,0,4,0,1,3,1,0,240,168,1,239,,,,,,,,,,,,,,,,,,
,,1,33,,,,,,,1,1,1,stim/11.jpeg,HouseObjects,1,stim/objects/HouseObjects/ashtray.png,0.5,4,0.2,-0.15,left,35,2020-12-07_19h59.16.974,premup-three_ses-01_part-01_label-phase1,3.2.4,Win32,60,left,1.175000191,4,0,4,0,1,3,1,0,240,12,1,239,,,,,,,,,,,,,,,,,,
,,1,34,,,,,,,3,6,3,stim/63.jpeg,HouseObjects,1,stim/objects/HouseObjects/clothesdryingrack2.png,0.9,1,-0.2,0.15,left,35,2020-12-07_19h59.16.974,premup-three_ses-01_part-01_label-phase1,3.2.4,Win32,60,left,0.877999783,4,0,4,0,1,3,1,0,240,226,1,239,,,,,,,,,,,,,,,,,,
,,1,35,,,,,,,2,3,4,stim/34.jpeg,Instruments,2,stim/objects/Instruments/doublebass.png,0.7,4,0.2,-0.15,right,35,2020-12-07_19h59.16.974,premup-three_ses-01_part-01_label-phase1,3.2.4,Win32,60,right,0.683000088,4,0,4,0,1,3,1,0,240,115,1,239,,,,,,,,,,,,,,,,,,
,,0,36,,,,,,,2,3,1,stim/31.jpeg,Instruments,2,stim/objects/Instruments/clarinet.png,0.7,1,-0.2,0.15,right,35,2020-12-07_19h59.16.974,premup-three_ses-01_part-01_label-phase1,3.2.4,Win32,60,left,0.760999918,4,0,4,0,1,3,1,0,240,104,1,239,,,,,,,,,,,,,,,,,,
,,0,37,,,,,,,1,2,4,stim/24.jpeg,HouseObjects,1,stim/objects/HouseObjects/broom.png,0.5,4,0.2,-0.15,left,35,2020-12-07_19h59.16.974,premup-three_ses-01_part-01_label-phase1,3.2.4,Win32,60,right,1.15199995,4,0,4,0,1,3,1,0,240,43,1,239,,,,,,,,,,,,,,,,,,
,,1,38,,,,,,,2,3,2,stim/32.jpeg,HouseObjects,1,stim/objects/HouseObjects/clock.png,0.3,2,0.2,0.15,left,35,2020-12-07_19h59.16.974,premup-three_ses-01_part-01_label-phase1,3.2.4,Win32,60,left,0.999000072,4,0,4,0,1,3,1,0,240,81,1,239,,,,,,,,,,,,,,,,,,
,,0,39,,,,,,,2,3,4,stim/34.jpeg,Instruments,2,stim/objects/Instruments/doublebass.png,0.7,4,0.2,-0.15,right,35,2020-12-07_19h59.16.974,premup-three_ses-01_part-01_label-phase1,3.2.4,Win32,60,left,1.030999899,4,0,4,0,1,3,1,0,240,99,1,239,,,,,,,,,,,,,,,,,,
,,1,40,,,,,,,3,6,4,stim/64.jpeg,HouseObjects,1,stim/objects/HouseObjects/clothespin2.png,0.9,3,-0.2,-0.15,left,35,2020-12-07_19h59.16.974,premup-three_ses-01_part-01_label-phase1,3.2.4,Win32,60,left,1.006999969,4,0,4,0,1,3,1,0,240,211,1,239,,,,,,,,,,,,,,,,,,
,,1,41,,,,,,,1,2,4,stim/24.jpeg,Instruments,2,stim/objects/Instruments/chime.png,0.5,4,0.2,-0.15,right,35,2020-12-07_19h59.16.974,premup-three_ses-01_part-01_label-phase1,3.2.4,Win32,60,right,0.998999834,4,0,4,0,1,3,1,0,240,63,1,239,,,,,,,,,,,,,,,,,,
,,0,42,,,,,,,1,1,4,stim/14.jpeg,HouseObjects,1,stim/objects/HouseObjects/basket.png,0.5,3,-0.2,-0.15,left,35,2020-12-07_19h59.16.974,premup-three_ses-01_part-01_label-phase1,3.2.4,Win32,60,right,0.776000023,4,0,4,0,1,3,1,0,240,11,1,239,,,,,,,,,,,,,,,,,,
,,0,43,,,,,,,2,3,1,stim/31.jpeg,Instruments,2,stim/objects/Instruments/clarinet.png,0.7,4,0.2,-0.15,right,35,2020-12-07_19h59.16.974,premup-three_ses-01_part-01_label-phase1,3.2.4,Win32,60,left,0.662999868,4,0,4,0,1,3,1,0,240,108,1,239,,,,,,,,,,,,,,,,,,
,,0,44,,,,,,,3,5,4,stim/54.jpeg,Instruments,2,stim/objects/Instruments/chime2.png,0.9,2,0.2,0.15,right,35,2020-12-07_19h59.16.974,premup-three_ses-01_part-01_label-phase1,3.2.4,Win32,60,left,0.822999954,4,0,4,0,1,3,1,0,240,187,1,239,,,,,,,,,,,,,,,,,,
,,0,45,,,,,,,2,4,4,stim/44.jpeg,HouseObjects,1,stim/objects/HouseObjects/basket2.png,0.7,3,-0.2,-0.15,left,35,2020-12-07_19h59.16.974,premup-three_ses-01_part-01_label-phase1,3.2.4,Win32,60,right,1.055999994,4,0,4,0,1,3,1,0,240,147,1,239,,,,,,,,,,,,,,,,,,
,,0,46,,,,,,,1,2,3,stim/23.jpeg,HouseObjects,1,stim/objects/HouseObjects/bottle.png,0.5,2,0.2,0.15,left,35,2020-12-07_19h59.16.974,premup-three_ses-01_part-01_label-phase1,3.2.4,Win32,60,right,1.406000137,4,0,4,0,1,3,1,0,240,54,1,239,,,,,,,,,,,,,,,,,,
,,0,47,,,,,,,1,2,3,stim/23.jpeg,HouseObjects,1,stim/objects/HouseObjects/bottle.png,0.5,1,-0.2,0.15,left,35,2020-12-07_19h59.16.974,premup-three_ses-01_part-01_label-phase1,3.2.4,Win32,60,right,1.030999899,4,0,4,0,1,3,1,0,240,46,1,239,,,,,,,,,,,,,,,,,,
,,0,48,,,,,,,1,2,4,stim/24.jpeg,HouseObjects,1,stim/objects/HouseObjects/broom.png,0.5,3,-0.2,-0.15,left,35,2020-12-07_19h59.16.974,premup-three_ses-01_part-01_label-phase1,3.2.4,Win32,60,right,0.911999941,4,0,4,0,1,3,1,0,240,47,1,239,,,,,,,,,,,,,,,,,,
,,1,49,,,,,,,1,1,2,stim/12.jpeg,HouseObjects,1,stim/objects/HouseObjects/ballofstring.png,0.5,4,0.2,-0.15,left,35,2020-12-07_19h59.16.974,premup-three_ses-01_part-01_label-phase1,3.2.4,Win32,60,left,0.971000195,4,0,4,0,1,3,1,0,240,17,1,239,,,,,,,,,,,,,,,,,,
,,1,50,,,,,,,1,2,1,stim/21.jpeg,HouseObjects,1,stim/objects/HouseObjects/bleachbottle.png,0.5,1,-0.2,0.15,left,35,2020-12-07_19h59.16.974,premup-three_ses-01_part-01_label-phase1,3.2.4,Win32,60,left,1.085999966,4,0,4,0,1,3,1,0,240,44,1,239,,,,,,,,,,,,,,,,,,
,,1,51,,,,,,,3,6,1,stim/61.jpeg,HouseObjects,1,stim/objects/HouseObjects/bucket2.png,0.9,3,-0.2,-0.15,left,35,2020-12-07_19h59.16.974,premup-three_ses-01_part-01_label-phase1,3.2.4,Win32,60,left,0.610000134,4,0,4,0,1,3,1,0,240,228,1,239,,,,,,,,,,,,,,,,,,
,,0,52,,,,,,,2,4,4,stim/44.jpeg,HouseObjects,1,stim/objects/HouseObjects/basket2.png,0.7,2,0.2,0.15,left,35,2020-12-07_19h59.16.974,premup-three_ses-01_part-01_label-phase1,3.2.4,Win32,60,right,0.839999914,4,0,4,0,1,3,1,0,240,139,1,239,,,,,,,,,,,,,,,,,,
,,1,53,,,,,,,2,4,3,stim/43.jpeg,HouseObjects,1,stim/objects/HouseObjects/barbecuelighter2.png,0.7,1,-0.2,0.15,left,35,2020-12-07_19h59.16.974,premup-three_ses-01_part-01_label-phase1,3.2.4,Win32,60,left,0.666000128,4,0,4,0,1,3,1,0,240,130,1,239,,,,,,,,,,,,,,,,,,
,,1,54,,,,,,,2,3,3,stim/33.jpeg,Instruments,2,stim/objects/Instruments/cymbal.png,0.7,3,-0.2,-0.15,right,35,2020-12-07_19h59.16.974,premup-three_ses-01_part-01_label-phase1,3.2.4,Win32,60,right,0.628999949,4,0,4,0,1,3,1,0,240,102,1,239,,,,,,,,,,,,,,,,,,
,,0,55,,,,,,,2,4,1,stim/41.jpeg,HouseObjects,1,stim/objects/HouseObjects/ashtray2.png,0.7,2,0.2,0.15,left,35,2020-12-07_19h59.16.974,premup-three_ses-01_part-01_label-phase1,3.2.4,Win32,60,right,0.79399991,4,0,4,0,1,3,1,0,240,120,1,239,,,,,,,,,,,,,,,,,,
,,1,56,,,,,,,3,5,3,stim/53.jpeg,Instruments,2,stim/objects/Instruments/cello2.png,0.9,3,-0.2,-0.15,right,35,2020-12-07_19h59.16.974,premup-three_ses-01_part-01_label-phase1,3.2.4,Win32,60,right,1.135999918,4,0,4,0,1,3,1,0,240,166,1,239,,,,,,,,,,,,,,,,,,
,,1,57,,,,,,,1,2,2,stim/22.jpeg,Instruments,2,stim/objects/Instruments/bassguitar.png,0.5,1,-0.2,0.15,right,35,2020-12-07_19h59.16.974,premup-three_ses-01_part-01_label-phase1,3.2.4,Win32,60,right,1.111999989,4,0,4,0,1,3,1,0,240,65,1,239,,,,,,,,,,,,,,,,,,
,,0,58,,,,,,,2,3,4,stim/34.jpeg,Instruments,2,stim/objects/Instruments/doublebass.png,0.7,3,-0.2,-0.15,right,35,2020-12-07_19h59.16.974,premup-three_ses-01_part-01_label-phase1,3.2.4,Win32,60,left,0.997999907,4,0,4,0,1,3,1,0,240,111,1,239,,,,,,,,,,,,,,,,,,
,,0,59,,,,,,,3,5,1,stim/51.jpeg,Instruments,2,stim/objects/Instruments/bassdrum2.png,0.9,4,0.2,-0.15,right,35,2020-12-07_19h59.16.974,premup-three_ses-01_part-01_label-phase1,3.2.4,Win32,60,left,0.866999865,4,0,4,0,1,3,1,0,240,176,1,239,,,,,,,,,,,,,,,,,,
,,0,60,,,,,,,2,4,4,stim/44.jpeg,Instruments,2,stim/objects/Instruments/banjo2.png,0.3,1,-0.2,0.15,right,35,2020-12-07_19h59.16.974,premup-three_ses-01_part-01_label-phase1,3.2.4,Win32,60,left,1.444999933,4,0,4,0,1,3,1,0,240,151,1,239,,,,,,,,,,,,,,,,,,
,,1,61,,,,,,,3,6,3,stim/63.jpeg,HouseObjects,1,stim/objects/HouseObjects/clothesdryingrack2.png,0.9,4,0.2,-0.15,left,35,2020-12-07_19h59.16.974,premup-three_ses-01_part-01_label-phase1,3.2.4,Win32,60,left,0.766000032,4,0,4,0,1,3,1,0,240,214,1,239,,,,,,,,,,,,,,,,,,
,,1,62,,,,,,,1,1,4,stim/14.jpeg,HouseObjects,1,stim/objects/HouseObjects/basket.png,0.5,4,0.2,-0.15,left,35,2020-12-07_19h59.16.974,premup-three_ses-01_part-01_label-phase1,3.2.4,Win32,60,left,1.010999918,4,0,4,0,1,3,1,0,240,3,1,239,,,,,,,,,,,,,,,,,,
,,0,63,,,,,,,2,4,4,stim/44.jpeg,HouseObjects,1,stim/objects/HouseObjects/basket2.png,0.7,4,0.2,-0.15,left,35,2020-12-07_19h59.16.974,premup-three_ses-01_part-01_label-phase1,3.2.4,Win32,60,right,1.154999971,4,0,4,0,1,3,1,0,240,135,1,239,,,,,,,,,,,,,,,,,,
,,0,64,,,,,,,1,2,2,stim/22.jpeg,HouseObjects,1,stim/objects/HouseObjects/blender.png,0.5,4,0.2,-0.15,left,35,2020-12-07_19h59.16.974,premup-three_ses-01_part-01_label-phase1,3.2.4,Win32,60,right,0.976999998,4,0,4,0,1,3,1,0,240,53,1,239,,,,,,,,,,,,,,,,,,
,,0,65,,,,,,,1,1,2,stim/12.jpeg,Instruments,2,stim/objects/Instruments/acousticguitar.png,0.5,3,-0.2,-0.15,right,35,2020-12-07_19h59.16.974,premup-three_ses-01_part-01_label-phase1,3.2.4,Win32,60,left,0.56799984,4,0,4,0,1,3,1,0,240,33,1,239,,,,,,,,,,,,,,,,,,
,,1,66,,,,,,,2,3,2,stim/32.jpeg,Instruments,2,stim/objects/Instruments/cornet.png,0.7,1,-0.2,0.15,right,35,2020-12-07_19h59.16.974,premup-three_ses-01_part-01_label-phase1,3.2.4,Win32,60,right,0.608999968,4,0,4,0,1,3,1,0,240,93,1,239,,,,,,,,,,,,,,,,,,
,,0,67,,,,,,,2,3,1,stim/31.jpeg,Instruments,2,stim/objects/Instruments/clarinet.png,0.7,3,-0.2,-0.15,right,35,2020-12-07_19h59.16.974,premup-three_ses-01_part-01_label-phase1,3.2.4,Win32,60,left,1.111999989,4,0,4,0,1,3,1,0,240,112,1,239,,,,,,,,,,,,,,,,,,
,,0,68,,,,,,,1,1,3,stim/13.jpeg,Instruments,2,stim/objects/Instruments/balalaika.png,0.5,4,0.2,-0.15,right,35,2020-12-07_19h59.16.974,premup-three_ses-01_part-01_label-phase1,3.2.4,Win32,60,left,0.753999949,4,0,4,0,1,3,1,0,240,26,1,239,,,,,,,,,,,,,,,,,,
,,1,69,,,,,,,1,1,4,stim/14.jpeg,Instruments,2,stim/objects/Instruments/banjo.png,0.5,3,-0.2,-0.15,right,35,2020-12-07_19h59.16.974,premup-three_ses-01_part-01_label-phase1,3.2.4,Win32,60,right,0.672999859,4,0,4,0,1,3,1,0,240,31,1,239,,,,,,,,,,,,,,,,,,
,,1,70,,,,,,,2,3,3,stim/33.jpeg,Instruments,2,stim/objects/Instruments/cymbal.png,0.7,3,-0.2,-0.15,right,35,2020-12-07_19h59.16.974,premup-three_ses-01_part-01_label-phase1,3.2.4,Win32,60,right,1.04399991,4,0,4,0,1,3,1,0,240,98,1,239,,,,,,,,,,,,,,,,,,
,,1,71,,,,,,,1,2,4,stim/24.jpeg,Instruments,2,stim/objects/Instruments/chime.png,0.5,1,-0.2,0.15,right,35,2020-12-07_19h59.16.974,premup-three_ses-01_part-01_label-phase1,3.2.4,Win32,60,right,0.821000099,4,0,4,0,1,3,1,0,240,79,1,239,,,,,,,,,,,,,,,,,,
,,1,72,,,,,,,3,5,3,stim/53.jpeg,Instruments,2,stim/objects/Instruments/cello2.png,0.9,2,0.2,0.15,right,35,2020-12-07_19h59.16.974,premup-three_ses-01_part-01_label-phase1,3.2.4,Win32,60,right,1.196000099,4,0,4,0,1,3,1,0,240,170,1,239,,,,,,,,,,,,,,,,,,
,,1,73,,,,,,,3,6,1,stim/61.jpeg,HouseObjects,1,stim/objects/HouseObjects/bucket2.png,0.9,2,0.2,0.15,left,35,2020-12-07_19h59.16.974,premup-three_ses-01_part-01_label-phase1,3.2.4,Win32,60,left,0.845999956,4,0,4,0,1,3,1,0,240,212,1,239,,,,,,,,,,,,,,,,,,
,,0,74,,,,,,,1,2,1,stim/21.jpeg,HouseObjects,1,stim/objects/HouseObjects/bleachbottle.png,0.5,1,-0.2,0.15,left,35,2020-12-07_19h59.16.974,premup-three_ses-01_part-01_label-phase1,3.2.4,Win32,60,right,0.937000036,4,0,4,0,1,3,1,0,240,40,1,239,,,,,,,,,,,,,,,,,,
,,1,75,,,,,,,3,6,2,stim/62.jpeg,HouseObjects,1,stim/objects/HouseObjects/clock2.png,0.9,3,-0.2,-0.15,left,35,2020-12-07_19h59.16.974,premup-three_ses-01_part-01_label-phase1,3.2.4,Win32,60,left,0.694999933,4,0,4,0,1,3,1,0,240,229,1,239,,,,,,,,,,,,,,,,,,
,,1,76,,,,,,,1,1,2,stim/12.jpeg,Instruments,2,stim/objects/Instruments/acousticguitar.png,0.5,2,0.2,0.15,right,35,2020-12-07_19h59.16.974,premup-three_ses-01_part-01_label-phase1,3.2.4,Win32,60,right,0.569999933,4,0,4,0,1,3,1,0,240,25,1,239,,,,,,,,,,,,,,,,,,
,,1,77,,,,,,,3,6,1,stim/61.jpeg,HouseObjects,1,stim/objects/HouseObjects/bucket2.png,0.9,3,-0.2,-0.15,left,35,2020-12-07_19h59.16.974,premup-three_ses-01_part-01_label-phase1,3.2.4,Win32,60,left,0.671000004,4,0,4,0,1,3,1,0,240,220,1,239,,,,,,,,,,,,,,,,,,
,,1,78,,,,,,,2,3,2,stim/32.jpeg,Instruments,2,stim/objects/Instruments/cornet.png,0.7,1,-0.2,0.15,right,35,2020-12-07_19h59.16.974,premup-three_ses-01_part-01_label-phase1,3.2.4,Win32,60,right,0.615999937,4,0,4,0,1,3,1,0,240,105,1,239,,,,,,,,,,,,,,,,,,
,,0,79,,,,,,,1,1,4,stim/14.jpeg,HouseObjects,1,stim/objects/HouseObjects/basket.png,0.5,4,0.2,-0.15,left,35,2020-12-07_19h59.16.974,premup-three_ses-01_part-01_label-phase1,3.2.4,Win32,60,right,0.862000227,4,0,4,0,1,3,1,0,240,7,1,239,,,,,,,,,,,,,,,,,,
,,1,80,,,,,,,2,4,2,stim/42.jpeg,HouseObjects,1,stim/objects/HouseObjects/ballofstring2.png,0.7,4,0.2,-0.15,left,35,2020-12-07_19h59.16.974,premup-three_ses-01_part-01_label-phase1,3.2.4,Win32,60,left,0.709000111,4,0,4,0,1,3,1,0,240,125,1,239,,,,,,,,,,,,,,,,,,
,,1,81,,,,,,,3,6,4,stim/64.jpeg,HouseObjects,1,stim/objects/HouseObjects/clothespin2.png,0.9,3,-0.2,-0.15,left,35,2020-12-07_19h59.16.974,premup-three_ses-01_part-01_label-phase1,3.2.4,Win32,60,left,1.07799983,4,0,4,0,1,3,1,0,240,219,1,239,,,,,,,,,,,,,,,,,,
,,1,82,,,,,,,3,5,4,stim/54.jpeg,Instruments,2,stim/objects/Instruments/chime2.png,0.9,3,-0.2,-0.15,right,35,2020-12-07_19h59.16.974,premup-three_ses-01_part-01_label-phase1,3.2.4,Win32,60,right,0.746000051,4,0,4,0,1,3,1,0,240,199,1,239,,,,,,,,,,,,,,,,,,
,,1,83,,,,,,,1,1,4,stim/14.jpeg,Instruments,2,stim/objects/Instruments/banjo.png,0.5,3,-0.2,-0.15,right,35,2020-12-07_19h59.16.974,premup-three_ses-01_part-01_label-phase1,3.2.4,Win32,60,right,0.707999945,4,0,4,0,1,3,1,0,240,39,1,239,,,,,,,,,,,,,,,,,,
,,1,84,,,,,,,1,2,4,stim/24.jpeg,HouseObjects,1,stim/objects/HouseObjects/broom.png,0.5,2,0.2,0.15,left,35,2020-12-07_19h59.16.974,premup-three_ses-01_part-01_label-phase1,3.2.4,Win32,60,left,1.309999943,4,0,4,0,1,3,1,0,240,59,1,239,,,,,,,,,,,,,,,,,,
,,1,85,,,,,,,3,6,3,stim/63.jpeg,HouseObjects,1,stim/objects/HouseObjects/clothesdryingrack2.png,0.9,2,0.2,0.15,left,35,2020-12-07_19h59.16.974,premup-three_ses-01_part-01_label-phase1,3.2.4,Win32,60,left,1.005000114,4,0,4,0,1,3,1,0,240,218,1,239,,,,,,,,,,,,,,,,,,
,,1,86,,,,,,,1,1,1,stim/11.jpeg,Instruments,2,stim/objects/Instruments/accordion.png,0.5,2,0.2,0.15,right,35,2020-12-07_19h59.16.974,premup-three_ses-01_part-01_label-phase1,3.2.4,Win32,60,right,1.203000069,4,0,4,0,1,3,1,0,240,32,1,239,,,,,,,,,,,,,,,,,,
,,1,87,,,,,,,3,5,4,stim/54.jpeg,Instruments,2,stim/objects/Instruments/chime2.png,0.9,2,0.2,0.15,right,35,2020-12-07_19h59.16.974,premup-three_ses-01_part-01_label-phase1,3.2.4,Win32,60,right,0.898000002,4,0,4,0,1,3,1,0,240,171,1,239,,,,,,,,,,,,,,,,,,
,,1,88,,,,,,,3,6,2,stim/62.jpeg,HouseObjects,1,stim/objects/HouseObjects/clock2.png,0.9,1,-0.2,0.15,left,35,2020-12-07_19h59.16.974,premup-three_ses-01_part-01_label-phase1,3.2.4,Win32,60,left,0.545000076,4,0,4,0,1,3,1,0,240,233,1,239,,,,,,,,,,,,,,,,,,
,,0,89,,,,,,,3,6,2,stim/62.jpeg,Instruments,2,stim/objects/Instruments/cornet2.png,0.1,1,-0.2,0.15,right,35,2020-12-07_19h59.16.974,premup-three_ses-01_part-01_label-phase1,3.2.4,Win32,60,left,0.555999994,4,0,4,0,1,3,1,0,240,237,1,239,,,,,,,,,,,,,,,,,,
,,0,90,,,,,,,2,4,2,stim/42.jpeg,HouseObjects,1,stim/objects/HouseObjects/ballofstring2.png,0.7,2,0.2,0.15,left,35,2020-12-07_19h59.16.974,premup-three_ses-01_part-01_label-phase1,3.2.4,Win32,60,right,0.957000017,4,0,4,0,1,3,1,0,240,129,1,239,,,,,,,,,,,,,,,,,,
,,0,91,,,,,,,2,4,3,stim/43.jpeg,HouseObjects,1,stim/objects/HouseObjects/barbecuelighter2.png,0.7,2,0.2,0.15,left,35,2020-12-07_19h59.16.974,premup-three_ses-01_part-01_label-phase1,3.2.4,Win32,60,right,0.661000013,4,0,4,0,1,3,1,0,240,138,1,239,,,,,,,,,,,,,,,,,,
,,1,92,,,,,,,3,5,4,stim/54.jpeg,Instruments,2,stim/objects/Instruments/chime2.png,0.9,4,0.2,-0.15,right,35,2020-12-07_19h59.16.974,premup-three_ses-01_part-01_label-phase1,3.2.4,Win32,60,right,1.088999987,4,0,4,0,1,3,1,0,240,179,1,239,,,,,,,,,,,,,,,,,,
,,0,93,,,,,,,1,1,1,stim/11.jpeg,HouseObjects,1,stim/objects/HouseObjects/ashtray.png,0.5,2,0.2,0.15,left,35,2020-12-07_19h59.16.974,premup-three_ses-01_part-01_label-phase1,3.2.4,Win32,60,right,0.790999889,4,0,4,0,1,3,1,0,240,8,1,239,,,,,,,,,,,,,,,,,,
,,1,94,,,,,,,3,5,3,stim/53.jpeg,Instruments,2,stim/objects/Instruments/cello2.png,0.9,1,-0.2,0.15,right,35,2020-12-07_19h59.16.974,premup-three_ses-01_part-01_label-phase1,3.2.4,Win32,60,right,0.634000063,4,0,4,0,1,3,1,0,240,190,1,239,,,,,,,,,,,,,,,,,,
,,0,95,,,,,,,2,4,3,stim/43.jpeg,Instruments,2,stim/objects/Instruments/balalaika2.png,0.3,3,-0.2,-0.15,right,35,2020-12-07_19h59.16.974,premup-three_ses-01_part-01_label-phase1,3.2.4,Win32,60,left,0.894999981,4,0,4,0,1,3,1,0,240,150,1,239,,,,,,,,,,,,,,,,,,
,,0,96,,,,,,,3,6,4,stim/64.jpeg,Instruments,2,stim/objects/Instruments/doublebass2.png,0.1,3,-0.2,-0.15,right,35,2020-12-07_19h59.16.974,premup-three_ses-01_part-01_label-phase1,3.2.4,Win32,60,left,0.899999857,4,0,4,0,1,3,1,0,240,239,1,239,,,,,,,,,,,,,,,,,,
,,1,97,,,,,,,2,4,2,stim/42.jpeg,Instruments,2,stim/objects/Instruments/acousticguitar2.png,0.3,4,0.2,-0.15,right,35,2020-12-07_19h59.16.974,premup-three_ses-01_part-01_label-phase1,3.2.4,Win32,60,right,0.687999964,4,0,4,0,1,3,1,0,240,149,1,239,,,,,,,,,,,,,,,,,,
,,1,98,,,,,,,2,3,2,stim/32.jpeg,Instruments,2,stim/objects/Instruments/cornet.png,0.7,3,-0.2,-0.15,right,35,2020-12-07_19h59.16.974,premup-three_ses-01_part-01_label-phase1,3.2.4,Win32,60,right,0.877000093,4,0,4,0,1,3,1,0,240,113,1,239,,,,,,,,,,,,,,,,,,
,,0,99,,,,,,,1,1,2,stim/12.jpeg,HouseObjects,1,stim/objects/HouseObjects/ballofstring.png,0.5,3,-0.2,-0.15,left,35,2020-12-07_19h59.16.974,premup-three_ses-01_part-01_label-phase1,3.2.4,Win32,60,right,0.761000156,4,0,4,0,1,3,1,0,240,9,1,239,,,,,,,,,,,,,,,,,,
,,0,100,,,,,,,2,4,4,stim/44.jpeg,HouseObjects,1,stim/objects/HouseObjects/basket2.png,0.7,3,-0.2,-0.15,left,35,2020-12-07_19h59.16.974,premup-three_ses-01_part-01_label-phase1,3.2.4,Win32,60,right,0.67599988,4,0,4,0,1,3,1,0,240,131,1,239,,,,,,,,,,,,,,,,,,
,,1,101,,,,,,,2,3,2,stim/32.jpeg,Instruments,2,stim/objects/Instruments/cornet.png,0.7,1,-0.2,0.15,right,35,2020-12-07_19h59.16.974,premup-three_ses-01_part-01_label-phase1,3.2.4,Win32,60,right,0.682999849,4,0,4,0,1,3,1,0,240,109,1,239,,,,,,,,,,,,,,,,,,
,,1,102,,,,,,,3,5,3,stim/53.jpeg,Instruments,2,stim/objects/Instruments/cello2.png,0.9,2,0.2,0.15,right,35,2020-12-07_19h59.16.974,premup-three_ses-01_part-01_label-phase1,3.2.4,Win32,60,right,0.730000019,4,0,4,0,1,3,1,0,240,178,1,239,,,,,,,,,,,,,,,,,,
,,1,103,,,,,,,3,5,4,stim/54.jpeg,Instruments,2,stim/objects/Instruments/chime2.png,0.9,1,-0.2,0.15,right,35,2020-12-07_19h59.16.974,premup-three_ses-01_part-01_label-phase1,3.2.4,Win32,60,right,0.895999908,4,0,4,0,1,3,1,0,240,175,1,239,,,,,,,,,,,,,,,,,,
,,0,104,,,,,,,2,4,1,stim/41.jpeg,Instruments,2,stim/objects/Instruments/accordion2.png,0.3,2,0.2,0.15,right,35,2020-12-07_19h59.16.974,premup-three_ses-01_part-01_label-phase1,3.2.4,Win32,60,left,0.641000032,4,0,4,0,1,3,1,0,240,148,1,239,,,,,,,,,,,,,,,,,,
,,0,105,,,,,,,1,1,4,stim/14.jpeg,Instruments,2,stim/objects/Instruments/banjo.png,0.5,2,0.2,0.15,right,35,2020-12-07_19h59.16.974,premup-three_ses-01_part-01_label-phase1,3.2.4,Win32,60,left,0.742000103,4,0,4,0,1,3,1,0,240,35,1,239,,,,,,,,,,,,,,,,,,
,,0,106,,,,,,,3,6,3,stim/63.jpeg,Instruments,2,stim/objects/Instruments/cymbal2.png,0.1,4,0.2,-0.15,right,35,2020-12-07_19h59.16.974,premup-three_ses-01_part-01_label-phase1,3.2.4,Win32,60,left,0.728999853,4,0,4,0,1,3,1,0,240,238,1,239,,,,,,,,,,,,,,,,,,
,,1,107,,,,,,,1,1,2,stim/12.jpeg,Instruments,2,stim/objects/Instruments/acousticguitar.png,0.5,2,0.2,0.15,right,35,2020-12-07_19h59.16.974,premup-three_ses-01_part-01_label-phase1,3.2.4,Win32,60,right,0.600000143,4,0,4,0,1,3,1,0,240,21,1,239,,,,,,,,,,,,,,,,,,
,,1,108,,,,,,,3,6,4,stim/64.jpeg,HouseObjects,1,stim/objects/HouseObjects/clothespin2.png,0.9,4,0.2,-0.15,left,35,2020-12-07_19h59.16.974,premup-three_ses-01_part-01_label-phase1,3.2.4,Win32,60,left,0.696000099,4,0,4,0,1,3,1,0,240,227,1,239,,,,,,,,,,,,,,,,,,
,,1,109,,,,,,,1,1,3,stim/13.jpeg,HouseObjects,1,stim/objects/HouseObjects/barbecuelighter.png,0.5,4,0.2,-0.15,left,35,2020-12-07_19h59.16.974,premup-three_ses-01_part-01_label-phase1,3.2.4,Win32,60,left,0.865999937,4,0,4,0,1,3,1,0,240,10,1,239,,,,,,,,,,,,,,,,,,
,,0,110,,,,,,,1,2,2,stim/22.jpeg,HouseObjects,1,stim/objects/HouseObjects/blender.png,0.5,2,0.2,0.15,left,35,2020-12-07_19h59.16.974,premup-three_ses-01_part-01_label-phase1,3.2.4,Win32,60,right,0.960000038,4,0,4,0,1,3,1,0,240,49,1,239,,,,,,,,,,,,,,,,,,
,,1,111,,,,,,,2,3,2,stim/32.jpeg,Instruments,2,stim/objects/Instruments/cornet.png,0.7,4,0.2,-0.15,right,35,2020-12-07_19h59.16.974,premup-three_ses-01_part-01_label-phase1,3.2.4,Win32,60,right,0.710000038,4,0,4,0,1,3,1,0,240,117,1,239,,,,,,,,,,,,,,,,,,
,,0,112,,,,,,,1,1,4,stim/14.jpeg,HouseObjects,1,stim/objects/HouseObjects/basket.png,0.5,3,-0.2,-0.15,left,35,2020-12-07_19h59.16.974,premup-three_ses-01_part-01_label-phase1,3.2.4,Win32,60,right,0.76699996,4,0,4,0,1,3,1,0,240,15,1,239,,,,,,,,,,,,,,,,,,
,,0,113,,,,,,,1,2,4,stim/24.jpeg,Instruments,2,stim/objects/Instruments/chime.png,0.5,1,-0.2,0.15,right,35,2020-12-07_19h59.16.974,premup-three_ses-01_part-01_label-phase1,3.2.4,Win32,60,left,1.180000067,4,0,4,0,1,3,1,0,240,71,1,239,,,,,,,,,,,,,,,,,,
,,0,114,,,,,,,1,2,4,stim/24.jpeg,HouseObjects,1,stim/objects/HouseObjects/broom.png,0.5,4,0.2,-0.15,left,35,2020-12-07_19h59.16.974,premup-three_ses-01_part-01_label-phase1,3.2.4,Win32,60,right,0.847999811,4,0,4,0,1,3,1,0,240,55,1,239,,,,,,,,,,,,,,,,,,
,,0,115,,,,,,,2,3,3,stim/33.jpeg,HouseObjects,1,stim/objects/HouseObjects/clothesdryingrack.png,0.3,1,-0.2,0.15,left,35,2020-12-07_19h59.16.974,premup-three_ses-01_part-01_label-phase1,3.2.4,Win32,60,right,0.678999901,4,0,4,0,1,3,1,0,240,86,1,239,,,,,,,,,,,,,,,,,,
,,1,116,,,,,,,2,3,2,stim/32.jpeg,Instruments,2,stim/objects/Instruments/cornet.png,0.7,2,0.2,0.15,right,35,2020-12-07_19h59.16.974,premup-three_ses-01_part-01_label-phase1,3.2.4,Win32,60,right,0.496000051,4,0,4,0,1,3,1,0,240,101,1,239,,,,,,,,,,,,,,,,,,
,,0,117,,,,,,,2,3,4,stim/34.jpeg,HouseObjects,1,stim/objects/HouseObjects/clothespin.png,0.3,4,0.2,-0.15,left,35,2020-12-07_19h59.16.974,premup-three_ses-01_part-01_label-phase1,3.2.4,Win32,60,right,0.71600008,4,0,4,0,1,3,1,0,240,91,1,239,,,,,,,,,,,,,,,,,,
,,0,118,,,,,,,1,1,2,stim/12.jpeg,HouseObjects,1,stim/objects/HouseObjects/ballofstring.png,0.5,1,-0.2,0.15,left,35,2020-12-07_19h59.16.974,premup-three_ses-01_part-01_label-phase1,3.2.4,Win32,60,right,0.816999912,4,0,4,0,1,3,1,0,240,13,1,239,,,,,,,,,,,,,,,,,,
,,1,119,,,,,,,3,6,1,stim/61.jpeg,HouseObjects,1,stim/objects/HouseObjects/bucket2.png,0.9,2,0.2,0.15,left,35,2020-12-07_19h59.16.974,premup-three_ses-01_part-01_label-phase1,3.2.4,Win32,60,left,0.680999994,4,0,4,0,1,3,1,0,240,200,1,239,,,,,,,,,,,,,,,,,,
,,0,120,,,,,,,3,5,4,stim/54.jpeg,Instruments,2,stim/objects/Instruments/chime2.png,0.9,3,-0.2,-0.15,right,35,2020-12-07_19h59.16.974,premup-three_ses-01_part-01_label-phase1,3.2.4,Win32,60,left,0.684000015,4,0,4,0,1,3,1,0,240,183,1,239,,,,,,,,,,,,,,,,,,
,,0,121,,,,,,,2,3,1,stim/31.jpeg,HouseObjects,1,stim/objects/HouseObjects/bucket.png,0.3,2,0.2,0.15,left,35,2020-12-07_19h59.16.974,premup-three_ses-01_part-01_label-phase1,3.2.4,Win32,60,right,0.616000175,4,0,4,0,1,3,1,0,240,84,1,239,,,,,,,,,,,,,,,,,,
,,1,122,,,,,,,3,5,4,stim/54.jpeg,HouseObjects,1,stim/objects/HouseObjects/broom2.png,0.1,4,0.2,-0.15,left,35,2020-12-07_19h59.16.974,premup-three_ses-01_part-01_label-phase1,3.2.4,Win32,60,left,0.748999834,4,0,4,0,1,3,1,0,240,163,1,239,,,,,,,,,,,,,,,,,,
,,0,123,,,,,,,1,2,2,stim/22.jpeg,Instruments,2,stim/objects/Instruments/bassguitar.png,0.5,2,0.2,0.15,right,35,2020-12-07_19h59.16.974,premup-three_ses-01_part-01_label-phase1,3.2.4,Win32,60,left,0.788000107,4,0,4,0,1,3,1,0,240,73,1,239,,,,,,,,,,,,,,,,,,
,,1,124,,,,,,,3,6,1,stim/61.jpeg,HouseObjects,1,stim/objects/HouseObjects/bucket2.png,0.9,2,0.2,0.15,left,35,2020-12-07_19h59.16.974,premup-three_ses-01_part-01_label-phase1,3.2.4,Win32,60,left,0.712999821,4,0,4,0,1,3,1,0,240,208,1,239,,,,,,,,,,,,,,,,,,
,,1,125,,,,,,,2,4,3,stim/43.jpeg,HouseObjects,1,stim/objects/HouseObjects/barbecuelighter2.png,0.7,4,0.2,-0.15,left,35,2020-12-07_19h59.16.974,premup-three_ses-01_part-01_label-phase1,3.2.4,Win32,60,left,0.907999992,4,0,4,0,1,3,1,0,240,146,1,239,,,,,,,,,,,,,,,,,,
,,1,126,,,,,,,3,6,3,stim/63.jpeg,HouseObjects,1,stim/objects/HouseObjects/clothesdryingrack2.png,0.9,4,0.2,-0.15,left,35,2020-12-07_19h59.16.974,premup-three_ses-01_part-01_label-phase1,3.2.4,Win32,60,left,0.648000002,4,0,4,0,1,3,1,0,240,210,1,239,,,,,,,,,,,,,,,,,,
,,1,127,,,,,,,3,5,2,stim/52.jpeg,Instruments,2,stim/objects/Instruments/bassguitar2.png,0.9,3,-0.2,-0.15,right,35,2020-12-07_19h59.16.974,premup-three_ses-01_part-01_label-phase1,3.2.4,Win32,60,right,0.756000042,4,0,4,0,1,3,1,0,240,169,1,239,,,,,,,,,,,,,,,,,,
,,0,128,,,,,,,2,4,2,stim/42.jpeg,HouseObjects,1,stim/objects/HouseObjects/ballofstring2.png,0.7,3,-0.2,-0.15,left,35,2020-12-07_19h59.16.974,premup-three_ses-01_part-01_label-phase1,3.2.4,Win32,60,right,0.532999992,4,0,4,0,1,3,1,0,240,145,1,239,,,,,,,,,,,,,,,,,,
,,1,129,,,,,,,2,3,3,stim/33.jpeg,Instruments,2,stim/objects/Instruments/cymbal.png,0.7,1,-0.2,0.15,right,35,2020-12-07_19h59.16.974,premup-three_ses-01_part-01_label-phase1,3.2.4,Win32,60,right,0.633999825,4,0,4,0,1,3,1,0,240,118,1,239,,,,,,,,,,,,,,,,,,
,,1,130,,,,,,,2,3,4,stim/34.jpeg,Instruments,2,stim/objects/Instruments/doublebass.png,0.7,3,-0.2,-0.15,right,35,2020-12-07_19h59.16.974,premup-three_ses-01_part-01_label-phase1,3.2.4,Win32,60,right,0.534999847,4,0,4,0,1,3,1,0,240,107,1,239,,,,,,,,,,,,,,,,,,
,,0,131,,,,,,,2,4,4,stim/44.jpeg,Instruments,2,stim/objects/Instruments/banjo2.png,0.3,4,0.2,-0.15,right,35,2020-12-07_19h59.16.974,premup-three_ses-01_part-01_label-phase1,3.2.4,Win32,60,left,0.769999981,4,0,4,0,1,3,1,0,240,159,1,239,,,,,,,,,,,,,,,,,,
,,1,132,,,,,,,3,6,1,stim/61.jpeg,HouseObjects,1,stim/objects/HouseObjects/bucket2.png,0.9,4,0.2,-0.15,left,35,2020-12-07_19h59.16.974,premup-three_ses-01_part-01_label-phase1,3.2.4,Win32,60,left,0.711000204,4,0,4,0,1,3,1,0,240,232,1,239,,,,,,,,,,,,,,,,,,
,,1,133,,,,,,,2,4,1,stim/41.jpeg,HouseObjects,1,stim/objects/HouseObjects/ashtray2.png,0.7,2,0.2,0.15,left,35,2020-12-07_19h59.16.974,premup-three_ses-01_part-01_label-phase1,3.2.4,Win32,60,left,0.536999941,4,0,4,0,1,3,1,0,240,124,1,239,,,,,,,,,,,,,,,,,,
,,0,134,,,,,,,3,6,2,stim/62.jpeg,HouseObjects,1,stim/objects/HouseObjects/clock2.png,0.9,3,-0.2,-0.15,left,35,2020-12-07_19h59.16.974,premup-three_ses-01_part-01_label-phase1,3.2.4,Win32,60,right,0.853000164,4,0,4,0,1,3,1,0,240,213,1,239,,,,,,,,,,,,,,,,,,
,,1,135,,,,,,,1,2,3,stim/23.jpeg,HouseObjects,1,stim/objects/HouseObjects/bottle.png,0.5,1,-0.2,0.15,left,35,2020-12-07_19h59.16.974,premup-three_ses-01_part-01_label-phase1,3.2.4,Win32,60,left,0.815000057,4,0,4,0,1,3,1,0,240,58,1,239,,,,,,,,,,,,,,,,,,
,,1,136,,,,,,,1,2,1,stim/21.jpeg,HouseObjects,1,stim/objects/HouseObjects/bleachbottle.png,0.5,4,0.2,-0.15,left,35,2020-12-07_19h59.16.974,premup-three_ses-01_part-01_label-phase1,3.2.4,Win32,60,left,0.595999956,4,0,4,0,1,3,1,0,240,48,1,239,,,,,,,,,,,,,,,,,,
,,1,137,,,,,,,1,2,2,stim/22.jpeg,Instruments,2,stim/objects/Instruments/bassguitar.png,0.5,1,-0.2,0.15,right,35,2020-12-07_19h59.16.974,premup-three_ses-01_part-01_label-phase1,3.2.4,Win32,60,right,0.437000036,4,0,4,0,1,3,1,0,240,77,1,239,,,,,,,,,,,,,,,,,,
,,1,138,,,,,,,2,3,1,stim/31.jpeg,Instruments,2,stim/objects/Instruments/clarinet.png,0.7,1,-0.2,0.15,right,35,2020-12-07_19h59.16.974,premup-three_ses-01_part-01_label-phase1,3.2.4,Win32,60,right,0.549999952,4,0,4,0,1,3,1,0,240,92,1,239,,,,,,,,,,,,,,,,,,
,,0,139,,,,,,,1,1,2,stim/12.jpeg,HouseObjects,1,stim/objects/HouseObjects/ballofstring.png,0.5,2,0.2,0.15,left,35,2020-12-07_19h59.16.974,premup-three_ses-01_part-01_label-phase1,3.2.4,Win32,60,right,0.717000008,4,0,4,0,1,3,1,0,240,5,1,239,,,,,,,,,,,,,,,,,,
,,0,140,,,,,,,1,2,1,stim/21.jpeg,HouseObjects,1,stim/objects/HouseObjects/bleachbottle.png,0.5,1,-0.2,0.15,left,35,2020-12-07_19h59.16.974,premup-three_ses-01_part-01_label-phase1,3.2.4,Win32,60,right,0.587000132,4,0,4,0,1,3,1,0,240,52,1,239,,,,,,,,,,,,,,,,,,
,,0,141,,,,,,,2,3,3,stim/33.jpeg,HouseObjects,1,stim/objects/HouseObjects/clothesdryingrack.png,0.3,3,-0.2,-0.15,left,35,2020-12-07_19h59.16.974,premup-three_ses-01_part-01_label-phase1,3.2.4,Win32,60,right,0.628000021,4,0,4,0,1,3,1,0,240,90,1,239,,,,,,,,,,,,,,,,,,
,,1,142,,,,,,,2,3,1,stim/31.jpeg,Instruments,2,stim/objects/Instruments/clarinet.png,0.7,1,-0.2,0.15,right,35,2020-12-07_19h59.16.974,premup-three_ses-01_part-01_label-phase1,3.2.4,Win32,60,right,0.717000008,4,0,4,0,1,3,1,0,240,100,1,239,,,,,,,,,,,,,,,,,,
,,1,143,,,,,,,1,1,1,stim/11.jpeg,Instruments,2,stim/objects/Instruments/accordion.png,0.5,3,-0.2,-0.15,right,35,2020-12-07_19h59.16.974,premup-three_ses-01_part-01_label-phase1,3.2.4,Win32,60,right,0.802000046,4,0,4,0,1,3,1,0,240,36,1,239,,,,,,,,,,,,,,,,,,
,,0,144,,,,,,,2,4,2,stim/42.jpeg,Instruments,2,stim/objects/Instruments/acousticguitar2.png,0.3,3,-0.2,-0.15,right,35,2020-12-07_19h59.16.974,premup-three_ses-01_part-01_label-phase1,3.2.4,Win32,60,left,0.649999857,4,0,4,0,1,3,1,0,240,157,1,239,,,,,,,,,,,,,,,,,,
,,0,145,,,,,,,1,2,3,stim/23.jpeg,Instruments,2,stim/objects/Instruments/cello.png,0.5,3,-0.2,-0.15,right,35,2020-12-07_19h59.16.974,premup-three_ses-01_part-01_label-phase1,3.2.4,Win32,60,left,0.64199996,4,0,4,0,1,3,1,0,240,66,1,239,,,,,,,,,,,,,,,,,,
,,0,146,,,,,,,2,4,1,stim/41.jpeg,Instruments,2,stim/objects/Instruments/accordion2.png,0.3,3,-0.2,-0.15,right,35,2020-12-07_19h59.16.974,premup-three_ses-01_part-01_label-phase1,3.2.4,Win32,60,left,0.875999928,4,0,4,0,1,3,1,0,240,152,1,239,,,,,,,,,,,,,,,,,,
,,0,147,,,,,,,2,4,4,stim/44.jpeg,HouseObjects,1,stim/objects/HouseObjects/basket2.png,0.7,3,-0.2,-0.15,left,35,2020-12-07_19h59.16.974,premup-three_ses-01_part-01_label-phase1,3.2.4,Win32,60,right,0.460999966,4,0,4,0,1,3,1,0,240,127,1,239,,,,,,,,,,,,,,,,,,
,,1,148,,,,,,,2,4,3,stim/43.jpeg,HouseObjects,1,stim/objects/HouseObjects/barbecuelighter2.png,0.7,4,0.2,-0.15,left,35,2020-12-07_19h59.16.974,premup-three_ses-01_part-01_label-phase1,3.2.4,Win32,60,left,1.356000185,4,0,4,0,1,3,1,0,240,134,1,239,,,,,,,,,,,,,,,,,,
,,0,149,,,,,,,2,4,3,stim/43.jpeg,HouseObjects,1,stim/objects/HouseObjects/barbecuelighter2.png,0.7,2,0.2,0.15,left,35,2020-12-07_19h59.16.974,premup-three_ses-01_part-01_label-phase1,3.2.4,Win32,60,right,1.169999838,4,0,4,0,1,3,1,0,240,122,1,239,,,,,,,,,,,,,,,,,,
,,0,150,,,,,,,2,3,1,stim/31.jpeg,HouseObjects,1,stim/objects/HouseObjects/bucket.png,0.3,1,-0.2,0.15,left,35,2020-12-07_19h59.16.974,premup-three_ses-01_part-01_label-phase1,3.2.4,Win32,60,right,0.628000021,4,0,4,0,1,3,1,0,240,88,1,239,,,,,,,,,,,,,,,,,,
,,1,151,,,,,,,1,1,1,stim/11.jpeg,HouseObjects,1,stim/objects/HouseObjects/ashtray.png,0.5,4,0.2,-0.15,left,35,2020-12-07_19h59.16.974,premup-three_ses-01_part-01_label-phase1,3.2.4,Win32,60,left,0.618999958,4,0,4,0,1,3,1,0,240,16,1,239,,,,,,,,,,,,,,,,,,
,,0,152,,,,,,,3,5,3,stim/53.jpeg,HouseObjects,1,stim/objects/HouseObjects/bottle2.png,0.1,2,0.2,0.15,left,35,2020-12-07_19h59.16.974,premup-three_ses-01_part-01_label-phase1,3.2.4,Win32,60,right,0.609999895,4,0,4,0,1,3,1,0,240,162,1,239,,,,,,,,,,,,,,,,,,
,,0,153,,,,,,,1,1,3,stim/13.jpeg,Instruments,2,stim/objects/Instruments/balalaika.png,0.5,4,0.2,-0.15,right,35,2020-12-07_19h59.16.974,premup-three_ses-01_part-01_label-phase1,3.2.4,Win32,60,left,0.888999939,4,0,4,0,1,3,1,0,240,34,1,239,,,,,,,,,,,,,,,,,,
,,1,154,,,,,,,3,6,3,stim/63.jpeg,HouseObjects,1,stim/objects/HouseObjects/clothesdryingrack2.png,0.9,2,0.2,0.15,left,35,2020-12-07_19h59.16.974,premup-three_ses-01_part-01_label-phase1,3.2.4,Win32,60,left,0.676000118,4,0,4,0,1,3,1,0,240,202,1,239,,,,,,,,,,,,,,,,,,
,,1,155,,,,,,,1,2,1,stim/21.jpeg,Instruments,2,stim/objects/Instruments/bassdrum.png,0.5,4,0.2,-0.15,right,35,2020-12-07_19h59.16.974,premup-three_ses-01_part-01_label-phase1,3.2.4,Win32,60,right,0.811000109,4,0,4,0,1,3,1,0,240,68,1,239,,,,,,,,,,,,,,,,,,
,,1,156,,,,,,,3,5,1,stim/51.jpeg,Instruments,2,stim/objects/Instruments/bassdrum2.png,0.9,1,-0.2,0.15,right,35,2020-12-07_19h59.16.974,premup-three_ses-01_part-01_label-phase1,3.2.4,Win32,60,right,1.075999975,4,0,4,0,1,3,1,0,240,172,1,239,,,,,,,,,,,,,,,,,,
,,0,157,,,,,,,2,4,2,stim/42.jpeg,HouseObjects,1,stim/objects/HouseObjects/ballofstring2.png,0.7,2,0.2,0.15,left,35,2020-12-07_19h59.16.974,premup-three_ses-01_part-01_label-phase1,3.2.4,Win32,60,right,0.669000149,4,0,4,0,1,3,1,0,240,133,1,239,,,,,,,,,,,,,,,,,,
,,0,158,,,,,,,1,2,4,stim/24.jpeg,Instruments,2,stim/objects/Instruments/chime.png,0.5,3,-0.2,-0.15,right,35,2020-12-07_19h59.16.974,premup-three_ses-01_part-01_label-phase1,3.2.4,Win32,60,left,1.10800004,4,0,4,0,1,3,1,0,240,67,1,239,,,,,,,,,,,,,,,,,,
,,1,159,,,,,,,1,1,4,stim/14.jpeg,Instruments,2,stim/objects/Instruments/banjo.png,0.5,1,-0.2,0.15,right,35,2020-12-07_19h59.16.974,premup-three_ses-01_part-01_label-phase1,3.2.4,Win32,60,right,0.601999998,4,0,4,0,1,3,1,0,240,27,1,239,,,,,,,,,,,,,,,,,,
,,1,160,,,,,,,1,1,1,stim/11.jpeg,Instruments,2,stim/objects/Instruments/accordion.png,0.5,3,-0.2,-0.15,right,35,2020-12-07_19h59.16.974,premup-three_ses-01_part-01_label-phase1,3.2.4,Win32,60,right,0.632000208,4,0,4,0,1,3,1,0,240,20,1,239,,,,,,,,,,,,,,,,,,
,,0,161,,,,,,,2,4,3,stim/43.jpeg,HouseObjects,1,stim/objects/HouseObjects/barbecuelighter2.png,0.7,4,0.2,-0.15,left,35,2020-12-07_19h59.16.974,premup-three_ses-01_part-01_label-phase1,3.2.4,Win32,60,right,0.473999977,4,0,4,0,1,3,1,0,240,142,1,239,,,,,,,,,,,,,,,,,,
,,1,162,,,,,,,1,1,1,stim/11.jpeg,Instruments,2,stim/objects/Instruments/accordion.png,0.5,3,-0.2,-0.15,right,35,2020-12-07_19h59.16.974,premup-three_ses-01_part-01_label-phase1,3.2.4,Win32,60,right,0.844000101,4,0,4,0,1,3,1,0,240,28,1,239,,,,,,,,,,,,,,,,,,
,,0,163,,,,,,,3,6,3,stim/63.jpeg,HouseObjects,1,stim/objects/HouseObjects/clothesdryingrack2.png,0.9,4,0.2,-0.15,left,35,2020-12-07_19h59.16.974,premup-three_ses-01_part-01_label-phase1,3.2.4,Win32,60,right,0.621000051,4,0,4,0,1,3,1,0,240,222,1,239,,,,,,,,,,,,,,,,,,
,,0,164,,,,,,,2,4,1,stim/41.jpeg,HouseObjects,1,stim/objects/HouseObjects/ashtray2.png,0.7,4,0.2,-0.15,left,35,2020-12-07_19h59.16.974,premup-three_ses-01_part-01_label-phase1,3.2.4,Win32,60,right,0.630000114,4,0,4,0,1,3,1,0,240,144,1,239,,,,,,,,,,,,,,,,,,
,,1,165,,,,,,,2,4,3,stim/43.jpeg,HouseObjects,1,stim/objects/HouseObjects/barbecuelighter2.png,0.7,2,0.2,0.15,left,35,2020-12-07_19h59.16.974,premup-three_ses-01_part-01_label-phase1,3.2.4,Win32,60,left,1.240999937,4,0,4,0,1,3,1,0,240,126,1,239,,,,,,,,,,,,,,,,,,
,,1,166,,,,,,,3,6,3,stim/63.jpeg,HouseObjects,1,stim/objects/HouseObjects/clothesdryingrack2.png,0.9,3,-0.2,-0.15,left,35,2020-12-07_19h59.16.974,premup-three_ses-01_part-01_label-phase1,3.2.4,Win32,60,left,1.107000113,4,0,4,0,1,3,1,0,240,230,1,239,,,,,,,,,,,,,,,,,,
,,1,167,,,,,,,1,1,2,stim/12.jpeg,Instruments,2,stim/objects/Instruments/acousticguitar.png,0.5,4,0.2,-0.15,right,35,2020-12-07_19h59.16.974,premup-three_ses-01_part-01_label-phase1,3.2.4,Win32,60,right,0.910000086,4,0,4,0,1,3,1,0,240,37,1,239,,,,,,,,,,,,,,,,,,
,,1,168,,,,,,,3,5,3,stim/53.jpeg,Instruments,2,stim/objects/Instruments/cello2.png,0.9,1,-0.2,0.15,right,35,2020-12-07_19h59.16.974,premup-three_ses-01_part-01_label-phase1,3.2.4,Win32,60,right,0.967000008,4,0,4,0,1,3,1,0,240,174,1,239,,,,,,,,,,,,,,,,,,
,,1,169,,,,,,,3,5,3,stim/53.jpeg,Instruments,2,stim/objects/Instruments/cello2.png,0.9,4,0.2,-0.15,right,35,2020-12-07_19h59.16.974,premup-three_ses-01_part-01_label-phase1,3.2.4,Win32,60,right,0.820000172,4,0,4,0,1,3,1,0,240,194,1,239,,,,,,,,,,,,,,,,,,
,,0,170,,,,,,,1,2,2,stim/22.jpeg,Instruments,2,stim/objects/Instruments/bassguitar.png,0.5,1,-0.2,0.15,right,35,2020-12-07_19h59.16.974,premup-three_ses-01_part-01_label-phase1,3.2.4,Win32,60,left,0.94900012,4,0,4,0,1,3,1,0,240,61,1,239,,,,,,,,,,,,,,,,,,
,,0,171,,,,,,,1,1,1,stim/11.jpeg,HouseObjects,1,stim/objects/HouseObjects/ashtray.png,0.5,2,0.2,0.15,left,35,2020-12-07_19h59.16.974,premup-three_ses-01_part-01_label-phase1,3.2.4,Win32,60,right,0.931999922,4,0,4,0,1,3,1,0,240,4,1,239,,,,,,,,,,,,,,,,,,
,,0,172,,,,,,,2,3,3,stim/33.jpeg,HouseObjects,1,stim/objects/HouseObjects/clothesdryingrack.png,0.3,4,0.2,-0.15,left,35,2020-12-07_19h59.16.974,premup-three_ses-01_part-01_label-phase1,3.2.4,Win32,60,right,0.745000124,4,0,4,0,1,3,1,0,240,82,1,239,,,,,,,,,,,,,,,,,,
,,1,173,,,,,,,3,6,4,stim/64.jpeg,HouseObjects,1,stim/objects/HouseObjects/clothespin2.png,0.9,1,-0.2,0.15,left,35,2020-12-07_19h59.16.974,premup-three_ses-01_part-01_label-phase1,3.2.4,Win32,60,left,0.963000059,4,0,4,0,1,3,1,0,240,235,1,239,,,,,,,,,,,,,,,,,,
,,1,174,,,,,,,3,5,1,stim/51.jpeg,Instruments,2,stim/objects/Instruments/bassdrum2.png,0.9,2,0.2,0.15,right,35,2020-12-07_19h59.16.974,premup-three_ses-01_part-01_label-phase1,3.2.4,Win32,60,right,1.000999928,4,0,4,0,1,3,1,0,240,180,1,239,,,,,,,,,,,,,,,,,,
,,1,175,,,,,,,1,2,4,stim/24.jpeg,Instruments,2,stim/objects/Instruments/chime.png,0.5,1,-0.2,0.15,right,35,2020-12-07_19h59.16.974,premup-three_ses-01_part-01_label-phase1,3.2.4,Win32,60,right,0.756999969,4,0,4,0,1,3,1,0,240,75,1,239,,,,,,,,,,,,,,,,,,
,,1,176,,,,,,,2,4,4,stim/44.jpeg,HouseObjects,1,stim/objects/HouseObjects/basket2.png,0.7,1,-0.2,0.15,left,35,2020-12-07_19h59.16.974,premup-three_ses-01_part-01_label-phase1,3.2.4,Win32,60,left,1.510999918,4,0,4,0,1,3,1,0,240,123,1,239,,,,,,,,,,,,,,,,,,
,,0,177,,,,,,,2,4,4,stim/44.jpeg,Instruments,2,stim/objects/Instruments/banjo2.png,0.3,3,-0.2,-0.15,right,35,2020-12-07_19h59.16.974,premup-three_ses-01_part-01_label-phase1,3.2.4,Win32,60,left,0.630000114,4,0,4,0,1,3,1,0,240,155,1,239,,,,,,,,,,,,,,,,,,
,,1,178,,,,,,,3,5,3,stim/53.jpeg,Instruments,2,stim/objects/Instruments/cello2.png,0.9,2,0.2,0.15,right,35,2020-12-07_19h59.16.974,premup-three_ses-01_part-01_label-phase1,3.2.4,Win32,60,right,0.582999945,4,0,4,0,1,3,1,0,240,186,1,239,,,,,,,,,,,,,,,,,,
,,1,179,,,,,,,3,5,2,stim/52.jpeg,Instruments,2,stim/objects/Instruments/bassguitar2.png,0.9,2,0.2,0.15,right,35,2020-12-07_19h59.16.974,premup-three_ses-01_part-01_label-phase1,3.2.4,Win32,60,right,1.54399991,4,0,4,0,1,3,1,0,240,197,1,239,,,,,,,,,,,,,,,,,,
,,1,180,,,,,,,2,4,1,stim/41.jpeg,Instruments,2,stim/objects/Instruments/accordion2.png,0.3,1,-0.2,0.15,right,35,2020-12-07_19h59.16.974,premup-three_ses-01_part-01_label-phase1,3.2.4,Win32,60,right,0.644000053,4,0,4,0,1,3,1,0,240,156,1,239,,,,,,,,,,,,,,,,,,
,,1,181,,,,,,,3,6,4,stim/64.jpeg,HouseObjects,1,stim/objects/HouseObjects/clothespin2.png,0.9,3,-0.2,-0.15,left,35,2020-12-07_19h59.16.974,premup-three_ses-01_part-01_label-phase1,3.2.4,Win32,60,left,0.740999937,4,0,4,0,1,3,1,0,240,231,1,239,,,,,,,,,,,,,,,,,,
,,0,182,,,,,,,1,2,3,stim/23.jpeg,Instruments,2,stim/objects/Instruments/cello.png,0.5,4,0.2,-0.15,right,35,2020-12-07_19h59.16.974,premup-three_ses-01_part-01_label-phase1,3.2.4,Win32,60,left,0.705999851,4,0,4,0,1,3,1,0,240,62,1,239,,,,,,,,,,,,,,,,,,
,,0,183,,,,,,,1,1,4,stim/14.jpeg,Instruments,2,stim/objects/Instruments/banjo.png,0.5,1,-0.2,0.15,right,35,2020-12-07_19h59.16.974,premup-three_ses-01_part-01_label-phase1,3.2.4,Win32,60,left,0.794000149,4,0,4,0,1,3,1,0,240,23,1,239,,,,,,,,,,,,,,,,,,
,,1,184,,,,,,,1,2,3,stim/23.jpeg,HouseObjects,1,stim/objects/HouseObjects/bottle.png,0.5,3,-0.2,-0.15,left,35,2020-12-07_19h59.16.974,premup-three_ses-01_part-01_label-phase1,3.2.4,Win32,60,left,0.849999905,4,0,4,0,1,3,1,0,240,50,1,239,,,,,,,,,,,,,,,,,,
,,1,185,,,,,,,1,2,2,stim/22.jpeg,HouseObjects,1,stim/objects/HouseObjects/blender.png,0.5,2,0.2,0.15,left,35,2020-12-07_19h59.16.974,premup-three_ses-01_part-01_label-phase1,3.2.4,Win32,60,left,0.980999947,4,0,4,0,1,3,1,0,240,45,1,239,,,,,,,,,,,,,,,,,,
,,0,186,,,,,,,2,4,4,stim/44.jpeg,HouseObjects,1,stim/objects/HouseObjects/basket2.png,0.7,1,-0.2,0.15,left,35,2020-12-07_19h59.16.974,premup-three_ses-01_part-01_label-phase1,3.2.4,Win32,60,right,0.50999999,4,0,4,0,1,3,1,0,240,143,1,239,,,,,,,,,,,,,,,,,,
,,0,187,,,,,,,3,6,2,stim/62.jpeg,HouseObjects,1,stim/objects/HouseObjects/clock2.png,0.9,2,0.2,0.15,left,35,2020-12-07_19h59.16.974,premup-three_ses-01_part-01_label-phase1,3.2.4,Win32,60,right,0.641000032,4,0,4,0,1,3,1,0,240,221,1,239,,,,,,,,,,,,,,,,,,
,,1,188,,,,,,,3,6,2,stim/62.jpeg,HouseObjects,1,stim/objects/HouseObjects/clock2.png,0.9,4,0.2,-0.15,left,35,2020-12-07_19h59.16.974,premup-three_ses-01_part-01_label-phase1,3.2.4,Win32,60,left,0.867000103,4,0,4,0,1,3,1,0,240,225,1,239,,,,,,,,,,,,,,,,,,
,,1,189,,,,,,,1,1,3,stim/13.jpeg,HouseObjects,1,stim/objects/HouseObjects/barbecuelighter.png,0.5,3,-0.2,-0.15,left,35,2020-12-07_19h59.16.974,premup-three_ses-01_part-01_label-phase1,3.2.4,Win32,60,left,1.253999949,4,0,4,0,1,3,1,0,240,18,1,239,,,,,,,,,,,,,,,,,,
,,1,190,,,,,,,3,5,1,stim/51.jpeg,Instruments,2,stim/objects/Instruments/bassdrum2.png,0.9,3,-0.2,-0.15,right,35,2020-12-07_19h59.16.974,premup-three_ses-01_part-01_label-phase1,3.2.4,Win32,60,right,0.824999809,4,0,4,0,1,3,1,0,240,192,1,239,,,,,,,,,,,,,,,,,,
,,1,191,,,,,,,3,5,2,stim/52.jpeg,Instruments,2,stim/objects/Instruments/bassguitar2.png,0.9,4,0.2,-0.15,right,35,2020-12-07_19h59.16.974,premup-three_ses-01_part-01_label-phase1,3.2.4,Win32,60,right,0.717999935,4,0,4,0,1,3,1,0,240,165,1,239,,,,,,,,,,,,,,,,,,
,,1,192,,,,,,,3,5,1,stim/51.jpeg,Instruments,2,stim/objects/Instruments/bassdrum2.png,0.9,1,-0.2,0.15,right,35,2020-12-07_19h59.16.974,premup-three_ses-01_part-01_label-phase1,3.2.4,Win32,60,right,0.789999962,4,0,4,0,1,3,1,0,240,188,1,239,,,,,,,,,,,,,,,,,,
,,1,193,,,,,,,1,2,1,stim/21.jpeg,Instruments,2,stim/objects/Instruments/bassdrum.png,0.5,1,-0.2,0.15,right,35,2020-12-07_19h59.16.974,premup-three_ses-01_part-01_label-phase1,3.2.4,Win32,60,right,1.086999893,4,0,4,0,1,3,1,0,240,64,1,239,,,,,,,,,,,,,,,,,,
,,0,194,,,,,,,1,1,3,stim/13.jpeg,Instruments,2,stim/objects/Instruments/balalaika.png,0.5,2,0.2,0.15,right,35,2020-12-07_19h59.16.974,premup-three_ses-01_part-01_label-phase1,3.2.4,Win32,60,left,1.081999779,4,0,4,0,1,3,1,0,240,30,1,239,,,,,,,,,,,,,,,,,,
,,0,195,,,,,,,1,1,2,stim/12.jpeg,HouseObjects,1,stim/objects/HouseObjects/ballofstring.png,0.5,2,0.2,0.15,left,35,2020-12-07_19h59.16.974,premup-three_ses-01_part-01_label-phase1,3.2.4,Win32,60,right,1.045000076,4,0,4,0,1,3,1,0,240,1,1,239,,,,,,,,,,,,,,,,,,
,,1,196,,,,,,,3,5,2,stim/52.jpeg,Instruments,2,stim/objects/Instruments/bassguitar2.png,0.9,1,-0.2,0.15,right,35,2020-12-07_19h59.16.974,premup-three_ses-01_part-01_label-phase1,3.2.4,Win32,60,right,1.707999945,4,0,4,0,1,3,1,0,240,181,1,239,,,,,,,,,,,,,,,,,,
,,1,197,,,,,,,3,5,2,stim/52.jpeg,Instruments,2,stim/objects/Instruments/bassguitar2.png,0.9,1,-0.2,0.15,right,35,2020-12-07_19h59.16.974,premup-three_ses-01_part-01_label-phase1,3.2.4,Win32,60,right,0.773000002,4,0,4,0,1,3,1,0,240,189,1,239,,,,,,,,,,,,,,,,,,
,,1,198,,,,,,,3,6,1,stim/61.jpeg,HouseObjects,1,stim/objects/HouseObjects/bucket2.png,0.9,2,0.2,0.15,left,35,2020-12-07_19h59.16.974,premup-three_ses-01_part-01_label-phase1,3.2.4,Win32,60,left,1.263000011,4,0,4,0,1,3,1,0,240,204,1,239,,,,,,,,,,,,,,,,,,
,,1,199,,,,,,,3,5,2,stim/52.jpeg,Instruments,2,stim/objects/Instruments/bassguitar2.png,0.9,1,-0.2,0.15,right,35,2020-12-07_19h59.16.974,premup-three_ses-01_part-01_label-phase1,3.2.4,Win32,60,right,0.665999889,4,0,4,0,1,3,1,0,240,173,1,239,,,,,,,,,,,,,,,,,,
,,1,200,,,,,,,3,5,4,stim/54.jpeg,Instruments,2,stim/objects/Instruments/chime2.png,0.9,2,0.2,0.15,right,35,2020-12-07_19h59.16.974,premup-three_ses-01_part-01_label-phase1,3.2.4,Win32,60,right,1.140000105,4,0,4,0,1,3,1,0,240,191,1,239,,,,,,,,,,,,,,,,,,
,,1,201,,,,,,,3,6,4,stim/64.jpeg,HouseObjects,1,stim/objects/HouseObjects/clothespin2.png,0.9,1,-0.2,0.15,left,35,2020-12-07_19h59.16.974,premup-three_ses-01_part-01_label-phase1,3.2.4,Win32,60,left,0.732000113,4,0,4,0,1,3,1,0,240,207,1,239,,,,,,,,,,,,,,,,,,
,,1,202,,,,,,,1,1,4,stim/14.jpeg,HouseObjects,1,stim/objects/HouseObjects/basket.png,0.5,2,0.2,0.15,left,35,2020-12-07_19h59.16.974,premup-three_ses-01_part-01_label-phase1,3.2.4,Win32,60,left,1.085999966,4,0,4,0,1,3,1,0,240,19,1,239,,,,,,,,,,,,,,,,,,
,,1,203,,,,,,,3,6,1,stim/61.jpeg,HouseObjects,1,stim/objects/HouseObjects/bucket2.png,0.9,2,0.2,0.15,left,35,2020-12-07_19h59.16.974,premup-three_ses-01_part-01_label-phase1,3.2.4,Win32,60,left,0.590000153,4,0,4,0,1,3,1,0,240,224,1,239,,,,,,,,,,,,,,,,,,
,,0,204,,,,,,,3,6,1,stim/61.jpeg,Instruments,2,stim/objects/Instruments/clarinet2.png,0.1,4,0.2,-0.15,right,35,2020-12-07_19h59.16.974,premup-three_ses-01_part-01_label-phase1,3.2.4,Win32,60,left,0.510999918,4,0,4,0,1,3,1,0,240,236,1,239,,,,,,,,,,,,,,,,,,
,,1,205,,,,,,,3,5,1,stim/51.jpeg,Instruments,2,stim/objects/Instruments/bassdrum2.png,0.9,3,-0.2,-0.15,right,35,2020-12-07_19h59.16.974,premup-three_ses-01_part-01_label-phase1,3.2.4,Win32,60,right,0.503000021,4,0,4,0,1,3,1,0,240,196,1,239,,,,,,,,,,,,,,,,,,
,,0,206,,,,,,,2,3,4,stim/34.jpeg,HouseObjects,1,stim/objects/HouseObjects/clothespin.png,0.3,1,-0.2,0.15,left,35,2020-12-07_19h59.16.974,premup-three_ses-01_part-01_label-phase1,3.2.4,Win32,60,right,0.804999828,4,0,4,0,1,3,1,0,240,83,1,239,,,,,,,,,,,,,,,,,,
,,1,207,,,,,,,3,5,2,stim/52.jpeg,Instruments,2,stim/objects/Instruments/bassguitar2.png,0.9,3,-0.2,-0.15,right,35,2020-12-07_19h59.16.974,premup-three_ses-01_part-01_label-phase1,3.2.4,Win32,60,right,0.65199995,4,0,4,0,1,3,1,0,240,177,1,239,,,,,,,,,,,,,,,,,,
,,1,208,,,,,,,3,6,4,stim/64.jpeg,HouseObjects,1,stim/objects/HouseObjects/clothespin2.png,0.9,4,0.2,-0.15,left,35,2020-12-07_19h59.16.974,premup-three_ses-01_part-01_label-phase1,3.2.4,Win32,60,left,0.707999945,4,0,4,0,1,3,1,0,240,203,1,239,,,,,,,,,,,,,,,,,,
,,1,209,,,,,,,2,3,4,stim/34.jpeg,Instruments,2,stim/objects/Instruments/doublebass.png,0.7,3,-0.2,-0.15,right,35,2020-12-07_19h59.16.974,premup-three_ses-01_part-01_label-phase1,3.2.4,Win32,60,right,0.738000154,4,0,4,0,1,3,1,0,240,103,1,239,,,,,,,,,,,,,,,,,,
,,1,210,,,,,,,3,5,2,stim/52.jpeg,Instruments,2,stim/objects/Instruments/bassguitar2.png,0.9,3,-0.2,-0.15,right,35,2020-12-07_19h59.16.974,premup-three_ses-01_part-01_label-phase1,3.2.4,Win32,60,right,0.743999958,4,0,4,0,1,3,1,0,240,185,1,239,,,,,,,,,,,,,,,,,,
,,0,211,,,,,,,3,6,2,stim/62.jpeg,HouseObjects,1,stim/objects/HouseObjects/clock2.png,0.9,4,0.2,-0.15,left,35,2020-12-07_19h59.16.974,premup-three_ses-01_part-01_label-phase1,3.2.4,Win32,60,right,0.862999916,4,0,4,0,1,3,1,0,240,217,1,239,,,,,,,,,,,,,,,,,,
,,1,212,,,,,,,2,3,3,stim/33.jpeg,Instruments,2,stim/objects/Instruments/cymbal.png,0.7,2,0.2,0.15,right,35,2020-12-07_19h59.16.974,premup-three_ses-01_part-01_label-phase1,3.2.4,Win32,60,right,0.759000063,4,0,4,0,1,3,1,0,240,106,1,239,,,,,,,,,,,,,,,,,,
,,1,213,,,,,,,3,6,3,stim/63.jpeg,HouseObjects,1,stim/objects/HouseObjects/clothesdryingrack2.png,0.9,4,0.2,-0.15,left,35,2020-12-07_19h59.16.974,premup-three_ses-01_part-01_label-phase1,3.2.4,Win32,60,left,0.602999926,4,0,4,0,1,3,1,0,240,234,1,239,,,,,,,,,,,,,,,,,,
,,1,214,,,,,,,1,2,3,stim/23.jpeg,HouseObjects,1,stim/objects/HouseObjects/bottle.png,0.5,1,-0.2,0.15,left,35,2020-12-07_19h59.16.974,premup-three_ses-01_part-01_label-phase1,3.2.4,Win32,60,left,0.700999975,4,0,4,0,1,3,1,0,240,42,1,239,,,,,,,,,,,,,,,,,,
,,1,215,,,,,,,3,5,3,stim/53.jpeg,Instruments,2,stim/objects/Instruments/cello2.png,0.9,2,0.2,0.15,right,35,2020-12-07_19h59.16.974,premup-three_ses-01_part-01_label-phase1,3.2.4,Win32,60,right,0.687000036,4,0,4,0,1,3,1,0,240,182,1,239,,,,,,,,,,,,,,,,,,
,,0,216,,,,,,,2,3,2,stim/32.jpeg,HouseObjects,1,stim/objects/HouseObjects/clock.png,0.3,3,-0.2,-0.15,left,35,2020-12-07_19h59.16.974,premup-three_ses-01_part-01_label-phase1,3.2.4,Win32,60,right,0.740999937,4,0,4,0,1,3,1,0,240,85,1,239,,,,,,,,,,,,,,,,,,
,,0,217,,,,,,,1,2,1,stim/21.jpeg,HouseObjects,1,stim/objects/HouseObjects/bleachbottle.png,0.5,3,-0.2,-0.15,left,35,2020-12-07_19h59.16.974,premup-three_ses-01_part-01_label-phase1,3.2.4,Win32,60,right,0.868000031,4,0,4,0,1,3,1,0,240,56,1,239,,,,,,,,,,,,,,,,,,
,,0,218,,,,,,,2,4,3,stim/43.jpeg,Instruments,2,stim/objects/Instruments/balalaika2.png,0.3,2,0.2,0.15,right,35,2020-12-07_19h59.16.974,premup-three_ses-01_part-01_label-phase1,3.2.4,Win32,60,left,0.962999821,4,0,4,0,1,3,1,0,240,158,1,239,,,,,,,,,,,,,,,,,,
,,1,219,,,,,,,3,6,4,stim/64.jpeg,HouseObjects,1,stim/objects/HouseObjects/clothespin2.png,0.9,2,0.2,0.15,left,35,2020-12-07_19h59.16.974,premup-three_ses-01_part-01_label-phase1,3.2.4,Win32,60,left,0.612999916,4,0,4,0,1,3,1,0,240,223,1,239,,,,,,,,,,,,,,,,,,
,,0,220,,,,,,,1,2,2,stim/22.jpeg,Instruments,2,stim/objects/Instruments/bassguitar.png,0.5,1,-0.2,0.15,right,35,2020-12-07_19h59.16.974,premup-three_ses-01_part-01_label-phase1,3.2.4,Win32,60,left,0.690999985,4,0,4,0,1,3,1,0,240,69,1,239,,,,,,,,,,,,,,,,,,
,,0,221,,,,,,,1,2,3,stim/23.jpeg,Instruments,2,stim/objects/Instruments/cello.png,0.5,4,0.2,-0.15,right,35,2020-12-07_19h59.16.974,premup-three_ses-01_part-01_label-phase1,3.2.4,Win32,60,left,0.663999796,4,0,4,0,1,3,1,0,240,70,1,239,,,,,,,,,,,,,,,,,,
,,0,222,,,,,,,2,4,1,stim/41.jpeg,HouseObjects,1,stim/objects/HouseObjects/ashtray2.png,0.7,4,0.2,-0.15,left,35,2020-12-07_19h59.16.974,premup-three_ses-01_part-01_label-phase1,3.2.4,Win32,60,right,0.606000185,4,0,4,0,1,3,1,0,240,132,1,239,,,,,,,,,,,,,,,,,,
,,1,223,,,,,,,2,4,2,stim/42.jpeg,Instruments,2,stim/objects/Instruments/acousticguitar2.png,0.3,2,0.2,0.15,right,35,2020-12-07_19h59.16.974,premup-three_ses-01_part-01_label-phase1,3.2.4,Win32,60,right,1.611000061,4,0,4,0,1,3,1,0,240,153,1,239,,,,,,,,,,,,,,,,,,
,,0,224,,,,,,,1,2,1,stim/21.jpeg,Instruments,2,stim/objects/Instruments/bassdrum.png,0.5,1,-0.2,0.15,right,35,2020-12-07_19h59.16.974,premup-three_ses-01_part-01_label-phase1,3.2.4,Win32,60,left,0.662000179,4,0,4,0,1,3,1,0,240,76,1,239,,,,,,,,,,,,,,,,,,
,,1,225,,,,,,,2,3,4,stim/34.jpeg,Instruments,2,stim/objects/Instruments/doublebass.png,0.7,4,0.2,-0.15,right,35,2020-12-07_19h59.16.974,premup-three_ses-01_part-01_label-phase1,3.2.4,Win32,60,right,1.03399992,4,0,4,0,1,3,1,0,240,119,1,239,,,,,,,,,,,,,,,,,,
,,1,226,,,,,,,3,6,2,stim/62.jpeg,HouseObjects,1,stim/objects/HouseObjects/clock2.png,0.9,4,0.2,-0.15,left,35,2020-12-07_19h59.16.974,premup-three_ses-01_part-01_label-phase1,3.2.4,Win32,60,left,0.684000015,4,0,4,0,1,3,1,0,240,201,1,239,,,,,,,,,,,,,,,,,,
,,0,227,,,,,,,2,3,4,stim/34.jpeg,HouseObjects,1,stim/objects/HouseObjects/clothespin.png,0.3,1,-0.2,0.15,left,35,2020-12-07_19h59.16.974,premup-three_ses-01_part-01_label-phase1,3.2.4,Win32,60,right,0.920000076,4,0,4,0,1,3,1,0,240,87,1,239,,,,,,,,,,,,,,,,,,
,,1,228,,,,,,,2,3,2,stim/32.jpeg,Instruments,2,stim/objects/Instruments/cornet.png,0.7,2,0.2,0.15,right,35,2020-12-07_19h59.16.974,premup-three_ses-01_part-01_label-phase1,3.2.4,Win32,60,right,1.082999945,4,0,4,0,1,3,1,0,240,97,1,239,,,,,,,,,,,,,,,,,,
,,1,229,,,,,,,3,6,4,stim/64.jpeg,HouseObjects,1,stim/objects/HouseObjects/clothespin2.png,0.9,1,-0.2,0.15,left,35,2020-12-07_19h59.16.974,premup-three_ses-01_part-01_label-phase1,3.2.4,Win32,60,left,0.682999849,4,0,4,0,1,3,1,0,240,215,1,239,,,,,,,,,,,,,,,,,,
,,1,230,,,,,,,2,4,2,stim/42.jpeg,HouseObjects,1,stim/objects/HouseObjects/ballofstring2.png,0.7,2,0.2,0.15,left,35,2020-12-07_19h59.16.974,premup-three_ses-01_part-01_label-phase1,3.2.4,Win32,60,left,1.296999931,4,0,4,0,1,3,1,0,240,137,1,239,,,,,,,,,,,,,,,,,,
,,1,231,,,,,,,3,5,4,stim/54.jpeg,Instruments,2,stim/objects/Instruments/chime2.png,0.9,4,0.2,-0.15,right,35,2020-12-07_19h59.16.974,premup-three_ses-01_part-01_label-phase1,3.2.4,Win32,60,right,0.756000042,4,0,4,0,1,3,1,0,240,195,1,239,,,,,,,,,,,,,,,,,,
,,1,232,,,,,,,1,1,3,stim/13.jpeg,Instruments,2,stim/objects/Instruments/balalaika.png,0.5,3,-0.2,-0.15,right,35,2020-12-07_19h59.16.974,premup-three_ses-01_part-01_label-phase1,3.2.4,Win32,60,right,1.197000027,4,0,4,0,1,3,1,0,240,38,1,239,,,,,,,,,,,,,,,,,,
,,1,233,,,,,,,2,4,2,stim/42.jpeg,HouseObjects,1,stim/objects/HouseObjects/ballofstring2.png,0.7,4,0.2,-0.15,left,35,2020-12-07_19h59.16.974,premup-three_ses-01_part-01_label-phase1,3.2.4,Win32,60,left,1.002999783,4,0,4,0,1,3,1,0,240,141,1,239,,,,,,,,,,,,,,,,,,
,,1,234,,,,,,,1,1,3,stim/13.jpeg,HouseObjects,1,stim/objects/HouseObjects/barbecuelighter.png,0.5,1,-0.2,0.15,left,35,2020-12-07_19h59.16.974,premup-three_ses-01_part-01_label-phase1,3.2.4,Win32,60,left,0.720000029,4,0,4,0,1,3,1,0,240,14,1,239,,,,,,,,,,,,,,,,,,
,,1,235,,,,,,,3,5,1,stim/51.jpeg,Instruments,2,stim/objects/Instruments/bassdrum2.png,0.9,1,-0.2,0.15,right,35,2020-12-07_19h59.16.974,premup-three_ses-01_part-01_label-phase1,3.2.4,Win32,60,right,1.088000059,4,0,4,0,1,3,1,0,240,184,1,239,,,,,,,,,,,,,,,,,,
,,0,236,,,,,,,2,3,3,stim/33.jpeg,Instruments,2,stim/objects/Instruments/cymbal.png,0.7,2,0.2,0.15,right,35,2020-12-07_19h59.16.974,premup-three_ses-01_part-01_label-phase1,3.2.4,Win32,60,left,0.969000101,4,0,4,0,1,3,1,0,240,110,1,239,,,,,,,,,,,,,,,,,,
,,1,237,,,,,,,1,2,2,stim/22.jpeg,HouseObjects,1,stim/objects/HouseObjects/blender.png,0.5,3,-0.2,-0.15,left,35,2020-12-07_19h59.16.974,premup-three_ses-01_part-01_label-phase1,3.2.4,Win32,60,left,1.105000019,4,0,4,0,1,3,1,0,240,41,1,239,,,,,,,,,,,,,,,,,,
,,0,238,,,,,,,1,1,3,stim/13.jpeg,HouseObjects,1,stim/objects/HouseObjects/barbecuelighter.png,0.5,3,-0.2,-0.15,left,35,2020-12-07_19h59.16.974,premup-three_ses-01_part-01_label-phase1,3.2.4,Win32,60,right,0.600000143,4,0,4,0,1,3,1,0,240,2,1,239,,,,,,,,,,,,,,,,,,
,,1,239,,,,,,,2,3,1,stim/31.jpeg,Instruments,2,stim/objects/Instruments/clarinet.png,0.7,3,-0.2,-0.15,right,35,2020-12-07_19h59.16.974,premup-three_ses-01_part-01_label-phase1,3.2.4,Win32,60,right,1.019999981,4,0,4,0,1,3,1,0,240,116,1,239,,,,,,,,,,,,,,,,,,
,,1,240,,,,,,,2,3,3,stim/33.jpeg,Instruments,2,stim/objects/Instruments/cymbal.png,0.7,1,-0.2,0.15,right,35,2020-12-07_19h59.16.974,premup-three_ses-01_part-01_label-phase1,3.2.4,Win32,60,right,1.117000103,4,0,4,0,1,3,1,0,240,114,1,239,,,,,,,,,,,,,,,,,,
,,,,,,,,,,,5,,stim/51.jpeg,,,,,,,,,35,2020-12-07_19h59.16.974,premup-three_ses-01_part-01_label-phase1,3.2.4,Win32,60,,,4,0,4,0,1,3,,,,,,,1,0,62,21.34399986,,,1,0,6,4,1,5,Music items,5,15,Household items,85,95
,,,,,,,,,,,6,,stim/61.jpeg,,,,,,,,,35,2020-12-07_19h59.16.974,premup-three_ses-01_part-01_label-phase1,3.2.4,Win32,60,,,4,0,4,0,1,3,,,,,,,1,0,71,8.947000027,,,1,0,6,5,1,5,Household items,5,15,Music items,85,95
,,,,,,,,,,,3,,stim/31.jpeg,,,,,,,,,35,2020-12-07_19h59.16.974,premup-three_ses-01_part-01_label-phase1,3.2.4,Win32,60,,,4,0,4,0,1,3,,,,,,,1,0,82,6.860999823,,,1,0,6,2,1,5,Household items,65,75,Music items,25,35
,,,,,,,,,,,4,,stim/41.jpeg,,,,,,,,,35,2020-12-07_19h59.16.974,premup-three_ses-01_part-01_label-phase1,3.2.4,Win32,60,,,4,0,4,0,1,3,,,,,,,1,0,50,3.506000042,,,1,0,6,3,1,5,Household items,65,75,Music items,25,35
,,,,,,,,,,,2,,stim/21.jpeg,,,,,,,,,35,2020-12-07_19h59.16.974,premup-three_ses-01_part-01_label-phase1,3.2.4,Win32,60,,,4,0,4,0,1,3,,,,,,,1,1,50,3.204000235,,,1,0,6,1,1,5,Music items,45,55,Household items,45,55
,,,,,,,,,,,1,,stim/11.jpeg,,,,,,,,,35,2020-12-07_19h59.16.974,premup-three_ses-01_part-01_label-phase1,3.2.4,Win32,60,,,4,0,4,0,1,3,,,,,,,1,1,80,5.636000156,,,1,0,6,0,1,5,Household items,45,55,Music items,45,55
,,,,,,,,,,,,,,,,,,,,,,35,2020-12-07_19h59.16.974,premup-three_ses-01_part-01_label-phase1,3.2.4,Win32,60,,,4,0,4,0,1,3,,,,,,,,,,,,,,,,,,,,,,,,
,,0,1,,,,,,,1,1,1,stim/11.jpeg,HouseObjects,1,stim/objects/HouseObjects/ashtray.png,0.5,2,0.2,0.15,left,35,2020-12-07_19h59.16.974,premup-three_ses-01_part-01_label-phase1,3.2.4,Win32,60,right,1.252000093,4,0,4,0,1,3,1,0,240,0,1,239,,,,,,,,,,,,,,,,,,
,,1,2,,,,,,,1,1,1,stim/11.jpeg,HouseObjects,1,stim/objects/HouseObjects/ashtray.png,0.5,2,0.2,0.15,left,35,2020-12-07_19h59.16.974,premup-three_ses-01_part-01_label-phase1,3.2.4,Win32,60,left,0.914000034,4,0,4,0,1,3,1,0,240,4,1,239,,,,,,,,,,,,,,,,,,
,,0,3,,,,,,,3,6,4,stim/64.jpeg,Instruments,2,stim/objects/Instruments/doublebass2.png,0.1,3,-0.2,-0.15,right,35,2020-12-07_19h59.16.974,premup-three_ses-01_part-01_label-phase1,3.2.4,Win32,60,left,0.628999949,4,0,4,0,1,3,1,0,240,239,1,239,,,,,,,,,,,,,,,,,,
,,1,4,,,,,,,2,4,2,stim/42.jpeg,HouseObjects,1,stim/objects/HouseObjects/ballofstring2.png,0.7,3,-0.2,-0.15,left,35,2020-12-07_19h59.16.974,premup-three_ses-01_part-01_label-phase1,3.2.4,Win32,60,left,0.940999985,4,0,4,0,1,3,1,0,240,121,1,239,,,,,,,,,,,,,,,,,,
,,0,5,,,,,,,2,4,4,stim/44.jpeg,Instruments,2,stim/objects/Instruments/banjo2.png,0.3,3,-0.2,-0.15,right,35,2020-12-07_19h59.16.974,premup-three_ses-01_part-01_label-phase1,3.2.4,Win32,60,left,0.900000095,4,0,4,0,1,3,1,0,240,155,1,239,,,,,,,,,,,,,,,,,,
,,0,6,,,,,,,2,4,3,stim/43.jpeg,HouseObjects,1,stim/objects/HouseObjects/barbecuelighter2.png,0.7,2,0.2,0.15,left,35,2020-12-07_19h59.16.974,premup-three_ses-01_part-01_label-phase1,3.2.4,Win32,60,right,1.118000031,4,0,4,0,1,3,1,0,240,122,1,239,,,,,,,,,,,,,,,,,,
,,0,7,,,,,,,1,2,1,stim/21.jpeg,HouseObjects,1,stim/objects/HouseObjects/bleachbottle.png,0.5,4,0.2,-0.15,left,35,2020-12-07_19h59.16.974,premup-three_ses-01_part-01_label-phase1,3.2.4,Win32,60,right,1.180000067,4,0,4,0,1,3,1,0,240,48,1,239,,,,,,,,,,,,,,,,,,
,,0,8,,,,,,,1,1,3,stim/13.jpeg,HouseObjects,1,stim/objects/HouseObjects/barbecuelighter.png,0.5,3,-0.2,-0.15,left,35,2020-12-07_19h59.16.974,premup-three_ses-01_part-01_label-phase1,3.2.4,Win32,60,right,0.781000137,4,0,4,0,1,3,1,0,240,2,1,239,,,,,,,,,,,,,,,,,,
,,0,9,,,,,,,3,6,4,stim/64.jpeg,HouseObjects,1,stim/objects/HouseObjects/clothespin2.png,0.9,1,-0.2,0.15,left,35,2020-12-07_19h59.16.974,premup-three_ses-01_part-01_label-phase1,3.2.4,Win32,60,right,1.507999897,4,0,4,0,1,3,1,0,240,235,1,239,,,,,,,,,,,,,,,,,,
,,1,10,,,,,,,2,3,4,stim/34.jpeg,Instruments,2,stim/objects/Instruments/doublebass.png,0.7,3,-0.2,-0.15,right,35,2020-12-07_19h59.16.974,premup-three_ses-01_part-01_label-phase1,3.2.4,Win32,60,right,0.832000017,4,0,4,0,1,3,1,0,240,111,1,239,,,,,,,,,,,,,,,,,,
,,0,11,,,,,,,2,4,4,stim/44.jpeg,Instruments,2,stim/objects/Instruments/banjo2.png,0.3,4,0.2,-0.15,right,35,2020-12-07_19h59.16.974,premup-three_ses-01_part-01_label-phase1,3.2.4,Win32,60,left,1.167999983,4,0,4,0,1,3,1,0,240,159,1,239,,,,,,,,,,,,,,,,,,
,,1,12,,,,,,,3,5,3,stim/53.jpeg,Instruments,2,stim/objects/Instruments/cello2.png,0.9,2,0.2,0.15,right,35,2020-12-07_19h59.16.974,premup-three_ses-01_part-01_label-phase1,3.2.4,Win32,60,right,0.668000221,4,0,4,0,1,3,1,0,240,178,1,239,,,,,,,,,,,,,,,,,,
,,0,13,,,,,,,1,2,2,stim/22.jpeg,HouseObjects,1,stim/objects/HouseObjects/blender.png,0.5,2,0.2,0.15,left,35,2020-12-07_19h59.16.974,premup-three_ses-01_part-01_label-phase1,3.2.4,Win32,60,right,0.852000237,4,0,4,0,1,3,1,0,240,45,1,239,,,,,,,,,,,,,,,,,,
,,0,14,,,,,,,1,2,3,stim/23.jpeg,Instruments,2,stim/objects/Instruments/cello.png,0.5,4,0.2,-0.15,right,35,2020-12-07_19h59.16.974,premup-three_ses-01_part-01_label-phase1,3.2.4,Win32,60,left,1.278000116,4,0,4,0,1,3,1,0,240,62,1,239,,,,,,,,,,,,,,,,,,
,,1,15,,,,,,,3,6,4,stim/64.jpeg,HouseObjects,1,stim/objects/HouseObjects/clothespin2.png,0.9,1,-0.2,0.15,left,35,2020-12-07_19h59.16.974,premup-three_ses-01_part-01_label-phase1,3.2.4,Win32,60,left,0.73300004,4,0,4,0,1,3,1,0,240,207,1,239,,,,,,,,,,,,,,,,,,
,,1,16,,,,,,,3,6,4,stim/64.jpeg,HouseObjects,1,stim/objects/HouseObjects/clothespin2.png,0.9,4,0.2,-0.15,left,35,2020-12-07_19h59.16.974,premup-three_ses-01_part-01_label-phase1,3.2.4,Win32,60,left,0.582000017,4,0,4,0,1,3,1,0,240,203,1,239,,,,,,,,,,,,,,,,,,
,,1,17,,,,,,,3,6,3,stim/63.jpeg,HouseObjects,1,stim/objects/HouseObjects/clothesdryingrack2.png,0.9,2,0.2,0.15,left,35,2020-12-07_19h59.16.974,premup-three_ses-01_part-01_label-phase1,3.2.4,Win32,60,left,0.731000185,4,0,4,0,1,3,1,0,240,218,1,239,,,,,,,,,,,,,,,,,,
,,1,18,,,,,,,3,5,3,stim/53.jpeg,Instruments,2,stim/objects/Instruments/cello2.png,0.9,1,-0.2,0.15,right,35,2020-12-07_19h59.16.974,premup-three_ses-01_part-01_label-phase1,3.2.4,Win32,60,right,0.616000175,4,0,4,0,1,3,1,0,240,198,1,239,,,,,,,,,,,,,,,,,,
,,1,19,,,,,,,2,3,2,stim/32.jpeg,Instruments,2,stim/objects/Instruments/cornet.png,0.7,1,-0.2,0.15,right,35,2020-12-07_19h59.16.974,premup-three_ses-01_part-01_label-phase1,3.2.4,Win32,60,right,0.858999968,4,0,4,0,1,3,1,0,240,109,1,239,,,,,,,,,,,,,,,,,,
,,0,20,,,,,,,3,5,2,stim/52.jpeg,Instruments,2,stim/objects/Instruments/bassguitar2.png,0.9,4,0.2,-0.15,right,35,2020-12-07_19h59.16.974,premup-three_ses-01_part-01_label-phase1,3.2.4,Win32,60,,,4,0,4,0,1,3,1,0,240,165,1,239,,,,,,,,,,,,,,,,,,
,,1,21,,,,,,,2,4,2,stim/42.jpeg,Instruments,2,stim/objects/Instruments/acousticguitar2.png,0.3,2,0.2,0.15,right,35,2020-12-07_19h59.16.974,premup-three_ses-01_part-01_label-phase1,3.2.4,Win32,60,right,0.677999973,4,0,4,0,1,3,1,0,240,153,1,239,,,,,,,,,,,,,,,,,,
,,1,22,,,,,,,1,2,2,stim/22.jpeg,HouseObjects,1,stim/objects/HouseObjects/blender.png,0.5,3,-0.2,-0.15,left,35,2020-12-07_19h59.16.974,premup-three_ses-01_part-01_label-phase1,3.2.4,Win32,60,left,0.667999983,4,0,4,0,1,3,1,0,240,57,1,239,,,,,,,,,,,,,,,,,,
,,1,23,,,,,,,2,3,2,stim/32.jpeg,Instruments,2,stim/objects/Instruments/cornet.png,0.7,3,-0.2,-0.15,right,35,2020-12-07_19h59.16.974,premup-three_ses-01_part-01_label-phase1,3.2.4,Win32,60,right,0.75999999,4,0,4,0,1,3,1,0,240,113,1,239,,,,,,,,,,,,,,,,,,
,,1,24,,,,,,,1,1,2,stim/12.jpeg,HouseObjects,1,stim/objects/HouseObjects/ballofstring.png,0.5,2,0.2,0.15,left,35,2020-12-07_19h59.16.974,premup-three_ses-01_part-01_label-phase1,3.2.4,Win32,60,left,0.693000078,4,0,4,0,1,3,1,0,240,5,1,239,,,,,,,,,,,,,,,,,,
,,0,25,,,,,,,2,3,3,stim/33.jpeg,HouseObjects,1,stim/objects/HouseObjects/clothesdryingrack.png,0.3,3,-0.2,-0.15,left,35,2020-12-07_19h59.16.974,premup-three_ses-01_part-01_label-phase1,3.2.4,Win32,60,right,0.835000038,4,0,4,0,1,3,1,0,240,90,1,239,,,,,,,,,,,,,,,,,,
,,1,26,,,,,,,2,3,4,stim/34.jpeg,HouseObjects,1,stim/objects/HouseObjects/clothespin.png,0.3,4,0.2,-0.15,left,35,2020-12-07_19h59.16.974,premup-three_ses-01_part-01_label-phase1,3.2.4,Win32,60,left,0.700999975,4,0,4,0,1,3,1,0,240,91,1,239,,,,,,,,,,,,,,,,,,
,,1,27,,,,,,,2,4,3,stim/43.jpeg,HouseObjects,1,stim/objects/HouseObjects/barbecuelighter2.png,0.7,4,0.2,-0.15,left,35,2020-12-07_19h59.16.974,premup-three_ses-01_part-01_label-phase1,3.2.4,Win32,60,left,0.717000008,4,0,4,0,1,3,1,0,240,146,1,239,,,,,,,,,,,,,,,,,,
,,1,28,,,,,,,1,2,4,stim/24.jpeg,HouseObjects,1,stim/objects/HouseObjects/broom.png,0.5,2,0.2,0.15,left,35,2020-12-07_19h59.16.974,premup-three_ses-01_part-01_label-phase1,3.2.4,Win32,60,left,0.729000092,4,0,4,0,1,3,1,0,240,59,1,239,,,,,,,,,,,,,,,,,,
,,0,29,,,,,,,1,1,4,stim/14.jpeg,Instruments,2,stim/objects/Instruments/banjo.png,0.5,2,0.2,0.15,right,35,2020-12-07_19h59.16.974,premup-three_ses-01_part-01_label-phase1,3.2.4,Win32,60,left,0.94900012,4,0,4,0,1,3,1,0,240,35,1,239,,,,,,,,,,,,,,,,,,
,,1,30,,,,,,,2,3,2,stim/32.jpeg,Instruments,2,stim/objects/Instruments/cornet.png,0.7,1,-0.2,0.15,right,35,2020-12-07_19h59.16.974,premup-three_ses-01_part-01_label-phase1,3.2.4,Win32,60,right,0.794999838,4,0,4,0,1,3,1,0,240,93,1,239,,,,,,,,,,,,,,,,,,
,,1,31,,,,,,,2,3,1,stim/31.jpeg,Instruments,2,stim/objects/Instruments/clarinet.png,0.7,1,-0.2,0.15,right,35,2020-12-07_19h59.16.974,premup-three_ses-01_part-01_label-phase1,3.2.4,Win32,60,right,0.612999916,4,0,4,0,1,3,1,0,240,100,1,239,,,,,,,,,,,,,,,,,,
,,1,32,,,,,,,1,2,4,stim/24.jpeg,HouseObjects,1,stim/objects/HouseObjects/broom.png,0.5,4,0.2,-0.15,left,35,2020-12-07_19h59.16.974,premup-three_ses-01_part-01_label-phase1,3.2.4,Win32,60,left,1.127000093,4,0,4,0,1,3,1,0,240,43,1,239,,,,,,,,,,,,,,,,,,
,,0,33,,,,,,,3,5,1,stim/51.jpeg,Instruments,2,stim/objects/Instruments/bassdrum2.png,0.9,4,0.2,-0.15,right,35,2020-12-07_19h59.16.974,premup-three_ses-01_part-01_label-phase1,3.2.4,Win32,60,left,0.773999929,4,0,4,0,1,3,1,0,240,164,1,239,,,,,,,,,,,,,,,,,,
,,1,34,,,,,,,2,4,3,stim/43.jpeg,Instruments,2,stim/objects/Instruments/balalaika2.png,0.3,1,-0.2,0.15,right,35,2020-12-07_19h59.16.974,premup-three_ses-01_part-01_label-phase1,3.2.4,Win32,60,right,0.83100009,4,0,4,0,1,3,1,0,240,154,1,239,,,,,,,,,,,,,,,,,,
,,0,35,,,,,,,2,3,1,stim/31.jpeg,HouseObjects,1,stim/objects/HouseObjects/bucket.png,0.3,3,-0.2,-0.15,left,35,2020-12-07_19h59.16.974,premup-three_ses-01_part-01_label-phase1,3.2.4,Win32,60,right,0.618000031,4,0,4,0,1,3,1,0,240,80,1,239,,,,,,,,,,,,,,,,,,
,,1,36,,,,,,,2,3,1,stim/31.jpeg,Instruments,2,stim/objects/Instruments/clarinet.png,0.7,3,-0.2,-0.15,right,35,2020-12-07_19h59.16.974,premup-three_ses-01_part-01_label-phase1,3.2.4,Win32,60,right,0.823000193,4,0,4,0,1,3,1,0,240,112,1,239,,,,,,,,,,,,,,,,,,
,,0,37,,,,,,,1,1,1,stim/11.jpeg,HouseObjects,1,stim/objects/HouseObjects/ashtray.png,0.5,4,0.2,-0.15,left,35,2020-12-07_19h59.16.974,premup-three_ses-01_part-01_label-phase1,3.2.4,Win32,60,right,0.820999861,4,0,4,0,1,3,1,0,240,12,1,239,,,,,,,,,,,,,,,,,,
,,0,38,,,,,,,2,3,1,stim/31.jpeg,HouseObjects,1,stim/objects/HouseObjects/bucket.png,0.3,1,-0.2,0.15,left,35,2020-12-07_19h59.16.974,premup-three_ses-01_part-01_label-phase1,3.2.4,Win32,60,right,0.64199996,4,0,4,0,1,3,1,0,240,88,1,239,,,,,,,,,,,,,,,,,,
,,1,39,,,,,,,2,3,3,stim/33.jpeg,Instruments,2,stim/objects/Instruments/cymbal.png,0.7,2,0.2,0.15,right,35,2020-12-07_19h59.16.974,premup-three_ses-01_part-01_label-phase1,3.2.4,Win32,60,right,0.948000193,4,0,4,0,1,3,1,0,240,106,1,239,,,,,,,,,,,,,,,,,,
,,1,40,,,,,,,3,5,4,stim/54.jpeg,Instruments,2,stim/objects/Instruments/chime2.png,0.9,3,-0.2,-0.15,right,35,2020-12-07_19h59.16.974,premup-three_ses-01_part-01_label-phase1,3.2.4,Win32,60,right,0.724000216,4,0,4,0,1,3,1,0,240,199,1,239,,,,,,,,,,,,,,,,,,
,,1,41,,,,,,,1,2,4,stim/24.jpeg,HouseObjects,1,stim/objects/HouseObjects/broom.png,0.5,4,0.2,-0.15,left,35,2020-12-07_19h59.16.974,premup-three_ses-01_part-01_label-phase1,3.2.4,Win32,60,left,0.68599987,4,0,4,0,1,3,1,0,240,51,1,239,,,,,,,,,,,,,,,,,,
,,1,42,,,,,,,3,6,1,stim/61.jpeg,HouseObjects,1,stim/objects/HouseObjects/bucket2.png,0.9,3,-0.2,-0.15,left,35,2020-12-07_19h59.16.974,premup-three_ses-01_part-01_label-phase1,3.2.4,Win32,60,left,0.838999987,4,0,4,0,1,3,1,0,240,220,1,239,,,,,,,,,,,,,,,,,,
,,1,43,,,,,,,2,4,4,stim/44.jpeg,HouseObjects,1,stim/objects/HouseObjects/basket2.png,0.7,3,-0.2,-0.15,left,35,2020-12-07_19h59.16.974,premup-three_ses-01_part-01_label-phase1,3.2.4,Win32,60,left,0.890000105,4,0,4,0,1,3,1,0,240,127,1,239,,,,,,,,,,,,,,,,,,
,,1,44,,,,,,,2,4,4,stim/44.jpeg,HouseObjects,1,stim/objects/HouseObjects/basket2.png,0.7,4,0.2,-0.15,left,35,2020-12-07_19h59.16.974,premup-three_ses-01_part-01_label-phase1,3.2.4,Win32,60,left,0.72300005,4,0,4,0,1,3,1,0,240,135,1,239,,,,,,,,,,,,,,,,,,
,,1,45,,,,,,,3,5,2,stim/52.jpeg,Instruments,2,stim/objects/Instruments/bassguitar2.png,0.9,3,-0.2,-0.15,right,35,2020-12-07_19h59.16.974,premup-three_ses-01_part-01_label-phase1,3.2.4,Win32,60,right,0.65899992,4,0,4,0,1,3,1,0,240,193,1,239,,,,,,,,,,,,,,,,,,
,,1,46,,,,,,,2,3,3,stim/33.jpeg,Instruments,2,stim/objects/Instruments/cymbal.png,0.7,1,-0.2,0.15,right,35,2020-12-07_19h59.16.974,premup-three_ses-01_part-01_label-phase1,3.2.4,Win32,60,right,0.77699995,4,0,4,0,1,3,1,0,240,114,1,239,,,,,,,,,,,,,,,,,,
,,1,47,,,,,,,3,6,2,stim/62.jpeg,HouseObjects,1,stim/objects/HouseObjects/clock2.png,0.9,2,0.2,0.15,left,35,2020-12-07_19h59.16.974,premup-three_ses-01_part-01_label-phase1,3.2.4,Win32,60,left,0.721999884,4,0,4,0,1,3,1,0,240,221,1,239,,,,,,,,,,,,,,,,,,
,,0,48,,,,,,,1,2,2,stim/22.jpeg,Instruments,2,stim/objects/Instruments/bassguitar.png,0.5,1,-0.2,0.15,right,35,2020-12-07_19h59.16.974,premup-three_ses-01_part-01_label-phase1,3.2.4,Win32,60,left,0.819000006,4,0,4,0,1,3,1,0,240,69,1,239,,,,,,,,,,,,,,,,,,
,,1,49,,,,,,,3,5,1,stim/51.jpeg,Instruments,2,stim/objects/Instruments/bassdrum2.png,0.9,1,-0.2,0.15,right,35,2020-12-07_19h59.16.974,premup-three_ses-01_part-01_label-phase1,3.2.4,Win32,60,right,0.545000076,4,0,4,0,1,3,1,0,240,184,1,239,,,,,,,,,,,,,,,,,,
,,0,50,,,,,,,2,4,3,stim/43.jpeg,Instruments,2,stim/objects/Instruments/balalaika2.png,0.3,3,-0.2,-0.15,right,35,2020-12-07_19h59.16.974,premup-three_ses-01_part-01_label-phase1,3.2.4,Win32,60,left,0.608999968,4,0,4,0,1,3,1,0,240,150,1,239,,,,,,,,,,,,,,,,,,
,,0,51,,,,,,,1,1,1,stim/11.jpeg,Instruments,2,stim/objects/Instruments/accordion.png,0.5,3,-0.2,-0.15,right,35,2020-12-07_19h59.16.974,premup-three_ses-01_part-01_label-phase1,3.2.4,Win32,60,left,0.970999956,4,0,4,0,1,3,1,0,240,36,1,239,,,,,,,,,,,,,,,,,,
,,0,52,,,,,,,1,1,1,stim/11.jpeg,Instruments,2,stim/objects/Instruments/accordion.png,0.5,2,0.2,0.15,right,35,2020-12-07_19h59.16.974,premup-three_ses-01_part-01_label-phase1,3.2.4,Win32,60,left,0.578999996,4,0,4,0,1,3,1,0,240,32,1,239,,,,,,,,,,,,,,,,,,
,,0,53,,,,,,,2,3,2,stim/32.jpeg,HouseObjects,1,stim/objects/HouseObjects/clock.png,0.3,4,0.2,-0.15,left,35,2020-12-07_19h59.16.974,premup-three_ses-01_part-01_label-phase1,3.2.4,Win32,60,right,0.758999825,4,0,4,0,1,3,1,0,240,89,1,239,,,,,,,,,,,,,,,,,,
,,1,54,,,,,,,3,5,2,stim/52.jpeg,Instruments,2,stim/objects/Instruments/bassguitar2.png,0.9,1,-0.2,0.15,right,35,2020-12-07_19h59.16.974,premup-three_ses-01_part-01_label-phase1,3.2.4,Win32,60,right,0.607000113,4,0,4,0,1,3,1,0,240,181,1,239,,,,,,,,,,,,,,,,,,
,,1,55,,,,,,,1,1,4,stim/14.jpeg,HouseObjects,1,stim/objects/HouseObjects/basket.png,0.5,3,-0.2,-0.15,left,35,2020-12-07_19h59.16.974,premup-three_ses-01_part-01_label-phase1,3.2.4,Win32,60,left,0.627000093,4,0,4,0,1,3,1,0,240,11,1,239,,,,,,,,,,,,,,,,,,
,,1,56,,,,,,,1,2,1,stim/21.jpeg,Instruments,2,stim/objects/Instruments/bassdrum.png,0.5,1,-0.2,0.15,right,35,2020-12-07_19h59.16.974,premup-three_ses-01_part-01_label-phase1,3.2.4,Win32,60,right,0.868999958,4,0,4,0,1,3,1,0,240,64,1,239,,,,,,,,,,,,,,,,,,
,,0,57,,,,,,,1,2,4,stim/24.jpeg,HouseObjects,1,stim/objects/HouseObjects/broom.png,0.5,3,-0.2,-0.15,left,35,2020-12-07_19h59.16.974,premup-three_ses-01_part-01_label-phase1,3.2.4,Win32,60,right,0.593999863,4,0,4,0,1,3,1,0,240,47,1,239,,,,,,,,,,,,,,,,,,
,,0,58,,,,,,,3,5,3,stim/53.jpeg,HouseObjects,1,stim/objects/HouseObjects/bottle2.png,0.1,2,0.2,0.15,left,35,2020-12-07_19h59.16.974,premup-three_ses-01_part-01_label-phase1,3.2.4,Win32,60,right,0.588000059,4,0,4,0,1,3,1,0,240,162,1,239,,,,,,,,,,,,,,,,,,
,,0,59,,,,,,,2,3,3,stim/33.jpeg,HouseObjects,1,stim/objects/HouseObjects/clothesdryingrack.png,0.3,1,-0.2,0.15,left,35,2020-12-07_19h59.16.974,premup-three_ses-01_part-01_label-phase1,3.2.4,Win32,60,right,0.623000145,4,0,4,0,1,3,1,0,240,86,1,239,,,,,,,,,,,,,,,,,,
,,0,60,,,,,,,3,5,1,stim/51.jpeg,HouseObjects,1,stim/objects/HouseObjects/bleachbottle2.png,0.1,1,-0.2,0.15,left,35,2020-12-07_19h59.16.974,premup-three_ses-01_part-01_label-phase1,3.2.4,Win32,60,right,0.576999903,4,0,4,0,1,3,1,0,240,160,1,239,,,,,,,,,,,,,,,,,,
,,0,61,,,,,,,2,3,4,stim/34.jpeg,HouseObjects,1,stim/objects/HouseObjects/clothespin.png,0.3,1,-0.2,0.15,left,35,2020-12-07_19h59.16.974,premup-three_ses-01_part-01_label-phase1,3.2.4,Win32,60,right,0.641000032,4,0,4,0,1,3,1,0,240,87,1,239,,,,,,,,,,,,,,,,,,
,,1,62,,,,,,,3,5,2,stim/52.jpeg,Instruments,2,stim/objects/Instruments/bassguitar2.png,0.9,2,0.2,0.15,right,35,2020-12-07_19h59.16.974,premup-three_ses-01_part-01_label-phase1,3.2.4,Win32,60,right,0.708999872,4,0,4,0,1,3,1,0,240,197,1,239,,,,,,,,,,,,,,,,,,
,,1,63,,,,,,,1,1,3,stim/13.jpeg,HouseObjects,1,stim/objects/HouseObjects/barbecuelighter.png,0.5,4,0.2,-0.15,left,35,2020-12-07_19h59.16.974,premup-three_ses-01_part-01_label-phase1,3.2.4,Win32,60,left,0.649000168,4,0,4,0,1,3,1,0,240,10,1,239,,,,,,,,,,,,,,,,,,
,,0,64,,,,,,,1,1,3,stim/13.jpeg,Instruments,2,stim/objects/Instruments/balalaika.png,0.5,4,0.2,-0.15,right,35,2020-12-07_19h59.16.974,premup-three_ses-01_part-01_label-phase1,3.2.4,Win32,60,left,0.703999996,4,0,4,0,1,3,1,0,240,34,1,239,,,,,,,,,,,,,,,,,,
,,1,65,,,,,,,3,6,1,stim/61.jpeg,HouseObjects,1,stim/objects/HouseObjects/bucket2.png,0.9,2,0.2,0.15,left,35,2020-12-07_19h59.16.974,premup-three_ses-01_part-01_label-phase1,3.2.4,Win32,60,left,0.567000151,4,0,4,0,1,3,1,0,240,224,1,239,,,,,,,,,,,,,,,,,,
,,1,66,,,,,,,3,5,3,stim/53.jpeg,Instruments,2,stim/objects/Instruments/cello2.png,0.9,4,0.2,-0.15,right,35,2020-12-07_19h59.16.974,premup-three_ses-01_part-01_label-phase1,3.2.4,Win32,60,right,0.619000196,4,0,4,0,1,3,1,0,240,194,1,239,,,,,,,,,,,,,,,,,,
,,0,67,,,,,,,1,1,3,stim/13.jpeg,Instruments,2,stim/objects/Instruments/balalaika.png,0.5,4,0.2,-0.15,right,35,2020-12-07_19h59.16.974,premup-three_ses-01_part-01_label-phase1,3.2.4,Win32,60,left,0.694999933,4,0,4,0,1,3,1,0,240,26,1,239,,,,,,,,,,,,,,,,,,
,,1,68,,,,,,,2,4,2,stim/42.jpeg,HouseObjects,1,stim/objects/HouseObjects/ballofstring2.png,0.7,4,0.2,-0.15,left,35,2020-12-07_19h59.16.974,premup-three_ses-01_part-01_label-phase1,3.2.4,Win32,60,left,0.558000088,4,0,4,0,1,3,1,0,240,125,1,239,,,,,,,,,,,,,,,,,,
,,0,69,,,,,,,1,2,4,stim/24.jpeg,Instruments,2,stim/objects/Instruments/chime.png,0.5,1,-0.2,0.15,right,35,2020-12-07_19h59.16.974,premup-three_ses-01_part-01_label-phase1,3.2.4,Win32,60,left,0.742999792,4,0,4,0,1,3,1,0,240,71,1,239,,,,,,,,,,,,,,,,,,
,,0,70,,,,,,,2,3,3,stim/33.jpeg,HouseObjects,1,stim/objects/HouseObjects/clothesdryingrack.png,0.3,4,0.2,-0.15,left,35,2020-12-07_19h59.16.974,premup-three_ses-01_part-01_label-phase1,3.2.4,Win32,60,right,0.937000036,4,0,4,0,1,3,1,0,240,82,1,239,,,,,,,,,,,,,,,,,,
,,1,71,,,,,,,3,5,4,stim/54.jpeg,Instruments,2,stim/objects/Instruments/chime2.png,0.9,3,-0.2,-0.15,right,35,2020-12-07_19h59.16.974,premup-three_ses-01_part-01_label-phase1,3.2.4,Win32,60,right,0.56400013,4,0,4,0,1,3,1,0,240,183,1,239,,,,,,,,,,,,,,,,,,
,,1,72,,,,,,,1,2,2,stim/22.jpeg,Instruments,2,stim/objects/Instruments/bassguitar.png,0.5,1,-0.2,0.15,right,35,2020-12-07_19h59.16.974,premup-three_ses-01_part-01_label-phase1,3.2.4,Win32,60,right,0.837000132,4,0,4,0,1,3,1,0,240,61,1,239,,,,,,,,,,,,,,,,,,
,,1,73,,,,,,,2,4,2,stim/42.jpeg,HouseObjects,1,stim/objects/HouseObjects/ballofstring2.png,0.7,3,-0.2,-0.15,left,35,2020-12-07_19h59.16.974,premup-three_ses-01_part-01_label-phase1,3.2.4,Win32,60,left,1.009000063,4,0,4,0,1,3,1,0,240,145,1,239,,,,,,,,,,,,,,,,,,
,,1,74,,,,,,,1,2,1,stim/21.jpeg,HouseObjects,1,stim/objects/HouseObjects/bleachbottle.png,0.5,3,-0.2,-0.15,left,35,2020-12-07_19h59.16.974,premup-three_ses-01_part-01_label-phase1,3.2.4,Win32,60,left,0.944999933,4,0,4,0,1,3,1,0,240,56,1,239,,,,,,,,,,,,,,,,,,
,,1,75,,,,,,,3,6,2,stim/62.jpeg,HouseObjects,1,stim/objects/HouseObjects/clock2.png,0.9,4,0.2,-0.15,left,35,2020-12-07_19h59.16.974,premup-three_ses-01_part-01_label-phase1,3.2.4,Win32,60,left,0.59100008,4,0,4,0,1,3,1,0,240,201,1,239,,,,,,,,,,,,,,,,,,
,,1,76,,,,,,,2,3,2,stim/32.jpeg,Instruments,2,stim/objects/Instruments/cornet.png,0.7,2,0.2,0.15,right,35,2020-12-07_19h59.16.974,premup-three_ses-01_part-01_label-phase1,3.2.4,Win32,60,right,0.731999874,4,0,4,0,1,3,1,0,240,101,1,239,,,,,,,,,,,,,,,,,,
,,1,77,,,,,,,1,1,2,stim/12.jpeg,Instruments,2,stim/objects/Instruments/acousticguitar.png,0.5,4,0.2,-0.15,right,35,2020-12-07_19h59.16.974,premup-three_ses-01_part-01_label-phase1,3.2.4,Win32,60,right,1.003999949,4,0,4,0,1,3,1,0,240,37,1,239,,,,,,,,,,,,,,,,,,
,,1,78,,,,,,,2,4,4,stim/44.jpeg,HouseObjects,1,stim/objects/HouseObjects/basket2.png,0.7,3,-0.2,-0.15,left,35,2020-12-07_19h59.16.974,premup-three_ses-01_part-01_label-phase1,3.2.4,Win32,60,left,1.017000198,4,0,4,0,1,3,1,0,240,131,1,239,,,,,,,,,,,,,,,,,,
,,1,79,,,,,,,2,3,3,stim/33.jpeg,Instruments,2,stim/objects/Instruments/cymbal.png,0.7,2,0.2,0.15,right,35,2020-12-07_19h59.16.974,premup-three_ses-01_part-01_label-phase1,3.2.4,Win32,60,right,0.846999884,4,0,4,0,1,3,1,0,240,110,1,239,,,,,,,,,,,,,,,,,,
,,0,80,,,,,,,2,4,2,stim/42.jpeg,Instruments,2,stim/objects/Instruments/acousticguitar2.png,0.3,4,0.2,-0.15,right,35,2020-12-07_19h59.16.974,premup-three_ses-01_part-01_label-phase1,3.2.4,Win32,60,left,1.075999975,4,0,4,0,1,3,1,0,240,149,1,239,,,,,,,,,,,,,,,,,,
,,0,81,,,,,,,1,1,3,stim/13.jpeg,Instruments,2,stim/objects/Instruments/balalaika.png,0.5,2,0.2,0.15,right,35,2020-12-07_19h59.16.974,premup-three_ses-01_part-01_label-phase1,3.2.4,Win32,60,left,0.621000051,4,0,4,0,1,3,1,0,240,22,1,239,,,,,,,,,,,,,,,,,,
,,1,82,,,,,,,2,4,4,stim/44.jpeg,HouseObjects,1,stim/objects/HouseObjects/basket2.png,0.7,2,0.2,0.15,left,35,2020-12-07_19h59.16.974,premup-three_ses-01_part-01_label-phase1,3.2.4,Win32,60,left,0.861999989,4,0,4,0,1,3,1,0,240,139,1,239,,,,,,,,,,,,,,,,,,
,,0,83,,,,,,,2,3,1,stim/31.jpeg,HouseObjects,1,stim/objects/HouseObjects/bucket.png,0.3,2,0.2,0.15,left,35,2020-12-07_19h59.16.974,premup-three_ses-01_part-01_label-phase1,3.2.4,Win32,60,right,0.696999788,4,0,4,0,1,3,1,0,240,84,1,239,,,,,,,,,,,,,,,,,,
,,1,84,,,,,,,1,1,1,stim/11.jpeg,HouseObjects,1,stim/objects/HouseObjects/ashtray.png,0.5,2,0.2,0.15,left,35,2020-12-07_19h59.16.974,premup-three_ses-01_part-01_label-phase1,3.2.4,Win32,60,left,0.55700016,4,0,4,0,1,3,1,0,240,8,1,239,,,,,,,,,,,,,,,,,,
,,1,85,,,,,,,3,6,2,stim/62.jpeg,HouseObjects,1,stim/objects/HouseObjects/clock2.png,0.9,4,0.2,-0.15,left,35,2020-12-07_19h59.16.974,premup-three_ses-01_part-01_label-phase1,3.2.4,Win32,60,left,0.542999983,4,0,4,0,1,3,1,0,240,225,1,239,,,,,,,,,,,,,,,,,,
,,0,86,,,,,,,3,6,1,stim/61.jpeg,Instruments,2,stim/objects/Instruments/clarinet2.png,0.1,4,0.2,-0.15,right,35,2020-12-07_19h59.16.974,premup-three_ses-01_part-01_label-phase1,3.2.4,Win32,60,left,0.427999973,4,0,4,0,1,3,1,0,240,236,1,239,,,,,,,,,,,,,,,,,,
,,0,87,,,,,,,1,2,3,stim/23.jpeg,HouseObjects,1,stim/objects/HouseObjects/bottle.png,0.5,1,-0.2,0.15,left,35,2020-12-07_19h59.16.974,premup-three_ses-01_part-01_label-phase1,3.2.4,Win32,60,right,0.590999842,4,0,4,0,1,3,1,0,240,58,1,239,,,,,,,,,,,,,,,,,,
,,1,88,,,,,,,2,4,1,stim/41.jpeg,HouseObjects,1,stim/objects/HouseObjects/ashtray2.png,0.7,4,0.2,-0.15,left,35,2020-12-07_19h59.16.974,premup-three_ses-01_part-01_label-phase1,3.2.4,Win32,60,left,0.566999912,4,0,4,0,1,3,1,0,240,144,1,239,,,,,,,,,,,,,,,,,,
,,1,89,,,,,,,1,1,4,stim/14.jpeg,HouseObjects,1,stim/objects/HouseObjects/basket.png,0.5,4,0.2,-0.15,left,35,2020-12-07_19h59.16.974,premup-three_ses-01_part-01_label-phase1,3.2.4,Win32,60,left,0.610999823,4,0,4,0,1,3,1,0,240,3,1,239,,,,,,,,,,,,,,,,,,
,,0,90,,,,,,,2,4,1,stim/41.jpeg,Instruments,2,stim/objects/Instruments/accordion2.png,0.3,2,0.2,0.15,right,35,2020-12-07_19h59.16.974,premup-three_ses-01_part-01_label-phase1,3.2.4,Win32,60,left,0.463999987,4,0,4,0,1,3,1,0,240,148,1,239,,,,,,,,,,,,,,,,,,
,,0,91,,,,,,,3,5,4,stim/54.jpeg,HouseObjects,1,stim/objects/HouseObjects/broom2.png,0.1,4,0.2,-0.15,left,35,2020-12-07_19h59.16.974,premup-three_ses-01_part-01_label-phase1,3.2.4,Win32,60,right,1.140000105,4,0,4,0,1,3,1,0,240,163,1,239,,,,,,,,,,,,,,,,,,
,,1,92,,,,,,,3,6,1,stim/61.jpeg,HouseObjects,1,stim/objects/HouseObjects/bucket2.png,0.9,2,0.2,0.15,left,35,2020-12-07_19h59.16.974,premup-three_ses-01_part-01_label-phase1,3.2.4,Win32,60,left,0.609999895,4,0,4,0,1,3,1,0,240,200,1,239,,,,,,,,,,,,,,,,,,
,,0,93,,,,,,,3,5,1,stim/51.jpeg,Instruments,2,stim/objects/Instruments/bassdrum2.png,0.9,4,0.2,-0.15,right,35,2020-12-07_19h59.16.974,premup-three_ses-01_part-01_label-phase1,3.2.4,Win32,60,left,0.393000126,4,0,4,0,1,3,1,0,240,176,1,239,,,,,,,,,,,,,,,,,,
,,1,94,,,,,,,2,4,3,stim/43.jpeg,HouseObjects,1,stim/objects/HouseObjects/barbecuelighter2.png,0.7,2,0.2,0.15,left,35,2020-12-07_19h59.16.974,premup-three_ses-01_part-01_label-phase1,3.2.4,Win32,60,left,0.83100009,4,0,4,0,1,3,1,0,240,126,1,239,,,,,,,,,,,,,,,,,,
,,0,95,,,,,,,2,3,4,stim/34.jpeg,Instruments,2,stim/objects/Instruments/doublebass.png,0.7,1,-0.2,0.15,right,35,2020-12-07_19h59.16.974,premup-three_ses-01_part-01_label-phase1,3.2.4,Win32,60,left,0.611999989,4,0,4,0,1,3,1,0,240,95,1,239,,,,,,,,,,,,,,,,,,
,,0,96,,,,,,,2,3,4,stim/34.jpeg,Instruments,2,stim/objects/Instruments/doublebass.png,0.7,4,0.2,-0.15,right,35,2020-12-07_19h59.16.974,premup-three_ses-01_part-01_label-phase1,3.2.4,Win32,60,left,0.649999857,4,0,4,0,1,3,1,0,240,119,1,239,,,,,,,,,,,,,,,,,,
,,1,97,,,,,,,3,5,4,stim/54.jpeg,Instruments,2,stim/objects/Instruments/chime2.png,0.9,1,-0.2,0.15,right,35,2020-12-07_19h59.16.974,premup-three_ses-01_part-01_label-phase1,3.2.4,Win32,60,right,0.595000029,4,0,4,0,1,3,1,0,240,175,1,239,,,,,,,,,,,,,,,,,,
,,0,98,,,,,,,1,1,3,stim/13.jpeg,HouseObjects,1,stim/objects/HouseObjects/barbecuelighter.png,0.5,3,-0.2,-0.15,left,35,2020-12-07_19h59.16.974,premup-three_ses-01_part-01_label-phase1,3.2.4,Win32,60,right,0.556999922,4,0,4,0,1,3,1,0,240,18,1,239,,,,,,,,,,,,,,,,,,
,,1,99,,,,,,,1,2,4,stim/24.jpeg,Instruments,2,stim/objects/Instruments/chime.png,0.5,1,-0.2,0.15,right,35,2020-12-07_19h59.16.974,premup-three_ses-01_part-01_label-phase1,3.2.4,Win32,60,right,0.805000067,4,0,4,0,1,3,1,0,240,79,1,239,,,,,,,,,,,,,,,,,,
,,0,100,,,,,,,3,5,4,stim/54.jpeg,Instruments,2,stim/objects/Instruments/chime2.png,0.9,2,0.2,0.15,right,35,2020-12-07_19h59.16.974,premup-three_ses-01_part-01_label-phase1,3.2.4,Win32,60,left,0.917999983,4,0,4,0,1,3,1,0,240,187,1,239,,,,,,,,,,,,,,,,,,
,,1,101,,,,,,,3,6,2,stim/62.jpeg,HouseObjects,1,stim/objects/HouseObjects/clock2.png,0.9,1,-0.2,0.15,left,35,2020-12-07_19h59.16.974,premup-three_ses-01_part-01_label-phase1,3.2.4,Win32,60,left,0.610999823,4,0,4,0,1,3,1,0,240,209,1,239,,,,,,,,,,,,,,,,,,
,,1,102,,,,,,,3,6,3,stim/63.jpeg,HouseObjects,1,stim/objects/HouseObjects/clothesdryingrack2.png,0.9,2,0.2,0.15,left,35,2020-12-07_19h59.16.974,premup-three_ses-01_part-01_label-phase1,3.2.4,Win32,60,left,0.680999994,4,0,4,0,1,3,1,0,240,206,1,239,,,,,,,,,,,,,,,,,,
,,0,103,,,,,,,2,3,4,stim/34.jpeg,Instruments,2,stim/objects/Instruments/doublebass.png,0.7,4,0.2,-0.15,right,35,2020-12-07_19h59.16.974,premup-three_ses-01_part-01_label-phase1,3.2.4,Win32,60,left,0.629999876,4,0,4,0,1,3,1,0,240,99,1,239,,,,,,,,,,,,,,,,,,
,,0,104,,,,,,,1,2,4,stim/24.jpeg,Instruments,2,stim/objects/Instruments/chime.png,0.5,4,0.2,-0.15,right,35,2020-12-07_19h59.16.974,premup-three_ses-01_part-01_label-phase1,3.2.4,Win32,60,left,0.751000166,4,0,4,0,1,3,1,0,240,63,1,239,,,,,,,,,,,,,,,,,,
,,0,105,,,,,,,3,6,3,stim/63.jpeg,Instruments,2,stim/objects/Instruments/cymbal2.png,0.1,4,0.2,-0.15,right,35,2020-12-07_19h59.16.974,premup-three_ses-01_part-01_label-phase1,3.2.4,Win32,60,left,0.529999971,4,0,4,0,1,3,1,0,240,238,1,239,,,,,,,,,,,,,,,,,,
,,1,106,,,,,,,3,6,4,stim/64.jpeg,HouseObjects,1,stim/objects/HouseObjects/clothespin2.png,0.9,4,0.2,-0.15,left,35,2020-12-07_19h59.16.974,premup-three_ses-01_part-01_label-phase1,3.2.4,Win32,60,left,0.605999947,4,0,4,0,1,3,1,0,240,227,1,239,,,,,,,,,,,,,,,,,,
,,1,107,,,,,,,3,6,3,stim/63.jpeg,HouseObjects,1,stim/objects/HouseObjects/clothesdryingrack2.png,0.9,3,-0.2,-0.15,left,35,2020-12-07_19h59.16.974,premup-three_ses-01_part-01_label-phase1,3.2.4,Win32,60,left,1,4,0,4,0,1,3,1,0,240,230,1,239,,,,,,,,,,,,,,,,,,
,,1,108,,,,,,,2,4,1,stim/41.jpeg,Instruments,2,stim/objects/Instruments/accordion2.png,0.3,3,-0.2,-0.15,right,35,2020-12-07_19h59.16.974,premup-three_ses-01_part-01_label-phase1,3.2.4,Win32,60,right,1.22300005,4,0,4,0,1,3,1,0,240,152,1,239,,,,,,,,,,,,,,,,,,
,,0,109,,,,,,,1,2,3,stim/23.jpeg,HouseObjects,1,stim/objects/HouseObjects/bottle.png,0.5,1,-0.2,0.15,left,35,2020-12-07_19h59.16.974,premup-three_ses-01_part-01_label-phase1,3.2.4,Win32,60,right,0.951000214,4,0,4,0,1,3,1,0,240,46,1,239,,,,,,,,,,,,,,,,,,
,,0,110,,,,,,,3,6,2,stim/62.jpeg,Instruments,2,stim/objects/Instruments/cornet2.png,0.1,1,-0.2,0.15,right,35,2020-12-07_19h59.16.974,premup-three_ses-01_part-01_label-phase1,3.2.4,Win32,60,left,0.711999893,4,0,4,0,1,3,1,0,240,237,1,239,,,,,,,,,,,,,,,,,,
,,0,111,,,,,,,1,1,1,stim/11.jpeg,Instruments,2,stim/objects/Instruments/accordion.png,0.5,3,-0.2,-0.15,right,35,2020-12-07_19h59.16.974,premup-three_ses-01_part-01_label-phase1,3.2.4,Win32,60,left,0.700999975,4,0,4,0,1,3,1,0,240,20,1,239,,,,,,,,,,,,,,,,,,
,,1,112,,,,,,,3,5,4,stim/54.jpeg,Instruments,2,stim/objects/Instruments/chime2.png,0.9,4,0.2,-0.15,right,35,2020-12-07_19h59.16.974,premup-three_ses-01_part-01_label-phase1,3.2.4,Win32,60,right,0.736000061,4,0,4,0,1,3,1,0,240,167,1,239,,,,,,,,,,,,,,,,,,
,,1,113,,,,,,,1,2,3,stim/23.jpeg,HouseObjects,1,stim/objects/HouseObjects/bottle.png,0.5,3,-0.2,-0.15,left,35,2020-12-07_19h59.16.974,premup-three_ses-01_part-01_label-phase1,3.2.4,Win32,60,left,0.893999815,4,0,4,0,1,3,1,0,240,50,1,239,,,,,,,,,,,,,,,,,,
,,1,114,,,,,,,1,2,3,stim/23.jpeg,HouseObjects,1,stim/objects/HouseObjects/bottle.png,0.5,2,0.2,0.15,left,35,2020-12-07_19h59.16.974,premup-three_ses-01_part-01_label-phase1,3.2.4,Win32,60,left,0.642000198,4,0,4,0,1,3,1,0,240,54,1,239,,,,,,,,,,,,,,,,,,
,,0,115,,,,,,,3,5,2,stim/52.jpeg,HouseObjects,1,stim/objects/HouseObjects/blender2.png,0.1,3,-0.2,-0.15,left,35,2020-12-07_19h59.16.974,premup-three_ses-01_part-01_label-phase1,3.2.4,Win32,60,right,0.726000071,4,0,4,0,1,3,1,0,240,161,1,239,,,,,,,,,,,,,,,,,,
,,0,116,,,,,,,3,6,3,stim/63.jpeg,HouseObjects,1,stim/objects/HouseObjects/clothesdryingrack2.png,0.9,4,0.2,-0.15,left,35,2020-12-07_19h59.16.974,premup-three_ses-01_part-01_label-phase1,3.2.4,Win32,60,right,0.712000132,4,0,4,0,1,3,1,0,240,214,1,239,,,,,,,,,,,,,,,,,,
,,0,117,,,,,,,1,2,1,stim/21.jpeg,Instruments,2,stim/objects/Instruments/bassdrum.png,0.5,4,0.2,-0.15,right,35,2020-12-07_19h59.16.974,premup-three_ses-01_part-01_label-phase1,3.2.4,Win32,60,left,1.057999849,4,0,4,0,1,3,1,0,240,68,1,239,,,,,,,,,,,,,,,,,,
,,1,118,,,,,,,3,6,3,stim/63.jpeg,HouseObjects,1,stim/objects/HouseObjects/clothesdryingrack2.png,0.9,4,0.2,-0.15,left,35,2020-12-07_19h59.16.974,premup-three_ses-01_part-01_label-phase1,3.2.4,Win32,60,left,0.615999937,4,0,4,0,1,3,1,0,240,210,1,239,,,,,,,,,,,,,,,,,,
,,1,119,,,,,,,2,4,4,stim/44.jpeg,HouseObjects,1,stim/objects/HouseObjects/basket2.png,0.7,1,-0.2,0.15,left,35,2020-12-07_19h59.16.974,premup-three_ses-01_part-01_label-phase1,3.2.4,Win32,60,left,0.848999977,4,0,4,0,1,3,1,0,240,123,1,239,,,,,,,,,,,,,,,,,,
,,1,120,,,,,,,1,1,1,stim/11.jpeg,Instruments,2,stim/objects/Instruments/accordion.png,0.5,4,0.2,-0.15,right,35,2020-12-07_19h59.16.974,premup-three_ses-01_part-01_label-phase1,3.2.4,Win32,60,right,0.843999863,4,0,4,0,1,3,1,0,240,24,1,239,,,,,,,,,,,,,,,,,,
,,0,121,,,,,,,1,2,1,stim/21.jpeg,HouseObjects,1,stim/objects/HouseObjects/bleachbottle.png,0.5,1,-0.2,0.15,left,35,2020-12-07_19h59.16.974,premup-three_ses-01_part-01_label-phase1,3.2.4,Win32,60,right,0.792999983,4,0,4,0,1,3,1,0,240,40,1,239,,,,,,,,,,,,,,,,,,
,,1,122,,,,,,,1,1,2,stim/12.jpeg,Instruments,2,stim/objects/Instruments/acousticguitar.png,0.5,2,0.2,0.15,right,35,2020-12-07_19h59.16.974,premup-three_ses-01_part-01_label-phase1,3.2.4,Win32,60,right,0.885999918,4,0,4,0,1,3,1,0,240,21,1,239,,,,,,,,,,,,,,,,,,
,,0,123,,,,,,,2,4,2,stim/42.jpeg,HouseObjects,1,stim/objects/HouseObjects/ballofstring2.png,0.7,4,0.2,-0.15,left,35,2020-12-07_19h59.16.974,premup-three_ses-01_part-01_label-phase1,3.2.4,Win32,60,right,0.644000053,4,0,4,0,1,3,1,0,240,141,1,239,,,,,,,,,,,,,,,,,,
,,0,124,,,,,,,2,3,2,stim/32.jpeg,Instruments,2,stim/objects/Instruments/cornet.png,0.7,4,0.2,-0.15,right,35,2020-12-07_19h59.16.974,premup-three_ses-01_part-01_label-phase1,3.2.4,Win32,60,left,0.740999937,4,0,4,0,1,3,1,0,240,117,1,239,,,,,,,,,,,,,,,,,,
,,1,125,,,,,,,1,1,3,stim/13.jpeg,HouseObjects,1,stim/objects/HouseObjects/barbecuelighter.png,0.5,1,-0.2,0.15,left,35,2020-12-07_19h59.16.974,premup-three_ses-01_part-01_label-phase1,3.2.4,Win32,60,left,0.875999928,4,0,4,0,1,3,1,0,240,6,1,239,,,,,,,,,,,,,,,,,,
,,1,126,,,,,,,3,5,1,stim/51.jpeg,Instruments,2,stim/objects/Instruments/bassdrum2.png,0.9,3,-0.2,-0.15,right,35,2020-12-07_19h59.16.974,premup-three_ses-01_part-01_label-phase1,3.2.4,Win32,60,right,0.871000051,4,0,4,0,1,3,1,0,240,196,1,239,,,,,,,,,,,,,,,,,,
,,1,127,,,,,,,1,1,4,stim/14.jpeg,Instruments,2,stim/objects/Instruments/banjo.png,0.5,1,-0.2,0.15,right,35,2020-12-07_19h59.16.974,premup-three_ses-01_part-01_label-phase1,3.2.4,Win32,60,right,1.191999912,4,0,4,0,1,3,1,0,240,27,1,239,,,,,,,,,,,,,,,,,,
,,0,128,,,,,,,1,1,1,stim/11.jpeg,HouseObjects,1,stim/objects/HouseObjects/ashtray.png,0.5,4,0.2,-0.15,left,35,2020-12-07_19h59.16.974,premup-three_ses-01_part-01_label-phase1,3.2.4,Win32,60,right,1.15899992,4,0,4,0,1,3,1,0,240,16,1,239,,,,,,,,,,,,,,,,,,
,,1,129,,,,,,,3,6,4,stim/64.jpeg,HouseObjects,1,stim/objects/HouseObjects/clothespin2.png,0.9,3,-0.2,-0.15,left,35,2020-12-07_19h59.16.974,premup-three_ses-01_part-01_label-phase1,3.2.4,Win32,60,left,0.631999969,4,0,4,0,1,3,1,0,240,231,1,239,,,,,,,,,,,,,,,,,,
,,1,130,,,,,,,1,2,4,stim/24.jpeg,HouseObjects,1,stim/objects/HouseObjects/broom.png,0.5,4,0.2,-0.15,left,35,2020-12-07_19h59.16.974,premup-three_ses-01_part-01_label-phase1,3.2.4,Win32,60,left,0.563000202,4,0,4,0,1,3,1,0,240,55,1,239,,,,,,,,,,,,,,,,,,
,,1,131,,,,,,,2,4,1,stim/41.jpeg,HouseObjects,1,stim/objects/HouseObjects/ashtray2.png,0.7,2,0.2,0.15,left,35,2020-12-07_19h59.16.974,premup-three_ses-01_part-01_label-phase1,3.2.4,Win32,60,left,0.524999857,4,0,4,0,1,3,1,0,240,120,1,239,,,,,,,,,,,,,,,,,,
,,1,132,,,,,,,3,5,1,stim/51.jpeg,Instruments,2,stim/objects/Instruments/bassdrum2.png,0.9,1,-0.2,0.15,right,35,2020-12-07_19h59.16.974,premup-three_ses-01_part-01_label-phase1,3.2.4,Win32,60,right,0.523000002,4,0,4,0,1,3,1,0,240,168,1,239,,,,,,,,,,,,,,,,,,
