key_resp_trial.keys,key_resp_trial.rt,trial_acc,trial_index,iterations.thisRepN,iterations.thisTrialN,iterations.thisN,iterations.thisIndex,iterations.ran,iterations.order,task_innerloop.thisRepN,task_innerloop.thisTrialN,task_innerloop.thisN,task_innerloop.thisIndex,task_innerloop.ran,task_innerloop.order,scn_condition,scn_cat,scn_inst,scn_file,obj_cat,obj_cat_num,obj_file,trial_cond,quadrant,obj_x,obj_y,corr_ans,participant,date,expName,psychopyVersion,OS,frameRate,slider.response,slider.rt,slider_2.response,slider_2.rt,ratings.thisRepN,ratings.thisTrialN,ratings.thisN,ratings.thisIndex,ratings.ran,ratings.order,obj_cat_top,min_resp_top,max_resp_top,obj_cat_bottom,min_resp_bottom,max_resp_bottom,enc_trials.thisRepN,enc_trials.thisTrialN,enc_trials.thisN,enc_trials.thisIndex,enc_trials.ran,enc_trials.order,fillers,ratings_final.thisRepN,ratings_final.thisTrialN,ratings_final.thisN,ratings_final.thisIndex,ratings_final.ran,ratings_final.order
,,0,1,1,0,1,0,1,0,1,0,240,161,1,239,3,5,2,stim/52.jpeg,HouseObjects,1,stim/objects/HouseObjects/blender2.png,0.1,3,-0.2,-0.15,left,35,2020-12-08_13h33.24.900,premup-three_ses-02_part-02_label-phase2,3.2.4,Win32,60,,,,,,,,,,,,,,,,,,,,,,,,,,,,,
left,0.555000067,1,2,1,0,1,0,1,0,1,0,240,210,1,239,3,6,3,stim/63.jpeg,HouseObjects,1,stim/objects/HouseObjects/clothesdryingrack2.png,0.9,4,0.2,-0.15,left,35,2020-12-08_13h33.24.900,premup-three_ses-02_part-02_label-phase2,3.2.4,Win32,60,,,,,,,,,,,,,,,,,,,,,,,,,,,,,
right,0.475999832,0,3,1,0,1,0,1,0,1,0,240,55,1,239,1,2,4,stim/24.jpeg,HouseObjects,1,stim/objects/HouseObjects/broom.png,0.5,4,0.2,-0.15,left,35,2020-12-08_13h33.24.900,premup-three_ses-02_part-02_label-phase2,3.2.4,Win32,60,,,,,,,,,,,,,,,,,,,,,,,,,,,,,
right,0.667000055,0,4,1,0,1,0,1,0,1,0,240,91,1,239,2,3,4,stim/34.jpeg,HouseObjects,1,stim/objects/HouseObjects/clothespin.png,0.3,4,0.2,-0.15,left,35,2020-12-08_13h33.24.900,premup-three_ses-02_part-02_label-phase2,3.2.4,Win32,60,,,,,,,,,,,,,,,,,,,,,,,,,,,,,
,,0,5,1,0,1,0,1,0,1,0,240,73,1,239,1,2,2,stim/22.jpeg,Instruments,2,stim/objects/Instruments/bassguitar.png,0.5,2,0.2,0.15,right,35,2020-12-08_13h33.24.900,premup-three_ses-02_part-02_label-phase2,3.2.4,Win32,60,,,,,,,,,,,,,,,,,,,,,,,,,,,,,
,,0,6,1,0,1,0,1,0,1,0,240,124,1,239,2,4,1,stim/41.jpeg,HouseObjects,1,stim/objects/HouseObjects/ashtray2.png,0.7,2,0.2,0.15,left,35,2020-12-08_13h33.24.900,premup-three_ses-02_part-02_label-phase2,3.2.4,Win32,60,,,,,,,,,,,,,,,,,,,,,,,,,,,,,
left,0.506000042,0,7,1,0,1,0,1,0,1,0,240,183,1,239,3,5,4,stim/54.jpeg,Instruments,2,stim/objects/Instruments/chime2.png,0.9,3,-0.2,-0.15,right,35,2020-12-08_13h33.24.900,premup-three_ses-02_part-02_label-phase2,3.2.4,Win32,60,,,,,,,,,,,,,,,,,,,,,,,,,,,,,
right,0.528000116,1,8,1,0,1,0,1,0,1,0,240,174,1,239,3,5,3,stim/53.jpeg,Instruments,2,stim/objects/Instruments/cello2.png,0.9,1,-0.2,0.15,right,35,2020-12-08_13h33.24.900,premup-three_ses-02_part-02_label-phase2,3.2.4,Win32,60,,,,,,,,,,,,,,,,,,,,,,,,,,,,,
right,0.644000053,1,9,1,0,1,0,1,0,1,0,240,110,1,239,2,3,3,stim/33.jpeg,Instruments,2,stim/objects/Instruments/cymbal.png,0.7,2,0.2,0.15,right,35,2020-12-08_13h33.24.900,premup-three_ses-02_part-02_label-phase2,3.2.4,Win32,60,,,,,,,,,,,,,,,,,,,,,,,,,,,,,
left,0.617999792,1,10,1,0,1,0,1,0,1,0,240,207,1,239,3,6,4,stim/64.jpeg,HouseObjects,1,stim/objects/HouseObjects/clothespin2.png,0.9,1,-0.2,0.15,left,35,2020-12-08_13h33.24.900,premup-three_ses-02_part-02_label-phase2,3.2.4,Win32,60,,,,,,,,,,,,,,,,,,,,,,,,,,,,,
left,0.542999983,1,11,1,0,1,0,1,0,1,0,240,220,1,239,3,6,1,stim/61.jpeg,HouseObjects,1,stim/objects/HouseObjects/bucket2.png,0.9,3,-0.2,-0.15,left,35,2020-12-08_13h33.24.900,premup-three_ses-02_part-02_label-phase2,3.2.4,Win32,60,,,,,,,,,,,,,,,,,,,,,,,,,,,,,
right,0.643999815,1,12,1,0,1,0,1,0,1,0,240,176,1,239,3,5,1,stim/51.jpeg,Instruments,2,stim/objects/Instruments/bassdrum2.png,0.9,4,0.2,-0.15,right,35,2020-12-08_13h33.24.900,premup-three_ses-02_part-02_label-phase2,3.2.4,Win32,60,,,,,,,,,,,,,,,,,,,,,,,,,,,,,
left,0.603999853,1,13,1,0,1,0,1,0,1,0,240,141,1,239,2,4,2,stim/42.jpeg,HouseObjects,1,stim/objects/HouseObjects/ballofstring2.png,0.7,4,0.2,-0.15,left,35,2020-12-08_13h33.24.900,premup-three_ses-02_part-02_label-phase2,3.2.4,Win32,60,,,,,,,,,,,,,,,,,,,,,,,,,,,,,
left,0.566999912,0,14,1,0,1,0,1,0,1,0,240,22,1,239,1,1,3,stim/13.jpeg,Instruments,2,stim/objects/Instruments/balalaika.png,0.5,2,0.2,0.15,right,35,2020-12-08_13h33.24.900,premup-three_ses-02_part-02_label-phase2,3.2.4,Win32,60,,,,,,,,,,,,,,,,,,,,,,,,,,,,,
right,0.56799984,1,15,1,0,1,0,1,0,1,0,240,181,1,239,3,5,2,stim/52.jpeg,Instruments,2,stim/objects/Instruments/bassguitar2.png,0.9,1,-0.2,0.15,right,35,2020-12-08_13h33.24.900,premup-three_ses-02_part-02_label-phase2,3.2.4,Win32,60,,,,,,,,,,,,,,,,,,,,,,,,,,,,,
right,0.451999903,0,16,1,0,1,0,1,0,1,0,240,86,1,239,2,3,3,stim/33.jpeg,HouseObjects,1,stim/objects/HouseObjects/clothesdryingrack.png,0.3,1,-0.2,0.15,left,35,2020-12-08_13h33.24.900,premup-three_ses-02_part-02_label-phase2,3.2.4,Win32,60,,,,,,,,,,,,,,,,,,,,,,,,,,,,,
left,0.56799984,0,17,1,0,1,0,1,0,1,0,240,239,1,239,3,6,4,stim/64.jpeg,Instruments,2,stim/objects/Instruments/doublebass2.png,0.1,3,-0.2,-0.15,right,35,2020-12-08_13h33.24.900,premup-three_ses-02_part-02_label-phase2,3.2.4,Win32,60,,,,,,,,,,,,,,,,,,,,,,,,,,,,,
left,0.661999702,1,18,1,0,1,0,1,0,1,0,240,138,1,239,2,4,3,stim/43.jpeg,HouseObjects,1,stim/objects/HouseObjects/barbecuelighter2.png,0.7,2,0.2,0.15,left,35,2020-12-08_13h33.24.900,premup-three_ses-02_part-02_label-phase2,3.2.4,Win32,60,,,,,,,,,,,,,,,,,,,,,,,,,,,,,
left,0.68599987,0,19,1,0,1,0,1,0,1,0,240,74,1,239,1,2,3,stim/23.jpeg,Instruments,2,stim/objects/Instruments/cello.png,0.5,4,0.2,-0.15,right,35,2020-12-08_13h33.24.900,premup-three_ses-02_part-02_label-phase2,3.2.4,Win32,60,,,,,,,,,,,,,,,,,,,,,,,,,,,,,
right,0.572999954,0,20,1,0,1,0,1,0,1,0,240,162,1,239,3,5,3,stim/53.jpeg,HouseObjects,1,stim/objects/HouseObjects/bottle2.png,0.1,2,0.2,0.15,left,35,2020-12-08_13h33.24.900,premup-three_ses-02_part-02_label-phase2,3.2.4,Win32,60,,,,,,,,,,,,,,,,,,,,,,,,,,,,,
left,0.659999847,1,21,1,0,1,0,1,0,1,0,240,230,1,239,3,6,3,stim/63.jpeg,HouseObjects,1,stim/objects/HouseObjects/clothesdryingrack2.png,0.9,3,-0.2,-0.15,left,35,2020-12-08_13h33.24.900,premup-three_ses-02_part-02_label-phase2,3.2.4,Win32,60,,,,,,,,,,,,,,,,,,,,,,,,,,,,,
right,0.5849998,1,22,1,0,1,0,1,0,1,0,240,92,1,239,2,3,1,stim/31.jpeg,Instruments,2,stim/objects/Instruments/clarinet.png,0.7,1,-0.2,0.15,right,35,2020-12-08_13h33.24.900,premup-three_ses-02_part-02_label-phase2,3.2.4,Win32,60,,,,,,,,,,,,,,,,,,,,,,,,,,,,,
right,0.565999746,1,23,1,0,1,0,1,0,1,0,240,168,1,239,3,5,1,stim/51.jpeg,Instruments,2,stim/objects/Instruments/bassdrum2.png,0.9,1,-0.2,0.15,right,35,2020-12-08_13h33.24.900,premup-three_ses-02_part-02_label-phase2,3.2.4,Win32,60,,,,,,,,,,,,,,,,,,,,,,,,,,,,,
left,0.580999851,1,24,1,0,1,0,1,0,1,0,240,47,1,239,1,2,4,stim/24.jpeg,HouseObjects,1,stim/objects/HouseObjects/broom.png,0.5,3,-0.2,-0.15,left,35,2020-12-08_13h33.24.900,premup-three_ses-02_part-02_label-phase2,3.2.4,Win32,60,,,,,,,,,,,,,,,,,,,,,,,,,,,,,
right,0.40899992,1,25,1,0,1,0,1,0,1,0,240,31,1,239,1,1,4,stim/14.jpeg,Instruments,2,stim/objects/Instruments/banjo.png,0.5,3,-0.2,-0.15,right,35,2020-12-08_13h33.24.900,premup-three_ses-02_part-02_label-phase2,3.2.4,Win32,60,,,,,,,,,,,,,,,,,,,,,,,,,,,,,
left,0.601999998,0,26,1,0,1,0,1,0,1,0,240,103,1,239,2,3,4,stim/34.jpeg,Instruments,2,stim/objects/Instruments/doublebass.png,0.7,3,-0.2,-0.15,right,35,2020-12-08_13h33.24.900,premup-three_ses-02_part-02_label-phase2,3.2.4,Win32,60,,,,,,,,,,,,,,,,,,,,,,,,,,,,,
right,0.524999857,0,27,1,0,1,0,1,0,1,0,240,131,1,239,2,4,4,stim/44.jpeg,HouseObjects,1,stim/objects/HouseObjects/basket2.png,0.7,3,-0.2,-0.15,left,35,2020-12-08_13h33.24.900,premup-three_ses-02_part-02_label-phase2,3.2.4,Win32,60,,,,,,,,,,,,,,,,,,,,,,,,,,,,,
right,0.644000053,0,28,1,0,1,0,1,0,1,0,240,80,1,239,2,3,1,stim/31.jpeg,HouseObjects,1,stim/objects/HouseObjects/bucket.png,0.3,3,-0.2,-0.15,left,35,2020-12-08_13h33.24.900,premup-three_ses-02_part-02_label-phase2,3.2.4,Win32,60,,,,,,,,,,,,,,,,,,,,,,,,,,,,,
,,0,29,1,0,1,0,1,0,1,0,240,42,1,239,1,2,3,stim/23.jpeg,HouseObjects,1,stim/objects/HouseObjects/bottle.png,0.5,1,-0.2,0.15,left,35,2020-12-08_13h33.24.900,premup-three_ses-02_part-02_label-phase2,3.2.4,Win32,60,,,,,,,,,,,,,,,,,,,,,,,,,,,,,
left,0.557999849,1,30,1,0,1,0,1,0,1,0,240,50,1,239,1,2,3,stim/23.jpeg,HouseObjects,1,stim/objects/HouseObjects/bottle.png,0.5,3,-0.2,-0.15,left,35,2020-12-08_13h33.24.900,premup-three_ses-02_part-02_label-phase2,3.2.4,Win32,60,,,,,,,,,,,,,,,,,,,,,,,,,,,,,
right,0.694999933,0,31,1,0,1,0,1,0,1,0,240,142,1,239,2,4,3,stim/43.jpeg,HouseObjects,1,stim/objects/HouseObjects/barbecuelighter2.png,0.7,4,0.2,-0.15,left,35,2020-12-08_13h33.24.900,premup-three_ses-02_part-02_label-phase2,3.2.4,Win32,60,,,,,,,,,,,,,,,,,,,,,,,,,,,,,
left,0.654000044,0,32,1,0,1,0,1,0,1,0,240,36,1,239,1,1,1,stim/11.jpeg,Instruments,2,stim/objects/Instruments/accordion.png,0.5,3,-0.2,-0.15,right,35,2020-12-08_13h33.24.900,premup-three_ses-02_part-02_label-phase2,3.2.4,Win32,60,,,,,,,,,,,,,,,,,,,,,,,,,,,,,
left,0.687999964,0,33,1,0,1,0,1,0,1,0,240,77,1,239,1,2,2,stim/22.jpeg,Instruments,2,stim/objects/Instruments/bassguitar.png,0.5,1,-0.2,0.15,right,35,2020-12-08_13h33.24.900,premup-three_ses-02_part-02_label-phase2,3.2.4,Win32,60,,,,,,,,,,,,,,,,,,,,,,,,,,,,,
right,0.559999943,1,34,1,0,1,0,1,0,1,0,240,114,1,239,2,3,3,stim/33.jpeg,Instruments,2,stim/objects/Instruments/cymbal.png,0.7,1,-0.2,0.15,right,35,2020-12-08_13h33.24.900,premup-three_ses-02_part-02_label-phase2,3.2.4,Win32,60,,,,,,,,,,,,,,,,,,,,,,,,,,,,,
left,0.625,1,35,1,0,1,0,1,0,1,0,240,44,1,239,1,2,1,stim/21.jpeg,HouseObjects,1,stim/objects/HouseObjects/bleachbottle.png,0.5,1,-0.2,0.15,left,35,2020-12-08_13h33.24.900,premup-three_ses-02_part-02_label-phase2,3.2.4,Win32,60,,,,,,,,,,,,,,,,,,,,,,,,,,,,,
left,0.617000103,0,36,1,0,1,0,1,0,1,0,240,72,1,239,1,2,1,stim/21.jpeg,Instruments,2,stim/objects/Instruments/bassdrum.png,0.5,2,0.2,0.15,right,35,2020-12-08_13h33.24.900,premup-three_ses-02_part-02_label-phase2,3.2.4,Win32,60,,,,,,,,,,,,,,,,,,,,,,,,,,,,,
right,0.534999847,1,37,1,0,1,0,1,0,1,0,240,178,1,239,3,5,3,stim/53.jpeg,Instruments,2,stim/objects/Instruments/cello2.png,0.9,2,0.2,0.15,right,35,2020-12-08_13h33.24.900,premup-three_ses-02_part-02_label-phase2,3.2.4,Win32,60,,,,,,,,,,,,,,,,,,,,,,,,,,,,,
right,0.677999973,1,38,1,0,1,0,1,0,1,0,240,167,1,239,3,5,4,stim/54.jpeg,Instruments,2,stim/objects/Instruments/chime2.png,0.9,4,0.2,-0.15,right,35,2020-12-08_13h33.24.900,premup-three_ses-02_part-02_label-phase2,3.2.4,Win32,60,,,,,,,,,,,,,,,,,,,,,,,,,,,,,
left,0.648999929,1,39,1,0,1,0,1,0,1,0,240,59,1,239,1,2,4,stim/24.jpeg,HouseObjects,1,stim/objects/HouseObjects/broom.png,0.5,2,0.2,0.15,left,35,2020-12-08_13h33.24.900,premup-three_ses-02_part-02_label-phase2,3.2.4,Win32,60,,,,,,,,,,,,,,,,,,,,,,,,,,,,,
left,0.559999943,1,40,1,0,1,0,1,0,1,0,240,208,1,239,3,6,1,stim/61.jpeg,HouseObjects,1,stim/objects/HouseObjects/bucket2.png,0.9,2,0.2,0.15,left,35,2020-12-08_13h33.24.900,premup-three_ses-02_part-02_label-phase2,3.2.4,Win32,60,,,,,,,,,,,,,,,,,,,,,,,,,,,,,
left,0.60199976,1,41,1,0,1,0,1,0,1,0,240,16,1,239,1,1,1,stim/11.jpeg,HouseObjects,1,stim/objects/HouseObjects/ashtray.png,0.5,4,0.2,-0.15,left,35,2020-12-08_13h33.24.900,premup-three_ses-02_part-02_label-phase2,3.2.4,Win32,60,,,,,,,,,,,,,,,,,,,,,,,,,,,,,
right,0.667000055,0,42,1,0,1,0,1,0,1,0,240,9,1,239,1,1,2,stim/12.jpeg,HouseObjects,1,stim/objects/HouseObjects/ballofstring.png,0.5,3,-0.2,-0.15,left,35,2020-12-08_13h33.24.900,premup-three_ses-02_part-02_label-phase2,3.2.4,Win32,60,,,,,,,,,,,,,,,,,,,,,,,,,,,,,
left,0.554999828,0,43,1,0,1,0,1,0,1,0,240,34,1,239,1,1,3,stim/13.jpeg,Instruments,2,stim/objects/Instruments/balalaika.png,0.5,4,0.2,-0.15,right,35,2020-12-08_13h33.24.900,premup-three_ses-02_part-02_label-phase2,3.2.4,Win32,60,,,,,,,,,,,,,,,,,,,,,,,,,,,,,
right,0.49000001,1,44,1,0,1,0,1,0,1,0,240,169,1,239,3,5,2,stim/52.jpeg,Instruments,2,stim/objects/Instruments/bassguitar2.png,0.9,3,-0.2,-0.15,right,35,2020-12-08_13h33.24.900,premup-three_ses-02_part-02_label-phase2,3.2.4,Win32,60,,,,,,,,,,,,,,,,,,,,,,,,,,,,,
left,0.539999962,1,45,1,0,1,0,1,0,1,0,240,216,1,239,3,6,1,stim/61.jpeg,HouseObjects,1,stim/objects/HouseObjects/bucket2.png,0.9,1,-0.2,0.15,left,35,2020-12-08_13h33.24.900,premup-three_ses-02_part-02_label-phase2,3.2.4,Win32,60,,,,,,,,,,,,,,,,,,,,,,,,,,,,,
right,0.450000048,0,46,1,0,1,0,1,0,1,0,240,5,1,239,1,1,2,stim/12.jpeg,HouseObjects,1,stim/objects/HouseObjects/ballofstring.png,0.5,2,0.2,0.15,left,35,2020-12-08_13h33.24.900,premup-three_ses-02_part-02_label-phase2,3.2.4,Win32,60,,,,,,,,,,,,,,,,,,,,,,,,,,,,,
left,0.499000072,0,47,1,0,1,0,1,0,1,0,240,151,1,239,2,4,4,stim/44.jpeg,Instruments,2,stim/objects/Instruments/banjo2.png,0.3,1,-0.2,0.15,right,35,2020-12-08_13h33.24.900,premup-three_ses-02_part-02_label-phase2,3.2.4,Win32,60,,,,,,,,,,,,,,,,,,,,,,,,,,,,,
left,0.520999908,1,48,1,0,1,0,1,0,1,0,240,205,1,239,3,6,2,stim/62.jpeg,HouseObjects,1,stim/objects/HouseObjects/clock2.png,0.9,3,-0.2,-0.15,left,35,2020-12-08_13h33.24.900,premup-three_ses-02_part-02_label-phase2,3.2.4,Win32,60,,,,,,,,,,,,,,,,,,,,,,,,,,,,,
right,0.614999771,1,49,1,0,1,0,1,0,1,0,240,94,1,239,2,3,3,stim/33.jpeg,Instruments,2,stim/objects/Instruments/cymbal.png,0.7,1,-0.2,0.15,right,35,2020-12-08_13h33.24.900,premup-three_ses-02_part-02_label-phase2,3.2.4,Win32,60,,,,,,,,,,,,,,,,,,,,,,,,,,,,,
right,0.51699996,1,50,1,0,1,0,1,0,1,0,240,99,1,239,2,3,4,stim/34.jpeg,Instruments,2,stim/objects/Instruments/doublebass.png,0.7,4,0.2,-0.15,right,35,2020-12-08_13h33.24.900,premup-three_ses-02_part-02_label-phase2,3.2.4,Win32,60,,,,,,,,,,,,,,,,,,,,,,,,,,,,,
left,0.576999903,0,51,1,0,1,0,1,0,1,0,240,66,1,239,1,2,3,stim/23.jpeg,Instruments,2,stim/objects/Instruments/cello.png,0.5,3,-0.2,-0.15,right,35,2020-12-08_13h33.24.900,premup-three_ses-02_part-02_label-phase2,3.2.4,Win32,60,,,,,,,,,,,,,,,,,,,,,,,,,,,,,
left,0.522000074,1,52,1,0,1,0,1,0,1,0,240,232,1,239,3,6,1,stim/61.jpeg,HouseObjects,1,stim/objects/HouseObjects/bucket2.png,0.9,4,0.2,-0.15,left,35,2020-12-08_13h33.24.900,premup-three_ses-02_part-02_label-phase2,3.2.4,Win32,60,,,,,,,,,,,,,,,,,,,,,,,,,,,,,
,,0,53,1,0,1,0,1,0,1,0,240,23,1,239,1,1,4,stim/14.jpeg,Instruments,2,stim/objects/Instruments/banjo.png,0.5,1,-0.2,0.15,right,35,2020-12-08_13h33.24.900,premup-three_ses-02_part-02_label-phase2,3.2.4,Win32,60,,,,,,,,,,,,,,,,,,,,,,,,,,,,,
right,0.404999971,0,54,1,0,1,0,1,0,1,0,240,226,1,239,3,6,3,stim/63.jpeg,HouseObjects,1,stim/objects/HouseObjects/clothesdryingrack2.png,0.9,1,-0.2,0.15,left,35,2020-12-08_13h33.24.900,premup-three_ses-02_part-02_label-phase2,3.2.4,Win32,60,,,,,,,,,,,,,,,,,,,,,,,,,,,,,
left,0.438999891,1,55,1,0,1,0,1,0,1,0,240,202,1,239,3,6,3,stim/63.jpeg,HouseObjects,1,stim/objects/HouseObjects/clothesdryingrack2.png,0.9,2,0.2,0.15,left,35,2020-12-08_13h33.24.900,premup-three_ses-02_part-02_label-phase2,3.2.4,Win32,60,,,,,,,,,,,,,,,,,,,,,,,,,,,,,
left,0.402999878,0,56,1,0,1,0,1,0,1,0,240,96,1,239,2,3,1,stim/31.jpeg,Instruments,2,stim/objects/Instruments/clarinet.png,0.7,4,0.2,-0.15,right,35,2020-12-08_13h33.24.900,premup-three_ses-02_part-02_label-phase2,3.2.4,Win32,60,,,,,,,,,,,,,,,,,,,,,,,,,,,,,
left,0.572999716,1,57,1,0,1,0,1,0,1,0,240,204,1,239,3,6,1,stim/61.jpeg,HouseObjects,1,stim/objects/HouseObjects/bucket2.png,0.9,2,0.2,0.15,left,35,2020-12-08_13h33.24.900,premup-three_ses-02_part-02_label-phase2,3.2.4,Win32,60,,,,,,,,,,,,,,,,,,,,,,,,,,,,,
left,0.450999975,1,58,1,0,1,0,1,0,1,0,240,129,1,239,2,4,2,stim/42.jpeg,HouseObjects,1,stim/objects/HouseObjects/ballofstring2.png,0.7,2,0.2,0.15,left,35,2020-12-08_13h33.24.900,premup-three_ses-02_part-02_label-phase2,3.2.4,Win32,60,,,,,,,,,,,,,,,,,,,,,,,,,,,,,
left,0.475999832,1,59,1,0,1,0,1,0,1,0,240,221,1,239,3,6,2,stim/62.jpeg,HouseObjects,1,stim/objects/HouseObjects/clock2.png,0.9,2,0.2,0.15,left,35,2020-12-08_13h33.24.900,premup-three_ses-02_part-02_label-phase2,3.2.4,Win32,60,,,,,,,,,,,,,,,,,,,,,,,,,,,,,
right,0.558000088,0,60,1,0,1,0,1,0,1,0,240,90,1,239,2,3,3,stim/33.jpeg,HouseObjects,1,stim/objects/HouseObjects/clothesdryingrack.png,0.3,3,-0.2,-0.15,left,35,2020-12-08_13h33.24.900,premup-three_ses-02_part-02_label-phase2,3.2.4,Win32,60,,,,,,,,,,,,,,,,,,,,,,,,,,,,,
left,0.548999786,1,61,1,0,1,0,1,0,1,0,240,139,1,239,2,4,4,stim/44.jpeg,HouseObjects,1,stim/objects/HouseObjects/basket2.png,0.7,2,0.2,0.15,left,35,2020-12-08_13h33.24.900,premup-three_ses-02_part-02_label-phase2,3.2.4,Win32,60,,,,,,,,,,,,,,,,,,,,,,,,,,,,,
left,0.60800004,0,62,1,0,1,0,1,0,1,0,240,78,1,239,1,2,3,stim/23.jpeg,Instruments,2,stim/objects/Instruments/cello.png,0.5,2,0.2,0.15,right,35,2020-12-08_13h33.24.900,premup-three_ses-02_part-02_label-phase2,3.2.4,Win32,60,,,,,,,,,,,,,,,,,,,,,,,,,,,,,
right,0.375999928,1,63,1,0,1,0,1,0,1,0,240,171,1,239,3,5,4,stim/54.jpeg,Instruments,2,stim/objects/Instruments/chime2.png,0.9,2,0.2,0.15,right,35,2020-12-08_13h33.24.900,premup-three_ses-02_part-02_label-phase2,3.2.4,Win32,60,,,,,,,,,,,,,,,,,,,,,,,,,,,,,
right,0.576999903,1,64,1,0,1,0,1,0,1,0,240,105,1,239,2,3,2,stim/32.jpeg,Instruments,2,stim/objects/Instruments/cornet.png,0.7,1,-0.2,0.15,right,35,2020-12-08_13h33.24.900,premup-three_ses-02_part-02_label-phase2,3.2.4,Win32,60,,,,,,,,,,,,,,,,,,,,,,,,,,,,,
left,0.583999872,0,65,1,0,1,0,1,0,1,0,240,108,1,239,2,3,1,stim/31.jpeg,Instruments,2,stim/objects/Instruments/clarinet.png,0.7,4,0.2,-0.15,right,35,2020-12-08_13h33.24.900,premup-three_ses-02_part-02_label-phase2,3.2.4,Win32,60,,,,,,,,,,,,,,,,,,,,,,,,,,,,,
right,0.525999784,1,66,1,0,1,0,1,0,1,0,240,39,1,239,1,1,4,stim/14.jpeg,Instruments,2,stim/objects/Instruments/banjo.png,0.5,3,-0.2,-0.15,right,35,2020-12-08_13h33.24.900,premup-three_ses-02_part-02_label-phase2,3.2.4,Win32,60,,,,,,,,,,,,,,,,,,,,,,,,,,,,,
right,0.565000057,0,67,1,0,1,0,1,0,1,0,240,87,1,239,2,3,4,stim/34.jpeg,HouseObjects,1,stim/objects/HouseObjects/clothespin.png,0.3,1,-0.2,0.15,left,35,2020-12-08_13h33.24.900,premup-three_ses-02_part-02_label-phase2,3.2.4,Win32,60,,,,,,,,,,,,,,,,,,,,,,,,,,,,,
,,0,68,1,0,1,0,1,0,1,0,240,117,1,239,2,3,2,stim/32.jpeg,Instruments,2,stim/objects/Instruments/cornet.png,0.7,4,0.2,-0.15,right,35,2020-12-08_13h33.24.900,premup-three_ses-02_part-02_label-phase2,3.2.4,Win32,60,,,,,,,,,,,,,,,,,,,,,,,,,,,,,
left,0.572999954,1,69,1,0,1,0,1,0,1,0,240,133,1,239,2,4,2,stim/42.jpeg,HouseObjects,1,stim/objects/HouseObjects/ballofstring2.png,0.7,2,0.2,0.15,left,35,2020-12-08_13h33.24.900,premup-three_ses-02_part-02_label-phase2,3.2.4,Win32,60,,,,,,,,,,,,,,,,,,,,,,,,,,,,,
right,0.4599998,1,70,1,0,1,0,1,0,1,0,240,197,1,239,3,5,2,stim/52.jpeg,Instruments,2,stim/objects/Instruments/bassguitar2.png,0.9,2,0.2,0.15,right,35,2020-12-08_13h33.24.900,premup-three_ses-02_part-02_label-phase2,3.2.4,Win32,60,,,,,,,,,,,,,,,,,,,,,,,,,,,,,
right,0.634000063,0,71,1,0,1,0,1,0,1,0,240,7,1,239,1,1,4,stim/14.jpeg,HouseObjects,1,stim/objects/HouseObjects/basket.png,0.5,4,0.2,-0.15,left,35,2020-12-08_13h33.24.900,premup-three_ses-02_part-02_label-phase2,3.2.4,Win32,60,,,,,,,,,,,,,,,,,,,,,,,,,,,,,
left,0.539999962,1,72,1,0,1,0,1,0,1,0,240,209,1,239,3,6,2,stim/62.jpeg,HouseObjects,1,stim/objects/HouseObjects/clock2.png,0.9,1,-0.2,0.15,left,35,2020-12-08_13h33.24.900,premup-three_ses-02_part-02_label-phase2,3.2.4,Win32,60,,,,,,,,,,,,,,,,,,,,,,,,,,,,,
right,0.518999815,1,73,1,0,1,0,1,0,1,0,240,192,1,239,3,5,1,stim/51.jpeg,Instruments,2,stim/objects/Instruments/bassdrum2.png,0.9,3,-0.2,-0.15,right,35,2020-12-08_13h33.24.900,premup-three_ses-02_part-02_label-phase2,3.2.4,Win32,60,,,,,,,,,,,,,,,,,,,,,,,,,,,,,
left,0.52699995,0,74,1,0,1,0,1,0,1,0,240,63,1,239,1,2,4,stim/24.jpeg,Instruments,2,stim/objects/Instruments/chime.png,0.5,4,0.2,-0.15,right,35,2020-12-08_13h33.24.900,premup-three_ses-02_part-02_label-phase2,3.2.4,Win32,60,,,,,,,,,,,,,,,,,,,,,,,,,,,,,
left,0.582000017,0,75,1,0,1,0,1,0,1,0,240,68,1,239,1,2,1,stim/21.jpeg,Instruments,2,stim/objects/Instruments/bassdrum.png,0.5,4,0.2,-0.15,right,35,2020-12-08_13h33.24.900,premup-three_ses-02_part-02_label-phase2,3.2.4,Win32,60,,,,,,,,,,,,,,,,,,,,,,,,,,,,,
left,0.552999973,1,76,1,0,1,0,1,0,1,0,240,48,1,239,1,2,1,stim/21.jpeg,HouseObjects,1,stim/objects/HouseObjects/bleachbottle.png,0.5,4,0.2,-0.15,left,35,2020-12-08_13h33.24.900,premup-three_ses-02_part-02_label-phase2,3.2.4,Win32,60,,,,,,,,,,,,,,,,,,,,,,,,,,,,,
right,0.674000025,0,77,1,0,1,0,1,0,1,0,240,57,1,239,1,2,2,stim/22.jpeg,HouseObjects,1,stim/objects/HouseObjects/blender.png,0.5,3,-0.2,-0.15,left,35,2020-12-08_13h33.24.900,premup-three_ses-02_part-02_label-phase2,3.2.4,Win32,60,,,,,,,,,,,,,,,,,,,,,,,,,,,,,
right,0.491999865,1,78,1,0,1,0,1,0,1,0,240,173,1,239,3,5,2,stim/52.jpeg,Instruments,2,stim/objects/Instruments/bassguitar2.png,0.9,1,-0.2,0.15,right,35,2020-12-08_13h33.24.900,premup-three_ses-02_part-02_label-phase2,3.2.4,Win32,60,,,,,,,,,,,,,,,,,,,,,,,,,,,,,
left,0.674000025,1,79,1,0,1,0,1,0,1,0,240,4,1,239,1,1,1,stim/11.jpeg,HouseObjects,1,stim/objects/HouseObjects/ashtray.png,0.5,2,0.2,0.15,left,35,2020-12-08_13h33.24.900,premup-three_ses-02_part-02_label-phase2,3.2.4,Win32,60,,,,,,,,,,,,,,,,,,,,,,,,,,,,,
right,0.519000053,0,80,1,0,1,0,1,0,1,0,240,83,1,239,2,3,4,stim/34.jpeg,HouseObjects,1,stim/objects/HouseObjects/clothespin.png,0.3,1,-0.2,0.15,left,35,2020-12-08_13h33.24.900,premup-three_ses-02_part-02_label-phase2,3.2.4,Win32,60,,,,,,,,,,,,,,,,,,,,,,,,,,,,,
left,0.68599987,1,81,1,0,1,0,1,0,1,0,240,135,1,239,2,4,4,stim/44.jpeg,HouseObjects,1,stim/objects/HouseObjects/basket2.png,0.7,4,0.2,-0.15,left,35,2020-12-08_13h33.24.900,premup-three_ses-02_part-02_label-phase2,3.2.4,Win32,60,,,,,,,,,,,,,,,,,,,,,,,,,,,,,
right,0.409999847,0,82,1,0,1,0,1,0,1,0,240,145,1,239,2,4,2,stim/42.jpeg,HouseObjects,1,stim/objects/HouseObjects/ballofstring2.png,0.7,3,-0.2,-0.15,left,35,2020-12-08_13h33.24.900,premup-three_ses-02_part-02_label-phase2,3.2.4,Win32,60,,,,,,,,,,,,,,,,,,,,,,,,,,,,,
left,0.484999895,1,83,1,0,1,0,1,0,1,0,240,206,1,239,3,6,3,stim/63.jpeg,HouseObjects,1,stim/objects/HouseObjects/clothesdryingrack2.png,0.9,2,0.2,0.15,left,35,2020-12-08_13h33.24.900,premup-three_ses-02_part-02_label-phase2,3.2.4,Win32,60,,,,,,,,,,,,,,,,,,,,,,,,,,,,,
left,0.411000013,1,84,1,0,1,0,1,0,1,0,240,89,1,239,2,3,2,stim/32.jpeg,HouseObjects,1,stim/objects/HouseObjects/clock.png,0.3,4,0.2,-0.15,left,35,2020-12-08_13h33.24.900,premup-three_ses-02_part-02_label-phase2,3.2.4,Win32,60,,,,,,,,,,,,,,,,,,,,,,,,,,,,,
left,0.671999931,1,85,1,0,1,0,1,0,1,0,240,127,1,239,2,4,4,stim/44.jpeg,HouseObjects,1,stim/objects/HouseObjects/basket2.png,0.7,3,-0.2,-0.15,left,35,2020-12-08_13h33.24.900,premup-three_ses-02_part-02_label-phase2,3.2.4,Win32,60,,,,,,,,,,,,,,,,,,,,,,,,,,,,,
right,0.679999828,1,86,1,0,1,0,1,0,1,0,240,158,1,239,2,4,3,stim/43.jpeg,Instruments,2,stim/objects/Instruments/balalaika2.png,0.3,2,0.2,0.15,right,35,2020-12-08_13h33.24.900,premup-three_ses-02_part-02_label-phase2,3.2.4,Win32,60,,,,,,,,,,,,,,,,,,,,,,,,,,,,,
,,0,87,1,0,1,0,1,0,1,0,240,27,1,239,1,1,4,stim/14.jpeg,Instruments,2,stim/objects/Instruments/banjo.png,0.5,1,-0.2,0.15,right,35,2020-12-08_13h33.24.900,premup-three_ses-02_part-02_label-phase2,3.2.4,Win32,60,,,,,,,,,,,,,,,,,,,,,,,,,,,,,
left,0.444999933,0,88,1,0,1,0,1,0,1,0,240,180,1,239,3,5,1,stim/51.jpeg,Instruments,2,stim/objects/Instruments/bassdrum2.png,0.9,2,0.2,0.15,right,35,2020-12-08_13h33.24.900,premup-three_ses-02_part-02_label-phase2,3.2.4,Win32,60,,,,,,,,,,,,,,,,,,,,,,,,,,,,,
right,0.538999796,1,89,1,0,1,0,1,0,1,0,240,185,1,239,3,5,2,stim/52.jpeg,Instruments,2,stim/objects/Instruments/bassguitar2.png,0.9,3,-0.2,-0.15,right,35,2020-12-08_13h33.24.900,premup-three_ses-02_part-02_label-phase2,3.2.4,Win32,60,,,,,,,,,,,,,,,,,,,,,,,,,,,,,
left,0.552999973,1,90,1,0,1,0,1,0,1,0,240,51,1,239,1,2,4,stim/24.jpeg,HouseObjects,1,stim/objects/HouseObjects/broom.png,0.5,4,0.2,-0.15,left,35,2020-12-08_13h33.24.900,premup-three_ses-02_part-02_label-phase2,3.2.4,Win32,60,,,,,,,,,,,,,,,,,,,,,,,,,,,,,
left,0.433000088,1,91,1,0,1,0,1,0,1,0,240,15,1,239,1,1,4,stim/14.jpeg,HouseObjects,1,stim/objects/HouseObjects/basket.png,0.5,3,-0.2,-0.15,left,35,2020-12-08_13h33.24.900,premup-three_ses-02_part-02_label-phase2,3.2.4,Win32,60,,,,,,,,,,,,,,,,,,,,,,,,,,,,,
left,0.613999844,1,92,1,0,1,0,1,0,1,0,240,134,1,239,2,4,3,stim/43.jpeg,HouseObjects,1,stim/objects/HouseObjects/barbecuelighter2.png,0.7,4,0.2,-0.15,left,35,2020-12-08_13h33.24.900,premup-three_ses-02_part-02_label-phase2,3.2.4,Win32,60,,,,,,,,,,,,,,,,,,,,,,,,,,,,,
left,0.655999899,0,93,1,0,1,0,1,0,1,0,240,75,1,239,1,2,4,stim/24.jpeg,Instruments,2,stim/objects/Instruments/chime.png,0.5,1,-0.2,0.15,right,35,2020-12-08_13h33.24.900,premup-three_ses-02_part-02_label-phase2,3.2.4,Win32,60,,,,,,,,,,,,,,,,,,,,,,,,,,,,,
left,0.554999828,1,94,1,0,1,0,1,0,1,0,240,19,1,239,1,1,4,stim/14.jpeg,HouseObjects,1,stim/objects/HouseObjects/basket.png,0.5,2,0.2,0.15,left,35,2020-12-08_13h33.24.900,premup-three_ses-02_part-02_label-phase2,3.2.4,Win32,60,,,,,,,,,,,,,,,,,,,,,,,,,,,,,
left,0.617000103,0,95,1,0,1,0,1,0,1,0,240,33,1,239,1,1,2,stim/12.jpeg,Instruments,2,stim/objects/Instruments/acousticguitar.png,0.5,3,-0.2,-0.15,right,35,2020-12-08_13h33.24.900,premup-three_ses-02_part-02_label-phase2,3.2.4,Win32,60,,,,,,,,,,,,,,,,,,,,,,,,,,,,,
,,0,96,1,0,1,0,1,0,1,0,240,13,1,239,1,1,2,stim/12.jpeg,HouseObjects,1,stim/objects/HouseObjects/ballofstring.png,0.5,1,-0.2,0.15,left,35,2020-12-08_13h33.24.900,premup-three_ses-02_part-02_label-phase2,3.2.4,Win32,60,,,,,,,,,,,,,,,,,,,,,,,,,,,,,
left,0.380000114,0,97,1,0,1,0,1,0,1,0,240,118,1,239,2,3,3,stim/33.jpeg,Instruments,2,stim/objects/Instruments/cymbal.png,0.7,1,-0.2,0.15,right,35,2020-12-08_13h33.24.900,premup-three_ses-02_part-02_label-phase2,3.2.4,Win32,60,,,,,,,,,,,,,,,,,,,,,,,,,,,,,
right,0.639999866,0,98,1,0,1,0,1,0,1,0,240,14,1,239,1,1,3,stim/13.jpeg,HouseObjects,1,stim/objects/HouseObjects/barbecuelighter.png,0.5,1,-0.2,0.15,left,35,2020-12-08_13h33.24.900,premup-three_ses-02_part-02_label-phase2,3.2.4,Win32,60,,,,,,,,,,,,,,,,,,,,,,,,,,,,,
right,0.670000076,1,99,1,0,1,0,1,0,1,0,240,97,1,239,2,3,2,stim/32.jpeg,Instruments,2,stim/objects/Instruments/cornet.png,0.7,2,0.2,0.15,right,35,2020-12-08_13h33.24.900,premup-three_ses-02_part-02_label-phase2,3.2.4,Win32,60,,,,,,,,,,,,,,,,,,,,,,,,,,,,,
right,0.570999861,1,100,1,0,1,0,1,0,1,0,240,25,1,239,1,1,2,stim/12.jpeg,Instruments,2,stim/objects/Instruments/acousticguitar.png,0.5,2,0.2,0.15,right,35,2020-12-08_13h33.24.900,premup-three_ses-02_part-02_label-phase2,3.2.4,Win32,60,,,,,,,,,,,,,,,,,,,,,,,,,,,,,
right,0.513999939,0,101,1,0,1,0,1,0,1,0,240,136,1,239,2,4,1,stim/41.jpeg,HouseObjects,1,stim/objects/HouseObjects/ashtray2.png,0.7,2,0.2,0.15,left,35,2020-12-08_13h33.24.900,premup-three_ses-02_part-02_label-phase2,3.2.4,Win32,60,,,,,,,,,,,,,,,,,,,,,,,,,,,,,
left,0.503999949,1,102,1,0,1,0,1,0,1,0,240,212,1,239,3,6,1,stim/61.jpeg,HouseObjects,1,stim/objects/HouseObjects/bucket2.png,0.9,2,0.2,0.15,left,35,2020-12-08_13h33.24.900,premup-three_ses-02_part-02_label-phase2,3.2.4,Win32,60,,,,,,,,,,,,,,,,,,,,,,,,,,,,,
right,0.529999733,1,103,1,0,1,0,1,0,1,0,240,102,1,239,2,3,3,stim/33.jpeg,Instruments,2,stim/objects/Instruments/cymbal.png,0.7,3,-0.2,-0.15,right,35,2020-12-08_13h33.24.900,premup-three_ses-02_part-02_label-phase2,3.2.4,Win32,60,,,,,,,,,,,,,,,,,,,,,,,,,,,,,
right,0.368000031,1,104,1,0,1,0,1,0,1,0,240,238,1,239,3,6,3,stim/63.jpeg,Instruments,2,stim/objects/Instruments/cymbal2.png,0.1,4,0.2,-0.15,right,35,2020-12-08_13h33.24.900,premup-three_ses-02_part-02_label-phase2,3.2.4,Win32,60,,,,,,,,,,,,,,,,,,,,,,,,,,,,,
left,0.31099987,1,105,1,0,1,0,1,0,1,0,240,43,1,239,1,2,4,stim/24.jpeg,HouseObjects,1,stim/objects/HouseObjects/broom.png,0.5,4,0.2,-0.15,left,35,2020-12-08_13h33.24.900,premup-three_ses-02_part-02_label-phase2,3.2.4,Win32,60,,,,,,,,,,,,,,,,,,,,,,,,,,,,,
left,0.438999891,1,106,1,0,1,0,1,0,1,0,240,121,1,239,2,4,2,stim/42.jpeg,HouseObjects,1,stim/objects/HouseObjects/ballofstring2.png,0.7,3,-0.2,-0.15,left,35,2020-12-08_13h33.24.900,premup-three_ses-02_part-02_label-phase2,3.2.4,Win32,60,,,,,,,,,,,,,,,,,,,,,,,,,,,,,
right,0.449999809,0,107,1,0,1,0,1,0,1,0,240,10,1,239,1,1,3,stim/13.jpeg,HouseObjects,1,stim/objects/HouseObjects/barbecuelighter.png,0.5,4,0.2,-0.15,left,35,2020-12-08_13h33.24.900,premup-three_ses-02_part-02_label-phase2,3.2.4,Win32,60,,,,,,,,,,,,,,,,,,,,,,,,,,,,,
left,0.375999928,1,108,1,0,1,0,1,0,1,0,240,228,1,239,3,6,1,stim/61.jpeg,HouseObjects,1,stim/objects/HouseObjects/bucket2.png,0.9,3,-0.2,-0.15,left,35,2020-12-08_13h33.24.900,premup-three_ses-02_part-02_label-phase2,3.2.4,Win32,60,,,,,,,,,,,,,,,,,,,,,,,,,,,,,
right,0.53399992,1,109,1,0,1,0,1,0,1,0,240,198,1,239,3,5,3,stim/53.jpeg,Instruments,2,stim/objects/Instruments/cello2.png,0.9,1,-0.2,0.15,right,35,2020-12-08_13h33.24.900,premup-three_ses-02_part-02_label-phase2,3.2.4,Win32,60,,,,,,,,,,,,,,,,,,,,,,,,,,,,,
right,0.493999958,0,110,1,0,1,0,1,0,1,0,240,2,1,239,1,1,3,stim/13.jpeg,HouseObjects,1,stim/objects/HouseObjects/barbecuelighter.png,0.5,3,-0.2,-0.15,left,35,2020-12-08_13h33.24.900,premup-three_ses-02_part-02_label-phase2,3.2.4,Win32,60,,,,,,,,,,,,,,,,,,,,,,,,,,,,,
left,0.605999947,1,111,1,0,1,0,1,0,1,0,240,163,1,239,3,5,4,stim/54.jpeg,HouseObjects,1,stim/objects/HouseObjects/broom2.png,0.1,4,0.2,-0.15,left,35,2020-12-08_13h33.24.900,premup-three_ses-02_part-02_label-phase2,3.2.4,Win32,60,,,,,,,,,,,,,,,,,,,,,,,,,,,,,
left,0.595999956,1,112,1,0,1,0,1,0,1,0,240,54,1,239,1,2,3,stim/23.jpeg,HouseObjects,1,stim/objects/HouseObjects/bottle.png,0.5,2,0.2,0.15,left,35,2020-12-08_13h33.24.900,premup-three_ses-02_part-02_label-phase2,3.2.4,Win32,60,,,,,,,,,,,,,,,,,,,,,,,,,,,,,
left,0.432999849,0,113,1,0,1,0,1,0,1,0,240,159,1,239,2,4,4,stim/44.jpeg,Instruments,2,stim/objects/Instruments/banjo2.png,0.3,4,0.2,-0.15,right,35,2020-12-08_13h33.24.900,premup-three_ses-02_part-02_label-phase2,3.2.4,Win32,60,,,,,,,,,,,,,,,,,,,,,,,,,,,,,
,,0,114,1,0,1,0,1,0,1,0,240,132,1,239,2,4,1,stim/41.jpeg,HouseObjects,1,stim/objects/HouseObjects/ashtray2.png,0.7,4,0.2,-0.15,left,35,2020-12-08_13h33.24.900,premup-three_ses-02_part-02_label-phase2,3.2.4,Win32,60,,,,,,,,,,,,,,,,,,,,,,,,,,,,,
left,0.576999903,1,115,1,0,1,0,1,0,1,0,240,234,1,239,3,6,3,stim/63.jpeg,HouseObjects,1,stim/objects/HouseObjects/clothesdryingrack2.png,0.9,4,0.2,-0.15,left,35,2020-12-08_13h33.24.900,premup-three_ses-02_part-02_label-phase2,3.2.4,Win32,60,,,,,,,,,,,,,,,,,,,,,,,,,,,,,
left,0.592999935,1,116,1,0,1,0,1,0,1,0,240,140,1,239,2,4,1,stim/41.jpeg,HouseObjects,1,stim/objects/HouseObjects/ashtray2.png,0.7,2,0.2,0.15,left,35,2020-12-08_13h33.24.900,premup-three_ses-02_part-02_label-phase2,3.2.4,Win32,60,,,,,,,,,,,,,,,,,,,,,,,,,,,,,
left,0.529000044,0,117,1,0,1,0,1,0,1,0,240,95,1,239,2,3,4,stim/34.jpeg,Instruments,2,stim/objects/Instruments/doublebass.png,0.7,1,-0.2,0.15,right,35,2020-12-08_13h33.24.900,premup-three_ses-02_part-02_label-phase2,3.2.4,Win32,60,,,,,,,,,,,,,,,,,,,,,,,,,,,,,
right,0.397999763,1,118,1,0,1,0,1,0,1,0,240,149,1,239,2,4,2,stim/42.jpeg,Instruments,2,stim/objects/Instruments/acousticguitar2.png,0.3,4,0.2,-0.15,right,35,2020-12-08_13h33.24.900,premup-three_ses-02_part-02_label-phase2,3.2.4,Win32,60,,,,,,,,,,,,,,,,,,,,,,,,,,,,,
left,0.440999746,1,119,1,0,1,0,1,0,1,0,240,147,1,239,2,4,4,stim/44.jpeg,HouseObjects,1,stim/objects/HouseObjects/basket2.png,0.7,3,-0.2,-0.15,left,35,2020-12-08_13h33.24.900,premup-three_ses-02_part-02_label-phase2,3.2.4,Win32,60,,,,,,,,,,,,,,,,,,,,,,,,,,,,,
right,0.592999935,0,120,1,0,1,0,1,0,1,0,240,82,1,239,2,3,3,stim/33.jpeg,HouseObjects,1,stim/objects/HouseObjects/clothesdryingrack.png,0.3,4,0.2,-0.15,left,35,2020-12-08_13h33.24.900,premup-three_ses-02_part-02_label-phase2,3.2.4,Win32,60,,,,,,,,,,,,,,,,,,,,,,,,,,,,,
left,0.441999912,1,121,1,0,1,0,1,0,1,0,240,201,1,239,3,6,2,stim/62.jpeg,HouseObjects,1,stim/objects/HouseObjects/clock2.png,0.9,4,0.2,-0.15,left,35,2020-12-08_13h33.24.900,premup-three_ses-02_part-02_label-phase2,3.2.4,Win32,60,,,,,,,,,,,,,,,,,,,,,,,,,,,,,
left,0.349999905,1,122,1,0,1,0,1,0,1,0,240,137,1,239,2,4,2,stim/42.jpeg,HouseObjects,1,stim/objects/HouseObjects/ballofstring2.png,0.7,2,0.2,0.15,left,35,2020-12-08_13h33.24.900,premup-three_ses-02_part-02_label-phase2,3.2.4,Win32,60,,,,,,,,,,,,,,,,,,,,,,,,,,,,,
left,0.565000057,0,123,1,0,1,0,1,0,1,0,240,71,1,239,1,2,4,stim/24.jpeg,Instruments,2,stim/objects/Instruments/chime.png,0.5,1,-0.2,0.15,right,35,2020-12-08_13h33.24.900,premup-three_ses-02_part-02_label-phase2,3.2.4,Win32,60,,,,,,,,,,,,,,,,,,,,,,,,,,,,,
left,0.579999924,1,124,1,0,1,0,1,0,1,0,240,144,1,239,2,4,1,stim/41.jpeg,HouseObjects,1,stim/objects/HouseObjects/ashtray2.png,0.7,4,0.2,-0.15,left,35,2020-12-08_13h33.24.900,premup-three_ses-02_part-02_label-phase2,3.2.4,Win32,60,,,,,,,,,,,,,,,,,,,,,,,,,,,,,
left,0.369999886,1,125,1,0,1,0,1,0,1,0,240,8,1,239,1,1,1,stim/11.jpeg,HouseObjects,1,stim/objects/HouseObjects/ashtray.png,0.5,2,0.2,0.15,left,35,2020-12-08_13h33.24.900,premup-three_ses-02_part-02_label-phase2,3.2.4,Win32,60,,,,,,,,,,,,,,,,,,,,,,,,,,,,,
right,0.530999899,1,126,1,0,1,0,1,0,1,0,240,194,1,239,3,5,3,stim/53.jpeg,Instruments,2,stim/objects/Instruments/cello2.png,0.9,4,0.2,-0.15,right,35,2020-12-08_13h33.24.900,premup-three_ses-02_part-02_label-phase2,3.2.4,Win32,60,,,,,,,,,,,,,,,,,,,,,,,,,,,,,
left,0.50999999,1,127,1,0,1,0,1,0,1,0,240,49,1,239,1,2,2,stim/22.jpeg,HouseObjects,1,stim/objects/HouseObjects/blender.png,0.5,2,0.2,0.15,left,35,2020-12-08_13h33.24.900,premup-three_ses-02_part-02_label-phase2,3.2.4,Win32,60,,,,,,,,,,,,,,,,,,,,,,,,,,,,,
right,0.56099987,1,128,1,0,1,0,1,0,1,0,240,187,1,239,3,5,4,stim/54.jpeg,Instruments,2,stim/objects/Instruments/chime2.png,0.9,2,0.2,0.15,right,35,2020-12-08_13h33.24.900,premup-three_ses-02_part-02_label-phase2,3.2.4,Win32,60,,,,,,,,,,,,,,,,,,,,,,,,,,,,,
right,0.540999889,1,129,1,0,1,0,1,0,1,0,240,93,1,239,2,3,2,stim/32.jpeg,Instruments,2,stim/objects/Instruments/cornet.png,0.7,1,-0.2,0.15,right,35,2020-12-08_13h33.24.900,premup-three_ses-02_part-02_label-phase2,3.2.4,Win32,60,,,,,,,,,,,,,,,,,,,,,,,,,,,,,
right,0.609999895,0,130,1,0,1,0,1,0,1,0,240,84,1,239,2,3,1,stim/31.jpeg,HouseObjects,1,stim/objects/HouseObjects/bucket.png,0.3,2,0.2,0.15,left,35,2020-12-08_13h33.24.900,premup-three_ses-02_part-02_label-phase2,3.2.4,Win32,60,,,,,,,,,,,,,,,,,,,,,,,,,,,,,
right,0.570999861,1,131,1,0,1,0,1,0,1,0,240,106,1,239,2,3,3,stim/33.jpeg,Instruments,2,stim/objects/Instruments/cymbal.png,0.7,2,0.2,0.15,right,35,2020-12-08_13h33.24.900,premup-three_ses-02_part-02_label-phase2,3.2.4,Win32,60,,,,,,,,,,,,,,,,,,,,,,,,,,,,,
left,0.56799984,0,132,1,0,1,0,1,0,1,0,240,79,1,239,1,2,4,stim/24.jpeg,Instruments,2,stim/objects/Instruments/chime.png,0.5,1,-0.2,0.15,right,35,2020-12-08_13h33.24.900,premup-three_ses-02_part-02_label-phase2,3.2.4,Win32,60,,,,,,,,,,,,,,,,,,,,,,,,,,,,,
left,0.578000069,1,133,1,0,1,0,1,0,1,0,240,53,1,239,1,2,2,stim/22.jpeg,HouseObjects,1,stim/objects/HouseObjects/blender.png,0.5,4,0.2,-0.15,left,35,2020-12-08_13h33.24.900,premup-three_ses-02_part-02_label-phase2,3.2.4,Win32,60,,,,,,,,,,,,,,,,,,,,,,,,,,,,,
left,0.572000027,1,134,1,0,1,0,1,0,1,0,240,143,1,239,2,4,4,stim/44.jpeg,HouseObjects,1,stim/objects/HouseObjects/basket2.png,0.7,1,-0.2,0.15,left,35,2020-12-08_13h33.24.900,premup-three_ses-02_part-02_label-phase2,3.2.4,Win32,60,,,,,,,,,,,,,,,,,,,,,,,,,,,,,
right,0.512999773,1,135,1,0,1,0,1,0,1,0,240,177,1,239,3,5,2,stim/52.jpeg,Instruments,2,stim/objects/Instruments/bassguitar2.png,0.9,3,-0.2,-0.15,right,35,2020-12-08_13h33.24.900,premup-three_ses-02_part-02_label-phase2,3.2.4,Win32,60,,,,,,,,,,,,,,,,,,,,,,,,,,,,,
right,0.500999928,1,136,1,0,1,0,1,0,1,0,240,100,1,239,2,3,1,stim/31.jpeg,Instruments,2,stim/objects/Instruments/clarinet.png,0.7,1,-0.2,0.15,right,35,2020-12-08_13h33.24.900,premup-three_ses-02_part-02_label-phase2,3.2.4,Win32,60,,,,,,,,,,,,,,,,,,,,,,,,,,,,,
right,0.552999973,0,137,1,0,1,0,1,0,1,0,240,58,1,239,1,2,3,stim/23.jpeg,HouseObjects,1,stim/objects/HouseObjects/bottle.png,0.5,1,-0.2,0.15,left,35,2020-12-08_13h33.24.900,premup-three_ses-02_part-02_label-phase2,3.2.4,Win32,60,,,,,,,,,,,,,,,,,,,,,,,,,,,,,
left,0.57799983,0,138,1,0,1,0,1,0,1,0,240,156,1,239,2,4,1,stim/41.jpeg,Instruments,2,stim/objects/Instruments/accordion2.png,0.3,1,-0.2,0.15,right,35,2020-12-08_13h33.24.900,premup-three_ses-02_part-02_label-phase2,3.2.4,Win32,60,,,,,,,,,,,,,,,,,,,,,,,,,,,,,
left,0.417000055,0,139,1,0,1,0,1,0,1,0,240,182,1,239,3,5,3,stim/53.jpeg,Instruments,2,stim/objects/Instruments/cello2.png,0.9,2,0.2,0.15,right,35,2020-12-08_13h33.24.900,premup-three_ses-02_part-02_label-phase2,3.2.4,Win32,60,,,,,,,,,,,,,,,,,,,,,,,,,,,,,
left,0.595999718,1,140,1,0,1,0,1,0,1,0,240,146,1,239,2,4,3,stim/43.jpeg,HouseObjects,1,stim/objects/HouseObjects/barbecuelighter2.png,0.7,4,0.2,-0.15,left,35,2020-12-08_13h33.24.900,premup-three_ses-02_part-02_label-phase2,3.2.4,Win32,60,,,,,,,,,,,,,,,,,,,,,,,,,,,,,
left,0.48699975,1,141,1,0,1,0,1,0,1,0,240,233,1,239,3,6,2,stim/62.jpeg,HouseObjects,1,stim/objects/HouseObjects/clock2.png,0.9,1,-0.2,0.15,left,35,2020-12-08_13h33.24.900,premup-three_ses-02_part-02_label-phase2,3.2.4,Win32,60,,,,,,,,,,,,,,,,,,,,,,,,,,,,,
right,0.479000092,1,142,1,0,1,0,1,0,1,0,240,196,1,239,3,5,1,stim/51.jpeg,Instruments,2,stim/objects/Instruments/bassdrum2.png,0.9,3,-0.2,-0.15,right,35,2020-12-08_13h33.24.900,premup-three_ses-02_part-02_label-phase2,3.2.4,Win32,60,,,,,,,,,,,,,,,,,,,,,,,,,,,,,
left,0.521999836,0,143,1,0,1,0,1,0,1,0,240,61,1,239,1,2,2,stim/22.jpeg,Instruments,2,stim/objects/Instruments/bassguitar.png,0.5,1,-0.2,0.15,right,35,2020-12-08_13h33.24.900,premup-three_ses-02_part-02_label-phase2,3.2.4,Win32,60,,,,,,,,,,,,,,,,,,,,,,,,,,,,,
right,0.412999868,1,144,1,0,1,0,1,0,1,0,240,37,1,239,1,1,2,stim/12.jpeg,Instruments,2,stim/objects/Instruments/acousticguitar.png,0.5,4,0.2,-0.15,right,35,2020-12-08_13h33.24.900,premup-three_ses-02_part-02_label-phase2,3.2.4,Win32,60,,,,,,,,,,,,,,,,,,,,,,,,,,,,,
right,0.500999928,0,145,1,0,1,0,1,0,1,0,240,126,1,239,2,4,3,stim/43.jpeg,HouseObjects,1,stim/objects/HouseObjects/barbecuelighter2.png,0.7,2,0.2,0.15,left,35,2020-12-08_13h33.24.900,premup-three_ses-02_part-02_label-phase2,3.2.4,Win32,60,,,,,,,,,,,,,,,,,,,,,,,,,,,,,
left,0.539999962,1,146,1,0,1,0,1,0,1,0,240,122,1,239,2,4,3,stim/43.jpeg,HouseObjects,1,stim/objects/HouseObjects/barbecuelighter2.png,0.7,2,0.2,0.15,left,35,2020-12-08_13h33.24.900,premup-three_ses-02_part-02_label-phase2,3.2.4,Win32,60,,,,,,,,,,,,,,,,,,,,,,,,,,,,,
right,0.625999928,1,147,1,0,1,0,1,0,1,0,240,20,1,239,1,1,1,stim/11.jpeg,Instruments,2,stim/objects/Instruments/accordion.png,0.5,3,-0.2,-0.15,right,35,2020-12-08_13h33.24.900,premup-three_ses-02_part-02_label-phase2,3.2.4,Win32,60,,,,,,,,,,,,,,,,,,,,,,,,,,,,,
right,0.710999727,0,148,1,0,1,0,1,0,1,0,240,18,1,239,1,1,3,stim/13.jpeg,HouseObjects,1,stim/objects/HouseObjects/barbecuelighter.png,0.5,3,-0.2,-0.15,left,35,2020-12-08_13h33.24.900,premup-three_ses-02_part-02_label-phase2,3.2.4,Win32,60,,,,,,,,,,,,,,,,,,,,,,,,,,,,,
left,0.457999945,1,149,1,0,1,0,1,0,1,0,240,3,1,239,1,1,4,stim/14.jpeg,HouseObjects,1,stim/objects/HouseObjects/basket.png,0.5,4,0.2,-0.15,left,35,2020-12-08_13h33.24.900,premup-three_ses-02_part-02_label-phase2,3.2.4,Win32,60,,,,,,,,,,,,,,,,,,,,,,,,,,,,,
left,0.536999941,0,150,1,0,1,0,1,0,1,0,240,119,1,239,2,3,4,stim/34.jpeg,Instruments,2,stim/objects/Instruments/doublebass.png,0.7,4,0.2,-0.15,right,35,2020-12-08_13h33.24.900,premup-three_ses-02_part-02_label-phase2,3.2.4,Win32,60,,,,,,,,,,,,,,,,,,,,,,,,,,,,,
right,0.612999916,0,151,1,0,1,0,1,0,1,0,240,85,1,239,2,3,2,stim/32.jpeg,HouseObjects,1,stim/objects/HouseObjects/clock.png,0.3,3,-0.2,-0.15,left,35,2020-12-08_13h33.24.900,premup-three_ses-02_part-02_label-phase2,3.2.4,Win32,60,,,,,,,,,,,,,,,,,,,,,,,,,,,,,
right,0.523999929,1,152,1,0,1,0,1,0,1,0,240,104,1,239,2,3,1,stim/31.jpeg,Instruments,2,stim/objects/Instruments/clarinet.png,0.7,1,-0.2,0.15,right,35,2020-12-08_13h33.24.900,premup-three_ses-02_part-02_label-phase2,3.2.4,Win32,60,,,,,,,,,,,,,,,,,,,,,,,,,,,,,
right,0.42599988,0,153,1,0,1,0,1,0,1,0,240,224,1,239,3,6,1,stim/61.jpeg,HouseObjects,1,stim/objects/HouseObjects/bucket2.png,0.9,2,0.2,0.15,left,35,2020-12-08_13h33.24.900,premup-three_ses-02_part-02_label-phase2,3.2.4,Win32,60,,,,,,,,,,,,,,,,,,,,,,,,,,,,,
left,0.562999964,0,154,1,0,1,0,1,0,1,0,240,157,1,239,2,4,2,stim/42.jpeg,Instruments,2,stim/objects/Instruments/acousticguitar2.png,0.3,3,-0.2,-0.15,right,35,2020-12-08_13h33.24.900,premup-three_ses-02_part-02_label-phase2,3.2.4,Win32,60,,,,,,,,,,,,,,,,,,,,,,,,,,,,,
left,0.607000113,0,155,1,0,1,0,1,0,1,0,240,32,1,239,1,1,1,stim/11.jpeg,Instruments,2,stim/objects/Instruments/accordion.png,0.5,2,0.2,0.15,right,35,2020-12-08_13h33.24.900,premup-three_ses-02_part-02_label-phase2,3.2.4,Win32,60,,,,,,,,,,,,,,,,,,,,,,,,,,,,,
left,0.519000053,0,156,1,0,1,0,1,0,1,0,240,70,1,239,1,2,3,stim/23.jpeg,Instruments,2,stim/objects/Instruments/cello.png,0.5,4,0.2,-0.15,right,35,2020-12-08_13h33.24.900,premup-three_ses-02_part-02_label-phase2,3.2.4,Win32,60,,,,,,,,,,,,,,,,,,,,,,,,,,,,,
right,0.645999908,0,157,1,0,1,0,1,0,1,0,240,0,1,239,1,1,1,stim/11.jpeg,HouseObjects,1,stim/objects/HouseObjects/ashtray.png,0.5,2,0.2,0.15,left,35,2020-12-08_13h33.24.900,premup-three_ses-02_part-02_label-phase2,3.2.4,Win32,60,,,,,,,,,,,,,,,,,,,,,,,,,,,,,
right,0.548999786,1,158,1,0,1,0,1,0,1,0,240,109,1,239,2,3,2,stim/32.jpeg,Instruments,2,stim/objects/Instruments/cornet.png,0.7,1,-0.2,0.15,right,35,2020-12-08_13h33.24.900,premup-three_ses-02_part-02_label-phase2,3.2.4,Win32,60,,,,,,,,,,,,,,,,,,,,,,,,,,,,,
right,0.648000002,1,159,1,0,1,0,1,0,1,0,240,64,1,239,1,2,1,stim/21.jpeg,Instruments,2,stim/objects/Instruments/bassdrum.png,0.5,1,-0.2,0.15,right,35,2020-12-08_13h33.24.900,premup-three_ses-02_part-02_label-phase2,3.2.4,Win32,60,,,,,,,,,,,,,,,,,,,,,,,,,,,,,
left,0.570999861,1,160,1,0,1,0,1,0,1,0,240,120,1,239,2,4,1,stim/41.jpeg,HouseObjects,1,stim/objects/HouseObjects/ashtray2.png,0.7,2,0.2,0.15,left,35,2020-12-08_13h33.24.900,premup-three_ses-02_part-02_label-phase2,3.2.4,Win32,60,,,,,,,,,,,,,,,,,,,,,,,,,,,,,
right,0.601999998,1,161,1,0,1,0,1,0,1,0,240,107,1,239,2,3,4,stim/34.jpeg,Instruments,2,stim/objects/Instruments/doublebass.png,0.7,3,-0.2,-0.15,right,35,2020-12-08_13h33.24.900,premup-three_ses-02_part-02_label-phase2,3.2.4,Win32,60,,,,,,,,,,,,,,,,,,,,,,,,,,,,,
left,0.542999744,0,162,1,0,1,0,1,0,1,0,240,60,1,239,1,2,1,stim/21.jpeg,Instruments,2,stim/objects/Instruments/bassdrum.png,0.5,2,0.2,0.15,right,35,2020-12-08_13h33.24.900,premup-three_ses-02_part-02_label-phase2,3.2.4,Win32,60,,,,,,,,,,,,,,,,,,,,,,,,,,,,,
left,0.465999842,1,163,1,0,1,0,1,0,1,0,240,214,1,239,3,6,3,stim/63.jpeg,HouseObjects,1,stim/objects/HouseObjects/clothesdryingrack2.png,0.9,4,0.2,-0.15,left,35,2020-12-08_13h33.24.900,premup-three_ses-02_part-02_label-phase2,3.2.4,Win32,60,,,,,,,,,,,,,,,,,,,,,,,,,,,,,
right,0.5849998,1,164,1,0,1,0,1,0,1,0,240,179,1,239,3,5,4,stim/54.jpeg,Instruments,2,stim/objects/Instruments/chime2.png,0.9,4,0.2,-0.15,right,35,2020-12-08_13h33.24.900,premup-three_ses-02_part-02_label-phase2,3.2.4,Win32,60,,,,,,,,,,,,,,,,,,,,,,,,,,,,,
left,0.446000099,1,165,1,0,1,0,1,0,1,0,240,203,1,239,3,6,4,stim/64.jpeg,HouseObjects,1,stim/objects/HouseObjects/clothespin2.png,0.9,4,0.2,-0.15,left,35,2020-12-08_13h33.24.900,premup-three_ses-02_part-02_label-phase2,3.2.4,Win32,60,,,,,,,,,,,,,,,,,,,,,,,,,,,,,
right,0.485999823,1,166,1,0,1,0,1,0,1,0,240,186,1,239,3,5,3,stim/53.jpeg,Instruments,2,stim/objects/Instruments/cello2.png,0.9,2,0.2,0.15,right,35,2020-12-08_13h33.24.900,premup-three_ses-02_part-02_label-phase2,3.2.4,Win32,60,,,,,,,,,,,,,,,,,,,,,,,,,,,,,
left,0.572999954,1,167,1,0,1,0,1,0,1,0,240,217,1,239,3,6,2,stim/62.jpeg,HouseObjects,1,stim/objects/HouseObjects/clock2.png,0.9,4,0.2,-0.15,left,35,2020-12-08_13h33.24.900,premup-three_ses-02_part-02_label-phase2,3.2.4,Win32,60,,,,,,,,,,,,,,,,,,,,,,,,,,,,,
right,0.661000013,1,168,1,0,1,0,1,0,1,0,240,115,1,239,2,3,4,stim/34.jpeg,Instruments,2,stim/objects/Instruments/doublebass.png,0.7,4,0.2,-0.15,right,35,2020-12-08_13h33.24.900,premup-three_ses-02_part-02_label-phase2,3.2.4,Win32,60,,,,,,,,,,,,,,,,,,,,,,,,,,,,,
right,0.540999889,1,169,1,0,1,0,1,0,1,0,240,21,1,239,1,1,2,stim/12.jpeg,Instruments,2,stim/objects/Instruments/acousticguitar.png,0.5,2,0.2,0.15,right,35,2020-12-08_13h33.24.900,premup-three_ses-02_part-02_label-phase2,3.2.4,Win32,60,,,,,,,,,,,,,,,,,,,,,,,,,,,,,
right,0.501999855,1,170,1,0,1,0,1,0,1,0,240,190,1,239,3,5,3,stim/53.jpeg,Instruments,2,stim/objects/Instruments/cello2.png,0.9,1,-0.2,0.15,right,35,2020-12-08_13h33.24.900,premup-three_ses-02_part-02_label-phase2,3.2.4,Win32,60,,,,,,,,,,,,,,,,,,,,,,,,,,,,,
left,0.544999838,1,171,1,0,1,0,1,0,1,0,240,123,1,239,2,4,4,stim/44.jpeg,HouseObjects,1,stim/objects/HouseObjects/basket2.png,0.7,1,-0.2,0.15,left,35,2020-12-08_13h33.24.900,premup-three_ses-02_part-02_label-phase2,3.2.4,Win32,60,,,,,,,,,,,,,,,,,,,,,,,,,,,,,
left,0.518999815,1,172,1,0,1,0,1,0,1,0,240,218,1,239,3,6,3,stim/63.jpeg,HouseObjects,1,stim/objects/HouseObjects/clothesdryingrack2.png,0.9,2,0.2,0.15,left,35,2020-12-08_13h33.24.900,premup-three_ses-02_part-02_label-phase2,3.2.4,Win32,60,,,,,,,,,,,,,,,,,,,,,,,,,,,,,
left,0.453999996,0,173,1,0,1,0,1,0,1,0,240,38,1,239,1,1,3,stim/13.jpeg,Instruments,2,stim/objects/Instruments/balalaika.png,0.5,3,-0.2,-0.15,right,35,2020-12-08_13h33.24.900,premup-three_ses-02_part-02_label-phase2,3.2.4,Win32,60,,,,,,,,,,,,,,,,,,,,,,,,,,,,,
right,0.493999958,1,174,1,0,1,0,1,0,1,0,240,184,1,239,3,5,1,stim/51.jpeg,Instruments,2,stim/objects/Instruments/bassdrum2.png,0.9,1,-0.2,0.15,right,35,2020-12-08_13h33.24.900,premup-three_ses-02_part-02_label-phase2,3.2.4,Win32,60,,,,,,,,,,,,,,,,,,,,,,,,,,,,,
left,0.503999949,1,175,1,0,1,0,1,0,1,0,240,45,1,239,1,2,2,stim/22.jpeg,HouseObjects,1,stim/objects/HouseObjects/blender.png,0.5,2,0.2,0.15,left,35,2020-12-08_13h33.24.900,premup-three_ses-02_part-02_label-phase2,3.2.4,Win32,60,,,,,,,,,,,,,,,,,,,,,,,,,,,,,
left,0.504999876,1,176,1,0,1,0,1,0,1,0,240,200,1,239,3,6,1,stim/61.jpeg,HouseObjects,1,stim/objects/HouseObjects/bucket2.png,0.9,2,0.2,0.15,left,35,2020-12-08_13h33.24.900,premup-three_ses-02_part-02_label-phase2,3.2.4,Win32,60,,,,,,,,,,,,,,,,,,,,,,,,,,,,,
left,0.46999979,1,177,1,0,1,0,1,0,1,0,240,12,1,239,1,1,1,stim/11.jpeg,HouseObjects,1,stim/objects/HouseObjects/ashtray.png,0.5,4,0.2,-0.15,left,35,2020-12-08_13h33.24.900,premup-three_ses-02_part-02_label-phase2,3.2.4,Win32,60,,,,,,,,,,,,,,,,,,,,,,,,,,,,,
left,0.524999857,0,178,1,0,1,0,1,0,1,0,240,26,1,239,1,1,3,stim/13.jpeg,Instruments,2,stim/objects/Instruments/balalaika.png,0.5,4,0.2,-0.15,right,35,2020-12-08_13h33.24.900,premup-three_ses-02_part-02_label-phase2,3.2.4,Win32,60,,,,,,,,,,,,,,,,,,,,,,,,,,,,,
left,0.5849998,0,179,1,0,1,0,1,0,1,0,240,67,1,239,1,2,4,stim/24.jpeg,Instruments,2,stim/objects/Instruments/chime.png,0.5,3,-0.2,-0.15,right,35,2020-12-08_13h33.24.900,premup-three_ses-02_part-02_label-phase2,3.2.4,Win32,60,,,,,,,,,,,,,,,,,,,,,,,,,,,,,
right,0.531999826,1,180,1,0,1,0,1,0,1,0,240,30,1,239,1,1,3,stim/13.jpeg,Instruments,2,stim/objects/Instruments/balalaika.png,0.5,2,0.2,0.15,right,35,2020-12-08_13h33.24.900,premup-three_ses-02_part-02_label-phase2,3.2.4,Win32,60,,,,,,,,,,,,,,,,,,,,,,,,,,,,,
left,0.505000114,1,181,1,0,1,0,1,0,1,0,240,41,1,239,1,2,2,stim/22.jpeg,HouseObjects,1,stim/objects/HouseObjects/blender.png,0.5,3,-0.2,-0.15,left,35,2020-12-08_13h33.24.900,premup-three_ses-02_part-02_label-phase2,3.2.4,Win32,60,,,,,,,,,,,,,,,,,,,,,,,,,,,,,
left,0.606999874,0,182,1,0,1,0,1,0,1,0,240,98,1,239,2,3,3,stim/33.jpeg,Instruments,2,stim/objects/Instruments/cymbal.png,0.7,3,-0.2,-0.15,right,35,2020-12-08_13h33.24.900,premup-three_ses-02_part-02_label-phase2,3.2.4,Win32,60,,,,,,,,,,,,,,,,,,,,,,,,,,,,,
left,0.491999865,1,183,1,0,1,0,1,0,1,0,240,219,1,239,3,6,4,stim/64.jpeg,HouseObjects,1,stim/objects/HouseObjects/clothespin2.png,0.9,3,-0.2,-0.15,left,35,2020-12-08_13h33.24.900,premup-three_ses-02_part-02_label-phase2,3.2.4,Win32,60,,,,,,,,,,,,,,,,,,,,,,,,,,,,,
left,0.655999899,0,184,1,0,1,0,1,0,1,0,240,152,1,239,2,4,1,stim/41.jpeg,Instruments,2,stim/objects/Instruments/accordion2.png,0.3,3,-0.2,-0.15,right,35,2020-12-08_13h33.24.900,premup-three_ses-02_part-02_label-phase2,3.2.4,Win32,60,,,,,,,,,,,,,,,,,,,,,,,,,,,,,
right,0.56799984,1,185,1,0,1,0,1,0,1,0,240,193,1,239,3,5,2,stim/52.jpeg,Instruments,2,stim/objects/Instruments/bassguitar2.png,0.9,3,-0.2,-0.15,right,35,2020-12-08_13h33.24.900,premup-three_ses-02_part-02_label-phase2,3.2.4,Win32,60,,,,,,,,,,,,,,,,,,,,,,,,,,,,,
right,0.531999826,1,186,1,0,1,0,1,0,1,0,240,188,1,239,3,5,1,stim/51.jpeg,Instruments,2,stim/objects/Instruments/bassdrum2.png,0.9,1,-0.2,0.15,right,35,2020-12-08_13h33.24.900,premup-three_ses-02_part-02_label-phase2,3.2.4,Win32,60,,,,,,,,,,,,,,,,,,,,,,,,,,,,,
left,0.492000103,1,187,1,0,1,0,1,0,1,0,240,225,1,239,3,6,2,stim/62.jpeg,HouseObjects,1,stim/objects/HouseObjects/clock2.png,0.9,4,0.2,-0.15,left,35,2020-12-08_13h33.24.900,premup-three_ses-02_part-02_label-phase2,3.2.4,Win32,60,,,,,,,,,,,,,,,,,,,,,,,,,,,,,
right,0.523999929,1,188,1,0,1,0,1,0,1,0,240,175,1,239,3,5,4,stim/54.jpeg,Instruments,2,stim/objects/Instruments/chime2.png,0.9,1,-0.2,0.15,right,35,2020-12-08_13h33.24.900,premup-three_ses-02_part-02_label-phase2,3.2.4,Win32,60,,,,,,,,,,,,,,,,,,,,,,,,,,,,,
left,0.443999767,1,189,1,0,1,0,1,0,1,0,240,213,1,239,3,6,2,stim/62.jpeg,HouseObjects,1,stim/objects/HouseObjects/clock2.png,0.9,3,-0.2,-0.15,left,35,2020-12-08_13h33.24.900,premup-three_ses-02_part-02_label-phase2,3.2.4,Win32,60,,,,,,,,,,,,,,,,,,,,,,,,,,,,,
right,0.481999874,1,190,1,0,1,0,1,0,1,0,240,199,1,239,3,5,4,stim/54.jpeg,Instruments,2,stim/objects/Instruments/chime2.png,0.9,3,-0.2,-0.15,right,35,2020-12-08_13h33.24.900,premup-three_ses-02_part-02_label-phase2,3.2.4,Win32,60,,,,,,,,,,,,,,,,,,,,,,,,,,,,,
left,0.580000162,0,191,1,0,1,0,1,0,1,0,240,154,1,239,2,4,3,stim/43.jpeg,Instruments,2,stim/objects/Instruments/balalaika2.png,0.3,1,-0.2,0.15,right,35,2020-12-08_13h33.24.900,premup-three_ses-02_part-02_label-phase2,3.2.4,Win32,60,,,,,,,,,,,,,,,,,,,,,,,,,,,,,
left,0.621999741,1,192,1,0,1,0,1,0,1,0,240,128,1,239,2,4,1,stim/41.jpeg,HouseObjects,1,stim/objects/HouseObjects/ashtray2.png,0.7,4,0.2,-0.15,left,35,2020-12-08_13h33.24.900,premup-three_ses-02_part-02_label-phase2,3.2.4,Win32,60,,,,,,,,,,,,,,,,,,,,,,,,,,,,,
left,0.562999964,0,193,1,0,1,0,1,0,1,0,240,35,1,239,1,1,4,stim/14.jpeg,Instruments,2,stim/objects/Instruments/banjo.png,0.5,2,0.2,0.15,right,35,2020-12-08_13h33.24.900,premup-three_ses-02_part-02_label-phase2,3.2.4,Win32,60,,,,,,,,,,,,,,,,,,,,,,,,,,,,,
left,0.578999758,0,194,1,0,1,0,1,0,1,0,240,65,1,239,1,2,2,stim/22.jpeg,Instruments,2,stim/objects/Instruments/bassguitar.png,0.5,1,-0.2,0.15,right,35,2020-12-08_13h33.24.900,premup-three_ses-02_part-02_label-phase2,3.2.4,Win32,60,,,,,,,,,,,,,,,,,,,,,,,,,,,,,
right,0.770999908,0,195,1,0,1,0,1,0,1,0,240,6,1,239,1,1,3,stim/13.jpeg,HouseObjects,1,stim/objects/HouseObjects/barbecuelighter.png,0.5,1,-0.2,0.15,left,35,2020-12-08_13h33.24.900,premup-three_ses-02_part-02_label-phase2,3.2.4,Win32,60,,,,,,,,,,,,,,,,,,,,,,,,,,,,,
left,0.602999926,1,196,1,0,1,0,1,0,1,0,240,229,1,239,3,6,2,stim/62.jpeg,HouseObjects,1,stim/objects/HouseObjects/clock2.png,0.9,3,-0.2,-0.15,left,35,2020-12-08_13h33.24.900,premup-three_ses-02_part-02_label-phase2,3.2.4,Win32,60,,,,,,,,,,,,,,,,,,,,,,,,,,,,,
right,0.595999956,0,197,1,0,1,0,1,0,1,0,240,88,1,239,2,3,1,stim/31.jpeg,HouseObjects,1,stim/objects/HouseObjects/bucket.png,0.3,1,-0.2,0.15,left,35,2020-12-08_13h33.24.900,premup-three_ses-02_part-02_label-phase2,3.2.4,Win32,60,,,,,,,,,,,,,,,,,,,,,,,,,,,,,
left,0.660000086,1,198,1,0,1,0,1,0,1,0,240,130,1,239,2,4,3,stim/43.jpeg,HouseObjects,1,stim/objects/HouseObjects/barbecuelighter2.png,0.7,1,-0.2,0.15,left,35,2020-12-08_13h33.24.900,premup-three_ses-02_part-02_label-phase2,3.2.4,Win32,60,,,,,,,,,,,,,,,,,,,,,,,,,,,,,
left,0.475999832,1,199,1,0,1,0,1,0,1,0,240,11,1,239,1,1,4,stim/14.jpeg,HouseObjects,1,stim/objects/HouseObjects/basket.png,0.5,3,-0.2,-0.15,left,35,2020-12-08_13h33.24.900,premup-three_ses-02_part-02_label-phase2,3.2.4,Win32,60,,,,,,,,,,,,,,,,,,,,,,,,,,,,,
left,0.480000019,1,200,1,0,1,0,1,0,1,0,240,211,1,239,3,6,4,stim/64.jpeg,HouseObjects,1,stim/objects/HouseObjects/clothespin2.png,0.9,3,-0.2,-0.15,left,35,2020-12-08_13h33.24.900,premup-three_ses-02_part-02_label-phase2,3.2.4,Win32,60,,,,,,,,,,,,,,,,,,,,,,,,,,,,,
right,0.730999947,1,201,1,0,1,0,1,0,1,0,240,195,1,239,3,5,4,stim/54.jpeg,Instruments,2,stim/objects/Instruments/chime2.png,0.9,4,0.2,-0.15,right,35,2020-12-08_13h33.24.900,premup-three_ses-02_part-02_label-phase2,3.2.4,Win32,60,,,,,,,,,,,,,,,,,,,,,,,,,,,,,
left,0.521999836,1,202,1,0,1,0,1,0,1,0,240,235,1,239,3,6,4,stim/64.jpeg,HouseObjects,1,stim/objects/HouseObjects/clothespin2.png,0.9,1,-0.2,0.15,left,35,2020-12-08_13h33.24.900,premup-three_ses-02_part-02_label-phase2,3.2.4,Win32,60,,,,,,,,,,,,,,,,,,,,,,,,,,,,,
left,0.497999907,0,203,1,0,1,0,1,0,1,0,240,236,1,239,3,6,1,stim/61.jpeg,Instruments,2,stim/objects/Instruments/clarinet2.png,0.1,4,0.2,-0.15,right,35,2020-12-08_13h33.24.900,premup-three_ses-02_part-02_label-phase2,3.2.4,Win32,60,,,,,,,,,,,,,,,,,,,,,,,,,,,,,
left,0.644999981,1,204,1,0,1,0,1,0,1,0,240,227,1,239,3,6,4,stim/64.jpeg,HouseObjects,1,stim/objects/HouseObjects/clothespin2.png,0.9,4,0.2,-0.15,left,35,2020-12-08_13h33.24.900,premup-three_ses-02_part-02_label-phase2,3.2.4,Win32,60,,,,,,,,,,,,,,,,,,,,,,,,,,,,,
left,0.55099988,1,205,1,0,1,0,1,0,1,0,240,215,1,239,3,6,4,stim/64.jpeg,HouseObjects,1,stim/objects/HouseObjects/clothespin2.png,0.9,1,-0.2,0.15,left,35,2020-12-08_13h33.24.900,premup-three_ses-02_part-02_label-phase2,3.2.4,Win32,60,,,,,,,,,,,,,,,,,,,,,,,,,,,,,
left,0.525999784,0,206,1,0,1,0,1,0,1,0,240,69,1,239,1,2,2,stim/22.jpeg,Instruments,2,stim/objects/Instruments/bassguitar.png,0.5,1,-0.2,0.15,right,35,2020-12-08_13h33.24.900,premup-three_ses-02_part-02_label-phase2,3.2.4,Win32,60,,,,,,,,,,,,,,,,,,,,,,,,,,,,,
left,0.598999977,1,207,1,0,1,0,1,0,1,0,240,46,1,239,1,2,3,stim/23.jpeg,HouseObjects,1,stim/objects/HouseObjects/bottle.png,0.5,1,-0.2,0.15,left,35,2020-12-08_13h33.24.900,premup-three_ses-02_part-02_label-phase2,3.2.4,Win32,60,,,,,,,,,,,,,,,,,,,,,,,,,,,,,
right,0.559999943,1,208,1,0,1,0,1,0,1,0,240,189,1,239,3,5,2,stim/52.jpeg,Instruments,2,stim/objects/Instruments/bassguitar2.png,0.9,1,-0.2,0.15,right,35,2020-12-08_13h33.24.900,premup-three_ses-02_part-02_label-phase2,3.2.4,Win32,60,,,,,,,,,,,,,,,,,,,,,,,,,,,,,
right,0.491999865,0,209,1,0,1,0,1,0,1,0,240,160,1,239,3,5,1,stim/51.jpeg,HouseObjects,1,stim/objects/HouseObjects/bleachbottle2.png,0.1,1,-0.2,0.15,left,35,2020-12-08_13h33.24.900,premup-three_ses-02_part-02_label-phase2,3.2.4,Win32,60,,,,,,,,,,,,,,,,,,,,,,,,,,,,,
left,0.604000092,0,210,1,0,1,0,1,0,1,0,240,76,1,239,1,2,1,stim/21.jpeg,Instruments,2,stim/objects/Instruments/bassdrum.png,0.5,1,-0.2,0.15,right,35,2020-12-08_13h33.24.900,premup-three_ses-02_part-02_label-phase2,3.2.4,Win32,60,,,,,,,,,,,,,,,,,,,,,,,,,,,,,
left,0.494999886,0,211,1,0,1,0,1,0,1,0,240,62,1,239,1,2,3,stim/23.jpeg,Instruments,2,stim/objects/Instruments/cello.png,0.5,4,0.2,-0.15,right,35,2020-12-08_13h33.24.900,premup-three_ses-02_part-02_label-phase2,3.2.4,Win32,60,,,,,,,,,,,,,,,,,,,,,,,,,,,,,
left,0.520999908,0,212,1,0,1,0,1,0,1,0,240,148,1,239,2,4,1,stim/41.jpeg,Instruments,2,stim/objects/Instruments/accordion2.png,0.3,2,0.2,0.15,right,35,2020-12-08_13h33.24.900,premup-three_ses-02_part-02_label-phase2,3.2.4,Win32,60,,,,,,,,,,,,,,,,,,,,,,,,,,,,,
left,0.542999983,1,213,1,0,1,0,1,0,1,0,240,17,1,239,1,1,2,stim/12.jpeg,HouseObjects,1,stim/objects/HouseObjects/ballofstring.png,0.5,4,0.2,-0.15,left,35,2020-12-08_13h33.24.900,premup-three_ses-02_part-02_label-phase2,3.2.4,Win32,60,,,,,,,,,,,,,,,,,,,,,,,,,,,,,
right,0.667000055,0,214,1,0,1,0,1,0,1,0,240,40,1,239,1,2,1,stim/21.jpeg,HouseObjects,1,stim/objects/HouseObjects/bleachbottle.png,0.5,1,-0.2,0.15,left,35,2020-12-08_13h33.24.900,premup-three_ses-02_part-02_label-phase2,3.2.4,Win32,60,,,,,,,,,,,,,,,,,,,,,,,,,,,,,
right,0.532000065,1,215,1,0,1,0,1,0,1,0,240,172,1,239,3,5,1,stim/51.jpeg,Instruments,2,stim/objects/Instruments/bassdrum2.png,0.9,1,-0.2,0.15,right,35,2020-12-08_13h33.24.900,premup-three_ses-02_part-02_label-phase2,3.2.4,Win32,60,,,,,,,,,,,,,,,,,,,,,,,,,,,,,
left,0.54399991,1,216,1,0,1,0,1,0,1,0,240,125,1,239,2,4,2,stim/42.jpeg,HouseObjects,1,stim/objects/HouseObjects/ballofstring2.png,0.7,4,0.2,-0.15,left,35,2020-12-08_13h33.24.900,premup-three_ses-02_part-02_label-phase2,3.2.4,Win32,60,,,,,,,,,,,,,,,,,,,,,,,,,,,,,
left,0.443999767,0,217,1,0,1,0,1,0,1,0,240,170,1,239,3,5,3,stim/53.jpeg,Instruments,2,stim/objects/Instruments/cello2.png,0.9,2,0.2,0.15,right,35,2020-12-08_13h33.24.900,premup-three_ses-02_part-02_label-phase2,3.2.4,Win32,60,,,,,,,,,,,,,,,,,,,,,,,,,,,,,
left,0.710999966,0,218,1,0,1,0,1,0,1,0,240,116,1,239,2,3,1,stim/31.jpeg,Instruments,2,stim/objects/Instruments/clarinet.png,0.7,3,-0.2,-0.15,right,35,2020-12-08_13h33.24.900,premup-three_ses-02_part-02_label-phase2,3.2.4,Win32,60,,,,,,,,,,,,,,,,,,,,,,,,,,,,,
right,0.511999846,1,219,1,0,1,0,1,0,1,0,240,164,1,239,3,5,1,stim/51.jpeg,Instruments,2,stim/objects/Instruments/bassdrum2.png,0.9,4,0.2,-0.15,right,35,2020-12-08_13h33.24.900,premup-three_ses-02_part-02_label-phase2,3.2.4,Win32,60,,,,,,,,,,,,,,,,,,,,,,,,,,,,,
right,0.562000036,1,220,1,0,1,0,1,0,1,0,240,29,1,239,1,1,2,stim/12.jpeg,Instruments,2,stim/objects/Instruments/acousticguitar.png,0.5,3,-0.2,-0.15,right,35,2020-12-08_13h33.24.900,premup-three_ses-02_part-02_label-phase2,3.2.4,Win32,60,,,,,,,,,,,,,,,,,,,,,,,,,,,,,
left,0.76699996,0,221,1,0,1,0,1,0,1,0,240,155,1,239,2,4,4,stim/44.jpeg,Instruments,2,stim/objects/Instruments/banjo2.png,0.3,3,-0.2,-0.15,right,35,2020-12-08_13h33.24.900,premup-three_ses-02_part-02_label-phase2,3.2.4,Win32,60,,,,,,,,,,,,,,,,,,,,,,,,,,,,,
right,0.592000008,1,222,1,0,1,0,1,0,1,0,240,113,1,239,2,3,2,stim/32.jpeg,Instruments,2,stim/objects/Instruments/cornet.png,0.7,3,-0.2,-0.15,right,35,2020-12-08_13h33.24.900,premup-three_ses-02_part-02_label-phase2,3.2.4,Win32,60,,,,,,,,,,,,,,,,,,,,,,,,,,,,,
right,0.595999956,0,223,1,0,1,0,1,0,1,0,240,81,1,239,2,3,2,stim/32.jpeg,HouseObjects,1,stim/objects/HouseObjects/clock.png,0.3,2,0.2,0.15,left,35,2020-12-08_13h33.24.900,premup-three_ses-02_part-02_label-phase2,3.2.4,Win32,60,,,,,,,,,,,,,,,,,,,,,,,,,,,,,
right,0.582999945,1,224,1,0,1,0,1,0,1,0,240,165,1,239,3,5,2,stim/52.jpeg,Instruments,2,stim/objects/Instruments/bassguitar2.png,0.9,4,0.2,-0.15,right,35,2020-12-08_13h33.24.900,premup-three_ses-02_part-02_label-phase2,3.2.4,Win32,60,,,,,,,,,,,,,,,,,,,,,,,,,,,,,
left,0.628999949,0,225,1,0,1,0,1,0,1,0,240,150,1,239,2,4,3,stim/43.jpeg,Instruments,2,stim/objects/Instruments/balalaika2.png,0.3,3,-0.2,-0.15,right,35,2020-12-08_13h33.24.900,premup-three_ses-02_part-02_label-phase2,3.2.4,Win32,60,,,,,,,,,,,,,,,,,,,,,,,,,,,,,
left,0.517999887,1,226,1,0,1,0,1,0,1,0,240,223,1,239,3,6,4,stim/64.jpeg,HouseObjects,1,stim/objects/HouseObjects/clothespin2.png,0.9,2,0.2,0.15,left,35,2020-12-08_13h33.24.900,premup-three_ses-02_part-02_label-phase2,3.2.4,Win32,60,,,,,,,,,,,,,,,,,,,,,,,,,,,,,
left,0.39199996,0,227,1,0,1,0,1,0,1,0,240,112,1,239,2,3,1,stim/31.jpeg,Instruments,2,stim/objects/Instruments/clarinet.png,0.7,3,-0.2,-0.15,right,35,2020-12-08_13h33.24.900,premup-three_ses-02_part-02_label-phase2,3.2.4,Win32,60,,,,,,,,,,,,,,,,,,,,,,,,,,,,,
left,0.614000082,0,228,1,0,1,0,1,0,1,0,240,24,1,239,1,1,1,stim/11.jpeg,Instruments,2,stim/objects/Instruments/accordion.png,0.5,4,0.2,-0.15,right,35,2020-12-08_13h33.24.900,premup-three_ses-02_part-02_label-phase2,3.2.4,Win32,60,,,,,,,,,,,,,,,,,,,,,,,,,,,,,
right,0.565999985,1,229,1,0,1,0,1,0,1,0,240,101,1,239,2,3,2,stim/32.jpeg,Instruments,2,stim/objects/Instruments/cornet.png,0.7,2,0.2,0.15,right,35,2020-12-08_13h33.24.900,premup-three_ses-02_part-02_label-phase2,3.2.4,Win32,60,,,,,,,,,,,,,,,,,,,,,,,,,,,,,
,,0,230,1,0,1,0,1,0,1,0,240,222,1,239,3,6,3,stim/63.jpeg,HouseObjects,1,stim/objects/HouseObjects/clothesdryingrack2.png,0.9,4,0.2,-0.15,left,35,2020-12-08_13h33.24.900,premup-three_ses-02_part-02_label-phase2,3.2.4,Win32,60,,,,,,,,,,,,,,,,,,,,,,,,,,,,,
left,0.478999853,1,231,1,0,1,0,1,0,1,0,240,1,1,239,1,1,2,stim/12.jpeg,HouseObjects,1,stim/objects/HouseObjects/ballofstring.png,0.5,2,0.2,0.15,left,35,2020-12-08_13h33.24.900,premup-three_ses-02_part-02_label-phase2,3.2.4,Win32,60,,,,,,,,,,,,,,,,,,,,,,,,,,,,,
right,0.534000158,1,232,1,0,1,0,1,0,1,0,240,111,1,239,2,3,4,stim/34.jpeg,Instruments,2,stim/objects/Instruments/doublebass.png,0.7,3,-0.2,-0.15,right,35,2020-12-08_13h33.24.900,premup-three_ses-02_part-02_label-phase2,3.2.4,Win32,60,,,,,,,,,,,,,,,,,,,,,,,,,,,,,
right,0.343999863,1,233,1,0,1,0,1,0,1,0,240,166,1,239,3,5,3,stim/53.jpeg,Instruments,2,stim/objects/Instruments/cello2.png,0.9,3,-0.2,-0.15,right,35,2020-12-08_13h33.24.900,premup-three_ses-02_part-02_label-phase2,3.2.4,Win32,60,,,,,,,,,,,,,,,,,,,,,,,,,,,,,
left,0.602999926,1,234,1,0,1,0,1,0,1,0,240,52,1,239,1,2,1,stim/21.jpeg,HouseObjects,1,stim/objects/HouseObjects/bleachbottle.png,0.5,1,-0.2,0.15,left,35,2020-12-08_13h33.24.900,premup-three_ses-02_part-02_label-phase2,3.2.4,Win32,60,,,,,,,,,,,,,,,,,,,,,,,,,,,,,
left,0.585999966,0,235,1,0,1,0,1,0,1,0,240,153,1,239,2,4,2,stim/42.jpeg,Instruments,2,stim/objects/Instruments/acousticguitar2.png,0.3,2,0.2,0.15,right,35,2020-12-08_13h33.24.900,premup-three_ses-02_part-02_label-phase2,3.2.4,Win32,60,,,,,,,,,,,,,,,,,,,,,,,,,,,,,
right,0.41899991,0,236,1,0,1,0,1,0,1,0,240,56,1,239,1,2,1,stim/21.jpeg,HouseObjects,1,stim/objects/HouseObjects/bleachbottle.png,0.5,3,-0.2,-0.15,left,35,2020-12-08_13h33.24.900,premup-three_ses-02_part-02_label-phase2,3.2.4,Win32,60,,,,,,,,,,,,,,,,,,,,,,,,,,,,,
left,0.500999928,1,237,1,0,1,0,1,0,1,0,240,231,1,239,3,6,4,stim/64.jpeg,HouseObjects,1,stim/objects/HouseObjects/clothespin2.png,0.9,3,-0.2,-0.15,left,35,2020-12-08_13h33.24.900,premup-three_ses-02_part-02_label-phase2,3.2.4,Win32,60,,,,,,,,,,,,,,,,,,,,,,,,,,,,,
left,0.39199996,0,238,1,0,1,0,1,0,1,0,240,237,1,239,3,6,2,stim/62.jpeg,Instruments,2,stim/objects/Instruments/cornet2.png,0.1,1,-0.2,0.15,right,35,2020-12-08_13h33.24.900,premup-three_ses-02_part-02_label-phase2,3.2.4,Win32,60,,,,,,,,,,,,,,,,,,,,,,,,,,,,,
right,0.611999989,1,239,1,0,1,0,1,0,1,0,240,28,1,239,1,1,1,stim/11.jpeg,Instruments,2,stim/objects/Instruments/accordion.png,0.5,3,-0.2,-0.15,right,35,2020-12-08_13h33.24.900,premup-three_ses-02_part-02_label-phase2,3.2.4,Win32,60,,,,,,,,,,,,,,,,,,,,,,,,,,,,,
right,0.47699976,1,240,1,0,1,0,1,0,1,0,240,191,1,239,3,5,4,stim/54.jpeg,Instruments,2,stim/objects/Instruments/chime2.png,0.9,2,0.2,0.15,right,35,2020-12-08_13h33.24.900,premup-three_ses-02_part-02_label-phase2,3.2.4,Win32,60,,,,,,,,,,,,,,,,,,,,,,,,,,,,,
,,,,1,0,1,0,1,0,,,,,,,,6,,stim/61.jpeg,,,,,,,,,35,2020-12-08_13h33.24.900,premup-three_ses-02_part-02_label-phase2,3.2.4,Win32,60,81,4.947999954,,,1,0,6,5,1,5,Household items,5,15,Music items,85,95,,,,,,,,,,,,,
,,,,1,0,1,0,1,0,,,,,,,,3,,stim/31.jpeg,,,,,,,,,35,2020-12-08_13h33.24.900,premup-three_ses-02_part-02_label-phase2,3.2.4,Win32,60,36,3.83100009,,,1,0,6,2,1,5,Household items,65,75,Music items,25,35,,,,,,,,,,,,,
,,,,1,0,1,0,1,0,,,,,,,,4,,stim/41.jpeg,,,,,,,,,35,2020-12-08_13h33.24.900,premup-three_ses-02_part-02_label-phase2,3.2.4,Win32,60,73,5.020999908,,,1,0,6,3,1,5,Household items,65,75,Music items,25,35,,,,,,,,,,,,,
,,,,1,0,1,0,1,0,,,,,,,,1,,stim/11.jpeg,,,,,,,,,35,2020-12-08_13h33.24.900,premup-three_ses-02_part-02_label-phase2,3.2.4,Win32,60,50,3.167000055,,,1,0,6,0,1,5,Household items,45,55,Music items,45,55,,,,,,,,,,,,,
,,,,1,0,1,0,1,0,,,,,,,,2,,stim/21.jpeg,,,,,,,,,35,2020-12-08_13h33.24.900,premup-three_ses-02_part-02_label-phase2,3.2.4,Win32,60,50,1.930000067,,,1,0,6,1,1,5,Music items,45,55,Household items,45,55,,,,,,,,,,,,,
,,,,1,0,1,0,1,0,,,,,,,,5,,stim/51.jpeg,,,,,,,,,35,2020-12-08_13h33.24.900,premup-three_ses-02_part-02_label-phase2,3.2.4,Win32,60,85,4.74000001,,,1,0,6,4,1,5,Music items,5,15,Household items,85,95,,,,,,,,,,,,,
,,,,1,0,1,0,1,0,,,,,,,,,,,,,,,,,,,35,2020-12-08_13h33.24.900,premup-three_ses-02_part-02_label-phase2,3.2.4,Win32,60,,,,,,,,,,,,,,,,,,,,,,,,,,,,,
left,0.624000072,1,241,,,,,,,,,,,,,1,2,3,stim/23.jpeg,HouseObjects,1,stim/objects/HouseObjects/glassmop.png,0.5,3,-0.2,-0.15,left,35,2020-12-08_13h33.24.900,premup-three_ses-02_part-02_label-phase2,3.2.4,Win32,60,,,,,,,,,,,,,,,,,1,0,330,38,1,329,2,,,,,,
left,0.451999903,0,242,,,,,,,,,,,,,1,1,4,stim/14.jpeg,Instruments,2,stim/objects/Instruments/flute.png,0.5,3,-0.2,-0.15,right,35,2020-12-08_13h33.24.900,premup-three_ses-02_part-02_label-phase2,3.2.4,Win32,60,,,,,,,,,,,,,,,,,1,0,330,23,1,329,2,,,,,,
left,0.528999805,0,243,,,,,,,,,,,,,3,6,4,stim/64.jpeg,Instruments,2,stim/objects/Instruments/trumpet2.png,0.1,4,0.2,-0.15,right,35,2020-12-08_13h33.24.900,premup-three_ses-02_part-02_label-phase2,3.2.4,Win32,60,,,,,,,,,,,,,,,,,1,0,330,325,1,329,1,,,,,,
right,0.569999933,0,244,,,,,,,,,,,,,2,4,4,stim/44.jpeg,HouseObjects,1,stim/objects/HouseObjects/flyswatter2.png,0.7,1,-0.2,0.15,left,35,2020-12-08_13h33.24.900,premup-three_ses-02_part-02_label-phase2,3.2.4,Win32,60,,,,,,,,,,,,,,,,,1,0,330,110,1,329,1,,,,,,
left,0.510999918,1,245,,,,,,,,,,,,,1,1,1,stim/11.jpeg,HouseObjects,1,stim/objects/HouseObjects/rubbergloves.png,0.5,4,0.2,-0.15,left,35,2020-12-08_13h33.24.900,premup-three_ses-02_part-02_label-phase2,3.2.4,Win32,60,,,,,,,,,,,,,,,,,1,0,330,12,1,329,1,,,,,,
left,0.428999901,0,246,,,,,,,,,,,,,3,6,1,stim/61.jpeg,Instruments,2,stim/objects/Instruments/tuba2.png,0.1,2,0.2,0.15,right,35,2020-12-08_13h33.24.900,premup-three_ses-02_part-02_label-phase2,3.2.4,Win32,60,,,,,,,,,,,,,,,,,1,0,330,326,1,329,1,,,,,,
left,0.650000095,0,247,,,,,,,,,,,,,1,2,2,stim/22.jpeg,Instruments,2,stim/objects/Instruments/guitarcase.png,0.5,2,0.2,0.15,right,35,2020-12-08_13h33.24.900,premup-three_ses-02_part-02_label-phase2,3.2.4,Win32,60,,,,,,,,,,,,,,,,,1,0,330,53,1,329,2,,,,,,
left,0.551999807,1,248,,,,,,,,,,,,,3,6,2,stim/62.jpeg,HouseObjects,1,stim/objects/HouseObjects/pitcher.png,0.9,1,-0.2,0.15,left,35,2020-12-08_13h33.24.900,premup-three_ses-02_part-02_label-phase2,3.2.4,Win32,60,,,,,,,,,,,,,,,,,1,0,330,299,1,329,2,,,,,,
right,0.618000031,0,249,,,,,,,,,,,,,2,4,3,stim/43.jpeg,HouseObjects,1,stim/objects/HouseObjects/iron.png,0.7,3,-0.2,-0.15,left,35,2020-12-08_13h33.24.900,premup-three_ses-02_part-02_label-phase2,3.2.4,Win32,60,,,,,,,,,,,,,,,,,1,0,330,97,1,329,2,,,,,,
right,0.527999878,1,250,,,,,,,,,,,,,3,5,3,stim/53.jpeg,Instruments,2,stim/objects/Instruments/musicstand.png,0.9,4,0.2,-0.15,right,35,2020-12-08_13h33.24.900,premup-three_ses-02_part-02_label-phase2,3.2.4,Win32,60,,,,,,,,,,,,,,,,,1,0,330,148,1,329,2,,,,,,
right,0.548999786,0,251,,,,,,,,,,,,,3,5,1,stim/51.jpeg,HouseObjects,1,stim/objects/HouseObjects/rug2.png,0.1,2,0.2,0.15,left,35,2020-12-08_13h33.24.900,premup-three_ses-02_part-02_label-phase2,3.2.4,Win32,60,,,,,,,,,,,,,,,,,1,0,330,138,1,329,1,,,,,,
right,0.595999956,1,252,,,,,,,,,,,,,3,5,3,stim/53.jpeg,Instruments,2,stim/objects/Instruments/marimba.png,0.9,3,-0.2,-0.15,right,35,2020-12-08_13h33.24.900,premup-three_ses-02_part-02_label-phase2,3.2.4,Win32,60,,,,,,,,,,,,,,,,,1,0,330,160,1,329,2,,,,,,
right,0.53399992,1,253,,,,,,,,,,,,,3,5,4,stim/54.jpeg,Instruments,2,stim/objects/Instruments/musicsheet.png,0.9,2,0.2,0.15,right,35,2020-12-08_13h33.24.900,premup-three_ses-02_part-02_label-phase2,3.2.4,Win32,60,,,,,,,,,,,,,,,,,1,0,330,217,1,329,2,,,,,,
right,0.465999842,1,254,,,,,,,,,,,,,2,3,4,stim/34.jpeg,Instruments,2,stim/objects/Instruments/harp.png,0.7,2,0.2,0.15,right,35,2020-12-08_13h33.24.900,premup-three_ses-02_part-02_label-phase2,3.2.4,Win32,60,,,,,,,,,,,,,,,,,1,0,330,75,1,329,2,,,,,,
right,0.441999912,1,255,,,,,,,,,,,,,3,5,3,stim/53.jpeg,Instruments,2,stim/objects/Instruments/oboe.png,0.9,2,0.2,0.15,right,35,2020-12-08_13h33.24.900,premup-three_ses-02_part-02_label-phase2,3.2.4,Win32,60,,,,,,,,,,,,,,,,,1,0,330,204,1,329,2,,,,,,
right,0.444999933,1,256,,,,,,,,,,,,,3,5,1,stim/51.jpeg,Instruments,2,stim/objects/Instruments/oboe.png,0.9,1,-0.2,0.15,right,35,2020-12-08_13h33.24.900,premup-three_ses-02_part-02_label-phase2,3.2.4,Win32,60,,,,,,,,,,,,,,,,,1,0,330,214,1,329,2,,,,,,
right,0.473999977,0,257,,,,,,,,,,,,,3,5,4,stim/54.jpeg,HouseObjects,1,stim/objects/HouseObjects/pan2.png,0.1,3,-0.2,-0.15,left,35,2020-12-08_13h33.24.900,premup-three_ses-02_part-02_label-phase2,3.2.4,Win32,60,,,,,,,,,,,,,,,,,1,0,330,133,1,329,1,,,,,,
right,0.457999945,1,258,,,,,,,,,,,,,3,5,2,stim/52.jpeg,Instruments,2,stim/objects/Instruments/musicstand.png,0.9,3,-0.2,-0.15,right,35,2020-12-08_13h33.24.900,premup-three_ses-02_part-02_label-phase2,3.2.4,Win32,60,,,,,,,,,,,,,,,,,1,0,330,183,1,329,2,,,,,,
right,0.700000048,0,259,,,,,,,,,,,,,2,4,4,stim/44.jpeg,HouseObjects,1,stim/objects/HouseObjects/ironingboard.png,0.7,2,0.2,0.15,left,35,2020-12-08_13h33.24.900,premup-three_ses-02_part-02_label-phase2,3.2.4,Win32,60,,,,,,,,,,,,,,,,,1,0,330,98,1,329,2,,,,,,
right,0.476999998,1,260,,,,,,,,,,,,,3,5,1,stim/51.jpeg,Instruments,2,stim/objects/Instruments/metronome.png,0.9,4,0.2,-0.15,right,35,2020-12-08_13h33.24.900,premup-three_ses-02_part-02_label-phase2,3.2.4,Win32,60,,,,,,,,,,,,,,,,,1,0,330,166,1,329,2,,,,,,
right,0.424999714,0,261,,,,,,,,,,,,,2,4,2,stim/42.jpeg,HouseObjects,1,stim/objects/HouseObjects/handbrush.png,0.7,4,0.2,-0.15,left,35,2020-12-08_13h33.24.900,premup-three_ses-02_part-02_label-phase2,3.2.4,Win32,60,,,,,,,,,,,,,,,,,1,0,330,100,1,329,2,,,,,,
right,0.467999935,1,262,,,,,,,,,,,,,1,2,2,stim/22.jpeg,Instruments,2,stim/objects/Instruments/frenchhorn.png,0.5,4,0.2,-0.15,right,35,2020-12-08_13h33.24.900,premup-three_ses-02_part-02_label-phase2,3.2.4,Win32,60,,,,,,,,,,,,,,,,,1,0,330,45,1,329,2,,,,,,
left,0.50999999,1,263,,,,,,,,,,,,,3,6,1,stim/61.jpeg,HouseObjects,1,stim/objects/HouseObjects/pan.png,0.9,1,-0.2,0.15,left,35,2020-12-08_13h33.24.900,premup-three_ses-02_part-02_label-phase2,3.2.4,Win32,60,,,,,,,,,,,,,,,,,1,0,330,298,1,329,2,,,,,,
left,0.473999739,1,264,,,,,,,,,,,,,3,6,2,stim/62.jpeg,HouseObjects,1,stim/objects/HouseObjects/thermometer2.png,0.9,2,0.2,0.15,left,35,2020-12-08_13h33.24.900,premup-three_ses-02_part-02_label-phase2,3.2.4,Win32,60,,,,,,,,,,,,,,,,,1,0,330,315,1,329,1,,,,,,
right,0.462999821,1,265,,,,,,,,,,,,,3,5,1,stim/51.jpeg,Instruments,2,stim/objects/Instruments/musicstand.png,0.9,3,-0.2,-0.15,right,35,2020-12-08_13h33.24.900,premup-three_ses-02_part-02_label-phase2,3.2.4,Win32,60,,,,,,,,,,,,,,,,,1,0,330,178,1,329,2,,,,,,
left,0.569000006,1,266,,,,,,,,,,,,,1,1,3,stim/13.jpeg,HouseObjects,1,stim/objects/HouseObjects/recyclingbin.png,0.5,4,0.2,-0.15,left,35,2020-12-08_13h33.24.900,premup-three_ses-02_part-02_label-phase2,3.2.4,Win32,60,,,,,,,,,,,,,,,,,1,0,330,10,1,329,1,,,,,,
left,0.458999872,1,267,,,,,,,,,,,,,3,6,2,stim/62.jpeg,HouseObjects,1,stim/objects/HouseObjects/wateringcan2.png,0.9,4,0.2,-0.15,left,35,2020-12-08_13h33.24.900,premup-three_ses-02_part-02_label-phase2,3.2.4,Win32,60,,,,,,,,,,,,,,,,,1,0,330,319,1,329,1,,,,,,
left,0.542000055,1,268,,,,,,,,,,,,,2,4,4,stim/44.jpeg,HouseObjects,1,stim/objects/HouseObjects/iron.png,0.7,3,-0.2,-0.15,left,35,2020-12-08_13h33.24.900,premup-three_ses-02_part-02_label-phase2,3.2.4,Win32,60,,,,,,,,,,,,,,,,,1,0,330,102,1,329,2,,,,,,
left,0.504999876,1,269,,,,,,,,,,,,,1,2,2,stim/22.jpeg,HouseObjects,1,stim/objects/HouseObjects/glass.png,0.5,4,0.2,-0.15,left,35,2020-12-08_13h33.24.900,premup-three_ses-02_part-02_label-phase2,3.2.4,Win32,60,,,,,,,,,,,,,,,,,1,0,330,37,1,329,2,,,,,,
left,0.633999825,0,270,,,,,,,,,,,,,3,6,1,stim/61.jpeg,Instruments,2,stim/objects/Instruments/timbal2.png,0.1,2,0.2,0.15,right,35,2020-12-08_13h33.24.900,premup-three_ses-02_part-02_label-phase2,3.2.4,Win32,60,,,,,,,,,,,,,,,,,1,0,330,322,1,329,1,,,,,,
left,0.475999832,0,271,,,,,,,,,,,,,1,2,4,stim/24.jpeg,Instruments,2,stim/objects/Instruments/gong.png,0.5,2,0.2,0.15,right,35,2020-12-08_13h33.24.900,premup-three_ses-02_part-02_label-phase2,3.2.4,Win32,60,,,,,,,,,,,,,,,,,1,0,330,51,1,329,2,,,,,,
,,0,272,,,,,,,,,,,,,2,3,4,stim/34.jpeg,Instruments,2,stim/objects/Instruments/electricdrumset2.png,0.7,1,-0.2,0.15,right,35,2020-12-08_13h33.24.900,premup-three_ses-02_part-02_label-phase2,3.2.4,Win32,60,,,,,,,,,,,,,,,,,1,0,330,91,1,329,1,,,,,,
right,0.458999872,0,273,,,,,,,,,,,,,3,5,2,stim/52.jpeg,HouseObjects,1,stim/objects/HouseObjects/lintroller2.png,0.1,3,-0.2,-0.15,left,35,2020-12-08_13h33.24.900,premup-three_ses-02_part-02_label-phase2,3.2.4,Win32,60,,,,,,,,,,,,,,,,,1,0,330,131,1,329,1,,,,,,
left,0.263999939,1,274,,,,,,,,,,,,,1,2,4,stim/24.jpeg,HouseObjects,1,stim/objects/HouseObjects/flyswatter.png,0.5,2,0.2,0.15,left,35,2020-12-08_13h33.24.900,premup-three_ses-02_part-02_label-phase2,3.2.4,Win32,60,,,,,,,,,,,,,,,,,1,0,330,35,1,329,2,,,,,,
left,0.53399992,0,275,,,,,,,,,,,,,2,4,3,stim/43.jpeg,Instruments,2,stim/objects/Instruments/gong2.png,0.3,4,0.2,-0.15,right,35,2020-12-08_13h33.24.900,premup-three_ses-02_part-02_label-phase2,3.2.4,Win32,60,,,,,,,,,,,,,,,,,1,0,330,121,1,329,1,,,,,,
right,0.495999813,1,276,,,,,,,,,,,,,3,5,4,stim/54.jpeg,Instruments,2,stim/objects/Instruments/saxophone2.png,0.9,1,-0.2,0.15,right,35,2020-12-08_13h33.24.900,premup-three_ses-02_part-02_label-phase2,3.2.4,Win32,60,,,,,,,,,,,,,,,,,1,0,330,229,1,329,1,,,,,,
left,0.552999973,1,277,,,,,,,,,,,,,3,6,1,stim/61.jpeg,HouseObjects,1,stim/objects/HouseObjects/pan.png,0.9,1,-0.2,0.15,left,35,2020-12-08_13h33.24.900,premup-three_ses-02_part-02_label-phase2,3.2.4,Win32,60,,,,,,,,,,,,,,,,,1,0,330,238,1,329,2,,,,,,
right,0.526000023,1,278,,,,,,,,,,,,,3,5,3,stim/53.jpeg,Instruments,2,stim/objects/Instruments/musicsheet.png,0.9,3,-0.2,-0.15,right,35,2020-12-08_13h33.24.900,premup-three_ses-02_part-02_label-phase2,3.2.4,Win32,60,,,,,,,,,,,,,,,,,1,0,330,192,1,329,2,,,,,,
right,0.365999937,0,279,,,,,,,,,,,,,3,6,2,stim/62.jpeg,HouseObjects,1,stim/objects/HouseObjects/pitcher.png,0.9,4,0.2,-0.15,left,35,2020-12-08_13h33.24.900,premup-three_ses-02_part-02_label-phase2,3.2.4,Win32,60,,,,,,,,,,,,,,,,,1,0,330,259,1,329,2,,,,,,
left,0.540999889,1,280,,,,,,,,,,,,,3,6,4,stim/64.jpeg,HouseObjects,1,stim/objects/HouseObjects/towel2.png,0.9,2,0.2,0.15,left,35,2020-12-08_13h33.24.900,premup-three_ses-02_part-02_label-phase2,3.2.4,Win32,60,,,,,,,,,,,,,,,,,1,0,330,317,1,329,1,,,,,,
left,0.528999805,1,281,,,,,,,,,,,,,3,6,3,stim/63.jpeg,HouseObjects,1,stim/objects/HouseObjects/sponge2.png,0.9,4,0.2,-0.15,left,35,2020-12-08_13h33.24.900,premup-three_ses-02_part-02_label-phase2,3.2.4,Win32,60,,,,,,,,,,,,,,,,,1,0,330,312,1,329,1,,,,,,
left,0.377999783,1,282,,,,,,,,,,,,,3,6,1,stim/61.jpeg,HouseObjects,1,stim/objects/HouseObjects/lintroller.png,0.9,4,0.2,-0.15,left,35,2020-12-08_13h33.24.900,premup-three_ses-02_part-02_label-phase2,3.2.4,Win32,60,,,,,,,,,,,,,,,,,1,0,330,286,1,329,2,,,,,,
left,0.447999954,1,283,,,,,,,,,,,,,3,6,1,stim/61.jpeg,HouseObjects,1,stim/objects/HouseObjects/knife.png,0.9,2,0.2,0.15,left,35,2020-12-08_13h33.24.900,premup-three_ses-02_part-02_label-phase2,3.2.4,Win32,60,,,,,,,,,,,,,,,,,1,0,330,290,1,329,2,,,,,,
right,0.539999962,1,284,,,,,,,,,,,,,3,5,3,stim/53.jpeg,Instruments,2,stim/objects/Instruments/marimba2.png,0.9,1,-0.2,0.15,right,35,2020-12-08_13h33.24.900,premup-three_ses-02_part-02_label-phase2,3.2.4,Win32,60,,,,,,,,,,,,,,,,,1,0,330,220,1,329,1,,,,,,
left,0.572999954,1,285,,,,,,,,,,,,,1,1,3,stim/13.jpeg,HouseObjects,1,stim/objects/HouseObjects/safetypin.png,0.5,1,-0.2,0.15,left,35,2020-12-08_13h33.24.900,premup-three_ses-02_part-02_label-phase2,3.2.4,Win32,60,,,,,,,,,,,,,,,,,1,0,330,14,1,329,1,,,,,,
left,0.787999868,1,286,,,,,,,,,,,,,2,3,4,stim/34.jpeg,HouseObjects,1,stim/objects/HouseObjects/vacuumcleaner.png,0.3,3,-0.2,-0.15,left,35,2020-12-08_13h33.24.900,premup-three_ses-02_part-02_label-phase2,3.2.4,Win32,60,,,,,,,,,,,,,,,,,1,0,330,63,1,329,1,,,,,,
right,0.434000015,1,287,,,,,,,,,,,,,3,5,4,stim/54.jpeg,Instruments,2,stim/objects/Instruments/musicsheet.png,0.9,2,0.2,0.15,right,35,2020-12-08_13h33.24.900,premup-three_ses-02_part-02_label-phase2,3.2.4,Win32,60,,,,,,,,,,,,,,,,,1,0,330,177,1,329,2,,,,,,
left,0.497999907,1,288,,,,,,,,,,,,,3,6,3,stim/63.jpeg,HouseObjects,1,stim/objects/HouseObjects/pan.png,0.9,1,-0.2,0.15,left,35,2020-12-08_13h33.24.900,premup-three_ses-02_part-02_label-phase2,3.2.4,Win32,60,,,,,,,,,,,,,,,,,1,0,330,268,1,329,2,,,,,,
right,0.594000101,1,289,,,,,,,,,,,,,3,5,2,stim/52.jpeg,Instruments,2,stim/objects/Instruments/marimba.png,0.9,3,-0.2,-0.15,right,35,2020-12-08_13h33.24.900,premup-three_ses-02_part-02_label-phase2,3.2.4,Win32,60,,,,,,,,,,,,,,,,,1,0,330,155,1,329,2,,,,,,
right,0.534999847,1,290,,,,,,,,,,,,,1,2,4,stim/24.jpeg,Instruments,2,stim/objects/Instruments/speaker.png,0.5,1,-0.2,0.15,right,35,2020-12-08_13h33.24.900,premup-three_ses-02_part-02_label-phase2,3.2.4,Win32,60,,,,,,,,,,,,,,,,,1,0,330,55,1,329,1,,,,,,
right,0.48699975,1,291,,,,,,,,,,,,,3,5,4,stim/54.jpeg,Instruments,2,stim/objects/Instruments/oboe.png,0.9,1,-0.2,0.15,right,35,2020-12-08_13h33.24.900,premup-three_ses-02_part-02_label-phase2,3.2.4,Win32,60,,,,,,,,,,,,,,,,,1,0,330,209,1,329,2,,,,,,
right,0.613999844,0,292,,,,,,,,,,,,,1,1,2,stim/12.jpeg,HouseObjects,1,stim/objects/HouseObjects/dustpan.png,0.5,3,-0.2,-0.15,left,35,2020-12-08_13h33.24.900,premup-three_ses-02_part-02_label-phase2,3.2.4,Win32,60,,,,,,,,,,,,,,,,,1,0,330,9,1,329,2,,,,,,
right,0.444000006,1,293,,,,,,,,,,,,,3,5,3,stim/53.jpeg,Instruments,2,stim/objects/Instruments/oboe.png,0.9,4,0.2,-0.15,right,35,2020-12-08_13h33.24.900,premup-three_ses-02_part-02_label-phase2,3.2.4,Win32,60,,,,,,,,,,,,,,,,,1,0,330,144,1,329,2,,,,,,
right,0.611999989,0,294,,,,,,,,,,,,,3,5,2,stim/52.jpeg,HouseObjects,1,stim/objects/HouseObjects/safetypin2.png,0.1,4,0.2,-0.15,left,35,2020-12-08_13h33.24.900,premup-three_ses-02_part-02_label-phase2,3.2.4,Win32,60,,,,,,,,,,,,,,,,,1,0,330,139,1,329,1,,,,,,
left,0.477999926,0,295,,,,,,,,,,,,,3,6,3,stim/63.jpeg,Instruments,2,stim/objects/Instruments/speaker2.png,0.1,2,0.2,0.15,right,35,2020-12-08_13h33.24.900,premup-three_ses-02_part-02_label-phase2,3.2.4,Win32,60,,,,,,,,,,,,,,,,,1,0,330,320,1,329,1,,,,,,
left,0.528000116,0,296,,,,,,,,,,,,,1,1,2,stim/12.jpeg,Instruments,2,stim/objects/Instruments/electricdrumset.png,0.5,1,-0.2,0.15,right,35,2020-12-08_13h33.24.900,premup-three_ses-02_part-02_label-phase2,3.2.4,Win32,60,,,,,,,,,,,,,,,,,1,0,330,21,1,329,2,,,,,,
left,0.357999802,1,297,,,,,,,,,,,,,3,6,3,stim/63.jpeg,HouseObjects,1,stim/objects/HouseObjects/match.png,0.9,1,-0.2,0.15,left,35,2020-12-08_13h33.24.900,premup-three_ses-02_part-02_label-phase2,3.2.4,Win32,60,,,,,,,,,,,,,,,,,1,0,330,272,1,329,2,,,,,,
left,0.505999804,1,298,,,,,,,,,,,,,1,2,3,stim/23.jpeg,HouseObjects,1,stim/objects/HouseObjects/sponge.png,0.5,3,-0.2,-0.15,left,35,2020-12-08_13h33.24.900,premup-three_ses-02_part-02_label-phase2,3.2.4,Win32,60,,,,,,,,,,,,,,,,,1,0,330,42,1,329,1,,,,,,
right,0.499000072,1,299,,,,,,,,,,,,,3,5,2,stim/52.jpeg,Instruments,2,stim/objects/Instruments/oboe.png,0.9,2,0.2,0.15,right,35,2020-12-08_13h33.24.900,premup-three_ses-02_part-02_label-phase2,3.2.4,Win32,60,,,,,,,,,,,,,,,,,1,0,330,219,1,329,2,,,,,,
right,0.430000067,1,300,,,,,,,,,,,,,3,5,3,stim/53.jpeg,Instruments,2,stim/objects/Instruments/musicstand.png,0.9,1,-0.2,0.15,right,35,2020-12-08_13h33.24.900,premup-three_ses-02_part-02_label-phase2,3.2.4,Win32,60,,,,,,,,,,,,,,,,,1,0,330,188,1,329,2,,,,,,
right,0.407999992,1,301,,,,,,,,,,,,,3,5,2,stim/52.jpeg,Instruments,2,stim/objects/Instruments/metronome.png,0.9,4,0.2,-0.15,right,35,2020-12-08_13h33.24.900,premup-three_ses-02_part-02_label-phase2,3.2.4,Win32,60,,,,,,,,,,,,,,,,,1,0,330,211,1,329,2,,,,,,
right,0.443000078,1,302,,,,,,,,,,,,,3,5,4,stim/54.jpeg,Instruments,2,stim/objects/Instruments/oboe.png,0.9,3,-0.2,-0.15,right,35,2020-12-08_13h33.24.900,premup-three_ses-02_part-02_label-phase2,3.2.4,Win32,60,,,,,,,,,,,,,,,,,1,0,330,169,1,329,2,,,,,,
right,0.441999912,1,303,,,,,,,,,,,,,3,5,4,stim/54.jpeg,Instruments,2,stim/objects/Instruments/metronome.png,0.9,2,0.2,0.15,right,35,2020-12-08_13h33.24.900,premup-three_ses-02_part-02_label-phase2,3.2.4,Win32,60,,,,,,,,,,,,,,,,,1,0,330,161,1,329,2,,,,,,
right,0.476999998,1,304,,,,,,,,,,,,,2,3,3,stim/33.jpeg,Instruments,2,stim/objects/Instruments/keyboard.png,0.7,4,0.2,-0.15,right,35,2020-12-08_13h33.24.900,premup-three_ses-02_part-02_label-phase2,3.2.4,Win32,60,,,,,,,,,,,,,,,,,1,0,330,82,1,329,2,,,,,,
right,0.512000084,1,305,,,,,,,,,,,,,2,4,2,stim/42.jpeg,Instruments,2,stim/objects/Instruments/harmonica2.png,0.3,2,0.2,0.15,right,35,2020-12-08_13h33.24.900,premup-three_ses-02_part-02_label-phase2,3.2.4,Win32,60,,,,,,,,,,,,,,,,,1,0,330,124,1,329,1,,,,,,
right,0.630999804,1,306,,,,,,,,,,,,,2,4,4,stim/44.jpeg,Instruments,2,stim/objects/Instruments/hihat2.png,0.3,2,0.2,0.15,right,35,2020-12-08_13h33.24.900,premup-three_ses-02_part-02_label-phase2,3.2.4,Win32,60,,,,,,,,,,,,,,,,,1,0,330,126,1,329,1,,,,,,
right,0.379999876,0,307,,,,,,,,,,,,,3,5,2,stim/52.jpeg,HouseObjects,1,stim/objects/HouseObjects/recyclingbin2.png,0.1,3,-0.2,-0.15,left,35,2020-12-08_13h33.24.900,premup-three_ses-02_part-02_label-phase2,3.2.4,Win32,60,,,,,,,,,,,,,,,,,1,0,330,135,1,329,1,,,,,,
left,0.544999838,1,308,,,,,,,,,,,,,2,4,3,stim/43.jpeg,HouseObjects,1,stim/objects/HouseObjects/handbrush.png,0.7,2,0.2,0.15,left,35,2020-12-08_13h33.24.900,premup-three_ses-02_part-02_label-phase2,3.2.4,Win32,60,,,,,,,,,,,,,,,,,1,0,330,105,1,329,2,,,,,,
left,0.459000111,0,309,,,,,,,,,,,,,3,5,2,stim/52.jpeg,Instruments,2,stim/objects/Instruments/record2.png,0.9,2,0.2,0.15,right,35,2020-12-08_13h33.24.900,premup-three_ses-02_part-02_label-phase2,3.2.4,Win32,60,,,,,,,,,,,,,,,,,1,0,330,227,1,329,1,,,,,,
left,0.568999767,1,310,,,,,,,,,,,,,3,6,1,stim/61.jpeg,HouseObjects,1,stim/objects/HouseObjects/match.png,0.9,1,-0.2,0.15,left,35,2020-12-08_13h33.24.900,premup-three_ses-02_part-02_label-phase2,3.2.4,Win32,60,,,,,,,,,,,,,,,,,1,0,330,262,1,329,2,,,,,,
right,0.460000038,0,311,,,,,,,,,,,,,2,4,2,stim/42.jpeg,HouseObjects,1,stim/objects/HouseObjects/key.png,0.7,1,-0.2,0.15,left,35,2020-12-08_13h33.24.900,premup-three_ses-02_part-02_label-phase2,3.2.4,Win32,60,,,,,,,,,,,,,,,,,1,0,330,104,1,329,2,,,,,,
right,0.553999901,0,312,,,,,,,,,,,,,2,4,4,stim/44.jpeg,HouseObjects,1,stim/objects/HouseObjects/hairdryer2.png,0.7,3,-0.2,-0.15,left,35,2020-12-08_13h33.24.900,premup-three_ses-02_part-02_label-phase2,3.2.4,Win32,60,,,,,,,,,,,,,,,,,1,0,330,114,1,329,1,,,,,,
right,0.43599987,0,313,,,,,,,,,,,,,1,1,3,stim/13.jpeg,HouseObjects,1,stim/objects/HouseObjects/cushion.png,0.5,3,-0.2,-0.15,left,35,2020-12-08_13h33.24.900,premup-three_ses-02_part-02_label-phase2,3.2.4,Win32,60,,,,,,,,,,,,,,,,,1,0,330,6,1,329,2,,,,,,
left,0.450999975,1,314,,,,,,,,,,,,,3,6,4,stim/64.jpeg,HouseObjects,1,stim/objects/HouseObjects/match.png,0.9,1,-0.2,0.15,left,35,2020-12-08_13h33.24.900,premup-three_ses-02_part-02_label-phase2,3.2.4,Win32,60,,,,,,,,,,,,,,,,,1,0,330,277,1,329,2,,,,,,
left,0.52699995,1,315,,,,,,,,,,,,,3,6,2,stim/62.jpeg,HouseObjects,1,stim/objects/HouseObjects/pan.png,0.9,2,0.2,0.15,left,35,2020-12-08_13h33.24.900,premup-three_ses-02_part-02_label-phase2,3.2.4,Win32,60,,,,,,,,,,,,,,,,,1,0,330,283,1,329,2,,,,,,
left,0.610999823,1,316,,,,,,,,,,,,,3,6,3,stim/63.jpeg,HouseObjects,1,stim/objects/HouseObjects/lintroller.png,0.9,4,0.2,-0.15,left,35,2020-12-08_13h33.24.900,premup-three_ses-02_part-02_label-phase2,3.2.4,Win32,60,,,,,,,,,,,,,,,,,1,0,330,236,1,329,2,,,,,,
left,0.454999924,0,317,,,,,,,,,,,,,3,5,4,stim/54.jpeg,Instruments,2,stim/objects/Instruments/oboe.png,0.9,2,0.2,0.15,right,35,2020-12-08_13h33.24.900,premup-three_ses-02_part-02_label-phase2,3.2.4,Win32,60,,,,,,,,,,,,,,,,,1,0,330,189,1,329,2,,,,,,
right,0.507999897,0,318,,,,,,,,,,,,,2,4,4,stim/44.jpeg,HouseObjects,1,stim/objects/HouseObjects/ironingboard2.png,0.7,1,-0.2,0.15,left,35,2020-12-08_13h33.24.900,premup-three_ses-02_part-02_label-phase2,3.2.4,Win32,60,,,,,,,,,,,,,,,,,1,0,330,118,1,329,1,,,,,,
left,0.631999731,0,319,,,,,,,,,,,,,3,5,1,stim/51.jpeg,Instruments,2,stim/objects/Instruments/oboe.png,0.9,3,-0.2,-0.15,right,35,2020-12-08_13h33.24.900,premup-three_ses-02_part-02_label-phase2,3.2.4,Win32,60,,,,,,,,,,,,,,,,,1,0,330,174,1,329,2,,,,,,
left,0.503000021,1,320,,,,,,,,,,,,,3,6,1,stim/61.jpeg,HouseObjects,1,stim/objects/HouseObjects/knife.png,0.9,3,-0.2,-0.15,left,35,2020-12-08_13h33.24.900,premup-three_ses-02_part-02_label-phase2,3.2.4,Win32,60,,,,,,,,,,,,,,,,,1,0,330,230,1,329,2,,,,,,
left,0.552000046,0,321,,,,,,,,,,,,,2,4,1,stim/41.jpeg,Instruments,2,stim/objects/Instruments/guitarcase2.png,0.3,4,0.2,-0.15,right,35,2020-12-08_13h33.24.900,premup-three_ses-02_part-02_label-phase2,3.2.4,Win32,60,,,,,,,,,,,,,,,,,1,0,330,123,1,329,1,,,,,,
right,0.574999809,1,322,,,,,,,,,,,,,3,5,3,stim/53.jpeg,Instruments,2,stim/objects/Instruments/musicstand.png,0.9,2,0.2,0.15,right,35,2020-12-08_13h33.24.900,premup-three_ses-02_part-02_label-phase2,3.2.4,Win32,60,,,,,,,,,,,,,,,,,1,0,330,208,1,329,2,,,,,,
right,0.49000001,1,323,,,,,,,,,,,,,3,5,1,stim/51.jpeg,Instruments,2,stim/objects/Instruments/pipepiano2.png,0.9,1,-0.2,0.15,right,35,2020-12-08_13h33.24.900,premup-three_ses-02_part-02_label-phase2,3.2.4,Win32,60,,,,,,,,,,,,,,,,,1,0,330,226,1,329,1,,,,,,
left,0.678999901,1,324,,,,,,,,,,,,,1,2,1,stim/21.jpeg,HouseObjects,1,stim/objects/HouseObjects/saw.png,0.5,1,-0.2,0.15,left,35,2020-12-08_13h33.24.900,premup-three_ses-02_part-02_label-phase2,3.2.4,Win32,60,,,,,,,,,,,,,,,,,1,0,330,40,1,329,1,,,,,,
right,0.424999952,1,325,,,,,,,,,,,,,3,5,2,stim/52.jpeg,Instruments,2,stim/objects/Instruments/marimba.png,0.9,2,0.2,0.15,right,35,2020-12-08_13h33.24.900,premup-three_ses-02_part-02_label-phase2,3.2.4,Win32,60,,,,,,,,,,,,,,,,,1,0,330,195,1,329,2,,,,,,
right,0.486999989,0,326,,,,,,,,,,,,,2,4,2,stim/42.jpeg,HouseObjects,1,stim/objects/HouseObjects/ironingboard.png,0.7,1,-0.2,0.15,left,35,2020-12-08_13h33.24.900,premup-three_ses-02_part-02_label-phase2,3.2.4,Win32,60,,,,,,,,,,,,,,,,,1,0,330,108,1,329,2,,,,,,
left,0.49399972,1,327,,,,,,,,,,,,,3,6,1,stim/61.jpeg,HouseObjects,1,stim/objects/HouseObjects/pitcher.png,0.9,2,0.2,0.15,left,35,2020-12-08_13h33.24.900,premup-three_ses-02_part-02_label-phase2,3.2.4,Win32,60,,,,,,,,,,,,,,,,,1,0,330,274,1,329,2,,,,,,
,,0,328,,,,,,,,,,,,,3,6,3,stim/63.jpeg,HouseObjects,1,stim/objects/HouseObjects/knife.png,0.9,2,0.2,0.15,left,35,2020-12-08_13h33.24.900,premup-three_ses-02_part-02_label-phase2,3.2.4,Win32,60,,,,,,,,,,,,,,,,,1,0,330,240,1,329,2,,,,,,
left,0.388000011,1,329,,,,,,,,,,,,,3,6,3,stim/63.jpeg,HouseObjects,1,stim/objects/HouseObjects/pan.png,0.9,1,-0.2,0.15,left,35,2020-12-08_13h33.24.900,premup-three_ses-02_part-02_label-phase2,3.2.4,Win32,60,,,,,,,,,,,,,,,,,1,0,330,308,1,329,2,,,,,,
left,0.433999777,1,330,,,,,,,,,,,,,3,5,4,stim/54.jpeg,HouseObjects,1,stim/objects/HouseObjects/rubbergloves2.png,0.1,1,-0.2,0.15,left,35,2020-12-08_13h33.24.900,premup-three_ses-02_part-02_label-phase2,3.2.4,Win32,60,,,,,,,,,,,,,,,,,1,0,330,137,1,329,1,,,,,,
left,0.404000044,1,331,,,,,,,,,,,,,3,6,4,stim/64.jpeg,HouseObjects,1,stim/objects/HouseObjects/match.png,0.9,4,0.2,-0.15,left,35,2020-12-08_13h33.24.900,premup-three_ses-02_part-02_label-phase2,3.2.4,Win32,60,,,,,,,,,,,,,,,,,1,0,330,297,1,329,2,,,,,,
left,0.31799984,0,332,,,,,,,,,,,,,3,5,1,stim/51.jpeg,Instruments,2,stim/objects/Instruments/oboe.png,0.9,3,-0.2,-0.15,right,35,2020-12-08_13h33.24.900,premup-three_ses-02_part-02_label-phase2,3.2.4,Win32,60,,,,,,,,,,,,,,,,,1,0,330,154,1,329,2,,,,,,
right,0.524999857,1,333,,,,,,,,,,,,,3,5,4,stim/54.jpeg,Instruments,2,stim/objects/Instruments/metronome.png,0.9,1,-0.2,0.15,right,35,2020-12-08_13h33.24.900,premup-three_ses-02_part-02_label-phase2,3.2.4,Win32,60,,,,,,,,,,,,,,,,,1,0,330,201,1,329,2,,,,,,
right,0.411000013,1,334,,,,,,,,,,,,,2,3,3,stim/33.jpeg,Instruments,2,stim/objects/Instruments/tuba.png,0.7,4,0.2,-0.15,right,35,2020-12-08_13h33.24.900,premup-three_ses-02_part-02_label-phase2,3.2.4,Win32,60,,,,,,,,,,,,,,,,,1,0,330,86,1,329,1,,,,,,
right,0.506999969,0,335,,,,,,,,,,,,,1,2,4,stim/24.jpeg,HouseObjects,1,stim/objects/HouseObjects/hairdryer.png,0.5,2,0.2,0.15,left,35,2020-12-08_13h33.24.900,premup-three_ses-02_part-02_label-phase2,3.2.4,Win32,60,,,,,,,,,,,,,,,,,1,0,330,39,1,329,2,,,,,,
left,0.589999914,0,336,,,,,,,,,,,,,3,5,4,stim/54.jpeg,Instruments,2,stim/objects/Instruments/musicstand.png,0.9,4,0.2,-0.15,right,35,2020-12-08_13h33.24.900,premup-three_ses-02_part-02_label-phase2,3.2.4,Win32,60,,,,,,,,,,,,,,,,,1,0,330,173,1,329,2,,,,,,
right,0.703999758,0,337,,,,,,,,,,,,,1,2,2,stim/22.jpeg,HouseObjects,1,stim/objects/HouseObjects/scale.png,0.5,2,0.2,0.15,left,35,2020-12-08_13h33.24.900,premup-three_ses-02_part-02_label-phase2,3.2.4,Win32,60,,,,,,,,,,,,,,,,,1,0,330,41,1,329,1,,,,,,
left,0.501999855,1,338,,,,,,,,,,,,,2,3,1,stim/31.jpeg,HouseObjects,1,stim/objects/HouseObjects/doormat2.png,0.3,3,-0.2,-0.15,left,35,2020-12-08_13h33.24.900,premup-three_ses-02_part-02_label-phase2,3.2.4,Win32,60,,,,,,,,,,,,,,,,,1,0,330,68,1,329,1,,,,,,
left,0.542999983,1,339,,,,,,,,,,,,,3,6,3,stim/63.jpeg,HouseObjects,1,stim/objects/HouseObjects/thread2.png,0.9,3,-0.2,-0.15,left,35,2020-12-08_13h33.24.900,premup-three_ses-02_part-02_label-phase2,3.2.4,Win32,60,,,,,,,,,,,,,,,,,1,0,330,316,1,329,1,,,,,,
left,0.438999891,0,340,,,,,,,,,,,,,2,4,1,stim/41.jpeg,Instruments,2,stim/objects/Instruments/keyboard2.png,0.3,4,0.2,-0.15,right,35,2020-12-08_13h33.24.900,premup-three_ses-02_part-02_label-phase2,3.2.4,Win32,60,,,,,,,,,,,,,,,,,1,0,330,127,1,329,1,,,,,,
left,0.474999905,0,341,,,,,,,,,,,,,2,4,4,stim/44.jpeg,Instruments,2,stim/objects/Instruments/grandpiano2.png,0.3,4,0.2,-0.15,right,35,2020-12-08_13h33.24.900,premup-three_ses-02_part-02_label-phase2,3.2.4,Win32,60,,,,,,,,,,,,,,,,,1,0,330,122,1,329,1,,,,,,
left,0.597000122,1,342,,,,,,,,,,,,,3,6,2,stim/62.jpeg,HouseObjects,1,stim/objects/HouseObjects/pan.png,0.9,4,0.2,-0.15,left,35,2020-12-08_13h33.24.900,premup-three_ses-02_part-02_label-phase2,3.2.4,Win32,60,,,,,,,,,,,,,,,,,1,0,330,303,1,329,2,,,,,,
right,0.51699996,0,343,,,,,,,,,,,,,3,6,4,stim/64.jpeg,HouseObjects,1,stim/objects/HouseObjects/pitcher.png,0.9,2,0.2,0.15,left,35,2020-12-08_13h33.24.900,premup-three_ses-02_part-02_label-phase2,3.2.4,Win32,60,,,,,,,,,,,,,,,,,1,0,330,309,1,329,2,,,,,,
left,0.536999941,1,344,,,,,,,,,,,,,3,6,1,stim/61.jpeg,HouseObjects,1,stim/objects/HouseObjects/match.png,0.9,3,-0.2,-0.15,left,35,2020-12-08_13h33.24.900,premup-three_ses-02_part-02_label-phase2,3.2.4,Win32,60,,,,,,,,,,,,,,,,,1,0,330,242,1,329,2,,,,,,
left,0.473999739,1,345,,,,,,,,,,,,,3,6,3,stim/63.jpeg,HouseObjects,1,stim/objects/HouseObjects/lintroller.png,0.9,1,-0.2,0.15,left,35,2020-12-08_13h33.24.900,premup-three_ses-02_part-02_label-phase2,3.2.4,Win32,60,,,,,,,,,,,,,,,,,1,0,330,296,1,329,2,,,,,,
left,0.434000015,1,346,,,,,,,,,,,,,3,6,3,stim/63.jpeg,HouseObjects,1,stim/objects/HouseObjects/pitcher.png,0.9,3,-0.2,-0.15,left,35,2020-12-08_13h33.24.900,premup-three_ses-02_part-02_label-phase2,3.2.4,Win32,60,,,,,,,,,,,,,,,,,1,0,330,264,1,329,2,,,,,,
left,0.49399972,0,347,,,,,,,,,,,,,2,3,4,stim/34.jpeg,Instruments,2,stim/objects/Instruments/hihat.png,0.7,4,0.2,-0.15,right,35,2020-12-08_13h33.24.900,premup-three_ses-02_part-02_label-phase2,3.2.4,Win32,60,,,,,,,,,,,,,,,,,1,0,330,71,1,329,2,,,,,,
right,0.554000139,1,348,,,,,,,,,,,,,3,5,4,stim/54.jpeg,Instruments,2,stim/objects/Instruments/metronome.png,0.9,1,-0.2,0.15,right,35,2020-12-08_13h33.24.900,premup-three_ses-02_part-02_label-phase2,3.2.4,Win32,60,,,,,,,,,,,,,,,,,1,0,330,181,1,329,2,,,,,,
left,0.494999886,1,349,,,,,,,,,,,,,2,4,1,stim/41.jpeg,HouseObjects,1,stim/objects/HouseObjects/iron.png,0.7,4,0.2,-0.15,left,35,2020-12-08_13h33.24.900,premup-three_ses-02_part-02_label-phase2,3.2.4,Win32,60,,,,,,,,,,,,,,,,,1,0,330,107,1,329,2,,,,,,
left,0.396999836,1,350,,,,,,,,,,,,,3,6,4,stim/64.jpeg,HouseObjects,1,stim/objects/HouseObjects/lintroller.png,0.9,4,0.2,-0.15,left,35,2020-12-08_13h33.24.900,premup-three_ses-02_part-02_label-phase2,3.2.4,Win32,60,,,,,,,,,,,,,,,,,1,0,330,301,1,329,2,,,,,,
right,0.59100008,1,351,,,,,,,,,,,,,3,5,3,stim/53.jpeg,Instruments,2,stim/objects/Instruments/marimba.png,0.9,4,0.2,-0.15,right,35,2020-12-08_13h33.24.900,premup-three_ses-02_part-02_label-phase2,3.2.4,Win32,60,,,,,,,,,,,,,,,,,1,0,330,180,1,329,2,,,,,,
left,0.501999855,1,352,,,,,,,,,,,,,3,6,4,stim/64.jpeg,HouseObjects,1,stim/objects/HouseObjects/pan.png,0.9,2,0.2,0.15,left,35,2020-12-08_13h33.24.900,premup-three_ses-02_part-02_label-phase2,3.2.4,Win32,60,,,,,,,,,,,,,,,,,1,0,330,293,1,329,2,,,,,,
left,0.387000084,0,353,,,,,,,,,,,,,3,5,2,stim/52.jpeg,Instruments,2,stim/objects/Instruments/musicsheet.png,0.9,4,0.2,-0.15,right,35,2020-12-08_13h33.24.900,premup-three_ses-02_part-02_label-phase2,3.2.4,Win32,60,,,,,,,,,,,,,,,,,1,0,330,167,1,329,2,,,,,,
left,0.56099987,1,354,,,,,,,,,,,,,2,4,3,stim/43.jpeg,HouseObjects,1,stim/objects/HouseObjects/glassmop2.png,0.7,3,-0.2,-0.15,left,35,2020-12-08_13h33.24.900,premup-three_ses-02_part-02_label-phase2,3.2.4,Win32,60,,,,,,,,,,,,,,,,,1,0,330,113,1,329,1,,,,,,
left,0.482000113,1,355,,,,,,,,,,,,,3,6,1,stim/61.jpeg,HouseObjects,1,stim/objects/HouseObjects/pitcher.png,0.9,3,-0.2,-0.15,left,35,2020-12-08_13h33.24.900,premup-three_ses-02_part-02_label-phase2,3.2.4,Win32,60,,,,,,,,,,,,,,,,,1,0,330,294,1,329,2,,,,,,
left,0.518999815,1,356,,,,,,,,,,,,,3,6,2,stim/62.jpeg,HouseObjects,1,stim/objects/HouseObjects/match.png,0.9,4,0.2,-0.15,left,35,2020-12-08_13h33.24.900,premup-three_ses-02_part-02_label-phase2,3.2.4,Win32,60,,,,,,,,,,,,,,,,,1,0,330,307,1,329,2,,,,,,
left,0.424999952,0,357,,,,,,,,,,,,,2,3,3,stim/33.jpeg,Instruments,2,stim/objects/Instruments/maraca.png,0.7,4,0.2,-0.15,right,35,2020-12-08_13h33.24.900,premup-three_ses-02_part-02_label-phase2,3.2.4,Win32,60,,,,,,,,,,,,,,,,,1,0,330,74,1,329,2,,,,,,
left,0.480999947,1,358,,,,,,,,,,,,,3,6,4,stim/64.jpeg,HouseObjects,1,stim/objects/HouseObjects/knife.png,0.9,2,0.2,0.15,left,35,2020-12-08_13h33.24.900,premup-three_ses-02_part-02_label-phase2,3.2.4,Win32,60,,,,,,,,,,,,,,,,,1,0,330,245,1,329,2,,,,,,
left,0.43599987,1,359,,,,,,,,,,,,,3,6,2,stim/62.jpeg,HouseObjects,1,stim/objects/HouseObjects/knife.png,0.9,4,0.2,-0.15,left,35,2020-12-08_13h33.24.900,premup-three_ses-02_part-02_label-phase2,3.2.4,Win32,60,,,,,,,,,,,,,,,,,1,0,330,235,1,329,2,,,,,,
right,0.402999878,1,360,,,,,,,,,,,,,3,5,2,stim/52.jpeg,Instruments,2,stim/objects/Instruments/marimba.png,0.9,2,0.2,0.15,right,35,2020-12-08_13h33.24.900,premup-three_ses-02_part-02_label-phase2,3.2.4,Win32,60,,,,,,,,,,,,,,,,,1,0,330,175,1,329,2,,,,,,
right,0.592000008,1,361,,,,,,,,,,,,,3,5,1,stim/51.jpeg,Instruments,2,stim/objects/Instruments/musicsheet.png,0.9,4,0.2,-0.15,right,35,2020-12-08_13h33.24.900,premup-three_ses-02_part-02_label-phase2,3.2.4,Win32,60,,,,,,,,,,,,,,,,,1,0,330,162,1,329,2,,,,,,
right,0.444000006,1,362,,,,,,,,,,,,,2,3,3,stim/33.jpeg,Instruments,2,stim/objects/Instruments/drums2.png,0.7,1,-0.2,0.15,right,35,2020-12-08_13h33.24.900,premup-three_ses-02_part-02_label-phase2,3.2.4,Win32,60,,,,,,,,,,,,,,,,,1,0,330,90,1,329,1,,,,,,
right,0.504999876,0,363,,,,,,,,,,,,,3,6,1,stim/61.jpeg,HouseObjects,1,stim/objects/HouseObjects/saw2.png,0.9,1,-0.2,0.15,left,35,2020-12-08_13h33.24.900,premup-three_ses-02_part-02_label-phase2,3.2.4,Win32,60,,,,,,,,,,,,,,,,,1,0,330,310,1,329,1,,,,,,
left,0.520999908,1,364,,,,,,,,,,,,,3,6,2,stim/62.jpeg,HouseObjects,1,stim/objects/HouseObjects/scale2.png,0.9,3,-0.2,-0.15,left,35,2020-12-08_13h33.24.900,premup-three_ses-02_part-02_label-phase2,3.2.4,Win32,60,,,,,,,,,,,,,,,,,1,0,330,311,1,329,1,,,,,,
right,0.553999901,1,365,,,,,,,,,,,,,2,3,3,stim/33.jpeg,Instruments,2,stim/objects/Instruments/laud.png,0.7,3,-0.2,-0.15,right,35,2020-12-08_13h33.24.900,premup-three_ses-02_part-02_label-phase2,3.2.4,Win32,60,,,,,,,,,,,,,,,,,1,0,330,78,1,329,2,,,,,,
right,0.565000057,1,366,,,,,,,,,,,,,1,2,1,stim/21.jpeg,Instruments,2,stim/objects/Instruments/grandpiano.png,0.5,3,-0.2,-0.15,right,35,2020-12-08_13h33.24.900,premup-three_ses-02_part-02_label-phase2,3.2.4,Win32,60,,,,,,,,,,,,,,,,,1,0,330,52,1,329,2,,,,,,
right,0.619999886,1,367,,,,,,,,,,,,,3,5,1,stim/51.jpeg,Instruments,2,stim/objects/Instruments/musicstand.png,0.9,4,0.2,-0.15,right,35,2020-12-08_13h33.24.900,premup-three_ses-02_part-02_label-phase2,3.2.4,Win32,60,,,,,,,,,,,,,,,,,1,0,330,198,1,329,2,,,,,,
left,0.480000019,1,368,,,,,,,,,,,,,3,6,2,stim/62.jpeg,HouseObjects,1,stim/objects/HouseObjects/knife.png,0.9,4,0.2,-0.15,left,35,2020-12-08_13h33.24.900,premup-three_ses-02_part-02_label-phase2,3.2.4,Win32,60,,,,,,,,,,,,,,,,,1,0,330,275,1,329,2,,,,,,
right,0.437999725,0,369,,,,,,,,,,,,,3,6,1,stim/61.jpeg,HouseObjects,1,stim/objects/HouseObjects/vacuumcleaner2.png,0.9,1,-0.2,0.15,left,35,2020-12-08_13h33.24.900,premup-three_ses-02_part-02_label-phase2,3.2.4,Win32,60,,,,,,,,,,,,,,,,,1,0,330,318,1,329,1,,,,,,
left,0.444999933,1,370,,,,,,,,,,,,,2,4,4,stim/44.jpeg,HouseObjects,1,stim/objects/HouseObjects/handvacuum.png,0.7,2,0.2,0.15,left,35,2020-12-08_13h33.24.900,premup-three_ses-02_part-02_label-phase2,3.2.4,Win32,60,,,,,,,,,,,,,,,,,1,0,330,106,1,329,2,,,,,,
right,0.598999977,0,371,,,,,,,,,,,,,3,5,1,stim/51.jpeg,HouseObjects,1,stim/objects/HouseObjects/knife2.png,0.1,3,-0.2,-0.15,left,35,2020-12-08_13h33.24.900,premup-three_ses-02_part-02_label-phase2,3.2.4,Win32,60,,,,,,,,,,,,,,,,,1,0,330,130,1,329,1,,,,,,
right,0.664000034,1,372,,,,,,,,,,,,,1,1,3,stim/13.jpeg,Instruments,2,stim/objects/Instruments/electricguitar.png,0.5,3,-0.2,-0.15,right,35,2020-12-08_13h33.24.900,premup-three_ses-02_part-02_label-phase2,3.2.4,Win32,60,,,,,,,,,,,,,,,,,1,0,330,22,1,329,2,,,,,,
right,0.806999922,0,373,,,,,,,,,,,,,3,5,3,stim/53.jpeg,HouseObjects,1,stim/objects/HouseObjects/remote2.png,0.1,1,-0.2,0.15,left,35,2020-12-08_13h33.24.900,premup-three_ses-02_part-02_label-phase2,3.2.4,Win32,60,,,,,,,,,,,,,,,,,1,0,330,136,1,329,1,,,,,,
left,0.542000055,1,374,,,,,,,,,,,,,3,6,3,stim/63.jpeg,HouseObjects,1,stim/objects/HouseObjects/match.png,0.9,2,0.2,0.15,left,35,2020-12-08_13h33.24.900,premup-three_ses-02_part-02_label-phase2,3.2.4,Win32,60,,,,,,,,,,,,,,,,,1,0,330,252,1,329,2,,,,,,
left,0.485999823,0,375,,,,,,,,,,,,,1,2,3,stim/23.jpeg,Instruments,2,stim/objects/Instruments/gong.png,0.5,2,0.2,0.15,right,35,2020-12-08_13h33.24.900,premup-three_ses-02_part-02_label-phase2,3.2.4,Win32,60,,,,,,,,,,,,,,,,,1,0,330,46,1,329,2,,,,,,
right,0.67599988,0,376,,,,,,,,,,,,,3,6,1,stim/61.jpeg,HouseObjects,1,stim/objects/HouseObjects/pan.png,0.9,1,-0.2,0.15,left,35,2020-12-08_13h33.24.900,premup-three_ses-02_part-02_label-phase2,3.2.4,Win32,60,,,,,,,,,,,,,,,,,1,0,330,278,1,329,2,,,,,,
right,0.504999876,1,377,,,,,,,,,,,,,3,5,2,stim/52.jpeg,Instruments,2,stim/objects/Instruments/musicsheet.png,0.9,2,0.2,0.15,right,35,2020-12-08_13h33.24.900,premup-three_ses-02_part-02_label-phase2,3.2.4,Win32,60,,,,,,,,,,,,,,,,,1,0,330,207,1,329,2,,,,,,
left,0.622999907,1,378,,,,,,,,,,,,,1,1,1,stim/11.jpeg,HouseObjects,1,stim/objects/HouseObjects/dustpan.png,0.5,4,0.2,-0.15,left,35,2020-12-08_13h33.24.900,premup-three_ses-02_part-02_label-phase2,3.2.4,Win32,60,,,,,,,,,,,,,,,,,1,0,330,4,1,329,2,,,,,,
right,0.556999922,1,379,,,,,,,,,,,,,1,1,3,stim/13.jpeg,Instruments,2,stim/objects/Instruments/flute.png,0.5,2,0.2,0.15,right,35,2020-12-08_13h33.24.900,premup-three_ses-02_part-02_label-phase2,3.2.4,Win32,60,,,,,,,,,,,,,,,,,1,0,330,18,1,329,2,,,,,,
left,0.570999861,1,380,,,,,,,,,,,,,1,2,3,stim/23.jpeg,HouseObjects,1,stim/objects/HouseObjects/hairdryer.png,0.5,4,0.2,-0.15,left,35,2020-12-08_13h33.24.900,premup-three_ses-02_part-02_label-phase2,3.2.4,Win32,60,,,,,,,,,,,,,,,,,1,0,330,34,1,329,2,,,,,,
left,0.490999937,0,381,,,,,,,,,,,,,3,5,2,stim/52.jpeg,Instruments,2,stim/objects/Instruments/metronome.png,0.9,1,-0.2,0.15,right,35,2020-12-08_13h33.24.900,premup-three_ses-02_part-02_label-phase2,3.2.4,Win32,60,,,,,,,,,,,,,,,,,1,0,330,151,1,329,2,,,,,,
