id_acc,key_resp_id.keys,key_resp_id.rt,key_resp_conf.keys,key_resp_conf.rt,assoc_acc,key_resp_assoc.keys,key_resp_assoc.rt,loc_acc,key_resp_loc.keys,key_resp_loc.rt,task_innerloop.thisRepN,task_innerloop.thisTrialN,task_innerloop.thisN,task_innerloop.thisIndex,task_innerloop.ran,task_innerloop.order,context_type,object_cat,PE_level,OvsN,obj_file,scn_file,corr_scn_cat,assoc_file,corr_scn_inst,corr_loc,participant,date,expName,psychopyVersion,OS,frameRate
1,right,1.078000069,2,5.582999945,0,1,3.597000122,0,1,3.220999956,1,0,200,99,1,199,3,2,0.1,1,stim/objects/Instruments/xylophone2.png,stim/44.jpeg,4,stim/4.png,4,2,37,2020-12-12_12h12.45.996,premup-three_ses-02_part-03_label-phase3,3.2.4,Win32,60
1,right,1.631999969,,,0,,,0,,,1,0,200,181,1,199,0,1,0,2,stim/objects/HouseObjects/bottle4.png,,0,stim/0.png,0,0,37,2020-12-12_12h12.45.996,premup-three_ses-02_part-03_label-phase3,3.2.4,Win32,60
1,left,1.390999794,2,6.680999994,0,1,5.868000031,0,3,2.616999865,1,0,200,39,1,199,2,2,0.7,1,stim/objects/Instruments/bassdrum2.png,stim/13.jpeg,1,stim/1.png,3,1,37,2020-12-12_12h12.45.996,premup-three_ses-02_part-03_label-phase3,3.2.4,Win32,60
1,right,0.98300004,,,0,,,0,,,1,0,200,149,1,199,0,1,0,2,stim/objects/HouseObjects/teapot3.png,,0,stim/0.png,0,0,37,2020-12-12_12h12.45.996,premup-three_ses-02_part-03_label-phase3,3.2.4,Win32,60
1,left,1.224999905,3,1.424999952,0,1,4.340999842,0,4,1.680000067,1,0,200,27,1,199,2,1,0.3,1,stim/objects/HouseObjects/barbecuelighter2.png,stim/14.jpeg,1,stim/1.png,4,3,37,2020-12-12_12h12.45.996,premup-three_ses-02_part-03_label-phase3,3.2.4,Win32,60
1,left,1.20600009,3,1.31099987,0,3,3.053999901,0,4,2.14199996,1,0,200,48,1,199,2,1,0.7,1,stim/objects/HouseObjects/cushion2.png,stim/24.jpeg,2,stim/2.png,4,4,37,2020-12-12_12h12.45.996,premup-three_ses-02_part-03_label-phase3,3.2.4,Win32,60
1,left,1.056999922,4,1.602999926,0,4,5.799000025,0,4,1.367000103,1,0,200,93,1,199,3,2,0.1,1,stim/objects/Instruments/triangle2.png,stim/42.jpeg,4,stim/4.png,2,1,37,2020-12-12_12h12.45.996,premup-three_ses-02_part-03_label-phase3,3.2.4,Win32,60
1,right,1.072000027,,,0,,,0,,,1,0,200,174,1,199,0,2,0,2,stim/objects/Instruments/xylophone3.png,,0,stim/0.png,0,0,37,2020-12-12_12h12.45.996,premup-three_ses-02_part-03_label-phase3,3.2.4,Win32,60
1,left,0.79399991,,,0,,,0,,,1,0,200,116,1,199,0,2,0,2,stim/objects/Instruments/cello3.png,,0,stim/0.png,0,0,37,2020-12-12_12h12.45.996,premup-three_ses-02_part-03_label-phase3,3.2.4,Win32,60
1,left,1.88499999,3,1.611999989,0,1,9.121999979,0,3,4.309000015,1,0,200,51,1,199,2,2,0.3,1,stim/objects/Instruments/cello2.png,stim/23.jpeg,2,stim/2.png,3,3,37,2020-12-12_12h12.45.996,premup-three_ses-02_part-03_label-phase3,3.2.4,Win32,60
1,left,0.853999853,3,1.286000013,0,1,5.886000156,0,1,2.290999889,1,0,200,71,1,199,3,2,0.9,1,stim/objects/Instruments/flutetrans2.png,stim/34.jpeg,3,stim/3.png,4,4,37,2020-12-12_12h12.45.996,premup-three_ses-02_part-03_label-phase3,3.2.4,Win32,60
1,left,1.092999935,3,0.850999832,0,2,2.86500001,0,3,1.688999891,1,0,200,67,1,199,3,1,0.1,1,stim/objects/HouseObjects/handbrush2.png,stim/34.jpeg,3,stim/3.png,4,3,37,2020-12-12_12h12.45.996,premup-three_ses-02_part-03_label-phase3,3.2.4,Win32,60
1,left,0.868999958,,,0,,,0,,,1,0,200,186,1,199,0,1,0,2,stim/objects/HouseObjects/clothespin4.png,,0,stim/0.png,0,0,37,2020-12-12_12h12.45.996,premup-three_ses-02_part-03_label-phase3,3.2.4,Win32,60
1,left,1.072000027,3,1.218999863,0,4,5.111999989,0,1,0.696000099,1,0,200,58,1,199,2,2,0.3,1,stim/objects/Instruments/electricdrumset2.png,stim/22.jpeg,2,stim/2.png,2,2,37,2020-12-12_12h12.45.996,premup-three_ses-02_part-03_label-phase3,3.2.4,Win32,60
1,left,0.825000048,,,0,,,0,,,1,0,200,183,1,199,0,1,0,2,stim/objects/HouseObjects/bucket4.png,,0,stim/0.png,0,0,37,2020-12-12_12h12.45.996,premup-three_ses-02_part-03_label-phase3,3.2.4,Win32,60
1,right,1.036000013,,,0,,,0,,,1,0,200,165,1,199,0,1,0,2,stim/objects/HouseObjects/ashtray4.png,,0,stim/0.png,0,0,37,2020-12-12_12h12.45.996,premup-three_ses-02_part-03_label-phase3,3.2.4,Win32,60
1,left,0.95600009,,,0,,,0,,,1,0,200,152,1,199,0,2,0,2,stim/objects/Instruments/harp3.png,,0,stim/0.png,0,0,37,2020-12-12_12h12.45.996,premup-three_ses-02_part-03_label-phase3,3.2.4,Win32,60
1,right,0.993999958,,,0,,,0,,,1,0,200,191,1,199,0,2,0,2,stim/objects/Instruments/cello4.png,,0,stim/0.png,0,0,37,2020-12-12_12h12.45.996,premup-three_ses-02_part-03_label-phase3,3.2.4,Win32,60
1,left,1.282000065,,,0,,,0,,,1,0,200,136,1,199,0,2,0,2,stim/objects/Instruments/flutetrans3.png,,0,stim/0.png,0,0,37,2020-12-12_12h12.45.996,premup-three_ses-02_part-03_label-phase3,3.2.4,Win32,60
1,right,1.136999846,,,0,,,0,,,1,0,200,168,1,199,0,1,0,2,stim/objects/HouseObjects/basket4.png,,0,stim/0.png,0,0,37,2020-12-12_12h12.45.996,premup-three_ses-02_part-03_label-phase3,3.2.4,Win32,60
1,right,1.327000141,,,0,,,0,,,1,0,200,101,1,199,0,1,0,2,stim/objects/HouseObjects/ballofstring3.png,,0,stim/0.png,0,0,37,2020-12-12_12h12.45.996,premup-three_ses-02_part-03_label-phase3,3.2.4,Win32,60
1,right,1.092000008,2,2.719000101,0,4,5.132999897,0,1,3.073999882,1,0,200,32,1,199,2,2,0.7,1,stim/objects/Instruments/violin.png,stim/14.jpeg,1,stim/1.png,4,2,37,2020-12-12_12h12.45.996,premup-three_ses-02_part-03_label-phase3,3.2.4,Win32,60
1,left,1.208999872,2,2.553999901,0,3,5.539999962,0,1,0.588000059,1,0,200,7,1,199,1,1,0.5,1,stim/objects/Instruments/harp.png,stim/54.jpeg,5,stim/5.png,4,4,37,2020-12-12_12h12.45.996,premup-three_ses-02_part-03_label-phase3,3.2.4,Win32,60
1,left,1.303000212,2,1.20299983,0,4,4.708999872,0,1,1.226999998,1,0,200,17,1,199,1,2,0.5,1,stim/objects/Instruments/timbal.png,stim/62.jpeg,6,stim/6.png,2,4,37,2020-12-12_12h12.45.996,premup-three_ses-02_part-03_label-phase3,3.2.4,Win32,60
1,right,1.995000124,2,1.539999962,0,2,2.086999893,0,1,1.429000139,1,0,200,94,1,199,3,2,0.1,1,stim/objects/Instruments/trombone2.png,stim/43.jpeg,4,stim/4.png,3,4,37,2020-12-12_12h12.45.996,premup-three_ses-02_part-03_label-phase3,3.2.4,Win32,60
1,left,1.056999922,2,1.084000111,0,2,3.190000057,0,2,1.453999996,1,0,200,40,1,199,2,1,0.7,1,stim/objects/HouseObjects/blender2.png,stim/24.jpeg,2,stim/2.png,4,3,37,2020-12-12_12h12.45.996,premup-three_ses-02_part-03_label-phase3,3.2.4,Win32,60
1,right,1.113999844,,,0,,,0,,,1,0,200,138,1,199,0,2,0,2,stim/objects/Instruments/gong3.png,,0,stim/0.png,0,0,37,2020-12-12_12h12.45.996,premup-three_ses-02_part-03_label-phase3,3.2.4,Win32,60
1,right,1.107000113,,,0,,,0,,,1,0,200,164,1,199,0,1,0,2,stim/objects/HouseObjects/wateringcan3.png,,0,stim/0.png,0,0,37,2020-12-12_12h12.45.996,premup-three_ses-02_part-03_label-phase3,3.2.4,Win32,60
1,right,1.819999933,,,0,,,0,,,1,0,200,153,1,199,0,2,0,2,stim/objects/Instruments/hihat3.png,,0,stim/0.png,0,0,37,2020-12-12_12h12.45.996,premup-three_ses-02_part-03_label-phase3,3.2.4,Win32,60
1,right,0.960000038,,,0,,,0,,,1,0,200,103,1,199,0,1,0,2,stim/objects/HouseObjects/basket3.png,,0,stim/0.png,0,0,37,2020-12-12_12h12.45.996,premup-three_ses-02_part-03_label-phase3,3.2.4,Win32,60
1,right,1.092999935,2,1.620999813,0,3,3.534000158,0,2,1.347000122,1,0,200,92,1,199,3,2,0.1,1,stim/objects/Instruments/timbal2.png,stim/41.jpeg,4,stim/4.png,1,1,37,2020-12-12_12h12.45.996,premup-three_ses-02_part-03_label-phase3,3.2.4,Win32,60
1,left,1.26699996,3,1.11500001,0,3,3.559999943,0,3,4.555000067,1,0,200,81,1,199,3,1,0.9,1,stim/objects/HouseObjects/scale2.png,stim/42.jpeg,4,stim/4.png,2,4,37,2020-12-12_12h12.45.996,premup-three_ses-02_part-03_label-phase3,3.2.4,Win32,60
1,left,2.200000048,,,0,,,0,,,1,0,200,177,1,199,0,2,0,2,stim/objects/Instruments/balalaika4.png,,0,stim/0.png,0,0,37,2020-12-12_12h12.45.996,premup-three_ses-02_part-03_label-phase3,3.2.4,Win32,60
1,right,1.046000004,,,0,,,0,,,1,0,200,176,1,199,0,2,0,2,stim/objects/Instruments/acousticguitar4.png,,0,stim/0.png,0,0,37,2020-12-12_12h12.45.996,premup-three_ses-02_part-03_label-phase3,3.2.4,Win32,60
1,right,0.674999952,,,0,,,0,,,1,0,200,175,1,199,0,2,0,2,stim/objects/Instruments/accordion4.png,,0,stim/0.png,0,0,37,2020-12-12_12h12.45.996,premup-three_ses-02_part-03_label-phase3,3.2.4,Win32,60
1,right,0.904000044,3,2.220000029,0,2,1.444000006,0,1,1.197000027,1,0,200,45,1,199,2,1,0.7,1,stim/objects/HouseObjects/clothesdryingrack2.png,stim/21.jpeg,2,stim/2.png,1,3,37,2020-12-12_12h12.45.996,premup-three_ses-02_part-03_label-phase3,3.2.4,Win32,60
1,right,0.845999956,,,0,,,0,,,1,0,200,184,1,199,0,1,0,2,stim/objects/HouseObjects/clock4.png,,0,stim/0.png,0,0,37,2020-12-12_12h12.45.996,premup-three_ses-02_part-03_label-phase3,3.2.4,Win32,60
1,right,0.743999958,,,0,,,0,,,1,0,200,169,1,199,0,1,0,2,stim/objects/HouseObjects/bleachbottle4.png,,0,stim/0.png,0,0,37,2020-12-12_12h12.45.996,premup-three_ses-02_part-03_label-phase3,3.2.4,Win32,60
1,right,0.794000149,,,0,,,0,,,1,0,200,124,1,199,0,1,0,2,stim/objects/HouseObjects/dishsoap3.png,,0,stim/0.png,0,0,37,2020-12-12_12h12.45.996,premup-three_ses-02_part-03_label-phase3,3.2.4,Win32,60
1,right,2.122999907,3,1.180000067,0,1,2.166000128,0,2,0.569000006,1,0,200,44,1,199,2,1,0.7,1,stim/objects/HouseObjects/clock2.png,stim/24.jpeg,2,stim/2.png,4,3,37,2020-12-12_12h12.45.996,premup-three_ses-02_part-03_label-phase3,3.2.4,Win32,60
1,right,1.378999949,2,1.573999882,0,1,2.236000061,0,1,0.474000216,1,0,200,69,1,199,3,1,0.1,1,stim/objects/HouseObjects/safetypin2.png,stim/32.jpeg,3,stim/3.png,2,1,37,2020-12-12_12h12.45.996,premup-three_ses-02_part-03_label-phase3,3.2.4,Win32,60
1,left,1.820000172,,,0,,,0,,,1,0,200,182,1,199,0,1,0,2,stim/objects/HouseObjects/broom4.png,,0,stim/0.png,0,0,37,2020-12-12_12h12.45.996,premup-three_ses-02_part-03_label-phase3,3.2.4,Win32,60
1,left,1.096999884,,,0,,,0,,,1,0,200,151,1,199,0,2,0,2,stim/objects/Instruments/harmonica3.png,,0,stim/0.png,0,0,37,2020-12-12_12h12.45.996,premup-three_ses-02_part-03_label-phase3,3.2.4,Win32,60
1,left,1.101999998,,,0,,,0,,,1,0,200,156,1,199,0,2,0,2,stim/objects/Instruments/tambourine3.png,,0,stim/0.png,0,0,37,2020-12-12_12h12.45.996,premup-three_ses-02_part-03_label-phase3,3.2.4,Win32,60
1,left,0.949999809,3,1.076000214,0,4,2.259000063,0,2,1.207000017,1,0,200,25,1,199,2,1,0.3,1,stim/objects/HouseObjects/ashtray2.png,stim/12.jpeg,1,stim/1.png,2,2,37,2020-12-12_12h12.45.996,premup-three_ses-02_part-03_label-phase3,3.2.4,Win32,60
1,right,1.991999865,,,0,,,0,,,1,0,200,197,1,199,0,2,0,2,stim/objects/Instruments/drums4.png,,0,stim/0.png,0,0,37,2020-12-12_12h12.45.996,premup-three_ses-02_part-03_label-phase3,3.2.4,Win32,60
1,left,0.779000044,3,0.980000019,0,2,2.185000181,0,1,0.779999971,1,0,200,90,1,199,3,2,0.1,1,stim/objects/Instruments/speaker2.png,stim/43.jpeg,4,stim/4.png,3,1,37,2020-12-12_12h12.45.996,premup-three_ses-02_part-03_label-phase3,3.2.4,Win32,60
1,right,2.640000105,,,0,,,0,,,1,0,200,119,1,199,0,2,0,2,stim/objects/Instruments/cornet3.png,,0,stim/0.png,0,0,37,2020-12-12_12h12.45.996,premup-three_ses-02_part-03_label-phase3,3.2.4,Win32,60
1,left,1,,,0,,,0,,,1,0,200,166,1,199,0,1,0,2,stim/objects/HouseObjects/ballofstring4.png,,0,stim/0.png,0,0,37,2020-12-12_12h12.45.996,premup-three_ses-02_part-03_label-phase3,3.2.4,Win32,60
1,right,1.040999889,,,0,,,0,,,1,0,200,148,1,199,0,1,0,2,stim/objects/HouseObjects/spraybottle3.png,,0,stim/0.png,0,0,37,2020-12-12_12h12.45.996,premup-three_ses-02_part-03_label-phase3,3.2.4,Win32,60
1,right,1.068000078,2,1.130999804,0,1,1.304000139,0,1,0.757999897,1,0,200,89,1,199,3,1,0.9,1,stim/objects/HouseObjects/wateringcan2.png,stim/42.jpeg,4,stim/4.png,2,4,37,2020-12-12_12h12.45.996,premup-three_ses-02_part-03_label-phase3,3.2.4,Win32,60
1,left,1.652999878,,,0,,,0,,,1,0,200,112,1,199,0,2,0,2,stim/objects/Instruments/balalaika3.png,,0,stim/0.png,0,0,37,2020-12-12_12h12.45.996,premup-three_ses-02_part-03_label-phase3,3.2.4,Win32,60
1,left,0.914999962,,,0,,,0,,,1,0,200,143,1,199,0,1,0,2,stim/objects/HouseObjects/handvacuum3.png,,0,stim/0.png,0,0,37,2020-12-12_12h12.45.996,premup-three_ses-02_part-03_label-phase3,3.2.4,Win32,60
1,right,0.920000076,,,0,,,0,,,1,0,200,126,1,199,0,1,0,2,stim/objects/HouseObjects/dustpan3.png,,0,stim/0.png,0,0,37,2020-12-12_12h12.45.996,premup-three_ses-02_part-03_label-phase3,3.2.4,Win32,60
1,right,1.000999928,,,0,,,0,,,1,0,200,106,1,199,0,1,0,2,stim/objects/HouseObjects/bottle3.png,,0,stim/0.png,0,0,37,2020-12-12_12h12.45.996,premup-three_ses-02_part-03_label-phase3,3.2.4,Win32,60
1,left,1.006999969,3,0.875,0,2,1.51699996,0,4,1.02699995,1,0,200,75,1,199,3,2,0.9,1,stim/objects/Instruments/guitarcase2.png,stim/34.jpeg,3,stim/3.png,4,4,37,2020-12-12_12h12.45.996,premup-three_ses-02_part-03_label-phase3,3.2.4,Win32,60
1,left,2.06400013,3,0.82400012,0,1,2.750999928,0,2,0.625,1,0,200,16,1,199,1,2,0.5,1,stim/objects/Instruments/tambourine.png,stim/61.jpeg,6,stim/6.png,1,2,37,2020-12-12_12h12.45.996,premup-three_ses-02_part-03_label-phase3,3.2.4,Win32,60
1,right,1.507999897,2,1.031999826,0,1,1.005000114,0,4,1.88499999,1,0,200,21,1,199,2,1,0.3,1,stim/objects/HouseObjects/thread.png,stim/12.jpeg,1,stim/1.png,2,3,37,2020-12-12_12h12.45.996,premup-three_ses-02_part-03_label-phase3,3.2.4,Win32,60
1,left,0.894000053,3,0.821000099,0,1,1.343999863,0,1,0.46600008,1,0,200,60,1,199,3,1,0.1,1,stim/objects/HouseObjects/doormat2.png,stim/31.jpeg,3,stim/3.png,1,1,37,2020-12-12_12h12.45.996,premup-three_ses-02_part-03_label-phase3,3.2.4,Win32,60
1,right,1.39199996,2,0.881999969,0,1,0.857000113,0,2,0.862999916,1,0,200,28,1,199,2,1,0.3,1,stim/objects/HouseObjects/basket2.png,stim/11.jpeg,1,stim/1.png,1,2,37,2020-12-12_12h12.45.996,premup-three_ses-02_part-03_label-phase3,3.2.4,Win32,60
1,left,0.867000103,3,0.927000046,0,1,0.738999844,0,1,0.750999928,1,0,200,76,1,199,3,2,0.9,1,stim/objects/Instruments/harmonica2.png,stim/31.jpeg,3,stim/3.png,1,1,37,2020-12-12_12h12.45.996,premup-three_ses-02_part-03_label-phase3,3.2.4,Win32,60
1,right,1.065000057,,,0,,,0,,,1,0,200,110,1,199,0,2,0,2,stim/objects/Instruments/accordion3.png,,0,stim/0.png,0,0,37,2020-12-12_12h12.45.996,premup-three_ses-02_part-03_label-phase3,3.2.4,Win32,60
1,right,0.767000198,,,0,,,0,,,1,0,200,150,1,199,0,2,0,2,stim/objects/Instruments/guitarcase3.png,,0,stim/0.png,0,0,37,2020-12-12_12h12.45.996,premup-three_ses-02_part-03_label-phase3,3.2.4,Win32,60
1,right,0.661000013,2,1.237999916,0,4,2.498000145,0,1,0.649000168,1,0,200,84,1,199,3,1,0.9,1,stim/objects/HouseObjects/teapot2.png,stim/41.jpeg,4,stim/4.png,1,4,37,2020-12-12_12h12.45.996,premup-three_ses-02_part-03_label-phase3,3.2.4,Win32,60
1,right,1.13499999,,,0,,,0,,,1,0,200,102,1,199,0,1,0,2,stim/objects/HouseObjects/barbecuelighter3.png,,0,stim/0.png,0,0,37,2020-12-12_12h12.45.996,premup-three_ses-02_part-03_label-phase3,3.2.4,Win32,60
1,right,0.65899992,,,0,,,0,,,1,0,200,114,1,199,0,2,0,2,stim/objects/Instruments/bassdrum3.png,,0,stim/0.png,0,0,37,2020-12-12_12h12.45.996,premup-three_ses-02_part-03_label-phase3,3.2.4,Win32,60
1,right,0.799999952,,,0,,,0,,,1,0,200,178,1,199,0,2,0,2,stim/objects/Instruments/banjo4.png,,0,stim/0.png,0,0,37,2020-12-12_12h12.45.996,premup-three_ses-02_part-03_label-phase3,3.2.4,Win32,60
1,right,0.688999891,1,2.414999962,0,1,0.835999966,0,3,0.857999802,1,0,200,36,1,199,2,2,0.7,1,stim/objects/Instruments/acousticguitar2.png,stim/14.jpeg,1,stim/1.png,4,4,37,2020-12-12_12h12.45.996,premup-three_ses-02_part-03_label-phase3,3.2.4,Win32,60
1,right,1.753000021,,,0,,,0,,,1,0,200,117,1,199,0,2,0,2,stim/objects/Instruments/chime3.png,,0,stim/0.png,0,0,37,2020-12-12_12h12.45.996,premup-three_ses-02_part-03_label-phase3,3.2.4,Win32,60
1,right,0.680999994,,,0,,,0,,,1,0,200,142,1,199,0,1,0,2,stim/objects/HouseObjects/handbrush3.png,,0,stim/0.png,0,0,37,2020-12-12_12h12.45.996,premup-three_ses-02_part-03_label-phase3,3.2.4,Win32,60
1,left,0.805000067,3,0.828999996,0,3,2.792000055,0,3,0.84100008,1,0,200,98,1,199,3,2,0.1,1,stim/objects/Instruments/vuvuzela2.png,stim/43.jpeg,4,stim/4.png,3,3,37,2020-12-12_12h12.45.996,premup-three_ses-02_part-03_label-phase3,3.2.4,Win32,60
1,right,0.92599988,,,0,,,0,,,1,0,200,108,1,199,0,1,0,2,stim/objects/HouseObjects/bucket3.png,,0,stim/0.png,0,0,37,2020-12-12_12h12.45.996,premup-three_ses-02_part-03_label-phase3,3.2.4,Win32,60
1,right,1.555999994,2,0.762000084,0,1,1.447000027,0,2,1.147000074,1,0,200,73,1,199,3,2,0.9,1,stim/objects/Instruments/gong2.png,stim/32.jpeg,3,stim/3.png,2,2,37,2020-12-12_12h12.45.996,premup-three_ses-02_part-03_label-phase3,3.2.4,Win32,60
1,left,0.842000008,,,0,,,0,,,1,0,200,180,1,199,0,1,0,2,stim/objects/HouseObjects/blender4.png,,0,stim/0.png,0,0,37,2020-12-12_12h12.45.996,premup-three_ses-02_part-03_label-phase3,3.2.4,Win32,60
1,left,0.937000036,3,1.352999926,0,4,2.28399992,0,2,0.776000023,1,0,200,68,1,199,3,1,0.1,1,stim/objects/HouseObjects/handvacuum2.png,stim/31.jpeg,3,stim/3.png,1,2,37,2020-12-12_12h12.45.996,premup-three_ses-02_part-03_label-phase3,3.2.4,Win32,60
1,right,1.030999899,,,0,,,0,,,1,0,200,163,1,199,0,1,0,2,stim/objects/HouseObjects/vacuumcleaner3.png,,0,stim/0.png,0,0,37,2020-12-12_12h12.45.996,premup-three_ses-02_part-03_label-phase3,3.2.4,Win32,60
1,right,0.690000057,2,0.815000057,0,1,0.946000099,0,3,0.784000158,1,0,200,24,1,199,2,1,0.3,1,stim/objects/HouseObjects/wateringcan.png,stim/11.jpeg,1,stim/1.png,1,1,37,2020-12-12_12h12.45.996,premup-three_ses-02_part-03_label-phase3,3.2.4,Win32,60
1,left,0.781000137,3,3.123999834,0,2,3.035000086,0,1,0.57400012,1,0,200,85,1,199,3,1,0.9,1,stim/objects/HouseObjects/thermometer2.png,stim/42.jpeg,4,stim/4.png,2,1,37,2020-12-12_12h12.45.996,premup-three_ses-02_part-03_label-phase3,3.2.4,Win32,60
1,right,1.09100008,,,0,,,0,,,1,0,200,122,1,199,0,1,0,2,stim/objects/HouseObjects/coffee3.png,,0,stim/0.png,0,0,37,2020-12-12_12h12.45.996,premup-three_ses-02_part-03_label-phase3,3.2.4,Win32,60
1,right,0.820000172,2,2.845000029,0,1,1.021000147,0,3,0.677999973,1,0,200,11,1,199,1,2,0.5,1,stim/objects/HouseObjects/scale.png,stim/62.jpeg,6,stim/6.png,2,2,37,2020-12-12_12h12.45.996,premup-three_ses-02_part-03_label-phase3,3.2.4,Win32,60
1,right,1.459000111,,,0,,,0,,,1,0,200,130,1,199,0,2,0,2,stim/objects/Instruments/cymbal3.png,,0,stim/0.png,0,0,37,2020-12-12_12h12.45.996,premup-three_ses-02_part-03_label-phase3,3.2.4,Win32,60
1,right,0.649000168,2,0.950999975,0,1,0.996000051,0,1,0.424000025,1,0,200,2,1,199,1,1,0.5,1,stim/objects/HouseObjects/handbrush.png,stim/51.jpeg,5,stim/5.png,1,1,37,2020-12-12_12h12.45.996,premup-three_ses-02_part-03_label-phase3,3.2.4,Win32,60
1,left,2.20299983,3,0.786999941,0,2,1.566999912,0,1,0.609999895,1,0,200,9,1,199,1,1,0.5,1,stim/objects/Instruments/saxophone.png,stim/52.jpeg,5,stim/5.png,2,2,37,2020-12-12_12h12.45.996,premup-three_ses-02_part-03_label-phase3,3.2.4,Win32,60
1,right,0.799000025,,,0,,,0,,,1,0,200,185,1,199,0,1,0,2,stim/objects/HouseObjects/clothesdryingrack4.png,,0,stim/0.png,0,0,37,2020-12-12_12h12.45.996,premup-three_ses-02_part-03_label-phase3,3.2.4,Win32,60
1,left,1.154000044,3,0.870000124,0,1,1.108999968,0,1,0.671000004,1,0,200,80,1,199,3,1,0.9,1,stim/objects/HouseObjects/saw2.png,stim/41.jpeg,4,stim/4.png,1,3,37,2020-12-12_12h12.45.996,premup-three_ses-02_part-03_label-phase3,3.2.4,Win32,60
1,left,1.147000074,3,0.780999899,0,3,1.874000072,0,1,0.674000025,1,0,200,22,1,199,2,1,0.3,1,stim/objects/HouseObjects/towel.png,stim/13.jpeg,1,stim/1.png,3,1,37,2020-12-12_12h12.45.996,premup-three_ses-02_part-03_label-phase3,3.2.4,Win32,60
1,left,1.39199996,2,1.569999933,0,2,1.453000069,0,1,0.624000072,1,0,200,35,1,199,2,2,0.7,1,stim/objects/Instruments/accordion2.png,stim/13.jpeg,1,stim/1.png,3,2,37,2020-12-12_12h12.45.996,premup-three_ses-02_part-03_label-phase3,3.2.4,Win32,60
1,left,0.924999952,3,0.612999916,0,1,2.407000065,0,2,0.669999838,1,0,200,55,1,199,2,2,0.3,1,stim/objects/Instruments/cymbal2.png,stim/23.jpeg,2,stim/2.png,3,4,37,2020-12-12_12h12.45.996,premup-three_ses-02_part-03_label-phase3,3.2.4,Win32,60
1,left,0.967000008,,,0,,,0,,,1,0,200,137,1,199,0,2,0,2,stim/objects/Instruments/frenchhorn3.png,,0,stim/0.png,0,0,37,2020-12-12_12h12.45.996,premup-three_ses-02_part-03_label-phase3,3.2.4,Win32,60
1,right,1.595000029,,,0,,,0,,,1,0,200,100,1,199,0,1,0,2,stim/objects/HouseObjects/ashtray3.png,,0,stim/0.png,0,0,37,2020-12-12_12h12.45.996,premup-three_ses-02_part-03_label-phase3,3.2.4,Win32,60
1,right,0.837000132,,,0,,,0,,,1,0,200,131,1,199,0,2,0,2,stim/objects/Instruments/doublebass3.png,,0,stim/0.png,0,0,37,2020-12-12_12h12.45.996,premup-three_ses-02_part-03_label-phase3,3.2.4,Win32,60
1,right,0.655999899,,,0,,,0,,,1,0,200,167,1,199,0,1,0,2,stim/objects/HouseObjects/barbecuelighter4.png,,0,stim/0.png,0,0,37,2020-12-12_12h12.45.996,premup-three_ses-02_part-03_label-phase3,3.2.4,Win32,60
1,left,1.183000088,2,1.055000067,0,3,1.940999985,0,1,0.937000036,1,0,200,1,1,199,1,1,0.5,1,stim/objects/HouseObjects/hairdryer.png,stim/54.jpeg,5,stim/5.png,4,3,37,2020-12-12_12h12.45.996,premup-three_ses-02_part-03_label-phase3,3.2.4,Win32,60
1,right,0.610000134,,,0,,,0,,,1,0,200,128,1,199,0,1,0,2,stim/objects/HouseObjects/garbagebin3.png,,0,stim/0.png,0,0,37,2020-12-12_12h12.45.996,premup-three_ses-02_part-03_label-phase3,3.2.4,Win32,60
1,right,0.735999823,2,0.975999832,0,2,0.762000084,0,1,0.351999998,1,0,200,79,1,199,3,2,0.9,1,stim/objects/Instruments/saxophone2.png,stim/34.jpeg,3,stim/3.png,4,2,37,2020-12-12_12h12.45.996,premup-three_ses-02_part-03_label-phase3,3.2.4,Win32,60
1,right,0.709000111,,,0,,,0,,,1,0,200,104,1,199,0,1,0,2,stim/objects/HouseObjects/bleachbottle3.png,,0,stim/0.png,0,0,37,2020-12-12_12h12.45.996,premup-three_ses-02_part-03_label-phase3,3.2.4,Win32,60
1,right,0.647999763,,,0,,,0,,,1,0,200,123,1,199,0,1,0,2,stim/objects/HouseObjects/cushion3.png,,0,stim/0.png,0,0,37,2020-12-12_12h12.45.996,premup-three_ses-02_part-03_label-phase3,3.2.4,Win32,60
1,right,0.618999958,,,0,,,0,,,1,0,200,179,1,199,0,2,0,2,stim/objects/Instruments/bassdrum4.png,,0,stim/0.png,0,0,37,2020-12-12_12h12.45.996,premup-three_ses-02_part-03_label-phase3,3.2.4,Win32,60
1,right,0.735999823,,,0,,,0,,,1,0,200,171,1,199,0,2,0,2,stim/objects/Instruments/tuba3.png,,0,stim/0.png,0,0,37,2020-12-12_12h12.45.996,premup-three_ses-02_part-03_label-phase3,3.2.4,Win32,60
1,right,0.748999834,,,0,,,0,,,1,0,200,141,1,199,0,1,0,2,stim/objects/HouseObjects/hairdryer3.png,,0,stim/0.png,0,0,37,2020-12-12_12h12.45.996,premup-three_ses-02_part-03_label-phase3,3.2.4,Win32,60
1,left,0.851000071,3,0.847000122,0,1,1.122999907,0,2,0.588000059,1,0,200,91,1,199,3,2,0.1,1,stim/objects/Instruments/tambourine2.png,stim/44.jpeg,4,stim/4.png,4,4,37,2020-12-12_12h12.45.996,premup-three_ses-02_part-03_label-phase3,3.2.4,Win32,60
1,left,1.141000032,2,0.909000158,0,2,1.071000099,0,2,0.514999866,1,0,200,47,1,199,2,1,0.7,1,stim/objects/HouseObjects/coffee2.png,stim/23.jpeg,2,stim/2.png,3,2,37,2020-12-12_12h12.45.996,premup-three_ses-02_part-03_label-phase3,3.2.4,Win32,60
1,right,0.708999872,,,0,,,0,,,1,0,200,132,1,199,0,2,0,2,stim/objects/Instruments/drums3.png,,0,stim/0.png,0,0,37,2020-12-12_12h12.45.996,premup-three_ses-02_part-03_label-phase3,3.2.4,Win32,60
1,right,0.52699995,2,0.990999937,0,1,0.826999903,0,3,0.70299983,1,0,200,46,1,199,2,1,0.7,1,stim/objects/HouseObjects/clothespin2.png,stim/22.jpeg,2,stim/2.png,2,3,37,2020-12-12_12h12.45.996,premup-three_ses-02_part-03_label-phase3,3.2.4,Win32,60
1,right,1.240999937,2,0.996999979,0,3,1.101999998,0,2,0.648000002,1,0,200,41,1,199,2,1,0.7,1,stim/objects/HouseObjects/bottle2.png,stim/21.jpeg,2,stim/2.png,1,1,37,2020-12-12_12h12.45.996,premup-three_ses-02_part-03_label-phase3,3.2.4,Win32,60
1,left,1.449999809,3,0.715999842,0,1,0.92200017,0,2,0.417000055,1,0,200,14,1,199,1,2,0.5,1,stim/objects/HouseObjects/teapot.png,stim/61.jpeg,6,stim/6.png,1,1,37,2020-12-12_12h12.45.996,premup-three_ses-02_part-03_label-phase3,3.2.4,Win32,60
1,right,0.903000116,,,0,,,0,,,1,0,200,139,1,199,0,2,0,2,stim/objects/Instruments/grandpiano3.png,,0,stim/0.png,0,0,37,2020-12-12_12h12.45.996,premup-three_ses-02_part-03_label-phase3,3.2.4,Win32,60
1,right,0.659999847,,,0,,,0,,,1,0,200,190,1,199,0,2,0,2,stim/objects/Instruments/bassguitar4.png,,0,stim/0.png,0,0,37,2020-12-12_12h12.45.996,premup-three_ses-02_part-03_label-phase3,3.2.4,Win32,60
1,right,1.038000107,,,0,,,0,,,1,0,200,189,1,199,0,1,0,2,stim/objects/HouseObjects/dishsoap4.png,,0,stim/0.png,0,0,37,2020-12-12_12h12.45.996,premup-three_ses-02_part-03_label-phase3,3.2.4,Win32,60
1,right,0.671999931,,,0,,,0,,,1,0,200,129,1,199,0,1,0,2,stim/objects/HouseObjects/glass3.png,,0,stim/0.png,0,0,37,2020-12-12_12h12.45.996,premup-three_ses-02_part-03_label-phase3,3.2.4,Win32,60
1,left,1.099999905,3,0.845999956,0,2,0.720999956,0,3,0.911000013,1,0,200,59,1,199,2,2,0.3,1,stim/objects/Instruments/electricguitar2.png,stim/23.jpeg,2,stim/2.png,3,1,37,2020-12-12_12h12.45.996,premup-three_ses-02_part-03_label-phase3,3.2.4,Win32,60
1,left,1.04399991,3,0.606000185,0,1,0.928999901,0,3,0.703000069,1,0,200,42,1,199,2,1,0.7,1,stim/objects/HouseObjects/broom2.png,stim/22.jpeg,2,stim/2.png,2,4,37,2020-12-12_12h12.45.996,premup-three_ses-02_part-03_label-phase3,3.2.4,Win32,60
1,right,0.747999907,2,1.141000032,0,1,0.662000179,0,3,0.680000067,1,0,200,13,1,199,1,2,0.5,1,stim/objects/HouseObjects/spraybottle.png,stim/64.jpeg,6,stim/6.png,4,3,37,2020-12-12_12h12.45.996,premup-three_ses-02_part-03_label-phase3,3.2.4,Win32,60
1,right,1.952000141,2,0.74000001,0,1,0.700000048,0,3,0.809999943,1,0,200,63,1,199,3,1,0.1,1,stim/objects/HouseObjects/garbagebin2.png,stim/34.jpeg,3,stim/3.png,4,4,37,2020-12-12_12h12.45.996,premup-three_ses-02_part-03_label-phase3,3.2.4,Win32,60
1,right,1.20600009,2,0.697000027,0,1,1.143999815,0,3,0.640999794,1,0,200,8,1,199,1,1,0.5,1,stim/objects/Instruments/hihat.png,stim/51.jpeg,5,stim/5.png,1,2,37,2020-12-12_12h12.45.996,premup-three_ses-02_part-03_label-phase3,3.2.4,Win32,60
1,right,0.819000006,2,0.680999994,0,1,0.846999884,0,3,0.996000051,1,0,200,49,1,199,2,1,0.7,1,stim/objects/HouseObjects/dishsoap2.png,stim/21.jpeg,2,stim/2.png,1,4,37,2020-12-12_12h12.45.996,premup-three_ses-02_part-03_label-phase3,3.2.4,Win32,60
1,right,0.677000046,,,0,,,0,,,1,0,200,113,1,199,0,2,0,2,stim/objects/Instruments/banjo3.png,,0,stim/0.png,0,0,37,2020-12-12_12h12.45.996,premup-three_ses-02_part-03_label-phase3,3.2.4,Win32,60
1,left,1.407999992,2,0.615999937,0,4,2.129999876,0,1,0.52699995,1,0,200,97,1,199,3,2,0.1,1,stim/objects/Instruments/violin2.png,stim/42.jpeg,4,stim/4.png,2,2,37,2020-12-12_12h12.45.996,premup-three_ses-02_part-03_label-phase3,3.2.4,Win32,60
1,right,0.770999908,2,0.626999855,0,1,0.800000191,0,3,0.725000143,1,0,200,31,1,199,2,2,0.7,1,stim/objects/Instruments/tuba.png,stim/13.jpeg,1,stim/1.png,3,3,37,2020-12-12_12h12.45.996,premup-three_ses-02_part-03_label-phase3,3.2.4,Win32,60
1,right,0.940999985,2,0.674000025,0,1,0.921000004,0,3,0.707000017,1,0,200,66,1,199,3,1,0.1,1,stim/objects/HouseObjects/hairdryer2.png,stim/33.jpeg,3,stim/3.png,3,3,37,2020-12-12_12h12.45.996,premup-three_ses-02_part-03_label-phase3,3.2.4,Win32,60
1,right,0.973999977,,,0,,,0,,,1,0,200,134,1,199,0,2,0,2,stim/objects/Instruments/electricguitar3.png,,0,stim/0.png,0,0,37,2020-12-12_12h12.45.996,premup-three_ses-02_part-03_label-phase3,3.2.4,Win32,60
1,left,0.861999989,3,0.728999853,0,4,1.707000017,0,3,0.921000004,1,0,200,72,1,199,3,2,0.9,1,stim/objects/Instruments/frenchhorn2.png,stim/31.jpeg,3,stim/3.png,1,1,37,2020-12-12_12h12.45.996,premup-three_ses-02_part-03_label-phase3,3.2.4,Win32,60
1,right,0.686000109,2,0.593000174,0,1,0.746000051,0,3,0.887000084,1,0,200,38,1,199,2,2,0.7,1,stim/objects/Instruments/banjo2.png,stim/12.jpeg,1,stim/1.png,2,2,37,2020-12-12_12h12.45.996,premup-three_ses-02_part-03_label-phase3,3.2.4,Win32,60
1,right,0.980000019,2,0.828999996,0,1,0.722000122,0,3,0.796000004,1,0,200,23,1,199,2,1,0.3,1,stim/objects/HouseObjects/vacuumcleaner.png,stim/14.jpeg,1,stim/1.png,4,1,37,2020-12-12_12h12.45.996,premup-three_ses-02_part-03_label-phase3,3.2.4,Win32,60
1,right,1.577000141,2,0.503999949,0,1,0.53399992,0,3,0.541000128,1,0,200,19,1,199,1,2,0.5,1,stim/objects/Instruments/trombone.png,stim/64.jpeg,6,stim/6.png,4,1,37,2020-12-12_12h12.45.996,premup-three_ses-02_part-03_label-phase3,3.2.4,Win32,60
1,right,0.997999907,,,0,,,0,,,1,0,200,109,1,199,0,1,0,2,stim/objects/HouseObjects/clock3.png,,0,stim/0.png,0,0,37,2020-12-12_12h12.45.996,premup-three_ses-02_part-03_label-phase3,3.2.4,Win32,60
1,right,0.616999865,2,0.660000086,0,1,0.549999952,0,3,0.607000113,1,0,200,61,1,199,3,1,0.1,1,stim/objects/HouseObjects/dustpan2.png,stim/32.jpeg,3,stim/3.png,2,2,37,2020-12-12_12h12.45.996,premup-three_ses-02_part-03_label-phase3,3.2.4,Win32,60
1,left,2.694000006,,,0,,,0,,,1,0,200,159,1,199,0,2,0,2,stim/objects/Instruments/trombone3.png,,0,stim/0.png,0,0,37,2020-12-12_12h12.45.996,premup-three_ses-02_part-03_label-phase3,3.2.4,Win32,60
1,left,1.110999823,,,0,,,0,,,1,0,200,158,1,199,0,2,0,2,stim/objects/Instruments/triangle3.png,,0,stim/0.png,0,0,37,2020-12-12_12h12.45.996,premup-three_ses-02_part-03_label-phase3,3.2.4,Win32,60
1,right,0.817000151,2,0.739000082,0,3,0.612999916,0,3,0.784000158,1,0,200,74,1,199,3,2,0.9,1,stim/objects/Instruments/grandpiano2.png,stim/33.jpeg,3,stim/3.png,3,2,37,2020-12-12_12h12.45.996,premup-three_ses-02_part-03_label-phase3,3.2.4,Win32,60
1,right,1.186000109,2,0.630000114,0,1,0.482000113,0,3,0.56099987,1,0,200,33,1,199,2,2,0.7,1,stim/objects/Instruments/vuvuzela.png,stim/11.jpeg,1,stim/1.png,1,2,37,2020-12-12_12h12.45.996,premup-three_ses-02_part-03_label-phase3,3.2.4,Win32,60
1,left,0.981999874,3,1.017999887,0,1,1.078000069,0,1,0.609999895,1,0,200,12,1,199,1,2,0.5,1,stim/objects/HouseObjects/sponge.png,stim/63.jpeg,6,stim/6.png,3,1,37,2020-12-12_12h12.45.996,premup-three_ses-02_part-03_label-phase3,3.2.4,Win32,60
1,left,0.937000036,3,0.825999975,0,1,0.630000114,0,3,0.535000086,1,0,200,56,1,199,2,2,0.3,1,stim/objects/Instruments/doublebass2.png,stim/24.jpeg,2,stim/2.png,4,3,37,2020-12-12_12h12.45.996,premup-three_ses-02_part-03_label-phase3,3.2.4,Win32,60
1,right,0.736000061,,,0,,,0,,,1,0,200,120,1,199,0,1,0,2,stim/objects/HouseObjects/clothesdryingrack3.png,,0,stim/0.png,0,0,37,2020-12-12_12h12.45.996,premup-three_ses-02_part-03_label-phase3,3.2.4,Win32,60
1,left,0.789000034,3,4.145999908,0,2,0.81400013,0,3,1.093000174,1,0,200,26,1,199,2,1,0.3,1,stim/objects/HouseObjects/ballofstring2.png,stim/13.jpeg,1,stim/1.png,3,3,37,2020-12-12_12h12.45.996,premup-three_ses-02_part-03_label-phase3,3.2.4,Win32,60
1,right,1.279000044,,,0,,,0,,,1,0,200,121,1,199,0,1,0,2,stim/objects/HouseObjects/clothespin3.png,,0,stim/0.png,0,0,37,2020-12-12_12h12.45.996,premup-three_ses-02_part-03_label-phase3,3.2.4,Win32,60
1,right,0.72300005,,,0,,,0,,,1,0,200,147,1,199,0,1,0,2,stim/objects/HouseObjects/sponge3.png,,0,stim/0.png,0,0,37,2020-12-12_12h12.45.996,premup-three_ses-02_part-03_label-phase3,3.2.4,Win32,60
1,left,1.173000097,,,0,,,0,,,1,0,200,118,1,199,0,2,0,2,stim/objects/Instruments/clarinet3.png,,0,stim/0.png,0,0,37,2020-12-12_12h12.45.996,premup-three_ses-02_part-03_label-phase3,3.2.4,Win32,60
1,right,1.318000078,2,0.769000053,0,1,0.585000038,0,3,0.743999958,1,0,200,0,1,199,1,1,0.5,1,stim/objects/HouseObjects/glassmop.png,stim/53.jpeg,5,stim/5.png,3,3,37,2020-12-12_12h12.45.996,premup-three_ses-02_part-03_label-phase3,3.2.4,Win32,60
1,right,0.767999887,,,0,,,0,,,1,0,200,187,1,199,0,1,0,2,stim/objects/HouseObjects/coffee4.png,,0,stim/0.png,0,0,37,2020-12-12_12h12.45.996,premup-three_ses-02_part-03_label-phase3,3.2.4,Win32,60
1,right,1.066999912,,,0,,,0,,,1,0,200,194,1,199,0,2,0,2,stim/objects/Instruments/cornet4.png,,0,stim/0.png,0,0,37,2020-12-12_12h12.45.996,premup-three_ses-02_part-03_label-phase3,3.2.4,Win32,60
1,right,0.802000046,2,1.375,0,1,0.830000162,0,3,0.61500001,1,0,200,96,1,199,3,2,0.1,1,stim/objects/Instruments/tuba2.png,stim/41.jpeg,4,stim/4.png,1,3,37,2020-12-12_12h12.45.996,premup-three_ses-02_part-03_label-phase3,3.2.4,Win32,60
1,right,2.125,,,0,,,0,,,1,0,200,127,1,199,0,1,0,2,stim/objects/HouseObjects/flyswatter3.png,,0,stim/0.png,0,0,37,2020-12-12_12h12.45.996,premup-three_ses-02_part-03_label-phase3,3.2.4,Win32,60
1,right,0.92599988,,,0,,,0,,,1,0,200,111,1,199,0,2,0,2,stim/objects/Instruments/acousticguitar3.png,,0,stim/0.png,0,0,37,2020-12-12_12h12.45.996,premup-three_ses-02_part-03_label-phase3,3.2.4,Win32,60
1,right,0.826999903,2,0.677999973,0,1,0.504999876,0,3,0.680000067,1,0,200,30,1,199,2,2,0.7,1,stim/objects/Instruments/trumpet.png,stim/12.jpeg,1,stim/1.png,2,4,37,2020-12-12_12h12.45.996,premup-three_ses-02_part-03_label-phase3,3.2.4,Win32,60
1,right,0.882999897,2,0.733999968,0,1,1.071999788,0,3,0.614000082,1,0,200,6,1,199,1,1,0.5,1,stim/objects/Instruments/harmonica.png,stim/53.jpeg,5,stim/5.png,3,3,37,2020-12-12_12h12.45.996,premup-three_ses-02_part-03_label-phase3,3.2.4,Win32,60
1,right,0.749000072,2,0.818000078,0,1,0.648000002,0,3,0.492999792,1,0,200,10,1,199,1,2,0.5,1,stim/objects/HouseObjects/saw.png,stim/61.jpeg,6,stim/6.png,1,2,37,2020-12-12_12h12.45.996,premup-three_ses-02_part-03_label-phase3,3.2.4,Win32,60
1,right,0.789000034,,,0,,,0,,,1,0,200,155,1,199,0,2,0,2,stim/objects/Instruments/speaker3.png,,0,stim/0.png,0,0,37,2020-12-12_12h12.45.996,premup-three_ses-02_part-03_label-phase3,3.2.4,Win32,60
1,right,0.756999969,,,0,,,0,,,1,0,200,188,1,199,0,1,0,2,stim/objects/HouseObjects/cushion4.png,,0,stim/0.png,0,0,37,2020-12-12_12h12.45.996,premup-three_ses-02_part-03_label-phase3,3.2.4,Win32,60
1,right,0.703000069,,,0,,,0,,,1,0,200,161,1,199,0,1,0,2,stim/objects/HouseObjects/thread3.png,,0,stim/0.png,0,0,37,2020-12-12_12h12.45.996,premup-three_ses-02_part-03_label-phase3,3.2.4,Win32,60
1,right,0.711999893,,,0,,,0,,,1,0,200,173,1,199,0,2,0,2,stim/objects/Instruments/vuvuzela3.png,,0,stim/0.png,0,0,37,2020-12-12_12h12.45.996,premup-three_ses-02_part-03_label-phase3,3.2.4,Win32,60
1,right,0.835000038,2,0.720000029,0,1,0.569000006,0,3,0.513999939,1,0,200,78,1,199,3,2,0.9,1,stim/objects/Instruments/hihat2.png,stim/33.jpeg,3,stim/3.png,3,3,37,2020-12-12_12h12.45.996,premup-three_ses-02_part-03_label-phase3,3.2.4,Win32,60
1,right,0.724999905,,,0,,,0,,,1,0,200,172,1,199,0,2,0,2,stim/objects/Instruments/violin3.png,,0,stim/0.png,0,0,37,2020-12-12_12h12.45.996,premup-three_ses-02_part-03_label-phase3,3.2.4,Win32,60
1,right,0.69299984,,,0,,,0,,,1,0,200,135,1,199,0,2,0,2,stim/objects/Instruments/flute3.png,,0,stim/0.png,0,0,37,2020-12-12_12h12.45.996,premup-three_ses-02_part-03_label-phase3,3.2.4,Win32,60
1,right,0.94299984,2,0.714999914,0,4,0.858999968,0,3,0.865999937,1,0,200,54,1,199,2,2,0.3,1,stim/objects/Instruments/cornet2.png,stim/22.jpeg,2,stim/2.png,2,4,37,2020-12-12_12h12.45.996,premup-three_ses-02_part-03_label-phase3,3.2.4,Win32,60
1,left,1.067000151,3,1.06099987,0,1,0.647000074,0,3,0.982000113,1,0,200,52,1,199,2,2,0.3,1,stim/objects/Instruments/chime2.png,stim/24.jpeg,2,stim/2.png,4,1,37,2020-12-12_12h12.45.996,premup-three_ses-02_part-03_label-phase3,3.2.4,Win32,60
1,right,0.813999891,,,0,,,0,,,1,0,200,144,1,199,0,1,0,2,stim/objects/HouseObjects/safetypin3.png,,0,stim/0.png,0,0,37,2020-12-12_12h12.45.996,premup-three_ses-02_part-03_label-phase3,3.2.4,Win32,60
1,left,0.871000051,3,0.547999859,0,4,2.839999914,0,3,1.187000036,1,0,200,57,1,199,2,2,0.3,1,stim/objects/Instruments/drums2.png,stim/21.jpeg,2,stim/2.png,1,3,37,2020-12-12_12h12.45.996,premup-three_ses-02_part-03_label-phase3,3.2.4,Win32,60
1,right,0.888000011,2,0.717999935,0,1,0.703999996,0,3,0.503999949,1,0,200,34,1,199,2,2,0.7,1,stim/objects/Instruments/xylophone.png,stim/12.jpeg,1,stim/1.png,2,3,37,2020-12-12_12h12.45.996,premup-three_ses-02_part-03_label-phase3,3.2.4,Win32,60
1,left,0.839999914,3,0.538999796,0,3,1.080999851,0,4,0.795000076,1,0,200,37,1,199,2,2,0.7,1,stim/objects/Instruments/balalaika2.png,stim/11.jpeg,1,stim/1.png,1,4,37,2020-12-12_12h12.45.996,premup-three_ses-02_part-03_label-phase3,3.2.4,Win32,60
1,left,0.860000134,,,0,,,0,,,1,0,200,196,1,199,0,2,0,2,stim/objects/Instruments/doublebass4.png,,0,stim/0.png,0,0,37,2020-12-12_12h12.45.996,premup-three_ses-02_part-03_label-phase3,3.2.4,Win32,60
1,right,1.611000061,2,0.811000109,0,1,0.595999956,0,3,0.463000059,1,0,200,86,1,199,3,1,0.9,1,stim/objects/HouseObjects/thread2.png,stim/43.jpeg,4,stim/4.png,3,3,37,2020-12-12_12h12.45.996,premup-three_ses-02_part-03_label-phase3,3.2.4,Win32,60
1,left,0.843000174,3,0.57799983,0,1,0.693000078,0,3,0.52699995,1,0,200,18,1,199,1,2,0.5,1,stim/objects/Instruments/triangle.png,stim/63.jpeg,6,stim/6.png,3,4,37,2020-12-12_12h12.45.996,premup-three_ses-02_part-03_label-phase3,3.2.4,Win32,60
1,right,0.694000006,,,0,,,0,,,1,0,200,195,1,199,0,2,0,2,stim/objects/Instruments/cymbal4.png,,0,stim/0.png,0,0,37,2020-12-12_12h12.45.996,premup-three_ses-02_part-03_label-phase3,3.2.4,Win32,60
1,right,0.590999842,,,0,,,0,,,1,0,200,146,1,199,0,1,0,2,stim/objects/HouseObjects/scale3.png,,0,stim/0.png,0,0,37,2020-12-12_12h12.45.996,premup-three_ses-02_part-03_label-phase3,3.2.4,Win32,60
1,left,0.806999922,2,1.30099988,0,1,0.687999964,0,3,0.993000031,1,0,200,29,1,199,2,1,0.3,1,stim/objects/HouseObjects/bleachbottle2.png,stim/12.jpeg,1,stim/1.png,2,4,37,2020-12-12_12h12.45.996,premup-three_ses-02_part-03_label-phase3,3.2.4,Win32,60
1,right,1.07799983,,,0,,,0,,,1,0,200,192,1,199,0,2,0,2,stim/objects/Instruments/chime4.png,,0,stim/0.png,0,0,37,2020-12-12_12h12.45.996,premup-three_ses-02_part-03_label-phase3,3.2.4,Win32,60
1,left,0.861000061,2,1.083999872,0,1,0.674000025,0,3,0.5,1,0,200,3,1,199,1,1,0.5,1,stim/objects/HouseObjects/handvacuum.png,stim/52.jpeg,5,stim/5.png,2,4,37,2020-12-12_12h12.45.996,premup-three_ses-02_part-03_label-phase3,3.2.4,Win32,60
1,right,0.855000019,,,0,,,0,,,1,0,200,107,1,199,0,1,0,2,stim/objects/HouseObjects/broom3.png,,0,stim/0.png,0,0,37,2020-12-12_12h12.45.996,premup-three_ses-02_part-03_label-phase3,3.2.4,Win32,60
1,right,1.062999964,2,0.64199996,0,1,0.493000031,0,3,0.424000025,1,0,200,77,1,199,3,2,0.9,1,stim/objects/Instruments/harp2.png,stim/32.jpeg,3,stim/3.png,2,1,37,2020-12-12_12h12.45.996,premup-three_ses-02_part-03_label-phase3,3.2.4,Win32,60
1,right,0.769000053,1,1.312999964,0,1,0.700000048,0,3,0.656000137,1,0,200,62,1,199,3,1,0.1,1,stim/objects/HouseObjects/flyswatter2.png,stim/33.jpeg,3,stim/3.png,3,3,37,2020-12-12_12h12.45.996,premup-three_ses-02_part-03_label-phase3,3.2.4,Win32,60
1,right,1.047999859,2,3.058000088,0,1,0.679000139,0,3,0.573000193,1,0,200,50,1,199,2,2,0.3,1,stim/objects/Instruments/bassguitar2.png,stim/22.jpeg,2,stim/2.png,2,4,37,2020-12-12_12h12.45.996,premup-three_ses-02_part-03_label-phase3,3.2.4,Win32,60
1,left,1.198999882,3,0.700999975,0,1,0.554000139,0,3,0.53399992,1,0,200,82,1,199,3,1,0.9,1,stim/objects/HouseObjects/sponge2.png,stim/43.jpeg,4,stim/4.png,3,4,37,2020-12-12_12h12.45.996,premup-three_ses-02_part-03_label-phase3,3.2.4,Win32,60
1,right,0.879999876,2,0.628999949,0,1,0.654000044,0,3,0.572999954,1,0,200,64,1,199,3,1,0.1,1,stim/objects/HouseObjects/glass2.png,stim/31.jpeg,3,stim/3.png,1,1,37,2020-12-12_12h12.45.996,premup-three_ses-02_part-03_label-phase3,3.2.4,Win32,60
1,left,1.190000057,,,0,,,0,,,1,0,200,154,1,199,0,2,0,2,stim/objects/Instruments/saxophone3.png,,0,stim/0.png,0,0,37,2020-12-12_12h12.45.996,premup-three_ses-02_part-03_label-phase3,3.2.4,Win32,60
1,right,1.160000086,,,0,,,0,,,1,0,200,198,1,199,0,2,0,2,stim/objects/Instruments/electricdrumset4.png,,0,stim/0.png,0,0,37,2020-12-12_12h12.45.996,premup-three_ses-02_part-03_label-phase3,3.2.4,Win32,60
1,right,0.894999981,2,0.919999838,0,2,0.589000225,0,3,0.56099987,1,0,200,43,1,199,2,1,0.7,1,stim/objects/HouseObjects/bucket2.png,stim/23.jpeg,2,stim/2.png,3,3,37,2020-12-12_12h12.45.996,premup-three_ses-02_part-03_label-phase3,3.2.4,Win32,60
1,right,0.746999979,2,0.723999977,0,1,0.629999876,0,3,0.495000124,1,0,200,65,1,199,3,1,0.1,1,stim/objects/HouseObjects/glassmop2.png,stim/32.jpeg,3,stim/3.png,2,3,37,2020-12-12_12h12.45.996,premup-three_ses-02_part-03_label-phase3,3.2.4,Win32,60
1,left,0.976999998,,,0,,,0,,,1,0,200,162,1,199,0,1,0,2,stim/objects/HouseObjects/towel3.png,,0,stim/0.png,0,0,37,2020-12-12_12h12.45.996,premup-three_ses-02_part-03_label-phase3,3.2.4,Win32,60
1,right,1.068000078,,,0,,,0,,,1,0,200,145,1,199,0,1,0,2,stim/objects/HouseObjects/saw3.png,,0,stim/0.png,0,0,37,2020-12-12_12h12.45.996,premup-three_ses-02_part-03_label-phase3,3.2.4,Win32,60
1,right,0.835999966,2,0.767999887,0,1,0.730000019,0,1,0.799999952,1,0,200,20,1,199,2,1,0.3,1,stim/objects/HouseObjects/thermometer.png,stim/11.jpeg,1,stim/1.png,1,1,37,2020-12-12_12h12.45.996,premup-three_ses-02_part-03_label-phase3,3.2.4,Win32,60
1,right,2.80700016,,,0,,,0,,,1,0,200,170,1,199,0,2,0,2,stim/objects/Instruments/trumpet3.png,,0,stim/0.png,0,0,37,2020-12-12_12h12.45.996,premup-three_ses-02_part-03_label-phase3,3.2.4,Win32,60
1,right,0.681999922,2,0.713000059,0,1,0.647000074,0,3,0.503999949,1,0,200,83,1,199,3,1,0.9,1,stim/objects/HouseObjects/spraybottle2.png,stim/44.jpeg,4,stim/4.png,4,1,37,2020-12-12_12h12.45.996,premup-three_ses-02_part-03_label-phase3,3.2.4,Win32,60
1,right,0.646000147,,,0,,,0,,,1,0,200,140,1,199,0,1,0,2,stim/objects/HouseObjects/glassmop3.png,,0,stim/0.png,0,0,37,2020-12-12_12h12.45.996,premup-three_ses-02_part-03_label-phase3,3.2.4,Win32,60
1,left,0.978999853,3,0.648000002,0,4,1.701999903,0,1,0.321000099,1,0,200,15,1,199,1,2,0.5,1,stim/objects/Instruments/speaker.png,stim/64.jpeg,6,stim/6.png,4,1,37,2020-12-12_12h12.45.996,premup-three_ses-02_part-03_label-phase3,3.2.4,Win32,60
1,right,0.907999992,,,0,,,0,,,1,0,200,157,1,199,0,2,0,2,stim/objects/Instruments/timbal3.png,,0,stim/0.png,0,0,37,2020-12-12_12h12.45.996,premup-three_ses-02_part-03_label-phase3,3.2.4,Win32,60
1,right,0.622999907,,,0,,,0,,,1,0,200,125,1,199,0,1,0,2,stim/objects/HouseObjects/doormat3.png,,0,stim/0.png,0,0,37,2020-12-12_12h12.45.996,premup-three_ses-02_part-03_label-phase3,3.2.4,Win32,60
1,right,0.756000042,2,0.75,0,1,0.406000137,0,3,0.529000044,1,0,200,4,1,199,1,1,0.5,1,stim/objects/HouseObjects/safetypin.png,stim/53.jpeg,5,stim/5.png,3,3,37,2020-12-12_12h12.45.996,premup-three_ses-02_part-03_label-phase3,3.2.4,Win32,60
1,right,1.055999994,2,0.666999817,0,2,0.878000021,0,3,0.502000093,1,0,200,5,1,199,1,1,0.5,1,stim/objects/Instruments/guitarcase.png,stim/52.jpeg,5,stim/5.png,2,3,37,2020-12-12_12h12.45.996,premup-three_ses-02_part-03_label-phase3,3.2.4,Win32,60
1,left,1.038000107,3,0.84100008,0,1,0.513999939,0,3,0.506000042,1,0,200,53,1,199,2,2,0.3,1,stim/objects/Instruments/clarinet2.png,stim/21.jpeg,2,stim/2.png,1,1,37,2020-12-12_12h12.45.996,premup-three_ses-02_part-03_label-phase3,3.2.4,Win32,60
1,right,0.777999878,,,0,,,0,,,1,0,200,133,1,199,0,2,0,2,stim/objects/Instruments/electricdrumset3.png,,0,stim/0.png,0,0,37,2020-12-12_12h12.45.996,premup-three_ses-02_part-03_label-phase3,3.2.4,Win32,60
1,right,0.687999964,,,0,,,0,,,1,0,200,115,1,199,0,2,0,2,stim/objects/Instruments/bassguitar3.png,,0,stim/0.png,0,0,37,2020-12-12_12h12.45.996,premup-three_ses-02_part-03_label-phase3,3.2.4,Win32,60
1,left,0.902999878,,,0,,,0,,,1,0,200,105,1,199,0,1,0,2,stim/objects/HouseObjects/blender3.png,,0,stim/0.png,0,0,37,2020-12-12_12h12.45.996,premup-three_ses-02_part-03_label-phase3,3.2.4,Win32,60
1,right,1.036000013,2,0.789000034,0,1,0.585000038,0,2,0.546999931,1,0,200,70,1,199,3,2,0.9,1,stim/objects/Instruments/flute2.png,stim/33.jpeg,3,stim/3.png,3,4,37,2020-12-12_12h12.45.996,premup-three_ses-02_part-03_label-phase3,3.2.4,Win32,60
1,left,1.032000065,3,0.894999981,0,1,1.657999992,0,2,0.555999994,1,0,200,88,1,199,3,1,0.9,1,stim/objects/HouseObjects/vacuumcleaner2.png,stim/41.jpeg,4,stim/4.png,1,2,37,2020-12-12_12h12.45.996,premup-three_ses-02_part-03_label-phase3,3.2.4,Win32,60
1,right,1.736000061,,,0,,,0,,,1,0,200,193,1,199,0,2,0,2,stim/objects/Instruments/clarinet4.png,,0,stim/0.png,0,0,37,2020-12-12_12h12.45.996,premup-three_ses-02_part-03_label-phase3,3.2.4,Win32,60
1,right,0.796000004,,,0,,,0,,,1,0,200,160,1,199,0,1,0,2,stim/objects/HouseObjects/thermometer3.png,,0,stim/0.png,0,0,37,2020-12-12_12h12.45.996,premup-three_ses-02_part-03_label-phase3,3.2.4,Win32,60
1,right,0.742000103,2,0.704999924,0,1,0.666000128,0,2,0.359999895,1,0,200,87,1,199,3,1,0.9,1,stim/objects/HouseObjects/towel2.png,stim/44.jpeg,4,stim/4.png,4,3,37,2020-12-12_12h12.45.996,premup-three_ses-02_part-03_label-phase3,3.2.4,Win32,60
1,right,1.32400012,2,0.618999958,0,3,1.058000088,0,1,0.573999882,1,0,200,95,1,199,3,2,0.1,1,stim/objects/Instruments/trumpet2.png,stim/44.jpeg,4,stim/4.png,4,1,37,2020-12-12_12h12.45.996,premup-three_ses-02_part-03_label-phase3,3.2.4,Win32,60
1,right,0.640000105,,,0,,,0,,,1,0,200,199,1,199,0,2,0,2,stim/objects/Instruments/electricguitar4.png,,0,stim/0.png,0,0,37,2020-12-12_12h12.45.996,premup-three_ses-02_part-03_label-phase3,3.2.4,Win32,60
