key_resp_pract.keys,key_resp_pract.rt,trial_acc,trial_index,practice_loop.thisRepN,practice_loop.thisTrialN,practice_loop.thisN,practice_loop.thisIndex,practice_loop.ran,practice_loop.order,scn_condition,scn_cat,scn_inst,scn_file,obj_cat,obj_cat_num,obj_file,trial_cond,quadrant,obj_x,obj_y,corr_ans,participant,date,expName,psychopyVersion,OS,frameRate,key_resp_trial.keys,key_resp_trial.rt,iterations.thisRepN,iterations.thisTrialN,iterations.thisN,iterations.thisIndex,iterations.ran,iterations.order,task_innerloop.thisRepN,task_innerloop.thisTrialN,task_innerloop.thisN,task_innerloop.thisIndex,task_innerloop.ran,task_innerloop.order,iteration_index,rating_acc,slider.response,slider.rt,slider_2.response,slider_2.rt,ratings.thisRepN,ratings.thisTrialN,ratings.thisN,ratings.thisIndex,ratings.ran,ratings.order,obj_cat_top,min_resp_top,max_resp_top,obj_cat_bottom,min_resp_bottom,max_resp_bottom
,,0,1,1,0,240,39,1,239,1,1,4,stim/14.jpeg,HouseObjects,2,stim/objects/HouseObjects/rug.png,0.5,1,-0.2,0.15,right,38,2020-12-11_17h38.48.853,premup-three_ses-01_part-01_label-phase1,3.2.4,Win32,60,,,,,,,,,,,,,,,,,,,,,,,,,,,,,,,,
left,0.777000189,1,2,1,0,240,217,1,239,3,6,2,stim/62.jpeg,Instruments,1,stim/objects/Instruments/trombone2.png,0.9,1,-0.2,0.15,left,38,2020-12-11_17h38.48.853,premup-three_ses-01_part-01_label-phase1,3.2.4,Win32,60,,,,,,,,,,,,,,,,,,,,,,,,,,,,,,,,
left,1.103999853,1,3,1,0,240,45,1,239,1,2,2,stim/22.jpeg,Instruments,1,stim/objects/Instruments/speaker.png,0.5,1,-0.2,0.15,left,38,2020-12-11_17h38.48.853,premup-three_ses-01_part-01_label-phase1,3.2.4,Win32,60,,,,,,,,,,,,,,,,,,,,,,,,,,,,,,,,
right,0.84800005,1,4,1,0,240,103,1,239,2,3,4,stim/34.jpeg,HouseObjects,2,stim/objects/HouseObjects/thread.png,0.7,3,-0.2,-0.15,right,38,2020-12-11_17h38.48.853,premup-three_ses-01_part-01_label-phase1,3.2.4,Win32,60,,,,,,,,,,,,,,,,,,,,,,,,,,,,,,,,
right,0.641000032,1,5,1,0,240,153,1,239,2,4,2,stim/42.jpeg,HouseObjects,2,stim/objects/HouseObjects/remote2.png,0.3,2,0.2,0.15,right,38,2020-12-11_17h38.48.853,premup-three_ses-01_part-01_label-phase1,3.2.4,Win32,60,,,,,,,,,,,,,,,,,,,,,,,,,,,,,,,,
left,0.895999908,1,6,1,0,240,214,1,239,3,6,3,stim/63.jpeg,Instruments,1,stim/objects/Instruments/trumpet2.png,0.9,2,0.2,0.15,left,38,2020-12-11_17h38.48.853,premup-three_ses-01_part-01_label-phase1,3.2.4,Win32,60,,,,,,,,,,,,,,,,,,,,,,,,,,,,,,,,
left,0.628999949,1,7,1,0,240,208,1,239,3,6,1,stim/61.jpeg,Instruments,1,stim/objects/Instruments/triangle2.png,0.9,2,0.2,0.15,left,38,2020-12-11_17h38.48.853,premup-three_ses-01_part-01_label-phase1,3.2.4,Win32,60,,,,,,,,,,,,,,,,,,,,,,,,,,,,,,,,
right,0.625,1,8,1,0,240,36,1,239,1,1,1,stim/11.jpeg,HouseObjects,2,stim/objects/HouseObjects/recyclingbin.png,0.5,2,0.2,0.15,right,38,2020-12-11_17h38.48.853,premup-three_ses-01_part-01_label-phase1,3.2.4,Win32,60,,,,,,,,,,,,,,,,,,,,,,,,,,,,,,,,
,,0,9,1,0,240,82,1,239,2,3,3,stim/33.jpeg,Instruments,1,stim/objects/Instruments/trumpet.png,0.3,3,-0.2,-0.15,left,38,2020-12-11_17h38.48.853,premup-three_ses-01_part-01_label-phase1,3.2.4,Win32,60,,,,,,,,,,,,,,,,,,,,,,,,,,,,,,,,
left,0.640000105,1,10,1,0,240,218,1,239,3,6,3,stim/63.jpeg,Instruments,1,stim/objects/Instruments/trumpet2.png,0.9,3,-0.2,-0.15,left,38,2020-12-11_17h38.48.853,premup-three_ses-01_part-01_label-phase1,3.2.4,Win32,60,,,,,,,,,,,,,,,,,,,,,,,,,,,,,,,,
,,1,1,,,,,,,3,5,3,stim/53.jpeg,HouseObjects,2,stim/objects/HouseObjects/scale2.png,0.9,2,0.2,0.15,right,38,2020-12-11_17h38.48.853,premup-three_ses-01_part-01_label-phase1,3.2.4,Win32,60,right,1.305999994,4,0,4,0,1,3,1,0,240,166,1,239,,,,,,,,,,,,,,,,,,
,,0,2,,,,,,,1,2,3,stim/23.jpeg,Instruments,1,stim/objects/Instruments/tambourine.png,0.5,1,-0.2,0.15,left,38,2020-12-11_17h38.48.853,premup-three_ses-01_part-01_label-phase1,3.2.4,Win32,60,right,0.819000006,4,0,4,0,1,3,1,0,240,58,1,239,,,,,,,,,,,,,,,,,,
,,1,3,,,,,,,3,5,4,stim/54.jpeg,HouseObjects,2,stim/objects/HouseObjects/sponge2.png,0.9,2,0.2,0.15,right,38,2020-12-11_17h38.48.853,premup-three_ses-01_part-01_label-phase1,3.2.4,Win32,60,right,0.870000124,4,0,4,0,1,3,1,0,240,195,1,239,,,,,,,,,,,,,,,,,,
,,1,4,,,,,,,1,1,1,stim/11.jpeg,Instruments,1,stim/objects/Instruments/panflute.png,0.5,2,0.2,0.15,left,38,2020-12-11_17h38.48.853,premup-three_ses-01_part-01_label-phase1,3.2.4,Win32,60,left,0.703000069,4,0,4,0,1,3,1,0,240,16,1,239,,,,,,,,,,,,,,,,,,
,,1,5,,,,,,,3,5,3,stim/53.jpeg,HouseObjects,2,stim/objects/HouseObjects/scale2.png,0.9,1,-0.2,0.15,right,38,2020-12-11_17h38.48.853,premup-three_ses-01_part-01_label-phase1,3.2.4,Win32,60,right,0.59800005,4,0,4,0,1,3,1,0,240,182,1,239,,,,,,,,,,,,,,,,,,
,,1,6,,,,,,,1,2,3,stim/23.jpeg,Instruments,1,stim/objects/Instruments/tambourine.png,0.5,4,0.2,-0.15,left,38,2020-12-11_17h38.48.853,premup-three_ses-01_part-01_label-phase1,3.2.4,Win32,60,left,0.674000025,4,0,4,0,1,3,1,0,240,54,1,239,,,,,,,,,,,,,,,,,,
,,1,7,,,,,,,3,6,3,stim/63.jpeg,Instruments,1,stim/objects/Instruments/trumpet2.png,0.9,2,0.2,0.15,left,38,2020-12-11_17h38.48.853,premup-three_ses-01_part-01_label-phase1,3.2.4,Win32,60,left,0.504000187,4,0,4,0,1,3,1,0,240,226,1,239,,,,,,,,,,,,,,,,,,
,,1,8,,,,,,,1,2,4,stim/24.jpeg,Instruments,1,stim/objects/Instruments/timbal.png,0.5,1,-0.2,0.15,left,38,2020-12-11_17h38.48.853,premup-three_ses-01_part-01_label-phase1,3.2.4,Win32,60,left,1.309000015,4,0,4,0,1,3,1,0,240,59,1,239,,,,,,,,,,,,,,,,,,
,,1,9,,,,,,,3,5,4,stim/54.jpeg,HouseObjects,2,stim/objects/HouseObjects/sponge2.png,0.9,4,0.2,-0.15,right,38,2020-12-11_17h38.48.853,premup-three_ses-01_part-01_label-phase1,3.2.4,Win32,60,right,0.507999897,4,0,4,0,1,3,1,0,240,199,1,239,,,,,,,,,,,,,,,,,,
,,1,10,,,,,,,1,2,1,stim/21.jpeg,Instruments,1,stim/objects/Instruments/saxophone.png,0.5,3,-0.2,-0.15,left,38,2020-12-11_17h38.48.853,premup-three_ses-01_part-01_label-phase1,3.2.4,Win32,60,left,0.549999952,4,0,4,0,1,3,1,0,240,48,1,239,,,,,,,,,,,,,,,,,,
,,1,11,,,,,,,3,6,4,stim/64.jpeg,Instruments,1,stim/objects/Instruments/tuba2.png,0.9,4,0.2,-0.15,left,38,2020-12-11_17h38.48.853,premup-three_ses-01_part-01_label-phase1,3.2.4,Win32,60,left,0.677000046,4,0,4,0,1,3,1,0,240,207,1,239,,,,,,,,,,,,,,,,,,
,,1,12,,,,,,,2,3,3,stim/33.jpeg,HouseObjects,2,stim/objects/HouseObjects/thermometer.png,0.7,4,0.2,-0.15,right,38,2020-12-11_17h38.48.853,premup-three_ses-01_part-01_label-phase1,3.2.4,Win32,60,right,0.486999989,4,0,4,0,1,3,1,0,240,114,1,239,,,,,,,,,,,,,,,,,,
,,1,13,,,,,,,3,5,2,stim/52.jpeg,HouseObjects,2,stim/objects/HouseObjects/saw2.png,0.9,4,0.2,-0.15,right,38,2020-12-11_17h38.48.853,premup-three_ses-01_part-01_label-phase1,3.2.4,Win32,60,right,0.684000015,4,0,4,0,1,3,1,0,240,181,1,239,,,,,,,,,,,,,,,,,,
,,1,14,,,,,,,3,6,2,stim/62.jpeg,Instruments,1,stim/objects/Instruments/trombone2.png,0.9,1,-0.2,0.15,left,38,2020-12-11_17h38.48.853,premup-three_ses-01_part-01_label-phase1,3.2.4,Win32,60,left,0.521000147,4,0,4,0,1,3,1,0,240,233,1,239,,,,,,,,,,,,,,,,,,
,,1,15,,,,,,,2,4,1,stim/41.jpeg,Instruments,1,stim/objects/Instruments/panflute2.png,0.7,1,-0.2,0.15,left,38,2020-12-11_17h38.48.853,premup-three_ses-01_part-01_label-phase1,3.2.4,Win32,60,left,0.794000149,4,0,4,0,1,3,1,0,240,124,1,239,,,,,,,,,,,,,,,,,,
,,1,16,,,,,,,1,1,1,stim/11.jpeg,HouseObjects,2,stim/objects/HouseObjects/recyclingbin.png,0.5,2,0.2,0.15,right,38,2020-12-11_17h38.48.853,premup-three_ses-01_part-01_label-phase1,3.2.4,Win32,60,right,0.427999973,4,0,4,0,1,3,1,0,240,24,1,239,,,,,,,,,,,,,,,,,,
,,1,17,,,,,,,1,1,2,stim/12.jpeg,HouseObjects,2,stim/objects/HouseObjects/remote.png,0.5,3,-0.2,-0.15,right,38,2020-12-11_17h38.48.853,premup-three_ses-01_part-01_label-phase1,3.2.4,Win32,60,right,0.707999945,4,0,4,0,1,3,1,0,240,37,1,239,,,,,,,,,,,,,,,,,,
,,0,18,,,,,,,1,1,2,stim/12.jpeg,Instruments,1,stim/objects/Instruments/pipepiano.png,0.5,4,0.2,-0.15,left,38,2020-12-11_17h38.48.853,premup-three_ses-01_part-01_label-phase1,3.2.4,Win32,60,right,0.385999918,4,0,4,0,1,3,1,0,240,17,1,239,,,,,,,,,,,,,,,,,,
,,1,19,,,,,,,1,2,1,stim/21.jpeg,Instruments,1,stim/objects/Instruments/saxophone.png,0.5,4,0.2,-0.15,left,38,2020-12-11_17h38.48.853,premup-three_ses-01_part-01_label-phase1,3.2.4,Win32,60,left,0.647000074,4,0,4,0,1,3,1,0,240,52,1,239,,,,,,,,,,,,,,,,,,
,,0,20,,,,,,,2,4,2,stim/42.jpeg,Instruments,1,stim/objects/Instruments/pipepiano2.png,0.7,1,-0.2,0.15,left,38,2020-12-11_17h38.48.853,premup-three_ses-01_part-01_label-phase1,3.2.4,Win32,60,right,0.645999908,4,0,4,0,1,3,1,0,240,129,1,239,,,,,,,,,,,,,,,,,,
,,1,21,,,,,,,3,6,3,stim/63.jpeg,Instruments,1,stim/objects/Instruments/trumpet2.png,0.9,3,-0.2,-0.15,left,38,2020-12-11_17h38.48.853,premup-three_ses-01_part-01_label-phase1,3.2.4,Win32,60,left,0.531000137,4,0,4,0,1,3,1,0,240,218,1,239,,,,,,,,,,,,,,,,,,
,,0,22,,,,,,,3,5,3,stim/53.jpeg,Instruments,1,stim/objects/Instruments/tambourine2.png,0.1,4,0.2,-0.15,left,38,2020-12-11_17h38.48.853,premup-three_ses-01_part-01_label-phase1,3.2.4,Win32,60,right,0.696000099,4,0,4,0,1,3,1,0,240,162,1,239,,,,,,,,,,,,,,,,,,
,,1,23,,,,,,,2,4,4,stim/44.jpeg,Instruments,1,stim/objects/Instruments/record_player2.png,0.7,1,-0.2,0.15,left,38,2020-12-11_17h38.48.853,premup-three_ses-01_part-01_label-phase1,3.2.4,Win32,60,left,0.764999866,4,0,4,0,1,3,1,0,240,143,1,239,,,,,,,,,,,,,,,,,,
,,0,24,,,,,,,3,5,1,stim/51.jpeg,HouseObjects,2,stim/objects/HouseObjects/safetypin2.png,0.9,1,-0.2,0.15,right,38,2020-12-11_17h38.48.853,premup-three_ses-01_part-01_label-phase1,3.2.4,Win32,60,left,0.398999929,4,0,4,0,1,3,1,0,240,192,1,239,,,,,,,,,,,,,,,,,,
,,0,25,,,,,,,1,1,4,stim/14.jpeg,HouseObjects,2,stim/objects/HouseObjects/rug.png,0.5,2,0.2,0.15,right,38,2020-12-11_17h38.48.853,premup-three_ses-01_part-01_label-phase1,3.2.4,Win32,60,left,0.846999884,4,0,4,0,1,3,1,0,240,23,1,239,,,,,,,,,,,,,,,,,,
,,0,26,,,,,,,1,1,4,stim/14.jpeg,HouseObjects,2,stim/objects/HouseObjects/rug.png,0.5,1,-0.2,0.15,right,38,2020-12-11_17h38.48.853,premup-three_ses-01_part-01_label-phase1,3.2.4,Win32,60,left,0.517999887,4,0,4,0,1,3,1,0,240,31,1,239,,,,,,,,,,,,,,,,,,
,,1,27,,,,,,,2,3,3,stim/33.jpeg,Instruments,1,stim/objects/Instruments/trumpet.png,0.3,4,0.2,-0.15,left,38,2020-12-11_17h38.48.853,premup-three_ses-01_part-01_label-phase1,3.2.4,Win32,60,left,0.885999918,4,0,4,0,1,3,1,0,240,90,1,239,,,,,,,,,,,,,,,,,,
,,0,28,,,,,,,2,4,1,stim/41.jpeg,Instruments,1,stim/objects/Instruments/panflute2.png,0.7,2,0.2,0.15,left,38,2020-12-11_17h38.48.853,premup-three_ses-01_part-01_label-phase1,3.2.4,Win32,60,right,0.758999825,4,0,4,0,1,3,1,0,240,128,1,239,,,,,,,,,,,,,,,,,,
,,1,29,,,,,,,3,6,2,stim/62.jpeg,Instruments,1,stim/objects/Instruments/trombone2.png,0.9,1,-0.2,0.15,left,38,2020-12-11_17h38.48.853,premup-three_ses-01_part-01_label-phase1,3.2.4,Win32,60,left,0.521000147,4,0,4,0,1,3,1,0,240,201,1,239,,,,,,,,,,,,,,,,,,
,,1,30,,,,,,,3,6,1,stim/61.jpeg,Instruments,1,stim/objects/Instruments/triangle2.png,0.9,2,0.2,0.15,left,38,2020-12-11_17h38.48.853,premup-three_ses-01_part-01_label-phase1,3.2.4,Win32,60,left,0.510999918,4,0,4,0,1,3,1,0,240,208,1,239,,,,,,,,,,,,,,,,,,
,,1,31,,,,,,,1,1,2,stim/12.jpeg,HouseObjects,2,stim/objects/HouseObjects/remote.png,0.5,2,0.2,0.15,right,38,2020-12-11_17h38.48.853,premup-three_ses-01_part-01_label-phase1,3.2.4,Win32,60,right,1.417999983,4,0,4,0,1,3,1,0,240,33,1,239,,,,,,,,,,,,,,,,,,
,,0,32,,,,,,,3,6,4,stim/64.jpeg,HouseObjects,2,stim/objects/HouseObjects/thread2.png,0.1,4,0.2,-0.15,right,38,2020-12-11_17h38.48.853,premup-three_ses-01_part-01_label-phase1,3.2.4,Win32,60,left,0.450000048,4,0,4,0,1,3,1,0,240,239,1,239,,,,,,,,,,,,,,,,,,
,,1,33,,,,,,,2,3,4,stim/34.jpeg,HouseObjects,2,stim/objects/HouseObjects/thread.png,0.7,2,0.2,0.15,right,38,2020-12-11_17h38.48.853,premup-three_ses-01_part-01_label-phase1,3.2.4,Win32,60,right,0.722000122,4,0,4,0,1,3,1,0,240,107,1,239,,,,,,,,,,,,,,,,,,
,,0,34,,,,,,,2,4,1,stim/41.jpeg,Instruments,1,stim/objects/Instruments/panflute2.png,0.7,2,0.2,0.15,left,38,2020-12-11_17h38.48.853,premup-three_ses-01_part-01_label-phase1,3.2.4,Win32,60,right,0.707999945,4,0,4,0,1,3,1,0,240,140,1,239,,,,,,,,,,,,,,,,,,
,,0,35,,,,,,,2,4,2,stim/42.jpeg,Instruments,1,stim/objects/Instruments/pipepiano2.png,0.7,2,0.2,0.15,left,38,2020-12-11_17h38.48.853,premup-three_ses-01_part-01_label-phase1,3.2.4,Win32,60,right,0.520999908,4,0,4,0,1,3,1,0,240,137,1,239,,,,,,,,,,,,,,,,,,
,,1,36,,,,,,,1,1,4,stim/14.jpeg,Instruments,1,stim/objects/Instruments/record_player.png,0.5,4,0.2,-0.15,left,38,2020-12-11_17h38.48.853,premup-three_ses-01_part-01_label-phase1,3.2.4,Win32,60,left,0.483999968,4,0,4,0,1,3,1,0,240,11,1,239,,,,,,,,,,,,,,,,,,
,,1,37,,,,,,,2,3,1,stim/31.jpeg,HouseObjects,2,stim/objects/HouseObjects/spraybottle.png,0.7,3,-0.2,-0.15,right,38,2020-12-11_17h38.48.853,premup-three_ses-01_part-01_label-phase1,3.2.4,Win32,60,right,0.921000004,4,0,4,0,1,3,1,0,240,116,1,239,,,,,,,,,,,,,,,,,,
,,0,38,,,,,,,2,3,1,stim/31.jpeg,Instruments,1,stim/objects/Instruments/triangle.png,0.3,2,0.2,0.15,left,38,2020-12-11_17h38.48.853,premup-three_ses-01_part-01_label-phase1,3.2.4,Win32,60,right,0.496999979,4,0,4,0,1,3,1,0,240,80,1,239,,,,,,,,,,,,,,,,,,
,,1,39,,,,,,,3,6,1,stim/61.jpeg,Instruments,1,stim/objects/Instruments/triangle2.png,0.9,4,0.2,-0.15,left,38,2020-12-11_17h38.48.853,premup-three_ses-01_part-01_label-phase1,3.2.4,Win32,60,left,0.519999981,4,0,4,0,1,3,1,0,240,228,1,239,,,,,,,,,,,,,,,,,,
,,0,40,,,,,,,1,2,4,stim/24.jpeg,Instruments,1,stim/objects/Instruments/timbal.png,0.5,3,-0.2,-0.15,left,38,2020-12-11_17h38.48.853,premup-three_ses-01_part-01_label-phase1,3.2.4,Win32,60,right,0.839999914,4,0,4,0,1,3,1,0,240,43,1,239,,,,,,,,,,,,,,,,,,
,,1,41,,,,,,,1,1,4,stim/14.jpeg,HouseObjects,2,stim/objects/HouseObjects/rug.png,0.5,4,0.2,-0.15,right,38,2020-12-11_17h38.48.853,premup-three_ses-01_part-01_label-phase1,3.2.4,Win32,60,right,0.915999889,4,0,4,0,1,3,1,0,240,27,1,239,,,,,,,,,,,,,,,,,,
,,0,42,,,,,,,2,4,4,stim/44.jpeg,Instruments,1,stim/objects/Instruments/record_player2.png,0.7,2,0.2,0.15,left,38,2020-12-11_17h38.48.853,premup-three_ses-01_part-01_label-phase1,3.2.4,Win32,60,right,1.132999897,4,0,4,0,1,3,1,0,240,147,1,239,,,,,,,,,,,,,,,,,,
,,1,43,,,,,,,3,6,2,stim/62.jpeg,Instruments,1,stim/objects/Instruments/trombone2.png,0.9,4,0.2,-0.15,left,38,2020-12-11_17h38.48.853,premup-three_ses-01_part-01_label-phase1,3.2.4,Win32,60,left,0.523999929,4,0,4,0,1,3,1,0,240,225,1,239,,,,,,,,,,,,,,,,,,
,,1,44,,,,,,,3,6,2,stim/62.jpeg,Instruments,1,stim/objects/Instruments/trombone2.png,0.9,1,-0.2,0.15,left,38,2020-12-11_17h38.48.853,premup-three_ses-01_part-01_label-phase1,3.2.4,Win32,60,left,0.427000046,4,0,4,0,1,3,1,0,240,221,1,239,,,,,,,,,,,,,,,,,,
,,1,45,,,,,,,2,3,2,stim/32.jpeg,HouseObjects,2,stim/objects/HouseObjects/teapot.png,0.7,3,-0.2,-0.15,right,38,2020-12-11_17h38.48.853,premup-three_ses-01_part-01_label-phase1,3.2.4,Win32,60,right,0.722999811,4,0,4,0,1,3,1,0,240,101,1,239,,,,,,,,,,,,,,,,,,
,,1,46,,,,,,,3,6,1,stim/61.jpeg,Instruments,1,stim/objects/Instruments/triangle2.png,0.9,3,-0.2,-0.15,left,38,2020-12-11_17h38.48.853,premup-three_ses-01_part-01_label-phase1,3.2.4,Win32,60,left,0.534999847,4,0,4,0,1,3,1,0,240,204,1,239,,,,,,,,,,,,,,,,,,
,,0,47,,,,,,,2,4,2,stim/42.jpeg,HouseObjects,2,stim/objects/HouseObjects/remote2.png,0.3,2,0.2,0.15,right,38,2020-12-11_17h38.48.853,premup-three_ses-01_part-01_label-phase1,3.2.4,Win32,60,left,0.914000034,4,0,4,0,1,3,1,0,240,157,1,239,,,,,,,,,,,,,,,,,,
,,1,48,,,,,,,3,5,4,stim/54.jpeg,HouseObjects,2,stim/objects/HouseObjects/sponge2.png,0.9,1,-0.2,0.15,right,38,2020-12-11_17h38.48.853,premup-three_ses-01_part-01_label-phase1,3.2.4,Win32,60,right,0.540999889,4,0,4,0,1,3,1,0,240,183,1,239,,,,,,,,,,,,,,,,,,
,,0,49,,,,,,,2,4,2,stim/42.jpeg,HouseObjects,2,stim/objects/HouseObjects/remote2.png,0.3,2,0.2,0.15,right,38,2020-12-11_17h38.48.853,premup-three_ses-01_part-01_label-phase1,3.2.4,Win32,60,left,0.976999998,4,0,4,0,1,3,1,0,240,153,1,239,,,,,,,,,,,,,,,,,,
,,1,50,,,,,,,1,1,4,stim/14.jpeg,Instruments,1,stim/objects/Instruments/record_player.png,0.5,4,0.2,-0.15,left,38,2020-12-11_17h38.48.853,premup-three_ses-01_part-01_label-phase1,3.2.4,Win32,60,left,0.506999969,4,0,4,0,1,3,1,0,240,7,1,239,,,,,,,,,,,,,,,,,,
,,1,51,,,,,,,1,1,3,stim/13.jpeg,Instruments,1,stim/objects/Instruments/record.png,0.5,2,0.2,0.15,left,38,2020-12-11_17h38.48.853,premup-three_ses-01_part-01_label-phase1,3.2.4,Win32,60,left,0.631999969,4,0,4,0,1,3,1,0,240,6,1,239,,,,,,,,,,,,,,,,,,
,,1,52,,,,,,,3,5,4,stim/54.jpeg,HouseObjects,2,stim/objects/HouseObjects/sponge2.png,0.9,2,0.2,0.15,right,38,2020-12-11_17h38.48.853,premup-three_ses-01_part-01_label-phase1,3.2.4,Win32,60,right,0.476000071,4,0,4,0,1,3,1,0,240,191,1,239,,,,,,,,,,,,,,,,,,
,,1,53,,,,,,,3,6,3,stim/63.jpeg,Instruments,1,stim/objects/Instruments/trumpet2.png,0.9,2,0.2,0.15,left,38,2020-12-11_17h38.48.853,premup-three_ses-01_part-01_label-phase1,3.2.4,Win32,60,left,0.48300004,4,0,4,0,1,3,1,0,240,214,1,239,,,,,,,,,,,,,,,,,,
,,0,54,,,,,,,1,2,2,stim/22.jpeg,HouseObjects,2,stim/objects/HouseObjects/saw.png,0.5,3,-0.2,-0.15,right,38,2020-12-11_17h38.48.853,premup-three_ses-01_part-01_label-phase1,3.2.4,Win32,60,left,0.720999956,4,0,4,0,1,3,1,0,240,77,1,239,,,,,,,,,,,,,,,,,,
,,1,55,,,,,,,2,3,4,stim/34.jpeg,HouseObjects,2,stim/objects/HouseObjects/thread.png,0.7,4,0.2,-0.15,right,38,2020-12-11_17h38.48.853,premup-three_ses-01_part-01_label-phase1,3.2.4,Win32,60,right,0.792999983,4,0,4,0,1,3,1,0,240,99,1,239,,,,,,,,,,,,,,,,,,
,,1,56,,,,,,,3,6,2,stim/62.jpeg,Instruments,1,stim/objects/Instruments/trombone2.png,0.9,4,0.2,-0.15,left,38,2020-12-11_17h38.48.853,premup-three_ses-01_part-01_label-phase1,3.2.4,Win32,60,left,0.50999999,4,0,4,0,1,3,1,0,240,209,1,239,,,,,,,,,,,,,,,,,,
,,1,57,,,,,,,1,2,2,stim/22.jpeg,Instruments,1,stim/objects/Instruments/speaker.png,0.5,4,0.2,-0.15,left,38,2020-12-11_17h38.48.853,premup-three_ses-01_part-01_label-phase1,3.2.4,Win32,60,left,0.882999897,4,0,4,0,1,3,1,0,240,41,1,239,,,,,,,,,,,,,,,,,,
,,1,58,,,,,,,3,5,1,stim/51.jpeg,HouseObjects,2,stim/objects/HouseObjects/safetypin2.png,0.9,4,0.2,-0.15,right,38,2020-12-11_17h38.48.853,premup-three_ses-01_part-01_label-phase1,3.2.4,Win32,60,right,0.583999872,4,0,4,0,1,3,1,0,240,180,1,239,,,,,,,,,,,,,,,,,,
,,1,59,,,,,,,1,2,3,stim/23.jpeg,HouseObjects,2,stim/objects/HouseObjects/scale.png,0.5,4,0.2,-0.15,right,38,2020-12-11_17h38.48.853,premup-three_ses-01_part-01_label-phase1,3.2.4,Win32,60,right,0.443000078,4,0,4,0,1,3,1,0,240,66,1,239,,,,,,,,,,,,,,,,,,
,,0,60,,,,,,,1,2,1,stim/21.jpeg,Instruments,1,stim/objects/Instruments/saxophone.png,0.5,3,-0.2,-0.15,left,38,2020-12-11_17h38.48.853,premup-three_ses-01_part-01_label-phase1,3.2.4,Win32,60,right,0.447000027,4,0,4,0,1,3,1,0,240,44,1,239,,,,,,,,,,,,,,,,,,
,,1,61,,,,,,,3,5,3,stim/53.jpeg,HouseObjects,2,stim/objects/HouseObjects/scale2.png,0.9,3,-0.2,-0.15,right,38,2020-12-11_17h38.48.853,premup-three_ses-01_part-01_label-phase1,3.2.4,Win32,60,right,0.572999954,4,0,4,0,1,3,1,0,240,170,1,239,,,,,,,,,,,,,,,,,,
,,1,62,,,,,,,1,2,2,stim/22.jpeg,Instruments,1,stim/objects/Instruments/speaker.png,0.5,1,-0.2,0.15,left,38,2020-12-11_17h38.48.853,premup-three_ses-01_part-01_label-phase1,3.2.4,Win32,60,left,0.625,4,0,4,0,1,3,1,0,240,45,1,239,,,,,,,,,,,,,,,,,,
,,1,63,,,,,,,1,2,4,stim/24.jpeg,Instruments,1,stim/objects/Instruments/timbal.png,0.5,4,0.2,-0.15,left,38,2020-12-11_17h38.48.853,premup-three_ses-01_part-01_label-phase1,3.2.4,Win32,60,left,0.565000057,4,0,4,0,1,3,1,0,240,51,1,239,,,,,,,,,,,,,,,,,,
,,1,64,,,,,,,2,3,4,stim/34.jpeg,HouseObjects,2,stim/objects/HouseObjects/thread.png,0.7,4,0.2,-0.15,right,38,2020-12-11_17h38.48.853,premup-three_ses-01_part-01_label-phase1,3.2.4,Win32,60,right,0.713999987,4,0,4,0,1,3,1,0,240,115,1,239,,,,,,,,,,,,,,,,,,
,,0,65,,,,,,,2,3,2,stim/32.jpeg,Instruments,1,stim/objects/Instruments/trombone.png,0.3,2,0.2,0.15,left,38,2020-12-11_17h38.48.853,premup-three_ses-01_part-01_label-phase1,3.2.4,Win32,60,right,0.738999844,4,0,4,0,1,3,1,0,240,85,1,239,,,,,,,,,,,,,,,,,,
,,1,66,,,,,,,2,3,2,stim/32.jpeg,HouseObjects,2,stim/objects/HouseObjects/teapot.png,0.7,4,0.2,-0.15,right,38,2020-12-11_17h38.48.853,premup-three_ses-01_part-01_label-phase1,3.2.4,Win32,60,right,0.378000021,4,0,4,0,1,3,1,0,240,105,1,239,,,,,,,,,,,,,,,,,,
,,1,67,,,,,,,2,4,4,stim/44.jpeg,Instruments,1,stim/objects/Instruments/record_player2.png,0.7,1,-0.2,0.15,left,38,2020-12-11_17h38.48.853,premup-three_ses-01_part-01_label-phase1,3.2.4,Win32,60,left,1.058000088,4,0,4,0,1,3,1,0,240,127,1,239,,,,,,,,,,,,,,,,,,
,,1,68,,,,,,,3,5,4,stim/54.jpeg,HouseObjects,2,stim/objects/HouseObjects/sponge2.png,0.9,1,-0.2,0.15,right,38,2020-12-11_17h38.48.853,premup-three_ses-01_part-01_label-phase1,3.2.4,Win32,60,right,0.559999943,4,0,4,0,1,3,1,0,240,167,1,239,,,,,,,,,,,,,,,,,,
,,0,69,,,,,,,1,2,4,stim/24.jpeg,HouseObjects,2,stim/objects/HouseObjects/sponge.png,0.5,2,0.2,0.15,right,38,2020-12-11_17h38.48.853,premup-three_ses-01_part-01_label-phase1,3.2.4,Win32,60,left,0.585999966,4,0,4,0,1,3,1,0,240,63,1,239,,,,,,,,,,,,,,,,,,
,,0,70,,,,,,,1,2,3,stim/23.jpeg,HouseObjects,2,stim/objects/HouseObjects/scale.png,0.5,4,0.2,-0.15,right,38,2020-12-11_17h38.48.853,premup-three_ses-01_part-01_label-phase1,3.2.4,Win32,60,left,0.394000053,4,0,4,0,1,3,1,0,240,70,1,239,,,,,,,,,,,,,,,,,,
,,0,71,,,,,,,2,4,3,stim/43.jpeg,Instruments,1,stim/objects/Instruments/record2.png,0.7,3,-0.2,-0.15,left,38,2020-12-11_17h38.48.853,premup-three_ses-01_part-01_label-phase1,3.2.4,Win32,60,right,0.73300004,4,0,4,0,1,3,1,0,240,122,1,239,,,,,,,,,,,,,,,,,,
,,1,72,,,,,,,2,3,1,stim/31.jpeg,HouseObjects,2,stim/objects/HouseObjects/spraybottle.png,0.7,1,-0.2,0.15,right,38,2020-12-11_17h38.48.853,premup-three_ses-01_part-01_label-phase1,3.2.4,Win32,60,right,0.667999983,4,0,4,0,1,3,1,0,240,104,1,239,,,,,,,,,,,,,,,,,,
,,1,73,,,,,,,1,1,1,stim/11.jpeg,Instruments,1,stim/objects/Instruments/panflute.png,0.5,4,0.2,-0.15,left,38,2020-12-11_17h38.48.853,premup-three_ses-01_part-01_label-phase1,3.2.4,Win32,60,left,0.681999922,4,0,4,0,1,3,1,0,240,0,1,239,,,,,,,,,,,,,,,,,,
,,1,74,,,,,,,2,4,1,stim/41.jpeg,HouseObjects,2,stim/objects/HouseObjects/recyclingbin2.png,0.3,4,0.2,-0.15,right,38,2020-12-11_17h38.48.853,premup-three_ses-01_part-01_label-phase1,3.2.4,Win32,60,right,0.653000116,4,0,4,0,1,3,1,0,240,156,1,239,,,,,,,,,,,,,,,,,,
,,0,75,,,,,,,1,2,1,stim/21.jpeg,HouseObjects,2,stim/objects/HouseObjects/safetypin.png,0.5,3,-0.2,-0.15,right,38,2020-12-11_17h38.48.853,premup-three_ses-01_part-01_label-phase1,3.2.4,Win32,60,left,0.610000134,4,0,4,0,1,3,1,0,240,60,1,239,,,,,,,,,,,,,,,,,,
,,1,76,,,,,,,2,4,1,stim/41.jpeg,HouseObjects,2,stim/objects/HouseObjects/recyclingbin2.png,0.3,4,0.2,-0.15,right,38,2020-12-11_17h38.48.853,premup-three_ses-01_part-01_label-phase1,3.2.4,Win32,60,right,0.601000071,4,0,4,0,1,3,1,0,240,148,1,239,,,,,,,,,,,,,,,,,,
,,0,77,,,,,,,2,3,2,stim/32.jpeg,Instruments,1,stim/objects/Instruments/trombone.png,0.3,3,-0.2,-0.15,left,38,2020-12-11_17h38.48.853,premup-three_ses-01_part-01_label-phase1,3.2.4,Win32,60,right,0.603999853,4,0,4,0,1,3,1,0,240,89,1,239,,,,,,,,,,,,,,,,,,
,,1,78,,,,,,,2,3,3,stim/33.jpeg,HouseObjects,2,stim/objects/HouseObjects/thermometer.png,0.7,4,0.2,-0.15,right,38,2020-12-11_17h38.48.853,premup-three_ses-01_part-01_label-phase1,3.2.4,Win32,60,right,0.617000103,4,0,4,0,1,3,1,0,240,118,1,239,,,,,,,,,,,,,,,,,,
,,1,79,,,,,,,2,4,4,stim/44.jpeg,HouseObjects,2,stim/objects/HouseObjects/rug2.png,0.3,4,0.2,-0.15,right,38,2020-12-11_17h38.48.853,premup-three_ses-01_part-01_label-phase1,3.2.4,Win32,60,right,0.771000147,4,0,4,0,1,3,1,0,240,151,1,239,,,,,,,,,,,,,,,,,,
,,1,80,,,,,,,3,6,1,stim/61.jpeg,Instruments,1,stim/objects/Instruments/triangle2.png,0.9,3,-0.2,-0.15,left,38,2020-12-11_17h38.48.853,premup-three_ses-01_part-01_label-phase1,3.2.4,Win32,60,left,0.513000011,4,0,4,0,1,3,1,0,240,200,1,239,,,,,,,,,,,,,,,,,,
,,0,81,,,,,,,2,4,2,stim/42.jpeg,Instruments,1,stim/objects/Instruments/pipepiano2.png,0.7,3,-0.2,-0.15,left,38,2020-12-11_17h38.48.853,premup-three_ses-01_part-01_label-phase1,3.2.4,Win32,60,right,0.924000025,4,0,4,0,1,3,1,0,240,121,1,239,,,,,,,,,,,,,,,,,,
,,1,82,,,,,,,2,4,3,stim/43.jpeg,HouseObjects,2,stim/objects/HouseObjects/rubbergloves2.png,0.3,4,0.2,-0.15,right,38,2020-12-11_17h38.48.853,premup-three_ses-01_part-01_label-phase1,3.2.4,Win32,60,right,0.569999933,4,0,4,0,1,3,1,0,240,154,1,239,,,,,,,,,,,,,,,,,,
,,0,83,,,,,,,2,4,2,stim/42.jpeg,Instruments,1,stim/objects/Instruments/pipepiano2.png,0.7,3,-0.2,-0.15,left,38,2020-12-11_17h38.48.853,premup-three_ses-01_part-01_label-phase1,3.2.4,Win32,60,right,0.486999989,4,0,4,0,1,3,1,0,240,141,1,239,,,,,,,,,,,,,,,,,,
,,1,84,,,,,,,3,6,2,stim/62.jpeg,Instruments,1,stim/objects/Instruments/trombone2.png,0.9,4,0.2,-0.15,left,38,2020-12-11_17h38.48.853,premup-three_ses-01_part-01_label-phase1,3.2.4,Win32,60,left,0.512000084,4,0,4,0,1,3,1,0,240,229,1,239,,,,,,,,,,,,,,,,,,
,,1,85,,,,,,,2,3,3,stim/33.jpeg,HouseObjects,2,stim/objects/HouseObjects/thermometer.png,0.7,2,0.2,0.15,right,38,2020-12-11_17h38.48.853,premup-three_ses-01_part-01_label-phase1,3.2.4,Win32,60,right,0.562000036,4,0,4,0,1,3,1,0,240,94,1,239,,,,,,,,,,,,,,,,,,
,,1,86,,,,,,,2,3,1,stim/31.jpeg,HouseObjects,2,stim/objects/HouseObjects/spraybottle.png,0.7,4,0.2,-0.15,right,38,2020-12-11_17h38.48.853,premup-three_ses-01_part-01_label-phase1,3.2.4,Win32,60,right,0.512000084,4,0,4,0,1,3,1,0,240,100,1,239,,,,,,,,,,,,,,,,,,
,,1,87,,,,,,,3,5,1,stim/51.jpeg,HouseObjects,2,stim/objects/HouseObjects/safetypin2.png,0.9,1,-0.2,0.15,right,38,2020-12-11_17h38.48.853,premup-three_ses-01_part-01_label-phase1,3.2.4,Win32,60,right,0.56400013,4,0,4,0,1,3,1,0,240,176,1,239,,,,,,,,,,,,,,,,,,
,,1,88,,,,,,,3,5,1,stim/51.jpeg,HouseObjects,2,stim/objects/HouseObjects/safetypin2.png,0.9,2,0.2,0.15,right,38,2020-12-11_17h38.48.853,premup-three_ses-01_part-01_label-phase1,3.2.4,Win32,60,right,0.5,4,0,4,0,1,3,1,0,240,164,1,239,,,,,,,,,,,,,,,,,,
,,1,89,,,,,,,2,3,1,stim/31.jpeg,HouseObjects,2,stim/objects/HouseObjects/spraybottle.png,0.7,2,0.2,0.15,right,38,2020-12-11_17h38.48.853,premup-three_ses-01_part-01_label-phase1,3.2.4,Win32,60,right,0.96600008,4,0,4,0,1,3,1,0,240,108,1,239,,,,,,,,,,,,,,,,,,
,,0,90,,,,,,,1,2,1,stim/21.jpeg,HouseObjects,2,stim/objects/HouseObjects/safetypin.png,0.5,4,0.2,-0.15,right,38,2020-12-11_17h38.48.853,premup-three_ses-01_part-01_label-phase1,3.2.4,Win32,60,left,0.657999992,4,0,4,0,1,3,1,0,240,72,1,239,,,,,,,,,,,,,,,,,,
,,1,91,,,,,,,3,6,2,stim/62.jpeg,Instruments,1,stim/objects/Instruments/trombone2.png,0.9,1,-0.2,0.15,left,38,2020-12-11_17h38.48.853,premup-three_ses-01_part-01_label-phase1,3.2.4,Win32,60,left,0.506000042,4,0,4,0,1,3,1,0,240,213,1,239,,,,,,,,,,,,,,,,,,
,,0,92,,,,,,,1,1,1,stim/11.jpeg,HouseObjects,2,stim/objects/HouseObjects/recyclingbin.png,0.5,3,-0.2,-0.15,right,38,2020-12-11_17h38.48.853,premup-three_ses-01_part-01_label-phase1,3.2.4,Win32,60,left,0.901000023,4,0,4,0,1,3,1,0,240,20,1,239,,,,,,,,,,,,,,,,,,
,,1,93,,,,,,,1,2,2,stim/22.jpeg,Instruments,1,stim/objects/Instruments/speaker.png,0.5,4,0.2,-0.15,left,38,2020-12-11_17h38.48.853,premup-three_ses-01_part-01_label-phase1,3.2.4,Win32,60,left,0.641000032,4,0,4,0,1,3,1,0,240,49,1,239,,,,,,,,,,,,,,,,,,
,,1,94,,,,,,,1,1,3,stim/13.jpeg,HouseObjects,2,stim/objects/HouseObjects/rubbergloves.png,0.5,1,-0.2,0.15,right,38,2020-12-11_17h38.48.853,premup-three_ses-01_part-01_label-phase1,3.2.4,Win32,60,right,0.606999874,4,0,4,0,1,3,1,0,240,22,1,239,,,,,,,,,,,,,,,,,,
,,1,95,,,,,,,2,3,1,stim/31.jpeg,HouseObjects,2,stim/objects/HouseObjects/spraybottle.png,0.7,3,-0.2,-0.15,right,38,2020-12-11_17h38.48.853,premup-three_ses-01_part-01_label-phase1,3.2.4,Win32,60,right,0.631999969,4,0,4,0,1,3,1,0,240,92,1,239,,,,,,,,,,,,,,,,,,
,,0,96,,,,,,,2,4,2,stim/42.jpeg,Instruments,1,stim/objects/Instruments/pipepiano2.png,0.7,1,-0.2,0.15,left,38,2020-12-11_17h38.48.853,premup-three_ses-01_part-01_label-phase1,3.2.4,Win32,60,right,0.618999958,4,0,4,0,1,3,1,0,240,133,1,239,,,,,,,,,,,,,,,,,,
,,1,97,,,,,,,2,3,3,stim/33.jpeg,HouseObjects,2,stim/objects/HouseObjects/thermometer.png,0.7,1,-0.2,0.15,right,38,2020-12-11_17h38.48.853,premup-three_ses-01_part-01_label-phase1,3.2.4,Win32,60,right,0.499000072,4,0,4,0,1,3,1,0,240,98,1,239,,,,,,,,,,,,,,,,,,
,,1,98,,,,,,,3,5,1,stim/51.jpeg,HouseObjects,2,stim/objects/HouseObjects/safetypin2.png,0.9,4,0.2,-0.15,right,38,2020-12-11_17h38.48.853,premup-three_ses-01_part-01_label-phase1,3.2.4,Win32,60,right,0.458999872,4,0,4,0,1,3,1,0,240,188,1,239,,,,,,,,,,,,,,,,,,
,,0,99,,,,,,,1,1,3,stim/13.jpeg,HouseObjects,2,stim/objects/HouseObjects/rubbergloves.png,0.5,3,-0.2,-0.15,right,38,2020-12-11_17h38.48.853,premup-three_ses-01_part-01_label-phase1,3.2.4,Win32,60,left,1.447999954,4,0,4,0,1,3,1,0,240,34,1,239,,,,,,,,,,,,,,,,,,
,,1,100,,,,,,,1,2,2,stim/22.jpeg,Instruments,1,stim/objects/Instruments/speaker.png,0.5,3,-0.2,-0.15,left,38,2020-12-11_17h38.48.853,premup-three_ses-01_part-01_label-phase1,3.2.4,Win32,60,left,0.730000019,4,0,4,0,1,3,1,0,240,53,1,239,,,,,,,,,,,,,,,,,,
,,0,101,,,,,,,1,2,4,stim/24.jpeg,HouseObjects,2,stim/objects/HouseObjects/sponge.png,0.5,2,0.2,0.15,right,38,2020-12-11_17h38.48.853,premup-three_ses-01_part-01_label-phase1,3.2.4,Win32,60,left,0.563999891,4,0,4,0,1,3,1,0,240,79,1,239,,,,,,,,,,,,,,,,,,
,,0,102,,,,,,,2,3,3,stim/33.jpeg,Instruments,1,stim/objects/Instruments/trumpet.png,0.3,3,-0.2,-0.15,left,38,2020-12-11_17h38.48.853,premup-three_ses-01_part-01_label-phase1,3.2.4,Win32,60,right,0.490999937,4,0,4,0,1,3,1,0,240,82,1,239,,,,,,,,,,,,,,,,,,
,,1,103,,,,,,,3,5,3,stim/53.jpeg,HouseObjects,2,stim/objects/HouseObjects/scale2.png,0.9,2,0.2,0.15,right,38,2020-12-11_17h38.48.853,premup-three_ses-01_part-01_label-phase1,3.2.4,Win32,60,right,0.450999975,4,0,4,0,1,3,1,0,240,190,1,239,,,,,,,,,,,,,,,,,,
,,0,104,,,,,,,1,2,1,stim/21.jpeg,HouseObjects,2,stim/objects/HouseObjects/safetypin.png,0.5,3,-0.2,-0.15,right,38,2020-12-11_17h38.48.853,premup-three_ses-01_part-01_label-phase1,3.2.4,Win32,60,left,0.557999849,4,0,4,0,1,3,1,0,240,68,1,239,,,,,,,,,,,,,,,,,,
,,1,105,,,,,,,3,5,2,stim/52.jpeg,HouseObjects,2,stim/objects/HouseObjects/saw2.png,0.9,3,-0.2,-0.15,right,38,2020-12-11_17h38.48.853,premup-three_ses-01_part-01_label-phase1,3.2.4,Win32,60,right,0.47300005,4,0,4,0,1,3,1,0,240,173,1,239,,,,,,,,,,,,,,,,,,
,,1,106,,,,,,,1,2,1,stim/21.jpeg,Instruments,1,stim/objects/Instruments/saxophone.png,0.5,2,0.2,0.15,left,38,2020-12-11_17h38.48.853,premup-three_ses-01_part-01_label-phase1,3.2.4,Win32,60,left,0.625,4,0,4,0,1,3,1,0,240,40,1,239,,,,,,,,,,,,,,,,,,
,,0,107,,,,,,,2,4,1,stim/41.jpeg,Instruments,1,stim/objects/Instruments/panflute2.png,0.7,3,-0.2,-0.15,left,38,2020-12-11_17h38.48.853,premup-three_ses-01_part-01_label-phase1,3.2.4,Win32,60,right,0.55700016,4,0,4,0,1,3,1,0,240,136,1,239,,,,,,,,,,,,,,,,,,
,,0,108,,,,,,,1,2,4,stim/24.jpeg,HouseObjects,2,stim/objects/HouseObjects/sponge.png,0.5,2,0.2,0.15,right,38,2020-12-11_17h38.48.853,premup-three_ses-01_part-01_label-phase1,3.2.4,Win32,60,left,0.394999981,4,0,4,0,1,3,1,0,240,67,1,239,,,,,,,,,,,,,,,,,,
,,0,109,,,,,,,1,2,2,stim/22.jpeg,HouseObjects,2,stim/objects/HouseObjects/saw.png,0.5,1,-0.2,0.15,right,38,2020-12-11_17h38.48.853,premup-three_ses-01_part-01_label-phase1,3.2.4,Win32,60,left,0.707999945,4,0,4,0,1,3,1,0,240,73,1,239,,,,,,,,,,,,,,,,,,
,,0,110,,,,,,,2,3,4,stim/34.jpeg,Instruments,1,stim/objects/Instruments/tuba.png,0.3,2,0.2,0.15,left,38,2020-12-11_17h38.48.853,premup-three_ses-01_part-01_label-phase1,3.2.4,Win32,60,right,0.493000031,4,0,4,0,1,3,1,0,240,87,1,239,,,,,,,,,,,,,,,,,,
,,1,111,,,,,,,1,1,1,stim/11.jpeg,HouseObjects,2,stim/objects/HouseObjects/recyclingbin.png,0.5,2,0.2,0.15,right,38,2020-12-11_17h38.48.853,premup-three_ses-01_part-01_label-phase1,3.2.4,Win32,60,right,0.345999956,4,0,4,0,1,3,1,0,240,36,1,239,,,,,,,,,,,,,,,,,,
,,1,112,,,,,,,3,6,4,stim/64.jpeg,Instruments,1,stim/objects/Instruments/tuba2.png,0.9,3,-0.2,-0.15,left,38,2020-12-11_17h38.48.853,premup-three_ses-01_part-01_label-phase1,3.2.4,Win32,60,left,0.494000196,4,0,4,0,1,3,1,0,240,231,1,239,,,,,,,,,,,,,,,,,,
,,1,113,,,,,,,3,5,1,stim/51.jpeg,HouseObjects,2,stim/objects/HouseObjects/safetypin2.png,0.9,3,-0.2,-0.15,right,38,2020-12-11_17h38.48.853,premup-three_ses-01_part-01_label-phase1,3.2.4,Win32,60,right,0.493999958,4,0,4,0,1,3,1,0,240,172,1,239,,,,,,,,,,,,,,,,,,
,,1,114,,,,,,,3,6,1,stim/61.jpeg,Instruments,1,stim/objects/Instruments/triangle2.png,0.9,4,0.2,-0.15,left,38,2020-12-11_17h38.48.853,premup-three_ses-01_part-01_label-phase1,3.2.4,Win32,60,left,0.514000177,4,0,4,0,1,3,1,0,240,224,1,239,,,,,,,,,,,,,,,,,,
,,1,115,,,,,,,3,6,1,stim/61.jpeg,Instruments,1,stim/objects/Instruments/triangle2.png,0.9,2,0.2,0.15,left,38,2020-12-11_17h38.48.853,premup-three_ses-01_part-01_label-phase1,3.2.4,Win32,60,left,0.546000004,4,0,4,0,1,3,1,0,240,216,1,239,,,,,,,,,,,,,,,,,,
,,1,116,,,,,,,1,2,4,stim/24.jpeg,Instruments,1,stim/objects/Instruments/timbal.png,0.5,2,0.2,0.15,left,38,2020-12-11_17h38.48.853,premup-three_ses-01_part-01_label-phase1,3.2.4,Win32,60,left,0.665999889,4,0,4,0,1,3,1,0,240,55,1,239,,,,,,,,,,,,,,,,,,
,,0,117,,,,,,,1,1,2,stim/12.jpeg,Instruments,1,stim/objects/Instruments/pipepiano.png,0.5,1,-0.2,0.15,left,38,2020-12-11_17h38.48.853,premup-three_ses-01_part-01_label-phase1,3.2.4,Win32,60,right,0.756999969,4,0,4,0,1,3,1,0,240,13,1,239,,,,,,,,,,,,,,,,,,
,,1,118,,,,,,,3,6,1,stim/61.jpeg,Instruments,1,stim/objects/Instruments/triangle2.png,0.9,2,0.2,0.15,left,38,2020-12-11_17h38.48.853,premup-three_ses-01_part-01_label-phase1,3.2.4,Win32,60,left,0.595000029,4,0,4,0,1,3,1,0,240,232,1,239,,,,,,,,,,,,,,,,,,
,,1,119,,,,,,,3,6,4,stim/64.jpeg,Instruments,1,stim/objects/Instruments/tuba2.png,0.9,3,-0.2,-0.15,left,38,2020-12-11_17h38.48.853,premup-three_ses-01_part-01_label-phase1,3.2.4,Win32,60,left,0.460000038,4,0,4,0,1,3,1,0,240,215,1,239,,,,,,,,,,,,,,,,,,
,,1,120,,,,,,,1,1,4,stim/14.jpeg,HouseObjects,2,stim/objects/HouseObjects/rug.png,0.5,3,-0.2,-0.15,right,38,2020-12-11_17h38.48.853,premup-three_ses-01_part-01_label-phase1,3.2.4,Win32,60,right,0.757999897,4,0,4,0,1,3,1,0,240,35,1,239,,,,,,,,,,,,,,,,,,
,,1,121,,,,,,,1,1,2,stim/12.jpeg,HouseObjects,2,stim/objects/HouseObjects/remote.png,0.5,2,0.2,0.15,right,38,2020-12-11_17h38.48.853,premup-three_ses-01_part-01_label-phase1,3.2.4,Win32,60,right,0.548000097,4,0,4,0,1,3,1,0,240,25,1,239,,,,,,,,,,,,,,,,,,
,,1,122,,,,,,,3,5,3,stim/53.jpeg,HouseObjects,2,stim/objects/HouseObjects/scale2.png,0.9,1,-0.2,0.15,right,38,2020-12-11_17h38.48.853,premup-three_ses-01_part-01_label-phase1,3.2.4,Win32,60,right,0.621999979,4,0,4,0,1,3,1,0,240,194,1,239,,,,,,,,,,,,,,,,,,
,,0,123,,,,,,,1,2,3,stim/23.jpeg,HouseObjects,2,stim/objects/HouseObjects/scale.png,0.5,3,-0.2,-0.15,right,38,2020-12-11_17h38.48.853,premup-three_ses-01_part-01_label-phase1,3.2.4,Win32,60,left,0.674000025,4,0,4,0,1,3,1,0,240,62,1,239,,,,,,,,,,,,,,,,,,
,,0,124,,,,,,,1,2,4,stim/24.jpeg,Instruments,1,stim/objects/Instruments/timbal.png,0.5,3,-0.2,-0.15,left,38,2020-12-11_17h38.48.853,premup-three_ses-01_part-01_label-phase1,3.2.4,Win32,60,right,0.315000057,4,0,4,0,1,3,1,0,240,47,1,239,,,,,,,,,,,,,,,,,,
,,0,125,,,,,,,2,4,2,stim/42.jpeg,Instruments,1,stim/objects/Instruments/pipepiano2.png,0.7,4,0.2,-0.15,left,38,2020-12-11_17h38.48.853,premup-three_ses-01_part-01_label-phase1,3.2.4,Win32,60,right,1.498999834,4,0,4,0,1,3,1,0,240,145,1,239,,,,,,,,,,,,,,,,,,
,,1,126,,,,,,,3,5,3,stim/53.jpeg,HouseObjects,2,stim/objects/HouseObjects/scale2.png,0.9,1,-0.2,0.15,right,38,2020-12-11_17h38.48.853,premup-three_ses-01_part-01_label-phase1,3.2.4,Win32,60,right,0.451999903,4,0,4,0,1,3,1,0,240,178,1,239,,,,,,,,,,,,,,,,,,
,,1,127,,,,,,,3,5,2,stim/52.jpeg,HouseObjects,2,stim/objects/HouseObjects/saw2.png,0.9,3,-0.2,-0.15,right,38,2020-12-11_17h38.48.853,premup-three_ses-01_part-01_label-phase1,3.2.4,Win32,60,right,0.944999933,4,0,4,0,1,3,1,0,240,193,1,239,,,,,,,,,,,,,,,,,,
,,1,128,,,,,,,2,3,4,stim/34.jpeg,HouseObjects,2,stim/objects/HouseObjects/thread.png,0.7,3,-0.2,-0.15,right,38,2020-12-11_17h38.48.853,premup-three_ses-01_part-01_label-phase1,3.2.4,Win32,60,right,0.538000107,4,0,4,0,1,3,1,0,240,103,1,239,,,,,,,,,,,,,,,,,,
,,1,129,,,,,,,2,3,3,stim/33.jpeg,HouseObjects,2,stim/objects/HouseObjects/thermometer.png,0.7,4,0.2,-0.15,right,38,2020-12-11_17h38.48.853,premup-three_ses-01_part-01_label-phase1,3.2.4,Win32,60,right,0.42599988,4,0,4,0,1,3,1,0,240,102,1,239,,,,,,,,,,,,,,,,,,
,,1,130,,,,,,,1,2,1,stim/21.jpeg,Instruments,1,stim/objects/Instruments/saxophone.png,0.5,4,0.2,-0.15,left,38,2020-12-11_17h38.48.853,premup-three_ses-01_part-01_label-phase1,3.2.4,Win32,60,left,0.527000189,4,0,4,0,1,3,1,0,240,56,1,239,,,,,,,,,,,,,,,,,,
,,0,131,,,,,,,1,2,2,stim/22.jpeg,HouseObjects,2,stim/objects/HouseObjects/saw.png,0.5,2,0.2,0.15,right,38,2020-12-11_17h38.48.853,premup-three_ses-01_part-01_label-phase1,3.2.4,Win32,60,left,0.409999847,4,0,4,0,1,3,1,0,240,65,1,239,,,,,,,,,,,,,,,,,,
,,1,132,,,,,,,3,5,3,stim/53.jpeg,HouseObjects,2,stim/objects/HouseObjects/scale2.png,0.9,1,-0.2,0.15,right,38,2020-12-11_17h38.48.853,premup-three_ses-01_part-01_label-phase1,3.2.4,Win32,60,right,0.440999985,4,0,4,0,1,3,1,0,240,198,1,239,,,,,,,,,,,,,,,,,,
,,0,133,,,,,,,2,3,4,stim/34.jpeg,Instruments,1,stim/objects/Instruments/tuba.png,0.3,3,-0.2,-0.15,left,38,2020-12-11_17h38.48.853,premup-three_ses-01_part-01_label-phase1,3.2.4,Win32,60,right,0.422999859,4,0,4,0,1,3,1,0,240,91,1,239,,,,,,,,,,,,,,,,,,
,,1,134,,,,,,,2,4,3,stim/43.jpeg,HouseObjects,2,stim/objects/HouseObjects/rubbergloves2.png,0.3,3,-0.2,-0.15,right,38,2020-12-11_17h38.48.853,premup-three_ses-01_part-01_label-phase1,3.2.4,Win32,60,right,0.340999842,4,0,4,0,1,3,1,0,240,150,1,239,,,,,,,,,,,,,,,,,,
,,1,135,,,,,,,1,1,4,stim/14.jpeg,HouseObjects,2,stim/objects/HouseObjects/rug.png,0.5,1,-0.2,0.15,right,38,2020-12-11_17h38.48.853,premup-three_ses-01_part-01_label-phase1,3.2.4,Win32,60,right,0.396999836,4,0,4,0,1,3,1,0,240,39,1,239,,,,,,,,,,,,,,,,,,
,,0,136,,,,,,,1,1,4,stim/14.jpeg,Instruments,1,stim/objects/Instruments/record_player.png,0.5,1,-0.2,0.15,left,38,2020-12-11_17h38.48.853,premup-three_ses-01_part-01_label-phase1,3.2.4,Win32,60,right,0.393000126,4,0,4,0,1,3,1,0,240,19,1,239,,,,,,,,,,,,,,,,,,
,,1,137,,,,,,,1,2,1,stim/21.jpeg,HouseObjects,2,stim/objects/HouseObjects/safetypin.png,0.5,4,0.2,-0.15,right,38,2020-12-11_17h38.48.853,premup-three_ses-01_part-01_label-phase1,3.2.4,Win32,60,right,0.322000027,4,0,4,0,1,3,1,0,240,64,1,239,,,,,,,,,,,,,,,,,,
,,0,138,,,,,,,1,2,4,stim/24.jpeg,HouseObjects,2,stim/objects/HouseObjects/sponge.png,0.5,2,0.2,0.15,right,38,2020-12-11_17h38.48.853,premup-three_ses-01_part-01_label-phase1,3.2.4,Win32,60,left,0.49000001,4,0,4,0,1,3,1,0,240,71,1,239,,,,,,,,,,,,,,,,,,
,,1,139,,,,,,,1,2,1,stim/21.jpeg,HouseObjects,2,stim/objects/HouseObjects/safetypin.png,0.5,3,-0.2,-0.15,right,38,2020-12-11_17h38.48.853,premup-three_ses-01_part-01_label-phase1,3.2.4,Win32,60,right,0.521999836,4,0,4,0,1,3,1,0,240,76,1,239,,,,,,,,,,,,,,,,,,
,,0,140,,,,,,,1,1,3,stim/13.jpeg,Instruments,1,stim/objects/Instruments/record.png,0.5,3,-0.2,-0.15,left,38,2020-12-11_17h38.48.853,premup-three_ses-01_part-01_label-phase1,3.2.4,Win32,60,right,0.397000074,4,0,4,0,1,3,1,0,240,10,1,239,,,,,,,,,,,,,,,,,,
,,1,141,,,,,,,1,2,2,stim/22.jpeg,HouseObjects,2,stim/objects/HouseObjects/saw.png,0.5,1,-0.2,0.15,right,38,2020-12-11_17h38.48.853,premup-three_ses-01_part-01_label-phase1,3.2.4,Win32,60,right,0.48300004,4,0,4,0,1,3,1,0,240,61,1,239,,,,,,,,,,,,,,,,,,
,,1,142,,,,,,,3,6,4,stim/64.jpeg,Instruments,1,stim/objects/Instruments/tuba2.png,0.9,2,0.2,0.15,left,38,2020-12-11_17h38.48.853,premup-three_ses-01_part-01_label-phase1,3.2.4,Win32,60,left,0.608999968,4,0,4,0,1,3,1,0,240,223,1,239,,,,,,,,,,,,,,,,,,
,,1,143,,,,,,,1,1,2,stim/12.jpeg,HouseObjects,2,stim/objects/HouseObjects/remote.png,0.5,1,-0.2,0.15,right,38,2020-12-11_17h38.48.853,premup-three_ses-01_part-01_label-phase1,3.2.4,Win32,60,right,0.486000061,4,0,4,0,1,3,1,0,240,29,1,239,,,,,,,,,,,,,,,,,,
,,1,144,,,,,,,3,6,2,stim/62.jpeg,Instruments,1,stim/objects/Instruments/trombone2.png,0.9,1,-0.2,0.15,left,38,2020-12-11_17h38.48.853,premup-three_ses-01_part-01_label-phase1,3.2.4,Win32,60,left,0.651000023,4,0,4,0,1,3,1,0,240,217,1,239,,,,,,,,,,,,,,,,,,
,,1,145,,,,,,,3,5,3,stim/53.jpeg,HouseObjects,2,stim/objects/HouseObjects/scale2.png,0.9,2,0.2,0.15,right,38,2020-12-11_17h38.48.853,premup-three_ses-01_part-01_label-phase1,3.2.4,Win32,60,right,0.501000166,4,0,4,0,1,3,1,0,240,186,1,239,,,,,,,,,,,,,,,,,,
,,1,146,,,,,,,2,3,2,stim/32.jpeg,HouseObjects,2,stim/objects/HouseObjects/teapot.png,0.7,1,-0.2,0.15,right,38,2020-12-11_17h38.48.853,premup-three_ses-01_part-01_label-phase1,3.2.4,Win32,60,right,0.558999777,4,0,4,0,1,3,1,0,240,117,1,239,,,,,,,,,,,,,,,,,,
,,0,147,,,,,,,3,5,4,stim/54.jpeg,Instruments,1,stim/objects/Instruments/timbal2.png,0.1,1,-0.2,0.15,left,38,2020-12-11_17h38.48.853,premup-three_ses-01_part-01_label-phase1,3.2.4,Win32,60,right,0.486999989,4,0,4,0,1,3,1,0,240,163,1,239,,,,,,,,,,,,,,,,,,
,,1,148,,,,,,,2,3,4,stim/34.jpeg,HouseObjects,2,stim/objects/HouseObjects/thread.png,0.7,3,-0.2,-0.15,right,38,2020-12-11_17h38.48.853,premup-three_ses-01_part-01_label-phase1,3.2.4,Win32,60,right,0.655999899,4,0,4,0,1,3,1,0,240,119,1,239,,,,,,,,,,,,,,,,,,
,,0,149,,,,,,,2,3,1,stim/31.jpeg,Instruments,1,stim/objects/Instruments/triangle.png,0.3,3,-0.2,-0.15,left,38,2020-12-11_17h38.48.853,premup-three_ses-01_part-01_label-phase1,3.2.4,Win32,60,right,0.507999897,4,0,4,0,1,3,1,0,240,88,1,239,,,,,,,,,,,,,,,,,,
,,1,150,,,,,,,3,5,1,stim/51.jpeg,HouseObjects,2,stim/objects/HouseObjects/safetypin2.png,0.9,3,-0.2,-0.15,right,38,2020-12-11_17h38.48.853,premup-three_ses-01_part-01_label-phase1,3.2.4,Win32,60,right,0.47300005,4,0,4,0,1,3,1,0,240,196,1,239,,,,,,,,,,,,,,,,,,
,,1,151,,,,,,,2,4,1,stim/41.jpeg,HouseObjects,2,stim/objects/HouseObjects/recyclingbin2.png,0.3,3,-0.2,-0.15,right,38,2020-12-11_17h38.48.853,premup-three_ses-01_part-01_label-phase1,3.2.4,Win32,60,right,0.400000095,4,0,4,0,1,3,1,0,240,152,1,239,,,,,,,,,,,,,,,,,,
,,1,152,,,,,,,3,6,4,stim/64.jpeg,Instruments,1,stim/objects/Instruments/tuba2.png,0.9,3,-0.2,-0.15,left,38,2020-12-11_17h38.48.853,premup-three_ses-01_part-01_label-phase1,3.2.4,Win32,60,left,0.437999964,4,0,4,0,1,3,1,0,240,203,1,239,,,,,,,,,,,,,,,,,,
,,0,153,,,,,,,1,1,3,stim/13.jpeg,Instruments,1,stim/objects/Instruments/record.png,0.5,1,-0.2,0.15,left,38,2020-12-11_17h38.48.853,premup-three_ses-01_part-01_label-phase1,3.2.4,Win32,60,right,0.527000189,4,0,4,0,1,3,1,0,240,14,1,239,,,,,,,,,,,,,,,,,,
,,1,154,,,,,,,2,3,2,stim/32.jpeg,HouseObjects,2,stim/objects/HouseObjects/teapot.png,0.7,1,-0.2,0.15,right,38,2020-12-11_17h38.48.853,premup-three_ses-01_part-01_label-phase1,3.2.4,Win32,60,right,0.218999863,4,0,4,0,1,3,1,0,240,93,1,239,,,,,,,,,,,,,,,,,,
,,1,155,,,,,,,2,3,2,stim/32.jpeg,HouseObjects,2,stim/objects/HouseObjects/teapot.png,0.7,4,0.2,-0.15,right,38,2020-12-11_17h38.48.853,premup-three_ses-01_part-01_label-phase1,3.2.4,Win32,60,right,0.111000061,4,0,4,0,1,3,1,0,240,97,1,239,,,,,,,,,,,,,,,,,,
,,1,156,,,,,,,1,1,1,stim/11.jpeg,Instruments,1,stim/objects/Instruments/panflute.png,0.5,1,-0.2,0.15,left,38,2020-12-11_17h38.48.853,premup-three_ses-01_part-01_label-phase1,3.2.4,Win32,60,left,0.732000113,4,0,4,0,1,3,1,0,240,12,1,239,,,,,,,,,,,,,,,,,,
,,0,157,,,,,,,2,3,2,stim/32.jpeg,Instruments,1,stim/objects/Instruments/trombone.png,0.3,2,0.2,0.15,left,38,2020-12-11_17h38.48.853,premup-three_ses-01_part-01_label-phase1,3.2.4,Win32,60,right,0.549000025,4,0,4,0,1,3,1,0,240,81,1,239,,,,,,,,,,,,,,,,,,
,,0,158,,,,,,,2,4,1,stim/41.jpeg,Instruments,1,stim/objects/Instruments/panflute2.png,0.7,1,-0.2,0.15,left,38,2020-12-11_17h38.48.853,premup-three_ses-01_part-01_label-phase1,3.2.4,Win32,60,right,0.576999903,4,0,4,0,1,3,1,0,240,132,1,239,,,,,,,,,,,,,,,,,,
,,0,159,,,,,,,1,1,1,stim/11.jpeg,Instruments,1,stim/objects/Instruments/panflute.png,0.5,2,0.2,0.15,left,38,2020-12-11_17h38.48.853,premup-three_ses-01_part-01_label-phase1,3.2.4,Win32,60,right,0.412999868,4,0,4,0,1,3,1,0,240,8,1,239,,,,,,,,,,,,,,,,,,
,,0,160,,,,,,,2,4,1,stim/41.jpeg,Instruments,1,stim/objects/Instruments/panflute2.png,0.7,2,0.2,0.15,left,38,2020-12-11_17h38.48.853,premup-three_ses-01_part-01_label-phase1,3.2.4,Win32,60,right,0.236000061,4,0,4,0,1,3,1,0,240,120,1,239,,,,,,,,,,,,,,,,,,
,,0,161,,,,,,,1,1,4,stim/14.jpeg,Instruments,1,stim/objects/Instruments/record_player.png,0.5,3,-0.2,-0.15,left,38,2020-12-11_17h38.48.853,premup-three_ses-01_part-01_label-phase1,3.2.4,Win32,60,right,0.534999847,4,0,4,0,1,3,1,0,240,15,1,239,,,,,,,,,,,,,,,,,,
,,0,162,,,,,,,2,3,3,stim/33.jpeg,Instruments,1,stim/objects/Instruments/trumpet.png,0.3,1,-0.2,0.15,left,38,2020-12-11_17h38.48.853,premup-three_ses-01_part-01_label-phase1,3.2.4,Win32,60,right,0.477999926,4,0,4,0,1,3,1,0,240,86,1,239,,,,,,,,,,,,,,,,,,
,,0,163,,,,,,,3,6,3,stim/63.jpeg,HouseObjects,2,stim/objects/HouseObjects/thermometer2.png,0.1,4,0.2,-0.15,right,38,2020-12-11_17h38.48.853,premup-three_ses-01_part-01_label-phase1,3.2.4,Win32,60,left,0.396000147,4,0,4,0,1,3,1,0,240,238,1,239,,,,,,,,,,,,,,,,,,
,,0,164,,,,,,,1,1,1,stim/11.jpeg,HouseObjects,2,stim/objects/HouseObjects/recyclingbin.png,0.5,1,-0.2,0.15,right,38,2020-12-11_17h38.48.853,premup-three_ses-01_part-01_label-phase1,3.2.4,Win32,60,,,4,0,4,0,1,3,1,0,240,32,1,239,,,,,,,,,,,,,,,,,,
,,0,165,,,,,,,1,2,2,stim/22.jpeg,HouseObjects,2,stim/objects/HouseObjects/saw.png,0.5,1,-0.2,0.15,right,38,2020-12-11_17h38.48.853,premup-three_ses-01_part-01_label-phase1,3.2.4,Win32,60,left,0.743000031,4,0,4,0,1,3,1,0,240,69,1,239,,,,,,,,,,,,,,,,,,
,,0,166,,,,,,,2,3,1,stim/31.jpeg,Instruments,1,stim/objects/Instruments/triangle.png,0.3,2,0.2,0.15,left,38,2020-12-11_17h38.48.853,premup-three_ses-01_part-01_label-phase1,3.2.4,Win32,60,right,0.462000132,4,0,4,0,1,3,1,0,240,84,1,239,,,,,,,,,,,,,,,,,,
,,1,167,,,,,,,3,5,4,stim/54.jpeg,HouseObjects,2,stim/objects/HouseObjects/sponge2.png,0.9,1,-0.2,0.15,right,38,2020-12-11_17h38.48.853,premup-three_ses-01_part-01_label-phase1,3.2.4,Win32,60,right,0.497999907,4,0,4,0,1,3,1,0,240,187,1,239,,,,,,,,,,,,,,,,,,
,,0,168,,,,,,,1,2,3,stim/23.jpeg,Instruments,1,stim/objects/Instruments/tambourine.png,0.5,4,0.2,-0.15,left,38,2020-12-11_17h38.48.853,premup-three_ses-01_part-01_label-phase1,3.2.4,Win32,60,right,0.947000027,4,0,4,0,1,3,1,0,240,50,1,239,,,,,,,,,,,,,,,,,,
,,0,169,,,,,,,2,4,4,stim/44.jpeg,Instruments,1,stim/objects/Instruments/record_player2.png,0.7,1,-0.2,0.15,left,38,2020-12-11_17h38.48.853,premup-three_ses-01_part-01_label-phase1,3.2.4,Win32,60,right,0.855000019,4,0,4,0,1,3,1,0,240,131,1,239,,,,,,,,,,,,,,,,,,
,,1,170,,,,,,,3,5,4,stim/54.jpeg,HouseObjects,2,stim/objects/HouseObjects/sponge2.png,0.9,3,-0.2,-0.15,right,38,2020-12-11_17h38.48.853,premup-three_ses-01_part-01_label-phase1,3.2.4,Win32,60,right,0.532999992,4,0,4,0,1,3,1,0,240,179,1,239,,,,,,,,,,,,,,,,,,
,,1,171,,,,,,,1,2,3,stim/23.jpeg,Instruments,1,stim/objects/Instruments/tambourine.png,0.5,3,-0.2,-0.15,left,38,2020-12-11_17h38.48.853,premup-three_ses-01_part-01_label-phase1,3.2.4,Win32,60,left,0.537999868,4,0,4,0,1,3,1,0,240,42,1,239,,,,,,,,,,,,,,,,,,
,,1,172,,,,,,,1,2,2,stim/22.jpeg,Instruments,1,stim/objects/Instruments/speaker.png,0.5,1,-0.2,0.15,left,38,2020-12-11_17h38.48.853,premup-three_ses-01_part-01_label-phase1,3.2.4,Win32,60,left,0.455000162,4,0,4,0,1,3,1,0,240,57,1,239,,,,,,,,,,,,,,,,,,
,,1,173,,,,,,,1,2,3,stim/23.jpeg,Instruments,1,stim/objects/Instruments/tambourine.png,0.5,4,0.2,-0.15,left,38,2020-12-11_17h38.48.853,premup-three_ses-01_part-01_label-phase1,3.2.4,Win32,60,left,0.424000025,4,0,4,0,1,3,1,0,240,46,1,239,,,,,,,,,,,,,,,,,,
,,1,174,,,,,,,3,6,3,stim/63.jpeg,Instruments,1,stim/objects/Instruments/trumpet2.png,0.9,3,-0.2,-0.15,left,38,2020-12-11_17h38.48.853,premup-three_ses-01_part-01_label-phase1,3.2.4,Win32,60,left,0.61500001,4,0,4,0,1,3,1,0,240,230,1,239,,,,,,,,,,,,,,,,,,
,,0,175,,,,,,,2,4,3,stim/43.jpeg,Instruments,1,stim/objects/Instruments/record2.png,0.7,2,0.2,0.15,left,38,2020-12-11_17h38.48.853,premup-three_ses-01_part-01_label-phase1,3.2.4,Win32,60,right,0.767999887,4,0,4,0,1,3,1,0,240,138,1,239,,,,,,,,,,,,,,,,,,
,,1,176,,,,,,,3,5,2,stim/52.jpeg,HouseObjects,2,stim/objects/HouseObjects/saw2.png,0.9,4,0.2,-0.15,right,38,2020-12-11_17h38.48.853,premup-three_ses-01_part-01_label-phase1,3.2.4,Win32,60,right,0.553999901,4,0,4,0,1,3,1,0,240,169,1,239,,,,,,,,,,,,,,,,,,
,,1,177,,,,,,,3,5,2,stim/52.jpeg,HouseObjects,2,stim/objects/HouseObjects/saw2.png,0.9,1,-0.2,0.15,right,38,2020-12-11_17h38.48.853,premup-three_ses-01_part-01_label-phase1,3.2.4,Win32,60,right,0.437000036,4,0,4,0,1,3,1,0,240,177,1,239,,,,,,,,,,,,,,,,,,
,,1,178,,,,,,,2,3,4,stim/34.jpeg,HouseObjects,2,stim/objects/HouseObjects/thread.png,0.7,2,0.2,0.15,right,38,2020-12-11_17h38.48.853,premup-three_ses-01_part-01_label-phase1,3.2.4,Win32,60,right,0.741999865,4,0,4,0,1,3,1,0,240,111,1,239,,,,,,,,,,,,,,,,,,
,,1,179,,,,,,,3,5,2,stim/52.jpeg,HouseObjects,2,stim/objects/HouseObjects/saw2.png,0.9,2,0.2,0.15,right,38,2020-12-11_17h38.48.853,premup-three_ses-01_part-01_label-phase1,3.2.4,Win32,60,right,0.582999945,4,0,4,0,1,3,1,0,240,197,1,239,,,,,,,,,,,,,,,,,,
,,1,180,,,,,,,3,6,1,stim/61.jpeg,Instruments,1,stim/objects/Instruments/triangle2.png,0.9,4,0.2,-0.15,left,38,2020-12-11_17h38.48.853,premup-three_ses-01_part-01_label-phase1,3.2.4,Win32,60,left,0.684000015,4,0,4,0,1,3,1,0,240,220,1,239,,,,,,,,,,,,,,,,,,
,,0,181,,,,,,,2,4,2,stim/42.jpeg,HouseObjects,2,stim/objects/HouseObjects/remote2.png,0.3,3,-0.2,-0.15,right,38,2020-12-11_17h38.48.853,premup-three_ses-01_part-01_label-phase1,3.2.4,Win32,60,left,1.111999989,4,0,4,0,1,3,1,0,240,149,1,239,,,,,,,,,,,,,,,,,,
,,1,182,,,,,,,1,1,2,stim/12.jpeg,HouseObjects,2,stim/objects/HouseObjects/remote.png,0.5,2,0.2,0.15,right,38,2020-12-11_17h38.48.853,premup-three_ses-01_part-01_label-phase1,3.2.4,Win32,60,right,0.755999804,4,0,4,0,1,3,1,0,240,21,1,239,,,,,,,,,,,,,,,,,,
,,1,183,,,,,,,2,3,3,stim/33.jpeg,HouseObjects,2,stim/objects/HouseObjects/thermometer.png,0.7,2,0.2,0.15,right,38,2020-12-11_17h38.48.853,premup-three_ses-01_part-01_label-phase1,3.2.4,Win32,60,right,1.632999897,4,0,4,0,1,3,1,0,240,110,1,239,,,,,,,,,,,,,,,,,,
,,1,184,,,,,,,3,6,3,stim/63.jpeg,Instruments,1,stim/objects/Instruments/trumpet2.png,0.9,3,-0.2,-0.15,left,38,2020-12-11_17h38.48.853,premup-three_ses-01_part-01_label-phase1,3.2.4,Win32,60,left,0.498999834,4,0,4,0,1,3,1,0,240,206,1,239,,,,,,,,,,,,,,,,,,
,,0,185,,,,,,,2,4,3,stim/43.jpeg,Instruments,1,stim/objects/Instruments/record2.png,0.7,4,0.2,-0.15,left,38,2020-12-11_17h38.48.853,premup-three_ses-01_part-01_label-phase1,3.2.4,Win32,60,right,0.80700016,4,0,4,0,1,3,1,0,240,130,1,239,,,,,,,,,,,,,,,,,,
,,1,186,,,,,,,3,6,4,stim/64.jpeg,Instruments,1,stim/objects/Instruments/tuba2.png,0.9,2,0.2,0.15,left,38,2020-12-11_17h38.48.853,premup-three_ses-01_part-01_label-phase1,3.2.4,Win32,60,left,0.488999844,4,0,4,0,1,3,1,0,240,219,1,239,,,,,,,,,,,,,,,,,,
,,1,187,,,,,,,1,1,1,stim/11.jpeg,Instruments,1,stim/objects/Instruments/panflute.png,0.5,1,-0.2,0.15,left,38,2020-12-11_17h38.48.853,premup-three_ses-01_part-01_label-phase1,3.2.4,Win32,60,left,1.694000006,4,0,4,0,1,3,1,0,240,4,1,239,,,,,,,,,,,,,,,,,,
,,0,188,,,,,,,3,5,1,stim/51.jpeg,Instruments,1,stim/objects/Instruments/saxophone2.png,0.1,4,0.2,-0.15,left,38,2020-12-11_17h38.48.853,premup-three_ses-01_part-01_label-phase1,3.2.4,Win32,60,right,0.512000084,4,0,4,0,1,3,1,0,240,160,1,239,,,,,,,,,,,,,,,,,,
,,1,189,,,,,,,3,5,3,stim/53.jpeg,HouseObjects,2,stim/objects/HouseObjects/scale2.png,0.9,2,0.2,0.15,right,38,2020-12-11_17h38.48.853,premup-three_ses-01_part-01_label-phase1,3.2.4,Win32,60,right,0.424000025,4,0,4,0,1,3,1,0,240,174,1,239,,,,,,,,,,,,,,,,,,
,,1,190,,,,,,,2,3,4,stim/34.jpeg,HouseObjects,2,stim/objects/HouseObjects/thread.png,0.7,4,0.2,-0.15,right,38,2020-12-11_17h38.48.853,premup-three_ses-01_part-01_label-phase1,3.2.4,Win32,60,right,1.744999886,4,0,4,0,1,3,1,0,240,95,1,239,,,,,,,,,,,,,,,,,,
,,1,191,,,,,,,3,6,3,stim/63.jpeg,Instruments,1,stim/objects/Instruments/trumpet2.png,0.9,3,-0.2,-0.15,left,38,2020-12-11_17h38.48.853,premup-three_ses-01_part-01_label-phase1,3.2.4,Win32,60,left,0.61500001,4,0,4,0,1,3,1,0,240,210,1,239,,,,,,,,,,,,,,,,,,
,,1,192,,,,,,,2,4,4,stim/44.jpeg,HouseObjects,2,stim/objects/HouseObjects/rug2.png,0.3,2,0.2,0.15,right,38,2020-12-11_17h38.48.853,premup-three_ses-01_part-01_label-phase1,3.2.4,Win32,60,right,1.062000036,4,0,4,0,1,3,1,0,240,155,1,239,,,,,,,,,,,,,,,,,,
,,1,193,,,,,,,3,6,4,stim/64.jpeg,Instruments,1,stim/objects/Instruments/tuba2.png,0.9,3,-0.2,-0.15,left,38,2020-12-11_17h38.48.853,premup-three_ses-01_part-01_label-phase1,3.2.4,Win32,60,left,0.59100008,4,0,4,0,1,3,1,0,240,227,1,239,,,,,,,,,,,,,,,,,,
,,1,194,,,,,,,1,1,1,stim/11.jpeg,HouseObjects,2,stim/objects/HouseObjects/recyclingbin.png,0.5,2,0.2,0.15,right,38,2020-12-11_17h38.48.853,premup-three_ses-01_part-01_label-phase1,3.2.4,Win32,60,right,0.907000065,4,0,4,0,1,3,1,0,240,28,1,239,,,,,,,,,,,,,,,,,,
,,1,195,,,,,,,3,5,2,stim/52.jpeg,HouseObjects,2,stim/objects/HouseObjects/saw2.png,0.9,3,-0.2,-0.15,right,38,2020-12-11_17h38.48.853,premup-three_ses-01_part-01_label-phase1,3.2.4,Win32,60,right,0.837000132,4,0,4,0,1,3,1,0,240,189,1,239,,,,,,,,,,,,,,,,,,
,,0,196,,,,,,,3,6,2,stim/62.jpeg,HouseObjects,2,stim/objects/HouseObjects/teapot2.png,0.1,1,-0.2,0.15,right,38,2020-12-11_17h38.48.853,premup-three_ses-01_part-01_label-phase1,3.2.4,Win32,60,left,0.496000051,4,0,4,0,1,3,1,0,240,237,1,239,,,,,,,,,,,,,,,,,,
,,1,197,,,,,,,3,6,1,stim/61.jpeg,Instruments,1,stim/objects/Instruments/triangle2.png,0.9,3,-0.2,-0.15,left,38,2020-12-11_17h38.48.853,premup-three_ses-01_part-01_label-phase1,3.2.4,Win32,60,left,0.61500001,4,0,4,0,1,3,1,0,240,212,1,239,,,,,,,,,,,,,,,,,,
,,1,198,,,,,,,1,1,2,stim/12.jpeg,Instruments,1,stim/objects/Instruments/pipepiano.png,0.5,2,0.2,0.15,left,38,2020-12-11_17h38.48.853,premup-three_ses-01_part-01_label-phase1,3.2.4,Win32,60,left,0.993999958,4,0,4,0,1,3,1,0,240,5,1,239,,,,,,,,,,,,,,,,,,
,,1,199,,,,,,,2,4,3,stim/43.jpeg,HouseObjects,2,stim/objects/HouseObjects/rubbergloves2.png,0.3,4,0.2,-0.15,right,38,2020-12-11_17h38.48.853,premup-three_ses-01_part-01_label-phase1,3.2.4,Win32,60,right,0.905999899,4,0,4,0,1,3,1,0,240,158,1,239,,,,,,,,,,,,,,,,,,
,,1,200,,,,,,,1,1,2,stim/12.jpeg,Instruments,1,stim/objects/Instruments/pipepiano.png,0.5,3,-0.2,-0.15,left,38,2020-12-11_17h38.48.853,premup-three_ses-01_part-01_label-phase1,3.2.4,Win32,60,left,0.578000069,4,0,4,0,1,3,1,0,240,9,1,239,,,,,,,,,,,,,,,,,,
,,1,201,,,,,,,3,6,3,stim/63.jpeg,Instruments,1,stim/objects/Instruments/trumpet2.png,0.9,4,0.2,-0.15,left,38,2020-12-11_17h38.48.853,premup-three_ses-01_part-01_label-phase1,3.2.4,Win32,60,left,0.587999821,4,0,4,0,1,3,1,0,240,202,1,239,,,,,,,,,,,,,,,,,,
,,1,202,,,,,,,2,3,2,stim/32.jpeg,HouseObjects,2,stim/objects/HouseObjects/teapot.png,0.7,1,-0.2,0.15,right,38,2020-12-11_17h38.48.853,premup-three_ses-01_part-01_label-phase1,3.2.4,Win32,60,right,0.562000036,4,0,4,0,1,3,1,0,240,109,1,239,,,,,,,,,,,,,,,,,,
,,0,203,,,,,,,2,4,3,stim/43.jpeg,Instruments,1,stim/objects/Instruments/record2.png,0.7,1,-0.2,0.15,left,38,2020-12-11_17h38.48.853,premup-three_ses-01_part-01_label-phase1,3.2.4,Win32,60,right,0.489000082,4,0,4,0,1,3,1,0,240,134,1,239,,,,,,,,,,,,,,,,,,
,,0,204,,,,,,,2,3,4,stim/34.jpeg,Instruments,1,stim/objects/Instruments/tuba.png,0.3,3,-0.2,-0.15,left,38,2020-12-11_17h38.48.853,premup-three_ses-01_part-01_label-phase1,3.2.4,Win32,60,right,0.440999985,4,0,4,0,1,3,1,0,240,83,1,239,,,,,,,,,,,,,,,,,,
,,1,205,,,,,,,3,5,2,stim/52.jpeg,HouseObjects,2,stim/objects/HouseObjects/saw2.png,0.9,2,0.2,0.15,right,38,2020-12-11_17h38.48.853,premup-three_ses-01_part-01_label-phase1,3.2.4,Win32,60,right,0.520999908,4,0,4,0,1,3,1,0,240,185,1,239,,,,,,,,,,,,,,,,,,
,,0,206,,,,,,,1,2,3,stim/23.jpeg,HouseObjects,2,stim/objects/HouseObjects/scale.png,0.5,2,0.2,0.15,right,38,2020-12-11_17h38.48.853,premup-three_ses-01_part-01_label-phase1,3.2.4,Win32,60,left,0.690999985,4,0,4,0,1,3,1,0,240,74,1,239,,,,,,,,,,,,,,,,,,
,,1,207,,,,,,,1,1,3,stim/13.jpeg,HouseObjects,2,stim/objects/HouseObjects/rubbergloves.png,0.5,4,0.2,-0.15,right,38,2020-12-11_17h38.48.853,premup-three_ses-01_part-01_label-phase1,3.2.4,Win32,60,right,0.762000084,4,0,4,0,1,3,1,0,240,26,1,239,,,,,,,,,,,,,,,,,,
,,1,208,,,,,,,3,5,4,stim/54.jpeg,HouseObjects,2,stim/objects/HouseObjects/sponge2.png,0.9,3,-0.2,-0.15,right,38,2020-12-11_17h38.48.853,premup-three_ses-01_part-01_label-phase1,3.2.4,Win32,60,right,1.529000044,4,0,4,0,1,3,1,0,240,175,1,239,,,,,,,,,,,,,,,,,,
,,0,209,,,,,,,1,2,3,stim/23.jpeg,HouseObjects,2,stim/objects/HouseObjects/scale.png,0.5,1,-0.2,0.15,right,38,2020-12-11_17h38.48.853,premup-three_ses-01_part-01_label-phase1,3.2.4,Win32,60,left,0.546999931,4,0,4,0,1,3,1,0,240,78,1,239,,,,,,,,,,,,,,,,,,
,,1,210,,,,,,,3,6,3,stim/63.jpeg,Instruments,1,stim/objects/Instruments/trumpet2.png,0.9,1,-0.2,0.15,left,38,2020-12-11_17h38.48.853,premup-three_ses-01_part-01_label-phase1,3.2.4,Win32,60,left,0.528000116,4,0,4,0,1,3,1,0,240,222,1,239,,,,,,,,,,,,,,,,,,
,,1,211,,,,,,,2,3,3,stim/33.jpeg,HouseObjects,2,stim/objects/HouseObjects/thermometer.png,0.7,1,-0.2,0.15,right,38,2020-12-11_17h38.48.853,premup-three_ses-01_part-01_label-phase1,3.2.4,Win32,60,right,0.520999908,4,0,4,0,1,3,1,0,240,106,1,239,,,,,,,,,,,,,,,,,,
,,0,212,,,,,,,1,1,2,stim/12.jpeg,Instruments,1,stim/objects/Instruments/pipepiano.png,0.5,4,0.2,-0.15,left,38,2020-12-11_17h38.48.853,premup-three_ses-01_part-01_label-phase1,3.2.4,Win32,60,right,0.917999983,4,0,4,0,1,3,1,0,240,1,1,239,,,,,,,,,,,,,,,,,,
,,0,213,,,,,,,1,1,3,stim/13.jpeg,HouseObjects,2,stim/objects/HouseObjects/rubbergloves.png,0.5,2,0.2,0.15,right,38,2020-12-11_17h38.48.853,premup-three_ses-01_part-01_label-phase1,3.2.4,Win32,60,left,0.417000055,4,0,4,0,1,3,1,0,240,38,1,239,,,,,,,,,,,,,,,,,,
,,0,214,,,,,,,3,6,1,stim/61.jpeg,HouseObjects,2,stim/objects/HouseObjects/spraybottle2.png,0.1,2,0.2,0.15,right,38,2020-12-11_17h38.48.853,premup-three_ses-01_part-01_label-phase1,3.2.4,Win32,60,left,0.513999939,4,0,4,0,1,3,1,0,240,236,1,239,,,,,,,,,,,,,,,,,,
,,0,215,,,,,,,3,5,2,stim/52.jpeg,Instruments,1,stim/objects/Instruments/speaker2.png,0.1,3,-0.2,-0.15,left,38,2020-12-11_17h38.48.853,premup-three_ses-01_part-01_label-phase1,3.2.4,Win32,60,right,0.549000025,4,0,4,0,1,3,1,0,240,161,1,239,,,,,,,,,,,,,,,,,,
,,0,216,,,,,,,2,4,4,stim/44.jpeg,Instruments,1,stim/objects/Instruments/record_player2.png,0.7,3,-0.2,-0.15,left,38,2020-12-11_17h38.48.853,premup-three_ses-01_part-01_label-phase1,3.2.4,Win32,60,right,1.013999939,4,0,4,0,1,3,1,0,240,123,1,239,,,,,,,,,,,,,,,,,,
,,0,217,,,,,,,2,4,3,stim/43.jpeg,Instruments,1,stim/objects/Instruments/record2.png,0.7,3,-0.2,-0.15,left,38,2020-12-11_17h38.48.853,premup-three_ses-01_part-01_label-phase1,3.2.4,Win32,60,right,0.608999968,4,0,4,0,1,3,1,0,240,126,1,239,,,,,,,,,,,,,,,,,,
,,1,218,,,,,,,3,5,1,stim/51.jpeg,HouseObjects,2,stim/objects/HouseObjects/safetypin2.png,0.9,4,0.2,-0.15,right,38,2020-12-11_17h38.48.853,premup-three_ses-01_part-01_label-phase1,3.2.4,Win32,60,right,0.687000036,4,0,4,0,1,3,1,0,240,184,1,239,,,,,,,,,,,,,,,,,,
,,1,219,,,,,,,2,4,2,stim/42.jpeg,Instruments,1,stim/objects/Instruments/pipepiano2.png,0.7,4,0.2,-0.15,left,38,2020-12-11_17h38.48.853,premup-three_ses-01_part-01_label-phase1,3.2.4,Win32,60,left,0.983999968,4,0,4,0,1,3,1,0,240,125,1,239,,,,,,,,,,,,,,,,,,
,,1,220,,,,,,,3,6,4,stim/64.jpeg,Instruments,1,stim/objects/Instruments/tuba2.png,0.9,2,0.2,0.15,left,38,2020-12-11_17h38.48.853,premup-three_ses-01_part-01_label-phase1,3.2.4,Win32,60,left,0.59100008,4,0,4,0,1,3,1,0,240,211,1,239,,,,,,,,,,,,,,,,,,
,,1,221,,,,,,,2,3,1,stim/31.jpeg,HouseObjects,2,stim/objects/HouseObjects/spraybottle.png,0.7,4,0.2,-0.15,right,38,2020-12-11_17h38.48.853,premup-three_ses-01_part-01_label-phase1,3.2.4,Win32,60,right,0.960999966,4,0,4,0,1,3,1,0,240,96,1,239,,,,,,,,,,,,,,,,,,
,,1,222,,,,,,,2,3,2,stim/32.jpeg,HouseObjects,2,stim/objects/HouseObjects/teapot.png,0.7,3,-0.2,-0.15,right,38,2020-12-11_17h38.48.853,premup-three_ses-01_part-01_label-phase1,3.2.4,Win32,60,right,0.469000101,4,0,4,0,1,3,1,0,240,113,1,239,,,,,,,,,,,,,,,,,,
,,1,223,,,,,,,1,2,4,stim/24.jpeg,HouseObjects,2,stim/objects/HouseObjects/sponge.png,0.5,1,-0.2,0.15,right,38,2020-12-11_17h38.48.853,premup-three_ses-01_part-01_label-phase1,3.2.4,Win32,60,right,1.140999794,4,0,4,0,1,3,1,0,240,75,1,239,,,,,,,,,,,,,,,,,,
,,0,224,,,,,,,2,4,1,stim/41.jpeg,Instruments,1,stim/objects/Instruments/panflute2.png,0.7,1,-0.2,0.15,left,38,2020-12-11_17h38.48.853,premup-three_ses-01_part-01_label-phase1,3.2.4,Win32,60,right,0.690999985,4,0,4,0,1,3,1,0,240,144,1,239,,,,,,,,,,,,,,,,,,
,,0,225,,,,,,,2,4,4,stim/44.jpeg,Instruments,1,stim/objects/Instruments/record_player2.png,0.7,4,0.2,-0.15,left,38,2020-12-11_17h38.48.853,premup-three_ses-01_part-01_label-phase1,3.2.4,Win32,60,right,0.602999926,4,0,4,0,1,3,1,0,240,135,1,239,,,,,,,,,,,,,,,,,,
,,1,226,,,,,,,3,6,3,stim/63.jpeg,Instruments,1,stim/objects/Instruments/trumpet2.png,0.9,4,0.2,-0.15,left,38,2020-12-11_17h38.48.853,premup-three_ses-01_part-01_label-phase1,3.2.4,Win32,60,left,0.516000032,4,0,4,0,1,3,1,0,240,234,1,239,,,,,,,,,,,,,,,,,,
,,1,227,,,,,,,2,3,1,stim/31.jpeg,HouseObjects,2,stim/objects/HouseObjects/spraybottle.png,0.7,2,0.2,0.15,right,38,2020-12-11_17h38.48.853,premup-three_ses-01_part-01_label-phase1,3.2.4,Win32,60,right,0.461999893,4,0,4,0,1,3,1,0,240,112,1,239,,,,,,,,,,,,,,,,,,
,,1,228,,,,,,,3,5,2,stim/52.jpeg,HouseObjects,2,stim/objects/HouseObjects/saw2.png,0.9,2,0.2,0.15,right,38,2020-12-11_17h38.48.853,premup-three_ses-01_part-01_label-phase1,3.2.4,Win32,60,right,0.47300005,4,0,4,0,1,3,1,0,240,165,1,239,,,,,,,,,,,,,,,,,,
,,1,229,,,,,,,3,6,2,stim/62.jpeg,Instruments,1,stim/objects/Instruments/trombone2.png,0.9,1,-0.2,0.15,left,38,2020-12-11_17h38.48.853,premup-three_ses-01_part-01_label-phase1,3.2.4,Win32,60,left,0.463999987,4,0,4,0,1,3,1,0,240,205,1,239,,,,,,,,,,,,,,,,,,
,,1,230,,,,,,,1,1,4,stim/14.jpeg,Instruments,1,stim/objects/Instruments/record_player.png,0.5,4,0.2,-0.15,left,38,2020-12-11_17h38.48.853,premup-three_ses-01_part-01_label-phase1,3.2.4,Win32,60,left,0.687000036,4,0,4,0,1,3,1,0,240,3,1,239,,,,,,,,,,,,,,,,,,
,,0,231,,,,,,,2,4,3,stim/43.jpeg,Instruments,1,stim/objects/Instruments/record2.png,0.7,1,-0.2,0.15,left,38,2020-12-11_17h38.48.853,premup-three_ses-01_part-01_label-phase1,3.2.4,Win32,60,right,0.566999912,4,0,4,0,1,3,1,0,240,142,1,239,,,,,,,,,,,,,,,,,,
,,1,232,,,,,,,1,1,3,stim/13.jpeg,Instruments,1,stim/objects/Instruments/record.png,0.5,3,-0.2,-0.15,left,38,2020-12-11_17h38.48.853,premup-three_ses-01_part-01_label-phase1,3.2.4,Win32,60,left,0.536000013,4,0,4,0,1,3,1,0,240,2,1,239,,,,,,,,,,,,,,,,,,
,,0,233,,,,,,,1,1,3,stim/13.jpeg,HouseObjects,2,stim/objects/HouseObjects/rubbergloves.png,0.5,3,-0.2,-0.15,right,38,2020-12-11_17h38.48.853,premup-three_ses-01_part-01_label-phase1,3.2.4,Win32,60,left,0.48300004,4,0,4,0,1,3,1,0,240,30,1,239,,,,,,,,,,,,,,,,,,
,,1,234,,,,,,,2,4,4,stim/44.jpeg,Instruments,1,stim/objects/Instruments/record_player2.png,0.7,1,-0.2,0.15,left,38,2020-12-11_17h38.48.853,premup-three_ses-01_part-01_label-phase1,3.2.4,Win32,60,left,0.712000132,4,0,4,0,1,3,1,0,240,139,1,239,,,,,,,,,,,,,,,,,,
,,1,235,,,,,,,2,4,3,stim/43.jpeg,Instruments,1,stim/objects/Instruments/record2.png,0.7,1,-0.2,0.15,left,38,2020-12-11_17h38.48.853,premup-three_ses-01_part-01_label-phase1,3.2.4,Win32,60,left,0.443000078,4,0,4,0,1,3,1,0,240,146,1,239,,,,,,,,,,,,,,,,,,
,,1,236,,,,,,,3,5,1,stim/51.jpeg,HouseObjects,2,stim/objects/HouseObjects/safetypin2.png,0.9,2,0.2,0.15,right,38,2020-12-11_17h38.48.853,premup-three_ses-01_part-01_label-phase1,3.2.4,Win32,60,right,0.498999834,4,0,4,0,1,3,1,0,240,168,1,239,,,,,,,,,,,,,,,,,,
,,1,237,,,,,,,3,5,4,stim/54.jpeg,HouseObjects,2,stim/objects/HouseObjects/sponge2.png,0.9,4,0.2,-0.15,right,38,2020-12-11_17h38.48.853,premup-three_ses-01_part-01_label-phase1,3.2.4,Win32,60,right,0.80099988,4,0,4,0,1,3,1,0,240,171,1,239,,,,,,,,,,,,,,,,,,
,,1,238,,,,,,,3,6,4,stim/64.jpeg,Instruments,1,stim/objects/Instruments/tuba2.png,0.9,1,-0.2,0.15,left,38,2020-12-11_17h38.48.853,premup-three_ses-01_part-01_label-phase1,3.2.4,Win32,60,left,0.569000006,4,0,4,0,1,3,1,0,240,235,1,239,,,,,,,,,,,,,,,,,,
,,1,239,,,,,,,1,1,3,stim/13.jpeg,Instruments,1,stim/objects/Instruments/record.png,0.5,1,-0.2,0.15,left,38,2020-12-11_17h38.48.853,premup-three_ses-01_part-01_label-phase1,3.2.4,Win32,60,left,0.720999956,4,0,4,0,1,3,1,0,240,18,1,239,,,,,,,,,,,,,,,,,,
,,0,240,,,,,,,2,4,4,stim/44.jpeg,HouseObjects,2,stim/objects/HouseObjects/rug2.png,0.3,1,-0.2,0.15,right,38,2020-12-11_17h38.48.853,premup-three_ses-01_part-01_label-phase1,3.2.4,Win32,60,left,0.630000114,4,0,4,0,1,3,1,0,240,159,1,239,,,,,,,,,,,,,,,,,,
,,,,,,,,,,,1,,stim/11.jpeg,,,,,,,,,38,2020-12-11_17h38.48.853,premup-three_ses-01_part-01_label-phase1,3.2.4,Win32,60,,,4,0,4,0,1,3,,,,,,,1,0,40,22.87100005,,,1,0,6,0,1,5,Music items,45,55,Household items,45,55
,,,,,,,,,,,3,,stim/31.jpeg,,,,,,,,,38,2020-12-11_17h38.48.853,premup-three_ses-01_part-01_label-phase1,3.2.4,Win32,60,,,4,0,4,0,1,3,,,,,,,1,0,40,5.023999929,,,1,0,6,2,1,5,Music items,65,75,Household items,25,35
,,,,,,,,,,,4,,stim/41.jpeg,,,,,,,,,38,2020-12-11_17h38.48.853,premup-three_ses-01_part-01_label-phase1,3.2.4,Win32,60,,,4,0,4,0,1,3,,,,,,,1,1,66,14.50200009,,,1,0,6,3,1,5,Music items,65,75,Household items,25,35
,,,,,,,,,,,2,,stim/21.jpeg,,,,,,,,,38,2020-12-11_17h38.48.853,premup-three_ses-01_part-01_label-phase1,3.2.4,Win32,60,,,4,0,4,0,1,3,,,,,,,1,1,60,4.669000149,,,1,0,6,1,1,5,Household items,45,55,Music items,45,55
,,,,,,,,,,,6,,stim/61.jpeg,,,,,,,,,38,2020-12-11_17h38.48.853,premup-three_ses-01_part-01_label-phase1,3.2.4,Win32,60,,,4,0,4,0,1,3,,,,,,,1,1,95,4.84800005,,,1,0,6,5,1,5,Music items,5,15,Household items,85,95
,,,,,,,,,,,5,,stim/51.jpeg,,,,,,,,,38,2020-12-11_17h38.48.853,premup-three_ses-01_part-01_label-phase1,3.2.4,Win32,60,,,4,0,4,0,1,3,,,,,,,1,1,96,7.027999878,,,1,0,6,4,1,5,Household items,5,15,Music items,85,95
,,,,,,,,,,,,,,,,,,,,,,38,2020-12-11_17h38.48.853,premup-three_ses-01_part-01_label-phase1,3.2.4,Win32,60,,,4,0,4,0,1,3,,,,,,,,,,,,,,,,,,,,,,,,
,,1,1,,,,,,,1,2,4,stim/24.jpeg,Instruments,1,stim/objects/Instruments/timbal.png,0.5,3,-0.2,-0.15,left,38,2020-12-11_17h38.48.853,premup-three_ses-01_part-01_label-phase1,3.2.4,Win32,60,left,1.066999912,4,0,4,0,1,3,1,0,240,43,1,239,,,,,,,,,,,,,,,,,,
,,1,2,,,,,,,1,2,4,stim/24.jpeg,Instruments,1,stim/objects/Instruments/timbal.png,0.5,2,0.2,0.15,left,38,2020-12-11_17h38.48.853,premup-three_ses-01_part-01_label-phase1,3.2.4,Win32,60,left,0.517999887,4,0,4,0,1,3,1,0,240,55,1,239,,,,,,,,,,,,,,,,,,
,,1,3,,,,,,,2,3,1,stim/31.jpeg,HouseObjects,2,stim/objects/HouseObjects/spraybottle.png,0.7,2,0.2,0.15,right,38,2020-12-11_17h38.48.853,premup-three_ses-01_part-01_label-phase1,3.2.4,Win32,60,right,0.713000059,4,0,4,0,1,3,1,0,240,112,1,239,,,,,,,,,,,,,,,,,,
,,1,4,,,,,,,3,6,1,stim/61.jpeg,Instruments,1,stim/objects/Instruments/triangle2.png,0.9,3,-0.2,-0.15,left,38,2020-12-11_17h38.48.853,premup-three_ses-01_part-01_label-phase1,3.2.4,Win32,60,left,0.580999851,4,0,4,0,1,3,1,0,240,204,1,239,,,,,,,,,,,,,,,,,,
,,0,5,,,,,,,1,2,3,stim/23.jpeg,HouseObjects,2,stim/objects/HouseObjects/scale.png,0.5,4,0.2,-0.15,right,38,2020-12-11_17h38.48.853,premup-three_ses-01_part-01_label-phase1,3.2.4,Win32,60,left,0.458999872,4,0,4,0,1,3,1,0,240,66,1,239,,,,,,,,,,,,,,,,,,
,,0,6,,,,,,,2,4,3,stim/43.jpeg,Instruments,1,stim/objects/Instruments/record2.png,0.7,3,-0.2,-0.15,left,38,2020-12-11_17h38.48.853,premup-three_ses-01_part-01_label-phase1,3.2.4,Win32,60,,,4,0,4,0,1,3,1,0,240,122,1,239,,,,,,,,,,,,,,,,,,
,,1,7,,,,,,,3,6,4,stim/64.jpeg,Instruments,1,stim/objects/Instruments/tuba2.png,0.9,2,0.2,0.15,left,38,2020-12-11_17h38.48.853,premup-three_ses-01_part-01_label-phase1,3.2.4,Win32,60,left,1.209000111,4,0,4,0,1,3,1,0,240,219,1,239,,,,,,,,,,,,,,,,,,
,,1,8,,,,,,,3,5,4,stim/54.jpeg,HouseObjects,2,stim/objects/HouseObjects/sponge2.png,0.9,3,-0.2,-0.15,right,38,2020-12-11_17h38.48.853,premup-three_ses-01_part-01_label-phase1,3.2.4,Win32,60,right,0.837000132,4,0,4,0,1,3,1,0,240,175,1,239,,,,,,,,,,,,,,,,,,
,,1,9,,,,,,,1,1,1,stim/11.jpeg,Instruments,1,stim/objects/Instruments/panflute.png,0.5,4,0.2,-0.15,left,38,2020-12-11_17h38.48.853,premup-three_ses-01_part-01_label-phase1,3.2.4,Win32,60,left,0.876999855,4,0,4,0,1,3,1,0,240,0,1,239,,,,,,,,,,,,,,,,,,
,,1,10,,,,,,,1,2,1,stim/21.jpeg,Instruments,1,stim/objects/Instruments/saxophone.png,0.5,2,0.2,0.15,left,38,2020-12-11_17h38.48.853,premup-three_ses-01_part-01_label-phase1,3.2.4,Win32,60,left,0.657999992,4,0,4,0,1,3,1,0,240,40,1,239,,,,,,,,,,,,,,,,,,
,,1,11,,,,,,,3,6,4,stim/64.jpeg,Instruments,1,stim/objects/Instruments/tuba2.png,0.9,3,-0.2,-0.15,left,38,2020-12-11_17h38.48.853,premup-three_ses-01_part-01_label-phase1,3.2.4,Win32,60,left,0.46600008,4,0,4,0,1,3,1,0,240,231,1,239,,,,,,,,,,,,,,,,,,
,,1,12,,,,,,,3,5,2,stim/52.jpeg,HouseObjects,2,stim/objects/HouseObjects/saw2.png,0.9,4,0.2,-0.15,right,38,2020-12-11_17h38.48.853,premup-three_ses-01_part-01_label-phase1,3.2.4,Win32,60,right,0.873999834,4,0,4,0,1,3,1,0,240,181,1,239,,,,,,,,,,,,,,,,,,
,,1,13,,,,,,,2,3,3,stim/33.jpeg,HouseObjects,2,stim/objects/HouseObjects/thermometer.png,0.7,4,0.2,-0.15,right,38,2020-12-11_17h38.48.853,premup-three_ses-01_part-01_label-phase1,3.2.4,Win32,60,right,0.618999958,4,0,4,0,1,3,1,0,240,118,1,239,,,,,,,,,,,,,,,,,,
,,1,14,,,,,,,2,3,2,stim/32.jpeg,HouseObjects,2,stim/objects/HouseObjects/teapot.png,0.7,1,-0.2,0.15,right,38,2020-12-11_17h38.48.853,premup-three_ses-01_part-01_label-phase1,3.2.4,Win32,60,right,0.513999939,4,0,4,0,1,3,1,0,240,109,1,239,,,,,,,,,,,,,,,,,,
,,1,15,,,,,,,3,5,2,stim/52.jpeg,HouseObjects,2,stim/objects/HouseObjects/saw2.png,0.9,2,0.2,0.15,right,38,2020-12-11_17h38.48.853,premup-three_ses-01_part-01_label-phase1,3.2.4,Win32,60,right,0.781000137,4,0,4,0,1,3,1,0,240,197,1,239,,,,,,,,,,,,,,,,,,
,,1,16,,,,,,,2,3,2,stim/32.jpeg,HouseObjects,2,stim/objects/HouseObjects/teapot.png,0.7,1,-0.2,0.15,right,38,2020-12-11_17h38.48.853,premup-three_ses-01_part-01_label-phase1,3.2.4,Win32,60,right,0.507999897,4,0,4,0,1,3,1,0,240,93,1,239,,,,,,,,,,,,,,,,,,
,,1,17,,,,,,,1,1,2,stim/12.jpeg,Instruments,1,stim/objects/Instruments/pipepiano.png,0.5,2,0.2,0.15,left,38,2020-12-11_17h38.48.853,premup-three_ses-01_part-01_label-phase1,3.2.4,Win32,60,left,0.624000072,4,0,4,0,1,3,1,0,240,5,1,239,,,,,,,,,,,,,,,,,,
,,0,18,,,,,,,1,2,2,stim/22.jpeg,HouseObjects,2,stim/objects/HouseObjects/saw.png,0.5,2,0.2,0.15,right,38,2020-12-11_17h38.48.853,premup-three_ses-01_part-01_label-phase1,3.2.4,Win32,60,left,0.551999807,4,0,4,0,1,3,1,0,240,65,1,239,,,,,,,,,,,,,,,,,,
,,1,19,,,,,,,3,6,3,stim/63.jpeg,Instruments,1,stim/objects/Instruments/trumpet2.png,0.9,2,0.2,0.15,left,38,2020-12-11_17h38.48.853,premup-three_ses-01_part-01_label-phase1,3.2.4,Win32,60,left,0.572000027,4,0,4,0,1,3,1,0,240,226,1,239,,,,,,,,,,,,,,,,,,
,,1,20,,,,,,,3,6,3,stim/63.jpeg,Instruments,1,stim/objects/Instruments/trumpet2.png,0.9,1,-0.2,0.15,left,38,2020-12-11_17h38.48.853,premup-three_ses-01_part-01_label-phase1,3.2.4,Win32,60,left,0.599999905,4,0,4,0,1,3,1,0,240,222,1,239,,,,,,,,,,,,,,,,,,
,,0,21,,,,,,,1,2,3,stim/23.jpeg,HouseObjects,2,stim/objects/HouseObjects/scale.png,0.5,4,0.2,-0.15,right,38,2020-12-11_17h38.48.853,premup-three_ses-01_part-01_label-phase1,3.2.4,Win32,60,left,0.594000101,4,0,4,0,1,3,1,0,240,70,1,239,,,,,,,,,,,,,,,,,,
,,1,22,,,,,,,1,1,1,stim/11.jpeg,Instruments,1,stim/objects/Instruments/panflute.png,0.5,2,0.2,0.15,left,38,2020-12-11_17h38.48.853,premup-three_ses-01_part-01_label-phase1,3.2.4,Win32,60,left,0.631999969,4,0,4,0,1,3,1,0,240,16,1,239,,,,,,,,,,,,,,,,,,
,,1,23,,,,,,,2,3,1,stim/31.jpeg,HouseObjects,2,stim/objects/HouseObjects/spraybottle.png,0.7,3,-0.2,-0.15,right,38,2020-12-11_17h38.48.853,premup-three_ses-01_part-01_label-phase1,3.2.4,Win32,60,right,0.651000023,4,0,4,0,1,3,1,0,240,116,1,239,,,,,,,,,,,,,,,,,,
,,0,24,,,,,,,2,4,4,stim/44.jpeg,Instruments,1,stim/objects/Instruments/record_player2.png,0.7,1,-0.2,0.15,left,38,2020-12-11_17h38.48.853,premup-three_ses-01_part-01_label-phase1,3.2.4,Win32,60,right,0.823999882,4,0,4,0,1,3,1,0,240,139,1,239,,,,,,,,,,,,,,,,,,
,,1,25,,,,,,,2,3,1,stim/31.jpeg,HouseObjects,2,stim/objects/HouseObjects/spraybottle.png,0.7,4,0.2,-0.15,right,38,2020-12-11_17h38.48.853,premup-three_ses-01_part-01_label-phase1,3.2.4,Win32,60,right,0.592000008,4,0,4,0,1,3,1,0,240,100,1,239,,,,,,,,,,,,,,,,,,
,,0,26,,,,,,,1,2,2,stim/22.jpeg,HouseObjects,2,stim/objects/HouseObjects/saw.png,0.5,1,-0.2,0.15,right,38,2020-12-11_17h38.48.853,premup-three_ses-01_part-01_label-phase1,3.2.4,Win32,60,left,0.590000153,4,0,4,0,1,3,1,0,240,61,1,239,,,,,,,,,,,,,,,,,,
,,0,27,,,,,,,3,5,4,stim/54.jpeg,Instruments,1,stim/objects/Instruments/timbal2.png,0.1,1,-0.2,0.15,left,38,2020-12-11_17h38.48.853,premup-three_ses-01_part-01_label-phase1,3.2.4,Win32,60,right,0.514000177,4,0,4,0,1,3,1,0,240,163,1,239,,,,,,,,,,,,,,,,,,
,,1,28,,,,,,,1,2,2,stim/22.jpeg,Instruments,1,stim/objects/Instruments/speaker.png,0.5,1,-0.2,0.15,left,38,2020-12-11_17h38.48.853,premup-three_ses-01_part-01_label-phase1,3.2.4,Win32,60,left,0.59800005,4,0,4,0,1,3,1,0,240,45,1,239,,,,,,,,,,,,,,,,,,
,,0,29,,,,,,,2,4,3,stim/43.jpeg,Instruments,1,stim/objects/Instruments/record2.png,0.7,1,-0.2,0.15,left,38,2020-12-11_17h38.48.853,premup-three_ses-01_part-01_label-phase1,3.2.4,Win32,60,right,0.61500001,4,0,4,0,1,3,1,0,240,134,1,239,,,,,,,,,,,,,,,,,,
,,0,30,,,,,,,2,3,1,stim/31.jpeg,Instruments,1,stim/objects/Instruments/triangle.png,0.3,2,0.2,0.15,left,38,2020-12-11_17h38.48.853,premup-three_ses-01_part-01_label-phase1,3.2.4,Win32,60,right,1.367000103,4,0,4,0,1,3,1,0,240,80,1,239,,,,,,,,,,,,,,,,,,
,,0,31,,,,,,,1,1,3,stim/13.jpeg,HouseObjects,2,stim/objects/HouseObjects/rubbergloves.png,0.5,1,-0.2,0.15,right,38,2020-12-11_17h38.48.853,premup-three_ses-01_part-01_label-phase1,3.2.4,Win32,60,left,0.71999979,4,0,4,0,1,3,1,0,240,22,1,239,,,,,,,,,,,,,,,,,,
,,1,32,,,,,,,2,4,2,stim/42.jpeg,Instruments,1,stim/objects/Instruments/pipepiano2.png,0.7,3,-0.2,-0.15,left,38,2020-12-11_17h38.48.853,premup-three_ses-01_part-01_label-phase1,3.2.4,Win32,60,left,0.951999903,4,0,4,0,1,3,1,0,240,121,1,239,,,,,,,,,,,,,,,,,,
,,1,33,,,,,,,3,5,2,stim/52.jpeg,HouseObjects,2,stim/objects/HouseObjects/saw2.png,0.9,4,0.2,-0.15,right,38,2020-12-11_17h38.48.853,premup-three_ses-01_part-01_label-phase1,3.2.4,Win32,60,right,0.595000029,4,0,4,0,1,3,1,0,240,169,1,239,,,,,,,,,,,,,,,,,,
,,0,34,,,,,,,2,3,2,stim/32.jpeg,Instruments,1,stim/objects/Instruments/trombone.png,0.3,2,0.2,0.15,left,38,2020-12-11_17h38.48.853,premup-three_ses-01_part-01_label-phase1,3.2.4,Win32,60,right,0.65199995,4,0,4,0,1,3,1,0,240,81,1,239,,,,,,,,,,,,,,,,,,
,,1,35,,,,,,,2,3,4,stim/34.jpeg,HouseObjects,2,stim/objects/HouseObjects/thread.png,0.7,2,0.2,0.15,right,38,2020-12-11_17h38.48.853,premup-three_ses-01_part-01_label-phase1,3.2.4,Win32,60,right,0.551000118,4,0,4,0,1,3,1,0,240,111,1,239,,,,,,,,,,,,,,,,,,
,,0,36,,,,,,,2,4,4,stim/44.jpeg,HouseObjects,2,stim/objects/HouseObjects/rug2.png,0.3,4,0.2,-0.15,right,38,2020-12-11_17h38.48.853,premup-three_ses-01_part-01_label-phase1,3.2.4,Win32,60,left,1.72300005,4,0,4,0,1,3,1,0,240,151,1,239,,,,,,,,,,,,,,,,,,
,,0,37,,,,,,,3,6,1,stim/61.jpeg,HouseObjects,2,stim/objects/HouseObjects/spraybottle2.png,0.1,2,0.2,0.15,right,38,2020-12-11_17h38.48.853,premup-three_ses-01_part-01_label-phase1,3.2.4,Win32,60,left,0.541000128,4,0,4,0,1,3,1,0,240,236,1,239,,,,,,,,,,,,,,,,,,
,,0,38,,,,,,,2,4,3,stim/43.jpeg,Instruments,1,stim/objects/Instruments/record2.png,0.7,1,-0.2,0.15,left,38,2020-12-11_17h38.48.853,premup-three_ses-01_part-01_label-phase1,3.2.4,Win32,60,right,0.546999931,4,0,4,0,1,3,1,0,240,142,1,239,,,,,,,,,,,,,,,,,,
,,1,39,,,,,,,3,6,4,stim/64.jpeg,Instruments,1,stim/objects/Instruments/tuba2.png,0.9,1,-0.2,0.15,left,38,2020-12-11_17h38.48.853,premup-three_ses-01_part-01_label-phase1,3.2.4,Win32,60,left,0.687999964,4,0,4,0,1,3,1,0,240,235,1,239,,,,,,,,,,,,,,,,,,
,,0,40,,,,,,,1,2,1,stim/21.jpeg,Instruments,1,stim/objects/Instruments/saxophone.png,0.5,4,0.2,-0.15,left,38,2020-12-11_17h38.48.853,premup-three_ses-01_part-01_label-phase1,3.2.4,Win32,60,right,0.74000001,4,0,4,0,1,3,1,0,240,52,1,239,,,,,,,,,,,,,,,,,,
,,1,41,,,,,,,3,5,3,stim/53.jpeg,HouseObjects,2,stim/objects/HouseObjects/scale2.png,0.9,1,-0.2,0.15,right,38,2020-12-11_17h38.48.853,premup-three_ses-01_part-01_label-phase1,3.2.4,Win32,60,right,0.589999914,4,0,4,0,1,3,1,0,240,198,1,239,,,,,,,,,,,,,,,,,,
,,1,42,,,,,,,1,1,3,stim/13.jpeg,Instruments,1,stim/objects/Instruments/record.png,0.5,3,-0.2,-0.15,left,38,2020-12-11_17h38.48.853,premup-three_ses-01_part-01_label-phase1,3.2.4,Win32,60,left,0.592999935,4,0,4,0,1,3,1,0,240,2,1,239,,,,,,,,,,,,,,,,,,
,,0,43,,,,,,,2,4,1,stim/41.jpeg,HouseObjects,2,stim/objects/HouseObjects/recyclingbin2.png,0.3,3,-0.2,-0.15,right,38,2020-12-11_17h38.48.853,premup-three_ses-01_part-01_label-phase1,3.2.4,Win32,60,left,0.792000055,4,0,4,0,1,3,1,0,240,152,1,239,,,,,,,,,,,,,,,,,,
,,0,44,,,,,,,1,2,2,stim/22.jpeg,HouseObjects,2,stim/objects/HouseObjects/saw.png,0.5,1,-0.2,0.15,right,38,2020-12-11_17h38.48.853,premup-three_ses-01_part-01_label-phase1,3.2.4,Win32,60,left,1.378999949,4,0,4,0,1,3,1,0,240,73,1,239,,,,,,,,,,,,,,,,,,
,,1,45,,,,,,,3,5,3,stim/53.jpeg,HouseObjects,2,stim/objects/HouseObjects/scale2.png,0.9,2,0.2,0.15,right,38,2020-12-11_17h38.48.853,premup-three_ses-01_part-01_label-phase1,3.2.4,Win32,60,right,0.512000084,4,0,4,0,1,3,1,0,240,174,1,239,,,,,,,,,,,,,,,,,,
,,1,46,,,,,,,1,1,1,stim/11.jpeg,HouseObjects,2,stim/objects/HouseObjects/recyclingbin.png,0.5,2,0.2,0.15,right,38,2020-12-11_17h38.48.853,premup-three_ses-01_part-01_label-phase1,3.2.4,Win32,60,right,0.749000072,4,0,4,0,1,3,1,0,240,36,1,239,,,,,,,,,,,,,,,,,,
,,1,47,,,,,,,3,6,2,stim/62.jpeg,Instruments,1,stim/objects/Instruments/trombone2.png,0.9,1,-0.2,0.15,left,38,2020-12-11_17h38.48.853,premup-three_ses-01_part-01_label-phase1,3.2.4,Win32,60,left,0.638999939,4,0,4,0,1,3,1,0,240,221,1,239,,,,,,,,,,,,,,,,,,
,,0,48,,,,,,,1,1,1,stim/11.jpeg,HouseObjects,2,stim/objects/HouseObjects/recyclingbin.png,0.5,3,-0.2,-0.15,right,38,2020-12-11_17h38.48.853,premup-three_ses-01_part-01_label-phase1,3.2.4,Win32,60,left,1.683000088,4,0,4,0,1,3,1,0,240,20,1,239,,,,,,,,,,,,,,,,,,
,,1,49,,,,,,,3,6,2,stim/62.jpeg,Instruments,1,stim/objects/Instruments/trombone2.png,0.9,1,-0.2,0.15,left,38,2020-12-11_17h38.48.853,premup-three_ses-01_part-01_label-phase1,3.2.4,Win32,60,left,1.180999994,4,0,4,0,1,3,1,0,240,213,1,239,,,,,,,,,,,,,,,,,,
,,1,50,,,,,,,2,3,4,stim/34.jpeg,HouseObjects,2,stim/objects/HouseObjects/thread.png,0.7,4,0.2,-0.15,right,38,2020-12-11_17h38.48.853,premup-three_ses-01_part-01_label-phase1,3.2.4,Win32,60,right,0.707000017,4,0,4,0,1,3,1,0,240,95,1,239,,,,,,,,,,,,,,,,,,
,,0,51,,,,,,,1,2,1,stim/21.jpeg,Instruments,1,stim/objects/Instruments/saxophone.png,0.5,3,-0.2,-0.15,left,38,2020-12-11_17h38.48.853,premup-three_ses-01_part-01_label-phase1,3.2.4,Win32,60,right,0.971000195,4,0,4,0,1,3,1,0,240,48,1,239,,,,,,,,,,,,,,,,,,
,,1,52,,,,,,,2,3,3,stim/33.jpeg,HouseObjects,2,stim/objects/HouseObjects/thermometer.png,0.7,1,-0.2,0.15,right,38,2020-12-11_17h38.48.853,premup-three_ses-01_part-01_label-phase1,3.2.4,Win32,60,right,0.679000139,4,0,4,0,1,3,1,0,240,98,1,239,,,,,,,,,,,,,,,,,,
,,1,53,,,,,,,2,4,3,stim/43.jpeg,Instruments,1,stim/objects/Instruments/record2.png,0.7,2,0.2,0.15,left,38,2020-12-11_17h38.48.853,premup-three_ses-01_part-01_label-phase1,3.2.4,Win32,60,left,0.953000069,4,0,4,0,1,3,1,0,240,138,1,239,,,,,,,,,,,,,,,,,,
,,1,54,,,,,,,3,6,4,stim/64.jpeg,Instruments,1,stim/objects/Instruments/tuba2.png,0.9,2,0.2,0.15,left,38,2020-12-11_17h38.48.853,premup-three_ses-01_part-01_label-phase1,3.2.4,Win32,60,left,0.621000051,4,0,4,0,1,3,1,0,240,211,1,239,,,,,,,,,,,,,,,,,,
,,1,55,,,,,,,3,6,2,stim/62.jpeg,Instruments,1,stim/objects/Instruments/trombone2.png,0.9,4,0.2,-0.15,left,38,2020-12-11_17h38.48.853,premup-three_ses-01_part-01_label-phase1,3.2.4,Win32,60,left,0.548000097,4,0,4,0,1,3,1,0,240,225,1,239,,,,,,,,,,,,,,,,,,
,,1,56,,,,,,,1,2,1,stim/21.jpeg,HouseObjects,2,stim/objects/HouseObjects/safetypin.png,0.5,3,-0.2,-0.15,right,38,2020-12-11_17h38.48.853,premup-three_ses-01_part-01_label-phase1,3.2.4,Win32,60,right,0.851000071,4,0,4,0,1,3,1,0,240,60,1,239,,,,,,,,,,,,,,,,,,
,,0,57,,,,,,,1,2,1,stim/21.jpeg,Instruments,1,stim/objects/Instruments/saxophone.png,0.5,3,-0.2,-0.15,left,38,2020-12-11_17h38.48.853,premup-three_ses-01_part-01_label-phase1,3.2.4,Win32,60,right,0.644999981,4,0,4,0,1,3,1,0,240,44,1,239,,,,,,,,,,,,,,,,,,
,,1,58,,,,,,,1,1,2,stim/12.jpeg,Instruments,1,stim/objects/Instruments/pipepiano.png,0.5,4,0.2,-0.15,left,38,2020-12-11_17h38.48.853,premup-three_ses-01_part-01_label-phase1,3.2.4,Win32,60,left,1.039000034,4,0,4,0,1,3,1,0,240,17,1,239,,,,,,,,,,,,,,,,,,
,,1,59,,,,,,,2,3,3,stim/33.jpeg,HouseObjects,2,stim/objects/HouseObjects/thermometer.png,0.7,2,0.2,0.15,right,38,2020-12-11_17h38.48.853,premup-three_ses-01_part-01_label-phase1,3.2.4,Win32,60,right,0.598999977,4,0,4,0,1,3,1,0,240,94,1,239,,,,,,,,,,,,,,,,,,
,,1,60,,,,,,,1,1,2,stim/12.jpeg,Instruments,1,stim/objects/Instruments/pipepiano.png,0.5,4,0.2,-0.15,left,38,2020-12-11_17h38.48.853,premup-three_ses-01_part-01_label-phase1,3.2.4,Win32,60,left,0.736999989,4,0,4,0,1,3,1,0,240,1,1,239,,,,,,,,,,,,,,,,,,
,,1,61,,,,,,,2,4,4,stim/44.jpeg,Instruments,1,stim/objects/Instruments/record_player2.png,0.7,1,-0.2,0.15,left,38,2020-12-11_17h38.48.853,premup-three_ses-01_part-01_label-phase1,3.2.4,Win32,60,left,1.03399992,4,0,4,0,1,3,1,0,240,143,1,239,,,,,,,,,,,,,,,,,,
,,1,62,,,,,,,3,6,3,stim/63.jpeg,Instruments,1,stim/objects/Instruments/trumpet2.png,0.9,4,0.2,-0.15,left,38,2020-12-11_17h38.48.853,premup-three_ses-01_part-01_label-phase1,3.2.4,Win32,60,left,0.722000122,4,0,4,0,1,3,1,0,240,234,1,239,,,,,,,,,,,,,,,,,,
,,0,63,,,,,,,1,2,4,stim/24.jpeg,HouseObjects,2,stim/objects/HouseObjects/sponge.png,0.5,2,0.2,0.15,right,38,2020-12-11_17h38.48.853,premup-three_ses-01_part-01_label-phase1,3.2.4,Win32,60,left,1.736999989,4,0,4,0,1,3,1,0,240,63,1,239,,,,,,,,,,,,,,,,,,
,,1,64,,,,,,,3,6,1,stim/61.jpeg,Instruments,1,stim/objects/Instruments/triangle2.png,0.9,3,-0.2,-0.15,left,38,2020-12-11_17h38.48.853,premup-three_ses-01_part-01_label-phase1,3.2.4,Win32,60,left,0.74000001,4,0,4,0,1,3,1,0,240,200,1,239,,,,,,,,,,,,,,,,,,
,,1,65,,,,,,,3,5,3,stim/53.jpeg,HouseObjects,2,stim/objects/HouseObjects/scale2.png,0.9,2,0.2,0.15,right,38,2020-12-11_17h38.48.853,premup-three_ses-01_part-01_label-phase1,3.2.4,Win32,60,right,0.530999899,4,0,4,0,1,3,1,0,240,186,1,239,,,,,,,,,,,,,,,,,,
,,1,66,,,,,,,3,5,4,stim/54.jpeg,HouseObjects,2,stim/objects/HouseObjects/sponge2.png,0.9,3,-0.2,-0.15,right,38,2020-12-11_17h38.48.853,premup-three_ses-01_part-01_label-phase1,3.2.4,Win32,60,right,0.624000072,4,0,4,0,1,3,1,0,240,179,1,239,,,,,,,,,,,,,,,,,,
,,0,67,,,,,,,2,3,2,stim/32.jpeg,Instruments,1,stim/objects/Instruments/trombone.png,0.3,2,0.2,0.15,left,38,2020-12-11_17h38.48.853,premup-three_ses-01_part-01_label-phase1,3.2.4,Win32,60,right,0.438000202,4,0,4,0,1,3,1,0,240,85,1,239,,,,,,,,,,,,,,,,,,
,,1,68,,,,,,,2,4,2,stim/42.jpeg,Instruments,1,stim/objects/Instruments/pipepiano2.png,0.7,2,0.2,0.15,left,38,2020-12-11_17h38.48.853,premup-three_ses-01_part-01_label-phase1,3.2.4,Win32,60,left,0.756999969,4,0,4,0,1,3,1,0,240,137,1,239,,,,,,,,,,,,,,,,,,
,,1,69,,,,,,,3,5,4,stim/54.jpeg,HouseObjects,2,stim/objects/HouseObjects/sponge2.png,0.9,2,0.2,0.15,right,38,2020-12-11_17h38.48.853,premup-three_ses-01_part-01_label-phase1,3.2.4,Win32,60,right,0.785000086,4,0,4,0,1,3,1,0,240,191,1,239,,,,,,,,,,,,,,,,,,
,,0,70,,,,,,,2,3,3,stim/33.jpeg,Instruments,1,stim/objects/Instruments/trumpet.png,0.3,1,-0.2,0.15,left,38,2020-12-11_17h38.48.853,premup-three_ses-01_part-01_label-phase1,3.2.4,Win32,60,right,0.57400012,4,0,4,0,1,3,1,0,240,86,1,239,,,,,,,,,,,,,,,,,,
,,0,71,,,,,,,2,4,2,stim/42.jpeg,HouseObjects,2,stim/objects/HouseObjects/remote2.png,0.3,3,-0.2,-0.15,right,38,2020-12-11_17h38.48.853,premup-three_ses-01_part-01_label-phase1,3.2.4,Win32,60,left,0.960999966,4,0,4,0,1,3,1,0,240,149,1,239,,,,,,,,,,,,,,,,,,
,,1,72,,,,,,,3,5,2,stim/52.jpeg,HouseObjects,2,stim/objects/HouseObjects/saw2.png,0.9,2,0.2,0.15,right,38,2020-12-11_17h38.48.853,premup-three_ses-01_part-01_label-phase1,3.2.4,Win32,60,right,0.603999853,4,0,4,0,1,3,1,0,240,165,1,239,,,,,,,,,,,,,,,,,,
,,0,73,,,,,,,2,4,2,stim/42.jpeg,HouseObjects,2,stim/objects/HouseObjects/remote2.png,0.3,2,0.2,0.15,right,38,2020-12-11_17h38.48.853,premup-three_ses-01_part-01_label-phase1,3.2.4,Win32,60,left,0.707999945,4,0,4,0,1,3,1,0,240,157,1,239,,,,,,,,,,,,,,,,,,
,,0,74,,,,,,,1,1,4,stim/14.jpeg,HouseObjects,2,stim/objects/HouseObjects/rug.png,0.5,2,0.2,0.15,right,38,2020-12-11_17h38.48.853,premup-three_ses-01_part-01_label-phase1,3.2.4,Win32,60,left,1.82400012,4,0,4,0,1,3,1,0,240,23,1,239,,,,,,,,,,,,,,,,,,
,,0,75,,,,,,,1,1,4,stim/14.jpeg,HouseObjects,2,stim/objects/HouseObjects/rug.png,0.5,4,0.2,-0.15,right,38,2020-12-11_17h38.48.853,premup-three_ses-01_part-01_label-phase1,3.2.4,Win32,60,left,0.586999893,4,0,4,0,1,3,1,0,240,27,1,239,,,,,,,,,,,,,,,,,,
,,1,76,,,,,,,3,5,1,stim/51.jpeg,HouseObjects,2,stim/objects/HouseObjects/safetypin2.png,0.9,4,0.2,-0.15,right,38,2020-12-11_17h38.48.853,premup-three_ses-01_part-01_label-phase1,3.2.4,Win32,60,right,0.50999999,4,0,4,0,1,3,1,0,240,188,1,239,,,,,,,,,,,,,,,,,,
,,1,77,,,,,,,3,5,2,stim/52.jpeg,HouseObjects,2,stim/objects/HouseObjects/saw2.png,0.9,2,0.2,0.15,right,38,2020-12-11_17h38.48.853,premup-three_ses-01_part-01_label-phase1,3.2.4,Win32,60,right,0.499000072,4,0,4,0,1,3,1,0,240,185,1,239,,,,,,,,,,,,,,,,,,
,,0,78,,,,,,,1,1,3,stim/13.jpeg,HouseObjects,2,stim/objects/HouseObjects/rubbergloves.png,0.5,2,0.2,0.15,right,38,2020-12-11_17h38.48.853,premup-three_ses-01_part-01_label-phase1,3.2.4,Win32,60,left,1.003999949,4,0,4,0,1,3,1,0,240,38,1,239,,,,,,,,,,,,,,,,,,
,,1,79,,,,,,,3,5,4,stim/54.jpeg,HouseObjects,2,stim/objects/HouseObjects/sponge2.png,0.9,4,0.2,-0.15,right,38,2020-12-11_17h38.48.853,premup-three_ses-01_part-01_label-phase1,3.2.4,Win32,60,right,0.840000153,4,0,4,0,1,3,1,0,240,171,1,239,,,,,,,,,,,,,,,,,,
,,1,80,,,,,,,2,4,1,stim/41.jpeg,Instruments,1,stim/objects/Instruments/panflute2.png,0.7,1,-0.2,0.15,left,38,2020-12-11_17h38.48.853,premup-three_ses-01_part-01_label-phase1,3.2.4,Win32,60,left,0.769999981,4,0,4,0,1,3,1,0,240,144,1,239,,,,,,,,,,,,,,,,,,
,,1,81,,,,,,,1,2,3,stim/23.jpeg,Instruments,1,stim/objects/Instruments/tambourine.png,0.5,1,-0.2,0.15,left,38,2020-12-11_17h38.48.853,premup-three_ses-01_part-01_label-phase1,3.2.4,Win32,60,left,0.930999994,4,0,4,0,1,3,1,0,240,58,1,239,,,,,,,,,,,,,,,,,,
,,1,82,,,,,,,2,3,3,stim/33.jpeg,HouseObjects,2,stim/objects/HouseObjects/thermometer.png,0.7,4,0.2,-0.15,right,38,2020-12-11_17h38.48.853,premup-three_ses-01_part-01_label-phase1,3.2.4,Win32,60,right,0.506000042,4,0,4,0,1,3,1,0,240,102,1,239,,,,,,,,,,,,,,,,,,
,,1,83,,,,,,,2,4,4,stim/44.jpeg,Instruments,1,stim/objects/Instruments/record_player2.png,0.7,4,0.2,-0.15,left,38,2020-12-11_17h38.48.853,premup-three_ses-01_part-01_label-phase1,3.2.4,Win32,60,left,0.754999876,4,0,4,0,1,3,1,0,240,135,1,239,,,,,,,,,,,,,,,,,,
,,1,84,,,,,,,1,1,1,stim/11.jpeg,Instruments,1,stim/objects/Instruments/panflute.png,0.5,1,-0.2,0.15,left,38,2020-12-11_17h38.48.853,premup-three_ses-01_part-01_label-phase1,3.2.4,Win32,60,left,1.013000011,4,0,4,0,1,3,1,0,240,12,1,239,,,,,,,,,,,,,,,,,,
,,1,85,,,,,,,3,5,1,stim/51.jpeg,HouseObjects,2,stim/objects/HouseObjects/safetypin2.png,0.9,2,0.2,0.15,right,38,2020-12-11_17h38.48.853,premup-three_ses-01_part-01_label-phase1,3.2.4,Win32,60,right,0.621000051,4,0,4,0,1,3,1,0,240,164,1,239,,,,,,,,,,,,,,,,,,
,,1,86,,,,,,,3,6,1,stim/61.jpeg,Instruments,1,stim/objects/Instruments/triangle2.png,0.9,4,0.2,-0.15,left,38,2020-12-11_17h38.48.853,premup-three_ses-01_part-01_label-phase1,3.2.4,Win32,60,left,0.399000168,4,0,4,0,1,3,1,0,240,220,1,239,,,,,,,,,,,,,,,,,,
,,1,87,,,,,,,2,4,1,stim/41.jpeg,Instruments,1,stim/objects/Instruments/panflute2.png,0.7,2,0.2,0.15,left,38,2020-12-11_17h38.48.853,premup-three_ses-01_part-01_label-phase1,3.2.4,Win32,60,left,0.736999989,4,0,4,0,1,3,1,0,240,120,1,239,,,,,,,,,,,,,,,,,,
,,1,88,,,,,,,1,2,4,stim/24.jpeg,Instruments,1,stim/objects/Instruments/timbal.png,0.5,3,-0.2,-0.15,left,38,2020-12-11_17h38.48.853,premup-three_ses-01_part-01_label-phase1,3.2.4,Win32,60,left,0.907999992,4,0,4,0,1,3,1,0,240,47,1,239,,,,,,,,,,,,,,,,,,
,,0,89,,,,,,,2,4,1,stim/41.jpeg,HouseObjects,2,stim/objects/HouseObjects/recyclingbin2.png,0.3,4,0.2,-0.15,right,38,2020-12-11_17h38.48.853,premup-three_ses-01_part-01_label-phase1,3.2.4,Win32,60,left,0.655999899,4,0,4,0,1,3,1,0,240,148,1,239,,,,,,,,,,,,,,,,,,
,,1,90,,,,,,,3,6,1,stim/61.jpeg,Instruments,1,stim/objects/Instruments/triangle2.png,0.9,4,0.2,-0.15,left,38,2020-12-11_17h38.48.853,premup-three_ses-01_part-01_label-phase1,3.2.4,Win32,60,left,0.501999855,4,0,4,0,1,3,1,0,240,228,1,239,,,,,,,,,,,,,,,,,,
,,1,91,,,,,,,3,6,3,stim/63.jpeg,Instruments,1,stim/objects/Instruments/trumpet2.png,0.9,2,0.2,0.15,left,38,2020-12-11_17h38.48.853,premup-three_ses-01_part-01_label-phase1,3.2.4,Win32,60,left,0.51699996,4,0,4,0,1,3,1,0,240,214,1,239,,,,,,,,,,,,,,,,,,
,,0,92,,,,,,,2,4,2,stim/42.jpeg,HouseObjects,2,stim/objects/HouseObjects/remote2.png,0.3,2,0.2,0.15,right,38,2020-12-11_17h38.48.853,premup-three_ses-01_part-01_label-phase1,3.2.4,Win32,60,left,0.767999887,4,0,4,0,1,3,1,0,240,153,1,239,,,,,,,,,,,,,,,,,,
,,1,93,,,,,,,1,1,4,stim/14.jpeg,Instruments,1,stim/objects/Instruments/record_player.png,0.5,4,0.2,-0.15,left,38,2020-12-11_17h38.48.853,premup-three_ses-01_part-01_label-phase1,3.2.4,Win32,60,left,0.996999979,4,0,4,0,1,3,1,0,240,11,1,239,,,,,,,,,,,,,,,,,,
,,0,94,,,,,,,2,4,1,stim/41.jpeg,Instruments,1,stim/objects/Instruments/panflute2.png,0.7,2,0.2,0.15,left,38,2020-12-11_17h38.48.853,premup-three_ses-01_part-01_label-phase1,3.2.4,Win32,60,right,1.810000181,4,0,4,0,1,3,1,0,240,128,1,239,,,,,,,,,,,,,,,,,,
,,1,95,,,,,,,3,5,4,stim/54.jpeg,HouseObjects,2,stim/objects/HouseObjects/sponge2.png,0.9,1,-0.2,0.15,right,38,2020-12-11_17h38.48.853,premup-three_ses-01_part-01_label-phase1,3.2.4,Win32,60,right,0.674000025,4,0,4,0,1,3,1,0,240,167,1,239,,,,,,,,,,,,,,,,,,
,,1,96,,,,,,,2,3,4,stim/34.jpeg,HouseObjects,2,stim/objects/HouseObjects/thread.png,0.7,4,0.2,-0.15,right,38,2020-12-11_17h38.48.853,premup-three_ses-01_part-01_label-phase1,3.2.4,Win32,60,right,0.616000175,4,0,4,0,1,3,1,0,240,115,1,239,,,,,,,,,,,,,,,,,,
,,1,97,,,,,,,3,5,4,stim/54.jpeg,HouseObjects,2,stim/objects/HouseObjects/sponge2.png,0.9,1,-0.2,0.15,right,38,2020-12-11_17h38.48.853,premup-three_ses-01_part-01_label-phase1,3.2.4,Win32,60,right,0.529000044,4,0,4,0,1,3,1,0,240,183,1,239,,,,,,,,,,,,,,,,,,
,,1,98,,,,,,,1,2,2,stim/22.jpeg,Instruments,1,stim/objects/Instruments/speaker.png,0.5,1,-0.2,0.15,left,38,2020-12-11_17h38.48.853,premup-three_ses-01_part-01_label-phase1,3.2.4,Win32,60,left,1.552000046,4,0,4,0,1,3,1,0,240,57,1,239,,,,,,,,,,,,,,,,,,
,,1,99,,,,,,,3,6,3,stim/63.jpeg,Instruments,1,stim/objects/Instruments/trumpet2.png,0.9,3,-0.2,-0.15,left,38,2020-12-11_17h38.48.853,premup-three_ses-01_part-01_label-phase1,3.2.4,Win32,60,left,0.486000061,4,0,4,0,1,3,1,0,240,230,1,239,,,,,,,,,,,,,,,,,,
,,1,100,,,,,,,3,5,2,stim/52.jpeg,HouseObjects,2,stim/objects/HouseObjects/saw2.png,0.9,1,-0.2,0.15,right,38,2020-12-11_17h38.48.853,premup-three_ses-01_part-01_label-phase1,3.2.4,Win32,60,right,0.595000029,4,0,4,0,1,3,1,0,240,177,1,239,,,,,,,,,,,,,,,,,,
,,0,101,,,,,,,3,5,3,stim/53.jpeg,Instruments,1,stim/objects/Instruments/tambourine2.png,0.1,4,0.2,-0.15,left,38,2020-12-11_17h38.48.853,premup-three_ses-01_part-01_label-phase1,3.2.4,Win32,60,right,0.628999949,4,0,4,0,1,3,1,0,240,162,1,239,,,,,,,,,,,,,,,,,,
,,1,102,,,,,,,3,6,2,stim/62.jpeg,Instruments,1,stim/objects/Instruments/trombone2.png,0.9,1,-0.2,0.15,left,38,2020-12-11_17h38.48.853,premup-three_ses-01_part-01_label-phase1,3.2.4,Win32,60,left,0.530999899,4,0,4,0,1,3,1,0,240,201,1,239,,,,,,,,,,,,,,,,,,
,,0,103,,,,,,,1,1,2,stim/12.jpeg,HouseObjects,2,stim/objects/HouseObjects/remote.png,0.5,1,-0.2,0.15,right,38,2020-12-11_17h38.48.853,premup-three_ses-01_part-01_label-phase1,3.2.4,Win32,60,left,0.825999975,4,0,4,0,1,3,1,0,240,29,1,239,,,,,,,,,,,,,,,,,,
,,1,104,,,,,,,3,5,3,stim/53.jpeg,HouseObjects,2,stim/objects/HouseObjects/scale2.png,0.9,3,-0.2,-0.15,right,38,2020-12-11_17h38.48.853,premup-three_ses-01_part-01_label-phase1,3.2.4,Win32,60,right,0.56400013,4,0,4,0,1,3,1,0,240,170,1,239,,,,,,,,,,,,,,,,,,
,,1,105,,,,,,,1,2,2,stim/22.jpeg,Instruments,1,stim/objects/Instruments/speaker.png,0.5,3,-0.2,-0.15,left,38,2020-12-11_17h38.48.853,premup-three_ses-01_part-01_label-phase1,3.2.4,Win32,60,left,0.805999994,4,0,4,0,1,3,1,0,240,53,1,239,,,,,,,,,,,,,,,,,,
,,0,106,,,,,,,1,1,2,stim/12.jpeg,Instruments,1,stim/objects/Instruments/pipepiano.png,0.5,3,-0.2,-0.15,left,38,2020-12-11_17h38.48.853,premup-three_ses-01_part-01_label-phase1,3.2.4,Win32,60,right,0.476999998,4,0,4,0,1,3,1,0,240,9,1,239,,,,,,,,,,,,,,,,,,
,,1,107,,,,,,,2,4,1,stim/41.jpeg,Instruments,1,stim/objects/Instruments/panflute2.png,0.7,1,-0.2,0.15,left,38,2020-12-11_17h38.48.853,premup-three_ses-01_part-01_label-phase1,3.2.4,Win32,60,left,0.899999857,4,0,4,0,1,3,1,0,240,124,1,239,,,,,,,,,,,,,,,,,,
,,0,108,,,,,,,2,4,1,stim/41.jpeg,HouseObjects,2,stim/objects/HouseObjects/recyclingbin2.png,0.3,4,0.2,-0.15,right,38,2020-12-11_17h38.48.853,premup-three_ses-01_part-01_label-phase1,3.2.4,Win32,60,left,0.475000143,4,0,4,0,1,3,1,0,240,156,1,239,,,,,,,,,,,,,,,,,,
,,1,109,,,,,,,2,3,2,stim/32.jpeg,HouseObjects,2,stim/objects/HouseObjects/teapot.png,0.7,1,-0.2,0.15,right,38,2020-12-11_17h38.48.853,premup-three_ses-01_part-01_label-phase1,3.2.4,Win32,60,right,0.697000027,4,0,4,0,1,3,1,0,240,117,1,239,,,,,,,,,,,,,,,,,,
,,0,110,,,,,,,3,6,4,stim/64.jpeg,HouseObjects,2,stim/objects/HouseObjects/thread2.png,0.1,4,0.2,-0.15,right,38,2020-12-11_17h38.48.853,premup-three_ses-01_part-01_label-phase1,3.2.4,Win32,60,left,0.620000124,4,0,4,0,1,3,1,0,240,239,1,239,,,,,,,,,,,,,,,,,,
,,0,111,,,,,,,1,2,4,stim/24.jpeg,HouseObjects,2,stim/objects/HouseObjects/sponge.png,0.5,1,-0.2,0.15,right,38,2020-12-11_17h38.48.853,premup-three_ses-01_part-01_label-phase1,3.2.4,Win32,60,left,1.692000151,4,0,4,0,1,3,1,0,240,75,1,239,,,,,,,,,,,,,,,,,,
,,1,112,,,,,,,1,1,1,stim/11.jpeg,Instruments,1,stim/objects/Instruments/panflute.png,0.5,2,0.2,0.15,left,38,2020-12-11_17h38.48.853,premup-three_ses-01_part-01_label-phase1,3.2.4,Win32,60,left,1.149999857,4,0,4,0,1,3,1,0,240,8,1,239,,,,,,,,,,,,,,,,,,
,,1,113,,,,,,,2,4,2,stim/42.jpeg,Instruments,1,stim/objects/Instruments/pipepiano2.png,0.7,4,0.2,-0.15,left,38,2020-12-11_17h38.48.853,premup-three_ses-01_part-01_label-phase1,3.2.4,Win32,60,left,0.922999859,4,0,4,0,1,3,1,0,240,145,1,239,,,,,,,,,,,,,,,,,,
,,0,114,,,,,,,2,4,4,stim/44.jpeg,Instruments,1,stim/objects/Instruments/record_player2.png,0.7,1,-0.2,0.15,left,38,2020-12-11_17h38.48.853,premup-three_ses-01_part-01_label-phase1,3.2.4,Win32,60,right,0.78399992,4,0,4,0,1,3,1,0,240,127,1,239,,,,,,,,,,,,,,,,,,
,,1,115,,,,,,,2,4,2,stim/42.jpeg,Instruments,1,stim/objects/Instruments/pipepiano2.png,0.7,1,-0.2,0.15,left,38,2020-12-11_17h38.48.853,premup-three_ses-01_part-01_label-phase1,3.2.4,Win32,60,left,0.82799983,4,0,4,0,1,3,1,0,240,129,1,239,,,,,,,,,,,,,,,,,,
,,0,116,,,,,,,2,3,3,stim/33.jpeg,Instruments,1,stim/objects/Instruments/trumpet.png,0.3,4,0.2,-0.15,left,38,2020-12-11_17h38.48.853,premup-three_ses-01_part-01_label-phase1,3.2.4,Win32,60,right,0.826999903,4,0,4,0,1,3,1,0,240,90,1,239,,,,,,,,,,,,,,,,,,
,,0,117,,,,,,,1,2,3,stim/23.jpeg,HouseObjects,2,stim/objects/HouseObjects/scale.png,0.5,2,0.2,0.15,right,38,2020-12-11_17h38.48.853,premup-three_ses-01_part-01_label-phase1,3.2.4,Win32,60,left,0.664000034,4,0,4,0,1,3,1,0,240,74,1,239,,,,,,,,,,,,,,,,,,
,,1,118,,,,,,,1,2,3,stim/23.jpeg,Instruments,1,stim/objects/Instruments/tambourine.png,0.5,4,0.2,-0.15,left,38,2020-12-11_17h38.48.853,premup-three_ses-01_part-01_label-phase1,3.2.4,Win32,60,left,0.549999952,4,0,4,0,1,3,1,0,240,50,1,239,,,,,,,,,,,,,,,,,,
,,1,119,,,,,,,1,2,3,stim/23.jpeg,Instruments,1,stim/objects/Instruments/tambourine.png,0.5,4,0.2,-0.15,left,38,2020-12-11_17h38.48.853,premup-three_ses-01_part-01_label-phase1,3.2.4,Win32,60,left,0.492000103,4,0,4,0,1,3,1,0,240,54,1,239,,,,,,,,,,,,,,,,,,
,,1,120,,,,,,,1,2,1,stim/21.jpeg,Instruments,1,stim/objects/Instruments/saxophone.png,0.5,4,0.2,-0.15,left,38,2020-12-11_17h38.48.853,premup-three_ses-01_part-01_label-phase1,3.2.4,Win32,60,left,0.59100008,4,0,4,0,1,3,1,0,240,56,1,239,,,,,,,,,,,,,,,,,,
,,1,121,,,,,,,1,1,4,stim/14.jpeg,Instruments,1,stim/objects/Instruments/record_player.png,0.5,1,-0.2,0.15,left,38,2020-12-11_17h38.48.853,premup-three_ses-01_part-01_label-phase1,3.2.4,Win32,60,left,0.853000164,4,0,4,0,1,3,1,0,240,19,1,239,,,,,,,,,,,,,,,,,,
,,1,122,,,,,,,1,1,3,stim/13.jpeg,Instruments,1,stim/objects/Instruments/record.png,0.5,1,-0.2,0.15,left,38,2020-12-11_17h38.48.853,premup-three_ses-01_part-01_label-phase1,3.2.4,Win32,60,left,0.406000137,4,0,4,0,1,3,1,0,240,18,1,239,,,,,,,,,,,,,,,,,,
,,0,123,,,,,,,2,3,4,stim/34.jpeg,Instruments,1,stim/objects/Instruments/tuba.png,0.3,3,-0.2,-0.15,left,38,2020-12-11_17h38.48.853,premup-three_ses-01_part-01_label-phase1,3.2.4,Win32,60,right,0.453000069,4,0,4,0,1,3,1,0,240,83,1,239,,,,,,,,,,,,,,,,,,
,,1,124,,,,,,,1,1,1,stim/11.jpeg,HouseObjects,2,stim/objects/HouseObjects/recyclingbin.png,0.5,2,0.2,0.15,right,38,2020-12-11_17h38.48.853,premup-three_ses-01_part-01_label-phase1,3.2.4,Win32,60,right,0.559000015,4,0,4,0,1,3,1,0,240,28,1,239,,,,,,,,,,,,,,,,,,
,,0,125,,,,,,,1,2,3,stim/23.jpeg,HouseObjects,2,stim/objects/HouseObjects/scale.png,0.5,3,-0.2,-0.15,right,38,2020-12-11_17h38.48.853,premup-three_ses-01_part-01_label-phase1,3.2.4,Win32,60,left,0.499000072,4,0,4,0,1,3,1,0,240,62,1,239,,,,,,,,,,,,,,,,,,
,,1,126,,,,,,,3,5,3,stim/53.jpeg,HouseObjects,2,stim/objects/HouseObjects/scale2.png,0.9,1,-0.2,0.15,right,38,2020-12-11_17h38.48.853,premup-three_ses-01_part-01_label-phase1,3.2.4,Win32,60,right,0.546999931,4,0,4,0,1,3,1,0,240,182,1,239,,,,,,,,,,,,,,,,,,
,,1,127,,,,,,,3,6,1,stim/61.jpeg,Instruments,1,stim/objects/Instruments/triangle2.png,0.9,2,0.2,0.15,left,38,2020-12-11_17h38.48.853,premup-three_ses-01_part-01_label-phase1,3.2.4,Win32,60,left,0.531999826,4,0,4,0,1,3,1,0,240,208,1,239,,,,,,,,,,,,,,,,,,
,,0,128,,,,,,,1,1,2,stim/12.jpeg,HouseObjects,2,stim/objects/HouseObjects/remote.png,0.5,2,0.2,0.15,right,38,2020-12-11_17h38.48.853,premup-three_ses-01_part-01_label-phase1,3.2.4,Win32,60,left,1.072999954,4,0,4,0,1,3,1,0,240,33,1,239,,,,,,,,,,,,,,,,,,
,,0,129,,,,,,,3,5,2,stim/52.jpeg,Instruments,1,stim/objects/Instruments/speaker2.png,0.1,3,-0.2,-0.15,left,38,2020-12-11_17h38.48.853,premup-three_ses-01_part-01_label-phase1,3.2.4,Win32,60,right,0.80099988,4,0,4,0,1,3,1,0,240,161,1,239,,,,,,,,,,,,,,,,,,
,,1,130,,,,,,,3,6,4,stim/64.jpeg,Instruments,1,stim/objects/Instruments/tuba2.png,0.9,3,-0.2,-0.15,left,38,2020-12-11_17h38.48.853,premup-three_ses-01_part-01_label-phase1,3.2.4,Win32,60,left,0.567000151,4,0,4,0,1,3,1,0,240,227,1,239,,,,,,,,,,,,,,,,,,
,,0,131,,,,,,,1,1,3,stim/13.jpeg,Instruments,1,stim/objects/Instruments/record.png,0.5,3,-0.2,-0.15,left,38,2020-12-11_17h38.48.853,premup-three_ses-01_part-01_label-phase1,3.2.4,Win32,60,right,0.829999924,4,0,4,0,1,3,1,0,240,10,1,239,,,,,,,,,,,,,,,,,,
,,1,132,,,,,,,2,4,1,stim/41.jpeg,Instruments,1,stim/objects/Instruments/panflute2.png,0.7,2,0.2,0.15,left,38,2020-12-11_17h38.48.853,premup-three_ses-01_part-01_label-phase1,3.2.4,Win32,60,left,1.891000032,4,0,4,0,1,3,1,0,240,140,1,239,,,,,,,,,,,,,,,,,,
,,0,133,,,,,,,1,2,4,stim/24.jpeg,HouseObjects,2,stim/objects/HouseObjects/sponge.png,0.5,2,0.2,0.15,right,38,2020-12-11_17h38.48.853,premup-three_ses-01_part-01_label-phase1,3.2.4,Win32,60,left,0.611000061,4,0,4,0,1,3,1,0,240,71,1,239,,,,,,,,,,,,,,,,,,
,,1,134,,,,,,,2,4,4,stim/44.jpeg,HouseObjects,2,stim/objects/HouseObjects/rug2.png,0.3,2,0.2,0.15,right,38,2020-12-11_17h38.48.853,premup-three_ses-01_part-01_label-phase1,3.2.4,Win32,60,right,0.49000001,4,0,4,0,1,3,1,0,240,155,1,239,,,,,,,,,,,,,,,,,,
