id_acc,key_resp_id.keys,key_resp_id.rt,key_resp_conf.keys,key_resp_conf.rt,assoc_acc,key_resp_assoc.keys,key_resp_assoc.rt,loc_acc,key_resp_loc.keys,key_resp_loc.rt,task_innerloop.thisRepN,task_innerloop.thisTrialN,task_innerloop.thisN,task_innerloop.thisIndex,task_innerloop.ran,task_innerloop.order,context_type,object_cat,PE_level,OvsN,obj_file,scn_file,corr_scn_cat,assoc_file,corr_scn_inst,corr_loc,participant,date,expName,psychopyVersion,OS,frameRate
1,right,4.701000214,,,0,,,0,,,1,0,200,146,1,199,0,1,0,2,stim/objects/Instruments/maraca.png,,0,stim/0.png,0,0,38,2020-12-12_10h43.33.483,premup-three_ses-02_part-03_label-phase3,3.2.4,Win32,60
1,left,2.180000067,,,0,,,0,,,1,0,200,165,1,199,0,1,0,2,stim/objects/Instruments/accordion2.png,,0,stim/0.png,0,0,38,2020-12-12_10h43.33.483,premup-three_ses-02_part-03_label-phase3,3.2.4,Win32,60
1,right,1.213999987,,,0,,,0,,,1,0,200,136,1,199,0,2,0,2,stim/objects/HouseObjects/dustpan.png,,0,stim/0.png,0,0,38,2020-12-12_10h43.33.483,premup-three_ses-02_part-03_label-phase3,3.2.4,Win32,60
1,left,1.305999994,,,0,,,0,,,1,0,200,179,1,199,0,2,0,2,stim/objects/HouseObjects/bleachbottle2.png,,0,stim/0.png,0,0,38,2020-12-12_10h43.33.483,premup-three_ses-02_part-03_label-phase3,3.2.4,Win32,60
1,left,1.138999939,3,3.676000118,0,3,9.796999931,0,4,13.97399998,1,0,200,86,1,199,3,1,0.9,1,stim/objects/Instruments/oboe4.png,stim/63.jpeg,6,stim/6.png,3,1,38,2020-12-12_10h43.33.483,premup-three_ses-02_part-03_label-phase3,3.2.4,Win32,60
1,left,4.529999971,,,0,,,0,,,1,0,200,126,1,199,0,1,0,2,stim/objects/Instruments/flutetrans.png,,0,stim/0.png,0,0,38,2020-12-12_10h43.33.483,premup-three_ses-02_part-03_label-phase3,3.2.4,Win32,60
1,right,2.093000174,,,0,,,0,,,1,0,200,148,1,199,0,1,0,2,stim/objects/Instruments/metronome.png,,0,stim/0.png,0,0,38,2020-12-12_10h43.33.483,premup-three_ses-02_part-03_label-phase3,3.2.4,Win32,60
1,left,0.756000042,3,2.130000114,0,4,4.901000023,0,4,4.272000074,1,0,200,8,1,199,1,1,0.5,1,stim/objects/HouseObjects/handvacuum3.png,stim/11.jpeg,1,stim/1.png,1,4,38,2020-12-12_10h43.33.483,premup-three_ses-02_part-03_label-phase3,3.2.4,Win32,60
1,right,6.601999998,2,2.368000031,0,4,6.611000061,0,4,12.49099994,1,0,200,58,1,199,2,2,0.3,1,stim/objects/HouseObjects/cushion4.png,stim/42.jpeg,4,stim/4.png,2,2,38,2020-12-12_10h43.33.483,premup-three_ses-02_part-03_label-phase3,3.2.4,Win32,60
1,right,2.621999979,,,0,,,0,,,1,0,200,182,1,199,0,1,0,2,stim/objects/Instruments/chime2.png,,0,stim/0.png,0,0,38,2020-12-12_10h43.33.483,premup-three_ses-02_part-03_label-phase3,3.2.4,Win32,60
1,left,0.813000202,,,0,,,0,,,1,0,200,145,1,199,0,1,0,2,stim/objects/Instruments/laud.png,,0,stim/0.png,0,0,38,2020-12-12_10h43.33.483,premup-three_ses-02_part-03_label-phase3,3.2.4,Win32,60
1,left,0.954999924,,,0,,,0,,,1,0,200,106,1,199,0,1,0,2,stim/objects/Instruments/cello.png,,0,stim/0.png,0,0,38,2020-12-12_10h43.33.483,premup-three_ses-02_part-03_label-phase3,3.2.4,Win32,60
1,left,0.911999941,,,0,,,0,,,1,0,200,172,1,199,0,2,0,2,stim/objects/HouseObjects/towel.png,,0,stim/0.png,0,0,38,2020-12-12_10h43.33.483,premup-three_ses-02_part-03_label-phase3,3.2.4,Win32,60
1,left,1.686000109,,,0,,,0,,,1,0,200,150,1,199,0,2,0,2,stim/objects/HouseObjects/glassmop.png,,0,stim/0.png,0,0,38,2020-12-12_10h43.33.483,premup-three_ses-02_part-03_label-phase3,3.2.4,Win32,60
1,right,1.046000004,3,3.792000055,0,2,7.16899991,0,3,2.608999968,1,0,200,6,1,199,1,1,0.5,1,stim/objects/HouseObjects/hairdryer3.png,stim/13.jpeg,1,stim/1.png,3,1,38,2020-12-12_10h43.33.483,premup-three_ses-02_part-03_label-phase3,3.2.4,Win32,60
1,left,1.609999895,4,1.720000029,0,1,3.249000072,0,2,11.49099994,1,0,200,18,1,199,1,2,0.5,1,stim/objects/HouseObjects/lintroller3.png,stim/23.jpeg,2,stim/2.png,3,3,38,2020-12-12_10h43.33.483,premup-three_ses-02_part-03_label-phase3,3.2.4,Win32,60
1,right,2.611999989,,,0,,,0,,,1,0,200,137,1,199,0,2,0,2,stim/objects/HouseObjects/flyswatter.png,,0,stim/0.png,0,0,38,2020-12-12_10h43.33.483,premup-three_ses-02_part-03_label-phase3,3.2.4,Win32,60
1,left,0.951999903,4,1.542000055,0,3,2.493999958,0,2,4.323999882,1,0,200,27,1,199,2,1,0.3,1,stim/objects/Instruments/balalaika4.png,stim/34.jpeg,3,stim/3.png,4,2,38,2020-12-12_10h43.33.483,premup-three_ses-02_part-03_label-phase3,3.2.4,Win32,60
1,left,2.976999998,,,0,,,0,,,1,0,200,123,1,199,0,1,0,2,stim/objects/Instruments/electricdrumset.png,,0,stim/0.png,0,0,38,2020-12-12_10h43.33.483,premup-three_ses-02_part-03_label-phase3,3.2.4,Win32,60
1,left,1.433999777,3,1.565999985,0,4,7.988999844,0,2,16.60100007,1,0,200,99,1,199,3,2,0.1,1,stim/objects/HouseObjects/wateringcan4.png,stim/64.jpeg,6,stim/6.png,4,2,38,2020-12-12_10h43.33.483,premup-three_ses-02_part-03_label-phase3,3.2.4,Win32,60
1,left,2.657999992,2,2.118999958,0,1,2.994999886,0,3,6.541999817,1,0,200,81,1,199,3,1,0.9,1,stim/objects/Instruments/maraca4.png,stim/62.jpeg,6,stim/6.png,2,4,38,2020-12-12_10h43.33.483,premup-three_ses-02_part-03_label-phase3,3.2.4,Win32,60
1,left,2.068000078,,,0,,,0,,,1,0,200,109,1,199,0,1,0,2,stim/objects/Instruments/cornet.png,,0,stim/0.png,0,0,38,2020-12-12_10h43.33.483,premup-three_ses-02_part-03_label-phase3,3.2.4,Win32,60
1,left,1.673999786,,,0,,,0,,,1,0,200,144,1,199,0,1,0,2,stim/objects/Instruments/keyboard.png,,0,stim/0.png,0,0,38,2020-12-12_10h43.33.483,premup-three_ses-02_part-03_label-phase3,3.2.4,Win32,60
1,right,1.89199996,2,1.025000095,0,3,3.213999987,0,3,3.117999792,1,0,200,98,1,199,3,2,0.1,1,stim/objects/HouseObjects/vacuumcleaner4.png,stim/63.jpeg,6,stim/6.png,3,4,38,2020-12-12_10h43.33.483,premup-three_ses-02_part-03_label-phase3,3.2.4,Win32,60
1,right,2.032000065,,,0,,,0,,,1,0,200,100,1,199,0,1,0,2,stim/objects/Instruments/accordion.png,,0,stim/0.png,0,0,38,2020-12-12_10h43.33.483,premup-three_ses-02_part-03_label-phase3,3.2.4,Win32,60
1,left,0.799999952,,,0,,,0,,,1,0,200,121,1,199,0,1,0,2,stim/objects/Instruments/doublebass.png,,0,stim/0.png,0,0,38,2020-12-12_10h43.33.483,premup-three_ses-02_part-03_label-phase3,3.2.4,Win32,60
1,right,2.644000053,,,0,,,0,,,1,0,200,177,1,199,0,2,0,2,stim/objects/HouseObjects/barbecuelighter2.png,,0,stim/0.png,0,0,38,2020-12-12_10h43.33.483,premup-three_ses-02_part-03_label-phase3,3.2.4,Win32,60
1,left,0.840999842,3,1.396000147,0,2,9.273000002,0,1,9.76699996,1,0,200,4,1,199,1,1,0.5,1,stim/objects/Instruments/keyboard3.png,stim/13.jpeg,1,stim/1.png,3,2,38,2020-12-12_10h43.33.483,premup-three_ses-02_part-03_label-phase3,3.2.4,Win32,60
1,left,1.346999884,4,1.11500001,0,4,3.268000126,0,2,2.065999985,1,0,200,39,1,199,2,2,0.7,1,stim/objects/HouseObjects/bleachbottle4.png,stim/33.jpeg,3,stim/3.png,3,2,38,2020-12-12_10h43.33.483,premup-three_ses-02_part-03_label-phase3,3.2.4,Win32,60
1,left,2.256000042,4,0.910000086,0,1,3.026000023,0,4,1.611999989,1,0,200,36,1,199,2,2,0.7,1,stim/objects/HouseObjects/ballofstring4.png,stim/34.jpeg,3,stim/3.png,4,4,38,2020-12-12_10h43.33.483,premup-three_ses-02_part-03_label-phase3,3.2.4,Win32,60
1,right,1.471999884,4,1.388999939,0,3,3.980000019,0,3,1.190000057,1,0,200,12,1,199,1,2,0.5,1,stim/objects/Instruments/marimba3.png,stim/23.jpeg,2,stim/2.png,3,2,38,2020-12-12_10h43.33.483,premup-three_ses-02_part-03_label-phase3,3.2.4,Win32,60
1,left,2.015000105,,,0,,,0,,,1,0,200,142,1,199,0,1,0,2,stim/objects/Instruments/harp.png,,0,stim/0.png,0,0,38,2020-12-12_10h43.33.483,premup-three_ses-02_part-03_label-phase3,3.2.4,Win32,60
1,left,2.440999985,,,0,,,0,,,1,0,200,113,1,199,0,2,0,2,stim/objects/HouseObjects/basket.png,,0,stim/0.png,0,0,38,2020-12-12_10h43.33.483,premup-three_ses-02_part-03_label-phase3,3.2.4,Win32,60
1,left,1.062000036,,,0,,,0,,,1,0,200,131,1,199,0,2,0,2,stim/objects/HouseObjects/clothespin.png,,0,stim/0.png,0,0,38,2020-12-12_10h43.33.483,premup-three_ses-02_part-03_label-phase3,3.2.4,Win32,60
1,right,1.226999998,2,1.407999992,0,3,6.571000099,0,4,0.914999962,1,0,200,56,1,199,2,2,0.3,1,stim/objects/HouseObjects/clothespin4.png,stim/44.jpeg,4,stim/4.png,4,4,38,2020-12-12_10h43.33.483,premup-three_ses-02_part-03_label-phase3,3.2.4,Win32,60
1,left,2.963000059,,,0,,,0,,,1,0,200,188,1,199,0,1,0,2,stim/objects/Instruments/electricdrumset2.png,,0,stim/0.png,0,0,38,2020-12-12_10h43.33.483,premup-three_ses-02_part-03_label-phase3,3.2.4,Win32,60
1,right,1.021000147,,,0,,,0,,,1,0,200,199,1,199,0,2,0,2,stim/objects/HouseObjects/dishsoap2.png,,0,stim/0.png,0,0,38,2020-12-12_10h43.33.483,premup-three_ses-02_part-03_label-phase3,3.2.4,Win32,60
1,right,1.193000078,,,0,,,0,,,1,0,200,134,1,199,0,2,0,2,stim/objects/HouseObjects/dishsoap.png,,0,stim/0.png,0,0,38,2020-12-12_10h43.33.483,premup-three_ses-02_part-03_label-phase3,3.2.4,Win32,60
1,left,0.848999977,4,1.164999962,0,4,3.472000122,0,3,7.677999973,1,0,200,16,1,199,1,2,0.5,1,stim/objects/HouseObjects/key3.png,stim/21.jpeg,2,stim/2.png,1,4,38,2020-12-12_10h43.33.483,premup-three_ses-02_part-03_label-phase3,3.2.4,Win32,60
1,right,1.485000134,4,1.062999964,0,1,3.846999884,0,3,3.536999941,1,0,200,72,1,199,3,2,0.9,1,stim/objects/HouseObjects/flyswatter4.png,stim/51.jpeg,5,stim/5.png,1,1,38,2020-12-12_10h43.33.483,premup-three_ses-02_part-03_label-phase3,3.2.4,Win32,60
1,left,1.203999996,4,0.773999929,0,4,3.28399992,0,2,2.069000006,1,0,200,31,1,199,2,2,0.7,1,stim/objects/HouseObjects/pitcher3.png,stim/33.jpeg,3,stim/3.png,3,2,38,2020-12-12_10h43.33.483,premup-three_ses-02_part-03_label-phase3,3.2.4,Win32,60
1,right,0.936000109,3,1.520999908,0,3,1.608999968,0,4,3.934999943,1,0,200,38,1,199,2,2,0.7,1,stim/objects/HouseObjects/basket4.png,stim/32.jpeg,3,stim/3.png,2,2,38,2020-12-12_10h43.33.483,premup-three_ses-02_part-03_label-phase3,3.2.4,Win32,60
1,right,1.351999998,,,0,,,0,,,1,0,200,195,1,199,0,2,0,2,stim/objects/HouseObjects/clothesdryingrack2.png,,0,stim/0.png,0,0,38,2020-12-12_10h43.33.483,premup-three_ses-02_part-03_label-phase3,3.2.4,Win32,60
1,right,1.286000013,,,0,,,0,,,1,0,200,105,1,199,0,1,0,2,stim/objects/Instruments/bassguitar.png,,0,stim/0.png,0,0,38,2020-12-12_10h43.33.483,premup-three_ses-02_part-03_label-phase3,3.2.4,Win32,60
1,right,1.898999929,,,0,,,0,,,1,0,200,175,1,199,0,2,0,2,stim/objects/HouseObjects/ashtray2.png,,0,stim/0.png,0,0,38,2020-12-12_10h43.33.483,premup-three_ses-02_part-03_label-phase3,3.2.4,Win32,60
1,right,1.246000051,,,0,,,0,,,1,0,200,162,1,199,0,1,0,2,stim/objects/Instruments/violin.png,,0,stim/0.png,0,0,38,2020-12-12_10h43.33.483,premup-three_ses-02_part-03_label-phase3,3.2.4,Win32,60
1,left,0.862999916,2,2.055000067,0,3,2.782000065,0,2,0.758000135,1,0,200,55,1,199,2,2,0.3,1,stim/objects/HouseObjects/clothesdryingrack4.png,stim/43.jpeg,4,stim/4.png,3,2,38,2020-12-12_10h43.33.483,premup-three_ses-02_part-03_label-phase3,3.2.4,Win32,60
1,right,1.886000156,2,1.513999939,0,4,2.207999945,0,3,1.552999973,1,0,200,22,1,199,2,1,0.3,1,stim/objects/Instruments/violin3.png,stim/33.jpeg,3,stim/3.png,3,1,38,2020-12-12_10h43.33.483,premup-three_ses-02_part-03_label-phase3,3.2.4,Win32,60
1,left,3.410000086,3,1.273999929,0,2,2.884000063,0,2,4.608999968,1,0,200,40,1,199,2,1,0.7,1,stim/objects/Instruments/bassguitar4.png,stim/44.jpeg,4,stim/4.png,4,1,38,2020-12-12_10h43.33.483,premup-three_ses-02_part-03_label-phase3,3.2.4,Win32,60
1,left,1.299000025,4,0.704999924,0,3,2.469000101,0,2,0.855999947,1,0,200,44,1,199,2,1,0.7,1,stim/objects/Instruments/cornet4.png,stim/44.jpeg,4,stim/4.png,4,4,38,2020-12-12_10h43.33.483,premup-three_ses-02_part-03_label-phase3,3.2.4,Win32,60
1,left,1.491999865,,,0,,,0,,,1,0,200,167,1,199,0,1,0,2,stim/objects/Instruments/balalaika2.png,,0,stim/0.png,0,0,38,2020-12-12_10h43.33.483,premup-three_ses-02_part-03_label-phase3,3.2.4,Win32,60
1,left,1.207999945,4,0.75,0,1,3.143999815,0,3,0.769999981,1,0,200,3,1,199,1,1,0.5,1,stim/objects/Instruments/hihat3.png,stim/12.jpeg,1,stim/1.png,2,3,38,2020-12-12_10h43.33.483,premup-three_ses-02_part-03_label-phase3,3.2.4,Win32,60
1,right,1.578999996,,,0,,,0,,,1,0,200,128,1,199,0,1,0,2,stim/objects/Instruments/gong.png,,0,stim/0.png,0,0,38,2020-12-12_10h43.33.483,premup-three_ses-02_part-03_label-phase3,3.2.4,Win32,60
1,left,0.86500001,4,0.728999853,0,2,3.512000084,0,2,1.026000023,1,0,200,1,1,199,1,1,0.5,1,stim/objects/Instruments/harmonica3.png,stim/14.jpeg,1,stim/1.png,4,3,38,2020-12-12_10h43.33.483,premup-three_ses-02_part-03_label-phase3,3.2.4,Win32,60
1,left,3.729000092,4,1.855999947,0,2,4.78399992,0,2,3.16899991,1,0,200,65,1,199,3,1,0.1,1,stim/objects/Instruments/guitarcase4.png,stim/52.jpeg,5,stim/5.png,2,2,38,2020-12-12_10h43.33.483,premup-three_ses-02_part-03_label-phase3,3.2.4,Win32,60
1,right,4.501999855,,,0,,,0,,,1,0,200,164,1,199,0,1,0,2,stim/objects/Instruments/xylophone.png,,0,stim/0.png,0,0,38,2020-12-12_10h43.33.483,premup-three_ses-02_part-03_label-phase3,3.2.4,Win32,60
1,right,1.623000145,,,0,,,0,,,1,0,200,103,1,199,0,1,0,2,stim/objects/Instruments/banjo.png,,0,stim/0.png,0,0,38,2020-12-12_10h43.33.483,premup-three_ses-02_part-03_label-phase3,3.2.4,Win32,60
1,left,0.821000099,3,2.048000097,0,3,2.296999931,0,4,2.138000011,1,0,200,69,1,199,3,1,0.1,1,stim/objects/Instruments/keyboard4.png,stim/52.jpeg,5,stim/5.png,2,4,38,2020-12-12_10h43.33.483,premup-three_ses-02_part-03_label-phase3,3.2.4,Win32,60
1,right,4.836999893,4,2.612999916,0,4,1.575999975,0,4,1.364999771,1,0,200,24,1,199,2,1,0.3,1,stim/objects/Instruments/xylophone3.png,stim/31.jpeg,3,stim/3.png,1,3,38,2020-12-12_10h43.33.483,premup-three_ses-02_part-03_label-phase3,3.2.4,Win32,60
1,right,1.804999828,,,0,,,0,,,1,0,200,133,1,199,0,2,0,2,stim/objects/HouseObjects/cushion.png,,0,stim/0.png,0,0,38,2020-12-12_10h43.33.483,premup-three_ses-02_part-03_label-phase3,3.2.4,Win32,60
1,right,1.090000153,,,0,,,0,,,1,0,200,170,1,199,0,2,0,2,stim/objects/HouseObjects/pan.png,,0,stim/0.png,0,0,38,2020-12-12_10h43.33.483,premup-three_ses-02_part-03_label-phase3,3.2.4,Win32,60
1,right,1.025000095,,,0,,,0,,,1,0,200,101,1,199,0,1,0,2,stim/objects/Instruments/acousticguitar.png,,0,stim/0.png,0,0,38,2020-12-12_10h43.33.483,premup-three_ses-02_part-03_label-phase3,3.2.4,Win32,60
1,right,0.934000015,,,0,,,0,,,1,0,200,198,1,199,0,2,0,2,stim/objects/HouseObjects/cushion2.png,,0,stim/0.png,0,0,38,2020-12-12_10h43.33.483,premup-three_ses-02_part-03_label-phase3,3.2.4,Win32,60
1,right,5.970000029,,,0,,,0,,,1,0,200,187,1,199,0,1,0,2,stim/objects/Instruments/drums2.png,,0,stim/0.png,0,0,38,2020-12-12_10h43.33.483,premup-three_ses-02_part-03_label-phase3,3.2.4,Win32,60
1,right,1.02699995,,,0,,,0,,,1,0,200,130,1,199,0,2,0,2,stim/objects/HouseObjects/clothesdryingrack.png,,0,stim/0.png,0,0,38,2020-12-12_10h43.33.483,premup-three_ses-02_part-03_label-phase3,3.2.4,Win32,60
1,right,1.106999874,3,1.319999933,0,4,9.059000015,0,2,3.717999935,1,0,200,66,1,199,3,1,0.1,1,stim/objects/Instruments/harmonica4.png,stim/53.jpeg,5,stim/5.png,3,3,38,2020-12-12_10h43.33.483,premup-three_ses-02_part-03_label-phase3,3.2.4,Win32,60
1,right,1.457000017,4,1.562000036,0,2,1.180999994,0,3,1.993000031,1,0,200,54,1,199,2,2,0.3,1,stim/objects/HouseObjects/clock4.png,stim/42.jpeg,4,stim/4.png,2,2,38,2020-12-12_10h43.33.483,premup-three_ses-02_part-03_label-phase3,3.2.4,Win32,60
1,left,1.687999964,4,2.325999975,0,2,2.657000065,0,2,0.628999949,1,0,200,21,1,199,2,1,0.3,1,stim/objects/Instruments/oboe3.png,stim/32.jpeg,3,stim/3.png,2,4,38,2020-12-12_10h43.33.483,premup-three_ses-02_part-03_label-phase3,3.2.4,Win32,60
1,right,1.483999968,,,0,,,0,,,1,0,200,154,1,199,0,2,0,2,stim/objects/HouseObjects/iron.png,,0,stim/0.png,0,0,38,2020-12-12_10h43.33.483,premup-three_ses-02_part-03_label-phase3,3.2.4,Win32,60
1,right,1.094000101,2,1.459000111,0,2,3.111000061,0,3,2.077000141,1,0,200,53,1,199,2,2,0.3,1,stim/objects/HouseObjects/bucket4.png,stim/41.jpeg,4,stim/4.png,1,1,38,2020-12-12_10h43.33.483,premup-three_ses-02_part-03_label-phase3,3.2.4,Win32,60
1,left,1.68900013,3,1.973999977,0,2,4.130000114,0,1,2.181999922,1,0,200,96,1,199,3,2,0.1,1,stim/objects/HouseObjects/pitcher4.png,stim/61.jpeg,6,stim/6.png,1,4,38,2020-12-12_10h43.33.483,premup-three_ses-02_part-03_label-phase3,3.2.4,Win32,60
1,left,2.78399992,,,0,,,0,,,1,0,200,183,1,199,0,1,0,2,stim/objects/Instruments/clarinet2.png,,0,stim/0.png,0,0,38,2020-12-12_10h43.33.483,premup-three_ses-02_part-03_label-phase3,3.2.4,Win32,60
1,left,0.782999992,4,0.777999878,0,4,6.088000059,0,3,3.197000027,1,0,200,80,1,199,3,1,0.9,1,stim/objects/Instruments/laud4.png,stim/61.jpeg,6,stim/6.png,1,2,38,2020-12-12_10h43.33.483,premup-three_ses-02_part-03_label-phase3,3.2.4,Win32,60
1,right,3.499000072,,,0,,,0,,,1,0,200,139,1,199,0,2,0,2,stim/objects/HouseObjects/glass.png,,0,stim/0.png,0,0,38,2020-12-12_10h43.33.483,premup-three_ses-02_part-03_label-phase3,3.2.4,Win32,60
1,right,1.009000063,,,0,,,0,,,1,0,200,120,1,199,0,1,0,2,stim/objects/Instruments/cymbal.png,,0,stim/0.png,0,0,38,2020-12-12_10h43.33.483,premup-three_ses-02_part-03_label-phase3,3.2.4,Win32,60
1,left,0.865999937,3,1.09100008,0,3,2.768999815,0,2,3.228999853,1,0,200,5,1,199,1,1,0.5,1,stim/objects/HouseObjects/glassmop3.png,stim/12.jpeg,1,stim/1.png,2,4,38,2020-12-12_10h43.33.483,premup-three_ses-02_part-03_label-phase3,3.2.4,Win32,60
1,right,1.476999998,,,0,,,0,,,1,0,200,143,1,199,0,1,0,2,stim/objects/Instruments/hihat.png,,0,stim/0.png,0,0,38,2020-12-12_10h43.33.483,premup-three_ses-02_part-03_label-phase3,3.2.4,Win32,60
1,right,1.292000055,2,0.996999979,0,1,3.769000053,0,3,1.756999969,1,0,200,34,1,199,2,2,0.7,1,stim/objects/HouseObjects/wateringcan3.png,stim/32.jpeg,3,stim/3.png,2,3,38,2020-12-12_10h43.33.483,premup-three_ses-02_part-03_label-phase3,3.2.4,Win32,60
1,right,1.893999815,,,0,,,0,,,1,0,200,138,1,199,0,2,0,2,stim/objects/HouseObjects/garbagebin.png,,0,stim/0.png,0,0,38,2020-12-12_10h43.33.483,premup-three_ses-02_part-03_label-phase3,3.2.4,Win32,60
1,right,1.522000074,,,0,,,0,,,1,0,200,107,1,199,0,1,0,2,stim/objects/Instruments/chime.png,,0,stim/0.png,0,0,38,2020-12-12_10h43.33.483,premup-three_ses-02_part-03_label-phase3,3.2.4,Win32,60
1,right,1.00999999,,,0,,,0,,,1,0,200,114,1,199,0,2,0,2,stim/objects/HouseObjects/bleachbottle.png,,0,stim/0.png,0,0,38,2020-12-12_10h43.33.483,premup-three_ses-02_part-03_label-phase3,3.2.4,Win32,60
1,left,1.066999912,3,4.881999969,0,1,4.864000082,0,3,1.207000017,1,0,200,41,1,199,2,1,0.7,1,stim/objects/Instruments/cello4.png,stim/41.jpeg,4,stim/4.png,1,1,38,2020-12-12_10h43.33.483,premup-three_ses-02_part-03_label-phase3,3.2.4,Win32,60
1,right,1.19299984,,,0,,,0,,,1,0,200,153,1,199,0,2,0,2,stim/objects/HouseObjects/handvacuum.png,,0,stim/0.png,0,0,38,2020-12-12_10h43.33.483,premup-three_ses-02_part-03_label-phase3,3.2.4,Win32,60
1,left,2.015000105,3,1.388999939,0,3,2.111999989,0,3,0.586999893,1,0,200,20,1,199,2,1,0.3,1,stim/objects/Instruments/musicstand3.png,stim/31.jpeg,3,stim/3.png,1,2,38,2020-12-12_10h43.33.483,premup-three_ses-02_part-03_label-phase3,3.2.4,Win32,60
1,left,0.852999926,,,0,,,0,,,1,0,200,127,1,199,0,1,0,2,stim/objects/Instruments/frenchhorn.png,,0,stim/0.png,0,0,38,2020-12-12_10h43.33.483,premup-three_ses-02_part-03_label-phase3,3.2.4,Win32,60
1,right,1.121999979,3,6.496999979,0,4,2.171000004,0,3,1.751000166,1,0,200,79,1,199,3,2,0.9,1,stim/objects/HouseObjects/iron4.png,stim/54.jpeg,5,stim/5.png,4,2,38,2020-12-12_10h43.33.483,premup-three_ses-02_part-03_label-phase3,3.2.4,Win32,60
1,left,2.417000055,,,0,,,0,,,1,0,200,115,1,199,0,2,0,2,stim/objects/HouseObjects/blender.png,,0,stim/0.png,0,0,38,2020-12-12_10h43.33.483,premup-three_ses-02_part-03_label-phase3,3.2.4,Win32,60
1,left,1.008000135,3,1.493000031,0,2,2.026000023,0,3,0.252000093,1,0,200,51,1,199,2,2,0.3,1,stim/objects/HouseObjects/bottle4.png,stim/43.jpeg,4,stim/4.png,3,3,38,2020-12-12_10h43.33.483,premup-three_ses-02_part-03_label-phase3,3.2.4,Win32,60
1,left,6.872999907,2,1.600999832,0,1,1.595000029,0,2,4.093999863,1,0,200,29,1,199,2,1,0.3,1,stim/objects/Instruments/bassdrum4.png,stim/32.jpeg,3,stim/3.png,2,3,38,2020-12-12_10h43.33.483,premup-three_ses-02_part-03_label-phase3,3.2.4,Win32,60
1,left,1.648000002,4,1.29399991,0,4,3.067000151,0,2,1.08100009,1,0,200,84,1,199,3,1,0.9,1,stim/objects/Instruments/musicsheet4.png,stim/61.jpeg,6,stim/6.png,1,1,38,2020-12-12_10h43.33.483,premup-three_ses-02_part-03_label-phase3,3.2.4,Win32,60
1,left,1.519000053,4,1.063999891,0,2,4.809999943,0,4,0.637000084,1,0,200,74,1,199,3,2,0.9,1,stim/objects/HouseObjects/glass4.png,stim/53.jpeg,5,stim/5.png,3,4,38,2020-12-12_10h43.33.483,premup-three_ses-02_part-03_label-phase3,3.2.4,Win32,60
1,right,1.423000097,4,0.830999851,0,3,0.940999985,0,4,0.639999866,1,0,200,85,1,199,3,1,0.9,1,stim/objects/Instruments/musicstand4.png,stim/62.jpeg,6,stim/6.png,2,2,38,2020-12-12_10h43.33.483,premup-three_ses-02_part-03_label-phase3,3.2.4,Win32,60
1,left,2.284000158,4,0.930999994,0,1,4.509000063,0,4,0.282000065,1,0,200,63,1,199,3,1,0.1,1,stim/objects/Instruments/gong4.png,stim/54.jpeg,5,stim/5.png,4,2,38,2020-12-12_10h43.33.483,premup-three_ses-02_part-03_label-phase3,3.2.4,Win32,60
1,right,3.096999884,3,1.263999939,0,2,1.207999945,0,3,1.154000044,1,0,200,0,1,199,1,1,0.5,1,stim/objects/Instruments/guitarcase3.png,stim/13.jpeg,1,stim/1.png,3,1,38,2020-12-12_10h43.33.483,premup-three_ses-02_part-03_label-phase3,3.2.4,Win32,60
1,left,1.146000147,4,0.597999811,0,4,4.25,0,2,1.77699995,1,0,200,90,1,199,3,2,0.1,1,stim/objects/HouseObjects/ironingboard4.png,stim/63.jpeg,6,stim/6.png,3,4,38,2020-12-12_10h43.33.483,premup-three_ses-02_part-03_label-phase3,3.2.4,Win32,60
1,left,1.667000055,3,1.139000177,0,1,1.814999819,0,3,1.11500001,1,0,200,68,1,199,3,1,0.1,1,stim/objects/Instruments/hihat4.png,stim/51.jpeg,5,stim/5.png,1,2,38,2020-12-12_10h43.33.483,premup-three_ses-02_part-03_label-phase3,3.2.4,Win32,60
1,right,2.970999956,2,1.214999914,0,2,2.775000095,0,2,1.473999977,1,0,200,59,1,199,2,2,0.3,1,stim/objects/HouseObjects/dishsoap4.png,stim/43.jpeg,4,stim/4.png,3,1,38,2020-12-12_10h43.33.483,premup-three_ses-02_part-03_label-phase3,3.2.4,Win32,60
1,right,2.611000061,2,3.157999992,0,3,1.572999954,0,4,1.061000109,1,0,200,67,1,199,3,1,0.1,1,stim/objects/Instruments/harp4.png,stim/54.jpeg,5,stim/5.png,4,2,38,2020-12-12_10h43.33.483,premup-three_ses-02_part-03_label-phase3,3.2.4,Win32,60
1,left,1.417999983,4,1.125,0,3,7.471999884,0,3,0.999000072,1,0,200,92,1,199,3,2,0.1,1,stim/objects/HouseObjects/knife4.png,stim/61.jpeg,6,stim/6.png,1,3,38,2020-12-12_10h43.33.483,premup-three_ses-02_part-03_label-phase3,3.2.4,Win32,60
1,left,3.044000149,3,0.361999989,0,2,1.225999832,0,3,6.997999907,1,0,200,95,1,199,3,2,0.1,1,stim/objects/HouseObjects/pan4.png,stim/64.jpeg,6,stim/6.png,4,2,38,2020-12-12_10h43.33.483,premup-three_ses-02_part-03_label-phase3,3.2.4,Win32,60
1,right,1.971999884,,,0,,,0,,,1,0,200,119,1,199,0,2,0,2,stim/objects/HouseObjects/clock.png,,0,stim/0.png,0,0,38,2020-12-12_10h43.33.483,premup-three_ses-02_part-03_label-phase3,3.2.4,Win32,60
1,left,1.650000095,3,1.335999966,0,2,2.611000061,0,2,5.402999878,1,0,200,88,1,199,3,1,0.9,1,stim/objects/Instruments/vuvuzela4.png,stim/61.jpeg,6,stim/6.png,1,4,38,2020-12-12_10h43.33.483,premup-three_ses-02_part-03_label-phase3,3.2.4,Win32,60
1,right,1.440999985,3,1.799999952,0,3,0.727999926,0,2,2.929999828,1,0,200,97,1,199,3,2,0.1,1,stim/objects/HouseObjects/towel4.png,stim/62.jpeg,6,stim/6.png,2,2,38,2020-12-12_10h43.33.483,premup-three_ses-02_part-03_label-phase3,3.2.4,Win32,60
1,right,1.06799984,,,0,,,0,,,1,0,200,151,1,199,0,2,0,2,stim/objects/HouseObjects/hairdryer.png,,0,stim/0.png,0,0,38,2020-12-12_10h43.33.483,premup-three_ses-02_part-03_label-phase3,3.2.4,Win32,60
1,right,1.095000029,,,0,,,0,,,1,0,200,160,1,199,0,1,0,2,stim/objects/Instruments/musicstand.png,,0,stim/0.png,0,0,38,2020-12-12_10h43.33.483,premup-three_ses-02_part-03_label-phase3,3.2.4,Win32,60
1,left,0.934000015,3,1.202000141,0,4,16.42499995,0,3,1.878000021,1,0,200,87,1,199,3,1,0.9,1,stim/objects/Instruments/violin4.png,stim/64.jpeg,6,stim/6.png,4,3,38,2020-12-12_10h43.33.483,premup-three_ses-02_part-03_label-phase3,3.2.4,Win32,60
1,right,0.936000109,,,0,,,0,,,1,0,200,191,1,199,0,2,0,2,stim/objects/HouseObjects/bottle2.png,,0,stim/0.png,0,0,38,2020-12-12_10h43.33.483,premup-three_ses-02_part-03_label-phase3,3.2.4,Win32,60
1,left,0.937000036,4,1.676999807,0,4,2.79700017,0,4,1.957999945,1,0,200,89,1,199,3,1,0.9,1,stim/objects/Instruments/xylophone4.png,stim/62.jpeg,6,stim/6.png,2,4,38,2020-12-12_10h43.33.483,premup-three_ses-02_part-03_label-phase3,3.2.4,Win32,60
1,right,1.191999912,,,0,,,0,,,1,0,200,176,1,199,0,2,0,2,stim/objects/HouseObjects/ballofstring2.png,,0,stim/0.png,0,0,38,2020-12-12_10h43.33.483,premup-three_ses-02_part-03_label-phase3,3.2.4,Win32,60
1,left,1.088000059,,,0,,,0,,,1,0,200,102,1,199,0,1,0,2,stim/objects/Instruments/balalaika.png,,0,stim/0.png,0,0,38,2020-12-12_10h43.33.483,premup-three_ses-02_part-03_label-phase3,3.2.4,Win32,60
1,right,0.990999937,,,0,,,0,,,1,0,200,193,1,199,0,2,0,2,stim/objects/HouseObjects/bucket2.png,,0,stim/0.png,0,0,38,2020-12-12_10h43.33.483,premup-three_ses-02_part-03_label-phase3,3.2.4,Win32,60
1,left,1.248999834,4,1.457000017,0,3,3.234999895,0,3,3.557999849,1,0,200,73,1,199,3,2,0.9,1,stim/objects/HouseObjects/garbagebin4.png,stim/52.jpeg,5,stim/5.png,2,1,38,2020-12-12_10h43.33.483,premup-three_ses-02_part-03_label-phase3,3.2.4,Win32,60
1,right,1.214999914,,,0,,,0,,,1,0,200,117,1,199,0,2,0,2,stim/objects/HouseObjects/broom.png,,0,stim/0.png,0,0,38,2020-12-12_10h43.33.483,premup-three_ses-02_part-03_label-phase3,3.2.4,Win32,60
1,right,1.207000017,,,0,,,0,,,1,0,200,168,1,199,0,1,0,2,stim/objects/Instruments/banjo2.png,,0,stim/0.png,0,0,38,2020-12-12_10h43.33.483,premup-three_ses-02_part-03_label-phase3,3.2.4,Win32,60
1,right,1.376000166,,,0,,,0,,,1,0,200,158,1,199,0,2,0,2,stim/objects/HouseObjects/lintroller.png,,0,stim/0.png,0,0,38,2020-12-12_10h43.33.483,premup-three_ses-02_part-03_label-phase3,3.2.4,Win32,60
1,left,0.893999815,3,1.219000101,0,1,5.459000111,0,2,4.611000061,1,0,200,93,1,199,3,2,0.1,1,stim/objects/HouseObjects/lintroller4.png,stim/62.jpeg,6,stim/6.png,2,4,38,2020-12-12_10h43.33.483,premup-three_ses-02_part-03_label-phase3,3.2.4,Win32,60
1,left,1.250999928,3,1.420000076,0,4,4.610999823,0,3,0.995000124,1,0,200,28,1,199,2,1,0.3,1,stim/objects/Instruments/banjo4.png,stim/31.jpeg,3,stim/3.png,1,3,38,2020-12-12_10h43.33.483,premup-three_ses-02_part-03_label-phase3,3.2.4,Win32,60
1,left,1.215999842,3,1.18200016,0,2,6.019000053,0,3,0.664999962,1,0,200,48,1,199,2,1,0.7,1,stim/objects/Instruments/electricdrumset4.png,stim/44.jpeg,4,stim/4.png,4,3,38,2020-12-12_10h43.33.483,premup-three_ses-02_part-03_label-phase3,3.2.4,Win32,60
1,right,0.946000099,,,0,,,0,,,1,0,200,192,1,199,0,2,0,2,stim/objects/HouseObjects/broom2.png,,0,stim/0.png,0,0,38,2020-12-12_10h43.33.483,premup-three_ses-02_part-03_label-phase3,3.2.4,Win32,60
1,right,1.471999884,,,0,,,0,,,1,0,200,197,1,199,0,2,0,2,stim/objects/HouseObjects/coffee2.png,,0,stim/0.png,0,0,38,2020-12-12_10h43.33.483,premup-three_ses-02_part-03_label-phase3,3.2.4,Win32,60
1,right,1.024000168,,,0,,,0,,,1,0,200,129,1,199,0,1,0,2,stim/objects/Instruments/grandpiano.png,,0,stim/0.png,0,0,38,2020-12-12_10h43.33.483,premup-three_ses-02_part-03_label-phase3,3.2.4,Win32,60
1,left,1.386999846,3,1.600999832,0,2,1.771000147,0,3,3.799000025,1,0,200,13,1,199,1,2,0.5,1,stim/objects/Instruments/metronome3.png,stim/24.jpeg,2,stim/2.png,4,2,38,2020-12-12_10h43.33.483,premup-three_ses-02_part-03_label-phase3,3.2.4,Win32,60
1,right,1.743999958,,,0,,,0,,,1,0,200,140,1,199,0,1,0,2,stim/objects/Instruments/guitarcase.png,,0,stim/0.png,0,0,38,2020-12-12_10h43.33.483,premup-three_ses-02_part-03_label-phase3,3.2.4,Win32,60
1,left,0.655999899,,,0,,,0,,,1,0,200,184,1,199,0,1,0,2,stim/objects/Instruments/cornet2.png,,0,stim/0.png,0,0,38,2020-12-12_10h43.33.483,premup-three_ses-02_part-03_label-phase3,3.2.4,Win32,60
1,right,1.055999994,,,0,,,0,,,1,0,200,141,1,199,0,1,0,2,stim/objects/Instruments/harmonica.png,,0,stim/0.png,0,0,38,2020-12-12_10h43.33.483,premup-three_ses-02_part-03_label-phase3,3.2.4,Win32,60
1,right,1.006999969,,,0,,,0,,,1,0,200,185,1,199,0,1,0,2,stim/objects/Instruments/cymbal2.png,,0,stim/0.png,0,0,38,2020-12-12_10h43.33.483,premup-three_ses-02_part-03_label-phase3,3.2.4,Win32,60
1,right,0.957000017,,,0,,,0,,,1,0,200,135,1,199,0,2,0,2,stim/objects/HouseObjects/doormat.png,,0,stim/0.png,0,0,38,2020-12-12_10h43.33.483,premup-three_ses-02_part-03_label-phase3,3.2.4,Win32,60
1,left,1.127000093,4,1.45600009,0,3,3.448999882,0,1,6.586999893,1,0,200,82,1,199,3,1,0.9,1,stim/objects/Instruments/marimba4.png,stim/63.jpeg,6,stim/6.png,3,3,38,2020-12-12_10h43.33.483,premup-three_ses-02_part-03_label-phase3,3.2.4,Win32,60
1,right,2.056999922,,,0,,,0,,,1,0,200,147,1,199,0,1,0,2,stim/objects/Instruments/marimba.png,,0,stim/0.png,0,0,38,2020-12-12_10h43.33.483,premup-three_ses-02_part-03_label-phase3,3.2.4,Win32,60
1,left,1.123000145,4,1.235999823,0,1,2.326000214,0,4,2.651000023,1,0,200,77,1,199,3,2,0.9,1,stim/objects/HouseObjects/handbrush4.png,stim/52.jpeg,5,stim/5.png,2,1,38,2020-12-12_10h43.33.483,premup-three_ses-02_part-03_label-phase3,3.2.4,Win32,60
1,left,0.953999996,4,0.836999893,0,2,2.54700017,0,3,3.498000145,1,0,200,43,1,199,2,1,0.7,1,stim/objects/Instruments/clarinet4.png,stim/43.jpeg,4,stim/4.png,3,3,38,2020-12-12_10h43.33.483,premup-three_ses-02_part-03_label-phase3,3.2.4,Win32,60
1,left,1.011999846,4,0.819000006,0,4,2.952000141,0,4,3.674000025,1,0,200,23,1,199,2,1,0.3,1,stim/objects/Instruments/vuvuzela3.png,stim/34.jpeg,3,stim/3.png,4,4,38,2020-12-12_10h43.33.483,premup-three_ses-02_part-03_label-phase3,3.2.4,Win32,60
1,left,1.018999815,4,2.48300004,0,2,3.555000067,0,3,2.018000126,1,0,200,61,1,199,3,1,0.1,1,stim/objects/Instruments/flutetrans4.png,stim/52.jpeg,5,stim/5.png,2,4,38,2020-12-12_10h43.33.483,premup-three_ses-02_part-03_label-phase3,3.2.4,Win32,60
1,right,1.062999964,,,0,,,0,,,1,0,200,132,1,199,0,2,0,2,stim/objects/HouseObjects/coffee.png,,0,stim/0.png,0,0,38,2020-12-12_10h43.33.483,premup-three_ses-02_part-03_label-phase3,3.2.4,Win32,60
1,right,0.851000071,4,1.249000072,0,3,1.389999866,0,2,2.667000055,1,0,200,64,1,199,3,1,0.1,1,stim/objects/Instruments/grandpiano4.png,stim/51.jpeg,5,stim/5.png,1,4,38,2020-12-12_10h43.33.483,premup-three_ses-02_part-03_label-phase3,3.2.4,Win32,60
1,right,3.069000006,,,0,,,0,,,1,0,200,178,1,199,0,2,0,2,stim/objects/HouseObjects/basket2.png,,0,stim/0.png,0,0,38,2020-12-12_10h43.33.483,premup-three_ses-02_part-03_label-phase3,3.2.4,Win32,60
1,right,1.00999999,3,1.265000105,0,4,3.299999952,0,3,2.404000044,1,0,200,60,1,199,3,1,0.1,1,stim/objects/Instruments/flute4.png,stim/51.jpeg,5,stim/5.png,1,3,38,2020-12-12_10h43.33.483,premup-three_ses-02_part-03_label-phase3,3.2.4,Win32,60
1,right,2.180000067,,,0,,,0,,,1,0,200,125,1,199,0,1,0,2,stim/objects/Instruments/flute.png,,0,stim/0.png,0,0,38,2020-12-12_10h43.33.483,premup-three_ses-02_part-03_label-phase3,3.2.4,Win32,60
1,left,1.032999992,,,0,,,0,,,1,0,200,161,1,199,0,1,0,2,stim/objects/Instruments/oboe.png,,0,stim/0.png,0,0,38,2020-12-12_10h43.33.483,premup-three_ses-02_part-03_label-phase3,3.2.4,Win32,60
1,right,2.325000048,,,0,,,0,,,1,0,200,190,1,199,0,2,0,2,stim/objects/HouseObjects/blender2.png,,0,stim/0.png,0,0,38,2020-12-12_10h43.33.483,premup-three_ses-02_part-03_label-phase3,3.2.4,Win32,60
1,right,1.098999977,,,0,,,0,,,1,0,200,163,1,199,0,1,0,2,stim/objects/Instruments/vuvuzela.png,,0,stim/0.png,0,0,38,2020-12-12_10h43.33.483,premup-three_ses-02_part-03_label-phase3,3.2.4,Win32,60
1,right,0.941999912,,,0,,,0,,,1,0,200,108,1,199,0,1,0,2,stim/objects/Instruments/clarinet.png,,0,stim/0.png,0,0,38,2020-12-12_10h43.33.483,premup-three_ses-02_part-03_label-phase3,3.2.4,Win32,60
1,left,0.998999834,,,0,,,0,,,1,0,200,159,1,199,0,2,0,2,stim/objects/HouseObjects/match.png,,0,stim/0.png,0,0,38,2020-12-12_10h43.33.483,premup-three_ses-02_part-03_label-phase3,3.2.4,Win32,60
1,right,1.026000023,2,4.08100009,0,3,3.371999979,0,1,5.870999813,1,0,200,45,1,199,2,1,0.7,1,stim/objects/Instruments/cymbal4.png,stim/41.jpeg,4,stim/4.png,1,2,38,2020-12-12_10h43.33.483,premup-three_ses-02_part-03_label-phase3,3.2.4,Win32,60
1,left,2.717000008,4,2.07799983,0,3,2.941999912,0,3,1.59800005,1,0,200,10,1,199,1,2,0.5,1,stim/objects/Instruments/laud3.png,stim/21.jpeg,2,stim/2.png,1,1,38,2020-12-12_10h43.33.483,premup-three_ses-02_part-03_label-phase3,3.2.4,Win32,60
1,right,1.143000126,,,0,,,0,,,1,0,200,122,1,199,0,1,0,2,stim/objects/Instruments/drums.png,,0,stim/0.png,0,0,38,2020-12-12_10h43.33.483,premup-three_ses-02_part-03_label-phase3,3.2.4,Win32,60
1,left,0.878999949,4,0.585000038,0,2,2.25,0,3,1.490999937,1,0,200,35,1,199,2,2,0.7,1,stim/objects/HouseObjects/ashtray4.png,stim/33.jpeg,3,stim/3.png,3,1,38,2020-12-12_10h43.33.483,premup-three_ses-02_part-03_label-phase3,3.2.4,Win32,60
1,left,2.354000092,4,0.687999964,0,3,4.056999922,0,4,3.351999998,1,0,200,42,1,199,2,1,0.7,1,stim/objects/Instruments/chime4.png,stim/42.jpeg,4,stim/4.png,2,4,38,2020-12-12_10h43.33.483,premup-three_ses-02_part-03_label-phase3,3.2.4,Win32,60
1,left,1.619999886,4,1.057999849,0,3,6.227999926,0,3,1.454999924,1,0,200,70,1,199,3,2,0.9,1,stim/objects/HouseObjects/doormat4.png,stim/53.jpeg,5,stim/5.png,3,1,38,2020-12-12_10h43.33.483,premup-three_ses-02_part-03_label-phase3,3.2.4,Win32,60
1,right,0.843000174,,,0,,,0,,,1,0,200,194,1,199,0,2,0,2,stim/objects/HouseObjects/clock2.png,,0,stim/0.png,0,0,38,2020-12-12_10h43.33.483,premup-three_ses-02_part-03_label-phase3,3.2.4,Win32,60
1,left,1.89199996,3,3.701999903,0,4,1.769999981,0,3,1.002000093,1,0,200,32,1,199,2,2,0.7,1,stim/objects/HouseObjects/towel3.png,stim/34.jpeg,3,stim/3.png,4,2,38,2020-12-12_10h43.33.483,premup-three_ses-02_part-03_label-phase3,3.2.4,Win32,60
1,right,0.772000074,,,0,,,0,,,1,0,200,116,1,199,0,2,0,2,stim/objects/HouseObjects/bottle.png,,0,stim/0.png,0,0,38,2020-12-12_10h43.33.483,premup-three_ses-02_part-03_label-phase3,3.2.4,Win32,60
1,right,0.778000116,3,1.709000111,0,2,1.393000126,0,3,0.734999895,1,0,200,26,1,199,2,1,0.3,1,stim/objects/Instruments/acousticguitar4.png,stim/33.jpeg,3,stim/3.png,3,3,38,2020-12-12_10h43.33.483,premup-three_ses-02_part-03_label-phase3,3.2.4,Win32,60
1,left,2.562999964,4,1.236000061,0,2,2.895999908,0,3,1.608999968,1,0,200,47,1,199,2,1,0.7,1,stim/objects/Instruments/drums4.png,stim/43.jpeg,4,stim/4.png,3,4,38,2020-12-12_10h43.33.483,premup-three_ses-02_part-03_label-phase3,3.2.4,Win32,60
1,right,1.342000008,3,3.909000158,0,4,4.585999966,0,4,4.036999941,1,0,200,30,1,199,2,2,0.7,1,stim/objects/HouseObjects/pan3.png,stim/32.jpeg,3,stim/3.png,2,2,38,2020-12-12_10h43.33.483,premup-three_ses-02_part-03_label-phase3,3.2.4,Win32,60
1,right,1.055000067,3,1.983999968,0,3,1.008999825,0,2,2.45600009,1,0,200,49,1,199,2,1,0.7,1,stim/objects/Instruments/electricguitar4.png,stim/41.jpeg,4,stim/4.png,1,3,38,2020-12-12_10h43.33.483,premup-three_ses-02_part-03_label-phase3,3.2.4,Win32,60
1,right,2.137000084,,,0,,,0,,,1,0,200,118,1,199,0,2,0,2,stim/objects/HouseObjects/bucket.png,,0,stim/0.png,0,0,38,2020-12-12_10h43.33.483,premup-three_ses-02_part-03_label-phase3,3.2.4,Win32,60
1,left,2.589999914,2,1.371999979,0,4,2.372999907,0,3,1.804999828,1,0,200,15,1,199,1,2,0.5,1,stim/objects/HouseObjects/ironingboard3.png,stim/24.jpeg,2,stim/2.png,4,1,38,2020-12-12_10h43.33.483,premup-three_ses-02_part-03_label-phase3,3.2.4,Win32,60
1,right,1.284999847,3,6.713999987,0,2,1.654000044,0,4,1.429000139,1,0,200,71,1,199,3,2,0.9,1,stim/objects/HouseObjects/dustpan4.png,stim/54.jpeg,5,stim/5.png,4,2,38,2020-12-12_10h43.33.483,premup-three_ses-02_part-03_label-phase3,3.2.4,Win32,60
1,left,2.59100008,2,0.861000061,0,4,1.703000069,0,2,7.940999985,1,0,200,2,1,199,1,1,0.5,1,stim/objects/Instruments/harp3.png,stim/11.jpeg,1,stim/1.png,1,2,38,2020-12-12_10h43.33.483,premup-three_ses-02_part-03_label-phase3,3.2.4,Win32,60
1,right,1.161000013,4,1.167000055,0,2,1.171000004,0,3,0.782999992,1,0,200,94,1,199,3,2,0.1,1,stim/objects/HouseObjects/match4.png,stim/63.jpeg,6,stim/6.png,3,2,38,2020-12-12_10h43.33.483,premup-three_ses-02_part-03_label-phase3,3.2.4,Win32,60
1,right,3.121000051,,,0,,,0,,,1,0,200,169,1,199,0,1,0,2,stim/objects/Instruments/bassdrum2.png,,0,stim/0.png,0,0,38,2020-12-12_10h43.33.483,premup-three_ses-02_part-03_label-phase3,3.2.4,Win32,60
1,right,2.28399992,,,0,,,0,,,1,0,200,181,1,199,0,1,0,2,stim/objects/Instruments/cello2.png,,0,stim/0.png,0,0,38,2020-12-12_10h43.33.483,premup-three_ses-02_part-03_label-phase3,3.2.4,Win32,60
1,left,2.273999929,4,1.068000078,0,2,1.865999937,0,3,1.328000069,1,0,200,19,1,199,1,2,0.5,1,stim/objects/HouseObjects/match3.png,stim/24.jpeg,2,stim/2.png,4,3,38,2020-12-12_10h43.33.483,premup-three_ses-02_part-03_label-phase3,3.2.4,Win32,60
1,right,1.010999918,3,0.961000204,0,1,1.649999857,0,2,7.247999907,1,0,200,91,1,199,3,2,0.1,1,stim/objects/HouseObjects/key4.png,stim/64.jpeg,6,stim/6.png,4,4,38,2020-12-12_10h43.33.483,premup-three_ses-02_part-03_label-phase3,3.2.4,Win32,60
1,right,0.868999958,,,0,,,0,,,1,0,200,186,1,199,0,1,0,2,stim/objects/Instruments/doublebass2.png,,0,stim/0.png,0,0,38,2020-12-12_10h43.33.483,premup-three_ses-02_part-03_label-phase3,3.2.4,Win32,60
1,left,0.784999847,3,1.052999973,0,3,3.720000029,0,2,0.696000099,1,0,200,62,1,199,3,1,0.1,1,stim/objects/Instruments/frenchhorn4.png,stim/53.jpeg,5,stim/5.png,3,4,38,2020-12-12_10h43.33.483,premup-three_ses-02_part-03_label-phase3,3.2.4,Win32,60
1,right,3.355999947,2,0.910000086,0,2,1.079999924,0,2,3.356999874,1,0,200,14,1,199,1,2,0.5,1,stim/objects/Instruments/musicsheet3.png,stim/21.jpeg,2,stim/2.png,1,1,38,2020-12-12_10h43.33.483,premup-three_ses-02_part-03_label-phase3,3.2.4,Win32,60
1,right,3.493000031,2,1.336999893,0,3,1.757999897,0,3,2.256999969,1,0,200,17,1,199,1,2,0.5,1,stim/objects/HouseObjects/knife3.png,stim/22.jpeg,2,stim/2.png,2,2,38,2020-12-12_10h43.33.483,premup-three_ses-02_part-03_label-phase3,3.2.4,Win32,60
1,right,1.245000124,,,0,,,0,,,1,0,200,173,1,199,0,2,0,2,stim/objects/HouseObjects/vacuumcleaner.png,,0,stim/0.png,0,0,38,2020-12-12_10h43.33.483,premup-three_ses-02_part-03_label-phase3,3.2.4,Win32,60
1,right,1.00999999,,,0,,,0,,,1,0,200,152,1,199,0,2,0,2,stim/objects/HouseObjects/handbrush.png,,0,stim/0.png,0,0,38,2020-12-12_10h43.33.483,premup-three_ses-02_part-03_label-phase3,3.2.4,Win32,60
1,right,0.965000153,,,0,,,0,,,1,0,200,157,1,199,0,2,0,2,stim/objects/HouseObjects/knife.png,,0,stim/0.png,0,0,38,2020-12-12_10h43.33.483,premup-three_ses-02_part-03_label-phase3,3.2.4,Win32,60
1,right,3.56799984,1,2.5,0,4,4.304000139,0,4,2.882999897,1,0,200,78,1,199,3,2,0.9,1,stim/objects/HouseObjects/handvacuum4.png,stim/53.jpeg,5,stim/5.png,3,3,38,2020-12-12_10h43.33.483,premup-three_ses-02_part-03_label-phase3,3.2.4,Win32,60
1,right,3.110000134,2,1.055999994,0,2,1.875,0,3,3.394999981,1,0,200,83,1,199,3,1,0.9,1,stim/objects/Instruments/metronome4.png,stim/64.jpeg,6,stim/6.png,4,2,38,2020-12-12_10h43.33.483,premup-three_ses-02_part-03_label-phase3,3.2.4,Win32,60
1,right,0.965000153,2,0.846999884,0,3,2.877000093,0,3,1.033000231,1,0,200,52,1,199,2,2,0.3,1,stim/objects/HouseObjects/broom4.png,stim/44.jpeg,4,stim/4.png,4,2,38,2020-12-12_10h43.33.483,premup-three_ses-02_part-03_label-phase3,3.2.4,Win32,60
1,right,1.056999922,,,0,,,0,,,1,0,200,112,1,199,0,2,0,2,stim/objects/HouseObjects/barbecuelighter.png,,0,stim/0.png,0,0,38,2020-12-12_10h43.33.483,premup-three_ses-02_part-03_label-phase3,3.2.4,Win32,60
1,left,1.162000179,4,0.822000027,0,3,5.17200017,0,3,3.983999968,1,0,200,25,1,199,2,1,0.3,1,stim/objects/Instruments/accordion4.png,stim/32.jpeg,3,stim/3.png,2,4,38,2020-12-12_10h43.33.483,premup-three_ses-02_part-03_label-phase3,3.2.4,Win32,60
1,right,0.789999962,3,1.131999969,0,2,1.664000034,0,3,0.950000048,1,0,200,9,1,199,1,1,0.5,1,stim/objects/HouseObjects/iron3.png,stim/12.jpeg,1,stim/1.png,2,2,38,2020-12-12_10h43.33.483,premup-three_ses-02_part-03_label-phase3,3.2.4,Win32,60
1,right,1.194999933,,,0,,,0,,,1,0,200,196,1,199,0,2,0,2,stim/objects/HouseObjects/clothespin2.png,,0,stim/0.png,0,0,38,2020-12-12_10h43.33.483,premup-three_ses-02_part-03_label-phase3,3.2.4,Win32,60
1,right,0.677999973,,,0,,,0,,,1,0,200,111,1,199,0,2,0,2,stim/objects/HouseObjects/ballofstring.png,,0,stim/0.png,0,0,38,2020-12-12_10h43.33.483,premup-three_ses-02_part-03_label-phase3,3.2.4,Win32,60
1,right,0.762000084,,,0,,,0,,,1,0,200,156,1,199,0,2,0,2,stim/objects/HouseObjects/key.png,,0,stim/0.png,0,0,38,2020-12-12_10h43.33.483,premup-three_ses-02_part-03_label-phase3,3.2.4,Win32,60
1,right,0.680999994,3,1.493000031,0,3,1.093999863,0,3,0.912000179,1,0,200,37,1,199,2,2,0.7,1,stim/objects/HouseObjects/barbecuelighter4.png,stim/31.jpeg,3,stim/3.png,1,1,38,2020-12-12_10h43.33.483,premup-three_ses-02_part-03_label-phase3,3.2.4,Win32,60
1,left,2.214999914,3,1.169000149,0,2,1.81099987,0,4,3.487999916,1,0,200,75,1,199,3,2,0.9,1,stim/objects/HouseObjects/glassmop4.png,stim/54.jpeg,5,stim/5.png,4,3,38,2020-12-12_10h43.33.483,premup-three_ses-02_part-03_label-phase3,3.2.4,Win32,60
1,right,1.220000029,,,0,,,0,,,1,0,200,124,1,199,0,1,0,2,stim/objects/Instruments/electricguitar.png,,0,stim/0.png,0,0,38,2020-12-12_10h43.33.483,premup-three_ses-02_part-03_label-phase3,3.2.4,Win32,60
1,right,1.559000015,,,0,,,0,,,1,0,200,174,1,199,0,2,0,2,stim/objects/HouseObjects/wateringcan.png,,0,stim/0.png,0,0,38,2020-12-12_10h43.33.483,premup-three_ses-02_part-03_label-phase3,3.2.4,Win32,60
1,right,0.970999956,3,2.506999969,0,3,3.104000092,0,3,0.977999926,1,0,200,11,1,199,1,2,0.5,1,stim/objects/Instruments/maraca3.png,stim/22.jpeg,2,stim/2.png,2,3,38,2020-12-12_10h43.33.483,premup-three_ses-02_part-03_label-phase3,3.2.4,Win32,60
1,right,0.828000069,,,0,,,0,,,1,0,200,166,1,199,0,1,0,2,stim/objects/Instruments/acousticguitar2.png,,0,stim/0.png,0,0,38,2020-12-12_10h43.33.483,premup-three_ses-02_part-03_label-phase3,3.2.4,Win32,60
1,right,0.929000139,2,1.805000067,0,2,1.302999973,0,3,0.959000111,1,0,200,46,1,199,2,1,0.7,1,stim/objects/Instruments/doublebass4.png,stim/42.jpeg,4,stim/4.png,2,4,38,2020-12-12_10h43.33.483,premup-three_ses-02_part-03_label-phase3,3.2.4,Win32,60
1,right,0.667000055,2,1.101000071,0,3,1.338999987,0,2,2.304000139,1,0,200,33,1,199,2,2,0.7,1,stim/objects/HouseObjects/vacuumcleaner3.png,stim/31.jpeg,3,stim/3.png,1,3,38,2020-12-12_10h43.33.483,premup-three_ses-02_part-03_label-phase3,3.2.4,Win32,60
1,right,0.766000032,,,0,,,0,,,1,0,200,180,1,199,0,1,0,2,stim/objects/Instruments/bassguitar2.png,,0,stim/0.png,0,0,38,2020-12-12_10h43.33.483,premup-three_ses-02_part-03_label-phase3,3.2.4,Win32,60
1,right,0.967000008,,,0,,,0,,,1,0,200,110,1,199,0,2,0,2,stim/objects/HouseObjects/ashtray.png,,0,stim/0.png,0,0,38,2020-12-12_10h43.33.483,premup-three_ses-02_part-03_label-phase3,3.2.4,Win32,60
1,right,0.835999966,,,0,,,0,,,1,0,200,149,1,199,0,1,0,2,stim/objects/Instruments/musicsheet.png,,0,stim/0.png,0,0,38,2020-12-12_10h43.33.483,premup-three_ses-02_part-03_label-phase3,3.2.4,Win32,60
1,right,1.267999887,2,1.291000128,0,3,1.879999876,0,1,3.727999926,1,0,200,50,1,199,2,2,0.3,1,stim/objects/HouseObjects/blender4.png,stim/42.jpeg,4,stim/4.png,2,2,38,2020-12-12_10h43.33.483,premup-three_ses-02_part-03_label-phase3,3.2.4,Win32,60
1,right,1.670000076,2,2.218000174,0,2,1.700000048,0,4,2.430999994,1,0,200,76,1,199,3,2,0.9,1,stim/objects/HouseObjects/hairdryer4.png,stim/51.jpeg,5,stim/5.png,1,4,38,2020-12-12_10h43.33.483,premup-three_ses-02_part-03_label-phase3,3.2.4,Win32,60
1,right,7.174000025,,,0,,,0,,,1,0,200,155,1,199,0,2,0,2,stim/objects/HouseObjects/ironingboard.png,,0,stim/0.png,0,0,38,2020-12-12_10h43.33.483,premup-three_ses-02_part-03_label-phase3,3.2.4,Win32,60
1,right,0.853999853,3,1.186999798,0,3,1.01699996,0,3,0.927999973,1,0,200,7,1,199,1,1,0.5,1,stim/objects/HouseObjects/handbrush3.png,stim/14.jpeg,1,stim/1.png,4,2,38,2020-12-12_10h43.33.483,premup-three_ses-02_part-03_label-phase3,3.2.4,Win32,60
1,right,1.563999891,,,0,,,0,,,1,0,200,104,1,199,0,1,0,2,stim/objects/Instruments/bassdrum.png,,0,stim/0.png,0,0,38,2020-12-12_10h43.33.483,premup-three_ses-02_part-03_label-phase3,3.2.4,Win32,60
1,right,1.105999947,3,1.17200017,0,2,0.763000011,0,4,2.205999851,1,0,200,57,1,199,2,2,0.3,1,stim/objects/HouseObjects/coffee4.png,stim/41.jpeg,4,stim/4.png,1,3,38,2020-12-12_10h43.33.483,premup-three_ses-02_part-03_label-phase3,3.2.4,Win32,60
1,right,0.703000069,,,0,,,0,,,1,0,200,171,1,199,0,2,0,2,stim/objects/HouseObjects/pitcher.png,,0,stim/0.png,0,0,38,2020-12-12_10h43.33.483,premup-three_ses-02_part-03_label-phase3,3.2.4,Win32,60
1,right,0.774999857,,,0,,,0,,,1,0,200,189,1,199,0,1,0,2,stim/objects/Instruments/electricguitar2.png,,0,stim/0.png,0,0,38,2020-12-12_10h43.33.483,premup-three_ses-02_part-03_label-phase3,3.2.4,Win32,60
