key_resp_pract.keys,key_resp_pract.rt,trial_acc,trial_index,practice_loop.thisRepN,practice_loop.thisTrialN,practice_loop.thisN,practice_loop.thisIndex,practice_loop.ran,practice_loop.order,scn_condition,scn_cat,scn_inst,scn_file,obj_cat,obj_cat_num,obj_file,trial_cond,quadrant,obj_x,obj_y,corr_ans,participant,date,expName,psychopyVersion,OS,frameRate,key_resp_trial.keys,key_resp_trial.rt,iterations.thisRepN,iterations.thisTrialN,iterations.thisN,iterations.thisIndex,iterations.ran,iterations.order,task_innerloop.thisRepN,task_innerloop.thisTrialN,task_innerloop.thisN,task_innerloop.thisIndex,task_innerloop.ran,task_innerloop.order,iteration_index,rating_acc,slider.response,slider.rt,slider_2.response,slider_2.rt,ratings.thisRepN,ratings.thisTrialN,ratings.thisN,ratings.thisIndex,ratings.ran,ratings.order,obj_cat_top,min_resp_top,max_resp_top,obj_cat_bottom,min_resp_bottom,max_resp_bottom
left,1.062000036,0,1,1,0,240,104,1,239,2,5,1,stim/51.jpeg,Instruments,2,stim/objects/Instruments/tuba.png,0.7,2,0.2,0.15,right,39,2020-12-13_15h36.22.372,premup-three_ses-01_part-01_label-phase1,3.2.4,MacIntel,60,,,,,,,,,,,,,,,,,,,,,,,,,,,,,,,,
left,0.690000057,1,2,1,0,240,205,1,239,3,2,2,stim/22.jpeg,HouseObjects,1,stim/objects/HouseObjects/towel2.png,0.9,4,0.2,-0.15,left,39,2020-12-13_15h36.22.372,premup-three_ses-01_part-01_label-phase1,3.2.4,MacIntel,60,,,,,,,,,,,,,,,,,,,,,,,,,,,,,,,,
right,0.729000092,1,3,1,0,240,168,1,239,3,1,1,stim/11.jpeg,Instruments,2,stim/objects/Instruments/timbal2.png,0.9,2,0.2,0.15,right,39,2020-12-13_15h36.22.372,premup-three_ses-01_part-01_label-phase1,3.2.4,MacIntel,60,,,,,,,,,,,,,,,,,,,,,,,,,,,,,,,,
right,1.187000036,0,4,1,0,240,214,1,239,3,2,3,stim/23.jpeg,HouseObjects,1,stim/objects/HouseObjects/vacuumcleaner2.png,0.9,1,-0.2,0.15,left,39,2020-12-13_15h36.22.372,premup-three_ses-01_part-01_label-phase1,3.2.4,MacIntel,60,,,,,,,,,,,,,,,,,,,,,,,,,,,,,,,,
right,0.595000029,1,5,1,0,240,187,1,239,3,1,4,stim/14.jpeg,Instruments,2,stim/objects/Instruments/trumpet2.png,0.9,4,0.2,-0.15,right,39,2020-12-13_15h36.22.372,premup-three_ses-01_part-01_label-phase1,3.2.4,MacIntel,60,,,,,,,,,,,,,,,,,,,,,,,,,,,,,,,,
left,0.962000132,0,6,1,0,240,188,1,239,3,1,1,stim/11.jpeg,Instruments,2,stim/objects/Instruments/timbal2.png,0.9,1,-0.2,0.15,right,39,2020-12-13_15h36.22.372,premup-three_ses-01_part-01_label-phase1,3.2.4,MacIntel,60,,,,,,,,,,,,,,,,,,,,,,,,,,,,,,,,
right,1.151000023,0,7,1,0,240,226,1,239,3,2,3,stim/23.jpeg,HouseObjects,1,stim/objects/HouseObjects/vacuumcleaner2.png,0.9,4,0.2,-0.15,left,39,2020-12-13_15h36.22.372,premup-three_ses-01_part-01_label-phase1,3.2.4,MacIntel,60,,,,,,,,,,,,,,,,,,,,,,,,,,,,,,,,
left,0.93900013,0,8,1,0,240,151,1,239,2,6,4,stim/64.jpeg,Instruments,2,stim/objects/Instruments/tambourine2.png,0.3,3,-0.2,-0.15,right,39,2020-12-13_15h36.22.372,premup-three_ses-01_part-01_label-phase1,3.2.4,MacIntel,60,,,,,,,,,,,,,,,,,,,,,,,,,,,,,,,,
left,1.002000093,0,9,1,0,240,177,1,239,3,1,2,stim/12.jpeg,Instruments,2,stim/objects/Instruments/triangle2.png,0.9,3,-0.2,-0.15,right,39,2020-12-13_15h36.22.372,premup-three_ses-01_part-01_label-phase1,3.2.4,MacIntel,60,,,,,,,,,,,,,,,,,,,,,,,,,,,,,,,,
left,1.170000076,0,10,1,0,240,238,1,239,3,2,3,stim/23.jpeg,Instruments,2,stim/objects/Instruments/vuvuzela2.png,0.1,2,0.2,0.15,right,39,2020-12-13_15h36.22.372,premup-three_ses-01_part-01_label-phase1,3.2.4,MacIntel,60,,,,,,,,,,,,,,,,,,,,,,,,,,,,,,,,
,,0,1,,,,,,,3,2,2,stim/22.jpeg,HouseObjects,1,stim/objects/HouseObjects/towel2.png,0.9,2,0.2,0.15,left,39,2020-12-13_15h36.22.372,premup-three_ses-01_part-01_label-phase1,3.2.4,MacIntel,60,,,4,0,4,0,1,3,1,0,240,233,1,239,,,,,,,,,,,,,,,,,,
,,0,2,,,,,,,3,2,2,stim/22.jpeg,Instruments,2,stim/objects/Instruments/violin2.png,0.1,4,0.2,-0.15,right,39,2020-12-13_15h36.22.372,premup-three_ses-01_part-01_label-phase1,3.2.4,MacIntel,60,left,0.539000034,4,0,4,0,1,3,1,0,240,237,1,239,,,,,,,,,,,,,,,,,,
,,0,3,,,,,,,3,2,2,stim/22.jpeg,HouseObjects,1,stim/objects/HouseObjects/towel2.png,0.9,4,0.2,-0.15,left,39,2020-12-13_15h36.22.372,premup-three_ses-01_part-01_label-phase1,3.2.4,MacIntel,60,right,0.70600009,4,0,4,0,1,3,1,0,240,221,1,239,,,,,,,,,,,,,,,,,,
,,1,4,,,,,,,1,3,4,stim/34.jpeg,HouseObjects,1,stim/objects/HouseObjects/scale.png,0.5,3,-0.2,-0.15,left,39,2020-12-13_15h36.22.372,premup-three_ses-01_part-01_label-phase1,3.2.4,MacIntel,60,left,0.703999996,4,0,4,0,1,3,1,0,240,3,1,239,,,,,,,,,,,,,,,,,,
,,1,5,,,,,,,3,2,3,stim/23.jpeg,HouseObjects,1,stim/objects/HouseObjects/vacuumcleaner2.png,0.9,1,-0.2,0.15,left,39,2020-12-13_15h36.22.372,premup-three_ses-01_part-01_label-phase1,3.2.4,MacIntel,60,left,0.719000101,4,0,4,0,1,3,1,0,240,214,1,239,,,,,,,,,,,,,,,,,,
,,0,6,,,,,,,1,3,2,stim/32.jpeg,HouseObjects,1,stim/objects/HouseObjects/safetypin.png,0.5,3,-0.2,-0.15,left,39,2020-12-13_15h36.22.372,premup-three_ses-01_part-01_label-phase1,3.2.4,MacIntel,60,right,0.78399992,4,0,4,0,1,3,1,0,240,5,1,239,,,,,,,,,,,,,,,,,,
,,1,7,,,,,,,3,2,4,stim/24.jpeg,HouseObjects,1,stim/objects/HouseObjects/wateringcan2.png,0.9,2,0.2,0.15,left,39,2020-12-13_15h36.22.372,premup-three_ses-01_part-01_label-phase1,3.2.4,MacIntel,60,left,0.732000113,4,0,4,0,1,3,1,0,240,219,1,239,,,,,,,,,,,,,,,,,,
,,0,8,,,,,,,3,1,2,stim/12.jpeg,Instruments,2,stim/objects/Instruments/triangle2.png,0.9,1,-0.2,0.15,right,39,2020-12-13_15h36.22.372,premup-three_ses-01_part-01_label-phase1,3.2.4,MacIntel,60,left,0.882999897,4,0,4,0,1,3,1,0,240,173,1,239,,,,,,,,,,,,,,,,,,
,,1,9,,,,,,,2,6,1,stim/61.jpeg,HouseObjects,1,stim/objects/HouseObjects/rug2.png,0.7,1,-0.2,0.15,left,39,2020-12-13_15h36.22.372,premup-three_ses-01_part-01_label-phase1,3.2.4,MacIntel,60,left,0.756999969,4,0,4,0,1,3,1,0,240,140,1,239,,,,,,,,,,,,,,,,,,
,,0,10,,,,,,,2,5,4,stim/54.jpeg,HouseObjects,1,stim/objects/HouseObjects/wateringcan.png,0.3,3,-0.2,-0.15,left,39,2020-12-13_15h36.22.372,premup-three_ses-01_part-01_label-phase1,3.2.4,MacIntel,60,right,0.894999981,4,0,4,0,1,3,1,0,240,83,1,239,,,,,,,,,,,,,,,,,,
,,0,11,,,,,,,3,1,4,stim/14.jpeg,Instruments,2,stim/objects/Instruments/trumpet2.png,0.9,2,0.2,0.15,right,39,2020-12-13_15h36.22.372,premup-three_ses-01_part-01_label-phase1,3.2.4,MacIntel,60,left,0.661999941,4,0,4,0,1,3,1,0,240,175,1,239,,,,,,,,,,,,,,,,,,
,,1,12,,,,,,,1,3,3,stim/33.jpeg,HouseObjects,1,stim/objects/HouseObjects/saw.png,0.5,3,-0.2,-0.15,left,39,2020-12-13_15h36.22.372,premup-three_ses-01_part-01_label-phase1,3.2.4,MacIntel,60,left,0.822000027,4,0,4,0,1,3,1,0,240,18,1,239,,,,,,,,,,,,,,,,,,
,,0,13,,,,,,,2,5,3,stim/53.jpeg,Instruments,2,stim/objects/Instruments/vuvuzela.png,0.7,4,0.2,-0.15,right,39,2020-12-13_15h36.22.372,premup-three_ses-01_part-01_label-phase1,3.2.4,MacIntel,60,left,0.81799984,4,0,4,0,1,3,1,0,240,118,1,239,,,,,,,,,,,,,,,,,,
,,1,14,,,,,,,3,1,3,stim/13.jpeg,Instruments,2,stim/objects/Instruments/trombone2.png,0.9,3,-0.2,-0.15,right,39,2020-12-13_15h36.22.372,premup-three_ses-01_part-01_label-phase1,3.2.4,MacIntel,60,right,1.396999836,4,0,4,0,1,3,1,0,240,190,1,239,,,,,,,,,,,,,,,,,,
,,1,15,,,,,,,1,4,4,stim/44.jpeg,HouseObjects,1,stim/objects/HouseObjects/thermometer.png,0.5,2,0.2,0.15,left,39,2020-12-13_15h36.22.372,premup-three_ses-01_part-01_label-phase1,3.2.4,MacIntel,60,left,0.693000078,4,0,4,0,1,3,1,0,240,55,1,239,,,,,,,,,,,,,,,,,,
,,0,16,,,,,,,1,3,4,stim/34.jpeg,Instruments,2,stim/objects/Instruments/tambourine.png,0.5,1,-0.2,0.15,right,39,2020-12-13_15h36.22.372,premup-three_ses-01_part-01_label-phase1,3.2.4,MacIntel,60,left,0.626999855,4,0,4,0,1,3,1,0,240,31,1,239,,,,,,,,,,,,,,,,,,
,,1,17,,,,,,,2,5,2,stim/52.jpeg,Instruments,2,stim/objects/Instruments/violin.png,0.7,2,0.2,0.15,right,39,2020-12-13_15h36.22.372,premup-three_ses-01_part-01_label-phase1,3.2.4,MacIntel,60,right,0.648999929,4,0,4,0,1,3,1,0,240,105,1,239,,,,,,,,,,,,,,,,,,
,,0,18,,,,,,,1,3,2,stim/32.jpeg,Instruments,2,stim/objects/Instruments/saxophone.png,0.5,3,-0.2,-0.15,right,39,2020-12-13_15h36.22.372,premup-three_ses-01_part-01_label-phase1,3.2.4,MacIntel,60,left,0.590000153,4,0,4,0,1,3,1,0,240,25,1,239,,,,,,,,,,,,,,,,,,
,,1,19,,,,,,,1,3,2,stim/32.jpeg,Instruments,2,stim/objects/Instruments/saxophone.png,0.5,4,0.2,-0.15,right,39,2020-12-13_15h36.22.372,premup-three_ses-01_part-01_label-phase1,3.2.4,MacIntel,60,right,0.478000164,4,0,4,0,1,3,1,0,240,29,1,239,,,,,,,,,,,,,,,,,,
,,0,20,,,,,,,3,1,3,stim/13.jpeg,Instruments,2,stim/objects/Instruments/trombone2.png,0.9,2,0.2,0.15,right,39,2020-12-13_15h36.22.372,premup-three_ses-01_part-01_label-phase1,3.2.4,MacIntel,60,left,0.601999998,4,0,4,0,1,3,1,0,240,182,1,239,,,,,,,,,,,,,,,,,,
,,1,21,,,,,,,2,6,4,stim/64.jpeg,Instruments,2,stim/objects/Instruments/tambourine2.png,0.3,1,-0.2,0.15,right,39,2020-12-13_15h36.22.372,premup-three_ses-01_part-01_label-phase1,3.2.4,MacIntel,60,right,0.723999977,4,0,4,0,1,3,1,0,240,155,1,239,,,,,,,,,,,,,,,,,,
,,1,22,,,,,,,2,6,1,stim/61.jpeg,HouseObjects,1,stim/objects/HouseObjects/rug2.png,0.7,3,-0.2,-0.15,left,39,2020-12-13_15h36.22.372,premup-three_ses-01_part-01_label-phase1,3.2.4,MacIntel,60,left,0.671999931,4,0,4,0,1,3,1,0,240,128,1,239,,,,,,,,,,,,,,,,,,
,,1,23,,,,,,,3,1,1,stim/11.jpeg,Instruments,2,stim/objects/Instruments/timbal2.png,0.9,1,-0.2,0.15,right,39,2020-12-13_15h36.22.372,premup-three_ses-01_part-01_label-phase1,3.2.4,MacIntel,60,right,0.696000099,4,0,4,0,1,3,1,0,240,180,1,239,,,,,,,,,,,,,,,,,,
,,1,24,,,,,,,3,2,2,stim/22.jpeg,HouseObjects,1,stim/objects/HouseObjects/towel2.png,0.9,3,-0.2,-0.15,left,39,2020-12-13_15h36.22.372,premup-three_ses-01_part-01_label-phase1,3.2.4,MacIntel,60,left,0.607000113,4,0,4,0,1,3,1,0,240,213,1,239,,,,,,,,,,,,,,,,,,
,,0,25,,,,,,,3,1,4,stim/14.jpeg,Instruments,2,stim/objects/Instruments/trumpet2.png,0.9,1,-0.2,0.15,right,39,2020-12-13_15h36.22.372,premup-three_ses-01_part-01_label-phase1,3.2.4,MacIntel,60,left,0.457000017,4,0,4,0,1,3,1,0,240,199,1,239,,,,,,,,,,,,,,,,,,
,,1,26,,,,,,,2,6,3,stim/63.jpeg,HouseObjects,1,stim/objects/HouseObjects/saw2.png,0.7,3,-0.2,-0.15,left,39,2020-12-13_15h36.22.372,premup-three_ses-01_part-01_label-phase1,3.2.4,MacIntel,60,left,0.622999907,4,0,4,0,1,3,1,0,240,122,1,239,,,,,,,,,,,,,,,,,,
,,0,27,,,,,,,1,4,2,stim/42.jpeg,HouseObjects,1,stim/objects/HouseObjects/spraybottle.png,0.5,4,0.2,-0.15,left,39,2020-12-13_15h36.22.372,premup-three_ses-01_part-01_label-phase1,3.2.4,MacIntel,60,right,1.217000008,4,0,4,0,1,3,1,0,240,57,1,239,,,,,,,,,,,,,,,,,,
,,0,28,,,,,,,1,4,1,stim/41.jpeg,HouseObjects,1,stim/objects/HouseObjects/sponge.png,0.5,3,-0.2,-0.15,left,39,2020-12-13_15h36.22.372,premup-three_ses-01_part-01_label-phase1,3.2.4,MacIntel,60,,,4,0,4,0,1,3,1,0,240,52,1,239,,,,,,,,,,,,,,,,,,
,,0,29,,,,,,,2,5,4,stim/54.jpeg,Instruments,2,stim/objects/Instruments/xylophone.png,0.7,2,0.2,0.15,right,39,2020-12-13_15h36.22.372,premup-three_ses-01_part-01_label-phase1,3.2.4,MacIntel,60,,,4,0,4,0,1,3,1,0,240,99,1,239,,,,,,,,,,,,,,,,,,
,,0,30,,,,,,,3,1,2,stim/12.jpeg,Instruments,2,stim/objects/Instruments/triangle2.png,0.9,2,0.2,0.15,right,39,2020-12-13_15h36.22.372,premup-three_ses-01_part-01_label-phase1,3.2.4,MacIntel,60,left,0.508999825,4,0,4,0,1,3,1,0,240,165,1,239,,,,,,,,,,,,,,,,,,
,,0,31,,,,,,,3,2,3,stim/23.jpeg,HouseObjects,1,stim/objects/HouseObjects/vacuumcleaner2.png,0.9,4,0.2,-0.15,left,39,2020-12-13_15h36.22.372,premup-three_ses-01_part-01_label-phase1,3.2.4,MacIntel,60,right,1.128000021,4,0,4,0,1,3,1,0,240,210,1,239,,,,,,,,,,,,,,,,,,
,,0,32,,,,,,,1,4,1,stim/41.jpeg,Instruments,2,stim/objects/Instruments/timbal.png,0.5,2,0.2,0.15,right,39,2020-12-13_15h36.22.372,premup-three_ses-01_part-01_label-phase1,3.2.4,MacIntel,60,left,1.738000154,4,0,4,0,1,3,1,0,240,76,1,239,,,,,,,,,,,,,,,,,,
,,0,33,,,,,,,3,2,1,stim/21.jpeg,HouseObjects,1,stim/objects/HouseObjects/thread2.png,0.9,2,0.2,0.15,left,39,2020-12-13_15h36.22.372,premup-three_ses-01_part-01_label-phase1,3.2.4,MacIntel,60,right,1.302000046,4,0,4,0,1,3,1,0,240,208,1,239,,,,,,,,,,,,,,,,,,
,,0,34,,,,,,,1,3,3,stim/33.jpeg,Instruments,2,stim/objects/Instruments/speaker.png,0.5,2,0.2,0.15,right,39,2020-12-13_15h36.22.372,premup-three_ses-01_part-01_label-phase1,3.2.4,MacIntel,60,,,4,0,4,0,1,3,1,0,240,30,1,239,,,,,,,,,,,,,,,,,,
,,0,35,,,,,,,3,1,3,stim/13.jpeg,Instruments,2,stim/objects/Instruments/trombone2.png,0.9,2,0.2,0.15,right,39,2020-12-13_15h36.22.372,premup-three_ses-01_part-01_label-phase1,3.2.4,MacIntel,60,,,4,0,4,0,1,3,1,0,240,170,1,239,,,,,,,,,,,,,,,,,,
,,0,36,,,,,,,1,3,3,stim/33.jpeg,Instruments,2,stim/objects/Instruments/speaker.png,0.5,1,-0.2,0.15,right,39,2020-12-13_15h36.22.372,premup-three_ses-01_part-01_label-phase1,3.2.4,MacIntel,60,left,0.572999954,4,0,4,0,1,3,1,0,240,38,1,239,,,,,,,,,,,,,,,,,,
,,0,37,,,,,,,1,3,4,stim/34.jpeg,HouseObjects,1,stim/objects/HouseObjects/scale.png,0.5,2,0.2,0.15,left,39,2020-12-13_15h36.22.372,premup-three_ses-01_part-01_label-phase1,3.2.4,MacIntel,60,right,0.529000044,4,0,4,0,1,3,1,0,240,15,1,239,,,,,,,,,,,,,,,,,,
,,1,38,,,,,,,3,2,4,stim/24.jpeg,HouseObjects,1,stim/objects/HouseObjects/wateringcan2.png,0.9,2,0.2,0.15,left,39,2020-12-13_15h36.22.372,premup-three_ses-01_part-01_label-phase1,3.2.4,MacIntel,60,left,0.725000143,4,0,4,0,1,3,1,0,240,215,1,239,,,,,,,,,,,,,,,,,,
,,1,39,,,,,,,1,4,2,stim/42.jpeg,HouseObjects,1,stim/objects/HouseObjects/spraybottle.png,0.5,2,0.2,0.15,left,39,2020-12-13_15h36.22.372,premup-three_ses-01_part-01_label-phase1,3.2.4,MacIntel,60,left,0.571999788,4,0,4,0,1,3,1,0,240,41,1,239,,,,,,,,,,,,,,,,,,
,,1,40,,,,,,,1,4,4,stim/44.jpeg,HouseObjects,1,stim/objects/HouseObjects/thermometer.png,0.5,2,0.2,0.15,left,39,2020-12-13_15h36.22.372,premup-three_ses-01_part-01_label-phase1,3.2.4,MacIntel,60,left,0.484999895,4,0,4,0,1,3,1,0,240,59,1,239,,,,,,,,,,,,,,,,,,
,,1,41,,,,,,,1,4,1,stim/41.jpeg,HouseObjects,1,stim/objects/HouseObjects/sponge.png,0.5,2,0.2,0.15,left,39,2020-12-13_15h36.22.372,premup-three_ses-01_part-01_label-phase1,3.2.4,MacIntel,60,left,0.528000116,4,0,4,0,1,3,1,0,240,48,1,239,,,,,,,,,,,,,,,,,,
,,0,42,,,,,,,3,2,3,stim/23.jpeg,HouseObjects,1,stim/objects/HouseObjects/vacuumcleaner2.png,0.9,1,-0.2,0.15,left,39,2020-12-13_15h36.22.372,premup-three_ses-01_part-01_label-phase1,3.2.4,MacIntel,60,right,0.688999891,4,0,4,0,1,3,1,0,240,218,1,239,,,,,,,,,,,,,,,,,,
,,0,43,,,,,,,3,2,1,stim/21.jpeg,Instruments,2,stim/objects/Instruments/tuba2.png,0.1,1,-0.2,0.15,right,39,2020-12-13_15h36.22.372,premup-three_ses-01_part-01_label-phase1,3.2.4,MacIntel,60,left,0.453999996,4,0,4,0,1,3,1,0,240,236,1,239,,,,,,,,,,,,,,,,,,
,,1,44,,,,,,,1,3,3,stim/33.jpeg,HouseObjects,1,stim/objects/HouseObjects/saw.png,0.5,3,-0.2,-0.15,left,39,2020-12-13_15h36.22.372,premup-three_ses-01_part-01_label-phase1,3.2.4,MacIntel,60,left,0.483999968,4,0,4,0,1,3,1,0,240,2,1,239,,,,,,,,,,,,,,,,,,
,,1,45,,,,,,,2,6,2,stim/62.jpeg,HouseObjects,1,stim/objects/HouseObjects/safetypin2.png,0.7,4,0.2,-0.15,left,39,2020-12-13_15h36.22.372,premup-three_ses-01_part-01_label-phase1,3.2.4,MacIntel,60,left,0.57799983,4,0,4,0,1,3,1,0,240,125,1,239,,,,,,,,,,,,,,,,,,
,,1,46,,,,,,,3,2,4,stim/24.jpeg,HouseObjects,1,stim/objects/HouseObjects/wateringcan2.png,0.9,4,0.2,-0.15,left,39,2020-12-13_15h36.22.372,premup-three_ses-01_part-01_label-phase1,3.2.4,MacIntel,60,left,0.424000025,4,0,4,0,1,3,1,0,240,227,1,239,,,,,,,,,,,,,,,,,,
,,1,47,,,,,,,3,2,1,stim/21.jpeg,HouseObjects,1,stim/objects/HouseObjects/thread2.png,0.9,4,0.2,-0.15,left,39,2020-12-13_15h36.22.372,premup-three_ses-01_part-01_label-phase1,3.2.4,MacIntel,60,left,0.371999979,4,0,4,0,1,3,1,0,240,220,1,239,,,,,,,,,,,,,,,,,,
,,0,48,,,,,,,2,5,3,stim/53.jpeg,Instruments,2,stim/objects/Instruments/vuvuzela.png,0.7,1,-0.2,0.15,right,39,2020-12-13_15h36.22.372,premup-three_ses-01_part-01_label-phase1,3.2.4,MacIntel,60,left,0.356999874,4,0,4,0,1,3,1,0,240,102,1,239,,,,,,,,,,,,,,,,,,
,,0,49,,,,,,,1,3,2,stim/32.jpeg,Instruments,2,stim/objects/Instruments/saxophone.png,0.5,1,-0.2,0.15,right,39,2020-12-13_15h36.22.372,premup-three_ses-01_part-01_label-phase1,3.2.4,MacIntel,60,left,0.352999926,4,0,4,0,1,3,1,0,240,37,1,239,,,,,,,,,,,,,,,,,,
,,1,50,,,,,,,3,2,2,stim/22.jpeg,HouseObjects,1,stim/objects/HouseObjects/towel2.png,0.9,2,0.2,0.15,left,39,2020-12-13_15h36.22.372,premup-three_ses-01_part-01_label-phase1,3.2.4,MacIntel,60,left,0.554000139,4,0,4,0,1,3,1,0,240,201,1,239,,,,,,,,,,,,,,,,,,
,,0,51,,,,,,,3,1,2,stim/12.jpeg,HouseObjects,1,stim/objects/HouseObjects/spraybottle2.png,0.1,3,-0.2,-0.15,left,39,2020-12-13_15h36.22.372,premup-three_ses-01_part-01_label-phase1,3.2.4,MacIntel,60,right,0.789999962,4,0,4,0,1,3,1,0,240,161,1,239,,,,,,,,,,,,,,,,,,
,,0,52,,,,,,,1,3,1,stim/31.jpeg,Instruments,2,stim/objects/Instruments/record_player.png,0.5,1,-0.2,0.15,right,39,2020-12-13_15h36.22.372,premup-three_ses-01_part-01_label-phase1,3.2.4,MacIntel,60,left,0.353000164,4,0,4,0,1,3,1,0,240,36,1,239,,,,,,,,,,,,,,,,,,
,,0,53,,,,,,,1,4,4,stim/44.jpeg,Instruments,2,stim/objects/Instruments/trumpet.png,0.5,3,-0.2,-0.15,right,39,2020-12-13_15h36.22.372,premup-three_ses-01_part-01_label-phase1,3.2.4,MacIntel,60,left,0.559999943,4,0,4,0,1,3,1,0,240,71,1,239,,,,,,,,,,,,,,,,,,
,,0,54,,,,,,,2,5,1,stim/51.jpeg,HouseObjects,1,stim/objects/HouseObjects/thread.png,0.3,1,-0.2,0.15,left,39,2020-12-13_15h36.22.372,premup-three_ses-01_part-01_label-phase1,3.2.4,MacIntel,60,right,0.694000006,4,0,4,0,1,3,1,0,240,80,1,239,,,,,,,,,,,,,,,,,,
,,0,55,,,,,,,1,3,1,stim/31.jpeg,Instruments,2,stim/objects/Instruments/record_player.png,0.5,1,-0.2,0.15,right,39,2020-12-13_15h36.22.372,premup-three_ses-01_part-01_label-phase1,3.2.4,MacIntel,60,left,0.648000002,4,0,4,0,1,3,1,0,240,20,1,239,,,,,,,,,,,,,,,,,,
,,1,56,,,,,,,3,1,1,stim/11.jpeg,Instruments,2,stim/objects/Instruments/timbal2.png,0.9,4,0.2,-0.15,right,39,2020-12-13_15h36.22.372,premup-three_ses-01_part-01_label-phase1,3.2.4,MacIntel,60,right,0.746000051,4,0,4,0,1,3,1,0,240,172,1,239,,,,,,,,,,,,,,,,,,
,,0,57,,,,,,,2,5,1,stim/51.jpeg,Instruments,2,stim/objects/Instruments/tuba.png,0.7,2,0.2,0.15,right,39,2020-12-13_15h36.22.372,premup-three_ses-01_part-01_label-phase1,3.2.4,MacIntel,60,left,0.694999933,4,0,4,0,1,3,1,0,240,112,1,239,,,,,,,,,,,,,,,,,,
,,0,58,,,,,,,2,6,4,stim/64.jpeg,HouseObjects,1,stim/objects/HouseObjects/scale2.png,0.7,4,0.2,-0.15,left,39,2020-12-13_15h36.22.372,premup-three_ses-01_part-01_label-phase1,3.2.4,MacIntel,60,right,1.74000001,4,0,4,0,1,3,1,0,240,135,1,239,,,,,,,,,,,,,,,,,,
,,1,59,,,,,,,2,6,1,stim/61.jpeg,HouseObjects,1,stim/objects/HouseObjects/rug2.png,0.7,3,-0.2,-0.15,left,39,2020-12-13_15h36.22.372,premup-three_ses-01_part-01_label-phase1,3.2.4,MacIntel,60,left,0.446000099,4,0,4,0,1,3,1,0,240,120,1,239,,,,,,,,,,,,,,,,,,
,,1,60,,,,,,,2,6,1,stim/61.jpeg,HouseObjects,1,stim/objects/HouseObjects/rug2.png,0.7,1,-0.2,0.15,left,39,2020-12-13_15h36.22.372,premup-three_ses-01_part-01_label-phase1,3.2.4,MacIntel,60,left,0.407000065,4,0,4,0,1,3,1,0,240,124,1,239,,,,,,,,,,,,,,,,,,
,,1,61,,,,,,,3,2,4,stim/24.jpeg,HouseObjects,1,stim/objects/HouseObjects/wateringcan2.png,0.9,4,0.2,-0.15,left,39,2020-12-13_15h36.22.372,premup-three_ses-01_part-01_label-phase1,3.2.4,MacIntel,60,left,0.802999973,4,0,4,0,1,3,1,0,240,203,1,239,,,,,,,,,,,,,,,,,,
,,0,62,,,,,,,1,3,3,stim/33.jpeg,HouseObjects,1,stim/objects/HouseObjects/saw.png,0.5,1,-0.2,0.15,left,39,2020-12-13_15h36.22.372,premup-three_ses-01_part-01_label-phase1,3.2.4,MacIntel,60,right,0.57799983,4,0,4,0,1,3,1,0,240,14,1,239,,,,,,,,,,,,,,,,,,
,,0,63,,,,,,,2,5,3,stim/53.jpeg,HouseObjects,1,stim/objects/HouseObjects/vacuumcleaner.png,0.3,4,0.2,-0.15,left,39,2020-12-13_15h36.22.372,premup-three_ses-01_part-01_label-phase1,3.2.4,MacIntel,60,right,0.721999884,4,0,4,0,1,3,1,0,240,86,1,239,,,,,,,,,,,,,,,,,,
,,0,64,,,,,,,2,6,1,stim/61.jpeg,HouseObjects,1,stim/objects/HouseObjects/rug2.png,0.7,2,0.2,0.15,left,39,2020-12-13_15h36.22.372,premup-three_ses-01_part-01_label-phase1,3.2.4,MacIntel,60,right,0.676000118,4,0,4,0,1,3,1,0,240,136,1,239,,,,,,,,,,,,,,,,,,
,,1,65,,,,,,,2,6,4,stim/64.jpeg,HouseObjects,1,stim/objects/HouseObjects/scale2.png,0.7,4,0.2,-0.15,left,39,2020-12-13_15h36.22.372,premup-three_ses-01_part-01_label-phase1,3.2.4,MacIntel,60,left,0.555999994,4,0,4,0,1,3,1,0,240,123,1,239,,,,,,,,,,,,,,,,,,
,,1,66,,,,,,,2,5,3,stim/53.jpeg,HouseObjects,1,stim/objects/HouseObjects/vacuumcleaner.png,0.3,3,-0.2,-0.15,left,39,2020-12-13_15h36.22.372,premup-three_ses-01_part-01_label-phase1,3.2.4,MacIntel,60,left,0.226999998,4,0,4,0,1,3,1,0,240,90,1,239,,,,,,,,,,,,,,,,,,
,,0,67,,,,,,,2,6,1,stim/61.jpeg,Instruments,2,stim/objects/Instruments/record_player2.png,0.3,1,-0.2,0.15,right,39,2020-12-13_15h36.22.372,premup-three_ses-01_part-01_label-phase1,3.2.4,MacIntel,60,left,0.394000053,4,0,4,0,1,3,1,0,240,152,1,239,,,,,,,,,,,,,,,,,,
,,0,68,,,,,,,2,5,2,stim/52.jpeg,Instruments,2,stim/objects/Instruments/violin.png,0.7,2,0.2,0.15,right,39,2020-12-13_15h36.22.372,premup-three_ses-01_part-01_label-phase1,3.2.4,MacIntel,60,,,4,0,4,0,1,3,1,0,240,113,1,239,,,,,,,,,,,,,,,,,,
,,0,69,,,,,,,1,4,2,stim/42.jpeg,Instruments,2,stim/objects/Instruments/triangle.png,0.5,3,-0.2,-0.15,right,39,2020-12-13_15h36.22.372,premup-three_ses-01_part-01_label-phase1,3.2.4,MacIntel,60,left,0.274000168,4,0,4,0,1,3,1,0,240,77,1,239,,,,,,,,,,,,,,,,,,
,,0,70,,,,,,,2,6,2,stim/62.jpeg,HouseObjects,1,stim/objects/HouseObjects/safetypin2.png,0.7,2,0.2,0.15,left,39,2020-12-13_15h36.22.372,premup-three_ses-01_part-01_label-phase1,3.2.4,MacIntel,60,right,0.361999989,4,0,4,0,1,3,1,0,240,137,1,239,,,,,,,,,,,,,,,,,,
,,0,71,,,,,,,3,1,2,stim/12.jpeg,Instruments,2,stim/objects/Instruments/triangle2.png,0.9,1,-0.2,0.15,right,39,2020-12-13_15h36.22.372,premup-three_ses-01_part-01_label-phase1,3.2.4,MacIntel,60,left,0.519000053,4,0,4,0,1,3,1,0,240,197,1,239,,,,,,,,,,,,,,,,,,
,,1,72,,,,,,,3,1,1,stim/11.jpeg,Instruments,2,stim/objects/Instruments/timbal2.png,0.9,4,0.2,-0.15,right,39,2020-12-13_15h36.22.372,premup-three_ses-01_part-01_label-phase1,3.2.4,MacIntel,60,right,0.34100008,4,0,4,0,1,3,1,0,240,192,1,239,,,,,,,,,,,,,,,,,,
,,1,73,,,,,,,1,4,3,stim/43.jpeg,HouseObjects,1,stim/objects/HouseObjects/teapot.png,0.5,4,0.2,-0.15,left,39,2020-12-13_15h36.22.372,premup-three_ses-01_part-01_label-phase1,3.2.4,MacIntel,60,left,0.342000008,4,0,4,0,1,3,1,0,240,42,1,239,,,,,,,,,,,,,,,,,,
,,1,74,,,,,,,3,2,4,stim/24.jpeg,HouseObjects,1,stim/objects/HouseObjects/wateringcan2.png,0.9,1,-0.2,0.15,left,39,2020-12-13_15h36.22.372,premup-three_ses-01_part-01_label-phase1,3.2.4,MacIntel,60,left,0.288000107,4,0,4,0,1,3,1,0,240,231,1,239,,,,,,,,,,,,,,,,,,
,,1,75,,,,,,,1,3,4,stim/34.jpeg,HouseObjects,1,stim/objects/HouseObjects/scale.png,0.5,4,0.2,-0.15,left,39,2020-12-13_15h36.22.372,premup-three_ses-01_part-01_label-phase1,3.2.4,MacIntel,60,left,0.21999979,4,0,4,0,1,3,1,0,240,19,1,239,,,,,,,,,,,,,,,,,,
,,0,76,,,,,,,3,1,2,stim/12.jpeg,Instruments,2,stim/objects/Instruments/triangle2.png,0.9,3,-0.2,-0.15,right,39,2020-12-13_15h36.22.372,premup-three_ses-01_part-01_label-phase1,3.2.4,MacIntel,60,left,0.210000038,4,0,4,0,1,3,1,0,240,177,1,239,,,,,,,,,,,,,,,,,,
,,1,77,,,,,,,2,5,1,stim/51.jpeg,Instruments,2,stim/objects/Instruments/tuba.png,0.7,2,0.2,0.15,right,39,2020-12-13_15h36.22.372,premup-three_ses-01_part-01_label-phase1,3.2.4,MacIntel,60,right,0.402999878,4,0,4,0,1,3,1,0,240,104,1,239,,,,,,,,,,,,,,,,,,
,,0,78,,,,,,,1,3,1,stim/31.jpeg,Instruments,2,stim/objects/Instruments/record_player.png,0.5,2,0.2,0.15,right,39,2020-12-13_15h36.22.372,premup-three_ses-01_part-01_label-phase1,3.2.4,MacIntel,60,left,0.371000051,4,0,4,0,1,3,1,0,240,28,1,239,,,,,,,,,,,,,,,,,,
,,0,79,,,,,,,1,4,3,stim/43.jpeg,Instruments,2,stim/objects/Instruments/trombone.png,0.5,4,0.2,-0.15,right,39,2020-12-13_15h36.22.372,premup-three_ses-01_part-01_label-phase1,3.2.4,MacIntel,60,left,0.424000025,4,0,4,0,1,3,1,0,240,62,1,239,,,,,,,,,,,,,,,,,,
,,0,80,,,,,,,1,3,2,stim/32.jpeg,HouseObjects,1,stim/objects/HouseObjects/safetypin.png,0.5,4,0.2,-0.15,left,39,2020-12-13_15h36.22.372,premup-three_ses-01_part-01_label-phase1,3.2.4,MacIntel,60,right,0.869999886,4,0,4,0,1,3,1,0,240,17,1,239,,,,,,,,,,,,,,,,,,
,,1,81,,,,,,,1,3,1,stim/31.jpeg,HouseObjects,1,stim/objects/HouseObjects/rug.png,0.5,1,-0.2,0.15,left,39,2020-12-13_15h36.22.372,premup-three_ses-01_part-01_label-phase1,3.2.4,MacIntel,60,left,0.406000137,4,0,4,0,1,3,1,0,240,16,1,239,,,,,,,,,,,,,,,,,,
,,1,82,,,,,,,3,2,1,stim/21.jpeg,HouseObjects,1,stim/objects/HouseObjects/thread2.png,0.9,2,0.2,0.15,left,39,2020-12-13_15h36.22.372,premup-three_ses-01_part-01_label-phase1,3.2.4,MacIntel,60,left,0.506000042,4,0,4,0,1,3,1,0,240,212,1,239,,,,,,,,,,,,,,,,,,
,,0,83,,,,,,,1,4,2,stim/42.jpeg,Instruments,2,stim/objects/Instruments/triangle.png,0.5,2,0.2,0.15,right,39,2020-12-13_15h36.22.372,premup-three_ses-01_part-01_label-phase1,3.2.4,MacIntel,60,left,0.424999952,4,0,4,0,1,3,1,0,240,73,1,239,,,,,,,,,,,,,,,,,,
,,0,84,,,,,,,1,3,2,stim/32.jpeg,HouseObjects,1,stim/objects/HouseObjects/safetypin.png,0.5,1,-0.2,0.15,left,39,2020-12-13_15h36.22.372,premup-three_ses-01_part-01_label-phase1,3.2.4,MacIntel,60,right,0.416000128,4,0,4,0,1,3,1,0,240,1,1,239,,,,,,,,,,,,,,,,,,
,,1,85,,,,,,,3,1,1,stim/11.jpeg,HouseObjects,1,stim/objects/HouseObjects/sponge2.png,0.1,2,0.2,0.15,left,39,2020-12-13_15h36.22.372,premup-three_ses-01_part-01_label-phase1,3.2.4,MacIntel,60,left,0.496999979,4,0,4,0,1,3,1,0,240,160,1,239,,,,,,,,,,,,,,,,,,
,,1,86,,,,,,,2,6,1,stim/61.jpeg,HouseObjects,1,stim/objects/HouseObjects/rug2.png,0.7,3,-0.2,-0.15,left,39,2020-12-13_15h36.22.372,premup-three_ses-01_part-01_label-phase1,3.2.4,MacIntel,60,left,0.523999929,4,0,4,0,1,3,1,0,240,144,1,239,,,,,,,,,,,,,,,,,,
,,0,87,,,,,,,3,1,2,stim/12.jpeg,Instruments,2,stim/objects/Instruments/triangle2.png,0.9,1,-0.2,0.15,right,39,2020-12-13_15h36.22.372,premup-three_ses-01_part-01_label-phase1,3.2.4,MacIntel,60,left,0.625,4,0,4,0,1,3,1,0,240,169,1,239,,,,,,,,,,,,,,,,,,
,,0,88,,,,,,,2,5,4,stim/54.jpeg,Instruments,2,stim/objects/Instruments/xylophone.png,0.7,1,-0.2,0.15,right,39,2020-12-13_15h36.22.372,premup-three_ses-01_part-01_label-phase1,3.2.4,MacIntel,60,left,0.628000021,4,0,4,0,1,3,1,0,240,95,1,239,,,,,,,,,,,,,,,,,,
,,0,89,,,,,,,1,4,1,stim/41.jpeg,Instruments,2,stim/objects/Instruments/timbal.png,0.5,1,-0.2,0.15,right,39,2020-12-13_15h36.22.372,premup-three_ses-01_part-01_label-phase1,3.2.4,MacIntel,60,,,4,0,4,0,1,3,1,0,240,72,1,239,,,,,,,,,,,,,,,,,,
,,0,90,,,,,,,1,3,3,stim/33.jpeg,Instruments,2,stim/objects/Instruments/speaker.png,0.5,1,-0.2,0.15,right,39,2020-12-13_15h36.22.372,premup-three_ses-01_part-01_label-phase1,3.2.4,MacIntel,60,left,1.64199996,4,0,4,0,1,3,1,0,240,26,1,239,,,,,,,,,,,,,,,,,,
,,1,91,,,,,,,2,6,1,stim/61.jpeg,HouseObjects,1,stim/objects/HouseObjects/rug2.png,0.7,2,0.2,0.15,left,39,2020-12-13_15h36.22.372,premup-three_ses-01_part-01_label-phase1,3.2.4,MacIntel,60,left,0.536999941,4,0,4,0,1,3,1,0,240,132,1,239,,,,,,,,,,,,,,,,,,
,,1,92,,,,,,,3,1,4,stim/14.jpeg,Instruments,2,stim/objects/Instruments/trumpet2.png,0.9,4,0.2,-0.15,right,39,2020-12-13_15h36.22.372,premup-three_ses-01_part-01_label-phase1,3.2.4,MacIntel,60,right,1.14199996,4,0,4,0,1,3,1,0,240,187,1,239,,,,,,,,,,,,,,,,,,
,,0,93,,,,,,,1,3,1,stim/31.jpeg,Instruments,2,stim/objects/Instruments/record_player.png,0.5,1,-0.2,0.15,right,39,2020-12-13_15h36.22.372,premup-three_ses-01_part-01_label-phase1,3.2.4,MacIntel,60,left,1.138999939,4,0,4,0,1,3,1,0,240,32,1,239,,,,,,,,,,,,,,,,,,
,,0,94,,,,,,,1,4,2,stim/42.jpeg,Instruments,2,stim/objects/Instruments/triangle.png,0.5,1,-0.2,0.15,right,39,2020-12-13_15h36.22.372,premup-three_ses-01_part-01_label-phase1,3.2.4,MacIntel,60,left,1.072999954,4,0,4,0,1,3,1,0,240,65,1,239,,,,,,,,,,,,,,,,,,
,,1,95,,,,,,,2,6,2,stim/62.jpeg,HouseObjects,1,stim/objects/HouseObjects/safetypin2.png,0.7,3,-0.2,-0.15,left,39,2020-12-13_15h36.22.372,premup-three_ses-01_part-01_label-phase1,3.2.4,MacIntel,60,left,0.420000076,4,0,4,0,1,3,1,0,240,133,1,239,,,,,,,,,,,,,,,,,,
,,0,96,,,,,,,1,3,3,stim/33.jpeg,Instruments,2,stim/objects/Instruments/speaker.png,0.5,3,-0.2,-0.15,right,39,2020-12-13_15h36.22.372,premup-three_ses-01_part-01_label-phase1,3.2.4,MacIntel,60,left,0.625,4,0,4,0,1,3,1,0,240,34,1,239,,,,,,,,,,,,,,,,,,
,,1,97,,,,,,,2,5,1,stim/51.jpeg,Instruments,2,stim/objects/Instruments/tuba.png,0.7,1,-0.2,0.15,right,39,2020-12-13_15h36.22.372,premup-three_ses-01_part-01_label-phase1,3.2.4,MacIntel,60,right,0.25999999,4,0,4,0,1,3,1,0,240,96,1,239,,,,,,,,,,,,,,,,,,
,,1,98,,,,,,,3,2,2,stim/22.jpeg,HouseObjects,1,stim/objects/HouseObjects/towel2.png,0.9,3,-0.2,-0.15,left,39,2020-12-13_15h36.22.372,premup-three_ses-01_part-01_label-phase1,3.2.4,MacIntel,60,left,0.335999966,4,0,4,0,1,3,1,0,240,209,1,239,,,,,,,,,,,,,,,,,,
,,1,99,,,,,,,1,3,4,stim/34.jpeg,Instruments,2,stim/objects/Instruments/tambourine.png,0.5,2,0.2,0.15,right,39,2020-12-13_15h36.22.372,premup-three_ses-01_part-01_label-phase1,3.2.4,MacIntel,60,right,0.376000166,4,0,4,0,1,3,1,0,240,35,1,239,,,,,,,,,,,,,,,,,,
,,1,100,,,,,,,3,1,3,stim/13.jpeg,Instruments,2,stim/objects/Instruments/trombone2.png,0.9,2,0.2,0.15,right,39,2020-12-13_15h36.22.372,premup-three_ses-01_part-01_label-phase1,3.2.4,MacIntel,60,right,0.432999849,4,0,4,0,1,3,1,0,240,178,1,239,,,,,,,,,,,,,,,,,,
,,1,101,,,,,,,1,4,4,stim/44.jpeg,HouseObjects,1,stim/objects/HouseObjects/thermometer.png,0.5,3,-0.2,-0.15,left,39,2020-12-13_15h36.22.372,premup-three_ses-01_part-01_label-phase1,3.2.4,MacIntel,60,left,0.492000103,4,0,4,0,1,3,1,0,240,47,1,239,,,,,,,,,,,,,,,,,,
,,0,102,,,,,,,1,4,2,stim/42.jpeg,HouseObjects,1,stim/objects/HouseObjects/spraybottle.png,0.5,4,0.2,-0.15,left,39,2020-12-13_15h36.22.372,premup-three_ses-01_part-01_label-phase1,3.2.4,MacIntel,60,right,0.355999947,4,0,4,0,1,3,1,0,240,49,1,239,,,,,,,,,,,,,,,,,,
,,1,103,,,,,,,3,2,4,stim/24.jpeg,HouseObjects,1,stim/objects/HouseObjects/wateringcan2.png,0.9,3,-0.2,-0.15,left,39,2020-12-13_15h36.22.372,premup-three_ses-01_part-01_label-phase1,3.2.4,MacIntel,60,left,0.230000019,4,0,4,0,1,3,1,0,240,211,1,239,,,,,,,,,,,,,,,,,,
,,0,104,,,,,,,2,5,1,stim/51.jpeg,Instruments,2,stim/objects/Instruments/tuba.png,0.7,3,-0.2,-0.15,right,39,2020-12-13_15h36.22.372,premup-three_ses-01_part-01_label-phase1,3.2.4,MacIntel,60,left,0.336999893,4,0,4,0,1,3,1,0,240,108,1,239,,,,,,,,,,,,,,,,,,
,,0,105,,,,,,,2,5,2,stim/52.jpeg,HouseObjects,1,stim/objects/HouseObjects/towel.png,0.3,1,-0.2,0.15,left,39,2020-12-13_15h36.22.372,premup-three_ses-01_part-01_label-phase1,3.2.4,MacIntel,60,right,0.674000025,4,0,4,0,1,3,1,0,240,85,1,239,,,,,,,,,,,,,,,,,,
,,1,106,,,,,,,2,5,2,stim/52.jpeg,Instruments,2,stim/objects/Instruments/violin.png,0.7,3,-0.2,-0.15,right,39,2020-12-13_15h36.22.372,premup-three_ses-01_part-01_label-phase1,3.2.4,MacIntel,60,right,0.523999929,4,0,4,0,1,3,1,0,240,97,1,239,,,,,,,,,,,,,,,,,,
,,1,107,,,,,,,2,6,4,stim/64.jpeg,HouseObjects,1,stim/objects/HouseObjects/scale2.png,0.7,2,0.2,0.15,left,39,2020-12-13_15h36.22.372,premup-three_ses-01_part-01_label-phase1,3.2.4,MacIntel,60,left,0.609999895,4,0,4,0,1,3,1,0,240,131,1,239,,,,,,,,,,,,,,,,,,
,,0,108,,,,,,,3,2,4,stim/24.jpeg,HouseObjects,1,stim/objects/HouseObjects/wateringcan2.png,0.9,4,0.2,-0.15,left,39,2020-12-13_15h36.22.372,premup-three_ses-01_part-01_label-phase1,3.2.4,MacIntel,60,right,0.574999809,4,0,4,0,1,3,1,0,240,223,1,239,,,,,,,,,,,,,,,,,,
,,1,109,,,,,,,2,5,1,stim/51.jpeg,Instruments,2,stim/objects/Instruments/tuba.png,0.7,2,0.2,0.15,right,39,2020-12-13_15h36.22.372,premup-three_ses-01_part-01_label-phase1,3.2.4,MacIntel,60,right,0.463999987,4,0,4,0,1,3,1,0,240,116,1,239,,,,,,,,,,,,,,,,,,
,,0,110,,,,,,,2,6,3,stim/63.jpeg,Instruments,2,stim/objects/Instruments/speaker2.png,0.3,3,-0.2,-0.15,right,39,2020-12-13_15h36.22.372,premup-three_ses-01_part-01_label-phase1,3.2.4,MacIntel,60,left,0.52699995,4,0,4,0,1,3,1,0,240,158,1,239,,,,,,,,,,,,,,,,,,
,,1,111,,,,,,,2,6,2,stim/62.jpeg,Instruments,2,stim/objects/Instruments/saxophone2.png,0.3,3,-0.2,-0.15,right,39,2020-12-13_15h36.22.372,premup-three_ses-01_part-01_label-phase1,3.2.4,MacIntel,60,right,0.540999889,4,0,4,0,1,3,1,0,240,157,1,239,,,,,,,,,,,,,,,,,,
,,0,112,,,,,,,3,2,4,stim/24.jpeg,HouseObjects,1,stim/objects/HouseObjects/wateringcan2.png,0.9,3,-0.2,-0.15,left,39,2020-12-13_15h36.22.372,premup-three_ses-01_part-01_label-phase1,3.2.4,MacIntel,60,right,0.660000086,4,0,4,0,1,3,1,0,240,235,1,239,,,,,,,,,,,,,,,,,,
,,0,113,,,,,,,2,5,3,stim/53.jpeg,Instruments,2,stim/objects/Instruments/vuvuzela.png,0.7,1,-0.2,0.15,right,39,2020-12-13_15h36.22.372,premup-three_ses-01_part-01_label-phase1,3.2.4,MacIntel,60,left,0.355000019,4,0,4,0,1,3,1,0,240,110,1,239,,,,,,,,,,,,,,,,,,
,,1,114,,,,,,,2,5,3,stim/53.jpeg,Instruments,2,stim/objects/Instruments/vuvuzela.png,0.7,2,0.2,0.15,right,39,2020-12-13_15h36.22.372,premup-three_ses-01_part-01_label-phase1,3.2.4,MacIntel,60,right,0.340999842,4,0,4,0,1,3,1,0,240,94,1,239,,,,,,,,,,,,,,,,,,
,,1,115,,,,,,,2,5,1,stim/51.jpeg,HouseObjects,1,stim/objects/HouseObjects/thread.png,0.3,2,0.2,0.15,left,39,2020-12-13_15h36.22.372,premup-three_ses-01_part-01_label-phase1,3.2.4,MacIntel,60,left,0.427000046,4,0,4,0,1,3,1,0,240,88,1,239,,,,,,,,,,,,,,,,,,
,,0,116,,,,,,,2,5,4,stim/54.jpeg,HouseObjects,1,stim/objects/HouseObjects/wateringcan.png,0.3,2,0.2,0.15,left,39,2020-12-13_15h36.22.372,premup-three_ses-01_part-01_label-phase1,3.2.4,MacIntel,60,right,0.486999989,4,0,4,0,1,3,1,0,240,91,1,239,,,,,,,,,,,,,,,,,,
,,1,117,,,,,,,3,1,4,stim/14.jpeg,Instruments,2,stim/objects/Instruments/trumpet2.png,0.9,1,-0.2,0.15,right,39,2020-12-13_15h36.22.372,premup-three_ses-01_part-01_label-phase1,3.2.4,MacIntel,60,right,0.272000074,4,0,4,0,1,3,1,0,240,179,1,239,,,,,,,,,,,,,,,,,,
,,0,118,,,,,,,3,1,4,stim/14.jpeg,Instruments,2,stim/objects/Instruments/trumpet2.png,0.9,3,-0.2,-0.15,right,39,2020-12-13_15h36.22.372,premup-three_ses-01_part-01_label-phase1,3.2.4,MacIntel,60,left,0.296000004,4,0,4,0,1,3,1,0,240,191,1,239,,,,,,,,,,,,,,,,,,
,,1,119,,,,,,,1,4,3,stim/43.jpeg,HouseObjects,1,stim/objects/HouseObjects/teapot.png,0.5,4,0.2,-0.15,left,39,2020-12-13_15h36.22.372,premup-three_ses-01_part-01_label-phase1,3.2.4,MacIntel,60,left,0.220000029,4,0,4,0,1,3,1,0,240,58,1,239,,,,,,,,,,,,,,,,,,
,,0,120,,,,,,,3,2,1,stim/21.jpeg,HouseObjects,1,stim/objects/HouseObjects/thread2.png,0.9,2,0.2,0.15,left,39,2020-12-13_15h36.22.372,premup-three_ses-01_part-01_label-phase1,3.2.4,MacIntel,60,right,0.270999908,4,0,4,0,1,3,1,0,240,216,1,239,,,,,,,,,,,,,,,,,,
,,1,121,,,,,,,1,3,1,stim/31.jpeg,HouseObjects,1,stim/objects/HouseObjects/rug.png,0.5,2,0.2,0.15,left,39,2020-12-13_15h36.22.372,premup-three_ses-01_part-01_label-phase1,3.2.4,MacIntel,60,left,0.652999878,4,0,4,0,1,3,1,0,240,12,1,239,,,,,,,,,,,,,,,,,,
,,0,122,,,,,,,2,6,3,stim/63.jpeg,HouseObjects,1,stim/objects/HouseObjects/saw2.png,0.7,3,-0.2,-0.15,left,39,2020-12-13_15h36.22.372,premup-three_ses-01_part-01_label-phase1,3.2.4,MacIntel,60,right,0.707999945,4,0,4,0,1,3,1,0,240,142,1,239,,,,,,,,,,,,,,,,,,
,,0,123,,,,,,,1,3,4,stim/34.jpeg,HouseObjects,1,stim/objects/HouseObjects/scale.png,0.5,2,0.2,0.15,left,39,2020-12-13_15h36.22.372,premup-three_ses-01_part-01_label-phase1,3.2.4,MacIntel,60,right,0.450000048,4,0,4,0,1,3,1,0,240,7,1,239,,,,,,,,,,,,,,,,,,
,,0,124,,,,,,,2,5,3,stim/53.jpeg,Instruments,2,stim/objects/Instruments/vuvuzela.png,0.7,1,-0.2,0.15,right,39,2020-12-13_15h36.22.372,premup-three_ses-01_part-01_label-phase1,3.2.4,MacIntel,60,left,0.253999949,4,0,4,0,1,3,1,0,240,98,1,239,,,,,,,,,,,,,,,,,,
,,0,125,,,,,,,1,4,4,stim/44.jpeg,HouseObjects,1,stim/objects/HouseObjects/thermometer.png,0.5,1,-0.2,0.15,left,39,2020-12-13_15h36.22.372,premup-three_ses-01_part-01_label-phase1,3.2.4,MacIntel,60,right,0.244999886,4,0,4,0,1,3,1,0,240,51,1,239,,,,,,,,,,,,,,,,,,
,,0,126,,,,,,,3,2,3,stim/23.jpeg,Instruments,2,stim/objects/Instruments/vuvuzela2.png,0.1,2,0.2,0.15,right,39,2020-12-13_15h36.22.372,premup-three_ses-01_part-01_label-phase1,3.2.4,MacIntel,60,left,0.371999979,4,0,4,0,1,3,1,0,240,238,1,239,,,,,,,,,,,,,,,,,,
,,1,127,,,,,,,1,3,4,stim/34.jpeg,Instruments,2,stim/objects/Instruments/tambourine.png,0.5,1,-0.2,0.15,right,39,2020-12-13_15h36.22.372,premup-three_ses-01_part-01_label-phase1,3.2.4,MacIntel,60,right,0.485000134,4,0,4,0,1,3,1,0,240,23,1,239,,,,,,,,,,,,,,,,,,
,,0,128,,,,,,,3,1,3,stim/13.jpeg,Instruments,2,stim/objects/Instruments/trombone2.png,0.9,3,-0.2,-0.15,right,39,2020-12-13_15h36.22.372,premup-three_ses-01_part-01_label-phase1,3.2.4,MacIntel,60,left,0.470000029,4,0,4,0,1,3,1,0,240,198,1,239,,,,,,,,,,,,,,,,,,
,,1,129,,,,,,,1,3,1,stim/31.jpeg,HouseObjects,1,stim/objects/HouseObjects/rug.png,0.5,3,-0.2,-0.15,left,39,2020-12-13_15h36.22.372,premup-three_ses-01_part-01_label-phase1,3.2.4,MacIntel,60,left,0.294000149,4,0,4,0,1,3,1,0,240,0,1,239,,,,,,,,,,,,,,,,,,
,,1,130,,,,,,,2,5,2,stim/52.jpeg,Instruments,2,stim/objects/Instruments/violin.png,0.7,2,0.2,0.15,right,39,2020-12-13_15h36.22.372,premup-three_ses-01_part-01_label-phase1,3.2.4,MacIntel,60,right,0.359999895,4,0,4,0,1,3,1,0,240,117,1,239,,,,,,,,,,,,,,,,,,
,,0,131,,,,,,,3,1,1,stim/11.jpeg,Instruments,2,stim/objects/Instruments/timbal2.png,0.9,1,-0.2,0.15,right,39,2020-12-13_15h36.22.372,premup-three_ses-01_part-01_label-phase1,3.2.4,MacIntel,60,left,0.131000042,4,0,4,0,1,3,1,0,240,176,1,239,,,,,,,,,,,,,,,,,,
,,0,132,,,,,,,2,6,2,stim/62.jpeg,HouseObjects,1,stim/objects/HouseObjects/safetypin2.png,0.7,1,-0.2,0.15,left,39,2020-12-13_15h36.22.372,premup-three_ses-01_part-01_label-phase1,3.2.4,MacIntel,60,right,0.337000132,4,0,4,0,1,3,1,0,240,145,1,239,,,,,,,,,,,,,,,,,,
,,1,133,,,,,,,1,4,3,stim/43.jpeg,HouseObjects,1,stim/objects/HouseObjects/teapot.png,0.5,2,0.2,0.15,left,39,2020-12-13_15h36.22.372,premup-three_ses-01_part-01_label-phase1,3.2.4,MacIntel,60,left,0.394999981,4,0,4,0,1,3,1,0,240,50,1,239,,,,,,,,,,,,,,,,,,
,,1,134,,,,,,,3,2,2,stim/22.jpeg,HouseObjects,1,stim/objects/HouseObjects/towel2.png,0.9,2,0.2,0.15,left,39,2020-12-13_15h36.22.372,premup-three_ses-01_part-01_label-phase1,3.2.4,MacIntel,60,left,0.355999947,4,0,4,0,1,3,1,0,240,217,1,239,,,,,,,,,,,,,,,,,,
,,0,135,,,,,,,2,6,2,stim/62.jpeg,HouseObjects,1,stim/objects/HouseObjects/safetypin2.png,0.7,3,-0.2,-0.15,left,39,2020-12-13_15h36.22.372,premup-three_ses-01_part-01_label-phase1,3.2.4,MacIntel,60,right,0.440999985,4,0,4,0,1,3,1,0,240,121,1,239,,,,,,,,,,,,,,,,,,
,,0,136,,,,,,,3,1,1,stim/11.jpeg,Instruments,2,stim/objects/Instruments/timbal2.png,0.9,1,-0.2,0.15,right,39,2020-12-13_15h36.22.372,premup-three_ses-01_part-01_label-phase1,3.2.4,MacIntel,60,left,0.342999935,4,0,4,0,1,3,1,0,240,184,1,239,,,,,,,,,,,,,,,,,,
,,0,137,,,,,,,1,3,3,stim/33.jpeg,HouseObjects,1,stim/objects/HouseObjects/saw.png,0.5,1,-0.2,0.15,left,39,2020-12-13_15h36.22.372,premup-three_ses-01_part-01_label-phase1,3.2.4,MacIntel,60,right,0.57400012,4,0,4,0,1,3,1,0,240,10,1,239,,,,,,,,,,,,,,,,,,
,,1,138,,,,,,,2,5,4,stim/54.jpeg,HouseObjects,1,stim/objects/HouseObjects/wateringcan.png,0.3,2,0.2,0.15,left,39,2020-12-13_15h36.22.372,premup-three_ses-01_part-01_label-phase1,3.2.4,MacIntel,60,left,0.522000074,4,0,4,0,1,3,1,0,240,87,1,239,,,,,,,,,,,,,,,,,,
,,1,139,,,,,,,2,5,3,stim/53.jpeg,HouseObjects,1,stim/objects/HouseObjects/vacuumcleaner.png,0.3,3,-0.2,-0.15,left,39,2020-12-13_15h36.22.372,premup-three_ses-01_part-01_label-phase1,3.2.4,MacIntel,60,left,0.638999939,4,0,4,0,1,3,1,0,240,82,1,239,,,,,,,,,,,,,,,,,,
,,1,140,,,,,,,2,5,1,stim/51.jpeg,Instruments,2,stim/objects/Instruments/tuba.png,0.7,1,-0.2,0.15,right,39,2020-12-13_15h36.22.372,premup-three_ses-01_part-01_label-phase1,3.2.4,MacIntel,60,right,0.506000042,4,0,4,0,1,3,1,0,240,92,1,239,,,,,,,,,,,,,,,,,,
,,0,141,,,,,,,2,5,4,stim/54.jpeg,Instruments,2,stim/objects/Instruments/xylophone.png,0.7,4,0.2,-0.15,right,39,2020-12-13_15h36.22.372,premup-three_ses-01_part-01_label-phase1,3.2.4,MacIntel,60,left,0.625,4,0,4,0,1,3,1,0,240,111,1,239,,,,,,,,,,,,,,,,,,
,,1,142,,,,,,,3,1,3,stim/13.jpeg,Instruments,2,stim/objects/Instruments/trombone2.png,0.9,2,0.2,0.15,right,39,2020-12-13_15h36.22.372,premup-three_ses-01_part-01_label-phase1,3.2.4,MacIntel,60,right,0.467999935,4,0,4,0,1,3,1,0,240,174,1,239,,,,,,,,,,,,,,,,,,
,,0,143,,,,,,,1,4,2,stim/42.jpeg,Instruments,2,stim/objects/Instruments/triangle.png,0.5,1,-0.2,0.15,right,39,2020-12-13_15h36.22.372,premup-three_ses-01_part-01_label-phase1,3.2.4,MacIntel,60,left,0.426000118,4,0,4,0,1,3,1,0,240,61,1,239,,,,,,,,,,,,,,,,,,
,,1,144,,,,,,,3,1,2,stim/12.jpeg,Instruments,2,stim/objects/Instruments/triangle2.png,0.9,4,0.2,-0.15,right,39,2020-12-13_15h36.22.372,premup-three_ses-01_part-01_label-phase1,3.2.4,MacIntel,60,right,0.605000019,4,0,4,0,1,3,1,0,240,185,1,239,,,,,,,,,,,,,,,,,,
,,0,145,,,,,,,3,1,1,stim/11.jpeg,Instruments,2,stim/objects/Instruments/timbal2.png,0.9,2,0.2,0.15,right,39,2020-12-13_15h36.22.372,premup-three_ses-01_part-01_label-phase1,3.2.4,MacIntel,60,left,0.556999922,4,0,4,0,1,3,1,0,240,196,1,239,,,,,,,,,,,,,,,,,,
,,0,146,,,,,,,1,3,2,stim/32.jpeg,HouseObjects,1,stim/objects/HouseObjects/safetypin.png,0.5,4,0.2,-0.15,left,39,2020-12-13_15h36.22.372,premup-three_ses-01_part-01_label-phase1,3.2.4,MacIntel,60,right,0.673999786,4,0,4,0,1,3,1,0,240,13,1,239,,,,,,,,,,,,,,,,,,
,,1,147,,,,,,,3,2,3,stim/23.jpeg,HouseObjects,1,stim/objects/HouseObjects/vacuumcleaner2.png,0.9,4,0.2,-0.15,left,39,2020-12-13_15h36.22.372,premup-three_ses-01_part-01_label-phase1,3.2.4,MacIntel,60,left,0.671000004,4,0,4,0,1,3,1,0,240,226,1,239,,,,,,,,,,,,,,,,,,
,,1,148,,,,,,,1,3,1,stim/31.jpeg,Instruments,2,stim/objects/Instruments/record_player.png,0.5,4,0.2,-0.15,right,39,2020-12-13_15h36.22.372,premup-three_ses-01_part-01_label-phase1,3.2.4,MacIntel,60,right,0.69299984,4,0,4,0,1,3,1,0,240,24,1,239,,,,,,,,,,,,,,,,,,
,,0,149,,,,,,,1,4,3,stim/43.jpeg,Instruments,2,stim/objects/Instruments/trombone.png,0.5,4,0.2,-0.15,right,39,2020-12-13_15h36.22.372,premup-three_ses-01_part-01_label-phase1,3.2.4,MacIntel,60,left,0.756000042,4,0,4,0,1,3,1,0,240,66,1,239,,,,,,,,,,,,,,,,,,
,,0,150,,,,,,,1,4,1,stim/41.jpeg,HouseObjects,1,stim/objects/HouseObjects/sponge.png,0.5,3,-0.2,-0.15,left,39,2020-12-13_15h36.22.372,premup-three_ses-01_part-01_label-phase1,3.2.4,MacIntel,60,right,0.173999786,4,0,4,0,1,3,1,0,240,40,1,239,,,,,,,,,,,,,,,,,,
,,1,151,,,,,,,1,3,1,stim/31.jpeg,HouseObjects,1,stim/objects/HouseObjects/rug.png,0.5,3,-0.2,-0.15,left,39,2020-12-13_15h36.22.372,premup-three_ses-01_part-01_label-phase1,3.2.4,MacIntel,60,left,0.601000071,4,0,4,0,1,3,1,0,240,4,1,239,,,,,,,,,,,,,,,,,,
,,0,152,,,,,,,3,1,3,stim/13.jpeg,HouseObjects,1,stim/objects/HouseObjects/teapot2.png,0.1,1,-0.2,0.15,left,39,2020-12-13_15h36.22.372,premup-three_ses-01_part-01_label-phase1,3.2.4,MacIntel,60,right,0.59100008,4,0,4,0,1,3,1,0,240,162,1,239,,,,,,,,,,,,,,,,,,
,,1,153,,,,,,,3,2,1,stim/21.jpeg,HouseObjects,1,stim/objects/HouseObjects/thread2.png,0.9,4,0.2,-0.15,left,39,2020-12-13_15h36.22.372,premup-three_ses-01_part-01_label-phase1,3.2.4,MacIntel,60,left,0.522000074,4,0,4,0,1,3,1,0,240,224,1,239,,,,,,,,,,,,,,,,,,
,,1,154,,,,,,,2,6,4,stim/64.jpeg,HouseObjects,1,stim/objects/HouseObjects/scale2.png,0.7,2,0.2,0.15,left,39,2020-12-13_15h36.22.372,premup-three_ses-01_part-01_label-phase1,3.2.4,MacIntel,60,left,0.486999989,4,0,4,0,1,3,1,0,240,147,1,239,,,,,,,,,,,,,,,,,,
,,0,155,,,,,,,1,4,4,stim/44.jpeg,Instruments,2,stim/objects/Instruments/trumpet.png,0.5,2,0.2,0.15,right,39,2020-12-13_15h36.22.372,premup-three_ses-01_part-01_label-phase1,3.2.4,MacIntel,60,left,0.509000063,4,0,4,0,1,3,1,0,240,75,1,239,,,,,,,,,,,,,,,,,,
,,0,156,,,,,,,2,5,4,stim/54.jpeg,Instruments,2,stim/objects/Instruments/xylophone.png,0.7,3,-0.2,-0.15,right,39,2020-12-13_15h36.22.372,premup-three_ses-01_part-01_label-phase1,3.2.4,MacIntel,60,left,0.424000025,4,0,4,0,1,3,1,0,240,103,1,239,,,,,,,,,,,,,,,,,,
,,0,157,,,,,,,2,6,3,stim/63.jpeg,Instruments,2,stim/objects/Instruments/speaker2.png,0.3,4,0.2,-0.15,right,39,2020-12-13_15h36.22.372,premup-three_ses-01_part-01_label-phase1,3.2.4,MacIntel,60,left,0.430000067,4,0,4,0,1,3,1,0,240,154,1,239,,,,,,,,,,,,,,,,,,
,,0,158,,,,,,,1,3,2,stim/32.jpeg,HouseObjects,1,stim/objects/HouseObjects/safetypin.png,0.5,3,-0.2,-0.15,left,39,2020-12-13_15h36.22.372,premup-three_ses-01_part-01_label-phase1,3.2.4,MacIntel,60,right,0.338000059,4,0,4,0,1,3,1,0,240,9,1,239,,,,,,,,,,,,,,,,,,
,,1,159,,,,,,,3,2,4,stim/24.jpeg,HouseObjects,1,stim/objects/HouseObjects/wateringcan2.png,0.9,1,-0.2,0.15,left,39,2020-12-13_15h36.22.372,premup-three_ses-01_part-01_label-phase1,3.2.4,MacIntel,60,left,0.358999968,4,0,4,0,1,3,1,0,240,207,1,239,,,,,,,,,,,,,,,,,,
,,1,160,,,,,,,2,6,3,stim/63.jpeg,HouseObjects,1,stim/objects/HouseObjects/saw2.png,0.7,4,0.2,-0.15,left,39,2020-12-13_15h36.22.372,premup-three_ses-01_part-01_label-phase1,3.2.4,MacIntel,60,left,0.402999878,4,0,4,0,1,3,1,0,240,126,1,239,,,,,,,,,,,,,,,,,,
,,1,161,,,,,,,2,6,4,stim/64.jpeg,HouseObjects,1,stim/objects/HouseObjects/scale2.png,0.7,4,0.2,-0.15,left,39,2020-12-13_15h36.22.372,premup-three_ses-01_part-01_label-phase1,3.2.4,MacIntel,60,left,0.405999899,4,0,4,0,1,3,1,0,240,139,1,239,,,,,,,,,,,,,,,,,,
,,1,162,,,,,,,2,6,4,stim/64.jpeg,HouseObjects,1,stim/objects/HouseObjects/scale2.png,0.7,3,-0.2,-0.15,left,39,2020-12-13_15h36.22.372,premup-three_ses-01_part-01_label-phase1,3.2.4,MacIntel,60,left,0.414999962,4,0,4,0,1,3,1,0,240,127,1,239,,,,,,,,,,,,,,,,,,
,,1,163,,,,,,,3,2,3,stim/23.jpeg,HouseObjects,1,stim/objects/HouseObjects/vacuumcleaner2.png,0.9,2,0.2,0.15,left,39,2020-12-13_15h36.22.372,premup-three_ses-01_part-01_label-phase1,3.2.4,MacIntel,60,left,0.534999847,4,0,4,0,1,3,1,0,240,230,1,239,,,,,,,,,,,,,,,,,,
,,0,164,,,,,,,2,6,4,stim/64.jpeg,Instruments,2,stim/objects/Instruments/tambourine2.png,0.3,3,-0.2,-0.15,right,39,2020-12-13_15h36.22.372,premup-three_ses-01_part-01_label-phase1,3.2.4,MacIntel,60,left,0.401000023,4,0,4,0,1,3,1,0,240,151,1,239,,,,,,,,,,,,,,,,,,
,,0,165,,,,,,,1,4,2,stim/42.jpeg,HouseObjects,1,stim/objects/HouseObjects/spraybottle.png,0.5,4,0.2,-0.15,left,39,2020-12-13_15h36.22.372,premup-three_ses-01_part-01_label-phase1,3.2.4,MacIntel,60,right,0.606000185,4,0,4,0,1,3,1,0,240,45,1,239,,,,,,,,,,,,,,,,,,
,,1,166,,,,,,,1,4,1,stim/41.jpeg,HouseObjects,1,stim/objects/HouseObjects/sponge.png,0.5,4,0.2,-0.15,left,39,2020-12-13_15h36.22.372,premup-three_ses-01_part-01_label-phase1,3.2.4,MacIntel,60,left,0.309000015,4,0,4,0,1,3,1,0,240,56,1,239,,,,,,,,,,,,,,,,,,
,,0,167,,,,,,,1,3,2,stim/32.jpeg,Instruments,2,stim/objects/Instruments/saxophone.png,0.5,1,-0.2,0.15,right,39,2020-12-13_15h36.22.372,premup-three_ses-01_part-01_label-phase1,3.2.4,MacIntel,60,left,0.221999884,4,0,4,0,1,3,1,0,240,21,1,239,,,,,,,,,,,,,,,,,,
,,0,168,,,,,,,2,6,2,stim/62.jpeg,HouseObjects,1,stim/objects/HouseObjects/safetypin2.png,0.7,2,0.2,0.15,left,39,2020-12-13_15h36.22.372,premup-three_ses-01_part-01_label-phase1,3.2.4,MacIntel,60,right,0.227999926,4,0,4,0,1,3,1,0,240,129,1,239,,,,,,,,,,,,,,,,,,
,,0,169,,,,,,,1,4,1,stim/41.jpeg,Instruments,2,stim/objects/Instruments/timbal.png,0.5,2,0.2,0.15,right,39,2020-12-13_15h36.22.372,premup-three_ses-01_part-01_label-phase1,3.2.4,MacIntel,60,left,0.203999996,4,0,4,0,1,3,1,0,240,64,1,239,,,,,,,,,,,,,,,,,,
,,1,170,,,,,,,3,2,3,stim/23.jpeg,HouseObjects,1,stim/objects/HouseObjects/vacuumcleaner2.png,0.9,3,-0.2,-0.15,left,39,2020-12-13_15h36.22.372,premup-three_ses-01_part-01_label-phase1,3.2.4,MacIntel,60,left,0.253999949,4,0,4,0,1,3,1,0,240,222,1,239,,,,,,,,,,,,,,,,,,
,,0,171,,,,,,,1,3,3,stim/33.jpeg,Instruments,2,stim/objects/Instruments/speaker.png,0.5,3,-0.2,-0.15,right,39,2020-12-13_15h36.22.372,premup-three_ses-01_part-01_label-phase1,3.2.4,MacIntel,60,left,0.50999999,4,0,4,0,1,3,1,0,240,22,1,239,,,,,,,,,,,,,,,,,,
,,0,172,,,,,,,3,1,2,stim/12.jpeg,Instruments,2,stim/objects/Instruments/triangle2.png,0.9,3,-0.2,-0.15,right,39,2020-12-13_15h36.22.372,premup-three_ses-01_part-01_label-phase1,3.2.4,MacIntel,60,left,0.258999825,4,0,4,0,1,3,1,0,240,189,1,239,,,,,,,,,,,,,,,,,,
,,1,173,,,,,,,3,1,4,stim/14.jpeg,Instruments,2,stim/objects/Instruments/trumpet2.png,0.9,2,0.2,0.15,right,39,2020-12-13_15h36.22.372,premup-three_ses-01_part-01_label-phase1,3.2.4,MacIntel,60,right,0.721999884,4,0,4,0,1,3,1,0,240,171,1,239,,,,,,,,,,,,,,,,,,
,,0,174,,,,,,,3,1,1,stim/11.jpeg,Instruments,2,stim/objects/Instruments/timbal2.png,0.9,1,-0.2,0.15,right,39,2020-12-13_15h36.22.372,premup-three_ses-01_part-01_label-phase1,3.2.4,MacIntel,60,left,0.225999832,4,0,4,0,1,3,1,0,240,164,1,239,,,,,,,,,,,,,,,,,,
,,0,175,,,,,,,1,4,1,stim/41.jpeg,Instruments,2,stim/objects/Instruments/timbal.png,0.5,2,0.2,0.15,right,39,2020-12-13_15h36.22.372,premup-three_ses-01_part-01_label-phase1,3.2.4,MacIntel,60,left,0.655999899,4,0,4,0,1,3,1,0,240,68,1,239,,,,,,,,,,,,,,,,,,
,,0,176,,,,,,,2,5,3,stim/53.jpeg,Instruments,2,stim/objects/Instruments/vuvuzela.png,0.7,2,0.2,0.15,right,39,2020-12-13_15h36.22.372,premup-three_ses-01_part-01_label-phase1,3.2.4,MacIntel,60,left,0.623000145,4,0,4,0,1,3,1,0,240,114,1,239,,,,,,,,,,,,,,,,,,
,,1,177,,,,,,,2,6,3,stim/63.jpeg,Instruments,2,stim/objects/Instruments/speaker2.png,0.3,1,-0.2,0.15,right,39,2020-12-13_15h36.22.372,premup-three_ses-01_part-01_label-phase1,3.2.4,MacIntel,60,right,0.462000132,4,0,4,0,1,3,1,0,240,150,1,239,,,,,,,,,,,,,,,,,,
,,1,178,,,,,,,1,4,1,stim/41.jpeg,HouseObjects,1,stim/objects/HouseObjects/sponge.png,0.5,4,0.2,-0.15,left,39,2020-12-13_15h36.22.372,premup-three_ses-01_part-01_label-phase1,3.2.4,MacIntel,60,left,0.59100008,4,0,4,0,1,3,1,0,240,44,1,239,,,,,,,,,,,,,,,,,,
,,0,179,,,,,,,3,1,4,stim/14.jpeg,Instruments,2,stim/objects/Instruments/trumpet2.png,0.9,3,-0.2,-0.15,right,39,2020-12-13_15h36.22.372,premup-three_ses-01_part-01_label-phase1,3.2.4,MacIntel,60,left,0.625999928,4,0,4,0,1,3,1,0,240,167,1,239,,,,,,,,,,,,,,,,,,
,,0,180,,,,,,,2,5,2,stim/52.jpeg,Instruments,2,stim/objects/Instruments/violin.png,0.7,4,0.2,-0.15,right,39,2020-12-13_15h36.22.372,premup-three_ses-01_part-01_label-phase1,3.2.4,MacIntel,60,left,0.572999954,4,0,4,0,1,3,1,0,240,109,1,239,,,,,,,,,,,,,,,,,,
,,0,181,,,,,,,3,2,2,stim/22.jpeg,HouseObjects,1,stim/objects/HouseObjects/towel2.png,0.9,3,-0.2,-0.15,left,39,2020-12-13_15h36.22.372,premup-three_ses-01_part-01_label-phase1,3.2.4,MacIntel,60,right,0.305000067,4,0,4,0,1,3,1,0,240,229,1,239,,,,,,,,,,,,,,,,,,
,,1,182,,,,,,,2,6,2,stim/62.jpeg,Instruments,2,stim/objects/Instruments/saxophone2.png,0.3,4,0.2,-0.15,right,39,2020-12-13_15h36.22.372,premup-three_ses-01_part-01_label-phase1,3.2.4,MacIntel,60,right,0.773000002,4,0,4,0,1,3,1,0,240,149,1,239,,,,,,,,,,,,,,,,,,
,,0,183,,,,,,,3,1,1,stim/11.jpeg,Instruments,2,stim/objects/Instruments/timbal2.png,0.9,2,0.2,0.15,right,39,2020-12-13_15h36.22.372,premup-three_ses-01_part-01_label-phase1,3.2.4,MacIntel,60,left,0.552999973,4,0,4,0,1,3,1,0,240,168,1,239,,,,,,,,,,,,,,,,,,
,,0,184,,,,,,,3,1,4,stim/14.jpeg,Instruments,2,stim/objects/Instruments/trumpet2.png,0.9,3,-0.2,-0.15,right,39,2020-12-13_15h36.22.372,premup-three_ses-01_part-01_label-phase1,3.2.4,MacIntel,60,left,0.389999866,4,0,4,0,1,3,1,0,240,195,1,239,,,,,,,,,,,,,,,,,,
,,0,185,,,,,,,1,4,4,stim/44.jpeg,Instruments,2,stim/objects/Instruments/trumpet.png,0.5,4,0.2,-0.15,right,39,2020-12-13_15h36.22.372,premup-three_ses-01_part-01_label-phase1,3.2.4,MacIntel,60,left,0.53399992,4,0,4,0,1,3,1,0,240,79,1,239,,,,,,,,,,,,,,,,,,
,,1,186,,,,,,,2,6,3,stim/63.jpeg,HouseObjects,1,stim/objects/HouseObjects/saw2.png,0.7,2,0.2,0.15,left,39,2020-12-13_15h36.22.372,premup-three_ses-01_part-01_label-phase1,3.2.4,MacIntel,60,left,0.476000071,4,0,4,0,1,3,1,0,240,130,1,239,,,,,,,,,,,,,,,,,,
,,1,187,,,,,,,1,3,2,stim/32.jpeg,Instruments,2,stim/objects/Instruments/saxophone.png,0.5,1,-0.2,0.15,right,39,2020-12-13_15h36.22.372,premup-three_ses-01_part-01_label-phase1,3.2.4,MacIntel,60,right,0.500999928,4,0,4,0,1,3,1,0,240,33,1,239,,,,,,,,,,,,,,,,,,
,,0,188,,,,,,,3,1,1,stim/11.jpeg,Instruments,2,stim/objects/Instruments/timbal2.png,0.9,1,-0.2,0.15,right,39,2020-12-13_15h36.22.372,premup-three_ses-01_part-01_label-phase1,3.2.4,MacIntel,60,left,0.828999996,4,0,4,0,1,3,1,0,240,188,1,239,,,,,,,,,,,,,,,,,,
,,1,189,,,,,,,3,2,4,stim/24.jpeg,Instruments,2,stim/objects/Instruments/xylophone2.png,0.1,3,-0.2,-0.15,right,39,2020-12-13_15h36.22.372,premup-three_ses-01_part-01_label-phase1,3.2.4,MacIntel,60,right,0.570999861,4,0,4,0,1,3,1,0,240,239,1,239,,,,,,,,,,,,,,,,,,
,,1,190,,,,,,,3,2,2,stim/22.jpeg,HouseObjects,1,stim/objects/HouseObjects/towel2.png,0.9,4,0.2,-0.15,left,39,2020-12-13_15h36.22.372,premup-three_ses-01_part-01_label-phase1,3.2.4,MacIntel,60,left,0.578000069,4,0,4,0,1,3,1,0,240,205,1,239,,,,,,,,,,,,,,,,,,
,,0,191,,,,,,,3,2,3,stim/23.jpeg,HouseObjects,1,stim/objects/HouseObjects/vacuumcleaner2.png,0.9,4,0.2,-0.15,left,39,2020-12-13_15h36.22.372,premup-three_ses-01_part-01_label-phase1,3.2.4,MacIntel,60,right,0.562999964,4,0,4,0,1,3,1,0,240,202,1,239,,,,,,,,,,,,,,,,,,
,,1,192,,,,,,,3,1,4,stim/14.jpeg,Instruments,2,stim/objects/Instruments/trumpet2.png,0.9,3,-0.2,-0.15,right,39,2020-12-13_15h36.22.372,premup-three_ses-01_part-01_label-phase1,3.2.4,MacIntel,60,right,0.595000029,4,0,4,0,1,3,1,0,240,183,1,239,,,,,,,,,,,,,,,,,,
,,0,193,,,,,,,3,1,3,stim/13.jpeg,Instruments,2,stim/objects/Instruments/trombone2.png,0.9,4,0.2,-0.15,right,39,2020-12-13_15h36.22.372,premup-three_ses-01_part-01_label-phase1,3.2.4,MacIntel,60,left,0.555999994,4,0,4,0,1,3,1,0,240,194,1,239,,,,,,,,,,,,,,,,,,
,,1,194,,,,,,,2,6,4,stim/64.jpeg,Instruments,2,stim/objects/Instruments/tambourine2.png,0.3,4,0.2,-0.15,right,39,2020-12-13_15h36.22.372,premup-three_ses-01_part-01_label-phase1,3.2.4,MacIntel,60,right,0.407999992,4,0,4,0,1,3,1,0,240,159,1,239,,,,,,,,,,,,,,,,,,
,,0,195,,,,,,,3,1,2,stim/12.jpeg,Instruments,2,stim/objects/Instruments/triangle2.png,0.9,3,-0.2,-0.15,right,39,2020-12-13_15h36.22.372,premup-three_ses-01_part-01_label-phase1,3.2.4,MacIntel,60,left,0.489000082,4,0,4,0,1,3,1,0,240,181,1,239,,,,,,,,,,,,,,,,,,
,,1,196,,,,,,,1,3,3,stim/33.jpeg,HouseObjects,1,stim/objects/HouseObjects/saw.png,0.5,2,0.2,0.15,left,39,2020-12-13_15h36.22.372,premup-three_ses-01_part-01_label-phase1,3.2.4,MacIntel,60,left,0.328000069,4,0,4,0,1,3,1,0,240,6,1,239,,,,,,,,,,,,,,,,,,
,,1,197,,,,,,,2,6,3,stim/63.jpeg,HouseObjects,1,stim/objects/HouseObjects/saw2.png,0.7,4,0.2,-0.15,left,39,2020-12-13_15h36.22.372,premup-three_ses-01_part-01_label-phase1,3.2.4,MacIntel,60,left,0.241000175,4,0,4,0,1,3,1,0,240,146,1,239,,,,,,,,,,,,,,,,,,
,,0,198,,,,,,,3,1,2,stim/12.jpeg,Instruments,2,stim/objects/Instruments/triangle2.png,0.9,1,-0.2,0.15,right,39,2020-12-13_15h36.22.372,premup-three_ses-01_part-01_label-phase1,3.2.4,MacIntel,60,left,0.361999989,4,0,4,0,1,3,1,0,240,193,1,239,,,,,,,,,,,,,,,,,,
,,1,199,,,,,,,1,4,4,stim/44.jpeg,Instruments,2,stim/objects/Instruments/trumpet.png,0.5,3,-0.2,-0.15,right,39,2020-12-13_15h36.22.372,premup-three_ses-01_part-01_label-phase1,3.2.4,MacIntel,60,right,0.30700016,4,0,4,0,1,3,1,0,240,67,1,239,,,,,,,,,,,,,,,,,,
,,0,200,,,,,,,1,4,3,stim/43.jpeg,Instruments,2,stim/objects/Instruments/trombone.png,0.5,3,-0.2,-0.15,right,39,2020-12-13_15h36.22.372,premup-three_ses-01_part-01_label-phase1,3.2.4,MacIntel,60,left,0.426000118,4,0,4,0,1,3,1,0,240,70,1,239,,,,,,,,,,,,,,,,,,
,,0,201,,,,,,,3,2,3,stim/23.jpeg,HouseObjects,1,stim/objects/HouseObjects/vacuumcleaner2.png,0.9,3,-0.2,-0.15,left,39,2020-12-13_15h36.22.372,premup-three_ses-01_part-01_label-phase1,3.2.4,MacIntel,60,right,0.388999939,4,0,4,0,1,3,1,0,240,234,1,239,,,,,,,,,,,,,,,,,,
,,0,202,,,,,,,1,3,4,stim/34.jpeg,Instruments,2,stim/objects/Instruments/tambourine.png,0.5,1,-0.2,0.15,right,39,2020-12-13_15h36.22.372,premup-three_ses-01_part-01_label-phase1,3.2.4,MacIntel,60,left,0.424999952,4,0,4,0,1,3,1,0,240,27,1,239,,,,,,,,,,,,,,,,,,
,,1,203,,,,,,,3,2,1,stim/21.jpeg,HouseObjects,1,stim/objects/HouseObjects/thread2.png,0.9,1,-0.2,0.15,left,39,2020-12-13_15h36.22.372,premup-three_ses-01_part-01_label-phase1,3.2.4,MacIntel,60,left,0.389999866,4,0,4,0,1,3,1,0,240,200,1,239,,,,,,,,,,,,,,,,,,
,,0,204,,,,,,,2,5,1,stim/51.jpeg,Instruments,2,stim/objects/Instruments/tuba.png,0.7,1,-0.2,0.15,right,39,2020-12-13_15h36.22.372,premup-three_ses-01_part-01_label-phase1,3.2.4,MacIntel,60,left,0.443000078,4,0,4,0,1,3,1,0,240,100,1,239,,,,,,,,,,,,,,,,,,
,,1,205,,,,,,,2,6,2,stim/62.jpeg,Instruments,2,stim/objects/Instruments/saxophone2.png,0.3,4,0.2,-0.15,right,39,2020-12-13_15h36.22.372,premup-three_ses-01_part-01_label-phase1,3.2.4,MacIntel,60,right,0.454999924,4,0,4,0,1,3,1,0,240,153,1,239,,,,,,,,,,,,,,,,,,
,,1,206,,,,,,,1,4,3,stim/43.jpeg,HouseObjects,1,stim/objects/HouseObjects/teapot.png,0.5,4,0.2,-0.15,left,39,2020-12-13_15h36.22.372,premup-three_ses-01_part-01_label-phase1,3.2.4,MacIntel,60,left,0.55700016,4,0,4,0,1,3,1,0,240,54,1,239,,,,,,,,,,,,,,,,,,
,,0,207,,,,,,,2,5,3,stim/53.jpeg,Instruments,2,stim/objects/Instruments/vuvuzela.png,0.7,4,0.2,-0.15,right,39,2020-12-13_15h36.22.372,premup-three_ses-01_part-01_label-phase1,3.2.4,MacIntel,60,left,0.572000027,4,0,4,0,1,3,1,0,240,106,1,239,,,,,,,,,,,,,,,,,,
,,0,208,,,,,,,3,2,1,stim/21.jpeg,HouseObjects,1,stim/objects/HouseObjects/thread2.png,0.9,4,0.2,-0.15,left,39,2020-12-13_15h36.22.372,premup-three_ses-01_part-01_label-phase1,3.2.4,MacIntel,60,right,0.588999987,4,0,4,0,1,3,1,0,240,232,1,239,,,,,,,,,,,,,,,,,,
,,1,209,,,,,,,3,2,1,stim/21.jpeg,HouseObjects,1,stim/objects/HouseObjects/thread2.png,0.9,4,0.2,-0.15,left,39,2020-12-13_15h36.22.372,premup-three_ses-01_part-01_label-phase1,3.2.4,MacIntel,60,left,0.619999886,4,0,4,0,1,3,1,0,240,204,1,239,,,,,,,,,,,,,,,,,,
,,0,210,,,,,,,1,4,3,stim/43.jpeg,Instruments,2,stim/objects/Instruments/trombone.png,0.5,4,0.2,-0.15,right,39,2020-12-13_15h36.22.372,premup-three_ses-01_part-01_label-phase1,3.2.4,MacIntel,60,left,0.391000032,4,0,4,0,1,3,1,0,240,78,1,239,,,,,,,,,,,,,,,,,,
,,1,211,,,,,,,1,4,2,stim/42.jpeg,Instruments,2,stim/objects/Instruments/triangle.png,0.5,2,0.2,0.15,right,39,2020-12-13_15h36.22.372,premup-three_ses-01_part-01_label-phase1,3.2.4,MacIntel,60,right,0.578000069,4,0,4,0,1,3,1,0,240,69,1,239,,,,,,,,,,,,,,,,,,
,,1,212,,,,,,,3,1,3,stim/13.jpeg,Instruments,2,stim/objects/Instruments/trombone2.png,0.9,4,0.2,-0.15,right,39,2020-12-13_15h36.22.372,premup-three_ses-01_part-01_label-phase1,3.2.4,MacIntel,60,right,0.49000001,4,0,4,0,1,3,1,0,240,166,1,239,,,,,,,,,,,,,,,,,,
,,0,213,,,,,,,2,6,1,stim/61.jpeg,Instruments,2,stim/objects/Instruments/record_player2.png,0.3,1,-0.2,0.15,right,39,2020-12-13_15h36.22.372,premup-three_ses-01_part-01_label-phase1,3.2.4,MacIntel,60,left,0.416000128,4,0,4,0,1,3,1,0,240,148,1,239,,,,,,,,,,,,,,,,,,
,,1,214,,,,,,,1,4,2,stim/42.jpeg,HouseObjects,1,stim/objects/HouseObjects/spraybottle.png,0.5,4,0.2,-0.15,left,39,2020-12-13_15h36.22.372,premup-three_ses-01_part-01_label-phase1,3.2.4,MacIntel,60,left,0.752000093,4,0,4,0,1,3,1,0,240,53,1,239,,,,,,,,,,,,,,,,,,
,,1,215,,,,,,,2,6,3,stim/63.jpeg,HouseObjects,1,stim/objects/HouseObjects/saw2.png,0.7,3,-0.2,-0.15,left,39,2020-12-13_15h36.22.372,premup-three_ses-01_part-01_label-phase1,3.2.4,MacIntel,60,left,0.710999966,4,0,4,0,1,3,1,0,240,138,1,239,,,,,,,,,,,,,,,,,,
,,0,216,,,,,,,3,2,2,stim/22.jpeg,HouseObjects,1,stim/objects/HouseObjects/towel2.png,0.9,1,-0.2,0.15,left,39,2020-12-13_15h36.22.372,premup-three_ses-01_part-01_label-phase1,3.2.4,MacIntel,60,right,0.755999804,4,0,4,0,1,3,1,0,240,225,1,239,,,,,,,,,,,,,,,,,,
,,0,217,,,,,,,3,1,4,stim/14.jpeg,HouseObjects,1,stim/objects/HouseObjects/thermometer2.png,0.1,3,-0.2,-0.15,left,39,2020-12-13_15h36.22.372,premup-three_ses-01_part-01_label-phase1,3.2.4,MacIntel,60,right,0.730000019,4,0,4,0,1,3,1,0,240,163,1,239,,,,,,,,,,,,,,,,,,
,,0,218,,,,,,,2,5,2,stim/52.jpeg,Instruments,2,stim/objects/Instruments/violin.png,0.7,4,0.2,-0.15,right,39,2020-12-13_15h36.22.372,premup-three_ses-01_part-01_label-phase1,3.2.4,MacIntel,60,left,0.41899991,4,0,4,0,1,3,1,0,240,101,1,239,,,,,,,,,,,,,,,,,,
,,1,219,,,,,,,2,5,2,stim/52.jpeg,HouseObjects,1,stim/objects/HouseObjects/towel.png,0.3,4,0.2,-0.15,left,39,2020-12-13_15h36.22.372,premup-three_ses-01_part-01_label-phase1,3.2.4,MacIntel,60,left,0.361000061,4,0,4,0,1,3,1,0,240,81,1,239,,,,,,,,,,,,,,,,,,
,,0,220,,,,,,,2,5,4,stim/54.jpeg,Instruments,2,stim/objects/Instruments/xylophone.png,0.7,1,-0.2,0.15,right,39,2020-12-13_15h36.22.372,premup-three_ses-01_part-01_label-phase1,3.2.4,MacIntel,60,left,0.30700016,4,0,4,0,1,3,1,0,240,107,1,239,,,,,,,,,,,,,,,,,,
,,0,221,,,,,,,1,3,1,stim/31.jpeg,HouseObjects,1,stim/objects/HouseObjects/rug.png,0.5,2,0.2,0.15,left,39,2020-12-13_15h36.22.372,premup-three_ses-01_part-01_label-phase1,3.2.4,MacIntel,60,right,0.589999914,4,0,4,0,1,3,1,0,240,8,1,239,,,,,,,,,,,,,,,,,,
,,0,222,,,,,,,2,5,2,stim/52.jpeg,HouseObjects,1,stim/objects/HouseObjects/towel.png,0.3,2,0.2,0.15,left,39,2020-12-13_15h36.22.372,premup-three_ses-01_part-01_label-phase1,3.2.4,MacIntel,60,right,0.720999956,4,0,4,0,1,3,1,0,240,89,1,239,,,,,,,,,,,,,,,,,,
,,1,223,,,,,,,1,3,4,stim/34.jpeg,HouseObjects,1,stim/objects/HouseObjects/scale.png,0.5,3,-0.2,-0.15,left,39,2020-12-13_15h36.22.372,premup-three_ses-01_part-01_label-phase1,3.2.4,MacIntel,60,left,0.44299984,4,0,4,0,1,3,1,0,240,11,1,239,,,,,,,,,,,,,,,,,,
,,1,224,,,,,,,1,4,4,stim/44.jpeg,HouseObjects,1,stim/objects/HouseObjects/thermometer.png,0.5,3,-0.2,-0.15,left,39,2020-12-13_15h36.22.372,premup-three_ses-01_part-01_label-phase1,3.2.4,MacIntel,60,left,0.703999996,4,0,4,0,1,3,1,0,240,43,1,239,,,,,,,,,,,,,,,,,,
,,0,225,,,,,,,2,5,4,stim/54.jpeg,Instruments,2,stim/objects/Instruments/xylophone.png,0.7,1,-0.2,0.15,right,39,2020-12-13_15h36.22.372,premup-three_ses-01_part-01_label-phase1,3.2.4,MacIntel,60,left,0.726999998,4,0,4,0,1,3,1,0,240,115,1,239,,,,,,,,,,,,,,,,,,
,,0,226,,,,,,,1,3,4,stim/34.jpeg,Instruments,2,stim/objects/Instruments/tambourine.png,0.5,4,0.2,-0.15,right,39,2020-12-13_15h36.22.372,premup-three_ses-01_part-01_label-phase1,3.2.4,MacIntel,60,left,0.676000118,4,0,4,0,1,3,1,0,240,39,1,239,,,,,,,,,,,,,,,,,,
,,0,227,,,,,,,3,2,1,stim/21.jpeg,HouseObjects,1,stim/objects/HouseObjects/thread2.png,0.9,1,-0.2,0.15,left,39,2020-12-13_15h36.22.372,premup-three_ses-01_part-01_label-phase1,3.2.4,MacIntel,60,right,0.523000002,4,0,4,0,1,3,1,0,240,228,1,239,,,,,,,,,,,,,,,,,,
,,1,228,,,,,,,2,6,3,stim/63.jpeg,HouseObjects,1,stim/objects/HouseObjects/saw2.png,0.7,4,0.2,-0.15,left,39,2020-12-13_15h36.22.372,premup-three_ses-01_part-01_label-phase1,3.2.4,MacIntel,60,left,0.624000072,4,0,4,0,1,3,1,0,240,134,1,239,,,,,,,,,,,,,,,,,,
,,1,229,,,,,,,1,4,3,stim/43.jpeg,HouseObjects,1,stim/objects/HouseObjects/teapot.png,0.5,2,0.2,0.15,left,39,2020-12-13_15h36.22.372,premup-three_ses-01_part-01_label-phase1,3.2.4,MacIntel,60,left,0.842999935,4,0,4,0,1,3,1,0,240,46,1,239,,,,,,,,,,,,,,,,,,
,,0,230,,,,,,,1,4,1,stim/41.jpeg,Instruments,2,stim/objects/Instruments/timbal.png,0.5,4,0.2,-0.15,right,39,2020-12-13_15h36.22.372,premup-three_ses-01_part-01_label-phase1,3.2.4,MacIntel,60,left,0.455000162,4,0,4,0,1,3,1,0,240,60,1,239,,,,,,,,,,,,,,,,,,
,,0,231,,,,,,,1,4,3,stim/43.jpeg,Instruments,2,stim/objects/Instruments/trombone.png,0.5,3,-0.2,-0.15,right,39,2020-12-13_15h36.22.372,premup-three_ses-01_part-01_label-phase1,3.2.4,MacIntel,60,left,0.656000137,4,0,4,0,1,3,1,0,240,74,1,239,,,,,,,,,,,,,,,,,,
,,0,232,,,,,,,2,6,4,stim/64.jpeg,HouseObjects,1,stim/objects/HouseObjects/scale2.png,0.7,4,0.2,-0.15,left,39,2020-12-13_15h36.22.372,premup-three_ses-01_part-01_label-phase1,3.2.4,MacIntel,60,right,0.779999971,4,0,4,0,1,3,1,0,240,143,1,239,,,,,,,,,,,,,,,,,,
,,0,233,,,,,,,1,4,4,stim/44.jpeg,Instruments,2,stim/objects/Instruments/trumpet.png,0.5,1,-0.2,0.15,right,39,2020-12-13_15h36.22.372,premup-three_ses-01_part-01_label-phase1,3.2.4,MacIntel,60,left,0.508000135,4,0,4,0,1,3,1,0,240,63,1,239,,,,,,,,,,,,,,,,,,
,,0,234,,,,,,,3,1,3,stim/13.jpeg,Instruments,2,stim/objects/Instruments/trombone2.png,0.9,3,-0.2,-0.15,right,39,2020-12-13_15h36.22.372,premup-three_ses-01_part-01_label-phase1,3.2.4,MacIntel,60,left,0.541000128,4,0,4,0,1,3,1,0,240,186,1,239,,,,,,,,,,,,,,,,,,
,,0,235,,,,,,,2,6,1,stim/61.jpeg,Instruments,2,stim/objects/Instruments/record_player2.png,0.3,3,-0.2,-0.15,right,39,2020-12-13_15h36.22.372,premup-three_ses-01_part-01_label-phase1,3.2.4,MacIntel,60,left,0.827000141,4,0,4,0,1,3,1,0,240,156,1,239,,,,,,,,,,,,,,,,,,
,,1,236,,,,,,,2,5,2,stim/52.jpeg,Instruments,2,stim/objects/Instruments/violin.png,0.7,3,-0.2,-0.15,right,39,2020-12-13_15h36.22.372,premup-three_ses-01_part-01_label-phase1,3.2.4,MacIntel,60,right,0.721999884,4,0,4,0,1,3,1,0,240,93,1,239,,,,,,,,,,,,,,,,,,
,,1,237,,,,,,,2,6,2,stim/62.jpeg,HouseObjects,1,stim/objects/HouseObjects/safetypin2.png,0.7,1,-0.2,0.15,left,39,2020-12-13_15h36.22.372,premup-three_ses-01_part-01_label-phase1,3.2.4,MacIntel,60,left,0.588999987,4,0,4,0,1,3,1,0,240,141,1,239,,,,,,,,,,,,,,,,,,
,,1,238,,,,,,,3,2,3,stim/23.jpeg,HouseObjects,1,stim/objects/HouseObjects/vacuumcleaner2.png,0.9,4,0.2,-0.15,left,39,2020-12-13_15h36.22.372,premup-three_ses-01_part-01_label-phase1,3.2.4,MacIntel,60,left,0.59100008,4,0,4,0,1,3,1,0,240,206,1,239,,,,,,,,,,,,,,,,,,
,,0,239,,,,,,,2,5,4,stim/54.jpeg,Instruments,2,stim/objects/Instruments/xylophone.png,0.7,1,-0.2,0.15,right,39,2020-12-13_15h36.22.372,premup-three_ses-01_part-01_label-phase1,3.2.4,MacIntel,60,left,0.34100008,4,0,4,0,1,3,1,0,240,119,1,239,,,,,,,,,,,,,,,,,,
,,0,240,,,,,,,2,5,1,stim/51.jpeg,HouseObjects,1,stim/objects/HouseObjects/thread.png,0.3,4,0.2,-0.15,left,39,2020-12-13_15h36.22.372,premup-three_ses-01_part-01_label-phase1,3.2.4,MacIntel,60,right,0.372999907,4,0,4,0,1,3,1,0,240,84,1,239,,,,,,,,,,,,,,,,,,
,,,,,,,,,,,4,,stim/41.jpeg,,,,,,,,,39,2020-12-13_15h36.22.372,premup-three_ses-01_part-01_label-phase1,3.2.4,MacIntel,60,,,4,0,4,0,1,3,,,,,,,1,1,70,6.381999969,,,1,0,6,3,1,5,Household items,65,75,Music items,25,35
,,,,,,,,,,,5,,stim/51.jpeg,,,,,,,,,39,2020-12-13_15h36.22.372,premup-three_ses-01_part-01_label-phase1,3.2.4,MacIntel,60,,,4,0,4,0,1,3,,,,,,,1,1,57,2.480999947,,,1,0,6,4,1,5,Music items,5,15,Household items,85,95
,,,,,,,,,,,6,,stim/61.jpeg,,,,,,,,,39,2020-12-13_15h36.22.372,premup-three_ses-01_part-01_label-phase1,3.2.4,MacIntel,60,,,4,0,4,0,1,3,,,,,,,1,1,32,3.089999914,,,1,0,6,5,1,5,Household items,5,15,Music items,85,95
,,,,,,,,,,,3,,stim/31.jpeg,,,,,,,,,39,2020-12-13_15h36.22.372,premup-three_ses-01_part-01_label-phase1,3.2.4,MacIntel,60,,,4,0,4,0,1,3,,,,,,,1,1,34,3.509000063,,,1,0,6,2,1,5,Household items,65,75,Music items,25,35
,,,,,,,,,,,2,,stim/21.jpeg,,,,,,,,,39,2020-12-13_15h36.22.372,premup-three_ses-01_part-01_label-phase1,3.2.4,MacIntel,60,,,4,0,4,0,1,3,,,,,,,1,1,37,4.225000143,,,1,0,6,1,1,5,Music items,45,55,Household items,45,55
,,,,,,,,,,,1,,stim/11.jpeg,,,,,,,,,39,2020-12-13_15h36.22.372,premup-three_ses-01_part-01_label-phase1,3.2.4,MacIntel,60,,,4,0,4,0,1,3,,,,,,,1,1,31,5.628000021,,,1,0,6,0,1,5,Household items,45,55,Music items,45,55
,,,,,,,,,,,,,,,,,,,,,,39,2020-12-13_15h36.22.372,premup-three_ses-01_part-01_label-phase1,3.2.4,MacIntel,60,,,4,0,4,0,1,3,,,,,,,,,,,,,,,,,,,,,,,,
,,1,1,,,,,,,1,3,3,stim/33.jpeg,HouseObjects,1,stim/objects/HouseObjects/saw.png,0.5,3,-0.2,-0.15,left,39,2020-12-13_15h36.22.372,premup-three_ses-01_part-01_label-phase1,3.2.4,MacIntel,60,left,0.638999939,4,0,4,0,1,3,1,0,240,18,1,239,,,,,,,,,,,,,,,,,,
,,1,2,,,,,,,3,1,1,stim/11.jpeg,Instruments,2,stim/objects/Instruments/timbal2.png,0.9,1,-0.2,0.15,right,39,2020-12-13_15h36.22.372,premup-three_ses-01_part-01_label-phase1,3.2.4,MacIntel,60,right,0.924999952,4,0,4,0,1,3,1,0,240,164,1,239,,,,,,,,,,,,,,,,,,
,,1,3,,,,,,,3,2,4,stim/24.jpeg,HouseObjects,1,stim/objects/HouseObjects/wateringcan2.png,0.9,1,-0.2,0.15,left,39,2020-12-13_15h36.22.372,premup-three_ses-01_part-01_label-phase1,3.2.4,MacIntel,60,left,0.815999985,4,0,4,0,1,3,1,0,240,207,1,239,,,,,,,,,,,,,,,,,,
,,1,4,,,,,,,1,3,2,stim/32.jpeg,Instruments,2,stim/objects/Instruments/saxophone.png,0.5,1,-0.2,0.15,right,39,2020-12-13_15h36.22.372,premup-three_ses-01_part-01_label-phase1,3.2.4,MacIntel,60,right,0.88499999,4,0,4,0,1,3,1,0,240,21,1,239,,,,,,,,,,,,,,,,,,
,,0,5,,,,,,,2,6,3,stim/63.jpeg,Instruments,2,stim/objects/Instruments/speaker2.png,0.3,3,-0.2,-0.15,right,39,2020-12-13_15h36.22.372,premup-three_ses-01_part-01_label-phase1,3.2.4,MacIntel,60,left,0.769000053,4,0,4,0,1,3,1,0,240,158,1,239,,,,,,,,,,,,,,,,,,
,,1,6,,,,,,,1,3,1,stim/31.jpeg,Instruments,2,stim/objects/Instruments/record_player.png,0.5,1,-0.2,0.15,right,39,2020-12-13_15h36.22.372,premup-three_ses-01_part-01_label-phase1,3.2.4,MacIntel,60,right,0.634000063,4,0,4,0,1,3,1,0,240,32,1,239,,,,,,,,,,,,,,,,,,
,,0,7,,,,,,,1,3,2,stim/32.jpeg,Instruments,2,stim/objects/Instruments/saxophone.png,0.5,1,-0.2,0.15,right,39,2020-12-13_15h36.22.372,premup-three_ses-01_part-01_label-phase1,3.2.4,MacIntel,60,left,0.517999887,4,0,4,0,1,3,1,0,240,33,1,239,,,,,,,,,,,,,,,,,,
,,0,8,,,,,,,1,3,2,stim/32.jpeg,Instruments,2,stim/objects/Instruments/saxophone.png,0.5,1,-0.2,0.15,right,39,2020-12-13_15h36.22.372,premup-three_ses-01_part-01_label-phase1,3.2.4,MacIntel,60,left,0.450999975,4,0,4,0,1,3,1,0,240,37,1,239,,,,,,,,,,,,,,,,,,
,,1,9,,,,,,,2,5,1,stim/51.jpeg,Instruments,2,stim/objects/Instruments/tuba.png,0.7,2,0.2,0.15,right,39,2020-12-13_15h36.22.372,premup-three_ses-01_part-01_label-phase1,3.2.4,MacIntel,60,right,1.022000074,4,0,4,0,1,3,1,0,240,104,1,239,,,,,,,,,,,,,,,,,,
,,0,10,,,,,,,2,5,3,stim/53.jpeg,Instruments,2,stim/objects/Instruments/vuvuzela.png,0.7,1,-0.2,0.15,right,39,2020-12-13_15h36.22.372,premup-three_ses-01_part-01_label-phase1,3.2.4,MacIntel,60,left,0.638999939,4,0,4,0,1,3,1,0,240,98,1,239,,,,,,,,,,,,,,,,,,
,,0,11,,,,,,,2,6,1,stim/61.jpeg,Instruments,2,stim/objects/Instruments/record_player2.png,0.3,1,-0.2,0.15,right,39,2020-12-13_15h36.22.372,premup-three_ses-01_part-01_label-phase1,3.2.4,MacIntel,60,left,0.365999937,4,0,4,0,1,3,1,0,240,152,1,239,,,,,,,,,,,,,,,,,,
,,0,12,,,,,,,3,2,3,stim/23.jpeg,HouseObjects,1,stim/objects/HouseObjects/vacuumcleaner2.png,0.9,1,-0.2,0.15,left,39,2020-12-13_15h36.22.372,premup-three_ses-01_part-01_label-phase1,3.2.4,MacIntel,60,right,0.756999969,4,0,4,0,1,3,1,0,240,218,1,239,,,,,,,,,,,,,,,,,,
,,0,13,,,,,,,3,2,3,stim/23.jpeg,Instruments,2,stim/objects/Instruments/vuvuzela2.png,0.1,2,0.2,0.15,right,39,2020-12-13_15h36.22.372,premup-three_ses-01_part-01_label-phase1,3.2.4,MacIntel,60,left,0.368000031,4,0,4,0,1,3,1,0,240,238,1,239,,,,,,,,,,,,,,,,,,
,,0,14,,,,,,,1,3,1,stim/31.jpeg,Instruments,2,stim/objects/Instruments/record_player.png,0.5,4,0.2,-0.15,right,39,2020-12-13_15h36.22.372,premup-three_ses-01_part-01_label-phase1,3.2.4,MacIntel,60,left,0.687999964,4,0,4,0,1,3,1,0,240,24,1,239,,,,,,,,,,,,,,,,,,
,,1,15,,,,,,,2,6,3,stim/63.jpeg,Instruments,2,stim/objects/Instruments/speaker2.png,0.3,4,0.2,-0.15,right,39,2020-12-13_15h36.22.372,premup-three_ses-01_part-01_label-phase1,3.2.4,MacIntel,60,right,0.639999866,4,0,4,0,1,3,1,0,240,154,1,239,,,,,,,,,,,,,,,,,,
,,1,16,,,,,,,3,2,3,stim/23.jpeg,HouseObjects,1,stim/objects/HouseObjects/vacuumcleaner2.png,0.9,4,0.2,-0.15,left,39,2020-12-13_15h36.22.372,premup-three_ses-01_part-01_label-phase1,3.2.4,MacIntel,60,left,0.700000048,4,0,4,0,1,3,1,0,240,206,1,239,,,,,,,,,,,,,,,,,,
,,1,17,,,,,,,2,5,2,stim/52.jpeg,Instruments,2,stim/objects/Instruments/violin.png,0.7,4,0.2,-0.15,right,39,2020-12-13_15h36.22.372,premup-three_ses-01_part-01_label-phase1,3.2.4,MacIntel,60,right,0.352999926,4,0,4,0,1,3,1,0,240,109,1,239,,,,,,,,,,,,,,,,,,
,,0,18,,,,,,,2,6,2,stim/62.jpeg,Instruments,2,stim/objects/Instruments/saxophone2.png,0.3,4,0.2,-0.15,right,39,2020-12-13_15h36.22.372,premup-three_ses-01_part-01_label-phase1,3.2.4,MacIntel,60,left,0.394000053,4,0,4,0,1,3,1,0,240,153,1,239,,,,,,,,,,,,,,,,,,
,,0,19,,,,,,,2,5,2,stim/52.jpeg,Instruments,2,stim/objects/Instruments/violin.png,0.7,2,0.2,0.15,right,39,2020-12-13_15h36.22.372,premup-three_ses-01_part-01_label-phase1,3.2.4,MacIntel,60,left,0.375,4,0,4,0,1,3,1,0,240,117,1,239,,,,,,,,,,,,,,,,,,
,,0,20,,,,,,,3,1,4,stim/14.jpeg,Instruments,2,stim/objects/Instruments/trumpet2.png,0.9,2,0.2,0.15,right,39,2020-12-13_15h36.22.372,premup-three_ses-01_part-01_label-phase1,3.2.4,MacIntel,60,left,0.387000084,4,0,4,0,1,3,1,0,240,175,1,239,,,,,,,,,,,,,,,,,,
,,1,21,,,,,,,3,1,3,stim/13.jpeg,Instruments,2,stim/objects/Instruments/trombone2.png,0.9,2,0.2,0.15,right,39,2020-12-13_15h36.22.372,premup-three_ses-01_part-01_label-phase1,3.2.4,MacIntel,60,right,0.508000135,4,0,4,0,1,3,1,0,240,170,1,239,,,,,,,,,,,,,,,,,,
,,0,22,,,,,,,1,4,2,stim/42.jpeg,Instruments,2,stim/objects/Instruments/triangle.png,0.5,1,-0.2,0.15,right,39,2020-12-13_15h36.22.372,premup-three_ses-01_part-01_label-phase1,3.2.4,MacIntel,60,left,0.276000023,4,0,4,0,1,3,1,0,240,65,1,239,,,,,,,,,,,,,,,,,,
,,1,23,,,,,,,3,2,2,stim/22.jpeg,HouseObjects,1,stim/objects/HouseObjects/towel2.png,0.9,3,-0.2,-0.15,left,39,2020-12-13_15h36.22.372,premup-three_ses-01_part-01_label-phase1,3.2.4,MacIntel,60,left,0.463000059,4,0,4,0,1,3,1,0,240,229,1,239,,,,,,,,,,,,,,,,,,
,,0,24,,,,,,,1,4,2,stim/42.jpeg,HouseObjects,1,stim/objects/HouseObjects/spraybottle.png,0.5,4,0.2,-0.15,left,39,2020-12-13_15h36.22.372,premup-three_ses-01_part-01_label-phase1,3.2.4,MacIntel,60,right,0.370000124,4,0,4,0,1,3,1,0,240,53,1,239,,,,,,,,,,,,,,,,,,
,,1,25,,,,,,,3,2,4,stim/24.jpeg,HouseObjects,1,stim/objects/HouseObjects/wateringcan2.png,0.9,4,0.2,-0.15,left,39,2020-12-13_15h36.22.372,premup-three_ses-01_part-01_label-phase1,3.2.4,MacIntel,60,left,0.157000065,4,0,4,0,1,3,1,0,240,223,1,239,,,,,,,,,,,,,,,,,,
,,1,26,,,,,,,1,4,2,stim/42.jpeg,HouseObjects,1,stim/objects/HouseObjects/spraybottle.png,0.5,4,0.2,-0.15,left,39,2020-12-13_15h36.22.372,premup-three_ses-01_part-01_label-phase1,3.2.4,MacIntel,60,left,0.20600009,4,0,4,0,1,3,1,0,240,49,1,239,,,,,,,,,,,,,,,,,,
,,0,27,,,,,,,3,2,1,stim/21.jpeg,HouseObjects,1,stim/objects/HouseObjects/thread2.png,0.9,4,0.2,-0.15,left,39,2020-12-13_15h36.22.372,premup-three_ses-01_part-01_label-phase1,3.2.4,MacIntel,60,right,1.475000143,4,0,4,0,1,3,1,0,240,204,1,239,,,,,,,,,,,,,,,,,,
,,1,28,,,,,,,2,6,2,stim/62.jpeg,HouseObjects,1,stim/objects/HouseObjects/safetypin2.png,0.7,3,-0.2,-0.15,left,39,2020-12-13_15h36.22.372,premup-three_ses-01_part-01_label-phase1,3.2.4,MacIntel,60,left,1.555999994,4,0,4,0,1,3,1,0,240,121,1,239,,,,,,,,,,,,,,,,,,
,,0,29,,,,,,,1,4,1,stim/41.jpeg,Instruments,2,stim/objects/Instruments/timbal.png,0.5,2,0.2,0.15,right,39,2020-12-13_15h36.22.372,premup-three_ses-01_part-01_label-phase1,3.2.4,MacIntel,60,left,0.541999817,4,0,4,0,1,3,1,0,240,68,1,239,,,,,,,,,,,,,,,,,,
,,1,30,,,,,,,2,6,4,stim/64.jpeg,HouseObjects,1,stim/objects/HouseObjects/scale2.png,0.7,3,-0.2,-0.15,left,39,2020-12-13_15h36.22.372,premup-three_ses-01_part-01_label-phase1,3.2.4,MacIntel,60,left,0.457999945,4,0,4,0,1,3,1,0,240,127,1,239,,,,,,,,,,,,,,,,,,
,,0,31,,,,,,,3,2,2,stim/22.jpeg,HouseObjects,1,stim/objects/HouseObjects/towel2.png,0.9,3,-0.2,-0.15,left,39,2020-12-13_15h36.22.372,premup-three_ses-01_part-01_label-phase1,3.2.4,MacIntel,60,right,0.572000027,4,0,4,0,1,3,1,0,240,209,1,239,,,,,,,,,,,,,,,,,,
,,0,32,,,,,,,1,4,1,stim/41.jpeg,Instruments,2,stim/objects/Instruments/timbal.png,0.5,4,0.2,-0.15,right,39,2020-12-13_15h36.22.372,premup-three_ses-01_part-01_label-phase1,3.2.4,MacIntel,60,left,0.472000122,4,0,4,0,1,3,1,0,240,60,1,239,,,,,,,,,,,,,,,,,,
,,0,33,,,,,,,2,5,4,stim/54.jpeg,Instruments,2,stim/objects/Instruments/xylophone.png,0.7,1,-0.2,0.15,right,39,2020-12-13_15h36.22.372,premup-three_ses-01_part-01_label-phase1,3.2.4,MacIntel,60,left,0.437999964,4,0,4,0,1,3,1,0,240,119,1,239,,,,,,,,,,,,,,,,,,
,,1,34,,,,,,,2,5,3,stim/53.jpeg,Instruments,2,stim/objects/Instruments/vuvuzela.png,0.7,4,0.2,-0.15,right,39,2020-12-13_15h36.22.372,premup-three_ses-01_part-01_label-phase1,3.2.4,MacIntel,60,right,0.33100009,4,0,4,0,1,3,1,0,240,106,1,239,,,,,,,,,,,,,,,,,,
,,0,35,,,,,,,1,4,2,stim/42.jpeg,Instruments,2,stim/objects/Instruments/triangle.png,0.5,1,-0.2,0.15,right,39,2020-12-13_15h36.22.372,premup-three_ses-01_part-01_label-phase1,3.2.4,MacIntel,60,left,0.226999998,4,0,4,0,1,3,1,0,240,61,1,239,,,,,,,,,,,,,,,,,,
,,1,36,,,,,,,3,1,4,stim/14.jpeg,Instruments,2,stim/objects/Instruments/trumpet2.png,0.9,1,-0.2,0.15,right,39,2020-12-13_15h36.22.372,premup-three_ses-01_part-01_label-phase1,3.2.4,MacIntel,60,right,0.457000017,4,0,4,0,1,3,1,0,240,179,1,239,,,,,,,,,,,,,,,,,,
,,1,37,,,,,,,3,2,3,stim/23.jpeg,HouseObjects,1,stim/objects/HouseObjects/vacuumcleaner2.png,0.9,1,-0.2,0.15,left,39,2020-12-13_15h36.22.372,premup-three_ses-01_part-01_label-phase1,3.2.4,MacIntel,60,left,0.730999947,4,0,4,0,1,3,1,0,240,214,1,239,,,,,,,,,,,,,,,,,,
,,1,38,,,,,,,1,4,1,stim/41.jpeg,HouseObjects,1,stim/objects/HouseObjects/sponge.png,0.5,3,-0.2,-0.15,left,39,2020-12-13_15h36.22.372,premup-three_ses-01_part-01_label-phase1,3.2.4,MacIntel,60,left,0.377999783,4,0,4,0,1,3,1,0,240,52,1,239,,,,,,,,,,,,,,,,,,
,,0,39,,,,,,,1,3,4,stim/34.jpeg,HouseObjects,1,stim/objects/HouseObjects/scale.png,0.5,2,0.2,0.15,left,39,2020-12-13_15h36.22.372,premup-three_ses-01_part-01_label-phase1,3.2.4,MacIntel,60,right,0.594000101,4,0,4,0,1,3,1,0,240,15,1,239,,,,,,,,,,,,,,,,,,
,,0,40,,,,,,,3,1,3,stim/13.jpeg,Instruments,2,stim/objects/Instruments/trombone2.png,0.9,3,-0.2,-0.15,right,39,2020-12-13_15h36.22.372,premup-three_ses-01_part-01_label-phase1,3.2.4,MacIntel,60,left,0.363999844,4,0,4,0,1,3,1,0,240,198,1,239,,,,,,,,,,,,,,,,,,
,,1,41,,,,,,,2,5,3,stim/53.jpeg,Instruments,2,stim/objects/Instruments/vuvuzela.png,0.7,1,-0.2,0.15,right,39,2020-12-13_15h36.22.372,premup-three_ses-01_part-01_label-phase1,3.2.4,MacIntel,60,right,0.313000202,4,0,4,0,1,3,1,0,240,110,1,239,,,,,,,,,,,,,,,,,,
,,1,42,,,,,,,3,2,4,stim/24.jpeg,HouseObjects,1,stim/objects/HouseObjects/wateringcan2.png,0.9,1,-0.2,0.15,left,39,2020-12-13_15h36.22.372,premup-three_ses-01_part-01_label-phase1,3.2.4,MacIntel,60,left,0.279999971,4,0,4,0,1,3,1,0,240,231,1,239,,,,,,,,,,,,,,,,,,
,,1,43,,,,,,,2,5,2,stim/52.jpeg,Instruments,2,stim/objects/Instruments/violin.png,0.7,3,-0.2,-0.15,right,39,2020-12-13_15h36.22.372,premup-three_ses-01_part-01_label-phase1,3.2.4,MacIntel,60,right,0.433000088,4,0,4,0,1,3,1,0,240,93,1,239,,,,,,,,,,,,,,,,,,
,,1,44,,,,,,,1,4,4,stim/44.jpeg,HouseObjects,1,stim/objects/HouseObjects/thermometer.png,0.5,2,0.2,0.15,left,39,2020-12-13_15h36.22.372,premup-three_ses-01_part-01_label-phase1,3.2.4,MacIntel,60,left,0.487999916,4,0,4,0,1,3,1,0,240,59,1,239,,,,,,,,,,,,,,,,,,
,,1,45,,,,,,,3,2,1,stim/21.jpeg,HouseObjects,1,stim/objects/HouseObjects/thread2.png,0.9,4,0.2,-0.15,left,39,2020-12-13_15h36.22.372,premup-three_ses-01_part-01_label-phase1,3.2.4,MacIntel,60,left,1.139000177,4,0,4,0,1,3,1,0,240,232,1,239,,,,,,,,,,,,,,,,,,
,,0,46,,,,,,,3,2,4,stim/24.jpeg,Instruments,2,stim/objects/Instruments/xylophone2.png,0.1,3,-0.2,-0.15,right,39,2020-12-13_15h36.22.372,premup-three_ses-01_part-01_label-phase1,3.2.4,MacIntel,60,left,0.474999905,4,0,4,0,1,3,1,0,240,239,1,239,,,,,,,,,,,,,,,,,,
,,0,47,,,,,,,3,2,3,stim/23.jpeg,HouseObjects,1,stim/objects/HouseObjects/vacuumcleaner2.png,0.9,3,-0.2,-0.15,left,39,2020-12-13_15h36.22.372,premup-three_ses-01_part-01_label-phase1,3.2.4,MacIntel,60,right,0.207999945,4,0,4,0,1,3,1,0,240,234,1,239,,,,,,,,,,,,,,,,,,
,,1,48,,,,,,,2,6,1,stim/61.jpeg,HouseObjects,1,stim/objects/HouseObjects/rug2.png,0.7,1,-0.2,0.15,left,39,2020-12-13_15h36.22.372,premup-three_ses-01_part-01_label-phase1,3.2.4,MacIntel,60,left,0.32400012,4,0,4,0,1,3,1,0,240,124,1,239,,,,,,,,,,,,,,,,,,
,,1,49,,,,,,,1,3,2,stim/32.jpeg,HouseObjects,1,stim/objects/HouseObjects/safetypin.png,0.5,3,-0.2,-0.15,left,39,2020-12-13_15h36.22.372,premup-three_ses-01_part-01_label-phase1,3.2.4,MacIntel,60,left,0.554000139,4,0,4,0,1,3,1,0,240,5,1,239,,,,,,,,,,,,,,,,,,
,,1,50,,,,,,,2,6,2,stim/62.jpeg,HouseObjects,1,stim/objects/HouseObjects/safetypin2.png,0.7,1,-0.2,0.15,left,39,2020-12-13_15h36.22.372,premup-three_ses-01_part-01_label-phase1,3.2.4,MacIntel,60,left,0.223999977,4,0,4,0,1,3,1,0,240,145,1,239,,,,,,,,,,,,,,,,,,
,,1,51,,,,,,,3,1,4,stim/14.jpeg,Instruments,2,stim/objects/Instruments/trumpet2.png,0.9,4,0.2,-0.15,right,39,2020-12-13_15h36.22.372,premup-three_ses-01_part-01_label-phase1,3.2.4,MacIntel,60,right,0.562000036,4,0,4,0,1,3,1,0,240,187,1,239,,,,,,,,,,,,,,,,,,
,,0,52,,,,,,,2,5,4,stim/54.jpeg,Instruments,2,stim/objects/Instruments/xylophone.png,0.7,1,-0.2,0.15,right,39,2020-12-13_15h36.22.372,premup-three_ses-01_part-01_label-phase1,3.2.4,MacIntel,60,left,0.243999958,4,0,4,0,1,3,1,0,240,115,1,239,,,,,,,,,,,,,,,,,,
,,1,53,,,,,,,2,6,3,stim/63.jpeg,HouseObjects,1,stim/objects/HouseObjects/saw2.png,0.7,3,-0.2,-0.15,left,39,2020-12-13_15h36.22.372,premup-three_ses-01_part-01_label-phase1,3.2.4,MacIntel,60,left,0.221000195,4,0,4,0,1,3,1,0,240,138,1,239,,,,,,,,,,,,,,,,,,
,,1,54,,,,,,,2,5,2,stim/52.jpeg,Instruments,2,stim/objects/Instruments/violin.png,0.7,4,0.2,-0.15,right,39,2020-12-13_15h36.22.372,premup-three_ses-01_part-01_label-phase1,3.2.4,MacIntel,60,right,0.792000055,4,0,4,0,1,3,1,0,240,101,1,239,,,,,,,,,,,,,,,,,,
,,0,55,,,,,,,2,5,1,stim/51.jpeg,Instruments,2,stim/objects/Instruments/tuba.png,0.7,2,0.2,0.15,right,39,2020-12-13_15h36.22.372,premup-three_ses-01_part-01_label-phase1,3.2.4,MacIntel,60,left,0.299999952,4,0,4,0,1,3,1,0,240,112,1,239,,,,,,,,,,,,,,,,,,
,,1,56,,,,,,,2,5,2,stim/52.jpeg,HouseObjects,1,stim/objects/HouseObjects/towel.png,0.3,1,-0.2,0.15,left,39,2020-12-13_15h36.22.372,premup-three_ses-01_part-01_label-phase1,3.2.4,MacIntel,60,left,0.419999838,4,0,4,0,1,3,1,0,240,85,1,239,,,,,,,,,,,,,,,,,,
,,0,57,,,,,,,3,2,2,stim/22.jpeg,HouseObjects,1,stim/objects/HouseObjects/towel2.png,0.9,2,0.2,0.15,left,39,2020-12-13_15h36.22.372,premup-three_ses-01_part-01_label-phase1,3.2.4,MacIntel,60,right,1.089999914,4,0,4,0,1,3,1,0,240,201,1,239,,,,,,,,,,,,,,,,,,
,,1,58,,,,,,,3,1,3,stim/13.jpeg,HouseObjects,1,stim/objects/HouseObjects/teapot2.png,0.1,1,-0.2,0.15,left,39,2020-12-13_15h36.22.372,premup-three_ses-01_part-01_label-phase1,3.2.4,MacIntel,60,left,0.388999939,4,0,4,0,1,3,1,0,240,162,1,239,,,,,,,,,,,,,,,,,,
,,0,59,,,,,,,1,3,3,stim/33.jpeg,Instruments,2,stim/objects/Instruments/speaker.png,0.5,3,-0.2,-0.15,right,39,2020-12-13_15h36.22.372,premup-three_ses-01_part-01_label-phase1,3.2.4,MacIntel,60,left,0.247999907,4,0,4,0,1,3,1,0,240,34,1,239,,,,,,,,,,,,,,,,,,
,,1,60,,,,,,,3,1,2,stim/12.jpeg,Instruments,2,stim/objects/Instruments/triangle2.png,0.9,1,-0.2,0.15,right,39,2020-12-13_15h36.22.372,premup-three_ses-01_part-01_label-phase1,3.2.4,MacIntel,60,right,0.238999844,4,0,4,0,1,3,1,0,240,169,1,239,,,,,,,,,,,,,,,,,,
,,1,61,,,,,,,1,3,3,stim/33.jpeg,HouseObjects,1,stim/objects/HouseObjects/saw.png,0.5,1,-0.2,0.15,left,39,2020-12-13_15h36.22.372,premup-three_ses-01_part-01_label-phase1,3.2.4,MacIntel,60,left,0.15199995,4,0,4,0,1,3,1,0,240,10,1,239,,,,,,,,,,,,,,,,,,
,,0,62,,,,,,,1,4,2,stim/42.jpeg,Instruments,2,stim/objects/Instruments/triangle.png,0.5,2,0.2,0.15,right,39,2020-12-13_15h36.22.372,premup-three_ses-01_part-01_label-phase1,3.2.4,MacIntel,60,left,0.222000122,4,0,4,0,1,3,1,0,240,73,1,239,,,,,,,,,,,,,,,,,,
,,0,63,,,,,,,1,4,4,stim/44.jpeg,Instruments,2,stim/objects/Instruments/trumpet.png,0.5,3,-0.2,-0.15,right,39,2020-12-13_15h36.22.372,premup-three_ses-01_part-01_label-phase1,3.2.4,MacIntel,60,left,0.578999996,4,0,4,0,1,3,1,0,240,71,1,239,,,,,,,,,,,,,,,,,,
,,1,64,,,,,,,3,2,2,stim/22.jpeg,HouseObjects,1,stim/objects/HouseObjects/towel2.png,0.9,2,0.2,0.15,left,39,2020-12-13_15h36.22.372,premup-three_ses-01_part-01_label-phase1,3.2.4,MacIntel,60,left,0.52699995,4,0,4,0,1,3,1,0,240,233,1,239,,,,,,,,,,,,,,,,,,
,,1,65,,,,,,,2,6,2,stim/62.jpeg,HouseObjects,1,stim/objects/HouseObjects/safetypin2.png,0.7,2,0.2,0.15,left,39,2020-12-13_15h36.22.372,premup-three_ses-01_part-01_label-phase1,3.2.4,MacIntel,60,left,0.263000011,4,0,4,0,1,3,1,0,240,129,1,239,,,,,,,,,,,,,,,,,,
,,0,66,,,,,,,2,6,3,stim/63.jpeg,HouseObjects,1,stim/objects/HouseObjects/saw2.png,0.7,3,-0.2,-0.15,left,39,2020-12-13_15h36.22.372,premup-three_ses-01_part-01_label-phase1,3.2.4,MacIntel,60,right,0.477999926,4,0,4,0,1,3,1,0,240,122,1,239,,,,,,,,,,,,,,,,,,
,,1,67,,,,,,,1,3,1,stim/31.jpeg,HouseObjects,1,stim/objects/HouseObjects/rug.png,0.5,1,-0.2,0.15,left,39,2020-12-13_15h36.22.372,premup-three_ses-01_part-01_label-phase1,3.2.4,MacIntel,60,left,0.242000103,4,0,4,0,1,3,1,0,240,16,1,239,,,,,,,,,,,,,,,,,,
,,1,68,,,,,,,3,2,4,stim/24.jpeg,HouseObjects,1,stim/objects/HouseObjects/wateringcan2.png,0.9,2,0.2,0.15,left,39,2020-12-13_15h36.22.372,premup-three_ses-01_part-01_label-phase1,3.2.4,MacIntel,60,left,0.090000153,4,0,4,0,1,3,1,0,240,219,1,239,,,,,,,,,,,,,,,,,,
,,0,69,,,,,,,3,2,4,stim/24.jpeg,HouseObjects,1,stim/objects/HouseObjects/wateringcan2.png,0.9,3,-0.2,-0.15,left,39,2020-12-13_15h36.22.372,premup-three_ses-01_part-01_label-phase1,3.2.4,MacIntel,60,right,0.371999979,4,0,4,0,1,3,1,0,240,235,1,239,,,,,,,,,,,,,,,,,,
,,1,70,,,,,,,3,2,3,stim/23.jpeg,HouseObjects,1,stim/objects/HouseObjects/vacuumcleaner2.png,0.9,4,0.2,-0.15,left,39,2020-12-13_15h36.22.372,premup-three_ses-01_part-01_label-phase1,3.2.4,MacIntel,60,left,0.39199996,4,0,4,0,1,3,1,0,240,210,1,239,,,,,,,,,,,,,,,,,,
,,1,71,,,,,,,1,3,2,stim/32.jpeg,HouseObjects,1,stim/objects/HouseObjects/safetypin.png,0.5,4,0.2,-0.15,left,39,2020-12-13_15h36.22.372,premup-three_ses-01_part-01_label-phase1,3.2.4,MacIntel,60,left,0.638999939,4,0,4,0,1,3,1,0,240,13,1,239,,,,,,,,,,,,,,,,,,
,,0,72,,,,,,,3,1,2,stim/12.jpeg,Instruments,2,stim/objects/Instruments/triangle2.png,0.9,1,-0.2,0.15,right,39,2020-12-13_15h36.22.372,premup-three_ses-01_part-01_label-phase1,3.2.4,MacIntel,60,left,0.617000103,4,0,4,0,1,3,1,0,240,193,1,239,,,,,,,,,,,,,,,,,,
,,1,73,,,,,,,3,2,1,stim/21.jpeg,HouseObjects,1,stim/objects/HouseObjects/thread2.png,0.9,2,0.2,0.15,left,39,2020-12-13_15h36.22.372,premup-three_ses-01_part-01_label-phase1,3.2.4,MacIntel,60,left,0.608999968,4,0,4,0,1,3,1,0,240,208,1,239,,,,,,,,,,,,,,,,,,
,,0,74,,,,,,,1,3,1,stim/31.jpeg,Instruments,2,stim/objects/Instruments/record_player.png,0.5,2,0.2,0.15,right,39,2020-12-13_15h36.22.372,premup-three_ses-01_part-01_label-phase1,3.2.4,MacIntel,60,left,0.508000135,4,0,4,0,1,3,1,0,240,28,1,239,,,,,,,,,,,,,,,,,,
,,1,75,,,,,,,2,5,2,stim/52.jpeg,HouseObjects,1,stim/objects/HouseObjects/towel.png,0.3,2,0.2,0.15,left,39,2020-12-13_15h36.22.372,premup-three_ses-01_part-01_label-phase1,3.2.4,MacIntel,60,left,0.621000051,4,0,4,0,1,3,1,0,240,89,1,239,,,,,,,,,,,,,,,,,,
,,1,76,,,,,,,1,3,3,stim/33.jpeg,HouseObjects,1,stim/objects/HouseObjects/saw.png,0.5,3,-0.2,-0.15,left,39,2020-12-13_15h36.22.372,premup-three_ses-01_part-01_label-phase1,3.2.4,MacIntel,60,left,0.54399991,4,0,4,0,1,3,1,0,240,2,1,239,,,,,,,,,,,,,,,,,,
,,0,77,,,,,,,2,5,3,stim/53.jpeg,Instruments,2,stim/objects/Instruments/vuvuzela.png,0.7,4,0.2,-0.15,right,39,2020-12-13_15h36.22.372,premup-three_ses-01_part-01_label-phase1,3.2.4,MacIntel,60,left,0.470999956,4,0,4,0,1,3,1,0,240,118,1,239,,,,,,,,,,,,,,,,,,
,,1,78,,,,,,,2,5,3,stim/53.jpeg,Instruments,2,stim/objects/Instruments/vuvuzela.png,0.7,2,0.2,0.15,right,39,2020-12-13_15h36.22.372,premup-three_ses-01_part-01_label-phase1,3.2.4,MacIntel,60,right,0.475000143,4,0,4,0,1,3,1,0,240,114,1,239,,,,,,,,,,,,,,,,,,
,,0,79,,,,,,,3,1,3,stim/13.jpeg,Instruments,2,stim/objects/Instruments/trombone2.png,0.9,4,0.2,-0.15,right,39,2020-12-13_15h36.22.372,premup-three_ses-01_part-01_label-phase1,3.2.4,MacIntel,60,left,0.359999895,4,0,4,0,1,3,1,0,240,166,1,239,,,,,,,,,,,,,,,,,,
,,1,80,,,,,,,1,4,1,stim/41.jpeg,Instruments,2,stim/objects/Instruments/timbal.png,0.5,2,0.2,0.15,right,39,2020-12-13_15h36.22.372,premup-three_ses-01_part-01_label-phase1,3.2.4,MacIntel,60,right,0.370000124,4,0,4,0,1,3,1,0,240,76,1,239,,,,,,,,,,,,,,,,,,
,,1,81,,,,,,,1,3,2,stim/32.jpeg,HouseObjects,1,stim/objects/HouseObjects/safetypin.png,0.5,3,-0.2,-0.15,left,39,2020-12-13_15h36.22.372,premup-three_ses-01_part-01_label-phase1,3.2.4,MacIntel,60,left,0.572999954,4,0,4,0,1,3,1,0,240,9,1,239,,,,,,,,,,,,,,,,,,
,,0,82,,,,,,,2,6,2,stim/62.jpeg,Instruments,2,stim/objects/Instruments/saxophone2.png,0.3,3,-0.2,-0.15,right,39,2020-12-13_15h36.22.372,premup-three_ses-01_part-01_label-phase1,3.2.4,MacIntel,60,left,0.339999914,4,0,4,0,1,3,1,0,240,157,1,239,,,,,,,,,,,,,,,,,,
,,1,83,,,,,,,2,6,4,stim/64.jpeg,HouseObjects,1,stim/objects/HouseObjects/scale2.png,0.7,4,0.2,-0.15,left,39,2020-12-13_15h36.22.372,premup-three_ses-01_part-01_label-phase1,3.2.4,MacIntel,60,left,0.542999983,4,0,4,0,1,3,1,0,240,139,1,239,,,,,,,,,,,,,,,,,,
,,0,84,,,,,,,3,1,1,stim/11.jpeg,Instruments,2,stim/objects/Instruments/timbal2.png,0.9,2,0.2,0.15,right,39,2020-12-13_15h36.22.372,premup-three_ses-01_part-01_label-phase1,3.2.4,MacIntel,60,left,0.327000141,4,0,4,0,1,3,1,0,240,196,1,239,,,,,,,,,,,,,,,,,,
,,0,85,,,,,,,1,3,2,stim/32.jpeg,HouseObjects,1,stim/objects/HouseObjects/safetypin.png,0.5,1,-0.2,0.15,left,39,2020-12-13_15h36.22.372,premup-three_ses-01_part-01_label-phase1,3.2.4,MacIntel,60,right,0.410000086,4,0,4,0,1,3,1,0,240,1,1,239,,,,,,,,,,,,,,,,,,
,,0,86,,,,,,,1,4,1,stim/41.jpeg,Instruments,2,stim/objects/Instruments/timbal.png,0.5,1,-0.2,0.15,right,39,2020-12-13_15h36.22.372,premup-three_ses-01_part-01_label-phase1,3.2.4,MacIntel,60,left,0.154000044,4,0,4,0,1,3,1,0,240,72,1,239,,,,,,,,,,,,,,,,,,
,,0,87,,,,,,,2,6,2,stim/62.jpeg,HouseObjects,1,stim/objects/HouseObjects/safetypin2.png,0.7,1,-0.2,0.15,left,39,2020-12-13_15h36.22.372,premup-three_ses-01_part-01_label-phase1,3.2.4,MacIntel,60,right,0.625,4,0,4,0,1,3,1,0,240,141,1,239,,,,,,,,,,,,,,,,,,
,,0,88,,,,,,,3,2,2,stim/22.jpeg,Instruments,2,stim/objects/Instruments/violin2.png,0.1,4,0.2,-0.15,right,39,2020-12-13_15h36.22.372,premup-three_ses-01_part-01_label-phase1,3.2.4,MacIntel,60,left,0.042999983,4,0,4,0,1,3,1,0,240,237,1,239,,,,,,,,,,,,,,,,,,
,,1,89,,,,,,,3,2,3,stim/23.jpeg,HouseObjects,1,stim/objects/HouseObjects/vacuumcleaner2.png,0.9,4,0.2,-0.15,left,39,2020-12-13_15h36.22.372,premup-three_ses-01_part-01_label-phase1,3.2.4,MacIntel,60,left,0.450000048,4,0,4,0,1,3,1,0,240,226,1,239,,,,,,,,,,,,,,,,,,
,,0,90,,,,,,,1,3,4,stim/34.jpeg,Instruments,2,stim/objects/Instruments/tambourine.png,0.5,1,-0.2,0.15,right,39,2020-12-13_15h36.22.372,premup-three_ses-01_part-01_label-phase1,3.2.4,MacIntel,60,left,0.105000019,4,0,4,0,1,3,1,0,240,27,1,239,,,,,,,,,,,,,,,,,,
,,1,91,,,,,,,2,6,4,stim/64.jpeg,HouseObjects,1,stim/objects/HouseObjects/scale2.png,0.7,4,0.2,-0.15,left,39,2020-12-13_15h36.22.372,premup-three_ses-01_part-01_label-phase1,3.2.4,MacIntel,60,left,0.220999956,4,0,4,0,1,3,1,0,240,143,1,239,,,,,,,,,,,,,,,,,,
,,0,92,,,,,,,3,1,2,stim/12.jpeg,Instruments,2,stim/objects/Instruments/triangle2.png,0.9,4,0.2,-0.15,right,39,2020-12-13_15h36.22.372,premup-three_ses-01_part-01_label-phase1,3.2.4,MacIntel,60,left,0.340999842,4,0,4,0,1,3,1,0,240,185,1,239,,,,,,,,,,,,,,,,,,
,,1,93,,,,,,,1,3,4,stim/34.jpeg,HouseObjects,1,stim/objects/HouseObjects/scale.png,0.5,3,-0.2,-0.15,left,39,2020-12-13_15h36.22.372,premup-three_ses-01_part-01_label-phase1,3.2.4,MacIntel,60,left,0.45600009,4,0,4,0,1,3,1,0,240,3,1,239,,,,,,,,,,,,,,,,,,
,,1,94,,,,,,,1,3,4,stim/34.jpeg,Instruments,2,stim/objects/Instruments/tambourine.png,0.5,4,0.2,-0.15,right,39,2020-12-13_15h36.22.372,premup-three_ses-01_part-01_label-phase1,3.2.4,MacIntel,60,right,0.424000025,4,0,4,0,1,3,1,0,240,39,1,239,,,,,,,,,,,,,,,,,,
,,0,95,,,,,,,3,1,2,stim/12.jpeg,Instruments,2,stim/objects/Instruments/triangle2.png,0.9,1,-0.2,0.15,right,39,2020-12-13_15h36.22.372,premup-three_ses-01_part-01_label-phase1,3.2.4,MacIntel,60,left,0.271000147,4,0,4,0,1,3,1,0,240,197,1,239,,,,,,,,,,,,,,,,,,
,,1,96,,,,,,,1,3,4,stim/34.jpeg,Instruments,2,stim/objects/Instruments/tambourine.png,0.5,2,0.2,0.15,right,39,2020-12-13_15h36.22.372,premup-three_ses-01_part-01_label-phase1,3.2.4,MacIntel,60,right,0.602999926,4,0,4,0,1,3,1,0,240,35,1,239,,,,,,,,,,,,,,,,,,
,,0,97,,,,,,,2,6,2,stim/62.jpeg,HouseObjects,1,stim/objects/HouseObjects/safetypin2.png,0.7,3,-0.2,-0.15,left,39,2020-12-13_15h36.22.372,premup-three_ses-01_part-01_label-phase1,3.2.4,MacIntel,60,right,0.539000034,4,0,4,0,1,3,1,0,240,133,1,239,,,,,,,,,,,,,,,,,,
,,1,98,,,,,,,1,3,1,stim/31.jpeg,HouseObjects,1,stim/objects/HouseObjects/rug.png,0.5,2,0.2,0.15,left,39,2020-12-13_15h36.22.372,premup-three_ses-01_part-01_label-phase1,3.2.4,MacIntel,60,left,0.594000101,4,0,4,0,1,3,1,0,240,12,1,239,,,,,,,,,,,,,,,,,,
,,0,99,,,,,,,2,6,1,stim/61.jpeg,Instruments,2,stim/objects/Instruments/record_player2.png,0.3,1,-0.2,0.15,right,39,2020-12-13_15h36.22.372,premup-three_ses-01_part-01_label-phase1,3.2.4,MacIntel,60,left,0.690000057,4,0,4,0,1,3,1,0,240,148,1,239,,,,,,,,,,,,,,,,,,
,,0,100,,,,,,,2,5,3,stim/53.jpeg,Instruments,2,stim/objects/Instruments/vuvuzela.png,0.7,2,0.2,0.15,right,39,2020-12-13_15h36.22.372,premup-three_ses-01_part-01_label-phase1,3.2.4,MacIntel,60,left,1.306999922,4,0,4,0,1,3,1,0,240,94,1,239,,,,,,,,,,,,,,,,,,
,,0,101,,,,,,,2,5,4,stim/54.jpeg,Instruments,2,stim/objects/Instruments/xylophone.png,0.7,4,0.2,-0.15,right,39,2020-12-13_15h36.22.372,premup-three_ses-01_part-01_label-phase1,3.2.4,MacIntel,60,left,0.354000092,4,0,4,0,1,3,1,0,240,111,1,239,,,,,,,,,,,,,,,,,,
,,1,102,,,,,,,2,5,3,stim/53.jpeg,Instruments,2,stim/objects/Instruments/vuvuzela.png,0.7,1,-0.2,0.15,right,39,2020-12-13_15h36.22.372,premup-three_ses-01_part-01_label-phase1,3.2.4,MacIntel,60,right,0.473999977,4,0,4,0,1,3,1,0,240,102,1,239,,,,,,,,,,,,,,,,,,
,,1,103,,,,,,,2,5,4,stim/54.jpeg,HouseObjects,1,stim/objects/HouseObjects/wateringcan.png,0.3,3,-0.2,-0.15,left,39,2020-12-13_15h36.22.372,premup-three_ses-01_part-01_label-phase1,3.2.4,MacIntel,60,left,0.236999989,4,0,4,0,1,3,1,0,240,83,1,239,,,,,,,,,,,,,,,,,,
,,0,104,,,,,,,2,5,4,stim/54.jpeg,HouseObjects,1,stim/objects/HouseObjects/wateringcan.png,0.3,2,0.2,0.15,left,39,2020-12-13_15h36.22.372,premup-three_ses-01_part-01_label-phase1,3.2.4,MacIntel,60,right,0.292000055,4,0,4,0,1,3,1,0,240,87,1,239,,,,,,,,,,,,,,,,,,
,,0,105,,,,,,,3,1,1,stim/11.jpeg,Instruments,2,stim/objects/Instruments/timbal2.png,0.9,1,-0.2,0.15,right,39,2020-12-13_15h36.22.372,premup-three_ses-01_part-01_label-phase1,3.2.4,MacIntel,60,left,0.243999958,4,0,4,0,1,3,1,0,240,180,1,239,,,,,,,,,,,,,,,,,,
,,0,106,,,,,,,2,5,2,stim/52.jpeg,Instruments,2,stim/objects/Instruments/violin.png,0.7,2,0.2,0.15,right,39,2020-12-13_15h36.22.372,premup-three_ses-01_part-01_label-phase1,3.2.4,MacIntel,60,left,0.436000109,4,0,4,0,1,3,1,0,240,113,1,239,,,,,,,,,,,,,,,,,,
,,1,107,,,,,,,3,2,4,stim/24.jpeg,HouseObjects,1,stim/objects/HouseObjects/wateringcan2.png,0.9,3,-0.2,-0.15,left,39,2020-12-13_15h36.22.372,premup-three_ses-01_part-01_label-phase1,3.2.4,MacIntel,60,left,0.322000027,4,0,4,0,1,3,1,0,240,211,1,239,,,,,,,,,,,,,,,,,,
,,1,108,,,,,,,3,2,3,stim/23.jpeg,HouseObjects,1,stim/objects/HouseObjects/vacuumcleaner2.png,0.9,4,0.2,-0.15,left,39,2020-12-13_15h36.22.372,premup-three_ses-01_part-01_label-phase1,3.2.4,MacIntel,60,left,0.289000034,4,0,4,0,1,3,1,0,240,202,1,239,,,,,,,,,,,,,,,,,,
,,1,109,,,,,,,2,6,3,stim/63.jpeg,HouseObjects,1,stim/objects/HouseObjects/saw2.png,0.7,4,0.2,-0.15,left,39,2020-12-13_15h36.22.372,premup-three_ses-01_part-01_label-phase1,3.2.4,MacIntel,60,left,0.538000107,4,0,4,0,1,3,1,0,240,134,1,239,,,,,,,,,,,,,,,,,,
,,0,110,,,,,,,3,2,4,stim/24.jpeg,HouseObjects,1,stim/objects/HouseObjects/wateringcan2.png,0.9,4,0.2,-0.15,left,39,2020-12-13_15h36.22.372,premup-three_ses-01_part-01_label-phase1,3.2.4,MacIntel,60,right,0.307999849,4,0,4,0,1,3,1,0,240,227,1,239,,,,,,,,,,,,,,,,,,
,,1,111,,,,,,,1,4,3,stim/43.jpeg,HouseObjects,1,stim/objects/HouseObjects/teapot.png,0.5,4,0.2,-0.15,left,39,2020-12-13_15h36.22.372,premup-three_ses-01_part-01_label-phase1,3.2.4,MacIntel,60,left,0.690000057,4,0,4,0,1,3,1,0,240,42,1,239,,,,,,,,,,,,,,,,,,
,,1,112,,,,,,,3,2,1,stim/21.jpeg,HouseObjects,1,stim/objects/HouseObjects/thread2.png,0.9,1,-0.2,0.15,left,39,2020-12-13_15h36.22.372,premup-three_ses-01_part-01_label-phase1,3.2.4,MacIntel,60,left,0.585999966,4,0,4,0,1,3,1,0,240,228,1,239,,,,,,,,,,,,,,,,,,
,,1,113,,,,,,,3,1,1,stim/11.jpeg,HouseObjects,1,stim/objects/HouseObjects/sponge2.png,0.1,2,0.2,0.15,left,39,2020-12-13_15h36.22.372,premup-three_ses-01_part-01_label-phase1,3.2.4,MacIntel,60,left,1.66899991,4,0,4,0,1,3,1,0,240,160,1,239,,,,,,,,,,,,,,,,,,
,,0,114,,,,,,,2,5,1,stim/51.jpeg,Instruments,2,stim/objects/Instruments/tuba.png,0.7,2,0.2,0.15,right,39,2020-12-13_15h36.22.372,premup-three_ses-01_part-01_label-phase1,3.2.4,MacIntel,60,,,4,0,4,0,1,3,1,0,240,116,1,239,,,,,,,,,,,,,,,,,,
,,1,115,,,,,,,3,1,2,stim/12.jpeg,Instruments,2,stim/objects/Instruments/triangle2.png,0.9,2,0.2,0.15,right,39,2020-12-13_15h36.22.372,premup-three_ses-01_part-01_label-phase1,3.2.4,MacIntel,60,right,0.802000046,4,0,4,0,1,3,1,0,240,165,1,239,,,,,,,,,,,,,,,,,,
,,0,116,,,,,,,1,4,3,stim/43.jpeg,Instruments,2,stim/objects/Instruments/trombone.png,0.5,4,0.2,-0.15,right,39,2020-12-13_15h36.22.372,premup-three_ses-01_part-01_label-phase1,3.2.4,MacIntel,60,,,4,0,4,0,1,3,1,0,240,62,1,239,,,,,,,,,,,,,,,,,,
,,1,117,,,,,,,2,5,1,stim/51.jpeg,HouseObjects,1,stim/objects/HouseObjects/thread.png,0.3,4,0.2,-0.15,left,39,2020-12-13_15h36.22.372,premup-three_ses-01_part-01_label-phase1,3.2.4,MacIntel,60,left,0.565000057,4,0,4,0,1,3,1,0,240,84,1,239,,,,,,,,,,,,,,,,,,
,,1,118,,,,,,,2,5,3,stim/53.jpeg,HouseObjects,1,stim/objects/HouseObjects/vacuumcleaner.png,0.3,3,-0.2,-0.15,left,39,2020-12-13_15h36.22.372,premup-three_ses-01_part-01_label-phase1,3.2.4,MacIntel,60,left,0.525000095,4,0,4,0,1,3,1,0,240,90,1,239,,,,,,,,,,,,,,,,,,
,,0,119,,,,,,,1,4,4,stim/44.jpeg,Instruments,2,stim/objects/Instruments/trumpet.png,0.5,2,0.2,0.15,right,39,2020-12-13_15h36.22.372,premup-three_ses-01_part-01_label-phase1,3.2.4,MacIntel,60,left,1.124000072,4,0,4,0,1,3,1,0,240,75,1,239,,,,,,,,,,,,,,,,,,
,,1,120,,,,,,,1,4,1,stim/41.jpeg,Instruments,2,stim/objects/Instruments/timbal.png,0.5,2,0.2,0.15,right,39,2020-12-13_15h36.22.372,premup-three_ses-01_part-01_label-phase1,3.2.4,MacIntel,60,right,0.353999853,4,0,4,0,1,3,1,0,240,64,1,239,,,,,,,,,,,,,,,,,,
,,0,121,,,,,,,1,3,2,stim/32.jpeg,Instruments,2,stim/objects/Instruments/saxophone.png,0.5,3,-0.2,-0.15,right,39,2020-12-13_15h36.22.372,premup-three_ses-01_part-01_label-phase1,3.2.4,MacIntel,60,left,0.371999979,4,0,4,0,1,3,1,0,240,25,1,239,,,,,,,,,,,,,,,,,,
,,0,122,,,,,,,1,4,1,stim/41.jpeg,HouseObjects,1,stim/objects/HouseObjects/sponge.png,0.5,4,0.2,-0.15,left,39,2020-12-13_15h36.22.372,premup-three_ses-01_part-01_label-phase1,3.2.4,MacIntel,60,right,0.441999912,4,0,4,0,1,3,1,0,240,44,1,239,,,,,,,,,,,,,,,,,,
,,0,123,,,,,,,2,6,4,stim/64.jpeg,Instruments,2,stim/objects/Instruments/tambourine2.png,0.3,4,0.2,-0.15,right,39,2020-12-13_15h36.22.372,premup-three_ses-01_part-01_label-phase1,3.2.4,MacIntel,60,left,0.322000027,4,0,4,0,1,3,1,0,240,159,1,239,,,,,,,,,,,,,,,,,,
,,0,124,,,,,,,3,2,1,stim/21.jpeg,HouseObjects,1,stim/objects/HouseObjects/thread2.png,0.9,4,0.2,-0.15,left,39,2020-12-13_15h36.22.372,premup-three_ses-01_part-01_label-phase1,3.2.4,MacIntel,60,right,0.238999844,4,0,4,0,1,3,1,0,240,224,1,239,,,,,,,,,,,,,,,,,,
,,1,125,,,,,,,2,6,3,stim/63.jpeg,HouseObjects,1,stim/objects/HouseObjects/saw2.png,0.7,3,-0.2,-0.15,left,39,2020-12-13_15h36.22.372,premup-three_ses-01_part-01_label-phase1,3.2.4,MacIntel,60,left,0.240999937,4,0,4,0,1,3,1,0,240,142,1,239,,,,,,,,,,,,,,,,,,
,,0,126,,,,,,,3,1,1,stim/11.jpeg,Instruments,2,stim/objects/Instruments/timbal2.png,0.9,4,0.2,-0.15,right,39,2020-12-13_15h36.22.372,premup-three_ses-01_part-01_label-phase1,3.2.4,MacIntel,60,left,0.322000027,4,0,4,0,1,3,1,0,240,172,1,239,,,,,,,,,,,,,,,,,,
,,0,127,,,,,,,1,3,4,stim/34.jpeg,HouseObjects,1,stim/objects/HouseObjects/scale.png,0.5,4,0.2,-0.15,left,39,2020-12-13_15h36.22.372,premup-three_ses-01_part-01_label-phase1,3.2.4,MacIntel,60,right,0.542999983,4,0,4,0,1,3,1,0,240,19,1,239,,,,,,,,,,,,,,,,,,
,,1,128,,,,,,,3,2,2,stim/22.jpeg,HouseObjects,1,stim/objects/HouseObjects/towel2.png,0.9,4,0.2,-0.15,left,39,2020-12-13_15h36.22.372,premup-three_ses-01_part-01_label-phase1,3.2.4,MacIntel,60,left,0.486999989,4,0,4,0,1,3,1,0,240,205,1,239,,,,,,,,,,,,,,,,,,
,,0,129,,,,,,,2,6,4,stim/64.jpeg,Instruments,2,stim/objects/Instruments/tambourine2.png,0.3,3,-0.2,-0.15,right,39,2020-12-13_15h36.22.372,premup-three_ses-01_part-01_label-phase1,3.2.4,MacIntel,60,left,1.13499999,4,0,4,0,1,3,1,0,240,151,1,239,,,,,,,,,,,,,,,,,,
