key_resp_trial.keys,key_resp_trial.rt,trial_acc,trial_index,iterations.thisRepN,iterations.thisTrialN,iterations.thisN,iterations.thisIndex,iterations.ran,iterations.order,task_innerloop.thisRepN,task_innerloop.thisTrialN,task_innerloop.thisN,task_innerloop.thisIndex,task_innerloop.ran,task_innerloop.order,scn_condition,scn_cat,scn_inst,scn_file,obj_cat,obj_cat_num,obj_file,trial_cond,quadrant,obj_x,obj_y,corr_ans,participant,date,expName,psychopyVersion,OS,frameRate,slider.response,slider.rt,slider_2.response,slider_2.rt,ratings.thisRepN,ratings.thisTrialN,ratings.thisN,ratings.thisIndex,ratings.ran,ratings.order,obj_cat_top,min_resp_top,max_resp_top,obj_cat_bottom,min_resp_bottom,max_resp_bottom,enc_trials.thisRepN,enc_trials.thisTrialN,enc_trials.thisN,enc_trials.thisIndex,enc_trials.ran,enc_trials.order,fillers,ratings_final.thisRepN,ratings_final.thisTrialN,ratings_final.thisN,ratings_final.thisIndex,ratings_final.ran,ratings_final.order
left,0.557999849,0,1,1,0,1,0,1,0,1,0,240,77,1,239,1,2,2,stim/22.jpeg,HouseObjects,2,stim/objects/HouseObjects/saw.png,0.5,3,-0.2,-0.15,right,3,2020-12-13_18h02.41.028,premup-three_ses-02_part-02_label-phase2,3.2.4,Linux x86_64,60,,,,,,,,,,,,,,,,,,,,,,,,,,,,,
left,0.701999903,1,2,1,0,1,0,1,0,1,0,240,45,1,239,1,2,2,stim/22.jpeg,Instruments,1,stim/objects/Instruments/speaker.png,0.5,1,-0.2,0.15,left,3,2020-12-13_18h02.41.028,premup-three_ses-02_part-02_label-phase2,3.2.4,Linux x86_64,60,,,,,,,,,,,,,,,,,,,,,,,,,,,,,
left,0.686999798,0,3,1,0,1,0,1,0,1,0,240,238,1,239,3,6,3,stim/63.jpeg,HouseObjects,2,stim/objects/HouseObjects/thermometer2.png,0.1,4,0.2,-0.15,right,3,2020-12-13_18h02.41.028,premup-three_ses-02_part-02_label-phase2,3.2.4,Linux x86_64,60,,,,,,,,,,,,,,,,,,,,,,,,,,,,,
right,0.782999754,1,4,1,0,1,0,1,0,1,0,240,105,1,239,2,3,2,stim/32.jpeg,HouseObjects,2,stim/objects/HouseObjects/teapot.png,0.7,4,0.2,-0.15,right,3,2020-12-13_18h02.41.028,premup-three_ses-02_part-02_label-phase2,3.2.4,Linux x86_64,60,,,,,,,,,,,,,,,,,,,,,,,,,,,,,
left,0.689999819,1,5,1,0,1,0,1,0,1,0,240,146,1,239,2,4,3,stim/43.jpeg,Instruments,1,stim/objects/Instruments/record2.png,0.7,1,-0.2,0.15,left,3,2020-12-13_18h02.41.028,premup-three_ses-02_part-02_label-phase2,3.2.4,Linux x86_64,60,,,,,,,,,,,,,,,,,,,,,,,,,,,,,
,,0,6,1,0,1,0,1,0,1,0,240,159,1,239,2,4,4,stim/44.jpeg,HouseObjects,2,stim/objects/HouseObjects/rug2.png,0.3,1,-0.2,0.15,right,3,2020-12-13_18h02.41.028,premup-three_ses-02_part-02_label-phase2,3.2.4,Linux x86_64,60,,,,,,,,,,,,,,,,,,,,,,,,,,,,,
,,0,7,1,0,1,0,1,0,1,0,240,69,1,239,1,2,2,stim/22.jpeg,HouseObjects,2,stim/objects/HouseObjects/saw.png,0.5,1,-0.2,0.15,right,3,2020-12-13_18h02.41.028,premup-three_ses-02_part-02_label-phase2,3.2.4,Linux x86_64,60,,,,,,,,,,,,,,,,,,,,,,,,,,,,,
left,0.670999765,0,8,1,0,1,0,1,0,1,0,240,180,1,239,3,5,1,stim/51.jpeg,HouseObjects,2,stim/objects/HouseObjects/safetypin2.png,0.9,4,0.2,-0.15,right,3,2020-12-13_18h02.41.028,premup-three_ses-02_part-02_label-phase2,3.2.4,Linux x86_64,60,,,,,,,,,,,,,,,,,,,,,,,,,,,,,
right,0.808999777,0,9,1,0,1,0,1,0,1,0,240,86,1,239,2,3,3,stim/33.jpeg,Instruments,1,stim/objects/Instruments/trumpet.png,0.3,1,-0.2,0.15,left,3,2020-12-13_18h02.41.028,premup-three_ses-02_part-02_label-phase2,3.2.4,Linux x86_64,60,,,,,,,,,,,,,,,,,,,,,,,,,,,,,
left,0.663999796,1,10,1,0,1,0,1,0,1,0,240,125,1,239,2,4,2,stim/42.jpeg,Instruments,1,stim/objects/Instruments/pipepiano2.png,0.7,4,0.2,-0.15,left,3,2020-12-13_18h02.41.028,premup-three_ses-02_part-02_label-phase2,3.2.4,Linux x86_64,60,,,,,,,,,,,,,,,,,,,,,,,,,,,,,
right,0.839999914,1,11,1,0,1,0,1,0,1,0,240,72,1,239,1,2,1,stim/21.jpeg,HouseObjects,2,stim/objects/HouseObjects/safetypin.png,0.5,4,0.2,-0.15,right,3,2020-12-13_18h02.41.028,premup-three_ses-02_part-02_label-phase2,3.2.4,Linux x86_64,60,,,,,,,,,,,,,,,,,,,,,,,,,,,,,
right,0.762999773,0,12,1,0,1,0,1,0,1,0,240,0,1,239,1,1,1,stim/11.jpeg,Instruments,1,stim/objects/Instruments/panflute.png,0.5,4,0.2,-0.15,left,3,2020-12-13_18h02.41.028,premup-three_ses-02_part-02_label-phase2,3.2.4,Linux x86_64,60,,,,,,,,,,,,,,,,,,,,,,,,,,,,,
right,0.606999874,1,13,1,0,1,0,1,0,1,0,240,165,1,239,3,5,2,stim/52.jpeg,HouseObjects,2,stim/objects/HouseObjects/saw2.png,0.9,2,0.2,0.15,right,3,2020-12-13_18h02.41.028,premup-three_ses-02_part-02_label-phase2,3.2.4,Linux x86_64,60,,,,,,,,,,,,,,,,,,,,,,,,,,,,,
left,0.803999662,1,14,1,0,1,0,1,0,1,0,240,142,1,239,2,4,3,stim/43.jpeg,Instruments,1,stim/objects/Instruments/record2.png,0.7,1,-0.2,0.15,left,3,2020-12-13_18h02.41.028,premup-three_ses-02_part-02_label-phase2,3.2.4,Linux x86_64,60,,,,,,,,,,,,,,,,,,,,,,,,,,,,,
right,0.647999763,0,15,1,0,1,0,1,0,1,0,240,161,1,239,3,5,2,stim/52.jpeg,Instruments,1,stim/objects/Instruments/speaker2.png,0.1,3,-0.2,-0.15,left,3,2020-12-13_18h02.41.028,premup-three_ses-02_part-02_label-phase2,3.2.4,Linux x86_64,60,,,,,,,,,,,,,,,,,,,,,,,,,,,,,
left,0.686999798,1,16,1,0,1,0,1,0,1,0,240,216,1,239,3,6,1,stim/61.jpeg,Instruments,1,stim/objects/Instruments/triangle2.png,0.9,2,0.2,0.15,left,3,2020-12-13_18h02.41.028,premup-three_ses-02_part-02_label-phase2,3.2.4,Linux x86_64,60,,,,,,,,,,,,,,,,,,,,,,,,,,,,,
right,0.774999857,0,17,1,0,1,0,1,0,1,0,240,3,1,239,1,1,4,stim/14.jpeg,Instruments,1,stim/objects/Instruments/record_player.png,0.5,4,0.2,-0.15,left,3,2020-12-13_18h02.41.028,premup-three_ses-02_part-02_label-phase2,3.2.4,Linux x86_64,60,,,,,,,,,,,,,,,,,,,,,,,,,,,,,
left,0.545999765,1,18,1,0,1,0,1,0,1,0,240,231,1,239,3,6,4,stim/64.jpeg,Instruments,1,stim/objects/Instruments/tuba2.png,0.9,3,-0.2,-0.15,left,3,2020-12-13_18h02.41.028,premup-three_ses-02_part-02_label-phase2,3.2.4,Linux x86_64,60,,,,,,,,,,,,,,,,,,,,,,,,,,,,,
left,0.687999725,0,19,1,0,1,0,1,0,1,0,240,158,1,239,2,4,3,stim/43.jpeg,HouseObjects,2,stim/objects/HouseObjects/rubbergloves2.png,0.3,4,0.2,-0.15,right,3,2020-12-13_18h02.41.028,premup-three_ses-02_part-02_label-phase2,3.2.4,Linux x86_64,60,,,,,,,,,,,,,,,,,,,,,,,,,,,,,
right,0.690999985,1,20,1,0,1,0,1,0,1,0,240,176,1,239,3,5,1,stim/51.jpeg,HouseObjects,2,stim/objects/HouseObjects/safetypin2.png,0.9,1,-0.2,0.15,right,3,2020-12-13_18h02.41.028,premup-three_ses-02_part-02_label-phase2,3.2.4,Linux x86_64,60,,,,,,,,,,,,,,,,,,,,,,,,,,,,,
left,0.802999973,1,21,1,0,1,0,1,0,1,0,240,145,1,239,2,4,2,stim/42.jpeg,Instruments,1,stim/objects/Instruments/pipepiano2.png,0.7,4,0.2,-0.15,left,3,2020-12-13_18h02.41.028,premup-three_ses-02_part-02_label-phase2,3.2.4,Linux x86_64,60,,,,,,,,,,,,,,,,,,,,,,,,,,,,,
,,0,22,1,0,1,0,1,0,1,0,240,43,1,239,1,2,4,stim/24.jpeg,Instruments,1,stim/objects/Instruments/timbal.png,0.5,3,-0.2,-0.15,left,3,2020-12-13_18h02.41.028,premup-three_ses-02_part-02_label-phase2,3.2.4,Linux x86_64,60,,,,,,,,,,,,,,,,,,,,,,,,,,,,,
,,0,23,1,0,1,0,1,0,1,0,240,177,1,239,3,5,2,stim/52.jpeg,HouseObjects,2,stim/objects/HouseObjects/saw2.png,0.9,1,-0.2,0.15,right,3,2020-12-13_18h02.41.028,premup-three_ses-02_part-02_label-phase2,3.2.4,Linux x86_64,60,,,,,,,,,,,,,,,,,,,,,,,,,,,,,
left,0.750999928,0,24,1,0,1,0,1,0,1,0,240,35,1,239,1,1,4,stim/14.jpeg,HouseObjects,2,stim/objects/HouseObjects/rug.png,0.5,3,-0.2,-0.15,right,3,2020-12-13_18h02.41.028,premup-three_ses-02_part-02_label-phase2,3.2.4,Linux x86_64,60,,,,,,,,,,,,,,,,,,,,,,,,,,,,,
right,0.460999727,0,25,1,0,1,0,1,0,1,0,240,81,1,239,2,3,2,stim/32.jpeg,Instruments,1,stim/objects/Instruments/trombone.png,0.3,2,0.2,0.15,left,3,2020-12-13_18h02.41.028,premup-three_ses-02_part-02_label-phase2,3.2.4,Linux x86_64,60,,,,,,,,,,,,,,,,,,,,,,,,,,,,,
left,0.635999918,0,26,1,0,1,0,1,0,1,0,240,178,1,239,3,5,3,stim/53.jpeg,HouseObjects,2,stim/objects/HouseObjects/scale2.png,0.9,1,-0.2,0.15,right,3,2020-12-13_18h02.41.028,premup-three_ses-02_part-02_label-phase2,3.2.4,Linux x86_64,60,,,,,,,,,,,,,,,,,,,,,,,,,,,,,
left,0.551999807,1,27,1,0,1,0,1,0,1,0,240,213,1,239,3,6,2,stim/62.jpeg,Instruments,1,stim/objects/Instruments/trombone2.png,0.9,1,-0.2,0.15,left,3,2020-12-13_18h02.41.028,premup-three_ses-02_part-02_label-phase2,3.2.4,Linux x86_64,60,,,,,,,,,,,,,,,,,,,,,,,,,,,,,
right,0.61199975,1,28,1,0,1,0,1,0,1,0,240,192,1,239,3,5,1,stim/51.jpeg,HouseObjects,2,stim/objects/HouseObjects/safetypin2.png,0.9,1,-0.2,0.15,right,3,2020-12-13_18h02.41.028,premup-three_ses-02_part-02_label-phase2,3.2.4,Linux x86_64,60,,,,,,,,,,,,,,,,,,,,,,,,,,,,,
right,0.689999819,0,29,1,0,1,0,1,0,1,0,240,144,1,239,2,4,1,stim/41.jpeg,Instruments,1,stim/objects/Instruments/panflute2.png,0.7,1,-0.2,0.15,left,3,2020-12-13_18h02.41.028,premup-three_ses-02_part-02_label-phase2,3.2.4,Linux x86_64,60,,,,,,,,,,,,,,,,,,,,,,,,,,,,,
left,0.59499979,1,30,1,0,1,0,1,0,1,0,240,208,1,239,3,6,1,stim/61.jpeg,Instruments,1,stim/objects/Instruments/triangle2.png,0.9,2,0.2,0.15,left,3,2020-12-13_18h02.41.028,premup-three_ses-02_part-02_label-phase2,3.2.4,Linux x86_64,60,,,,,,,,,,,,,,,,,,,,,,,,,,,,,
,,0,31,1,0,1,0,1,0,1,0,240,183,1,239,3,5,4,stim/54.jpeg,HouseObjects,2,stim/objects/HouseObjects/sponge2.png,0.9,1,-0.2,0.15,right,3,2020-12-13_18h02.41.028,premup-three_ses-02_part-02_label-phase2,3.2.4,Linux x86_64,60,,,,,,,,,,,,,,,,,,,,,,,,,,,,,
right,0.721999884,0,32,1,0,1,0,1,0,1,0,240,87,1,239,2,3,4,stim/34.jpeg,Instruments,1,stim/objects/Instruments/tuba.png,0.3,2,0.2,0.15,left,3,2020-12-13_18h02.41.028,premup-three_ses-02_part-02_label-phase2,3.2.4,Linux x86_64,60,,,,,,,,,,,,,,,,,,,,,,,,,,,,,
right,0.648000002,0,33,1,0,1,0,1,0,1,0,240,88,1,239,2,3,1,stim/31.jpeg,Instruments,1,stim/objects/Instruments/triangle.png,0.3,3,-0.2,-0.15,left,3,2020-12-13_18h02.41.028,premup-three_ses-02_part-02_label-phase2,3.2.4,Linux x86_64,60,,,,,,,,,,,,,,,,,,,,,,,,,,,,,
left,0.546999693,1,34,1,0,1,0,1,0,1,0,240,201,1,239,3,6,2,stim/62.jpeg,Instruments,1,stim/objects/Instruments/trombone2.png,0.9,1,-0.2,0.15,left,3,2020-12-13_18h02.41.028,premup-three_ses-02_part-02_label-phase2,3.2.4,Linux x86_64,60,,,,,,,,,,,,,,,,,,,,,,,,,,,,,
right,0.598999977,0,35,1,0,1,0,1,0,1,0,240,56,1,239,1,2,1,stim/21.jpeg,Instruments,1,stim/objects/Instruments/saxophone.png,0.5,4,0.2,-0.15,left,3,2020-12-13_18h02.41.028,premup-three_ses-02_part-02_label-phase2,3.2.4,Linux x86_64,60,,,,,,,,,,,,,,,,,,,,,,,,,,,,,
left,0.570999861,1,36,1,0,1,0,1,0,1,0,240,124,1,239,2,4,1,stim/41.jpeg,Instruments,1,stim/objects/Instruments/panflute2.png,0.7,1,-0.2,0.15,left,3,2020-12-13_18h02.41.028,premup-three_ses-02_part-02_label-phase2,3.2.4,Linux x86_64,60,,,,,,,,,,,,,,,,,,,,,,,,,,,,,
left,0.679999828,1,37,1,0,1,0,1,0,1,0,240,134,1,239,2,4,3,stim/43.jpeg,Instruments,1,stim/objects/Instruments/record2.png,0.7,1,-0.2,0.15,left,3,2020-12-13_18h02.41.028,premup-three_ses-02_part-02_label-phase2,3.2.4,Linux x86_64,60,,,,,,,,,,,,,,,,,,,,,,,,,,,,,
right,0.606999874,1,38,1,0,1,0,1,0,1,0,240,174,1,239,3,5,3,stim/53.jpeg,HouseObjects,2,stim/objects/HouseObjects/scale2.png,0.9,2,0.2,0.15,right,3,2020-12-13_18h02.41.028,premup-three_ses-02_part-02_label-phase2,3.2.4,Linux x86_64,60,,,,,,,,,,,,,,,,,,,,,,,,,,,,,
right,0.572999716,1,39,1,0,1,0,1,0,1,0,240,32,1,239,1,1,1,stim/11.jpeg,HouseObjects,2,stim/objects/HouseObjects/recyclingbin.png,0.5,1,-0.2,0.15,right,3,2020-12-13_18h02.41.028,premup-three_ses-02_part-02_label-phase2,3.2.4,Linux x86_64,60,,,,,,,,,,,,,,,,,,,,,,,,,,,,,
left,0.901999712,0,40,1,0,1,0,1,0,1,0,240,78,1,239,1,2,3,stim/23.jpeg,HouseObjects,2,stim/objects/HouseObjects/scale.png,0.5,1,-0.2,0.15,right,3,2020-12-13_18h02.41.028,premup-three_ses-02_part-02_label-phase2,3.2.4,Linux x86_64,60,,,,,,,,,,,,,,,,,,,,,,,,,,,,,
left,0.631999731,1,41,1,0,1,0,1,0,1,0,240,203,1,239,3,6,4,stim/64.jpeg,Instruments,1,stim/objects/Instruments/tuba2.png,0.9,3,-0.2,-0.15,left,3,2020-12-13_18h02.41.028,premup-three_ses-02_part-02_label-phase2,3.2.4,Linux x86_64,60,,,,,,,,,,,,,,,,,,,,,,,,,,,,,
right,0.665999889,1,42,1,0,1,0,1,0,1,0,240,25,1,239,1,1,2,stim/12.jpeg,HouseObjects,2,stim/objects/HouseObjects/remote.png,0.5,2,0.2,0.15,right,3,2020-12-13_18h02.41.028,premup-three_ses-02_part-02_label-phase2,3.2.4,Linux x86_64,60,,,,,,,,,,,,,,,,,,,,,,,,,,,,,
right,0.695999861,1,43,1,0,1,0,1,0,1,0,240,37,1,239,1,1,2,stim/12.jpeg,HouseObjects,2,stim/objects/HouseObjects/remote.png,0.5,3,-0.2,-0.15,right,3,2020-12-13_18h02.41.028,premup-three_ses-02_part-02_label-phase2,3.2.4,Linux x86_64,60,,,,,,,,,,,,,,,,,,,,,,,,,,,,,
,,0,44,1,0,1,0,1,0,1,0,240,28,1,239,1,1,1,stim/11.jpeg,HouseObjects,2,stim/objects/HouseObjects/recyclingbin.png,0.5,2,0.2,0.15,right,3,2020-12-13_18h02.41.028,premup-three_ses-02_part-02_label-phase2,3.2.4,Linux x86_64,60,,,,,,,,,,,,,,,,,,,,,,,,,,,,,
right,0.569000006,1,45,1,0,1,0,1,0,1,0,240,71,1,239,1,2,4,stim/24.jpeg,HouseObjects,2,stim/objects/HouseObjects/sponge.png,0.5,2,0.2,0.15,right,3,2020-12-13_18h02.41.028,premup-three_ses-02_part-02_label-phase2,3.2.4,Linux x86_64,60,,,,,,,,,,,,,,,,,,,,,,,,,,,,,
right,0.782999754,0,46,1,0,1,0,1,0,1,0,240,19,1,239,1,1,4,stim/14.jpeg,Instruments,1,stim/objects/Instruments/record_player.png,0.5,1,-0.2,0.15,left,3,2020-12-13_18h02.41.028,premup-three_ses-02_part-02_label-phase2,3.2.4,Linux x86_64,60,,,,,,,,,,,,,,,,,,,,,,,,,,,,,
left,0.710999966,1,47,1,0,1,0,1,0,1,0,240,6,1,239,1,1,3,stim/13.jpeg,Instruments,1,stim/objects/Instruments/record.png,0.5,2,0.2,0.15,left,3,2020-12-13_18h02.41.028,premup-three_ses-02_part-02_label-phase2,3.2.4,Linux x86_64,60,,,,,,,,,,,,,,,,,,,,,,,,,,,,,
right,0.77099967,1,48,1,0,1,0,1,0,1,0,240,107,1,239,2,3,4,stim/34.jpeg,HouseObjects,2,stim/objects/HouseObjects/thread.png,0.7,2,0.2,0.15,right,3,2020-12-13_18h02.41.028,premup-three_ses-02_part-02_label-phase2,3.2.4,Linux x86_64,60,,,,,,,,,,,,,,,,,,,,,,,,,,,,,
right,0.599999666,1,49,1,0,1,0,1,0,1,0,240,168,1,239,3,5,1,stim/51.jpeg,HouseObjects,2,stim/objects/HouseObjects/safetypin2.png,0.9,2,0.2,0.15,right,3,2020-12-13_18h02.41.028,premup-three_ses-02_part-02_label-phase2,3.2.4,Linux x86_64,60,,,,,,,,,,,,,,,,,,,,,,,,,,,,,
right,0.493999958,1,50,1,0,1,0,1,0,1,0,240,24,1,239,1,1,1,stim/11.jpeg,HouseObjects,2,stim/objects/HouseObjects/recyclingbin.png,0.5,2,0.2,0.15,right,3,2020-12-13_18h02.41.028,premup-three_ses-02_part-02_label-phase2,3.2.4,Linux x86_64,60,,,,,,,,,,,,,,,,,,,,,,,,,,,,,
left,0.540999889,1,51,1,0,1,0,1,0,1,0,240,210,1,239,3,6,3,stim/63.jpeg,Instruments,1,stim/objects/Instruments/trumpet2.png,0.9,3,-0.2,-0.15,left,3,2020-12-13_18h02.41.028,premup-three_ses-02_part-02_label-phase2,3.2.4,Linux x86_64,60,,,,,,,,,,,,,,,,,,,,,,,,,,,,,
right,0.44299984,1,52,1,0,1,0,1,0,1,0,240,61,1,239,1,2,2,stim/22.jpeg,HouseObjects,2,stim/objects/HouseObjects/saw.png,0.5,1,-0.2,0.15,right,3,2020-12-13_18h02.41.028,premup-three_ses-02_part-02_label-phase2,3.2.4,Linux x86_64,60,,,,,,,,,,,,,,,,,,,,,,,,,,,,,
left,0.707999706,1,53,1,0,1,0,1,0,1,0,240,51,1,239,1,2,4,stim/24.jpeg,Instruments,1,stim/objects/Instruments/timbal.png,0.5,4,0.2,-0.15,left,3,2020-12-13_18h02.41.028,premup-three_ses-02_part-02_label-phase2,3.2.4,Linux x86_64,60,,,,,,,,,,,,,,,,,,,,,,,,,,,,,
left,0.698999882,0,54,1,0,1,0,1,0,1,0,240,157,1,239,2,4,2,stim/42.jpeg,HouseObjects,2,stim/objects/HouseObjects/remote2.png,0.3,2,0.2,0.15,right,3,2020-12-13_18h02.41.028,premup-three_ses-02_part-02_label-phase2,3.2.4,Linux x86_64,60,,,,,,,,,,,,,,,,,,,,,,,,,,,,,
left,0.718999863,1,55,1,0,1,0,1,0,1,0,240,7,1,239,1,1,4,stim/14.jpeg,Instruments,1,stim/objects/Instruments/record_player.png,0.5,4,0.2,-0.15,left,3,2020-12-13_18h02.41.028,premup-three_ses-02_part-02_label-phase2,3.2.4,Linux x86_64,60,,,,,,,,,,,,,,,,,,,,,,,,,,,,,
right,0.615999937,1,56,1,0,1,0,1,0,1,0,240,101,1,239,2,3,2,stim/32.jpeg,HouseObjects,2,stim/objects/HouseObjects/teapot.png,0.7,3,-0.2,-0.15,right,3,2020-12-13_18h02.41.028,premup-three_ses-02_part-02_label-phase2,3.2.4,Linux x86_64,60,,,,,,,,,,,,,,,,,,,,,,,,,,,,,
left,0.638999701,1,57,1,0,1,0,1,0,1,0,240,143,1,239,2,4,4,stim/44.jpeg,Instruments,1,stim/objects/Instruments/record_player2.png,0.7,1,-0.2,0.15,left,3,2020-12-13_18h02.41.028,premup-three_ses-02_part-02_label-phase2,3.2.4,Linux x86_64,60,,,,,,,,,,,,,,,,,,,,,,,,,,,,,
left,0.467000008,0,58,1,0,1,0,1,0,1,0,240,67,1,239,1,2,4,stim/24.jpeg,HouseObjects,2,stim/objects/HouseObjects/sponge.png,0.5,2,0.2,0.15,right,3,2020-12-13_18h02.41.028,premup-three_ses-02_part-02_label-phase2,3.2.4,Linux x86_64,60,,,,,,,,,,,,,,,,,,,,,,,,,,,,,
right,0.639999866,1,59,1,0,1,0,1,0,1,0,240,164,1,239,3,5,1,stim/51.jpeg,HouseObjects,2,stim/objects/HouseObjects/safetypin2.png,0.9,2,0.2,0.15,right,3,2020-12-13_18h02.41.028,premup-three_ses-02_part-02_label-phase2,3.2.4,Linux x86_64,60,,,,,,,,,,,,,,,,,,,,,,,,,,,,,
right,0.621999979,0,60,1,0,1,0,1,0,1,0,240,130,1,239,2,4,3,stim/43.jpeg,Instruments,1,stim/objects/Instruments/record2.png,0.7,4,0.2,-0.15,left,3,2020-12-13_18h02.41.028,premup-three_ses-02_part-02_label-phase2,3.2.4,Linux x86_64,60,,,,,,,,,,,,,,,,,,,,,,,,,,,,,
,,0,61,1,0,1,0,1,0,1,0,240,123,1,239,2,4,4,stim/44.jpeg,Instruments,1,stim/objects/Instruments/record_player2.png,0.7,3,-0.2,-0.15,left,3,2020-12-13_18h02.41.028,premup-three_ses-02_part-02_label-phase2,3.2.4,Linux x86_64,60,,,,,,,,,,,,,,,,,,,,,,,,,,,,,
left,0.487999916,1,62,1,0,1,0,1,0,1,0,240,136,1,239,2,4,1,stim/41.jpeg,Instruments,1,stim/objects/Instruments/panflute2.png,0.7,3,-0.2,-0.15,left,3,2020-12-13_18h02.41.028,premup-three_ses-02_part-02_label-phase2,3.2.4,Linux x86_64,60,,,,,,,,,,,,,,,,,,,,,,,,,,,,,
right,0.57799983,1,63,1,0,1,0,1,0,1,0,240,102,1,239,2,3,3,stim/33.jpeg,HouseObjects,2,stim/objects/HouseObjects/thermometer.png,0.7,4,0.2,-0.15,right,3,2020-12-13_18h02.41.028,premup-three_ses-02_part-02_label-phase2,3.2.4,Linux x86_64,60,,,,,,,,,,,,,,,,,,,,,,,,,,,,,
right,0.805999756,0,64,1,0,1,0,1,0,1,0,240,10,1,239,1,1,3,stim/13.jpeg,Instruments,1,stim/objects/Instruments/record.png,0.5,3,-0.2,-0.15,left,3,2020-12-13_18h02.41.028,premup-three_ses-02_part-02_label-phase2,3.2.4,Linux x86_64,60,,,,,,,,,,,,,,,,,,,,,,,,,,,,,
left,0.481999874,1,65,1,0,1,0,1,0,1,0,240,4,1,239,1,1,1,stim/11.jpeg,Instruments,1,stim/objects/Instruments/panflute.png,0.5,1,-0.2,0.15,left,3,2020-12-13_18h02.41.028,premup-three_ses-02_part-02_label-phase2,3.2.4,Linux x86_64,60,,,,,,,,,,,,,,,,,,,,,,,,,,,,,
left,0.677999735,1,66,1,0,1,0,1,0,1,0,240,224,1,239,3,6,1,stim/61.jpeg,Instruments,1,stim/objects/Instruments/triangle2.png,0.9,4,0.2,-0.15,left,3,2020-12-13_18h02.41.028,premup-three_ses-02_part-02_label-phase2,3.2.4,Linux x86_64,60,,,,,,,,,,,,,,,,,,,,,,,,,,,,,
right,0.712999821,1,67,1,0,1,0,1,0,1,0,240,181,1,239,3,5,2,stim/52.jpeg,HouseObjects,2,stim/objects/HouseObjects/saw2.png,0.9,4,0.2,-0.15,right,3,2020-12-13_18h02.41.028,premup-three_ses-02_part-02_label-phase2,3.2.4,Linux x86_64,60,,,,,,,,,,,,,,,,,,,,,,,,,,,,,
right,0.803999901,0,68,1,0,1,0,1,0,1,0,240,91,1,239,2,3,4,stim/34.jpeg,Instruments,1,stim/objects/Instruments/tuba.png,0.3,3,-0.2,-0.15,left,3,2020-12-13_18h02.41.028,premup-three_ses-02_part-02_label-phase2,3.2.4,Linux x86_64,60,,,,,,,,,,,,,,,,,,,,,,,,,,,,,
left,0.659999847,0,69,1,0,1,0,1,0,1,0,240,236,1,239,3,6,1,stim/61.jpeg,HouseObjects,2,stim/objects/HouseObjects/spraybottle2.png,0.1,2,0.2,0.15,right,3,2020-12-13_18h02.41.028,premup-three_ses-02_part-02_label-phase2,3.2.4,Linux x86_64,60,,,,,,,,,,,,,,,,,,,,,,,,,,,,,
left,0.422999859,1,70,1,0,1,0,1,0,1,0,240,204,1,239,3,6,1,stim/61.jpeg,Instruments,1,stim/objects/Instruments/triangle2.png,0.9,3,-0.2,-0.15,left,3,2020-12-13_18h02.41.028,premup-three_ses-02_part-02_label-phase2,3.2.4,Linux x86_64,60,,,,,,,,,,,,,,,,,,,,,,,,,,,,,
right,0.611999989,1,71,1,0,1,0,1,0,1,0,240,110,1,239,2,3,3,stim/33.jpeg,HouseObjects,2,stim/objects/HouseObjects/thermometer.png,0.7,2,0.2,0.15,right,3,2020-12-13_18h02.41.028,premup-three_ses-02_part-02_label-phase2,3.2.4,Linux x86_64,60,,,,,,,,,,,,,,,,,,,,,,,,,,,,,
left,0.576999664,1,72,1,0,1,0,1,0,1,0,240,234,1,239,3,6,3,stim/63.jpeg,Instruments,1,stim/objects/Instruments/trumpet2.png,0.9,4,0.2,-0.15,left,3,2020-12-13_18h02.41.028,premup-three_ses-02_part-02_label-phase2,3.2.4,Linux x86_64,60,,,,,,,,,,,,,,,,,,,,,,,,,,,,,
right,0.644999743,1,73,1,0,1,0,1,0,1,0,240,197,1,239,3,5,2,stim/52.jpeg,HouseObjects,2,stim/objects/HouseObjects/saw2.png,0.9,2,0.2,0.15,right,3,2020-12-13_18h02.41.028,premup-three_ses-02_part-02_label-phase2,3.2.4,Linux x86_64,60,,,,,,,,,,,,,,,,,,,,,,,,,,,,,
left,0.679999828,0,74,1,0,1,0,1,0,1,0,240,79,1,239,1,2,4,stim/24.jpeg,HouseObjects,2,stim/objects/HouseObjects/sponge.png,0.5,2,0.2,0.15,right,3,2020-12-13_18h02.41.028,premup-three_ses-02_part-02_label-phase2,3.2.4,Linux x86_64,60,,,,,,,,,,,,,,,,,,,,,,,,,,,,,
right,0.576999903,0,75,1,0,1,0,1,0,1,0,240,140,1,239,2,4,1,stim/41.jpeg,Instruments,1,stim/objects/Instruments/panflute2.png,0.7,2,0.2,0.15,left,3,2020-12-13_18h02.41.028,premup-three_ses-02_part-02_label-phase2,3.2.4,Linux x86_64,60,,,,,,,,,,,,,,,,,,,,,,,,,,,,,
left,0.56799984,1,76,1,0,1,0,1,0,1,0,240,214,1,239,3,6,3,stim/63.jpeg,Instruments,1,stim/objects/Instruments/trumpet2.png,0.9,2,0.2,0.15,left,3,2020-12-13_18h02.41.028,premup-three_ses-02_part-02_label-phase2,3.2.4,Linux x86_64,60,,,,,,,,,,,,,,,,,,,,,,,,,,,,,
right,0.678999901,1,77,1,0,1,0,1,0,1,0,240,167,1,239,3,5,4,stim/54.jpeg,HouseObjects,2,stim/objects/HouseObjects/sponge2.png,0.9,1,-0.2,0.15,right,3,2020-12-13_18h02.41.028,premup-three_ses-02_part-02_label-phase2,3.2.4,Linux x86_64,60,,,,,,,,,,,,,,,,,,,,,,,,,,,,,
left,0.654999971,1,78,1,0,1,0,1,0,1,0,240,211,1,239,3,6,4,stim/64.jpeg,Instruments,1,stim/objects/Instruments/tuba2.png,0.9,2,0.2,0.15,left,3,2020-12-13_18h02.41.028,premup-three_ses-02_part-02_label-phase2,3.2.4,Linux x86_64,60,,,,,,,,,,,,,,,,,,,,,,,,,,,,,
left,0.590999842,1,79,1,0,1,0,1,0,1,0,240,129,1,239,2,4,2,stim/42.jpeg,Instruments,1,stim/objects/Instruments/pipepiano2.png,0.7,1,-0.2,0.15,left,3,2020-12-13_18h02.41.028,premup-three_ses-02_part-02_label-phase2,3.2.4,Linux x86_64,60,,,,,,,,,,,,,,,,,,,,,,,,,,,,,
right,0.860999823,1,80,1,0,1,0,1,0,1,0,240,66,1,239,1,2,3,stim/23.jpeg,HouseObjects,2,stim/objects/HouseObjects/scale.png,0.5,4,0.2,-0.15,right,3,2020-12-13_18h02.41.028,premup-three_ses-02_part-02_label-phase2,3.2.4,Linux x86_64,60,,,,,,,,,,,,,,,,,,,,,,,,,,,,,
right,0.609999895,1,81,1,0,1,0,1,0,1,0,240,184,1,239,3,5,1,stim/51.jpeg,HouseObjects,2,stim/objects/HouseObjects/safetypin2.png,0.9,4,0.2,-0.15,right,3,2020-12-13_18h02.41.028,premup-three_ses-02_part-02_label-phase2,3.2.4,Linux x86_64,60,,,,,,,,,,,,,,,,,,,,,,,,,,,,,
left,0.615999699,1,82,1,0,1,0,1,0,1,0,240,226,1,239,3,6,3,stim/63.jpeg,Instruments,1,stim/objects/Instruments/trumpet2.png,0.9,2,0.2,0.15,left,3,2020-12-13_18h02.41.028,premup-three_ses-02_part-02_label-phase2,3.2.4,Linux x86_64,60,,,,,,,,,,,,,,,,,,,,,,,,,,,,,
,,0,83,1,0,1,0,1,0,1,0,240,38,1,239,1,1,3,stim/13.jpeg,HouseObjects,2,stim/objects/HouseObjects/rubbergloves.png,0.5,2,0.2,0.15,right,3,2020-12-13_18h02.41.028,premup-three_ses-02_part-02_label-phase2,3.2.4,Linux x86_64,60,,,,,,,,,,,,,,,,,,,,,,,,,,,,,
right,0.603999853,1,84,1,0,1,0,1,0,1,0,240,191,1,239,3,5,4,stim/54.jpeg,HouseObjects,2,stim/objects/HouseObjects/sponge2.png,0.9,2,0.2,0.15,right,3,2020-12-13_18h02.41.028,premup-three_ses-02_part-02_label-phase2,3.2.4,Linux x86_64,60,,,,,,,,,,,,,,,,,,,,,,,,,,,,,
right,0.679999828,1,85,1,0,1,0,1,0,1,0,240,106,1,239,2,3,3,stim/33.jpeg,HouseObjects,2,stim/objects/HouseObjects/thermometer.png,0.7,1,-0.2,0.15,right,3,2020-12-13_18h02.41.028,premup-three_ses-02_part-02_label-phase2,3.2.4,Linux x86_64,60,,,,,,,,,,,,,,,,,,,,,,,,,,,,,
left,0.773999691,1,86,1,0,1,0,1,0,1,0,240,52,1,239,1,2,1,stim/21.jpeg,Instruments,1,stim/objects/Instruments/saxophone.png,0.5,4,0.2,-0.15,left,3,2020-12-13_18h02.41.028,premup-three_ses-02_part-02_label-phase2,3.2.4,Linux x86_64,60,,,,,,,,,,,,,,,,,,,,,,,,,,,,,
right,0.523000002,1,87,1,0,1,0,1,0,1,0,240,198,1,239,3,5,3,stim/53.jpeg,HouseObjects,2,stim/objects/HouseObjects/scale2.png,0.9,1,-0.2,0.15,right,3,2020-12-13_18h02.41.028,premup-three_ses-02_part-02_label-phase2,3.2.4,Linux x86_64,60,,,,,,,,,,,,,,,,,,,,,,,,,,,,,
right,0.669999838,0,88,1,0,1,0,1,0,1,0,240,8,1,239,1,1,1,stim/11.jpeg,Instruments,1,stim/objects/Instruments/panflute.png,0.5,2,0.2,0.15,left,3,2020-12-13_18h02.41.028,premup-three_ses-02_part-02_label-phase2,3.2.4,Linux x86_64,60,,,,,,,,,,,,,,,,,,,,,,,,,,,,,
left,0.622999907,1,89,1,0,1,0,1,0,1,0,240,232,1,239,3,6,1,stim/61.jpeg,Instruments,1,stim/objects/Instruments/triangle2.png,0.9,2,0.2,0.15,left,3,2020-12-13_18h02.41.028,premup-three_ses-02_part-02_label-phase2,3.2.4,Linux x86_64,60,,,,,,,,,,,,,,,,,,,,,,,,,,,,,
right,0.697000027,0,90,1,0,1,0,1,0,1,0,240,41,1,239,1,2,2,stim/22.jpeg,Instruments,1,stim/objects/Instruments/speaker.png,0.5,4,0.2,-0.15,left,3,2020-12-13_18h02.41.028,premup-three_ses-02_part-02_label-phase2,3.2.4,Linux x86_64,60,,,,,,,,,,,,,,,,,,,,,,,,,,,,,
right,0.614999771,1,91,1,0,1,0,1,0,1,0,240,166,1,239,3,5,3,stim/53.jpeg,HouseObjects,2,stim/objects/HouseObjects/scale2.png,0.9,2,0.2,0.15,right,3,2020-12-13_18h02.41.028,premup-three_ses-02_part-02_label-phase2,3.2.4,Linux x86_64,60,,,,,,,,,,,,,,,,,,,,,,,,,,,,,
right,0.693000078,1,92,1,0,1,0,1,0,1,0,240,104,1,239,2,3,1,stim/31.jpeg,HouseObjects,2,stim/objects/HouseObjects/spraybottle.png,0.7,1,-0.2,0.15,right,3,2020-12-13_18h02.41.028,premup-three_ses-02_part-02_label-phase2,3.2.4,Linux x86_64,60,,,,,,,,,,,,,,,,,,,,,,,,,,,,,
,,0,93,1,0,1,0,1,0,1,0,240,70,1,239,1,2,3,stim/23.jpeg,HouseObjects,2,stim/objects/HouseObjects/scale.png,0.5,4,0.2,-0.15,right,3,2020-12-13_18h02.41.028,premup-three_ses-02_part-02_label-phase2,3.2.4,Linux x86_64,60,,,,,,,,,,,,,,,,,,,,,,,,,,,,,
left,0.580999851,0,94,1,0,1,0,1,0,1,0,240,187,1,239,3,5,4,stim/54.jpeg,HouseObjects,2,stim/objects/HouseObjects/sponge2.png,0.9,1,-0.2,0.15,right,3,2020-12-13_18h02.41.028,premup-three_ses-02_part-02_label-phase2,3.2.4,Linux x86_64,60,,,,,,,,,,,,,,,,,,,,,,,,,,,,,
left,0.624999762,0,95,1,0,1,0,1,0,1,0,240,153,1,239,2,4,2,stim/42.jpeg,HouseObjects,2,stim/objects/HouseObjects/remote2.png,0.3,2,0.2,0.15,right,3,2020-12-13_18h02.41.028,premup-three_ses-02_part-02_label-phase2,3.2.4,Linux x86_64,60,,,,,,,,,,,,,,,,,,,,,,,,,,,,,
,,0,96,1,0,1,0,1,0,1,0,240,147,1,239,2,4,4,stim/44.jpeg,Instruments,1,stim/objects/Instruments/record_player2.png,0.7,2,0.2,0.15,left,3,2020-12-13_18h02.41.028,premup-three_ses-02_part-02_label-phase2,3.2.4,Linux x86_64,60,,,,,,,,,,,,,,,,,,,,,,,,,,,,,
left,0.441999674,1,97,1,0,1,0,1,0,1,0,240,89,1,239,2,3,2,stim/32.jpeg,Instruments,1,stim/objects/Instruments/trombone.png,0.3,3,-0.2,-0.15,left,3,2020-12-13_18h02.41.028,premup-three_ses-02_part-02_label-phase2,3.2.4,Linux x86_64,60,,,,,,,,,,,,,,,,,,,,,,,,,,,,,
left,0.52699995,1,98,1,0,1,0,1,0,1,0,240,83,1,239,2,3,4,stim/34.jpeg,Instruments,1,stim/objects/Instruments/tuba.png,0.3,3,-0.2,-0.15,left,3,2020-12-13_18h02.41.028,premup-three_ses-02_part-02_label-phase2,3.2.4,Linux x86_64,60,,,,,,,,,,,,,,,,,,,,,,,,,,,,,
right,0.564999819,1,99,1,0,1,0,1,0,1,0,240,97,1,239,2,3,2,stim/32.jpeg,HouseObjects,2,stim/objects/HouseObjects/teapot.png,0.7,4,0.2,-0.15,right,3,2020-12-13_18h02.41.028,premup-three_ses-02_part-02_label-phase2,3.2.4,Linux x86_64,60,,,,,,,,,,,,,,,,,,,,,,,,,,,,,
right,0.616999865,1,100,1,0,1,0,1,0,1,0,240,196,1,239,3,5,1,stim/51.jpeg,HouseObjects,2,stim/objects/HouseObjects/safetypin2.png,0.9,3,-0.2,-0.15,right,3,2020-12-13_18h02.41.028,premup-three_ses-02_part-02_label-phase2,3.2.4,Linux x86_64,60,,,,,,,,,,,,,,,,,,,,,,,,,,,,,
right,0.588999987,1,101,1,0,1,0,1,0,1,0,240,173,1,239,3,5,2,stim/52.jpeg,HouseObjects,2,stim/objects/HouseObjects/saw2.png,0.9,3,-0.2,-0.15,right,3,2020-12-13_18h02.41.028,premup-three_ses-02_part-02_label-phase2,3.2.4,Linux x86_64,60,,,,,,,,,,,,,,,,,,,,,,,,,,,,,
left,0.840999842,1,102,1,0,1,0,1,0,1,0,240,135,1,239,2,4,4,stim/44.jpeg,Instruments,1,stim/objects/Instruments/record_player2.png,0.7,4,0.2,-0.15,left,3,2020-12-13_18h02.41.028,premup-three_ses-02_part-02_label-phase2,3.2.4,Linux x86_64,60,,,,,,,,,,,,,,,,,,,,,,,,,,,,,
right,0.657999992,1,103,1,0,1,0,1,0,1,0,240,63,1,239,1,2,4,stim/24.jpeg,HouseObjects,2,stim/objects/HouseObjects/sponge.png,0.5,2,0.2,0.15,right,3,2020-12-13_18h02.41.028,premup-three_ses-02_part-02_label-phase2,3.2.4,Linux x86_64,60,,,,,,,,,,,,,,,,,,,,,,,,,,,,,
left,0.631999731,0,104,1,0,1,0,1,0,1,0,240,98,1,239,2,3,3,stim/33.jpeg,HouseObjects,2,stim/objects/HouseObjects/thermometer.png,0.7,1,-0.2,0.15,right,3,2020-12-13_18h02.41.028,premup-three_ses-02_part-02_label-phase2,3.2.4,Linux x86_64,60,,,,,,,,,,,,,,,,,,,,,,,,,,,,,
left,0.701999903,1,105,1,0,1,0,1,0,1,0,240,200,1,239,3,6,1,stim/61.jpeg,Instruments,1,stim/objects/Instruments/triangle2.png,0.9,3,-0.2,-0.15,left,3,2020-12-13_18h02.41.028,premup-three_ses-02_part-02_label-phase2,3.2.4,Linux x86_64,60,,,,,,,,,,,,,,,,,,,,,,,,,,,,,
right,0.740999699,1,106,1,0,1,0,1,0,1,0,240,76,1,239,1,2,1,stim/21.jpeg,HouseObjects,2,stim/objects/HouseObjects/safetypin.png,0.5,3,-0.2,-0.15,right,3,2020-12-13_18h02.41.028,premup-three_ses-02_part-02_label-phase2,3.2.4,Linux x86_64,60,,,,,,,,,,,,,,,,,,,,,,,,,,,,,
right,0.713000059,1,107,1,0,1,0,1,0,1,0,240,34,1,239,1,1,3,stim/13.jpeg,HouseObjects,2,stim/objects/HouseObjects/rubbergloves.png,0.5,3,-0.2,-0.15,right,3,2020-12-13_18h02.41.028,premup-three_ses-02_part-02_label-phase2,3.2.4,Linux x86_64,60,,,,,,,,,,,,,,,,,,,,,,,,,,,,,
left,0.565999746,1,108,1,0,1,0,1,0,1,0,240,9,1,239,1,1,2,stim/12.jpeg,Instruments,1,stim/objects/Instruments/pipepiano.png,0.5,3,-0.2,-0.15,left,3,2020-12-13_18h02.41.028,premup-three_ses-02_part-02_label-phase2,3.2.4,Linux x86_64,60,,,,,,,,,,,,,,,,,,,,,,,,,,,,,
right,0.606999874,1,109,1,0,1,0,1,0,1,0,240,199,1,239,3,5,4,stim/54.jpeg,HouseObjects,2,stim/objects/HouseObjects/sponge2.png,0.9,4,0.2,-0.15,right,3,2020-12-13_18h02.41.028,premup-three_ses-02_part-02_label-phase2,3.2.4,Linux x86_64,60,,,,,,,,,,,,,,,,,,,,,,,,,,,,,
right,0.318999767,0,110,1,0,1,0,1,0,1,0,240,53,1,239,1,2,2,stim/22.jpeg,Instruments,1,stim/objects/Instruments/speaker.png,0.5,3,-0.2,-0.15,left,3,2020-12-13_18h02.41.028,premup-three_ses-02_part-02_label-phase2,3.2.4,Linux x86_64,60,,,,,,,,,,,,,,,,,,,,,,,,,,,,,
left,0.544999838,1,111,1,0,1,0,1,0,1,0,240,48,1,239,1,2,1,stim/21.jpeg,Instruments,1,stim/objects/Instruments/saxophone.png,0.5,3,-0.2,-0.15,left,3,2020-12-13_18h02.41.028,premup-three_ses-02_part-02_label-phase2,3.2.4,Linux x86_64,60,,,,,,,,,,,,,,,,,,,,,,,,,,,,,
right,0.608999968,1,112,1,0,1,0,1,0,1,0,240,118,1,239,2,3,3,stim/33.jpeg,HouseObjects,2,stim/objects/HouseObjects/thermometer.png,0.7,4,0.2,-0.15,right,3,2020-12-13_18h02.41.028,premup-three_ses-02_part-02_label-phase2,3.2.4,Linux x86_64,60,,,,,,,,,,,,,,,,,,,,,,,,,,,,,
left,0.690999746,0,113,1,0,1,0,1,0,1,0,240,193,1,239,3,5,2,stim/52.jpeg,HouseObjects,2,stim/objects/HouseObjects/saw2.png,0.9,3,-0.2,-0.15,right,3,2020-12-13_18h02.41.028,premup-three_ses-02_part-02_label-phase2,3.2.4,Linux x86_64,60,,,,,,,,,,,,,,,,,,,,,,,,,,,,,
right,0.673999786,0,114,1,0,1,0,1,0,1,0,240,122,1,239,2,4,3,stim/43.jpeg,Instruments,1,stim/objects/Instruments/record2.png,0.7,3,-0.2,-0.15,left,3,2020-12-13_18h02.41.028,premup-three_ses-02_part-02_label-phase2,3.2.4,Linux x86_64,60,,,,,,,,,,,,,,,,,,,,,,,,,,,,,
right,0.691999912,0,115,1,0,1,0,1,0,1,0,240,80,1,239,2,3,1,stim/31.jpeg,Instruments,1,stim/objects/Instruments/triangle.png,0.3,2,0.2,0.15,left,3,2020-12-13_18h02.41.028,premup-three_ses-02_part-02_label-phase2,3.2.4,Linux x86_64,60,,,,,,,,,,,,,,,,,,,,,,,,,,,,,
right,0.550999641,0,116,1,0,1,0,1,0,1,0,240,120,1,239,2,4,1,stim/41.jpeg,Instruments,1,stim/objects/Instruments/panflute2.png,0.7,2,0.2,0.15,left,3,2020-12-13_18h02.41.028,premup-three_ses-02_part-02_label-phase2,3.2.4,Linux x86_64,60,,,,,,,,,,,,,,,,,,,,,,,,,,,,,
right,0.388999939,1,117,1,0,1,0,1,0,1,0,240,109,1,239,2,3,2,stim/32.jpeg,HouseObjects,2,stim/objects/HouseObjects/teapot.png,0.7,1,-0.2,0.15,right,3,2020-12-13_18h02.41.028,premup-three_ses-02_part-02_label-phase2,3.2.4,Linux x86_64,60,,,,,,,,,,,,,,,,,,,,,,,,,,,,,
right,0.636999846,1,118,1,0,1,0,1,0,1,0,240,60,1,239,1,2,1,stim/21.jpeg,HouseObjects,2,stim/objects/HouseObjects/safetypin.png,0.5,3,-0.2,-0.15,right,3,2020-12-13_18h02.41.028,premup-three_ses-02_part-02_label-phase2,3.2.4,Linux x86_64,60,,,,,,,,,,,,,,,,,,,,,,,,,,,,,
right,0.722999811,1,119,1,0,1,0,1,0,1,0,240,171,1,239,3,5,4,stim/54.jpeg,HouseObjects,2,stim/objects/HouseObjects/sponge2.png,0.9,4,0.2,-0.15,right,3,2020-12-13_18h02.41.028,premup-three_ses-02_part-02_label-phase2,3.2.4,Linux x86_64,60,,,,,,,,,,,,,,,,,,,,,,,,,,,,,
,,0,120,1,0,1,0,1,0,1,0,240,21,1,239,1,1,2,stim/12.jpeg,HouseObjects,2,stim/objects/HouseObjects/remote.png,0.5,2,0.2,0.15,right,3,2020-12-13_18h02.41.028,premup-three_ses-02_part-02_label-phase2,3.2.4,Linux x86_64,60,,,,,,,,,,,,,,,,,,,,,,,,,,,,,
left,0.625999689,1,121,1,0,1,0,1,0,1,0,240,223,1,239,3,6,4,stim/64.jpeg,Instruments,1,stim/objects/Instruments/tuba2.png,0.9,2,0.2,0.15,left,3,2020-12-13_18h02.41.028,premup-three_ses-02_part-02_label-phase2,3.2.4,Linux x86_64,60,,,,,,,,,,,,,,,,,,,,,,,,,,,,,
left,0.346999884,0,122,1,0,1,0,1,0,1,0,240,114,1,239,2,3,3,stim/33.jpeg,HouseObjects,2,stim/objects/HouseObjects/thermometer.png,0.7,4,0.2,-0.15,right,3,2020-12-13_18h02.41.028,premup-three_ses-02_part-02_label-phase2,3.2.4,Linux x86_64,60,,,,,,,,,,,,,,,,,,,,,,,,,,,,,
right,0.353999853,0,123,1,0,1,0,1,0,1,0,240,127,1,239,2,4,4,stim/44.jpeg,Instruments,1,stim/objects/Instruments/record_player2.png,0.7,1,-0.2,0.15,left,3,2020-12-13_18h02.41.028,premup-three_ses-02_part-02_label-phase2,3.2.4,Linux x86_64,60,,,,,,,,,,,,,,,,,,,,,,,,,,,,,
left,0.600999832,0,124,1,0,1,0,1,0,1,0,240,20,1,239,1,1,1,stim/11.jpeg,HouseObjects,2,stim/objects/HouseObjects/recyclingbin.png,0.5,3,-0.2,-0.15,right,3,2020-12-13_18h02.41.028,premup-three_ses-02_part-02_label-phase2,3.2.4,Linux x86_64,60,,,,,,,,,,,,,,,,,,,,,,,,,,,,,
left,0.602999926,0,125,1,0,1,0,1,0,1,0,240,237,1,239,3,6,2,stim/62.jpeg,HouseObjects,2,stim/objects/HouseObjects/teapot2.png,0.1,1,-0.2,0.15,right,3,2020-12-13_18h02.41.028,premup-three_ses-02_part-02_label-phase2,3.2.4,Linux x86_64,60,,,,,,,,,,,,,,,,,,,,,,,,,,,,,
left,0.454999924,1,126,1,0,1,0,1,0,1,0,240,220,1,239,3,6,1,stim/61.jpeg,Instruments,1,stim/objects/Instruments/triangle2.png,0.9,4,0.2,-0.15,left,3,2020-12-13_18h02.41.028,premup-three_ses-02_part-02_label-phase2,3.2.4,Linux x86_64,60,,,,,,,,,,,,,,,,,,,,,,,,,,,,,
right,0.640999794,0,127,1,0,1,0,1,0,1,0,240,18,1,239,1,1,3,stim/13.jpeg,Instruments,1,stim/objects/Instruments/record.png,0.5,1,-0.2,0.15,left,3,2020-12-13_18h02.41.028,premup-three_ses-02_part-02_label-phase2,3.2.4,Linux x86_64,60,,,,,,,,,,,,,,,,,,,,,,,,,,,,,
left,0.529999971,1,128,1,0,1,0,1,0,1,0,240,14,1,239,1,1,3,stim/13.jpeg,Instruments,1,stim/objects/Instruments/record.png,0.5,1,-0.2,0.15,left,3,2020-12-13_18h02.41.028,premup-three_ses-02_part-02_label-phase2,3.2.4,Linux x86_64,60,,,,,,,,,,,,,,,,,,,,,,,,,,,,,
,,0,129,1,0,1,0,1,0,1,0,240,50,1,239,1,2,3,stim/23.jpeg,Instruments,1,stim/objects/Instruments/tambourine.png,0.5,4,0.2,-0.15,left,3,2020-12-13_18h02.41.028,premup-three_ses-02_part-02_label-phase2,3.2.4,Linux x86_64,60,,,,,,,,,,,,,,,,,,,,,,,,,,,,,
left,0.688999891,1,130,1,0,1,0,1,0,1,0,240,16,1,239,1,1,1,stim/11.jpeg,Instruments,1,stim/objects/Instruments/panflute.png,0.5,2,0.2,0.15,left,3,2020-12-13_18h02.41.028,premup-three_ses-02_part-02_label-phase2,3.2.4,Linux x86_64,60,,,,,,,,,,,,,,,,,,,,,,,,,,,,,
right,0.857999802,1,131,1,0,1,0,1,0,1,0,240,96,1,239,2,3,1,stim/31.jpeg,HouseObjects,2,stim/objects/HouseObjects/spraybottle.png,0.7,4,0.2,-0.15,right,3,2020-12-13_18h02.41.028,premup-three_ses-02_part-02_label-phase2,3.2.4,Linux x86_64,60,,,,,,,,,,,,,,,,,,,,,,,,,,,,,
right,0.65599966,1,132,1,0,1,0,1,0,1,0,240,119,1,239,2,3,4,stim/34.jpeg,HouseObjects,2,stim/objects/HouseObjects/thread.png,0.7,3,-0.2,-0.15,right,3,2020-12-13_18h02.41.028,premup-three_ses-02_part-02_label-phase2,3.2.4,Linux x86_64,60,,,,,,,,,,,,,,,,,,,,,,,,,,,,,
right,0.690000057,1,133,1,0,1,0,1,0,1,0,240,113,1,239,2,3,2,stim/32.jpeg,HouseObjects,2,stim/objects/HouseObjects/teapot.png,0.7,3,-0.2,-0.15,right,3,2020-12-13_18h02.41.028,premup-three_ses-02_part-02_label-phase2,3.2.4,Linux x86_64,60,,,,,,,,,,,,,,,,,,,,,,,,,,,,,
right,0.555999994,0,134,1,0,1,0,1,0,1,0,240,82,1,239,2,3,3,stim/33.jpeg,Instruments,1,stim/objects/Instruments/trumpet.png,0.3,3,-0.2,-0.15,left,3,2020-12-13_18h02.41.028,premup-three_ses-02_part-02_label-phase2,3.2.4,Linux x86_64,60,,,,,,,,,,,,,,,,,,,,,,,,,,,,,
right,0.557999849,0,135,1,0,1,0,1,0,1,0,240,85,1,239,2,3,2,stim/32.jpeg,Instruments,1,stim/objects/Instruments/trombone.png,0.3,2,0.2,0.15,left,3,2020-12-13_18h02.41.028,premup-three_ses-02_part-02_label-phase2,3.2.4,Linux x86_64,60,,,,,,,,,,,,,,,,,,,,,,,,,,,,,
left,0.732999802,1,136,1,0,1,0,1,0,1,0,240,128,1,239,2,4,1,stim/41.jpeg,Instruments,1,stim/objects/Instruments/panflute2.png,0.7,2,0.2,0.15,left,3,2020-12-13_18h02.41.028,premup-three_ses-02_part-02_label-phase2,3.2.4,Linux x86_64,60,,,,,,,,,,,,,,,,,,,,,,,,,,,,,
left,0.664999962,1,137,1,0,1,0,1,0,1,0,240,1,1,239,1,1,2,stim/12.jpeg,Instruments,1,stim/objects/Instruments/pipepiano.png,0.5,4,0.2,-0.15,left,3,2020-12-13_18h02.41.028,premup-three_ses-02_part-02_label-phase2,3.2.4,Linux x86_64,60,,,,,,,,,,,,,,,,,,,,,,,,,,,,,
left,0.546999931,1,138,1,0,1,0,1,0,1,0,240,218,1,239,3,6,3,stim/63.jpeg,Instruments,1,stim/objects/Instruments/trumpet2.png,0.9,3,-0.2,-0.15,left,3,2020-12-13_18h02.41.028,premup-three_ses-02_part-02_label-phase2,3.2.4,Linux x86_64,60,,,,,,,,,,,,,,,,,,,,,,,,,,,,,
left,0.72699976,1,139,1,0,1,0,1,0,1,0,240,131,1,239,2,4,4,stim/44.jpeg,Instruments,1,stim/objects/Instruments/record_player2.png,0.7,1,-0.2,0.15,left,3,2020-12-13_18h02.41.028,premup-three_ses-02_part-02_label-phase2,3.2.4,Linux x86_64,60,,,,,,,,,,,,,,,,,,,,,,,,,,,,,
right,0.678999901,1,140,1,0,1,0,1,0,1,0,240,186,1,239,3,5,3,stim/53.jpeg,HouseObjects,2,stim/objects/HouseObjects/scale2.png,0.9,2,0.2,0.15,right,3,2020-12-13_18h02.41.028,premup-three_ses-02_part-02_label-phase2,3.2.4,Linux x86_64,60,,,,,,,,,,,,,,,,,,,,,,,,,,,,,
right,0.734999895,1,141,1,0,1,0,1,0,1,0,240,115,1,239,2,3,4,stim/34.jpeg,HouseObjects,2,stim/objects/HouseObjects/thread.png,0.7,4,0.2,-0.15,right,3,2020-12-13_18h02.41.028,premup-three_ses-02_part-02_label-phase2,3.2.4,Linux x86_64,60,,,,,,,,,,,,,,,,,,,,,,,,,,,,,
,,0,142,1,0,1,0,1,0,1,0,240,46,1,239,1,2,3,stim/23.jpeg,Instruments,1,stim/objects/Instruments/tambourine.png,0.5,4,0.2,-0.15,left,3,2020-12-13_18h02.41.028,premup-three_ses-02_part-02_label-phase2,3.2.4,Linux x86_64,60,,,,,,,,,,,,,,,,,,,,,,,,,,,,,
right,0.89199996,1,143,1,0,1,0,1,0,1,0,240,26,1,239,1,1,3,stim/13.jpeg,HouseObjects,2,stim/objects/HouseObjects/rubbergloves.png,0.5,4,0.2,-0.15,right,3,2020-12-13_18h02.41.028,premup-three_ses-02_part-02_label-phase2,3.2.4,Linux x86_64,60,,,,,,,,,,,,,,,,,,,,,,,,,,,,,
right,0.65299964,1,144,1,0,1,0,1,0,1,0,240,92,1,239,2,3,1,stim/31.jpeg,HouseObjects,2,stim/objects/HouseObjects/spraybottle.png,0.7,3,-0.2,-0.15,right,3,2020-12-13_18h02.41.028,premup-three_ses-02_part-02_label-phase2,3.2.4,Linux x86_64,60,,,,,,,,,,,,,,,,,,,,,,,,,,,,,
right,0.528999805,0,145,1,0,1,0,1,0,1,0,240,160,1,239,3,5,1,stim/51.jpeg,Instruments,1,stim/objects/Instruments/saxophone2.png,0.1,4,0.2,-0.15,left,3,2020-12-13_18h02.41.028,premup-three_ses-02_part-02_label-phase2,3.2.4,Linux x86_64,60,,,,,,,,,,,,,,,,,,,,,,,,,,,,,
right,0.661999941,1,146,1,0,1,0,1,0,1,0,240,93,1,239,2,3,2,stim/32.jpeg,HouseObjects,2,stim/objects/HouseObjects/teapot.png,0.7,1,-0.2,0.15,right,3,2020-12-13_18h02.41.028,premup-three_ses-02_part-02_label-phase2,3.2.4,Linux x86_64,60,,,,,,,,,,,,,,,,,,,,,,,,,,,,,
left,0.642999887,0,147,1,0,1,0,1,0,1,0,240,73,1,239,1,2,2,stim/22.jpeg,HouseObjects,2,stim/objects/HouseObjects/saw.png,0.5,1,-0.2,0.15,right,3,2020-12-13_18h02.41.028,premup-three_ses-02_part-02_label-phase2,3.2.4,Linux x86_64,60,,,,,,,,,,,,,,,,,,,,,,,,,,,,,
right,0.819000006,1,148,1,0,1,0,1,0,1,0,240,189,1,239,3,5,2,stim/52.jpeg,HouseObjects,2,stim/objects/HouseObjects/saw2.png,0.9,3,-0.2,-0.15,right,3,2020-12-13_18h02.41.028,premup-three_ses-02_part-02_label-phase2,3.2.4,Linux x86_64,60,,,,,,,,,,,,,,,,,,,,,,,,,,,,,
left,0.791999817,1,149,1,0,1,0,1,0,1,0,240,15,1,239,1,1,4,stim/14.jpeg,Instruments,1,stim/objects/Instruments/record_player.png,0.5,3,-0.2,-0.15,left,3,2020-12-13_18h02.41.028,premup-three_ses-02_part-02_label-phase2,3.2.4,Linux x86_64,60,,,,,,,,,,,,,,,,,,,,,,,,,,,,,
left,0.847999811,1,150,1,0,1,0,1,0,1,0,240,58,1,239,1,2,3,stim/23.jpeg,Instruments,1,stim/objects/Instruments/tambourine.png,0.5,1,-0.2,0.15,left,3,2020-12-13_18h02.41.028,premup-three_ses-02_part-02_label-phase2,3.2.4,Linux x86_64,60,,,,,,,,,,,,,,,,,,,,,,,,,,,,,
right,0.569999933,0,151,1,0,1,0,1,0,1,0,240,90,1,239,2,3,3,stim/33.jpeg,Instruments,1,stim/objects/Instruments/trumpet.png,0.3,4,0.2,-0.15,left,3,2020-12-13_18h02.41.028,premup-three_ses-02_part-02_label-phase2,3.2.4,Linux x86_64,60,,,,,,,,,,,,,,,,,,,,,,,,,,,,,
left,0.585999966,1,152,1,0,1,0,1,0,1,0,240,209,1,239,3,6,2,stim/62.jpeg,Instruments,1,stim/objects/Instruments/trombone2.png,0.9,4,0.2,-0.15,left,3,2020-12-13_18h02.41.028,premup-three_ses-02_part-02_label-phase2,3.2.4,Linux x86_64,60,,,,,,,,,,,,,,,,,,,,,,,,,,,,,
left,0.604999781,0,153,1,0,1,0,1,0,1,0,240,23,1,239,1,1,4,stim/14.jpeg,HouseObjects,2,stim/objects/HouseObjects/rug.png,0.5,2,0.2,0.15,right,3,2020-12-13_18h02.41.028,premup-three_ses-02_part-02_label-phase2,3.2.4,Linux x86_64,60,,,,,,,,,,,,,,,,,,,,,,,,,,,,,
right,0.321999788,1,154,1,0,1,0,1,0,1,0,240,150,1,239,2,4,3,stim/43.jpeg,HouseObjects,2,stim/objects/HouseObjects/rubbergloves2.png,0.3,3,-0.2,-0.15,right,3,2020-12-13_18h02.41.028,premup-three_ses-02_part-02_label-phase2,3.2.4,Linux x86_64,60,,,,,,,,,,,,,,,,,,,,,,,,,,,,,
right,0.559000015,1,155,1,0,1,0,1,0,1,0,240,108,1,239,2,3,1,stim/31.jpeg,HouseObjects,2,stim/objects/HouseObjects/spraybottle.png,0.7,2,0.2,0.15,right,3,2020-12-13_18h02.41.028,premup-three_ses-02_part-02_label-phase2,3.2.4,Linux x86_64,60,,,,,,,,,,,,,,,,,,,,,,,,,,,,,
left,0.487999916,1,156,1,0,1,0,1,0,1,0,240,59,1,239,1,2,4,stim/24.jpeg,Instruments,1,stim/objects/Instruments/timbal.png,0.5,1,-0.2,0.15,left,3,2020-12-13_18h02.41.028,premup-three_ses-02_part-02_label-phase2,3.2.4,Linux x86_64,60,,,,,,,,,,,,,,,,,,,,,,,,,,,,,
right,0.723999977,1,157,1,0,1,0,1,0,1,0,240,175,1,239,3,5,4,stim/54.jpeg,HouseObjects,2,stim/objects/HouseObjects/sponge2.png,0.9,3,-0.2,-0.15,right,3,2020-12-13_18h02.41.028,premup-three_ses-02_part-02_label-phase2,3.2.4,Linux x86_64,60,,,,,,,,,,,,,,,,,,,,,,,,,,,,,
left,0.786999702,1,158,1,0,1,0,1,0,1,0,240,221,1,239,3,6,2,stim/62.jpeg,Instruments,1,stim/objects/Instruments/trombone2.png,0.9,1,-0.2,0.15,left,3,2020-12-13_18h02.41.028,premup-three_ses-02_part-02_label-phase2,3.2.4,Linux x86_64,60,,,,,,,,,,,,,,,,,,,,,,,,,,,,,
left,0.47699976,1,159,1,0,1,0,1,0,1,0,240,233,1,239,3,6,2,stim/62.jpeg,Instruments,1,stim/objects/Instruments/trombone2.png,0.9,1,-0.2,0.15,left,3,2020-12-13_18h02.41.028,premup-three_ses-02_part-02_label-phase2,3.2.4,Linux x86_64,60,,,,,,,,,,,,,,,,,,,,,,,,,,,,,
right,0.780999899,1,160,1,0,1,0,1,0,1,0,240,95,1,239,2,3,4,stim/34.jpeg,HouseObjects,2,stim/objects/HouseObjects/thread.png,0.7,4,0.2,-0.15,right,3,2020-12-13_18h02.41.028,premup-three_ses-02_part-02_label-phase2,3.2.4,Linux x86_64,60,,,,,,,,,,,,,,,,,,,,,,,,,,,,,
left,0.565999746,1,161,1,0,1,0,1,0,1,0,240,44,1,239,1,2,1,stim/21.jpeg,Instruments,1,stim/objects/Instruments/saxophone.png,0.5,3,-0.2,-0.15,left,3,2020-12-13_18h02.41.028,premup-three_ses-02_part-02_label-phase2,3.2.4,Linux x86_64,60,,,,,,,,,,,,,,,,,,,,,,,,,,,,,
left,0.563999653,1,162,1,0,1,0,1,0,1,0,240,212,1,239,3,6,1,stim/61.jpeg,Instruments,1,stim/objects/Instruments/triangle2.png,0.9,3,-0.2,-0.15,left,3,2020-12-13_18h02.41.028,premup-three_ses-02_part-02_label-phase2,3.2.4,Linux x86_64,60,,,,,,,,,,,,,,,,,,,,,,,,,,,,,
right,0.661999941,1,163,1,0,1,0,1,0,1,0,240,194,1,239,3,5,3,stim/53.jpeg,HouseObjects,2,stim/objects/HouseObjects/scale2.png,0.9,1,-0.2,0.15,right,3,2020-12-13_18h02.41.028,premup-three_ses-02_part-02_label-phase2,3.2.4,Linux x86_64,60,,,,,,,,,,,,,,,,,,,,,,,,,,,,,
left,0.613999844,0,164,1,0,1,0,1,0,1,0,240,116,1,239,2,3,1,stim/31.jpeg,HouseObjects,2,stim/objects/HouseObjects/spraybottle.png,0.7,3,-0.2,-0.15,right,3,2020-12-13_18h02.41.028,premup-three_ses-02_part-02_label-phase2,3.2.4,Linux x86_64,60,,,,,,,,,,,,,,,,,,,,,,,,,,,,,
right,0.457999706,1,165,1,0,1,0,1,0,1,0,240,148,1,239,2,4,1,stim/41.jpeg,HouseObjects,2,stim/objects/HouseObjects/recyclingbin2.png,0.3,4,0.2,-0.15,right,3,2020-12-13_18h02.41.028,premup-three_ses-02_part-02_label-phase2,3.2.4,Linux x86_64,60,,,,,,,,,,,,,,,,,,,,,,,,,,,,,
left,0.554999828,1,166,1,0,1,0,1,0,1,0,240,205,1,239,3,6,2,stim/62.jpeg,Instruments,1,stim/objects/Instruments/trombone2.png,0.9,1,-0.2,0.15,left,3,2020-12-13_18h02.41.028,premup-three_ses-02_part-02_label-phase2,3.2.4,Linux x86_64,60,,,,,,,,,,,,,,,,,,,,,,,,,,,,,
left,0.565999746,1,167,1,0,1,0,1,0,1,0,240,235,1,239,3,6,4,stim/64.jpeg,Instruments,1,stim/objects/Instruments/tuba2.png,0.9,1,-0.2,0.15,left,3,2020-12-13_18h02.41.028,premup-three_ses-02_part-02_label-phase2,3.2.4,Linux x86_64,60,,,,,,,,,,,,,,,,,,,,,,,,,,,,,
left,0.651999712,0,168,1,0,1,0,1,0,1,0,240,103,1,239,2,3,4,stim/34.jpeg,HouseObjects,2,stim/objects/HouseObjects/thread.png,0.7,3,-0.2,-0.15,right,3,2020-12-13_18h02.41.028,premup-three_ses-02_part-02_label-phase2,3.2.4,Linux x86_64,60,,,,,,,,,,,,,,,,,,,,,,,,,,,,,
right,0.494999886,1,169,1,0,1,0,1,0,1,0,240,65,1,239,1,2,2,stim/22.jpeg,HouseObjects,2,stim/objects/HouseObjects/saw.png,0.5,2,0.2,0.15,right,3,2020-12-13_18h02.41.028,premup-three_ses-02_part-02_label-phase2,3.2.4,Linux x86_64,60,,,,,,,,,,,,,,,,,,,,,,,,,,,,,
left,0.620999813,0,170,1,0,1,0,1,0,1,0,240,29,1,239,1,1,2,stim/12.jpeg,HouseObjects,2,stim/objects/HouseObjects/remote.png,0.5,1,-0.2,0.15,right,3,2020-12-13_18h02.41.028,premup-three_ses-02_part-02_label-phase2,3.2.4,Linux x86_64,60,,,,,,,,,,,,,,,,,,,,,,,,,,,,,
left,0.653999805,1,171,1,0,1,0,1,0,1,0,240,57,1,239,1,2,2,stim/22.jpeg,Instruments,1,stim/objects/Instruments/speaker.png,0.5,1,-0.2,0.15,left,3,2020-12-13_18h02.41.028,premup-three_ses-02_part-02_label-phase2,3.2.4,Linux x86_64,60,,,,,,,,,,,,,,,,,,,,,,,,,,,,,
left,0.60199976,1,172,1,0,1,0,1,0,1,0,240,42,1,239,1,2,3,stim/23.jpeg,Instruments,1,stim/objects/Instruments/tambourine.png,0.5,3,-0.2,-0.15,left,3,2020-12-13_18h02.41.028,premup-three_ses-02_part-02_label-phase2,3.2.4,Linux x86_64,60,,,,,,,,,,,,,,,,,,,,,,,,,,,,,
right,0.657999992,0,173,1,0,1,0,1,0,1,0,240,5,1,239,1,1,2,stim/12.jpeg,Instruments,1,stim/objects/Instruments/pipepiano.png,0.5,2,0.2,0.15,left,3,2020-12-13_18h02.41.028,premup-three_ses-02_part-02_label-phase2,3.2.4,Linux x86_64,60,,,,,,,,,,,,,,,,,,,,,,,,,,,,,
left,0.669999838,1,174,1,0,1,0,1,0,1,0,240,126,1,239,2,4,3,stim/43.jpeg,Instruments,1,stim/objects/Instruments/record2.png,0.7,3,-0.2,-0.15,left,3,2020-12-13_18h02.41.028,premup-three_ses-02_part-02_label-phase2,3.2.4,Linux x86_64,60,,,,,,,,,,,,,,,,,,,,,,,,,,,,,
left,0.874999762,1,175,1,0,1,0,1,0,1,0,240,2,1,239,1,1,3,stim/13.jpeg,Instruments,1,stim/objects/Instruments/record.png,0.5,3,-0.2,-0.15,left,3,2020-12-13_18h02.41.028,premup-three_ses-02_part-02_label-phase2,3.2.4,Linux x86_64,60,,,,,,,,,,,,,,,,,,,,,,,,,,,,,
left,0.880999804,1,176,1,0,1,0,1,0,1,0,240,132,1,239,2,4,1,stim/41.jpeg,Instruments,1,stim/objects/Instruments/panflute2.png,0.7,1,-0.2,0.15,left,3,2020-12-13_18h02.41.028,premup-three_ses-02_part-02_label-phase2,3.2.4,Linux x86_64,60,,,,,,,,,,,,,,,,,,,,,,,,,,,,,
right,0.726999998,0,177,1,0,1,0,1,0,1,0,240,12,1,239,1,1,1,stim/11.jpeg,Instruments,1,stim/objects/Instruments/panflute.png,0.5,1,-0.2,0.15,left,3,2020-12-13_18h02.41.028,premup-three_ses-02_part-02_label-phase2,3.2.4,Linux x86_64,60,,,,,,,,,,,,,,,,,,,,,,,,,,,,,
left,0.582999945,1,178,1,0,1,0,1,0,1,0,240,55,1,239,1,2,4,stim/24.jpeg,Instruments,1,stim/objects/Instruments/timbal.png,0.5,2,0.2,0.15,left,3,2020-12-13_18h02.41.028,premup-three_ses-02_part-02_label-phase2,3.2.4,Linux x86_64,60,,,,,,,,,,,,,,,,,,,,,,,,,,,,,
left,0.688999891,0,179,1,0,1,0,1,0,1,0,240,27,1,239,1,1,4,stim/14.jpeg,HouseObjects,2,stim/objects/HouseObjects/rug.png,0.5,4,0.2,-0.15,right,3,2020-12-13_18h02.41.028,premup-three_ses-02_part-02_label-phase2,3.2.4,Linux x86_64,60,,,,,,,,,,,,,,,,,,,,,,,,,,,,,
left,0.618000031,1,180,1,0,1,0,1,0,1,0,240,219,1,239,3,6,4,stim/64.jpeg,Instruments,1,stim/objects/Instruments/tuba2.png,0.9,2,0.2,0.15,left,3,2020-12-13_18h02.41.028,premup-three_ses-02_part-02_label-phase2,3.2.4,Linux x86_64,60,,,,,,,,,,,,,,,,,,,,,,,,,,,,,
,,0,181,1,0,1,0,1,0,1,0,240,172,1,239,3,5,1,stim/51.jpeg,HouseObjects,2,stim/objects/HouseObjects/safetypin2.png,0.9,3,-0.2,-0.15,right,3,2020-12-13_18h02.41.028,premup-three_ses-02_part-02_label-phase2,3.2.4,Linux x86_64,60,,,,,,,,,,,,,,,,,,,,,,,,,,,,,
left,0.536999941,0,182,1,0,1,0,1,0,1,0,240,239,1,239,3,6,4,stim/64.jpeg,HouseObjects,2,stim/objects/HouseObjects/thread2.png,0.1,4,0.2,-0.15,right,3,2020-12-13_18h02.41.028,premup-three_ses-02_part-02_label-phase2,3.2.4,Linux x86_64,60,,,,,,,,,,,,,,,,,,,,,,,,,,,,,
left,0.564999819,1,183,1,0,1,0,1,0,1,0,240,225,1,239,3,6,2,stim/62.jpeg,Instruments,1,stim/objects/Instruments/trombone2.png,0.9,4,0.2,-0.15,left,3,2020-12-13_18h02.41.028,premup-three_ses-02_part-02_label-phase2,3.2.4,Linux x86_64,60,,,,,,,,,,,,,,,,,,,,,,,,,,,,,
left,0.593999863,1,184,1,0,1,0,1,0,1,0,240,54,1,239,1,2,3,stim/23.jpeg,Instruments,1,stim/objects/Instruments/tambourine.png,0.5,4,0.2,-0.15,left,3,2020-12-13_18h02.41.028,premup-three_ses-02_part-02_label-phase2,3.2.4,Linux x86_64,60,,,,,,,,,,,,,,,,,,,,,,,,,,,,,
left,0.629999876,1,185,1,0,1,0,1,0,1,0,240,121,1,239,2,4,2,stim/42.jpeg,Instruments,1,stim/objects/Instruments/pipepiano2.png,0.7,3,-0.2,-0.15,left,3,2020-12-13_18h02.41.028,premup-three_ses-02_part-02_label-phase2,3.2.4,Linux x86_64,60,,,,,,,,,,,,,,,,,,,,,,,,,,,,,
right,0.597999811,0,186,1,0,1,0,1,0,1,0,240,84,1,239,2,3,1,stim/31.jpeg,Instruments,1,stim/objects/Instruments/triangle.png,0.3,2,0.2,0.15,left,3,2020-12-13_18h02.41.028,premup-three_ses-02_part-02_label-phase2,3.2.4,Linux x86_64,60,,,,,,,,,,,,,,,,,,,,,,,,,,,,,
left,0.40199995,1,187,1,0,1,0,1,0,1,0,240,139,1,239,2,4,4,stim/44.jpeg,Instruments,1,stim/objects/Instruments/record_player2.png,0.7,1,-0.2,0.15,left,3,2020-12-13_18h02.41.028,premup-three_ses-02_part-02_label-phase2,3.2.4,Linux x86_64,60,,,,,,,,,,,,,,,,,,,,,,,,,,,,,
left,0.533999681,0,188,1,0,1,0,1,0,1,0,240,169,1,239,3,5,2,stim/52.jpeg,HouseObjects,2,stim/objects/HouseObjects/saw2.png,0.9,4,0.2,-0.15,right,3,2020-12-13_18h02.41.028,premup-three_ses-02_part-02_label-phase2,3.2.4,Linux x86_64,60,,,,,,,,,,,,,,,,,,,,,,,,,,,,,
right,0.477999926,1,189,1,0,1,0,1,0,1,0,240,195,1,239,3,5,4,stim/54.jpeg,HouseObjects,2,stim/objects/HouseObjects/sponge2.png,0.9,2,0.2,0.15,right,3,2020-12-13_18h02.41.028,premup-three_ses-02_part-02_label-phase2,3.2.4,Linux x86_64,60,,,,,,,,,,,,,,,,,,,,,,,,,,,,,
right,0.763999701,1,190,1,0,1,0,1,0,1,0,240,117,1,239,2,3,2,stim/32.jpeg,HouseObjects,2,stim/objects/HouseObjects/teapot.png,0.7,1,-0.2,0.15,right,3,2020-12-13_18h02.41.028,premup-three_ses-02_part-02_label-phase2,3.2.4,Linux x86_64,60,,,,,,,,,,,,,,,,,,,,,,,,,,,,,
left,0.591999769,0,191,1,0,1,0,1,0,1,0,240,149,1,239,2,4,2,stim/42.jpeg,HouseObjects,2,stim/objects/HouseObjects/remote2.png,0.3,3,-0.2,-0.15,right,3,2020-12-13_18h02.41.028,premup-three_ses-02_part-02_label-phase2,3.2.4,Linux x86_64,60,,,,,,,,,,,,,,,,,,,,,,,,,,,,,
left,0.68599987,0,192,1,0,1,0,1,0,1,0,240,64,1,239,1,2,1,stim/21.jpeg,HouseObjects,2,stim/objects/HouseObjects/safetypin.png,0.5,4,0.2,-0.15,right,3,2020-12-13_18h02.41.028,premup-three_ses-02_part-02_label-phase2,3.2.4,Linux x86_64,60,,,,,,,,,,,,,,,,,,,,,,,,,,,,,
left,0.573999882,1,193,1,0,1,0,1,0,1,0,240,133,1,239,2,4,2,stim/42.jpeg,Instruments,1,stim/objects/Instruments/pipepiano2.png,0.7,1,-0.2,0.15,left,3,2020-12-13_18h02.41.028,premup-three_ses-02_part-02_label-phase2,3.2.4,Linux x86_64,60,,,,,,,,,,,,,,,,,,,,,,,,,,,,,
left,0.618000031,1,194,1,0,1,0,1,0,1,0,240,228,1,239,3,6,1,stim/61.jpeg,Instruments,1,stim/objects/Instruments/triangle2.png,0.9,4,0.2,-0.15,left,3,2020-12-13_18h02.41.028,premup-three_ses-02_part-02_label-phase2,3.2.4,Linux x86_64,60,,,,,,,,,,,,,,,,,,,,,,,,,,,,,
right,0.762999773,1,195,1,0,1,0,1,0,1,0,240,151,1,239,2,4,4,stim/44.jpeg,HouseObjects,2,stim/objects/HouseObjects/rug2.png,0.3,4,0.2,-0.15,right,3,2020-12-13_18h02.41.028,premup-three_ses-02_part-02_label-phase2,3.2.4,Linux x86_64,60,,,,,,,,,,,,,,,,,,,,,,,,,,,,,
left,0.650999784,1,196,1,0,1,0,1,0,1,0,240,40,1,239,1,2,1,stim/21.jpeg,Instruments,1,stim/objects/Instruments/saxophone.png,0.5,2,0.2,0.15,left,3,2020-12-13_18h02.41.028,premup-three_ses-02_part-02_label-phase2,3.2.4,Linux x86_64,60,,,,,,,,,,,,,,,,,,,,,,,,,,,,,
left,0.55099988,0,197,1,0,1,0,1,0,1,0,240,74,1,239,1,2,3,stim/23.jpeg,HouseObjects,2,stim/objects/HouseObjects/scale.png,0.5,2,0.2,0.15,right,3,2020-12-13_18h02.41.028,premup-three_ses-02_part-02_label-phase2,3.2.4,Linux x86_64,60,,,,,,,,,,,,,,,,,,,,,,,,,,,,,
left,0.615999937,1,198,1,0,1,0,1,0,1,0,240,206,1,239,3,6,3,stim/63.jpeg,Instruments,1,stim/objects/Instruments/trumpet2.png,0.9,3,-0.2,-0.15,left,3,2020-12-13_18h02.41.028,premup-three_ses-02_part-02_label-phase2,3.2.4,Linux x86_64,60,,,,,,,,,,,,,,,,,,,,,,,,,,,,,
left,0.539999962,1,199,1,0,1,0,1,0,1,0,240,137,1,239,2,4,2,stim/42.jpeg,Instruments,1,stim/objects/Instruments/pipepiano2.png,0.7,2,0.2,0.15,left,3,2020-12-13_18h02.41.028,premup-three_ses-02_part-02_label-phase2,3.2.4,Linux x86_64,60,,,,,,,,,,,,,,,,,,,,,,,,,,,,,
left,0.383999825,0,200,1,0,1,0,1,0,1,0,240,190,1,239,3,5,3,stim/53.jpeg,HouseObjects,2,stim/objects/HouseObjects/scale2.png,0.9,2,0.2,0.15,right,3,2020-12-13_18h02.41.028,premup-three_ses-02_part-02_label-phase2,3.2.4,Linux x86_64,60,,,,,,,,,,,,,,,,,,,,,,,,,,,,,
right,0.661000013,0,201,1,0,1,0,1,0,1,0,240,13,1,239,1,1,2,stim/12.jpeg,Instruments,1,stim/objects/Instruments/pipepiano.png,0.5,1,-0.2,0.15,left,3,2020-12-13_18h02.41.028,premup-three_ses-02_part-02_label-phase2,3.2.4,Linux x86_64,60,,,,,,,,,,,,,,,,,,,,,,,,,,,,,
right,0.690999746,1,202,1,0,1,0,1,0,1,0,240,30,1,239,1,1,3,stim/13.jpeg,HouseObjects,2,stim/objects/HouseObjects/rubbergloves.png,0.5,3,-0.2,-0.15,right,3,2020-12-13_18h02.41.028,premup-three_ses-02_part-02_label-phase2,3.2.4,Linux x86_64,60,,,,,,,,,,,,,,,,,,,,,,,,,,,,,
right,0.71999979,1,203,1,0,1,0,1,0,1,0,240,33,1,239,1,1,2,stim/12.jpeg,HouseObjects,2,stim/objects/HouseObjects/remote.png,0.5,2,0.2,0.15,right,3,2020-12-13_18h02.41.028,premup-three_ses-02_part-02_label-phase2,3.2.4,Linux x86_64,60,,,,,,,,,,,,,,,,,,,,,,,,,,,,,
left,0.538999796,1,204,1,0,1,0,1,0,1,0,240,217,1,239,3,6,2,stim/62.jpeg,Instruments,1,stim/objects/Instruments/trombone2.png,0.9,1,-0.2,0.15,left,3,2020-12-13_18h02.41.028,premup-three_ses-02_part-02_label-phase2,3.2.4,Linux x86_64,60,,,,,,,,,,,,,,,,,,,,,,,,,,,,,
left,0.694999933,0,205,1,0,1,0,1,0,1,0,240,75,1,239,1,2,4,stim/24.jpeg,HouseObjects,2,stim/objects/HouseObjects/sponge.png,0.5,1,-0.2,0.15,right,3,2020-12-13_18h02.41.028,premup-three_ses-02_part-02_label-phase2,3.2.4,Linux x86_64,60,,,,,,,,,,,,,,,,,,,,,,,,,,,,,
right,0.69299984,0,206,1,0,1,0,1,0,1,0,240,163,1,239,3,5,4,stim/54.jpeg,Instruments,1,stim/objects/Instruments/timbal2.png,0.1,1,-0.2,0.15,left,3,2020-12-13_18h02.41.028,premup-three_ses-02_part-02_label-phase2,3.2.4,Linux x86_64,60,,,,,,,,,,,,,,,,,,,,,,,,,,,,,
right,0.537999868,0,207,1,0,1,0,1,0,1,0,240,207,1,239,3,6,4,stim/64.jpeg,Instruments,1,stim/objects/Instruments/tuba2.png,0.9,4,0.2,-0.15,left,3,2020-12-13_18h02.41.028,premup-three_ses-02_part-02_label-phase2,3.2.4,Linux x86_64,60,,,,,,,,,,,,,,,,,,,,,,,,,,,,,
right,0.720999956,0,208,1,0,1,0,1,0,1,0,240,138,1,239,2,4,3,stim/43.jpeg,Instruments,1,stim/objects/Instruments/record2.png,0.7,2,0.2,0.15,left,3,2020-12-13_18h02.41.028,premup-three_ses-02_part-02_label-phase2,3.2.4,Linux x86_64,60,,,,,,,,,,,,,,,,,,,,,,,,,,,,,
,,0,209,1,0,1,0,1,0,1,0,240,152,1,239,2,4,1,stim/41.jpeg,HouseObjects,2,stim/objects/HouseObjects/recyclingbin2.png,0.3,3,-0.2,-0.15,right,3,2020-12-13_18h02.41.028,premup-three_ses-02_part-02_label-phase2,3.2.4,Linux x86_64,60,,,,,,,,,,,,,,,,,,,,,,,,,,,,,
right,0.666999817,1,210,1,0,1,0,1,0,1,0,240,154,1,239,2,4,3,stim/43.jpeg,HouseObjects,2,stim/objects/HouseObjects/rubbergloves2.png,0.3,4,0.2,-0.15,right,3,2020-12-13_18h02.41.028,premup-three_ses-02_part-02_label-phase2,3.2.4,Linux x86_64,60,,,,,,,,,,,,,,,,,,,,,,,,,,,,,
right,0.592999935,1,211,1,0,1,0,1,0,1,0,240,156,1,239,2,4,1,stim/41.jpeg,HouseObjects,2,stim/objects/HouseObjects/recyclingbin2.png,0.3,4,0.2,-0.15,right,3,2020-12-13_18h02.41.028,premup-three_ses-02_part-02_label-phase2,3.2.4,Linux x86_64,60,,,,,,,,,,,,,,,,,,,,,,,,,,,,,
right,0.786999941,0,212,1,0,1,0,1,0,1,0,240,162,1,239,3,5,3,stim/53.jpeg,Instruments,1,stim/objects/Instruments/tambourine2.png,0.1,4,0.2,-0.15,left,3,2020-12-13_18h02.41.028,premup-three_ses-02_part-02_label-phase2,3.2.4,Linux x86_64,60,,,,,,,,,,,,,,,,,,,,,,,,,,,,,
left,0.546999693,1,213,1,0,1,0,1,0,1,0,240,222,1,239,3,6,3,stim/63.jpeg,Instruments,1,stim/objects/Instruments/trumpet2.png,0.9,1,-0.2,0.15,left,3,2020-12-13_18h02.41.028,premup-three_ses-02_part-02_label-phase2,3.2.4,Linux x86_64,60,,,,,,,,,,,,,,,,,,,,,,,,,,,,,
,,0,214,1,0,1,0,1,0,1,0,240,68,1,239,1,2,1,stim/21.jpeg,HouseObjects,2,stim/objects/HouseObjects/safetypin.png,0.5,3,-0.2,-0.15,right,3,2020-12-13_18h02.41.028,premup-three_ses-02_part-02_label-phase2,3.2.4,Linux x86_64,60,,,,,,,,,,,,,,,,,,,,,,,,,,,,,
right,0.554999828,1,215,1,0,1,0,1,0,1,0,240,94,1,239,2,3,3,stim/33.jpeg,HouseObjects,2,stim/objects/HouseObjects/thermometer.png,0.7,2,0.2,0.15,right,3,2020-12-13_18h02.41.028,premup-three_ses-02_part-02_label-phase2,3.2.4,Linux x86_64,60,,,,,,,,,,,,,,,,,,,,,,,,,,,,,
right,0.523999929,1,216,1,0,1,0,1,0,1,0,240,112,1,239,2,3,1,stim/31.jpeg,HouseObjects,2,stim/objects/HouseObjects/spraybottle.png,0.7,2,0.2,0.15,right,3,2020-12-13_18h02.41.028,premup-three_ses-02_part-02_label-phase2,3.2.4,Linux x86_64,60,,,,,,,,,,,,,,,,,,,,,,,,,,,,,
left,0.574999809,1,217,1,0,1,0,1,0,1,0,240,215,1,239,3,6,4,stim/64.jpeg,Instruments,1,stim/objects/Instruments/tuba2.png,0.9,3,-0.2,-0.15,left,3,2020-12-13_18h02.41.028,premup-three_ses-02_part-02_label-phase2,3.2.4,Linux x86_64,60,,,,,,,,,,,,,,,,,,,,,,,,,,,,,
left,0.591999769,1,218,1,0,1,0,1,0,1,0,240,230,1,239,3,6,3,stim/63.jpeg,Instruments,1,stim/objects/Instruments/trumpet2.png,0.9,3,-0.2,-0.15,left,3,2020-12-13_18h02.41.028,premup-three_ses-02_part-02_label-phase2,3.2.4,Linux x86_64,60,,,,,,,,,,,,,,,,,,,,,,,,,,,,,
right,0.59499979,1,219,1,0,1,0,1,0,1,0,240,22,1,239,1,1,3,stim/13.jpeg,HouseObjects,2,stim/objects/HouseObjects/rubbergloves.png,0.5,1,-0.2,0.15,right,3,2020-12-13_18h02.41.028,premup-three_ses-02_part-02_label-phase2,3.2.4,Linux x86_64,60,,,,,,,,,,,,,,,,,,,,,,,,,,,,,
right,0.561999798,1,220,1,0,1,0,1,0,1,0,240,188,1,239,3,5,1,stim/51.jpeg,HouseObjects,2,stim/objects/HouseObjects/safetypin2.png,0.9,4,0.2,-0.15,right,3,2020-12-13_18h02.41.028,premup-three_ses-02_part-02_label-phase2,3.2.4,Linux x86_64,60,,,,,,,,,,,,,,,,,,,,,,,,,,,,,
left,0.645999908,1,221,1,0,1,0,1,0,1,0,240,141,1,239,2,4,2,stim/42.jpeg,Instruments,1,stim/objects/Instruments/pipepiano2.png,0.7,3,-0.2,-0.15,left,3,2020-12-13_18h02.41.028,premup-three_ses-02_part-02_label-phase2,3.2.4,Linux x86_64,60,,,,,,,,,,,,,,,,,,,,,,,,,,,,,
left,0.55099988,1,222,1,0,1,0,1,0,1,0,240,229,1,239,3,6,2,stim/62.jpeg,Instruments,1,stim/objects/Instruments/trombone2.png,0.9,4,0.2,-0.15,left,3,2020-12-13_18h02.41.028,premup-three_ses-02_part-02_label-phase2,3.2.4,Linux x86_64,60,,,,,,,,,,,,,,,,,,,,,,,,,,,,,
left,0.432999849,1,223,1,0,1,0,1,0,1,0,240,227,1,239,3,6,4,stim/64.jpeg,Instruments,1,stim/objects/Instruments/tuba2.png,0.9,3,-0.2,-0.15,left,3,2020-12-13_18h02.41.028,premup-three_ses-02_part-02_label-phase2,3.2.4,Linux x86_64,60,,,,,,,,,,,,,,,,,,,,,,,,,,,,,
right,0.670999765,1,224,1,0,1,0,1,0,1,0,240,99,1,239,2,3,4,stim/34.jpeg,HouseObjects,2,stim/objects/HouseObjects/thread.png,0.7,4,0.2,-0.15,right,3,2020-12-13_18h02.41.028,premup-three_ses-02_part-02_label-phase2,3.2.4,Linux x86_64,60,,,,,,,,,,,,,,,,,,,,,,,,,,,,,
right,0.604999781,0,225,1,0,1,0,1,0,1,0,240,17,1,239,1,1,2,stim/12.jpeg,Instruments,1,stim/objects/Instruments/pipepiano.png,0.5,4,0.2,-0.15,left,3,2020-12-13_18h02.41.028,premup-three_ses-02_part-02_label-phase2,3.2.4,Linux x86_64,60,,,,,,,,,,,,,,,,,,,,,,,,,,,,,
right,0.623999834,1,226,1,0,1,0,1,0,1,0,240,179,1,239,3,5,4,stim/54.jpeg,HouseObjects,2,stim/objects/HouseObjects/sponge2.png,0.9,3,-0.2,-0.15,right,3,2020-12-13_18h02.41.028,premup-three_ses-02_part-02_label-phase2,3.2.4,Linux x86_64,60,,,,,,,,,,,,,,,,,,,,,,,,,,,,,
right,0.815999746,1,227,1,0,1,0,1,0,1,0,240,31,1,239,1,1,4,stim/14.jpeg,HouseObjects,2,stim/objects/HouseObjects/rug.png,0.5,1,-0.2,0.15,right,3,2020-12-13_18h02.41.028,premup-three_ses-02_part-02_label-phase2,3.2.4,Linux x86_64,60,,,,,,,,,,,,,,,,,,,,,,,,,,,,,
right,0.687999964,1,228,1,0,1,0,1,0,1,0,240,170,1,239,3,5,3,stim/53.jpeg,HouseObjects,2,stim/objects/HouseObjects/scale2.png,0.9,3,-0.2,-0.15,right,3,2020-12-13_18h02.41.028,premup-three_ses-02_part-02_label-phase2,3.2.4,Linux x86_64,60,,,,,,,,,,,,,,,,,,,,,,,,,,,,,
right,0.493000031,1,229,1,0,1,0,1,0,1,0,240,100,1,239,2,3,1,stim/31.jpeg,HouseObjects,2,stim/objects/HouseObjects/spraybottle.png,0.7,4,0.2,-0.15,right,3,2020-12-13_18h02.41.028,premup-three_ses-02_part-02_label-phase2,3.2.4,Linux x86_64,60,,,,,,,,,,,,,,,,,,,,,,,,,,,,,
right,0.629999876,0,230,1,0,1,0,1,0,1,0,240,47,1,239,1,2,4,stim/24.jpeg,Instruments,1,stim/objects/Instruments/timbal.png,0.5,3,-0.2,-0.15,left,3,2020-12-13_18h02.41.028,premup-three_ses-02_part-02_label-phase2,3.2.4,Linux x86_64,60,,,,,,,,,,,,,,,,,,,,,,,,,,,,,
right,0.616999865,1,231,1,0,1,0,1,0,1,0,240,185,1,239,3,5,2,stim/52.jpeg,HouseObjects,2,stim/objects/HouseObjects/saw2.png,0.9,2,0.2,0.15,right,3,2020-12-13_18h02.41.028,premup-three_ses-02_part-02_label-phase2,3.2.4,Linux x86_64,60,,,,,,,,,,,,,,,,,,,,,,,,,,,,,
right,0.528999805,1,232,1,0,1,0,1,0,1,0,240,39,1,239,1,1,4,stim/14.jpeg,HouseObjects,2,stim/objects/HouseObjects/rug.png,0.5,1,-0.2,0.15,right,3,2020-12-13_18h02.41.028,premup-three_ses-02_part-02_label-phase2,3.2.4,Linux x86_64,60,,,,,,,,,,,,,,,,,,,,,,,,,,,,,
left,0.81799984,1,233,1,0,1,0,1,0,1,0,240,49,1,239,1,2,2,stim/22.jpeg,Instruments,1,stim/objects/Instruments/speaker.png,0.5,4,0.2,-0.15,left,3,2020-12-13_18h02.41.028,premup-three_ses-02_part-02_label-phase2,3.2.4,Linux x86_64,60,,,,,,,,,,,,,,,,,,,,,,,,,,,,,
left,0.60800004,1,234,1,0,1,0,1,0,1,0,240,202,1,239,3,6,3,stim/63.jpeg,Instruments,1,stim/objects/Instruments/trumpet2.png,0.9,4,0.2,-0.15,left,3,2020-12-13_18h02.41.028,premup-three_ses-02_part-02_label-phase2,3.2.4,Linux x86_64,60,,,,,,,,,,,,,,,,,,,,,,,,,,,,,
left,0.509999752,0,235,1,0,1,0,1,0,1,0,240,155,1,239,2,4,4,stim/44.jpeg,HouseObjects,2,stim/objects/HouseObjects/rug2.png,0.3,2,0.2,0.15,right,3,2020-12-13_18h02.41.028,premup-three_ses-02_part-02_label-phase2,3.2.4,Linux x86_64,60,,,,,,,,,,,,,,,,,,,,,,,,,,,,,
left,0.654999971,0,236,1,0,1,0,1,0,1,0,240,62,1,239,1,2,3,stim/23.jpeg,HouseObjects,2,stim/objects/HouseObjects/scale.png,0.5,3,-0.2,-0.15,right,3,2020-12-13_18h02.41.028,premup-three_ses-02_part-02_label-phase2,3.2.4,Linux x86_64,60,,,,,,,,,,,,,,,,,,,,,,,,,,,,,
right,0.630999804,1,237,1,0,1,0,1,0,1,0,240,111,1,239,2,3,4,stim/34.jpeg,HouseObjects,2,stim/objects/HouseObjects/thread.png,0.7,2,0.2,0.15,right,3,2020-12-13_18h02.41.028,premup-three_ses-02_part-02_label-phase2,3.2.4,Linux x86_64,60,,,,,,,,,,,,,,,,,,,,,,,,,,,,,
right,0.720999956,0,238,1,0,1,0,1,0,1,0,240,11,1,239,1,1,4,stim/14.jpeg,Instruments,1,stim/objects/Instruments/record_player.png,0.5,4,0.2,-0.15,left,3,2020-12-13_18h02.41.028,premup-three_ses-02_part-02_label-phase2,3.2.4,Linux x86_64,60,,,,,,,,,,,,,,,,,,,,,,,,,,,,,
right,0.552999735,1,239,1,0,1,0,1,0,1,0,240,182,1,239,3,5,3,stim/53.jpeg,HouseObjects,2,stim/objects/HouseObjects/scale2.png,0.9,1,-0.2,0.15,right,3,2020-12-13_18h02.41.028,premup-three_ses-02_part-02_label-phase2,3.2.4,Linux x86_64,60,,,,,,,,,,,,,,,,,,,,,,,,,,,,,
right,0.579999924,1,240,1,0,1,0,1,0,1,0,240,36,1,239,1,1,1,stim/11.jpeg,HouseObjects,2,stim/objects/HouseObjects/recyclingbin.png,0.5,2,0.2,0.15,right,3,2020-12-13_18h02.41.028,premup-three_ses-02_part-02_label-phase2,3.2.4,Linux x86_64,60,,,,,,,,,,,,,,,,,,,,,,,,,,,,,
,,,,1,0,1,0,1,0,,,,,,,,1,,stim/11.jpeg,,,,,,,,,3,2020-12-13_18h02.41.028,premup-three_ses-02_part-02_label-phase2,3.2.4,Linux x86_64,60,51,5.721000195,,,1,0,6,0,1,5,Music items,45,55,Household items,45,55,,,,,,,,,,,,,
,,,,1,0,1,0,1,0,,,,,,,,2,,stim/21.jpeg,,,,,,,,,3,2020-12-13_18h02.41.028,premup-three_ses-02_part-02_label-phase2,3.2.4,Linux x86_64,60,68,3.454999924,,,1,0,6,1,1,5,Household items,45,55,Music items,45,55,,,,,,,,,,,,,
,,,,1,0,1,0,1,0,,,,,,,,5,,stim/51.jpeg,,,,,,,,,3,2020-12-13_18h02.41.028,premup-three_ses-02_part-02_label-phase2,3.2.4,Linux x86_64,60,86,2.861999989,,,1,0,6,4,1,5,Household items,5,15,Music items,85,95,,,,,,,,,,,,,
,,,,1,0,1,0,1,0,,,,,,,,3,,stim/31.jpeg,,,,,,,,,3,2020-12-13_18h02.41.028,premup-three_ses-02_part-02_label-phase2,3.2.4,Linux x86_64,60,34,5.253000021,,,1,0,6,2,1,5,Music items,65,75,Household items,25,35,,,,,,,,,,,,,
,,,,1,0,1,0,1,0,,,,,,,,4,,stim/41.jpeg,,,,,,,,,3,2020-12-13_18h02.41.028,premup-three_ses-02_part-02_label-phase2,3.2.4,Linux x86_64,60,62,2.953999996,,,1,0,6,3,1,5,Music items,65,75,Household items,25,35,,,,,,,,,,,,,
,,,,1,0,1,0,1,0,,,,,,,,6,,stim/61.jpeg,,,,,,,,,3,2020-12-13_18h02.41.028,premup-three_ses-02_part-02_label-phase2,3.2.4,Linux x86_64,60,83,2.677000046,,,1,0,6,5,1,5,Music items,5,15,Household items,85,95,,,,,,,,,,,,,
,,,,1,0,1,0,1,0,,,,,,,,,,,,,,,,,,,3,2020-12-13_18h02.41.028,premup-three_ses-02_part-02_label-phase2,3.2.4,Linux x86_64,60,,,,,,,,,,,,,,,,,,,,,,,,,,,,,
right,0.625999689,0,241,,,,,,,,,,,,,2,4,1,stim/41.jpeg,Instruments,1,stim/objects/Instruments/electricguitar3.png,0.7,2,0.2,0.15,left,3,2020-12-13_18h02.41.028,premup-three_ses-02_part-02_label-phase2,3.2.4,Linux x86_64,60,,,,,,,,,,,,,,,,,1,0,330,99,1,329,2,,,,,,
right,0.736999989,1,242,,,,,,,,,,,,,2,3,3,stim/33.jpeg,HouseObjects,2,stim/objects/HouseObjects/ashtray4.png,0.7,1,-0.2,0.15,right,3,2020-12-13_18h02.41.028,premup-three_ses-02_part-02_label-phase2,3.2.4,Linux x86_64,60,,,,,,,,,,,,,,,,,1,0,330,90,1,329,1,,,,,,
left,0.715999842,1,243,,,,,,,,,,,,,1,2,4,stim/24.jpeg,Instruments,1,stim/objects/Instruments/bassguitar3.png,0.5,2,0.2,0.15,left,3,2020-12-13_18h02.41.028,premup-three_ses-02_part-02_label-phase2,3.2.4,Linux x86_64,60,,,,,,,,,,,,,,,,,1,0,330,35,1,329,2,,,,,,
right,0.61500001,0,244,,,,,,,,,,,,,2,3,3,stim/33.jpeg,Instruments,1,stim/objects/Instruments/acousticguitar4.png,0.3,3,-0.2,-0.15,left,3,2020-12-13_18h02.41.028,premup-three_ses-02_part-02_label-phase2,3.2.4,Linux x86_64,60,,,,,,,,,,,,,,,,,1,0,330,66,1,329,1,,,,,,
left,0.618999958,1,245,,,,,,,,,,,,,2,4,2,stim/42.jpeg,Instruments,1,stim/objects/Instruments/chime4.png,0.7,4,0.2,-0.15,left,3,2020-12-13_18h02.41.028,premup-three_ses-02_part-02_label-phase2,3.2.4,Linux x86_64,60,,,,,,,,,,,,,,,,,1,0,330,112,1,329,1,,,,,,
,,0,246,,,,,,,,,,,,,2,3,3,stim/33.jpeg,HouseObjects,2,stim/objects/HouseObjects/cushion3.png,0.7,1,-0.2,0.15,right,3,2020-12-13_18h02.41.028,premup-three_ses-02_part-02_label-phase2,3.2.4,Linux x86_64,60,,,,,,,,,,,,,,,,,1,0,330,78,1,329,2,,,,,,
left,0.646999836,1,247,,,,,,,,,,,,,1,1,3,stim/13.jpeg,Instruments,1,stim/objects/Instruments/guitarcase3.png,0.5,1,-0.2,0.15,left,3,2020-12-13_18h02.41.028,premup-three_ses-02_part-02_label-phase2,3.2.4,Linux x86_64,60,,,,,,,,,,,,,,,,,1,0,330,10,1,329,1,,,,,,
left,0.549999714,1,248,,,,,,,,,,,,,3,6,3,stim/63.jpeg,Instruments,1,stim/objects/Instruments/grandpiano3.png,0.9,3,-0.2,-0.15,left,3,2020-12-13_18h02.41.028,premup-three_ses-02_part-02_label-phase2,3.2.4,Linux x86_64,60,,,,,,,,,,,,,,,,,1,0,330,264,1,329,2,,,,,,
right,0.661999702,1,249,,,,,,,,,,,,,3,5,2,stim/52.jpeg,HouseObjects,2,stim/objects/HouseObjects/dustpan3.png,0.9,3,-0.2,-0.15,right,3,2020-12-13_18h02.41.028,premup-three_ses-02_part-02_label-phase2,3.2.4,Linux x86_64,60,,,,,,,,,,,,,,,,,1,0,330,151,1,329,2,,,,,,
left,0.508999825,1,250,,,,,,,,,,,,,1,1,4,stim/14.jpeg,Instruments,1,stim/objects/Instruments/harmonica3.png,0.5,3,-0.2,-0.15,left,3,2020-12-13_18h02.41.028,premup-three_ses-02_part-02_label-phase2,3.2.4,Linux x86_64,60,,,,,,,,,,,,,,,,,1,0,330,11,1,329,1,,,,,,
right,0.565999746,1,251,,,,,,,,,,,,,3,5,1,stim/51.jpeg,HouseObjects,2,stim/objects/HouseObjects/glass3.png,0.9,1,-0.2,0.15,right,3,2020-12-13_18h02.41.028,premup-three_ses-02_part-02_label-phase2,3.2.4,Linux x86_64,60,,,,,,,,,,,,,,,,,1,0,330,154,1,329,2,,,,,,
left,0.671000004,1,252,,,,,,,,,,,,,1,2,1,stim/21.jpeg,Instruments,1,stim/objects/Instruments/chime3.png,0.5,2,0.2,0.15,left,3,2020-12-13_18h02.41.028,premup-three_ses-02_part-02_label-phase2,3.2.4,Linux x86_64,60,,,,,,,,,,,,,,,,,1,0,330,32,1,329,2,,,,,,
left,0.597999811,1,253,,,,,,,,,,,,,3,6,1,stim/61.jpeg,Instruments,1,stim/objects/Instruments/flutetrans3.png,0.9,1,-0.2,0.15,left,3,2020-12-13_18h02.41.028,premup-three_ses-02_part-02_label-phase2,3.2.4,Linux x86_64,60,,,,,,,,,,,,,,,,,1,0,330,266,1,329,2,,,,,,
left,0.701999903,1,254,,,,,,,,,,,,,2,4,1,stim/41.jpeg,Instruments,1,stim/objects/Instruments/electricguitar4.png,0.7,3,-0.2,-0.15,left,3,2020-12-13_18h02.41.028,premup-three_ses-02_part-02_label-phase2,3.2.4,Linux x86_64,60,,,,,,,,,,,,,,,,,1,0,330,119,1,329,1,,,,,,
,,0,255,,,,,,,,,,,,,1,2,4,stim/24.jpeg,HouseObjects,2,stim/objects/HouseObjects/match3.png,0.5,3,-0.2,-0.15,right,3,2020-12-13_18h02.41.028,premup-three_ses-02_part-02_label-phase2,3.2.4,Linux x86_64,60,,,,,,,,,,,,,,,,,1,0,330,59,1,329,1,,,,,,
left,0.559999943,1,256,,,,,,,,,,,,,3,6,4,stim/64.jpeg,Instruments,1,stim/objects/Instruments/grandpiano3.png,0.9,1,-0.2,0.15,left,3,2020-12-13_18h02.41.028,premup-three_ses-02_part-02_label-phase2,3.2.4,Linux x86_64,60,,,,,,,,,,,,,,,,,1,0,330,269,1,329,2,,,,,,
right,0.537999868,1,257,,,,,,,,,,,,,2,3,4,stim/34.jpeg,HouseObjects,2,stim/objects/HouseObjects/towel3.png,0.7,2,0.2,0.15,right,3,2020-12-13_18h02.41.028,premup-three_ses-02_part-02_label-phase2,3.2.4,Linux x86_64,60,,,,,,,,,,,,,,,,,1,0,330,87,1,329,1,,,,,,
left,0.55099988,1,258,,,,,,,,,,,,,2,4,4,stim/44.jpeg,Instruments,1,stim/objects/Instruments/drums3.png,0.7,4,0.2,-0.15,left,3,2020-12-13_18h02.41.028,premup-three_ses-02_part-02_label-phase2,3.2.4,Linux x86_64,60,,,,,,,,,,,,,,,,,1,0,330,102,1,329,2,,,,,,
left,0.484999895,0,259,,,,,,,,,,,,,3,5,3,stim/53.jpeg,HouseObjects,2,stim/objects/HouseObjects/garbagebin3.png,0.9,3,-0.2,-0.15,right,3,2020-12-13_18h02.41.028,premup-three_ses-02_part-02_label-phase2,3.2.4,Linux x86_64,60,,,,,,,,,,,,,,,,,1,0,330,168,1,329,2,,,,,,
right,0.532999992,1,260,,,,,,,,,,,,,3,5,2,stim/52.jpeg,HouseObjects,2,stim/objects/HouseObjects/dustpan3.png,0.9,1,-0.2,0.15,right,3,2020-12-13_18h02.41.028,premup-three_ses-02_part-02_label-phase2,3.2.4,Linux x86_64,60,,,,,,,,,,,,,,,,,1,0,330,171,1,329,2,,,,,,
left,0.677999735,1,261,,,,,,,,,,,,,2,4,4,stim/44.jpeg,Instruments,1,stim/objects/Instruments/cornet4.png,0.7,4,0.2,-0.15,left,3,2020-12-13_18h02.41.028,premup-three_ses-02_part-02_label-phase2,3.2.4,Linux x86_64,60,,,,,,,,,,,,,,,,,1,0,330,114,1,329,1,,,,,,
left,0.704999685,1,262,,,,,,,,,,,,,3,6,1,stim/61.jpeg,Instruments,1,stim/objects/Instruments/laud4.png,0.9,2,0.2,0.15,left,3,2020-12-13_18h02.41.028,premup-three_ses-02_part-02_label-phase2,3.2.4,Linux x86_64,60,,,,,,,,,,,,,,,,,1,0,330,310,1,329,1,,,,,,
,,0,263,,,,,,,,,,,,,2,3,4,stim/34.jpeg,HouseObjects,2,stim/objects/HouseObjects/dishsoap3.png,0.7,4,0.2,-0.15,right,3,2020-12-13_18h02.41.028,premup-three_ses-02_part-02_label-phase2,3.2.4,Linux x86_64,60,,,,,,,,,,,,,,,,,1,0,330,79,1,329,2,,,,,,
right,0.282999992,0,264,,,,,,,,,,,,,1,2,2,stim/22.jpeg,Instruments,1,stim/objects/Instruments/chime3.png,0.5,1,-0.2,0.15,left,3,2020-12-13_18h02.41.028,premup-three_ses-02_part-02_label-phase2,3.2.4,Linux x86_64,60,,,,,,,,,,,,,,,,,1,0,330,37,1,329,2,,,,,,
left,0.661000013,1,265,,,,,,,,,,,,,3,6,4,stim/64.jpeg,Instruments,1,stim/objects/Instruments/grandpiano3.png,0.9,3,-0.2,-0.15,left,3,2020-12-13_18h02.41.028,premup-three_ses-02_part-02_label-phase2,3.2.4,Linux x86_64,60,,,,,,,,,,,,,,,,,1,0,330,289,1,329,2,,,,,,
right,0.563999891,1,266,,,,,,,,,,,,,3,5,2,stim/52.jpeg,HouseObjects,2,stim/objects/HouseObjects/flyswatter3.png,0.9,1,-0.2,0.15,right,3,2020-12-13_18h02.41.028,premup-three_ses-02_part-02_label-phase2,3.2.4,Linux x86_64,60,,,,,,,,,,,,,,,,,1,0,330,207,1,329,2,,,,,,
right,0.710999966,1,267,,,,,,,,,,,,,2,3,2,stim/32.jpeg,HouseObjects,2,stim/objects/HouseObjects/clothespin3.png,0.7,1,-0.2,0.15,right,3,2020-12-13_18h02.41.028,premup-three_ses-02_part-02_label-phase2,3.2.4,Linux x86_64,60,,,,,,,,,,,,,,,,,1,0,330,81,1,329,2,,,,,,
right,0.786999702,1,268,,,,,,,,,,,,,3,5,4,stim/54.jpeg,HouseObjects,2,stim/objects/HouseObjects/iron4.png,0.9,2,0.2,0.15,right,3,2020-12-13_18h02.41.028,premup-three_ses-02_part-02_label-phase2,3.2.4,Linux x86_64,60,,,,,,,,,,,,,,,,,1,0,330,229,1,329,1,,,,,,
left,0.643999815,1,269,,,,,,,,,,,,,1,2,1,stim/21.jpeg,Instruments,1,stim/objects/Instruments/musicsheet3.png,0.5,1,-0.2,0.15,left,3,2020-12-13_18h02.41.028,premup-three_ses-02_part-02_label-phase2,3.2.4,Linux x86_64,60,,,,,,,,,,,,,,,,,1,0,330,44,1,329,1,,,,,,
right,0.56099987,1,270,,,,,,,,,,,,,1,1,4,stim/14.jpeg,HouseObjects,2,stim/objects/HouseObjects/basket3.png,0.5,1,-0.2,0.15,right,3,2020-12-13_18h02.41.028,premup-three_ses-02_part-02_label-phase2,3.2.4,Linux x86_64,60,,,,,,,,,,,,,,,,,1,0,330,23,1,329,2,,,,,,
right,0.664000034,1,271,,,,,,,,,,,,,3,5,2,stim/52.jpeg,HouseObjects,2,stim/objects/HouseObjects/flyswatter3.png,0.9,1,-0.2,0.15,right,3,2020-12-13_18h02.41.028,premup-three_ses-02_part-02_label-phase2,3.2.4,Linux x86_64,60,,,,,,,,,,,,,,,,,1,0,330,187,1,329,2,,,,,,
left,0.556999922,1,272,,,,,,,,,,,,,3,6,1,stim/61.jpeg,Instruments,1,stim/objects/Instruments/grandpiano3.png,0.9,1,-0.2,0.15,left,3,2020-12-13_18h02.41.028,premup-three_ses-02_part-02_label-phase2,3.2.4,Linux x86_64,60,,,,,,,,,,,,,,,,,1,0,330,294,1,329,2,,,,,,
left,0.595999718,1,273,,,,,,,,,,,,,3,6,4,stim/64.jpeg,Instruments,1,stim/objects/Instruments/frenchhorn3.png,0.9,3,-0.2,-0.15,left,3,2020-12-13_18h02.41.028,premup-three_ses-02_part-02_label-phase2,3.2.4,Linux x86_64,60,,,,,,,,,,,,,,,,,1,0,330,237,1,329,2,,,,,,
right,0.571999788,1,274,,,,,,,,,,,,,3,5,2,stim/52.jpeg,HouseObjects,2,stim/objects/HouseObjects/doormat3.png,0.9,2,0.2,0.15,right,3,2020-12-13_18h02.41.028,premup-three_ses-02_part-02_label-phase2,3.2.4,Linux x86_64,60,,,,,,,,,,,,,,,,,1,0,330,215,1,329,2,,,,,,
right,0.633999825,0,275,,,,,,,,,,,,,2,3,3,stim/33.jpeg,Instruments,1,stim/objects/Instruments/violin3.png,0.3,1,-0.2,0.15,left,3,2020-12-13_18h02.41.028,premup-three_ses-02_part-02_label-phase2,3.2.4,Linux x86_64,60,,,,,,,,,,,,,,,,,1,0,330,62,1,329,1,,,,,,
left,0.662999868,1,276,,,,,,,,,,,,,2,4,2,stim/42.jpeg,Instruments,1,stim/objects/Instruments/electricguitar3.png,0.7,1,-0.2,0.15,left,3,2020-12-13_18h02.41.028,premup-three_ses-02_part-02_label-phase2,3.2.4,Linux x86_64,60,,,,,,,,,,,,,,,,,1,0,330,104,1,329,2,,,,,,
right,0.691999674,0,277,,,,,,,,,,,,,2,3,2,stim/32.jpeg,Instruments,1,stim/objects/Instruments/bassdrum4.png,0.3,3,-0.2,-0.15,left,3,2020-12-13_18h02.41.028,premup-three_ses-02_part-02_label-phase2,3.2.4,Linux x86_64,60,,,,,,,,,,,,,,,,,1,0,330,69,1,329,1,,,,,,
left,0.630999804,1,278,,,,,,,,,,,,,3,6,1,stim/61.jpeg,Instruments,1,stim/objects/Instruments/flute3.png,0.9,2,0.2,0.15,left,3,2020-12-13_18h02.41.028,premup-three_ses-02_part-02_label-phase2,3.2.4,Linux x86_64,60,,,,,,,,,,,,,,,,,1,0,330,290,1,329,2,,,,,,
left,0.510999918,1,279,,,,,,,,,,,,,3,5,3,stim/53.jpeg,Instruments,1,stim/objects/Instruments/harmonica4.png,0.1,3,-0.2,-0.15,left,3,2020-12-13_18h02.41.028,premup-three_ses-02_part-02_label-phase2,3.2.4,Linux x86_64,60,,,,,,,,,,,,,,,,,1,0,330,136,1,329,1,,,,,,
right,0.65899992,1,280,,,,,,,,,,,,,2,3,1,stim/31.jpeg,HouseObjects,2,stim/objects/HouseObjects/coffee3.png,0.7,4,0.2,-0.15,right,3,2020-12-13_18h02.41.028,premup-three_ses-02_part-02_label-phase2,3.2.4,Linux x86_64,60,,,,,,,,,,,,,,,,,1,0,330,72,1,329,2,,,,,,
right,0.716999769,0,281,,,,,,,,,,,,,1,2,3,stim/23.jpeg,Instruments,1,stim/objects/Instruments/cornet3.png,0.5,3,-0.2,-0.15,left,3,2020-12-13_18h02.41.028,premup-three_ses-02_part-02_label-phase2,3.2.4,Linux x86_64,60,,,,,,,,,,,,,,,,,1,0,330,34,1,329,2,,,,,,
left,0.622999907,1,282,,,,,,,,,,,,,3,6,3,stim/63.jpeg,Instruments,1,stim/objects/Instruments/flutetrans3.png,0.9,1,-0.2,0.15,left,3,2020-12-13_18h02.41.028,premup-three_ses-02_part-02_label-phase2,3.2.4,Linux x86_64,60,,,,,,,,,,,,,,,,,1,0,330,276,1,329,2,,,,,,
right,0.717999697,1,283,,,,,,,,,,,,,3,5,1,stim/51.jpeg,HouseObjects,2,stim/objects/HouseObjects/glass3.png,0.9,3,-0.2,-0.15,right,3,2020-12-13_18h02.41.028,premup-three_ses-02_part-02_label-phase2,3.2.4,Linux x86_64,60,,,,,,,,,,,,,,,,,1,0,330,214,1,329,2,,,,,,
right,0.799999714,1,284,,,,,,,,,,,,,2,3,1,stim/31.jpeg,HouseObjects,2,stim/objects/HouseObjects/clothesdryingrack3.png,0.7,1,-0.2,0.15,right,3,2020-12-13_18h02.41.028,premup-three_ses-02_part-02_label-phase2,3.2.4,Linux x86_64,60,,,,,,,,,,,,,,,,,1,0,330,80,1,329,2,,,,,,
right,0.622999668,1,285,,,,,,,,,,,,,3,5,3,stim/53.jpeg,HouseObjects,2,stim/objects/HouseObjects/flyswatter3.png,0.9,3,-0.2,-0.15,right,3,2020-12-13_18h02.41.028,premup-three_ses-02_part-02_label-phase2,3.2.4,Linux x86_64,60,,,,,,,,,,,,,,,,,1,0,330,152,1,329,2,,,,,,
right,0.785999775,1,286,,,,,,,,,,,,,2,3,3,stim/33.jpeg,HouseObjects,2,stim/objects/HouseObjects/dishsoap3.png,0.7,4,0.2,-0.15,right,3,2020-12-13_18h02.41.028,premup-three_ses-02_part-02_label-phase2,3.2.4,Linux x86_64,60,,,,,,,,,,,,,,,,,1,0,330,74,1,329,2,,,,,,
left,0.579999924,1,287,,,,,,,,,,,,,3,6,1,stim/61.jpeg,Instruments,1,stim/objects/Instruments/flute3.png,0.9,1,-0.2,0.15,left,3,2020-12-13_18h02.41.028,premup-three_ses-02_part-02_label-phase2,3.2.4,Linux x86_64,60,,,,,,,,,,,,,,,,,1,0,330,250,1,329,2,,,,,,
right,0.61199975,1,288,,,,,,,,,,,,,3,5,3,stim/53.jpeg,HouseObjects,2,stim/objects/HouseObjects/garbagebin3.png,0.9,4,0.2,-0.15,right,3,2020-12-13_18h02.41.028,premup-three_ses-02_part-02_label-phase2,3.2.4,Linux x86_64,60,,,,,,,,,,,,,,,,,1,0,330,188,1,329,2,,,,,,
left,0.572999954,1,289,,,,,,,,,,,,,3,6,4,stim/64.jpeg,Instruments,1,stim/objects/Instruments/flute3.png,0.9,3,-0.2,-0.15,left,3,2020-12-13_18h02.41.028,premup-three_ses-02_part-02_label-phase2,3.2.4,Linux x86_64,60,,,,,,,,,,,,,,,,,1,0,330,265,1,329,2,,,,,,
left,0.477999926,1,290,,,,,,,,,,,,,3,6,4,stim/64.jpeg,Instruments,1,stim/objects/Instruments/gong3.png,0.9,2,0.2,0.15,left,3,2020-12-13_18h02.41.028,premup-three_ses-02_part-02_label-phase2,3.2.4,Linux x86_64,60,,,,,,,,,,,,,,,,,1,0,330,253,1,329,2,,,,,,
left,0.483999729,1,291,,,,,,,,,,,,,3,6,3,stim/63.jpeg,Instruments,1,stim/objects/Instruments/frenchhorn3.png,0.9,2,0.2,0.15,left,3,2020-12-13_18h02.41.028,premup-three_ses-02_part-02_label-phase2,3.2.4,Linux x86_64,60,,,,,,,,,,,,,,,,,1,0,330,292,1,329,2,,,,,,
left,0.421999693,1,292,,,,,,,,,,,,,3,6,3,stim/63.jpeg,Instruments,1,stim/objects/Instruments/flutetrans3.png,0.9,3,-0.2,-0.15,left,3,2020-12-13_18h02.41.028,premup-three_ses-02_part-02_label-phase2,3.2.4,Linux x86_64,60,,,,,,,,,,,,,,,,,1,0,330,296,1,329,2,,,,,,
left,0.563999653,0,293,,,,,,,,,,,,,1,1,2,stim/12.jpeg,HouseObjects,2,stim/objects/HouseObjects/barbecuelighter3.png,0.5,1,-0.2,0.15,right,3,2020-12-13_18h02.41.028,premup-three_ses-02_part-02_label-phase2,3.2.4,Linux x86_64,60,,,,,,,,,,,,,,,,,1,0,330,17,1,329,2,,,,,,
right,0.628999949,1,294,,,,,,,,,,,,,3,5,1,stim/51.jpeg,HouseObjects,2,stim/objects/HouseObjects/garbagebin3.png,0.9,1,-0.2,0.15,right,3,2020-12-13_18h02.41.028,premup-three_ses-02_part-02_label-phase2,3.2.4,Linux x86_64,60,,,,,,,,,,,,,,,,,1,0,330,178,1,329,2,,,,,,
left,0.603999853,1,295,,,,,,,,,,,,,3,6,4,stim/64.jpeg,Instruments,1,stim/objects/Instruments/frenchhorn3.png,0.9,3,-0.2,-0.15,left,3,2020-12-13_18h02.41.028,premup-three_ses-02_part-02_label-phase2,3.2.4,Linux x86_64,60,,,,,,,,,,,,,,,,,1,0,330,257,1,329,2,,,,,,
left,0.642999887,1,296,,,,,,,,,,,,,3,6,3,stim/63.jpeg,Instruments,1,stim/objects/Instruments/marimba4.png,0.9,3,-0.2,-0.15,left,3,2020-12-13_18h02.41.028,premup-three_ses-02_part-02_label-phase2,3.2.4,Linux x86_64,60,,,,,,,,,,,,,,,,,1,0,330,312,1,329,1,,,,,,
left,0.605999708,0,297,,,,,,,,,,,,,3,6,2,stim/62.jpeg,HouseObjects,2,stim/objects/HouseObjects/towel4.png,0.1,2,0.2,0.15,right,3,2020-12-13_18h02.41.028,premup-three_ses-02_part-02_label-phase2,3.2.4,Linux x86_64,60,,,,,,,,,,,,,,,,,1,0,330,327,1,329,1,,,,,,
left,0.80099988,1,298,,,,,,,,,,,,,2,4,1,stim/41.jpeg,Instruments,1,stim/objects/Instruments/cymbal4.png,0.7,2,0.2,0.15,left,3,2020-12-13_18h02.41.028,premup-three_ses-02_part-02_label-phase2,3.2.4,Linux x86_64,60,,,,,,,,,,,,,,,,,1,0,330,115,1,329,1,,,,,,
left,0.559999704,0,299,,,,,,,,,,,,,2,4,1,stim/41.jpeg,HouseObjects,2,stim/objects/HouseObjects/coffee4.png,0.3,3,-0.2,-0.15,right,3,2020-12-13_18h02.41.028,premup-three_ses-02_part-02_label-phase2,3.2.4,Linux x86_64,60,,,,,,,,,,,,,,,,,1,0,330,127,1,329,1,,,,,,
left,0.650999784,1,300,,,,,,,,,,,,,3,6,3,stim/63.jpeg,Instruments,1,stim/objects/Instruments/frenchhorn3.png,0.9,1,-0.2,0.15,left,3,2020-12-13_18h02.41.028,premup-three_ses-02_part-02_label-phase2,3.2.4,Linux x86_64,60,,,,,,,,,,,,,,,,,1,0,330,252,1,329,2,,,,,,
right,0.652999878,1,301,,,,,,,,,,,,,1,2,4,stim/24.jpeg,HouseObjects,2,stim/objects/HouseObjects/ironingboard3.png,0.5,1,-0.2,0.15,right,3,2020-12-13_18h02.41.028,premup-three_ses-02_part-02_label-phase2,3.2.4,Linux x86_64,60,,,,,,,,,,,,,,,,,1,0,330,55,1,329,1,,,,,,
right,0.592000008,1,302,,,,,,,,,,,,,3,5,1,stim/51.jpeg,HouseObjects,2,stim/objects/HouseObjects/garbagebin3.png,0.9,1,-0.2,0.15,right,3,2020-12-13_18h02.41.028,premup-three_ses-02_part-02_label-phase2,3.2.4,Linux x86_64,60,,,,,,,,,,,,,,,,,1,0,330,198,1,329,2,,,,,,
,,0,303,,,,,,,,,,,,,3,5,4,stim/54.jpeg,HouseObjects,2,stim/objects/HouseObjects/dustpan4.png,0.9,2,0.2,0.15,right,3,2020-12-13_18h02.41.028,premup-three_ses-02_part-02_label-phase2,3.2.4,Linux x86_64,60,,,,,,,,,,,,,,,,,1,0,330,221,1,329,1,,,,,,
left,0.025999784,1,304,,,,,,,,,,,,,3,6,1,stim/61.jpeg,Instruments,1,stim/objects/Instruments/flute3.png,0.9,1,-0.2,0.15,left,3,2020-12-13_18h02.41.028,premup-three_ses-02_part-02_label-phase2,3.2.4,Linux x86_64,60,,,,,,,,,,,,,,,,,1,0,330,270,1,329,2,,,,,,
left,0.760999918,1,305,,,,,,,,,,,,,1,2,1,stim/21.jpeg,Instruments,1,stim/objects/Instruments/cello3.png,0.5,4,0.2,-0.15,left,3,2020-12-13_18h02.41.028,premup-three_ses-02_part-02_label-phase2,3.2.4,Linux x86_64,60,,,,,,,,,,,,,,,,,1,0,330,36,1,329,2,,,,,,
right,0.618999958,1,306,,,,,,,,,,,,,3,5,2,stim/52.jpeg,HouseObjects,2,stim/objects/HouseObjects/glass3.png,0.9,2,0.2,0.15,right,3,2020-12-13_18h02.41.028,premup-three_ses-02_part-02_label-phase2,3.2.4,Linux x86_64,60,,,,,,,,,,,,,,,,,1,0,330,219,1,329,2,,,,,,
left,0.62899971,1,307,,,,,,,,,,,,,1,1,4,stim/14.jpeg,Instruments,1,stim/objects/Instruments/balalaika3.png,0.5,1,-0.2,0.15,left,3,2020-12-13_18h02.41.028,premup-three_ses-02_part-02_label-phase2,3.2.4,Linux x86_64,60,,,,,,,,,,,,,,,,,1,0,330,7,1,329,2,,,,,,
right,0.66899991,1,308,,,,,,,,,,,,,3,5,3,stim/53.jpeg,HouseObjects,2,stim/objects/HouseObjects/dustpan3.png,0.9,4,0.2,-0.15,right,3,2020-12-13_18h02.41.028,premup-three_ses-02_part-02_label-phase2,3.2.4,Linux x86_64,60,,,,,,,,,,,,,,,,,1,0,330,176,1,329,2,,,,,,
left,0.615999699,1,309,,,,,,,,,,,,,3,6,2,stim/62.jpeg,Instruments,1,stim/objects/Instruments/frenchhorn3.png,0.9,4,0.2,-0.15,left,3,2020-12-13_18h02.41.028,premup-three_ses-02_part-02_label-phase2,3.2.4,Linux x86_64,60,,,,,,,,,,,,,,,,,1,0,330,287,1,329,2,,,,,,
right,0.56799984,1,310,,,,,,,,,,,,,1,1,1,stim/11.jpeg,HouseObjects,2,stim/objects/HouseObjects/ashtray3.png,0.5,4,0.2,-0.15,right,3,2020-12-13_18h02.41.028,premup-three_ses-02_part-02_label-phase2,3.2.4,Linux x86_64,60,,,,,,,,,,,,,,,,,1,0,330,20,1,329,2,,,,,,
left,0.458999872,0,311,,,,,,,,,,,,,3,5,1,stim/51.jpeg,HouseObjects,2,stim/objects/HouseObjects/doormat3.png,0.9,1,-0.2,0.15,right,3,2020-12-13_18h02.41.028,premup-three_ses-02_part-02_label-phase2,3.2.4,Linux x86_64,60,,,,,,,,,,,,,,,,,1,0,330,150,1,329,2,,,,,,
right,0.572999716,0,312,,,,,,,,,,,,,3,5,1,stim/51.jpeg,Instruments,1,stim/objects/Instruments/flute4.png,0.1,3,-0.2,-0.15,left,3,2020-12-13_18h02.41.028,premup-three_ses-02_part-02_label-phase2,3.2.4,Linux x86_64,60,,,,,,,,,,,,,,,,,1,0,330,130,1,329,1,,,,,,
right,0.629999876,0,313,,,,,,,,,,,,,2,3,2,stim/32.jpeg,Instruments,1,stim/objects/Instruments/accordion4.png,0.3,4,0.2,-0.15,left,3,2020-12-13_18h02.41.028,premup-three_ses-02_part-02_label-phase2,3.2.4,Linux x86_64,60,,,,,,,,,,,,,,,,,1,0,330,65,1,329,1,,,,,,
right,0.68599987,0,314,,,,,,,,,,,,,2,4,3,stim/43.jpeg,Instruments,1,stim/objects/Instruments/doublebass3.png,0.7,2,0.2,0.15,left,3,2020-12-13_18h02.41.028,premup-three_ses-02_part-02_label-phase2,3.2.4,Linux x86_64,60,,,,,,,,,,,,,,,,,1,0,330,101,1,329,2,,,,,,
right,0.647999763,1,315,,,,,,,,,,,,,2,3,2,stim/32.jpeg,HouseObjects,2,stim/objects/HouseObjects/cushion3.png,0.7,1,-0.2,0.15,right,3,2020-12-13_18h02.41.028,premup-three_ses-02_part-02_label-phase2,3.2.4,Linux x86_64,60,,,,,,,,,,,,,,,,,1,0,330,73,1,329,2,,,,,,
left,0.582999945,0,316,,,,,,,,,,,,,3,6,3,stim/63.jpeg,HouseObjects,2,stim/objects/HouseObjects/vacuumcleaner4.png,0.1,4,0.2,-0.15,right,3,2020-12-13_18h02.41.028,premup-three_ses-02_part-02_label-phase2,3.2.4,Linux x86_64,60,,,,,,,,,,,,,,,,,1,0,330,328,1,329,1,,,,,,
left,0.556999922,1,317,,,,,,,,,,,,,3,6,2,stim/62.jpeg,Instruments,1,stim/objects/Instruments/maraca4.png,0.9,4,0.2,-0.15,left,3,2020-12-13_18h02.41.028,premup-three_ses-02_part-02_label-phase2,3.2.4,Linux x86_64,60,,,,,,,,,,,,,,,,,1,0,330,311,1,329,1,,,,,,
right,0.630999804,1,318,,,,,,,,,,,,,3,5,4,stim/54.jpeg,HouseObjects,2,stim/objects/HouseObjects/dustpan3.png,0.9,1,-0.2,0.15,right,3,2020-12-13_18h02.41.028,premup-three_ses-02_part-02_label-phase2,3.2.4,Linux x86_64,60,,,,,,,,,,,,,,,,,1,0,330,201,1,329,2,,,,,,
right,0.468999863,1,319,,,,,,,,,,,,,3,5,1,stim/51.jpeg,HouseObjects,2,stim/objects/HouseObjects/flyswatter4.png,0.9,1,-0.2,0.15,right,3,2020-12-13_18h02.41.028,premup-three_ses-02_part-02_label-phase2,3.2.4,Linux x86_64,60,,,,,,,,,,,,,,,,,1,0,330,222,1,329,1,,,,,,
left,0.56799984,0,320,,,,,,,,,,,,,3,5,2,stim/52.jpeg,HouseObjects,2,stim/objects/HouseObjects/garbagebin3.png,0.9,3,-0.2,-0.15,right,3,2020-12-13_18h02.41.028,premup-three_ses-02_part-02_label-phase2,3.2.4,Linux x86_64,60,,,,,,,,,,,,,,,,,1,0,330,183,1,329,2,,,,,,
right,0.731999874,0,321,,,,,,,,,,,,,2,4,3,stim/43.jpeg,Instruments,1,stim/objects/Instruments/cymbal3.png,0.7,3,-0.2,-0.15,left,3,2020-12-13_18h02.41.028,premup-three_ses-02_part-02_label-phase2,3.2.4,Linux x86_64,60,,,,,,,,,,,,,,,,,1,0,330,105,1,329,2,,,,,,
right,0.36500001,1,322,,,,,,,,,,,,,1,1,2,stim/12.jpeg,HouseObjects,2,stim/objects/HouseObjects/glassmop3.png,0.5,4,0.2,-0.15,right,3,2020-12-13_18h02.41.028,premup-three_ses-02_part-02_label-phase2,3.2.4,Linux x86_64,60,,,,,,,,,,,,,,,,,1,0,330,25,1,329,1,,,,,,
right,0.644000053,1,323,,,,,,,,,,,,,2,3,1,stim/31.jpeg,HouseObjects,2,stim/objects/HouseObjects/barbecuelighter4.png,0.7,1,-0.2,0.15,right,3,2020-12-13_18h02.41.028,premup-three_ses-02_part-02_label-phase2,3.2.4,Linux x86_64,60,,,,,,,,,,,,,,,,,1,0,330,92,1,329,1,,,,,,
right,0.619999886,0,324,,,,,,,,,,,,,3,5,1,stim/51.jpeg,Instruments,1,stim/objects/Instruments/grandpiano4.png,0.1,4,0.2,-0.15,left,3,2020-12-13_18h02.41.028,premup-three_ses-02_part-02_label-phase2,3.2.4,Linux x86_64,60,,,,,,,,,,,,,,,,,1,0,330,134,1,329,1,,,,,,
right,0.455999851,1,325,,,,,,,,,,,,,3,5,1,stim/51.jpeg,HouseObjects,2,stim/objects/HouseObjects/dustpan3.png,0.9,2,0.2,0.15,right,3,2020-12-13_18h02.41.028,premup-three_ses-02_part-02_label-phase2,3.2.4,Linux x86_64,60,,,,,,,,,,,,,,,,,1,0,330,166,1,329,2,,,,,,
left,0.54799962,1,326,,,,,,,,,,,,,3,6,1,stim/61.jpeg,Instruments,1,stim/objects/Instruments/flute3.png,0.9,1,-0.2,0.15,left,3,2020-12-13_18h02.41.028,premup-three_ses-02_part-02_label-phase2,3.2.4,Linux x86_64,60,,,,,,,,,,,,,,,,,1,0,330,230,1,329,2,,,,,,
right,0.59499979,1,327,,,,,,,,,,,,,1,1,3,stim/13.jpeg,HouseObjects,2,stim/objects/HouseObjects/basket3.png,0.5,3,-0.2,-0.15,right,3,2020-12-13_18h02.41.028,premup-three_ses-02_part-02_label-phase2,3.2.4,Linux x86_64,60,,,,,,,,,,,,,,,,,1,0,330,18,1,329,2,,,,,,
left,0.618000031,1,328,,,,,,,,,,,,,3,6,2,stim/62.jpeg,Instruments,1,stim/objects/Instruments/gong3.png,0.9,2,0.2,0.15,left,3,2020-12-13_18h02.41.028,premup-three_ses-02_part-02_label-phase2,3.2.4,Linux x86_64,60,,,,,,,,,,,,,,,,,1,0,330,283,1,329,2,,,,,,
left,0.60199976,1,329,,,,,,,,,,,,,3,6,4,stim/64.jpeg,Instruments,1,stim/objects/Instruments/grandpiano3.png,0.9,4,0.2,-0.15,left,3,2020-12-13_18h02.41.028,premup-three_ses-02_part-02_label-phase2,3.2.4,Linux x86_64,60,,,,,,,,,,,,,,,,,1,0,330,309,1,329,2,,,,,,
left,0.568999767,1,330,,,,,,,,,,,,,3,6,4,stim/64.jpeg,Instruments,1,stim/objects/Instruments/flute3.png,0.9,1,-0.2,0.15,left,3,2020-12-13_18h02.41.028,premup-three_ses-02_part-02_label-phase2,3.2.4,Linux x86_64,60,,,,,,,,,,,,,,,,,1,0,330,305,1,329,2,,,,,,
left,0.592999935,1,331,,,,,,,,,,,,,3,6,2,stim/62.jpeg,Instruments,1,stim/objects/Instruments/gong3.png,0.9,2,0.2,0.15,left,3,2020-12-13_18h02.41.028,premup-three_ses-02_part-02_label-phase2,3.2.4,Linux x86_64,60,,,,,,,,,,,,,,,,,1,0,330,263,1,329,2,,,,,,
left,0.451999903,1,332,,,,,,,,,,,,,2,3,1,stim/31.jpeg,Instruments,1,stim/objects/Instruments/musicstand3.png,0.3,2,0.2,0.15,left,3,2020-12-13_18h02.41.028,premup-three_ses-02_part-02_label-phase2,3.2.4,Linux x86_64,60,,,,,,,,,,,,,,,,,1,0,330,60,1,329,1,,,,,,
left,0.638999701,1,333,,,,,,,,,,,,,3,6,1,stim/61.jpeg,Instruments,1,stim/objects/Instruments/grandpiano3.png,0.9,1,-0.2,0.15,left,3,2020-12-13_18h02.41.028,premup-three_ses-02_part-02_label-phase2,3.2.4,Linux x86_64,60,,,,,,,,,,,,,,,,,1,0,330,254,1,329,2,,,,,,
left,0.586999893,1,334,,,,,,,,,,,,,3,6,2,stim/62.jpeg,Instruments,1,stim/objects/Instruments/musicstand4.png,0.9,2,0.2,0.15,left,3,2020-12-13_18h02.41.028,premup-three_ses-02_part-02_label-phase2,3.2.4,Linux x86_64,60,,,,,,,,,,,,,,,,,1,0,330,315,1,329,1,,,,,,
right,0.853999853,1,335,,,,,,,,,,,,,3,5,1,stim/51.jpeg,HouseObjects,2,stim/objects/HouseObjects/flyswatter3.png,0.9,3,-0.2,-0.15,right,3,2020-12-13_18h02.41.028,premup-three_ses-02_part-02_label-phase2,3.2.4,Linux x86_64,60,,,,,,,,,,,,,,,,,1,0,330,162,1,329,2,,,,,,
right,0.565999746,1,336,,,,,,,,,,,,,3,5,4,stim/54.jpeg,HouseObjects,2,stim/objects/HouseObjects/garbagebin3.png,0.9,3,-0.2,-0.15,right,3,2020-12-13_18h02.41.028,premup-three_ses-02_part-02_label-phase2,3.2.4,Linux x86_64,60,,,,,,,,,,,,,,,,,1,0,330,173,1,329,2,,,,,,
left,0.651999712,1,337,,,,,,,,,,,,,3,6,4,stim/64.jpeg,Instruments,1,stim/objects/Instruments/metronome4.png,0.9,2,0.2,0.15,left,3,2020-12-13_18h02.41.028,premup-three_ses-02_part-02_label-phase2,3.2.4,Linux x86_64,60,,,,,,,,,,,,,,,,,1,0,330,313,1,329,1,,,,,,
right,0.622999907,1,338,,,,,,,,,,,,,1,2,1,stim/21.jpeg,HouseObjects,2,stim/objects/HouseObjects/broom3.png,0.5,3,-0.2,-0.15,right,3,2020-12-13_18h02.41.028,premup-three_ses-02_part-02_label-phase2,3.2.4,Linux x86_64,60,,,,,,,,,,,,,,,,,1,0,330,52,1,329,2,,,,,,
left,0.779999733,1,339,,,,,,,,,,,,,1,2,2,stim/22.jpeg,Instruments,1,stim/objects/Instruments/maraca3.png,0.5,3,-0.2,-0.15,left,3,2020-12-13_18h02.41.028,premup-three_ses-02_part-02_label-phase2,3.2.4,Linux x86_64,60,,,,,,,,,,,,,,,,,1,0,330,41,1,329,1,,,,,,
right,0.671999931,1,340,,,,,,,,,,,,,3,5,4,stim/54.jpeg,HouseObjects,2,stim/objects/HouseObjects/garbagebin3.png,0.9,3,-0.2,-0.15,right,3,2020-12-13_18h02.41.028,premup-three_ses-02_part-02_label-phase2,3.2.4,Linux x86_64,60,,,,,,,,,,,,,,,,,1,0,330,153,1,329,2,,,,,,
left,0.607999802,1,341,,,,,,,,,,,,,3,6,3,stim/63.jpeg,Instruments,1,stim/objects/Instruments/oboe4.png,0.9,1,-0.2,0.15,left,3,2020-12-13_18h02.41.028,premup-three_ses-02_part-02_label-phase2,3.2.4,Linux x86_64,60,,,,,,,,,,,,,,,,,1,0,330,316,1,329,1,,,,,,
left,0.610999823,1,342,,,,,,,,,,,,,3,6,2,stim/62.jpeg,Instruments,1,stim/objects/Instruments/flute3.png,0.9,3,-0.2,-0.15,left,3,2020-12-13_18h02.41.028,premup-three_ses-02_part-02_label-phase2,3.2.4,Linux x86_64,60,,,,,,,,,,,,,,,,,1,0,330,295,1,329,2,,,,,,
left,0.569999933,0,343,,,,,,,,,,,,,3,6,3,stim/63.jpeg,HouseObjects,2,stim/objects/HouseObjects/match4.png,0.1,2,0.2,0.15,right,3,2020-12-13_18h02.41.028,premup-three_ses-02_part-02_label-phase2,3.2.4,Linux x86_64,60,,,,,,,,,,,,,,,,,1,0,330,324,1,329,1,,,,,,
left,0.569999695,1,344,,,,,,,,,,,,,3,6,3,stim/63.jpeg,Instruments,1,stim/objects/Instruments/gong3.png,0.9,4,0.2,-0.15,left,3,2020-12-13_18h02.41.028,premup-three_ses-02_part-02_label-phase2,3.2.4,Linux x86_64,60,,,,,,,,,,,,,,,,,1,0,330,308,1,329,2,,,,,,
,,0,345,,,,,,,,,,,,,2,3,1,stim/31.jpeg,Instruments,1,stim/objects/Instruments/xylophone3.png,0.3,3,-0.2,-0.15,left,3,2020-12-13_18h02.41.028,premup-three_ses-02_part-02_label-phase2,3.2.4,Linux x86_64,60,,,,,,,,,,,,,,,,,1,0,330,64,1,329,1,,,,,,
right,0.585999966,1,346,,,,,,,,,,,,,1,1,1,stim/11.jpeg,HouseObjects,2,stim/objects/HouseObjects/handvacuum3.png,0.5,4,0.2,-0.15,right,3,2020-12-13_18h02.41.028,premup-three_ses-02_part-02_label-phase2,3.2.4,Linux x86_64,60,,,,,,,,,,,,,,,,,1,0,330,28,1,329,1,,,,,,
right,0.627999783,1,347,,,,,,,,,,,,,3,5,3,stim/53.jpeg,HouseObjects,2,stim/objects/HouseObjects/doormat3.png,0.9,3,-0.2,-0.15,right,3,2020-12-13_18h02.41.028,premup-three_ses-02_part-02_label-phase2,3.2.4,Linux x86_64,60,,,,,,,,,,,,,,,,,1,0,330,200,1,329,2,,,,,,
right,0.552999735,1,348,,,,,,,,,,,,,3,5,2,stim/52.jpeg,HouseObjects,2,stim/objects/HouseObjects/garbagebin3.png,0.9,2,0.2,0.15,right,3,2020-12-13_18h02.41.028,premup-three_ses-02_part-02_label-phase2,3.2.4,Linux x86_64,60,,,,,,,,,,,,,,,,,1,0,330,203,1,329,2,,,,,,
left,0.659999847,0,349,,,,,,,,,,,,,3,6,4,stim/64.jpeg,HouseObjects,2,stim/objects/HouseObjects/wateringcan4.png,0.1,2,0.2,0.15,right,3,2020-12-13_18h02.41.028,premup-three_ses-02_part-02_label-phase2,3.2.4,Linux x86_64,60,,,,,,,,,,,,,,,,,1,0,330,329,1,329,1,,,,,,
right,0.554999828,0,350,,,,,,,,,,,,,1,1,1,stim/11.jpeg,Instruments,1,stim/objects/Instruments/bassdrum3.png,0.5,3,-0.2,-0.15,left,3,2020-12-13_18h02.41.028,premup-three_ses-02_part-02_label-phase2,3.2.4,Linux x86_64,60,,,,,,,,,,,,,,,,,1,0,330,4,1,329,2,,,,,,
left,0.542999983,1,351,,,,,,,,,,,,,3,6,4,stim/64.jpeg,Instruments,1,stim/objects/Instruments/frenchhorn3.png,0.9,3,-0.2,-0.15,left,3,2020-12-13_18h02.41.028,premup-three_ses-02_part-02_label-phase2,3.2.4,Linux x86_64,60,,,,,,,,,,,,,,,,,1,0,330,277,1,329,2,,,,,,
left,0.608999968,1,352,,,,,,,,,,,,,3,6,2,stim/62.jpeg,Instruments,1,stim/objects/Instruments/xylophone4.png,0.9,4,0.2,-0.15,left,3,2020-12-13_18h02.41.028,premup-three_ses-02_part-02_label-phase2,3.2.4,Linux x86_64,60,,,,,,,,,,,,,,,,,1,0,330,319,1,329,1,,,,,,
right,0.563999891,1,353,,,,,,,,,,,,,3,5,1,stim/51.jpeg,HouseObjects,2,stim/objects/HouseObjects/glass3.png,0.9,4,0.2,-0.15,right,3,2020-12-13_18h02.41.028,premup-three_ses-02_part-02_label-phase2,3.2.4,Linux x86_64,60,,,,,,,,,,,,,,,,,1,0,330,174,1,329,2,,,,,,
right,0.570999861,1,354,,,,,,,,,,,,,3,5,3,stim/53.jpeg,HouseObjects,2,stim/objects/HouseObjects/garbagebin3.png,0.9,4,0.2,-0.15,right,3,2020-12-13_18h02.41.028,premup-three_ses-02_part-02_label-phase2,3.2.4,Linux x86_64,60,,,,,,,,,,,,,,,,,1,0,330,148,1,329,2,,,,,,
left,0.571999788,1,355,,,,,,,,,,,,,2,4,4,stim/44.jpeg,Instruments,1,stim/objects/Instruments/electricdrumset3.png,0.7,1,-0.2,0.15,left,3,2020-12-13_18h02.41.028,premup-three_ses-02_part-02_label-phase2,3.2.4,Linux x86_64,60,,,,,,,,,,,,,,,,,1,0,330,98,1,329,2,,,,,,
right,0.700999975,1,356,,,,,,,,,,,,,3,5,3,stim/53.jpeg,HouseObjects,2,stim/objects/HouseObjects/doormat3.png,0.9,2,0.2,0.15,right,3,2020-12-13_18h02.41.028,premup-three_ses-02_part-02_label-phase2,3.2.4,Linux x86_64,60,,,,,,,,,,,,,,,,,1,0,330,180,1,329,2,,,,,,
left,0.486999989,1,357,,,,,,,,,,,,,3,6,4,stim/64.jpeg,Instruments,1,stim/objects/Instruments/violin4.png,0.9,3,-0.2,-0.15,left,3,2020-12-13_18h02.41.028,premup-three_ses-02_part-02_label-phase2,3.2.4,Linux x86_64,60,,,,,,,,,,,,,,,,,1,0,330,317,1,329,1,,,,,,
left,0.643999815,0,358,,,,,,,,,,,,,3,5,1,stim/51.jpeg,HouseObjects,2,stim/objects/HouseObjects/dustpan3.png,0.9,4,0.2,-0.15,right,3,2020-12-13_18h02.41.028,premup-three_ses-02_part-02_label-phase2,3.2.4,Linux x86_64,60,,,,,,,,,,,,,,,,,1,0,330,206,1,329,2,,,,,,
right,0.534999847,1,359,,,,,,,,,,,,,3,5,2,stim/52.jpeg,HouseObjects,2,stim/objects/HouseObjects/garbagebin4.png,0.9,1,-0.2,0.15,right,3,2020-12-13_18h02.41.028,premup-three_ses-02_part-02_label-phase2,3.2.4,Linux x86_64,60,,,,,,,,,,,,,,,,,1,0,330,223,1,329,1,,,,,,
right,0.638000011,0,360,,,,,,,,,,,,,3,6,4,stim/64.jpeg,Instruments,1,stim/objects/Instruments/flute3.png,0.9,4,0.2,-0.15,left,3,2020-12-13_18h02.41.028,premup-three_ses-02_part-02_label-phase2,3.2.4,Linux x86_64,60,,,,,,,,,,,,,,,,,1,0,330,245,1,329,2,,,,,,
,,0,361,,,,,,,,,,,,,2,4,1,stim/41.jpeg,Instruments,1,stim/objects/Instruments/drums3.png,0.7,3,-0.2,-0.15,left,3,2020-12-13_18h02.41.028,premup-three_ses-02_part-02_label-phase2,3.2.4,Linux x86_64,60,,,,,,,,,,,,,,,,,1,0,330,107,1,329,2,,,,,,
right,0.706999779,1,362,,,,,,,,,,,,,1,2,2,stim/22.jpeg,HouseObjects,2,stim/objects/HouseObjects/bucket3.png,0.5,3,-0.2,-0.15,right,3,2020-12-13_18h02.41.028,premup-three_ses-02_part-02_label-phase2,3.2.4,Linux x86_64,60,,,,,,,,,,,,,,,,,1,0,330,53,1,329,2,,,,,,
left,0.551999807,1,363,,,,,,,,,,,,,2,4,2,stim/42.jpeg,Instruments,1,stim/objects/Instruments/doublebass3.png,0.7,2,0.2,0.15,left,3,2020-12-13_18h02.41.028,premup-three_ses-02_part-02_label-phase2,3.2.4,Linux x86_64,60,,,,,,,,,,,,,,,,,1,0,330,96,1,329,2,,,,,,
right,0.643999815,0,364,,,,,,,,,,,,,1,2,3,stim/23.jpeg,Instruments,1,stim/objects/Instruments/clarinet3.png,0.5,1,-0.2,0.15,left,3,2020-12-13_18h02.41.028,premup-three_ses-02_part-02_label-phase2,3.2.4,Linux x86_64,60,,,,,,,,,,,,,,,,,1,0,330,38,1,329,2,,,,,,
left,0.638000011,1,365,,,,,,,,,,,,,3,5,2,stim/52.jpeg,Instruments,1,stim/objects/Instruments/flutetrans4.png,0.1,4,0.2,-0.15,left,3,2020-12-13_18h02.41.028,premup-three_ses-02_part-02_label-phase2,3.2.4,Linux x86_64,60,,,,,,,,,,,,,,,,,1,0,330,131,1,329,1,,,,,,
left,0.646999836,0,366,,,,,,,,,,,,,1,2,3,stim/23.jpeg,HouseObjects,2,stim/objects/HouseObjects/bottle3.png,0.5,3,-0.2,-0.15,right,3,2020-12-13_18h02.41.028,premup-three_ses-02_part-02_label-phase2,3.2.4,Linux x86_64,60,,,,,,,,,,,,,,,,,1,0,330,46,1,329,2,,,,,,
right,0.745999813,0,367,,,,,,,,,,,,,2,3,2,stim/32.jpeg,Instruments,1,stim/objects/Instruments/oboe3.png,0.3,4,0.2,-0.15,left,3,2020-12-13_18h02.41.028,premup-three_ses-02_part-02_label-phase2,3.2.4,Linux x86_64,60,,,,,,,,,,,,,,,,,1,0,330,61,1,329,1,,,,,,
right,0.569000006,0,368,,,,,,,,,,,,,3,6,1,stim/61.jpeg,Instruments,1,stim/objects/Instruments/vuvuzela4.png,0.9,4,0.2,-0.15,left,3,2020-12-13_18h02.41.028,premup-three_ses-02_part-02_label-phase2,3.2.4,Linux x86_64,60,,,,,,,,,,,,,,,,,1,0,330,318,1,329,1,,,,,,
,,0,369,,,,,,,,,,,,,2,3,2,stim/32.jpeg,HouseObjects,2,stim/objects/HouseObjects/basket4.png,0.7,2,0.2,0.15,right,3,2020-12-13_18h02.41.028,premup-three_ses-02_part-02_label-phase2,3.2.4,Linux x86_64,60,,,,,,,,,,,,,,,,,1,0,330,93,1,329,1,,,,,,
right,0.409999847,1,370,,,,,,,,,,,,,3,5,3,stim/53.jpeg,HouseObjects,2,stim/objects/HouseObjects/glass3.png,0.9,3,-0.2,-0.15,right,3,2020-12-13_18h02.41.028,premup-three_ses-02_part-02_label-phase2,3.2.4,Linux x86_64,60,,,,,,,,,,,,,,,,,1,0,330,164,1,329,2,,,,,,
right,0.564999819,0,371,,,,,,,,,,,,,3,5,1,stim/51.jpeg,Instruments,1,stim/objects/Instruments/hihat4.png,0.1,2,0.2,0.15,left,3,2020-12-13_18h02.41.028,premup-three_ses-02_part-02_label-phase2,3.2.4,Linux x86_64,60,,,,,,,,,,,,,,,,,1,0,330,138,1,329,1,,,,,,
right,0.606999874,1,372,,,,,,,,,,,,,1,2,3,stim/23.jpeg,HouseObjects,2,stim/objects/HouseObjects/clock3.png,0.5,4,0.2,-0.15,right,3,2020-12-13_18h02.41.028,premup-three_ses-02_part-02_label-phase2,3.2.4,Linux x86_64,60,,,,,,,,,,,,,,,,,1,0,330,54,1,329,2,,,,,,
