key_resp_pract.keys,key_resp_pract.rt,trial_acc,trial_index,practice_loop.thisRepN,practice_loop.thisTrialN,practice_loop.thisN,practice_loop.thisIndex,practice_loop.ran,practice_loop.order,scn_condition,scn_cat,scn_inst,scn_file,obj_cat,obj_cat_num,obj_file,trial_cond,quadrant,obj_x,obj_y,corr_ans,participant,date,expName,psychopyVersion,OS,frameRate,key_resp_trial.keys,key_resp_trial.rt,iterations.thisRepN,iterations.thisTrialN,iterations.thisN,iterations.thisIndex,iterations.ran,iterations.order,task_innerloop.thisRepN,task_innerloop.thisTrialN,task_innerloop.thisN,task_innerloop.thisIndex,task_innerloop.ran,task_innerloop.order,iteration_index,rating_acc,slider.response,slider.rt,slider_2.response,slider_2.rt,ratings.thisRepN,ratings.thisTrialN,ratings.thisN,ratings.thisIndex,ratings.ran,ratings.order,obj_cat_top,min_resp_top,max_resp_top,obj_cat_bottom,min_resp_bottom,max_resp_bottom
left,1.336999893,0,1,1,0,240,36,1,239,1,1,1,stim/11.jpeg,HouseObjects,2,stim/objects/HouseObjects/recyclingbin.png,0.5,2,0.2,0.15,right,3,2020-12-12_21h14.44.262,premup-three_ses-01_part-01_label-phase1,3.2.4,Linux x86_64,60,,,,,,,,,,,,,,,,,,,,,,,,,,,,,,,,
left,1.184000015,1,2,1,0,240,44,1,239,1,2,1,stim/21.jpeg,Instruments,1,stim/objects/Instruments/saxophone.png,0.5,3,-0.2,-0.15,left,3,2020-12-12_21h14.44.262,premup-three_ses-01_part-01_label-phase1,3.2.4,Linux x86_64,60,,,,,,,,,,,,,,,,,,,,,,,,,,,,,,,,
left,0.885999918,0,3,1,0,240,103,1,239,2,3,4,stim/34.jpeg,HouseObjects,2,stim/objects/HouseObjects/thread.png,0.7,3,-0.2,-0.15,right,3,2020-12-12_21h14.44.262,premup-three_ses-01_part-01_label-phase1,3.2.4,Linux x86_64,60,,,,,,,,,,,,,,,,,,,,,,,,,,,,,,,,
left,1.349999905,0,4,1,0,240,154,1,239,2,4,3,stim/43.jpeg,HouseObjects,2,stim/objects/HouseObjects/rubbergloves2.png,0.3,4,0.2,-0.15,right,3,2020-12-12_21h14.44.262,premup-three_ses-01_part-01_label-phase1,3.2.4,Linux x86_64,60,,,,,,,,,,,,,,,,,,,,,,,,,,,,,,,,
right,0.951999903,1,5,1,0,240,65,1,239,1,2,2,stim/22.jpeg,HouseObjects,2,stim/objects/HouseObjects/saw.png,0.5,2,0.2,0.15,right,3,2020-12-12_21h14.44.262,premup-three_ses-01_part-01_label-phase1,3.2.4,Linux x86_64,60,,,,,,,,,,,,,,,,,,,,,,,,,,,,,,,,
left,0.754999876,1,6,1,0,240,146,1,239,2,4,3,stim/43.jpeg,Instruments,1,stim/objects/Instruments/record2.png,0.7,1,-0.2,0.15,left,3,2020-12-12_21h14.44.262,premup-three_ses-01_part-01_label-phase1,3.2.4,Linux x86_64,60,,,,,,,,,,,,,,,,,,,,,,,,,,,,,,,,
right,0.477999926,0,7,1,0,240,40,1,239,1,2,1,stim/21.jpeg,Instruments,1,stim/objects/Instruments/saxophone.png,0.5,2,0.2,0.15,left,3,2020-12-12_21h14.44.262,premup-three_ses-01_part-01_label-phase1,3.2.4,Linux x86_64,60,,,,,,,,,,,,,,,,,,,,,,,,,,,,,,,,
left,0.572999954,0,8,1,0,240,197,1,239,3,5,2,stim/52.jpeg,HouseObjects,2,stim/objects/HouseObjects/saw2.png,0.9,2,0.2,0.15,right,3,2020-12-12_21h14.44.262,premup-three_ses-01_part-01_label-phase1,3.2.4,Linux x86_64,60,,,,,,,,,,,,,,,,,,,,,,,,,,,,,,,,
right,0.743999958,1,9,1,0,240,184,1,239,3,5,1,stim/51.jpeg,HouseObjects,2,stim/objects/HouseObjects/safetypin2.png,0.9,4,0.2,-0.15,right,3,2020-12-12_21h14.44.262,premup-three_ses-01_part-01_label-phase1,3.2.4,Linux x86_64,60,,,,,,,,,,,,,,,,,,,,,,,,,,,,,,,,
right,1.133999825,1,10,1,0,240,185,1,239,3,5,2,stim/52.jpeg,HouseObjects,2,stim/objects/HouseObjects/saw2.png,0.9,2,0.2,0.15,right,3,2020-12-12_21h14.44.262,premup-three_ses-01_part-01_label-phase1,3.2.4,Linux x86_64,60,,,,,,,,,,,,,,,,,,,,,,,,,,,,,,,,
,,0,1,,,,,,,1,1,4,stim/14.jpeg,HouseObjects,2,stim/objects/HouseObjects/rug.png,0.5,3,-0.2,-0.15,right,3,2020-12-12_21h14.44.262,premup-three_ses-01_part-01_label-phase1,3.2.4,Linux x86_64,60,left,0.559999704,4,0,4,0,1,3,1,0,240,35,1,239,,,,,,,,,,,,,,,,,,
,,1,2,,,,,,,3,6,4,stim/64.jpeg,Instruments,1,stim/objects/Instruments/tuba2.png,0.9,2,0.2,0.15,left,3,2020-12-12_21h14.44.262,premup-three_ses-01_part-01_label-phase1,3.2.4,Linux x86_64,60,left,0.963999748,4,0,4,0,1,3,1,0,240,223,1,239,,,,,,,,,,,,,,,,,,
,,1,3,,,,,,,3,6,4,stim/64.jpeg,Instruments,1,stim/objects/Instruments/tuba2.png,0.9,3,-0.2,-0.15,left,3,2020-12-12_21h14.44.262,premup-three_ses-01_part-01_label-phase1,3.2.4,Linux x86_64,60,left,0.701999903,4,0,4,0,1,3,1,0,240,227,1,239,,,,,,,,,,,,,,,,,,
,,1,4,,,,,,,3,5,2,stim/52.jpeg,HouseObjects,2,stim/objects/HouseObjects/saw2.png,0.9,2,0.2,0.15,right,3,2020-12-12_21h14.44.262,premup-three_ses-01_part-01_label-phase1,3.2.4,Linux x86_64,60,right,1.004999876,4,0,4,0,1,3,1,0,240,197,1,239,,,,,,,,,,,,,,,,,,
,,1,5,,,,,,,1,2,4,stim/24.jpeg,HouseObjects,2,stim/objects/HouseObjects/sponge.png,0.5,2,0.2,0.15,right,3,2020-12-12_21h14.44.262,premup-three_ses-01_part-01_label-phase1,3.2.4,Linux x86_64,60,right,1.128000021,4,0,4,0,1,3,1,0,240,71,1,239,,,,,,,,,,,,,,,,,,
,,1,6,,,,,,,3,5,4,stim/54.jpeg,Instruments,1,stim/objects/Instruments/timbal2.png,0.1,1,-0.2,0.15,left,3,2020-12-12_21h14.44.262,premup-three_ses-01_part-01_label-phase1,3.2.4,Linux x86_64,60,left,0.777999878,4,0,4,0,1,3,1,0,240,163,1,239,,,,,,,,,,,,,,,,,,
,,1,7,,,,,,,1,1,3,stim/13.jpeg,HouseObjects,2,stim/objects/HouseObjects/rubbergloves.png,0.5,4,0.2,-0.15,right,3,2020-12-12_21h14.44.262,premup-three_ses-01_part-01_label-phase1,3.2.4,Linux x86_64,60,right,1.005999804,4,0,4,0,1,3,1,0,240,26,1,239,,,,,,,,,,,,,,,,,,
,,0,8,,,,,,,1,2,2,stim/22.jpeg,Instruments,1,stim/objects/Instruments/speaker.png,0.5,3,-0.2,-0.15,left,3,2020-12-12_21h14.44.262,premup-three_ses-01_part-01_label-phase1,3.2.4,Linux x86_64,60,right,1.157999754,4,0,4,0,1,3,1,0,240,53,1,239,,,,,,,,,,,,,,,,,,
,,1,9,,,,,,,3,6,2,stim/62.jpeg,Instruments,1,stim/objects/Instruments/trombone2.png,0.9,1,-0.2,0.15,left,3,2020-12-12_21h14.44.262,premup-three_ses-01_part-01_label-phase1,3.2.4,Linux x86_64,60,left,1.012999773,4,0,4,0,1,3,1,0,240,201,1,239,,,,,,,,,,,,,,,,,,
,,1,10,,,,,,,3,5,2,stim/52.jpeg,HouseObjects,2,stim/objects/HouseObjects/saw2.png,0.9,4,0.2,-0.15,right,3,2020-12-12_21h14.44.262,premup-three_ses-01_part-01_label-phase1,3.2.4,Linux x86_64,60,right,0.963999987,4,0,4,0,1,3,1,0,240,181,1,239,,,,,,,,,,,,,,,,,,
,,0,11,,,,,,,1,1,1,stim/11.jpeg,HouseObjects,2,stim/objects/HouseObjects/recyclingbin.png,0.5,2,0.2,0.15,right,3,2020-12-12_21h14.44.262,premup-three_ses-01_part-01_label-phase1,3.2.4,Linux x86_64,60,left,0.802999973,4,0,4,0,1,3,1,0,240,36,1,239,,,,,,,,,,,,,,,,,,
,,1,12,,,,,,,1,1,1,stim/11.jpeg,Instruments,1,stim/objects/Instruments/panflute.png,0.5,1,-0.2,0.15,left,3,2020-12-12_21h14.44.262,premup-three_ses-01_part-01_label-phase1,3.2.4,Linux x86_64,60,left,0.948999882,4,0,4,0,1,3,1,0,240,4,1,239,,,,,,,,,,,,,,,,,,
,,0,13,,,,,,,2,3,2,stim/32.jpeg,Instruments,1,stim/objects/Instruments/trombone.png,0.3,2,0.2,0.15,left,3,2020-12-12_21h14.44.262,premup-three_ses-01_part-01_label-phase1,3.2.4,Linux x86_64,60,right,1.303999901,4,0,4,0,1,3,1,0,240,85,1,239,,,,,,,,,,,,,,,,,,
,,0,14,,,,,,,1,2,1,stim/21.jpeg,Instruments,1,stim/objects/Instruments/saxophone.png,0.5,3,-0.2,-0.15,left,3,2020-12-12_21h14.44.262,premup-three_ses-01_part-01_label-phase1,3.2.4,Linux x86_64,60,right,0.943999767,4,0,4,0,1,3,1,0,240,44,1,239,,,,,,,,,,,,,,,,,,
,,1,15,,,,,,,2,4,4,stim/44.jpeg,Instruments,1,stim/objects/Instruments/record_player2.png,0.7,1,-0.2,0.15,left,3,2020-12-12_21h14.44.262,premup-three_ses-01_part-01_label-phase1,3.2.4,Linux x86_64,60,left,0.740999937,4,0,4,0,1,3,1,0,240,143,1,239,,,,,,,,,,,,,,,,,,
,,1,16,,,,,,,1,2,4,stim/24.jpeg,HouseObjects,2,stim/objects/HouseObjects/sponge.png,0.5,2,0.2,0.15,right,3,2020-12-12_21h14.44.262,premup-three_ses-01_part-01_label-phase1,3.2.4,Linux x86_64,60,right,0.91899991,4,0,4,0,1,3,1,0,240,63,1,239,,,,,,,,,,,,,,,,,,
,,0,17,,,,,,,1,2,1,stim/21.jpeg,HouseObjects,2,stim/objects/HouseObjects/safetypin.png,0.5,3,-0.2,-0.15,right,3,2020-12-12_21h14.44.262,premup-three_ses-01_part-01_label-phase1,3.2.4,Linux x86_64,60,left,1.205999851,4,0,4,0,1,3,1,0,240,68,1,239,,,,,,,,,,,,,,,,,,
,,0,18,,,,,,,2,4,3,stim/43.jpeg,Instruments,1,stim/objects/Instruments/record2.png,0.7,1,-0.2,0.15,left,3,2020-12-12_21h14.44.262,premup-three_ses-01_part-01_label-phase1,3.2.4,Linux x86_64,60,,,4,0,4,0,1,3,1,0,240,146,1,239,,,,,,,,,,,,,,,,,,
,,1,19,,,,,,,2,4,2,stim/42.jpeg,Instruments,1,stim/objects/Instruments/pipepiano2.png,0.7,4,0.2,-0.15,left,3,2020-12-12_21h14.44.262,premup-three_ses-01_part-01_label-phase1,3.2.4,Linux x86_64,60,left,0.624999762,4,0,4,0,1,3,1,0,240,145,1,239,,,,,,,,,,,,,,,,,,
,,0,20,,,,,,,3,6,2,stim/62.jpeg,Instruments,1,stim/objects/Instruments/trombone2.png,0.9,1,-0.2,0.15,left,3,2020-12-12_21h14.44.262,premup-three_ses-01_part-01_label-phase1,3.2.4,Linux x86_64,60,right,0.741999865,4,0,4,0,1,3,1,0,240,217,1,239,,,,,,,,,,,,,,,,,,
,,1,21,,,,,,,3,5,4,stim/54.jpeg,HouseObjects,2,stim/objects/HouseObjects/sponge2.png,0.9,3,-0.2,-0.15,right,3,2020-12-12_21h14.44.262,premup-three_ses-01_part-01_label-phase1,3.2.4,Linux x86_64,60,right,0.968999863,4,0,4,0,1,3,1,0,240,175,1,239,,,,,,,,,,,,,,,,,,
,,1,22,,,,,,,2,3,4,stim/34.jpeg,HouseObjects,2,stim/objects/HouseObjects/thread.png,0.7,2,0.2,0.15,right,3,2020-12-12_21h14.44.262,premup-three_ses-01_part-01_label-phase1,3.2.4,Linux x86_64,60,right,0.722999811,4,0,4,0,1,3,1,0,240,107,1,239,,,,,,,,,,,,,,,,,,
,,0,23,,,,,,,3,5,2,stim/52.jpeg,HouseObjects,2,stim/objects/HouseObjects/saw2.png,0.9,3,-0.2,-0.15,right,3,2020-12-12_21h14.44.262,premup-three_ses-01_part-01_label-phase1,3.2.4,Linux x86_64,60,left,1.116999865,4,0,4,0,1,3,1,0,240,189,1,239,,,,,,,,,,,,,,,,,,
,,0,24,,,,,,,2,3,4,stim/34.jpeg,HouseObjects,2,stim/objects/HouseObjects/thread.png,0.7,4,0.2,-0.15,right,3,2020-12-12_21h14.44.262,premup-three_ses-01_part-01_label-phase1,3.2.4,Linux x86_64,60,left,0.870999813,4,0,4,0,1,3,1,0,240,99,1,239,,,,,,,,,,,,,,,,,,
,,1,25,,,,,,,1,2,3,stim/23.jpeg,HouseObjects,2,stim/objects/HouseObjects/scale.png,0.5,4,0.2,-0.15,right,3,2020-12-12_21h14.44.262,premup-three_ses-01_part-01_label-phase1,3.2.4,Linux x86_64,60,right,1.063999891,4,0,4,0,1,3,1,0,240,66,1,239,,,,,,,,,,,,,,,,,,
,,1,26,,,,,,,2,3,1,stim/31.jpeg,HouseObjects,2,stim/objects/HouseObjects/spraybottle.png,0.7,1,-0.2,0.15,right,3,2020-12-12_21h14.44.262,premup-three_ses-01_part-01_label-phase1,3.2.4,Linux x86_64,60,right,1.018999815,4,0,4,0,1,3,1,0,240,104,1,239,,,,,,,,,,,,,,,,,,
,,0,27,,,,,,,1,2,3,stim/23.jpeg,Instruments,1,stim/objects/Instruments/tambourine.png,0.5,4,0.2,-0.15,left,3,2020-12-12_21h14.44.262,premup-three_ses-01_part-01_label-phase1,3.2.4,Linux x86_64,60,right,0.912999868,4,0,4,0,1,3,1,0,240,46,1,239,,,,,,,,,,,,,,,,,,
,,1,28,,,,,,,1,1,4,stim/14.jpeg,HouseObjects,2,stim/objects/HouseObjects/rug.png,0.5,4,0.2,-0.15,right,3,2020-12-12_21h14.44.262,premup-three_ses-01_part-01_label-phase1,3.2.4,Linux x86_64,60,right,0.870999813,4,0,4,0,1,3,1,0,240,27,1,239,,,,,,,,,,,,,,,,,,
,,1,29,,,,,,,2,4,4,stim/44.jpeg,Instruments,1,stim/objects/Instruments/record_player2.png,0.7,4,0.2,-0.15,left,3,2020-12-12_21h14.44.262,premup-three_ses-01_part-01_label-phase1,3.2.4,Linux x86_64,60,left,1.062999725,4,0,4,0,1,3,1,0,240,135,1,239,,,,,,,,,,,,,,,,,,
,,1,30,,,,,,,2,4,2,stim/42.jpeg,HouseObjects,2,stim/objects/HouseObjects/remote2.png,0.3,2,0.2,0.15,right,3,2020-12-12_21h14.44.262,premup-three_ses-01_part-01_label-phase1,3.2.4,Linux x86_64,60,right,0.951999903,4,0,4,0,1,3,1,0,240,157,1,239,,,,,,,,,,,,,,,,,,
,,0,31,,,,,,,2,3,1,stim/31.jpeg,Instruments,1,stim/objects/Instruments/triangle.png,0.3,2,0.2,0.15,left,3,2020-12-12_21h14.44.262,premup-three_ses-01_part-01_label-phase1,3.2.4,Linux x86_64,60,right,1.287999868,4,0,4,0,1,3,1,0,240,80,1,239,,,,,,,,,,,,,,,,,,
,,0,32,,,,,,,1,2,4,stim/24.jpeg,Instruments,1,stim/objects/Instruments/timbal.png,0.5,2,0.2,0.15,left,3,2020-12-12_21h14.44.262,premup-three_ses-01_part-01_label-phase1,3.2.4,Linux x86_64,60,right,1.224999666,4,0,4,0,1,3,1,0,240,55,1,239,,,,,,,,,,,,,,,,,,
,,0,33,,,,,,,1,1,3,stim/13.jpeg,HouseObjects,2,stim/objects/HouseObjects/rubbergloves.png,0.5,3,-0.2,-0.15,right,3,2020-12-12_21h14.44.262,premup-three_ses-01_part-01_label-phase1,3.2.4,Linux x86_64,60,left,1.372999907,4,0,4,0,1,3,1,0,240,34,1,239,,,,,,,,,,,,,,,,,,
,,1,34,,,,,,,2,4,1,stim/41.jpeg,HouseObjects,2,stim/objects/HouseObjects/recyclingbin2.png,0.3,3,-0.2,-0.15,right,3,2020-12-12_21h14.44.262,premup-three_ses-01_part-01_label-phase1,3.2.4,Linux x86_64,60,right,0.783999681,4,0,4,0,1,3,1,0,240,152,1,239,,,,,,,,,,,,,,,,,,
,,1,35,,,,,,,1,1,1,stim/11.jpeg,HouseObjects,2,stim/objects/HouseObjects/recyclingbin.png,0.5,3,-0.2,-0.15,right,3,2020-12-12_21h14.44.262,premup-three_ses-01_part-01_label-phase1,3.2.4,Linux x86_64,60,right,0.99399972,4,0,4,0,1,3,1,0,240,20,1,239,,,,,,,,,,,,,,,,,,
,,0,36,,,,,,,1,1,4,stim/14.jpeg,Instruments,1,stim/objects/Instruments/record_player.png,0.5,1,-0.2,0.15,left,3,2020-12-12_21h14.44.262,premup-three_ses-01_part-01_label-phase1,3.2.4,Linux x86_64,60,right,1.075999737,4,0,4,0,1,3,1,0,240,19,1,239,,,,,,,,,,,,,,,,,,
,,0,37,,,,,,,1,2,1,stim/21.jpeg,Instruments,1,stim/objects/Instruments/saxophone.png,0.5,3,-0.2,-0.15,left,3,2020-12-12_21h14.44.262,premup-three_ses-01_part-01_label-phase1,3.2.4,Linux x86_64,60,right,1.049999952,4,0,4,0,1,3,1,0,240,48,1,239,,,,,,,,,,,,,,,,,,
,,0,38,,,,,,,2,4,1,stim/41.jpeg,Instruments,1,stim/objects/Instruments/panflute2.png,0.7,2,0.2,0.15,left,3,2020-12-12_21h14.44.262,premup-three_ses-01_part-01_label-phase1,3.2.4,Linux x86_64,60,right,0.782999754,4,0,4,0,1,3,1,0,240,120,1,239,,,,,,,,,,,,,,,,,,
,,1,39,,,,,,,1,1,3,stim/13.jpeg,Instruments,1,stim/objects/Instruments/record.png,0.5,3,-0.2,-0.15,left,3,2020-12-12_21h14.44.262,premup-three_ses-01_part-01_label-phase1,3.2.4,Linux x86_64,60,left,0.79399991,4,0,4,0,1,3,1,0,240,2,1,239,,,,,,,,,,,,,,,,,,
,,0,40,,,,,,,3,5,2,stim/52.jpeg,HouseObjects,2,stim/objects/HouseObjects/saw2.png,0.9,2,0.2,0.15,right,3,2020-12-12_21h14.44.262,premup-three_ses-01_part-01_label-phase1,3.2.4,Linux x86_64,60,left,0.95299983,4,0,4,0,1,3,1,0,240,185,1,239,,,,,,,,,,,,,,,,,,
,,0,41,,,,,,,2,4,1,stim/41.jpeg,Instruments,1,stim/objects/Instruments/panflute2.png,0.7,2,0.2,0.15,left,3,2020-12-12_21h14.44.262,premup-three_ses-01_part-01_label-phase1,3.2.4,Linux x86_64,60,right,0.61899972,4,0,4,0,1,3,1,0,240,128,1,239,,,,,,,,,,,,,,,,,,
,,1,42,,,,,,,2,4,3,stim/43.jpeg,Instruments,1,stim/objects/Instruments/record2.png,0.7,3,-0.2,-0.15,left,3,2020-12-12_21h14.44.262,premup-three_ses-01_part-01_label-phase1,3.2.4,Linux x86_64,60,left,0.601000071,4,0,4,0,1,3,1,0,240,126,1,239,,,,,,,,,,,,,,,,,,
,,1,43,,,,,,,3,6,2,stim/62.jpeg,Instruments,1,stim/objects/Instruments/trombone2.png,0.9,1,-0.2,0.15,left,3,2020-12-12_21h14.44.262,premup-three_ses-01_part-01_label-phase1,3.2.4,Linux x86_64,60,left,0.997999907,4,0,4,0,1,3,1,0,240,221,1,239,,,,,,,,,,,,,,,,,,
,,1,44,,,,,,,2,3,3,stim/33.jpeg,HouseObjects,2,stim/objects/HouseObjects/thermometer.png,0.7,2,0.2,0.15,right,3,2020-12-12_21h14.44.262,premup-three_ses-01_part-01_label-phase1,3.2.4,Linux x86_64,60,right,0.94299984,4,0,4,0,1,3,1,0,240,110,1,239,,,,,,,,,,,,,,,,,,
,,0,45,,,,,,,3,5,4,stim/54.jpeg,HouseObjects,2,stim/objects/HouseObjects/sponge2.png,0.9,1,-0.2,0.15,right,3,2020-12-12_21h14.44.262,premup-three_ses-01_part-01_label-phase1,3.2.4,Linux x86_64,60,left,0.735999823,4,0,4,0,1,3,1,0,240,167,1,239,,,,,,,,,,,,,,,,,,
,,1,46,,,,,,,1,2,2,stim/22.jpeg,HouseObjects,2,stim/objects/HouseObjects/saw.png,0.5,1,-0.2,0.15,right,3,2020-12-12_21h14.44.262,premup-three_ses-01_part-01_label-phase1,3.2.4,Linux x86_64,60,right,0.648000002,4,0,4,0,1,3,1,0,240,69,1,239,,,,,,,,,,,,,,,,,,
,,1,47,,,,,,,3,5,3,stim/53.jpeg,HouseObjects,2,stim/objects/HouseObjects/scale2.png,0.9,1,-0.2,0.15,right,3,2020-12-12_21h14.44.262,premup-three_ses-01_part-01_label-phase1,3.2.4,Linux x86_64,60,right,0.765999794,4,0,4,0,1,3,1,0,240,178,1,239,,,,,,,,,,,,,,,,,,
,,0,48,,,,,,,1,2,1,stim/21.jpeg,HouseObjects,2,stim/objects/HouseObjects/safetypin.png,0.5,3,-0.2,-0.15,right,3,2020-12-12_21h14.44.262,premup-three_ses-01_part-01_label-phase1,3.2.4,Linux x86_64,60,left,0.955999851,4,0,4,0,1,3,1,0,240,76,1,239,,,,,,,,,,,,,,,,,,
,,0,49,,,,,,,2,4,3,stim/43.jpeg,Instruments,1,stim/objects/Instruments/record2.png,0.7,1,-0.2,0.15,left,3,2020-12-12_21h14.44.262,premup-three_ses-01_part-01_label-phase1,3.2.4,Linux x86_64,60,right,0.389999866,4,0,4,0,1,3,1,0,240,134,1,239,,,,,,,,,,,,,,,,,,
,,1,50,,,,,,,1,1,2,stim/12.jpeg,HouseObjects,2,stim/objects/HouseObjects/remote.png,0.5,1,-0.2,0.15,right,3,2020-12-12_21h14.44.262,premup-three_ses-01_part-01_label-phase1,3.2.4,Linux x86_64,60,right,0.753999949,4,0,4,0,1,3,1,0,240,29,1,239,,,,,,,,,,,,,,,,,,
,,0,51,,,,,,,2,3,4,stim/34.jpeg,Instruments,1,stim/objects/Instruments/tuba.png,0.3,3,-0.2,-0.15,left,3,2020-12-12_21h14.44.262,premup-three_ses-01_part-01_label-phase1,3.2.4,Linux x86_64,60,right,0.704999924,4,0,4,0,1,3,1,0,240,91,1,239,,,,,,,,,,,,,,,,,,
,,1,52,,,,,,,3,5,2,stim/52.jpeg,Instruments,1,stim/objects/Instruments/speaker2.png,0.1,3,-0.2,-0.15,left,3,2020-12-12_21h14.44.262,premup-three_ses-01_part-01_label-phase1,3.2.4,Linux x86_64,60,left,0.555999756,4,0,4,0,1,3,1,0,240,161,1,239,,,,,,,,,,,,,,,,,,
,,1,53,,,,,,,2,4,3,stim/43.jpeg,Instruments,1,stim/objects/Instruments/record2.png,0.7,1,-0.2,0.15,left,3,2020-12-12_21h14.44.262,premup-three_ses-01_part-01_label-phase1,3.2.4,Linux x86_64,60,left,0.588999748,4,0,4,0,1,3,1,0,240,142,1,239,,,,,,,,,,,,,,,,,,
,,0,54,,,,,,,1,2,2,stim/22.jpeg,Instruments,1,stim/objects/Instruments/speaker.png,0.5,1,-0.2,0.15,left,3,2020-12-12_21h14.44.262,premup-three_ses-01_part-01_label-phase1,3.2.4,Linux x86_64,60,right,0.987999916,4,0,4,0,1,3,1,0,240,45,1,239,,,,,,,,,,,,,,,,,,
,,1,55,,,,,,,3,5,2,stim/52.jpeg,HouseObjects,2,stim/objects/HouseObjects/saw2.png,0.9,1,-0.2,0.15,right,3,2020-12-12_21h14.44.262,premup-three_ses-01_part-01_label-phase1,3.2.4,Linux x86_64,60,right,1.171999931,4,0,4,0,1,3,1,0,240,177,1,239,,,,,,,,,,,,,,,,,,
,,0,56,,,,,,,1,1,1,stim/11.jpeg,HouseObjects,2,stim/objects/HouseObjects/recyclingbin.png,0.5,2,0.2,0.15,right,3,2020-12-12_21h14.44.262,premup-three_ses-01_part-01_label-phase1,3.2.4,Linux x86_64,60,left,0.870999813,4,0,4,0,1,3,1,0,240,24,1,239,,,,,,,,,,,,,,,,,,
,,1,57,,,,,,,2,3,3,stim/33.jpeg,HouseObjects,2,stim/objects/HouseObjects/thermometer.png,0.7,1,-0.2,0.15,right,3,2020-12-12_21h14.44.262,premup-three_ses-01_part-01_label-phase1,3.2.4,Linux x86_64,60,right,0.501999855,4,0,4,0,1,3,1,0,240,98,1,239,,,,,,,,,,,,,,,,,,
,,1,58,,,,,,,3,6,1,stim/61.jpeg,HouseObjects,2,stim/objects/HouseObjects/spraybottle2.png,0.1,2,0.2,0.15,right,3,2020-12-12_21h14.44.262,premup-three_ses-01_part-01_label-phase1,3.2.4,Linux x86_64,60,right,0.781999826,4,0,4,0,1,3,1,0,240,236,1,239,,,,,,,,,,,,,,,,,,
,,1,59,,,,,,,3,6,2,stim/62.jpeg,Instruments,1,stim/objects/Instruments/trombone2.png,0.9,4,0.2,-0.15,left,3,2020-12-12_21h14.44.262,premup-three_ses-01_part-01_label-phase1,3.2.4,Linux x86_64,60,left,0.805999756,4,0,4,0,1,3,1,0,240,229,1,239,,,,,,,,,,,,,,,,,,
,,1,60,,,,,,,3,6,3,stim/63.jpeg,Instruments,1,stim/objects/Instruments/trumpet2.png,0.9,1,-0.2,0.15,left,3,2020-12-12_21h14.44.262,premup-three_ses-01_part-01_label-phase1,3.2.4,Linux x86_64,60,left,0.941999912,4,0,4,0,1,3,1,0,240,222,1,239,,,,,,,,,,,,,,,,,,
,,1,61,,,,,,,1,1,2,stim/12.jpeg,Instruments,1,stim/objects/Instruments/pipepiano.png,0.5,1,-0.2,0.15,left,3,2020-12-12_21h14.44.262,premup-three_ses-01_part-01_label-phase1,3.2.4,Linux x86_64,60,left,0.773999929,4,0,4,0,1,3,1,0,240,13,1,239,,,,,,,,,,,,,,,,,,
,,1,62,,,,,,,3,6,3,stim/63.jpeg,Instruments,1,stim/objects/Instruments/trumpet2.png,0.9,2,0.2,0.15,left,3,2020-12-12_21h14.44.262,premup-three_ses-01_part-01_label-phase1,3.2.4,Linux x86_64,60,left,1.002999783,4,0,4,0,1,3,1,0,240,226,1,239,,,,,,,,,,,,,,,,,,
,,0,63,,,,,,,2,3,3,stim/33.jpeg,Instruments,1,stim/objects/Instruments/trumpet.png,0.3,1,-0.2,0.15,left,3,2020-12-12_21h14.44.262,premup-three_ses-01_part-01_label-phase1,3.2.4,Linux x86_64,60,right,0.875999928,4,0,4,0,1,3,1,0,240,86,1,239,,,,,,,,,,,,,,,,,,
,,0,64,,,,,,,2,4,4,stim/44.jpeg,HouseObjects,2,stim/objects/HouseObjects/rug2.png,0.3,4,0.2,-0.15,right,3,2020-12-12_21h14.44.262,premup-three_ses-01_part-01_label-phase1,3.2.4,Linux x86_64,60,left,0.605999947,4,0,4,0,1,3,1,0,240,151,1,239,,,,,,,,,,,,,,,,,,
,,1,65,,,,,,,3,5,1,stim/51.jpeg,HouseObjects,2,stim/objects/HouseObjects/safetypin2.png,0.9,4,0.2,-0.15,right,3,2020-12-12_21h14.44.262,premup-three_ses-01_part-01_label-phase1,3.2.4,Linux x86_64,60,right,0.556999922,4,0,4,0,1,3,1,0,240,180,1,239,,,,,,,,,,,,,,,,,,
,,1,66,,,,,,,2,3,4,stim/34.jpeg,HouseObjects,2,stim/objects/HouseObjects/thread.png,0.7,4,0.2,-0.15,right,3,2020-12-12_21h14.44.262,premup-three_ses-01_part-01_label-phase1,3.2.4,Linux x86_64,60,right,1.22300005,4,0,4,0,1,3,1,0,240,115,1,239,,,,,,,,,,,,,,,,,,
,,0,67,,,,,,,1,2,3,stim/23.jpeg,HouseObjects,2,stim/objects/HouseObjects/scale.png,0.5,2,0.2,0.15,right,3,2020-12-12_21h14.44.262,premup-three_ses-01_part-01_label-phase1,3.2.4,Linux x86_64,60,left,0.806999922,4,0,4,0,1,3,1,0,240,74,1,239,,,,,,,,,,,,,,,,,,
,,0,68,,,,,,,1,2,3,stim/23.jpeg,Instruments,1,stim/objects/Instruments/tambourine.png,0.5,4,0.2,-0.15,left,3,2020-12-12_21h14.44.262,premup-three_ses-01_part-01_label-phase1,3.2.4,Linux x86_64,60,right,0.504999876,4,0,4,0,1,3,1,0,240,50,1,239,,,,,,,,,,,,,,,,,,
,,1,69,,,,,,,3,6,1,stim/61.jpeg,Instruments,1,stim/objects/Instruments/triangle2.png,0.9,4,0.2,-0.15,left,3,2020-12-12_21h14.44.262,premup-three_ses-01_part-01_label-phase1,3.2.4,Linux x86_64,60,left,0.330999851,4,0,4,0,1,3,1,0,240,220,1,239,,,,,,,,,,,,,,,,,,
,,0,70,,,,,,,3,5,3,stim/53.jpeg,HouseObjects,2,stim/objects/HouseObjects/scale2.png,0.9,2,0.2,0.15,right,3,2020-12-12_21h14.44.262,premup-three_ses-01_part-01_label-phase1,3.2.4,Linux x86_64,60,left,0.649999857,4,0,4,0,1,3,1,0,240,166,1,239,,,,,,,,,,,,,,,,,,
,,0,71,,,,,,,3,5,1,stim/51.jpeg,HouseObjects,2,stim/objects/HouseObjects/safetypin2.png,0.9,2,0.2,0.15,right,3,2020-12-12_21h14.44.262,premup-three_ses-01_part-01_label-phase1,3.2.4,Linux x86_64,60,left,0.951999903,4,0,4,0,1,3,1,0,240,164,1,239,,,,,,,,,,,,,,,,,,
,,1,72,,,,,,,3,5,4,stim/54.jpeg,HouseObjects,2,stim/objects/HouseObjects/sponge2.png,0.9,1,-0.2,0.15,right,3,2020-12-12_21h14.44.262,premup-three_ses-01_part-01_label-phase1,3.2.4,Linux x86_64,60,right,0.349999905,4,0,4,0,1,3,1,0,240,187,1,239,,,,,,,,,,,,,,,,,,
,,0,73,,,,,,,1,2,4,stim/24.jpeg,Instruments,1,stim/objects/Instruments/timbal.png,0.5,3,-0.2,-0.15,left,3,2020-12-12_21h14.44.262,premup-three_ses-01_part-01_label-phase1,3.2.4,Linux x86_64,60,right,0.491999865,4,0,4,0,1,3,1,0,240,43,1,239,,,,,,,,,,,,,,,,,,
,,1,74,,,,,,,2,4,1,stim/41.jpeg,Instruments,1,stim/objects/Instruments/panflute2.png,0.7,2,0.2,0.15,left,3,2020-12-12_21h14.44.262,premup-three_ses-01_part-01_label-phase1,3.2.4,Linux x86_64,60,left,0.453999758,4,0,4,0,1,3,1,0,240,140,1,239,,,,,,,,,,,,,,,,,,
,,0,75,,,,,,,1,2,2,stim/22.jpeg,HouseObjects,2,stim/objects/HouseObjects/saw.png,0.5,1,-0.2,0.15,right,3,2020-12-12_21h14.44.262,premup-three_ses-01_part-01_label-phase1,3.2.4,Linux x86_64,60,left,0.706999779,4,0,4,0,1,3,1,0,240,73,1,239,,,,,,,,,,,,,,,,,,
,,1,76,,,,,,,3,5,1,stim/51.jpeg,HouseObjects,2,stim/objects/HouseObjects/safetypin2.png,0.9,1,-0.2,0.15,right,3,2020-12-12_21h14.44.262,premup-three_ses-01_part-01_label-phase1,3.2.4,Linux x86_64,60,right,0.487999916,4,0,4,0,1,3,1,0,240,176,1,239,,,,,,,,,,,,,,,,,,
,,0,77,,,,,,,1,2,4,stim/24.jpeg,Instruments,1,stim/objects/Instruments/timbal.png,0.5,1,-0.2,0.15,left,3,2020-12-12_21h14.44.262,premup-three_ses-01_part-01_label-phase1,3.2.4,Linux x86_64,60,right,1.066999674,4,0,4,0,1,3,1,0,240,59,1,239,,,,,,,,,,,,,,,,,,
,,0,78,,,,,,,3,5,2,stim/52.jpeg,HouseObjects,2,stim/objects/HouseObjects/saw2.png,0.9,4,0.2,-0.15,right,3,2020-12-12_21h14.44.262,premup-three_ses-01_part-01_label-phase1,3.2.4,Linux x86_64,60,left,0.397999763,4,0,4,0,1,3,1,0,240,169,1,239,,,,,,,,,,,,,,,,,,
,,1,79,,,,,,,2,3,1,stim/31.jpeg,HouseObjects,2,stim/objects/HouseObjects/spraybottle.png,0.7,3,-0.2,-0.15,right,3,2020-12-12_21h14.44.262,premup-three_ses-01_part-01_label-phase1,3.2.4,Linux x86_64,60,right,0.460999727,4,0,4,0,1,3,1,0,240,92,1,239,,,,,,,,,,,,,,,,,,
,,0,80,,,,,,,3,5,2,stim/52.jpeg,HouseObjects,2,stim/objects/HouseObjects/saw2.png,0.9,2,0.2,0.15,right,3,2020-12-12_21h14.44.262,premup-three_ses-01_part-01_label-phase1,3.2.4,Linux x86_64,60,left,1.42599988,4,0,4,0,1,3,1,0,240,165,1,239,,,,,,,,,,,,,,,,,,
,,1,81,,,,,,,2,3,2,stim/32.jpeg,HouseObjects,2,stim/objects/HouseObjects/teapot.png,0.7,1,-0.2,0.15,right,3,2020-12-12_21h14.44.262,premup-three_ses-01_part-01_label-phase1,3.2.4,Linux x86_64,60,right,0.745999813,4,0,4,0,1,3,1,0,240,109,1,239,,,,,,,,,,,,,,,,,,
,,1,82,,,,,,,3,5,1,stim/51.jpeg,HouseObjects,2,stim/objects/HouseObjects/safetypin2.png,0.9,1,-0.2,0.15,right,3,2020-12-12_21h14.44.262,premup-three_ses-01_part-01_label-phase1,3.2.4,Linux x86_64,60,right,1.336999893,4,0,4,0,1,3,1,0,240,192,1,239,,,,,,,,,,,,,,,,,,
,,0,83,,,,,,,1,1,3,stim/13.jpeg,Instruments,1,stim/objects/Instruments/record.png,0.5,2,0.2,0.15,left,3,2020-12-12_21h14.44.262,premup-three_ses-01_part-01_label-phase1,3.2.4,Linux x86_64,60,right,0.833999872,4,0,4,0,1,3,1,0,240,6,1,239,,,,,,,,,,,,,,,,,,
,,1,84,,,,,,,3,5,1,stim/51.jpeg,HouseObjects,2,stim/objects/HouseObjects/safetypin2.png,0.9,3,-0.2,-0.15,right,3,2020-12-12_21h14.44.262,premup-three_ses-01_part-01_label-phase1,3.2.4,Linux x86_64,60,right,0.924999952,4,0,4,0,1,3,1,0,240,172,1,239,,,,,,,,,,,,,,,,,,
,,1,85,,,,,,,3,5,1,stim/51.jpeg,HouseObjects,2,stim/objects/HouseObjects/safetypin2.png,0.9,4,0.2,-0.15,right,3,2020-12-12_21h14.44.262,premup-three_ses-01_part-01_label-phase1,3.2.4,Linux x86_64,60,right,1.129999876,4,0,4,0,1,3,1,0,240,188,1,239,,,,,,,,,,,,,,,,,,
,,0,86,,,,,,,2,3,1,stim/31.jpeg,HouseObjects,2,stim/objects/HouseObjects/spraybottle.png,0.7,2,0.2,0.15,right,3,2020-12-12_21h14.44.262,premup-three_ses-01_part-01_label-phase1,3.2.4,Linux x86_64,60,left,1.145999908,4,0,4,0,1,3,1,0,240,112,1,239,,,,,,,,,,,,,,,,,,
,,0,87,,,,,,,2,4,4,stim/44.jpeg,HouseObjects,2,stim/objects/HouseObjects/rug2.png,0.3,2,0.2,0.15,right,3,2020-12-12_21h14.44.262,premup-three_ses-01_part-01_label-phase1,3.2.4,Linux x86_64,60,,,4,0,4,0,1,3,1,0,240,155,1,239,,,,,,,,,,,,,,,,,,
,,0,88,,,,,,,2,4,2,stim/42.jpeg,Instruments,1,stim/objects/Instruments/pipepiano2.png,0.7,1,-0.2,0.15,left,3,2020-12-12_21h14.44.262,premup-three_ses-01_part-01_label-phase1,3.2.4,Linux x86_64,60,right,0.394999981,4,0,4,0,1,3,1,0,240,129,1,239,,,,,,,,,,,,,,,,,,
,,1,89,,,,,,,3,6,1,stim/61.jpeg,Instruments,1,stim/objects/Instruments/triangle2.png,0.9,2,0.2,0.15,left,3,2020-12-12_21h14.44.262,premup-three_ses-01_part-01_label-phase1,3.2.4,Linux x86_64,60,left,0.641000032,4,0,4,0,1,3,1,0,240,216,1,239,,,,,,,,,,,,,,,,,,
,,1,90,,,,,,,2,4,3,stim/43.jpeg,Instruments,1,stim/objects/Instruments/record2.png,0.7,3,-0.2,-0.15,left,3,2020-12-12_21h14.44.262,premup-three_ses-01_part-01_label-phase1,3.2.4,Linux x86_64,60,left,0.576999903,4,0,4,0,1,3,1,0,240,122,1,239,,,,,,,,,,,,,,,,,,
,,1,91,,,,,,,3,6,1,stim/61.jpeg,Instruments,1,stim/objects/Instruments/triangle2.png,0.9,4,0.2,-0.15,left,3,2020-12-12_21h14.44.262,premup-three_ses-01_part-01_label-phase1,3.2.4,Linux x86_64,60,left,0.601000071,4,0,4,0,1,3,1,0,240,224,1,239,,,,,,,,,,,,,,,,,,
,,1,92,,,,,,,2,3,2,stim/32.jpeg,HouseObjects,2,stim/objects/HouseObjects/teapot.png,0.7,4,0.2,-0.15,right,3,2020-12-12_21h14.44.262,premup-three_ses-01_part-01_label-phase1,3.2.4,Linux x86_64,60,right,0.848999977,4,0,4,0,1,3,1,0,240,97,1,239,,,,,,,,,,,,,,,,,,
,,1,93,,,,,,,1,2,2,stim/22.jpeg,HouseObjects,2,stim/objects/HouseObjects/saw.png,0.5,2,0.2,0.15,right,3,2020-12-12_21h14.44.262,premup-three_ses-01_part-01_label-phase1,3.2.4,Linux x86_64,60,right,1.287999868,4,0,4,0,1,3,1,0,240,65,1,239,,,,,,,,,,,,,,,,,,
,,1,94,,,,,,,3,6,3,stim/63.jpeg,Instruments,1,stim/objects/Instruments/trumpet2.png,0.9,3,-0.2,-0.15,left,3,2020-12-12_21h14.44.262,premup-three_ses-01_part-01_label-phase1,3.2.4,Linux x86_64,60,left,0.716999769,4,0,4,0,1,3,1,0,240,218,1,239,,,,,,,,,,,,,,,,,,
,,1,95,,,,,,,3,6,3,stim/63.jpeg,Instruments,1,stim/objects/Instruments/trumpet2.png,0.9,4,0.2,-0.15,left,3,2020-12-12_21h14.44.262,premup-three_ses-01_part-01_label-phase1,3.2.4,Linux x86_64,60,left,0.613999844,4,0,4,0,1,3,1,0,240,234,1,239,,,,,,,,,,,,,,,,,,
,,0,96,,,,,,,2,4,2,stim/42.jpeg,Instruments,1,stim/objects/Instruments/pipepiano2.png,0.7,2,0.2,0.15,left,3,2020-12-12_21h14.44.262,premup-three_ses-01_part-01_label-phase1,3.2.4,Linux x86_64,60,right,1.126999855,4,0,4,0,1,3,1,0,240,137,1,239,,,,,,,,,,,,,,,,,,
,,1,97,,,,,,,3,5,2,stim/52.jpeg,HouseObjects,2,stim/objects/HouseObjects/saw2.png,0.9,3,-0.2,-0.15,right,3,2020-12-12_21h14.44.262,premup-three_ses-01_part-01_label-phase1,3.2.4,Linux x86_64,60,right,0.97699976,4,0,4,0,1,3,1,0,240,173,1,239,,,,,,,,,,,,,,,,,,
,,0,98,,,,,,,1,1,4,stim/14.jpeg,Instruments,1,stim/objects/Instruments/record_player.png,0.5,4,0.2,-0.15,left,3,2020-12-12_21h14.44.262,premup-three_ses-01_part-01_label-phase1,3.2.4,Linux x86_64,60,right,0.662999868,4,0,4,0,1,3,1,0,240,7,1,239,,,,,,,,,,,,,,,,,,
,,1,99,,,,,,,1,1,1,stim/11.jpeg,Instruments,1,stim/objects/Instruments/panflute.png,0.5,2,0.2,0.15,left,3,2020-12-12_21h14.44.262,premup-three_ses-01_part-01_label-phase1,3.2.4,Linux x86_64,60,left,0.477999687,4,0,4,0,1,3,1,0,240,8,1,239,,,,,,,,,,,,,,,,,,
,,0,100,,,,,,,3,5,3,stim/53.jpeg,HouseObjects,2,stim/objects/HouseObjects/scale2.png,0.9,2,0.2,0.15,right,3,2020-12-12_21h14.44.262,premup-three_ses-01_part-01_label-phase1,3.2.4,Linux x86_64,60,left,0.578999996,4,0,4,0,1,3,1,0,240,190,1,239,,,,,,,,,,,,,,,,,,
,,1,101,,,,,,,2,4,2,stim/42.jpeg,Instruments,1,stim/objects/Instruments/pipepiano2.png,0.7,3,-0.2,-0.15,left,3,2020-12-12_21h14.44.262,premup-three_ses-01_part-01_label-phase1,3.2.4,Linux x86_64,60,left,0.620999813,4,0,4,0,1,3,1,0,240,121,1,239,,,,,,,,,,,,,,,,,,
,,1,102,,,,,,,3,5,3,stim/53.jpeg,HouseObjects,2,stim/objects/HouseObjects/scale2.png,0.9,2,0.2,0.15,right,3,2020-12-12_21h14.44.262,premup-three_ses-01_part-01_label-phase1,3.2.4,Linux x86_64,60,right,0.967999935,4,0,4,0,1,3,1,0,240,186,1,239,,,,,,,,,,,,,,,,,,
,,1,103,,,,,,,3,5,3,stim/53.jpeg,HouseObjects,2,stim/objects/HouseObjects/scale2.png,0.9,2,0.2,0.15,right,3,2020-12-12_21h14.44.262,premup-three_ses-01_part-01_label-phase1,3.2.4,Linux x86_64,60,right,0.638999939,4,0,4,0,1,3,1,0,240,174,1,239,,,,,,,,,,,,,,,,,,
,,1,104,,,,,,,2,3,1,stim/31.jpeg,HouseObjects,2,stim/objects/HouseObjects/spraybottle.png,0.7,4,0.2,-0.15,right,3,2020-12-12_21h14.44.262,premup-three_ses-01_part-01_label-phase1,3.2.4,Linux x86_64,60,right,0.42599988,4,0,4,0,1,3,1,0,240,96,1,239,,,,,,,,,,,,,,,,,,
,,0,105,,,,,,,1,1,1,stim/11.jpeg,Instruments,1,stim/objects/Instruments/panflute.png,0.5,4,0.2,-0.15,left,3,2020-12-12_21h14.44.262,premup-three_ses-01_part-01_label-phase1,3.2.4,Linux x86_64,60,right,0.576999903,4,0,4,0,1,3,1,0,240,0,1,239,,,,,,,,,,,,,,,,,,
,,1,106,,,,,,,3,5,4,stim/54.jpeg,HouseObjects,2,stim/objects/HouseObjects/sponge2.png,0.9,4,0.2,-0.15,right,3,2020-12-12_21h14.44.262,premup-three_ses-01_part-01_label-phase1,3.2.4,Linux x86_64,60,right,0.359999895,4,0,4,0,1,3,1,0,240,199,1,239,,,,,,,,,,,,,,,,,,
,,1,107,,,,,,,3,6,2,stim/62.jpeg,Instruments,1,stim/objects/Instruments/trombone2.png,0.9,1,-0.2,0.15,left,3,2020-12-12_21h14.44.262,premup-three_ses-01_part-01_label-phase1,3.2.4,Linux x86_64,60,left,0.717999935,4,0,4,0,1,3,1,0,240,213,1,239,,,,,,,,,,,,,,,,,,
,,1,108,,,,,,,1,2,3,stim/23.jpeg,Instruments,1,stim/objects/Instruments/tambourine.png,0.5,3,-0.2,-0.15,left,3,2020-12-12_21h14.44.262,premup-three_ses-01_part-01_label-phase1,3.2.4,Linux x86_64,60,left,0.583999872,4,0,4,0,1,3,1,0,240,42,1,239,,,,,,,,,,,,,,,,,,
,,1,109,,,,,,,3,6,2,stim/62.jpeg,Instruments,1,stim/objects/Instruments/trombone2.png,0.9,4,0.2,-0.15,left,3,2020-12-12_21h14.44.262,premup-three_ses-01_part-01_label-phase1,3.2.4,Linux x86_64,60,left,0.73699975,4,0,4,0,1,3,1,0,240,225,1,239,,,,,,,,,,,,,,,,,,
,,1,110,,,,,,,2,4,4,stim/44.jpeg,Instruments,1,stim/objects/Instruments/record_player2.png,0.7,1,-0.2,0.15,left,3,2020-12-12_21h14.44.262,premup-three_ses-01_part-01_label-phase1,3.2.4,Linux x86_64,60,left,0.806999922,4,0,4,0,1,3,1,0,240,131,1,239,,,,,,,,,,,,,,,,,,
,,0,111,,,,,,,1,2,3,stim/23.jpeg,Instruments,1,stim/objects/Instruments/tambourine.png,0.5,1,-0.2,0.15,left,3,2020-12-12_21h14.44.262,premup-three_ses-01_part-01_label-phase1,3.2.4,Linux x86_64,60,right,1.616999865,4,0,4,0,1,3,1,0,240,58,1,239,,,,,,,,,,,,,,,,,,
,,1,112,,,,,,,2,3,4,stim/34.jpeg,HouseObjects,2,stim/objects/HouseObjects/thread.png,0.7,2,0.2,0.15,right,3,2020-12-12_21h14.44.262,premup-three_ses-01_part-01_label-phase1,3.2.4,Linux x86_64,60,right,1.150999784,4,0,4,0,1,3,1,0,240,111,1,239,,,,,,,,,,,,,,,,,,
,,0,113,,,,,,,2,3,2,stim/32.jpeg,Instruments,1,stim/objects/Instruments/trombone.png,0.3,3,-0.2,-0.15,left,3,2020-12-12_21h14.44.262,premup-three_ses-01_part-01_label-phase1,3.2.4,Linux x86_64,60,right,0.865999937,4,0,4,0,1,3,1,0,240,89,1,239,,,,,,,,,,,,,,,,,,
,,1,114,,,,,,,3,6,2,stim/62.jpeg,Instruments,1,stim/objects/Instruments/trombone2.png,0.9,4,0.2,-0.15,left,3,2020-12-12_21h14.44.262,premup-three_ses-01_part-01_label-phase1,3.2.4,Linux x86_64,60,left,0.710999966,4,0,4,0,1,3,1,0,240,209,1,239,,,,,,,,,,,,,,,,,,
,,0,115,,,,,,,1,1,4,stim/14.jpeg,Instruments,1,stim/objects/Instruments/record_player.png,0.5,3,-0.2,-0.15,left,3,2020-12-12_21h14.44.262,premup-three_ses-01_part-01_label-phase1,3.2.4,Linux x86_64,60,right,1.291999817,4,0,4,0,1,3,1,0,240,15,1,239,,,,,,,,,,,,,,,,,,
,,0,116,,,,,,,1,2,1,stim/21.jpeg,Instruments,1,stim/objects/Instruments/saxophone.png,0.5,4,0.2,-0.15,left,3,2020-12-12_21h14.44.262,premup-three_ses-01_part-01_label-phase1,3.2.4,Linux x86_64,60,right,0.963999987,4,0,4,0,1,3,1,0,240,52,1,239,,,,,,,,,,,,,,,,,,
,,1,117,,,,,,,2,3,2,stim/32.jpeg,HouseObjects,2,stim/objects/HouseObjects/teapot.png,0.7,3,-0.2,-0.15,right,3,2020-12-12_21h14.44.262,premup-three_ses-01_part-01_label-phase1,3.2.4,Linux x86_64,60,right,1.181999922,4,0,4,0,1,3,1,0,240,101,1,239,,,,,,,,,,,,,,,,,,
,,0,118,,,,,,,2,4,3,stim/43.jpeg,HouseObjects,2,stim/objects/HouseObjects/rubbergloves2.png,0.3,3,-0.2,-0.15,right,3,2020-12-12_21h14.44.262,premup-three_ses-01_part-01_label-phase1,3.2.4,Linux x86_64,60,left,1.104999781,4,0,4,0,1,3,1,0,240,150,1,239,,,,,,,,,,,,,,,,,,
,,1,119,,,,,,,3,6,4,stim/64.jpeg,Instruments,1,stim/objects/Instruments/tuba2.png,0.9,2,0.2,0.15,left,3,2020-12-12_21h14.44.262,premup-three_ses-01_part-01_label-phase1,3.2.4,Linux x86_64,60,left,0.649999857,4,0,4,0,1,3,1,0,240,211,1,239,,,,,,,,,,,,,,,,,,
,,1,120,,,,,,,1,1,1,stim/11.jpeg,HouseObjects,2,stim/objects/HouseObjects/recyclingbin.png,0.5,1,-0.2,0.15,right,3,2020-12-12_21h14.44.262,premup-three_ses-01_part-01_label-phase1,3.2.4,Linux x86_64,60,right,0.957999706,4,0,4,0,1,3,1,0,240,32,1,239,,,,,,,,,,,,,,,,,,
,,1,121,,,,,,,2,4,3,stim/43.jpeg,HouseObjects,2,stim/objects/HouseObjects/rubbergloves2.png,0.3,4,0.2,-0.15,right,3,2020-12-12_21h14.44.262,premup-three_ses-01_part-01_label-phase1,3.2.4,Linux x86_64,60,right,1.901000023,4,0,4,0,1,3,1,0,240,154,1,239,,,,,,,,,,,,,,,,,,
,,1,122,,,,,,,3,6,1,stim/61.jpeg,Instruments,1,stim/objects/Instruments/triangle2.png,0.9,2,0.2,0.15,left,3,2020-12-12_21h14.44.262,premup-three_ses-01_part-01_label-phase1,3.2.4,Linux x86_64,60,left,0.689999819,4,0,4,0,1,3,1,0,240,232,1,239,,,,,,,,,,,,,,,,,,
,,1,123,,,,,,,3,5,1,stim/51.jpeg,HouseObjects,2,stim/objects/HouseObjects/safetypin2.png,0.9,2,0.2,0.15,right,3,2020-12-12_21h14.44.262,premup-three_ses-01_part-01_label-phase1,3.2.4,Linux x86_64,60,right,1.19299984,4,0,4,0,1,3,1,0,240,168,1,239,,,,,,,,,,,,,,,,,,
,,0,124,,,,,,,3,5,1,stim/51.jpeg,Instruments,1,stim/objects/Instruments/saxophone2.png,0.1,4,0.2,-0.15,left,3,2020-12-12_21h14.44.262,premup-three_ses-01_part-01_label-phase1,3.2.4,Linux x86_64,60,right,1.731999874,4,0,4,0,1,3,1,0,240,160,1,239,,,,,,,,,,,,,,,,,,
,,1,125,,,,,,,1,1,3,stim/13.jpeg,HouseObjects,2,stim/objects/HouseObjects/rubbergloves.png,0.5,2,0.2,0.15,right,3,2020-12-12_21h14.44.262,premup-three_ses-01_part-01_label-phase1,3.2.4,Linux x86_64,60,right,1.449999809,4,0,4,0,1,3,1,0,240,38,1,239,,,,,,,,,,,,,,,,,,
,,0,126,,,,,,,1,2,3,stim/23.jpeg,HouseObjects,2,stim/objects/HouseObjects/scale.png,0.5,4,0.2,-0.15,right,3,2020-12-12_21h14.44.262,premup-three_ses-01_part-01_label-phase1,3.2.4,Linux x86_64,60,left,1.119999886,4,0,4,0,1,3,1,0,240,70,1,239,,,,,,,,,,,,,,,,,,
,,0,127,,,,,,,1,2,3,stim/23.jpeg,HouseObjects,2,stim/objects/HouseObjects/scale.png,0.5,3,-0.2,-0.15,right,3,2020-12-12_21h14.44.262,premup-three_ses-01_part-01_label-phase1,3.2.4,Linux x86_64,60,left,0.701999903,4,0,4,0,1,3,1,0,240,62,1,239,,,,,,,,,,,,,,,,,,
,,0,128,,,,,,,3,5,3,stim/53.jpeg,HouseObjects,2,stim/objects/HouseObjects/scale2.png,0.9,3,-0.2,-0.15,right,3,2020-12-12_21h14.44.262,premup-three_ses-01_part-01_label-phase1,3.2.4,Linux x86_64,60,left,0.832000017,4,0,4,0,1,3,1,0,240,170,1,239,,,,,,,,,,,,,,,,,,
,,0,129,,,,,,,1,1,4,stim/14.jpeg,Instruments,1,stim/objects/Instruments/record_player.png,0.5,4,0.2,-0.15,left,3,2020-12-12_21h14.44.262,premup-three_ses-01_part-01_label-phase1,3.2.4,Linux x86_64,60,right,1.650999784,4,0,4,0,1,3,1,0,240,3,1,239,,,,,,,,,,,,,,,,,,
,,1,130,,,,,,,2,4,1,stim/41.jpeg,Instruments,1,stim/objects/Instruments/panflute2.png,0.7,1,-0.2,0.15,left,3,2020-12-12_21h14.44.262,premup-three_ses-01_part-01_label-phase1,3.2.4,Linux x86_64,60,left,0.944999933,4,0,4,0,1,3,1,0,240,132,1,239,,,,,,,,,,,,,,,,,,
,,1,131,,,,,,,2,3,3,stim/33.jpeg,Instruments,1,stim/objects/Instruments/trumpet.png,0.3,4,0.2,-0.15,left,3,2020-12-12_21h14.44.262,premup-three_ses-01_part-01_label-phase1,3.2.4,Linux x86_64,60,left,0.826999903,4,0,4,0,1,3,1,0,240,90,1,239,,,,,,,,,,,,,,,,,,
,,0,132,,,,,,,2,4,2,stim/42.jpeg,Instruments,1,stim/objects/Instruments/pipepiano2.png,0.7,4,0.2,-0.15,left,3,2020-12-12_21h14.44.262,premup-three_ses-01_part-01_label-phase1,3.2.4,Linux x86_64,60,right,1.227999687,4,0,4,0,1,3,1,0,240,125,1,239,,,,,,,,,,,,,,,,,,
,,0,133,,,,,,,1,2,1,stim/21.jpeg,HouseObjects,2,stim/objects/HouseObjects/safetypin.png,0.5,3,-0.2,-0.15,right,3,2020-12-12_21h14.44.262,premup-three_ses-01_part-01_label-phase1,3.2.4,Linux x86_64,60,left,1.610999823,4,0,4,0,1,3,1,0,240,60,1,239,,,,,,,,,,,,,,,,,,
,,1,134,,,,,,,3,5,3,stim/53.jpeg,Instruments,1,stim/objects/Instruments/tambourine2.png,0.1,4,0.2,-0.15,left,3,2020-12-12_21h14.44.262,premup-three_ses-01_part-01_label-phase1,3.2.4,Linux x86_64,60,left,0.840999842,4,0,4,0,1,3,1,0,240,162,1,239,,,,,,,,,,,,,,,,,,
,,1,135,,,,,,,1,1,3,stim/13.jpeg,Instruments,1,stim/objects/Instruments/record.png,0.5,3,-0.2,-0.15,left,3,2020-12-12_21h14.44.262,premup-three_ses-01_part-01_label-phase1,3.2.4,Linux x86_64,60,left,0.798999786,4,0,4,0,1,3,1,0,240,10,1,239,,,,,,,,,,,,,,,,,,
,,0,136,,,,,,,1,1,2,stim/12.jpeg,Instruments,1,stim/objects/Instruments/pipepiano.png,0.5,2,0.2,0.15,left,3,2020-12-12_21h14.44.262,premup-three_ses-01_part-01_label-phase1,3.2.4,Linux x86_64,60,right,1.036999941,4,0,4,0,1,3,1,0,240,5,1,239,,,,,,,,,,,,,,,,,,
,,1,137,,,,,,,3,5,1,stim/51.jpeg,HouseObjects,2,stim/objects/HouseObjects/safetypin2.png,0.9,4,0.2,-0.15,right,3,2020-12-12_21h14.44.262,premup-three_ses-01_part-01_label-phase1,3.2.4,Linux x86_64,60,right,1.16899991,4,0,4,0,1,3,1,0,240,184,1,239,,,,,,,,,,,,,,,,,,
,,1,138,,,,,,,2,4,1,stim/41.jpeg,Instruments,1,stim/objects/Instruments/panflute2.png,0.7,1,-0.2,0.15,left,3,2020-12-12_21h14.44.262,premup-three_ses-01_part-01_label-phase1,3.2.4,Linux x86_64,60,left,0.858999968,4,0,4,0,1,3,1,0,240,144,1,239,,,,,,,,,,,,,,,,,,
,,0,139,,,,,,,2,3,2,stim/32.jpeg,HouseObjects,2,stim/objects/HouseObjects/teapot.png,0.7,1,-0.2,0.15,right,3,2020-12-12_21h14.44.262,premup-three_ses-01_part-01_label-phase1,3.2.4,Linux x86_64,60,left,0.647000074,4,0,4,0,1,3,1,0,240,117,1,239,,,,,,,,,,,,,,,,,,
,,1,140,,,,,,,1,2,1,stim/21.jpeg,HouseObjects,2,stim/objects/HouseObjects/safetypin.png,0.5,4,0.2,-0.15,right,3,2020-12-12_21h14.44.262,premup-three_ses-01_part-01_label-phase1,3.2.4,Linux x86_64,60,right,0.506000042,4,0,4,0,1,3,1,0,240,72,1,239,,,,,,,,,,,,,,,,,,
,,0,141,,,,,,,1,1,4,stim/14.jpeg,HouseObjects,2,stim/objects/HouseObjects/rug.png,0.5,1,-0.2,0.15,right,3,2020-12-12_21h14.44.262,premup-three_ses-01_part-01_label-phase1,3.2.4,Linux x86_64,60,left,0.57799983,4,0,4,0,1,3,1,0,240,31,1,239,,,,,,,,,,,,,,,,,,
,,1,142,,,,,,,1,1,4,stim/14.jpeg,HouseObjects,2,stim/objects/HouseObjects/rug.png,0.5,2,0.2,0.15,right,3,2020-12-12_21h14.44.262,premup-three_ses-01_part-01_label-phase1,3.2.4,Linux x86_64,60,right,0.410999775,4,0,4,0,1,3,1,0,240,23,1,239,,,,,,,,,,,,,,,,,,
,,1,143,,,,,,,3,6,4,stim/64.jpeg,Instruments,1,stim/objects/Instruments/tuba2.png,0.9,2,0.2,0.15,left,3,2020-12-12_21h14.44.262,premup-three_ses-01_part-01_label-phase1,3.2.4,Linux x86_64,60,left,0.787999868,4,0,4,0,1,3,1,0,240,219,1,239,,,,,,,,,,,,,,,,,,
,,0,144,,,,,,,3,5,4,stim/54.jpeg,HouseObjects,2,stim/objects/HouseObjects/sponge2.png,0.9,2,0.2,0.15,right,3,2020-12-12_21h14.44.262,premup-three_ses-01_part-01_label-phase1,3.2.4,Linux x86_64,60,left,0.530999899,4,0,4,0,1,3,1,0,240,195,1,239,,,,,,,,,,,,,,,,,,
,,1,145,,,,,,,3,6,3,stim/63.jpeg,Instruments,1,stim/objects/Instruments/trumpet2.png,0.9,4,0.2,-0.15,left,3,2020-12-12_21h14.44.262,premup-three_ses-01_part-01_label-phase1,3.2.4,Linux x86_64,60,left,1.218999863,4,0,4,0,1,3,1,0,240,202,1,239,,,,,,,,,,,,,,,,,,
,,1,146,,,,,,,2,3,1,stim/31.jpeg,Instruments,1,stim/objects/Instruments/triangle.png,0.3,3,-0.2,-0.15,left,3,2020-12-12_21h14.44.262,premup-three_ses-01_part-01_label-phase1,3.2.4,Linux x86_64,60,left,0.629999876,4,0,4,0,1,3,1,0,240,88,1,239,,,,,,,,,,,,,,,,,,
,,0,147,,,,,,,3,5,4,stim/54.jpeg,HouseObjects,2,stim/objects/HouseObjects/sponge2.png,0.9,1,-0.2,0.15,right,3,2020-12-12_21h14.44.262,premup-three_ses-01_part-01_label-phase1,3.2.4,Linux x86_64,60,left,0.517999887,4,0,4,0,1,3,1,0,240,183,1,239,,,,,,,,,,,,,,,,,,
,,0,148,,,,,,,2,4,2,stim/42.jpeg,HouseObjects,2,stim/objects/HouseObjects/remote2.png,0.3,2,0.2,0.15,right,3,2020-12-12_21h14.44.262,premup-three_ses-01_part-01_label-phase1,3.2.4,Linux x86_64,60,left,0.406999826,4,0,4,0,1,3,1,0,240,153,1,239,,,,,,,,,,,,,,,,,,
,,1,149,,,,,,,2,4,2,stim/42.jpeg,Instruments,1,stim/objects/Instruments/pipepiano2.png,0.7,1,-0.2,0.15,left,3,2020-12-12_21h14.44.262,premup-three_ses-01_part-01_label-phase1,3.2.4,Linux x86_64,60,left,0.492999792,4,0,4,0,1,3,1,0,240,133,1,239,,,,,,,,,,,,,,,,,,
,,0,150,,,,,,,2,3,3,stim/33.jpeg,HouseObjects,2,stim/objects/HouseObjects/thermometer.png,0.7,4,0.2,-0.15,right,3,2020-12-12_21h14.44.262,premup-three_ses-01_part-01_label-phase1,3.2.4,Linux x86_64,60,left,0.638999939,4,0,4,0,1,3,1,0,240,118,1,239,,,,,,,,,,,,,,,,,,
,,0,151,,,,,,,1,2,4,stim/24.jpeg,HouseObjects,2,stim/objects/HouseObjects/sponge.png,0.5,2,0.2,0.15,right,3,2020-12-12_21h14.44.262,premup-three_ses-01_part-01_label-phase1,3.2.4,Linux x86_64,60,left,0.536999941,4,0,4,0,1,3,1,0,240,79,1,239,,,,,,,,,,,,,,,,,,
,,0,152,,,,,,,1,1,3,stim/13.jpeg,HouseObjects,2,stim/objects/HouseObjects/rubbergloves.png,0.5,3,-0.2,-0.15,right,3,2020-12-12_21h14.44.262,premup-three_ses-01_part-01_label-phase1,3.2.4,Linux x86_64,60,left,1.498999834,4,0,4,0,1,3,1,0,240,30,1,239,,,,,,,,,,,,,,,,,,
,,0,153,,,,,,,1,1,2,stim/12.jpeg,HouseObjects,2,stim/objects/HouseObjects/remote.png,0.5,2,0.2,0.15,right,3,2020-12-12_21h14.44.262,premup-three_ses-01_part-01_label-phase1,3.2.4,Linux x86_64,60,left,0.79399991,4,0,4,0,1,3,1,0,240,25,1,239,,,,,,,,,,,,,,,,,,
,,0,154,,,,,,,1,2,1,stim/21.jpeg,Instruments,1,stim/objects/Instruments/saxophone.png,0.5,4,0.2,-0.15,left,3,2020-12-12_21h14.44.262,premup-three_ses-01_part-01_label-phase1,3.2.4,Linux x86_64,60,right,1.326999903,4,0,4,0,1,3,1,0,240,56,1,239,,,,,,,,,,,,,,,,,,
,,0,155,,,,,,,2,4,2,stim/42.jpeg,Instruments,1,stim/objects/Instruments/pipepiano2.png,0.7,3,-0.2,-0.15,left,3,2020-12-12_21h14.44.262,premup-three_ses-01_part-01_label-phase1,3.2.4,Linux x86_64,60,right,1.750999928,4,0,4,0,1,3,1,0,240,141,1,239,,,,,,,,,,,,,,,,,,
,,0,156,,,,,,,3,6,2,stim/62.jpeg,HouseObjects,2,stim/objects/HouseObjects/teapot2.png,0.1,1,-0.2,0.15,right,3,2020-12-12_21h14.44.262,premup-three_ses-01_part-01_label-phase1,3.2.4,Linux x86_64,60,left,0.658999681,4,0,4,0,1,3,1,0,240,237,1,239,,,,,,,,,,,,,,,,,,
,,0,157,,,,,,,1,2,2,stim/22.jpeg,HouseObjects,2,stim/objects/HouseObjects/saw.png,0.5,1,-0.2,0.15,right,3,2020-12-12_21h14.44.262,premup-three_ses-01_part-01_label-phase1,3.2.4,Linux x86_64,60,left,1.813999891,4,0,4,0,1,3,1,0,240,61,1,239,,,,,,,,,,,,,,,,,,
,,1,158,,,,,,,2,3,1,stim/31.jpeg,HouseObjects,2,stim/objects/HouseObjects/spraybottle.png,0.7,2,0.2,0.15,right,3,2020-12-12_21h14.44.262,premup-three_ses-01_part-01_label-phase1,3.2.4,Linux x86_64,60,right,1.285999775,4,0,4,0,1,3,1,0,240,108,1,239,,,,,,,,,,,,,,,,,,
,,0,159,,,,,,,2,3,4,stim/34.jpeg,Instruments,1,stim/objects/Instruments/tuba.png,0.3,3,-0.2,-0.15,left,3,2020-12-12_21h14.44.262,premup-three_ses-01_part-01_label-phase1,3.2.4,Linux x86_64,60,right,1.001999855,4,0,4,0,1,3,1,0,240,83,1,239,,,,,,,,,,,,,,,,,,
,,1,160,,,,,,,2,4,1,stim/41.jpeg,Instruments,1,stim/objects/Instruments/panflute2.png,0.7,3,-0.2,-0.15,left,3,2020-12-12_21h14.44.262,premup-three_ses-01_part-01_label-phase1,3.2.4,Linux x86_64,60,left,0.905999899,4,0,4,0,1,3,1,0,240,136,1,239,,,,,,,,,,,,,,,,,,
,,1,161,,,,,,,3,6,3,stim/63.jpeg,Instruments,1,stim/objects/Instruments/trumpet2.png,0.9,3,-0.2,-0.15,left,3,2020-12-12_21h14.44.262,premup-three_ses-01_part-01_label-phase1,3.2.4,Linux x86_64,60,left,0.690999746,4,0,4,0,1,3,1,0,240,230,1,239,,,,,,,,,,,,,,,,,,
,,1,162,,,,,,,1,1,4,stim/14.jpeg,HouseObjects,2,stim/objects/HouseObjects/rug.png,0.5,1,-0.2,0.15,right,3,2020-12-12_21h14.44.262,premup-three_ses-01_part-01_label-phase1,3.2.4,Linux x86_64,60,right,0.900999784,4,0,4,0,1,3,1,0,240,39,1,239,,,,,,,,,,,,,,,,,,
,,1,163,,,,,,,3,6,4,stim/64.jpeg,Instruments,1,stim/objects/Instruments/tuba2.png,0.9,3,-0.2,-0.15,left,3,2020-12-12_21h14.44.262,premup-three_ses-01_part-01_label-phase1,3.2.4,Linux x86_64,60,left,0.705999851,4,0,4,0,1,3,1,0,240,215,1,239,,,,,,,,,,,,,,,,,,
,,1,164,,,,,,,1,1,2,stim/12.jpeg,HouseObjects,2,stim/objects/HouseObjects/remote.png,0.5,2,0.2,0.15,right,3,2020-12-12_21h14.44.262,premup-three_ses-01_part-01_label-phase1,3.2.4,Linux x86_64,60,right,1.059999704,4,0,4,0,1,3,1,0,240,33,1,239,,,,,,,,,,,,,,,,,,
,,0,165,,,,,,,2,3,4,stim/34.jpeg,Instruments,1,stim/objects/Instruments/tuba.png,0.3,2,0.2,0.15,left,3,2020-12-12_21h14.44.262,premup-three_ses-01_part-01_label-phase1,3.2.4,Linux x86_64,60,right,1.026000023,4,0,4,0,1,3,1,0,240,87,1,239,,,,,,,,,,,,,,,,,,
,,0,166,,,,,,,1,2,3,stim/23.jpeg,Instruments,1,stim/objects/Instruments/tambourine.png,0.5,4,0.2,-0.15,left,3,2020-12-12_21h14.44.262,premup-three_ses-01_part-01_label-phase1,3.2.4,Linux x86_64,60,right,1.135999918,4,0,4,0,1,3,1,0,240,54,1,239,,,,,,,,,,,,,,,,,,
,,0,167,,,,,,,3,6,4,stim/64.jpeg,HouseObjects,2,stim/objects/HouseObjects/thread2.png,0.1,4,0.2,-0.15,right,3,2020-12-12_21h14.44.262,premup-three_ses-01_part-01_label-phase1,3.2.4,Linux x86_64,60,left,0.5849998,4,0,4,0,1,3,1,0,240,239,1,239,,,,,,,,,,,,,,,,,,
,,1,168,,,,,,,3,6,1,stim/61.jpeg,Instruments,1,stim/objects/Instruments/triangle2.png,0.9,3,-0.2,-0.15,left,3,2020-12-12_21h14.44.262,premup-three_ses-01_part-01_label-phase1,3.2.4,Linux x86_64,60,left,0.448999882,4,0,4,0,1,3,1,0,240,200,1,239,,,,,,,,,,,,,,,,,,
,,1,169,,,,,,,1,1,1,stim/11.jpeg,Instruments,1,stim/objects/Instruments/panflute.png,0.5,2,0.2,0.15,left,3,2020-12-12_21h14.44.262,premup-three_ses-01_part-01_label-phase1,3.2.4,Linux x86_64,60,left,0.645999908,4,0,4,0,1,3,1,0,240,16,1,239,,,,,,,,,,,,,,,,,,
,,0,170,,,,,,,2,3,3,stim/33.jpeg,HouseObjects,2,stim/objects/HouseObjects/thermometer.png,0.7,2,0.2,0.15,right,3,2020-12-12_21h14.44.262,premup-three_ses-01_part-01_label-phase1,3.2.4,Linux x86_64,60,left,0.54399991,4,0,4,0,1,3,1,0,240,94,1,239,,,,,,,,,,,,,,,,,,
,,0,171,,,,,,,3,5,4,stim/54.jpeg,HouseObjects,2,stim/objects/HouseObjects/sponge2.png,0.9,2,0.2,0.15,right,3,2020-12-12_21h14.44.262,premup-three_ses-01_part-01_label-phase1,3.2.4,Linux x86_64,60,left,0.314999819,4,0,4,0,1,3,1,0,240,191,1,239,,,,,,,,,,,,,,,,,,
,,1,172,,,,,,,2,3,2,stim/32.jpeg,Instruments,1,stim/objects/Instruments/trombone.png,0.3,2,0.2,0.15,left,3,2020-12-12_21h14.44.262,premup-three_ses-01_part-01_label-phase1,3.2.4,Linux x86_64,60,left,0.766999722,4,0,4,0,1,3,1,0,240,81,1,239,,,,,,,,,,,,,,,,,,
,,1,173,,,,,,,3,5,2,stim/52.jpeg,HouseObjects,2,stim/objects/HouseObjects/saw2.png,0.9,3,-0.2,-0.15,right,3,2020-12-12_21h14.44.262,premup-three_ses-01_part-01_label-phase1,3.2.4,Linux x86_64,60,right,0.703999996,4,0,4,0,1,3,1,0,240,193,1,239,,,,,,,,,,,,,,,,,,
,,1,174,,,,,,,3,6,3,stim/63.jpeg,Instruments,1,stim/objects/Instruments/trumpet2.png,0.9,2,0.2,0.15,left,3,2020-12-12_21h14.44.262,premup-three_ses-01_part-01_label-phase1,3.2.4,Linux x86_64,60,left,0.713000059,4,0,4,0,1,3,1,0,240,214,1,239,,,,,,,,,,,,,,,,,,
,,1,175,,,,,,,2,4,3,stim/43.jpeg,Instruments,1,stim/objects/Instruments/record2.png,0.7,4,0.2,-0.15,left,3,2020-12-12_21h14.44.262,premup-three_ses-01_part-01_label-phase1,3.2.4,Linux x86_64,60,left,0.394999743,4,0,4,0,1,3,1,0,240,130,1,239,,,,,,,,,,,,,,,,,,
,,1,176,,,,,,,3,6,1,stim/61.jpeg,Instruments,1,stim/objects/Instruments/triangle2.png,0.9,3,-0.2,-0.15,left,3,2020-12-12_21h14.44.262,premup-three_ses-01_part-01_label-phase1,3.2.4,Linux x86_64,60,left,0.574999809,4,0,4,0,1,3,1,0,240,212,1,239,,,,,,,,,,,,,,,,,,
,,1,177,,,,,,,3,6,2,stim/62.jpeg,Instruments,1,stim/objects/Instruments/trombone2.png,0.9,1,-0.2,0.15,left,3,2020-12-12_21h14.44.262,premup-three_ses-01_part-01_label-phase1,3.2.4,Linux x86_64,60,left,0.572000027,4,0,4,0,1,3,1,0,240,233,1,239,,,,,,,,,,,,,,,,,,
,,1,178,,,,,,,3,6,4,stim/64.jpeg,Instruments,1,stim/objects/Instruments/tuba2.png,0.9,3,-0.2,-0.15,left,3,2020-12-12_21h14.44.262,premup-three_ses-01_part-01_label-phase1,3.2.4,Linux x86_64,60,left,0.406999826,4,0,4,0,1,3,1,0,240,203,1,239,,,,,,,,,,,,,,,,,,
,,1,179,,,,,,,3,6,4,stim/64.jpeg,Instruments,1,stim/objects/Instruments/tuba2.png,0.9,4,0.2,-0.15,left,3,2020-12-12_21h14.44.262,premup-three_ses-01_part-01_label-phase1,3.2.4,Linux x86_64,60,left,0.477999926,4,0,4,0,1,3,1,0,240,207,1,239,,,,,,,,,,,,,,,,,,
,,1,180,,,,,,,2,4,4,stim/44.jpeg,Instruments,1,stim/objects/Instruments/record_player2.png,0.7,1,-0.2,0.15,left,3,2020-12-12_21h14.44.262,premup-three_ses-01_part-01_label-phase1,3.2.4,Linux x86_64,60,left,0.386999846,4,0,4,0,1,3,1,0,240,127,1,239,,,,,,,,,,,,,,,,,,
,,0,181,,,,,,,3,5,1,stim/51.jpeg,HouseObjects,2,stim/objects/HouseObjects/safetypin2.png,0.9,3,-0.2,-0.15,right,3,2020-12-12_21h14.44.262,premup-three_ses-01_part-01_label-phase1,3.2.4,Linux x86_64,60,left,0.549999952,4,0,4,0,1,3,1,0,240,196,1,239,,,,,,,,,,,,,,,,,,
,,1,182,,,,,,,3,6,4,stim/64.jpeg,Instruments,1,stim/objects/Instruments/tuba2.png,0.9,1,-0.2,0.15,left,3,2020-12-12_21h14.44.262,premup-three_ses-01_part-01_label-phase1,3.2.4,Linux x86_64,60,left,0.372999668,4,0,4,0,1,3,1,0,240,235,1,239,,,,,,,,,,,,,,,,,,
,,0,183,,,,,,,2,3,4,stim/34.jpeg,HouseObjects,2,stim/objects/HouseObjects/thread.png,0.7,4,0.2,-0.15,right,3,2020-12-12_21h14.44.262,premup-three_ses-01_part-01_label-phase1,3.2.4,Linux x86_64,60,left,0.563999891,4,0,4,0,1,3,1,0,240,95,1,239,,,,,,,,,,,,,,,,,,
,,1,184,,,,,,,1,1,3,stim/13.jpeg,Instruments,1,stim/objects/Instruments/record.png,0.5,1,-0.2,0.15,left,3,2020-12-12_21h14.44.262,premup-three_ses-01_part-01_label-phase1,3.2.4,Linux x86_64,60,left,0.554999828,4,0,4,0,1,3,1,0,240,14,1,239,,,,,,,,,,,,,,,,,,
,,1,185,,,,,,,2,3,1,stim/31.jpeg,HouseObjects,2,stim/objects/HouseObjects/spraybottle.png,0.7,3,-0.2,-0.15,right,3,2020-12-12_21h14.44.262,premup-three_ses-01_part-01_label-phase1,3.2.4,Linux x86_64,60,right,0.864999771,4,0,4,0,1,3,1,0,240,116,1,239,,,,,,,,,,,,,,,,,,
,,0,186,,,,,,,2,3,2,stim/32.jpeg,HouseObjects,2,stim/objects/HouseObjects/teapot.png,0.7,4,0.2,-0.15,right,3,2020-12-12_21h14.44.262,premup-three_ses-01_part-01_label-phase1,3.2.4,Linux x86_64,60,left,0.998999834,4,0,4,0,1,3,1,0,240,105,1,239,,,,,,,,,,,,,,,,,,
,,0,187,,,,,,,2,3,2,stim/32.jpeg,HouseObjects,2,stim/objects/HouseObjects/teapot.png,0.7,3,-0.2,-0.15,right,3,2020-12-12_21h14.44.262,premup-three_ses-01_part-01_label-phase1,3.2.4,Linux x86_64,60,left,1.346999884,4,0,4,0,1,3,1,0,240,113,1,239,,,,,,,,,,,,,,,,,,
,,1,188,,,,,,,1,2,1,stim/21.jpeg,HouseObjects,2,stim/objects/HouseObjects/safetypin.png,0.5,4,0.2,-0.15,right,3,2020-12-12_21h14.44.262,premup-three_ses-01_part-01_label-phase1,3.2.4,Linux x86_64,60,right,0.586999893,4,0,4,0,1,3,1,0,240,64,1,239,,,,,,,,,,,,,,,,,,
,,0,189,,,,,,,1,2,2,stim/22.jpeg,Instruments,1,stim/objects/Instruments/speaker.png,0.5,4,0.2,-0.15,left,3,2020-12-12_21h14.44.262,premup-three_ses-01_part-01_label-phase1,3.2.4,Linux x86_64,60,right,0.582999706,4,0,4,0,1,3,1,0,240,49,1,239,,,,,,,,,,,,,,,,,,
,,1,190,,,,,,,3,6,1,stim/61.jpeg,Instruments,1,stim/objects/Instruments/triangle2.png,0.9,3,-0.2,-0.15,left,3,2020-12-12_21h14.44.262,premup-three_ses-01_part-01_label-phase1,3.2.4,Linux x86_64,60,left,0.381999731,4,0,4,0,1,3,1,0,240,204,1,239,,,,,,,,,,,,,,,,,,
,,1,191,,,,,,,3,6,1,stim/61.jpeg,Instruments,1,stim/objects/Instruments/triangle2.png,0.9,4,0.2,-0.15,left,3,2020-12-12_21h14.44.262,premup-three_ses-01_part-01_label-phase1,3.2.4,Linux x86_64,60,left,0.54399991,4,0,4,0,1,3,1,0,240,228,1,239,,,,,,,,,,,,,,,,,,
,,1,192,,,,,,,3,6,4,stim/64.jpeg,Instruments,1,stim/objects/Instruments/tuba2.png,0.9,3,-0.2,-0.15,left,3,2020-12-12_21h14.44.262,premup-three_ses-01_part-01_label-phase1,3.2.4,Linux x86_64,60,left,0.66899991,4,0,4,0,1,3,1,0,240,231,1,239,,,,,,,,,,,,,,,,,,
,,1,193,,,,,,,1,2,2,stim/22.jpeg,Instruments,1,stim/objects/Instruments/speaker.png,0.5,1,-0.2,0.15,left,3,2020-12-12_21h14.44.262,premup-three_ses-01_part-01_label-phase1,3.2.4,Linux x86_64,60,left,0.477999687,4,0,4,0,1,3,1,0,240,57,1,239,,,,,,,,,,,,,,,,,,
,,0,194,,,,,,,2,3,4,stim/34.jpeg,HouseObjects,2,stim/objects/HouseObjects/thread.png,0.7,3,-0.2,-0.15,right,3,2020-12-12_21h14.44.262,premup-three_ses-01_part-01_label-phase1,3.2.4,Linux x86_64,60,left,0.348999977,4,0,4,0,1,3,1,0,240,103,1,239,,,,,,,,,,,,,,,,,,
,,0,195,,,,,,,2,4,1,stim/41.jpeg,HouseObjects,2,stim/objects/HouseObjects/recyclingbin2.png,0.3,4,0.2,-0.15,right,3,2020-12-12_21h14.44.262,premup-three_ses-01_part-01_label-phase1,3.2.4,Linux x86_64,60,left,0.712999821,4,0,4,0,1,3,1,0,240,148,1,239,,,,,,,,,,,,,,,,,,
,,1,196,,,,,,,2,4,4,stim/44.jpeg,Instruments,1,stim/objects/Instruments/record_player2.png,0.7,1,-0.2,0.15,left,3,2020-12-12_21h14.44.262,premup-three_ses-01_part-01_label-phase1,3.2.4,Linux x86_64,60,left,0.674000025,4,0,4,0,1,3,1,0,240,139,1,239,,,,,,,,,,,,,,,,,,
,,1,197,,,,,,,3,6,1,stim/61.jpeg,Instruments,1,stim/objects/Instruments/triangle2.png,0.9,2,0.2,0.15,left,3,2020-12-12_21h14.44.262,premup-three_ses-01_part-01_label-phase1,3.2.4,Linux x86_64,60,left,0.603999853,4,0,4,0,1,3,1,0,240,208,1,239,,,,,,,,,,,,,,,,,,
,,1,198,,,,,,,1,2,4,stim/24.jpeg,Instruments,1,stim/objects/Instruments/timbal.png,0.5,3,-0.2,-0.15,left,3,2020-12-12_21h14.44.262,premup-three_ses-01_part-01_label-phase1,3.2.4,Linux x86_64,60,left,0.50999999,4,0,4,0,1,3,1,0,240,47,1,239,,,,,,,,,,,,,,,,,,
,,1,199,,,,,,,3,6,3,stim/63.jpeg,Instruments,1,stim/objects/Instruments/trumpet2.png,0.9,3,-0.2,-0.15,left,3,2020-12-12_21h14.44.262,premup-three_ses-01_part-01_label-phase1,3.2.4,Linux x86_64,60,left,0.337999821,4,0,4,0,1,3,1,0,240,210,1,239,,,,,,,,,,,,,,,,,,
,,1,200,,,,,,,2,4,3,stim/43.jpeg,Instruments,1,stim/objects/Instruments/record2.png,0.7,2,0.2,0.15,left,3,2020-12-12_21h14.44.262,premup-three_ses-01_part-01_label-phase1,3.2.4,Linux x86_64,60,left,1.301999807,4,0,4,0,1,3,1,0,240,138,1,239,,,,,,,,,,,,,,,,,,
,,1,201,,,,,,,1,2,1,stim/21.jpeg,Instruments,1,stim/objects/Instruments/saxophone.png,0.5,2,0.2,0.15,left,3,2020-12-12_21h14.44.262,premup-three_ses-01_part-01_label-phase1,3.2.4,Linux x86_64,60,left,0.971999884,4,0,4,0,1,3,1,0,240,40,1,239,,,,,,,,,,,,,,,,,,
,,1,202,,,,,,,2,3,4,stim/34.jpeg,HouseObjects,2,stim/objects/HouseObjects/thread.png,0.7,3,-0.2,-0.15,right,3,2020-12-12_21h14.44.262,premup-three_ses-01_part-01_label-phase1,3.2.4,Linux x86_64,60,right,0.807999849,4,0,4,0,1,3,1,0,240,119,1,239,,,,,,,,,,,,,,,,,,
,,1,203,,,,,,,3,5,3,stim/53.jpeg,HouseObjects,2,stim/objects/HouseObjects/scale2.png,0.9,1,-0.2,0.15,right,3,2020-12-12_21h14.44.262,premup-three_ses-01_part-01_label-phase1,3.2.4,Linux x86_64,60,right,1.164999723,4,0,4,0,1,3,1,0,240,198,1,239,,,,,,,,,,,,,,,,,,
,,0,204,,,,,,,1,1,3,stim/13.jpeg,Instruments,1,stim/objects/Instruments/record.png,0.5,1,-0.2,0.15,left,3,2020-12-12_21h14.44.262,premup-three_ses-01_part-01_label-phase1,3.2.4,Linux x86_64,60,right,1.494999886,4,0,4,0,1,3,1,0,240,18,1,239,,,,,,,,,,,,,,,,,,
,,1,205,,,,,,,3,5,3,stim/53.jpeg,HouseObjects,2,stim/objects/HouseObjects/scale2.png,0.9,1,-0.2,0.15,right,3,2020-12-12_21h14.44.262,premup-three_ses-01_part-01_label-phase1,3.2.4,Linux x86_64,60,right,0.829999685,4,0,4,0,1,3,1,0,240,182,1,239,,,,,,,,,,,,,,,,,,
,,0,206,,,,,,,1,1,4,stim/14.jpeg,Instruments,1,stim/objects/Instruments/record_player.png,0.5,4,0.2,-0.15,left,3,2020-12-12_21h14.44.262,premup-three_ses-01_part-01_label-phase1,3.2.4,Linux x86_64,60,right,0.954999924,4,0,4,0,1,3,1,0,240,11,1,239,,,,,,,,,,,,,,,,,,
,,1,207,,,,,,,3,6,2,stim/62.jpeg,Instruments,1,stim/objects/Instruments/trombone2.png,0.9,1,-0.2,0.15,left,3,2020-12-12_21h14.44.262,premup-three_ses-01_part-01_label-phase1,3.2.4,Linux x86_64,60,left,0.650999784,4,0,4,0,1,3,1,0,240,205,1,239,,,,,,,,,,,,,,,,,,
,,0,208,,,,,,,3,5,3,stim/53.jpeg,HouseObjects,2,stim/objects/HouseObjects/scale2.png,0.9,1,-0.2,0.15,right,3,2020-12-12_21h14.44.262,premup-three_ses-01_part-01_label-phase1,3.2.4,Linux x86_64,60,left,0.487999916,4,0,4,0,1,3,1,0,240,194,1,239,,,,,,,,,,,,,,,,,,
,,1,209,,,,,,,1,1,2,stim/12.jpeg,Instruments,1,stim/objects/Instruments/pipepiano.png,0.5,3,-0.2,-0.15,left,3,2020-12-12_21h14.44.262,premup-three_ses-01_part-01_label-phase1,3.2.4,Linux x86_64,60,left,0.3349998,4,0,4,0,1,3,1,0,240,9,1,239,,,,,,,,,,,,,,,,,,
,,0,210,,,,,,,1,1,2,stim/12.jpeg,HouseObjects,2,stim/objects/HouseObjects/remote.png,0.5,2,0.2,0.15,right,3,2020-12-12_21h14.44.262,premup-three_ses-01_part-01_label-phase1,3.2.4,Linux x86_64,60,left,0.824999809,4,0,4,0,1,3,1,0,240,21,1,239,,,,,,,,,,,,,,,,,,
,,0,211,,,,,,,2,3,1,stim/31.jpeg,HouseObjects,2,stim/objects/HouseObjects/spraybottle.png,0.7,4,0.2,-0.15,right,3,2020-12-12_21h14.44.262,premup-three_ses-01_part-01_label-phase1,3.2.4,Linux x86_64,60,left,0.704999924,4,0,4,0,1,3,1,0,240,100,1,239,,,,,,,,,,,,,,,,,,
,,1,212,,,,,,,1,1,1,stim/11.jpeg,Instruments,1,stim/objects/Instruments/panflute.png,0.5,1,-0.2,0.15,left,3,2020-12-12_21h14.44.262,premup-three_ses-01_part-01_label-phase1,3.2.4,Linux x86_64,60,left,0.589999914,4,0,4,0,1,3,1,0,240,12,1,239,,,,,,,,,,,,,,,,,,
,,1,213,,,,,,,1,2,4,stim/24.jpeg,Instruments,1,stim/objects/Instruments/timbal.png,0.5,4,0.2,-0.15,left,3,2020-12-12_21h14.44.262,premup-three_ses-01_part-01_label-phase1,3.2.4,Linux x86_64,60,left,0.487999916,4,0,4,0,1,3,1,0,240,51,1,239,,,,,,,,,,,,,,,,,,
,,0,214,,,,,,,2,4,1,stim/41.jpeg,Instruments,1,stim/objects/Instruments/panflute2.png,0.7,1,-0.2,0.15,left,3,2020-12-12_21h14.44.262,premup-three_ses-01_part-01_label-phase1,3.2.4,Linux x86_64,60,right,0.886999846,4,0,4,0,1,3,1,0,240,124,1,239,,,,,,,,,,,,,,,,,,
,,0,215,,,,,,,3,5,4,stim/54.jpeg,HouseObjects,2,stim/objects/HouseObjects/sponge2.png,0.9,3,-0.2,-0.15,right,3,2020-12-12_21h14.44.262,premup-three_ses-01_part-01_label-phase1,3.2.4,Linux x86_64,60,left,0.409999847,4,0,4,0,1,3,1,0,240,179,1,239,,,,,,,,,,,,,,,,,,
,,0,216,,,,,,,1,2,3,stim/23.jpeg,HouseObjects,2,stim/objects/HouseObjects/scale.png,0.5,1,-0.2,0.15,right,3,2020-12-12_21h14.44.262,premup-three_ses-01_part-01_label-phase1,3.2.4,Linux x86_64,60,left,0.747999907,4,0,4,0,1,3,1,0,240,78,1,239,,,,,,,,,,,,,,,,,,
,,0,217,,,,,,,2,3,3,stim/33.jpeg,HouseObjects,2,stim/objects/HouseObjects/thermometer.png,0.7,4,0.2,-0.15,right,3,2020-12-12_21h14.44.262,premup-three_ses-01_part-01_label-phase1,3.2.4,Linux x86_64,60,left,0.788999796,4,0,4,0,1,3,1,0,240,114,1,239,,,,,,,,,,,,,,,,,,
,,0,218,,,,,,,1,2,2,stim/22.jpeg,HouseObjects,2,stim/objects/HouseObjects/saw.png,0.5,3,-0.2,-0.15,right,3,2020-12-12_21h14.44.262,premup-three_ses-01_part-01_label-phase1,3.2.4,Linux x86_64,60,left,1.440999746,4,0,4,0,1,3,1,0,240,77,1,239,,,,,,,,,,,,,,,,,,
,,0,219,,,,,,,2,3,3,stim/33.jpeg,Instruments,1,stim/objects/Instruments/trumpet.png,0.3,3,-0.2,-0.15,left,3,2020-12-12_21h14.44.262,premup-three_ses-01_part-01_label-phase1,3.2.4,Linux x86_64,60,right,0.738999844,4,0,4,0,1,3,1,0,240,82,1,239,,,,,,,,,,,,,,,,,,
,,1,220,,,,,,,1,2,4,stim/24.jpeg,HouseObjects,2,stim/objects/HouseObjects/sponge.png,0.5,2,0.2,0.15,right,3,2020-12-12_21h14.44.262,premup-three_ses-01_part-01_label-phase1,3.2.4,Linux x86_64,60,right,0.865999699,4,0,4,0,1,3,1,0,240,67,1,239,,,,,,,,,,,,,,,,,,
,,1,221,,,,,,,2,3,2,stim/32.jpeg,HouseObjects,2,stim/objects/HouseObjects/teapot.png,0.7,1,-0.2,0.15,right,3,2020-12-12_21h14.44.262,premup-three_ses-01_part-01_label-phase1,3.2.4,Linux x86_64,60,right,0.68599987,4,0,4,0,1,3,1,0,240,93,1,239,,,,,,,,,,,,,,,,,,
,,1,222,,,,,,,3,5,4,stim/54.jpeg,HouseObjects,2,stim/objects/HouseObjects/sponge2.png,0.9,4,0.2,-0.15,right,3,2020-12-12_21h14.44.262,premup-three_ses-01_part-01_label-phase1,3.2.4,Linux x86_64,60,right,0.877999783,4,0,4,0,1,3,1,0,240,171,1,239,,,,,,,,,,,,,,,,,,
,,1,223,,,,,,,3,6,3,stim/63.jpeg,Instruments,1,stim/objects/Instruments/trumpet2.png,0.9,3,-0.2,-0.15,left,3,2020-12-12_21h14.44.262,premup-three_ses-01_part-01_label-phase1,3.2.4,Linux x86_64,60,left,0.664000034,4,0,4,0,1,3,1,0,240,206,1,239,,,,,,,,,,,,,,,,,,
,,1,224,,,,,,,1,1,3,stim/13.jpeg,HouseObjects,2,stim/objects/HouseObjects/rubbergloves.png,0.5,1,-0.2,0.15,right,3,2020-12-12_21h14.44.262,premup-three_ses-01_part-01_label-phase1,3.2.4,Linux x86_64,60,right,0.819999933,4,0,4,0,1,3,1,0,240,22,1,239,,,,,,,,,,,,,,,,,,
,,0,225,,,,,,,2,4,3,stim/43.jpeg,HouseObjects,2,stim/objects/HouseObjects/rubbergloves2.png,0.3,4,0.2,-0.15,right,3,2020-12-12_21h14.44.262,premup-three_ses-01_part-01_label-phase1,3.2.4,Linux x86_64,60,left,1.67599988,4,0,4,0,1,3,1,0,240,158,1,239,,,,,,,,,,,,,,,,,,
,,0,226,,,,,,,3,6,3,stim/63.jpeg,HouseObjects,2,stim/objects/HouseObjects/thermometer2.png,0.1,4,0.2,-0.15,right,3,2020-12-12_21h14.44.262,premup-three_ses-01_part-01_label-phase1,3.2.4,Linux x86_64,60,left,0.627999783,4,0,4,0,1,3,1,0,240,238,1,239,,,,,,,,,,,,,,,,,,
,,1,227,,,,,,,1,2,4,stim/24.jpeg,HouseObjects,2,stim/objects/HouseObjects/sponge.png,0.5,1,-0.2,0.15,right,3,2020-12-12_21h14.44.262,premup-three_ses-01_part-01_label-phase1,3.2.4,Linux x86_64,60,right,0.965999842,4,0,4,0,1,3,1,0,240,75,1,239,,,,,,,,,,,,,,,,,,
,,1,228,,,,,,,2,3,3,stim/33.jpeg,HouseObjects,2,stim/objects/HouseObjects/thermometer.png,0.7,1,-0.2,0.15,right,3,2020-12-12_21h14.44.262,premup-three_ses-01_part-01_label-phase1,3.2.4,Linux x86_64,60,right,1.339999914,4,0,4,0,1,3,1,0,240,106,1,239,,,,,,,,,,,,,,,,,,
,,0,229,,,,,,,1,1,2,stim/12.jpeg,Instruments,1,stim/objects/Instruments/pipepiano.png,0.5,4,0.2,-0.15,left,3,2020-12-12_21h14.44.262,premup-three_ses-01_part-01_label-phase1,3.2.4,Linux x86_64,60,right,0.939999819,4,0,4,0,1,3,1,0,240,1,1,239,,,,,,,,,,,,,,,,,,
,,1,230,,,,,,,2,4,2,stim/42.jpeg,HouseObjects,2,stim/objects/HouseObjects/remote2.png,0.3,3,-0.2,-0.15,right,3,2020-12-12_21h14.44.262,premup-three_ses-01_part-01_label-phase1,3.2.4,Linux x86_64,60,right,1.406999826,4,0,4,0,1,3,1,0,240,149,1,239,,,,,,,,,,,,,,,,,,
,,0,231,,,,,,,1,1,2,stim/12.jpeg,HouseObjects,2,stim/objects/HouseObjects/remote.png,0.5,3,-0.2,-0.15,right,3,2020-12-12_21h14.44.262,premup-three_ses-01_part-01_label-phase1,3.2.4,Linux x86_64,60,left,1.096999884,4,0,4,0,1,3,1,0,240,37,1,239,,,,,,,,,,,,,,,,,,
,,1,232,,,,,,,2,3,3,stim/33.jpeg,HouseObjects,2,stim/objects/HouseObjects/thermometer.png,0.7,4,0.2,-0.15,right,3,2020-12-12_21h14.44.262,premup-three_ses-01_part-01_label-phase1,3.2.4,Linux x86_64,60,right,0.712999821,4,0,4,0,1,3,1,0,240,102,1,239,,,,,,,,,,,,,,,,,,
,,1,233,,,,,,,2,4,4,stim/44.jpeg,Instruments,1,stim/objects/Instruments/record_player2.png,0.7,3,-0.2,-0.15,left,3,2020-12-12_21h14.44.262,premup-three_ses-01_part-01_label-phase1,3.2.4,Linux x86_64,60,left,0.731999874,4,0,4,0,1,3,1,0,240,123,1,239,,,,,,,,,,,,,,,,,,
,,1,234,,,,,,,2,3,1,stim/31.jpeg,Instruments,1,stim/objects/Instruments/triangle.png,0.3,2,0.2,0.15,left,3,2020-12-12_21h14.44.262,premup-three_ses-01_part-01_label-phase1,3.2.4,Linux x86_64,60,left,0.649999857,4,0,4,0,1,3,1,0,240,84,1,239,,,,,,,,,,,,,,,,,,
,,0,235,,,,,,,1,2,2,stim/22.jpeg,Instruments,1,stim/objects/Instruments/speaker.png,0.5,4,0.2,-0.15,left,3,2020-12-12_21h14.44.262,premup-three_ses-01_part-01_label-phase1,3.2.4,Linux x86_64,60,right,0.734999895,4,0,4,0,1,3,1,0,240,41,1,239,,,,,,,,,,,,,,,,,,
,,0,236,,,,,,,2,4,4,stim/44.jpeg,HouseObjects,2,stim/objects/HouseObjects/rug2.png,0.3,1,-0.2,0.15,right,3,2020-12-12_21h14.44.262,premup-three_ses-01_part-01_label-phase1,3.2.4,Linux x86_64,60,left,0.937999725,4,0,4,0,1,3,1,0,240,159,1,239,,,,,,,,,,,,,,,,,,
,,1,237,,,,,,,2,4,1,stim/41.jpeg,HouseObjects,2,stim/objects/HouseObjects/recyclingbin2.png,0.3,4,0.2,-0.15,right,3,2020-12-12_21h14.44.262,premup-three_ses-01_part-01_label-phase1,3.2.4,Linux x86_64,60,right,0.81799984,4,0,4,0,1,3,1,0,240,156,1,239,,,,,,,,,,,,,,,,,,
,,1,238,,,,,,,1,1,1,stim/11.jpeg,HouseObjects,2,stim/objects/HouseObjects/recyclingbin.png,0.5,2,0.2,0.15,right,3,2020-12-12_21h14.44.262,premup-three_ses-01_part-01_label-phase1,3.2.4,Linux x86_64,60,right,0.880999804,4,0,4,0,1,3,1,0,240,28,1,239,,,,,,,,,,,,,,,,,,
,,0,239,,,,,,,2,4,4,stim/44.jpeg,Instruments,1,stim/objects/Instruments/record_player2.png,0.7,2,0.2,0.15,left,3,2020-12-12_21h14.44.262,premup-three_ses-01_part-01_label-phase1,3.2.4,Linux x86_64,60,right,0.969000101,4,0,4,0,1,3,1,0,240,147,1,239,,,,,,,,,,,,,,,,,,
,,0,240,,,,,,,1,1,2,stim/12.jpeg,Instruments,1,stim/objects/Instruments/pipepiano.png,0.5,4,0.2,-0.15,left,3,2020-12-12_21h14.44.262,premup-three_ses-01_part-01_label-phase1,3.2.4,Linux x86_64,60,right,0.73300004,4,0,4,0,1,3,1,0,240,17,1,239,,,,,,,,,,,,,,,,,,
,,,,,,,,,,,1,,stim/11.jpeg,,,,,,,,,3,2020-12-12_21h14.44.262,premup-three_ses-01_part-01_label-phase1,3.2.4,Linux x86_64,60,,,4,0,4,0,1,3,,,,,,,1,0,31,8.16899991,,,1,0,6,0,1,5,Music items,45,55,Household items,45,55
,,,,,,,,,,,5,,stim/51.jpeg,,,,,,,,,3,2020-12-12_21h14.44.262,premup-three_ses-01_part-01_label-phase1,3.2.4,Linux x86_64,60,,,4,0,4,0,1,3,,,,,,,1,0,,,36,11.87599993,1,0,6,4,1,5,Household items,5,15,Music items,85,95
,,,,,,,,,,,3,,stim/31.jpeg,,,,,,,,,3,2020-12-12_21h14.44.262,premup-three_ses-01_part-01_label-phase1,3.2.4,Linux x86_64,60,,,4,0,4,0,1,3,,,,,,,1,0,,,78,22.63700008,1,0,6,2,1,5,Music items,65,75,Household items,25,35
,,,,,,,,,,,6,,stim/61.jpeg,,,,,,,,,3,2020-12-12_21h14.44.262,premup-three_ses-01_part-01_label-phase1,3.2.4,Linux x86_64,60,,,4,0,4,0,1,3,,,,,,,1,0,90,6.588000059,,,1,0,6,5,1,5,Music items,5,15,Household items,85,95
,,,,,,,,,,,4,,stim/41.jpeg,,,,,,,,,3,2020-12-12_21h14.44.262,premup-three_ses-01_part-01_label-phase1,3.2.4,Linux x86_64,60,,,4,0,4,0,1,3,,,,,,,1,0,53,30.4139998,,,1,0,6,3,1,5,Music items,65,75,Household items,25,35
,,,,,,,,,,,2,,stim/21.jpeg,,,,,,,,,3,2020-12-12_21h14.44.262,premup-three_ses-01_part-01_label-phase1,3.2.4,Linux x86_64,60,,,4,0,4,0,1,3,,,,,,,1,0,79,10.44299984,,,1,0,6,1,1,5,Household items,45,55,Music items,45,55
,,,,,,,,,,,,,,,,,,,,,,3,2020-12-12_21h14.44.262,premup-three_ses-01_part-01_label-phase1,3.2.4,Linux x86_64,60,,,4,0,4,0,1,3,,,,,,,,,,,,,,,,,,,,,,,,
,,0,1,,,,,,,1,2,2,stim/22.jpeg,Instruments,1,stim/objects/Instruments/speaker.png,0.5,4,0.2,-0.15,left,3,2020-12-12_21h14.44.262,premup-three_ses-01_part-01_label-phase1,3.2.4,Linux x86_64,60,,,4,0,4,0,1,3,1,0,240,49,1,239,,,,,,,,,,,,,,,,,,
,,1,2,,,,,,,3,6,4,stim/64.jpeg,Instruments,1,stim/objects/Instruments/tuba2.png,0.9,3,-0.2,-0.15,left,3,2020-12-12_21h14.44.262,premup-three_ses-01_part-01_label-phase1,3.2.4,Linux x86_64,60,left,0.71999979,4,0,4,0,1,3,1,0,240,231,1,239,,,,,,,,,,,,,,,,,,
,,1,3,,,,,,,1,1,3,stim/13.jpeg,HouseObjects,2,stim/objects/HouseObjects/rubbergloves.png,0.5,2,0.2,0.15,right,3,2020-12-12_21h14.44.262,premup-three_ses-01_part-01_label-phase1,3.2.4,Linux x86_64,60,right,0.819999933,4,0,4,0,1,3,1,0,240,38,1,239,,,,,,,,,,,,,,,,,,
,,0,4,,,,,,,2,4,1,stim/41.jpeg,Instruments,1,stim/objects/Instruments/panflute2.png,0.7,1,-0.2,0.15,left,3,2020-12-12_21h14.44.262,premup-three_ses-01_part-01_label-phase1,3.2.4,Linux x86_64,60,right,0.881999969,4,0,4,0,1,3,1,0,240,144,1,239,,,,,,,,,,,,,,,,,,
,,0,5,,,,,,,3,5,3,stim/53.jpeg,Instruments,1,stim/objects/Instruments/tambourine2.png,0.1,4,0.2,-0.15,left,3,2020-12-12_21h14.44.262,premup-three_ses-01_part-01_label-phase1,3.2.4,Linux x86_64,60,right,0.780999899,4,0,4,0,1,3,1,0,240,162,1,239,,,,,,,,,,,,,,,,,,
,,1,6,,,,,,,2,3,3,stim/33.jpeg,HouseObjects,2,stim/objects/HouseObjects/thermometer.png,0.7,1,-0.2,0.15,right,3,2020-12-12_21h14.44.262,premup-three_ses-01_part-01_label-phase1,3.2.4,Linux x86_64,60,right,0.562999964,4,0,4,0,1,3,1,0,240,98,1,239,,,,,,,,,,,,,,,,,,
,,1,7,,,,,,,2,4,3,stim/43.jpeg,Instruments,1,stim/objects/Instruments/record2.png,0.7,1,-0.2,0.15,left,3,2020-12-12_21h14.44.262,premup-three_ses-01_part-01_label-phase1,3.2.4,Linux x86_64,60,left,0.92599988,4,0,4,0,1,3,1,0,240,134,1,239,,,,,,,,,,,,,,,,,,
,,0,8,,,,,,,1,2,1,stim/21.jpeg,Instruments,1,stim/objects/Instruments/saxophone.png,0.5,3,-0.2,-0.15,left,3,2020-12-12_21h14.44.262,premup-three_ses-01_part-01_label-phase1,3.2.4,Linux x86_64,60,right,0.879999876,4,0,4,0,1,3,1,0,240,44,1,239,,,,,,,,,,,,,,,,,,
,,1,9,,,,,,,3,5,2,stim/52.jpeg,HouseObjects,2,stim/objects/HouseObjects/saw2.png,0.9,2,0.2,0.15,right,3,2020-12-12_21h14.44.262,premup-three_ses-01_part-01_label-phase1,3.2.4,Linux x86_64,60,right,0.90199995,4,0,4,0,1,3,1,0,240,165,1,239,,,,,,,,,,,,,,,,,,
,,1,10,,,,,,,2,3,2,stim/32.jpeg,HouseObjects,2,stim/objects/HouseObjects/teapot.png,0.7,1,-0.2,0.15,right,3,2020-12-12_21h14.44.262,premup-three_ses-01_part-01_label-phase1,3.2.4,Linux x86_64,60,right,0.994999886,4,0,4,0,1,3,1,0,240,109,1,239,,,,,,,,,,,,,,,,,,
,,0,11,,,,,,,1,2,3,stim/23.jpeg,HouseObjects,2,stim/objects/HouseObjects/scale.png,0.5,2,0.2,0.15,right,3,2020-12-12_21h14.44.262,premup-three_ses-01_part-01_label-phase1,3.2.4,Linux x86_64,60,left,1.032999992,4,0,4,0,1,3,1,0,240,74,1,239,,,,,,,,,,,,,,,,,,
,,1,12,,,,,,,1,2,1,stim/21.jpeg,Instruments,1,stim/objects/Instruments/saxophone.png,0.5,4,0.2,-0.15,left,3,2020-12-12_21h14.44.262,premup-three_ses-01_part-01_label-phase1,3.2.4,Linux x86_64,60,left,1.268999815,4,0,4,0,1,3,1,0,240,52,1,239,,,,,,,,,,,,,,,,,,
,,1,13,,,,,,,3,6,3,stim/63.jpeg,Instruments,1,stim/objects/Instruments/trumpet2.png,0.9,4,0.2,-0.15,left,3,2020-12-12_21h14.44.262,premup-three_ses-01_part-01_label-phase1,3.2.4,Linux x86_64,60,left,0.665999651,4,0,4,0,1,3,1,0,240,202,1,239,,,,,,,,,,,,,,,,,,
,,0,14,,,,,,,1,1,3,stim/13.jpeg,Instruments,1,stim/objects/Instruments/record.png,0.5,3,-0.2,-0.15,left,3,2020-12-12_21h14.44.262,premup-three_ses-01_part-01_label-phase1,3.2.4,Linux x86_64,60,right,1.041999817,4,0,4,0,1,3,1,0,240,2,1,239,,,,,,,,,,,,,,,,,,
,,0,15,,,,,,,1,2,3,stim/23.jpeg,Instruments,1,stim/objects/Instruments/tambourine.png,0.5,1,-0.2,0.15,left,3,2020-12-12_21h14.44.262,premup-three_ses-01_part-01_label-phase1,3.2.4,Linux x86_64,60,right,0.975999832,4,0,4,0,1,3,1,0,240,58,1,239,,,,,,,,,,,,,,,,,,
,,1,16,,,,,,,3,6,4,stim/64.jpeg,Instruments,1,stim/objects/Instruments/tuba2.png,0.9,1,-0.2,0.15,left,3,2020-12-12_21h14.44.262,premup-three_ses-01_part-01_label-phase1,3.2.4,Linux x86_64,60,left,0.687999964,4,0,4,0,1,3,1,0,240,235,1,239,,,,,,,,,,,,,,,,,,
,,0,17,,,,,,,2,3,4,stim/34.jpeg,Instruments,1,stim/objects/Instruments/tuba.png,0.3,2,0.2,0.15,left,3,2020-12-12_21h14.44.262,premup-three_ses-01_part-01_label-phase1,3.2.4,Linux x86_64,60,right,0.871999979,4,0,4,0,1,3,1,0,240,87,1,239,,,,,,,,,,,,,,,,,,
,,0,18,,,,,,,1,2,1,stim/21.jpeg,Instruments,1,stim/objects/Instruments/saxophone.png,0.5,2,0.2,0.15,left,3,2020-12-12_21h14.44.262,premup-three_ses-01_part-01_label-phase1,3.2.4,Linux x86_64,60,right,1.645999908,4,0,4,0,1,3,1,0,240,40,1,239,,,,,,,,,,,,,,,,,,
,,1,19,,,,,,,3,6,2,stim/62.jpeg,Instruments,1,stim/objects/Instruments/trombone2.png,0.9,1,-0.2,0.15,left,3,2020-12-12_21h14.44.262,premup-three_ses-01_part-01_label-phase1,3.2.4,Linux x86_64,60,left,0.694999933,4,0,4,0,1,3,1,0,240,217,1,239,,,,,,,,,,,,,,,,,,
,,0,20,,,,,,,2,3,1,stim/31.jpeg,HouseObjects,2,stim/objects/HouseObjects/spraybottle.png,0.7,4,0.2,-0.15,right,3,2020-12-12_21h14.44.262,premup-three_ses-01_part-01_label-phase1,3.2.4,Linux x86_64,60,,,4,0,4,0,1,3,1,0,240,100,1,239,,,,,,,,,,,,,,,,,,
,,1,21,,,,,,,2,3,2,stim/32.jpeg,HouseObjects,2,stim/objects/HouseObjects/teapot.png,0.7,4,0.2,-0.15,right,3,2020-12-12_21h14.44.262,premup-three_ses-01_part-01_label-phase1,3.2.4,Linux x86_64,60,right,0.5849998,4,0,4,0,1,3,1,0,240,105,1,239,,,,,,,,,,,,,,,,,,
,,0,22,,,,,,,2,3,4,stim/34.jpeg,Instruments,1,stim/objects/Instruments/tuba.png,0.3,3,-0.2,-0.15,left,3,2020-12-12_21h14.44.262,premup-three_ses-01_part-01_label-phase1,3.2.4,Linux x86_64,60,right,0.45600009,4,0,4,0,1,3,1,0,240,83,1,239,,,,,,,,,,,,,,,,,,
,,1,23,,,,,,,3,6,3,stim/63.jpeg,Instruments,1,stim/objects/Instruments/trumpet2.png,0.9,1,-0.2,0.15,left,3,2020-12-12_21h14.44.262,premup-three_ses-01_part-01_label-phase1,3.2.4,Linux x86_64,60,left,0.412999868,4,0,4,0,1,3,1,0,240,222,1,239,,,,,,,,,,,,,,,,,,
,,0,24,,,,,,,2,4,1,stim/41.jpeg,HouseObjects,2,stim/objects/HouseObjects/recyclingbin2.png,0.3,4,0.2,-0.15,right,3,2020-12-12_21h14.44.262,premup-three_ses-01_part-01_label-phase1,3.2.4,Linux x86_64,60,left,0.66899991,4,0,4,0,1,3,1,0,240,156,1,239,,,,,,,,,,,,,,,,,,
,,1,25,,,,,,,1,2,4,stim/24.jpeg,HouseObjects,2,stim/objects/HouseObjects/sponge.png,0.5,2,0.2,0.15,right,3,2020-12-12_21h14.44.262,premup-three_ses-01_part-01_label-phase1,3.2.4,Linux x86_64,60,right,0.343999863,4,0,4,0,1,3,1,0,240,63,1,239,,,,,,,,,,,,,,,,,,
,,1,26,,,,,,,1,1,3,stim/13.jpeg,Instruments,1,stim/objects/Instruments/record.png,0.5,3,-0.2,-0.15,left,3,2020-12-12_21h14.44.262,premup-three_ses-01_part-01_label-phase1,3.2.4,Linux x86_64,60,left,0.680999756,4,0,4,0,1,3,1,0,240,10,1,239,,,,,,,,,,,,,,,,,,
,,1,27,,,,,,,1,1,1,stim/11.jpeg,Instruments,1,stim/objects/Instruments/panflute.png,0.5,1,-0.2,0.15,left,3,2020-12-12_21h14.44.262,premup-three_ses-01_part-01_label-phase1,3.2.4,Linux x86_64,60,left,0.565999985,4,0,4,0,1,3,1,0,240,4,1,239,,,,,,,,,,,,,,,,,,
,,0,28,,,,,,,2,3,3,stim/33.jpeg,Instruments,1,stim/objects/Instruments/trumpet.png,0.3,4,0.2,-0.15,left,3,2020-12-12_21h14.44.262,premup-three_ses-01_part-01_label-phase1,3.2.4,Linux x86_64,60,right,0.523000002,4,0,4,0,1,3,1,0,240,90,1,239,,,,,,,,,,,,,,,,,,
,,0,29,,,,,,,1,1,3,stim/13.jpeg,HouseObjects,2,stim/objects/HouseObjects/rubbergloves.png,0.5,1,-0.2,0.15,right,3,2020-12-12_21h14.44.262,premup-three_ses-01_part-01_label-phase1,3.2.4,Linux x86_64,60,left,0.330999851,4,0,4,0,1,3,1,0,240,22,1,239,,,,,,,,,,,,,,,,,,
,,1,30,,,,,,,3,5,4,stim/54.jpeg,HouseObjects,2,stim/objects/HouseObjects/sponge2.png,0.9,2,0.2,0.15,right,3,2020-12-12_21h14.44.262,premup-three_ses-01_part-01_label-phase1,3.2.4,Linux x86_64,60,right,0.345999956,4,0,4,0,1,3,1,0,240,195,1,239,,,,,,,,,,,,,,,,,,
,,1,31,,,,,,,3,6,3,stim/63.jpeg,Instruments,1,stim/objects/Instruments/trumpet2.png,0.9,3,-0.2,-0.15,left,3,2020-12-12_21h14.44.262,premup-three_ses-01_part-01_label-phase1,3.2.4,Linux x86_64,60,left,0.643999815,4,0,4,0,1,3,1,0,240,230,1,239,,,,,,,,,,,,,,,,,,
,,0,32,,,,,,,1,2,3,stim/23.jpeg,Instruments,1,stim/objects/Instruments/tambourine.png,0.5,4,0.2,-0.15,left,3,2020-12-12_21h14.44.262,premup-three_ses-01_part-01_label-phase1,3.2.4,Linux x86_64,60,right,1.263999701,4,0,4,0,1,3,1,0,240,46,1,239,,,,,,,,,,,,,,,,,,
,,1,33,,,,,,,3,6,1,stim/61.jpeg,Instruments,1,stim/objects/Instruments/triangle2.png,0.9,2,0.2,0.15,left,3,2020-12-12_21h14.44.262,premup-three_ses-01_part-01_label-phase1,3.2.4,Linux x86_64,60,left,0.631999969,4,0,4,0,1,3,1,0,240,216,1,239,,,,,,,,,,,,,,,,,,
,,1,34,,,,,,,2,4,4,stim/44.jpeg,HouseObjects,2,stim/objects/HouseObjects/rug2.png,0.3,1,-0.2,0.15,right,3,2020-12-12_21h14.44.262,premup-three_ses-01_part-01_label-phase1,3.2.4,Linux x86_64,60,right,1.642999887,4,0,4,0,1,3,1,0,240,159,1,239,,,,,,,,,,,,,,,,,,
,,0,35,,,,,,,1,2,1,stim/21.jpeg,HouseObjects,2,stim/objects/HouseObjects/safetypin.png,0.5,4,0.2,-0.15,right,3,2020-12-12_21h14.44.262,premup-three_ses-01_part-01_label-phase1,3.2.4,Linux x86_64,60,left,0.54399991,4,0,4,0,1,3,1,0,240,64,1,239,,,,,,,,,,,,,,,,,,
,,0,36,,,,,,,3,5,2,stim/52.jpeg,HouseObjects,2,stim/objects/HouseObjects/saw2.png,0.9,3,-0.2,-0.15,right,3,2020-12-12_21h14.44.262,premup-three_ses-01_part-01_label-phase1,3.2.4,Linux x86_64,60,left,0.69299984,4,0,4,0,1,3,1,0,240,189,1,239,,,,,,,,,,,,,,,,,,
,,0,37,,,,,,,2,4,2,stim/42.jpeg,Instruments,1,stim/objects/Instruments/pipepiano2.png,0.7,1,-0.2,0.15,left,3,2020-12-12_21h14.44.262,premup-three_ses-01_part-01_label-phase1,3.2.4,Linux x86_64,60,right,1.177999973,4,0,4,0,1,3,1,0,240,133,1,239,,,,,,,,,,,,,,,,,,
,,0,38,,,,,,,2,3,1,stim/31.jpeg,HouseObjects,2,stim/objects/HouseObjects/spraybottle.png,0.7,3,-0.2,-0.15,right,3,2020-12-12_21h14.44.262,premup-three_ses-01_part-01_label-phase1,3.2.4,Linux x86_64,60,left,0.795999765,4,0,4,0,1,3,1,0,240,92,1,239,,,,,,,,,,,,,,,,,,
,,1,39,,,,,,,3,6,3,stim/63.jpeg,Instruments,1,stim/objects/Instruments/trumpet2.png,0.9,2,0.2,0.15,left,3,2020-12-12_21h14.44.262,premup-three_ses-01_part-01_label-phase1,3.2.4,Linux x86_64,60,left,0.785999775,4,0,4,0,1,3,1,0,240,226,1,239,,,,,,,,,,,,,,,,,,
,,0,40,,,,,,,2,3,4,stim/34.jpeg,HouseObjects,2,stim/objects/HouseObjects/thread.png,0.7,4,0.2,-0.15,right,3,2020-12-12_21h14.44.262,premup-three_ses-01_part-01_label-phase1,3.2.4,Linux x86_64,60,left,0.624000072,4,0,4,0,1,3,1,0,240,115,1,239,,,,,,,,,,,,,,,,,,
,,0,41,,,,,,,1,2,1,stim/21.jpeg,Instruments,1,stim/objects/Instruments/saxophone.png,0.5,3,-0.2,-0.15,left,3,2020-12-12_21h14.44.262,premup-three_ses-01_part-01_label-phase1,3.2.4,Linux x86_64,60,right,1.398999929,4,0,4,0,1,3,1,0,240,48,1,239,,,,,,,,,,,,,,,,,,
,,1,42,,,,,,,1,1,3,stim/13.jpeg,HouseObjects,2,stim/objects/HouseObjects/rubbergloves.png,0.5,4,0.2,-0.15,right,3,2020-12-12_21h14.44.262,premup-three_ses-01_part-01_label-phase1,3.2.4,Linux x86_64,60,right,1.099999905,4,0,4,0,1,3,1,0,240,26,1,239,,,,,,,,,,,,,,,,,,
,,0,43,,,,,,,1,1,1,stim/11.jpeg,Instruments,1,stim/objects/Instruments/panflute.png,0.5,4,0.2,-0.15,left,3,2020-12-12_21h14.44.262,premup-three_ses-01_part-01_label-phase1,3.2.4,Linux x86_64,60,right,0.915999889,4,0,4,0,1,3,1,0,240,0,1,239,,,,,,,,,,,,,,,,,,
,,0,44,,,,,,,2,3,1,stim/31.jpeg,Instruments,1,stim/objects/Instruments/triangle.png,0.3,3,-0.2,-0.15,left,3,2020-12-12_21h14.44.262,premup-three_ses-01_part-01_label-phase1,3.2.4,Linux x86_64,60,right,0.742999792,4,0,4,0,1,3,1,0,240,88,1,239,,,,,,,,,,,,,,,,,,
,,1,45,,,,,,,2,3,4,stim/34.jpeg,HouseObjects,2,stim/objects/HouseObjects/thread.png,0.7,4,0.2,-0.15,right,3,2020-12-12_21h14.44.262,premup-three_ses-01_part-01_label-phase1,3.2.4,Linux x86_64,60,right,0.663999796,4,0,4,0,1,3,1,0,240,95,1,239,,,,,,,,,,,,,,,,,,
,,1,46,,,,,,,1,2,2,stim/22.jpeg,Instruments,1,stim/objects/Instruments/speaker.png,0.5,1,-0.2,0.15,left,3,2020-12-12_21h14.44.262,premup-three_ses-01_part-01_label-phase1,3.2.4,Linux x86_64,60,left,1.039000034,4,0,4,0,1,3,1,0,240,57,1,239,,,,,,,,,,,,,,,,,,
,,1,47,,,,,,,2,3,4,stim/34.jpeg,HouseObjects,2,stim/objects/HouseObjects/thread.png,0.7,2,0.2,0.15,right,3,2020-12-12_21h14.44.262,premup-three_ses-01_part-01_label-phase1,3.2.4,Linux x86_64,60,right,1.154000044,4,0,4,0,1,3,1,0,240,107,1,239,,,,,,,,,,,,,,,,,,
,,0,48,,,,,,,2,4,1,stim/41.jpeg,HouseObjects,2,stim/objects/HouseObjects/recyclingbin2.png,0.3,3,-0.2,-0.15,right,3,2020-12-12_21h14.44.262,premup-three_ses-01_part-01_label-phase1,3.2.4,Linux x86_64,60,left,1.566999912,4,0,4,0,1,3,1,0,240,152,1,239,,,,,,,,,,,,,,,,,,
,,0,49,,,,,,,2,4,3,stim/43.jpeg,Instruments,1,stim/objects/Instruments/record2.png,0.7,1,-0.2,0.15,left,3,2020-12-12_21h14.44.262,premup-three_ses-01_part-01_label-phase1,3.2.4,Linux x86_64,60,right,0.657000065,4,0,4,0,1,3,1,0,240,142,1,239,,,,,,,,,,,,,,,,,,
,,0,50,,,,,,,1,1,2,stim/12.jpeg,HouseObjects,2,stim/objects/HouseObjects/remote.png,0.5,2,0.2,0.15,right,3,2020-12-12_21h14.44.262,premup-three_ses-01_part-01_label-phase1,3.2.4,Linux x86_64,60,left,0.488999844,4,0,4,0,1,3,1,0,240,25,1,239,,,,,,,,,,,,,,,,,,
,,0,51,,,,,,,1,1,2,stim/12.jpeg,Instruments,1,stim/objects/Instruments/pipepiano.png,0.5,4,0.2,-0.15,left,3,2020-12-12_21h14.44.262,premup-three_ses-01_part-01_label-phase1,3.2.4,Linux x86_64,60,right,0.563999891,4,0,4,0,1,3,1,0,240,1,1,239,,,,,,,,,,,,,,,,,,
,,0,52,,,,,,,1,1,2,stim/12.jpeg,Instruments,1,stim/objects/Instruments/pipepiano.png,0.5,1,-0.2,0.15,left,3,2020-12-12_21h14.44.262,premup-three_ses-01_part-01_label-phase1,3.2.4,Linux x86_64,60,right,0.731999874,4,0,4,0,1,3,1,0,240,13,1,239,,,,,,,,,,,,,,,,,,
,,0,53,,,,,,,2,4,2,stim/42.jpeg,HouseObjects,2,stim/objects/HouseObjects/remote2.png,0.3,2,0.2,0.15,right,3,2020-12-12_21h14.44.262,premup-three_ses-01_part-01_label-phase1,3.2.4,Linux x86_64,60,left,1.536999941,4,0,4,0,1,3,1,0,240,157,1,239,,,,,,,,,,,,,,,,,,
,,0,54,,,,,,,1,1,2,stim/12.jpeg,Instruments,1,stim/objects/Instruments/pipepiano.png,0.5,2,0.2,0.15,left,3,2020-12-12_21h14.44.262,premup-three_ses-01_part-01_label-phase1,3.2.4,Linux x86_64,60,right,0.613999844,4,0,4,0,1,3,1,0,240,5,1,239,,,,,,,,,,,,,,,,,,
,,0,55,,,,,,,1,2,4,stim/24.jpeg,HouseObjects,2,stim/objects/HouseObjects/sponge.png,0.5,2,0.2,0.15,right,3,2020-12-12_21h14.44.262,premup-three_ses-01_part-01_label-phase1,3.2.4,Linux x86_64,60,left,1.037999868,4,0,4,0,1,3,1,0,240,71,1,239,,,,,,,,,,,,,,,,,,
,,1,56,,,,,,,3,5,3,stim/53.jpeg,HouseObjects,2,stim/objects/HouseObjects/scale2.png,0.9,2,0.2,0.15,right,3,2020-12-12_21h14.44.262,premup-three_ses-01_part-01_label-phase1,3.2.4,Linux x86_64,60,right,0.508999825,4,0,4,0,1,3,1,0,240,190,1,239,,,,,,,,,,,,,,,,,,
,,1,57,,,,,,,2,4,4,stim/44.jpeg,Instruments,1,stim/objects/Instruments/record_player2.png,0.7,1,-0.2,0.15,left,3,2020-12-12_21h14.44.262,premup-three_ses-01_part-01_label-phase1,3.2.4,Linux x86_64,60,left,1.074999809,4,0,4,0,1,3,1,0,240,139,1,239,,,,,,,,,,,,,,,,,,
,,0,58,,,,,,,1,2,3,stim/23.jpeg,HouseObjects,2,stim/objects/HouseObjects/scale.png,0.5,1,-0.2,0.15,right,3,2020-12-12_21h14.44.262,premup-three_ses-01_part-01_label-phase1,3.2.4,Linux x86_64,60,left,1.114000082,4,0,4,0,1,3,1,0,240,78,1,239,,,,,,,,,,,,,,,,,,
,,0,59,,,,,,,2,3,1,stim/31.jpeg,Instruments,1,stim/objects/Instruments/triangle.png,0.3,2,0.2,0.15,left,3,2020-12-12_21h14.44.262,premup-three_ses-01_part-01_label-phase1,3.2.4,Linux x86_64,60,right,0.553999901,4,0,4,0,1,3,1,0,240,80,1,239,,,,,,,,,,,,,,,,,,
,,1,60,,,,,,,2,4,3,stim/43.jpeg,Instruments,1,stim/objects/Instruments/record2.png,0.7,3,-0.2,-0.15,left,3,2020-12-12_21h14.44.262,premup-three_ses-01_part-01_label-phase1,3.2.4,Linux x86_64,60,left,0.80099988,4,0,4,0,1,3,1,0,240,122,1,239,,,,,,,,,,,,,,,,,,
,,1,61,,,,,,,3,6,2,stim/62.jpeg,Instruments,1,stim/objects/Instruments/trombone2.png,0.9,4,0.2,-0.15,left,3,2020-12-12_21h14.44.262,premup-three_ses-01_part-01_label-phase1,3.2.4,Linux x86_64,60,left,0.643999815,4,0,4,0,1,3,1,0,240,225,1,239,,,,,,,,,,,,,,,,,,
,,1,62,,,,,,,1,2,3,stim/23.jpeg,HouseObjects,2,stim/objects/HouseObjects/scale.png,0.5,3,-0.2,-0.15,right,3,2020-12-12_21h14.44.262,premup-three_ses-01_part-01_label-phase1,3.2.4,Linux x86_64,60,right,1.517999887,4,0,4,0,1,3,1,0,240,62,1,239,,,,,,,,,,,,,,,,,,
,,0,63,,,,,,,2,3,4,stim/34.jpeg,HouseObjects,2,stim/objects/HouseObjects/thread.png,0.7,3,-0.2,-0.15,right,3,2020-12-12_21h14.44.262,premup-three_ses-01_part-01_label-phase1,3.2.4,Linux x86_64,60,left,1.100999832,4,0,4,0,1,3,1,0,240,119,1,239,,,,,,,,,,,,,,,,,,
,,0,64,,,,,,,1,1,2,stim/12.jpeg,Instruments,1,stim/objects/Instruments/pipepiano.png,0.5,4,0.2,-0.15,left,3,2020-12-12_21h14.44.262,premup-three_ses-01_part-01_label-phase1,3.2.4,Linux x86_64,60,right,1.349999905,4,0,4,0,1,3,1,0,240,17,1,239,,,,,,,,,,,,,,,,,,
,,1,65,,,,,,,3,6,3,stim/63.jpeg,Instruments,1,stim/objects/Instruments/trumpet2.png,0.9,3,-0.2,-0.15,left,3,2020-12-12_21h14.44.262,premup-three_ses-01_part-01_label-phase1,3.2.4,Linux x86_64,60,left,0.582999945,4,0,4,0,1,3,1,0,240,206,1,239,,,,,,,,,,,,,,,,,,
,,0,66,,,,,,,1,1,4,stim/14.jpeg,Instruments,1,stim/objects/Instruments/record_player.png,0.5,3,-0.2,-0.15,left,3,2020-12-12_21h14.44.262,premup-three_ses-01_part-01_label-phase1,3.2.4,Linux x86_64,60,right,1.177999973,4,0,4,0,1,3,1,0,240,15,1,239,,,,,,,,,,,,,,,,,,
,,1,67,,,,,,,2,3,3,stim/33.jpeg,HouseObjects,2,stim/objects/HouseObjects/thermometer.png,0.7,4,0.2,-0.15,right,3,2020-12-12_21h14.44.262,premup-three_ses-01_part-01_label-phase1,3.2.4,Linux x86_64,60,right,0.67599988,4,0,4,0,1,3,1,0,240,102,1,239,,,,,,,,,,,,,,,,,,
,,0,68,,,,,,,3,6,4,stim/64.jpeg,HouseObjects,2,stim/objects/HouseObjects/thread2.png,0.1,4,0.2,-0.15,right,3,2020-12-12_21h14.44.262,premup-three_ses-01_part-01_label-phase1,3.2.4,Linux x86_64,60,left,0.678999901,4,0,4,0,1,3,1,0,240,239,1,239,,,,,,,,,,,,,,,,,,
,,1,69,,,,,,,2,3,1,stim/31.jpeg,HouseObjects,2,stim/objects/HouseObjects/spraybottle.png,0.7,4,0.2,-0.15,right,3,2020-12-12_21h14.44.262,premup-three_ses-01_part-01_label-phase1,3.2.4,Linux x86_64,60,right,1.241999865,4,0,4,0,1,3,1,0,240,96,1,239,,,,,,,,,,,,,,,,,,
,,0,70,,,,,,,2,4,2,stim/42.jpeg,HouseObjects,2,stim/objects/HouseObjects/remote2.png,0.3,3,-0.2,-0.15,right,3,2020-12-12_21h14.44.262,premup-three_ses-01_part-01_label-phase1,3.2.4,Linux x86_64,60,left,0.946999788,4,0,4,0,1,3,1,0,240,149,1,239,,,,,,,,,,,,,,,,,,
,,1,71,,,,,,,3,6,3,stim/63.jpeg,Instruments,1,stim/objects/Instruments/trumpet2.png,0.9,2,0.2,0.15,left,3,2020-12-12_21h14.44.262,premup-three_ses-01_part-01_label-phase1,3.2.4,Linux x86_64,60,left,0.632999897,4,0,4,0,1,3,1,0,240,214,1,239,,,,,,,,,,,,,,,,,,
,,0,72,,,,,,,1,2,4,stim/24.jpeg,Instruments,1,stim/objects/Instruments/timbal.png,0.5,4,0.2,-0.15,left,3,2020-12-12_21h14.44.262,premup-three_ses-01_part-01_label-phase1,3.2.4,Linux x86_64,60,right,0.871999979,4,0,4,0,1,3,1,0,240,51,1,239,,,,,,,,,,,,,,,,,,
,,0,73,,,,,,,3,5,1,stim/51.jpeg,HouseObjects,2,stim/objects/HouseObjects/safetypin2.png,0.9,4,0.2,-0.15,right,3,2020-12-12_21h14.44.262,premup-three_ses-01_part-01_label-phase1,3.2.4,Linux x86_64,60,left,0.856999874,4,0,4,0,1,3,1,0,240,184,1,239,,,,,,,,,,,,,,,,,,
,,1,74,,,,,,,3,6,2,stim/62.jpeg,Instruments,1,stim/objects/Instruments/trombone2.png,0.9,1,-0.2,0.15,left,3,2020-12-12_21h14.44.262,premup-three_ses-01_part-01_label-phase1,3.2.4,Linux x86_64,60,left,0.670999765,4,0,4,0,1,3,1,0,240,205,1,239,,,,,,,,,,,,,,,,,,
,,1,75,,,,,,,1,1,1,stim/11.jpeg,Instruments,1,stim/objects/Instruments/panflute.png,0.5,1,-0.2,0.15,left,3,2020-12-12_21h14.44.262,premup-three_ses-01_part-01_label-phase1,3.2.4,Linux x86_64,60,left,1.333999872,4,0,4,0,1,3,1,0,240,12,1,239,,,,,,,,,,,,,,,,,,
,,0,76,,,,,,,1,1,4,stim/14.jpeg,Instruments,1,stim/objects/Instruments/record_player.png,0.5,1,-0.2,0.15,left,3,2020-12-12_21h14.44.262,premup-three_ses-01_part-01_label-phase1,3.2.4,Linux x86_64,60,right,1.305999756,4,0,4,0,1,3,1,0,240,19,1,239,,,,,,,,,,,,,,,,,,
,,0,77,,,,,,,1,1,4,stim/14.jpeg,HouseObjects,2,stim/objects/HouseObjects/rug.png,0.5,1,-0.2,0.15,right,3,2020-12-12_21h14.44.262,premup-three_ses-01_part-01_label-phase1,3.2.4,Linux x86_64,60,left,0.897000074,4,0,4,0,1,3,1,0,240,39,1,239,,,,,,,,,,,,,,,,,,
,,0,78,,,,,,,2,3,4,stim/34.jpeg,HouseObjects,2,stim/objects/HouseObjects/thread.png,0.7,3,-0.2,-0.15,right,3,2020-12-12_21h14.44.262,premup-three_ses-01_part-01_label-phase1,3.2.4,Linux x86_64,60,left,0.833999872,4,0,4,0,1,3,1,0,240,103,1,239,,,,,,,,,,,,,,,,,,
,,0,79,,,,,,,1,2,1,stim/21.jpeg,Instruments,1,stim/objects/Instruments/saxophone.png,0.5,4,0.2,-0.15,left,3,2020-12-12_21h14.44.262,premup-three_ses-01_part-01_label-phase1,3.2.4,Linux x86_64,60,right,0.88499999,4,0,4,0,1,3,1,0,240,56,1,239,,,,,,,,,,,,,,,,,,
,,0,80,,,,,,,2,4,1,stim/41.jpeg,Instruments,1,stim/objects/Instruments/panflute2.png,0.7,2,0.2,0.15,left,3,2020-12-12_21h14.44.262,premup-three_ses-01_part-01_label-phase1,3.2.4,Linux x86_64,60,right,1.169999838,4,0,4,0,1,3,1,0,240,128,1,239,,,,,,,,,,,,,,,,,,
,,1,81,,,,,,,2,3,2,stim/32.jpeg,HouseObjects,2,stim/objects/HouseObjects/teapot.png,0.7,1,-0.2,0.15,right,3,2020-12-12_21h14.44.262,premup-three_ses-01_part-01_label-phase1,3.2.4,Linux x86_64,60,right,0.987999916,4,0,4,0,1,3,1,0,240,117,1,239,,,,,,,,,,,,,,,,,,
,,1,82,,,,,,,2,4,4,stim/44.jpeg,Instruments,1,stim/objects/Instruments/record_player2.png,0.7,4,0.2,-0.15,left,3,2020-12-12_21h14.44.262,premup-three_ses-01_part-01_label-phase1,3.2.4,Linux x86_64,60,left,1.376999855,4,0,4,0,1,3,1,0,240,135,1,239,,,,,,,,,,,,,,,,,,
,,1,83,,,,,,,3,5,3,stim/53.jpeg,HouseObjects,2,stim/objects/HouseObjects/scale2.png,0.9,3,-0.2,-0.15,right,3,2020-12-12_21h14.44.262,premup-three_ses-01_part-01_label-phase1,3.2.4,Linux x86_64,60,right,0.774999857,4,0,4,0,1,3,1,0,240,170,1,239,,,,,,,,,,,,,,,,,,
,,1,84,,,,,,,3,5,1,stim/51.jpeg,HouseObjects,2,stim/objects/HouseObjects/safetypin2.png,0.9,2,0.2,0.15,right,3,2020-12-12_21h14.44.262,premup-three_ses-01_part-01_label-phase1,3.2.4,Linux x86_64,60,right,0.678999901,4,0,4,0,1,3,1,0,240,168,1,239,,,,,,,,,,,,,,,,,,
,,1,85,,,,,,,3,6,3,stim/63.jpeg,Instruments,1,stim/objects/Instruments/trumpet2.png,0.9,4,0.2,-0.15,left,3,2020-12-12_21h14.44.262,premup-three_ses-01_part-01_label-phase1,3.2.4,Linux x86_64,60,left,0.662999868,4,0,4,0,1,3,1,0,240,234,1,239,,,,,,,,,,,,,,,,,,
,,0,86,,,,,,,1,2,3,stim/23.jpeg,Instruments,1,stim/objects/Instruments/tambourine.png,0.5,3,-0.2,-0.15,left,3,2020-12-12_21h14.44.262,premup-three_ses-01_part-01_label-phase1,3.2.4,Linux x86_64,60,right,1.000999689,4,0,4,0,1,3,1,0,240,42,1,239,,,,,,,,,,,,,,,,,,
,,1,87,,,,,,,2,4,1,stim/41.jpeg,Instruments,1,stim/objects/Instruments/panflute2.png,0.7,2,0.2,0.15,left,3,2020-12-12_21h14.44.262,premup-three_ses-01_part-01_label-phase1,3.2.4,Linux x86_64,60,left,0.839999914,4,0,4,0,1,3,1,0,240,140,1,239,,,,,,,,,,,,,,,,,,
,,1,88,,,,,,,2,4,2,stim/42.jpeg,Instruments,1,stim/objects/Instruments/pipepiano2.png,0.7,4,0.2,-0.15,left,3,2020-12-12_21h14.44.262,premup-three_ses-01_part-01_label-phase1,3.2.4,Linux x86_64,60,left,1.443000078,4,0,4,0,1,3,1,0,240,145,1,239,,,,,,,,,,,,,,,,,,
,,1,89,,,,,,,3,5,1,stim/51.jpeg,HouseObjects,2,stim/objects/HouseObjects/safetypin2.png,0.9,4,0.2,-0.15,right,3,2020-12-12_21h14.44.262,premup-three_ses-01_part-01_label-phase1,3.2.4,Linux x86_64,60,right,0.838999987,4,0,4,0,1,3,1,0,240,188,1,239,,,,,,,,,,,,,,,,,,
,,0,90,,,,,,,1,2,4,stim/24.jpeg,HouseObjects,2,stim/objects/HouseObjects/sponge.png,0.5,2,0.2,0.15,right,3,2020-12-12_21h14.44.262,premup-three_ses-01_part-01_label-phase1,3.2.4,Linux x86_64,60,left,1.149999857,4,0,4,0,1,3,1,0,240,67,1,239,,,,,,,,,,,,,,,,,,
,,1,91,,,,,,,3,5,4,stim/54.jpeg,HouseObjects,2,stim/objects/HouseObjects/sponge2.png,0.9,1,-0.2,0.15,right,3,2020-12-12_21h14.44.262,premup-three_ses-01_part-01_label-phase1,3.2.4,Linux x86_64,60,right,1.016000032,4,0,4,0,1,3,1,0,240,187,1,239,,,,,,,,,,,,,,,,,,
,,1,92,,,,,,,1,2,2,stim/22.jpeg,Instruments,1,stim/objects/Instruments/speaker.png,0.5,4,0.2,-0.15,left,3,2020-12-12_21h14.44.262,premup-three_ses-01_part-01_label-phase1,3.2.4,Linux x86_64,60,left,0.980000019,4,0,4,0,1,3,1,0,240,41,1,239,,,,,,,,,,,,,,,,,,
,,1,93,,,,,,,1,1,3,stim/13.jpeg,Instruments,1,stim/objects/Instruments/record.png,0.5,1,-0.2,0.15,left,3,2020-12-12_21h14.44.262,premup-three_ses-01_part-01_label-phase1,3.2.4,Linux x86_64,60,left,1.309999943,4,0,4,0,1,3,1,0,240,14,1,239,,,,,,,,,,,,,,,,,,
,,1,94,,,,,,,3,6,4,stim/64.jpeg,Instruments,1,stim/objects/Instruments/tuba2.png,0.9,2,0.2,0.15,left,3,2020-12-12_21h14.44.262,premup-three_ses-01_part-01_label-phase1,3.2.4,Linux x86_64,60,left,0.707999945,4,0,4,0,1,3,1,0,240,219,1,239,,,,,,,,,,,,,,,,,,
,,1,95,,,,,,,1,2,4,stim/24.jpeg,Instruments,1,stim/objects/Instruments/timbal.png,0.5,2,0.2,0.15,left,3,2020-12-12_21h14.44.262,premup-three_ses-01_part-01_label-phase1,3.2.4,Linux x86_64,60,left,1.193999767,4,0,4,0,1,3,1,0,240,55,1,239,,,,,,,,,,,,,,,,,,
,,1,96,,,,,,,2,3,1,stim/31.jpeg,HouseObjects,2,stim/objects/HouseObjects/spraybottle.png,0.7,2,0.2,0.15,right,3,2020-12-12_21h14.44.262,premup-three_ses-01_part-01_label-phase1,3.2.4,Linux x86_64,60,right,1.332000017,4,0,4,0,1,3,1,0,240,112,1,239,,,,,,,,,,,,,,,,,,
,,1,97,,,,,,,2,4,4,stim/44.jpeg,Instruments,1,stim/objects/Instruments/record_player2.png,0.7,3,-0.2,-0.15,left,3,2020-12-12_21h14.44.262,premup-three_ses-01_part-01_label-phase1,3.2.4,Linux x86_64,60,left,1.7099998,4,0,4,0,1,3,1,0,240,123,1,239,,,,,,,,,,,,,,,,,,
,,1,98,,,,,,,1,1,2,stim/12.jpeg,HouseObjects,2,stim/objects/HouseObjects/remote.png,0.5,3,-0.2,-0.15,right,3,2020-12-12_21h14.44.262,premup-three_ses-01_part-01_label-phase1,3.2.4,Linux x86_64,60,right,1.097999811,4,0,4,0,1,3,1,0,240,37,1,239,,,,,,,,,,,,,,,,,,
,,0,99,,,,,,,1,2,1,stim/21.jpeg,HouseObjects,2,stim/objects/HouseObjects/safetypin.png,0.5,3,-0.2,-0.15,right,3,2020-12-12_21h14.44.262,premup-three_ses-01_part-01_label-phase1,3.2.4,Linux x86_64,60,left,1.089999676,4,0,4,0,1,3,1,0,240,68,1,239,,,,,,,,,,,,,,,,,,
,,1,100,,,,,,,3,5,3,stim/53.jpeg,HouseObjects,2,stim/objects/HouseObjects/scale2.png,0.9,2,0.2,0.15,right,3,2020-12-12_21h14.44.262,premup-three_ses-01_part-01_label-phase1,3.2.4,Linux x86_64,60,right,0.859999895,4,0,4,0,1,3,1,0,240,186,1,239,,,,,,,,,,,,,,,,,,
,,1,101,,,,,,,2,3,4,stim/34.jpeg,HouseObjects,2,stim/objects/HouseObjects/thread.png,0.7,2,0.2,0.15,right,3,2020-12-12_21h14.44.262,premup-three_ses-01_part-01_label-phase1,3.2.4,Linux x86_64,60,right,1.46999979,4,0,4,0,1,3,1,0,240,111,1,239,,,,,,,,,,,,,,,,,,
,,1,102,,,,,,,3,5,4,stim/54.jpeg,HouseObjects,2,stim/objects/HouseObjects/sponge2.png,0.9,3,-0.2,-0.15,right,3,2020-12-12_21h14.44.262,premup-three_ses-01_part-01_label-phase1,3.2.4,Linux x86_64,60,right,0.845999956,4,0,4,0,1,3,1,0,240,179,1,239,,,,,,,,,,,,,,,,,,
,,1,103,,,,,,,3,6,2,stim/62.jpeg,Instruments,1,stim/objects/Instruments/trombone2.png,0.9,4,0.2,-0.15,left,3,2020-12-12_21h14.44.262,premup-three_ses-01_part-01_label-phase1,3.2.4,Linux x86_64,60,left,0.701999903,4,0,4,0,1,3,1,0,240,229,1,239,,,,,,,,,,,,,,,,,,
,,0,104,,,,,,,1,1,4,stim/14.jpeg,Instruments,1,stim/objects/Instruments/record_player.png,0.5,4,0.2,-0.15,left,3,2020-12-12_21h14.44.262,premup-three_ses-01_part-01_label-phase1,3.2.4,Linux x86_64,60,right,0.882999897,4,0,4,0,1,3,1,0,240,7,1,239,,,,,,,,,,,,,,,,,,
,,0,105,,,,,,,2,4,1,stim/41.jpeg,Instruments,1,stim/objects/Instruments/panflute2.png,0.7,2,0.2,0.15,left,3,2020-12-12_21h14.44.262,premup-three_ses-01_part-01_label-phase1,3.2.4,Linux x86_64,60,right,1.001999855,4,0,4,0,1,3,1,0,240,120,1,239,,,,,,,,,,,,,,,,,,
,,0,106,,,,,,,1,2,1,stim/21.jpeg,HouseObjects,2,stim/objects/HouseObjects/safetypin.png,0.5,3,-0.2,-0.15,right,3,2020-12-12_21h14.44.262,premup-three_ses-01_part-01_label-phase1,3.2.4,Linux x86_64,60,left,0.732999802,4,0,4,0,1,3,1,0,240,76,1,239,,,,,,,,,,,,,,,,,,
,,1,107,,,,,,,3,6,2,stim/62.jpeg,Instruments,1,stim/objects/Instruments/trombone2.png,0.9,1,-0.2,0.15,left,3,2020-12-12_21h14.44.262,premup-three_ses-01_part-01_label-phase1,3.2.4,Linux x86_64,60,left,0.707999706,4,0,4,0,1,3,1,0,240,213,1,239,,,,,,,,,,,,,,,,,,
,,0,108,,,,,,,2,3,3,stim/33.jpeg,Instruments,1,stim/objects/Instruments/trumpet.png,0.3,1,-0.2,0.15,left,3,2020-12-12_21h14.44.262,premup-three_ses-01_part-01_label-phase1,3.2.4,Linux x86_64,60,right,0.86899972,4,0,4,0,1,3,1,0,240,86,1,239,,,,,,,,,,,,,,,,,,
,,1,109,,,,,,,3,5,2,stim/52.jpeg,HouseObjects,2,stim/objects/HouseObjects/saw2.png,0.9,4,0.2,-0.15,right,3,2020-12-12_21h14.44.262,premup-three_ses-01_part-01_label-phase1,3.2.4,Linux x86_64,60,right,0.853999853,4,0,4,0,1,3,1,0,240,181,1,239,,,,,,,,,,,,,,,,,,
,,0,110,,,,,,,2,4,2,stim/42.jpeg,Instruments,1,stim/objects/Instruments/pipepiano2.png,0.7,3,-0.2,-0.15,left,3,2020-12-12_21h14.44.262,premup-three_ses-01_part-01_label-phase1,3.2.4,Linux x86_64,60,right,1.670999765,4,0,4,0,1,3,1,0,240,141,1,239,,,,,,,,,,,,,,,,,,
,,1,111,,,,,,,3,5,2,stim/52.jpeg,HouseObjects,2,stim/objects/HouseObjects/saw2.png,0.9,2,0.2,0.15,right,3,2020-12-12_21h14.44.262,premup-three_ses-01_part-01_label-phase1,3.2.4,Linux x86_64,60,right,0.699999809,4,0,4,0,1,3,1,0,240,185,1,239,,,,,,,,,,,,,,,,,,
,,1,112,,,,,,,3,6,2,stim/62.jpeg,Instruments,1,stim/objects/Instruments/trombone2.png,0.9,1,-0.2,0.15,left,3,2020-12-12_21h14.44.262,premup-three_ses-01_part-01_label-phase1,3.2.4,Linux x86_64,60,left,0.657999754,4,0,4,0,1,3,1,0,240,201,1,239,,,,,,,,,,,,,,,,,,
,,1,113,,,,,,,2,4,3,stim/43.jpeg,Instruments,1,stim/objects/Instruments/record2.png,0.7,2,0.2,0.15,left,3,2020-12-12_21h14.44.262,premup-three_ses-01_part-01_label-phase1,3.2.4,Linux x86_64,60,left,1.109999895,4,0,4,0,1,3,1,0,240,138,1,239,,,,,,,,,,,,,,,,,,
,,1,114,,,,,,,1,1,4,stim/14.jpeg,HouseObjects,2,stim/objects/HouseObjects/rug.png,0.5,3,-0.2,-0.15,right,3,2020-12-12_21h14.44.262,premup-three_ses-01_part-01_label-phase1,3.2.4,Linux x86_64,60,right,0.95299983,4,0,4,0,1,3,1,0,240,35,1,239,,,,,,,,,,,,,,,,,,
,,1,115,,,,,,,3,5,2,stim/52.jpeg,HouseObjects,2,stim/objects/HouseObjects/saw2.png,0.9,2,0.2,0.15,right,3,2020-12-12_21h14.44.262,premup-three_ses-01_part-01_label-phase1,3.2.4,Linux x86_64,60,right,0.752999783,4,0,4,0,1,3,1,0,240,197,1,239,,,,,,,,,,,,,,,,,,
,,1,116,,,,,,,1,2,3,stim/23.jpeg,HouseObjects,2,stim/objects/HouseObjects/scale.png,0.5,4,0.2,-0.15,right,3,2020-12-12_21h14.44.262,premup-three_ses-01_part-01_label-phase1,3.2.4,Linux x86_64,60,right,1.378000021,4,0,4,0,1,3,1,0,240,66,1,239,,,,,,,,,,,,,,,,,,
,,0,117,,,,,,,1,1,2,stim/12.jpeg,HouseObjects,2,stim/objects/HouseObjects/remote.png,0.5,1,-0.2,0.15,right,3,2020-12-12_21h14.44.262,premup-three_ses-01_part-01_label-phase1,3.2.4,Linux x86_64,60,left,1.20299983,4,0,4,0,1,3,1,0,240,29,1,239,,,,,,,,,,,,,,,,,,
,,1,118,,,,,,,3,5,4,stim/54.jpeg,HouseObjects,2,stim/objects/HouseObjects/sponge2.png,0.9,4,0.2,-0.15,right,3,2020-12-12_21h14.44.262,premup-three_ses-01_part-01_label-phase1,3.2.4,Linux x86_64,60,right,0.829999924,4,0,4,0,1,3,1,0,240,171,1,239,,,,,,,,,,,,,,,,,,
,,1,119,,,,,,,3,5,1,stim/51.jpeg,HouseObjects,2,stim/objects/HouseObjects/safetypin2.png,0.9,1,-0.2,0.15,right,3,2020-12-12_21h14.44.262,premup-three_ses-01_part-01_label-phase1,3.2.4,Linux x86_64,60,right,0.718999863,4,0,4,0,1,3,1,0,240,192,1,239,,,,,,,,,,,,,,,,,,
,,1,120,,,,,,,2,3,1,stim/31.jpeg,HouseObjects,2,stim/objects/HouseObjects/spraybottle.png,0.7,3,-0.2,-0.15,right,3,2020-12-12_21h14.44.262,premup-three_ses-01_part-01_label-phase1,3.2.4,Linux x86_64,60,right,0.819999933,4,0,4,0,1,3,1,0,240,116,1,239,,,,,,,,,,,,,,,,,,
,,0,121,,,,,,,1,1,1,stim/11.jpeg,HouseObjects,2,stim/objects/HouseObjects/recyclingbin.png,0.5,2,0.2,0.15,right,3,2020-12-12_21h14.44.262,premup-three_ses-01_part-01_label-phase1,3.2.4,Linux x86_64,60,left,1.115999699,4,0,4,0,1,3,1,0,240,28,1,239,,,,,,,,,,,,,,,,,,
,,1,122,,,,,,,3,6,4,stim/64.jpeg,Instruments,1,stim/objects/Instruments/tuba2.png,0.9,2,0.2,0.15,left,3,2020-12-12_21h14.44.262,premup-three_ses-01_part-01_label-phase1,3.2.4,Linux x86_64,60,left,0.710999727,4,0,4,0,1,3,1,0,240,223,1,239,,,,,,,,,,,,,,,,,,
,,1,123,,,,,,,2,4,2,stim/42.jpeg,Instruments,1,stim/objects/Instruments/pipepiano2.png,0.7,3,-0.2,-0.15,left,3,2020-12-12_21h14.44.262,premup-three_ses-01_part-01_label-phase1,3.2.4,Linux x86_64,60,left,1.240999937,4,0,4,0,1,3,1,0,240,121,1,239,,,,,,,,,,,,,,,,,,
,,1,124,,,,,,,2,3,1,stim/31.jpeg,HouseObjects,2,stim/objects/HouseObjects/spraybottle.png,0.7,2,0.2,0.15,right,3,2020-12-12_21h14.44.262,premup-three_ses-01_part-01_label-phase1,3.2.4,Linux x86_64,60,right,0.807999849,4,0,4,0,1,3,1,0,240,108,1,239,,,,,,,,,,,,,,,,,,
