id_acc,key_resp_id.keys,key_resp_id.rt,key_resp_conf.keys,key_resp_conf.rt,assoc_acc,key_resp_assoc.keys,key_resp_assoc.rt,loc_acc,key_resp_loc.keys,key_resp_loc.rt,task_innerloop.thisRepN,task_innerloop.thisTrialN,task_innerloop.thisN,task_innerloop.thisIndex,task_innerloop.ran,task_innerloop.order,context_type,object_cat,PE_level,OvsN,obj_file,scn_file,corr_scn_cat,assoc_file,corr_scn_inst,corr_loc,participant,date,expName,psychopyVersion,OS,frameRate
1,right,1.674999952,,,0,,,0,,,1,0,200,154,1,199,0,2,0,2,stim/objects/HouseObjects/iron.png,,0,stim/0.png,0,0,3,2020-12-13_18h44.51.616,premup-three_ses-02_part-03_label-phase3,3.2.4,Linux x86_64,60
1,left,0.781999826,,,0,,,0,,,1,0,200,180,1,199,0,1,0,2,stim/objects/Instruments/bassguitar2.png,,0,stim/0.png,0,0,3,2020-12-13_18h44.51.616,premup-three_ses-02_part-03_label-phase3,3.2.4,Linux x86_64,60
1,left,1.123999834,,,0,,,0,,,1,0,200,176,1,199,0,2,0,2,stim/objects/HouseObjects/ballofstring2.png,,0,stim/0.png,0,0,3,2020-12-13_18h44.51.616,premup-three_ses-02_part-03_label-phase3,3.2.4,Linux x86_64,60
1,right,1.188999891,,,0,,,0,,,1,0,200,113,1,199,0,2,0,2,stim/objects/HouseObjects/basket.png,,0,stim/0.png,0,0,3,2020-12-13_18h44.51.616,premup-three_ses-02_part-03_label-phase3,3.2.4,Linux x86_64,60
1,left,0.830999851,,,0,,,0,,,1,0,200,111,1,199,0,2,0,2,stim/objects/HouseObjects/ballofstring.png,,0,stim/0.png,0,0,3,2020-12-13_18h44.51.616,premup-three_ses-02_part-03_label-phase3,3.2.4,Linux x86_64,60
1,left,0.889999866,4,3.280999899,0,3,5.875999928,0,1,2.146999836,1,0,200,14,1,199,1,2,0.5,1,stim/objects/Instruments/musicsheet3.png,stim/21.jpeg,2,stim/2.png,1,1,3,2020-12-13_18h44.51.616,premup-three_ses-02_part-03_label-phase3,3.2.4,Linux x86_64,60
1,left,5.246000051,4,1.732999802,0,2,3.912999868,0,1,1.613999844,1,0,200,81,1,199,3,1,0.9,1,stim/objects/Instruments/maraca4.png,stim/62.jpeg,6,stim/6.png,2,4,3,2020-12-13_18h44.51.616,premup-three_ses-02_part-03_label-phase3,3.2.4,Linux x86_64,60
1,left,2.002999783,3,1.586999893,0,1,3.325000048,0,1,1.633999825,1,0,200,76,1,199,3,2,0.9,1,stim/objects/HouseObjects/hairdryer4.png,stim/51.jpeg,5,stim/5.png,1,4,3,2020-12-13_18h44.51.616,premup-three_ses-02_part-03_label-phase3,3.2.4,Linux x86_64,60
1,left,3.109999895,4,4.661000013,0,3,6.059999943,0,1,0.784999847,1,0,200,27,1,199,2,1,0.3,1,stim/objects/Instruments/balalaika4.png,stim/34.jpeg,3,stim/3.png,4,2,3,2020-12-13_18h44.51.616,premup-three_ses-02_part-03_label-phase3,3.2.4,Linux x86_64,60
1,left,2.963999748,,,0,,,0,,,1,0,200,131,1,199,0,2,0,2,stim/objects/HouseObjects/clothespin.png,,0,stim/0.png,0,0,3,2020-12-13_18h44.51.616,premup-three_ses-02_part-03_label-phase3,3.2.4,Linux x86_64,60
1,right,2.224999905,,,0,,,0,,,1,0,200,148,1,199,0,1,0,2,stim/objects/Instruments/metronome.png,,0,stim/0.png,0,0,3,2020-12-13_18h44.51.616,premup-three_ses-02_part-03_label-phase3,3.2.4,Linux x86_64,60
1,right,1.213999748,3,6.598999977,0,4,1.697999954,0,4,0.63499999,1,0,200,94,1,199,3,2,0.1,1,stim/objects/HouseObjects/match4.png,stim/63.jpeg,6,stim/6.png,3,2,3,2020-12-13_18h44.51.616,premup-three_ses-02_part-03_label-phase3,3.2.4,Linux x86_64,60
1,left,3.54399991,,,0,,,0,,,1,0,200,169,1,199,0,1,0,2,stim/objects/Instruments/bassdrum2.png,,0,stim/0.png,0,0,3,2020-12-13_18h44.51.616,premup-three_ses-02_part-03_label-phase3,3.2.4,Linux x86_64,60
1,left,0.876999855,4,0.984999895,0,1,4.097999811,0,3,1.270999908,1,0,200,1,1,199,1,1,0.5,1,stim/objects/Instruments/harmonica3.png,stim/14.jpeg,1,stim/1.png,4,3,3,2020-12-13_18h44.51.616,premup-three_ses-02_part-03_label-phase3,3.2.4,Linux x86_64,60
1,left,1.22699976,,,0,,,0,,,1,0,200,181,1,199,0,1,0,2,stim/objects/Instruments/cello2.png,,0,stim/0.png,0,0,3,2020-12-13_18h44.51.616,premup-three_ses-02_part-03_label-phase3,3.2.4,Linux x86_64,60
1,left,1.11899972,,,0,,,0,,,1,0,200,175,1,199,0,2,0,2,stim/objects/HouseObjects/ashtray2.png,,0,stim/0.png,0,0,3,2020-12-13_18h44.51.616,premup-three_ses-02_part-03_label-phase3,3.2.4,Linux x86_64,60
1,right,2.232999802,,,0,,,0,,,1,0,200,147,1,199,0,1,0,2,stim/objects/Instruments/marimba.png,,0,stim/0.png,0,0,3,2020-12-13_18h44.51.616,premup-three_ses-02_part-03_label-phase3,3.2.4,Linux x86_64,60
1,left,0.984999657,,,0,,,0,,,1,0,200,146,1,199,0,1,0,2,stim/objects/Instruments/maraca.png,,0,stim/0.png,0,0,3,2020-12-13_18h44.51.616,premup-three_ses-02_part-03_label-phase3,3.2.4,Linux x86_64,60
1,right,1.53099966,4,1.012999773,0,2,4.00999999,0,4,1.739999771,1,0,200,93,1,199,3,2,0.1,1,stim/objects/HouseObjects/lintroller4.png,stim/62.jpeg,6,stim/6.png,2,4,3,2020-12-13_18h44.51.616,premup-three_ses-02_part-03_label-phase3,3.2.4,Linux x86_64,60
1,left,1,,,0,,,0,,,1,0,200,167,1,199,0,1,0,2,stim/objects/Instruments/balalaika2.png,,0,stim/0.png,0,0,3,2020-12-13_18h44.51.616,premup-three_ses-02_part-03_label-phase3,3.2.4,Linux x86_64,60
1,left,1.777999878,2,2.003999949,0,3,2.049000025,0,2,3.057999849,1,0,200,89,1,199,3,1,0.9,1,stim/objects/Instruments/xylophone4.png,stim/62.jpeg,6,stim/6.png,2,4,3,2020-12-13_18h44.51.616,premup-three_ses-02_part-03_label-phase3,3.2.4,Linux x86_64,60
1,left,1.128999949,4,1.593999863,0,4,4.247999907,0,1,2.813999891,1,0,200,65,1,199,3,1,0.1,1,stim/objects/Instruments/guitarcase4.png,stim/52.jpeg,5,stim/5.png,2,2,3,2020-12-13_18h44.51.616,premup-three_ses-02_part-03_label-phase3,3.2.4,Linux x86_64,60
1,left,1.286999941,3,1.118999958,0,2,2.794999838,0,2,2.906999826,1,0,200,63,1,199,3,1,0.1,1,stim/objects/Instruments/gong4.png,stim/54.jpeg,5,stim/5.png,4,2,3,2020-12-13_18h44.51.616,premup-three_ses-02_part-03_label-phase3,3.2.4,Linux x86_64,60
1,left,3.930999994,3,2.208999634,0,4,1.988999844,0,4,1.86899972,1,0,200,68,1,199,3,1,0.1,1,stim/objects/Instruments/hihat4.png,stim/51.jpeg,5,stim/5.png,1,2,3,2020-12-13_18h44.51.616,premup-three_ses-02_part-03_label-phase3,3.2.4,Linux x86_64,60
1,right,1.540999651,,,0,,,0,,,1,0,200,199,1,199,0,2,0,2,stim/objects/HouseObjects/dishsoap2.png,,0,stim/0.png,0,0,3,2020-12-13_18h44.51.616,premup-three_ses-02_part-03_label-phase3,3.2.4,Linux x86_64,60
1,left,2.191999912,4,1.888999939,0,2,1.75,0,2,1.121999741,1,0,200,22,1,199,2,1,0.3,1,stim/objects/Instruments/violin3.png,stim/33.jpeg,3,stim/3.png,3,1,3,2020-12-13_18h44.51.616,premup-three_ses-02_part-03_label-phase3,3.2.4,Linux x86_64,60
1,left,3.41899991,,,0,,,0,,,1,0,200,117,1,199,0,2,0,2,stim/objects/HouseObjects/broom.png,,0,stim/0.png,0,0,3,2020-12-13_18h44.51.616,premup-three_ses-02_part-03_label-phase3,3.2.4,Linux x86_64,60
1,left,1.656999826,,,0,,,0,,,1,0,200,142,1,199,0,1,0,2,stim/objects/Instruments/harp.png,,0,stim/0.png,0,0,3,2020-12-13_18h44.51.616,premup-three_ses-02_part-03_label-phase3,3.2.4,Linux x86_64,60
1,right,1.633999825,2,1.527999878,0,4,2.322999954,0,4,1.133999825,1,0,200,57,1,199,2,2,0.3,1,stim/objects/HouseObjects/coffee4.png,stim/41.jpeg,4,stim/4.png,1,3,3,2020-12-13_18h44.51.616,premup-three_ses-02_part-03_label-phase3,3.2.4,Linux x86_64,60
1,left,2.225999832,4,0.882999897,0,1,2.31099987,0,3,2.895999908,1,0,200,23,1,199,2,1,0.3,1,stim/objects/Instruments/vuvuzela3.png,stim/34.jpeg,3,stim/3.png,4,4,3,2020-12-13_18h44.51.616,premup-three_ses-02_part-03_label-phase3,3.2.4,Linux x86_64,60
1,left,1.301999807,,,0,,,0,,,1,0,200,123,1,199,0,1,0,2,stim/objects/Instruments/electricdrumset.png,,0,stim/0.png,0,0,3,2020-12-13_18h44.51.616,premup-three_ses-02_part-03_label-phase3,3.2.4,Linux x86_64,60
1,left,1.090999842,3,1.211999893,0,3,4.458999634,0,2,1.207000017,1,0,200,69,1,199,3,1,0.1,1,stim/objects/Instruments/keyboard4.png,stim/52.jpeg,5,stim/5.png,2,4,3,2020-12-13_18h44.51.616,premup-three_ses-02_part-03_label-phase3,3.2.4,Linux x86_64,60
1,left,1.102999926,,,0,,,0,,,1,0,200,112,1,199,0,2,0,2,stim/objects/HouseObjects/barbecuelighter.png,,0,stim/0.png,0,0,3,2020-12-13_18h44.51.616,premup-three_ses-02_part-03_label-phase3,3.2.4,Linux x86_64,60
1,right,2.246999741,2,1.233999729,0,3,1.64599967,0,3,0.801999807,1,0,200,50,1,199,2,2,0.3,1,stim/objects/HouseObjects/blender4.png,stim/42.jpeg,4,stim/4.png,2,2,3,2020-12-13_18h44.51.616,premup-three_ses-02_part-03_label-phase3,3.2.4,Linux x86_64,60
1,left,2.46999979,,,0,,,0,,,1,0,200,192,1,199,0,2,0,2,stim/objects/HouseObjects/broom2.png,,0,stim/0.png,0,0,3,2020-12-13_18h44.51.616,premup-three_ses-02_part-03_label-phase3,3.2.4,Linux x86_64,60
1,left,2.09499979,,,0,,,0,,,1,0,200,160,1,199,0,1,0,2,stim/objects/Instruments/musicstand.png,,0,stim/0.png,0,0,3,2020-12-13_18h44.51.616,premup-three_ses-02_part-03_label-phase3,3.2.4,Linux x86_64,60
1,right,1.861000061,,,0,,,0,,,1,0,200,197,1,199,0,2,0,2,stim/objects/HouseObjects/coffee2.png,,0,stim/0.png,0,0,3,2020-12-13_18h44.51.616,premup-three_ses-02_part-03_label-phase3,3.2.4,Linux x86_64,60
1,left,0.878000021,3,1.40299964,0,4,1.294999838,0,3,1.748999834,1,0,200,35,1,199,2,2,0.7,1,stim/objects/HouseObjects/ashtray4.png,stim/33.jpeg,3,stim/3.png,3,1,3,2020-12-13_18h44.51.616,premup-three_ses-02_part-03_label-phase3,3.2.4,Linux x86_64,60
1,left,2.404999733,,,0,,,0,,,1,0,200,183,1,199,0,1,0,2,stim/objects/Instruments/clarinet2.png,,0,stim/0.png,0,0,3,2020-12-13_18h44.51.616,premup-three_ses-02_part-03_label-phase3,3.2.4,Linux x86_64,60
1,right,1.31099987,,,0,,,0,,,1,0,200,182,1,199,0,1,0,2,stim/objects/Instruments/chime2.png,,0,stim/0.png,0,0,3,2020-12-13_18h44.51.616,premup-three_ses-02_part-03_label-phase3,3.2.4,Linux x86_64,60
1,left,0.894999981,,,0,,,0,,,1,0,200,184,1,199,0,1,0,2,stim/objects/Instruments/cornet2.png,,0,stim/0.png,0,0,3,2020-12-13_18h44.51.616,premup-three_ses-02_part-03_label-phase3,3.2.4,Linux x86_64,60
1,left,0.848999977,4,0.985999823,0,1,3.43599987,0,1,1.430999994,1,0,200,70,1,199,3,2,0.9,1,stim/objects/HouseObjects/doormat4.png,stim/53.jpeg,5,stim/5.png,3,1,3,2020-12-13_18h44.51.616,premup-three_ses-02_part-03_label-phase3,3.2.4,Linux x86_64,60
1,left,3.292999744,,,0,,,0,,,1,0,200,103,1,199,0,1,0,2,stim/objects/Instruments/banjo.png,,0,stim/0.png,0,0,3,2020-12-13_18h44.51.616,premup-three_ses-02_part-03_label-phase3,3.2.4,Linux x86_64,60
1,right,1.595999956,3,1.411999941,0,3,1.5849998,0,2,0.583999872,1,0,200,6,1,199,1,1,0.5,1,stim/objects/HouseObjects/hairdryer3.png,stim/13.jpeg,1,stim/1.png,3,1,3,2020-12-13_18h44.51.616,premup-three_ses-02_part-03_label-phase3,3.2.4,Linux x86_64,60
1,left,0.92599988,3,2.5849998,0,2,1.224999666,0,2,2.156999826,1,0,200,30,1,199,2,2,0.7,1,stim/objects/HouseObjects/pan3.png,stim/32.jpeg,3,stim/3.png,2,2,3,2020-12-13_18h44.51.616,premup-three_ses-02_part-03_label-phase3,3.2.4,Linux x86_64,60
1,left,0.966999769,,,0,,,0,,,1,0,200,126,1,199,0,1,0,2,stim/objects/Instruments/flutetrans.png,,0,stim/0.png,0,0,3,2020-12-13_18h44.51.616,premup-three_ses-02_part-03_label-phase3,3.2.4,Linux x86_64,60
1,left,0.699999809,4,0.866999865,0,3,1.04799962,0,4,1.180000067,1,0,200,61,1,199,3,1,0.1,1,stim/objects/Instruments/flutetrans4.png,stim/52.jpeg,5,stim/5.png,2,4,3,2020-12-13_18h44.51.616,premup-three_ses-02_part-03_label-phase3,3.2.4,Linux x86_64,60
1,left,0.733999968,,,0,,,0,,,1,0,200,186,1,199,0,1,0,2,stim/objects/Instruments/doublebass2.png,,0,stim/0.png,0,0,3,2020-12-13_18h44.51.616,premup-three_ses-02_part-03_label-phase3,3.2.4,Linux x86_64,60
1,left,0.703000069,1,2.088999748,0,2,1.31799984,0,3,2.119999886,1,0,200,21,1,199,2,1,0.3,1,stim/objects/Instruments/oboe3.png,stim/32.jpeg,3,stim/3.png,2,4,3,2020-12-13_18h44.51.616,premup-three_ses-02_part-03_label-phase3,3.2.4,Linux x86_64,60
1,right,2.268999815,,,0,,,0,,,1,0,200,134,1,199,0,2,0,2,stim/objects/HouseObjects/dishsoap.png,,0,stim/0.png,0,0,3,2020-12-13_18h44.51.616,premup-three_ses-02_part-03_label-phase3,3.2.4,Linux x86_64,60
1,left,1.213999987,,,0,,,0,,,1,0,200,140,1,199,0,1,0,2,stim/objects/Instruments/guitarcase.png,,0,stim/0.png,0,0,3,2020-12-13_18h44.51.616,premup-three_ses-02_part-03_label-phase3,3.2.4,Linux x86_64,60
1,right,1.0849998,2,1.23300004,0,3,1.562000036,0,3,1.021999836,1,0,200,74,1,199,3,2,0.9,1,stim/objects/HouseObjects/glass4.png,stim/53.jpeg,5,stim/5.png,3,4,3,2020-12-13_18h44.51.616,premup-three_ses-02_part-03_label-phase3,3.2.4,Linux x86_64,60
1,right,1.422999859,2,2.079999924,0,2,2.833999872,0,3,0.824999809,1,0,200,82,1,199,3,1,0.9,1,stim/objects/Instruments/marimba4.png,stim/63.jpeg,6,stim/6.png,3,3,3,2020-12-13_18h44.51.616,premup-three_ses-02_part-03_label-phase3,3.2.4,Linux x86_64,60
1,right,2.204999924,2,1.264999866,0,1,2.541999817,0,1,1.040999889,1,0,200,19,1,199,1,2,0.5,1,stim/objects/HouseObjects/match3.png,stim/24.jpeg,2,stim/2.png,4,3,3,2020-12-13_18h44.51.616,premup-three_ses-02_part-03_label-phase3,3.2.4,Linux x86_64,60
1,left,1.01099968,,,0,,,0,,,1,0,200,109,1,199,0,1,0,2,stim/objects/Instruments/cornet.png,,0,stim/0.png,0,0,3,2020-12-13_18h44.51.616,premup-three_ses-02_part-03_label-phase3,3.2.4,Linux x86_64,60
1,right,1.976999998,2,0.877999783,0,3,0.838999748,0,4,0.914000034,1,0,200,31,1,199,2,2,0.7,1,stim/objects/HouseObjects/pitcher3.png,stim/33.jpeg,3,stim/3.png,3,2,3,2020-12-13_18h44.51.616,premup-three_ses-02_part-03_label-phase3,3.2.4,Linux x86_64,60
1,left,0.717999697,,,0,,,0,,,1,0,200,101,1,199,0,1,0,2,stim/objects/Instruments/acousticguitar.png,,0,stim/0.png,0,0,3,2020-12-13_18h44.51.616,premup-three_ses-02_part-03_label-phase3,3.2.4,Linux x86_64,60
1,left,5.889999866,4,1.487999678,0,3,2.370999813,0,4,1.781999826,1,0,200,32,1,199,2,2,0.7,1,stim/objects/HouseObjects/towel3.png,stim/34.jpeg,3,stim/3.png,4,2,3,2020-12-13_18h44.51.616,premup-three_ses-02_part-03_label-phase3,3.2.4,Linux x86_64,60
1,left,0.744999886,,,0,,,0,,,1,0,200,105,1,199,0,1,0,2,stim/objects/Instruments/bassguitar.png,,0,stim/0.png,0,0,3,2020-12-13_18h44.51.616,premup-three_ses-02_part-03_label-phase3,3.2.4,Linux x86_64,60
1,left,1.063999891,2,1.440999985,0,3,1.127999783,0,3,0.854999781,1,0,200,53,1,199,2,2,0.3,1,stim/objects/HouseObjects/bucket4.png,stim/41.jpeg,4,stim/4.png,1,1,3,2020-12-13_18h44.51.616,premup-three_ses-02_part-03_label-phase3,3.2.4,Linux x86_64,60
1,left,0.91899991,3,1.272999763,0,4,4.949999809,0,4,1.128000021,1,0,200,0,1,199,1,1,0.5,1,stim/objects/Instruments/guitarcase3.png,stim/13.jpeg,1,stim/1.png,3,1,3,2020-12-13_18h44.51.616,premup-three_ses-02_part-03_label-phase3,3.2.4,Linux x86_64,60
1,left,1.440999746,,,0,,,0,,,1,0,200,164,1,199,0,1,0,2,stim/objects/Instruments/xylophone.png,,0,stim/0.png,0,0,3,2020-12-13_18h44.51.616,premup-three_ses-02_part-03_label-phase3,3.2.4,Linux x86_64,60
1,left,1.002999783,,,0,,,0,,,1,0,200,177,1,199,0,2,0,2,stim/objects/HouseObjects/barbecuelighter2.png,,0,stim/0.png,0,0,3,2020-12-13_18h44.51.616,premup-three_ses-02_part-03_label-phase3,3.2.4,Linux x86_64,60
1,right,1.965999842,,,0,,,0,,,1,0,200,128,1,199,0,1,0,2,stim/objects/Instruments/gong.png,,0,stim/0.png,0,0,3,2020-12-13_18h44.51.616,premup-three_ses-02_part-03_label-phase3,3.2.4,Linux x86_64,60
1,right,1.13499999,2,1.033999681,0,3,0.913999796,0,4,1.880999804,1,0,200,13,1,199,1,2,0.5,1,stim/objects/Instruments/metronome3.png,stim/24.jpeg,2,stim/2.png,4,2,3,2020-12-13_18h44.51.616,premup-three_ses-02_part-03_label-phase3,3.2.4,Linux x86_64,60
1,left,0.882999897,3,1.197000027,0,1,1.614999771,0,1,0.919999838,1,0,200,60,1,199,3,1,0.1,1,stim/objects/Instruments/flute4.png,stim/51.jpeg,5,stim/5.png,1,3,3,2020-12-13_18h44.51.616,premup-three_ses-02_part-03_label-phase3,3.2.4,Linux x86_64,60
1,right,1.316999912,,,0,,,0,,,1,0,200,195,1,199,0,2,0,2,stim/objects/HouseObjects/clothesdryingrack2.png,,0,stim/0.png,0,0,3,2020-12-13_18h44.51.616,premup-three_ses-02_part-03_label-phase3,3.2.4,Linux x86_64,60
1,right,1.35199976,,,0,,,0,,,1,0,200,136,1,199,0,2,0,2,stim/objects/HouseObjects/dustpan.png,,0,stim/0.png,0,0,3,2020-12-13_18h44.51.616,premup-three_ses-02_part-03_label-phase3,3.2.4,Linux x86_64,60
1,left,1.838999987,,,0,,,0,,,1,0,200,193,1,199,0,2,0,2,stim/objects/HouseObjects/bucket2.png,,0,stim/0.png,0,0,3,2020-12-13_18h44.51.616,premup-three_ses-02_part-03_label-phase3,3.2.4,Linux x86_64,60
1,right,0.97699976,,,0,,,0,,,1,0,200,130,1,199,0,2,0,2,stim/objects/HouseObjects/clothesdryingrack.png,,0,stim/0.png,0,0,3,2020-12-13_18h44.51.616,premup-three_ses-02_part-03_label-phase3,3.2.4,Linux x86_64,60
1,left,0.802999735,4,0.994999886,0,4,3.376999855,0,1,1.57799983,1,0,200,62,1,199,3,1,0.1,1,stim/objects/Instruments/frenchhorn4.png,stim/53.jpeg,5,stim/5.png,3,4,3,2020-12-13_18h44.51.616,premup-three_ses-02_part-03_label-phase3,3.2.4,Linux x86_64,60
1,left,1.234999657,,,0,,,0,,,1,0,200,168,1,199,0,1,0,2,stim/objects/Instruments/banjo2.png,,0,stim/0.png,0,0,3,2020-12-13_18h44.51.616,premup-three_ses-02_part-03_label-phase3,3.2.4,Linux x86_64,60
1,left,0.892999887,3,0.90599966,0,2,2.249999762,0,3,3.990999937,1,0,200,36,1,199,2,2,0.7,1,stim/objects/HouseObjects/ballofstring4.png,stim/34.jpeg,3,stim/3.png,4,4,3,2020-12-13_18h44.51.616,premup-three_ses-02_part-03_label-phase3,3.2.4,Linux x86_64,60
1,left,1.640999794,,,0,,,0,,,1,0,200,198,1,199,0,2,0,2,stim/objects/HouseObjects/cushion2.png,,0,stim/0.png,0,0,3,2020-12-13_18h44.51.616,premup-three_ses-02_part-03_label-phase3,3.2.4,Linux x86_64,60
1,left,1.181999922,,,0,,,0,,,1,0,200,158,1,199,0,2,0,2,stim/objects/HouseObjects/lintroller.png,,0,stim/0.png,0,0,3,2020-12-13_18h44.51.616,premup-three_ses-02_part-03_label-phase3,3.2.4,Linux x86_64,60
1,left,1.162999868,2,1.115999937,0,2,2.71999979,0,2,0.960999727,1,0,200,71,1,199,3,2,0.9,1,stim/objects/HouseObjects/dustpan4.png,stim/54.jpeg,5,stim/5.png,4,2,3,2020-12-13_18h44.51.616,premup-three_ses-02_part-03_label-phase3,3.2.4,Linux x86_64,60
1,left,0.795999765,,,0,,,0,,,1,0,200,129,1,199,0,1,0,2,stim/objects/Instruments/grandpiano.png,,0,stim/0.png,0,0,3,2020-12-13_18h44.51.616,premup-three_ses-02_part-03_label-phase3,3.2.4,Linux x86_64,60
1,left,1.090999842,,,0,,,0,,,1,0,200,115,1,199,0,2,0,2,stim/objects/HouseObjects/blender.png,,0,stim/0.png,0,0,3,2020-12-13_18h44.51.616,premup-three_ses-02_part-03_label-phase3,3.2.4,Linux x86_64,60
1,left,1.11899972,2,1.944999933,0,4,1.232999802,0,4,2.381999969,1,0,200,17,1,199,1,2,0.5,1,stim/objects/HouseObjects/knife3.png,stim/22.jpeg,2,stim/2.png,2,2,3,2020-12-13_18h44.51.616,premup-three_ses-02_part-03_label-phase3,3.2.4,Linux x86_64,60
1,left,1.777999878,4,1.868999958,0,2,3.461999655,0,4,2.213999748,1,0,200,4,1,199,1,1,0.5,1,stim/objects/Instruments/keyboard3.png,stim/13.jpeg,1,stim/1.png,3,2,3,2020-12-13_18h44.51.616,premup-three_ses-02_part-03_label-phase3,3.2.4,Linux x86_64,60
1,right,1.71999979,,,0,,,0,,,1,0,200,173,1,199,0,2,0,2,stim/objects/HouseObjects/vacuumcleaner.png,,0,stim/0.png,0,0,3,2020-12-13_18h44.51.616,premup-three_ses-02_part-03_label-phase3,3.2.4,Linux x86_64,60
1,right,0.904999733,3,1.718999863,0,3,0.837999821,0,3,0.52699995,1,0,200,55,1,199,2,2,0.3,1,stim/objects/HouseObjects/clothesdryingrack4.png,stim/43.jpeg,4,stim/4.png,3,2,3,2020-12-13_18h44.51.616,premup-three_ses-02_part-03_label-phase3,3.2.4,Linux x86_64,60
1,right,2.839999914,,,0,,,0,,,1,0,200,155,1,199,0,2,0,2,stim/objects/HouseObjects/ironingboard.png,,0,stim/0.png,0,0,3,2020-12-13_18h44.51.616,premup-three_ses-02_part-03_label-phase3,3.2.4,Linux x86_64,60
1,right,0.917999983,,,0,,,0,,,1,0,200,133,1,199,0,2,0,2,stim/objects/HouseObjects/cushion.png,,0,stim/0.png,0,0,3,2020-12-13_18h44.51.616,premup-three_ses-02_part-03_label-phase3,3.2.4,Linux x86_64,60
1,left,0.670999765,,,0,,,0,,,1,0,200,102,1,199,0,1,0,2,stim/objects/Instruments/balalaika.png,,0,stim/0.png,0,0,3,2020-12-13_18h44.51.616,premup-three_ses-02_part-03_label-phase3,3.2.4,Linux x86_64,60
1,left,1.102999926,,,0,,,0,,,1,0,200,153,1,199,0,2,0,2,stim/objects/HouseObjects/handvacuum.png,,0,stim/0.png,0,0,3,2020-12-13_18h44.51.616,premup-three_ses-02_part-03_label-phase3,3.2.4,Linux x86_64,60
1,right,1.770999908,,,0,,,0,,,1,0,200,107,1,199,0,1,0,2,stim/objects/Instruments/chime.png,,0,stim/0.png,0,0,3,2020-12-13_18h44.51.616,premup-three_ses-02_part-03_label-phase3,3.2.4,Linux x86_64,60
1,right,1.875999928,,,0,,,0,,,1,0,200,185,1,199,0,1,0,2,stim/objects/Instruments/cymbal2.png,,0,stim/0.png,0,0,3,2020-12-13_18h44.51.616,premup-three_ses-02_part-03_label-phase3,3.2.4,Linux x86_64,60
1,right,1.156999826,2,2.605999947,0,2,1.424999952,0,1,0.480000019,1,0,200,18,1,199,1,2,0.5,1,stim/objects/HouseObjects/lintroller3.png,stim/23.jpeg,2,stim/2.png,3,3,3,2020-12-13_18h44.51.616,premup-three_ses-02_part-03_label-phase3,3.2.4,Linux x86_64,60
1,left,0.80099988,3,1.470999718,0,4,0.944999933,0,3,0.894999743,1,0,200,28,1,199,2,1,0.3,1,stim/objects/Instruments/banjo4.png,stim/31.jpeg,3,stim/3.png,1,3,3,2020-12-13_18h44.51.616,premup-three_ses-02_part-03_label-phase3,3.2.4,Linux x86_64,60
1,left,0.966999769,3,1.126999855,0,4,3.261999846,0,4,1.047999859,1,0,200,72,1,199,3,2,0.9,1,stim/objects/HouseObjects/flyswatter4.png,stim/51.jpeg,5,stim/5.png,1,1,3,2020-12-13_18h44.51.616,premup-three_ses-02_part-03_label-phase3,3.2.4,Linux x86_64,60
1,left,2.626999855,,,0,,,0,,,1,0,200,161,1,199,0,1,0,2,stim/objects/Instruments/oboe.png,,0,stim/0.png,0,0,3,2020-12-13_18h44.51.616,premup-three_ses-02_part-03_label-phase3,3.2.4,Linux x86_64,60
1,right,1.204999924,,,0,,,0,,,1,0,200,152,1,199,0,2,0,2,stim/objects/HouseObjects/handbrush.png,,0,stim/0.png,0,0,3,2020-12-13_18h44.51.616,premup-three_ses-02_part-03_label-phase3,3.2.4,Linux x86_64,60
1,left,1.046000004,,,0,,,0,,,1,0,200,135,1,199,0,2,0,2,stim/objects/HouseObjects/doormat.png,,0,stim/0.png,0,0,3,2020-12-13_18h44.51.616,premup-three_ses-02_part-03_label-phase3,3.2.4,Linux x86_64,60
1,right,1.654999971,3,1.707999945,0,3,1.110999823,0,3,0.400999784,1,0,200,92,1,199,3,2,0.1,1,stim/objects/HouseObjects/knife4.png,stim/61.jpeg,6,stim/6.png,1,3,3,2020-12-13_18h44.51.616,premup-three_ses-02_part-03_label-phase3,3.2.4,Linux x86_64,60
1,left,1.187000036,,,0,,,0,,,1,0,200,166,1,199,0,1,0,2,stim/objects/Instruments/acousticguitar2.png,,0,stim/0.png,0,0,3,2020-12-13_18h44.51.616,premup-three_ses-02_part-03_label-phase3,3.2.4,Linux x86_64,60
1,left,0.931999922,,,0,,,0,,,1,0,200,157,1,199,0,2,0,2,stim/objects/HouseObjects/knife.png,,0,stim/0.png,0,0,3,2020-12-13_18h44.51.616,premup-three_ses-02_part-03_label-phase3,3.2.4,Linux x86_64,60
1,left,1.091999769,2,0.765999794,0,3,2.280999899,0,3,0.782999992,1,0,200,95,1,199,3,2,0.1,1,stim/objects/HouseObjects/pan4.png,stim/64.jpeg,6,stim/6.png,4,2,3,2020-12-13_18h44.51.616,premup-three_ses-02_part-03_label-phase3,3.2.4,Linux x86_64,60
1,right,0.941999912,4,0.75399971,0,2,0.71999979,0,2,0.619999886,1,0,200,39,1,199,2,2,0.7,1,stim/objects/HouseObjects/bleachbottle4.png,stim/33.jpeg,3,stim/3.png,3,2,3,2020-12-13_18h44.51.616,premup-three_ses-02_part-03_label-phase3,3.2.4,Linux x86_64,60
1,left,0.812999964,3,2.162999868,0,2,0.99399972,0,2,0.93599987,1,0,200,26,1,199,2,1,0.3,1,stim/objects/Instruments/acousticguitar4.png,stim/33.jpeg,3,stim/3.png,3,3,3,2020-12-13_18h44.51.616,premup-three_ses-02_part-03_label-phase3,3.2.4,Linux x86_64,60
1,left,0.820999861,,,0,,,0,,,1,0,200,159,1,199,0,2,0,2,stim/objects/HouseObjects/match.png,,0,stim/0.png,0,0,3,2020-12-13_18h44.51.616,premup-three_ses-02_part-03_label-phase3,3.2.4,Linux x86_64,60
1,left,0.929999828,3,0.695999861,0,3,0.91899991,0,3,0.529999971,1,0,200,88,1,199,3,1,0.9,1,stim/objects/Instruments/vuvuzela4.png,stim/61.jpeg,6,stim/6.png,1,4,3,2020-12-13_18h44.51.616,premup-three_ses-02_part-03_label-phase3,3.2.4,Linux x86_64,60
1,left,0.669999838,3,1.286999941,0,2,0.823999643,0,2,0.732999802,1,0,200,46,1,199,2,1,0.7,1,stim/objects/Instruments/doublebass4.png,stim/42.jpeg,4,stim/4.png,2,4,3,2020-12-13_18h44.51.616,premup-three_ses-02_part-03_label-phase3,3.2.4,Linux x86_64,60
1,left,1.195999861,3,0.88499999,0,4,1.102999687,0,2,1.342000008,1,0,200,43,1,199,2,1,0.7,1,stim/objects/Instruments/clarinet4.png,stim/43.jpeg,4,stim/4.png,3,3,3,2020-12-13_18h44.51.616,premup-three_ses-02_part-03_label-phase3,3.2.4,Linux x86_64,60
1,right,2.266999722,3,2.146999836,0,3,0.949999809,0,3,0.239999771,1,0,200,25,1,199,2,1,0.3,1,stim/objects/Instruments/accordion4.png,stim/32.jpeg,3,stim/3.png,2,4,3,2020-12-13_18h44.51.616,premup-three_ses-02_part-03_label-phase3,3.2.4,Linux x86_64,60
1,left,0.885999918,3,0.792999983,0,3,1.032999992,0,3,0.965999842,1,0,200,10,1,199,1,2,0.5,1,stim/objects/Instruments/laud3.png,stim/21.jpeg,2,stim/2.png,1,1,3,2020-12-13_18h44.51.616,premup-three_ses-02_part-03_label-phase3,3.2.4,Linux x86_64,60
1,right,1.725999832,2,1.082000017,0,2,0.65199995,0,2,0.278999805,1,0,200,8,1,199,1,1,0.5,1,stim/objects/HouseObjects/handvacuum3.png,stim/11.jpeg,1,stim/1.png,1,4,3,2020-12-13_18h44.51.616,premup-three_ses-02_part-03_label-phase3,3.2.4,Linux x86_64,60
1,left,0.852999926,4,0.646999836,0,4,0.513999939,0,1,1.397999763,1,0,200,45,1,199,2,1,0.7,1,stim/objects/Instruments/cymbal4.png,stim/41.jpeg,4,stim/4.png,1,2,3,2020-12-13_18h44.51.616,premup-three_ses-02_part-03_label-phase3,3.2.4,Linux x86_64,60
1,left,1.326999664,3,1.122999668,0,2,2.539999723,0,2,2.414999723,1,0,200,16,1,199,1,2,0.5,1,stim/objects/HouseObjects/key3.png,stim/21.jpeg,2,stim/2.png,1,4,3,2020-12-13_18h44.51.616,premup-three_ses-02_part-03_label-phase3,3.2.4,Linux x86_64,60
1,left,0.772999763,2,1.760999918,0,3,1.491999865,0,4,2.166999817,1,0,200,84,1,199,3,1,0.9,1,stim/objects/Instruments/musicsheet4.png,stim/61.jpeg,6,stim/6.png,1,1,3,2020-12-13_18h44.51.616,premup-three_ses-02_part-03_label-phase3,3.2.4,Linux x86_64,60
1,right,1.072999954,3,1.332999706,0,3,2.107999802,0,4,1.411999941,1,0,200,85,1,199,3,1,0.9,1,stim/objects/Instruments/musicstand4.png,stim/62.jpeg,6,stim/6.png,2,2,3,2020-12-13_18h44.51.616,premup-three_ses-02_part-03_label-phase3,3.2.4,Linux x86_64,60
1,left,0.687999725,3,0.696999788,0,2,0.815000057,0,3,0.595999956,1,0,200,34,1,199,2,2,0.7,1,stim/objects/HouseObjects/wateringcan3.png,stim/32.jpeg,3,stim/3.png,2,3,3,2020-12-13_18h44.51.616,premup-three_ses-02_part-03_label-phase3,3.2.4,Linux x86_64,60
1,left,0.761999846,3,0.992999792,0,4,0.926999807,0,3,1.747999668,1,0,200,42,1,199,2,1,0.7,1,stim/objects/Instruments/chime4.png,stim/42.jpeg,4,stim/4.png,2,4,3,2020-12-13_18h44.51.616,premup-three_ses-02_part-03_label-phase3,3.2.4,Linux x86_64,60
1,left,0.813999891,4,1.204999685,0,1,2.625,0,1,0.803999901,1,0,200,44,1,199,2,1,0.7,1,stim/objects/Instruments/cornet4.png,stim/44.jpeg,4,stim/4.png,4,4,3,2020-12-13_18h44.51.616,premup-three_ses-02_part-03_label-phase3,3.2.4,Linux x86_64,60
1,left,2.297999859,3,0.569999695,0,3,0.737999916,0,4,0.899999857,1,0,200,83,1,199,3,1,0.9,1,stim/objects/Instruments/metronome4.png,stim/64.jpeg,6,stim/6.png,4,2,3,2020-12-13_18h44.51.616,premup-three_ses-02_part-03_label-phase3,3.2.4,Linux x86_64,60
1,left,0.823999882,3,0.981999874,0,2,0.759999752,0,2,0.664999962,1,0,200,15,1,199,1,2,0.5,1,stim/objects/HouseObjects/ironingboard3.png,stim/24.jpeg,2,stim/2.png,4,1,3,2020-12-13_18h44.51.616,premup-three_ses-02_part-03_label-phase3,3.2.4,Linux x86_64,60
1,left,1.287999868,4,1.31799984,0,4,1.087999821,0,1,0.727999926,1,0,200,20,1,199,2,1,0.3,1,stim/objects/Instruments/musicstand3.png,stim/31.jpeg,3,stim/3.png,1,2,3,2020-12-13_18h44.51.616,premup-three_ses-02_part-03_label-phase3,3.2.4,Linux x86_64,60
1,left,1.862999916,4,0.714999914,0,2,1.196999788,0,2,1.267999887,1,0,200,66,1,199,3,1,0.1,1,stim/objects/Instruments/harmonica4.png,stim/53.jpeg,5,stim/5.png,3,3,3,2020-12-13_18h44.51.616,premup-three_ses-02_part-03_label-phase3,3.2.4,Linux x86_64,60
1,right,0.806999922,,,0,,,0,,,1,0,200,172,1,199,0,2,0,2,stim/objects/HouseObjects/towel.png,,0,stim/0.png,0,0,3,2020-12-13_18h44.51.616,premup-three_ses-02_part-03_label-phase3,3.2.4,Linux x86_64,60
1,right,0.840999842,,,0,,,0,,,1,0,200,178,1,199,0,2,0,2,stim/objects/HouseObjects/basket2.png,,0,stim/0.png,0,0,3,2020-12-13_18h44.51.616,premup-three_ses-02_part-03_label-phase3,3.2.4,Linux x86_64,60
1,right,1.40899992,,,0,,,0,,,1,0,200,189,1,199,0,1,0,2,stim/objects/Instruments/electricguitar2.png,,0,stim/0.png,0,0,3,2020-12-13_18h44.51.616,premup-three_ses-02_part-03_label-phase3,3.2.4,Linux x86_64,60
1,right,0.723999977,,,0,,,0,,,1,0,200,114,1,199,0,2,0,2,stim/objects/HouseObjects/bleachbottle.png,,0,stim/0.png,0,0,3,2020-12-13_18h44.51.616,premup-three_ses-02_part-03_label-phase3,3.2.4,Linux x86_64,60
1,left,2.25,3,1.188999891,0,3,1.377999783,0,3,0.876999855,1,0,200,52,1,199,2,2,0.3,1,stim/objects/HouseObjects/broom4.png,stim/44.jpeg,4,stim/4.png,4,2,3,2020-12-13_18h44.51.616,premup-three_ses-02_part-03_label-phase3,3.2.4,Linux x86_64,60
1,left,1.235999823,2,1.596999884,0,2,1.643999815,0,1,1.098999977,1,0,200,51,1,199,2,2,0.3,1,stim/objects/HouseObjects/bottle4.png,stim/43.jpeg,4,stim/4.png,3,3,3,2020-12-13_18h44.51.616,premup-three_ses-02_part-03_label-phase3,3.2.4,Linux x86_64,60
1,left,1.294999838,4,0.978999853,0,3,3.928999662,0,4,1.559999943,1,0,200,11,1,199,1,2,0.5,1,stim/objects/Instruments/maraca3.png,stim/22.jpeg,2,stim/2.png,2,3,3,2020-12-13_18h44.51.616,premup-three_ses-02_part-03_label-phase3,3.2.4,Linux x86_64,60
1,left,0.991999865,,,0,,,0,,,1,0,200,170,1,199,0,2,0,2,stim/objects/HouseObjects/pan.png,,0,stim/0.png,0,0,3,2020-12-13_18h44.51.616,premup-three_ses-02_part-03_label-phase3,3.2.4,Linux x86_64,60
1,right,1.04399991,,,0,,,0,,,1,0,200,110,1,199,0,2,0,2,stim/objects/HouseObjects/ashtray.png,,0,stim/0.png,0,0,3,2020-12-13_18h44.51.616,premup-three_ses-02_part-03_label-phase3,3.2.4,Linux x86_64,60
1,left,0.946999788,,,0,,,0,,,1,0,200,162,1,199,0,1,0,2,stim/objects/Instruments/violin.png,,0,stim/0.png,0,0,3,2020-12-13_18h44.51.616,premup-three_ses-02_part-03_label-phase3,3.2.4,Linux x86_64,60
1,left,0.712999821,2,3.243000031,0,2,0.791999817,0,4,0.720000029,1,0,200,86,1,199,3,1,0.9,1,stim/objects/Instruments/oboe4.png,stim/63.jpeg,6,stim/6.png,3,1,3,2020-12-13_18h44.51.616,premup-three_ses-02_part-03_label-phase3,3.2.4,Linux x86_64,60
1,left,0.663999796,,,0,,,0,,,1,0,200,171,1,199,0,2,0,2,stim/objects/HouseObjects/pitcher.png,,0,stim/0.png,0,0,3,2020-12-13_18h44.51.616,premup-three_ses-02_part-03_label-phase3,3.2.4,Linux x86_64,60
1,left,0.955999851,,,0,,,0,,,1,0,200,104,1,199,0,1,0,2,stim/objects/Instruments/bassdrum.png,,0,stim/0.png,0,0,3,2020-12-13_18h44.51.616,premup-three_ses-02_part-03_label-phase3,3.2.4,Linux x86_64,60
1,left,0.913999796,,,0,,,0,,,1,0,200,144,1,199,0,1,0,2,stim/objects/Instruments/keyboard.png,,0,stim/0.png,0,0,3,2020-12-13_18h44.51.616,premup-three_ses-02_part-03_label-phase3,3.2.4,Linux x86_64,60
1,right,0.871999741,,,0,,,0,,,1,0,200,132,1,199,0,2,0,2,stim/objects/HouseObjects/coffee.png,,0,stim/0.png,0,0,3,2020-12-13_18h44.51.616,premup-three_ses-02_part-03_label-phase3,3.2.4,Linux x86_64,60
1,left,0.807999849,,,0,,,0,,,1,0,200,151,1,199,0,2,0,2,stim/objects/HouseObjects/hairdryer.png,,0,stim/0.png,0,0,3,2020-12-13_18h44.51.616,premup-three_ses-02_part-03_label-phase3,3.2.4,Linux x86_64,60
1,left,0.873999834,,,0,,,0,,,1,0,200,150,1,199,0,2,0,2,stim/objects/HouseObjects/glassmop.png,,0,stim/0.png,0,0,3,2020-12-13_18h44.51.616,premup-three_ses-02_part-03_label-phase3,3.2.4,Linux x86_64,60
1,right,0.898999929,3,2.199999809,0,3,5.122999907,0,2,1.672999859,1,0,200,90,1,199,3,2,0.1,1,stim/objects/HouseObjects/ironingboard4.png,stim/63.jpeg,6,stim/6.png,3,4,3,2020-12-13_18h44.51.616,premup-three_ses-02_part-03_label-phase3,3.2.4,Linux x86_64,60
1,right,1.986999989,,,0,,,0,,,1,0,200,139,1,199,0,2,0,2,stim/objects/HouseObjects/glass.png,,0,stim/0.png,0,0,3,2020-12-13_18h44.51.616,premup-three_ses-02_part-03_label-phase3,3.2.4,Linux x86_64,60
1,left,1.549000025,,,0,,,0,,,1,0,200,121,1,199,0,1,0,2,stim/objects/Instruments/doublebass.png,,0,stim/0.png,0,0,3,2020-12-13_18h44.51.616,premup-three_ses-02_part-03_label-phase3,3.2.4,Linux x86_64,60
1,left,1.051999807,3,1.020999908,0,1,1.370999813,0,1,1.328999758,1,0,200,87,1,199,3,1,0.9,1,stim/objects/Instruments/violin4.png,stim/64.jpeg,6,stim/6.png,4,3,3,2020-12-13_18h44.51.616,premup-three_ses-02_part-03_label-phase3,3.2.4,Linux x86_64,60
1,left,0.999999762,3,0.710999727,0,4,0.561999798,0,4,0.473999977,1,0,200,5,1,199,1,1,0.5,1,stim/objects/HouseObjects/glassmop3.png,stim/12.jpeg,1,stim/1.png,2,4,3,2020-12-13_18h44.51.616,premup-three_ses-02_part-03_label-phase3,3.2.4,Linux x86_64,60
1,right,1.017999887,3,0.599999905,0,3,0.64599967,0,3,0.839999914,1,0,200,73,1,199,3,2,0.9,1,stim/objects/HouseObjects/garbagebin4.png,stim/52.jpeg,5,stim/5.png,2,1,3,2020-12-13_18h44.51.616,premup-three_ses-02_part-03_label-phase3,3.2.4,Linux x86_64,60
1,right,1.837999821,2,1.790999889,0,2,0.911000013,0,4,0.625,1,0,200,77,1,199,3,2,0.9,1,stim/objects/HouseObjects/handbrush4.png,stim/52.jpeg,5,stim/5.png,2,1,3,2020-12-13_18h44.51.616,premup-three_ses-02_part-03_label-phase3,3.2.4,Linux x86_64,60
1,left,1.019999981,,,0,,,0,,,1,0,200,143,1,199,0,1,0,2,stim/objects/Instruments/hihat.png,,0,stim/0.png,0,0,3,2020-12-13_18h44.51.616,premup-three_ses-02_part-03_label-phase3,3.2.4,Linux x86_64,60
1,left,1.04399991,4,0.737999916,0,3,0.699999809,0,3,0.436999798,1,0,200,64,1,199,3,1,0.1,1,stim/objects/Instruments/grandpiano4.png,stim/51.jpeg,5,stim/5.png,1,4,3,2020-12-13_18h44.51.616,premup-three_ses-02_part-03_label-phase3,3.2.4,Linux x86_64,60
1,left,0.813999891,3,1.369999886,0,2,0.955999851,0,4,1.883999825,1,0,200,99,1,199,3,2,0.1,1,stim/objects/HouseObjects/wateringcan4.png,stim/64.jpeg,6,stim/6.png,4,2,3,2020-12-13_18h44.51.616,premup-three_ses-02_part-03_label-phase3,3.2.4,Linux x86_64,60
1,right,2.684999943,3,1.291999817,0,3,0.746999741,0,3,0.319999933,1,0,200,91,1,199,3,2,0.1,1,stim/objects/HouseObjects/key4.png,stim/64.jpeg,6,stim/6.png,4,4,3,2020-12-13_18h44.51.616,premup-three_ses-02_part-03_label-phase3,3.2.4,Linux x86_64,60
1,left,1.312999725,3,0.726999998,0,3,1.315999746,0,3,1.395999908,1,0,200,78,1,199,3,2,0.9,1,stim/objects/HouseObjects/handvacuum4.png,stim/53.jpeg,5,stim/5.png,3,3,3,2020-12-13_18h44.51.616,premup-three_ses-02_part-03_label-phase3,3.2.4,Linux x86_64,60
1,left,0.823999643,,,0,,,0,,,1,0,200,108,1,199,0,1,0,2,stim/objects/Instruments/clarinet.png,,0,stim/0.png,0,0,3,2020-12-13_18h44.51.616,premup-three_ses-02_part-03_label-phase3,3.2.4,Linux x86_64,60
1,left,0.82799983,,,0,,,0,,,1,0,200,145,1,199,0,1,0,2,stim/objects/Instruments/laud.png,,0,stim/0.png,0,0,3,2020-12-13_18h44.51.616,premup-three_ses-02_part-03_label-phase3,3.2.4,Linux x86_64,60
1,left,1.048999786,4,0.881000042,0,4,2.115999699,0,1,0.715999842,1,0,200,37,1,199,2,2,0.7,1,stim/objects/HouseObjects/barbecuelighter4.png,stim/31.jpeg,3,stim/3.png,1,1,3,2020-12-13_18h44.51.616,premup-three_ses-02_part-03_label-phase3,3.2.4,Linux x86_64,60
1,left,1.399999857,4,1.786999702,0,2,1.28399992,0,4,0.912999868,1,0,200,67,1,199,3,1,0.1,1,stim/objects/Instruments/harp4.png,stim/54.jpeg,5,stim/5.png,4,2,3,2020-12-13_18h44.51.616,premup-three_ses-02_part-03_label-phase3,3.2.4,Linux x86_64,60
1,left,0.947999954,2,3.244999886,0,4,0.754999876,0,4,0.898999929,1,0,200,79,1,199,3,2,0.9,1,stim/objects/HouseObjects/iron4.png,stim/54.jpeg,5,stim/5.png,4,2,3,2020-12-13_18h44.51.616,premup-three_ses-02_part-03_label-phase3,3.2.4,Linux x86_64,60
1,left,0.76699996,3,1.436999798,0,3,1.245999813,0,4,0.713999748,1,0,200,40,1,199,2,1,0.7,1,stim/objects/Instruments/bassguitar4.png,stim/44.jpeg,4,stim/4.png,4,1,3,2020-12-13_18h44.51.616,premup-three_ses-02_part-03_label-phase3,3.2.4,Linux x86_64,60
1,left,1.229999781,4,1.4599998,0,2,3.227999926,0,3,0.980999947,1,0,200,29,1,199,2,1,0.3,1,stim/objects/Instruments/bassdrum4.png,stim/32.jpeg,3,stim/3.png,2,3,3,2020-12-13_18h44.51.616,premup-three_ses-02_part-03_label-phase3,3.2.4,Linux x86_64,60
1,right,1.198999882,2,1.522999763,0,4,0.695999861,0,4,0.557999849,1,0,200,38,1,199,2,2,0.7,1,stim/objects/HouseObjects/basket4.png,stim/32.jpeg,3,stim/3.png,2,2,3,2020-12-13_18h44.51.616,premup-three_ses-02_part-03_label-phase3,3.2.4,Linux x86_64,60
1,left,8.362999678,,,0,,,0,,,1,0,200,191,1,199,0,2,0,2,stim/objects/HouseObjects/bottle2.png,,0,stim/0.png,0,0,3,2020-12-13_18h44.51.616,premup-three_ses-02_part-03_label-phase3,3.2.4,Linux x86_64,60
1,right,0.912999868,,,0,,,0,,,1,0,200,194,1,199,0,2,0,2,stim/objects/HouseObjects/clock2.png,,0,stim/0.png,0,0,3,2020-12-13_18h44.51.616,premup-three_ses-02_part-03_label-phase3,3.2.4,Linux x86_64,60
1,right,2.360999823,4,1.358999729,0,2,0.804999828,0,3,1.233999729,1,0,200,80,1,199,3,1,0.9,1,stim/objects/Instruments/laud4.png,stim/61.jpeg,6,stim/6.png,1,2,3,2020-12-13_18h44.51.616,premup-three_ses-02_part-03_label-phase3,3.2.4,Linux x86_64,60
1,right,8.727999926,,,0,,,0,,,1,0,200,165,1,199,0,1,0,2,stim/objects/Instruments/accordion2.png,,0,stim/0.png,0,0,3,2020-12-13_18h44.51.616,premup-three_ses-02_part-03_label-phase3,3.2.4,Linux x86_64,60
1,right,9.445999861,,,0,,,0,,,1,0,200,138,1,199,0,2,0,2,stim/objects/HouseObjects/garbagebin.png,,0,stim/0.png,0,0,3,2020-12-13_18h44.51.616,premup-three_ses-02_part-03_label-phase3,3.2.4,Linux x86_64,60
1,left,1.359999895,,,0,,,0,,,1,0,200,124,1,199,0,1,0,2,stim/objects/Instruments/electricguitar.png,,0,stim/0.png,0,0,3,2020-12-13_18h44.51.616,premup-three_ses-02_part-03_label-phase3,3.2.4,Linux x86_64,60
1,left,1.165999889,4,0.779999733,0,3,1.140999794,0,2,1.108999968,1,0,200,33,1,199,2,2,0.7,1,stim/objects/HouseObjects/vacuumcleaner3.png,stim/31.jpeg,3,stim/3.png,1,3,3,2020-12-13_18h44.51.616,premup-three_ses-02_part-03_label-phase3,3.2.4,Linux x86_64,60
1,right,1.461999893,,,0,,,0,,,1,0,200,118,1,199,0,2,0,2,stim/objects/HouseObjects/bucket.png,,0,stim/0.png,0,0,3,2020-12-13_18h44.51.616,premup-three_ses-02_part-03_label-phase3,3.2.4,Linux x86_64,60
1,left,0.944999695,,,0,,,0,,,1,0,200,163,1,199,0,1,0,2,stim/objects/Instruments/vuvuzela.png,,0,stim/0.png,0,0,3,2020-12-13_18h44.51.616,premup-three_ses-02_part-03_label-phase3,3.2.4,Linux x86_64,60
1,left,1.412999868,,,0,,,0,,,1,0,200,122,1,199,0,1,0,2,stim/objects/Instruments/drums.png,,0,stim/0.png,0,0,3,2020-12-13_18h44.51.616,premup-three_ses-02_part-03_label-phase3,3.2.4,Linux x86_64,60
1,left,0.816999912,4,1.474999905,0,3,0.812999725,0,4,1.254999876,1,0,200,49,1,199,2,1,0.7,1,stim/objects/Instruments/electricguitar4.png,stim/41.jpeg,4,stim/4.png,1,3,3,2020-12-13_18h44.51.616,premup-three_ses-02_part-03_label-phase3,3.2.4,Linux x86_64,60
1,left,1.901999712,,,0,,,0,,,1,0,200,125,1,199,0,1,0,2,stim/objects/Instruments/flute.png,,0,stim/0.png,0,0,3,2020-12-13_18h44.51.616,premup-three_ses-02_part-03_label-phase3,3.2.4,Linux x86_64,60
1,left,0.70299983,3,1.043999672,0,3,2.798999786,0,3,0.863999844,1,0,200,3,1,199,1,1,0.5,1,stim/objects/Instruments/hihat3.png,stim/12.jpeg,1,stim/1.png,2,3,3,2020-12-13_18h44.51.616,premup-three_ses-02_part-03_label-phase3,3.2.4,Linux x86_64,60
1,left,0.734999895,3,0.648000002,0,4,0.682999849,0,4,0.555999756,1,0,200,41,1,199,2,1,0.7,1,stim/objects/Instruments/cello4.png,stim/41.jpeg,4,stim/4.png,1,1,3,2020-12-13_18h44.51.616,premup-three_ses-02_part-03_label-phase3,3.2.4,Linux x86_64,60
1,left,0.797999859,1,1.152999878,0,3,3.279999733,0,3,0.894999981,1,0,200,59,1,199,2,2,0.3,1,stim/objects/HouseObjects/dishsoap4.png,stim/43.jpeg,4,stim/4.png,3,1,3,2020-12-13_18h44.51.616,premup-three_ses-02_part-03_label-phase3,3.2.4,Linux x86_64,60
1,left,2.263999939,,,0,,,0,,,1,0,200,188,1,199,0,1,0,2,stim/objects/Instruments/electricdrumset2.png,,0,stim/0.png,0,0,3,2020-12-13_18h44.51.616,premup-three_ses-02_part-03_label-phase3,3.2.4,Linux x86_64,60
1,right,1.136999846,,,0,,,0,,,1,0,200,149,1,199,0,1,0,2,stim/objects/Instruments/musicsheet.png,,0,stim/0.png,0,0,3,2020-12-13_18h44.51.616,premup-three_ses-02_part-03_label-phase3,3.2.4,Linux x86_64,60
1,left,0.802999973,,,0,,,0,,,1,0,200,127,1,199,0,1,0,2,stim/objects/Instruments/frenchhorn.png,,0,stim/0.png,0,0,3,2020-12-13_18h44.51.616,premup-three_ses-02_part-03_label-phase3,3.2.4,Linux x86_64,60
1,right,0.944999933,,,0,,,0,,,1,0,200,119,1,199,0,2,0,2,stim/objects/HouseObjects/clock.png,,0,stim/0.png,0,0,3,2020-12-13_18h44.51.616,premup-three_ses-02_part-03_label-phase3,3.2.4,Linux x86_64,60
1,right,1.079999924,,,0,,,0,,,1,0,200,190,1,199,0,2,0,2,stim/objects/HouseObjects/blender2.png,,0,stim/0.png,0,0,3,2020-12-13_18h44.51.616,premup-three_ses-02_part-03_label-phase3,3.2.4,Linux x86_64,60
1,right,0.792999983,3,2.31099987,0,3,0.743999958,0,3,0.128999949,1,0,200,58,1,199,2,2,0.3,1,stim/objects/HouseObjects/cushion4.png,stim/42.jpeg,4,stim/4.png,2,2,3,2020-12-13_18h44.51.616,premup-three_ses-02_part-03_label-phase3,3.2.4,Linux x86_64,60
1,left,1.953999758,4,0.922999859,0,3,2.411000013,0,1,2.378000021,1,0,200,12,1,199,1,2,0.5,1,stim/objects/Instruments/marimba3.png,stim/23.jpeg,2,stim/2.png,3,2,3,2020-12-13_18h44.51.616,premup-three_ses-02_part-03_label-phase3,3.2.4,Linux x86_64,60
1,left,1.061999798,4,1.208999872,0,4,1.832999945,0,3,0.818999767,1,0,200,75,1,199,3,2,0.9,1,stim/objects/HouseObjects/glassmop4.png,stim/54.jpeg,5,stim/5.png,4,3,3,2020-12-13_18h44.51.616,premup-three_ses-02_part-03_label-phase3,3.2.4,Linux x86_64,60
1,right,1.914999723,2,0.947999954,0,2,0.92599988,0,3,0.855999708,1,0,200,97,1,199,3,2,0.1,1,stim/objects/HouseObjects/towel4.png,stim/62.jpeg,6,stim/6.png,2,2,3,2020-12-13_18h44.51.616,premup-three_ses-02_part-03_label-phase3,3.2.4,Linux x86_64,60
1,left,2.670999765,1,2.212999821,0,3,1.11500001,0,3,0.546999931,1,0,200,9,1,199,1,1,0.5,1,stim/objects/HouseObjects/iron3.png,stim/12.jpeg,1,stim/1.png,2,2,3,2020-12-13_18h44.51.616,premup-three_ses-02_part-03_label-phase3,3.2.4,Linux x86_64,60
1,right,3.061999798,2,3.0849998,0,3,0.710999966,0,3,0.654000044,1,0,200,56,1,199,2,2,0.3,1,stim/objects/HouseObjects/clothespin4.png,stim/44.jpeg,4,stim/4.png,4,4,3,2020-12-13_18h44.51.616,premup-three_ses-02_part-03_label-phase3,3.2.4,Linux x86_64,60
1,left,1.011999846,,,0,,,0,,,1,0,200,120,1,199,0,1,0,2,stim/objects/Instruments/cymbal.png,,0,stim/0.png,0,0,3,2020-12-13_18h44.51.616,premup-three_ses-02_part-03_label-phase3,3.2.4,Linux x86_64,60
1,left,0.867999792,3,1.332000017,0,2,1.289000034,0,3,1.640999794,1,0,200,47,1,199,2,1,0.7,1,stim/objects/Instruments/drums4.png,stim/43.jpeg,4,stim/4.png,3,4,3,2020-12-13_18h44.51.616,premup-three_ses-02_part-03_label-phase3,3.2.4,Linux x86_64,60
1,right,11.36899996,,,0,,,0,,,1,0,200,174,1,199,0,2,0,2,stim/objects/HouseObjects/wateringcan.png,,0,stim/0.png,0,0,3,2020-12-13_18h44.51.616,premup-three_ses-02_part-03_label-phase3,3.2.4,Linux x86_64,60
1,left,0.812999964,3,1.146999836,0,4,0.733999729,0,4,0.581999779,1,0,200,2,1,199,1,1,0.5,1,stim/objects/Instruments/harp3.png,stim/11.jpeg,1,stim/1.png,1,2,3,2020-12-13_18h44.51.616,premup-three_ses-02_part-03_label-phase3,3.2.4,Linux x86_64,60
1,left,0.740999937,,,0,,,0,,,1,0,200,187,1,199,0,1,0,2,stim/objects/Instruments/drums2.png,,0,stim/0.png,0,0,3,2020-12-13_18h44.51.616,premup-three_ses-02_part-03_label-phase3,3.2.4,Linux x86_64,60
1,left,0.777999878,,,0,,,0,,,1,0,200,106,1,199,0,1,0,2,stim/objects/Instruments/cello.png,,0,stim/0.png,0,0,3,2020-12-13_18h44.51.616,premup-three_ses-02_part-03_label-phase3,3.2.4,Linux x86_64,60
1,left,1.705999851,3,0.573999882,0,4,0.561999798,0,3,1.278999805,1,0,200,54,1,199,2,2,0.3,1,stim/objects/HouseObjects/clock4.png,stim/42.jpeg,4,stim/4.png,2,2,3,2020-12-13_18h44.51.616,premup-three_ses-02_part-03_label-phase3,3.2.4,Linux x86_64,60
1,left,1.012999773,3,0.682999849,0,3,0.457999706,0,4,0.580999851,1,0,200,24,1,199,2,1,0.3,1,stim/objects/Instruments/xylophone3.png,stim/31.jpeg,3,stim/3.png,1,3,3,2020-12-13_18h44.51.616,premup-three_ses-02_part-03_label-phase3,3.2.4,Linux x86_64,60
1,left,2.617999792,,,0,,,0,,,1,0,200,100,1,199,0,1,0,2,stim/objects/Instruments/accordion.png,,0,stim/0.png,0,0,3,2020-12-13_18h44.51.616,premup-three_ses-02_part-03_label-phase3,3.2.4,Linux x86_64,60
1,left,0.749999762,4,0.772999763,0,4,1.49000001,0,3,0.994999886,1,0,200,48,1,199,2,1,0.7,1,stim/objects/Instruments/electricdrumset4.png,stim/44.jpeg,4,stim/4.png,4,3,3,2020-12-13_18h44.51.616,premup-three_ses-02_part-03_label-phase3,3.2.4,Linux x86_64,60
1,left,1.449999809,3,0.689999819,0,3,1.707999706,0,4,0.8349998,1,0,200,98,1,199,3,2,0.1,1,stim/objects/HouseObjects/vacuumcleaner4.png,stim/63.jpeg,6,stim/6.png,3,4,3,2020-12-13_18h44.51.616,premup-three_ses-02_part-03_label-phase3,3.2.4,Linux x86_64,60
1,right,1.217999935,,,0,,,0,,,1,0,200,196,1,199,0,2,0,2,stim/objects/HouseObjects/clothespin2.png,,0,stim/0.png,0,0,3,2020-12-13_18h44.51.616,premup-three_ses-02_part-03_label-phase3,3.2.4,Linux x86_64,60
1,right,1.092000008,,,0,,,0,,,1,0,200,141,1,199,0,1,0,2,stim/objects/Instruments/harmonica.png,,0,stim/0.png,0,0,3,2020-12-13_18h44.51.616,premup-three_ses-02_part-03_label-phase3,3.2.4,Linux x86_64,60
1,right,0.820999861,,,0,,,0,,,1,0,200,179,1,199,0,2,0,2,stim/objects/HouseObjects/bleachbottle2.png,,0,stim/0.png,0,0,3,2020-12-13_18h44.51.616,premup-three_ses-02_part-03_label-phase3,3.2.4,Linux x86_64,60
1,left,0.795999765,,,0,,,0,,,1,0,200,156,1,199,0,2,0,2,stim/objects/HouseObjects/key.png,,0,stim/0.png,0,0,3,2020-12-13_18h44.51.616,premup-three_ses-02_part-03_label-phase3,3.2.4,Linux x86_64,60
1,right,0.932999849,,,0,,,0,,,1,0,200,116,1,199,0,2,0,2,stim/objects/HouseObjects/bottle.png,,0,stim/0.png,0,0,3,2020-12-13_18h44.51.616,premup-three_ses-02_part-03_label-phase3,3.2.4,Linux x86_64,60
1,right,1.531999826,2,1.581999779,0,2,0.797999859,0,2,0.275999784,1,0,200,7,1,199,1,1,0.5,1,stim/objects/HouseObjects/handbrush3.png,stim/14.jpeg,1,stim/1.png,4,2,3,2020-12-13_18h44.51.616,premup-three_ses-02_part-03_label-phase3,3.2.4,Linux x86_64,60
1,left,1.204999924,,,0,,,0,,,1,0,200,137,1,199,0,2,0,2,stim/objects/HouseObjects/flyswatter.png,,0,stim/0.png,0,0,3,2020-12-13_18h44.51.616,premup-three_ses-02_part-03_label-phase3,3.2.4,Linux x86_64,60
1,right,2.677999735,3,1.305999756,0,4,1.240999937,0,4,0.306999683,1,0,200,96,1,199,3,2,0.1,1,stim/objects/HouseObjects/pitcher4.png,stim/61.jpeg,6,stim/6.png,1,4,3,2020-12-13_18h44.51.616,premup-three_ses-02_part-03_label-phase3,3.2.4,Linux x86_64,60
