key_resp_trial.keys,key_resp_trial.rt,trial_acc,trial_index,iterations.thisRepN,iterations.thisTrialN,iterations.thisN,iterations.thisIndex,iterations.ran,iterations.order,task_innerloop.thisRepN,task_innerloop.thisTrialN,task_innerloop.thisN,task_innerloop.thisIndex,task_innerloop.ran,task_innerloop.order,scn_condition,scn_cat,scn_inst,scn_file,obj_cat,obj_cat_num,obj_file,trial_cond,quadrant,obj_x,obj_y,corr_ans,participant,date,expName,psychopyVersion,OS,frameRate,slider.response,slider.rt,slider_2.response,slider_2.rt,ratings.thisRepN,ratings.thisTrialN,ratings.thisN,ratings.thisIndex,ratings.ran,ratings.order,obj_cat_top,min_resp_top,max_resp_top,obj_cat_bottom,min_resp_bottom,max_resp_bottom,enc_trials.thisRepN,enc_trials.thisTrialN,enc_trials.thisN,enc_trials.thisIndex,enc_trials.ran,enc_trials.order,fillers,ratings_final.thisRepN,ratings_final.thisTrialN,ratings_final.thisN,ratings_final.thisIndex,ratings_final.ran,ratings_final.order
,,0,1,1,0,1,0,1,0,1,0,240,201,1,239,3,6,2,stim/62.jpeg,HouseObjects,1,stim/objects/HouseObjects/clock2.png,0.9,4,0.2,-0.15,left,40,2020-12-13_14h06.57.178,premup-three_ses-02_part-02_label-phase2,3.2.4,Win32,60,,,,,,,,,,,,,,,,,,,,,,,,,,,,,
right,0.799999952,0,2,1,0,1,0,1,0,1,0,240,143,1,239,2,4,4,stim/44.jpeg,HouseObjects,1,stim/objects/HouseObjects/basket2.png,0.7,1,-0.2,0.15,left,40,2020-12-13_14h06.57.178,premup-three_ses-02_part-02_label-phase2,3.2.4,Win32,60,,,,,,,,,,,,,,,,,,,,,,,,,,,,,
left,0.585999966,0,3,1,0,1,0,1,0,1,0,240,24,1,239,1,1,1,stim/11.jpeg,Instruments,2,stim/objects/Instruments/accordion.png,0.5,4,0.2,-0.15,right,40,2020-12-13_14h06.57.178,premup-three_ses-02_part-02_label-phase2,3.2.4,Win32,60,,,,,,,,,,,,,,,,,,,,,,,,,,,,,
left,0.578999996,0,4,1,0,1,0,1,0,1,0,240,119,1,239,2,3,4,stim/34.jpeg,Instruments,2,stim/objects/Instruments/doublebass.png,0.7,4,0.2,-0.15,right,40,2020-12-13_14h06.57.178,premup-three_ses-02_part-02_label-phase2,3.2.4,Win32,60,,,,,,,,,,,,,,,,,,,,,,,,,,,,,
left,0.55099988,1,5,1,0,1,0,1,0,1,0,240,49,1,239,1,2,2,stim/22.jpeg,HouseObjects,1,stim/objects/HouseObjects/blender.png,0.5,2,0.2,0.15,left,40,2020-12-13_14h06.57.178,premup-three_ses-02_part-02_label-phase2,3.2.4,Win32,60,,,,,,,,,,,,,,,,,,,,,,,,,,,,,
left,0.578999996,1,6,1,0,1,0,1,0,1,0,240,82,1,239,2,3,3,stim/33.jpeg,HouseObjects,1,stim/objects/HouseObjects/clothesdryingrack.png,0.3,4,0.2,-0.15,left,40,2020-12-13_14h06.57.178,premup-three_ses-02_part-02_label-phase2,3.2.4,Win32,60,,,,,,,,,,,,,,,,,,,,,,,,,,,,,
right,0.599999905,1,7,1,0,1,0,1,0,1,0,240,93,1,239,2,3,2,stim/32.jpeg,Instruments,2,stim/objects/Instruments/cornet.png,0.7,1,-0.2,0.15,right,40,2020-12-13_14h06.57.178,premup-three_ses-02_part-02_label-phase2,3.2.4,Win32,60,,,,,,,,,,,,,,,,,,,,,,,,,,,,,
right,0.666000128,1,8,1,0,1,0,1,0,1,0,240,166,1,239,3,5,3,stim/53.jpeg,Instruments,2,stim/objects/Instruments/cello2.png,0.9,3,-0.2,-0.15,right,40,2020-12-13_14h06.57.178,premup-three_ses-02_part-02_label-phase2,3.2.4,Win32,60,,,,,,,,,,,,,,,,,,,,,,,,,,,,,
left,0.494999886,0,9,1,0,1,0,1,0,1,0,240,21,1,239,1,1,2,stim/12.jpeg,Instruments,2,stim/objects/Instruments/acousticguitar.png,0.5,2,0.2,0.15,right,40,2020-12-13_14h06.57.178,premup-three_ses-02_part-02_label-phase2,3.2.4,Win32,60,,,,,,,,,,,,,,,,,,,,,,,,,,,,,
left,0.537999868,0,10,1,0,1,0,1,0,1,0,240,236,1,239,3,6,1,stim/61.jpeg,Instruments,2,stim/objects/Instruments/clarinet2.png,0.1,4,0.2,-0.15,right,40,2020-12-13_14h06.57.178,premup-three_ses-02_part-02_label-phase2,3.2.4,Win32,60,,,,,,,,,,,,,,,,,,,,,,,,,,,,,
left,0.519999981,1,11,1,0,1,0,1,0,1,0,240,203,1,239,3,6,4,stim/64.jpeg,HouseObjects,1,stim/objects/HouseObjects/clothespin2.png,0.9,4,0.2,-0.15,left,40,2020-12-13_14h06.57.178,premup-three_ses-02_part-02_label-phase2,3.2.4,Win32,60,,,,,,,,,,,,,,,,,,,,,,,,,,,,,
right,0.578999996,1,12,1,0,1,0,1,0,1,0,240,71,1,239,1,2,4,stim/24.jpeg,Instruments,2,stim/objects/Instruments/chime.png,0.5,1,-0.2,0.15,right,40,2020-12-13_14h06.57.178,premup-three_ses-02_part-02_label-phase2,3.2.4,Win32,60,,,,,,,,,,,,,,,,,,,,,,,,,,,,,
left,0.506999969,0,13,1,0,1,0,1,0,1,0,240,65,1,239,1,2,2,stim/22.jpeg,Instruments,2,stim/objects/Instruments/bassguitar.png,0.5,1,-0.2,0.15,right,40,2020-12-13_14h06.57.178,premup-three_ses-02_part-02_label-phase2,3.2.4,Win32,60,,,,,,,,,,,,,,,,,,,,,,,,,,,,,
left,0.648000002,1,14,1,0,1,0,1,0,1,0,240,214,1,239,3,6,3,stim/63.jpeg,HouseObjects,1,stim/objects/HouseObjects/clothesdryingrack2.png,0.9,4,0.2,-0.15,left,40,2020-12-13_14h06.57.178,premup-three_ses-02_part-02_label-phase2,3.2.4,Win32,60,,,,,,,,,,,,,,,,,,,,,,,,,,,,,
right,0.596999884,0,15,1,0,1,0,1,0,1,0,240,40,1,239,1,2,1,stim/21.jpeg,HouseObjects,1,stim/objects/HouseObjects/bleachbottle.png,0.5,1,-0.2,0.15,left,40,2020-12-13_14h06.57.178,premup-three_ses-02_part-02_label-phase2,3.2.4,Win32,60,,,,,,,,,,,,,,,,,,,,,,,,,,,,,
left,0.580999851,1,16,1,0,1,0,1,0,1,0,240,42,1,239,1,2,3,stim/23.jpeg,HouseObjects,1,stim/objects/HouseObjects/bottle.png,0.5,1,-0.2,0.15,left,40,2020-12-13_14h06.57.178,premup-three_ses-02_part-02_label-phase2,3.2.4,Win32,60,,,,,,,,,,,,,,,,,,,,,,,,,,,,,
right,0.649999857,0,17,1,0,1,0,1,0,1,0,240,2,1,239,1,1,3,stim/13.jpeg,HouseObjects,1,stim/objects/HouseObjects/barbecuelighter.png,0.5,3,-0.2,-0.15,left,40,2020-12-13_14h06.57.178,premup-three_ses-02_part-02_label-phase2,3.2.4,Win32,60,,,,,,,,,,,,,,,,,,,,,,,,,,,,,
left,0.580999851,1,18,1,0,1,0,1,0,1,0,240,142,1,239,2,4,3,stim/43.jpeg,HouseObjects,1,stim/objects/HouseObjects/barbecuelighter2.png,0.7,4,0.2,-0.15,left,40,2020-12-13_14h06.57.178,premup-three_ses-02_part-02_label-phase2,3.2.4,Win32,60,,,,,,,,,,,,,,,,,,,,,,,,,,,,,
right,0.66899991,1,19,1,0,1,0,1,0,1,0,240,118,1,239,2,3,3,stim/33.jpeg,Instruments,2,stim/objects/Instruments/cymbal.png,0.7,1,-0.2,0.15,right,40,2020-12-13_14h06.57.178,premup-three_ses-02_part-02_label-phase2,3.2.4,Win32,60,,,,,,,,,,,,,,,,,,,,,,,,,,,,,
left,0.635999918,1,20,1,0,1,0,1,0,1,0,240,231,1,239,3,6,4,stim/64.jpeg,HouseObjects,1,stim/objects/HouseObjects/clothespin2.png,0.9,3,-0.2,-0.15,left,40,2020-12-13_14h06.57.178,premup-three_ses-02_part-02_label-phase2,3.2.4,Win32,60,,,,,,,,,,,,,,,,,,,,,,,,,,,,,
right,0.622999907,1,21,1,0,1,0,1,0,1,0,240,185,1,239,3,5,2,stim/52.jpeg,Instruments,2,stim/objects/Instruments/bassguitar2.png,0.9,3,-0.2,-0.15,right,40,2020-12-13_14h06.57.178,premup-three_ses-02_part-02_label-phase2,3.2.4,Win32,60,,,,,,,,,,,,,,,,,,,,,,,,,,,,,
left,0.740999937,0,22,1,0,1,0,1,0,1,0,240,113,1,239,2,3,2,stim/32.jpeg,Instruments,2,stim/objects/Instruments/cornet.png,0.7,3,-0.2,-0.15,right,40,2020-12-13_14h06.57.178,premup-three_ses-02_part-02_label-phase2,3.2.4,Win32,60,,,,,,,,,,,,,,,,,,,,,,,,,,,,,
left,0.649999857,1,23,1,0,1,0,1,0,1,0,240,15,1,239,1,1,4,stim/14.jpeg,HouseObjects,1,stim/objects/HouseObjects/basket.png,0.5,3,-0.2,-0.15,left,40,2020-12-13_14h06.57.178,premup-three_ses-02_part-02_label-phase2,3.2.4,Win32,60,,,,,,,,,,,,,,,,,,,,,,,,,,,,,
left,0.568000078,1,24,1,0,1,0,1,0,1,0,240,10,1,239,1,1,3,stim/13.jpeg,HouseObjects,1,stim/objects/HouseObjects/barbecuelighter.png,0.5,4,0.2,-0.15,left,40,2020-12-13_14h06.57.178,premup-three_ses-02_part-02_label-phase2,3.2.4,Win32,60,,,,,,,,,,,,,,,,,,,,,,,,,,,,,
right,0.60800004,0,25,1,0,1,0,1,0,1,0,240,131,1,239,2,4,4,stim/44.jpeg,HouseObjects,1,stim/objects/HouseObjects/basket2.png,0.7,3,-0.2,-0.15,left,40,2020-12-13_14h06.57.178,premup-three_ses-02_part-02_label-phase2,3.2.4,Win32,60,,,,,,,,,,,,,,,,,,,,,,,,,,,,,
left,0.542000055,1,26,1,0,1,0,1,0,1,0,240,233,1,239,3,6,2,stim/62.jpeg,HouseObjects,1,stim/objects/HouseObjects/clock2.png,0.9,1,-0.2,0.15,left,40,2020-12-13_14h06.57.178,premup-three_ses-02_part-02_label-phase2,3.2.4,Win32,60,,,,,,,,,,,,,,,,,,,,,,,,,,,,,
left,0.635999918,0,27,1,0,1,0,1,0,1,0,240,25,1,239,1,1,2,stim/12.jpeg,Instruments,2,stim/objects/Instruments/acousticguitar.png,0.5,2,0.2,0.15,right,40,2020-12-13_14h06.57.178,premup-three_ses-02_part-02_label-phase2,3.2.4,Win32,60,,,,,,,,,,,,,,,,,,,,,,,,,,,,,
left,0.525999784,1,28,1,0,1,0,1,0,1,0,240,17,1,239,1,1,2,stim/12.jpeg,HouseObjects,1,stim/objects/HouseObjects/ballofstring.png,0.5,4,0.2,-0.15,left,40,2020-12-13_14h06.57.178,premup-three_ses-02_part-02_label-phase2,3.2.4,Win32,60,,,,,,,,,,,,,,,,,,,,,,,,,,,,,
right,0.628999949,1,29,1,0,1,0,1,0,1,0,240,173,1,239,3,5,2,stim/52.jpeg,Instruments,2,stim/objects/Instruments/bassguitar2.png,0.9,1,-0.2,0.15,right,40,2020-12-13_14h06.57.178,premup-three_ses-02_part-02_label-phase2,3.2.4,Win32,60,,,,,,,,,,,,,,,,,,,,,,,,,,,,,
left,0.565999985,0,30,1,0,1,0,1,0,1,0,240,167,1,239,3,5,4,stim/54.jpeg,Instruments,2,stim/objects/Instruments/chime2.png,0.9,4,0.2,-0.15,right,40,2020-12-13_14h06.57.178,premup-three_ses-02_part-02_label-phase2,3.2.4,Win32,60,,,,,,,,,,,,,,,,,,,,,,,,,,,,,
right,0.546999931,1,31,1,0,1,0,1,0,1,0,240,169,1,239,3,5,2,stim/52.jpeg,Instruments,2,stim/objects/Instruments/bassguitar2.png,0.9,3,-0.2,-0.15,right,40,2020-12-13_14h06.57.178,premup-three_ses-02_part-02_label-phase2,3.2.4,Win32,60,,,,,,,,,,,,,,,,,,,,,,,,,,,,,
left,0.619999886,0,32,1,0,1,0,1,0,1,0,240,70,1,239,1,2,3,stim/23.jpeg,Instruments,2,stim/objects/Instruments/cello.png,0.5,4,0.2,-0.15,right,40,2020-12-13_14h06.57.178,premup-three_ses-02_part-02_label-phase2,3.2.4,Win32,60,,,,,,,,,,,,,,,,,,,,,,,,,,,,,
left,0.907000065,0,33,1,0,1,0,1,0,1,0,240,77,1,239,1,2,2,stim/22.jpeg,Instruments,2,stim/objects/Instruments/bassguitar.png,0.5,1,-0.2,0.15,right,40,2020-12-13_14h06.57.178,premup-three_ses-02_part-02_label-phase2,3.2.4,Win32,60,,,,,,,,,,,,,,,,,,,,,,,,,,,,,
right,0.479999781,0,34,1,0,1,0,1,0,1,0,240,160,1,239,3,5,1,stim/51.jpeg,HouseObjects,1,stim/objects/HouseObjects/bleachbottle2.png,0.1,1,-0.2,0.15,left,40,2020-12-13_14h06.57.178,premup-three_ses-02_part-02_label-phase2,3.2.4,Win32,60,,,,,,,,,,,,,,,,,,,,,,,,,,,,,
left,0.585999966,0,35,1,0,1,0,1,0,1,0,240,22,1,239,1,1,3,stim/13.jpeg,Instruments,2,stim/objects/Instruments/balalaika.png,0.5,2,0.2,0.15,right,40,2020-12-13_14h06.57.178,premup-three_ses-02_part-02_label-phase2,3.2.4,Win32,60,,,,,,,,,,,,,,,,,,,,,,,,,,,,,
left,0.572999954,1,36,1,0,1,0,1,0,1,0,240,0,1,239,1,1,1,stim/11.jpeg,HouseObjects,1,stim/objects/HouseObjects/ashtray.png,0.5,2,0.2,0.15,left,40,2020-12-13_14h06.57.178,premup-three_ses-02_part-02_label-phase2,3.2.4,Win32,60,,,,,,,,,,,,,,,,,,,,,,,,,,,,,
right,0.865999937,0,37,1,0,1,0,1,0,1,0,240,139,1,239,2,4,4,stim/44.jpeg,HouseObjects,1,stim/objects/HouseObjects/basket2.png,0.7,2,0.2,0.15,left,40,2020-12-13_14h06.57.178,premup-three_ses-02_part-02_label-phase2,3.2.4,Win32,60,,,,,,,,,,,,,,,,,,,,,,,,,,,,,
left,0.562000036,0,38,1,0,1,0,1,0,1,0,240,35,1,239,1,1,4,stim/14.jpeg,Instruments,2,stim/objects/Instruments/banjo.png,0.5,2,0.2,0.15,right,40,2020-12-13_14h06.57.178,premup-three_ses-02_part-02_label-phase2,3.2.4,Win32,60,,,,,,,,,,,,,,,,,,,,,,,,,,,,,
left,0.601000071,1,39,1,0,1,0,1,0,1,0,240,138,1,239,2,4,3,stim/43.jpeg,HouseObjects,1,stim/objects/HouseObjects/barbecuelighter2.png,0.7,2,0.2,0.15,left,40,2020-12-13_14h06.57.178,premup-three_ses-02_part-02_label-phase2,3.2.4,Win32,60,,,,,,,,,,,,,,,,,,,,,,,,,,,,,
left,0.501999855,0,40,1,0,1,0,1,0,1,0,240,158,1,239,2,4,3,stim/43.jpeg,Instruments,2,stim/objects/Instruments/balalaika2.png,0.3,2,0.2,0.15,right,40,2020-12-13_14h06.57.178,premup-three_ses-02_part-02_label-phase2,3.2.4,Win32,60,,,,,,,,,,,,,,,,,,,,,,,,,,,,,
right,0.814999819,1,41,1,0,1,0,1,0,1,0,240,75,1,239,1,2,4,stim/24.jpeg,Instruments,2,stim/objects/Instruments/chime.png,0.5,1,-0.2,0.15,right,40,2020-12-13_14h06.57.178,premup-three_ses-02_part-02_label-phase2,3.2.4,Win32,60,,,,,,,,,,,,,,,,,,,,,,,,,,,,,
right,0.796999931,1,42,1,0,1,0,1,0,1,0,240,179,1,239,3,5,4,stim/54.jpeg,Instruments,2,stim/objects/Instruments/chime2.png,0.9,4,0.2,-0.15,right,40,2020-12-13_14h06.57.178,premup-three_ses-02_part-02_label-phase2,3.2.4,Win32,60,,,,,,,,,,,,,,,,,,,,,,,,,,,,,
right,0.804999828,0,43,1,0,1,0,1,0,1,0,240,90,1,239,2,3,3,stim/33.jpeg,HouseObjects,1,stim/objects/HouseObjects/clothesdryingrack.png,0.3,3,-0.2,-0.15,left,40,2020-12-13_14h06.57.178,premup-three_ses-02_part-02_label-phase2,3.2.4,Win32,60,,,,,,,,,,,,,,,,,,,,,,,,,,,,,
,,0,44,1,0,1,0,1,0,1,0,240,34,1,239,1,1,3,stim/13.jpeg,Instruments,2,stim/objects/Instruments/balalaika.png,0.5,4,0.2,-0.15,right,40,2020-12-13_14h06.57.178,premup-three_ses-02_part-02_label-phase2,3.2.4,Win32,60,,,,,,,,,,,,,,,,,,,,,,,,,,,,,
left,0.536999941,0,45,1,0,1,0,1,0,1,0,240,150,1,239,2,4,3,stim/43.jpeg,Instruments,2,stim/objects/Instruments/balalaika2.png,0.3,3,-0.2,-0.15,right,40,2020-12-13_14h06.57.178,premup-three_ses-02_part-02_label-phase2,3.2.4,Win32,60,,,,,,,,,,,,,,,,,,,,,,,,,,,,,
right,0.789999962,1,46,1,0,1,0,1,0,1,0,240,104,1,239,2,3,1,stim/31.jpeg,Instruments,2,stim/objects/Instruments/clarinet.png,0.7,1,-0.2,0.15,right,40,2020-12-13_14h06.57.178,premup-three_ses-02_part-02_label-phase2,3.2.4,Win32,60,,,,,,,,,,,,,,,,,,,,,,,,,,,,,
right,0.565999985,1,47,1,0,1,0,1,0,1,0,240,152,1,239,2,4,1,stim/41.jpeg,Instruments,2,stim/objects/Instruments/accordion2.png,0.3,3,-0.2,-0.15,right,40,2020-12-13_14h06.57.178,premup-three_ses-02_part-02_label-phase2,3.2.4,Win32,60,,,,,,,,,,,,,,,,,,,,,,,,,,,,,
left,0.654999733,0,48,1,0,1,0,1,0,1,0,240,108,1,239,2,3,1,stim/31.jpeg,Instruments,2,stim/objects/Instruments/clarinet.png,0.7,4,0.2,-0.15,right,40,2020-12-13_14h06.57.178,premup-three_ses-02_part-02_label-phase2,3.2.4,Win32,60,,,,,,,,,,,,,,,,,,,,,,,,,,,,,
left,0.539999962,1,49,1,0,1,0,1,0,1,0,240,225,1,239,3,6,2,stim/62.jpeg,HouseObjects,1,stim/objects/HouseObjects/clock2.png,0.9,4,0.2,-0.15,left,40,2020-12-13_14h06.57.178,premup-three_ses-02_part-02_label-phase2,3.2.4,Win32,60,,,,,,,,,,,,,,,,,,,,,,,,,,,,,
left,0.650000095,0,50,1,0,1,0,1,0,1,0,240,73,1,239,1,2,2,stim/22.jpeg,Instruments,2,stim/objects/Instruments/bassguitar.png,0.5,2,0.2,0.15,right,40,2020-12-13_14h06.57.178,premup-three_ses-02_part-02_label-phase2,3.2.4,Win32,60,,,,,,,,,,,,,,,,,,,,,,,,,,,,,
left,0.590000153,0,51,1,0,1,0,1,0,1,0,240,78,1,239,1,2,3,stim/23.jpeg,Instruments,2,stim/objects/Instruments/cello.png,0.5,2,0.2,0.15,right,40,2020-12-13_14h06.57.178,premup-three_ses-02_part-02_label-phase2,3.2.4,Win32,60,,,,,,,,,,,,,,,,,,,,,,,,,,,,,
right,0.503999949,1,52,1,0,1,0,1,0,1,0,240,174,1,239,3,5,3,stim/53.jpeg,Instruments,2,stim/objects/Instruments/cello2.png,0.9,1,-0.2,0.15,right,40,2020-12-13_14h06.57.178,premup-three_ses-02_part-02_label-phase2,3.2.4,Win32,60,,,,,,,,,,,,,,,,,,,,,,,,,,,,,
left,0.532000065,1,53,1,0,1,0,1,0,1,0,240,6,1,239,1,1,3,stim/13.jpeg,HouseObjects,1,stim/objects/HouseObjects/barbecuelighter.png,0.5,1,-0.2,0.15,left,40,2020-12-13_14h06.57.178,premup-three_ses-02_part-02_label-phase2,3.2.4,Win32,60,,,,,,,,,,,,,,,,,,,,,,,,,,,,,
right,0.591999769,0,54,1,0,1,0,1,0,1,0,240,4,1,239,1,1,1,stim/11.jpeg,HouseObjects,1,stim/objects/HouseObjects/ashtray.png,0.5,2,0.2,0.15,left,40,2020-12-13_14h06.57.178,premup-three_ses-02_part-02_label-phase2,3.2.4,Win32,60,,,,,,,,,,,,,,,,,,,,,,,,,,,,,
right,0.502000093,1,55,1,0,1,0,1,0,1,0,240,64,1,239,1,2,1,stim/21.jpeg,Instruments,2,stim/objects/Instruments/bassdrum.png,0.5,1,-0.2,0.15,right,40,2020-12-13_14h06.57.178,premup-three_ses-02_part-02_label-phase2,3.2.4,Win32,60,,,,,,,,,,,,,,,,,,,,,,,,,,,,,
right,0.858999968,1,56,1,0,1,0,1,0,1,0,240,29,1,239,1,1,2,stim/12.jpeg,Instruments,2,stim/objects/Instruments/acousticguitar.png,0.5,3,-0.2,-0.15,right,40,2020-12-13_14h06.57.178,premup-three_ses-02_part-02_label-phase2,3.2.4,Win32,60,,,,,,,,,,,,,,,,,,,,,,,,,,,,,
left,0.495999813,1,57,1,0,1,0,1,0,1,0,240,207,1,239,3,6,4,stim/64.jpeg,HouseObjects,1,stim/objects/HouseObjects/clothespin2.png,0.9,1,-0.2,0.15,left,40,2020-12-13_14h06.57.178,premup-three_ses-02_part-02_label-phase2,3.2.4,Win32,60,,,,,,,,,,,,,,,,,,,,,,,,,,,,,
left,0.772999763,0,58,1,0,1,0,1,0,1,0,240,154,1,239,2,4,3,stim/43.jpeg,Instruments,2,stim/objects/Instruments/balalaika2.png,0.3,1,-0.2,0.15,right,40,2020-12-13_14h06.57.178,premup-three_ses-02_part-02_label-phase2,3.2.4,Win32,60,,,,,,,,,,,,,,,,,,,,,,,,,,,,,
left,0.64199996,1,59,1,0,1,0,1,0,1,0,240,91,1,239,2,3,4,stim/34.jpeg,HouseObjects,1,stim/objects/HouseObjects/clothespin.png,0.3,4,0.2,-0.15,left,40,2020-12-13_14h06.57.178,premup-three_ses-02_part-02_label-phase2,3.2.4,Win32,60,,,,,,,,,,,,,,,,,,,,,,,,,,,,,
right,0.555999994,1,60,1,0,1,0,1,0,1,0,240,187,1,239,3,5,4,stim/54.jpeg,Instruments,2,stim/objects/Instruments/chime2.png,0.9,2,0.2,0.15,right,40,2020-12-13_14h06.57.178,premup-three_ses-02_part-02_label-phase2,3.2.4,Win32,60,,,,,,,,,,,,,,,,,,,,,,,,,,,,,
,,0,61,1,0,1,0,1,0,1,0,240,37,1,239,1,1,2,stim/12.jpeg,Instruments,2,stim/objects/Instruments/acousticguitar.png,0.5,4,0.2,-0.15,right,40,2020-12-13_14h06.57.178,premup-three_ses-02_part-02_label-phase2,3.2.4,Win32,60,,,,,,,,,,,,,,,,,,,,,,,,,,,,,
left,0.465999842,0,62,1,0,1,0,1,0,1,0,240,193,1,239,3,5,2,stim/52.jpeg,Instruments,2,stim/objects/Instruments/bassguitar2.png,0.9,3,-0.2,-0.15,right,40,2020-12-13_14h06.57.178,premup-three_ses-02_part-02_label-phase2,3.2.4,Win32,60,,,,,,,,,,,,,,,,,,,,,,,,,,,,,
right,0.534999847,1,63,1,0,1,0,1,0,1,0,240,61,1,239,1,2,2,stim/22.jpeg,Instruments,2,stim/objects/Instruments/bassguitar.png,0.5,1,-0.2,0.15,right,40,2020-12-13_14h06.57.178,premup-three_ses-02_part-02_label-phase2,3.2.4,Win32,60,,,,,,,,,,,,,,,,,,,,,,,,,,,,,
left,0.580000162,0,64,1,0,1,0,1,0,1,0,240,155,1,239,2,4,4,stim/44.jpeg,Instruments,2,stim/objects/Instruments/banjo2.png,0.3,3,-0.2,-0.15,right,40,2020-12-13_14h06.57.178,premup-three_ses-02_part-02_label-phase2,3.2.4,Win32,60,,,,,,,,,,,,,,,,,,,,,,,,,,,,,
right,0.578999996,0,65,1,0,1,0,1,0,1,0,240,162,1,239,3,5,3,stim/53.jpeg,HouseObjects,1,stim/objects/HouseObjects/bottle2.png,0.1,2,0.2,0.15,left,40,2020-12-13_14h06.57.178,premup-three_ses-02_part-02_label-phase2,3.2.4,Win32,60,,,,,,,,,,,,,,,,,,,,,,,,,,,,,
left,0.488999844,1,66,1,0,1,0,1,0,1,0,240,136,1,239,2,4,1,stim/41.jpeg,HouseObjects,1,stim/objects/HouseObjects/ashtray2.png,0.7,2,0.2,0.15,left,40,2020-12-13_14h06.57.178,premup-three_ses-02_part-02_label-phase2,3.2.4,Win32,60,,,,,,,,,,,,,,,,,,,,,,,,,,,,,
left,0.730999947,0,67,1,0,1,0,1,0,1,0,240,33,1,239,1,1,2,stim/12.jpeg,Instruments,2,stim/objects/Instruments/acousticguitar.png,0.5,3,-0.2,-0.15,right,40,2020-12-13_14h06.57.178,premup-three_ses-02_part-02_label-phase2,3.2.4,Win32,60,,,,,,,,,,,,,,,,,,,,,,,,,,,,,
left,0.480999708,1,68,1,0,1,0,1,0,1,0,240,209,1,239,3,6,2,stim/62.jpeg,HouseObjects,1,stim/objects/HouseObjects/clock2.png,0.9,1,-0.2,0.15,left,40,2020-12-13_14h06.57.178,premup-three_ses-02_part-02_label-phase2,3.2.4,Win32,60,,,,,,,,,,,,,,,,,,,,,,,,,,,,,
right,0.513000011,1,69,1,0,1,0,1,0,1,0,240,114,1,239,2,3,3,stim/33.jpeg,Instruments,2,stim/objects/Instruments/cymbal.png,0.7,1,-0.2,0.15,right,40,2020-12-13_14h06.57.178,premup-three_ses-02_part-02_label-phase2,3.2.4,Win32,60,,,,,,,,,,,,,,,,,,,,,,,,,,,,,
left,0.467999935,1,70,1,0,1,0,1,0,1,0,240,206,1,239,3,6,3,stim/63.jpeg,HouseObjects,1,stim/objects/HouseObjects/clothesdryingrack2.png,0.9,2,0.2,0.15,left,40,2020-12-13_14h06.57.178,premup-three_ses-02_part-02_label-phase2,3.2.4,Win32,60,,,,,,,,,,,,,,,,,,,,,,,,,,,,,
right,0.829999924,0,71,1,0,1,0,1,0,1,0,240,135,1,239,2,4,4,stim/44.jpeg,HouseObjects,1,stim/objects/HouseObjects/basket2.png,0.7,4,0.2,-0.15,left,40,2020-12-13_14h06.57.178,premup-three_ses-02_part-02_label-phase2,3.2.4,Win32,60,,,,,,,,,,,,,,,,,,,,,,,,,,,,,
right,0.485999823,1,72,1,0,1,0,1,0,1,0,240,92,1,239,2,3,1,stim/31.jpeg,Instruments,2,stim/objects/Instruments/clarinet.png,0.7,1,-0.2,0.15,right,40,2020-12-13_14h06.57.178,premup-three_ses-02_part-02_label-phase2,3.2.4,Win32,60,,,,,,,,,,,,,,,,,,,,,,,,,,,,,
right,0.669999838,0,73,1,0,1,0,1,0,1,0,240,145,1,239,2,4,2,stim/42.jpeg,HouseObjects,1,stim/objects/HouseObjects/ballofstring2.png,0.7,3,-0.2,-0.15,left,40,2020-12-13_14h06.57.178,premup-three_ses-02_part-02_label-phase2,3.2.4,Win32,60,,,,,,,,,,,,,,,,,,,,,,,,,,,,,
right,0.549999714,0,74,1,0,1,0,1,0,1,0,240,87,1,239,2,3,4,stim/34.jpeg,HouseObjects,1,stim/objects/HouseObjects/clothespin.png,0.3,1,-0.2,0.15,left,40,2020-12-13_14h06.57.178,premup-three_ses-02_part-02_label-phase2,3.2.4,Win32,60,,,,,,,,,,,,,,,,,,,,,,,,,,,,,
left,0.514999866,1,75,1,0,1,0,1,0,1,0,240,215,1,239,3,6,4,stim/64.jpeg,HouseObjects,1,stim/objects/HouseObjects/clothespin2.png,0.9,1,-0.2,0.15,left,40,2020-12-13_14h06.57.178,premup-three_ses-02_part-02_label-phase2,3.2.4,Win32,60,,,,,,,,,,,,,,,,,,,,,,,,,,,,,
left,0.639999866,1,76,1,0,1,0,1,0,1,0,240,59,1,239,1,2,4,stim/24.jpeg,HouseObjects,1,stim/objects/HouseObjects/broom.png,0.5,2,0.2,0.15,left,40,2020-12-13_14h06.57.178,premup-three_ses-02_part-02_label-phase2,3.2.4,Win32,60,,,,,,,,,,,,,,,,,,,,,,,,,,,,,
right,0.856999874,1,77,1,0,1,0,1,0,1,0,240,99,1,239,2,3,4,stim/34.jpeg,Instruments,2,stim/objects/Instruments/doublebass.png,0.7,4,0.2,-0.15,right,40,2020-12-13_14h06.57.178,premup-three_ses-02_part-02_label-phase2,3.2.4,Win32,60,,,,,,,,,,,,,,,,,,,,,,,,,,,,,
left,0.797999859,1,78,1,0,1,0,1,0,1,0,240,8,1,239,1,1,1,stim/11.jpeg,HouseObjects,1,stim/objects/HouseObjects/ashtray.png,0.5,2,0.2,0.15,left,40,2020-12-13_14h06.57.178,premup-three_ses-02_part-02_label-phase2,3.2.4,Win32,60,,,,,,,,,,,,,,,,,,,,,,,,,,,,,
right,0.859999895,0,79,1,0,1,0,1,0,1,0,240,80,1,239,2,3,1,stim/31.jpeg,HouseObjects,1,stim/objects/HouseObjects/bucket.png,0.3,3,-0.2,-0.15,left,40,2020-12-13_14h06.57.178,premup-three_ses-02_part-02_label-phase2,3.2.4,Win32,60,,,,,,,,,,,,,,,,,,,,,,,,,,,,,
left,0.691999912,0,80,1,0,1,0,1,0,1,0,240,101,1,239,2,3,2,stim/32.jpeg,Instruments,2,stim/objects/Instruments/cornet.png,0.7,2,0.2,0.15,right,40,2020-12-13_14h06.57.178,premup-three_ses-02_part-02_label-phase2,3.2.4,Win32,60,,,,,,,,,,,,,,,,,,,,,,,,,,,,,
left,0.461999893,0,81,1,0,1,0,1,0,1,0,240,109,1,239,2,3,2,stim/32.jpeg,Instruments,2,stim/objects/Instruments/cornet.png,0.7,1,-0.2,0.15,right,40,2020-12-13_14h06.57.178,premup-three_ses-02_part-02_label-phase2,3.2.4,Win32,60,,,,,,,,,,,,,,,,,,,,,,,,,,,,,
right,0.513999939,1,82,1,0,1,0,1,0,1,0,240,188,1,239,3,5,1,stim/51.jpeg,Instruments,2,stim/objects/Instruments/bassdrum2.png,0.9,1,-0.2,0.15,right,40,2020-12-13_14h06.57.178,premup-three_ses-02_part-02_label-phase2,3.2.4,Win32,60,,,,,,,,,,,,,,,,,,,,,,,,,,,,,
left,0.755999804,0,83,1,0,1,0,1,0,1,0,240,32,1,239,1,1,1,stim/11.jpeg,Instruments,2,stim/objects/Instruments/accordion.png,0.5,2,0.2,0.15,right,40,2020-12-13_14h06.57.178,premup-three_ses-02_part-02_label-phase2,3.2.4,Win32,60,,,,,,,,,,,,,,,,,,,,,,,,,,,,,
left,0.723999977,1,84,1,0,1,0,1,0,1,0,240,123,1,239,2,4,4,stim/44.jpeg,HouseObjects,1,stim/objects/HouseObjects/basket2.png,0.7,1,-0.2,0.15,left,40,2020-12-13_14h06.57.178,premup-three_ses-02_part-02_label-phase2,3.2.4,Win32,60,,,,,,,,,,,,,,,,,,,,,,,,,,,,,
right,0.682999849,1,85,1,0,1,0,1,0,1,0,240,115,1,239,2,3,4,stim/34.jpeg,Instruments,2,stim/objects/Instruments/doublebass.png,0.7,4,0.2,-0.15,right,40,2020-12-13_14h06.57.178,premup-three_ses-02_part-02_label-phase2,3.2.4,Win32,60,,,,,,,,,,,,,,,,,,,,,,,,,,,,,
left,0.71600008,1,86,1,0,1,0,1,0,1,0,240,3,1,239,1,1,4,stim/14.jpeg,HouseObjects,1,stim/objects/HouseObjects/basket.png,0.5,4,0.2,-0.15,left,40,2020-12-13_14h06.57.178,premup-three_ses-02_part-02_label-phase2,3.2.4,Win32,60,,,,,,,,,,,,,,,,,,,,,,,,,,,,,
left,0.78399992,0,87,1,0,1,0,1,0,1,0,240,23,1,239,1,1,4,stim/14.jpeg,Instruments,2,stim/objects/Instruments/banjo.png,0.5,1,-0.2,0.15,right,40,2020-12-13_14h06.57.178,premup-three_ses-02_part-02_label-phase2,3.2.4,Win32,60,,,,,,,,,,,,,,,,,,,,,,,,,,,,,
left,0.802999735,0,88,1,0,1,0,1,0,1,0,240,103,1,239,2,3,4,stim/34.jpeg,Instruments,2,stim/objects/Instruments/doublebass.png,0.7,3,-0.2,-0.15,right,40,2020-12-13_14h06.57.178,premup-three_ses-02_part-02_label-phase2,3.2.4,Win32,60,,,,,,,,,,,,,,,,,,,,,,,,,,,,,
left,0.612999916,0,89,1,0,1,0,1,0,1,0,240,159,1,239,2,4,4,stim/44.jpeg,Instruments,2,stim/objects/Instruments/banjo2.png,0.3,4,0.2,-0.15,right,40,2020-12-13_14h06.57.178,premup-three_ses-02_part-02_label-phase2,3.2.4,Win32,60,,,,,,,,,,,,,,,,,,,,,,,,,,,,,
left,0.687000036,1,90,1,0,1,0,1,0,1,0,240,216,1,239,3,6,1,stim/61.jpeg,HouseObjects,1,stim/objects/HouseObjects/bucket2.png,0.9,1,-0.2,0.15,left,40,2020-12-13_14h06.57.178,premup-three_ses-02_part-02_label-phase2,3.2.4,Win32,60,,,,,,,,,,,,,,,,,,,,,,,,,,,,,
right,0.721999884,1,91,1,0,1,0,1,0,1,0,240,26,1,239,1,1,3,stim/13.jpeg,Instruments,2,stim/objects/Instruments/balalaika.png,0.5,4,0.2,-0.15,right,40,2020-12-13_14h06.57.178,premup-three_ses-02_part-02_label-phase2,3.2.4,Win32,60,,,,,,,,,,,,,,,,,,,,,,,,,,,,,
right,0.619999886,1,92,1,0,1,0,1,0,1,0,240,79,1,239,1,2,4,stim/24.jpeg,Instruments,2,stim/objects/Instruments/chime.png,0.5,1,-0.2,0.15,right,40,2020-12-13_14h06.57.178,premup-three_ses-02_part-02_label-phase2,3.2.4,Win32,60,,,,,,,,,,,,,,,,,,,,,,,,,,,,,
left,0.55099988,1,93,1,0,1,0,1,0,1,0,240,213,1,239,3,6,2,stim/62.jpeg,HouseObjects,1,stim/objects/HouseObjects/clock2.png,0.9,3,-0.2,-0.15,left,40,2020-12-13_14h06.57.178,premup-three_ses-02_part-02_label-phase2,3.2.4,Win32,60,,,,,,,,,,,,,,,,,,,,,,,,,,,,,
left,0.470999956,1,94,1,0,1,0,1,0,1,0,240,224,1,239,3,6,1,stim/61.jpeg,HouseObjects,1,stim/objects/HouseObjects/bucket2.png,0.9,2,0.2,0.15,left,40,2020-12-13_14h06.57.178,premup-three_ses-02_part-02_label-phase2,3.2.4,Win32,60,,,,,,,,,,,,,,,,,,,,,,,,,,,,,
right,0.552999735,1,95,1,0,1,0,1,0,1,0,240,180,1,239,3,5,1,stim/51.jpeg,Instruments,2,stim/objects/Instruments/bassdrum2.png,0.9,2,0.2,0.15,right,40,2020-12-13_14h06.57.178,premup-three_ses-02_part-02_label-phase2,3.2.4,Win32,60,,,,,,,,,,,,,,,,,,,,,,,,,,,,,
right,0.799999714,0,96,1,0,1,0,1,0,1,0,240,163,1,239,3,5,4,stim/54.jpeg,HouseObjects,1,stim/objects/HouseObjects/broom2.png,0.1,4,0.2,-0.15,left,40,2020-12-13_14h06.57.178,premup-three_ses-02_part-02_label-phase2,3.2.4,Win32,60,,,,,,,,,,,,,,,,,,,,,,,,,,,,,
left,0.753000021,1,97,1,0,1,0,1,0,1,0,240,12,1,239,1,1,1,stim/11.jpeg,HouseObjects,1,stim/objects/HouseObjects/ashtray.png,0.5,4,0.2,-0.15,left,40,2020-12-13_14h06.57.178,premup-three_ses-02_part-02_label-phase2,3.2.4,Win32,60,,,,,,,,,,,,,,,,,,,,,,,,,,,,,
right,0.607999802,1,98,1,0,1,0,1,0,1,0,240,69,1,239,1,2,2,stim/22.jpeg,Instruments,2,stim/objects/Instruments/bassguitar.png,0.5,1,-0.2,0.15,right,40,2020-12-13_14h06.57.178,premup-three_ses-02_part-02_label-phase2,3.2.4,Win32,60,,,,,,,,,,,,,,,,,,,,,,,,,,,,,
,,0,99,1,0,1,0,1,0,1,0,240,5,1,239,1,1,2,stim/12.jpeg,HouseObjects,1,stim/objects/HouseObjects/ballofstring.png,0.5,2,0.2,0.15,left,40,2020-12-13_14h06.57.178,premup-three_ses-02_part-02_label-phase2,3.2.4,Win32,60,,,,,,,,,,,,,,,,,,,,,,,,,,,,,
left,0.531999826,1,100,1,0,1,0,1,0,1,0,240,13,1,239,1,1,2,stim/12.jpeg,HouseObjects,1,stim/objects/HouseObjects/ballofstring.png,0.5,1,-0.2,0.15,left,40,2020-12-13_14h06.57.178,premup-three_ses-02_part-02_label-phase2,3.2.4,Win32,60,,,,,,,,,,,,,,,,,,,,,,,,,,,,,
right,0.55099988,0,101,1,0,1,0,1,0,1,0,240,58,1,239,1,2,3,stim/23.jpeg,HouseObjects,1,stim/objects/HouseObjects/bottle.png,0.5,1,-0.2,0.15,left,40,2020-12-13_14h06.57.178,premup-three_ses-02_part-02_label-phase2,3.2.4,Win32,60,,,,,,,,,,,,,,,,,,,,,,,,,,,,,
right,0.65199995,1,102,1,0,1,0,1,0,1,0,240,186,1,239,3,5,3,stim/53.jpeg,Instruments,2,stim/objects/Instruments/cello2.png,0.9,2,0.2,0.15,right,40,2020-12-13_14h06.57.178,premup-three_ses-02_part-02_label-phase2,3.2.4,Win32,60,,,,,,,,,,,,,,,,,,,,,,,,,,,,,
left,0.493999958,0,103,1,0,1,0,1,0,1,0,240,153,1,239,2,4,2,stim/42.jpeg,Instruments,2,stim/objects/Instruments/acousticguitar2.png,0.3,2,0.2,0.15,right,40,2020-12-13_14h06.57.178,premup-three_ses-02_part-02_label-phase2,3.2.4,Win32,60,,,,,,,,,,,,,,,,,,,,,,,,,,,,,
right,0.603999853,0,104,1,0,1,0,1,0,1,0,240,14,1,239,1,1,3,stim/13.jpeg,HouseObjects,1,stim/objects/HouseObjects/barbecuelighter.png,0.5,1,-0.2,0.15,left,40,2020-12-13_14h06.57.178,premup-three_ses-02_part-02_label-phase2,3.2.4,Win32,60,,,,,,,,,,,,,,,,,,,,,,,,,,,,,
left,0.822000027,1,105,1,0,1,0,1,0,1,0,240,55,1,239,1,2,4,stim/24.jpeg,HouseObjects,1,stim/objects/HouseObjects/broom.png,0.5,4,0.2,-0.15,left,40,2020-12-13_14h06.57.178,premup-three_ses-02_part-02_label-phase2,3.2.4,Win32,60,,,,,,,,,,,,,,,,,,,,,,,,,,,,,
right,0.592999935,1,106,1,0,1,0,1,0,1,0,240,116,1,239,2,3,1,stim/31.jpeg,Instruments,2,stim/objects/Instruments/clarinet.png,0.7,3,-0.2,-0.15,right,40,2020-12-13_14h06.57.178,premup-three_ses-02_part-02_label-phase2,3.2.4,Win32,60,,,,,,,,,,,,,,,,,,,,,,,,,,,,,
left,0.480999947,1,107,1,0,1,0,1,0,1,0,240,221,1,239,3,6,2,stim/62.jpeg,HouseObjects,1,stim/objects/HouseObjects/clock2.png,0.9,2,0.2,0.15,left,40,2020-12-13_14h06.57.178,premup-three_ses-02_part-02_label-phase2,3.2.4,Win32,60,,,,,,,,,,,,,,,,,,,,,,,,,,,,,
left,0.573999882,1,108,1,0,1,0,1,0,1,0,240,228,1,239,3,6,1,stim/61.jpeg,HouseObjects,1,stim/objects/HouseObjects/bucket2.png,0.9,3,-0.2,-0.15,left,40,2020-12-13_14h06.57.178,premup-three_ses-02_part-02_label-phase2,3.2.4,Win32,60,,,,,,,,,,,,,,,,,,,,,,,,,,,,,
left,0.483999968,0,109,1,0,1,0,1,0,1,0,240,239,1,239,3,6,4,stim/64.jpeg,Instruments,2,stim/objects/Instruments/doublebass2.png,0.1,3,-0.2,-0.15,right,40,2020-12-13_14h06.57.178,premup-three_ses-02_part-02_label-phase2,3.2.4,Win32,60,,,,,,,,,,,,,,,,,,,,,,,,,,,,,
left,0.563999891,1,110,1,0,1,0,1,0,1,0,240,54,1,239,1,2,3,stim/23.jpeg,HouseObjects,1,stim/objects/HouseObjects/bottle.png,0.5,2,0.2,0.15,left,40,2020-12-13_14h06.57.178,premup-three_ses-02_part-02_label-phase2,3.2.4,Win32,60,,,,,,,,,,,,,,,,,,,,,,,,,,,,,
right,0.526000023,1,111,1,0,1,0,1,0,1,0,240,31,1,239,1,1,4,stim/14.jpeg,Instruments,2,stim/objects/Instruments/banjo.png,0.5,3,-0.2,-0.15,right,40,2020-12-13_14h06.57.178,premup-three_ses-02_part-02_label-phase2,3.2.4,Win32,60,,,,,,,,,,,,,,,,,,,,,,,,,,,,,
left,0.568999767,0,112,1,0,1,0,1,0,1,0,240,60,1,239,1,2,1,stim/21.jpeg,Instruments,2,stim/objects/Instruments/bassdrum.png,0.5,2,0.2,0.15,right,40,2020-12-13_14h06.57.178,premup-three_ses-02_part-02_label-phase2,3.2.4,Win32,60,,,,,,,,,,,,,,,,,,,,,,,,,,,,,
right,0.512999773,1,113,1,0,1,0,1,0,1,0,240,172,1,239,3,5,1,stim/51.jpeg,Instruments,2,stim/objects/Instruments/bassdrum2.png,0.9,1,-0.2,0.15,right,40,2020-12-13_14h06.57.178,premup-three_ses-02_part-02_label-phase2,3.2.4,Win32,60,,,,,,,,,,,,,,,,,,,,,,,,,,,,,
right,0.631999969,1,114,1,0,1,0,1,0,1,0,240,170,1,239,3,5,3,stim/53.jpeg,Instruments,2,stim/objects/Instruments/cello2.png,0.9,2,0.2,0.15,right,40,2020-12-13_14h06.57.178,premup-three_ses-02_part-02_label-phase2,3.2.4,Win32,60,,,,,,,,,,,,,,,,,,,,,,,,,,,,,
left,0.446999788,1,115,1,0,1,0,1,0,1,0,240,219,1,239,3,6,4,stim/64.jpeg,HouseObjects,1,stim/objects/HouseObjects/clothespin2.png,0.9,3,-0.2,-0.15,left,40,2020-12-13_14h06.57.178,premup-three_ses-02_part-02_label-phase2,3.2.4,Win32,60,,,,,,,,,,,,,,,,,,,,,,,,,,,,,
left,0.404999733,1,116,1,0,1,0,1,0,1,0,240,232,1,239,3,6,1,stim/61.jpeg,HouseObjects,1,stim/objects/HouseObjects/bucket2.png,0.9,4,0.2,-0.15,left,40,2020-12-13_14h06.57.178,premup-three_ses-02_part-02_label-phase2,3.2.4,Win32,60,,,,,,,,,,,,,,,,,,,,,,,,,,,,,
,,0,117,1,0,1,0,1,0,1,0,240,133,1,239,2,4,2,stim/42.jpeg,HouseObjects,1,stim/objects/HouseObjects/ballofstring2.png,0.7,2,0.2,0.15,left,40,2020-12-13_14h06.57.178,premup-three_ses-02_part-02_label-phase2,3.2.4,Win32,60,,,,,,,,,,,,,,,,,,,,,,,,,,,,,
left,0.429999828,0,118,1,0,1,0,1,0,1,0,240,62,1,239,1,2,3,stim/23.jpeg,Instruments,2,stim/objects/Instruments/cello.png,0.5,4,0.2,-0.15,right,40,2020-12-13_14h06.57.178,premup-three_ses-02_part-02_label-phase2,3.2.4,Win32,60,,,,,,,,,,,,,,,,,,,,,,,,,,,,,
right,0.606999874,1,119,1,0,1,0,1,0,1,0,240,95,1,239,2,3,4,stim/34.jpeg,Instruments,2,stim/objects/Instruments/doublebass.png,0.7,1,-0.2,0.15,right,40,2020-12-13_14h06.57.178,premup-three_ses-02_part-02_label-phase2,3.2.4,Win32,60,,,,,,,,,,,,,,,,,,,,,,,,,,,,,
left,0.549000025,0,120,1,0,1,0,1,0,1,0,240,76,1,239,1,2,1,stim/21.jpeg,Instruments,2,stim/objects/Instruments/bassdrum.png,0.5,1,-0.2,0.15,right,40,2020-12-13_14h06.57.178,premup-three_ses-02_part-02_label-phase2,3.2.4,Win32,60,,,,,,,,,,,,,,,,,,,,,,,,,,,,,
right,0.835000038,1,121,1,0,1,0,1,0,1,0,240,20,1,239,1,1,1,stim/11.jpeg,Instruments,2,stim/objects/Instruments/accordion.png,0.5,3,-0.2,-0.15,right,40,2020-12-13_14h06.57.178,premup-three_ses-02_part-02_label-phase2,3.2.4,Win32,60,,,,,,,,,,,,,,,,,,,,,,,,,,,,,
left,0.608999968,0,122,1,0,1,0,1,0,1,0,240,102,1,239,2,3,3,stim/33.jpeg,Instruments,2,stim/objects/Instruments/cymbal.png,0.7,3,-0.2,-0.15,right,40,2020-12-13_14h06.57.178,premup-three_ses-02_part-02_label-phase2,3.2.4,Win32,60,,,,,,,,,,,,,,,,,,,,,,,,,,,,,
left,0.427999973,1,123,1,0,1,0,1,0,1,0,240,223,1,239,3,6,4,stim/64.jpeg,HouseObjects,1,stim/objects/HouseObjects/clothespin2.png,0.9,2,0.2,0.15,left,40,2020-12-13_14h06.57.178,premup-three_ses-02_part-02_label-phase2,3.2.4,Win32,60,,,,,,,,,,,,,,,,,,,,,,,,,,,,,
right,0.572999716,1,124,1,0,1,0,1,0,1,0,240,38,1,239,1,1,3,stim/13.jpeg,Instruments,2,stim/objects/Instruments/balalaika.png,0.5,3,-0.2,-0.15,right,40,2020-12-13_14h06.57.178,premup-three_ses-02_part-02_label-phase2,3.2.4,Win32,60,,,,,,,,,,,,,,,,,,,,,,,,,,,,,
left,0.572999954,0,125,1,0,1,0,1,0,1,0,240,157,1,239,2,4,2,stim/42.jpeg,Instruments,2,stim/objects/Instruments/acousticguitar2.png,0.3,3,-0.2,-0.15,right,40,2020-12-13_14h06.57.178,premup-three_ses-02_part-02_label-phase2,3.2.4,Win32,60,,,,,,,,,,,,,,,,,,,,,,,,,,,,,
left,0.671999931,1,126,1,0,1,0,1,0,1,0,240,45,1,239,1,2,2,stim/22.jpeg,HouseObjects,1,stim/objects/HouseObjects/blender.png,0.5,2,0.2,0.15,left,40,2020-12-13_14h06.57.178,premup-three_ses-02_part-02_label-phase2,3.2.4,Win32,60,,,,,,,,,,,,,,,,,,,,,,,,,,,,,
left,0.489999771,1,127,1,0,1,0,1,0,1,0,240,202,1,239,3,6,3,stim/63.jpeg,HouseObjects,1,stim/objects/HouseObjects/clothesdryingrack2.png,0.9,2,0.2,0.15,left,40,2020-12-13_14h06.57.178,premup-three_ses-02_part-02_label-phase2,3.2.4,Win32,60,,,,,,,,,,,,,,,,,,,,,,,,,,,,,
right,0.446999788,1,128,1,0,1,0,1,0,1,0,240,182,1,239,3,5,3,stim/53.jpeg,Instruments,2,stim/objects/Instruments/cello2.png,0.9,2,0.2,0.15,right,40,2020-12-13_14h06.57.178,premup-three_ses-02_part-02_label-phase2,3.2.4,Win32,60,,,,,,,,,,,,,,,,,,,,,,,,,,,,,
right,0.536000013,1,129,1,0,1,0,1,0,1,0,240,105,1,239,2,3,2,stim/32.jpeg,Instruments,2,stim/objects/Instruments/cornet.png,0.7,1,-0.2,0.15,right,40,2020-12-13_14h06.57.178,premup-three_ses-02_part-02_label-phase2,3.2.4,Win32,60,,,,,,,,,,,,,,,,,,,,,,,,,,,,,
left,0.4599998,0,130,1,0,1,0,1,0,1,0,240,237,1,239,3,6,2,stim/62.jpeg,Instruments,2,stim/objects/Instruments/cornet2.png,0.1,1,-0.2,0.15,right,40,2020-12-13_14h06.57.178,premup-three_ses-02_part-02_label-phase2,3.2.4,Win32,60,,,,,,,,,,,,,,,,,,,,,,,,,,,,,
left,0.741999865,1,131,1,0,1,0,1,0,1,0,240,120,1,239,2,4,1,stim/41.jpeg,HouseObjects,1,stim/objects/HouseObjects/ashtray2.png,0.7,2,0.2,0.15,left,40,2020-12-13_14h06.57.178,premup-three_ses-02_part-02_label-phase2,3.2.4,Win32,60,,,,,,,,,,,,,,,,,,,,,,,,,,,,,
right,0.325000048,0,132,1,0,1,0,1,0,1,0,240,235,1,239,3,6,4,stim/64.jpeg,HouseObjects,1,stim/objects/HouseObjects/clothespin2.png,0.9,1,-0.2,0.15,left,40,2020-12-13_14h06.57.178,premup-three_ses-02_part-02_label-phase2,3.2.4,Win32,60,,,,,,,,,,,,,,,,,,,,,,,,,,,,,
left,0.510999918,1,133,1,0,1,0,1,0,1,0,240,52,1,239,1,2,1,stim/21.jpeg,HouseObjects,1,stim/objects/HouseObjects/bleachbottle.png,0.5,1,-0.2,0.15,left,40,2020-12-13_14h06.57.178,premup-three_ses-02_part-02_label-phase2,3.2.4,Win32,60,,,,,,,,,,,,,,,,,,,,,,,,,,,,,
right,0.731999874,1,134,1,0,1,0,1,0,1,0,240,117,1,239,2,3,2,stim/32.jpeg,Instruments,2,stim/objects/Instruments/cornet.png,0.7,4,0.2,-0.15,right,40,2020-12-13_14h06.57.178,premup-three_ses-02_part-02_label-phase2,3.2.4,Win32,60,,,,,,,,,,,,,,,,,,,,,,,,,,,,,
left,0.465000153,1,135,1,0,1,0,1,0,1,0,240,220,1,239,3,6,1,stim/61.jpeg,HouseObjects,1,stim/objects/HouseObjects/bucket2.png,0.9,3,-0.2,-0.15,left,40,2020-12-13_14h06.57.178,premup-three_ses-02_part-02_label-phase2,3.2.4,Win32,60,,,,,,,,,,,,,,,,,,,,,,,,,,,,,
right,0.411999941,1,136,1,0,1,0,1,0,1,0,240,168,1,239,3,5,1,stim/51.jpeg,Instruments,2,stim/objects/Instruments/bassdrum2.png,0.9,1,-0.2,0.15,right,40,2020-12-13_14h06.57.178,premup-three_ses-02_part-02_label-phase2,3.2.4,Win32,60,,,,,,,,,,,,,,,,,,,,,,,,,,,,,
right,0.643999815,1,137,1,0,1,0,1,0,1,0,240,94,1,239,2,3,3,stim/33.jpeg,Instruments,2,stim/objects/Instruments/cymbal.png,0.7,1,-0.2,0.15,right,40,2020-12-13_14h06.57.178,premup-three_ses-02_part-02_label-phase2,3.2.4,Win32,60,,,,,,,,,,,,,,,,,,,,,,,,,,,,,
right,0.644999981,1,138,1,0,1,0,1,0,1,0,240,97,1,239,2,3,2,stim/32.jpeg,Instruments,2,stim/objects/Instruments/cornet.png,0.7,2,0.2,0.15,right,40,2020-12-13_14h06.57.178,premup-three_ses-02_part-02_label-phase2,3.2.4,Win32,60,,,,,,,,,,,,,,,,,,,,,,,,,,,,,
right,0.698999882,0,139,1,0,1,0,1,0,1,0,240,89,1,239,2,3,2,stim/32.jpeg,HouseObjects,1,stim/objects/HouseObjects/clock.png,0.3,4,0.2,-0.15,left,40,2020-12-13_14h06.57.178,premup-three_ses-02_part-02_label-phase2,3.2.4,Win32,60,,,,,,,,,,,,,,,,,,,,,,,,,,,,,
left,0.734999895,1,140,1,0,1,0,1,0,1,0,240,81,1,239,2,3,2,stim/32.jpeg,HouseObjects,1,stim/objects/HouseObjects/clock.png,0.3,2,0.2,0.15,left,40,2020-12-13_14h06.57.178,premup-three_ses-02_part-02_label-phase2,3.2.4,Win32,60,,,,,,,,,,,,,,,,,,,,,,,,,,,,,
right,0.75,0,141,1,0,1,0,1,0,1,0,240,56,1,239,1,2,1,stim/21.jpeg,HouseObjects,1,stim/objects/HouseObjects/bleachbottle.png,0.5,3,-0.2,-0.15,left,40,2020-12-13_14h06.57.178,premup-three_ses-02_part-02_label-phase2,3.2.4,Win32,60,,,,,,,,,,,,,,,,,,,,,,,,,,,,,
left,0.713999987,1,142,1,0,1,0,1,0,1,0,240,46,1,239,1,2,3,stim/23.jpeg,HouseObjects,1,stim/objects/HouseObjects/bottle.png,0.5,1,-0.2,0.15,left,40,2020-12-13_14h06.57.178,premup-three_ses-02_part-02_label-phase2,3.2.4,Win32,60,,,,,,,,,,,,,,,,,,,,,,,,,,,,,
left,0.555000067,0,143,1,0,1,0,1,0,1,0,240,238,1,239,3,6,3,stim/63.jpeg,Instruments,2,stim/objects/Instruments/cymbal2.png,0.1,4,0.2,-0.15,right,40,2020-12-13_14h06.57.178,premup-three_ses-02_part-02_label-phase2,3.2.4,Win32,60,,,,,,,,,,,,,,,,,,,,,,,,,,,,,
right,0.641999722,1,144,1,0,1,0,1,0,1,0,240,181,1,239,3,5,2,stim/52.jpeg,Instruments,2,stim/objects/Instruments/bassguitar2.png,0.9,1,-0.2,0.15,right,40,2020-12-13_14h06.57.178,premup-three_ses-02_part-02_label-phase2,3.2.4,Win32,60,,,,,,,,,,,,,,,,,,,,,,,,,,,,,
left,0.618999958,1,145,1,0,1,0,1,0,1,0,240,205,1,239,3,6,2,stim/62.jpeg,HouseObjects,1,stim/objects/HouseObjects/clock2.png,0.9,3,-0.2,-0.15,left,40,2020-12-13_14h06.57.178,premup-three_ses-02_part-02_label-phase2,3.2.4,Win32,60,,,,,,,,,,,,,,,,,,,,,,,,,,,,,
right,0.59499979,1,146,1,0,1,0,1,0,1,0,240,28,1,239,1,1,1,stim/11.jpeg,Instruments,2,stim/objects/Instruments/accordion.png,0.5,3,-0.2,-0.15,right,40,2020-12-13_14h06.57.178,premup-three_ses-02_part-02_label-phase2,3.2.4,Win32,60,,,,,,,,,,,,,,,,,,,,,,,,,,,,,
right,0.653999805,1,147,1,0,1,0,1,0,1,0,240,183,1,239,3,5,4,stim/54.jpeg,Instruments,2,stim/objects/Instruments/chime2.png,0.9,3,-0.2,-0.15,right,40,2020-12-13_14h06.57.178,premup-three_ses-02_part-02_label-phase2,3.2.4,Win32,60,,,,,,,,,,,,,,,,,,,,,,,,,,,,,
left,0.736999989,1,148,1,0,1,0,1,0,1,0,240,43,1,239,1,2,4,stim/24.jpeg,HouseObjects,1,stim/objects/HouseObjects/broom.png,0.5,4,0.2,-0.15,left,40,2020-12-13_14h06.57.178,premup-three_ses-02_part-02_label-phase2,3.2.4,Win32,60,,,,,,,,,,,,,,,,,,,,,,,,,,,,,
right,0.531999826,0,149,1,0,1,0,1,0,1,0,240,147,1,239,2,4,4,stim/44.jpeg,HouseObjects,1,stim/objects/HouseObjects/basket2.png,0.7,3,-0.2,-0.15,left,40,2020-12-13_14h06.57.178,premup-three_ses-02_part-02_label-phase2,3.2.4,Win32,60,,,,,,,,,,,,,,,,,,,,,,,,,,,,,
left,0.615999937,1,150,1,0,1,0,1,0,1,0,240,53,1,239,1,2,2,stim/22.jpeg,HouseObjects,1,stim/objects/HouseObjects/blender.png,0.5,4,0.2,-0.15,left,40,2020-12-13_14h06.57.178,premup-three_ses-02_part-02_label-phase2,3.2.4,Win32,60,,,,,,,,,,,,,,,,,,,,,,,,,,,,,
left,0.519999981,0,151,1,0,1,0,1,0,1,0,240,66,1,239,1,2,3,stim/23.jpeg,Instruments,2,stim/objects/Instruments/cello.png,0.5,3,-0.2,-0.15,right,40,2020-12-13_14h06.57.178,premup-three_ses-02_part-02_label-phase2,3.2.4,Win32,60,,,,,,,,,,,,,,,,,,,,,,,,,,,,,
left,0.536999941,1,152,1,0,1,0,1,0,1,0,240,126,1,239,2,4,3,stim/43.jpeg,HouseObjects,1,stim/objects/HouseObjects/barbecuelighter2.png,0.7,2,0.2,0.15,left,40,2020-12-13_14h06.57.178,premup-three_ses-02_part-02_label-phase2,3.2.4,Win32,60,,,,,,,,,,,,,,,,,,,,,,,,,,,,,
right,0.539999962,0,153,1,0,1,0,1,0,1,0,240,161,1,239,3,5,2,stim/52.jpeg,HouseObjects,1,stim/objects/HouseObjects/blender2.png,0.1,3,-0.2,-0.15,left,40,2020-12-13_14h06.57.178,premup-three_ses-02_part-02_label-phase2,3.2.4,Win32,60,,,,,,,,,,,,,,,,,,,,,,,,,,,,,
right,0.600999832,1,154,1,0,1,0,1,0,1,0,240,199,1,239,3,5,4,stim/54.jpeg,Instruments,2,stim/objects/Instruments/chime2.png,0.9,3,-0.2,-0.15,right,40,2020-12-13_14h06.57.178,premup-three_ses-02_part-02_label-phase2,3.2.4,Win32,60,,,,,,,,,,,,,,,,,,,,,,,,,,,,,
left,0.485999823,0,155,1,0,1,0,1,0,1,0,240,148,1,239,2,4,1,stim/41.jpeg,Instruments,2,stim/objects/Instruments/accordion2.png,0.3,2,0.2,0.15,right,40,2020-12-13_14h06.57.178,premup-three_ses-02_part-02_label-phase2,3.2.4,Win32,60,,,,,,,,,,,,,,,,,,,,,,,,,,,,,
left,0.581999779,1,156,1,0,1,0,1,0,1,0,240,229,1,239,3,6,2,stim/62.jpeg,HouseObjects,1,stim/objects/HouseObjects/clock2.png,0.9,3,-0.2,-0.15,left,40,2020-12-13_14h06.57.178,premup-three_ses-02_part-02_label-phase2,3.2.4,Win32,60,,,,,,,,,,,,,,,,,,,,,,,,,,,,,
right,0.71999979,0,157,1,0,1,0,1,0,1,0,240,16,1,239,1,1,1,stim/11.jpeg,HouseObjects,1,stim/objects/HouseObjects/ashtray.png,0.5,4,0.2,-0.15,left,40,2020-12-13_14h06.57.178,premup-three_ses-02_part-02_label-phase2,3.2.4,Win32,60,,,,,,,,,,,,,,,,,,,,,,,,,,,,,
left,0.64199996,1,158,1,0,1,0,1,0,1,0,240,137,1,239,2,4,2,stim/42.jpeg,HouseObjects,1,stim/objects/HouseObjects/ballofstring2.png,0.7,2,0.2,0.15,left,40,2020-12-13_14h06.57.178,premup-three_ses-02_part-02_label-phase2,3.2.4,Win32,60,,,,,,,,,,,,,,,,,,,,,,,,,,,,,
left,0.546000004,1,159,1,0,1,0,1,0,1,0,240,122,1,239,2,4,3,stim/43.jpeg,HouseObjects,1,stim/objects/HouseObjects/barbecuelighter2.png,0.7,2,0.2,0.15,left,40,2020-12-13_14h06.57.178,premup-three_ses-02_part-02_label-phase2,3.2.4,Win32,60,,,,,,,,,,,,,,,,,,,,,,,,,,,,,
right,0.53399992,1,160,1,0,1,0,1,0,1,0,240,175,1,239,3,5,4,stim/54.jpeg,Instruments,2,stim/objects/Instruments/chime2.png,0.9,1,-0.2,0.15,right,40,2020-12-13_14h06.57.178,premup-three_ses-02_part-02_label-phase2,3.2.4,Win32,60,,,,,,,,,,,,,,,,,,,,,,,,,,,,,
right,0.579999924,1,161,1,0,1,0,1,0,1,0,240,107,1,239,2,3,4,stim/34.jpeg,Instruments,2,stim/objects/Instruments/doublebass.png,0.7,3,-0.2,-0.15,right,40,2020-12-13_14h06.57.178,premup-three_ses-02_part-02_label-phase2,3.2.4,Win32,60,,,,,,,,,,,,,,,,,,,,,,,,,,,,,
right,0.779000044,1,162,1,0,1,0,1,0,1,0,240,194,1,239,3,5,3,stim/53.jpeg,Instruments,2,stim/objects/Instruments/cello2.png,0.9,4,0.2,-0.15,right,40,2020-12-13_14h06.57.178,premup-three_ses-02_part-02_label-phase2,3.2.4,Win32,60,,,,,,,,,,,,,,,,,,,,,,,,,,,,,
left,0.672999859,1,163,1,0,1,0,1,0,1,0,240,211,1,239,3,6,4,stim/64.jpeg,HouseObjects,1,stim/objects/HouseObjects/clothespin2.png,0.9,3,-0.2,-0.15,left,40,2020-12-13_14h06.57.178,premup-three_ses-02_part-02_label-phase2,3.2.4,Win32,60,,,,,,,,,,,,,,,,,,,,,,,,,,,,,
right,0.47300005,0,164,1,0,1,0,1,0,1,0,240,9,1,239,1,1,2,stim/12.jpeg,HouseObjects,1,stim/objects/HouseObjects/ballofstring.png,0.5,3,-0.2,-0.15,left,40,2020-12-13_14h06.57.178,premup-three_ses-02_part-02_label-phase2,3.2.4,Win32,60,,,,,,,,,,,,,,,,,,,,,,,,,,,,,
right,0.536999941,1,165,1,0,1,0,1,0,1,0,240,164,1,239,3,5,1,stim/51.jpeg,Instruments,2,stim/objects/Instruments/bassdrum2.png,0.9,4,0.2,-0.15,right,40,2020-12-13_14h06.57.178,premup-three_ses-02_part-02_label-phase2,3.2.4,Win32,60,,,,,,,,,,,,,,,,,,,,,,,,,,,,,
right,0.510999918,0,166,1,0,1,0,1,0,1,0,240,18,1,239,1,1,3,stim/13.jpeg,HouseObjects,1,stim/objects/HouseObjects/barbecuelighter.png,0.5,3,-0.2,-0.15,left,40,2020-12-13_14h06.57.178,premup-three_ses-02_part-02_label-phase2,3.2.4,Win32,60,,,,,,,,,,,,,,,,,,,,,,,,,,,,,
left,0.49399972,1,167,1,0,1,0,1,0,1,0,240,204,1,239,3,6,1,stim/61.jpeg,HouseObjects,1,stim/objects/HouseObjects/bucket2.png,0.9,2,0.2,0.15,left,40,2020-12-13_14h06.57.178,premup-three_ses-02_part-02_label-phase2,3.2.4,Win32,60,,,,,,,,,,,,,,,,,,,,,,,,,,,,,
,,0,168,1,0,1,0,1,0,1,0,240,44,1,239,1,2,1,stim/21.jpeg,HouseObjects,1,stim/objects/HouseObjects/bleachbottle.png,0.5,1,-0.2,0.15,left,40,2020-12-13_14h06.57.178,premup-three_ses-02_part-02_label-phase2,3.2.4,Win32,60,,,,,,,,,,,,,,,,,,,,,,,,,,,,,
left,0.480999947,0,169,1,0,1,0,1,0,1,0,240,68,1,239,1,2,1,stim/21.jpeg,Instruments,2,stim/objects/Instruments/bassdrum.png,0.5,4,0.2,-0.15,right,40,2020-12-13_14h06.57.178,premup-three_ses-02_part-02_label-phase2,3.2.4,Win32,60,,,,,,,,,,,,,,,,,,,,,,,,,,,,,
left,0.495999813,0,170,1,0,1,0,1,0,1,0,240,100,1,239,2,3,1,stim/31.jpeg,Instruments,2,stim/objects/Instruments/clarinet.png,0.7,1,-0.2,0.15,right,40,2020-12-13_14h06.57.178,premup-three_ses-02_part-02_label-phase2,3.2.4,Win32,60,,,,,,,,,,,,,,,,,,,,,,,,,,,,,
right,0.403000116,0,171,1,0,1,0,1,0,1,0,240,47,1,239,1,2,4,stim/24.jpeg,HouseObjects,1,stim/objects/HouseObjects/broom.png,0.5,3,-0.2,-0.15,left,40,2020-12-13_14h06.57.178,premup-three_ses-02_part-02_label-phase2,3.2.4,Win32,60,,,,,,,,,,,,,,,,,,,,,,,,,,,,,
right,0.510999918,1,172,1,0,1,0,1,0,1,0,240,98,1,239,2,3,3,stim/33.jpeg,Instruments,2,stim/objects/Instruments/cymbal.png,0.7,3,-0.2,-0.15,right,40,2020-12-13_14h06.57.178,premup-three_ses-02_part-02_label-phase2,3.2.4,Win32,60,,,,,,,,,,,,,,,,,,,,,,,,,,,,,
right,0.559000015,1,173,1,0,1,0,1,0,1,0,240,190,1,239,3,5,3,stim/53.jpeg,Instruments,2,stim/objects/Instruments/cello2.png,0.9,1,-0.2,0.15,right,40,2020-12-13_14h06.57.178,premup-three_ses-02_part-02_label-phase2,3.2.4,Win32,60,,,,,,,,,,,,,,,,,,,,,,,,,,,,,
left,0.611000061,0,174,1,0,1,0,1,0,1,0,240,156,1,239,2,4,1,stim/41.jpeg,Instruments,2,stim/objects/Instruments/accordion2.png,0.3,1,-0.2,0.15,right,40,2020-12-13_14h06.57.178,premup-three_ses-02_part-02_label-phase2,3.2.4,Win32,60,,,,,,,,,,,,,,,,,,,,,,,,,,,,,
left,0.499000072,1,175,1,0,1,0,1,0,1,0,240,218,1,239,3,6,3,stim/63.jpeg,HouseObjects,1,stim/objects/HouseObjects/clothesdryingrack2.png,0.9,2,0.2,0.15,left,40,2020-12-13_14h06.57.178,premup-three_ses-02_part-02_label-phase2,3.2.4,Win32,60,,,,,,,,,,,,,,,,,,,,,,,,,,,,,
right,0.746999979,0,176,1,0,1,0,1,0,1,0,240,121,1,239,2,4,2,stim/42.jpeg,HouseObjects,1,stim/objects/HouseObjects/ballofstring2.png,0.7,3,-0.2,-0.15,left,40,2020-12-13_14h06.57.178,premup-three_ses-02_part-02_label-phase2,3.2.4,Win32,60,,,,,,,,,,,,,,,,,,,,,,,,,,,,,
left,0.563999891,0,177,1,0,1,0,1,0,1,0,240,72,1,239,1,2,1,stim/21.jpeg,Instruments,2,stim/objects/Instruments/bassdrum.png,0.5,2,0.2,0.15,right,40,2020-12-13_14h06.57.178,premup-three_ses-02_part-02_label-phase2,3.2.4,Win32,60,,,,,,,,,,,,,,,,,,,,,,,,,,,,,
left,0.403999805,0,178,1,0,1,0,1,0,1,0,240,106,1,239,2,3,3,stim/33.jpeg,Instruments,2,stim/objects/Instruments/cymbal.png,0.7,2,0.2,0.15,right,40,2020-12-13_14h06.57.178,premup-three_ses-02_part-02_label-phase2,3.2.4,Win32,60,,,,,,,,,,,,,,,,,,,,,,,,,,,,,
right,0.578000069,0,179,1,0,1,0,1,0,1,0,240,88,1,239,2,3,1,stim/31.jpeg,HouseObjects,1,stim/objects/HouseObjects/bucket.png,0.3,1,-0.2,0.15,left,40,2020-12-13_14h06.57.178,premup-three_ses-02_part-02_label-phase2,3.2.4,Win32,60,,,,,,,,,,,,,,,,,,,,,,,,,,,,,
left,0.529000044,0,180,1,0,1,0,1,0,1,0,240,195,1,239,3,5,4,stim/54.jpeg,Instruments,2,stim/objects/Instruments/chime2.png,0.9,4,0.2,-0.15,right,40,2020-12-13_14h06.57.178,premup-three_ses-02_part-02_label-phase2,3.2.4,Win32,60,,,,,,,,,,,,,,,,,,,,,,,,,,,,,
left,0.667000055,0,181,1,0,1,0,1,0,1,0,240,74,1,239,1,2,3,stim/23.jpeg,Instruments,2,stim/objects/Instruments/cello.png,0.5,4,0.2,-0.15,right,40,2020-12-13_14h06.57.178,premup-three_ses-02_part-02_label-phase2,3.2.4,Win32,60,,,,,,,,,,,,,,,,,,,,,,,,,,,,,
right,0.649999857,1,182,1,0,1,0,1,0,1,0,240,111,1,239,2,3,4,stim/34.jpeg,Instruments,2,stim/objects/Instruments/doublebass.png,0.7,3,-0.2,-0.15,right,40,2020-12-13_14h06.57.178,premup-three_ses-02_part-02_label-phase2,3.2.4,Win32,60,,,,,,,,,,,,,,,,,,,,,,,,,,,,,
right,0.681999922,0,183,1,0,1,0,1,0,1,0,240,11,1,239,1,1,4,stim/14.jpeg,HouseObjects,1,stim/objects/HouseObjects/basket.png,0.5,3,-0.2,-0.15,left,40,2020-12-13_14h06.57.178,premup-three_ses-02_part-02_label-phase2,3.2.4,Win32,60,,,,,,,,,,,,,,,,,,,,,,,,,,,,,
left,0.49000001,1,184,1,0,1,0,1,0,1,0,240,130,1,239,2,4,3,stim/43.jpeg,HouseObjects,1,stim/objects/HouseObjects/barbecuelighter2.png,0.7,1,-0.2,0.15,left,40,2020-12-13_14h06.57.178,premup-three_ses-02_part-02_label-phase2,3.2.4,Win32,60,,,,,,,,,,,,,,,,,,,,,,,,,,,,,
left,0.462000132,1,185,1,0,1,0,1,0,1,0,240,141,1,239,2,4,2,stim/42.jpeg,HouseObjects,1,stim/objects/HouseObjects/ballofstring2.png,0.7,4,0.2,-0.15,left,40,2020-12-13_14h06.57.178,premup-three_ses-02_part-02_label-phase2,3.2.4,Win32,60,,,,,,,,,,,,,,,,,,,,,,,,,,,,,
left,0.486999989,1,186,1,0,1,0,1,0,1,0,240,129,1,239,2,4,2,stim/42.jpeg,HouseObjects,1,stim/objects/HouseObjects/ballofstring2.png,0.7,2,0.2,0.15,left,40,2020-12-13_14h06.57.178,premup-three_ses-02_part-02_label-phase2,3.2.4,Win32,60,,,,,,,,,,,,,,,,,,,,,,,,,,,,,
right,0.684999943,0,187,1,0,1,0,1,0,1,0,240,84,1,239,2,3,1,stim/31.jpeg,HouseObjects,1,stim/objects/HouseObjects/bucket.png,0.3,2,0.2,0.15,left,40,2020-12-13_14h06.57.178,premup-three_ses-02_part-02_label-phase2,3.2.4,Win32,60,,,,,,,,,,,,,,,,,,,,,,,,,,,,,
right,0.539999962,1,188,1,0,1,0,1,0,1,0,240,191,1,239,3,5,4,stim/54.jpeg,Instruments,2,stim/objects/Instruments/chime2.png,0.9,2,0.2,0.15,right,40,2020-12-13_14h06.57.178,premup-three_ses-02_part-02_label-phase2,3.2.4,Win32,60,,,,,,,,,,,,,,,,,,,,,,,,,,,,,
right,0.611999989,1,189,1,0,1,0,1,0,1,0,240,39,1,239,1,1,4,stim/14.jpeg,Instruments,2,stim/objects/Instruments/banjo.png,0.5,3,-0.2,-0.15,right,40,2020-12-13_14h06.57.178,premup-three_ses-02_part-02_label-phase2,3.2.4,Win32,60,,,,,,,,,,,,,,,,,,,,,,,,,,,,,
right,0.573999882,1,190,1,0,1,0,1,0,1,0,240,196,1,239,3,5,1,stim/51.jpeg,Instruments,2,stim/objects/Instruments/bassdrum2.png,0.9,3,-0.2,-0.15,right,40,2020-12-13_14h06.57.178,premup-three_ses-02_part-02_label-phase2,3.2.4,Win32,60,,,,,,,,,,,,,,,,,,,,,,,,,,,,,
right,0.509000063,1,191,1,0,1,0,1,0,1,0,240,197,1,239,3,5,2,stim/52.jpeg,Instruments,2,stim/objects/Instruments/bassguitar2.png,0.9,2,0.2,0.15,right,40,2020-12-13_14h06.57.178,premup-three_ses-02_part-02_label-phase2,3.2.4,Win32,60,,,,,,,,,,,,,,,,,,,,,,,,,,,,,
left,0.444000006,1,192,1,0,1,0,1,0,1,0,240,226,1,239,3,6,3,stim/63.jpeg,HouseObjects,1,stim/objects/HouseObjects/clothesdryingrack2.png,0.9,1,-0.2,0.15,left,40,2020-12-13_14h06.57.178,premup-three_ses-02_part-02_label-phase2,3.2.4,Win32,60,,,,,,,,,,,,,,,,,,,,,,,,,,,,,
left,0.522999763,1,193,1,0,1,0,1,0,1,0,240,140,1,239,2,4,1,stim/41.jpeg,HouseObjects,1,stim/objects/HouseObjects/ashtray2.png,0.7,2,0.2,0.15,left,40,2020-12-13_14h06.57.178,premup-three_ses-02_part-02_label-phase2,3.2.4,Win32,60,,,,,,,,,,,,,,,,,,,,,,,,,,,,,
right,0.624999762,1,194,1,0,1,0,1,0,1,0,240,30,1,239,1,1,3,stim/13.jpeg,Instruments,2,stim/objects/Instruments/balalaika.png,0.5,2,0.2,0.15,right,40,2020-12-13_14h06.57.178,premup-three_ses-02_part-02_label-phase2,3.2.4,Win32,60,,,,,,,,,,,,,,,,,,,,,,,,,,,,,
left,0.451999903,1,195,1,0,1,0,1,0,1,0,240,200,1,239,3,6,1,stim/61.jpeg,HouseObjects,1,stim/objects/HouseObjects/bucket2.png,0.9,2,0.2,0.15,left,40,2020-12-13_14h06.57.178,premup-three_ses-02_part-02_label-phase2,3.2.4,Win32,60,,,,,,,,,,,,,,,,,,,,,,,,,,,,,
left,0.607999802,1,196,1,0,1,0,1,0,1,0,240,234,1,239,3,6,3,stim/63.jpeg,HouseObjects,1,stim/objects/HouseObjects/clothesdryingrack2.png,0.9,4,0.2,-0.15,left,40,2020-12-13_14h06.57.178,premup-three_ses-02_part-02_label-phase2,3.2.4,Win32,60,,,,,,,,,,,,,,,,,,,,,,,,,,,,,
right,0.588000059,0,197,1,0,1,0,1,0,1,0,240,132,1,239,2,4,1,stim/41.jpeg,HouseObjects,1,stim/objects/HouseObjects/ashtray2.png,0.7,4,0.2,-0.15,left,40,2020-12-13_14h06.57.178,premup-three_ses-02_part-02_label-phase2,3.2.4,Win32,60,,,,,,,,,,,,,,,,,,,,,,,,,,,,,
right,0.579999924,1,198,1,0,1,0,1,0,1,0,240,27,1,239,1,1,4,stim/14.jpeg,Instruments,2,stim/objects/Instruments/banjo.png,0.5,1,-0.2,0.15,right,40,2020-12-13_14h06.57.178,premup-three_ses-02_part-02_label-phase2,3.2.4,Win32,60,,,,,,,,,,,,,,,,,,,,,,,,,,,,,
left,0.623999834,1,199,1,0,1,0,1,0,1,0,240,125,1,239,2,4,2,stim/42.jpeg,HouseObjects,1,stim/objects/HouseObjects/ballofstring2.png,0.7,4,0.2,-0.15,left,40,2020-12-13_14h06.57.178,premup-three_ses-02_part-02_label-phase2,3.2.4,Win32,60,,,,,,,,,,,,,,,,,,,,,,,,,,,,,
left,0.585000038,1,200,1,0,1,0,1,0,1,0,240,227,1,239,3,6,4,stim/64.jpeg,HouseObjects,1,stim/objects/HouseObjects/clothespin2.png,0.9,4,0.2,-0.15,left,40,2020-12-13_14h06.57.178,premup-three_ses-02_part-02_label-phase2,3.2.4,Win32,60,,,,,,,,,,,,,,,,,,,,,,,,,,,,,
left,0.846999884,0,201,1,0,1,0,1,0,1,0,240,149,1,239,2,4,2,stim/42.jpeg,Instruments,2,stim/objects/Instruments/acousticguitar2.png,0.3,4,0.2,-0.15,right,40,2020-12-13_14h06.57.178,premup-three_ses-02_part-02_label-phase2,3.2.4,Win32,60,,,,,,,,,,,,,,,,,,,,,,,,,,,,,
left,0.449999809,1,202,1,0,1,0,1,0,1,0,240,208,1,239,3,6,1,stim/61.jpeg,HouseObjects,1,stim/objects/HouseObjects/bucket2.png,0.9,2,0.2,0.15,left,40,2020-12-13_14h06.57.178,premup-three_ses-02_part-02_label-phase2,3.2.4,Win32,60,,,,,,,,,,,,,,,,,,,,,,,,,,,,,
right,0.619999886,1,203,1,0,1,0,1,0,1,0,240,96,1,239,2,3,1,stim/31.jpeg,Instruments,2,stim/objects/Instruments/clarinet.png,0.7,4,0.2,-0.15,right,40,2020-12-13_14h06.57.178,premup-three_ses-02_part-02_label-phase2,3.2.4,Win32,60,,,,,,,,,,,,,,,,,,,,,,,,,,,,,
left,0.674999952,0,204,1,0,1,0,1,0,1,0,240,151,1,239,2,4,4,stim/44.jpeg,Instruments,2,stim/objects/Instruments/banjo2.png,0.3,1,-0.2,0.15,right,40,2020-12-13_14h06.57.178,premup-three_ses-02_part-02_label-phase2,3.2.4,Win32,60,,,,,,,,,,,,,,,,,,,,,,,,,,,,,
right,0.539999962,1,205,1,0,1,0,1,0,1,0,240,110,1,239,2,3,3,stim/33.jpeg,Instruments,2,stim/objects/Instruments/cymbal.png,0.7,2,0.2,0.15,right,40,2020-12-13_14h06.57.178,premup-three_ses-02_part-02_label-phase2,3.2.4,Win32,60,,,,,,,,,,,,,,,,,,,,,,,,,,,,,
left,0.648999929,0,206,1,0,1,0,1,0,1,0,240,177,1,239,3,5,2,stim/52.jpeg,Instruments,2,stim/objects/Instruments/bassguitar2.png,0.9,3,-0.2,-0.15,right,40,2020-12-13_14h06.57.178,premup-three_ses-02_part-02_label-phase2,3.2.4,Win32,60,,,,,,,,,,,,,,,,,,,,,,,,,,,,,
left,0.571000099,1,207,1,0,1,0,1,0,1,0,240,7,1,239,1,1,4,stim/14.jpeg,HouseObjects,1,stim/objects/HouseObjects/basket.png,0.5,4,0.2,-0.15,left,40,2020-12-13_14h06.57.178,premup-three_ses-02_part-02_label-phase2,3.2.4,Win32,60,,,,,,,,,,,,,,,,,,,,,,,,,,,,,
right,0.562999964,1,208,1,0,1,0,1,0,1,0,240,112,1,239,2,3,1,stim/31.jpeg,Instruments,2,stim/objects/Instruments/clarinet.png,0.7,3,-0.2,-0.15,right,40,2020-12-13_14h06.57.178,premup-three_ses-02_part-02_label-phase2,3.2.4,Win32,60,,,,,,,,,,,,,,,,,,,,,,,,,,,,,
right,0.426999807,1,209,1,0,1,0,1,0,1,0,240,189,1,239,3,5,2,stim/52.jpeg,Instruments,2,stim/objects/Instruments/bassguitar2.png,0.9,1,-0.2,0.15,right,40,2020-12-13_14h06.57.178,premup-three_ses-02_part-02_label-phase2,3.2.4,Win32,60,,,,,,,,,,,,,,,,,,,,,,,,,,,,,
left,0.763999939,1,210,1,0,1,0,1,0,1,0,240,57,1,239,1,2,2,stim/22.jpeg,HouseObjects,1,stim/objects/HouseObjects/blender.png,0.5,3,-0.2,-0.15,left,40,2020-12-13_14h06.57.178,premup-three_ses-02_part-02_label-phase2,3.2.4,Win32,60,,,,,,,,,,,,,,,,,,,,,,,,,,,,,
right,0.508000135,1,211,1,0,1,0,1,0,1,0,240,192,1,239,3,5,1,stim/51.jpeg,Instruments,2,stim/objects/Instruments/bassdrum2.png,0.9,3,-0.2,-0.15,right,40,2020-12-13_14h06.57.178,premup-three_ses-02_part-02_label-phase2,3.2.4,Win32,60,,,,,,,,,,,,,,,,,,,,,,,,,,,,,
left,0.593999863,1,212,1,0,1,0,1,0,1,0,240,1,1,239,1,1,2,stim/12.jpeg,HouseObjects,1,stim/objects/HouseObjects/ballofstring.png,0.5,2,0.2,0.15,left,40,2020-12-13_14h06.57.178,premup-three_ses-02_part-02_label-phase2,3.2.4,Win32,60,,,,,,,,,,,,,,,,,,,,,,,,,,,,,
right,0.600999832,1,213,1,0,1,0,1,0,1,0,240,176,1,239,3,5,1,stim/51.jpeg,Instruments,2,stim/objects/Instruments/bassdrum2.png,0.9,4,0.2,-0.15,right,40,2020-12-13_14h06.57.178,premup-three_ses-02_part-02_label-phase2,3.2.4,Win32,60,,,,,,,,,,,,,,,,,,,,,,,,,,,,,
right,0.490999937,1,214,1,0,1,0,1,0,1,0,240,178,1,239,3,5,3,stim/53.jpeg,Instruments,2,stim/objects/Instruments/cello2.png,0.9,2,0.2,0.15,right,40,2020-12-13_14h06.57.178,premup-three_ses-02_part-02_label-phase2,3.2.4,Win32,60,,,,,,,,,,,,,,,,,,,,,,,,,,,,,
left,0.723999977,0,215,1,0,1,0,1,0,1,0,240,36,1,239,1,1,1,stim/11.jpeg,Instruments,2,stim/objects/Instruments/accordion.png,0.5,3,-0.2,-0.15,right,40,2020-12-13_14h06.57.178,premup-three_ses-02_part-02_label-phase2,3.2.4,Win32,60,,,,,,,,,,,,,,,,,,,,,,,,,,,,,
right,0.460999966,0,216,1,0,1,0,1,0,1,0,240,85,1,239,2,3,2,stim/32.jpeg,HouseObjects,1,stim/objects/HouseObjects/clock.png,0.3,3,-0.2,-0.15,left,40,2020-12-13_14h06.57.178,premup-three_ses-02_part-02_label-phase2,3.2.4,Win32,60,,,,,,,,,,,,,,,,,,,,,,,,,,,,,
right,0.472000122,1,217,1,0,1,0,1,0,1,0,240,165,1,239,3,5,2,stim/52.jpeg,Instruments,2,stim/objects/Instruments/bassguitar2.png,0.9,4,0.2,-0.15,right,40,2020-12-13_14h06.57.178,premup-three_ses-02_part-02_label-phase2,3.2.4,Win32,60,,,,,,,,,,,,,,,,,,,,,,,,,,,,,
left,0.495999813,1,218,1,0,1,0,1,0,1,0,240,127,1,239,2,4,4,stim/44.jpeg,HouseObjects,1,stim/objects/HouseObjects/basket2.png,0.7,3,-0.2,-0.15,left,40,2020-12-13_14h06.57.178,premup-three_ses-02_part-02_label-phase2,3.2.4,Win32,60,,,,,,,,,,,,,,,,,,,,,,,,,,,,,
left,0.498999834,1,219,1,0,1,0,1,0,1,0,240,230,1,239,3,6,3,stim/63.jpeg,HouseObjects,1,stim/objects/HouseObjects/clothesdryingrack2.png,0.9,3,-0.2,-0.15,left,40,2020-12-13_14h06.57.178,premup-three_ses-02_part-02_label-phase2,3.2.4,Win32,60,,,,,,,,,,,,,,,,,,,,,,,,,,,,,
left,0.586999893,1,220,1,0,1,0,1,0,1,0,240,51,1,239,1,2,4,stim/24.jpeg,HouseObjects,1,stim/objects/HouseObjects/broom.png,0.5,4,0.2,-0.15,left,40,2020-12-13_14h06.57.178,premup-three_ses-02_part-02_label-phase2,3.2.4,Win32,60,,,,,,,,,,,,,,,,,,,,,,,,,,,,,
left,0.391000032,0,221,1,0,1,0,1,0,1,0,240,63,1,239,1,2,4,stim/24.jpeg,Instruments,2,stim/objects/Instruments/chime.png,0.5,4,0.2,-0.15,right,40,2020-12-13_14h06.57.178,premup-three_ses-02_part-02_label-phase2,3.2.4,Win32,60,,,,,,,,,,,,,,,,,,,,,,,,,,,,,
left,0.605999947,1,222,1,0,1,0,1,0,1,0,240,128,1,239,2,4,1,stim/41.jpeg,HouseObjects,1,stim/objects/HouseObjects/ashtray2.png,0.7,4,0.2,-0.15,left,40,2020-12-13_14h06.57.178,premup-three_ses-02_part-02_label-phase2,3.2.4,Win32,60,,,,,,,,,,,,,,,,,,,,,,,,,,,,,
right,0.667999983,0,223,1,0,1,0,1,0,1,0,240,41,1,239,1,2,2,stim/22.jpeg,HouseObjects,1,stim/objects/HouseObjects/blender.png,0.5,3,-0.2,-0.15,left,40,2020-12-13_14h06.57.178,premup-three_ses-02_part-02_label-phase2,3.2.4,Win32,60,,,,,,,,,,,,,,,,,,,,,,,,,,,,,
right,0.373999834,1,224,1,0,1,0,1,0,1,0,240,184,1,239,3,5,1,stim/51.jpeg,Instruments,2,stim/objects/Instruments/bassdrum2.png,0.9,1,-0.2,0.15,right,40,2020-12-13_14h06.57.178,premup-three_ses-02_part-02_label-phase2,3.2.4,Win32,60,,,,,,,,,,,,,,,,,,,,,,,,,,,,,
right,0.503000021,1,225,1,0,1,0,1,0,1,0,240,198,1,239,3,5,3,stim/53.jpeg,Instruments,2,stim/objects/Instruments/cello2.png,0.9,1,-0.2,0.15,right,40,2020-12-13_14h06.57.178,premup-three_ses-02_part-02_label-phase2,3.2.4,Win32,60,,,,,,,,,,,,,,,,,,,,,,,,,,,,,
left,0.603999853,1,226,1,0,1,0,1,0,1,0,240,50,1,239,1,2,3,stim/23.jpeg,HouseObjects,1,stim/objects/HouseObjects/bottle.png,0.5,3,-0.2,-0.15,left,40,2020-12-13_14h06.57.178,premup-three_ses-02_part-02_label-phase2,3.2.4,Win32,60,,,,,,,,,,,,,,,,,,,,,,,,,,,,,
left,0.53399992,1,227,1,0,1,0,1,0,1,0,240,146,1,239,2,4,3,stim/43.jpeg,HouseObjects,1,stim/objects/HouseObjects/barbecuelighter2.png,0.7,4,0.2,-0.15,left,40,2020-12-13_14h06.57.178,premup-three_ses-02_part-02_label-phase2,3.2.4,Win32,60,,,,,,,,,,,,,,,,,,,,,,,,,,,,,
left,0.444000006,1,228,1,0,1,0,1,0,1,0,240,222,1,239,3,6,3,stim/63.jpeg,HouseObjects,1,stim/objects/HouseObjects/clothesdryingrack2.png,0.9,4,0.2,-0.15,left,40,2020-12-13_14h06.57.178,premup-three_ses-02_part-02_label-phase2,3.2.4,Win32,60,,,,,,,,,,,,,,,,,,,,,,,,,,,,,
right,0.448999882,1,229,1,0,1,0,1,0,1,0,240,171,1,239,3,5,4,stim/54.jpeg,Instruments,2,stim/objects/Instruments/chime2.png,0.9,2,0.2,0.15,right,40,2020-12-13_14h06.57.178,premup-three_ses-02_part-02_label-phase2,3.2.4,Win32,60,,,,,,,,,,,,,,,,,,,,,,,,,,,,,
left,0.615999937,1,230,1,0,1,0,1,0,1,0,240,144,1,239,2,4,1,stim/41.jpeg,HouseObjects,1,stim/objects/HouseObjects/ashtray2.png,0.7,4,0.2,-0.15,left,40,2020-12-13_14h06.57.178,premup-three_ses-02_part-02_label-phase2,3.2.4,Win32,60,,,,,,,,,,,,,,,,,,,,,,,,,,,,,
left,0.861999989,1,231,1,0,1,0,1,0,1,0,240,48,1,239,1,2,1,stim/21.jpeg,HouseObjects,1,stim/objects/HouseObjects/bleachbottle.png,0.5,4,0.2,-0.15,left,40,2020-12-13_14h06.57.178,premup-three_ses-02_part-02_label-phase2,3.2.4,Win32,60,,,,,,,,,,,,,,,,,,,,,,,,,,,,,
left,0.476999998,1,232,1,0,1,0,1,0,1,0,240,217,1,239,3,6,2,stim/62.jpeg,HouseObjects,1,stim/objects/HouseObjects/clock2.png,0.9,4,0.2,-0.15,left,40,2020-12-13_14h06.57.178,premup-three_ses-02_part-02_label-phase2,3.2.4,Win32,60,,,,,,,,,,,,,,,,,,,,,,,,,,,,,
left,0.588000059,1,233,1,0,1,0,1,0,1,0,240,134,1,239,2,4,3,stim/43.jpeg,HouseObjects,1,stim/objects/HouseObjects/barbecuelighter2.png,0.7,4,0.2,-0.15,left,40,2020-12-13_14h06.57.178,premup-three_ses-02_part-02_label-phase2,3.2.4,Win32,60,,,,,,,,,,,,,,,,,,,,,,,,,,,,,
right,0.74000001,0,234,1,0,1,0,1,0,1,0,240,19,1,239,1,1,4,stim/14.jpeg,HouseObjects,1,stim/objects/HouseObjects/basket.png,0.5,2,0.2,0.15,left,40,2020-12-13_14h06.57.178,premup-three_ses-02_part-02_label-phase2,3.2.4,Win32,60,,,,,,,,,,,,,,,,,,,,,,,,,,,,,
left,0.43599987,1,235,1,0,1,0,1,0,1,0,240,212,1,239,3,6,1,stim/61.jpeg,HouseObjects,1,stim/objects/HouseObjects/bucket2.png,0.9,2,0.2,0.15,left,40,2020-12-13_14h06.57.178,premup-three_ses-02_part-02_label-phase2,3.2.4,Win32,60,,,,,,,,,,,,,,,,,,,,,,,,,,,,,
left,0.68599987,0,236,1,0,1,0,1,0,1,0,240,67,1,239,1,2,4,stim/24.jpeg,Instruments,2,stim/objects/Instruments/chime.png,0.5,3,-0.2,-0.15,right,40,2020-12-13_14h06.57.178,premup-three_ses-02_part-02_label-phase2,3.2.4,Win32,60,,,,,,,,,,,,,,,,,,,,,,,,,,,,,
left,0.587999821,1,237,1,0,1,0,1,0,1,0,240,124,1,239,2,4,1,stim/41.jpeg,HouseObjects,1,stim/objects/HouseObjects/ashtray2.png,0.7,2,0.2,0.15,left,40,2020-12-13_14h06.57.178,premup-three_ses-02_part-02_label-phase2,3.2.4,Win32,60,,,,,,,,,,,,,,,,,,,,,,,,,,,,,
left,0.571000099,1,238,1,0,1,0,1,0,1,0,240,210,1,239,3,6,3,stim/63.jpeg,HouseObjects,1,stim/objects/HouseObjects/clothesdryingrack2.png,0.9,4,0.2,-0.15,left,40,2020-12-13_14h06.57.178,premup-three_ses-02_part-02_label-phase2,3.2.4,Win32,60,,,,,,,,,,,,,,,,,,,,,,,,,,,,,
right,0.460999966,0,239,1,0,1,0,1,0,1,0,240,86,1,239,2,3,3,stim/33.jpeg,HouseObjects,1,stim/objects/HouseObjects/clothesdryingrack.png,0.3,1,-0.2,0.15,left,40,2020-12-13_14h06.57.178,premup-three_ses-02_part-02_label-phase2,3.2.4,Win32,60,,,,,,,,,,,,,,,,,,,,,,,,,,,,,
right,0.565999985,0,240,1,0,1,0,1,0,1,0,240,83,1,239,2,3,4,stim/34.jpeg,HouseObjects,1,stim/objects/HouseObjects/clothespin.png,0.3,1,-0.2,0.15,left,40,2020-12-13_14h06.57.178,premup-three_ses-02_part-02_label-phase2,3.2.4,Win32,60,,,,,,,,,,,,,,,,,,,,,,,,,,,,,
,,,,1,0,1,0,1,0,,,,,,,,4,,stim/41.jpeg,,,,,,,,,40,2020-12-13_14h06.57.178,premup-three_ses-02_part-02_label-phase2,3.2.4,Win32,60,58,7.070999861,,,1,0,6,3,1,5,Household items,65,75,Music items,25,35,,,,,,,,,,,,,
,,,,1,0,1,0,1,0,,,,,,,,3,,stim/31.jpeg,,,,,,,,,40,2020-12-13_14h06.57.178,premup-three_ses-02_part-02_label-phase2,3.2.4,Win32,60,53,1.934000015,,,1,0,6,2,1,5,Household items,65,75,Music items,25,35,,,,,,,,,,,,,
,,,,1,0,1,0,1,0,,,,,,,,6,,stim/61.jpeg,,,,,,,,,40,2020-12-13_14h06.57.178,premup-three_ses-02_part-02_label-phase2,3.2.4,Win32,60,91,3.423000097,,,1,0,6,5,1,5,Household items,5,15,Music items,85,95,,,,,,,,,,,,,
,,,,1,0,1,0,1,0,,,,,,,,2,,stim/21.jpeg,,,,,,,,,40,2020-12-13_14h06.57.178,premup-three_ses-02_part-02_label-phase2,3.2.4,Win32,60,38,6.602999926,,,1,0,6,1,1,5,Music items,45,55,Household items,45,55,,,,,,,,,,,,,
,,,,1,0,1,0,1,0,,,,,,,,1,,stim/11.jpeg,,,,,,,,,40,2020-12-13_14h06.57.178,premup-three_ses-02_part-02_label-phase2,3.2.4,Win32,60,39,2.613000154,,,1,0,6,0,1,5,Household items,45,55,Music items,45,55,,,,,,,,,,,,,
,,,,1,0,1,0,1,0,,,,,,,,5,,stim/51.jpeg,,,,,,,,,40,2020-12-13_14h06.57.178,premup-three_ses-02_part-02_label-phase2,3.2.4,Win32,60,93,4.194000006,,,1,0,6,4,1,5,Music items,5,15,Household items,85,95,,,,,,,,,,,,,
,,,,1,0,1,0,1,0,,,,,,,,,,,,,,,,,,,40,2020-12-13_14h06.57.178,premup-three_ses-02_part-02_label-phase2,3.2.4,Win32,60,,,,,,,,,,,,,,,,,,,,,,,,,,,,,
left,0.884000063,0,241,,,,,,,,,,,,,1,2,3,stim/23.jpeg,Instruments,2,stim/objects/Instruments/triangle.png,0.5,2,0.2,0.15,right,40,2020-12-13_14h06.57.178,premup-three_ses-02_part-02_label-phase2,3.2.4,Win32,60,,,,,,,,,,,,,,,,,1,0,330,58,1,329,1,,,,,,
left,0.676999807,1,242,,,,,,,,,,,,,3,6,4,stim/64.jpeg,HouseObjects,1,stim/objects/HouseObjects/knife.png,0.9,2,0.2,0.15,left,40,2020-12-13_14h06.57.178,premup-three_ses-02_part-02_label-phase2,3.2.4,Win32,60,,,,,,,,,,,,,,,,,1,0,330,285,1,329,2,,,,,,
,,0,243,,,,,,,,,,,,,1,2,2,stim/22.jpeg,HouseObjects,1,stim/objects/HouseObjects/scale.png,0.5,2,0.2,0.15,left,40,2020-12-13_14h06.57.178,premup-three_ses-02_part-02_label-phase2,3.2.4,Win32,60,,,,,,,,,,,,,,,,,1,0,330,41,1,329,1,,,,,,
left,0.712999821,0,244,,,,,,,,,,,,,2,3,2,stim/32.jpeg,Instruments,2,stim/objects/Instruments/xylophone.png,0.7,2,0.2,0.15,right,40,2020-12-13_14h06.57.178,premup-three_ses-02_part-02_label-phase2,3.2.4,Win32,60,,,,,,,,,,,,,,,,,1,0,330,89,1,329,1,,,,,,
left,0.924999952,0,245,,,,,,,,,,,,,1,2,3,stim/23.jpeg,Instruments,2,stim/objects/Instruments/harmonica.png,0.5,1,-0.2,0.15,right,40,2020-12-13_14h06.57.178,premup-three_ses-02_part-02_label-phase2,3.2.4,Win32,60,,,,,,,,,,,,,,,,,1,0,330,54,1,329,2,,,,,,
right,0.83100009,0,246,,,,,,,,,,,,,1,1,3,stim/13.jpeg,HouseObjects,1,stim/objects/HouseObjects/safetypin.png,0.5,1,-0.2,0.15,left,40,2020-12-13_14h06.57.178,premup-three_ses-02_part-02_label-phase2,3.2.4,Win32,60,,,,,,,,,,,,,,,,,1,0,330,14,1,329,1,,,,,,
right,0.726999998,1,247,,,,,,,,,,,,,3,5,2,stim/52.jpeg,Instruments,2,stim/objects/Instruments/metronome.png,0.9,3,-0.2,-0.15,right,40,2020-12-13_14h06.57.178,premup-three_ses-02_part-02_label-phase2,3.2.4,Win32,60,,,,,,,,,,,,,,,,,1,0,330,171,1,329,2,,,,,,
left,0.822999954,1,248,,,,,,,,,,,,,2,4,4,stim/44.jpeg,HouseObjects,1,stim/objects/HouseObjects/ironingboard2.png,0.7,1,-0.2,0.15,left,40,2020-12-13_14h06.57.178,premup-three_ses-02_part-02_label-phase2,3.2.4,Win32,60,,,,,,,,,,,,,,,,,1,0,330,118,1,329,1,,,,,,
right,0.655999899,1,249,,,,,,,,,,,,,3,5,2,stim/52.jpeg,Instruments,2,stim/objects/Instruments/record2.png,0.9,2,0.2,0.15,right,40,2020-12-13_14h06.57.178,premup-three_ses-02_part-02_label-phase2,3.2.4,Win32,60,,,,,,,,,,,,,,,,,1,0,330,227,1,329,1,,,,,,
left,0.497999907,0,250,,,,,,,,,,,,,1,2,2,stim/22.jpeg,Instruments,2,stim/objects/Instruments/harmonica.png,0.5,3,-0.2,-0.15,right,40,2020-12-13_14h06.57.178,premup-three_ses-02_part-02_label-phase2,3.2.4,Win32,60,,,,,,,,,,,,,,,,,1,0,330,49,1,329,2,,,,,,
left,0.608999968,1,251,,,,,,,,,,,,,3,6,3,stim/63.jpeg,HouseObjects,1,stim/objects/HouseObjects/thread2.png,0.9,3,-0.2,-0.15,left,40,2020-12-13_14h06.57.178,premup-three_ses-02_part-02_label-phase2,3.2.4,Win32,60,,,,,,,,,,,,,,,,,1,0,330,316,1,329,1,,,,,,
right,0.70600009,1,252,,,,,,,,,,,,,2,3,3,stim/33.jpeg,Instruments,2,stim/objects/Instruments/laud.png,0.7,3,-0.2,-0.15,right,40,2020-12-13_14h06.57.178,premup-three_ses-02_part-02_label-phase2,3.2.4,Win32,60,,,,,,,,,,,,,,,,,1,0,330,78,1,329,2,,,,,,
left,0.513000011,1,253,,,,,,,,,,,,,3,6,3,stim/63.jpeg,HouseObjects,1,stim/objects/HouseObjects/knife.png,0.9,1,-0.2,0.15,left,40,2020-12-13_14h06.57.178,premup-three_ses-02_part-02_label-phase2,3.2.4,Win32,60,,,,,,,,,,,,,,,,,1,0,330,260,1,329,2,,,,,,
left,0.593999863,1,254,,,,,,,,,,,,,3,6,1,stim/61.jpeg,HouseObjects,1,stim/objects/HouseObjects/vacuumcleaner2.png,0.9,1,-0.2,0.15,left,40,2020-12-13_14h06.57.178,premup-three_ses-02_part-02_label-phase2,3.2.4,Win32,60,,,,,,,,,,,,,,,,,1,0,330,318,1,329,1,,,,,,
right,0.621999979,1,255,,,,,,,,,,,,,3,5,3,stim/53.jpeg,Instruments,2,stim/objects/Instruments/oboe.png,0.9,1,-0.2,0.15,right,40,2020-12-13_14h06.57.178,premup-three_ses-02_part-02_label-phase2,3.2.4,Win32,60,,,,,,,,,,,,,,,,,1,0,330,164,1,329,2,,,,,,
right,0.493000031,0,256,,,,,,,,,,,,,3,5,4,stim/54.jpeg,HouseObjects,1,stim/objects/HouseObjects/rubbergloves2.png,0.1,1,-0.2,0.15,left,40,2020-12-13_14h06.57.178,premup-three_ses-02_part-02_label-phase2,3.2.4,Win32,60,,,,,,,,,,,,,,,,,1,0,330,137,1,329,1,,,,,,
left,0.514999866,1,257,,,,,,,,,,,,,3,6,2,stim/62.jpeg,HouseObjects,1,stim/objects/HouseObjects/wateringcan2.png,0.9,4,0.2,-0.15,left,40,2020-12-13_14h06.57.178,premup-three_ses-02_part-02_label-phase2,3.2.4,Win32,60,,,,,,,,,,,,,,,,,1,0,330,319,1,329,1,,,,,,
left,0.55099988,0,258,,,,,,,,,,,,,2,4,3,stim/43.jpeg,Instruments,2,stim/objects/Instruments/harp2.png,0.3,4,0.2,-0.15,right,40,2020-12-13_14h06.57.178,premup-three_ses-02_part-02_label-phase2,3.2.4,Win32,60,,,,,,,,,,,,,,,,,1,0,330,125,1,329,1,,,,,,
right,0.857999802,0,259,,,,,,,,,,,,,2,4,3,stim/43.jpeg,HouseObjects,1,stim/objects/HouseObjects/iron2.png,0.7,2,0.2,0.15,left,40,2020-12-13_14h06.57.178,premup-three_ses-02_part-02_label-phase2,3.2.4,Win32,60,,,,,,,,,,,,,,,,,1,0,330,117,1,329,1,,,,,,
left,0.480999947,1,260,,,,,,,,,,,,,2,4,1,stim/41.jpeg,HouseObjects,1,stim/objects/HouseObjects/handbrush.png,0.7,2,0.2,0.15,left,40,2020-12-13_14h06.57.178,premup-three_ses-02_part-02_label-phase2,3.2.4,Win32,60,,,,,,,,,,,,,,,,,1,0,330,95,1,329,2,,,,,,
left,0.430999756,1,261,,,,,,,,,,,,,2,4,1,stim/41.jpeg,HouseObjects,1,stim/objects/HouseObjects/key.png,0.7,3,-0.2,-0.15,left,40,2020-12-13_14h06.57.178,premup-three_ses-02_part-02_label-phase2,3.2.4,Win32,60,,,,,,,,,,,,,,,,,1,0,330,99,1,329,2,,,,,,
right,0.576999903,1,262,,,,,,,,,,,,,3,5,4,stim/54.jpeg,Instruments,2,stim/objects/Instruments/musicsheet.png,0.9,1,-0.2,0.15,right,40,2020-12-13_14h06.57.178,premup-three_ses-02_part-02_label-phase2,3.2.4,Win32,60,,,,,,,,,,,,,,,,,1,0,330,157,1,329,2,,,,,,
left,0.412999868,0,263,,,,,,,,,,,,,3,5,2,stim/52.jpeg,Instruments,2,stim/objects/Instruments/metronome.png,0.9,3,-0.2,-0.15,right,40,2020-12-13_14h06.57.178,premup-three_ses-02_part-02_label-phase2,3.2.4,Win32,60,,,,,,,,,,,,,,,,,1,0,330,191,1,329,2,,,,,,
right,0.381000042,0,264,,,,,,,,,,,,,1,2,2,stim/22.jpeg,HouseObjects,1,stim/objects/HouseObjects/glassmop.png,0.5,1,-0.2,0.15,left,40,2020-12-13_14h06.57.178,premup-three_ses-02_part-02_label-phase2,3.2.4,Win32,60,,,,,,,,,,,,,,,,,1,0,330,33,1,329,2,,,,,,
left,0.497999907,1,265,,,,,,,,,,,,,1,2,1,stim/21.jpeg,HouseObjects,1,stim/objects/HouseObjects/glass.png,0.5,3,-0.2,-0.15,left,40,2020-12-13_14h06.57.178,premup-three_ses-02_part-02_label-phase2,3.2.4,Win32,60,,,,,,,,,,,,,,,,,1,0,330,32,1,329,2,,,,,,
left,0.391000032,1,266,,,,,,,,,,,,,2,4,1,stim/41.jpeg,HouseObjects,1,stim/objects/HouseObjects/handbrush2.png,0.7,1,-0.2,0.15,left,40,2020-12-13_14h06.57.178,premup-three_ses-02_part-02_label-phase2,3.2.4,Win32,60,,,,,,,,,,,,,,,,,1,0,330,115,1,329,1,,,,,,
left,0.542999744,1,267,,,,,,,,,,,,,3,6,1,stim/61.jpeg,HouseObjects,1,stim/objects/HouseObjects/match.png,0.9,2,0.2,0.15,left,40,2020-12-13_14h06.57.178,premup-three_ses-02_part-02_label-phase2,3.2.4,Win32,60,,,,,,,,,,,,,,,,,1,0,330,302,1,329,2,,,,,,
right,0.726999998,0,268,,,,,,,,,,,,,1,2,3,stim/23.jpeg,HouseObjects,1,stim/objects/HouseObjects/sponge.png,0.5,3,-0.2,-0.15,left,40,2020-12-13_14h06.57.178,premup-three_ses-02_part-02_label-phase2,3.2.4,Win32,60,,,,,,,,,,,,,,,,,1,0,330,42,1,329,1,,,,,,
right,0.610999823,1,269,,,,,,,,,,,,,3,5,1,stim/51.jpeg,Instruments,2,stim/objects/Instruments/metronome.png,0.9,3,-0.2,-0.15,right,40,2020-12-13_14h06.57.178,premup-three_ses-02_part-02_label-phase2,3.2.4,Win32,60,,,,,,,,,,,,,,,,,1,0,330,146,1,329,2,,,,,,
left,0.746999979,0,270,,,,,,,,,,,,,3,5,1,stim/51.jpeg,Instruments,2,stim/objects/Instruments/musicsheet.png,0.9,2,0.2,0.15,right,40,2020-12-13_14h06.57.178,premup-three_ses-02_part-02_label-phase2,3.2.4,Win32,60,,,,,,,,,,,,,,,,,1,0,330,142,1,329,2,,,,,,
left,0.679000139,0,271,,,,,,,,,,,,,1,2,3,stim/23.jpeg,Instruments,2,stim/objects/Instruments/gong.png,0.5,2,0.2,0.15,right,40,2020-12-13_14h06.57.178,premup-three_ses-02_part-02_label-phase2,3.2.4,Win32,60,,,,,,,,,,,,,,,,,1,0,330,46,1,329,2,,,,,,
right,0.546000004,1,272,,,,,,,,,,,,,3,5,4,stim/54.jpeg,Instruments,2,stim/objects/Instruments/oboe.png,0.9,2,0.2,0.15,right,40,2020-12-13_14h06.57.178,premup-three_ses-02_part-02_label-phase2,3.2.4,Win32,60,,,,,,,,,,,,,,,,,1,0,330,149,1,329,2,,,,,,
right,0.732999802,1,273,,,,,,,,,,,,,3,5,1,stim/51.jpeg,Instruments,2,stim/objects/Instruments/marimba.png,0.9,3,-0.2,-0.15,right,40,2020-12-13_14h06.57.178,premup-three_ses-02_part-02_label-phase2,3.2.4,Win32,60,,,,,,,,,,,,,,,,,1,0,330,150,1,329,2,,,,,,
left,0.546999931,1,274,,,,,,,,,,,,,3,6,4,stim/64.jpeg,HouseObjects,1,stim/objects/HouseObjects/knife.png,0.9,2,0.2,0.15,left,40,2020-12-13_14h06.57.178,premup-three_ses-02_part-02_label-phase2,3.2.4,Win32,60,,,,,,,,,,,,,,,,,1,0,330,245,1,329,2,,,,,,
left,0.506999731,1,275,,,,,,,,,,,,,3,6,3,stim/63.jpeg,HouseObjects,1,stim/objects/HouseObjects/match.png,0.9,1,-0.2,0.15,left,40,2020-12-13_14h06.57.178,premup-three_ses-02_part-02_label-phase2,3.2.4,Win32,60,,,,,,,,,,,,,,,,,1,0,330,272,1,329,2,,,,,,
left,0.525999784,1,276,,,,,,,,,,,,,3,6,4,stim/64.jpeg,HouseObjects,1,stim/objects/HouseObjects/pitcher.png,0.9,4,0.2,-0.15,left,40,2020-12-13_14h06.57.178,premup-three_ses-02_part-02_label-phase2,3.2.4,Win32,60,,,,,,,,,,,,,,,,,1,0,330,249,1,329,2,,,,,,
right,0.700000048,1,277,,,,,,,,,,,,,3,5,3,stim/53.jpeg,Instruments,2,stim/objects/Instruments/musicstand.png,0.9,2,0.2,0.15,right,40,2020-12-13_14h06.57.178,premup-three_ses-02_part-02_label-phase2,3.2.4,Win32,60,,,,,,,,,,,,,,,,,1,0,330,208,1,329,2,,,,,,
left,0.598999739,0,278,,,,,,,,,,,,,1,1,3,stim/13.jpeg,Instruments,2,stim/objects/Instruments/flute.png,0.5,2,0.2,0.15,right,40,2020-12-13_14h06.57.178,premup-three_ses-02_part-02_label-phase2,3.2.4,Win32,60,,,,,,,,,,,,,,,,,1,0,330,18,1,329,2,,,,,,
right,0.663000107,1,279,,,,,,,,,,,,,2,3,2,stim/32.jpeg,Instruments,2,stim/objects/Instruments/trumpet.png,0.7,2,0.2,0.15,right,40,2020-12-13_14h06.57.178,premup-three_ses-02_part-02_label-phase2,3.2.4,Win32,60,,,,,,,,,,,,,,,,,1,0,330,85,1,329,1,,,,,,
right,0.581999779,1,280,,,,,,,,,,,,,3,5,1,stim/51.jpeg,Instruments,2,stim/objects/Instruments/musicstand.png,0.9,3,-0.2,-0.15,right,40,2020-12-13_14h06.57.178,premup-three_ses-02_part-02_label-phase2,3.2.4,Win32,60,,,,,,,,,,,,,,,,,1,0,330,178,1,329,2,,,,,,
left,0.492999792,0,281,,,,,,,,,,,,,1,2,2,stim/22.jpeg,Instruments,2,stim/objects/Instruments/timbal.png,0.5,2,0.2,0.15,right,40,2020-12-13_14h06.57.178,premup-three_ses-02_part-02_label-phase2,3.2.4,Win32,60,,,,,,,,,,,,,,,,,1,0,330,57,1,329,1,,,,,,
right,0.562999964,1,282,,,,,,,,,,,,,3,5,1,stim/51.jpeg,Instruments,2,stim/objects/Instruments/oboe.png,0.9,3,-0.2,-0.15,right,40,2020-12-13_14h06.57.178,premup-three_ses-02_part-02_label-phase2,3.2.4,Win32,60,,,,,,,,,,,,,,,,,1,0,330,174,1,329,2,,,,,,
right,0.592999935,0,283,,,,,,,,,,,,,3,5,2,stim/52.jpeg,HouseObjects,1,stim/objects/HouseObjects/recyclingbin2.png,0.1,3,-0.2,-0.15,left,40,2020-12-13_14h06.57.178,premup-three_ses-02_part-02_label-phase2,3.2.4,Win32,60,,,,,,,,,,,,,,,,,1,0,330,135,1,329,1,,,,,,
right,0.618000031,1,284,,,,,,,,,,,,,3,5,3,stim/53.jpeg,Instruments,2,stim/objects/Instruments/metronome.png,0.9,2,0.2,0.15,right,40,2020-12-13_14h06.57.178,premup-three_ses-02_part-02_label-phase2,3.2.4,Win32,60,,,,,,,,,,,,,,,,,1,0,330,156,1,329,2,,,,,,
right,0.681999922,1,285,,,,,,,,,,,,,2,3,2,stim/32.jpeg,Instruments,2,stim/objects/Instruments/keyboard.png,0.7,3,-0.2,-0.15,right,40,2020-12-13_14h06.57.178,premup-three_ses-02_part-02_label-phase2,3.2.4,Win32,60,,,,,,,,,,,,,,,,,1,0,330,77,1,329,2,,,,,,
left,0.493000031,1,286,,,,,,,,,,,,,3,6,4,stim/64.jpeg,HouseObjects,1,stim/objects/HouseObjects/knife.png,0.9,4,0.2,-0.15,left,40,2020-12-13_14h06.57.178,premup-three_ses-02_part-02_label-phase2,3.2.4,Win32,60,,,,,,,,,,,,,,,,,1,0,330,305,1,329,2,,,,,,
left,0.789999723,0,287,,,,,,,,,,,,,3,5,1,stim/51.jpeg,Instruments,2,stim/objects/Instruments/musicsheet.png,0.9,2,0.2,0.15,right,40,2020-12-13_14h06.57.178,premup-three_ses-02_part-02_label-phase2,3.2.4,Win32,60,,,,,,,,,,,,,,,,,1,0,330,202,1,329,2,,,,,,
right,0.711999893,1,288,,,,,,,,,,,,,3,5,1,stim/51.jpeg,Instruments,2,stim/objects/Instruments/marimba.png,0.9,4,0.2,-0.15,right,40,2020-12-13_14h06.57.178,premup-three_ses-02_part-02_label-phase2,3.2.4,Win32,60,,,,,,,,,,,,,,,,,1,0,330,170,1,329,2,,,,,,
left,0.453000069,1,289,,,,,,,,,,,,,3,6,2,stim/62.jpeg,HouseObjects,1,stim/objects/HouseObjects/lintroller.png,0.9,2,0.2,0.15,left,40,2020-12-13_14h06.57.178,premup-three_ses-02_part-02_label-phase2,3.2.4,Win32,60,,,,,,,,,,,,,,,,,1,0,330,271,1,329,2,,,,,,
right,0.532000065,1,290,,,,,,,,,,,,,2,3,4,stim/34.jpeg,Instruments,2,stim/objects/Instruments/harp.png,0.7,2,0.2,0.15,right,40,2020-12-13_14h06.57.178,premup-three_ses-02_part-02_label-phase2,3.2.4,Win32,60,,,,,,,,,,,,,,,,,1,0,330,75,1,329,2,,,,,,
left,0.545999765,1,291,,,,,,,,,,,,,3,6,2,stim/62.jpeg,HouseObjects,1,stim/objects/HouseObjects/scale2.png,0.9,3,-0.2,-0.15,left,40,2020-12-13_14h06.57.178,premup-three_ses-02_part-02_label-phase2,3.2.4,Win32,60,,,,,,,,,,,,,,,,,1,0,330,311,1,329,1,,,,,,
right,0.771999836,1,292,,,,,,,,,,,,,3,5,4,stim/54.jpeg,Instruments,2,stim/objects/Instruments/musicstand.png,0.9,4,0.2,-0.15,right,40,2020-12-13_14h06.57.178,premup-three_ses-02_part-02_label-phase2,3.2.4,Win32,60,,,,,,,,,,,,,,,,,1,0,330,213,1,329,2,,,,,,
right,0.552000046,1,293,,,,,,,,,,,,,3,5,3,stim/53.jpeg,Instruments,2,stim/objects/Instruments/musicsheet.png,0.9,3,-0.2,-0.15,right,40,2020-12-13_14h06.57.178,premup-three_ses-02_part-02_label-phase2,3.2.4,Win32,60,,,,,,,,,,,,,,,,,1,0,330,192,1,329,2,,,,,,
left,0.644000053,0,294,,,,,,,,,,,,,2,4,4,stim/44.jpeg,Instruments,2,stim/objects/Instruments/grandpiano2.png,0.3,4,0.2,-0.15,right,40,2020-12-13_14h06.57.178,premup-three_ses-02_part-02_label-phase2,3.2.4,Win32,60,,,,,,,,,,,,,,,,,1,0,330,122,1,329,1,,,,,,
right,0.433000088,0,295,,,,,,,,,,,,,3,6,3,stim/63.jpeg,HouseObjects,1,stim/objects/HouseObjects/pan.png,0.9,1,-0.2,0.15,left,40,2020-12-13_14h06.57.178,premup-three_ses-02_part-02_label-phase2,3.2.4,Win32,60,,,,,,,,,,,,,,,,,1,0,330,308,1,329,2,,,,,,
right,0.681999922,1,296,,,,,,,,,,,,,3,5,4,stim/54.jpeg,Instruments,2,stim/objects/Instruments/musicsheet.png,0.9,2,0.2,0.15,right,40,2020-12-13_14h06.57.178,premup-three_ses-02_part-02_label-phase2,3.2.4,Win32,60,,,,,,,,,,,,,,,,,1,0,330,177,1,329,2,,,,,,
left,0.552999973,1,297,,,,,,,,,,,,,3,6,4,stim/64.jpeg,HouseObjects,1,stim/objects/HouseObjects/pan.png,0.9,1,-0.2,0.15,left,40,2020-12-13_14h06.57.178,premup-three_ses-02_part-02_label-phase2,3.2.4,Win32,60,,,,,,,,,,,,,,,,,1,0,330,253,1,329,2,,,,,,
right,0.524999857,1,298,,,,,,,,,,,,,3,5,1,stim/51.jpeg,Instruments,2,stim/objects/Instruments/metronome.png,0.9,1,-0.2,0.15,right,40,2020-12-13_14h06.57.178,premup-three_ses-02_part-02_label-phase2,3.2.4,Win32,60,,,,,,,,,,,,,,,,,1,0,330,206,1,329,2,,,,,,
left,0.666000128,1,299,,,,,,,,,,,,,3,5,2,stim/52.jpeg,HouseObjects,1,stim/objects/HouseObjects/lintroller2.png,0.1,3,-0.2,-0.15,left,40,2020-12-13_14h06.57.178,premup-three_ses-02_part-02_label-phase2,3.2.4,Win32,60,,,,,,,,,,,,,,,,,1,0,330,131,1,329,1,,,,,,
left,0.813999891,0,300,,,,,,,,,,,,,2,3,1,stim/31.jpeg,Instruments,2,stim/objects/Instruments/electricguitar2.png,0.7,1,-0.2,0.15,right,40,2020-12-13_14h06.57.178,premup-three_ses-02_part-02_label-phase2,3.2.4,Win32,60,,,,,,,,,,,,,,,,,1,0,330,92,1,329,1,,,,,,
right,0.427000046,0,301,,,,,,,,,,,,,3,6,1,stim/61.jpeg,HouseObjects,1,stim/objects/HouseObjects/pan.png,0.9,1,-0.2,0.15,left,40,2020-12-13_14h06.57.178,premup-three_ses-02_part-02_label-phase2,3.2.4,Win32,60,,,,,,,,,,,,,,,,,1,0,330,298,1,329,2,,,,,,
left,0.660999775,0,302,,,,,,,,,,,,,3,5,2,stim/52.jpeg,Instruments,2,stim/objects/Instruments/metronome.png,0.9,4,0.2,-0.15,right,40,2020-12-13_14h06.57.178,premup-three_ses-02_part-02_label-phase2,3.2.4,Win32,60,,,,,,,,,,,,,,,,,1,0,330,211,1,329,2,,,,,,
left,0.746999979,1,303,,,,,,,,,,,,,1,2,2,stim/22.jpeg,HouseObjects,1,stim/objects/HouseObjects/glass.png,0.5,4,0.2,-0.15,left,40,2020-12-13_14h06.57.178,premup-three_ses-02_part-02_label-phase2,3.2.4,Win32,60,,,,,,,,,,,,,,,,,1,0,330,37,1,329,2,,,,,,
left,0.662999868,1,304,,,,,,,,,,,,,1,2,3,stim/23.jpeg,HouseObjects,1,stim/objects/HouseObjects/flyswatter.png,0.5,4,0.2,-0.15,left,40,2020-12-13_14h06.57.178,premup-three_ses-02_part-02_label-phase2,3.2.4,Win32,60,,,,,,,,,,,,,,,,,1,0,330,30,1,329,2,,,,,,
left,0.440999985,0,305,,,,,,,,,,,,,1,2,2,stim/22.jpeg,Instruments,2,stim/objects/Instruments/frenchhorn.png,0.5,4,0.2,-0.15,right,40,2020-12-13_14h06.57.178,premup-three_ses-02_part-02_label-phase2,3.2.4,Win32,60,,,,,,,,,,,,,,,,,1,0,330,45,1,329,2,,,,,,
right,0.463999748,1,306,,,,,,,,,,,,,1,2,4,stim/24.jpeg,Instruments,2,stim/objects/Instruments/gong.png,0.5,2,0.2,0.15,right,40,2020-12-13_14h06.57.178,premup-three_ses-02_part-02_label-phase2,3.2.4,Win32,60,,,,,,,,,,,,,,,,,1,0,330,51,1,329,2,,,,,,
right,0.625,1,307,,,,,,,,,,,,,3,5,2,stim/52.jpeg,Instruments,2,stim/objects/Instruments/oboe.png,0.9,2,0.2,0.15,right,40,2020-12-13_14h06.57.178,premup-three_ses-02_part-02_label-phase2,3.2.4,Win32,60,,,,,,,,,,,,,,,,,1,0,330,159,1,329,2,,,,,,
right,0.631999731,1,308,,,,,,,,,,,,,3,5,1,stim/51.jpeg,Instruments,2,stim/objects/Instruments/oboe.png,0.9,4,0.2,-0.15,right,40,2020-12-13_14h06.57.178,premup-three_ses-02_part-02_label-phase2,3.2.4,Win32,60,,,,,,,,,,,,,,,,,1,0,330,194,1,329,2,,,,,,
right,0.538999796,1,309,,,,,,,,,,,,,3,5,4,stim/54.jpeg,Instruments,2,stim/objects/Instruments/panflute2.png,0.9,3,-0.2,-0.15,right,40,2020-12-13_14h06.57.178,premup-three_ses-02_part-02_label-phase2,3.2.4,Win32,60,,,,,,,,,,,,,,,,,1,0,330,225,1,329,1,,,,,,
right,0.525999784,1,310,,,,,,,,,,,,,3,5,1,stim/51.jpeg,Instruments,2,stim/objects/Instruments/musicstand.png,0.9,3,-0.2,-0.15,right,40,2020-12-13_14h06.57.178,premup-three_ses-02_part-02_label-phase2,3.2.4,Win32,60,,,,,,,,,,,,,,,,,1,0,330,158,1,329,2,,,,,,
right,0.590999842,1,311,,,,,,,,,,,,,3,5,3,stim/53.jpeg,Instruments,2,stim/objects/Instruments/musicstand.png,0.9,3,-0.2,-0.15,right,40,2020-12-13_14h06.57.178,premup-three_ses-02_part-02_label-phase2,3.2.4,Win32,60,,,,,,,,,,,,,,,,,1,0,330,168,1,329,2,,,,,,
left,0.57799983,1,312,,,,,,,,,,,,,2,4,3,stim/43.jpeg,HouseObjects,1,stim/objects/HouseObjects/handbrush.png,0.7,2,0.2,0.15,left,40,2020-12-13_14h06.57.178,premup-three_ses-02_part-02_label-phase2,3.2.4,Win32,60,,,,,,,,,,,,,,,,,1,0,330,105,1,329,2,,,,,,
left,0.520999908,1,313,,,,,,,,,,,,,3,6,1,stim/61.jpeg,HouseObjects,1,stim/objects/HouseObjects/pitcher.png,0.9,2,0.2,0.15,left,40,2020-12-13_14h06.57.178,premup-three_ses-02_part-02_label-phase2,3.2.4,Win32,60,,,,,,,,,,,,,,,,,1,0,330,274,1,329,2,,,,,,
left,0.478999853,0,314,,,,,,,,,,,,,2,4,3,stim/43.jpeg,Instruments,2,stim/objects/Instruments/maraca2.png,0.3,2,0.2,0.15,right,40,2020-12-13_14h06.57.178,premup-three_ses-02_part-02_label-phase2,3.2.4,Win32,60,,,,,,,,,,,,,,,,,1,0,330,129,1,329,1,,,,,,
left,0.585999966,1,315,,,,,,,,,,,,,3,6,1,stim/61.jpeg,HouseObjects,1,stim/objects/HouseObjects/match.png,0.9,3,-0.2,-0.15,left,40,2020-12-13_14h06.57.178,premup-three_ses-02_part-02_label-phase2,3.2.4,Win32,60,,,,,,,,,,,,,,,,,1,0,330,242,1,329,2,,,,,,
right,0.549999952,1,316,,,,,,,,,,,,,3,5,4,stim/54.jpeg,Instruments,2,stim/objects/Instruments/musicsheet.png,0.9,3,-0.2,-0.15,right,40,2020-12-13_14h06.57.178,premup-three_ses-02_part-02_label-phase2,3.2.4,Win32,60,,,,,,,,,,,,,,,,,1,0,330,197,1,329,2,,,,,,
right,0.481999874,1,317,,,,,,,,,,,,,3,5,2,stim/52.jpeg,Instruments,2,stim/objects/Instruments/musicstand.png,0.9,3,-0.2,-0.15,right,40,2020-12-13_14h06.57.178,premup-three_ses-02_part-02_label-phase2,3.2.4,Win32,60,,,,,,,,,,,,,,,,,1,0,330,163,1,329,2,,,,,,
right,0.722999811,0,318,,,,,,,,,,,,,2,4,4,stim/44.jpeg,HouseObjects,1,stim/objects/HouseObjects/ironingboard.png,0.7,2,0.2,0.15,left,40,2020-12-13_14h06.57.178,premup-three_ses-02_part-02_label-phase2,3.2.4,Win32,60,,,,,,,,,,,,,,,,,1,0,330,98,1,329,2,,,,,,
left,0.450000048,0,319,,,,,,,,,,,,,3,6,2,stim/62.jpeg,Instruments,2,stim/objects/Instruments/triangle2.png,0.1,2,0.2,0.15,right,40,2020-12-13_14h06.57.178,premup-three_ses-02_part-02_label-phase2,3.2.4,Win32,60,,,,,,,,,,,,,,,,,1,0,330,323,1,329,1,,,,,,
right,0.726000071,0,320,,,,,,,,,,,,,3,6,3,stim/63.jpeg,HouseObjects,1,stim/objects/HouseObjects/pitcher.png,0.9,4,0.2,-0.15,left,40,2020-12-13_14h06.57.178,premup-three_ses-02_part-02_label-phase2,3.2.4,Win32,60,,,,,,,,,,,,,,,,,1,0,330,244,1,329,2,,,,,,
left,0.479999781,1,321,,,,,,,,,,,,,3,6,3,stim/63.jpeg,HouseObjects,1,stim/objects/HouseObjects/pitcher.png,0.9,2,0.2,0.15,left,40,2020-12-13_14h06.57.178,premup-three_ses-02_part-02_label-phase2,3.2.4,Win32,60,,,,,,,,,,,,,,,,,1,0,330,284,1,329,2,,,,,,
left,0.569000006,0,322,,,,,,,,,,,,,2,3,3,stim/33.jpeg,Instruments,2,stim/objects/Instruments/keyboard.png,0.7,4,0.2,-0.15,right,40,2020-12-13_14h06.57.178,premup-three_ses-02_part-02_label-phase2,3.2.4,Win32,60,,,,,,,,,,,,,,,,,1,0,330,82,1,329,2,,,,,,
left,0.591999769,1,323,,,,,,,,,,,,,3,6,2,stim/62.jpeg,HouseObjects,1,stim/objects/HouseObjects/pitcher.png,0.9,3,-0.2,-0.15,left,40,2020-12-13_14h06.57.178,premup-three_ses-02_part-02_label-phase2,3.2.4,Win32,60,,,,,,,,,,,,,,,,,1,0,330,239,1,329,2,,,,,,
left,0.525999784,1,324,,,,,,,,,,,,,3,6,4,stim/64.jpeg,HouseObjects,1,stim/objects/HouseObjects/pitcher.png,0.9,2,0.2,0.15,left,40,2020-12-13_14h06.57.178,premup-three_ses-02_part-02_label-phase2,3.2.4,Win32,60,,,,,,,,,,,,,,,,,1,0,330,309,1,329,2,,,,,,
left,0.491999865,1,325,,,,,,,,,,,,,3,6,2,stim/62.jpeg,HouseObjects,1,stim/objects/HouseObjects/lintroller.png,0.9,3,-0.2,-0.15,left,40,2020-12-13_14h06.57.178,premup-three_ses-02_part-02_label-phase2,3.2.4,Win32,60,,,,,,,,,,,,,,,,,1,0,330,231,1,329,2,,,,,,
right,0.563999891,1,326,,,,,,,,,,,,,3,5,2,stim/52.jpeg,Instruments,2,stim/objects/Instruments/marimba.png,0.9,3,-0.2,-0.15,right,40,2020-12-13_14h06.57.178,premup-three_ses-02_part-02_label-phase2,3.2.4,Win32,60,,,,,,,,,,,,,,,,,1,0,330,155,1,329,2,,,,,,
left,0.451999903,1,327,,,,,,,,,,,,,3,6,2,stim/62.jpeg,HouseObjects,1,stim/objects/HouseObjects/lintroller.png,0.9,1,-0.2,0.15,left,40,2020-12-13_14h06.57.178,premup-three_ses-02_part-02_label-phase2,3.2.4,Win32,60,,,,,,,,,,,,,,,,,1,0,330,291,1,329,2,,,,,,
right,0.607999802,1,328,,,,,,,,,,,,,3,5,4,stim/54.jpeg,Instruments,2,stim/objects/Instruments/musicstand.png,0.9,3,-0.2,-0.15,right,40,2020-12-13_14h06.57.178,premup-three_ses-02_part-02_label-phase2,3.2.4,Win32,60,,,,,,,,,,,,,,,,,1,0,330,193,1,329,2,,,,,,
left,0.457999945,0,329,,,,,,,,,,,,,3,6,3,stim/63.jpeg,Instruments,2,stim/objects/Instruments/speaker2.png,0.1,2,0.2,0.15,right,40,2020-12-13_14h06.57.178,premup-three_ses-02_part-02_label-phase2,3.2.4,Win32,60,,,,,,,,,,,,,,,,,1,0,330,320,1,329,1,,,,,,
right,0.57799983,1,330,,,,,,,,,,,,,3,5,1,stim/51.jpeg,Instruments,2,stim/objects/Instruments/oboe.png,0.9,3,-0.2,-0.15,right,40,2020-12-13_14h06.57.178,premup-three_ses-02_part-02_label-phase2,3.2.4,Win32,60,,,,,,,,,,,,,,,,,1,0,330,154,1,329,2,,,,,,
left,0.629999876,1,331,,,,,,,,,,,,,3,6,3,stim/63.jpeg,HouseObjects,1,stim/objects/HouseObjects/lintroller.png,0.9,2,0.2,0.15,left,40,2020-12-13_14h06.57.178,premup-three_ses-02_part-02_label-phase2,3.2.4,Win32,60,,,,,,,,,,,,,,,,,1,0,330,256,1,329,2,,,,,,
left,0.623999834,0,332,,,,,,,,,,,,,3,5,2,stim/52.jpeg,Instruments,2,stim/objects/Instruments/marimba.png,0.9,2,0.2,0.15,right,40,2020-12-13_14h06.57.178,premup-three_ses-02_part-02_label-phase2,3.2.4,Win32,60,,,,,,,,,,,,,,,,,1,0,330,195,1,329,2,,,,,,
right,0.446000099,1,333,,,,,,,,,,,,,3,5,1,stim/51.jpeg,Instruments,2,stim/objects/Instruments/metronome.png,0.9,1,-0.2,0.15,right,40,2020-12-13_14h06.57.178,premup-three_ses-02_part-02_label-phase2,3.2.4,Win32,60,,,,,,,,,,,,,,,,,1,0,330,186,1,329,2,,,,,,
left,0.695999861,0,334,,,,,,,,,,,,,3,5,3,stim/53.jpeg,Instruments,2,stim/objects/Instruments/marimba.png,0.9,3,-0.2,-0.15,right,40,2020-12-13_14h06.57.178,premup-three_ses-02_part-02_label-phase2,3.2.4,Win32,60,,,,,,,,,,,,,,,,,1,0,330,160,1,329,2,,,,,,
left,0.515999794,1,335,,,,,,,,,,,,,3,6,1,stim/61.jpeg,HouseObjects,1,stim/objects/HouseObjects/teapot2.png,0.9,1,-0.2,0.15,left,40,2020-12-13_14h06.57.178,premup-three_ses-02_part-02_label-phase2,3.2.4,Win32,60,,,,,,,,,,,,,,,,,1,0,330,314,1,329,1,,,,,,
right,0.445999861,0,336,,,,,,,,,,,,,2,3,1,stim/31.jpeg,HouseObjects,1,stim/objects/HouseObjects/thermometer.png,0.3,1,-0.2,0.15,left,40,2020-12-13_14h06.57.178,premup-three_ses-02_part-02_label-phase2,3.2.4,Win32,60,,,,,,,,,,,,,,,,,1,0,330,60,1,329,1,,,,,,
left,0.48699975,1,337,,,,,,,,,,,,,2,4,2,stim/42.jpeg,HouseObjects,1,stim/objects/HouseObjects/handvacuum2.png,0.7,4,0.2,-0.15,left,40,2020-12-13_14h06.57.178,premup-three_ses-02_part-02_label-phase2,3.2.4,Win32,60,,,,,,,,,,,,,,,,,1,0,330,116,1,329,1,,,,,,
right,0.690000057,1,338,,,,,,,,,,,,,3,5,2,stim/52.jpeg,Instruments,2,stim/objects/Instruments/musicstand.png,0.9,3,-0.2,-0.15,right,40,2020-12-13_14h06.57.178,premup-three_ses-02_part-02_label-phase2,3.2.4,Win32,60,,,,,,,,,,,,,,,,,1,0,330,183,1,329,2,,,,,,
right,0.487999916,0,339,,,,,,,,,,,,,3,5,4,stim/54.jpeg,HouseObjects,1,stim/objects/HouseObjects/pan2.png,0.1,3,-0.2,-0.15,left,40,2020-12-13_14h06.57.178,premup-three_ses-02_part-02_label-phase2,3.2.4,Win32,60,,,,,,,,,,,,,,,,,1,0,330,133,1,329,1,,,,,,
right,0.622999907,1,340,,,,,,,,,,,,,3,5,2,stim/52.jpeg,Instruments,2,stim/objects/Instruments/metronome.png,0.9,1,-0.2,0.15,right,40,2020-12-13_14h06.57.178,premup-three_ses-02_part-02_label-phase2,3.2.4,Win32,60,,,,,,,,,,,,,,,,,1,0,330,151,1,329,2,,,,,,
right,0.845000029,0,341,,,,,,,,,,,,,2,3,4,stim/34.jpeg,HouseObjects,1,stim/objects/HouseObjects/dishsoap2.png,0.3,1,-0.2,0.15,left,40,2020-12-13_14h06.57.178,premup-three_ses-02_part-02_label-phase2,3.2.4,Win32,60,,,,,,,,,,,,,,,,,1,0,330,67,1,329,1,,,,,,
left,0.872999907,1,342,,,,,,,,,,,,,1,1,1,stim/11.jpeg,HouseObjects,1,stim/objects/HouseObjects/doormat.png,0.5,1,-0.2,0.15,left,40,2020-12-13_14h06.57.178,premup-three_ses-02_part-02_label-phase2,3.2.4,Win32,60,,,,,,,,,,,,,,,,,1,0,330,8,1,329,2,,,,,,
left,0.698999882,1,343,,,,,,,,,,,,,2,4,1,stim/41.jpeg,HouseObjects,1,stim/objects/HouseObjects/ironingboard.png,0.7,4,0.2,-0.15,left,40,2020-12-13_14h06.57.178,premup-three_ses-02_part-02_label-phase2,3.2.4,Win32,60,,,,,,,,,,,,,,,,,1,0,330,103,1,329,2,,,,,,
left,0.586999893,1,344,,,,,,,,,,,,,2,3,3,stim/33.jpeg,HouseObjects,1,stim/objects/HouseObjects/towel.png,0.3,4,0.2,-0.15,left,40,2020-12-13_14h06.57.178,premup-three_ses-02_part-02_label-phase2,3.2.4,Win32,60,,,,,,,,,,,,,,,,,1,0,330,62,1,329,1,,,,,,
right,0.613999844,1,345,,,,,,,,,,,,,1,2,2,stim/22.jpeg,Instruments,2,stim/objects/Instruments/guitarcase.png,0.5,2,0.2,0.15,right,40,2020-12-13_14h06.57.178,premup-three_ses-02_part-02_label-phase2,3.2.4,Win32,60,,,,,,,,,,,,,,,,,1,0,330,53,1,329,2,,,,,,
left,0.650000095,1,346,,,,,,,,,,,,,2,4,4,stim/44.jpeg,HouseObjects,1,stim/objects/HouseObjects/handvacuum.png,0.7,2,0.2,0.15,left,40,2020-12-13_14h06.57.178,premup-three_ses-02_part-02_label-phase2,3.2.4,Win32,60,,,,,,,,,,,,,,,,,1,0,330,106,1,329,2,,,,,,
right,0.500999928,1,347,,,,,,,,,,,,,1,1,2,stim/12.jpeg,Instruments,2,stim/objects/Instruments/saxophone.png,0.5,3,-0.2,-0.15,right,40,2020-12-13_14h06.57.178,premup-three_ses-02_part-02_label-phase2,3.2.4,Win32,60,,,,,,,,,,,,,,,,,1,0,330,29,1,329,1,,,,,,
right,0.589999914,0,348,,,,,,,,,,,,,2,4,4,stim/44.jpeg,HouseObjects,1,stim/objects/HouseObjects/hairdryer2.png,0.7,3,-0.2,-0.15,left,40,2020-12-13_14h06.57.178,premup-three_ses-02_part-02_label-phase2,3.2.4,Win32,60,,,,,,,,,,,,,,,,,1,0,330,114,1,329,1,,,,,,
right,0.539999962,1,349,,,,,,,,,,,,,3,5,1,stim/51.jpeg,Instruments,2,stim/objects/Instruments/musicstand.png,0.9,4,0.2,-0.15,right,40,2020-12-13_14h06.57.178,premup-three_ses-02_part-02_label-phase2,3.2.4,Win32,60,,,,,,,,,,,,,,,,,1,0,330,218,1,329,2,,,,,,
left,0.687000036,1,350,,,,,,,,,,,,,3,6,2,stim/62.jpeg,HouseObjects,1,stim/objects/HouseObjects/knife.png,0.9,4,0.2,-0.15,left,40,2020-12-13_14h06.57.178,premup-three_ses-02_part-02_label-phase2,3.2.4,Win32,60,,,,,,,,,,,,,,,,,1,0,330,275,1,329,2,,,,,,
right,0.49399972,1,351,,,,,,,,,,,,,3,5,4,stim/54.jpeg,Instruments,2,stim/objects/Instruments/musicstand.png,0.9,3,-0.2,-0.15,right,40,2020-12-13_14h06.57.178,premup-three_ses-02_part-02_label-phase2,3.2.4,Win32,60,,,,,,,,,,,,,,,,,1,0,330,153,1,329,2,,,,,,
left,0.43599987,1,352,,,,,,,,,,,,,3,6,4,stim/64.jpeg,HouseObjects,1,stim/objects/HouseObjects/match.png,0.9,1,-0.2,0.15,left,40,2020-12-13_14h06.57.178,premup-three_ses-02_part-02_label-phase2,3.2.4,Win32,60,,,,,,,,,,,,,,,,,1,0,330,237,1,329,2,,,,,,
left,0.523999929,0,353,,,,,,,,,,,,,3,6,2,stim/62.jpeg,Instruments,2,stim/objects/Instruments/violin2.png,0.1,4,0.2,-0.15,right,40,2020-12-13_14h06.57.178,premup-three_ses-02_part-02_label-phase2,3.2.4,Win32,60,,,,,,,,,,,,,,,,,1,0,330,327,1,329,1,,,,,,
left,0.508999825,1,354,,,,,,,,,,,,,1,2,1,stim/21.jpeg,HouseObjects,1,stim/objects/HouseObjects/garbagebin.png,0.5,4,0.2,-0.15,left,40,2020-12-13_14h06.57.178,premup-three_ses-02_part-02_label-phase2,3.2.4,Win32,60,,,,,,,,,,,,,,,,,1,0,330,36,1,329,2,,,,,,
right,0.464999914,1,355,,,,,,,,,,,,,3,5,1,stim/51.jpeg,Instruments,2,stim/objects/Instruments/musicsheet.png,0.9,4,0.2,-0.15,right,40,2020-12-13_14h06.57.178,premup-three_ses-02_part-02_label-phase2,3.2.4,Win32,60,,,,,,,,,,,,,,,,,1,0,330,162,1,329,2,,,,,,
right,0.410999775,1,356,,,,,,,,,,,,,3,5,1,stim/51.jpeg,Instruments,2,stim/objects/Instruments/musicstand.png,0.9,4,0.2,-0.15,right,40,2020-12-13_14h06.57.178,premup-three_ses-02_part-02_label-phase2,3.2.4,Win32,60,,,,,,,,,,,,,,,,,1,0,330,198,1,329,2,,,,,,
right,0.451999903,0,357,,,,,,,,,,,,,3,6,3,stim/63.jpeg,HouseObjects,1,stim/objects/HouseObjects/pitcher.png,0.9,3,-0.2,-0.15,left,40,2020-12-13_14h06.57.178,premup-three_ses-02_part-02_label-phase2,3.2.4,Win32,60,,,,,,,,,,,,,,,,,1,0,330,264,1,329,2,,,,,,
left,0.380999804,0,358,,,,,,,,,,,,,3,5,1,stim/51.jpeg,Instruments,2,stim/objects/Instruments/marimba.png,0.9,3,-0.2,-0.15,right,40,2020-12-13_14h06.57.178,premup-three_ses-02_part-02_label-phase2,3.2.4,Win32,60,,,,,,,,,,,,,,,,,1,0,330,190,1,329,2,,,,,,
right,0.904999971,1,359,,,,,,,,,,,,,3,5,2,stim/52.jpeg,Instruments,2,stim/objects/Instruments/musicsheet.png,0.9,4,0.2,-0.15,right,40,2020-12-13_14h06.57.178,premup-three_ses-02_part-02_label-phase2,3.2.4,Win32,60,,,,,,,,,,,,,,,,,1,0,330,187,1,329,2,,,,,,
left,0.657999992,1,360,,,,,,,,,,,,,2,3,2,stim/32.jpeg,HouseObjects,1,stim/objects/HouseObjects/thread.png,0.3,1,-0.2,0.15,left,40,2020-12-13_14h06.57.178,premup-three_ses-02_part-02_label-phase2,3.2.4,Win32,60,,,,,,,,,,,,,,,,,1,0,330,61,1,329,1,,,,,,
left,0.463000059,0,361,,,,,,,,,,,,,2,3,4,stim/34.jpeg,Instruments,2,stim/objects/Instruments/maraca.png,0.7,2,0.2,0.15,right,40,2020-12-13_14h06.57.178,premup-three_ses-02_part-02_label-phase2,3.2.4,Win32,60,,,,,,,,,,,,,,,,,1,0,330,79,1,329,2,,,,,,
right,0.375999928,0,362,,,,,,,,,,,,,1,1,2,stim/12.jpeg,HouseObjects,1,stim/objects/HouseObjects/dustpan.png,0.5,3,-0.2,-0.15,left,40,2020-12-13_14h06.57.178,premup-three_ses-02_part-02_label-phase2,3.2.4,Win32,60,,,,,,,,,,,,,,,,,1,0,330,9,1,329,2,,,,,,
right,0.755000114,1,363,,,,,,,,,,,,,3,5,3,stim/53.jpeg,Instruments,2,stim/objects/Instruments/metronome.png,0.9,3,-0.2,-0.15,right,40,2020-12-13_14h06.57.178,premup-three_ses-02_part-02_label-phase2,3.2.4,Win32,60,,,,,,,,,,,,,,,,,1,0,330,196,1,329,2,,,,,,
right,0.48300004,1,364,,,,,,,,,,,,,3,5,3,stim/53.jpeg,Instruments,2,stim/objects/Instruments/marimba2.png,0.9,1,-0.2,0.15,right,40,2020-12-13_14h06.57.178,premup-three_ses-02_part-02_label-phase2,3.2.4,Win32,60,,,,,,,,,,,,,,,,,1,0,330,220,1,329,1,,,,,,
left,0.654000044,0,365,,,,,,,,,,,,,2,3,4,stim/34.jpeg,Instruments,2,stim/objects/Instruments/hihat.png,0.7,4,0.2,-0.15,right,40,2020-12-13_14h06.57.178,premup-three_ses-02_part-02_label-phase2,3.2.4,Win32,60,,,,,,,,,,,,,,,,,1,0,330,71,1,329,2,,,,,,
left,0.679999828,1,366,,,,,,,,,,,,,2,4,3,stim/43.jpeg,HouseObjects,1,stim/objects/HouseObjects/key.png,0.7,3,-0.2,-0.15,left,40,2020-12-13_14h06.57.178,premup-three_ses-02_part-02_label-phase2,3.2.4,Win32,60,,,,,,,,,,,,,,,,,1,0,330,109,1,329,2,,,,,,
left,0.639999866,1,367,,,,,,,,,,,,,3,6,4,stim/64.jpeg,HouseObjects,1,stim/objects/HouseObjects/pitcher.png,0.9,3,-0.2,-0.15,left,40,2020-12-13_14h06.57.178,premup-three_ses-02_part-02_label-phase2,3.2.4,Win32,60,,,,,,,,,,,,,,,,,1,0,330,269,1,329,2,,,,,,
right,0.559999943,1,368,,,,,,,,,,,,,3,5,2,stim/52.jpeg,Instruments,2,stim/objects/Instruments/marimba.png,0.9,2,0.2,0.15,right,40,2020-12-13_14h06.57.178,premup-three_ses-02_part-02_label-phase2,3.2.4,Win32,60,,,,,,,,,,,,,,,,,1,0,330,175,1,329,2,,,,,,
right,0.589999914,1,369,,,,,,,,,,,,,3,5,2,stim/52.jpeg,Instruments,2,stim/objects/Instruments/musicsheet.png,0.9,2,0.2,0.15,right,40,2020-12-13_14h06.57.178,premup-three_ses-02_part-02_label-phase2,3.2.4,Win32,60,,,,,,,,,,,,,,,,,1,0,330,207,1,329,2,,,,,,
left,0.510999918,1,370,,,,,,,,,,,,,3,6,1,stim/61.jpeg,HouseObjects,1,stim/objects/HouseObjects/knife.png,0.9,1,-0.2,0.15,left,40,2020-12-13_14h06.57.178,premup-three_ses-02_part-02_label-phase2,3.2.4,Win32,60,,,,,,,,,,,,,,,,,1,0,330,270,1,329,2,,,,,,
right,0.602999926,1,371,,,,,,,,,,,,,1,2,1,stim/21.jpeg,Instruments,2,stim/objects/Instruments/grandpiano.png,0.5,3,-0.2,-0.15,right,40,2020-12-13_14h06.57.178,premup-three_ses-02_part-02_label-phase2,3.2.4,Win32,60,,,,,,,,,,,,,,,,,1,0,330,52,1,329,2,,,,,,
left,0.507999897,1,372,,,,,,,,,,,,,3,6,3,stim/63.jpeg,HouseObjects,1,stim/objects/HouseObjects/knife.png,0.9,4,0.2,-0.15,left,40,2020-12-13_14h06.57.178,premup-three_ses-02_part-02_label-phase2,3.2.4,Win32,60,,,,,,,,,,,,,,,,,1,0,330,300,1,329,2,,,,,,
right,0.396999836,1,373,,,,,,,,,,,,,1,2,4,stim/24.jpeg,Instruments,2,stim/objects/Instruments/trombone.png,0.5,1,-0.2,0.15,right,40,2020-12-13_14h06.57.178,premup-three_ses-02_part-02_label-phase2,3.2.4,Win32,60,,,,,,,,,,,,,,,,,1,0,330,59,1,329,1,,,,,,
left,0.585000038,0,374,,,,,,,,,,,,,2,4,2,stim/42.jpeg,Instruments,2,stim/objects/Instruments/frenchhorn2.png,0.3,1,-0.2,0.15,right,40,2020-12-13_14h06.57.178,premup-three_ses-02_part-02_label-phase2,3.2.4,Win32,60,,,,,,,,,,,,,,,,,1,0,330,120,1,329,1,,,,,,
left,0.481999874,1,375,,,,,,,,,,,,,1,1,1,stim/11.jpeg,HouseObjects,1,stim/objects/HouseObjects/coffee.png,0.5,2,0.2,0.15,left,40,2020-12-13_14h06.57.178,premup-three_ses-02_part-02_label-phase2,3.2.4,Win32,60,,,,,,,,,,,,,,,,,1,0,330,0,1,329,2,,,,,,
right,0.63499999,0,376,,,,,,,,,,,,,2,4,4,stim/44.jpeg,HouseObjects,1,stim/objects/HouseObjects/flyswatter2.png,0.7,1,-0.2,0.15,left,40,2020-12-13_14h06.57.178,premup-three_ses-02_part-02_label-phase2,3.2.4,Win32,60,,,,,,,,,,,,,,,,,1,0,330,110,1,329,1,,,,,,
left,0.431999922,1,377,,,,,,,,,,,,,3,6,4,stim/64.jpeg,HouseObjects,1,stim/objects/HouseObjects/pitcher.png,0.9,4,0.2,-0.15,left,40,2020-12-13_14h06.57.178,premup-three_ses-02_part-02_label-phase2,3.2.4,Win32,60,,,,,,,,,,,,,,,,,1,0,330,289,1,329,2,,,,,,
right,0.553999901,1,378,,,,,,,,,,,,,3,5,1,stim/51.jpeg,Instruments,2,stim/objects/Instruments/marimba.png,0.9,3,-0.2,-0.15,right,40,2020-12-13_14h06.57.178,premup-three_ses-02_part-02_label-phase2,3.2.4,Win32,60,,,,,,,,,,,,,,,,,1,0,330,210,1,329,2,,,,,,
left,0.46600008,1,379,,,,,,,,,,,,,3,6,2,stim/62.jpeg,HouseObjects,1,stim/objects/HouseObjects/knife.png,0.9,1,-0.2,0.15,left,40,2020-12-13_14h06.57.178,premup-three_ses-02_part-02_label-phase2,3.2.4,Win32,60,,,,,,,,,,,,,,,,,1,0,330,295,1,329,2,,,,,,
right,0.649999857,0,380,,,,,,,,,,,,,1,1,4,stim/14.jpeg,HouseObjects,1,stim/objects/HouseObjects/dishsoap.png,0.5,1,-0.2,0.15,left,40,2020-12-13_14h06.57.178,premup-three_ses-02_part-02_label-phase2,3.2.4,Win32,60,,,,,,,,,,,,,,,,,1,0,330,7,1,329,2,,,,,,
