key_resp_trial.keys,key_resp_trial.rt,trial_acc,trial_index,iterations.thisRepN,iterations.thisTrialN,iterations.thisN,iterations.thisIndex,iterations.ran,iterations.order,task_innerloop.thisRepN,task_innerloop.thisTrialN,task_innerloop.thisN,task_innerloop.thisIndex,task_innerloop.ran,task_innerloop.order,scn_condition,scn_cat,scn_inst,scn_file,obj_cat,obj_cat_num,obj_file,trial_cond,quadrant,obj_x,obj_y,corr_ans,participant,date,expName,psychopyVersion,OS,frameRate,slider.response,slider.rt,slider_2.response,slider_2.rt,ratings.thisRepN,ratings.thisTrialN,ratings.thisN,ratings.thisIndex,ratings.ran,ratings.order,obj_cat_top,min_resp_top,max_resp_top,obj_cat_bottom,min_resp_bottom,max_resp_bottom,enc_trials.thisRepN,enc_trials.thisTrialN,enc_trials.thisN,enc_trials.thisIndex,enc_trials.ran,enc_trials.order,fillers,ratings_final.thisRepN,ratings_final.thisTrialN,ratings_final.thisN,ratings_final.thisIndex,ratings_final.ran,ratings_final.order
,,0,1,1,0,1,0,1,0,1,0,240,217,1,239,3,2,2,stim/22.jpeg,Instruments,1,stim/objects/Instruments/harmonica2.png,0.9,3,-0.2,-0.15,left,41,2020-12-08_01h03.57.490,premup-three_ses-02_part-02_label-phase2,3.2.4,MacIntel,60,,,,,,,,,,,,,,,,,,,,,,,,,,,,,
left,0.622999907,1,2,1,0,1,0,1,0,1,0,240,201,1,239,3,2,2,stim/22.jpeg,Instruments,1,stim/objects/Instruments/harmonica2.png,0.9,1,-0.2,0.15,left,41,2020-12-08_01h03.57.490,premup-three_ses-02_part-02_label-phase2,3.2.4,MacIntel,60,,,,,,,,,,,,,,,,,,,,,,,,,,,,,
right,0.74000001,1,3,1,0,1,0,1,0,1,0,240,33,1,239,1,3,2,stim/32.jpeg,HouseObjects,2,stim/objects/HouseObjects/cushion.png,0.5,1,-0.2,0.15,right,41,2020-12-08_01h03.57.490,premup-three_ses-02_part-02_label-phase2,3.2.4,MacIntel,60,,,,,,,,,,,,,,,,,,,,,,,,,,,,,
right,0.788999796,0,4,1,0,1,0,1,0,1,0,240,40,1,239,1,4,1,stim/41.jpeg,Instruments,1,stim/objects/Instruments/flutetrans.png,0.5,2,0.2,0.15,left,41,2020-12-08_01h03.57.490,premup-three_ses-02_part-02_label-phase2,3.2.4,MacIntel,60,,,,,,,,,,,,,,,,,,,,,,,,,,,,,
left,0.687000036,0,5,1,0,1,0,1,0,1,0,240,237,1,239,3,2,2,stim/22.jpeg,HouseObjects,2,stim/objects/HouseObjects/hairdryer2.png,0.1,2,0.2,0.15,right,41,2020-12-08_01h03.57.490,premup-three_ses-02_part-02_label-phase2,3.2.4,MacIntel,60,,,,,,,,,,,,,,,,,,,,,,,,,,,,,
left,0.5849998,1,6,1,0,1,0,1,0,1,0,240,209,1,239,3,2,2,stim/22.jpeg,Instruments,1,stim/objects/Instruments/harmonica2.png,0.9,4,0.2,-0.15,left,41,2020-12-08_01h03.57.490,premup-three_ses-02_part-02_label-phase2,3.2.4,MacIntel,60,,,,,,,,,,,,,,,,,,,,,,,,,,,,,
,,0,7,1,0,1,0,1,0,1,0,240,102,1,239,2,5,3,stim/53.jpeg,HouseObjects,2,stim/objects/HouseObjects/handbrush.png,0.7,1,-0.2,0.15,right,41,2020-12-08_01h03.57.490,premup-three_ses-02_part-02_label-phase2,3.2.4,MacIntel,60,,,,,,,,,,,,,,,,,,,,,,,,,,,,,
right,0.654999733,1,8,1,0,1,0,1,0,1,0,240,63,1,239,1,4,4,stim/44.jpeg,HouseObjects,2,stim/objects/HouseObjects/glass.png,0.5,4,0.2,-0.15,right,41,2020-12-08_01h03.57.490,premup-three_ses-02_part-02_label-phase2,3.2.4,MacIntel,60,,,,,,,,,,,,,,,,,,,,,,,,,,,,,
left,0.654000044,1,9,1,0,1,0,1,0,1,0,240,233,1,239,3,2,2,stim/22.jpeg,Instruments,1,stim/objects/Instruments/harmonica2.png,0.9,4,0.2,-0.15,left,41,2020-12-08_01h03.57.490,premup-three_ses-02_part-02_label-phase2,3.2.4,MacIntel,60,,,,,,,,,,,,,,,,,,,,,,,,,,,,,
,,0,10,1,0,1,0,1,0,1,0,240,82,1,239,2,5,3,stim/53.jpeg,Instruments,1,stim/objects/Instruments/harp.png,0.3,1,-0.2,0.15,left,41,2020-12-08_01h03.57.490,premup-three_ses-02_part-02_label-phase2,3.2.4,MacIntel,60,,,,,,,,,,,,,,,,,,,,,,,,,,,,,
right,0.687999725,1,11,1,0,1,0,1,0,1,0,240,113,1,239,2,5,2,stim/52.jpeg,HouseObjects,2,stim/objects/HouseObjects/hairdryer.png,0.7,3,-0.2,-0.15,right,41,2020-12-08_01h03.57.490,premup-three_ses-02_part-02_label-phase2,3.2.4,MacIntel,60,,,,,,,,,,,,,,,,,,,,,,,,,,,,,
,,0,12,1,0,1,0,1,0,1,0,240,187,1,239,3,1,4,stim/14.jpeg,HouseObjects,2,stim/objects/HouseObjects/glass2.png,0.9,4,0.2,-0.15,right,41,2020-12-08_01h03.57.490,premup-three_ses-02_part-02_label-phase2,3.2.4,MacIntel,60,,,,,,,,,,,,,,,,,,,,,,,,,,,,,
right,0.539000034,1,13,1,0,1,0,1,0,1,0,240,21,1,239,1,3,2,stim/32.jpeg,HouseObjects,2,stim/objects/HouseObjects/cushion.png,0.5,1,-0.2,0.15,right,41,2020-12-08_01h03.57.490,premup-three_ses-02_part-02_label-phase2,3.2.4,MacIntel,60,,,,,,,,,,,,,,,,,,,,,,,,,,,,,
right,0.282000065,1,14,1,0,1,0,1,0,1,0,240,190,1,239,3,1,3,stim/13.jpeg,HouseObjects,2,stim/objects/HouseObjects/garbagebin2.png,0.9,2,0.2,0.15,right,41,2020-12-08_01h03.57.490,premup-three_ses-02_part-02_label-phase2,3.2.4,MacIntel,60,,,,,,,,,,,,,,,,,,,,,,,,,,,,,
left,0.502999783,1,15,1,0,1,0,1,0,1,0,240,204,1,239,3,2,1,stim/21.jpeg,Instruments,1,stim/objects/Instruments/guitarcase2.png,0.9,4,0.2,-0.15,left,41,2020-12-08_01h03.57.490,premup-three_ses-02_part-02_label-phase2,3.2.4,MacIntel,60,,,,,,,,,,,,,,,,,,,,,,,,,,,,,
right,0.462999821,0,16,1,0,1,0,1,0,1,0,240,11,1,239,1,3,4,stim/34.jpeg,Instruments,1,stim/objects/Instruments/flute.png,0.5,2,0.2,0.15,left,41,2020-12-08_01h03.57.490,premup-three_ses-02_part-02_label-phase2,3.2.4,MacIntel,60,,,,,,,,,,,,,,,,,,,,,,,,,,,,,
right,0.513000011,1,17,1,0,1,0,1,0,1,0,240,172,1,239,3,1,1,stim/11.jpeg,HouseObjects,2,stim/objects/HouseObjects/dustpan2.png,0.9,2,0.2,0.15,right,41,2020-12-08_01h03.57.490,premup-three_ses-02_part-02_label-phase2,3.2.4,MacIntel,60,,,,,,,,,,,,,,,,,,,,,,,,,,,,,
left,0.743000031,1,18,1,0,1,0,1,0,1,0,240,134,1,239,2,6,3,stim/63.jpeg,Instruments,1,stim/objects/Instruments/electricguitar2.png,0.7,2,0.2,0.15,left,41,2020-12-08_01h03.57.490,premup-three_ses-02_part-02_label-phase2,3.2.4,MacIntel,60,,,,,,,,,,,,,,,,,,,,,,,,,,,,,
left,0.590999842,0,19,1,0,1,0,1,0,1,0,240,159,1,239,2,6,4,stim/64.jpeg,HouseObjects,2,stim/objects/HouseObjects/doormat2.png,0.3,2,0.2,0.15,right,41,2020-12-08_01h03.57.490,premup-three_ses-02_part-02_label-phase2,3.2.4,MacIntel,60,,,,,,,,,,,,,,,,,,,,,,,,,,,,,
right,0.500999689,0,20,1,0,1,0,1,0,1,0,240,45,1,239,1,4,2,stim/42.jpeg,Instruments,1,stim/objects/Instruments/frenchhorn.png,0.5,3,-0.2,-0.15,left,41,2020-12-08_01h03.57.490,premup-three_ses-02_part-02_label-phase2,3.2.4,MacIntel,60,,,,,,,,,,,,,,,,,,,,,,,,,,,,,
right,0.461999655,1,21,1,0,1,0,1,0,1,0,240,114,1,239,2,5,3,stim/53.jpeg,HouseObjects,2,stim/objects/HouseObjects/handbrush.png,0.7,3,-0.2,-0.15,right,41,2020-12-08_01h03.57.490,premup-three_ses-02_part-02_label-phase2,3.2.4,MacIntel,60,,,,,,,,,,,,,,,,,,,,,,,,,,,,,
right,0.576999903,1,22,1,0,1,0,1,0,1,0,240,177,1,239,3,1,2,stim/12.jpeg,HouseObjects,2,stim/objects/HouseObjects/flyswatter2.png,0.9,4,0.2,-0.15,right,41,2020-12-08_01h03.57.490,premup-three_ses-02_part-02_label-phase2,3.2.4,MacIntel,60,,,,,,,,,,,,,,,,,,,,,,,,,,,,,
right,0.720000029,1,23,1,0,1,0,1,0,1,0,240,107,1,239,2,5,4,stim/54.jpeg,HouseObjects,2,stim/objects/HouseObjects/handvacuum.png,0.7,2,0.2,0.15,right,41,2020-12-08_01h03.57.490,premup-three_ses-02_part-02_label-phase2,3.2.4,MacIntel,60,,,,,,,,,,,,,,,,,,,,,,,,,,,,,
right,0.632999897,1,24,1,0,1,0,1,0,1,0,240,118,1,239,2,5,3,stim/53.jpeg,HouseObjects,2,stim/objects/HouseObjects/handbrush.png,0.7,3,-0.2,-0.15,right,41,2020-12-08_01h03.57.490,premup-three_ses-02_part-02_label-phase2,3.2.4,MacIntel,60,,,,,,,,,,,,,,,,,,,,,,,,,,,,,
left,0.738999844,1,25,1,0,1,0,1,0,1,0,240,133,1,239,2,6,2,stim/62.jpeg,Instruments,1,stim/objects/Instruments/electricdrumset2.png,0.7,4,0.2,-0.15,left,41,2020-12-08_01h03.57.490,premup-three_ses-02_part-02_label-phase2,3.2.4,MacIntel,60,,,,,,,,,,,,,,,,,,,,,,,,,,,,,
left,0.606999874,1,26,1,0,1,0,1,0,1,0,240,125,1,239,2,6,2,stim/62.jpeg,Instruments,1,stim/objects/Instruments/electricdrumset2.png,0.7,3,-0.2,-0.15,left,41,2020-12-08_01h03.57.490,premup-three_ses-02_part-02_label-phase2,3.2.4,MacIntel,60,,,,,,,,,,,,,,,,,,,,,,,,,,,,,
right,0.634999752,1,27,1,0,1,0,1,0,1,0,240,27,1,239,1,3,4,stim/34.jpeg,HouseObjects,2,stim/objects/HouseObjects/doormat.png,0.5,1,-0.2,0.15,right,41,2020-12-08_01h03.57.490,premup-three_ses-02_part-02_label-phase2,3.2.4,MacIntel,60,,,,,,,,,,,,,,,,,,,,,,,,,,,,,
left,0.663999796,1,28,1,0,1,0,1,0,1,0,240,225,1,239,3,2,2,stim/22.jpeg,Instruments,1,stim/objects/Instruments/harmonica2.png,0.9,4,0.2,-0.15,left,41,2020-12-08_01h03.57.490,premup-three_ses-02_part-02_label-phase2,3.2.4,MacIntel,60,,,,,,,,,,,,,,,,,,,,,,,,,,,,,
left,0.532999992,1,29,1,0,1,0,1,0,1,0,240,234,1,239,3,2,3,stim/23.jpeg,Instruments,1,stim/objects/Instruments/harp2.png,0.9,1,-0.2,0.15,left,41,2020-12-08_01h03.57.490,premup-three_ses-02_part-02_label-phase2,3.2.4,MacIntel,60,,,,,,,,,,,,,,,,,,,,,,,,,,,,,
,,0,30,1,0,1,0,1,0,1,0,240,43,1,239,1,4,4,stim/44.jpeg,Instruments,1,stim/objects/Instruments/grandpiano.png,0.5,3,-0.2,-0.15,left,41,2020-12-08_01h03.57.490,premup-three_ses-02_part-02_label-phase2,3.2.4,MacIntel,60,,,,,,,,,,,,,,,,,,,,,,,,,,,,,
left,0.634000063,1,31,1,0,1,0,1,0,1,0,240,202,1,239,3,2,3,stim/23.jpeg,Instruments,1,stim/objects/Instruments/harp2.png,0.9,3,-0.2,-0.15,left,41,2020-12-08_01h03.57.490,premup-three_ses-02_part-02_label-phase2,3.2.4,MacIntel,60,,,,,,,,,,,,,,,,,,,,,,,,,,,,,
right,0.504999638,1,32,1,0,1,0,1,0,1,0,240,178,1,239,3,1,3,stim/13.jpeg,HouseObjects,2,stim/objects/HouseObjects/garbagebin2.png,0.9,2,0.2,0.15,right,41,2020-12-08_01h03.57.490,premup-three_ses-02_part-02_label-phase2,3.2.4,MacIntel,60,,,,,,,,,,,,,,,,,,,,,,,,,,,,,
right,0.639999866,1,33,1,0,1,0,1,0,1,0,240,165,1,239,3,1,2,stim/12.jpeg,HouseObjects,2,stim/objects/HouseObjects/flyswatter2.png,0.9,1,-0.2,0.15,right,41,2020-12-08_01h03.57.490,premup-three_ses-02_part-02_label-phase2,3.2.4,MacIntel,60,,,,,,,,,,,,,,,,,,,,,,,,,,,,,
left,0.600999832,1,34,1,0,1,0,1,0,1,0,240,46,1,239,1,4,3,stim/43.jpeg,Instruments,1,stim/objects/Instruments/gong.png,0.5,4,0.2,-0.15,left,41,2020-12-08_01h03.57.490,premup-three_ses-02_part-02_label-phase2,3.2.4,MacIntel,60,,,,,,,,,,,,,,,,,,,,,,,,,,,,,
right,0.502999783,0,35,1,0,1,0,1,0,1,0,240,207,1,239,3,2,4,stim/24.jpeg,Instruments,1,stim/objects/Instruments/hihat2.png,0.9,4,0.2,-0.15,left,41,2020-12-08_01h03.57.490,premup-three_ses-02_part-02_label-phase2,3.2.4,MacIntel,60,,,,,,,,,,,,,,,,,,,,,,,,,,,,,
left,0.659999847,1,36,1,0,1,0,1,0,1,0,240,120,1,239,2,6,1,stim/61.jpeg,Instruments,1,stim/objects/Instruments/drums2.png,0.7,1,-0.2,0.15,left,41,2020-12-08_01h03.57.490,premup-three_ses-02_part-02_label-phase2,3.2.4,MacIntel,60,,,,,,,,,,,,,,,,,,,,,,,,,,,,,
,,0,37,1,0,1,0,1,0,1,0,240,52,1,239,1,4,1,stim/41.jpeg,Instruments,1,stim/objects/Instruments/flutetrans.png,0.5,2,0.2,0.15,left,41,2020-12-08_01h03.57.490,premup-three_ses-02_part-02_label-phase2,3.2.4,MacIntel,60,,,,,,,,,,,,,,,,,,,,,,,,,,,,,
left,0.825999737,0,38,1,0,1,0,1,0,1,0,240,238,1,239,3,2,3,stim/23.jpeg,HouseObjects,2,stim/objects/HouseObjects/handbrush2.png,0.1,4,0.2,-0.15,right,41,2020-12-08_01h03.57.490,premup-three_ses-02_part-02_label-phase2,3.2.4,MacIntel,60,,,,,,,,,,,,,,,,,,,,,,,,,,,,,
left,0.624999762,1,39,1,0,1,0,1,0,1,0,240,138,1,239,2,6,3,stim/63.jpeg,Instruments,1,stim/objects/Instruments/electricguitar2.png,0.7,2,0.2,0.15,left,41,2020-12-08_01h03.57.490,premup-three_ses-02_part-02_label-phase2,3.2.4,MacIntel,60,,,,,,,,,,,,,,,,,,,,,,,,,,,,,
right,0.541999817,0,40,1,0,1,0,1,0,1,0,240,8,1,239,1,3,1,stim/31.jpeg,Instruments,1,stim/objects/Instruments/drums.png,0.5,1,-0.2,0.15,left,41,2020-12-08_01h03.57.490,premup-three_ses-02_part-02_label-phase2,3.2.4,MacIntel,60,,,,,,,,,,,,,,,,,,,,,,,,,,,,,
left,0.672999859,1,41,1,0,1,0,1,0,1,0,240,127,1,239,2,6,4,stim/64.jpeg,Instruments,1,stim/objects/Instruments/flute2.png,0.7,4,0.2,-0.15,left,41,2020-12-08_01h03.57.490,premup-three_ses-02_part-02_label-phase2,3.2.4,MacIntel,60,,,,,,,,,,,,,,,,,,,,,,,,,,,,,
left,0.666999817,0,42,1,0,1,0,1,0,1,0,240,66,1,239,1,4,3,stim/43.jpeg,HouseObjects,2,stim/objects/HouseObjects/garbagebin.png,0.5,3,-0.2,-0.15,right,41,2020-12-08_01h03.57.490,premup-three_ses-02_part-02_label-phase2,3.2.4,MacIntel,60,,,,,,,,,,,,,,,,,,,,,,,,,,,,,
right,0.686999798,1,43,1,0,1,0,1,0,1,0,240,195,1,239,3,1,4,stim/14.jpeg,HouseObjects,2,stim/objects/HouseObjects/glass2.png,0.9,3,-0.2,-0.15,right,41,2020-12-08_01h03.57.490,premup-three_ses-02_part-02_label-phase2,3.2.4,MacIntel,60,,,,,,,,,,,,,,,,,,,,,,,,,,,,,
left,0.488999844,1,44,1,0,1,0,1,0,1,0,240,229,1,239,3,2,2,stim/22.jpeg,Instruments,1,stim/objects/Instruments/harmonica2.png,0.9,3,-0.2,-0.15,left,41,2020-12-08_01h03.57.490,premup-three_ses-02_part-02_label-phase2,3.2.4,MacIntel,60,,,,,,,,,,,,,,,,,,,,,,,,,,,,,
right,0.706999779,1,45,1,0,1,0,1,0,1,0,240,34,1,239,1,3,3,stim/33.jpeg,HouseObjects,2,stim/objects/HouseObjects/dishsoap.png,0.5,4,0.2,-0.15,right,41,2020-12-08_01h03.57.490,premup-three_ses-02_part-02_label-phase2,3.2.4,MacIntel,60,,,,,,,,,,,,,,,,,,,,,,,,,,,,,
left,0.761999846,1,46,1,0,1,0,1,0,1,0,240,44,1,239,1,4,1,stim/41.jpeg,Instruments,1,stim/objects/Instruments/flutetrans.png,0.5,1,-0.2,0.15,left,41,2020-12-08_01h03.57.490,premup-three_ses-02_part-02_label-phase2,3.2.4,MacIntel,60,,,,,,,,,,,,,,,,,,,,,,,,,,,,,
left,0.687000036,0,47,1,0,1,0,1,0,1,0,240,154,1,239,2,6,3,stim/63.jpeg,HouseObjects,2,stim/objects/HouseObjects/dishsoap2.png,0.3,2,0.2,0.15,right,41,2020-12-08_01h03.57.490,premup-three_ses-02_part-02_label-phase2,3.2.4,MacIntel,60,,,,,,,,,,,,,,,,,,,,,,,,,,,,,
left,0.778999805,1,48,1,0,1,0,1,0,1,0,240,210,1,239,3,2,3,stim/23.jpeg,Instruments,1,stim/objects/Instruments/harp2.png,0.9,4,0.2,-0.15,left,41,2020-12-08_01h03.57.490,premup-three_ses-02_part-02_label-phase2,3.2.4,MacIntel,60,,,,,,,,,,,,,,,,,,,,,,,,,,,,,
right,0.659999847,0,49,1,0,1,0,1,0,1,0,240,0,1,239,1,3,1,stim/31.jpeg,Instruments,1,stim/objects/Instruments/drums.png,0.5,2,0.2,0.15,left,41,2020-12-08_01h03.57.490,premup-three_ses-02_part-02_label-phase2,3.2.4,MacIntel,60,,,,,,,,,,,,,,,,,,,,,,,,,,,,,
left,0.633999825,1,50,1,0,1,0,1,0,1,0,240,218,1,239,3,2,3,stim/23.jpeg,Instruments,1,stim/objects/Instruments/harp2.png,0.9,2,0.2,0.15,left,41,2020-12-08_01h03.57.490,premup-three_ses-02_part-02_label-phase2,3.2.4,MacIntel,60,,,,,,,,,,,,,,,,,,,,,,,,,,,,,
,,0,51,1,0,1,0,1,0,1,0,240,31,1,239,1,3,4,stim/34.jpeg,HouseObjects,2,stim/objects/HouseObjects/doormat.png,0.5,1,-0.2,0.15,right,41,2020-12-08_01h03.57.490,premup-three_ses-02_part-02_label-phase2,3.2.4,MacIntel,60,,,,,,,,,,,,,,,,,,,,,,,,,,,,,
left,0.715999842,0,52,1,0,1,0,1,0,1,0,240,62,1,239,1,4,3,stim/43.jpeg,HouseObjects,2,stim/objects/HouseObjects/garbagebin.png,0.5,4,0.2,-0.15,right,41,2020-12-08_01h03.57.490,premup-three_ses-02_part-02_label-phase2,3.2.4,MacIntel,60,,,,,,,,,,,,,,,,,,,,,,,,,,,,,
right,0.496999741,1,53,1,0,1,0,1,0,1,0,240,115,1,239,2,5,4,stim/54.jpeg,HouseObjects,2,stim/objects/HouseObjects/handvacuum.png,0.7,4,0.2,-0.15,right,41,2020-12-08_01h03.57.490,premup-three_ses-02_part-02_label-phase2,3.2.4,MacIntel,60,,,,,,,,,,,,,,,,,,,,,,,,,,,,,
left,0.665999889,1,54,1,0,1,0,1,0,1,0,240,223,1,239,3,2,4,stim/24.jpeg,Instruments,1,stim/objects/Instruments/hihat2.png,0.9,1,-0.2,0.15,left,41,2020-12-08_01h03.57.490,premup-three_ses-02_part-02_label-phase2,3.2.4,MacIntel,60,,,,,,,,,,,,,,,,,,,,,,,,,,,,,
left,0.547999859,1,55,1,0,1,0,1,0,1,0,240,123,1,239,2,6,4,stim/64.jpeg,Instruments,1,stim/objects/Instruments/flute2.png,0.7,3,-0.2,-0.15,left,41,2020-12-08_01h03.57.490,premup-three_ses-02_part-02_label-phase2,3.2.4,MacIntel,60,,,,,,,,,,,,,,,,,,,,,,,,,,,,,
right,0.477999926,0,56,1,0,1,0,1,0,1,0,240,85,1,239,2,5,2,stim/52.jpeg,Instruments,1,stim/objects/Instruments/harmonica.png,0.3,2,0.2,0.15,left,41,2020-12-08_01h03.57.490,premup-three_ses-02_part-02_label-phase2,3.2.4,MacIntel,60,,,,,,,,,,,,,,,,,,,,,,,,,,,,,
right,0.585999966,1,57,1,0,1,0,1,0,1,0,240,101,1,239,2,5,2,stim/52.jpeg,HouseObjects,2,stim/objects/HouseObjects/hairdryer.png,0.7,2,0.2,0.15,right,41,2020-12-08_01h03.57.490,premup-three_ses-02_part-02_label-phase2,3.2.4,MacIntel,60,,,,,,,,,,,,,,,,,,,,,,,,,,,,,
right,0.815000057,1,58,1,0,1,0,1,0,1,0,240,30,1,239,1,3,3,stim/33.jpeg,HouseObjects,2,stim/objects/HouseObjects/dishsoap.png,0.5,3,-0.2,-0.15,right,41,2020-12-08_01h03.57.490,premup-three_ses-02_part-02_label-phase2,3.2.4,MacIntel,60,,,,,,,,,,,,,,,,,,,,,,,,,,,,,
right,0.729999781,1,59,1,0,1,0,1,0,1,0,240,167,1,239,3,1,4,stim/14.jpeg,HouseObjects,2,stim/objects/HouseObjects/glass2.png,0.9,3,-0.2,-0.15,right,41,2020-12-08_01h03.57.490,premup-three_ses-02_part-02_label-phase2,3.2.4,MacIntel,60,,,,,,,,,,,,,,,,,,,,,,,,,,,,,
right,0.739999771,0,60,1,0,1,0,1,0,1,0,240,58,1,239,1,4,3,stim/43.jpeg,Instruments,1,stim/objects/Instruments/gong.png,0.5,2,0.2,0.15,left,41,2020-12-08_01h03.57.490,premup-three_ses-02_part-02_label-phase2,3.2.4,MacIntel,60,,,,,,,,,,,,,,,,,,,,,,,,,,,,,
right,0.622999907,0,61,1,0,1,0,1,0,1,0,240,160,1,239,3,1,1,stim/11.jpeg,Instruments,1,stim/objects/Instruments/flutetrans2.png,0.1,3,-0.2,-0.15,left,41,2020-12-08_01h03.57.490,premup-three_ses-02_part-02_label-phase2,3.2.4,MacIntel,60,,,,,,,,,,,,,,,,,,,,,,,,,,,,,
left,0.778999805,1,62,1,0,1,0,1,0,1,0,240,49,1,239,1,4,2,stim/42.jpeg,Instruments,1,stim/objects/Instruments/frenchhorn.png,0.5,4,0.2,-0.15,left,41,2020-12-08_01h03.57.490,premup-three_ses-02_part-02_label-phase2,3.2.4,MacIntel,60,,,,,,,,,,,,,,,,,,,,,,,,,,,,,
left,0.565999746,1,63,1,0,1,0,1,0,1,0,240,54,1,239,1,4,3,stim/43.jpeg,Instruments,1,stim/objects/Instruments/gong.png,0.5,2,0.2,0.15,left,41,2020-12-08_01h03.57.490,premup-three_ses-02_part-02_label-phase2,3.2.4,MacIntel,60,,,,,,,,,,,,,,,,,,,,,,,,,,,,,
right,0.649999857,1,64,1,0,1,0,1,0,1,0,240,109,1,239,2,5,2,stim/52.jpeg,HouseObjects,2,stim/objects/HouseObjects/hairdryer.png,0.7,4,0.2,-0.15,right,41,2020-12-08_01h03.57.490,premup-three_ses-02_part-02_label-phase2,3.2.4,MacIntel,60,,,,,,,,,,,,,,,,,,,,,,,,,,,,,
,,0,65,1,0,1,0,1,0,1,0,240,12,1,239,1,3,1,stim/31.jpeg,Instruments,1,stim/objects/Instruments/drums.png,0.5,2,0.2,0.15,left,41,2020-12-08_01h03.57.490,premup-three_ses-02_part-02_label-phase2,3.2.4,MacIntel,60,,,,,,,,,,,,,,,,,,,,,,,,,,,,,
right,0.579999924,1,66,1,0,1,0,1,0,1,0,240,22,1,239,1,3,3,stim/33.jpeg,HouseObjects,2,stim/objects/HouseObjects/dishsoap.png,0.5,3,-0.2,-0.15,right,41,2020-12-08_01h03.57.490,premup-three_ses-02_part-02_label-phase2,3.2.4,MacIntel,60,,,,,,,,,,,,,,,,,,,,,,,,,,,,,
left,0.665999889,1,67,1,0,1,0,1,0,1,0,240,50,1,239,1,4,3,stim/43.jpeg,Instruments,1,stim/objects/Instruments/gong.png,0.5,1,-0.2,0.15,left,41,2020-12-08_01h03.57.490,premup-three_ses-02_part-02_label-phase2,3.2.4,MacIntel,60,,,,,,,,,,,,,,,,,,,,,,,,,,,,,
left,0.687999964,0,68,1,0,1,0,1,0,1,0,240,79,1,239,1,4,4,stim/44.jpeg,HouseObjects,2,stim/objects/HouseObjects/glass.png,0.5,1,-0.2,0.15,right,41,2020-12-08_01h03.57.490,premup-three_ses-02_part-02_label-phase2,3.2.4,MacIntel,60,,,,,,,,,,,,,,,,,,,,,,,,,,,,,
left,0.586999655,0,69,1,0,1,0,1,0,1,0,240,61,1,239,1,4,2,stim/42.jpeg,HouseObjects,2,stim/objects/HouseObjects/flyswatter.png,0.5,2,0.2,0.15,right,41,2020-12-08_01h03.57.490,premup-three_ses-02_part-02_label-phase2,3.2.4,MacIntel,60,,,,,,,,,,,,,,,,,,,,,,,,,,,,,
left,0.684999943,1,70,1,0,1,0,1,0,1,0,240,129,1,239,2,6,2,stim/62.jpeg,Instruments,1,stim/objects/Instruments/electricdrumset2.png,0.7,3,-0.2,-0.15,left,41,2020-12-08_01h03.57.490,premup-three_ses-02_part-02_label-phase2,3.2.4,MacIntel,60,,,,,,,,,,,,,,,,,,,,,,,,,,,,,
right,0.531999826,1,71,1,0,1,0,1,0,1,0,240,182,1,239,3,1,3,stim/13.jpeg,HouseObjects,2,stim/objects/HouseObjects/garbagebin2.png,0.9,1,-0.2,0.15,right,41,2020-12-08_01h03.57.490,premup-three_ses-02_part-02_label-phase2,3.2.4,MacIntel,60,,,,,,,,,,,,,,,,,,,,,,,,,,,,,
left,0.538999796,1,72,1,0,1,0,1,0,1,0,240,227,1,239,3,2,4,stim/24.jpeg,Instruments,1,stim/objects/Instruments/hihat2.png,0.9,2,0.2,0.15,left,41,2020-12-08_01h03.57.490,premup-three_ses-02_part-02_label-phase2,3.2.4,MacIntel,60,,,,,,,,,,,,,,,,,,,,,,,,,,,,,
left,0.540999889,1,73,1,0,1,0,1,0,1,0,240,212,1,239,3,2,1,stim/21.jpeg,Instruments,1,stim/objects/Instruments/guitarcase2.png,0.9,2,0.2,0.15,left,41,2020-12-08_01h03.57.490,premup-three_ses-02_part-02_label-phase2,3.2.4,MacIntel,60,,,,,,,,,,,,,,,,,,,,,,,,,,,,,
right,0.507999897,0,74,1,0,1,0,1,0,1,0,240,48,1,239,1,4,1,stim/41.jpeg,Instruments,1,stim/objects/Instruments/flutetrans.png,0.5,4,0.2,-0.15,left,41,2020-12-08_01h03.57.490,premup-three_ses-02_part-02_label-phase2,3.2.4,MacIntel,60,,,,,,,,,,,,,,,,,,,,,,,,,,,,,
left,0.75,1,75,1,0,1,0,1,0,1,0,240,47,1,239,1,4,4,stim/44.jpeg,Instruments,1,stim/objects/Instruments/grandpiano.png,0.5,2,0.2,0.15,left,41,2020-12-08_01h03.57.490,premup-three_ses-02_part-02_label-phase2,3.2.4,MacIntel,60,,,,,,,,,,,,,,,,,,,,,,,,,,,,,
left,0.641999722,1,76,1,0,1,0,1,0,1,0,240,224,1,239,3,2,1,stim/21.jpeg,Instruments,1,stim/objects/Instruments/guitarcase2.png,0.9,2,0.2,0.15,left,41,2020-12-08_01h03.57.490,premup-three_ses-02_part-02_label-phase2,3.2.4,MacIntel,60,,,,,,,,,,,,,,,,,,,,,,,,,,,,,
left,0.597999811,1,77,1,0,1,0,1,0,1,0,240,215,1,239,3,2,4,stim/24.jpeg,Instruments,1,stim/objects/Instruments/hihat2.png,0.9,4,0.2,-0.15,left,41,2020-12-08_01h03.57.490,premup-three_ses-02_part-02_label-phase2,3.2.4,MacIntel,60,,,,,,,,,,,,,,,,,,,,,,,,,,,,,
right,0.529999971,0,78,1,0,1,0,1,0,1,0,240,56,1,239,1,4,1,stim/41.jpeg,Instruments,1,stim/objects/Instruments/flutetrans.png,0.5,2,0.2,0.15,left,41,2020-12-08_01h03.57.490,premup-three_ses-02_part-02_label-phase2,3.2.4,MacIntel,60,,,,,,,,,,,,,,,,,,,,,,,,,,,,,
right,0.794999838,0,79,1,0,1,0,1,0,1,0,240,161,1,239,3,1,2,stim/12.jpeg,Instruments,1,stim/objects/Instruments/frenchhorn2.png,0.1,3,-0.2,-0.15,left,41,2020-12-08_01h03.57.490,premup-three_ses-02_part-02_label-phase2,3.2.4,MacIntel,60,,,,,,,,,,,,,,,,,,,,,,,,,,,,,
right,0.557999849,1,80,1,0,1,0,1,0,1,0,240,92,1,239,2,5,1,stim/51.jpeg,HouseObjects,2,stim/objects/HouseObjects/glassmop.png,0.7,4,0.2,-0.15,right,41,2020-12-08_01h03.57.490,premup-three_ses-02_part-02_label-phase2,3.2.4,MacIntel,60,,,,,,,,,,,,,,,,,,,,,,,,,,,,,
right,0.522999763,1,81,1,0,1,0,1,0,1,0,240,103,1,239,2,5,4,stim/54.jpeg,HouseObjects,2,stim/objects/HouseObjects/handvacuum.png,0.7,4,0.2,-0.15,right,41,2020-12-08_01h03.57.490,premup-three_ses-02_part-02_label-phase2,3.2.4,MacIntel,60,,,,,,,,,,,,,,,,,,,,,,,,,,,,,
right,0.544999838,1,82,1,0,1,0,1,0,1,0,240,96,1,239,2,5,1,stim/51.jpeg,HouseObjects,2,stim/objects/HouseObjects/glassmop.png,0.7,3,-0.2,-0.15,right,41,2020-12-08_01h03.57.490,premup-three_ses-02_part-02_label-phase2,3.2.4,MacIntel,60,,,,,,,,,,,,,,,,,,,,,,,,,,,,,
right,0.576999903,1,83,1,0,1,0,1,0,1,0,240,95,1,239,2,5,4,stim/54.jpeg,HouseObjects,2,stim/objects/HouseObjects/handvacuum.png,0.7,3,-0.2,-0.15,right,41,2020-12-08_01h03.57.490,premup-three_ses-02_part-02_label-phase2,3.2.4,MacIntel,60,,,,,,,,,,,,,,,,,,,,,,,,,,,,,
left,0.677999973,1,84,1,0,1,0,1,0,1,0,240,211,1,239,3,2,4,stim/24.jpeg,Instruments,1,stim/objects/Instruments/hihat2.png,0.9,3,-0.2,-0.15,left,41,2020-12-08_01h03.57.490,premup-three_ses-02_part-02_label-phase2,3.2.4,MacIntel,60,,,,,,,,,,,,,,,,,,,,,,,,,,,,,
left,0.672999859,0,85,1,0,1,0,1,0,1,0,240,68,1,239,1,4,1,stim/41.jpeg,HouseObjects,2,stim/objects/HouseObjects/dustpan.png,0.5,4,0.2,-0.15,right,41,2020-12-08_01h03.57.490,premup-three_ses-02_part-02_label-phase2,3.2.4,MacIntel,60,,,,,,,,,,,,,,,,,,,,,,,,,,,,,
right,0.792000055,1,86,1,0,1,0,1,0,1,0,240,168,1,239,3,1,1,stim/11.jpeg,HouseObjects,2,stim/objects/HouseObjects/dustpan2.png,0.9,3,-0.2,-0.15,right,41,2020-12-08_01h03.57.490,premup-three_ses-02_part-02_label-phase2,3.2.4,MacIntel,60,,,,,,,,,,,,,,,,,,,,,,,,,,,,,
right,0.670999765,1,87,1,0,1,0,1,0,1,0,240,186,1,239,3,1,3,stim/13.jpeg,HouseObjects,2,stim/objects/HouseObjects/garbagebin2.png,0.9,3,-0.2,-0.15,right,41,2020-12-08_01h03.57.490,premup-three_ses-02_part-02_label-phase2,3.2.4,MacIntel,60,,,,,,,,,,,,,,,,,,,,,,,,,,,,,
right,0.464999914,1,88,1,0,1,0,1,0,1,0,240,179,1,239,3,1,4,stim/14.jpeg,HouseObjects,2,stim/objects/HouseObjects/glass2.png,0.9,3,-0.2,-0.15,right,41,2020-12-08_01h03.57.490,premup-three_ses-02_part-02_label-phase2,3.2.4,MacIntel,60,,,,,,,,,,,,,,,,,,,,,,,,,,,,,
left,0.636999846,0,89,1,0,1,0,1,0,1,0,240,239,1,239,3,2,4,stim/24.jpeg,HouseObjects,2,stim/objects/HouseObjects/handvacuum2.png,0.1,3,-0.2,-0.15,right,41,2020-12-08_01h03.57.490,premup-three_ses-02_part-02_label-phase2,3.2.4,MacIntel,60,,,,,,,,,,,,,,,,,,,,,,,,,,,,,
right,0.649999857,0,90,1,0,1,0,1,0,1,0,240,128,1,239,2,6,1,stim/61.jpeg,Instruments,1,stim/objects/Instruments/drums2.png,0.7,1,-0.2,0.15,left,41,2020-12-08_01h03.57.490,premup-three_ses-02_part-02_label-phase2,3.2.4,MacIntel,60,,,,,,,,,,,,,,,,,,,,,,,,,,,,,
,,0,91,1,0,1,0,1,0,1,0,240,235,1,239,3,2,4,stim/24.jpeg,Instruments,1,stim/objects/Instruments/hihat2.png,0.9,3,-0.2,-0.15,left,41,2020-12-08_01h03.57.490,premup-three_ses-02_part-02_label-phase2,3.2.4,MacIntel,60,,,,,,,,,,,,,,,,,,,,,,,,,,,,,
left,0.593999863,1,92,1,0,1,0,1,0,1,0,240,221,1,239,3,2,2,stim/22.jpeg,Instruments,1,stim/objects/Instruments/harmonica2.png,0.9,2,0.2,0.15,left,41,2020-12-08_01h03.57.490,premup-three_ses-02_part-02_label-phase2,3.2.4,MacIntel,60,,,,,,,,,,,,,,,,,,,,,,,,,,,,,
right,0.566999912,0,93,1,0,1,0,1,0,1,0,240,91,1,239,2,5,4,stim/54.jpeg,Instruments,1,stim/objects/Instruments/hihat.png,0.3,2,0.2,0.15,left,41,2020-12-08_01h03.57.490,premup-three_ses-02_part-02_label-phase2,3.2.4,MacIntel,60,,,,,,,,,,,,,,,,,,,,,,,,,,,,,
right,0.841999769,1,94,1,0,1,0,1,0,1,0,240,23,1,239,1,3,4,stim/34.jpeg,HouseObjects,2,stim/objects/HouseObjects/doormat.png,0.5,1,-0.2,0.15,right,41,2020-12-08_01h03.57.490,premup-three_ses-02_part-02_label-phase2,3.2.4,MacIntel,60,,,,,,,,,,,,,,,,,,,,,,,,,,,,,
right,0.646999836,0,95,1,0,1,0,1,0,1,0,240,203,1,239,3,2,4,stim/24.jpeg,Instruments,1,stim/objects/Instruments/hihat2.png,0.9,1,-0.2,0.15,left,41,2020-12-08_01h03.57.490,premup-three_ses-02_part-02_label-phase2,3.2.4,MacIntel,60,,,,,,,,,,,,,,,,,,,,,,,,,,,,,
right,0.762000084,0,96,1,0,1,0,1,0,1,0,240,13,1,239,1,3,2,stim/32.jpeg,Instruments,1,stim/objects/Instruments/electricdrumset.png,0.5,4,0.2,-0.15,left,41,2020-12-08_01h03.57.490,premup-three_ses-02_part-02_label-phase2,3.2.4,MacIntel,60,,,,,,,,,,,,,,,,,,,,,,,,,,,,,
left,0.631999969,1,97,1,0,1,0,1,0,1,0,240,121,1,239,2,6,2,stim/62.jpeg,Instruments,1,stim/objects/Instruments/electricdrumset2.png,0.7,3,-0.2,-0.15,left,41,2020-12-08_01h03.57.490,premup-three_ses-02_part-02_label-phase2,3.2.4,MacIntel,60,,,,,,,,,,,,,,,,,,,,,,,,,,,,,
left,0.698999882,1,98,1,0,1,0,1,0,1,0,240,232,1,239,3,2,1,stim/21.jpeg,Instruments,1,stim/objects/Instruments/guitarcase2.png,0.9,2,0.2,0.15,left,41,2020-12-08_01h03.57.490,premup-three_ses-02_part-02_label-phase2,3.2.4,MacIntel,60,,,,,,,,,,,,,,,,,,,,,,,,,,,,,
right,0.606999874,0,99,1,0,1,0,1,0,1,0,240,17,1,239,1,3,2,stim/32.jpeg,Instruments,1,stim/objects/Instruments/electricdrumset.png,0.5,2,0.2,0.15,left,41,2020-12-08_01h03.57.490,premup-three_ses-02_part-02_label-phase2,3.2.4,MacIntel,60,,,,,,,,,,,,,,,,,,,,,,,,,,,,,
left,0.802999973,1,100,1,0,1,0,1,0,1,0,240,55,1,239,1,4,4,stim/44.jpeg,Instruments,1,stim/objects/Instruments/grandpiano.png,0.5,2,0.2,0.15,left,41,2020-12-08_01h03.57.490,premup-three_ses-02_part-02_label-phase2,3.2.4,MacIntel,60,,,,,,,,,,,,,,,,,,,,,,,,,,,,,
right,0.606999874,0,101,1,0,1,0,1,0,1,0,240,84,1,239,2,5,1,stim/51.jpeg,Instruments,1,stim/objects/Instruments/guitarcase.png,0.3,1,-0.2,0.15,left,41,2020-12-08_01h03.57.490,premup-three_ses-02_part-02_label-phase2,3.2.4,MacIntel,60,,,,,,,,,,,,,,,,,,,,,,,,,,,,,
right,0.667999744,1,102,1,0,1,0,1,0,1,0,240,39,1,239,1,3,4,stim/34.jpeg,HouseObjects,2,stim/objects/HouseObjects/doormat.png,0.5,3,-0.2,-0.15,right,41,2020-12-08_01h03.57.490,premup-three_ses-02_part-02_label-phase2,3.2.4,MacIntel,60,,,,,,,,,,,,,,,,,,,,,,,,,,,,,
left,0.687000036,0,103,1,0,1,0,1,0,1,0,240,180,1,239,3,1,1,stim/11.jpeg,HouseObjects,2,stim/objects/HouseObjects/dustpan2.png,0.9,4,0.2,-0.15,right,41,2020-12-08_01h03.57.490,premup-three_ses-02_part-02_label-phase2,3.2.4,MacIntel,60,,,,,,,,,,,,,,,,,,,,,,,,,,,,,
left,0.556999922,0,104,1,0,1,0,1,0,1,0,240,193,1,239,3,1,2,stim/12.jpeg,HouseObjects,2,stim/objects/HouseObjects/flyswatter2.png,0.9,3,-0.2,-0.15,right,41,2020-12-08_01h03.57.490,premup-three_ses-02_part-02_label-phase2,3.2.4,MacIntel,60,,,,,,,,,,,,,,,,,,,,,,,,,,,,,
right,0.778999805,0,105,1,0,1,0,1,0,1,0,240,162,1,239,3,1,3,stim/13.jpeg,Instruments,1,stim/objects/Instruments/gong2.png,0.1,2,0.2,0.15,left,41,2020-12-08_01h03.57.490,premup-three_ses-02_part-02_label-phase2,3.2.4,MacIntel,60,,,,,,,,,,,,,,,,,,,,,,,,,,,,,
right,0.581999779,0,106,1,0,1,0,1,0,1,0,240,89,1,239,2,5,2,stim/52.jpeg,Instruments,1,stim/objects/Instruments/harmonica.png,0.3,1,-0.2,0.15,left,41,2020-12-08_01h03.57.490,premup-three_ses-02_part-02_label-phase2,3.2.4,MacIntel,60,,,,,,,,,,,,,,,,,,,,,,,,,,,,,
right,0.543999672,1,107,1,0,1,0,1,0,1,0,240,164,1,239,3,1,1,stim/11.jpeg,HouseObjects,2,stim/objects/HouseObjects/dustpan2.png,0.9,1,-0.2,0.15,right,41,2020-12-08_01h03.57.490,premup-three_ses-02_part-02_label-phase2,3.2.4,MacIntel,60,,,,,,,,,,,,,,,,,,,,,,,,,,,,,
,,0,108,1,0,1,0,1,0,1,0,240,135,1,239,2,6,4,stim/64.jpeg,Instruments,1,stim/objects/Instruments/flute2.png,0.7,2,0.2,0.15,left,41,2020-12-08_01h03.57.490,premup-three_ses-02_part-02_label-phase2,3.2.4,MacIntel,60,,,,,,,,,,,,,,,,,,,,,,,,,,,,,
left,0.454999924,0,109,1,0,1,0,1,0,1,0,240,151,1,239,2,6,4,stim/64.jpeg,HouseObjects,2,stim/objects/HouseObjects/doormat2.png,0.3,4,0.2,-0.15,right,41,2020-12-08_01h03.57.490,premup-three_ses-02_part-02_label-phase2,3.2.4,MacIntel,60,,,,,,,,,,,,,,,,,,,,,,,,,,,,,
right,0.554999828,0,110,1,0,1,0,1,0,1,0,240,219,1,239,3,2,4,stim/24.jpeg,Instruments,1,stim/objects/Instruments/hihat2.png,0.9,1,-0.2,0.15,left,41,2020-12-08_01h03.57.490,premup-three_ses-02_part-02_label-phase2,3.2.4,MacIntel,60,,,,,,,,,,,,,,,,,,,,,,,,,,,,,
right,0.787999868,1,111,1,0,1,0,1,0,1,0,240,176,1,239,3,1,1,stim/11.jpeg,HouseObjects,2,stim/objects/HouseObjects/dustpan2.png,0.9,4,0.2,-0.15,right,41,2020-12-08_01h03.57.490,premup-three_ses-02_part-02_label-phase2,3.2.4,MacIntel,60,,,,,,,,,,,,,,,,,,,,,,,,,,,,,
right,0.757999897,0,112,1,0,1,0,1,0,1,0,240,14,1,239,1,3,3,stim/33.jpeg,Instruments,1,stim/objects/Instruments/electricguitar.png,0.5,4,0.2,-0.15,left,41,2020-12-08_01h03.57.490,premup-three_ses-02_part-02_label-phase2,3.2.4,MacIntel,60,,,,,,,,,,,,,,,,,,,,,,,,,,,,,
left,0.710999966,1,113,1,0,1,0,1,0,1,0,240,200,1,239,3,2,1,stim/21.jpeg,Instruments,1,stim/objects/Instruments/guitarcase2.png,0.9,1,-0.2,0.15,left,41,2020-12-08_01h03.57.490,premup-three_ses-02_part-02_label-phase2,3.2.4,MacIntel,60,,,,,,,,,,,,,,,,,,,,,,,,,,,,,
right,0.661999702,1,114,1,0,1,0,1,0,1,0,240,32,1,239,1,3,1,stim/31.jpeg,HouseObjects,2,stim/objects/HouseObjects/coffee.png,0.5,1,-0.2,0.15,right,41,2020-12-08_01h03.57.490,premup-three_ses-02_part-02_label-phase2,3.2.4,MacIntel,60,,,,,,,,,,,,,,,,,,,,,,,,,,,,,
,,0,115,1,0,1,0,1,0,1,0,240,110,1,239,2,5,3,stim/53.jpeg,HouseObjects,2,stim/objects/HouseObjects/handbrush.png,0.7,2,0.2,0.15,right,41,2020-12-08_01h03.57.490,premup-three_ses-02_part-02_label-phase2,3.2.4,MacIntel,60,,,,,,,,,,,,,,,,,,,,,,,,,,,,,
left,0.565999746,1,116,1,0,1,0,1,0,1,0,240,80,1,239,2,5,1,stim/51.jpeg,Instruments,1,stim/objects/Instruments/guitarcase.png,0.3,3,-0.2,-0.15,left,41,2020-12-08_01h03.57.490,premup-three_ses-02_part-02_label-phase2,3.2.4,MacIntel,60,,,,,,,,,,,,,,,,,,,,,,,,,,,,,
left,0.647999763,1,117,1,0,1,0,1,0,1,0,240,144,1,239,2,6,1,stim/61.jpeg,Instruments,1,stim/objects/Instruments/drums2.png,0.7,4,0.2,-0.15,left,41,2020-12-08_01h03.57.490,premup-three_ses-02_part-02_label-phase2,3.2.4,MacIntel,60,,,,,,,,,,,,,,,,,,,,,,,,,,,,,
right,0.644999981,0,118,1,0,1,0,1,0,1,0,240,163,1,239,3,1,4,stim/14.jpeg,Instruments,1,stim/objects/Instruments/grandpiano2.png,0.1,2,0.2,0.15,left,41,2020-12-08_01h03.57.490,premup-three_ses-02_part-02_label-phase2,3.2.4,MacIntel,60,,,,,,,,,,,,,,,,,,,,,,,,,,,,,
left,0.578999758,1,119,1,0,1,0,1,0,1,0,240,231,1,239,3,2,4,stim/24.jpeg,Instruments,1,stim/objects/Instruments/hihat2.png,0.9,4,0.2,-0.15,left,41,2020-12-08_01h03.57.490,premup-three_ses-02_part-02_label-phase2,3.2.4,MacIntel,60,,,,,,,,,,,,,,,,,,,,,,,,,,,,,
left,0.714999914,0,120,1,0,1,0,1,0,1,0,240,150,1,239,2,6,3,stim/63.jpeg,HouseObjects,2,stim/objects/HouseObjects/dishsoap2.png,0.3,4,0.2,-0.15,right,41,2020-12-08_01h03.57.490,premup-three_ses-02_part-02_label-phase2,3.2.4,MacIntel,60,,,,,,,,,,,,,,,,,,,,,,,,,,,,,
left,0.829999685,1,121,1,0,1,0,1,0,1,0,240,226,1,239,3,2,3,stim/23.jpeg,Instruments,1,stim/objects/Instruments/harp2.png,0.9,1,-0.2,0.15,left,41,2020-12-08_01h03.57.490,premup-three_ses-02_part-02_label-phase2,3.2.4,MacIntel,60,,,,,,,,,,,,,,,,,,,,,,,,,,,,,
right,0.762999773,0,122,1,0,1,0,1,0,1,0,240,18,1,239,1,3,3,stim/33.jpeg,Instruments,1,stim/objects/Instruments/electricguitar.png,0.5,1,-0.2,0.15,left,41,2020-12-08_01h03.57.490,premup-three_ses-02_part-02_label-phase2,3.2.4,MacIntel,60,,,,,,,,,,,,,,,,,,,,,,,,,,,,,
left,0.682999849,1,123,1,0,1,0,1,0,1,0,240,213,1,239,3,2,2,stim/22.jpeg,Instruments,1,stim/objects/Instruments/harmonica2.png,0.9,3,-0.2,-0.15,left,41,2020-12-08_01h03.57.490,premup-three_ses-02_part-02_label-phase2,3.2.4,MacIntel,60,,,,,,,,,,,,,,,,,,,,,,,,,,,,,
left,0.686999798,0,124,1,0,1,0,1,0,1,0,240,149,1,239,2,6,2,stim/62.jpeg,HouseObjects,2,stim/objects/HouseObjects/cushion2.png,0.3,4,0.2,-0.15,right,41,2020-12-08_01h03.57.490,premup-three_ses-02_part-02_label-phase2,3.2.4,MacIntel,60,,,,,,,,,,,,,,,,,,,,,,,,,,,,,
right,0.680999994,1,125,1,0,1,0,1,0,1,0,240,175,1,239,3,1,4,stim/14.jpeg,HouseObjects,2,stim/objects/HouseObjects/glass2.png,0.9,2,0.2,0.15,right,41,2020-12-08_01h03.57.490,premup-three_ses-02_part-02_label-phase2,3.2.4,MacIntel,60,,,,,,,,,,,,,,,,,,,,,,,,,,,,,
left,0.479999781,1,126,1,0,1,0,1,0,1,0,240,206,1,239,3,2,3,stim/23.jpeg,Instruments,1,stim/objects/Instruments/harp2.png,0.9,3,-0.2,-0.15,left,41,2020-12-08_01h03.57.490,premup-three_ses-02_part-02_label-phase2,3.2.4,MacIntel,60,,,,,,,,,,,,,,,,,,,,,,,,,,,,,
left,0.612999916,1,127,1,0,1,0,1,0,1,0,240,136,1,239,2,6,1,stim/61.jpeg,Instruments,1,stim/objects/Instruments/drums2.png,0.7,1,-0.2,0.15,left,41,2020-12-08_01h03.57.490,premup-three_ses-02_part-02_label-phase2,3.2.4,MacIntel,60,,,,,,,,,,,,,,,,,,,,,,,,,,,,,
left,0.453999758,0,128,1,0,1,0,1,0,1,0,240,152,1,239,2,6,1,stim/61.jpeg,HouseObjects,2,stim/objects/HouseObjects/coffee2.png,0.3,2,0.2,0.15,right,41,2020-12-08_01h03.57.490,premup-three_ses-02_part-02_label-phase2,3.2.4,MacIntel,60,,,,,,,,,,,,,,,,,,,,,,,,,,,,,
left,0.508999825,0,129,1,0,1,0,1,0,1,0,240,156,1,239,2,6,1,stim/61.jpeg,HouseObjects,2,stim/objects/HouseObjects/coffee2.png,0.3,3,-0.2,-0.15,right,41,2020-12-08_01h03.57.490,premup-three_ses-02_part-02_label-phase2,3.2.4,MacIntel,60,,,,,,,,,,,,,,,,,,,,,,,,,,,,,
left,0.46600008,1,130,1,0,1,0,1,0,1,0,240,7,1,239,1,3,4,stim/34.jpeg,Instruments,1,stim/objects/Instruments/flute.png,0.5,3,-0.2,-0.15,left,41,2020-12-08_01h03.57.490,premup-three_ses-02_part-02_label-phase2,3.2.4,MacIntel,60,,,,,,,,,,,,,,,,,,,,,,,,,,,,,
right,0.487999678,1,131,1,0,1,0,1,0,1,0,240,191,1,239,3,1,4,stim/14.jpeg,HouseObjects,2,stim/objects/HouseObjects/glass2.png,0.9,4,0.2,-0.15,right,41,2020-12-08_01h03.57.490,premup-three_ses-02_part-02_label-phase2,3.2.4,MacIntel,60,,,,,,,,,,,,,,,,,,,,,,,,,,,,,
right,0.820999861,1,132,1,0,1,0,1,0,1,0,240,184,1,239,3,1,1,stim/11.jpeg,HouseObjects,2,stim/objects/HouseObjects/dustpan2.png,0.9,1,-0.2,0.15,right,41,2020-12-08_01h03.57.490,premup-three_ses-02_part-02_label-phase2,3.2.4,MacIntel,60,,,,,,,,,,,,,,,,,,,,,,,,,,,,,
left,0.681999922,0,133,1,0,1,0,1,0,1,0,240,236,1,239,3,2,1,stim/21.jpeg,HouseObjects,2,stim/objects/HouseObjects/glassmop2.png,0.1,3,-0.2,-0.15,right,41,2020-12-08_01h03.57.490,premup-three_ses-02_part-02_label-phase2,3.2.4,MacIntel,60,,,,,,,,,,,,,,,,,,,,,,,,,,,,,
right,0.698999882,0,134,1,0,1,0,1,0,1,0,240,51,1,239,1,4,4,stim/44.jpeg,Instruments,1,stim/objects/Instruments/grandpiano.png,0.5,3,-0.2,-0.15,left,41,2020-12-08_01h03.57.490,premup-three_ses-02_part-02_label-phase2,3.2.4,MacIntel,60,,,,,,,,,,,,,,,,,,,,,,,,,,,,,
right,0.609999895,1,135,1,0,1,0,1,0,1,0,240,196,1,239,3,1,1,stim/11.jpeg,HouseObjects,2,stim/objects/HouseObjects/dustpan2.png,0.9,2,0.2,0.15,right,41,2020-12-08_01h03.57.490,premup-three_ses-02_part-02_label-phase2,3.2.4,MacIntel,60,,,,,,,,,,,,,,,,,,,,,,,,,,,,,
left,0.622999668,1,136,1,0,1,0,1,0,1,0,240,205,1,239,3,2,2,stim/22.jpeg,Instruments,1,stim/objects/Instruments/harmonica2.png,0.9,2,0.2,0.15,left,41,2020-12-08_01h03.57.490,premup-three_ses-02_part-02_label-phase2,3.2.4,MacIntel,60,,,,,,,,,,,,,,,,,,,,,,,,,,,,,
right,0.687999964,1,137,1,0,1,0,1,0,1,0,240,99,1,239,2,5,4,stim/54.jpeg,HouseObjects,2,stim/objects/HouseObjects/handvacuum.png,0.7,1,-0.2,0.15,right,41,2020-12-08_01h03.57.490,premup-three_ses-02_part-02_label-phase2,3.2.4,MacIntel,60,,,,,,,,,,,,,,,,,,,,,,,,,,,,,
,,0,138,1,0,1,0,1,0,1,0,240,105,1,239,2,5,2,stim/52.jpeg,HouseObjects,2,stim/objects/HouseObjects/hairdryer.png,0.7,2,0.2,0.15,right,41,2020-12-08_01h03.57.490,premup-three_ses-02_part-02_label-phase2,3.2.4,MacIntel,60,,,,,,,,,,,,,,,,,,,,,,,,,,,,,
right,0.694999933,1,139,1,0,1,0,1,0,1,0,240,25,1,239,1,3,2,stim/32.jpeg,HouseObjects,2,stim/objects/HouseObjects/cushion.png,0.5,3,-0.2,-0.15,right,41,2020-12-08_01h03.57.490,premup-three_ses-02_part-02_label-phase2,3.2.4,MacIntel,60,,,,,,,,,,,,,,,,,,,,,,,,,,,,,
right,0.655999899,1,140,1,0,1,0,1,0,1,0,240,199,1,239,3,1,4,stim/14.jpeg,HouseObjects,2,stim/objects/HouseObjects/glass2.png,0.9,1,-0.2,0.15,right,41,2020-12-08_01h03.57.490,premup-three_ses-02_part-02_label-phase2,3.2.4,MacIntel,60,,,,,,,,,,,,,,,,,,,,,,,,,,,,,
right,0.657999992,1,141,1,0,1,0,1,0,1,0,240,198,1,239,3,1,3,stim/13.jpeg,HouseObjects,2,stim/objects/HouseObjects/garbagebin2.png,0.9,3,-0.2,-0.15,right,41,2020-12-08_01h03.57.490,premup-three_ses-02_part-02_label-phase2,3.2.4,MacIntel,60,,,,,,,,,,,,,,,,,,,,,,,,,,,,,
,,0,142,1,0,1,0,1,0,1,0,240,140,1,239,2,6,1,stim/61.jpeg,Instruments,1,stim/objects/Instruments/drums2.png,0.7,4,0.2,-0.15,left,41,2020-12-08_01h03.57.490,premup-three_ses-02_part-02_label-phase2,3.2.4,MacIntel,60,,,,,,,,,,,,,,,,,,,,,,,,,,,,,
right,0.625999928,1,143,1,0,1,0,1,0,1,0,240,183,1,239,3,1,4,stim/14.jpeg,HouseObjects,2,stim/objects/HouseObjects/glass2.png,0.9,1,-0.2,0.15,right,41,2020-12-08_01h03.57.490,premup-three_ses-02_part-02_label-phase2,3.2.4,MacIntel,60,,,,,,,,,,,,,,,,,,,,,,,,,,,,,
right,0.538999796,1,144,1,0,1,0,1,0,1,0,240,24,1,239,1,3,1,stim/31.jpeg,HouseObjects,2,stim/objects/HouseObjects/coffee.png,0.5,2,0.2,0.15,right,41,2020-12-08_01h03.57.490,premup-three_ses-02_part-02_label-phase2,3.2.4,MacIntel,60,,,,,,,,,,,,,,,,,,,,,,,,,,,,,
right,0.61199975,0,145,1,0,1,0,1,0,1,0,240,88,1,239,2,5,1,stim/51.jpeg,Instruments,1,stim/objects/Instruments/guitarcase.png,0.3,1,-0.2,0.15,left,41,2020-12-08_01h03.57.490,premup-three_ses-02_part-02_label-phase2,3.2.4,MacIntel,60,,,,,,,,,,,,,,,,,,,,,,,,,,,,,
left,0.557999849,1,146,1,0,1,0,1,0,1,0,240,141,1,239,2,6,2,stim/62.jpeg,Instruments,1,stim/objects/Instruments/electricdrumset2.png,0.7,1,-0.2,0.15,left,41,2020-12-08_01h03.57.490,premup-three_ses-02_part-02_label-phase2,3.2.4,MacIntel,60,,,,,,,,,,,,,,,,,,,,,,,,,,,,,
left,0.660999775,1,147,1,0,1,0,1,0,1,0,240,132,1,239,2,6,1,stim/61.jpeg,Instruments,1,stim/objects/Instruments/drums2.png,0.7,3,-0.2,-0.15,left,41,2020-12-08_01h03.57.490,premup-three_ses-02_part-02_label-phase2,3.2.4,MacIntel,60,,,,,,,,,,,,,,,,,,,,,,,,,,,,,
right,0.648999929,1,148,1,0,1,0,1,0,1,0,240,188,1,239,3,1,1,stim/11.jpeg,HouseObjects,2,stim/objects/HouseObjects/dustpan2.png,0.9,4,0.2,-0.15,right,41,2020-12-08_01h03.57.490,premup-three_ses-02_part-02_label-phase2,3.2.4,MacIntel,60,,,,,,,,,,,,,,,,,,,,,,,,,,,,,
left,0.649999857,1,149,1,0,1,0,1,0,1,0,240,131,1,239,2,6,4,stim/64.jpeg,Instruments,1,stim/objects/Instruments/flute2.png,0.7,2,0.2,0.15,left,41,2020-12-08_01h03.57.490,premup-three_ses-02_part-02_label-phase2,3.2.4,MacIntel,60,,,,,,,,,,,,,,,,,,,,,,,,,,,,,
left,0.56099987,1,150,1,0,1,0,1,0,1,0,240,139,1,239,2,6,4,stim/64.jpeg,Instruments,1,stim/objects/Instruments/flute2.png,0.7,1,-0.2,0.15,left,41,2020-12-08_01h03.57.490,premup-three_ses-02_part-02_label-phase2,3.2.4,MacIntel,60,,,,,,,,,,,,,,,,,,,,,,,,,,,,,
,,0,151,1,0,1,0,1,0,1,0,240,74,1,239,1,4,3,stim/43.jpeg,HouseObjects,2,stim/objects/HouseObjects/garbagebin.png,0.5,3,-0.2,-0.15,right,41,2020-12-08_01h03.57.490,premup-three_ses-02_part-02_label-phase2,3.2.4,MacIntel,60,,,,,,,,,,,,,,,,,,,,,,,,,,,,,
left,0.592999935,1,152,1,0,1,0,1,0,1,0,240,208,1,239,3,2,1,stim/21.jpeg,Instruments,1,stim/objects/Instruments/guitarcase2.png,0.9,1,-0.2,0.15,left,41,2020-12-08_01h03.57.490,premup-three_ses-02_part-02_label-phase2,3.2.4,MacIntel,60,,,,,,,,,,,,,,,,,,,,,,,,,,,,,
right,0.545999765,1,153,1,0,1,0,1,0,1,0,240,100,1,239,2,5,1,stim/51.jpeg,HouseObjects,2,stim/objects/HouseObjects/glassmop.png,0.7,4,0.2,-0.15,right,41,2020-12-08_01h03.57.490,premup-three_ses-02_part-02_label-phase2,3.2.4,MacIntel,60,,,,,,,,,,,,,,,,,,,,,,,,,,,,,
left,0.503999949,1,154,1,0,1,0,1,0,1,0,240,122,1,239,2,6,3,stim/63.jpeg,Instruments,1,stim/objects/Instruments/electricguitar2.png,0.7,3,-0.2,-0.15,left,41,2020-12-08_01h03.57.490,premup-three_ses-02_part-02_label-phase2,3.2.4,MacIntel,60,,,,,,,,,,,,,,,,,,,,,,,,,,,,,
right,0.596999884,0,155,1,0,1,0,1,0,1,0,240,3,1,239,1,3,4,stim/34.jpeg,Instruments,1,stim/objects/Instruments/flute.png,0.5,2,0.2,0.15,left,41,2020-12-08_01h03.57.490,premup-three_ses-02_part-02_label-phase2,3.2.4,MacIntel,60,,,,,,,,,,,,,,,,,,,,,,,,,,,,,
right,0.559000015,0,156,1,0,1,0,1,0,1,0,240,214,1,239,3,2,3,stim/23.jpeg,Instruments,1,stim/objects/Instruments/harp2.png,0.9,1,-0.2,0.15,left,41,2020-12-08_01h03.57.490,premup-three_ses-02_part-02_label-phase2,3.2.4,MacIntel,60,,,,,,,,,,,,,,,,,,,,,,,,,,,,,
right,0.669999838,1,157,1,0,1,0,1,0,1,0,240,38,1,239,1,3,3,stim/33.jpeg,HouseObjects,2,stim/objects/HouseObjects/dishsoap.png,0.5,3,-0.2,-0.15,right,41,2020-12-08_01h03.57.490,premup-three_ses-02_part-02_label-phase2,3.2.4,MacIntel,60,,,,,,,,,,,,,,,,,,,,,,,,,,,,,
right,0.815999985,1,158,1,0,1,0,1,0,1,0,240,116,1,239,2,5,1,stim/51.jpeg,HouseObjects,2,stim/objects/HouseObjects/glassmop.png,0.7,3,-0.2,-0.15,right,41,2020-12-08_01h03.57.490,premup-three_ses-02_part-02_label-phase2,3.2.4,MacIntel,60,,,,,,,,,,,,,,,,,,,,,,,,,,,,,
left,0.724999666,1,159,1,0,1,0,1,0,1,0,240,19,1,239,1,3,4,stim/34.jpeg,Instruments,1,stim/objects/Instruments/flute.png,0.5,1,-0.2,0.15,left,41,2020-12-08_01h03.57.490,premup-three_ses-02_part-02_label-phase2,3.2.4,MacIntel,60,,,,,,,,,,,,,,,,,,,,,,,,,,,,,
right,0.718999863,1,160,1,0,1,0,1,0,1,0,240,36,1,239,1,3,1,stim/31.jpeg,HouseObjects,2,stim/objects/HouseObjects/coffee.png,0.5,3,-0.2,-0.15,right,41,2020-12-08_01h03.57.490,premup-three_ses-02_part-02_label-phase2,3.2.4,MacIntel,60,,,,,,,,,,,,,,,,,,,,,,,,,,,,,
left,0.688999891,1,161,1,0,1,0,1,0,1,0,240,142,1,239,2,6,3,stim/63.jpeg,Instruments,1,stim/objects/Instruments/electricguitar2.png,0.7,3,-0.2,-0.15,left,41,2020-12-08_01h03.57.490,premup-three_ses-02_part-02_label-phase2,3.2.4,MacIntel,60,,,,,,,,,,,,,,,,,,,,,,,,,,,,,
,,0,162,1,0,1,0,1,0,1,0,240,71,1,239,1,4,4,stim/44.jpeg,HouseObjects,2,stim/objects/HouseObjects/glass.png,0.5,3,-0.2,-0.15,right,41,2020-12-08_01h03.57.490,premup-three_ses-02_part-02_label-phase2,3.2.4,MacIntel,60,,,,,,,,,,,,,,,,,,,,,,,,,,,,,
,,0,163,1,0,1,0,1,0,1,0,240,189,1,239,3,1,2,stim/12.jpeg,HouseObjects,2,stim/objects/HouseObjects/flyswatter2.png,0.9,4,0.2,-0.15,right,41,2020-12-08_01h03.57.490,premup-three_ses-02_part-02_label-phase2,3.2.4,MacIntel,60,,,,,,,,,,,,,,,,,,,,,,,,,,,,,
right,0.653999805,1,164,1,0,1,0,1,0,1,0,240,67,1,239,1,4,4,stim/44.jpeg,HouseObjects,2,stim/objects/HouseObjects/glass.png,0.5,2,0.2,0.15,right,41,2020-12-08_01h03.57.490,premup-three_ses-02_part-02_label-phase2,3.2.4,MacIntel,60,,,,,,,,,,,,,,,,,,,,,,,,,,,,,
right,0.630999804,0,165,1,0,1,0,1,0,1,0,240,6,1,239,1,3,3,stim/33.jpeg,Instruments,1,stim/objects/Instruments/electricguitar.png,0.5,4,0.2,-0.15,left,41,2020-12-08_01h03.57.490,premup-three_ses-02_part-02_label-phase2,3.2.4,MacIntel,60,,,,,,,,,,,,,,,,,,,,,,,,,,,,,
left,0.549999952,0,166,1,0,1,0,1,0,1,0,240,93,1,239,2,5,2,stim/52.jpeg,HouseObjects,2,stim/objects/HouseObjects/hairdryer.png,0.7,3,-0.2,-0.15,right,41,2020-12-08_01h03.57.490,premup-three_ses-02_part-02_label-phase2,3.2.4,MacIntel,60,,,,,,,,,,,,,,,,,,,,,,,,,,,,,
right,0.686999798,1,167,1,0,1,0,1,0,1,0,240,37,1,239,1,3,2,stim/32.jpeg,HouseObjects,2,stim/objects/HouseObjects/cushion.png,0.5,4,0.2,-0.15,right,41,2020-12-08_01h03.57.490,premup-three_ses-02_part-02_label-phase2,3.2.4,MacIntel,60,,,,,,,,,,,,,,,,,,,,,,,,,,,,,
right,0.664999723,1,168,1,0,1,0,1,0,1,0,240,166,1,239,3,1,3,stim/13.jpeg,HouseObjects,2,stim/objects/HouseObjects/garbagebin2.png,0.9,1,-0.2,0.15,right,41,2020-12-08_01h03.57.490,premup-three_ses-02_part-02_label-phase2,3.2.4,MacIntel,60,,,,,,,,,,,,,,,,,,,,,,,,,,,,,
,,0,169,1,0,1,0,1,0,1,0,240,76,1,239,1,4,1,stim/41.jpeg,HouseObjects,2,stim/objects/HouseObjects/dustpan.png,0.5,4,0.2,-0.15,right,41,2020-12-08_01h03.57.490,premup-three_ses-02_part-02_label-phase2,3.2.4,MacIntel,60,,,,,,,,,,,,,,,,,,,,,,,,,,,,,
right,0.504999876,0,170,1,0,1,0,1,0,1,0,240,42,1,239,1,4,3,stim/43.jpeg,Instruments,1,stim/objects/Instruments/gong.png,0.5,4,0.2,-0.15,left,41,2020-12-08_01h03.57.490,premup-three_ses-02_part-02_label-phase2,3.2.4,MacIntel,60,,,,,,,,,,,,,,,,,,,,,,,,,,,,,
right,0.71600008,0,171,1,0,1,0,1,0,1,0,240,5,1,239,1,3,2,stim/32.jpeg,Instruments,1,stim/objects/Instruments/electricdrumset.png,0.5,3,-0.2,-0.15,left,41,2020-12-08_01h03.57.490,premup-three_ses-02_part-02_label-phase2,3.2.4,MacIntel,60,,,,,,,,,,,,,,,,,,,,,,,,,,,,,
,,0,172,1,0,1,0,1,0,1,0,240,64,1,239,1,4,1,stim/41.jpeg,HouseObjects,2,stim/objects/HouseObjects/dustpan.png,0.5,4,0.2,-0.15,right,41,2020-12-08_01h03.57.490,premup-three_ses-02_part-02_label-phase2,3.2.4,MacIntel,60,,,,,,,,,,,,,,,,,,,,,,,,,,,,,
right,0.608999729,1,173,1,0,1,0,1,0,1,0,240,197,1,239,3,1,2,stim/12.jpeg,HouseObjects,2,stim/objects/HouseObjects/flyswatter2.png,0.9,2,0.2,0.15,right,41,2020-12-08_01h03.57.490,premup-three_ses-02_part-02_label-phase2,3.2.4,MacIntel,60,,,,,,,,,,,,,,,,,,,,,,,,,,,,,
right,0.606999874,1,174,1,0,1,0,1,0,1,0,240,104,1,239,2,5,1,stim/51.jpeg,HouseObjects,2,stim/objects/HouseObjects/glassmop.png,0.7,1,-0.2,0.15,right,41,2020-12-08_01h03.57.490,premup-three_ses-02_part-02_label-phase2,3.2.4,MacIntel,60,,,,,,,,,,,,,,,,,,,,,,,,,,,,,
left,0.600999832,0,175,1,0,1,0,1,0,1,0,240,155,1,239,2,6,4,stim/64.jpeg,HouseObjects,2,stim/objects/HouseObjects/doormat2.png,0.3,1,-0.2,0.15,right,41,2020-12-08_01h03.57.490,premup-three_ses-02_part-02_label-phase2,3.2.4,MacIntel,60,,,,,,,,,,,,,,,,,,,,,,,,,,,,,
left,0.576999903,0,176,1,0,1,0,1,0,1,0,240,148,1,239,2,6,1,stim/61.jpeg,HouseObjects,2,stim/objects/HouseObjects/coffee2.png,0.3,3,-0.2,-0.15,right,41,2020-12-08_01h03.57.490,premup-three_ses-02_part-02_label-phase2,3.2.4,MacIntel,60,,,,,,,,,,,,,,,,,,,,,,,,,,,,,
right,0.57799983,1,177,1,0,1,0,1,0,1,0,240,181,1,239,3,1,2,stim/12.jpeg,HouseObjects,2,stim/objects/HouseObjects/flyswatter2.png,0.9,4,0.2,-0.15,right,41,2020-12-08_01h03.57.490,premup-three_ses-02_part-02_label-phase2,3.2.4,MacIntel,60,,,,,,,,,,,,,,,,,,,,,,,,,,,,,
right,0.527999878,1,178,1,0,1,0,1,0,1,0,240,174,1,239,3,1,3,stim/13.jpeg,HouseObjects,2,stim/objects/HouseObjects/garbagebin2.png,0.9,4,0.2,-0.15,right,41,2020-12-08_01h03.57.490,premup-three_ses-02_part-02_label-phase2,3.2.4,MacIntel,60,,,,,,,,,,,,,,,,,,,,,,,,,,,,,
right,0.764999866,1,179,1,0,1,0,1,0,1,0,240,29,1,239,1,3,2,stim/32.jpeg,HouseObjects,2,stim/objects/HouseObjects/cushion.png,0.5,1,-0.2,0.15,right,41,2020-12-08_01h03.57.490,premup-three_ses-02_part-02_label-phase2,3.2.4,MacIntel,60,,,,,,,,,,,,,,,,,,,,,,,,,,,,,
right,0.516999722,1,180,1,0,1,0,1,0,1,0,240,28,1,239,1,3,1,stim/31.jpeg,HouseObjects,2,stim/objects/HouseObjects/coffee.png,0.5,4,0.2,-0.15,right,41,2020-12-08_01h03.57.490,premup-three_ses-02_part-02_label-phase2,3.2.4,MacIntel,60,,,,,,,,,,,,,,,,,,,,,,,,,,,,,
right,0.54399991,0,181,1,0,1,0,1,0,1,0,240,147,1,239,2,6,4,stim/64.jpeg,Instruments,1,stim/objects/Instruments/flute2.png,0.7,4,0.2,-0.15,left,41,2020-12-08_01h03.57.490,premup-three_ses-02_part-02_label-phase2,3.2.4,MacIntel,60,,,,,,,,,,,,,,,,,,,,,,,,,,,,,
right,0.654000044,1,182,1,0,1,0,1,0,1,0,240,106,1,239,2,5,3,stim/53.jpeg,HouseObjects,2,stim/objects/HouseObjects/handbrush.png,0.7,3,-0.2,-0.15,right,41,2020-12-08_01h03.57.490,premup-three_ses-02_part-02_label-phase2,3.2.4,MacIntel,60,,,,,,,,,,,,,,,,,,,,,,,,,,,,,
right,0.596999884,1,183,1,0,1,0,1,0,1,0,240,94,1,239,2,5,3,stim/53.jpeg,HouseObjects,2,stim/objects/HouseObjects/handbrush.png,0.7,3,-0.2,-0.15,right,41,2020-12-08_01h03.57.490,premup-three_ses-02_part-02_label-phase2,3.2.4,MacIntel,60,,,,,,,,,,,,,,,,,,,,,,,,,,,,,
right,0.795000076,1,184,1,0,1,0,1,0,1,0,240,171,1,239,3,1,4,stim/14.jpeg,HouseObjects,2,stim/objects/HouseObjects/glass2.png,0.9,2,0.2,0.15,right,41,2020-12-08_01h03.57.490,premup-three_ses-02_part-02_label-phase2,3.2.4,MacIntel,60,,,,,,,,,,,,,,,,,,,,,,,,,,,,,
right,0.53399992,1,185,1,0,1,0,1,0,1,0,240,108,1,239,2,5,1,stim/51.jpeg,HouseObjects,2,stim/objects/HouseObjects/glassmop.png,0.7,2,0.2,0.15,right,41,2020-12-08_01h03.57.490,premup-three_ses-02_part-02_label-phase2,3.2.4,MacIntel,60,,,,,,,,,,,,,,,,,,,,,,,,,,,,,
left,0.494999886,0,186,1,0,1,0,1,0,1,0,240,158,1,239,2,6,3,stim/63.jpeg,HouseObjects,2,stim/objects/HouseObjects/dishsoap2.png,0.3,4,0.2,-0.15,right,41,2020-12-08_01h03.57.490,premup-three_ses-02_part-02_label-phase2,3.2.4,MacIntel,60,,,,,,,,,,,,,,,,,,,,,,,,,,,,,
left,0.544999838,1,187,1,0,1,0,1,0,1,0,240,137,1,239,2,6,2,stim/62.jpeg,Instruments,1,stim/objects/Instruments/electricdrumset2.png,0.7,2,0.2,0.15,left,41,2020-12-08_01h03.57.490,premup-three_ses-02_part-02_label-phase2,3.2.4,MacIntel,60,,,,,,,,,,,,,,,,,,,,,,,,,,,,,
right,0.555999756,1,188,1,0,1,0,1,0,1,0,240,78,1,239,1,4,3,stim/43.jpeg,HouseObjects,2,stim/objects/HouseObjects/garbagebin.png,0.5,1,-0.2,0.15,right,41,2020-12-08_01h03.57.490,premup-three_ses-02_part-02_label-phase2,3.2.4,MacIntel,60,,,,,,,,,,,,,,,,,,,,,,,,,,,,,
right,0.645999908,1,189,1,0,1,0,1,0,1,0,240,69,1,239,1,4,2,stim/42.jpeg,HouseObjects,2,stim/objects/HouseObjects/flyswatter.png,0.5,3,-0.2,-0.15,right,41,2020-12-08_01h03.57.490,premup-three_ses-02_part-02_label-phase2,3.2.4,MacIntel,60,,,,,,,,,,,,,,,,,,,,,,,,,,,,,
right,0.740999937,1,190,1,0,1,0,1,0,1,0,240,72,1,239,1,4,1,stim/41.jpeg,HouseObjects,2,stim/objects/HouseObjects/dustpan.png,0.5,1,-0.2,0.15,right,41,2020-12-08_01h03.57.490,premup-three_ses-02_part-02_label-phase2,3.2.4,MacIntel,60,,,,,,,,,,,,,,,,,,,,,,,,,,,,,
left,0.620999813,1,191,1,0,1,0,1,0,1,0,240,145,1,239,2,6,2,stim/62.jpeg,Instruments,1,stim/objects/Instruments/electricdrumset2.png,0.7,4,0.2,-0.15,left,41,2020-12-08_01h03.57.490,premup-three_ses-02_part-02_label-phase2,3.2.4,MacIntel,60,,,,,,,,,,,,,,,,,,,,,,,,,,,,,
right,0.598999977,0,192,1,0,1,0,1,0,1,0,240,90,1,239,2,5,3,stim/53.jpeg,Instruments,1,stim/objects/Instruments/harp.png,0.3,1,-0.2,0.15,left,41,2020-12-08_01h03.57.490,premup-three_ses-02_part-02_label-phase2,3.2.4,MacIntel,60,,,,,,,,,,,,,,,,,,,,,,,,,,,,,
right,0.566999674,1,193,1,0,1,0,1,0,1,0,240,97,1,239,2,5,2,stim/52.jpeg,HouseObjects,2,stim/objects/HouseObjects/hairdryer.png,0.7,1,-0.2,0.15,right,41,2020-12-08_01h03.57.490,premup-three_ses-02_part-02_label-phase2,3.2.4,MacIntel,60,,,,,,,,,,,,,,,,,,,,,,,,,,,,,
right,0.537999868,0,194,1,0,1,0,1,0,1,0,240,81,1,239,2,5,2,stim/52.jpeg,Instruments,1,stim/objects/Instruments/harmonica.png,0.3,1,-0.2,0.15,left,41,2020-12-08_01h03.57.490,premup-three_ses-02_part-02_label-phase2,3.2.4,MacIntel,60,,,,,,,,,,,,,,,,,,,,,,,,,,,,,
left,0.553999901,1,195,1,0,1,0,1,0,1,0,240,146,1,239,2,6,3,stim/63.jpeg,Instruments,1,stim/objects/Instruments/electricguitar2.png,0.7,4,0.2,-0.15,left,41,2020-12-08_01h03.57.490,premup-three_ses-02_part-02_label-phase2,3.2.4,MacIntel,60,,,,,,,,,,,,,,,,,,,,,,,,,,,,,
right,0.546999931,1,196,1,0,1,0,1,0,1,0,240,77,1,239,1,4,2,stim/42.jpeg,HouseObjects,2,stim/objects/HouseObjects/flyswatter.png,0.5,2,0.2,0.15,right,41,2020-12-08_01h03.57.490,premup-three_ses-02_part-02_label-phase2,3.2.4,MacIntel,60,,,,,,,,,,,,,,,,,,,,,,,,,,,,,
right,0.535999775,1,197,1,0,1,0,1,0,1,0,240,65,1,239,1,4,2,stim/42.jpeg,HouseObjects,2,stim/objects/HouseObjects/flyswatter.png,0.5,4,0.2,-0.15,right,41,2020-12-08_01h03.57.490,premup-three_ses-02_part-02_label-phase2,3.2.4,MacIntel,60,,,,,,,,,,,,,,,,,,,,,,,,,,,,,
left,0.646999836,1,198,1,0,1,0,1,0,1,0,240,216,1,239,3,2,1,stim/21.jpeg,Instruments,1,stim/objects/Instruments/guitarcase2.png,0.9,1,-0.2,0.15,left,41,2020-12-08_01h03.57.490,premup-three_ses-02_part-02_label-phase2,3.2.4,MacIntel,60,,,,,,,,,,,,,,,,,,,,,,,,,,,,,
right,0.563999653,1,199,1,0,1,0,1,0,1,0,240,112,1,239,2,5,1,stim/51.jpeg,HouseObjects,2,stim/objects/HouseObjects/glassmop.png,0.7,4,0.2,-0.15,right,41,2020-12-08_01h03.57.490,premup-three_ses-02_part-02_label-phase2,3.2.4,MacIntel,60,,,,,,,,,,,,,,,,,,,,,,,,,,,,,
left,0.71600008,1,200,1,0,1,0,1,0,1,0,240,130,1,239,2,6,3,stim/63.jpeg,Instruments,1,stim/objects/Instruments/electricguitar2.png,0.7,2,0.2,0.15,left,41,2020-12-08_01h03.57.490,premup-three_ses-02_part-02_label-phase2,3.2.4,MacIntel,60,,,,,,,,,,,,,,,,,,,,,,,,,,,,,
right,0.657999754,1,201,1,0,1,0,1,0,1,0,240,170,1,239,3,1,3,stim/13.jpeg,HouseObjects,2,stim/objects/HouseObjects/garbagebin2.png,0.9,3,-0.2,-0.15,right,41,2020-12-08_01h03.57.490,premup-three_ses-02_part-02_label-phase2,3.2.4,MacIntel,60,,,,,,,,,,,,,,,,,,,,,,,,,,,,,
,,0,202,1,0,1,0,1,0,1,0,240,75,1,239,1,4,4,stim/44.jpeg,HouseObjects,2,stim/objects/HouseObjects/glass.png,0.5,3,-0.2,-0.15,right,41,2020-12-08_01h03.57.490,premup-three_ses-02_part-02_label-phase2,3.2.4,MacIntel,60,,,,,,,,,,,,,,,,,,,,,,,,,,,,,
right,0.71999979,0,203,1,0,1,0,1,0,1,0,240,53,1,239,1,4,2,stim/42.jpeg,Instruments,1,stim/objects/Instruments/frenchhorn.png,0.5,3,-0.2,-0.15,left,41,2020-12-08_01h03.57.490,premup-three_ses-02_part-02_label-phase2,3.2.4,MacIntel,60,,,,,,,,,,,,,,,,,,,,,,,,,,,,,
right,0.480999708,1,204,1,0,1,0,1,0,1,0,240,117,1,239,2,5,2,stim/52.jpeg,HouseObjects,2,stim/objects/HouseObjects/hairdryer.png,0.7,3,-0.2,-0.15,right,41,2020-12-08_01h03.57.490,premup-three_ses-02_part-02_label-phase2,3.2.4,MacIntel,60,,,,,,,,,,,,,,,,,,,,,,,,,,,,,
right,0.547999859,1,205,1,0,1,0,1,0,1,0,240,194,1,239,3,1,3,stim/13.jpeg,HouseObjects,2,stim/objects/HouseObjects/garbagebin2.png,0.9,1,-0.2,0.15,right,41,2020-12-08_01h03.57.490,premup-three_ses-02_part-02_label-phase2,3.2.4,MacIntel,60,,,,,,,,,,,,,,,,,,,,,,,,,,,,,
right,0.664999962,1,206,1,0,1,0,1,0,1,0,240,192,1,239,3,1,1,stim/11.jpeg,HouseObjects,2,stim/objects/HouseObjects/dustpan2.png,0.9,3,-0.2,-0.15,right,41,2020-12-08_01h03.57.490,premup-three_ses-02_part-02_label-phase2,3.2.4,MacIntel,60,,,,,,,,,,,,,,,,,,,,,,,,,,,,,
left,0.661999941,1,207,1,0,1,0,1,0,1,0,240,230,1,239,3,2,3,stim/23.jpeg,Instruments,1,stim/objects/Instruments/harp2.png,0.9,4,0.2,-0.15,left,41,2020-12-08_01h03.57.490,premup-three_ses-02_part-02_label-phase2,3.2.4,MacIntel,60,,,,,,,,,,,,,,,,,,,,,,,,,,,,,
right,0.5849998,1,208,1,0,1,0,1,0,1,0,240,98,1,239,2,5,3,stim/53.jpeg,HouseObjects,2,stim/objects/HouseObjects/handbrush.png,0.7,2,0.2,0.15,right,41,2020-12-08_01h03.57.490,premup-three_ses-02_part-02_label-phase2,3.2.4,MacIntel,60,,,,,,,,,,,,,,,,,,,,,,,,,,,,,
left,0.689999819,0,209,1,0,1,0,1,0,1,0,240,157,1,239,2,6,2,stim/62.jpeg,HouseObjects,2,stim/objects/HouseObjects/cushion2.png,0.3,1,-0.2,0.15,right,41,2020-12-08_01h03.57.490,premup-three_ses-02_part-02_label-phase2,3.2.4,MacIntel,60,,,,,,,,,,,,,,,,,,,,,,,,,,,,,
right,0.629999876,1,210,1,0,1,0,1,0,1,0,240,169,1,239,3,1,2,stim/12.jpeg,HouseObjects,2,stim/objects/HouseObjects/flyswatter2.png,0.9,1,-0.2,0.15,right,41,2020-12-08_01h03.57.490,premup-three_ses-02_part-02_label-phase2,3.2.4,MacIntel,60,,,,,,,,,,,,,,,,,,,,,,,,,,,,,
left,0.631999969,1,211,1,0,1,0,1,0,1,0,240,59,1,239,1,4,4,stim/44.jpeg,Instruments,1,stim/objects/Instruments/grandpiano.png,0.5,4,0.2,-0.15,left,41,2020-12-08_01h03.57.490,premup-three_ses-02_part-02_label-phase2,3.2.4,MacIntel,60,,,,,,,,,,,,,,,,,,,,,,,,,,,,,
right,0.48300004,1,212,1,0,1,0,1,0,1,0,240,60,1,239,1,4,1,stim/41.jpeg,HouseObjects,2,stim/objects/HouseObjects/dustpan.png,0.5,1,-0.2,0.15,right,41,2020-12-08_01h03.57.490,premup-three_ses-02_part-02_label-phase2,3.2.4,MacIntel,60,,,,,,,,,,,,,,,,,,,,,,,,,,,,,
,,0,213,1,0,1,0,1,0,1,0,240,173,1,239,3,1,2,stim/12.jpeg,HouseObjects,2,stim/objects/HouseObjects/flyswatter2.png,0.9,2,0.2,0.15,right,41,2020-12-08_01h03.57.490,premup-three_ses-02_part-02_label-phase2,3.2.4,MacIntel,60,,,,,,,,,,,,,,,,,,,,,,,,,,,,,
right,0.451999903,1,214,1,0,1,0,1,0,1,0,240,26,1,239,1,3,3,stim/33.jpeg,HouseObjects,2,stim/objects/HouseObjects/dishsoap.png,0.5,2,0.2,0.15,right,41,2020-12-08_01h03.57.490,premup-three_ses-02_part-02_label-phase2,3.2.4,MacIntel,60,,,,,,,,,,,,,,,,,,,,,,,,,,,,,
right,0.499999762,0,215,1,0,1,0,1,0,1,0,240,16,1,239,1,3,1,stim/31.jpeg,Instruments,1,stim/objects/Instruments/drums.png,0.5,2,0.2,0.15,left,41,2020-12-08_01h03.57.490,premup-three_ses-02_part-02_label-phase2,3.2.4,MacIntel,60,,,,,,,,,,,,,,,,,,,,,,,,,,,,,
left,0.600999832,0,216,1,0,1,0,1,0,1,0,240,153,1,239,2,6,2,stim/62.jpeg,HouseObjects,2,stim/objects/HouseObjects/cushion2.png,0.3,2,0.2,0.15,right,41,2020-12-08_01h03.57.490,premup-three_ses-02_part-02_label-phase2,3.2.4,MacIntel,60,,,,,,,,,,,,,,,,,,,,,,,,,,,,,
right,0.690999746,0,217,1,0,1,0,1,0,1,0,240,57,1,239,1,4,2,stim/42.jpeg,Instruments,1,stim/objects/Instruments/frenchhorn.png,0.5,4,0.2,-0.15,left,41,2020-12-08_01h03.57.490,premup-three_ses-02_part-02_label-phase2,3.2.4,MacIntel,60,,,,,,,,,,,,,,,,,,,,,,,,,,,,,
left,0.551999807,0,218,1,0,1,0,1,0,1,0,240,20,1,239,1,3,1,stim/31.jpeg,HouseObjects,2,stim/objects/HouseObjects/coffee.png,0.5,1,-0.2,0.15,right,41,2020-12-08_01h03.57.490,premup-three_ses-02_part-02_label-phase2,3.2.4,MacIntel,60,,,,,,,,,,,,,,,,,,,,,,,,,,,,,
right,0.657999992,1,219,1,0,1,0,1,0,1,0,240,111,1,239,2,5,4,stim/54.jpeg,HouseObjects,2,stim/objects/HouseObjects/handvacuum.png,0.7,1,-0.2,0.15,right,41,2020-12-08_01h03.57.490,premup-three_ses-02_part-02_label-phase2,3.2.4,MacIntel,60,,,,,,,,,,,,,,,,,,,,,,,,,,,,,
,,0,220,1,0,1,0,1,0,1,0,240,124,1,239,2,6,1,stim/61.jpeg,Instruments,1,stim/objects/Instruments/drums2.png,0.7,2,0.2,0.15,left,41,2020-12-08_01h03.57.490,premup-three_ses-02_part-02_label-phase2,3.2.4,MacIntel,60,,,,,,,,,,,,,,,,,,,,,,,,,,,,,
right,0.409999847,0,221,1,0,1,0,1,0,1,0,240,1,1,239,1,3,2,stim/32.jpeg,Instruments,1,stim/objects/Instruments/electricdrumset.png,0.5,4,0.2,-0.15,left,41,2020-12-08_01h03.57.490,premup-three_ses-02_part-02_label-phase2,3.2.4,MacIntel,60,,,,,,,,,,,,,,,,,,,,,,,,,,,,,
right,0.552999973,0,222,1,0,1,0,1,0,1,0,240,15,1,239,1,3,4,stim/34.jpeg,Instruments,1,stim/objects/Instruments/flute.png,0.5,3,-0.2,-0.15,left,41,2020-12-08_01h03.57.490,premup-three_ses-02_part-02_label-phase2,3.2.4,MacIntel,60,,,,,,,,,,,,,,,,,,,,,,,,,,,,,
right,0.537999868,1,223,1,0,1,0,1,0,1,0,240,35,1,239,1,3,4,stim/34.jpeg,HouseObjects,2,stim/objects/HouseObjects/doormat.png,0.5,3,-0.2,-0.15,right,41,2020-12-08_01h03.57.490,premup-three_ses-02_part-02_label-phase2,3.2.4,MacIntel,60,,,,,,,,,,,,,,,,,,,,,,,,,,,,,
left,0.661999941,0,224,1,0,1,0,1,0,1,0,240,70,1,239,1,4,3,stim/43.jpeg,HouseObjects,2,stim/objects/HouseObjects/garbagebin.png,0.5,1,-0.2,0.15,right,41,2020-12-08_01h03.57.490,premup-three_ses-02_part-02_label-phase2,3.2.4,MacIntel,60,,,,,,,,,,,,,,,,,,,,,,,,,,,,,
right,0.707999945,0,225,1,0,1,0,1,0,1,0,240,10,1,239,1,3,3,stim/33.jpeg,Instruments,1,stim/objects/Instruments/electricguitar.png,0.5,1,-0.2,0.15,left,41,2020-12-08_01h03.57.490,premup-three_ses-02_part-02_label-phase2,3.2.4,MacIntel,60,,,,,,,,,,,,,,,,,,,,,,,,,,,,,
right,0.640999794,0,226,1,0,1,0,1,0,1,0,240,9,1,239,1,3,2,stim/32.jpeg,Instruments,1,stim/objects/Instruments/electricdrumset.png,0.5,4,0.2,-0.15,left,41,2020-12-08_01h03.57.490,premup-three_ses-02_part-02_label-phase2,3.2.4,MacIntel,60,,,,,,,,,,,,,,,,,,,,,,,,,,,,,
right,0.746999979,1,227,1,0,1,0,1,0,1,0,240,73,1,239,1,4,2,stim/42.jpeg,HouseObjects,2,stim/objects/HouseObjects/flyswatter.png,0.5,2,0.2,0.15,right,41,2020-12-08_01h03.57.490,premup-three_ses-02_part-02_label-phase2,3.2.4,MacIntel,60,,,,,,,,,,,,,,,,,,,,,,,,,,,,,
left,0.454999924,1,228,1,0,1,0,1,0,1,0,240,228,1,239,3,2,1,stim/21.jpeg,Instruments,1,stim/objects/Instruments/guitarcase2.png,0.9,2,0.2,0.15,left,41,2020-12-08_01h03.57.490,premup-three_ses-02_part-02_label-phase2,3.2.4,MacIntel,60,,,,,,,,,,,,,,,,,,,,,,,,,,,,,
right,0.588999987,0,229,1,0,1,0,1,0,1,0,240,83,1,239,2,5,4,stim/54.jpeg,Instruments,1,stim/objects/Instruments/hihat.png,0.3,1,-0.2,0.15,left,41,2020-12-08_01h03.57.490,premup-three_ses-02_part-02_label-phase2,3.2.4,MacIntel,60,,,,,,,,,,,,,,,,,,,,,,,,,,,,,
left,0.700999975,1,230,1,0,1,0,1,0,1,0,240,126,1,239,2,6,3,stim/63.jpeg,Instruments,1,stim/objects/Instruments/electricguitar2.png,0.7,1,-0.2,0.15,left,41,2020-12-08_01h03.57.490,premup-three_ses-02_part-02_label-phase2,3.2.4,MacIntel,60,,,,,,,,,,,,,,,,,,,,,,,,,,,,,
right,0.621999741,1,231,1,0,1,0,1,0,1,0,240,119,1,239,2,5,4,stim/54.jpeg,HouseObjects,2,stim/objects/HouseObjects/handvacuum.png,0.7,4,0.2,-0.15,right,41,2020-12-08_01h03.57.490,premup-three_ses-02_part-02_label-phase2,3.2.4,MacIntel,60,,,,,,,,,,,,,,,,,,,,,,,,,,,,,
right,0.650999784,0,232,1,0,1,0,1,0,1,0,240,87,1,239,2,5,4,stim/54.jpeg,Instruments,1,stim/objects/Instruments/hihat.png,0.3,2,0.2,0.15,left,41,2020-12-08_01h03.57.490,premup-three_ses-02_part-02_label-phase2,3.2.4,MacIntel,60,,,,,,,,,,,,,,,,,,,,,,,,,,,,,
left,0.638999939,1,233,1,0,1,0,1,0,1,0,240,2,1,239,1,3,3,stim/33.jpeg,Instruments,1,stim/objects/Instruments/electricguitar.png,0.5,3,-0.2,-0.15,left,41,2020-12-08_01h03.57.490,premup-three_ses-02_part-02_label-phase2,3.2.4,MacIntel,60,,,,,,,,,,,,,,,,,,,,,,,,,,,,,
left,0.70299983,1,234,1,0,1,0,1,0,1,0,240,143,1,239,2,6,4,stim/64.jpeg,Instruments,1,stim/objects/Instruments/flute2.png,0.7,4,0.2,-0.15,left,41,2020-12-08_01h03.57.490,premup-three_ses-02_part-02_label-phase2,3.2.4,MacIntel,60,,,,,,,,,,,,,,,,,,,,,,,,,,,,,
right,0.745999813,1,235,1,0,1,0,1,0,1,0,240,185,1,239,3,1,2,stim/12.jpeg,HouseObjects,2,stim/objects/HouseObjects/flyswatter2.png,0.9,2,0.2,0.15,right,41,2020-12-08_01h03.57.490,premup-three_ses-02_part-02_label-phase2,3.2.4,MacIntel,60,,,,,,,,,,,,,,,,,,,,,,,,,,,,,
left,0.545999765,1,236,1,0,1,0,1,0,1,0,240,41,1,239,1,4,2,stim/42.jpeg,Instruments,1,stim/objects/Instruments/frenchhorn.png,0.5,2,0.2,0.15,left,41,2020-12-08_01h03.57.490,premup-three_ses-02_part-02_label-phase2,3.2.4,MacIntel,60,,,,,,,,,,,,,,,,,,,,,,,,,,,,,
left,0.701999903,1,237,1,0,1,0,1,0,1,0,240,220,1,239,3,2,1,stim/21.jpeg,Instruments,1,stim/objects/Instruments/guitarcase2.png,0.9,1,-0.2,0.15,left,41,2020-12-08_01h03.57.490,premup-three_ses-02_part-02_label-phase2,3.2.4,MacIntel,60,,,,,,,,,,,,,,,,,,,,,,,,,,,,,
left,0.626999855,1,238,1,0,1,0,1,0,1,0,240,222,1,239,3,2,3,stim/23.jpeg,Instruments,1,stim/objects/Instruments/harp2.png,0.9,4,0.2,-0.15,left,41,2020-12-08_01h03.57.490,premup-three_ses-02_part-02_label-phase2,3.2.4,MacIntel,60,,,,,,,,,,,,,,,,,,,,,,,,,,,,,
right,0.570999861,0,239,1,0,1,0,1,0,1,0,240,86,1,239,2,5,3,stim/53.jpeg,Instruments,1,stim/objects/Instruments/harp.png,0.3,4,0.2,-0.15,left,41,2020-12-08_01h03.57.490,premup-three_ses-02_part-02_label-phase2,3.2.4,MacIntel,60,,,,,,,,,,,,,,,,,,,,,,,,,,,,,
right,0.541999817,0,240,1,0,1,0,1,0,1,0,240,4,1,239,1,3,1,stim/31.jpeg,Instruments,1,stim/objects/Instruments/drums.png,0.5,1,-0.2,0.15,left,41,2020-12-08_01h03.57.490,premup-three_ses-02_part-02_label-phase2,3.2.4,MacIntel,60,,,,,,,,,,,,,,,,,,,,,,,,,,,,,
,,,,1,0,1,0,1,0,,,,,,,,5,,stim/51.jpeg,,,,,,,,,41,2020-12-08_01h03.57.490,premup-three_ses-02_part-02_label-phase2,3.2.4,MacIntel,60,88,4.30099988,,,1,0,6,4,1,5,Household items,5,15,Music items,85,95,,,,,,,,,,,,,
,,,,1,0,1,0,1,0,,,,,,,,4,,stim/41.jpeg,,,,,,,,,41,2020-12-08_01h03.57.490,premup-three_ses-02_part-02_label-phase2,3.2.4,MacIntel,60,68,2.211000204,,,1,0,6,3,1,5,Music items,65,75,Household items,25,35,,,,,,,,,,,,,
,,,,1,0,1,0,1,0,,,,,,,,6,,stim/61.jpeg,,,,,,,,,41,2020-12-08_01h03.57.490,premup-three_ses-02_part-02_label-phase2,3.2.4,MacIntel,60,84,4.263000011,,,1,0,6,5,1,5,Music items,5,15,Household items,85,95,,,,,,,,,,,,,
,,,,1,0,1,0,1,0,,,,,,,,3,,stim/31.jpeg,,,,,,,,,41,2020-12-08_01h03.57.490,premup-three_ses-02_part-02_label-phase2,3.2.4,MacIntel,60,31,4.24000001,,,1,0,6,2,1,5,Music items,65,75,Household items,25,35,,,,,,,,,,,,,
,,,,1,0,1,0,1,0,,,,,,,,2,,stim/21.jpeg,,,,,,,,,41,2020-12-08_01h03.57.490,premup-three_ses-02_part-02_label-phase2,3.2.4,MacIntel,60,11,5.785000086,,,1,0,6,1,1,5,Household items,45,55,Music items,45,55,,,,,,,,,,,,,
,,,,1,0,1,0,1,0,,,,,,,,1,,stim/11.jpeg,,,,,,,,,41,2020-12-08_01h03.57.490,premup-three_ses-02_part-02_label-phase2,3.2.4,MacIntel,60,11,2.832000017,,,1,0,6,0,1,5,Music items,45,55,Household items,45,55,,,,,,,,,,,,,
,,,,1,0,1,0,1,0,,,,,,,,,,,,,,,,,,,41,2020-12-08_01h03.57.490,premup-three_ses-02_part-02_label-phase2,3.2.4,MacIntel,60,,,,,,,,,,,,,,,,,,,,,,,,,,,,,
,,0,241,,,,,,,,,,,,,3,2,4,stim/24.jpeg,Instruments,1,stim/objects/Instruments/musicsheet3.png,0.9,2,0.2,0.15,left,41,2020-12-08_01h03.57.490,premup-three_ses-02_part-02_label-phase2,3.2.4,MacIntel,60,,,,,,,,,,,,,,,,,1,0,330,297,1,329,2,,,,,,
left,0.525999784,1,242,,,,,,,,,,,,,3,2,1,stim/21.jpeg,Instruments,1,stim/objects/Instruments/marimba3.png,0.9,3,-0.2,-0.15,left,41,2020-12-08_01h03.57.490,premup-three_ses-02_part-02_label-phase2,3.2.4,MacIntel,60,,,,,,,,,,,,,,,,,1,0,330,230,1,329,2,,,,,,
left,0.489999771,1,243,,,,,,,,,,,,,3,2,3,stim/23.jpeg,Instruments,1,stim/objects/Instruments/metronome3.png,0.9,4,0.2,-0.15,left,41,2020-12-08_01h03.57.490,premup-three_ses-02_part-02_label-phase2,3.2.4,MacIntel,60,,,,,,,,,,,,,,,,,1,0,330,276,1,329,2,,,,,,
right,0.572999954,1,244,,,,,,,,,,,,,3,1,3,stim/13.jpeg,HouseObjects,2,stim/objects/HouseObjects/match3.png,0.9,4,0.2,-0.15,right,41,2020-12-08_01h03.57.490,premup-three_ses-02_part-02_label-phase2,3.2.4,MacIntel,60,,,,,,,,,,,,,,,,,1,0,330,172,1,329,2,,,,,,
right,0.632999897,0,245,,,,,,,,,,,,,1,4,2,stim/42.jpeg,Instruments,1,stim/objects/Instruments/clarinet3.png,0.5,2,0.2,0.15,left,41,2020-12-08_01h03.57.490,premup-three_ses-02_part-02_label-phase2,3.2.4,MacIntel,60,,,,,,,,,,,,,,,,,1,0,330,33,1,329,2,,,,,,
right,0.554999828,0,246,,,,,,,,,,,,,3,2,1,stim/21.jpeg,Instruments,1,stim/objects/Instruments/metronome3.png,0.9,2,0.2,0.15,left,41,2020-12-08_01h03.57.490,premup-three_ses-02_part-02_label-phase2,3.2.4,MacIntel,60,,,,,,,,,,,,,,,,,1,0,330,266,1,329,2,,,,,,
left,0.764999866,1,247,,,,,,,,,,,,,2,6,3,stim/63.jpeg,Instruments,1,stim/objects/Instruments/keyboard3.png,0.7,2,0.2,0.15,left,41,2020-12-08_01h03.57.490,premup-three_ses-02_part-02_label-phase2,3.2.4,MacIntel,60,,,,,,,,,,,,,,,,,1,0,330,97,1,329,2,,,,,,
left,0.522999763,1,248,,,,,,,,,,,,,3,2,1,stim/21.jpeg,Instruments,1,stim/objects/Instruments/marimba3.png,0.9,3,-0.2,-0.15,left,41,2020-12-08_01h03.57.490,premup-three_ses-02_part-02_label-phase2,3.2.4,MacIntel,60,,,,,,,,,,,,,,,,,1,0,330,290,1,329,2,,,,,,
right,0.655999899,1,249,,,,,,,,,,,,,3,1,1,stim/11.jpeg,HouseObjects,2,stim/objects/HouseObjects/match3.png,0.9,2,0.2,0.15,right,41,2020-12-08_01h03.57.490,premup-three_ses-02_part-02_label-phase2,3.2.4,MacIntel,60,,,,,,,,,,,,,,,,,1,0,330,182,1,329,2,,,,,,
right,0.670999765,1,250,,,,,,,,,,,,,3,1,1,stim/11.jpeg,HouseObjects,2,stim/objects/HouseObjects/knife3.png,0.9,4,0.2,-0.15,right,41,2020-12-08_01h03.57.490,premup-three_ses-02_part-02_label-phase2,3.2.4,MacIntel,60,,,,,,,,,,,,,,,,,1,0,330,190,1,329,2,,,,,,
right,0.5849998,0,251,,,,,,,,,,,,,3,1,4,stim/14.jpeg,Instruments,1,stim/objects/Instruments/musicstand4.png,0.1,2,0.2,0.15,left,41,2020-12-08_01h03.57.490,premup-three_ses-02_part-02_label-phase2,3.2.4,MacIntel,60,,,,,,,,,,,,,,,,,1,0,330,133,1,329,1,,,,,,
right,0.608999729,1,252,,,,,,,,,,,,,1,3,1,stim/31.jpeg,HouseObjects,2,stim/objects/HouseObjects/rug3.png,0.5,4,0.2,-0.15,right,41,2020-12-08_01h03.57.490,premup-three_ses-02_part-02_label-phase2,3.2.4,MacIntel,60,,,,,,,,,,,,,,,,,1,0,330,28,1,329,1,,,,,,
right,0.700999737,1,253,,,,,,,,,,,,,3,1,1,stim/11.jpeg,HouseObjects,2,stim/objects/HouseObjects/pan3.png,0.9,1,-0.2,0.15,right,41,2020-12-08_01h03.57.490,premup-three_ses-02_part-02_label-phase2,3.2.4,MacIntel,60,,,,,,,,,,,,,,,,,1,0,330,198,1,329,2,,,,,,
right,0.600999832,1,254,,,,,,,,,,,,,2,5,4,stim/54.jpeg,HouseObjects,2,stim/objects/HouseObjects/ironingboard3.png,0.7,4,0.2,-0.15,right,41,2020-12-08_01h03.57.490,premup-three_ses-02_part-02_label-phase2,3.2.4,MacIntel,60,,,,,,,,,,,,,,,,,1,0,330,83,1,329,2,,,,,,
left,0.552999973,1,255,,,,,,,,,,,,,3,2,3,stim/23.jpeg,Instruments,1,stim/objects/Instruments/timbal4.png,0.9,1,-0.2,0.15,left,41,2020-12-08_01h03.57.490,premup-three_ses-02_part-02_label-phase2,3.2.4,MacIntel,60,,,,,,,,,,,,,,,,,1,0,330,312,1,329,1,,,,,,
left,0.524999857,1,256,,,,,,,,,,,,,3,2,2,stim/22.jpeg,Instruments,1,stim/objects/Instruments/musicsheet3.png,0.9,2,0.2,0.15,left,41,2020-12-08_01h03.57.490,premup-three_ses-02_part-02_label-phase2,3.2.4,MacIntel,60,,,,,,,,,,,,,,,,,1,0,330,247,1,329,2,,,,,,
left,0.523999929,1,257,,,,,,,,,,,,,3,2,4,stim/24.jpeg,Instruments,1,stim/objects/Instruments/metronome3.png,0.9,1,-0.2,0.15,left,41,2020-12-08_01h03.57.490,premup-three_ses-02_part-02_label-phase2,3.2.4,MacIntel,60,,,,,,,,,,,,,,,,,1,0,330,301,1,329,2,,,,,,
left,0.627999783,1,258,,,,,,,,,,,,,3,2,1,stim/21.jpeg,Instruments,1,stim/objects/Instruments/musicstand3.png,0.9,3,-0.2,-0.15,left,41,2020-12-08_01h03.57.490,premup-three_ses-02_part-02_label-phase2,3.2.4,MacIntel,60,,,,,,,,,,,,,,,,,1,0,330,278,1,329,2,,,,,,
right,0.556999683,1,259,,,,,,,,,,,,,3,1,4,stim/14.jpeg,HouseObjects,2,stim/objects/HouseObjects/knife3.png,0.9,3,-0.2,-0.15,right,41,2020-12-08_01h03.57.490,premup-three_ses-02_part-02_label-phase2,3.2.4,MacIntel,60,,,,,,,,,,,,,,,,,1,0,330,145,1,329,2,,,,,,
right,0.707999706,1,260,,,,,,,,,,,,,3,1,3,stim/13.jpeg,HouseObjects,2,stim/objects/HouseObjects/pitcher3.png,0.9,4,0.2,-0.15,right,41,2020-12-08_01h03.57.490,premup-three_ses-02_part-02_label-phase2,3.2.4,MacIntel,60,,,,,,,,,,,,,,,,,1,0,330,144,1,329,2,,,,,,
right,0.698999882,1,261,,,,,,,,,,,,,3,1,1,stim/11.jpeg,HouseObjects,2,stim/objects/HouseObjects/remote4.png,0.9,1,-0.2,0.15,right,41,2020-12-08_01h03.57.490,premup-three_ses-02_part-02_label-phase2,3.2.4,MacIntel,60,,,,,,,,,,,,,,,,,1,0,330,226,1,329,1,,,,,,
left,0.562999964,1,262,,,,,,,,,,,,,3,2,4,stim/24.jpeg,Instruments,1,stim/objects/Instruments/metronome3.png,0.9,3,-0.2,-0.15,left,41,2020-12-08_01h03.57.490,premup-three_ses-02_part-02_label-phase2,3.2.4,MacIntel,60,,,,,,,,,,,,,,,,,1,0,330,241,1,329,2,,,,,,
right,0.646999836,0,263,,,,,,,,,,,,,2,6,4,stim/64.jpeg,Instruments,1,stim/objects/Instruments/cornet4.png,0.7,1,-0.2,0.15,left,41,2020-12-08_01h03.57.490,premup-three_ses-02_part-02_label-phase2,3.2.4,MacIntel,60,,,,,,,,,,,,,,,,,1,0,330,114,1,329,1,,,,,,
right,0.472999811,1,264,,,,,,,,,,,,,3,1,2,stim/12.jpeg,HouseObjects,2,stim/objects/HouseObjects/pitcher3.png,0.9,1,-0.2,0.15,right,41,2020-12-08_01h03.57.490,premup-three_ses-02_part-02_label-phase2,3.2.4,MacIntel,60,,,,,,,,,,,,,,,,,1,0,330,199,1,329,2,,,,,,
left,0.637999773,1,265,,,,,,,,,,,,,2,6,4,stim/64.jpeg,Instruments,1,stim/objects/Instruments/laud4.png,0.7,2,0.2,0.15,left,41,2020-12-08_01h03.57.490,premup-three_ses-02_part-02_label-phase2,3.2.4,MacIntel,60,,,,,,,,,,,,,,,,,1,0,330,118,1,329,1,,,,,,
right,0.60199976,1,266,,,,,,,,,,,,,3,1,4,stim/14.jpeg,HouseObjects,2,stim/objects/HouseObjects/pitcher3.png,0.9,1,-0.2,0.15,right,41,2020-12-08_01h03.57.490,premup-three_ses-02_part-02_label-phase2,3.2.4,MacIntel,60,,,,,,,,,,,,,,,,,1,0,330,209,1,329,2,,,,,,
left,0.632999897,1,267,,,,,,,,,,,,,2,6,2,stim/62.jpeg,Instruments,1,stim/objects/Instruments/laud3.png,0.7,3,-0.2,-0.15,left,41,2020-12-08_01h03.57.490,premup-three_ses-02_part-02_label-phase2,3.2.4,MacIntel,60,,,,,,,,,,,,,,,,,1,0,330,108,1,329,2,,,,,,
right,0.714999914,1,268,,,,,,,,,,,,,3,1,3,stim/13.jpeg,HouseObjects,2,stim/objects/HouseObjects/pan3.png,0.9,4,0.2,-0.15,right,41,2020-12-08_01h03.57.490,premup-three_ses-02_part-02_label-phase2,3.2.4,MacIntel,60,,,,,,,,,,,,,,,,,1,0,330,188,1,329,2,,,,,,
,,0,269,,,,,,,,,,,,,3,1,1,stim/11.jpeg,HouseObjects,2,stim/objects/HouseObjects/pan3.png,0.9,4,0.2,-0.15,right,41,2020-12-08_01h03.57.490,premup-three_ses-02_part-02_label-phase2,3.2.4,MacIntel,60,,,,,,,,,,,,,,,,,1,0,330,158,1,329,2,,,,,,
,,0,270,,,,,,,,,,,,,1,4,1,stim/41.jpeg,Instruments,1,stim/objects/Instruments/trombone3.png,0.5,3,-0.2,-0.15,left,41,2020-12-08_01h03.57.490,premup-three_ses-02_part-02_label-phase2,3.2.4,MacIntel,60,,,,,,,,,,,,,,,,,1,0,330,44,1,329,1,,,,,,
right,0.660999775,1,271,,,,,,,,,,,,,3,1,2,stim/12.jpeg,HouseObjects,2,stim/objects/HouseObjects/knife3.png,0.9,1,-0.2,0.15,right,41,2020-12-08_01h03.57.490,premup-three_ses-02_part-02_label-phase2,3.2.4,MacIntel,60,,,,,,,,,,,,,,,,,1,0,330,215,1,329,2,,,,,,
left,0.583999872,1,272,,,,,,,,,,,,,3,2,2,stim/22.jpeg,Instruments,1,stim/objects/Instruments/metronome3.png,0.9,1,-0.2,0.15,left,41,2020-12-08_01h03.57.490,premup-three_ses-02_part-02_label-phase2,3.2.4,MacIntel,60,,,,,,,,,,,,,,,,,1,0,330,251,1,329,2,,,,,,
left,0.431999683,1,273,,,,,,,,,,,,,3,2,3,stim/23.jpeg,Instruments,1,stim/objects/Instruments/musicsheet3.png,0.9,1,-0.2,0.15,left,41,2020-12-08_01h03.57.490,premup-three_ses-02_part-02_label-phase2,3.2.4,MacIntel,60,,,,,,,,,,,,,,,,,1,0,330,272,1,329,2,,,,,,
right,0.529000044,1,274,,,,,,,,,,,,,3,1,1,stim/11.jpeg,HouseObjects,2,stim/objects/HouseObjects/pan3.png,0.9,2,0.2,0.15,right,41,2020-12-08_01h03.57.490,premup-three_ses-02_part-02_label-phase2,3.2.4,MacIntel,60,,,,,,,,,,,,,,,,,1,0,330,178,1,329,2,,,,,,
left,0.528999805,1,275,,,,,,,,,,,,,3,2,2,stim/22.jpeg,Instruments,1,stim/objects/Instruments/marimba3.png,0.9,1,-0.2,0.15,left,41,2020-12-08_01h03.57.490,premup-three_ses-02_part-02_label-phase2,3.2.4,MacIntel,60,,,,,,,,,,,,,,,,,1,0,330,255,1,329,2,,,,,,
right,0.563999891,1,276,,,,,,,,,,,,,3,1,1,stim/11.jpeg,HouseObjects,2,stim/objects/HouseObjects/pitcher3.png,0.9,2,0.2,0.15,right,41,2020-12-08_01h03.57.490,premup-three_ses-02_part-02_label-phase2,3.2.4,MacIntel,60,,,,,,,,,,,,,,,,,1,0,330,214,1,329,2,,,,,,
left,0.534999847,0,277,,,,,,,,,,,,,2,6,2,stim/62.jpeg,HouseObjects,2,stim/objects/HouseObjects/blender4.png,0.3,1,-0.2,0.15,right,41,2020-12-08_01h03.57.490,premup-three_ses-02_part-02_label-phase2,3.2.4,MacIntel,60,,,,,,,,,,,,,,,,,1,0,330,120,1,329,1,,,,,,
right,0.606999874,0,278,,,,,,,,,,,,,1,3,1,stim/31.jpeg,Instruments,1,stim/objects/Instruments/bassdrum3.png,0.5,3,-0.2,-0.15,left,41,2020-12-08_01h03.57.490,premup-three_ses-02_part-02_label-phase2,3.2.4,MacIntel,60,,,,,,,,,,,,,,,,,1,0,330,4,1,329,2,,,,,,
right,0.468999863,0,279,,,,,,,,,,,,,3,2,1,stim/21.jpeg,Instruments,1,stim/objects/Instruments/marimba3.png,0.9,2,0.2,0.15,left,41,2020-12-08_01h03.57.490,premup-three_ses-02_part-02_label-phase2,3.2.4,MacIntel,60,,,,,,,,,,,,,,,,,1,0,330,250,1,329,2,,,,,,
left,0.525999784,1,280,,,,,,,,,,,,,3,2,2,stim/22.jpeg,Instruments,1,stim/objects/Instruments/marimba3.png,0.9,2,0.2,0.15,left,41,2020-12-08_01h03.57.490,premup-three_ses-02_part-02_label-phase2,3.2.4,MacIntel,60,,,,,,,,,,,,,,,,,1,0,330,235,1,329,2,,,,,,
right,0.562999964,0,281,,,,,,,,,,,,,1,4,2,stim/42.jpeg,Instruments,1,stim/objects/Instruments/tambourine3.png,0.5,3,-0.2,-0.15,left,41,2020-12-08_01h03.57.490,premup-three_ses-02_part-02_label-phase2,3.2.4,MacIntel,60,,,,,,,,,,,,,,,,,1,0,330,41,1,329,1,,,,,,
left,0.596999645,0,282,,,,,,,,,,,,,3,2,4,stim/24.jpeg,HouseObjects,2,stim/objects/HouseObjects/scale4.png,0.1,2,0.2,0.15,right,41,2020-12-08_01h03.57.490,premup-three_ses-02_part-02_label-phase2,3.2.4,MacIntel,60,,,,,,,,,,,,,,,,,1,0,330,321,1,329,1,,,,,,
left,0.463999987,1,283,,,,,,,,,,,,,3,2,1,stim/21.jpeg,Instruments,1,stim/objects/Instruments/oboe3.png,0.9,1,-0.2,0.15,left,41,2020-12-08_01h03.57.490,premup-three_ses-02_part-02_label-phase2,3.2.4,MacIntel,60,,,,,,,,,,,,,,,,,1,0,330,274,1,329,2,,,,,,
right,0.561999798,1,284,,,,,,,,,,,,,2,5,3,stim/53.jpeg,HouseObjects,2,stim/objects/HouseObjects/thread3.png,0.7,1,-0.2,0.15,right,41,2020-12-08_01h03.57.490,premup-three_ses-02_part-02_label-phase2,3.2.4,MacIntel,60,,,,,,,,,,,,,,,,,1,0,330,86,1,329,1,,,,,,
right,0.614999771,0,285,,,,,,,,,,,,,3,1,2,stim/12.jpeg,Instruments,1,stim/objects/Instruments/saxophone4.png,0.1,4,0.2,-0.15,left,41,2020-12-08_01h03.57.490,premup-three_ses-02_part-02_label-phase2,3.2.4,MacIntel,60,,,,,,,,,,,,,,,,,1,0,330,139,1,329,1,,,,,,
left,0.620999813,1,286,,,,,,,,,,,,,2,6,2,stim/62.jpeg,Instruments,1,stim/objects/Instruments/doublebass4.png,0.7,3,-0.2,-0.15,left,41,2020-12-08_01h03.57.490,premup-three_ses-02_part-02_label-phase2,3.2.4,MacIntel,60,,,,,,,,,,,,,,,,,1,0,330,116,1,329,1,,,,,,
right,0.605999947,1,287,,,,,,,,,,,,,3,1,1,stim/11.jpeg,HouseObjects,2,stim/objects/HouseObjects/match4.png,0.9,2,0.2,0.15,right,41,2020-12-08_01h03.57.490,premup-three_ses-02_part-02_label-phase2,3.2.4,MacIntel,60,,,,,,,,,,,,,,,,,1,0,330,222,1,329,1,,,,,,
left,0.758999825,1,288,,,,,,,,,,,,,1,4,3,stim/43.jpeg,Instruments,1,stim/objects/Instruments/timbal3.png,0.5,1,-0.2,0.15,left,41,2020-12-08_01h03.57.490,premup-three_ses-02_part-02_label-phase2,3.2.4,MacIntel,60,,,,,,,,,,,,,,,,,1,0,330,42,1,329,1,,,,,,
left,0.816999912,1,289,,,,,,,,,,,,,3,2,2,stim/22.jpeg,Instruments,1,stim/objects/Instruments/metronome3.png,0.9,1,-0.2,0.15,left,41,2020-12-08_01h03.57.490,premup-three_ses-02_part-02_label-phase2,3.2.4,MacIntel,60,,,,,,,,,,,,,,,,,1,0,330,271,1,329,2,,,,,,
right,0.787999868,0,290,,,,,,,,,,,,,1,4,4,stim/44.jpeg,Instruments,1,stim/objects/Instruments/bassguitar3.png,0.5,2,0.2,0.15,left,41,2020-12-08_01h03.57.490,premup-three_ses-02_part-02_label-phase2,3.2.4,MacIntel,60,,,,,,,,,,,,,,,,,1,0,330,35,1,329,2,,,,,,
left,0.621999979,0,291,,,,,,,,,,,,,3,1,1,stim/11.jpeg,HouseObjects,2,stim/objects/HouseObjects/knife3.png,0.9,3,-0.2,-0.15,right,41,2020-12-08_01h03.57.490,premup-three_ses-02_part-02_label-phase2,3.2.4,MacIntel,60,,,,,,,,,,,,,,,,,1,0,330,150,1,329,2,,,,,,
left,0.740999937,1,292,,,,,,,,,,,,,3,2,3,stim/23.jpeg,Instruments,1,stim/objects/Instruments/oboe3.png,0.9,1,-0.2,0.15,left,41,2020-12-08_01h03.57.490,premup-three_ses-02_part-02_label-phase2,3.2.4,MacIntel,60,,,,,,,,,,,,,,,,,1,0,330,264,1,329,2,,,,,,
left,0.671000004,1,293,,,,,,,,,,,,,3,2,1,stim/21.jpeg,Instruments,1,stim/objects/Instruments/oboe3.png,0.9,1,-0.2,0.15,left,41,2020-12-08_01h03.57.490,premup-three_ses-02_part-02_label-phase2,3.2.4,MacIntel,60,,,,,,,,,,,,,,,,,1,0,330,234,1,329,2,,,,,,
right,0.833999872,1,294,,,,,,,,,,,,,2,5,2,stim/52.jpeg,HouseObjects,2,stim/objects/HouseObjects/clothespin3.png,0.7,1,-0.2,0.15,right,41,2020-12-08_01h03.57.490,premup-three_ses-02_part-02_label-phase2,3.2.4,MacIntel,60,,,,,,,,,,,,,,,,,1,0,330,81,1,329,2,,,,,,
,,0,295,,,,,,,,,,,,,3,1,3,stim/13.jpeg,HouseObjects,2,stim/objects/HouseObjects/knife3.png,0.9,1,-0.2,0.15,right,41,2020-12-08_01h03.57.490,premup-three_ses-02_part-02_label-phase2,3.2.4,MacIntel,60,,,,,,,,,,,,,,,,,1,0,330,200,1,329,2,,,,,,
right,0.650999784,1,296,,,,,,,,,,,,,3,1,4,stim/14.jpeg,HouseObjects,2,stim/objects/HouseObjects/pitcher3.png,0.9,4,0.2,-0.15,right,41,2020-12-08_01h03.57.490,premup-three_ses-02_part-02_label-phase2,3.2.4,MacIntel,60,,,,,,,,,,,,,,,,,1,0,330,169,1,329,2,,,,,,
left,0.682999849,0,297,,,,,,,,,,,,,2,6,1,stim/61.jpeg,HouseObjects,2,stim/objects/HouseObjects/iron4.png,0.3,1,-0.2,0.15,right,41,2020-12-08_01h03.57.490,premup-three_ses-02_part-02_label-phase2,3.2.4,MacIntel,60,,,,,,,,,,,,,,,,,1,0,330,127,1,329,1,,,,,,
left,0.802999973,0,298,,,,,,,,,,,,,1,4,4,stim/44.jpeg,HouseObjects,2,stim/objects/HouseObjects/teapot3.png,0.5,3,-0.2,-0.15,right,41,2020-12-08_01h03.57.490,premup-three_ses-02_part-02_label-phase2,3.2.4,MacIntel,60,,,,,,,,,,,,,,,,,1,0,330,59,1,329,1,,,,,,
left,0.621999979,1,299,,,,,,,,,,,,,3,2,3,stim/23.jpeg,Instruments,1,stim/objects/Instruments/tuba4.png,0.9,3,-0.2,-0.15,left,41,2020-12-08_01h03.57.490,premup-three_ses-02_part-02_label-phase2,3.2.4,MacIntel,60,,,,,,,,,,,,,,,,,1,0,330,316,1,329,1,,,,,,
right,0.59499979,1,300,,,,,,,,,,,,,3,1,4,stim/14.jpeg,HouseObjects,2,stim/objects/HouseObjects/match3.png,0.9,2,0.2,0.15,right,41,2020-12-08_01h03.57.490,premup-three_ses-02_part-02_label-phase2,3.2.4,MacIntel,60,,,,,,,,,,,,,,,,,1,0,330,217,1,329,2,,,,,,
right,0.64199996,0,301,,,,,,,,,,,,,1,3,3,stim/33.jpeg,Instruments,1,stim/objects/Instruments/panflute3.png,0.5,2,0.2,0.15,left,41,2020-12-08_01h03.57.490,premup-three_ses-02_part-02_label-phase2,3.2.4,MacIntel,60,,,,,,,,,,,,,,,,,1,0,330,10,1,329,1,,,,,,
left,0.708999872,0,302,,,,,,,,,,,,,1,4,3,stim/43.jpeg,HouseObjects,2,stim/objects/HouseObjects/clock3.png,0.5,1,-0.2,0.15,right,41,2020-12-08_01h03.57.490,premup-three_ses-02_part-02_label-phase2,3.2.4,MacIntel,60,,,,,,,,,,,,,,,,,1,0,330,54,1,329,2,,,,,,
left,0.787999868,1,303,,,,,,,,,,,,,3,2,1,stim/21.jpeg,Instruments,1,stim/objects/Instruments/metronome3.png,0.9,4,0.2,-0.15,left,41,2020-12-08_01h03.57.490,premup-three_ses-02_part-02_label-phase2,3.2.4,MacIntel,60,,,,,,,,,,,,,,,,,1,0,330,246,1,329,2,,,,,,
right,0.776999712,0,304,,,,,,,,,,,,,2,5,2,stim/52.jpeg,Instruments,1,stim/objects/Instruments/accordion4.png,0.3,1,-0.2,0.15,left,41,2020-12-08_01h03.57.490,premup-three_ses-02_part-02_label-phase2,3.2.4,MacIntel,60,,,,,,,,,,,,,,,,,1,0,330,65,1,329,1,,,,,,
,,0,305,,,,,,,,,,,,,3,1,3,stim/13.jpeg,HouseObjects,2,stim/objects/HouseObjects/pitcher3.png,0.9,2,0.2,0.15,right,41,2020-12-08_01h03.57.490,premup-three_ses-02_part-02_label-phase2,3.2.4,MacIntel,60,,,,,,,,,,,,,,,,,1,0,330,164,1,329,2,,,,,,
,,0,306,,,,,,,,,,,,,3,1,1,stim/11.jpeg,HouseObjects,2,stim/objects/HouseObjects/knife3.png,0.9,3,-0.2,-0.15,right,41,2020-12-08_01h03.57.490,premup-three_ses-02_part-02_label-phase2,3.2.4,MacIntel,60,,,,,,,,,,,,,,,,,1,0,330,210,1,329,2,,,,,,
right,0.674999714,1,307,,,,,,,,,,,,,2,5,2,stim/52.jpeg,HouseObjects,2,stim/objects/HouseObjects/thermometer3.png,0.7,2,0.2,0.15,right,41,2020-12-08_01h03.57.490,premup-three_ses-02_part-02_label-phase2,3.2.4,MacIntel,60,,,,,,,,,,,,,,,,,1,0,330,85,1,329,1,,,,,,
right,0.603999853,1,308,,,,,,,,,,,,,3,1,1,stim/11.jpeg,HouseObjects,2,stim/objects/HouseObjects/pitcher3.png,0.9,1,-0.2,0.15,right,41,2020-12-08_01h03.57.490,premup-three_ses-02_part-02_label-phase2,3.2.4,MacIntel,60,,,,,,,,,,,,,,,,,1,0,330,194,1,329,2,,,,,,
right,0.52099967,1,309,,,,,,,,,,,,,3,1,1,stim/11.jpeg,HouseObjects,2,stim/objects/HouseObjects/match3.png,0.9,1,-0.2,0.15,right,41,2020-12-08_01h03.57.490,premup-three_ses-02_part-02_label-phase2,3.2.4,MacIntel,60,,,,,,,,,,,,,,,,,1,0,330,142,1,329,2,,,,,,
right,0.56099987,1,310,,,,,,,,,,,,,1,4,4,stim/44.jpeg,HouseObjects,2,stim/objects/HouseObjects/bottle3.png,0.5,2,0.2,0.15,right,41,2020-12-08_01h03.57.490,premup-three_ses-02_part-02_label-phase2,3.2.4,MacIntel,60,,,,,,,,,,,,,,,,,1,0,330,51,1,329,2,,,,,,
left,0.44299984,0,311,,,,,,,,,,,,,3,2,3,stim/23.jpeg,HouseObjects,2,stim/objects/HouseObjects/teapot4.png,0.1,2,0.2,0.15,right,41,2020-12-08_01h03.57.490,premup-three_ses-02_part-02_label-phase2,3.2.4,MacIntel,60,,,,,,,,,,,,,,,,,1,0,330,324,1,329,1,,,,,,
right,0.636999846,1,312,,,,,,,,,,,,,3,1,4,stim/14.jpeg,HouseObjects,2,stim/objects/HouseObjects/pitcher3.png,0.9,1,-0.2,0.15,right,41,2020-12-08_01h03.57.490,premup-three_ses-02_part-02_label-phase2,3.2.4,MacIntel,60,,,,,,,,,,,,,,,,,1,0,330,189,1,329,2,,,,,,
right,0.570999861,0,313,,,,,,,,,,,,,3,1,1,stim/11.jpeg,Instruments,1,stim/objects/Instruments/marimba4.png,0.1,4,0.2,-0.15,left,41,2020-12-08_01h03.57.490,premup-three_ses-02_part-02_label-phase2,3.2.4,MacIntel,60,,,,,,,,,,,,,,,,,1,0,330,130,1,329,1,,,,,,
left,0.618999958,1,314,,,,,,,,,,,,,1,4,4,stim/44.jpeg,Instruments,1,stim/objects/Instruments/cello3.png,0.5,3,-0.2,-0.15,left,41,2020-12-08_01h03.57.490,premup-three_ses-02_part-02_label-phase2,3.2.4,MacIntel,60,,,,,,,,,,,,,,,,,1,0,330,31,1,329,2,,,,,,
right,0.578999758,0,315,,,,,,,,,,,,,1,3,3,stim/33.jpeg,Instruments,1,stim/objects/Instruments/acousticguitar3.png,0.5,1,-0.2,0.15,left,41,2020-12-08_01h03.57.490,premup-three_ses-02_part-02_label-phase2,3.2.4,MacIntel,60,,,,,,,,,,,,,,,,,1,0,330,6,1,329,2,,,,,,
right,0.638999939,0,316,,,,,,,,,,,,,1,3,3,stim/33.jpeg,Instruments,1,stim/objects/Instruments/balalaika3.png,0.5,2,0.2,0.15,left,41,2020-12-08_01h03.57.490,premup-three_ses-02_part-02_label-phase2,3.2.4,MacIntel,60,,,,,,,,,,,,,,,,,1,0,330,2,1,329,2,,,,,,
right,0.825999975,0,317,,,,,,,,,,,,,2,5,2,stim/52.jpeg,Instruments,1,stim/objects/Instruments/bassdrum4.png,0.3,2,0.2,0.15,left,41,2020-12-08_01h03.57.490,premup-three_ses-02_part-02_label-phase2,3.2.4,MacIntel,60,,,,,,,,,,,,,,,,,1,0,330,69,1,329,1,,,,,,
right,0.717999935,1,318,,,,,,,,,,,,,1,3,3,stim/33.jpeg,HouseObjects,2,stim/objects/HouseObjects/basket3.png,0.5,4,0.2,-0.15,right,41,2020-12-08_01h03.57.490,premup-three_ses-02_part-02_label-phase2,3.2.4,MacIntel,60,,,,,,,,,,,,,,,,,1,0,330,18,1,329,2,,,,,,
right,0.595999718,1,319,,,,,,,,,,,,,3,1,3,stim/13.jpeg,HouseObjects,2,stim/objects/HouseObjects/knife4.png,0.9,2,0.2,0.15,right,41,2020-12-08_01h03.57.490,premup-three_ses-02_part-02_label-phase2,3.2.4,MacIntel,60,,,,,,,,,,,,,,,,,1,0,330,220,1,329,1,,,,,,
right,0.643999815,0,320,,,,,,,,,,,,,2,6,2,stim/62.jpeg,Instruments,1,stim/objects/Instruments/chime4.png,0.7,4,0.2,-0.15,left,41,2020-12-08_01h03.57.490,premup-three_ses-02_part-02_label-phase2,3.2.4,MacIntel,60,,,,,,,,,,,,,,,,,1,0,330,112,1,329,1,,,,,,
left,0.791999817,1,321,,,,,,,,,,,,,1,4,1,stim/41.jpeg,Instruments,1,stim/objects/Instruments/speaker3.png,0.5,4,0.2,-0.15,left,41,2020-12-08_01h03.57.490,premup-three_ses-02_part-02_label-phase2,3.2.4,MacIntel,60,,,,,,,,,,,,,,,,,1,0,330,40,1,329,1,,,,,,
right,0.615999699,1,322,,,,,,,,,,,,,2,5,1,stim/51.jpeg,HouseObjects,2,stim/objects/HouseObjects/barbecuelighter4.png,0.7,4,0.2,-0.15,right,41,2020-12-08_01h03.57.490,premup-three_ses-02_part-02_label-phase2,3.2.4,MacIntel,60,,,,,,,,,,,,,,,,,1,0,330,92,1,329,1,,,,,,
left,0.453999996,0,323,,,,,,,,,,,,,3,2,1,stim/21.jpeg,HouseObjects,2,stim/objects/HouseObjects/sponge4.png,0.1,3,-0.2,-0.15,right,41,2020-12-08_01h03.57.490,premup-three_ses-02_part-02_label-phase2,3.2.4,MacIntel,60,,,,,,,,,,,,,,,,,1,0,330,322,1,329,1,,,,,,
right,0.646999836,1,324,,,,,,,,,,,,,1,4,3,stim/43.jpeg,HouseObjects,2,stim/objects/HouseObjects/bottle3.png,0.5,4,0.2,-0.15,right,41,2020-12-08_01h03.57.490,premup-three_ses-02_part-02_label-phase2,3.2.4,MacIntel,60,,,,,,,,,,,,,,,,,1,0,330,46,1,329,2,,,,,,
right,0.52099967,0,325,,,,,,,,,,,,,3,2,4,stim/24.jpeg,Instruments,1,stim/objects/Instruments/musicstand3.png,0.9,3,-0.2,-0.15,left,41,2020-12-08_01h03.57.490,premup-three_ses-02_part-02_label-phase2,3.2.4,MacIntel,60,,,,,,,,,,,,,,,,,1,0,330,273,1,329,2,,,,,,
left,0.532999754,1,326,,,,,,,,,,,,,3,2,1,stim/21.jpeg,Instruments,1,stim/objects/Instruments/metronome3.png,0.9,1,-0.2,0.15,left,41,2020-12-08_01h03.57.490,premup-three_ses-02_part-02_label-phase2,3.2.4,MacIntel,60,,,,,,,,,,,,,,,,,1,0,330,286,1,329,2,,,,,,
left,0.501999855,0,327,,,,,,,,,,,,,3,2,2,stim/22.jpeg,HouseObjects,2,stim/objects/HouseObjects/spraybottle4.png,0.1,1,-0.2,0.15,right,41,2020-12-08_01h03.57.490,premup-three_ses-02_part-02_label-phase2,3.2.4,MacIntel,60,,,,,,,,,,,,,,,,,1,0,330,323,1,329,1,,,,,,
right,0.678999901,0,328,,,,,,,,,,,,,2,5,4,stim/54.jpeg,Instruments,1,stim/objects/Instruments/balalaika4.png,0.3,4,0.2,-0.15,left,41,2020-12-08_01h03.57.490,premup-three_ses-02_part-02_label-phase2,3.2.4,MacIntel,60,,,,,,,,,,,,,,,,,1,0,330,67,1,329,1,,,,,,
right,0.610999823,1,329,,,,,,,,,,,,,2,5,1,stim/51.jpeg,HouseObjects,2,stim/objects/HouseObjects/clothespin3.png,0.7,2,0.2,0.15,right,41,2020-12-08_01h03.57.490,premup-three_ses-02_part-02_label-phase2,3.2.4,MacIntel,60,,,,,,,,,,,,,,,,,1,0,330,76,1,329,2,,,,,,
left,0.648999929,1,330,,,,,,,,,,,,,3,2,3,stim/23.jpeg,Instruments,1,stim/objects/Instruments/marimba3.png,0.9,2,0.2,0.15,left,41,2020-12-08_01h03.57.490,premup-three_ses-02_part-02_label-phase2,3.2.4,MacIntel,60,,,,,,,,,,,,,,,,,1,0,330,280,1,329,2,,,,,,
left,0.60800004,1,331,,,,,,,,,,,,,3,2,1,stim/21.jpeg,Instruments,1,stim/objects/Instruments/musicstand3.png,0.9,2,0.2,0.15,left,41,2020-12-08_01h03.57.490,premup-three_ses-02_part-02_label-phase2,3.2.4,MacIntel,60,,,,,,,,,,,,,,,,,1,0,330,238,1,329,2,,,,,,
right,0.696999788,0,332,,,,,,,,,,,,,1,4,4,stim/44.jpeg,Instruments,1,stim/objects/Instruments/triangle3.png,0.5,1,-0.2,0.15,left,41,2020-12-08_01h03.57.490,premup-three_ses-02_part-02_label-phase2,3.2.4,MacIntel,60,,,,,,,,,,,,,,,,,1,0,330,43,1,329,1,,,,,,
left,0.746999979,0,333,,,,,,,,,,,,,2,6,2,stim/62.jpeg,HouseObjects,2,stim/objects/HouseObjects/clock4.png,0.3,2,0.2,0.15,right,41,2020-12-08_01h03.57.490,premup-three_ses-02_part-02_label-phase2,3.2.4,MacIntel,60,,,,,,,,,,,,,,,,,1,0,330,124,1,329,1,,,,,,
left,0.46999979,1,334,,,,,,,,,,,,,2,6,3,stim/63.jpeg,Instruments,1,stim/objects/Instruments/maraca3.png,0.7,3,-0.2,-0.15,left,41,2020-12-08_01h03.57.490,premup-three_ses-02_part-02_label-phase2,3.2.4,MacIntel,60,,,,,,,,,,,,,,,,,1,0,330,109,1,329,2,,,,,,
right,0.551999807,0,335,,,,,,,,,,,,,3,2,3,stim/23.jpeg,Instruments,1,stim/objects/Instruments/musicstand3.png,0.9,4,0.2,-0.15,left,41,2020-12-08_01h03.57.490,premup-three_ses-02_part-02_label-phase2,3.2.4,MacIntel,60,,,,,,,,,,,,,,,,,1,0,330,288,1,329,2,,,,,,
right,0.637999773,1,336,,,,,,,,,,,,,3,1,3,stim/13.jpeg,HouseObjects,2,stim/objects/HouseObjects/knife3.png,0.9,1,-0.2,0.15,right,41,2020-12-08_01h03.57.490,premup-three_ses-02_part-02_label-phase2,3.2.4,MacIntel,60,,,,,,,,,,,,,,,,,1,0,330,180,1,329,2,,,,,,
left,0.606999874,1,337,,,,,,,,,,,,,3,2,2,stim/22.jpeg,Instruments,1,stim/objects/Instruments/oboe3.png,0.9,4,0.2,-0.15,left,41,2020-12-08_01h03.57.490,premup-three_ses-02_part-02_label-phase2,3.2.4,MacIntel,60,,,,,,,,,,,,,,,,,1,0,330,299,1,329,2,,,,,,
,,0,338,,,,,,,,,,,,,2,6,1,stim/61.jpeg,HouseObjects,2,stim/objects/HouseObjects/bucket4.png,0.3,3,-0.2,-0.15,right,41,2020-12-08_01h03.57.490,premup-three_ses-02_part-02_label-phase2,3.2.4,MacIntel,60,,,,,,,,,,,,,,,,,1,0,330,123,1,329,1,,,,,,
left,0.586999893,1,339,,,,,,,,,,,,,3,2,3,stim/23.jpeg,Instruments,1,stim/objects/Instruments/musicstand3.png,0.9,1,-0.2,0.15,left,41,2020-12-08_01h03.57.490,premup-three_ses-02_part-02_label-phase2,3.2.4,MacIntel,60,,,,,,,,,,,,,,,,,1,0,330,248,1,329,2,,,,,,
left,0.4599998,1,340,,,,,,,,,,,,,3,2,1,stim/21.jpeg,Instruments,1,stim/objects/Instruments/musicstand3.png,0.9,2,0.2,0.15,left,41,2020-12-08_01h03.57.490,premup-three_ses-02_part-02_label-phase2,3.2.4,MacIntel,60,,,,,,,,,,,,,,,,,1,0,330,258,1,329,2,,,,,,
right,0.766999722,0,341,,,,,,,,,,,,,2,6,1,stim/61.jpeg,Instruments,1,stim/objects/Instruments/cymbal4.png,0.7,1,-0.2,0.15,left,41,2020-12-08_01h03.57.490,premup-three_ses-02_part-02_label-phase2,3.2.4,MacIntel,60,,,,,,,,,,,,,,,,,1,0,330,115,1,329,1,,,,,,
right,0.713999748,1,342,,,,,,,,,,,,,3,1,4,stim/14.jpeg,HouseObjects,2,stim/objects/HouseObjects/match3.png,0.9,2,0.2,0.15,right,41,2020-12-08_01h03.57.490,premup-three_ses-02_part-02_label-phase2,3.2.4,MacIntel,60,,,,,,,,,,,,,,,,,1,0,330,157,1,329,2,,,,,,
left,0.566999674,1,343,,,,,,,,,,,,,3,2,4,stim/24.jpeg,Instruments,1,stim/objects/Instruments/musicsheet3.png,0.9,2,0.2,0.15,left,41,2020-12-08_01h03.57.490,premup-three_ses-02_part-02_label-phase2,3.2.4,MacIntel,60,,,,,,,,,,,,,,,,,1,0,330,277,1,329,2,,,,,,
,,0,344,,,,,,,,,,,,,3,2,3,stim/23.jpeg,Instruments,1,stim/objects/Instruments/musicsheet3.png,0.9,1,-0.2,0.15,left,41,2020-12-08_01h03.57.490,premup-three_ses-02_part-02_label-phase2,3.2.4,MacIntel,60,,,,,,,,,,,,,,,,,1,0,330,292,1,329,2,,,,,,
,,0,345,,,,,,,,,,,,,3,1,1,stim/11.jpeg,HouseObjects,2,stim/objects/HouseObjects/pan3.png,0.9,2,0.2,0.15,right,41,2020-12-08_01h03.57.490,premup-three_ses-02_part-02_label-phase2,3.2.4,MacIntel,60,,,,,,,,,,,,,,,,,1,0,330,218,1,329,2,,,,,,
right,0.625999689,0,346,,,,,,,,,,,,,3,2,2,stim/22.jpeg,Instruments,1,stim/objects/Instruments/metronome3.png,0.9,4,0.2,-0.15,left,41,2020-12-08_01h03.57.490,premup-three_ses-02_part-02_label-phase2,3.2.4,MacIntel,60,,,,,,,,,,,,,,,,,1,0,330,291,1,329,2,,,,,,
left,0.590999842,1,347,,,,,,,,,,,,,3,2,4,stim/24.jpeg,Instruments,1,stim/objects/Instruments/violin4.png,0.9,3,-0.2,-0.15,left,41,2020-12-08_01h03.57.490,premup-three_ses-02_part-02_label-phase2,3.2.4,MacIntel,60,,,,,,,,,,,,,,,,,1,0,330,317,1,329,1,,,,,,
left,0.616999865,1,348,,,,,,,,,,,,,3,2,1,stim/21.jpeg,Instruments,1,stim/objects/Instruments/marimba3.png,0.9,2,0.2,0.15,left,41,2020-12-08_01h03.57.490,premup-three_ses-02_part-02_label-phase2,3.2.4,MacIntel,60,,,,,,,,,,,,,,,,,1,0,330,270,1,329,2,,,,,,
right,0.571999788,0,349,,,,,,,,,,,,,1,3,2,stim/32.jpeg,Instruments,1,stim/objects/Instruments/accordion3.png,0.5,1,-0.2,0.15,left,41,2020-12-08_01h03.57.490,premup-three_ses-02_part-02_label-phase2,3.2.4,MacIntel,60,,,,,,,,,,,,,,,,,1,0,330,5,1,329,2,,,,,,
left,0.652999878,0,350,,,,,,,,,,,,,3,1,2,stim/12.jpeg,HouseObjects,2,stim/objects/HouseObjects/pan3.png,0.9,1,-0.2,0.15,right,41,2020-12-08_01h03.57.490,premup-three_ses-02_part-02_label-phase2,3.2.4,MacIntel,60,,,,,,,,,,,,,,,,,1,0,330,183,1,329,2,,,,,,
right,0.548999786,1,351,,,,,,,,,,,,,3,1,4,stim/14.jpeg,HouseObjects,2,stim/objects/HouseObjects/match3.png,0.9,3,-0.2,-0.15,right,41,2020-12-08_01h03.57.490,premup-three_ses-02_part-02_label-phase2,3.2.4,MacIntel,60,,,,,,,,,,,,,,,,,1,0,330,197,1,329,2,,,,,,
right,0.592999697,1,352,,,,,,,,,,,,,3,1,4,stim/14.jpeg,HouseObjects,2,stim/objects/HouseObjects/lintroller4.png,0.9,4,0.2,-0.15,right,41,2020-12-08_01h03.57.490,premup-three_ses-02_part-02_label-phase2,3.2.4,MacIntel,60,,,,,,,,,,,,,,,,,1,0,330,221,1,329,1,,,,,,
left,0.717999935,0,353,,,,,,,,,,,,,3,2,2,stim/22.jpeg,HouseObjects,2,stim/objects/HouseObjects/towel4.png,0.1,2,0.2,0.15,right,41,2020-12-08_01h03.57.490,premup-three_ses-02_part-02_label-phase2,3.2.4,MacIntel,60,,,,,,,,,,,,,,,,,1,0,330,327,1,329,1,,,,,,
left,0.507999659,1,354,,,,,,,,,,,,,3,2,4,stim/24.jpeg,Instruments,1,stim/objects/Instruments/musicstand3.png,0.9,3,-0.2,-0.15,left,41,2020-12-08_01h03.57.490,premup-three_ses-02_part-02_label-phase2,3.2.4,MacIntel,60,,,,,,,,,,,,,,,,,1,0,330,233,1,329,2,,,,,,
right,0.825999737,1,355,,,,,,,,,,,,,3,1,3,stim/13.jpeg,HouseObjects,2,stim/objects/HouseObjects/pan3.png,0.9,3,-0.2,-0.15,right,41,2020-12-08_01h03.57.490,premup-three_ses-02_part-02_label-phase2,3.2.4,MacIntel,60,,,,,,,,,,,,,,,,,1,0,330,168,1,329,2,,,,,,
right,0.502999783,1,356,,,,,,,,,,,,,3,1,1,stim/11.jpeg,HouseObjects,2,stim/objects/HouseObjects/lintroller3.png,0.9,4,0.2,-0.15,right,41,2020-12-08_01h03.57.490,premup-three_ses-02_part-02_label-phase2,3.2.4,MacIntel,60,,,,,,,,,,,,,,,,,1,0,330,166,1,329,2,,,,,,
right,0.65199995,1,357,,,,,,,,,,,,,1,3,2,stim/32.jpeg,HouseObjects,2,stim/objects/HouseObjects/barbecuelighter3.png,0.5,3,-0.2,-0.15,right,41,2020-12-08_01h03.57.490,premup-three_ses-02_part-02_label-phase2,3.2.4,MacIntel,60,,,,,,,,,,,,,,,,,1,0,330,17,1,329,2,,,,,,
right,0.532999754,1,358,,,,,,,,,,,,,3,1,1,stim/11.jpeg,HouseObjects,2,stim/objects/HouseObjects/lintroller3.png,0.9,2,0.2,0.15,right,41,2020-12-08_01h03.57.490,premup-three_ses-02_part-02_label-phase2,3.2.4,MacIntel,60,,,,,,,,,,,,,,,,,1,0,330,206,1,329,2,,,,,,
left,0.65199995,1,359,,,,,,,,,,,,,2,6,1,stim/61.jpeg,Instruments,1,stim/objects/Instruments/maraca4.png,0.7,4,0.2,-0.15,left,41,2020-12-08_01h03.57.490,premup-three_ses-02_part-02_label-phase2,3.2.4,MacIntel,60,,,,,,,,,,,,,,,,,1,0,330,119,1,329,1,,,,,,
left,0.508999825,1,360,,,,,,,,,,,,,2,6,1,stim/61.jpeg,Instruments,1,stim/objects/Instruments/cymbal3.png,0.7,4,0.2,-0.15,left,41,2020-12-08_01h03.57.490,premup-three_ses-02_part-02_label-phase2,3.2.4,MacIntel,60,,,,,,,,,,,,,,,,,1,0,330,95,1,329,2,,,,,,
left,0.552000046,1,361,,,,,,,,,,,,,2,6,4,stim/64.jpeg,Instruments,1,stim/objects/Instruments/doublebass3.png,0.7,3,-0.2,-0.15,left,41,2020-12-08_01h03.57.490,premup-three_ses-02_part-02_label-phase2,3.2.4,MacIntel,60,,,,,,,,,,,,,,,,,1,0,330,106,1,329,2,,,,,,
right,0.641999722,1,362,,,,,,,,,,,,,3,1,2,stim/12.jpeg,HouseObjects,2,stim/objects/HouseObjects/lintroller3.png,0.9,3,-0.2,-0.15,right,41,2020-12-08_01h03.57.490,premup-three_ses-02_part-02_label-phase2,3.2.4,MacIntel,60,,,,,,,,,,,,,,,,,1,0,330,171,1,329,2,,,,,,
left,0.644999981,1,363,,,,,,,,,,,,,3,2,3,stim/23.jpeg,Instruments,1,stim/objects/Instruments/metronome3.png,0.9,3,-0.2,-0.15,left,41,2020-12-08_01h03.57.490,premup-three_ses-02_part-02_label-phase2,3.2.4,MacIntel,60,,,,,,,,,,,,,,,,,1,0,330,236,1,329,2,,,,,,
left,0.455999851,1,364,,,,,,,,,,,,,3,2,3,stim/23.jpeg,Instruments,1,stim/objects/Instruments/oboe3.png,0.9,2,0.2,0.15,left,41,2020-12-08_01h03.57.490,premup-three_ses-02_part-02_label-phase2,3.2.4,MacIntel,60,,,,,,,,,,,,,,,,,1,0,330,284,1,329,2,,,,,,
right,0.622999907,1,365,,,,,,,,,,,,,2,5,4,stim/54.jpeg,HouseObjects,2,stim/objects/HouseObjects/ballofstring4.png,0.7,3,-0.2,-0.15,right,41,2020-12-08_01h03.57.490,premup-three_ses-02_part-02_label-phase2,3.2.4,MacIntel,60,,,,,,,,,,,,,,,,,1,0,330,91,1,329,1,,,,,,
right,0.586999893,1,366,,,,,,,,,,,,,3,1,2,stim/12.jpeg,HouseObjects,2,stim/objects/HouseObjects/match3.png,0.9,2,0.2,0.15,right,41,2020-12-08_01h03.57.490,premup-three_ses-02_part-02_label-phase2,3.2.4,MacIntel,60,,,,,,,,,,,,,,,,,1,0,330,167,1,329,2,,,,,,
right,0.609999895,1,367,,,,,,,,,,,,,3,1,3,stim/13.jpeg,HouseObjects,2,stim/objects/HouseObjects/pan3.png,0.9,1,-0.2,0.15,right,41,2020-12-08_01h03.57.490,premup-three_ses-02_part-02_label-phase2,3.2.4,MacIntel,60,,,,,,,,,,,,,,,,,1,0,330,148,1,329,2,,,,,,
right,0.520999908,1,368,,,,,,,,,,,,,3,1,4,stim/14.jpeg,HouseObjects,2,stim/objects/HouseObjects/recyclingbin4.png,0.9,3,-0.2,-0.15,right,41,2020-12-08_01h03.57.490,premup-three_ses-02_part-02_label-phase2,3.2.4,MacIntel,60,,,,,,,,,,,,,,,,,1,0,330,225,1,329,1,,,,,,
right,0.556999922,1,369,,,,,,,,,,,,,3,1,2,stim/12.jpeg,HouseObjects,2,stim/objects/HouseObjects/lintroller3.png,0.9,4,0.2,-0.15,right,41,2020-12-08_01h03.57.490,premup-three_ses-02_part-02_label-phase2,3.2.4,MacIntel,60,,,,,,,,,,,,,,,,,1,0,330,191,1,329,2,,,,,,
right,0.595999718,1,370,,,,,,,,,,,,,3,1,3,stim/13.jpeg,HouseObjects,2,stim/objects/HouseObjects/match3.png,0.9,4,0.2,-0.15,right,41,2020-12-08_01h03.57.490,premup-three_ses-02_part-02_label-phase2,3.2.4,MacIntel,60,,,,,,,,,,,,,,,,,1,0,330,192,1,329,2,,,,,,
right,0.838999748,1,371,,,,,,,,,,,,,1,3,4,stim/34.jpeg,HouseObjects,2,stim/objects/HouseObjects/basket3.png,0.5,1,-0.2,0.15,right,41,2020-12-08_01h03.57.490,premup-three_ses-02_part-02_label-phase2,3.2.4,MacIntel,60,,,,,,,,,,,,,,,,,1,0,330,23,1,329,2,,,,,,
left,0.626999855,0,372,,,,,,,,,,,,,3,2,3,stim/23.jpeg,HouseObjects,2,stim/objects/HouseObjects/vacuumcleaner4.png,0.1,4,0.2,-0.15,right,41,2020-12-08_01h03.57.490,premup-three_ses-02_part-02_label-phase2,3.2.4,MacIntel,60,,,,,,,,,,,,,,,,,1,0,330,328,1,329,1,,,,,,
right,0.599999905,1,373,,,,,,,,,,,,,3,1,2,stim/12.jpeg,HouseObjects,2,stim/objects/HouseObjects/knife3.png,0.9,1,-0.2,0.15,right,41,2020-12-08_01h03.57.490,premup-three_ses-02_part-02_label-phase2,3.2.4,MacIntel,60,,,,,,,,,,,,,,,,,1,0,330,175,1,329,2,,,,,,
right,0.598999739,1,374,,,,,,,,,,,,,3,1,4,stim/14.jpeg,HouseObjects,2,stim/objects/HouseObjects/pan3.png,0.9,3,-0.2,-0.15,right,41,2020-12-08_01h03.57.490,premup-three_ses-02_part-02_label-phase2,3.2.4,MacIntel,60,,,,,,,,,,,,,,,,,1,0,330,153,1,329,2,,,,,,
right,0.697000027,1,375,,,,,,,,,,,,,2,5,2,stim/52.jpeg,HouseObjects,2,stim/objects/HouseObjects/wateringcan3.png,0.7,4,0.2,-0.15,right,41,2020-12-08_01h03.57.490,premup-three_ses-02_part-02_label-phase2,3.2.4,MacIntel,60,,,,,,,,,,,,,,,,,1,0,330,89,1,329,1,,,,,,
right,0.573999882,1,376,,,,,,,,,,,,,2,5,4,stim/54.jpeg,HouseObjects,2,stim/objects/HouseObjects/clothespin3.png,0.7,4,0.2,-0.15,right,41,2020-12-08_01h03.57.490,premup-three_ses-02_part-02_label-phase2,3.2.4,MacIntel,60,,,,,,,,,,,,,,,,,1,0,330,71,1,329,2,,,,,,
,,0,377,,,,,,,,,,,,,3,2,3,stim/23.jpeg,Instruments,1,stim/objects/Instruments/marimba3.png,0.9,1,-0.2,0.15,left,41,2020-12-08_01h03.57.490,premup-three_ses-02_part-02_label-phase2,3.2.4,MacIntel,60,,,,,,,,,,,,,,,,,1,0,330,300,1,329,2,,,,,,
