id_acc,key_resp_id.keys,key_resp_id.rt,key_resp_conf.keys,key_resp_conf.rt,assoc_acc,key_resp_assoc.keys,key_resp_assoc.rt,loc_acc,key_resp_loc.keys,key_resp_loc.rt,task_innerloop.thisRepN,task_innerloop.thisTrialN,task_innerloop.thisN,task_innerloop.thisIndex,task_innerloop.ran,task_innerloop.order,context_type,object_cat,PE_level,OvsN,obj_file,scn_file,corr_scn_cat,assoc_file,corr_scn_inst,corr_loc,participant,date,expName,psychopyVersion,OS,frameRate
1,right,1.596999884,1,1.18200016,0,4,4.088999987,0,2,2.277999878,1,0,200,37,1,199,2,2,0.7,1,stim/objects/HouseObjects/barbecuelighter4.png,stim/51.jpeg,5,stim/5.png,1,4,41,2020-12-09_01h07.51.110,premup-three_ses-02_part-03_label-phase3,3.2.4,MacIntel,60
1,right,2.148999929,,,0,,,0,,,1,0,200,135,1,199,0,2,0,2,stim/objects/HouseObjects/knife.png,,0,stim/0.png,0,0,41,2020-12-09_01h07.51.110,premup-three_ses-02_part-03_label-phase3,3.2.4,MacIntel,60
1,left,1.085000038,3,1.494999886,0,2,3.893000126,0,4,3.039000034,1,0,200,60,1,199,3,1,0.1,1,stim/objects/Instruments/marimba4.png,stim/11.jpeg,1,stim/1.png,1,4,41,2020-12-09_01h07.51.110,premup-three_ses-02_part-03_label-phase3,3.2.4,MacIntel,60
1,left,1.265000105,,,0,,,0,,,1,0,200,191,1,199,0,2,0,2,stim/objects/HouseObjects/bottle2.png,,0,stim/0.png,0,0,41,2020-12-09_01h07.51.110,premup-three_ses-02_part-03_label-phase3,3.2.4,MacIntel,60
1,left,2.409000158,,,0,,,0,,,1,0,200,161,1,199,0,1,0,2,stim/objects/Instruments/tuba.png,,0,stim/0.png,0,0,41,2020-12-09_01h07.51.110,premup-three_ses-02_part-03_label-phase3,3.2.4,MacIntel,60
1,left,0.930999994,4,1.648000002,0,3,2.085000038,0,4,1.440000057,1,0,200,4,1,199,1,1,0.5,1,stim/objects/Instruments/saxophone3.png,stim/33.jpeg,3,stim/3.png,3,3,41,2020-12-09_01h07.51.110,premup-three_ses-02_part-03_label-phase3,3.2.4,MacIntel,60
1,left,2.125,,,0,,,0,,,1,0,200,177,1,199,0,2,0,2,stim/objects/HouseObjects/barbecuelighter2.png,,0,stim/0.png,0,0,41,2020-12-09_01h07.51.110,premup-three_ses-02_part-03_label-phase3,3.2.4,MacIntel,60
1,right,1.641000032,,,0,,,0,,,1,0,200,116,1,199,0,2,0,2,stim/objects/HouseObjects/bottle.png,,0,stim/0.png,0,0,41,2020-12-09_01h07.51.110,premup-three_ses-02_part-03_label-phase3,3.2.4,MacIntel,60
1,right,0.971000195,2,2.145999908,0,3,1.128999949,0,1,2.124000072,1,0,200,15,1,199,1,2,0.5,1,stim/objects/HouseObjects/saw3.png,stim/44.jpeg,4,stim/4.png,4,2,41,2020-12-09_01h07.51.110,premup-three_ses-02_part-03_label-phase3,3.2.4,MacIntel,60
1,left,1.248000145,3,2.370000124,0,2,1.092000008,0,2,1.088000059,1,0,200,7,1,199,1,1,0.5,1,stim/objects/HouseObjects/rubbergloves3.png,stim/34.jpeg,3,stim/3.png,4,3,41,2020-12-09_01h07.51.110,premup-three_ses-02_part-03_label-phase3,3.2.4,MacIntel,60
1,left,1.718999863,,,0,,,0,,,1,0,200,165,1,199,0,1,0,2,stim/objects/Instruments/accordion2.png,,0,stim/0.png,0,0,41,2020-12-09_01h07.51.110,premup-three_ses-02_part-03_label-phase3,3.2.4,MacIntel,60
1,right,2.230999947,4,1.926000118,0,1,1.096999884,0,1,0.674999952,1,0,200,66,1,199,3,1,0.1,1,stim/objects/Instruments/pipepiano4.png,stim/13.jpeg,1,stim/1.png,3,3,41,2020-12-09_01h07.51.110,premup-three_ses-02_part-03_label-phase3,3.2.4,MacIntel,60
1,left,5.085999966,3,2.146000147,0,1,1.269999981,0,1,0.476999998,1,0,200,33,1,199,2,2,0.7,1,stim/objects/HouseObjects/vacuumcleaner3.png,stim/51.jpeg,5,stim/5.png,1,1,41,2020-12-09_01h07.51.110,premup-three_ses-02_part-03_label-phase3,3.2.4,MacIntel,60
1,left,1.583000183,3,1.27699995,0,2,1.157999992,0,2,2.218999863,1,0,200,78,1,199,3,2,0.9,1,stim/objects/HouseObjects/rug4.png,stim/13.jpeg,1,stim/1.png,3,2,41,2020-12-09_01h07.51.110,premup-three_ses-02_part-03_label-phase3,3.2.4,MacIntel,60
1,right,1.653000116,1,2.719000101,0,3,1.312999964,0,3,2.539000034,1,0,200,97,1,199,3,2,0.1,1,stim/objects/HouseObjects/towel4.png,stim/22.jpeg,2,stim/2.png,2,2,41,2020-12-09_01h07.51.110,premup-three_ses-02_part-03_label-phase3,3.2.4,MacIntel,60
1,right,2.694999933,,,0,,,0,,,1,0,200,111,1,199,0,2,0,2,stim/objects/HouseObjects/ballofstring.png,,0,stim/0.png,0,0,41,2020-12-09_01h07.51.110,premup-three_ses-02_part-03_label-phase3,3.2.4,MacIntel,60
1,right,2.20600009,4,2.088000059,0,1,1.187999964,0,1,0.802000046,1,0,200,80,1,199,3,1,0.9,1,stim/objects/Instruments/speaker4.png,stim/21.jpeg,2,stim/2.png,1,2,41,2020-12-09_01h07.51.110,premup-three_ses-02_part-03_label-phase3,3.2.4,MacIntel,60
1,left,1.311000109,,,0,,,0,,,1,0,200,142,1,199,0,1,0,2,stim/objects/Instruments/record.png,,0,stim/0.png,0,0,41,2020-12-09_01h07.51.110,premup-three_ses-02_part-03_label-phase3,3.2.4,MacIntel,60
1,left,1.026000023,,,0,,,0,,,1,0,200,166,1,199,0,1,0,2,stim/objects/Instruments/acousticguitar2.png,,0,stim/0.png,0,0,41,2020-12-09_01h07.51.110,premup-three_ses-02_part-03_label-phase3,3.2.4,MacIntel,60
1,right,2.06799984,3,1.753000021,0,3,0.927999973,0,1,1.14199996,1,0,200,54,1,199,2,2,0.3,1,stim/objects/HouseObjects/clock4.png,stim/62.jpeg,6,stim/6.png,2,2,41,2020-12-09_01h07.51.110,premup-three_ses-02_part-03_label-phase3,3.2.4,MacIntel,60
1,right,1.450000048,4,1.59800005,0,1,0.901000023,0,1,1.144000053,1,0,200,83,1,199,3,1,0.9,1,stim/objects/Instruments/triangle4.png,stim/24.jpeg,2,stim/2.png,4,3,41,2020-12-09_01h07.51.110,premup-three_ses-02_part-03_label-phase3,3.2.4,MacIntel,60
1,left,1.690999985,4,1.461999893,0,2,2.947000027,0,4,2.161000013,1,0,200,53,1,199,2,2,0.3,1,stim/objects/HouseObjects/bucket4.png,stim/61.jpeg,6,stim/6.png,1,3,41,2020-12-09_01h07.51.110,premup-three_ses-02_part-03_label-phase3,3.2.4,MacIntel,60
1,left,1.470999956,,,0,,,0,,,1,0,200,143,1,199,0,1,0,2,stim/objects/Instruments/record_player.png,,0,stim/0.png,0,0,41,2020-12-09_01h07.51.110,premup-three_ses-02_part-03_label-phase3,3.2.4,MacIntel,60
1,left,2.088999987,3,1.30099988,0,1,1.082000017,0,1,2.036000013,1,0,200,96,1,199,3,2,0.1,1,stim/objects/HouseObjects/thread4.png,stim/21.jpeg,2,stim/2.png,1,3,41,2020-12-09_01h07.51.110,premup-three_ses-02_part-03_label-phase3,3.2.4,MacIntel,60
1,right,1.20299983,,,0,,,0,,,1,0,200,173,1,199,0,2,0,2,stim/objects/HouseObjects/vacuumcleaner.png,,0,stim/0.png,0,0,41,2020-12-09_01h07.51.110,premup-three_ses-02_part-03_label-phase3,3.2.4,MacIntel,60
1,left,1.06099987,3,1.462000132,0,2,1.480999947,0,2,1.741000175,1,0,200,8,1,199,1,1,0.5,1,stim/objects/HouseObjects/rug3.png,stim/31.jpeg,3,stim/3.png,1,4,41,2020-12-09_01h07.51.110,premup-three_ses-02_part-03_label-phase3,3.2.4,MacIntel,60
1,left,2.901000023,,,0,,,0,,,1,0,200,113,1,199,0,2,0,2,stim/objects/HouseObjects/basket.png,,0,stim/0.png,0,0,41,2020-12-09_01h07.51.110,premup-three_ses-02_part-03_label-phase3,3.2.4,MacIntel,60
1,right,1.352999926,3,1.576999903,0,1,1.171999931,0,1,0.503999949,1,0,200,88,1,199,3,1,0.9,1,stim/objects/Instruments/vuvuzela4.png,stim/21.jpeg,2,stim/2.png,1,2,41,2020-12-09_01h07.51.110,premup-three_ses-02_part-03_label-phase3,3.2.4,MacIntel,60
1,left,5.917000055,1,1.617000103,0,2,0.895999908,0,1,1.00999999,1,0,200,13,1,199,1,2,0.5,1,stim/objects/Instruments/triangle3.png,stim/44.jpeg,4,stim/4.png,4,1,41,2020-12-09_01h07.51.110,premup-three_ses-02_part-03_label-phase3,3.2.4,MacIntel,60
1,left,1.347000122,,,0,,,0,,,1,0,200,168,1,199,0,1,0,2,stim/objects/Instruments/banjo2.png,,0,stim/0.png,0,0,41,2020-12-09_01h07.51.110,premup-three_ses-02_part-03_label-phase3,3.2.4,MacIntel,60
1,left,0.881999969,3,1.168000221,0,4,2.118999958,0,4,1.219000101,1,0,200,43,1,199,2,1,0.7,1,stim/objects/Instruments/clarinet4.png,stim/63.jpeg,6,stim/6.png,3,4,41,2020-12-09_01h07.51.110,premup-three_ses-02_part-03_label-phase3,3.2.4,MacIntel,60
1,right,2.815999985,,,0,,,0,,,1,0,200,110,1,199,0,2,0,2,stim/objects/HouseObjects/ashtray.png,,0,stim/0.png,0,0,41,2020-12-09_01h07.51.110,premup-three_ses-02_part-03_label-phase3,3.2.4,MacIntel,60
1,left,0.726999998,,,0,,,0,,,1,0,200,127,1,199,0,1,0,2,stim/objects/Instruments/musicsheet.png,,0,stim/0.png,0,0,41,2020-12-09_01h07.51.110,premup-three_ses-02_part-03_label-phase3,3.2.4,MacIntel,60
1,left,1.352999926,,,0,,,0,,,1,0,200,198,1,199,0,2,0,2,stim/objects/HouseObjects/ironingboard2.png,,0,stim/0.png,0,0,41,2020-12-09_01h07.51.110,premup-three_ses-02_part-03_label-phase3,3.2.4,MacIntel,60
1,right,1.140000105,2,1.727999926,0,1,0.872999907,0,2,0.971999884,1,0,200,36,1,199,2,2,0.7,1,stim/objects/HouseObjects/ballofstring4.png,stim/54.jpeg,5,stim/5.png,4,3,41,2020-12-09_01h07.51.110,premup-three_ses-02_part-03_label-phase3,3.2.4,MacIntel,60
1,left,1.051000118,3,1.217000008,0,4,2.233999968,0,3,2.328999996,1,0,200,0,1,199,1,1,0.5,1,stim/objects/Instruments/panflute3.png,stim/33.jpeg,3,stim/3.png,3,2,41,2020-12-09_01h07.51.110,premup-three_ses-02_part-03_label-phase3,3.2.4,MacIntel,60
1,left,3.208000183,,,0,,,0,,,1,0,200,154,1,199,0,2,0,2,stim/objects/HouseObjects/safetypin.png,,0,stim/0.png,0,0,41,2020-12-09_01h07.51.110,premup-three_ses-02_part-03_label-phase3,3.2.4,MacIntel,60
1,left,1.031000137,,,0,,,0,,,1,0,200,196,1,199,0,2,0,2,stim/objects/HouseObjects/clothespin2.png,,0,stim/0.png,0,0,41,2020-12-09_01h07.51.110,premup-three_ses-02_part-03_label-phase3,3.2.4,MacIntel,60
1,left,0.770000219,,,0,,,0,,,1,0,200,137,1,199,0,2,0,2,stim/objects/HouseObjects/match.png,,0,stim/0.png,0,0,41,2020-12-09_01h07.51.110,premup-three_ses-02_part-03_label-phase3,3.2.4,MacIntel,60
1,right,1.174999952,2,2.171999931,0,2,1.931999922,0,3,0.916000128,1,0,200,74,1,199,3,2,0.9,1,stim/objects/HouseObjects/pitcher4.png,stim/13.jpeg,1,stim/1.png,3,3,41,2020-12-09_01h07.51.110,premup-three_ses-02_part-03_label-phase3,3.2.4,MacIntel,60
1,left,1.14199996,,,0,,,0,,,1,0,200,106,1,199,0,1,0,2,stim/objects/Instruments/cello.png,,0,stim/0.png,0,0,41,2020-12-09_01h07.51.110,premup-three_ses-02_part-03_label-phase3,3.2.4,MacIntel,60
1,right,1.017999887,4,1.652999878,0,1,0.797999859,0,2,1.236999989,1,0,200,62,1,199,3,1,0.1,1,stim/objects/Instruments/musicsheet4.png,stim/13.jpeg,1,stim/1.png,3,1,41,2020-12-09_01h07.51.110,premup-three_ses-02_part-03_label-phase3,3.2.4,MacIntel,60
1,left,1.350000143,,,0,,,0,,,1,0,200,114,1,199,0,2,0,2,stim/objects/HouseObjects/bleachbottle.png,,0,stim/0.png,0,0,41,2020-12-09_01h07.51.110,premup-three_ses-02_part-03_label-phase3,3.2.4,MacIntel,60
1,left,0.798000097,2,1.535000086,0,3,1.072000027,0,2,1.970000029,1,0,200,19,1,199,1,2,0.5,1,stim/objects/HouseObjects/teapot3.png,stim/44.jpeg,4,stim/4.png,4,3,41,2020-12-09_01h07.51.110,premup-three_ses-02_part-03_label-phase3,3.2.4,MacIntel,60
1,left,1.154999971,,,0,,,0,,,1,0,200,104,1,199,0,1,0,2,stim/objects/Instruments/bassdrum.png,,0,stim/0.png,0,0,41,2020-12-09_01h07.51.110,premup-three_ses-02_part-03_label-phase3,3.2.4,MacIntel,60
1,left,1.756000042,,,0,,,0,,,1,0,200,100,1,199,0,1,0,2,stim/objects/Instruments/accordion.png,,0,stim/0.png,0,0,41,2020-12-09_01h07.51.110,premup-three_ses-02_part-03_label-phase3,3.2.4,MacIntel,60
1,left,0.888000011,4,1.084000111,0,3,2.661999941,0,4,1.302000046,1,0,200,10,1,199,1,2,0.5,1,stim/objects/Instruments/speaker3.png,stim/41.jpeg,4,stim/4.png,1,4,41,2020-12-09_01h07.51.110,premup-three_ses-02_part-03_label-phase3,3.2.4,MacIntel,60
1,right,1.213000059,1,1.630000114,0,1,0.787999868,0,1,0.913000107,1,0,200,81,1,199,3,1,0.9,1,stim/objects/Instruments/tambourine4.png,stim/22.jpeg,2,stim/2.png,2,2,41,2020-12-09_01h07.51.110,premup-three_ses-02_part-03_label-phase3,3.2.4,MacIntel,60
1,left,2.218000174,3,0.999000072,0,1,1.31400013,0,1,1.414000034,1,0,200,99,1,199,3,2,0.1,1,stim/objects/HouseObjects/wateringcan4.png,stim/24.jpeg,2,stim/2.png,4,4,41,2020-12-09_01h07.51.110,premup-three_ses-02_part-03_label-phase3,3.2.4,MacIntel,60
1,left,2.371999979,,,0,,,0,,,1,0,200,138,1,199,0,2,0,2,stim/objects/HouseObjects/pan.png,,0,stim/0.png,0,0,41,2020-12-09_01h07.51.110,premup-three_ses-02_part-03_label-phase3,3.2.4,MacIntel,60
1,right,0.930999994,,,0,,,0,,,1,0,200,199,1,199,0,2,0,2,stim/objects/HouseObjects/key2.png,,0,stim/0.png,0,0,41,2020-12-09_01h07.51.110,premup-three_ses-02_part-03_label-phase3,3.2.4,MacIntel,60
1,right,0.855000019,3,1.234000206,0,2,1.990999937,0,2,0.611000061,1,0,200,32,1,199,2,2,0.7,1,stim/objects/HouseObjects/towel3.png,stim/54.jpeg,5,stim/5.png,4,2,41,2020-12-09_01h07.51.110,premup-three_ses-02_part-03_label-phase3,3.2.4,MacIntel,60
1,left,1.40199995,1,1.11500001,0,1,0.855999947,0,3,1.256999969,1,0,200,64,1,199,3,1,0.1,1,stim/objects/Instruments/oboe4.png,stim/11.jpeg,1,stim/1.png,1,4,41,2020-12-09_01h07.51.110,premup-three_ses-02_part-03_label-phase3,3.2.4,MacIntel,60
1,left,3.116999865,4,1.089999914,0,4,1.358999968,0,4,1.030999899,1,0,200,98,1,199,3,2,0.1,1,stim/objects/HouseObjects/vacuumcleaner4.png,stim/23.jpeg,2,stim/2.png,3,4,41,2020-12-09_01h07.51.110,premup-three_ses-02_part-03_label-phase3,3.2.4,MacIntel,60
1,left,3.700999975,1,0.592000008,0,2,1.924000025,0,1,0.809999943,1,0,200,1,1,199,1,1,0.5,1,stim/objects/Instruments/pipepiano3.png,stim/34.jpeg,3,stim/3.png,4,2,41,2020-12-09_01h07.51.110,premup-three_ses-02_part-03_label-phase3,3.2.4,MacIntel,60
1,right,1.287999868,3,1.381000042,0,1,0.833999872,0,1,0.503000021,1,0,200,58,1,199,2,2,0.3,1,stim/objects/HouseObjects/ironingboard4.png,stim/62.jpeg,6,stim/6.png,2,1,41,2020-12-09_01h07.51.110,premup-three_ses-02_part-03_label-phase3,3.2.4,MacIntel,60
1,left,2.061000109,,,0,,,0,,,1,0,200,123,1,199,0,1,0,2,stim/objects/Instruments/laud.png,,0,stim/0.png,0,0,41,2020-12-09_01h07.51.110,premup-three_ses-02_part-03_label-phase3,3.2.4,MacIntel,60
1,right,0.963999987,,,0,,,0,,,1,0,200,151,1,199,0,2,0,2,stim/objects/HouseObjects/remote.png,,0,stim/0.png,0,0,41,2020-12-09_01h07.51.110,premup-three_ses-02_part-03_label-phase3,3.2.4,MacIntel,60
1,left,1.994000196,1,1.446000099,0,1,0.980999947,0,1,1.296000004,1,0,200,86,1,199,3,1,0.9,1,stim/objects/Instruments/tuba4.png,stim/23.jpeg,2,stim/2.png,3,3,41,2020-12-09_01h07.51.110,premup-three_ses-02_part-03_label-phase3,3.2.4,MacIntel,60
1,right,4.470000029,,,0,,,0,,,1,0,200,179,1,199,0,2,0,2,stim/objects/HouseObjects/bleachbottle2.png,,0,stim/0.png,0,0,41,2020-12-09_01h07.51.110,premup-three_ses-02_part-03_label-phase3,3.2.4,MacIntel,60
1,right,1.282000065,,,0,,,0,,,1,0,200,105,1,199,0,1,0,2,stim/objects/Instruments/bassguitar.png,,0,stim/0.png,0,0,41,2020-12-09_01h07.51.110,premup-three_ses-02_part-03_label-phase3,3.2.4,MacIntel,60
1,right,0.97300005,2,1.169999838,0,3,1.032999992,0,4,1.436999798,1,0,200,93,1,199,3,2,0.1,1,stim/objects/HouseObjects/spraybottle4.png,stim/22.jpeg,2,stim/2.png,2,1,41,2020-12-09_01h07.51.110,premup-three_ses-02_part-03_label-phase3,3.2.4,MacIntel,60
1,right,2.029000044,2,1.736000061,0,2,0.681000233,0,1,0.684000015,1,0,200,70,1,199,3,2,0.9,1,stim/objects/HouseObjects/knife4.png,stim/13.jpeg,1,stim/1.png,3,2,41,2020-12-09_01h07.51.110,premup-three_ses-02_part-03_label-phase3,3.2.4,MacIntel,60
1,left,2.457000017,,,0,,,0,,,1,0,200,134,1,199,0,2,0,2,stim/objects/HouseObjects/key.png,,0,stim/0.png,0,0,41,2020-12-09_01h07.51.110,premup-three_ses-02_part-03_label-phase3,3.2.4,MacIntel,60
1,left,1.399000168,,,0,,,0,,,1,0,200,129,1,199,0,1,0,2,stim/objects/Instruments/oboe.png,,0,stim/0.png,0,0,41,2020-12-09_01h07.51.110,premup-three_ses-02_part-03_label-phase3,3.2.4,MacIntel,60
1,right,0.77699995,,,0,,,0,,,1,0,200,197,1,199,0,2,0,2,stim/objects/HouseObjects/iron2.png,,0,stim/0.png,0,0,41,2020-12-09_01h07.51.110,premup-three_ses-02_part-03_label-phase3,3.2.4,MacIntel,60
1,left,1.736999989,3,1.34800005,0,2,0.872999907,0,3,1.146999836,1,0,200,5,1,199,1,1,0.5,1,stim/objects/HouseObjects/recyclingbin3.png,stim/32.jpeg,3,stim/3.png,2,3,41,2020-12-09_01h07.51.110,premup-three_ses-02_part-03_label-phase3,3.2.4,MacIntel,60
1,left,4.555000067,2,1.056000233,0,3,0.988000154,0,2,2.400000095,1,0,200,56,1,199,2,2,0.3,1,stim/objects/HouseObjects/clothespin4.png,stim/64.jpeg,6,stim/6.png,4,1,41,2020-12-09_01h07.51.110,premup-three_ses-02_part-03_label-phase3,3.2.4,MacIntel,60
1,left,2.188999891,4,1.157000065,0,2,2.177999973,0,1,1.901000023,1,0,200,72,1,199,3,2,0.9,1,stim/objects/HouseObjects/match4.png,stim/11.jpeg,1,stim/1.png,1,2,41,2020-12-09_01h07.51.110,premup-three_ses-02_part-03_label-phase3,3.2.4,MacIntel,60
1,left,1.477999926,3,0.907999992,0,1,0.904000044,0,1,0.822000027,1,0,200,28,1,199,2,1,0.3,1,stim/objects/Instruments/banjo4.png,stim/51.jpeg,5,stim/5.png,1,3,41,2020-12-09_01h07.51.110,premup-three_ses-02_part-03_label-phase3,3.2.4,MacIntel,60
1,left,1.044000149,,,0,,,0,,,1,0,200,162,1,199,0,1,0,2,stim/objects/Instruments/violin.png,,0,stim/0.png,0,0,41,2020-12-09_01h07.51.110,premup-three_ses-02_part-03_label-phase3,3.2.4,MacIntel,60
1,left,1.489000082,3,1.223999977,0,2,0.891000032,0,2,1.937999964,1,0,200,40,1,199,2,1,0.7,1,stim/objects/Instruments/bassguitar4.png,stim/64.jpeg,6,stim/6.png,4,1,41,2020-12-09_01h07.51.110,premup-three_ses-02_part-03_label-phase3,3.2.4,MacIntel,60
1,left,1.45600009,2,1.195999861,0,3,0.947999954,0,1,1.137000084,1,0,200,91,1,199,3,2,0.1,1,stim/objects/HouseObjects/scale4.png,stim/24.jpeg,2,stim/2.png,4,2,41,2020-12-09_01h07.51.110,premup-three_ses-02_part-03_label-phase3,3.2.4,MacIntel,60
1,left,1.690000057,4,1.587000132,0,1,2.521000147,0,2,2.853000164,1,0,200,41,1,199,2,1,0.7,1,stim/objects/Instruments/cello4.png,stim/61.jpeg,6,stim/6.png,1,4,41,2020-12-09_01h07.51.110,premup-three_ses-02_part-03_label-phase3,3.2.4,MacIntel,60
1,left,1.513000011,4,0.749000072,0,2,0.88800025,0,3,0.967000008,1,0,200,21,1,199,2,1,0.3,1,stim/objects/Instruments/tuba3.png,stim/52.jpeg,5,stim/5.png,2,4,41,2020-12-09_01h07.51.110,premup-three_ses-02_part-03_label-phase3,3.2.4,MacIntel,60
1,left,2.71600008,,,0,,,0,,,1,0,200,181,1,199,0,1,0,2,stim/objects/Instruments/cello2.png,,0,stim/0.png,0,0,41,2020-12-09_01h07.51.110,premup-three_ses-02_part-03_label-phase3,3.2.4,MacIntel,60
1,left,1.156000137,4,0.610000134,0,3,2.919000149,0,2,1.587000132,1,0,200,3,1,199,1,1,0.5,1,stim/objects/Instruments/record_player3.png,stim/32.jpeg,3,stim/3.png,2,1,41,2020-12-09_01h07.51.110,premup-three_ses-02_part-03_label-phase3,3.2.4,MacIntel,60
1,right,3.019999981,,,0,,,0,,,1,0,200,187,1,199,0,1,0,2,stim/objects/Instruments/keyboard2.png,,0,stim/0.png,0,0,41,2020-12-09_01h07.51.110,premup-three_ses-02_part-03_label-phase3,3.2.4,MacIntel,60
1,right,5.654000044,2,1.175000191,0,3,1.518000126,0,2,0.704999924,1,0,200,50,1,199,2,2,0.3,1,stim/objects/HouseObjects/blender4.png,stim/62.jpeg,6,stim/6.png,2,1,41,2020-12-09_01h07.51.110,premup-three_ses-02_part-03_label-phase3,3.2.4,MacIntel,60
1,left,2.25999999,,,0,,,0,,,1,0,200,145,1,199,0,1,0,2,stim/objects/Instruments/speaker.png,,0,stim/0.png,0,0,41,2020-12-09_01h07.51.110,premup-three_ses-02_part-03_label-phase3,3.2.4,MacIntel,60
1,left,0.927000046,,,0,,,0,,,1,0,200,167,1,199,0,1,0,2,stim/objects/Instruments/balalaika2.png,,0,stim/0.png,0,0,41,2020-12-09_01h07.51.110,premup-three_ses-02_part-03_label-phase3,3.2.4,MacIntel,60
1,left,1.093999863,3,0.769000053,0,1,0.677000046,0,1,1.015999794,1,0,200,2,1,199,1,1,0.5,1,stim/objects/Instruments/record3.png,stim/31.jpeg,3,stim/3.png,1,4,41,2020-12-09_01h07.51.110,premup-three_ses-02_part-03_label-phase3,3.2.4,MacIntel,60
1,right,1.687999964,,,0,,,0,,,1,0,200,192,1,199,0,2,0,2,stim/objects/HouseObjects/broom2.png,,0,stim/0.png,0,0,41,2020-12-09_01h07.51.110,premup-three_ses-02_part-03_label-phase3,3.2.4,MacIntel,60
1,right,0.755000114,2,1.225000143,0,3,0.955000162,0,1,0.977999926,1,0,200,94,1,199,3,2,0.1,1,stim/objects/HouseObjects/teapot4.png,stim/23.jpeg,2,stim/2.png,3,2,41,2020-12-09_01h07.51.110,premup-three_ses-02_part-03_label-phase3,3.2.4,MacIntel,60
1,right,1.878000021,2,1.130000114,0,1,0.745000124,0,1,0.304000139,1,0,200,6,1,199,1,1,0.5,1,stim/objects/HouseObjects/remote3.png,stim/33.jpeg,3,stim/3.png,3,2,41,2020-12-09_01h07.51.110,premup-three_ses-02_part-03_label-phase3,3.2.4,MacIntel,60
1,left,1.930999994,3,0.730000019,0,1,0.736000061,0,2,1.17200017,1,0,200,90,1,199,3,2,0.1,1,stim/objects/HouseObjects/saw4.png,stim/23.jpeg,2,stim/2.png,3,2,41,2020-12-09_01h07.51.110,premup-three_ses-02_part-03_label-phase3,3.2.4,MacIntel,60
1,right,3.526000023,,,0,,,0,,,1,0,200,157,1,199,0,2,0,2,stim/objects/HouseObjects/sponge.png,,0,stim/0.png,0,0,41,2020-12-09_01h07.51.110,premup-three_ses-02_part-03_label-phase3,3.2.4,MacIntel,60
1,right,1.070000172,4,0.911000013,0,1,0.878000021,0,1,0.851999998,1,0,200,23,1,199,2,1,0.3,1,stim/objects/Instruments/vuvuzela3.png,stim/54.jpeg,5,stim/5.png,4,4,41,2020-12-09_01h07.51.110,premup-three_ses-02_part-03_label-phase3,3.2.4,MacIntel,60
1,left,2.22300005,,,0,,,0,,,1,0,200,125,1,199,0,1,0,2,stim/objects/Instruments/marimba.png,,0,stim/0.png,0,0,41,2020-12-09_01h07.51.110,premup-three_ses-02_part-03_label-phase3,3.2.4,MacIntel,60
1,left,0.953000069,3,0.677999973,0,3,0.98300004,0,3,1.184000015,1,0,200,68,1,199,3,1,0.1,1,stim/objects/Instruments/record_player4.png,stim/11.jpeg,1,stim/1.png,1,1,41,2020-12-09_01h07.51.110,premup-three_ses-02_part-03_label-phase3,3.2.4,MacIntel,60
1,left,3.197000027,3,0.904000044,0,4,1.026000023,0,4,1.100000143,1,0,200,92,1,199,3,2,0.1,1,stim/objects/HouseObjects/sponge4.png,stim/21.jpeg,2,stim/2.png,1,3,41,2020-12-09_01h07.51.110,premup-three_ses-02_part-03_label-phase3,3.2.4,MacIntel,60
1,left,1.121999979,4,0.714000225,0,2,1.069999933,0,1,0.694000006,1,0,200,69,1,199,3,1,0.1,1,stim/objects/Instruments/saxophone4.png,stim/12.jpeg,1,stim/1.png,2,4,41,2020-12-09_01h07.51.110,premup-three_ses-02_part-03_label-phase3,3.2.4,MacIntel,60
1,right,2.279000044,2,0.954999924,0,1,0.658000231,0,1,0.350000143,1,0,200,39,1,199,2,2,0.7,1,stim/objects/HouseObjects/bleachbottle4.png,stim/53.jpeg,5,stim/5.png,3,1,41,2020-12-09_01h07.51.110,premup-three_ses-02_part-03_label-phase3,3.2.4,MacIntel,60
1,right,1.049999952,2,0.943000078,0,1,0.621000051,0,1,0.187000036,1,0,200,17,1,199,1,2,0.5,1,stim/objects/HouseObjects/sponge3.png,stim/42.jpeg,4,stim/4.png,2,2,41,2020-12-09_01h07.51.110,premup-three_ses-02_part-03_label-phase3,3.2.4,MacIntel,60
1,right,4.786000013,,,0,,,0,,,1,0,200,178,1,199,0,2,0,2,stim/objects/HouseObjects/basket2.png,,0,stim/0.png,0,0,41,2020-12-09_01h07.51.110,premup-three_ses-02_part-03_label-phase3,3.2.4,MacIntel,60
1,left,1.450000048,,,0,,,0,,,1,0,200,115,1,199,0,2,0,2,stim/objects/HouseObjects/blender.png,,0,stim/0.png,0,0,41,2020-12-09_01h07.51.110,premup-three_ses-02_part-03_label-phase3,3.2.4,MacIntel,60
1,left,0.928000212,3,1.061000109,0,2,1.029999971,0,2,1.410000086,1,0,200,18,1,199,1,2,0.5,1,stim/objects/HouseObjects/spraybottle3.png,stim/43.jpeg,4,stim/4.png,3,1,41,2020-12-09_01h07.51.110,premup-three_ses-02_part-03_label-phase3,3.2.4,MacIntel,60
1,left,1.131999969,2,0.590999842,0,2,0.677000046,0,2,0.395999908,1,0,200,14,1,199,1,2,0.5,1,stim/objects/Instruments/trombone3.png,stim/41.jpeg,4,stim/4.png,1,3,41,2020-12-09_01h07.51.110,premup-three_ses-02_part-03_label-phase3,3.2.4,MacIntel,60
1,left,1.358999968,,,0,,,0,,,1,0,200,195,1,199,0,2,0,2,stim/objects/HouseObjects/clothesdryingrack2.png,,0,stim/0.png,0,0,41,2020-12-09_01h07.51.110,premup-three_ses-02_part-03_label-phase3,3.2.4,MacIntel,60
1,left,1.999000072,,,0,,,0,,,1,0,200,155,1,199,0,2,0,2,stim/objects/HouseObjects/saw.png,,0,stim/0.png,0,0,41,2020-12-09_01h07.51.110,premup-three_ses-02_part-03_label-phase3,3.2.4,MacIntel,60
1,right,1.368000031,,,0,,,0,,,1,0,200,170,1,199,0,2,0,2,stim/objects/HouseObjects/thermometer.png,,0,stim/0.png,0,0,41,2020-12-09_01h07.51.110,premup-three_ses-02_part-03_label-phase3,3.2.4,MacIntel,60
1,right,1.188999891,1,1.362999916,0,3,0.888000011,0,4,1.113999844,1,0,200,51,1,199,2,2,0.3,1,stim/objects/HouseObjects/bottle4.png,stim/63.jpeg,6,stim/6.png,3,2,41,2020-12-09_01h07.51.110,premup-three_ses-02_part-03_label-phase3,3.2.4,MacIntel,60
1,right,1.096999884,,,0,,,0,,,1,0,200,153,1,199,0,2,0,2,stim/objects/HouseObjects/rug.png,,0,stim/0.png,0,0,41,2020-12-09_01h07.51.110,premup-three_ses-02_part-03_label-phase3,3.2.4,MacIntel,60
1,left,1.02699995,3,0.916999817,0,1,0.73300004,0,1,0.552999973,1,0,200,79,1,199,3,2,0.9,1,stim/objects/HouseObjects/safetypin4.png,stim/14.jpeg,1,stim/1.png,4,1,41,2020-12-09_01h07.51.110,premup-three_ses-02_part-03_label-phase3,3.2.4,MacIntel,60
1,left,1.15199995,4,0.886000156,0,3,1.253000021,0,2,0.830999851,1,0,200,11,1,199,1,2,0.5,1,stim/objects/Instruments/tambourine3.png,stim/42.jpeg,4,stim/4.png,2,3,41,2020-12-09_01h07.51.110,premup-three_ses-02_part-03_label-phase3,3.2.4,MacIntel,60
1,right,1.230000019,1,1.176000118,0,3,0.642999887,0,3,0.747999907,1,0,200,59,1,199,2,2,0.3,1,stim/objects/HouseObjects/key4.png,stim/63.jpeg,6,stim/6.png,3,1,41,2020-12-09_01h07.51.110,premup-three_ses-02_part-03_label-phase3,3.2.4,MacIntel,60
1,left,1.496000051,,,0,,,0,,,1,0,200,189,1,199,0,1,0,2,stim/objects/Instruments/maraca2.png,,0,stim/0.png,0,0,41,2020-12-09_01h07.51.110,premup-three_ses-02_part-03_label-phase3,3.2.4,MacIntel,60
1,left,0.812999964,,,0,,,0,,,1,0,200,146,1,199,0,1,0,2,stim/objects/Instruments/tambourine.png,,0,stim/0.png,0,0,41,2020-12-09_01h07.51.110,premup-three_ses-02_part-03_label-phase3,3.2.4,MacIntel,60
1,right,0.997999907,,,0,,,0,,,1,0,200,140,1,199,0,1,0,2,stim/objects/Instruments/panflute.png,,0,stim/0.png,0,0,41,2020-12-09_01h07.51.110,premup-three_ses-02_part-03_label-phase3,3.2.4,MacIntel,60
1,left,0.760999918,4,0.713999987,0,1,0.872999907,0,1,0.478000164,1,0,200,26,1,199,2,1,0.3,1,stim/objects/Instruments/acousticguitar4.png,stim/53.jpeg,5,stim/5.png,3,3,41,2020-12-09_01h07.51.110,premup-three_ses-02_part-03_label-phase3,3.2.4,MacIntel,60
1,left,2.203999996,,,0,,,0,,,1,0,200,136,1,199,0,2,0,2,stim/objects/HouseObjects/lintroller.png,,0,stim/0.png,0,0,41,2020-12-09_01h07.51.110,premup-three_ses-02_part-03_label-phase3,3.2.4,MacIntel,60
1,left,2.453999996,,,0,,,0,,,1,0,200,184,1,199,0,1,0,2,stim/objects/Instruments/cornet2.png,,0,stim/0.png,0,0,41,2020-12-09_01h07.51.110,premup-three_ses-02_part-03_label-phase3,3.2.4,MacIntel,60
1,right,1.076999903,2,0.779000044,0,3,0.690999985,0,4,0.805000067,1,0,200,73,1,199,3,2,0.9,1,stim/objects/HouseObjects/pan4.png,stim/12.jpeg,1,stim/1.png,2,4,41,2020-12-09_01h07.51.110,premup-three_ses-02_part-03_label-phase3,3.2.4,MacIntel,60
1,left,1.15199995,,,0,,,0,,,1,0,200,121,1,199,0,1,0,2,stim/objects/Instruments/doublebass.png,,0,stim/0.png,0,0,41,2020-12-09_01h07.51.110,premup-three_ses-02_part-03_label-phase3,3.2.4,MacIntel,60
1,left,1.220000029,4,0.810000181,0,3,0.900000095,0,4,1.573999882,1,0,200,49,1,199,2,1,0.7,1,stim/objects/Instruments/maraca4.png,stim/61.jpeg,6,stim/6.png,1,4,41,2020-12-09_01h07.51.110,premup-three_ses-02_part-03_label-phase3,3.2.4,MacIntel,60
1,left,1.188000202,,,0,,,0,,,1,0,200,103,1,199,0,1,0,2,stim/objects/Instruments/banjo.png,,0,stim/0.png,0,0,41,2020-12-09_01h07.51.110,premup-three_ses-02_part-03_label-phase3,3.2.4,MacIntel,60
1,right,1.552000046,,,0,,,0,,,1,0,200,132,1,199,0,2,0,2,stim/objects/HouseObjects/iron.png,,0,stim/0.png,0,0,41,2020-12-09_01h07.51.110,premup-three_ses-02_part-03_label-phase3,3.2.4,MacIntel,60
1,right,1.059999943,,,0,,,0,,,1,0,200,139,1,199,0,2,0,2,stim/objects/HouseObjects/pitcher.png,,0,stim/0.png,0,0,41,2020-12-09_01h07.51.110,premup-three_ses-02_part-03_label-phase3,3.2.4,MacIntel,60
1,right,0.934000015,4,2.09100008,0,1,0.636999846,0,1,0.541000128,1,0,200,84,1,199,3,1,0.9,1,stim/objects/Instruments/trombone4.png,stim/21.jpeg,2,stim/2.png,1,2,41,2020-12-09_01h07.51.110,premup-three_ses-02_part-03_label-phase3,3.2.4,MacIntel,60
1,right,2.802000046,,,0,,,0,,,1,0,200,185,1,199,0,1,0,2,stim/objects/Instruments/cymbal2.png,,0,stim/0.png,0,0,41,2020-12-09_01h07.51.110,premup-three_ses-02_part-03_label-phase3,3.2.4,MacIntel,60
1,right,0.84800005,,,0,,,0,,,1,0,200,159,1,199,0,2,0,2,stim/objects/HouseObjects/teapot.png,,0,stim/0.png,0,0,41,2020-12-09_01h07.51.110,premup-three_ses-02_part-03_label-phase3,3.2.4,MacIntel,60
1,right,0.864000082,1,1.585000038,0,3,0.677000046,0,3,0.526000023,1,0,200,65,1,199,3,1,0.1,1,stim/objects/Instruments/panflute4.png,stim/12.jpeg,1,stim/1.png,2,3,41,2020-12-09_01h07.51.110,premup-three_ses-02_part-03_label-phase3,3.2.4,MacIntel,60
1,right,0.94900012,,,0,,,0,,,1,0,200,182,1,199,0,1,0,2,stim/objects/Instruments/chime2.png,,0,stim/0.png,0,0,41,2020-12-09_01h07.51.110,premup-three_ses-02_part-03_label-phase3,3.2.4,MacIntel,60
1,left,0.962999821,,,0,,,0,,,1,0,200,149,1,199,0,1,0,2,stim/objects/Instruments/trombone.png,,0,stim/0.png,0,0,41,2020-12-09_01h07.51.110,premup-three_ses-02_part-03_label-phase3,3.2.4,MacIntel,60
1,right,1.200999975,,,0,,,0,,,1,0,200,130,1,199,0,2,0,2,stim/objects/HouseObjects/clothesdryingrack.png,,0,stim/0.png,0,0,41,2020-12-09_01h07.51.110,premup-three_ses-02_part-03_label-phase3,3.2.4,MacIntel,60
1,right,1.710000038,,,0,,,0,,,1,0,200,158,1,199,0,2,0,2,stim/objects/HouseObjects/spraybottle.png,,0,stim/0.png,0,0,41,2020-12-09_01h07.51.110,premup-three_ses-02_part-03_label-phase3,3.2.4,MacIntel,60
1,right,0.822000027,2,1.387000084,0,1,0.526000023,0,1,0.429000139,1,0,200,31,1,199,2,2,0.7,1,stim/objects/HouseObjects/thread3.png,stim/53.jpeg,5,stim/5.png,3,1,41,2020-12-09_01h07.51.110,premup-three_ses-02_part-03_label-phase3,3.2.4,MacIntel,60
1,left,0.891000032,,,0,,,0,,,1,0,200,120,1,199,0,1,0,2,stim/objects/Instruments/cymbal.png,,0,stim/0.png,0,0,41,2020-12-09_01h07.51.110,premup-three_ses-02_part-03_label-phase3,3.2.4,MacIntel,60
1,right,1.069000006,4,0.932999849,0,3,1.190000057,0,2,1.421000004,1,0,200,63,1,199,3,1,0.1,1,stim/objects/Instruments/musicstand4.png,stim/14.jpeg,1,stim/1.png,4,2,41,2020-12-09_01h07.51.110,premup-three_ses-02_part-03_label-phase3,3.2.4,MacIntel,60
1,left,1.045000076,,,0,,,0,,,1,0,200,131,1,199,0,2,0,2,stim/objects/HouseObjects/clothespin.png,,0,stim/0.png,0,0,41,2020-12-09_01h07.51.110,premup-three_ses-02_part-03_label-phase3,3.2.4,MacIntel,60
1,right,0.910000086,2,1.361000061,0,3,0.844000101,0,2,1.179000139,1,0,200,95,1,199,3,2,0.1,1,stim/objects/HouseObjects/thermometer4.png,stim/24.jpeg,2,stim/2.png,4,1,41,2020-12-09_01h07.51.110,premup-three_ses-02_part-03_label-phase3,3.2.4,MacIntel,60
1,left,1.430999994,3,1.013000011,0,4,0.88499999,0,4,0.587000132,1,0,200,61,1,199,3,1,0.1,1,stim/objects/Instruments/metronome4.png,stim/12.jpeg,1,stim/1.png,2,4,41,2020-12-09_01h07.51.110,premup-three_ses-02_part-03_label-phase3,3.2.4,MacIntel,60
1,left,6.926000118,1,1.075000048,0,3,0.666000128,0,2,0.802000046,1,0,200,9,1,199,1,1,0.5,1,stim/objects/HouseObjects/safetypin3.png,stim/32.jpeg,3,stim/3.png,2,3,41,2020-12-09_01h07.51.110,premup-three_ses-02_part-03_label-phase3,3.2.4,MacIntel,60
1,left,0.873000145,,,0,,,0,,,1,0,200,128,1,199,0,1,0,2,stim/objects/Instruments/musicstand.png,,0,stim/0.png,0,0,41,2020-12-09_01h07.51.110,premup-three_ses-02_part-03_label-phase3,3.2.4,MacIntel,60
1,right,0.842000008,1,1.092000008,0,2,0.787000179,0,3,0.763000011,1,0,200,34,1,199,2,2,0.7,1,stim/objects/HouseObjects/wateringcan3.png,stim/52.jpeg,5,stim/5.png,2,4,41,2020-12-09_01h07.51.110,premup-three_ses-02_part-03_label-phase3,3.2.4,MacIntel,60
1,left,0.904999971,,,0,,,0,,,1,0,200,107,1,199,0,1,0,2,stim/objects/Instruments/chime.png,,0,stim/0.png,0,0,41,2020-12-09_01h07.51.110,premup-three_ses-02_part-03_label-phase3,3.2.4,MacIntel,60
1,left,0.782999992,,,0,,,0,,,1,0,200,101,1,199,0,1,0,2,stim/objects/Instruments/acousticguitar.png,,0,stim/0.png,0,0,41,2020-12-09_01h07.51.110,premup-three_ses-02_part-03_label-phase3,3.2.4,MacIntel,60
1,right,0.726999998,1,1.677000046,0,4,0.602999926,0,4,0.45600009,1,0,200,38,1,199,2,2,0.7,1,stim/objects/HouseObjects/basket4.png,stim/52.jpeg,5,stim/5.png,2,2,41,2020-12-09_01h07.51.110,premup-three_ses-02_part-03_label-phase3,3.2.4,MacIntel,60
1,right,1.100999832,1,1.075000048,0,2,0.604000092,0,2,0.40500021,1,0,200,76,1,199,3,2,0.9,1,stim/objects/HouseObjects/remote4.png,stim/11.jpeg,1,stim/1.png,1,1,41,2020-12-09_01h07.51.110,premup-three_ses-02_part-03_label-phase3,3.2.4,MacIntel,60
1,left,5.55099988,,,0,,,0,,,1,0,200,118,1,199,0,2,0,2,stim/objects/HouseObjects/bucket.png,,0,stim/0.png,0,0,41,2020-12-09_01h07.51.110,premup-three_ses-02_part-03_label-phase3,3.2.4,MacIntel,60
1,left,0.881999969,,,0,,,0,,,1,0,200,144,1,199,0,1,0,2,stim/objects/Instruments/saxophone.png,,0,stim/0.png,0,0,41,2020-12-09_01h07.51.110,premup-three_ses-02_part-03_label-phase3,3.2.4,MacIntel,60
1,left,1.203000069,3,0.914999962,0,2,0.805999994,0,2,2.299000025,1,0,200,35,1,199,2,2,0.7,1,stim/objects/HouseObjects/ashtray4.png,stim/53.jpeg,5,stim/5.png,3,3,41,2020-12-09_01h07.51.110,premup-three_ses-02_part-03_label-phase3,3.2.4,MacIntel,60
1,left,1.256999969,,,0,,,0,,,1,0,200,186,1,199,0,1,0,2,stim/objects/Instruments/doublebass2.png,,0,stim/0.png,0,0,41,2020-12-09_01h07.51.110,premup-three_ses-02_part-03_label-phase3,3.2.4,MacIntel,60
1,right,1.227999926,,,0,,,0,,,1,0,200,141,1,199,0,1,0,2,stim/objects/Instruments/pipepiano.png,,0,stim/0.png,0,0,41,2020-12-09_01h07.51.110,premup-three_ses-02_part-03_label-phase3,3.2.4,MacIntel,60
1,right,3.087000132,2,1.029000044,0,2,0.821000099,0,3,0.870000124,1,0,200,30,1,199,2,2,0.7,1,stim/objects/HouseObjects/thermometer3.png,stim/52.jpeg,5,stim/5.png,2,2,41,2020-12-09_01h07.51.110,premup-three_ses-02_part-03_label-phase3,3.2.4,MacIntel,60
1,left,1.213999987,,,0,,,0,,,1,0,200,109,1,199,0,1,0,2,stim/objects/Instruments/cornet.png,,0,stim/0.png,0,0,41,2020-12-09_01h07.51.110,premup-three_ses-02_part-03_label-phase3,3.2.4,MacIntel,60
1,right,0.725000143,,,0,,,0,,,1,0,200,176,1,199,0,2,0,2,stim/objects/HouseObjects/ballofstring2.png,,0,stim/0.png,0,0,41,2020-12-09_01h07.51.110,premup-three_ses-02_part-03_label-phase3,3.2.4,MacIntel,60
1,left,0.757000208,4,0.878000021,0,1,1.024999857,0,3,1.32400012,1,0,200,25,1,199,2,1,0.3,1,stim/objects/Instruments/accordion4.png,stim/52.jpeg,5,stim/5.png,2,1,41,2020-12-09_01h07.51.110,premup-three_ses-02_part-03_label-phase3,3.2.4,MacIntel,60
1,right,0.933000088,,,0,,,0,,,1,0,200,150,1,199,0,2,0,2,stim/objects/HouseObjects/recyclingbin.png,,0,stim/0.png,0,0,41,2020-12-09_01h07.51.110,premup-three_ses-02_part-03_label-phase3,3.2.4,MacIntel,60
1,left,1.499000072,,,0,,,0,,,1,0,200,160,1,199,0,1,0,2,stim/objects/Instruments/trumpet.png,,0,stim/0.png,0,0,41,2020-12-09_01h07.51.110,premup-three_ses-02_part-03_label-phase3,3.2.4,MacIntel,60
1,right,0.761999846,,,0,,,0,,,1,0,200,164,1,199,0,1,0,2,stim/objects/Instruments/xylophone.png,,0,stim/0.png,0,0,41,2020-12-09_01h07.51.110,premup-three_ses-02_part-03_label-phase3,3.2.4,MacIntel,60
1,left,0.743999958,4,0.764999866,0,4,3.672999859,0,3,2.305999994,1,0,200,29,1,199,2,1,0.3,1,stim/objects/Instruments/bassdrum4.png,stim/52.jpeg,5,stim/5.png,2,2,41,2020-12-09_01h07.51.110,premup-three_ses-02_part-03_label-phase3,3.2.4,MacIntel,60
1,right,19.21300006,3,1.355999947,0,1,0.631000042,0,1,0.371999979,1,0,200,55,1,199,2,2,0.3,1,stim/objects/HouseObjects/clothesdryingrack4.png,stim/63.jpeg,6,stim/6.png,3,3,41,2020-12-09_01h07.51.110,premup-three_ses-02_part-03_label-phase3,3.2.4,MacIntel,60
1,right,0.982000113,4,1.15199995,0,1,0.639000177,0,2,0.615999937,1,0,200,24,1,199,2,1,0.3,1,stim/objects/Instruments/xylophone3.png,stim/51.jpeg,5,stim/5.png,1,1,41,2020-12-09_01h07.51.110,premup-three_ses-02_part-03_label-phase3,3.2.4,MacIntel,60
1,left,0.981000185,4,0.565000057,0,3,0.920000076,0,3,1.358999968,1,0,200,27,1,199,2,1,0.3,1,stim/objects/Instruments/balalaika4.png,stim/54.jpeg,5,stim/5.png,4,4,41,2020-12-09_01h07.51.110,premup-three_ses-02_part-03_label-phase3,3.2.4,MacIntel,60
1,right,0.868000031,4,1.312000036,0,1,1.24000001,0,1,0.236000061,1,0,200,47,1,199,2,1,0.7,1,stim/objects/Instruments/keyboard4.png,stim/63.jpeg,6,stim/6.png,3,2,41,2020-12-09_01h07.51.110,premup-three_ses-02_part-03_label-phase3,3.2.4,MacIntel,60
1,right,1.338000059,3,0.912000179,0,3,0.423000097,0,3,0.654000044,1,0,200,77,1,199,3,2,0.9,1,stim/objects/HouseObjects/rubbergloves4.png,stim/12.jpeg,1,stim/1.png,2,2,41,2020-12-09_01h07.51.110,premup-three_ses-02_part-03_label-phase3,3.2.4,MacIntel,60
1,left,4.296000004,4,0.692000151,0,1,0.72300005,0,1,0.838000059,1,0,200,52,1,199,2,2,0.3,1,stim/objects/HouseObjects/broom4.png,stim/64.jpeg,6,stim/6.png,4,4,41,2020-12-09_01h07.51.110,premup-three_ses-02_part-03_label-phase3,3.2.4,MacIntel,60
1,left,1.153000116,,,0,,,0,,,1,0,200,102,1,199,0,1,0,2,stim/objects/Instruments/balalaika.png,,0,stim/0.png,0,0,41,2020-12-09_01h07.51.110,premup-three_ses-02_part-03_label-phase3,3.2.4,MacIntel,60
1,right,1.134000063,2,1.947000027,0,3,0.614000082,0,3,1.103000164,1,0,200,82,1,199,3,1,0.9,1,stim/objects/Instruments/timbal4.png,stim/23.jpeg,2,stim/2.png,3,1,41,2020-12-09_01h07.51.110,premup-three_ses-02_part-03_label-phase3,3.2.4,MacIntel,60
1,left,1.126999855,4,0.934999943,0,2,0.767999887,0,3,1.038000107,1,0,200,12,1,199,1,2,0.5,1,stim/objects/Instruments/timbal3.png,stim/43.jpeg,4,stim/4.png,3,1,41,2020-12-09_01h07.51.110,premup-three_ses-02_part-03_label-phase3,3.2.4,MacIntel,60
1,left,3.262000084,,,0,,,0,,,1,0,200,194,1,199,0,2,0,2,stim/objects/HouseObjects/clock2.png,,0,stim/0.png,0,0,41,2020-12-09_01h07.51.110,premup-three_ses-02_part-03_label-phase3,3.2.4,MacIntel,60
1,right,0.819999933,,,0,,,0,,,1,0,200,188,1,199,0,1,0,2,stim/objects/Instruments/laud2.png,,0,stim/0.png,0,0,41,2020-12-09_01h07.51.110,premup-three_ses-02_part-03_label-phase3,3.2.4,MacIntel,60
1,right,1.099999905,,,0,,,0,,,1,0,200,174,1,199,0,2,0,2,stim/objects/HouseObjects/wateringcan.png,,0,stim/0.png,0,0,41,2020-12-09_01h07.51.110,premup-three_ses-02_part-03_label-phase3,3.2.4,MacIntel,60
1,right,1.402000189,,,0,,,0,,,1,0,200,124,1,199,0,1,0,2,stim/objects/Instruments/maraca.png,,0,stim/0.png,0,0,41,2020-12-09_01h07.51.110,premup-three_ses-02_part-03_label-phase3,3.2.4,MacIntel,60
1,right,0.934999943,4,1.450000048,0,3,0.713000059,0,4,1.302999973,1,0,200,57,1,199,2,2,0.3,1,stim/objects/HouseObjects/iron4.png,stim/61.jpeg,6,stim/6.png,1,1,41,2020-12-09_01h07.51.110,premup-three_ses-02_part-03_label-phase3,3.2.4,MacIntel,60
1,left,1.398000002,4,0.382999897,0,1,0.888000011,0,3,1.601999998,1,0,200,75,1,199,3,2,0.9,1,stim/objects/HouseObjects/recyclingbin4.png,stim/14.jpeg,1,stim/1.png,4,3,41,2020-12-09_01h07.51.110,premup-three_ses-02_part-03_label-phase3,3.2.4,MacIntel,60
1,right,1.725000143,,,0,,,0,,,1,0,200,108,1,199,0,1,0,2,stim/objects/Instruments/clarinet.png,,0,stim/0.png,0,0,41,2020-12-09_01h07.51.110,premup-three_ses-02_part-03_label-phase3,3.2.4,MacIntel,60
1,left,1.095000029,,,0,,,0,,,1,0,200,171,1,199,0,2,0,2,stim/objects/HouseObjects/thread.png,,0,stim/0.png,0,0,41,2020-12-09_01h07.51.110,premup-three_ses-02_part-03_label-phase3,3.2.4,MacIntel,60
1,right,0.621999979,,,0,,,0,,,1,0,200,112,1,199,0,2,0,2,stim/objects/HouseObjects/barbecuelighter.png,,0,stim/0.png,0,0,41,2020-12-09_01h07.51.110,premup-three_ses-02_part-03_label-phase3,3.2.4,MacIntel,60
1,right,1.083000183,,,0,,,0,,,1,0,200,172,1,199,0,2,0,2,stim/objects/HouseObjects/towel.png,,0,stim/0.png,0,0,41,2020-12-09_01h07.51.110,premup-three_ses-02_part-03_label-phase3,3.2.4,MacIntel,60
1,right,1.130999804,4,0.710000038,0,4,0.536000013,0,4,0.353000164,1,0,200,16,1,199,1,2,0.5,1,stim/objects/HouseObjects/scale3.png,stim/41.jpeg,4,stim/4.png,1,1,41,2020-12-09_01h07.51.110,premup-three_ses-02_part-03_label-phase3,3.2.4,MacIntel,60
1,right,0.885999918,,,0,,,0,,,1,0,200,147,1,199,0,1,0,2,stim/objects/Instruments/timbal.png,,0,stim/0.png,0,0,41,2020-12-09_01h07.51.110,premup-three_ses-02_part-03_label-phase3,3.2.4,MacIntel,60
1,left,1.084000111,,,0,,,0,,,1,0,200,148,1,199,0,1,0,2,stim/objects/Instruments/triangle.png,,0,stim/0.png,0,0,41,2020-12-09_01h07.51.110,premup-three_ses-02_part-03_label-phase3,3.2.4,MacIntel,60
1,left,0.80099988,4,0.667000055,0,2,1.177000046,0,2,1.486999989,1,0,200,87,1,199,3,1,0.9,1,stim/objects/Instruments/violin4.png,stim/24.jpeg,2,stim/2.png,4,3,41,2020-12-09_01h07.51.110,premup-three_ses-02_part-03_label-phase3,3.2.4,MacIntel,60
1,right,2.140000105,,,0,,,0,,,1,0,200,122,1,199,0,1,0,2,stim/objects/Instruments/keyboard.png,,0,stim/0.png,0,0,41,2020-12-09_01h07.51.110,premup-three_ses-02_part-03_label-phase3,3.2.4,MacIntel,60
1,left,1.445999861,,,0,,,0,,,1,0,200,183,1,199,0,1,0,2,stim/objects/Instruments/clarinet2.png,,0,stim/0.png,0,0,41,2020-12-09_01h07.51.110,premup-three_ses-02_part-03_label-phase3,3.2.4,MacIntel,60
1,left,1.398000002,,,0,,,0,,,1,0,200,133,1,199,0,2,0,2,stim/objects/HouseObjects/ironingboard.png,,0,stim/0.png,0,0,41,2020-12-09_01h07.51.110,premup-three_ses-02_part-03_label-phase3,3.2.4,MacIntel,60
1,left,0.732000113,4,0.615999937,0,1,1.110000134,0,2,1.661000013,1,0,200,46,1,199,2,1,0.7,1,stim/objects/Instruments/doublebass4.png,stim/62.jpeg,6,stim/6.png,2,3,41,2020-12-09_01h07.51.110,premup-three_ses-02_part-03_label-phase3,3.2.4,MacIntel,60
1,right,1.746000051,,,0,,,0,,,1,0,200,163,1,199,0,1,0,2,stim/objects/Instruments/vuvuzela.png,,0,stim/0.png,0,0,41,2020-12-09_01h07.51.110,premup-three_ses-02_part-03_label-phase3,3.2.4,MacIntel,60
1,right,0.832999945,,,0,,,0,,,1,0,200,119,1,199,0,2,0,2,stim/objects/HouseObjects/clock.png,,0,stim/0.png,0,0,41,2020-12-09_01h07.51.110,premup-three_ses-02_part-03_label-phase3,3.2.4,MacIntel,60
1,left,0.927999973,,,0,,,0,,,1,0,200,169,1,199,0,1,0,2,stim/objects/Instruments/bassdrum2.png,,0,stim/0.png,0,0,41,2020-12-09_01h07.51.110,premup-three_ses-02_part-03_label-phase3,3.2.4,MacIntel,60
1,right,0.845999956,3,1.063999891,0,2,0.59800005,0,2,0.815000057,1,0,200,22,1,199,2,1,0.3,1,stim/objects/Instruments/violin3.png,stim/53.jpeg,5,stim/5.png,3,2,41,2020-12-09_01h07.51.110,premup-three_ses-02_part-03_label-phase3,3.2.4,MacIntel,60
1,left,3.414000034,,,0,,,0,,,1,0,200,175,1,199,0,2,0,2,stim/objects/HouseObjects/ashtray2.png,,0,stim/0.png,0,0,41,2020-12-09_01h07.51.110,premup-three_ses-02_part-03_label-phase3,3.2.4,MacIntel,60
1,right,1.013000011,2,1.088999987,0,3,0.621000051,0,2,0.682999849,1,0,200,20,1,199,2,1,0.3,1,stim/objects/Instruments/trumpet3.png,stim/51.jpeg,5,stim/5.png,1,2,41,2020-12-09_01h07.51.110,premup-three_ses-02_part-03_label-phase3,3.2.4,MacIntel,60
1,left,0.919999838,,,0,,,0,,,1,0,200,193,1,199,0,2,0,2,stim/objects/HouseObjects/bucket2.png,,0,stim/0.png,0,0,41,2020-12-09_01h07.51.110,premup-three_ses-02_part-03_label-phase3,3.2.4,MacIntel,60
1,right,1.007000208,,,0,,,0,,,1,0,200,156,1,199,0,2,0,2,stim/objects/HouseObjects/scale.png,,0,stim/0.png,0,0,41,2020-12-09_01h07.51.110,premup-three_ses-02_part-03_label-phase3,3.2.4,MacIntel,60
1,left,0.896000147,,,0,,,0,,,1,0,200,190,1,199,0,2,0,2,stim/objects/HouseObjects/blender2.png,,0,stim/0.png,0,0,41,2020-12-09_01h07.51.110,premup-three_ses-02_part-03_label-phase3,3.2.4,MacIntel,60
1,left,1.354000092,3,0.826000214,0,2,1.052999973,0,3,1.180999994,1,0,200,42,1,199,2,1,0.7,1,stim/objects/Instruments/chime4.png,stim/62.jpeg,6,stim/6.png,2,4,41,2020-12-09_01h07.51.110,premup-three_ses-02_part-03_label-phase3,3.2.4,MacIntel,60
1,left,0.973999977,3,0.91899991,0,2,0.714999914,0,3,0.705000162,1,0,200,89,1,199,3,1,0.9,1,stim/objects/Instruments/xylophone4.png,stim/22.jpeg,2,stim/2.png,2,4,41,2020-12-09_01h07.51.110,premup-three_ses-02_part-03_label-phase3,3.2.4,MacIntel,60
1,right,1.998000145,1,1.66899991,0,2,0.858999968,0,1,0.4150002,1,0,200,85,1,199,3,1,0.9,1,stim/objects/Instruments/trumpet4.png,stim/22.jpeg,2,stim/2.png,2,4,41,2020-12-09_01h07.51.110,premup-three_ses-02_part-03_label-phase3,3.2.4,MacIntel,60
1,left,1.118000031,1,1.133000135,0,2,0.763999939,0,1,0.832000017,1,0,200,48,1,199,2,1,0.7,1,stim/objects/Instruments/laud4.png,stim/64.jpeg,6,stim/6.png,4,2,41,2020-12-09_01h07.51.110,premup-three_ses-02_part-03_label-phase3,3.2.4,MacIntel,60
1,right,3.440999985,3,1.149000168,0,3,0.832999945,0,2,1.108999968,1,0,200,67,1,199,3,1,0.1,1,stim/objects/Instruments/record4.png,stim/14.jpeg,1,stim/1.png,4,3,41,2020-12-09_01h07.51.110,premup-three_ses-02_part-03_label-phase3,3.2.4,MacIntel,60
1,left,1.035000086,,,0,,,0,,,1,0,200,180,1,199,0,1,0,2,stim/objects/Instruments/bassguitar2.png,,0,stim/0.png,0,0,41,2020-12-09_01h07.51.110,premup-three_ses-02_part-03_label-phase3,3.2.4,MacIntel,60
1,left,1.116000175,4,0.58100009,0,1,1.003999949,0,3,1.070999861,1,0,200,71,1,199,3,2,0.9,1,stim/objects/HouseObjects/lintroller4.png,stim/14.jpeg,1,stim/1.png,4,4,41,2020-12-09_01h07.51.110,premup-three_ses-02_part-03_label-phase3,3.2.4,MacIntel,60
1,right,1.031999826,,,0,,,0,,,1,0,200,152,1,199,0,2,0,2,stim/objects/HouseObjects/rubbergloves.png,,0,stim/0.png,0,0,41,2020-12-09_01h07.51.110,premup-three_ses-02_part-03_label-phase3,3.2.4,MacIntel,60
1,left,0.773999929,,,0,,,0,,,1,0,200,117,1,199,0,2,0,2,stim/objects/HouseObjects/broom.png,,0,stim/0.png,0,0,41,2020-12-09_01h07.51.110,premup-three_ses-02_part-03_label-phase3,3.2.4,MacIntel,60
1,left,0.970999956,,,0,,,0,,,1,0,200,126,1,199,0,1,0,2,stim/objects/Instruments/metronome.png,,0,stim/0.png,0,0,41,2020-12-09_01h07.51.110,premup-three_ses-02_part-03_label-phase3,3.2.4,MacIntel,60
1,left,0.917999983,4,1.269000053,0,4,1.601999998,0,1,0.861999989,1,0,200,45,1,199,2,1,0.7,1,stim/objects/Instruments/cymbal4.png,stim/61.jpeg,6,stim/6.png,1,1,41,2020-12-09_01h07.51.110,premup-three_ses-02_part-03_label-phase3,3.2.4,MacIntel,60
1,right,5.134000063,3,1.059000015,0,1,1.902000189,0,1,0.888000011,1,0,200,44,1,199,2,1,0.7,1,stim/objects/Instruments/cornet4.png,stim/64.jpeg,6,stim/6.png,4,1,41,2020-12-09_01h07.51.110,premup-three_ses-02_part-03_label-phase3,3.2.4,MacIntel,60
