key_resp_pract.keys,key_resp_pract.rt,trial_acc,trial_index,practice_loop.thisRepN,practice_loop.thisTrialN,practice_loop.thisN,practice_loop.thisIndex,practice_loop.ran,practice_loop.order,scn_condition,scn_cat,scn_inst,scn_file,obj_cat,obj_cat_num,obj_file,trial_cond,quadrant,obj_x,obj_y,corr_ans,participant,date,expName,psychopyVersion,OS,frameRate,key_resp_trial.keys,key_resp_trial.rt,iterations.thisRepN,iterations.thisTrialN,iterations.thisN,iterations.thisIndex,iterations.ran,iterations.order,task_innerloop.thisRepN,task_innerloop.thisTrialN,task_innerloop.thisN,task_innerloop.thisIndex,task_innerloop.ran,task_innerloop.order,iteration_index,rating_acc,slider.response,slider.rt,slider_2.response,slider_2.rt,ratings.thisRepN,ratings.thisTrialN,ratings.thisN,ratings.thisIndex,ratings.ran,ratings.order,obj_cat_top,min_resp_top,max_resp_top,obj_cat_bottom,min_resp_bottom,max_resp_bottom
,,0,1,1,0,240,14,1,239,1,3,3,stim/33.jpeg,Instruments,1,stim/objects/Instruments/electricguitar.png,0.5,4,0.2,-0.15,left,41,2020-12-07_01h12.40.563,premup-three_ses-01_part-01_label-phase1,3.2.4,MacIntel,60,,,,,,,,,,,,,,,,,,,,,,,,,,,,,,,,
left,0.914999962,0,2,1,0,240,189,1,239,3,1,2,stim/12.jpeg,HouseObjects,2,stim/objects/HouseObjects/flyswatter2.png,0.9,4,0.2,-0.15,right,41,2020-12-07_01h12.40.563,premup-three_ses-01_part-01_label-phase1,3.2.4,MacIntel,60,,,,,,,,,,,,,,,,,,,,,,,,,,,,,,,,
right,0.912999868,0,3,1,0,240,216,1,239,3,2,1,stim/21.jpeg,Instruments,1,stim/objects/Instruments/guitarcase2.png,0.9,1,-0.2,0.15,left,41,2020-12-07_01h12.40.563,premup-three_ses-01_part-01_label-phase1,3.2.4,MacIntel,60,,,,,,,,,,,,,,,,,,,,,,,,,,,,,,,,
right,0.786000013,1,4,1,0,240,148,1,239,2,6,1,stim/61.jpeg,HouseObjects,2,stim/objects/HouseObjects/coffee2.png,0.3,3,-0.2,-0.15,right,41,2020-12-07_01h12.40.563,premup-three_ses-01_part-01_label-phase1,3.2.4,MacIntel,60,,,,,,,,,,,,,,,,,,,,,,,,,,,,,,,,
left,0.967000008,0,5,1,0,240,172,1,239,3,1,1,stim/11.jpeg,HouseObjects,2,stim/objects/HouseObjects/dustpan2.png,0.9,2,0.2,0.15,right,41,2020-12-07_01h12.40.563,premup-three_ses-01_part-01_label-phase1,3.2.4,MacIntel,60,,,,,,,,,,,,,,,,,,,,,,,,,,,,,,,,
right,0.701999903,1,6,1,0,240,166,1,239,3,1,3,stim/13.jpeg,HouseObjects,2,stim/objects/HouseObjects/garbagebin2.png,0.9,1,-0.2,0.15,right,41,2020-12-07_01h12.40.563,premup-three_ses-01_part-01_label-phase1,3.2.4,MacIntel,60,,,,,,,,,,,,,,,,,,,,,,,,,,,,,,,,
right,0.674999952,0,7,1,0,240,81,1,239,2,5,2,stim/52.jpeg,Instruments,1,stim/objects/Instruments/harmonica.png,0.3,1,-0.2,0.15,left,41,2020-12-07_01h12.40.563,premup-three_ses-01_part-01_label-phase1,3.2.4,MacIntel,60,,,,,,,,,,,,,,,,,,,,,,,,,,,,,,,,
right,0.904000044,0,8,1,0,240,127,1,239,2,6,4,stim/64.jpeg,Instruments,1,stim/objects/Instruments/flute2.png,0.7,4,0.2,-0.15,left,41,2020-12-07_01h12.40.563,premup-three_ses-01_part-01_label-phase1,3.2.4,MacIntel,60,,,,,,,,,,,,,,,,,,,,,,,,,,,,,,,,
right,0.988999844,1,9,1,0,240,21,1,239,1,3,2,stim/32.jpeg,HouseObjects,2,stim/objects/HouseObjects/cushion.png,0.5,1,-0.2,0.15,right,41,2020-12-07_01h12.40.563,premup-three_ses-01_part-01_label-phase1,3.2.4,MacIntel,60,,,,,,,,,,,,,,,,,,,,,,,,,,,,,,,,
left,0.915999889,1,10,1,0,240,17,1,239,1,3,2,stim/32.jpeg,Instruments,1,stim/objects/Instruments/electricdrumset.png,0.5,2,0.2,0.15,left,41,2020-12-07_01h12.40.563,premup-three_ses-01_part-01_label-phase1,3.2.4,MacIntel,60,,,,,,,,,,,,,,,,,,,,,,,,,,,,,,,,
,,0,1,,,,,,,1,3,1,stim/31.jpeg,Instruments,1,stim/objects/Instruments/drums.png,0.5,1,-0.2,0.15,left,41,2020-12-07_01h12.40.563,premup-three_ses-01_part-01_label-phase1,3.2.4,MacIntel,60,right,0.786000013,4,0,4,0,1,3,1,0,240,4,1,239,,,,,,,,,,,,,,,,,,
,,1,2,,,,,,,1,4,3,stim/43.jpeg,Instruments,1,stim/objects/Instruments/gong.png,0.5,1,-0.2,0.15,left,41,2020-12-07_01h12.40.563,premup-three_ses-01_part-01_label-phase1,3.2.4,MacIntel,60,left,0.879999876,4,0,4,0,1,3,1,0,240,50,1,239,,,,,,,,,,,,,,,,,,
,,0,3,,,,,,,2,5,3,stim/53.jpeg,HouseObjects,2,stim/objects/HouseObjects/handbrush.png,0.7,3,-0.2,-0.15,right,41,2020-12-07_01h12.40.563,premup-three_ses-01_part-01_label-phase1,3.2.4,MacIntel,60,left,1.090999842,4,0,4,0,1,3,1,0,240,114,1,239,,,,,,,,,,,,,,,,,,
,,0,4,,,,,,,2,6,4,stim/64.jpeg,HouseObjects,2,stim/objects/HouseObjects/doormat2.png,0.3,1,-0.2,0.15,right,41,2020-12-07_01h12.40.563,premup-three_ses-01_part-01_label-phase1,3.2.4,MacIntel,60,left,0.631999731,4,0,4,0,1,3,1,0,240,155,1,239,,,,,,,,,,,,,,,,,,
,,0,5,,,,,,,3,2,4,stim/24.jpeg,Instruments,1,stim/objects/Instruments/hihat2.png,0.9,3,-0.2,-0.15,left,41,2020-12-07_01h12.40.563,premup-three_ses-01_part-01_label-phase1,3.2.4,MacIntel,60,right,1.06099987,4,0,4,0,1,3,1,0,240,235,1,239,,,,,,,,,,,,,,,,,,
,,1,6,,,,,,,1,4,4,stim/44.jpeg,Instruments,1,stim/objects/Instruments/grandpiano.png,0.5,2,0.2,0.15,left,41,2020-12-07_01h12.40.563,premup-three_ses-01_part-01_label-phase1,3.2.4,MacIntel,60,left,1.17599988,4,0,4,0,1,3,1,0,240,55,1,239,,,,,,,,,,,,,,,,,,
,,0,7,,,,,,,2,5,3,stim/53.jpeg,Instruments,1,stim/objects/Instruments/harp.png,0.3,4,0.2,-0.15,left,41,2020-12-07_01h12.40.563,premup-three_ses-01_part-01_label-phase1,3.2.4,MacIntel,60,right,1.186000109,4,0,4,0,1,3,1,0,240,86,1,239,,,,,,,,,,,,,,,,,,
,,1,8,,,,,,,2,6,3,stim/63.jpeg,Instruments,1,stim/objects/Instruments/electricguitar2.png,0.7,4,0.2,-0.15,left,41,2020-12-07_01h12.40.563,premup-three_ses-01_part-01_label-phase1,3.2.4,MacIntel,60,left,1.07400012,4,0,4,0,1,3,1,0,240,146,1,239,,,,,,,,,,,,,,,,,,
,,1,9,,,,,,,3,2,2,stim/22.jpeg,Instruments,1,stim/objects/Instruments/harmonica2.png,0.9,2,0.2,0.15,left,41,2020-12-07_01h12.40.563,premup-three_ses-01_part-01_label-phase1,3.2.4,MacIntel,60,left,0.990999937,4,0,4,0,1,3,1,0,240,221,1,239,,,,,,,,,,,,,,,,,,
,,0,10,,,,,,,2,6,3,stim/63.jpeg,HouseObjects,2,stim/objects/HouseObjects/dishsoap2.png,0.3,4,0.2,-0.15,right,41,2020-12-07_01h12.40.563,premup-three_ses-01_part-01_label-phase1,3.2.4,MacIntel,60,left,0.901000023,4,0,4,0,1,3,1,0,240,158,1,239,,,,,,,,,,,,,,,,,,
,,0,11,,,,,,,1,3,4,stim/34.jpeg,HouseObjects,2,stim/objects/HouseObjects/doormat.png,0.5,3,-0.2,-0.15,right,41,2020-12-07_01h12.40.563,premup-three_ses-01_part-01_label-phase1,3.2.4,MacIntel,60,left,1.037999868,4,0,4,0,1,3,1,0,240,39,1,239,,,,,,,,,,,,,,,,,,
,,0,12,,,,,,,3,2,1,stim/21.jpeg,Instruments,1,stim/objects/Instruments/guitarcase2.png,0.9,1,-0.2,0.15,left,41,2020-12-07_01h12.40.563,premup-three_ses-01_part-01_label-phase1,3.2.4,MacIntel,60,right,1.063999891,4,0,4,0,1,3,1,0,240,208,1,239,,,,,,,,,,,,,,,,,,
,,1,13,,,,,,,1,4,4,stim/44.jpeg,Instruments,1,stim/objects/Instruments/grandpiano.png,0.5,3,-0.2,-0.15,left,41,2020-12-07_01h12.40.563,premup-three_ses-01_part-01_label-phase1,3.2.4,MacIntel,60,left,0.862999916,4,0,4,0,1,3,1,0,240,51,1,239,,,,,,,,,,,,,,,,,,
,,0,14,,,,,,,1,4,3,stim/43.jpeg,Instruments,1,stim/objects/Instruments/gong.png,0.5,4,0.2,-0.15,left,41,2020-12-07_01h12.40.563,premup-three_ses-01_part-01_label-phase1,3.2.4,MacIntel,60,right,0.898999929,4,0,4,0,1,3,1,0,240,42,1,239,,,,,,,,,,,,,,,,,,
,,1,15,,,,,,,2,6,3,stim/63.jpeg,Instruments,1,stim/objects/Instruments/electricguitar2.png,0.7,2,0.2,0.15,left,41,2020-12-07_01h12.40.563,premup-three_ses-01_part-01_label-phase1,3.2.4,MacIntel,60,left,1.069000006,4,0,4,0,1,3,1,0,240,130,1,239,,,,,,,,,,,,,,,,,,
,,0,16,,,,,,,2,5,4,stim/54.jpeg,Instruments,1,stim/objects/Instruments/hihat.png,0.3,2,0.2,0.15,left,41,2020-12-07_01h12.40.563,premup-three_ses-01_part-01_label-phase1,3.2.4,MacIntel,60,right,1.035999775,4,0,4,0,1,3,1,0,240,87,1,239,,,,,,,,,,,,,,,,,,
,,0,17,,,,,,,3,2,3,stim/23.jpeg,Instruments,1,stim/objects/Instruments/harp2.png,0.9,1,-0.2,0.15,left,41,2020-12-07_01h12.40.563,premup-three_ses-01_part-01_label-phase1,3.2.4,MacIntel,60,right,1.263999939,4,0,4,0,1,3,1,0,240,234,1,239,,,,,,,,,,,,,,,,,,
,,1,18,,,,,,,3,2,2,stim/22.jpeg,Instruments,1,stim/objects/Instruments/harmonica2.png,0.9,3,-0.2,-0.15,left,41,2020-12-07_01h12.40.563,premup-three_ses-01_part-01_label-phase1,3.2.4,MacIntel,60,left,0.826999903,4,0,4,0,1,3,1,0,240,217,1,239,,,,,,,,,,,,,,,,,,
,,1,19,,,,,,,2,5,1,stim/51.jpeg,HouseObjects,2,stim/objects/HouseObjects/glassmop.png,0.7,4,0.2,-0.15,right,41,2020-12-07_01h12.40.563,premup-three_ses-01_part-01_label-phase1,3.2.4,MacIntel,60,right,0.972999811,4,0,4,0,1,3,1,0,240,100,1,239,,,,,,,,,,,,,,,,,,
,,0,20,,,,,,,3,2,4,stim/24.jpeg,Instruments,1,stim/objects/Instruments/hihat2.png,0.9,1,-0.2,0.15,left,41,2020-12-07_01h12.40.563,premup-three_ses-01_part-01_label-phase1,3.2.4,MacIntel,60,right,1.065999985,4,0,4,0,1,3,1,0,240,219,1,239,,,,,,,,,,,,,,,,,,
,,1,21,,,,,,,2,6,4,stim/64.jpeg,Instruments,1,stim/objects/Instruments/flute2.png,0.7,4,0.2,-0.15,left,41,2020-12-07_01h12.40.563,premup-three_ses-01_part-01_label-phase1,3.2.4,MacIntel,60,left,0.960999966,4,0,4,0,1,3,1,0,240,147,1,239,,,,,,,,,,,,,,,,,,
,,0,22,,,,,,,3,1,1,stim/11.jpeg,HouseObjects,2,stim/objects/HouseObjects/dustpan2.png,0.9,2,0.2,0.15,right,41,2020-12-07_01h12.40.563,premup-three_ses-01_part-01_label-phase1,3.2.4,MacIntel,60,left,1.105000019,4,0,4,0,1,3,1,0,240,196,1,239,,,,,,,,,,,,,,,,,,
,,1,23,,,,,,,1,3,1,stim/31.jpeg,HouseObjects,2,stim/objects/HouseObjects/coffee.png,0.5,1,-0.2,0.15,right,41,2020-12-07_01h12.40.563,premup-three_ses-01_part-01_label-phase1,3.2.4,MacIntel,60,right,1.221999884,4,0,4,0,1,3,1,0,240,20,1,239,,,,,,,,,,,,,,,,,,
,,1,24,,,,,,,1,4,1,stim/41.jpeg,HouseObjects,2,stim/objects/HouseObjects/dustpan.png,0.5,1,-0.2,0.15,right,41,2020-12-07_01h12.40.563,premup-three_ses-01_part-01_label-phase1,3.2.4,MacIntel,60,right,1.117000103,4,0,4,0,1,3,1,0,240,72,1,239,,,,,,,,,,,,,,,,,,
,,1,25,,,,,,,3,2,2,stim/22.jpeg,HouseObjects,2,stim/objects/HouseObjects/hairdryer2.png,0.1,2,0.2,0.15,right,41,2020-12-07_01h12.40.563,premup-three_ses-01_part-01_label-phase1,3.2.4,MacIntel,60,right,1.414999962,4,0,4,0,1,3,1,0,240,237,1,239,,,,,,,,,,,,,,,,,,
,,1,26,,,,,,,2,6,3,stim/63.jpeg,HouseObjects,2,stim/objects/HouseObjects/dishsoap2.png,0.3,2,0.2,0.15,right,41,2020-12-07_01h12.40.563,premup-three_ses-01_part-01_label-phase1,3.2.4,MacIntel,60,right,1.003000021,4,0,4,0,1,3,1,0,240,154,1,239,,,,,,,,,,,,,,,,,,
,,1,27,,,,,,,2,6,1,stim/61.jpeg,Instruments,1,stim/objects/Instruments/drums2.png,0.7,2,0.2,0.15,left,41,2020-12-07_01h12.40.563,premup-three_ses-01_part-01_label-phase1,3.2.4,MacIntel,60,left,0.933999777,4,0,4,0,1,3,1,0,240,124,1,239,,,,,,,,,,,,,,,,,,
,,1,28,,,,,,,1,4,1,stim/41.jpeg,Instruments,1,stim/objects/Instruments/flutetrans.png,0.5,2,0.2,0.15,left,41,2020-12-07_01h12.40.563,premup-three_ses-01_part-01_label-phase1,3.2.4,MacIntel,60,left,1.294999838,4,0,4,0,1,3,1,0,240,40,1,239,,,,,,,,,,,,,,,,,,
,,1,29,,,,,,,1,3,1,stim/31.jpeg,HouseObjects,2,stim/objects/HouseObjects/coffee.png,0.5,1,-0.2,0.15,right,41,2020-12-07_01h12.40.563,premup-three_ses-01_part-01_label-phase1,3.2.4,MacIntel,60,right,1.117999792,4,0,4,0,1,3,1,0,240,32,1,239,,,,,,,,,,,,,,,,,,
,,0,30,,,,,,,2,6,4,stim/64.jpeg,Instruments,1,stim/objects/Instruments/flute2.png,0.7,2,0.2,0.15,left,41,2020-12-07_01h12.40.563,premup-three_ses-01_part-01_label-phase1,3.2.4,MacIntel,60,right,1.201999903,4,0,4,0,1,3,1,0,240,131,1,239,,,,,,,,,,,,,,,,,,
,,0,31,,,,,,,1,4,4,stim/44.jpeg,HouseObjects,2,stim/objects/HouseObjects/glass.png,0.5,2,0.2,0.15,right,41,2020-12-07_01h12.40.563,premup-three_ses-01_part-01_label-phase1,3.2.4,MacIntel,60,left,0.820999861,4,0,4,0,1,3,1,0,240,67,1,239,,,,,,,,,,,,,,,,,,
,,1,32,,,,,,,1,3,1,stim/31.jpeg,HouseObjects,2,stim/objects/HouseObjects/coffee.png,0.5,4,0.2,-0.15,right,41,2020-12-07_01h12.40.563,premup-three_ses-01_part-01_label-phase1,3.2.4,MacIntel,60,right,1.07799983,4,0,4,0,1,3,1,0,240,28,1,239,,,,,,,,,,,,,,,,,,
,,0,33,,,,,,,1,4,1,stim/41.jpeg,HouseObjects,2,stim/objects/HouseObjects/dustpan.png,0.5,4,0.2,-0.15,right,41,2020-12-07_01h12.40.563,premup-three_ses-01_part-01_label-phase1,3.2.4,MacIntel,60,left,1.092000008,4,0,4,0,1,3,1,0,240,64,1,239,,,,,,,,,,,,,,,,,,
,,0,34,,,,,,,1,3,1,stim/31.jpeg,Instruments,1,stim/objects/Instruments/drums.png,0.5,2,0.2,0.15,left,41,2020-12-07_01h12.40.563,premup-three_ses-01_part-01_label-phase1,3.2.4,MacIntel,60,right,1.006000042,4,0,4,0,1,3,1,0,240,16,1,239,,,,,,,,,,,,,,,,,,
,,1,35,,,,,,,2,6,4,stim/64.jpeg,Instruments,1,stim/objects/Instruments/flute2.png,0.7,2,0.2,0.15,left,41,2020-12-07_01h12.40.563,premup-three_ses-01_part-01_label-phase1,3.2.4,MacIntel,60,left,0.845000029,4,0,4,0,1,3,1,0,240,135,1,239,,,,,,,,,,,,,,,,,,
,,1,36,,,,,,,3,2,1,stim/21.jpeg,Instruments,1,stim/objects/Instruments/guitarcase2.png,0.9,1,-0.2,0.15,left,41,2020-12-07_01h12.40.563,premup-three_ses-01_part-01_label-phase1,3.2.4,MacIntel,60,left,0.960999966,4,0,4,0,1,3,1,0,240,200,1,239,,,,,,,,,,,,,,,,,,
,,0,37,,,,,,,3,1,4,stim/14.jpeg,HouseObjects,2,stim/objects/HouseObjects/glass2.png,0.9,3,-0.2,-0.15,right,41,2020-12-07_01h12.40.563,premup-three_ses-01_part-01_label-phase1,3.2.4,MacIntel,60,left,0.991999865,4,0,4,0,1,3,1,0,240,179,1,239,,,,,,,,,,,,,,,,,,
,,0,38,,,,,,,3,2,4,stim/24.jpeg,Instruments,1,stim/objects/Instruments/hihat2.png,0.9,4,0.2,-0.15,left,41,2020-12-07_01h12.40.563,premup-three_ses-01_part-01_label-phase1,3.2.4,MacIntel,60,right,0.743999958,4,0,4,0,1,3,1,0,240,215,1,239,,,,,,,,,,,,,,,,,,
,,1,39,,,,,,,3,1,2,stim/12.jpeg,HouseObjects,2,stim/objects/HouseObjects/flyswatter2.png,0.9,4,0.2,-0.15,right,41,2020-12-07_01h12.40.563,premup-three_ses-01_part-01_label-phase1,3.2.4,MacIntel,60,right,0.526000023,4,0,4,0,1,3,1,0,240,189,1,239,,,,,,,,,,,,,,,,,,
,,0,40,,,,,,,3,1,4,stim/14.jpeg,HouseObjects,2,stim/objects/HouseObjects/glass2.png,0.9,2,0.2,0.15,right,41,2020-12-07_01h12.40.563,premup-three_ses-01_part-01_label-phase1,3.2.4,MacIntel,60,left,0.632999897,4,0,4,0,1,3,1,0,240,171,1,239,,,,,,,,,,,,,,,,,,
,,1,41,,,,,,,3,1,3,stim/13.jpeg,HouseObjects,2,stim/objects/HouseObjects/garbagebin2.png,0.9,4,0.2,-0.15,right,41,2020-12-07_01h12.40.563,premup-three_ses-01_part-01_label-phase1,3.2.4,MacIntel,60,right,0.868000031,4,0,4,0,1,3,1,0,240,174,1,239,,,,,,,,,,,,,,,,,,
,,0,42,,,,,,,3,2,3,stim/23.jpeg,Instruments,1,stim/objects/Instruments/harp2.png,0.9,4,0.2,-0.15,left,41,2020-12-07_01h12.40.563,premup-three_ses-01_part-01_label-phase1,3.2.4,MacIntel,60,right,1.260999918,4,0,4,0,1,3,1,0,240,230,1,239,,,,,,,,,,,,,,,,,,
,,1,43,,,,,,,3,2,1,stim/21.jpeg,Instruments,1,stim/objects/Instruments/guitarcase2.png,0.9,4,0.2,-0.15,left,41,2020-12-07_01h12.40.563,premup-three_ses-01_part-01_label-phase1,3.2.4,MacIntel,60,left,0.911000013,4,0,4,0,1,3,1,0,240,204,1,239,,,,,,,,,,,,,,,,,,
,,1,44,,,,,,,1,3,3,stim/33.jpeg,HouseObjects,2,stim/objects/HouseObjects/dishsoap.png,0.5,3,-0.2,-0.15,right,41,2020-12-07_01h12.40.563,premup-three_ses-01_part-01_label-phase1,3.2.4,MacIntel,60,right,0.815999985,4,0,4,0,1,3,1,0,240,38,1,239,,,,,,,,,,,,,,,,,,
,,1,45,,,,,,,3,2,2,stim/22.jpeg,Instruments,1,stim/objects/Instruments/harmonica2.png,0.9,4,0.2,-0.15,left,41,2020-12-07_01h12.40.563,premup-three_ses-01_part-01_label-phase1,3.2.4,MacIntel,60,left,0.905999899,4,0,4,0,1,3,1,0,240,233,1,239,,,,,,,,,,,,,,,,,,
,,1,46,,,,,,,3,1,2,stim/12.jpeg,HouseObjects,2,stim/objects/HouseObjects/flyswatter2.png,0.9,4,0.2,-0.15,right,41,2020-12-07_01h12.40.563,premup-three_ses-01_part-01_label-phase1,3.2.4,MacIntel,60,right,1.036000013,4,0,4,0,1,3,1,0,240,181,1,239,,,,,,,,,,,,,,,,,,
,,1,47,,,,,,,1,4,1,stim/41.jpeg,HouseObjects,2,stim/objects/HouseObjects/dustpan.png,0.5,1,-0.2,0.15,right,41,2020-12-07_01h12.40.563,premup-three_ses-01_part-01_label-phase1,3.2.4,MacIntel,60,right,1.224999905,4,0,4,0,1,3,1,0,240,60,1,239,,,,,,,,,,,,,,,,,,
,,1,48,,,,,,,2,6,4,stim/64.jpeg,Instruments,1,stim/objects/Instruments/flute2.png,0.7,3,-0.2,-0.15,left,41,2020-12-07_01h12.40.563,premup-three_ses-01_part-01_label-phase1,3.2.4,MacIntel,60,left,0.836999893,4,0,4,0,1,3,1,0,240,123,1,239,,,,,,,,,,,,,,,,,,
,,1,49,,,,,,,1,4,1,stim/41.jpeg,HouseObjects,2,stim/objects/HouseObjects/dustpan.png,0.5,4,0.2,-0.15,right,41,2020-12-07_01h12.40.563,premup-three_ses-01_part-01_label-phase1,3.2.4,MacIntel,60,right,0.632999897,4,0,4,0,1,3,1,0,240,68,1,239,,,,,,,,,,,,,,,,,,
,,0,50,,,,,,,2,5,2,stim/52.jpeg,Instruments,1,stim/objects/Instruments/harmonica.png,0.3,1,-0.2,0.15,left,41,2020-12-07_01h12.40.563,premup-three_ses-01_part-01_label-phase1,3.2.4,MacIntel,60,right,0.966999769,4,0,4,0,1,3,1,0,240,81,1,239,,,,,,,,,,,,,,,,,,
,,1,51,,,,,,,2,6,4,stim/64.jpeg,HouseObjects,2,stim/objects/HouseObjects/doormat2.png,0.3,2,0.2,0.15,right,41,2020-12-07_01h12.40.563,premup-three_ses-01_part-01_label-phase1,3.2.4,MacIntel,60,right,1.380999804,4,0,4,0,1,3,1,0,240,159,1,239,,,,,,,,,,,,,,,,,,
,,0,52,,,,,,,1,4,1,stim/41.jpeg,Instruments,1,stim/objects/Instruments/flutetrans.png,0.5,2,0.2,0.15,left,41,2020-12-07_01h12.40.563,premup-three_ses-01_part-01_label-phase1,3.2.4,MacIntel,60,right,0.851999998,4,0,4,0,1,3,1,0,240,56,1,239,,,,,,,,,,,,,,,,,,
,,0,53,,,,,,,2,5,2,stim/52.jpeg,HouseObjects,2,stim/objects/HouseObjects/hairdryer.png,0.7,1,-0.2,0.15,right,41,2020-12-07_01h12.40.563,premup-three_ses-01_part-01_label-phase1,3.2.4,MacIntel,60,left,0.900000095,4,0,4,0,1,3,1,0,240,97,1,239,,,,,,,,,,,,,,,,,,
,,1,54,,,,,,,3,2,3,stim/23.jpeg,Instruments,1,stim/objects/Instruments/harp2.png,0.9,3,-0.2,-0.15,left,41,2020-12-07_01h12.40.563,premup-three_ses-01_part-01_label-phase1,3.2.4,MacIntel,60,left,0.617000103,4,0,4,0,1,3,1,0,240,202,1,239,,,,,,,,,,,,,,,,,,
,,1,55,,,,,,,2,5,3,stim/53.jpeg,HouseObjects,2,stim/objects/HouseObjects/handbrush.png,0.7,3,-0.2,-0.15,right,41,2020-12-07_01h12.40.563,premup-three_ses-01_part-01_label-phase1,3.2.4,MacIntel,60,right,1.139999866,4,0,4,0,1,3,1,0,240,118,1,239,,,,,,,,,,,,,,,,,,
,,0,56,,,,,,,1,3,4,stim/34.jpeg,Instruments,1,stim/objects/Instruments/flute.png,0.5,1,-0.2,0.15,left,41,2020-12-07_01h12.40.563,premup-three_ses-01_part-01_label-phase1,3.2.4,MacIntel,60,right,1.267999887,4,0,4,0,1,3,1,0,240,19,1,239,,,,,,,,,,,,,,,,,,
,,1,57,,,,,,,2,6,2,stim/62.jpeg,Instruments,1,stim/objects/Instruments/electricdrumset2.png,0.7,3,-0.2,-0.15,left,41,2020-12-07_01h12.40.563,premup-three_ses-01_part-01_label-phase1,3.2.4,MacIntel,60,left,1.531000137,4,0,4,0,1,3,1,0,240,129,1,239,,,,,,,,,,,,,,,,,,
,,1,58,,,,,,,3,2,4,stim/24.jpeg,Instruments,1,stim/objects/Instruments/hihat2.png,0.9,3,-0.2,-0.15,left,41,2020-12-07_01h12.40.563,premup-three_ses-01_part-01_label-phase1,3.2.4,MacIntel,60,left,0.877000093,4,0,4,0,1,3,1,0,240,211,1,239,,,,,,,,,,,,,,,,,,
,,0,59,,,,,,,3,1,4,stim/14.jpeg,HouseObjects,2,stim/objects/HouseObjects/glass2.png,0.9,1,-0.2,0.15,right,41,2020-12-07_01h12.40.563,premup-three_ses-01_part-01_label-phase1,3.2.4,MacIntel,60,left,1.01699996,4,0,4,0,1,3,1,0,240,183,1,239,,,,,,,,,,,,,,,,,,
,,1,60,,,,,,,3,1,1,stim/11.jpeg,HouseObjects,2,stim/objects/HouseObjects/dustpan2.png,0.9,4,0.2,-0.15,right,41,2020-12-07_01h12.40.563,premup-three_ses-01_part-01_label-phase1,3.2.4,MacIntel,60,right,1.003999949,4,0,4,0,1,3,1,0,240,180,1,239,,,,,,,,,,,,,,,,,,
,,1,61,,,,,,,2,5,3,stim/53.jpeg,Instruments,1,stim/objects/Instruments/harp.png,0.3,1,-0.2,0.15,left,41,2020-12-07_01h12.40.563,premup-three_ses-01_part-01_label-phase1,3.2.4,MacIntel,60,left,1.13499999,4,0,4,0,1,3,1,0,240,82,1,239,,,,,,,,,,,,,,,,,,
,,1,62,,,,,,,3,2,1,stim/21.jpeg,Instruments,1,stim/objects/Instruments/guitarcase2.png,0.9,1,-0.2,0.15,left,41,2020-12-07_01h12.40.563,premup-three_ses-01_part-01_label-phase1,3.2.4,MacIntel,60,left,1.013000011,4,0,4,0,1,3,1,0,240,220,1,239,,,,,,,,,,,,,,,,,,
,,1,63,,,,,,,1,4,4,stim/44.jpeg,Instruments,1,stim/objects/Instruments/grandpiano.png,0.5,4,0.2,-0.15,left,41,2020-12-07_01h12.40.563,premup-three_ses-01_part-01_label-phase1,3.2.4,MacIntel,60,left,1.140999794,4,0,4,0,1,3,1,0,240,59,1,239,,,,,,,,,,,,,,,,,,
,,0,64,,,,,,,1,4,2,stim/42.jpeg,HouseObjects,2,stim/objects/HouseObjects/flyswatter.png,0.5,4,0.2,-0.15,right,41,2020-12-07_01h12.40.563,premup-three_ses-01_part-01_label-phase1,3.2.4,MacIntel,60,left,0.8349998,4,0,4,0,1,3,1,0,240,65,1,239,,,,,,,,,,,,,,,,,,
,,1,65,,,,,,,2,5,2,stim/52.jpeg,Instruments,1,stim/objects/Instruments/harmonica.png,0.3,1,-0.2,0.15,left,41,2020-12-07_01h12.40.563,premup-three_ses-01_part-01_label-phase1,3.2.4,MacIntel,60,left,1.042000055,4,0,4,0,1,3,1,0,240,89,1,239,,,,,,,,,,,,,,,,,,
,,0,66,,,,,,,1,3,1,stim/31.jpeg,HouseObjects,2,stim/objects/HouseObjects/coffee.png,0.5,3,-0.2,-0.15,right,41,2020-12-07_01h12.40.563,premup-three_ses-01_part-01_label-phase1,3.2.4,MacIntel,60,left,1.135999918,4,0,4,0,1,3,1,0,240,36,1,239,,,,,,,,,,,,,,,,,,
,,0,67,,,,,,,1,4,2,stim/42.jpeg,Instruments,1,stim/objects/Instruments/frenchhorn.png,0.5,3,-0.2,-0.15,left,41,2020-12-07_01h12.40.563,premup-three_ses-01_part-01_label-phase1,3.2.4,MacIntel,60,right,1.378000021,4,0,4,0,1,3,1,0,240,45,1,239,,,,,,,,,,,,,,,,,,
,,1,68,,,,,,,2,5,2,stim/52.jpeg,HouseObjects,2,stim/objects/HouseObjects/hairdryer.png,0.7,3,-0.2,-0.15,right,41,2020-12-07_01h12.40.563,premup-three_ses-01_part-01_label-phase1,3.2.4,MacIntel,60,right,1.028999805,4,0,4,0,1,3,1,0,240,93,1,239,,,,,,,,,,,,,,,,,,
,,1,69,,,,,,,2,5,4,stim/54.jpeg,HouseObjects,2,stim/objects/HouseObjects/handvacuum.png,0.7,4,0.2,-0.15,right,41,2020-12-07_01h12.40.563,premup-three_ses-01_part-01_label-phase1,3.2.4,MacIntel,60,right,0.967999935,4,0,4,0,1,3,1,0,240,103,1,239,,,,,,,,,,,,,,,,,,
,,1,70,,,,,,,2,5,1,stim/51.jpeg,HouseObjects,2,stim/objects/HouseObjects/glassmop.png,0.7,2,0.2,0.15,right,41,2020-12-07_01h12.40.563,premup-three_ses-01_part-01_label-phase1,3.2.4,MacIntel,60,right,0.832999945,4,0,4,0,1,3,1,0,240,108,1,239,,,,,,,,,,,,,,,,,,
,,1,71,,,,,,,3,2,1,stim/21.jpeg,Instruments,1,stim/objects/Instruments/guitarcase2.png,0.9,2,0.2,0.15,left,41,2020-12-07_01h12.40.563,premup-three_ses-01_part-01_label-phase1,3.2.4,MacIntel,60,left,0.839999914,4,0,4,0,1,3,1,0,240,228,1,239,,,,,,,,,,,,,,,,,,
,,1,72,,,,,,,2,5,1,stim/51.jpeg,HouseObjects,2,stim/objects/HouseObjects/glassmop.png,0.7,4,0.2,-0.15,right,41,2020-12-07_01h12.40.563,premup-three_ses-01_part-01_label-phase1,3.2.4,MacIntel,60,right,0.981999874,4,0,4,0,1,3,1,0,240,92,1,239,,,,,,,,,,,,,,,,,,
,,1,73,,,,,,,3,2,3,stim/23.jpeg,Instruments,1,stim/objects/Instruments/harp2.png,0.9,3,-0.2,-0.15,left,41,2020-12-07_01h12.40.563,premup-three_ses-01_part-01_label-phase1,3.2.4,MacIntel,60,left,0.996999741,4,0,4,0,1,3,1,0,240,206,1,239,,,,,,,,,,,,,,,,,,
,,0,74,,,,,,,1,3,4,stim/34.jpeg,Instruments,1,stim/objects/Instruments/flute.png,0.5,3,-0.2,-0.15,left,41,2020-12-07_01h12.40.563,premup-three_ses-01_part-01_label-phase1,3.2.4,MacIntel,60,right,1.532000065,4,0,4,0,1,3,1,0,240,7,1,239,,,,,,,,,,,,,,,,,,
,,1,75,,,,,,,2,5,1,stim/51.jpeg,HouseObjects,2,stim/objects/HouseObjects/glassmop.png,0.7,3,-0.2,-0.15,right,41,2020-12-07_01h12.40.563,premup-three_ses-01_part-01_label-phase1,3.2.4,MacIntel,60,right,0.915999889,4,0,4,0,1,3,1,0,240,96,1,239,,,,,,,,,,,,,,,,,,
,,0,76,,,,,,,1,3,4,stim/34.jpeg,HouseObjects,2,stim/objects/HouseObjects/doormat.png,0.5,3,-0.2,-0.15,right,41,2020-12-07_01h12.40.563,premup-three_ses-01_part-01_label-phase1,3.2.4,MacIntel,60,left,0.713999748,4,0,4,0,1,3,1,0,240,35,1,239,,,,,,,,,,,,,,,,,,
,,0,77,,,,,,,1,3,2,stim/32.jpeg,HouseObjects,2,stim/objects/HouseObjects/cushion.png,0.5,3,-0.2,-0.15,right,41,2020-12-07_01h12.40.563,premup-three_ses-01_part-01_label-phase1,3.2.4,MacIntel,60,left,0.532999992,4,0,4,0,1,3,1,0,240,25,1,239,,,,,,,,,,,,,,,,,,
,,1,78,,,,,,,3,1,2,stim/12.jpeg,HouseObjects,2,stim/objects/HouseObjects/flyswatter2.png,0.9,1,-0.2,0.15,right,41,2020-12-07_01h12.40.563,premup-three_ses-01_part-01_label-phase1,3.2.4,MacIntel,60,right,0.930999756,4,0,4,0,1,3,1,0,240,169,1,239,,,,,,,,,,,,,,,,,,
,,0,79,,,,,,,1,4,3,stim/43.jpeg,Instruments,1,stim/objects/Instruments/gong.png,0.5,4,0.2,-0.15,left,41,2020-12-07_01h12.40.563,premup-three_ses-01_part-01_label-phase1,3.2.4,MacIntel,60,right,0.982999802,4,0,4,0,1,3,1,0,240,46,1,239,,,,,,,,,,,,,,,,,,
,,1,80,,,,,,,3,1,3,stim/13.jpeg,HouseObjects,2,stim/objects/HouseObjects/garbagebin2.png,0.9,3,-0.2,-0.15,right,41,2020-12-07_01h12.40.563,premup-three_ses-01_part-01_label-phase1,3.2.4,MacIntel,60,right,1.095999718,4,0,4,0,1,3,1,0,240,170,1,239,,,,,,,,,,,,,,,,,,
,,0,81,,,,,,,1,3,3,stim/33.jpeg,Instruments,1,stim/objects/Instruments/electricguitar.png,0.5,4,0.2,-0.15,left,41,2020-12-07_01h12.40.563,premup-three_ses-01_part-01_label-phase1,3.2.4,MacIntel,60,right,0.882999897,4,0,4,0,1,3,1,0,240,14,1,239,,,,,,,,,,,,,,,,,,
,,0,82,,,,,,,3,1,2,stim/12.jpeg,HouseObjects,2,stim/objects/HouseObjects/flyswatter2.png,0.9,2,0.2,0.15,right,41,2020-12-07_01h12.40.563,premup-three_ses-01_part-01_label-phase1,3.2.4,MacIntel,60,left,1.082999706,4,0,4,0,1,3,1,0,240,185,1,239,,,,,,,,,,,,,,,,,,
,,1,83,,,,,,,2,6,2,stim/62.jpeg,Instruments,1,stim/objects/Instruments/electricdrumset2.png,0.7,3,-0.2,-0.15,left,41,2020-12-07_01h12.40.563,premup-three_ses-01_part-01_label-phase1,3.2.4,MacIntel,60,left,0.905999899,4,0,4,0,1,3,1,0,240,121,1,239,,,,,,,,,,,,,,,,,,
,,1,84,,,,,,,2,5,2,stim/52.jpeg,HouseObjects,2,stim/objects/HouseObjects/hairdryer.png,0.7,4,0.2,-0.15,right,41,2020-12-07_01h12.40.563,premup-three_ses-01_part-01_label-phase1,3.2.4,MacIntel,60,right,1.278999805,4,0,4,0,1,3,1,0,240,109,1,239,,,,,,,,,,,,,,,,,,
,,0,85,,,,,,,1,4,3,stim/43.jpeg,HouseObjects,2,stim/objects/HouseObjects/garbagebin.png,0.5,4,0.2,-0.15,right,41,2020-12-07_01h12.40.563,premup-three_ses-01_part-01_label-phase1,3.2.4,MacIntel,60,left,1.284999847,4,0,4,0,1,3,1,0,240,62,1,239,,,,,,,,,,,,,,,,,,
,,1,86,,,,,,,2,5,1,stim/51.jpeg,HouseObjects,2,stim/objects/HouseObjects/glassmop.png,0.7,3,-0.2,-0.15,right,41,2020-12-07_01h12.40.563,premup-three_ses-01_part-01_label-phase1,3.2.4,MacIntel,60,right,1.152999878,4,0,4,0,1,3,1,0,240,116,1,239,,,,,,,,,,,,,,,,,,
,,0,87,,,,,,,1,3,4,stim/34.jpeg,HouseObjects,2,stim/objects/HouseObjects/doormat.png,0.5,1,-0.2,0.15,right,41,2020-12-07_01h12.40.563,premup-three_ses-01_part-01_label-phase1,3.2.4,MacIntel,60,left,0.92599988,4,0,4,0,1,3,1,0,240,23,1,239,,,,,,,,,,,,,,,,,,
,,0,88,,,,,,,3,1,2,stim/12.jpeg,HouseObjects,2,stim/objects/HouseObjects/flyswatter2.png,0.9,1,-0.2,0.15,right,41,2020-12-07_01h12.40.563,premup-three_ses-01_part-01_label-phase1,3.2.4,MacIntel,60,left,0.610999823,4,0,4,0,1,3,1,0,240,165,1,239,,,,,,,,,,,,,,,,,,
,,0,89,,,,,,,3,2,1,stim/21.jpeg,HouseObjects,2,stim/objects/HouseObjects/glassmop2.png,0.1,3,-0.2,-0.15,right,41,2020-12-07_01h12.40.563,premup-three_ses-01_part-01_label-phase1,3.2.4,MacIntel,60,left,0.882999897,4,0,4,0,1,3,1,0,240,236,1,239,,,,,,,,,,,,,,,,,,
,,0,90,,,,,,,2,5,1,stim/51.jpeg,Instruments,1,stim/objects/Instruments/guitarcase.png,0.3,1,-0.2,0.15,left,41,2020-12-07_01h12.40.563,premup-three_ses-01_part-01_label-phase1,3.2.4,MacIntel,60,right,0.89199996,4,0,4,0,1,3,1,0,240,88,1,239,,,,,,,,,,,,,,,,,,
,,1,91,,,,,,,2,6,2,stim/62.jpeg,Instruments,1,stim/objects/Instruments/electricdrumset2.png,0.7,4,0.2,-0.15,left,41,2020-12-07_01h12.40.563,premup-three_ses-01_part-01_label-phase1,3.2.4,MacIntel,60,left,1.165999889,4,0,4,0,1,3,1,0,240,145,1,239,,,,,,,,,,,,,,,,,,
,,0,92,,,,,,,3,1,3,stim/13.jpeg,HouseObjects,2,stim/objects/HouseObjects/garbagebin2.png,0.9,1,-0.2,0.15,right,41,2020-12-07_01h12.40.563,premup-three_ses-01_part-01_label-phase1,3.2.4,MacIntel,60,left,1.069000006,4,0,4,0,1,3,1,0,240,194,1,239,,,,,,,,,,,,,,,,,,
,,0,93,,,,,,,1,3,4,stim/34.jpeg,Instruments,1,stim/objects/Instruments/flute.png,0.5,3,-0.2,-0.15,left,41,2020-12-07_01h12.40.563,premup-three_ses-01_part-01_label-phase1,3.2.4,MacIntel,60,right,0.888999701,4,0,4,0,1,3,1,0,240,15,1,239,,,,,,,,,,,,,,,,,,
,,1,94,,,,,,,1,4,1,stim/41.jpeg,Instruments,1,stim/objects/Instruments/flutetrans.png,0.5,2,0.2,0.15,left,41,2020-12-07_01h12.40.563,premup-three_ses-01_part-01_label-phase1,3.2.4,MacIntel,60,left,1.529999971,4,0,4,0,1,3,1,0,240,52,1,239,,,,,,,,,,,,,,,,,,
,,1,95,,,,,,,3,2,3,stim/23.jpeg,Instruments,1,stim/objects/Instruments/harp2.png,0.9,4,0.2,-0.15,left,41,2020-12-07_01h12.40.563,premup-three_ses-01_part-01_label-phase1,3.2.4,MacIntel,60,left,1.098999977,4,0,4,0,1,3,1,0,240,210,1,239,,,,,,,,,,,,,,,,,,
,,0,96,,,,,,,2,5,4,stim/54.jpeg,Instruments,1,stim/objects/Instruments/hihat.png,0.3,1,-0.2,0.15,left,41,2020-12-07_01h12.40.563,premup-three_ses-01_part-01_label-phase1,3.2.4,MacIntel,60,right,0.984999895,4,0,4,0,1,3,1,0,240,83,1,239,,,,,,,,,,,,,,,,,,
,,1,97,,,,,,,1,3,2,stim/32.jpeg,Instruments,1,stim/objects/Instruments/electricdrumset.png,0.5,4,0.2,-0.15,left,41,2020-12-07_01h12.40.563,premup-three_ses-01_part-01_label-phase1,3.2.4,MacIntel,60,left,1.230000019,4,0,4,0,1,3,1,0,240,9,1,239,,,,,,,,,,,,,,,,,,
,,0,98,,,,,,,2,5,3,stim/53.jpeg,HouseObjects,2,stim/objects/HouseObjects/handbrush.png,0.7,2,0.2,0.15,right,41,2020-12-07_01h12.40.563,premup-three_ses-01_part-01_label-phase1,3.2.4,MacIntel,60,left,1.076999903,4,0,4,0,1,3,1,0,240,98,1,239,,,,,,,,,,,,,,,,,,
,,1,99,,,,,,,2,5,3,stim/53.jpeg,HouseObjects,2,stim/objects/HouseObjects/handbrush.png,0.7,3,-0.2,-0.15,right,41,2020-12-07_01h12.40.563,premup-three_ses-01_part-01_label-phase1,3.2.4,MacIntel,60,right,0.848999977,4,0,4,0,1,3,1,0,240,106,1,239,,,,,,,,,,,,,,,,,,
,,1,100,,,,,,,2,6,4,stim/64.jpeg,Instruments,1,stim/objects/Instruments/flute2.png,0.7,1,-0.2,0.15,left,41,2020-12-07_01h12.40.563,premup-three_ses-01_part-01_label-phase1,3.2.4,MacIntel,60,left,1.207000017,4,0,4,0,1,3,1,0,240,139,1,239,,,,,,,,,,,,,,,,,,
,,1,101,,,,,,,1,4,3,stim/43.jpeg,HouseObjects,2,stim/objects/HouseObjects/garbagebin.png,0.5,1,-0.2,0.15,right,41,2020-12-07_01h12.40.563,premup-three_ses-01_part-01_label-phase1,3.2.4,MacIntel,60,right,0.926999807,4,0,4,0,1,3,1,0,240,78,1,239,,,,,,,,,,,,,,,,,,
,,1,102,,,,,,,2,5,1,stim/51.jpeg,HouseObjects,2,stim/objects/HouseObjects/glassmop.png,0.7,4,0.2,-0.15,right,41,2020-12-07_01h12.40.563,premup-three_ses-01_part-01_label-phase1,3.2.4,MacIntel,60,right,1.163000107,4,0,4,0,1,3,1,0,240,112,1,239,,,,,,,,,,,,,,,,,,
,,1,103,,,,,,,2,5,3,stim/53.jpeg,HouseObjects,2,stim/objects/HouseObjects/handbrush.png,0.7,1,-0.2,0.15,right,41,2020-12-07_01h12.40.563,premup-three_ses-01_part-01_label-phase1,3.2.4,MacIntel,60,right,0.963999987,4,0,4,0,1,3,1,0,240,102,1,239,,,,,,,,,,,,,,,,,,
,,0,104,,,,,,,3,1,2,stim/12.jpeg,HouseObjects,2,stim/objects/HouseObjects/flyswatter2.png,0.9,4,0.2,-0.15,right,41,2020-12-07_01h12.40.563,premup-three_ses-01_part-01_label-phase1,3.2.4,MacIntel,60,left,0.895999908,4,0,4,0,1,3,1,0,240,177,1,239,,,,,,,,,,,,,,,,,,
,,1,105,,,,,,,2,5,4,stim/54.jpeg,HouseObjects,2,stim/objects/HouseObjects/handvacuum.png,0.7,4,0.2,-0.15,right,41,2020-12-07_01h12.40.563,premup-three_ses-01_part-01_label-phase1,3.2.4,MacIntel,60,right,0.859999895,4,0,4,0,1,3,1,0,240,115,1,239,,,,,,,,,,,,,,,,,,
,,1,106,,,,,,,1,3,4,stim/34.jpeg,Instruments,1,stim/objects/Instruments/flute.png,0.5,2,0.2,0.15,left,41,2020-12-07_01h12.40.563,premup-three_ses-01_part-01_label-phase1,3.2.4,MacIntel,60,left,0.616999865,4,0,4,0,1,3,1,0,240,11,1,239,,,,,,,,,,,,,,,,,,
,,1,107,,,,,,,2,6,1,stim/61.jpeg,Instruments,1,stim/objects/Instruments/drums2.png,0.7,1,-0.2,0.15,left,41,2020-12-07_01h12.40.563,premup-three_ses-01_part-01_label-phase1,3.2.4,MacIntel,60,left,1.145999908,4,0,4,0,1,3,1,0,240,136,1,239,,,,,,,,,,,,,,,,,,
,,0,108,,,,,,,3,1,4,stim/14.jpeg,HouseObjects,2,stim/objects/HouseObjects/glass2.png,0.9,3,-0.2,-0.15,right,41,2020-12-07_01h12.40.563,premup-three_ses-01_part-01_label-phase1,3.2.4,MacIntel,60,left,0.820999861,4,0,4,0,1,3,1,0,240,167,1,239,,,,,,,,,,,,,,,,,,
,,0,109,,,,,,,1,4,2,stim/42.jpeg,Instruments,1,stim/objects/Instruments/frenchhorn.png,0.5,4,0.2,-0.15,left,41,2020-12-07_01h12.40.563,premup-three_ses-01_part-01_label-phase1,3.2.4,MacIntel,60,right,0.683999777,4,0,4,0,1,3,1,0,240,49,1,239,,,,,,,,,,,,,,,,,,
,,0,110,,,,,,,3,1,3,stim/13.jpeg,Instruments,1,stim/objects/Instruments/gong2.png,0.1,2,0.2,0.15,left,41,2020-12-07_01h12.40.563,premup-three_ses-01_part-01_label-phase1,3.2.4,MacIntel,60,right,1.030999899,4,0,4,0,1,3,1,0,240,162,1,239,,,,,,,,,,,,,,,,,,
,,0,111,,,,,,,3,1,3,stim/13.jpeg,HouseObjects,2,stim/objects/HouseObjects/garbagebin2.png,0.9,2,0.2,0.15,right,41,2020-12-07_01h12.40.563,premup-three_ses-01_part-01_label-phase1,3.2.4,MacIntel,60,left,0.566999912,4,0,4,0,1,3,1,0,240,178,1,239,,,,,,,,,,,,,,,,,,
,,1,112,,,,,,,2,5,4,stim/54.jpeg,HouseObjects,2,stim/objects/HouseObjects/handvacuum.png,0.7,1,-0.2,0.15,right,41,2020-12-07_01h12.40.563,premup-three_ses-01_part-01_label-phase1,3.2.4,MacIntel,60,right,1.059999943,4,0,4,0,1,3,1,0,240,99,1,239,,,,,,,,,,,,,,,,,,
,,0,113,,,,,,,2,5,4,stim/54.jpeg,HouseObjects,2,stim/objects/HouseObjects/handvacuum.png,0.7,2,0.2,0.15,right,41,2020-12-07_01h12.40.563,premup-three_ses-01_part-01_label-phase1,3.2.4,MacIntel,60,left,1.016000032,4,0,4,0,1,3,1,0,240,107,1,239,,,,,,,,,,,,,,,,,,
,,1,114,,,,,,,2,6,4,stim/64.jpeg,Instruments,1,stim/objects/Instruments/flute2.png,0.7,4,0.2,-0.15,left,41,2020-12-07_01h12.40.563,premup-three_ses-01_part-01_label-phase1,3.2.4,MacIntel,60,left,0.707999945,4,0,4,0,1,3,1,0,240,143,1,239,,,,,,,,,,,,,,,,,,
,,0,115,,,,,,,2,6,2,stim/62.jpeg,HouseObjects,2,stim/objects/HouseObjects/cushion2.png,0.3,1,-0.2,0.15,right,41,2020-12-07_01h12.40.563,premup-three_ses-01_part-01_label-phase1,3.2.4,MacIntel,60,left,0.615999937,4,0,4,0,1,3,1,0,240,157,1,239,,,,,,,,,,,,,,,,,,
,,0,116,,,,,,,3,2,1,stim/21.jpeg,Instruments,1,stim/objects/Instruments/guitarcase2.png,0.9,2,0.2,0.15,left,41,2020-12-07_01h12.40.563,premup-three_ses-01_part-01_label-phase1,3.2.4,MacIntel,60,right,0.713999987,4,0,4,0,1,3,1,0,240,212,1,239,,,,,,,,,,,,,,,,,,
,,1,117,,,,,,,2,6,1,stim/61.jpeg,Instruments,1,stim/objects/Instruments/drums2.png,0.7,1,-0.2,0.15,left,41,2020-12-07_01h12.40.563,premup-three_ses-01_part-01_label-phase1,3.2.4,MacIntel,60,left,1.059000015,4,0,4,0,1,3,1,0,240,128,1,239,,,,,,,,,,,,,,,,,,
,,1,118,,,,,,,2,5,1,stim/51.jpeg,HouseObjects,2,stim/objects/HouseObjects/glassmop.png,0.7,1,-0.2,0.15,right,41,2020-12-07_01h12.40.563,premup-three_ses-01_part-01_label-phase1,3.2.4,MacIntel,60,right,1.079999924,4,0,4,0,1,3,1,0,240,104,1,239,,,,,,,,,,,,,,,,,,
,,0,119,,,,,,,1,4,2,stim/42.jpeg,Instruments,1,stim/objects/Instruments/frenchhorn.png,0.5,3,-0.2,-0.15,left,41,2020-12-07_01h12.40.563,premup-three_ses-01_part-01_label-phase1,3.2.4,MacIntel,60,right,1.271999836,4,0,4,0,1,3,1,0,240,53,1,239,,,,,,,,,,,,,,,,,,
,,0,120,,,,,,,3,1,3,stim/13.jpeg,HouseObjects,2,stim/objects/HouseObjects/garbagebin2.png,0.9,2,0.2,0.15,right,41,2020-12-07_01h12.40.563,premup-three_ses-01_part-01_label-phase1,3.2.4,MacIntel,60,left,0.496999979,4,0,4,0,1,3,1,0,240,190,1,239,,,,,,,,,,,,,,,,,,
,,1,121,,,,,,,3,1,4,stim/14.jpeg,HouseObjects,2,stim/objects/HouseObjects/glass2.png,0.9,4,0.2,-0.15,right,41,2020-12-07_01h12.40.563,premup-three_ses-01_part-01_label-phase1,3.2.4,MacIntel,60,right,0.663999796,4,0,4,0,1,3,1,0,240,191,1,239,,,,,,,,,,,,,,,,,,
,,1,122,,,,,,,1,3,3,stim/33.jpeg,Instruments,1,stim/objects/Instruments/electricguitar.png,0.5,1,-0.2,0.15,left,41,2020-12-07_01h12.40.563,premup-three_ses-01_part-01_label-phase1,3.2.4,MacIntel,60,left,0.768000126,4,0,4,0,1,3,1,0,240,18,1,239,,,,,,,,,,,,,,,,,,
,,0,123,,,,,,,2,5,2,stim/52.jpeg,Instruments,1,stim/objects/Instruments/harmonica.png,0.3,2,0.2,0.15,left,41,2020-12-07_01h12.40.563,premup-three_ses-01_part-01_label-phase1,3.2.4,MacIntel,60,right,0.868000031,4,0,4,0,1,3,1,0,240,85,1,239,,,,,,,,,,,,,,,,,,
,,0,124,,,,,,,1,3,1,stim/31.jpeg,HouseObjects,2,stim/objects/HouseObjects/coffee.png,0.5,2,0.2,0.15,right,41,2020-12-07_01h12.40.563,premup-three_ses-01_part-01_label-phase1,3.2.4,MacIntel,60,left,0.552999973,4,0,4,0,1,3,1,0,240,24,1,239,,,,,,,,,,,,,,,,,,
,,1,125,,,,,,,1,4,1,stim/41.jpeg,HouseObjects,2,stim/objects/HouseObjects/dustpan.png,0.5,4,0.2,-0.15,right,41,2020-12-07_01h12.40.563,premup-three_ses-01_part-01_label-phase1,3.2.4,MacIntel,60,right,0.654000044,4,0,4,0,1,3,1,0,240,76,1,239,,,,,,,,,,,,,,,,,,
,,0,126,,,,,,,1,3,3,stim/33.jpeg,HouseObjects,2,stim/objects/HouseObjects/dishsoap.png,0.5,4,0.2,-0.15,right,41,2020-12-07_01h12.40.563,premup-three_ses-01_part-01_label-phase1,3.2.4,MacIntel,60,left,0.671999931,4,0,4,0,1,3,1,0,240,34,1,239,,,,,,,,,,,,,,,,,,
,,0,127,,,,,,,3,1,1,stim/11.jpeg,HouseObjects,2,stim/objects/HouseObjects/dustpan2.png,0.9,3,-0.2,-0.15,right,41,2020-12-07_01h12.40.563,premup-three_ses-01_part-01_label-phase1,3.2.4,MacIntel,60,left,0.40899992,4,0,4,0,1,3,1,0,240,168,1,239,,,,,,,,,,,,,,,,,,
,,0,128,,,,,,,3,1,3,stim/13.jpeg,HouseObjects,2,stim/objects/HouseObjects/garbagebin2.png,0.9,1,-0.2,0.15,right,41,2020-12-07_01h12.40.563,premup-three_ses-01_part-01_label-phase1,3.2.4,MacIntel,60,left,0.447999954,4,0,4,0,1,3,1,0,240,166,1,239,,,,,,,,,,,,,,,,,,
,,1,129,,,,,,,1,3,1,stim/31.jpeg,Instruments,1,stim/objects/Instruments/drums.png,0.5,2,0.2,0.15,left,41,2020-12-07_01h12.40.563,premup-three_ses-01_part-01_label-phase1,3.2.4,MacIntel,60,left,0.511999846,4,0,4,0,1,3,1,0,240,12,1,239,,,,,,,,,,,,,,,,,,
,,0,130,,,,,,,1,3,2,stim/32.jpeg,HouseObjects,2,stim/objects/HouseObjects/cushion.png,0.5,1,-0.2,0.15,right,41,2020-12-07_01h12.40.563,premup-three_ses-01_part-01_label-phase1,3.2.4,MacIntel,60,left,0.647000074,4,0,4,0,1,3,1,0,240,21,1,239,,,,,,,,,,,,,,,,,,
,,0,131,,,,,,,1,4,2,stim/42.jpeg,Instruments,1,stim/objects/Instruments/frenchhorn.png,0.5,4,0.2,-0.15,left,41,2020-12-07_01h12.40.563,premup-three_ses-01_part-01_label-phase1,3.2.4,MacIntel,60,right,0.779999971,4,0,4,0,1,3,1,0,240,57,1,239,,,,,,,,,,,,,,,,,,
,,1,132,,,,,,,2,6,1,stim/61.jpeg,Instruments,1,stim/objects/Instruments/drums2.png,0.7,4,0.2,-0.15,left,41,2020-12-07_01h12.40.563,premup-three_ses-01_part-01_label-phase1,3.2.4,MacIntel,60,left,0.887999773,4,0,4,0,1,3,1,0,240,140,1,239,,,,,,,,,,,,,,,,,,
,,1,133,,,,,,,3,2,3,stim/23.jpeg,HouseObjects,2,stim/objects/HouseObjects/handbrush2.png,0.1,4,0.2,-0.15,right,41,2020-12-07_01h12.40.563,premup-three_ses-01_part-01_label-phase1,3.2.4,MacIntel,60,right,0.953999996,4,0,4,0,1,3,1,0,240,238,1,239,,,,,,,,,,,,,,,,,,
,,0,134,,,,,,,2,6,3,stim/63.jpeg,HouseObjects,2,stim/objects/HouseObjects/dishsoap2.png,0.3,4,0.2,-0.15,right,41,2020-12-07_01h12.40.563,premup-three_ses-01_part-01_label-phase1,3.2.4,MacIntel,60,left,1.056999922,4,0,4,0,1,3,1,0,240,150,1,239,,,,,,,,,,,,,,,,,,
,,1,135,,,,,,,3,2,4,stim/24.jpeg,Instruments,1,stim/objects/Instruments/hihat2.png,0.9,2,0.2,0.15,left,41,2020-12-07_01h12.40.563,premup-three_ses-01_part-01_label-phase1,3.2.4,MacIntel,60,left,0.734999895,4,0,4,0,1,3,1,0,240,227,1,239,,,,,,,,,,,,,,,,,,
,,1,136,,,,,,,1,3,4,stim/34.jpeg,HouseObjects,2,stim/objects/HouseObjects/doormat.png,0.5,1,-0.2,0.15,right,41,2020-12-07_01h12.40.563,premup-three_ses-01_part-01_label-phase1,3.2.4,MacIntel,60,right,1.047999859,4,0,4,0,1,3,1,0,240,27,1,239,,,,,,,,,,,,,,,,,,
,,1,137,,,,,,,1,4,1,stim/41.jpeg,Instruments,1,stim/objects/Instruments/flutetrans.png,0.5,4,0.2,-0.15,left,41,2020-12-07_01h12.40.563,premup-three_ses-01_part-01_label-phase1,3.2.4,MacIntel,60,left,0.89199996,4,0,4,0,1,3,1,0,240,48,1,239,,,,,,,,,,,,,,,,,,
,,0,138,,,,,,,1,4,4,stim/44.jpeg,Instruments,1,stim/objects/Instruments/grandpiano.png,0.5,3,-0.2,-0.15,left,41,2020-12-07_01h12.40.563,premup-three_ses-01_part-01_label-phase1,3.2.4,MacIntel,60,right,1.585000038,4,0,4,0,1,3,1,0,240,43,1,239,,,,,,,,,,,,,,,,,,
,,0,139,,,,,,,2,5,1,stim/51.jpeg,Instruments,1,stim/objects/Instruments/guitarcase.png,0.3,3,-0.2,-0.15,left,41,2020-12-07_01h12.40.563,premup-three_ses-01_part-01_label-phase1,3.2.4,MacIntel,60,right,0.879999876,4,0,4,0,1,3,1,0,240,80,1,239,,,,,,,,,,,,,,,,,,
,,0,140,,,,,,,2,5,4,stim/54.jpeg,HouseObjects,2,stim/objects/HouseObjects/handvacuum.png,0.7,4,0.2,-0.15,right,41,2020-12-07_01h12.40.563,premup-three_ses-01_part-01_label-phase1,3.2.4,MacIntel,60,left,0.650999784,4,0,4,0,1,3,1,0,240,119,1,239,,,,,,,,,,,,,,,,,,
,,0,141,,,,,,,1,3,3,stim/33.jpeg,HouseObjects,2,stim/objects/HouseObjects/dishsoap.png,0.5,3,-0.2,-0.15,right,41,2020-12-07_01h12.40.563,premup-three_ses-01_part-01_label-phase1,3.2.4,MacIntel,60,left,0.763000011,4,0,4,0,1,3,1,0,240,22,1,239,,,,,,,,,,,,,,,,,,
,,0,142,,,,,,,2,6,2,stim/62.jpeg,Instruments,1,stim/objects/Instruments/electricdrumset2.png,0.7,2,0.2,0.15,left,41,2020-12-07_01h12.40.563,premup-three_ses-01_part-01_label-phase1,3.2.4,MacIntel,60,right,1.177999973,4,0,4,0,1,3,1,0,240,137,1,239,,,,,,,,,,,,,,,,,,
,,1,143,,,,,,,2,6,3,stim/63.jpeg,Instruments,1,stim/objects/Instruments/electricguitar2.png,0.7,3,-0.2,-0.15,left,41,2020-12-07_01h12.40.563,premup-three_ses-01_part-01_label-phase1,3.2.4,MacIntel,60,left,0.548999786,4,0,4,0,1,3,1,0,240,142,1,239,,,,,,,,,,,,,,,,,,
,,0,144,,,,,,,3,1,3,stim/13.jpeg,HouseObjects,2,stim/objects/HouseObjects/garbagebin2.png,0.9,3,-0.2,-0.15,right,41,2020-12-07_01h12.40.563,premup-three_ses-01_part-01_label-phase1,3.2.4,MacIntel,60,left,0.881000042,4,0,4,0,1,3,1,0,240,198,1,239,,,,,,,,,,,,,,,,,,
,,1,145,,,,,,,3,2,3,stim/23.jpeg,Instruments,1,stim/objects/Instruments/harp2.png,0.9,1,-0.2,0.15,left,41,2020-12-07_01h12.40.563,premup-three_ses-01_part-01_label-phase1,3.2.4,MacIntel,60,left,0.90899992,4,0,4,0,1,3,1,0,240,214,1,239,,,,,,,,,,,,,,,,,,
,,0,146,,,,,,,1,3,2,stim/32.jpeg,Instruments,1,stim/objects/Instruments/electricdrumset.png,0.5,4,0.2,-0.15,left,41,2020-12-07_01h12.40.563,premup-three_ses-01_part-01_label-phase1,3.2.4,MacIntel,60,right,0.902999878,4,0,4,0,1,3,1,0,240,1,1,239,,,,,,,,,,,,,,,,,,
,,1,147,,,,,,,3,2,1,stim/21.jpeg,Instruments,1,stim/objects/Instruments/guitarcase2.png,0.9,1,-0.2,0.15,left,41,2020-12-07_01h12.40.563,premup-three_ses-01_part-01_label-phase1,3.2.4,MacIntel,60,left,0.654999733,4,0,4,0,1,3,1,0,240,216,1,239,,,,,,,,,,,,,,,,,,
,,0,148,,,,,,,2,5,4,stim/54.jpeg,Instruments,1,stim/objects/Instruments/hihat.png,0.3,2,0.2,0.15,left,41,2020-12-07_01h12.40.563,premup-three_ses-01_part-01_label-phase1,3.2.4,MacIntel,60,right,1.118999958,4,0,4,0,1,3,1,0,240,91,1,239,,,,,,,,,,,,,,,,,,
,,0,149,,,,,,,1,3,2,stim/32.jpeg,Instruments,1,stim/objects/Instruments/electricdrumset.png,0.5,2,0.2,0.15,left,41,2020-12-07_01h12.40.563,premup-three_ses-01_part-01_label-phase1,3.2.4,MacIntel,60,right,0.748999834,4,0,4,0,1,3,1,0,240,17,1,239,,,,,,,,,,,,,,,,,,
,,0,150,,,,,,,2,5,3,stim/53.jpeg,HouseObjects,2,stim/objects/HouseObjects/handbrush.png,0.7,3,-0.2,-0.15,right,41,2020-12-07_01h12.40.563,premup-three_ses-01_part-01_label-phase1,3.2.4,MacIntel,60,left,0.559999943,4,0,4,0,1,3,1,0,240,94,1,239,,,,,,,,,,,,,,,,,,
,,0,151,,,,,,,3,1,1,stim/11.jpeg,HouseObjects,2,stim/objects/HouseObjects/dustpan2.png,0.9,1,-0.2,0.15,right,41,2020-12-07_01h12.40.563,premup-three_ses-01_part-01_label-phase1,3.2.4,MacIntel,60,left,0.485999823,4,0,4,0,1,3,1,0,240,184,1,239,,,,,,,,,,,,,,,,,,
,,0,152,,,,,,,1,3,4,stim/34.jpeg,Instruments,1,stim/objects/Instruments/flute.png,0.5,2,0.2,0.15,left,41,2020-12-07_01h12.40.563,premup-three_ses-01_part-01_label-phase1,3.2.4,MacIntel,60,right,1.059999943,4,0,4,0,1,3,1,0,240,3,1,239,,,,,,,,,,,,,,,,,,
,,1,153,,,,,,,2,5,3,stim/53.jpeg,Instruments,1,stim/objects/Instruments/harp.png,0.3,1,-0.2,0.15,left,41,2020-12-07_01h12.40.563,premup-three_ses-01_part-01_label-phase1,3.2.4,MacIntel,60,left,0.750999928,4,0,4,0,1,3,1,0,240,90,1,239,,,,,,,,,,,,,,,,,,
,,1,154,,,,,,,3,1,1,stim/11.jpeg,HouseObjects,2,stim/objects/HouseObjects/dustpan2.png,0.9,2,0.2,0.15,right,41,2020-12-07_01h12.40.563,premup-three_ses-01_part-01_label-phase1,3.2.4,MacIntel,60,right,1.199999809,4,0,4,0,1,3,1,0,240,172,1,239,,,,,,,,,,,,,,,,,,
,,0,155,,,,,,,1,4,4,stim/44.jpeg,Instruments,1,stim/objects/Instruments/grandpiano.png,0.5,2,0.2,0.15,left,41,2020-12-07_01h12.40.563,premup-three_ses-01_part-01_label-phase1,3.2.4,MacIntel,60,right,1.066999912,4,0,4,0,1,3,1,0,240,47,1,239,,,,,,,,,,,,,,,,,,
,,0,156,,,,,,,1,3,3,stim/33.jpeg,HouseObjects,2,stim/objects/HouseObjects/dishsoap.png,0.5,2,0.2,0.15,right,41,2020-12-07_01h12.40.563,premup-three_ses-01_part-01_label-phase1,3.2.4,MacIntel,60,left,0.862999916,4,0,4,0,1,3,1,0,240,26,1,239,,,,,,,,,,,,,,,,,,
,,0,157,,,,,,,1,3,1,stim/31.jpeg,Instruments,1,stim/objects/Instruments/drums.png,0.5,2,0.2,0.15,left,41,2020-12-07_01h12.40.563,premup-three_ses-01_part-01_label-phase1,3.2.4,MacIntel,60,right,0.646999836,4,0,4,0,1,3,1,0,240,0,1,239,,,,,,,,,,,,,,,,,,
,,1,158,,,,,,,3,1,1,stim/11.jpeg,Instruments,1,stim/objects/Instruments/flutetrans2.png,0.1,3,-0.2,-0.15,left,41,2020-12-07_01h12.40.563,premup-three_ses-01_part-01_label-phase1,3.2.4,MacIntel,60,left,0.673000097,4,0,4,0,1,3,1,0,240,160,1,239,,,,,,,,,,,,,,,,,,
,,0,159,,,,,,,1,4,3,stim/43.jpeg,Instruments,1,stim/objects/Instruments/gong.png,0.5,2,0.2,0.15,left,41,2020-12-07_01h12.40.563,premup-three_ses-01_part-01_label-phase1,3.2.4,MacIntel,60,right,0.832999945,4,0,4,0,1,3,1,0,240,58,1,239,,,,,,,,,,,,,,,,,,
,,1,160,,,,,,,2,6,3,stim/63.jpeg,Instruments,1,stim/objects/Instruments/electricguitar2.png,0.7,1,-0.2,0.15,left,41,2020-12-07_01h12.40.563,premup-three_ses-01_part-01_label-phase1,3.2.4,MacIntel,60,left,0.895999908,4,0,4,0,1,3,1,0,240,126,1,239,,,,,,,,,,,,,,,,,,
,,1,161,,,,,,,2,5,4,stim/54.jpeg,HouseObjects,2,stim/objects/HouseObjects/handvacuum.png,0.7,1,-0.2,0.15,right,41,2020-12-07_01h12.40.563,premup-three_ses-01_part-01_label-phase1,3.2.4,MacIntel,60,right,0.981999874,4,0,4,0,1,3,1,0,240,111,1,239,,,,,,,,,,,,,,,,,,
,,0,162,,,,,,,3,1,4,stim/14.jpeg,HouseObjects,2,stim/objects/HouseObjects/glass2.png,0.9,1,-0.2,0.15,right,41,2020-12-07_01h12.40.563,premup-three_ses-01_part-01_label-phase1,3.2.4,MacIntel,60,left,1.308999777,4,0,4,0,1,3,1,0,240,199,1,239,,,,,,,,,,,,,,,,,,
,,1,163,,,,,,,3,2,2,stim/22.jpeg,Instruments,1,stim/objects/Instruments/harmonica2.png,0.9,2,0.2,0.15,left,41,2020-12-07_01h12.40.563,premup-three_ses-01_part-01_label-phase1,3.2.4,MacIntel,60,left,1.032000065,4,0,4,0,1,3,1,0,240,205,1,239,,,,,,,,,,,,,,,,,,
,,1,164,,,,,,,1,4,3,stim/43.jpeg,HouseObjects,2,stim/objects/HouseObjects/garbagebin.png,0.5,3,-0.2,-0.15,right,41,2020-12-07_01h12.40.563,premup-three_ses-01_part-01_label-phase1,3.2.4,MacIntel,60,right,1.164999962,4,0,4,0,1,3,1,0,240,66,1,239,,,,,,,,,,,,,,,,,,
,,0,165,,,,,,,3,2,1,stim/21.jpeg,Instruments,1,stim/objects/Instruments/guitarcase2.png,0.9,2,0.2,0.15,left,41,2020-12-07_01h12.40.563,premup-three_ses-01_part-01_label-phase1,3.2.4,MacIntel,60,right,1.112999916,4,0,4,0,1,3,1,0,240,232,1,239,,,,,,,,,,,,,,,,,,
,,0,166,,,,,,,1,3,3,stim/33.jpeg,Instruments,1,stim/objects/Instruments/electricguitar.png,0.5,4,0.2,-0.15,left,41,2020-12-07_01h12.40.563,premup-three_ses-01_part-01_label-phase1,3.2.4,MacIntel,60,right,0.669999838,4,0,4,0,1,3,1,0,240,6,1,239,,,,,,,,,,,,,,,,,,
,,0,167,,,,,,,2,6,1,stim/61.jpeg,HouseObjects,2,stim/objects/HouseObjects/coffee2.png,0.3,3,-0.2,-0.15,right,41,2020-12-07_01h12.40.563,premup-three_ses-01_part-01_label-phase1,3.2.4,MacIntel,60,left,0.596999884,4,0,4,0,1,3,1,0,240,156,1,239,,,,,,,,,,,,,,,,,,
,,1,168,,,,,,,3,2,3,stim/23.jpeg,Instruments,1,stim/objects/Instruments/harp2.png,0.9,2,0.2,0.15,left,41,2020-12-07_01h12.40.563,premup-three_ses-01_part-01_label-phase1,3.2.4,MacIntel,60,left,0.365999937,4,0,4,0,1,3,1,0,240,218,1,239,,,,,,,,,,,,,,,,,,
,,1,169,,,,,,,3,1,3,stim/13.jpeg,HouseObjects,2,stim/objects/HouseObjects/garbagebin2.png,0.9,1,-0.2,0.15,right,41,2020-12-07_01h12.40.563,premup-three_ses-01_part-01_label-phase1,3.2.4,MacIntel,60,right,0.65199995,4,0,4,0,1,3,1,0,240,182,1,239,,,,,,,,,,,,,,,,,,
,,1,170,,,,,,,2,6,2,stim/62.jpeg,HouseObjects,2,stim/objects/HouseObjects/cushion2.png,0.3,2,0.2,0.15,right,41,2020-12-07_01h12.40.563,premup-three_ses-01_part-01_label-phase1,3.2.4,MacIntel,60,right,0.67599988,4,0,4,0,1,3,1,0,240,153,1,239,,,,,,,,,,,,,,,,,,
,,1,171,,,,,,,1,3,3,stim/33.jpeg,Instruments,1,stim/objects/Instruments/electricguitar.png,0.5,3,-0.2,-0.15,left,41,2020-12-07_01h12.40.563,premup-three_ses-01_part-01_label-phase1,3.2.4,MacIntel,60,left,1.049999952,4,0,4,0,1,3,1,0,240,2,1,239,,,,,,,,,,,,,,,,,,
,,0,172,,,,,,,2,6,4,stim/64.jpeg,HouseObjects,2,stim/objects/HouseObjects/doormat2.png,0.3,4,0.2,-0.15,right,41,2020-12-07_01h12.40.563,premup-three_ses-01_part-01_label-phase1,3.2.4,MacIntel,60,left,1.502999783,4,0,4,0,1,3,1,0,240,151,1,239,,,,,,,,,,,,,,,,,,
,,1,173,,,,,,,3,2,4,stim/24.jpeg,Instruments,1,stim/objects/Instruments/hihat2.png,0.9,4,0.2,-0.15,left,41,2020-12-07_01h12.40.563,premup-three_ses-01_part-01_label-phase1,3.2.4,MacIntel,60,left,0.802999973,4,0,4,0,1,3,1,0,240,207,1,239,,,,,,,,,,,,,,,,,,
,,0,174,,,,,,,2,5,1,stim/51.jpeg,Instruments,1,stim/objects/Instruments/guitarcase.png,0.3,1,-0.2,0.15,left,41,2020-12-07_01h12.40.563,premup-three_ses-01_part-01_label-phase1,3.2.4,MacIntel,60,right,0.707000017,4,0,4,0,1,3,1,0,240,84,1,239,,,,,,,,,,,,,,,,,,
,,0,175,,,,,,,3,1,1,stim/11.jpeg,HouseObjects,2,stim/objects/HouseObjects/dustpan2.png,0.9,4,0.2,-0.15,right,41,2020-12-07_01h12.40.563,premup-three_ses-01_part-01_label-phase1,3.2.4,MacIntel,60,left,0.622999907,4,0,4,0,1,3,1,0,240,188,1,239,,,,,,,,,,,,,,,,,,
,,1,176,,,,,,,3,1,2,stim/12.jpeg,HouseObjects,2,stim/objects/HouseObjects/flyswatter2.png,0.9,3,-0.2,-0.15,right,41,2020-12-07_01h12.40.563,premup-three_ses-01_part-01_label-phase1,3.2.4,MacIntel,60,right,0.507999897,4,0,4,0,1,3,1,0,240,193,1,239,,,,,,,,,,,,,,,,,,
,,0,177,,,,,,,2,6,2,stim/62.jpeg,Instruments,1,stim/objects/Instruments/electricdrumset2.png,0.7,4,0.2,-0.15,left,41,2020-12-07_01h12.40.563,premup-three_ses-01_part-01_label-phase1,3.2.4,MacIntel,60,right,0.898999929,4,0,4,0,1,3,1,0,240,133,1,239,,,,,,,,,,,,,,,,,,
,,0,178,,,,,,,3,1,4,stim/14.jpeg,HouseObjects,2,stim/objects/HouseObjects/glass2.png,0.9,3,-0.2,-0.15,right,41,2020-12-07_01h12.40.563,premup-three_ses-01_part-01_label-phase1,3.2.4,MacIntel,60,left,0.46999979,4,0,4,0,1,3,1,0,240,195,1,239,,,,,,,,,,,,,,,,,,
,,1,179,,,,,,,3,2,4,stim/24.jpeg,Instruments,1,stim/objects/Instruments/hihat2.png,0.9,4,0.2,-0.15,left,41,2020-12-07_01h12.40.563,premup-three_ses-01_part-01_label-phase1,3.2.4,MacIntel,60,left,0.382999897,4,0,4,0,1,3,1,0,240,231,1,239,,,,,,,,,,,,,,,,,,
,,1,180,,,,,,,1,4,2,stim/42.jpeg,HouseObjects,2,stim/objects/HouseObjects/flyswatter.png,0.5,2,0.2,0.15,right,41,2020-12-07_01h12.40.563,premup-three_ses-01_part-01_label-phase1,3.2.4,MacIntel,60,right,0.680999756,4,0,4,0,1,3,1,0,240,61,1,239,,,,,,,,,,,,,,,,,,
,,1,181,,,,,,,1,4,4,stim/44.jpeg,HouseObjects,2,stim/objects/HouseObjects/glass.png,0.5,4,0.2,-0.15,right,41,2020-12-07_01h12.40.563,premup-three_ses-01_part-01_label-phase1,3.2.4,MacIntel,60,right,0.716999769,4,0,4,0,1,3,1,0,240,63,1,239,,,,,,,,,,,,,,,,,,
,,0,182,,,,,,,3,1,1,stim/11.jpeg,HouseObjects,2,stim/objects/HouseObjects/dustpan2.png,0.9,1,-0.2,0.15,right,41,2020-12-07_01h12.40.563,premup-three_ses-01_part-01_label-phase1,3.2.4,MacIntel,60,left,0.583999872,4,0,4,0,1,3,1,0,240,164,1,239,,,,,,,,,,,,,,,,,,
,,0,183,,,,,,,1,4,3,stim/43.jpeg,HouseObjects,2,stim/objects/HouseObjects/garbagebin.png,0.5,1,-0.2,0.15,right,41,2020-12-07_01h12.40.563,premup-three_ses-01_part-01_label-phase1,3.2.4,MacIntel,60,left,0.481999874,4,0,4,0,1,3,1,0,240,70,1,239,,,,,,,,,,,,,,,,,,
,,1,184,,,,,,,2,5,3,stim/53.jpeg,HouseObjects,2,stim/objects/HouseObjects/handbrush.png,0.7,2,0.2,0.15,right,41,2020-12-07_01h12.40.563,premup-three_ses-01_part-01_label-phase1,3.2.4,MacIntel,60,right,0.417999744,4,0,4,0,1,3,1,0,240,110,1,239,,,,,,,,,,,,,,,,,,
,,0,185,,,,,,,1,3,2,stim/32.jpeg,HouseObjects,2,stim/objects/HouseObjects/cushion.png,0.5,4,0.2,-0.15,right,41,2020-12-07_01h12.40.563,premup-three_ses-01_part-01_label-phase1,3.2.4,MacIntel,60,left,0.651000023,4,0,4,0,1,3,1,0,240,37,1,239,,,,,,,,,,,,,,,,,,
,,1,186,,,,,,,3,1,4,stim/14.jpeg,HouseObjects,2,stim/objects/HouseObjects/glass2.png,0.9,4,0.2,-0.15,right,41,2020-12-07_01h12.40.563,premup-three_ses-01_part-01_label-phase1,3.2.4,MacIntel,60,right,0.672999859,4,0,4,0,1,3,1,0,240,187,1,239,,,,,,,,,,,,,,,,,,
,,1,187,,,,,,,2,6,2,stim/62.jpeg,Instruments,1,stim/objects/Instruments/electricdrumset2.png,0.7,3,-0.2,-0.15,left,41,2020-12-07_01h12.40.563,premup-three_ses-01_part-01_label-phase1,3.2.4,MacIntel,60,left,0.444999933,4,0,4,0,1,3,1,0,240,125,1,239,,,,,,,,,,,,,,,,,,
,,1,188,,,,,,,1,4,1,stim/41.jpeg,Instruments,1,stim/objects/Instruments/flutetrans.png,0.5,1,-0.2,0.15,left,41,2020-12-07_01h12.40.563,premup-three_ses-01_part-01_label-phase1,3.2.4,MacIntel,60,left,0.489999771,4,0,4,0,1,3,1,0,240,44,1,239,,,,,,,,,,,,,,,,,,
,,1,189,,,,,,,3,1,2,stim/12.jpeg,HouseObjects,2,stim/objects/HouseObjects/flyswatter2.png,0.9,2,0.2,0.15,right,41,2020-12-07_01h12.40.563,premup-three_ses-01_part-01_label-phase1,3.2.4,MacIntel,60,right,0.689999819,4,0,4,0,1,3,1,0,240,197,1,239,,,,,,,,,,,,,,,,,,
,,0,190,,,,,,,3,1,3,stim/13.jpeg,HouseObjects,2,stim/objects/HouseObjects/garbagebin2.png,0.9,3,-0.2,-0.15,right,41,2020-12-07_01h12.40.563,premup-three_ses-01_part-01_label-phase1,3.2.4,MacIntel,60,left,0.56099987,4,0,4,0,1,3,1,0,240,186,1,239,,,,,,,,,,,,,,,,,,
,,1,191,,,,,,,1,3,2,stim/32.jpeg,Instruments,1,stim/objects/Instruments/electricdrumset.png,0.5,3,-0.2,-0.15,left,41,2020-12-07_01h12.40.563,premup-three_ses-01_part-01_label-phase1,3.2.4,MacIntel,60,left,0.430000067,4,0,4,0,1,3,1,0,240,5,1,239,,,,,,,,,,,,,,,,,,
,,0,192,,,,,,,3,2,2,stim/22.jpeg,Instruments,1,stim/objects/Instruments/harmonica2.png,0.9,4,0.2,-0.15,left,41,2020-12-07_01h12.40.563,premup-three_ses-01_part-01_label-phase1,3.2.4,MacIntel,60,right,0.437999964,4,0,4,0,1,3,1,0,240,225,1,239,,,,,,,,,,,,,,,,,,
,,1,193,,,,,,,3,2,2,stim/22.jpeg,Instruments,1,stim/objects/Instruments/harmonica2.png,0.9,3,-0.2,-0.15,left,41,2020-12-07_01h12.40.563,premup-three_ses-01_part-01_label-phase1,3.2.4,MacIntel,60,left,0.332999945,4,0,4,0,1,3,1,0,240,213,1,239,,,,,,,,,,,,,,,,,,
,,0,194,,,,,,,2,5,2,stim/52.jpeg,HouseObjects,2,stim/objects/HouseObjects/hairdryer.png,0.7,3,-0.2,-0.15,right,41,2020-12-07_01h12.40.563,premup-three_ses-01_part-01_label-phase1,3.2.4,MacIntel,60,left,0.447999954,4,0,4,0,1,3,1,0,240,117,1,239,,,,,,,,,,,,,,,,,,
,,1,195,,,,,,,2,6,1,stim/61.jpeg,Instruments,1,stim/objects/Instruments/drums2.png,0.7,3,-0.2,-0.15,left,41,2020-12-07_01h12.40.563,premup-three_ses-01_part-01_label-phase1,3.2.4,MacIntel,60,left,0.470000029,4,0,4,0,1,3,1,0,240,132,1,239,,,,,,,,,,,,,,,,,,
,,0,196,,,,,,,1,3,2,stim/32.jpeg,HouseObjects,2,stim/objects/HouseObjects/cushion.png,0.5,1,-0.2,0.15,right,41,2020-12-07_01h12.40.563,premup-three_ses-01_part-01_label-phase1,3.2.4,MacIntel,60,left,0.705999851,4,0,4,0,1,3,1,0,240,33,1,239,,,,,,,,,,,,,,,,,,
,,1,197,,,,,,,2,6,4,stim/64.jpeg,Instruments,1,stim/objects/Instruments/flute2.png,0.7,4,0.2,-0.15,left,41,2020-12-07_01h12.40.563,premup-three_ses-01_part-01_label-phase1,3.2.4,MacIntel,60,left,0.190999985,4,0,4,0,1,3,1,0,240,127,1,239,,,,,,,,,,,,,,,,,,
,,1,198,,,,,,,3,1,1,stim/11.jpeg,HouseObjects,2,stim/objects/HouseObjects/dustpan2.png,0.9,4,0.2,-0.15,right,41,2020-12-07_01h12.40.563,premup-three_ses-01_part-01_label-phase1,3.2.4,MacIntel,60,right,0.468999863,4,0,4,0,1,3,1,0,240,176,1,239,,,,,,,,,,,,,,,,,,
,,1,199,,,,,,,2,6,2,stim/62.jpeg,Instruments,1,stim/objects/Instruments/electricdrumset2.png,0.7,1,-0.2,0.15,left,41,2020-12-07_01h12.40.563,premup-three_ses-01_part-01_label-phase1,3.2.4,MacIntel,60,left,0.664999962,4,0,4,0,1,3,1,0,240,141,1,239,,,,,,,,,,,,,,,,,,
,,1,200,,,,,,,3,2,4,stim/24.jpeg,Instruments,1,stim/objects/Instruments/hihat2.png,0.9,1,-0.2,0.15,left,41,2020-12-07_01h12.40.563,premup-three_ses-01_part-01_label-phase1,3.2.4,MacIntel,60,left,1.110999823,4,0,4,0,1,3,1,0,240,223,1,239,,,,,,,,,,,,,,,,,,
,,0,201,,,,,,,3,2,2,stim/22.jpeg,Instruments,1,stim/objects/Instruments/harmonica2.png,0.9,1,-0.2,0.15,left,41,2020-12-07_01h12.40.563,premup-three_ses-01_part-01_label-phase1,3.2.4,MacIntel,60,right,0.664999962,4,0,4,0,1,3,1,0,240,201,1,239,,,,,,,,,,,,,,,,,,
,,0,202,,,,,,,1,3,4,stim/34.jpeg,HouseObjects,2,stim/objects/HouseObjects/doormat.png,0.5,1,-0.2,0.15,right,41,2020-12-07_01h12.40.563,premup-three_ses-01_part-01_label-phase1,3.2.4,MacIntel,60,left,0.472999811,4,0,4,0,1,3,1,0,240,31,1,239,,,,,,,,,,,,,,,,,,
,,1,203,,,,,,,1,4,2,stim/42.jpeg,HouseObjects,2,stim/objects/HouseObjects/flyswatter.png,0.5,2,0.2,0.15,right,41,2020-12-07_01h12.40.563,premup-three_ses-01_part-01_label-phase1,3.2.4,MacIntel,60,right,0.529000044,4,0,4,0,1,3,1,0,240,77,1,239,,,,,,,,,,,,,,,,,,
,,0,204,,,,,,,2,6,1,stim/61.jpeg,Instruments,1,stim/objects/Instruments/drums2.png,0.7,4,0.2,-0.15,left,41,2020-12-07_01h12.40.563,premup-three_ses-01_part-01_label-phase1,3.2.4,MacIntel,60,right,0.727999926,4,0,4,0,1,3,1,0,240,144,1,239,,,,,,,,,,,,,,,,,,
,,0,205,,,,,,,1,4,4,stim/44.jpeg,HouseObjects,2,stim/objects/HouseObjects/glass.png,0.5,3,-0.2,-0.15,right,41,2020-12-07_01h12.40.563,premup-three_ses-01_part-01_label-phase1,3.2.4,MacIntel,60,left,1.072999954,4,0,4,0,1,3,1,0,240,75,1,239,,,,,,,,,,,,,,,,,,
,,0,206,,,,,,,1,3,2,stim/32.jpeg,HouseObjects,2,stim/objects/HouseObjects/cushion.png,0.5,1,-0.2,0.15,right,41,2020-12-07_01h12.40.563,premup-three_ses-01_part-01_label-phase1,3.2.4,MacIntel,60,left,0.463000059,4,0,4,0,1,3,1,0,240,29,1,239,,,,,,,,,,,,,,,,,,
,,1,207,,,,,,,1,3,3,stim/33.jpeg,Instruments,1,stim/objects/Instruments/electricguitar.png,0.5,1,-0.2,0.15,left,41,2020-12-07_01h12.40.563,premup-three_ses-01_part-01_label-phase1,3.2.4,MacIntel,60,left,0.536000013,4,0,4,0,1,3,1,0,240,10,1,239,,,,,,,,,,,,,,,,,,
,,0,208,,,,,,,2,5,4,stim/54.jpeg,HouseObjects,2,stim/objects/HouseObjects/handvacuum.png,0.7,3,-0.2,-0.15,right,41,2020-12-07_01h12.40.563,premup-three_ses-01_part-01_label-phase1,3.2.4,MacIntel,60,left,0.802000046,4,0,4,0,1,3,1,0,240,95,1,239,,,,,,,,,,,,,,,,,,
,,1,209,,,,,,,3,2,2,stim/22.jpeg,Instruments,1,stim/objects/Instruments/harmonica2.png,0.9,3,-0.2,-0.15,left,41,2020-12-07_01h12.40.563,premup-three_ses-01_part-01_label-phase1,3.2.4,MacIntel,60,left,0.395999908,4,0,4,0,1,3,1,0,240,229,1,239,,,,,,,,,,,,,,,,,,
,,0,210,,,,,,,2,6,1,stim/61.jpeg,Instruments,1,stim/objects/Instruments/drums2.png,0.7,1,-0.2,0.15,left,41,2020-12-07_01h12.40.563,premup-three_ses-01_part-01_label-phase1,3.2.4,MacIntel,60,right,0.760999918,4,0,4,0,1,3,1,0,240,120,1,239,,,,,,,,,,,,,,,,,,
,,0,211,,,,,,,3,2,4,stim/24.jpeg,Instruments,1,stim/objects/Instruments/hihat2.png,0.9,1,-0.2,0.15,left,41,2020-12-07_01h12.40.563,premup-three_ses-01_part-01_label-phase1,3.2.4,MacIntel,60,right,0.395999908,4,0,4,0,1,3,1,0,240,203,1,239,,,,,,,,,,,,,,,,,,
,,0,212,,,,,,,1,4,4,stim/44.jpeg,HouseObjects,2,stim/objects/HouseObjects/glass.png,0.5,3,-0.2,-0.15,right,41,2020-12-07_01h12.40.563,premup-three_ses-01_part-01_label-phase1,3.2.4,MacIntel,60,left,0.525999784,4,0,4,0,1,3,1,0,240,71,1,239,,,,,,,,,,,,,,,,,,
,,1,213,,,,,,,2,5,2,stim/52.jpeg,HouseObjects,2,stim/objects/HouseObjects/hairdryer.png,0.7,2,0.2,0.15,right,41,2020-12-07_01h12.40.563,premup-three_ses-01_part-01_label-phase1,3.2.4,MacIntel,60,right,0.674999952,4,0,4,0,1,3,1,0,240,101,1,239,,,,,,,,,,,,,,,,,,
,,0,214,,,,,,,3,2,3,stim/23.jpeg,Instruments,1,stim/objects/Instruments/harp2.png,0.9,4,0.2,-0.15,left,41,2020-12-07_01h12.40.563,premup-three_ses-01_part-01_label-phase1,3.2.4,MacIntel,60,right,0.587999821,4,0,4,0,1,3,1,0,240,222,1,239,,,,,,,,,,,,,,,,,,
,,0,215,,,,,,,3,1,1,stim/11.jpeg,HouseObjects,2,stim/objects/HouseObjects/dustpan2.png,0.9,3,-0.2,-0.15,right,41,2020-12-07_01h12.40.563,premup-three_ses-01_part-01_label-phase1,3.2.4,MacIntel,60,left,0.4599998,4,0,4,0,1,3,1,0,240,192,1,239,,,,,,,,,,,,,,,,,,
,,0,216,,,,,,,2,6,1,stim/61.jpeg,HouseObjects,2,stim/objects/HouseObjects/coffee2.png,0.3,3,-0.2,-0.15,right,41,2020-12-07_01h12.40.563,premup-three_ses-01_part-01_label-phase1,3.2.4,MacIntel,60,left,0.515999794,4,0,4,0,1,3,1,0,240,148,1,239,,,,,,,,,,,,,,,,,,
,,0,217,,,,,,,3,1,4,stim/14.jpeg,HouseObjects,2,stim/objects/HouseObjects/glass2.png,0.9,2,0.2,0.15,right,41,2020-12-07_01h12.40.563,premup-three_ses-01_part-01_label-phase1,3.2.4,MacIntel,60,left,0.846999884,4,0,4,0,1,3,1,0,240,175,1,239,,,,,,,,,,,,,,,,,,
,,0,218,,,,,,,3,2,3,stim/23.jpeg,Instruments,1,stim/objects/Instruments/harp2.png,0.9,1,-0.2,0.15,left,41,2020-12-07_01h12.40.563,premup-three_ses-01_part-01_label-phase1,3.2.4,MacIntel,60,right,0.645999908,4,0,4,0,1,3,1,0,240,226,1,239,,,,,,,,,,,,,,,,,,
,,1,219,,,,,,,3,2,4,stim/24.jpeg,HouseObjects,2,stim/objects/HouseObjects/handvacuum2.png,0.1,3,-0.2,-0.15,right,41,2020-12-07_01h12.40.563,premup-three_ses-01_part-01_label-phase1,3.2.4,MacIntel,60,right,0.726000071,4,0,4,0,1,3,1,0,240,239,1,239,,,,,,,,,,,,,,,,,,
,,1,220,,,,,,,2,6,3,stim/63.jpeg,Instruments,1,stim/objects/Instruments/electricguitar2.png,0.7,2,0.2,0.15,left,41,2020-12-07_01h12.40.563,premup-three_ses-01_part-01_label-phase1,3.2.4,MacIntel,60,left,0.644000053,4,0,4,0,1,3,1,0,240,134,1,239,,,,,,,,,,,,,,,,,,
,,0,221,,,,,,,2,6,1,stim/61.jpeg,HouseObjects,2,stim/objects/HouseObjects/coffee2.png,0.3,2,0.2,0.15,right,41,2020-12-07_01h12.40.563,premup-three_ses-01_part-01_label-phase1,3.2.4,MacIntel,60,left,0.631999731,4,0,4,0,1,3,1,0,240,152,1,239,,,,,,,,,,,,,,,,,,
,,0,222,,,,,,,1,4,2,stim/42.jpeg,HouseObjects,2,stim/objects/HouseObjects/flyswatter.png,0.5,2,0.2,0.15,right,41,2020-12-07_01h12.40.563,premup-three_ses-01_part-01_label-phase1,3.2.4,MacIntel,60,left,0.629999876,4,0,4,0,1,3,1,0,240,73,1,239,,,,,,,,,,,,,,,,,,
,,1,223,,,,,,,3,1,2,stim/12.jpeg,HouseObjects,2,stim/objects/HouseObjects/flyswatter2.png,0.9,2,0.2,0.15,right,41,2020-12-07_01h12.40.563,premup-three_ses-01_part-01_label-phase1,3.2.4,MacIntel,60,right,0.464999914,4,0,4,0,1,3,1,0,240,173,1,239,,,,,,,,,,,,,,,,,,
,,1,224,,,,,,,1,4,3,stim/43.jpeg,HouseObjects,2,stim/objects/HouseObjects/garbagebin.png,0.5,3,-0.2,-0.15,right,41,2020-12-07_01h12.40.563,premup-three_ses-01_part-01_label-phase1,3.2.4,MacIntel,60,right,0.54399991,4,0,4,0,1,3,1,0,240,74,1,239,,,,,,,,,,,,,,,,,,
,,0,225,,,,,,,1,4,4,stim/44.jpeg,HouseObjects,2,stim/objects/HouseObjects/glass.png,0.5,1,-0.2,0.15,right,41,2020-12-07_01h12.40.563,premup-three_ses-01_part-01_label-phase1,3.2.4,MacIntel,60,left,0.737999916,4,0,4,0,1,3,1,0,240,79,1,239,,,,,,,,,,,,,,,,,,
,,1,226,,,,,,,3,1,4,stim/14.jpeg,Instruments,1,stim/objects/Instruments/grandpiano2.png,0.1,2,0.2,0.15,left,41,2020-12-07_01h12.40.563,premup-three_ses-01_part-01_label-phase1,3.2.4,MacIntel,60,left,0.552000046,4,0,4,0,1,3,1,0,240,163,1,239,,,,,,,,,,,,,,,,,,
,,0,227,,,,,,,2,6,3,stim/63.jpeg,Instruments,1,stim/objects/Instruments/electricguitar2.png,0.7,3,-0.2,-0.15,left,41,2020-12-07_01h12.40.563,premup-three_ses-01_part-01_label-phase1,3.2.4,MacIntel,60,right,0.628999949,4,0,4,0,1,3,1,0,240,122,1,239,,,,,,,,,,,,,,,,,,
,,0,228,,,,,,,2,5,2,stim/52.jpeg,HouseObjects,2,stim/objects/HouseObjects/hairdryer.png,0.7,2,0.2,0.15,right,41,2020-12-07_01h12.40.563,premup-three_ses-01_part-01_label-phase1,3.2.4,MacIntel,60,left,0.490999937,4,0,4,0,1,3,1,0,240,105,1,239,,,,,,,,,,,,,,,,,,
,,0,229,,,,,,,1,4,3,stim/43.jpeg,Instruments,1,stim/objects/Instruments/gong.png,0.5,2,0.2,0.15,left,41,2020-12-07_01h12.40.563,premup-three_ses-01_part-01_label-phase1,3.2.4,MacIntel,60,right,0.523999929,4,0,4,0,1,3,1,0,240,54,1,239,,,,,,,,,,,,,,,,,,
,,1,230,,,,,,,2,5,2,stim/52.jpeg,HouseObjects,2,stim/objects/HouseObjects/hairdryer.png,0.7,3,-0.2,-0.15,right,41,2020-12-07_01h12.40.563,premup-three_ses-01_part-01_label-phase1,3.2.4,MacIntel,60,right,0.74000001,4,0,4,0,1,3,1,0,240,113,1,239,,,,,,,,,,,,,,,,,,
,,0,231,,,,,,,2,6,2,stim/62.jpeg,HouseObjects,2,stim/objects/HouseObjects/cushion2.png,0.3,4,0.2,-0.15,right,41,2020-12-07_01h12.40.563,premup-three_ses-01_part-01_label-phase1,3.2.4,MacIntel,60,left,0.820999861,4,0,4,0,1,3,1,0,240,149,1,239,,,,,,,,,,,,,,,,,,
,,1,232,,,,,,,1,3,2,stim/32.jpeg,Instruments,1,stim/objects/Instruments/electricdrumset.png,0.5,4,0.2,-0.15,left,41,2020-12-07_01h12.40.563,premup-three_ses-01_part-01_label-phase1,3.2.4,MacIntel,60,left,0.580999851,4,0,4,0,1,3,1,0,240,13,1,239,,,,,,,,,,,,,,,,,,
,,0,233,,,,,,,3,2,1,stim/21.jpeg,Instruments,1,stim/objects/Instruments/guitarcase2.png,0.9,2,0.2,0.15,left,41,2020-12-07_01h12.40.563,premup-three_ses-01_part-01_label-phase1,3.2.4,MacIntel,60,right,0.941999912,4,0,4,0,1,3,1,0,240,224,1,239,,,,,,,,,,,,,,,,,,
,,0,234,,,,,,,1,3,3,stim/33.jpeg,HouseObjects,2,stim/objects/HouseObjects/dishsoap.png,0.5,3,-0.2,-0.15,right,41,2020-12-07_01h12.40.563,premup-three_ses-01_part-01_label-phase1,3.2.4,MacIntel,60,left,0.501999855,4,0,4,0,1,3,1,0,240,30,1,239,,,,,,,,,,,,,,,,,,
,,0,235,,,,,,,1,4,2,stim/42.jpeg,HouseObjects,2,stim/objects/HouseObjects/flyswatter.png,0.5,3,-0.2,-0.15,right,41,2020-12-07_01h12.40.563,premup-three_ses-01_part-01_label-phase1,3.2.4,MacIntel,60,left,0.737999916,4,0,4,0,1,3,1,0,240,69,1,239,,,,,,,,,,,,,,,,,,
,,0,236,,,,,,,3,2,2,stim/22.jpeg,Instruments,1,stim/objects/Instruments/harmonica2.png,0.9,4,0.2,-0.15,left,41,2020-12-07_01h12.40.563,premup-three_ses-01_part-01_label-phase1,3.2.4,MacIntel,60,right,0.700999737,4,0,4,0,1,3,1,0,240,209,1,239,,,,,,,,,,,,,,,,,,
,,1,237,,,,,,,3,1,2,stim/12.jpeg,Instruments,1,stim/objects/Instruments/frenchhorn2.png,0.1,3,-0.2,-0.15,left,41,2020-12-07_01h12.40.563,premup-three_ses-01_part-01_label-phase1,3.2.4,MacIntel,60,left,1.390999794,4,0,4,0,1,3,1,0,240,161,1,239,,,,,,,,,,,,,,,,,,
,,0,238,,,,,,,2,6,3,stim/63.jpeg,Instruments,1,stim/objects/Instruments/electricguitar2.png,0.7,2,0.2,0.15,left,41,2020-12-07_01h12.40.563,premup-three_ses-01_part-01_label-phase1,3.2.4,MacIntel,60,right,1.287999868,4,0,4,0,1,3,1,0,240,138,1,239,,,,,,,,,,,,,,,,,,
,,0,239,,,,,,,1,4,2,stim/42.jpeg,Instruments,1,stim/objects/Instruments/frenchhorn.png,0.5,2,0.2,0.15,left,41,2020-12-07_01h12.40.563,premup-three_ses-01_part-01_label-phase1,3.2.4,MacIntel,60,right,0.881999969,4,0,4,0,1,3,1,0,240,41,1,239,,,,,,,,,,,,,,,,,,
,,0,240,,,,,,,1,3,1,stim/31.jpeg,Instruments,1,stim/objects/Instruments/drums.png,0.5,1,-0.2,0.15,left,41,2020-12-07_01h12.40.563,premup-three_ses-01_part-01_label-phase1,3.2.4,MacIntel,60,right,0.947000027,4,0,4,0,1,3,1,0,240,8,1,239,,,,,,,,,,,,,,,,,,
,,,,,,,,,,,1,,stim/11.jpeg,,,,,,,,,41,2020-12-07_01h12.40.563,premup-three_ses-01_part-01_label-phase1,3.2.4,MacIntel,60,,,4,0,4,0,1,3,,,,,,,1,0,79,11.80599999,,,1,0,6,0,1,5,Music items,45,55,Household items,45,55
,,,,,,,,,,,3,,stim/31.jpeg,,,,,,,,,41,2020-12-07_01h12.40.563,premup-three_ses-01_part-01_label-phase1,3.2.4,MacIntel,60,,,4,0,4,0,1,3,,,,,,,1,0,80,3.467999935,,,1,0,6,2,1,5,Music items,65,75,Household items,25,35
,,,,,,,,,,,4,,stim/41.jpeg,,,,,,,,,41,2020-12-07_01h12.40.563,premup-three_ses-01_part-01_label-phase1,3.2.4,MacIntel,60,,,4,0,4,0,1,3,,,,,,,1,0,19,6.338000059,,,1,0,6,3,1,5,Music items,65,75,Household items,25,35
,,,,,,,,,,,6,,stim/61.jpeg,,,,,,,,,41,2020-12-07_01h12.40.563,premup-three_ses-01_part-01_label-phase1,3.2.4,MacIntel,60,,,4,0,4,0,1,3,,,,,,,1,0,80,6.279000044,,,1,0,6,5,1,5,Music items,5,15,Household items,85,95
,,,,,,,,,,,2,,stim/21.jpeg,,,,,,,,,41,2020-12-07_01h12.40.563,premup-three_ses-01_part-01_label-phase1,3.2.4,MacIntel,60,,,4,0,4,0,1,3,,,,,,,1,1,51,5.134000063,,,1,0,6,1,1,5,Household items,45,55,Music items,45,55
,,,,,,,,,,,5,,stim/51.jpeg,,,,,,,,,41,2020-12-07_01h12.40.563,premup-three_ses-01_part-01_label-phase1,3.2.4,MacIntel,60,,,4,0,4,0,1,3,,,,,,,1,1,27,3.073999882,,,1,0,6,4,1,5,Household items,5,15,Music items,85,95
,,,,,,,,,,,,,,,,,,,,,,41,2020-12-07_01h12.40.563,premup-three_ses-01_part-01_label-phase1,3.2.4,MacIntel,60,,,4,0,4,0,1,3,,,,,,,,,,,,,,,,,,,,,,,,
,,0,1,,,,,,,3,1,2,stim/12.jpeg,HouseObjects,2,stim/objects/HouseObjects/flyswatter2.png,0.9,4,0.2,-0.15,right,41,2020-12-07_01h12.40.563,premup-three_ses-01_part-01_label-phase1,3.2.4,MacIntel,60,left,1.100999832,4,0,4,0,1,3,1,0,240,177,1,239,,,,,,,,,,,,,,,,,,
,,0,2,,,,,,,2,6,4,stim/64.jpeg,HouseObjects,2,stim/objects/HouseObjects/doormat2.png,0.3,2,0.2,0.15,right,41,2020-12-07_01h12.40.563,premup-three_ses-01_part-01_label-phase1,3.2.4,MacIntel,60,left,0.662999868,4,0,4,0,1,3,1,0,240,159,1,239,,,,,,,,,,,,,,,,,,
,,1,3,,,,,,,2,6,4,stim/64.jpeg,HouseObjects,2,stim/objects/HouseObjects/doormat2.png,0.3,1,-0.2,0.15,right,41,2020-12-07_01h12.40.563,premup-three_ses-01_part-01_label-phase1,3.2.4,MacIntel,60,right,0.548000097,4,0,4,0,1,3,1,0,240,155,1,239,,,,,,,,,,,,,,,,,,
,,0,4,,,,,,,1,3,4,stim/34.jpeg,HouseObjects,2,stim/objects/HouseObjects/doormat.png,0.5,3,-0.2,-0.15,right,41,2020-12-07_01h12.40.563,premup-three_ses-01_part-01_label-phase1,3.2.4,MacIntel,60,left,1.0849998,4,0,4,0,1,3,1,0,240,39,1,239,,,,,,,,,,,,,,,,,,
,,1,5,,,,,,,3,1,4,stim/14.jpeg,HouseObjects,2,stim/objects/HouseObjects/glass2.png,0.9,3,-0.2,-0.15,right,41,2020-12-07_01h12.40.563,premup-three_ses-01_part-01_label-phase1,3.2.4,MacIntel,60,right,0.581999779,4,0,4,0,1,3,1,0,240,195,1,239,,,,,,,,,,,,,,,,,,
,,1,6,,,,,,,3,1,2,stim/12.jpeg,HouseObjects,2,stim/objects/HouseObjects/flyswatter2.png,0.9,1,-0.2,0.15,right,41,2020-12-07_01h12.40.563,premup-three_ses-01_part-01_label-phase1,3.2.4,MacIntel,60,right,0.628999949,4,0,4,0,1,3,1,0,240,169,1,239,,,,,,,,,,,,,,,,,,
,,0,7,,,,,,,2,5,1,stim/51.jpeg,Instruments,1,stim/objects/Instruments/guitarcase.png,0.3,1,-0.2,0.15,left,41,2020-12-07_01h12.40.563,premup-three_ses-01_part-01_label-phase1,3.2.4,MacIntel,60,right,0.779000044,4,0,4,0,1,3,1,0,240,88,1,239,,,,,,,,,,,,,,,,,,
,,1,8,,,,,,,2,5,4,stim/54.jpeg,HouseObjects,2,stim/objects/HouseObjects/handvacuum.png,0.7,1,-0.2,0.15,right,41,2020-12-07_01h12.40.563,premup-three_ses-01_part-01_label-phase1,3.2.4,MacIntel,60,right,0.500999928,4,0,4,0,1,3,1,0,240,111,1,239,,,,,,,,,,,,,,,,,,
,,1,9,,,,,,,2,6,4,stim/64.jpeg,Instruments,1,stim/objects/Instruments/flute2.png,0.7,2,0.2,0.15,left,41,2020-12-07_01h12.40.563,premup-three_ses-01_part-01_label-phase1,3.2.4,MacIntel,60,left,0.703000069,4,0,4,0,1,3,1,0,240,131,1,239,,,,,,,,,,,,,,,,,,
,,1,10,,,,,,,3,2,1,stim/21.jpeg,Instruments,1,stim/objects/Instruments/guitarcase2.png,0.9,2,0.2,0.15,left,41,2020-12-07_01h12.40.563,premup-three_ses-01_part-01_label-phase1,3.2.4,MacIntel,60,left,0.888000011,4,0,4,0,1,3,1,0,240,224,1,239,,,,,,,,,,,,,,,,,,
,,0,11,,,,,,,1,4,2,stim/42.jpeg,Instruments,1,stim/objects/Instruments/frenchhorn.png,0.5,3,-0.2,-0.15,left,41,2020-12-07_01h12.40.563,premup-three_ses-01_part-01_label-phase1,3.2.4,MacIntel,60,right,1.065999985,4,0,4,0,1,3,1,0,240,53,1,239,,,,,,,,,,,,,,,,,,
,,0,12,,,,,,,1,3,2,stim/32.jpeg,Instruments,1,stim/objects/Instruments/electricdrumset.png,0.5,4,0.2,-0.15,left,41,2020-12-07_01h12.40.563,premup-three_ses-01_part-01_label-phase1,3.2.4,MacIntel,60,right,0.753999949,4,0,4,0,1,3,1,0,240,13,1,239,,,,,,,,,,,,,,,,,,
,,0,13,,,,,,,1,4,3,stim/43.jpeg,HouseObjects,2,stim/objects/HouseObjects/garbagebin.png,0.5,3,-0.2,-0.15,right,41,2020-12-07_01h12.40.563,premup-three_ses-01_part-01_label-phase1,3.2.4,MacIntel,60,left,1.453999758,4,0,4,0,1,3,1,0,240,66,1,239,,,,,,,,,,,,,,,,,,
,,0,14,,,,,,,3,1,3,stim/13.jpeg,HouseObjects,2,stim/objects/HouseObjects/garbagebin2.png,0.9,3,-0.2,-0.15,right,41,2020-12-07_01h12.40.563,premup-three_ses-01_part-01_label-phase1,3.2.4,MacIntel,60,left,1.073999882,4,0,4,0,1,3,1,0,240,198,1,239,,,,,,,,,,,,,,,,,,
,,0,15,,,,,,,1,4,4,stim/44.jpeg,HouseObjects,2,stim/objects/HouseObjects/glass.png,0.5,4,0.2,-0.15,right,41,2020-12-07_01h12.40.563,premup-three_ses-01_part-01_label-phase1,3.2.4,MacIntel,60,left,1.089999914,4,0,4,0,1,3,1,0,240,63,1,239,,,,,,,,,,,,,,,,,,
,,1,16,,,,,,,3,2,1,stim/21.jpeg,Instruments,1,stim/objects/Instruments/guitarcase2.png,0.9,1,-0.2,0.15,left,41,2020-12-07_01h12.40.563,premup-three_ses-01_part-01_label-phase1,3.2.4,MacIntel,60,left,0.811999798,4,0,4,0,1,3,1,0,240,220,1,239,,,,,,,,,,,,,,,,,,
,,0,17,,,,,,,3,1,4,stim/14.jpeg,HouseObjects,2,stim/objects/HouseObjects/glass2.png,0.9,4,0.2,-0.15,right,41,2020-12-07_01h12.40.563,premup-three_ses-01_part-01_label-phase1,3.2.4,MacIntel,60,left,0.815999746,4,0,4,0,1,3,1,0,240,191,1,239,,,,,,,,,,,,,,,,,,
,,0,18,,,,,,,3,2,4,stim/24.jpeg,Instruments,1,stim/objects/Instruments/hihat2.png,0.9,3,-0.2,-0.15,left,41,2020-12-07_01h12.40.563,premup-three_ses-01_part-01_label-phase1,3.2.4,MacIntel,60,right,0.38499999,4,0,4,0,1,3,1,0,240,235,1,239,,,,,,,,,,,,,,,,,,
,,1,19,,,,,,,3,2,2,stim/22.jpeg,Instruments,1,stim/objects/Instruments/harmonica2.png,0.9,2,0.2,0.15,left,41,2020-12-07_01h12.40.563,premup-three_ses-01_part-01_label-phase1,3.2.4,MacIntel,60,left,0.454999924,4,0,4,0,1,3,1,0,240,205,1,239,,,,,,,,,,,,,,,,,,
,,0,20,,,,,,,2,6,1,stim/61.jpeg,HouseObjects,2,stim/objects/HouseObjects/coffee2.png,0.3,2,0.2,0.15,right,41,2020-12-07_01h12.40.563,premup-three_ses-01_part-01_label-phase1,3.2.4,MacIntel,60,left,0.661999941,4,0,4,0,1,3,1,0,240,152,1,239,,,,,,,,,,,,,,,,,,
,,1,21,,,,,,,2,6,1,stim/61.jpeg,Instruments,1,stim/objects/Instruments/drums2.png,0.7,4,0.2,-0.15,left,41,2020-12-07_01h12.40.563,premup-three_ses-01_part-01_label-phase1,3.2.4,MacIntel,60,left,0.44299984,4,0,4,0,1,3,1,0,240,144,1,239,,,,,,,,,,,,,,,,,,
,,1,22,,,,,,,3,1,2,stim/12.jpeg,HouseObjects,2,stim/objects/HouseObjects/flyswatter2.png,0.9,4,0.2,-0.15,right,41,2020-12-07_01h12.40.563,premup-three_ses-01_part-01_label-phase1,3.2.4,MacIntel,60,right,0.689999819,4,0,4,0,1,3,1,0,240,189,1,239,,,,,,,,,,,,,,,,,,
,,0,23,,,,,,,2,5,1,stim/51.jpeg,HouseObjects,2,stim/objects/HouseObjects/glassmop.png,0.7,2,0.2,0.15,right,41,2020-12-07_01h12.40.563,premup-three_ses-01_part-01_label-phase1,3.2.4,MacIntel,60,left,1.058999777,4,0,4,0,1,3,1,0,240,108,1,239,,,,,,,,,,,,,,,,,,
,,1,24,,,,,,,1,4,2,stim/42.jpeg,Instruments,1,stim/objects/Instruments/frenchhorn.png,0.5,3,-0.2,-0.15,left,41,2020-12-07_01h12.40.563,premup-three_ses-01_part-01_label-phase1,3.2.4,MacIntel,60,left,0.799000025,4,0,4,0,1,3,1,0,240,45,1,239,,,,,,,,,,,,,,,,,,
,,0,25,,,,,,,1,3,1,stim/31.jpeg,Instruments,1,stim/objects/Instruments/drums.png,0.5,2,0.2,0.15,left,41,2020-12-07_01h12.40.563,premup-three_ses-01_part-01_label-phase1,3.2.4,MacIntel,60,right,1.330999851,4,0,4,0,1,3,1,0,240,12,1,239,,,,,,,,,,,,,,,,,,
,,1,26,,,,,,,1,4,4,stim/44.jpeg,Instruments,1,stim/objects/Instruments/grandpiano.png,0.5,3,-0.2,-0.15,left,41,2020-12-07_01h12.40.563,premup-three_ses-01_part-01_label-phase1,3.2.4,MacIntel,60,left,0.598999977,4,0,4,0,1,3,1,0,240,43,1,239,,,,,,,,,,,,,,,,,,
,,1,27,,,,,,,3,1,1,stim/11.jpeg,Instruments,1,stim/objects/Instruments/flutetrans2.png,0.1,3,-0.2,-0.15,left,41,2020-12-07_01h12.40.563,premup-three_ses-01_part-01_label-phase1,3.2.4,MacIntel,60,left,0.907000065,4,0,4,0,1,3,1,0,240,160,1,239,,,,,,,,,,,,,,,,,,
,,0,28,,,,,,,2,5,2,stim/52.jpeg,Instruments,1,stim/objects/Instruments/harmonica.png,0.3,1,-0.2,0.15,left,41,2020-12-07_01h12.40.563,premup-three_ses-01_part-01_label-phase1,3.2.4,MacIntel,60,right,1.106999874,4,0,4,0,1,3,1,0,240,89,1,239,,,,,,,,,,,,,,,,,,
,,0,29,,,,,,,1,3,4,stim/34.jpeg,Instruments,1,stim/objects/Instruments/flute.png,0.5,2,0.2,0.15,left,41,2020-12-07_01h12.40.563,premup-three_ses-01_part-01_label-phase1,3.2.4,MacIntel,60,right,0.541999817,4,0,4,0,1,3,1,0,240,11,1,239,,,,,,,,,,,,,,,,,,
,,0,30,,,,,,,2,6,2,stim/62.jpeg,HouseObjects,2,stim/objects/HouseObjects/cushion2.png,0.3,1,-0.2,0.15,right,41,2020-12-07_01h12.40.563,premup-three_ses-01_part-01_label-phase1,3.2.4,MacIntel,60,left,0.379999876,4,0,4,0,1,3,1,0,240,157,1,239,,,,,,,,,,,,,,,,,,
,,0,31,,,,,,,2,5,4,stim/54.jpeg,HouseObjects,2,stim/objects/HouseObjects/handvacuum.png,0.7,2,0.2,0.15,right,41,2020-12-07_01h12.40.563,premup-three_ses-01_part-01_label-phase1,3.2.4,MacIntel,60,left,0.280999899,4,0,4,0,1,3,1,0,240,107,1,239,,,,,,,,,,,,,,,,,,
,,1,32,,,,,,,1,4,1,stim/41.jpeg,HouseObjects,2,stim/objects/HouseObjects/dustpan.png,0.5,4,0.2,-0.15,right,41,2020-12-07_01h12.40.563,premup-three_ses-01_part-01_label-phase1,3.2.4,MacIntel,60,right,0.501999855,4,0,4,0,1,3,1,0,240,76,1,239,,,,,,,,,,,,,,,,,,
,,0,33,,,,,,,2,6,3,stim/63.jpeg,Instruments,1,stim/objects/Instruments/electricguitar2.png,0.7,1,-0.2,0.15,left,41,2020-12-07_01h12.40.563,premup-three_ses-01_part-01_label-phase1,3.2.4,MacIntel,60,right,0.967999935,4,0,4,0,1,3,1,0,240,126,1,239,,,,,,,,,,,,,,,,,,
,,1,34,,,,,,,2,6,4,stim/64.jpeg,Instruments,1,stim/objects/Instruments/flute2.png,0.7,1,-0.2,0.15,left,41,2020-12-07_01h12.40.563,premup-three_ses-01_part-01_label-phase1,3.2.4,MacIntel,60,left,0.644000053,4,0,4,0,1,3,1,0,240,139,1,239,,,,,,,,,,,,,,,,,,
,,0,35,,,,,,,2,5,4,stim/54.jpeg,HouseObjects,2,stim/objects/HouseObjects/handvacuum.png,0.7,1,-0.2,0.15,right,41,2020-12-07_01h12.40.563,premup-three_ses-01_part-01_label-phase1,3.2.4,MacIntel,60,,,4,0,4,0,1,3,1,0,240,99,1,239,,,,,,,,,,,,,,,,,,
,,0,36,,,,,,,1,4,4,stim/44.jpeg,Instruments,1,stim/objects/Instruments/grandpiano.png,0.5,2,0.2,0.15,left,41,2020-12-07_01h12.40.563,premup-three_ses-01_part-01_label-phase1,3.2.4,MacIntel,60,right,0.559000015,4,0,4,0,1,3,1,0,240,47,1,239,,,,,,,,,,,,,,,,,,
,,0,37,,,,,,,2,5,4,stim/54.jpeg,HouseObjects,2,stim/objects/HouseObjects/handvacuum.png,0.7,3,-0.2,-0.15,right,41,2020-12-07_01h12.40.563,premup-three_ses-01_part-01_label-phase1,3.2.4,MacIntel,60,left,0.402999878,4,0,4,0,1,3,1,0,240,95,1,239,,,,,,,,,,,,,,,,,,
,,0,38,,,,,,,2,5,2,stim/52.jpeg,HouseObjects,2,stim/objects/HouseObjects/hairdryer.png,0.7,3,-0.2,-0.15,right,41,2020-12-07_01h12.40.563,premup-three_ses-01_part-01_label-phase1,3.2.4,MacIntel,60,left,0.457999945,4,0,4,0,1,3,1,0,240,93,1,239,,,,,,,,,,,,,,,,,,
,,0,39,,,,,,,2,6,3,stim/63.jpeg,Instruments,1,stim/objects/Instruments/electricguitar2.png,0.7,3,-0.2,-0.15,left,41,2020-12-07_01h12.40.563,premup-three_ses-01_part-01_label-phase1,3.2.4,MacIntel,60,right,0.406999826,4,0,4,0,1,3,1,0,240,142,1,239,,,,,,,,,,,,,,,,,,
,,0,40,,,,,,,3,1,4,stim/14.jpeg,HouseObjects,2,stim/objects/HouseObjects/glass2.png,0.9,1,-0.2,0.15,right,41,2020-12-07_01h12.40.563,premup-three_ses-01_part-01_label-phase1,3.2.4,MacIntel,60,left,0.477999926,4,0,4,0,1,3,1,0,240,199,1,239,,,,,,,,,,,,,,,,,,
,,0,41,,,,,,,1,4,2,stim/42.jpeg,HouseObjects,2,stim/objects/HouseObjects/flyswatter.png,0.5,2,0.2,0.15,right,41,2020-12-07_01h12.40.563,premup-three_ses-01_part-01_label-phase1,3.2.4,MacIntel,60,left,0.479000092,4,0,4,0,1,3,1,0,240,61,1,239,,,,,,,,,,,,,,,,,,
,,1,42,,,,,,,2,6,3,stim/63.jpeg,Instruments,1,stim/objects/Instruments/electricguitar2.png,0.7,2,0.2,0.15,left,41,2020-12-07_01h12.40.563,premup-three_ses-01_part-01_label-phase1,3.2.4,MacIntel,60,left,0.733999968,4,0,4,0,1,3,1,0,240,130,1,239,,,,,,,,,,,,,,,,,,
,,1,43,,,,,,,2,5,3,stim/53.jpeg,HouseObjects,2,stim/objects/HouseObjects/handbrush.png,0.7,3,-0.2,-0.15,right,41,2020-12-07_01h12.40.563,premup-three_ses-01_part-01_label-phase1,3.2.4,MacIntel,60,right,0.513999939,4,0,4,0,1,3,1,0,240,118,1,239,,,,,,,,,,,,,,,,,,
,,0,44,,,,,,,1,4,1,stim/41.jpeg,Instruments,1,stim/objects/Instruments/flutetrans.png,0.5,4,0.2,-0.15,left,41,2020-12-07_01h12.40.563,premup-three_ses-01_part-01_label-phase1,3.2.4,MacIntel,60,right,0.609999895,4,0,4,0,1,3,1,0,240,48,1,239,,,,,,,,,,,,,,,,,,
,,1,45,,,,,,,3,1,3,stim/13.jpeg,Instruments,1,stim/objects/Instruments/gong2.png,0.1,2,0.2,0.15,left,41,2020-12-07_01h12.40.563,premup-three_ses-01_part-01_label-phase1,3.2.4,MacIntel,60,left,1.218999863,4,0,4,0,1,3,1,0,240,162,1,239,,,,,,,,,,,,,,,,,,
,,0,46,,,,,,,2,6,2,stim/62.jpeg,HouseObjects,2,stim/objects/HouseObjects/cushion2.png,0.3,4,0.2,-0.15,right,41,2020-12-07_01h12.40.563,premup-three_ses-01_part-01_label-phase1,3.2.4,MacIntel,60,left,0.730999708,4,0,4,0,1,3,1,0,240,149,1,239,,,,,,,,,,,,,,,,,,
,,0,47,,,,,,,1,3,1,stim/31.jpeg,Instruments,1,stim/objects/Instruments/drums.png,0.5,2,0.2,0.15,left,41,2020-12-07_01h12.40.563,premup-three_ses-01_part-01_label-phase1,3.2.4,MacIntel,60,right,0.467999935,4,0,4,0,1,3,1,0,240,0,1,239,,,,,,,,,,,,,,,,,,
,,1,48,,,,,,,2,5,3,stim/53.jpeg,HouseObjects,2,stim/objects/HouseObjects/handbrush.png,0.7,2,0.2,0.15,right,41,2020-12-07_01h12.40.563,premup-three_ses-01_part-01_label-phase1,3.2.4,MacIntel,60,right,0.514999866,4,0,4,0,1,3,1,0,240,110,1,239,,,,,,,,,,,,,,,,,,
,,0,49,,,,,,,1,4,1,stim/41.jpeg,HouseObjects,2,stim/objects/HouseObjects/dustpan.png,0.5,1,-0.2,0.15,right,41,2020-12-07_01h12.40.563,premup-three_ses-01_part-01_label-phase1,3.2.4,MacIntel,60,left,0.875999928,4,0,4,0,1,3,1,0,240,72,1,239,,,,,,,,,,,,,,,,,,
,,1,50,,,,,,,1,4,1,stim/41.jpeg,Instruments,1,stim/objects/Instruments/flutetrans.png,0.5,2,0.2,0.15,left,41,2020-12-07_01h12.40.563,premup-three_ses-01_part-01_label-phase1,3.2.4,MacIntel,60,left,0.441999912,4,0,4,0,1,3,1,0,240,52,1,239,,,,,,,,,,,,,,,,,,
,,0,51,,,,,,,1,4,4,stim/44.jpeg,Instruments,1,stim/objects/Instruments/grandpiano.png,0.5,2,0.2,0.15,left,41,2020-12-07_01h12.40.563,premup-three_ses-01_part-01_label-phase1,3.2.4,MacIntel,60,right,0.896999836,4,0,4,0,1,3,1,0,240,55,1,239,,,,,,,,,,,,,,,,,,
,,1,52,,,,,,,3,1,2,stim/12.jpeg,HouseObjects,2,stim/objects/HouseObjects/flyswatter2.png,0.9,3,-0.2,-0.15,right,41,2020-12-07_01h12.40.563,premup-three_ses-01_part-01_label-phase1,3.2.4,MacIntel,60,right,0.503999949,4,0,4,0,1,3,1,0,240,193,1,239,,,,,,,,,,,,,,,,,,
,,0,53,,,,,,,3,1,2,stim/12.jpeg,HouseObjects,2,stim/objects/HouseObjects/flyswatter2.png,0.9,1,-0.2,0.15,right,41,2020-12-07_01h12.40.563,premup-three_ses-01_part-01_label-phase1,3.2.4,MacIntel,60,left,1.161999941,4,0,4,0,1,3,1,0,240,165,1,239,,,,,,,,,,,,,,,,,,
,,0,54,,,,,,,2,5,4,stim/54.jpeg,Instruments,1,stim/objects/Instruments/hihat.png,0.3,1,-0.2,0.15,left,41,2020-12-07_01h12.40.563,premup-three_ses-01_part-01_label-phase1,3.2.4,MacIntel,60,right,0.575000048,4,0,4,0,1,3,1,0,240,83,1,239,,,,,,,,,,,,,,,,,,
,,1,55,,,,,,,1,3,3,stim/33.jpeg,Instruments,1,stim/objects/Instruments/electricguitar.png,0.5,3,-0.2,-0.15,left,41,2020-12-07_01h12.40.563,premup-three_ses-01_part-01_label-phase1,3.2.4,MacIntel,60,left,0.588999987,4,0,4,0,1,3,1,0,240,2,1,239,,,,,,,,,,,,,,,,,,
,,1,56,,,,,,,2,5,2,stim/52.jpeg,HouseObjects,2,stim/objects/HouseObjects/hairdryer.png,0.7,2,0.2,0.15,right,41,2020-12-07_01h12.40.563,premup-three_ses-01_part-01_label-phase1,3.2.4,MacIntel,60,right,1.069000006,4,0,4,0,1,3,1,0,240,105,1,239,,,,,,,,,,,,,,,,,,
,,1,57,,,,,,,2,5,1,stim/51.jpeg,HouseObjects,2,stim/objects/HouseObjects/glassmop.png,0.7,4,0.2,-0.15,right,41,2020-12-07_01h12.40.563,premup-three_ses-01_part-01_label-phase1,3.2.4,MacIntel,60,right,1.419999838,4,0,4,0,1,3,1,0,240,92,1,239,,,,,,,,,,,,,,,,,,
,,1,58,,,,,,,1,3,2,stim/32.jpeg,Instruments,1,stim/objects/Instruments/electricdrumset.png,0.5,4,0.2,-0.15,left,41,2020-12-07_01h12.40.563,premup-three_ses-01_part-01_label-phase1,3.2.4,MacIntel,60,left,1.16899991,4,0,4,0,1,3,1,0,240,1,1,239,,,,,,,,,,,,,,,,,,
,,1,59,,,,,,,3,1,3,stim/13.jpeg,HouseObjects,2,stim/objects/HouseObjects/garbagebin2.png,0.9,3,-0.2,-0.15,right,41,2020-12-07_01h12.40.563,premup-three_ses-01_part-01_label-phase1,3.2.4,MacIntel,60,right,1.667000055,4,0,4,0,1,3,1,0,240,186,1,239,,,,,,,,,,,,,,,,,,
,,0,60,,,,,,,2,5,2,stim/52.jpeg,HouseObjects,2,stim/objects/HouseObjects/hairdryer.png,0.7,1,-0.2,0.15,right,41,2020-12-07_01h12.40.563,premup-three_ses-01_part-01_label-phase1,3.2.4,MacIntel,60,left,1.257999897,4,0,4,0,1,3,1,0,240,97,1,239,,,,,,,,,,,,,,,,,,
,,1,61,,,,,,,3,1,4,stim/14.jpeg,Instruments,1,stim/objects/Instruments/grandpiano2.png,0.1,2,0.2,0.15,left,41,2020-12-07_01h12.40.563,premup-three_ses-01_part-01_label-phase1,3.2.4,MacIntel,60,left,0.700000048,4,0,4,0,1,3,1,0,240,163,1,239,,,,,,,,,,,,,,,,,,
,,0,62,,,,,,,1,4,2,stim/42.jpeg,Instruments,1,stim/objects/Instruments/frenchhorn.png,0.5,2,0.2,0.15,left,41,2020-12-07_01h12.40.563,premup-three_ses-01_part-01_label-phase1,3.2.4,MacIntel,60,right,0.972999811,4,0,4,0,1,3,1,0,240,41,1,239,,,,,,,,,,,,,,,,,,
,,0,63,,,,,,,3,2,1,stim/21.jpeg,Instruments,1,stim/objects/Instruments/guitarcase2.png,0.9,1,-0.2,0.15,left,41,2020-12-07_01h12.40.563,premup-three_ses-01_part-01_label-phase1,3.2.4,MacIntel,60,right,1,4,0,4,0,1,3,1,0,240,200,1,239,,,,,,,,,,,,,,,,,,
,,1,64,,,,,,,2,5,2,stim/52.jpeg,Instruments,1,stim/objects/Instruments/harmonica.png,0.3,1,-0.2,0.15,left,41,2020-12-07_01h12.40.563,premup-three_ses-01_part-01_label-phase1,3.2.4,MacIntel,60,left,1.324999809,4,0,4,0,1,3,1,0,240,81,1,239,,,,,,,,,,,,,,,,,,
,,0,65,,,,,,,2,6,4,stim/64.jpeg,Instruments,1,stim/objects/Instruments/flute2.png,0.7,4,0.2,-0.15,left,41,2020-12-07_01h12.40.563,premup-three_ses-01_part-01_label-phase1,3.2.4,MacIntel,60,right,0.973999977,4,0,4,0,1,3,1,0,240,127,1,239,,,,,,,,,,,,,,,,,,
,,1,66,,,,,,,2,5,3,stim/53.jpeg,HouseObjects,2,stim/objects/HouseObjects/handbrush.png,0.7,1,-0.2,0.15,right,41,2020-12-07_01h12.40.563,premup-three_ses-01_part-01_label-phase1,3.2.4,MacIntel,60,right,0.91899991,4,0,4,0,1,3,1,0,240,102,1,239,,,,,,,,,,,,,,,,,,
,,1,67,,,,,,,1,3,1,stim/31.jpeg,HouseObjects,2,stim/objects/HouseObjects/coffee.png,0.5,1,-0.2,0.15,right,41,2020-12-07_01h12.40.563,premup-three_ses-01_part-01_label-phase1,3.2.4,MacIntel,60,right,1.35199976,4,0,4,0,1,3,1,0,240,20,1,239,,,,,,,,,,,,,,,,,,
,,1,68,,,,,,,2,6,2,stim/62.jpeg,Instruments,1,stim/objects/Instruments/electricdrumset2.png,0.7,3,-0.2,-0.15,left,41,2020-12-07_01h12.40.563,premup-three_ses-01_part-01_label-phase1,3.2.4,MacIntel,60,left,0.715999842,4,0,4,0,1,3,1,0,240,129,1,239,,,,,,,,,,,,,,,,,,
,,1,69,,,,,,,3,2,3,stim/23.jpeg,Instruments,1,stim/objects/Instruments/harp2.png,0.9,1,-0.2,0.15,left,41,2020-12-07_01h12.40.563,premup-three_ses-01_part-01_label-phase1,3.2.4,MacIntel,60,left,0.648999929,4,0,4,0,1,3,1,0,240,214,1,239,,,,,,,,,,,,,,,,,,
,,0,70,,,,,,,2,6,3,stim/63.jpeg,Instruments,1,stim/objects/Instruments/electricguitar2.png,0.7,2,0.2,0.15,left,41,2020-12-07_01h12.40.563,premup-three_ses-01_part-01_label-phase1,3.2.4,MacIntel,60,right,1.052000046,4,0,4,0,1,3,1,0,240,134,1,239,,,,,,,,,,,,,,,,,,
,,0,71,,,,,,,1,4,1,stim/41.jpeg,Instruments,1,stim/objects/Instruments/flutetrans.png,0.5,1,-0.2,0.15,left,41,2020-12-07_01h12.40.563,premup-three_ses-01_part-01_label-phase1,3.2.4,MacIntel,60,right,0.990999937,4,0,4,0,1,3,1,0,240,44,1,239,,,,,,,,,,,,,,,,,,
,,1,72,,,,,,,3,2,4,stim/24.jpeg,Instruments,1,stim/objects/Instruments/hihat2.png,0.9,2,0.2,0.15,left,41,2020-12-07_01h12.40.563,premup-three_ses-01_part-01_label-phase1,3.2.4,MacIntel,60,left,0.822999716,4,0,4,0,1,3,1,0,240,227,1,239,,,,,,,,,,,,,,,,,,
,,1,73,,,,,,,1,4,2,stim/42.jpeg,HouseObjects,2,stim/objects/HouseObjects/flyswatter.png,0.5,4,0.2,-0.15,right,41,2020-12-07_01h12.40.563,premup-three_ses-01_part-01_label-phase1,3.2.4,MacIntel,60,right,1.275000095,4,0,4,0,1,3,1,0,240,65,1,239,,,,,,,,,,,,,,,,,,
,,0,74,,,,,,,3,1,2,stim/12.jpeg,Instruments,1,stim/objects/Instruments/frenchhorn2.png,0.1,3,-0.2,-0.15,left,41,2020-12-07_01h12.40.563,premup-three_ses-01_part-01_label-phase1,3.2.4,MacIntel,60,right,1.355999947,4,0,4,0,1,3,1,0,240,161,1,239,,,,,,,,,,,,,,,,,,
,,1,75,,,,,,,1,3,3,stim/33.jpeg,HouseObjects,2,stim/objects/HouseObjects/dishsoap.png,0.5,3,-0.2,-0.15,right,41,2020-12-07_01h12.40.563,premup-three_ses-01_part-01_label-phase1,3.2.4,MacIntel,60,right,1.025999784,4,0,4,0,1,3,1,0,240,30,1,239,,,,,,,,,,,,,,,,,,
,,1,76,,,,,,,1,4,3,stim/43.jpeg,Instruments,1,stim/objects/Instruments/gong.png,0.5,4,0.2,-0.15,left,41,2020-12-07_01h12.40.563,premup-three_ses-01_part-01_label-phase1,3.2.4,MacIntel,60,left,0.799999952,4,0,4,0,1,3,1,0,240,46,1,239,,,,,,,,,,,,,,,,,,
,,0,77,,,,,,,2,6,3,stim/63.jpeg,HouseObjects,2,stim/objects/HouseObjects/dishsoap2.png,0.3,4,0.2,-0.15,right,41,2020-12-07_01h12.40.563,premup-three_ses-01_part-01_label-phase1,3.2.4,MacIntel,60,left,0.760999918,4,0,4,0,1,3,1,0,240,158,1,239,,,,,,,,,,,,,,,,,,
,,0,78,,,,,,,3,1,4,stim/14.jpeg,HouseObjects,2,stim/objects/HouseObjects/glass2.png,0.9,2,0.2,0.15,right,41,2020-12-07_01h12.40.563,premup-three_ses-01_part-01_label-phase1,3.2.4,MacIntel,60,left,0.671000004,4,0,4,0,1,3,1,0,240,175,1,239,,,,,,,,,,,,,,,,,,
,,0,79,,,,,,,3,1,1,stim/11.jpeg,HouseObjects,2,stim/objects/HouseObjects/dustpan2.png,0.9,3,-0.2,-0.15,right,41,2020-12-07_01h12.40.563,premup-three_ses-01_part-01_label-phase1,3.2.4,MacIntel,60,left,0.501999855,4,0,4,0,1,3,1,0,240,168,1,239,,,,,,,,,,,,,,,,,,
,,1,80,,,,,,,1,3,1,stim/31.jpeg,HouseObjects,2,stim/objects/HouseObjects/coffee.png,0.5,4,0.2,-0.15,right,41,2020-12-07_01h12.40.563,premup-three_ses-01_part-01_label-phase1,3.2.4,MacIntel,60,right,0.481999874,4,0,4,0,1,3,1,0,240,28,1,239,,,,,,,,,,,,,,,,,,
,,0,81,,,,,,,2,6,3,stim/63.jpeg,Instruments,1,stim/objects/Instruments/electricguitar2.png,0.7,4,0.2,-0.15,left,41,2020-12-07_01h12.40.563,premup-three_ses-01_part-01_label-phase1,3.2.4,MacIntel,60,right,1.24000001,4,0,4,0,1,3,1,0,240,146,1,239,,,,,,,,,,,,,,,,,,
,,1,82,,,,,,,1,4,1,stim/41.jpeg,HouseObjects,2,stim/objects/HouseObjects/dustpan.png,0.5,1,-0.2,0.15,right,41,2020-12-07_01h12.40.563,premup-three_ses-01_part-01_label-phase1,3.2.4,MacIntel,60,right,0.745999813,4,0,4,0,1,3,1,0,240,60,1,239,,,,,,,,,,,,,,,,,,
,,1,83,,,,,,,3,2,2,stim/22.jpeg,Instruments,1,stim/objects/Instruments/harmonica2.png,0.9,3,-0.2,-0.15,left,41,2020-12-07_01h12.40.563,premup-three_ses-01_part-01_label-phase1,3.2.4,MacIntel,60,left,1.14199996,4,0,4,0,1,3,1,0,240,229,1,239,,,,,,,,,,,,,,,,,,
,,1,84,,,,,,,3,2,2,stim/22.jpeg,Instruments,1,stim/objects/Instruments/harmonica2.png,0.9,1,-0.2,0.15,left,41,2020-12-07_01h12.40.563,premup-three_ses-01_part-01_label-phase1,3.2.4,MacIntel,60,left,0.696999788,4,0,4,0,1,3,1,0,240,201,1,239,,,,,,,,,,,,,,,,,,
,,0,85,,,,,,,2,6,2,stim/62.jpeg,Instruments,1,stim/objects/Instruments/electricdrumset2.png,0.7,2,0.2,0.15,left,41,2020-12-07_01h12.40.563,premup-three_ses-01_part-01_label-phase1,3.2.4,MacIntel,60,right,0.928999901,4,0,4,0,1,3,1,0,240,137,1,239,,,,,,,,,,,,,,,,,,
,,1,86,,,,,,,3,2,3,stim/23.jpeg,Instruments,1,stim/objects/Instruments/harp2.png,0.9,3,-0.2,-0.15,left,41,2020-12-07_01h12.40.563,premup-three_ses-01_part-01_label-phase1,3.2.4,MacIntel,60,left,0.78399992,4,0,4,0,1,3,1,0,240,202,1,239,,,,,,,,,,,,,,,,,,
,,0,87,,,,,,,1,3,1,stim/31.jpeg,Instruments,1,stim/objects/Instruments/drums.png,0.5,2,0.2,0.15,left,41,2020-12-07_01h12.40.563,premup-three_ses-01_part-01_label-phase1,3.2.4,MacIntel,60,right,0.886999846,4,0,4,0,1,3,1,0,240,16,1,239,,,,,,,,,,,,,,,,,,
,,0,88,,,,,,,1,3,2,stim/32.jpeg,HouseObjects,2,stim/objects/HouseObjects/cushion.png,0.5,1,-0.2,0.15,right,41,2020-12-07_01h12.40.563,premup-three_ses-01_part-01_label-phase1,3.2.4,MacIntel,60,left,1.013999939,4,0,4,0,1,3,1,0,240,21,1,239,,,,,,,,,,,,,,,,,,
,,1,89,,,,,,,3,2,2,stim/22.jpeg,Instruments,1,stim/objects/Instruments/harmonica2.png,0.9,2,0.2,0.15,left,41,2020-12-07_01h12.40.563,premup-three_ses-01_part-01_label-phase1,3.2.4,MacIntel,60,left,0.720000029,4,0,4,0,1,3,1,0,240,221,1,239,,,,,,,,,,,,,,,,,,
,,0,90,,,,,,,3,1,2,stim/12.jpeg,HouseObjects,2,stim/objects/HouseObjects/flyswatter2.png,0.9,4,0.2,-0.15,right,41,2020-12-07_01h12.40.563,premup-three_ses-01_part-01_label-phase1,3.2.4,MacIntel,60,left,1.037999868,4,0,4,0,1,3,1,0,240,181,1,239,,,,,,,,,,,,,,,,,,
,,1,91,,,,,,,3,1,3,stim/13.jpeg,HouseObjects,2,stim/objects/HouseObjects/garbagebin2.png,0.9,1,-0.2,0.15,right,41,2020-12-07_01h12.40.563,premup-three_ses-01_part-01_label-phase1,3.2.4,MacIntel,60,right,0.427999973,4,0,4,0,1,3,1,0,240,194,1,239,,,,,,,,,,,,,,,,,,
,,0,92,,,,,,,3,1,4,stim/14.jpeg,HouseObjects,2,stim/objects/HouseObjects/glass2.png,0.9,2,0.2,0.15,right,41,2020-12-07_01h12.40.563,premup-three_ses-01_part-01_label-phase1,3.2.4,MacIntel,60,left,0.749000072,4,0,4,0,1,3,1,0,240,171,1,239,,,,,,,,,,,,,,,,,,
,,1,93,,,,,,,2,6,4,stim/64.jpeg,HouseObjects,2,stim/objects/HouseObjects/doormat2.png,0.3,4,0.2,-0.15,right,41,2020-12-07_01h12.40.563,premup-three_ses-01_part-01_label-phase1,3.2.4,MacIntel,60,right,0.620999813,4,0,4,0,1,3,1,0,240,151,1,239,,,,,,,,,,,,,,,,,,
,,1,94,,,,,,,2,5,2,stim/52.jpeg,HouseObjects,2,stim/objects/HouseObjects/hairdryer.png,0.7,3,-0.2,-0.15,right,41,2020-12-07_01h12.40.563,premup-three_ses-01_part-01_label-phase1,3.2.4,MacIntel,60,right,0.90899992,4,0,4,0,1,3,1,0,240,117,1,239,,,,,,,,,,,,,,,,,,
,,1,95,,,,,,,2,5,2,stim/52.jpeg,HouseObjects,2,stim/objects/HouseObjects/hairdryer.png,0.7,2,0.2,0.15,right,41,2020-12-07_01h12.40.563,premup-three_ses-01_part-01_label-phase1,3.2.4,MacIntel,60,right,0.743999958,4,0,4,0,1,3,1,0,240,101,1,239,,,,,,,,,,,,,,,,,,
,,1,96,,,,,,,2,6,4,stim/64.jpeg,Instruments,1,stim/objects/Instruments/flute2.png,0.7,4,0.2,-0.15,left,41,2020-12-07_01h12.40.563,premup-three_ses-01_part-01_label-phase1,3.2.4,MacIntel,60,left,0.843999863,4,0,4,0,1,3,1,0,240,143,1,239,,,,,,,,,,,,,,,,,,
,,0,97,,,,,,,1,4,4,stim/44.jpeg,HouseObjects,2,stim/objects/HouseObjects/glass.png,0.5,2,0.2,0.15,right,41,2020-12-07_01h12.40.563,premup-three_ses-01_part-01_label-phase1,3.2.4,MacIntel,60,left,0.986999989,4,0,4,0,1,3,1,0,240,67,1,239,,,,,,,,,,,,,,,,,,
,,0,98,,,,,,,3,1,1,stim/11.jpeg,HouseObjects,2,stim/objects/HouseObjects/dustpan2.png,0.9,2,0.2,0.15,right,41,2020-12-07_01h12.40.563,premup-three_ses-01_part-01_label-phase1,3.2.4,MacIntel,60,left,1.03399992,4,0,4,0,1,3,1,0,240,172,1,239,,,,,,,,,,,,,,,,,,
,,0,99,,,,,,,3,2,1,stim/21.jpeg,Instruments,1,stim/objects/Instruments/guitarcase2.png,0.9,1,-0.2,0.15,left,41,2020-12-07_01h12.40.563,premup-three_ses-01_part-01_label-phase1,3.2.4,MacIntel,60,right,1.072000027,4,0,4,0,1,3,1,0,240,216,1,239,,,,,,,,,,,,,,,,,,
,,0,100,,,,,,,3,2,3,stim/23.jpeg,HouseObjects,2,stim/objects/HouseObjects/handbrush2.png,0.1,4,0.2,-0.15,right,41,2020-12-07_01h12.40.563,premup-three_ses-01_part-01_label-phase1,3.2.4,MacIntel,60,left,1.179999828,4,0,4,0,1,3,1,0,240,238,1,239,,,,,,,,,,,,,,,,,,
,,0,101,,,,,,,3,1,4,stim/14.jpeg,HouseObjects,2,stim/objects/HouseObjects/glass2.png,0.9,3,-0.2,-0.15,right,41,2020-12-07_01h12.40.563,premup-three_ses-01_part-01_label-phase1,3.2.4,MacIntel,60,left,0.526000023,4,0,4,0,1,3,1,0,240,179,1,239,,,,,,,,,,,,,,,,,,
,,1,102,,,,,,,2,5,4,stim/54.jpeg,Instruments,1,stim/objects/Instruments/hihat.png,0.3,2,0.2,0.15,left,41,2020-12-07_01h12.40.563,premup-three_ses-01_part-01_label-phase1,3.2.4,MacIntel,60,left,1.051999807,4,0,4,0,1,3,1,0,240,91,1,239,,,,,,,,,,,,,,,,,,
,,0,103,,,,,,,2,6,1,stim/61.jpeg,Instruments,1,stim/objects/Instruments/drums2.png,0.7,1,-0.2,0.15,left,41,2020-12-07_01h12.40.563,premup-three_ses-01_part-01_label-phase1,3.2.4,MacIntel,60,right,0.654000044,4,0,4,0,1,3,1,0,240,136,1,239,,,,,,,,,,,,,,,,,,
,,1,104,,,,,,,2,5,4,stim/54.jpeg,Instruments,1,stim/objects/Instruments/hihat.png,0.3,2,0.2,0.15,left,41,2020-12-07_01h12.40.563,premup-three_ses-01_part-01_label-phase1,3.2.4,MacIntel,60,left,0.895999908,4,0,4,0,1,3,1,0,240,87,1,239,,,,,,,,,,,,,,,,,,
,,0,105,,,,,,,2,5,3,stim/53.jpeg,HouseObjects,2,stim/objects/HouseObjects/handbrush.png,0.7,3,-0.2,-0.15,right,41,2020-12-07_01h12.40.563,premup-three_ses-01_part-01_label-phase1,3.2.4,MacIntel,60,left,0.954999924,4,0,4,0,1,3,1,0,240,106,1,239,,,,,,,,,,,,,,,,,,
,,1,106,,,,,,,2,6,2,stim/62.jpeg,Instruments,1,stim/objects/Instruments/electricdrumset2.png,0.7,3,-0.2,-0.15,left,41,2020-12-07_01h12.40.563,premup-three_ses-01_part-01_label-phase1,3.2.4,MacIntel,60,left,0.851999998,4,0,4,0,1,3,1,0,240,125,1,239,,,,,,,,,,,,,,,,,,
,,0,107,,,,,,,3,2,2,stim/22.jpeg,Instruments,1,stim/objects/Instruments/harmonica2.png,0.9,3,-0.2,-0.15,left,41,2020-12-07_01h12.40.563,premup-three_ses-01_part-01_label-phase1,3.2.4,MacIntel,60,right,0.689999819,4,0,4,0,1,3,1,0,240,217,1,239,,,,,,,,,,,,,,,,,,
,,1,108,,,,,,,3,1,4,stim/14.jpeg,HouseObjects,2,stim/objects/HouseObjects/glass2.png,0.9,1,-0.2,0.15,right,41,2020-12-07_01h12.40.563,premup-three_ses-01_part-01_label-phase1,3.2.4,MacIntel,60,right,0.444999933,4,0,4,0,1,3,1,0,240,183,1,239,,,,,,,,,,,,,,,,,,
,,1,109,,,,,,,1,3,3,stim/33.jpeg,Instruments,1,stim/objects/Instruments/electricguitar.png,0.5,4,0.2,-0.15,left,41,2020-12-07_01h12.40.563,premup-three_ses-01_part-01_label-phase1,3.2.4,MacIntel,60,left,0.812999964,4,0,4,0,1,3,1,0,240,6,1,239,,,,,,,,,,,,,,,,,,
,,1,110,,,,,,,2,5,2,stim/52.jpeg,HouseObjects,2,stim/objects/HouseObjects/hairdryer.png,0.7,3,-0.2,-0.15,right,41,2020-12-07_01h12.40.563,premup-three_ses-01_part-01_label-phase1,3.2.4,MacIntel,60,right,0.84800005,4,0,4,0,1,3,1,0,240,113,1,239,,,,,,,,,,,,,,,,,,
,,0,111,,,,,,,2,5,1,stim/51.jpeg,HouseObjects,2,stim/objects/HouseObjects/glassmop.png,0.7,3,-0.2,-0.15,right,41,2020-12-07_01h12.40.563,premup-three_ses-01_part-01_label-phase1,3.2.4,MacIntel,60,left,1.040999889,4,0,4,0,1,3,1,0,240,116,1,239,,,,,,,,,,,,,,,,,,
,,0,112,,,,,,,3,2,2,stim/22.jpeg,Instruments,1,stim/objects/Instruments/harmonica2.png,0.9,4,0.2,-0.15,left,41,2020-12-07_01h12.40.563,premup-three_ses-01_part-01_label-phase1,3.2.4,MacIntel,60,right,0.503000021,4,0,4,0,1,3,1,0,240,233,1,239,,,,,,,,,,,,,,,,,,
,,0,113,,,,,,,3,1,2,stim/12.jpeg,HouseObjects,2,stim/objects/HouseObjects/flyswatter2.png,0.9,2,0.2,0.15,right,41,2020-12-07_01h12.40.563,premup-three_ses-01_part-01_label-phase1,3.2.4,MacIntel,60,left,0.407000065,4,0,4,0,1,3,1,0,240,197,1,239,,,,,,,,,,,,,,,,,,
,,1,114,,,,,,,3,1,3,stim/13.jpeg,HouseObjects,2,stim/objects/HouseObjects/garbagebin2.png,0.9,2,0.2,0.15,right,41,2020-12-07_01h12.40.563,premup-three_ses-01_part-01_label-phase1,3.2.4,MacIntel,60,right,0.367999792,4,0,4,0,1,3,1,0,240,190,1,239,,,,,,,,,,,,,,,,,,
,,1,115,,,,,,,1,3,4,stim/34.jpeg,HouseObjects,2,stim/objects/HouseObjects/doormat.png,0.5,3,-0.2,-0.15,right,41,2020-12-07_01h12.40.563,premup-three_ses-01_part-01_label-phase1,3.2.4,MacIntel,60,right,0.742999792,4,0,4,0,1,3,1,0,240,35,1,239,,,,,,,,,,,,,,,,,,
,,1,116,,,,,,,3,2,3,stim/23.jpeg,Instruments,1,stim/objects/Instruments/harp2.png,0.9,4,0.2,-0.15,left,41,2020-12-07_01h12.40.563,premup-three_ses-01_part-01_label-phase1,3.2.4,MacIntel,60,left,0.825999737,4,0,4,0,1,3,1,0,240,230,1,239,,,,,,,,,,,,,,,,,,
,,1,117,,,,,,,3,2,4,stim/24.jpeg,Instruments,1,stim/objects/Instruments/hihat2.png,0.9,1,-0.2,0.15,left,41,2020-12-07_01h12.40.563,premup-three_ses-01_part-01_label-phase1,3.2.4,MacIntel,60,left,0.951999903,4,0,4,0,1,3,1,0,240,223,1,239,,,,,,,,,,,,,,,,,,
,,0,118,,,,,,,1,3,3,stim/33.jpeg,Instruments,1,stim/objects/Instruments/electricguitar.png,0.5,4,0.2,-0.15,left,41,2020-12-07_01h12.40.563,premup-three_ses-01_part-01_label-phase1,3.2.4,MacIntel,60,right,0.602999926,4,0,4,0,1,3,1,0,240,14,1,239,,,,,,,,,,,,,,,,,,
,,1,119,,,,,,,3,2,4,stim/24.jpeg,Instruments,1,stim/objects/Instruments/hihat2.png,0.9,3,-0.2,-0.15,left,41,2020-12-07_01h12.40.563,premup-three_ses-01_part-01_label-phase1,3.2.4,MacIntel,60,left,0.471999884,4,0,4,0,1,3,1,0,240,211,1,239,,,,,,,,,,,,,,,,,,
,,0,120,,,,,,,2,6,2,stim/62.jpeg,Instruments,1,stim/objects/Instruments/electricdrumset2.png,0.7,4,0.2,-0.15,left,41,2020-12-07_01h12.40.563,premup-three_ses-01_part-01_label-phase1,3.2.4,MacIntel,60,right,0.707000017,4,0,4,0,1,3,1,0,240,133,1,239,,,,,,,,,,,,,,,,,,
,,1,121,,,,,,,2,6,1,stim/61.jpeg,Instruments,1,stim/objects/Instruments/drums2.png,0.7,1,-0.2,0.15,left,41,2020-12-07_01h12.40.563,premup-three_ses-01_part-01_label-phase1,3.2.4,MacIntel,60,left,0.770999908,4,0,4,0,1,3,1,0,240,120,1,239,,,,,,,,,,,,,,,,,,
,,1,122,,,,,,,2,6,3,stim/63.jpeg,Instruments,1,stim/objects/Instruments/electricguitar2.png,0.7,3,-0.2,-0.15,left,41,2020-12-07_01h12.40.563,premup-three_ses-01_part-01_label-phase1,3.2.4,MacIntel,60,left,0.689999819,4,0,4,0,1,3,1,0,240,122,1,239,,,,,,,,,,,,,,,,,,
,,1,123,,,,,,,3,1,4,stim/14.jpeg,HouseObjects,2,stim/objects/HouseObjects/glass2.png,0.9,3,-0.2,-0.15,right,41,2020-12-07_01h12.40.563,premup-three_ses-01_part-01_label-phase1,3.2.4,MacIntel,60,right,0.93599987,4,0,4,0,1,3,1,0,240,167,1,239,,,,,,,,,,,,,,,,,,
,,1,124,,,,,,,2,5,4,stim/54.jpeg,HouseObjects,2,stim/objects/HouseObjects/handvacuum.png,0.7,4,0.2,-0.15,right,41,2020-12-07_01h12.40.563,premup-three_ses-01_part-01_label-phase1,3.2.4,MacIntel,60,right,1.120999813,4,0,4,0,1,3,1,0,240,103,1,239,,,,,,,,,,,,,,,,,,
,,0,125,,,,,,,1,4,1,stim/41.jpeg,Instruments,1,stim/objects/Instruments/flutetrans.png,0.5,2,0.2,0.15,left,41,2020-12-07_01h12.40.563,premup-three_ses-01_part-01_label-phase1,3.2.4,MacIntel,60,right,0.845999956,4,0,4,0,1,3,1,0,240,56,1,239,,,,,,,,,,,,,,,,,,
,,1,126,,,,,,,2,6,2,stim/62.jpeg,Instruments,1,stim/objects/Instruments/electricdrumset2.png,0.7,3,-0.2,-0.15,left,41,2020-12-07_01h12.40.563,premup-three_ses-01_part-01_label-phase1,3.2.4,MacIntel,60,left,0.782999992,4,0,4,0,1,3,1,0,240,121,1,239,,,,,,,,,,,,,,,,,,
,,1,127,,,,,,,2,6,2,stim/62.jpeg,Instruments,1,stim/objects/Instruments/electricdrumset2.png,0.7,1,-0.2,0.15,left,41,2020-12-07_01h12.40.563,premup-three_ses-01_part-01_label-phase1,3.2.4,MacIntel,60,left,0.561999798,4,0,4,0,1,3,1,0,240,141,1,239,,,,,,,,,,,,,,,,,,
