key_resp_pract.keys,key_resp_pract.rt,trial_acc,trial_index,practice_loop.thisRepN,practice_loop.thisTrialN,practice_loop.thisN,practice_loop.thisIndex,practice_loop.ran,practice_loop.order,scn_condition,scn_cat,scn_inst,scn_file,obj_cat,obj_cat_num,obj_file,trial_cond,quadrant,obj_x,obj_y,corr_ans,participant,date,expName,psychopyVersion,OS,frameRate,key_resp_trial.keys,key_resp_trial.rt,iterations.thisRepN,iterations.thisTrialN,iterations.thisN,iterations.thisIndex,iterations.ran,iterations.order,task_innerloop.thisRepN,task_innerloop.thisTrialN,task_innerloop.thisN,task_innerloop.thisIndex,task_innerloop.ran,task_innerloop.order,iteration_index,rating_acc,slider.response,slider.rt,slider_2.response,slider_2.rt,ratings.thisRepN,ratings.thisTrialN,ratings.thisN,ratings.thisIndex,ratings.ran,ratings.order,obj_cat_top,min_resp_top,max_resp_top,obj_cat_bottom,min_resp_bottom,max_resp_bottom
right,1.795000076,0,1,1,0,240,56,1,239,1,6,1,stim/61.jpeg,HouseObjects,1,stim/objects/HouseObjects/lintroller.png,0.5,1,-0.2,0.15,left,42,2021-01-06_02h37.11.774,premup-three_ses-01_part-01_label-phase1,3.2.4,Win32,60,,,,,,,,,,,,,,,,,,,,,,,,,,,,,,,,
left,1.223999977,0,2,1,0,240,239,1,239,3,4,4,stim/44.jpeg,Instruments,2,stim/objects/Instruments/record_player2.png,0.1,3,-0.2,-0.15,right,42,2021-01-06_02h37.11.774,premup-three_ses-01_part-01_label-phase1,3.2.4,Win32,60,,,,,,,,,,,,,,,,,,,,,,,,,,,,,,,,
right,0.916000128,0,3,1,0,240,229,1,239,3,4,2,stim/42.jpeg,HouseObjects,1,stim/objects/HouseObjects/remote2.png,0.9,3,-0.2,-0.15,left,42,2021-01-06_02h37.11.774,premup-three_ses-01_part-01_label-phase1,3.2.4,Win32,60,,,,,,,,,,,,,,,,,,,,,,,,,,,,,,,,
left,1.04700017,0,4,1,0,240,79,1,239,1,6,4,stim/64.jpeg,Instruments,2,stim/objects/Instruments/oboe.png,0.5,3,-0.2,-0.15,right,42,2021-01-06_02h37.11.774,premup-three_ses-01_part-01_label-phase1,3.2.4,Win32,60,,,,,,,,,,,,,,,,,,,,,,,,,,,,,,,,
left,1.10800004,1,5,1,0,240,141,1,239,2,2,2,stim/22.jpeg,HouseObjects,1,stim/objects/HouseObjects/ironingboard2.png,0.7,4,0.2,-0.15,left,42,2021-01-06_02h37.11.774,premup-three_ses-01_part-01_label-phase1,3.2.4,Win32,60,,,,,,,,,,,,,,,,,,,,,,,,,,,,,,,,
,,0,6,1,0,240,194,1,239,3,3,3,stim/33.jpeg,Instruments,2,stim/objects/Instruments/musicstand2.png,0.9,1,-0.2,0.15,right,42,2021-01-06_02h37.11.774,premup-three_ses-01_part-01_label-phase1,3.2.4,Win32,60,,,,,,,,,,,,,,,,,,,,,,,,,,,,,,,,
right,0.992000103,1,7,1,0,240,178,1,239,3,3,3,stim/33.jpeg,Instruments,2,stim/objects/Instruments/musicstand2.png,0.9,4,0.2,-0.15,right,42,2021-01-06_02h37.11.774,premup-three_ses-01_part-01_label-phase1,3.2.4,Win32,60,,,,,,,,,,,,,,,,,,,,,,,,,,,,,,,,
right,0.704000235,0,8,1,0,240,235,1,239,3,4,4,stim/44.jpeg,HouseObjects,1,stim/objects/HouseObjects/rug2.png,0.9,4,0.2,-0.15,left,42,2021-01-06_02h37.11.774,premup-three_ses-01_part-01_label-phase1,3.2.4,Win32,60,,,,,,,,,,,,,,,,,,,,,,,,,,,,,,,,
left,1.097000122,0,9,1,0,240,166,1,239,3,3,3,stim/33.jpeg,Instruments,2,stim/objects/Instruments/musicstand2.png,0.9,2,0.2,0.15,right,42,2021-01-06_02h37.11.774,premup-three_ses-01_part-01_label-phase1,3.2.4,Win32,60,,,,,,,,,,,,,,,,,,,,,,,,,,,,,,,,
right,0.561000109,1,10,1,0,240,175,1,239,3,3,4,stim/34.jpeg,Instruments,2,stim/objects/Instruments/oboe2.png,0.9,2,0.2,0.15,right,42,2021-01-06_02h37.11.774,premup-three_ses-01_part-01_label-phase1,3.2.4,Win32,60,,,,,,,,,,,,,,,,,,,,,,,,,,,,,,,,
,,0,1,,,,,,,3,3,4,stim/34.jpeg,Instruments,2,stim/objects/Instruments/oboe2.png,0.9,2,0.2,0.15,right,42,2021-01-06_02h37.11.774,premup-three_ses-01_part-01_label-phase1,3.2.4,Win32,60,left,0.963000059,4,0,4,0,1,3,1,0,240,187,1,239,,,,,,,,,,,,,,,,,,
,,1,2,,,,,,,3,4,4,stim/44.jpeg,HouseObjects,1,stim/objects/HouseObjects/rug2.png,0.9,4,0.2,-0.15,left,42,2021-01-06_02h37.11.774,premup-three_ses-01_part-01_label-phase1,3.2.4,Win32,60,left,1.101000071,4,0,4,0,1,3,1,0,240,235,1,239,,,,,,,,,,,,,,,,,,
,,0,3,,,,,,,1,5,1,stim/51.jpeg,HouseObjects,1,stim/objects/HouseObjects/iron.png,0.5,3,-0.2,-0.15,left,42,2021-01-06_02h37.11.774,premup-three_ses-01_part-01_label-phase1,3.2.4,Win32,60,right,1.326000214,4,0,4,0,1,3,1,0,240,0,1,239,,,,,,,,,,,,,,,,,,
,,0,4,,,,,,,1,6,2,stim/62.jpeg,Instruments,2,stim/objects/Instruments/musicsheet.png,0.5,4,0.2,-0.15,right,42,2021-01-06_02h37.11.774,premup-three_ses-01_part-01_label-phase1,3.2.4,Win32,60,left,1.696000099,4,0,4,0,1,3,1,0,240,61,1,239,,,,,,,,,,,,,,,,,,
,,1,5,,,,,,,2,1,4,stim/14.jpeg,Instruments,2,stim/objects/Instruments/record_player.png,0.7,2,0.2,0.15,right,42,2021-01-06_02h37.11.774,premup-three_ses-01_part-01_label-phase1,3.2.4,Win32,60,right,0.676000118,4,0,4,0,1,3,1,0,240,107,1,239,,,,,,,,,,,,,,,,,,
,,1,6,,,,,,,3,3,2,stim/32.jpeg,Instruments,2,stim/objects/Instruments/musicsheet2.png,0.9,3,-0.2,-0.15,right,42,2021-01-06_02h37.11.774,premup-three_ses-01_part-01_label-phase1,3.2.4,Win32,60,right,1.012000322,4,0,4,0,1,3,1,0,240,193,1,239,,,,,,,,,,,,,,,,,,
,,1,7,,,,,,,2,1,1,stim/11.jpeg,Instruments,2,stim/objects/Instruments/panflute.png,0.7,2,0.2,0.15,right,42,2021-01-06_02h37.11.774,premup-three_ses-01_part-01_label-phase1,3.2.4,Win32,60,right,0.779000282,4,0,4,0,1,3,1,0,240,96,1,239,,,,,,,,,,,,,,,,,,
,,1,8,,,,,,,1,5,4,stim/54.jpeg,Instruments,2,stim/objects/Instruments/marimba.png,0.5,2,0.2,0.15,right,42,2021-01-06_02h37.11.774,premup-three_ses-01_part-01_label-phase1,3.2.4,Win32,60,right,0.49600029,4,0,4,0,1,3,1,0,240,23,1,239,,,,,,,,,,,,,,,,,,
,,0,9,,,,,,,3,4,2,stim/42.jpeg,HouseObjects,1,stim/objects/HouseObjects/remote2.png,0.9,2,0.2,0.15,left,42,2021-01-06_02h37.11.774,premup-three_ses-01_part-01_label-phase1,3.2.4,Win32,60,right,0.493000031,4,0,4,0,1,3,1,0,240,225,1,239,,,,,,,,,,,,,,,,,,
,,1,10,,,,,,,1,6,1,stim/61.jpeg,Instruments,2,stim/objects/Instruments/metronome.png,0.5,2,0.2,0.15,right,42,2021-01-06_02h37.11.774,premup-three_ses-01_part-01_label-phase1,3.2.4,Win32,60,right,1.016000271,4,0,4,0,1,3,1,0,240,60,1,239,,,,,,,,,,,,,,,,,,
,,1,11,,,,,,,1,5,2,stim/52.jpeg,HouseObjects,1,stim/objects/HouseObjects/ironingboard.png,0.5,1,-0.2,0.15,left,42,2021-01-06_02h37.11.774,premup-three_ses-01_part-01_label-phase1,3.2.4,Win32,60,left,0.917000294,4,0,4,0,1,3,1,0,240,13,1,239,,,,,,,,,,,,,,,,,,
,,0,12,,,,,,,2,1,2,stim/12.jpeg,HouseObjects,1,stim/objects/HouseObjects/remote.png,0.3,2,0.2,0.15,left,42,2021-01-06_02h37.11.774,premup-three_ses-01_part-01_label-phase1,3.2.4,Win32,60,right,0.705000162,4,0,4,0,1,3,1,0,240,85,1,239,,,,,,,,,,,,,,,,,,
,,0,13,,,,,,,2,2,1,stim/21.jpeg,HouseObjects,1,stim/objects/HouseObjects/iron2.png,0.7,2,0.2,0.15,left,42,2021-01-06_02h37.11.774,premup-three_ses-01_part-01_label-phase1,3.2.4,Win32,60,right,0.445000172,4,0,4,0,1,3,1,0,240,144,1,239,,,,,,,,,,,,,,,,,,
,,0,14,,,,,,,3,3,3,stim/33.jpeg,Instruments,2,stim/objects/Instruments/musicstand2.png,0.9,1,-0.2,0.15,right,42,2021-01-06_02h37.11.774,premup-three_ses-01_part-01_label-phase1,3.2.4,Win32,60,left,1.395000219,4,0,4,0,1,3,1,0,240,170,1,239,,,,,,,,,,,,,,,,,,
,,1,15,,,,,,,1,5,3,stim/53.jpeg,HouseObjects,1,stim/objects/HouseObjects/key.png,0.5,1,-0.2,0.15,left,42,2021-01-06_02h37.11.774,premup-three_ses-01_part-01_label-phase1,3.2.4,Win32,60,left,1.101999998,4,0,4,0,1,3,1,0,240,2,1,239,,,,,,,,,,,,,,,,,,
,,1,16,,,,,,,2,1,1,stim/11.jpeg,Instruments,2,stim/objects/Instruments/panflute.png,0.7,3,-0.2,-0.15,right,42,2021-01-06_02h37.11.774,premup-three_ses-01_part-01_label-phase1,3.2.4,Win32,60,right,1.512000084,4,0,4,0,1,3,1,0,240,100,1,239,,,,,,,,,,,,,,,,,,
,,1,17,,,,,,,1,5,2,stim/52.jpeg,Instruments,2,stim/objects/Instruments/laud.png,0.5,2,0.2,0.15,right,42,2021-01-06_02h37.11.774,premup-three_ses-01_part-01_label-phase1,3.2.4,Win32,60,right,1.044000387,4,0,4,0,1,3,1,0,240,29,1,239,,,,,,,,,,,,,,,,,,
,,1,18,,,,,,,2,2,3,stim/23.jpeg,HouseObjects,1,stim/objects/HouseObjects/key2.png,0.7,3,-0.2,-0.15,left,42,2021-01-06_02h37.11.774,premup-three_ses-01_part-01_label-phase1,3.2.4,Win32,60,left,0.570000172,4,0,4,0,1,3,1,0,240,130,1,239,,,,,,,,,,,,,,,,,,
,,0,19,,,,,,,3,4,1,stim/41.jpeg,HouseObjects,1,stim/objects/HouseObjects/recyclingbin2.png,0.9,1,-0.2,0.15,left,42,2021-01-06_02h37.11.774,premup-three_ses-01_part-01_label-phase1,3.2.4,Win32,60,right,0.929000378,4,0,4,0,1,3,1,0,240,228,1,239,,,,,,,,,,,,,,,,,,
,,1,20,,,,,,,2,2,4,stim/24.jpeg,HouseObjects,1,stim/objects/HouseObjects/knife2.png,0.7,3,-0.2,-0.15,left,42,2021-01-06_02h37.11.774,premup-three_ses-01_part-01_label-phase1,3.2.4,Win32,60,left,0.954000235,4,0,4,0,1,3,1,0,240,143,1,239,,,,,,,,,,,,,,,,,,
,,0,21,,,,,,,2,2,2,stim/22.jpeg,HouseObjects,1,stim/objects/HouseObjects/ironingboard2.png,0.7,4,0.2,-0.15,left,42,2021-01-06_02h37.11.774,premup-three_ses-01_part-01_label-phase1,3.2.4,Win32,60,right,0.845000029,4,0,4,0,1,3,1,0,240,141,1,239,,,,,,,,,,,,,,,,,,
,,0,22,,,,,,,1,6,2,stim/62.jpeg,HouseObjects,1,stim/objects/HouseObjects/match.png,0.5,3,-0.2,-0.15,left,42,2021-01-06_02h37.11.774,premup-three_ses-01_part-01_label-phase1,3.2.4,Win32,60,right,0.840000153,4,0,4,0,1,3,1,0,240,57,1,239,,,,,,,,,,,,,,,,,,
,,0,23,,,,,,,1,5,3,stim/53.jpeg,HouseObjects,1,stim/objects/HouseObjects/key.png,0.5,2,0.2,0.15,left,42,2021-01-06_02h37.11.774,premup-three_ses-01_part-01_label-phase1,3.2.4,Win32,60,right,0.522000074,4,0,4,0,1,3,1,0,240,14,1,239,,,,,,,,,,,,,,,,,,
,,0,24,,,,,,,2,2,4,stim/24.jpeg,HouseObjects,1,stim/objects/HouseObjects/knife2.png,0.7,2,0.2,0.15,left,42,2021-01-06_02h37.11.774,premup-three_ses-01_part-01_label-phase1,3.2.4,Win32,60,right,0.649000168,4,0,4,0,1,3,1,0,240,131,1,239,,,,,,,,,,,,,,,,,,
,,1,25,,,,,,,1,6,2,stim/62.jpeg,HouseObjects,1,stim/objects/HouseObjects/match.png,0.5,1,-0.2,0.15,left,42,2021-01-06_02h37.11.774,premup-three_ses-01_part-01_label-phase1,3.2.4,Win32,60,left,1.063000202,4,0,4,0,1,3,1,0,240,53,1,239,,,,,,,,,,,,,,,,,,
,,0,26,,,,,,,2,1,3,stim/13.jpeg,HouseObjects,1,stim/objects/HouseObjects/rubbergloves.png,0.3,4,0.2,-0.15,left,42,2021-01-06_02h37.11.774,premup-three_ses-01_part-01_label-phase1,3.2.4,Win32,60,right,0.846000195,4,0,4,0,1,3,1,0,240,82,1,239,,,,,,,,,,,,,,,,,,
,,0,27,,,,,,,1,6,1,stim/61.jpeg,HouseObjects,1,stim/objects/HouseObjects/lintroller.png,0.5,2,0.2,0.15,left,42,2021-01-06_02h37.11.774,premup-three_ses-01_part-01_label-phase1,3.2.4,Win32,60,right,0.469000101,4,0,4,0,1,3,1,0,240,52,1,239,,,,,,,,,,,,,,,,,,
,,1,28,,,,,,,3,4,3,stim/43.jpeg,HouseObjects,1,stim/objects/HouseObjects/rubbergloves2.png,0.9,4,0.2,-0.15,left,42,2021-01-06_02h37.11.774,premup-three_ses-01_part-01_label-phase1,3.2.4,Win32,60,left,0.721000195,4,0,4,0,1,3,1,0,240,222,1,239,,,,,,,,,,,,,,,,,,
,,1,29,,,,,,,1,6,1,stim/61.jpeg,Instruments,2,stim/objects/Instruments/metronome.png,0.5,1,-0.2,0.15,right,42,2021-01-06_02h37.11.774,premup-three_ses-01_part-01_label-phase1,3.2.4,Win32,60,right,1.159000158,4,0,4,0,1,3,1,0,240,72,1,239,,,,,,,,,,,,,,,,,,
,,1,30,,,,,,,3,3,2,stim/32.jpeg,Instruments,2,stim/objects/Instruments/musicsheet2.png,0.9,4,0.2,-0.15,right,42,2021-01-06_02h37.11.774,premup-three_ses-01_part-01_label-phase1,3.2.4,Win32,60,right,0.959000349,4,0,4,0,1,3,1,0,240,181,1,239,,,,,,,,,,,,,,,,,,
,,0,31,,,,,,,3,4,3,stim/43.jpeg,HouseObjects,1,stim/objects/HouseObjects/rubbergloves2.png,0.9,1,-0.2,0.15,left,42,2021-01-06_02h37.11.774,premup-three_ses-01_part-01_label-phase1,3.2.4,Win32,60,right,1.106000185,4,0,4,0,1,3,1,0,240,234,1,239,,,,,,,,,,,,,,,,,,
,,0,32,,,,,,,3,4,2,stim/42.jpeg,HouseObjects,1,stim/objects/HouseObjects/remote2.png,0.9,4,0.2,-0.15,left,42,2021-01-06_02h37.11.774,premup-three_ses-01_part-01_label-phase1,3.2.4,Win32,60,right,0.670000315,4,0,4,0,1,3,1,0,240,217,1,239,,,,,,,,,,,,,,,,,,
,,0,33,,,,,,,3,3,2,stim/32.jpeg,Instruments,2,stim/objects/Instruments/musicsheet2.png,0.9,4,0.2,-0.15,right,42,2021-01-06_02h37.11.774,premup-three_ses-01_part-01_label-phase1,3.2.4,Win32,60,left,0.764000177,4,0,4,0,1,3,1,0,240,173,1,239,,,,,,,,,,,,,,,,,,
,,1,34,,,,,,,1,6,1,stim/61.jpeg,HouseObjects,1,stim/objects/HouseObjects/lintroller.png,0.5,4,0.2,-0.15,left,42,2021-01-06_02h37.11.774,premup-three_ses-01_part-01_label-phase1,3.2.4,Win32,60,left,0.840000153,4,0,4,0,1,3,1,0,240,44,1,239,,,,,,,,,,,,,,,,,,
,,1,35,,,,,,,2,2,2,stim/22.jpeg,HouseObjects,1,stim/objects/HouseObjects/ironingboard2.png,0.7,1,-0.2,0.15,left,42,2021-01-06_02h37.11.774,premup-three_ses-01_part-01_label-phase1,3.2.4,Win32,60,left,0.556000233,4,0,4,0,1,3,1,0,240,133,1,239,,,,,,,,,,,,,,,,,,
,,1,36,,,,,,,1,6,3,stim/63.jpeg,HouseObjects,1,stim/objects/HouseObjects/pan.png,0.5,4,0.2,-0.15,left,42,2021-01-06_02h37.11.774,premup-three_ses-01_part-01_label-phase1,3.2.4,Win32,60,left,0.752000093,4,0,4,0,1,3,1,0,240,46,1,239,,,,,,,,,,,,,,,,,,
,,1,37,,,,,,,1,5,1,stim/51.jpeg,HouseObjects,1,stim/objects/HouseObjects/iron.png,0.5,1,-0.2,0.15,left,42,2021-01-06_02h37.11.774,premup-three_ses-01_part-01_label-phase1,3.2.4,Win32,60,left,0.460000277,4,0,4,0,1,3,1,0,240,16,1,239,,,,,,,,,,,,,,,,,,
,,0,38,,,,,,,3,4,3,stim/43.jpeg,HouseObjects,1,stim/objects/HouseObjects/rubbergloves2.png,0.9,2,0.2,0.15,left,42,2021-01-06_02h37.11.774,premup-three_ses-01_part-01_label-phase1,3.2.4,Win32,60,right,0.598999977,4,0,4,0,1,3,1,0,240,226,1,239,,,,,,,,,,,,,,,,,,
,,1,39,,,,,,,1,5,3,stim/53.jpeg,HouseObjects,1,stim/objects/HouseObjects/key.png,0.5,3,-0.2,-0.15,left,42,2021-01-06_02h37.11.774,premup-three_ses-01_part-01_label-phase1,3.2.4,Win32,60,left,0.822000265,4,0,4,0,1,3,1,0,240,10,1,239,,,,,,,,,,,,,,,,,,
,,1,40,,,,,,,3,3,3,stim/33.jpeg,Instruments,2,stim/objects/Instruments/musicstand2.png,0.9,2,0.2,0.15,right,42,2021-01-06_02h37.11.774,premup-three_ses-01_part-01_label-phase1,3.2.4,Win32,60,right,1.208000183,4,0,4,0,1,3,1,0,240,174,1,239,,,,,,,,,,,,,,,,,,
,,0,41,,,,,,,2,1,4,stim/14.jpeg,Instruments,2,stim/objects/Instruments/record_player.png,0.7,4,0.2,-0.15,right,42,2021-01-06_02h37.11.774,premup-three_ses-01_part-01_label-phase1,3.2.4,Win32,60,left,1.067000151,4,0,4,0,1,3,1,0,240,115,1,239,,,,,,,,,,,,,,,,,,
,,1,42,,,,,,,2,2,4,stim/24.jpeg,HouseObjects,1,stim/objects/HouseObjects/knife2.png,0.7,4,0.2,-0.15,left,42,2021-01-06_02h37.11.774,premup-three_ses-01_part-01_label-phase1,3.2.4,Win32,60,left,0.833000183,4,0,4,0,1,3,1,0,240,147,1,239,,,,,,,,,,,,,,,,,,
,,1,43,,,,,,,2,1,4,stim/14.jpeg,Instruments,2,stim/objects/Instruments/record_player.png,0.7,3,-0.2,-0.15,right,42,2021-01-06_02h37.11.774,premup-three_ses-01_part-01_label-phase1,3.2.4,Win32,60,right,0.751000166,4,0,4,0,1,3,1,0,240,111,1,239,,,,,,,,,,,,,,,,,,
,,1,44,,,,,,,2,2,4,stim/24.jpeg,HouseObjects,1,stim/objects/HouseObjects/knife2.png,0.7,4,0.2,-0.15,left,42,2021-01-06_02h37.11.774,premup-three_ses-01_part-01_label-phase1,3.2.4,Win32,60,left,0.728000164,4,0,4,0,1,3,1,0,240,127,1,239,,,,,,,,,,,,,,,,,,
,,1,45,,,,,,,2,2,1,stim/21.jpeg,Instruments,2,stim/objects/Instruments/keyboard2.png,0.3,2,0.2,0.15,right,42,2021-01-06_02h37.11.774,premup-three_ses-01_part-01_label-phase1,3.2.4,Win32,60,right,0.750000238,4,0,4,0,1,3,1,0,240,148,1,239,,,,,,,,,,,,,,,,,,
,,1,46,,,,,,,3,3,3,stim/33.jpeg,Instruments,2,stim/objects/Instruments/musicstand2.png,0.9,2,0.2,0.15,right,42,2021-01-06_02h37.11.774,premup-three_ses-01_part-01_label-phase1,3.2.4,Win32,60,right,0.366000175,4,0,4,0,1,3,1,0,240,182,1,239,,,,,,,,,,,,,,,,,,
,,0,47,,,,,,,3,3,1,stim/31.jpeg,Instruments,2,stim/objects/Instruments/metronome2.png,0.9,3,-0.2,-0.15,right,42,2021-01-06_02h37.11.774,premup-three_ses-01_part-01_label-phase1,3.2.4,Win32,60,left,0.526000261,4,0,4,0,1,3,1,0,240,184,1,239,,,,,,,,,,,,,,,,,,
,,1,48,,,,,,,1,6,3,stim/63.jpeg,Instruments,2,stim/objects/Instruments/musicstand.png,0.5,1,-0.2,0.15,right,42,2021-01-06_02h37.11.774,premup-three_ses-01_part-01_label-phase1,3.2.4,Win32,60,right,0.569000244,4,0,4,0,1,3,1,0,240,66,1,239,,,,,,,,,,,,,,,,,,
,,1,49,,,,,,,3,3,3,stim/33.jpeg,Instruments,2,stim/objects/Instruments/musicstand2.png,0.9,2,0.2,0.15,right,42,2021-01-06_02h37.11.774,premup-three_ses-01_part-01_label-phase1,3.2.4,Win32,60,right,0.680000305,4,0,4,0,1,3,1,0,240,190,1,239,,,,,,,,,,,,,,,,,,
,,1,50,,,,,,,3,4,1,stim/41.jpeg,HouseObjects,1,stim/objects/HouseObjects/recyclingbin2.png,0.9,1,-0.2,0.15,left,42,2021-01-06_02h37.11.774,premup-three_ses-01_part-01_label-phase1,3.2.4,Win32,60,left,0.874000311,4,0,4,0,1,3,1,0,240,220,1,239,,,,,,,,,,,,,,,,,,
,,0,51,,,,,,,1,5,3,stim/53.jpeg,HouseObjects,1,stim/objects/HouseObjects/key.png,0.5,4,0.2,-0.15,left,42,2021-01-06_02h37.11.774,premup-three_ses-01_part-01_label-phase1,3.2.4,Win32,60,right,1.005000353,4,0,4,0,1,3,1,0,240,18,1,239,,,,,,,,,,,,,,,,,,
,,1,52,,,,,,,3,4,2,stim/42.jpeg,HouseObjects,1,stim/objects/HouseObjects/remote2.png,0.9,1,-0.2,0.15,left,42,2021-01-06_02h37.11.774,premup-three_ses-01_part-01_label-phase1,3.2.4,Win32,60,left,0.707000017,4,0,4,0,1,3,1,0,240,209,1,239,,,,,,,,,,,,,,,,,,
,,0,53,,,,,,,1,5,1,stim/51.jpeg,Instruments,2,stim/objects/Instruments/keyboard.png,0.5,1,-0.2,0.15,right,42,2021-01-06_02h37.11.774,premup-three_ses-01_part-01_label-phase1,3.2.4,Win32,60,left,0.962000132,4,0,4,0,1,3,1,0,240,32,1,239,,,,,,,,,,,,,,,,,,
,,0,54,,,,,,,3,4,1,stim/41.jpeg,HouseObjects,1,stim/objects/HouseObjects/recyclingbin2.png,0.9,1,-0.2,0.15,left,42,2021-01-06_02h37.11.774,premup-three_ses-01_part-01_label-phase1,3.2.4,Win32,60,right,0.633000135,4,0,4,0,1,3,1,0,240,200,1,239,,,,,,,,,,,,,,,,,,
,,1,55,,,,,,,2,1,2,stim/12.jpeg,Instruments,2,stim/objects/Instruments/pipepiano.png,0.7,1,-0.2,0.15,right,42,2021-01-06_02h37.11.774,premup-three_ses-01_part-01_label-phase1,3.2.4,Win32,60,right,0.830000162,4,0,4,0,1,3,1,0,240,93,1,239,,,,,,,,,,,,,,,,,,
,,0,56,,,,,,,3,3,4,stim/34.jpeg,Instruments,2,stim/objects/Instruments/oboe2.png,0.9,3,-0.2,-0.15,right,42,2021-01-06_02h37.11.774,premup-three_ses-01_part-01_label-phase1,3.2.4,Win32,60,left,0.684000254,4,0,4,0,1,3,1,0,240,195,1,239,,,,,,,,,,,,,,,,,,
,,1,57,,,,,,,1,6,1,stim/61.jpeg,Instruments,2,stim/objects/Instruments/metronome.png,0.5,3,-0.2,-0.15,right,42,2021-01-06_02h37.11.774,premup-three_ses-01_part-01_label-phase1,3.2.4,Win32,60,right,0.666000128,4,0,4,0,1,3,1,0,240,68,1,239,,,,,,,,,,,,,,,,,,
,,0,58,,,,,,,2,2,2,stim/22.jpeg,HouseObjects,1,stim/objects/HouseObjects/ironingboard2.png,0.7,3,-0.2,-0.15,left,42,2021-01-06_02h37.11.774,premup-three_ses-01_part-01_label-phase1,3.2.4,Win32,60,right,0.732000351,4,0,4,0,1,3,1,0,240,121,1,239,,,,,,,,,,,,,,,,,,
,,1,59,,,,,,,1,6,1,stim/61.jpeg,HouseObjects,1,stim/objects/HouseObjects/lintroller.png,0.5,1,-0.2,0.15,left,42,2021-01-06_02h37.11.774,premup-three_ses-01_part-01_label-phase1,3.2.4,Win32,60,left,0.475000143,4,0,4,0,1,3,1,0,240,56,1,239,,,,,,,,,,,,,,,,,,
,,0,60,,,,,,,2,2,2,stim/22.jpeg,HouseObjects,1,stim/objects/HouseObjects/ironingboard2.png,0.7,4,0.2,-0.15,left,42,2021-01-06_02h37.11.774,premup-three_ses-01_part-01_label-phase1,3.2.4,Win32,60,right,0.552999973,4,0,4,0,1,3,1,0,240,125,1,239,,,,,,,,,,,,,,,,,,
,,1,61,,,,,,,1,6,3,stim/63.jpeg,HouseObjects,1,stim/objects/HouseObjects/pan.png,0.5,1,-0.2,0.15,left,42,2021-01-06_02h37.11.774,premup-three_ses-01_part-01_label-phase1,3.2.4,Win32,60,left,0.423000097,4,0,4,0,1,3,1,0,240,58,1,239,,,,,,,,,,,,,,,,,,
,,0,62,,,,,,,3,4,4,stim/44.jpeg,HouseObjects,1,stim/objects/HouseObjects/rug2.png,0.9,2,0.2,0.15,left,42,2021-01-06_02h37.11.774,premup-three_ses-01_part-01_label-phase1,3.2.4,Win32,60,right,0.894000292,4,0,4,0,1,3,1,0,240,219,1,239,,,,,,,,,,,,,,,,,,
,,0,63,,,,,,,2,1,1,stim/11.jpeg,HouseObjects,1,stim/objects/HouseObjects/recyclingbin.png,0.3,1,-0.2,0.15,left,42,2021-01-06_02h37.11.774,premup-three_ses-01_part-01_label-phase1,3.2.4,Win32,60,right,0.725000143,4,0,4,0,1,3,1,0,240,80,1,239,,,,,,,,,,,,,,,,,,
,,0,64,,,,,,,2,2,3,stim/23.jpeg,HouseObjects,1,stim/objects/HouseObjects/key2.png,0.7,3,-0.2,-0.15,left,42,2021-01-06_02h37.11.774,premup-three_ses-01_part-01_label-phase1,3.2.4,Win32,60,right,1.272000074,4,0,4,0,1,3,1,0,240,142,1,239,,,,,,,,,,,,,,,,,,
,,1,65,,,,,,,3,3,3,stim/33.jpeg,Instruments,2,stim/objects/Instruments/musicstand2.png,0.9,2,0.2,0.15,right,42,2021-01-06_02h37.11.774,premup-three_ses-01_part-01_label-phase1,3.2.4,Win32,60,right,0.394999981,4,0,4,0,1,3,1,0,240,166,1,239,,,,,,,,,,,,,,,,,,
,,1,66,,,,,,,3,3,1,stim/31.jpeg,Instruments,2,stim/objects/Instruments/metronome2.png,0.9,2,0.2,0.15,right,42,2021-01-06_02h37.11.774,premup-three_ses-01_part-01_label-phase1,3.2.4,Win32,60,right,0.359000206,4,0,4,0,1,3,1,0,240,180,1,239,,,,,,,,,,,,,,,,,,
,,1,67,,,,,,,2,1,1,stim/11.jpeg,Instruments,2,stim/objects/Instruments/panflute.png,0.7,1,-0.2,0.15,right,42,2021-01-06_02h37.11.774,premup-three_ses-01_part-01_label-phase1,3.2.4,Win32,60,right,0.587000132,4,0,4,0,1,3,1,0,240,92,1,239,,,,,,,,,,,,,,,,,,
,,1,68,,,,,,,3,4,4,stim/44.jpeg,HouseObjects,1,stim/objects/HouseObjects/rug2.png,0.9,4,0.2,-0.15,left,42,2021-01-06_02h37.11.774,premup-three_ses-01_part-01_label-phase1,3.2.4,Win32,60,left,1.048000336,4,0,4,0,1,3,1,0,240,211,1,239,,,,,,,,,,,,,,,,,,
,,0,69,,,,,,,2,2,1,stim/21.jpeg,HouseObjects,1,stim/objects/HouseObjects/iron2.png,0.7,2,0.2,0.15,left,42,2021-01-06_02h37.11.774,premup-three_ses-01_part-01_label-phase1,3.2.4,Win32,60,right,0.610000134,4,0,4,0,1,3,1,0,240,128,1,239,,,,,,,,,,,,,,,,,,
,,0,70,,,,,,,3,3,2,stim/32.jpeg,Instruments,2,stim/objects/Instruments/musicsheet2.png,0.9,4,0.2,-0.15,right,42,2021-01-06_02h37.11.774,premup-three_ses-01_part-01_label-phase1,3.2.4,Win32,60,left,0.96200037,4,0,4,0,1,3,1,0,240,177,1,239,,,,,,,,,,,,,,,,,,
,,1,71,,,,,,,3,4,1,stim/41.jpeg,HouseObjects,1,stim/objects/HouseObjects/recyclingbin2.png,0.9,1,-0.2,0.15,left,42,2021-01-06_02h37.11.774,premup-three_ses-01_part-01_label-phase1,3.2.4,Win32,60,left,0.424000263,4,0,4,0,1,3,1,0,240,224,1,239,,,,,,,,,,,,,,,,,,
,,1,72,,,,,,,1,6,2,stim/62.jpeg,HouseObjects,1,stim/objects/HouseObjects/match.png,0.5,1,-0.2,0.15,left,42,2021-01-06_02h37.11.774,premup-three_ses-01_part-01_label-phase1,3.2.4,Win32,60,left,0.425000191,4,0,4,0,1,3,1,0,240,49,1,239,,,,,,,,,,,,,,,,,,
,,1,73,,,,,,,1,6,1,stim/61.jpeg,Instruments,2,stim/objects/Instruments/metronome.png,0.5,3,-0.2,-0.15,right,42,2021-01-06_02h37.11.774,premup-three_ses-01_part-01_label-phase1,3.2.4,Win32,60,right,0.643000126,4,0,4,0,1,3,1,0,240,76,1,239,,,,,,,,,,,,,,,,,,
,,0,74,,,,,,,3,3,4,stim/34.jpeg,HouseObjects,1,stim/objects/HouseObjects/pitcher2.png,0.1,3,-0.2,-0.15,left,42,2021-01-06_02h37.11.774,premup-three_ses-01_part-01_label-phase1,3.2.4,Win32,60,right,0.550000191,4,0,4,0,1,3,1,0,240,163,1,239,,,,,,,,,,,,,,,,,,
,,0,75,,,,,,,2,1,3,stim/13.jpeg,Instruments,2,stim/objects/Instruments/record.png,0.7,4,0.2,-0.15,right,42,2021-01-06_02h37.11.774,premup-three_ses-01_part-01_label-phase1,3.2.4,Win32,60,left,0.60800004,4,0,4,0,1,3,1,0,240,114,1,239,,,,,,,,,,,,,,,,,,
,,0,76,,,,,,,1,6,3,stim/63.jpeg,HouseObjects,1,stim/objects/HouseObjects/pan.png,0.5,3,-0.2,-0.15,left,42,2021-01-06_02h37.11.774,premup-three_ses-01_part-01_label-phase1,3.2.4,Win32,60,right,0.809000254,4,0,4,0,1,3,1,0,240,54,1,239,,,,,,,,,,,,,,,,,,
,,0,77,,,,,,,3,3,3,stim/33.jpeg,HouseObjects,1,stim/objects/HouseObjects/pan2.png,0.1,4,0.2,-0.15,left,42,2021-01-06_02h37.11.774,premup-three_ses-01_part-01_label-phase1,3.2.4,Win32,60,right,0.475000143,4,0,4,0,1,3,1,0,240,162,1,239,,,,,,,,,,,,,,,,,,
,,0,78,,,,,,,2,2,3,stim/23.jpeg,HouseObjects,1,stim/objects/HouseObjects/key2.png,0.7,1,-0.2,0.15,left,42,2021-01-06_02h37.11.774,premup-three_ses-01_part-01_label-phase1,3.2.4,Win32,60,right,0.532000065,4,0,4,0,1,3,1,0,240,138,1,239,,,,,,,,,,,,,,,,,,
,,0,79,,,,,,,2,2,1,stim/21.jpeg,HouseObjects,1,stim/objects/HouseObjects/iron2.png,0.7,1,-0.2,0.15,left,42,2021-01-06_02h37.11.774,premup-three_ses-01_part-01_label-phase1,3.2.4,Win32,60,right,0.356000185,4,0,4,0,1,3,1,0,240,132,1,239,,,,,,,,,,,,,,,,,,
,,0,80,,,,,,,1,5,1,stim/51.jpeg,HouseObjects,1,stim/objects/HouseObjects/iron.png,0.5,1,-0.2,0.15,left,42,2021-01-06_02h37.11.774,premup-three_ses-01_part-01_label-phase1,3.2.4,Win32,60,right,0.446000099,4,0,4,0,1,3,1,0,240,4,1,239,,,,,,,,,,,,,,,,,,
,,0,81,,,,,,,1,5,1,stim/51.jpeg,Instruments,2,stim/objects/Instruments/keyboard.png,0.5,4,0.2,-0.15,right,42,2021-01-06_02h37.11.774,premup-three_ses-01_part-01_label-phase1,3.2.4,Win32,60,left,0.568000317,4,0,4,0,1,3,1,0,240,20,1,239,,,,,,,,,,,,,,,,,,
,,1,82,,,,,,,1,5,1,stim/51.jpeg,HouseObjects,1,stim/objects/HouseObjects/iron.png,0.5,1,-0.2,0.15,left,42,2021-01-06_02h37.11.774,premup-three_ses-01_part-01_label-phase1,3.2.4,Win32,60,left,0.350000143,4,0,4,0,1,3,1,0,240,8,1,239,,,,,,,,,,,,,,,,,,
,,1,83,,,,,,,2,2,1,stim/21.jpeg,HouseObjects,1,stim/objects/HouseObjects/iron2.png,0.7,3,-0.2,-0.15,left,42,2021-01-06_02h37.11.774,premup-three_ses-01_part-01_label-phase1,3.2.4,Win32,60,left,0.561000109,4,0,4,0,1,3,1,0,240,140,1,239,,,,,,,,,,,,,,,,,,
,,0,84,,,,,,,2,2,4,stim/24.jpeg,HouseObjects,1,stim/objects/HouseObjects/knife2.png,0.7,2,0.2,0.15,left,42,2021-01-06_02h37.11.774,premup-three_ses-01_part-01_label-phase1,3.2.4,Win32,60,right,0.754000187,4,0,4,0,1,3,1,0,240,135,1,239,,,,,,,,,,,,,,,,,,
,,0,85,,,,,,,3,3,1,stim/31.jpeg,Instruments,2,stim/objects/Instruments/metronome2.png,0.9,3,-0.2,-0.15,right,42,2021-01-06_02h37.11.774,premup-three_ses-01_part-01_label-phase1,3.2.4,Win32,60,left,0.679000139,4,0,4,0,1,3,1,0,240,192,1,239,,,,,,,,,,,,,,,,,,
,,0,86,,,,,,,2,1,1,stim/11.jpeg,HouseObjects,1,stim/objects/HouseObjects/recyclingbin.png,0.3,2,0.2,0.15,left,42,2021-01-06_02h37.11.774,premup-three_ses-01_part-01_label-phase1,3.2.4,Win32,60,right,0.859000206,4,0,4,0,1,3,1,0,240,88,1,239,,,,,,,,,,,,,,,,,,
,,0,87,,,,,,,2,2,3,stim/23.jpeg,HouseObjects,1,stim/objects/HouseObjects/key2.png,0.7,2,0.2,0.15,left,42,2021-01-06_02h37.11.774,premup-three_ses-01_part-01_label-phase1,3.2.4,Win32,60,right,0.435000181,4,0,4,0,1,3,1,0,240,134,1,239,,,,,,,,,,,,,,,,,,
,,0,88,,,,,,,2,1,3,stim/13.jpeg,Instruments,2,stim/objects/Instruments/record.png,0.7,4,0.2,-0.15,right,42,2021-01-06_02h37.11.774,premup-three_ses-01_part-01_label-phase1,3.2.4,Win32,60,left,0.709000349,4,0,4,0,1,3,1,0,240,106,1,239,,,,,,,,,,,,,,,,,,
,,0,89,,,,,,,1,5,4,stim/54.jpeg,Instruments,2,stim/objects/Instruments/marimba.png,0.5,3,-0.2,-0.15,right,42,2021-01-06_02h37.11.774,premup-three_ses-01_part-01_label-phase1,3.2.4,Win32,60,left,0.541000366,4,0,4,0,1,3,1,0,240,31,1,239,,,,,,,,,,,,,,,,,,
,,1,90,,,,,,,3,4,2,stim/42.jpeg,HouseObjects,1,stim/objects/HouseObjects/remote2.png,0.9,3,-0.2,-0.15,left,42,2021-01-06_02h37.11.774,premup-three_ses-01_part-01_label-phase1,3.2.4,Win32,60,left,0.485000372,4,0,4,0,1,3,1,0,240,221,1,239,,,,,,,,,,,,,,,,,,
,,1,91,,,,,,,1,5,2,stim/52.jpeg,Instruments,2,stim/objects/Instruments/laud.png,0.5,4,0.2,-0.15,right,42,2021-01-06_02h37.11.774,premup-three_ses-01_part-01_label-phase1,3.2.4,Win32,60,right,0.937000275,4,0,4,0,1,3,1,0,240,33,1,239,,,,,,,,,,,,,,,,,,
,,1,92,,,,,,,2,1,2,stim/12.jpeg,Instruments,2,stim/objects/Instruments/pipepiano.png,0.7,3,-0.2,-0.15,right,42,2021-01-06_02h37.11.774,premup-three_ses-01_part-01_label-phase1,3.2.4,Win32,60,right,1.09100008,4,0,4,0,1,3,1,0,240,97,1,239,,,,,,,,,,,,,,,,,,
,,0,93,,,,,,,2,1,2,stim/12.jpeg,HouseObjects,1,stim/objects/HouseObjects/remote.png,0.3,2,0.2,0.15,left,42,2021-01-06_02h37.11.774,premup-three_ses-01_part-01_label-phase1,3.2.4,Win32,60,right,0.936000109,4,0,4,0,1,3,1,0,240,81,1,239,,,,,,,,,,,,,,,,,,
,,1,94,,,,,,,1,6,2,stim/62.jpeg,Instruments,2,stim/objects/Instruments/musicsheet.png,0.5,2,0.2,0.15,right,42,2021-01-06_02h37.11.774,premup-three_ses-01_part-01_label-phase1,3.2.4,Win32,60,right,0.606000185,4,0,4,0,1,3,1,0,240,77,1,239,,,,,,,,,,,,,,,,,,
,,1,95,,,,,,,2,2,1,stim/21.jpeg,HouseObjects,1,stim/objects/HouseObjects/iron2.png,0.7,1,-0.2,0.15,left,42,2021-01-06_02h37.11.774,premup-three_ses-01_part-01_label-phase1,3.2.4,Win32,60,left,0.617000103,4,0,4,0,1,3,1,0,240,120,1,239,,,,,,,,,,,,,,,,,,
,,1,96,,,,,,,3,3,1,stim/31.jpeg,Instruments,2,stim/objects/Instruments/metronome2.png,0.9,1,-0.2,0.15,right,42,2021-01-06_02h37.11.774,premup-three_ses-01_part-01_label-phase1,3.2.4,Win32,60,right,0.517000198,4,0,4,0,1,3,1,0,240,196,1,239,,,,,,,,,,,,,,,,,,
,,0,97,,,,,,,3,3,1,stim/31.jpeg,Instruments,2,stim/objects/Instruments/metronome2.png,0.9,1,-0.2,0.15,right,42,2021-01-06_02h37.11.774,premup-three_ses-01_part-01_label-phase1,3.2.4,Win32,60,left,0.610000134,4,0,4,0,1,3,1,0,240,172,1,239,,,,,,,,,,,,,,,,,,
,,0,98,,,,,,,1,6,1,stim/61.jpeg,HouseObjects,1,stim/objects/HouseObjects/lintroller.png,0.5,2,0.2,0.15,left,42,2021-01-06_02h37.11.774,premup-three_ses-01_part-01_label-phase1,3.2.4,Win32,60,right,0.869000196,4,0,4,0,1,3,1,0,240,48,1,239,,,,,,,,,,,,,,,,,,
,,0,99,,,,,,,3,4,1,stim/41.jpeg,Instruments,2,stim/objects/Instruments/panflute2.png,0.1,1,-0.2,0.15,right,42,2021-01-06_02h37.11.774,premup-three_ses-01_part-01_label-phase1,3.2.4,Win32,60,left,0.544000387,4,0,4,0,1,3,1,0,240,236,1,239,,,,,,,,,,,,,,,,,,
,,1,100,,,,,,,3,4,1,stim/41.jpeg,HouseObjects,1,stim/objects/HouseObjects/recyclingbin2.png,0.9,3,-0.2,-0.15,left,42,2021-01-06_02h37.11.774,premup-three_ses-01_part-01_label-phase1,3.2.4,Win32,60,left,0.486000061,4,0,4,0,1,3,1,0,240,204,1,239,,,,,,,,,,,,,,,,,,
,,1,101,,,,,,,2,1,3,stim/13.jpeg,HouseObjects,1,stim/objects/HouseObjects/rubbergloves.png,0.3,1,-0.2,0.15,left,42,2021-01-06_02h37.11.774,premup-three_ses-01_part-01_label-phase1,3.2.4,Win32,60,left,0.692000151,4,0,4,0,1,3,1,0,240,90,1,239,,,,,,,,,,,,,,,,,,
,,1,102,,,,,,,3,3,4,stim/34.jpeg,Instruments,2,stim/objects/Instruments/oboe2.png,0.9,1,-0.2,0.15,right,42,2021-01-06_02h37.11.774,premup-three_ses-01_part-01_label-phase1,3.2.4,Win32,60,right,0.695000172,4,0,4,0,1,3,1,0,240,199,1,239,,,,,,,,,,,,,,,,,,
,,0,103,,,,,,,3,4,1,stim/41.jpeg,HouseObjects,1,stim/objects/HouseObjects/recyclingbin2.png,0.9,1,-0.2,0.15,left,42,2021-01-06_02h37.11.774,premup-three_ses-01_part-01_label-phase1,3.2.4,Win32,60,,,4,0,4,0,1,3,1,0,240,208,1,239,,,,,,,,,,,,,,,,,,
,,1,104,,,,,,,2,2,3,stim/23.jpeg,HouseObjects,1,stim/objects/HouseObjects/key2.png,0.7,4,0.2,-0.15,left,42,2021-01-06_02h37.11.774,premup-three_ses-01_part-01_label-phase1,3.2.4,Win32,60,left,0.419000149,4,0,4,0,1,3,1,0,240,122,1,239,,,,,,,,,,,,,,,,,,
,,0,105,,,,,,,2,2,2,stim/22.jpeg,Instruments,2,stim/objects/Instruments/laud2.png,0.3,4,0.2,-0.15,right,42,2021-01-06_02h37.11.774,premup-three_ses-01_part-01_label-phase1,3.2.4,Win32,60,left,0.423000097,4,0,4,0,1,3,1,0,240,157,1,239,,,,,,,,,,,,,,,,,,
,,1,106,,,,,,,3,4,3,stim/43.jpeg,Instruments,2,stim/objects/Instruments/record2.png,0.1,3,-0.2,-0.15,right,42,2021-01-06_02h37.11.774,premup-three_ses-01_part-01_label-phase1,3.2.4,Win32,60,right,0.451000214,4,0,4,0,1,3,1,0,240,238,1,239,,,,,,,,,,,,,,,,,,
,,1,107,,,,,,,1,5,4,stim/54.jpeg,Instruments,2,stim/objects/Instruments/marimba.png,0.5,2,0.2,0.15,right,42,2021-01-06_02h37.11.774,premup-three_ses-01_part-01_label-phase1,3.2.4,Win32,60,right,0.394000053,4,0,4,0,1,3,1,0,240,27,1,239,,,,,,,,,,,,,,,,,,
,,1,108,,,,,,,1,5,2,stim/52.jpeg,HouseObjects,1,stim/objects/HouseObjects/ironingboard.png,0.5,3,-0.2,-0.15,left,42,2021-01-06_02h37.11.774,premup-three_ses-01_part-01_label-phase1,3.2.4,Win32,60,left,0.334000111,4,0,4,0,1,3,1,0,240,5,1,239,,,,,,,,,,,,,,,,,,
,,0,109,,,,,,,3,3,2,stim/32.jpeg,Instruments,2,stim/objects/Instruments/musicsheet2.png,0.9,1,-0.2,0.15,right,42,2021-01-06_02h37.11.774,premup-three_ses-01_part-01_label-phase1,3.2.4,Win32,60,left,0.442000151,4,0,4,0,1,3,1,0,240,185,1,239,,,,,,,,,,,,,,,,,,
,,0,110,,,,,,,3,4,2,stim/42.jpeg,HouseObjects,1,stim/objects/HouseObjects/remote2.png,0.9,3,-0.2,-0.15,left,42,2021-01-06_02h37.11.774,premup-three_ses-01_part-01_label-phase1,3.2.4,Win32,60,right,0.617000103,4,0,4,0,1,3,1,0,240,205,1,239,,,,,,,,,,,,,,,,,,
,,1,111,,,,,,,1,6,4,stim/64.jpeg,HouseObjects,1,stim/objects/HouseObjects/pitcher.png,0.5,4,0.2,-0.15,left,42,2021-01-06_02h37.11.774,premup-three_ses-01_part-01_label-phase1,3.2.4,Win32,60,left,0.301000357,4,0,4,0,1,3,1,0,240,59,1,239,,,,,,,,,,,,,,,,,,
,,0,112,,,,,,,1,5,1,stim/51.jpeg,Instruments,2,stim/objects/Instruments/keyboard.png,0.5,1,-0.2,0.15,right,42,2021-01-06_02h37.11.774,premup-three_ses-01_part-01_label-phase1,3.2.4,Win32,60,left,0.236000299,4,0,4,0,1,3,1,0,240,24,1,239,,,,,,,,,,,,,,,,,,
,,1,113,,,,,,,1,5,3,stim/53.jpeg,Instruments,2,stim/objects/Instruments/maraca.png,0.5,2,0.2,0.15,right,42,2021-01-06_02h37.11.774,premup-three_ses-01_part-01_label-phase1,3.2.4,Win32,60,right,0.235000372,4,0,4,0,1,3,1,0,240,34,1,239,,,,,,,,,,,,,,,,,,
,,0,114,,,,,,,2,1,2,stim/12.jpeg,HouseObjects,1,stim/objects/HouseObjects/remote.png,0.3,1,-0.2,0.15,left,42,2021-01-06_02h37.11.774,premup-three_ses-01_part-01_label-phase1,3.2.4,Win32,60,right,0.52300024,4,0,4,0,1,3,1,0,240,89,1,239,,,,,,,,,,,,,,,,,,
,,0,115,,,,,,,2,2,1,stim/21.jpeg,Instruments,2,stim/objects/Instruments/keyboard2.png,0.3,4,0.2,-0.15,right,42,2021-01-06_02h37.11.774,premup-three_ses-01_part-01_label-phase1,3.2.4,Win32,60,left,0.355999947,4,0,4,0,1,3,1,0,240,152,1,239,,,,,,,,,,,,,,,,,,
,,1,116,,,,,,,3,3,4,stim/34.jpeg,Instruments,2,stim/objects/Instruments/oboe2.png,0.9,4,0.2,-0.15,right,42,2021-01-06_02h37.11.774,premup-three_ses-01_part-01_label-phase1,3.2.4,Win32,60,right,0.43200016,4,0,4,0,1,3,1,0,240,167,1,239,,,,,,,,,,,,,,,,,,
,,1,117,,,,,,,1,6,4,stim/64.jpeg,Instruments,2,stim/objects/Instruments/oboe.png,0.5,3,-0.2,-0.15,right,42,2021-01-06_02h37.11.774,premup-three_ses-01_part-01_label-phase1,3.2.4,Win32,60,right,0.521000147,4,0,4,0,1,3,1,0,240,79,1,239,,,,,,,,,,,,,,,,,,
,,0,118,,,,,,,2,2,2,stim/22.jpeg,Instruments,2,stim/objects/Instruments/laud2.png,0.3,4,0.2,-0.15,right,42,2021-01-06_02h37.11.774,premup-three_ses-01_part-01_label-phase1,3.2.4,Win32,60,left,0.607000113,4,0,4,0,1,3,1,0,240,149,1,239,,,,,,,,,,,,,,,,,,
,,0,119,,,,,,,1,6,3,stim/63.jpeg,Instruments,2,stim/objects/Instruments/musicstand.png,0.5,2,0.2,0.15,right,42,2021-01-06_02h37.11.774,premup-three_ses-01_part-01_label-phase1,3.2.4,Win32,60,left,0.228000164,4,0,4,0,1,3,1,0,240,78,1,239,,,,,,,,,,,,,,,,,,
,,1,120,,,,,,,2,1,4,stim/14.jpeg,HouseObjects,1,stim/objects/HouseObjects/rug.png,0.3,3,-0.2,-0.15,left,42,2021-01-06_02h37.11.774,premup-three_ses-01_part-01_label-phase1,3.2.4,Win32,60,left,0.078999996,4,0,4,0,1,3,1,0,240,91,1,239,,,,,,,,,,,,,,,,,,
,,0,121,,,,,,,2,1,4,stim/14.jpeg,Instruments,2,stim/objects/Instruments/record_player.png,0.7,3,-0.2,-0.15,right,42,2021-01-06_02h37.11.774,premup-three_ses-01_part-01_label-phase1,3.2.4,Win32,60,left,0.355999947,4,0,4,0,1,3,1,0,240,103,1,239,,,,,,,,,,,,,,,,,,
,,0,122,,,,,,,2,1,2,stim/12.jpeg,Instruments,2,stim/objects/Instruments/pipepiano.png,0.7,1,-0.2,0.15,right,42,2021-01-06_02h37.11.774,premup-three_ses-01_part-01_label-phase1,3.2.4,Win32,60,left,0.273000002,4,0,4,0,1,3,1,0,240,117,1,239,,,,,,,,,,,,,,,,,,
,,0,123,,,,,,,1,5,4,stim/54.jpeg,HouseObjects,1,stim/objects/HouseObjects/knife.png,0.5,4,0.2,-0.15,left,42,2021-01-06_02h37.11.774,premup-three_ses-01_part-01_label-phase1,3.2.4,Win32,60,right,0.209000111,4,0,4,0,1,3,1,0,240,19,1,239,,,,,,,,,,,,,,,,,,
,,0,124,,,,,,,1,5,1,stim/51.jpeg,Instruments,2,stim/objects/Instruments/keyboard.png,0.5,4,0.2,-0.15,right,42,2021-01-06_02h37.11.774,premup-three_ses-01_part-01_label-phase1,3.2.4,Win32,60,left,0.275000095,4,0,4,0,1,3,1,0,240,36,1,239,,,,,,,,,,,,,,,,,,
,,0,125,,,,,,,2,1,3,stim/13.jpeg,Instruments,2,stim/objects/Instruments/record.png,0.7,2,0.2,0.15,right,42,2021-01-06_02h37.11.774,premup-three_ses-01_part-01_label-phase1,3.2.4,Win32,60,left,0.327000141,4,0,4,0,1,3,1,0,240,98,1,239,,,,,,,,,,,,,,,,,,
,,0,126,,,,,,,2,2,3,stim/23.jpeg,HouseObjects,1,stim/objects/HouseObjects/key2.png,0.7,1,-0.2,0.15,left,42,2021-01-06_02h37.11.774,premup-three_ses-01_part-01_label-phase1,3.2.4,Win32,60,right,0.243000031,4,0,4,0,1,3,1,0,240,126,1,239,,,,,,,,,,,,,,,,,,
,,1,127,,,,,,,1,5,4,stim/54.jpeg,HouseObjects,1,stim/objects/HouseObjects/knife.png,0.5,1,-0.2,0.15,left,42,2021-01-06_02h37.11.774,premup-three_ses-01_part-01_label-phase1,3.2.4,Win32,60,left,0.244000196,4,0,4,0,1,3,1,0,240,11,1,239,,,,,,,,,,,,,,,,,,
,,0,128,,,,,,,1,5,1,stim/51.jpeg,Instruments,2,stim/objects/Instruments/keyboard.png,0.5,4,0.2,-0.15,right,42,2021-01-06_02h37.11.774,premup-three_ses-01_part-01_label-phase1,3.2.4,Win32,60,left,0.221000195,4,0,4,0,1,3,1,0,240,28,1,239,,,,,,,,,,,,,,,,,,
,,0,129,,,,,,,2,1,2,stim/12.jpeg,Instruments,2,stim/objects/Instruments/pipepiano.png,0.7,3,-0.2,-0.15,right,42,2021-01-06_02h37.11.774,premup-three_ses-01_part-01_label-phase1,3.2.4,Win32,60,,,4,0,4,0,1,3,1,0,240,101,1,239,,,,,,,,,,,,,,,,,,
,,0,130,,,,,,,1,5,2,stim/52.jpeg,Instruments,2,stim/objects/Instruments/laud.png,0.5,3,-0.2,-0.15,right,42,2021-01-06_02h37.11.774,premup-three_ses-01_part-01_label-phase1,3.2.4,Win32,60,left,0.485000134,4,0,4,0,1,3,1,0,240,25,1,239,,,,,,,,,,,,,,,,,,
,,0,131,,,,,,,3,3,1,stim/31.jpeg,HouseObjects,1,stim/objects/HouseObjects/lintroller2.png,0.1,4,0.2,-0.15,left,42,2021-01-06_02h37.11.774,premup-three_ses-01_part-01_label-phase1,3.2.4,Win32,60,right,0.630000114,4,0,4,0,1,3,1,0,240,160,1,239,,,,,,,,,,,,,,,,,,
,,1,132,,,,,,,1,5,3,stim/53.jpeg,Instruments,2,stim/objects/Instruments/maraca.png,0.5,3,-0.2,-0.15,right,42,2021-01-06_02h37.11.774,premup-three_ses-01_part-01_label-phase1,3.2.4,Win32,60,right,0.476000071,4,0,4,0,1,3,1,0,240,22,1,239,,,,,,,,,,,,,,,,,,
,,1,133,,,,,,,3,3,4,stim/34.jpeg,Instruments,2,stim/objects/Instruments/oboe2.png,0.9,3,-0.2,-0.15,right,42,2021-01-06_02h37.11.774,premup-three_ses-01_part-01_label-phase1,3.2.4,Win32,60,right,0.394000053,4,0,4,0,1,3,1,0,240,191,1,239,,,,,,,,,,,,,,,,,,
,,1,134,,,,,,,1,6,3,stim/63.jpeg,Instruments,2,stim/objects/Instruments/musicstand.png,0.5,4,0.2,-0.15,right,42,2021-01-06_02h37.11.774,premup-three_ses-01_part-01_label-phase1,3.2.4,Win32,60,right,0.423000097,4,0,4,0,1,3,1,0,240,62,1,239,,,,,,,,,,,,,,,,,,
,,1,135,,,,,,,1,6,3,stim/63.jpeg,Instruments,2,stim/objects/Instruments/musicstand.png,0.5,3,-0.2,-0.15,right,42,2021-01-06_02h37.11.774,premup-three_ses-01_part-01_label-phase1,3.2.4,Win32,60,right,0.269000053,4,0,4,0,1,3,1,0,240,70,1,239,,,,,,,,,,,,,,,,,,
,,0,136,,,,,,,1,6,4,stim/64.jpeg,HouseObjects,1,stim/objects/HouseObjects/pitcher.png,0.5,3,-0.2,-0.15,left,42,2021-01-06_02h37.11.774,premup-three_ses-01_part-01_label-phase1,3.2.4,Win32,60,right,0.376000166,4,0,4,0,1,3,1,0,240,43,1,239,,,,,,,,,,,,,,,,,,
,,0,137,,,,,,,2,2,3,stim/23.jpeg,Instruments,2,stim/objects/Instruments/maraca2.png,0.3,1,-0.2,0.15,right,42,2021-01-06_02h37.11.774,premup-three_ses-01_part-01_label-phase1,3.2.4,Win32,60,left,0.354000092,4,0,4,0,1,3,1,0,240,150,1,239,,,,,,,,,,,,,,,,,,
,,0,138,,,,,,,1,5,1,stim/51.jpeg,HouseObjects,1,stim/objects/HouseObjects/iron.png,0.5,2,0.2,0.15,left,42,2021-01-06_02h37.11.774,premup-three_ses-01_part-01_label-phase1,3.2.4,Win32,60,right,0.199000359,4,0,4,0,1,3,1,0,240,12,1,239,,,,,,,,,,,,,,,,,,
,,1,139,,,,,,,2,2,1,stim/21.jpeg,HouseObjects,1,stim/objects/HouseObjects/iron2.png,0.7,1,-0.2,0.15,left,42,2021-01-06_02h37.11.774,premup-three_ses-01_part-01_label-phase1,3.2.4,Win32,60,left,0.244000196,4,0,4,0,1,3,1,0,240,124,1,239,,,,,,,,,,,,,,,,,,
,,1,140,,,,,,,2,2,3,stim/23.jpeg,HouseObjects,1,stim/objects/HouseObjects/key2.png,0.7,2,0.2,0.15,left,42,2021-01-06_02h37.11.774,premup-three_ses-01_part-01_label-phase1,3.2.4,Win32,60,left,0.223000288,4,0,4,0,1,3,1,0,240,146,1,239,,,,,,,,,,,,,,,,,,
,,1,141,,,,,,,3,4,4,stim/44.jpeg,HouseObjects,1,stim/objects/HouseObjects/rug2.png,0.9,4,0.2,-0.15,left,42,2021-01-06_02h37.11.774,premup-three_ses-01_part-01_label-phase1,3.2.4,Win32,60,left,0.340000153,4,0,4,0,1,3,1,0,240,223,1,239,,,,,,,,,,,,,,,,,,
,,1,142,,,,,,,1,5,2,stim/52.jpeg,HouseObjects,1,stim/objects/HouseObjects/ironingboard.png,0.5,2,0.2,0.15,left,42,2021-01-06_02h37.11.774,premup-three_ses-01_part-01_label-phase1,3.2.4,Win32,60,left,1.528000116,4,0,4,0,1,3,1,0,240,9,1,239,,,,,,,,,,,,,,,,,,
,,0,143,,,,,,,3,4,4,stim/44.jpeg,HouseObjects,1,stim/objects/HouseObjects/rug2.png,0.9,2,0.2,0.15,left,42,2021-01-06_02h37.11.774,premup-three_ses-01_part-01_label-phase1,3.2.4,Win32,60,right,0.959000111,4,0,4,0,1,3,1,0,240,203,1,239,,,,,,,,,,,,,,,,,,
,,0,144,,,,,,,2,1,3,stim/13.jpeg,Instruments,2,stim/objects/Instruments/record.png,0.7,1,-0.2,0.15,right,42,2021-01-06_02h37.11.774,premup-three_ses-01_part-01_label-phase1,3.2.4,Win32,60,left,0.426000118,4,0,4,0,1,3,1,0,240,118,1,239,,,,,,,,,,,,,,,,,,
,,0,145,,,,,,,2,2,4,stim/24.jpeg,Instruments,2,stim/objects/Instruments/marimba2.png,0.3,2,0.2,0.15,right,42,2021-01-06_02h37.11.774,premup-three_ses-01_part-01_label-phase1,3.2.4,Win32,60,left,0.305000305,4,0,4,0,1,3,1,0,240,155,1,239,,,,,,,,,,,,,,,,,,
,,0,146,,,,,,,1,6,2,stim/62.jpeg,Instruments,2,stim/objects/Instruments/musicsheet.png,0.5,1,-0.2,0.15,right,42,2021-01-06_02h37.11.774,premup-three_ses-01_part-01_label-phase1,3.2.4,Win32,60,left,0.264000177,4,0,4,0,1,3,1,0,240,73,1,239,,,,,,,,,,,,,,,,,,
,,1,147,,,,,,,3,3,4,stim/34.jpeg,Instruments,2,stim/objects/Instruments/oboe2.png,0.9,2,0.2,0.15,right,42,2021-01-06_02h37.11.774,premup-three_ses-01_part-01_label-phase1,3.2.4,Win32,60,right,0.255000114,4,0,4,0,1,3,1,0,240,171,1,239,,,,,,,,,,,,,,,,,,
,,0,148,,,,,,,1,5,4,stim/54.jpeg,HouseObjects,1,stim/objects/HouseObjects/knife.png,0.5,3,-0.2,-0.15,left,42,2021-01-06_02h37.11.774,premup-three_ses-01_part-01_label-phase1,3.2.4,Win32,60,right,0.429000139,4,0,4,0,1,3,1,0,240,15,1,239,,,,,,,,,,,,,,,,,,
,,0,149,,,,,,,1,5,3,stim/53.jpeg,Instruments,2,stim/objects/Instruments/maraca.png,0.5,2,0.2,0.15,right,42,2021-01-06_02h37.11.774,premup-three_ses-01_part-01_label-phase1,3.2.4,Win32,60,left,0.262000084,4,0,4,0,1,3,1,0,240,26,1,239,,,,,,,,,,,,,,,,,,
,,1,150,,,,,,,1,5,4,stim/54.jpeg,HouseObjects,1,stim/objects/HouseObjects/knife.png,0.5,2,0.2,0.15,left,42,2021-01-06_02h37.11.774,premup-three_ses-01_part-01_label-phase1,3.2.4,Win32,60,left,0.230000257,4,0,4,0,1,3,1,0,240,7,1,239,,,,,,,,,,,,,,,,,,
,,0,151,,,,,,,2,1,1,stim/11.jpeg,Instruments,2,stim/objects/Instruments/panflute.png,0.7,1,-0.2,0.15,right,42,2021-01-06_02h37.11.774,premup-three_ses-01_part-01_label-phase1,3.2.4,Win32,60,left,0.296000242,4,0,4,0,1,3,1,0,240,108,1,239,,,,,,,,,,,,,,,,,,
,,1,152,,,,,,,1,5,4,stim/54.jpeg,HouseObjects,1,stim/objects/HouseObjects/knife.png,0.5,4,0.2,-0.15,left,42,2021-01-06_02h37.11.774,premup-three_ses-01_part-01_label-phase1,3.2.4,Win32,60,left,0.294000149,4,0,4,0,1,3,1,0,240,3,1,239,,,,,,,,,,,,,,,,,,
,,1,153,,,,,,,2,2,4,stim/24.jpeg,Instruments,2,stim/objects/Instruments/marimba2.png,0.3,2,0.2,0.15,right,42,2021-01-06_02h37.11.774,premup-three_ses-01_part-01_label-phase1,3.2.4,Win32,60,right,0.358000278,4,0,4,0,1,3,1,0,240,159,1,239,,,,,,,,,,,,,,,,,,
,,0,154,,,,,,,1,6,4,stim/64.jpeg,HouseObjects,1,stim/objects/HouseObjects/pitcher.png,0.5,1,-0.2,0.15,left,42,2021-01-06_02h37.11.774,premup-three_ses-01_part-01_label-phase1,3.2.4,Win32,60,right,0.351000071,4,0,4,0,1,3,1,0,240,55,1,239,,,,,,,,,,,,,,,,,,
,,0,155,,,,,,,2,1,2,stim/12.jpeg,Instruments,2,stim/objects/Instruments/pipepiano.png,0.7,2,0.2,0.15,right,42,2021-01-06_02h37.11.774,premup-three_ses-01_part-01_label-phase1,3.2.4,Win32,60,left,0.25600028,4,0,4,0,1,3,1,0,240,105,1,239,,,,,,,,,,,,,,,,,,
,,0,156,,,,,,,2,2,2,stim/22.jpeg,Instruments,2,stim/objects/Instruments/laud2.png,0.3,3,-0.2,-0.15,right,42,2021-01-06_02h37.11.774,premup-three_ses-01_part-01_label-phase1,3.2.4,Win32,60,left,0.476999998,4,0,4,0,1,3,1,0,240,153,1,239,,,,,,,,,,,,,,,,,,
,,1,157,,,,,,,1,5,2,stim/52.jpeg,Instruments,2,stim/objects/Instruments/laud.png,0.5,4,0.2,-0.15,right,42,2021-01-06_02h37.11.774,premup-three_ses-01_part-01_label-phase1,3.2.4,Win32,60,right,0.209000111,4,0,4,0,1,3,1,0,240,37,1,239,,,,,,,,,,,,,,,,,,
,,0,158,,,,,,,2,1,4,stim/14.jpeg,HouseObjects,1,stim/objects/HouseObjects/rug.png,0.3,4,0.2,-0.15,left,42,2021-01-06_02h37.11.774,premup-three_ses-01_part-01_label-phase1,3.2.4,Win32,60,right,0.445000172,4,0,4,0,1,3,1,0,240,83,1,239,,,,,,,,,,,,,,,,,,
,,0,159,,,,,,,3,3,1,stim/31.jpeg,Instruments,2,stim/objects/Instruments/metronome2.png,0.9,1,-0.2,0.15,right,42,2021-01-06_02h37.11.774,premup-three_ses-01_part-01_label-phase1,3.2.4,Win32,60,left,0.412000179,4,0,4,0,1,3,1,0,240,164,1,239,,,,,,,,,,,,,,,,,,
,,0,160,,,,,,,2,1,1,stim/11.jpeg,Instruments,2,stim/objects/Instruments/panflute.png,0.7,3,-0.2,-0.15,right,42,2021-01-06_02h37.11.774,premup-three_ses-01_part-01_label-phase1,3.2.4,Win32,60,left,0.329000235,4,0,4,0,1,3,1,0,240,116,1,239,,,,,,,,,,,,,,,,,,
,,0,161,,,,,,,1,6,4,stim/64.jpeg,Instruments,2,stim/objects/Instruments/oboe.png,0.5,1,-0.2,0.15,right,42,2021-01-06_02h37.11.774,premup-three_ses-01_part-01_label-phase1,3.2.4,Win32,60,left,0.215000153,4,0,4,0,1,3,1,0,240,71,1,239,,,,,,,,,,,,,,,,,,
,,1,162,,,,,,,3,4,2,stim/42.jpeg,HouseObjects,1,stim/objects/HouseObjects/remote2.png,0.9,1,-0.2,0.15,left,42,2021-01-06_02h37.11.774,premup-three_ses-01_part-01_label-phase1,3.2.4,Win32,60,left,0.186000109,4,0,4,0,1,3,1,0,240,201,1,239,,,,,,,,,,,,,,,,,,
,,0,163,,,,,,,3,3,2,stim/32.jpeg,Instruments,2,stim/objects/Instruments/musicsheet2.png,0.9,4,0.2,-0.15,right,42,2021-01-06_02h37.11.774,premup-three_ses-01_part-01_label-phase1,3.2.4,Win32,60,left,0.249000311,4,0,4,0,1,3,1,0,240,189,1,239,,,,,,,,,,,,,,,,,,
,,1,164,,,,,,,2,1,1,stim/11.jpeg,Instruments,2,stim/objects/Instruments/panflute.png,0.7,3,-0.2,-0.15,right,42,2021-01-06_02h37.11.774,premup-three_ses-01_part-01_label-phase1,3.2.4,Win32,60,right,0.213000059,4,0,4,0,1,3,1,0,240,104,1,239,,,,,,,,,,,,,,,,,,
,,1,165,,,,,,,2,2,3,stim/23.jpeg,Instruments,2,stim/objects/Instruments/maraca2.png,0.3,2,0.2,0.15,right,42,2021-01-06_02h37.11.774,premup-three_ses-01_part-01_label-phase1,3.2.4,Win32,60,right,0.203999996,4,0,4,0,1,3,1,0,240,154,1,239,,,,,,,,,,,,,,,,,,
,,1,166,,,,,,,1,6,2,stim/62.jpeg,Instruments,2,stim/objects/Instruments/musicsheet.png,0.5,2,0.2,0.15,right,42,2021-01-06_02h37.11.774,premup-three_ses-01_part-01_label-phase1,3.2.4,Win32,60,right,0.231000185,4,0,4,0,1,3,1,0,240,65,1,239,,,,,,,,,,,,,,,,,,
,,1,167,,,,,,,2,1,2,stim/12.jpeg,Instruments,2,stim/objects/Instruments/pipepiano.png,0.7,2,0.2,0.15,right,42,2021-01-06_02h37.11.774,premup-three_ses-01_part-01_label-phase1,3.2.4,Win32,60,right,0.133000135,4,0,4,0,1,3,1,0,240,109,1,239,,,,,,,,,,,,,,,,,,
,,1,168,,,,,,,2,1,4,stim/14.jpeg,Instruments,2,stim/objects/Instruments/record_player.png,0.7,4,0.2,-0.15,right,42,2021-01-06_02h37.11.774,premup-three_ses-01_part-01_label-phase1,3.2.4,Win32,60,right,0.228000164,4,0,4,0,1,3,1,0,240,119,1,239,,,,,,,,,,,,,,,,,,
,,1,169,,,,,,,3,3,2,stim/32.jpeg,Instruments,2,stim/objects/Instruments/musicsheet2.png,0.9,4,0.2,-0.15,right,42,2021-01-06_02h37.11.774,premup-three_ses-01_part-01_label-phase1,3.2.4,Win32,60,right,0.079000235,4,0,4,0,1,3,1,0,240,165,1,239,,,,,,,,,,,,,,,,,,
,,1,170,,,,,,,3,3,3,stim/33.jpeg,Instruments,2,stim/objects/Instruments/musicstand2.png,0.9,2,0.2,0.15,right,42,2021-01-06_02h37.11.774,premup-three_ses-01_part-01_label-phase1,3.2.4,Win32,60,right,0.176000118,4,0,4,0,1,3,1,0,240,198,1,239,,,,,,,,,,,,,,,,,,
,,1,171,,,,,,,1,5,4,stim/54.jpeg,Instruments,2,stim/objects/Instruments/marimba.png,0.5,3,-0.2,-0.15,right,42,2021-01-06_02h37.11.774,premup-three_ses-01_part-01_label-phase1,3.2.4,Win32,60,right,0.233000278,4,0,4,0,1,3,1,0,240,39,1,239,,,,,,,,,,,,,,,,,,
,,1,172,,,,,,,3,3,1,stim/31.jpeg,Instruments,2,stim/objects/Instruments/metronome2.png,0.9,4,0.2,-0.15,right,42,2021-01-06_02h37.11.774,premup-three_ses-01_part-01_label-phase1,3.2.4,Win32,60,right,0.345999956,4,0,4,0,1,3,1,0,240,168,1,239,,,,,,,,,,,,,,,,,,
,,1,173,,,,,,,3,3,3,stim/33.jpeg,Instruments,2,stim/objects/Instruments/musicstand2.png,0.9,1,-0.2,0.15,right,42,2021-01-06_02h37.11.774,premup-three_ses-01_part-01_label-phase1,3.2.4,Win32,60,right,0.261000156,4,0,4,0,1,3,1,0,240,194,1,239,,,,,,,,,,,,,,,,,,
,,1,174,,,,,,,1,6,4,stim/64.jpeg,Instruments,2,stim/objects/Instruments/oboe.png,0.5,2,0.2,0.15,right,42,2021-01-06_02h37.11.774,premup-three_ses-01_part-01_label-phase1,3.2.4,Win32,60,right,0.226000071,4,0,4,0,1,3,1,0,240,67,1,239,,,,,,,,,,,,,,,,,,
,,1,175,,,,,,,3,3,2,stim/32.jpeg,Instruments,2,stim/objects/Instruments/musicsheet2.png,0.9,3,-0.2,-0.15,right,42,2021-01-06_02h37.11.774,premup-three_ses-01_part-01_label-phase1,3.2.4,Win32,60,right,0.126000166,4,0,4,0,1,3,1,0,240,169,1,239,,,,,,,,,,,,,,,,,,
,,0,176,,,,,,,1,5,2,stim/52.jpeg,HouseObjects,1,stim/objects/HouseObjects/ironingboard.png,0.5,2,0.2,0.15,left,42,2021-01-06_02h37.11.774,premup-three_ses-01_part-01_label-phase1,3.2.4,Win32,60,right,0.499000311,4,0,4,0,1,3,1,0,240,17,1,239,,,,,,,,,,,,,,,,,,
,,1,177,,,,,,,2,2,1,stim/21.jpeg,HouseObjects,1,stim/objects/HouseObjects/iron2.png,0.7,1,-0.2,0.15,left,42,2021-01-06_02h37.11.774,premup-three_ses-01_part-01_label-phase1,3.2.4,Win32,60,left,0.341000319,4,0,4,0,1,3,1,0,240,136,1,239,,,,,,,,,,,,,,,,,,
,,1,178,,,,,,,1,6,4,stim/64.jpeg,HouseObjects,1,stim/objects/HouseObjects/pitcher.png,0.5,4,0.2,-0.15,left,42,2021-01-06_02h37.11.774,premup-three_ses-01_part-01_label-phase1,3.2.4,Win32,60,left,0.394000292,4,0,4,0,1,3,1,0,240,51,1,239,,,,,,,,,,,,,,,,,,
,,1,179,,,,,,,1,6,3,stim/63.jpeg,HouseObjects,1,stim/objects/HouseObjects/pan.png,0.5,4,0.2,-0.15,left,42,2021-01-06_02h37.11.774,premup-three_ses-01_part-01_label-phase1,3.2.4,Win32,60,left,0.198000193,4,0,4,0,1,3,1,0,240,50,1,239,,,,,,,,,,,,,,,,,,
,,0,180,,,,,,,2,1,1,stim/11.jpeg,Instruments,2,stim/objects/Instruments/panflute.png,0.7,2,0.2,0.15,right,42,2021-01-06_02h37.11.774,premup-three_ses-01_part-01_label-phase1,3.2.4,Win32,60,left,0.300000191,4,0,4,0,1,3,1,0,240,112,1,239,,,,,,,,,,,,,,,,,,
,,0,181,,,,,,,2,1,4,stim/14.jpeg,Instruments,2,stim/objects/Instruments/record_player.png,0.7,1,-0.2,0.15,right,42,2021-01-06_02h37.11.774,premup-three_ses-01_part-01_label-phase1,3.2.4,Win32,60,left,0.312999964,4,0,4,0,1,3,1,0,240,99,1,239,,,,,,,,,,,,,,,,,,
,,0,182,,,,,,,3,4,2,stim/42.jpeg,HouseObjects,1,stim/objects/HouseObjects/remote2.png,0.9,1,-0.2,0.15,left,42,2021-01-06_02h37.11.774,premup-three_ses-01_part-01_label-phase1,3.2.4,Win32,60,right,0.147000313,4,0,4,0,1,3,1,0,240,233,1,239,,,,,,,,,,,,,,,,,,
,,0,183,,,,,,,3,4,3,stim/43.jpeg,HouseObjects,1,stim/objects/HouseObjects/rubbergloves2.png,0.9,2,0.2,0.15,left,42,2021-01-06_02h37.11.774,premup-three_ses-01_part-01_label-phase1,3.2.4,Win32,60,right,0.137000322,4,0,4,0,1,3,1,0,240,218,1,239,,,,,,,,,,,,,,,,,,
,,1,184,,,,,,,3,3,1,stim/31.jpeg,Instruments,2,stim/objects/Instruments/metronome2.png,0.9,2,0.2,0.15,right,42,2021-01-06_02h37.11.774,premup-three_ses-01_part-01_label-phase1,3.2.4,Win32,60,right,0.188000202,4,0,4,0,1,3,1,0,240,176,1,239,,,,,,,,,,,,,,,,,,
,,0,185,,,,,,,1,6,2,stim/62.jpeg,HouseObjects,1,stim/objects/HouseObjects/match.png,0.5,3,-0.2,-0.15,left,42,2021-01-06_02h37.11.774,premup-three_ses-01_part-01_label-phase1,3.2.4,Win32,60,right,0.003000021,4,0,4,0,1,3,1,0,240,41,1,239,,,,,,,,,,,,,,,,,,
,,0,186,,,,,,,1,6,4,stim/64.jpeg,HouseObjects,1,stim/objects/HouseObjects/pitcher.png,0.5,3,-0.2,-0.15,left,42,2021-01-06_02h37.11.774,premup-three_ses-01_part-01_label-phase1,3.2.4,Win32,60,right,0.26300025,4,0,4,0,1,3,1,0,240,47,1,239,,,,,,,,,,,,,,,,,,
,,0,187,,,,,,,2,1,4,stim/14.jpeg,HouseObjects,1,stim/objects/HouseObjects/rug.png,0.3,2,0.2,0.15,left,42,2021-01-06_02h37.11.774,premup-three_ses-01_part-01_label-phase1,3.2.4,Win32,60,right,0.095000029,4,0,4,0,1,3,1,0,240,87,1,239,,,,,,,,,,,,,,,,,,
,,0,188,,,,,,,2,1,3,stim/13.jpeg,Instruments,2,stim/objects/Instruments/record.png,0.7,4,0.2,-0.15,right,42,2021-01-06_02h37.11.774,premup-three_ses-01_part-01_label-phase1,3.2.4,Win32,60,left,0.250000238,4,0,4,0,1,3,1,0,240,94,1,239,,,,,,,,,,,,,,,,,,
,,1,189,,,,,,,3,4,3,stim/43.jpeg,HouseObjects,1,stim/objects/HouseObjects/rubbergloves2.png,0.9,4,0.2,-0.15,left,42,2021-01-06_02h37.11.774,premup-three_ses-01_part-01_label-phase1,3.2.4,Win32,60,left,0.181000233,4,0,4,0,1,3,1,0,240,202,1,239,,,,,,,,,,,,,,,,,,
,,0,190,,,,,,,3,3,3,stim/33.jpeg,Instruments,2,stim/objects/Instruments/musicstand2.png,0.9,4,0.2,-0.15,right,42,2021-01-06_02h37.11.774,premup-three_ses-01_part-01_label-phase1,3.2.4,Win32,60,left,0.362000227,4,0,4,0,1,3,1,0,240,178,1,239,,,,,,,,,,,,,,,,,,
,,0,191,,,,,,,3,4,4,stim/44.jpeg,HouseObjects,1,stim/objects/HouseObjects/rug2.png,0.9,2,0.2,0.15,left,42,2021-01-06_02h37.11.774,premup-three_ses-01_part-01_label-phase1,3.2.4,Win32,60,right,0.35400033,4,0,4,0,1,3,1,0,240,227,1,239,,,,,,,,,,,,,,,,,,
,,1,192,,,,,,,2,2,4,stim/24.jpeg,HouseObjects,1,stim/objects/HouseObjects/knife2.png,0.7,3,-0.2,-0.15,left,42,2021-01-06_02h37.11.774,premup-three_ses-01_part-01_label-phase1,3.2.4,Win32,60,left,0.287000179,4,0,4,0,1,3,1,0,240,139,1,239,,,,,,,,,,,,,,,,,,
,,0,193,,,,,,,3,3,4,stim/34.jpeg,Instruments,2,stim/objects/Instruments/oboe2.png,0.9,2,0.2,0.15,right,42,2021-01-06_02h37.11.774,premup-three_ses-01_part-01_label-phase1,3.2.4,Win32,60,left,0.371999979,4,0,4,0,1,3,1,0,240,175,1,239,,,,,,,,,,,,,,,,,,
,,0,194,,,,,,,1,6,1,stim/61.jpeg,HouseObjects,1,stim/objects/HouseObjects/lintroller.png,0.5,4,0.2,-0.15,left,42,2021-01-06_02h37.11.774,premup-three_ses-01_part-01_label-phase1,3.2.4,Win32,60,right,0.260000229,4,0,4,0,1,3,1,0,240,40,1,239,,,,,,,,,,,,,,,,,,
,,1,195,,,,,,,3,4,3,stim/43.jpeg,HouseObjects,1,stim/objects/HouseObjects/rubbergloves2.png,0.9,3,-0.2,-0.15,left,42,2021-01-06_02h37.11.774,premup-three_ses-01_part-01_label-phase1,3.2.4,Win32,60,left,0.234000206,4,0,4,0,1,3,1,0,240,230,1,239,,,,,,,,,,,,,,,,,,
,,0,196,,,,,,,3,4,2,stim/42.jpeg,HouseObjects,1,stim/objects/HouseObjects/remote2.png,0.9,3,-0.2,-0.15,left,42,2021-01-06_02h37.11.774,premup-three_ses-01_part-01_label-phase1,3.2.4,Win32,60,right,0.34800005,4,0,4,0,1,3,1,0,240,229,1,239,,,,,,,,,,,,,,,,,,
,,1,197,,,,,,,2,1,3,stim/13.jpeg,Instruments,2,stim/objects/Instruments/record.png,0.7,1,-0.2,0.15,right,42,2021-01-06_02h37.11.774,premup-three_ses-01_part-01_label-phase1,3.2.4,Win32,60,right,0.52300024,4,0,4,0,1,3,1,0,240,102,1,239,,,,,,,,,,,,,,,,,,
,,0,198,,,,,,,1,5,2,stim/52.jpeg,Instruments,2,stim/objects/Instruments/laud.png,0.5,2,0.2,0.15,right,42,2021-01-06_02h37.11.774,premup-three_ses-01_part-01_label-phase1,3.2.4,Win32,60,left,0.458000183,4,0,4,0,1,3,1,0,240,21,1,239,,,,,,,,,,,,,,,,,,
,,0,199,,,,,,,3,3,2,stim/32.jpeg,HouseObjects,1,stim/objects/HouseObjects/match2.png,0.1,4,0.2,-0.15,left,42,2021-01-06_02h37.11.774,premup-three_ses-01_part-01_label-phase1,3.2.4,Win32,60,right,0.292000294,4,0,4,0,1,3,1,0,240,161,1,239,,,,,,,,,,,,,,,,,,
,,1,200,,,,,,,1,5,2,stim/52.jpeg,HouseObjects,1,stim/objects/HouseObjects/ironingboard.png,0.5,2,0.2,0.15,left,42,2021-01-06_02h37.11.774,premup-three_ses-01_part-01_label-phase1,3.2.4,Win32,60,left,0.236000061,4,0,4,0,1,3,1,0,240,1,1,239,,,,,,,,,,,,,,,,,,
,,1,201,,,,,,,1,6,4,stim/64.jpeg,Instruments,2,stim/objects/Instruments/oboe.png,0.5,3,-0.2,-0.15,right,42,2021-01-06_02h37.11.774,premup-three_ses-01_part-01_label-phase1,3.2.4,Win32,60,right,0.268000364,4,0,4,0,1,3,1,0,240,75,1,239,,,,,,,,,,,,,,,,,,
,,1,202,,,,,,,2,2,3,stim/23.jpeg,Instruments,2,stim/objects/Instruments/maraca2.png,0.3,1,-0.2,0.15,right,42,2021-01-06_02h37.11.774,premup-three_ses-01_part-01_label-phase1,3.2.4,Win32,60,right,0.427000046,4,0,4,0,1,3,1,0,240,158,1,239,,,,,,,,,,,,,,,,,,
,,1,203,,,,,,,3,3,4,stim/34.jpeg,Instruments,2,stim/objects/Instruments/oboe2.png,0.9,1,-0.2,0.15,right,42,2021-01-06_02h37.11.774,premup-three_ses-01_part-01_label-phase1,3.2.4,Win32,60,right,0.334000111,4,0,4,0,1,3,1,0,240,183,1,239,,,,,,,,,,,,,,,,,,
,,0,204,,,,,,,2,2,4,stim/24.jpeg,HouseObjects,1,stim/objects/HouseObjects/knife2.png,0.7,4,0.2,-0.15,left,42,2021-01-06_02h37.11.774,premup-three_ses-01_part-01_label-phase1,3.2.4,Win32,60,right,0.360000134,4,0,4,0,1,3,1,0,240,123,1,239,,,,,,,,,,,,,,,,,,
,,1,205,,,,,,,2,2,2,stim/22.jpeg,HouseObjects,1,stim/objects/HouseObjects/ironingboard2.png,0.7,3,-0.2,-0.15,left,42,2021-01-06_02h37.11.774,premup-three_ses-01_part-01_label-phase1,3.2.4,Win32,60,left,0.333000183,4,0,4,0,1,3,1,0,240,137,1,239,,,,,,,,,,,,,,,,,,
,,1,206,,,,,,,3,4,4,stim/44.jpeg,HouseObjects,1,stim/objects/HouseObjects/rug2.png,0.9,1,-0.2,0.15,left,42,2021-01-06_02h37.11.774,premup-three_ses-01_part-01_label-phase1,3.2.4,Win32,60,left,0.417000294,4,0,4,0,1,3,1,0,240,207,1,239,,,,,,,,,,,,,,,,,,
,,1,207,,,,,,,2,1,3,stim/13.jpeg,Instruments,2,stim/objects/Instruments/record.png,0.7,4,0.2,-0.15,right,42,2021-01-06_02h37.11.774,premup-three_ses-01_part-01_label-phase1,3.2.4,Win32,60,right,0.227000237,4,0,4,0,1,3,1,0,240,110,1,239,,,,,,,,,,,,,,,,,,
,,1,208,,,,,,,3,4,2,stim/42.jpeg,Instruments,2,stim/objects/Instruments/pipepiano2.png,0.1,3,-0.2,-0.15,right,42,2021-01-06_02h37.11.774,premup-three_ses-01_part-01_label-phase1,3.2.4,Win32,60,right,0.523000002,4,0,4,0,1,3,1,0,240,237,1,239,,,,,,,,,,,,,,,,,,
,,1,209,,,,,,,2,2,2,stim/22.jpeg,HouseObjects,1,stim/objects/HouseObjects/ironingboard2.png,0.7,3,-0.2,-0.15,left,42,2021-01-06_02h37.11.774,premup-three_ses-01_part-01_label-phase1,3.2.4,Win32,60,left,0.19900012,4,0,4,0,1,3,1,0,240,145,1,239,,,,,,,,,,,,,,,,,,
,,1,210,,,,,,,1,5,3,stim/53.jpeg,HouseObjects,1,stim/objects/HouseObjects/key.png,0.5,4,0.2,-0.15,left,42,2021-01-06_02h37.11.774,premup-three_ses-01_part-01_label-phase1,3.2.4,Win32,60,left,0.177000284,4,0,4,0,1,3,1,0,240,6,1,239,,,,,,,,,,,,,,,,,,
,,1,211,,,,,,,2,1,2,stim/12.jpeg,Instruments,2,stim/objects/Instruments/pipepiano.png,0.7,1,-0.2,0.15,right,42,2021-01-06_02h37.11.774,premup-three_ses-01_part-01_label-phase1,3.2.4,Win32,60,right,0.213999987,4,0,4,0,1,3,1,0,240,113,1,239,,,,,,,,,,,,,,,,,,
,,0,212,,,,,,,2,2,2,stim/22.jpeg,HouseObjects,1,stim/objects/HouseObjects/ironingboard2.png,0.7,3,-0.2,-0.15,left,42,2021-01-06_02h37.11.774,premup-three_ses-01_part-01_label-phase1,3.2.4,Win32,60,right,0.393000364,4,0,4,0,1,3,1,0,240,129,1,239,,,,,,,,,,,,,,,,,,
,,1,213,,,,,,,1,6,2,stim/62.jpeg,Instruments,2,stim/objects/Instruments/musicsheet.png,0.5,1,-0.2,0.15,right,42,2021-01-06_02h37.11.774,premup-three_ses-01_part-01_label-phase1,3.2.4,Win32,60,right,0.218000174,4,0,4,0,1,3,1,0,240,69,1,239,,,,,,,,,,,,,,,,,,
,,0,214,,,,,,,1,6,3,stim/63.jpeg,Instruments,2,stim/objects/Instruments/musicstand.png,0.5,1,-0.2,0.15,right,42,2021-01-06_02h37.11.774,premup-three_ses-01_part-01_label-phase1,3.2.4,Win32,60,,,4,0,4,0,1,3,1,0,240,74,1,239,,,,,,,,,,,,,,,,,,
,,1,215,,,,,,,3,4,3,stim/43.jpeg,HouseObjects,1,stim/objects/HouseObjects/rubbergloves2.png,0.9,3,-0.2,-0.15,left,42,2021-01-06_02h37.11.774,premup-three_ses-01_part-01_label-phase1,3.2.4,Win32,60,left,0.259000301,4,0,4,0,1,3,1,0,240,206,1,239,,,,,,,,,,,,,,,,,,
,,1,216,,,,,,,3,4,1,stim/41.jpeg,HouseObjects,1,stim/objects/HouseObjects/recyclingbin2.png,0.9,3,-0.2,-0.15,left,42,2021-01-06_02h37.11.774,premup-three_ses-01_part-01_label-phase1,3.2.4,Win32,60,left,0.383000135,4,0,4,0,1,3,1,0,240,212,1,239,,,,,,,,,,,,,,,,,,
,,1,217,,,,,,,1,5,3,stim/53.jpeg,Instruments,2,stim/objects/Instruments/maraca.png,0.5,4,0.2,-0.15,right,42,2021-01-06_02h37.11.774,premup-three_ses-01_part-01_label-phase1,3.2.4,Win32,60,right,0.282000303,4,0,4,0,1,3,1,0,240,38,1,239,,,,,,,,,,,,,,,,,,
,,0,218,,,,,,,2,1,3,stim/13.jpeg,HouseObjects,1,stim/objects/HouseObjects/rubbergloves.png,0.3,4,0.2,-0.15,left,42,2021-01-06_02h37.11.774,premup-three_ses-01_part-01_label-phase1,3.2.4,Win32,60,right,0.430999994,4,0,4,0,1,3,1,0,240,86,1,239,,,,,,,,,,,,,,,,,,
,,0,219,,,,,,,3,4,4,stim/44.jpeg,HouseObjects,1,stim/objects/HouseObjects/rug2.png,0.9,2,0.2,0.15,left,42,2021-01-06_02h37.11.774,premup-three_ses-01_part-01_label-phase1,3.2.4,Win32,60,right,0.325000048,4,0,4,0,1,3,1,0,240,231,1,239,,,,,,,,,,,,,,,,,,
,,0,220,,,,,,,3,3,2,stim/32.jpeg,Instruments,2,stim/objects/Instruments/musicsheet2.png,0.9,4,0.2,-0.15,right,42,2021-01-06_02h37.11.774,premup-three_ses-01_part-01_label-phase1,3.2.4,Win32,60,left,0.169000149,4,0,4,0,1,3,1,0,240,197,1,239,,,,,,,,,,,,,,,,,,
,,1,221,,,,,,,3,4,4,stim/44.jpeg,Instruments,2,stim/objects/Instruments/record_player2.png,0.1,3,-0.2,-0.15,right,42,2021-01-06_02h37.11.774,premup-three_ses-01_part-01_label-phase1,3.2.4,Win32,60,right,0.066000223,4,0,4,0,1,3,1,0,240,239,1,239,,,,,,,,,,,,,,,,,,
,,1,222,,,,,,,3,4,3,stim/43.jpeg,HouseObjects,1,stim/objects/HouseObjects/rubbergloves2.png,0.9,2,0.2,0.15,left,42,2021-01-06_02h37.11.774,premup-three_ses-01_part-01_label-phase1,3.2.4,Win32,60,left,0.335000038,4,0,4,0,1,3,1,0,240,214,1,239,,,,,,,,,,,,,,,,,,
,,0,223,,,,,,,2,2,1,stim/21.jpeg,Instruments,2,stim/objects/Instruments/keyboard2.png,0.3,4,0.2,-0.15,right,42,2021-01-06_02h37.11.774,premup-three_ses-01_part-01_label-phase1,3.2.4,Win32,60,left,0.251000166,4,0,4,0,1,3,1,0,240,156,1,239,,,,,,,,,,,,,,,,,,
,,1,224,,,,,,,1,5,4,stim/54.jpeg,Instruments,2,stim/objects/Instruments/marimba.png,0.5,4,0.2,-0.15,right,42,2021-01-06_02h37.11.774,premup-three_ses-01_part-01_label-phase1,3.2.4,Win32,60,right,0.184000015,4,0,4,0,1,3,1,0,240,35,1,239,,,,,,,,,,,,,,,,,,
,,0,225,,,,,,,2,2,4,stim/24.jpeg,Instruments,2,stim/objects/Instruments/marimba2.png,0.3,3,-0.2,-0.15,right,42,2021-01-06_02h37.11.774,premup-three_ses-01_part-01_label-phase1,3.2.4,Win32,60,left,0.195000172,4,0,4,0,1,3,1,0,240,151,1,239,,,,,,,,,,,,,,,,,,
,,0,226,,,,,,,3,4,1,stim/41.jpeg,HouseObjects,1,stim/objects/HouseObjects/recyclingbin2.png,0.9,3,-0.2,-0.15,left,42,2021-01-06_02h37.11.774,premup-three_ses-01_part-01_label-phase1,3.2.4,Win32,60,right,0.094000101,4,0,4,0,1,3,1,0,240,232,1,239,,,,,,,,,,,,,,,,,,
,,1,227,,,,,,,1,6,4,stim/64.jpeg,Instruments,2,stim/objects/Instruments/oboe.png,0.5,3,-0.2,-0.15,right,42,2021-01-06_02h37.11.774,premup-three_ses-01_part-01_label-phase1,3.2.4,Win32,60,right,0.203000069,4,0,4,0,1,3,1,0,240,63,1,239,,,,,,,,,,,,,,,,,,
,,0,228,,,,,,,2,1,1,stim/11.jpeg,HouseObjects,1,stim/objects/HouseObjects/recyclingbin.png,0.3,4,0.2,-0.15,left,42,2021-01-06_02h37.11.774,premup-three_ses-01_part-01_label-phase1,3.2.4,Win32,60,right,0.496000051,4,0,4,0,1,3,1,0,240,84,1,239,,,,,,,,,,,,,,,,,,
,,0,229,,,,,,,3,3,1,stim/31.jpeg,Instruments,2,stim/objects/Instruments/metronome2.png,0.9,3,-0.2,-0.15,right,42,2021-01-06_02h37.11.774,premup-three_ses-01_part-01_label-phase1,3.2.4,Win32,60,left,0.494000196,4,0,4,0,1,3,1,0,240,188,1,239,,,,,,,,,,,,,,,,,,
,,0,230,,,,,,,3,3,3,stim/33.jpeg,Instruments,2,stim/objects/Instruments/musicstand2.png,0.9,3,-0.2,-0.15,right,42,2021-01-06_02h37.11.774,premup-three_ses-01_part-01_label-phase1,3.2.4,Win32,60,left,0.374000072,4,0,4,0,1,3,1,0,240,186,1,239,,,,,,,,,,,,,,,,,,
,,1,231,,,,,,,3,4,4,stim/44.jpeg,HouseObjects,1,stim/objects/HouseObjects/rug2.png,0.9,4,0.2,-0.15,left,42,2021-01-06_02h37.11.774,premup-three_ses-01_part-01_label-phase1,3.2.4,Win32,60,left,0.276000261,4,0,4,0,1,3,1,0,240,215,1,239,,,,,,,,,,,,,,,,,,
,,1,232,,,,,,,1,5,3,stim/53.jpeg,Instruments,2,stim/objects/Instruments/maraca.png,0.5,3,-0.2,-0.15,right,42,2021-01-06_02h37.11.774,premup-three_ses-01_part-01_label-phase1,3.2.4,Win32,60,right,0.200999975,4,0,4,0,1,3,1,0,240,30,1,239,,,,,,,,,,,,,,,,,,
,,0,233,,,,,,,1,6,1,stim/61.jpeg,Instruments,2,stim/objects/Instruments/metronome.png,0.5,2,0.2,0.15,right,42,2021-01-06_02h37.11.774,premup-three_ses-01_part-01_label-phase1,3.2.4,Win32,60,left,0.371999979,4,0,4,0,1,3,1,0,240,64,1,239,,,,,,,,,,,,,,,,,,
,,0,234,,,,,,,1,6,3,stim/63.jpeg,HouseObjects,1,stim/objects/HouseObjects/pan.png,0.5,1,-0.2,0.15,left,42,2021-01-06_02h37.11.774,premup-three_ses-01_part-01_label-phase1,3.2.4,Win32,60,right,0.443000317,4,0,4,0,1,3,1,0,240,42,1,239,,,,,,,,,,,,,,,,,,
,,1,235,,,,,,,3,4,3,stim/43.jpeg,HouseObjects,1,stim/objects/HouseObjects/rubbergloves2.png,0.9,1,-0.2,0.15,left,42,2021-01-06_02h37.11.774,premup-three_ses-01_part-01_label-phase1,3.2.4,Win32,60,left,0.253000021,4,0,4,0,1,3,1,0,240,210,1,239,,,,,,,,,,,,,,,,,,
,,1,236,,,,,,,1,6,2,stim/62.jpeg,HouseObjects,1,stim/objects/HouseObjects/match.png,0.5,4,0.2,-0.15,left,42,2021-01-06_02h37.11.774,premup-three_ses-01_part-01_label-phase1,3.2.4,Win32,60,left,0.082000256,4,0,4,0,1,3,1,0,240,45,1,239,,,,,,,,,,,,,,,,,,
,,0,237,,,,,,,3,4,1,stim/41.jpeg,HouseObjects,1,stim/objects/HouseObjects/recyclingbin2.png,0.9,2,0.2,0.15,left,42,2021-01-06_02h37.11.774,premup-three_ses-01_part-01_label-phase1,3.2.4,Win32,60,right,0.153000116,4,0,4,0,1,3,1,0,240,216,1,239,,,,,,,,,,,,,,,,,,
,,0,238,,,,,,,2,1,4,stim/14.jpeg,Instruments,2,stim/objects/Instruments/record_player.png,0.7,3,-0.2,-0.15,right,42,2021-01-06_02h37.11.774,premup-three_ses-01_part-01_label-phase1,3.2.4,Win32,60,left,0.251000166,4,0,4,0,1,3,1,0,240,95,1,239,,,,,,,,,,,,,,,,,,
,,1,239,,,,,,,3,4,2,stim/42.jpeg,HouseObjects,1,stim/objects/HouseObjects/remote2.png,0.9,2,0.2,0.15,left,42,2021-01-06_02h37.11.774,premup-three_ses-01_part-01_label-phase1,3.2.4,Win32,60,left,0.239000082,4,0,4,0,1,3,1,0,240,213,1,239,,,,,,,,,,,,,,,,,,
,,0,240,,,,,,,3,3,4,stim/34.jpeg,Instruments,2,stim/objects/Instruments/oboe2.png,0.9,4,0.2,-0.15,right,42,2021-01-06_02h37.11.774,premup-three_ses-01_part-01_label-phase1,3.2.4,Win32,60,left,0.261000156,4,0,4,0,1,3,1,0,240,179,1,239,,,,,,,,,,,,,,,,,,
,,,,,,,,,,,5,,stim/51.jpeg,,,,,,,,,42,2021-01-06_02h37.11.774,premup-three_ses-01_part-01_label-phase1,3.2.4,Win32,60,,,4,0,4,0,1,3,,,,,,,1,0,80,9.481000185,,,1,0,6,4,1,5,Music items,5,15,Household items,85,95
,,,,,,,,,,,1,,stim/11.jpeg,,,,,,,,,42,2021-01-06_02h37.11.774,premup-three_ses-01_part-01_label-phase1,3.2.4,Win32,60,,,4,0,4,0,1,3,,,,,,,1,0,65,10.61100006,,,1,0,6,0,1,5,Household items,45,55,Music items,45,55
,,,,,,,,,,,3,,stim/31.jpeg,,,,,,,,,42,2021-01-06_02h37.11.774,premup-three_ses-01_part-01_label-phase1,3.2.4,Win32,60,,,4,0,4,0,1,3,,,,,,,1,0,,,61,2.070000172,1,0,6,2,1,5,Household items,65,75,Music items,25,35
,,,,,,,,,,,4,,stim/41.jpeg,,,,,,,,,42,2021-01-06_02h37.11.774,premup-three_ses-01_part-01_label-phase1,3.2.4,Win32,60,,,4,0,4,0,1,3,,,,,,,1,0,,,60,2.963000059,1,0,6,3,1,5,Household items,65,75,Music items,25,35
,,,,,,,,,,,6,,stim/61.jpeg,,,,,,,,,42,2021-01-06_02h37.11.774,premup-three_ses-01_part-01_label-phase1,3.2.4,Win32,60,,,4,0,4,0,1,3,,,,,,,1,0,62,2.642999887,,,1,0,6,5,1,5,Household items,5,15,Music items,85,95
,,,,,,,,,,,2,,stim/21.jpeg,,,,,,,,,42,2021-01-06_02h37.11.774,premup-three_ses-01_part-01_label-phase1,3.2.4,Win32,60,,,4,0,4,0,1,3,,,,,,,1,0,36,2.255000114,,,1,0,6,1,1,5,Music items,45,55,Household items,45,55
,,,,,,,,,,,,,,,,,,,,,,42,2021-01-06_02h37.11.774,premup-three_ses-01_part-01_label-phase1,3.2.4,Win32,60,,,4,0,4,0,1,3,,,,,,,,,,,,,,,,,,,,,,,,
,,0,1,,,,,,,1,5,2,stim/52.jpeg,Instruments,2,stim/objects/Instruments/laud.png,0.5,4,0.2,-0.15,right,42,2021-01-06_02h37.11.774,premup-three_ses-01_part-01_label-phase1,3.2.4,Win32,60,left,1.611999989,4,0,4,0,1,3,1,0,240,33,1,239,,,,,,,,,,,,,,,,,,
,,0,2,,,,,,,2,2,3,stim/23.jpeg,HouseObjects,1,stim/objects/HouseObjects/key2.png,0.7,1,-0.2,0.15,left,42,2021-01-06_02h37.11.774,premup-three_ses-01_part-01_label-phase1,3.2.4,Win32,60,right,0.381000042,4,0,4,0,1,3,1,0,240,138,1,239,,,,,,,,,,,,,,,,,,
,,0,3,,,,,,,3,4,1,stim/41.jpeg,HouseObjects,1,stim/objects/HouseObjects/recyclingbin2.png,0.9,2,0.2,0.15,left,42,2021-01-06_02h37.11.774,premup-three_ses-01_part-01_label-phase1,3.2.4,Win32,60,right,0.264000177,4,0,4,0,1,3,1,0,240,216,1,239,,,,,,,,,,,,,,,,,,
,,0,4,,,,,,,2,1,2,stim/12.jpeg,Instruments,2,stim/objects/Instruments/pipepiano.png,0.7,2,0.2,0.15,right,42,2021-01-06_02h37.11.774,premup-three_ses-01_part-01_label-phase1,3.2.4,Win32,60,left,0.379000187,4,0,4,0,1,3,1,0,240,109,1,239,,,,,,,,,,,,,,,,,,
,,1,5,,,,,,,1,5,2,stim/52.jpeg,Instruments,2,stim/objects/Instruments/laud.png,0.5,3,-0.2,-0.15,right,42,2021-01-06_02h37.11.774,premup-three_ses-01_part-01_label-phase1,3.2.4,Win32,60,right,0.215000153,4,0,4,0,1,3,1,0,240,25,1,239,,,,,,,,,,,,,,,,,,
,,1,6,,,,,,,2,2,4,stim/24.jpeg,HouseObjects,1,stim/objects/HouseObjects/knife2.png,0.7,4,0.2,-0.15,left,42,2021-01-06_02h37.11.774,premup-three_ses-01_part-01_label-phase1,3.2.4,Win32,60,left,0.253000021,4,0,4,0,1,3,1,0,240,147,1,239,,,,,,,,,,,,,,,,,,
,,0,7,,,,,,,3,4,1,stim/41.jpeg,HouseObjects,1,stim/objects/HouseObjects/recyclingbin2.png,0.9,1,-0.2,0.15,left,42,2021-01-06_02h37.11.774,premup-three_ses-01_part-01_label-phase1,3.2.4,Win32,60,right,0.243000269,4,0,4,0,1,3,1,0,240,228,1,239,,,,,,,,,,,,,,,,,,
,,0,8,,,,,,,3,4,4,stim/44.jpeg,HouseObjects,1,stim/objects/HouseObjects/rug2.png,0.9,1,-0.2,0.15,left,42,2021-01-06_02h37.11.774,premup-three_ses-01_part-01_label-phase1,3.2.4,Win32,60,right,0.21600008,4,0,4,0,1,3,1,0,240,207,1,239,,,,,,,,,,,,,,,,,,
,,0,9,,,,,,,2,2,2,stim/22.jpeg,Instruments,2,stim/objects/Instruments/laud2.png,0.3,4,0.2,-0.15,right,42,2021-01-06_02h37.11.774,premup-three_ses-01_part-01_label-phase1,3.2.4,Win32,60,left,0.241000175,4,0,4,0,1,3,1,0,240,149,1,239,,,,,,,,,,,,,,,,,,
,,1,10,,,,,,,2,1,2,stim/12.jpeg,Instruments,2,stim/objects/Instruments/pipepiano.png,0.7,1,-0.2,0.15,right,42,2021-01-06_02h37.11.774,premup-three_ses-01_part-01_label-phase1,3.2.4,Win32,60,right,0.213000298,4,0,4,0,1,3,1,0,240,117,1,239,,,,,,,,,,,,,,,,,,
,,1,11,,,,,,,3,4,4,stim/44.jpeg,Instruments,2,stim/objects/Instruments/record_player2.png,0.1,3,-0.2,-0.15,right,42,2021-01-06_02h37.11.774,premup-three_ses-01_part-01_label-phase1,3.2.4,Win32,60,right,0.289000273,4,0,4,0,1,3,1,0,240,239,1,239,,,,,,,,,,,,,,,,,,
,,1,12,,,,,,,2,2,1,stim/21.jpeg,Instruments,2,stim/objects/Instruments/keyboard2.png,0.3,2,0.2,0.15,right,42,2021-01-06_02h37.11.774,premup-three_ses-01_part-01_label-phase1,3.2.4,Win32,60,right,0.287000179,4,0,4,0,1,3,1,0,240,148,1,239,,,,,,,,,,,,,,,,,,
,,1,13,,,,,,,2,2,1,stim/21.jpeg,HouseObjects,1,stim/objects/HouseObjects/iron2.png,0.7,2,0.2,0.15,left,42,2021-01-06_02h37.11.774,premup-three_ses-01_part-01_label-phase1,3.2.4,Win32,60,left,0.304000139,4,0,4,0,1,3,1,0,240,144,1,239,,,,,,,,,,,,,,,,,,
,,1,14,,,,,,,3,4,3,stim/43.jpeg,HouseObjects,1,stim/objects/HouseObjects/rubbergloves2.png,0.9,3,-0.2,-0.15,left,42,2021-01-06_02h37.11.774,premup-three_ses-01_part-01_label-phase1,3.2.4,Win32,60,left,0.529000044,4,0,4,0,1,3,1,0,240,206,1,239,,,,,,,,,,,,,,,,,,
,,1,15,,,,,,,1,5,1,stim/51.jpeg,Instruments,2,stim/objects/Instruments/keyboard.png,0.5,1,-0.2,0.15,right,42,2021-01-06_02h37.11.774,premup-three_ses-01_part-01_label-phase1,3.2.4,Win32,60,right,0.4150002,4,0,4,0,1,3,1,0,240,24,1,239,,,,,,,,,,,,,,,,,,
,,1,16,,,,,,,3,4,2,stim/42.jpeg,HouseObjects,1,stim/objects/HouseObjects/remote2.png,0.9,1,-0.2,0.15,left,42,2021-01-06_02h37.11.774,premup-three_ses-01_part-01_label-phase1,3.2.4,Win32,60,left,0.417000294,4,0,4,0,1,3,1,0,240,201,1,239,,,,,,,,,,,,,,,,,,
,,0,17,,,,,,,3,4,2,stim/42.jpeg,HouseObjects,1,stim/objects/HouseObjects/remote2.png,0.9,1,-0.2,0.15,left,42,2021-01-06_02h37.11.774,premup-three_ses-01_part-01_label-phase1,3.2.4,Win32,60,right,0.272000074,4,0,4,0,1,3,1,0,240,233,1,239,,,,,,,,,,,,,,,,,,
,,0,18,,,,,,,2,1,4,stim/14.jpeg,Instruments,2,stim/objects/Instruments/record_player.png,0.7,2,0.2,0.15,right,42,2021-01-06_02h37.11.774,premup-three_ses-01_part-01_label-phase1,3.2.4,Win32,60,left,0.294000149,4,0,4,0,1,3,1,0,240,107,1,239,,,,,,,,,,,,,,,,,,
,,1,19,,,,,,,2,1,1,stim/11.jpeg,Instruments,2,stim/objects/Instruments/panflute.png,0.7,2,0.2,0.15,right,42,2021-01-06_02h37.11.774,premup-three_ses-01_part-01_label-phase1,3.2.4,Win32,60,right,0.312000275,4,0,4,0,1,3,1,0,240,96,1,239,,,,,,,,,,,,,,,,,,
,,1,20,,,,,,,1,5,2,stim/52.jpeg,Instruments,2,stim/objects/Instruments/laud.png,0.5,4,0.2,-0.15,right,42,2021-01-06_02h37.11.774,premup-three_ses-01_part-01_label-phase1,3.2.4,Win32,60,right,0.304000139,4,0,4,0,1,3,1,0,240,37,1,239,,,,,,,,,,,,,,,,,,
,,0,21,,,,,,,3,3,3,stim/33.jpeg,Instruments,2,stim/objects/Instruments/musicstand2.png,0.9,2,0.2,0.15,right,42,2021-01-06_02h37.11.774,premup-three_ses-01_part-01_label-phase1,3.2.4,Win32,60,left,0.284000158,4,0,4,0,1,3,1,0,240,190,1,239,,,,,,,,,,,,,,,,,,
,,1,22,,,,,,,2,2,1,stim/21.jpeg,HouseObjects,1,stim/objects/HouseObjects/iron2.png,0.7,1,-0.2,0.15,left,42,2021-01-06_02h37.11.774,premup-three_ses-01_part-01_label-phase1,3.2.4,Win32,60,left,0.351999998,4,0,4,0,1,3,1,0,240,124,1,239,,,,,,,,,,,,,,,,,,
,,1,23,,,,,,,2,2,3,stim/23.jpeg,HouseObjects,1,stim/objects/HouseObjects/key2.png,0.7,1,-0.2,0.15,left,42,2021-01-06_02h37.11.774,premup-three_ses-01_part-01_label-phase1,3.2.4,Win32,60,left,0.335000277,4,0,4,0,1,3,1,0,240,126,1,239,,,,,,,,,,,,,,,,,,
,,0,24,,,,,,,2,2,2,stim/22.jpeg,HouseObjects,1,stim/objects/HouseObjects/ironingboard2.png,0.7,3,-0.2,-0.15,left,42,2021-01-06_02h37.11.774,premup-three_ses-01_part-01_label-phase1,3.2.4,Win32,60,right,0.491000175,4,0,4,0,1,3,1,0,240,145,1,239,,,,,,,,,,,,,,,,,,
,,0,25,,,,,,,2,2,4,stim/24.jpeg,HouseObjects,1,stim/objects/HouseObjects/knife2.png,0.7,2,0.2,0.15,left,42,2021-01-06_02h37.11.774,premup-three_ses-01_part-01_label-phase1,3.2.4,Win32,60,right,0.55700016,4,0,4,0,1,3,1,0,240,131,1,239,,,,,,,,,,,,,,,,,,
,,0,26,,,,,,,2,1,3,stim/13.jpeg,Instruments,2,stim/objects/Instruments/record.png,0.7,1,-0.2,0.15,right,42,2021-01-06_02h37.11.774,premup-three_ses-01_part-01_label-phase1,3.2.4,Win32,60,left,0.260000229,4,0,4,0,1,3,1,0,240,118,1,239,,,,,,,,,,,,,,,,,,
,,1,27,,,,,,,2,2,2,stim/22.jpeg,HouseObjects,1,stim/objects/HouseObjects/ironingboard2.png,0.7,3,-0.2,-0.15,left,42,2021-01-06_02h37.11.774,premup-three_ses-01_part-01_label-phase1,3.2.4,Win32,60,left,0.204000235,4,0,4,0,1,3,1,0,240,137,1,239,,,,,,,,,,,,,,,,,,
,,1,28,,,,,,,1,5,4,stim/54.jpeg,Instruments,2,stim/objects/Instruments/marimba.png,0.5,3,-0.2,-0.15,right,42,2021-01-06_02h37.11.774,premup-three_ses-01_part-01_label-phase1,3.2.4,Win32,60,right,0.171000004,4,0,4,0,1,3,1,0,240,39,1,239,,,,,,,,,,,,,,,,,,
,,1,29,,,,,,,2,1,4,stim/14.jpeg,Instruments,2,stim/objects/Instruments/record_player.png,0.7,3,-0.2,-0.15,right,42,2021-01-06_02h37.11.774,premup-three_ses-01_part-01_label-phase1,3.2.4,Win32,60,right,0.180000305,4,0,4,0,1,3,1,0,240,95,1,239,,,,,,,,,,,,,,,,,,
,,1,30,,,,,,,2,2,3,stim/23.jpeg,Instruments,2,stim/objects/Instruments/maraca2.png,0.3,2,0.2,0.15,right,42,2021-01-06_02h37.11.774,premup-three_ses-01_part-01_label-phase1,3.2.4,Win32,60,right,0.243000269,4,0,4,0,1,3,1,0,240,154,1,239,,,,,,,,,,,,,,,,,,
,,1,31,,,,,,,3,4,4,stim/44.jpeg,HouseObjects,1,stim/objects/HouseObjects/rug2.png,0.9,2,0.2,0.15,left,42,2021-01-06_02h37.11.774,premup-three_ses-01_part-01_label-phase1,3.2.4,Win32,60,left,0.146000147,4,0,4,0,1,3,1,0,240,203,1,239,,,,,,,,,,,,,,,,,,
,,1,32,,,,,,,3,4,1,stim/41.jpeg,HouseObjects,1,stim/objects/HouseObjects/recyclingbin2.png,0.9,3,-0.2,-0.15,left,42,2021-01-06_02h37.11.774,premup-three_ses-01_part-01_label-phase1,3.2.4,Win32,60,left,0.281000137,4,0,4,0,1,3,1,0,240,212,1,239,,,,,,,,,,,,,,,,,,
,,0,33,,,,,,,1,6,4,stim/64.jpeg,HouseObjects,1,stim/objects/HouseObjects/pitcher.png,0.5,3,-0.2,-0.15,left,42,2021-01-06_02h37.11.774,premup-three_ses-01_part-01_label-phase1,3.2.4,Win32,60,right,0.30700016,4,0,4,0,1,3,1,0,240,47,1,239,,,,,,,,,,,,,,,,,,
,,1,34,,,,,,,1,6,4,stim/64.jpeg,Instruments,2,stim/objects/Instruments/oboe.png,0.5,3,-0.2,-0.15,right,42,2021-01-06_02h37.11.774,premup-three_ses-01_part-01_label-phase1,3.2.4,Win32,60,right,0.207000256,4,0,4,0,1,3,1,0,240,79,1,239,,,,,,,,,,,,,,,,,,
,,0,35,,,,,,,1,5,2,stim/52.jpeg,Instruments,2,stim/objects/Instruments/laud.png,0.5,2,0.2,0.15,right,42,2021-01-06_02h37.11.774,premup-three_ses-01_part-01_label-phase1,3.2.4,Win32,60,left,0.311000347,4,0,4,0,1,3,1,0,240,21,1,239,,,,,,,,,,,,,,,,,,
,,1,36,,,,,,,2,2,3,stim/23.jpeg,HouseObjects,1,stim/objects/HouseObjects/key2.png,0.7,2,0.2,0.15,left,42,2021-01-06_02h37.11.774,premup-three_ses-01_part-01_label-phase1,3.2.4,Win32,60,left,0.358999968,4,0,4,0,1,3,1,0,240,146,1,239,,,,,,,,,,,,,,,,,,
,,1,37,,,,,,,1,6,2,stim/62.jpeg,Instruments,2,stim/objects/Instruments/musicsheet.png,0.5,1,-0.2,0.15,right,42,2021-01-06_02h37.11.774,premup-three_ses-01_part-01_label-phase1,3.2.4,Win32,60,right,1.278000116,4,0,4,0,1,3,1,0,240,69,1,239,,,,,,,,,,,,,,,,,,
,,0,38,,,,,,,1,5,2,stim/52.jpeg,HouseObjects,1,stim/objects/HouseObjects/ironingboard.png,0.5,3,-0.2,-0.15,left,42,2021-01-06_02h37.11.774,premup-three_ses-01_part-01_label-phase1,3.2.4,Win32,60,,,4,0,4,0,1,3,1,0,240,5,1,239,,,,,,,,,,,,,,,,,,
,,1,39,,,,,,,2,2,1,stim/21.jpeg,HouseObjects,1,stim/objects/HouseObjects/iron2.png,0.7,2,0.2,0.15,left,42,2021-01-06_02h37.11.774,premup-three_ses-01_part-01_label-phase1,3.2.4,Win32,60,left,0.312000275,4,0,4,0,1,3,1,0,240,128,1,239,,,,,,,,,,,,,,,,,,
,,1,40,,,,,,,2,2,1,stim/21.jpeg,HouseObjects,1,stim/objects/HouseObjects/iron2.png,0.7,1,-0.2,0.15,left,42,2021-01-06_02h37.11.774,premup-three_ses-01_part-01_label-phase1,3.2.4,Win32,60,left,0.610000134,4,0,4,0,1,3,1,0,240,132,1,239,,,,,,,,,,,,,,,,,,
,,1,41,,,,,,,2,1,4,stim/14.jpeg,Instruments,2,stim/objects/Instruments/record_player.png,0.7,4,0.2,-0.15,right,42,2021-01-06_02h37.11.774,premup-three_ses-01_part-01_label-phase1,3.2.4,Win32,60,right,0.676000118,4,0,4,0,1,3,1,0,240,115,1,239,,,,,,,,,,,,,,,,,,
,,1,42,,,,,,,2,1,2,stim/12.jpeg,Instruments,2,stim/objects/Instruments/pipepiano.png,0.7,1,-0.2,0.15,right,42,2021-01-06_02h37.11.774,premup-three_ses-01_part-01_label-phase1,3.2.4,Win32,60,right,0.493000269,4,0,4,0,1,3,1,0,240,113,1,239,,,,,,,,,,,,,,,,,,
,,1,43,,,,,,,2,1,4,stim/14.jpeg,Instruments,2,stim/objects/Instruments/record_player.png,0.7,3,-0.2,-0.15,right,42,2021-01-06_02h37.11.774,premup-three_ses-01_part-01_label-phase1,3.2.4,Win32,60,right,0.414000034,4,0,4,0,1,3,1,0,240,103,1,239,,,,,,,,,,,,,,,,,,
,,1,44,,,,,,,1,5,1,stim/51.jpeg,HouseObjects,1,stim/objects/HouseObjects/iron.png,0.5,1,-0.2,0.15,left,42,2021-01-06_02h37.11.774,premup-three_ses-01_part-01_label-phase1,3.2.4,Win32,60,left,0.49600029,4,0,4,0,1,3,1,0,240,4,1,239,,,,,,,,,,,,,,,,,,
,,1,45,,,,,,,3,3,4,stim/34.jpeg,Instruments,2,stim/objects/Instruments/oboe2.png,0.9,1,-0.2,0.15,right,42,2021-01-06_02h37.11.774,premup-three_ses-01_part-01_label-phase1,3.2.4,Win32,60,right,0.282000065,4,0,4,0,1,3,1,0,240,183,1,239,,,,,,,,,,,,,,,,,,
,,0,46,,,,,,,1,6,4,stim/64.jpeg,Instruments,2,stim/objects/Instruments/oboe.png,0.5,1,-0.2,0.15,right,42,2021-01-06_02h37.11.774,premup-three_ses-01_part-01_label-phase1,3.2.4,Win32,60,left,0.374000072,4,0,4,0,1,3,1,0,240,71,1,239,,,,,,,,,,,,,,,,,,
,,1,47,,,,,,,2,1,2,stim/12.jpeg,HouseObjects,1,stim/objects/HouseObjects/remote.png,0.3,1,-0.2,0.15,left,42,2021-01-06_02h37.11.774,premup-three_ses-01_part-01_label-phase1,3.2.4,Win32,60,left,0.426000118,4,0,4,0,1,3,1,0,240,89,1,239,,,,,,,,,,,,,,,,,,
,,1,48,,,,,,,1,5,1,stim/51.jpeg,Instruments,2,stim/objects/Instruments/keyboard.png,0.5,4,0.2,-0.15,right,42,2021-01-06_02h37.11.774,premup-three_ses-01_part-01_label-phase1,3.2.4,Win32,60,right,0.637000084,4,0,4,0,1,3,1,0,240,36,1,239,,,,,,,,,,,,,,,,,,
,,0,49,,,,,,,3,4,1,stim/41.jpeg,HouseObjects,1,stim/objects/HouseObjects/recyclingbin2.png,0.9,1,-0.2,0.15,left,42,2021-01-06_02h37.11.774,premup-three_ses-01_part-01_label-phase1,3.2.4,Win32,60,right,0.319000006,4,0,4,0,1,3,1,0,240,224,1,239,,,,,,,,,,,,,,,,,,
,,0,50,,,,,,,3,3,3,stim/33.jpeg,Instruments,2,stim/objects/Instruments/musicstand2.png,0.9,3,-0.2,-0.15,right,42,2021-01-06_02h37.11.774,premup-three_ses-01_part-01_label-phase1,3.2.4,Win32,60,left,0.819000244,4,0,4,0,1,3,1,0,240,186,1,239,,,,,,,,,,,,,,,,,,
,,0,51,,,,,,,3,4,3,stim/43.jpeg,HouseObjects,1,stim/objects/HouseObjects/rubbergloves2.png,0.9,2,0.2,0.15,left,42,2021-01-06_02h37.11.774,premup-three_ses-01_part-01_label-phase1,3.2.4,Win32,60,right,0.511000156,4,0,4,0,1,3,1,0,240,218,1,239,,,,,,,,,,,,,,,,,,
,,0,52,,,,,,,3,4,1,stim/41.jpeg,HouseObjects,1,stim/objects/HouseObjects/recyclingbin2.png,0.9,1,-0.2,0.15,left,42,2021-01-06_02h37.11.774,premup-three_ses-01_part-01_label-phase1,3.2.4,Win32,60,right,0.887000322,4,0,4,0,1,3,1,0,240,200,1,239,,,,,,,,,,,,,,,,,,
,,1,53,,,,,,,2,1,3,stim/13.jpeg,Instruments,2,stim/objects/Instruments/record.png,0.7,4,0.2,-0.15,right,42,2021-01-06_02h37.11.774,premup-three_ses-01_part-01_label-phase1,3.2.4,Win32,60,right,0.248000145,4,0,4,0,1,3,1,0,240,94,1,239,,,,,,,,,,,,,,,,,,
,,1,54,,,,,,,1,6,2,stim/62.jpeg,HouseObjects,1,stim/objects/HouseObjects/match.png,0.5,3,-0.2,-0.15,left,42,2021-01-06_02h37.11.774,premup-three_ses-01_part-01_label-phase1,3.2.4,Win32,60,left,0.098000288,4,0,4,0,1,3,1,0,240,57,1,239,,,,,,,,,,,,,,,,,,
,,0,55,,,,,,,3,3,2,stim/32.jpeg,Instruments,2,stim/objects/Instruments/musicsheet2.png,0.9,4,0.2,-0.15,right,42,2021-01-06_02h37.11.774,premup-three_ses-01_part-01_label-phase1,3.2.4,Win32,60,left,0.696000099,4,0,4,0,1,3,1,0,240,181,1,239,,,,,,,,,,,,,,,,,,
,,0,56,,,,,,,3,4,2,stim/42.jpeg,HouseObjects,1,stim/objects/HouseObjects/remote2.png,0.9,3,-0.2,-0.15,left,42,2021-01-06_02h37.11.774,premup-three_ses-01_part-01_label-phase1,3.2.4,Win32,60,right,0.599000216,4,0,4,0,1,3,1,0,240,205,1,239,,,,,,,,,,,,,,,,,,
,,0,57,,,,,,,3,4,1,stim/41.jpeg,HouseObjects,1,stim/objects/HouseObjects/recyclingbin2.png,0.9,3,-0.2,-0.15,left,42,2021-01-06_02h37.11.774,premup-three_ses-01_part-01_label-phase1,3.2.4,Win32,60,right,0.345000267,4,0,4,0,1,3,1,0,240,232,1,239,,,,,,,,,,,,,,,,,,
,,1,58,,,,,,,3,3,2,stim/32.jpeg,Instruments,2,stim/objects/Instruments/musicsheet2.png,0.9,3,-0.2,-0.15,right,42,2021-01-06_02h37.11.774,premup-three_ses-01_part-01_label-phase1,3.2.4,Win32,60,right,0.412000179,4,0,4,0,1,3,1,0,240,193,1,239,,,,,,,,,,,,,,,,,,
,,0,59,,,,,,,1,6,2,stim/62.jpeg,Instruments,2,stim/objects/Instruments/musicsheet.png,0.5,1,-0.2,0.15,right,42,2021-01-06_02h37.11.774,premup-three_ses-01_part-01_label-phase1,3.2.4,Win32,60,left,0.394000053,4,0,4,0,1,3,1,0,240,73,1,239,,,,,,,,,,,,,,,,,,
,,1,60,,,,,,,3,4,2,stim/42.jpeg,HouseObjects,1,stim/objects/HouseObjects/remote2.png,0.9,4,0.2,-0.15,left,42,2021-01-06_02h37.11.774,premup-three_ses-01_part-01_label-phase1,3.2.4,Win32,60,left,0.231000185,4,0,4,0,1,3,1,0,240,217,1,239,,,,,,,,,,,,,,,,,,
,,0,61,,,,,,,2,2,2,stim/22.jpeg,HouseObjects,1,stim/objects/HouseObjects/ironingboard2.png,0.7,3,-0.2,-0.15,left,42,2021-01-06_02h37.11.774,premup-three_ses-01_part-01_label-phase1,3.2.4,Win32,60,right,0.322999954,4,0,4,0,1,3,1,0,240,129,1,239,,,,,,,,,,,,,,,,,,
,,0,62,,,,,,,2,2,2,stim/22.jpeg,Instruments,2,stim/objects/Instruments/laud2.png,0.3,4,0.2,-0.15,right,42,2021-01-06_02h37.11.774,premup-three_ses-01_part-01_label-phase1,3.2.4,Win32,60,left,0.319000244,4,0,4,0,1,3,1,0,240,157,1,239,,,,,,,,,,,,,,,,,,
,,0,63,,,,,,,2,2,4,stim/24.jpeg,Instruments,2,stim/objects/Instruments/marimba2.png,0.3,2,0.2,0.15,right,42,2021-01-06_02h37.11.774,premup-three_ses-01_part-01_label-phase1,3.2.4,Win32,60,left,0.231000185,4,0,4,0,1,3,1,0,240,159,1,239,,,,,,,,,,,,,,,,,,
,,0,64,,,,,,,3,3,4,stim/34.jpeg,Instruments,2,stim/objects/Instruments/oboe2.png,0.9,4,0.2,-0.15,right,42,2021-01-06_02h37.11.774,premup-three_ses-01_part-01_label-phase1,3.2.4,Win32,60,left,0.008000135,4,0,4,0,1,3,1,0,240,179,1,239,,,,,,,,,,,,,,,,,,
,,0,65,,,,,,,1,6,4,stim/64.jpeg,HouseObjects,1,stim/objects/HouseObjects/pitcher.png,0.5,4,0.2,-0.15,left,42,2021-01-06_02h37.11.774,premup-three_ses-01_part-01_label-phase1,3.2.4,Win32,60,right,0.229000092,4,0,4,0,1,3,1,0,240,51,1,239,,,,,,,,,,,,,,,,,,
,,1,66,,,,,,,1,5,4,stim/54.jpeg,HouseObjects,1,stim/objects/HouseObjects/knife.png,0.5,3,-0.2,-0.15,left,42,2021-01-06_02h37.11.774,premup-three_ses-01_part-01_label-phase1,3.2.4,Win32,60,left,0.209000349,4,0,4,0,1,3,1,0,240,15,1,239,,,,,,,,,,,,,,,,,,
,,0,67,,,,,,,3,3,2,stim/32.jpeg,Instruments,2,stim/objects/Instruments/musicsheet2.png,0.9,4,0.2,-0.15,right,42,2021-01-06_02h37.11.774,premup-three_ses-01_part-01_label-phase1,3.2.4,Win32,60,left,0.291000128,4,0,4,0,1,3,1,0,240,197,1,239,,,,,,,,,,,,,,,,,,
,,1,68,,,,,,,1,5,4,stim/54.jpeg,Instruments,2,stim/objects/Instruments/marimba.png,0.5,2,0.2,0.15,right,42,2021-01-06_02h37.11.774,premup-three_ses-01_part-01_label-phase1,3.2.4,Win32,60,right,0.276000261,4,0,4,0,1,3,1,0,240,27,1,239,,,,,,,,,,,,,,,,,,
,,1,69,,,,,,,1,5,4,stim/54.jpeg,Instruments,2,stim/objects/Instruments/marimba.png,0.5,3,-0.2,-0.15,right,42,2021-01-06_02h37.11.774,premup-three_ses-01_part-01_label-phase1,3.2.4,Win32,60,right,0.215000153,4,0,4,0,1,3,1,0,240,31,1,239,,,,,,,,,,,,,,,,,,
,,0,70,,,,,,,1,6,2,stim/62.jpeg,HouseObjects,1,stim/objects/HouseObjects/match.png,0.5,3,-0.2,-0.15,left,42,2021-01-06_02h37.11.774,premup-three_ses-01_part-01_label-phase1,3.2.4,Win32,60,right,0.317000151,4,0,4,0,1,3,1,0,240,41,1,239,,,,,,,,,,,,,,,,,,
,,1,71,,,,,,,3,4,1,stim/41.jpeg,HouseObjects,1,stim/objects/HouseObjects/recyclingbin2.png,0.9,1,-0.2,0.15,left,42,2021-01-06_02h37.11.774,premup-three_ses-01_part-01_label-phase1,3.2.4,Win32,60,left,0.713000059,4,0,4,0,1,3,1,0,240,208,1,239,,,,,,,,,,,,,,,,,,
,,1,72,,,,,,,2,1,3,stim/13.jpeg,HouseObjects,1,stim/objects/HouseObjects/rubbergloves.png,0.3,4,0.2,-0.15,left,42,2021-01-06_02h37.11.774,premup-three_ses-01_part-01_label-phase1,3.2.4,Win32,60,left,0.452000141,4,0,4,0,1,3,1,0,240,82,1,239,,,,,,,,,,,,,,,,,,
,,0,73,,,,,,,1,5,3,stim/53.jpeg,Instruments,2,stim/objects/Instruments/maraca.png,0.5,2,0.2,0.15,right,42,2021-01-06_02h37.11.774,premup-three_ses-01_part-01_label-phase1,3.2.4,Win32,60,left,0.437000275,4,0,4,0,1,3,1,0,240,34,1,239,,,,,,,,,,,,,,,,,,
,,0,74,,,,,,,2,1,3,stim/13.jpeg,Instruments,2,stim/objects/Instruments/record.png,0.7,1,-0.2,0.15,right,42,2021-01-06_02h37.11.774,premup-three_ses-01_part-01_label-phase1,3.2.4,Win32,60,left,0.245000124,4,0,4,0,1,3,1,0,240,102,1,239,,,,,,,,,,,,,,,,,,
,,0,75,,,,,,,1,5,3,stim/53.jpeg,HouseObjects,1,stim/objects/HouseObjects/key.png,0.5,3,-0.2,-0.15,left,42,2021-01-06_02h37.11.774,premup-three_ses-01_part-01_label-phase1,3.2.4,Win32,60,right,0.545000076,4,0,4,0,1,3,1,0,240,10,1,239,,,,,,,,,,,,,,,,,,
,,1,76,,,,,,,3,3,3,stim/33.jpeg,Instruments,2,stim/objects/Instruments/musicstand2.png,0.9,1,-0.2,0.15,right,42,2021-01-06_02h37.11.774,premup-three_ses-01_part-01_label-phase1,3.2.4,Win32,60,right,0.001000166,4,0,4,0,1,3,1,0,240,170,1,239,,,,,,,,,,,,,,,,,,
,,1,77,,,,,,,1,6,3,stim/63.jpeg,Instruments,2,stim/objects/Instruments/musicstand.png,0.5,2,0.2,0.15,right,42,2021-01-06_02h37.11.774,premup-three_ses-01_part-01_label-phase1,3.2.4,Win32,60,right,0.75600028,4,0,4,0,1,3,1,0,240,78,1,239,,,,,,,,,,,,,,,,,,
,,1,78,,,,,,,2,1,1,stim/11.jpeg,HouseObjects,1,stim/objects/HouseObjects/recyclingbin.png,0.3,4,0.2,-0.15,left,42,2021-01-06_02h37.11.774,premup-three_ses-01_part-01_label-phase1,3.2.4,Win32,60,left,0.455000162,4,0,4,0,1,3,1,0,240,84,1,239,,,,,,,,,,,,,,,,,,
,,0,79,,,,,,,1,6,4,stim/64.jpeg,Instruments,2,stim/objects/Instruments/oboe.png,0.5,3,-0.2,-0.15,right,42,2021-01-06_02h37.11.774,premup-three_ses-01_part-01_label-phase1,3.2.4,Win32,60,left,0.260000229,4,0,4,0,1,3,1,0,240,75,1,239,,,,,,,,,,,,,,,,,,
,,0,80,,,,,,,3,3,2,stim/32.jpeg,Instruments,2,stim/objects/Instruments/musicsheet2.png,0.9,4,0.2,-0.15,right,42,2021-01-06_02h37.11.774,premup-three_ses-01_part-01_label-phase1,3.2.4,Win32,60,left,0.251000166,4,0,4,0,1,3,1,0,240,189,1,239,,,,,,,,,,,,,,,,,,
,,0,81,,,,,,,1,6,2,stim/62.jpeg,Instruments,2,stim/objects/Instruments/musicsheet.png,0.5,2,0.2,0.15,right,42,2021-01-06_02h37.11.774,premup-three_ses-01_part-01_label-phase1,3.2.4,Win32,60,left,0.246000051,4,0,4,0,1,3,1,0,240,77,1,239,,,,,,,,,,,,,,,,,,
,,0,82,,,,,,,2,1,4,stim/14.jpeg,HouseObjects,1,stim/objects/HouseObjects/rug.png,0.3,4,0.2,-0.15,left,42,2021-01-06_02h37.11.774,premup-three_ses-01_part-01_label-phase1,3.2.4,Win32,60,right,0.312000036,4,0,4,0,1,3,1,0,240,83,1,239,,,,,,,,,,,,,,,,,,
,,1,83,,,,,,,2,1,1,stim/11.jpeg,Instruments,2,stim/objects/Instruments/panflute.png,0.7,1,-0.2,0.15,right,42,2021-01-06_02h37.11.774,premup-three_ses-01_part-01_label-phase1,3.2.4,Win32,60,right,0.255000114,4,0,4,0,1,3,1,0,240,92,1,239,,,,,,,,,,,,,,,,,,
,,0,84,,,,,,,2,1,2,stim/12.jpeg,HouseObjects,1,stim/objects/HouseObjects/remote.png,0.3,2,0.2,0.15,left,42,2021-01-06_02h37.11.774,premup-three_ses-01_part-01_label-phase1,3.2.4,Win32,60,right,0.295000076,4,0,4,0,1,3,1,0,240,85,1,239,,,,,,,,,,,,,,,,,,
,,1,85,,,,,,,2,2,3,stim/23.jpeg,HouseObjects,1,stim/objects/HouseObjects/key2.png,0.7,3,-0.2,-0.15,left,42,2021-01-06_02h37.11.774,premup-three_ses-01_part-01_label-phase1,3.2.4,Win32,60,left,0.343000174,4,0,4,0,1,3,1,0,240,142,1,239,,,,,,,,,,,,,,,,,,
,,1,86,,,,,,,3,4,3,stim/43.jpeg,HouseObjects,1,stim/objects/HouseObjects/rubbergloves2.png,0.9,1,-0.2,0.15,left,42,2021-01-06_02h37.11.774,premup-three_ses-01_part-01_label-phase1,3.2.4,Win32,60,left,1.145000219,4,0,4,0,1,3,1,0,240,234,1,239,,,,,,,,,,,,,,,,,,
,,1,87,,,,,,,3,3,2,stim/32.jpeg,Instruments,2,stim/objects/Instruments/musicsheet2.png,0.9,4,0.2,-0.15,right,42,2021-01-06_02h37.11.774,premup-three_ses-01_part-01_label-phase1,3.2.4,Win32,60,right,0.27699995,4,0,4,0,1,3,1,0,240,165,1,239,,,,,,,,,,,,,,,,,,
,,0,88,,,,,,,3,3,1,stim/31.jpeg,Instruments,2,stim/objects/Instruments/metronome2.png,0.9,4,0.2,-0.15,right,42,2021-01-06_02h37.11.774,premup-three_ses-01_part-01_label-phase1,3.2.4,Win32,60,left,0.301000118,4,0,4,0,1,3,1,0,240,168,1,239,,,,,,,,,,,,,,,,,,
,,0,89,,,,,,,1,6,1,stim/61.jpeg,HouseObjects,1,stim/objects/HouseObjects/lintroller.png,0.5,4,0.2,-0.15,left,42,2021-01-06_02h37.11.774,premup-three_ses-01_part-01_label-phase1,3.2.4,Win32,60,right,0.379000187,4,0,4,0,1,3,1,0,240,40,1,239,,,,,,,,,,,,,,,,,,
,,0,90,,,,,,,1,5,4,stim/54.jpeg,Instruments,2,stim/objects/Instruments/marimba.png,0.5,2,0.2,0.15,right,42,2021-01-06_02h37.11.774,premup-three_ses-01_part-01_label-phase1,3.2.4,Win32,60,left,0.616000175,4,0,4,0,1,3,1,0,240,23,1,239,,,,,,,,,,,,,,,,,,
,,1,91,,,,,,,1,5,2,stim/52.jpeg,HouseObjects,1,stim/objects/HouseObjects/ironingboard.png,0.5,2,0.2,0.15,left,42,2021-01-06_02h37.11.774,premup-three_ses-01_part-01_label-phase1,3.2.4,Win32,60,left,0.390000105,4,0,4,0,1,3,1,0,240,1,1,239,,,,,,,,,,,,,,,,,,
,,0,92,,,,,,,1,6,4,stim/64.jpeg,Instruments,2,stim/objects/Instruments/oboe.png,0.5,2,0.2,0.15,right,42,2021-01-06_02h37.11.774,premup-three_ses-01_part-01_label-phase1,3.2.4,Win32,60,left,0.61400032,4,0,4,0,1,3,1,0,240,67,1,239,,,,,,,,,,,,,,,,,,
,,1,93,,,,,,,3,4,1,stim/41.jpeg,Instruments,2,stim/objects/Instruments/panflute2.png,0.1,1,-0.2,0.15,right,42,2021-01-06_02h37.11.774,premup-three_ses-01_part-01_label-phase1,3.2.4,Win32,60,right,0.558000088,4,0,4,0,1,3,1,0,240,236,1,239,,,,,,,,,,,,,,,,,,
,,1,94,,,,,,,2,1,4,stim/14.jpeg,Instruments,2,stim/objects/Instruments/record_player.png,0.7,4,0.2,-0.15,right,42,2021-01-06_02h37.11.774,premup-three_ses-01_part-01_label-phase1,3.2.4,Win32,60,right,0.492000341,4,0,4,0,1,3,1,0,240,119,1,239,,,,,,,,,,,,,,,,,,
,,0,95,,,,,,,1,5,3,stim/53.jpeg,Instruments,2,stim/objects/Instruments/maraca.png,0.5,4,0.2,-0.15,right,42,2021-01-06_02h37.11.774,premup-three_ses-01_part-01_label-phase1,3.2.4,Win32,60,left,0.649000168,4,0,4,0,1,3,1,0,240,38,1,239,,,,,,,,,,,,,,,,,,
,,0,96,,,,,,,3,4,3,stim/43.jpeg,Instruments,2,stim/objects/Instruments/record2.png,0.1,3,-0.2,-0.15,right,42,2021-01-06_02h37.11.774,premup-three_ses-01_part-01_label-phase1,3.2.4,Win32,60,left,0.360000134,4,0,4,0,1,3,1,0,240,238,1,239,,,,,,,,,,,,,,,,,,
,,0,97,,,,,,,1,5,1,stim/51.jpeg,HouseObjects,1,stim/objects/HouseObjects/iron.png,0.5,1,-0.2,0.15,left,42,2021-01-06_02h37.11.774,premup-three_ses-01_part-01_label-phase1,3.2.4,Win32,60,right,0.296000004,4,0,4,0,1,3,1,0,240,8,1,239,,,,,,,,,,,,,,,,,,
,,0,98,,,,,,,1,6,1,stim/61.jpeg,HouseObjects,1,stim/objects/HouseObjects/lintroller.png,0.5,2,0.2,0.15,left,42,2021-01-06_02h37.11.774,premup-three_ses-01_part-01_label-phase1,3.2.4,Win32,60,right,0.423000097,4,0,4,0,1,3,1,0,240,52,1,239,,,,,,,,,,,,,,,,,,
,,1,99,,,,,,,3,3,4,stim/34.jpeg,Instruments,2,stim/objects/Instruments/oboe2.png,0.9,4,0.2,-0.15,right,42,2021-01-06_02h37.11.774,premup-three_ses-01_part-01_label-phase1,3.2.4,Win32,60,right,0.390000105,4,0,4,0,1,3,1,0,240,167,1,239,,,,,,,,,,,,,,,,,,
,,1,100,,,,,,,1,5,2,stim/52.jpeg,HouseObjects,1,stim/objects/HouseObjects/ironingboard.png,0.5,2,0.2,0.15,left,42,2021-01-06_02h37.11.774,premup-three_ses-01_part-01_label-phase1,3.2.4,Win32,60,left,0.800000191,4,0,4,0,1,3,1,0,240,17,1,239,,,,,,,,,,,,,,,,,,
,,0,101,,,,,,,1,6,1,stim/61.jpeg,Instruments,2,stim/objects/Instruments/metronome.png,0.5,3,-0.2,-0.15,right,42,2021-01-06_02h37.11.774,premup-three_ses-01_part-01_label-phase1,3.2.4,Win32,60,left,0.968000174,4,0,4,0,1,3,1,0,240,68,1,239,,,,,,,,,,,,,,,,,,
,,1,102,,,,,,,2,1,4,stim/14.jpeg,Instruments,2,stim/objects/Instruments/record_player.png,0.7,1,-0.2,0.15,right,42,2021-01-06_02h37.11.774,premup-three_ses-01_part-01_label-phase1,3.2.4,Win32,60,right,0.304000139,4,0,4,0,1,3,1,0,240,99,1,239,,,,,,,,,,,,,,,,,,
,,1,103,,,,,,,1,5,4,stim/54.jpeg,Instruments,2,stim/objects/Instruments/marimba.png,0.5,4,0.2,-0.15,right,42,2021-01-06_02h37.11.774,premup-three_ses-01_part-01_label-phase1,3.2.4,Win32,60,right,0.398000002,4,0,4,0,1,3,1,0,240,35,1,239,,,,,,,,,,,,,,,,,,
,,0,104,,,,,,,3,4,2,stim/42.jpeg,HouseObjects,1,stim/objects/HouseObjects/remote2.png,0.9,1,-0.2,0.15,left,42,2021-01-06_02h37.11.774,premup-three_ses-01_part-01_label-phase1,3.2.4,Win32,60,right,0.751000166,4,0,4,0,1,3,1,0,240,209,1,239,,,,,,,,,,,,,,,,,,
,,0,105,,,,,,,3,3,4,stim/34.jpeg,Instruments,2,stim/objects/Instruments/oboe2.png,0.9,3,-0.2,-0.15,right,42,2021-01-06_02h37.11.774,premup-three_ses-01_part-01_label-phase1,3.2.4,Win32,60,left,0.261000156,4,0,4,0,1,3,1,0,240,191,1,239,,,,,,,,,,,,,,,,,,
,,1,106,,,,,,,3,4,4,stim/44.jpeg,HouseObjects,1,stim/objects/HouseObjects/rug2.png,0.9,2,0.2,0.15,left,42,2021-01-06_02h37.11.774,premup-three_ses-01_part-01_label-phase1,3.2.4,Win32,60,left,0.36500001,4,0,4,0,1,3,1,0,240,227,1,239,,,,,,,,,,,,,,,,,,
,,0,107,,,,,,,3,4,3,stim/43.jpeg,HouseObjects,1,stim/objects/HouseObjects/rubbergloves2.png,0.9,1,-0.2,0.15,left,42,2021-01-06_02h37.11.774,premup-three_ses-01_part-01_label-phase1,3.2.4,Win32,60,right,0.338000298,4,0,4,0,1,3,1,0,240,210,1,239,,,,,,,,,,,,,,,,,,
,,1,108,,,,,,,1,5,1,stim/51.jpeg,Instruments,2,stim/objects/Instruments/keyboard.png,0.5,4,0.2,-0.15,right,42,2021-01-06_02h37.11.774,premup-three_ses-01_part-01_label-phase1,3.2.4,Win32,60,right,0.270000219,4,0,4,0,1,3,1,0,240,28,1,239,,,,,,,,,,,,,,,,,,
,,1,109,,,,,,,3,3,4,stim/34.jpeg,Instruments,2,stim/objects/Instruments/oboe2.png,0.9,2,0.2,0.15,right,42,2021-01-06_02h37.11.774,premup-three_ses-01_part-01_label-phase1,3.2.4,Win32,60,right,0.437000036,4,0,4,0,1,3,1,0,240,187,1,239,,,,,,,,,,,,,,,,,,
,,1,110,,,,,,,3,4,1,stim/41.jpeg,HouseObjects,1,stim/objects/HouseObjects/recyclingbin2.png,0.9,1,-0.2,0.15,left,42,2021-01-06_02h37.11.774,premup-three_ses-01_part-01_label-phase1,3.2.4,Win32,60,left,0.242000103,4,0,4,0,1,3,1,0,240,220,1,239,,,,,,,,,,,,,,,,,,
,,1,111,,,,,,,1,6,2,stim/62.jpeg,HouseObjects,1,stim/objects/HouseObjects/match.png,0.5,1,-0.2,0.15,left,42,2021-01-06_02h37.11.774,premup-three_ses-01_part-01_label-phase1,3.2.4,Win32,60,left,0.33100009,4,0,4,0,1,3,1,0,240,53,1,239,,,,,,,,,,,,,,,,,,
,,0,112,,,,,,,2,1,4,stim/14.jpeg,HouseObjects,1,stim/objects/HouseObjects/rug.png,0.3,2,0.2,0.15,left,42,2021-01-06_02h37.11.774,premup-three_ses-01_part-01_label-phase1,3.2.4,Win32,60,right,0.279000044,4,0,4,0,1,3,1,0,240,87,1,239,,,,,,,,,,,,,,,,,,
,,1,113,,,,,,,3,3,2,stim/32.jpeg,Instruments,2,stim/objects/Instruments/musicsheet2.png,0.9,4,0.2,-0.15,right,42,2021-01-06_02h37.11.774,premup-three_ses-01_part-01_label-phase1,3.2.4,Win32,60,right,0.381000042,4,0,4,0,1,3,1,0,240,177,1,239,,,,,,,,,,,,,,,,,,
,,0,114,,,,,,,2,2,4,stim/24.jpeg,Instruments,2,stim/objects/Instruments/marimba2.png,0.3,2,0.2,0.15,right,42,2021-01-06_02h37.11.774,premup-three_ses-01_part-01_label-phase1,3.2.4,Win32,60,left,0.401000261,4,0,4,0,1,3,1,0,240,155,1,239,,,,,,,,,,,,,,,,,,
,,1,115,,,,,,,1,5,3,stim/53.jpeg,HouseObjects,1,stim/objects/HouseObjects/key.png,0.5,4,0.2,-0.15,left,42,2021-01-06_02h37.11.774,premup-three_ses-01_part-01_label-phase1,3.2.4,Win32,60,left,0.062000036,4,0,4,0,1,3,1,0,240,18,1,239,,,,,,,,,,,,,,,,,,
,,1,116,,,,,,,1,5,3,stim/53.jpeg,Instruments,2,stim/objects/Instruments/maraca.png,0.5,3,-0.2,-0.15,right,42,2021-01-06_02h37.11.774,premup-three_ses-01_part-01_label-phase1,3.2.4,Win32,60,right,0.344000101,4,0,4,0,1,3,1,0,240,22,1,239,,,,,,,,,,,,,,,,,,
,,0,117,,,,,,,1,6,4,stim/64.jpeg,Instruments,2,stim/objects/Instruments/oboe.png,0.5,3,-0.2,-0.15,right,42,2021-01-06_02h37.11.774,premup-three_ses-01_part-01_label-phase1,3.2.4,Win32,60,left,1.187999964,4,0,4,0,1,3,1,0,240,63,1,239,,,,,,,,,,,,,,,,,,
,,0,118,,,,,,,3,4,4,stim/44.jpeg,HouseObjects,1,stim/objects/HouseObjects/rug2.png,0.9,4,0.2,-0.15,left,42,2021-01-06_02h37.11.774,premup-three_ses-01_part-01_label-phase1,3.2.4,Win32,60,right,0.799000263,4,0,4,0,1,3,1,0,240,235,1,239,,,,,,,,,,,,,,,,,,
,,0,119,,,,,,,2,2,4,stim/24.jpeg,HouseObjects,1,stim/objects/HouseObjects/knife2.png,0.7,3,-0.2,-0.15,left,42,2021-01-06_02h37.11.774,premup-three_ses-01_part-01_label-phase1,3.2.4,Win32,60,right,0.751000166,4,0,4,0,1,3,1,0,240,139,1,239,,,,,,,,,,,,,,,,,,
,,0,120,,,,,,,2,2,3,stim/23.jpeg,Instruments,2,stim/objects/Instruments/maraca2.png,0.3,1,-0.2,0.15,right,42,2021-01-06_02h37.11.774,premup-three_ses-01_part-01_label-phase1,3.2.4,Win32,60,left,0.503999949,4,0,4,0,1,3,1,0,240,158,1,239,,,,,,,,,,,,,,,,,,
,,1,121,,,,,,,1,5,2,stim/52.jpeg,HouseObjects,1,stim/objects/HouseObjects/ironingboard.png,0.5,2,0.2,0.15,left,42,2021-01-06_02h37.11.774,premup-three_ses-01_part-01_label-phase1,3.2.4,Win32,60,left,1.101000071,4,0,4,0,1,3,1,0,240,9,1,239,,,,,,,,,,,,,,,,,,
,,0,122,,,,,,,2,1,4,stim/14.jpeg,Instruments,2,stim/objects/Instruments/record_player.png,0.7,3,-0.2,-0.15,right,42,2021-01-06_02h37.11.774,premup-three_ses-01_part-01_label-phase1,3.2.4,Win32,60,left,0.608000278,4,0,4,0,1,3,1,0,240,111,1,239,,,,,,,,,,,,,,,,,,
,,1,123,,,,,,,2,1,1,stim/11.jpeg,Instruments,2,stim/objects/Instruments/panflute.png,0.7,3,-0.2,-0.15,right,42,2021-01-06_02h37.11.774,premup-three_ses-01_part-01_label-phase1,3.2.4,Win32,60,right,0.388000011,4,0,4,0,1,3,1,0,240,100,1,239,,,,,,,,,,,,,,,,,,
,,0,124,,,,,,,1,6,3,stim/63.jpeg,HouseObjects,1,stim/objects/HouseObjects/pan.png,0.5,3,-0.2,-0.15,left,42,2021-01-06_02h37.11.774,premup-three_ses-01_part-01_label-phase1,3.2.4,Win32,60,right,0.599000216,4,0,4,0,1,3,1,0,240,54,1,239,,,,,,,,,,,,,,,,,,
,,1,125,,,,,,,3,4,2,stim/42.jpeg,Instruments,2,stim/objects/Instruments/pipepiano2.png,0.1,3,-0.2,-0.15,right,42,2021-01-06_02h37.11.774,premup-three_ses-01_part-01_label-phase1,3.2.4,Win32,60,right,0.566000223,4,0,4,0,1,3,1,0,240,237,1,239,,,,,,,,,,,,,,,,,,
,,1,126,,,,,,,1,5,3,stim/53.jpeg,Instruments,2,stim/objects/Instruments/maraca.png,0.5,2,0.2,0.15,right,42,2021-01-06_02h37.11.774,premup-three_ses-01_part-01_label-phase1,3.2.4,Win32,60,right,0.643000126,4,0,4,0,1,3,1,0,240,26,1,239,,,,,,,,,,,,,,,,,,
,,1,127,,,,,,,3,4,4,stim/44.jpeg,HouseObjects,1,stim/objects/HouseObjects/rug2.png,0.9,4,0.2,-0.15,left,42,2021-01-06_02h37.11.774,premup-three_ses-01_part-01_label-phase1,3.2.4,Win32,60,left,0.416000128,4,0,4,0,1,3,1,0,240,211,1,239,,,,,,,,,,,,,,,,,,
,,0,128,,,,,,,2,1,1,stim/11.jpeg,Instruments,2,stim/objects/Instruments/panflute.png,0.7,1,-0.2,0.15,right,42,2021-01-06_02h37.11.774,premup-three_ses-01_part-01_label-phase1,3.2.4,Win32,60,left,0.425000191,4,0,4,0,1,3,1,0,240,108,1,239,,,,,,,,,,,,,,,,,,
,,0,129,,,,,,,3,3,2,stim/32.jpeg,Instruments,2,stim/objects/Instruments/musicsheet2.png,0.9,1,-0.2,0.15,right,42,2021-01-06_02h37.11.774,premup-three_ses-01_part-01_label-phase1,3.2.4,Win32,60,,,4,0,4,0,1,3,1,0,240,185,1,239,,,,,,,,,,,,,,,,,,
,,0,130,,,,,,,1,6,4,stim/64.jpeg,HouseObjects,1,stim/objects/HouseObjects/pitcher.png,0.5,3,-0.2,-0.15,left,42,2021-01-06_02h37.11.774,premup-three_ses-01_part-01_label-phase1,3.2.4,Win32,60,right,0.285000324,4,0,4,0,1,3,1,0,240,43,1,239,,,,,,,,,,,,,,,,,,
,,1,131,,,,,,,2,2,2,stim/22.jpeg,Instruments,2,stim/objects/Instruments/laud2.png,0.3,3,-0.2,-0.15,right,42,2021-01-06_02h37.11.774,premup-three_ses-01_part-01_label-phase1,3.2.4,Win32,60,right,0.730000257,4,0,4,0,1,3,1,0,240,153,1,239,,,,,,,,,,,,,,,,,,
,,0,132,,,,,,,1,5,2,stim/52.jpeg,Instruments,2,stim/objects/Instruments/laud.png,0.5,2,0.2,0.15,right,42,2021-01-06_02h37.11.774,premup-three_ses-01_part-01_label-phase1,3.2.4,Win32,60,left,1.188000202,4,0,4,0,1,3,1,0,240,29,1,239,,,,,,,,,,,,,,,,,,
,,0,133,,,,,,,2,2,4,stim/24.jpeg,HouseObjects,1,stim/objects/HouseObjects/knife2.png,0.7,4,0.2,-0.15,left,42,2021-01-06_02h37.11.774,premup-three_ses-01_part-01_label-phase1,3.2.4,Win32,60,right,0.65199995,4,0,4,0,1,3,1,0,240,127,1,239,,,,,,,,,,,,,,,,,,
