key_resp_pract.keys,key_resp_pract.rt,trial_acc,trial_index,practice_loop.thisRepN,practice_loop.thisTrialN,practice_loop.thisN,practice_loop.thisIndex,practice_loop.ran,practice_loop.order,scn_condition,scn_cat,scn_inst,scn_file,obj_cat,obj_cat_num,obj_file,trial_cond,quadrant,obj_x,obj_y,corr_ans,participant,date,expName,psychopyVersion,OS,frameRate,key_resp_trial.keys,key_resp_trial.rt,iterations.thisRepN,iterations.thisTrialN,iterations.thisN,iterations.thisIndex,iterations.ran,iterations.order,task_innerloop.thisRepN,task_innerloop.thisTrialN,task_innerloop.thisN,task_innerloop.thisIndex,task_innerloop.ran,task_innerloop.order,iteration_index,rating_acc,slider.response,slider.rt,slider_2.response,slider_2.rt,ratings.thisRepN,ratings.thisTrialN,ratings.thisN,ratings.thisIndex,ratings.ran,ratings.order,obj_cat_top,min_resp_top,max_resp_top,obj_cat_bottom,min_resp_bottom,max_resp_bottom
,,0,1,1,0,240,19,1,239,1,1,4,stim/14.jpeg,Instruments,1,stim/objects/Instruments/record_player.png,0.5,1,-0.2,0.15,left,43,2020-12-09_09h07.52.477,premup-three_ses-01_part-01_label-phase1,3.2.4,Win32,60,,,,,,,,,,,,,,,,,,,,,,,,,,,,,,,,
left,1.427999973,0,2,1,0,240,99,1,239,2,3,4,stim/34.jpeg,HouseObjects,2,stim/objects/HouseObjects/thread.png,0.7,4,0.2,-0.15,right,43,2020-12-09_09h07.52.477,premup-three_ses-01_part-01_label-phase1,3.2.4,Win32,60,,,,,,,,,,,,,,,,,,,,,,,,,,,,,,,,
right,1.157999992,0,3,1,0,240,52,1,239,1,2,1,stim/21.jpeg,Instruments,1,stim/objects/Instruments/saxophone.png,0.5,4,0.2,-0.15,left,43,2020-12-09_09h07.52.477,premup-three_ses-01_part-01_label-phase1,3.2.4,Win32,60,,,,,,,,,,,,,,,,,,,,,,,,,,,,,,,,
right,1.532999992,1,4,1,0,240,61,1,239,1,2,2,stim/22.jpeg,HouseObjects,2,stim/objects/HouseObjects/saw.png,0.5,1,-0.2,0.15,right,43,2020-12-09_09h07.52.477,premup-three_ses-01_part-01_label-phase1,3.2.4,Win32,60,,,,,,,,,,,,,,,,,,,,,,,,,,,,,,,,
right,1.464999914,1,5,1,0,240,155,1,239,2,4,4,stim/44.jpeg,HouseObjects,2,stim/objects/HouseObjects/rug2.png,0.3,2,0.2,0.15,right,43,2020-12-09_09h07.52.477,premup-three_ses-01_part-01_label-phase1,3.2.4,Win32,60,,,,,,,,,,,,,,,,,,,,,,,,,,,,,,,,
left,1.878000021,0,6,1,0,240,106,1,239,2,3,3,stim/33.jpeg,HouseObjects,2,stim/objects/HouseObjects/thermometer.png,0.7,1,-0.2,0.15,right,43,2020-12-09_09h07.52.477,premup-three_ses-01_part-01_label-phase1,3.2.4,Win32,60,,,,,,,,,,,,,,,,,,,,,,,,,,,,,,,,
right,1.726000071,1,7,1,0,240,153,1,239,2,4,2,stim/42.jpeg,HouseObjects,2,stim/objects/HouseObjects/remote2.png,0.3,2,0.2,0.15,right,43,2020-12-09_09h07.52.477,premup-three_ses-01_part-01_label-phase1,3.2.4,Win32,60,,,,,,,,,,,,,,,,,,,,,,,,,,,,,,,,
right,1.226999998,0,8,1,0,240,124,1,239,2,4,1,stim/41.jpeg,Instruments,1,stim/objects/Instruments/panflute2.png,0.7,1,-0.2,0.15,left,43,2020-12-09_09h07.52.477,premup-three_ses-01_part-01_label-phase1,3.2.4,Win32,60,,,,,,,,,,,,,,,,,,,,,,,,,,,,,,,,
left,1.528000116,0,9,1,0,240,114,1,239,2,3,3,stim/33.jpeg,HouseObjects,2,stim/objects/HouseObjects/thermometer.png,0.7,4,0.2,-0.15,right,43,2020-12-09_09h07.52.477,premup-three_ses-01_part-01_label-phase1,3.2.4,Win32,60,,,,,,,,,,,,,,,,,,,,,,,,,,,,,,,,
right,1.898000002,1,10,1,0,240,101,1,239,2,3,2,stim/32.jpeg,HouseObjects,2,stim/objects/HouseObjects/teapot.png,0.7,3,-0.2,-0.15,right,43,2020-12-09_09h07.52.477,premup-three_ses-01_part-01_label-phase1,3.2.4,Win32,60,,,,,,,,,,,,,,,,,,,,,,,,,,,,,,,,
,,0,1,,,,,,,3,5,3,stim/53.jpeg,HouseObjects,2,stim/objects/HouseObjects/scale2.png,0.9,1,-0.2,0.15,right,43,2020-12-09_09h07.52.477,premup-three_ses-01_part-01_label-phase1,3.2.4,Win32,60,left,1.559999943,4,0,4,0,1,3,1,0,240,198,1,239,,,,,,,,,,,,,,,,,,
,,1,2,,,,,,,1,2,2,stim/22.jpeg,HouseObjects,2,stim/objects/HouseObjects/saw.png,0.5,1,-0.2,0.15,right,43,2020-12-09_09h07.52.477,premup-three_ses-01_part-01_label-phase1,3.2.4,Win32,60,right,1.593999863,4,0,4,0,1,3,1,0,240,69,1,239,,,,,,,,,,,,,,,,,,
,,1,3,,,,,,,1,1,3,stim/13.jpeg,HouseObjects,2,stim/objects/HouseObjects/rubbergloves.png,0.5,1,-0.2,0.15,right,43,2020-12-09_09h07.52.477,premup-three_ses-01_part-01_label-phase1,3.2.4,Win32,60,right,1.451999903,4,0,4,0,1,3,1,0,240,22,1,239,,,,,,,,,,,,,,,,,,
,,0,4,,,,,,,3,5,3,stim/53.jpeg,HouseObjects,2,stim/objects/HouseObjects/scale2.png,0.9,1,-0.2,0.15,right,43,2020-12-09_09h07.52.477,premup-three_ses-01_part-01_label-phase1,3.2.4,Win32,60,left,1.180999994,4,0,4,0,1,3,1,0,240,182,1,239,,,,,,,,,,,,,,,,,,
,,1,5,,,,,,,1,2,1,stim/21.jpeg,HouseObjects,2,stim/objects/HouseObjects/safetypin.png,0.5,3,-0.2,-0.15,right,43,2020-12-09_09h07.52.477,premup-three_ses-01_part-01_label-phase1,3.2.4,Win32,60,right,1.353000164,4,0,4,0,1,3,1,0,240,76,1,239,,,,,,,,,,,,,,,,,,
,,1,6,,,,,,,3,5,2,stim/52.jpeg,HouseObjects,2,stim/objects/HouseObjects/saw2.png,0.9,2,0.2,0.15,right,43,2020-12-09_09h07.52.477,premup-three_ses-01_part-01_label-phase1,3.2.4,Win32,60,right,1.527999878,4,0,4,0,1,3,1,0,240,165,1,239,,,,,,,,,,,,,,,,,,
,,0,7,,,,,,,2,4,3,stim/43.jpeg,Instruments,1,stim/objects/Instruments/record2.png,0.7,4,0.2,-0.15,left,43,2020-12-09_09h07.52.477,premup-three_ses-01_part-01_label-phase1,3.2.4,Win32,60,right,1.08100009,4,0,4,0,1,3,1,0,240,130,1,239,,,,,,,,,,,,,,,,,,
,,1,8,,,,,,,2,4,4,stim/44.jpeg,Instruments,1,stim/objects/Instruments/record_player2.png,0.7,2,0.2,0.15,left,43,2020-12-09_09h07.52.477,premup-three_ses-01_part-01_label-phase1,3.2.4,Win32,60,left,0.894999981,4,0,4,0,1,3,1,0,240,147,1,239,,,,,,,,,,,,,,,,,,
,,1,9,,,,,,,2,3,1,stim/31.jpeg,HouseObjects,2,stim/objects/HouseObjects/spraybottle.png,0.7,2,0.2,0.15,right,43,2020-12-09_09h07.52.477,premup-three_ses-01_part-01_label-phase1,3.2.4,Win32,60,right,1.180999994,4,0,4,0,1,3,1,0,240,108,1,239,,,,,,,,,,,,,,,,,,
,,1,10,,,,,,,2,3,2,stim/32.jpeg,HouseObjects,2,stim/objects/HouseObjects/teapot.png,0.7,3,-0.2,-0.15,right,43,2020-12-09_09h07.52.477,premup-three_ses-01_part-01_label-phase1,3.2.4,Win32,60,right,0.651000023,4,0,4,0,1,3,1,0,240,113,1,239,,,,,,,,,,,,,,,,,,
,,1,11,,,,,,,2,4,2,stim/42.jpeg,HouseObjects,2,stim/objects/HouseObjects/remote2.png,0.3,2,0.2,0.15,right,43,2020-12-09_09h07.52.477,premup-three_ses-01_part-01_label-phase1,3.2.4,Win32,60,right,1.358999968,4,0,4,0,1,3,1,0,240,153,1,239,,,,,,,,,,,,,,,,,,
,,1,12,,,,,,,1,1,1,stim/11.jpeg,Instruments,1,stim/objects/Instruments/panflute.png,0.5,1,-0.2,0.15,left,43,2020-12-09_09h07.52.477,premup-three_ses-01_part-01_label-phase1,3.2.4,Win32,60,left,1.411000013,4,0,4,0,1,3,1,0,240,12,1,239,,,,,,,,,,,,,,,,,,
,,0,13,,,,,,,1,1,4,stim/14.jpeg,HouseObjects,2,stim/objects/HouseObjects/rug.png,0.5,3,-0.2,-0.15,right,43,2020-12-09_09h07.52.477,premup-three_ses-01_part-01_label-phase1,3.2.4,Win32,60,left,0.816999912,4,0,4,0,1,3,1,0,240,35,1,239,,,,,,,,,,,,,,,,,,
,,1,14,,,,,,,3,6,4,stim/64.jpeg,Instruments,1,stim/objects/Instruments/tuba2.png,0.9,3,-0.2,-0.15,left,43,2020-12-09_09h07.52.477,premup-three_ses-01_part-01_label-phase1,3.2.4,Win32,60,left,1.459000111,4,0,4,0,1,3,1,0,240,215,1,239,,,,,,,,,,,,,,,,,,
,,1,15,,,,,,,1,1,4,stim/14.jpeg,Instruments,1,stim/objects/Instruments/record_player.png,0.5,3,-0.2,-0.15,left,43,2020-12-09_09h07.52.477,premup-three_ses-01_part-01_label-phase1,3.2.4,Win32,60,left,0.947999954,4,0,4,0,1,3,1,0,240,15,1,239,,,,,,,,,,,,,,,,,,
,,1,16,,,,,,,3,6,3,stim/63.jpeg,Instruments,1,stim/objects/Instruments/trumpet2.png,0.9,1,-0.2,0.15,left,43,2020-12-09_09h07.52.477,premup-three_ses-01_part-01_label-phase1,3.2.4,Win32,60,left,0.722000122,4,0,4,0,1,3,1,0,240,222,1,239,,,,,,,,,,,,,,,,,,
,,1,17,,,,,,,2,3,1,stim/31.jpeg,HouseObjects,2,stim/objects/HouseObjects/spraybottle.png,0.7,4,0.2,-0.15,right,43,2020-12-09_09h07.52.477,premup-three_ses-01_part-01_label-phase1,3.2.4,Win32,60,right,1.55700016,4,0,4,0,1,3,1,0,240,100,1,239,,,,,,,,,,,,,,,,,,
,,1,18,,,,,,,3,6,4,stim/64.jpeg,Instruments,1,stim/objects/Instruments/tuba2.png,0.9,2,0.2,0.15,left,43,2020-12-09_09h07.52.477,premup-three_ses-01_part-01_label-phase1,3.2.4,Win32,60,left,0.611999989,4,0,4,0,1,3,1,0,240,223,1,239,,,,,,,,,,,,,,,,,,
,,0,19,,,,,,,1,1,1,stim/11.jpeg,HouseObjects,2,stim/objects/HouseObjects/recyclingbin.png,0.5,3,-0.2,-0.15,right,43,2020-12-09_09h07.52.477,premup-three_ses-01_part-01_label-phase1,3.2.4,Win32,60,,,4,0,4,0,1,3,1,0,240,20,1,239,,,,,,,,,,,,,,,,,,
,,0,20,,,,,,,1,1,4,stim/14.jpeg,HouseObjects,2,stim/objects/HouseObjects/rug.png,0.5,4,0.2,-0.15,right,43,2020-12-09_09h07.52.477,premup-three_ses-01_part-01_label-phase1,3.2.4,Win32,60,left,0.715000153,4,0,4,0,1,3,1,0,240,27,1,239,,,,,,,,,,,,,,,,,,
,,1,21,,,,,,,3,6,2,stim/62.jpeg,Instruments,1,stim/objects/Instruments/trombone2.png,0.9,1,-0.2,0.15,left,43,2020-12-09_09h07.52.477,premup-three_ses-01_part-01_label-phase1,3.2.4,Win32,60,left,0.684999943,4,0,4,0,1,3,1,0,240,217,1,239,,,,,,,,,,,,,,,,,,
,,1,22,,,,,,,3,6,2,stim/62.jpeg,Instruments,1,stim/objects/Instruments/trombone2.png,0.9,1,-0.2,0.15,left,43,2020-12-09_09h07.52.477,premup-three_ses-01_part-01_label-phase1,3.2.4,Win32,60,left,0.67200017,4,0,4,0,1,3,1,0,240,233,1,239,,,,,,,,,,,,,,,,,,
,,0,23,,,,,,,2,3,1,stim/31.jpeg,Instruments,1,stim/objects/Instruments/triangle.png,0.3,2,0.2,0.15,left,43,2020-12-09_09h07.52.477,premup-three_ses-01_part-01_label-phase1,3.2.4,Win32,60,right,0.663000107,4,0,4,0,1,3,1,0,240,84,1,239,,,,,,,,,,,,,,,,,,
,,1,24,,,,,,,1,1,3,stim/13.jpeg,Instruments,1,stim/objects/Instruments/record.png,0.5,2,0.2,0.15,left,43,2020-12-09_09h07.52.477,premup-three_ses-01_part-01_label-phase1,3.2.4,Win32,60,left,0.659999847,4,0,4,0,1,3,1,0,240,6,1,239,,,,,,,,,,,,,,,,,,
,,1,25,,,,,,,3,6,2,stim/62.jpeg,Instruments,1,stim/objects/Instruments/trombone2.png,0.9,1,-0.2,0.15,left,43,2020-12-09_09h07.52.477,premup-three_ses-01_part-01_label-phase1,3.2.4,Win32,60,left,0.602999926,4,0,4,0,1,3,1,0,240,221,1,239,,,,,,,,,,,,,,,,,,
,,0,26,,,,,,,3,5,1,stim/51.jpeg,HouseObjects,2,stim/objects/HouseObjects/safetypin2.png,0.9,2,0.2,0.15,right,43,2020-12-09_09h07.52.477,premup-three_ses-01_part-01_label-phase1,3.2.4,Win32,60,left,0.802000046,4,0,4,0,1,3,1,0,240,168,1,239,,,,,,,,,,,,,,,,,,
,,1,27,,,,,,,2,4,1,stim/41.jpeg,Instruments,1,stim/objects/Instruments/panflute2.png,0.7,1,-0.2,0.15,left,43,2020-12-09_09h07.52.477,premup-three_ses-01_part-01_label-phase1,3.2.4,Win32,60,left,0.628000021,4,0,4,0,1,3,1,0,240,124,1,239,,,,,,,,,,,,,,,,,,
,,1,28,,,,,,,2,3,2,stim/32.jpeg,HouseObjects,2,stim/objects/HouseObjects/teapot.png,0.7,1,-0.2,0.15,right,43,2020-12-09_09h07.52.477,premup-three_ses-01_part-01_label-phase1,3.2.4,Win32,60,right,1.086000204,4,0,4,0,1,3,1,0,240,109,1,239,,,,,,,,,,,,,,,,,,
,,1,29,,,,,,,1,1,4,stim/14.jpeg,Instruments,1,stim/objects/Instruments/record_player.png,0.5,4,0.2,-0.15,left,43,2020-12-09_09h07.52.477,premup-three_ses-01_part-01_label-phase1,3.2.4,Win32,60,left,0.751999855,4,0,4,0,1,3,1,0,240,7,1,239,,,,,,,,,,,,,,,,,,
,,0,30,,,,,,,2,3,4,stim/34.jpeg,HouseObjects,2,stim/objects/HouseObjects/thread.png,0.7,3,-0.2,-0.15,right,43,2020-12-09_09h07.52.477,premup-three_ses-01_part-01_label-phase1,3.2.4,Win32,60,left,1.1650002,4,0,4,0,1,3,1,0,240,119,1,239,,,,,,,,,,,,,,,,,,
,,1,31,,,,,,,3,5,4,stim/54.jpeg,HouseObjects,2,stim/objects/HouseObjects/sponge2.png,0.9,2,0.2,0.15,right,43,2020-12-09_09h07.52.477,premup-three_ses-01_part-01_label-phase1,3.2.4,Win32,60,right,1.585999966,4,0,4,0,1,3,1,0,240,195,1,239,,,,,,,,,,,,,,,,,,
,,1,32,,,,,,,3,5,1,stim/51.jpeg,HouseObjects,2,stim/objects/HouseObjects/safetypin2.png,0.9,3,-0.2,-0.15,right,43,2020-12-09_09h07.52.477,premup-three_ses-01_part-01_label-phase1,3.2.4,Win32,60,right,0.992000103,4,0,4,0,1,3,1,0,240,196,1,239,,,,,,,,,,,,,,,,,,
,,1,33,,,,,,,3,6,1,stim/61.jpeg,Instruments,1,stim/objects/Instruments/triangle2.png,0.9,2,0.2,0.15,left,43,2020-12-09_09h07.52.477,premup-three_ses-01_part-01_label-phase1,3.2.4,Win32,60,left,0.664000034,4,0,4,0,1,3,1,0,240,208,1,239,,,,,,,,,,,,,,,,,,
,,1,34,,,,,,,3,5,2,stim/52.jpeg,HouseObjects,2,stim/objects/HouseObjects/saw2.png,0.9,2,0.2,0.15,right,43,2020-12-09_09h07.52.477,premup-three_ses-01_part-01_label-phase1,3.2.4,Win32,60,right,0.859999895,4,0,4,0,1,3,1,0,240,197,1,239,,,,,,,,,,,,,,,,,,
,,0,35,,,,,,,2,3,3,stim/33.jpeg,HouseObjects,2,stim/objects/HouseObjects/thermometer.png,0.7,4,0.2,-0.15,right,43,2020-12-09_09h07.52.477,premup-three_ses-01_part-01_label-phase1,3.2.4,Win32,60,left,0.875999928,4,0,4,0,1,3,1,0,240,114,1,239,,,,,,,,,,,,,,,,,,
,,1,36,,,,,,,1,2,1,stim/21.jpeg,HouseObjects,2,stim/objects/HouseObjects/safetypin.png,0.5,4,0.2,-0.15,right,43,2020-12-09_09h07.52.477,premup-three_ses-01_part-01_label-phase1,3.2.4,Win32,60,right,1.814999819,4,0,4,0,1,3,1,0,240,72,1,239,,,,,,,,,,,,,,,,,,
,,0,37,,,,,,,2,3,4,stim/34.jpeg,HouseObjects,2,stim/objects/HouseObjects/thread.png,0.7,3,-0.2,-0.15,right,43,2020-12-09_09h07.52.477,premup-three_ses-01_part-01_label-phase1,3.2.4,Win32,60,left,0.853000164,4,0,4,0,1,3,1,0,240,103,1,239,,,,,,,,,,,,,,,,,,
,,1,38,,,,,,,2,4,2,stim/42.jpeg,Instruments,1,stim/objects/Instruments/pipepiano2.png,0.7,1,-0.2,0.15,left,43,2020-12-09_09h07.52.477,premup-three_ses-01_part-01_label-phase1,3.2.4,Win32,60,left,0.901000023,4,0,4,0,1,3,1,0,240,129,1,239,,,,,,,,,,,,,,,,,,
,,0,39,,,,,,,2,3,1,stim/31.jpeg,Instruments,1,stim/objects/Instruments/triangle.png,0.3,3,-0.2,-0.15,left,43,2020-12-09_09h07.52.477,premup-three_ses-01_part-01_label-phase1,3.2.4,Win32,60,right,1.825999975,4,0,4,0,1,3,1,0,240,88,1,239,,,,,,,,,,,,,,,,,,
,,1,40,,,,,,,3,6,1,stim/61.jpeg,Instruments,1,stim/objects/Instruments/triangle2.png,0.9,3,-0.2,-0.15,left,43,2020-12-09_09h07.52.477,premup-three_ses-01_part-01_label-phase1,3.2.4,Win32,60,left,0.796999931,4,0,4,0,1,3,1,0,240,204,1,239,,,,,,,,,,,,,,,,,,
,,1,41,,,,,,,2,4,2,stim/42.jpeg,HouseObjects,2,stim/objects/HouseObjects/remote2.png,0.3,2,0.2,0.15,right,43,2020-12-09_09h07.52.477,premup-three_ses-01_part-01_label-phase1,3.2.4,Win32,60,right,1.913000107,4,0,4,0,1,3,1,0,240,157,1,239,,,,,,,,,,,,,,,,,,
,,1,42,,,,,,,3,6,1,stim/61.jpeg,Instruments,1,stim/objects/Instruments/triangle2.png,0.9,4,0.2,-0.15,left,43,2020-12-09_09h07.52.477,premup-three_ses-01_part-01_label-phase1,3.2.4,Win32,60,left,0.719000101,4,0,4,0,1,3,1,0,240,228,1,239,,,,,,,,,,,,,,,,,,
,,1,43,,,,,,,2,4,4,stim/44.jpeg,Instruments,1,stim/objects/Instruments/record_player2.png,0.7,1,-0.2,0.15,left,43,2020-12-09_09h07.52.477,premup-three_ses-01_part-01_label-phase1,3.2.4,Win32,60,left,0.592000008,4,0,4,0,1,3,1,0,240,143,1,239,,,,,,,,,,,,,,,,,,
,,0,44,,,,,,,2,4,1,stim/41.jpeg,HouseObjects,2,stim/objects/HouseObjects/recyclingbin2.png,0.3,3,-0.2,-0.15,right,43,2020-12-09_09h07.52.477,premup-three_ses-01_part-01_label-phase1,3.2.4,Win32,60,left,1.147000074,4,0,4,0,1,3,1,0,240,152,1,239,,,,,,,,,,,,,,,,,,
,,0,45,,,,,,,3,6,3,stim/63.jpeg,HouseObjects,2,stim/objects/HouseObjects/thermometer2.png,0.1,4,0.2,-0.15,right,43,2020-12-09_09h07.52.477,premup-three_ses-01_part-01_label-phase1,3.2.4,Win32,60,,,4,0,4,0,1,3,1,0,240,238,1,239,,,,,,,,,,,,,,,,,,
,,0,46,,,,,,,1,2,2,stim/22.jpeg,Instruments,1,stim/objects/Instruments/speaker.png,0.5,1,-0.2,0.15,left,43,2020-12-09_09h07.52.477,premup-three_ses-01_part-01_label-phase1,3.2.4,Win32,60,right,1.184000015,4,0,4,0,1,3,1,0,240,45,1,239,,,,,,,,,,,,,,,,,,
,,0,47,,,,,,,2,4,4,stim/44.jpeg,HouseObjects,2,stim/objects/HouseObjects/rug2.png,0.3,1,-0.2,0.15,right,43,2020-12-09_09h07.52.477,premup-three_ses-01_part-01_label-phase1,3.2.4,Win32,60,left,1.243000031,4,0,4,0,1,3,1,0,240,159,1,239,,,,,,,,,,,,,,,,,,
,,0,48,,,,,,,2,4,3,stim/43.jpeg,Instruments,1,stim/objects/Instruments/record2.png,0.7,3,-0.2,-0.15,left,43,2020-12-09_09h07.52.477,premup-three_ses-01_part-01_label-phase1,3.2.4,Win32,60,right,1.333999872,4,0,4,0,1,3,1,0,240,122,1,239,,,,,,,,,,,,,,,,,,
,,0,49,,,,,,,1,2,4,stim/24.jpeg,HouseObjects,2,stim/objects/HouseObjects/sponge.png,0.5,2,0.2,0.15,right,43,2020-12-09_09h07.52.477,premup-three_ses-01_part-01_label-phase1,3.2.4,Win32,60,left,1.299000025,4,0,4,0,1,3,1,0,240,63,1,239,,,,,,,,,,,,,,,,,,
,,1,50,,,,,,,1,1,2,stim/12.jpeg,Instruments,1,stim/objects/Instruments/pipepiano.png,0.5,3,-0.2,-0.15,left,43,2020-12-09_09h07.52.477,premup-three_ses-01_part-01_label-phase1,3.2.4,Win32,60,left,0.645999908,4,0,4,0,1,3,1,0,240,9,1,239,,,,,,,,,,,,,,,,,,
,,1,51,,,,,,,3,6,4,stim/64.jpeg,Instruments,1,stim/objects/Instruments/tuba2.png,0.9,2,0.2,0.15,left,43,2020-12-09_09h07.52.477,premup-three_ses-01_part-01_label-phase1,3.2.4,Win32,60,left,0.896000147,4,0,4,0,1,3,1,0,240,211,1,239,,,,,,,,,,,,,,,,,,
,,0,52,,,,,,,1,1,4,stim/14.jpeg,HouseObjects,2,stim/objects/HouseObjects/rug.png,0.5,1,-0.2,0.15,right,43,2020-12-09_09h07.52.477,premup-three_ses-01_part-01_label-phase1,3.2.4,Win32,60,left,0.815999985,4,0,4,0,1,3,1,0,240,39,1,239,,,,,,,,,,,,,,,,,,
,,1,53,,,,,,,3,5,4,stim/54.jpeg,HouseObjects,2,stim/objects/HouseObjects/sponge2.png,0.9,3,-0.2,-0.15,right,43,2020-12-09_09h07.52.477,premup-three_ses-01_part-01_label-phase1,3.2.4,Win32,60,right,1.298000097,4,0,4,0,1,3,1,0,240,175,1,239,,,,,,,,,,,,,,,,,,
,,0,54,,,,,,,3,5,4,stim/54.jpeg,HouseObjects,2,stim/objects/HouseObjects/sponge2.png,0.9,4,0.2,-0.15,right,43,2020-12-09_09h07.52.477,premup-three_ses-01_part-01_label-phase1,3.2.4,Win32,60,left,0.753000021,4,0,4,0,1,3,1,0,240,171,1,239,,,,,,,,,,,,,,,,,,
,,0,55,,,,,,,2,4,1,stim/41.jpeg,HouseObjects,2,stim/objects/HouseObjects/recyclingbin2.png,0.3,4,0.2,-0.15,right,43,2020-12-09_09h07.52.477,premup-three_ses-01_part-01_label-phase1,3.2.4,Win32,60,,,4,0,4,0,1,3,1,0,240,156,1,239,,,,,,,,,,,,,,,,,,
,,1,56,,,,,,,3,5,1,stim/51.jpeg,HouseObjects,2,stim/objects/HouseObjects/safetypin2.png,0.9,4,0.2,-0.15,right,43,2020-12-09_09h07.52.477,premup-three_ses-01_part-01_label-phase1,3.2.4,Win32,60,right,0.694999933,4,0,4,0,1,3,1,0,240,180,1,239,,,,,,,,,,,,,,,,,,
,,1,57,,,,,,,3,6,4,stim/64.jpeg,Instruments,1,stim/objects/Instruments/tuba2.png,0.9,3,-0.2,-0.15,left,43,2020-12-09_09h07.52.477,premup-three_ses-01_part-01_label-phase1,3.2.4,Win32,60,left,0.503999949,4,0,4,0,1,3,1,0,240,203,1,239,,,,,,,,,,,,,,,,,,
,,1,58,,,,,,,2,4,3,stim/43.jpeg,Instruments,1,stim/objects/Instruments/record2.png,0.7,3,-0.2,-0.15,left,43,2020-12-09_09h07.52.477,premup-three_ses-01_part-01_label-phase1,3.2.4,Win32,60,left,1.614000082,4,0,4,0,1,3,1,0,240,126,1,239,,,,,,,,,,,,,,,,,,
,,0,59,,,,,,,2,4,3,stim/43.jpeg,HouseObjects,2,stim/objects/HouseObjects/rubbergloves2.png,0.3,4,0.2,-0.15,right,43,2020-12-09_09h07.52.477,premup-three_ses-01_part-01_label-phase1,3.2.4,Win32,60,left,0.568000078,4,0,4,0,1,3,1,0,240,158,1,239,,,,,,,,,,,,,,,,,,
,,1,60,,,,,,,3,5,3,stim/53.jpeg,HouseObjects,2,stim/objects/HouseObjects/scale2.png,0.9,1,-0.2,0.15,right,43,2020-12-09_09h07.52.477,premup-three_ses-01_part-01_label-phase1,3.2.4,Win32,60,right,0.94900012,4,0,4,0,1,3,1,0,240,194,1,239,,,,,,,,,,,,,,,,,,
,,1,61,,,,,,,3,5,4,stim/54.jpeg,HouseObjects,2,stim/objects/HouseObjects/sponge2.png,0.9,4,0.2,-0.15,right,43,2020-12-09_09h07.52.477,premup-three_ses-01_part-01_label-phase1,3.2.4,Win32,60,right,1.161000013,4,0,4,0,1,3,1,0,240,199,1,239,,,,,,,,,,,,,,,,,,
,,1,62,,,,,,,1,2,4,stim/24.jpeg,Instruments,1,stim/objects/Instruments/timbal.png,0.5,3,-0.2,-0.15,left,43,2020-12-09_09h07.52.477,premup-three_ses-01_part-01_label-phase1,3.2.4,Win32,60,left,1.33100009,4,0,4,0,1,3,1,0,240,43,1,239,,,,,,,,,,,,,,,,,,
,,0,63,,,,,,,1,2,2,stim/22.jpeg,HouseObjects,2,stim/objects/HouseObjects/saw.png,0.5,1,-0.2,0.15,right,43,2020-12-09_09h07.52.477,premup-three_ses-01_part-01_label-phase1,3.2.4,Win32,60,left,0.666000128,4,0,4,0,1,3,1,0,240,61,1,239,,,,,,,,,,,,,,,,,,
,,1,64,,,,,,,3,5,4,stim/54.jpeg,HouseObjects,2,stim/objects/HouseObjects/sponge2.png,0.9,1,-0.2,0.15,right,43,2020-12-09_09h07.52.477,premup-three_ses-01_part-01_label-phase1,3.2.4,Win32,60,right,0.664000034,4,0,4,0,1,3,1,0,240,167,1,239,,,,,,,,,,,,,,,,,,
,,1,65,,,,,,,3,6,3,stim/63.jpeg,Instruments,1,stim/objects/Instruments/trumpet2.png,0.9,3,-0.2,-0.15,left,43,2020-12-09_09h07.52.477,premup-three_ses-01_part-01_label-phase1,3.2.4,Win32,60,left,0.730999947,4,0,4,0,1,3,1,0,240,210,1,239,,,,,,,,,,,,,,,,,,
,,1,66,,,,,,,3,5,4,stim/54.jpeg,HouseObjects,2,stim/objects/HouseObjects/sponge2.png,0.9,2,0.2,0.15,right,43,2020-12-09_09h07.52.477,premup-three_ses-01_part-01_label-phase1,3.2.4,Win32,60,right,0.779999971,4,0,4,0,1,3,1,0,240,191,1,239,,,,,,,,,,,,,,,,,,
,,1,67,,,,,,,1,2,3,stim/23.jpeg,Instruments,1,stim/objects/Instruments/tambourine.png,0.5,4,0.2,-0.15,left,43,2020-12-09_09h07.52.477,premup-three_ses-01_part-01_label-phase1,3.2.4,Win32,60,left,1.451999903,4,0,4,0,1,3,1,0,240,46,1,239,,,,,,,,,,,,,,,,,,
,,1,68,,,,,,,2,3,3,stim/33.jpeg,HouseObjects,2,stim/objects/HouseObjects/thermometer.png,0.7,2,0.2,0.15,right,43,2020-12-09_09h07.52.477,premup-three_ses-01_part-01_label-phase1,3.2.4,Win32,60,right,1.213000059,4,0,4,0,1,3,1,0,240,94,1,239,,,,,,,,,,,,,,,,,,
,,0,69,,,,,,,1,2,4,stim/24.jpeg,HouseObjects,2,stim/objects/HouseObjects/sponge.png,0.5,2,0.2,0.15,right,43,2020-12-09_09h07.52.477,premup-three_ses-01_part-01_label-phase1,3.2.4,Win32,60,left,0.677000046,4,0,4,0,1,3,1,0,240,71,1,239,,,,,,,,,,,,,,,,,,
,,1,70,,,,,,,1,2,2,stim/22.jpeg,Instruments,1,stim/objects/Instruments/speaker.png,0.5,3,-0.2,-0.15,left,43,2020-12-09_09h07.52.477,premup-three_ses-01_part-01_label-phase1,3.2.4,Win32,60,left,1.003999949,4,0,4,0,1,3,1,0,240,53,1,239,,,,,,,,,,,,,,,,,,
,,1,71,,,,,,,2,3,4,stim/34.jpeg,Instruments,1,stim/objects/Instruments/tuba.png,0.3,3,-0.2,-0.15,left,43,2020-12-09_09h07.52.477,premup-three_ses-01_part-01_label-phase1,3.2.4,Win32,60,left,1.252000093,4,0,4,0,1,3,1,0,240,83,1,239,,,,,,,,,,,,,,,,,,
,,1,72,,,,,,,2,3,2,stim/32.jpeg,HouseObjects,2,stim/objects/HouseObjects/teapot.png,0.7,4,0.2,-0.15,right,43,2020-12-09_09h07.52.477,premup-three_ses-01_part-01_label-phase1,3.2.4,Win32,60,right,0.503000021,4,0,4,0,1,3,1,0,240,97,1,239,,,,,,,,,,,,,,,,,,
,,0,73,,,,,,,3,5,2,stim/52.jpeg,HouseObjects,2,stim/objects/HouseObjects/saw2.png,0.9,1,-0.2,0.15,right,43,2020-12-09_09h07.52.477,premup-three_ses-01_part-01_label-phase1,3.2.4,Win32,60,left,0.661999941,4,0,4,0,1,3,1,0,240,177,1,239,,,,,,,,,,,,,,,,,,
,,0,74,,,,,,,2,4,2,stim/42.jpeg,Instruments,1,stim/objects/Instruments/pipepiano2.png,0.7,1,-0.2,0.15,left,43,2020-12-09_09h07.52.477,premup-three_ses-01_part-01_label-phase1,3.2.4,Win32,60,right,0.819000006,4,0,4,0,1,3,1,0,240,133,1,239,,,,,,,,,,,,,,,,,,
,,0,75,,,,,,,1,2,4,stim/24.jpeg,HouseObjects,2,stim/objects/HouseObjects/sponge.png,0.5,2,0.2,0.15,right,43,2020-12-09_09h07.52.477,premup-three_ses-01_part-01_label-phase1,3.2.4,Win32,60,left,1.861999989,4,0,4,0,1,3,1,0,240,79,1,239,,,,,,,,,,,,,,,,,,
,,1,76,,,,,,,3,6,3,stim/63.jpeg,Instruments,1,stim/objects/Instruments/trumpet2.png,0.9,3,-0.2,-0.15,left,43,2020-12-09_09h07.52.477,premup-three_ses-01_part-01_label-phase1,3.2.4,Win32,60,left,0.763999939,4,0,4,0,1,3,1,0,240,206,1,239,,,,,,,,,,,,,,,,,,
,,1,77,,,,,,,1,2,4,stim/24.jpeg,HouseObjects,2,stim/objects/HouseObjects/sponge.png,0.5,2,0.2,0.15,right,43,2020-12-09_09h07.52.477,premup-three_ses-01_part-01_label-phase1,3.2.4,Win32,60,right,1.065000057,4,0,4,0,1,3,1,0,240,67,1,239,,,,,,,,,,,,,,,,,,
,,1,78,,,,,,,1,2,3,stim/23.jpeg,Instruments,1,stim/objects/Instruments/tambourine.png,0.5,4,0.2,-0.15,left,43,2020-12-09_09h07.52.477,premup-three_ses-01_part-01_label-phase1,3.2.4,Win32,60,left,1.450000048,4,0,4,0,1,3,1,0,240,54,1,239,,,,,,,,,,,,,,,,,,
,,0,79,,,,,,,2,3,1,stim/31.jpeg,HouseObjects,2,stim/objects/HouseObjects/spraybottle.png,0.7,3,-0.2,-0.15,right,43,2020-12-09_09h07.52.477,premup-three_ses-01_part-01_label-phase1,3.2.4,Win32,60,left,0.667000055,4,0,4,0,1,3,1,0,240,92,1,239,,,,,,,,,,,,,,,,,,
,,0,80,,,,,,,1,2,1,stim/21.jpeg,HouseObjects,2,stim/objects/HouseObjects/safetypin.png,0.5,3,-0.2,-0.15,right,43,2020-12-09_09h07.52.477,premup-three_ses-01_part-01_label-phase1,3.2.4,Win32,60,left,0.842999935,4,0,4,0,1,3,1,0,240,60,1,239,,,,,,,,,,,,,,,,,,
,,1,81,,,,,,,3,6,2,stim/62.jpeg,Instruments,1,stim/objects/Instruments/trombone2.png,0.9,4,0.2,-0.15,left,43,2020-12-09_09h07.52.477,premup-three_ses-01_part-01_label-phase1,3.2.4,Win32,60,left,1.561000109,4,0,4,0,1,3,1,0,240,229,1,239,,,,,,,,,,,,,,,,,,
,,0,82,,,,,,,2,4,2,stim/42.jpeg,Instruments,1,stim/objects/Instruments/pipepiano2.png,0.7,4,0.2,-0.15,left,43,2020-12-09_09h07.52.477,premup-three_ses-01_part-01_label-phase1,3.2.4,Win32,60,right,0.845999956,4,0,4,0,1,3,1,0,240,125,1,239,,,,,,,,,,,,,,,,,,
,,1,83,,,,,,,3,6,2,stim/62.jpeg,Instruments,1,stim/objects/Instruments/trombone2.png,0.9,1,-0.2,0.15,left,43,2020-12-09_09h07.52.477,premup-three_ses-01_part-01_label-phase1,3.2.4,Win32,60,left,1.645999908,4,0,4,0,1,3,1,0,240,213,1,239,,,,,,,,,,,,,,,,,,
,,1,84,,,,,,,1,2,1,stim/21.jpeg,HouseObjects,2,stim/objects/HouseObjects/safetypin.png,0.5,4,0.2,-0.15,right,43,2020-12-09_09h07.52.477,premup-three_ses-01_part-01_label-phase1,3.2.4,Win32,60,right,1.351000071,4,0,4,0,1,3,1,0,240,64,1,239,,,,,,,,,,,,,,,,,,
,,0,85,,,,,,,3,5,2,stim/52.jpeg,Instruments,1,stim/objects/Instruments/speaker2.png,0.1,3,-0.2,-0.15,left,43,2020-12-09_09h07.52.477,premup-three_ses-01_part-01_label-phase1,3.2.4,Win32,60,right,1.364000082,4,0,4,0,1,3,1,0,240,161,1,239,,,,,,,,,,,,,,,,,,
,,0,86,,,,,,,2,3,2,stim/32.jpeg,Instruments,1,stim/objects/Instruments/trombone.png,0.3,2,0.2,0.15,left,43,2020-12-09_09h07.52.477,premup-three_ses-01_part-01_label-phase1,3.2.4,Win32,60,,,4,0,4,0,1,3,1,0,240,85,1,239,,,,,,,,,,,,,,,,,,
,,1,87,,,,,,,1,1,1,stim/11.jpeg,Instruments,1,stim/objects/Instruments/panflute.png,0.5,4,0.2,-0.15,left,43,2020-12-09_09h07.52.477,premup-three_ses-01_part-01_label-phase1,3.2.4,Win32,60,left,0.878000021,4,0,4,0,1,3,1,0,240,0,1,239,,,,,,,,,,,,,,,,,,
,,1,88,,,,,,,2,4,4,stim/44.jpeg,HouseObjects,2,stim/objects/HouseObjects/rug2.png,0.3,4,0.2,-0.15,right,43,2020-12-09_09h07.52.477,premup-three_ses-01_part-01_label-phase1,3.2.4,Win32,60,right,1.684000015,4,0,4,0,1,3,1,0,240,151,1,239,,,,,,,,,,,,,,,,,,
,,1,89,,,,,,,3,5,1,stim/51.jpeg,HouseObjects,2,stim/objects/HouseObjects/safetypin2.png,0.9,4,0.2,-0.15,right,43,2020-12-09_09h07.52.477,premup-three_ses-01_part-01_label-phase1,3.2.4,Win32,60,right,1.610999823,4,0,4,0,1,3,1,0,240,184,1,239,,,,,,,,,,,,,,,,,,
,,1,90,,,,,,,3,6,3,stim/63.jpeg,Instruments,1,stim/objects/Instruments/trumpet2.png,0.9,2,0.2,0.15,left,43,2020-12-09_09h07.52.477,premup-three_ses-01_part-01_label-phase1,3.2.4,Win32,60,left,0.684000015,4,0,4,0,1,3,1,0,240,226,1,239,,,,,,,,,,,,,,,,,,
,,1,91,,,,,,,2,3,4,stim/34.jpeg,HouseObjects,2,stim/objects/HouseObjects/thread.png,0.7,4,0.2,-0.15,right,43,2020-12-09_09h07.52.477,premup-three_ses-01_part-01_label-phase1,3.2.4,Win32,60,right,0.914999962,4,0,4,0,1,3,1,0,240,115,1,239,,,,,,,,,,,,,,,,,,
,,1,92,,,,,,,1,1,1,stim/11.jpeg,HouseObjects,2,stim/objects/HouseObjects/recyclingbin.png,0.5,2,0.2,0.15,right,43,2020-12-09_09h07.52.477,premup-three_ses-01_part-01_label-phase1,3.2.4,Win32,60,right,0.979000092,4,0,4,0,1,3,1,0,240,28,1,239,,,,,,,,,,,,,,,,,,
,,1,93,,,,,,,3,6,1,stim/61.jpeg,HouseObjects,2,stim/objects/HouseObjects/spraybottle2.png,0.1,2,0.2,0.15,right,43,2020-12-09_09h07.52.477,premup-three_ses-01_part-01_label-phase1,3.2.4,Win32,60,right,0.761999846,4,0,4,0,1,3,1,0,240,236,1,239,,,,,,,,,,,,,,,,,,
,,0,94,,,,,,,1,2,2,stim/22.jpeg,HouseObjects,2,stim/objects/HouseObjects/saw.png,0.5,2,0.2,0.15,right,43,2020-12-09_09h07.52.477,premup-three_ses-01_part-01_label-phase1,3.2.4,Win32,60,,,4,0,4,0,1,3,1,0,240,65,1,239,,,,,,,,,,,,,,,,,,
,,0,95,,,,,,,1,2,3,stim/23.jpeg,HouseObjects,2,stim/objects/HouseObjects/scale.png,0.5,2,0.2,0.15,right,43,2020-12-09_09h07.52.477,premup-three_ses-01_part-01_label-phase1,3.2.4,Win32,60,left,0.611000061,4,0,4,0,1,3,1,0,240,74,1,239,,,,,,,,,,,,,,,,,,
,,1,96,,,,,,,2,4,4,stim/44.jpeg,HouseObjects,2,stim/objects/HouseObjects/rug2.png,0.3,2,0.2,0.15,right,43,2020-12-09_09h07.52.477,premup-three_ses-01_part-01_label-phase1,3.2.4,Win32,60,right,0.450999975,4,0,4,0,1,3,1,0,240,155,1,239,,,,,,,,,,,,,,,,,,
,,1,97,,,,,,,3,6,4,stim/64.jpeg,Instruments,1,stim/objects/Instruments/tuba2.png,0.9,4,0.2,-0.15,left,43,2020-12-09_09h07.52.477,premup-three_ses-01_part-01_label-phase1,3.2.4,Win32,60,left,0.407000065,4,0,4,0,1,3,1,0,240,207,1,239,,,,,,,,,,,,,,,,,,
,,0,98,,,,,,,1,1,3,stim/13.jpeg,Instruments,1,stim/objects/Instruments/record.png,0.5,3,-0.2,-0.15,left,43,2020-12-09_09h07.52.477,premup-three_ses-01_part-01_label-phase1,3.2.4,Win32,60,right,0.788000107,4,0,4,0,1,3,1,0,240,10,1,239,,,,,,,,,,,,,,,,,,
,,1,99,,,,,,,1,1,2,stim/12.jpeg,Instruments,1,stim/objects/Instruments/pipepiano.png,0.5,2,0.2,0.15,left,43,2020-12-09_09h07.52.477,premup-three_ses-01_part-01_label-phase1,3.2.4,Win32,60,left,0.288000107,4,0,4,0,1,3,1,0,240,5,1,239,,,,,,,,,,,,,,,,,,
,,1,100,,,,,,,2,3,1,stim/31.jpeg,HouseObjects,2,stim/objects/HouseObjects/spraybottle.png,0.7,3,-0.2,-0.15,right,43,2020-12-09_09h07.52.477,premup-three_ses-01_part-01_label-phase1,3.2.4,Win32,60,right,0.792999983,4,0,4,0,1,3,1,0,240,116,1,239,,,,,,,,,,,,,,,,,,
,,1,101,,,,,,,3,5,3,stim/53.jpeg,HouseObjects,2,stim/objects/HouseObjects/scale2.png,0.9,2,0.2,0.15,right,43,2020-12-09_09h07.52.477,premup-three_ses-01_part-01_label-phase1,3.2.4,Win32,60,right,1.112999916,4,0,4,0,1,3,1,0,240,174,1,239,,,,,,,,,,,,,,,,,,
,,0,102,,,,,,,1,1,2,stim/12.jpeg,HouseObjects,2,stim/objects/HouseObjects/remote.png,0.5,2,0.2,0.15,right,43,2020-12-09_09h07.52.477,premup-three_ses-01_part-01_label-phase1,3.2.4,Win32,60,left,0.467999935,4,0,4,0,1,3,1,0,240,33,1,239,,,,,,,,,,,,,,,,,,
,,0,103,,,,,,,2,3,3,stim/33.jpeg,Instruments,1,stim/objects/Instruments/trumpet.png,0.3,1,-0.2,0.15,left,43,2020-12-09_09h07.52.477,premup-three_ses-01_part-01_label-phase1,3.2.4,Win32,60,right,0.442000151,4,0,4,0,1,3,1,0,240,86,1,239,,,,,,,,,,,,,,,,,,
,,1,104,,,,,,,3,5,1,stim/51.jpeg,HouseObjects,2,stim/objects/HouseObjects/safetypin2.png,0.9,4,0.2,-0.15,right,43,2020-12-09_09h07.52.477,premup-three_ses-01_part-01_label-phase1,3.2.4,Win32,60,right,1.020999908,4,0,4,0,1,3,1,0,240,188,1,239,,,,,,,,,,,,,,,,,,
,,0,105,,,,,,,3,5,4,stim/54.jpeg,HouseObjects,2,stim/objects/HouseObjects/sponge2.png,0.9,1,-0.2,0.15,right,43,2020-12-09_09h07.52.477,premup-three_ses-01_part-01_label-phase1,3.2.4,Win32,60,left,1.032999992,4,0,4,0,1,3,1,0,240,187,1,239,,,,,,,,,,,,,,,,,,
,,1,106,,,,,,,3,6,1,stim/61.jpeg,Instruments,1,stim/objects/Instruments/triangle2.png,0.9,3,-0.2,-0.15,left,43,2020-12-09_09h07.52.477,premup-three_ses-01_part-01_label-phase1,3.2.4,Win32,60,left,1.054999828,4,0,4,0,1,3,1,0,240,212,1,239,,,,,,,,,,,,,,,,,,
,,0,107,,,,,,,3,5,1,stim/51.jpeg,Instruments,1,stim/objects/Instruments/saxophone2.png,0.1,4,0.2,-0.15,left,43,2020-12-09_09h07.52.477,premup-three_ses-01_part-01_label-phase1,3.2.4,Win32,60,right,0.812000036,4,0,4,0,1,3,1,0,240,160,1,239,,,,,,,,,,,,,,,,,,
,,0,108,,,,,,,1,2,3,stim/23.jpeg,HouseObjects,2,stim/objects/HouseObjects/scale.png,0.5,4,0.2,-0.15,right,43,2020-12-09_09h07.52.477,premup-three_ses-01_part-01_label-phase1,3.2.4,Win32,60,left,1.211000204,4,0,4,0,1,3,1,0,240,70,1,239,,,,,,,,,,,,,,,,,,
,,1,109,,,,,,,2,3,4,stim/34.jpeg,HouseObjects,2,stim/objects/HouseObjects/thread.png,0.7,4,0.2,-0.15,right,43,2020-12-09_09h07.52.477,premup-three_ses-01_part-01_label-phase1,3.2.4,Win32,60,right,1.057999849,4,0,4,0,1,3,1,0,240,99,1,239,,,,,,,,,,,,,,,,,,
,,1,110,,,,,,,2,4,1,stim/41.jpeg,Instruments,1,stim/objects/Instruments/panflute2.png,0.7,2,0.2,0.15,left,43,2020-12-09_09h07.52.477,premup-three_ses-01_part-01_label-phase1,3.2.4,Win32,60,left,1.411000013,4,0,4,0,1,3,1,0,240,140,1,239,,,,,,,,,,,,,,,,,,
,,1,111,,,,,,,1,2,1,stim/21.jpeg,Instruments,1,stim/objects/Instruments/saxophone.png,0.5,4,0.2,-0.15,left,43,2020-12-09_09h07.52.477,premup-three_ses-01_part-01_label-phase1,3.2.4,Win32,60,left,1.592000008,4,0,4,0,1,3,1,0,240,52,1,239,,,,,,,,,,,,,,,,,,
,,1,112,,,,,,,1,2,3,stim/23.jpeg,HouseObjects,2,stim/objects/HouseObjects/scale.png,0.5,4,0.2,-0.15,right,43,2020-12-09_09h07.52.477,premup-three_ses-01_part-01_label-phase1,3.2.4,Win32,60,right,0.645999908,4,0,4,0,1,3,1,0,240,66,1,239,,,,,,,,,,,,,,,,,,
,,1,113,,,,,,,1,2,2,stim/22.jpeg,Instruments,1,stim/objects/Instruments/speaker.png,0.5,4,0.2,-0.15,left,43,2020-12-09_09h07.52.477,premup-three_ses-01_part-01_label-phase1,3.2.4,Win32,60,left,0.791000128,4,0,4,0,1,3,1,0,240,41,1,239,,,,,,,,,,,,,,,,,,
,,1,114,,,,,,,3,6,1,stim/61.jpeg,Instruments,1,stim/objects/Instruments/triangle2.png,0.9,2,0.2,0.15,left,43,2020-12-09_09h07.52.477,premup-three_ses-01_part-01_label-phase1,3.2.4,Win32,60,left,1.359999895,4,0,4,0,1,3,1,0,240,216,1,239,,,,,,,,,,,,,,,,,,
,,0,115,,,,,,,2,4,1,stim/41.jpeg,Instruments,1,stim/objects/Instruments/panflute2.png,0.7,3,-0.2,-0.15,left,43,2020-12-09_09h07.52.477,premup-three_ses-01_part-01_label-phase1,3.2.4,Win32,60,right,0.902999878,4,0,4,0,1,3,1,0,240,136,1,239,,,,,,,,,,,,,,,,,,
,,1,116,,,,,,,2,4,1,stim/41.jpeg,Instruments,1,stim/objects/Instruments/panflute2.png,0.7,1,-0.2,0.15,left,43,2020-12-09_09h07.52.477,premup-three_ses-01_part-01_label-phase1,3.2.4,Win32,60,left,0.701999903,4,0,4,0,1,3,1,0,240,132,1,239,,,,,,,,,,,,,,,,,,
,,0,117,,,,,,,2,3,3,stim/33.jpeg,HouseObjects,2,stim/objects/HouseObjects/thermometer.png,0.7,4,0.2,-0.15,right,43,2020-12-09_09h07.52.477,premup-three_ses-01_part-01_label-phase1,3.2.4,Win32,60,left,1.048000097,4,0,4,0,1,3,1,0,240,118,1,239,,,,,,,,,,,,,,,,,,
,,0,118,,,,,,,1,2,3,stim/23.jpeg,Instruments,1,stim/objects/Instruments/tambourine.png,0.5,4,0.2,-0.15,left,43,2020-12-09_09h07.52.477,premup-three_ses-01_part-01_label-phase1,3.2.4,Win32,60,right,1.165999889,4,0,4,0,1,3,1,0,240,50,1,239,,,,,,,,,,,,,,,,,,
,,0,119,,,,,,,1,2,1,stim/21.jpeg,Instruments,1,stim/objects/Instruments/saxophone.png,0.5,3,-0.2,-0.15,left,43,2020-12-09_09h07.52.477,premup-three_ses-01_part-01_label-phase1,3.2.4,Win32,60,right,1.319000006,4,0,4,0,1,3,1,0,240,48,1,239,,,,,,,,,,,,,,,,,,
,,1,120,,,,,,,1,2,1,stim/21.jpeg,Instruments,1,stim/objects/Instruments/saxophone.png,0.5,4,0.2,-0.15,left,43,2020-12-09_09h07.52.477,premup-three_ses-01_part-01_label-phase1,3.2.4,Win32,60,left,1.046999931,4,0,4,0,1,3,1,0,240,56,1,239,,,,,,,,,,,,,,,,,,
,,1,121,,,,,,,3,5,3,stim/53.jpeg,HouseObjects,2,stim/objects/HouseObjects/scale2.png,0.9,2,0.2,0.15,right,43,2020-12-09_09h07.52.477,premup-three_ses-01_part-01_label-phase1,3.2.4,Win32,60,right,0.890000105,4,0,4,0,1,3,1,0,240,190,1,239,,,,,,,,,,,,,,,,,,
,,1,122,,,,,,,2,4,3,stim/43.jpeg,Instruments,1,stim/objects/Instruments/record2.png,0.7,1,-0.2,0.15,left,43,2020-12-09_09h07.52.477,premup-three_ses-01_part-01_label-phase1,3.2.4,Win32,60,left,1.003000021,4,0,4,0,1,3,1,0,240,146,1,239,,,,,,,,,,,,,,,,,,
,,1,123,,,,,,,1,2,4,stim/24.jpeg,HouseObjects,2,stim/objects/HouseObjects/sponge.png,0.5,1,-0.2,0.15,right,43,2020-12-09_09h07.52.477,premup-three_ses-01_part-01_label-phase1,3.2.4,Win32,60,right,0.921000004,4,0,4,0,1,3,1,0,240,75,1,239,,,,,,,,,,,,,,,,,,
,,1,124,,,,,,,3,5,2,stim/52.jpeg,HouseObjects,2,stim/objects/HouseObjects/saw2.png,0.9,3,-0.2,-0.15,right,43,2020-12-09_09h07.52.477,premup-three_ses-01_part-01_label-phase1,3.2.4,Win32,60,right,1.04700017,4,0,4,0,1,3,1,0,240,189,1,239,,,,,,,,,,,,,,,,,,
,,1,125,,,,,,,3,6,2,stim/62.jpeg,Instruments,1,stim/objects/Instruments/trombone2.png,0.9,1,-0.2,0.15,left,43,2020-12-09_09h07.52.477,premup-three_ses-01_part-01_label-phase1,3.2.4,Win32,60,left,1.787000179,4,0,4,0,1,3,1,0,240,201,1,239,,,,,,,,,,,,,,,,,,
,,1,126,,,,,,,2,4,2,stim/42.jpeg,Instruments,1,stim/objects/Instruments/pipepiano2.png,0.7,2,0.2,0.15,left,43,2020-12-09_09h07.52.477,premup-three_ses-01_part-01_label-phase1,3.2.4,Win32,60,left,1.289000034,4,0,4,0,1,3,1,0,240,137,1,239,,,,,,,,,,,,,,,,,,
,,0,127,,,,,,,1,1,4,stim/14.jpeg,Instruments,1,stim/objects/Instruments/record_player.png,0.5,4,0.2,-0.15,left,43,2020-12-09_09h07.52.477,premup-three_ses-01_part-01_label-phase1,3.2.4,Win32,60,right,1.184000015,4,0,4,0,1,3,1,0,240,3,1,239,,,,,,,,,,,,,,,,,,
,,1,128,,,,,,,3,6,3,stim/63.jpeg,Instruments,1,stim/objects/Instruments/trumpet2.png,0.9,4,0.2,-0.15,left,43,2020-12-09_09h07.52.477,premup-three_ses-01_part-01_label-phase1,3.2.4,Win32,60,left,0.685000181,4,0,4,0,1,3,1,0,240,234,1,239,,,,,,,,,,,,,,,,,,
,,0,129,,,,,,,3,6,1,stim/61.jpeg,Instruments,1,stim/objects/Instruments/triangle2.png,0.9,2,0.2,0.15,left,43,2020-12-09_09h07.52.477,premup-three_ses-01_part-01_label-phase1,3.2.4,Win32,60,right,1.279999971,4,0,4,0,1,3,1,0,240,232,1,239,,,,,,,,,,,,,,,,,,
,,1,130,,,,,,,3,6,4,stim/64.jpeg,Instruments,1,stim/objects/Instruments/tuba2.png,0.9,1,-0.2,0.15,left,43,2020-12-09_09h07.52.477,premup-three_ses-01_part-01_label-phase1,3.2.4,Win32,60,left,0.717999935,4,0,4,0,1,3,1,0,240,235,1,239,,,,,,,,,,,,,,,,,,
,,0,131,,,,,,,3,5,3,stim/53.jpeg,HouseObjects,2,stim/objects/HouseObjects/scale2.png,0.9,2,0.2,0.15,right,43,2020-12-09_09h07.52.477,premup-three_ses-01_part-01_label-phase1,3.2.4,Win32,60,left,0.68900013,4,0,4,0,1,3,1,0,240,186,1,239,,,,,,,,,,,,,,,,,,
,,1,132,,,,,,,2,3,4,stim/34.jpeg,HouseObjects,2,stim/objects/HouseObjects/thread.png,0.7,4,0.2,-0.15,right,43,2020-12-09_09h07.52.477,premup-three_ses-01_part-01_label-phase1,3.2.4,Win32,60,right,0.677000046,4,0,4,0,1,3,1,0,240,95,1,239,,,,,,,,,,,,,,,,,,
,,0,133,,,,,,,2,3,1,stim/31.jpeg,HouseObjects,2,stim/objects/HouseObjects/spraybottle.png,0.7,1,-0.2,0.15,right,43,2020-12-09_09h07.52.477,premup-three_ses-01_part-01_label-phase1,3.2.4,Win32,60,left,0.588000059,4,0,4,0,1,3,1,0,240,104,1,239,,,,,,,,,,,,,,,,,,
,,0,134,,,,,,,1,2,3,stim/23.jpeg,HouseObjects,2,stim/objects/HouseObjects/scale.png,0.5,1,-0.2,0.15,right,43,2020-12-09_09h07.52.477,premup-three_ses-01_part-01_label-phase1,3.2.4,Win32,60,left,1.344000101,4,0,4,0,1,3,1,0,240,78,1,239,,,,,,,,,,,,,,,,,,
,,1,135,,,,,,,2,4,4,stim/44.jpeg,Instruments,1,stim/objects/Instruments/record_player2.png,0.7,1,-0.2,0.15,left,43,2020-12-09_09h07.52.477,premup-three_ses-01_part-01_label-phase1,3.2.4,Win32,60,left,1.893000126,4,0,4,0,1,3,1,0,240,127,1,239,,,,,,,,,,,,,,,,,,
,,1,136,,,,,,,1,1,4,stim/14.jpeg,Instruments,1,stim/objects/Instruments/record_player.png,0.5,1,-0.2,0.15,left,43,2020-12-09_09h07.52.477,premup-three_ses-01_part-01_label-phase1,3.2.4,Win32,60,left,1.229000092,4,0,4,0,1,3,1,0,240,19,1,239,,,,,,,,,,,,,,,,,,
,,1,137,,,,,,,2,3,2,stim/32.jpeg,HouseObjects,2,stim/objects/HouseObjects/teapot.png,0.7,1,-0.2,0.15,right,43,2020-12-09_09h07.52.477,premup-three_ses-01_part-01_label-phase1,3.2.4,Win32,60,right,0.927999973,4,0,4,0,1,3,1,0,240,93,1,239,,,,,,,,,,,,,,,,,,
,,0,138,,,,,,,2,4,3,stim/43.jpeg,Instruments,1,stim/objects/Instruments/record2.png,0.7,1,-0.2,0.15,left,43,2020-12-09_09h07.52.477,premup-three_ses-01_part-01_label-phase1,3.2.4,Win32,60,right,1.28000021,4,0,4,0,1,3,1,0,240,134,1,239,,,,,,,,,,,,,,,,,,
,,1,139,,,,,,,3,6,1,stim/61.jpeg,Instruments,1,stim/objects/Instruments/triangle2.png,0.9,4,0.2,-0.15,left,43,2020-12-09_09h07.52.477,premup-three_ses-01_part-01_label-phase1,3.2.4,Win32,60,left,0.371000051,4,0,4,0,1,3,1,0,240,220,1,239,,,,,,,,,,,,,,,,,,
,,1,140,,,,,,,1,1,1,stim/11.jpeg,HouseObjects,2,stim/objects/HouseObjects/recyclingbin.png,0.5,1,-0.2,0.15,right,43,2020-12-09_09h07.52.477,premup-three_ses-01_part-01_label-phase1,3.2.4,Win32,60,right,1.046000004,4,0,4,0,1,3,1,0,240,32,1,239,,,,,,,,,,,,,,,,,,
,,0,141,,,,,,,3,5,4,stim/54.jpeg,HouseObjects,2,stim/objects/HouseObjects/sponge2.png,0.9,3,-0.2,-0.15,right,43,2020-12-09_09h07.52.477,premup-three_ses-01_part-01_label-phase1,3.2.4,Win32,60,left,0.642999887,4,0,4,0,1,3,1,0,240,179,1,239,,,,,,,,,,,,,,,,,,
,,1,142,,,,,,,2,4,2,stim/42.jpeg,HouseObjects,2,stim/objects/HouseObjects/remote2.png,0.3,3,-0.2,-0.15,right,43,2020-12-09_09h07.52.477,premup-three_ses-01_part-01_label-phase1,3.2.4,Win32,60,right,0.332000017,4,0,4,0,1,3,1,0,240,149,1,239,,,,,,,,,,,,,,,,,,
,,0,143,,,,,,,3,5,4,stim/54.jpeg,HouseObjects,2,stim/objects/HouseObjects/sponge2.png,0.9,1,-0.2,0.15,right,43,2020-12-09_09h07.52.477,premup-three_ses-01_part-01_label-phase1,3.2.4,Win32,60,left,0.444999933,4,0,4,0,1,3,1,0,240,183,1,239,,,,,,,,,,,,,,,,,,
,,1,144,,,,,,,1,1,3,stim/13.jpeg,Instruments,1,stim/objects/Instruments/record.png,0.5,1,-0.2,0.15,left,43,2020-12-09_09h07.52.477,premup-three_ses-01_part-01_label-phase1,3.2.4,Win32,60,left,1.249000072,4,0,4,0,1,3,1,0,240,18,1,239,,,,,,,,,,,,,,,,,,
,,0,145,,,,,,,1,2,4,stim/24.jpeg,Instruments,1,stim/objects/Instruments/timbal.png,0.5,4,0.2,-0.15,left,43,2020-12-09_09h07.52.477,premup-three_ses-01_part-01_label-phase1,3.2.4,Win32,60,right,1.097000122,4,0,4,0,1,3,1,0,240,51,1,239,,,,,,,,,,,,,,,,,,
,,0,146,,,,,,,3,5,2,stim/52.jpeg,HouseObjects,2,stim/objects/HouseObjects/saw2.png,0.9,3,-0.2,-0.15,right,43,2020-12-09_09h07.52.477,premup-three_ses-01_part-01_label-phase1,3.2.4,Win32,60,left,1.07799983,4,0,4,0,1,3,1,0,240,193,1,239,,,,,,,,,,,,,,,,,,
,,1,147,,,,,,,3,6,3,stim/63.jpeg,Instruments,1,stim/objects/Instruments/trumpet2.png,0.9,3,-0.2,-0.15,left,43,2020-12-09_09h07.52.477,premup-three_ses-01_part-01_label-phase1,3.2.4,Win32,60,left,0.697000027,4,0,4,0,1,3,1,0,240,218,1,239,,,,,,,,,,,,,,,,,,
,,1,148,,,,,,,2,4,1,stim/41.jpeg,Instruments,1,stim/objects/Instruments/panflute2.png,0.7,2,0.2,0.15,left,43,2020-12-09_09h07.52.477,premup-three_ses-01_part-01_label-phase1,3.2.4,Win32,60,left,1.129000187,4,0,4,0,1,3,1,0,240,120,1,239,,,,,,,,,,,,,,,,,,
,,1,149,,,,,,,2,4,1,stim/41.jpeg,Instruments,1,stim/objects/Instruments/panflute2.png,0.7,2,0.2,0.15,left,43,2020-12-09_09h07.52.477,premup-three_ses-01_part-01_label-phase1,3.2.4,Win32,60,left,0.947000027,4,0,4,0,1,3,1,0,240,128,1,239,,,,,,,,,,,,,,,,,,
,,1,150,,,,,,,3,6,4,stim/64.jpeg,Instruments,1,stim/objects/Instruments/tuba2.png,0.9,2,0.2,0.15,left,43,2020-12-09_09h07.52.477,premup-three_ses-01_part-01_label-phase1,3.2.4,Win32,60,left,0.711000204,4,0,4,0,1,3,1,0,240,219,1,239,,,,,,,,,,,,,,,,,,
,,1,151,,,,,,,1,2,4,stim/24.jpeg,Instruments,1,stim/objects/Instruments/timbal.png,0.5,1,-0.2,0.15,left,43,2020-12-09_09h07.52.477,premup-three_ses-01_part-01_label-phase1,3.2.4,Win32,60,left,1.226999998,4,0,4,0,1,3,1,0,240,59,1,239,,,,,,,,,,,,,,,,,,
,,1,152,,,,,,,2,3,3,stim/33.jpeg,HouseObjects,2,stim/objects/HouseObjects/thermometer.png,0.7,1,-0.2,0.15,right,43,2020-12-09_09h07.52.477,premup-three_ses-01_part-01_label-phase1,3.2.4,Win32,60,right,1.2099998,4,0,4,0,1,3,1,0,240,106,1,239,,,,,,,,,,,,,,,,,,
,,1,153,,,,,,,1,1,4,stim/14.jpeg,Instruments,1,stim/objects/Instruments/record_player.png,0.5,4,0.2,-0.15,left,43,2020-12-09_09h07.52.477,premup-three_ses-01_part-01_label-phase1,3.2.4,Win32,60,left,0.877000093,4,0,4,0,1,3,1,0,240,11,1,239,,,,,,,,,,,,,,,,,,
,,0,154,,,,,,,1,1,2,stim/12.jpeg,HouseObjects,2,stim/objects/HouseObjects/remote.png,0.5,3,-0.2,-0.15,right,43,2020-12-09_09h07.52.477,premup-three_ses-01_part-01_label-phase1,3.2.4,Win32,60,left,1.663000107,4,0,4,0,1,3,1,0,240,37,1,239,,,,,,,,,,,,,,,,,,
,,0,155,,,,,,,1,2,2,stim/22.jpeg,Instruments,1,stim/objects/Instruments/speaker.png,0.5,4,0.2,-0.15,left,43,2020-12-09_09h07.52.477,premup-three_ses-01_part-01_label-phase1,3.2.4,Win32,60,right,1.50999999,4,0,4,0,1,3,1,0,240,49,1,239,,,,,,,,,,,,,,,,,,
,,1,156,,,,,,,1,2,3,stim/23.jpeg,Instruments,1,stim/objects/Instruments/tambourine.png,0.5,1,-0.2,0.15,left,43,2020-12-09_09h07.52.477,premup-three_ses-01_part-01_label-phase1,3.2.4,Win32,60,left,1.697000027,4,0,4,0,1,3,1,0,240,58,1,239,,,,,,,,,,,,,,,,,,
,,1,157,,,,,,,2,3,1,stim/31.jpeg,HouseObjects,2,stim/objects/HouseObjects/spraybottle.png,0.7,2,0.2,0.15,right,43,2020-12-09_09h07.52.477,premup-three_ses-01_part-01_label-phase1,3.2.4,Win32,60,right,1.252000093,4,0,4,0,1,3,1,0,240,112,1,239,,,,,,,,,,,,,,,,,,
,,1,158,,,,,,,1,2,3,stim/23.jpeg,HouseObjects,2,stim/objects/HouseObjects/scale.png,0.5,3,-0.2,-0.15,right,43,2020-12-09_09h07.52.477,premup-three_ses-01_part-01_label-phase1,3.2.4,Win32,60,right,0.845999956,4,0,4,0,1,3,1,0,240,62,1,239,,,,,,,,,,,,,,,,,,
,,0,159,,,,,,,3,5,2,stim/52.jpeg,HouseObjects,2,stim/objects/HouseObjects/saw2.png,0.9,2,0.2,0.15,right,43,2020-12-09_09h07.52.477,premup-three_ses-01_part-01_label-phase1,3.2.4,Win32,60,left,0.962000132,4,0,4,0,1,3,1,0,240,185,1,239,,,,,,,,,,,,,,,,,,
,,1,160,,,,,,,3,6,2,stim/62.jpeg,HouseObjects,2,stim/objects/HouseObjects/teapot2.png,0.1,1,-0.2,0.15,right,43,2020-12-09_09h07.52.477,premup-three_ses-01_part-01_label-phase1,3.2.4,Win32,60,right,1.197999954,4,0,4,0,1,3,1,0,240,237,1,239,,,,,,,,,,,,,,,,,,
,,1,161,,,,,,,1,1,2,stim/12.jpeg,HouseObjects,2,stim/objects/HouseObjects/remote.png,0.5,1,-0.2,0.15,right,43,2020-12-09_09h07.52.477,premup-three_ses-01_part-01_label-phase1,3.2.4,Win32,60,right,1.095000029,4,0,4,0,1,3,1,0,240,29,1,239,,,,,,,,,,,,,,,,,,
,,0,162,,,,,,,1,2,1,stim/21.jpeg,HouseObjects,2,stim/objects/HouseObjects/safetypin.png,0.5,3,-0.2,-0.15,right,43,2020-12-09_09h07.52.477,premup-three_ses-01_part-01_label-phase1,3.2.4,Win32,60,left,1.097000122,4,0,4,0,1,3,1,0,240,68,1,239,,,,,,,,,,,,,,,,,,
,,0,163,,,,,,,1,1,1,stim/11.jpeg,Instruments,1,stim/objects/Instruments/panflute.png,0.5,2,0.2,0.15,left,43,2020-12-09_09h07.52.477,premup-three_ses-01_part-01_label-phase1,3.2.4,Win32,60,right,0.715000153,4,0,4,0,1,3,1,0,240,8,1,239,,,,,,,,,,,,,,,,,,
,,1,164,,,,,,,3,6,1,stim/61.jpeg,Instruments,1,stim/objects/Instruments/triangle2.png,0.9,3,-0.2,-0.15,left,43,2020-12-09_09h07.52.477,premup-three_ses-01_part-01_label-phase1,3.2.4,Win32,60,left,1.030999899,4,0,4,0,1,3,1,0,240,200,1,239,,,,,,,,,,,,,,,,,,
,,1,165,,,,,,,1,1,1,stim/11.jpeg,HouseObjects,2,stim/objects/HouseObjects/recyclingbin.png,0.5,2,0.2,0.15,right,43,2020-12-09_09h07.52.477,premup-three_ses-01_part-01_label-phase1,3.2.4,Win32,60,right,1.365999937,4,0,4,0,1,3,1,0,240,24,1,239,,,,,,,,,,,,,,,,,,
,,0,166,,,,,,,2,3,2,stim/32.jpeg,HouseObjects,2,stim/objects/HouseObjects/teapot.png,0.7,4,0.2,-0.15,right,43,2020-12-09_09h07.52.477,premup-three_ses-01_part-01_label-phase1,3.2.4,Win32,60,left,1.509000063,4,0,4,0,1,3,1,0,240,105,1,239,,,,,,,,,,,,,,,,,,
,,1,167,,,,,,,1,1,3,stim/13.jpeg,HouseObjects,2,stim/objects/HouseObjects/rubbergloves.png,0.5,3,-0.2,-0.15,right,43,2020-12-09_09h07.52.477,premup-three_ses-01_part-01_label-phase1,3.2.4,Win32,60,right,0.619000196,4,0,4,0,1,3,1,0,240,34,1,239,,,,,,,,,,,,,,,,,,
,,1,168,,,,,,,3,6,2,stim/62.jpeg,Instruments,1,stim/objects/Instruments/trombone2.png,0.9,4,0.2,-0.15,left,43,2020-12-09_09h07.52.477,premup-three_ses-01_part-01_label-phase1,3.2.4,Win32,60,left,1.071000099,4,0,4,0,1,3,1,0,240,209,1,239,,,,,,,,,,,,,,,,,,
,,1,169,,,,,,,2,3,3,stim/33.jpeg,HouseObjects,2,stim/objects/HouseObjects/thermometer.png,0.7,1,-0.2,0.15,right,43,2020-12-09_09h07.52.477,premup-three_ses-01_part-01_label-phase1,3.2.4,Win32,60,right,1.736999989,4,0,4,0,1,3,1,0,240,98,1,239,,,,,,,,,,,,,,,,,,
,,0,170,,,,,,,1,1,2,stim/12.jpeg,Instruments,1,stim/objects/Instruments/pipepiano.png,0.5,4,0.2,-0.15,left,43,2020-12-09_09h07.52.477,premup-three_ses-01_part-01_label-phase1,3.2.4,Win32,60,right,1.129999876,4,0,4,0,1,3,1,0,240,1,1,239,,,,,,,,,,,,,,,,,,
,,0,171,,,,,,,1,1,3,stim/13.jpeg,HouseObjects,2,stim/objects/HouseObjects/rubbergloves.png,0.5,2,0.2,0.15,right,43,2020-12-09_09h07.52.477,premup-three_ses-01_part-01_label-phase1,3.2.4,Win32,60,left,1.112999916,4,0,4,0,1,3,1,0,240,38,1,239,,,,,,,,,,,,,,,,,,
,,0,172,,,,,,,3,6,3,stim/63.jpeg,Instruments,1,stim/objects/Instruments/trumpet2.png,0.9,2,0.2,0.15,left,43,2020-12-09_09h07.52.477,premup-three_ses-01_part-01_label-phase1,3.2.4,Win32,60,right,0.962999821,4,0,4,0,1,3,1,0,240,214,1,239,,,,,,,,,,,,,,,,,,
,,1,173,,,,,,,1,2,1,stim/21.jpeg,Instruments,1,stim/objects/Instruments/saxophone.png,0.5,2,0.2,0.15,left,43,2020-12-09_09h07.52.477,premup-three_ses-01_part-01_label-phase1,3.2.4,Win32,60,left,0.847000122,4,0,4,0,1,3,1,0,240,40,1,239,,,,,,,,,,,,,,,,,,
,,1,174,,,,,,,1,1,1,stim/11.jpeg,Instruments,1,stim/objects/Instruments/panflute.png,0.5,1,-0.2,0.15,left,43,2020-12-09_09h07.52.477,premup-three_ses-01_part-01_label-phase1,3.2.4,Win32,60,left,1.097000122,4,0,4,0,1,3,1,0,240,4,1,239,,,,,,,,,,,,,,,,,,
,,0,175,,,,,,,1,1,2,stim/12.jpeg,Instruments,1,stim/objects/Instruments/pipepiano.png,0.5,4,0.2,-0.15,left,43,2020-12-09_09h07.52.477,premup-three_ses-01_part-01_label-phase1,3.2.4,Win32,60,right,1.034000158,4,0,4,0,1,3,1,0,240,17,1,239,,,,,,,,,,,,,,,,,,
,,0,176,,,,,,,3,5,1,stim/51.jpeg,HouseObjects,2,stim/objects/HouseObjects/safetypin2.png,0.9,3,-0.2,-0.15,right,43,2020-12-09_09h07.52.477,premup-three_ses-01_part-01_label-phase1,3.2.4,Win32,60,left,0.270999908,4,0,4,0,1,3,1,0,240,172,1,239,,,,,,,,,,,,,,,,,,
,,1,177,,,,,,,3,6,1,stim/61.jpeg,Instruments,1,stim/objects/Instruments/triangle2.png,0.9,4,0.2,-0.15,left,43,2020-12-09_09h07.52.477,premup-three_ses-01_part-01_label-phase1,3.2.4,Win32,60,left,0.634000063,4,0,4,0,1,3,1,0,240,224,1,239,,,,,,,,,,,,,,,,,,
,,1,178,,,,,,,3,5,3,stim/53.jpeg,HouseObjects,2,stim/objects/HouseObjects/scale2.png,0.9,1,-0.2,0.15,right,43,2020-12-09_09h07.52.477,premup-three_ses-01_part-01_label-phase1,3.2.4,Win32,60,right,0.876000166,4,0,4,0,1,3,1,0,240,178,1,239,,,,,,,,,,,,,,,,,,
,,1,179,,,,,,,3,5,1,stim/51.jpeg,HouseObjects,2,stim/objects/HouseObjects/safetypin2.png,0.9,1,-0.2,0.15,right,43,2020-12-09_09h07.52.477,premup-three_ses-01_part-01_label-phase1,3.2.4,Win32,60,right,0.697000027,4,0,4,0,1,3,1,0,240,192,1,239,,,,,,,,,,,,,,,,,,
,,1,180,,,,,,,2,3,2,stim/32.jpeg,HouseObjects,2,stim/objects/HouseObjects/teapot.png,0.7,3,-0.2,-0.15,right,43,2020-12-09_09h07.52.477,premup-three_ses-01_part-01_label-phase1,3.2.4,Win32,60,right,1.122999907,4,0,4,0,1,3,1,0,240,101,1,239,,,,,,,,,,,,,,,,,,
,,0,181,,,,,,,2,4,1,stim/41.jpeg,HouseObjects,2,stim/objects/HouseObjects/recyclingbin2.png,0.3,4,0.2,-0.15,right,43,2020-12-09_09h07.52.477,premup-three_ses-01_part-01_label-phase1,3.2.4,Win32,60,left,1.242000103,4,0,4,0,1,3,1,0,240,148,1,239,,,,,,,,,,,,,,,,,,
,,1,182,,,,,,,3,6,4,stim/64.jpeg,Instruments,1,stim/objects/Instruments/tuba2.png,0.9,3,-0.2,-0.15,left,43,2020-12-09_09h07.52.477,premup-three_ses-01_part-01_label-phase1,3.2.4,Win32,60,left,0.912999868,4,0,4,0,1,3,1,0,240,231,1,239,,,,,,,,,,,,,,,,,,
,,1,183,,,,,,,1,2,1,stim/21.jpeg,Instruments,1,stim/objects/Instruments/saxophone.png,0.5,3,-0.2,-0.15,left,43,2020-12-09_09h07.52.477,premup-three_ses-01_part-01_label-phase1,3.2.4,Win32,60,left,1.042999983,4,0,4,0,1,3,1,0,240,44,1,239,,,,,,,,,,,,,,,,,,
,,1,184,,,,,,,2,3,2,stim/32.jpeg,HouseObjects,2,stim/objects/HouseObjects/teapot.png,0.7,1,-0.2,0.15,right,43,2020-12-09_09h07.52.477,premup-three_ses-01_part-01_label-phase1,3.2.4,Win32,60,right,1.639999866,4,0,4,0,1,3,1,0,240,117,1,239,,,,,,,,,,,,,,,,,,
,,1,185,,,,,,,1,1,1,stim/11.jpeg,HouseObjects,2,stim/objects/HouseObjects/recyclingbin.png,0.5,2,0.2,0.15,right,43,2020-12-09_09h07.52.477,premup-three_ses-01_part-01_label-phase1,3.2.4,Win32,60,right,0.813999891,4,0,4,0,1,3,1,0,240,36,1,239,,,,,,,,,,,,,,,,,,
,,1,186,,,,,,,1,1,4,stim/14.jpeg,HouseObjects,2,stim/objects/HouseObjects/rug.png,0.5,1,-0.2,0.15,right,43,2020-12-09_09h07.52.477,premup-three_ses-01_part-01_label-phase1,3.2.4,Win32,60,right,0.871000051,4,0,4,0,1,3,1,0,240,31,1,239,,,,,,,,,,,,,,,,,,
,,1,187,,,,,,,2,4,1,stim/41.jpeg,Instruments,1,stim/objects/Instruments/panflute2.png,0.7,1,-0.2,0.15,left,43,2020-12-09_09h07.52.477,premup-three_ses-01_part-01_label-phase1,3.2.4,Win32,60,left,1.261000156,4,0,4,0,1,3,1,0,240,144,1,239,,,,,,,,,,,,,,,,,,
,,1,188,,,,,,,2,4,4,stim/44.jpeg,Instruments,1,stim/objects/Instruments/record_player2.png,0.7,1,-0.2,0.15,left,43,2020-12-09_09h07.52.477,premup-three_ses-01_part-01_label-phase1,3.2.4,Win32,60,left,0.845000029,4,0,4,0,1,3,1,0,240,139,1,239,,,,,,,,,,,,,,,,,,
,,1,189,,,,,,,2,3,4,stim/34.jpeg,HouseObjects,2,stim/objects/HouseObjects/thread.png,0.7,2,0.2,0.15,right,43,2020-12-09_09h07.52.477,premup-three_ses-01_part-01_label-phase1,3.2.4,Win32,60,right,0.739000082,4,0,4,0,1,3,1,0,240,107,1,239,,,,,,,,,,,,,,,,,,
,,1,190,,,,,,,1,2,2,stim/22.jpeg,Instruments,1,stim/objects/Instruments/speaker.png,0.5,1,-0.2,0.15,left,43,2020-12-09_09h07.52.477,premup-three_ses-01_part-01_label-phase1,3.2.4,Win32,60,left,1.279999971,4,0,4,0,1,3,1,0,240,57,1,239,,,,,,,,,,,,,,,,,,
,,0,191,,,,,,,3,5,3,stim/53.jpeg,Instruments,1,stim/objects/Instruments/tambourine2.png,0.1,4,0.2,-0.15,left,43,2020-12-09_09h07.52.477,premup-three_ses-01_part-01_label-phase1,3.2.4,Win32,60,right,0.569000006,4,0,4,0,1,3,1,0,240,162,1,239,,,,,,,,,,,,,,,,,,
,,1,192,,,,,,,2,4,2,stim/42.jpeg,Instruments,1,stim/objects/Instruments/pipepiano2.png,0.7,4,0.2,-0.15,left,43,2020-12-09_09h07.52.477,premup-three_ses-01_part-01_label-phase1,3.2.4,Win32,60,left,0.915999889,4,0,4,0,1,3,1,0,240,145,1,239,,,,,,,,,,,,,,,,,,
,,1,193,,,,,,,2,4,3,stim/43.jpeg,HouseObjects,2,stim/objects/HouseObjects/rubbergloves2.png,0.3,4,0.2,-0.15,right,43,2020-12-09_09h07.52.477,premup-three_ses-01_part-01_label-phase1,3.2.4,Win32,60,right,0.859999895,4,0,4,0,1,3,1,0,240,154,1,239,,,,,,,,,,,,,,,,,,
,,0,194,,,,,,,1,1,3,stim/13.jpeg,HouseObjects,2,stim/objects/HouseObjects/rubbergloves.png,0.5,4,0.2,-0.15,right,43,2020-12-09_09h07.52.477,premup-three_ses-01_part-01_label-phase1,3.2.4,Win32,60,left,0.993999958,4,0,4,0,1,3,1,0,240,26,1,239,,,,,,,,,,,,,,,,,,
,,0,195,,,,,,,1,1,3,stim/13.jpeg,Instruments,1,stim/objects/Instruments/record.png,0.5,1,-0.2,0.15,left,43,2020-12-09_09h07.52.477,premup-three_ses-01_part-01_label-phase1,3.2.4,Win32,60,right,0.843000174,4,0,4,0,1,3,1,0,240,14,1,239,,,,,,,,,,,,,,,,,,
,,1,196,,,,,,,1,1,1,stim/11.jpeg,Instruments,1,stim/objects/Instruments/panflute.png,0.5,2,0.2,0.15,left,43,2020-12-09_09h07.52.477,premup-three_ses-01_part-01_label-phase1,3.2.4,Win32,60,left,0.832999945,4,0,4,0,1,3,1,0,240,16,1,239,,,,,,,,,,,,,,,,,,
,,1,197,,,,,,,2,4,4,stim/44.jpeg,Instruments,1,stim/objects/Instruments/record_player2.png,0.7,4,0.2,-0.15,left,43,2020-12-09_09h07.52.477,premup-three_ses-01_part-01_label-phase1,3.2.4,Win32,60,left,0.81099987,4,0,4,0,1,3,1,0,240,135,1,239,,,,,,,,,,,,,,,,,,
,,1,198,,,,,,,1,1,2,stim/12.jpeg,HouseObjects,2,stim/objects/HouseObjects/remote.png,0.5,2,0.2,0.15,right,43,2020-12-09_09h07.52.477,premup-three_ses-01_part-01_label-phase1,3.2.4,Win32,60,right,0.642999887,4,0,4,0,1,3,1,0,240,25,1,239,,,,,,,,,,,,,,,,,,
,,0,199,,,,,,,3,5,2,stim/52.jpeg,HouseObjects,2,stim/objects/HouseObjects/saw2.png,0.9,4,0.2,-0.15,right,43,2020-12-09_09h07.52.477,premup-three_ses-01_part-01_label-phase1,3.2.4,Win32,60,left,0.31799984,4,0,4,0,1,3,1,0,240,181,1,239,,,,,,,,,,,,,,,,,,
,,0,200,,,,,,,2,3,4,stim/34.jpeg,Instruments,1,stim/objects/Instruments/tuba.png,0.3,3,-0.2,-0.15,left,43,2020-12-09_09h07.52.477,premup-three_ses-01_part-01_label-phase1,3.2.4,Win32,60,right,0.730999947,4,0,4,0,1,3,1,0,240,91,1,239,,,,,,,,,,,,,,,,,,
,,1,201,,,,,,,3,6,2,stim/62.jpeg,Instruments,1,stim/objects/Instruments/trombone2.png,0.9,4,0.2,-0.15,left,43,2020-12-09_09h07.52.477,premup-three_ses-01_part-01_label-phase1,3.2.4,Win32,60,left,0.764999866,4,0,4,0,1,3,1,0,240,225,1,239,,,,,,,,,,,,,,,,,,
,,1,202,,,,,,,2,4,4,stim/44.jpeg,Instruments,1,stim/objects/Instruments/record_player2.png,0.7,3,-0.2,-0.15,left,43,2020-12-09_09h07.52.477,premup-three_ses-01_part-01_label-phase1,3.2.4,Win32,60,left,1.201999903,4,0,4,0,1,3,1,0,240,123,1,239,,,,,,,,,,,,,,,,,,
,,1,203,,,,,,,3,5,3,stim/53.jpeg,HouseObjects,2,stim/objects/HouseObjects/scale2.png,0.9,3,-0.2,-0.15,right,43,2020-12-09_09h07.52.477,premup-three_ses-01_part-01_label-phase1,3.2.4,Win32,60,right,0.944999933,4,0,4,0,1,3,1,0,240,170,1,239,,,,,,,,,,,,,,,,,,
,,1,204,,,,,,,2,4,4,stim/44.jpeg,Instruments,1,stim/objects/Instruments/record_player2.png,0.7,1,-0.2,0.15,left,43,2020-12-09_09h07.52.477,premup-three_ses-01_part-01_label-phase1,3.2.4,Win32,60,left,0.838999987,4,0,4,0,1,3,1,0,240,131,1,239,,,,,,,,,,,,,,,,,,
,,1,205,,,,,,,2,3,3,stim/33.jpeg,HouseObjects,2,stim/objects/HouseObjects/thermometer.png,0.7,4,0.2,-0.15,right,43,2020-12-09_09h07.52.477,premup-three_ses-01_part-01_label-phase1,3.2.4,Win32,60,right,0.625,4,0,4,0,1,3,1,0,240,102,1,239,,,,,,,,,,,,,,,,,,
,,0,206,,,,,,,3,5,4,stim/54.jpeg,Instruments,1,stim/objects/Instruments/timbal2.png,0.1,1,-0.2,0.15,left,43,2020-12-09_09h07.52.477,premup-three_ses-01_part-01_label-phase1,3.2.4,Win32,60,right,1.549999952,4,0,4,0,1,3,1,0,240,163,1,239,,,,,,,,,,,,,,,,,,
,,1,207,,,,,,,1,1,2,stim/12.jpeg,HouseObjects,2,stim/objects/HouseObjects/remote.png,0.5,2,0.2,0.15,right,43,2020-12-09_09h07.52.477,premup-three_ses-01_part-01_label-phase1,3.2.4,Win32,60,right,0.797999859,4,0,4,0,1,3,1,0,240,21,1,239,,,,,,,,,,,,,,,,,,
,,1,208,,,,,,,1,2,4,stim/24.jpeg,Instruments,1,stim/objects/Instruments/timbal.png,0.5,2,0.2,0.15,left,43,2020-12-09_09h07.52.477,premup-three_ses-01_part-01_label-phase1,3.2.4,Win32,60,left,0.715000153,4,0,4,0,1,3,1,0,240,55,1,239,,,,,,,,,,,,,,,,,,
,,0,209,,,,,,,2,3,1,stim/31.jpeg,Instruments,1,stim/objects/Instruments/triangle.png,0.3,2,0.2,0.15,left,43,2020-12-09_09h07.52.477,premup-three_ses-01_part-01_label-phase1,3.2.4,Win32,60,right,1.258000135,4,0,4,0,1,3,1,0,240,80,1,239,,,,,,,,,,,,,,,,,,
,,1,210,,,,,,,1,2,3,stim/23.jpeg,Instruments,1,stim/objects/Instruments/tambourine.png,0.5,3,-0.2,-0.15,left,43,2020-12-09_09h07.52.477,premup-three_ses-01_part-01_label-phase1,3.2.4,Win32,60,left,0.683000088,4,0,4,0,1,3,1,0,240,42,1,239,,,,,,,,,,,,,,,,,,
,,0,211,,,,,,,3,6,4,stim/64.jpeg,HouseObjects,2,stim/objects/HouseObjects/thread2.png,0.1,4,0.2,-0.15,right,43,2020-12-09_09h07.52.477,premup-three_ses-01_part-01_label-phase1,3.2.4,Win32,60,left,0.601999998,4,0,4,0,1,3,1,0,240,239,1,239,,,,,,,,,,,,,,,,,,
,,0,212,,,,,,,2,4,3,stim/43.jpeg,HouseObjects,2,stim/objects/HouseObjects/rubbergloves2.png,0.3,3,-0.2,-0.15,right,43,2020-12-09_09h07.52.477,premup-three_ses-01_part-01_label-phase1,3.2.4,Win32,60,,,4,0,4,0,1,3,1,0,240,150,1,239,,,,,,,,,,,,,,,,,,
,,1,213,,,,,,,3,6,2,stim/62.jpeg,Instruments,1,stim/objects/Instruments/trombone2.png,0.9,1,-0.2,0.15,left,43,2020-12-09_09h07.52.477,premup-three_ses-01_part-01_label-phase1,3.2.4,Win32,60,left,1.901000023,4,0,4,0,1,3,1,0,240,205,1,239,,,,,,,,,,,,,,,,,,
,,0,214,,,,,,,2,3,3,stim/33.jpeg,Instruments,1,stim/objects/Instruments/trumpet.png,0.3,3,-0.2,-0.15,left,43,2020-12-09_09h07.52.477,premup-three_ses-01_part-01_label-phase1,3.2.4,Win32,60,right,1.27699995,4,0,4,0,1,3,1,0,240,82,1,239,,,,,,,,,,,,,,,,,,
,,0,215,,,,,,,1,2,2,stim/22.jpeg,HouseObjects,2,stim/objects/HouseObjects/saw.png,0.5,1,-0.2,0.15,right,43,2020-12-09_09h07.52.477,premup-three_ses-01_part-01_label-phase1,3.2.4,Win32,60,left,0.465999842,4,0,4,0,1,3,1,0,240,73,1,239,,,,,,,,,,,,,,,,,,
,,0,216,,,,,,,2,3,3,stim/33.jpeg,Instruments,1,stim/objects/Instruments/trumpet.png,0.3,4,0.2,-0.15,left,43,2020-12-09_09h07.52.477,premup-three_ses-01_part-01_label-phase1,3.2.4,Win32,60,right,0.384000063,4,0,4,0,1,3,1,0,240,90,1,239,,,,,,,,,,,,,,,,,,
,,0,217,,,,,,,2,4,2,stim/42.jpeg,Instruments,1,stim/objects/Instruments/pipepiano2.png,0.7,3,-0.2,-0.15,left,43,2020-12-09_09h07.52.477,premup-three_ses-01_part-01_label-phase1,3.2.4,Win32,60,right,0.797999859,4,0,4,0,1,3,1,0,240,141,1,239,,,,,,,,,,,,,,,,,,
,,1,218,,,,,,,2,3,2,stim/32.jpeg,Instruments,1,stim/objects/Instruments/trombone.png,0.3,3,-0.2,-0.15,left,43,2020-12-09_09h07.52.477,premup-three_ses-01_part-01_label-phase1,3.2.4,Win32,60,left,0.580000162,4,0,4,0,1,3,1,0,240,89,1,239,,,,,,,,,,,,,,,,,,
,,1,219,,,,,,,1,2,2,stim/22.jpeg,HouseObjects,2,stim/objects/HouseObjects/saw.png,0.5,3,-0.2,-0.15,right,43,2020-12-09_09h07.52.477,premup-three_ses-01_part-01_label-phase1,3.2.4,Win32,60,right,1.06400013,4,0,4,0,1,3,1,0,240,77,1,239,,,,,,,,,,,,,,,,,,
,,1,220,,,,,,,1,2,4,stim/24.jpeg,Instruments,1,stim/objects/Instruments/timbal.png,0.5,3,-0.2,-0.15,left,43,2020-12-09_09h07.52.477,premup-three_ses-01_part-01_label-phase1,3.2.4,Win32,60,left,1.211000204,4,0,4,0,1,3,1,0,240,47,1,239,,,,,,,,,,,,,,,,,,
,,1,221,,,,,,,3,6,3,stim/63.jpeg,Instruments,1,stim/objects/Instruments/trumpet2.png,0.9,3,-0.2,-0.15,left,43,2020-12-09_09h07.52.477,premup-three_ses-01_part-01_label-phase1,3.2.4,Win32,60,left,1.009000063,4,0,4,0,1,3,1,0,240,230,1,239,,,,,,,,,,,,,,,,,,
,,1,222,,,,,,,2,3,3,stim/33.jpeg,HouseObjects,2,stim/objects/HouseObjects/thermometer.png,0.7,2,0.2,0.15,right,43,2020-12-09_09h07.52.477,premup-three_ses-01_part-01_label-phase1,3.2.4,Win32,60,right,0.707000017,4,0,4,0,1,3,1,0,240,110,1,239,,,,,,,,,,,,,,,,,,
,,1,223,,,,,,,2,4,3,stim/43.jpeg,Instruments,1,stim/objects/Instruments/record2.png,0.7,2,0.2,0.15,left,43,2020-12-09_09h07.52.477,premup-three_ses-01_part-01_label-phase1,3.2.4,Win32,60,left,1.128000021,4,0,4,0,1,3,1,0,240,138,1,239,,,,,,,,,,,,,,,,,,
,,1,224,,,,,,,2,3,1,stim/31.jpeg,HouseObjects,2,stim/objects/HouseObjects/spraybottle.png,0.7,4,0.2,-0.15,right,43,2020-12-09_09h07.52.477,premup-three_ses-01_part-01_label-phase1,3.2.4,Win32,60,right,0.615999937,4,0,4,0,1,3,1,0,240,96,1,239,,,,,,,,,,,,,,,,,,
,,1,225,,,,,,,3,6,4,stim/64.jpeg,Instruments,1,stim/objects/Instruments/tuba2.png,0.9,3,-0.2,-0.15,left,43,2020-12-09_09h07.52.477,premup-three_ses-01_part-01_label-phase1,3.2.4,Win32,60,left,0.684000015,4,0,4,0,1,3,1,0,240,227,1,239,,,,,,,,,,,,,,,,,,
,,1,226,,,,,,,3,5,3,stim/53.jpeg,HouseObjects,2,stim/objects/HouseObjects/scale2.png,0.9,2,0.2,0.15,right,43,2020-12-09_09h07.52.477,premup-three_ses-01_part-01_label-phase1,3.2.4,Win32,60,right,0.610999823,4,0,4,0,1,3,1,0,240,166,1,239,,,,,,,,,,,,,,,,,,
,,1,227,,,,,,,3,5,2,stim/52.jpeg,HouseObjects,2,stim/objects/HouseObjects/saw2.png,0.9,3,-0.2,-0.15,right,43,2020-12-09_09h07.52.477,premup-three_ses-01_part-01_label-phase1,3.2.4,Win32,60,right,1.211000204,4,0,4,0,1,3,1,0,240,173,1,239,,,,,,,,,,,,,,,,,,
,,1,228,,,,,,,3,5,1,stim/51.jpeg,HouseObjects,2,stim/objects/HouseObjects/safetypin2.png,0.9,2,0.2,0.15,right,43,2020-12-09_09h07.52.477,premup-three_ses-01_part-01_label-phase1,3.2.4,Win32,60,right,0.653000116,4,0,4,0,1,3,1,0,240,164,1,239,,,,,,,,,,,,,,,,,,
,,0,229,,,,,,,1,1,3,stim/13.jpeg,Instruments,1,stim/objects/Instruments/record.png,0.5,3,-0.2,-0.15,left,43,2020-12-09_09h07.52.477,premup-three_ses-01_part-01_label-phase1,3.2.4,Win32,60,right,0.528999805,4,0,4,0,1,3,1,0,240,2,1,239,,,,,,,,,,,,,,,,,,
,,1,230,,,,,,,2,4,3,stim/43.jpeg,Instruments,1,stim/objects/Instruments/record2.png,0.7,1,-0.2,0.15,left,43,2020-12-09_09h07.52.477,premup-three_ses-01_part-01_label-phase1,3.2.4,Win32,60,left,0.271000147,4,0,4,0,1,3,1,0,240,142,1,239,,,,,,,,,,,,,,,,,,
,,1,231,,,,,,,3,5,1,stim/51.jpeg,HouseObjects,2,stim/objects/HouseObjects/safetypin2.png,0.9,1,-0.2,0.15,right,43,2020-12-09_09h07.52.477,premup-three_ses-01_part-01_label-phase1,3.2.4,Win32,60,right,0.342000008,4,0,4,0,1,3,1,0,240,176,1,239,,,,,,,,,,,,,,,,,,
,,1,232,,,,,,,2,3,4,stim/34.jpeg,HouseObjects,2,stim/objects/HouseObjects/thread.png,0.7,2,0.2,0.15,right,43,2020-12-09_09h07.52.477,premup-three_ses-01_part-01_label-phase1,3.2.4,Win32,60,right,0.960999966,4,0,4,0,1,3,1,0,240,111,1,239,,,,,,,,,,,,,,,,,,
,,1,233,,,,,,,3,5,2,stim/52.jpeg,HouseObjects,2,stim/objects/HouseObjects/saw2.png,0.9,4,0.2,-0.15,right,43,2020-12-09_09h07.52.477,premup-three_ses-01_part-01_label-phase1,3.2.4,Win32,60,right,0.666999817,4,0,4,0,1,3,1,0,240,169,1,239,,,,,,,,,,,,,,,,,,
,,1,234,,,,,,,2,4,2,stim/42.jpeg,Instruments,1,stim/objects/Instruments/pipepiano2.png,0.7,3,-0.2,-0.15,left,43,2020-12-09_09h07.52.477,premup-three_ses-01_part-01_label-phase1,3.2.4,Win32,60,left,0.731999874,4,0,4,0,1,3,1,0,240,121,1,239,,,,,,,,,,,,,,,,,,
,,1,235,,,,,,,3,6,3,stim/63.jpeg,Instruments,1,stim/objects/Instruments/trumpet2.png,0.9,4,0.2,-0.15,left,43,2020-12-09_09h07.52.477,premup-three_ses-01_part-01_label-phase1,3.2.4,Win32,60,left,0.881000042,4,0,4,0,1,3,1,0,240,202,1,239,,,,,,,,,,,,,,,,,,
,,0,236,,,,,,,2,3,2,stim/32.jpeg,Instruments,1,stim/objects/Instruments/trombone.png,0.3,2,0.2,0.15,left,43,2020-12-09_09h07.52.477,premup-three_ses-01_part-01_label-phase1,3.2.4,Win32,60,right,0.56099987,4,0,4,0,1,3,1,0,240,81,1,239,,,,,,,,,,,,,,,,,,
,,1,237,,,,,,,1,1,2,stim/12.jpeg,Instruments,1,stim/objects/Instruments/pipepiano.png,0.5,1,-0.2,0.15,left,43,2020-12-09_09h07.52.477,premup-three_ses-01_part-01_label-phase1,3.2.4,Win32,60,left,0.25999999,4,0,4,0,1,3,1,0,240,13,1,239,,,,,,,,,,,,,,,,,,
,,1,238,,,,,,,1,1,3,stim/13.jpeg,HouseObjects,2,stim/objects/HouseObjects/rubbergloves.png,0.5,3,-0.2,-0.15,right,43,2020-12-09_09h07.52.477,premup-three_ses-01_part-01_label-phase1,3.2.4,Win32,60,right,0.34499979,4,0,4,0,1,3,1,0,240,30,1,239,,,,,,,,,,,,,,,,,,
,,0,239,,,,,,,1,1,4,stim/14.jpeg,HouseObjects,2,stim/objects/HouseObjects/rug.png,0.5,2,0.2,0.15,right,43,2020-12-09_09h07.52.477,premup-three_ses-01_part-01_label-phase1,3.2.4,Win32,60,left,0.303999901,4,0,4,0,1,3,1,0,240,23,1,239,,,,,,,,,,,,,,,,,,
,,0,240,,,,,,,2,3,4,stim/34.jpeg,Instruments,1,stim/objects/Instruments/tuba.png,0.3,2,0.2,0.15,left,43,2020-12-09_09h07.52.477,premup-three_ses-01_part-01_label-phase1,3.2.4,Win32,60,right,1.184999943,4,0,4,0,1,3,1,0,240,87,1,239,,,,,,,,,,,,,,,,,,
,,,,,,,,,,,2,,stim/21.jpeg,,,,,,,,,43,2020-12-09_09h07.52.477,premup-three_ses-01_part-01_label-phase1,3.2.4,Win32,60,,,4,0,4,0,1,3,,,,,,,1,1,50,13.41599989,,,1,0,6,1,1,5,Household items,45,55,Music items,45,55
,,,,,,,,,,,4,,stim/41.jpeg,,,,,,,,,43,2020-12-09_09h07.52.477,premup-three_ses-01_part-01_label-phase1,3.2.4,Win32,60,,,4,0,4,0,1,3,,,,,,,1,1,0,8.903000116,,,1,0,6,3,1,5,Music items,65,75,Household items,25,35
,,,,,,,,,,,3,,stim/31.jpeg,,,,,,,,,43,2020-12-09_09h07.52.477,premup-three_ses-01_part-01_label-phase1,3.2.4,Win32,60,,,4,0,4,0,1,3,,,,,,,1,1,0,2.224999905,,,1,0,6,2,1,5,Music items,65,75,Household items,25,35
,,,,,,,,,,,6,,stim/61.jpeg,,,,,,,,,43,2020-12-09_09h07.52.477,premup-three_ses-01_part-01_label-phase1,3.2.4,Win32,60,,,4,0,4,0,1,3,,,,,,,1,1,100,2.698999882,,,1,0,6,5,1,5,Music items,5,15,Household items,85,95
,,,,,,,,,,,5,,stim/51.jpeg,,,,,,,,,43,2020-12-09_09h07.52.477,premup-three_ses-01_part-01_label-phase1,3.2.4,Win32,60,,,4,0,4,0,1,3,,,,,,,1,1,0,3.323000193,,,1,0,6,4,1,5,Household items,5,15,Music items,85,95
,,,,,,,,,,,1,,stim/11.jpeg,,,,,,,,,43,2020-12-09_09h07.52.477,premup-three_ses-01_part-01_label-phase1,3.2.4,Win32,60,,,4,0,4,0,1,3,,,,,,,1,1,100,3.162000179,,,1,0,6,0,1,5,Music items,45,55,Household items,45,55
,,,,,,,,,,,,,,,,,,,,,,43,2020-12-09_09h07.52.477,premup-three_ses-01_part-01_label-phase1,3.2.4,Win32,60,,,4,0,4,0,1,3,,,,,,,,,,,,,,,,,,,,,,,,
,,0,1,,,,,,,3,5,1,stim/51.jpeg,HouseObjects,2,stim/objects/HouseObjects/safetypin2.png,0.9,4,0.2,-0.15,right,43,2020-12-09_09h07.52.477,premup-three_ses-01_part-01_label-phase1,3.2.4,Win32,60,,,4,0,4,0,1,3,1,0,240,184,1,239,,,,,,,,,,,,,,,,,,
,,1,2,,,,,,,3,6,4,stim/64.jpeg,Instruments,1,stim/objects/Instruments/tuba2.png,0.9,4,0.2,-0.15,left,43,2020-12-09_09h07.52.477,premup-three_ses-01_part-01_label-phase1,3.2.4,Win32,60,left,0.678999901,4,0,4,0,1,3,1,0,240,207,1,239,,,,,,,,,,,,,,,,,,
,,1,3,,,,,,,3,6,1,stim/61.jpeg,Instruments,1,stim/objects/Instruments/triangle2.png,0.9,2,0.2,0.15,left,43,2020-12-09_09h07.52.477,premup-three_ses-01_part-01_label-phase1,3.2.4,Win32,60,left,0.815000057,4,0,4,0,1,3,1,0,240,216,1,239,,,,,,,,,,,,,,,,,,
,,1,4,,,,,,,1,2,4,stim/24.jpeg,Instruments,1,stim/objects/Instruments/timbal.png,0.5,2,0.2,0.15,left,43,2020-12-09_09h07.52.477,premup-three_ses-01_part-01_label-phase1,3.2.4,Win32,60,left,0.81799984,4,0,4,0,1,3,1,0,240,55,1,239,,,,,,,,,,,,,,,,,,
,,0,5,,,,,,,3,6,2,stim/62.jpeg,Instruments,1,stim/objects/Instruments/trombone2.png,0.9,4,0.2,-0.15,left,43,2020-12-09_09h07.52.477,premup-three_ses-01_part-01_label-phase1,3.2.4,Win32,60,right,0.74000001,4,0,4,0,1,3,1,0,240,209,1,239,,,,,,,,,,,,,,,,,,
,,1,6,,,,,,,3,5,1,stim/51.jpeg,HouseObjects,2,stim/objects/HouseObjects/safetypin2.png,0.9,1,-0.2,0.15,right,43,2020-12-09_09h07.52.477,premup-three_ses-01_part-01_label-phase1,3.2.4,Win32,60,right,0.705000162,4,0,4,0,1,3,1,0,240,192,1,239,,,,,,,,,,,,,,,,,,
,,1,7,,,,,,,3,5,4,stim/54.jpeg,HouseObjects,2,stim/objects/HouseObjects/sponge2.png,0.9,2,0.2,0.15,right,43,2020-12-09_09h07.52.477,premup-three_ses-01_part-01_label-phase1,3.2.4,Win32,60,right,0.648000002,4,0,4,0,1,3,1,0,240,191,1,239,,,,,,,,,,,,,,,,,,
,,1,8,,,,,,,3,5,4,stim/54.jpeg,HouseObjects,2,stim/objects/HouseObjects/sponge2.png,0.9,4,0.2,-0.15,right,43,2020-12-09_09h07.52.477,premup-three_ses-01_part-01_label-phase1,3.2.4,Win32,60,right,0.654000044,4,0,4,0,1,3,1,0,240,171,1,239,,,,,,,,,,,,,,,,,,
,,1,9,,,,,,,3,6,4,stim/64.jpeg,Instruments,1,stim/objects/Instruments/tuba2.png,0.9,3,-0.2,-0.15,left,43,2020-12-09_09h07.52.477,premup-three_ses-01_part-01_label-phase1,3.2.4,Win32,60,left,0.523999929,4,0,4,0,1,3,1,0,240,231,1,239,,,,,,,,,,,,,,,,,,
,,0,10,,,,,,,3,6,3,stim/63.jpeg,Instruments,1,stim/objects/Instruments/trumpet2.png,0.9,3,-0.2,-0.15,left,43,2020-12-09_09h07.52.477,premup-three_ses-01_part-01_label-phase1,3.2.4,Win32,60,right,0.532000065,4,0,4,0,1,3,1,0,240,206,1,239,,,,,,,,,,,,,,,,,,
,,1,11,,,,,,,2,3,1,stim/31.jpeg,HouseObjects,2,stim/objects/HouseObjects/spraybottle.png,0.7,2,0.2,0.15,right,43,2020-12-09_09h07.52.477,premup-three_ses-01_part-01_label-phase1,3.2.4,Win32,60,right,0.664999962,4,0,4,0,1,3,1,0,240,108,1,239,,,,,,,,,,,,,,,,,,
,,0,12,,,,,,,3,5,2,stim/52.jpeg,HouseObjects,2,stim/objects/HouseObjects/saw2.png,0.9,3,-0.2,-0.15,right,43,2020-12-09_09h07.52.477,premup-three_ses-01_part-01_label-phase1,3.2.4,Win32,60,left,0.645999908,4,0,4,0,1,3,1,0,240,173,1,239,,,,,,,,,,,,,,,,,,
,,1,13,,,,,,,1,2,2,stim/22.jpeg,Instruments,1,stim/objects/Instruments/speaker.png,0.5,4,0.2,-0.15,left,43,2020-12-09_09h07.52.477,premup-three_ses-01_part-01_label-phase1,3.2.4,Win32,60,left,1.029999971,4,0,4,0,1,3,1,0,240,41,1,239,,,,,,,,,,,,,,,,,,
,,1,14,,,,,,,3,5,1,stim/51.jpeg,HouseObjects,2,stim/objects/HouseObjects/safetypin2.png,0.9,2,0.2,0.15,right,43,2020-12-09_09h07.52.477,premup-three_ses-01_part-01_label-phase1,3.2.4,Win32,60,right,0.812999964,4,0,4,0,1,3,1,0,240,164,1,239,,,,,,,,,,,,,,,,,,
,,0,15,,,,,,,2,3,1,stim/31.jpeg,HouseObjects,2,stim/objects/HouseObjects/spraybottle.png,0.7,3,-0.2,-0.15,right,43,2020-12-09_09h07.52.477,premup-three_ses-01_part-01_label-phase1,3.2.4,Win32,60,left,0.789999962,4,0,4,0,1,3,1,0,240,92,1,239,,,,,,,,,,,,,,,,,,
,,1,16,,,,,,,3,5,2,stim/52.jpeg,HouseObjects,2,stim/objects/HouseObjects/saw2.png,0.9,3,-0.2,-0.15,right,43,2020-12-09_09h07.52.477,premup-three_ses-01_part-01_label-phase1,3.2.4,Win32,60,right,0.598999977,4,0,4,0,1,3,1,0,240,189,1,239,,,,,,,,,,,,,,,,,,
,,0,17,,,,,,,1,2,4,stim/24.jpeg,HouseObjects,2,stim/objects/HouseObjects/sponge.png,0.5,1,-0.2,0.15,right,43,2020-12-09_09h07.52.477,premup-three_ses-01_part-01_label-phase1,3.2.4,Win32,60,left,0.713000059,4,0,4,0,1,3,1,0,240,75,1,239,,,,,,,,,,,,,,,,,,
,,0,18,,,,,,,2,4,1,stim/41.jpeg,Instruments,1,stim/objects/Instruments/panflute2.png,0.7,1,-0.2,0.15,left,43,2020-12-09_09h07.52.477,premup-three_ses-01_part-01_label-phase1,3.2.4,Win32,60,right,0.796000004,4,0,4,0,1,3,1,0,240,144,1,239,,,,,,,,,,,,,,,,,,
,,0,19,,,,,,,2,3,2,stim/32.jpeg,Instruments,1,stim/objects/Instruments/trombone.png,0.3,2,0.2,0.15,left,43,2020-12-09_09h07.52.477,premup-three_ses-01_part-01_label-phase1,3.2.4,Win32,60,right,0.553999901,4,0,4,0,1,3,1,0,240,81,1,239,,,,,,,,,,,,,,,,,,
,,0,20,,,,,,,1,1,4,stim/14.jpeg,HouseObjects,2,stim/objects/HouseObjects/rug.png,0.5,3,-0.2,-0.15,right,43,2020-12-09_09h07.52.477,premup-three_ses-01_part-01_label-phase1,3.2.4,Win32,60,left,0.711999893,4,0,4,0,1,3,1,0,240,35,1,239,,,,,,,,,,,,,,,,,,
,,1,21,,,,,,,3,5,4,stim/54.jpeg,HouseObjects,2,stim/objects/HouseObjects/sponge2.png,0.9,4,0.2,-0.15,right,43,2020-12-09_09h07.52.477,premup-three_ses-01_part-01_label-phase1,3.2.4,Win32,60,right,0.898000002,4,0,4,0,1,3,1,0,240,199,1,239,,,,,,,,,,,,,,,,,,
,,0,22,,,,,,,3,6,4,stim/64.jpeg,HouseObjects,2,stim/objects/HouseObjects/thread2.png,0.1,4,0.2,-0.15,right,43,2020-12-09_09h07.52.477,premup-three_ses-01_part-01_label-phase1,3.2.4,Win32,60,left,0.578999996,4,0,4,0,1,3,1,0,240,239,1,239,,,,,,,,,,,,,,,,,,
,,1,23,,,,,,,2,4,3,stim/43.jpeg,HouseObjects,2,stim/objects/HouseObjects/rubbergloves2.png,0.3,3,-0.2,-0.15,right,43,2020-12-09_09h07.52.477,premup-three_ses-01_part-01_label-phase1,3.2.4,Win32,60,right,0.602999926,4,0,4,0,1,3,1,0,240,150,1,239,,,,,,,,,,,,,,,,,,
,,1,24,,,,,,,2,4,4,stim/44.jpeg,Instruments,1,stim/objects/Instruments/record_player2.png,0.7,4,0.2,-0.15,left,43,2020-12-09_09h07.52.477,premup-three_ses-01_part-01_label-phase1,3.2.4,Win32,60,left,0.54399991,4,0,4,0,1,3,1,0,240,135,1,239,,,,,,,,,,,,,,,,,,
,,0,25,,,,,,,1,1,3,stim/13.jpeg,Instruments,1,stim/objects/Instruments/record.png,0.5,1,-0.2,0.15,left,43,2020-12-09_09h07.52.477,premup-three_ses-01_part-01_label-phase1,3.2.4,Win32,60,right,0.914999962,4,0,4,0,1,3,1,0,240,18,1,239,,,,,,,,,,,,,,,,,,
,,1,26,,,,,,,3,5,2,stim/52.jpeg,Instruments,1,stim/objects/Instruments/speaker2.png,0.1,3,-0.2,-0.15,left,43,2020-12-09_09h07.52.477,premup-three_ses-01_part-01_label-phase1,3.2.4,Win32,60,left,0.412000179,4,0,4,0,1,3,1,0,240,161,1,239,,,,,,,,,,,,,,,,,,
,,0,27,,,,,,,2,4,4,stim/44.jpeg,HouseObjects,2,stim/objects/HouseObjects/rug2.png,0.3,4,0.2,-0.15,right,43,2020-12-09_09h07.52.477,premup-three_ses-01_part-01_label-phase1,3.2.4,Win32,60,left,0.812999964,4,0,4,0,1,3,1,0,240,151,1,239,,,,,,,,,,,,,,,,,,
,,1,28,,,,,,,2,4,2,stim/42.jpeg,HouseObjects,2,stim/objects/HouseObjects/remote2.png,0.3,2,0.2,0.15,right,43,2020-12-09_09h07.52.477,premup-three_ses-01_part-01_label-phase1,3.2.4,Win32,60,right,0.593999863,4,0,4,0,1,3,1,0,240,157,1,239,,,,,,,,,,,,,,,,,,
,,1,29,,,,,,,3,6,3,stim/63.jpeg,Instruments,1,stim/objects/Instruments/trumpet2.png,0.9,3,-0.2,-0.15,left,43,2020-12-09_09h07.52.477,premup-three_ses-01_part-01_label-phase1,3.2.4,Win32,60,left,0.51699996,4,0,4,0,1,3,1,0,240,218,1,239,,,,,,,,,,,,,,,,,,
,,1,30,,,,,,,2,4,3,stim/43.jpeg,Instruments,1,stim/objects/Instruments/record2.png,0.7,2,0.2,0.15,left,43,2020-12-09_09h07.52.477,premup-three_ses-01_part-01_label-phase1,3.2.4,Win32,60,left,0.619000196,4,0,4,0,1,3,1,0,240,138,1,239,,,,,,,,,,,,,,,,,,
,,0,31,,,,,,,2,4,3,stim/43.jpeg,Instruments,1,stim/objects/Instruments/record2.png,0.7,3,-0.2,-0.15,left,43,2020-12-09_09h07.52.477,premup-three_ses-01_part-01_label-phase1,3.2.4,Win32,60,right,0.913000107,4,0,4,0,1,3,1,0,240,122,1,239,,,,,,,,,,,,,,,,,,
,,1,32,,,,,,,3,5,1,stim/51.jpeg,HouseObjects,2,stim/objects/HouseObjects/safetypin2.png,0.9,1,-0.2,0.15,right,43,2020-12-09_09h07.52.477,premup-three_ses-01_part-01_label-phase1,3.2.4,Win32,60,right,0.881000042,4,0,4,0,1,3,1,0,240,176,1,239,,,,,,,,,,,,,,,,,,
,,1,33,,,,,,,1,2,3,stim/23.jpeg,Instruments,1,stim/objects/Instruments/tambourine.png,0.5,4,0.2,-0.15,left,43,2020-12-09_09h07.52.477,premup-three_ses-01_part-01_label-phase1,3.2.4,Win32,60,left,0.59800005,4,0,4,0,1,3,1,0,240,54,1,239,,,,,,,,,,,,,,,,,,
,,1,34,,,,,,,1,2,1,stim/21.jpeg,Instruments,1,stim/objects/Instruments/saxophone.png,0.5,4,0.2,-0.15,left,43,2020-12-09_09h07.52.477,premup-three_ses-01_part-01_label-phase1,3.2.4,Win32,60,left,0.829000235,4,0,4,0,1,3,1,0,240,56,1,239,,,,,,,,,,,,,,,,,,
,,1,35,,,,,,,3,6,2,stim/62.jpeg,Instruments,1,stim/objects/Instruments/trombone2.png,0.9,1,-0.2,0.15,left,43,2020-12-09_09h07.52.477,premup-three_ses-01_part-01_label-phase1,3.2.4,Win32,60,left,0.825000048,4,0,4,0,1,3,1,0,240,205,1,239,,,,,,,,,,,,,,,,,,
,,1,36,,,,,,,2,4,1,stim/41.jpeg,Instruments,1,stim/objects/Instruments/panflute2.png,0.7,3,-0.2,-0.15,left,43,2020-12-09_09h07.52.477,premup-three_ses-01_part-01_label-phase1,3.2.4,Win32,60,left,1.18599987,4,0,4,0,1,3,1,0,240,136,1,239,,,,,,,,,,,,,,,,,,
,,0,37,,,,,,,3,5,2,stim/52.jpeg,HouseObjects,2,stim/objects/HouseObjects/saw2.png,0.9,2,0.2,0.15,right,43,2020-12-09_09h07.52.477,premup-three_ses-01_part-01_label-phase1,3.2.4,Win32,60,left,1.703999996,4,0,4,0,1,3,1,0,240,185,1,239,,,,,,,,,,,,,,,,,,
,,1,38,,,,,,,3,5,2,stim/52.jpeg,HouseObjects,2,stim/objects/HouseObjects/saw2.png,0.9,4,0.2,-0.15,right,43,2020-12-09_09h07.52.477,premup-three_ses-01_part-01_label-phase1,3.2.4,Win32,60,right,0.443000078,4,0,4,0,1,3,1,0,240,181,1,239,,,,,,,,,,,,,,,,,,
,,0,39,,,,,,,1,1,3,stim/13.jpeg,HouseObjects,2,stim/objects/HouseObjects/rubbergloves.png,0.5,3,-0.2,-0.15,right,43,2020-12-09_09h07.52.477,premup-three_ses-01_part-01_label-phase1,3.2.4,Win32,60,left,0.830000162,4,0,4,0,1,3,1,0,240,30,1,239,,,,,,,,,,,,,,,,,,
,,1,40,,,,,,,3,6,4,stim/64.jpeg,Instruments,1,stim/objects/Instruments/tuba2.png,0.9,2,0.2,0.15,left,43,2020-12-09_09h07.52.477,premup-three_ses-01_part-01_label-phase1,3.2.4,Win32,60,left,0.565999985,4,0,4,0,1,3,1,0,240,223,1,239,,,,,,,,,,,,,,,,,,
,,0,41,,,,,,,2,3,3,stim/33.jpeg,HouseObjects,2,stim/objects/HouseObjects/thermometer.png,0.7,2,0.2,0.15,right,43,2020-12-09_09h07.52.477,premup-three_ses-01_part-01_label-phase1,3.2.4,Win32,60,left,0.580999851,4,0,4,0,1,3,1,0,240,94,1,239,,,,,,,,,,,,,,,,,,
,,1,42,,,,,,,2,4,4,stim/44.jpeg,HouseObjects,2,stim/objects/HouseObjects/rug2.png,0.3,2,0.2,0.15,right,43,2020-12-09_09h07.52.477,premup-three_ses-01_part-01_label-phase1,3.2.4,Win32,60,right,0.258000135,4,0,4,0,1,3,1,0,240,155,1,239,,,,,,,,,,,,,,,,,,
,,1,43,,,,,,,2,3,1,stim/31.jpeg,HouseObjects,2,stim/objects/HouseObjects/spraybottle.png,0.7,1,-0.2,0.15,right,43,2020-12-09_09h07.52.477,premup-three_ses-01_part-01_label-phase1,3.2.4,Win32,60,right,0.587999821,4,0,4,0,1,3,1,0,240,104,1,239,,,,,,,,,,,,,,,,,,
,,1,44,,,,,,,3,6,4,stim/64.jpeg,Instruments,1,stim/objects/Instruments/tuba2.png,0.9,3,-0.2,-0.15,left,43,2020-12-09_09h07.52.477,premup-three_ses-01_part-01_label-phase1,3.2.4,Win32,60,left,0.542999983,4,0,4,0,1,3,1,0,240,227,1,239,,,,,,,,,,,,,,,,,,
,,1,45,,,,,,,1,1,2,stim/12.jpeg,HouseObjects,2,stim/objects/HouseObjects/remote.png,0.5,3,-0.2,-0.15,right,43,2020-12-09_09h07.52.477,premup-three_ses-01_part-01_label-phase1,3.2.4,Win32,60,right,0.798000097,4,0,4,0,1,3,1,0,240,37,1,239,,,,,,,,,,,,,,,,,,
,,1,46,,,,,,,3,6,3,stim/63.jpeg,Instruments,1,stim/objects/Instruments/trumpet2.png,0.9,3,-0.2,-0.15,left,43,2020-12-09_09h07.52.477,premup-three_ses-01_part-01_label-phase1,3.2.4,Win32,60,left,0.343000174,4,0,4,0,1,3,1,0,240,230,1,239,,,,,,,,,,,,,,,,,,
,,1,47,,,,,,,2,3,4,stim/34.jpeg,HouseObjects,2,stim/objects/HouseObjects/thread.png,0.7,3,-0.2,-0.15,right,43,2020-12-09_09h07.52.477,premup-three_ses-01_part-01_label-phase1,3.2.4,Win32,60,right,0.653000116,4,0,4,0,1,3,1,0,240,103,1,239,,,,,,,,,,,,,,,,,,
,,0,48,,,,,,,1,1,1,stim/11.jpeg,Instruments,1,stim/objects/Instruments/panflute.png,0.5,1,-0.2,0.15,left,43,2020-12-09_09h07.52.477,premup-three_ses-01_part-01_label-phase1,3.2.4,Win32,60,right,0.588999987,4,0,4,0,1,3,1,0,240,12,1,239,,,,,,,,,,,,,,,,,,
,,0,49,,,,,,,1,1,4,stim/14.jpeg,HouseObjects,2,stim/objects/HouseObjects/rug.png,0.5,1,-0.2,0.15,right,43,2020-12-09_09h07.52.477,premup-three_ses-01_part-01_label-phase1,3.2.4,Win32,60,left,0.463000059,4,0,4,0,1,3,1,0,240,39,1,239,,,,,,,,,,,,,,,,,,
,,1,50,,,,,,,1,2,2,stim/22.jpeg,Instruments,1,stim/objects/Instruments/speaker.png,0.5,1,-0.2,0.15,left,43,2020-12-09_09h07.52.477,premup-three_ses-01_part-01_label-phase1,3.2.4,Win32,60,left,0.589999914,4,0,4,0,1,3,1,0,240,45,1,239,,,,,,,,,,,,,,,,,,
,,1,51,,,,,,,3,6,2,stim/62.jpeg,Instruments,1,stim/objects/Instruments/trombone2.png,0.9,4,0.2,-0.15,left,43,2020-12-09_09h07.52.477,premup-three_ses-01_part-01_label-phase1,3.2.4,Win32,60,left,0.796000004,4,0,4,0,1,3,1,0,240,229,1,239,,,,,,,,,,,,,,,,,,
,,1,52,,,,,,,2,3,1,stim/31.jpeg,Instruments,1,stim/objects/Instruments/triangle.png,0.3,2,0.2,0.15,left,43,2020-12-09_09h07.52.477,premup-three_ses-01_part-01_label-phase1,3.2.4,Win32,60,left,0.501000166,4,0,4,0,1,3,1,0,240,80,1,239,,,,,,,,,,,,,,,,,,
,,0,53,,,,,,,3,5,4,stim/54.jpeg,HouseObjects,2,stim/objects/HouseObjects/sponge2.png,0.9,1,-0.2,0.15,right,43,2020-12-09_09h07.52.477,premup-three_ses-01_part-01_label-phase1,3.2.4,Win32,60,left,0.635999918,4,0,4,0,1,3,1,0,240,187,1,239,,,,,,,,,,,,,,,,,,
,,1,54,,,,,,,2,3,2,stim/32.jpeg,HouseObjects,2,stim/objects/HouseObjects/teapot.png,0.7,3,-0.2,-0.15,right,43,2020-12-09_09h07.52.477,premup-three_ses-01_part-01_label-phase1,3.2.4,Win32,60,right,0.730999947,4,0,4,0,1,3,1,0,240,113,1,239,,,,,,,,,,,,,,,,,,
,,0,55,,,,,,,2,3,3,stim/33.jpeg,Instruments,1,stim/objects/Instruments/trumpet.png,0.3,4,0.2,-0.15,left,43,2020-12-09_09h07.52.477,premup-three_ses-01_part-01_label-phase1,3.2.4,Win32,60,right,0.588000059,4,0,4,0,1,3,1,0,240,90,1,239,,,,,,,,,,,,,,,,,,
,,1,56,,,,,,,1,1,3,stim/13.jpeg,Instruments,1,stim/objects/Instruments/record.png,0.5,2,0.2,0.15,left,43,2020-12-09_09h07.52.477,premup-three_ses-01_part-01_label-phase1,3.2.4,Win32,60,left,0.294000149,4,0,4,0,1,3,1,0,240,6,1,239,,,,,,,,,,,,,,,,,,
,,0,57,,,,,,,2,4,1,stim/41.jpeg,HouseObjects,2,stim/objects/HouseObjects/recyclingbin2.png,0.3,4,0.2,-0.15,right,43,2020-12-09_09h07.52.477,premup-three_ses-01_part-01_label-phase1,3.2.4,Win32,60,left,1.072000027,4,0,4,0,1,3,1,0,240,156,1,239,,,,,,,,,,,,,,,,,,
,,1,58,,,,,,,2,3,4,stim/34.jpeg,HouseObjects,2,stim/objects/HouseObjects/thread.png,0.7,4,0.2,-0.15,right,43,2020-12-09_09h07.52.477,premup-three_ses-01_part-01_label-phase1,3.2.4,Win32,60,right,0.610000134,4,0,4,0,1,3,1,0,240,95,1,239,,,,,,,,,,,,,,,,,,
,,1,59,,,,,,,2,4,3,stim/43.jpeg,Instruments,1,stim/objects/Instruments/record2.png,0.7,1,-0.2,0.15,left,43,2020-12-09_09h07.52.477,premup-three_ses-01_part-01_label-phase1,3.2.4,Win32,60,left,0.417999983,4,0,4,0,1,3,1,0,240,134,1,239,,,,,,,,,,,,,,,,,,
,,0,60,,,,,,,1,1,2,stim/12.jpeg,HouseObjects,2,stim/objects/HouseObjects/remote.png,0.5,1,-0.2,0.15,right,43,2020-12-09_09h07.52.477,premup-three_ses-01_part-01_label-phase1,3.2.4,Win32,60,left,0.994999886,4,0,4,0,1,3,1,0,240,29,1,239,,,,,,,,,,,,,,,,,,
,,1,61,,,,,,,3,6,1,stim/61.jpeg,Instruments,1,stim/objects/Instruments/triangle2.png,0.9,2,0.2,0.15,left,43,2020-12-09_09h07.52.477,premup-three_ses-01_part-01_label-phase1,3.2.4,Win32,60,left,0.670000076,4,0,4,0,1,3,1,0,240,208,1,239,,,,,,,,,,,,,,,,,,
,,0,62,,,,,,,2,4,2,stim/42.jpeg,Instruments,1,stim/objects/Instruments/pipepiano2.png,0.7,1,-0.2,0.15,left,43,2020-12-09_09h07.52.477,premup-three_ses-01_part-01_label-phase1,3.2.4,Win32,60,right,0.996999979,4,0,4,0,1,3,1,0,240,133,1,239,,,,,,,,,,,,,,,,,,
,,1,63,,,,,,,2,3,1,stim/31.jpeg,HouseObjects,2,stim/objects/HouseObjects/spraybottle.png,0.7,2,0.2,0.15,right,43,2020-12-09_09h07.52.477,premup-three_ses-01_part-01_label-phase1,3.2.4,Win32,60,right,1.0400002,4,0,4,0,1,3,1,0,240,112,1,239,,,,,,,,,,,,,,,,,,
,,1,64,,,,,,,3,5,1,stim/51.jpeg,HouseObjects,2,stim/objects/HouseObjects/safetypin2.png,0.9,3,-0.2,-0.15,right,43,2020-12-09_09h07.52.477,premup-three_ses-01_part-01_label-phase1,3.2.4,Win32,60,right,0.710999966,4,0,4,0,1,3,1,0,240,172,1,239,,,,,,,,,,,,,,,,,,
,,1,65,,,,,,,3,6,1,stim/61.jpeg,Instruments,1,stim/objects/Instruments/triangle2.png,0.9,3,-0.2,-0.15,left,43,2020-12-09_09h07.52.477,premup-three_ses-01_part-01_label-phase1,3.2.4,Win32,60,left,0.75,4,0,4,0,1,3,1,0,240,204,1,239,,,,,,,,,,,,,,,,,,
,,1,66,,,,,,,2,4,2,stim/42.jpeg,Instruments,1,stim/objects/Instruments/pipepiano2.png,0.7,3,-0.2,-0.15,left,43,2020-12-09_09h07.52.477,premup-three_ses-01_part-01_label-phase1,3.2.4,Win32,60,left,0.782000065,4,0,4,0,1,3,1,0,240,121,1,239,,,,,,,,,,,,,,,,,,
,,1,67,,,,,,,3,5,3,stim/53.jpeg,HouseObjects,2,stim/objects/HouseObjects/scale2.png,0.9,2,0.2,0.15,right,43,2020-12-09_09h07.52.477,premup-three_ses-01_part-01_label-phase1,3.2.4,Win32,60,right,0.769000053,4,0,4,0,1,3,1,0,240,166,1,239,,,,,,,,,,,,,,,,,,
,,1,68,,,,,,,2,3,2,stim/32.jpeg,Instruments,1,stim/objects/Instruments/trombone.png,0.3,3,-0.2,-0.15,left,43,2020-12-09_09h07.52.477,premup-three_ses-01_part-01_label-phase1,3.2.4,Win32,60,left,0.697000027,4,0,4,0,1,3,1,0,240,89,1,239,,,,,,,,,,,,,,,,,,
,,0,69,,,,,,,3,5,4,stim/54.jpeg,HouseObjects,2,stim/objects/HouseObjects/sponge2.png,0.9,2,0.2,0.15,right,43,2020-12-09_09h07.52.477,premup-three_ses-01_part-01_label-phase1,3.2.4,Win32,60,left,0.762000084,4,0,4,0,1,3,1,0,240,195,1,239,,,,,,,,,,,,,,,,,,
,,0,70,,,,,,,1,1,4,stim/14.jpeg,Instruments,1,stim/objects/Instruments/record_player.png,0.5,1,-0.2,0.15,left,43,2020-12-09_09h07.52.477,premup-three_ses-01_part-01_label-phase1,3.2.4,Win32,60,right,0.203999996,4,0,4,0,1,3,1,0,240,19,1,239,,,,,,,,,,,,,,,,,,
,,1,71,,,,,,,3,6,3,stim/63.jpeg,Instruments,1,stim/objects/Instruments/trumpet2.png,0.9,4,0.2,-0.15,left,43,2020-12-09_09h07.52.477,premup-three_ses-01_part-01_label-phase1,3.2.4,Win32,60,left,0.279999971,4,0,4,0,1,3,1,0,240,202,1,239,,,,,,,,,,,,,,,,,,
,,1,72,,,,,,,2,4,4,stim/44.jpeg,Instruments,1,stim/objects/Instruments/record_player2.png,0.7,1,-0.2,0.15,left,43,2020-12-09_09h07.52.477,premup-three_ses-01_part-01_label-phase1,3.2.4,Win32,60,left,0.696000099,4,0,4,0,1,3,1,0,240,127,1,239,,,,,,,,,,,,,,,,,,
,,0,73,,,,,,,1,1,1,stim/11.jpeg,HouseObjects,2,stim/objects/HouseObjects/recyclingbin.png,0.5,1,-0.2,0.15,right,43,2020-12-09_09h07.52.477,premup-three_ses-01_part-01_label-phase1,3.2.4,Win32,60,left,0.694000006,4,0,4,0,1,3,1,0,240,32,1,239,,,,,,,,,,,,,,,,,,
,,0,74,,,,,,,1,2,4,stim/24.jpeg,HouseObjects,2,stim/objects/HouseObjects/sponge.png,0.5,2,0.2,0.15,right,43,2020-12-09_09h07.52.477,premup-three_ses-01_part-01_label-phase1,3.2.4,Win32,60,left,0.712000132,4,0,4,0,1,3,1,0,240,79,1,239,,,,,,,,,,,,,,,,,,
,,0,75,,,,,,,2,4,1,stim/41.jpeg,HouseObjects,2,stim/objects/HouseObjects/recyclingbin2.png,0.3,3,-0.2,-0.15,right,43,2020-12-09_09h07.52.477,premup-three_ses-01_part-01_label-phase1,3.2.4,Win32,60,left,1.170000076,4,0,4,0,1,3,1,0,240,152,1,239,,,,,,,,,,,,,,,,,,
,,1,76,,,,,,,3,5,4,stim/54.jpeg,HouseObjects,2,stim/objects/HouseObjects/sponge2.png,0.9,3,-0.2,-0.15,right,43,2020-12-09_09h07.52.477,premup-three_ses-01_part-01_label-phase1,3.2.4,Win32,60,right,0.996999979,4,0,4,0,1,3,1,0,240,175,1,239,,,,,,,,,,,,,,,,,,
,,1,77,,,,,,,3,5,3,stim/53.jpeg,HouseObjects,2,stim/objects/HouseObjects/scale2.png,0.9,1,-0.2,0.15,right,43,2020-12-09_09h07.52.477,premup-three_ses-01_part-01_label-phase1,3.2.4,Win32,60,right,0.75999999,4,0,4,0,1,3,1,0,240,198,1,239,,,,,,,,,,,,,,,,,,
,,1,78,,,,,,,3,5,2,stim/52.jpeg,HouseObjects,2,stim/objects/HouseObjects/saw2.png,0.9,2,0.2,0.15,right,43,2020-12-09_09h07.52.477,premup-three_ses-01_part-01_label-phase1,3.2.4,Win32,60,right,0.644000053,4,0,4,0,1,3,1,0,240,165,1,239,,,,,,,,,,,,,,,,,,
,,1,79,,,,,,,3,6,1,stim/61.jpeg,Instruments,1,stim/objects/Instruments/triangle2.png,0.9,4,0.2,-0.15,left,43,2020-12-09_09h07.52.477,premup-three_ses-01_part-01_label-phase1,3.2.4,Win32,60,left,0.593999863,4,0,4,0,1,3,1,0,240,220,1,239,,,,,,,,,,,,,,,,,,
,,0,80,,,,,,,1,1,3,stim/13.jpeg,HouseObjects,2,stim/objects/HouseObjects/rubbergloves.png,0.5,2,0.2,0.15,right,43,2020-12-09_09h07.52.477,premup-three_ses-01_part-01_label-phase1,3.2.4,Win32,60,left,1.261999846,4,0,4,0,1,3,1,0,240,38,1,239,,,,,,,,,,,,,,,,,,
,,1,81,,,,,,,1,1,1,stim/11.jpeg,HouseObjects,2,stim/objects/HouseObjects/recyclingbin.png,0.5,2,0.2,0.15,right,43,2020-12-09_09h07.52.477,premup-three_ses-01_part-01_label-phase1,3.2.4,Win32,60,right,0.580000162,4,0,4,0,1,3,1,0,240,36,1,239,,,,,,,,,,,,,,,,,,
,,1,82,,,,,,,2,4,2,stim/42.jpeg,Instruments,1,stim/objects/Instruments/pipepiano2.png,0.7,3,-0.2,-0.15,left,43,2020-12-09_09h07.52.477,premup-three_ses-01_part-01_label-phase1,3.2.4,Win32,60,left,0.825000048,4,0,4,0,1,3,1,0,240,141,1,239,,,,,,,,,,,,,,,,,,
,,0,83,,,,,,,1,2,3,stim/23.jpeg,HouseObjects,2,stim/objects/HouseObjects/scale.png,0.5,2,0.2,0.15,right,43,2020-12-09_09h07.52.477,premup-three_ses-01_part-01_label-phase1,3.2.4,Win32,60,left,0.625,4,0,4,0,1,3,1,0,240,74,1,239,,,,,,,,,,,,,,,,,,
,,1,84,,,,,,,2,3,3,stim/33.jpeg,HouseObjects,2,stim/objects/HouseObjects/thermometer.png,0.7,2,0.2,0.15,right,43,2020-12-09_09h07.52.477,premup-three_ses-01_part-01_label-phase1,3.2.4,Win32,60,right,0.648000002,4,0,4,0,1,3,1,0,240,110,1,239,,,,,,,,,,,,,,,,,,
,,0,85,,,,,,,3,6,2,stim/62.jpeg,HouseObjects,2,stim/objects/HouseObjects/teapot2.png,0.1,1,-0.2,0.15,right,43,2020-12-09_09h07.52.477,premup-three_ses-01_part-01_label-phase1,3.2.4,Win32,60,left,0.525999784,4,0,4,0,1,3,1,0,240,237,1,239,,,,,,,,,,,,,,,,,,
,,1,86,,,,,,,1,1,4,stim/14.jpeg,HouseObjects,2,stim/objects/HouseObjects/rug.png,0.5,1,-0.2,0.15,right,43,2020-12-09_09h07.52.477,premup-three_ses-01_part-01_label-phase1,3.2.4,Win32,60,right,0.881999969,4,0,4,0,1,3,1,0,240,31,1,239,,,,,,,,,,,,,,,,,,
,,0,87,,,,,,,1,2,2,stim/22.jpeg,HouseObjects,2,stim/objects/HouseObjects/saw.png,0.5,1,-0.2,0.15,right,43,2020-12-09_09h07.52.477,premup-three_ses-01_part-01_label-phase1,3.2.4,Win32,60,left,0.620999813,4,0,4,0,1,3,1,0,240,73,1,239,,,,,,,,,,,,,,,,,,
,,1,88,,,,,,,3,5,4,stim/54.jpeg,HouseObjects,2,stim/objects/HouseObjects/sponge2.png,0.9,1,-0.2,0.15,right,43,2020-12-09_09h07.52.477,premup-three_ses-01_part-01_label-phase1,3.2.4,Win32,60,right,0.585000038,4,0,4,0,1,3,1,0,240,167,1,239,,,,,,,,,,,,,,,,,,
,,0,89,,,,,,,2,4,1,stim/41.jpeg,Instruments,1,stim/objects/Instruments/panflute2.png,0.7,1,-0.2,0.15,left,43,2020-12-09_09h07.52.477,premup-three_ses-01_part-01_label-phase1,3.2.4,Win32,60,right,0.878999949,4,0,4,0,1,3,1,0,240,132,1,239,,,,,,,,,,,,,,,,,,
,,0,90,,,,,,,1,2,1,stim/21.jpeg,HouseObjects,2,stim/objects/HouseObjects/safetypin.png,0.5,3,-0.2,-0.15,right,43,2020-12-09_09h07.52.477,premup-three_ses-01_part-01_label-phase1,3.2.4,Win32,60,left,0.395999908,4,0,4,0,1,3,1,0,240,68,1,239,,,,,,,,,,,,,,,,,,
,,0,91,,,,,,,2,3,3,stim/33.jpeg,Instruments,1,stim/objects/Instruments/trumpet.png,0.3,3,-0.2,-0.15,left,43,2020-12-09_09h07.52.477,premup-three_ses-01_part-01_label-phase1,3.2.4,Win32,60,right,0.967000008,4,0,4,0,1,3,1,0,240,82,1,239,,,,,,,,,,,,,,,,,,
,,0,92,,,,,,,1,2,1,stim/21.jpeg,HouseObjects,2,stim/objects/HouseObjects/safetypin.png,0.5,3,-0.2,-0.15,right,43,2020-12-09_09h07.52.477,premup-three_ses-01_part-01_label-phase1,3.2.4,Win32,60,left,0.510999918,4,0,4,0,1,3,1,0,240,60,1,239,,,,,,,,,,,,,,,,,,
,,0,93,,,,,,,3,5,3,stim/53.jpeg,HouseObjects,2,stim/objects/HouseObjects/scale2.png,0.9,1,-0.2,0.15,right,43,2020-12-09_09h07.52.477,premup-three_ses-01_part-01_label-phase1,3.2.4,Win32,60,left,0.661999941,4,0,4,0,1,3,1,0,240,194,1,239,,,,,,,,,,,,,,,,,,
,,1,94,,,,,,,2,3,4,stim/34.jpeg,HouseObjects,2,stim/objects/HouseObjects/thread.png,0.7,3,-0.2,-0.15,right,43,2020-12-09_09h07.52.477,premup-three_ses-01_part-01_label-phase1,3.2.4,Win32,60,right,0.869999886,4,0,4,0,1,3,1,0,240,119,1,239,,,,,,,,,,,,,,,,,,
,,1,95,,,,,,,1,2,3,stim/23.jpeg,HouseObjects,2,stim/objects/HouseObjects/scale.png,0.5,1,-0.2,0.15,right,43,2020-12-09_09h07.52.477,premup-three_ses-01_part-01_label-phase1,3.2.4,Win32,60,right,0.654999971,4,0,4,0,1,3,1,0,240,78,1,239,,,,,,,,,,,,,,,,,,
,,1,96,,,,,,,2,4,4,stim/44.jpeg,Instruments,1,stim/objects/Instruments/record_player2.png,0.7,2,0.2,0.15,left,43,2020-12-09_09h07.52.477,premup-three_ses-01_part-01_label-phase1,3.2.4,Win32,60,left,0.657999992,4,0,4,0,1,3,1,0,240,147,1,239,,,,,,,,,,,,,,,,,,
,,1,97,,,,,,,1,1,2,stim/12.jpeg,Instruments,1,stim/objects/Instruments/pipepiano.png,0.5,2,0.2,0.15,left,43,2020-12-09_09h07.52.477,premup-three_ses-01_part-01_label-phase1,3.2.4,Win32,60,left,0.688999891,4,0,4,0,1,3,1,0,240,5,1,239,,,,,,,,,,,,,,,,,,
,,1,98,,,,,,,3,6,1,stim/61.jpeg,Instruments,1,stim/objects/Instruments/triangle2.png,0.9,2,0.2,0.15,left,43,2020-12-09_09h07.52.477,premup-three_ses-01_part-01_label-phase1,3.2.4,Win32,60,left,0.645000219,4,0,4,0,1,3,1,0,240,232,1,239,,,,,,,,,,,,,,,,,,
,,0,99,,,,,,,2,3,2,stim/32.jpeg,HouseObjects,2,stim/objects/HouseObjects/teapot.png,0.7,4,0.2,-0.15,right,43,2020-12-09_09h07.52.477,premup-three_ses-01_part-01_label-phase1,3.2.4,Win32,60,left,0.828000069,4,0,4,0,1,3,1,0,240,105,1,239,,,,,,,,,,,,,,,,,,
,,1,100,,,,,,,3,5,1,stim/51.jpeg,Instruments,1,stim/objects/Instruments/saxophone2.png,0.1,4,0.2,-0.15,left,43,2020-12-09_09h07.52.477,premup-three_ses-01_part-01_label-phase1,3.2.4,Win32,60,left,0.649999857,4,0,4,0,1,3,1,0,240,160,1,239,,,,,,,,,,,,,,,,,,
,,1,101,,,,,,,1,2,1,stim/21.jpeg,Instruments,1,stim/objects/Instruments/saxophone.png,0.5,3,-0.2,-0.15,left,43,2020-12-09_09h07.52.477,premup-three_ses-01_part-01_label-phase1,3.2.4,Win32,60,left,0.595999956,4,0,4,0,1,3,1,0,240,44,1,239,,,,,,,,,,,,,,,,,,
,,1,102,,,,,,,3,6,1,stim/61.jpeg,Instruments,1,stim/objects/Instruments/triangle2.png,0.9,3,-0.2,-0.15,left,43,2020-12-09_09h07.52.477,premup-three_ses-01_part-01_label-phase1,3.2.4,Win32,60,left,0.614000082,4,0,4,0,1,3,1,0,240,212,1,239,,,,,,,,,,,,,,,,,,
,,1,103,,,,,,,3,6,4,stim/64.jpeg,Instruments,1,stim/objects/Instruments/tuba2.png,0.9,3,-0.2,-0.15,left,43,2020-12-09_09h07.52.477,premup-three_ses-01_part-01_label-phase1,3.2.4,Win32,60,left,0.642999887,4,0,4,0,1,3,1,0,240,215,1,239,,,,,,,,,,,,,,,,,,
,,1,104,,,,,,,1,1,1,stim/11.jpeg,Instruments,1,stim/objects/Instruments/panflute.png,0.5,4,0.2,-0.15,left,43,2020-12-09_09h07.52.477,premup-three_ses-01_part-01_label-phase1,3.2.4,Win32,60,left,0.632999897,4,0,4,0,1,3,1,0,240,0,1,239,,,,,,,,,,,,,,,,,,
,,0,105,,,,,,,3,5,2,stim/52.jpeg,HouseObjects,2,stim/objects/HouseObjects/saw2.png,0.9,3,-0.2,-0.15,right,43,2020-12-09_09h07.52.477,premup-three_ses-01_part-01_label-phase1,3.2.4,Win32,60,left,0.713000059,4,0,4,0,1,3,1,0,240,193,1,239,,,,,,,,,,,,,,,,,,
,,1,106,,,,,,,2,4,4,stim/44.jpeg,Instruments,1,stim/objects/Instruments/record_player2.png,0.7,1,-0.2,0.15,left,43,2020-12-09_09h07.52.477,premup-three_ses-01_part-01_label-phase1,3.2.4,Win32,60,left,0.602999926,4,0,4,0,1,3,1,0,240,143,1,239,,,,,,,,,,,,,,,,,,
,,0,107,,,,,,,1,2,1,stim/21.jpeg,HouseObjects,2,stim/objects/HouseObjects/safetypin.png,0.5,4,0.2,-0.15,right,43,2020-12-09_09h07.52.477,premup-three_ses-01_part-01_label-phase1,3.2.4,Win32,60,left,0.562000036,4,0,4,0,1,3,1,0,240,72,1,239,,,,,,,,,,,,,,,,,,
,,0,108,,,,,,,2,4,3,stim/43.jpeg,HouseObjects,2,stim/objects/HouseObjects/rubbergloves2.png,0.3,4,0.2,-0.15,right,43,2020-12-09_09h07.52.477,premup-three_ses-01_part-01_label-phase1,3.2.4,Win32,60,left,0.529000044,4,0,4,0,1,3,1,0,240,154,1,239,,,,,,,,,,,,,,,,,,
,,0,109,,,,,,,1,2,3,stim/23.jpeg,HouseObjects,2,stim/objects/HouseObjects/scale.png,0.5,4,0.2,-0.15,right,43,2020-12-09_09h07.52.477,premup-three_ses-01_part-01_label-phase1,3.2.4,Win32,60,left,0.59499979,4,0,4,0,1,3,1,0,240,66,1,239,,,,,,,,,,,,,,,,,,
,,1,110,,,,,,,3,5,3,stim/53.jpeg,HouseObjects,2,stim/objects/HouseObjects/scale2.png,0.9,2,0.2,0.15,right,43,2020-12-09_09h07.52.477,premup-three_ses-01_part-01_label-phase1,3.2.4,Win32,60,right,0.595000029,4,0,4,0,1,3,1,0,240,186,1,239,,,,,,,,,,,,,,,,,,
,,0,111,,,,,,,2,3,4,stim/34.jpeg,Instruments,1,stim/objects/Instruments/tuba.png,0.3,3,-0.2,-0.15,left,43,2020-12-09_09h07.52.477,premup-three_ses-01_part-01_label-phase1,3.2.4,Win32,60,right,0.775000095,4,0,4,0,1,3,1,0,240,83,1,239,,,,,,,,,,,,,,,,,,
,,0,112,,,,,,,1,1,2,stim/12.jpeg,Instruments,1,stim/objects/Instruments/pipepiano.png,0.5,4,0.2,-0.15,left,43,2020-12-09_09h07.52.477,premup-three_ses-01_part-01_label-phase1,3.2.4,Win32,60,right,1.059999943,4,0,4,0,1,3,1,0,240,1,1,239,,,,,,,,,,,,,,,,,,
,,1,113,,,,,,,1,2,1,stim/21.jpeg,Instruments,1,stim/objects/Instruments/saxophone.png,0.5,2,0.2,0.15,left,43,2020-12-09_09h07.52.477,premup-three_ses-01_part-01_label-phase1,3.2.4,Win32,60,left,0.590000153,4,0,4,0,1,3,1,0,240,40,1,239,,,,,,,,,,,,,,,,,,
,,1,114,,,,,,,1,1,4,stim/14.jpeg,Instruments,1,stim/objects/Instruments/record_player.png,0.5,4,0.2,-0.15,left,43,2020-12-09_09h07.52.477,premup-three_ses-01_part-01_label-phase1,3.2.4,Win32,60,left,0.753999949,4,0,4,0,1,3,1,0,240,7,1,239,,,,,,,,,,,,,,,,,,
,,1,115,,,,,,,3,5,3,stim/53.jpeg,HouseObjects,2,stim/objects/HouseObjects/scale2.png,0.9,1,-0.2,0.15,right,43,2020-12-09_09h07.52.477,premup-three_ses-01_part-01_label-phase1,3.2.4,Win32,60,right,0.618999958,4,0,4,0,1,3,1,0,240,182,1,239,,,,,,,,,,,,,,,,,,
,,0,116,,,,,,,2,3,2,stim/32.jpeg,HouseObjects,2,stim/objects/HouseObjects/teapot.png,0.7,3,-0.2,-0.15,right,43,2020-12-09_09h07.52.477,premup-three_ses-01_part-01_label-phase1,3.2.4,Win32,60,left,0.628999949,4,0,4,0,1,3,1,0,240,101,1,239,,,,,,,,,,,,,,,,,,
,,0,117,,,,,,,1,1,3,stim/13.jpeg,HouseObjects,2,stim/objects/HouseObjects/rubbergloves.png,0.5,4,0.2,-0.15,right,43,2020-12-09_09h07.52.477,premup-three_ses-01_part-01_label-phase1,3.2.4,Win32,60,left,0.677999973,4,0,4,0,1,3,1,0,240,26,1,239,,,,,,,,,,,,,,,,,,
,,1,118,,,,,,,2,4,3,stim/43.jpeg,HouseObjects,2,stim/objects/HouseObjects/rubbergloves2.png,0.3,4,0.2,-0.15,right,43,2020-12-09_09h07.52.477,premup-three_ses-01_part-01_label-phase1,3.2.4,Win32,60,right,0.282999992,4,0,4,0,1,3,1,0,240,158,1,239,,,,,,,,,,,,,,,,,,
,,0,119,,,,,,,1,1,1,stim/11.jpeg,HouseObjects,2,stim/objects/HouseObjects/recyclingbin.png,0.5,2,0.2,0.15,right,43,2020-12-09_09h07.52.477,premup-three_ses-01_part-01_label-phase1,3.2.4,Win32,60,left,0.710000038,4,0,4,0,1,3,1,0,240,28,1,239,,,,,,,,,,,,,,,,,,
,,0,120,,,,,,,2,4,4,stim/44.jpeg,Instruments,1,stim/objects/Instruments/record_player2.png,0.7,1,-0.2,0.15,left,43,2020-12-09_09h07.52.477,premup-three_ses-01_part-01_label-phase1,3.2.4,Win32,60,right,0.480000019,4,0,4,0,1,3,1,0,240,139,1,239,,,,,,,,,,,,,,,,,,
,,0,121,,,,,,,2,3,4,stim/34.jpeg,HouseObjects,2,stim/objects/HouseObjects/thread.png,0.7,2,0.2,0.15,right,43,2020-12-09_09h07.52.477,premup-three_ses-01_part-01_label-phase1,3.2.4,Win32,60,left,0.98300004,4,0,4,0,1,3,1,0,240,107,1,239,,,,,,,,,,,,,,,,,,
,,1,122,,,,,,,2,3,4,stim/34.jpeg,Instruments,1,stim/objects/Instruments/tuba.png,0.3,3,-0.2,-0.15,left,43,2020-12-09_09h07.52.477,premup-three_ses-01_part-01_label-phase1,3.2.4,Win32,60,left,0.578000069,4,0,4,0,1,3,1,0,240,91,1,239,,,,,,,,,,,,,,,,,,
,,1,123,,,,,,,3,6,2,stim/62.jpeg,Instruments,1,stim/objects/Instruments/trombone2.png,0.9,1,-0.2,0.15,left,43,2020-12-09_09h07.52.477,premup-three_ses-01_part-01_label-phase1,3.2.4,Win32,60,left,1.741999865,4,0,4,0,1,3,1,0,240,213,1,239,,,,,,,,,,,,,,,,,,
,,0,124,,,,,,,2,4,2,stim/42.jpeg,Instruments,1,stim/objects/Instruments/pipepiano2.png,0.7,1,-0.2,0.15,left,43,2020-12-09_09h07.52.477,premup-three_ses-01_part-01_label-phase1,3.2.4,Win32,60,right,0.995000124,4,0,4,0,1,3,1,0,240,129,1,239,,,,,,,,,,,,,,,,,,
,,0,125,,,,,,,2,4,1,stim/41.jpeg,HouseObjects,2,stim/objects/HouseObjects/recyclingbin2.png,0.3,4,0.2,-0.15,right,43,2020-12-09_09h07.52.477,premup-three_ses-01_part-01_label-phase1,3.2.4,Win32,60,left,1.21600008,4,0,4,0,1,3,1,0,240,148,1,239,,,,,,,,,,,,,,,,,,
,,1,126,,,,,,,3,6,4,stim/64.jpeg,Instruments,1,stim/objects/Instruments/tuba2.png,0.9,1,-0.2,0.15,left,43,2020-12-09_09h07.52.477,premup-three_ses-01_part-01_label-phase1,3.2.4,Win32,60,left,0.520999908,4,0,4,0,1,3,1,0,240,235,1,239,,,,,,,,,,,,,,,,,,
,,0,127,,,,,,,2,3,4,stim/34.jpeg,Instruments,1,stim/objects/Instruments/tuba.png,0.3,2,0.2,0.15,left,43,2020-12-09_09h07.52.477,premup-three_ses-01_part-01_label-phase1,3.2.4,Win32,60,right,1.00999999,4,0,4,0,1,3,1,0,240,87,1,239,,,,,,,,,,,,,,,,,,
,,0,128,,,,,,,2,3,2,stim/32.jpeg,HouseObjects,2,stim/objects/HouseObjects/teapot.png,0.7,1,-0.2,0.15,right,43,2020-12-09_09h07.52.477,premup-three_ses-01_part-01_label-phase1,3.2.4,Win32,60,left,1.00999999,4,0,4,0,1,3,1,0,240,109,1,239,,,,,,,,,,,,,,,,,,
,,0,129,,,,,,,1,1,2,stim/12.jpeg,HouseObjects,2,stim/objects/HouseObjects/remote.png,0.5,2,0.2,0.15,right,43,2020-12-09_09h07.52.477,premup-three_ses-01_part-01_label-phase1,3.2.4,Win32,60,left,0.713999987,4,0,4,0,1,3,1,0,240,33,1,239,,,,,,,,,,,,,,,,,,
,,0,130,,,,,,,2,3,3,stim/33.jpeg,HouseObjects,2,stim/objects/HouseObjects/thermometer.png,0.7,4,0.2,-0.15,right,43,2020-12-09_09h07.52.477,premup-three_ses-01_part-01_label-phase1,3.2.4,Win32,60,left,0.815000057,4,0,4,0,1,3,1,0,240,118,1,239,,,,,,,,,,,,,,,,,,
,,0,131,,,,,,,1,2,1,stim/21.jpeg,HouseObjects,2,stim/objects/HouseObjects/safetypin.png,0.5,3,-0.2,-0.15,right,43,2020-12-09_09h07.52.477,premup-three_ses-01_part-01_label-phase1,3.2.4,Win32,60,left,0.683999777,4,0,4,0,1,3,1,0,240,76,1,239,,,,,,,,,,,,,,,,,,
,,0,132,,,,,,,1,1,2,stim/12.jpeg,Instruments,1,stim/objects/Instruments/pipepiano.png,0.5,3,-0.2,-0.15,left,43,2020-12-09_09h07.52.477,premup-three_ses-01_part-01_label-phase1,3.2.4,Win32,60,right,0.703999996,4,0,4,0,1,3,1,0,240,9,1,239,,,,,,,,,,,,,,,,,,
,,1,133,,,,,,,2,3,1,stim/31.jpeg,HouseObjects,2,stim/objects/HouseObjects/spraybottle.png,0.7,4,0.2,-0.15,right,43,2020-12-09_09h07.52.477,premup-three_ses-01_part-01_label-phase1,3.2.4,Win32,60,right,1.06099987,4,0,4,0,1,3,1,0,240,100,1,239,,,,,,,,,,,,,,,,,,
,,1,134,,,,,,,3,6,2,stim/62.jpeg,Instruments,1,stim/objects/Instruments/trombone2.png,0.9,4,0.2,-0.15,left,43,2020-12-09_09h07.52.477,premup-three_ses-01_part-01_label-phase1,3.2.4,Win32,60,left,0.630000114,4,0,4,0,1,3,1,0,240,225,1,239,,,,,,,,,,,,,,,,,,
