id_acc,key_resp_id.keys,key_resp_id.rt,key_resp_conf.keys,key_resp_conf.rt,assoc_acc,key_resp_assoc.keys,key_resp_assoc.rt,loc_acc,key_resp_loc.keys,key_resp_loc.rt,task_innerloop.thisRepN,task_innerloop.thisTrialN,task_innerloop.thisN,task_innerloop.thisIndex,task_innerloop.ran,task_innerloop.order,context_type,object_cat,PE_level,OvsN,obj_file,scn_file,corr_scn_cat,assoc_file,corr_scn_inst,corr_loc,participant,date,expName,psychopyVersion,OS,frameRate
1,right,1.465000153,3,2.699999809,0,3,6.726999998,0,3,4.489999771,1,0,200,2,1,199,1,1,0.5,1,stim/objects/HouseObjects/rubbergloves.png,stim/11.jpeg,1,stim/1.png,1,4,45,2021-01-08_11h04.35.192,premup-three_ses-02_part-03_label-phase3,3.2.4,Win32,60
1,right,4.744999886,,,0,,,0,,,1,0,200,143,1,199,0,1,0,2,stim/objects/HouseObjects/rug3.png,,0,stim/0.png,0,0,45,2021-01-08_11h04.35.192,premup-three_ses-02_part-03_label-phase3,3.2.4,Win32,60
1,left,3.585000038,3,4.80099988,0,1,4.686000109,0,4,2.833999872,1,0,200,84,1,199,3,1,0.9,1,stim/objects/HouseObjects/teapot2.png,stim/61.jpeg,6,stim/6.png,1,1,45,2021-01-08_11h04.35.192,premup-three_ses-02_part-03_label-phase3,3.2.4,Win32,60
1,left,1.824999809,2,1.290999889,0,4,4.421000004,0,1,2.398999929,1,0,200,94,1,199,3,2,0.1,1,stim/objects/Instruments/trombone2.png,stim/63.jpeg,6,stim/6.png,3,4,45,2021-01-08_11h04.35.192,premup-three_ses-02_part-03_label-phase3,3.2.4,Win32,60
1,right,3.621999979,,,0,,,0,,,1,0,200,149,1,199,0,1,0,2,stim/objects/HouseObjects/teapot3.png,,0,stim/0.png,0,0,45,2021-01-08_11h04.35.192,premup-three_ses-02_part-03_label-phase3,3.2.4,Win32,60
1,left,1.563999891,4,3.036999941,0,1,3.177999973,0,1,4.771999836,1,0,200,63,1,199,3,1,0.1,1,stim/objects/HouseObjects/pan2.png,stim/54.jpeg,5,stim/5.png,4,3,45,2021-01-08_11h04.35.192,premup-three_ses-02_part-03_label-phase3,3.2.4,Win32,60
1,left,2.677000046,3,1.014999866,0,3,5.355999947,0,3,4.330999851,1,0,200,9,1,199,1,1,0.5,1,stim/objects/Instruments/saxophone.png,stim/12.jpeg,1,stim/1.png,2,3,45,2021-01-08_11h04.35.192,premup-three_ses-02_part-03_label-phase3,3.2.4,Win32,60
1,left,1.458999872,,,0,,,0,,,1,0,200,130,1,199,0,2,0,2,stim/objects/Instruments/harp3.png,,0,stim/0.png,0,0,45,2021-01-08_11h04.35.192,premup-three_ses-02_part-03_label-phase3,3.2.4,Win32,60
1,right,3.267999887,,,0,,,0,,,1,0,200,181,1,199,0,1,0,2,stim/objects/HouseObjects/garbagebin4.png,,0,stim/0.png,0,0,45,2021-01-08_11h04.35.192,premup-three_ses-02_part-03_label-phase3,3.2.4,Win32,60
1,right,1.204999924,,,0,,,0,,,1,0,200,132,1,199,0,2,0,2,stim/objects/Instruments/keyboard3.png,,0,stim/0.png,0,0,45,2021-01-08_11h04.35.192,premup-three_ses-02_part-03_label-phase3,3.2.4,Win32,60
1,right,1.221999884,,,0,,,0,,,1,0,200,147,1,199,0,1,0,2,stim/objects/HouseObjects/sponge3.png,,0,stim/0.png,0,0,45,2021-01-08_11h04.35.192,premup-three_ses-02_part-03_label-phase3,3.2.4,Win32,60
1,left,1.465999842,,,0,,,0,,,1,0,200,133,1,199,0,2,0,2,stim/objects/Instruments/laud3.png,,0,stim/0.png,0,0,45,2021-01-08_11h04.35.192,premup-three_ses-02_part-03_label-phase3,3.2.4,Win32,60
1,left,2.476000071,3,2.531999826,0,2,2.654999733,0,3,3.042999983,1,0,200,22,1,199,2,1,0.3,1,stim/objects/HouseObjects/towel.png,stim/33.jpeg,3,stim/3.png,3,4,45,2021-01-08_11h04.35.192,premup-three_ses-02_part-03_label-phase3,3.2.4,Win32,60
1,right,1.527999878,,,0,,,0,,,1,0,200,106,1,199,0,1,0,2,stim/objects/HouseObjects/garbagebin3.png,,0,stim/0.png,0,0,45,2021-01-08_11h04.35.192,premup-three_ses-02_part-03_label-phase3,3.2.4,Win32,60
1,left,1.106999874,4,1.321999788,0,1,2.875999928,0,3,1.798000097,1,0,200,83,1,199,3,1,0.9,1,stim/objects/HouseObjects/spraybottle2.png,stim/64.jpeg,6,stim/6.png,4,4,45,2021-01-08_11h04.35.192,premup-three_ses-02_part-03_label-phase3,3.2.4,Win32,60
1,left,1.776000023,3,1.054000139,0,3,2.846999884,0,3,3.625,1,0,200,44,1,199,2,1,0.7,1,stim/objects/HouseObjects/hairdryer2.png,stim/44.jpeg,4,stim/4.png,4,3,45,2021-01-08_11h04.35.192,premup-three_ses-02_part-03_label-phase3,3.2.4,Win32,60
1,right,1.154000044,,,0,,,0,,,1,0,200,183,1,199,0,1,0,2,stim/objects/HouseObjects/glassmop4.png,,0,stim/0.png,0,0,45,2021-01-08_11h04.35.192,premup-three_ses-02_part-03_label-phase3,3.2.4,Win32,60
1,right,1.003999949,,,0,,,0,,,1,0,200,174,1,199,0,2,0,2,stim/objects/Instruments/xylophone3.png,,0,stim/0.png,0,0,45,2021-01-08_11h04.35.192,premup-three_ses-02_part-03_label-phase3,3.2.4,Win32,60
1,left,0.847999811,,,0,,,0,,,1,0,200,134,1,199,0,2,0,2,stim/objects/Instruments/maraca3.png,,0,stim/0.png,0,0,45,2021-01-08_11h04.35.192,premup-three_ses-02_part-03_label-phase3,3.2.4,Win32,60
1,left,2.121000051,,,0,,,0,,,1,0,200,179,1,199,0,2,0,2,stim/objects/Instruments/flutetrans4.png,,0,stim/0.png,0,0,45,2021-01-08_11h04.35.192,premup-three_ses-02_part-03_label-phase3,3.2.4,Win32,60
1,left,1.092000008,3,1.118000031,0,1,3.157000065,0,3,4.548000097,1,0,200,52,1,199,2,2,0.3,1,stim/objects/Instruments/grandpiano2.png,stim/44.jpeg,4,stim/4.png,4,4,45,2021-01-08_11h04.35.192,premup-three_ses-02_part-03_label-phase3,3.2.4,Win32,60
1,right,1.806999922,,,0,,,0,,,1,0,200,199,1,199,0,2,0,2,stim/objects/Instruments/maraca4.png,,0,stim/0.png,0,0,45,2021-01-08_11h04.35.192,premup-three_ses-02_part-03_label-phase3,3.2.4,Win32,60
1,left,0.852999926,3,1.080999851,0,3,2.507999897,0,3,1.503999949,1,0,200,27,1,199,2,1,0.3,1,stim/objects/HouseObjects/dishsoap2.png,stim/34.jpeg,3,stim/3.png,4,1,45,2021-01-08_11h04.35.192,premup-three_ses-02_part-03_label-phase3,3.2.4,Win32,60
1,right,1.851999998,,,0,,,0,,,1,0,200,167,1,199,0,1,0,2,stim/objects/HouseObjects/dishsoap4.png,,0,stim/0.png,0,0,45,2021-01-08_11h04.35.192,premup-three_ses-02_part-03_label-phase3,3.2.4,Win32,60
1,left,0.982000113,2,1.747999907,0,3,4.946000099,0,1,2.31099987,1,0,200,39,1,199,2,2,0.7,1,stim/objects/Instruments/flutetrans2.png,stim/33.jpeg,3,stim/3.png,3,1,45,2021-01-08_11h04.35.192,premup-three_ses-02_part-03_label-phase3,3.2.4,Win32,60
1,right,0.960000038,2,5.53399992,0,4,2.044999838,0,1,2.625,1,0,200,24,1,199,2,1,0.3,1,stim/objects/HouseObjects/wateringcan.png,stim/31.jpeg,3,stim/3.png,1,1,45,2021-01-08_11h04.35.192,premup-three_ses-02_part-03_label-phase3,3.2.4,Win32,60
1,left,1.331999779,,,0,,,0,,,1,0,200,165,1,199,0,1,0,2,stim/objects/HouseObjects/coffee4.png,,0,stim/0.png,0,0,45,2021-01-08_11h04.35.192,premup-three_ses-02_part-03_label-phase3,3.2.4,Win32,60
1,right,1.422999859,,,0,,,0,,,1,0,200,184,1,199,0,1,0,2,stim/objects/HouseObjects/hairdryer4.png,,0,stim/0.png,0,0,45,2021-01-08_11h04.35.192,premup-three_ses-02_part-03_label-phase3,3.2.4,Win32,60
1,left,0.967999935,3,0.960999966,0,4,2.835999966,0,1,1.923999786,1,0,200,98,1,199,3,2,0.1,1,stim/objects/Instruments/vuvuzela2.png,stim/63.jpeg,6,stim/6.png,3,2,45,2021-01-08_11h04.35.192,premup-three_ses-02_part-03_label-phase3,3.2.4,Win32,60
1,right,0.893999815,,,0,,,0,,,1,0,200,161,1,199,0,1,0,2,stim/objects/HouseObjects/thread3.png,,0,stim/0.png,0,0,45,2021-01-08_11h04.35.192,premup-three_ses-02_part-03_label-phase3,3.2.4,Win32,60
1,right,0.960000038,,,0,,,0,,,1,0,200,150,1,199,0,2,0,2,stim/objects/Instruments/panflute3.png,,0,stim/0.png,0,0,45,2021-01-08_11h04.35.192,premup-three_ses-02_part-03_label-phase3,3.2.4,Win32,60
1,left,0.968999863,4,0.881999731,0,3,2.998000145,0,3,2.447999954,1,0,200,10,1,199,1,2,0.5,1,stim/objects/HouseObjects/saw.png,stim/21.jpeg,2,stim/2.png,1,1,45,2021-01-08_11h04.35.192,premup-three_ses-02_part-03_label-phase3,3.2.4,Win32,60
1,left,1.092999935,2,1.611000061,0,1,1.780999899,0,3,2.046999931,1,0,200,69,1,199,3,1,0.1,1,stim/objects/HouseObjects/safetypin2.png,stim/52.jpeg,5,stim/5.png,2,4,45,2021-01-08_11h04.35.192,premup-three_ses-02_part-03_label-phase3,3.2.4,Win32,60
1,right,1.171999931,,,0,,,0,,,1,0,200,122,1,199,0,1,0,2,stim/objects/HouseObjects/iron3.png,,0,stim/0.png,0,0,45,2021-01-08_11h04.35.192,premup-three_ses-02_part-03_label-phase3,3.2.4,Win32,60
1,right,0.968999863,,,0,,,0,,,1,0,200,162,1,199,0,1,0,2,stim/objects/HouseObjects/towel3.png,,0,stim/0.png,0,0,45,2021-01-08_11h04.35.192,premup-three_ses-02_part-03_label-phase3,3.2.4,Win32,60
1,right,1.039999962,2,1.26699996,0,3,3.678999901,0,3,1.839999914,1,0,200,37,1,199,2,2,0.7,1,stim/objects/Instruments/electricguitar2.png,stim/31.jpeg,3,stim/3.png,1,1,45,2021-01-08_11h04.35.192,premup-three_ses-02_part-03_label-phase3,3.2.4,Win32,60
1,right,0.853999853,1,2.539000034,0,1,2.339999914,0,3,1.221999884,1,0,200,61,1,199,3,1,0.1,1,stim/objects/HouseObjects/lintroller2.png,stim/52.jpeg,5,stim/5.png,2,3,45,2021-01-08_11h04.35.192,premup-three_ses-02_part-03_label-phase3,3.2.4,Win32,60
1,left,1.102999926,3,1.233999729,0,4,2.823999882,0,2,2.970999956,1,0,200,59,1,199,2,2,0.3,1,stim/objects/Instruments/maraca2.png,stim/43.jpeg,4,stim/4.png,3,2,45,2021-01-08_11h04.35.192,premup-three_ses-02_part-03_label-phase3,3.2.4,Win32,60
1,right,1.862999916,,,0,,,0,,,1,0,200,173,1,199,0,2,0,2,stim/objects/Instruments/vuvuzela3.png,,0,stim/0.png,0,0,45,2021-01-08_11h04.35.192,premup-three_ses-02_part-03_label-phase3,3.2.4,Win32,60
1,right,0.981999874,2,1.019999981,0,3,3.118999958,0,3,3.171999931,1,0,200,79,1,199,3,2,0.9,1,stim/objects/Instruments/saxophone2.png,stim/54.jpeg,5,stim/5.png,4,1,45,2021-01-08_11h04.35.192,premup-three_ses-02_part-03_label-phase3,3.2.4,Win32,60
1,left,1.087999821,,,0,,,0,,,1,0,200,148,1,199,0,1,0,2,stim/objects/HouseObjects/spraybottle3.png,,0,stim/0.png,0,0,45,2021-01-08_11h04.35.192,premup-three_ses-02_part-03_label-phase3,3.2.4,Win32,60
1,right,1.404000044,,,0,,,0,,,1,0,200,138,1,199,0,2,0,2,stim/objects/Instruments/musicstand3.png,,0,stim/0.png,0,0,45,2021-01-08_11h04.35.192,premup-three_ses-02_part-03_label-phase3,3.2.4,Win32,60
1,left,1.052999973,3,1.167999983,0,2,3.200999975,0,4,2.410000086,1,0,200,54,1,199,2,2,0.3,1,stim/objects/Instruments/harmonica2.png,stim/42.jpeg,4,stim/4.png,2,2,45,2021-01-08_11h04.35.192,premup-three_ses-02_part-03_label-phase3,3.2.4,Win32,60
1,right,1.852999926,,,0,,,0,,,1,0,200,194,1,199,0,2,0,2,stim/objects/Instruments/harmonica4.png,,0,stim/0.png,0,0,45,2021-01-08_11h04.35.192,premup-three_ses-02_part-03_label-phase3,3.2.4,Win32,60
1,right,1.029000044,2,0.980000019,0,2,3.05099988,0,3,2.476999998,1,0,200,95,1,199,3,2,0.1,1,stim/objects/Instruments/trumpet2.png,stim/64.jpeg,6,stim/6.png,4,4,45,2021-01-08_11h04.35.192,premup-three_ses-02_part-03_label-phase3,3.2.4,Win32,60
1,right,1.66899991,1,1.722999811,0,2,3.998999834,0,1,2.314999819,1,0,200,4,1,199,1,1,0.5,1,stim/objects/HouseObjects/safetypin.png,stim/13.jpeg,1,stim/1.png,3,1,45,2021-01-08_11h04.35.192,premup-three_ses-02_part-03_label-phase3,3.2.4,Win32,60
1,left,1.542999983,4,0.897999763,0,3,4.465999842,0,4,1.813999891,1,0,200,78,1,199,3,2,0.9,1,stim/objects/Instruments/record_player2.png,stim/53.jpeg,5,stim/5.png,3,2,45,2021-01-08_11h04.35.192,premup-three_ses-02_part-03_label-phase3,3.2.4,Win32,60
1,right,0.937999964,,,0,,,0,,,1,0,200,157,1,199,0,2,0,2,stim/objects/Instruments/timbal3.png,,0,stim/0.png,0,0,45,2021-01-08_11h04.35.192,premup-three_ses-02_part-03_label-phase3,3.2.4,Win32,60
1,right,0.820999861,,,0,,,0,,,1,0,200,180,1,199,0,1,0,2,stim/objects/HouseObjects/flyswatter4.png,,0,stim/0.png,0,0,45,2021-01-08_11h04.35.192,premup-three_ses-02_part-03_label-phase3,3.2.4,Win32,60
1,left,0.936999798,3,1.788999796,0,4,2.322999716,0,3,1.937000036,1,0,200,3,1,199,1,1,0.5,1,stim/objects/HouseObjects/rug.png,stim/12.jpeg,1,stim/1.png,2,2,45,2021-01-08_11h04.35.192,premup-three_ses-02_part-03_label-phase3,3.2.4,Win32,60
1,right,0.994999886,1,1.498999834,0,1,2.431999922,0,1,2.559000015,1,0,200,64,1,199,3,1,0.1,1,stim/objects/HouseObjects/pitcher2.png,stim/51.jpeg,5,stim/5.png,1,1,45,2021-01-08_11h04.35.192,premup-three_ses-02_part-03_label-phase3,3.2.4,Win32,60
1,left,2.05099988,2,1.544999838,0,3,1.909999847,0,3,1.510999918,1,0,200,51,1,199,2,2,0.3,1,stim/objects/Instruments/gong2.png,stim/43.jpeg,4,stim/4.png,3,4,45,2021-01-08_11h04.35.192,premup-three_ses-02_part-03_label-phase3,3.2.4,Win32,60
1,right,1.38499999,,,0,,,0,,,1,0,200,177,1,199,0,2,0,2,stim/objects/Instruments/electricguitar4.png,,0,stim/0.png,0,0,45,2021-01-08_11h04.35.192,premup-three_ses-02_part-03_label-phase3,3.2.4,Win32,60
1,left,1.04399991,3,1.264999866,0,2,2.218999863,0,4,1.492000103,1,0,200,82,1,199,3,1,0.9,1,stim/objects/HouseObjects/sponge2.png,stim/63.jpeg,6,stim/6.png,3,4,45,2021-01-08_11h04.35.192,premup-three_ses-02_part-03_label-phase3,3.2.4,Win32,60
1,left,2.946999788,,,0,,,0,,,1,0,200,190,1,199,0,2,0,2,stim/objects/Instruments/frenchhorn4.png,,0,stim/0.png,0,0,45,2021-01-08_11h04.35.192,premup-three_ses-02_part-03_label-phase3,3.2.4,Win32,60
1,right,1.294999838,,,0,,,0,,,1,0,200,116,1,199,0,2,0,2,stim/objects/Instruments/gong3.png,,0,stim/0.png,0,0,45,2021-01-08_11h04.35.192,premup-three_ses-02_part-03_label-phase3,3.2.4,Win32,60
1,left,0.973999977,,,0,,,0,,,1,0,200,189,1,199,0,1,0,2,stim/objects/HouseObjects/key4.png,,0,stim/0.png,0,0,45,2021-01-08_11h04.35.192,premup-three_ses-02_part-03_label-phase3,3.2.4,Win32,60
1,right,1.059999943,,,0,,,0,,,1,0,200,102,1,199,0,1,0,2,stim/objects/HouseObjects/dishsoap3.png,,0,stim/0.png,0,0,45,2021-01-08_11h04.35.192,premup-three_ses-02_part-03_label-phase3,3.2.4,Win32,60
1,right,0.970000029,2,1.003999949,0,2,3.829999924,0,3,1.879999876,1,0,200,62,1,199,3,1,0.1,1,stim/objects/HouseObjects/match2.png,stim/53.jpeg,5,stim/5.png,3,3,45,2021-01-08_11h04.35.192,premup-three_ses-02_part-03_label-phase3,3.2.4,Win32,60
1,left,0.963999987,3,0.839999914,0,2,1.58100009,0,3,2.271999836,1,0,200,12,1,199,1,2,0.5,1,stim/objects/HouseObjects/sponge.png,stim/23.jpeg,2,stim/2.png,3,3,45,2021-01-08_11h04.35.192,premup-three_ses-02_part-03_label-phase3,3.2.4,Win32,60
1,left,1.079999924,4,0.750999928,0,1,2.394999981,0,3,2.069000006,1,0,200,81,1,199,3,1,0.9,1,stim/objects/HouseObjects/scale2.png,stim/62.jpeg,6,stim/6.png,2,3,45,2021-01-08_11h04.35.192,premup-three_ses-02_part-03_label-phase3,3.2.4,Win32,60
1,right,1.378000021,1,1.184000015,0,1,2.839999914,0,1,1.89199996,1,0,200,68,1,199,3,1,0.1,1,stim/objects/HouseObjects/rug2.png,stim/51.jpeg,5,stim/5.png,1,2,45,2021-01-08_11h04.35.192,premup-three_ses-02_part-03_label-phase3,3.2.4,Win32,60
1,right,1.064999819,1,1.458999872,0,1,2.083999872,0,1,1.279000044,1,0,200,89,1,199,3,1,0.9,1,stim/objects/HouseObjects/wateringcan2.png,stim/62.jpeg,6,stim/6.png,2,4,45,2021-01-08_11h04.35.192,premup-three_ses-02_part-03_label-phase3,3.2.4,Win32,60
1,right,0.992999792,,,0,,,0,,,1,0,200,168,1,199,0,1,0,2,stim/objects/HouseObjects/doormat4.png,,0,stim/0.png,0,0,45,2021-01-08_11h04.35.192,premup-three_ses-02_part-03_label-phase3,3.2.4,Win32,60
1,left,0.937000036,3,1.23300004,0,2,3.165999889,0,4,2.587999821,1,0,200,77,1,199,3,2,0.9,1,stim/objects/Instruments/record2.png,stim/52.jpeg,5,stim/5.png,2,2,45,2021-01-08_11h04.35.192,premup-three_ses-02_part-03_label-phase3,3.2.4,Win32,60
1,right,1.058999777,1,0.885999918,0,3,5.881999731,0,4,2.111999989,1,0,200,41,1,199,2,1,0.7,1,stim/objects/HouseObjects/garbagebin2.png,stim/41.jpeg,4,stim/4.png,1,1,45,2021-01-08_11h04.35.192,premup-three_ses-02_part-03_label-phase3,3.2.4,Win32,60
1,left,1.801999807,2,1.79399991,0,3,2.148000002,0,3,1.79399991,1,0,200,80,1,199,3,1,0.9,1,stim/objects/HouseObjects/saw2.png,stim/61.jpeg,6,stim/6.png,1,1,45,2021-01-08_11h04.35.192,premup-three_ses-02_part-03_label-phase3,3.2.4,Win32,60
1,left,0.931999922,,,0,,,0,,,1,0,200,128,1,199,0,1,0,2,stim/objects/HouseObjects/pan3.png,,0,stim/0.png,0,0,45,2021-01-08_11h04.35.192,premup-three_ses-02_part-03_label-phase3,3.2.4,Win32,60
1,right,1.378999949,3,2.797999859,0,4,3.338999987,0,1,2.512000084,1,0,200,70,1,199,3,2,0.9,1,stim/objects/Instruments/marimba2.png,stim/53.jpeg,5,stim/5.png,3,1,45,2021-01-08_11h04.35.192,premup-three_ses-02_part-03_label-phase3,3.2.4,Win32,60
1,right,1.116999865,2,1.220000029,0,3,3.039000034,0,4,1.41899991,1,0,200,5,1,199,1,1,0.5,1,stim/objects/Instruments/panflute.png,stim/12.jpeg,1,stim/1.png,2,1,45,2021-01-08_11h04.35.192,premup-three_ses-02_part-03_label-phase3,3.2.4,Win32,60
1,right,1.642999887,1,2.532999992,0,4,3.163000107,0,4,2.124000072,1,0,200,7,1,199,1,1,0.5,1,stim/objects/Instruments/record.png,stim/14.jpeg,1,stim/1.png,4,1,45,2021-01-08_11h04.35.192,premup-three_ses-02_part-03_label-phase3,3.2.4,Win32,60
1,right,1.515999794,,,0,,,0,,,1,0,200,139,1,199,0,2,0,2,stim/objects/Instruments/oboe3.png,,0,stim/0.png,0,0,45,2021-01-08_11h04.35.192,premup-three_ses-02_part-03_label-phase3,3.2.4,Win32,60
1,left,1.046999931,2,2.642999887,0,3,2.875999928,0,3,1.636999846,1,0,200,28,1,199,2,1,0.3,1,stim/objects/HouseObjects/doormat2.png,stim/31.jpeg,3,stim/3.png,1,3,45,2021-01-08_11h04.35.192,premup-three_ses-02_part-03_label-phase3,3.2.4,Win32,60
1,left,0.95299983,,,0,,,0,,,1,0,200,186,1,199,0,1,0,2,stim/objects/HouseObjects/handvacuum4.png,,0,stim/0.png,0,0,45,2021-01-08_11h04.35.192,premup-three_ses-02_part-03_label-phase3,3.2.4,Win32,60
1,right,1.06099987,,,0,,,0,,,1,0,200,105,1,199,0,1,0,2,stim/objects/HouseObjects/flyswatter3.png,,0,stim/0.png,0,0,45,2021-01-08_11h04.35.192,premup-three_ses-02_part-03_label-phase3,3.2.4,Win32,60
1,right,0.799999952,,,0,,,0,,,1,0,200,153,1,199,0,2,0,2,stim/objects/Instruments/record_player3.png,,0,stim/0.png,0,0,45,2021-01-08_11h04.35.192,premup-three_ses-02_part-03_label-phase3,3.2.4,Win32,60
1,left,1.213999987,2,1.671000004,0,1,2.146999836,0,3,1.162999868,1,0,200,60,1,199,3,1,0.1,1,stim/objects/HouseObjects/knife2.png,stim/51.jpeg,5,stim/5.png,1,3,45,2021-01-08_11h04.35.192,premup-three_ses-02_part-03_label-phase3,3.2.4,Win32,60
1,left,1.311999798,3,1.497999907,0,1,1.768999815,0,1,2.068000078,1,0,200,26,1,199,2,1,0.3,1,stim/objects/HouseObjects/cushion2.png,stim/33.jpeg,3,stim/3.png,3,4,45,2021-01-08_11h04.35.192,premup-three_ses-02_part-03_label-phase3,3.2.4,Win32,60
1,right,0.743000031,,,0,,,0,,,1,0,200,111,1,199,0,2,0,2,stim/objects/Instruments/electricdrumset3.png,,0,stim/0.png,0,0,45,2021-01-08_11h04.35.192,premup-three_ses-02_part-03_label-phase3,3.2.4,Win32,60
1,right,0.710000038,,,0,,,0,,,1,0,200,135,1,199,0,2,0,2,stim/objects/Instruments/marimba3.png,,0,stim/0.png,0,0,45,2021-01-08_11h04.35.192,premup-three_ses-02_part-03_label-phase3,3.2.4,Win32,60
1,right,0.821000099,,,0,,,0,,,1,0,200,145,1,199,0,1,0,2,stim/objects/HouseObjects/saw3.png,,0,stim/0.png,0,0,45,2021-01-08_11h04.35.192,premup-three_ses-02_part-03_label-phase3,3.2.4,Win32,60
1,left,0.729999781,,,0,,,0,,,1,0,200,121,1,199,0,1,0,2,stim/objects/HouseObjects/handvacuum3.png,,0,stim/0.png,0,0,45,2021-01-08_11h04.35.192,premup-three_ses-02_part-03_label-phase3,3.2.4,Win32,60
1,right,1.065999985,,,0,,,0,,,1,0,200,193,1,199,0,2,0,2,stim/objects/Instruments/guitarcase4.png,,0,stim/0.png,0,0,45,2021-01-08_11h04.35.192,premup-three_ses-02_part-03_label-phase3,3.2.4,Win32,60
1,right,1.202000141,,,0,,,0,,,1,0,200,160,1,199,0,1,0,2,stim/objects/HouseObjects/thermometer3.png,,0,stim/0.png,0,0,45,2021-01-08_11h04.35.192,premup-three_ses-02_part-03_label-phase3,3.2.4,Win32,60
1,left,0.79399991,,,0,,,0,,,1,0,200,129,1,199,0,1,0,2,stim/objects/HouseObjects/pitcher3.png,,0,stim/0.png,0,0,45,2021-01-08_11h04.35.192,premup-three_ses-02_part-03_label-phase3,3.2.4,Win32,60
1,right,1.03399992,,,0,,,0,,,1,0,200,127,1,199,0,1,0,2,stim/objects/HouseObjects/match3.png,,0,stim/0.png,0,0,45,2021-01-08_11h04.35.192,premup-three_ses-02_part-03_label-phase3,3.2.4,Win32,60
1,left,1.42599988,,,0,,,0,,,1,0,200,151,1,199,0,2,0,2,stim/objects/Instruments/pipepiano3.png,,0,stim/0.png,0,0,45,2021-01-08_11h04.35.192,premup-three_ses-02_part-03_label-phase3,3.2.4,Win32,60
1,left,1.277999878,3,3.034999847,0,4,2.796000004,0,4,1.354000092,1,0,200,40,1,199,2,1,0.7,1,stim/objects/HouseObjects/flyswatter2.png,stim/44.jpeg,4,stim/4.png,4,1,45,2021-01-08_11h04.35.192,premup-three_ses-02_part-03_label-phase3,3.2.4,Win32,60
1,right,1.059000015,2,1.419999838,0,3,1.412999868,0,3,1.796999931,1,0,200,29,1,199,2,1,0.3,1,stim/objects/HouseObjects/dustpan2.png,stim/32.jpeg,3,stim/3.png,2,3,45,2021-01-08_11h04.35.192,premup-three_ses-02_part-03_label-phase3,3.2.4,Win32,60
1,left,0.966999769,,,0,,,0,,,1,0,200,131,1,199,0,2,0,2,stim/objects/Instruments/hihat3.png,,0,stim/0.png,0,0,45,2021-01-08_11h04.35.192,premup-three_ses-02_part-03_label-phase3,3.2.4,Win32,60
1,right,1.012999773,,,0,,,0,,,1,0,200,123,1,199,0,1,0,2,stim/objects/HouseObjects/ironingboard3.png,,0,stim/0.png,0,0,45,2021-01-08_11h04.35.192,premup-three_ses-02_part-03_label-phase3,3.2.4,Win32,60
1,right,0.808999777,3,1.802999973,0,3,1.397000074,0,4,2.505999804,1,0,200,19,1,199,1,2,0.5,1,stim/objects/Instruments/trombone.png,stim/24.jpeg,2,stim/2.png,4,1,45,2021-01-08_11h04.35.192,premup-three_ses-02_part-03_label-phase3,3.2.4,Win32,60
1,right,0.91899991,,,0,,,0,,,1,0,200,152,1,199,0,2,0,2,stim/objects/Instruments/record3.png,,0,stim/0.png,0,0,45,2021-01-08_11h04.35.192,premup-three_ses-02_part-03_label-phase3,3.2.4,Win32,60
1,right,0.659999847,1,2.256999969,0,1,2.548999786,0,1,2.474999905,1,0,200,14,1,199,1,2,0.5,1,stim/objects/HouseObjects/teapot.png,stim/21.jpeg,2,stim/2.png,1,4,45,2021-01-08_11h04.35.192,premup-three_ses-02_part-03_label-phase3,3.2.4,Win32,60
1,right,1.488999844,,,0,,,0,,,1,0,200,108,1,199,0,1,0,2,stim/objects/HouseObjects/glassmop3.png,,0,stim/0.png,0,0,45,2021-01-08_11h04.35.192,premup-three_ses-02_part-03_label-phase3,3.2.4,Win32,60
1,right,4.552000046,1,1.848999977,0,1,2.102999926,0,3,1.694000006,1,0,200,38,1,199,2,2,0.7,1,stim/objects/Instruments/flute2.png,stim/32.jpeg,3,stim/3.png,2,2,45,2021-01-08_11h04.35.192,premup-three_ses-02_part-03_label-phase3,3.2.4,Win32,60
1,right,1.064999819,,,0,,,0,,,1,0,200,170,1,199,0,2,0,2,stim/objects/Instruments/trumpet3.png,,0,stim/0.png,0,0,45,2021-01-08_11h04.35.192,premup-three_ses-02_part-03_label-phase3,3.2.4,Win32,60
1,left,0.799000025,4,0.818999767,0,1,2.832999945,0,3,1.761999846,1,0,200,96,1,199,3,2,0.1,1,stim/objects/Instruments/tuba2.png,stim/61.jpeg,6,stim/6.png,1,2,45,2021-01-08_11h04.35.192,premup-three_ses-02_part-03_label-phase3,3.2.4,Win32,60
1,right,0.981999874,,,0,,,0,,,1,0,200,188,1,199,0,1,0,2,stim/objects/HouseObjects/ironingboard4.png,,0,stim/0.png,0,0,45,2021-01-08_11h04.35.192,premup-three_ses-02_part-03_label-phase3,3.2.4,Win32,60
1,right,0.822999954,,,0,,,0,,,1,0,200,117,1,199,0,2,0,2,stim/objects/Instruments/grandpiano3.png,,0,stim/0.png,0,0,45,2021-01-08_11h04.35.192,premup-three_ses-02_part-03_label-phase3,3.2.4,Win32,60
1,left,0.886999846,3,1.223999977,0,3,2.819999933,0,3,1.574999809,1,0,200,58,1,199,2,2,0.3,1,stim/objects/Instruments/laud2.png,stim/42.jpeg,4,stim/4.png,2,3,45,2021-01-08_11h04.35.192,premup-three_ses-02_part-03_label-phase3,3.2.4,Win32,60
1,right,0.91899991,1,4.111000061,0,2,1.544999838,0,2,1.733999729,1,0,200,16,1,199,1,2,0.5,1,stim/objects/Instruments/tambourine.png,stim/21.jpeg,2,stim/2.png,1,2,45,2021-01-08_11h04.35.192,premup-three_ses-02_part-03_label-phase3,3.2.4,Win32,60
1,right,2.723999977,,,0,,,0,,,1,0,200,109,1,199,0,1,0,2,stim/objects/HouseObjects/hairdryer3.png,,0,stim/0.png,0,0,45,2021-01-08_11h04.35.192,premup-three_ses-02_part-03_label-phase3,3.2.4,Win32,60
1,right,1.111000061,,,0,,,0,,,1,0,200,156,1,199,0,2,0,2,stim/objects/Instruments/tambourine3.png,,0,stim/0.png,0,0,45,2021-01-08_11h04.35.192,premup-three_ses-02_part-03_label-phase3,3.2.4,Win32,60
1,right,2.351000071,1,1.447999954,0,1,1.134999752,0,3,1.205999851,1,0,200,36,1,199,2,2,0.7,1,stim/objects/Instruments/electricdrumset2.png,stim/34.jpeg,3,stim/3.png,4,1,45,2021-01-08_11h04.35.192,premup-three_ses-02_part-03_label-phase3,3.2.4,Win32,60
1,right,1.021999836,2,3.52699995,0,1,1.276000023,0,3,1.489999771,1,0,200,47,1,199,2,1,0.7,1,stim/objects/HouseObjects/iron2.png,stim/43.jpeg,4,stim/4.png,3,2,45,2021-01-08_11h04.35.192,premup-three_ses-02_part-03_label-phase3,3.2.4,Win32,60
1,right,0.898000002,,,0,,,0,,,1,0,200,195,1,199,0,2,0,2,stim/objects/Instruments/harp4.png,,0,stim/0.png,0,0,45,2021-01-08_11h04.35.192,premup-three_ses-02_part-03_label-phase3,3.2.4,Win32,60
1,left,0.808999777,,,0,,,0,,,1,0,200,137,1,199,0,2,0,2,stim/objects/Instruments/musicsheet3.png,,0,stim/0.png,0,0,45,2021-01-08_11h04.35.192,premup-three_ses-02_part-03_label-phase3,3.2.4,Win32,60
1,right,2.254999876,1,1.187000036,0,1,1.611999989,0,3,1.241999865,1,0,200,11,1,199,1,2,0.5,1,stim/objects/HouseObjects/scale.png,stim/22.jpeg,2,stim/2.png,2,2,45,2021-01-08_11h04.35.192,premup-three_ses-02_part-03_label-phase3,3.2.4,Win32,60
1,left,1.111999989,,,0,,,0,,,1,0,200,115,1,199,0,2,0,2,stim/objects/Instruments/frenchhorn3.png,,0,stim/0.png,0,0,45,2021-01-08_11h04.35.192,premup-three_ses-02_part-03_label-phase3,3.2.4,Win32,60
1,left,1.03399992,,,0,,,0,,,1,0,200,119,1,199,0,2,0,2,stim/objects/Instruments/harmonica3.png,,0,stim/0.png,0,0,45,2021-01-08_11h04.35.192,premup-three_ses-02_part-03_label-phase3,3.2.4,Win32,60
1,right,0.868999958,2,1.901000023,0,3,2.499000072,0,4,1.813999891,1,0,200,86,1,199,3,1,0.9,1,stim/objects/HouseObjects/thread2.png,stim/63.jpeg,6,stim/6.png,3,3,45,2021-01-08_11h04.35.192,premup-three_ses-02_part-03_label-phase3,3.2.4,Win32,60
1,right,0.84499979,2,1.406999826,0,2,2.170000076,0,4,1.066999912,1,0,200,87,1,199,3,1,0.9,1,stim/objects/HouseObjects/towel2.png,stim/64.jpeg,6,stim/6.png,4,2,45,2021-01-08_11h04.35.192,premup-three_ses-02_part-03_label-phase3,3.2.4,Win32,60
1,left,0.875,4,0.589999914,0,3,2.205999851,0,3,1.457000017,1,0,200,56,1,199,2,2,0.3,1,stim/objects/Instruments/hihat2.png,stim/44.jpeg,4,stim/4.png,4,2,45,2021-01-08_11h04.35.192,premup-three_ses-02_part-03_label-phase3,3.2.4,Win32,60
1,right,0.853999853,,,0,,,0,,,1,0,200,125,1,199,0,1,0,2,stim/objects/HouseObjects/knife3.png,,0,stim/0.png,0,0,45,2021-01-08_11h04.35.192,premup-three_ses-02_part-03_label-phase3,3.2.4,Win32,60
1,right,0.861000061,,,0,,,0,,,1,0,200,112,1,199,0,2,0,2,stim/objects/Instruments/electricguitar3.png,,0,stim/0.png,0,0,45,2021-01-08_11h04.35.192,premup-three_ses-02_part-03_label-phase3,3.2.4,Win32,60
1,left,0.944999933,,,0,,,0,,,1,0,200,158,1,199,0,2,0,2,stim/objects/Instruments/triangle3.png,,0,stim/0.png,0,0,45,2021-01-08_11h04.35.192,premup-three_ses-02_part-03_label-phase3,3.2.4,Win32,60
1,left,0.878000021,4,0.590999842,0,2,2.332000017,0,3,1.271999836,1,0,200,46,1,199,2,1,0.7,1,stim/objects/HouseObjects/handvacuum2.png,stim/42.jpeg,4,stim/4.png,2,4,45,2021-01-08_11h04.35.192,premup-three_ses-02_part-03_label-phase3,3.2.4,Win32,60
1,right,0.855000019,1,0.971999884,0,3,1.271999836,0,1,1.308999777,1,0,200,17,1,199,1,2,0.5,1,stim/objects/Instruments/timbal.png,stim/22.jpeg,2,stim/2.png,2,2,45,2021-01-08_11h04.35.192,premup-three_ses-02_part-03_label-phase3,3.2.4,Win32,60
1,right,0.963999748,,,0,,,0,,,1,0,200,120,1,199,0,1,0,2,stim/objects/HouseObjects/handbrush3.png,,0,stim/0.png,0,0,45,2021-01-08_11h04.35.192,premup-three_ses-02_part-03_label-phase3,3.2.4,Win32,60
1,left,0.944000006,,,0,,,0,,,1,0,200,159,1,199,0,2,0,2,stim/objects/Instruments/trombone3.png,,0,stim/0.png,0,0,45,2021-01-08_11h04.35.192,premup-three_ses-02_part-03_label-phase3,3.2.4,Win32,60
1,left,0.983999968,,,0,,,0,,,1,0,200,176,1,199,0,2,0,2,stim/objects/Instruments/electricdrumset4.png,,0,stim/0.png,0,0,45,2021-01-08_11h04.35.192,premup-three_ses-02_part-03_label-phase3,3.2.4,Win32,60
1,left,0.937000036,4,0.649999857,0,3,2.835999727,0,3,1.640000105,1,0,200,65,1,199,3,1,0.1,1,stim/objects/HouseObjects/recyclingbin2.png,stim/52.jpeg,5,stim/5.png,2,3,45,2021-01-08_11h04.35.192,premup-three_ses-02_part-03_label-phase3,3.2.4,Win32,60
1,right,0.856999874,,,0,,,0,,,1,0,200,182,1,199,0,1,0,2,stim/objects/HouseObjects/glass4.png,,0,stim/0.png,0,0,45,2021-01-08_11h04.35.192,premup-three_ses-02_part-03_label-phase3,3.2.4,Win32,60
1,right,1.105999947,,,0,,,0,,,1,0,200,126,1,199,0,1,0,2,stim/objects/HouseObjects/lintroller3.png,,0,stim/0.png,0,0,45,2021-01-08_11h04.35.192,premup-three_ses-02_part-03_label-phase3,3.2.4,Win32,60
1,left,1.225999832,,,0,,,0,,,1,0,200,141,1,199,0,1,0,2,stim/objects/HouseObjects/remote3.png,,0,stim/0.png,0,0,45,2021-01-08_11h04.35.192,premup-three_ses-02_part-03_label-phase3,3.2.4,Win32,60
1,right,0.909999847,,,0,,,0,,,1,0,200,101,1,199,0,1,0,2,stim/objects/HouseObjects/cushion3.png,,0,stim/0.png,0,0,45,2021-01-08_11h04.35.192,premup-three_ses-02_part-03_label-phase3,3.2.4,Win32,60
1,right,0.674999952,,,0,,,0,,,1,0,200,198,1,199,0,2,0,2,stim/objects/Instruments/laud4.png,,0,stim/0.png,0,0,45,2021-01-08_11h04.35.192,premup-three_ses-02_part-03_label-phase3,3.2.4,Win32,60
1,right,1.21600008,1,0.770999908,0,3,2.737999916,0,1,1.042999983,1,0,200,45,1,199,2,1,0.7,1,stim/objects/HouseObjects/handbrush2.png,stim/41.jpeg,4,stim/4.png,1,1,45,2021-01-08_11h04.35.192,premup-three_ses-02_part-03_label-phase3,3.2.4,Win32,60
1,right,1.029999971,,,0,,,0,,,1,0,200,185,1,199,0,1,0,2,stim/objects/HouseObjects/handbrush4.png,,0,stim/0.png,0,0,45,2021-01-08_11h04.35.192,premup-three_ses-02_part-03_label-phase3,3.2.4,Win32,60
1,left,0.683999777,4,0.501999855,0,2,2.299999952,0,3,1.045999765,1,0,200,6,1,199,1,1,0.5,1,stim/objects/Instruments/pipepiano.png,stim/13.jpeg,1,stim/1.png,3,2,45,2021-01-08_11h04.35.192,premup-three_ses-02_part-03_label-phase3,3.2.4,Win32,60
1,left,1.037999868,4,0.677999973,0,2,1.704999924,0,3,1.222999811,1,0,200,25,1,199,2,1,0.3,1,stim/objects/HouseObjects/coffee2.png,stim/32.jpeg,3,stim/3.png,2,2,45,2021-01-08_11h04.35.192,premup-three_ses-02_part-03_label-phase3,3.2.4,Win32,60
1,left,0.758000135,4,0.67599988,0,1,1.237999916,0,3,3.17599988,1,0,200,66,1,199,3,1,0.1,1,stim/objects/HouseObjects/remote2.png,stim/53.jpeg,5,stim/5.png,3,1,45,2021-01-08_11h04.35.192,premup-three_ses-02_part-03_label-phase3,3.2.4,Win32,60
1,right,0.746000051,1,0.927000046,0,3,2.371999979,0,3,0.99399972,1,0,200,50,1,199,2,2,0.3,1,stim/objects/Instruments/frenchhorn2.png,stim/42.jpeg,4,stim/4.png,2,1,45,2021-01-08_11h04.35.192,premup-three_ses-02_part-03_label-phase3,3.2.4,Win32,60
1,right,0.758999825,2,2.008999825,0,3,1.555999994,0,3,1.324999809,1,0,200,99,1,199,3,2,0.1,1,stim/objects/Instruments/xylophone2.png,stim/64.jpeg,6,stim/6.png,4,4,45,2021-01-08_11h04.35.192,premup-three_ses-02_part-03_label-phase3,3.2.4,Win32,60
1,right,1.260999918,4,1.501999855,0,4,1.762999773,0,4,0.910999775,1,0,200,67,1,199,3,1,0.1,1,stim/objects/HouseObjects/rubbergloves2.png,stim/54.jpeg,5,stim/5.png,4,1,45,2021-01-08_11h04.35.192,premup-three_ses-02_part-03_label-phase3,3.2.4,Win32,60
1,right,1.355999947,2,3.755000114,0,1,2.572000027,0,3,1.064999819,1,0,200,97,1,199,3,2,0.1,1,stim/objects/Instruments/violin2.png,stim/62.jpeg,6,stim/6.png,2,4,45,2021-01-08_11h04.35.192,premup-three_ses-02_part-03_label-phase3,3.2.4,Win32,60
1,right,1.184999943,3,2.222999811,0,2,1.912999868,0,3,1.536000013,1,0,200,0,1,199,1,1,0.5,1,stim/objects/HouseObjects/recyclingbin.png,stim/13.jpeg,1,stim/1.png,3,4,45,2021-01-08_11h04.35.192,premup-three_ses-02_part-03_label-phase3,3.2.4,Win32,60
1,right,0.937999964,,,0,,,0,,,1,0,200,107,1,199,0,1,0,2,stim/objects/HouseObjects/glass3.png,,0,stim/0.png,0,0,45,2021-01-08_11h04.35.192,premup-three_ses-02_part-03_label-phase3,3.2.4,Win32,60
1,left,0.816999912,,,0,,,0,,,1,0,200,154,1,199,0,2,0,2,stim/objects/Instruments/saxophone3.png,,0,stim/0.png,0,0,45,2021-01-08_11h04.35.192,premup-three_ses-02_part-03_label-phase3,3.2.4,Win32,60
1,left,0.990999937,4,0.718999863,0,3,3.398999929,0,1,1.523000002,1,0,200,35,1,199,2,2,0.7,1,stim/objects/Instruments/drums2.png,stim/33.jpeg,3,stim/3.png,3,1,45,2021-01-08_11h04.35.192,premup-three_ses-02_part-03_label-phase3,3.2.4,Win32,60
1,left,0.947999954,4,0.500999928,0,1,1.912999868,0,1,1.076999903,1,0,200,88,1,199,3,1,0.9,1,stim/objects/HouseObjects/vacuumcleaner2.png,stim/61.jpeg,6,stim/6.png,1,1,45,2021-01-08_11h04.35.192,premup-three_ses-02_part-03_label-phase3,3.2.4,Win32,60
1,right,0.954999924,1,2.428999901,0,2,1.434999704,0,3,1.398999929,1,0,200,90,1,199,3,2,0.1,1,stim/objects/Instruments/speaker2.png,stim/63.jpeg,6,stim/6.png,3,2,45,2021-01-08_11h04.35.192,premup-three_ses-02_part-03_label-phase3,3.2.4,Win32,60
1,left,1.06400013,3,1.0849998,0,2,2.314999819,0,2,2.31799984,1,0,200,76,1,199,3,2,0.9,1,stim/objects/Instruments/pipepiano2.png,stim/51.jpeg,5,stim/5.png,1,1,45,2021-01-08_11h04.35.192,premup-three_ses-02_part-03_label-phase3,3.2.4,Win32,60
1,right,1.368999958,2,0.917000055,0,4,6.361999989,0,3,1.381000042,1,0,200,43,1,199,2,1,0.7,1,stim/objects/HouseObjects/glassmop2.png,stim/43.jpeg,4,stim/4.png,3,3,45,2021-01-08_11h04.35.192,premup-three_ses-02_part-03_label-phase3,3.2.4,Win32,60
1,right,1.153000116,,,0,,,0,,,1,0,200,140,1,199,0,1,0,2,stim/objects/HouseObjects/recyclingbin3.png,,0,stim/0.png,0,0,45,2021-01-08_11h04.35.192,premup-three_ses-02_part-03_label-phase3,3.2.4,Win32,60
1,left,0.929999828,4,0.837999821,0,1,2.415999889,0,1,1.565000057,1,0,200,85,1,199,3,1,0.9,1,stim/objects/HouseObjects/thermometer2.png,stim/62.jpeg,6,stim/6.png,2,2,45,2021-01-08_11h04.35.192,premup-three_ses-02_part-03_label-phase3,3.2.4,Win32,60
1,right,3.786999941,,,0,,,0,,,1,0,200,192,1,199,0,2,0,2,stim/objects/Instruments/grandpiano4.png,,0,stim/0.png,0,0,45,2021-01-08_11h04.35.192,premup-three_ses-02_part-03_label-phase3,3.2.4,Win32,60
1,right,1.750999928,,,0,,,0,,,1,0,200,169,1,199,0,1,0,2,stim/objects/HouseObjects/dustpan4.png,,0,stim/0.png,0,0,45,2021-01-08_11h04.35.192,premup-three_ses-02_part-03_label-phase3,3.2.4,Win32,60
1,left,0.911999941,,,0,,,0,,,1,0,200,114,1,199,0,2,0,2,stim/objects/Instruments/flutetrans3.png,,0,stim/0.png,0,0,45,2021-01-08_11h04.35.192,premup-three_ses-02_part-03_label-phase3,3.2.4,Win32,60
1,right,0.79399991,,,0,,,0,,,1,0,200,155,1,199,0,2,0,2,stim/objects/Instruments/speaker3.png,,0,stim/0.png,0,0,45,2021-01-08_11h04.35.192,premup-three_ses-02_part-03_label-phase3,3.2.4,Win32,60
1,right,0.919999838,4,1.836999893,0,2,2.133999825,0,3,1.786000013,1,0,200,49,1,199,2,1,0.7,1,stim/objects/HouseObjects/key2.png,stim/41.jpeg,4,stim/4.png,1,1,45,2021-01-08_11h04.35.192,premup-three_ses-02_part-03_label-phase3,3.2.4,Win32,60
1,right,0.958999872,2,1.392999887,0,3,1.610999823,0,3,0.644999743,1,0,200,48,1,199,2,1,0.7,1,stim/objects/HouseObjects/ironingboard2.png,stim/44.jpeg,4,stim/4.png,4,1,45,2021-01-08_11h04.35.192,premup-three_ses-02_part-03_label-phase3,3.2.4,Win32,60
1,left,0.867000103,3,3.007999897,0,3,1.733999968,0,4,0.883000135,1,0,200,31,1,199,2,2,0.7,1,stim/objects/Instruments/tuba.png,stim/33.jpeg,3,stim/3.png,3,4,45,2021-01-08_11h04.35.192,premup-three_ses-02_part-03_label-phase3,3.2.4,Win32,60
1,left,1.224999905,,,0,,,0,,,1,0,200,171,1,199,0,2,0,2,stim/objects/Instruments/tuba3.png,,0,stim/0.png,0,0,45,2021-01-08_11h04.35.192,premup-three_ses-02_part-03_label-phase3,3.2.4,Win32,60
1,left,0.734999895,4,0.47300005,0,4,2.687999725,0,4,2.104999781,1,0,200,72,1,199,3,2,0.9,1,stim/objects/Instruments/musicsheet2.png,stim/51.jpeg,5,stim/5.png,1,3,45,2021-01-08_11h04.35.192,premup-three_ses-02_part-03_label-phase3,3.2.4,Win32,60
1,left,0.932999849,4,0.387000084,0,3,3.743000031,0,3,1.595999956,1,0,200,42,1,199,2,1,0.7,1,stim/objects/HouseObjects/glass2.png,stim/42.jpeg,4,stim/4.png,2,2,45,2021-01-08_11h04.35.192,premup-three_ses-02_part-03_label-phase3,3.2.4,Win32,60
1,right,0.846999884,,,0,,,0,,,1,0,200,136,1,199,0,2,0,2,stim/objects/Instruments/metronome3.png,,0,stim/0.png,0,0,45,2021-01-08_11h04.35.192,premup-three_ses-02_part-03_label-phase3,3.2.4,Win32,60
1,right,1.587999821,,,0,,,0,,,1,0,200,104,1,199,0,1,0,2,stim/objects/HouseObjects/dustpan3.png,,0,stim/0.png,0,0,45,2021-01-08_11h04.35.192,premup-three_ses-02_part-03_label-phase3,3.2.4,Win32,60
1,left,0.769999743,,,0,,,0,,,1,0,200,196,1,199,0,2,0,2,stim/objects/Instruments/hihat4.png,,0,stim/0.png,0,0,45,2021-01-08_11h04.35.192,premup-three_ses-02_part-03_label-phase3,3.2.4,Win32,60
1,right,1.239999771,4,1.27699995,0,3,1.16899991,0,3,1.523999929,1,0,200,13,1,199,1,2,0.5,1,stim/objects/HouseObjects/spraybottle.png,stim/24.jpeg,2,stim/2.png,4,3,45,2021-01-08_11h04.35.192,premup-three_ses-02_part-03_label-phase3,3.2.4,Win32,60
1,right,2.501999855,,,0,,,0,,,1,0,200,187,1,199,0,1,0,2,stim/objects/HouseObjects/iron4.png,,0,stim/0.png,0,0,45,2021-01-08_11h04.35.192,premup-three_ses-02_part-03_label-phase3,3.2.4,Win32,60
1,left,0.843999863,,,0,,,0,,,1,0,200,100,1,199,0,1,0,2,stim/objects/HouseObjects/coffee3.png,,0,stim/0.png,0,0,45,2021-01-08_11h04.35.192,premup-three_ses-02_part-03_label-phase3,3.2.4,Win32,60
1,left,0.97300005,4,0.464999914,0,3,2.171000004,0,3,1.093999863,1,0,200,93,1,199,3,2,0.1,1,stim/objects/Instruments/triangle2.png,stim/62.jpeg,6,stim/6.png,2,2,45,2021-01-08_11h04.35.192,premup-three_ses-02_part-03_label-phase3,3.2.4,Win32,60
1,right,1.085999966,3,0.957999945,0,2,1.683999777,0,3,0.000999928,1,0,200,23,1,199,2,1,0.3,1,stim/objects/HouseObjects/vacuumcleaner.png,stim/34.jpeg,3,stim/3.png,4,3,45,2021-01-08_11h04.35.192,premup-three_ses-02_part-03_label-phase3,3.2.4,Win32,60
1,right,2.899999857,,,0,,,0,,,1,0,200,144,1,199,0,1,0,2,stim/objects/HouseObjects/safetypin3.png,,0,stim/0.png,0,0,45,2021-01-08_11h04.35.192,premup-three_ses-02_part-03_label-phase3,3.2.4,Win32,60
1,right,1.013999939,,,0,,,0,,,1,0,200,166,1,199,0,1,0,2,stim/objects/HouseObjects/cushion4.png,,0,stim/0.png,0,0,45,2021-01-08_11h04.35.192,premup-three_ses-02_part-03_label-phase3,3.2.4,Win32,60
1,left,0.858999968,3,0.869999886,0,2,1.531999826,0,2,1.791000128,1,0,200,18,1,199,1,2,0.5,1,stim/objects/Instruments/triangle.png,stim/23.jpeg,2,stim/2.png,3,2,45,2021-01-08_11h04.35.192,premup-three_ses-02_part-03_label-phase3,3.2.4,Win32,60
1,left,1.16899991,3,0.851999998,0,2,1.536000013,0,3,1.134000063,1,0,200,32,1,199,2,2,0.7,1,stim/objects/Instruments/violin.png,stim/34.jpeg,3,stim/3.png,4,4,45,2021-01-08_11h04.35.192,premup-three_ses-02_part-03_label-phase3,3.2.4,Win32,60
1,right,1.651000023,2,1.121999979,0,3,1.131999969,0,4,1.342999935,1,0,200,8,1,199,1,1,0.5,1,stim/objects/Instruments/record_player.png,stim/11.jpeg,1,stim/1.png,1,3,45,2021-01-08_11h04.35.192,premup-three_ses-02_part-03_label-phase3,3.2.4,Win32,60
1,left,1.088999987,,,0,,,0,,,1,0,200,103,1,199,0,1,0,2,stim/objects/HouseObjects/doormat3.png,,0,stim/0.png,0,0,45,2021-01-08_11h04.35.192,premup-three_ses-02_part-03_label-phase3,3.2.4,Win32,60
1,right,2.25,,,0,,,0,,,1,0,200,175,1,199,0,2,0,2,stim/objects/Instruments/drums4.png,,0,stim/0.png,0,0,45,2021-01-08_11h04.35.192,premup-three_ses-02_part-03_label-phase3,3.2.4,Win32,60
1,left,1.10199976,2,1.180999756,0,3,2.850999832,0,4,1.404999733,1,0,200,73,1,199,3,2,0.9,1,stim/objects/Instruments/musicstand2.png,stim/52.jpeg,5,stim/5.png,2,4,45,2021-01-08_11h04.35.192,premup-three_ses-02_part-03_label-phase3,3.2.4,Win32,60
1,left,0.987999916,4,0.508999825,0,4,4.522999763,0,3,1.582999945,1,0,200,71,1,199,3,2,0.9,1,stim/objects/Instruments/metronome2.png,stim/54.jpeg,5,stim/5.png,4,3,45,2021-01-08_11h04.35.192,premup-three_ses-02_part-03_label-phase3,3.2.4,Win32,60
1,left,3.878000021,3,1.040999889,0,2,2.410000086,0,2,1.792000055,1,0,200,15,1,199,1,2,0.5,1,stim/objects/Instruments/speaker.png,stim/24.jpeg,2,stim/2.png,4,1,45,2021-01-08_11h04.35.192,premup-three_ses-02_part-03_label-phase3,3.2.4,Win32,60
1,left,1.473999739,4,0.414999962,0,4,2.155999899,0,1,1.200999975,1,0,200,75,1,199,3,2,0.9,1,stim/objects/Instruments/panflute2.png,stim/54.jpeg,5,stim/5.png,4,3,45,2021-01-08_11h04.35.192,premup-three_ses-02_part-03_label-phase3,3.2.4,Win32,60
1,left,2.597000122,3,1.27699995,0,2,1.888000011,0,3,1.131000042,1,0,200,91,1,199,3,2,0.1,1,stim/objects/Instruments/tambourine2.png,stim/64.jpeg,6,stim/6.png,4,4,45,2021-01-08_11h04.35.192,premup-three_ses-02_part-03_label-phase3,3.2.4,Win32,60
1,right,0.96999979,2,1.552999973,0,3,1.119999886,0,3,1.329999924,1,0,200,55,1,199,2,2,0.3,1,stim/objects/Instruments/harp2.png,stim/43.jpeg,4,stim/4.png,3,4,45,2021-01-08_11h04.35.192,premup-three_ses-02_part-03_label-phase3,3.2.4,Win32,60
1,right,1.802999973,2,1.052999973,0,3,0.77699995,0,2,1.096999884,1,0,200,53,1,199,2,2,0.3,1,stim/objects/Instruments/guitarcase2.png,stim/41.jpeg,4,stim/4.png,1,4,45,2021-01-08_11h04.35.192,premup-three_ses-02_part-03_label-phase3,3.2.4,Win32,60
1,right,1.942000151,,,0,,,0,,,1,0,200,124,1,199,0,1,0,2,stim/objects/HouseObjects/key3.png,,0,stim/0.png,0,0,45,2021-01-08_11h04.35.192,premup-three_ses-02_part-03_label-phase3,3.2.4,Win32,60
1,right,0.978999853,,,0,,,0,,,1,0,200,163,1,199,0,1,0,2,stim/objects/HouseObjects/vacuumcleaner3.png,,0,stim/0.png,0,0,45,2021-01-08_11h04.35.192,premup-three_ses-02_part-03_label-phase3,3.2.4,Win32,60
1,right,0.833999872,3,1.233999968,0,2,1.447000027,0,3,1.254999876,1,0,200,21,1,199,2,1,0.3,1,stim/objects/HouseObjects/thread.png,stim/32.jpeg,3,stim/3.png,2,1,45,2021-01-08_11h04.35.192,premup-three_ses-02_part-03_label-phase3,3.2.4,Win32,60
1,left,0.973999739,2,1.824999809,0,3,1.638999939,0,4,1.131999969,1,0,200,74,1,199,3,2,0.9,1,stim/objects/Instruments/oboe2.png,stim/53.jpeg,5,stim/5.png,3,4,45,2021-01-08_11h04.35.192,premup-three_ses-02_part-03_label-phase3,3.2.4,Win32,60
1,left,1.381000042,4,0.432999849,0,3,1.677999973,0,1,1.924999952,1,0,200,33,1,199,2,2,0.7,1,stim/objects/Instruments/vuvuzela.png,stim/31.jpeg,3,stim/3.png,1,3,45,2021-01-08_11h04.35.192,premup-three_ses-02_part-03_label-phase3,3.2.4,Win32,60
1,left,1.06099987,3,3.157999754,0,1,1.31099987,0,1,1.112999916,1,0,200,30,1,199,2,2,0.7,1,stim/objects/Instruments/trumpet.png,stim/32.jpeg,3,stim/3.png,2,2,45,2021-01-08_11h04.35.192,premup-three_ses-02_part-03_label-phase3,3.2.4,Win32,60
1,right,1.02699995,4,1.885999918,0,3,1.241999865,0,3,1.430000067,1,0,200,1,1,199,1,1,0.5,1,stim/objects/HouseObjects/remote.png,stim/14.jpeg,1,stim/1.png,4,1,45,2021-01-08_11h04.35.192,premup-three_ses-02_part-03_label-phase3,3.2.4,Win32,60
1,right,0.987999916,,,0,,,0,,,1,0,200,191,1,199,0,2,0,2,stim/objects/Instruments/gong4.png,,0,stim/0.png,0,0,45,2021-01-08_11h04.35.192,premup-three_ses-02_part-03_label-phase3,3.2.4,Win32,60
1,right,0.85199976,,,0,,,0,,,1,0,200,197,1,199,0,2,0,2,stim/objects/Instruments/keyboard4.png,,0,stim/0.png,0,0,45,2021-01-08_11h04.35.192,premup-three_ses-02_part-03_label-phase3,3.2.4,Win32,60
1,right,0.872999907,,,0,,,0,,,1,0,200,118,1,199,0,2,0,2,stim/objects/Instruments/guitarcase3.png,,0,stim/0.png,0,0,45,2021-01-08_11h04.35.192,premup-three_ses-02_part-03_label-phase3,3.2.4,Win32,60
1,right,0.839999914,,,0,,,0,,,1,0,200,178,1,199,0,2,0,2,stim/objects/Instruments/flute4.png,,0,stim/0.png,0,0,45,2021-01-08_11h04.35.192,premup-three_ses-02_part-03_label-phase3,3.2.4,Win32,60
1,right,1.00999999,2,1.248999834,0,3,1.814999819,0,3,1.282999992,1,0,200,57,1,199,2,2,0.3,1,stim/objects/Instruments/keyboard2.png,stim/41.jpeg,4,stim/4.png,1,4,45,2021-01-08_11h04.35.192,premup-three_ses-02_part-03_label-phase3,3.2.4,Win32,60
1,left,3.611000061,,,0,,,0,,,1,0,200,146,1,199,0,1,0,2,stim/objects/HouseObjects/scale3.png,,0,stim/0.png,0,0,45,2021-01-08_11h04.35.192,premup-three_ses-02_part-03_label-phase3,3.2.4,Win32,60
1,right,1.106999874,,,0,,,0,,,1,0,200,164,1,199,0,1,0,2,stim/objects/HouseObjects/wateringcan3.png,,0,stim/0.png,0,0,45,2021-01-08_11h04.35.192,premup-three_ses-02_part-03_label-phase3,3.2.4,Win32,60
1,left,0.705999851,,,0,,,0,,,1,0,200,172,1,199,0,2,0,2,stim/objects/Instruments/violin3.png,,0,stim/0.png,0,0,45,2021-01-08_11h04.35.192,premup-three_ses-02_part-03_label-phase3,3.2.4,Win32,60
1,right,0.917000055,,,0,,,0,,,1,0,200,113,1,199,0,2,0,2,stim/objects/Instruments/flute3.png,,0,stim/0.png,0,0,45,2021-01-08_11h04.35.192,premup-three_ses-02_part-03_label-phase3,3.2.4,Win32,60
1,right,0.812000036,3,1.217000008,0,4,1.282000065,0,3,1.345999956,1,0,200,20,1,199,2,1,0.3,1,stim/objects/HouseObjects/thermometer.png,stim/31.jpeg,3,stim/3.png,1,1,45,2021-01-08_11h04.35.192,premup-three_ses-02_part-03_label-phase3,3.2.4,Win32,60
1,right,0.95299983,2,3.582000017,0,4,1.561999798,0,1,1.68599987,1,0,200,34,1,199,2,2,0.7,1,stim/objects/Instruments/xylophone.png,stim/32.jpeg,3,stim/3.png,2,2,45,2021-01-08_11h04.35.192,premup-three_ses-02_part-03_label-phase3,3.2.4,Win32,60
1,right,2.378999949,,,0,,,0,,,1,0,200,142,1,199,0,1,0,2,stim/objects/HouseObjects/rubbergloves3.png,,0,stim/0.png,0,0,45,2021-01-08_11h04.35.192,premup-three_ses-02_part-03_label-phase3,3.2.4,Win32,60
1,right,0.86500001,,,0,,,0,,,1,0,200,110,1,199,0,2,0,2,stim/objects/Instruments/drums3.png,,0,stim/0.png,0,0,45,2021-01-08_11h04.35.192,premup-three_ses-02_part-03_label-phase3,3.2.4,Win32,60
1,left,0.809999943,3,1.336999893,0,2,1.785000086,0,4,1.740999937,1,0,200,92,1,199,3,2,0.1,1,stim/objects/Instruments/timbal2.png,stim/61.jpeg,6,stim/6.png,1,2,45,2021-01-08_11h04.35.192,premup-three_ses-02_part-03_label-phase3,3.2.4,Win32,60
