key_resp_pract.keys,key_resp_pract.rt,trial_acc,trial_index,practice_loop.thisRepN,practice_loop.thisTrialN,practice_loop.thisN,practice_loop.thisIndex,practice_loop.ran,practice_loop.order,scn_condition,scn_cat,scn_inst,scn_file,obj_cat,obj_cat_num,obj_file,trial_cond,quadrant,obj_x,obj_y,corr_ans,participant,date,expName,psychopyVersion,OS,frameRate,key_resp_trial.keys,key_resp_trial.rt,iterations.thisRepN,iterations.thisTrialN,iterations.thisN,iterations.thisIndex,iterations.ran,iterations.order,task_innerloop.thisRepN,task_innerloop.thisTrialN,task_innerloop.thisN,task_innerloop.thisIndex,task_innerloop.ran,task_innerloop.order,iteration_index,rating_acc,slider.response,slider.rt,slider_2.response,slider_2.rt,ratings.thisRepN,ratings.thisTrialN,ratings.thisN,ratings.thisIndex,ratings.ran,ratings.order,obj_cat_top,min_resp_top,max_resp_top,obj_cat_bottom,min_resp_bottom,max_resp_bottom
,,0,1,1,0,240,136,1,239,2,2,1,stim/21.jpeg,HouseObjects,1,stim/objects/HouseObjects/iron2.png,0.7,1,-0.2,0.15,left,47,2021-01-11_08h17.17.595,premup-three_ses-01_part-01_label-phase1,3.2.4,Win32,60,,,,,,,,,,,,,,,,,,,,,,,,,,,,,,,,
right,1.559000015,0,2,1,0,240,44,1,239,1,6,1,stim/61.jpeg,HouseObjects,1,stim/objects/HouseObjects/lintroller.png,0.5,4,0.2,-0.15,left,47,2021-01-11_08h17.17.595,premup-three_ses-01_part-01_label-phase1,3.2.4,Win32,60,,,,,,,,,,,,,,,,,,,,,,,,,,,,,,,,
left,1.51699996,0,3,1,0,240,26,1,239,1,5,3,stim/53.jpeg,Instruments,2,stim/objects/Instruments/maraca.png,0.5,2,0.2,0.15,right,47,2021-01-11_08h17.17.595,premup-three_ses-01_part-01_label-phase1,3.2.4,Win32,60,,,,,,,,,,,,,,,,,,,,,,,,,,,,,,,,
right,1.690999985,1,4,1,0,240,187,1,239,3,3,4,stim/34.jpeg,Instruments,2,stim/objects/Instruments/oboe2.png,0.9,2,0.2,0.15,right,47,2021-01-11_08h17.17.595,premup-three_ses-01_part-01_label-phase1,3.2.4,Win32,60,,,,,,,,,,,,,,,,,,,,,,,,,,,,,,,,
right,1.397000074,0,5,1,0,240,46,1,239,1,6,3,stim/63.jpeg,HouseObjects,1,stim/objects/HouseObjects/pan.png,0.5,4,0.2,-0.15,left,47,2021-01-11_08h17.17.595,premup-three_ses-01_part-01_label-phase1,3.2.4,Win32,60,,,,,,,,,,,,,,,,,,,,,,,,,,,,,,,,
left,1.285999775,0,6,1,0,240,181,1,239,3,3,2,stim/32.jpeg,Instruments,2,stim/objects/Instruments/musicsheet2.png,0.9,4,0.2,-0.15,right,47,2021-01-11_08h17.17.595,premup-three_ses-01_part-01_label-phase1,3.2.4,Win32,60,,,,,,,,,,,,,,,,,,,,,,,,,,,,,,,,
left,1.778000116,1,7,1,0,240,91,1,239,2,1,4,stim/14.jpeg,HouseObjects,1,stim/objects/HouseObjects/rug.png,0.3,3,-0.2,-0.15,left,47,2021-01-11_08h17.17.595,premup-three_ses-01_part-01_label-phase1,3.2.4,Win32,60,,,,,,,,,,,,,,,,,,,,,,,,,,,,,,,,
right,1.231000185,1,8,1,0,240,178,1,239,3,3,3,stim/33.jpeg,Instruments,2,stim/objects/Instruments/musicstand2.png,0.9,4,0.2,-0.15,right,47,2021-01-11_08h17.17.595,premup-three_ses-01_part-01_label-phase1,3.2.4,Win32,60,,,,,,,,,,,,,,,,,,,,,,,,,,,,,,,,
left,0.930999994,1,9,1,0,240,17,1,239,1,5,2,stim/52.jpeg,HouseObjects,1,stim/objects/HouseObjects/ironingboard.png,0.5,2,0.2,0.15,left,47,2021-01-11_08h17.17.595,premup-three_ses-01_part-01_label-phase1,3.2.4,Win32,60,,,,,,,,,,,,,,,,,,,,,,,,,,,,,,,,
right,0.776000023,0,10,1,0,240,56,1,239,1,6,1,stim/61.jpeg,HouseObjects,1,stim/objects/HouseObjects/lintroller.png,0.5,1,-0.2,0.15,left,47,2021-01-11_08h17.17.595,premup-three_ses-01_part-01_label-phase1,3.2.4,Win32,60,,,,,,,,,,,,,,,,,,,,,,,,,,,,,,,,
,,0,1,,,,,,,2,1,4,stim/14.jpeg,Instruments,2,stim/objects/Instruments/record_player.png,0.7,3,-0.2,-0.15,right,47,2021-01-11_08h17.17.595,premup-three_ses-01_part-01_label-phase1,3.2.4,Win32,60,,,4,0,4,0,1,3,1,0,240,111,1,239,,,,,,,,,,,,,,,,,,
,,1,2,,,,,,,1,6,4,stim/64.jpeg,Instruments,2,stim/objects/Instruments/oboe.png,0.5,3,-0.2,-0.15,right,47,2021-01-11_08h17.17.595,premup-three_ses-01_part-01_label-phase1,3.2.4,Win32,60,right,0.744999886,4,0,4,0,1,3,1,0,240,75,1,239,,,,,,,,,,,,,,,,,,
,,0,3,,,,,,,2,1,1,stim/11.jpeg,Instruments,2,stim/objects/Instruments/panflute.png,0.7,2,0.2,0.15,right,47,2021-01-11_08h17.17.595,premup-three_ses-01_part-01_label-phase1,3.2.4,Win32,60,left,0.878999949,4,0,4,0,1,3,1,0,240,112,1,239,,,,,,,,,,,,,,,,,,
,,1,4,,,,,,,2,1,2,stim/12.jpeg,Instruments,2,stim/objects/Instruments/pipepiano.png,0.7,1,-0.2,0.15,right,47,2021-01-11_08h17.17.595,premup-three_ses-01_part-01_label-phase1,3.2.4,Win32,60,right,0.730999947,4,0,4,0,1,3,1,0,240,113,1,239,,,,,,,,,,,,,,,,,,
,,0,5,,,,,,,1,5,2,stim/52.jpeg,Instruments,2,stim/objects/Instruments/laud.png,0.5,3,-0.2,-0.15,right,47,2021-01-11_08h17.17.595,premup-three_ses-01_part-01_label-phase1,3.2.4,Win32,60,left,0.694999933,4,0,4,0,1,3,1,0,240,25,1,239,,,,,,,,,,,,,,,,,,
,,1,6,,,,,,,3,3,4,stim/34.jpeg,Instruments,2,stim/objects/Instruments/oboe2.png,0.9,3,-0.2,-0.15,right,47,2021-01-11_08h17.17.595,premup-three_ses-01_part-01_label-phase1,3.2.4,Win32,60,right,0.996999979,4,0,4,0,1,3,1,0,240,191,1,239,,,,,,,,,,,,,,,,,,
,,1,7,,,,,,,3,3,4,stim/34.jpeg,Instruments,2,stim/objects/Instruments/oboe2.png,0.9,2,0.2,0.15,right,47,2021-01-11_08h17.17.595,premup-three_ses-01_part-01_label-phase1,3.2.4,Win32,60,right,0.68900013,4,0,4,0,1,3,1,0,240,171,1,239,,,,,,,,,,,,,,,,,,
,,1,8,,,,,,,1,5,4,stim/54.jpeg,Instruments,2,stim/objects/Instruments/marimba.png,0.5,2,0.2,0.15,right,47,2021-01-11_08h17.17.595,premup-three_ses-01_part-01_label-phase1,3.2.4,Win32,60,right,1.144000053,4,0,4,0,1,3,1,0,240,27,1,239,,,,,,,,,,,,,,,,,,
,,1,9,,,,,,,2,2,3,stim/23.jpeg,HouseObjects,1,stim/objects/HouseObjects/key2.png,0.7,1,-0.2,0.15,left,47,2021-01-11_08h17.17.595,premup-three_ses-01_part-01_label-phase1,3.2.4,Win32,60,left,0.995999813,4,0,4,0,1,3,1,0,240,126,1,239,,,,,,,,,,,,,,,,,,
,,1,10,,,,,,,1,6,1,stim/61.jpeg,Instruments,2,stim/objects/Instruments/metronome.png,0.5,3,-0.2,-0.15,right,47,2021-01-11_08h17.17.595,premup-three_ses-01_part-01_label-phase1,3.2.4,Win32,60,right,0.648000002,4,0,4,0,1,3,1,0,240,68,1,239,,,,,,,,,,,,,,,,,,
,,1,11,,,,,,,2,2,3,stim/23.jpeg,HouseObjects,1,stim/objects/HouseObjects/key2.png,0.7,4,0.2,-0.15,left,47,2021-01-11_08h17.17.595,premup-three_ses-01_part-01_label-phase1,3.2.4,Win32,60,left,0.875,4,0,4,0,1,3,1,0,240,122,1,239,,,,,,,,,,,,,,,,,,
,,1,12,,,,,,,3,3,1,stim/31.jpeg,Instruments,2,stim/objects/Instruments/metronome2.png,0.9,3,-0.2,-0.15,right,47,2021-01-11_08h17.17.595,premup-three_ses-01_part-01_label-phase1,3.2.4,Win32,60,right,0.504999876,4,0,4,0,1,3,1,0,240,192,1,239,,,,,,,,,,,,,,,,,,
,,1,13,,,,,,,3,4,1,stim/41.jpeg,Instruments,2,stim/objects/Instruments/panflute2.png,0.1,1,-0.2,0.15,right,47,2021-01-11_08h17.17.595,premup-three_ses-01_part-01_label-phase1,3.2.4,Win32,60,right,1.013999939,4,0,4,0,1,3,1,0,240,236,1,239,,,,,,,,,,,,,,,,,,
,,1,14,,,,,,,2,1,2,stim/12.jpeg,Instruments,2,stim/objects/Instruments/pipepiano.png,0.7,2,0.2,0.15,right,47,2021-01-11_08h17.17.595,premup-three_ses-01_part-01_label-phase1,3.2.4,Win32,60,right,1.413000107,4,0,4,0,1,3,1,0,240,109,1,239,,,,,,,,,,,,,,,,,,
,,0,15,,,,,,,1,6,2,stim/62.jpeg,HouseObjects,1,stim/objects/HouseObjects/match.png,0.5,3,-0.2,-0.15,left,47,2021-01-11_08h17.17.595,premup-three_ses-01_part-01_label-phase1,3.2.4,Win32,60,right,0.852999926,4,0,4,0,1,3,1,0,240,41,1,239,,,,,,,,,,,,,,,,,,
,,0,16,,,,,,,1,6,3,stim/63.jpeg,HouseObjects,1,stim/objects/HouseObjects/pan.png,0.5,4,0.2,-0.15,left,47,2021-01-11_08h17.17.595,premup-three_ses-01_part-01_label-phase1,3.2.4,Win32,60,right,0.733999968,4,0,4,0,1,3,1,0,240,46,1,239,,,,,,,,,,,,,,,,,,
,,1,17,,,,,,,3,3,2,stim/32.jpeg,Instruments,2,stim/objects/Instruments/musicsheet2.png,0.9,4,0.2,-0.15,right,47,2021-01-11_08h17.17.595,premup-three_ses-01_part-01_label-phase1,3.2.4,Win32,60,right,1.355000019,4,0,4,0,1,3,1,0,240,189,1,239,,,,,,,,,,,,,,,,,,
,,1,18,,,,,,,1,5,4,stim/54.jpeg,Instruments,2,stim/objects/Instruments/marimba.png,0.5,4,0.2,-0.15,right,47,2021-01-11_08h17.17.595,premup-three_ses-01_part-01_label-phase1,3.2.4,Win32,60,right,0.786000013,4,0,4,0,1,3,1,0,240,35,1,239,,,,,,,,,,,,,,,,,,
,,1,19,,,,,,,3,3,2,stim/32.jpeg,Instruments,2,stim/objects/Instruments/musicsheet2.png,0.9,1,-0.2,0.15,right,47,2021-01-11_08h17.17.595,premup-three_ses-01_part-01_label-phase1,3.2.4,Win32,60,right,0.698999882,4,0,4,0,1,3,1,0,240,185,1,239,,,,,,,,,,,,,,,,,,
,,0,20,,,,,,,2,1,4,stim/14.jpeg,HouseObjects,1,stim/objects/HouseObjects/rug.png,0.3,3,-0.2,-0.15,left,47,2021-01-11_08h17.17.595,premup-three_ses-01_part-01_label-phase1,3.2.4,Win32,60,right,0.82799983,4,0,4,0,1,3,1,0,240,91,1,239,,,,,,,,,,,,,,,,,,
,,0,21,,,,,,,2,1,4,stim/14.jpeg,Instruments,2,stim/objects/Instruments/record_player.png,0.7,2,0.2,0.15,right,47,2021-01-11_08h17.17.595,premup-three_ses-01_part-01_label-phase1,3.2.4,Win32,60,left,0.832999945,4,0,4,0,1,3,1,0,240,107,1,239,,,,,,,,,,,,,,,,,,
,,0,22,,,,,,,1,6,4,stim/64.jpeg,HouseObjects,1,stim/objects/HouseObjects/pitcher.png,0.5,1,-0.2,0.15,left,47,2021-01-11_08h17.17.595,premup-three_ses-01_part-01_label-phase1,3.2.4,Win32,60,right,1.15899992,4,0,4,0,1,3,1,0,240,55,1,239,,,,,,,,,,,,,,,,,,
,,0,23,,,,,,,1,5,3,stim/53.jpeg,HouseObjects,1,stim/objects/HouseObjects/key.png,0.5,3,-0.2,-0.15,left,47,2021-01-11_08h17.17.595,premup-three_ses-01_part-01_label-phase1,3.2.4,Win32,60,,,4,0,4,0,1,3,1,0,240,10,1,239,,,,,,,,,,,,,,,,,,
,,0,24,,,,,,,3,4,2,stim/42.jpeg,HouseObjects,1,stim/objects/HouseObjects/remote2.png,0.9,1,-0.2,0.15,left,47,2021-01-11_08h17.17.595,premup-three_ses-01_part-01_label-phase1,3.2.4,Win32,60,right,0.954999924,4,0,4,0,1,3,1,0,240,209,1,239,,,,,,,,,,,,,,,,,,
,,0,25,,,,,,,2,1,3,stim/13.jpeg,HouseObjects,1,stim/objects/HouseObjects/rubbergloves.png,0.3,1,-0.2,0.15,left,47,2021-01-11_08h17.17.595,premup-three_ses-01_part-01_label-phase1,3.2.4,Win32,60,right,1.040999889,4,0,4,0,1,3,1,0,240,90,1,239,,,,,,,,,,,,,,,,,,
,,0,26,,,,,,,3,4,1,stim/41.jpeg,HouseObjects,1,stim/objects/HouseObjects/recyclingbin2.png,0.9,1,-0.2,0.15,left,47,2021-01-11_08h17.17.595,premup-three_ses-01_part-01_label-phase1,3.2.4,Win32,60,right,1.080999851,4,0,4,0,1,3,1,0,240,220,1,239,,,,,,,,,,,,,,,,,,
,,1,27,,,,,,,2,2,2,stim/22.jpeg,HouseObjects,1,stim/objects/HouseObjects/ironingboard2.png,0.7,3,-0.2,-0.15,left,47,2021-01-11_08h17.17.595,premup-three_ses-01_part-01_label-phase1,3.2.4,Win32,60,left,0.687999964,4,0,4,0,1,3,1,0,240,129,1,239,,,,,,,,,,,,,,,,,,
,,0,28,,,,,,,3,4,4,stim/44.jpeg,HouseObjects,1,stim/objects/HouseObjects/rug2.png,0.9,4,0.2,-0.15,left,47,2021-01-11_08h17.17.595,premup-three_ses-01_part-01_label-phase1,3.2.4,Win32,60,right,0.93599987,4,0,4,0,1,3,1,0,240,223,1,239,,,,,,,,,,,,,,,,,,
,,0,29,,,,,,,2,1,1,stim/11.jpeg,Instruments,2,stim/objects/Instruments/panflute.png,0.7,2,0.2,0.15,right,47,2021-01-11_08h17.17.595,premup-three_ses-01_part-01_label-phase1,3.2.4,Win32,60,left,0.657999992,4,0,4,0,1,3,1,0,240,96,1,239,,,,,,,,,,,,,,,,,,
,,0,30,,,,,,,2,1,3,stim/13.jpeg,Instruments,2,stim/objects/Instruments/record.png,0.7,1,-0.2,0.15,right,47,2021-01-11_08h17.17.595,premup-three_ses-01_part-01_label-phase1,3.2.4,Win32,60,left,1.279999971,4,0,4,0,1,3,1,0,240,102,1,239,,,,,,,,,,,,,,,,,,
,,1,31,,,,,,,3,3,2,stim/32.jpeg,Instruments,2,stim/objects/Instruments/musicsheet2.png,0.9,4,0.2,-0.15,right,47,2021-01-11_08h17.17.595,premup-three_ses-01_part-01_label-phase1,3.2.4,Win32,60,right,0.944000006,4,0,4,0,1,3,1,0,240,181,1,239,,,,,,,,,,,,,,,,,,
,,0,32,,,,,,,1,6,2,stim/62.jpeg,Instruments,2,stim/objects/Instruments/musicsheet.png,0.5,2,0.2,0.15,right,47,2021-01-11_08h17.17.595,premup-three_ses-01_part-01_label-phase1,3.2.4,Win32,60,left,0.916000128,4,0,4,0,1,3,1,0,240,77,1,239,,,,,,,,,,,,,,,,,,
,,1,33,,,,,,,1,5,2,stim/52.jpeg,HouseObjects,1,stim/objects/HouseObjects/ironingboard.png,0.5,2,0.2,0.15,left,47,2021-01-11_08h17.17.595,premup-three_ses-01_part-01_label-phase1,3.2.4,Win32,60,left,1.494999886,4,0,4,0,1,3,1,0,240,17,1,239,,,,,,,,,,,,,,,,,,
,,1,34,,,,,,,1,5,3,stim/53.jpeg,Instruments,2,stim/objects/Instruments/maraca.png,0.5,4,0.2,-0.15,right,47,2021-01-11_08h17.17.595,premup-three_ses-01_part-01_label-phase1,3.2.4,Win32,60,right,1.071000099,4,0,4,0,1,3,1,0,240,38,1,239,,,,,,,,,,,,,,,,,,
,,0,35,,,,,,,2,1,1,stim/11.jpeg,HouseObjects,1,stim/objects/HouseObjects/recyclingbin.png,0.3,1,-0.2,0.15,left,47,2021-01-11_08h17.17.595,premup-three_ses-01_part-01_label-phase1,3.2.4,Win32,60,right,0.917999983,4,0,4,0,1,3,1,0,240,80,1,239,,,,,,,,,,,,,,,,,,
,,1,36,,,,,,,3,3,1,stim/31.jpeg,Instruments,2,stim/objects/Instruments/metronome2.png,0.9,1,-0.2,0.15,right,47,2021-01-11_08h17.17.595,premup-three_ses-01_part-01_label-phase1,3.2.4,Win32,60,right,1.02699995,4,0,4,0,1,3,1,0,240,196,1,239,,,,,,,,,,,,,,,,,,
,,1,37,,,,,,,3,4,2,stim/42.jpeg,HouseObjects,1,stim/objects/HouseObjects/remote2.png,0.9,3,-0.2,-0.15,left,47,2021-01-11_08h17.17.595,premup-three_ses-01_part-01_label-phase1,3.2.4,Win32,60,left,0.976999998,4,0,4,0,1,3,1,0,240,221,1,239,,,,,,,,,,,,,,,,,,
,,1,38,,,,,,,3,3,3,stim/33.jpeg,Instruments,2,stim/objects/Instruments/musicstand2.png,0.9,2,0.2,0.15,right,47,2021-01-11_08h17.17.595,premup-three_ses-01_part-01_label-phase1,3.2.4,Win32,60,right,0.38499999,4,0,4,0,1,3,1,0,240,174,1,239,,,,,,,,,,,,,,,,,,
,,1,39,,,,,,,1,6,3,stim/63.jpeg,Instruments,2,stim/objects/Instruments/musicstand.png,0.5,4,0.2,-0.15,right,47,2021-01-11_08h17.17.595,premup-three_ses-01_part-01_label-phase1,3.2.4,Win32,60,right,1.528000116,4,0,4,0,1,3,1,0,240,62,1,239,,,,,,,,,,,,,,,,,,
,,1,40,,,,,,,3,3,3,stim/33.jpeg,Instruments,2,stim/objects/Instruments/musicstand2.png,0.9,2,0.2,0.15,right,47,2021-01-11_08h17.17.595,premup-three_ses-01_part-01_label-phase1,3.2.4,Win32,60,right,0.646999836,4,0,4,0,1,3,1,0,240,190,1,239,,,,,,,,,,,,,,,,,,
,,1,41,,,,,,,2,1,4,stim/14.jpeg,Instruments,2,stim/objects/Instruments/record_player.png,0.7,3,-0.2,-0.15,right,47,2021-01-11_08h17.17.595,premup-three_ses-01_part-01_label-phase1,3.2.4,Win32,60,right,0.861999989,4,0,4,0,1,3,1,0,240,103,1,239,,,,,,,,,,,,,,,,,,
,,0,42,,,,,,,2,1,1,stim/11.jpeg,HouseObjects,1,stim/objects/HouseObjects/recyclingbin.png,0.3,2,0.2,0.15,left,47,2021-01-11_08h17.17.595,premup-three_ses-01_part-01_label-phase1,3.2.4,Win32,60,right,0.66899991,4,0,4,0,1,3,1,0,240,88,1,239,,,,,,,,,,,,,,,,,,
,,1,43,,,,,,,2,2,1,stim/21.jpeg,HouseObjects,1,stim/objects/HouseObjects/iron2.png,0.7,1,-0.2,0.15,left,47,2021-01-11_08h17.17.595,premup-three_ses-01_part-01_label-phase1,3.2.4,Win32,60,left,0.604000092,4,0,4,0,1,3,1,0,240,120,1,239,,,,,,,,,,,,,,,,,,
,,1,44,,,,,,,2,2,1,stim/21.jpeg,HouseObjects,1,stim/objects/HouseObjects/iron2.png,0.7,2,0.2,0.15,left,47,2021-01-11_08h17.17.595,premup-three_ses-01_part-01_label-phase1,3.2.4,Win32,60,left,0.467000008,4,0,4,0,1,3,1,0,240,144,1,239,,,,,,,,,,,,,,,,,,
,,1,45,,,,,,,2,2,2,stim/22.jpeg,HouseObjects,1,stim/objects/HouseObjects/ironingboard2.png,0.7,3,-0.2,-0.15,left,47,2021-01-11_08h17.17.595,premup-three_ses-01_part-01_label-phase1,3.2.4,Win32,60,left,0.504999876,4,0,4,0,1,3,1,0,240,137,1,239,,,,,,,,,,,,,,,,,,
,,1,46,,,,,,,3,4,2,stim/42.jpeg,HouseObjects,1,stim/objects/HouseObjects/remote2.png,0.9,3,-0.2,-0.15,left,47,2021-01-11_08h17.17.595,premup-three_ses-01_part-01_label-phase1,3.2.4,Win32,60,left,0.903000116,4,0,4,0,1,3,1,0,240,229,1,239,,,,,,,,,,,,,,,,,,
,,0,47,,,,,,,2,2,2,stim/22.jpeg,Instruments,2,stim/objects/Instruments/laud2.png,0.3,4,0.2,-0.15,right,47,2021-01-11_08h17.17.595,premup-three_ses-01_part-01_label-phase1,3.2.4,Win32,60,left,0.596000195,4,0,4,0,1,3,1,0,240,157,1,239,,,,,,,,,,,,,,,,,,
,,0,48,,,,,,,1,6,1,stim/61.jpeg,HouseObjects,1,stim/objects/HouseObjects/lintroller.png,0.5,2,0.2,0.15,left,47,2021-01-11_08h17.17.595,premup-three_ses-01_part-01_label-phase1,3.2.4,Win32,60,right,0.548000097,4,0,4,0,1,3,1,0,240,52,1,239,,,,,,,,,,,,,,,,,,
,,0,49,,,,,,,3,3,4,stim/34.jpeg,HouseObjects,1,stim/objects/HouseObjects/pitcher2.png,0.1,3,-0.2,-0.15,left,47,2021-01-11_08h17.17.595,premup-three_ses-01_part-01_label-phase1,3.2.4,Win32,60,right,1.018999815,4,0,4,0,1,3,1,0,240,163,1,239,,,,,,,,,,,,,,,,,,
,,1,50,,,,,,,2,1,1,stim/11.jpeg,Instruments,2,stim/objects/Instruments/panflute.png,0.7,1,-0.2,0.15,right,47,2021-01-11_08h17.17.595,premup-three_ses-01_part-01_label-phase1,3.2.4,Win32,60,right,1.210000038,4,0,4,0,1,3,1,0,240,108,1,239,,,,,,,,,,,,,,,,,,
,,1,51,,,,,,,1,5,1,stim/51.jpeg,HouseObjects,1,stim/objects/HouseObjects/iron.png,0.5,1,-0.2,0.15,left,47,2021-01-11_08h17.17.595,premup-three_ses-01_part-01_label-phase1,3.2.4,Win32,60,left,0.786999941,4,0,4,0,1,3,1,0,240,4,1,239,,,,,,,,,,,,,,,,,,
,,1,52,,,,,,,3,4,3,stim/43.jpeg,HouseObjects,1,stim/objects/HouseObjects/rubbergloves2.png,0.9,3,-0.2,-0.15,left,47,2021-01-11_08h17.17.595,premup-three_ses-01_part-01_label-phase1,3.2.4,Win32,60,left,0.577000141,4,0,4,0,1,3,1,0,240,206,1,239,,,,,,,,,,,,,,,,,,
,,1,53,,,,,,,1,5,3,stim/53.jpeg,HouseObjects,1,stim/objects/HouseObjects/key.png,0.5,4,0.2,-0.15,left,47,2021-01-11_08h17.17.595,premup-three_ses-01_part-01_label-phase1,3.2.4,Win32,60,left,0.880999804,4,0,4,0,1,3,1,0,240,6,1,239,,,,,,,,,,,,,,,,,,
,,1,54,,,,,,,2,1,3,stim/13.jpeg,Instruments,2,stim/objects/Instruments/record.png,0.7,4,0.2,-0.15,right,47,2021-01-11_08h17.17.595,premup-three_ses-01_part-01_label-phase1,3.2.4,Win32,60,right,0.669999838,4,0,4,0,1,3,1,0,240,106,1,239,,,,,,,,,,,,,,,,,,
,,1,55,,,,,,,1,6,1,stim/61.jpeg,Instruments,2,stim/objects/Instruments/metronome.png,0.5,3,-0.2,-0.15,right,47,2021-01-11_08h17.17.595,premup-three_ses-01_part-01_label-phase1,3.2.4,Win32,60,right,0.670000076,4,0,4,0,1,3,1,0,240,76,1,239,,,,,,,,,,,,,,,,,,
,,1,56,,,,,,,1,6,1,stim/61.jpeg,Instruments,2,stim/objects/Instruments/metronome.png,0.5,2,0.2,0.15,right,47,2021-01-11_08h17.17.595,premup-three_ses-01_part-01_label-phase1,3.2.4,Win32,60,right,0.52699995,4,0,4,0,1,3,1,0,240,60,1,239,,,,,,,,,,,,,,,,,,
,,1,57,,,,,,,3,4,2,stim/42.jpeg,HouseObjects,1,stim/objects/HouseObjects/remote2.png,0.9,2,0.2,0.15,left,47,2021-01-11_08h17.17.595,premup-three_ses-01_part-01_label-phase1,3.2.4,Win32,60,left,0.704999924,4,0,4,0,1,3,1,0,240,213,1,239,,,,,,,,,,,,,,,,,,
,,1,58,,,,,,,2,2,3,stim/23.jpeg,HouseObjects,1,stim/objects/HouseObjects/key2.png,0.7,2,0.2,0.15,left,47,2021-01-11_08h17.17.595,premup-three_ses-01_part-01_label-phase1,3.2.4,Win32,60,left,0.620000124,4,0,4,0,1,3,1,0,240,146,1,239,,,,,,,,,,,,,,,,,,
,,0,59,,,,,,,2,1,3,stim/13.jpeg,Instruments,2,stim/objects/Instruments/record.png,0.7,2,0.2,0.15,right,47,2021-01-11_08h17.17.595,premup-three_ses-01_part-01_label-phase1,3.2.4,Win32,60,left,1.404999971,4,0,4,0,1,3,1,0,240,98,1,239,,,,,,,,,,,,,,,,,,
,,0,60,,,,,,,2,1,4,stim/14.jpeg,HouseObjects,1,stim/objects/HouseObjects/rug.png,0.3,4,0.2,-0.15,left,47,2021-01-11_08h17.17.595,premup-three_ses-01_part-01_label-phase1,3.2.4,Win32,60,right,0.654999971,4,0,4,0,1,3,1,0,240,83,1,239,,,,,,,,,,,,,,,,,,
,,0,61,,,,,,,1,5,3,stim/53.jpeg,Instruments,2,stim/objects/Instruments/maraca.png,0.5,3,-0.2,-0.15,right,47,2021-01-11_08h17.17.595,premup-three_ses-01_part-01_label-phase1,3.2.4,Win32,60,left,1.604000092,4,0,4,0,1,3,1,0,240,30,1,239,,,,,,,,,,,,,,,,,,
,,0,62,,,,,,,1,6,4,stim/64.jpeg,HouseObjects,1,stim/objects/HouseObjects/pitcher.png,0.5,3,-0.2,-0.15,left,47,2021-01-11_08h17.17.595,premup-three_ses-01_part-01_label-phase1,3.2.4,Win32,60,right,0.493999958,4,0,4,0,1,3,1,0,240,43,1,239,,,,,,,,,,,,,,,,,,
,,1,63,,,,,,,2,2,1,stim/21.jpeg,HouseObjects,1,stim/objects/HouseObjects/iron2.png,0.7,3,-0.2,-0.15,left,47,2021-01-11_08h17.17.595,premup-three_ses-01_part-01_label-phase1,3.2.4,Win32,60,left,0.947000027,4,0,4,0,1,3,1,0,240,140,1,239,,,,,,,,,,,,,,,,,,
,,1,64,,,,,,,1,5,2,stim/52.jpeg,Instruments,2,stim/objects/Instruments/laud.png,0.5,4,0.2,-0.15,right,47,2021-01-11_08h17.17.595,premup-three_ses-01_part-01_label-phase1,3.2.4,Win32,60,right,0.953999996,4,0,4,0,1,3,1,0,240,37,1,239,,,,,,,,,,,,,,,,,,
,,1,65,,,,,,,3,3,3,stim/33.jpeg,Instruments,2,stim/objects/Instruments/musicstand2.png,0.9,4,0.2,-0.15,right,47,2021-01-11_08h17.17.595,premup-three_ses-01_part-01_label-phase1,3.2.4,Win32,60,right,0.758999825,4,0,4,0,1,3,1,0,240,178,1,239,,,,,,,,,,,,,,,,,,
,,1,66,,,,,,,3,3,4,stim/34.jpeg,Instruments,2,stim/objects/Instruments/oboe2.png,0.9,3,-0.2,-0.15,right,47,2021-01-11_08h17.17.595,premup-three_ses-01_part-01_label-phase1,3.2.4,Win32,60,right,0.589000225,4,0,4,0,1,3,1,0,240,195,1,239,,,,,,,,,,,,,,,,,,
,,0,67,,,,,,,1,5,2,stim/52.jpeg,Instruments,2,stim/objects/Instruments/laud.png,0.5,2,0.2,0.15,right,47,2021-01-11_08h17.17.595,premup-three_ses-01_part-01_label-phase1,3.2.4,Win32,60,left,0.747999907,4,0,4,0,1,3,1,0,240,29,1,239,,,,,,,,,,,,,,,,,,
,,1,68,,,,,,,2,2,2,stim/22.jpeg,HouseObjects,1,stim/objects/HouseObjects/ironingboard2.png,0.7,4,0.2,-0.15,left,47,2021-01-11_08h17.17.595,premup-three_ses-01_part-01_label-phase1,3.2.4,Win32,60,left,0.712000132,4,0,4,0,1,3,1,0,240,141,1,239,,,,,,,,,,,,,,,,,,
,,1,69,,,,,,,1,5,4,stim/54.jpeg,HouseObjects,1,stim/objects/HouseObjects/knife.png,0.5,4,0.2,-0.15,left,47,2021-01-11_08h17.17.595,premup-three_ses-01_part-01_label-phase1,3.2.4,Win32,60,left,0.950999975,4,0,4,0,1,3,1,0,240,19,1,239,,,,,,,,,,,,,,,,,,
,,1,70,,,,,,,1,5,4,stim/54.jpeg,HouseObjects,1,stim/objects/HouseObjects/knife.png,0.5,2,0.2,0.15,left,47,2021-01-11_08h17.17.595,premup-three_ses-01_part-01_label-phase1,3.2.4,Win32,60,left,0.566999912,4,0,4,0,1,3,1,0,240,7,1,239,,,,,,,,,,,,,,,,,,
,,1,71,,,,,,,2,2,4,stim/24.jpeg,HouseObjects,1,stim/objects/HouseObjects/knife2.png,0.7,4,0.2,-0.15,left,47,2021-01-11_08h17.17.595,premup-three_ses-01_part-01_label-phase1,3.2.4,Win32,60,left,0.528999805,4,0,4,0,1,3,1,0,240,147,1,239,,,,,,,,,,,,,,,,,,
,,1,72,,,,,,,1,5,2,stim/52.jpeg,HouseObjects,1,stim/objects/HouseObjects/ironingboard.png,0.5,1,-0.2,0.15,left,47,2021-01-11_08h17.17.595,premup-three_ses-01_part-01_label-phase1,3.2.4,Win32,60,left,0.736999989,4,0,4,0,1,3,1,0,240,13,1,239,,,,,,,,,,,,,,,,,,
,,1,73,,,,,,,3,4,2,stim/42.jpeg,HouseObjects,1,stim/objects/HouseObjects/remote2.png,0.9,2,0.2,0.15,left,47,2021-01-11_08h17.17.595,premup-three_ses-01_part-01_label-phase1,3.2.4,Win32,60,left,0.835000038,4,0,4,0,1,3,1,0,240,225,1,239,,,,,,,,,,,,,,,,,,
,,1,74,,,,,,,3,3,4,stim/34.jpeg,Instruments,2,stim/objects/Instruments/oboe2.png,0.9,4,0.2,-0.15,right,47,2021-01-11_08h17.17.595,premup-three_ses-01_part-01_label-phase1,3.2.4,Win32,60,right,0.764999866,4,0,4,0,1,3,1,0,240,167,1,239,,,,,,,,,,,,,,,,,,
,,1,75,,,,,,,3,3,1,stim/31.jpeg,Instruments,2,stim/objects/Instruments/metronome2.png,0.9,2,0.2,0.15,right,47,2021-01-11_08h17.17.595,premup-three_ses-01_part-01_label-phase1,3.2.4,Win32,60,right,0.972000122,4,0,4,0,1,3,1,0,240,180,1,239,,,,,,,,,,,,,,,,,,
,,0,76,,,,,,,1,6,2,stim/62.jpeg,Instruments,2,stim/objects/Instruments/musicsheet.png,0.5,1,-0.2,0.15,right,47,2021-01-11_08h17.17.595,premup-three_ses-01_part-01_label-phase1,3.2.4,Win32,60,left,1.004999876,4,0,4,0,1,3,1,0,240,73,1,239,,,,,,,,,,,,,,,,,,
,,0,77,,,,,,,3,3,3,stim/33.jpeg,HouseObjects,1,stim/objects/HouseObjects/pan2.png,0.1,4,0.2,-0.15,left,47,2021-01-11_08h17.17.595,premup-three_ses-01_part-01_label-phase1,3.2.4,Win32,60,right,0.888999939,4,0,4,0,1,3,1,0,240,162,1,239,,,,,,,,,,,,,,,,,,
,,1,78,,,,,,,2,2,3,stim/23.jpeg,HouseObjects,1,stim/objects/HouseObjects/key2.png,0.7,2,0.2,0.15,left,47,2021-01-11_08h17.17.595,premup-three_ses-01_part-01_label-phase1,3.2.4,Win32,60,left,0.611000061,4,0,4,0,1,3,1,0,240,134,1,239,,,,,,,,,,,,,,,,,,
,,1,79,,,,,,,1,6,3,stim/63.jpeg,HouseObjects,1,stim/objects/HouseObjects/pan.png,0.5,1,-0.2,0.15,left,47,2021-01-11_08h17.17.595,premup-three_ses-01_part-01_label-phase1,3.2.4,Win32,60,left,1.242999792,4,0,4,0,1,3,1,0,240,58,1,239,,,,,,,,,,,,,,,,,,
,,0,80,,,,,,,2,2,1,stim/21.jpeg,HouseObjects,1,stim/objects/HouseObjects/iron2.png,0.7,1,-0.2,0.15,left,47,2021-01-11_08h17.17.595,premup-three_ses-01_part-01_label-phase1,3.2.4,Win32,60,right,0.765000105,4,0,4,0,1,3,1,0,240,132,1,239,,,,,,,,,,,,,,,,,,
,,1,81,,,,,,,3,4,2,stim/42.jpeg,HouseObjects,1,stim/objects/HouseObjects/remote2.png,0.9,1,-0.2,0.15,left,47,2021-01-11_08h17.17.595,premup-three_ses-01_part-01_label-phase1,3.2.4,Win32,60,left,0.768000126,4,0,4,0,1,3,1,0,240,233,1,239,,,,,,,,,,,,,,,,,,
,,1,82,,,,,,,3,4,3,stim/43.jpeg,HouseObjects,1,stim/objects/HouseObjects/rubbergloves2.png,0.9,4,0.2,-0.15,left,47,2021-01-11_08h17.17.595,premup-three_ses-01_part-01_label-phase1,3.2.4,Win32,60,left,0.61500001,4,0,4,0,1,3,1,0,240,222,1,239,,,,,,,,,,,,,,,,,,
,,1,83,,,,,,,2,2,2,stim/22.jpeg,HouseObjects,1,stim/objects/HouseObjects/ironingboard2.png,0.7,4,0.2,-0.15,left,47,2021-01-11_08h17.17.595,premup-three_ses-01_part-01_label-phase1,3.2.4,Win32,60,left,0.725000143,4,0,4,0,1,3,1,0,240,125,1,239,,,,,,,,,,,,,,,,,,
,,0,84,,,,,,,2,1,3,stim/13.jpeg,HouseObjects,1,stim/objects/HouseObjects/rubbergloves.png,0.3,4,0.2,-0.15,left,47,2021-01-11_08h17.17.595,premup-three_ses-01_part-01_label-phase1,3.2.4,Win32,60,right,0.742000103,4,0,4,0,1,3,1,0,240,82,1,239,,,,,,,,,,,,,,,,,,
,,0,85,,,,,,,2,2,1,stim/21.jpeg,Instruments,2,stim/objects/Instruments/keyboard2.png,0.3,2,0.2,0.15,right,47,2021-01-11_08h17.17.595,premup-three_ses-01_part-01_label-phase1,3.2.4,Win32,60,left,0.794000149,4,0,4,0,1,3,1,0,240,148,1,239,,,,,,,,,,,,,,,,,,
,,0,86,,,,,,,3,4,1,stim/41.jpeg,HouseObjects,1,stim/objects/HouseObjects/recyclingbin2.png,0.9,2,0.2,0.15,left,47,2021-01-11_08h17.17.595,premup-three_ses-01_part-01_label-phase1,3.2.4,Win32,60,right,0.928999901,4,0,4,0,1,3,1,0,240,216,1,239,,,,,,,,,,,,,,,,,,
,,1,87,,,,,,,3,4,3,stim/43.jpeg,HouseObjects,1,stim/objects/HouseObjects/rubbergloves2.png,0.9,2,0.2,0.15,left,47,2021-01-11_08h17.17.595,premup-three_ses-01_part-01_label-phase1,3.2.4,Win32,60,left,0.674999952,4,0,4,0,1,3,1,0,240,226,1,239,,,,,,,,,,,,,,,,,,
,,0,88,,,,,,,1,6,1,stim/61.jpeg,HouseObjects,1,stim/objects/HouseObjects/lintroller.png,0.5,1,-0.2,0.15,left,47,2021-01-11_08h17.17.595,premup-three_ses-01_part-01_label-phase1,3.2.4,Win32,60,right,1.002000093,4,0,4,0,1,3,1,0,240,56,1,239,,,,,,,,,,,,,,,,,,
,,1,89,,,,,,,2,2,2,stim/22.jpeg,HouseObjects,1,stim/objects/HouseObjects/ironingboard2.png,0.7,3,-0.2,-0.15,left,47,2021-01-11_08h17.17.595,premup-three_ses-01_part-01_label-phase1,3.2.4,Win32,60,left,0.732000113,4,0,4,0,1,3,1,0,240,145,1,239,,,,,,,,,,,,,,,,,,
,,1,90,,,,,,,2,2,1,stim/21.jpeg,HouseObjects,1,stim/objects/HouseObjects/iron2.png,0.7,1,-0.2,0.15,left,47,2021-01-11_08h17.17.595,premup-three_ses-01_part-01_label-phase1,3.2.4,Win32,60,left,0.576999903,4,0,4,0,1,3,1,0,240,124,1,239,,,,,,,,,,,,,,,,,,
,,1,91,,,,,,,3,3,1,stim/31.jpeg,Instruments,2,stim/objects/Instruments/metronome2.png,0.9,4,0.2,-0.15,right,47,2021-01-11_08h17.17.595,premup-three_ses-01_part-01_label-phase1,3.2.4,Win32,60,right,1.190000057,4,0,4,0,1,3,1,0,240,168,1,239,,,,,,,,,,,,,,,,,,
,,1,92,,,,,,,2,1,4,stim/14.jpeg,HouseObjects,1,stim/objects/HouseObjects/rug.png,0.3,2,0.2,0.15,left,47,2021-01-11_08h17.17.595,premup-three_ses-01_part-01_label-phase1,3.2.4,Win32,60,left,1.486999989,4,0,4,0,1,3,1,0,240,87,1,239,,,,,,,,,,,,,,,,,,
,,0,93,,,,,,,1,6,3,stim/63.jpeg,Instruments,2,stim/objects/Instruments/musicstand.png,0.5,1,-0.2,0.15,right,47,2021-01-11_08h17.17.595,premup-three_ses-01_part-01_label-phase1,3.2.4,Win32,60,left,1.342999935,4,0,4,0,1,3,1,0,240,74,1,239,,,,,,,,,,,,,,,,,,
,,0,94,,,,,,,2,2,1,stim/21.jpeg,Instruments,2,stim/objects/Instruments/keyboard2.png,0.3,4,0.2,-0.15,right,47,2021-01-11_08h17.17.595,premup-three_ses-01_part-01_label-phase1,3.2.4,Win32,60,left,1.171000004,4,0,4,0,1,3,1,0,240,152,1,239,,,,,,,,,,,,,,,,,,
,,0,95,,,,,,,2,2,3,stim/23.jpeg,Instruments,2,stim/objects/Instruments/maraca2.png,0.3,1,-0.2,0.15,right,47,2021-01-11_08h17.17.595,premup-three_ses-01_part-01_label-phase1,3.2.4,Win32,60,left,0.447999954,4,0,4,0,1,3,1,0,240,150,1,239,,,,,,,,,,,,,,,,,,
,,1,96,,,,,,,3,3,2,stim/32.jpeg,Instruments,2,stim/objects/Instruments/musicsheet2.png,0.9,3,-0.2,-0.15,right,47,2021-01-11_08h17.17.595,premup-three_ses-01_part-01_label-phase1,3.2.4,Win32,60,right,0.888000011,4,0,4,0,1,3,1,0,240,169,1,239,,,,,,,,,,,,,,,,,,
,,1,97,,,,,,,3,4,1,stim/41.jpeg,HouseObjects,1,stim/objects/HouseObjects/recyclingbin2.png,0.9,3,-0.2,-0.15,left,47,2021-01-11_08h17.17.595,premup-three_ses-01_part-01_label-phase1,3.2.4,Win32,60,left,0.718999863,4,0,4,0,1,3,1,0,240,212,1,239,,,,,,,,,,,,,,,,,,
,,1,98,,,,,,,3,4,1,stim/41.jpeg,HouseObjects,1,stim/objects/HouseObjects/recyclingbin2.png,0.9,1,-0.2,0.15,left,47,2021-01-11_08h17.17.595,premup-three_ses-01_part-01_label-phase1,3.2.4,Win32,60,left,0.86500001,4,0,4,0,1,3,1,0,240,224,1,239,,,,,,,,,,,,,,,,,,
,,1,99,,,,,,,3,4,4,stim/44.jpeg,HouseObjects,1,stim/objects/HouseObjects/rug2.png,0.9,4,0.2,-0.15,left,47,2021-01-11_08h17.17.595,premup-three_ses-01_part-01_label-phase1,3.2.4,Win32,60,left,0.631000042,4,0,4,0,1,3,1,0,240,215,1,239,,,,,,,,,,,,,,,,,,
,,1,100,,,,,,,1,6,2,stim/62.jpeg,HouseObjects,1,stim/objects/HouseObjects/match.png,0.5,1,-0.2,0.15,left,47,2021-01-11_08h17.17.595,premup-three_ses-01_part-01_label-phase1,3.2.4,Win32,60,left,1.145999908,4,0,4,0,1,3,1,0,240,53,1,239,,,,,,,,,,,,,,,,,,
,,1,101,,,,,,,1,6,2,stim/62.jpeg,HouseObjects,1,stim/objects/HouseObjects/match.png,0.5,4,0.2,-0.15,left,47,2021-01-11_08h17.17.595,premup-three_ses-01_part-01_label-phase1,3.2.4,Win32,60,left,0.858999968,4,0,4,0,1,3,1,0,240,45,1,239,,,,,,,,,,,,,,,,,,
,,1,102,,,,,,,2,1,2,stim/12.jpeg,HouseObjects,1,stim/objects/HouseObjects/remote.png,0.3,1,-0.2,0.15,left,47,2021-01-11_08h17.17.595,premup-three_ses-01_part-01_label-phase1,3.2.4,Win32,60,left,1.670000076,4,0,4,0,1,3,1,0,240,89,1,239,,,,,,,,,,,,,,,,,,
,,0,103,,,,,,,1,5,3,stim/53.jpeg,Instruments,2,stim/objects/Instruments/maraca.png,0.5,2,0.2,0.15,right,47,2021-01-11_08h17.17.595,premup-three_ses-01_part-01_label-phase1,3.2.4,Win32,60,left,1.286000013,4,0,4,0,1,3,1,0,240,34,1,239,,,,,,,,,,,,,,,,,,
,,1,104,,,,,,,1,5,2,stim/52.jpeg,HouseObjects,1,stim/objects/HouseObjects/ironingboard.png,0.5,3,-0.2,-0.15,left,47,2021-01-11_08h17.17.595,premup-three_ses-01_part-01_label-phase1,3.2.4,Win32,60,left,0.782000065,4,0,4,0,1,3,1,0,240,5,1,239,,,,,,,,,,,,,,,,,,
,,0,105,,,,,,,3,3,3,stim/33.jpeg,Instruments,2,stim/objects/Instruments/musicstand2.png,0.9,1,-0.2,0.15,right,47,2021-01-11_08h17.17.595,premup-three_ses-01_part-01_label-phase1,3.2.4,Win32,60,left,1.138000011,4,0,4,0,1,3,1,0,240,194,1,239,,,,,,,,,,,,,,,,,,
,,1,106,,,,,,,1,5,3,stim/53.jpeg,HouseObjects,1,stim/objects/HouseObjects/key.png,0.5,2,0.2,0.15,left,47,2021-01-11_08h17.17.595,premup-three_ses-01_part-01_label-phase1,3.2.4,Win32,60,left,0.893999815,4,0,4,0,1,3,1,0,240,14,1,239,,,,,,,,,,,,,,,,,,
,,1,107,,,,,,,3,3,3,stim/33.jpeg,Instruments,2,stim/objects/Instruments/musicstand2.png,0.9,3,-0.2,-0.15,right,47,2021-01-11_08h17.17.595,premup-three_ses-01_part-01_label-phase1,3.2.4,Win32,60,right,0.882999897,4,0,4,0,1,3,1,0,240,186,1,239,,,,,,,,,,,,,,,,,,
,,1,108,,,,,,,3,4,1,stim/41.jpeg,HouseObjects,1,stim/objects/HouseObjects/recyclingbin2.png,0.9,1,-0.2,0.15,left,47,2021-01-11_08h17.17.595,premup-three_ses-01_part-01_label-phase1,3.2.4,Win32,60,left,0.763000011,4,0,4,0,1,3,1,0,240,200,1,239,,,,,,,,,,,,,,,,,,
,,1,109,,,,,,,3,4,3,stim/43.jpeg,HouseObjects,1,stim/objects/HouseObjects/rubbergloves2.png,0.9,3,-0.2,-0.15,left,47,2021-01-11_08h17.17.595,premup-three_ses-01_part-01_label-phase1,3.2.4,Win32,60,left,1.21600008,4,0,4,0,1,3,1,0,240,230,1,239,,,,,,,,,,,,,,,,,,
,,1,110,,,,,,,2,2,4,stim/24.jpeg,HouseObjects,1,stim/objects/HouseObjects/knife2.png,0.7,2,0.2,0.15,left,47,2021-01-11_08h17.17.595,premup-three_ses-01_part-01_label-phase1,3.2.4,Win32,60,left,0.55099988,4,0,4,0,1,3,1,0,240,131,1,239,,,,,,,,,,,,,,,,,,
,,1,111,,,,,,,3,4,2,stim/42.jpeg,HouseObjects,1,stim/objects/HouseObjects/remote2.png,0.9,1,-0.2,0.15,left,47,2021-01-11_08h17.17.595,premup-three_ses-01_part-01_label-phase1,3.2.4,Win32,60,left,0.809999943,4,0,4,0,1,3,1,0,240,201,1,239,,,,,,,,,,,,,,,,,,
,,0,112,,,,,,,3,4,4,stim/44.jpeg,Instruments,2,stim/objects/Instruments/record_player2.png,0.1,3,-0.2,-0.15,right,47,2021-01-11_08h17.17.595,premup-three_ses-01_part-01_label-phase1,3.2.4,Win32,60,left,0.51699996,4,0,4,0,1,3,1,0,240,239,1,239,,,,,,,,,,,,,,,,,,
,,1,113,,,,,,,3,3,2,stim/32.jpeg,Instruments,2,stim/objects/Instruments/musicsheet2.png,0.9,3,-0.2,-0.15,right,47,2021-01-11_08h17.17.595,premup-three_ses-01_part-01_label-phase1,3.2.4,Win32,60,right,0.692000151,4,0,4,0,1,3,1,0,240,193,1,239,,,,,,,,,,,,,,,,,,
,,0,114,,,,,,,3,4,3,stim/43.jpeg,Instruments,2,stim/objects/Instruments/record2.png,0.1,3,-0.2,-0.15,right,47,2021-01-11_08h17.17.595,premup-three_ses-01_part-01_label-phase1,3.2.4,Win32,60,left,0.631999969,4,0,4,0,1,3,1,0,240,238,1,239,,,,,,,,,,,,,,,,,,
,,0,115,,,,,,,2,2,2,stim/22.jpeg,Instruments,2,stim/objects/Instruments/laud2.png,0.3,3,-0.2,-0.15,right,47,2021-01-11_08h17.17.595,premup-three_ses-01_part-01_label-phase1,3.2.4,Win32,60,left,1.056999922,4,0,4,0,1,3,1,0,240,153,1,239,,,,,,,,,,,,,,,,,,
,,0,116,,,,,,,2,1,4,stim/14.jpeg,Instruments,2,stim/objects/Instruments/record_player.png,0.7,4,0.2,-0.15,right,47,2021-01-11_08h17.17.595,premup-three_ses-01_part-01_label-phase1,3.2.4,Win32,60,left,0.96600008,4,0,4,0,1,3,1,0,240,119,1,239,,,,,,,,,,,,,,,,,,
,,1,117,,,,,,,2,1,1,stim/11.jpeg,HouseObjects,1,stim/objects/HouseObjects/recyclingbin.png,0.3,4,0.2,-0.15,left,47,2021-01-11_08h17.17.595,premup-three_ses-01_part-01_label-phase1,3.2.4,Win32,60,left,1.13499999,4,0,4,0,1,3,1,0,240,84,1,239,,,,,,,,,,,,,,,,,,
,,1,118,,,,,,,3,3,4,stim/34.jpeg,Instruments,2,stim/objects/Instruments/oboe2.png,0.9,2,0.2,0.15,right,47,2021-01-11_08h17.17.595,premup-three_ses-01_part-01_label-phase1,3.2.4,Win32,60,right,1.842999935,4,0,4,0,1,3,1,0,240,187,1,239,,,,,,,,,,,,,,,,,,
,,0,119,,,,,,,3,3,1,stim/31.jpeg,HouseObjects,1,stim/objects/HouseObjects/lintroller2.png,0.1,4,0.2,-0.15,left,47,2021-01-11_08h17.17.595,premup-three_ses-01_part-01_label-phase1,3.2.4,Win32,60,right,0.881999969,4,0,4,0,1,3,1,0,240,160,1,239,,,,,,,,,,,,,,,,,,
,,1,120,,,,,,,3,4,3,stim/43.jpeg,HouseObjects,1,stim/objects/HouseObjects/rubbergloves2.png,0.9,1,-0.2,0.15,left,47,2021-01-11_08h17.17.595,premup-three_ses-01_part-01_label-phase1,3.2.4,Win32,60,left,1.112999916,4,0,4,0,1,3,1,0,240,234,1,239,,,,,,,,,,,,,,,,,,
,,0,121,,,,,,,1,5,4,stim/54.jpeg,Instruments,2,stim/objects/Instruments/marimba.png,0.5,2,0.2,0.15,right,47,2021-01-11_08h17.17.595,premup-three_ses-01_part-01_label-phase1,3.2.4,Win32,60,left,1.072000027,4,0,4,0,1,3,1,0,240,23,1,239,,,,,,,,,,,,,,,,,,
,,0,122,,,,,,,1,6,1,stim/61.jpeg,Instruments,2,stim/objects/Instruments/metronome.png,0.5,2,0.2,0.15,right,47,2021-01-11_08h17.17.595,premup-three_ses-01_part-01_label-phase1,3.2.4,Win32,60,left,1.597999811,4,0,4,0,1,3,1,0,240,64,1,239,,,,,,,,,,,,,,,,,,
,,0,123,,,,,,,2,1,1,stim/11.jpeg,Instruments,2,stim/objects/Instruments/panflute.png,0.7,3,-0.2,-0.15,right,47,2021-01-11_08h17.17.595,premup-three_ses-01_part-01_label-phase1,3.2.4,Win32,60,left,1.268000126,4,0,4,0,1,3,1,0,240,104,1,239,,,,,,,,,,,,,,,,,,
,,1,124,,,,,,,3,4,3,stim/43.jpeg,HouseObjects,1,stim/objects/HouseObjects/rubbergloves2.png,0.9,1,-0.2,0.15,left,47,2021-01-11_08h17.17.595,premup-three_ses-01_part-01_label-phase1,3.2.4,Win32,60,left,1.269999981,4,0,4,0,1,3,1,0,240,210,1,239,,,,,,,,,,,,,,,,,,
,,1,125,,,,,,,3,3,2,stim/32.jpeg,Instruments,2,stim/objects/Instruments/musicsheet2.png,0.9,4,0.2,-0.15,right,47,2021-01-11_08h17.17.595,premup-three_ses-01_part-01_label-phase1,3.2.4,Win32,60,right,1.125999928,4,0,4,0,1,3,1,0,240,197,1,239,,,,,,,,,,,,,,,,,,
,,0,126,,,,,,,3,3,2,stim/32.jpeg,HouseObjects,1,stim/objects/HouseObjects/match2.png,0.1,4,0.2,-0.15,left,47,2021-01-11_08h17.17.595,premup-three_ses-01_part-01_label-phase1,3.2.4,Win32,60,right,0.907999992,4,0,4,0,1,3,1,0,240,161,1,239,,,,,,,,,,,,,,,,,,
,,0,127,,,,,,,1,5,2,stim/52.jpeg,Instruments,2,stim/objects/Instruments/laud.png,0.5,4,0.2,-0.15,right,47,2021-01-11_08h17.17.595,premup-three_ses-01_part-01_label-phase1,3.2.4,Win32,60,left,1.100999832,4,0,4,0,1,3,1,0,240,33,1,239,,,,,,,,,,,,,,,,,,
,,1,128,,,,,,,2,2,4,stim/24.jpeg,HouseObjects,1,stim/objects/HouseObjects/knife2.png,0.7,3,-0.2,-0.15,left,47,2021-01-11_08h17.17.595,premup-three_ses-01_part-01_label-phase1,3.2.4,Win32,60,left,1.155999899,4,0,4,0,1,3,1,0,240,143,1,239,,,,,,,,,,,,,,,,,,
,,0,129,,,,,,,3,3,1,stim/31.jpeg,Instruments,2,stim/objects/Instruments/metronome2.png,0.9,3,-0.2,-0.15,right,47,2021-01-11_08h17.17.595,premup-three_ses-01_part-01_label-phase1,3.2.4,Win32,60,,,4,0,4,0,1,3,1,0,240,184,1,239,,,,,,,,,,,,,,,,,,
,,0,130,,,,,,,1,5,1,stim/51.jpeg,Instruments,2,stim/objects/Instruments/keyboard.png,0.5,4,0.2,-0.15,right,47,2021-01-11_08h17.17.595,premup-three_ses-01_part-01_label-phase1,3.2.4,Win32,60,left,1.596999884,4,0,4,0,1,3,1,0,240,20,1,239,,,,,,,,,,,,,,,,,,
,,1,131,,,,,,,2,2,3,stim/23.jpeg,HouseObjects,1,stim/objects/HouseObjects/key2.png,0.7,1,-0.2,0.15,left,47,2021-01-11_08h17.17.595,premup-three_ses-01_part-01_label-phase1,3.2.4,Win32,60,left,0.771000147,4,0,4,0,1,3,1,0,240,138,1,239,,,,,,,,,,,,,,,,,,
,,1,132,,,,,,,3,4,2,stim/42.jpeg,HouseObjects,1,stim/objects/HouseObjects/remote2.png,0.9,4,0.2,-0.15,left,47,2021-01-11_08h17.17.595,premup-three_ses-01_part-01_label-phase1,3.2.4,Win32,60,left,1.428999901,4,0,4,0,1,3,1,0,240,217,1,239,,,,,,,,,,,,,,,,,,
,,0,133,,,,,,,2,1,4,stim/14.jpeg,Instruments,2,stim/objects/Instruments/record_player.png,0.7,4,0.2,-0.15,right,47,2021-01-11_08h17.17.595,premup-three_ses-01_part-01_label-phase1,3.2.4,Win32,60,left,1.076999903,4,0,4,0,1,3,1,0,240,115,1,239,,,,,,,,,,,,,,,,,,
,,1,134,,,,,,,3,4,4,stim/44.jpeg,HouseObjects,1,stim/objects/HouseObjects/rug2.png,0.9,4,0.2,-0.15,left,47,2021-01-11_08h17.17.595,premup-three_ses-01_part-01_label-phase1,3.2.4,Win32,60,left,0.713999987,4,0,4,0,1,3,1,0,240,211,1,239,,,,,,,,,,,,,,,,,,
,,1,135,,,,,,,2,2,1,stim/21.jpeg,HouseObjects,1,stim/objects/HouseObjects/iron2.png,0.7,2,0.2,0.15,left,47,2021-01-11_08h17.17.595,premup-three_ses-01_part-01_label-phase1,3.2.4,Win32,60,left,0.703000069,4,0,4,0,1,3,1,0,240,128,1,239,,,,,,,,,,,,,,,,,,
,,1,136,,,,,,,3,3,1,stim/31.jpeg,Instruments,2,stim/objects/Instruments/metronome2.png,0.9,3,-0.2,-0.15,right,47,2021-01-11_08h17.17.595,premup-three_ses-01_part-01_label-phase1,3.2.4,Win32,60,right,0.993000031,4,0,4,0,1,3,1,0,240,188,1,239,,,,,,,,,,,,,,,,,,
,,0,137,,,,,,,1,5,2,stim/52.jpeg,Instruments,2,stim/objects/Instruments/laud.png,0.5,2,0.2,0.15,right,47,2021-01-11_08h17.17.595,premup-three_ses-01_part-01_label-phase1,3.2.4,Win32,60,left,0.618000031,4,0,4,0,1,3,1,0,240,21,1,239,,,,,,,,,,,,,,,,,,
,,0,138,,,,,,,2,1,2,stim/12.jpeg,Instruments,2,stim/objects/Instruments/pipepiano.png,0.7,3,-0.2,-0.15,right,47,2021-01-11_08h17.17.595,premup-three_ses-01_part-01_label-phase1,3.2.4,Win32,60,left,1.246000051,4,0,4,0,1,3,1,0,240,101,1,239,,,,,,,,,,,,,,,,,,
,,0,139,,,,,,,2,1,4,stim/14.jpeg,Instruments,2,stim/objects/Instruments/record_player.png,0.7,3,-0.2,-0.15,right,47,2021-01-11_08h17.17.595,premup-three_ses-01_part-01_label-phase1,3.2.4,Win32,60,left,0.678999901,4,0,4,0,1,3,1,0,240,95,1,239,,,,,,,,,,,,,,,,,,
,,1,140,,,,,,,1,5,4,stim/54.jpeg,HouseObjects,1,stim/objects/HouseObjects/knife.png,0.5,1,-0.2,0.15,left,47,2021-01-11_08h17.17.595,premup-three_ses-01_part-01_label-phase1,3.2.4,Win32,60,left,0.746999979,4,0,4,0,1,3,1,0,240,11,1,239,,,,,,,,,,,,,,,,,,
,,1,141,,,,,,,3,3,3,stim/33.jpeg,Instruments,2,stim/objects/Instruments/musicstand2.png,0.9,2,0.2,0.15,right,47,2021-01-11_08h17.17.595,premup-three_ses-01_part-01_label-phase1,3.2.4,Win32,60,right,0.843999863,4,0,4,0,1,3,1,0,240,166,1,239,,,,,,,,,,,,,,,,,,
,,0,142,,,,,,,2,2,3,stim/23.jpeg,Instruments,2,stim/objects/Instruments/maraca2.png,0.3,2,0.2,0.15,right,47,2021-01-11_08h17.17.595,premup-three_ses-01_part-01_label-phase1,3.2.4,Win32,60,left,0.59100008,4,0,4,0,1,3,1,0,240,154,1,239,,,,,,,,,,,,,,,,,,
,,1,143,,,,,,,1,5,1,stim/51.jpeg,HouseObjects,1,stim/objects/HouseObjects/iron.png,0.5,2,0.2,0.15,left,47,2021-01-11_08h17.17.595,premup-three_ses-01_part-01_label-phase1,3.2.4,Win32,60,left,0.894000053,4,0,4,0,1,3,1,0,240,12,1,239,,,,,,,,,,,,,,,,,,
,,1,144,,,,,,,3,4,2,stim/42.jpeg,HouseObjects,1,stim/objects/HouseObjects/remote2.png,0.9,3,-0.2,-0.15,left,47,2021-01-11_08h17.17.595,premup-three_ses-01_part-01_label-phase1,3.2.4,Win32,60,left,0.832000017,4,0,4,0,1,3,1,0,240,205,1,239,,,,,,,,,,,,,,,,,,
,,1,145,,,,,,,1,6,3,stim/63.jpeg,Instruments,2,stim/objects/Instruments/musicstand.png,0.5,2,0.2,0.15,right,47,2021-01-11_08h17.17.595,premup-three_ses-01_part-01_label-phase1,3.2.4,Win32,60,right,0.707999945,4,0,4,0,1,3,1,0,240,78,1,239,,,,,,,,,,,,,,,,,,
,,0,146,,,,,,,1,6,1,stim/61.jpeg,Instruments,2,stim/objects/Instruments/metronome.png,0.5,1,-0.2,0.15,right,47,2021-01-11_08h17.17.595,premup-three_ses-01_part-01_label-phase1,3.2.4,Win32,60,left,0.936000109,4,0,4,0,1,3,1,0,240,72,1,239,,,,,,,,,,,,,,,,,,
,,1,147,,,,,,,1,5,4,stim/54.jpeg,HouseObjects,1,stim/objects/HouseObjects/knife.png,0.5,4,0.2,-0.15,left,47,2021-01-11_08h17.17.595,premup-three_ses-01_part-01_label-phase1,3.2.4,Win32,60,left,0.569999933,4,0,4,0,1,3,1,0,240,3,1,239,,,,,,,,,,,,,,,,,,
,,1,148,,,,,,,3,3,4,stim/34.jpeg,Instruments,2,stim/objects/Instruments/oboe2.png,0.9,1,-0.2,0.15,right,47,2021-01-11_08h17.17.595,premup-three_ses-01_part-01_label-phase1,3.2.4,Win32,60,right,0.767000198,4,0,4,0,1,3,1,0,240,199,1,239,,,,,,,,,,,,,,,,,,
,,0,149,,,,,,,1,6,2,stim/62.jpeg,Instruments,2,stim/objects/Instruments/musicsheet.png,0.5,2,0.2,0.15,right,47,2021-01-11_08h17.17.595,premup-three_ses-01_part-01_label-phase1,3.2.4,Win32,60,left,1.070999861,4,0,4,0,1,3,1,0,240,65,1,239,,,,,,,,,,,,,,,,,,
,,1,150,,,,,,,1,5,1,stim/51.jpeg,HouseObjects,1,stim/objects/HouseObjects/iron.png,0.5,3,-0.2,-0.15,left,47,2021-01-11_08h17.17.595,premup-three_ses-01_part-01_label-phase1,3.2.4,Win32,60,left,0.875,4,0,4,0,1,3,1,0,240,0,1,239,,,,,,,,,,,,,,,,,,
,,1,151,,,,,,,2,2,4,stim/24.jpeg,HouseObjects,1,stim/objects/HouseObjects/knife2.png,0.7,4,0.2,-0.15,left,47,2021-01-11_08h17.17.595,premup-three_ses-01_part-01_label-phase1,3.2.4,Win32,60,left,0.679000139,4,0,4,0,1,3,1,0,240,123,1,239,,,,,,,,,,,,,,,,,,
,,1,152,,,,,,,2,1,4,stim/14.jpeg,Instruments,2,stim/objects/Instruments/record_player.png,0.7,1,-0.2,0.15,right,47,2021-01-11_08h17.17.595,premup-three_ses-01_part-01_label-phase1,3.2.4,Win32,60,right,0.766000032,4,0,4,0,1,3,1,0,240,99,1,239,,,,,,,,,,,,,,,,,,
,,1,153,,,,,,,2,2,2,stim/22.jpeg,HouseObjects,1,stim/objects/HouseObjects/ironingboard2.png,0.7,3,-0.2,-0.15,left,47,2021-01-11_08h17.17.595,premup-three_ses-01_part-01_label-phase1,3.2.4,Win32,60,left,0.577000141,4,0,4,0,1,3,1,0,240,121,1,239,,,,,,,,,,,,,,,,,,
,,1,154,,,,,,,1,6,3,stim/63.jpeg,Instruments,2,stim/objects/Instruments/musicstand.png,0.5,3,-0.2,-0.15,right,47,2021-01-11_08h17.17.595,premup-three_ses-01_part-01_label-phase1,3.2.4,Win32,60,right,0.641000032,4,0,4,0,1,3,1,0,240,70,1,239,,,,,,,,,,,,,,,,,,
,,0,155,,,,,,,1,5,4,stim/54.jpeg,Instruments,2,stim/objects/Instruments/marimba.png,0.5,3,-0.2,-0.15,right,47,2021-01-11_08h17.17.595,premup-three_ses-01_part-01_label-phase1,3.2.4,Win32,60,left,0.643000126,4,0,4,0,1,3,1,0,240,31,1,239,,,,,,,,,,,,,,,,,,
,,1,156,,,,,,,2,2,4,stim/24.jpeg,HouseObjects,1,stim/objects/HouseObjects/knife2.png,0.7,2,0.2,0.15,left,47,2021-01-11_08h17.17.595,premup-three_ses-01_part-01_label-phase1,3.2.4,Win32,60,left,0.654000044,4,0,4,0,1,3,1,0,240,135,1,239,,,,,,,,,,,,,,,,,,
,,0,157,,,,,,,2,2,1,stim/21.jpeg,Instruments,2,stim/objects/Instruments/keyboard2.png,0.3,4,0.2,-0.15,right,47,2021-01-11_08h17.17.595,premup-three_ses-01_part-01_label-phase1,3.2.4,Win32,60,left,0.643000126,4,0,4,0,1,3,1,0,240,156,1,239,,,,,,,,,,,,,,,,,,
,,0,158,,,,,,,1,5,1,stim/51.jpeg,Instruments,2,stim/objects/Instruments/keyboard.png,0.5,1,-0.2,0.15,right,47,2021-01-11_08h17.17.595,premup-three_ses-01_part-01_label-phase1,3.2.4,Win32,60,left,1.853000164,4,0,4,0,1,3,1,0,240,24,1,239,,,,,,,,,,,,,,,,,,
,,1,159,,,,,,,2,1,3,stim/13.jpeg,Instruments,2,stim/objects/Instruments/record.png,0.7,4,0.2,-0.15,right,47,2021-01-11_08h17.17.595,premup-three_ses-01_part-01_label-phase1,3.2.4,Win32,60,right,0.879999876,4,0,4,0,1,3,1,0,240,94,1,239,,,,,,,,,,,,,,,,,,
,,1,160,,,,,,,3,3,1,stim/31.jpeg,Instruments,2,stim/objects/Instruments/metronome2.png,0.9,1,-0.2,0.15,right,47,2021-01-11_08h17.17.595,premup-three_ses-01_part-01_label-phase1,3.2.4,Win32,60,right,0.917000055,4,0,4,0,1,3,1,0,240,164,1,239,,,,,,,,,,,,,,,,,,
,,0,161,,,,,,,2,2,2,stim/22.jpeg,Instruments,2,stim/objects/Instruments/laud2.png,0.3,4,0.2,-0.15,right,47,2021-01-11_08h17.17.595,premup-three_ses-01_part-01_label-phase1,3.2.4,Win32,60,left,0.609999895,4,0,4,0,1,3,1,0,240,149,1,239,,,,,,,,,,,,,,,,,,
,,1,162,,,,,,,2,2,4,stim/24.jpeg,HouseObjects,1,stim/objects/HouseObjects/knife2.png,0.7,3,-0.2,-0.15,left,47,2021-01-11_08h17.17.595,premup-three_ses-01_part-01_label-phase1,3.2.4,Win32,60,left,0.594000101,4,0,4,0,1,3,1,0,240,139,1,239,,,,,,,,,,,,,,,,,,
,,0,163,,,,,,,1,6,4,stim/64.jpeg,HouseObjects,1,stim/objects/HouseObjects/pitcher.png,0.5,3,-0.2,-0.15,left,47,2021-01-11_08h17.17.595,premup-three_ses-01_part-01_label-phase1,3.2.4,Win32,60,right,0.94299984,4,0,4,0,1,3,1,0,240,47,1,239,,,,,,,,,,,,,,,,,,
,,0,164,,,,,,,1,6,3,stim/63.jpeg,HouseObjects,1,stim/objects/HouseObjects/pan.png,0.5,1,-0.2,0.15,left,47,2021-01-11_08h17.17.595,premup-three_ses-01_part-01_label-phase1,3.2.4,Win32,60,right,0.777999878,4,0,4,0,1,3,1,0,240,42,1,239,,,,,,,,,,,,,,,,,,
,,1,165,,,,,,,1,5,1,stim/51.jpeg,HouseObjects,1,stim/objects/HouseObjects/iron.png,0.5,1,-0.2,0.15,left,47,2021-01-11_08h17.17.595,premup-three_ses-01_part-01_label-phase1,3.2.4,Win32,60,left,0.633999825,4,0,4,0,1,3,1,0,240,8,1,239,,,,,,,,,,,,,,,,,,
,,1,166,,,,,,,2,1,2,stim/12.jpeg,HouseObjects,1,stim/objects/HouseObjects/remote.png,0.3,2,0.2,0.15,left,47,2021-01-11_08h17.17.595,premup-three_ses-01_part-01_label-phase1,3.2.4,Win32,60,left,0.874000072,4,0,4,0,1,3,1,0,240,85,1,239,,,,,,,,,,,,,,,,,,
,,1,167,,,,,,,3,4,1,stim/41.jpeg,HouseObjects,1,stim/objects/HouseObjects/recyclingbin2.png,0.9,1,-0.2,0.15,left,47,2021-01-11_08h17.17.595,premup-three_ses-01_part-01_label-phase1,3.2.4,Win32,60,left,0.698999882,4,0,4,0,1,3,1,0,240,208,1,239,,,,,,,,,,,,,,,,,,
,,0,168,,,,,,,1,5,1,stim/51.jpeg,Instruments,2,stim/objects/Instruments/keyboard.png,0.5,4,0.2,-0.15,right,47,2021-01-11_08h17.17.595,premup-three_ses-01_part-01_label-phase1,3.2.4,Win32,60,left,0.765000105,4,0,4,0,1,3,1,0,240,28,1,239,,,,,,,,,,,,,,,,,,
,,1,169,,,,,,,3,3,2,stim/32.jpeg,Instruments,2,stim/objects/Instruments/musicsheet2.png,0.9,4,0.2,-0.15,right,47,2021-01-11_08h17.17.595,premup-three_ses-01_part-01_label-phase1,3.2.4,Win32,60,right,0.796000004,4,0,4,0,1,3,1,0,240,177,1,239,,,,,,,,,,,,,,,,,,
,,1,170,,,,,,,3,4,1,stim/41.jpeg,HouseObjects,1,stim/objects/HouseObjects/recyclingbin2.png,0.9,1,-0.2,0.15,left,47,2021-01-11_08h17.17.595,premup-three_ses-01_part-01_label-phase1,3.2.4,Win32,60,left,1.109999895,4,0,4,0,1,3,1,0,240,228,1,239,,,,,,,,,,,,,,,,,,
,,1,171,,,,,,,3,4,1,stim/41.jpeg,HouseObjects,1,stim/objects/HouseObjects/recyclingbin2.png,0.9,3,-0.2,-0.15,left,47,2021-01-11_08h17.17.595,premup-three_ses-01_part-01_label-phase1,3.2.4,Win32,60,left,0.695999861,4,0,4,0,1,3,1,0,240,232,1,239,,,,,,,,,,,,,,,,,,
,,1,172,,,,,,,3,4,4,stim/44.jpeg,HouseObjects,1,stim/objects/HouseObjects/rug2.png,0.9,2,0.2,0.15,left,47,2021-01-11_08h17.17.595,premup-three_ses-01_part-01_label-phase1,3.2.4,Win32,60,left,0.881000042,4,0,4,0,1,3,1,0,240,219,1,239,,,,,,,,,,,,,,,,,,
,,0,173,,,,,,,1,5,1,stim/51.jpeg,Instruments,2,stim/objects/Instruments/keyboard.png,0.5,1,-0.2,0.15,right,47,2021-01-11_08h17.17.595,premup-three_ses-01_part-01_label-phase1,3.2.4,Win32,60,left,0.710999966,4,0,4,0,1,3,1,0,240,32,1,239,,,,,,,,,,,,,,,,,,
,,0,174,,,,,,,1,6,4,stim/64.jpeg,HouseObjects,1,stim/objects/HouseObjects/pitcher.png,0.5,4,0.2,-0.15,left,47,2021-01-11_08h17.17.595,premup-three_ses-01_part-01_label-phase1,3.2.4,Win32,60,right,0.754000187,4,0,4,0,1,3,1,0,240,51,1,239,,,,,,,,,,,,,,,,,,
,,1,175,,,,,,,1,5,2,stim/52.jpeg,HouseObjects,1,stim/objects/HouseObjects/ironingboard.png,0.5,2,0.2,0.15,left,47,2021-01-11_08h17.17.595,premup-three_ses-01_part-01_label-phase1,3.2.4,Win32,60,left,1.309000015,4,0,4,0,1,3,1,0,240,9,1,239,,,,,,,,,,,,,,,,,,
,,0,176,,,,,,,2,1,2,stim/12.jpeg,HouseObjects,1,stim/objects/HouseObjects/remote.png,0.3,2,0.2,0.15,left,47,2021-01-11_08h17.17.595,premup-three_ses-01_part-01_label-phase1,3.2.4,Win32,60,right,0.887000084,4,0,4,0,1,3,1,0,240,81,1,239,,,,,,,,,,,,,,,,,,
,,0,177,,,,,,,1,6,1,stim/61.jpeg,HouseObjects,1,stim/objects/HouseObjects/lintroller.png,0.5,4,0.2,-0.15,left,47,2021-01-11_08h17.17.595,premup-three_ses-01_part-01_label-phase1,3.2.4,Win32,60,right,1.111999989,4,0,4,0,1,3,1,0,240,44,1,239,,,,,,,,,,,,,,,,,,
,,1,178,,,,,,,1,6,1,stim/61.jpeg,HouseObjects,1,stim/objects/HouseObjects/lintroller.png,0.5,4,0.2,-0.15,left,47,2021-01-11_08h17.17.595,premup-three_ses-01_part-01_label-phase1,3.2.4,Win32,60,left,1.010999918,4,0,4,0,1,3,1,0,240,40,1,239,,,,,,,,,,,,,,,,,,
,,1,179,,,,,,,3,4,4,stim/44.jpeg,HouseObjects,1,stim/objects/HouseObjects/rug2.png,0.9,1,-0.2,0.15,left,47,2021-01-11_08h17.17.595,premup-three_ses-01_part-01_label-phase1,3.2.4,Win32,60,left,1.088999987,4,0,4,0,1,3,1,0,240,207,1,239,,,,,,,,,,,,,,,,,,
,,1,180,,,,,,,3,4,3,stim/43.jpeg,HouseObjects,1,stim/objects/HouseObjects/rubbergloves2.png,0.9,2,0.2,0.15,left,47,2021-01-11_08h17.17.595,premup-three_ses-01_part-01_label-phase1,3.2.4,Win32,60,left,0.659999847,4,0,4,0,1,3,1,0,240,214,1,239,,,,,,,,,,,,,,,,,,
,,1,181,,,,,,,1,5,4,stim/54.jpeg,HouseObjects,1,stim/objects/HouseObjects/knife.png,0.5,3,-0.2,-0.15,left,47,2021-01-11_08h17.17.595,premup-three_ses-01_part-01_label-phase1,3.2.4,Win32,60,left,0.620999813,4,0,4,0,1,3,1,0,240,15,1,239,,,,,,,,,,,,,,,,,,
,,0,182,,,,,,,2,1,1,stim/11.jpeg,Instruments,2,stim/objects/Instruments/panflute.png,0.7,1,-0.2,0.15,right,47,2021-01-11_08h17.17.595,premup-three_ses-01_part-01_label-phase1,3.2.4,Win32,60,left,0.601999998,4,0,4,0,1,3,1,0,240,92,1,239,,,,,,,,,,,,,,,,,,
,,1,183,,,,,,,1,5,3,stim/53.jpeg,HouseObjects,1,stim/objects/HouseObjects/key.png,0.5,4,0.2,-0.15,left,47,2021-01-11_08h17.17.595,premup-three_ses-01_part-01_label-phase1,3.2.4,Win32,60,left,0.778000116,4,0,4,0,1,3,1,0,240,18,1,239,,,,,,,,,,,,,,,,,,
,,0,184,,,,,,,2,1,1,stim/11.jpeg,Instruments,2,stim/objects/Instruments/panflute.png,0.7,3,-0.2,-0.15,right,47,2021-01-11_08h17.17.595,premup-three_ses-01_part-01_label-phase1,3.2.4,Win32,60,left,0.578000069,4,0,4,0,1,3,1,0,240,116,1,239,,,,,,,,,,,,,,,,,,
,,1,185,,,,,,,1,5,3,stim/53.jpeg,HouseObjects,1,stim/objects/HouseObjects/key.png,0.5,1,-0.2,0.15,left,47,2021-01-11_08h17.17.595,premup-three_ses-01_part-01_label-phase1,3.2.4,Win32,60,left,0.980999947,4,0,4,0,1,3,1,0,240,2,1,239,,,,,,,,,,,,,,,,,,
,,1,186,,,,,,,3,3,4,stim/34.jpeg,Instruments,2,stim/objects/Instruments/oboe2.png,0.9,2,0.2,0.15,right,47,2021-01-11_08h17.17.595,premup-three_ses-01_part-01_label-phase1,3.2.4,Win32,60,right,0.864000082,4,0,4,0,1,3,1,0,240,175,1,239,,,,,,,,,,,,,,,,,,
,,1,187,,,,,,,2,1,3,stim/13.jpeg,Instruments,2,stim/objects/Instruments/record.png,0.7,1,-0.2,0.15,right,47,2021-01-11_08h17.17.595,premup-three_ses-01_part-01_label-phase1,3.2.4,Win32,60,right,1.06400013,4,0,4,0,1,3,1,0,240,118,1,239,,,,,,,,,,,,,,,,,,
,,1,188,,,,,,,2,1,2,stim/12.jpeg,Instruments,2,stim/objects/Instruments/pipepiano.png,0.7,2,0.2,0.15,right,47,2021-01-11_08h17.17.595,premup-three_ses-01_part-01_label-phase1,3.2.4,Win32,60,right,1.087000132,4,0,4,0,1,3,1,0,240,105,1,239,,,,,,,,,,,,,,,,,,
,,1,189,,,,,,,2,1,3,stim/13.jpeg,Instruments,2,stim/objects/Instruments/record.png,0.7,4,0.2,-0.15,right,47,2021-01-11_08h17.17.595,premup-three_ses-01_part-01_label-phase1,3.2.4,Win32,60,right,0.907999992,4,0,4,0,1,3,1,0,240,114,1,239,,,,,,,,,,,,,,,,,,
,,1,190,,,,,,,3,3,4,stim/34.jpeg,Instruments,2,stim/objects/Instruments/oboe2.png,0.9,1,-0.2,0.15,right,47,2021-01-11_08h17.17.595,premup-three_ses-01_part-01_label-phase1,3.2.4,Win32,60,right,0.95299983,4,0,4,0,1,3,1,0,240,183,1,239,,,,,,,,,,,,,,,,,,
,,1,191,,,,,,,1,6,2,stim/62.jpeg,HouseObjects,1,stim/objects/HouseObjects/match.png,0.5,3,-0.2,-0.15,left,47,2021-01-11_08h17.17.595,premup-three_ses-01_part-01_label-phase1,3.2.4,Win32,60,left,1.282000065,4,0,4,0,1,3,1,0,240,57,1,239,,,,,,,,,,,,,,,,,,
,,1,192,,,,,,,3,3,1,stim/31.jpeg,Instruments,2,stim/objects/Instruments/metronome2.png,0.9,2,0.2,0.15,right,47,2021-01-11_08h17.17.595,premup-three_ses-01_part-01_label-phase1,3.2.4,Win32,60,right,0.664000034,4,0,4,0,1,3,1,0,240,176,1,239,,,,,,,,,,,,,,,,,,
,,0,193,,,,,,,1,6,4,stim/64.jpeg,HouseObjects,1,stim/objects/HouseObjects/pitcher.png,0.5,4,0.2,-0.15,left,47,2021-01-11_08h17.17.595,premup-three_ses-01_part-01_label-phase1,3.2.4,Win32,60,right,0.710000038,4,0,4,0,1,3,1,0,240,59,1,239,,,,,,,,,,,,,,,,,,
,,1,194,,,,,,,1,5,2,stim/52.jpeg,HouseObjects,1,stim/objects/HouseObjects/ironingboard.png,0.5,2,0.2,0.15,left,47,2021-01-11_08h17.17.595,premup-three_ses-01_part-01_label-phase1,3.2.4,Win32,60,left,1.111000061,4,0,4,0,1,3,1,0,240,1,1,239,,,,,,,,,,,,,,,,,,
,,0,195,,,,,,,2,2,4,stim/24.jpeg,Instruments,2,stim/objects/Instruments/marimba2.png,0.3,2,0.2,0.15,right,47,2021-01-11_08h17.17.595,premup-three_ses-01_part-01_label-phase1,3.2.4,Win32,60,left,0.769000053,4,0,4,0,1,3,1,0,240,155,1,239,,,,,,,,,,,,,,,,,,
,,0,196,,,,,,,1,5,4,stim/54.jpeg,Instruments,2,stim/objects/Instruments/marimba.png,0.5,3,-0.2,-0.15,right,47,2021-01-11_08h17.17.595,premup-three_ses-01_part-01_label-phase1,3.2.4,Win32,60,left,1.342000008,4,0,4,0,1,3,1,0,240,39,1,239,,,,,,,,,,,,,,,,,,
,,1,197,,,,,,,2,2,3,stim/23.jpeg,HouseObjects,1,stim/objects/HouseObjects/key2.png,0.7,3,-0.2,-0.15,left,47,2021-01-11_08h17.17.595,premup-three_ses-01_part-01_label-phase1,3.2.4,Win32,60,left,0.684000015,4,0,4,0,1,3,1,0,240,142,1,239,,,,,,,,,,,,,,,,,,
,,0,198,,,,,,,1,6,3,stim/63.jpeg,HouseObjects,1,stim/objects/HouseObjects/pan.png,0.5,4,0.2,-0.15,left,47,2021-01-11_08h17.17.595,premup-three_ses-01_part-01_label-phase1,3.2.4,Win32,60,right,0.957000017,4,0,4,0,1,3,1,0,240,50,1,239,,,,,,,,,,,,,,,,,,
,,1,199,,,,,,,3,4,4,stim/44.jpeg,HouseObjects,1,stim/objects/HouseObjects/rug2.png,0.9,2,0.2,0.15,left,47,2021-01-11_08h17.17.595,premup-three_ses-01_part-01_label-phase1,3.2.4,Win32,60,left,0.684000015,4,0,4,0,1,3,1,0,240,203,1,239,,,,,,,,,,,,,,,,,,
,,0,200,,,,,,,1,6,2,stim/62.jpeg,Instruments,2,stim/objects/Instruments/musicsheet.png,0.5,1,-0.2,0.15,right,47,2021-01-11_08h17.17.595,premup-three_ses-01_part-01_label-phase1,3.2.4,Win32,60,left,1.087000132,4,0,4,0,1,3,1,0,240,69,1,239,,,,,,,,,,,,,,,,,,
,,0,201,,,,,,,1,6,4,stim/64.jpeg,Instruments,2,stim/objects/Instruments/oboe.png,0.5,2,0.2,0.15,right,47,2021-01-11_08h17.17.595,premup-three_ses-01_part-01_label-phase1,3.2.4,Win32,60,left,0.671999931,4,0,4,0,1,3,1,0,240,67,1,239,,,,,,,,,,,,,,,,,,
,,1,202,,,,,,,3,3,2,stim/32.jpeg,Instruments,2,stim/objects/Instruments/musicsheet2.png,0.9,4,0.2,-0.15,right,47,2021-01-11_08h17.17.595,premup-three_ses-01_part-01_label-phase1,3.2.4,Win32,60,right,0.969000101,4,0,4,0,1,3,1,0,240,173,1,239,,,,,,,,,,,,,,,,,,
,,1,203,,,,,,,3,4,4,stim/44.jpeg,HouseObjects,1,stim/objects/HouseObjects/rug2.png,0.9,4,0.2,-0.15,left,47,2021-01-11_08h17.17.595,premup-three_ses-01_part-01_label-phase1,3.2.4,Win32,60,left,0.710999966,4,0,4,0,1,3,1,0,240,235,1,239,,,,,,,,,,,,,,,,,,
,,1,204,,,,,,,2,2,4,stim/24.jpeg,HouseObjects,1,stim/objects/HouseObjects/knife2.png,0.7,4,0.2,-0.15,left,47,2021-01-11_08h17.17.595,premup-three_ses-01_part-01_label-phase1,3.2.4,Win32,60,left,0.809000015,4,0,4,0,1,3,1,0,240,127,1,239,,,,,,,,,,,,,,,,,,
,,0,205,,,,,,,1,6,2,stim/62.jpeg,HouseObjects,1,stim/objects/HouseObjects/match.png,0.5,1,-0.2,0.15,left,47,2021-01-11_08h17.17.595,premup-three_ses-01_part-01_label-phase1,3.2.4,Win32,60,right,0.881999969,4,0,4,0,1,3,1,0,240,49,1,239,,,,,,,,,,,,,,,,,,
,,1,206,,,,,,,1,6,3,stim/63.jpeg,HouseObjects,1,stim/objects/HouseObjects/pan.png,0.5,3,-0.2,-0.15,left,47,2021-01-11_08h17.17.595,premup-three_ses-01_part-01_label-phase1,3.2.4,Win32,60,left,0.945000172,4,0,4,0,1,3,1,0,240,54,1,239,,,,,,,,,,,,,,,,,,
,,0,207,,,,,,,2,1,3,stim/13.jpeg,Instruments,2,stim/objects/Instruments/record.png,0.7,4,0.2,-0.15,right,47,2021-01-11_08h17.17.595,premup-three_ses-01_part-01_label-phase1,3.2.4,Win32,60,left,1.227999926,4,0,4,0,1,3,1,0,240,110,1,239,,,,,,,,,,,,,,,,,,
,,1,208,,,,,,,3,3,4,stim/34.jpeg,Instruments,2,stim/objects/Instruments/oboe2.png,0.9,4,0.2,-0.15,right,47,2021-01-11_08h17.17.595,premup-three_ses-01_part-01_label-phase1,3.2.4,Win32,60,right,0.865999937,4,0,4,0,1,3,1,0,240,179,1,239,,,,,,,,,,,,,,,,,,
,,0,209,,,,,,,2,1,3,stim/13.jpeg,HouseObjects,1,stim/objects/HouseObjects/rubbergloves.png,0.3,4,0.2,-0.15,left,47,2021-01-11_08h17.17.595,premup-three_ses-01_part-01_label-phase1,3.2.4,Win32,60,right,0.944000006,4,0,4,0,1,3,1,0,240,86,1,239,,,,,,,,,,,,,,,,,,
,,1,210,,,,,,,2,2,2,stim/22.jpeg,HouseObjects,1,stim/objects/HouseObjects/ironingboard2.png,0.7,1,-0.2,0.15,left,47,2021-01-11_08h17.17.595,premup-three_ses-01_part-01_label-phase1,3.2.4,Win32,60,left,1.059999943,4,0,4,0,1,3,1,0,240,133,1,239,,,,,,,,,,,,,,,,,,
,,1,211,,,,,,,2,2,3,stim/23.jpeg,HouseObjects,1,stim/objects/HouseObjects/key2.png,0.7,3,-0.2,-0.15,left,47,2021-01-11_08h17.17.595,premup-three_ses-01_part-01_label-phase1,3.2.4,Win32,60,left,0.474999905,4,0,4,0,1,3,1,0,240,130,1,239,,,,,,,,,,,,,,,,,,
,,1,212,,,,,,,1,5,1,stim/51.jpeg,HouseObjects,1,stim/objects/HouseObjects/iron.png,0.5,1,-0.2,0.15,left,47,2021-01-11_08h17.17.595,premup-three_ses-01_part-01_label-phase1,3.2.4,Win32,60,left,1.032000065,4,0,4,0,1,3,1,0,240,16,1,239,,,,,,,,,,,,,,,,,,
,,0,213,,,,,,,2,1,2,stim/12.jpeg,Instruments,2,stim/objects/Instruments/pipepiano.png,0.7,3,-0.2,-0.15,right,47,2021-01-11_08h17.17.595,premup-three_ses-01_part-01_label-phase1,3.2.4,Win32,60,,,4,0,4,0,1,3,1,0,240,97,1,239,,,,,,,,,,,,,,,,,,
,,1,214,,,,,,,3,4,1,stim/41.jpeg,HouseObjects,1,stim/objects/HouseObjects/recyclingbin2.png,0.9,3,-0.2,-0.15,left,47,2021-01-11_08h17.17.595,premup-three_ses-01_part-01_label-phase1,3.2.4,Win32,60,left,0.782000065,4,0,4,0,1,3,1,0,240,204,1,239,,,,,,,,,,,,,,,,,,
,,1,215,,,,,,,3,3,3,stim/33.jpeg,Instruments,2,stim/objects/Instruments/musicstand2.png,0.9,2,0.2,0.15,right,47,2021-01-11_08h17.17.595,premup-three_ses-01_part-01_label-phase1,3.2.4,Win32,60,right,1.463000059,4,0,4,0,1,3,1,0,240,182,1,239,,,,,,,,,,,,,,,,,,
,,0,216,,,,,,,2,2,4,stim/24.jpeg,Instruments,2,stim/objects/Instruments/marimba2.png,0.3,3,-0.2,-0.15,right,47,2021-01-11_08h17.17.595,premup-three_ses-01_part-01_label-phase1,3.2.4,Win32,60,left,0.552000046,4,0,4,0,1,3,1,0,240,151,1,239,,,,,,,,,,,,,,,,,,
,,1,217,,,,,,,1,6,4,stim/64.jpeg,Instruments,2,stim/objects/Instruments/oboe.png,0.5,3,-0.2,-0.15,right,47,2021-01-11_08h17.17.595,premup-three_ses-01_part-01_label-phase1,3.2.4,Win32,60,right,0.769000053,4,0,4,0,1,3,1,0,240,63,1,239,,,,,,,,,,,,,,,,,,
,,1,218,,,,,,,2,1,1,stim/11.jpeg,Instruments,2,stim/objects/Instruments/panflute.png,0.7,3,-0.2,-0.15,right,47,2021-01-11_08h17.17.595,premup-three_ses-01_part-01_label-phase1,3.2.4,Win32,60,right,1.228999853,4,0,4,0,1,3,1,0,240,100,1,239,,,,,,,,,,,,,,,,,,
,,1,219,,,,,,,2,2,1,stim/21.jpeg,HouseObjects,1,stim/objects/HouseObjects/iron2.png,0.7,1,-0.2,0.15,left,47,2021-01-11_08h17.17.595,premup-three_ses-01_part-01_label-phase1,3.2.4,Win32,60,left,0.548000097,4,0,4,0,1,3,1,0,240,136,1,239,,,,,,,,,,,,,,,,,,
,,1,220,,,,,,,3,3,3,stim/33.jpeg,Instruments,2,stim/objects/Instruments/musicstand2.png,0.9,2,0.2,0.15,right,47,2021-01-11_08h17.17.595,premup-three_ses-01_part-01_label-phase1,3.2.4,Win32,60,right,0.562999964,4,0,4,0,1,3,1,0,240,198,1,239,,,,,,,,,,,,,,,,,,
,,1,221,,,,,,,3,3,3,stim/33.jpeg,Instruments,2,stim/objects/Instruments/musicstand2.png,0.9,1,-0.2,0.15,right,47,2021-01-11_08h17.17.595,premup-three_ses-01_part-01_label-phase1,3.2.4,Win32,60,right,0.546000004,4,0,4,0,1,3,1,0,240,170,1,239,,,,,,,,,,,,,,,,,,
,,0,222,,,,,,,2,2,4,stim/24.jpeg,Instruments,2,stim/objects/Instruments/marimba2.png,0.3,2,0.2,0.15,right,47,2021-01-11_08h17.17.595,premup-three_ses-01_part-01_label-phase1,3.2.4,Win32,60,left,0.54399991,4,0,4,0,1,3,1,0,240,159,1,239,,,,,,,,,,,,,,,,,,
,,1,223,,,,,,,3,4,4,stim/44.jpeg,HouseObjects,1,stim/objects/HouseObjects/rug2.png,0.9,2,0.2,0.15,left,47,2021-01-11_08h17.17.595,premup-three_ses-01_part-01_label-phase1,3.2.4,Win32,60,left,0.682999849,4,0,4,0,1,3,1,0,240,231,1,239,,,,,,,,,,,,,,,,,,
,,1,224,,,,,,,1,6,4,stim/64.jpeg,Instruments,2,stim/objects/Instruments/oboe.png,0.5,3,-0.2,-0.15,right,47,2021-01-11_08h17.17.595,premup-three_ses-01_part-01_label-phase1,3.2.4,Win32,60,right,0.798000097,4,0,4,0,1,3,1,0,240,79,1,239,,,,,,,,,,,,,,,,,,
,,0,225,,,,,,,2,2,3,stim/23.jpeg,Instruments,2,stim/objects/Instruments/maraca2.png,0.3,1,-0.2,0.15,right,47,2021-01-11_08h17.17.595,premup-three_ses-01_part-01_label-phase1,3.2.4,Win32,60,left,0.519999981,4,0,4,0,1,3,1,0,240,158,1,239,,,,,,,,,,,,,,,,,,
,,0,226,,,,,,,1,6,4,stim/64.jpeg,Instruments,2,stim/objects/Instruments/oboe.png,0.5,1,-0.2,0.15,right,47,2021-01-11_08h17.17.595,premup-three_ses-01_part-01_label-phase1,3.2.4,Win32,60,left,1.085999966,4,0,4,0,1,3,1,0,240,71,1,239,,,,,,,,,,,,,,,,,,
,,1,227,,,,,,,3,3,2,stim/32.jpeg,Instruments,2,stim/objects/Instruments/musicsheet2.png,0.9,4,0.2,-0.15,right,47,2021-01-11_08h17.17.595,premup-three_ses-01_part-01_label-phase1,3.2.4,Win32,60,right,0.969000101,4,0,4,0,1,3,1,0,240,165,1,239,,,,,,,,,,,,,,,,,,
,,0,228,,,,,,,1,5,3,stim/53.jpeg,Instruments,2,stim/objects/Instruments/maraca.png,0.5,2,0.2,0.15,right,47,2021-01-11_08h17.17.595,premup-three_ses-01_part-01_label-phase1,3.2.4,Win32,60,left,1.14199996,4,0,4,0,1,3,1,0,240,26,1,239,,,,,,,,,,,,,,,,,,
,,0,229,,,,,,,3,3,1,stim/31.jpeg,Instruments,2,stim/objects/Instruments/metronome2.png,0.9,1,-0.2,0.15,right,47,2021-01-11_08h17.17.595,premup-three_ses-01_part-01_label-phase1,3.2.4,Win32,60,left,0.572999954,4,0,4,0,1,3,1,0,240,172,1,239,,,,,,,,,,,,,,,,,,
,,0,230,,,,,,,3,4,2,stim/42.jpeg,Instruments,2,stim/objects/Instruments/pipepiano2.png,0.1,3,-0.2,-0.15,right,47,2021-01-11_08h17.17.595,premup-three_ses-01_part-01_label-phase1,3.2.4,Win32,60,left,0.700999975,4,0,4,0,1,3,1,0,240,237,1,239,,,,,,,,,,,,,,,,,,
,,1,231,,,,,,,3,4,4,stim/44.jpeg,HouseObjects,1,stim/objects/HouseObjects/rug2.png,0.9,2,0.2,0.15,left,47,2021-01-11_08h17.17.595,premup-three_ses-01_part-01_label-phase1,3.2.4,Win32,60,left,1.011000156,4,0,4,0,1,3,1,0,240,227,1,239,,,,,,,,,,,,,,,,,,
,,1,232,,,,,,,3,4,3,stim/43.jpeg,HouseObjects,1,stim/objects/HouseObjects/rubbergloves2.png,0.9,2,0.2,0.15,left,47,2021-01-11_08h17.17.595,premup-three_ses-01_part-01_label-phase1,3.2.4,Win32,60,left,1.227999926,4,0,4,0,1,3,1,0,240,218,1,239,,,,,,,,,,,,,,,,,,
,,1,233,,,,,,,1,6,2,stim/62.jpeg,Instruments,2,stim/objects/Instruments/musicsheet.png,0.5,4,0.2,-0.15,right,47,2021-01-11_08h17.17.595,premup-three_ses-01_part-01_label-phase1,3.2.4,Win32,60,right,0.494999886,4,0,4,0,1,3,1,0,240,61,1,239,,,,,,,,,,,,,,,,,,
,,1,234,,,,,,,3,4,3,stim/43.jpeg,HouseObjects,1,stim/objects/HouseObjects/rubbergloves2.png,0.9,4,0.2,-0.15,left,47,2021-01-11_08h17.17.595,premup-three_ses-01_part-01_label-phase1,3.2.4,Win32,60,left,0.520999908,4,0,4,0,1,3,1,0,240,202,1,239,,,,,,,,,,,,,,,,,,
,,0,235,,,,,,,1,5,1,stim/51.jpeg,Instruments,2,stim/objects/Instruments/keyboard.png,0.5,4,0.2,-0.15,right,47,2021-01-11_08h17.17.595,premup-three_ses-01_part-01_label-phase1,3.2.4,Win32,60,left,0.539000034,4,0,4,0,1,3,1,0,240,36,1,239,,,,,,,,,,,,,,,,,,
,,0,236,,,,,,,1,5,3,stim/53.jpeg,Instruments,2,stim/objects/Instruments/maraca.png,0.5,3,-0.2,-0.15,right,47,2021-01-11_08h17.17.595,premup-three_ses-01_part-01_label-phase1,3.2.4,Win32,60,left,0.876000166,4,0,4,0,1,3,1,0,240,22,1,239,,,,,,,,,,,,,,,,,,
,,0,237,,,,,,,1,6,1,stim/61.jpeg,HouseObjects,1,stim/objects/HouseObjects/lintroller.png,0.5,2,0.2,0.15,left,47,2021-01-11_08h17.17.595,premup-three_ses-01_part-01_label-phase1,3.2.4,Win32,60,right,0.476000071,4,0,4,0,1,3,1,0,240,48,1,239,,,,,,,,,,,,,,,,,,
,,1,238,,,,,,,1,6,3,stim/63.jpeg,Instruments,2,stim/objects/Instruments/musicstand.png,0.5,1,-0.2,0.15,right,47,2021-01-11_08h17.17.595,premup-three_ses-01_part-01_label-phase1,3.2.4,Win32,60,right,0.588000059,4,0,4,0,1,3,1,0,240,66,1,239,,,,,,,,,,,,,,,,,,
,,1,239,,,,,,,2,1,2,stim/12.jpeg,Instruments,2,stim/objects/Instruments/pipepiano.png,0.7,1,-0.2,0.15,right,47,2021-01-11_08h17.17.595,premup-three_ses-01_part-01_label-phase1,3.2.4,Win32,60,right,0.861999989,4,0,4,0,1,3,1,0,240,93,1,239,,,,,,,,,,,,,,,,,,
,,1,240,,,,,,,2,1,2,stim/12.jpeg,Instruments,2,stim/objects/Instruments/pipepiano.png,0.7,1,-0.2,0.15,right,47,2021-01-11_08h17.17.595,premup-three_ses-01_part-01_label-phase1,3.2.4,Win32,60,right,0.463000059,4,0,4,0,1,3,1,0,240,117,1,239,,,,,,,,,,,,,,,,,,
,,,,,,,,,,,1,,stim/11.jpeg,,,,,,,,,47,2021-01-11_08h17.17.595,premup-three_ses-01_part-01_label-phase1,3.2.4,Win32,60,,,4,0,4,0,1,3,,,,,,,1,0,20,17.54099989,,,1,0,6,0,1,5,Household items,45,55,Music items,45,55
,,,,,,,,,,,2,,stim/21.jpeg,,,,,,,,,47,2021-01-11_08h17.17.595,premup-three_ses-01_part-01_label-phase1,3.2.4,Win32,60,,,4,0,4,0,1,3,,,,,,,1,0,10,10.21399999,,,1,0,6,1,1,5,Music items,45,55,Household items,45,55
,,,,,,,,,,,4,,stim/41.jpeg,,,,,,,,,47,2021-01-11_08h17.17.595,premup-three_ses-01_part-01_label-phase1,3.2.4,Win32,60,,,4,0,4,0,1,3,,,,,,,1,0,90,7.440000057,,,1,0,6,3,1,5,Household items,65,75,Music items,25,35
,,,,,,,,,,,3,,stim/31.jpeg,,,,,,,,,47,2021-01-11_08h17.17.595,premup-three_ses-01_part-01_label-phase1,3.2.4,Win32,60,,,4,0,4,0,1,3,,,,,,,1,0,0,5.527000189,,,1,0,6,2,1,5,Household items,65,75,Music items,25,35
,,,,,,,,,,,6,,stim/61.jpeg,,,,,,,,,47,2021-01-11_08h17.17.595,premup-three_ses-01_part-01_label-phase1,3.2.4,Win32,60,,,4,0,4,0,1,3,,,,,,,1,0,50,8.349999905,,,1,0,6,5,1,5,Household items,5,15,Music items,85,95
,,,,,,,,,,,5,,stim/51.jpeg,,,,,,,,,47,2021-01-11_08h17.17.595,premup-three_ses-01_part-01_label-phase1,3.2.4,Win32,60,,,4,0,4,0,1,3,,,,,,,1,0,50,3.796999931,,,1,0,6,4,1,5,Music items,5,15,Household items,85,95
,,,,,,,,,,,,,,,,,,,,,,47,2021-01-11_08h17.17.595,premup-three_ses-01_part-01_label-phase1,3.2.4,Win32,60,,,4,0,4,0,1,3,,,,,,,,,,,,,,,,,,,,,,,,
,,0,1,,,,,,,3,4,4,stim/44.jpeg,HouseObjects,1,stim/objects/HouseObjects/rug2.png,0.9,4,0.2,-0.15,left,47,2021-01-11_08h17.17.595,premup-three_ses-01_part-01_label-phase1,3.2.4,Win32,60,,,4,0,4,0,1,3,1,0,240,211,1,239,,,,,,,,,,,,,,,,,,
,,1,2,,,,,,,3,3,1,stim/31.jpeg,Instruments,2,stim/objects/Instruments/metronome2.png,0.9,2,0.2,0.15,right,47,2021-01-11_08h17.17.595,premup-three_ses-01_part-01_label-phase1,3.2.4,Win32,60,right,0.987999916,4,0,4,0,1,3,1,0,240,180,1,239,,,,,,,,,,,,,,,,,,
,,0,3,,,,,,,3,3,1,stim/31.jpeg,HouseObjects,1,stim/objects/HouseObjects/lintroller2.png,0.1,4,0.2,-0.15,left,47,2021-01-11_08h17.17.595,premup-three_ses-01_part-01_label-phase1,3.2.4,Win32,60,right,0.417000055,4,0,4,0,1,3,1,0,240,160,1,239,,,,,,,,,,,,,,,,,,
,,0,4,,,,,,,2,2,2,stim/22.jpeg,Instruments,2,stim/objects/Instruments/laud2.png,0.3,4,0.2,-0.15,right,47,2021-01-11_08h17.17.595,premup-three_ses-01_part-01_label-phase1,3.2.4,Win32,60,left,0.650999784,4,0,4,0,1,3,1,0,240,149,1,239,,,,,,,,,,,,,,,,,,
,,0,5,,,,,,,2,2,1,stim/21.jpeg,Instruments,2,stim/objects/Instruments/keyboard2.png,0.3,4,0.2,-0.15,right,47,2021-01-11_08h17.17.595,premup-three_ses-01_part-01_label-phase1,3.2.4,Win32,60,left,0.526000023,4,0,4,0,1,3,1,0,240,152,1,239,,,,,,,,,,,,,,,,,,
,,0,6,,,,,,,2,1,4,stim/14.jpeg,Instruments,2,stim/objects/Instruments/record_player.png,0.7,4,0.2,-0.15,right,47,2021-01-11_08h17.17.595,premup-three_ses-01_part-01_label-phase1,3.2.4,Win32,60,left,0.847000122,4,0,4,0,1,3,1,0,240,119,1,239,,,,,,,,,,,,,,,,,,
,,0,7,,,,,,,1,6,2,stim/62.jpeg,Instruments,2,stim/objects/Instruments/musicsheet.png,0.5,1,-0.2,0.15,right,47,2021-01-11_08h17.17.595,premup-three_ses-01_part-01_label-phase1,3.2.4,Win32,60,left,0.970000029,4,0,4,0,1,3,1,0,240,69,1,239,,,,,,,,,,,,,,,,,,
,,1,8,,,,,,,3,4,2,stim/42.jpeg,HouseObjects,1,stim/objects/HouseObjects/remote2.png,0.9,1,-0.2,0.15,left,47,2021-01-11_08h17.17.595,premup-three_ses-01_part-01_label-phase1,3.2.4,Win32,60,left,0.695999861,4,0,4,0,1,3,1,0,240,201,1,239,,,,,,,,,,,,,,,,,,
,,1,9,,,,,,,3,4,3,stim/43.jpeg,HouseObjects,1,stim/objects/HouseObjects/rubbergloves2.png,0.9,3,-0.2,-0.15,left,47,2021-01-11_08h17.17.595,premup-three_ses-01_part-01_label-phase1,3.2.4,Win32,60,left,1.641000032,4,0,4,0,1,3,1,0,240,206,1,239,,,,,,,,,,,,,,,,,,
,,1,10,,,,,,,2,1,4,stim/14.jpeg,Instruments,2,stim/objects/Instruments/record_player.png,0.7,3,-0.2,-0.15,right,47,2021-01-11_08h17.17.595,premup-three_ses-01_part-01_label-phase1,3.2.4,Win32,60,right,0.592999935,4,0,4,0,1,3,1,0,240,95,1,239,,,,,,,,,,,,,,,,,,
,,0,11,,,,,,,2,1,4,stim/14.jpeg,HouseObjects,1,stim/objects/HouseObjects/rug.png,0.3,4,0.2,-0.15,left,47,2021-01-11_08h17.17.595,premup-three_ses-01_part-01_label-phase1,3.2.4,Win32,60,right,0.610000134,4,0,4,0,1,3,1,0,240,83,1,239,,,,,,,,,,,,,,,,,,
,,0,12,,,,,,,2,1,2,stim/12.jpeg,Instruments,2,stim/objects/Instruments/pipepiano.png,0.7,2,0.2,0.15,right,47,2021-01-11_08h17.17.595,premup-three_ses-01_part-01_label-phase1,3.2.4,Win32,60,left,1.141000032,4,0,4,0,1,3,1,0,240,105,1,239,,,,,,,,,,,,,,,,,,
,,0,13,,,,,,,1,5,1,stim/51.jpeg,HouseObjects,1,stim/objects/HouseObjects/iron.png,0.5,2,0.2,0.15,left,47,2021-01-11_08h17.17.595,premup-three_ses-01_part-01_label-phase1,3.2.4,Win32,60,right,0.605000019,4,0,4,0,1,3,1,0,240,12,1,239,,,,,,,,,,,,,,,,,,
,,0,14,,,,,,,2,1,2,stim/12.jpeg,Instruments,2,stim/objects/Instruments/pipepiano.png,0.7,3,-0.2,-0.15,right,47,2021-01-11_08h17.17.595,premup-three_ses-01_part-01_label-phase1,3.2.4,Win32,60,left,1.256999969,4,0,4,0,1,3,1,0,240,97,1,239,,,,,,,,,,,,,,,,,,
,,0,15,,,,,,,3,3,3,stim/33.jpeg,HouseObjects,1,stim/objects/HouseObjects/pan2.png,0.1,4,0.2,-0.15,left,47,2021-01-11_08h17.17.595,premup-three_ses-01_part-01_label-phase1,3.2.4,Win32,60,right,0.693000078,4,0,4,0,1,3,1,0,240,162,1,239,,,,,,,,,,,,,,,,,,
,,1,16,,,,,,,2,1,1,stim/11.jpeg,Instruments,2,stim/objects/Instruments/panflute.png,0.7,2,0.2,0.15,right,47,2021-01-11_08h17.17.595,premup-three_ses-01_part-01_label-phase1,3.2.4,Win32,60,right,0.848999977,4,0,4,0,1,3,1,0,240,96,1,239,,,,,,,,,,,,,,,,,,
,,1,17,,,,,,,2,2,1,stim/21.jpeg,HouseObjects,1,stim/objects/HouseObjects/iron2.png,0.7,1,-0.2,0.15,left,47,2021-01-11_08h17.17.595,premup-three_ses-01_part-01_label-phase1,3.2.4,Win32,60,left,0.730000019,4,0,4,0,1,3,1,0,240,132,1,239,,,,,,,,,,,,,,,,,,
,,1,18,,,,,,,1,6,3,stim/63.jpeg,Instruments,2,stim/objects/Instruments/musicstand.png,0.5,1,-0.2,0.15,right,47,2021-01-11_08h17.17.595,premup-three_ses-01_part-01_label-phase1,3.2.4,Win32,60,right,0.671999931,4,0,4,0,1,3,1,0,240,74,1,239,,,,,,,,,,,,,,,,,,
,,1,19,,,,,,,1,6,2,stim/62.jpeg,HouseObjects,1,stim/objects/HouseObjects/match.png,0.5,1,-0.2,0.15,left,47,2021-01-11_08h17.17.595,premup-three_ses-01_part-01_label-phase1,3.2.4,Win32,60,left,0.95600009,4,0,4,0,1,3,1,0,240,53,1,239,,,,,,,,,,,,,,,,,,
,,1,20,,,,,,,1,6,2,stim/62.jpeg,HouseObjects,1,stim/objects/HouseObjects/match.png,0.5,1,-0.2,0.15,left,47,2021-01-11_08h17.17.595,premup-three_ses-01_part-01_label-phase1,3.2.4,Win32,60,left,0.541000128,4,0,4,0,1,3,1,0,240,49,1,239,,,,,,,,,,,,,,,,,,
,,1,21,,,,,,,2,2,1,stim/21.jpeg,Instruments,2,stim/objects/Instruments/keyboard2.png,0.3,2,0.2,0.15,right,47,2021-01-11_08h17.17.595,premup-three_ses-01_part-01_label-phase1,3.2.4,Win32,60,right,0.728000164,4,0,4,0,1,3,1,0,240,148,1,239,,,,,,,,,,,,,,,,,,
,,1,22,,,,,,,1,5,2,stim/52.jpeg,HouseObjects,1,stim/objects/HouseObjects/ironingboard.png,0.5,1,-0.2,0.15,left,47,2021-01-11_08h17.17.595,premup-three_ses-01_part-01_label-phase1,3.2.4,Win32,60,left,0.38499999,4,0,4,0,1,3,1,0,240,13,1,239,,,,,,,,,,,,,,,,,,
,,0,23,,,,,,,3,4,4,stim/44.jpeg,Instruments,2,stim/objects/Instruments/record_player2.png,0.1,3,-0.2,-0.15,right,47,2021-01-11_08h17.17.595,premup-three_ses-01_part-01_label-phase1,3.2.4,Win32,60,left,0.736999989,4,0,4,0,1,3,1,0,240,239,1,239,,,,,,,,,,,,,,,,,,
,,1,24,,,,,,,1,6,3,stim/63.jpeg,HouseObjects,1,stim/objects/HouseObjects/pan.png,0.5,1,-0.2,0.15,left,47,2021-01-11_08h17.17.595,premup-three_ses-01_part-01_label-phase1,3.2.4,Win32,60,left,0.640999794,4,0,4,0,1,3,1,0,240,58,1,239,,,,,,,,,,,,,,,,,,
,,1,25,,,,,,,3,3,3,stim/33.jpeg,Instruments,2,stim/objects/Instruments/musicstand2.png,0.9,2,0.2,0.15,right,47,2021-01-11_08h17.17.595,premup-three_ses-01_part-01_label-phase1,3.2.4,Win32,60,right,0.459000111,4,0,4,0,1,3,1,0,240,190,1,239,,,,,,,,,,,,,,,,,,
,,0,26,,,,,,,2,2,1,stim/21.jpeg,HouseObjects,1,stim/objects/HouseObjects/iron2.png,0.7,3,-0.2,-0.15,left,47,2021-01-11_08h17.17.595,premup-three_ses-01_part-01_label-phase1,3.2.4,Win32,60,right,0.429000139,4,0,4,0,1,3,1,0,240,140,1,239,,,,,,,,,,,,,,,,,,
,,1,27,,,,,,,3,3,2,stim/32.jpeg,Instruments,2,stim/objects/Instruments/musicsheet2.png,0.9,4,0.2,-0.15,right,47,2021-01-11_08h17.17.595,premup-three_ses-01_part-01_label-phase1,3.2.4,Win32,60,right,0.84800005,4,0,4,0,1,3,1,0,240,197,1,239,,,,,,,,,,,,,,,,,,
,,1,28,,,,,,,3,3,2,stim/32.jpeg,Instruments,2,stim/objects/Instruments/musicsheet2.png,0.9,4,0.2,-0.15,right,47,2021-01-11_08h17.17.595,premup-three_ses-01_part-01_label-phase1,3.2.4,Win32,60,right,0.625999928,4,0,4,0,1,3,1,0,240,165,1,239,,,,,,,,,,,,,,,,,,
,,1,29,,,,,,,3,4,2,stim/42.jpeg,HouseObjects,1,stim/objects/HouseObjects/remote2.png,0.9,3,-0.2,-0.15,left,47,2021-01-11_08h17.17.595,premup-three_ses-01_part-01_label-phase1,3.2.4,Win32,60,left,1.229000092,4,0,4,0,1,3,1,0,240,229,1,239,,,,,,,,,,,,,,,,,,
,,1,30,,,,,,,1,5,4,stim/54.jpeg,Instruments,2,stim/objects/Instruments/marimba.png,0.5,4,0.2,-0.15,right,47,2021-01-11_08h17.17.595,premup-three_ses-01_part-01_label-phase1,3.2.4,Win32,60,right,0.777999878,4,0,4,0,1,3,1,0,240,35,1,239,,,,,,,,,,,,,,,,,,
,,0,31,,,,,,,2,1,3,stim/13.jpeg,Instruments,2,stim/objects/Instruments/record.png,0.7,1,-0.2,0.15,right,47,2021-01-11_08h17.17.595,premup-three_ses-01_part-01_label-phase1,3.2.4,Win32,60,left,0.84800005,4,0,4,0,1,3,1,0,240,102,1,239,,,,,,,,,,,,,,,,,,
,,1,32,,,,,,,2,1,3,stim/13.jpeg,Instruments,2,stim/objects/Instruments/record.png,0.7,2,0.2,0.15,right,47,2021-01-11_08h17.17.595,premup-three_ses-01_part-01_label-phase1,3.2.4,Win32,60,right,0.626000166,4,0,4,0,1,3,1,0,240,98,1,239,,,,,,,,,,,,,,,,,,
,,1,33,,,,,,,1,5,4,stim/54.jpeg,HouseObjects,1,stim/objects/HouseObjects/knife.png,0.5,2,0.2,0.15,left,47,2021-01-11_08h17.17.595,premup-three_ses-01_part-01_label-phase1,3.2.4,Win32,60,left,1.162999868,4,0,4,0,1,3,1,0,240,7,1,239,,,,,,,,,,,,,,,,,,
,,1,34,,,,,,,3,4,1,stim/41.jpeg,HouseObjects,1,stim/objects/HouseObjects/recyclingbin2.png,0.9,3,-0.2,-0.15,left,47,2021-01-11_08h17.17.595,premup-three_ses-01_part-01_label-phase1,3.2.4,Win32,60,left,1.361000061,4,0,4,0,1,3,1,0,240,232,1,239,,,,,,,,,,,,,,,,,,
,,1,35,,,,,,,2,2,3,stim/23.jpeg,HouseObjects,1,stim/objects/HouseObjects/key2.png,0.7,3,-0.2,-0.15,left,47,2021-01-11_08h17.17.595,premup-three_ses-01_part-01_label-phase1,3.2.4,Win32,60,left,0.815999985,4,0,4,0,1,3,1,0,240,130,1,239,,,,,,,,,,,,,,,,,,
,,1,36,,,,,,,2,1,1,stim/11.jpeg,Instruments,2,stim/objects/Instruments/panflute.png,0.7,1,-0.2,0.15,right,47,2021-01-11_08h17.17.595,premup-three_ses-01_part-01_label-phase1,3.2.4,Win32,60,right,0.821999788,4,0,4,0,1,3,1,0,240,108,1,239,,,,,,,,,,,,,,,,,,
,,0,37,,,,,,,1,6,3,stim/63.jpeg,Instruments,2,stim/objects/Instruments/musicstand.png,0.5,2,0.2,0.15,right,47,2021-01-11_08h17.17.595,premup-three_ses-01_part-01_label-phase1,3.2.4,Win32,60,left,1.067000151,4,0,4,0,1,3,1,0,240,78,1,239,,,,,,,,,,,,,,,,,,
,,1,38,,,,,,,3,4,2,stim/42.jpeg,HouseObjects,1,stim/objects/HouseObjects/remote2.png,0.9,3,-0.2,-0.15,left,47,2021-01-11_08h17.17.595,premup-three_ses-01_part-01_label-phase1,3.2.4,Win32,60,left,1.145000219,4,0,4,0,1,3,1,0,240,221,1,239,,,,,,,,,,,,,,,,,,
,,1,39,,,,,,,1,5,2,stim/52.jpeg,HouseObjects,1,stim/objects/HouseObjects/ironingboard.png,0.5,2,0.2,0.15,left,47,2021-01-11_08h17.17.595,premup-three_ses-01_part-01_label-phase1,3.2.4,Win32,60,left,0.69900012,4,0,4,0,1,3,1,0,240,17,1,239,,,,,,,,,,,,,,,,,,
,,1,40,,,,,,,2,2,3,stim/23.jpeg,HouseObjects,1,stim/objects/HouseObjects/key2.png,0.7,4,0.2,-0.15,left,47,2021-01-11_08h17.17.595,premup-three_ses-01_part-01_label-phase1,3.2.4,Win32,60,left,0.746000051,4,0,4,0,1,3,1,0,240,122,1,239,,,,,,,,,,,,,,,,,,
,,0,41,,,,,,,2,2,2,stim/22.jpeg,Instruments,2,stim/objects/Instruments/laud2.png,0.3,3,-0.2,-0.15,right,47,2021-01-11_08h17.17.595,premup-three_ses-01_part-01_label-phase1,3.2.4,Win32,60,left,0.967999935,4,0,4,0,1,3,1,0,240,153,1,239,,,,,,,,,,,,,,,,,,
,,1,42,,,,,,,1,6,3,stim/63.jpeg,HouseObjects,1,stim/objects/HouseObjects/pan.png,0.5,4,0.2,-0.15,left,47,2021-01-11_08h17.17.595,premup-three_ses-01_part-01_label-phase1,3.2.4,Win32,60,left,0.717000008,4,0,4,0,1,3,1,0,240,50,1,239,,,,,,,,,,,,,,,,,,
,,0,43,,,,,,,1,6,2,stim/62.jpeg,Instruments,2,stim/objects/Instruments/musicsheet.png,0.5,4,0.2,-0.15,right,47,2021-01-11_08h17.17.595,premup-three_ses-01_part-01_label-phase1,3.2.4,Win32,60,left,0.776000023,4,0,4,0,1,3,1,0,240,61,1,239,,,,,,,,,,,,,,,,,,
,,1,44,,,,,,,3,3,4,stim/34.jpeg,Instruments,2,stim/objects/Instruments/oboe2.png,0.9,2,0.2,0.15,right,47,2021-01-11_08h17.17.595,premup-three_ses-01_part-01_label-phase1,3.2.4,Win32,60,right,0.886999846,4,0,4,0,1,3,1,0,240,187,1,239,,,,,,,,,,,,,,,,,,
,,1,45,,,,,,,1,6,1,stim/61.jpeg,Instruments,2,stim/objects/Instruments/metronome.png,0.5,3,-0.2,-0.15,right,47,2021-01-11_08h17.17.595,premup-three_ses-01_part-01_label-phase1,3.2.4,Win32,60,right,1.013999939,4,0,4,0,1,3,1,0,240,68,1,239,,,,,,,,,,,,,,,,,,
,,1,46,,,,,,,1,6,3,stim/63.jpeg,Instruments,2,stim/objects/Instruments/musicstand.png,0.5,1,-0.2,0.15,right,47,2021-01-11_08h17.17.595,premup-three_ses-01_part-01_label-phase1,3.2.4,Win32,60,right,1.026000023,4,0,4,0,1,3,1,0,240,66,1,239,,,,,,,,,,,,,,,,,,
,,0,47,,,,,,,2,1,1,stim/11.jpeg,Instruments,2,stim/objects/Instruments/panflute.png,0.7,3,-0.2,-0.15,right,47,2021-01-11_08h17.17.595,premup-three_ses-01_part-01_label-phase1,3.2.4,Win32,60,left,1.056999922,4,0,4,0,1,3,1,0,240,100,1,239,,,,,,,,,,,,,,,,,,
,,1,48,,,,,,,3,4,3,stim/43.jpeg,HouseObjects,1,stim/objects/HouseObjects/rubbergloves2.png,0.9,2,0.2,0.15,left,47,2021-01-11_08h17.17.595,premup-three_ses-01_part-01_label-phase1,3.2.4,Win32,60,left,0.775000095,4,0,4,0,1,3,1,0,240,218,1,239,,,,,,,,,,,,,,,,,,
,,1,49,,,,,,,3,3,1,stim/31.jpeg,Instruments,2,stim/objects/Instruments/metronome2.png,0.9,3,-0.2,-0.15,right,47,2021-01-11_08h17.17.595,premup-three_ses-01_part-01_label-phase1,3.2.4,Win32,60,right,0.57799983,4,0,4,0,1,3,1,0,240,192,1,239,,,,,,,,,,,,,,,,,,
,,0,50,,,,,,,1,5,2,stim/52.jpeg,Instruments,2,stim/objects/Instruments/laud.png,0.5,2,0.2,0.15,right,47,2021-01-11_08h17.17.595,premup-three_ses-01_part-01_label-phase1,3.2.4,Win32,60,left,0.582000017,4,0,4,0,1,3,1,0,240,29,1,239,,,,,,,,,,,,,,,,,,
,,1,51,,,,,,,3,3,4,stim/34.jpeg,Instruments,2,stim/objects/Instruments/oboe2.png,0.9,4,0.2,-0.15,right,47,2021-01-11_08h17.17.595,premup-three_ses-01_part-01_label-phase1,3.2.4,Win32,60,right,0.654999971,4,0,4,0,1,3,1,0,240,167,1,239,,,,,,,,,,,,,,,,,,
,,0,52,,,,,,,2,2,2,stim/22.jpeg,Instruments,2,stim/objects/Instruments/laud2.png,0.3,4,0.2,-0.15,right,47,2021-01-11_08h17.17.595,premup-three_ses-01_part-01_label-phase1,3.2.4,Win32,60,left,0.794000149,4,0,4,0,1,3,1,0,240,157,1,239,,,,,,,,,,,,,,,,,,
,,1,53,,,,,,,3,4,2,stim/42.jpeg,HouseObjects,1,stim/objects/HouseObjects/remote2.png,0.9,1,-0.2,0.15,left,47,2021-01-11_08h17.17.595,premup-three_ses-01_part-01_label-phase1,3.2.4,Win32,60,left,1.030999899,4,0,4,0,1,3,1,0,240,233,1,239,,,,,,,,,,,,,,,,,,
,,1,54,,,,,,,3,4,2,stim/42.jpeg,HouseObjects,1,stim/objects/HouseObjects/remote2.png,0.9,2,0.2,0.15,left,47,2021-01-11_08h17.17.595,premup-three_ses-01_part-01_label-phase1,3.2.4,Win32,60,left,0.544999838,4,0,4,0,1,3,1,0,240,213,1,239,,,,,,,,,,,,,,,,,,
,,1,55,,,,,,,3,3,3,stim/33.jpeg,Instruments,2,stim/objects/Instruments/musicstand2.png,0.9,2,0.2,0.15,right,47,2021-01-11_08h17.17.595,premup-three_ses-01_part-01_label-phase1,3.2.4,Win32,60,right,0.738000154,4,0,4,0,1,3,1,0,240,198,1,239,,,,,,,,,,,,,,,,,,
,,1,56,,,,,,,2,2,1,stim/21.jpeg,HouseObjects,1,stim/objects/HouseObjects/iron2.png,0.7,1,-0.2,0.15,left,47,2021-01-11_08h17.17.595,premup-three_ses-01_part-01_label-phase1,3.2.4,Win32,60,left,0.536000013,4,0,4,0,1,3,1,0,240,136,1,239,,,,,,,,,,,,,,,,,,
,,1,57,,,,,,,1,5,4,stim/54.jpeg,HouseObjects,1,stim/objects/HouseObjects/knife.png,0.5,4,0.2,-0.15,left,47,2021-01-11_08h17.17.595,premup-three_ses-01_part-01_label-phase1,3.2.4,Win32,60,left,0.887000084,4,0,4,0,1,3,1,0,240,3,1,239,,,,,,,,,,,,,,,,,,
,,1,58,,,,,,,3,4,4,stim/44.jpeg,HouseObjects,1,stim/objects/HouseObjects/rug2.png,0.9,2,0.2,0.15,left,47,2021-01-11_08h17.17.595,premup-three_ses-01_part-01_label-phase1,3.2.4,Win32,60,left,0.780999899,4,0,4,0,1,3,1,0,240,227,1,239,,,,,,,,,,,,,,,,,,
,,1,59,,,,,,,2,1,4,stim/14.jpeg,Instruments,2,stim/objects/Instruments/record_player.png,0.7,2,0.2,0.15,right,47,2021-01-11_08h17.17.595,premup-three_ses-01_part-01_label-phase1,3.2.4,Win32,60,right,0.840000153,4,0,4,0,1,3,1,0,240,107,1,239,,,,,,,,,,,,,,,,,,
,,1,60,,,,,,,3,4,1,stim/41.jpeg,HouseObjects,1,stim/objects/HouseObjects/recyclingbin2.png,0.9,1,-0.2,0.15,left,47,2021-01-11_08h17.17.595,premup-three_ses-01_part-01_label-phase1,3.2.4,Win32,60,left,0.611999989,4,0,4,0,1,3,1,0,240,224,1,239,,,,,,,,,,,,,,,,,,
,,1,61,,,,,,,3,4,2,stim/42.jpeg,HouseObjects,1,stim/objects/HouseObjects/remote2.png,0.9,4,0.2,-0.15,left,47,2021-01-11_08h17.17.595,premup-three_ses-01_part-01_label-phase1,3.2.4,Win32,60,left,0.63499999,4,0,4,0,1,3,1,0,240,217,1,239,,,,,,,,,,,,,,,,,,
,,0,62,,,,,,,2,2,3,stim/23.jpeg,Instruments,2,stim/objects/Instruments/maraca2.png,0.3,2,0.2,0.15,right,47,2021-01-11_08h17.17.595,premup-three_ses-01_part-01_label-phase1,3.2.4,Win32,60,left,0.662999868,4,0,4,0,1,3,1,0,240,154,1,239,,,,,,,,,,,,,,,,,,
,,1,63,,,,,,,2,1,3,stim/13.jpeg,HouseObjects,1,stim/objects/HouseObjects/rubbergloves.png,0.3,4,0.2,-0.15,left,47,2021-01-11_08h17.17.595,premup-three_ses-01_part-01_label-phase1,3.2.4,Win32,60,left,1.006999969,4,0,4,0,1,3,1,0,240,86,1,239,,,,,,,,,,,,,,,,,,
,,0,64,,,,,,,2,2,2,stim/22.jpeg,HouseObjects,1,stim/objects/HouseObjects/ironingboard2.png,0.7,3,-0.2,-0.15,left,47,2021-01-11_08h17.17.595,premup-three_ses-01_part-01_label-phase1,3.2.4,Win32,60,right,1.085999966,4,0,4,0,1,3,1,0,240,137,1,239,,,,,,,,,,,,,,,,,,
,,1,65,,,,,,,1,6,3,stim/63.jpeg,Instruments,2,stim/objects/Instruments/musicstand.png,0.5,3,-0.2,-0.15,right,47,2021-01-11_08h17.17.595,premup-three_ses-01_part-01_label-phase1,3.2.4,Win32,60,right,0.964999914,4,0,4,0,1,3,1,0,240,70,1,239,,,,,,,,,,,,,,,,,,
,,1,66,,,,,,,2,1,1,stim/11.jpeg,Instruments,2,stim/objects/Instruments/panflute.png,0.7,2,0.2,0.15,right,47,2021-01-11_08h17.17.595,premup-three_ses-01_part-01_label-phase1,3.2.4,Win32,60,right,1.110000134,4,0,4,0,1,3,1,0,240,112,1,239,,,,,,,,,,,,,,,,,,
,,1,67,,,,,,,3,3,3,stim/33.jpeg,Instruments,2,stim/objects/Instruments/musicstand2.png,0.9,2,0.2,0.15,right,47,2021-01-11_08h17.17.595,premup-three_ses-01_part-01_label-phase1,3.2.4,Win32,60,right,0.608999968,4,0,4,0,1,3,1,0,240,166,1,239,,,,,,,,,,,,,,,,,,
,,1,68,,,,,,,1,5,3,stim/53.jpeg,HouseObjects,1,stim/objects/HouseObjects/key.png,0.5,4,0.2,-0.15,left,47,2021-01-11_08h17.17.595,premup-three_ses-01_part-01_label-phase1,3.2.4,Win32,60,left,0.648999929,4,0,4,0,1,3,1,0,240,18,1,239,,,,,,,,,,,,,,,,,,
,,1,69,,,,,,,1,6,2,stim/62.jpeg,Instruments,2,stim/objects/Instruments/musicsheet.png,0.5,1,-0.2,0.15,right,47,2021-01-11_08h17.17.595,premup-three_ses-01_part-01_label-phase1,3.2.4,Win32,60,right,0.906999826,4,0,4,0,1,3,1,0,240,73,1,239,,,,,,,,,,,,,,,,,,
,,1,70,,,,,,,3,4,1,stim/41.jpeg,HouseObjects,1,stim/objects/HouseObjects/recyclingbin2.png,0.9,1,-0.2,0.15,left,47,2021-01-11_08h17.17.595,premup-three_ses-01_part-01_label-phase1,3.2.4,Win32,60,left,0.519999981,4,0,4,0,1,3,1,0,240,228,1,239,,,,,,,,,,,,,,,,,,
,,1,71,,,,,,,2,2,4,stim/24.jpeg,HouseObjects,1,stim/objects/HouseObjects/knife2.png,0.7,4,0.2,-0.15,left,47,2021-01-11_08h17.17.595,premup-three_ses-01_part-01_label-phase1,3.2.4,Win32,60,left,0.818000078,4,0,4,0,1,3,1,0,240,147,1,239,,,,,,,,,,,,,,,,,,
,,1,72,,,,,,,2,2,4,stim/24.jpeg,HouseObjects,1,stim/objects/HouseObjects/knife2.png,0.7,4,0.2,-0.15,left,47,2021-01-11_08h17.17.595,premup-three_ses-01_part-01_label-phase1,3.2.4,Win32,60,left,0.496999979,4,0,4,0,1,3,1,0,240,123,1,239,,,,,,,,,,,,,,,,,,
,,1,73,,,,,,,3,4,2,stim/42.jpeg,HouseObjects,1,stim/objects/HouseObjects/remote2.png,0.9,1,-0.2,0.15,left,47,2021-01-11_08h17.17.595,premup-three_ses-01_part-01_label-phase1,3.2.4,Win32,60,left,0.593999863,4,0,4,0,1,3,1,0,240,209,1,239,,,,,,,,,,,,,,,,,,
,,0,74,,,,,,,1,6,3,stim/63.jpeg,HouseObjects,1,stim/objects/HouseObjects/pan.png,0.5,4,0.2,-0.15,left,47,2021-01-11_08h17.17.595,premup-three_ses-01_part-01_label-phase1,3.2.4,Win32,60,right,0.75,4,0,4,0,1,3,1,0,240,46,1,239,,,,,,,,,,,,,,,,,,
,,0,75,,,,,,,1,5,3,stim/53.jpeg,Instruments,2,stim/objects/Instruments/maraca.png,0.5,2,0.2,0.15,right,47,2021-01-11_08h17.17.595,premup-three_ses-01_part-01_label-phase1,3.2.4,Win32,60,left,0.845000029,4,0,4,0,1,3,1,0,240,26,1,239,,,,,,,,,,,,,,,,,,
,,1,76,,,,,,,3,3,4,stim/34.jpeg,Instruments,2,stim/objects/Instruments/oboe2.png,0.9,1,-0.2,0.15,right,47,2021-01-11_08h17.17.595,premup-three_ses-01_part-01_label-phase1,3.2.4,Win32,60,right,0.859999895,4,0,4,0,1,3,1,0,240,183,1,239,,,,,,,,,,,,,,,,,,
,,0,77,,,,,,,2,1,3,stim/13.jpeg,Instruments,2,stim/objects/Instruments/record.png,0.7,4,0.2,-0.15,right,47,2021-01-11_08h17.17.595,premup-three_ses-01_part-01_label-phase1,3.2.4,Win32,60,left,1.272000074,4,0,4,0,1,3,1,0,240,94,1,239,,,,,,,,,,,,,,,,,,
,,1,78,,,,,,,3,4,1,stim/41.jpeg,HouseObjects,1,stim/objects/HouseObjects/recyclingbin2.png,0.9,1,-0.2,0.15,left,47,2021-01-11_08h17.17.595,premup-three_ses-01_part-01_label-phase1,3.2.4,Win32,60,left,0.631000042,4,0,4,0,1,3,1,0,240,220,1,239,,,,,,,,,,,,,,,,,,
,,1,79,,,,,,,2,1,2,stim/12.jpeg,HouseObjects,1,stim/objects/HouseObjects/remote.png,0.3,2,0.2,0.15,left,47,2021-01-11_08h17.17.595,premup-three_ses-01_part-01_label-phase1,3.2.4,Win32,60,left,0.843000174,4,0,4,0,1,3,1,0,240,81,1,239,,,,,,,,,,,,,,,,,,
,,1,80,,,,,,,3,3,2,stim/32.jpeg,Instruments,2,stim/objects/Instruments/musicsheet2.png,0.9,4,0.2,-0.15,right,47,2021-01-11_08h17.17.595,premup-three_ses-01_part-01_label-phase1,3.2.4,Win32,60,right,0.816999912,4,0,4,0,1,3,1,0,240,177,1,239,,,,,,,,,,,,,,,,,,
,,1,81,,,,,,,2,2,4,stim/24.jpeg,HouseObjects,1,stim/objects/HouseObjects/knife2.png,0.7,4,0.2,-0.15,left,47,2021-01-11_08h17.17.595,premup-three_ses-01_part-01_label-phase1,3.2.4,Win32,60,left,0.901000023,4,0,4,0,1,3,1,0,240,127,1,239,,,,,,,,,,,,,,,,,,
,,1,82,,,,,,,2,1,1,stim/11.jpeg,Instruments,2,stim/objects/Instruments/panflute.png,0.7,1,-0.2,0.15,right,47,2021-01-11_08h17.17.595,premup-three_ses-01_part-01_label-phase1,3.2.4,Win32,60,right,0.894999981,4,0,4,0,1,3,1,0,240,92,1,239,,,,,,,,,,,,,,,,,,
,,0,83,,,,,,,1,5,3,stim/53.jpeg,Instruments,2,stim/objects/Instruments/maraca.png,0.5,3,-0.2,-0.15,right,47,2021-01-11_08h17.17.595,premup-three_ses-01_part-01_label-phase1,3.2.4,Win32,60,left,0.946000099,4,0,4,0,1,3,1,0,240,22,1,239,,,,,,,,,,,,,,,,,,
,,0,84,,,,,,,1,5,1,stim/51.jpeg,Instruments,2,stim/objects/Instruments/keyboard.png,0.5,4,0.2,-0.15,right,47,2021-01-11_08h17.17.595,premup-three_ses-01_part-01_label-phase1,3.2.4,Win32,60,left,0.906000137,4,0,4,0,1,3,1,0,240,28,1,239,,,,,,,,,,,,,,,,,,
,,0,85,,,,,,,3,4,3,stim/43.jpeg,HouseObjects,1,stim/objects/HouseObjects/rubbergloves2.png,0.9,1,-0.2,0.15,left,47,2021-01-11_08h17.17.595,premup-three_ses-01_part-01_label-phase1,3.2.4,Win32,60,,,4,0,4,0,1,3,1,0,240,234,1,239,,,,,,,,,,,,,,,,,,
,,0,86,,,,,,,2,1,3,stim/13.jpeg,Instruments,2,stim/objects/Instruments/record.png,0.7,4,0.2,-0.15,right,47,2021-01-11_08h17.17.595,premup-three_ses-01_part-01_label-phase1,3.2.4,Win32,60,left,1.125999928,4,0,4,0,1,3,1,0,240,114,1,239,,,,,,,,,,,,,,,,,,
,,0,87,,,,,,,1,5,2,stim/52.jpeg,Instruments,2,stim/objects/Instruments/laud.png,0.5,3,-0.2,-0.15,right,47,2021-01-11_08h17.17.595,premup-three_ses-01_part-01_label-phase1,3.2.4,Win32,60,left,0.650000095,4,0,4,0,1,3,1,0,240,25,1,239,,,,,,,,,,,,,,,,,,
,,0,88,,,,,,,1,5,2,stim/52.jpeg,Instruments,2,stim/objects/Instruments/laud.png,0.5,4,0.2,-0.15,right,47,2021-01-11_08h17.17.595,premup-three_ses-01_part-01_label-phase1,3.2.4,Win32,60,left,0.90199995,4,0,4,0,1,3,1,0,240,37,1,239,,,,,,,,,,,,,,,,,,
,,1,89,,,,,,,1,5,2,stim/52.jpeg,Instruments,2,stim/objects/Instruments/laud.png,0.5,4,0.2,-0.15,right,47,2021-01-11_08h17.17.595,premup-three_ses-01_part-01_label-phase1,3.2.4,Win32,60,right,0.600000143,4,0,4,0,1,3,1,0,240,33,1,239,,,,,,,,,,,,,,,,,,
,,0,90,,,,,,,2,1,4,stim/14.jpeg,Instruments,2,stim/objects/Instruments/record_player.png,0.7,4,0.2,-0.15,right,47,2021-01-11_08h17.17.595,premup-three_ses-01_part-01_label-phase1,3.2.4,Win32,60,left,0.776000023,4,0,4,0,1,3,1,0,240,115,1,239,,,,,,,,,,,,,,,,,,
,,0,91,,,,,,,1,6,1,stim/61.jpeg,HouseObjects,1,stim/objects/HouseObjects/lintroller.png,0.5,1,-0.2,0.15,left,47,2021-01-11_08h17.17.595,premup-three_ses-01_part-01_label-phase1,3.2.4,Win32,60,right,0.880000114,4,0,4,0,1,3,1,0,240,56,1,239,,,,,,,,,,,,,,,,,,
,,0,92,,,,,,,1,6,1,stim/61.jpeg,HouseObjects,1,stim/objects/HouseObjects/lintroller.png,0.5,4,0.2,-0.15,left,47,2021-01-11_08h17.17.595,premup-three_ses-01_part-01_label-phase1,3.2.4,Win32,60,right,0.519000053,4,0,4,0,1,3,1,0,240,44,1,239,,,,,,,,,,,,,,,,,,
,,1,93,,,,,,,2,2,3,stim/23.jpeg,Instruments,2,stim/objects/Instruments/maraca2.png,0.3,1,-0.2,0.15,right,47,2021-01-11_08h17.17.595,premup-three_ses-01_part-01_label-phase1,3.2.4,Win32,60,right,1.231000185,4,0,4,0,1,3,1,0,240,150,1,239,,,,,,,,,,,,,,,,,,
,,1,94,,,,,,,2,2,1,stim/21.jpeg,HouseObjects,1,stim/objects/HouseObjects/iron2.png,0.7,2,0.2,0.15,left,47,2021-01-11_08h17.17.595,premup-three_ses-01_part-01_label-phase1,3.2.4,Win32,60,left,0.653999805,4,0,4,0,1,3,1,0,240,144,1,239,,,,,,,,,,,,,,,,,,
,,1,95,,,,,,,3,3,4,stim/34.jpeg,Instruments,2,stim/objects/Instruments/oboe2.png,0.9,2,0.2,0.15,right,47,2021-01-11_08h17.17.595,premup-three_ses-01_part-01_label-phase1,3.2.4,Win32,60,right,0.691999912,4,0,4,0,1,3,1,0,240,171,1,239,,,,,,,,,,,,,,,,,,
,,0,96,,,,,,,1,6,2,stim/62.jpeg,HouseObjects,1,stim/objects/HouseObjects/match.png,0.5,4,0.2,-0.15,left,47,2021-01-11_08h17.17.595,premup-three_ses-01_part-01_label-phase1,3.2.4,Win32,60,right,1.092000008,4,0,4,0,1,3,1,0,240,45,1,239,,,,,,,,,,,,,,,,,,
,,1,97,,,,,,,2,1,4,stim/14.jpeg,Instruments,2,stim/objects/Instruments/record_player.png,0.7,1,-0.2,0.15,right,47,2021-01-11_08h17.17.595,premup-three_ses-01_part-01_label-phase1,3.2.4,Win32,60,right,0.989000082,4,0,4,0,1,3,1,0,240,99,1,239,,,,,,,,,,,,,,,,,,
,,1,98,,,,,,,2,1,2,stim/12.jpeg,Instruments,2,stim/objects/Instruments/pipepiano.png,0.7,1,-0.2,0.15,right,47,2021-01-11_08h17.17.595,premup-three_ses-01_part-01_label-phase1,3.2.4,Win32,60,right,0.575999975,4,0,4,0,1,3,1,0,240,117,1,239,,,,,,,,,,,,,,,,,,
,,1,99,,,,,,,3,3,2,stim/32.jpeg,Instruments,2,stim/objects/Instruments/musicsheet2.png,0.9,4,0.2,-0.15,right,47,2021-01-11_08h17.17.595,premup-three_ses-01_part-01_label-phase1,3.2.4,Win32,60,right,0.601999998,4,0,4,0,1,3,1,0,240,189,1,239,,,,,,,,,,,,,,,,,,
,,1,100,,,,,,,3,4,4,stim/44.jpeg,HouseObjects,1,stim/objects/HouseObjects/rug2.png,0.9,4,0.2,-0.15,left,47,2021-01-11_08h17.17.595,premup-three_ses-01_part-01_label-phase1,3.2.4,Win32,60,left,0.617000103,4,0,4,0,1,3,1,0,240,215,1,239,,,,,,,,,,,,,,,,,,
,,1,101,,,,,,,2,1,2,stim/12.jpeg,Instruments,2,stim/objects/Instruments/pipepiano.png,0.7,2,0.2,0.15,right,47,2021-01-11_08h17.17.595,premup-three_ses-01_part-01_label-phase1,3.2.4,Win32,60,right,0.661999941,4,0,4,0,1,3,1,0,240,109,1,239,,,,,,,,,,,,,,,,,,
,,1,102,,,,,,,2,1,4,stim/14.jpeg,Instruments,2,stim/objects/Instruments/record_player.png,0.7,3,-0.2,-0.15,right,47,2021-01-11_08h17.17.595,premup-three_ses-01_part-01_label-phase1,3.2.4,Win32,60,right,0.624000072,4,0,4,0,1,3,1,0,240,103,1,239,,,,,,,,,,,,,,,,,,
,,1,103,,,,,,,2,2,4,stim/24.jpeg,HouseObjects,1,stim/objects/HouseObjects/knife2.png,0.7,3,-0.2,-0.15,left,47,2021-01-11_08h17.17.595,premup-three_ses-01_part-01_label-phase1,3.2.4,Win32,60,left,0.715999842,4,0,4,0,1,3,1,0,240,139,1,239,,,,,,,,,,,,,,,,,,
,,0,104,,,,,,,2,1,2,stim/12.jpeg,HouseObjects,1,stim/objects/HouseObjects/remote.png,0.3,1,-0.2,0.15,left,47,2021-01-11_08h17.17.595,premup-three_ses-01_part-01_label-phase1,3.2.4,Win32,60,right,0.644000053,4,0,4,0,1,3,1,0,240,89,1,239,,,,,,,,,,,,,,,,,,
,,1,105,,,,,,,3,3,1,stim/31.jpeg,Instruments,2,stim/objects/Instruments/metronome2.png,0.9,1,-0.2,0.15,right,47,2021-01-11_08h17.17.595,premup-three_ses-01_part-01_label-phase1,3.2.4,Win32,60,right,0.57799983,4,0,4,0,1,3,1,0,240,172,1,239,,,,,,,,,,,,,,,,,,
,,1,106,,,,,,,2,1,3,stim/13.jpeg,Instruments,2,stim/objects/Instruments/record.png,0.7,4,0.2,-0.15,right,47,2021-01-11_08h17.17.595,premup-three_ses-01_part-01_label-phase1,3.2.4,Win32,60,right,0.703999996,4,0,4,0,1,3,1,0,240,106,1,239,,,,,,,,,,,,,,,,,,
,,1,107,,,,,,,3,3,4,stim/34.jpeg,Instruments,2,stim/objects/Instruments/oboe2.png,0.9,4,0.2,-0.15,right,47,2021-01-11_08h17.17.595,premup-three_ses-01_part-01_label-phase1,3.2.4,Win32,60,right,0.500999928,4,0,4,0,1,3,1,0,240,179,1,239,,,,,,,,,,,,,,,,,,
,,1,108,,,,,,,2,2,3,stim/23.jpeg,HouseObjects,1,stim/objects/HouseObjects/key2.png,0.7,2,0.2,0.15,left,47,2021-01-11_08h17.17.595,premup-three_ses-01_part-01_label-phase1,3.2.4,Win32,60,left,0.674000025,4,0,4,0,1,3,1,0,240,134,1,239,,,,,,,,,,,,,,,,,,
,,1,109,,,,,,,1,6,4,stim/64.jpeg,Instruments,2,stim/objects/Instruments/oboe.png,0.5,3,-0.2,-0.15,right,47,2021-01-11_08h17.17.595,premup-three_ses-01_part-01_label-phase1,3.2.4,Win32,60,right,1.141000032,4,0,4,0,1,3,1,0,240,79,1,239,,,,,,,,,,,,,,,,,,
,,1,110,,,,,,,3,3,3,stim/33.jpeg,Instruments,2,stim/objects/Instruments/musicstand2.png,0.9,3,-0.2,-0.15,right,47,2021-01-11_08h17.17.595,premup-three_ses-01_part-01_label-phase1,3.2.4,Win32,60,right,0.648000002,4,0,4,0,1,3,1,0,240,186,1,239,,,,,,,,,,,,,,,,,,
,,1,111,,,,,,,3,4,2,stim/42.jpeg,HouseObjects,1,stim/objects/HouseObjects/remote2.png,0.9,2,0.2,0.15,left,47,2021-01-11_08h17.17.595,premup-three_ses-01_part-01_label-phase1,3.2.4,Win32,60,left,1.039999962,4,0,4,0,1,3,1,0,240,225,1,239,,,,,,,,,,,,,,,,,,
,,0,112,,,,,,,1,5,3,stim/53.jpeg,Instruments,2,stim/objects/Instruments/maraca.png,0.5,2,0.2,0.15,right,47,2021-01-11_08h17.17.595,premup-three_ses-01_part-01_label-phase1,3.2.4,Win32,60,left,0.693000078,4,0,4,0,1,3,1,0,240,34,1,239,,,,,,,,,,,,,,,,,,
,,0,113,,,,,,,3,3,2,stim/32.jpeg,Instruments,2,stim/objects/Instruments/musicsheet2.png,0.9,3,-0.2,-0.15,right,47,2021-01-11_08h17.17.595,premup-three_ses-01_part-01_label-phase1,3.2.4,Win32,60,left,0.614000082,4,0,4,0,1,3,1,0,240,169,1,239,,,,,,,,,,,,,,,,,,
,,1,114,,,,,,,1,6,1,stim/61.jpeg,HouseObjects,1,stim/objects/HouseObjects/lintroller.png,0.5,4,0.2,-0.15,left,47,2021-01-11_08h17.17.595,premup-three_ses-01_part-01_label-phase1,3.2.4,Win32,60,left,1.049000025,4,0,4,0,1,3,1,0,240,40,1,239,,,,,,,,,,,,,,,,,,
,,1,115,,,,,,,3,4,1,stim/41.jpeg,HouseObjects,1,stim/objects/HouseObjects/recyclingbin2.png,0.9,3,-0.2,-0.15,left,47,2021-01-11_08h17.17.595,premup-three_ses-01_part-01_label-phase1,3.2.4,Win32,60,left,0.731000185,4,0,4,0,1,3,1,0,240,212,1,239,,,,,,,,,,,,,,,,,,
,,1,116,,,,,,,2,1,2,stim/12.jpeg,Instruments,2,stim/objects/Instruments/pipepiano.png,0.7,1,-0.2,0.15,right,47,2021-01-11_08h17.17.595,premup-three_ses-01_part-01_label-phase1,3.2.4,Win32,60,right,0.696999788,4,0,4,0,1,3,1,0,240,93,1,239,,,,,,,,,,,,,,,,,,
,,0,117,,,,,,,1,6,1,stim/61.jpeg,HouseObjects,1,stim/objects/HouseObjects/lintroller.png,0.5,2,0.2,0.15,left,47,2021-01-11_08h17.17.595,premup-three_ses-01_part-01_label-phase1,3.2.4,Win32,60,right,0.812000036,4,0,4,0,1,3,1,0,240,52,1,239,,,,,,,,,,,,,,,,,,
,,0,118,,,,,,,1,5,4,stim/54.jpeg,Instruments,2,stim/objects/Instruments/marimba.png,0.5,3,-0.2,-0.15,right,47,2021-01-11_08h17.17.595,premup-three_ses-01_part-01_label-phase1,3.2.4,Win32,60,left,1.061000109,4,0,4,0,1,3,1,0,240,39,1,239,,,,,,,,,,,,,,,,,,
,,0,119,,,,,,,2,2,4,stim/24.jpeg,Instruments,2,stim/objects/Instruments/marimba2.png,0.3,3,-0.2,-0.15,right,47,2021-01-11_08h17.17.595,premup-three_ses-01_part-01_label-phase1,3.2.4,Win32,60,left,0.929999828,4,0,4,0,1,3,1,0,240,151,1,239,,,,,,,,,,,,,,,,,,
,,1,120,,,,,,,1,5,4,stim/54.jpeg,HouseObjects,1,stim/objects/HouseObjects/knife.png,0.5,4,0.2,-0.15,left,47,2021-01-11_08h17.17.595,premup-three_ses-01_part-01_label-phase1,3.2.4,Win32,60,left,0.7900002,4,0,4,0,1,3,1,0,240,19,1,239,,,,,,,,,,,,,,,,,,
,,1,121,,,,,,,3,4,3,stim/43.jpeg,HouseObjects,1,stim/objects/HouseObjects/rubbergloves2.png,0.9,2,0.2,0.15,left,47,2021-01-11_08h17.17.595,premup-three_ses-01_part-01_label-phase1,3.2.4,Win32,60,left,0.781000137,4,0,4,0,1,3,1,0,240,214,1,239,,,,,,,,,,,,,,,,,,
,,1,122,,,,,,,3,4,3,stim/43.jpeg,HouseObjects,1,stim/objects/HouseObjects/rubbergloves2.png,0.9,3,-0.2,-0.15,left,47,2021-01-11_08h17.17.595,premup-three_ses-01_part-01_label-phase1,3.2.4,Win32,60,left,0.540999889,4,0,4,0,1,3,1,0,240,230,1,239,,,,,,,,,,,,,,,,,,
,,1,123,,,,,,,2,1,1,stim/11.jpeg,Instruments,2,stim/objects/Instruments/panflute.png,0.7,3,-0.2,-0.15,right,47,2021-01-11_08h17.17.595,premup-three_ses-01_part-01_label-phase1,3.2.4,Win32,60,right,0.832999945,4,0,4,0,1,3,1,0,240,104,1,239,,,,,,,,,,,,,,,,,,
,,0,124,,,,,,,3,4,3,stim/43.jpeg,Instruments,2,stim/objects/Instruments/record2.png,0.1,3,-0.2,-0.15,right,47,2021-01-11_08h17.17.595,premup-three_ses-01_part-01_label-phase1,3.2.4,Win32,60,left,0.58100009,4,0,4,0,1,3,1,0,240,238,1,239,,,,,,,,,,,,,,,,,,
,,1,125,,,,,,,3,3,3,stim/33.jpeg,Instruments,2,stim/objects/Instruments/musicstand2.png,0.9,1,-0.2,0.15,right,47,2021-01-11_08h17.17.595,premup-three_ses-01_part-01_label-phase1,3.2.4,Win32,60,right,0.592000008,4,0,4,0,1,3,1,0,240,194,1,239,,,,,,,,,,,,,,,,,,
,,1,126,,,,,,,3,3,1,stim/31.jpeg,Instruments,2,stim/objects/Instruments/metronome2.png,0.9,3,-0.2,-0.15,right,47,2021-01-11_08h17.17.595,premup-three_ses-01_part-01_label-phase1,3.2.4,Win32,60,right,0.440000057,4,0,4,0,1,3,1,0,240,184,1,239,,,,,,,,,,,,,,,,,,
,,1,127,,,,,,,3,3,3,stim/33.jpeg,Instruments,2,stim/objects/Instruments/musicstand2.png,0.9,4,0.2,-0.15,right,47,2021-01-11_08h17.17.595,premup-three_ses-01_part-01_label-phase1,3.2.4,Win32,60,right,0.434999943,4,0,4,0,1,3,1,0,240,178,1,239,,,,,,,,,,,,,,,,,,
,,0,128,,,,,,,2,1,1,stim/11.jpeg,HouseObjects,1,stim/objects/HouseObjects/recyclingbin.png,0.3,4,0.2,-0.15,left,47,2021-01-11_08h17.17.595,premup-three_ses-01_part-01_label-phase1,3.2.4,Win32,60,right,1.052000046,4,0,4,0,1,3,1,0,240,84,1,239,,,,,,,,,,,,,,,,,,
,,1,129,,,,,,,3,3,3,stim/33.jpeg,Instruments,2,stim/objects/Instruments/musicstand2.png,0.9,2,0.2,0.15,right,47,2021-01-11_08h17.17.595,premup-three_ses-01_part-01_label-phase1,3.2.4,Win32,60,right,0.760999918,4,0,4,0,1,3,1,0,240,182,1,239,,,,,,,,,,,,,,,,,,
,,1,130,,,,,,,3,3,3,stim/33.jpeg,Instruments,2,stim/objects/Instruments/musicstand2.png,0.9,1,-0.2,0.15,right,47,2021-01-11_08h17.17.595,premup-three_ses-01_part-01_label-phase1,3.2.4,Win32,60,right,0.514000177,4,0,4,0,1,3,1,0,240,170,1,239,,,,,,,,,,,,,,,,,,
,,1,131,,,,,,,2,2,3,stim/23.jpeg,HouseObjects,1,stim/objects/HouseObjects/key2.png,0.7,3,-0.2,-0.15,left,47,2021-01-11_08h17.17.595,premup-three_ses-01_part-01_label-phase1,3.2.4,Win32,60,left,0.675000191,4,0,4,0,1,3,1,0,240,142,1,239,,,,,,,,,,,,,,,,,,
,,1,132,,,,,,,3,3,1,stim/31.jpeg,Instruments,2,stim/objects/Instruments/metronome2.png,0.9,2,0.2,0.15,right,47,2021-01-11_08h17.17.595,premup-three_ses-01_part-01_label-phase1,3.2.4,Win32,60,right,0.696999788,4,0,4,0,1,3,1,0,240,176,1,239,,,,,,,,,,,,,,,,,,
,,1,133,,,,,,,2,2,1,stim/21.jpeg,HouseObjects,1,stim/objects/HouseObjects/iron2.png,0.7,2,0.2,0.15,left,47,2021-01-11_08h17.17.595,premup-three_ses-01_part-01_label-phase1,3.2.4,Win32,60,left,0.970000029,4,0,4,0,1,3,1,0,240,128,1,239,,,,,,,,,,,,,,,,,,
,,0,134,,,,,,,1,5,1,stim/51.jpeg,HouseObjects,1,stim/objects/HouseObjects/iron.png,0.5,1,-0.2,0.15,left,47,2021-01-11_08h17.17.595,premup-three_ses-01_part-01_label-phase1,3.2.4,Win32,60,right,0.830000162,4,0,4,0,1,3,1,0,240,8,1,239,,,,,,,,,,,,,,,,,,
