key_resp_trial.keys,key_resp_trial.rt,trial_acc,trial_index,iterations.thisRepN,iterations.thisTrialN,iterations.thisN,iterations.thisIndex,iterations.ran,iterations.order,task_innerloop.thisRepN,task_innerloop.thisTrialN,task_innerloop.thisN,task_innerloop.thisIndex,task_innerloop.ran,task_innerloop.order,scn_condition,scn_cat,scn_inst,scn_file,obj_cat,obj_cat_num,obj_file,trial_cond,quadrant,obj_x,obj_y,corr_ans,participant,date,expName,psychopyVersion,OS,frameRate,slider.response,slider.rt,slider_2.response,slider_2.rt,ratings.thisRepN,ratings.thisTrialN,ratings.thisN,ratings.thisIndex,ratings.ran,ratings.order,obj_cat_top,min_resp_top,max_resp_top,obj_cat_bottom,min_resp_bottom,max_resp_bottom,enc_trials.thisRepN,enc_trials.thisTrialN,enc_trials.thisN,enc_trials.thisIndex,enc_trials.ran,enc_trials.order,fillers,ratings_final.thisRepN,ratings_final.thisTrialN,ratings_final.thisN,ratings_final.thisIndex,ratings_final.ran,ratings_final.order
,,0,1,1,0,1,0,1,0,1,0,240,132,1,239,2,4,1,stim/41.jpeg,Instruments,1,stim/objects/Instruments/panflute2.png,0.7,1,-0.2,0.15,left,48,2021-01-12_08h59.42.471,premup-three_ses-02_part-02_label-phase2,3.2.4,Win32,60,,,,,,,,,,,,,,,,,,,,,,,,,,,,,
right,0.538000107,1,2,1,0,1,0,1,0,1,0,240,22,1,239,1,1,3,stim/13.jpeg,HouseObjects,2,stim/objects/HouseObjects/rubbergloves.png,0.5,1,-0.2,0.15,right,48,2021-01-12_08h59.42.471,premup-three_ses-02_part-02_label-phase2,3.2.4,Win32,60,,,,,,,,,,,,,,,,,,,,,,,,,,,,,
left,0.615999937,1,3,1,0,1,0,1,0,1,0,240,80,1,239,2,3,1,stim/31.jpeg,Instruments,1,stim/objects/Instruments/triangle.png,0.3,2,0.2,0.15,left,48,2021-01-12_08h59.42.471,premup-three_ses-02_part-02_label-phase2,3.2.4,Win32,60,,,,,,,,,,,,,,,,,,,,,,,,,,,,,
left,0.561999798,1,4,1,0,1,0,1,0,1,0,240,126,1,239,2,4,3,stim/43.jpeg,Instruments,1,stim/objects/Instruments/record2.png,0.7,3,-0.2,-0.15,left,48,2021-01-12_08h59.42.471,premup-three_ses-02_part-02_label-phase2,3.2.4,Win32,60,,,,,,,,,,,,,,,,,,,,,,,,,,,,,
left,0.606999874,1,5,1,0,1,0,1,0,1,0,240,234,1,239,3,6,3,stim/63.jpeg,Instruments,1,stim/objects/Instruments/trumpet2.png,0.9,4,0.2,-0.15,left,48,2021-01-12_08h59.42.471,premup-three_ses-02_part-02_label-phase2,3.2.4,Win32,60,,,,,,,,,,,,,,,,,,,,,,,,,,,,,
left,0.581999779,0,6,1,0,1,0,1,0,1,0,240,103,1,239,2,3,4,stim/34.jpeg,HouseObjects,2,stim/objects/HouseObjects/thread.png,0.7,3,-0.2,-0.15,right,48,2021-01-12_08h59.42.471,premup-three_ses-02_part-02_label-phase2,3.2.4,Win32,60,,,,,,,,,,,,,,,,,,,,,,,,,,,,,
left,0.530999899,1,7,1,0,1,0,1,0,1,0,240,229,1,239,3,6,2,stim/62.jpeg,Instruments,1,stim/objects/Instruments/trombone2.png,0.9,4,0.2,-0.15,left,48,2021-01-12_08h59.42.471,premup-three_ses-02_part-02_label-phase2,3.2.4,Win32,60,,,,,,,,,,,,,,,,,,,,,,,,,,,,,
left,0.679000139,0,8,1,0,1,0,1,0,1,0,240,155,1,239,2,4,4,stim/44.jpeg,HouseObjects,2,stim/objects/HouseObjects/rug2.png,0.3,2,0.2,0.15,right,48,2021-01-12_08h59.42.471,premup-three_ses-02_part-02_label-phase2,3.2.4,Win32,60,,,,,,,,,,,,,,,,,,,,,,,,,,,,,
right,0.578999758,1,9,1,0,1,0,1,0,1,0,240,165,1,239,3,5,2,stim/52.jpeg,HouseObjects,2,stim/objects/HouseObjects/saw2.png,0.9,2,0.2,0.15,right,48,2021-01-12_08h59.42.471,premup-three_ses-02_part-02_label-phase2,3.2.4,Win32,60,,,,,,,,,,,,,,,,,,,,,,,,,,,,,
left,0.499999762,1,10,1,0,1,0,1,0,1,0,240,120,1,239,2,4,1,stim/41.jpeg,Instruments,1,stim/objects/Instruments/panflute2.png,0.7,2,0.2,0.15,left,48,2021-01-12_08h59.42.471,premup-three_ses-02_part-02_label-phase2,3.2.4,Win32,60,,,,,,,,,,,,,,,,,,,,,,,,,,,,,
left,0.417999983,1,11,1,0,1,0,1,0,1,0,240,230,1,239,3,6,3,stim/63.jpeg,Instruments,1,stim/objects/Instruments/trumpet2.png,0.9,3,-0.2,-0.15,left,48,2021-01-12_08h59.42.471,premup-three_ses-02_part-02_label-phase2,3.2.4,Win32,60,,,,,,,,,,,,,,,,,,,,,,,,,,,,,
right,0.515999794,0,12,1,0,1,0,1,0,1,0,240,16,1,239,1,1,1,stim/11.jpeg,Instruments,1,stim/objects/Instruments/panflute.png,0.5,2,0.2,0.15,left,48,2021-01-12_08h59.42.471,premup-three_ses-02_part-02_label-phase2,3.2.4,Win32,60,,,,,,,,,,,,,,,,,,,,,,,,,,,,,
right,0.661999941,0,13,1,0,1,0,1,0,1,0,240,145,1,239,2,4,2,stim/42.jpeg,Instruments,1,stim/objects/Instruments/pipepiano2.png,0.7,4,0.2,-0.15,left,48,2021-01-12_08h59.42.471,premup-three_ses-02_part-02_label-phase2,3.2.4,Win32,60,,,,,,,,,,,,,,,,,,,,,,,,,,,,,
right,0.632999897,0,14,1,0,1,0,1,0,1,0,240,43,1,239,1,2,4,stim/24.jpeg,Instruments,1,stim/objects/Instruments/timbal.png,0.5,3,-0.2,-0.15,left,48,2021-01-12_08h59.42.471,premup-three_ses-02_part-02_label-phase2,3.2.4,Win32,60,,,,,,,,,,,,,,,,,,,,,,,,,,,,,
right,0.731999874,1,15,1,0,1,0,1,0,1,0,240,68,1,239,1,2,1,stim/21.jpeg,HouseObjects,2,stim/objects/HouseObjects/safetypin.png,0.5,3,-0.2,-0.15,right,48,2021-01-12_08h59.42.471,premup-three_ses-02_part-02_label-phase2,3.2.4,Win32,60,,,,,,,,,,,,,,,,,,,,,,,,,,,,,
left,0.611999989,1,16,1,0,1,0,1,0,1,0,240,138,1,239,2,4,3,stim/43.jpeg,Instruments,1,stim/objects/Instruments/record2.png,0.7,2,0.2,0.15,left,48,2021-01-12_08h59.42.471,premup-three_ses-02_part-02_label-phase2,3.2.4,Win32,60,,,,,,,,,,,,,,,,,,,,,,,,,,,,,
right,0.748999834,1,17,1,0,1,0,1,0,1,0,240,116,1,239,2,3,1,stim/31.jpeg,HouseObjects,2,stim/objects/HouseObjects/spraybottle.png,0.7,3,-0.2,-0.15,right,48,2021-01-12_08h59.42.471,premup-three_ses-02_part-02_label-phase2,3.2.4,Win32,60,,,,,,,,,,,,,,,,,,,,,,,,,,,,,
right,0.713999748,0,18,1,0,1,0,1,0,1,0,240,46,1,239,1,2,3,stim/23.jpeg,Instruments,1,stim/objects/Instruments/tambourine.png,0.5,4,0.2,-0.15,left,48,2021-01-12_08h59.42.471,premup-three_ses-02_part-02_label-phase2,3.2.4,Win32,60,,,,,,,,,,,,,,,,,,,,,,,,,,,,,
left,0.556999922,1,19,1,0,1,0,1,0,1,0,240,228,1,239,3,6,1,stim/61.jpeg,Instruments,1,stim/objects/Instruments/triangle2.png,0.9,4,0.2,-0.15,left,48,2021-01-12_08h59.42.471,premup-three_ses-02_part-02_label-phase2,3.2.4,Win32,60,,,,,,,,,,,,,,,,,,,,,,,,,,,,,
left,0.714999914,0,20,1,0,1,0,1,0,1,0,240,154,1,239,2,4,3,stim/43.jpeg,HouseObjects,2,stim/objects/HouseObjects/rubbergloves2.png,0.3,4,0.2,-0.15,right,48,2021-01-12_08h59.42.471,premup-three_ses-02_part-02_label-phase2,3.2.4,Win32,60,,,,,,,,,,,,,,,,,,,,,,,,,,,,,
left,0.549000025,1,21,1,0,1,0,1,0,1,0,240,204,1,239,3,6,1,stim/61.jpeg,Instruments,1,stim/objects/Instruments/triangle2.png,0.9,3,-0.2,-0.15,left,48,2021-01-12_08h59.42.471,premup-three_ses-02_part-02_label-phase2,3.2.4,Win32,60,,,,,,,,,,,,,,,,,,,,,,,,,,,,,
right,0.645999908,1,22,1,0,1,0,1,0,1,0,240,38,1,239,1,1,3,stim/13.jpeg,HouseObjects,2,stim/objects/HouseObjects/rubbergloves.png,0.5,2,0.2,0.15,right,48,2021-01-12_08h59.42.471,premup-three_ses-02_part-02_label-phase2,3.2.4,Win32,60,,,,,,,,,,,,,,,,,,,,,,,,,,,,,
right,0.704999924,0,23,1,0,1,0,1,0,1,0,240,81,1,239,2,3,2,stim/32.jpeg,Instruments,1,stim/objects/Instruments/trombone.png,0.3,2,0.2,0.15,left,48,2021-01-12_08h59.42.471,premup-three_ses-02_part-02_label-phase2,3.2.4,Win32,60,,,,,,,,,,,,,,,,,,,,,,,,,,,,,
right,0.657999754,0,24,1,0,1,0,1,0,1,0,240,4,1,239,1,1,1,stim/11.jpeg,Instruments,1,stim/objects/Instruments/panflute.png,0.5,1,-0.2,0.15,left,48,2021-01-12_08h59.42.471,premup-three_ses-02_part-02_label-phase2,3.2.4,Win32,60,,,,,,,,,,,,,,,,,,,,,,,,,,,,,
right,0.646999836,1,25,1,0,1,0,1,0,1,0,240,30,1,239,1,1,3,stim/13.jpeg,HouseObjects,2,stim/objects/HouseObjects/rubbergloves.png,0.5,3,-0.2,-0.15,right,48,2021-01-12_08h59.42.471,premup-three_ses-02_part-02_label-phase2,3.2.4,Win32,60,,,,,,,,,,,,,,,,,,,,,,,,,,,,,
right,0.586999893,1,26,1,0,1,0,1,0,1,0,240,192,1,239,3,5,1,stim/51.jpeg,HouseObjects,2,stim/objects/HouseObjects/safetypin2.png,0.9,1,-0.2,0.15,right,48,2021-01-12_08h59.42.471,premup-three_ses-02_part-02_label-phase2,3.2.4,Win32,60,,,,,,,,,,,,,,,,,,,,,,,,,,,,,
left,0.73699975,1,27,1,0,1,0,1,0,1,0,240,55,1,239,1,2,4,stim/24.jpeg,Instruments,1,stim/objects/Instruments/timbal.png,0.5,2,0.2,0.15,left,48,2021-01-12_08h59.42.471,premup-three_ses-02_part-02_label-phase2,3.2.4,Win32,60,,,,,,,,,,,,,,,,,,,,,,,,,,,,,
left,0.780999899,0,28,1,0,1,0,1,0,1,0,240,98,1,239,2,3,3,stim/33.jpeg,HouseObjects,2,stim/objects/HouseObjects/thermometer.png,0.7,1,-0.2,0.15,right,48,2021-01-12_08h59.42.471,premup-three_ses-02_part-02_label-phase2,3.2.4,Win32,60,,,,,,,,,,,,,,,,,,,,,,,,,,,,,
right,0.679999828,1,29,1,0,1,0,1,0,1,0,240,32,1,239,1,1,1,stim/11.jpeg,HouseObjects,2,stim/objects/HouseObjects/recyclingbin.png,0.5,1,-0.2,0.15,right,48,2021-01-12_08h59.42.471,premup-three_ses-02_part-02_label-phase2,3.2.4,Win32,60,,,,,,,,,,,,,,,,,,,,,,,,,,,,,
left,0.891999722,0,30,1,0,1,0,1,0,1,0,240,21,1,239,1,1,2,stim/12.jpeg,HouseObjects,2,stim/objects/HouseObjects/remote.png,0.5,2,0.2,0.15,right,48,2021-01-12_08h59.42.471,premup-three_ses-02_part-02_label-phase2,3.2.4,Win32,60,,,,,,,,,,,,,,,,,,,,,,,,,,,,,
left,0.867000103,0,31,1,0,1,0,1,0,1,0,240,67,1,239,1,2,4,stim/24.jpeg,HouseObjects,2,stim/objects/HouseObjects/sponge.png,0.5,2,0.2,0.15,right,48,2021-01-12_08h59.42.471,premup-three_ses-02_part-02_label-phase2,3.2.4,Win32,60,,,,,,,,,,,,,,,,,,,,,,,,,,,,,
right,0.657999992,0,32,1,0,1,0,1,0,1,0,240,51,1,239,1,2,4,stim/24.jpeg,Instruments,1,stim/objects/Instruments/timbal.png,0.5,4,0.2,-0.15,left,48,2021-01-12_08h59.42.471,premup-three_ses-02_part-02_label-phase2,3.2.4,Win32,60,,,,,,,,,,,,,,,,,,,,,,,,,,,,,
right,0.740999937,1,33,1,0,1,0,1,0,1,0,240,114,1,239,2,3,3,stim/33.jpeg,HouseObjects,2,stim/objects/HouseObjects/thermometer.png,0.7,4,0.2,-0.15,right,48,2021-01-12_08h59.42.471,premup-three_ses-02_part-02_label-phase2,3.2.4,Win32,60,,,,,,,,,,,,,,,,,,,,,,,,,,,,,
right,0.67599988,1,34,1,0,1,0,1,0,1,0,240,31,1,239,1,1,4,stim/14.jpeg,HouseObjects,2,stim/objects/HouseObjects/rug.png,0.5,1,-0.2,0.15,right,48,2021-01-12_08h59.42.471,premup-three_ses-02_part-02_label-phase2,3.2.4,Win32,60,,,,,,,,,,,,,,,,,,,,,,,,,,,,,
right,0.667999983,0,35,1,0,1,0,1,0,1,0,240,15,1,239,1,1,4,stim/14.jpeg,Instruments,1,stim/objects/Instruments/record_player.png,0.5,3,-0.2,-0.15,left,48,2021-01-12_08h59.42.471,premup-three_ses-02_part-02_label-phase2,3.2.4,Win32,60,,,,,,,,,,,,,,,,,,,,,,,,,,,,,
right,0.73300004,1,36,1,0,1,0,1,0,1,0,240,60,1,239,1,2,1,stim/21.jpeg,HouseObjects,2,stim/objects/HouseObjects/safetypin.png,0.5,3,-0.2,-0.15,right,48,2021-01-12_08h59.42.471,premup-three_ses-02_part-02_label-phase2,3.2.4,Win32,60,,,,,,,,,,,,,,,,,,,,,,,,,,,,,
left,0.549999952,1,37,1,0,1,0,1,0,1,0,240,202,1,239,3,6,3,stim/63.jpeg,Instruments,1,stim/objects/Instruments/trumpet2.png,0.9,4,0.2,-0.15,left,48,2021-01-12_08h59.42.471,premup-three_ses-02_part-02_label-phase2,3.2.4,Win32,60,,,,,,,,,,,,,,,,,,,,,,,,,,,,,
left,0.509999752,1,38,1,0,1,0,1,0,1,0,240,211,1,239,3,6,4,stim/64.jpeg,Instruments,1,stim/objects/Instruments/tuba2.png,0.9,2,0.2,0.15,left,48,2021-01-12_08h59.42.471,premup-three_ses-02_part-02_label-phase2,3.2.4,Win32,60,,,,,,,,,,,,,,,,,,,,,,,,,,,,,
right,0.621999979,0,39,1,0,1,0,1,0,1,0,240,6,1,239,1,1,3,stim/13.jpeg,Instruments,1,stim/objects/Instruments/record.png,0.5,2,0.2,0.15,left,48,2021-01-12_08h59.42.471,premup-three_ses-02_part-02_label-phase2,3.2.4,Win32,60,,,,,,,,,,,,,,,,,,,,,,,,,,,,,
left,0.71999979,0,40,1,0,1,0,1,0,1,0,240,153,1,239,2,4,2,stim/42.jpeg,HouseObjects,2,stim/objects/HouseObjects/remote2.png,0.3,2,0.2,0.15,right,48,2021-01-12_08h59.42.471,premup-three_ses-02_part-02_label-phase2,3.2.4,Win32,60,,,,,,,,,,,,,,,,,,,,,,,,,,,,,
left,0.787999868,0,41,1,0,1,0,1,0,1,0,240,63,1,239,1,2,4,stim/24.jpeg,HouseObjects,2,stim/objects/HouseObjects/sponge.png,0.5,2,0.2,0.15,right,48,2021-01-12_08h59.42.471,premup-three_ses-02_part-02_label-phase2,3.2.4,Win32,60,,,,,,,,,,,,,,,,,,,,,,,,,,,,,
left,0.651000023,0,42,1,0,1,0,1,0,1,0,240,159,1,239,2,4,4,stim/44.jpeg,HouseObjects,2,stim/objects/HouseObjects/rug2.png,0.3,1,-0.2,0.15,right,48,2021-01-12_08h59.42.471,premup-three_ses-02_part-02_label-phase2,3.2.4,Win32,60,,,,,,,,,,,,,,,,,,,,,,,,,,,,,
left,0.641999722,0,43,1,0,1,0,1,0,1,0,240,69,1,239,1,2,2,stim/22.jpeg,HouseObjects,2,stim/objects/HouseObjects/saw.png,0.5,1,-0.2,0.15,right,48,2021-01-12_08h59.42.471,premup-three_ses-02_part-02_label-phase2,3.2.4,Win32,60,,,,,,,,,,,,,,,,,,,,,,,,,,,,,
right,0.521999836,1,44,1,0,1,0,1,0,1,0,240,77,1,239,1,2,2,stim/22.jpeg,HouseObjects,2,stim/objects/HouseObjects/saw.png,0.5,3,-0.2,-0.15,right,48,2021-01-12_08h59.42.471,premup-three_ses-02_part-02_label-phase2,3.2.4,Win32,60,,,,,,,,,,,,,,,,,,,,,,,,,,,,,
left,0.547999859,1,45,1,0,1,0,1,0,1,0,240,83,1,239,2,3,4,stim/34.jpeg,Instruments,1,stim/objects/Instruments/tuba.png,0.3,3,-0.2,-0.15,left,48,2021-01-12_08h59.42.471,premup-three_ses-02_part-02_label-phase2,3.2.4,Win32,60,,,,,,,,,,,,,,,,,,,,,,,,,,,,,
left,0.507999897,1,46,1,0,1,0,1,0,1,0,240,223,1,239,3,6,4,stim/64.jpeg,Instruments,1,stim/objects/Instruments/tuba2.png,0.9,2,0.2,0.15,left,48,2021-01-12_08h59.42.471,premup-three_ses-02_part-02_label-phase2,3.2.4,Win32,60,,,,,,,,,,,,,,,,,,,,,,,,,,,,,
left,0.652999878,1,47,1,0,1,0,1,0,1,0,240,133,1,239,2,4,2,stim/42.jpeg,Instruments,1,stim/objects/Instruments/pipepiano2.png,0.7,1,-0.2,0.15,left,48,2021-01-12_08h59.42.471,premup-three_ses-02_part-02_label-phase2,3.2.4,Win32,60,,,,,,,,,,,,,,,,,,,,,,,,,,,,,
right,0.585999966,1,48,1,0,1,0,1,0,1,0,240,171,1,239,3,5,4,stim/54.jpeg,HouseObjects,2,stim/objects/HouseObjects/sponge2.png,0.9,4,0.2,-0.15,right,48,2021-01-12_08h59.42.471,premup-three_ses-02_part-02_label-phase2,3.2.4,Win32,60,,,,,,,,,,,,,,,,,,,,,,,,,,,,,
right,0.66899991,1,49,1,0,1,0,1,0,1,0,240,39,1,239,1,1,4,stim/14.jpeg,HouseObjects,2,stim/objects/HouseObjects/rug.png,0.5,1,-0.2,0.15,right,48,2021-01-12_08h59.42.471,premup-three_ses-02_part-02_label-phase2,3.2.4,Win32,60,,,,,,,,,,,,,,,,,,,,,,,,,,,,,
left,0.729999781,0,50,1,0,1,0,1,0,1,0,240,102,1,239,2,3,3,stim/33.jpeg,HouseObjects,2,stim/objects/HouseObjects/thermometer.png,0.7,4,0.2,-0.15,right,48,2021-01-12_08h59.42.471,premup-three_ses-02_part-02_label-phase2,3.2.4,Win32,60,,,,,,,,,,,,,,,,,,,,,,,,,,,,,
left,0.497999907,1,51,1,0,1,0,1,0,1,0,240,222,1,239,3,6,3,stim/63.jpeg,Instruments,1,stim/objects/Instruments/trumpet2.png,0.9,1,-0.2,0.15,left,48,2021-01-12_08h59.42.471,premup-three_ses-02_part-02_label-phase2,3.2.4,Win32,60,,,,,,,,,,,,,,,,,,,,,,,,,,,,,
left,0.457000017,1,52,1,0,1,0,1,0,1,0,240,214,1,239,3,6,3,stim/63.jpeg,Instruments,1,stim/objects/Instruments/trumpet2.png,0.9,2,0.2,0.15,left,48,2021-01-12_08h59.42.471,premup-three_ses-02_part-02_label-phase2,3.2.4,Win32,60,,,,,,,,,,,,,,,,,,,,,,,,,,,,,
right,0.643999815,0,53,1,0,1,0,1,0,1,0,240,45,1,239,1,2,2,stim/22.jpeg,Instruments,1,stim/objects/Instruments/speaker.png,0.5,1,-0.2,0.15,left,48,2021-01-12_08h59.42.471,premup-three_ses-02_part-02_label-phase2,3.2.4,Win32,60,,,,,,,,,,,,,,,,,,,,,,,,,,,,,
left,0.630999804,1,54,1,0,1,0,1,0,1,0,240,123,1,239,2,4,4,stim/44.jpeg,Instruments,1,stim/objects/Instruments/record_player2.png,0.7,3,-0.2,-0.15,left,48,2021-01-12_08h59.42.471,premup-three_ses-02_part-02_label-phase2,3.2.4,Win32,60,,,,,,,,,,,,,,,,,,,,,,,,,,,,,
left,0.473999739,0,55,1,0,1,0,1,0,1,0,240,156,1,239,2,4,1,stim/41.jpeg,HouseObjects,2,stim/objects/HouseObjects/recyclingbin2.png,0.3,4,0.2,-0.15,right,48,2021-01-12_08h59.42.471,premup-three_ses-02_part-02_label-phase2,3.2.4,Win32,60,,,,,,,,,,,,,,,,,,,,,,,,,,,,,
right,0.631999969,1,56,1,0,1,0,1,0,1,0,240,29,1,239,1,1,2,stim/12.jpeg,HouseObjects,2,stim/objects/HouseObjects/remote.png,0.5,1,-0.2,0.15,right,48,2021-01-12_08h59.42.471,premup-three_ses-02_part-02_label-phase2,3.2.4,Win32,60,,,,,,,,,,,,,,,,,,,,,,,,,,,,,
right,0.684000015,1,57,1,0,1,0,1,0,1,0,240,175,1,239,3,5,4,stim/54.jpeg,HouseObjects,2,stim/objects/HouseObjects/sponge2.png,0.9,3,-0.2,-0.15,right,48,2021-01-12_08h59.42.471,premup-three_ses-02_part-02_label-phase2,3.2.4,Win32,60,,,,,,,,,,,,,,,,,,,,,,,,,,,,,
left,0.848999739,1,58,1,0,1,0,1,0,1,0,240,89,1,239,2,3,2,stim/32.jpeg,Instruments,1,stim/objects/Instruments/trombone.png,0.3,3,-0.2,-0.15,left,48,2021-01-12_08h59.42.471,premup-three_ses-02_part-02_label-phase2,3.2.4,Win32,60,,,,,,,,,,,,,,,,,,,,,,,,,,,,,
left,0.70600009,0,59,1,0,1,0,1,0,1,0,240,150,1,239,2,4,3,stim/43.jpeg,HouseObjects,2,stim/objects/HouseObjects/rubbergloves2.png,0.3,3,-0.2,-0.15,right,48,2021-01-12_08h59.42.471,premup-three_ses-02_part-02_label-phase2,3.2.4,Win32,60,,,,,,,,,,,,,,,,,,,,,,,,,,,,,
left,0.593999863,0,60,1,0,1,0,1,0,1,0,240,97,1,239,2,3,2,stim/32.jpeg,HouseObjects,2,stim/objects/HouseObjects/teapot.png,0.7,4,0.2,-0.15,right,48,2021-01-12_08h59.42.471,premup-three_ses-02_part-02_label-phase2,3.2.4,Win32,60,,,,,,,,,,,,,,,,,,,,,,,,,,,,,
left,0.544999838,1,61,1,0,1,0,1,0,1,0,240,210,1,239,3,6,3,stim/63.jpeg,Instruments,1,stim/objects/Instruments/trumpet2.png,0.9,3,-0.2,-0.15,left,48,2021-01-12_08h59.42.471,premup-three_ses-02_part-02_label-phase2,3.2.4,Win32,60,,,,,,,,,,,,,,,,,,,,,,,,,,,,,
left,0.527999878,1,62,1,0,1,0,1,0,1,0,240,235,1,239,3,6,4,stim/64.jpeg,Instruments,1,stim/objects/Instruments/tuba2.png,0.9,1,-0.2,0.15,left,48,2021-01-12_08h59.42.471,premup-three_ses-02_part-02_label-phase2,3.2.4,Win32,60,,,,,,,,,,,,,,,,,,,,,,,,,,,,,
right,0.447000027,0,63,1,0,1,0,1,0,1,0,240,53,1,239,1,2,2,stim/22.jpeg,Instruments,1,stim/objects/Instruments/speaker.png,0.5,3,-0.2,-0.15,left,48,2021-01-12_08h59.42.471,premup-three_ses-02_part-02_label-phase2,3.2.4,Win32,60,,,,,,,,,,,,,,,,,,,,,,,,,,,,,
right,0.549999952,1,64,1,0,1,0,1,0,1,0,240,194,1,239,3,5,3,stim/53.jpeg,HouseObjects,2,stim/objects/HouseObjects/scale2.png,0.9,1,-0.2,0.15,right,48,2021-01-12_08h59.42.471,premup-three_ses-02_part-02_label-phase2,3.2.4,Win32,60,,,,,,,,,,,,,,,,,,,,,,,,,,,,,
left,0.595000029,0,65,1,0,1,0,1,0,1,0,240,100,1,239,2,3,1,stim/31.jpeg,HouseObjects,2,stim/objects/HouseObjects/spraybottle.png,0.7,4,0.2,-0.15,right,48,2021-01-12_08h59.42.471,premup-three_ses-02_part-02_label-phase2,3.2.4,Win32,60,,,,,,,,,,,,,,,,,,,,,,,,,,,,,
right,0.526000023,1,66,1,0,1,0,1,0,1,0,240,186,1,239,3,5,3,stim/53.jpeg,HouseObjects,2,stim/objects/HouseObjects/scale2.png,0.9,2,0.2,0.15,right,48,2021-01-12_08h59.42.471,premup-three_ses-02_part-02_label-phase2,3.2.4,Win32,60,,,,,,,,,,,,,,,,,,,,,,,,,,,,,
left,0.680000067,0,67,1,0,1,0,1,0,1,0,240,152,1,239,2,4,1,stim/41.jpeg,HouseObjects,2,stim/objects/HouseObjects/recyclingbin2.png,0.3,3,-0.2,-0.15,right,48,2021-01-12_08h59.42.471,premup-three_ses-02_part-02_label-phase2,3.2.4,Win32,60,,,,,,,,,,,,,,,,,,,,,,,,,,,,,
right,0.532999754,0,68,1,0,1,0,1,0,1,0,240,44,1,239,1,2,1,stim/21.jpeg,Instruments,1,stim/objects/Instruments/saxophone.png,0.5,3,-0.2,-0.15,left,48,2021-01-12_08h59.42.471,premup-three_ses-02_part-02_label-phase2,3.2.4,Win32,60,,,,,,,,,,,,,,,,,,,,,,,,,,,,,
right,0.476999998,0,69,1,0,1,0,1,0,1,0,240,50,1,239,1,2,3,stim/23.jpeg,Instruments,1,stim/objects/Instruments/tambourine.png,0.5,4,0.2,-0.15,left,48,2021-01-12_08h59.42.471,premup-three_ses-02_part-02_label-phase2,3.2.4,Win32,60,,,,,,,,,,,,,,,,,,,,,,,,,,,,,
right,0.687999964,1,70,1,0,1,0,1,0,1,0,240,71,1,239,1,2,4,stim/24.jpeg,HouseObjects,2,stim/objects/HouseObjects/sponge.png,0.5,2,0.2,0.15,right,48,2021-01-12_08h59.42.471,premup-three_ses-02_part-02_label-phase2,3.2.4,Win32,60,,,,,,,,,,,,,,,,,,,,,,,,,,,,,
right,0.445999861,0,71,1,0,1,0,1,0,1,0,240,49,1,239,1,2,2,stim/22.jpeg,Instruments,1,stim/objects/Instruments/speaker.png,0.5,4,0.2,-0.15,left,48,2021-01-12_08h59.42.471,premup-three_ses-02_part-02_label-phase2,3.2.4,Win32,60,,,,,,,,,,,,,,,,,,,,,,,,,,,,,
right,0.554999828,0,72,1,0,1,0,1,0,1,0,240,161,1,239,3,5,2,stim/52.jpeg,Instruments,1,stim/objects/Instruments/speaker2.png,0.1,3,-0.2,-0.15,left,48,2021-01-12_08h59.42.471,premup-three_ses-02_part-02_label-phase2,3.2.4,Win32,60,,,,,,,,,,,,,,,,,,,,,,,,,,,,,
right,0.612999916,0,73,1,0,1,0,1,0,1,0,240,14,1,239,1,1,3,stim/13.jpeg,Instruments,1,stim/objects/Instruments/record.png,0.5,1,-0.2,0.15,left,48,2021-01-12_08h59.42.471,premup-three_ses-02_part-02_label-phase2,3.2.4,Win32,60,,,,,,,,,,,,,,,,,,,,,,,,,,,,,
right,0.57799983,1,74,1,0,1,0,1,0,1,0,240,76,1,239,1,2,1,stim/21.jpeg,HouseObjects,2,stim/objects/HouseObjects/safetypin.png,0.5,3,-0.2,-0.15,right,48,2021-01-12_08h59.42.471,premup-three_ses-02_part-02_label-phase2,3.2.4,Win32,60,,,,,,,,,,,,,,,,,,,,,,,,,,,,,
right,0.842000008,0,75,1,0,1,0,1,0,1,0,240,8,1,239,1,1,1,stim/11.jpeg,Instruments,1,stim/objects/Instruments/panflute.png,0.5,2,0.2,0.15,left,48,2021-01-12_08h59.42.471,premup-three_ses-02_part-02_label-phase2,3.2.4,Win32,60,,,,,,,,,,,,,,,,,,,,,,,,,,,,,
,,0,76,1,0,1,0,1,0,1,0,240,58,1,239,1,2,3,stim/23.jpeg,Instruments,1,stim/objects/Instruments/tambourine.png,0.5,1,-0.2,0.15,left,48,2021-01-12_08h59.42.471,premup-three_ses-02_part-02_label-phase2,3.2.4,Win32,60,,,,,,,,,,,,,,,,,,,,,,,,,,,,,
left,0.53399992,1,77,1,0,1,0,1,0,1,0,240,139,1,239,2,4,4,stim/44.jpeg,Instruments,1,stim/objects/Instruments/record_player2.png,0.7,1,-0.2,0.15,left,48,2021-01-12_08h59.42.471,premup-three_ses-02_part-02_label-phase2,3.2.4,Win32,60,,,,,,,,,,,,,,,,,,,,,,,,,,,,,
right,0.503999949,1,78,1,0,1,0,1,0,1,0,240,24,1,239,1,1,1,stim/11.jpeg,HouseObjects,2,stim/objects/HouseObjects/recyclingbin.png,0.5,2,0.2,0.15,right,48,2021-01-12_08h59.42.471,premup-three_ses-02_part-02_label-phase2,3.2.4,Win32,60,,,,,,,,,,,,,,,,,,,,,,,,,,,,,
right,0.491999865,1,79,1,0,1,0,1,0,1,0,240,182,1,239,3,5,3,stim/53.jpeg,HouseObjects,2,stim/objects/HouseObjects/scale2.png,0.9,1,-0.2,0.15,right,48,2021-01-12_08h59.42.471,premup-three_ses-02_part-02_label-phase2,3.2.4,Win32,60,,,,,,,,,,,,,,,,,,,,,,,,,,,,,
right,0.659999847,1,80,1,0,1,0,1,0,1,0,240,106,1,239,2,3,3,stim/33.jpeg,HouseObjects,2,stim/objects/HouseObjects/thermometer.png,0.7,1,-0.2,0.15,right,48,2021-01-12_08h59.42.471,premup-three_ses-02_part-02_label-phase2,3.2.4,Win32,60,,,,,,,,,,,,,,,,,,,,,,,,,,,,,
left,0.512000084,1,81,1,0,1,0,1,0,1,0,240,227,1,239,3,6,4,stim/64.jpeg,Instruments,1,stim/objects/Instruments/tuba2.png,0.9,3,-0.2,-0.15,left,48,2021-01-12_08h59.42.471,premup-three_ses-02_part-02_label-phase2,3.2.4,Win32,60,,,,,,,,,,,,,,,,,,,,,,,,,,,,,
left,0.440999985,1,82,1,0,1,0,1,0,1,0,240,218,1,239,3,6,3,stim/63.jpeg,Instruments,1,stim/objects/Instruments/trumpet2.png,0.9,3,-0.2,-0.15,left,48,2021-01-12_08h59.42.471,premup-three_ses-02_part-02_label-phase2,3.2.4,Win32,60,,,,,,,,,,,,,,,,,,,,,,,,,,,,,
right,0.482000113,0,83,1,0,1,0,1,0,1,0,240,86,1,239,2,3,3,stim/33.jpeg,Instruments,1,stim/objects/Instruments/trumpet.png,0.3,1,-0.2,0.15,left,48,2021-01-12_08h59.42.471,premup-three_ses-02_part-02_label-phase2,3.2.4,Win32,60,,,,,,,,,,,,,,,,,,,,,,,,,,,,,
right,0.488999844,1,84,1,0,1,0,1,0,1,0,240,167,1,239,3,5,4,stim/54.jpeg,HouseObjects,2,stim/objects/HouseObjects/sponge2.png,0.9,1,-0.2,0.15,right,48,2021-01-12_08h59.42.471,premup-three_ses-02_part-02_label-phase2,3.2.4,Win32,60,,,,,,,,,,,,,,,,,,,,,,,,,,,,,
right,0.664000034,1,85,1,0,1,0,1,0,1,0,240,20,1,239,1,1,1,stim/11.jpeg,HouseObjects,2,stim/objects/HouseObjects/recyclingbin.png,0.5,3,-0.2,-0.15,right,48,2021-01-12_08h59.42.471,premup-three_ses-02_part-02_label-phase2,3.2.4,Win32,60,,,,,,,,,,,,,,,,,,,,,,,,,,,,,
right,0.454999924,1,86,1,0,1,0,1,0,1,0,240,198,1,239,3,5,3,stim/53.jpeg,HouseObjects,2,stim/objects/HouseObjects/scale2.png,0.9,1,-0.2,0.15,right,48,2021-01-12_08h59.42.471,premup-three_ses-02_part-02_label-phase2,3.2.4,Win32,60,,,,,,,,,,,,,,,,,,,,,,,,,,,,,
left,0.483999968,1,87,1,0,1,0,1,0,1,0,240,203,1,239,3,6,4,stim/64.jpeg,Instruments,1,stim/objects/Instruments/tuba2.png,0.9,3,-0.2,-0.15,left,48,2021-01-12_08h59.42.471,premup-three_ses-02_part-02_label-phase2,3.2.4,Win32,60,,,,,,,,,,,,,,,,,,,,,,,,,,,,,
right,0.476999998,1,88,1,0,1,0,1,0,1,0,240,180,1,239,3,5,1,stim/51.jpeg,HouseObjects,2,stim/objects/HouseObjects/safetypin2.png,0.9,4,0.2,-0.15,right,48,2021-01-12_08h59.42.471,premup-three_ses-02_part-02_label-phase2,3.2.4,Win32,60,,,,,,,,,,,,,,,,,,,,,,,,,,,,,
left,0.504999876,1,89,1,0,1,0,1,0,1,0,240,212,1,239,3,6,1,stim/61.jpeg,Instruments,1,stim/objects/Instruments/triangle2.png,0.9,3,-0.2,-0.15,left,48,2021-01-12_08h59.42.471,premup-three_ses-02_part-02_label-phase2,3.2.4,Win32,60,,,,,,,,,,,,,,,,,,,,,,,,,,,,,
left,0.638999939,1,90,1,0,1,0,1,0,1,0,240,42,1,239,1,2,3,stim/23.jpeg,Instruments,1,stim/objects/Instruments/tambourine.png,0.5,3,-0.2,-0.15,left,48,2021-01-12_08h59.42.471,premup-three_ses-02_part-02_label-phase2,3.2.4,Win32,60,,,,,,,,,,,,,,,,,,,,,,,,,,,,,
right,0.532999754,0,91,1,0,1,0,1,0,1,0,240,41,1,239,1,2,2,stim/22.jpeg,Instruments,1,stim/objects/Instruments/speaker.png,0.5,4,0.2,-0.15,left,48,2021-01-12_08h59.42.471,premup-three_ses-02_part-02_label-phase2,3.2.4,Win32,60,,,,,,,,,,,,,,,,,,,,,,,,,,,,,
left,0.513000011,1,92,1,0,1,0,1,0,1,0,240,213,1,239,3,6,2,stim/62.jpeg,Instruments,1,stim/objects/Instruments/trombone2.png,0.9,1,-0.2,0.15,left,48,2021-01-12_08h59.42.471,premup-three_ses-02_part-02_label-phase2,3.2.4,Win32,60,,,,,,,,,,,,,,,,,,,,,,,,,,,,,
right,0.671000004,0,93,1,0,1,0,1,0,1,0,240,5,1,239,1,1,2,stim/12.jpeg,Instruments,1,stim/objects/Instruments/pipepiano.png,0.5,2,0.2,0.15,left,48,2021-01-12_08h59.42.471,premup-three_ses-02_part-02_label-phase2,3.2.4,Win32,60,,,,,,,,,,,,,,,,,,,,,,,,,,,,,
right,0.623999834,1,94,1,0,1,0,1,0,1,0,240,25,1,239,1,1,2,stim/12.jpeg,HouseObjects,2,stim/objects/HouseObjects/remote.png,0.5,2,0.2,0.15,right,48,2021-01-12_08h59.42.471,premup-three_ses-02_part-02_label-phase2,3.2.4,Win32,60,,,,,,,,,,,,,,,,,,,,,,,,,,,,,
right,0.467000008,0,95,1,0,1,0,1,0,1,0,240,11,1,239,1,1,4,stim/14.jpeg,Instruments,1,stim/objects/Instruments/record_player.png,0.5,4,0.2,-0.15,left,48,2021-01-12_08h59.42.471,premup-three_ses-02_part-02_label-phase2,3.2.4,Win32,60,,,,,,,,,,,,,,,,,,,,,,,,,,,,,
left,0.557999849,1,96,1,0,1,0,1,0,1,0,240,209,1,239,3,6,2,stim/62.jpeg,Instruments,1,stim/objects/Instruments/trombone2.png,0.9,4,0.2,-0.15,left,48,2021-01-12_08h59.42.471,premup-three_ses-02_part-02_label-phase2,3.2.4,Win32,60,,,,,,,,,,,,,,,,,,,,,,,,,,,,,
left,0.627999783,1,97,1,0,1,0,1,0,1,0,240,137,1,239,2,4,2,stim/42.jpeg,Instruments,1,stim/objects/Instruments/pipepiano2.png,0.7,2,0.2,0.15,left,48,2021-01-12_08h59.42.471,premup-three_ses-02_part-02_label-phase2,3.2.4,Win32,60,,,,,,,,,,,,,,,,,,,,,,,,,,,,,
right,0.47300005,0,98,1,0,1,0,1,0,1,0,240,84,1,239,2,3,1,stim/31.jpeg,Instruments,1,stim/objects/Instruments/triangle.png,0.3,2,0.2,0.15,left,48,2021-01-12_08h59.42.471,premup-three_ses-02_part-02_label-phase2,3.2.4,Win32,60,,,,,,,,,,,,,,,,,,,,,,,,,,,,,
left,0.615999937,1,99,1,0,1,0,1,0,1,0,240,128,1,239,2,4,1,stim/41.jpeg,Instruments,1,stim/objects/Instruments/panflute2.png,0.7,2,0.2,0.15,left,48,2021-01-12_08h59.42.471,premup-three_ses-02_part-02_label-phase2,3.2.4,Win32,60,,,,,,,,,,,,,,,,,,,,,,,,,,,,,
left,0.674000025,1,100,1,0,1,0,1,0,1,0,240,134,1,239,2,4,3,stim/43.jpeg,Instruments,1,stim/objects/Instruments/record2.png,0.7,1,-0.2,0.15,left,48,2021-01-12_08h59.42.471,premup-three_ses-02_part-02_label-phase2,3.2.4,Win32,60,,,,,,,,,,,,,,,,,,,,,,,,,,,,,
left,0.680999994,0,101,1,0,1,0,1,0,1,0,240,62,1,239,1,2,3,stim/23.jpeg,HouseObjects,2,stim/objects/HouseObjects/scale.png,0.5,3,-0.2,-0.15,right,48,2021-01-12_08h59.42.471,premup-three_ses-02_part-02_label-phase2,3.2.4,Win32,60,,,,,,,,,,,,,,,,,,,,,,,,,,,,,
right,0.519999743,0,102,1,0,1,0,1,0,1,0,240,59,1,239,1,2,4,stim/24.jpeg,Instruments,1,stim/objects/Instruments/timbal.png,0.5,1,-0.2,0.15,left,48,2021-01-12_08h59.42.471,premup-three_ses-02_part-02_label-phase2,3.2.4,Win32,60,,,,,,,,,,,,,,,,,,,,,,,,,,,,,
right,0.657000065,0,103,1,0,1,0,1,0,1,0,240,18,1,239,1,1,3,stim/13.jpeg,Instruments,1,stim/objects/Instruments/record.png,0.5,1,-0.2,0.15,left,48,2021-01-12_08h59.42.471,premup-three_ses-02_part-02_label-phase2,3.2.4,Win32,60,,,,,,,,,,,,,,,,,,,,,,,,,,,,,
,,0,104,1,0,1,0,1,0,1,0,240,28,1,239,1,1,1,stim/11.jpeg,HouseObjects,2,stim/objects/HouseObjects/recyclingbin.png,0.5,2,0.2,0.15,right,48,2021-01-12_08h59.42.471,premup-three_ses-02_part-02_label-phase2,3.2.4,Win32,60,,,,,,,,,,,,,,,,,,,,,,,,,,,,,
left,0.838000059,0,105,1,0,1,0,1,0,1,0,240,66,1,239,1,2,3,stim/23.jpeg,HouseObjects,2,stim/objects/HouseObjects/scale.png,0.5,4,0.2,-0.15,right,48,2021-01-12_08h59.42.471,premup-three_ses-02_part-02_label-phase2,3.2.4,Win32,60,,,,,,,,,,,,,,,,,,,,,,,,,,,,,
left,0.532000065,1,106,1,0,1,0,1,0,1,0,240,140,1,239,2,4,1,stim/41.jpeg,Instruments,1,stim/objects/Instruments/panflute2.png,0.7,2,0.2,0.15,left,48,2021-01-12_08h59.42.471,premup-three_ses-02_part-02_label-phase2,3.2.4,Win32,60,,,,,,,,,,,,,,,,,,,,,,,,,,,,,
right,0.510999918,1,107,1,0,1,0,1,0,1,0,240,183,1,239,3,5,4,stim/54.jpeg,HouseObjects,2,stim/objects/HouseObjects/sponge2.png,0.9,1,-0.2,0.15,right,48,2021-01-12_08h59.42.471,premup-three_ses-02_part-02_label-phase2,3.2.4,Win32,60,,,,,,,,,,,,,,,,,,,,,,,,,,,,,
left,0.529999971,1,108,1,0,1,0,1,0,1,0,240,224,1,239,3,6,1,stim/61.jpeg,Instruments,1,stim/objects/Instruments/triangle2.png,0.9,4,0.2,-0.15,left,48,2021-01-12_08h59.42.471,premup-three_ses-02_part-02_label-phase2,3.2.4,Win32,60,,,,,,,,,,,,,,,,,,,,,,,,,,,,,
left,0.55099988,0,109,1,0,1,0,1,0,1,0,240,148,1,239,2,4,1,stim/41.jpeg,HouseObjects,2,stim/objects/HouseObjects/recyclingbin2.png,0.3,4,0.2,-0.15,right,48,2021-01-12_08h59.42.471,premup-three_ses-02_part-02_label-phase2,3.2.4,Win32,60,,,,,,,,,,,,,,,,,,,,,,,,,,,,,
left,0.61500001,0,110,1,0,1,0,1,0,1,0,240,74,1,239,1,2,3,stim/23.jpeg,HouseObjects,2,stim/objects/HouseObjects/scale.png,0.5,2,0.2,0.15,right,48,2021-01-12_08h59.42.471,premup-three_ses-02_part-02_label-phase2,3.2.4,Win32,60,,,,,,,,,,,,,,,,,,,,,,,,,,,,,
right,0.639999866,1,111,1,0,1,0,1,0,1,0,240,33,1,239,1,1,2,stim/12.jpeg,HouseObjects,2,stim/objects/HouseObjects/remote.png,0.5,2,0.2,0.15,right,48,2021-01-12_08h59.42.471,premup-three_ses-02_part-02_label-phase2,3.2.4,Win32,60,,,,,,,,,,,,,,,,,,,,,,,,,,,,,
right,0.614000082,0,112,1,0,1,0,1,0,1,0,240,82,1,239,2,3,3,stim/33.jpeg,Instruments,1,stim/objects/Instruments/trumpet.png,0.3,3,-0.2,-0.15,left,48,2021-01-12_08h59.42.471,premup-three_ses-02_part-02_label-phase2,3.2.4,Win32,60,,,,,,,,,,,,,,,,,,,,,,,,,,,,,
right,0.515000105,1,113,1,0,1,0,1,0,1,0,240,174,1,239,3,5,3,stim/53.jpeg,HouseObjects,2,stim/objects/HouseObjects/scale2.png,0.9,2,0.2,0.15,right,48,2021-01-12_08h59.42.471,premup-three_ses-02_part-02_label-phase2,3.2.4,Win32,60,,,,,,,,,,,,,,,,,,,,,,,,,,,,,
right,0.437999964,1,114,1,0,1,0,1,0,1,0,240,195,1,239,3,5,4,stim/54.jpeg,HouseObjects,2,stim/objects/HouseObjects/sponge2.png,0.9,2,0.2,0.15,right,48,2021-01-12_08h59.42.471,premup-three_ses-02_part-02_label-phase2,3.2.4,Win32,60,,,,,,,,,,,,,,,,,,,,,,,,,,,,,
left,0.570999861,1,115,1,0,1,0,1,0,1,0,240,87,1,239,2,3,4,stim/34.jpeg,Instruments,1,stim/objects/Instruments/tuba.png,0.3,2,0.2,0.15,left,48,2021-01-12_08h59.42.471,premup-three_ses-02_part-02_label-phase2,3.2.4,Win32,60,,,,,,,,,,,,,,,,,,,,,,,,,,,,,
left,0.60800004,1,116,1,0,1,0,1,0,1,0,240,127,1,239,2,4,4,stim/44.jpeg,Instruments,1,stim/objects/Instruments/record_player2.png,0.7,1,-0.2,0.15,left,48,2021-01-12_08h59.42.471,premup-three_ses-02_part-02_label-phase2,3.2.4,Win32,60,,,,,,,,,,,,,,,,,,,,,,,,,,,,,
right,0.508999825,1,117,1,0,1,0,1,0,1,0,240,177,1,239,3,5,2,stim/52.jpeg,HouseObjects,2,stim/objects/HouseObjects/saw2.png,0.9,1,-0.2,0.15,right,48,2021-01-12_08h59.42.471,premup-three_ses-02_part-02_label-phase2,3.2.4,Win32,60,,,,,,,,,,,,,,,,,,,,,,,,,,,,,
left,0.71600008,0,118,1,0,1,0,1,0,1,0,240,36,1,239,1,1,1,stim/11.jpeg,HouseObjects,2,stim/objects/HouseObjects/recyclingbin.png,0.5,2,0.2,0.15,right,48,2021-01-12_08h59.42.471,premup-three_ses-02_part-02_label-phase2,3.2.4,Win32,60,,,,,,,,,,,,,,,,,,,,,,,,,,,,,
right,0.604999781,0,119,1,0,1,0,1,0,1,0,240,56,1,239,1,2,1,stim/21.jpeg,Instruments,1,stim/objects/Instruments/saxophone.png,0.5,4,0.2,-0.15,left,48,2021-01-12_08h59.42.471,premup-three_ses-02_part-02_label-phase2,3.2.4,Win32,60,,,,,,,,,,,,,,,,,,,,,,,,,,,,,
left,0.580999851,1,120,1,0,1,0,1,0,1,0,240,125,1,239,2,4,2,stim/42.jpeg,Instruments,1,stim/objects/Instruments/pipepiano2.png,0.7,4,0.2,-0.15,left,48,2021-01-12_08h59.42.471,premup-three_ses-02_part-02_label-phase2,3.2.4,Win32,60,,,,,,,,,,,,,,,,,,,,,,,,,,,,,
left,0.576999903,1,121,1,0,1,0,1,0,1,0,240,131,1,239,2,4,4,stim/44.jpeg,Instruments,1,stim/objects/Instruments/record_player2.png,0.7,1,-0.2,0.15,left,48,2021-01-12_08h59.42.471,premup-three_ses-02_part-02_label-phase2,3.2.4,Win32,60,,,,,,,,,,,,,,,,,,,,,,,,,,,,,
right,0.733999968,1,122,1,0,1,0,1,0,1,0,240,73,1,239,1,2,2,stim/22.jpeg,HouseObjects,2,stim/objects/HouseObjects/saw.png,0.5,1,-0.2,0.15,right,48,2021-01-12_08h59.42.471,premup-three_ses-02_part-02_label-phase2,3.2.4,Win32,60,,,,,,,,,,,,,,,,,,,,,,,,,,,,,
right,0.599999905,0,123,1,0,1,0,1,0,1,0,240,17,1,239,1,1,2,stim/12.jpeg,Instruments,1,stim/objects/Instruments/pipepiano.png,0.5,4,0.2,-0.15,left,48,2021-01-12_08h59.42.471,premup-three_ses-02_part-02_label-phase2,3.2.4,Win32,60,,,,,,,,,,,,,,,,,,,,,,,,,,,,,
right,0.580999851,1,124,1,0,1,0,1,0,1,0,240,37,1,239,1,1,2,stim/12.jpeg,HouseObjects,2,stim/objects/HouseObjects/remote.png,0.5,3,-0.2,-0.15,right,48,2021-01-12_08h59.42.471,premup-three_ses-02_part-02_label-phase2,3.2.4,Win32,60,,,,,,,,,,,,,,,,,,,,,,,,,,,,,
left,0.477999926,1,125,1,0,1,0,1,0,1,0,240,216,1,239,3,6,1,stim/61.jpeg,Instruments,1,stim/objects/Instruments/triangle2.png,0.9,2,0.2,0.15,left,48,2021-01-12_08h59.42.471,premup-three_ses-02_part-02_label-phase2,3.2.4,Win32,60,,,,,,,,,,,,,,,,,,,,,,,,,,,,,
right,0.661999941,0,126,1,0,1,0,1,0,1,0,240,85,1,239,2,3,2,stim/32.jpeg,Instruments,1,stim/objects/Instruments/trombone.png,0.3,2,0.2,0.15,left,48,2021-01-12_08h59.42.471,premup-three_ses-02_part-02_label-phase2,3.2.4,Win32,60,,,,,,,,,,,,,,,,,,,,,,,,,,,,,
left,0.495999813,1,127,1,0,1,0,1,0,1,0,240,215,1,239,3,6,4,stim/64.jpeg,Instruments,1,stim/objects/Instruments/tuba2.png,0.9,3,-0.2,-0.15,left,48,2021-01-12_08h59.42.471,premup-three_ses-02_part-02_label-phase2,3.2.4,Win32,60,,,,,,,,,,,,,,,,,,,,,,,,,,,,,
right,0.507999897,1,128,1,0,1,0,1,0,1,0,240,176,1,239,3,5,1,stim/51.jpeg,HouseObjects,2,stim/objects/HouseObjects/safetypin2.png,0.9,1,-0.2,0.15,right,48,2021-01-12_08h59.42.471,premup-three_ses-02_part-02_label-phase2,3.2.4,Win32,60,,,,,,,,,,,,,,,,,,,,,,,,,,,,,
left,0.523999929,1,129,1,0,1,0,1,0,1,0,240,141,1,239,2,4,2,stim/42.jpeg,Instruments,1,stim/objects/Instruments/pipepiano2.png,0.7,3,-0.2,-0.15,left,48,2021-01-12_08h59.42.471,premup-three_ses-02_part-02_label-phase2,3.2.4,Win32,60,,,,,,,,,,,,,,,,,,,,,,,,,,,,,
right,0.56400013,1,130,1,0,1,0,1,0,1,0,240,104,1,239,2,3,1,stim/31.jpeg,HouseObjects,2,stim/objects/HouseObjects/spraybottle.png,0.7,1,-0.2,0.15,right,48,2021-01-12_08h59.42.471,premup-three_ses-02_part-02_label-phase2,3.2.4,Win32,60,,,,,,,,,,,,,,,,,,,,,,,,,,,,,
left,0.522999763,1,131,1,0,1,0,1,0,1,0,240,225,1,239,3,6,2,stim/62.jpeg,Instruments,1,stim/objects/Instruments/trombone2.png,0.9,4,0.2,-0.15,left,48,2021-01-12_08h59.42.471,premup-three_ses-02_part-02_label-phase2,3.2.4,Win32,60,,,,,,,,,,,,,,,,,,,,,,,,,,,,,
right,0.467999935,0,132,1,0,1,0,1,0,1,0,240,13,1,239,1,1,2,stim/12.jpeg,Instruments,1,stim/objects/Instruments/pipepiano.png,0.5,1,-0.2,0.15,left,48,2021-01-12_08h59.42.471,premup-three_ses-02_part-02_label-phase2,3.2.4,Win32,60,,,,,,,,,,,,,,,,,,,,,,,,,,,,,
left,0.451999903,0,133,1,0,1,0,1,0,1,0,240,236,1,239,3,6,1,stim/61.jpeg,HouseObjects,2,stim/objects/HouseObjects/spraybottle2.png,0.1,2,0.2,0.15,right,48,2021-01-12_08h59.42.471,premup-three_ses-02_part-02_label-phase2,3.2.4,Win32,60,,,,,,,,,,,,,,,,,,,,,,,,,,,,,
,,0,134,1,0,1,0,1,0,1,0,240,93,1,239,2,3,2,stim/32.jpeg,HouseObjects,2,stim/objects/HouseObjects/teapot.png,0.7,1,-0.2,0.15,right,48,2021-01-12_08h59.42.471,premup-three_ses-02_part-02_label-phase2,3.2.4,Win32,60,,,,,,,,,,,,,,,,,,,,,,,,,,,,,
left,0.593999863,0,135,1,0,1,0,1,0,1,0,240,78,1,239,1,2,3,stim/23.jpeg,HouseObjects,2,stim/objects/HouseObjects/scale.png,0.5,1,-0.2,0.15,right,48,2021-01-12_08h59.42.471,premup-three_ses-02_part-02_label-phase2,3.2.4,Win32,60,,,,,,,,,,,,,,,,,,,,,,,,,,,,,
left,0.541999817,1,136,1,0,1,0,1,0,1,0,240,121,1,239,2,4,2,stim/42.jpeg,Instruments,1,stim/objects/Instruments/pipepiano2.png,0.7,3,-0.2,-0.15,left,48,2021-01-12_08h59.42.471,premup-three_ses-02_part-02_label-phase2,3.2.4,Win32,60,,,,,,,,,,,,,,,,,,,,,,,,,,,,,
left,0.484999895,1,137,1,0,1,0,1,0,1,0,240,221,1,239,3,6,2,stim/62.jpeg,Instruments,1,stim/objects/Instruments/trombone2.png,0.9,1,-0.2,0.15,left,48,2021-01-12_08h59.42.471,premup-three_ses-02_part-02_label-phase2,3.2.4,Win32,60,,,,,,,,,,,,,,,,,,,,,,,,,,,,,
left,0.483999729,0,138,1,0,1,0,1,0,1,0,240,239,1,239,3,6,4,stim/64.jpeg,HouseObjects,2,stim/objects/HouseObjects/thread2.png,0.1,4,0.2,-0.15,right,48,2021-01-12_08h59.42.471,premup-three_ses-02_part-02_label-phase2,3.2.4,Win32,60,,,,,,,,,,,,,,,,,,,,,,,,,,,,,
right,0.53399992,0,139,1,0,1,0,1,0,1,0,240,162,1,239,3,5,3,stim/53.jpeg,Instruments,1,stim/objects/Instruments/tambourine2.png,0.1,4,0.2,-0.15,left,48,2021-01-12_08h59.42.471,premup-three_ses-02_part-02_label-phase2,3.2.4,Win32,60,,,,,,,,,,,,,,,,,,,,,,,,,,,,,
right,0.613999844,0,140,1,0,1,0,1,0,1,0,240,1,1,239,1,1,2,stim/12.jpeg,Instruments,1,stim/objects/Instruments/pipepiano.png,0.5,4,0.2,-0.15,left,48,2021-01-12_08h59.42.471,premup-three_ses-02_part-02_label-phase2,3.2.4,Win32,60,,,,,,,,,,,,,,,,,,,,,,,,,,,,,
right,0.654999971,1,141,1,0,1,0,1,0,1,0,240,64,1,239,1,2,1,stim/21.jpeg,HouseObjects,2,stim/objects/HouseObjects/safetypin.png,0.5,4,0.2,-0.15,right,48,2021-01-12_08h59.42.471,premup-three_ses-02_part-02_label-phase2,3.2.4,Win32,60,,,,,,,,,,,,,,,,,,,,,,,,,,,,,
right,0.733999968,1,142,1,0,1,0,1,0,1,0,240,119,1,239,2,3,4,stim/34.jpeg,HouseObjects,2,stim/objects/HouseObjects/thread.png,0.7,3,-0.2,-0.15,right,48,2021-01-12_08h59.42.471,premup-three_ses-02_part-02_label-phase2,3.2.4,Win32,60,,,,,,,,,,,,,,,,,,,,,,,,,,,,,
right,0.501999855,1,143,1,0,1,0,1,0,1,0,240,170,1,239,3,5,3,stim/53.jpeg,HouseObjects,2,stim/objects/HouseObjects/scale2.png,0.9,3,-0.2,-0.15,right,48,2021-01-12_08h59.42.471,premup-three_ses-02_part-02_label-phase2,3.2.4,Win32,60,,,,,,,,,,,,,,,,,,,,,,,,,,,,,
right,0.582000017,1,144,1,0,1,0,1,0,1,0,240,188,1,239,3,5,1,stim/51.jpeg,HouseObjects,2,stim/objects/HouseObjects/safetypin2.png,0.9,4,0.2,-0.15,right,48,2021-01-12_08h59.42.471,premup-three_ses-02_part-02_label-phase2,3.2.4,Win32,60,,,,,,,,,,,,,,,,,,,,,,,,,,,,,
right,0.715999842,0,145,1,0,1,0,1,0,1,0,240,7,1,239,1,1,4,stim/14.jpeg,Instruments,1,stim/objects/Instruments/record_player.png,0.5,4,0.2,-0.15,left,48,2021-01-12_08h59.42.471,premup-three_ses-02_part-02_label-phase2,3.2.4,Win32,60,,,,,,,,,,,,,,,,,,,,,,,,,,,,,
left,0.605999947,1,146,1,0,1,0,1,0,1,0,240,200,1,239,3,6,1,stim/61.jpeg,Instruments,1,stim/objects/Instruments/triangle2.png,0.9,3,-0.2,-0.15,left,48,2021-01-12_08h59.42.471,premup-three_ses-02_part-02_label-phase2,3.2.4,Win32,60,,,,,,,,,,,,,,,,,,,,,,,,,,,,,
right,0.541000128,1,147,1,0,1,0,1,0,1,0,240,117,1,239,2,3,2,stim/32.jpeg,HouseObjects,2,stim/objects/HouseObjects/teapot.png,0.7,1,-0.2,0.15,right,48,2021-01-12_08h59.42.471,premup-three_ses-02_part-02_label-phase2,3.2.4,Win32,60,,,,,,,,,,,,,,,,,,,,,,,,,,,,,
right,0.480999947,0,148,1,0,1,0,1,0,1,0,240,160,1,239,3,5,1,stim/51.jpeg,Instruments,1,stim/objects/Instruments/saxophone2.png,0.1,4,0.2,-0.15,left,48,2021-01-12_08h59.42.471,premup-three_ses-02_part-02_label-phase2,3.2.4,Win32,60,,,,,,,,,,,,,,,,,,,,,,,,,,,,,
right,0.498999834,1,149,1,0,1,0,1,0,1,0,240,72,1,239,1,2,1,stim/21.jpeg,HouseObjects,2,stim/objects/HouseObjects/safetypin.png,0.5,4,0.2,-0.15,right,48,2021-01-12_08h59.42.471,premup-three_ses-02_part-02_label-phase2,3.2.4,Win32,60,,,,,,,,,,,,,,,,,,,,,,,,,,,,,
right,0.686000109,0,150,1,0,1,0,1,0,1,0,240,9,1,239,1,1,2,stim/12.jpeg,Instruments,1,stim/objects/Instruments/pipepiano.png,0.5,3,-0.2,-0.15,left,48,2021-01-12_08h59.42.471,premup-three_ses-02_part-02_label-phase2,3.2.4,Win32,60,,,,,,,,,,,,,,,,,,,,,,,,,,,,,
right,0.490999937,1,151,1,0,1,0,1,0,1,0,240,168,1,239,3,5,1,stim/51.jpeg,HouseObjects,2,stim/objects/HouseObjects/safetypin2.png,0.9,2,0.2,0.15,right,48,2021-01-12_08h59.42.471,premup-three_ses-02_part-02_label-phase2,3.2.4,Win32,60,,,,,,,,,,,,,,,,,,,,,,,,,,,,,
left,0.542999983,1,152,1,0,1,0,1,0,1,0,240,129,1,239,2,4,2,stim/42.jpeg,Instruments,1,stim/objects/Instruments/pipepiano2.png,0.7,1,-0.2,0.15,left,48,2021-01-12_08h59.42.471,premup-three_ses-02_part-02_label-phase2,3.2.4,Win32,60,,,,,,,,,,,,,,,,,,,,,,,,,,,,,
right,0.429999828,1,153,1,0,1,0,1,0,1,0,240,164,1,239,3,5,1,stim/51.jpeg,HouseObjects,2,stim/objects/HouseObjects/safetypin2.png,0.9,2,0.2,0.15,right,48,2021-01-12_08h59.42.471,premup-three_ses-02_part-02_label-phase2,3.2.4,Win32,60,,,,,,,,,,,,,,,,,,,,,,,,,,,,,
left,0.453999758,0,154,1,0,1,0,1,0,1,0,240,35,1,239,1,1,4,stim/14.jpeg,HouseObjects,2,stim/objects/HouseObjects/rug.png,0.5,3,-0.2,-0.15,right,48,2021-01-12_08h59.42.471,premup-three_ses-02_part-02_label-phase2,3.2.4,Win32,60,,,,,,,,,,,,,,,,,,,,,,,,,,,,,
left,0.549999952,1,155,1,0,1,0,1,0,1,0,240,205,1,239,3,6,2,stim/62.jpeg,Instruments,1,stim/objects/Instruments/trombone2.png,0.9,1,-0.2,0.15,left,48,2021-01-12_08h59.42.471,premup-three_ses-02_part-02_label-phase2,3.2.4,Win32,60,,,,,,,,,,,,,,,,,,,,,,,,,,,,,
right,0.477999926,0,156,1,0,1,0,1,0,1,0,240,2,1,239,1,1,3,stim/13.jpeg,Instruments,1,stim/objects/Instruments/record.png,0.5,3,-0.2,-0.15,left,48,2021-01-12_08h59.42.471,premup-three_ses-02_part-02_label-phase2,3.2.4,Win32,60,,,,,,,,,,,,,,,,,,,,,,,,,,,,,
left,0.529000044,0,157,1,0,1,0,1,0,1,0,240,149,1,239,2,4,2,stim/42.jpeg,HouseObjects,2,stim/objects/HouseObjects/remote2.png,0.3,3,-0.2,-0.15,right,48,2021-01-12_08h59.42.471,premup-three_ses-02_part-02_label-phase2,3.2.4,Win32,60,,,,,,,,,,,,,,,,,,,,,,,,,,,,,
left,0.501999855,1,158,1,0,1,0,1,0,1,0,240,207,1,239,3,6,4,stim/64.jpeg,Instruments,1,stim/objects/Instruments/tuba2.png,0.9,4,0.2,-0.15,left,48,2021-01-12_08h59.42.471,premup-three_ses-02_part-02_label-phase2,3.2.4,Win32,60,,,,,,,,,,,,,,,,,,,,,,,,,,,,,
right,0.47699976,1,159,1,0,1,0,1,0,1,0,240,196,1,239,3,5,1,stim/51.jpeg,HouseObjects,2,stim/objects/HouseObjects/safetypin2.png,0.9,3,-0.2,-0.15,right,48,2021-01-12_08h59.42.471,premup-three_ses-02_part-02_label-phase2,3.2.4,Win32,60,,,,,,,,,,,,,,,,,,,,,,,,,,,,,
left,0.51699996,1,160,1,0,1,0,1,0,1,0,240,217,1,239,3,6,2,stim/62.jpeg,Instruments,1,stim/objects/Instruments/trombone2.png,0.9,1,-0.2,0.15,left,48,2021-01-12_08h59.42.471,premup-three_ses-02_part-02_label-phase2,3.2.4,Win32,60,,,,,,,,,,,,,,,,,,,,,,,,,,,,,
right,0.43599987,1,161,1,0,1,0,1,0,1,0,240,178,1,239,3,5,3,stim/53.jpeg,HouseObjects,2,stim/objects/HouseObjects/scale2.png,0.9,1,-0.2,0.15,right,48,2021-01-12_08h59.42.471,premup-three_ses-02_part-02_label-phase2,3.2.4,Win32,60,,,,,,,,,,,,,,,,,,,,,,,,,,,,,
right,0.650000095,1,162,1,0,1,0,1,0,1,0,240,199,1,239,3,5,4,stim/54.jpeg,HouseObjects,2,stim/objects/HouseObjects/sponge2.png,0.9,4,0.2,-0.15,right,48,2021-01-12_08h59.42.471,premup-three_ses-02_part-02_label-phase2,3.2.4,Win32,60,,,,,,,,,,,,,,,,,,,,,,,,,,,,,
right,0.570999861,1,163,1,0,1,0,1,0,1,0,240,197,1,239,3,5,2,stim/52.jpeg,HouseObjects,2,stim/objects/HouseObjects/saw2.png,0.9,2,0.2,0.15,right,48,2021-01-12_08h59.42.471,premup-three_ses-02_part-02_label-phase2,3.2.4,Win32,60,,,,,,,,,,,,,,,,,,,,,,,,,,,,,
left,0.457999945,0,164,1,0,1,0,1,0,1,0,240,92,1,239,2,3,1,stim/31.jpeg,HouseObjects,2,stim/objects/HouseObjects/spraybottle.png,0.7,3,-0.2,-0.15,right,48,2021-01-12_08h59.42.471,premup-three_ses-02_part-02_label-phase2,3.2.4,Win32,60,,,,,,,,,,,,,,,,,,,,,,,,,,,,,
right,0.65199995,1,165,1,0,1,0,1,0,1,0,240,65,1,239,1,2,2,stim/22.jpeg,HouseObjects,2,stim/objects/HouseObjects/saw.png,0.5,2,0.2,0.15,right,48,2021-01-12_08h59.42.471,premup-three_ses-02_part-02_label-phase2,3.2.4,Win32,60,,,,,,,,,,,,,,,,,,,,,,,,,,,,,
right,0.586999893,0,166,1,0,1,0,1,0,1,0,240,163,1,239,3,5,4,stim/54.jpeg,Instruments,1,stim/objects/Instruments/timbal2.png,0.1,1,-0.2,0.15,left,48,2021-01-12_08h59.42.471,premup-three_ses-02_part-02_label-phase2,3.2.4,Win32,60,,,,,,,,,,,,,,,,,,,,,,,,,,,,,
left,0.512999773,1,167,1,0,1,0,1,0,1,0,240,201,1,239,3,6,2,stim/62.jpeg,Instruments,1,stim/objects/Instruments/trombone2.png,0.9,1,-0.2,0.15,left,48,2021-01-12_08h59.42.471,premup-three_ses-02_part-02_label-phase2,3.2.4,Win32,60,,,,,,,,,,,,,,,,,,,,,,,,,,,,,
right,0.518000126,1,168,1,0,1,0,1,0,1,0,240,34,1,239,1,1,3,stim/13.jpeg,HouseObjects,2,stim/objects/HouseObjects/rubbergloves.png,0.5,3,-0.2,-0.15,right,48,2021-01-12_08h59.42.471,premup-three_ses-02_part-02_label-phase2,3.2.4,Win32,60,,,,,,,,,,,,,,,,,,,,,,,,,,,,,
right,0.670000076,1,169,1,0,1,0,1,0,1,0,240,111,1,239,2,3,4,stim/34.jpeg,HouseObjects,2,stim/objects/HouseObjects/thread.png,0.7,2,0.2,0.15,right,48,2021-01-12_08h59.42.471,premup-three_ses-02_part-02_label-phase2,3.2.4,Win32,60,,,,,,,,,,,,,,,,,,,,,,,,,,,,,
right,0.596999884,1,170,1,0,1,0,1,0,1,0,240,118,1,239,2,3,3,stim/33.jpeg,HouseObjects,2,stim/objects/HouseObjects/thermometer.png,0.7,4,0.2,-0.15,right,48,2021-01-12_08h59.42.471,premup-three_ses-02_part-02_label-phase2,3.2.4,Win32,60,,,,,,,,,,,,,,,,,,,,,,,,,,,,,
right,0.46999979,1,171,1,0,1,0,1,0,1,0,240,108,1,239,2,3,1,stim/31.jpeg,HouseObjects,2,stim/objects/HouseObjects/spraybottle.png,0.7,2,0.2,0.15,right,48,2021-01-12_08h59.42.471,premup-three_ses-02_part-02_label-phase2,3.2.4,Win32,60,,,,,,,,,,,,,,,,,,,,,,,,,,,,,
right,0.460999966,1,172,1,0,1,0,1,0,1,0,240,23,1,239,1,1,4,stim/14.jpeg,HouseObjects,2,stim/objects/HouseObjects/rug.png,0.5,2,0.2,0.15,right,48,2021-01-12_08h59.42.471,premup-three_ses-02_part-02_label-phase2,3.2.4,Win32,60,,,,,,,,,,,,,,,,,,,,,,,,,,,,,
right,0.513999939,1,173,1,0,1,0,1,0,1,0,240,61,1,239,1,2,2,stim/22.jpeg,HouseObjects,2,stim/objects/HouseObjects/saw.png,0.5,1,-0.2,0.15,right,48,2021-01-12_08h59.42.471,premup-three_ses-02_part-02_label-phase2,3.2.4,Win32,60,,,,,,,,,,,,,,,,,,,,,,,,,,,,,
left,0.491999865,0,174,1,0,1,0,1,0,1,0,240,237,1,239,3,6,2,stim/62.jpeg,HouseObjects,2,stim/objects/HouseObjects/teapot2.png,0.1,1,-0.2,0.15,right,48,2021-01-12_08h59.42.471,premup-three_ses-02_part-02_label-phase2,3.2.4,Win32,60,,,,,,,,,,,,,,,,,,,,,,,,,,,,,
right,0.449999809,1,175,1,0,1,0,1,0,1,0,240,107,1,239,2,3,4,stim/34.jpeg,HouseObjects,2,stim/objects/HouseObjects/thread.png,0.7,2,0.2,0.15,right,48,2021-01-12_08h59.42.471,premup-three_ses-02_part-02_label-phase2,3.2.4,Win32,60,,,,,,,,,,,,,,,,,,,,,,,,,,,,,
right,0.513000011,1,176,1,0,1,0,1,0,1,0,240,184,1,239,3,5,1,stim/51.jpeg,HouseObjects,2,stim/objects/HouseObjects/safetypin2.png,0.9,4,0.2,-0.15,right,48,2021-01-12_08h59.42.471,premup-three_ses-02_part-02_label-phase2,3.2.4,Win32,60,,,,,,,,,,,,,,,,,,,,,,,,,,,,,
right,0.429999828,1,177,1,0,1,0,1,0,1,0,240,158,1,239,2,4,3,stim/43.jpeg,HouseObjects,2,stim/objects/HouseObjects/rubbergloves2.png,0.3,4,0.2,-0.15,right,48,2021-01-12_08h59.42.471,premup-three_ses-02_part-02_label-phase2,3.2.4,Win32,60,,,,,,,,,,,,,,,,,,,,,,,,,,,,,
right,0.55099988,1,178,1,0,1,0,1,0,1,0,240,179,1,239,3,5,4,stim/54.jpeg,HouseObjects,2,stim/objects/HouseObjects/sponge2.png,0.9,3,-0.2,-0.15,right,48,2021-01-12_08h59.42.471,premup-three_ses-02_part-02_label-phase2,3.2.4,Win32,60,,,,,,,,,,,,,,,,,,,,,,,,,,,,,
left,0.554999828,0,179,1,0,1,0,1,0,1,0,240,181,1,239,3,5,2,stim/52.jpeg,HouseObjects,2,stim/objects/HouseObjects/saw2.png,0.9,4,0.2,-0.15,right,48,2021-01-12_08h59.42.471,premup-three_ses-02_part-02_label-phase2,3.2.4,Win32,60,,,,,,,,,,,,,,,,,,,,,,,,,,,,,
left,0.684999943,1,180,1,0,1,0,1,0,1,0,240,136,1,239,2,4,1,stim/41.jpeg,Instruments,1,stim/objects/Instruments/panflute2.png,0.7,3,-0.2,-0.15,left,48,2021-01-12_08h59.42.471,premup-three_ses-02_part-02_label-phase2,3.2.4,Win32,60,,,,,,,,,,,,,,,,,,,,,,,,,,,,,
left,0.525999784,1,181,1,0,1,0,1,0,1,0,240,231,1,239,3,6,4,stim/64.jpeg,Instruments,1,stim/objects/Instruments/tuba2.png,0.9,3,-0.2,-0.15,left,48,2021-01-12_08h59.42.471,premup-three_ses-02_part-02_label-phase2,3.2.4,Win32,60,,,,,,,,,,,,,,,,,,,,,,,,,,,,,
left,0.526000023,1,182,1,0,1,0,1,0,1,0,240,206,1,239,3,6,3,stim/63.jpeg,Instruments,1,stim/objects/Instruments/trumpet2.png,0.9,3,-0.2,-0.15,left,48,2021-01-12_08h59.42.471,premup-three_ses-02_part-02_label-phase2,3.2.4,Win32,60,,,,,,,,,,,,,,,,,,,,,,,,,,,,,
left,0.618999958,1,183,1,0,1,0,1,0,1,0,240,142,1,239,2,4,3,stim/43.jpeg,Instruments,1,stim/objects/Instruments/record2.png,0.7,1,-0.2,0.15,left,48,2021-01-12_08h59.42.471,premup-three_ses-02_part-02_label-phase2,3.2.4,Win32,60,,,,,,,,,,,,,,,,,,,,,,,,,,,,,
right,0.63499999,1,184,1,0,1,0,1,0,1,0,240,173,1,239,3,5,2,stim/52.jpeg,HouseObjects,2,stim/objects/HouseObjects/saw2.png,0.9,3,-0.2,-0.15,right,48,2021-01-12_08h59.42.471,premup-three_ses-02_part-02_label-phase2,3.2.4,Win32,60,,,,,,,,,,,,,,,,,,,,,,,,,,,,,
left,0.566999912,1,185,1,0,1,0,1,0,1,0,240,144,1,239,2,4,1,stim/41.jpeg,Instruments,1,stim/objects/Instruments/panflute2.png,0.7,1,-0.2,0.15,left,48,2021-01-12_08h59.42.471,premup-three_ses-02_part-02_label-phase2,3.2.4,Win32,60,,,,,,,,,,,,,,,,,,,,,,,,,,,,,
right,0.634000063,1,186,1,0,1,0,1,0,1,0,240,166,1,239,3,5,3,stim/53.jpeg,HouseObjects,2,stim/objects/HouseObjects/scale2.png,0.9,2,0.2,0.15,right,48,2021-01-12_08h59.42.471,premup-three_ses-02_part-02_label-phase2,3.2.4,Win32,60,,,,,,,,,,,,,,,,,,,,,,,,,,,,,
right,0.662999868,1,187,1,0,1,0,1,0,1,0,240,115,1,239,2,3,4,stim/34.jpeg,HouseObjects,2,stim/objects/HouseObjects/thread.png,0.7,4,0.2,-0.15,right,48,2021-01-12_08h59.42.471,premup-three_ses-02_part-02_label-phase2,3.2.4,Win32,60,,,,,,,,,,,,,,,,,,,,,,,,,,,,,
right,0.494999886,1,188,1,0,1,0,1,0,1,0,240,169,1,239,3,5,2,stim/52.jpeg,HouseObjects,2,stim/objects/HouseObjects/saw2.png,0.9,4,0.2,-0.15,right,48,2021-01-12_08h59.42.471,premup-three_ses-02_part-02_label-phase2,3.2.4,Win32,60,,,,,,,,,,,,,,,,,,,,,,,,,,,,,
right,0.644999981,0,189,1,0,1,0,1,0,1,0,240,12,1,239,1,1,1,stim/11.jpeg,Instruments,1,stim/objects/Instruments/panflute.png,0.5,1,-0.2,0.15,left,48,2021-01-12_08h59.42.471,premup-three_ses-02_part-02_label-phase2,3.2.4,Win32,60,,,,,,,,,,,,,,,,,,,,,,,,,,,,,
right,0.619999886,1,190,1,0,1,0,1,0,1,0,240,96,1,239,2,3,1,stim/31.jpeg,HouseObjects,2,stim/objects/HouseObjects/spraybottle.png,0.7,4,0.2,-0.15,right,48,2021-01-12_08h59.42.471,premup-three_ses-02_part-02_label-phase2,3.2.4,Win32,60,,,,,,,,,,,,,,,,,,,,,,,,,,,,,
right,0.520999908,1,191,1,0,1,0,1,0,1,0,240,101,1,239,2,3,2,stim/32.jpeg,HouseObjects,2,stim/objects/HouseObjects/teapot.png,0.7,3,-0.2,-0.15,right,48,2021-01-12_08h59.42.471,premup-three_ses-02_part-02_label-phase2,3.2.4,Win32,60,,,,,,,,,,,,,,,,,,,,,,,,,,,,,
right,0.485999823,1,192,1,0,1,0,1,0,1,0,240,185,1,239,3,5,2,stim/52.jpeg,HouseObjects,2,stim/objects/HouseObjects/saw2.png,0.9,2,0.2,0.15,right,48,2021-01-12_08h59.42.471,premup-three_ses-02_part-02_label-phase2,3.2.4,Win32,60,,,,,,,,,,,,,,,,,,,,,,,,,,,,,
left,0.555999994,0,193,1,0,1,0,1,0,1,0,240,157,1,239,2,4,2,stim/42.jpeg,HouseObjects,2,stim/objects/HouseObjects/remote2.png,0.3,2,0.2,0.15,right,48,2021-01-12_08h59.42.471,premup-three_ses-02_part-02_label-phase2,3.2.4,Win32,60,,,,,,,,,,,,,,,,,,,,,,,,,,,,,
left,0.54399991,1,194,1,0,1,0,1,0,1,0,240,226,1,239,3,6,3,stim/63.jpeg,Instruments,1,stim/objects/Instruments/trumpet2.png,0.9,2,0.2,0.15,left,48,2021-01-12_08h59.42.471,premup-three_ses-02_part-02_label-phase2,3.2.4,Win32,60,,,,,,,,,,,,,,,,,,,,,,,,,,,,,
right,0.468999863,1,195,1,0,1,0,1,0,1,0,240,109,1,239,2,3,2,stim/32.jpeg,HouseObjects,2,stim/objects/HouseObjects/teapot.png,0.7,1,-0.2,0.15,right,48,2021-01-12_08h59.42.471,premup-three_ses-02_part-02_label-phase2,3.2.4,Win32,60,,,,,,,,,,,,,,,,,,,,,,,,,,,,,
left,0.563999891,1,196,1,0,1,0,1,0,1,0,240,146,1,239,2,4,3,stim/43.jpeg,Instruments,1,stim/objects/Instruments/record2.png,0.7,1,-0.2,0.15,left,48,2021-01-12_08h59.42.471,premup-three_ses-02_part-02_label-phase2,3.2.4,Win32,60,,,,,,,,,,,,,,,,,,,,,,,,,,,,,
right,0.582999945,1,197,1,0,1,0,1,0,1,0,240,113,1,239,2,3,2,stim/32.jpeg,HouseObjects,2,stim/objects/HouseObjects/teapot.png,0.7,3,-0.2,-0.15,right,48,2021-01-12_08h59.42.471,premup-three_ses-02_part-02_label-phase2,3.2.4,Win32,60,,,,,,,,,,,,,,,,,,,,,,,,,,,,,
left,0.703000069,1,198,1,0,1,0,1,0,1,0,240,0,1,239,1,1,1,stim/11.jpeg,Instruments,1,stim/objects/Instruments/panflute.png,0.5,4,0.2,-0.15,left,48,2021-01-12_08h59.42.471,premup-three_ses-02_part-02_label-phase2,3.2.4,Win32,60,,,,,,,,,,,,,,,,,,,,,,,,,,,,,
right,0.436000109,1,199,1,0,1,0,1,0,1,0,240,99,1,239,2,3,4,stim/34.jpeg,HouseObjects,2,stim/objects/HouseObjects/thread.png,0.7,4,0.2,-0.15,right,48,2021-01-12_08h59.42.471,premup-three_ses-02_part-02_label-phase2,3.2.4,Win32,60,,,,,,,,,,,,,,,,,,,,,,,,,,,,,
right,0.463999987,0,200,1,0,1,0,1,0,1,0,240,54,1,239,1,2,3,stim/23.jpeg,Instruments,1,stim/objects/Instruments/tambourine.png,0.5,4,0.2,-0.15,left,48,2021-01-12_08h59.42.471,premup-three_ses-02_part-02_label-phase2,3.2.4,Win32,60,,,,,,,,,,,,,,,,,,,,,,,,,,,,,
right,0.579999924,1,201,1,0,1,0,1,0,1,0,240,189,1,239,3,5,2,stim/52.jpeg,HouseObjects,2,stim/objects/HouseObjects/saw2.png,0.9,3,-0.2,-0.15,right,48,2021-01-12_08h59.42.471,premup-three_ses-02_part-02_label-phase2,3.2.4,Win32,60,,,,,,,,,,,,,,,,,,,,,,,,,,,,,
right,0.447999954,1,202,1,0,1,0,1,0,1,0,240,193,1,239,3,5,2,stim/52.jpeg,HouseObjects,2,stim/objects/HouseObjects/saw2.png,0.9,3,-0.2,-0.15,right,48,2021-01-12_08h59.42.471,premup-three_ses-02_part-02_label-phase2,3.2.4,Win32,60,,,,,,,,,,,,,,,,,,,,,,,,,,,,,
left,0.782999992,0,203,1,0,1,0,1,0,1,0,240,75,1,239,1,2,4,stim/24.jpeg,HouseObjects,2,stim/objects/HouseObjects/sponge.png,0.5,1,-0.2,0.15,right,48,2021-01-12_08h59.42.471,premup-three_ses-02_part-02_label-phase2,3.2.4,Win32,60,,,,,,,,,,,,,,,,,,,,,,,,,,,,,
right,0.513000011,0,204,1,0,1,0,1,0,1,0,240,48,1,239,1,2,1,stim/21.jpeg,Instruments,1,stim/objects/Instruments/saxophone.png,0.5,3,-0.2,-0.15,left,48,2021-01-12_08h59.42.471,premup-three_ses-02_part-02_label-phase2,3.2.4,Win32,60,,,,,,,,,,,,,,,,,,,,,,,,,,,,,
right,0.562999725,1,205,1,0,1,0,1,0,1,0,240,27,1,239,1,1,4,stim/14.jpeg,HouseObjects,2,stim/objects/HouseObjects/rug.png,0.5,4,0.2,-0.15,right,48,2021-01-12_08h59.42.471,premup-three_ses-02_part-02_label-phase2,3.2.4,Win32,60,,,,,,,,,,,,,,,,,,,,,,,,,,,,,
right,0.427999973,0,206,1,0,1,0,1,0,1,0,240,88,1,239,2,3,1,stim/31.jpeg,Instruments,1,stim/objects/Instruments/triangle.png,0.3,3,-0.2,-0.15,left,48,2021-01-12_08h59.42.471,premup-three_ses-02_part-02_label-phase2,3.2.4,Win32,60,,,,,,,,,,,,,,,,,,,,,,,,,,,,,
left,0.681999922,0,207,1,0,1,0,1,0,1,0,240,151,1,239,2,4,4,stim/44.jpeg,HouseObjects,2,stim/objects/HouseObjects/rug2.png,0.3,4,0.2,-0.15,right,48,2021-01-12_08h59.42.471,premup-three_ses-02_part-02_label-phase2,3.2.4,Win32,60,,,,,,,,,,,,,,,,,,,,,,,,,,,,,
right,0.513000011,0,208,1,0,1,0,1,0,1,0,240,19,1,239,1,1,4,stim/14.jpeg,Instruments,1,stim/objects/Instruments/record_player.png,0.5,1,-0.2,0.15,left,48,2021-01-12_08h59.42.471,premup-three_ses-02_part-02_label-phase2,3.2.4,Win32,60,,,,,,,,,,,,,,,,,,,,,,,,,,,,,
right,0.48699975,1,209,1,0,1,0,1,0,1,0,240,187,1,239,3,5,4,stim/54.jpeg,HouseObjects,2,stim/objects/HouseObjects/sponge2.png,0.9,1,-0.2,0.15,right,48,2021-01-12_08h59.42.471,premup-three_ses-02_part-02_label-phase2,3.2.4,Win32,60,,,,,,,,,,,,,,,,,,,,,,,,,,,,,
left,0.511999846,1,210,1,0,1,0,1,0,1,0,240,232,1,239,3,6,1,stim/61.jpeg,Instruments,1,stim/objects/Instruments/triangle2.png,0.9,2,0.2,0.15,left,48,2021-01-12_08h59.42.471,premup-three_ses-02_part-02_label-phase2,3.2.4,Win32,60,,,,,,,,,,,,,,,,,,,,,,,,,,,,,
left,0.528999805,1,211,1,0,1,0,1,0,1,0,240,147,1,239,2,4,4,stim/44.jpeg,Instruments,1,stim/objects/Instruments/record_player2.png,0.7,2,0.2,0.15,left,48,2021-01-12_08h59.42.471,premup-three_ses-02_part-02_label-phase2,3.2.4,Win32,60,,,,,,,,,,,,,,,,,,,,,,,,,,,,,
right,0.41899991,1,212,1,0,1,0,1,0,1,0,240,190,1,239,3,5,3,stim/53.jpeg,HouseObjects,2,stim/objects/HouseObjects/scale2.png,0.9,2,0.2,0.15,right,48,2021-01-12_08h59.42.471,premup-three_ses-02_part-02_label-phase2,3.2.4,Win32,60,,,,,,,,,,,,,,,,,,,,,,,,,,,,,
right,0.637999773,1,213,1,0,1,0,1,0,1,0,240,105,1,239,2,3,2,stim/32.jpeg,HouseObjects,2,stim/objects/HouseObjects/teapot.png,0.7,4,0.2,-0.15,right,48,2021-01-12_08h59.42.471,premup-three_ses-02_part-02_label-phase2,3.2.4,Win32,60,,,,,,,,,,,,,,,,,,,,,,,,,,,,,
right,0.644999981,0,214,1,0,1,0,1,0,1,0,240,57,1,239,1,2,2,stim/22.jpeg,Instruments,1,stim/objects/Instruments/speaker.png,0.5,1,-0.2,0.15,left,48,2021-01-12_08h59.42.471,premup-three_ses-02_part-02_label-phase2,3.2.4,Win32,60,,,,,,,,,,,,,,,,,,,,,,,,,,,,,
right,0.563999891,1,215,1,0,1,0,1,0,1,0,240,26,1,239,1,1,3,stim/13.jpeg,HouseObjects,2,stim/objects/HouseObjects/rubbergloves.png,0.5,4,0.2,-0.15,right,48,2021-01-12_08h59.42.471,premup-three_ses-02_part-02_label-phase2,3.2.4,Win32,60,,,,,,,,,,,,,,,,,,,,,,,,,,,,,
left,0.581999779,1,216,1,0,1,0,1,0,1,0,240,233,1,239,3,6,2,stim/62.jpeg,Instruments,1,stim/objects/Instruments/trombone2.png,0.9,1,-0.2,0.15,left,48,2021-01-12_08h59.42.471,premup-three_ses-02_part-02_label-phase2,3.2.4,Win32,60,,,,,,,,,,,,,,,,,,,,,,,,,,,,,
right,0.72300005,1,217,1,0,1,0,1,0,1,0,240,112,1,239,2,3,1,stim/31.jpeg,HouseObjects,2,stim/objects/HouseObjects/spraybottle.png,0.7,2,0.2,0.15,right,48,2021-01-12_08h59.42.471,premup-three_ses-02_part-02_label-phase2,3.2.4,Win32,60,,,,,,,,,,,,,,,,,,,,,,,,,,,,,
left,0.487999916,1,218,1,0,1,0,1,0,1,0,240,220,1,239,3,6,1,stim/61.jpeg,Instruments,1,stim/objects/Instruments/triangle2.png,0.9,4,0.2,-0.15,left,48,2021-01-12_08h59.42.471,premup-three_ses-02_part-02_label-phase2,3.2.4,Win32,60,,,,,,,,,,,,,,,,,,,,,,,,,,,,,
right,0.463000059,1,219,1,0,1,0,1,0,1,0,240,191,1,239,3,5,4,stim/54.jpeg,HouseObjects,2,stim/objects/HouseObjects/sponge2.png,0.9,2,0.2,0.15,right,48,2021-01-12_08h59.42.471,premup-three_ses-02_part-02_label-phase2,3.2.4,Win32,60,,,,,,,,,,,,,,,,,,,,,,,,,,,,,
left,0.502000093,1,220,1,0,1,0,1,0,1,0,240,130,1,239,2,4,3,stim/43.jpeg,Instruments,1,stim/objects/Instruments/record2.png,0.7,4,0.2,-0.15,left,48,2021-01-12_08h59.42.471,premup-three_ses-02_part-02_label-phase2,3.2.4,Win32,60,,,,,,,,,,,,,,,,,,,,,,,,,,,,,
left,0.789999962,1,221,1,0,1,0,1,0,1,0,240,3,1,239,1,1,4,stim/14.jpeg,Instruments,1,stim/objects/Instruments/record_player.png,0.5,4,0.2,-0.15,left,48,2021-01-12_08h59.42.471,premup-three_ses-02_part-02_label-phase2,3.2.4,Win32,60,,,,,,,,,,,,,,,,,,,,,,,,,,,,,
right,0.566999912,1,222,1,0,1,0,1,0,1,0,240,94,1,239,2,3,3,stim/33.jpeg,HouseObjects,2,stim/objects/HouseObjects/thermometer.png,0.7,2,0.2,0.15,right,48,2021-01-12_08h59.42.471,premup-three_ses-02_part-02_label-phase2,3.2.4,Win32,60,,,,,,,,,,,,,,,,,,,,,,,,,,,,,
left,0.569000006,1,223,1,0,1,0,1,0,1,0,240,135,1,239,2,4,4,stim/44.jpeg,Instruments,1,stim/objects/Instruments/record_player2.png,0.7,4,0.2,-0.15,left,48,2021-01-12_08h59.42.471,premup-three_ses-02_part-02_label-phase2,3.2.4,Win32,60,,,,,,,,,,,,,,,,,,,,,,,,,,,,,
left,0.549999952,1,224,1,0,1,0,1,0,1,0,240,219,1,239,3,6,4,stim/64.jpeg,Instruments,1,stim/objects/Instruments/tuba2.png,0.9,2,0.2,0.15,left,48,2021-01-12_08h59.42.471,premup-three_ses-02_part-02_label-phase2,3.2.4,Win32,60,,,,,,,,,,,,,,,,,,,,,,,,,,,,,
right,0.519000053,0,225,1,0,1,0,1,0,1,0,240,90,1,239,2,3,3,stim/33.jpeg,Instruments,1,stim/objects/Instruments/trumpet.png,0.3,4,0.2,-0.15,left,48,2021-01-12_08h59.42.471,premup-three_ses-02_part-02_label-phase2,3.2.4,Win32,60,,,,,,,,,,,,,,,,,,,,,,,,,,,,,
right,0.48300004,0,226,1,0,1,0,1,0,1,0,240,52,1,239,1,2,1,stim/21.jpeg,Instruments,1,stim/objects/Instruments/saxophone.png,0.5,4,0.2,-0.15,left,48,2021-01-12_08h59.42.471,premup-three_ses-02_part-02_label-phase2,3.2.4,Win32,60,,,,,,,,,,,,,,,,,,,,,,,,,,,,,
right,0.60199976,0,227,1,0,1,0,1,0,1,0,240,40,1,239,1,2,1,stim/21.jpeg,Instruments,1,stim/objects/Instruments/saxophone.png,0.5,2,0.2,0.15,left,48,2021-01-12_08h59.42.471,premup-three_ses-02_part-02_label-phase2,3.2.4,Win32,60,,,,,,,,,,,,,,,,,,,,,,,,,,,,,
left,0.549999714,1,228,1,0,1,0,1,0,1,0,240,122,1,239,2,4,3,stim/43.jpeg,Instruments,1,stim/objects/Instruments/record2.png,0.7,3,-0.2,-0.15,left,48,2021-01-12_08h59.42.471,premup-three_ses-02_part-02_label-phase2,3.2.4,Win32,60,,,,,,,,,,,,,,,,,,,,,,,,,,,,,
left,0.493999958,1,229,1,0,1,0,1,0,1,0,240,208,1,239,3,6,1,stim/61.jpeg,Instruments,1,stim/objects/Instruments/triangle2.png,0.9,2,0.2,0.15,left,48,2021-01-12_08h59.42.471,premup-three_ses-02_part-02_label-phase2,3.2.4,Win32,60,,,,,,,,,,,,,,,,,,,,,,,,,,,,,
right,0.508999825,0,230,1,0,1,0,1,0,1,0,240,10,1,239,1,1,3,stim/13.jpeg,Instruments,1,stim/objects/Instruments/record.png,0.5,3,-0.2,-0.15,left,48,2021-01-12_08h59.42.471,premup-three_ses-02_part-02_label-phase2,3.2.4,Win32,60,,,,,,,,,,,,,,,,,,,,,,,,,,,,,
left,0.599999905,1,231,1,0,1,0,1,0,1,0,240,143,1,239,2,4,4,stim/44.jpeg,Instruments,1,stim/objects/Instruments/record_player2.png,0.7,1,-0.2,0.15,left,48,2021-01-12_08h59.42.471,premup-three_ses-02_part-02_label-phase2,3.2.4,Win32,60,,,,,,,,,,,,,,,,,,,,,,,,,,,,,
left,0.454999924,1,232,1,0,1,0,1,0,1,0,240,124,1,239,2,4,1,stim/41.jpeg,Instruments,1,stim/objects/Instruments/panflute2.png,0.7,1,-0.2,0.15,left,48,2021-01-12_08h59.42.471,premup-three_ses-02_part-02_label-phase2,3.2.4,Win32,60,,,,,,,,,,,,,,,,,,,,,,,,,,,,,
right,0.56099987,1,233,1,0,1,0,1,0,1,0,240,172,1,239,3,5,1,stim/51.jpeg,HouseObjects,2,stim/objects/HouseObjects/safetypin2.png,0.9,3,-0.2,-0.15,right,48,2021-01-12_08h59.42.471,premup-three_ses-02_part-02_label-phase2,3.2.4,Win32,60,,,,,,,,,,,,,,,,,,,,,,,,,,,,,
left,0.516000032,0,234,1,0,1,0,1,0,1,0,240,238,1,239,3,6,3,stim/63.jpeg,HouseObjects,2,stim/objects/HouseObjects/thermometer2.png,0.1,4,0.2,-0.15,right,48,2021-01-12_08h59.42.471,premup-three_ses-02_part-02_label-phase2,3.2.4,Win32,60,,,,,,,,,,,,,,,,,,,,,,,,,,,,,
right,0.452000141,1,235,1,0,1,0,1,0,1,0,240,79,1,239,1,2,4,stim/24.jpeg,HouseObjects,2,stim/objects/HouseObjects/sponge.png,0.5,2,0.2,0.15,right,48,2021-01-12_08h59.42.471,premup-three_ses-02_part-02_label-phase2,3.2.4,Win32,60,,,,,,,,,,,,,,,,,,,,,,,,,,,,,
right,0.434000015,0,236,1,0,1,0,1,0,1,0,240,47,1,239,1,2,4,stim/24.jpeg,Instruments,1,stim/objects/Instruments/timbal.png,0.5,3,-0.2,-0.15,left,48,2021-01-12_08h59.42.471,premup-three_ses-02_part-02_label-phase2,3.2.4,Win32,60,,,,,,,,,,,,,,,,,,,,,,,,,,,,,
right,0.569999933,1,237,1,0,1,0,1,0,1,0,240,110,1,239,2,3,3,stim/33.jpeg,HouseObjects,2,stim/objects/HouseObjects/thermometer.png,0.7,2,0.2,0.15,right,48,2021-01-12_08h59.42.471,premup-three_ses-02_part-02_label-phase2,3.2.4,Win32,60,,,,,,,,,,,,,,,,,,,,,,,,,,,,,
right,0.487999916,1,238,1,0,1,0,1,0,1,0,240,95,1,239,2,3,4,stim/34.jpeg,HouseObjects,2,stim/objects/HouseObjects/thread.png,0.7,4,0.2,-0.15,right,48,2021-01-12_08h59.42.471,premup-three_ses-02_part-02_label-phase2,3.2.4,Win32,60,,,,,,,,,,,,,,,,,,,,,,,,,,,,,
left,0.705999851,0,239,1,0,1,0,1,0,1,0,240,70,1,239,1,2,3,stim/23.jpeg,HouseObjects,2,stim/objects/HouseObjects/scale.png,0.5,4,0.2,-0.15,right,48,2021-01-12_08h59.42.471,premup-three_ses-02_part-02_label-phase2,3.2.4,Win32,60,,,,,,,,,,,,,,,,,,,,,,,,,,,,,
right,0.54399991,0,240,1,0,1,0,1,0,1,0,240,91,1,239,2,3,4,stim/34.jpeg,Instruments,1,stim/objects/Instruments/tuba.png,0.3,3,-0.2,-0.15,left,48,2021-01-12_08h59.42.471,premup-three_ses-02_part-02_label-phase2,3.2.4,Win32,60,,,,,,,,,,,,,,,,,,,,,,,,,,,,,
,,,,1,0,1,0,1,0,,,,,,,,3,,stim/31.jpeg,,,,,,,,,48,2021-01-12_08h59.42.471,premup-three_ses-02_part-02_label-phase2,3.2.4,Win32,60,40,12.74000001,,,1,0,6,2,1,5,Music items,65,75,Household items,25,35,,,,,,,,,,,,,
,,,,1,0,1,0,1,0,,,,,,,,6,,stim/61.jpeg,,,,,,,,,48,2021-01-12_08h59.42.471,premup-three_ses-02_part-02_label-phase2,3.2.4,Win32,60,93,4.000999928,,,1,0,6,5,1,5,Music items,5,15,Household items,85,95,,,,,,,,,,,,,
,,,,1,0,1,0,1,0,,,,,,,,2,,stim/21.jpeg,,,,,,,,,48,2021-01-12_08h59.42.471,premup-three_ses-02_part-02_label-phase2,3.2.4,Win32,60,60,4.447000027,,,1,0,6,1,1,5,Household items,45,55,Music items,45,55,,,,,,,,,,,,,
,,,,1,0,1,0,1,0,,,,,,,,5,,stim/51.jpeg,,,,,,,,,48,2021-01-12_08h59.42.471,premup-three_ses-02_part-02_label-phase2,3.2.4,Win32,60,95,3.109999895,,,1,0,6,4,1,5,Household items,5,15,Music items,85,95,,,,,,,,,,,,,
,,,,1,0,1,0,1,0,,,,,,,,4,,stim/41.jpeg,,,,,,,,,48,2021-01-12_08h59.42.471,premup-three_ses-02_part-02_label-phase2,3.2.4,Win32,60,84,3.292000055,,,1,0,6,3,1,5,Music items,65,75,Household items,25,35,,,,,,,,,,,,,
,,,,1,0,1,0,1,0,,,,,,,,1,,stim/11.jpeg,,,,,,,,,48,2021-01-12_08h59.42.471,premup-three_ses-02_part-02_label-phase2,3.2.4,Win32,60,61,4.113000154,,,1,0,6,0,1,5,Music items,45,55,Household items,45,55,,,,,,,,,,,,,
,,,,1,0,1,0,1,0,,,,,,,,,,,,,,,,,,,48,2021-01-12_08h59.42.471,premup-three_ses-02_part-02_label-phase2,3.2.4,Win32,60,,,,,,,,,,,,,,,,,,,,,,,,,,,,,
right,0.572999954,0,241,,,,,,,,,,,,,3,5,4,stim/54.jpeg,Instruments,1,stim/objects/Instruments/harp4.png,0.1,2,0.2,0.15,left,48,2021-01-12_08h59.42.471,premup-three_ses-02_part-02_label-phase2,3.2.4,Win32,60,,,,,,,,,,,,,,,,,1,0,330,137,1,329,1,,,,,,
left,0.631999969,1,242,,,,,,,,,,,,,2,4,3,stim/43.jpeg,Instruments,1,stim/objects/Instruments/electricguitar3.png,0.7,4,0.2,-0.15,left,48,2021-01-12_08h59.42.471,premup-three_ses-02_part-02_label-phase2,3.2.4,Win32,60,,,,,,,,,,,,,,,,,1,0,330,109,1,329,2,,,,,,
right,0.585999966,1,243,,,,,,,,,,,,,3,5,2,stim/52.jpeg,HouseObjects,2,stim/objects/HouseObjects/doormat3.png,0.9,3,-0.2,-0.15,right,48,2021-01-12_08h59.42.471,premup-three_ses-02_part-02_label-phase2,3.2.4,Win32,60,,,,,,,,,,,,,,,,,1,0,330,195,1,329,2,,,,,,
right,0.625999928,0,244,,,,,,,,,,,,,1,1,3,stim/13.jpeg,Instruments,1,stim/objects/Instruments/balalaika3.png,0.5,1,-0.2,0.15,left,48,2021-01-12_08h59.42.471,premup-three_ses-02_part-02_label-phase2,3.2.4,Win32,60,,,,,,,,,,,,,,,,,1,0,330,2,1,329,2,,,,,,
left,0.547999859,1,245,,,,,,,,,,,,,3,6,3,stim/63.jpeg,Instruments,1,stim/objects/Instruments/gong3.png,0.9,4,0.2,-0.15,left,48,2021-01-12_08h59.42.471,premup-three_ses-02_part-02_label-phase2,3.2.4,Win32,60,,,,,,,,,,,,,,,,,1,0,330,248,1,329,2,,,,,,
right,0.534999847,1,246,,,,,,,,,,,,,2,3,4,stim/34.jpeg,HouseObjects,2,stim/objects/HouseObjects/dishsoap3.png,0.7,4,0.2,-0.15,right,48,2021-01-12_08h59.42.471,premup-three_ses-02_part-02_label-phase2,3.2.4,Win32,60,,,,,,,,,,,,,,,,,1,0,330,79,1,329,2,,,,,,
left,0.506999731,1,247,,,,,,,,,,,,,3,6,1,stim/61.jpeg,Instruments,1,stim/objects/Instruments/flutetrans3.png,0.9,2,0.2,0.15,left,48,2021-01-12_08h59.42.471,premup-three_ses-02_part-02_label-phase2,3.2.4,Win32,60,,,,,,,,,,,,,,,,,1,0,330,246,1,329,2,,,,,,
left,0.562000036,0,248,,,,,,,,,,,,,2,4,2,stim/42.jpeg,HouseObjects,2,stim/objects/HouseObjects/clock4.png,0.3,2,0.2,0.15,right,48,2021-01-12_08h59.42.471,premup-three_ses-02_part-02_label-phase2,3.2.4,Win32,60,,,,,,,,,,,,,,,,,1,0,330,124,1,329,1,,,,,,
right,0.458999872,1,249,,,,,,,,,,,,,1,2,4,stim/24.jpeg,HouseObjects,2,stim/objects/HouseObjects/ironingboard3.png,0.5,1,-0.2,0.15,right,48,2021-01-12_08h59.42.471,premup-three_ses-02_part-02_label-phase2,3.2.4,Win32,60,,,,,,,,,,,,,,,,,1,0,330,55,1,329,1,,,,,,
left,0.562999964,0,250,,,,,,,,,,,,,2,4,3,stim/43.jpeg,HouseObjects,2,stim/objects/HouseObjects/bottle4.png,0.3,3,-0.2,-0.15,right,48,2021-01-12_08h59.42.471,premup-three_ses-02_part-02_label-phase2,3.2.4,Win32,60,,,,,,,,,,,,,,,,,1,0,330,121,1,329,1,,,,,,
left,0.495000124,1,251,,,,,,,,,,,,,3,6,1,stim/61.jpeg,Instruments,1,stim/objects/Instruments/gong3.png,0.9,1,-0.2,0.15,left,48,2021-01-12_08h59.42.471,premup-three_ses-02_part-02_label-phase2,3.2.4,Win32,60,,,,,,,,,,,,,,,,,1,0,330,238,1,329,2,,,,,,
right,0.528999805,0,252,,,,,,,,,,,,,1,2,4,stim/24.jpeg,Instruments,1,stim/objects/Instruments/bassguitar3.png,0.5,2,0.2,0.15,left,48,2021-01-12_08h59.42.471,premup-three_ses-02_part-02_label-phase2,3.2.4,Win32,60,,,,,,,,,,,,,,,,,1,0,330,35,1,329,2,,,,,,
left,0.561000109,1,253,,,,,,,,,,,,,2,4,4,stim/44.jpeg,Instruments,1,stim/objects/Instruments/bassguitar4.png,0.7,1,-0.2,0.15,left,48,2021-01-12_08h59.42.471,premup-three_ses-02_part-02_label-phase2,3.2.4,Win32,60,,,,,,,,,,,,,,,,,1,0,330,110,1,329,1,,,,,,
left,0.502999783,1,254,,,,,,,,,,,,,3,6,2,stim/62.jpeg,Instruments,1,stim/objects/Instruments/gong3.png,0.9,2,0.2,0.15,left,48,2021-01-12_08h59.42.471,premup-three_ses-02_part-02_label-phase2,3.2.4,Win32,60,,,,,,,,,,,,,,,,,1,0,330,283,1,329,2,,,,,,
right,0.470000029,1,255,,,,,,,,,,,,,3,5,2,stim/52.jpeg,HouseObjects,2,stim/objects/HouseObjects/doormat3.png,0.9,2,0.2,0.15,right,48,2021-01-12_08h59.42.471,premup-three_ses-02_part-02_label-phase2,3.2.4,Win32,60,,,,,,,,,,,,,,,,,1,0,330,215,1,329,2,,,,,,
right,0.65199995,1,256,,,,,,,,,,,,,1,1,4,stim/14.jpeg,HouseObjects,2,stim/objects/HouseObjects/ashtray3.png,0.5,1,-0.2,0.15,right,48,2021-01-12_08h59.42.471,premup-three_ses-02_part-02_label-phase2,3.2.4,Win32,60,,,,,,,,,,,,,,,,,1,0,330,15,1,329,2,,,,,,
left,0.506999731,0,257,,,,,,,,,,,,,2,4,2,stim/42.jpeg,HouseObjects,2,stim/objects/HouseObjects/blender4.png,0.3,2,0.2,0.15,right,48,2021-01-12_08h59.42.471,premup-three_ses-02_part-02_label-phase2,3.2.4,Win32,60,,,,,,,,,,,,,,,,,1,0,330,120,1,329,1,,,,,,
right,0.458999872,1,258,,,,,,,,,,,,,3,5,1,stim/51.jpeg,HouseObjects,2,stim/objects/HouseObjects/garbagebin3.png,0.9,4,0.2,-0.15,right,48,2021-01-12_08h59.42.471,premup-three_ses-02_part-02_label-phase2,3.2.4,Win32,60,,,,,,,,,,,,,,,,,1,0,330,158,1,329,2,,,,,,
left,0.51699996,1,259,,,,,,,,,,,,,3,6,2,stim/62.jpeg,Instruments,1,stim/objects/Instruments/flute3.png,0.9,3,-0.2,-0.15,left,48,2021-01-12_08h59.42.471,premup-three_ses-02_part-02_label-phase2,3.2.4,Win32,60,,,,,,,,,,,,,,,,,1,0,330,275,1,329,2,,,,,,
left,0.46600008,0,260,,,,,,,,,,,,,3,6,3,stim/63.jpeg,HouseObjects,2,stim/objects/HouseObjects/vacuumcleaner4.png,0.1,4,0.2,-0.15,right,48,2021-01-12_08h59.42.471,premup-three_ses-02_part-02_label-phase2,3.2.4,Win32,60,,,,,,,,,,,,,,,,,1,0,330,328,1,329,1,,,,,,
right,0.479999781,1,261,,,,,,,,,,,,,3,5,1,stim/51.jpeg,HouseObjects,2,stim/objects/HouseObjects/glass3.png,0.9,3,-0.2,-0.15,right,48,2021-01-12_08h59.42.471,premup-three_ses-02_part-02_label-phase2,3.2.4,Win32,60,,,,,,,,,,,,,,,,,1,0,330,214,1,329,2,,,,,,
right,0.486999989,1,262,,,,,,,,,,,,,3,5,3,stim/53.jpeg,HouseObjects,2,stim/objects/HouseObjects/glass4.png,0.9,4,0.2,-0.15,right,48,2021-01-12_08h59.42.471,premup-three_ses-02_part-02_label-phase2,3.2.4,Win32,60,,,,,,,,,,,,,,,,,1,0,330,224,1,329,1,,,,,,
right,0.504999876,1,263,,,,,,,,,,,,,2,3,1,stim/31.jpeg,HouseObjects,2,stim/objects/HouseObjects/coffee3.png,0.7,4,0.2,-0.15,right,48,2021-01-12_08h59.42.471,premup-three_ses-02_part-02_label-phase2,3.2.4,Win32,60,,,,,,,,,,,,,,,,,1,0,330,72,1,329,2,,,,,,
right,0.612999916,1,264,,,,,,,,,,,,,2,3,2,stim/32.jpeg,HouseObjects,2,stim/objects/HouseObjects/clothespin3.png,0.7,1,-0.2,0.15,right,48,2021-01-12_08h59.42.471,premup-three_ses-02_part-02_label-phase2,3.2.4,Win32,60,,,,,,,,,,,,,,,,,1,0,330,81,1,329,2,,,,,,
right,0.49000001,1,265,,,,,,,,,,,,,3,5,3,stim/53.jpeg,HouseObjects,2,stim/objects/HouseObjects/doormat4.png,0.9,1,-0.2,0.15,right,48,2021-01-12_08h59.42.471,premup-three_ses-02_part-02_label-phase2,3.2.4,Win32,60,,,,,,,,,,,,,,,,,1,0,330,220,1,329,1,,,,,,
right,0.462999821,0,266,,,,,,,,,,,,,2,3,4,stim/34.jpeg,Instruments,1,stim/objects/Instruments/balalaika4.png,0.3,2,0.2,0.15,left,48,2021-01-12_08h59.42.471,premup-three_ses-02_part-02_label-phase2,3.2.4,Win32,60,,,,,,,,,,,,,,,,,1,0,330,67,1,329,1,,,,,,
right,0.547999859,1,267,,,,,,,,,,,,,1,1,4,stim/14.jpeg,HouseObjects,2,stim/objects/HouseObjects/basket3.png,0.5,1,-0.2,0.15,right,48,2021-01-12_08h59.42.471,premup-three_ses-02_part-02_label-phase2,3.2.4,Win32,60,,,,,,,,,,,,,,,,,1,0,330,23,1,329,2,,,,,,
left,0.51699996,1,268,,,,,,,,,,,,,3,6,4,stim/64.jpeg,Instruments,1,stim/objects/Instruments/frenchhorn3.png,0.9,3,-0.2,-0.15,left,48,2021-01-12_08h59.42.471,premup-three_ses-02_part-02_label-phase2,3.2.4,Win32,60,,,,,,,,,,,,,,,,,1,0,330,237,1,329,2,,,,,,
left,0.447999954,1,269,,,,,,,,,,,,,3,6,4,stim/64.jpeg,Instruments,1,stim/objects/Instruments/grandpiano3.png,0.9,1,-0.2,0.15,left,48,2021-01-12_08h59.42.471,premup-three_ses-02_part-02_label-phase2,3.2.4,Win32,60,,,,,,,,,,,,,,,,,1,0,330,269,1,329,2,,,,,,
left,0.487999916,1,270,,,,,,,,,,,,,3,6,1,stim/61.jpeg,Instruments,1,stim/objects/Instruments/frenchhorn3.png,0.9,3,-0.2,-0.15,left,48,2021-01-12_08h59.42.471,premup-three_ses-02_part-02_label-phase2,3.2.4,Win32,60,,,,,,,,,,,,,,,,,1,0,330,262,1,329,2,,,,,,
right,0.513999939,1,271,,,,,,,,,,,,,2,3,4,stim/34.jpeg,HouseObjects,2,stim/objects/HouseObjects/ballofstring4.png,0.7,4,0.2,-0.15,right,48,2021-01-12_08h59.42.471,premup-three_ses-02_part-02_label-phase2,3.2.4,Win32,60,,,,,,,,,,,,,,,,,1,0,330,91,1,329,1,,,,,,
right,0.56799984,1,272,,,,,,,,,,,,,3,5,4,stim/54.jpeg,HouseObjects,2,stim/objects/HouseObjects/dustpan4.png,0.9,2,0.2,0.15,right,48,2021-01-12_08h59.42.471,premup-three_ses-02_part-02_label-phase2,3.2.4,Win32,60,,,,,,,,,,,,,,,,,1,0,330,221,1,329,1,,,,,,
right,0.499000072,1,273,,,,,,,,,,,,,3,5,4,stim/54.jpeg,HouseObjects,2,stim/objects/HouseObjects/garbagebin3.png,0.9,3,-0.2,-0.15,right,48,2021-01-12_08h59.42.471,premup-three_ses-02_part-02_label-phase2,3.2.4,Win32,60,,,,,,,,,,,,,,,,,1,0,330,193,1,329,2,,,,,,
left,0.569999933,0,274,,,,,,,,,,,,,1,1,1,stim/11.jpeg,HouseObjects,2,stim/objects/HouseObjects/bleachbottle3.png,0.5,1,-0.2,0.15,right,48,2021-01-12_08h59.42.471,premup-three_ses-02_part-02_label-phase2,3.2.4,Win32,60,,,,,,,,,,,,,,,,,1,0,330,24,1,329,2,,,,,,
right,0.506000042,1,275,,,,,,,,,,,,,2,3,2,stim/32.jpeg,HouseObjects,2,stim/objects/HouseObjects/cushion3.png,0.7,1,-0.2,0.15,right,48,2021-01-12_08h59.42.471,premup-three_ses-02_part-02_label-phase2,3.2.4,Win32,60,,,,,,,,,,,,,,,,,1,0,330,73,1,329,2,,,,,,
left,0.596999884,1,276,,,,,,,,,,,,,1,2,3,stim/23.jpeg,Instruments,1,stim/objects/Instruments/marimba3.png,0.5,2,0.2,0.15,left,48,2021-01-12_08h59.42.471,premup-three_ses-02_part-02_label-phase2,3.2.4,Win32,60,,,,,,,,,,,,,,,,,1,0,330,42,1,329,1,,,,,,
left,0.536999941,0,277,,,,,,,,,,,,,1,2,4,stim/24.jpeg,HouseObjects,2,stim/objects/HouseObjects/bottle3.png,0.5,1,-0.2,0.15,right,48,2021-01-12_08h59.42.471,premup-three_ses-02_part-02_label-phase2,3.2.4,Win32,60,,,,,,,,,,,,,,,,,1,0,330,51,1,329,2,,,,,,
left,0.520999908,1,278,,,,,,,,,,,,,3,6,3,stim/63.jpeg,Instruments,1,stim/objects/Instruments/frenchhorn3.png,0.9,4,0.2,-0.15,left,48,2021-01-12_08h59.42.471,premup-three_ses-02_part-02_label-phase2,3.2.4,Win32,60,,,,,,,,,,,,,,,,,1,0,330,272,1,329,2,,,,,,
right,0.530999899,1,279,,,,,,,,,,,,,3,5,1,stim/51.jpeg,HouseObjects,2,stim/objects/HouseObjects/garbagebin3.png,0.9,4,0.2,-0.15,right,48,2021-01-12_08h59.42.471,premup-three_ses-02_part-02_label-phase2,3.2.4,Win32,60,,,,,,,,,,,,,,,,,1,0,330,218,1,329,2,,,,,,
left,0.475999832,1,280,,,,,,,,,,,,,3,6,1,stim/61.jpeg,Instruments,1,stim/objects/Instruments/flute3.png,0.9,2,0.2,0.15,left,48,2021-01-12_08h59.42.471,premup-three_ses-02_part-02_label-phase2,3.2.4,Win32,60,,,,,,,,,,,,,,,,,1,0,330,290,1,329,2,,,,,,
left,0.551999807,0,281,,,,,,,,,,,,,2,4,1,stim/41.jpeg,HouseObjects,2,stim/objects/HouseObjects/coffee4.png,0.3,3,-0.2,-0.15,right,48,2021-01-12_08h59.42.471,premup-three_ses-02_part-02_label-phase2,3.2.4,Win32,60,,,,,,,,,,,,,,,,,1,0,330,127,1,329,1,,,,,,
left,0.566999912,1,282,,,,,,,,,,,,,2,4,4,stim/44.jpeg,Instruments,1,stim/objects/Instruments/drums3.png,0.7,4,0.2,-0.15,left,48,2021-01-12_08h59.42.471,premup-three_ses-02_part-02_label-phase2,3.2.4,Win32,60,,,,,,,,,,,,,,,,,1,0,330,102,1,329,2,,,,,,
left,0.532999754,1,283,,,,,,,,,,,,,3,6,1,stim/61.jpeg,Instruments,1,stim/objects/Instruments/grandpiano3.png,0.9,1,-0.2,0.15,left,48,2021-01-12_08h59.42.471,premup-three_ses-02_part-02_label-phase2,3.2.4,Win32,60,,,,,,,,,,,,,,,,,1,0,330,254,1,329,2,,,,,,
left,0.486000061,1,284,,,,,,,,,,,,,3,6,2,stim/62.jpeg,Instruments,1,stim/objects/Instruments/grandpiano3.png,0.9,2,0.2,0.15,left,48,2021-01-12_08h59.42.471,premup-three_ses-02_part-02_label-phase2,3.2.4,Win32,60,,,,,,,,,,,,,,,,,1,0,330,279,1,329,2,,,,,,
right,0.438999891,1,285,,,,,,,,,,,,,3,5,3,stim/53.jpeg,HouseObjects,2,stim/objects/HouseObjects/doormat3.png,0.9,2,0.2,0.15,right,48,2021-01-12_08h59.42.471,premup-three_ses-02_part-02_label-phase2,3.2.4,Win32,60,,,,,,,,,,,,,,,,,1,0,330,180,1,329,2,,,,,,
left,0.450000048,1,286,,,,,,,,,,,,,3,6,3,stim/63.jpeg,Instruments,1,stim/objects/Instruments/flute3.png,0.9,3,-0.2,-0.15,left,48,2021-01-12_08h59.42.471,premup-three_ses-02_part-02_label-phase2,3.2.4,Win32,60,,,,,,,,,,,,,,,,,1,0,330,280,1,329,2,,,,,,
left,0.49399972,0,287,,,,,,,,,,,,,3,6,1,stim/61.jpeg,HouseObjects,2,stim/objects/HouseObjects/pitcher4.png,0.1,4,0.2,-0.15,right,48,2021-01-12_08h59.42.471,premup-three_ses-02_part-02_label-phase2,3.2.4,Win32,60,,,,,,,,,,,,,,,,,1,0,330,326,1,329,1,,,,,,
left,0.433000088,1,288,,,,,,,,,,,,,3,6,4,stim/64.jpeg,Instruments,1,stim/objects/Instruments/violin4.png,0.9,3,-0.2,-0.15,left,48,2021-01-12_08h59.42.471,premup-three_ses-02_part-02_label-phase2,3.2.4,Win32,60,,,,,,,,,,,,,,,,,1,0,330,317,1,329,1,,,,,,
left,0.634000063,1,289,,,,,,,,,,,,,1,2,4,stim/24.jpeg,Instruments,1,stim/objects/Instruments/metronome3.png,0.5,2,0.2,0.15,left,48,2021-01-12_08h59.42.471,premup-three_ses-02_part-02_label-phase2,3.2.4,Win32,60,,,,,,,,,,,,,,,,,1,0,330,43,1,329,1,,,,,,
right,0.644000053,1,290,,,,,,,,,,,,,3,5,2,stim/52.jpeg,HouseObjects,2,stim/objects/HouseObjects/garbagebin3.png,0.9,4,0.2,-0.15,right,48,2021-01-12_08h59.42.471,premup-three_ses-02_part-02_label-phase2,3.2.4,Win32,60,,,,,,,,,,,,,,,,,1,0,330,163,1,329,2,,,,,,
left,0.509000063,1,291,,,,,,,,,,,,,2,4,2,stim/42.jpeg,Instruments,1,stim/objects/Instruments/doublebass3.png,0.7,2,0.2,0.15,left,48,2021-01-12_08h59.42.471,premup-three_ses-02_part-02_label-phase2,3.2.4,Win32,60,,,,,,,,,,,,,,,,,1,0,330,96,1,329,2,,,,,,
left,0.506999969,1,292,,,,,,,,,,,,,3,6,1,stim/61.jpeg,Instruments,1,stim/objects/Instruments/flute3.png,0.9,1,-0.2,0.15,left,48,2021-01-12_08h59.42.471,premup-three_ses-02_part-02_label-phase2,3.2.4,Win32,60,,,,,,,,,,,,,,,,,1,0,330,250,1,329,2,,,,,,
left,0.477999926,1,293,,,,,,,,,,,,,3,6,3,stim/63.jpeg,Instruments,1,stim/objects/Instruments/grandpiano3.png,0.9,3,-0.2,-0.15,left,48,2021-01-12_08h59.42.471,premup-three_ses-02_part-02_label-phase2,3.2.4,Win32,60,,,,,,,,,,,,,,,,,1,0,330,284,1,329,2,,,,,,
left,0.424999952,0,294,,,,,,,,,,,,,1,2,2,stim/22.jpeg,HouseObjects,2,stim/objects/HouseObjects/bucket3.png,0.5,3,-0.2,-0.15,right,48,2021-01-12_08h59.42.471,premup-three_ses-02_part-02_label-phase2,3.2.4,Win32,60,,,,,,,,,,,,,,,,,1,0,330,53,1,329,2,,,,,,
left,0.477999926,1,295,,,,,,,,,,,,,3,6,1,stim/61.jpeg,Instruments,1,stim/objects/Instruments/frenchhorn3.png,0.9,1,-0.2,0.15,left,48,2021-01-12_08h59.42.471,premup-three_ses-02_part-02_label-phase2,3.2.4,Win32,60,,,,,,,,,,,,,,,,,1,0,330,302,1,329,2,,,,,,
left,0.412999868,1,296,,,,,,,,,,,,,3,6,3,stim/63.jpeg,Instruments,1,stim/objects/Instruments/flutetrans3.png,0.9,3,-0.2,-0.15,left,48,2021-01-12_08h59.42.471,premup-three_ses-02_part-02_label-phase2,3.2.4,Win32,60,,,,,,,,,,,,,,,,,1,0,330,296,1,329,2,,,,,,
left,0.53399992,1,297,,,,,,,,,,,,,2,4,2,stim/42.jpeg,Instruments,1,stim/objects/Instruments/doublebass4.png,0.7,4,0.2,-0.15,left,48,2021-01-12_08h59.42.471,premup-three_ses-02_part-02_label-phase2,3.2.4,Win32,60,,,,,,,,,,,,,,,,,1,0,330,116,1,329,1,,,,,,
left,0.429000139,1,298,,,,,,,,,,,,,3,6,3,stim/63.jpeg,Instruments,1,stim/objects/Instruments/frenchhorn3.png,0.9,2,0.2,0.15,left,48,2021-01-12_08h59.42.471,premup-three_ses-02_part-02_label-phase2,3.2.4,Win32,60,,,,,,,,,,,,,,,,,1,0,330,292,1,329,2,,,,,,
left,0.423000097,1,299,,,,,,,,,,,,,3,6,2,stim/62.jpeg,Instruments,1,stim/objects/Instruments/gong3.png,0.9,1,-0.2,0.15,left,48,2021-01-12_08h59.42.471,premup-three_ses-02_part-02_label-phase2,3.2.4,Win32,60,,,,,,,,,,,,,,,,,1,0,330,303,1,329,2,,,,,,
right,0.581999779,0,300,,,,,,,,,,,,,1,1,4,stim/14.jpeg,Instruments,1,stim/objects/Instruments/balalaika3.png,0.5,1,-0.2,0.15,left,48,2021-01-12_08h59.42.471,premup-three_ses-02_part-02_label-phase2,3.2.4,Win32,60,,,,,,,,,,,,,,,,,1,0,330,7,1,329,2,,,,,,
right,0.667999983,1,301,,,,,,,,,,,,,1,2,4,stim/24.jpeg,HouseObjects,2,stim/objects/HouseObjects/broom3.png,0.5,4,0.2,-0.15,right,48,2021-01-12_08h59.42.471,premup-three_ses-02_part-02_label-phase2,3.2.4,Win32,60,,,,,,,,,,,,,,,,,1,0,330,47,1,329,2,,,,,,
right,0.549999952,1,302,,,,,,,,,,,,,3,5,2,stim/52.jpeg,HouseObjects,2,stim/objects/HouseObjects/dustpan3.png,0.9,3,-0.2,-0.15,right,48,2021-01-12_08h59.42.471,premup-three_ses-02_part-02_label-phase2,3.2.4,Win32,60,,,,,,,,,,,,,,,,,1,0,330,151,1,329,2,,,,,,
left,0.513999939,1,303,,,,,,,,,,,,,3,6,1,stim/61.jpeg,Instruments,1,stim/objects/Instruments/grandpiano3.png,0.9,1,-0.2,0.15,left,48,2021-01-12_08h59.42.471,premup-three_ses-02_part-02_label-phase2,3.2.4,Win32,60,,,,,,,,,,,,,,,,,1,0,330,294,1,329,2,,,,,,
left,0.472000122,1,304,,,,,,,,,,,,,3,6,2,stim/62.jpeg,Instruments,1,stim/objects/Instruments/xylophone4.png,0.9,4,0.2,-0.15,left,48,2021-01-12_08h59.42.471,premup-three_ses-02_part-02_label-phase2,3.2.4,Win32,60,,,,,,,,,,,,,,,,,1,0,330,319,1,329,1,,,,,,
left,0.505000114,1,305,,,,,,,,,,,,,3,6,3,stim/63.jpeg,Instruments,1,stim/objects/Instruments/marimba4.png,0.9,3,-0.2,-0.15,left,48,2021-01-12_08h59.42.471,premup-three_ses-02_part-02_label-phase2,3.2.4,Win32,60,,,,,,,,,,,,,,,,,1,0,330,312,1,329,1,,,,,,
left,0.697999954,0,306,,,,,,,,,,,,,1,1,3,stim/13.jpeg,HouseObjects,2,stim/objects/HouseObjects/barbecuelighter3.png,0.5,3,-0.2,-0.15,right,48,2021-01-12_08h59.42.471,premup-three_ses-02_part-02_label-phase2,3.2.4,Win32,60,,,,,,,,,,,,,,,,,1,0,330,22,1,329,2,,,,,,
right,0.579999924,1,307,,,,,,,,,,,,,3,5,4,stim/54.jpeg,HouseObjects,2,stim/objects/HouseObjects/flyswatter3.png,0.9,3,-0.2,-0.15,right,48,2021-01-12_08h59.42.471,premup-three_ses-02_part-02_label-phase2,3.2.4,Win32,60,,,,,,,,,,,,,,,,,1,0,330,217,1,329,2,,,,,,
left,0.797999859,1,308,,,,,,,,,,,,,2,3,1,stim/31.jpeg,Instruments,1,stim/objects/Instruments/banjo4.png,0.3,3,-0.2,-0.15,left,48,2021-01-12_08h59.42.471,premup-three_ses-02_part-02_label-phase2,3.2.4,Win32,60,,,,,,,,,,,,,,,,,1,0,330,68,1,329,1,,,,,,
left,0.450999975,1,309,,,,,,,,,,,,,3,6,2,stim/62.jpeg,Instruments,1,stim/objects/Instruments/flutetrans3.png,0.9,3,-0.2,-0.15,left,48,2021-01-12_08h59.42.471,premup-three_ses-02_part-02_label-phase2,3.2.4,Win32,60,,,,,,,,,,,,,,,,,1,0,330,231,1,329,2,,,,,,
right,0.432999849,0,310,,,,,,,,,,,,,3,6,4,stim/64.jpeg,Instruments,1,stim/objects/Instruments/grandpiano3.png,0.9,4,0.2,-0.15,left,48,2021-01-12_08h59.42.471,premup-three_ses-02_part-02_label-phase2,3.2.4,Win32,60,,,,,,,,,,,,,,,,,1,0,330,309,1,329,2,,,,,,
right,0.494999886,1,311,,,,,,,,,,,,,3,5,1,stim/51.jpeg,HouseObjects,2,stim/objects/HouseObjects/doormat3.png,0.9,1,-0.2,0.15,right,48,2021-01-12_08h59.42.471,premup-three_ses-02_part-02_label-phase2,3.2.4,Win32,60,,,,,,,,,,,,,,,,,1,0,330,150,1,329,2,,,,,,
right,0.424999952,1,312,,,,,,,,,,,,,3,5,4,stim/54.jpeg,HouseObjects,2,stim/objects/HouseObjects/iron4.png,0.9,2,0.2,0.15,right,48,2021-01-12_08h59.42.471,premup-three_ses-02_part-02_label-phase2,3.2.4,Win32,60,,,,,,,,,,,,,,,,,1,0,330,229,1,329,1,,,,,,
left,0.57799983,1,313,,,,,,,,,,,,,2,4,1,stim/41.jpeg,Instruments,1,stim/objects/Instruments/cymbal4.png,0.7,2,0.2,0.15,left,48,2021-01-12_08h59.42.471,premup-three_ses-02_part-02_label-phase2,3.2.4,Win32,60,,,,,,,,,,,,,,,,,1,0,330,115,1,329,1,,,,,,
left,0.434999943,1,314,,,,,,,,,,,,,2,4,1,stim/41.jpeg,Instruments,1,stim/objects/Instruments/cymbal3.png,0.7,3,-0.2,-0.15,left,48,2021-01-12_08h59.42.471,premup-three_ses-02_part-02_label-phase2,3.2.4,Win32,60,,,,,,,,,,,,,,,,,1,0,330,95,1,329,2,,,,,,
right,0.646999836,1,315,,,,,,,,,,,,,3,5,1,stim/51.jpeg,HouseObjects,2,stim/objects/HouseObjects/glass3.png,0.9,4,0.2,-0.15,right,48,2021-01-12_08h59.42.471,premup-three_ses-02_part-02_label-phase2,3.2.4,Win32,60,,,,,,,,,,,,,,,,,1,0,330,174,1,329,2,,,,,,
left,0.514999866,1,316,,,,,,,,,,,,,3,6,2,stim/62.jpeg,Instruments,1,stim/objects/Instruments/flute3.png,0.9,1,-0.2,0.15,left,48,2021-01-12_08h59.42.471,premup-three_ses-02_part-02_label-phase2,3.2.4,Win32,60,,,,,,,,,,,,,,,,,1,0,330,235,1,329,2,,,,,,
right,0.473999739,1,317,,,,,,,,,,,,,3,5,1,stim/51.jpeg,HouseObjects,2,stim/objects/HouseObjects/garbagebin3.png,0.9,1,-0.2,0.15,right,48,2021-01-12_08h59.42.471,premup-three_ses-02_part-02_label-phase2,3.2.4,Win32,60,,,,,,,,,,,,,,,,,1,0,330,198,1,329,2,,,,,,
left,0.565999985,1,318,,,,,,,,,,,,,2,4,1,stim/41.jpeg,Instruments,1,stim/objects/Instruments/electricdrumset3.png,0.7,1,-0.2,0.15,left,48,2021-01-12_08h59.42.471,premup-three_ses-02_part-02_label-phase2,3.2.4,Win32,60,,,,,,,,,,,,,,,,,1,0,330,103,1,329,2,,,,,,
right,0.513999939,1,319,,,,,,,,,,,,,3,5,3,stim/53.jpeg,HouseObjects,2,stim/objects/HouseObjects/flyswatter3.png,0.9,3,-0.2,-0.15,right,48,2021-01-12_08h59.42.471,premup-three_ses-02_part-02_label-phase2,3.2.4,Win32,60,,,,,,,,,,,,,,,,,1,0,330,192,1,329,2,,,,,,
right,0.535999775,1,320,,,,,,,,,,,,,2,3,2,stim/32.jpeg,HouseObjects,2,stim/objects/HouseObjects/wateringcan3.png,0.7,3,-0.2,-0.15,right,48,2021-01-12_08h59.42.471,premup-three_ses-02_part-02_label-phase2,3.2.4,Win32,60,,,,,,,,,,,,,,,,,1,0,330,89,1,329,1,,,,,,
left,0.405999899,1,321,,,,,,,,,,,,,3,6,1,stim/61.jpeg,Instruments,1,stim/objects/Instruments/vuvuzela4.png,0.9,4,0.2,-0.15,left,48,2021-01-12_08h59.42.471,premup-three_ses-02_part-02_label-phase2,3.2.4,Win32,60,,,,,,,,,,,,,,,,,1,0,330,318,1,329,1,,,,,,
left,0.460000038,1,322,,,,,,,,,,,,,3,6,1,stim/61.jpeg,Instruments,1,stim/objects/Instruments/flute3.png,0.9,1,-0.2,0.15,left,48,2021-01-12_08h59.42.471,premup-three_ses-02_part-02_label-phase2,3.2.4,Win32,60,,,,,,,,,,,,,,,,,1,0,330,230,1,329,2,,,,,,
left,0.629999876,1,323,,,,,,,,,,,,,2,4,2,stim/42.jpeg,Instruments,1,stim/objects/Instruments/cymbal3.png,0.7,4,0.2,-0.15,left,48,2021-01-12_08h59.42.471,premup-three_ses-02_part-02_label-phase2,3.2.4,Win32,60,,,,,,,,,,,,,,,,,1,0,330,100,1,329,2,,,,,,
right,0.494999886,0,324,,,,,,,,,,,,,3,5,1,stim/51.jpeg,Instruments,1,stim/objects/Instruments/flute4.png,0.1,3,-0.2,-0.15,left,48,2021-01-12_08h59.42.471,premup-three_ses-02_part-02_label-phase2,3.2.4,Win32,60,,,,,,,,,,,,,,,,,1,0,330,130,1,329,1,,,,,,
right,0.70299983,0,325,,,,,,,,,,,,,2,4,4,stim/44.jpeg,Instruments,1,stim/objects/Instruments/doublebass3.png,0.7,2,0.2,0.15,left,48,2021-01-12_08h59.42.471,premup-three_ses-02_part-02_label-phase2,3.2.4,Win32,60,,,,,,,,,,,,,,,,,1,0,330,106,1,329,2,,,,,,
left,0.566999912,1,326,,,,,,,,,,,,,3,6,2,stim/62.jpeg,Instruments,1,stim/objects/Instruments/gong3.png,0.9,4,0.2,-0.15,left,48,2021-01-12_08h59.42.471,premup-three_ses-02_part-02_label-phase2,3.2.4,Win32,60,,,,,,,,,,,,,,,,,1,0,330,243,1,329,2,,,,,,
right,0.629999876,1,327,,,,,,,,,,,,,2,3,4,stim/34.jpeg,HouseObjects,2,stim/objects/HouseObjects/towel3.png,0.7,2,0.2,0.15,right,48,2021-01-12_08h59.42.471,premup-three_ses-02_part-02_label-phase2,3.2.4,Win32,60,,,,,,,,,,,,,,,,,1,0,330,87,1,329,1,,,,,,
left,0.528999805,1,328,,,,,,,,,,,,,3,6,1,stim/61.jpeg,Instruments,1,stim/objects/Instruments/grandpiano3.png,0.9,4,0.2,-0.15,left,48,2021-01-12_08h59.42.471,premup-three_ses-02_part-02_label-phase2,3.2.4,Win32,60,,,,,,,,,,,,,,,,,1,0,330,274,1,329,2,,,,,,
left,0.430999756,1,329,,,,,,,,,,,,,3,6,1,stim/61.jpeg,Instruments,1,stim/objects/Instruments/flutetrans3.png,0.9,3,-0.2,-0.15,left,48,2021-01-12_08h59.42.471,premup-three_ses-02_part-02_label-phase2,3.2.4,Win32,60,,,,,,,,,,,,,,,,,1,0,330,306,1,329,2,,,,,,
left,0.396999836,1,330,,,,,,,,,,,,,3,6,1,stim/61.jpeg,Instruments,1,stim/objects/Instruments/gong3.png,0.9,4,0.2,-0.15,left,48,2021-01-12_08h59.42.471,premup-three_ses-02_part-02_label-phase2,3.2.4,Win32,60,,,,,,,,,,,,,,,,,1,0,330,258,1,329,2,,,,,,
right,0.501999855,1,331,,,,,,,,,,,,,3,5,4,stim/54.jpeg,HouseObjects,2,stim/objects/HouseObjects/glassmop4.png,0.9,3,-0.2,-0.15,right,48,2021-01-12_08h59.42.471,premup-three_ses-02_part-02_label-phase2,3.2.4,Win32,60,,,,,,,,,,,,,,,,,1,0,330,225,1,329,1,,,,,,
left,0.482999802,1,332,,,,,,,,,,,,,3,6,2,stim/62.jpeg,Instruments,1,stim/objects/Instruments/musicstand4.png,0.9,2,0.2,0.15,left,48,2021-01-12_08h59.42.471,premup-three_ses-02_part-02_label-phase2,3.2.4,Win32,60,,,,,,,,,,,,,,,,,1,0,330,315,1,329,1,,,,,,
right,0.546000004,1,333,,,,,,,,,,,,,1,1,2,stim/12.jpeg,HouseObjects,2,stim/objects/HouseObjects/barbecuelighter3.png,0.5,1,-0.2,0.15,right,48,2021-01-12_08h59.42.471,premup-three_ses-02_part-02_label-phase2,3.2.4,Win32,60,,,,,,,,,,,,,,,,,1,0,330,17,1,329,2,,,,,,
right,0.565000057,1,334,,,,,,,,,,,,,2,3,4,stim/34.jpeg,HouseObjects,2,stim/objects/HouseObjects/clothespin3.png,0.7,4,0.2,-0.15,right,48,2021-01-12_08h59.42.471,premup-three_ses-02_part-02_label-phase2,3.2.4,Win32,60,,,,,,,,,,,,,,,,,1,0,330,71,1,329,2,,,,,,
right,0.60800004,0,335,,,,,,,,,,,,,1,1,1,stim/11.jpeg,Instruments,1,stim/objects/Instruments/bassdrum3.png,0.5,3,-0.2,-0.15,left,48,2021-01-12_08h59.42.471,premup-three_ses-02_part-02_label-phase2,3.2.4,Win32,60,,,,,,,,,,,,,,,,,1,0,330,4,1,329,2,,,,,,
right,0.545000076,1,336,,,,,,,,,,,,,3,5,4,stim/54.jpeg,HouseObjects,2,stim/objects/HouseObjects/doormat3.png,0.9,2,0.2,0.15,right,48,2021-01-12_08h59.42.471,premup-three_ses-02_part-02_label-phase2,3.2.4,Win32,60,,,,,,,,,,,,,,,,,1,0,330,205,1,329,2,,,,,,
right,0.600999832,1,337,,,,,,,,,,,,,1,2,1,stim/21.jpeg,HouseObjects,2,stim/objects/HouseObjects/broom3.png,0.5,3,-0.2,-0.15,right,48,2021-01-12_08h59.42.471,premup-three_ses-02_part-02_label-phase2,3.2.4,Win32,60,,,,,,,,,,,,,,,,,1,0,330,52,1,329,2,,,,,,
left,0.513000011,1,338,,,,,,,,,,,,,3,6,1,stim/61.jpeg,Instruments,1,stim/objects/Instruments/flute3.png,0.9,1,-0.2,0.15,left,48,2021-01-12_08h59.42.471,premup-three_ses-02_part-02_label-phase2,3.2.4,Win32,60,,,,,,,,,,,,,,,,,1,0,330,270,1,329,2,,,,,,
left,0.566999912,1,339,,,,,,,,,,,,,2,4,4,stim/44.jpeg,Instruments,1,stim/objects/Instruments/electricdrumset3.png,0.7,1,-0.2,0.15,left,48,2021-01-12_08h59.42.471,premup-three_ses-02_part-02_label-phase2,3.2.4,Win32,60,,,,,,,,,,,,,,,,,1,0,330,98,1,329,2,,,,,,
right,0.628999949,0,340,,,,,,,,,,,,,1,1,4,stim/14.jpeg,Instruments,1,stim/objects/Instruments/banjo3.png,0.5,4,0.2,-0.15,left,48,2021-01-12_08h59.42.471,premup-three_ses-02_part-02_label-phase2,3.2.4,Win32,60,,,,,,,,,,,,,,,,,1,0,330,3,1,329,2,,,,,,
left,0.479999781,0,341,,,,,,,,,,,,,3,6,4,stim/64.jpeg,HouseObjects,2,stim/objects/HouseObjects/pan4.png,0.1,2,0.2,0.15,right,48,2021-01-12_08h59.42.471,premup-three_ses-02_part-02_label-phase2,3.2.4,Win32,60,,,,,,,,,,,,,,,,,1,0,330,325,1,329,1,,,,,,
left,0.561999798,1,342,,,,,,,,,,,,,2,4,3,stim/43.jpeg,Instruments,1,stim/objects/Instruments/drums3.png,0.7,3,-0.2,-0.15,left,48,2021-01-12_08h59.42.471,premup-three_ses-02_part-02_label-phase2,3.2.4,Win32,60,,,,,,,,,,,,,,,,,1,0,330,97,1,329,2,,,,,,
left,0.476000071,1,343,,,,,,,,,,,,,3,6,3,stim/63.jpeg,Instruments,1,stim/objects/Instruments/gong3.png,0.9,3,-0.2,-0.15,left,48,2021-01-12_08h59.42.471,premup-three_ses-02_part-02_label-phase2,3.2.4,Win32,60,,,,,,,,,,,,,,,,,1,0,330,268,1,329,2,,,,,,
left,0.524999857,1,344,,,,,,,,,,,,,2,4,3,stim/43.jpeg,Instruments,1,stim/objects/Instruments/cymbal3.png,0.7,3,-0.2,-0.15,left,48,2021-01-12_08h59.42.471,premup-three_ses-02_part-02_label-phase2,3.2.4,Win32,60,,,,,,,,,,,,,,,,,1,0,330,105,1,329,2,,,,,,
right,0.654000044,0,345,,,,,,,,,,,,,2,3,3,stim/33.jpeg,Instruments,1,stim/objects/Instruments/acousticguitar4.png,0.3,3,-0.2,-0.15,left,48,2021-01-12_08h59.42.471,premup-three_ses-02_part-02_label-phase2,3.2.4,Win32,60,,,,,,,,,,,,,,,,,1,0,330,66,1,329,1,,,,,,
right,0.52699995,1,346,,,,,,,,,,,,,3,5,2,stim/52.jpeg,HouseObjects,2,stim/objects/HouseObjects/garbagebin3.png,0.9,3,-0.2,-0.15,right,48,2021-01-12_08h59.42.471,premup-three_ses-02_part-02_label-phase2,3.2.4,Win32,60,,,,,,,,,,,,,,,,,1,0,330,183,1,329,2,,,,,,
left,0.478999853,1,347,,,,,,,,,,,,,2,4,1,stim/41.jpeg,Instruments,1,stim/objects/Instruments/electricguitar4.png,0.7,3,-0.2,-0.15,left,48,2021-01-12_08h59.42.471,premup-three_ses-02_part-02_label-phase2,3.2.4,Win32,60,,,,,,,,,,,,,,,,,1,0,330,119,1,329,1,,,,,,
right,0.509000063,1,348,,,,,,,,,,,,,2,3,1,stim/31.jpeg,HouseObjects,2,stim/objects/HouseObjects/barbecuelighter4.png,0.7,1,-0.2,0.15,right,48,2021-01-12_08h59.42.471,premup-three_ses-02_part-02_label-phase2,3.2.4,Win32,60,,,,,,,,,,,,,,,,,1,0,330,92,1,329,1,,,,,,
right,0.471999884,1,349,,,,,,,,,,,,,3,5,4,stim/54.jpeg,HouseObjects,2,stim/objects/HouseObjects/glass3.png,0.9,2,0.2,0.15,right,48,2021-01-12_08h59.42.471,premup-three_ses-02_part-02_label-phase2,3.2.4,Win32,60,,,,,,,,,,,,,,,,,1,0,330,169,1,329,2,,,,,,
left,0.510999918,0,350,,,,,,,,,,,,,2,3,3,stim/33.jpeg,HouseObjects,2,stim/objects/HouseObjects/clothesdryingrack3.png,0.7,4,0.2,-0.15,right,48,2021-01-12_08h59.42.471,premup-three_ses-02_part-02_label-phase2,3.2.4,Win32,60,,,,,,,,,,,,,,,,,1,0,330,70,1,329,2,,,,,,
left,0.601999998,1,351,,,,,,,,,,,,,3,6,2,stim/62.jpeg,Instruments,1,stim/objects/Instruments/flutetrans3.png,0.9,2,0.2,0.15,left,48,2021-01-12_08h59.42.471,premup-three_ses-02_part-02_label-phase2,3.2.4,Win32,60,,,,,,,,,,,,,,,,,1,0,330,271,1,329,2,,,,,,
right,0.523999929,1,352,,,,,,,,,,,,,3,5,1,stim/51.jpeg,HouseObjects,2,stim/objects/HouseObjects/dustpan3.png,0.9,2,0.2,0.15,right,48,2021-01-12_08h59.42.471,premup-three_ses-02_part-02_label-phase2,3.2.4,Win32,60,,,,,,,,,,,,,,,,,1,0,330,146,1,329,2,,,,,,
right,0.473999739,1,353,,,,,,,,,,,,,3,5,4,stim/54.jpeg,HouseObjects,2,stim/objects/HouseObjects/doormat3.png,0.9,2,0.2,0.15,right,48,2021-01-12_08h59.42.471,premup-three_ses-02_part-02_label-phase2,3.2.4,Win32,60,,,,,,,,,,,,,,,,,1,0,330,145,1,329,2,,,,,,
left,0.468999863,1,354,,,,,,,,,,,,,3,6,4,stim/64.jpeg,Instruments,1,stim/objects/Instruments/gong3.png,0.9,1,-0.2,0.15,left,48,2021-01-12_08h59.42.471,premup-three_ses-02_part-02_label-phase2,3.2.4,Win32,60,,,,,,,,,,,,,,,,,1,0,330,273,1,329,2,,,,,,
right,0.56799984,1,355,,,,,,,,,,,,,1,2,4,stim/24.jpeg,HouseObjects,2,stim/objects/HouseObjects/match3.png,0.5,3,-0.2,-0.15,right,48,2021-01-12_08h59.42.471,premup-three_ses-02_part-02_label-phase2,3.2.4,Win32,60,,,,,,,,,,,,,,,,,1,0,330,59,1,329,1,,,,,,
right,0.565999985,1,356,,,,,,,,,,,,,3,5,4,stim/54.jpeg,HouseObjects,2,stim/objects/HouseObjects/dustpan3.png,0.9,1,-0.2,0.15,right,48,2021-01-12_08h59.42.471,premup-three_ses-02_part-02_label-phase2,3.2.4,Win32,60,,,,,,,,,,,,,,,,,1,0,330,201,1,329,2,,,,,,
left,0.481999874,1,357,,,,,,,,,,,,,3,6,1,stim/61.jpeg,Instruments,1,stim/objects/Instruments/flutetrans3.png,0.9,3,-0.2,-0.15,left,48,2021-01-12_08h59.42.471,premup-three_ses-02_part-02_label-phase2,3.2.4,Win32,60,,,,,,,,,,,,,,,,,1,0,330,286,1,329,2,,,,,,
right,0.527999878,0,358,,,,,,,,,,,,,1,1,2,stim/12.jpeg,Instruments,1,stim/objects/Instruments/acousticguitar3.png,0.5,2,0.2,0.15,left,48,2021-01-12_08h59.42.471,premup-three_ses-02_part-02_label-phase2,3.2.4,Win32,60,,,,,,,,,,,,,,,,,1,0,330,1,1,329,2,,,,,,
right,0.493000031,1,359,,,,,,,,,,,,,1,2,2,stim/22.jpeg,HouseObjects,2,stim/objects/HouseObjects/clock3.png,0.5,2,0.2,0.15,right,48,2021-01-12_08h59.42.471,premup-three_ses-02_part-02_label-phase2,3.2.4,Win32,60,,,,,,,,,,,,,,,,,1,0,330,49,1,329,2,,,,,,
right,0.593999863,0,360,,,,,,,,,,,,,3,5,3,stim/53.jpeg,Instruments,1,stim/objects/Instruments/harmonica4.png,0.1,3,-0.2,-0.15,left,48,2021-01-12_08h59.42.471,premup-three_ses-02_part-02_label-phase2,3.2.4,Win32,60,,,,,,,,,,,,,,,,,1,0,330,136,1,329,1,,,,,,
left,0.578999996,1,361,,,,,,,,,,,,,2,4,4,stim/44.jpeg,Instruments,1,stim/objects/Instruments/cornet4.png,0.7,4,0.2,-0.15,left,48,2021-01-12_08h59.42.471,premup-three_ses-02_part-02_label-phase2,3.2.4,Win32,60,,,,,,,,,,,,,,,,,1,0,330,114,1,329,1,,,,,,
left,0.45299983,1,362,,,,,,,,,,,,,1,1,2,stim/12.jpeg,Instruments,1,stim/objects/Instruments/hihat3.png,0.5,3,-0.2,-0.15,left,48,2021-01-12_08h59.42.471,premup-three_ses-02_part-02_label-phase2,3.2.4,Win32,60,,,,,,,,,,,,,,,,,1,0,330,13,1,329,1,,,,,,
left,0.645999908,1,363,,,,,,,,,,,,,1,1,1,stim/11.jpeg,Instruments,1,stim/objects/Instruments/banjo3.png,0.5,2,0.2,0.15,left,48,2021-01-12_08h59.42.471,premup-three_ses-02_part-02_label-phase2,3.2.4,Win32,60,,,,,,,,,,,,,,,,,1,0,330,8,1,329,2,,,,,,
left,0.596999884,0,364,,,,,,,,,,,,,3,6,3,stim/63.jpeg,HouseObjects,2,stim/objects/HouseObjects/ironingboard4.png,0.1,4,0.2,-0.15,right,48,2021-01-12_08h59.42.471,premup-three_ses-02_part-02_label-phase2,3.2.4,Win32,60,,,,,,,,,,,,,,,,,1,0,330,320,1,329,1,,,,,,
left,0.51699996,1,365,,,,,,,,,,,,,3,6,1,stim/61.jpeg,Instruments,1,stim/objects/Instruments/gong3.png,0.9,4,0.2,-0.15,left,48,2021-01-12_08h59.42.471,premup-three_ses-02_part-02_label-phase2,3.2.4,Win32,60,,,,,,,,,,,,,,,,,1,0,330,298,1,329,2,,,,,,
right,0.546999931,1,366,,,,,,,,,,,,,3,5,4,stim/54.jpeg,HouseObjects,2,stim/objects/HouseObjects/garbagebin3.png,0.9,3,-0.2,-0.15,right,48,2021-01-12_08h59.42.471,premup-three_ses-02_part-02_label-phase2,3.2.4,Win32,60,,,,,,,,,,,,,,,,,1,0,330,153,1,329,2,,,,,,
right,0.561999798,1,367,,,,,,,,,,,,,2,3,3,stim/33.jpeg,HouseObjects,2,stim/objects/HouseObjects/pitcher3.png,0.7,2,0.2,0.15,right,48,2021-01-12_08h59.42.471,premup-three_ses-02_part-02_label-phase2,3.2.4,Win32,60,,,,,,,,,,,,,,,,,1,0,330,86,1,329,1,,,,,,
left,0.519000053,1,368,,,,,,,,,,,,,3,6,4,stim/64.jpeg,Instruments,1,stim/objects/Instruments/frenchhorn3.png,0.9,1,-0.2,0.15,left,48,2021-01-12_08h59.42.471,premup-three_ses-02_part-02_label-phase2,3.2.4,Win32,60,,,,,,,,,,,,,,,,,1,0,330,297,1,329,2,,,,,,
left,0.447000027,1,369,,,,,,,,,,,,,3,6,4,stim/64.jpeg,Instruments,1,stim/objects/Instruments/metronome4.png,0.9,2,0.2,0.15,left,48,2021-01-12_08h59.42.471,premup-three_ses-02_part-02_label-phase2,3.2.4,Win32,60,,,,,,,,,,,,,,,,,1,0,330,313,1,329,1,,,,,,
right,0.498000145,1,370,,,,,,,,,,,,,3,5,2,stim/52.jpeg,HouseObjects,2,stim/objects/HouseObjects/garbagebin3.png,0.9,1,-0.2,0.15,right,48,2021-01-12_08h59.42.471,premup-three_ses-02_part-02_label-phase2,3.2.4,Win32,60,,,,,,,,,,,,,,,,,1,0,330,143,1,329,2,,,,,,
right,0.494999886,1,371,,,,,,,,,,,,,3,5,2,stim/52.jpeg,HouseObjects,2,stim/objects/HouseObjects/doormat3.png,0.9,4,0.2,-0.15,right,48,2021-01-12_08h59.42.471,premup-three_ses-02_part-02_label-phase2,3.2.4,Win32,60,,,,,,,,,,,,,,,,,1,0,330,175,1,329,2,,,,,,
right,0.480999947,1,372,,,,,,,,,,,,,3,5,1,stim/51.jpeg,HouseObjects,2,stim/objects/HouseObjects/dustpan3.png,0.9,2,0.2,0.15,right,48,2021-01-12_08h59.42.471,premup-three_ses-02_part-02_label-phase2,3.2.4,Win32,60,,,,,,,,,,,,,,,,,1,0,330,186,1,329,2,,,,,,
left,0.53399992,1,373,,,,,,,,,,,,,3,6,2,stim/62.jpeg,Instruments,1,stim/objects/Instruments/gong3.png,0.9,2,0.2,0.15,left,48,2021-01-12_08h59.42.471,premup-three_ses-02_part-02_label-phase2,3.2.4,Win32,60,,,,,,,,,,,,,,,,,1,0,330,263,1,329,2,,,,,,
right,0.430000067,1,374,,,,,,,,,,,,,3,5,3,stim/53.jpeg,HouseObjects,2,stim/objects/HouseObjects/garbagebin3.png,0.9,4,0.2,-0.15,right,48,2021-01-12_08h59.42.471,premup-three_ses-02_part-02_label-phase2,3.2.4,Win32,60,,,,,,,,,,,,,,,,,1,0,330,188,1,329,2,,,,,,
left,0.492999792,1,375,,,,,,,,,,,,,3,6,1,stim/61.jpeg,Instruments,1,stim/objects/Instruments/flutetrans3.png,0.9,1,-0.2,0.15,left,48,2021-01-12_08h59.42.471,premup-three_ses-02_part-02_label-phase2,3.2.4,Win32,60,,,,,,,,,,,,,,,,,1,0,330,266,1,329,2,,,,,,
right,0.612999916,1,376,,,,,,,,,,,,,1,1,4,stim/14.jpeg,HouseObjects,2,stim/objects/HouseObjects/handbrush3.png,0.5,2,0.2,0.15,right,48,2021-01-12_08h59.42.471,premup-three_ses-02_part-02_label-phase2,3.2.4,Win32,60,,,,,,,,,,,,,,,,,1,0,330,27,1,329,1,,,,,,
right,0.478999853,0,377,,,,,,,,,,,,,1,2,1,stim/21.jpeg,Instruments,1,stim/objects/Instruments/chime3.png,0.5,2,0.2,0.15,left,48,2021-01-12_08h59.42.471,premup-three_ses-02_part-02_label-phase2,3.2.4,Win32,60,,,,,,,,,,,,,,,,,1,0,330,32,1,329,2,,,,,,
left,0.559999943,1,378,,,,,,,,,,,,,3,6,4,stim/64.jpeg,Instruments,1,stim/objects/Instruments/flute3.png,0.9,1,-0.2,0.15,left,48,2021-01-12_08h59.42.471,premup-three_ses-02_part-02_label-phase2,3.2.4,Win32,60,,,,,,,,,,,,,,,,,1,0,330,305,1,329,2,,,,,,
right,0.446999788,1,379,,,,,,,,,,,,,1,1,1,stim/11.jpeg,HouseObjects,2,stim/objects/HouseObjects/ashtray3.png,0.5,4,0.2,-0.15,right,48,2021-01-12_08h59.42.471,premup-three_ses-02_part-02_label-phase2,3.2.4,Win32,60,,,,,,,,,,,,,,,,,1,0,330,20,1,329,2,,,,,,
right,0.513000011,1,380,,,,,,,,,,,,,3,5,1,stim/51.jpeg,HouseObjects,2,stim/objects/HouseObjects/dustpan3.png,0.9,2,0.2,0.15,right,48,2021-01-12_08h59.42.471,premup-three_ses-02_part-02_label-phase2,3.2.4,Win32,60,,,,,,,,,,,,,,,,,1,0,330,166,1,329,2,,,,,,
