key_resp_pract.keys,key_resp_pract.rt,trial_acc,trial_index,practice_loop.thisRepN,practice_loop.thisTrialN,practice_loop.thisN,practice_loop.thisIndex,practice_loop.ran,practice_loop.order,scn_condition,scn_cat,scn_inst,scn_file,obj_cat,obj_cat_num,obj_file,trial_cond,quadrant,obj_x,obj_y,corr_ans,participant,date,expName,psychopyVersion,OS,frameRate,key_resp_trial.keys,key_resp_trial.rt,iterations.thisRepN,iterations.thisTrialN,iterations.thisN,iterations.thisIndex,iterations.ran,iterations.order,task_innerloop.thisRepN,task_innerloop.thisTrialN,task_innerloop.thisN,task_innerloop.thisIndex,task_innerloop.ran,task_innerloop.order,iteration_index,rating_acc,slider.response,slider.rt,slider_2.response,slider_2.rt,ratings.thisRepN,ratings.thisTrialN,ratings.thisN,ratings.thisIndex,ratings.ran,ratings.order,obj_cat_top,min_resp_top,max_resp_top,obj_cat_bottom,min_resp_bottom,max_resp_bottom
left,1.79399991,1,1,1,0,240,126,1,239,2,4,3,stim/43.jpeg,Instruments,1,stim/objects/Instruments/record2.png,0.7,3,-0.2,-0.15,left,48,2021-01-11_08h35.28.753,premup-three_ses-01_part-01_label-phase1,3.2.4,Win32,60,,,,,,,,,,,,,,,,,,,,,,,,,,,,,,,,
right,1.320999861,0,2,1,0,240,54,1,239,1,2,3,stim/23.jpeg,Instruments,1,stim/objects/Instruments/tambourine.png,0.5,4,0.2,-0.15,left,48,2021-01-11_08h35.28.753,premup-three_ses-01_part-01_label-phase1,3.2.4,Win32,60,,,,,,,,,,,,,,,,,,,,,,,,,,,,,,,,
left,0.86500001,0,3,1,0,240,154,1,239,2,4,3,stim/43.jpeg,HouseObjects,2,stim/objects/HouseObjects/rubbergloves2.png,0.3,4,0.2,-0.15,right,48,2021-01-11_08h35.28.753,premup-three_ses-01_part-01_label-phase1,3.2.4,Win32,60,,,,,,,,,,,,,,,,,,,,,,,,,,,,,,,,
left,0.927999735,1,4,1,0,240,56,1,239,1,2,1,stim/21.jpeg,Instruments,1,stim/objects/Instruments/saxophone.png,0.5,4,0.2,-0.15,left,48,2021-01-11_08h35.28.753,premup-three_ses-01_part-01_label-phase1,3.2.4,Win32,60,,,,,,,,,,,,,,,,,,,,,,,,,,,,,,,,
right,0.762999773,0,5,1,0,240,127,1,239,2,4,4,stim/44.jpeg,Instruments,1,stim/objects/Instruments/record_player2.png,0.7,1,-0.2,0.15,left,48,2021-01-11_08h35.28.753,premup-three_ses-01_part-01_label-phase1,3.2.4,Win32,60,,,,,,,,,,,,,,,,,,,,,,,,,,,,,,,,
left,1.157999992,1,6,1,0,240,139,1,239,2,4,4,stim/44.jpeg,Instruments,1,stim/objects/Instruments/record_player2.png,0.7,1,-0.2,0.15,left,48,2021-01-11_08h35.28.753,premup-three_ses-01_part-01_label-phase1,3.2.4,Win32,60,,,,,,,,,,,,,,,,,,,,,,,,,,,,,,,,
left,1.167999744,1,7,1,0,240,215,1,239,3,6,4,stim/64.jpeg,Instruments,1,stim/objects/Instruments/tuba2.png,0.9,3,-0.2,-0.15,left,48,2021-01-11_08h35.28.753,premup-three_ses-01_part-01_label-phase1,3.2.4,Win32,60,,,,,,,,,,,,,,,,,,,,,,,,,,,,,,,,
right,1.021000147,1,8,1,0,240,62,1,239,1,2,3,stim/23.jpeg,HouseObjects,2,stim/objects/HouseObjects/scale.png,0.5,3,-0.2,-0.15,right,48,2021-01-11_08h35.28.753,premup-three_ses-01_part-01_label-phase1,3.2.4,Win32,60,,,,,,,,,,,,,,,,,,,,,,,,,,,,,,,,
right,1.14199996,0,9,1,0,240,218,1,239,3,6,3,stim/63.jpeg,Instruments,1,stim/objects/Instruments/trumpet2.png,0.9,3,-0.2,-0.15,left,48,2021-01-11_08h35.28.753,premup-three_ses-01_part-01_label-phase1,3.2.4,Win32,60,,,,,,,,,,,,,,,,,,,,,,,,,,,,,,,,
left,1.062999964,0,10,1,0,240,25,1,239,1,1,2,stim/12.jpeg,HouseObjects,2,stim/objects/HouseObjects/remote.png,0.5,2,0.2,0.15,right,48,2021-01-11_08h35.28.753,premup-three_ses-01_part-01_label-phase1,3.2.4,Win32,60,,,,,,,,,,,,,,,,,,,,,,,,,,,,,,,,
,,0,1,,,,,,,2,4,2,stim/42.jpeg,HouseObjects,2,stim/objects/HouseObjects/remote2.png,0.3,2,0.2,0.15,right,48,2021-01-11_08h35.28.753,premup-three_ses-01_part-01_label-phase1,3.2.4,Win32,60,left,0.898999929,4,0,4,0,1,3,1,0,240,153,1,239,,,,,,,,,,,,,,,,,,
,,0,2,,,,,,,1,2,2,stim/22.jpeg,HouseObjects,2,stim/objects/HouseObjects/saw.png,0.5,2,0.2,0.15,right,48,2021-01-11_08h35.28.753,premup-three_ses-01_part-01_label-phase1,3.2.4,Win32,60,left,0.996000051,4,0,4,0,1,3,1,0,240,65,1,239,,,,,,,,,,,,,,,,,,
,,0,3,,,,,,,2,3,4,stim/34.jpeg,HouseObjects,2,stim/objects/HouseObjects/thread.png,0.7,2,0.2,0.15,right,48,2021-01-11_08h35.28.753,premup-three_ses-01_part-01_label-phase1,3.2.4,Win32,60,left,1.569000006,4,0,4,0,1,3,1,0,240,107,1,239,,,,,,,,,,,,,,,,,,
,,1,4,,,,,,,2,3,2,stim/32.jpeg,HouseObjects,2,stim/objects/HouseObjects/teapot.png,0.7,3,-0.2,-0.15,right,48,2021-01-11_08h35.28.753,premup-three_ses-01_part-01_label-phase1,3.2.4,Win32,60,right,0.988999844,4,0,4,0,1,3,1,0,240,113,1,239,,,,,,,,,,,,,,,,,,
,,0,5,,,,,,,2,4,2,stim/42.jpeg,Instruments,1,stim/objects/Instruments/pipepiano2.png,0.7,4,0.2,-0.15,left,48,2021-01-11_08h35.28.753,premup-three_ses-01_part-01_label-phase1,3.2.4,Win32,60,right,1.042000055,4,0,4,0,1,3,1,0,240,125,1,239,,,,,,,,,,,,,,,,,,
,,0,6,,,,,,,3,6,1,stim/61.jpeg,Instruments,1,stim/objects/Instruments/triangle2.png,0.9,2,0.2,0.15,left,48,2021-01-11_08h35.28.753,premup-three_ses-01_part-01_label-phase1,3.2.4,Win32,60,right,1.227999926,4,0,4,0,1,3,1,0,240,216,1,239,,,,,,,,,,,,,,,,,,
,,0,7,,,,,,,3,5,3,stim/53.jpeg,Instruments,1,stim/objects/Instruments/tambourine2.png,0.1,4,0.2,-0.15,left,48,2021-01-11_08h35.28.753,premup-three_ses-01_part-01_label-phase1,3.2.4,Win32,60,right,1.246999979,4,0,4,0,1,3,1,0,240,162,1,239,,,,,,,,,,,,,,,,,,
,,0,8,,,,,,,1,1,4,stim/14.jpeg,HouseObjects,2,stim/objects/HouseObjects/rug.png,0.5,3,-0.2,-0.15,right,48,2021-01-11_08h35.28.753,premup-three_ses-01_part-01_label-phase1,3.2.4,Win32,60,left,1.412999868,4,0,4,0,1,3,1,0,240,35,1,239,,,,,,,,,,,,,,,,,,
,,0,9,,,,,,,1,2,3,stim/23.jpeg,HouseObjects,2,stim/objects/HouseObjects/scale.png,0.5,4,0.2,-0.15,right,48,2021-01-11_08h35.28.753,premup-three_ses-01_part-01_label-phase1,3.2.4,Win32,60,left,1.8349998,4,0,4,0,1,3,1,0,240,70,1,239,,,,,,,,,,,,,,,,,,
,,1,10,,,,,,,1,2,1,stim/21.jpeg,HouseObjects,2,stim/objects/HouseObjects/safetypin.png,0.5,3,-0.2,-0.15,right,48,2021-01-11_08h35.28.753,premup-three_ses-01_part-01_label-phase1,3.2.4,Win32,60,right,0.924999952,4,0,4,0,1,3,1,0,240,76,1,239,,,,,,,,,,,,,,,,,,
,,1,11,,,,,,,2,4,4,stim/44.jpeg,Instruments,1,stim/objects/Instruments/record_player2.png,0.7,1,-0.2,0.15,left,48,2021-01-11_08h35.28.753,premup-three_ses-01_part-01_label-phase1,3.2.4,Win32,60,left,0.967000008,4,0,4,0,1,3,1,0,240,131,1,239,,,,,,,,,,,,,,,,,,
,,1,12,,,,,,,1,1,3,stim/13.jpeg,Instruments,1,stim/objects/Instruments/record.png,0.5,1,-0.2,0.15,left,48,2021-01-11_08h35.28.753,premup-three_ses-01_part-01_label-phase1,3.2.4,Win32,60,left,1.075999975,4,0,4,0,1,3,1,0,240,14,1,239,,,,,,,,,,,,,,,,,,
,,1,13,,,,,,,1,2,2,stim/22.jpeg,Instruments,1,stim/objects/Instruments/speaker.png,0.5,3,-0.2,-0.15,left,48,2021-01-11_08h35.28.753,premup-three_ses-01_part-01_label-phase1,3.2.4,Win32,60,left,0.73300004,4,0,4,0,1,3,1,0,240,53,1,239,,,,,,,,,,,,,,,,,,
,,1,14,,,,,,,2,3,1,stim/31.jpeg,HouseObjects,2,stim/objects/HouseObjects/spraybottle.png,0.7,4,0.2,-0.15,right,48,2021-01-11_08h35.28.753,premup-three_ses-01_part-01_label-phase1,3.2.4,Win32,60,right,1.445999861,4,0,4,0,1,3,1,0,240,100,1,239,,,,,,,,,,,,,,,,,,
,,1,15,,,,,,,3,5,3,stim/53.jpeg,HouseObjects,2,stim/objects/HouseObjects/scale2.png,0.9,3,-0.2,-0.15,right,48,2021-01-11_08h35.28.753,premup-three_ses-01_part-01_label-phase1,3.2.4,Win32,60,right,0.901000023,4,0,4,0,1,3,1,0,240,170,1,239,,,,,,,,,,,,,,,,,,
,,0,16,,,,,,,1,2,1,stim/21.jpeg,Instruments,1,stim/objects/Instruments/saxophone.png,0.5,3,-0.2,-0.15,left,48,2021-01-11_08h35.28.753,premup-three_ses-01_part-01_label-phase1,3.2.4,Win32,60,right,0.635999918,4,0,4,0,1,3,1,0,240,44,1,239,,,,,,,,,,,,,,,,,,
,,1,17,,,,,,,2,3,1,stim/31.jpeg,HouseObjects,2,stim/objects/HouseObjects/spraybottle.png,0.7,3,-0.2,-0.15,right,48,2021-01-11_08h35.28.753,premup-three_ses-01_part-01_label-phase1,3.2.4,Win32,60,right,1.781999826,4,0,4,0,1,3,1,0,240,116,1,239,,,,,,,,,,,,,,,,,,
,,0,18,,,,,,,1,1,4,stim/14.jpeg,Instruments,1,stim/objects/Instruments/record_player.png,0.5,1,-0.2,0.15,left,48,2021-01-11_08h35.28.753,premup-three_ses-01_part-01_label-phase1,3.2.4,Win32,60,right,1.467000008,4,0,4,0,1,3,1,0,240,19,1,239,,,,,,,,,,,,,,,,,,
,,1,19,,,,,,,2,3,3,stim/33.jpeg,HouseObjects,2,stim/objects/HouseObjects/thermometer.png,0.7,2,0.2,0.15,right,48,2021-01-11_08h35.28.753,premup-three_ses-01_part-01_label-phase1,3.2.4,Win32,60,right,0.911999941,4,0,4,0,1,3,1,0,240,110,1,239,,,,,,,,,,,,,,,,,,
,,0,20,,,,,,,1,1,2,stim/12.jpeg,HouseObjects,2,stim/objects/HouseObjects/remote.png,0.5,2,0.2,0.15,right,48,2021-01-11_08h35.28.753,premup-three_ses-01_part-01_label-phase1,3.2.4,Win32,60,left,0.926000118,4,0,4,0,1,3,1,0,240,25,1,239,,,,,,,,,,,,,,,,,,
,,0,21,,,,,,,3,5,2,stim/52.jpeg,HouseObjects,2,stim/objects/HouseObjects/saw2.png,0.9,3,-0.2,-0.15,right,48,2021-01-11_08h35.28.753,premup-three_ses-01_part-01_label-phase1,3.2.4,Win32,60,,,4,0,4,0,1,3,1,0,240,173,1,239,,,,,,,,,,,,,,,,,,
,,0,22,,,,,,,2,3,2,stim/32.jpeg,HouseObjects,2,stim/objects/HouseObjects/teapot.png,0.7,1,-0.2,0.15,right,48,2021-01-11_08h35.28.753,premup-three_ses-01_part-01_label-phase1,3.2.4,Win32,60,left,0.763999939,4,0,4,0,1,3,1,0,240,93,1,239,,,,,,,,,,,,,,,,,,
,,1,23,,,,,,,3,6,1,stim/61.jpeg,Instruments,1,stim/objects/Instruments/triangle2.png,0.9,3,-0.2,-0.15,left,48,2021-01-11_08h35.28.753,premup-three_ses-01_part-01_label-phase1,3.2.4,Win32,60,left,1.315999985,4,0,4,0,1,3,1,0,240,200,1,239,,,,,,,,,,,,,,,,,,
,,0,24,,,,,,,2,3,2,stim/32.jpeg,Instruments,1,stim/objects/Instruments/trombone.png,0.3,2,0.2,0.15,left,48,2021-01-11_08h35.28.753,premup-three_ses-01_part-01_label-phase1,3.2.4,Win32,60,right,0.832999945,4,0,4,0,1,3,1,0,240,85,1,239,,,,,,,,,,,,,,,,,,
,,1,25,,,,,,,3,5,4,stim/54.jpeg,HouseObjects,2,stim/objects/HouseObjects/sponge2.png,0.9,2,0.2,0.15,right,48,2021-01-11_08h35.28.753,premup-three_ses-01_part-01_label-phase1,3.2.4,Win32,60,right,1.04399991,4,0,4,0,1,3,1,0,240,191,1,239,,,,,,,,,,,,,,,,,,
,,0,26,,,,,,,1,2,2,stim/22.jpeg,HouseObjects,2,stim/objects/HouseObjects/saw.png,0.5,1,-0.2,0.15,right,48,2021-01-11_08h35.28.753,premup-three_ses-01_part-01_label-phase1,3.2.4,Win32,60,left,0.836999893,4,0,4,0,1,3,1,0,240,69,1,239,,,,,,,,,,,,,,,,,,
,,1,27,,,,,,,2,4,1,stim/41.jpeg,Instruments,1,stim/objects/Instruments/panflute2.png,0.7,2,0.2,0.15,left,48,2021-01-11_08h35.28.753,premup-three_ses-01_part-01_label-phase1,3.2.4,Win32,60,left,1.007999897,4,0,4,0,1,3,1,0,240,120,1,239,,,,,,,,,,,,,,,,,,
,,0,28,,,,,,,3,6,4,stim/64.jpeg,Instruments,1,stim/objects/Instruments/tuba2.png,0.9,2,0.2,0.15,left,48,2021-01-11_08h35.28.753,premup-three_ses-01_part-01_label-phase1,3.2.4,Win32,60,right,0.852999926,4,0,4,0,1,3,1,0,240,219,1,239,,,,,,,,,,,,,,,,,,
,,0,29,,,,,,,3,5,3,stim/53.jpeg,HouseObjects,2,stim/objects/HouseObjects/scale2.png,0.9,2,0.2,0.15,right,48,2021-01-11_08h35.28.753,premup-three_ses-01_part-01_label-phase1,3.2.4,Win32,60,left,1.47699976,4,0,4,0,1,3,1,0,240,190,1,239,,,,,,,,,,,,,,,,,,
,,1,30,,,,,,,3,5,1,stim/51.jpeg,HouseObjects,2,stim/objects/HouseObjects/safetypin2.png,0.9,2,0.2,0.15,right,48,2021-01-11_08h35.28.753,premup-three_ses-01_part-01_label-phase1,3.2.4,Win32,60,right,1.291999817,4,0,4,0,1,3,1,0,240,164,1,239,,,,,,,,,,,,,,,,,,
,,0,31,,,,,,,2,3,1,stim/31.jpeg,HouseObjects,2,stim/objects/HouseObjects/spraybottle.png,0.7,2,0.2,0.15,right,48,2021-01-11_08h35.28.753,premup-three_ses-01_part-01_label-phase1,3.2.4,Win32,60,left,1.433999777,4,0,4,0,1,3,1,0,240,112,1,239,,,,,,,,,,,,,,,,,,
,,0,32,,,,,,,2,4,3,stim/43.jpeg,HouseObjects,2,stim/objects/HouseObjects/rubbergloves2.png,0.3,4,0.2,-0.15,right,48,2021-01-11_08h35.28.753,premup-three_ses-01_part-01_label-phase1,3.2.4,Win32,60,left,1.059999943,4,0,4,0,1,3,1,0,240,154,1,239,,,,,,,,,,,,,,,,,,
,,0,33,,,,,,,3,5,1,stim/51.jpeg,Instruments,1,stim/objects/Instruments/saxophone2.png,0.1,4,0.2,-0.15,left,48,2021-01-11_08h35.28.753,premup-three_ses-01_part-01_label-phase1,3.2.4,Win32,60,right,0.946000099,4,0,4,0,1,3,1,0,240,160,1,239,,,,,,,,,,,,,,,,,,
,,0,34,,,,,,,1,1,3,stim/13.jpeg,Instruments,1,stim/objects/Instruments/record.png,0.5,2,0.2,0.15,left,48,2021-01-11_08h35.28.753,premup-three_ses-01_part-01_label-phase1,3.2.4,Win32,60,right,1.357999802,4,0,4,0,1,3,1,0,240,6,1,239,,,,,,,,,,,,,,,,,,
,,1,35,,,,,,,2,3,1,stim/31.jpeg,Instruments,1,stim/objects/Instruments/triangle.png,0.3,3,-0.2,-0.15,left,48,2021-01-11_08h35.28.753,premup-three_ses-01_part-01_label-phase1,3.2.4,Win32,60,left,1.066999912,4,0,4,0,1,3,1,0,240,88,1,239,,,,,,,,,,,,,,,,,,
,,1,36,,,,,,,1,2,2,stim/22.jpeg,Instruments,1,stim/objects/Instruments/speaker.png,0.5,4,0.2,-0.15,left,48,2021-01-11_08h35.28.753,premup-three_ses-01_part-01_label-phase1,3.2.4,Win32,60,left,0.865999937,4,0,4,0,1,3,1,0,240,49,1,239,,,,,,,,,,,,,,,,,,
,,0,37,,,,,,,2,4,1,stim/41.jpeg,Instruments,1,stim/objects/Instruments/panflute2.png,0.7,1,-0.2,0.15,left,48,2021-01-11_08h35.28.753,premup-three_ses-01_part-01_label-phase1,3.2.4,Win32,60,right,1.096999884,4,0,4,0,1,3,1,0,240,124,1,239,,,,,,,,,,,,,,,,,,
,,0,38,,,,,,,1,1,2,stim/12.jpeg,HouseObjects,2,stim/objects/HouseObjects/remote.png,0.5,2,0.2,0.15,right,48,2021-01-11_08h35.28.753,premup-three_ses-01_part-01_label-phase1,3.2.4,Win32,60,left,0.833999872,4,0,4,0,1,3,1,0,240,33,1,239,,,,,,,,,,,,,,,,,,
,,1,39,,,,,,,2,4,3,stim/43.jpeg,Instruments,1,stim/objects/Instruments/record2.png,0.7,4,0.2,-0.15,left,48,2021-01-11_08h35.28.753,premup-three_ses-01_part-01_label-phase1,3.2.4,Win32,60,left,1.312999964,4,0,4,0,1,3,1,0,240,130,1,239,,,,,,,,,,,,,,,,,,
,,1,40,,,,,,,3,5,2,stim/52.jpeg,HouseObjects,2,stim/objects/HouseObjects/saw2.png,0.9,4,0.2,-0.15,right,48,2021-01-11_08h35.28.753,premup-three_ses-01_part-01_label-phase1,3.2.4,Win32,60,right,0.907999992,4,0,4,0,1,3,1,0,240,181,1,239,,,,,,,,,,,,,,,,,,
,,0,41,,,,,,,2,3,2,stim/32.jpeg,HouseObjects,2,stim/objects/HouseObjects/teapot.png,0.7,4,0.2,-0.15,right,48,2021-01-11_08h35.28.753,premup-three_ses-01_part-01_label-phase1,3.2.4,Win32,60,left,1.097999811,4,0,4,0,1,3,1,0,240,97,1,239,,,,,,,,,,,,,,,,,,
,,0,42,,,,,,,2,4,4,stim/44.jpeg,HouseObjects,2,stim/objects/HouseObjects/rug2.png,0.3,2,0.2,0.15,right,48,2021-01-11_08h35.28.753,premup-three_ses-01_part-01_label-phase1,3.2.4,Win32,60,left,1.427000046,4,0,4,0,1,3,1,0,240,155,1,239,,,,,,,,,,,,,,,,,,
,,0,43,,,,,,,2,4,3,stim/43.jpeg,HouseObjects,2,stim/objects/HouseObjects/rubbergloves2.png,0.3,4,0.2,-0.15,right,48,2021-01-11_08h35.28.753,premup-three_ses-01_part-01_label-phase1,3.2.4,Win32,60,left,1.453000069,4,0,4,0,1,3,1,0,240,158,1,239,,,,,,,,,,,,,,,,,,
,,0,44,,,,,,,1,2,4,stim/24.jpeg,HouseObjects,2,stim/objects/HouseObjects/sponge.png,0.5,2,0.2,0.15,right,48,2021-01-11_08h35.28.753,premup-three_ses-01_part-01_label-phase1,3.2.4,Win32,60,left,1.536000013,4,0,4,0,1,3,1,0,240,79,1,239,,,,,,,,,,,,,,,,,,
,,1,45,,,,,,,3,5,1,stim/51.jpeg,HouseObjects,2,stim/objects/HouseObjects/safetypin2.png,0.9,4,0.2,-0.15,right,48,2021-01-11_08h35.28.753,premup-three_ses-01_part-01_label-phase1,3.2.4,Win32,60,right,1.154000044,4,0,4,0,1,3,1,0,240,188,1,239,,,,,,,,,,,,,,,,,,
,,0,46,,,,,,,1,2,1,stim/21.jpeg,HouseObjects,2,stim/objects/HouseObjects/safetypin.png,0.5,4,0.2,-0.15,right,48,2021-01-11_08h35.28.753,premup-three_ses-01_part-01_label-phase1,3.2.4,Win32,60,left,0.896999836,4,0,4,0,1,3,1,0,240,64,1,239,,,,,,,,,,,,,,,,,,
,,1,47,,,,,,,2,3,3,stim/33.jpeg,Instruments,1,stim/objects/Instruments/trumpet.png,0.3,4,0.2,-0.15,left,48,2021-01-11_08h35.28.753,premup-three_ses-01_part-01_label-phase1,3.2.4,Win32,60,left,1.538999796,4,0,4,0,1,3,1,0,240,90,1,239,,,,,,,,,,,,,,,,,,
,,1,48,,,,,,,2,3,2,stim/32.jpeg,Instruments,1,stim/objects/Instruments/trombone.png,0.3,2,0.2,0.15,left,48,2021-01-11_08h35.28.753,premup-three_ses-01_part-01_label-phase1,3.2.4,Win32,60,left,1.348999977,4,0,4,0,1,3,1,0,240,81,1,239,,,,,,,,,,,,,,,,,,
,,0,49,,,,,,,2,3,4,stim/34.jpeg,HouseObjects,2,stim/objects/HouseObjects/thread.png,0.7,2,0.2,0.15,right,48,2021-01-11_08h35.28.753,premup-three_ses-01_part-01_label-phase1,3.2.4,Win32,60,left,0.562999725,4,0,4,0,1,3,1,0,240,111,1,239,,,,,,,,,,,,,,,,,,
,,0,50,,,,,,,3,5,3,stim/53.jpeg,HouseObjects,2,stim/objects/HouseObjects/scale2.png,0.9,1,-0.2,0.15,right,48,2021-01-11_08h35.28.753,premup-three_ses-01_part-01_label-phase1,3.2.4,Win32,60,,,4,0,4,0,1,3,1,0,240,194,1,239,,,,,,,,,,,,,,,,,,
,,1,51,,,,,,,1,2,1,stim/21.jpeg,Instruments,1,stim/objects/Instruments/saxophone.png,0.5,4,0.2,-0.15,left,48,2021-01-11_08h35.28.753,premup-three_ses-01_part-01_label-phase1,3.2.4,Win32,60,left,0.71600008,4,0,4,0,1,3,1,0,240,56,1,239,,,,,,,,,,,,,,,,,,
,,0,52,,,,,,,2,4,4,stim/44.jpeg,Instruments,1,stim/objects/Instruments/record_player2.png,0.7,1,-0.2,0.15,left,48,2021-01-11_08h35.28.753,premup-three_ses-01_part-01_label-phase1,3.2.4,Win32,60,right,0.999999762,4,0,4,0,1,3,1,0,240,139,1,239,,,,,,,,,,,,,,,,,,
,,1,53,,,,,,,1,1,2,stim/12.jpeg,Instruments,1,stim/objects/Instruments/pipepiano.png,0.5,4,0.2,-0.15,left,48,2021-01-11_08h35.28.753,premup-three_ses-01_part-01_label-phase1,3.2.4,Win32,60,left,0.711999893,4,0,4,0,1,3,1,0,240,17,1,239,,,,,,,,,,,,,,,,,,
,,0,54,,,,,,,2,4,1,stim/41.jpeg,Instruments,1,stim/objects/Instruments/panflute2.png,0.7,2,0.2,0.15,left,48,2021-01-11_08h35.28.753,premup-three_ses-01_part-01_label-phase1,3.2.4,Win32,60,right,1.29399991,4,0,4,0,1,3,1,0,240,128,1,239,,,,,,,,,,,,,,,,,,
,,1,55,,,,,,,2,4,3,stim/43.jpeg,Instruments,1,stim/objects/Instruments/record2.png,0.7,3,-0.2,-0.15,left,48,2021-01-11_08h35.28.753,premup-three_ses-01_part-01_label-phase1,3.2.4,Win32,60,left,1.149999857,4,0,4,0,1,3,1,0,240,126,1,239,,,,,,,,,,,,,,,,,,
,,0,56,,,,,,,2,3,4,stim/34.jpeg,Instruments,1,stim/objects/Instruments/tuba.png,0.3,3,-0.2,-0.15,left,48,2021-01-11_08h35.28.753,premup-three_ses-01_part-01_label-phase1,3.2.4,Win32,60,right,1.115999937,4,0,4,0,1,3,1,0,240,83,1,239,,,,,,,,,,,,,,,,,,
,,0,57,,,,,,,1,1,2,stim/12.jpeg,Instruments,1,stim/objects/Instruments/pipepiano.png,0.5,3,-0.2,-0.15,left,48,2021-01-11_08h35.28.753,premup-three_ses-01_part-01_label-phase1,3.2.4,Win32,60,right,1.078999996,4,0,4,0,1,3,1,0,240,9,1,239,,,,,,,,,,,,,,,,,,
,,0,58,,,,,,,3,6,3,stim/63.jpeg,Instruments,1,stim/objects/Instruments/trumpet2.png,0.9,2,0.2,0.15,left,48,2021-01-11_08h35.28.753,premup-three_ses-01_part-01_label-phase1,3.2.4,Win32,60,right,1.257999897,4,0,4,0,1,3,1,0,240,214,1,239,,,,,,,,,,,,,,,,,,
,,1,59,,,,,,,3,6,1,stim/61.jpeg,Instruments,1,stim/objects/Instruments/triangle2.png,0.9,4,0.2,-0.15,left,48,2021-01-11_08h35.28.753,premup-three_ses-01_part-01_label-phase1,3.2.4,Win32,60,left,0.596999884,4,0,4,0,1,3,1,0,240,220,1,239,,,,,,,,,,,,,,,,,,
,,1,60,,,,,,,1,1,1,stim/11.jpeg,Instruments,1,stim/objects/Instruments/panflute.png,0.5,4,0.2,-0.15,left,48,2021-01-11_08h35.28.753,premup-three_ses-01_part-01_label-phase1,3.2.4,Win32,60,left,0.670999765,4,0,4,0,1,3,1,0,240,0,1,239,,,,,,,,,,,,,,,,,,
,,0,61,,,,,,,1,1,2,stim/12.jpeg,HouseObjects,2,stim/objects/HouseObjects/remote.png,0.5,1,-0.2,0.15,right,48,2021-01-11_08h35.28.753,premup-three_ses-01_part-01_label-phase1,3.2.4,Win32,60,left,0.530999899,4,0,4,0,1,3,1,0,240,29,1,239,,,,,,,,,,,,,,,,,,
,,1,62,,,,,,,3,6,2,stim/62.jpeg,Instruments,1,stim/objects/Instruments/trombone2.png,0.9,1,-0.2,0.15,left,48,2021-01-11_08h35.28.753,premup-three_ses-01_part-01_label-phase1,3.2.4,Win32,60,left,0.940000057,4,0,4,0,1,3,1,0,240,213,1,239,,,,,,,,,,,,,,,,,,
,,1,63,,,,,,,3,6,1,stim/61.jpeg,Instruments,1,stim/objects/Instruments/triangle2.png,0.9,2,0.2,0.15,left,48,2021-01-11_08h35.28.753,premup-three_ses-01_part-01_label-phase1,3.2.4,Win32,60,left,0.835999966,4,0,4,0,1,3,1,0,240,208,1,239,,,,,,,,,,,,,,,,,,
,,1,64,,,,,,,3,6,3,stim/63.jpeg,Instruments,1,stim/objects/Instruments/trumpet2.png,0.9,1,-0.2,0.15,left,48,2021-01-11_08h35.28.753,premup-three_ses-01_part-01_label-phase1,3.2.4,Win32,60,left,1.016000032,4,0,4,0,1,3,1,0,240,222,1,239,,,,,,,,,,,,,,,,,,
,,1,65,,,,,,,1,2,2,stim/22.jpeg,HouseObjects,2,stim/objects/HouseObjects/saw.png,0.5,1,-0.2,0.15,right,48,2021-01-11_08h35.28.753,premup-three_ses-01_part-01_label-phase1,3.2.4,Win32,60,right,1.131000042,4,0,4,0,1,3,1,0,240,73,1,239,,,,,,,,,,,,,,,,,,
,,1,66,,,,,,,1,1,3,stim/13.jpeg,HouseObjects,2,stim/objects/HouseObjects/rubbergloves.png,0.5,1,-0.2,0.15,right,48,2021-01-11_08h35.28.753,premup-three_ses-01_part-01_label-phase1,3.2.4,Win32,60,right,1.263999939,4,0,4,0,1,3,1,0,240,22,1,239,,,,,,,,,,,,,,,,,,
,,0,67,,,,,,,2,4,4,stim/44.jpeg,Instruments,1,stim/objects/Instruments/record_player2.png,0.7,1,-0.2,0.15,left,48,2021-01-11_08h35.28.753,premup-three_ses-01_part-01_label-phase1,3.2.4,Win32,60,right,1.103999853,4,0,4,0,1,3,1,0,240,127,1,239,,,,,,,,,,,,,,,,,,
,,1,68,,,,,,,2,4,2,stim/42.jpeg,Instruments,1,stim/objects/Instruments/pipepiano2.png,0.7,3,-0.2,-0.15,left,48,2021-01-11_08h35.28.753,premup-three_ses-01_part-01_label-phase1,3.2.4,Win32,60,left,0.860999823,4,0,4,0,1,3,1,0,240,121,1,239,,,,,,,,,,,,,,,,,,
,,1,69,,,,,,,1,1,1,stim/11.jpeg,HouseObjects,2,stim/objects/HouseObjects/recyclingbin.png,0.5,1,-0.2,0.15,right,48,2021-01-11_08h35.28.753,premup-three_ses-01_part-01_label-phase1,3.2.4,Win32,60,right,1.590000153,4,0,4,0,1,3,1,0,240,32,1,239,,,,,,,,,,,,,,,,,,
,,1,70,,,,,,,3,5,2,stim/52.jpeg,HouseObjects,2,stim/objects/HouseObjects/saw2.png,0.9,2,0.2,0.15,right,48,2021-01-11_08h35.28.753,premup-three_ses-01_part-01_label-phase1,3.2.4,Win32,60,right,1.249000072,4,0,4,0,1,3,1,0,240,197,1,239,,,,,,,,,,,,,,,,,,
,,0,71,,,,,,,1,2,1,stim/21.jpeg,HouseObjects,2,stim/objects/HouseObjects/safetypin.png,0.5,3,-0.2,-0.15,right,48,2021-01-11_08h35.28.753,premup-three_ses-01_part-01_label-phase1,3.2.4,Win32,60,left,1.214999914,4,0,4,0,1,3,1,0,240,68,1,239,,,,,,,,,,,,,,,,,,
,,1,72,,,,,,,1,2,3,stim/23.jpeg,Instruments,1,stim/objects/Instruments/tambourine.png,0.5,4,0.2,-0.15,left,48,2021-01-11_08h35.28.753,premup-three_ses-01_part-01_label-phase1,3.2.4,Win32,60,left,1.198999882,4,0,4,0,1,3,1,0,240,50,1,239,,,,,,,,,,,,,,,,,,
,,1,73,,,,,,,1,1,2,stim/12.jpeg,HouseObjects,2,stim/objects/HouseObjects/remote.png,0.5,2,0.2,0.15,right,48,2021-01-11_08h35.28.753,premup-three_ses-01_part-01_label-phase1,3.2.4,Win32,60,right,0.966999769,4,0,4,0,1,3,1,0,240,21,1,239,,,,,,,,,,,,,,,,,,
,,0,74,,,,,,,1,2,1,stim/21.jpeg,HouseObjects,2,stim/objects/HouseObjects/safetypin.png,0.5,3,-0.2,-0.15,right,48,2021-01-11_08h35.28.753,premup-three_ses-01_part-01_label-phase1,3.2.4,Win32,60,left,1.036000013,4,0,4,0,1,3,1,0,240,60,1,239,,,,,,,,,,,,,,,,,,
,,0,75,,,,,,,1,2,1,stim/21.jpeg,Instruments,1,stim/objects/Instruments/saxophone.png,0.5,2,0.2,0.15,left,48,2021-01-11_08h35.28.753,premup-three_ses-01_part-01_label-phase1,3.2.4,Win32,60,right,0.895999908,4,0,4,0,1,3,1,0,240,40,1,239,,,,,,,,,,,,,,,,,,
,,1,76,,,,,,,3,5,3,stim/53.jpeg,HouseObjects,2,stim/objects/HouseObjects/scale2.png,0.9,2,0.2,0.15,right,48,2021-01-11_08h35.28.753,premup-three_ses-01_part-01_label-phase1,3.2.4,Win32,60,right,0.807999849,4,0,4,0,1,3,1,0,240,174,1,239,,,,,,,,,,,,,,,,,,
,,1,77,,,,,,,1,1,4,stim/14.jpeg,Instruments,1,stim/objects/Instruments/record_player.png,0.5,4,0.2,-0.15,left,48,2021-01-11_08h35.28.753,premup-three_ses-01_part-01_label-phase1,3.2.4,Win32,60,left,0.796000004,4,0,4,0,1,3,1,0,240,11,1,239,,,,,,,,,,,,,,,,,,
,,0,78,,,,,,,1,1,2,stim/12.jpeg,Instruments,1,stim/objects/Instruments/pipepiano.png,0.5,4,0.2,-0.15,left,48,2021-01-11_08h35.28.753,premup-three_ses-01_part-01_label-phase1,3.2.4,Win32,60,right,0.966999769,4,0,4,0,1,3,1,0,240,1,1,239,,,,,,,,,,,,,,,,,,
,,0,79,,,,,,,3,6,2,stim/62.jpeg,HouseObjects,2,stim/objects/HouseObjects/teapot2.png,0.1,1,-0.2,0.15,right,48,2021-01-11_08h35.28.753,premup-three_ses-01_part-01_label-phase1,3.2.4,Win32,60,left,1.049999952,4,0,4,0,1,3,1,0,240,237,1,239,,,,,,,,,,,,,,,,,,
,,0,80,,,,,,,3,6,4,stim/64.jpeg,Instruments,1,stim/objects/Instruments/tuba2.png,0.9,1,-0.2,0.15,left,48,2021-01-11_08h35.28.753,premup-three_ses-01_part-01_label-phase1,3.2.4,Win32,60,right,1.038999796,4,0,4,0,1,3,1,0,240,235,1,239,,,,,,,,,,,,,,,,,,
,,0,81,,,,,,,2,3,3,stim/33.jpeg,HouseObjects,2,stim/objects/HouseObjects/thermometer.png,0.7,4,0.2,-0.15,right,48,2021-01-11_08h35.28.753,premup-three_ses-01_part-01_label-phase1,3.2.4,Win32,60,left,1.105999947,4,0,4,0,1,3,1,0,240,102,1,239,,,,,,,,,,,,,,,,,,
,,1,82,,,,,,,1,1,2,stim/12.jpeg,Instruments,1,stim/objects/Instruments/pipepiano.png,0.5,2,0.2,0.15,left,48,2021-01-11_08h35.28.753,premup-three_ses-01_part-01_label-phase1,3.2.4,Win32,60,left,0.638999939,4,0,4,0,1,3,1,0,240,5,1,239,,,,,,,,,,,,,,,,,,
,,0,83,,,,,,,1,1,4,stim/14.jpeg,HouseObjects,2,stim/objects/HouseObjects/rug.png,0.5,1,-0.2,0.15,right,48,2021-01-11_08h35.28.753,premup-three_ses-01_part-01_label-phase1,3.2.4,Win32,60,left,0.853999853,4,0,4,0,1,3,1,0,240,31,1,239,,,,,,,,,,,,,,,,,,
,,0,84,,,,,,,3,5,3,stim/53.jpeg,HouseObjects,2,stim/objects/HouseObjects/scale2.png,0.9,1,-0.2,0.15,right,48,2021-01-11_08h35.28.753,premup-three_ses-01_part-01_label-phase1,3.2.4,Win32,60,left,1.06799984,4,0,4,0,1,3,1,0,240,178,1,239,,,,,,,,,,,,,,,,,,
,,0,85,,,,,,,3,6,3,stim/63.jpeg,Instruments,1,stim/objects/Instruments/trumpet2.png,0.9,2,0.2,0.15,left,48,2021-01-11_08h35.28.753,premup-three_ses-01_part-01_label-phase1,3.2.4,Win32,60,right,1.172999859,4,0,4,0,1,3,1,0,240,226,1,239,,,,,,,,,,,,,,,,,,
,,0,86,,,,,,,1,2,4,stim/24.jpeg,Instruments,1,stim/objects/Instruments/timbal.png,0.5,3,-0.2,-0.15,left,48,2021-01-11_08h35.28.753,premup-three_ses-01_part-01_label-phase1,3.2.4,Win32,60,right,1.164999723,4,0,4,0,1,3,1,0,240,43,1,239,,,,,,,,,,,,,,,,,,
,,1,87,,,,,,,2,3,2,stim/32.jpeg,HouseObjects,2,stim/objects/HouseObjects/teapot.png,0.7,1,-0.2,0.15,right,48,2021-01-11_08h35.28.753,premup-three_ses-01_part-01_label-phase1,3.2.4,Win32,60,right,0.971999884,4,0,4,0,1,3,1,0,240,117,1,239,,,,,,,,,,,,,,,,,,
,,1,88,,,,,,,1,1,2,stim/12.jpeg,Instruments,1,stim/objects/Instruments/pipepiano.png,0.5,1,-0.2,0.15,left,48,2021-01-11_08h35.28.753,premup-three_ses-01_part-01_label-phase1,3.2.4,Win32,60,left,0.930999994,4,0,4,0,1,3,1,0,240,13,1,239,,,,,,,,,,,,,,,,,,
,,0,89,,,,,,,2,4,4,stim/44.jpeg,HouseObjects,2,stim/objects/HouseObjects/rug2.png,0.3,1,-0.2,0.15,right,48,2021-01-11_08h35.28.753,premup-three_ses-01_part-01_label-phase1,3.2.4,Win32,60,left,0.930000067,4,0,4,0,1,3,1,0,240,159,1,239,,,,,,,,,,,,,,,,,,
,,0,90,,,,,,,2,4,4,stim/44.jpeg,HouseObjects,2,stim/objects/HouseObjects/rug2.png,0.3,4,0.2,-0.15,right,48,2021-01-11_08h35.28.753,premup-three_ses-01_part-01_label-phase1,3.2.4,Win32,60,left,1.114000082,4,0,4,0,1,3,1,0,240,151,1,239,,,,,,,,,,,,,,,,,,
,,0,91,,,,,,,1,1,4,stim/14.jpeg,HouseObjects,2,stim/objects/HouseObjects/rug.png,0.5,1,-0.2,0.15,right,48,2021-01-11_08h35.28.753,premup-three_ses-01_part-01_label-phase1,3.2.4,Win32,60,left,1.645999908,4,0,4,0,1,3,1,0,240,39,1,239,,,,,,,,,,,,,,,,,,
,,1,92,,,,,,,1,2,2,stim/22.jpeg,HouseObjects,2,stim/objects/HouseObjects/saw.png,0.5,3,-0.2,-0.15,right,48,2021-01-11_08h35.28.753,premup-three_ses-01_part-01_label-phase1,3.2.4,Win32,60,right,0.743000031,4,0,4,0,1,3,1,0,240,77,1,239,,,,,,,,,,,,,,,,,,
,,1,93,,,,,,,3,6,4,stim/64.jpeg,Instruments,1,stim/objects/Instruments/tuba2.png,0.9,4,0.2,-0.15,left,48,2021-01-11_08h35.28.753,premup-three_ses-01_part-01_label-phase1,3.2.4,Win32,60,left,1.279999733,4,0,4,0,1,3,1,0,240,207,1,239,,,,,,,,,,,,,,,,,,
,,1,94,,,,,,,1,1,3,stim/13.jpeg,Instruments,1,stim/objects/Instruments/record.png,0.5,1,-0.2,0.15,left,48,2021-01-11_08h35.28.753,premup-three_ses-01_part-01_label-phase1,3.2.4,Win32,60,left,1.217000008,4,0,4,0,1,3,1,0,240,18,1,239,,,,,,,,,,,,,,,,,,
,,0,95,,,,,,,2,4,3,stim/43.jpeg,HouseObjects,2,stim/objects/HouseObjects/rubbergloves2.png,0.3,3,-0.2,-0.15,right,48,2021-01-11_08h35.28.753,premup-three_ses-01_part-01_label-phase1,3.2.4,Win32,60,left,1.401000023,4,0,4,0,1,3,1,0,240,150,1,239,,,,,,,,,,,,,,,,,,
,,0,96,,,,,,,3,6,1,stim/61.jpeg,Instruments,1,stim/objects/Instruments/triangle2.png,0.9,4,0.2,-0.15,left,48,2021-01-11_08h35.28.753,premup-three_ses-01_part-01_label-phase1,3.2.4,Win32,60,right,1.34100008,4,0,4,0,1,3,1,0,240,228,1,239,,,,,,,,,,,,,,,,,,
,,1,97,,,,,,,2,4,2,stim/42.jpeg,Instruments,1,stim/objects/Instruments/pipepiano2.png,0.7,2,0.2,0.15,left,48,2021-01-11_08h35.28.753,premup-three_ses-01_part-01_label-phase1,3.2.4,Win32,60,left,1.213999987,4,0,4,0,1,3,1,0,240,137,1,239,,,,,,,,,,,,,,,,,,
,,0,98,,,,,,,3,5,4,stim/54.jpeg,HouseObjects,2,stim/objects/HouseObjects/sponge2.png,0.9,2,0.2,0.15,right,48,2021-01-11_08h35.28.753,premup-three_ses-01_part-01_label-phase1,3.2.4,Win32,60,left,1.332000017,4,0,4,0,1,3,1,0,240,195,1,239,,,,,,,,,,,,,,,,,,
,,0,99,,,,,,,2,3,1,stim/31.jpeg,HouseObjects,2,stim/objects/HouseObjects/spraybottle.png,0.7,1,-0.2,0.15,right,48,2021-01-11_08h35.28.753,premup-three_ses-01_part-01_label-phase1,3.2.4,Win32,60,left,0.869999886,4,0,4,0,1,3,1,0,240,104,1,239,,,,,,,,,,,,,,,,,,
,,0,100,,,,,,,3,6,3,stim/63.jpeg,Instruments,1,stim/objects/Instruments/trumpet2.png,0.9,3,-0.2,-0.15,left,48,2021-01-11_08h35.28.753,premup-three_ses-01_part-01_label-phase1,3.2.4,Win32,60,right,1.249999762,4,0,4,0,1,3,1,0,240,210,1,239,,,,,,,,,,,,,,,,,,
,,0,101,,,,,,,2,4,1,stim/41.jpeg,Instruments,1,stim/objects/Instruments/panflute2.png,0.7,3,-0.2,-0.15,left,48,2021-01-11_08h35.28.753,premup-three_ses-01_part-01_label-phase1,3.2.4,Win32,60,right,1.584000111,4,0,4,0,1,3,1,0,240,136,1,239,,,,,,,,,,,,,,,,,,
,,1,102,,,,,,,2,4,2,stim/42.jpeg,HouseObjects,2,stim/objects/HouseObjects/remote2.png,0.3,3,-0.2,-0.15,right,48,2021-01-11_08h35.28.753,premup-three_ses-01_part-01_label-phase1,3.2.4,Win32,60,right,1.144999743,4,0,4,0,1,3,1,0,240,149,1,239,,,,,,,,,,,,,,,,,,
,,1,103,,,,,,,2,4,1,stim/41.jpeg,Instruments,1,stim/objects/Instruments/panflute2.png,0.7,1,-0.2,0.15,left,48,2021-01-11_08h35.28.753,premup-three_ses-01_part-01_label-phase1,3.2.4,Win32,60,left,0.969000101,4,0,4,0,1,3,1,0,240,144,1,239,,,,,,,,,,,,,,,,,,
,,0,104,,,,,,,2,4,1,stim/41.jpeg,HouseObjects,2,stim/objects/HouseObjects/recyclingbin2.png,0.3,3,-0.2,-0.15,right,48,2021-01-11_08h35.28.753,premup-three_ses-01_part-01_label-phase1,3.2.4,Win32,60,left,0.578999758,4,0,4,0,1,3,1,0,240,152,1,239,,,,,,,,,,,,,,,,,,
,,1,105,,,,,,,1,1,1,stim/11.jpeg,HouseObjects,2,stim/objects/HouseObjects/recyclingbin.png,0.5,2,0.2,0.15,right,48,2021-01-11_08h35.28.753,premup-three_ses-01_part-01_label-phase1,3.2.4,Win32,60,right,1.05099988,4,0,4,0,1,3,1,0,240,24,1,239,,,,,,,,,,,,,,,,,,
,,1,106,,,,,,,1,2,4,stim/24.jpeg,Instruments,1,stim/objects/Instruments/timbal.png,0.5,1,-0.2,0.15,left,48,2021-01-11_08h35.28.753,premup-three_ses-01_part-01_label-phase1,3.2.4,Win32,60,left,1.227999926,4,0,4,0,1,3,1,0,240,59,1,239,,,,,,,,,,,,,,,,,,
,,1,107,,,,,,,1,2,2,stim/22.jpeg,Instruments,1,stim/objects/Instruments/speaker.png,0.5,4,0.2,-0.15,left,48,2021-01-11_08h35.28.753,premup-three_ses-01_part-01_label-phase1,3.2.4,Win32,60,left,1.315000057,4,0,4,0,1,3,1,0,240,41,1,239,,,,,,,,,,,,,,,,,,
,,1,108,,,,,,,3,5,1,stim/51.jpeg,HouseObjects,2,stim/objects/HouseObjects/safetypin2.png,0.9,4,0.2,-0.15,right,48,2021-01-11_08h35.28.753,premup-three_ses-01_part-01_label-phase1,3.2.4,Win32,60,right,1.496999979,4,0,4,0,1,3,1,0,240,184,1,239,,,,,,,,,,,,,,,,,,
,,1,109,,,,,,,2,4,2,stim/42.jpeg,Instruments,1,stim/objects/Instruments/pipepiano2.png,0.7,3,-0.2,-0.15,left,48,2021-01-11_08h35.28.753,premup-three_ses-01_part-01_label-phase1,3.2.4,Win32,60,left,1.138000011,4,0,4,0,1,3,1,0,240,141,1,239,,,,,,,,,,,,,,,,,,
,,1,110,,,,,,,1,1,1,stim/11.jpeg,HouseObjects,2,stim/objects/HouseObjects/recyclingbin.png,0.5,3,-0.2,-0.15,right,48,2021-01-11_08h35.28.753,premup-three_ses-01_part-01_label-phase1,3.2.4,Win32,60,right,1.247999907,4,0,4,0,1,3,1,0,240,20,1,239,,,,,,,,,,,,,,,,,,
,,1,111,,,,,,,1,1,3,stim/13.jpeg,Instruments,1,stim/objects/Instruments/record.png,0.5,3,-0.2,-0.15,left,48,2021-01-11_08h35.28.753,premup-three_ses-01_part-01_label-phase1,3.2.4,Win32,60,left,0.909999847,4,0,4,0,1,3,1,0,240,2,1,239,,,,,,,,,,,,,,,,,,
,,1,112,,,,,,,3,6,4,stim/64.jpeg,Instruments,1,stim/objects/Instruments/tuba2.png,0.9,3,-0.2,-0.15,left,48,2021-01-11_08h35.28.753,premup-three_ses-01_part-01_label-phase1,3.2.4,Win32,60,left,1.53399992,4,0,4,0,1,3,1,0,240,227,1,239,,,,,,,,,,,,,,,,,,
,,0,113,,,,,,,1,1,3,stim/13.jpeg,HouseObjects,2,stim/objects/HouseObjects/rubbergloves.png,0.5,4,0.2,-0.15,right,48,2021-01-11_08h35.28.753,premup-three_ses-01_part-01_label-phase1,3.2.4,Win32,60,left,1.067000151,4,0,4,0,1,3,1,0,240,26,1,239,,,,,,,,,,,,,,,,,,
,,1,114,,,,,,,1,1,4,stim/14.jpeg,Instruments,1,stim/objects/Instruments/record_player.png,0.5,4,0.2,-0.15,left,48,2021-01-11_08h35.28.753,premup-three_ses-01_part-01_label-phase1,3.2.4,Win32,60,left,0.967999935,4,0,4,0,1,3,1,0,240,7,1,239,,,,,,,,,,,,,,,,,,
,,1,115,,,,,,,2,3,1,stim/31.jpeg,Instruments,1,stim/objects/Instruments/triangle.png,0.3,2,0.2,0.15,left,48,2021-01-11_08h35.28.753,premup-three_ses-01_part-01_label-phase1,3.2.4,Win32,60,left,1.019999981,4,0,4,0,1,3,1,0,240,80,1,239,,,,,,,,,,,,,,,,,,
,,1,116,,,,,,,3,5,1,stim/51.jpeg,HouseObjects,2,stim/objects/HouseObjects/safetypin2.png,0.9,3,-0.2,-0.15,right,48,2021-01-11_08h35.28.753,premup-three_ses-01_part-01_label-phase1,3.2.4,Win32,60,right,1.018999815,4,0,4,0,1,3,1,0,240,172,1,239,,,,,,,,,,,,,,,,,,
,,1,117,,,,,,,3,5,4,stim/54.jpeg,HouseObjects,2,stim/objects/HouseObjects/sponge2.png,0.9,1,-0.2,0.15,right,48,2021-01-11_08h35.28.753,premup-three_ses-01_part-01_label-phase1,3.2.4,Win32,60,right,0.879999876,4,0,4,0,1,3,1,0,240,187,1,239,,,,,,,,,,,,,,,,,,
,,0,118,,,,,,,1,2,4,stim/24.jpeg,Instruments,1,stim/objects/Instruments/timbal.png,0.5,2,0.2,0.15,left,48,2021-01-11_08h35.28.753,premup-three_ses-01_part-01_label-phase1,3.2.4,Win32,60,right,1.340999842,4,0,4,0,1,3,1,0,240,55,1,239,,,,,,,,,,,,,,,,,,
,,0,119,,,,,,,3,5,2,stim/52.jpeg,Instruments,1,stim/objects/Instruments/speaker2.png,0.1,3,-0.2,-0.15,left,48,2021-01-11_08h35.28.753,premup-three_ses-01_part-01_label-phase1,3.2.4,Win32,60,right,0.96600008,4,0,4,0,1,3,1,0,240,161,1,239,,,,,,,,,,,,,,,,,,
,,1,120,,,,,,,2,3,2,stim/32.jpeg,Instruments,1,stim/objects/Instruments/trombone.png,0.3,3,-0.2,-0.15,left,48,2021-01-11_08h35.28.753,premup-three_ses-01_part-01_label-phase1,3.2.4,Win32,60,left,1.150999784,4,0,4,0,1,3,1,0,240,89,1,239,,,,,,,,,,,,,,,,,,
,,1,121,,,,,,,3,6,1,stim/61.jpeg,Instruments,1,stim/objects/Instruments/triangle2.png,0.9,4,0.2,-0.15,left,48,2021-01-11_08h35.28.753,premup-three_ses-01_part-01_label-phase1,3.2.4,Win32,60,left,1.069999933,4,0,4,0,1,3,1,0,240,224,1,239,,,,,,,,,,,,,,,,,,
,,1,122,,,,,,,1,2,4,stim/24.jpeg,Instruments,1,stim/objects/Instruments/timbal.png,0.5,3,-0.2,-0.15,left,48,2021-01-11_08h35.28.753,premup-three_ses-01_part-01_label-phase1,3.2.4,Win32,60,left,1.113999844,4,0,4,0,1,3,1,0,240,47,1,239,,,,,,,,,,,,,,,,,,
,,0,123,,,,,,,3,6,3,stim/63.jpeg,HouseObjects,2,stim/objects/HouseObjects/thermometer2.png,0.1,4,0.2,-0.15,right,48,2021-01-11_08h35.28.753,premup-three_ses-01_part-01_label-phase1,3.2.4,Win32,60,left,1.080999851,4,0,4,0,1,3,1,0,240,238,1,239,,,,,,,,,,,,,,,,,,
,,1,124,,,,,,,3,6,2,stim/62.jpeg,Instruments,1,stim/objects/Instruments/trombone2.png,0.9,4,0.2,-0.15,left,48,2021-01-11_08h35.28.753,premup-three_ses-01_part-01_label-phase1,3.2.4,Win32,60,left,0.825999975,4,0,4,0,1,3,1,0,240,229,1,239,,,,,,,,,,,,,,,,,,
,,0,125,,,,,,,2,3,3,stim/33.jpeg,HouseObjects,2,stim/objects/HouseObjects/thermometer.png,0.7,1,-0.2,0.15,right,48,2021-01-11_08h35.28.753,premup-three_ses-01_part-01_label-phase1,3.2.4,Win32,60,left,1.328999758,4,0,4,0,1,3,1,0,240,106,1,239,,,,,,,,,,,,,,,,,,
,,1,126,,,,,,,3,6,3,stim/63.jpeg,Instruments,1,stim/objects/Instruments/trumpet2.png,0.9,3,-0.2,-0.15,left,48,2021-01-11_08h35.28.753,premup-three_ses-01_part-01_label-phase1,3.2.4,Win32,60,left,0.71600008,4,0,4,0,1,3,1,0,240,206,1,239,,,,,,,,,,,,,,,,,,
,,0,127,,,,,,,1,1,4,stim/14.jpeg,HouseObjects,2,stim/objects/HouseObjects/rug.png,0.5,2,0.2,0.15,right,48,2021-01-11_08h35.28.753,premup-three_ses-01_part-01_label-phase1,3.2.4,Win32,60,left,0.957999945,4,0,4,0,1,3,1,0,240,23,1,239,,,,,,,,,,,,,,,,,,
,,1,128,,,,,,,3,5,2,stim/52.jpeg,HouseObjects,2,stim/objects/HouseObjects/saw2.png,0.9,4,0.2,-0.15,right,48,2021-01-11_08h35.28.753,premup-three_ses-01_part-01_label-phase1,3.2.4,Win32,60,right,0.874000072,4,0,4,0,1,3,1,0,240,169,1,239,,,,,,,,,,,,,,,,,,
,,1,129,,,,,,,3,5,3,stim/53.jpeg,HouseObjects,2,stim/objects/HouseObjects/scale2.png,0.9,2,0.2,0.15,right,48,2021-01-11_08h35.28.753,premup-three_ses-01_part-01_label-phase1,3.2.4,Win32,60,right,0.694999933,4,0,4,0,1,3,1,0,240,186,1,239,,,,,,,,,,,,,,,,,,
,,0,130,,,,,,,3,6,4,stim/64.jpeg,HouseObjects,2,stim/objects/HouseObjects/thread2.png,0.1,4,0.2,-0.15,right,48,2021-01-11_08h35.28.753,premup-three_ses-01_part-01_label-phase1,3.2.4,Win32,60,left,0.840000153,4,0,4,0,1,3,1,0,240,239,1,239,,,,,,,,,,,,,,,,,,
,,1,131,,,,,,,3,5,1,stim/51.jpeg,HouseObjects,2,stim/objects/HouseObjects/safetypin2.png,0.9,4,0.2,-0.15,right,48,2021-01-11_08h35.28.753,premup-three_ses-01_part-01_label-phase1,3.2.4,Win32,60,right,0.679999828,4,0,4,0,1,3,1,0,240,180,1,239,,,,,,,,,,,,,,,,,,
,,1,132,,,,,,,2,4,1,stim/41.jpeg,Instruments,1,stim/objects/Instruments/panflute2.png,0.7,2,0.2,0.15,left,48,2021-01-11_08h35.28.753,premup-three_ses-01_part-01_label-phase1,3.2.4,Win32,60,left,0.887999773,4,0,4,0,1,3,1,0,240,140,1,239,,,,,,,,,,,,,,,,,,
,,0,133,,,,,,,2,3,1,stim/31.jpeg,HouseObjects,2,stim/objects/HouseObjects/spraybottle.png,0.7,2,0.2,0.15,right,48,2021-01-11_08h35.28.753,premup-three_ses-01_part-01_label-phase1,3.2.4,Win32,60,left,0.803999901,4,0,4,0,1,3,1,0,240,108,1,239,,,,,,,,,,,,,,,,,,
,,1,134,,,,,,,3,5,3,stim/53.jpeg,HouseObjects,2,stim/objects/HouseObjects/scale2.png,0.9,2,0.2,0.15,right,48,2021-01-11_08h35.28.753,premup-three_ses-01_part-01_label-phase1,3.2.4,Win32,60,right,0.703000069,4,0,4,0,1,3,1,0,240,166,1,239,,,,,,,,,,,,,,,,,,
,,1,135,,,,,,,1,2,3,stim/23.jpeg,Instruments,1,stim/objects/Instruments/tambourine.png,0.5,4,0.2,-0.15,left,48,2021-01-11_08h35.28.753,premup-three_ses-01_part-01_label-phase1,3.2.4,Win32,60,left,0.779999971,4,0,4,0,1,3,1,0,240,54,1,239,,,,,,,,,,,,,,,,,,
,,1,136,,,,,,,1,2,2,stim/22.jpeg,Instruments,1,stim/objects/Instruments/speaker.png,0.5,1,-0.2,0.15,left,48,2021-01-11_08h35.28.753,premup-three_ses-01_part-01_label-phase1,3.2.4,Win32,60,left,0.964999914,4,0,4,0,1,3,1,0,240,57,1,239,,,,,,,,,,,,,,,,,,
,,0,137,,,,,,,2,3,4,stim/34.jpeg,HouseObjects,2,stim/objects/HouseObjects/thread.png,0.7,4,0.2,-0.15,right,48,2021-01-11_08h35.28.753,premup-three_ses-01_part-01_label-phase1,3.2.4,Win32,60,left,0.802000046,4,0,4,0,1,3,1,0,240,95,1,239,,,,,,,,,,,,,,,,,,
,,0,138,,,,,,,1,1,1,stim/11.jpeg,HouseObjects,2,stim/objects/HouseObjects/recyclingbin.png,0.5,2,0.2,0.15,right,48,2021-01-11_08h35.28.753,premup-three_ses-01_part-01_label-phase1,3.2.4,Win32,60,left,0.79399991,4,0,4,0,1,3,1,0,240,36,1,239,,,,,,,,,,,,,,,,,,
,,0,139,,,,,,,1,2,3,stim/23.jpeg,HouseObjects,2,stim/objects/HouseObjects/scale.png,0.5,4,0.2,-0.15,right,48,2021-01-11_08h35.28.753,premup-three_ses-01_part-01_label-phase1,3.2.4,Win32,60,,,4,0,4,0,1,3,1,0,240,66,1,239,,,,,,,,,,,,,,,,,,
,,1,140,,,,,,,3,6,2,stim/62.jpeg,Instruments,1,stim/objects/Instruments/trombone2.png,0.9,4,0.2,-0.15,left,48,2021-01-11_08h35.28.753,premup-three_ses-01_part-01_label-phase1,3.2.4,Win32,60,left,0.562000036,4,0,4,0,1,3,1,0,240,225,1,239,,,,,,,,,,,,,,,,,,
,,1,141,,,,,,,3,6,1,stim/61.jpeg,Instruments,1,stim/objects/Instruments/triangle2.png,0.9,3,-0.2,-0.15,left,48,2021-01-11_08h35.28.753,premup-three_ses-01_part-01_label-phase1,3.2.4,Win32,60,left,0.578999996,4,0,4,0,1,3,1,0,240,212,1,239,,,,,,,,,,,,,,,,,,
,,1,142,,,,,,,1,2,1,stim/21.jpeg,Instruments,1,stim/objects/Instruments/saxophone.png,0.5,4,0.2,-0.15,left,48,2021-01-11_08h35.28.753,premup-three_ses-01_part-01_label-phase1,3.2.4,Win32,60,left,0.767999887,4,0,4,0,1,3,1,0,240,52,1,239,,,,,,,,,,,,,,,,,,
,,0,143,,,,,,,3,6,4,stim/64.jpeg,Instruments,1,stim/objects/Instruments/tuba2.png,0.9,3,-0.2,-0.15,left,48,2021-01-11_08h35.28.753,premup-three_ses-01_part-01_label-phase1,3.2.4,Win32,60,right,1.769999981,4,0,4,0,1,3,1,0,240,203,1,239,,,,,,,,,,,,,,,,,,
,,0,144,,,,,,,2,4,2,stim/42.jpeg,HouseObjects,2,stim/objects/HouseObjects/remote2.png,0.3,2,0.2,0.15,right,48,2021-01-11_08h35.28.753,premup-three_ses-01_part-01_label-phase1,3.2.4,Win32,60,left,0.870999813,4,0,4,0,1,3,1,0,240,157,1,239,,,,,,,,,,,,,,,,,,
,,1,145,,,,,,,3,5,2,stim/52.jpeg,HouseObjects,2,stim/objects/HouseObjects/saw2.png,0.9,2,0.2,0.15,right,48,2021-01-11_08h35.28.753,premup-three_ses-01_part-01_label-phase1,3.2.4,Win32,60,right,0.549999952,4,0,4,0,1,3,1,0,240,185,1,239,,,,,,,,,,,,,,,,,,
,,0,146,,,,,,,2,4,2,stim/42.jpeg,Instruments,1,stim/objects/Instruments/pipepiano2.png,0.7,1,-0.2,0.15,left,48,2021-01-11_08h35.28.753,premup-three_ses-01_part-01_label-phase1,3.2.4,Win32,60,right,0.569000006,4,0,4,0,1,3,1,0,240,129,1,239,,,,,,,,,,,,,,,,,,
,,0,147,,,,,,,1,2,4,stim/24.jpeg,HouseObjects,2,stim/objects/HouseObjects/sponge.png,0.5,1,-0.2,0.15,right,48,2021-01-11_08h35.28.753,premup-three_ses-01_part-01_label-phase1,3.2.4,Win32,60,left,1.286999941,4,0,4,0,1,3,1,0,240,75,1,239,,,,,,,,,,,,,,,,,,
,,1,148,,,,,,,3,6,2,stim/62.jpeg,Instruments,1,stim/objects/Instruments/trombone2.png,0.9,1,-0.2,0.15,left,48,2021-01-11_08h35.28.753,premup-three_ses-01_part-01_label-phase1,3.2.4,Win32,60,left,0.90899992,4,0,4,0,1,3,1,0,240,205,1,239,,,,,,,,,,,,,,,,,,
,,1,149,,,,,,,3,6,1,stim/61.jpeg,Instruments,1,stim/objects/Instruments/triangle2.png,0.9,3,-0.2,-0.15,left,48,2021-01-11_08h35.28.753,premup-three_ses-01_part-01_label-phase1,3.2.4,Win32,60,left,1.113999844,4,0,4,0,1,3,1,0,240,204,1,239,,,,,,,,,,,,,,,,,,
,,1,150,,,,,,,1,2,3,stim/23.jpeg,HouseObjects,2,stim/objects/HouseObjects/scale.png,0.5,2,0.2,0.15,right,48,2021-01-11_08h35.28.753,premup-three_ses-01_part-01_label-phase1,3.2.4,Win32,60,right,1.383999825,4,0,4,0,1,3,1,0,240,74,1,239,,,,,,,,,,,,,,,,,,
,,0,151,,,,,,,3,5,4,stim/54.jpeg,HouseObjects,2,stim/objects/HouseObjects/sponge2.png,0.9,3,-0.2,-0.15,right,48,2021-01-11_08h35.28.753,premup-three_ses-01_part-01_label-phase1,3.2.4,Win32,60,,,4,0,4,0,1,3,1,0,240,175,1,239,,,,,,,,,,,,,,,,,,
,,0,152,,,,,,,2,4,4,stim/44.jpeg,Instruments,1,stim/objects/Instruments/record_player2.png,0.7,1,-0.2,0.15,left,48,2021-01-11_08h35.28.753,premup-three_ses-01_part-01_label-phase1,3.2.4,Win32,60,right,0.76699996,4,0,4,0,1,3,1,0,240,143,1,239,,,,,,,,,,,,,,,,,,
,,0,153,,,,,,,2,3,2,stim/32.jpeg,HouseObjects,2,stim/objects/HouseObjects/teapot.png,0.7,3,-0.2,-0.15,right,48,2021-01-11_08h35.28.753,premup-three_ses-01_part-01_label-phase1,3.2.4,Win32,60,left,0.912999868,4,0,4,0,1,3,1,0,240,101,1,239,,,,,,,,,,,,,,,,,,
,,1,154,,,,,,,3,5,4,stim/54.jpeg,HouseObjects,2,stim/objects/HouseObjects/sponge2.png,0.9,4,0.2,-0.15,right,48,2021-01-11_08h35.28.753,premup-three_ses-01_part-01_label-phase1,3.2.4,Win32,60,right,0.920999765,4,0,4,0,1,3,1,0,240,171,1,239,,,,,,,,,,,,,,,,,,
,,1,155,,,,,,,3,5,2,stim/52.jpeg,HouseObjects,2,stim/objects/HouseObjects/saw2.png,0.9,1,-0.2,0.15,right,48,2021-01-11_08h35.28.753,premup-three_ses-01_part-01_label-phase1,3.2.4,Win32,60,right,0.682999849,4,0,4,0,1,3,1,0,240,177,1,239,,,,,,,,,,,,,,,,,,
,,1,156,,,,,,,3,5,4,stim/54.jpeg,HouseObjects,2,stim/objects/HouseObjects/sponge2.png,0.9,4,0.2,-0.15,right,48,2021-01-11_08h35.28.753,premup-three_ses-01_part-01_label-phase1,3.2.4,Win32,60,right,0.697000027,4,0,4,0,1,3,1,0,240,199,1,239,,,,,,,,,,,,,,,,,,
,,1,157,,,,,,,3,5,1,stim/51.jpeg,HouseObjects,2,stim/objects/HouseObjects/safetypin2.png,0.9,1,-0.2,0.15,right,48,2021-01-11_08h35.28.753,premup-three_ses-01_part-01_label-phase1,3.2.4,Win32,60,right,0.643000126,4,0,4,0,1,3,1,0,240,176,1,239,,,,,,,,,,,,,,,,,,
,,0,158,,,,,,,1,1,3,stim/13.jpeg,HouseObjects,2,stim/objects/HouseObjects/rubbergloves.png,0.5,2,0.2,0.15,right,48,2021-01-11_08h35.28.753,premup-three_ses-01_part-01_label-phase1,3.2.4,Win32,60,left,0.995999813,4,0,4,0,1,3,1,0,240,38,1,239,,,,,,,,,,,,,,,,,,
,,1,159,,,,,,,3,6,4,stim/64.jpeg,Instruments,1,stim/objects/Instruments/tuba2.png,0.9,3,-0.2,-0.15,left,48,2021-01-11_08h35.28.753,premup-three_ses-01_part-01_label-phase1,3.2.4,Win32,60,left,0.976999998,4,0,4,0,1,3,1,0,240,215,1,239,,,,,,,,,,,,,,,,,,
,,1,160,,,,,,,1,2,3,stim/23.jpeg,Instruments,1,stim/objects/Instruments/tambourine.png,0.5,3,-0.2,-0.15,left,48,2021-01-11_08h35.28.753,premup-three_ses-01_part-01_label-phase1,3.2.4,Win32,60,left,1.183999777,4,0,4,0,1,3,1,0,240,42,1,239,,,,,,,,,,,,,,,,,,
,,0,161,,,,,,,2,3,4,stim/34.jpeg,HouseObjects,2,stim/objects/HouseObjects/thread.png,0.7,3,-0.2,-0.15,right,48,2021-01-11_08h35.28.753,premup-three_ses-01_part-01_label-phase1,3.2.4,Win32,60,left,1.226999998,4,0,4,0,1,3,1,0,240,119,1,239,,,,,,,,,,,,,,,,,,
,,0,162,,,,,,,2,4,4,stim/44.jpeg,Instruments,1,stim/objects/Instruments/record_player2.png,0.7,3,-0.2,-0.15,left,48,2021-01-11_08h35.28.753,premup-three_ses-01_part-01_label-phase1,3.2.4,Win32,60,right,1.286999941,4,0,4,0,1,3,1,0,240,123,1,239,,,,,,,,,,,,,,,,,,
,,1,163,,,,,,,3,5,3,stim/53.jpeg,HouseObjects,2,stim/objects/HouseObjects/scale2.png,0.9,1,-0.2,0.15,right,48,2021-01-11_08h35.28.753,premup-three_ses-01_part-01_label-phase1,3.2.4,Win32,60,right,0.758999825,4,0,4,0,1,3,1,0,240,182,1,239,,,,,,,,,,,,,,,,,,
,,1,164,,,,,,,1,1,1,stim/11.jpeg,HouseObjects,2,stim/objects/HouseObjects/recyclingbin.png,0.5,2,0.2,0.15,right,48,2021-01-11_08h35.28.753,premup-three_ses-01_part-01_label-phase1,3.2.4,Win32,60,right,1.088999987,4,0,4,0,1,3,1,0,240,28,1,239,,,,,,,,,,,,,,,,,,
,,0,165,,,,,,,2,3,3,stim/33.jpeg,HouseObjects,2,stim/objects/HouseObjects/thermometer.png,0.7,4,0.2,-0.15,right,48,2021-01-11_08h35.28.753,premup-three_ses-01_part-01_label-phase1,3.2.4,Win32,60,left,0.904999971,4,0,4,0,1,3,1,0,240,118,1,239,,,,,,,,,,,,,,,,,,
,,1,166,,,,,,,2,4,3,stim/43.jpeg,Instruments,1,stim/objects/Instruments/record2.png,0.7,2,0.2,0.15,left,48,2021-01-11_08h35.28.753,premup-three_ses-01_part-01_label-phase1,3.2.4,Win32,60,left,1.573999882,4,0,4,0,1,3,1,0,240,138,1,239,,,,,,,,,,,,,,,,,,
,,1,167,,,,,,,3,5,2,stim/52.jpeg,HouseObjects,2,stim/objects/HouseObjects/saw2.png,0.9,3,-0.2,-0.15,right,48,2021-01-11_08h35.28.753,premup-three_ses-01_part-01_label-phase1,3.2.4,Win32,60,right,0.744999886,4,0,4,0,1,3,1,0,240,193,1,239,,,,,,,,,,,,,,,,,,
,,1,168,,,,,,,3,6,2,stim/62.jpeg,Instruments,1,stim/objects/Instruments/trombone2.png,0.9,1,-0.2,0.15,left,48,2021-01-11_08h35.28.753,premup-three_ses-01_part-01_label-phase1,3.2.4,Win32,60,left,0.964999914,4,0,4,0,1,3,1,0,240,233,1,239,,,,,,,,,,,,,,,,,,
,,1,169,,,,,,,2,3,4,stim/34.jpeg,Instruments,1,stim/objects/Instruments/tuba.png,0.3,3,-0.2,-0.15,left,48,2021-01-11_08h35.28.753,premup-three_ses-01_part-01_label-phase1,3.2.4,Win32,60,left,0.90899992,4,0,4,0,1,3,1,0,240,91,1,239,,,,,,,,,,,,,,,,,,
,,0,170,,,,,,,2,3,1,stim/31.jpeg,HouseObjects,2,stim/objects/HouseObjects/spraybottle.png,0.7,4,0.2,-0.15,right,48,2021-01-11_08h35.28.753,premup-three_ses-01_part-01_label-phase1,3.2.4,Win32,60,left,0.714999914,4,0,4,0,1,3,1,0,240,96,1,239,,,,,,,,,,,,,,,,,,
,,1,171,,,,,,,3,5,4,stim/54.jpeg,HouseObjects,2,stim/objects/HouseObjects/sponge2.png,0.9,3,-0.2,-0.15,right,48,2021-01-11_08h35.28.753,premup-three_ses-01_part-01_label-phase1,3.2.4,Win32,60,right,0.599999905,4,0,4,0,1,3,1,0,240,179,1,239,,,,,,,,,,,,,,,,,,
,,1,172,,,,,,,1,2,3,stim/23.jpeg,Instruments,1,stim/objects/Instruments/tambourine.png,0.5,1,-0.2,0.15,left,48,2021-01-11_08h35.28.753,premup-three_ses-01_part-01_label-phase1,3.2.4,Win32,60,left,0.815999985,4,0,4,0,1,3,1,0,240,58,1,239,,,,,,,,,,,,,,,,,,
,,1,173,,,,,,,2,3,2,stim/32.jpeg,HouseObjects,2,stim/objects/HouseObjects/teapot.png,0.7,4,0.2,-0.15,right,48,2021-01-11_08h35.28.753,premup-three_ses-01_part-01_label-phase1,3.2.4,Win32,60,right,0.93599987,4,0,4,0,1,3,1,0,240,105,1,239,,,,,,,,,,,,,,,,,,
,,1,174,,,,,,,3,6,4,stim/64.jpeg,Instruments,1,stim/objects/Instruments/tuba2.png,0.9,2,0.2,0.15,left,48,2021-01-11_08h35.28.753,premup-three_ses-01_part-01_label-phase1,3.2.4,Win32,60,left,0.95600009,4,0,4,0,1,3,1,0,240,211,1,239,,,,,,,,,,,,,,,,,,
,,1,175,,,,,,,3,6,2,stim/62.jpeg,Instruments,1,stim/objects/Instruments/trombone2.png,0.9,1,-0.2,0.15,left,48,2021-01-11_08h35.28.753,premup-three_ses-01_part-01_label-phase1,3.2.4,Win32,60,left,0.733999968,4,0,4,0,1,3,1,0,240,217,1,239,,,,,,,,,,,,,,,,,,
,,0,176,,,,,,,1,1,1,stim/11.jpeg,Instruments,1,stim/objects/Instruments/panflute.png,0.5,2,0.2,0.15,left,48,2021-01-11_08h35.28.753,premup-three_ses-01_part-01_label-phase1,3.2.4,Win32,60,right,0.755999804,4,0,4,0,1,3,1,0,240,16,1,239,,,,,,,,,,,,,,,,,,
,,1,177,,,,,,,3,5,1,stim/51.jpeg,HouseObjects,2,stim/objects/HouseObjects/safetypin2.png,0.9,2,0.2,0.15,right,48,2021-01-11_08h35.28.753,premup-three_ses-01_part-01_label-phase1,3.2.4,Win32,60,right,0.60199976,4,0,4,0,1,3,1,0,240,168,1,239,,,,,,,,,,,,,,,,,,
,,1,178,,,,,,,3,5,1,stim/51.jpeg,HouseObjects,2,stim/objects/HouseObjects/safetypin2.png,0.9,1,-0.2,0.15,right,48,2021-01-11_08h35.28.753,premup-three_ses-01_part-01_label-phase1,3.2.4,Win32,60,right,0.458999872,4,0,4,0,1,3,1,0,240,192,1,239,,,,,,,,,,,,,,,,,,
,,1,179,,,,,,,2,3,1,stim/31.jpeg,Instruments,1,stim/objects/Instruments/triangle.png,0.3,2,0.2,0.15,left,48,2021-01-11_08h35.28.753,premup-three_ses-01_part-01_label-phase1,3.2.4,Win32,60,left,0.852999926,4,0,4,0,1,3,1,0,240,84,1,239,,,,,,,,,,,,,,,,,,
,,0,180,,,,,,,3,6,3,stim/63.jpeg,Instruments,1,stim/objects/Instruments/trumpet2.png,0.9,3,-0.2,-0.15,left,48,2021-01-11_08h35.28.753,premup-three_ses-01_part-01_label-phase1,3.2.4,Win32,60,right,1.11500001,4,0,4,0,1,3,1,0,240,218,1,239,,,,,,,,,,,,,,,,,,
,,0,181,,,,,,,1,1,4,stim/14.jpeg,Instruments,1,stim/objects/Instruments/record_player.png,0.5,4,0.2,-0.15,left,48,2021-01-11_08h35.28.753,premup-three_ses-01_part-01_label-phase1,3.2.4,Win32,60,right,1.282999992,4,0,4,0,1,3,1,0,240,3,1,239,,,,,,,,,,,,,,,,,,
,,1,182,,,,,,,3,6,2,stim/62.jpeg,Instruments,1,stim/objects/Instruments/trombone2.png,0.9,4,0.2,-0.15,left,48,2021-01-11_08h35.28.753,premup-three_ses-01_part-01_label-phase1,3.2.4,Win32,60,left,0.483999968,4,0,4,0,1,3,1,0,240,209,1,239,,,,,,,,,,,,,,,,,,
,,1,183,,,,,,,3,6,2,stim/62.jpeg,Instruments,1,stim/objects/Instruments/trombone2.png,0.9,1,-0.2,0.15,left,48,2021-01-11_08h35.28.753,premup-three_ses-01_part-01_label-phase1,3.2.4,Win32,60,left,0.406999826,4,0,4,0,1,3,1,0,240,221,1,239,,,,,,,,,,,,,,,,,,
,,1,184,,,,,,,3,5,4,stim/54.jpeg,HouseObjects,2,stim/objects/HouseObjects/sponge2.png,0.9,1,-0.2,0.15,right,48,2021-01-11_08h35.28.753,premup-three_ses-01_part-01_label-phase1,3.2.4,Win32,60,right,0.563999891,4,0,4,0,1,3,1,0,240,183,1,239,,,,,,,,,,,,,,,,,,
,,0,185,,,,,,,2,3,4,stim/34.jpeg,HouseObjects,2,stim/objects/HouseObjects/thread.png,0.7,4,0.2,-0.15,right,48,2021-01-11_08h35.28.753,premup-three_ses-01_part-01_label-phase1,3.2.4,Win32,60,left,0.947999954,4,0,4,0,1,3,1,0,240,115,1,239,,,,,,,,,,,,,,,,,,
,,1,186,,,,,,,1,2,2,stim/22.jpeg,HouseObjects,2,stim/objects/HouseObjects/saw.png,0.5,1,-0.2,0.15,right,48,2021-01-11_08h35.28.753,premup-three_ses-01_part-01_label-phase1,3.2.4,Win32,60,right,1.383999825,4,0,4,0,1,3,1,0,240,61,1,239,,,,,,,,,,,,,,,,,,
,,0,187,,,,,,,1,1,3,stim/13.jpeg,Instruments,1,stim/objects/Instruments/record.png,0.5,3,-0.2,-0.15,left,48,2021-01-11_08h35.28.753,premup-three_ses-01_part-01_label-phase1,3.2.4,Win32,60,right,0.899999857,4,0,4,0,1,3,1,0,240,10,1,239,,,,,,,,,,,,,,,,,,
,,1,188,,,,,,,1,2,4,stim/24.jpeg,HouseObjects,2,stim/objects/HouseObjects/sponge.png,0.5,2,0.2,0.15,right,48,2021-01-11_08h35.28.753,premup-three_ses-01_part-01_label-phase1,3.2.4,Win32,60,right,0.694999933,4,0,4,0,1,3,1,0,240,67,1,239,,,,,,,,,,,,,,,,,,
,,0,189,,,,,,,2,3,3,stim/33.jpeg,HouseObjects,2,stim/objects/HouseObjects/thermometer.png,0.7,1,-0.2,0.15,right,48,2021-01-11_08h35.28.753,premup-three_ses-01_part-01_label-phase1,3.2.4,Win32,60,left,1.068000078,4,0,4,0,1,3,1,0,240,98,1,239,,,,,,,,,,,,,,,,,,
,,1,190,,,,,,,2,3,3,stim/33.jpeg,HouseObjects,2,stim/objects/HouseObjects/thermometer.png,0.7,2,0.2,0.15,right,48,2021-01-11_08h35.28.753,premup-three_ses-01_part-01_label-phase1,3.2.4,Win32,60,right,0.490999937,4,0,4,0,1,3,1,0,240,94,1,239,,,,,,,,,,,,,,,,,,
,,1,191,,,,,,,2,4,4,stim/44.jpeg,Instruments,1,stim/objects/Instruments/record_player2.png,0.7,4,0.2,-0.15,left,48,2021-01-11_08h35.28.753,premup-three_ses-01_part-01_label-phase1,3.2.4,Win32,60,left,1.127000093,4,0,4,0,1,3,1,0,240,135,1,239,,,,,,,,,,,,,,,,,,
,,1,192,,,,,,,2,3,4,stim/34.jpeg,Instruments,1,stim/objects/Instruments/tuba.png,0.3,2,0.2,0.15,left,48,2021-01-11_08h35.28.753,premup-three_ses-01_part-01_label-phase1,3.2.4,Win32,60,left,1.146999836,4,0,4,0,1,3,1,0,240,87,1,239,,,,,,,,,,,,,,,,,,
,,0,193,,,,,,,3,6,1,stim/61.jpeg,HouseObjects,2,stim/objects/HouseObjects/spraybottle2.png,0.1,2,0.2,0.15,right,48,2021-01-11_08h35.28.753,premup-three_ses-01_part-01_label-phase1,3.2.4,Win32,60,left,1.678999901,4,0,4,0,1,3,1,0,240,236,1,239,,,,,,,,,,,,,,,,,,
,,1,194,,,,,,,3,5,3,stim/53.jpeg,HouseObjects,2,stim/objects/HouseObjects/scale2.png,0.9,1,-0.2,0.15,right,48,2021-01-11_08h35.28.753,premup-three_ses-01_part-01_label-phase1,3.2.4,Win32,60,right,0.628999949,4,0,4,0,1,3,1,0,240,198,1,239,,,,,,,,,,,,,,,,,,
,,1,195,,,,,,,3,6,3,stim/63.jpeg,Instruments,1,stim/objects/Instruments/trumpet2.png,0.9,4,0.2,-0.15,left,48,2021-01-11_08h35.28.753,premup-three_ses-01_part-01_label-phase1,3.2.4,Win32,60,left,0.684999943,4,0,4,0,1,3,1,0,240,234,1,239,,,,,,,,,,,,,,,,,,
,,0,196,,,,,,,1,2,2,stim/22.jpeg,Instruments,1,stim/objects/Instruments/speaker.png,0.5,1,-0.2,0.15,left,48,2021-01-11_08h35.28.753,premup-three_ses-01_part-01_label-phase1,3.2.4,Win32,60,right,0.655999899,4,0,4,0,1,3,1,0,240,45,1,239,,,,,,,,,,,,,,,,,,
,,1,197,,,,,,,3,6,4,stim/64.jpeg,Instruments,1,stim/objects/Instruments/tuba2.png,0.9,3,-0.2,-0.15,left,48,2021-01-11_08h35.28.753,premup-three_ses-01_part-01_label-phase1,3.2.4,Win32,60,left,0.717999935,4,0,4,0,1,3,1,0,240,231,1,239,,,,,,,,,,,,,,,,,,
,,1,198,,,,,,,2,3,4,stim/34.jpeg,HouseObjects,2,stim/objects/HouseObjects/thread.png,0.7,4,0.2,-0.15,right,48,2021-01-11_08h35.28.753,premup-three_ses-01_part-01_label-phase1,3.2.4,Win32,60,right,0.854000092,4,0,4,0,1,3,1,0,240,99,1,239,,,,,,,,,,,,,,,,,,
,,1,199,,,,,,,2,4,1,stim/41.jpeg,Instruments,1,stim/objects/Instruments/panflute2.png,0.7,1,-0.2,0.15,left,48,2021-01-11_08h35.28.753,premup-three_ses-01_part-01_label-phase1,3.2.4,Win32,60,left,0.849999905,4,0,4,0,1,3,1,0,240,132,1,239,,,,,,,,,,,,,,,,,,
,,1,200,,,,,,,3,5,2,stim/52.jpeg,HouseObjects,2,stim/objects/HouseObjects/saw2.png,0.9,2,0.2,0.15,right,48,2021-01-11_08h35.28.753,premup-three_ses-01_part-01_label-phase1,3.2.4,Win32,60,right,0.595999956,4,0,4,0,1,3,1,0,240,165,1,239,,,,,,,,,,,,,,,,,,
,,1,201,,,,,,,3,6,2,stim/62.jpeg,Instruments,1,stim/objects/Instruments/trombone2.png,0.9,1,-0.2,0.15,left,48,2021-01-11_08h35.28.753,premup-three_ses-01_part-01_label-phase1,3.2.4,Win32,60,left,0.622999907,4,0,4,0,1,3,1,0,240,201,1,239,,,,,,,,,,,,,,,,,,
,,0,202,,,,,,,1,1,2,stim/12.jpeg,HouseObjects,2,stim/objects/HouseObjects/remote.png,0.5,3,-0.2,-0.15,right,48,2021-01-11_08h35.28.753,premup-three_ses-01_part-01_label-phase1,3.2.4,Win32,60,left,1.013000011,4,0,4,0,1,3,1,0,240,37,1,239,,,,,,,,,,,,,,,,,,
,,0,203,,,,,,,2,3,3,stim/33.jpeg,HouseObjects,2,stim/objects/HouseObjects/thermometer.png,0.7,4,0.2,-0.15,right,48,2021-01-11_08h35.28.753,premup-three_ses-01_part-01_label-phase1,3.2.4,Win32,60,left,0.780999899,4,0,4,0,1,3,1,0,240,114,1,239,,,,,,,,,,,,,,,,,,
,,0,204,,,,,,,1,2,4,stim/24.jpeg,HouseObjects,2,stim/objects/HouseObjects/sponge.png,0.5,2,0.2,0.15,right,48,2021-01-11_08h35.28.753,premup-three_ses-01_part-01_label-phase1,3.2.4,Win32,60,left,0.987999916,4,0,4,0,1,3,1,0,240,71,1,239,,,,,,,,,,,,,,,,,,
,,1,205,,,,,,,1,1,4,stim/14.jpeg,Instruments,1,stim/objects/Instruments/record_player.png,0.5,3,-0.2,-0.15,left,48,2021-01-11_08h35.28.753,premup-three_ses-01_part-01_label-phase1,3.2.4,Win32,60,left,0.993999958,4,0,4,0,1,3,1,0,240,15,1,239,,,,,,,,,,,,,,,,,,
,,0,206,,,,,,,2,3,4,stim/34.jpeg,HouseObjects,2,stim/objects/HouseObjects/thread.png,0.7,3,-0.2,-0.15,right,48,2021-01-11_08h35.28.753,premup-three_ses-01_part-01_label-phase1,3.2.4,Win32,60,left,0.862999916,4,0,4,0,1,3,1,0,240,103,1,239,,,,,,,,,,,,,,,,,,
,,1,207,,,,,,,2,4,3,stim/43.jpeg,Instruments,1,stim/objects/Instruments/record2.png,0.7,3,-0.2,-0.15,left,48,2021-01-11_08h35.28.753,premup-three_ses-01_part-01_label-phase1,3.2.4,Win32,60,left,0.989000082,4,0,4,0,1,3,1,0,240,122,1,239,,,,,,,,,,,,,,,,,,
,,0,208,,,,,,,2,3,3,stim/33.jpeg,Instruments,1,stim/objects/Instruments/trumpet.png,0.3,1,-0.2,0.15,left,48,2021-01-11_08h35.28.753,premup-three_ses-01_part-01_label-phase1,3.2.4,Win32,60,right,0.879999876,4,0,4,0,1,3,1,0,240,86,1,239,,,,,,,,,,,,,,,,,,
,,1,209,,,,,,,2,4,1,stim/41.jpeg,HouseObjects,2,stim/objects/HouseObjects/recyclingbin2.png,0.3,4,0.2,-0.15,right,48,2021-01-11_08h35.28.753,premup-three_ses-01_part-01_label-phase1,3.2.4,Win32,60,right,1.226000071,4,0,4,0,1,3,1,0,240,148,1,239,,,,,,,,,,,,,,,,,,
,,1,210,,,,,,,2,4,3,stim/43.jpeg,Instruments,1,stim/objects/Instruments/record2.png,0.7,1,-0.2,0.15,left,48,2021-01-11_08h35.28.753,premup-three_ses-01_part-01_label-phase1,3.2.4,Win32,60,left,1.389999866,4,0,4,0,1,3,1,0,240,146,1,239,,,,,,,,,,,,,,,,,,
,,0,211,,,,,,,1,1,1,stim/11.jpeg,Instruments,1,stim/objects/Instruments/panflute.png,0.5,1,-0.2,0.15,left,48,2021-01-11_08h35.28.753,premup-three_ses-01_part-01_label-phase1,3.2.4,Win32,60,right,0.970999956,4,0,4,0,1,3,1,0,240,4,1,239,,,,,,,,,,,,,,,,,,
,,0,212,,,,,,,2,3,1,stim/31.jpeg,HouseObjects,2,stim/objects/HouseObjects/spraybottle.png,0.7,3,-0.2,-0.15,right,48,2021-01-11_08h35.28.753,premup-three_ses-01_part-01_label-phase1,3.2.4,Win32,60,left,1.032000065,4,0,4,0,1,3,1,0,240,92,1,239,,,,,,,,,,,,,,,,,,
,,0,213,,,,,,,2,3,2,stim/32.jpeg,HouseObjects,2,stim/objects/HouseObjects/teapot.png,0.7,1,-0.2,0.15,right,48,2021-01-11_08h35.28.753,premup-three_ses-01_part-01_label-phase1,3.2.4,Win32,60,left,0.912999868,4,0,4,0,1,3,1,0,240,109,1,239,,,,,,,,,,,,,,,,,,
,,1,214,,,,,,,2,4,2,stim/42.jpeg,Instruments,1,stim/objects/Instruments/pipepiano2.png,0.7,1,-0.2,0.15,left,48,2021-01-11_08h35.28.753,premup-three_ses-01_part-01_label-phase1,3.2.4,Win32,60,left,0.722000122,4,0,4,0,1,3,1,0,240,133,1,239,,,,,,,,,,,,,,,,,,
,,0,215,,,,,,,3,5,4,stim/54.jpeg,Instruments,1,stim/objects/Instruments/timbal2.png,0.1,1,-0.2,0.15,left,48,2021-01-11_08h35.28.753,premup-three_ses-01_part-01_label-phase1,3.2.4,Win32,60,right,0.642999887,4,0,4,0,1,3,1,0,240,163,1,239,,,,,,,,,,,,,,,,,,
,,1,216,,,,,,,2,4,3,stim/43.jpeg,Instruments,1,stim/objects/Instruments/record2.png,0.7,1,-0.2,0.15,left,48,2021-01-11_08h35.28.753,premup-three_ses-01_part-01_label-phase1,3.2.4,Win32,60,left,0.873999834,4,0,4,0,1,3,1,0,240,142,1,239,,,,,,,,,,,,,,,,,,
,,0,217,,,,,,,2,4,2,stim/42.jpeg,Instruments,1,stim/objects/Instruments/pipepiano2.png,0.7,4,0.2,-0.15,left,48,2021-01-11_08h35.28.753,premup-three_ses-01_part-01_label-phase1,3.2.4,Win32,60,right,0.753999949,4,0,4,0,1,3,1,0,240,145,1,239,,,,,,,,,,,,,,,,,,
,,1,218,,,,,,,3,6,3,stim/63.jpeg,Instruments,1,stim/objects/Instruments/trumpet2.png,0.9,4,0.2,-0.15,left,48,2021-01-11_08h35.28.753,premup-three_ses-01_part-01_label-phase1,3.2.4,Win32,60,left,0.683000088,4,0,4,0,1,3,1,0,240,202,1,239,,,,,,,,,,,,,,,,,,
,,1,219,,,,,,,1,2,4,stim/24.jpeg,HouseObjects,2,stim/objects/HouseObjects/sponge.png,0.5,2,0.2,0.15,right,48,2021-01-11_08h35.28.753,premup-three_ses-01_part-01_label-phase1,3.2.4,Win32,60,right,0.917999744,4,0,4,0,1,3,1,0,240,63,1,239,,,,,,,,,,,,,,,,,,
,,1,220,,,,,,,2,4,4,stim/44.jpeg,Instruments,1,stim/objects/Instruments/record_player2.png,0.7,2,0.2,0.15,left,48,2021-01-11_08h35.28.753,premup-three_ses-01_part-01_label-phase1,3.2.4,Win32,60,left,0.835999966,4,0,4,0,1,3,1,0,240,147,1,239,,,,,,,,,,,,,,,,,,
,,1,221,,,,,,,2,4,3,stim/43.jpeg,Instruments,1,stim/objects/Instruments/record2.png,0.7,1,-0.2,0.15,left,48,2021-01-11_08h35.28.753,premup-three_ses-01_part-01_label-phase1,3.2.4,Win32,60,left,0.911999941,4,0,4,0,1,3,1,0,240,134,1,239,,,,,,,,,,,,,,,,,,
,,0,222,,,,,,,1,1,1,stim/11.jpeg,Instruments,1,stim/objects/Instruments/panflute.png,0.5,2,0.2,0.15,left,48,2021-01-11_08h35.28.753,premup-three_ses-01_part-01_label-phase1,3.2.4,Win32,60,right,1.030999899,4,0,4,0,1,3,1,0,240,8,1,239,,,,,,,,,,,,,,,,,,
,,0,223,,,,,,,1,2,1,stim/21.jpeg,Instruments,1,stim/objects/Instruments/saxophone.png,0.5,3,-0.2,-0.15,left,48,2021-01-11_08h35.28.753,premup-three_ses-01_part-01_label-phase1,3.2.4,Win32,60,right,0.763999939,4,0,4,0,1,3,1,0,240,48,1,239,,,,,,,,,,,,,,,,,,
,,1,224,,,,,,,2,4,1,stim/41.jpeg,HouseObjects,2,stim/objects/HouseObjects/recyclingbin2.png,0.3,4,0.2,-0.15,right,48,2021-01-11_08h35.28.753,premup-three_ses-01_part-01_label-phase1,3.2.4,Win32,60,right,1.169999838,4,0,4,0,1,3,1,0,240,156,1,239,,,,,,,,,,,,,,,,,,
,,1,225,,,,,,,3,6,1,stim/61.jpeg,Instruments,1,stim/objects/Instruments/triangle2.png,0.9,2,0.2,0.15,left,48,2021-01-11_08h35.28.753,premup-three_ses-01_part-01_label-phase1,3.2.4,Win32,60,left,0.674999952,4,0,4,0,1,3,1,0,240,232,1,239,,,,,,,,,,,,,,,,,,
,,1,226,,,,,,,1,2,3,stim/23.jpeg,Instruments,1,stim/objects/Instruments/tambourine.png,0.5,4,0.2,-0.15,left,48,2021-01-11_08h35.28.753,premup-three_ses-01_part-01_label-phase1,3.2.4,Win32,60,left,0.881999969,4,0,4,0,1,3,1,0,240,46,1,239,,,,,,,,,,,,,,,,,,
,,1,227,,,,,,,3,5,4,stim/54.jpeg,HouseObjects,2,stim/objects/HouseObjects/sponge2.png,0.9,1,-0.2,0.15,right,48,2021-01-11_08h35.28.753,premup-three_ses-01_part-01_label-phase1,3.2.4,Win32,60,right,0.632999897,4,0,4,0,1,3,1,0,240,167,1,239,,,,,,,,,,,,,,,,,,
,,1,228,,,,,,,3,5,2,stim/52.jpeg,HouseObjects,2,stim/objects/HouseObjects/saw2.png,0.9,3,-0.2,-0.15,right,48,2021-01-11_08h35.28.753,premup-three_ses-01_part-01_label-phase1,3.2.4,Win32,60,right,0.652999878,4,0,4,0,1,3,1,0,240,189,1,239,,,,,,,,,,,,,,,,,,
,,1,229,,,,,,,3,6,4,stim/64.jpeg,Instruments,1,stim/objects/Instruments/tuba2.png,0.9,2,0.2,0.15,left,48,2021-01-11_08h35.28.753,premup-three_ses-01_part-01_label-phase1,3.2.4,Win32,60,left,0.713000059,4,0,4,0,1,3,1,0,240,223,1,239,,,,,,,,,,,,,,,,,,
,,1,230,,,,,,,1,1,4,stim/14.jpeg,HouseObjects,2,stim/objects/HouseObjects/rug.png,0.5,4,0.2,-0.15,right,48,2021-01-11_08h35.28.753,premup-three_ses-01_part-01_label-phase1,3.2.4,Win32,60,right,0.629999876,4,0,4,0,1,3,1,0,240,27,1,239,,,,,,,,,,,,,,,,,,
,,1,231,,,,,,,1,2,4,stim/24.jpeg,Instruments,1,stim/objects/Instruments/timbal.png,0.5,4,0.2,-0.15,left,48,2021-01-11_08h35.28.753,premup-three_ses-01_part-01_label-phase1,3.2.4,Win32,60,left,0.715999842,4,0,4,0,1,3,1,0,240,51,1,239,,,,,,,,,,,,,,,,,,
,,0,232,,,,,,,1,2,3,stim/23.jpeg,HouseObjects,2,stim/objects/HouseObjects/scale.png,0.5,3,-0.2,-0.15,right,48,2021-01-11_08h35.28.753,premup-three_ses-01_part-01_label-phase1,3.2.4,Win32,60,left,0.698999882,4,0,4,0,1,3,1,0,240,62,1,239,,,,,,,,,,,,,,,,,,
,,1,233,,,,,,,1,2,3,stim/23.jpeg,HouseObjects,2,stim/objects/HouseObjects/scale.png,0.5,1,-0.2,0.15,right,48,2021-01-11_08h35.28.753,premup-three_ses-01_part-01_label-phase1,3.2.4,Win32,60,right,0.512999773,4,0,4,0,1,3,1,0,240,78,1,239,,,,,,,,,,,,,,,,,,
,,0,234,,,,,,,1,1,1,stim/11.jpeg,Instruments,1,stim/objects/Instruments/panflute.png,0.5,1,-0.2,0.15,left,48,2021-01-11_08h35.28.753,premup-three_ses-01_part-01_label-phase1,3.2.4,Win32,60,right,0.680999756,4,0,4,0,1,3,1,0,240,12,1,239,,,,,,,,,,,,,,,,,,
,,1,235,,,,,,,3,5,1,stim/51.jpeg,HouseObjects,2,stim/objects/HouseObjects/safetypin2.png,0.9,3,-0.2,-0.15,right,48,2021-01-11_08h35.28.753,premup-three_ses-01_part-01_label-phase1,3.2.4,Win32,60,right,0.680000067,4,0,4,0,1,3,1,0,240,196,1,239,,,,,,,,,,,,,,,,,,
,,0,236,,,,,,,1,1,3,stim/13.jpeg,HouseObjects,2,stim/objects/HouseObjects/rubbergloves.png,0.5,3,-0.2,-0.15,right,48,2021-01-11_08h35.28.753,premup-three_ses-01_part-01_label-phase1,3.2.4,Win32,60,left,0.749000072,4,0,4,0,1,3,1,0,240,34,1,239,,,,,,,,,,,,,,,,,,
,,0,237,,,,,,,1,2,1,stim/21.jpeg,HouseObjects,2,stim/objects/HouseObjects/safetypin.png,0.5,4,0.2,-0.15,right,48,2021-01-11_08h35.28.753,premup-three_ses-01_part-01_label-phase1,3.2.4,Win32,60,left,0.884000063,4,0,4,0,1,3,1,0,240,72,1,239,,,,,,,,,,,,,,,,,,
,,1,238,,,,,,,3,6,3,stim/63.jpeg,Instruments,1,stim/objects/Instruments/trumpet2.png,0.9,3,-0.2,-0.15,left,48,2021-01-11_08h35.28.753,premup-three_ses-01_part-01_label-phase1,3.2.4,Win32,60,left,0.674000025,4,0,4,0,1,3,1,0,240,230,1,239,,,,,,,,,,,,,,,,,,
,,0,239,,,,,,,2,3,3,stim/33.jpeg,Instruments,1,stim/objects/Instruments/trumpet.png,0.3,3,-0.2,-0.15,left,48,2021-01-11_08h35.28.753,premup-three_ses-01_part-01_label-phase1,3.2.4,Win32,60,right,0.709000111,4,0,4,0,1,3,1,0,240,82,1,239,,,,,,,,,,,,,,,,,,
,,1,240,,,,,,,1,1,3,stim/13.jpeg,HouseObjects,2,stim/objects/HouseObjects/rubbergloves.png,0.5,3,-0.2,-0.15,right,48,2021-01-11_08h35.28.753,premup-three_ses-01_part-01_label-phase1,3.2.4,Win32,60,right,0.831999779,4,0,4,0,1,3,1,0,240,30,1,239,,,,,,,,,,,,,,,,,,
,,,,,,,,,,,2,,stim/21.jpeg,,,,,,,,,48,2021-01-11_08h35.28.753,premup-three_ses-01_part-01_label-phase1,3.2.4,Win32,60,,,4,0,4,0,1,3,,,,,,,1,0,19,27.23800015,,,1,0,6,1,1,5,Household items,45,55,Music items,45,55
,,,,,,,,,,,1,,stim/11.jpeg,,,,,,,,,48,2021-01-11_08h35.28.753,premup-three_ses-01_part-01_label-phase1,3.2.4,Win32,60,,,4,0,4,0,1,3,,,,,,,1,0,15,10.93499994,,,1,0,6,0,1,5,Music items,45,55,Household items,45,55
,,,,,,,,,,,3,,stim/31.jpeg,,,,,,,,,48,2021-01-11_08h35.28.753,premup-three_ses-01_part-01_label-phase1,3.2.4,Win32,60,,,4,0,4,0,1,3,,,,,,,1,0,85,6.031000137,,,1,0,6,2,1,5,Music items,65,75,Household items,25,35
,,,,,,,,,,,6,,stim/61.jpeg,,,,,,,,,48,2021-01-11_08h35.28.753,premup-three_ses-01_part-01_label-phase1,3.2.4,Win32,60,,,4,0,4,0,1,3,,,,,,,1,0,96,5.608999968,,,1,0,6,5,1,5,Music items,5,15,Household items,85,95
,,,,,,,,,,,4,,stim/41.jpeg,,,,,,,,,48,2021-01-11_08h35.28.753,premup-three_ses-01_part-01_label-phase1,3.2.4,Win32,60,,,4,0,4,0,1,3,,,,,,,1,0,5,6.459000111,,,1,0,6,3,1,5,Music items,65,75,Household items,25,35
,,,,,,,,,,,5,,stim/51.jpeg,,,,,,,,,48,2021-01-11_08h35.28.753,premup-three_ses-01_part-01_label-phase1,3.2.4,Win32,60,,,4,0,4,0,1,3,,,,,,,1,0,96,4.210000038,,,1,0,6,4,1,5,Household items,5,15,Music items,85,95
,,,,,,,,,,,,,,,,,,,,,,48,2021-01-11_08h35.28.753,premup-three_ses-01_part-01_label-phase1,3.2.4,Win32,60,,,4,0,4,0,1,3,,,,,,,,,,,,,,,,,,,,,,,,
,,0,1,,,,,,,2,3,3,stim/33.jpeg,Instruments,1,stim/objects/Instruments/trumpet.png,0.3,4,0.2,-0.15,left,48,2021-01-11_08h35.28.753,premup-three_ses-01_part-01_label-phase1,3.2.4,Win32,60,right,1.040999889,4,0,4,0,1,3,1,0,240,90,1,239,,,,,,,,,,,,,,,,,,
,,1,2,,,,,,,2,4,2,stim/42.jpeg,HouseObjects,2,stim/objects/HouseObjects/remote2.png,0.3,2,0.2,0.15,right,48,2021-01-11_08h35.28.753,premup-three_ses-01_part-01_label-phase1,3.2.4,Win32,60,right,0.859999895,4,0,4,0,1,3,1,0,240,153,1,239,,,,,,,,,,,,,,,,,,
,,0,3,,,,,,,1,1,2,stim/12.jpeg,HouseObjects,2,stim/objects/HouseObjects/remote.png,0.5,1,-0.2,0.15,right,48,2021-01-11_08h35.28.753,premup-three_ses-01_part-01_label-phase1,3.2.4,Win32,60,left,0.922999859,4,0,4,0,1,3,1,0,240,29,1,239,,,,,,,,,,,,,,,,,,
,,0,4,,,,,,,3,6,3,stim/63.jpeg,HouseObjects,2,stim/objects/HouseObjects/thermometer2.png,0.1,4,0.2,-0.15,right,48,2021-01-11_08h35.28.753,premup-three_ses-01_part-01_label-phase1,3.2.4,Win32,60,left,0.595999956,4,0,4,0,1,3,1,0,240,238,1,239,,,,,,,,,,,,,,,,,,
,,1,5,,,,,,,3,5,3,stim/53.jpeg,HouseObjects,2,stim/objects/HouseObjects/scale2.png,0.9,1,-0.2,0.15,right,48,2021-01-11_08h35.28.753,premup-three_ses-01_part-01_label-phase1,3.2.4,Win32,60,right,0.690999746,4,0,4,0,1,3,1,0,240,194,1,239,,,,,,,,,,,,,,,,,,
,,0,6,,,,,,,1,1,2,stim/12.jpeg,Instruments,1,stim/objects/Instruments/pipepiano.png,0.5,1,-0.2,0.15,left,48,2021-01-11_08h35.28.753,premup-three_ses-01_part-01_label-phase1,3.2.4,Win32,60,right,0.799000025,4,0,4,0,1,3,1,0,240,13,1,239,,,,,,,,,,,,,,,,,,
,,1,7,,,,,,,3,6,3,stim/63.jpeg,Instruments,1,stim/objects/Instruments/trumpet2.png,0.9,3,-0.2,-0.15,left,48,2021-01-11_08h35.28.753,premup-three_ses-01_part-01_label-phase1,3.2.4,Win32,60,left,0.636999846,4,0,4,0,1,3,1,0,240,210,1,239,,,,,,,,,,,,,,,,,,
,,1,8,,,,,,,1,2,4,stim/24.jpeg,HouseObjects,2,stim/objects/HouseObjects/sponge.png,0.5,1,-0.2,0.15,right,48,2021-01-11_08h35.28.753,premup-three_ses-01_part-01_label-phase1,3.2.4,Win32,60,right,0.914000034,4,0,4,0,1,3,1,0,240,75,1,239,,,,,,,,,,,,,,,,,,
,,0,9,,,,,,,2,4,3,stim/43.jpeg,Instruments,1,stim/objects/Instruments/record2.png,0.7,2,0.2,0.15,left,48,2021-01-11_08h35.28.753,premup-three_ses-01_part-01_label-phase1,3.2.4,Win32,60,right,1.395999908,4,0,4,0,1,3,1,0,240,138,1,239,,,,,,,,,,,,,,,,,,
,,1,10,,,,,,,3,5,3,stim/53.jpeg,HouseObjects,2,stim/objects/HouseObjects/scale2.png,0.9,1,-0.2,0.15,right,48,2021-01-11_08h35.28.753,premup-three_ses-01_part-01_label-phase1,3.2.4,Win32,60,right,0.556999922,4,0,4,0,1,3,1,0,240,182,1,239,,,,,,,,,,,,,,,,,,
,,0,11,,,,,,,1,2,2,stim/22.jpeg,Instruments,1,stim/objects/Instruments/speaker.png,0.5,4,0.2,-0.15,left,48,2021-01-11_08h35.28.753,premup-three_ses-01_part-01_label-phase1,3.2.4,Win32,60,right,1.578999996,4,0,4,0,1,3,1,0,240,41,1,239,,,,,,,,,,,,,,,,,,
,,0,12,,,,,,,1,1,3,stim/13.jpeg,Instruments,1,stim/objects/Instruments/record.png,0.5,1,-0.2,0.15,left,48,2021-01-11_08h35.28.753,premup-three_ses-01_part-01_label-phase1,3.2.4,Win32,60,right,0.871999979,4,0,4,0,1,3,1,0,240,18,1,239,,,,,,,,,,,,,,,,,,
,,0,13,,,,,,,1,2,4,stim/24.jpeg,HouseObjects,2,stim/objects/HouseObjects/sponge.png,0.5,2,0.2,0.15,right,48,2021-01-11_08h35.28.753,premup-three_ses-01_part-01_label-phase1,3.2.4,Win32,60,left,0.559000015,4,0,4,0,1,3,1,0,240,63,1,239,,,,,,,,,,,,,,,,,,
,,1,14,,,,,,,3,5,4,stim/54.jpeg,HouseObjects,2,stim/objects/HouseObjects/sponge2.png,0.9,2,0.2,0.15,right,48,2021-01-11_08h35.28.753,premup-three_ses-01_part-01_label-phase1,3.2.4,Win32,60,right,0.563999891,4,0,4,0,1,3,1,0,240,195,1,239,,,,,,,,,,,,,,,,,,
,,0,15,,,,,,,3,6,2,stim/62.jpeg,HouseObjects,2,stim/objects/HouseObjects/teapot2.png,0.1,1,-0.2,0.15,right,48,2021-01-11_08h35.28.753,premup-three_ses-01_part-01_label-phase1,3.2.4,Win32,60,left,0.556999922,4,0,4,0,1,3,1,0,240,237,1,239,,,,,,,,,,,,,,,,,,
,,1,16,,,,,,,3,6,2,stim/62.jpeg,Instruments,1,stim/objects/Instruments/trombone2.png,0.9,1,-0.2,0.15,left,48,2021-01-11_08h35.28.753,premup-three_ses-01_part-01_label-phase1,3.2.4,Win32,60,left,0.55099988,4,0,4,0,1,3,1,0,240,201,1,239,,,,,,,,,,,,,,,,,,
,,0,17,,,,,,,1,2,4,stim/24.jpeg,Instruments,1,stim/objects/Instruments/timbal.png,0.5,4,0.2,-0.15,left,48,2021-01-11_08h35.28.753,premup-three_ses-01_part-01_label-phase1,3.2.4,Win32,60,right,0.507999897,4,0,4,0,1,3,1,0,240,51,1,239,,,,,,,,,,,,,,,,,,
,,1,18,,,,,,,3,6,3,stim/63.jpeg,Instruments,1,stim/objects/Instruments/trumpet2.png,0.9,3,-0.2,-0.15,left,48,2021-01-11_08h35.28.753,premup-three_ses-01_part-01_label-phase1,3.2.4,Win32,60,left,0.519999981,4,0,4,0,1,3,1,0,240,218,1,239,,,,,,,,,,,,,,,,,,
,,0,19,,,,,,,1,1,1,stim/11.jpeg,HouseObjects,2,stim/objects/HouseObjects/recyclingbin.png,0.5,1,-0.2,0.15,right,48,2021-01-11_08h35.28.753,premup-three_ses-01_part-01_label-phase1,3.2.4,Win32,60,left,0.605000019,4,0,4,0,1,3,1,0,240,32,1,239,,,,,,,,,,,,,,,,,,
,,0,20,,,,,,,1,1,3,stim/13.jpeg,HouseObjects,2,stim/objects/HouseObjects/rubbergloves.png,0.5,2,0.2,0.15,right,48,2021-01-11_08h35.28.753,premup-three_ses-01_part-01_label-phase1,3.2.4,Win32,60,left,0.996999979,4,0,4,0,1,3,1,0,240,38,1,239,,,,,,,,,,,,,,,,,,
,,1,21,,,,,,,1,2,4,stim/24.jpeg,Instruments,1,stim/objects/Instruments/timbal.png,0.5,2,0.2,0.15,left,48,2021-01-11_08h35.28.753,premup-three_ses-01_part-01_label-phase1,3.2.4,Win32,60,left,1.017999887,4,0,4,0,1,3,1,0,240,55,1,239,,,,,,,,,,,,,,,,,,
,,1,22,,,,,,,1,2,3,stim/23.jpeg,Instruments,1,stim/objects/Instruments/tambourine.png,0.5,4,0.2,-0.15,left,48,2021-01-11_08h35.28.753,premup-three_ses-01_part-01_label-phase1,3.2.4,Win32,60,left,0.927000046,4,0,4,0,1,3,1,0,240,54,1,239,,,,,,,,,,,,,,,,,,
,,1,23,,,,,,,3,6,1,stim/61.jpeg,Instruments,1,stim/objects/Instruments/triangle2.png,0.9,4,0.2,-0.15,left,48,2021-01-11_08h35.28.753,premup-three_ses-01_part-01_label-phase1,3.2.4,Win32,60,left,1.368999958,4,0,4,0,1,3,1,0,240,228,1,239,,,,,,,,,,,,,,,,,,
,,1,24,,,,,,,1,1,4,stim/14.jpeg,Instruments,1,stim/objects/Instruments/record_player.png,0.5,1,-0.2,0.15,left,48,2021-01-11_08h35.28.753,premup-three_ses-01_part-01_label-phase1,3.2.4,Win32,60,left,1.010999918,4,0,4,0,1,3,1,0,240,19,1,239,,,,,,,,,,,,,,,,,,
,,1,25,,,,,,,3,5,4,stim/54.jpeg,HouseObjects,2,stim/objects/HouseObjects/sponge2.png,0.9,2,0.2,0.15,right,48,2021-01-11_08h35.28.753,premup-three_ses-01_part-01_label-phase1,3.2.4,Win32,60,right,0.618999958,4,0,4,0,1,3,1,0,240,191,1,239,,,,,,,,,,,,,,,,,,
,,1,26,,,,,,,1,2,3,stim/23.jpeg,Instruments,1,stim/objects/Instruments/tambourine.png,0.5,4,0.2,-0.15,left,48,2021-01-11_08h35.28.753,premup-three_ses-01_part-01_label-phase1,3.2.4,Win32,60,left,1.082999945,4,0,4,0,1,3,1,0,240,50,1,239,,,,,,,,,,,,,,,,,,
,,0,27,,,,,,,1,2,2,stim/22.jpeg,HouseObjects,2,stim/objects/HouseObjects/saw.png,0.5,1,-0.2,0.15,right,48,2021-01-11_08h35.28.753,premup-three_ses-01_part-01_label-phase1,3.2.4,Win32,60,left,1.003999949,4,0,4,0,1,3,1,0,240,69,1,239,,,,,,,,,,,,,,,,,,
,,1,28,,,,,,,3,5,1,stim/51.jpeg,HouseObjects,2,stim/objects/HouseObjects/safetypin2.png,0.9,1,-0.2,0.15,right,48,2021-01-11_08h35.28.753,premup-three_ses-01_part-01_label-phase1,3.2.4,Win32,60,right,0.523000002,4,0,4,0,1,3,1,0,240,176,1,239,,,,,,,,,,,,,,,,,,
,,1,29,,,,,,,3,5,4,stim/54.jpeg,HouseObjects,2,stim/objects/HouseObjects/sponge2.png,0.9,4,0.2,-0.15,right,48,2021-01-11_08h35.28.753,premup-three_ses-01_part-01_label-phase1,3.2.4,Win32,60,right,0.628000021,4,0,4,0,1,3,1,0,240,171,1,239,,,,,,,,,,,,,,,,,,
,,1,30,,,,,,,3,6,4,stim/64.jpeg,Instruments,1,stim/objects/Instruments/tuba2.png,0.9,3,-0.2,-0.15,left,48,2021-01-11_08h35.28.753,premup-three_ses-01_part-01_label-phase1,3.2.4,Win32,60,left,0.750999928,4,0,4,0,1,3,1,0,240,215,1,239,,,,,,,,,,,,,,,,,,
,,1,31,,,,,,,3,5,3,stim/53.jpeg,HouseObjects,2,stim/objects/HouseObjects/scale2.png,0.9,2,0.2,0.15,right,48,2021-01-11_08h35.28.753,premup-three_ses-01_part-01_label-phase1,3.2.4,Win32,60,right,0.522000074,4,0,4,0,1,3,1,0,240,186,1,239,,,,,,,,,,,,,,,,,,
,,0,32,,,,,,,2,3,1,stim/31.jpeg,HouseObjects,2,stim/objects/HouseObjects/spraybottle.png,0.7,4,0.2,-0.15,right,48,2021-01-11_08h35.28.753,premup-three_ses-01_part-01_label-phase1,3.2.4,Win32,60,left,0.946000099,4,0,4,0,1,3,1,0,240,100,1,239,,,,,,,,,,,,,,,,,,
,,1,33,,,,,,,2,4,1,stim/41.jpeg,Instruments,1,stim/objects/Instruments/panflute2.png,0.7,2,0.2,0.15,left,48,2021-01-11_08h35.28.753,premup-three_ses-01_part-01_label-phase1,3.2.4,Win32,60,left,1.095000029,4,0,4,0,1,3,1,0,240,120,1,239,,,,,,,,,,,,,,,,,,
,,1,34,,,,,,,3,5,1,stim/51.jpeg,HouseObjects,2,stim/objects/HouseObjects/safetypin2.png,0.9,4,0.2,-0.15,right,48,2021-01-11_08h35.28.753,premup-three_ses-01_part-01_label-phase1,3.2.4,Win32,60,right,0.537999868,4,0,4,0,1,3,1,0,240,180,1,239,,,,,,,,,,,,,,,,,,
,,1,35,,,,,,,3,6,2,stim/62.jpeg,Instruments,1,stim/objects/Instruments/trombone2.png,0.9,1,-0.2,0.15,left,48,2021-01-11_08h35.28.753,premup-three_ses-01_part-01_label-phase1,3.2.4,Win32,60,left,0.647999763,4,0,4,0,1,3,1,0,240,221,1,239,,,,,,,,,,,,,,,,,,
,,0,36,,,,,,,3,5,4,stim/54.jpeg,Instruments,1,stim/objects/Instruments/timbal2.png,0.1,1,-0.2,0.15,left,48,2021-01-11_08h35.28.753,premup-three_ses-01_part-01_label-phase1,3.2.4,Win32,60,right,0.558999777,4,0,4,0,1,3,1,0,240,163,1,239,,,,,,,,,,,,,,,,,,
,,1,37,,,,,,,3,5,2,stim/52.jpeg,HouseObjects,2,stim/objects/HouseObjects/saw2.png,0.9,2,0.2,0.15,right,48,2021-01-11_08h35.28.753,premup-three_ses-01_part-01_label-phase1,3.2.4,Win32,60,right,0.527999878,4,0,4,0,1,3,1,0,240,197,1,239,,,,,,,,,,,,,,,,,,
,,1,38,,,,,,,2,4,1,stim/41.jpeg,Instruments,1,stim/objects/Instruments/panflute2.png,0.7,2,0.2,0.15,left,48,2021-01-11_08h35.28.753,premup-three_ses-01_part-01_label-phase1,3.2.4,Win32,60,left,0.845000029,4,0,4,0,1,3,1,0,240,140,1,239,,,,,,,,,,,,,,,,,,
,,1,39,,,,,,,2,4,4,stim/44.jpeg,Instruments,1,stim/objects/Instruments/record_player2.png,0.7,1,-0.2,0.15,left,48,2021-01-11_08h35.28.753,premup-three_ses-01_part-01_label-phase1,3.2.4,Win32,60,left,1.210999727,4,0,4,0,1,3,1,0,240,143,1,239,,,,,,,,,,,,,,,,,,
,,0,40,,,,,,,1,1,1,stim/11.jpeg,Instruments,1,stim/objects/Instruments/panflute.png,0.5,1,-0.2,0.15,left,48,2021-01-11_08h35.28.753,premup-three_ses-01_part-01_label-phase1,3.2.4,Win32,60,right,0.976000071,4,0,4,0,1,3,1,0,240,4,1,239,,,,,,,,,,,,,,,,,,
,,1,41,,,,,,,1,2,1,stim/21.jpeg,Instruments,1,stim/objects/Instruments/saxophone.png,0.5,4,0.2,-0.15,left,48,2021-01-11_08h35.28.753,premup-three_ses-01_part-01_label-phase1,3.2.4,Win32,60,left,0.754999876,4,0,4,0,1,3,1,0,240,52,1,239,,,,,,,,,,,,,,,,,,
,,1,42,,,,,,,3,5,4,stim/54.jpeg,HouseObjects,2,stim/objects/HouseObjects/sponge2.png,0.9,3,-0.2,-0.15,right,48,2021-01-11_08h35.28.753,premup-three_ses-01_part-01_label-phase1,3.2.4,Win32,60,right,0.609999895,4,0,4,0,1,3,1,0,240,175,1,239,,,,,,,,,,,,,,,,,,
,,0,43,,,,,,,2,3,1,stim/31.jpeg,HouseObjects,2,stim/objects/HouseObjects/spraybottle.png,0.7,4,0.2,-0.15,right,48,2021-01-11_08h35.28.753,premup-three_ses-01_part-01_label-phase1,3.2.4,Win32,60,left,0.689999819,4,0,4,0,1,3,1,0,240,96,1,239,,,,,,,,,,,,,,,,,,
,,1,44,,,,,,,1,1,3,stim/13.jpeg,Instruments,1,stim/objects/Instruments/record.png,0.5,3,-0.2,-0.15,left,48,2021-01-11_08h35.28.753,premup-three_ses-01_part-01_label-phase1,3.2.4,Win32,60,left,0.820999861,4,0,4,0,1,3,1,0,240,2,1,239,,,,,,,,,,,,,,,,,,
,,1,45,,,,,,,2,3,4,stim/34.jpeg,HouseObjects,2,stim/objects/HouseObjects/thread.png,0.7,3,-0.2,-0.15,right,48,2021-01-11_08h35.28.753,premup-three_ses-01_part-01_label-phase1,3.2.4,Win32,60,right,0.733999968,4,0,4,0,1,3,1,0,240,119,1,239,,,,,,,,,,,,,,,,,,
,,0,46,,,,,,,3,5,1,stim/51.jpeg,Instruments,1,stim/objects/Instruments/saxophone2.png,0.1,4,0.2,-0.15,left,48,2021-01-11_08h35.28.753,premup-three_ses-01_part-01_label-phase1,3.2.4,Win32,60,right,0.635999918,4,0,4,0,1,3,1,0,240,160,1,239,,,,,,,,,,,,,,,,,,
,,1,47,,,,,,,1,1,2,stim/12.jpeg,Instruments,1,stim/objects/Instruments/pipepiano.png,0.5,4,0.2,-0.15,left,48,2021-01-11_08h35.28.753,premup-three_ses-01_part-01_label-phase1,3.2.4,Win32,60,left,0.866999865,4,0,4,0,1,3,1,0,240,1,1,239,,,,,,,,,,,,,,,,,,
,,0,48,,,,,,,2,4,3,stim/43.jpeg,Instruments,1,stim/objects/Instruments/record2.png,0.7,1,-0.2,0.15,left,48,2021-01-11_08h35.28.753,premup-three_ses-01_part-01_label-phase1,3.2.4,Win32,60,right,1.467000008,4,0,4,0,1,3,1,0,240,142,1,239,,,,,,,,,,,,,,,,,,
,,1,49,,,,,,,3,5,4,stim/54.jpeg,HouseObjects,2,stim/objects/HouseObjects/sponge2.png,0.9,4,0.2,-0.15,right,48,2021-01-11_08h35.28.753,premup-three_ses-01_part-01_label-phase1,3.2.4,Win32,60,right,0.638000011,4,0,4,0,1,3,1,0,240,199,1,239,,,,,,,,,,,,,,,,,,
,,1,50,,,,,,,1,2,1,stim/21.jpeg,Instruments,1,stim/objects/Instruments/saxophone.png,0.5,4,0.2,-0.15,left,48,2021-01-11_08h35.28.753,premup-three_ses-01_part-01_label-phase1,3.2.4,Win32,60,left,1.082000017,4,0,4,0,1,3,1,0,240,56,1,239,,,,,,,,,,,,,,,,,,
,,1,51,,,,,,,2,4,1,stim/41.jpeg,Instruments,1,stim/objects/Instruments/panflute2.png,0.7,1,-0.2,0.15,left,48,2021-01-11_08h35.28.753,premup-three_ses-01_part-01_label-phase1,3.2.4,Win32,60,left,0.835000038,4,0,4,0,1,3,1,0,240,124,1,239,,,,,,,,,,,,,,,,,,
,,1,52,,,,,,,2,3,2,stim/32.jpeg,Instruments,1,stim/objects/Instruments/trombone.png,0.3,2,0.2,0.15,left,48,2021-01-11_08h35.28.753,premup-three_ses-01_part-01_label-phase1,3.2.4,Win32,60,left,0.90199995,4,0,4,0,1,3,1,0,240,85,1,239,,,,,,,,,,,,,,,,,,
,,0,53,,,,,,,2,3,2,stim/32.jpeg,HouseObjects,2,stim/objects/HouseObjects/teapot.png,0.7,3,-0.2,-0.15,right,48,2021-01-11_08h35.28.753,premup-three_ses-01_part-01_label-phase1,3.2.4,Win32,60,left,0.65199995,4,0,4,0,1,3,1,0,240,113,1,239,,,,,,,,,,,,,,,,,,
,,1,54,,,,,,,2,3,3,stim/33.jpeg,HouseObjects,2,stim/objects/HouseObjects/thermometer.png,0.7,4,0.2,-0.15,right,48,2021-01-11_08h35.28.753,premup-three_ses-01_part-01_label-phase1,3.2.4,Win32,60,right,0.801999807,4,0,4,0,1,3,1,0,240,102,1,239,,,,,,,,,,,,,,,,,,
,,0,55,,,,,,,1,2,3,stim/23.jpeg,HouseObjects,2,stim/objects/HouseObjects/scale.png,0.5,2,0.2,0.15,right,48,2021-01-11_08h35.28.753,premup-three_ses-01_part-01_label-phase1,3.2.4,Win32,60,left,0.845999956,4,0,4,0,1,3,1,0,240,74,1,239,,,,,,,,,,,,,,,,,,
,,0,56,,,,,,,2,4,2,stim/42.jpeg,Instruments,1,stim/objects/Instruments/pipepiano2.png,0.7,2,0.2,0.15,left,48,2021-01-11_08h35.28.753,premup-three_ses-01_part-01_label-phase1,3.2.4,Win32,60,right,1.056999922,4,0,4,0,1,3,1,0,240,137,1,239,,,,,,,,,,,,,,,,,,
,,1,57,,,,,,,2,3,1,stim/31.jpeg,Instruments,1,stim/objects/Instruments/triangle.png,0.3,3,-0.2,-0.15,left,48,2021-01-11_08h35.28.753,premup-three_ses-01_part-01_label-phase1,3.2.4,Win32,60,left,0.708999872,4,0,4,0,1,3,1,0,240,88,1,239,,,,,,,,,,,,,,,,,,
,,0,58,,,,,,,2,3,2,stim/32.jpeg,HouseObjects,2,stim/objects/HouseObjects/teapot.png,0.7,3,-0.2,-0.15,right,48,2021-01-11_08h35.28.753,premup-three_ses-01_part-01_label-phase1,3.2.4,Win32,60,left,0.802000046,4,0,4,0,1,3,1,0,240,101,1,239,,,,,,,,,,,,,,,,,,
,,1,59,,,,,,,3,6,2,stim/62.jpeg,Instruments,1,stim/objects/Instruments/trombone2.png,0.9,1,-0.2,0.15,left,48,2021-01-11_08h35.28.753,premup-three_ses-01_part-01_label-phase1,3.2.4,Win32,60,left,0.590999842,4,0,4,0,1,3,1,0,240,205,1,239,,,,,,,,,,,,,,,,,,
,,1,60,,,,,,,2,4,4,stim/44.jpeg,Instruments,1,stim/objects/Instruments/record_player2.png,0.7,3,-0.2,-0.15,left,48,2021-01-11_08h35.28.753,premup-three_ses-01_part-01_label-phase1,3.2.4,Win32,60,left,1.055000067,4,0,4,0,1,3,1,0,240,123,1,239,,,,,,,,,,,,,,,,,,
,,0,61,,,,,,,1,1,4,stim/14.jpeg,Instruments,1,stim/objects/Instruments/record_player.png,0.5,4,0.2,-0.15,left,48,2021-01-11_08h35.28.753,premup-three_ses-01_part-01_label-phase1,3.2.4,Win32,60,right,1.014999866,4,0,4,0,1,3,1,0,240,7,1,239,,,,,,,,,,,,,,,,,,
,,1,62,,,,,,,1,2,2,stim/22.jpeg,Instruments,1,stim/objects/Instruments/speaker.png,0.5,4,0.2,-0.15,left,48,2021-01-11_08h35.28.753,premup-three_ses-01_part-01_label-phase1,3.2.4,Win32,60,left,0.964999914,4,0,4,0,1,3,1,0,240,49,1,239,,,,,,,,,,,,,,,,,,
,,1,63,,,,,,,2,4,4,stim/44.jpeg,Instruments,1,stim/objects/Instruments/record_player2.png,0.7,1,-0.2,0.15,left,48,2021-01-11_08h35.28.753,premup-three_ses-01_part-01_label-phase1,3.2.4,Win32,60,left,0.961999893,4,0,4,0,1,3,1,0,240,127,1,239,,,,,,,,,,,,,,,,,,
,,1,64,,,,,,,1,1,3,stim/13.jpeg,HouseObjects,2,stim/objects/HouseObjects/rubbergloves.png,0.5,4,0.2,-0.15,right,48,2021-01-11_08h35.28.753,premup-three_ses-01_part-01_label-phase1,3.2.4,Win32,60,right,0.965999842,4,0,4,0,1,3,1,0,240,26,1,239,,,,,,,,,,,,,,,,,,
,,1,65,,,,,,,3,5,1,stim/51.jpeg,HouseObjects,2,stim/objects/HouseObjects/safetypin2.png,0.9,4,0.2,-0.15,right,48,2021-01-11_08h35.28.753,premup-three_ses-01_part-01_label-phase1,3.2.4,Win32,60,right,0.59800005,4,0,4,0,1,3,1,0,240,188,1,239,,,,,,,,,,,,,,,,,,
,,0,66,,,,,,,1,2,3,stim/23.jpeg,HouseObjects,2,stim/objects/HouseObjects/scale.png,0.5,1,-0.2,0.15,right,48,2021-01-11_08h35.28.753,premup-three_ses-01_part-01_label-phase1,3.2.4,Win32,60,left,1.150000095,4,0,4,0,1,3,1,0,240,78,1,239,,,,,,,,,,,,,,,,,,
,,1,67,,,,,,,3,6,3,stim/63.jpeg,Instruments,1,stim/objects/Instruments/trumpet2.png,0.9,4,0.2,-0.15,left,48,2021-01-11_08h35.28.753,premup-three_ses-01_part-01_label-phase1,3.2.4,Win32,60,left,0.669999838,4,0,4,0,1,3,1,0,240,234,1,239,,,,,,,,,,,,,,,,,,
,,0,68,,,,,,,1,2,2,stim/22.jpeg,HouseObjects,2,stim/objects/HouseObjects/saw.png,0.5,1,-0.2,0.15,right,48,2021-01-11_08h35.28.753,premup-three_ses-01_part-01_label-phase1,3.2.4,Win32,60,left,0.962000132,4,0,4,0,1,3,1,0,240,73,1,239,,,,,,,,,,,,,,,,,,
,,0,69,,,,,,,1,1,1,stim/11.jpeg,HouseObjects,2,stim/objects/HouseObjects/recyclingbin.png,0.5,2,0.2,0.15,right,48,2021-01-11_08h35.28.753,premup-three_ses-01_part-01_label-phase1,3.2.4,Win32,60,left,0.934999943,4,0,4,0,1,3,1,0,240,28,1,239,,,,,,,,,,,,,,,,,,
,,0,70,,,,,,,2,3,1,stim/31.jpeg,HouseObjects,2,stim/objects/HouseObjects/spraybottle.png,0.7,2,0.2,0.15,right,48,2021-01-11_08h35.28.753,premup-three_ses-01_part-01_label-phase1,3.2.4,Win32,60,left,0.687999964,4,0,4,0,1,3,1,0,240,108,1,239,,,,,,,,,,,,,,,,,,
,,1,71,,,,,,,2,4,3,stim/43.jpeg,Instruments,1,stim/objects/Instruments/record2.png,0.7,1,-0.2,0.15,left,48,2021-01-11_08h35.28.753,premup-three_ses-01_part-01_label-phase1,3.2.4,Win32,60,left,0.965999842,4,0,4,0,1,3,1,0,240,134,1,239,,,,,,,,,,,,,,,,,,
,,0,72,,,,,,,1,1,1,stim/11.jpeg,HouseObjects,2,stim/objects/HouseObjects/recyclingbin.png,0.5,2,0.2,0.15,right,48,2021-01-11_08h35.28.753,premup-three_ses-01_part-01_label-phase1,3.2.4,Win32,60,left,1.16899991,4,0,4,0,1,3,1,0,240,24,1,239,,,,,,,,,,,,,,,,,,
,,0,73,,,,,,,1,1,2,stim/12.jpeg,HouseObjects,2,stim/objects/HouseObjects/remote.png,0.5,3,-0.2,-0.15,right,48,2021-01-11_08h35.28.753,premup-three_ses-01_part-01_label-phase1,3.2.4,Win32,60,left,0.893000126,4,0,4,0,1,3,1,0,240,37,1,239,,,,,,,,,,,,,,,,,,
,,1,74,,,,,,,1,2,2,stim/22.jpeg,HouseObjects,2,stim/objects/HouseObjects/saw.png,0.5,2,0.2,0.15,right,48,2021-01-11_08h35.28.753,premup-three_ses-01_part-01_label-phase1,3.2.4,Win32,60,right,0.749000072,4,0,4,0,1,3,1,0,240,65,1,239,,,,,,,,,,,,,,,,,,
,,1,75,,,,,,,2,3,1,stim/31.jpeg,Instruments,1,stim/objects/Instruments/triangle.png,0.3,2,0.2,0.15,left,48,2021-01-11_08h35.28.753,premup-three_ses-01_part-01_label-phase1,3.2.4,Win32,60,left,0.799999952,4,0,4,0,1,3,1,0,240,84,1,239,,,,,,,,,,,,,,,,,,
,,1,76,,,,,,,3,6,2,stim/62.jpeg,Instruments,1,stim/objects/Instruments/trombone2.png,0.9,1,-0.2,0.15,left,48,2021-01-11_08h35.28.753,premup-three_ses-01_part-01_label-phase1,3.2.4,Win32,60,left,0.59800005,4,0,4,0,1,3,1,0,240,217,1,239,,,,,,,,,,,,,,,,,,
,,1,77,,,,,,,3,5,4,stim/54.jpeg,HouseObjects,2,stim/objects/HouseObjects/sponge2.png,0.9,1,-0.2,0.15,right,48,2021-01-11_08h35.28.753,premup-three_ses-01_part-01_label-phase1,3.2.4,Win32,60,right,0.535000086,4,0,4,0,1,3,1,0,240,187,1,239,,,,,,,,,,,,,,,,,,
,,0,78,,,,,,,2,3,2,stim/32.jpeg,HouseObjects,2,stim/objects/HouseObjects/teapot.png,0.7,1,-0.2,0.15,right,48,2021-01-11_08h35.28.753,premup-three_ses-01_part-01_label-phase1,3.2.4,Win32,60,left,0.937999964,4,0,4,0,1,3,1,0,240,109,1,239,,,,,,,,,,,,,,,,,,
,,0,79,,,,,,,2,4,1,stim/41.jpeg,HouseObjects,2,stim/objects/HouseObjects/recyclingbin2.png,0.3,3,-0.2,-0.15,right,48,2021-01-11_08h35.28.753,premup-three_ses-01_part-01_label-phase1,3.2.4,Win32,60,left,1.400999784,4,0,4,0,1,3,1,0,240,152,1,239,,,,,,,,,,,,,,,,,,
,,1,80,,,,,,,3,6,1,stim/61.jpeg,Instruments,1,stim/objects/Instruments/triangle2.png,0.9,2,0.2,0.15,left,48,2021-01-11_08h35.28.753,premup-three_ses-01_part-01_label-phase1,3.2.4,Win32,60,left,0.733999968,4,0,4,0,1,3,1,0,240,208,1,239,,,,,,,,,,,,,,,,,,
,,0,81,,,,,,,2,3,4,stim/34.jpeg,HouseObjects,2,stim/objects/HouseObjects/thread.png,0.7,4,0.2,-0.15,right,48,2021-01-11_08h35.28.753,premup-three_ses-01_part-01_label-phase1,3.2.4,Win32,60,left,0.995999813,4,0,4,0,1,3,1,0,240,95,1,239,,,,,,,,,,,,,,,,,,
,,0,82,,,,,,,1,1,2,stim/12.jpeg,HouseObjects,2,stim/objects/HouseObjects/remote.png,0.5,2,0.2,0.15,right,48,2021-01-11_08h35.28.753,premup-three_ses-01_part-01_label-phase1,3.2.4,Win32,60,left,0.947999954,4,0,4,0,1,3,1,0,240,21,1,239,,,,,,,,,,,,,,,,,,
,,1,83,,,,,,,3,5,1,stim/51.jpeg,HouseObjects,2,stim/objects/HouseObjects/safetypin2.png,0.9,3,-0.2,-0.15,right,48,2021-01-11_08h35.28.753,premup-three_ses-01_part-01_label-phase1,3.2.4,Win32,60,right,0.709000111,4,0,4,0,1,3,1,0,240,196,1,239,,,,,,,,,,,,,,,,,,
,,0,84,,,,,,,2,4,3,stim/43.jpeg,HouseObjects,2,stim/objects/HouseObjects/rubbergloves2.png,0.3,4,0.2,-0.15,right,48,2021-01-11_08h35.28.753,premup-three_ses-01_part-01_label-phase1,3.2.4,Win32,60,left,0.895999908,4,0,4,0,1,3,1,0,240,154,1,239,,,,,,,,,,,,,,,,,,
,,0,85,,,,,,,2,3,3,stim/33.jpeg,HouseObjects,2,stim/objects/HouseObjects/thermometer.png,0.7,1,-0.2,0.15,right,48,2021-01-11_08h35.28.753,premup-three_ses-01_part-01_label-phase1,3.2.4,Win32,60,left,1.036000013,4,0,4,0,1,3,1,0,240,98,1,239,,,,,,,,,,,,,,,,,,
,,1,86,,,,,,,2,3,4,stim/34.jpeg,HouseObjects,2,stim/objects/HouseObjects/thread.png,0.7,4,0.2,-0.15,right,48,2021-01-11_08h35.28.753,premup-three_ses-01_part-01_label-phase1,3.2.4,Win32,60,right,1.02699995,4,0,4,0,1,3,1,0,240,99,1,239,,,,,,,,,,,,,,,,,,
,,1,87,,,,,,,3,6,2,stim/62.jpeg,Instruments,1,stim/objects/Instruments/trombone2.png,0.9,1,-0.2,0.15,left,48,2021-01-11_08h35.28.753,premup-three_ses-01_part-01_label-phase1,3.2.4,Win32,60,left,0.53399992,4,0,4,0,1,3,1,0,240,213,1,239,,,,,,,,,,,,,,,,,,
,,0,88,,,,,,,1,1,4,stim/14.jpeg,HouseObjects,2,stim/objects/HouseObjects/rug.png,0.5,3,-0.2,-0.15,right,48,2021-01-11_08h35.28.753,premup-three_ses-01_part-01_label-phase1,3.2.4,Win32,60,left,1.063999891,4,0,4,0,1,3,1,0,240,35,1,239,,,,,,,,,,,,,,,,,,
,,1,89,,,,,,,3,6,1,stim/61.jpeg,Instruments,1,stim/objects/Instruments/triangle2.png,0.9,3,-0.2,-0.15,left,48,2021-01-11_08h35.28.753,premup-three_ses-01_part-01_label-phase1,3.2.4,Win32,60,left,0.648999929,4,0,4,0,1,3,1,0,240,200,1,239,,,,,,,,,,,,,,,,,,
,,1,90,,,,,,,1,1,2,stim/12.jpeg,HouseObjects,2,stim/objects/HouseObjects/remote.png,0.5,2,0.2,0.15,right,48,2021-01-11_08h35.28.753,premup-three_ses-01_part-01_label-phase1,3.2.4,Win32,60,right,0.499999762,4,0,4,0,1,3,1,0,240,33,1,239,,,,,,,,,,,,,,,,,,
,,1,91,,,,,,,3,6,4,stim/64.jpeg,Instruments,1,stim/objects/Instruments/tuba2.png,0.9,1,-0.2,0.15,left,48,2021-01-11_08h35.28.753,premup-three_ses-01_part-01_label-phase1,3.2.4,Win32,60,left,0.566999912,4,0,4,0,1,3,1,0,240,235,1,239,,,,,,,,,,,,,,,,,,
,,0,92,,,,,,,2,4,4,stim/44.jpeg,HouseObjects,2,stim/objects/HouseObjects/rug2.png,0.3,2,0.2,0.15,right,48,2021-01-11_08h35.28.753,premup-three_ses-01_part-01_label-phase1,3.2.4,Win32,60,left,1.674000025,4,0,4,0,1,3,1,0,240,155,1,239,,,,,,,,,,,,,,,,,,
,,1,93,,,,,,,2,4,2,stim/42.jpeg,Instruments,1,stim/objects/Instruments/pipepiano2.png,0.7,3,-0.2,-0.15,left,48,2021-01-11_08h35.28.753,premup-three_ses-01_part-01_label-phase1,3.2.4,Win32,60,left,1.245000124,4,0,4,0,1,3,1,0,240,121,1,239,,,,,,,,,,,,,,,,,,
,,0,94,,,,,,,2,4,4,stim/44.jpeg,HouseObjects,2,stim/objects/HouseObjects/rug2.png,0.3,1,-0.2,0.15,right,48,2021-01-11_08h35.28.753,premup-three_ses-01_part-01_label-phase1,3.2.4,Win32,60,left,0.922999859,4,0,4,0,1,3,1,0,240,159,1,239,,,,,,,,,,,,,,,,,,
,,0,95,,,,,,,1,1,2,stim/12.jpeg,Instruments,1,stim/objects/Instruments/pipepiano.png,0.5,2,0.2,0.15,left,48,2021-01-11_08h35.28.753,premup-three_ses-01_part-01_label-phase1,3.2.4,Win32,60,right,0.611000061,4,0,4,0,1,3,1,0,240,5,1,239,,,,,,,,,,,,,,,,,,
,,1,96,,,,,,,2,4,3,stim/43.jpeg,Instruments,1,stim/objects/Instruments/record2.png,0.7,1,-0.2,0.15,left,48,2021-01-11_08h35.28.753,premup-three_ses-01_part-01_label-phase1,3.2.4,Win32,60,left,1.085999966,4,0,4,0,1,3,1,0,240,146,1,239,,,,,,,,,,,,,,,,,,
,,0,97,,,,,,,1,2,2,stim/22.jpeg,HouseObjects,2,stim/objects/HouseObjects/saw.png,0.5,3,-0.2,-0.15,right,48,2021-01-11_08h35.28.753,premup-three_ses-01_part-01_label-phase1,3.2.4,Win32,60,left,1.016000032,4,0,4,0,1,3,1,0,240,77,1,239,,,,,,,,,,,,,,,,,,
,,1,98,,,,,,,3,6,4,stim/64.jpeg,Instruments,1,stim/objects/Instruments/tuba2.png,0.9,2,0.2,0.15,left,48,2021-01-11_08h35.28.753,premup-three_ses-01_part-01_label-phase1,3.2.4,Win32,60,left,0.547999859,4,0,4,0,1,3,1,0,240,211,1,239,,,,,,,,,,,,,,,,,,
,,1,99,,,,,,,1,2,4,stim/24.jpeg,HouseObjects,2,stim/objects/HouseObjects/sponge.png,0.5,2,0.2,0.15,right,48,2021-01-11_08h35.28.753,premup-three_ses-01_part-01_label-phase1,3.2.4,Win32,60,right,0.774999857,4,0,4,0,1,3,1,0,240,71,1,239,,,,,,,,,,,,,,,,,,
,,1,100,,,,,,,1,2,1,stim/21.jpeg,HouseObjects,2,stim/objects/HouseObjects/safetypin.png,0.5,3,-0.2,-0.15,right,48,2021-01-11_08h35.28.753,premup-three_ses-01_part-01_label-phase1,3.2.4,Win32,60,right,0.536999941,4,0,4,0,1,3,1,0,240,76,1,239,,,,,,,,,,,,,,,,,,
,,1,101,,,,,,,3,5,1,stim/51.jpeg,HouseObjects,2,stim/objects/HouseObjects/safetypin2.png,0.9,3,-0.2,-0.15,right,48,2021-01-11_08h35.28.753,premup-three_ses-01_part-01_label-phase1,3.2.4,Win32,60,right,0.683000088,4,0,4,0,1,3,1,0,240,172,1,239,,,,,,,,,,,,,,,,,,
,,1,102,,,,,,,3,5,3,stim/53.jpeg,HouseObjects,2,stim/objects/HouseObjects/scale2.png,0.9,2,0.2,0.15,right,48,2021-01-11_08h35.28.753,premup-three_ses-01_part-01_label-phase1,3.2.4,Win32,60,right,0.586999893,4,0,4,0,1,3,1,0,240,174,1,239,,,,,,,,,,,,,,,,,,
,,1,103,,,,,,,1,1,4,stim/14.jpeg,HouseObjects,2,stim/objects/HouseObjects/rug.png,0.5,1,-0.2,0.15,right,48,2021-01-11_08h35.28.753,premup-three_ses-01_part-01_label-phase1,3.2.4,Win32,60,right,0.898999929,4,0,4,0,1,3,1,0,240,31,1,239,,,,,,,,,,,,,,,,,,
,,0,104,,,,,,,1,1,4,stim/14.jpeg,Instruments,1,stim/objects/Instruments/record_player.png,0.5,4,0.2,-0.15,left,48,2021-01-11_08h35.28.753,premup-three_ses-01_part-01_label-phase1,3.2.4,Win32,60,right,0.468999863,4,0,4,0,1,3,1,0,240,3,1,239,,,,,,,,,,,,,,,,,,
,,0,105,,,,,,,2,3,3,stim/33.jpeg,HouseObjects,2,stim/objects/HouseObjects/thermometer.png,0.7,4,0.2,-0.15,right,48,2021-01-11_08h35.28.753,premup-three_ses-01_part-01_label-phase1,3.2.4,Win32,60,left,0.91899991,4,0,4,0,1,3,1,0,240,118,1,239,,,,,,,,,,,,,,,,,,
,,1,106,,,,,,,1,2,1,stim/21.jpeg,HouseObjects,2,stim/objects/HouseObjects/safetypin.png,0.5,4,0.2,-0.15,right,48,2021-01-11_08h35.28.753,premup-three_ses-01_part-01_label-phase1,3.2.4,Win32,60,right,0.767999887,4,0,4,0,1,3,1,0,240,72,1,239,,,,,,,,,,,,,,,,,,
,,1,107,,,,,,,3,5,4,stim/54.jpeg,HouseObjects,2,stim/objects/HouseObjects/sponge2.png,0.9,1,-0.2,0.15,right,48,2021-01-11_08h35.28.753,premup-three_ses-01_part-01_label-phase1,3.2.4,Win32,60,right,0.505000114,4,0,4,0,1,3,1,0,240,167,1,239,,,,,,,,,,,,,,,,,,
,,0,108,,,,,,,2,4,3,stim/43.jpeg,Instruments,1,stim/objects/Instruments/record2.png,0.7,3,-0.2,-0.15,left,48,2021-01-11_08h35.28.753,premup-three_ses-01_part-01_label-phase1,3.2.4,Win32,60,right,1.195999861,4,0,4,0,1,3,1,0,240,122,1,239,,,,,,,,,,,,,,,,,,
,,1,109,,,,,,,1,2,3,stim/23.jpeg,HouseObjects,2,stim/objects/HouseObjects/scale.png,0.5,3,-0.2,-0.15,right,48,2021-01-11_08h35.28.753,premup-three_ses-01_part-01_label-phase1,3.2.4,Win32,60,right,0.778000116,4,0,4,0,1,3,1,0,240,62,1,239,,,,,,,,,,,,,,,,,,
,,1,110,,,,,,,3,5,3,stim/53.jpeg,HouseObjects,2,stim/objects/HouseObjects/scale2.png,0.9,1,-0.2,0.15,right,48,2021-01-11_08h35.28.753,premup-three_ses-01_part-01_label-phase1,3.2.4,Win32,60,right,0.548999786,4,0,4,0,1,3,1,0,240,198,1,239,,,,,,,,,,,,,,,,,,
,,1,111,,,,,,,2,4,2,stim/42.jpeg,HouseObjects,2,stim/objects/HouseObjects/remote2.png,0.3,2,0.2,0.15,right,48,2021-01-11_08h35.28.753,premup-three_ses-01_part-01_label-phase1,3.2.4,Win32,60,right,0.666999817,4,0,4,0,1,3,1,0,240,157,1,239,,,,,,,,,,,,,,,,,,
,,0,112,,,,,,,2,3,4,stim/34.jpeg,HouseObjects,2,stim/objects/HouseObjects/thread.png,0.7,3,-0.2,-0.15,right,48,2021-01-11_08h35.28.753,premup-three_ses-01_part-01_label-phase1,3.2.4,Win32,60,left,0.821000099,4,0,4,0,1,3,1,0,240,103,1,239,,,,,,,,,,,,,,,,,,
,,0,113,,,,,,,1,2,4,stim/24.jpeg,Instruments,1,stim/objects/Instruments/timbal.png,0.5,3,-0.2,-0.15,left,48,2021-01-11_08h35.28.753,premup-three_ses-01_part-01_label-phase1,3.2.4,Win32,60,right,0.616999865,4,0,4,0,1,3,1,0,240,47,1,239,,,,,,,,,,,,,,,,,,
,,1,114,,,,,,,2,3,3,stim/33.jpeg,HouseObjects,2,stim/objects/HouseObjects/thermometer.png,0.7,2,0.2,0.15,right,48,2021-01-11_08h35.28.753,premup-three_ses-01_part-01_label-phase1,3.2.4,Win32,60,right,0.582000017,4,0,4,0,1,3,1,0,240,94,1,239,,,,,,,,,,,,,,,,,,
,,0,115,,,,,,,3,5,2,stim/52.jpeg,Instruments,1,stim/objects/Instruments/speaker2.png,0.1,3,-0.2,-0.15,left,48,2021-01-11_08h35.28.753,premup-three_ses-01_part-01_label-phase1,3.2.4,Win32,60,right,0.640000105,4,0,4,0,1,3,1,0,240,161,1,239,,,,,,,,,,,,,,,,,,
,,1,116,,,,,,,2,4,4,stim/44.jpeg,Instruments,1,stim/objects/Instruments/record_player2.png,0.7,1,-0.2,0.15,left,48,2021-01-11_08h35.28.753,premup-three_ses-01_part-01_label-phase1,3.2.4,Win32,60,left,0.929999828,4,0,4,0,1,3,1,0,240,131,1,239,,,,,,,,,,,,,,,,,,
,,1,117,,,,,,,2,3,3,stim/33.jpeg,HouseObjects,2,stim/objects/HouseObjects/thermometer.png,0.7,1,-0.2,0.15,right,48,2021-01-11_08h35.28.753,premup-three_ses-01_part-01_label-phase1,3.2.4,Win32,60,right,0.628999949,4,0,4,0,1,3,1,0,240,106,1,239,,,,,,,,,,,,,,,,,,
,,1,118,,,,,,,3,5,3,stim/53.jpeg,HouseObjects,2,stim/objects/HouseObjects/scale2.png,0.9,1,-0.2,0.15,right,48,2021-01-11_08h35.28.753,premup-three_ses-01_part-01_label-phase1,3.2.4,Win32,60,right,0.523000002,4,0,4,0,1,3,1,0,240,178,1,239,,,,,,,,,,,,,,,,,,
,,0,119,,,,,,,2,3,2,stim/32.jpeg,Instruments,1,stim/objects/Instruments/trombone.png,0.3,2,0.2,0.15,left,48,2021-01-11_08h35.28.753,premup-three_ses-01_part-01_label-phase1,3.2.4,Win32,60,right,0.76699996,4,0,4,0,1,3,1,0,240,81,1,239,,,,,,,,,,,,,,,,,,
,,0,120,,,,,,,1,1,1,stim/11.jpeg,Instruments,1,stim/objects/Instruments/panflute.png,0.5,4,0.2,-0.15,left,48,2021-01-11_08h35.28.753,premup-three_ses-01_part-01_label-phase1,3.2.4,Win32,60,right,0.753999949,4,0,4,0,1,3,1,0,240,0,1,239,,,,,,,,,,,,,,,,,,
,,1,121,,,,,,,2,3,1,stim/31.jpeg,HouseObjects,2,stim/objects/HouseObjects/spraybottle.png,0.7,1,-0.2,0.15,right,48,2021-01-11_08h35.28.753,premup-three_ses-01_part-01_label-phase1,3.2.4,Win32,60,right,0.65899992,4,0,4,0,1,3,1,0,240,104,1,239,,,,,,,,,,,,,,,,,,
,,1,122,,,,,,,3,6,3,stim/63.jpeg,Instruments,1,stim/objects/Instruments/trumpet2.png,0.9,4,0.2,-0.15,left,48,2021-01-11_08h35.28.753,premup-three_ses-01_part-01_label-phase1,3.2.4,Win32,60,left,0.721999884,4,0,4,0,1,3,1,0,240,202,1,239,,,,,,,,,,,,,,,,,,
,,0,123,,,,,,,2,4,2,stim/42.jpeg,Instruments,1,stim/objects/Instruments/pipepiano2.png,0.7,4,0.2,-0.15,left,48,2021-01-11_08h35.28.753,premup-three_ses-01_part-01_label-phase1,3.2.4,Win32,60,right,0.708999872,4,0,4,0,1,3,1,0,240,145,1,239,,,,,,,,,,,,,,,,,,
,,1,124,,,,,,,3,5,2,stim/52.jpeg,HouseObjects,2,stim/objects/HouseObjects/saw2.png,0.9,1,-0.2,0.15,right,48,2021-01-11_08h35.28.753,premup-three_ses-01_part-01_label-phase1,3.2.4,Win32,60,right,0.534999847,4,0,4,0,1,3,1,0,240,177,1,239,,,,,,,,,,,,,,,,,,
,,0,125,,,,,,,2,4,1,stim/41.jpeg,HouseObjects,2,stim/objects/HouseObjects/recyclingbin2.png,0.3,4,0.2,-0.15,right,48,2021-01-11_08h35.28.753,premup-three_ses-01_part-01_label-phase1,3.2.4,Win32,60,left,0.763000011,4,0,4,0,1,3,1,0,240,156,1,239,,,,,,,,,,,,,,,,,,
,,1,126,,,,,,,1,1,3,stim/13.jpeg,Instruments,1,stim/objects/Instruments/record.png,0.5,3,-0.2,-0.15,left,48,2021-01-11_08h35.28.753,premup-three_ses-01_part-01_label-phase1,3.2.4,Win32,60,left,0.881999969,4,0,4,0,1,3,1,0,240,10,1,239,,,,,,,,,,,,,,,,,,
,,1,127,,,,,,,2,3,3,stim/33.jpeg,HouseObjects,2,stim/objects/HouseObjects/thermometer.png,0.7,4,0.2,-0.15,right,48,2021-01-11_08h35.28.753,premup-three_ses-01_part-01_label-phase1,3.2.4,Win32,60,right,0.660999775,4,0,4,0,1,3,1,0,240,114,1,239,,,,,,,,,,,,,,,,,,
,,1,128,,,,,,,3,6,2,stim/62.jpeg,Instruments,1,stim/objects/Instruments/trombone2.png,0.9,1,-0.2,0.15,left,48,2021-01-11_08h35.28.753,premup-three_ses-01_part-01_label-phase1,3.2.4,Win32,60,left,0.539999723,4,0,4,0,1,3,1,0,240,233,1,239,,,,,,,,,,,,,,,,,,
,,1,129,,,,,,,3,5,1,stim/51.jpeg,HouseObjects,2,stim/objects/HouseObjects/safetypin2.png,0.9,2,0.2,0.15,right,48,2021-01-11_08h35.28.753,premup-three_ses-01_part-01_label-phase1,3.2.4,Win32,60,right,0.529000044,4,0,4,0,1,3,1,0,240,168,1,239,,,,,,,,,,,,,,,,,,
,,1,130,,,,,,,3,5,2,stim/52.jpeg,HouseObjects,2,stim/objects/HouseObjects/saw2.png,0.9,3,-0.2,-0.15,right,48,2021-01-11_08h35.28.753,premup-three_ses-01_part-01_label-phase1,3.2.4,Win32,60,right,0.638999939,4,0,4,0,1,3,1,0,240,173,1,239,,,,,,,,,,,,,,,,,,
,,1,131,,,,,,,1,2,2,stim/22.jpeg,HouseObjects,2,stim/objects/HouseObjects/saw.png,0.5,1,-0.2,0.15,right,48,2021-01-11_08h35.28.753,premup-three_ses-01_part-01_label-phase1,3.2.4,Win32,60,right,1.171000004,4,0,4,0,1,3,1,0,240,61,1,239,,,,,,,,,,,,,,,,,,
,,0,132,,,,,,,1,1,4,stim/14.jpeg,Instruments,1,stim/objects/Instruments/record_player.png,0.5,4,0.2,-0.15,left,48,2021-01-11_08h35.28.753,premup-three_ses-01_part-01_label-phase1,3.2.4,Win32,60,right,0.636999846,4,0,4,0,1,3,1,0,240,11,1,239,,,,,,,,,,,,,,,,,,
,,1,133,,,,,,,3,5,3,stim/53.jpeg,HouseObjects,2,stim/objects/HouseObjects/scale2.png,0.9,2,0.2,0.15,right,48,2021-01-11_08h35.28.753,premup-three_ses-01_part-01_label-phase1,3.2.4,Win32,60,right,0.614999771,4,0,4,0,1,3,1,0,240,190,1,239,,,,,,,,,,,,,,,,,,
