key_resp_pract.keys,key_resp_pract.rt,trial_acc,trial_index,practice_loop.thisRepN,practice_loop.thisTrialN,practice_loop.thisN,practice_loop.thisIndex,practice_loop.ran,practice_loop.order,scn_condition,scn_cat,scn_inst,scn_file,obj_cat,obj_cat_num,obj_file,trial_cond,quadrant,obj_x,obj_y,corr_ans,participant,date,expName,psychopyVersion,OS,frameRate,key_resp_trial.keys,key_resp_trial.rt,iterations.thisRepN,iterations.thisTrialN,iterations.thisN,iterations.thisIndex,iterations.ran,iterations.order,task_innerloop.thisRepN,task_innerloop.thisTrialN,task_innerloop.thisN,task_innerloop.thisIndex,task_innerloop.ran,task_innerloop.order,iteration_index,rating_acc,slider.response,slider.rt,slider_2.response,slider_2.rt,ratings.thisRepN,ratings.thisTrialN,ratings.thisN,ratings.thisIndex,ratings.ran,ratings.order,obj_cat_top,min_resp_top,max_resp_top,obj_cat_bottom,min_resp_bottom,max_resp_bottom
,,0,1,1,0,240,17,1,239,1,3,2,stim/32.jpeg,HouseObjects,1,stim/objects/HouseObjects/safetypin.png,0.5,4,0.2,-0.15,left,49,2021-01-12_01h04.51.774,premup-three_ses-01_part-01_label-phase1,3.2.4,MacIntel,60,,,,,,,,,,,,,,,,,,,,,,,,,,,,,,,,
right,1.134000063,0,2,1,0,240,160,1,239,3,1,1,stim/11.jpeg,HouseObjects,1,stim/objects/HouseObjects/sponge2.png,0.1,2,0.2,0.15,left,49,2021-01-12_01h04.51.774,premup-three_ses-01_part-01_label-phase1,3.2.4,MacIntel,60,,,,,,,,,,,,,,,,,,,,,,,,,,,,,,,,
left,1.31799984,1,3,1,0,240,123,1,239,2,6,4,stim/64.jpeg,HouseObjects,1,stim/objects/HouseObjects/scale2.png,0.7,4,0.2,-0.15,left,49,2021-01-12_01h04.51.774,premup-three_ses-01_part-01_label-phase1,3.2.4,MacIntel,60,,,,,,,,,,,,,,,,,,,,,,,,,,,,,,,,
right,0.927999973,0,4,1,0,240,56,1,239,1,4,1,stim/41.jpeg,HouseObjects,1,stim/objects/HouseObjects/sponge.png,0.5,4,0.2,-0.15,left,49,2021-01-12_01h04.51.774,premup-three_ses-01_part-01_label-phase1,3.2.4,MacIntel,60,,,,,,,,,,,,,,,,,,,,,,,,,,,,,,,,
left,1.132999897,0,5,1,0,240,195,1,239,3,1,4,stim/14.jpeg,Instruments,2,stim/objects/Instruments/trumpet2.png,0.9,3,-0.2,-0.15,right,49,2021-01-12_01h04.51.774,premup-three_ses-01_part-01_label-phase1,3.2.4,MacIntel,60,,,,,,,,,,,,,,,,,,,,,,,,,,,,,,,,
left,0.931999922,1,6,1,0,240,200,1,239,3,2,1,stim/21.jpeg,HouseObjects,1,stim/objects/HouseObjects/thread2.png,0.9,1,-0.2,0.15,left,49,2021-01-12_01h04.51.774,premup-three_ses-01_part-01_label-phase1,3.2.4,MacIntel,60,,,,,,,,,,,,,,,,,,,,,,,,,,,,,,,,
right,1.477999926,0,7,1,0,240,215,1,239,3,2,4,stim/24.jpeg,HouseObjects,1,stim/objects/HouseObjects/wateringcan2.png,0.9,2,0.2,0.15,left,49,2021-01-12_01h04.51.774,premup-three_ses-01_part-01_label-phase1,3.2.4,MacIntel,60,,,,,,,,,,,,,,,,,,,,,,,,,,,,,,,,
left,0.927999735,0,8,1,0,240,176,1,239,3,1,1,stim/11.jpeg,Instruments,2,stim/objects/Instruments/timbal2.png,0.9,1,-0.2,0.15,right,49,2021-01-12_01h04.51.774,premup-three_ses-01_part-01_label-phase1,3.2.4,MacIntel,60,,,,,,,,,,,,,,,,,,,,,,,,,,,,,,,,
left,0.772000074,1,9,1,0,240,126,1,239,2,6,3,stim/63.jpeg,HouseObjects,1,stim/objects/HouseObjects/saw2.png,0.7,4,0.2,-0.15,left,49,2021-01-12_01h04.51.774,premup-three_ses-01_part-01_label-phase1,3.2.4,MacIntel,60,,,,,,,,,,,,,,,,,,,,,,,,,,,,,,,,
left,0.93599987,0,10,1,0,240,30,1,239,1,3,3,stim/33.jpeg,Instruments,2,stim/objects/Instruments/speaker.png,0.5,2,0.2,0.15,right,49,2021-01-12_01h04.51.774,premup-three_ses-01_part-01_label-phase1,3.2.4,MacIntel,60,,,,,,,,,,,,,,,,,,,,,,,,,,,,,,,,
,,1,1,,,,,,,3,2,4,stim/24.jpeg,HouseObjects,1,stim/objects/HouseObjects/wateringcan2.png,0.9,2,0.2,0.15,left,49,2021-01-12_01h04.51.774,premup-three_ses-01_part-01_label-phase1,3.2.4,MacIntel,60,left,0.937999964,4,0,4,0,1,3,1,0,240,219,1,239,,,,,,,,,,,,,,,,,,
,,0,2,,,,,,,2,5,2,stim/52.jpeg,Instruments,2,stim/objects/Instruments/violin.png,0.7,3,-0.2,-0.15,right,49,2021-01-12_01h04.51.774,premup-three_ses-01_part-01_label-phase1,3.2.4,MacIntel,60,left,1.125,4,0,4,0,1,3,1,0,240,93,1,239,,,,,,,,,,,,,,,,,,
,,1,3,,,,,,,2,5,3,stim/53.jpeg,Instruments,2,stim/objects/Instruments/vuvuzela.png,0.7,1,-0.2,0.15,right,49,2021-01-12_01h04.51.774,premup-three_ses-01_part-01_label-phase1,3.2.4,MacIntel,60,right,1.316999912,4,0,4,0,1,3,1,0,240,102,1,239,,,,,,,,,,,,,,,,,,
,,1,4,,,,,,,1,4,2,stim/42.jpeg,HouseObjects,1,stim/objects/HouseObjects/spraybottle.png,0.5,4,0.2,-0.15,left,49,2021-01-12_01h04.51.774,premup-three_ses-01_part-01_label-phase1,3.2.4,MacIntel,60,left,0.830999851,4,0,4,0,1,3,1,0,240,53,1,239,,,,,,,,,,,,,,,,,,
,,0,5,,,,,,,3,1,3,stim/13.jpeg,Instruments,2,stim/objects/Instruments/trombone2.png,0.9,3,-0.2,-0.15,right,49,2021-01-12_01h04.51.774,premup-three_ses-01_part-01_label-phase1,3.2.4,MacIntel,60,left,1.023000002,4,0,4,0,1,3,1,0,240,186,1,239,,,,,,,,,,,,,,,,,,
,,1,6,,,,,,,1,3,1,stim/31.jpeg,HouseObjects,1,stim/objects/HouseObjects/rug.png,0.5,3,-0.2,-0.15,left,49,2021-01-12_01h04.51.774,premup-three_ses-01_part-01_label-phase1,3.2.4,MacIntel,60,left,1.024999857,4,0,4,0,1,3,1,0,240,0,1,239,,,,,,,,,,,,,,,,,,
,,1,7,,,,,,,3,2,2,stim/22.jpeg,HouseObjects,1,stim/objects/HouseObjects/towel2.png,0.9,3,-0.2,-0.15,left,49,2021-01-12_01h04.51.774,premup-three_ses-01_part-01_label-phase1,3.2.4,MacIntel,60,left,1.208999872,4,0,4,0,1,3,1,0,240,213,1,239,,,,,,,,,,,,,,,,,,
,,1,8,,,,,,,1,3,1,stim/31.jpeg,Instruments,2,stim/objects/Instruments/record_player.png,0.5,2,0.2,0.15,right,49,2021-01-12_01h04.51.774,premup-three_ses-01_part-01_label-phase1,3.2.4,MacIntel,60,right,0.8349998,4,0,4,0,1,3,1,0,240,28,1,239,,,,,,,,,,,,,,,,,,
,,0,9,,,,,,,1,3,4,stim/34.jpeg,HouseObjects,1,stim/objects/HouseObjects/scale.png,0.5,2,0.2,0.15,left,49,2021-01-12_01h04.51.774,premup-three_ses-01_part-01_label-phase1,3.2.4,MacIntel,60,right,0.746999979,4,0,4,0,1,3,1,0,240,7,1,239,,,,,,,,,,,,,,,,,,
,,0,10,,,,,,,3,1,3,stim/13.jpeg,Instruments,2,stim/objects/Instruments/trombone2.png,0.9,2,0.2,0.15,right,49,2021-01-12_01h04.51.774,premup-three_ses-01_part-01_label-phase1,3.2.4,MacIntel,60,left,0.924999952,4,0,4,0,1,3,1,0,240,178,1,239,,,,,,,,,,,,,,,,,,
,,0,11,,,,,,,1,4,2,stim/42.jpeg,Instruments,2,stim/objects/Instruments/triangle.png,0.5,2,0.2,0.15,right,49,2021-01-12_01h04.51.774,premup-three_ses-01_part-01_label-phase1,3.2.4,MacIntel,60,left,0.836999893,4,0,4,0,1,3,1,0,240,73,1,239,,,,,,,,,,,,,,,,,,
,,0,12,,,,,,,3,1,4,stim/14.jpeg,Instruments,2,stim/objects/Instruments/trumpet2.png,0.9,2,0.2,0.15,right,49,2021-01-12_01h04.51.774,premup-three_ses-01_part-01_label-phase1,3.2.4,MacIntel,60,left,0.837999821,4,0,4,0,1,3,1,0,240,171,1,239,,,,,,,,,,,,,,,,,,
,,0,13,,,,,,,1,3,3,stim/33.jpeg,HouseObjects,1,stim/objects/HouseObjects/saw.png,0.5,3,-0.2,-0.15,left,49,2021-01-12_01h04.51.774,premup-three_ses-01_part-01_label-phase1,3.2.4,MacIntel,60,right,0.924999952,4,0,4,0,1,3,1,0,240,18,1,239,,,,,,,,,,,,,,,,,,
,,0,14,,,,,,,2,6,1,stim/61.jpeg,Instruments,2,stim/objects/Instruments/record_player2.png,0.3,1,-0.2,0.15,right,49,2021-01-12_01h04.51.774,premup-three_ses-01_part-01_label-phase1,3.2.4,MacIntel,60,left,1.20600009,4,0,4,0,1,3,1,0,240,148,1,239,,,,,,,,,,,,,,,,,,
,,0,15,,,,,,,1,4,3,stim/43.jpeg,Instruments,2,stim/objects/Instruments/trombone.png,0.5,3,-0.2,-0.15,right,49,2021-01-12_01h04.51.774,premup-three_ses-01_part-01_label-phase1,3.2.4,MacIntel,60,left,0.929999828,4,0,4,0,1,3,1,0,240,74,1,239,,,,,,,,,,,,,,,,,,
,,1,16,,,,,,,2,6,1,stim/61.jpeg,Instruments,2,stim/objects/Instruments/record_player2.png,0.3,1,-0.2,0.15,right,49,2021-01-12_01h04.51.774,premup-three_ses-01_part-01_label-phase1,3.2.4,MacIntel,60,right,1.016000032,4,0,4,0,1,3,1,0,240,152,1,239,,,,,,,,,,,,,,,,,,
,,1,17,,,,,,,2,6,2,stim/62.jpeg,Instruments,2,stim/objects/Instruments/saxophone2.png,0.3,4,0.2,-0.15,right,49,2021-01-12_01h04.51.774,premup-three_ses-01_part-01_label-phase1,3.2.4,MacIntel,60,right,0.754999876,4,0,4,0,1,3,1,0,240,149,1,239,,,,,,,,,,,,,,,,,,
,,1,18,,,,,,,3,1,4,stim/14.jpeg,Instruments,2,stim/objects/Instruments/trumpet2.png,0.9,1,-0.2,0.15,right,49,2021-01-12_01h04.51.774,premup-three_ses-01_part-01_label-phase1,3.2.4,MacIntel,60,right,0.832999945,4,0,4,0,1,3,1,0,240,179,1,239,,,,,,,,,,,,,,,,,,
,,1,19,,,,,,,3,2,4,stim/24.jpeg,HouseObjects,1,stim/objects/HouseObjects/wateringcan2.png,0.9,4,0.2,-0.15,left,49,2021-01-12_01h04.51.774,premup-three_ses-01_part-01_label-phase1,3.2.4,MacIntel,60,left,1.013999939,4,0,4,0,1,3,1,0,240,227,1,239,,,,,,,,,,,,,,,,,,
,,0,20,,,,,,,2,5,2,stim/52.jpeg,Instruments,2,stim/objects/Instruments/violin.png,0.7,4,0.2,-0.15,right,49,2021-01-12_01h04.51.774,premup-three_ses-01_part-01_label-phase1,3.2.4,MacIntel,60,left,1.105999947,4,0,4,0,1,3,1,0,240,101,1,239,,,,,,,,,,,,,,,,,,
,,0,21,,,,,,,2,6,1,stim/61.jpeg,HouseObjects,1,stim/objects/HouseObjects/rug2.png,0.7,3,-0.2,-0.15,left,49,2021-01-12_01h04.51.774,premup-three_ses-01_part-01_label-phase1,3.2.4,MacIntel,60,right,1.00999999,4,0,4,0,1,3,1,0,240,120,1,239,,,,,,,,,,,,,,,,,,
,,0,22,,,,,,,2,6,4,stim/64.jpeg,HouseObjects,1,stim/objects/HouseObjects/scale2.png,0.7,4,0.2,-0.15,left,49,2021-01-12_01h04.51.774,premup-three_ses-01_part-01_label-phase1,3.2.4,MacIntel,60,right,1.291999817,4,0,4,0,1,3,1,0,240,139,1,239,,,,,,,,,,,,,,,,,,
,,1,23,,,,,,,2,6,2,stim/62.jpeg,HouseObjects,1,stim/objects/HouseObjects/safetypin2.png,0.7,1,-0.2,0.15,left,49,2021-01-12_01h04.51.774,premup-three_ses-01_part-01_label-phase1,3.2.4,MacIntel,60,left,0.923999786,4,0,4,0,1,3,1,0,240,141,1,239,,,,,,,,,,,,,,,,,,
,,0,24,,,,,,,1,4,4,stim/44.jpeg,Instruments,2,stim/objects/Instruments/trumpet.png,0.5,2,0.2,0.15,right,49,2021-01-12_01h04.51.774,premup-three_ses-01_part-01_label-phase1,3.2.4,MacIntel,60,left,0.83100009,4,0,4,0,1,3,1,0,240,75,1,239,,,,,,,,,,,,,,,,,,
,,0,25,,,,,,,1,4,4,stim/44.jpeg,HouseObjects,1,stim/objects/HouseObjects/thermometer.png,0.5,1,-0.2,0.15,left,49,2021-01-12_01h04.51.774,premup-three_ses-01_part-01_label-phase1,3.2.4,MacIntel,60,right,0.740999937,4,0,4,0,1,3,1,0,240,51,1,239,,,,,,,,,,,,,,,,,,
,,0,26,,,,,,,3,2,3,stim/23.jpeg,HouseObjects,1,stim/objects/HouseObjects/vacuumcleaner2.png,0.9,1,-0.2,0.15,left,49,2021-01-12_01h04.51.774,premup-three_ses-01_part-01_label-phase1,3.2.4,MacIntel,60,right,1.289999962,4,0,4,0,1,3,1,0,240,218,1,239,,,,,,,,,,,,,,,,,,
,,1,27,,,,,,,3,2,1,stim/21.jpeg,HouseObjects,1,stim/objects/HouseObjects/thread2.png,0.9,4,0.2,-0.15,left,49,2021-01-12_01h04.51.774,premup-three_ses-01_part-01_label-phase1,3.2.4,MacIntel,60,left,1.013000011,4,0,4,0,1,3,1,0,240,204,1,239,,,,,,,,,,,,,,,,,,
,,0,28,,,,,,,1,3,3,stim/33.jpeg,HouseObjects,1,stim/objects/HouseObjects/saw.png,0.5,2,0.2,0.15,left,49,2021-01-12_01h04.51.774,premup-three_ses-01_part-01_label-phase1,3.2.4,MacIntel,60,right,1.009000063,4,0,4,0,1,3,1,0,240,6,1,239,,,,,,,,,,,,,,,,,,
,,0,29,,,,,,,2,6,3,stim/63.jpeg,HouseObjects,1,stim/objects/HouseObjects/saw2.png,0.7,4,0.2,-0.15,left,49,2021-01-12_01h04.51.774,premup-three_ses-01_part-01_label-phase1,3.2.4,MacIntel,60,right,0.834000111,4,0,4,0,1,3,1,0,240,134,1,239,,,,,,,,,,,,,,,,,,
,,1,30,,,,,,,2,5,4,stim/54.jpeg,Instruments,2,stim/objects/Instruments/xylophone.png,0.7,1,-0.2,0.15,right,49,2021-01-12_01h04.51.774,premup-three_ses-01_part-01_label-phase1,3.2.4,MacIntel,60,right,1.395999908,4,0,4,0,1,3,1,0,240,119,1,239,,,,,,,,,,,,,,,,,,
,,0,31,,,,,,,3,2,1,stim/21.jpeg,HouseObjects,1,stim/objects/HouseObjects/thread2.png,0.9,4,0.2,-0.15,left,49,2021-01-12_01h04.51.774,premup-three_ses-01_part-01_label-phase1,3.2.4,MacIntel,60,right,1.196000099,4,0,4,0,1,3,1,0,240,232,1,239,,,,,,,,,,,,,,,,,,
,,1,32,,,,,,,3,2,2,stim/22.jpeg,HouseObjects,1,stim/objects/HouseObjects/towel2.png,0.9,2,0.2,0.15,left,49,2021-01-12_01h04.51.774,premup-three_ses-01_part-01_label-phase1,3.2.4,MacIntel,60,left,0.927999973,4,0,4,0,1,3,1,0,240,217,1,239,,,,,,,,,,,,,,,,,,
,,0,33,,,,,,,1,3,1,stim/31.jpeg,HouseObjects,1,stim/objects/HouseObjects/rug.png,0.5,2,0.2,0.15,left,49,2021-01-12_01h04.51.774,premup-three_ses-01_part-01_label-phase1,3.2.4,MacIntel,60,right,0.836999893,4,0,4,0,1,3,1,0,240,8,1,239,,,,,,,,,,,,,,,,,,
,,0,34,,,,,,,2,6,3,stim/63.jpeg,HouseObjects,1,stim/objects/HouseObjects/saw2.png,0.7,3,-0.2,-0.15,left,49,2021-01-12_01h04.51.774,premup-three_ses-01_part-01_label-phase1,3.2.4,MacIntel,60,right,0.923000097,4,0,4,0,1,3,1,0,240,122,1,239,,,,,,,,,,,,,,,,,,
,,0,35,,,,,,,2,5,2,stim/52.jpeg,Instruments,2,stim/objects/Instruments/violin.png,0.7,4,0.2,-0.15,right,49,2021-01-12_01h04.51.774,premup-three_ses-01_part-01_label-phase1,3.2.4,MacIntel,60,left,0.921999931,4,0,4,0,1,3,1,0,240,109,1,239,,,,,,,,,,,,,,,,,,
,,1,36,,,,,,,3,2,2,stim/22.jpeg,HouseObjects,1,stim/objects/HouseObjects/towel2.png,0.9,4,0.2,-0.15,left,49,2021-01-12_01h04.51.774,premup-three_ses-01_part-01_label-phase1,3.2.4,MacIntel,60,left,1.101999998,4,0,4,0,1,3,1,0,240,205,1,239,,,,,,,,,,,,,,,,,,
,,1,37,,,,,,,3,2,3,stim/23.jpeg,HouseObjects,1,stim/objects/HouseObjects/vacuumcleaner2.png,0.9,4,0.2,-0.15,left,49,2021-01-12_01h04.51.774,premup-three_ses-01_part-01_label-phase1,3.2.4,MacIntel,60,left,0.837999821,4,0,4,0,1,3,1,0,240,226,1,239,,,,,,,,,,,,,,,,,,
,,1,38,,,,,,,1,4,2,stim/42.jpeg,Instruments,2,stim/objects/Instruments/triangle.png,0.5,2,0.2,0.15,right,49,2021-01-12_01h04.51.774,premup-three_ses-01_part-01_label-phase1,3.2.4,MacIntel,60,right,1.562999964,4,0,4,0,1,3,1,0,240,69,1,239,,,,,,,,,,,,,,,,,,
,,1,39,,,,,,,3,1,4,stim/14.jpeg,Instruments,2,stim/objects/Instruments/trumpet2.png,0.9,3,-0.2,-0.15,right,49,2021-01-12_01h04.51.774,premup-three_ses-01_part-01_label-phase1,3.2.4,MacIntel,60,right,1.022000074,4,0,4,0,1,3,1,0,240,183,1,239,,,,,,,,,,,,,,,,,,
,,0,40,,,,,,,2,5,4,stim/54.jpeg,HouseObjects,1,stim/objects/HouseObjects/wateringcan.png,0.3,3,-0.2,-0.15,left,49,2021-01-12_01h04.51.774,premup-three_ses-01_part-01_label-phase1,3.2.4,MacIntel,60,right,1.933000088,4,0,4,0,1,3,1,0,240,83,1,239,,,,,,,,,,,,,,,,,,
,,1,41,,,,,,,1,4,1,stim/41.jpeg,HouseObjects,1,stim/objects/HouseObjects/sponge.png,0.5,4,0.2,-0.15,left,49,2021-01-12_01h04.51.774,premup-three_ses-01_part-01_label-phase1,3.2.4,MacIntel,60,left,1.099999905,4,0,4,0,1,3,1,0,240,44,1,239,,,,,,,,,,,,,,,,,,
,,1,42,,,,,,,3,2,4,stim/24.jpeg,HouseObjects,1,stim/objects/HouseObjects/wateringcan2.png,0.9,3,-0.2,-0.15,left,49,2021-01-12_01h04.51.774,premup-three_ses-01_part-01_label-phase1,3.2.4,MacIntel,60,left,0.74000001,4,0,4,0,1,3,1,0,240,235,1,239,,,,,,,,,,,,,,,,,,
,,1,43,,,,,,,1,4,3,stim/43.jpeg,HouseObjects,1,stim/objects/HouseObjects/teapot.png,0.5,4,0.2,-0.15,left,49,2021-01-12_01h04.51.774,premup-three_ses-01_part-01_label-phase1,3.2.4,MacIntel,60,left,1.382999897,4,0,4,0,1,3,1,0,240,42,1,239,,,,,,,,,,,,,,,,,,
,,1,44,,,,,,,1,4,1,stim/41.jpeg,HouseObjects,1,stim/objects/HouseObjects/sponge.png,0.5,3,-0.2,-0.15,left,49,2021-01-12_01h04.51.774,premup-three_ses-01_part-01_label-phase1,3.2.4,MacIntel,60,left,0.921000004,4,0,4,0,1,3,1,0,240,40,1,239,,,,,,,,,,,,,,,,,,
,,0,45,,,,,,,3,1,1,stim/11.jpeg,HouseObjects,1,stim/objects/HouseObjects/sponge2.png,0.1,2,0.2,0.15,left,49,2021-01-12_01h04.51.774,premup-three_ses-01_part-01_label-phase1,3.2.4,MacIntel,60,right,0.833999872,4,0,4,0,1,3,1,0,240,160,1,239,,,,,,,,,,,,,,,,,,
,,1,46,,,,,,,3,2,3,stim/23.jpeg,HouseObjects,1,stim/objects/HouseObjects/vacuumcleaner2.png,0.9,2,0.2,0.15,left,49,2021-01-12_01h04.51.774,premup-three_ses-01_part-01_label-phase1,3.2.4,MacIntel,60,left,0.830999851,4,0,4,0,1,3,1,0,240,230,1,239,,,,,,,,,,,,,,,,,,
,,1,47,,,,,,,2,6,3,stim/63.jpeg,Instruments,2,stim/objects/Instruments/speaker2.png,0.3,1,-0.2,0.15,right,49,2021-01-12_01h04.51.774,premup-three_ses-01_part-01_label-phase1,3.2.4,MacIntel,60,right,0.645999908,4,0,4,0,1,3,1,0,240,150,1,239,,,,,,,,,,,,,,,,,,
,,1,48,,,,,,,2,5,2,stim/52.jpeg,Instruments,2,stim/objects/Instruments/violin.png,0.7,3,-0.2,-0.15,right,49,2021-01-12_01h04.51.774,premup-three_ses-01_part-01_label-phase1,3.2.4,MacIntel,60,right,0.83100009,4,0,4,0,1,3,1,0,240,97,1,239,,,,,,,,,,,,,,,,,,
,,1,49,,,,,,,2,5,1,stim/51.jpeg,HouseObjects,1,stim/objects/HouseObjects/thread.png,0.3,4,0.2,-0.15,left,49,2021-01-12_01h04.51.774,premup-three_ses-01_part-01_label-phase1,3.2.4,MacIntel,60,left,1.098999739,4,0,4,0,1,3,1,0,240,84,1,239,,,,,,,,,,,,,,,,,,
,,1,50,,,,,,,3,2,3,stim/23.jpeg,HouseObjects,1,stim/objects/HouseObjects/vacuumcleaner2.png,0.9,3,-0.2,-0.15,left,49,2021-01-12_01h04.51.774,premup-three_ses-01_part-01_label-phase1,3.2.4,MacIntel,60,left,0.832999945,4,0,4,0,1,3,1,0,240,234,1,239,,,,,,,,,,,,,,,,,,
,,0,51,,,,,,,2,6,4,stim/64.jpeg,HouseObjects,1,stim/objects/HouseObjects/scale2.png,0.7,3,-0.2,-0.15,left,49,2021-01-12_01h04.51.774,premup-three_ses-01_part-01_label-phase1,3.2.4,MacIntel,60,right,0.740999937,4,0,4,0,1,3,1,0,240,127,1,239,,,,,,,,,,,,,,,,,,
,,1,52,,,,,,,1,3,2,stim/32.jpeg,Instruments,2,stim/objects/Instruments/saxophone.png,0.5,3,-0.2,-0.15,right,49,2021-01-12_01h04.51.774,premup-three_ses-01_part-01_label-phase1,3.2.4,MacIntel,60,right,0.830999851,4,0,4,0,1,3,1,0,240,25,1,239,,,,,,,,,,,,,,,,,,
,,0,53,,,,,,,2,6,4,stim/64.jpeg,HouseObjects,1,stim/objects/HouseObjects/scale2.png,0.7,2,0.2,0.15,left,49,2021-01-12_01h04.51.774,premup-three_ses-01_part-01_label-phase1,3.2.4,MacIntel,60,right,0.829999924,4,0,4,0,1,3,1,0,240,147,1,239,,,,,,,,,,,,,,,,,,
,,0,54,,,,,,,2,6,4,stim/64.jpeg,HouseObjects,1,stim/objects/HouseObjects/scale2.png,0.7,4,0.2,-0.15,left,49,2021-01-12_01h04.51.774,premup-three_ses-01_part-01_label-phase1,3.2.4,MacIntel,60,right,0.648000002,4,0,4,0,1,3,1,0,240,143,1,239,,,,,,,,,,,,,,,,,,
,,1,55,,,,,,,1,4,3,stim/43.jpeg,HouseObjects,1,stim/objects/HouseObjects/teapot.png,0.5,4,0.2,-0.15,left,49,2021-01-12_01h04.51.774,premup-three_ses-01_part-01_label-phase1,3.2.4,MacIntel,60,left,1.189999819,4,0,4,0,1,3,1,0,240,54,1,239,,,,,,,,,,,,,,,,,,
,,0,56,,,,,,,2,5,1,stim/51.jpeg,Instruments,2,stim/objects/Instruments/tuba.png,0.7,1,-0.2,0.15,right,49,2021-01-12_01h04.51.774,premup-three_ses-01_part-01_label-phase1,3.2.4,MacIntel,60,left,1.102999926,4,0,4,0,1,3,1,0,240,96,1,239,,,,,,,,,,,,,,,,,,
,,1,57,,,,,,,2,5,1,stim/51.jpeg,Instruments,2,stim/objects/Instruments/tuba.png,0.7,2,0.2,0.15,right,49,2021-01-12_01h04.51.774,premup-three_ses-01_part-01_label-phase1,3.2.4,MacIntel,60,right,0.733999968,4,0,4,0,1,3,1,0,240,112,1,239,,,,,,,,,,,,,,,,,,
,,0,58,,,,,,,2,5,3,stim/53.jpeg,Instruments,2,stim/objects/Instruments/vuvuzela.png,0.7,4,0.2,-0.15,right,49,2021-01-12_01h04.51.774,premup-three_ses-01_part-01_label-phase1,3.2.4,MacIntel,60,left,1.188999891,4,0,4,0,1,3,1,0,240,106,1,239,,,,,,,,,,,,,,,,,,
,,0,59,,,,,,,2,5,1,stim/51.jpeg,HouseObjects,1,stim/objects/HouseObjects/thread.png,0.3,1,-0.2,0.15,left,49,2021-01-12_01h04.51.774,premup-three_ses-01_part-01_label-phase1,3.2.4,MacIntel,60,right,0.922999859,4,0,4,0,1,3,1,0,240,80,1,239,,,,,,,,,,,,,,,,,,
,,0,60,,,,,,,3,2,4,stim/24.jpeg,Instruments,2,stim/objects/Instruments/xylophone2.png,0.1,3,-0.2,-0.15,right,49,2021-01-12_01h04.51.774,premup-three_ses-01_part-01_label-phase1,3.2.4,MacIntel,60,left,0.92599988,4,0,4,0,1,3,1,0,240,239,1,239,,,,,,,,,,,,,,,,,,
,,0,61,,,,,,,2,5,3,stim/53.jpeg,HouseObjects,1,stim/objects/HouseObjects/vacuumcleaner.png,0.3,3,-0.2,-0.15,left,49,2021-01-12_01h04.51.774,premup-three_ses-01_part-01_label-phase1,3.2.4,MacIntel,60,right,0.795000076,4,0,4,0,1,3,1,0,240,90,1,239,,,,,,,,,,,,,,,,,,
,,0,62,,,,,,,2,5,2,stim/52.jpeg,Instruments,2,stim/objects/Instruments/violin.png,0.7,2,0.2,0.15,right,49,2021-01-12_01h04.51.774,premup-three_ses-01_part-01_label-phase1,3.2.4,MacIntel,60,left,0.921999931,4,0,4,0,1,3,1,0,240,113,1,239,,,,,,,,,,,,,,,,,,
,,1,63,,,,,,,3,1,4,stim/14.jpeg,Instruments,2,stim/objects/Instruments/trumpet2.png,0.9,3,-0.2,-0.15,right,49,2021-01-12_01h04.51.774,premup-three_ses-01_part-01_label-phase1,3.2.4,MacIntel,60,right,1.016999722,4,0,4,0,1,3,1,0,240,191,1,239,,,,,,,,,,,,,,,,,,
,,0,64,,,,,,,2,6,1,stim/61.jpeg,HouseObjects,1,stim/objects/HouseObjects/rug2.png,0.7,3,-0.2,-0.15,left,49,2021-01-12_01h04.51.774,premup-three_ses-01_part-01_label-phase1,3.2.4,MacIntel,60,right,0.740999937,4,0,4,0,1,3,1,0,240,128,1,239,,,,,,,,,,,,,,,,,,
,,1,65,,,,,,,2,5,3,stim/53.jpeg,Instruments,2,stim/objects/Instruments/vuvuzela.png,0.7,4,0.2,-0.15,right,49,2021-01-12_01h04.51.774,premup-three_ses-01_part-01_label-phase1,3.2.4,MacIntel,60,right,1.014999866,4,0,4,0,1,3,1,0,240,118,1,239,,,,,,,,,,,,,,,,,,
,,0,66,,,,,,,2,6,1,stim/61.jpeg,HouseObjects,1,stim/objects/HouseObjects/rug2.png,0.7,1,-0.2,0.15,left,49,2021-01-12_01h04.51.774,premup-three_ses-01_part-01_label-phase1,3.2.4,MacIntel,60,right,0.742000103,4,0,4,0,1,3,1,0,240,124,1,239,,,,,,,,,,,,,,,,,,
,,1,67,,,,,,,3,2,4,stim/24.jpeg,HouseObjects,1,stim/objects/HouseObjects/wateringcan2.png,0.9,2,0.2,0.15,left,49,2021-01-12_01h04.51.774,premup-three_ses-01_part-01_label-phase1,3.2.4,MacIntel,60,left,0.83100009,4,0,4,0,1,3,1,0,240,215,1,239,,,,,,,,,,,,,,,,,,
,,0,68,,,,,,,1,3,2,stim/32.jpeg,HouseObjects,1,stim/objects/HouseObjects/safetypin.png,0.5,3,-0.2,-0.15,left,49,2021-01-12_01h04.51.774,premup-three_ses-01_part-01_label-phase1,3.2.4,MacIntel,60,right,0.735999823,4,0,4,0,1,3,1,0,240,5,1,239,,,,,,,,,,,,,,,,,,
,,1,69,,,,,,,3,2,3,stim/23.jpeg,HouseObjects,1,stim/objects/HouseObjects/vacuumcleaner2.png,0.9,3,-0.2,-0.15,left,49,2021-01-12_01h04.51.774,premup-three_ses-01_part-01_label-phase1,3.2.4,MacIntel,60,left,0.741999865,4,0,4,0,1,3,1,0,240,222,1,239,,,,,,,,,,,,,,,,,,
,,0,70,,,,,,,2,6,2,stim/62.jpeg,HouseObjects,1,stim/objects/HouseObjects/safetypin2.png,0.7,2,0.2,0.15,left,49,2021-01-12_01h04.51.774,premup-three_ses-01_part-01_label-phase1,3.2.4,MacIntel,60,right,0.821999788,4,0,4,0,1,3,1,0,240,129,1,239,,,,,,,,,,,,,,,,,,
,,1,71,,,,,,,2,6,4,stim/64.jpeg,HouseObjects,1,stim/objects/HouseObjects/scale2.png,0.7,4,0.2,-0.15,left,49,2021-01-12_01h04.51.774,premup-three_ses-01_part-01_label-phase1,3.2.4,MacIntel,60,left,0.829999924,4,0,4,0,1,3,1,0,240,135,1,239,,,,,,,,,,,,,,,,,,
,,0,72,,,,,,,2,5,4,stim/54.jpeg,HouseObjects,1,stim/objects/HouseObjects/wateringcan.png,0.3,2,0.2,0.15,left,49,2021-01-12_01h04.51.774,premup-three_ses-01_part-01_label-phase1,3.2.4,MacIntel,60,right,1.195999861,4,0,4,0,1,3,1,0,240,91,1,239,,,,,,,,,,,,,,,,,,
,,0,73,,,,,,,2,6,4,stim/64.jpeg,Instruments,2,stim/objects/Instruments/tambourine2.png,0.3,1,-0.2,0.15,right,49,2021-01-12_01h04.51.774,premup-three_ses-01_part-01_label-phase1,3.2.4,MacIntel,60,left,0.924999952,4,0,4,0,1,3,1,0,240,155,1,239,,,,,,,,,,,,,,,,,,
,,1,74,,,,,,,1,4,4,stim/44.jpeg,HouseObjects,1,stim/objects/HouseObjects/thermometer.png,0.5,3,-0.2,-0.15,left,49,2021-01-12_01h04.51.774,premup-three_ses-01_part-01_label-phase1,3.2.4,MacIntel,60,left,1.193999767,4,0,4,0,1,3,1,0,240,47,1,239,,,,,,,,,,,,,,,,,,
,,1,75,,,,,,,1,3,1,stim/31.jpeg,Instruments,2,stim/objects/Instruments/record_player.png,0.5,4,0.2,-0.15,right,49,2021-01-12_01h04.51.774,premup-three_ses-01_part-01_label-phase1,3.2.4,MacIntel,60,right,0.74000001,4,0,4,0,1,3,1,0,240,24,1,239,,,,,,,,,,,,,,,,,,
,,1,76,,,,,,,3,1,2,stim/12.jpeg,Instruments,2,stim/objects/Instruments/triangle2.png,0.9,4,0.2,-0.15,right,49,2021-01-12_01h04.51.774,premup-three_ses-01_part-01_label-phase1,3.2.4,MacIntel,60,right,0.746000051,4,0,4,0,1,3,1,0,240,185,1,239,,,,,,,,,,,,,,,,,,
,,0,77,,,,,,,1,4,1,stim/41.jpeg,Instruments,2,stim/objects/Instruments/timbal.png,0.5,2,0.2,0.15,right,49,2021-01-12_01h04.51.774,premup-three_ses-01_part-01_label-phase1,3.2.4,MacIntel,60,left,0.921999931,4,0,4,0,1,3,1,0,240,68,1,239,,,,,,,,,,,,,,,,,,
,,1,78,,,,,,,3,2,4,stim/24.jpeg,HouseObjects,1,stim/objects/HouseObjects/wateringcan2.png,0.9,3,-0.2,-0.15,left,49,2021-01-12_01h04.51.774,premup-three_ses-01_part-01_label-phase1,3.2.4,MacIntel,60,left,0.830999851,4,0,4,0,1,3,1,0,240,211,1,239,,,,,,,,,,,,,,,,,,
,,1,79,,,,,,,2,5,1,stim/51.jpeg,Instruments,2,stim/objects/Instruments/tuba.png,0.7,1,-0.2,0.15,right,49,2021-01-12_01h04.51.774,premup-three_ses-01_part-01_label-phase1,3.2.4,MacIntel,60,right,0.920999765,4,0,4,0,1,3,1,0,240,100,1,239,,,,,,,,,,,,,,,,,,
,,1,80,,,,,,,3,1,2,stim/12.jpeg,Instruments,2,stim/objects/Instruments/triangle2.png,0.9,3,-0.2,-0.15,right,49,2021-01-12_01h04.51.774,premup-three_ses-01_part-01_label-phase1,3.2.4,MacIntel,60,right,1.187999964,4,0,4,0,1,3,1,0,240,189,1,239,,,,,,,,,,,,,,,,,,
,,0,81,,,,,,,1,4,4,stim/44.jpeg,HouseObjects,1,stim/objects/HouseObjects/thermometer.png,0.5,3,-0.2,-0.15,left,49,2021-01-12_01h04.51.774,premup-three_ses-01_part-01_label-phase1,3.2.4,MacIntel,60,right,1.105999947,4,0,4,0,1,3,1,0,240,43,1,239,,,,,,,,,,,,,,,,,,
,,1,82,,,,,,,2,6,2,stim/62.jpeg,Instruments,2,stim/objects/Instruments/saxophone2.png,0.3,3,-0.2,-0.15,right,49,2021-01-12_01h04.51.774,premup-three_ses-01_part-01_label-phase1,3.2.4,MacIntel,60,right,0.8349998,4,0,4,0,1,3,1,0,240,157,1,239,,,,,,,,,,,,,,,,,,
,,1,83,,,,,,,1,3,1,stim/31.jpeg,Instruments,2,stim/objects/Instruments/record_player.png,0.5,1,-0.2,0.15,right,49,2021-01-12_01h04.51.774,premup-three_ses-01_part-01_label-phase1,3.2.4,MacIntel,60,right,0.733999968,4,0,4,0,1,3,1,0,240,36,1,239,,,,,,,,,,,,,,,,,,
,,1,84,,,,,,,3,1,1,stim/11.jpeg,Instruments,2,stim/objects/Instruments/timbal2.png,0.9,2,0.2,0.15,right,49,2021-01-12_01h04.51.774,premup-three_ses-01_part-01_label-phase1,3.2.4,MacIntel,60,right,1.104999781,4,0,4,0,1,3,1,0,240,196,1,239,,,,,,,,,,,,,,,,,,
,,0,85,,,,,,,1,3,2,stim/32.jpeg,HouseObjects,1,stim/objects/HouseObjects/safetypin.png,0.5,4,0.2,-0.15,left,49,2021-01-12_01h04.51.774,premup-three_ses-01_part-01_label-phase1,3.2.4,MacIntel,60,right,1.190999985,4,0,4,0,1,3,1,0,240,17,1,239,,,,,,,,,,,,,,,,,,
,,1,86,,,,,,,1,4,2,stim/42.jpeg,HouseObjects,1,stim/objects/HouseObjects/spraybottle.png,0.5,4,0.2,-0.15,left,49,2021-01-12_01h04.51.774,premup-three_ses-01_part-01_label-phase1,3.2.4,MacIntel,60,left,1.01699996,4,0,4,0,1,3,1,0,240,57,1,239,,,,,,,,,,,,,,,,,,
,,0,87,,,,,,,1,4,4,stim/44.jpeg,Instruments,2,stim/objects/Instruments/trumpet.png,0.5,3,-0.2,-0.15,right,49,2021-01-12_01h04.51.774,premup-three_ses-01_part-01_label-phase1,3.2.4,MacIntel,60,left,0.832000017,4,0,4,0,1,3,1,0,240,67,1,239,,,,,,,,,,,,,,,,,,
,,0,88,,,,,,,3,2,2,stim/22.jpeg,Instruments,2,stim/objects/Instruments/violin2.png,0.1,4,0.2,-0.15,right,49,2021-01-12_01h04.51.774,premup-three_ses-01_part-01_label-phase1,3.2.4,MacIntel,60,left,0.743000031,4,0,4,0,1,3,1,0,240,237,1,239,,,,,,,,,,,,,,,,,,
,,0,89,,,,,,,1,3,2,stim/32.jpeg,HouseObjects,1,stim/objects/HouseObjects/safetypin.png,0.5,1,-0.2,0.15,left,49,2021-01-12_01h04.51.774,premup-three_ses-01_part-01_label-phase1,3.2.4,MacIntel,60,right,0.921999931,4,0,4,0,1,3,1,0,240,1,1,239,,,,,,,,,,,,,,,,,,
,,1,90,,,,,,,3,1,4,stim/14.jpeg,Instruments,2,stim/objects/Instruments/trumpet2.png,0.9,2,0.2,0.15,right,49,2021-01-12_01h04.51.774,premup-three_ses-01_part-01_label-phase1,3.2.4,MacIntel,60,right,0.829999924,4,0,4,0,1,3,1,0,240,175,1,239,,,,,,,,,,,,,,,,,,
,,1,91,,,,,,,3,1,3,stim/13.jpeg,Instruments,2,stim/objects/Instruments/trombone2.png,0.9,3,-0.2,-0.15,right,49,2021-01-12_01h04.51.774,premup-three_ses-01_part-01_label-phase1,3.2.4,MacIntel,60,right,0.646999836,4,0,4,0,1,3,1,0,240,198,1,239,,,,,,,,,,,,,,,,,,
,,1,92,,,,,,,3,2,2,stim/22.jpeg,HouseObjects,1,stim/objects/HouseObjects/towel2.png,0.9,2,0.2,0.15,left,49,2021-01-12_01h04.51.774,premup-three_ses-01_part-01_label-phase1,3.2.4,MacIntel,60,left,1.292000055,4,0,4,0,1,3,1,0,240,201,1,239,,,,,,,,,,,,,,,,,,
,,0,93,,,,,,,1,3,1,stim/31.jpeg,HouseObjects,1,stim/objects/HouseObjects/rug.png,0.5,2,0.2,0.15,left,49,2021-01-12_01h04.51.774,premup-three_ses-01_part-01_label-phase1,3.2.4,MacIntel,60,right,0.739000082,4,0,4,0,1,3,1,0,240,12,1,239,,,,,,,,,,,,,,,,,,
,,0,94,,,,,,,2,5,4,stim/54.jpeg,Instruments,2,stim/objects/Instruments/xylophone.png,0.7,3,-0.2,-0.15,right,49,2021-01-12_01h04.51.774,premup-three_ses-01_part-01_label-phase1,3.2.4,MacIntel,60,left,0.923999786,4,0,4,0,1,3,1,0,240,103,1,239,,,,,,,,,,,,,,,,,,
,,0,95,,,,,,,2,5,3,stim/53.jpeg,Instruments,2,stim/objects/Instruments/vuvuzela.png,0.7,2,0.2,0.15,right,49,2021-01-12_01h04.51.774,premup-three_ses-01_part-01_label-phase1,3.2.4,MacIntel,60,left,0.923999786,4,0,4,0,1,3,1,0,240,94,1,239,,,,,,,,,,,,,,,,,,
,,1,96,,,,,,,2,5,1,stim/51.jpeg,Instruments,2,stim/objects/Instruments/tuba.png,0.7,1,-0.2,0.15,right,49,2021-01-12_01h04.51.774,premup-three_ses-01_part-01_label-phase1,3.2.4,MacIntel,60,right,0.927999973,4,0,4,0,1,3,1,0,240,92,1,239,,,,,,,,,,,,,,,,,,
,,0,97,,,,,,,2,6,1,stim/61.jpeg,HouseObjects,1,stim/objects/HouseObjects/rug2.png,0.7,3,-0.2,-0.15,left,49,2021-01-12_01h04.51.774,premup-three_ses-01_part-01_label-phase1,3.2.4,MacIntel,60,right,0.733999968,4,0,4,0,1,3,1,0,240,144,1,239,,,,,,,,,,,,,,,,,,
,,1,98,,,,,,,2,6,3,stim/63.jpeg,HouseObjects,1,stim/objects/HouseObjects/saw2.png,0.7,3,-0.2,-0.15,left,49,2021-01-12_01h04.51.774,premup-three_ses-01_part-01_label-phase1,3.2.4,MacIntel,60,left,0.83100009,4,0,4,0,1,3,1,0,240,138,1,239,,,,,,,,,,,,,,,,,,
,,0,99,,,,,,,2,5,2,stim/52.jpeg,Instruments,2,stim/objects/Instruments/violin.png,0.7,2,0.2,0.15,right,49,2021-01-12_01h04.51.774,premup-three_ses-01_part-01_label-phase1,3.2.4,MacIntel,60,left,0.836999893,4,0,4,0,1,3,1,0,240,117,1,239,,,,,,,,,,,,,,,,,,
,,1,100,,,,,,,2,5,1,stim/51.jpeg,Instruments,2,stim/objects/Instruments/tuba.png,0.7,2,0.2,0.15,right,49,2021-01-12_01h04.51.774,premup-three_ses-01_part-01_label-phase1,3.2.4,MacIntel,60,right,0.649999857,4,0,4,0,1,3,1,0,240,116,1,239,,,,,,,,,,,,,,,,,,
,,1,101,,,,,,,1,4,2,stim/42.jpeg,HouseObjects,1,stim/objects/HouseObjects/spraybottle.png,0.5,2,0.2,0.15,left,49,2021-01-12_01h04.51.774,premup-three_ses-01_part-01_label-phase1,3.2.4,MacIntel,60,left,1.016000032,4,0,4,0,1,3,1,0,240,41,1,239,,,,,,,,,,,,,,,,,,
,,0,102,,,,,,,3,1,3,stim/13.jpeg,HouseObjects,1,stim/objects/HouseObjects/teapot2.png,0.1,1,-0.2,0.15,left,49,2021-01-12_01h04.51.774,premup-three_ses-01_part-01_label-phase1,3.2.4,MacIntel,60,right,1.378999949,4,0,4,0,1,3,1,0,240,162,1,239,,,,,,,,,,,,,,,,,,
,,1,103,,,,,,,1,3,4,stim/34.jpeg,HouseObjects,1,stim/objects/HouseObjects/scale.png,0.5,4,0.2,-0.15,left,49,2021-01-12_01h04.51.774,premup-three_ses-01_part-01_label-phase1,3.2.4,MacIntel,60,left,1.750999928,4,0,4,0,1,3,1,0,240,19,1,239,,,,,,,,,,,,,,,,,,
,,0,104,,,,,,,2,5,2,stim/52.jpeg,HouseObjects,1,stim/objects/HouseObjects/towel.png,0.3,1,-0.2,0.15,left,49,2021-01-12_01h04.51.774,premup-three_ses-01_part-01_label-phase1,3.2.4,MacIntel,60,right,1.375999928,4,0,4,0,1,3,1,0,240,85,1,239,,,,,,,,,,,,,,,,,,
,,1,105,,,,,,,2,5,3,stim/53.jpeg,Instruments,2,stim/objects/Instruments/vuvuzela.png,0.7,1,-0.2,0.15,right,49,2021-01-12_01h04.51.774,premup-three_ses-01_part-01_label-phase1,3.2.4,MacIntel,60,right,0.919999838,4,0,4,0,1,3,1,0,240,98,1,239,,,,,,,,,,,,,,,,,,
,,1,106,,,,,,,3,2,3,stim/23.jpeg,HouseObjects,1,stim/objects/HouseObjects/vacuumcleaner2.png,0.9,1,-0.2,0.15,left,49,2021-01-12_01h04.51.774,premup-three_ses-01_part-01_label-phase1,3.2.4,MacIntel,60,left,0.828000069,4,0,4,0,1,3,1,0,240,214,1,239,,,,,,,,,,,,,,,,,,
,,1,107,,,,,,,1,3,4,stim/34.jpeg,HouseObjects,1,stim/objects/HouseObjects/scale.png,0.5,3,-0.2,-0.15,left,49,2021-01-12_01h04.51.774,premup-three_ses-01_part-01_label-phase1,3.2.4,MacIntel,60,left,1.378000021,4,0,4,0,1,3,1,0,240,11,1,239,,,,,,,,,,,,,,,,,,
,,1,108,,,,,,,2,6,3,stim/63.jpeg,HouseObjects,1,stim/objects/HouseObjects/saw2.png,0.7,3,-0.2,-0.15,left,49,2021-01-12_01h04.51.774,premup-three_ses-01_part-01_label-phase1,3.2.4,MacIntel,60,left,1.06099987,4,0,4,0,1,3,1,0,240,142,1,239,,,,,,,,,,,,,,,,,,
,,0,109,,,,,,,3,1,1,stim/11.jpeg,Instruments,2,stim/objects/Instruments/timbal2.png,0.9,1,-0.2,0.15,right,49,2021-01-12_01h04.51.774,premup-three_ses-01_part-01_label-phase1,3.2.4,MacIntel,60,left,1.190999985,4,0,4,0,1,3,1,0,240,184,1,239,,,,,,,,,,,,,,,,,,
,,1,110,,,,,,,1,3,1,stim/31.jpeg,HouseObjects,1,stim/objects/HouseObjects/rug.png,0.5,1,-0.2,0.15,left,49,2021-01-12_01h04.51.774,premup-three_ses-01_part-01_label-phase1,3.2.4,MacIntel,60,left,1.467999935,4,0,4,0,1,3,1,0,240,16,1,239,,,,,,,,,,,,,,,,,,
,,1,111,,,,,,,2,6,4,stim/64.jpeg,HouseObjects,1,stim/objects/HouseObjects/scale2.png,0.7,2,0.2,0.15,left,49,2021-01-12_01h04.51.774,premup-three_ses-01_part-01_label-phase1,3.2.4,MacIntel,60,left,0.834000111,4,0,4,0,1,3,1,0,240,131,1,239,,,,,,,,,,,,,,,,,,
,,0,112,,,,,,,1,4,4,stim/44.jpeg,Instruments,2,stim/objects/Instruments/trumpet.png,0.5,4,0.2,-0.15,right,49,2021-01-12_01h04.51.774,premup-three_ses-01_part-01_label-phase1,3.2.4,MacIntel,60,left,1.671000004,4,0,4,0,1,3,1,0,240,79,1,239,,,,,,,,,,,,,,,,,,
,,0,113,,,,,,,1,3,2,stim/32.jpeg,Instruments,2,stim/objects/Instruments/saxophone.png,0.5,1,-0.2,0.15,right,49,2021-01-12_01h04.51.774,premup-three_ses-01_part-01_label-phase1,3.2.4,MacIntel,60,left,0.934999943,4,0,4,0,1,3,1,0,240,37,1,239,,,,,,,,,,,,,,,,,,
,,0,114,,,,,,,2,5,3,stim/53.jpeg,HouseObjects,1,stim/objects/HouseObjects/vacuumcleaner.png,0.3,3,-0.2,-0.15,left,49,2021-01-12_01h04.51.774,premup-three_ses-01_part-01_label-phase1,3.2.4,MacIntel,60,,,4,0,4,0,1,3,1,0,240,82,1,239,,,,,,,,,,,,,,,,,,
,,1,115,,,,,,,3,1,2,stim/12.jpeg,Instruments,2,stim/objects/Instruments/triangle2.png,0.9,1,-0.2,0.15,right,49,2021-01-12_01h04.51.774,premup-three_ses-01_part-01_label-phase1,3.2.4,MacIntel,60,right,1.295000076,4,0,4,0,1,3,1,0,240,197,1,239,,,,,,,,,,,,,,,,,,
,,0,116,,,,,,,1,4,1,stim/41.jpeg,Instruments,2,stim/objects/Instruments/timbal.png,0.5,2,0.2,0.15,right,49,2021-01-12_01h04.51.774,premup-three_ses-01_part-01_label-phase1,3.2.4,MacIntel,60,left,1.017999887,4,0,4,0,1,3,1,0,240,76,1,239,,,,,,,,,,,,,,,,,,
,,1,117,,,,,,,3,1,3,stim/13.jpeg,Instruments,2,stim/objects/Instruments/trombone2.png,0.9,3,-0.2,-0.15,right,49,2021-01-12_01h04.51.774,premup-three_ses-01_part-01_label-phase1,3.2.4,MacIntel,60,right,0.829999924,4,0,4,0,1,3,1,0,240,190,1,239,,,,,,,,,,,,,,,,,,
,,1,118,,,,,,,1,3,2,stim/32.jpeg,Instruments,2,stim/objects/Instruments/saxophone.png,0.5,1,-0.2,0.15,right,49,2021-01-12_01h04.51.774,premup-three_ses-01_part-01_label-phase1,3.2.4,MacIntel,60,right,1.023000002,4,0,4,0,1,3,1,0,240,21,1,239,,,,,,,,,,,,,,,,,,
,,0,119,,,,,,,2,6,1,stim/61.jpeg,HouseObjects,1,stim/objects/HouseObjects/rug2.png,0.7,2,0.2,0.15,left,49,2021-01-12_01h04.51.774,premup-three_ses-01_part-01_label-phase1,3.2.4,MacIntel,60,right,0.741999865,4,0,4,0,1,3,1,0,240,132,1,239,,,,,,,,,,,,,,,,,,
,,0,120,,,,,,,2,6,3,stim/63.jpeg,HouseObjects,1,stim/objects/HouseObjects/saw2.png,0.7,4,0.2,-0.15,left,49,2021-01-12_01h04.51.774,premup-three_ses-01_part-01_label-phase1,3.2.4,MacIntel,60,right,0.924999952,4,0,4,0,1,3,1,0,240,146,1,239,,,,,,,,,,,,,,,,,,
,,0,121,,,,,,,1,3,1,stim/31.jpeg,Instruments,2,stim/objects/Instruments/record_player.png,0.5,1,-0.2,0.15,right,49,2021-01-12_01h04.51.774,premup-three_ses-01_part-01_label-phase1,3.2.4,MacIntel,60,left,0.91899991,4,0,4,0,1,3,1,0,240,20,1,239,,,,,,,,,,,,,,,,,,
,,0,122,,,,,,,3,1,1,stim/11.jpeg,Instruments,2,stim/objects/Instruments/timbal2.png,0.9,2,0.2,0.15,right,49,2021-01-12_01h04.51.774,premup-three_ses-01_part-01_label-phase1,3.2.4,MacIntel,60,left,0.92599988,4,0,4,0,1,3,1,0,240,168,1,239,,,,,,,,,,,,,,,,,,
,,0,123,,,,,,,1,4,2,stim/42.jpeg,HouseObjects,1,stim/objects/HouseObjects/spraybottle.png,0.5,4,0.2,-0.15,left,49,2021-01-12_01h04.51.774,premup-three_ses-01_part-01_label-phase1,3.2.4,MacIntel,60,right,0.917999744,4,0,4,0,1,3,1,0,240,45,1,239,,,,,,,,,,,,,,,,,,
,,1,124,,,,,,,3,2,4,stim/24.jpeg,HouseObjects,1,stim/objects/HouseObjects/wateringcan2.png,0.9,1,-0.2,0.15,left,49,2021-01-12_01h04.51.774,premup-three_ses-01_part-01_label-phase1,3.2.4,MacIntel,60,left,0.832999945,4,0,4,0,1,3,1,0,240,231,1,239,,,,,,,,,,,,,,,,,,
,,1,125,,,,,,,2,6,2,stim/62.jpeg,HouseObjects,1,stim/objects/HouseObjects/safetypin2.png,0.7,2,0.2,0.15,left,49,2021-01-12_01h04.51.774,premup-three_ses-01_part-01_label-phase1,3.2.4,MacIntel,60,left,1.290999889,4,0,4,0,1,3,1,0,240,137,1,239,,,,,,,,,,,,,,,,,,
,,1,126,,,,,,,2,5,3,stim/53.jpeg,Instruments,2,stim/objects/Instruments/vuvuzela.png,0.7,2,0.2,0.15,right,49,2021-01-12_01h04.51.774,premup-three_ses-01_part-01_label-phase1,3.2.4,MacIntel,60,right,1.019000053,4,0,4,0,1,3,1,0,240,114,1,239,,,,,,,,,,,,,,,,,,
,,1,127,,,,,,,2,6,2,stim/62.jpeg,HouseObjects,1,stim/objects/HouseObjects/safetypin2.png,0.7,3,-0.2,-0.15,left,49,2021-01-12_01h04.51.774,premup-three_ses-01_part-01_label-phase1,3.2.4,MacIntel,60,left,0.824999809,4,0,4,0,1,3,1,0,240,133,1,239,,,,,,,,,,,,,,,,,,
,,1,128,,,,,,,3,2,1,stim/21.jpeg,HouseObjects,1,stim/objects/HouseObjects/thread2.png,0.9,1,-0.2,0.15,left,49,2021-01-12_01h04.51.774,premup-three_ses-01_part-01_label-phase1,3.2.4,MacIntel,60,left,0.832999945,4,0,4,0,1,3,1,0,240,200,1,239,,,,,,,,,,,,,,,,,,
,,0,129,,,,,,,1,4,3,stim/43.jpeg,Instruments,2,stim/objects/Instruments/trombone.png,0.5,4,0.2,-0.15,right,49,2021-01-12_01h04.51.774,premup-three_ses-01_part-01_label-phase1,3.2.4,MacIntel,60,left,0.835000038,4,0,4,0,1,3,1,0,240,62,1,239,,,,,,,,,,,,,,,,,,
,,0,130,,,,,,,3,1,3,stim/13.jpeg,Instruments,2,stim/objects/Instruments/trombone2.png,0.9,4,0.2,-0.15,right,49,2021-01-12_01h04.51.774,premup-three_ses-01_part-01_label-phase1,3.2.4,MacIntel,60,left,1.027999878,4,0,4,0,1,3,1,0,240,194,1,239,,,,,,,,,,,,,,,,,,
,,0,131,,,,,,,1,3,3,stim/33.jpeg,Instruments,2,stim/objects/Instruments/speaker.png,0.5,3,-0.2,-0.15,right,49,2021-01-12_01h04.51.774,premup-three_ses-01_part-01_label-phase1,3.2.4,MacIntel,60,left,1.10800004,4,0,4,0,1,3,1,0,240,22,1,239,,,,,,,,,,,,,,,,,,
,,1,132,,,,,,,3,2,2,stim/22.jpeg,HouseObjects,1,stim/objects/HouseObjects/towel2.png,0.9,1,-0.2,0.15,left,49,2021-01-12_01h04.51.774,premup-three_ses-01_part-01_label-phase1,3.2.4,MacIntel,60,left,0.921999931,4,0,4,0,1,3,1,0,240,225,1,239,,,,,,,,,,,,,,,,,,
,,1,133,,,,,,,3,2,1,stim/21.jpeg,HouseObjects,1,stim/objects/HouseObjects/thread2.png,0.9,2,0.2,0.15,left,49,2021-01-12_01h04.51.774,premup-three_ses-01_part-01_label-phase1,3.2.4,MacIntel,60,left,0.924999952,4,0,4,0,1,3,1,0,240,208,1,239,,,,,,,,,,,,,,,,,,
,,1,134,,,,,,,2,6,4,stim/64.jpeg,Instruments,2,stim/objects/Instruments/tambourine2.png,0.3,3,-0.2,-0.15,right,49,2021-01-12_01h04.51.774,premup-three_ses-01_part-01_label-phase1,3.2.4,MacIntel,60,right,1.015999794,4,0,4,0,1,3,1,0,240,151,1,239,,,,,,,,,,,,,,,,,,
,,0,135,,,,,,,2,5,1,stim/51.jpeg,HouseObjects,1,stim/objects/HouseObjects/thread.png,0.3,2,0.2,0.15,left,49,2021-01-12_01h04.51.774,premup-three_ses-01_part-01_label-phase1,3.2.4,MacIntel,60,right,0.924000025,4,0,4,0,1,3,1,0,240,88,1,239,,,,,,,,,,,,,,,,,,
,,1,136,,,,,,,2,6,2,stim/62.jpeg,HouseObjects,1,stim/objects/HouseObjects/safetypin2.png,0.7,3,-0.2,-0.15,left,49,2021-01-12_01h04.51.774,premup-three_ses-01_part-01_label-phase1,3.2.4,MacIntel,60,left,0.832999945,4,0,4,0,1,3,1,0,240,121,1,239,,,,,,,,,,,,,,,,,,
,,0,137,,,,,,,2,6,4,stim/64.jpeg,Instruments,2,stim/objects/Instruments/tambourine2.png,0.3,4,0.2,-0.15,right,49,2021-01-12_01h04.51.774,premup-three_ses-01_part-01_label-phase1,3.2.4,MacIntel,60,left,0.828000069,4,0,4,0,1,3,1,0,240,159,1,239,,,,,,,,,,,,,,,,,,
,,1,138,,,,,,,3,1,1,stim/11.jpeg,Instruments,2,stim/objects/Instruments/timbal2.png,0.9,1,-0.2,0.15,right,49,2021-01-12_01h04.51.774,premup-three_ses-01_part-01_label-phase1,3.2.4,MacIntel,60,right,1.008000135,4,0,4,0,1,3,1,0,240,164,1,239,,,,,,,,,,,,,,,,,,
,,1,139,,,,,,,1,4,1,stim/41.jpeg,HouseObjects,1,stim/objects/HouseObjects/sponge.png,0.5,4,0.2,-0.15,left,49,2021-01-12_01h04.51.774,premup-three_ses-01_part-01_label-phase1,3.2.4,MacIntel,60,left,1.012999773,4,0,4,0,1,3,1,0,240,56,1,239,,,,,,,,,,,,,,,,,,
,,1,140,,,,,,,2,6,2,stim/62.jpeg,HouseObjects,1,stim/objects/HouseObjects/safetypin2.png,0.7,1,-0.2,0.15,left,49,2021-01-12_01h04.51.774,premup-three_ses-01_part-01_label-phase1,3.2.4,MacIntel,60,left,0.743000031,4,0,4,0,1,3,1,0,240,145,1,239,,,,,,,,,,,,,,,,,,
,,0,141,,,,,,,1,4,3,stim/43.jpeg,HouseObjects,1,stim/objects/HouseObjects/teapot.png,0.5,2,0.2,0.15,left,49,2021-01-12_01h04.51.774,premup-three_ses-01_part-01_label-phase1,3.2.4,MacIntel,60,right,0.83100009,4,0,4,0,1,3,1,0,240,50,1,239,,,,,,,,,,,,,,,,,,
,,0,142,,,,,,,3,1,2,stim/12.jpeg,HouseObjects,1,stim/objects/HouseObjects/spraybottle2.png,0.1,3,-0.2,-0.15,left,49,2021-01-12_01h04.51.774,premup-three_ses-01_part-01_label-phase1,3.2.4,MacIntel,60,right,0.822999716,4,0,4,0,1,3,1,0,240,161,1,239,,,,,,,,,,,,,,,,,,
,,0,143,,,,,,,1,3,3,stim/33.jpeg,Instruments,2,stim/objects/Instruments/speaker.png,0.5,2,0.2,0.15,right,49,2021-01-12_01h04.51.774,premup-three_ses-01_part-01_label-phase1,3.2.4,MacIntel,60,left,0.916999817,4,0,4,0,1,3,1,0,240,30,1,239,,,,,,,,,,,,,,,,,,
,,0,144,,,,,,,1,3,4,stim/34.jpeg,HouseObjects,1,stim/objects/HouseObjects/scale.png,0.5,2,0.2,0.15,left,49,2021-01-12_01h04.51.774,premup-three_ses-01_part-01_label-phase1,3.2.4,MacIntel,60,right,0.65199995,4,0,4,0,1,3,1,0,240,15,1,239,,,,,,,,,,,,,,,,,,
,,1,145,,,,,,,3,2,1,stim/21.jpeg,HouseObjects,1,stim/objects/HouseObjects/thread2.png,0.9,4,0.2,-0.15,left,49,2021-01-12_01h04.51.774,premup-three_ses-01_part-01_label-phase1,3.2.4,MacIntel,60,left,0.733999968,4,0,4,0,1,3,1,0,240,224,1,239,,,,,,,,,,,,,,,,,,
,,0,146,,,,,,,1,4,4,stim/44.jpeg,Instruments,2,stim/objects/Instruments/trumpet.png,0.5,3,-0.2,-0.15,right,49,2021-01-12_01h04.51.774,premup-three_ses-01_part-01_label-phase1,3.2.4,MacIntel,60,left,1.013999939,4,0,4,0,1,3,1,0,240,71,1,239,,,,,,,,,,,,,,,,,,
,,0,147,,,,,,,3,1,3,stim/13.jpeg,Instruments,2,stim/objects/Instruments/trombone2.png,0.9,2,0.2,0.15,right,49,2021-01-12_01h04.51.774,premup-three_ses-01_part-01_label-phase1,3.2.4,MacIntel,60,left,1.098999739,4,0,4,0,1,3,1,0,240,170,1,239,,,,,,,,,,,,,,,,,,
,,1,148,,,,,,,3,1,1,stim/11.jpeg,Instruments,2,stim/objects/Instruments/timbal2.png,0.9,1,-0.2,0.15,right,49,2021-01-12_01h04.51.774,premup-three_ses-01_part-01_label-phase1,3.2.4,MacIntel,60,right,0.92599988,4,0,4,0,1,3,1,0,240,176,1,239,,,,,,,,,,,,,,,,,,
,,1,149,,,,,,,2,6,3,stim/63.jpeg,Instruments,2,stim/objects/Instruments/speaker2.png,0.3,4,0.2,-0.15,right,49,2021-01-12_01h04.51.774,premup-three_ses-01_part-01_label-phase1,3.2.4,MacIntel,60,right,1.199999809,4,0,4,0,1,3,1,0,240,154,1,239,,,,,,,,,,,,,,,,,,
,,1,150,,,,,,,3,2,1,stim/21.jpeg,HouseObjects,1,stim/objects/HouseObjects/thread2.png,0.9,4,0.2,-0.15,left,49,2021-01-12_01h04.51.774,premup-three_ses-01_part-01_label-phase1,3.2.4,MacIntel,60,left,0.752999783,4,0,4,0,1,3,1,0,240,220,1,239,,,,,,,,,,,,,,,,,,
,,1,151,,,,,,,3,1,3,stim/13.jpeg,Instruments,2,stim/objects/Instruments/trombone2.png,0.9,2,0.2,0.15,right,49,2021-01-12_01h04.51.774,premup-three_ses-01_part-01_label-phase1,3.2.4,MacIntel,60,right,0.731999874,4,0,4,0,1,3,1,0,240,174,1,239,,,,,,,,,,,,,,,,,,
,,1,152,,,,,,,1,3,3,stim/33.jpeg,HouseObjects,1,stim/objects/HouseObjects/saw.png,0.5,1,-0.2,0.15,left,49,2021-01-12_01h04.51.774,premup-three_ses-01_part-01_label-phase1,3.2.4,MacIntel,60,left,0.921000004,4,0,4,0,1,3,1,0,240,14,1,239,,,,,,,,,,,,,,,,,,
,,1,153,,,,,,,1,3,2,stim/32.jpeg,HouseObjects,1,stim/objects/HouseObjects/safetypin.png,0.5,4,0.2,-0.15,left,49,2021-01-12_01h04.51.774,premup-three_ses-01_part-01_label-phase1,3.2.4,MacIntel,60,left,0.741999865,4,0,4,0,1,3,1,0,240,13,1,239,,,,,,,,,,,,,,,,,,
,,0,154,,,,,,,2,5,2,stim/52.jpeg,HouseObjects,1,stim/objects/HouseObjects/towel.png,0.3,2,0.2,0.15,left,49,2021-01-12_01h04.51.774,premup-three_ses-01_part-01_label-phase1,3.2.4,MacIntel,60,right,0.928999901,4,0,4,0,1,3,1,0,240,89,1,239,,,,,,,,,,,,,,,,,,
,,1,155,,,,,,,1,4,4,stim/44.jpeg,HouseObjects,1,stim/objects/HouseObjects/thermometer.png,0.5,2,0.2,0.15,left,49,2021-01-12_01h04.51.774,premup-three_ses-01_part-01_label-phase1,3.2.4,MacIntel,60,left,0.92599988,4,0,4,0,1,3,1,0,240,59,1,239,,,,,,,,,,,,,,,,,,
,,1,156,,,,,,,2,6,1,stim/61.jpeg,Instruments,2,stim/objects/Instruments/record_player2.png,0.3,3,-0.2,-0.15,right,49,2021-01-12_01h04.51.774,premup-three_ses-01_part-01_label-phase1,3.2.4,MacIntel,60,right,0.828000069,4,0,4,0,1,3,1,0,240,156,1,239,,,,,,,,,,,,,,,,,,
,,0,157,,,,,,,1,4,1,stim/41.jpeg,Instruments,2,stim/objects/Instruments/timbal.png,0.5,1,-0.2,0.15,right,49,2021-01-12_01h04.51.774,premup-three_ses-01_part-01_label-phase1,3.2.4,MacIntel,60,left,1.013999939,4,0,4,0,1,3,1,0,240,72,1,239,,,,,,,,,,,,,,,,,,
,,0,158,,,,,,,2,5,4,stim/54.jpeg,Instruments,2,stim/objects/Instruments/xylophone.png,0.7,1,-0.2,0.15,right,49,2021-01-12_01h04.51.774,premup-three_ses-01_part-01_label-phase1,3.2.4,MacIntel,60,left,0.921999931,4,0,4,0,1,3,1,0,240,107,1,239,,,,,,,,,,,,,,,,,,
,,1,159,,,,,,,1,4,1,stim/41.jpeg,HouseObjects,1,stim/objects/HouseObjects/sponge.png,0.5,3,-0.2,-0.15,left,49,2021-01-12_01h04.51.774,premup-three_ses-01_part-01_label-phase1,3.2.4,MacIntel,60,left,0.924999952,4,0,4,0,1,3,1,0,240,52,1,239,,,,,,,,,,,,,,,,,,
,,1,160,,,,,,,3,1,2,stim/12.jpeg,Instruments,2,stim/objects/Instruments/triangle2.png,0.9,1,-0.2,0.15,right,49,2021-01-12_01h04.51.774,premup-three_ses-01_part-01_label-phase1,3.2.4,MacIntel,60,right,0.921999931,4,0,4,0,1,3,1,0,240,173,1,239,,,,,,,,,,,,,,,,,,
,,1,161,,,,,,,3,2,2,stim/22.jpeg,HouseObjects,1,stim/objects/HouseObjects/towel2.png,0.9,4,0.2,-0.15,left,49,2021-01-12_01h04.51.774,premup-three_ses-01_part-01_label-phase1,3.2.4,MacIntel,60,left,0.833999872,4,0,4,0,1,3,1,0,240,221,1,239,,,,,,,,,,,,,,,,,,
,,1,162,,,,,,,1,3,2,stim/32.jpeg,Instruments,2,stim/objects/Instruments/saxophone.png,0.5,1,-0.2,0.15,right,49,2021-01-12_01h04.51.774,premup-three_ses-01_part-01_label-phase1,3.2.4,MacIntel,60,right,1.105999947,4,0,4,0,1,3,1,0,240,33,1,239,,,,,,,,,,,,,,,,,,
,,1,163,,,,,,,2,5,4,stim/54.jpeg,Instruments,2,stim/objects/Instruments/xylophone.png,0.7,4,0.2,-0.15,right,49,2021-01-12_01h04.51.774,premup-three_ses-01_part-01_label-phase1,3.2.4,MacIntel,60,right,1.373999834,4,0,4,0,1,3,1,0,240,111,1,239,,,,,,,,,,,,,,,,,,
,,0,164,,,,,,,3,1,1,stim/11.jpeg,Instruments,2,stim/objects/Instruments/timbal2.png,0.9,1,-0.2,0.15,right,49,2021-01-12_01h04.51.774,premup-three_ses-01_part-01_label-phase1,3.2.4,MacIntel,60,left,1.092999935,4,0,4,0,1,3,1,0,240,188,1,239,,,,,,,,,,,,,,,,,,
,,1,165,,,,,,,3,2,4,stim/24.jpeg,HouseObjects,1,stim/objects/HouseObjects/wateringcan2.png,0.9,1,-0.2,0.15,left,49,2021-01-12_01h04.51.774,premup-three_ses-01_part-01_label-phase1,3.2.4,MacIntel,60,left,0.924000025,4,0,4,0,1,3,1,0,240,207,1,239,,,,,,,,,,,,,,,,,,
,,1,166,,,,,,,3,2,2,stim/22.jpeg,HouseObjects,1,stim/objects/HouseObjects/towel2.png,0.9,3,-0.2,-0.15,left,49,2021-01-12_01h04.51.774,premup-three_ses-01_part-01_label-phase1,3.2.4,MacIntel,60,left,0.74000001,4,0,4,0,1,3,1,0,240,209,1,239,,,,,,,,,,,,,,,,,,
,,1,167,,,,,,,2,5,4,stim/54.jpeg,Instruments,2,stim/objects/Instruments/xylophone.png,0.7,1,-0.2,0.15,right,49,2021-01-12_01h04.51.774,premup-three_ses-01_part-01_label-phase1,3.2.4,MacIntel,60,right,0.927999973,4,0,4,0,1,3,1,0,240,95,1,239,,,,,,,,,,,,,,,,,,
,,0,168,,,,,,,2,6,2,stim/62.jpeg,HouseObjects,1,stim/objects/HouseObjects/safetypin2.png,0.7,4,0.2,-0.15,left,49,2021-01-12_01h04.51.774,premup-three_ses-01_part-01_label-phase1,3.2.4,MacIntel,60,right,0.922999859,4,0,4,0,1,3,1,0,240,125,1,239,,,,,,,,,,,,,,,,,,
,,1,169,,,,,,,1,3,1,stim/31.jpeg,HouseObjects,1,stim/objects/HouseObjects/rug.png,0.5,3,-0.2,-0.15,left,49,2021-01-12_01h04.51.774,premup-three_ses-01_part-01_label-phase1,3.2.4,MacIntel,60,left,1.106999874,4,0,4,0,1,3,1,0,240,4,1,239,,,,,,,,,,,,,,,,,,
,,0,170,,,,,,,1,3,1,stim/31.jpeg,Instruments,2,stim/objects/Instruments/record_player.png,0.5,1,-0.2,0.15,right,49,2021-01-12_01h04.51.774,premup-three_ses-01_part-01_label-phase1,3.2.4,MacIntel,60,left,1.01699996,4,0,4,0,1,3,1,0,240,32,1,239,,,,,,,,,,,,,,,,,,
,,1,171,,,,,,,3,2,4,stim/24.jpeg,HouseObjects,1,stim/objects/HouseObjects/wateringcan2.png,0.9,4,0.2,-0.15,left,49,2021-01-12_01h04.51.774,premup-three_ses-01_part-01_label-phase1,3.2.4,MacIntel,60,left,1.203999996,4,0,4,0,1,3,1,0,240,223,1,239,,,,,,,,,,,,,,,,,,
,,0,172,,,,,,,1,3,3,stim/33.jpeg,Instruments,2,stim/objects/Instruments/speaker.png,0.5,1,-0.2,0.15,right,49,2021-01-12_01h04.51.774,premup-three_ses-01_part-01_label-phase1,3.2.4,MacIntel,60,left,0.924000025,4,0,4,0,1,3,1,0,240,38,1,239,,,,,,,,,,,,,,,,,,
,,1,173,,,,,,,2,5,2,stim/52.jpeg,Instruments,2,stim/objects/Instruments/violin.png,0.7,2,0.2,0.15,right,49,2021-01-12_01h04.51.774,premup-three_ses-01_part-01_label-phase1,3.2.4,MacIntel,60,right,0.832999945,4,0,4,0,1,3,1,0,240,105,1,239,,,,,,,,,,,,,,,,,,
,,1,174,,,,,,,1,4,1,stim/41.jpeg,Instruments,2,stim/objects/Instruments/timbal.png,0.5,2,0.2,0.15,right,49,2021-01-12_01h04.51.774,premup-three_ses-01_part-01_label-phase1,3.2.4,MacIntel,60,right,1.109999895,4,0,4,0,1,3,1,0,240,64,1,239,,,,,,,,,,,,,,,,,,
,,1,175,,,,,,,1,3,3,stim/33.jpeg,Instruments,2,stim/objects/Instruments/speaker.png,0.5,1,-0.2,0.15,right,49,2021-01-12_01h04.51.774,premup-three_ses-01_part-01_label-phase1,3.2.4,MacIntel,60,right,1.098999977,4,0,4,0,1,3,1,0,240,26,1,239,,,,,,,,,,,,,,,,,,
,,0,176,,,,,,,1,4,3,stim/43.jpeg,Instruments,2,stim/objects/Instruments/trombone.png,0.5,4,0.2,-0.15,right,49,2021-01-12_01h04.51.774,premup-three_ses-01_part-01_label-phase1,3.2.4,MacIntel,60,left,1.019000053,4,0,4,0,1,3,1,0,240,78,1,239,,,,,,,,,,,,,,,,,,
,,1,177,,,,,,,2,5,3,stim/53.jpeg,Instruments,2,stim/objects/Instruments/vuvuzela.png,0.7,1,-0.2,0.15,right,49,2021-01-12_01h04.51.774,premup-three_ses-01_part-01_label-phase1,3.2.4,MacIntel,60,right,0.927999973,4,0,4,0,1,3,1,0,240,110,1,239,,,,,,,,,,,,,,,,,,
,,0,178,,,,,,,1,4,4,stim/44.jpeg,Instruments,2,stim/objects/Instruments/trumpet.png,0.5,1,-0.2,0.15,right,49,2021-01-12_01h04.51.774,premup-three_ses-01_part-01_label-phase1,3.2.4,MacIntel,60,left,0.92599988,4,0,4,0,1,3,1,0,240,63,1,239,,,,,,,,,,,,,,,,,,
,,0,179,,,,,,,3,2,3,stim/23.jpeg,Instruments,2,stim/objects/Instruments/vuvuzela2.png,0.1,2,0.2,0.15,right,49,2021-01-12_01h04.51.774,premup-three_ses-01_part-01_label-phase1,3.2.4,MacIntel,60,left,0.924000025,4,0,4,0,1,3,1,0,240,238,1,239,,,,,,,,,,,,,,,,,,
,,0,180,,,,,,,1,3,3,stim/33.jpeg,HouseObjects,1,stim/objects/HouseObjects/saw.png,0.5,1,-0.2,0.15,left,49,2021-01-12_01h04.51.774,premup-three_ses-01_part-01_label-phase1,3.2.4,MacIntel,60,right,0.835999966,4,0,4,0,1,3,1,0,240,10,1,239,,,,,,,,,,,,,,,,,,
,,0,181,,,,,,,2,6,1,stim/61.jpeg,HouseObjects,1,stim/objects/HouseObjects/rug2.png,0.7,2,0.2,0.15,left,49,2021-01-12_01h04.51.774,premup-three_ses-01_part-01_label-phase1,3.2.4,MacIntel,60,right,0.832999945,4,0,4,0,1,3,1,0,240,136,1,239,,,,,,,,,,,,,,,,,,
,,0,182,,,,,,,1,4,2,stim/42.jpeg,Instruments,2,stim/objects/Instruments/triangle.png,0.5,1,-0.2,0.15,right,49,2021-01-12_01h04.51.774,premup-three_ses-01_part-01_label-phase1,3.2.4,MacIntel,60,left,1.467000008,4,0,4,0,1,3,1,0,240,61,1,239,,,,,,,,,,,,,,,,,,
,,1,183,,,,,,,2,5,4,stim/54.jpeg,Instruments,2,stim/objects/Instruments/xylophone.png,0.7,2,0.2,0.15,right,49,2021-01-12_01h04.51.774,premup-three_ses-01_part-01_label-phase1,3.2.4,MacIntel,60,right,1.017999887,4,0,4,0,1,3,1,0,240,99,1,239,,,,,,,,,,,,,,,,,,
,,1,184,,,,,,,3,1,3,stim/13.jpeg,Instruments,2,stim/objects/Instruments/trombone2.png,0.9,4,0.2,-0.15,right,49,2021-01-12_01h04.51.774,premup-three_ses-01_part-01_label-phase1,3.2.4,MacIntel,60,right,1.2099998,4,0,4,0,1,3,1,0,240,166,1,239,,,,,,,,,,,,,,,,,,
,,1,185,,,,,,,2,6,3,stim/63.jpeg,Instruments,2,stim/objects/Instruments/speaker2.png,0.3,3,-0.2,-0.15,right,49,2021-01-12_01h04.51.774,premup-three_ses-01_part-01_label-phase1,3.2.4,MacIntel,60,right,0.65199995,4,0,4,0,1,3,1,0,240,158,1,239,,,,,,,,,,,,,,,,,,
,,1,186,,,,,,,3,1,2,stim/12.jpeg,Instruments,2,stim/objects/Instruments/triangle2.png,0.9,3,-0.2,-0.15,right,49,2021-01-12_01h04.51.774,premup-three_ses-01_part-01_label-phase1,3.2.4,MacIntel,60,right,0.826999903,4,0,4,0,1,3,1,0,240,181,1,239,,,,,,,,,,,,,,,,,,
,,1,187,,,,,,,2,5,1,stim/51.jpeg,Instruments,2,stim/objects/Instruments/tuba.png,0.7,2,0.2,0.15,right,49,2021-01-12_01h04.51.774,premup-three_ses-01_part-01_label-phase1,3.2.4,MacIntel,60,right,0.833999872,4,0,4,0,1,3,1,0,240,104,1,239,,,,,,,,,,,,,,,,,,
,,1,188,,,,,,,1,4,1,stim/41.jpeg,Instruments,2,stim/objects/Instruments/timbal.png,0.5,4,0.2,-0.15,right,49,2021-01-12_01h04.51.774,premup-three_ses-01_part-01_label-phase1,3.2.4,MacIntel,60,right,0.919999838,4,0,4,0,1,3,1,0,240,60,1,239,,,,,,,,,,,,,,,,,,
,,1,189,,,,,,,3,1,2,stim/12.jpeg,Instruments,2,stim/objects/Instruments/triangle2.png,0.9,2,0.2,0.15,right,49,2021-01-12_01h04.51.774,premup-three_ses-01_part-01_label-phase1,3.2.4,MacIntel,60,right,0.659999847,4,0,4,0,1,3,1,0,240,165,1,239,,,,,,,,,,,,,,,,,,
,,1,190,,,,,,,3,2,1,stim/21.jpeg,HouseObjects,1,stim/objects/HouseObjects/thread2.png,0.9,2,0.2,0.15,left,49,2021-01-12_01h04.51.774,premup-three_ses-01_part-01_label-phase1,3.2.4,MacIntel,60,left,0.833999872,4,0,4,0,1,3,1,0,240,216,1,239,,,,,,,,,,,,,,,,,,
,,1,191,,,,,,,3,1,2,stim/12.jpeg,Instruments,2,stim/objects/Instruments/triangle2.png,0.9,1,-0.2,0.15,right,49,2021-01-12_01h04.51.774,premup-three_ses-01_part-01_label-phase1,3.2.4,MacIntel,60,right,0.739000082,4,0,4,0,1,3,1,0,240,169,1,239,,,,,,,,,,,,,,,,,,
,,0,192,,,,,,,2,6,3,stim/63.jpeg,HouseObjects,1,stim/objects/HouseObjects/saw2.png,0.7,4,0.2,-0.15,left,49,2021-01-12_01h04.51.774,premup-three_ses-01_part-01_label-phase1,3.2.4,MacIntel,60,right,0.744999886,4,0,4,0,1,3,1,0,240,126,1,239,,,,,,,,,,,,,,,,,,
,,1,193,,,,,,,1,3,4,stim/34.jpeg,Instruments,2,stim/objects/Instruments/tambourine.png,0.5,2,0.2,0.15,right,49,2021-01-12_01h04.51.774,premup-three_ses-01_part-01_label-phase1,3.2.4,MacIntel,60,right,1.558999777,4,0,4,0,1,3,1,0,240,35,1,239,,,,,,,,,,,,,,,,,,
,,1,194,,,,,,,1,4,2,stim/42.jpeg,HouseObjects,1,stim/objects/HouseObjects/spraybottle.png,0.5,4,0.2,-0.15,left,49,2021-01-12_01h04.51.774,premup-three_ses-01_part-01_label-phase1,3.2.4,MacIntel,60,left,0.838999987,4,0,4,0,1,3,1,0,240,49,1,239,,,,,,,,,,,,,,,,,,
,,1,195,,,,,,,3,1,1,stim/11.jpeg,Instruments,2,stim/objects/Instruments/timbal2.png,0.9,4,0.2,-0.15,right,49,2021-01-12_01h04.51.774,premup-three_ses-01_part-01_label-phase1,3.2.4,MacIntel,60,right,0.736000061,4,0,4,0,1,3,1,0,240,192,1,239,,,,,,,,,,,,,,,,,,
,,1,196,,,,,,,3,1,1,stim/11.jpeg,Instruments,2,stim/objects/Instruments/timbal2.png,0.9,1,-0.2,0.15,right,49,2021-01-12_01h04.51.774,premup-three_ses-01_part-01_label-phase1,3.2.4,MacIntel,60,right,0.742999792,4,0,4,0,1,3,1,0,240,180,1,239,,,,,,,,,,,,,,,,,,
,,1,197,,,,,,,3,1,4,stim/14.jpeg,Instruments,2,stim/objects/Instruments/trumpet2.png,0.9,3,-0.2,-0.15,right,49,2021-01-12_01h04.51.774,premup-three_ses-01_part-01_label-phase1,3.2.4,MacIntel,60,right,0.835000038,4,0,4,0,1,3,1,0,240,167,1,239,,,,,,,,,,,,,,,,,,
,,1,198,,,,,,,1,4,2,stim/42.jpeg,Instruments,2,stim/objects/Instruments/triangle.png,0.5,3,-0.2,-0.15,right,49,2021-01-12_01h04.51.774,premup-three_ses-01_part-01_label-phase1,3.2.4,MacIntel,60,right,0.922999859,4,0,4,0,1,3,1,0,240,77,1,239,,,,,,,,,,,,,,,,,,
,,1,199,,,,,,,3,1,2,stim/12.jpeg,Instruments,2,stim/objects/Instruments/triangle2.png,0.9,1,-0.2,0.15,right,49,2021-01-12_01h04.51.774,premup-three_ses-01_part-01_label-phase1,3.2.4,MacIntel,60,right,0.739000082,4,0,4,0,1,3,1,0,240,193,1,239,,,,,,,,,,,,,,,,,,
,,1,200,,,,,,,1,4,1,stim/41.jpeg,HouseObjects,1,stim/objects/HouseObjects/sponge.png,0.5,2,0.2,0.15,left,49,2021-01-12_01h04.51.774,premup-three_ses-01_part-01_label-phase1,3.2.4,MacIntel,60,left,1.289000034,4,0,4,0,1,3,1,0,240,48,1,239,,,,,,,,,,,,,,,,,,
,,1,201,,,,,,,1,4,3,stim/43.jpeg,HouseObjects,1,stim/objects/HouseObjects/teapot.png,0.5,2,0.2,0.15,left,49,2021-01-12_01h04.51.774,premup-three_ses-01_part-01_label-phase1,3.2.4,MacIntel,60,left,1.194999933,4,0,4,0,1,3,1,0,240,46,1,239,,,,,,,,,,,,,,,,,,
,,0,202,,,,,,,2,6,3,stim/63.jpeg,HouseObjects,1,stim/objects/HouseObjects/saw2.png,0.7,2,0.2,0.15,left,49,2021-01-12_01h04.51.774,premup-three_ses-01_part-01_label-phase1,3.2.4,MacIntel,60,right,0.822999954,4,0,4,0,1,3,1,0,240,130,1,239,,,,,,,,,,,,,,,,,,
,,0,203,,,,,,,2,5,4,stim/54.jpeg,HouseObjects,1,stim/objects/HouseObjects/wateringcan.png,0.3,2,0.2,0.15,left,49,2021-01-12_01h04.51.774,premup-three_ses-01_part-01_label-phase1,3.2.4,MacIntel,60,right,0.741999865,4,0,4,0,1,3,1,0,240,87,1,239,,,,,,,,,,,,,,,,,,
,,1,204,,,,,,,3,2,4,stim/24.jpeg,HouseObjects,1,stim/objects/HouseObjects/wateringcan2.png,0.9,4,0.2,-0.15,left,49,2021-01-12_01h04.51.774,premup-three_ses-01_part-01_label-phase1,3.2.4,MacIntel,60,left,0.736999989,4,0,4,0,1,3,1,0,240,203,1,239,,,,,,,,,,,,,,,,,,
,,1,205,,,,,,,3,2,3,stim/23.jpeg,HouseObjects,1,stim/objects/HouseObjects/vacuumcleaner2.png,0.9,4,0.2,-0.15,left,49,2021-01-12_01h04.51.774,premup-three_ses-01_part-01_label-phase1,3.2.4,MacIntel,60,left,0.562999964,4,0,4,0,1,3,1,0,240,210,1,239,,,,,,,,,,,,,,,,,,
,,1,206,,,,,,,3,2,3,stim/23.jpeg,HouseObjects,1,stim/objects/HouseObjects/vacuumcleaner2.png,0.9,4,0.2,-0.15,left,49,2021-01-12_01h04.51.774,premup-three_ses-01_part-01_label-phase1,3.2.4,MacIntel,60,left,0.648999929,4,0,4,0,1,3,1,0,240,206,1,239,,,,,,,,,,,,,,,,,,
,,0,207,,,,,,,2,6,1,stim/61.jpeg,HouseObjects,1,stim/objects/HouseObjects/rug2.png,0.7,1,-0.2,0.15,left,49,2021-01-12_01h04.51.774,premup-three_ses-01_part-01_label-phase1,3.2.4,MacIntel,60,right,0.926000118,4,0,4,0,1,3,1,0,240,140,1,239,,,,,,,,,,,,,,,,,,
,,1,208,,,,,,,3,1,1,stim/11.jpeg,Instruments,2,stim/objects/Instruments/timbal2.png,0.9,4,0.2,-0.15,right,49,2021-01-12_01h04.51.774,premup-three_ses-01_part-01_label-phase1,3.2.4,MacIntel,60,right,0.73699975,4,0,4,0,1,3,1,0,240,172,1,239,,,,,,,,,,,,,,,,,,
,,1,209,,,,,,,1,3,4,stim/34.jpeg,Instruments,2,stim/objects/Instruments/tambourine.png,0.5,1,-0.2,0.15,right,49,2021-01-12_01h04.51.774,premup-three_ses-01_part-01_label-phase1,3.2.4,MacIntel,60,right,0.924999952,4,0,4,0,1,3,1,0,240,31,1,239,,,,,,,,,,,,,,,,,,
,,0,210,,,,,,,1,4,3,stim/43.jpeg,Instruments,2,stim/objects/Instruments/trombone.png,0.5,3,-0.2,-0.15,right,49,2021-01-12_01h04.51.774,premup-three_ses-01_part-01_label-phase1,3.2.4,MacIntel,60,left,1.552999973,4,0,4,0,1,3,1,0,240,70,1,239,,,,,,,,,,,,,,,,,,
,,0,211,,,,,,,3,1,4,stim/14.jpeg,HouseObjects,1,stim/objects/HouseObjects/thermometer2.png,0.1,3,-0.2,-0.15,left,49,2021-01-12_01h04.51.774,premup-three_ses-01_part-01_label-phase1,3.2.4,MacIntel,60,right,1.016000032,4,0,4,0,1,3,1,0,240,163,1,239,,,,,,,,,,,,,,,,,,
,,1,212,,,,,,,3,2,2,stim/22.jpeg,HouseObjects,1,stim/objects/HouseObjects/towel2.png,0.9,2,0.2,0.15,left,49,2021-01-12_01h04.51.774,premup-three_ses-01_part-01_label-phase1,3.2.4,MacIntel,60,left,1.923999786,4,0,4,0,1,3,1,0,240,233,1,239,,,,,,,,,,,,,,,,,,
,,1,213,,,,,,,3,2,1,stim/21.jpeg,HouseObjects,1,stim/objects/HouseObjects/thread2.png,0.9,2,0.2,0.15,left,49,2021-01-12_01h04.51.774,premup-three_ses-01_part-01_label-phase1,3.2.4,MacIntel,60,left,0.737999916,4,0,4,0,1,3,1,0,240,212,1,239,,,,,,,,,,,,,,,,,,
,,1,214,,,,,,,1,3,4,stim/34.jpeg,Instruments,2,stim/objects/Instruments/tambourine.png,0.5,1,-0.2,0.15,right,49,2021-01-12_01h04.51.774,premup-three_ses-01_part-01_label-phase1,3.2.4,MacIntel,60,right,0.836999893,4,0,4,0,1,3,1,0,240,23,1,239,,,,,,,,,,,,,,,,,,
,,1,215,,,,,,,2,5,1,stim/51.jpeg,Instruments,2,stim/objects/Instruments/tuba.png,0.7,3,-0.2,-0.15,right,49,2021-01-12_01h04.51.774,premup-three_ses-01_part-01_label-phase1,3.2.4,MacIntel,60,right,1.108999968,4,0,4,0,1,3,1,0,240,108,1,239,,,,,,,,,,,,,,,,,,
,,0,216,,,,,,,2,6,2,stim/62.jpeg,Instruments,2,stim/objects/Instruments/saxophone2.png,0.3,4,0.2,-0.15,right,49,2021-01-12_01h04.51.774,premup-three_ses-01_part-01_label-phase1,3.2.4,MacIntel,60,,,4,0,4,0,1,3,1,0,240,153,1,239,,,,,,,,,,,,,,,,,,
,,0,217,,,,,,,3,2,1,stim/21.jpeg,Instruments,2,stim/objects/Instruments/tuba2.png,0.1,1,-0.2,0.15,right,49,2021-01-12_01h04.51.774,premup-three_ses-01_part-01_label-phase1,3.2.4,MacIntel,60,left,0.745999813,4,0,4,0,1,3,1,0,240,236,1,239,,,,,,,,,,,,,,,,,,
,,1,218,,,,,,,3,1,4,stim/14.jpeg,Instruments,2,stim/objects/Instruments/trumpet2.png,0.9,1,-0.2,0.15,right,49,2021-01-12_01h04.51.774,premup-three_ses-01_part-01_label-phase1,3.2.4,MacIntel,60,right,1.472999811,4,0,4,0,1,3,1,0,240,199,1,239,,,,,,,,,,,,,,,,,,
,,1,219,,,,,,,3,2,1,stim/21.jpeg,HouseObjects,1,stim/objects/HouseObjects/thread2.png,0.9,1,-0.2,0.15,left,49,2021-01-12_01h04.51.774,premup-three_ses-01_part-01_label-phase1,3.2.4,MacIntel,60,left,1.381999969,4,0,4,0,1,3,1,0,240,228,1,239,,,,,,,,,,,,,,,,,,
,,1,220,,,,,,,1,4,4,stim/44.jpeg,HouseObjects,1,stim/objects/HouseObjects/thermometer.png,0.5,2,0.2,0.15,left,49,2021-01-12_01h04.51.774,premup-three_ses-01_part-01_label-phase1,3.2.4,MacIntel,60,left,1.115999937,4,0,4,0,1,3,1,0,240,55,1,239,,,,,,,,,,,,,,,,,,
,,0,221,,,,,,,1,3,2,stim/32.jpeg,HouseObjects,1,stim/objects/HouseObjects/safetypin.png,0.5,3,-0.2,-0.15,left,49,2021-01-12_01h04.51.774,premup-three_ses-01_part-01_label-phase1,3.2.4,MacIntel,60,right,0.924000025,4,0,4,0,1,3,1,0,240,9,1,239,,,,,,,,,,,,,,,,,,
,,1,222,,,,,,,3,1,3,stim/13.jpeg,Instruments,2,stim/objects/Instruments/trombone2.png,0.9,2,0.2,0.15,right,49,2021-01-12_01h04.51.774,premup-three_ses-01_part-01_label-phase1,3.2.4,MacIntel,60,right,0.836999893,4,0,4,0,1,3,1,0,240,182,1,239,,,,,,,,,,,,,,,,,,
,,1,223,,,,,,,1,4,3,stim/43.jpeg,Instruments,2,stim/objects/Instruments/trombone.png,0.5,4,0.2,-0.15,right,49,2021-01-12_01h04.51.774,premup-three_ses-01_part-01_label-phase1,3.2.4,MacIntel,60,right,1.388999939,4,0,4,0,1,3,1,0,240,66,1,239,,,,,,,,,,,,,,,,,,
,,1,224,,,,,,,3,1,4,stim/14.jpeg,Instruments,2,stim/objects/Instruments/trumpet2.png,0.9,4,0.2,-0.15,right,49,2021-01-12_01h04.51.774,premup-three_ses-01_part-01_label-phase1,3.2.4,MacIntel,60,right,1.378999949,4,0,4,0,1,3,1,0,240,187,1,239,,,,,,,,,,,,,,,,,,
,,1,225,,,,,,,1,3,4,stim/34.jpeg,Instruments,2,stim/objects/Instruments/tambourine.png,0.5,1,-0.2,0.15,right,49,2021-01-12_01h04.51.774,premup-three_ses-01_part-01_label-phase1,3.2.4,MacIntel,60,right,1.016000032,4,0,4,0,1,3,1,0,240,27,1,239,,,,,,,,,,,,,,,,,,
,,1,226,,,,,,,3,1,2,stim/12.jpeg,Instruments,2,stim/objects/Instruments/triangle2.png,0.9,3,-0.2,-0.15,right,49,2021-01-12_01h04.51.774,premup-three_ses-01_part-01_label-phase1,3.2.4,MacIntel,60,right,0.834000111,4,0,4,0,1,3,1,0,240,177,1,239,,,,,,,,,,,,,,,,,,
,,1,227,,,,,,,3,1,4,stim/14.jpeg,Instruments,2,stim/objects/Instruments/trumpet2.png,0.9,3,-0.2,-0.15,right,49,2021-01-12_01h04.51.774,premup-three_ses-01_part-01_label-phase1,3.2.4,MacIntel,60,right,0.739000082,4,0,4,0,1,3,1,0,240,195,1,239,,,,,,,,,,,,,,,,,,
,,0,228,,,,,,,1,3,4,stim/34.jpeg,HouseObjects,1,stim/objects/HouseObjects/scale.png,0.5,3,-0.2,-0.15,left,49,2021-01-12_01h04.51.774,premup-three_ses-01_part-01_label-phase1,3.2.4,MacIntel,60,right,0.920999765,4,0,4,0,1,3,1,0,240,3,1,239,,,,,,,,,,,,,,,,,,
,,0,229,,,,,,,1,3,4,stim/34.jpeg,Instruments,2,stim/objects/Instruments/tambourine.png,0.5,4,0.2,-0.15,right,49,2021-01-12_01h04.51.774,premup-three_ses-01_part-01_label-phase1,3.2.4,MacIntel,60,left,0.91899991,4,0,4,0,1,3,1,0,240,39,1,239,,,,,,,,,,,,,,,,,,
,,1,230,,,,,,,1,3,3,stim/33.jpeg,Instruments,2,stim/objects/Instruments/speaker.png,0.5,3,-0.2,-0.15,right,49,2021-01-12_01h04.51.774,premup-three_ses-01_part-01_label-phase1,3.2.4,MacIntel,60,right,0.894000053,4,0,4,0,1,3,1,0,240,34,1,239,,,,,,,,,,,,,,,,,,
,,0,231,,,,,,,1,3,3,stim/33.jpeg,HouseObjects,1,stim/objects/HouseObjects/saw.png,0.5,3,-0.2,-0.15,left,49,2021-01-12_01h04.51.774,premup-three_ses-01_part-01_label-phase1,3.2.4,MacIntel,60,right,0.645999908,4,0,4,0,1,3,1,0,240,2,1,239,,,,,,,,,,,,,,,,,,
,,1,232,,,,,,,1,4,3,stim/43.jpeg,HouseObjects,1,stim/objects/HouseObjects/teapot.png,0.5,4,0.2,-0.15,left,49,2021-01-12_01h04.51.774,premup-three_ses-01_part-01_label-phase1,3.2.4,MacIntel,60,left,1.470000029,4,0,4,0,1,3,1,0,240,58,1,239,,,,,,,,,,,,,,,,,,
,,0,233,,,,,,,2,5,3,stim/53.jpeg,HouseObjects,1,stim/objects/HouseObjects/vacuumcleaner.png,0.3,4,0.2,-0.15,left,49,2021-01-12_01h04.51.774,premup-three_ses-01_part-01_label-phase1,3.2.4,MacIntel,60,right,1.01699996,4,0,4,0,1,3,1,0,240,86,1,239,,,,,,,,,,,,,,,,,,
,,1,234,,,,,,,3,2,2,stim/22.jpeg,HouseObjects,1,stim/objects/HouseObjects/towel2.png,0.9,3,-0.2,-0.15,left,49,2021-01-12_01h04.51.774,premup-three_ses-01_part-01_label-phase1,3.2.4,MacIntel,60,left,0.922999859,4,0,4,0,1,3,1,0,240,229,1,239,,,,,,,,,,,,,,,,,,
,,1,235,,,,,,,3,2,3,stim/23.jpeg,HouseObjects,1,stim/objects/HouseObjects/vacuumcleaner2.png,0.9,4,0.2,-0.15,left,49,2021-01-12_01h04.51.774,premup-three_ses-01_part-01_label-phase1,3.2.4,MacIntel,60,left,0.555999994,4,0,4,0,1,3,1,0,240,202,1,239,,,,,,,,,,,,,,,,,,
,,0,236,,,,,,,2,5,2,stim/52.jpeg,HouseObjects,1,stim/objects/HouseObjects/towel.png,0.3,4,0.2,-0.15,left,49,2021-01-12_01h04.51.774,premup-three_ses-01_part-01_label-phase1,3.2.4,MacIntel,60,right,0.923999786,4,0,4,0,1,3,1,0,240,81,1,239,,,,,,,,,,,,,,,,,,
,,1,237,,,,,,,1,4,2,stim/42.jpeg,Instruments,2,stim/objects/Instruments/triangle.png,0.5,1,-0.2,0.15,right,49,2021-01-12_01h04.51.774,premup-three_ses-01_part-01_label-phase1,3.2.4,MacIntel,60,right,1.742999792,4,0,4,0,1,3,1,0,240,65,1,239,,,,,,,,,,,,,,,,,,
,,1,238,,,,,,,1,3,2,stim/32.jpeg,Instruments,2,stim/objects/Instruments/saxophone.png,0.5,4,0.2,-0.15,right,49,2021-01-12_01h04.51.774,premup-three_ses-01_part-01_label-phase1,3.2.4,MacIntel,60,right,1.471999884,4,0,4,0,1,3,1,0,240,29,1,239,,,,,,,,,,,,,,,,,,
,,1,239,,,,,,,2,5,4,stim/54.jpeg,Instruments,2,stim/objects/Instruments/xylophone.png,0.7,1,-0.2,0.15,right,49,2021-01-12_01h04.51.774,premup-three_ses-01_part-01_label-phase1,3.2.4,MacIntel,60,right,1.002999783,4,0,4,0,1,3,1,0,240,115,1,239,,,,,,,,,,,,,,,,,,
,,0,240,,,,,,,2,6,4,stim/64.jpeg,HouseObjects,1,stim/objects/HouseObjects/scale2.png,0.7,4,0.2,-0.15,left,49,2021-01-12_01h04.51.774,premup-three_ses-01_part-01_label-phase1,3.2.4,MacIntel,60,right,1.017999887,4,0,4,0,1,3,1,0,240,123,1,239,,,,,,,,,,,,,,,,,,
,,,,,,,,,,,5,,stim/51.jpeg,,,,,,,,,49,2021-01-12_01h04.51.774,premup-three_ses-01_part-01_label-phase1,3.2.4,MacIntel,60,,,4,0,4,0,1,3,,,,,,,1,0,88,6.89199996,,,1,0,6,4,1,5,Music items,5,15,Household items,85,95
,,,,,,,,,,,4,,stim/41.jpeg,,,,,,,,,49,2021-01-12_01h04.51.774,premup-three_ses-01_part-01_label-phase1,3.2.4,MacIntel,60,,,4,0,4,0,1,3,,,,,,,1,0,64,12.1730001,,,1,0,6,3,1,5,Household items,65,75,Music items,25,35
,,,,,,,,,,,3,,stim/31.jpeg,,,,,,,,,49,2021-01-12_01h04.51.774,premup-three_ses-01_part-01_label-phase1,3.2.4,MacIntel,60,,,4,0,4,0,1,3,,,,,,,1,0,12,5.57400012,,,1,0,6,2,1,5,Household items,65,75,Music items,25,35
,,,,,,,,,,,6,,stim/61.jpeg,,,,,,,,,49,2021-01-12_01h04.51.774,premup-three_ses-01_part-01_label-phase1,3.2.4,MacIntel,60,,,4,0,4,0,1,3,,,,,,,1,0,76,9.313999891,,,1,0,6,5,1,5,Household items,5,15,Music items,85,95
,,,,,,,,,,,2,,stim/21.jpeg,,,,,,,,,49,2021-01-12_01h04.51.774,premup-three_ses-01_part-01_label-phase1,3.2.4,MacIntel,60,,,4,0,4,0,1,3,,,,,,,1,0,94,3.92599988,,,1,0,6,1,1,5,Music items,45,55,Household items,45,55
,,,,,,,,,,,1,,stim/11.jpeg,,,,,,,,,49,2021-01-12_01h04.51.774,premup-three_ses-01_part-01_label-phase1,3.2.4,MacIntel,60,,,4,0,4,0,1,3,,,,,,,1,0,36,2.922999859,,,1,0,6,0,1,5,Household items,45,55,Music items,45,55
,,,,,,,,,,,,,,,,,,,,,,49,2021-01-12_01h04.51.774,premup-three_ses-01_part-01_label-phase1,3.2.4,MacIntel,60,,,4,0,4,0,1,3,,,,,,,,,,,,,,,,,,,,,,,,
,,0,1,,,,,,,2,5,3,stim/53.jpeg,Instruments,2,stim/objects/Instruments/vuvuzela.png,0.7,2,0.2,0.15,right,49,2021-01-12_01h04.51.774,premup-three_ses-01_part-01_label-phase1,3.2.4,MacIntel,60,,,4,0,4,0,1,3,1,0,240,94,1,239,,,,,,,,,,,,,,,,,,
,,1,2,,,,,,,1,4,4,stim/44.jpeg,HouseObjects,1,stim/objects/HouseObjects/thermometer.png,0.5,3,-0.2,-0.15,left,49,2021-01-12_01h04.51.774,premup-three_ses-01_part-01_label-phase1,3.2.4,MacIntel,60,left,1.018999815,4,0,4,0,1,3,1,0,240,43,1,239,,,,,,,,,,,,,,,,,,
,,1,3,,,,,,,1,3,3,stim/33.jpeg,Instruments,2,stim/objects/Instruments/speaker.png,0.5,2,0.2,0.15,right,49,2021-01-12_01h04.51.774,premup-three_ses-01_part-01_label-phase1,3.2.4,MacIntel,60,right,0.924999714,4,0,4,0,1,3,1,0,240,30,1,239,,,,,,,,,,,,,,,,,,
,,0,4,,,,,,,2,6,3,stim/63.jpeg,HouseObjects,1,stim/objects/HouseObjects/saw2.png,0.7,2,0.2,0.15,left,49,2021-01-12_01h04.51.774,premup-three_ses-01_part-01_label-phase1,3.2.4,MacIntel,60,right,1.121999979,4,0,4,0,1,3,1,0,240,130,1,239,,,,,,,,,,,,,,,,,,
,,1,5,,,,,,,3,2,3,stim/23.jpeg,HouseObjects,1,stim/objects/HouseObjects/vacuumcleaner2.png,0.9,4,0.2,-0.15,left,49,2021-01-12_01h04.51.774,premup-three_ses-01_part-01_label-phase1,3.2.4,MacIntel,60,left,0.73300004,4,0,4,0,1,3,1,0,240,226,1,239,,,,,,,,,,,,,,,,,,
,,1,6,,,,,,,2,6,3,stim/63.jpeg,HouseObjects,1,stim/objects/HouseObjects/saw2.png,0.7,4,0.2,-0.15,left,49,2021-01-12_01h04.51.774,premup-three_ses-01_part-01_label-phase1,3.2.4,MacIntel,60,left,1.105999947,4,0,4,0,1,3,1,0,240,134,1,239,,,,,,,,,,,,,,,,,,
,,0,7,,,,,,,2,6,3,stim/63.jpeg,Instruments,2,stim/objects/Instruments/speaker2.png,0.3,4,0.2,-0.15,right,49,2021-01-12_01h04.51.774,premup-three_ses-01_part-01_label-phase1,3.2.4,MacIntel,60,left,1.01699996,4,0,4,0,1,3,1,0,240,154,1,239,,,,,,,,,,,,,,,,,,
,,1,8,,,,,,,2,6,2,stim/62.jpeg,HouseObjects,1,stim/objects/HouseObjects/safetypin2.png,0.7,4,0.2,-0.15,left,49,2021-01-12_01h04.51.774,premup-three_ses-01_part-01_label-phase1,3.2.4,MacIntel,60,left,0.917999983,4,0,4,0,1,3,1,0,240,125,1,239,,,,,,,,,,,,,,,,,,
,,0,9,,,,,,,1,4,4,stim/44.jpeg,Instruments,2,stim/objects/Instruments/trumpet.png,0.5,1,-0.2,0.15,right,49,2021-01-12_01h04.51.774,premup-three_ses-01_part-01_label-phase1,3.2.4,MacIntel,60,left,0.833999872,4,0,4,0,1,3,1,0,240,63,1,239,,,,,,,,,,,,,,,,,,
,,0,10,,,,,,,2,6,4,stim/64.jpeg,Instruments,2,stim/objects/Instruments/tambourine2.png,0.3,3,-0.2,-0.15,right,49,2021-01-12_01h04.51.774,premup-three_ses-01_part-01_label-phase1,3.2.4,MacIntel,60,left,0.920999765,4,0,4,0,1,3,1,0,240,151,1,239,,,,,,,,,,,,,,,,,,
,,1,11,,,,,,,3,2,2,stim/22.jpeg,HouseObjects,1,stim/objects/HouseObjects/towel2.png,0.9,4,0.2,-0.15,left,49,2021-01-12_01h04.51.774,premup-three_ses-01_part-01_label-phase1,3.2.4,MacIntel,60,left,1.279999971,4,0,4,0,1,3,1,0,240,221,1,239,,,,,,,,,,,,,,,,,,
,,1,12,,,,,,,1,3,4,stim/34.jpeg,Instruments,2,stim/objects/Instruments/tambourine.png,0.5,1,-0.2,0.15,right,49,2021-01-12_01h04.51.774,premup-three_ses-01_part-01_label-phase1,3.2.4,MacIntel,60,right,1.193999767,4,0,4,0,1,3,1,0,240,23,1,239,,,,,,,,,,,,,,,,,,
,,0,13,,,,,,,1,3,4,stim/34.jpeg,HouseObjects,1,stim/objects/HouseObjects/scale.png,0.5,2,0.2,0.15,left,49,2021-01-12_01h04.51.774,premup-three_ses-01_part-01_label-phase1,3.2.4,MacIntel,60,right,0.739999771,4,0,4,0,1,3,1,0,240,7,1,239,,,,,,,,,,,,,,,,,,
,,0,14,,,,,,,1,4,4,stim/44.jpeg,HouseObjects,1,stim/objects/HouseObjects/thermometer.png,0.5,1,-0.2,0.15,left,49,2021-01-12_01h04.51.774,premup-three_ses-01_part-01_label-phase1,3.2.4,MacIntel,60,right,1.28399992,4,0,4,0,1,3,1,0,240,51,1,239,,,,,,,,,,,,,,,,,,
,,1,15,,,,,,,2,5,3,stim/53.jpeg,Instruments,2,stim/objects/Instruments/vuvuzela.png,0.7,4,0.2,-0.15,right,49,2021-01-12_01h04.51.774,premup-three_ses-01_part-01_label-phase1,3.2.4,MacIntel,60,right,1.468999863,4,0,4,0,1,3,1,0,240,106,1,239,,,,,,,,,,,,,,,,,,
,,0,16,,,,,,,3,1,2,stim/12.jpeg,HouseObjects,1,stim/objects/HouseObjects/spraybottle2.png,0.1,3,-0.2,-0.15,left,49,2021-01-12_01h04.51.774,premup-three_ses-01_part-01_label-phase1,3.2.4,MacIntel,60,right,1.016000032,4,0,4,0,1,3,1,0,240,161,1,239,,,,,,,,,,,,,,,,,,
,,1,17,,,,,,,1,3,2,stim/32.jpeg,Instruments,2,stim/objects/Instruments/saxophone.png,0.5,1,-0.2,0.15,right,49,2021-01-12_01h04.51.774,premup-three_ses-01_part-01_label-phase1,3.2.4,MacIntel,60,right,1.284999847,4,0,4,0,1,3,1,0,240,33,1,239,,,,,,,,,,,,,,,,,,
,,1,18,,,,,,,3,2,1,stim/21.jpeg,HouseObjects,1,stim/objects/HouseObjects/thread2.png,0.9,4,0.2,-0.15,left,49,2021-01-12_01h04.51.774,premup-three_ses-01_part-01_label-phase1,3.2.4,MacIntel,60,left,1.644999743,4,0,4,0,1,3,1,0,240,220,1,239,,,,,,,,,,,,,,,,,,
,,1,19,,,,,,,2,6,3,stim/63.jpeg,HouseObjects,1,stim/objects/HouseObjects/saw2.png,0.7,3,-0.2,-0.15,left,49,2021-01-12_01h04.51.774,premup-three_ses-01_part-01_label-phase1,3.2.4,MacIntel,60,left,1.103999853,4,0,4,0,1,3,1,0,240,138,1,239,,,,,,,,,,,,,,,,,,
,,1,20,,,,,,,1,4,2,stim/42.jpeg,Instruments,2,stim/objects/Instruments/triangle.png,0.5,1,-0.2,0.15,right,49,2021-01-12_01h04.51.774,premup-three_ses-01_part-01_label-phase1,3.2.4,MacIntel,60,right,1.284999847,4,0,4,0,1,3,1,0,240,65,1,239,,,,,,,,,,,,,,,,,,
,,1,21,,,,,,,3,2,3,stim/23.jpeg,HouseObjects,1,stim/objects/HouseObjects/vacuumcleaner2.png,0.9,2,0.2,0.15,left,49,2021-01-12_01h04.51.774,premup-three_ses-01_part-01_label-phase1,3.2.4,MacIntel,60,left,0.832999945,4,0,4,0,1,3,1,0,240,230,1,239,,,,,,,,,,,,,,,,,,
,,1,22,,,,,,,1,3,3,stim/33.jpeg,Instruments,2,stim/objects/Instruments/speaker.png,0.5,1,-0.2,0.15,right,49,2021-01-12_01h04.51.774,premup-three_ses-01_part-01_label-phase1,3.2.4,MacIntel,60,right,0.917999983,4,0,4,0,1,3,1,0,240,26,1,239,,,,,,,,,,,,,,,,,,
,,1,23,,,,,,,2,5,2,stim/52.jpeg,Instruments,2,stim/objects/Instruments/violin.png,0.7,3,-0.2,-0.15,right,49,2021-01-12_01h04.51.774,premup-three_ses-01_part-01_label-phase1,3.2.4,MacIntel,60,right,1.462999821,4,0,4,0,1,3,1,0,240,97,1,239,,,,,,,,,,,,,,,,,,
,,0,24,,,,,,,3,1,4,stim/14.jpeg,HouseObjects,1,stim/objects/HouseObjects/thermometer2.png,0.1,3,-0.2,-0.15,left,49,2021-01-12_01h04.51.774,premup-three_ses-01_part-01_label-phase1,3.2.4,MacIntel,60,right,1.651000023,4,0,4,0,1,3,1,0,240,163,1,239,,,,,,,,,,,,,,,,,,
,,0,25,,,,,,,2,5,2,stim/52.jpeg,HouseObjects,1,stim/objects/HouseObjects/towel.png,0.3,2,0.2,0.15,left,49,2021-01-12_01h04.51.774,premup-three_ses-01_part-01_label-phase1,3.2.4,MacIntel,60,right,0.914999723,4,0,4,0,1,3,1,0,240,89,1,239,,,,,,,,,,,,,,,,,,
,,1,26,,,,,,,3,1,4,stim/14.jpeg,Instruments,2,stim/objects/Instruments/trumpet2.png,0.9,3,-0.2,-0.15,right,49,2021-01-12_01h04.51.774,premup-three_ses-01_part-01_label-phase1,3.2.4,MacIntel,60,right,0.921999931,4,0,4,0,1,3,1,0,240,183,1,239,,,,,,,,,,,,,,,,,,
,,1,27,,,,,,,3,2,2,stim/22.jpeg,HouseObjects,1,stim/objects/HouseObjects/towel2.png,0.9,2,0.2,0.15,left,49,2021-01-12_01h04.51.774,premup-three_ses-01_part-01_label-phase1,3.2.4,MacIntel,60,left,0.739999771,4,0,4,0,1,3,1,0,240,217,1,239,,,,,,,,,,,,,,,,,,
,,1,28,,,,,,,1,4,1,stim/41.jpeg,HouseObjects,1,stim/objects/HouseObjects/sponge.png,0.5,4,0.2,-0.15,left,49,2021-01-12_01h04.51.774,premup-three_ses-01_part-01_label-phase1,3.2.4,MacIntel,60,left,1.464999914,4,0,4,0,1,3,1,0,240,44,1,239,,,,,,,,,,,,,,,,,,
,,1,29,,,,,,,1,3,3,stim/33.jpeg,Instruments,2,stim/objects/Instruments/speaker.png,0.5,3,-0.2,-0.15,right,49,2021-01-12_01h04.51.774,premup-three_ses-01_part-01_label-phase1,3.2.4,MacIntel,60,right,1.552999973,4,0,4,0,1,3,1,0,240,34,1,239,,,,,,,,,,,,,,,,,,
,,0,30,,,,,,,3,1,4,stim/14.jpeg,Instruments,2,stim/objects/Instruments/trumpet2.png,0.9,1,-0.2,0.15,right,49,2021-01-12_01h04.51.774,premup-three_ses-01_part-01_label-phase1,3.2.4,MacIntel,60,,,4,0,4,0,1,3,1,0,240,179,1,239,,,,,,,,,,,,,,,,,,
,,1,31,,,,,,,2,6,2,stim/62.jpeg,HouseObjects,1,stim/objects/HouseObjects/safetypin2.png,0.7,2,0.2,0.15,left,49,2021-01-12_01h04.51.774,premup-three_ses-01_part-01_label-phase1,3.2.4,MacIntel,60,left,0.82400012,4,0,4,0,1,3,1,0,240,137,1,239,,,,,,,,,,,,,,,,,,
,,1,32,,,,,,,3,2,4,stim/24.jpeg,HouseObjects,1,stim/objects/HouseObjects/wateringcan2.png,0.9,2,0.2,0.15,left,49,2021-01-12_01h04.51.774,premup-three_ses-01_part-01_label-phase1,3.2.4,MacIntel,60,left,0.829999924,4,0,4,0,1,3,1,0,240,215,1,239,,,,,,,,,,,,,,,,,,
,,0,33,,,,,,,2,5,4,stim/54.jpeg,HouseObjects,1,stim/objects/HouseObjects/wateringcan.png,0.3,2,0.2,0.15,left,49,2021-01-12_01h04.51.774,premup-three_ses-01_part-01_label-phase1,3.2.4,MacIntel,60,right,1.470999956,4,0,4,0,1,3,1,0,240,91,1,239,,,,,,,,,,,,,,,,,,
,,0,34,,,,,,,3,1,2,stim/12.jpeg,Instruments,2,stim/objects/Instruments/triangle2.png,0.9,3,-0.2,-0.15,right,49,2021-01-12_01h04.51.774,premup-three_ses-01_part-01_label-phase1,3.2.4,MacIntel,60,left,1.19299984,4,0,4,0,1,3,1,0,240,181,1,239,,,,,,,,,,,,,,,,,,
,,1,35,,,,,,,2,5,3,stim/53.jpeg,Instruments,2,stim/objects/Instruments/vuvuzela.png,0.7,2,0.2,0.15,right,49,2021-01-12_01h04.51.774,premup-three_ses-01_part-01_label-phase1,3.2.4,MacIntel,60,right,1.289999962,4,0,4,0,1,3,1,0,240,114,1,239,,,,,,,,,,,,,,,,,,
,,1,36,,,,,,,3,2,4,stim/24.jpeg,HouseObjects,1,stim/objects/HouseObjects/wateringcan2.png,0.9,4,0.2,-0.15,left,49,2021-01-12_01h04.51.774,premup-three_ses-01_part-01_label-phase1,3.2.4,MacIntel,60,left,1.652999878,4,0,4,0,1,3,1,0,240,203,1,239,,,,,,,,,,,,,,,,,,
,,0,37,,,,,,,2,5,3,stim/53.jpeg,Instruments,2,stim/objects/Instruments/vuvuzela.png,0.7,1,-0.2,0.15,right,49,2021-01-12_01h04.51.774,premup-three_ses-01_part-01_label-phase1,3.2.4,MacIntel,60,left,1.197000027,4,0,4,0,1,3,1,0,240,98,1,239,,,,,,,,,,,,,,,,,,
,,0,38,,,,,,,3,1,2,stim/12.jpeg,Instruments,2,stim/objects/Instruments/triangle2.png,0.9,1,-0.2,0.15,right,49,2021-01-12_01h04.51.774,premup-three_ses-01_part-01_label-phase1,3.2.4,MacIntel,60,left,1.020999908,4,0,4,0,1,3,1,0,240,193,1,239,,,,,,,,,,,,,,,,,,
,,1,39,,,,,,,2,6,1,stim/61.jpeg,HouseObjects,1,stim/objects/HouseObjects/rug2.png,0.7,2,0.2,0.15,left,49,2021-01-12_01h04.51.774,premup-three_ses-01_part-01_label-phase1,3.2.4,MacIntel,60,left,0.827000141,4,0,4,0,1,3,1,0,240,132,1,239,,,,,,,,,,,,,,,,,,
,,0,40,,,,,,,1,4,2,stim/42.jpeg,HouseObjects,1,stim/objects/HouseObjects/spraybottle.png,0.5,4,0.2,-0.15,left,49,2021-01-12_01h04.51.774,premup-three_ses-01_part-01_label-phase1,3.2.4,MacIntel,60,right,1.330999851,4,0,4,0,1,3,1,0,240,49,1,239,,,,,,,,,,,,,,,,,,
,,1,41,,,,,,,3,2,3,stim/23.jpeg,HouseObjects,1,stim/objects/HouseObjects/vacuumcleaner2.png,0.9,1,-0.2,0.15,left,49,2021-01-12_01h04.51.774,premup-three_ses-01_part-01_label-phase1,3.2.4,MacIntel,60,left,0.742999792,4,0,4,0,1,3,1,0,240,218,1,239,,,,,,,,,,,,,,,,,,
,,0,42,,,,,,,2,6,2,stim/62.jpeg,Instruments,2,stim/objects/Instruments/saxophone2.png,0.3,3,-0.2,-0.15,right,49,2021-01-12_01h04.51.774,premup-three_ses-01_part-01_label-phase1,3.2.4,MacIntel,60,left,1.017999887,4,0,4,0,1,3,1,0,240,157,1,239,,,,,,,,,,,,,,,,,,
,,1,43,,,,,,,2,5,4,stim/54.jpeg,Instruments,2,stim/objects/Instruments/xylophone.png,0.7,2,0.2,0.15,right,49,2021-01-12_01h04.51.774,premup-three_ses-01_part-01_label-phase1,3.2.4,MacIntel,60,right,1.008000135,4,0,4,0,1,3,1,0,240,99,1,239,,,,,,,,,,,,,,,,,,
,,1,44,,,,,,,3,1,2,stim/12.jpeg,Instruments,2,stim/objects/Instruments/triangle2.png,0.9,2,0.2,0.15,right,49,2021-01-12_01h04.51.774,premup-three_ses-01_part-01_label-phase1,3.2.4,MacIntel,60,right,0.929999828,4,0,4,0,1,3,1,0,240,165,1,239,,,,,,,,,,,,,,,,,,
,,1,45,,,,,,,2,6,3,stim/63.jpeg,HouseObjects,1,stim/objects/HouseObjects/saw2.png,0.7,4,0.2,-0.15,left,49,2021-01-12_01h04.51.774,premup-three_ses-01_part-01_label-phase1,3.2.4,MacIntel,60,left,1.023999929,4,0,4,0,1,3,1,0,240,126,1,239,,,,,,,,,,,,,,,,,,
,,0,46,,,,,,,3,2,3,stim/23.jpeg,Instruments,2,stim/objects/Instruments/vuvuzela2.png,0.1,2,0.2,0.15,right,49,2021-01-12_01h04.51.774,premup-three_ses-01_part-01_label-phase1,3.2.4,MacIntel,60,left,0.740999937,4,0,4,0,1,3,1,0,240,238,1,239,,,,,,,,,,,,,,,,,,
,,0,47,,,,,,,2,6,1,stim/61.jpeg,Instruments,2,stim/objects/Instruments/record_player2.png,0.3,1,-0.2,0.15,right,49,2021-01-12_01h04.51.774,premup-three_ses-01_part-01_label-phase1,3.2.4,MacIntel,60,left,1.927000046,4,0,4,0,1,3,1,0,240,152,1,239,,,,,,,,,,,,,,,,,,
,,1,48,,,,,,,3,2,3,stim/23.jpeg,HouseObjects,1,stim/objects/HouseObjects/vacuumcleaner2.png,0.9,3,-0.2,-0.15,left,49,2021-01-12_01h04.51.774,premup-three_ses-01_part-01_label-phase1,3.2.4,MacIntel,60,left,0.743000031,4,0,4,0,1,3,1,0,240,234,1,239,,,,,,,,,,,,,,,,,,
,,1,49,,,,,,,2,6,4,stim/64.jpeg,HouseObjects,1,stim/objects/HouseObjects/scale2.png,0.7,4,0.2,-0.15,left,49,2021-01-12_01h04.51.774,premup-three_ses-01_part-01_label-phase1,3.2.4,MacIntel,60,left,1.288999796,4,0,4,0,1,3,1,0,240,135,1,239,,,,,,,,,,,,,,,,,,
,,1,50,,,,,,,1,4,2,stim/42.jpeg,HouseObjects,1,stim/objects/HouseObjects/spraybottle.png,0.5,4,0.2,-0.15,left,49,2021-01-12_01h04.51.774,premup-three_ses-01_part-01_label-phase1,3.2.4,MacIntel,60,left,1.371999979,4,0,4,0,1,3,1,0,240,53,1,239,,,,,,,,,,,,,,,,,,
,,1,51,,,,,,,1,4,1,stim/41.jpeg,HouseObjects,1,stim/objects/HouseObjects/sponge.png,0.5,3,-0.2,-0.15,left,49,2021-01-12_01h04.51.774,premup-three_ses-01_part-01_label-phase1,3.2.4,MacIntel,60,left,1.288999796,4,0,4,0,1,3,1,0,240,40,1,239,,,,,,,,,,,,,,,,,,
,,0,52,,,,,,,1,3,4,stim/34.jpeg,HouseObjects,1,stim/objects/HouseObjects/scale.png,0.5,3,-0.2,-0.15,left,49,2021-01-12_01h04.51.774,premup-three_ses-01_part-01_label-phase1,3.2.4,MacIntel,60,right,1.372999907,4,0,4,0,1,3,1,0,240,11,1,239,,,,,,,,,,,,,,,,,,
,,1,53,,,,,,,3,2,2,stim/22.jpeg,HouseObjects,1,stim/objects/HouseObjects/towel2.png,0.9,1,-0.2,0.15,left,49,2021-01-12_01h04.51.774,premup-three_ses-01_part-01_label-phase1,3.2.4,MacIntel,60,left,1.109999895,4,0,4,0,1,3,1,0,240,225,1,239,,,,,,,,,,,,,,,,,,
,,1,54,,,,,,,1,4,4,stim/44.jpeg,HouseObjects,1,stim/objects/HouseObjects/thermometer.png,0.5,3,-0.2,-0.15,left,49,2021-01-12_01h04.51.774,premup-three_ses-01_part-01_label-phase1,3.2.4,MacIntel,60,left,1.372999907,4,0,4,0,1,3,1,0,240,47,1,239,,,,,,,,,,,,,,,,,,
,,0,55,,,,,,,3,1,1,stim/11.jpeg,HouseObjects,1,stim/objects/HouseObjects/sponge2.png,0.1,2,0.2,0.15,left,49,2021-01-12_01h04.51.774,premup-three_ses-01_part-01_label-phase1,3.2.4,MacIntel,60,right,1.01699996,4,0,4,0,1,3,1,0,240,160,1,239,,,,,,,,,,,,,,,,,,
,,0,56,,,,,,,3,1,1,stim/11.jpeg,Instruments,2,stim/objects/Instruments/timbal2.png,0.9,1,-0.2,0.15,right,49,2021-01-12_01h04.51.774,premup-three_ses-01_part-01_label-phase1,3.2.4,MacIntel,60,left,1.016999722,4,0,4,0,1,3,1,0,240,180,1,239,,,,,,,,,,,,,,,,,,
,,0,57,,,,,,,3,2,1,stim/21.jpeg,Instruments,2,stim/objects/Instruments/tuba2.png,0.1,1,-0.2,0.15,right,49,2021-01-12_01h04.51.774,premup-three_ses-01_part-01_label-phase1,3.2.4,MacIntel,60,left,1.46999979,4,0,4,0,1,3,1,0,240,236,1,239,,,,,,,,,,,,,,,,,,
,,1,58,,,,,,,2,6,3,stim/63.jpeg,HouseObjects,1,stim/objects/HouseObjects/saw2.png,0.7,3,-0.2,-0.15,left,49,2021-01-12_01h04.51.774,premup-three_ses-01_part-01_label-phase1,3.2.4,MacIntel,60,left,1.201999903,4,0,4,0,1,3,1,0,240,142,1,239,,,,,,,,,,,,,,,,,,
,,0,59,,,,,,,1,3,2,stim/32.jpeg,HouseObjects,1,stim/objects/HouseObjects/safetypin.png,0.5,3,-0.2,-0.15,left,49,2021-01-12_01h04.51.774,premup-three_ses-01_part-01_label-phase1,3.2.4,MacIntel,60,right,1.281000137,4,0,4,0,1,3,1,0,240,5,1,239,,,,,,,,,,,,,,,,,,
,,1,60,,,,,,,3,2,2,stim/22.jpeg,HouseObjects,1,stim/objects/HouseObjects/towel2.png,0.9,3,-0.2,-0.15,left,49,2021-01-12_01h04.51.774,premup-three_ses-01_part-01_label-phase1,3.2.4,MacIntel,60,left,0.832000017,4,0,4,0,1,3,1,0,240,209,1,239,,,,,,,,,,,,,,,,,,
,,0,61,,,,,,,1,4,3,stim/43.jpeg,Instruments,2,stim/objects/Instruments/trombone.png,0.5,4,0.2,-0.15,right,49,2021-01-12_01h04.51.774,premup-three_ses-01_part-01_label-phase1,3.2.4,MacIntel,60,,,4,0,4,0,1,3,1,0,240,78,1,239,,,,,,,,,,,,,,,,,,
,,0,62,,,,,,,1,3,4,stim/34.jpeg,Instruments,2,stim/objects/Instruments/tambourine.png,0.5,1,-0.2,0.15,right,49,2021-01-12_01h04.51.774,premup-three_ses-01_part-01_label-phase1,3.2.4,MacIntel,60,left,0.919999838,4,0,4,0,1,3,1,0,240,31,1,239,,,,,,,,,,,,,,,,,,
,,1,63,,,,,,,3,1,3,stim/13.jpeg,Instruments,2,stim/objects/Instruments/trombone2.png,0.9,3,-0.2,-0.15,right,49,2021-01-12_01h04.51.774,premup-three_ses-01_part-01_label-phase1,3.2.4,MacIntel,60,right,1.197999954,4,0,4,0,1,3,1,0,240,190,1,239,,,,,,,,,,,,,,,,,,
,,1,64,,,,,,,2,5,2,stim/52.jpeg,Instruments,2,stim/objects/Instruments/violin.png,0.7,2,0.2,0.15,right,49,2021-01-12_01h04.51.774,premup-three_ses-01_part-01_label-phase1,3.2.4,MacIntel,60,right,0.829999924,4,0,4,0,1,3,1,0,240,117,1,239,,,,,,,,,,,,,,,,,,
,,1,65,,,,,,,1,3,3,stim/33.jpeg,Instruments,2,stim/objects/Instruments/speaker.png,0.5,1,-0.2,0.15,right,49,2021-01-12_01h04.51.774,premup-three_ses-01_part-01_label-phase1,3.2.4,MacIntel,60,right,0.835000038,4,0,4,0,1,3,1,0,240,38,1,239,,,,,,,,,,,,,,,,,,
,,0,66,,,,,,,2,5,3,stim/53.jpeg,HouseObjects,1,stim/objects/HouseObjects/vacuumcleaner.png,0.3,3,-0.2,-0.15,left,49,2021-01-12_01h04.51.774,premup-three_ses-01_part-01_label-phase1,3.2.4,MacIntel,60,right,0.924999952,4,0,4,0,1,3,1,0,240,90,1,239,,,,,,,,,,,,,,,,,,
,,1,67,,,,,,,3,2,4,stim/24.jpeg,HouseObjects,1,stim/objects/HouseObjects/wateringcan2.png,0.9,3,-0.2,-0.15,left,49,2021-01-12_01h04.51.774,premup-three_ses-01_part-01_label-phase1,3.2.4,MacIntel,60,left,0.830999851,4,0,4,0,1,3,1,0,240,211,1,239,,,,,,,,,,,,,,,,,,
,,0,68,,,,,,,1,4,1,stim/41.jpeg,Instruments,2,stim/objects/Instruments/timbal.png,0.5,2,0.2,0.15,right,49,2021-01-12_01h04.51.774,premup-three_ses-01_part-01_label-phase1,3.2.4,MacIntel,60,left,0.835999727,4,0,4,0,1,3,1,0,240,68,1,239,,,,,,,,,,,,,,,,,,
,,1,69,,,,,,,3,1,2,stim/12.jpeg,Instruments,2,stim/objects/Instruments/triangle2.png,0.9,4,0.2,-0.15,right,49,2021-01-12_01h04.51.774,premup-three_ses-01_part-01_label-phase1,3.2.4,MacIntel,60,right,1.020999908,4,0,4,0,1,3,1,0,240,185,1,239,,,,,,,,,,,,,,,,,,
,,1,70,,,,,,,1,4,2,stim/42.jpeg,Instruments,2,stim/objects/Instruments/triangle.png,0.5,1,-0.2,0.15,right,49,2021-01-12_01h04.51.774,premup-three_ses-01_part-01_label-phase1,3.2.4,MacIntel,60,right,1.016000032,4,0,4,0,1,3,1,0,240,61,1,239,,,,,,,,,,,,,,,,,,
,,0,71,,,,,,,1,4,4,stim/44.jpeg,Instruments,2,stim/objects/Instruments/trumpet.png,0.5,4,0.2,-0.15,right,49,2021-01-12_01h04.51.774,premup-three_ses-01_part-01_label-phase1,3.2.4,MacIntel,60,left,0.91899991,4,0,4,0,1,3,1,0,240,79,1,239,,,,,,,,,,,,,,,,,,
,,1,72,,,,,,,2,5,1,stim/51.jpeg,Instruments,2,stim/objects/Instruments/tuba.png,0.7,3,-0.2,-0.15,right,49,2021-01-12_01h04.51.774,premup-three_ses-01_part-01_label-phase1,3.2.4,MacIntel,60,right,0.832000017,4,0,4,0,1,3,1,0,240,108,1,239,,,,,,,,,,,,,,,,,,
,,0,73,,,,,,,2,6,1,stim/61.jpeg,HouseObjects,1,stim/objects/HouseObjects/rug2.png,0.7,1,-0.2,0.15,left,49,2021-01-12_01h04.51.774,premup-three_ses-01_part-01_label-phase1,3.2.4,MacIntel,60,right,1.103999853,4,0,4,0,1,3,1,0,240,124,1,239,,,,,,,,,,,,,,,,,,
,,1,74,,,,,,,3,2,3,stim/23.jpeg,HouseObjects,1,stim/objects/HouseObjects/vacuumcleaner2.png,0.9,3,-0.2,-0.15,left,49,2021-01-12_01h04.51.774,premup-three_ses-01_part-01_label-phase1,3.2.4,MacIntel,60,left,0.8349998,4,0,4,0,1,3,1,0,240,222,1,239,,,,,,,,,,,,,,,,,,
,,0,75,,,,,,,1,4,4,stim/44.jpeg,Instruments,2,stim/objects/Instruments/trumpet.png,0.5,2,0.2,0.15,right,49,2021-01-12_01h04.51.774,premup-three_ses-01_part-01_label-phase1,3.2.4,MacIntel,60,left,1.198999882,4,0,4,0,1,3,1,0,240,75,1,239,,,,,,,,,,,,,,,,,,
,,0,76,,,,,,,1,3,1,stim/31.jpeg,HouseObjects,1,stim/objects/HouseObjects/rug.png,0.5,2,0.2,0.15,left,49,2021-01-12_01h04.51.774,premup-three_ses-01_part-01_label-phase1,3.2.4,MacIntel,60,right,1.016000032,4,0,4,0,1,3,1,0,240,8,1,239,,,,,,,,,,,,,,,,,,
,,1,77,,,,,,,2,6,1,stim/61.jpeg,HouseObjects,1,stim/objects/HouseObjects/rug2.png,0.7,3,-0.2,-0.15,left,49,2021-01-12_01h04.51.774,premup-three_ses-01_part-01_label-phase1,3.2.4,MacIntel,60,left,0.828999996,4,0,4,0,1,3,1,0,240,120,1,239,,,,,,,,,,,,,,,,,,
,,1,78,,,,,,,2,5,4,stim/54.jpeg,Instruments,2,stim/objects/Instruments/xylophone.png,0.7,3,-0.2,-0.15,right,49,2021-01-12_01h04.51.774,premup-three_ses-01_part-01_label-phase1,3.2.4,MacIntel,60,right,0.914000034,4,0,4,0,1,3,1,0,240,103,1,239,,,,,,,,,,,,,,,,,,
,,0,79,,,,,,,2,6,4,stim/64.jpeg,HouseObjects,1,stim/objects/HouseObjects/scale2.png,0.7,4,0.2,-0.15,left,49,2021-01-12_01h04.51.774,premup-three_ses-01_part-01_label-phase1,3.2.4,MacIntel,60,right,0.916000128,4,0,4,0,1,3,1,0,240,143,1,239,,,,,,,,,,,,,,,,,,
,,1,80,,,,,,,2,5,3,stim/53.jpeg,Instruments,2,stim/objects/Instruments/vuvuzela.png,0.7,1,-0.2,0.15,right,49,2021-01-12_01h04.51.774,premup-three_ses-01_part-01_label-phase1,3.2.4,MacIntel,60,right,1.188999891,4,0,4,0,1,3,1,0,240,110,1,239,,,,,,,,,,,,,,,,,,
,,1,81,,,,,,,1,4,2,stim/42.jpeg,Instruments,2,stim/objects/Instruments/triangle.png,0.5,3,-0.2,-0.15,right,49,2021-01-12_01h04.51.774,premup-three_ses-01_part-01_label-phase1,3.2.4,MacIntel,60,right,1.009999752,4,0,4,0,1,3,1,0,240,77,1,239,,,,,,,,,,,,,,,,,,
,,1,82,,,,,,,2,6,2,stim/62.jpeg,HouseObjects,1,stim/objects/HouseObjects/safetypin2.png,0.7,1,-0.2,0.15,left,49,2021-01-12_01h04.51.774,premup-three_ses-01_part-01_label-phase1,3.2.4,MacIntel,60,left,0.924000025,4,0,4,0,1,3,1,0,240,145,1,239,,,,,,,,,,,,,,,,,,
,,0,83,,,,,,,2,6,3,stim/63.jpeg,Instruments,2,stim/objects/Instruments/speaker2.png,0.3,3,-0.2,-0.15,right,49,2021-01-12_01h04.51.774,premup-three_ses-01_part-01_label-phase1,3.2.4,MacIntel,60,left,0.731999874,4,0,4,0,1,3,1,0,240,158,1,239,,,,,,,,,,,,,,,,,,
,,0,84,,,,,,,2,5,4,stim/54.jpeg,Instruments,2,stim/objects/Instruments/xylophone.png,0.7,1,-0.2,0.15,right,49,2021-01-12_01h04.51.774,premup-three_ses-01_part-01_label-phase1,3.2.4,MacIntel,60,left,0.929999828,4,0,4,0,1,3,1,0,240,115,1,239,,,,,,,,,,,,,,,,,,
,,1,85,,,,,,,3,2,4,stim/24.jpeg,HouseObjects,1,stim/objects/HouseObjects/wateringcan2.png,0.9,1,-0.2,0.15,left,49,2021-01-12_01h04.51.774,premup-three_ses-01_part-01_label-phase1,3.2.4,MacIntel,60,left,0.739000082,4,0,4,0,1,3,1,0,240,207,1,239,,,,,,,,,,,,,,,,,,
,,1,86,,,,,,,2,5,1,stim/51.jpeg,Instruments,2,stim/objects/Instruments/tuba.png,0.7,2,0.2,0.15,right,49,2021-01-12_01h04.51.774,premup-three_ses-01_part-01_label-phase1,3.2.4,MacIntel,60,right,0.924999952,4,0,4,0,1,3,1,0,240,104,1,239,,,,,,,,,,,,,,,,,,
,,1,87,,,,,,,3,1,1,stim/11.jpeg,Instruments,2,stim/objects/Instruments/timbal2.png,0.9,1,-0.2,0.15,right,49,2021-01-12_01h04.51.774,premup-three_ses-01_part-01_label-phase1,3.2.4,MacIntel,60,right,1.19299984,4,0,4,0,1,3,1,0,240,176,1,239,,,,,,,,,,,,,,,,,,
,,1,88,,,,,,,2,6,4,stim/64.jpeg,HouseObjects,1,stim/objects/HouseObjects/scale2.png,0.7,3,-0.2,-0.15,left,49,2021-01-12_01h04.51.774,premup-three_ses-01_part-01_label-phase1,3.2.4,MacIntel,60,left,1.279999971,4,0,4,0,1,3,1,0,240,127,1,239,,,,,,,,,,,,,,,,,,
,,1,89,,,,,,,1,4,3,stim/43.jpeg,HouseObjects,1,stim/objects/HouseObjects/teapot.png,0.5,2,0.2,0.15,left,49,2021-01-12_01h04.51.774,premup-three_ses-01_part-01_label-phase1,3.2.4,MacIntel,60,left,1.562000036,4,0,4,0,1,3,1,0,240,46,1,239,,,,,,,,,,,,,,,,,,
,,0,90,,,,,,,2,6,4,stim/64.jpeg,HouseObjects,1,stim/objects/HouseObjects/scale2.png,0.7,2,0.2,0.15,left,49,2021-01-12_01h04.51.774,premup-three_ses-01_part-01_label-phase1,3.2.4,MacIntel,60,right,1.096999884,4,0,4,0,1,3,1,0,240,147,1,239,,,,,,,,,,,,,,,,,,
,,1,91,,,,,,,3,1,1,stim/11.jpeg,Instruments,2,stim/objects/Instruments/timbal2.png,0.9,2,0.2,0.15,right,49,2021-01-12_01h04.51.774,premup-three_ses-01_part-01_label-phase1,3.2.4,MacIntel,60,right,0.924999952,4,0,4,0,1,3,1,0,240,196,1,239,,,,,,,,,,,,,,,,,,
,,1,92,,,,,,,3,2,4,stim/24.jpeg,HouseObjects,1,stim/objects/HouseObjects/wateringcan2.png,0.9,2,0.2,0.15,left,49,2021-01-12_01h04.51.774,premup-three_ses-01_part-01_label-phase1,3.2.4,MacIntel,60,left,0.939999819,4,0,4,0,1,3,1,0,240,219,1,239,,,,,,,,,,,,,,,,,,
,,1,93,,,,,,,2,5,4,stim/54.jpeg,Instruments,2,stim/objects/Instruments/xylophone.png,0.7,1,-0.2,0.15,right,49,2021-01-12_01h04.51.774,premup-three_ses-01_part-01_label-phase1,3.2.4,MacIntel,60,right,0.924999952,4,0,4,0,1,3,1,0,240,95,1,239,,,,,,,,,,,,,,,,,,
,,1,94,,,,,,,2,5,1,stim/51.jpeg,Instruments,2,stim/objects/Instruments/tuba.png,0.7,2,0.2,0.15,right,49,2021-01-12_01h04.51.774,premup-three_ses-01_part-01_label-phase1,3.2.4,MacIntel,60,right,0.917000055,4,0,4,0,1,3,1,0,240,112,1,239,,,,,,,,,,,,,,,,,,
,,1,95,,,,,,,1,3,2,stim/32.jpeg,Instruments,2,stim/objects/Instruments/saxophone.png,0.5,4,0.2,-0.15,right,49,2021-01-12_01h04.51.774,premup-three_ses-01_part-01_label-phase1,3.2.4,MacIntel,60,right,1.003999949,4,0,4,0,1,3,1,0,240,29,1,239,,,,,,,,,,,,,,,,,,
,,1,96,,,,,,,3,1,3,stim/13.jpeg,Instruments,2,stim/objects/Instruments/trombone2.png,0.9,2,0.2,0.15,right,49,2021-01-12_01h04.51.774,premup-three_ses-01_part-01_label-phase1,3.2.4,MacIntel,60,right,1.010999918,4,0,4,0,1,3,1,0,240,170,1,239,,,,,,,,,,,,,,,,,,
,,0,97,,,,,,,1,3,3,stim/33.jpeg,HouseObjects,1,stim/objects/HouseObjects/saw.png,0.5,3,-0.2,-0.15,left,49,2021-01-12_01h04.51.774,premup-three_ses-01_part-01_label-phase1,3.2.4,MacIntel,60,right,0.734999895,4,0,4,0,1,3,1,0,240,18,1,239,,,,,,,,,,,,,,,,,,
,,1,98,,,,,,,3,2,1,stim/21.jpeg,HouseObjects,1,stim/objects/HouseObjects/thread2.png,0.9,4,0.2,-0.15,left,49,2021-01-12_01h04.51.774,premup-three_ses-01_part-01_label-phase1,3.2.4,MacIntel,60,left,0.924999952,4,0,4,0,1,3,1,0,240,224,1,239,,,,,,,,,,,,,,,,,,
,,0,99,,,,,,,2,5,2,stim/52.jpeg,Instruments,2,stim/objects/Instruments/violin.png,0.7,4,0.2,-0.15,right,49,2021-01-12_01h04.51.774,premup-three_ses-01_part-01_label-phase1,3.2.4,MacIntel,60,left,1.285000086,4,0,4,0,1,3,1,0,240,101,1,239,,,,,,,,,,,,,,,,,,
,,1,100,,,,,,,2,6,2,stim/62.jpeg,HouseObjects,1,stim/objects/HouseObjects/safetypin2.png,0.7,3,-0.2,-0.15,left,49,2021-01-12_01h04.51.774,premup-three_ses-01_part-01_label-phase1,3.2.4,MacIntel,60,left,0.834000111,4,0,4,0,1,3,1,0,240,121,1,239,,,,,,,,,,,,,,,,,,
,,0,101,,,,,,,2,6,2,stim/62.jpeg,Instruments,2,stim/objects/Instruments/saxophone2.png,0.3,4,0.2,-0.15,right,49,2021-01-12_01h04.51.774,premup-three_ses-01_part-01_label-phase1,3.2.4,MacIntel,60,left,0.638999939,4,0,4,0,1,3,1,0,240,153,1,239,,,,,,,,,,,,,,,,,,
,,1,102,,,,,,,3,2,1,stim/21.jpeg,HouseObjects,1,stim/objects/HouseObjects/thread2.png,0.9,4,0.2,-0.15,left,49,2021-01-12_01h04.51.774,premup-three_ses-01_part-01_label-phase1,3.2.4,MacIntel,60,left,0.730000019,4,0,4,0,1,3,1,0,240,204,1,239,,,,,,,,,,,,,,,,,,
,,1,103,,,,,,,2,6,1,stim/61.jpeg,HouseObjects,1,stim/objects/HouseObjects/rug2.png,0.7,3,-0.2,-0.15,left,49,2021-01-12_01h04.51.774,premup-three_ses-01_part-01_label-phase1,3.2.4,MacIntel,60,left,1.105999947,4,0,4,0,1,3,1,0,240,144,1,239,,,,,,,,,,,,,,,,,,
,,0,104,,,,,,,1,3,3,stim/33.jpeg,HouseObjects,1,stim/objects/HouseObjects/saw.png,0.5,1,-0.2,0.15,left,49,2021-01-12_01h04.51.774,premup-three_ses-01_part-01_label-phase1,3.2.4,MacIntel,60,right,0.830999851,4,0,4,0,1,3,1,0,240,10,1,239,,,,,,,,,,,,,,,,,,
,,0,105,,,,,,,3,1,1,stim/11.jpeg,Instruments,2,stim/objects/Instruments/timbal2.png,0.9,2,0.2,0.15,right,49,2021-01-12_01h04.51.774,premup-three_ses-01_part-01_label-phase1,3.2.4,MacIntel,60,left,1.106999874,4,0,4,0,1,3,1,0,240,168,1,239,,,,,,,,,,,,,,,,,,
,,1,106,,,,,,,3,2,2,stim/22.jpeg,HouseObjects,1,stim/objects/HouseObjects/towel2.png,0.9,3,-0.2,-0.15,left,49,2021-01-12_01h04.51.774,premup-three_ses-01_part-01_label-phase1,3.2.4,MacIntel,60,left,0.741999865,4,0,4,0,1,3,1,0,240,229,1,239,,,,,,,,,,,,,,,,,,
,,1,107,,,,,,,1,3,4,stim/34.jpeg,Instruments,2,stim/objects/Instruments/tambourine.png,0.5,2,0.2,0.15,right,49,2021-01-12_01h04.51.774,premup-three_ses-01_part-01_label-phase1,3.2.4,MacIntel,60,right,0.924999952,4,0,4,0,1,3,1,0,240,35,1,239,,,,,,,,,,,,,,,,,,
,,0,108,,,,,,,1,3,3,stim/33.jpeg,HouseObjects,1,stim/objects/HouseObjects/saw.png,0.5,2,0.2,0.15,left,49,2021-01-12_01h04.51.774,premup-three_ses-01_part-01_label-phase1,3.2.4,MacIntel,60,right,0.657999754,4,0,4,0,1,3,1,0,240,6,1,239,,,,,,,,,,,,,,,,,,
,,1,109,,,,,,,2,6,1,stim/61.jpeg,HouseObjects,1,stim/objects/HouseObjects/rug2.png,0.7,2,0.2,0.15,left,49,2021-01-12_01h04.51.774,premup-three_ses-01_part-01_label-phase1,3.2.4,MacIntel,60,left,1.005000114,4,0,4,0,1,3,1,0,240,136,1,239,,,,,,,,,,,,,,,,,,
,,1,110,,,,,,,1,4,1,stim/41.jpeg,HouseObjects,1,stim/objects/HouseObjects/sponge.png,0.5,2,0.2,0.15,left,49,2021-01-12_01h04.51.774,premup-three_ses-01_part-01_label-phase1,3.2.4,MacIntel,60,left,1.004999876,4,0,4,0,1,3,1,0,240,48,1,239,,,,,,,,,,,,,,,,,,
,,1,111,,,,,,,3,2,1,stim/21.jpeg,HouseObjects,1,stim/objects/HouseObjects/thread2.png,0.9,2,0.2,0.15,left,49,2021-01-12_01h04.51.774,premup-three_ses-01_part-01_label-phase1,3.2.4,MacIntel,60,left,0.746999979,4,0,4,0,1,3,1,0,240,208,1,239,,,,,,,,,,,,,,,,,,
,,1,112,,,,,,,1,3,1,stim/31.jpeg,HouseObjects,1,stim/objects/HouseObjects/rug.png,0.5,1,-0.2,0.15,left,49,2021-01-12_01h04.51.774,premup-three_ses-01_part-01_label-phase1,3.2.4,MacIntel,60,left,1.010999918,4,0,4,0,1,3,1,0,240,16,1,239,,,,,,,,,,,,,,,,,,
,,0,113,,,,,,,1,4,2,stim/42.jpeg,Instruments,2,stim/objects/Instruments/triangle.png,0.5,2,0.2,0.15,right,49,2021-01-12_01h04.51.774,premup-three_ses-01_part-01_label-phase1,3.2.4,MacIntel,60,left,1.01699996,4,0,4,0,1,3,1,0,240,73,1,239,,,,,,,,,,,,,,,,,,
,,1,114,,,,,,,1,3,2,stim/32.jpeg,Instruments,2,stim/objects/Instruments/saxophone.png,0.5,3,-0.2,-0.15,right,49,2021-01-12_01h04.51.774,premup-three_ses-01_part-01_label-phase1,3.2.4,MacIntel,60,right,0.823999882,4,0,4,0,1,3,1,0,240,25,1,239,,,,,,,,,,,,,,,,,,
,,0,115,,,,,,,1,3,2,stim/32.jpeg,HouseObjects,1,stim/objects/HouseObjects/safetypin.png,0.5,1,-0.2,0.15,left,49,2021-01-12_01h04.51.774,premup-three_ses-01_part-01_label-phase1,3.2.4,MacIntel,60,right,0.838000059,4,0,4,0,1,3,1,0,240,1,1,239,,,,,,,,,,,,,,,,,,
,,0,116,,,,,,,2,6,1,stim/61.jpeg,Instruments,2,stim/objects/Instruments/record_player2.png,0.3,3,-0.2,-0.15,right,49,2021-01-12_01h04.51.774,premup-three_ses-01_part-01_label-phase1,3.2.4,MacIntel,60,left,0.91899991,4,0,4,0,1,3,1,0,240,156,1,239,,,,,,,,,,,,,,,,,,
,,0,117,,,,,,,1,4,2,stim/42.jpeg,Instruments,2,stim/objects/Instruments/triangle.png,0.5,2,0.2,0.15,right,49,2021-01-12_01h04.51.774,premup-three_ses-01_part-01_label-phase1,3.2.4,MacIntel,60,left,1.194999933,4,0,4,0,1,3,1,0,240,69,1,239,,,,,,,,,,,,,,,,,,
,,1,118,,,,,,,2,5,2,stim/52.jpeg,Instruments,2,stim/objects/Instruments/violin.png,0.7,4,0.2,-0.15,right,49,2021-01-12_01h04.51.774,premup-three_ses-01_part-01_label-phase1,3.2.4,MacIntel,60,right,1.284999847,4,0,4,0,1,3,1,0,240,109,1,239,,,,,,,,,,,,,,,,,,
,,1,119,,,,,,,3,1,4,stim/14.jpeg,Instruments,2,stim/objects/Instruments/trumpet2.png,0.9,3,-0.2,-0.15,right,49,2021-01-12_01h04.51.774,premup-three_ses-01_part-01_label-phase1,3.2.4,MacIntel,60,right,1.921999931,4,0,4,0,1,3,1,0,240,191,1,239,,,,,,,,,,,,,,,,,,
,,0,120,,,,,,,2,5,1,stim/51.jpeg,HouseObjects,1,stim/objects/HouseObjects/thread.png,0.3,4,0.2,-0.15,left,49,2021-01-12_01h04.51.774,premup-three_ses-01_part-01_label-phase1,3.2.4,MacIntel,60,right,1.10800004,4,0,4,0,1,3,1,0,240,84,1,239,,,,,,,,,,,,,,,,,,
,,1,121,,,,,,,3,2,2,stim/22.jpeg,HouseObjects,1,stim/objects/HouseObjects/towel2.png,0.9,2,0.2,0.15,left,49,2021-01-12_01h04.51.774,premup-three_ses-01_part-01_label-phase1,3.2.4,MacIntel,60,left,1.833999872,4,0,4,0,1,3,1,0,240,233,1,239,,,,,,,,,,,,,,,,,,
,,0,122,,,,,,,3,2,4,stim/24.jpeg,Instruments,2,stim/objects/Instruments/xylophone2.png,0.1,3,-0.2,-0.15,right,49,2021-01-12_01h04.51.774,premup-three_ses-01_part-01_label-phase1,3.2.4,MacIntel,60,left,0.732999802,4,0,4,0,1,3,1,0,240,239,1,239,,,,,,,,,,,,,,,,,,
,,1,123,,,,,,,1,3,1,stim/31.jpeg,Instruments,2,stim/objects/Instruments/record_player.png,0.5,1,-0.2,0.15,right,49,2021-01-12_01h04.51.774,premup-three_ses-01_part-01_label-phase1,3.2.4,MacIntel,60,right,1.376999855,4,0,4,0,1,3,1,0,240,32,1,239,,,,,,,,,,,,,,,,,,
,,1,124,,,,,,,2,6,2,stim/62.jpeg,HouseObjects,1,stim/objects/HouseObjects/safetypin2.png,0.7,2,0.2,0.15,left,49,2021-01-12_01h04.51.774,premup-three_ses-01_part-01_label-phase1,3.2.4,MacIntel,60,left,1.727999926,4,0,4,0,1,3,1,0,240,129,1,239,,,,,,,,,,,,,,,,,,
,,0,125,,,,,,,1,3,1,stim/31.jpeg,HouseObjects,1,stim/objects/HouseObjects/rug.png,0.5,2,0.2,0.15,left,49,2021-01-12_01h04.51.774,premup-three_ses-01_part-01_label-phase1,3.2.4,MacIntel,60,right,1.392999887,4,0,4,0,1,3,1,0,240,12,1,239,,,,,,,,,,,,,,,,,,
,,0,126,,,,,,,3,1,1,stim/11.jpeg,Instruments,2,stim/objects/Instruments/timbal2.png,0.9,4,0.2,-0.15,right,49,2021-01-12_01h04.51.774,premup-three_ses-01_part-01_label-phase1,3.2.4,MacIntel,60,left,1.203999758,4,0,4,0,1,3,1,0,240,172,1,239,,,,,,,,,,,,,,,,,,
,,1,127,,,,,,,2,6,4,stim/64.jpeg,HouseObjects,1,stim/objects/HouseObjects/scale2.png,0.7,4,0.2,-0.15,left,49,2021-01-12_01h04.51.774,premup-three_ses-01_part-01_label-phase1,3.2.4,MacIntel,60,left,0.828999758,4,0,4,0,1,3,1,0,240,139,1,239,,,,,,,,,,,,,,,,,,
,,0,128,,,,,,,1,3,1,stim/31.jpeg,HouseObjects,1,stim/objects/HouseObjects/rug.png,0.5,3,-0.2,-0.15,left,49,2021-01-12_01h04.51.774,premup-three_ses-01_part-01_label-phase1,3.2.4,MacIntel,60,right,0.835000038,4,0,4,0,1,3,1,0,240,4,1,239,,,,,,,,,,,,,,,,,,
,,1,129,,,,,,,2,6,2,stim/62.jpeg,HouseObjects,1,stim/objects/HouseObjects/safetypin2.png,0.7,3,-0.2,-0.15,left,49,2021-01-12_01h04.51.774,premup-three_ses-01_part-01_label-phase1,3.2.4,MacIntel,60,left,1.483999729,4,0,4,0,1,3,1,0,240,133,1,239,,,,,,,,,,,,,,,,,,
