key_resp_pract.keys,key_resp_pract.rt,trial_acc,trial_index,practice_loop.thisRepN,practice_loop.thisTrialN,practice_loop.thisN,practice_loop.thisIndex,practice_loop.ran,practice_loop.order,scn_condition,scn_cat,scn_inst,scn_file,obj_cat,obj_cat_num,obj_file,trial_cond,quadrant,obj_x,obj_y,corr_ans,participant,date,expName,psychopyVersion,OS,frameRate,key_resp_trial.keys,key_resp_trial.rt,iterations.thisRepN,iterations.thisTrialN,iterations.thisN,iterations.thisIndex,iterations.ran,iterations.order,task_innerloop.thisRepN,task_innerloop.thisTrialN,task_innerloop.thisN,task_innerloop.thisIndex,task_innerloop.ran,task_innerloop.order,iteration_index,rating_acc,slider.response,slider.rt,slider_2.response,slider_2.rt,ratings.thisRepN,ratings.thisTrialN,ratings.thisN,ratings.thisIndex,ratings.ran,ratings.order,obj_cat_top,min_resp_top,max_resp_top,obj_cat_bottom,min_resp_bottom,max_resp_bottom
,,0,1,1,0,240,16,1,239,1,3,1,stim/31.jpeg,HouseObjects,1,stim/objects/HouseObjects/rug.png,0.5,1,-0.2,0.15,left,4,2020-11-27_17h04.38.041,premup-three_ses-01_part-01_label-phase1,3.2.4,Win32,60,,,,,,,,,,,,,,,,,,,,,,,,,,,,,,,,
left,1.138000011,0,2,1,0,240,75,1,239,1,4,4,stim/44.jpeg,Instruments,2,stim/objects/Instruments/trumpet.png,0.5,2,0.2,0.15,right,4,2020-11-27_17h04.38.041,premup-three_ses-01_part-01_label-phase1,3.2.4,Win32,60,,,,,,,,,,,,,,,,,,,,,,,,,,,,,,,,
right,0.843999863,0,3,1,0,240,202,1,239,3,2,3,stim/23.jpeg,HouseObjects,1,stim/objects/HouseObjects/vacuumcleaner2.png,0.9,4,0.2,-0.15,left,4,2020-11-27_17h04.38.041,premup-three_ses-01_part-01_label-phase1,3.2.4,Win32,60,,,,,,,,,,,,,,,,,,,,,,,,,,,,,,,,
left,0.861999989,0,4,1,0,240,173,1,239,3,1,2,stim/12.jpeg,Instruments,2,stim/objects/Instruments/triangle2.png,0.9,1,-0.2,0.15,right,4,2020-11-27_17h04.38.041,premup-three_ses-01_part-01_label-phase1,3.2.4,Win32,60,,,,,,,,,,,,,,,,,,,,,,,,,,,,,,,,
left,0.880000114,0,5,1,0,240,184,1,239,3,1,1,stim/11.jpeg,Instruments,2,stim/objects/Instruments/timbal2.png,0.9,1,-0.2,0.15,right,4,2020-11-27_17h04.38.041,premup-three_ses-01_part-01_label-phase1,3.2.4,Win32,60,,,,,,,,,,,,,,,,,,,,,,,,,,,,,,,,
right,0.976000071,0,6,1,0,240,140,1,239,2,6,1,stim/61.jpeg,HouseObjects,1,stim/objects/HouseObjects/rug2.png,0.7,1,-0.2,0.15,left,4,2020-11-27_17h04.38.041,premup-three_ses-01_part-01_label-phase1,3.2.4,Win32,60,,,,,,,,,,,,,,,,,,,,,,,,,,,,,,,,
left,0.86500001,1,7,1,0,240,208,1,239,3,2,1,stim/21.jpeg,HouseObjects,1,stim/objects/HouseObjects/thread2.png,0.9,2,0.2,0.15,left,4,2020-11-27_17h04.38.041,premup-three_ses-01_part-01_label-phase1,3.2.4,Win32,60,,,,,,,,,,,,,,,,,,,,,,,,,,,,,,,,
right,0.68900013,1,8,1,0,240,95,1,239,2,5,4,stim/54.jpeg,Instruments,2,stim/objects/Instruments/xylophone.png,0.7,1,-0.2,0.15,right,4,2020-11-27_17h04.38.041,premup-three_ses-01_part-01_label-phase1,3.2.4,Win32,60,,,,,,,,,,,,,,,,,,,,,,,,,,,,,,,,
left,0.506000042,0,9,1,0,240,65,1,239,1,4,2,stim/42.jpeg,Instruments,2,stim/objects/Instruments/triangle.png,0.5,1,-0.2,0.15,right,4,2020-11-27_17h04.38.041,premup-three_ses-01_part-01_label-phase1,3.2.4,Win32,60,,,,,,,,,,,,,,,,,,,,,,,,,,,,,,,,
left,0.832999945,1,10,1,0,240,224,1,239,3,2,1,stim/21.jpeg,HouseObjects,1,stim/objects/HouseObjects/thread2.png,0.9,4,0.2,-0.15,left,4,2020-11-27_17h04.38.041,premup-three_ses-01_part-01_label-phase1,3.2.4,Win32,60,,,,,,,,,,,,,,,,,,,,,,,,,,,,,,,,
,,0,1,,,,,,,3,1,2,stim/12.jpeg,Instruments,2,stim/objects/Instruments/triangle2.png,0.9,3,-0.2,-0.15,right,4,2020-11-27_17h04.38.041,premup-three_ses-01_part-01_label-phase1,3.2.4,Win32,60,left,1.028000116,4,0,4,0,1,3,1,0,240,177,1,239,,,,,,,,,,,,,,,,,,
,,0,2,,,,,,,1,4,1,stim/41.jpeg,HouseObjects,1,stim/objects/HouseObjects/sponge.png,0.5,3,-0.2,-0.15,left,4,2020-11-27_17h04.38.041,premup-three_ses-01_part-01_label-phase1,3.2.4,Win32,60,right,1.050000191,4,0,4,0,1,3,1,0,240,40,1,239,,,,,,,,,,,,,,,,,,
,,1,3,,,,,,,3,2,1,stim/21.jpeg,HouseObjects,1,stim/objects/HouseObjects/thread2.png,0.9,4,0.2,-0.15,left,4,2020-11-27_17h04.38.041,premup-three_ses-01_part-01_label-phase1,3.2.4,Win32,60,left,0.986000061,4,0,4,0,1,3,1,0,240,204,1,239,,,,,,,,,,,,,,,,,,
,,1,4,,,,,,,3,1,4,stim/14.jpeg,Instruments,2,stim/objects/Instruments/trumpet2.png,0.9,3,-0.2,-0.15,right,4,2020-11-27_17h04.38.041,premup-three_ses-01_part-01_label-phase1,3.2.4,Win32,60,right,0.544999838,4,0,4,0,1,3,1,0,240,183,1,239,,,,,,,,,,,,,,,,,,
,,1,5,,,,,,,2,5,2,stim/52.jpeg,HouseObjects,1,stim/objects/HouseObjects/towel.png,0.3,2,0.2,0.15,left,4,2020-11-27_17h04.38.041,premup-three_ses-01_part-01_label-phase1,3.2.4,Win32,60,left,0.774999857,4,0,4,0,1,3,1,0,240,89,1,239,,,,,,,,,,,,,,,,,,
,,0,6,,,,,,,2,6,3,stim/63.jpeg,HouseObjects,1,stim/objects/HouseObjects/saw2.png,0.7,3,-0.2,-0.15,left,4,2020-11-27_17h04.38.041,premup-three_ses-01_part-01_label-phase1,3.2.4,Win32,60,right,0.843999863,4,0,4,0,1,3,1,0,240,122,1,239,,,,,,,,,,,,,,,,,,
,,0,7,,,,,,,2,5,3,stim/53.jpeg,HouseObjects,1,stim/objects/HouseObjects/vacuumcleaner.png,0.3,3,-0.2,-0.15,left,4,2020-11-27_17h04.38.041,premup-three_ses-01_part-01_label-phase1,3.2.4,Win32,60,right,0.983999968,4,0,4,0,1,3,1,0,240,82,1,239,,,,,,,,,,,,,,,,,,
,,1,8,,,,,,,1,4,3,stim/43.jpeg,HouseObjects,1,stim/objects/HouseObjects/teapot.png,0.5,4,0.2,-0.15,left,4,2020-11-27_17h04.38.041,premup-three_ses-01_part-01_label-phase1,3.2.4,Win32,60,left,0.83100009,4,0,4,0,1,3,1,0,240,42,1,239,,,,,,,,,,,,,,,,,,
,,0,9,,,,,,,2,5,1,stim/51.jpeg,Instruments,2,stim/objects/Instruments/tuba.png,0.7,3,-0.2,-0.15,right,4,2020-11-27_17h04.38.041,premup-three_ses-01_part-01_label-phase1,3.2.4,Win32,60,left,0.637000084,4,0,4,0,1,3,1,0,240,108,1,239,,,,,,,,,,,,,,,,,,
,,0,10,,,,,,,2,5,3,stim/53.jpeg,Instruments,2,stim/objects/Instruments/vuvuzela.png,0.7,4,0.2,-0.15,right,4,2020-11-27_17h04.38.041,premup-three_ses-01_part-01_label-phase1,3.2.4,Win32,60,left,0.802000046,4,0,4,0,1,3,1,0,240,118,1,239,,,,,,,,,,,,,,,,,,
,,1,11,,,,,,,1,4,2,stim/42.jpeg,Instruments,2,stim/objects/Instruments/triangle.png,0.5,3,-0.2,-0.15,right,4,2020-11-27_17h04.38.041,premup-three_ses-01_part-01_label-phase1,3.2.4,Win32,60,right,0.904000044,4,0,4,0,1,3,1,0,240,77,1,239,,,,,,,,,,,,,,,,,,
,,0,12,,,,,,,1,3,1,stim/31.jpeg,Instruments,2,stim/objects/Instruments/record_player.png,0.5,2,0.2,0.15,right,4,2020-11-27_17h04.38.041,premup-three_ses-01_part-01_label-phase1,3.2.4,Win32,60,left,0.715999842,4,0,4,0,1,3,1,0,240,28,1,239,,,,,,,,,,,,,,,,,,
,,1,13,,,,,,,1,3,2,stim/32.jpeg,Instruments,2,stim/objects/Instruments/saxophone.png,0.5,1,-0.2,0.15,right,4,2020-11-27_17h04.38.041,premup-three_ses-01_part-01_label-phase1,3.2.4,Win32,60,right,0.74000001,4,0,4,0,1,3,1,0,240,33,1,239,,,,,,,,,,,,,,,,,,
,,0,14,,,,,,,2,6,3,stim/63.jpeg,Instruments,2,stim/objects/Instruments/speaker2.png,0.3,1,-0.2,0.15,right,4,2020-11-27_17h04.38.041,premup-three_ses-01_part-01_label-phase1,3.2.4,Win32,60,left,0.725000143,4,0,4,0,1,3,1,0,240,150,1,239,,,,,,,,,,,,,,,,,,
,,0,15,,,,,,,2,6,4,stim/64.jpeg,HouseObjects,1,stim/objects/HouseObjects/scale2.png,0.7,4,0.2,-0.15,left,4,2020-11-27_17h04.38.041,premup-three_ses-01_part-01_label-phase1,3.2.4,Win32,60,right,0.907000065,4,0,4,0,1,3,1,0,240,139,1,239,,,,,,,,,,,,,,,,,,
,,1,16,,,,,,,1,4,2,stim/42.jpeg,Instruments,2,stim/objects/Instruments/triangle.png,0.5,2,0.2,0.15,right,4,2020-11-27_17h04.38.041,premup-three_ses-01_part-01_label-phase1,3.2.4,Win32,60,right,0.950000048,4,0,4,0,1,3,1,0,240,73,1,239,,,,,,,,,,,,,,,,,,
,,0,17,,,,,,,3,1,1,stim/11.jpeg,Instruments,2,stim/objects/Instruments/timbal2.png,0.9,1,-0.2,0.15,right,4,2020-11-27_17h04.38.041,premup-three_ses-01_part-01_label-phase1,3.2.4,Win32,60,left,0.802999973,4,0,4,0,1,3,1,0,240,184,1,239,,,,,,,,,,,,,,,,,,
,,0,18,,,,,,,1,3,3,stim/33.jpeg,HouseObjects,1,stim/objects/HouseObjects/saw.png,0.5,1,-0.2,0.15,left,4,2020-11-27_17h04.38.041,premup-three_ses-01_part-01_label-phase1,3.2.4,Win32,60,right,0.776000023,4,0,4,0,1,3,1,0,240,10,1,239,,,,,,,,,,,,,,,,,,
,,1,19,,,,,,,1,4,4,stim/44.jpeg,HouseObjects,1,stim/objects/HouseObjects/thermometer.png,0.5,2,0.2,0.15,left,4,2020-11-27_17h04.38.041,premup-three_ses-01_part-01_label-phase1,3.2.4,Win32,60,left,0.666000128,4,0,4,0,1,3,1,0,240,55,1,239,,,,,,,,,,,,,,,,,,
,,1,20,,,,,,,3,1,4,stim/14.jpeg,Instruments,2,stim/objects/Instruments/trumpet2.png,0.9,3,-0.2,-0.15,right,4,2020-11-27_17h04.38.041,premup-three_ses-01_part-01_label-phase1,3.2.4,Win32,60,right,0.765999794,4,0,4,0,1,3,1,0,240,191,1,239,,,,,,,,,,,,,,,,,,
,,0,21,,,,,,,1,4,3,stim/43.jpeg,HouseObjects,1,stim/objects/HouseObjects/teapot.png,0.5,4,0.2,-0.15,left,4,2020-11-27_17h04.38.041,premup-three_ses-01_part-01_label-phase1,3.2.4,Win32,60,right,0.832000017,4,0,4,0,1,3,1,0,240,58,1,239,,,,,,,,,,,,,,,,,,
,,1,22,,,,,,,1,4,4,stim/44.jpeg,Instruments,2,stim/objects/Instruments/trumpet.png,0.5,4,0.2,-0.15,right,4,2020-11-27_17h04.38.041,premup-three_ses-01_part-01_label-phase1,3.2.4,Win32,60,right,0.992000103,4,0,4,0,1,3,1,0,240,79,1,239,,,,,,,,,,,,,,,,,,
,,1,23,,,,,,,2,5,4,stim/54.jpeg,Instruments,2,stim/objects/Instruments/xylophone.png,0.7,1,-0.2,0.15,right,4,2020-11-27_17h04.38.041,premup-three_ses-01_part-01_label-phase1,3.2.4,Win32,60,right,0.840999842,4,0,4,0,1,3,1,0,240,115,1,239,,,,,,,,,,,,,,,,,,
,,0,24,,,,,,,3,1,2,stim/12.jpeg,Instruments,2,stim/objects/Instruments/triangle2.png,0.9,1,-0.2,0.15,right,4,2020-11-27_17h04.38.041,premup-three_ses-01_part-01_label-phase1,3.2.4,Win32,60,left,0.693000078,4,0,4,0,1,3,1,0,240,197,1,239,,,,,,,,,,,,,,,,,,
,,0,25,,,,,,,1,3,3,stim/33.jpeg,Instruments,2,stim/objects/Instruments/speaker.png,0.5,1,-0.2,0.15,right,4,2020-11-27_17h04.38.041,premup-three_ses-01_part-01_label-phase1,3.2.4,Win32,60,left,0.715999842,4,0,4,0,1,3,1,0,240,26,1,239,,,,,,,,,,,,,,,,,,
,,0,26,,,,,,,2,6,1,stim/61.jpeg,HouseObjects,1,stim/objects/HouseObjects/rug2.png,0.7,3,-0.2,-0.15,left,4,2020-11-27_17h04.38.041,premup-three_ses-01_part-01_label-phase1,3.2.4,Win32,60,right,0.835000038,4,0,4,0,1,3,1,0,240,120,1,239,,,,,,,,,,,,,,,,,,
,,1,27,,,,,,,2,6,4,stim/64.jpeg,HouseObjects,1,stim/objects/HouseObjects/scale2.png,0.7,2,0.2,0.15,left,4,2020-11-27_17h04.38.041,premup-three_ses-01_part-01_label-phase1,3.2.4,Win32,60,left,0.865999937,4,0,4,0,1,3,1,0,240,147,1,239,,,,,,,,,,,,,,,,,,
,,0,28,,,,,,,1,3,3,stim/33.jpeg,HouseObjects,1,stim/objects/HouseObjects/saw.png,0.5,3,-0.2,-0.15,left,4,2020-11-27_17h04.38.041,premup-three_ses-01_part-01_label-phase1,3.2.4,Win32,60,right,0.814999819,4,0,4,0,1,3,1,0,240,2,1,239,,,,,,,,,,,,,,,,,,
,,1,29,,,,,,,1,4,4,stim/44.jpeg,Instruments,2,stim/objects/Instruments/trumpet.png,0.5,1,-0.2,0.15,right,4,2020-11-27_17h04.38.041,premup-three_ses-01_part-01_label-phase1,3.2.4,Win32,60,right,0.733999968,4,0,4,0,1,3,1,0,240,63,1,239,,,,,,,,,,,,,,,,,,
,,0,30,,,,,,,2,5,1,stim/51.jpeg,Instruments,2,stim/objects/Instruments/tuba.png,0.7,1,-0.2,0.15,right,4,2020-11-27_17h04.38.041,premup-three_ses-01_part-01_label-phase1,3.2.4,Win32,60,left,0.703999996,4,0,4,0,1,3,1,0,240,100,1,239,,,,,,,,,,,,,,,,,,
,,1,31,,,,,,,3,2,4,stim/24.jpeg,Instruments,2,stim/objects/Instruments/xylophone2.png,0.1,3,-0.2,-0.15,right,4,2020-11-27_17h04.38.041,premup-three_ses-01_part-01_label-phase1,3.2.4,Win32,60,right,0.899000168,4,0,4,0,1,3,1,0,240,239,1,239,,,,,,,,,,,,,,,,,,
,,1,32,,,,,,,3,2,1,stim/21.jpeg,Instruments,2,stim/objects/Instruments/tuba2.png,0.1,1,-0.2,0.15,right,4,2020-11-27_17h04.38.041,premup-three_ses-01_part-01_label-phase1,3.2.4,Win32,60,right,0.734999895,4,0,4,0,1,3,1,0,240,236,1,239,,,,,,,,,,,,,,,,,,
,,0,33,,,,,,,1,3,1,stim/31.jpeg,Instruments,2,stim/objects/Instruments/record_player.png,0.5,1,-0.2,0.15,right,4,2020-11-27_17h04.38.041,premup-three_ses-01_part-01_label-phase1,3.2.4,Win32,60,left,0.766000032,4,0,4,0,1,3,1,0,240,36,1,239,,,,,,,,,,,,,,,,,,
,,1,34,,,,,,,2,6,2,stim/62.jpeg,HouseObjects,1,stim/objects/HouseObjects/safetypin2.png,0.7,3,-0.2,-0.15,left,4,2020-11-27_17h04.38.041,premup-three_ses-01_part-01_label-phase1,3.2.4,Win32,60,left,0.65899992,4,0,4,0,1,3,1,0,240,133,1,239,,,,,,,,,,,,,,,,,,
,,1,35,,,,,,,3,1,2,stim/12.jpeg,Instruments,2,stim/objects/Instruments/triangle2.png,0.9,1,-0.2,0.15,right,4,2020-11-27_17h04.38.041,premup-three_ses-01_part-01_label-phase1,3.2.4,Win32,60,right,0.776000023,4,0,4,0,1,3,1,0,240,169,1,239,,,,,,,,,,,,,,,,,,
,,0,36,,,,,,,2,6,3,stim/63.jpeg,Instruments,2,stim/objects/Instruments/speaker2.png,0.3,3,-0.2,-0.15,right,4,2020-11-27_17h04.38.041,premup-three_ses-01_part-01_label-phase1,3.2.4,Win32,60,left,0.628000021,4,0,4,0,1,3,1,0,240,158,1,239,,,,,,,,,,,,,,,,,,
,,0,37,,,,,,,2,6,2,stim/62.jpeg,HouseObjects,1,stim/objects/HouseObjects/safetypin2.png,0.7,2,0.2,0.15,left,4,2020-11-27_17h04.38.041,premup-three_ses-01_part-01_label-phase1,3.2.4,Win32,60,right,0.820999861,4,0,4,0,1,3,1,0,240,137,1,239,,,,,,,,,,,,,,,,,,
,,1,38,,,,,,,2,5,2,stim/52.jpeg,Instruments,2,stim/objects/Instruments/violin.png,0.7,2,0.2,0.15,right,4,2020-11-27_17h04.38.041,premup-three_ses-01_part-01_label-phase1,3.2.4,Win32,60,right,0.634000063,4,0,4,0,1,3,1,0,240,105,1,239,,,,,,,,,,,,,,,,,,
,,0,39,,,,,,,1,3,4,stim/34.jpeg,Instruments,2,stim/objects/Instruments/tambourine.png,0.5,4,0.2,-0.15,right,4,2020-11-27_17h04.38.041,premup-three_ses-01_part-01_label-phase1,3.2.4,Win32,60,left,0.555000067,4,0,4,0,1,3,1,0,240,39,1,239,,,,,,,,,,,,,,,,,,
,,0,40,,,,,,,1,4,3,stim/43.jpeg,HouseObjects,1,stim/objects/HouseObjects/teapot.png,0.5,4,0.2,-0.15,left,4,2020-11-27_17h04.38.041,premup-three_ses-01_part-01_label-phase1,3.2.4,Win32,60,right,0.649000168,4,0,4,0,1,3,1,0,240,54,1,239,,,,,,,,,,,,,,,,,,
,,0,41,,,,,,,1,4,1,stim/41.jpeg,HouseObjects,1,stim/objects/HouseObjects/sponge.png,0.5,3,-0.2,-0.15,left,4,2020-11-27_17h04.38.041,premup-three_ses-01_part-01_label-phase1,3.2.4,Win32,60,right,0.698999882,4,0,4,0,1,3,1,0,240,52,1,239,,,,,,,,,,,,,,,,,,
,,0,42,,,,,,,3,1,2,stim/12.jpeg,Instruments,2,stim/objects/Instruments/triangle2.png,0.9,4,0.2,-0.15,right,4,2020-11-27_17h04.38.041,premup-three_ses-01_part-01_label-phase1,3.2.4,Win32,60,left,0.763000011,4,0,4,0,1,3,1,0,240,185,1,239,,,,,,,,,,,,,,,,,,
,,1,43,,,,,,,3,2,3,stim/23.jpeg,Instruments,2,stim/objects/Instruments/vuvuzela2.png,0.1,2,0.2,0.15,right,4,2020-11-27_17h04.38.041,premup-three_ses-01_part-01_label-phase1,3.2.4,Win32,60,right,0.684999943,4,0,4,0,1,3,1,0,240,238,1,239,,,,,,,,,,,,,,,,,,
,,1,44,,,,,,,1,4,2,stim/42.jpeg,Instruments,2,stim/objects/Instruments/triangle.png,0.5,1,-0.2,0.15,right,4,2020-11-27_17h04.38.041,premup-three_ses-01_part-01_label-phase1,3.2.4,Win32,60,right,0.900000095,4,0,4,0,1,3,1,0,240,65,1,239,,,,,,,,,,,,,,,,,,
,,1,45,,,,,,,3,2,4,stim/24.jpeg,HouseObjects,1,stim/objects/HouseObjects/wateringcan2.png,0.9,4,0.2,-0.15,left,4,2020-11-27_17h04.38.041,premup-three_ses-01_part-01_label-phase1,3.2.4,Win32,60,left,0.59100008,4,0,4,0,1,3,1,0,240,227,1,239,,,,,,,,,,,,,,,,,,
,,1,46,,,,,,,3,1,3,stim/13.jpeg,Instruments,2,stim/objects/Instruments/trombone2.png,0.9,4,0.2,-0.15,right,4,2020-11-27_17h04.38.041,premup-three_ses-01_part-01_label-phase1,3.2.4,Win32,60,right,0.667999983,4,0,4,0,1,3,1,0,240,194,1,239,,,,,,,,,,,,,,,,,,
,,0,47,,,,,,,3,2,2,stim/22.jpeg,HouseObjects,1,stim/objects/HouseObjects/towel2.png,0.9,4,0.2,-0.15,left,4,2020-11-27_17h04.38.041,premup-three_ses-01_part-01_label-phase1,3.2.4,Win32,60,right,0.74000001,4,0,4,0,1,3,1,0,240,221,1,239,,,,,,,,,,,,,,,,,,
,,1,48,,,,,,,2,6,3,stim/63.jpeg,HouseObjects,1,stim/objects/HouseObjects/saw2.png,0.7,2,0.2,0.15,left,4,2020-11-27_17h04.38.041,premup-three_ses-01_part-01_label-phase1,3.2.4,Win32,60,left,0.700999975,4,0,4,0,1,3,1,0,240,130,1,239,,,,,,,,,,,,,,,,,,
,,1,49,,,,,,,3,1,1,stim/11.jpeg,Instruments,2,stim/objects/Instruments/timbal2.png,0.9,2,0.2,0.15,right,4,2020-11-27_17h04.38.041,premup-three_ses-01_part-01_label-phase1,3.2.4,Win32,60,right,0.691999912,4,0,4,0,1,3,1,0,240,168,1,239,,,,,,,,,,,,,,,,,,
,,0,50,,,,,,,2,6,3,stim/63.jpeg,HouseObjects,1,stim/objects/HouseObjects/saw2.png,0.7,3,-0.2,-0.15,left,4,2020-11-27_17h04.38.041,premup-three_ses-01_part-01_label-phase1,3.2.4,Win32,60,right,0.672999859,4,0,4,0,1,3,1,0,240,138,1,239,,,,,,,,,,,,,,,,,,
,,0,51,,,,,,,1,4,1,stim/41.jpeg,Instruments,2,stim/objects/Instruments/timbal.png,0.5,2,0.2,0.15,right,4,2020-11-27_17h04.38.041,premup-three_ses-01_part-01_label-phase1,3.2.4,Win32,60,left,0.715999842,4,0,4,0,1,3,1,0,240,64,1,239,,,,,,,,,,,,,,,,,,
,,0,52,,,,,,,1,4,2,stim/42.jpeg,HouseObjects,1,stim/objects/HouseObjects/spraybottle.png,0.5,4,0.2,-0.15,left,4,2020-11-27_17h04.38.041,premup-three_ses-01_part-01_label-phase1,3.2.4,Win32,60,right,0.756000042,4,0,4,0,1,3,1,0,240,53,1,239,,,,,,,,,,,,,,,,,,
,,0,53,,,,,,,2,6,4,stim/64.jpeg,HouseObjects,1,stim/objects/HouseObjects/scale2.png,0.7,3,-0.2,-0.15,left,4,2020-11-27_17h04.38.041,premup-three_ses-01_part-01_label-phase1,3.2.4,Win32,60,right,0.756000042,4,0,4,0,1,3,1,0,240,127,1,239,,,,,,,,,,,,,,,,,,
,,0,54,,,,,,,2,5,2,stim/52.jpeg,HouseObjects,1,stim/objects/HouseObjects/towel.png,0.3,4,0.2,-0.15,left,4,2020-11-27_17h04.38.041,premup-three_ses-01_part-01_label-phase1,3.2.4,Win32,60,right,0.784999847,4,0,4,0,1,3,1,0,240,81,1,239,,,,,,,,,,,,,,,,,,
,,1,55,,,,,,,3,2,2,stim/22.jpeg,HouseObjects,1,stim/objects/HouseObjects/towel2.png,0.9,4,0.2,-0.15,left,4,2020-11-27_17h04.38.041,premup-three_ses-01_part-01_label-phase1,3.2.4,Win32,60,left,0.699999809,4,0,4,0,1,3,1,0,240,205,1,239,,,,,,,,,,,,,,,,,,
,,1,56,,,,,,,1,4,4,stim/44.jpeg,Instruments,2,stim/objects/Instruments/trumpet.png,0.5,3,-0.2,-0.15,right,4,2020-11-27_17h04.38.041,premup-three_ses-01_part-01_label-phase1,3.2.4,Win32,60,right,0.621999979,4,0,4,0,1,3,1,0,240,67,1,239,,,,,,,,,,,,,,,,,,
,,0,57,,,,,,,3,2,1,stim/21.jpeg,HouseObjects,1,stim/objects/HouseObjects/thread2.png,0.9,1,-0.2,0.15,left,4,2020-11-27_17h04.38.041,premup-three_ses-01_part-01_label-phase1,3.2.4,Win32,60,right,0.740999937,4,0,4,0,1,3,1,0,240,228,1,239,,,,,,,,,,,,,,,,,,
,,1,58,,,,,,,3,2,4,stim/24.jpeg,HouseObjects,1,stim/objects/HouseObjects/wateringcan2.png,0.9,1,-0.2,0.15,left,4,2020-11-27_17h04.38.041,premup-three_ses-01_part-01_label-phase1,3.2.4,Win32,60,left,0.616000175,4,0,4,0,1,3,1,0,240,207,1,239,,,,,,,,,,,,,,,,,,
,,1,59,,,,,,,2,6,3,stim/63.jpeg,Instruments,2,stim/objects/Instruments/speaker2.png,0.3,4,0.2,-0.15,right,4,2020-11-27_17h04.38.041,premup-three_ses-01_part-01_label-phase1,3.2.4,Win32,60,right,0.766000032,4,0,4,0,1,3,1,0,240,154,1,239,,,,,,,,,,,,,,,,,,
,,1,60,,,,,,,2,6,4,stim/64.jpeg,Instruments,2,stim/objects/Instruments/tambourine2.png,0.3,1,-0.2,0.15,right,4,2020-11-27_17h04.38.041,premup-three_ses-01_part-01_label-phase1,3.2.4,Win32,60,right,0.809000015,4,0,4,0,1,3,1,0,240,155,1,239,,,,,,,,,,,,,,,,,,
,,1,61,,,,,,,1,3,1,stim/31.jpeg,HouseObjects,1,stim/objects/HouseObjects/rug.png,0.5,2,0.2,0.15,left,4,2020-11-27_17h04.38.041,premup-three_ses-01_part-01_label-phase1,3.2.4,Win32,60,left,0.638999939,4,0,4,0,1,3,1,0,240,8,1,239,,,,,,,,,,,,,,,,,,
,,0,62,,,,,,,3,1,1,stim/11.jpeg,Instruments,2,stim/objects/Instruments/timbal2.png,0.9,2,0.2,0.15,right,4,2020-11-27_17h04.38.041,premup-three_ses-01_part-01_label-phase1,3.2.4,Win32,60,left,0.713000059,4,0,4,0,1,3,1,0,240,196,1,239,,,,,,,,,,,,,,,,,,
,,1,63,,,,,,,2,6,1,stim/61.jpeg,HouseObjects,1,stim/objects/HouseObjects/rug2.png,0.7,2,0.2,0.15,left,4,2020-11-27_17h04.38.041,premup-three_ses-01_part-01_label-phase1,3.2.4,Win32,60,left,0.585000038,4,0,4,0,1,3,1,0,240,136,1,239,,,,,,,,,,,,,,,,,,
,,0,64,,,,,,,2,5,3,stim/53.jpeg,HouseObjects,1,stim/objects/HouseObjects/vacuumcleaner.png,0.3,3,-0.2,-0.15,left,4,2020-11-27_17h04.38.041,premup-three_ses-01_part-01_label-phase1,3.2.4,Win32,60,right,0.65199995,4,0,4,0,1,3,1,0,240,90,1,239,,,,,,,,,,,,,,,,,,
,,0,65,,,,,,,2,6,1,stim/61.jpeg,HouseObjects,1,stim/objects/HouseObjects/rug2.png,0.7,3,-0.2,-0.15,left,4,2020-11-27_17h04.38.041,premup-three_ses-01_part-01_label-phase1,3.2.4,Win32,60,right,0.470999956,4,0,4,0,1,3,1,0,240,144,1,239,,,,,,,,,,,,,,,,,,
,,1,66,,,,,,,3,1,1,stim/11.jpeg,Instruments,2,stim/objects/Instruments/timbal2.png,0.9,1,-0.2,0.15,right,4,2020-11-27_17h04.38.041,premup-three_ses-01_part-01_label-phase1,3.2.4,Win32,60,right,0.643000126,4,0,4,0,1,3,1,0,240,164,1,239,,,,,,,,,,,,,,,,,,
,,1,67,,,,,,,1,4,2,stim/42.jpeg,Instruments,2,stim/objects/Instruments/triangle.png,0.5,1,-0.2,0.15,right,4,2020-11-27_17h04.38.041,premup-three_ses-01_part-01_label-phase1,3.2.4,Win32,60,right,0.741999865,4,0,4,0,1,3,1,0,240,61,1,239,,,,,,,,,,,,,,,,,,
,,0,68,,,,,,,3,1,1,stim/11.jpeg,Instruments,2,stim/objects/Instruments/timbal2.png,0.9,4,0.2,-0.15,right,4,2020-11-27_17h04.38.041,premup-three_ses-01_part-01_label-phase1,3.2.4,Win32,60,left,0.663000107,4,0,4,0,1,3,1,0,240,192,1,239,,,,,,,,,,,,,,,,,,
,,1,69,,,,,,,1,3,2,stim/32.jpeg,Instruments,2,stim/objects/Instruments/saxophone.png,0.5,1,-0.2,0.15,right,4,2020-11-27_17h04.38.041,premup-three_ses-01_part-01_label-phase1,3.2.4,Win32,60,right,0.698999882,4,0,4,0,1,3,1,0,240,21,1,239,,,,,,,,,,,,,,,,,,
,,1,70,,,,,,,1,3,2,stim/32.jpeg,Instruments,2,stim/objects/Instruments/saxophone.png,0.5,3,-0.2,-0.15,right,4,2020-11-27_17h04.38.041,premup-three_ses-01_part-01_label-phase1,3.2.4,Win32,60,right,0.539000034,4,0,4,0,1,3,1,0,240,25,1,239,,,,,,,,,,,,,,,,,,
,,0,71,,,,,,,2,6,1,stim/61.jpeg,Instruments,2,stim/objects/Instruments/record_player2.png,0.3,3,-0.2,-0.15,right,4,2020-11-27_17h04.38.041,premup-three_ses-01_part-01_label-phase1,3.2.4,Win32,60,left,0.667000055,4,0,4,0,1,3,1,0,240,156,1,239,,,,,,,,,,,,,,,,,,
,,1,72,,,,,,,1,4,3,stim/43.jpeg,Instruments,2,stim/objects/Instruments/trombone.png,0.5,4,0.2,-0.15,right,4,2020-11-27_17h04.38.041,premup-three_ses-01_part-01_label-phase1,3.2.4,Win32,60,right,0.691999912,4,0,4,0,1,3,1,0,240,66,1,239,,,,,,,,,,,,,,,,,,
,,0,73,,,,,,,2,5,3,stim/53.jpeg,Instruments,2,stim/objects/Instruments/vuvuzela.png,0.7,2,0.2,0.15,right,4,2020-11-27_17h04.38.041,premup-three_ses-01_part-01_label-phase1,3.2.4,Win32,60,left,0.791999817,4,0,4,0,1,3,1,0,240,94,1,239,,,,,,,,,,,,,,,,,,
,,1,74,,,,,,,3,1,3,stim/13.jpeg,Instruments,2,stim/objects/Instruments/trombone2.png,0.9,3,-0.2,-0.15,right,4,2020-11-27_17h04.38.041,premup-three_ses-01_part-01_label-phase1,3.2.4,Win32,60,right,0.618999958,4,0,4,0,1,3,1,0,240,198,1,239,,,,,,,,,,,,,,,,,,
,,0,75,,,,,,,3,1,2,stim/12.jpeg,Instruments,2,stim/objects/Instruments/triangle2.png,0.9,1,-0.2,0.15,right,4,2020-11-27_17h04.38.041,premup-three_ses-01_part-01_label-phase1,3.2.4,Win32,60,left,0.72300005,4,0,4,0,1,3,1,0,240,193,1,239,,,,,,,,,,,,,,,,,,
,,1,76,,,,,,,3,1,2,stim/12.jpeg,Instruments,2,stim/objects/Instruments/triangle2.png,0.9,1,-0.2,0.15,right,4,2020-11-27_17h04.38.041,premup-three_ses-01_part-01_label-phase1,3.2.4,Win32,60,right,0.713000059,4,0,4,0,1,3,1,0,240,173,1,239,,,,,,,,,,,,,,,,,,
,,1,77,,,,,,,2,6,1,stim/61.jpeg,HouseObjects,1,stim/objects/HouseObjects/rug2.png,0.7,1,-0.2,0.15,left,4,2020-11-27_17h04.38.041,premup-three_ses-01_part-01_label-phase1,3.2.4,Win32,60,left,0.688999891,4,0,4,0,1,3,1,0,240,140,1,239,,,,,,,,,,,,,,,,,,
,,0,78,,,,,,,3,2,3,stim/23.jpeg,HouseObjects,1,stim/objects/HouseObjects/vacuumcleaner2.png,0.9,3,-0.2,-0.15,left,4,2020-11-27_17h04.38.041,premup-three_ses-01_part-01_label-phase1,3.2.4,Win32,60,right,0.828999996,4,0,4,0,1,3,1,0,240,222,1,239,,,,,,,,,,,,,,,,,,
,,0,79,,,,,,,2,5,1,stim/51.jpeg,Instruments,2,stim/objects/Instruments/tuba.png,0.7,2,0.2,0.15,right,4,2020-11-27_17h04.38.041,premup-three_ses-01_part-01_label-phase1,3.2.4,Win32,60,left,0.702000141,4,0,4,0,1,3,1,0,240,116,1,239,,,,,,,,,,,,,,,,,,
,,1,80,,,,,,,2,5,1,stim/51.jpeg,Instruments,2,stim/objects/Instruments/tuba.png,0.7,2,0.2,0.15,right,4,2020-11-27_17h04.38.041,premup-three_ses-01_part-01_label-phase1,3.2.4,Win32,60,right,0.633000135,4,0,4,0,1,3,1,0,240,112,1,239,,,,,,,,,,,,,,,,,,
,,0,81,,,,,,,1,3,1,stim/31.jpeg,Instruments,2,stim/objects/Instruments/record_player.png,0.5,1,-0.2,0.15,right,4,2020-11-27_17h04.38.041,premup-three_ses-01_part-01_label-phase1,3.2.4,Win32,60,left,1.008999825,4,0,4,0,1,3,1,0,240,32,1,239,,,,,,,,,,,,,,,,,,
,,1,82,,,,,,,2,5,4,stim/54.jpeg,Instruments,2,stim/objects/Instruments/xylophone.png,0.7,1,-0.2,0.15,right,4,2020-11-27_17h04.38.041,premup-three_ses-01_part-01_label-phase1,3.2.4,Win32,60,right,0.86500001,4,0,4,0,1,3,1,0,240,119,1,239,,,,,,,,,,,,,,,,,,
,,1,83,,,,,,,3,2,3,stim/23.jpeg,HouseObjects,1,stim/objects/HouseObjects/vacuumcleaner2.png,0.9,4,0.2,-0.15,left,4,2020-11-27_17h04.38.041,premup-three_ses-01_part-01_label-phase1,3.2.4,Win32,60,left,0.665999889,4,0,4,0,1,3,1,0,240,226,1,239,,,,,,,,,,,,,,,,,,
,,1,84,,,,,,,1,3,4,stim/34.jpeg,Instruments,2,stim/objects/Instruments/tambourine.png,0.5,1,-0.2,0.15,right,4,2020-11-27_17h04.38.041,premup-three_ses-01_part-01_label-phase1,3.2.4,Win32,60,right,0.76699996,4,0,4,0,1,3,1,0,240,27,1,239,,,,,,,,,,,,,,,,,,
,,0,85,,,,,,,1,4,1,stim/41.jpeg,Instruments,2,stim/objects/Instruments/timbal.png,0.5,4,0.2,-0.15,right,4,2020-11-27_17h04.38.041,premup-three_ses-01_part-01_label-phase1,3.2.4,Win32,60,left,0.683000088,4,0,4,0,1,3,1,0,240,60,1,239,,,,,,,,,,,,,,,,,,
,,0,86,,,,,,,1,3,4,stim/34.jpeg,HouseObjects,1,stim/objects/HouseObjects/scale.png,0.5,4,0.2,-0.15,left,4,2020-11-27_17h04.38.041,premup-three_ses-01_part-01_label-phase1,3.2.4,Win32,60,right,0.792000055,4,0,4,0,1,3,1,0,240,19,1,239,,,,,,,,,,,,,,,,,,
,,1,87,,,,,,,3,1,2,stim/12.jpeg,Instruments,2,stim/objects/Instruments/triangle2.png,0.9,2,0.2,0.15,right,4,2020-11-27_17h04.38.041,premup-three_ses-01_part-01_label-phase1,3.2.4,Win32,60,right,0.972000122,4,0,4,0,1,3,1,0,240,165,1,239,,,,,,,,,,,,,,,,,,
,,0,88,,,,,,,1,4,2,stim/42.jpeg,HouseObjects,1,stim/objects/HouseObjects/spraybottle.png,0.5,2,0.2,0.15,left,4,2020-11-27_17h04.38.041,premup-three_ses-01_part-01_label-phase1,3.2.4,Win32,60,right,0.772000074,4,0,4,0,1,3,1,0,240,41,1,239,,,,,,,,,,,,,,,,,,
,,0,89,,,,,,,1,3,3,stim/33.jpeg,Instruments,2,stim/objects/Instruments/speaker.png,0.5,3,-0.2,-0.15,right,4,2020-11-27_17h04.38.041,premup-three_ses-01_part-01_label-phase1,3.2.4,Win32,60,left,0.782999992,4,0,4,0,1,3,1,0,240,22,1,239,,,,,,,,,,,,,,,,,,
,,0,90,,,,,,,1,4,4,stim/44.jpeg,HouseObjects,1,stim/objects/HouseObjects/thermometer.png,0.5,1,-0.2,0.15,left,4,2020-11-27_17h04.38.041,premup-three_ses-01_part-01_label-phase1,3.2.4,Win32,60,right,0.667000055,4,0,4,0,1,3,1,0,240,51,1,239,,,,,,,,,,,,,,,,,,
,,1,91,,,,,,,1,3,4,stim/34.jpeg,HouseObjects,1,stim/objects/HouseObjects/scale.png,0.5,2,0.2,0.15,left,4,2020-11-27_17h04.38.041,premup-three_ses-01_part-01_label-phase1,3.2.4,Win32,60,left,0.608999968,4,0,4,0,1,3,1,0,240,7,1,239,,,,,,,,,,,,,,,,,,
,,1,92,,,,,,,2,6,1,stim/61.jpeg,Instruments,2,stim/objects/Instruments/record_player2.png,0.3,1,-0.2,0.15,right,4,2020-11-27_17h04.38.041,premup-three_ses-01_part-01_label-phase1,3.2.4,Win32,60,right,0.733999968,4,0,4,0,1,3,1,0,240,152,1,239,,,,,,,,,,,,,,,,,,
,,0,93,,,,,,,3,1,4,stim/14.jpeg,HouseObjects,1,stim/objects/HouseObjects/thermometer2.png,0.1,3,-0.2,-0.15,left,4,2020-11-27_17h04.38.041,premup-three_ses-01_part-01_label-phase1,3.2.4,Win32,60,right,0.643000126,4,0,4,0,1,3,1,0,240,163,1,239,,,,,,,,,,,,,,,,,,
,,1,94,,,,,,,2,5,4,stim/54.jpeg,Instruments,2,stim/objects/Instruments/xylophone.png,0.7,4,0.2,-0.15,right,4,2020-11-27_17h04.38.041,premup-three_ses-01_part-01_label-phase1,3.2.4,Win32,60,right,0.632999897,4,0,4,0,1,3,1,0,240,111,1,239,,,,,,,,,,,,,,,,,,
,,1,95,,,,,,,2,6,4,stim/64.jpeg,HouseObjects,1,stim/objects/HouseObjects/scale2.png,0.7,4,0.2,-0.15,left,4,2020-11-27_17h04.38.041,premup-three_ses-01_part-01_label-phase1,3.2.4,Win32,60,left,0.549000025,4,0,4,0,1,3,1,0,240,123,1,239,,,,,,,,,,,,,,,,,,
,,0,96,,,,,,,3,2,4,stim/24.jpeg,HouseObjects,1,stim/objects/HouseObjects/wateringcan2.png,0.9,2,0.2,0.15,left,4,2020-11-27_17h04.38.041,premup-three_ses-01_part-01_label-phase1,3.2.4,Win32,60,right,0.605999947,4,0,4,0,1,3,1,0,240,215,1,239,,,,,,,,,,,,,,,,,,
,,1,97,,,,,,,1,3,2,stim/32.jpeg,HouseObjects,1,stim/objects/HouseObjects/safetypin.png,0.5,4,0.2,-0.15,left,4,2020-11-27_17h04.38.041,premup-three_ses-01_part-01_label-phase1,3.2.4,Win32,60,left,0.786000013,4,0,4,0,1,3,1,0,240,13,1,239,,,,,,,,,,,,,,,,,,
,,0,98,,,,,,,3,2,4,stim/24.jpeg,HouseObjects,1,stim/objects/HouseObjects/wateringcan2.png,0.9,3,-0.2,-0.15,left,4,2020-11-27_17h04.38.041,premup-three_ses-01_part-01_label-phase1,3.2.4,Win32,60,right,0.609000206,4,0,4,0,1,3,1,0,240,235,1,239,,,,,,,,,,,,,,,,,,
,,0,99,,,,,,,3,2,1,stim/21.jpeg,HouseObjects,1,stim/objects/HouseObjects/thread2.png,0.9,2,0.2,0.15,left,4,2020-11-27_17h04.38.041,premup-three_ses-01_part-01_label-phase1,3.2.4,Win32,60,right,0.695999861,4,0,4,0,1,3,1,0,240,208,1,239,,,,,,,,,,,,,,,,,,
,,1,100,,,,,,,1,3,3,stim/33.jpeg,HouseObjects,1,stim/objects/HouseObjects/saw.png,0.5,2,0.2,0.15,left,4,2020-11-27_17h04.38.041,premup-three_ses-01_part-01_label-phase1,3.2.4,Win32,60,left,1.217000008,4,0,4,0,1,3,1,0,240,6,1,239,,,,,,,,,,,,,,,,,,
,,0,101,,,,,,,3,2,2,stim/22.jpeg,HouseObjects,1,stim/objects/HouseObjects/towel2.png,0.9,2,0.2,0.15,left,4,2020-11-27_17h04.38.041,premup-three_ses-01_part-01_label-phase1,3.2.4,Win32,60,right,1.336999893,4,0,4,0,1,3,1,0,240,233,1,239,,,,,,,,,,,,,,,,,,
,,1,102,,,,,,,3,2,2,stim/22.jpeg,HouseObjects,1,stim/objects/HouseObjects/towel2.png,0.9,2,0.2,0.15,left,4,2020-11-27_17h04.38.041,premup-three_ses-01_part-01_label-phase1,3.2.4,Win32,60,left,0.599000216,4,0,4,0,1,3,1,0,240,217,1,239,,,,,,,,,,,,,,,,,,
,,1,103,,,,,,,1,3,1,stim/31.jpeg,Instruments,2,stim/objects/Instruments/record_player.png,0.5,1,-0.2,0.15,right,4,2020-11-27_17h04.38.041,premup-three_ses-01_part-01_label-phase1,3.2.4,Win32,60,right,0.788000107,4,0,4,0,1,3,1,0,240,20,1,239,,,,,,,,,,,,,,,,,,
,,1,104,,,,,,,3,1,4,stim/14.jpeg,Instruments,2,stim/objects/Instruments/trumpet2.png,0.9,1,-0.2,0.15,right,4,2020-11-27_17h04.38.041,premup-three_ses-01_part-01_label-phase1,3.2.4,Win32,60,right,0.849999905,4,0,4,0,1,3,1,0,240,179,1,239,,,,,,,,,,,,,,,,,,
,,1,105,,,,,,,1,3,2,stim/32.jpeg,Instruments,2,stim/objects/Instruments/saxophone.png,0.5,1,-0.2,0.15,right,4,2020-11-27_17h04.38.041,premup-three_ses-01_part-01_label-phase1,3.2.4,Win32,60,right,0.892000198,4,0,4,0,1,3,1,0,240,37,1,239,,,,,,,,,,,,,,,,,,
,,0,106,,,,,,,2,5,3,stim/53.jpeg,Instruments,2,stim/objects/Instruments/vuvuzela.png,0.7,1,-0.2,0.15,right,4,2020-11-27_17h04.38.041,premup-three_ses-01_part-01_label-phase1,3.2.4,Win32,60,left,0.634000063,4,0,4,0,1,3,1,0,240,110,1,239,,,,,,,,,,,,,,,,,,
,,0,107,,,,,,,1,3,3,stim/33.jpeg,HouseObjects,1,stim/objects/HouseObjects/saw.png,0.5,3,-0.2,-0.15,left,4,2020-11-27_17h04.38.041,premup-three_ses-01_part-01_label-phase1,3.2.4,Win32,60,right,0.766000032,4,0,4,0,1,3,1,0,240,18,1,239,,,,,,,,,,,,,,,,,,
,,0,108,,,,,,,2,6,4,stim/64.jpeg,HouseObjects,1,stim/objects/HouseObjects/scale2.png,0.7,4,0.2,-0.15,left,4,2020-11-27_17h04.38.041,premup-three_ses-01_part-01_label-phase1,3.2.4,Win32,60,right,0.743999958,4,0,4,0,1,3,1,0,240,135,1,239,,,,,,,,,,,,,,,,,,
,,1,109,,,,,,,1,3,1,stim/31.jpeg,Instruments,2,stim/objects/Instruments/record_player.png,0.5,4,0.2,-0.15,right,4,2020-11-27_17h04.38.041,premup-three_ses-01_part-01_label-phase1,3.2.4,Win32,60,right,0.839999914,4,0,4,0,1,3,1,0,240,24,1,239,,,,,,,,,,,,,,,,,,
,,0,110,,,,,,,2,6,2,stim/62.jpeg,Instruments,2,stim/objects/Instruments/saxophone2.png,0.3,4,0.2,-0.15,right,4,2020-11-27_17h04.38.041,premup-three_ses-01_part-01_label-phase1,3.2.4,Win32,60,left,0.673000097,4,0,4,0,1,3,1,0,240,149,1,239,,,,,,,,,,,,,,,,,,
,,1,111,,,,,,,3,2,3,stim/23.jpeg,HouseObjects,1,stim/objects/HouseObjects/vacuumcleaner2.png,0.9,1,-0.2,0.15,left,4,2020-11-27_17h04.38.041,premup-three_ses-01_part-01_label-phase1,3.2.4,Win32,60,left,0.941999912,4,0,4,0,1,3,1,0,240,218,1,239,,,,,,,,,,,,,,,,,,
,,0,112,,,,,,,3,2,2,stim/22.jpeg,Instruments,2,stim/objects/Instruments/violin2.png,0.1,4,0.2,-0.15,right,4,2020-11-27_17h04.38.041,premup-three_ses-01_part-01_label-phase1,3.2.4,Win32,60,left,0.812000036,4,0,4,0,1,3,1,0,240,237,1,239,,,,,,,,,,,,,,,,,,
,,0,113,,,,,,,3,2,4,stim/24.jpeg,HouseObjects,1,stim/objects/HouseObjects/wateringcan2.png,0.9,3,-0.2,-0.15,left,4,2020-11-27_17h04.38.041,premup-three_ses-01_part-01_label-phase1,3.2.4,Win32,60,right,0.849999905,4,0,4,0,1,3,1,0,240,211,1,239,,,,,,,,,,,,,,,,,,
,,0,114,,,,,,,1,3,1,stim/31.jpeg,HouseObjects,1,stim/objects/HouseObjects/rug.png,0.5,2,0.2,0.15,left,4,2020-11-27_17h04.38.041,premup-three_ses-01_part-01_label-phase1,3.2.4,Win32,60,right,0.690000057,4,0,4,0,1,3,1,0,240,12,1,239,,,,,,,,,,,,,,,,,,
,,1,115,,,,,,,2,5,3,stim/53.jpeg,Instruments,2,stim/objects/Instruments/vuvuzela.png,0.7,1,-0.2,0.15,right,4,2020-11-27_17h04.38.041,premup-three_ses-01_part-01_label-phase1,3.2.4,Win32,60,right,0.832000017,4,0,4,0,1,3,1,0,240,98,1,239,,,,,,,,,,,,,,,,,,
,,0,116,,,,,,,2,6,2,stim/62.jpeg,HouseObjects,1,stim/objects/HouseObjects/safetypin2.png,0.7,2,0.2,0.15,left,4,2020-11-27_17h04.38.041,premup-three_ses-01_part-01_label-phase1,3.2.4,Win32,60,right,0.75,4,0,4,0,1,3,1,0,240,129,1,239,,,,,,,,,,,,,,,,,,
,,0,117,,,,,,,1,4,3,stim/43.jpeg,HouseObjects,1,stim/objects/HouseObjects/teapot.png,0.5,2,0.2,0.15,left,4,2020-11-27_17h04.38.041,premup-three_ses-01_part-01_label-phase1,3.2.4,Win32,60,right,0.816000223,4,0,4,0,1,3,1,0,240,46,1,239,,,,,,,,,,,,,,,,,,
,,1,118,,,,,,,3,1,3,stim/13.jpeg,Instruments,2,stim/objects/Instruments/trombone2.png,0.9,3,-0.2,-0.15,right,4,2020-11-27_17h04.38.041,premup-three_ses-01_part-01_label-phase1,3.2.4,Win32,60,right,0.74000001,4,0,4,0,1,3,1,0,240,186,1,239,,,,,,,,,,,,,,,,,,
,,0,119,,,,,,,2,6,1,stim/61.jpeg,HouseObjects,1,stim/objects/HouseObjects/rug2.png,0.7,3,-0.2,-0.15,left,4,2020-11-27_17h04.38.041,premup-three_ses-01_part-01_label-phase1,3.2.4,Win32,60,right,0.638999939,4,0,4,0,1,3,1,0,240,128,1,239,,,,,,,,,,,,,,,,,,
,,0,120,,,,,,,1,4,1,stim/41.jpeg,Instruments,2,stim/objects/Instruments/timbal.png,0.5,2,0.2,0.15,right,4,2020-11-27_17h04.38.041,premup-three_ses-01_part-01_label-phase1,3.2.4,Win32,60,left,1.049999952,4,0,4,0,1,3,1,0,240,76,1,239,,,,,,,,,,,,,,,,,,
,,1,121,,,,,,,2,6,2,stim/62.jpeg,HouseObjects,1,stim/objects/HouseObjects/safetypin2.png,0.7,1,-0.2,0.15,left,4,2020-11-27_17h04.38.041,premup-three_ses-01_part-01_label-phase1,3.2.4,Win32,60,left,0.688999891,4,0,4,0,1,3,1,0,240,141,1,239,,,,,,,,,,,,,,,,,,
,,0,122,,,,,,,3,2,1,stim/21.jpeg,HouseObjects,1,stim/objects/HouseObjects/thread2.png,0.9,4,0.2,-0.15,left,4,2020-11-27_17h04.38.041,premup-three_ses-01_part-01_label-phase1,3.2.4,Win32,60,right,0.602999926,4,0,4,0,1,3,1,0,240,220,1,239,,,,,,,,,,,,,,,,,,
,,0,123,,,,,,,2,6,1,stim/61.jpeg,HouseObjects,1,stim/objects/HouseObjects/rug2.png,0.7,1,-0.2,0.15,left,4,2020-11-27_17h04.38.041,premup-three_ses-01_part-01_label-phase1,3.2.4,Win32,60,right,0.748000145,4,0,4,0,1,3,1,0,240,124,1,239,,,,,,,,,,,,,,,,,,
,,0,124,,,,,,,2,5,2,stim/52.jpeg,Instruments,2,stim/objects/Instruments/violin.png,0.7,4,0.2,-0.15,right,4,2020-11-27_17h04.38.041,premup-three_ses-01_part-01_label-phase1,3.2.4,Win32,60,left,0.618000031,4,0,4,0,1,3,1,0,240,109,1,239,,,,,,,,,,,,,,,,,,
,,0,125,,,,,,,1,4,2,stim/42.jpeg,HouseObjects,1,stim/objects/HouseObjects/spraybottle.png,0.5,4,0.2,-0.15,left,4,2020-11-27_17h04.38.041,premup-three_ses-01_part-01_label-phase1,3.2.4,Win32,60,right,0.832999945,4,0,4,0,1,3,1,0,240,45,1,239,,,,,,,,,,,,,,,,,,
,,0,126,,,,,,,1,3,2,stim/32.jpeg,Instruments,2,stim/objects/Instruments/saxophone.png,0.5,4,0.2,-0.15,right,4,2020-11-27_17h04.38.041,premup-three_ses-01_part-01_label-phase1,3.2.4,Win32,60,left,0.949999809,4,0,4,0,1,3,1,0,240,29,1,239,,,,,,,,,,,,,,,,,,
,,1,127,,,,,,,3,1,2,stim/12.jpeg,Instruments,2,stim/objects/Instruments/triangle2.png,0.9,3,-0.2,-0.15,right,4,2020-11-27_17h04.38.041,premup-three_ses-01_part-01_label-phase1,3.2.4,Win32,60,right,0.710000038,4,0,4,0,1,3,1,0,240,181,1,239,,,,,,,,,,,,,,,,,,
,,0,128,,,,,,,3,1,2,stim/12.jpeg,HouseObjects,1,stim/objects/HouseObjects/spraybottle2.png,0.1,3,-0.2,-0.15,left,4,2020-11-27_17h04.38.041,premup-three_ses-01_part-01_label-phase1,3.2.4,Win32,60,right,0.791000128,4,0,4,0,1,3,1,0,240,161,1,239,,,,,,,,,,,,,,,,,,
,,0,129,,,,,,,2,5,3,stim/53.jpeg,Instruments,2,stim/objects/Instruments/vuvuzela.png,0.7,4,0.2,-0.15,right,4,2020-11-27_17h04.38.041,premup-three_ses-01_part-01_label-phase1,3.2.4,Win32,60,left,0.590000153,4,0,4,0,1,3,1,0,240,106,1,239,,,,,,,,,,,,,,,,,,
,,1,130,,,,,,,1,4,4,stim/44.jpeg,Instruments,2,stim/objects/Instruments/trumpet.png,0.5,3,-0.2,-0.15,right,4,2020-11-27_17h04.38.041,premup-three_ses-01_part-01_label-phase1,3.2.4,Win32,60,right,0.860999823,4,0,4,0,1,3,1,0,240,71,1,239,,,,,,,,,,,,,,,,,,
,,0,131,,,,,,,3,1,1,stim/11.jpeg,Instruments,2,stim/objects/Instruments/timbal2.png,0.9,1,-0.2,0.15,right,4,2020-11-27_17h04.38.041,premup-three_ses-01_part-01_label-phase1,3.2.4,Win32,60,left,0.569999933,4,0,4,0,1,3,1,0,240,180,1,239,,,,,,,,,,,,,,,,,,
,,1,132,,,,,,,2,5,4,stim/54.jpeg,Instruments,2,stim/objects/Instruments/xylophone.png,0.7,1,-0.2,0.15,right,4,2020-11-27_17h04.38.041,premup-three_ses-01_part-01_label-phase1,3.2.4,Win32,60,right,0.515000105,4,0,4,0,1,3,1,0,240,95,1,239,,,,,,,,,,,,,,,,,,
,,1,133,,,,,,,1,3,2,stim/32.jpeg,HouseObjects,1,stim/objects/HouseObjects/safetypin.png,0.5,4,0.2,-0.15,left,4,2020-11-27_17h04.38.041,premup-three_ses-01_part-01_label-phase1,3.2.4,Win32,60,left,0.686000109,4,0,4,0,1,3,1,0,240,17,1,239,,,,,,,,,,,,,,,,,,
,,1,134,,,,,,,1,4,1,stim/41.jpeg,HouseObjects,1,stim/objects/HouseObjects/sponge.png,0.5,4,0.2,-0.15,left,4,2020-11-27_17h04.38.041,premup-three_ses-01_part-01_label-phase1,3.2.4,Win32,60,left,0.740999937,4,0,4,0,1,3,1,0,240,44,1,239,,,,,,,,,,,,,,,,,,
,,1,135,,,,,,,3,2,1,stim/21.jpeg,HouseObjects,1,stim/objects/HouseObjects/thread2.png,0.9,1,-0.2,0.15,left,4,2020-11-27_17h04.38.041,premup-three_ses-01_part-01_label-phase1,3.2.4,Win32,60,left,0.833000183,4,0,4,0,1,3,1,0,240,200,1,239,,,,,,,,,,,,,,,,,,
,,0,136,,,,,,,1,3,2,stim/32.jpeg,HouseObjects,1,stim/objects/HouseObjects/safetypin.png,0.5,1,-0.2,0.15,left,4,2020-11-27_17h04.38.041,premup-three_ses-01_part-01_label-phase1,3.2.4,Win32,60,right,0.593999863,4,0,4,0,1,3,1,0,240,1,1,239,,,,,,,,,,,,,,,,,,
,,0,137,,,,,,,3,1,4,stim/14.jpeg,Instruments,2,stim/objects/Instruments/trumpet2.png,0.9,1,-0.2,0.15,right,4,2020-11-27_17h04.38.041,premup-three_ses-01_part-01_label-phase1,3.2.4,Win32,60,left,0.633000135,4,0,4,0,1,3,1,0,240,199,1,239,,,,,,,,,,,,,,,,,,
,,1,138,,,,,,,3,2,3,stim/23.jpeg,HouseObjects,1,stim/objects/HouseObjects/vacuumcleaner2.png,0.9,4,0.2,-0.15,left,4,2020-11-27_17h04.38.041,premup-three_ses-01_part-01_label-phase1,3.2.4,Win32,60,left,0.898999929,4,0,4,0,1,3,1,0,240,210,1,239,,,,,,,,,,,,,,,,,,
,,1,139,,,,,,,3,1,1,stim/11.jpeg,Instruments,2,stim/objects/Instruments/timbal2.png,0.9,4,0.2,-0.15,right,4,2020-11-27_17h04.38.041,premup-three_ses-01_part-01_label-phase1,3.2.4,Win32,60,right,0.598999977,4,0,4,0,1,3,1,0,240,172,1,239,,,,,,,,,,,,,,,,,,
,,1,140,,,,,,,1,3,4,stim/34.jpeg,Instruments,2,stim/objects/Instruments/tambourine.png,0.5,2,0.2,0.15,right,4,2020-11-27_17h04.38.041,premup-three_ses-01_part-01_label-phase1,3.2.4,Win32,60,right,0.713999987,4,0,4,0,1,3,1,0,240,35,1,239,,,,,,,,,,,,,,,,,,
,,1,141,,,,,,,1,3,3,stim/33.jpeg,HouseObjects,1,stim/objects/HouseObjects/saw.png,0.5,1,-0.2,0.15,left,4,2020-11-27_17h04.38.041,premup-three_ses-01_part-01_label-phase1,3.2.4,Win32,60,left,0.763000011,4,0,4,0,1,3,1,0,240,14,1,239,,,,,,,,,,,,,,,,,,
,,1,142,,,,,,,1,3,1,stim/31.jpeg,HouseObjects,1,stim/objects/HouseObjects/rug.png,0.5,3,-0.2,-0.15,left,4,2020-11-27_17h04.38.041,premup-three_ses-01_part-01_label-phase1,3.2.4,Win32,60,left,0.731999874,4,0,4,0,1,3,1,0,240,0,1,239,,,,,,,,,,,,,,,,,,
,,0,143,,,,,,,3,2,2,stim/22.jpeg,HouseObjects,1,stim/objects/HouseObjects/towel2.png,0.9,1,-0.2,0.15,left,4,2020-11-27_17h04.38.041,premup-three_ses-01_part-01_label-phase1,3.2.4,Win32,60,right,0.675000191,4,0,4,0,1,3,1,0,240,225,1,239,,,,,,,,,,,,,,,,,,
,,0,144,,,,,,,1,4,3,stim/43.jpeg,Instruments,2,stim/objects/Instruments/trombone.png,0.5,4,0.2,-0.15,right,4,2020-11-27_17h04.38.041,premup-three_ses-01_part-01_label-phase1,3.2.4,Win32,60,left,0.674999952,4,0,4,0,1,3,1,0,240,62,1,239,,,,,,,,,,,,,,,,,,
,,0,145,,,,,,,3,1,3,stim/13.jpeg,Instruments,2,stim/objects/Instruments/trombone2.png,0.9,2,0.2,0.15,right,4,2020-11-27_17h04.38.041,premup-three_ses-01_part-01_label-phase1,3.2.4,Win32,60,left,0.849999905,4,0,4,0,1,3,1,0,240,178,1,239,,,,,,,,,,,,,,,,,,
,,1,146,,,,,,,1,4,2,stim/42.jpeg,Instruments,2,stim/objects/Instruments/triangle.png,0.5,2,0.2,0.15,right,4,2020-11-27_17h04.38.041,premup-three_ses-01_part-01_label-phase1,3.2.4,Win32,60,right,0.389999866,4,0,4,0,1,3,1,0,240,69,1,239,,,,,,,,,,,,,,,,,,
,,0,147,,,,,,,2,5,2,stim/52.jpeg,Instruments,2,stim/objects/Instruments/violin.png,0.7,2,0.2,0.15,right,4,2020-11-27_17h04.38.041,premup-three_ses-01_part-01_label-phase1,3.2.4,Win32,60,left,0.678999901,4,0,4,0,1,3,1,0,240,117,1,239,,,,,,,,,,,,,,,,,,
,,1,148,,,,,,,1,3,3,stim/33.jpeg,Instruments,2,stim/objects/Instruments/speaker.png,0.5,3,-0.2,-0.15,right,4,2020-11-27_17h04.38.041,premup-three_ses-01_part-01_label-phase1,3.2.4,Win32,60,right,0.882999897,4,0,4,0,1,3,1,0,240,34,1,239,,,,,,,,,,,,,,,,,,
,,1,149,,,,,,,2,6,3,stim/63.jpeg,HouseObjects,1,stim/objects/HouseObjects/saw2.png,0.7,4,0.2,-0.15,left,4,2020-11-27_17h04.38.041,premup-three_ses-01_part-01_label-phase1,3.2.4,Win32,60,left,0.629000187,4,0,4,0,1,3,1,0,240,126,1,239,,,,,,,,,,,,,,,,,,
,,0,150,,,,,,,1,4,1,stim/41.jpeg,HouseObjects,1,stim/objects/HouseObjects/sponge.png,0.5,2,0.2,0.15,left,4,2020-11-27_17h04.38.041,premup-three_ses-01_part-01_label-phase1,3.2.4,Win32,60,right,0.71600008,4,0,4,0,1,3,1,0,240,48,1,239,,,,,,,,,,,,,,,,,,
,,1,151,,,,,,,3,2,4,stim/24.jpeg,HouseObjects,1,stim/objects/HouseObjects/wateringcan2.png,0.9,1,-0.2,0.15,left,4,2020-11-27_17h04.38.041,premup-three_ses-01_part-01_label-phase1,3.2.4,Win32,60,left,0.826000214,4,0,4,0,1,3,1,0,240,231,1,239,,,,,,,,,,,,,,,,,,
,,1,152,,,,,,,3,2,2,stim/22.jpeg,HouseObjects,1,stim/objects/HouseObjects/towel2.png,0.9,3,-0.2,-0.15,left,4,2020-11-27_17h04.38.041,premup-three_ses-01_part-01_label-phase1,3.2.4,Win32,60,left,0.506999969,4,0,4,0,1,3,1,0,240,209,1,239,,,,,,,,,,,,,,,,,,
,,0,153,,,,,,,2,5,4,stim/54.jpeg,Instruments,2,stim/objects/Instruments/xylophone.png,0.7,3,-0.2,-0.15,right,4,2020-11-27_17h04.38.041,premup-three_ses-01_part-01_label-phase1,3.2.4,Win32,60,left,0.710000038,4,0,4,0,1,3,1,0,240,103,1,239,,,,,,,,,,,,,,,,,,
,,1,154,,,,,,,2,5,2,stim/52.jpeg,Instruments,2,stim/objects/Instruments/violin.png,0.7,3,-0.2,-0.15,right,4,2020-11-27_17h04.38.041,premup-three_ses-01_part-01_label-phase1,3.2.4,Win32,60,right,0.68200016,4,0,4,0,1,3,1,0,240,97,1,239,,,,,,,,,,,,,,,,,,
,,0,155,,,,,,,3,1,3,stim/13.jpeg,Instruments,2,stim/objects/Instruments/trombone2.png,0.9,2,0.2,0.15,right,4,2020-11-27_17h04.38.041,premup-three_ses-01_part-01_label-phase1,3.2.4,Win32,60,left,0.623000145,4,0,4,0,1,3,1,0,240,170,1,239,,,,,,,,,,,,,,,,,,
,,1,156,,,,,,,3,1,3,stim/13.jpeg,Instruments,2,stim/objects/Instruments/trombone2.png,0.9,2,0.2,0.15,right,4,2020-11-27_17h04.38.041,premup-three_ses-01_part-01_label-phase1,3.2.4,Win32,60,right,0.430999994,4,0,4,0,1,3,1,0,240,174,1,239,,,,,,,,,,,,,,,,,,
,,0,157,,,,,,,2,5,3,stim/53.jpeg,Instruments,2,stim/objects/Instruments/vuvuzela.png,0.7,2,0.2,0.15,right,4,2020-11-27_17h04.38.041,premup-three_ses-01_part-01_label-phase1,3.2.4,Win32,60,left,0.667999983,4,0,4,0,1,3,1,0,240,114,1,239,,,,,,,,,,,,,,,,,,
,,1,158,,,,,,,3,1,3,stim/13.jpeg,Instruments,2,stim/objects/Instruments/trombone2.png,0.9,4,0.2,-0.15,right,4,2020-11-27_17h04.38.041,premup-three_ses-01_part-01_label-phase1,3.2.4,Win32,60,right,0.940999985,4,0,4,0,1,3,1,0,240,166,1,239,,,,,,,,,,,,,,,,,,
,,1,159,,,,,,,2,5,4,stim/54.jpeg,Instruments,2,stim/objects/Instruments/xylophone.png,0.7,2,0.2,0.15,right,4,2020-11-27_17h04.38.041,premup-three_ses-01_part-01_label-phase1,3.2.4,Win32,60,right,0.519999981,4,0,4,0,1,3,1,0,240,99,1,239,,,,,,,,,,,,,,,,,,
,,1,160,,,,,,,3,2,1,stim/21.jpeg,HouseObjects,1,stim/objects/HouseObjects/thread2.png,0.9,2,0.2,0.15,left,4,2020-11-27_17h04.38.041,premup-three_ses-01_part-01_label-phase1,3.2.4,Win32,60,left,0.632999897,4,0,4,0,1,3,1,0,240,212,1,239,,,,,,,,,,,,,,,,,,
,,1,161,,,,,,,1,3,4,stim/34.jpeg,Instruments,2,stim/objects/Instruments/tambourine.png,0.5,1,-0.2,0.15,right,4,2020-11-27_17h04.38.041,premup-three_ses-01_part-01_label-phase1,3.2.4,Win32,60,right,0.901000023,4,0,4,0,1,3,1,0,240,23,1,239,,,,,,,,,,,,,,,,,,
,,1,162,,,,,,,2,5,4,stim/54.jpeg,Instruments,2,stim/objects/Instruments/xylophone.png,0.7,1,-0.2,0.15,right,4,2020-11-27_17h04.38.041,premup-three_ses-01_part-01_label-phase1,3.2.4,Win32,60,right,0.690000057,4,0,4,0,1,3,1,0,240,107,1,239,,,,,,,,,,,,,,,,,,
,,1,163,,,,,,,1,4,4,stim/44.jpeg,Instruments,2,stim/objects/Instruments/trumpet.png,0.5,2,0.2,0.15,right,4,2020-11-27_17h04.38.041,premup-three_ses-01_part-01_label-phase1,3.2.4,Win32,60,right,0.883000135,4,0,4,0,1,3,1,0,240,75,1,239,,,,,,,,,,,,,,,,,,
,,1,164,,,,,,,3,2,3,stim/23.jpeg,HouseObjects,1,stim/objects/HouseObjects/vacuumcleaner2.png,0.9,4,0.2,-0.15,left,4,2020-11-27_17h04.38.041,premup-three_ses-01_part-01_label-phase1,3.2.4,Win32,60,left,0.84100008,4,0,4,0,1,3,1,0,240,206,1,239,,,,,,,,,,,,,,,,,,
,,0,165,,,,,,,2,5,4,stim/54.jpeg,HouseObjects,1,stim/objects/HouseObjects/wateringcan.png,0.3,2,0.2,0.15,left,4,2020-11-27_17h04.38.041,premup-three_ses-01_part-01_label-phase1,3.2.4,Win32,60,right,0.586999893,4,0,4,0,1,3,1,0,240,91,1,239,,,,,,,,,,,,,,,,,,
,,1,166,,,,,,,1,4,1,stim/41.jpeg,Instruments,2,stim/objects/Instruments/timbal.png,0.5,1,-0.2,0.15,right,4,2020-11-27_17h04.38.041,premup-three_ses-01_part-01_label-phase1,3.2.4,Win32,60,right,0.756000042,4,0,4,0,1,3,1,0,240,72,1,239,,,,,,,,,,,,,,,,,,
,,1,167,,,,,,,3,1,1,stim/11.jpeg,Instruments,2,stim/objects/Instruments/timbal2.png,0.9,1,-0.2,0.15,right,4,2020-11-27_17h04.38.041,premup-three_ses-01_part-01_label-phase1,3.2.4,Win32,60,right,0.877000093,4,0,4,0,1,3,1,0,240,188,1,239,,,,,,,,,,,,,,,,,,
,,1,168,,,,,,,2,6,4,stim/64.jpeg,HouseObjects,1,stim/objects/HouseObjects/scale2.png,0.7,4,0.2,-0.15,left,4,2020-11-27_17h04.38.041,premup-three_ses-01_part-01_label-phase1,3.2.4,Win32,60,left,0.927000046,4,0,4,0,1,3,1,0,240,143,1,239,,,,,,,,,,,,,,,,,,
,,1,169,,,,,,,2,6,1,stim/61.jpeg,HouseObjects,1,stim/objects/HouseObjects/rug2.png,0.7,2,0.2,0.15,left,4,2020-11-27_17h04.38.041,premup-three_ses-01_part-01_label-phase1,3.2.4,Win32,60,left,0.628999949,4,0,4,0,1,3,1,0,240,132,1,239,,,,,,,,,,,,,,,,,,
,,1,170,,,,,,,3,1,1,stim/11.jpeg,Instruments,2,stim/objects/Instruments/timbal2.png,0.9,1,-0.2,0.15,right,4,2020-11-27_17h04.38.041,premup-three_ses-01_part-01_label-phase1,3.2.4,Win32,60,right,0.585000038,4,0,4,0,1,3,1,0,240,176,1,239,,,,,,,,,,,,,,,,,,
,,0,171,,,,,,,2,5,4,stim/54.jpeg,HouseObjects,1,stim/objects/HouseObjects/wateringcan.png,0.3,3,-0.2,-0.15,left,4,2020-11-27_17h04.38.041,premup-three_ses-01_part-01_label-phase1,3.2.4,Win32,60,right,0.674000025,4,0,4,0,1,3,1,0,240,83,1,239,,,,,,,,,,,,,,,,,,
,,1,172,,,,,,,3,2,1,stim/21.jpeg,HouseObjects,1,stim/objects/HouseObjects/thread2.png,0.9,2,0.2,0.15,left,4,2020-11-27_17h04.38.041,premup-three_ses-01_part-01_label-phase1,3.2.4,Win32,60,left,0.653000116,4,0,4,0,1,3,1,0,240,216,1,239,,,,,,,,,,,,,,,,,,
,,1,173,,,,,,,2,6,3,stim/63.jpeg,HouseObjects,1,stim/objects/HouseObjects/saw2.png,0.7,4,0.2,-0.15,left,4,2020-11-27_17h04.38.041,premup-three_ses-01_part-01_label-phase1,3.2.4,Win32,60,left,0.902999878,4,0,4,0,1,3,1,0,240,146,1,239,,,,,,,,,,,,,,,,,,
,,0,174,,,,,,,1,3,4,stim/34.jpeg,HouseObjects,1,stim/objects/HouseObjects/scale.png,0.5,3,-0.2,-0.15,left,4,2020-11-27_17h04.38.041,premup-three_ses-01_part-01_label-phase1,3.2.4,Win32,60,right,0.646000147,4,0,4,0,1,3,1,0,240,11,1,239,,,,,,,,,,,,,,,,,,
,,0,175,,,,,,,1,4,4,stim/44.jpeg,HouseObjects,1,stim/objects/HouseObjects/thermometer.png,0.5,3,-0.2,-0.15,left,4,2020-11-27_17h04.38.041,premup-three_ses-01_part-01_label-phase1,3.2.4,Win32,60,right,0.617000103,4,0,4,0,1,3,1,0,240,47,1,239,,,,,,,,,,,,,,,,,,
,,0,176,,,,,,,1,3,1,stim/31.jpeg,HouseObjects,1,stim/objects/HouseObjects/rug.png,0.5,3,-0.2,-0.15,left,4,2020-11-27_17h04.38.041,premup-three_ses-01_part-01_label-phase1,3.2.4,Win32,60,right,0.769999981,4,0,4,0,1,3,1,0,240,4,1,239,,,,,,,,,,,,,,,,,,
,,0,177,,,,,,,1,3,4,stim/34.jpeg,HouseObjects,1,stim/objects/HouseObjects/scale.png,0.5,3,-0.2,-0.15,left,4,2020-11-27_17h04.38.041,premup-three_ses-01_part-01_label-phase1,3.2.4,Win32,60,right,0.694000006,4,0,4,0,1,3,1,0,240,3,1,239,,,,,,,,,,,,,,,,,,
,,0,178,,,,,,,3,1,3,stim/13.jpeg,HouseObjects,1,stim/objects/HouseObjects/teapot2.png,0.1,1,-0.2,0.15,left,4,2020-11-27_17h04.38.041,premup-three_ses-01_part-01_label-phase1,3.2.4,Win32,60,right,0.665999889,4,0,4,0,1,3,1,0,240,162,1,239,,,,,,,,,,,,,,,,,,
,,1,179,,,,,,,2,6,3,stim/63.jpeg,HouseObjects,1,stim/objects/HouseObjects/saw2.png,0.7,3,-0.2,-0.15,left,4,2020-11-27_17h04.38.041,premup-three_ses-01_part-01_label-phase1,3.2.4,Win32,60,left,0.699999809,4,0,4,0,1,3,1,0,240,142,1,239,,,,,,,,,,,,,,,,,,
,,1,180,,,,,,,3,2,3,stim/23.jpeg,HouseObjects,1,stim/objects/HouseObjects/vacuumcleaner2.png,0.9,3,-0.2,-0.15,left,4,2020-11-27_17h04.38.041,premup-three_ses-01_part-01_label-phase1,3.2.4,Win32,60,left,0.671000004,4,0,4,0,1,3,1,0,240,234,1,239,,,,,,,,,,,,,,,,,,
,,0,181,,,,,,,1,4,4,stim/44.jpeg,HouseObjects,1,stim/objects/HouseObjects/thermometer.png,0.5,2,0.2,0.15,left,4,2020-11-27_17h04.38.041,premup-three_ses-01_part-01_label-phase1,3.2.4,Win32,60,right,0.708999872,4,0,4,0,1,3,1,0,240,59,1,239,,,,,,,,,,,,,,,,,,
,,1,182,,,,,,,1,3,4,stim/34.jpeg,Instruments,2,stim/objects/Instruments/tambourine.png,0.5,1,-0.2,0.15,right,4,2020-11-27_17h04.38.041,premup-three_ses-01_part-01_label-phase1,3.2.4,Win32,60,right,0.714999914,4,0,4,0,1,3,1,0,240,31,1,239,,,,,,,,,,,,,,,,,,
,,1,183,,,,,,,2,5,2,stim/52.jpeg,Instruments,2,stim/objects/Instruments/violin.png,0.7,2,0.2,0.15,right,4,2020-11-27_17h04.38.041,premup-three_ses-01_part-01_label-phase1,3.2.4,Win32,60,right,0.686000109,4,0,4,0,1,3,1,0,240,113,1,239,,,,,,,,,,,,,,,,,,
,,1,184,,,,,,,3,1,2,stim/12.jpeg,Instruments,2,stim/objects/Instruments/triangle2.png,0.9,3,-0.2,-0.15,right,4,2020-11-27_17h04.38.041,premup-three_ses-01_part-01_label-phase1,3.2.4,Win32,60,right,0.679000139,4,0,4,0,1,3,1,0,240,189,1,239,,,,,,,,,,,,,,,,,,
,,1,185,,,,,,,1,3,3,stim/33.jpeg,Instruments,2,stim/objects/Instruments/speaker.png,0.5,2,0.2,0.15,right,4,2020-11-27_17h04.38.041,premup-three_ses-01_part-01_label-phase1,3.2.4,Win32,60,right,0.562999964,4,0,4,0,1,3,1,0,240,30,1,239,,,,,,,,,,,,,,,,,,
,,0,186,,,,,,,1,4,4,stim/44.jpeg,HouseObjects,1,stim/objects/HouseObjects/thermometer.png,0.5,3,-0.2,-0.15,left,4,2020-11-27_17h04.38.041,premup-three_ses-01_part-01_label-phase1,3.2.4,Win32,60,right,0.863999844,4,0,4,0,1,3,1,0,240,43,1,239,,,,,,,,,,,,,,,,,,
,,0,187,,,,,,,2,5,2,stim/52.jpeg,HouseObjects,1,stim/objects/HouseObjects/towel.png,0.3,1,-0.2,0.15,left,4,2020-11-27_17h04.38.041,premup-three_ses-01_part-01_label-phase1,3.2.4,Win32,60,right,0.570999861,4,0,4,0,1,3,1,0,240,85,1,239,,,,,,,,,,,,,,,,,,
,,1,188,,,,,,,3,2,3,stim/23.jpeg,HouseObjects,1,stim/objects/HouseObjects/vacuumcleaner2.png,0.9,2,0.2,0.15,left,4,2020-11-27_17h04.38.041,premup-three_ses-01_part-01_label-phase1,3.2.4,Win32,60,left,0.61500001,4,0,4,0,1,3,1,0,240,230,1,239,,,,,,,,,,,,,,,,,,
,,0,189,,,,,,,1,4,2,stim/42.jpeg,HouseObjects,1,stim/objects/HouseObjects/spraybottle.png,0.5,4,0.2,-0.15,left,4,2020-11-27_17h04.38.041,premup-three_ses-01_part-01_label-phase1,3.2.4,Win32,60,right,0.654000044,4,0,4,0,1,3,1,0,240,49,1,239,,,,,,,,,,,,,,,,,,
,,1,190,,,,,,,2,5,3,stim/53.jpeg,Instruments,2,stim/objects/Instruments/vuvuzela.png,0.7,1,-0.2,0.15,right,4,2020-11-27_17h04.38.041,premup-three_ses-01_part-01_label-phase1,3.2.4,Win32,60,right,0.731999874,4,0,4,0,1,3,1,0,240,102,1,239,,,,,,,,,,,,,,,,,,
,,0,191,,,,,,,2,5,4,stim/54.jpeg,HouseObjects,1,stim/objects/HouseObjects/wateringcan.png,0.3,2,0.2,0.15,left,4,2020-11-27_17h04.38.041,premup-three_ses-01_part-01_label-phase1,3.2.4,Win32,60,right,0.883999825,4,0,4,0,1,3,1,0,240,87,1,239,,,,,,,,,,,,,,,,,,
,,1,192,,,,,,,2,6,4,stim/64.jpeg,HouseObjects,1,stim/objects/HouseObjects/scale2.png,0.7,2,0.2,0.15,left,4,2020-11-27_17h04.38.041,premup-three_ses-01_part-01_label-phase1,3.2.4,Win32,60,left,0.599999905,4,0,4,0,1,3,1,0,240,131,1,239,,,,,,,,,,,,,,,,,,
,,1,193,,,,,,,2,5,3,stim/53.jpeg,HouseObjects,1,stim/objects/HouseObjects/vacuumcleaner.png,0.3,4,0.2,-0.15,left,4,2020-11-27_17h04.38.041,premup-three_ses-01_part-01_label-phase1,3.2.4,Win32,60,left,0.844000101,4,0,4,0,1,3,1,0,240,86,1,239,,,,,,,,,,,,,,,,,,
,,1,194,,,,,,,3,2,2,stim/22.jpeg,HouseObjects,1,stim/objects/HouseObjects/towel2.png,0.9,2,0.2,0.15,left,4,2020-11-27_17h04.38.041,premup-three_ses-01_part-01_label-phase1,3.2.4,Win32,60,left,0.663000107,4,0,4,0,1,3,1,0,240,201,1,239,,,,,,,,,,,,,,,,,,
,,1,195,,,,,,,3,1,4,stim/14.jpeg,Instruments,2,stim/objects/Instruments/trumpet2.png,0.9,4,0.2,-0.15,right,4,2020-11-27_17h04.38.041,premup-three_ses-01_part-01_label-phase1,3.2.4,Win32,60,right,0.727999926,4,0,4,0,1,3,1,0,240,187,1,239,,,,,,,,,,,,,,,,,,
,,0,196,,,,,,,2,5,1,stim/51.jpeg,HouseObjects,1,stim/objects/HouseObjects/thread.png,0.3,4,0.2,-0.15,left,4,2020-11-27_17h04.38.041,premup-three_ses-01_part-01_label-phase1,3.2.4,Win32,60,right,0.52699995,4,0,4,0,1,3,1,0,240,84,1,239,,,,,,,,,,,,,,,,,,
,,0,197,,,,,,,2,6,4,stim/64.jpeg,Instruments,2,stim/objects/Instruments/tambourine2.png,0.3,3,-0.2,-0.15,right,4,2020-11-27_17h04.38.041,premup-three_ses-01_part-01_label-phase1,3.2.4,Win32,60,left,0.522000074,4,0,4,0,1,3,1,0,240,151,1,239,,,,,,,,,,,,,,,,,,
,,0,198,,,,,,,1,3,2,stim/32.jpeg,HouseObjects,1,stim/objects/HouseObjects/safetypin.png,0.5,3,-0.2,-0.15,left,4,2020-11-27_17h04.38.041,premup-three_ses-01_part-01_label-phase1,3.2.4,Win32,60,right,0.617000103,4,0,4,0,1,3,1,0,240,5,1,239,,,,,,,,,,,,,,,,,,
,,1,199,,,,,,,3,2,1,stim/21.jpeg,HouseObjects,1,stim/objects/HouseObjects/thread2.png,0.9,4,0.2,-0.15,left,4,2020-11-27_17h04.38.041,premup-three_ses-01_part-01_label-phase1,3.2.4,Win32,60,left,0.582999945,4,0,4,0,1,3,1,0,240,232,1,239,,,,,,,,,,,,,,,,,,
,,0,200,,,,,,,1,4,3,stim/43.jpeg,Instruments,2,stim/objects/Instruments/trombone.png,0.5,4,0.2,-0.15,right,4,2020-11-27_17h04.38.041,premup-three_ses-01_part-01_label-phase1,3.2.4,Win32,60,left,0.852999926,4,0,4,0,1,3,1,0,240,78,1,239,,,,,,,,,,,,,,,,,,
,,0,201,,,,,,,2,5,2,stim/52.jpeg,Instruments,2,stim/objects/Instruments/violin.png,0.7,4,0.2,-0.15,right,4,2020-11-27_17h04.38.041,premup-three_ses-01_part-01_label-phase1,3.2.4,Win32,60,left,0.637000084,4,0,4,0,1,3,1,0,240,101,1,239,,,,,,,,,,,,,,,,,,
,,1,202,,,,,,,2,6,2,stim/62.jpeg,HouseObjects,1,stim/objects/HouseObjects/safetypin2.png,0.7,1,-0.2,0.15,left,4,2020-11-27_17h04.38.041,premup-three_ses-01_part-01_label-phase1,3.2.4,Win32,60,left,0.568000078,4,0,4,0,1,3,1,0,240,145,1,239,,,,,,,,,,,,,,,,,,
,,1,203,,,,,,,1,3,3,stim/33.jpeg,Instruments,2,stim/objects/Instruments/speaker.png,0.5,1,-0.2,0.15,right,4,2020-11-27_17h04.38.041,premup-three_ses-01_part-01_label-phase1,3.2.4,Win32,60,right,0.795000076,4,0,4,0,1,3,1,0,240,38,1,239,,,,,,,,,,,,,,,,,,
,,1,204,,,,,,,2,5,1,stim/51.jpeg,Instruments,2,stim/objects/Instruments/tuba.png,0.7,1,-0.2,0.15,right,4,2020-11-27_17h04.38.041,premup-three_ses-01_part-01_label-phase1,3.2.4,Win32,60,right,0.665999889,4,0,4,0,1,3,1,0,240,92,1,239,,,,,,,,,,,,,,,,,,
,,1,205,,,,,,,1,4,3,stim/43.jpeg,Instruments,2,stim/objects/Instruments/trombone.png,0.5,3,-0.2,-0.15,right,4,2020-11-27_17h04.38.041,premup-three_ses-01_part-01_label-phase1,3.2.4,Win32,60,right,0.536999941,4,0,4,0,1,3,1,0,240,70,1,239,,,,,,,,,,,,,,,,,,
,,1,206,,,,,,,2,6,2,stim/62.jpeg,HouseObjects,1,stim/objects/HouseObjects/safetypin2.png,0.7,3,-0.2,-0.15,left,4,2020-11-27_17h04.38.041,premup-three_ses-01_part-01_label-phase1,3.2.4,Win32,60,left,0.465000153,4,0,4,0,1,3,1,0,240,121,1,239,,,,,,,,,,,,,,,,,,
,,1,207,,,,,,,3,1,4,stim/14.jpeg,Instruments,2,stim/objects/Instruments/trumpet2.png,0.9,2,0.2,0.15,right,4,2020-11-27_17h04.38.041,premup-three_ses-01_part-01_label-phase1,3.2.4,Win32,60,right,0.594000101,4,0,4,0,1,3,1,0,240,171,1,239,,,,,,,,,,,,,,,,,,
,,1,208,,,,,,,2,5,1,stim/51.jpeg,Instruments,2,stim/objects/Instruments/tuba.png,0.7,1,-0.2,0.15,right,4,2020-11-27_17h04.38.041,premup-three_ses-01_part-01_label-phase1,3.2.4,Win32,60,right,0.623999834,4,0,4,0,1,3,1,0,240,96,1,239,,,,,,,,,,,,,,,,,,
,,1,209,,,,,,,3,1,4,stim/14.jpeg,Instruments,2,stim/objects/Instruments/trumpet2.png,0.9,2,0.2,0.15,right,4,2020-11-27_17h04.38.041,premup-three_ses-01_part-01_label-phase1,3.2.4,Win32,60,right,0.444000006,4,0,4,0,1,3,1,0,240,175,1,239,,,,,,,,,,,,,,,,,,
,,1,210,,,,,,,3,2,4,stim/24.jpeg,HouseObjects,1,stim/objects/HouseObjects/wateringcan2.png,0.9,4,0.2,-0.15,left,4,2020-11-27_17h04.38.041,premup-three_ses-01_part-01_label-phase1,3.2.4,Win32,60,left,0.55099988,4,0,4,0,1,3,1,0,240,203,1,239,,,,,,,,,,,,,,,,,,
,,1,211,,,,,,,2,6,3,stim/63.jpeg,HouseObjects,1,stim/objects/HouseObjects/saw2.png,0.7,4,0.2,-0.15,left,4,2020-11-27_17h04.38.041,premup-three_ses-01_part-01_label-phase1,3.2.4,Win32,60,left,0.937999964,4,0,4,0,1,3,1,0,240,134,1,239,,,,,,,,,,,,,,,,,,
,,1,212,,,,,,,3,2,3,stim/23.jpeg,HouseObjects,1,stim/objects/HouseObjects/vacuumcleaner2.png,0.9,1,-0.2,0.15,left,4,2020-11-27_17h04.38.041,premup-three_ses-01_part-01_label-phase1,3.2.4,Win32,60,left,0.743999958,4,0,4,0,1,3,1,0,240,214,1,239,,,,,,,,,,,,,,,,,,
,,1,213,,,,,,,3,2,2,stim/22.jpeg,HouseObjects,1,stim/objects/HouseObjects/towel2.png,0.9,3,-0.2,-0.15,left,4,2020-11-27_17h04.38.041,premup-three_ses-01_part-01_label-phase1,3.2.4,Win32,60,left,0.608999968,4,0,4,0,1,3,1,0,240,213,1,239,,,,,,,,,,,,,,,,,,
,,0,214,,,,,,,2,6,2,stim/62.jpeg,Instruments,2,stim/objects/Instruments/saxophone2.png,0.3,3,-0.2,-0.15,right,4,2020-11-27_17h04.38.041,premup-three_ses-01_part-01_label-phase1,3.2.4,Win32,60,left,0.540999889,4,0,4,0,1,3,1,0,240,157,1,239,,,,,,,,,,,,,,,,,,
,,1,215,,,,,,,2,5,2,stim/52.jpeg,Instruments,2,stim/objects/Instruments/violin.png,0.7,3,-0.2,-0.15,right,4,2020-11-27_17h04.38.041,premup-three_ses-01_part-01_label-phase1,3.2.4,Win32,60,right,0.690000057,4,0,4,0,1,3,1,0,240,93,1,239,,,,,,,,,,,,,,,,,,
,,1,216,,,,,,,1,4,3,stim/43.jpeg,Instruments,2,stim/objects/Instruments/trombone.png,0.5,3,-0.2,-0.15,right,4,2020-11-27_17h04.38.041,premup-three_ses-01_part-01_label-phase1,3.2.4,Win32,60,right,0.766000032,4,0,4,0,1,3,1,0,240,74,1,239,,,,,,,,,,,,,,,,,,
,,0,217,,,,,,,3,1,1,stim/11.jpeg,HouseObjects,1,stim/objects/HouseObjects/sponge2.png,0.1,2,0.2,0.15,left,4,2020-11-27_17h04.38.041,premup-three_ses-01_part-01_label-phase1,3.2.4,Win32,60,right,0.964999914,4,0,4,0,1,3,1,0,240,160,1,239,,,,,,,,,,,,,,,,,,
,,0,218,,,,,,,2,6,4,stim/64.jpeg,Instruments,2,stim/objects/Instruments/tambourine2.png,0.3,4,0.2,-0.15,right,4,2020-11-27_17h04.38.041,premup-three_ses-01_part-01_label-phase1,3.2.4,Win32,60,left,0.611999989,4,0,4,0,1,3,1,0,240,159,1,239,,,,,,,,,,,,,,,,,,
,,1,219,,,,,,,3,2,1,stim/21.jpeg,HouseObjects,1,stim/objects/HouseObjects/thread2.png,0.9,4,0.2,-0.15,left,4,2020-11-27_17h04.38.041,premup-three_ses-01_part-01_label-phase1,3.2.4,Win32,60,left,0.68200016,4,0,4,0,1,3,1,0,240,224,1,239,,,,,,,,,,,,,,,,,,
,,0,220,,,,,,,1,3,1,stim/31.jpeg,HouseObjects,1,stim/objects/HouseObjects/rug.png,0.5,1,-0.2,0.15,left,4,2020-11-27_17h04.38.041,premup-three_ses-01_part-01_label-phase1,3.2.4,Win32,60,right,0.632999897,4,0,4,0,1,3,1,0,240,16,1,239,,,,,,,,,,,,,,,,,,
,,1,221,,,,,,,3,2,4,stim/24.jpeg,HouseObjects,1,stim/objects/HouseObjects/wateringcan2.png,0.9,4,0.2,-0.15,left,4,2020-11-27_17h04.38.041,premup-three_ses-01_part-01_label-phase1,3.2.4,Win32,60,left,0.48300004,4,0,4,0,1,3,1,0,240,223,1,239,,,,,,,,,,,,,,,,,,
,,1,222,,,,,,,3,2,3,stim/23.jpeg,HouseObjects,1,stim/objects/HouseObjects/vacuumcleaner2.png,0.9,4,0.2,-0.15,left,4,2020-11-27_17h04.38.041,premup-three_ses-01_part-01_label-phase1,3.2.4,Win32,60,left,0.495000124,4,0,4,0,1,3,1,0,240,202,1,239,,,,,,,,,,,,,,,,,,
,,0,223,,,,,,,1,4,2,stim/42.jpeg,HouseObjects,1,stim/objects/HouseObjects/spraybottle.png,0.5,4,0.2,-0.15,left,4,2020-11-27_17h04.38.041,premup-three_ses-01_part-01_label-phase1,3.2.4,Win32,60,right,0.693000078,4,0,4,0,1,3,1,0,240,57,1,239,,,,,,,,,,,,,,,,,,
,,1,224,,,,,,,3,1,3,stim/13.jpeg,Instruments,2,stim/objects/Instruments/trombone2.png,0.9,3,-0.2,-0.15,right,4,2020-11-27_17h04.38.041,premup-three_ses-01_part-01_label-phase1,3.2.4,Win32,60,right,0.625,4,0,4,0,1,3,1,0,240,190,1,239,,,,,,,,,,,,,,,,,,
,,1,225,,,,,,,3,2,4,stim/24.jpeg,HouseObjects,1,stim/objects/HouseObjects/wateringcan2.png,0.9,2,0.2,0.15,left,4,2020-11-27_17h04.38.041,premup-three_ses-01_part-01_label-phase1,3.2.4,Win32,60,left,0.523999929,4,0,4,0,1,3,1,0,240,219,1,239,,,,,,,,,,,,,,,,,,
,,0,226,,,,,,,1,3,2,stim/32.jpeg,HouseObjects,1,stim/objects/HouseObjects/safetypin.png,0.5,3,-0.2,-0.15,left,4,2020-11-27_17h04.38.041,premup-three_ses-01_part-01_label-phase1,3.2.4,Win32,60,right,0.774000168,4,0,4,0,1,3,1,0,240,9,1,239,,,,,,,,,,,,,,,,,,
,,1,227,,,,,,,3,1,3,stim/13.jpeg,Instruments,2,stim/objects/Instruments/trombone2.png,0.9,2,0.2,0.15,right,4,2020-11-27_17h04.38.041,premup-three_ses-01_part-01_label-phase1,3.2.4,Win32,60,right,0.834000111,4,0,4,0,1,3,1,0,240,182,1,239,,,,,,,,,,,,,,,,,,
,,0,228,,,,,,,1,3,4,stim/34.jpeg,HouseObjects,1,stim/objects/HouseObjects/scale.png,0.5,2,0.2,0.15,left,4,2020-11-27_17h04.38.041,premup-three_ses-01_part-01_label-phase1,3.2.4,Win32,60,right,0.807999849,4,0,4,0,1,3,1,0,240,15,1,239,,,,,,,,,,,,,,,,,,
,,0,229,,,,,,,3,2,2,stim/22.jpeg,HouseObjects,1,stim/objects/HouseObjects/towel2.png,0.9,3,-0.2,-0.15,left,4,2020-11-27_17h04.38.041,premup-three_ses-01_part-01_label-phase1,3.2.4,Win32,60,right,0.857999802,4,0,4,0,1,3,1,0,240,229,1,239,,,,,,,,,,,,,,,,,,
,,0,230,,,,,,,2,6,1,stim/61.jpeg,Instruments,2,stim/objects/Instruments/record_player2.png,0.3,1,-0.2,0.15,right,4,2020-11-27_17h04.38.041,premup-three_ses-01_part-01_label-phase1,3.2.4,Win32,60,left,0.649999857,4,0,4,0,1,3,1,0,240,148,1,239,,,,,,,,,,,,,,,,,,
,,0,231,,,,,,,1,4,1,stim/41.jpeg,HouseObjects,1,stim/objects/HouseObjects/sponge.png,0.5,4,0.2,-0.15,left,4,2020-11-27_17h04.38.041,premup-three_ses-01_part-01_label-phase1,3.2.4,Win32,60,right,0.746999979,4,0,4,0,1,3,1,0,240,56,1,239,,,,,,,,,,,,,,,,,,
,,1,232,,,,,,,2,6,2,stim/62.jpeg,HouseObjects,1,stim/objects/HouseObjects/safetypin2.png,0.7,4,0.2,-0.15,left,4,2020-11-27_17h04.38.041,premup-three_ses-01_part-01_label-phase1,3.2.4,Win32,60,left,0.562000036,4,0,4,0,1,3,1,0,240,125,1,239,,,,,,,,,,,,,,,,,,
,,0,233,,,,,,,2,5,1,stim/51.jpeg,HouseObjects,1,stim/objects/HouseObjects/thread.png,0.3,2,0.2,0.15,left,4,2020-11-27_17h04.38.041,premup-three_ses-01_part-01_label-phase1,3.2.4,Win32,60,right,0.620999813,4,0,4,0,1,3,1,0,240,88,1,239,,,,,,,,,,,,,,,,,,
,,1,234,,,,,,,3,1,4,stim/14.jpeg,Instruments,2,stim/objects/Instruments/trumpet2.png,0.9,3,-0.2,-0.15,right,4,2020-11-27_17h04.38.041,premup-three_ses-01_part-01_label-phase1,3.2.4,Win32,60,right,0.615999937,4,0,4,0,1,3,1,0,240,167,1,239,,,,,,,,,,,,,,,,,,
,,1,235,,,,,,,3,1,4,stim/14.jpeg,Instruments,2,stim/objects/Instruments/trumpet2.png,0.9,3,-0.2,-0.15,right,4,2020-11-27_17h04.38.041,premup-three_ses-01_part-01_label-phase1,3.2.4,Win32,60,right,0.450000048,4,0,4,0,1,3,1,0,240,195,1,239,,,,,,,,,,,,,,,,,,
,,1,236,,,,,,,1,4,3,stim/43.jpeg,HouseObjects,1,stim/objects/HouseObjects/teapot.png,0.5,2,0.2,0.15,left,4,2020-11-27_17h04.38.041,premup-three_ses-01_part-01_label-phase1,3.2.4,Win32,60,left,0.766000032,4,0,4,0,1,3,1,0,240,50,1,239,,,,,,,,,,,,,,,,,,
,,0,237,,,,,,,2,6,2,stim/62.jpeg,Instruments,2,stim/objects/Instruments/saxophone2.png,0.3,4,0.2,-0.15,right,4,2020-11-27_17h04.38.041,premup-three_ses-01_part-01_label-phase1,3.2.4,Win32,60,left,0.536000013,4,0,4,0,1,3,1,0,240,153,1,239,,,,,,,,,,,,,,,,,,
,,1,238,,,,,,,1,4,1,stim/41.jpeg,Instruments,2,stim/objects/Instruments/timbal.png,0.5,2,0.2,0.15,right,4,2020-11-27_17h04.38.041,premup-three_ses-01_part-01_label-phase1,3.2.4,Win32,60,right,0.937999964,4,0,4,0,1,3,1,0,240,68,1,239,,,,,,,,,,,,,,,,,,
,,1,239,,,,,,,2,5,1,stim/51.jpeg,Instruments,2,stim/objects/Instruments/tuba.png,0.7,2,0.2,0.15,right,4,2020-11-27_17h04.38.041,premup-three_ses-01_part-01_label-phase1,3.2.4,Win32,60,right,0.578000069,4,0,4,0,1,3,1,0,240,104,1,239,,,,,,,,,,,,,,,,,,
,,0,240,,,,,,,2,5,1,stim/51.jpeg,HouseObjects,1,stim/objects/HouseObjects/thread.png,0.3,1,-0.2,0.15,left,4,2020-11-27_17h04.38.041,premup-three_ses-01_part-01_label-phase1,3.2.4,Win32,60,right,0.508000135,4,0,4,0,1,3,1,0,240,80,1,239,,,,,,,,,,,,,,,,,,
,,,,,,,,,,,6,,stim/61.jpeg,,,,,,,,,4,2020-11-27_17h04.38.041,premup-three_ses-01_part-01_label-phase1,3.2.4,Win32,60,,,4,0,4,0,1,3,,,,,,,1,0,82,6.898000002,,,1,0,6,5,1,5,Household items,5,15,Music items,85,95
,,,,,,,,,,,1,,stim/11.jpeg,,,,,,,,,4,2020-11-27_17h04.38.041,premup-three_ses-01_part-01_label-phase1,3.2.4,Win32,60,,,4,0,4,0,1,3,,,,,,,1,0,31,7.786000013,,,1,0,6,0,1,5,Household items,45,55,Music items,45,55
,,,,,,,,,,,5,,stim/51.jpeg,,,,,,,,,4,2020-11-27_17h04.38.041,premup-three_ses-01_part-01_label-phase1,3.2.4,Win32,60,,,4,0,4,0,1,3,,,,,,,1,0,65,5.092000008,,,1,0,6,4,1,5,Music items,5,15,Household items,85,95
,,,,,,,,,,,3,,stim/31.jpeg,,,,,,,,,4,2020-11-27_17h04.38.041,premup-three_ses-01_part-01_label-phase1,3.2.4,Win32,60,,,4,0,4,0,1,3,,,,,,,1,0,31,3.619999886,,,1,0,6,2,1,5,Household items,65,75,Music items,25,35
,,,,,,,,,,,4,,stim/41.jpeg,,,,,,,,,4,2020-11-27_17h04.38.041,premup-three_ses-01_part-01_label-phase1,3.2.4,Win32,60,,,4,0,4,0,1,3,,,,,,,1,0,20,3.119999886,,,1,0,6,3,1,5,Household items,65,75,Music items,25,35
,,,,,,,,,,,2,,stim/21.jpeg,,,,,,,,,4,2020-11-27_17h04.38.041,premup-three_ses-01_part-01_label-phase1,3.2.4,Win32,60,,,4,0,4,0,1,3,,,,,,,1,0,6,3.36500001,,,1,0,6,1,1,5,Music items,45,55,Household items,45,55
,,,,,,,,,,,,,,,,,,,,,,4,2020-11-27_17h04.38.041,premup-three_ses-01_part-01_label-phase1,3.2.4,Win32,60,,,4,0,4,0,1,3,,,,,,,,,,,,,,,,,,,,,,,,
,,1,1,,,,,,,2,5,4,stim/54.jpeg,Instruments,2,stim/objects/Instruments/xylophone.png,0.7,3,-0.2,-0.15,right,4,2020-11-27_17h04.38.041,premup-three_ses-01_part-01_label-phase1,3.2.4,Win32,60,right,1.278000116,4,0,4,0,1,3,1,0,240,103,1,239,,,,,,,,,,,,,,,,,,
,,1,2,,,,,,,3,2,2,stim/22.jpeg,HouseObjects,1,stim/objects/HouseObjects/towel2.png,0.9,3,-0.2,-0.15,left,4,2020-11-27_17h04.38.041,premup-three_ses-01_part-01_label-phase1,3.2.4,Win32,60,left,0.778000116,4,0,4,0,1,3,1,0,240,213,1,239,,,,,,,,,,,,,,,,,,
,,1,3,,,,,,,2,5,4,stim/54.jpeg,Instruments,2,stim/objects/Instruments/xylophone.png,0.7,2,0.2,0.15,right,4,2020-11-27_17h04.38.041,premup-three_ses-01_part-01_label-phase1,3.2.4,Win32,60,right,0.785000086,4,0,4,0,1,3,1,0,240,99,1,239,,,,,,,,,,,,,,,,,,
,,0,4,,,,,,,2,6,3,stim/63.jpeg,Instruments,2,stim/objects/Instruments/speaker2.png,0.3,1,-0.2,0.15,right,4,2020-11-27_17h04.38.041,premup-three_ses-01_part-01_label-phase1,3.2.4,Win32,60,left,0.565999985,4,0,4,0,1,3,1,0,240,150,1,239,,,,,,,,,,,,,,,,,,
,,1,5,,,,,,,1,3,1,stim/31.jpeg,Instruments,2,stim/objects/Instruments/record_player.png,0.5,1,-0.2,0.15,right,4,2020-11-27_17h04.38.041,premup-three_ses-01_part-01_label-phase1,3.2.4,Win32,60,right,0.92599988,4,0,4,0,1,3,1,0,240,36,1,239,,,,,,,,,,,,,,,,,,
,,1,6,,,,,,,3,1,1,stim/11.jpeg,Instruments,2,stim/objects/Instruments/timbal2.png,0.9,1,-0.2,0.15,right,4,2020-11-27_17h04.38.041,premup-three_ses-01_part-01_label-phase1,3.2.4,Win32,60,right,0.769999981,4,0,4,0,1,3,1,0,240,164,1,239,,,,,,,,,,,,,,,,,,
,,0,7,,,,,,,2,5,4,stim/54.jpeg,HouseObjects,1,stim/objects/HouseObjects/wateringcan.png,0.3,2,0.2,0.15,left,4,2020-11-27_17h04.38.041,premup-three_ses-01_part-01_label-phase1,3.2.4,Win32,60,right,1.103000164,4,0,4,0,1,3,1,0,240,87,1,239,,,,,,,,,,,,,,,,,,
,,1,8,,,,,,,2,6,1,stim/61.jpeg,HouseObjects,1,stim/objects/HouseObjects/rug2.png,0.7,3,-0.2,-0.15,left,4,2020-11-27_17h04.38.041,premup-three_ses-01_part-01_label-phase1,3.2.4,Win32,60,left,0.604999781,4,0,4,0,1,3,1,0,240,144,1,239,,,,,,,,,,,,,,,,,,
,,1,9,,,,,,,3,1,3,stim/13.jpeg,Instruments,2,stim/objects/Instruments/trombone2.png,0.9,2,0.2,0.15,right,4,2020-11-27_17h04.38.041,premup-three_ses-01_part-01_label-phase1,3.2.4,Win32,60,right,0.617000103,4,0,4,0,1,3,1,0,240,178,1,239,,,,,,,,,,,,,,,,,,
,,0,10,,,,,,,2,5,3,stim/53.jpeg,HouseObjects,1,stim/objects/HouseObjects/vacuumcleaner.png,0.3,3,-0.2,-0.15,left,4,2020-11-27_17h04.38.041,premup-three_ses-01_part-01_label-phase1,3.2.4,Win32,60,right,0.809000015,4,0,4,0,1,3,1,0,240,82,1,239,,,,,,,,,,,,,,,,,,
,,1,11,,,,,,,2,5,1,stim/51.jpeg,Instruments,2,stim/objects/Instruments/tuba.png,0.7,1,-0.2,0.15,right,4,2020-11-27_17h04.38.041,premup-three_ses-01_part-01_label-phase1,3.2.4,Win32,60,right,0.648999929,4,0,4,0,1,3,1,0,240,100,1,239,,,,,,,,,,,,,,,,,,
,,1,12,,,,,,,1,4,2,stim/42.jpeg,Instruments,2,stim/objects/Instruments/triangle.png,0.5,2,0.2,0.15,right,4,2020-11-27_17h04.38.041,premup-three_ses-01_part-01_label-phase1,3.2.4,Win32,60,right,0.683000088,4,0,4,0,1,3,1,0,240,69,1,239,,,,,,,,,,,,,,,,,,
,,0,13,,,,,,,2,6,1,stim/61.jpeg,Instruments,2,stim/objects/Instruments/record_player2.png,0.3,3,-0.2,-0.15,right,4,2020-11-27_17h04.38.041,premup-three_ses-01_part-01_label-phase1,3.2.4,Win32,60,left,0.475000143,4,0,4,0,1,3,1,0,240,156,1,239,,,,,,,,,,,,,,,,,,
,,1,14,,,,,,,2,6,2,stim/62.jpeg,HouseObjects,1,stim/objects/HouseObjects/safetypin2.png,0.7,1,-0.2,0.15,left,4,2020-11-27_17h04.38.041,premup-three_ses-01_part-01_label-phase1,3.2.4,Win32,60,left,0.615999937,4,0,4,0,1,3,1,0,240,141,1,239,,,,,,,,,,,,,,,,,,
,,0,15,,,,,,,1,4,3,stim/43.jpeg,HouseObjects,1,stim/objects/HouseObjects/teapot.png,0.5,4,0.2,-0.15,left,4,2020-11-27_17h04.38.041,premup-three_ses-01_part-01_label-phase1,3.2.4,Win32,60,right,0.599999905,4,0,4,0,1,3,1,0,240,58,1,239,,,,,,,,,,,,,,,,,,
,,0,16,,,,,,,2,5,1,stim/51.jpeg,HouseObjects,1,stim/objects/HouseObjects/thread.png,0.3,2,0.2,0.15,left,4,2020-11-27_17h04.38.041,premup-three_ses-01_part-01_label-phase1,3.2.4,Win32,60,right,0.552999973,4,0,4,0,1,3,1,0,240,88,1,239,,,,,,,,,,,,,,,,,,
,,1,17,,,,,,,1,3,2,stim/32.jpeg,Instruments,2,stim/objects/Instruments/saxophone.png,0.5,3,-0.2,-0.15,right,4,2020-11-27_17h04.38.041,premup-three_ses-01_part-01_label-phase1,3.2.4,Win32,60,right,1.013000011,4,0,4,0,1,3,1,0,240,25,1,239,,,,,,,,,,,,,,,,,,
,,1,18,,,,,,,1,4,4,stim/44.jpeg,Instruments,2,stim/objects/Instruments/trumpet.png,0.5,1,-0.2,0.15,right,4,2020-11-27_17h04.38.041,premup-three_ses-01_part-01_label-phase1,3.2.4,Win32,60,right,0.592000008,4,0,4,0,1,3,1,0,240,63,1,239,,,,,,,,,,,,,,,,,,
,,1,19,,,,,,,2,5,4,stim/54.jpeg,Instruments,2,stim/objects/Instruments/xylophone.png,0.7,1,-0.2,0.15,right,4,2020-11-27_17h04.38.041,premup-three_ses-01_part-01_label-phase1,3.2.4,Win32,60,right,0.522000074,4,0,4,0,1,3,1,0,240,115,1,239,,,,,,,,,,,,,,,,,,
,,0,20,,,,,,,3,1,2,stim/12.jpeg,Instruments,2,stim/objects/Instruments/triangle2.png,0.9,4,0.2,-0.15,right,4,2020-11-27_17h04.38.041,premup-three_ses-01_part-01_label-phase1,3.2.4,Win32,60,left,0.638000011,4,0,4,0,1,3,1,0,240,185,1,239,,,,,,,,,,,,,,,,,,
,,1,21,,,,,,,2,5,3,stim/53.jpeg,Instruments,2,stim/objects/Instruments/vuvuzela.png,0.7,4,0.2,-0.15,right,4,2020-11-27_17h04.38.041,premup-three_ses-01_part-01_label-phase1,3.2.4,Win32,60,right,0.792000055,4,0,4,0,1,3,1,0,240,118,1,239,,,,,,,,,,,,,,,,,,
,,1,22,,,,,,,3,2,1,stim/21.jpeg,HouseObjects,1,stim/objects/HouseObjects/thread2.png,0.9,2,0.2,0.15,left,4,2020-11-27_17h04.38.041,premup-three_ses-01_part-01_label-phase1,3.2.4,Win32,60,left,0.598999977,4,0,4,0,1,3,1,0,240,212,1,239,,,,,,,,,,,,,,,,,,
,,0,23,,,,,,,1,4,1,stim/41.jpeg,HouseObjects,1,stim/objects/HouseObjects/sponge.png,0.5,4,0.2,-0.15,left,4,2020-11-27_17h04.38.041,premup-three_ses-01_part-01_label-phase1,3.2.4,Win32,60,right,0.866999865,4,0,4,0,1,3,1,0,240,44,1,239,,,,,,,,,,,,,,,,,,
,,1,24,,,,,,,1,3,3,stim/33.jpeg,Instruments,2,stim/objects/Instruments/speaker.png,0.5,1,-0.2,0.15,right,4,2020-11-27_17h04.38.041,premup-three_ses-01_part-01_label-phase1,3.2.4,Win32,60,right,0.677999973,4,0,4,0,1,3,1,0,240,26,1,239,,,,,,,,,,,,,,,,,,
,,1,25,,,,,,,3,2,3,stim/23.jpeg,HouseObjects,1,stim/objects/HouseObjects/vacuumcleaner2.png,0.9,1,-0.2,0.15,left,4,2020-11-27_17h04.38.041,premup-three_ses-01_part-01_label-phase1,3.2.4,Win32,60,left,0.805999994,4,0,4,0,1,3,1,0,240,214,1,239,,,,,,,,,,,,,,,,,,
,,1,26,,,,,,,3,1,1,stim/11.jpeg,Instruments,2,stim/objects/Instruments/timbal2.png,0.9,1,-0.2,0.15,right,4,2020-11-27_17h04.38.041,premup-three_ses-01_part-01_label-phase1,3.2.4,Win32,60,right,0.625999928,4,0,4,0,1,3,1,0,240,180,1,239,,,,,,,,,,,,,,,,,,
,,1,27,,,,,,,1,3,4,stim/34.jpeg,Instruments,2,stim/objects/Instruments/tambourine.png,0.5,2,0.2,0.15,right,4,2020-11-27_17h04.38.041,premup-three_ses-01_part-01_label-phase1,3.2.4,Win32,60,right,0.796999931,4,0,4,0,1,3,1,0,240,35,1,239,,,,,,,,,,,,,,,,,,
,,0,28,,,,,,,1,3,1,stim/31.jpeg,HouseObjects,1,stim/objects/HouseObjects/rug.png,0.5,2,0.2,0.15,left,4,2020-11-27_17h04.38.041,premup-three_ses-01_part-01_label-phase1,3.2.4,Win32,60,right,0.664999962,4,0,4,0,1,3,1,0,240,12,1,239,,,,,,,,,,,,,,,,,,
,,0,29,,,,,,,2,6,4,stim/64.jpeg,Instruments,2,stim/objects/Instruments/tambourine2.png,0.3,1,-0.2,0.15,right,4,2020-11-27_17h04.38.041,premup-three_ses-01_part-01_label-phase1,3.2.4,Win32,60,left,0.523000002,4,0,4,0,1,3,1,0,240,155,1,239,,,,,,,,,,,,,,,,,,
,,1,30,,,,,,,3,1,4,stim/14.jpeg,Instruments,2,stim/objects/Instruments/trumpet2.png,0.9,3,-0.2,-0.15,right,4,2020-11-27_17h04.38.041,premup-three_ses-01_part-01_label-phase1,3.2.4,Win32,60,right,0.523000002,4,0,4,0,1,3,1,0,240,167,1,239,,,,,,,,,,,,,,,,,,
,,1,31,,,,,,,3,2,3,stim/23.jpeg,HouseObjects,1,stim/objects/HouseObjects/vacuumcleaner2.png,0.9,4,0.2,-0.15,left,4,2020-11-27_17h04.38.041,premup-three_ses-01_part-01_label-phase1,3.2.4,Win32,60,left,0.566000223,4,0,4,0,1,3,1,0,240,206,1,239,,,,,,,,,,,,,,,,,,
,,1,32,,,,,,,3,1,3,stim/13.jpeg,Instruments,2,stim/objects/Instruments/trombone2.png,0.9,4,0.2,-0.15,right,4,2020-11-27_17h04.38.041,premup-three_ses-01_part-01_label-phase1,3.2.4,Win32,60,right,0.7099998,4,0,4,0,1,3,1,0,240,166,1,239,,,,,,,,,,,,,,,,,,
,,1,33,,,,,,,1,3,2,stim/32.jpeg,Instruments,2,stim/objects/Instruments/saxophone.png,0.5,4,0.2,-0.15,right,4,2020-11-27_17h04.38.041,premup-three_ses-01_part-01_label-phase1,3.2.4,Win32,60,right,1.137000084,4,0,4,0,1,3,1,0,240,29,1,239,,,,,,,,,,,,,,,,,,
,,0,34,,,,,,,1,3,4,stim/34.jpeg,HouseObjects,1,stim/objects/HouseObjects/scale.png,0.5,2,0.2,0.15,left,4,2020-11-27_17h04.38.041,premup-three_ses-01_part-01_label-phase1,3.2.4,Win32,60,right,0.518999815,4,0,4,0,1,3,1,0,240,15,1,239,,,,,,,,,,,,,,,,,,
,,0,35,,,,,,,1,3,3,stim/33.jpeg,HouseObjects,1,stim/objects/HouseObjects/saw.png,0.5,1,-0.2,0.15,left,4,2020-11-27_17h04.38.041,premup-three_ses-01_part-01_label-phase1,3.2.4,Win32,60,right,0.632999897,4,0,4,0,1,3,1,0,240,14,1,239,,,,,,,,,,,,,,,,,,
,,0,36,,,,,,,1,4,4,stim/44.jpeg,HouseObjects,1,stim/objects/HouseObjects/thermometer.png,0.5,3,-0.2,-0.15,left,4,2020-11-27_17h04.38.041,premup-three_ses-01_part-01_label-phase1,3.2.4,Win32,60,right,0.585000038,4,0,4,0,1,3,1,0,240,43,1,239,,,,,,,,,,,,,,,,,,
,,0,37,,,,,,,1,3,2,stim/32.jpeg,HouseObjects,1,stim/objects/HouseObjects/safetypin.png,0.5,4,0.2,-0.15,left,4,2020-11-27_17h04.38.041,premup-three_ses-01_part-01_label-phase1,3.2.4,Win32,60,right,0.719000101,4,0,4,0,1,3,1,0,240,13,1,239,,,,,,,,,,,,,,,,,,
,,0,38,,,,,,,2,5,1,stim/51.jpeg,HouseObjects,1,stim/objects/HouseObjects/thread.png,0.3,1,-0.2,0.15,left,4,2020-11-27_17h04.38.041,premup-three_ses-01_part-01_label-phase1,3.2.4,Win32,60,right,0.513000011,4,0,4,0,1,3,1,0,240,80,1,239,,,,,,,,,,,,,,,,,,
,,1,39,,,,,,,3,2,1,stim/21.jpeg,HouseObjects,1,stim/objects/HouseObjects/thread2.png,0.9,2,0.2,0.15,left,4,2020-11-27_17h04.38.041,premup-three_ses-01_part-01_label-phase1,3.2.4,Win32,60,left,0.534999847,4,0,4,0,1,3,1,0,240,216,1,239,,,,,,,,,,,,,,,,,,
,,1,40,,,,,,,1,4,2,stim/42.jpeg,Instruments,2,stim/objects/Instruments/triangle.png,0.5,3,-0.2,-0.15,right,4,2020-11-27_17h04.38.041,premup-three_ses-01_part-01_label-phase1,3.2.4,Win32,60,right,0.549999952,4,0,4,0,1,3,1,0,240,77,1,239,,,,,,,,,,,,,,,,,,
,,0,41,,,,,,,2,6,3,stim/63.jpeg,Instruments,2,stim/objects/Instruments/speaker2.png,0.3,3,-0.2,-0.15,right,4,2020-11-27_17h04.38.041,premup-three_ses-01_part-01_label-phase1,3.2.4,Win32,60,left,0.571000099,4,0,4,0,1,3,1,0,240,158,1,239,,,,,,,,,,,,,,,,,,
,,1,42,,,,,,,3,2,4,stim/24.jpeg,HouseObjects,1,stim/objects/HouseObjects/wateringcan2.png,0.9,2,0.2,0.15,left,4,2020-11-27_17h04.38.041,premup-three_ses-01_part-01_label-phase1,3.2.4,Win32,60,left,0.565999985,4,0,4,0,1,3,1,0,240,219,1,239,,,,,,,,,,,,,,,,,,
,,0,43,,,,,,,1,4,2,stim/42.jpeg,HouseObjects,1,stim/objects/HouseObjects/spraybottle.png,0.5,2,0.2,0.15,left,4,2020-11-27_17h04.38.041,premup-three_ses-01_part-01_label-phase1,3.2.4,Win32,60,right,0.715999842,4,0,4,0,1,3,1,0,240,41,1,239,,,,,,,,,,,,,,,,,,
,,1,44,,,,,,,2,5,2,stim/52.jpeg,Instruments,2,stim/objects/Instruments/violin.png,0.7,2,0.2,0.15,right,4,2020-11-27_17h04.38.041,premup-three_ses-01_part-01_label-phase1,3.2.4,Win32,60,right,0.684000015,4,0,4,0,1,3,1,0,240,105,1,239,,,,,,,,,,,,,,,,,,
,,0,45,,,,,,,1,4,1,stim/41.jpeg,Instruments,2,stim/objects/Instruments/timbal.png,0.5,2,0.2,0.15,right,4,2020-11-27_17h04.38.041,premup-three_ses-01_part-01_label-phase1,3.2.4,Win32,60,left,0.776000023,4,0,4,0,1,3,1,0,240,68,1,239,,,,,,,,,,,,,,,,,,
,,0,46,,,,,,,1,3,4,stim/34.jpeg,HouseObjects,1,stim/objects/HouseObjects/scale.png,0.5,4,0.2,-0.15,left,4,2020-11-27_17h04.38.041,premup-three_ses-01_part-01_label-phase1,3.2.4,Win32,60,right,0.642000198,4,0,4,0,1,3,1,0,240,19,1,239,,,,,,,,,,,,,,,,,,
,,1,47,,,,,,,2,6,1,stim/61.jpeg,HouseObjects,1,stim/objects/HouseObjects/rug2.png,0.7,3,-0.2,-0.15,left,4,2020-11-27_17h04.38.041,premup-three_ses-01_part-01_label-phase1,3.2.4,Win32,60,left,0.565999985,4,0,4,0,1,3,1,0,240,128,1,239,,,,,,,,,,,,,,,,,,
,,0,48,,,,,,,3,1,2,stim/12.jpeg,HouseObjects,1,stim/objects/HouseObjects/spraybottle2.png,0.1,3,-0.2,-0.15,left,4,2020-11-27_17h04.38.041,premup-three_ses-01_part-01_label-phase1,3.2.4,Win32,60,right,0.655999899,4,0,4,0,1,3,1,0,240,161,1,239,,,,,,,,,,,,,,,,,,
,,0,49,,,,,,,2,6,3,stim/63.jpeg,Instruments,2,stim/objects/Instruments/speaker2.png,0.3,4,0.2,-0.15,right,4,2020-11-27_17h04.38.041,premup-three_ses-01_part-01_label-phase1,3.2.4,Win32,60,left,0.575000048,4,0,4,0,1,3,1,0,240,154,1,239,,,,,,,,,,,,,,,,,,
,,1,50,,,,,,,2,6,3,stim/63.jpeg,HouseObjects,1,stim/objects/HouseObjects/saw2.png,0.7,3,-0.2,-0.15,left,4,2020-11-27_17h04.38.041,premup-three_ses-01_part-01_label-phase1,3.2.4,Win32,60,left,0.525000095,4,0,4,0,1,3,1,0,240,142,1,239,,,,,,,,,,,,,,,,,,
,,1,51,,,,,,,2,6,4,stim/64.jpeg,HouseObjects,1,stim/objects/HouseObjects/scale2.png,0.7,4,0.2,-0.15,left,4,2020-11-27_17h04.38.041,premup-three_ses-01_part-01_label-phase1,3.2.4,Win32,60,left,0.598999977,4,0,4,0,1,3,1,0,240,139,1,239,,,,,,,,,,,,,,,,,,
,,1,52,,,,,,,2,5,3,stim/53.jpeg,Instruments,2,stim/objects/Instruments/vuvuzela.png,0.7,4,0.2,-0.15,right,4,2020-11-27_17h04.38.041,premup-three_ses-01_part-01_label-phase1,3.2.4,Win32,60,right,0.583000183,4,0,4,0,1,3,1,0,240,106,1,239,,,,,,,,,,,,,,,,,,
,,1,53,,,,,,,2,6,3,stim/63.jpeg,HouseObjects,1,stim/objects/HouseObjects/saw2.png,0.7,3,-0.2,-0.15,left,4,2020-11-27_17h04.38.041,premup-three_ses-01_part-01_label-phase1,3.2.4,Win32,60,left,0.55099988,4,0,4,0,1,3,1,0,240,122,1,239,,,,,,,,,,,,,,,,,,
,,1,54,,,,,,,3,2,4,stim/24.jpeg,HouseObjects,1,stim/objects/HouseObjects/wateringcan2.png,0.9,1,-0.2,0.15,left,4,2020-11-27_17h04.38.041,premup-three_ses-01_part-01_label-phase1,3.2.4,Win32,60,left,0.605000019,4,0,4,0,1,3,1,0,240,231,1,239,,,,,,,,,,,,,,,,,,
,,1,55,,,,,,,2,6,3,stim/63.jpeg,HouseObjects,1,stim/objects/HouseObjects/saw2.png,0.7,4,0.2,-0.15,left,4,2020-11-27_17h04.38.041,premup-three_ses-01_part-01_label-phase1,3.2.4,Win32,60,left,0.575000048,4,0,4,0,1,3,1,0,240,134,1,239,,,,,,,,,,,,,,,,,,
,,1,56,,,,,,,3,2,1,stim/21.jpeg,HouseObjects,1,stim/objects/HouseObjects/thread2.png,0.9,4,0.2,-0.15,left,4,2020-11-27_17h04.38.041,premup-three_ses-01_part-01_label-phase1,3.2.4,Win32,60,left,0.576000214,4,0,4,0,1,3,1,0,240,224,1,239,,,,,,,,,,,,,,,,,,
,,1,57,,,,,,,3,2,2,stim/22.jpeg,HouseObjects,1,stim/objects/HouseObjects/towel2.png,0.9,1,-0.2,0.15,left,4,2020-11-27_17h04.38.041,premup-three_ses-01_part-01_label-phase1,3.2.4,Win32,60,left,0.548000097,4,0,4,0,1,3,1,0,240,225,1,239,,,,,,,,,,,,,,,,,,
,,1,58,,,,,,,3,1,2,stim/12.jpeg,Instruments,2,stim/objects/Instruments/triangle2.png,0.9,3,-0.2,-0.15,right,4,2020-11-27_17h04.38.041,premup-three_ses-01_part-01_label-phase1,3.2.4,Win32,60,right,0.738999844,4,0,4,0,1,3,1,0,240,189,1,239,,,,,,,,,,,,,,,,,,
,,0,59,,,,,,,2,5,3,stim/53.jpeg,HouseObjects,1,stim/objects/HouseObjects/vacuumcleaner.png,0.3,4,0.2,-0.15,left,4,2020-11-27_17h04.38.041,premup-three_ses-01_part-01_label-phase1,3.2.4,Win32,60,right,0.569000006,4,0,4,0,1,3,1,0,240,86,1,239,,,,,,,,,,,,,,,,,,
,,1,60,,,,,,,1,3,4,stim/34.jpeg,Instruments,2,stim/objects/Instruments/tambourine.png,0.5,1,-0.2,0.15,right,4,2020-11-27_17h04.38.041,premup-three_ses-01_part-01_label-phase1,3.2.4,Win32,60,right,0.822000027,4,0,4,0,1,3,1,0,240,27,1,239,,,,,,,,,,,,,,,,,,
,,0,61,,,,,,,3,2,2,stim/22.jpeg,Instruments,2,stim/objects/Instruments/violin2.png,0.1,4,0.2,-0.15,right,4,2020-11-27_17h04.38.041,premup-three_ses-01_part-01_label-phase1,3.2.4,Win32,60,left,0.529999971,4,0,4,0,1,3,1,0,240,237,1,239,,,,,,,,,,,,,,,,,,
,,1,62,,,,,,,2,6,3,stim/63.jpeg,HouseObjects,1,stim/objects/HouseObjects/saw2.png,0.7,4,0.2,-0.15,left,4,2020-11-27_17h04.38.041,premup-three_ses-01_part-01_label-phase1,3.2.4,Win32,60,left,0.735999823,4,0,4,0,1,3,1,0,240,146,1,239,,,,,,,,,,,,,,,,,,
,,0,63,,,,,,,2,6,2,stim/62.jpeg,Instruments,2,stim/objects/Instruments/saxophone2.png,0.3,3,-0.2,-0.15,right,4,2020-11-27_17h04.38.041,premup-three_ses-01_part-01_label-phase1,3.2.4,Win32,60,left,0.634000063,4,0,4,0,1,3,1,0,240,157,1,239,,,,,,,,,,,,,,,,,,
,,0,64,,,,,,,1,3,2,stim/32.jpeg,HouseObjects,1,stim/objects/HouseObjects/safetypin.png,0.5,1,-0.2,0.15,left,4,2020-11-27_17h04.38.041,premup-three_ses-01_part-01_label-phase1,3.2.4,Win32,60,right,0.692000151,4,0,4,0,1,3,1,0,240,1,1,239,,,,,,,,,,,,,,,,,,
,,1,65,,,,,,,3,1,4,stim/14.jpeg,Instruments,2,stim/objects/Instruments/trumpet2.png,0.9,3,-0.2,-0.15,right,4,2020-11-27_17h04.38.041,premup-three_ses-01_part-01_label-phase1,3.2.4,Win32,60,right,0.69900012,4,0,4,0,1,3,1,0,240,195,1,239,,,,,,,,,,,,,,,,,,
,,0,66,,,,,,,1,3,2,stim/32.jpeg,Instruments,2,stim/objects/Instruments/saxophone.png,0.5,1,-0.2,0.15,right,4,2020-11-27_17h04.38.041,premup-three_ses-01_part-01_label-phase1,3.2.4,Win32,60,left,0.625999928,4,0,4,0,1,3,1,0,240,21,1,239,,,,,,,,,,,,,,,,,,
,,1,67,,,,,,,3,1,3,stim/13.jpeg,Instruments,2,stim/objects/Instruments/trombone2.png,0.9,2,0.2,0.15,right,4,2020-11-27_17h04.38.041,premup-three_ses-01_part-01_label-phase1,3.2.4,Win32,60,right,0.615999937,4,0,4,0,1,3,1,0,240,170,1,239,,,,,,,,,,,,,,,,,,
,,1,68,,,,,,,3,1,4,stim/14.jpeg,Instruments,2,stim/objects/Instruments/trumpet2.png,0.9,2,0.2,0.15,right,4,2020-11-27_17h04.38.041,premup-three_ses-01_part-01_label-phase1,3.2.4,Win32,60,right,0.618999958,4,0,4,0,1,3,1,0,240,171,1,239,,,,,,,,,,,,,,,,,,
,,1,69,,,,,,,3,1,2,stim/12.jpeg,Instruments,2,stim/objects/Instruments/triangle2.png,0.9,3,-0.2,-0.15,right,4,2020-11-27_17h04.38.041,premup-three_ses-01_part-01_label-phase1,3.2.4,Win32,60,right,0.524000168,4,0,4,0,1,3,1,0,240,181,1,239,,,,,,,,,,,,,,,,,,
,,0,70,,,,,,,1,3,3,stim/33.jpeg,Instruments,2,stim/objects/Instruments/speaker.png,0.5,2,0.2,0.15,right,4,2020-11-27_17h04.38.041,premup-three_ses-01_part-01_label-phase1,3.2.4,Win32,60,left,0.753000021,4,0,4,0,1,3,1,0,240,30,1,239,,,,,,,,,,,,,,,,,,
,,0,71,,,,,,,3,1,4,stim/14.jpeg,HouseObjects,1,stim/objects/HouseObjects/thermometer2.png,0.1,3,-0.2,-0.15,left,4,2020-11-27_17h04.38.041,premup-three_ses-01_part-01_label-phase1,3.2.4,Win32,60,right,0.559000015,4,0,4,0,1,3,1,0,240,163,1,239,,,,,,,,,,,,,,,,,,
,,1,72,,,,,,,2,5,4,stim/54.jpeg,Instruments,2,stim/objects/Instruments/xylophone.png,0.7,4,0.2,-0.15,right,4,2020-11-27_17h04.38.041,premup-three_ses-01_part-01_label-phase1,3.2.4,Win32,60,right,0.546000004,4,0,4,0,1,3,1,0,240,111,1,239,,,,,,,,,,,,,,,,,,
,,1,73,,,,,,,3,1,4,stim/14.jpeg,Instruments,2,stim/objects/Instruments/trumpet2.png,0.9,1,-0.2,0.15,right,4,2020-11-27_17h04.38.041,premup-three_ses-01_part-01_label-phase1,3.2.4,Win32,60,right,0.483999968,4,0,4,0,1,3,1,0,240,179,1,239,,,,,,,,,,,,,,,,,,
,,0,74,,,,,,,2,6,1,stim/61.jpeg,Instruments,2,stim/objects/Instruments/record_player2.png,0.3,1,-0.2,0.15,right,4,2020-11-27_17h04.38.041,premup-three_ses-01_part-01_label-phase1,3.2.4,Win32,60,left,0.550000191,4,0,4,0,1,3,1,0,240,152,1,239,,,,,,,,,,,,,,,,,,
,,1,75,,,,,,,2,5,1,stim/51.jpeg,Instruments,2,stim/objects/Instruments/tuba.png,0.7,1,-0.2,0.15,right,4,2020-11-27_17h04.38.041,premup-three_ses-01_part-01_label-phase1,3.2.4,Win32,60,right,0.481999874,4,0,4,0,1,3,1,0,240,92,1,239,,,,,,,,,,,,,,,,,,
,,1,76,,,,,,,2,6,4,stim/64.jpeg,HouseObjects,1,stim/objects/HouseObjects/scale2.png,0.7,4,0.2,-0.15,left,4,2020-11-27_17h04.38.041,premup-three_ses-01_part-01_label-phase1,3.2.4,Win32,60,left,0.526000023,4,0,4,0,1,3,1,0,240,143,1,239,,,,,,,,,,,,,,,,,,
,,1,77,,,,,,,3,2,3,stim/23.jpeg,HouseObjects,1,stim/objects/HouseObjects/vacuumcleaner2.png,0.9,3,-0.2,-0.15,left,4,2020-11-27_17h04.38.041,premup-three_ses-01_part-01_label-phase1,3.2.4,Win32,60,left,0.571000099,4,0,4,0,1,3,1,0,240,222,1,239,,,,,,,,,,,,,,,,,,
,,0,78,,,,,,,3,1,3,stim/13.jpeg,HouseObjects,1,stim/objects/HouseObjects/teapot2.png,0.1,1,-0.2,0.15,left,4,2020-11-27_17h04.38.041,premup-three_ses-01_part-01_label-phase1,3.2.4,Win32,60,right,0.549999952,4,0,4,0,1,3,1,0,240,162,1,239,,,,,,,,,,,,,,,,,,
,,1,79,,,,,,,1,4,3,stim/43.jpeg,Instruments,2,stim/objects/Instruments/trombone.png,0.5,3,-0.2,-0.15,right,4,2020-11-27_17h04.38.041,premup-three_ses-01_part-01_label-phase1,3.2.4,Win32,60,right,0.717000008,4,0,4,0,1,3,1,0,240,70,1,239,,,,,,,,,,,,,,,,,,
,,1,80,,,,,,,2,6,3,stim/63.jpeg,HouseObjects,1,stim/objects/HouseObjects/saw2.png,0.7,4,0.2,-0.15,left,4,2020-11-27_17h04.38.041,premup-three_ses-01_part-01_label-phase1,3.2.4,Win32,60,left,0.516000032,4,0,4,0,1,3,1,0,240,126,1,239,,,,,,,,,,,,,,,,,,
,,0,81,,,,,,,1,4,1,stim/41.jpeg,HouseObjects,1,stim/objects/HouseObjects/sponge.png,0.5,4,0.2,-0.15,left,4,2020-11-27_17h04.38.041,premup-three_ses-01_part-01_label-phase1,3.2.4,Win32,60,right,0.578999996,4,0,4,0,1,3,1,0,240,56,1,239,,,,,,,,,,,,,,,,,,
,,0,82,,,,,,,1,3,4,stim/34.jpeg,HouseObjects,1,stim/objects/HouseObjects/scale.png,0.5,3,-0.2,-0.15,left,4,2020-11-27_17h04.38.041,premup-three_ses-01_part-01_label-phase1,3.2.4,Win32,60,right,0.612000227,4,0,4,0,1,3,1,0,240,11,1,239,,,,,,,,,,,,,,,,,,
,,1,83,,,,,,,2,6,2,stim/62.jpeg,HouseObjects,1,stim/objects/HouseObjects/safetypin2.png,0.7,2,0.2,0.15,left,4,2020-11-27_17h04.38.041,premup-three_ses-01_part-01_label-phase1,3.2.4,Win32,60,left,0.76699996,4,0,4,0,1,3,1,0,240,129,1,239,,,,,,,,,,,,,,,,,,
,,1,84,,,,,,,3,2,4,stim/24.jpeg,HouseObjects,1,stim/objects/HouseObjects/wateringcan2.png,0.9,4,0.2,-0.15,left,4,2020-11-27_17h04.38.041,premup-three_ses-01_part-01_label-phase1,3.2.4,Win32,60,left,0.683999777,4,0,4,0,1,3,1,0,240,223,1,239,,,,,,,,,,,,,,,,,,
,,1,85,,,,,,,1,4,1,stim/41.jpeg,Instruments,2,stim/objects/Instruments/timbal.png,0.5,1,-0.2,0.15,right,4,2020-11-27_17h04.38.041,premup-three_ses-01_part-01_label-phase1,3.2.4,Win32,60,right,0.575999975,4,0,4,0,1,3,1,0,240,72,1,239,,,,,,,,,,,,,,,,,,
,,1,86,,,,,,,2,5,1,stim/51.jpeg,Instruments,2,stim/objects/Instruments/tuba.png,0.7,2,0.2,0.15,right,4,2020-11-27_17h04.38.041,premup-three_ses-01_part-01_label-phase1,3.2.4,Win32,60,right,0.602999926,4,0,4,0,1,3,1,0,240,116,1,239,,,,,,,,,,,,,,,,,,
,,1,87,,,,,,,1,4,1,stim/41.jpeg,Instruments,2,stim/objects/Instruments/timbal.png,0.5,2,0.2,0.15,right,4,2020-11-27_17h04.38.041,premup-three_ses-01_part-01_label-phase1,3.2.4,Win32,60,right,0.448999882,4,0,4,0,1,3,1,0,240,76,1,239,,,,,,,,,,,,,,,,,,
,,1,88,,,,,,,2,5,2,stim/52.jpeg,Instruments,2,stim/objects/Instruments/violin.png,0.7,2,0.2,0.15,right,4,2020-11-27_17h04.38.041,premup-three_ses-01_part-01_label-phase1,3.2.4,Win32,60,right,0.499000072,4,0,4,0,1,3,1,0,240,113,1,239,,,,,,,,,,,,,,,,,,
,,0,89,,,,,,,1,4,2,stim/42.jpeg,HouseObjects,1,stim/objects/HouseObjects/spraybottle.png,0.5,4,0.2,-0.15,left,4,2020-11-27_17h04.38.041,premup-three_ses-01_part-01_label-phase1,3.2.4,Win32,60,right,0.592999935,4,0,4,0,1,3,1,0,240,53,1,239,,,,,,,,,,,,,,,,,,
,,1,90,,,,,,,3,1,1,stim/11.jpeg,Instruments,2,stim/objects/Instruments/timbal2.png,0.9,1,-0.2,0.15,right,4,2020-11-27_17h04.38.041,premup-three_ses-01_part-01_label-phase1,3.2.4,Win32,60,right,1.239000082,4,0,4,0,1,3,1,0,240,188,1,239,,,,,,,,,,,,,,,,,,
,,1,91,,,,,,,1,3,1,stim/31.jpeg,HouseObjects,1,stim/objects/HouseObjects/rug.png,0.5,2,0.2,0.15,left,4,2020-11-27_17h04.38.041,premup-three_ses-01_part-01_label-phase1,3.2.4,Win32,60,left,0.638999939,4,0,4,0,1,3,1,0,240,8,1,239,,,,,,,,,,,,,,,,,,
,,0,92,,,,,,,1,4,3,stim/43.jpeg,HouseObjects,1,stim/objects/HouseObjects/teapot.png,0.5,2,0.2,0.15,left,4,2020-11-27_17h04.38.041,premup-three_ses-01_part-01_label-phase1,3.2.4,Win32,60,right,0.565000057,4,0,4,0,1,3,1,0,240,46,1,239,,,,,,,,,,,,,,,,,,
,,1,93,,,,,,,1,4,1,stim/41.jpeg,HouseObjects,1,stim/objects/HouseObjects/sponge.png,0.5,3,-0.2,-0.15,left,4,2020-11-27_17h04.38.041,premup-three_ses-01_part-01_label-phase1,3.2.4,Win32,60,left,0.59100008,4,0,4,0,1,3,1,0,240,52,1,239,,,,,,,,,,,,,,,,,,
,,1,94,,,,,,,2,5,1,stim/51.jpeg,Instruments,2,stim/objects/Instruments/tuba.png,0.7,2,0.2,0.15,right,4,2020-11-27_17h04.38.041,premup-three_ses-01_part-01_label-phase1,3.2.4,Win32,60,right,0.726000071,4,0,4,0,1,3,1,0,240,112,1,239,,,,,,,,,,,,,,,,,,
,,0,95,,,,,,,1,3,2,stim/32.jpeg,Instruments,2,stim/objects/Instruments/saxophone.png,0.5,1,-0.2,0.15,right,4,2020-11-27_17h04.38.041,premup-three_ses-01_part-01_label-phase1,3.2.4,Win32,60,left,0.585000038,4,0,4,0,1,3,1,0,240,37,1,239,,,,,,,,,,,,,,,,,,
,,0,96,,,,,,,3,2,1,stim/21.jpeg,Instruments,2,stim/objects/Instruments/tuba2.png,0.1,1,-0.2,0.15,right,4,2020-11-27_17h04.38.041,premup-three_ses-01_part-01_label-phase1,3.2.4,Win32,60,left,0.539000034,4,0,4,0,1,3,1,0,240,236,1,239,,,,,,,,,,,,,,,,,,
,,1,97,,,,,,,3,2,3,stim/23.jpeg,HouseObjects,1,stim/objects/HouseObjects/vacuumcleaner2.png,0.9,4,0.2,-0.15,left,4,2020-11-27_17h04.38.041,premup-three_ses-01_part-01_label-phase1,3.2.4,Win32,60,left,0.407999992,4,0,4,0,1,3,1,0,240,210,1,239,,,,,,,,,,,,,,,,,,
,,1,98,,,,,,,2,6,2,stim/62.jpeg,HouseObjects,1,stim/objects/HouseObjects/safetypin2.png,0.7,4,0.2,-0.15,left,4,2020-11-27_17h04.38.041,premup-three_ses-01_part-01_label-phase1,3.2.4,Win32,60,left,0.48300004,4,0,4,0,1,3,1,0,240,125,1,239,,,,,,,,,,,,,,,,,,
,,1,99,,,,,,,3,1,3,stim/13.jpeg,Instruments,2,stim/objects/Instruments/trombone2.png,0.9,3,-0.2,-0.15,right,4,2020-11-27_17h04.38.041,premup-three_ses-01_part-01_label-phase1,3.2.4,Win32,60,right,0.631999969,4,0,4,0,1,3,1,0,240,190,1,239,,,,,,,,,,,,,,,,,,
,,1,100,,,,,,,3,1,4,stim/14.jpeg,Instruments,2,stim/objects/Instruments/trumpet2.png,0.9,3,-0.2,-0.15,right,4,2020-11-27_17h04.38.041,premup-three_ses-01_part-01_label-phase1,3.2.4,Win32,60,right,0.577000141,4,0,4,0,1,3,1,0,240,183,1,239,,,,,,,,,,,,,,,,,,
,,1,101,,,,,,,2,5,2,stim/52.jpeg,Instruments,2,stim/objects/Instruments/violin.png,0.7,4,0.2,-0.15,right,4,2020-11-27_17h04.38.041,premup-three_ses-01_part-01_label-phase1,3.2.4,Win32,60,right,0.565999985,4,0,4,0,1,3,1,0,240,109,1,239,,,,,,,,,,,,,,,,,,
,,1,102,,,,,,,3,2,1,stim/21.jpeg,HouseObjects,1,stim/objects/HouseObjects/thread2.png,0.9,4,0.2,-0.15,left,4,2020-11-27_17h04.38.041,premup-three_ses-01_part-01_label-phase1,3.2.4,Win32,60,left,0.569000006,4,0,4,0,1,3,1,0,240,220,1,239,,,,,,,,,,,,,,,,,,
,,0,103,,,,,,,1,3,1,stim/31.jpeg,HouseObjects,1,stim/objects/HouseObjects/rug.png,0.5,3,-0.2,-0.15,left,4,2020-11-27_17h04.38.041,premup-three_ses-01_part-01_label-phase1,3.2.4,Win32,60,right,0.732000113,4,0,4,0,1,3,1,0,240,0,1,239,,,,,,,,,,,,,,,,,,
,,1,104,,,,,,,2,5,4,stim/54.jpeg,Instruments,2,stim/objects/Instruments/xylophone.png,0.7,1,-0.2,0.15,right,4,2020-11-27_17h04.38.041,premup-three_ses-01_part-01_label-phase1,3.2.4,Win32,60,right,0.555999994,4,0,4,0,1,3,1,0,240,95,1,239,,,,,,,,,,,,,,,,,,
,,1,105,,,,,,,1,3,4,stim/34.jpeg,Instruments,2,stim/objects/Instruments/tambourine.png,0.5,1,-0.2,0.15,right,4,2020-11-27_17h04.38.041,premup-three_ses-01_part-01_label-phase1,3.2.4,Win32,60,right,0.785000086,4,0,4,0,1,3,1,0,240,31,1,239,,,,,,,,,,,,,,,,,,
,,1,106,,,,,,,3,1,2,stim/12.jpeg,Instruments,2,stim/objects/Instruments/triangle2.png,0.9,3,-0.2,-0.15,right,4,2020-11-27_17h04.38.041,premup-three_ses-01_part-01_label-phase1,3.2.4,Win32,60,right,0.569000006,4,0,4,0,1,3,1,0,240,177,1,239,,,,,,,,,,,,,,,,,,
,,1,107,,,,,,,3,2,4,stim/24.jpeg,HouseObjects,1,stim/objects/HouseObjects/wateringcan2.png,0.9,1,-0.2,0.15,left,4,2020-11-27_17h04.38.041,premup-three_ses-01_part-01_label-phase1,3.2.4,Win32,60,left,0.523000002,4,0,4,0,1,3,1,0,240,207,1,239,,,,,,,,,,,,,,,,,,
,,0,108,,,,,,,1,4,4,stim/44.jpeg,HouseObjects,1,stim/objects/HouseObjects/thermometer.png,0.5,2,0.2,0.15,left,4,2020-11-27_17h04.38.041,premup-three_ses-01_part-01_label-phase1,3.2.4,Win32,60,right,0.632999897,4,0,4,0,1,3,1,0,240,59,1,239,,,,,,,,,,,,,,,,,,
,,0,109,,,,,,,1,3,3,stim/33.jpeg,HouseObjects,1,stim/objects/HouseObjects/saw.png,0.5,3,-0.2,-0.15,left,4,2020-11-27_17h04.38.041,premup-three_ses-01_part-01_label-phase1,3.2.4,Win32,60,right,0.755000114,4,0,4,0,1,3,1,0,240,2,1,239,,,,,,,,,,,,,,,,,,
,,0,110,,,,,,,1,3,2,stim/32.jpeg,HouseObjects,1,stim/objects/HouseObjects/safetypin.png,0.5,3,-0.2,-0.15,left,4,2020-11-27_17h04.38.041,premup-three_ses-01_part-01_label-phase1,3.2.4,Win32,60,right,0.855000019,4,0,4,0,1,3,1,0,240,9,1,239,,,,,,,,,,,,,,,,,,
,,1,111,,,,,,,2,5,3,stim/53.jpeg,Instruments,2,stim/objects/Instruments/vuvuzela.png,0.7,2,0.2,0.15,right,4,2020-11-27_17h04.38.041,premup-three_ses-01_part-01_label-phase1,3.2.4,Win32,60,right,0.625,4,0,4,0,1,3,1,0,240,94,1,239,,,,,,,,,,,,,,,,,,
,,1,112,,,,,,,3,2,1,stim/21.jpeg,HouseObjects,1,stim/objects/HouseObjects/thread2.png,0.9,4,0.2,-0.15,left,4,2020-11-27_17h04.38.041,premup-three_ses-01_part-01_label-phase1,3.2.4,Win32,60,left,0.506999969,4,0,4,0,1,3,1,0,240,232,1,239,,,,,,,,,,,,,,,,,,
,,1,113,,,,,,,3,2,1,stim/21.jpeg,HouseObjects,1,stim/objects/HouseObjects/thread2.png,0.9,2,0.2,0.15,left,4,2020-11-27_17h04.38.041,premup-three_ses-01_part-01_label-phase1,3.2.4,Win32,60,left,0.465000153,4,0,4,0,1,3,1,0,240,208,1,239,,,,,,,,,,,,,,,,,,
,,0,114,,,,,,,1,3,4,stim/34.jpeg,HouseObjects,1,stim/objects/HouseObjects/scale.png,0.5,3,-0.2,-0.15,left,4,2020-11-27_17h04.38.041,premup-three_ses-01_part-01_label-phase1,3.2.4,Win32,60,right,0.739000082,4,0,4,0,1,3,1,0,240,3,1,239,,,,,,,,,,,,,,,,,,
,,1,115,,,,,,,3,1,3,stim/13.jpeg,Instruments,2,stim/objects/Instruments/trombone2.png,0.9,2,0.2,0.15,right,4,2020-11-27_17h04.38.041,premup-three_ses-01_part-01_label-phase1,3.2.4,Win32,60,right,0.799000025,4,0,4,0,1,3,1,0,240,174,1,239,,,,,,,,,,,,,,,,,,
,,1,116,,,,,,,2,6,1,stim/61.jpeg,HouseObjects,1,stim/objects/HouseObjects/rug2.png,0.7,3,-0.2,-0.15,left,4,2020-11-27_17h04.38.041,premup-three_ses-01_part-01_label-phase1,3.2.4,Win32,60,left,0.652999878,4,0,4,0,1,3,1,0,240,120,1,239,,,,,,,,,,,,,,,,,,
,,0,117,,,,,,,1,4,1,stim/41.jpeg,HouseObjects,1,stim/objects/HouseObjects/sponge.png,0.5,2,0.2,0.15,left,4,2020-11-27_17h04.38.041,premup-three_ses-01_part-01_label-phase1,3.2.4,Win32,60,right,0.605000019,4,0,4,0,1,3,1,0,240,48,1,239,,,,,,,,,,,,,,,,,,
,,1,118,,,,,,,3,1,3,stim/13.jpeg,Instruments,2,stim/objects/Instruments/trombone2.png,0.9,4,0.2,-0.15,right,4,2020-11-27_17h04.38.041,premup-three_ses-01_part-01_label-phase1,3.2.4,Win32,60,right,0.95600009,4,0,4,0,1,3,1,0,240,194,1,239,,,,,,,,,,,,,,,,,,
,,1,119,,,,,,,1,4,2,stim/42.jpeg,HouseObjects,1,stim/objects/HouseObjects/spraybottle.png,0.5,4,0.2,-0.15,left,4,2020-11-27_17h04.38.041,premup-three_ses-01_part-01_label-phase1,3.2.4,Win32,60,left,0.582000017,4,0,4,0,1,3,1,0,240,45,1,239,,,,,,,,,,,,,,,,,,
,,0,120,,,,,,,2,5,4,stim/54.jpeg,HouseObjects,1,stim/objects/HouseObjects/wateringcan.png,0.3,2,0.2,0.15,left,4,2020-11-27_17h04.38.041,premup-three_ses-01_part-01_label-phase1,3.2.4,Win32,60,right,0.663000107,4,0,4,0,1,3,1,0,240,91,1,239,,,,,,,,,,,,,,,,,,
,,0,121,,,,,,,1,3,1,stim/31.jpeg,HouseObjects,1,stim/objects/HouseObjects/rug.png,0.5,3,-0.2,-0.15,left,4,2020-11-27_17h04.38.041,premup-three_ses-01_part-01_label-phase1,3.2.4,Win32,60,right,0.726000071,4,0,4,0,1,3,1,0,240,4,1,239,,,,,,,,,,,,,,,,,,
,,1,122,,,,,,,2,6,3,stim/63.jpeg,HouseObjects,1,stim/objects/HouseObjects/saw2.png,0.7,2,0.2,0.15,left,4,2020-11-27_17h04.38.041,premup-three_ses-01_part-01_label-phase1,3.2.4,Win32,60,left,0.756000042,4,0,4,0,1,3,1,0,240,130,1,239,,,,,,,,,,,,,,,,,,
,,1,123,,,,,,,1,3,3,stim/33.jpeg,Instruments,2,stim/objects/Instruments/speaker.png,0.5,3,-0.2,-0.15,right,4,2020-11-27_17h04.38.041,premup-three_ses-01_part-01_label-phase1,3.2.4,Win32,60,right,0.755000114,4,0,4,0,1,3,1,0,240,34,1,239,,,,,,,,,,,,,,,,,,
,,1,124,,,,,,,3,2,3,stim/23.jpeg,HouseObjects,1,stim/objects/HouseObjects/vacuumcleaner2.png,0.9,2,0.2,0.15,left,4,2020-11-27_17h04.38.041,premup-three_ses-01_part-01_label-phase1,3.2.4,Win32,60,left,0.535999775,4,0,4,0,1,3,1,0,240,230,1,239,,,,,,,,,,,,,,,,,,
,,1,125,,,,,,,2,5,4,stim/54.jpeg,Instruments,2,stim/objects/Instruments/xylophone.png,0.7,1,-0.2,0.15,right,4,2020-11-27_17h04.38.041,premup-three_ses-01_part-01_label-phase1,3.2.4,Win32,60,right,0.569999933,4,0,4,0,1,3,1,0,240,119,1,239,,,,,,,,,,,,,,,,,,
,,1,126,,,,,,,2,6,1,stim/61.jpeg,HouseObjects,1,stim/objects/HouseObjects/rug2.png,0.7,2,0.2,0.15,left,4,2020-11-27_17h04.38.041,premup-three_ses-01_part-01_label-phase1,3.2.4,Win32,60,left,0.502000093,4,0,4,0,1,3,1,0,240,136,1,239,,,,,,,,,,,,,,,,,,
,,0,127,,,,,,,1,3,2,stim/32.jpeg,HouseObjects,1,stim/objects/HouseObjects/safetypin.png,0.5,3,-0.2,-0.15,left,4,2020-11-27_17h04.38.041,premup-three_ses-01_part-01_label-phase1,3.2.4,Win32,60,right,0.476000071,4,0,4,0,1,3,1,0,240,5,1,239,,,,,,,,,,,,,,,,,,
,,1,128,,,,,,,2,5,2,stim/52.jpeg,Instruments,2,stim/objects/Instruments/violin.png,0.7,4,0.2,-0.15,right,4,2020-11-27_17h04.38.041,premup-three_ses-01_part-01_label-phase1,3.2.4,Win32,60,right,0.840000153,4,0,4,0,1,3,1,0,240,101,1,239,,,,,,,,,,,,,,,,,,
,,1,129,,,,,,,3,1,4,stim/14.jpeg,Instruments,2,stim/objects/Instruments/trumpet2.png,0.9,2,0.2,0.15,right,4,2020-11-27_17h04.38.041,premup-three_ses-01_part-01_label-phase1,3.2.4,Win32,60,right,0.654999971,4,0,4,0,1,3,1,0,240,175,1,239,,,,,,,,,,,,,,,,,,
,,1,130,,,,,,,2,6,1,stim/61.jpeg,HouseObjects,1,stim/objects/HouseObjects/rug2.png,0.7,2,0.2,0.15,left,4,2020-11-27_17h04.38.041,premup-three_ses-01_part-01_label-phase1,3.2.4,Win32,60,left,0.546999931,4,0,4,0,1,3,1,0,240,132,1,239,,,,,,,,,,,,,,,,,,
,,0,131,,,,,,,1,4,1,stim/41.jpeg,Instruments,2,stim/objects/Instruments/timbal.png,0.5,4,0.2,-0.15,right,4,2020-11-27_17h04.38.041,premup-three_ses-01_part-01_label-phase1,3.2.4,Win32,60,left,0.91899991,4,0,4,0,1,3,1,0,240,60,1,239,,,,,,,,,,,,,,,,,,
,,1,132,,,,,,,3,2,4,stim/24.jpeg,HouseObjects,1,stim/objects/HouseObjects/wateringcan2.png,0.9,2,0.2,0.15,left,4,2020-11-27_17h04.38.041,premup-three_ses-01_part-01_label-phase1,3.2.4,Win32,60,left,0.652000189,4,0,4,0,1,3,1,0,240,215,1,239,,,,,,,,,,,,,,,,,,
,,0,133,,,,,,,1,3,3,stim/33.jpeg,HouseObjects,1,stim/objects/HouseObjects/saw.png,0.5,1,-0.2,0.15,left,4,2020-11-27_17h04.38.041,premup-three_ses-01_part-01_label-phase1,3.2.4,Win32,60,right,0.656000137,4,0,4,0,1,3,1,0,240,10,1,239,,,,,,,,,,,,,,,,,,
,,0,134,,,,,,,3,2,3,stim/23.jpeg,Instruments,2,stim/objects/Instruments/vuvuzela2.png,0.1,2,0.2,0.15,right,4,2020-11-27_17h04.38.041,premup-three_ses-01_part-01_label-phase1,3.2.4,Win32,60,left,0.542999983,4,0,4,0,1,3,1,0,240,238,1,239,,,,,,,,,,,,,,,,,,
,,1,135,,,,,,,2,5,2,stim/52.jpeg,Instruments,2,stim/objects/Instruments/violin.png,0.7,3,-0.2,-0.15,right,4,2020-11-27_17h04.38.041,premup-three_ses-01_part-01_label-phase1,3.2.4,Win32,60,right,0.568000078,4,0,4,0,1,3,1,0,240,97,1,239,,,,,,,,,,,,,,,,,,
