id_acc,key_resp_id.keys,key_resp_id.rt,key_resp_conf.keys,key_resp_conf.rt,assoc_acc,key_resp_assoc.keys,key_resp_assoc.rt,loc_acc,key_resp_loc.keys,key_resp_loc.rt,task_innerloop.thisRepN,task_innerloop.thisTrialN,task_innerloop.thisN,task_innerloop.thisIndex,task_innerloop.ran,task_innerloop.order,context_type,object_cat,PE_level,OvsN,obj_file,scn_file,corr_scn_cat,assoc_file,corr_scn_inst,corr_loc,participant,date,expName,psychopyVersion,OS,frameRate
1,left,2.568000078,,,0,,,0,,,1,0,200,170,1,199,0,2,0,2,stim/objects/Instruments/trumpet3.png,,0,stim/0.png,0,0,50,2021-01-21_07h42.28.793,premup-three_ses-02_part-03_label-phase3,3.2.4,Win32,60
1,left,0.891000032,4,4.262000084,0,3,6.413000107,0,1,3.70600009,1,0,200,31,1,199,2,2,0.7,1,stim/objects/Instruments/tuba.png,stim/33.jpeg,3,stim/3.png,3,4,50,2021-01-21_07h42.28.793,premup-three_ses-02_part-03_label-phase3,3.2.4,Win32,60
1,right,4.381999969,2,2.690999985,0,2,4.403000116,0,1,3.424999952,1,0,200,69,1,199,3,1,0.1,1,stim/objects/HouseObjects/safetypin2.png,stim/52.jpeg,5,stim/5.png,2,4,50,2021-01-21_07h42.28.793,premup-three_ses-02_part-03_label-phase3,3.2.4,Win32,60
1,left,3.66899991,3,2.256999969,0,1,4.131999969,0,2,2.065999985,1,0,200,27,1,199,2,1,0.3,1,stim/objects/HouseObjects/dishsoap2.png,stim/34.jpeg,3,stim/3.png,4,1,50,2021-01-21_07h42.28.793,premup-three_ses-02_part-03_label-phase3,3.2.4,Win32,60
1,right,1.799999952,,,0,,,0,,,1,0,200,136,1,199,0,2,0,2,stim/objects/Instruments/metronome3.png,,0,stim/0.png,0,0,50,2021-01-21_07h42.28.793,premup-three_ses-02_part-03_label-phase3,3.2.4,Win32,60
1,left,1.909999847,4,1.424000025,0,1,6.933000088,0,4,4.940999985,1,0,200,32,1,199,2,2,0.7,1,stim/objects/Instruments/violin.png,stim/34.jpeg,3,stim/3.png,4,4,50,2021-01-21_07h42.28.793,premup-three_ses-02_part-03_label-phase3,3.2.4,Win32,60
1,right,2.195999861,2,3.328000069,0,2,2.65899992,0,3,4.160000086,1,0,200,28,1,199,2,1,0.3,1,stim/objects/HouseObjects/doormat2.png,stim/31.jpeg,3,stim/3.png,1,3,50,2021-01-21_07h42.28.793,premup-three_ses-02_part-03_label-phase3,3.2.4,Win32,60
1,left,1.496999979,4,1.368000031,0,4,5.40199995,0,1,5.864000082,1,0,200,49,1,199,2,1,0.7,1,stim/objects/HouseObjects/key2.png,stim/41.jpeg,4,stim/4.png,1,1,50,2021-01-21_07h42.28.793,premup-three_ses-02_part-03_label-phase3,3.2.4,Win32,60
1,right,3.720000029,,,0,,,0,,,1,0,200,191,1,199,0,2,0,2,stim/objects/Instruments/gong4.png,,0,stim/0.png,0,0,50,2021-01-21_07h42.28.793,premup-three_ses-02_part-03_label-phase3,3.2.4,Win32,60
1,right,1.986000061,2,3.457000017,0,3,3.417000055,0,2,3.811000109,1,0,200,39,1,199,2,2,0.7,1,stim/objects/Instruments/flutetrans2.png,stim/33.jpeg,3,stim/3.png,3,1,50,2021-01-21_07h42.28.793,premup-three_ses-02_part-03_label-phase3,3.2.4,Win32,60
1,right,1.180000067,,,0,,,0,,,1,0,200,177,1,199,0,2,0,2,stim/objects/Instruments/electricguitar4.png,,0,stim/0.png,0,0,50,2021-01-21_07h42.28.793,premup-three_ses-02_part-03_label-phase3,3.2.4,Win32,60
1,left,1.112999916,,,0,,,0,,,1,0,200,130,1,199,0,2,0,2,stim/objects/Instruments/harp3.png,,0,stim/0.png,0,0,50,2021-01-21_07h42.28.793,premup-three_ses-02_part-03_label-phase3,3.2.4,Win32,60
1,right,2.953999996,,,0,,,0,,,1,0,200,117,1,199,0,2,0,2,stim/objects/Instruments/grandpiano3.png,,0,stim/0.png,0,0,50,2021-01-21_07h42.28.793,premup-three_ses-02_part-03_label-phase3,3.2.4,Win32,60
1,right,1.161000013,,,0,,,0,,,1,0,200,127,1,199,0,1,0,2,stim/objects/HouseObjects/match3.png,,0,stim/0.png,0,0,50,2021-01-21_07h42.28.793,premup-three_ses-02_part-03_label-phase3,3.2.4,Win32,60
1,left,1.53399992,4,1.15500021,0,4,4.401000023,0,4,2.411999941,1,0,200,57,1,199,2,2,0.3,1,stim/objects/Instruments/keyboard2.png,stim/41.jpeg,4,stim/4.png,1,4,50,2021-01-21_07h42.28.793,premup-three_ses-02_part-03_label-phase3,3.2.4,Win32,60
1,left,1.24000001,,,0,,,0,,,1,0,200,105,1,199,0,1,0,2,stim/objects/HouseObjects/flyswatter3.png,,0,stim/0.png,0,0,50,2021-01-21_07h42.28.793,premup-three_ses-02_part-03_label-phase3,3.2.4,Win32,60
1,right,1.17200017,,,0,,,0,,,1,0,200,195,1,199,0,2,0,2,stim/objects/Instruments/harp4.png,,0,stim/0.png,0,0,50,2021-01-21_07h42.28.793,premup-three_ses-02_part-03_label-phase3,3.2.4,Win32,60
1,left,2.976999998,4,1.519000053,0,4,3.222000122,0,4,2.687000036,1,0,200,52,1,199,2,2,0.3,1,stim/objects/Instruments/grandpiano2.png,stim/44.jpeg,4,stim/4.png,4,4,50,2021-01-21_07h42.28.793,premup-three_ses-02_part-03_label-phase3,3.2.4,Win32,60
1,left,1.568000078,4,1.307999849,0,4,7.542000055,0,2,3.484000206,1,0,200,85,1,199,3,1,0.9,1,stim/objects/HouseObjects/thermometer2.png,stim/62.jpeg,6,stim/6.png,2,2,50,2021-01-21_07h42.28.793,premup-three_ses-02_part-03_label-phase3,3.2.4,Win32,60
1,right,1.018000126,,,0,,,0,,,1,0,200,174,1,199,0,2,0,2,stim/objects/Instruments/xylophone3.png,,0,stim/0.png,0,0,50,2021-01-21_07h42.28.793,premup-three_ses-02_part-03_label-phase3,3.2.4,Win32,60
1,right,0.926999807,,,0,,,0,,,1,0,200,168,1,199,0,1,0,2,stim/objects/HouseObjects/doormat4.png,,0,stim/0.png,0,0,50,2021-01-21_07h42.28.793,premup-three_ses-02_part-03_label-phase3,3.2.4,Win32,60
1,left,1.02699995,,,0,,,0,,,1,0,200,196,1,199,0,2,0,2,stim/objects/Instruments/hihat4.png,,0,stim/0.png,0,0,50,2021-01-21_07h42.28.793,premup-three_ses-02_part-03_label-phase3,3.2.4,Win32,60
1,right,1.458999872,,,0,,,0,,,1,0,200,167,1,199,0,1,0,2,stim/objects/HouseObjects/dishsoap4.png,,0,stim/0.png,0,0,50,2021-01-21_07h42.28.793,premup-three_ses-02_part-03_label-phase3,3.2.4,Win32,60
1,left,0.980999947,4,1.161000013,0,3,3.452000141,0,1,4.73300004,1,0,200,59,1,199,2,2,0.3,1,stim/objects/Instruments/maraca2.png,stim/43.jpeg,4,stim/4.png,3,2,50,2021-01-21_07h42.28.793,premup-three_ses-02_part-03_label-phase3,3.2.4,Win32,60
1,left,1.026000023,3,1.083999872,0,4,3.536999941,0,2,3.325000048,1,0,200,19,1,199,1,2,0.5,1,stim/objects/Instruments/trombone.png,stim/24.jpeg,2,stim/2.png,4,1,50,2021-01-21_07h42.28.793,premup-three_ses-02_part-03_label-phase3,3.2.4,Win32,60
1,right,0.937999964,2,3.529999971,0,1,2.227999926,0,3,3.02699995,1,0,200,22,1,199,2,1,0.3,1,stim/objects/HouseObjects/towel.png,stim/33.jpeg,3,stim/3.png,3,4,50,2021-01-21_07h42.28.793,premup-three_ses-02_part-03_label-phase3,3.2.4,Win32,60
1,left,1.18599987,3,1.630000114,0,3,4.275000095,0,1,1.991999865,1,0,200,29,1,199,2,1,0.3,1,stim/objects/HouseObjects/dustpan2.png,stim/32.jpeg,3,stim/3.png,2,3,50,2021-01-21_07h42.28.793,premup-three_ses-02_part-03_label-phase3,3.2.4,Win32,60
1,right,1.869999886,,,0,,,0,,,1,0,200,138,1,199,0,2,0,2,stim/objects/Instruments/musicstand3.png,,0,stim/0.png,0,0,50,2021-01-21_07h42.28.793,premup-three_ses-02_part-03_label-phase3,3.2.4,Win32,60
1,left,0.869999886,4,0.882999897,0,2,2.585999966,0,3,1.895999908,1,0,200,0,1,199,1,1,0.5,1,stim/objects/HouseObjects/recyclingbin.png,stim/13.jpeg,1,stim/1.png,3,4,50,2021-01-21_07h42.28.793,premup-three_ses-02_part-03_label-phase3,3.2.4,Win32,60
1,right,0.850999832,,,0,,,0,,,1,0,200,166,1,199,0,1,0,2,stim/objects/HouseObjects/cushion4.png,,0,stim/0.png,0,0,50,2021-01-21_07h42.28.793,premup-three_ses-02_part-03_label-phase3,3.2.4,Win32,60
1,right,1.056999922,3,4.062999964,0,2,2.391000032,0,3,1.527999878,1,0,200,96,1,199,3,2,0.1,1,stim/objects/Instruments/tuba2.png,stim/61.jpeg,6,stim/6.png,1,2,50,2021-01-21_07h42.28.793,premup-three_ses-02_part-03_label-phase3,3.2.4,Win32,60
1,left,1.613999844,4,2.062999964,0,4,3.032999992,0,2,1.82799983,1,0,200,3,1,199,1,1,0.5,1,stim/objects/HouseObjects/rug.png,stim/12.jpeg,1,stim/1.png,2,2,50,2021-01-21_07h42.28.793,premup-three_ses-02_part-03_label-phase3,3.2.4,Win32,60
1,right,0.889999866,,,0,,,0,,,1,0,200,187,1,199,0,1,0,2,stim/objects/HouseObjects/iron4.png,,0,stim/0.png,0,0,50,2021-01-21_07h42.28.793,premup-three_ses-02_part-03_label-phase3,3.2.4,Win32,60
1,right,0.777999878,3,2.177000046,0,2,1.907000065,0,4,4.198999882,1,0,200,65,1,199,3,1,0.1,1,stim/objects/HouseObjects/recyclingbin2.png,stim/52.jpeg,5,stim/5.png,2,3,50,2021-01-21_07h42.28.793,premup-three_ses-02_part-03_label-phase3,3.2.4,Win32,60
1,left,1.264000177,,,0,,,0,,,1,0,200,147,1,199,0,1,0,2,stim/objects/HouseObjects/sponge3.png,,0,stim/0.png,0,0,50,2021-01-21_07h42.28.793,premup-three_ses-02_part-03_label-phase3,3.2.4,Win32,60
1,right,0.755000114,2,3.923000097,0,2,2.184999943,0,2,1.996000051,1,0,200,63,1,199,3,1,0.1,1,stim/objects/HouseObjects/pan2.png,stim/54.jpeg,5,stim/5.png,4,3,50,2021-01-21_07h42.28.793,premup-three_ses-02_part-03_label-phase3,3.2.4,Win32,60
1,right,0.797999859,,,0,,,0,,,1,0,200,173,1,199,0,2,0,2,stim/objects/Instruments/vuvuzela3.png,,0,stim/0.png,0,0,50,2021-01-21_07h42.28.793,premup-three_ses-02_part-03_label-phase3,3.2.4,Win32,60
1,left,0.916000128,,,0,,,0,,,1,0,200,165,1,199,0,1,0,2,stim/objects/HouseObjects/coffee4.png,,0,stim/0.png,0,0,50,2021-01-21_07h42.28.793,premup-three_ses-02_part-03_label-phase3,3.2.4,Win32,60
1,left,1.160000086,4,0.993999958,0,1,3.308000088,0,3,3.888999939,1,0,200,11,1,199,1,2,0.5,1,stim/objects/HouseObjects/scale.png,stim/22.jpeg,2,stim/2.png,2,2,50,2021-01-21_07h42.28.793,premup-three_ses-02_part-03_label-phase3,3.2.4,Win32,60
1,left,1.079999924,,,0,,,0,,,1,0,200,119,1,199,0,2,0,2,stim/objects/Instruments/harmonica3.png,,0,stim/0.png,0,0,50,2021-01-21_07h42.28.793,premup-three_ses-02_part-03_label-phase3,3.2.4,Win32,60
1,right,1.452000141,,,0,,,0,,,1,0,200,116,1,199,0,2,0,2,stim/objects/Instruments/gong3.png,,0,stim/0.png,0,0,50,2021-01-21_07h42.28.793,premup-three_ses-02_part-03_label-phase3,3.2.4,Win32,60
1,right,2.472000122,,,0,,,0,,,1,0,200,171,1,199,0,2,0,2,stim/objects/Instruments/tuba3.png,,0,stim/0.png,0,0,50,2021-01-21_07h42.28.793,premup-three_ses-02_part-03_label-phase3,3.2.4,Win32,60
1,right,1.167000055,2,3.261999846,0,2,3.032000065,0,2,1.971999884,1,0,200,37,1,199,2,2,0.7,1,stim/objects/Instruments/electricguitar2.png,stim/31.jpeg,3,stim/3.png,1,1,50,2021-01-21_07h42.28.793,premup-three_ses-02_part-03_label-phase3,3.2.4,Win32,60
1,left,1.105000019,,,0,,,0,,,1,0,200,124,1,199,0,1,0,2,stim/objects/HouseObjects/key3.png,,0,stim/0.png,0,0,50,2021-01-21_07h42.28.793,premup-three_ses-02_part-03_label-phase3,3.2.4,Win32,60
1,right,0.971000195,2,1.523000002,0,3,2.729000092,0,4,6.036999941,1,0,200,76,1,199,3,2,0.9,1,stim/objects/Instruments/pipepiano2.png,stim/51.jpeg,5,stim/5.png,1,1,50,2021-01-21_07h42.28.793,premup-three_ses-02_part-03_label-phase3,3.2.4,Win32,60
1,left,1.226999998,4,1.242000103,0,4,4.970999956,0,3,3.154999971,1,0,200,42,1,199,2,1,0.7,1,stim/objects/HouseObjects/glass2.png,stim/42.jpeg,4,stim/4.png,2,2,50,2021-01-21_07h42.28.793,premup-three_ses-02_part-03_label-phase3,3.2.4,Win32,60
1,right,0.82400012,,,0,,,0,,,1,0,200,135,1,199,0,2,0,2,stim/objects/Instruments/marimba3.png,,0,stim/0.png,0,0,50,2021-01-21_07h42.28.793,premup-three_ses-02_part-03_label-phase3,3.2.4,Win32,60
1,left,0.81099987,,,0,,,0,,,1,0,200,169,1,199,0,1,0,2,stim/objects/HouseObjects/dustpan4.png,,0,stim/0.png,0,0,50,2021-01-21_07h42.28.793,premup-three_ses-02_part-03_label-phase3,3.2.4,Win32,60
1,left,0.856999874,,,0,,,0,,,1,0,200,194,1,199,0,2,0,2,stim/objects/Instruments/harmonica4.png,,0,stim/0.png,0,0,50,2021-01-21_07h42.28.793,premup-three_ses-02_part-03_label-phase3,3.2.4,Win32,60
1,right,0.816999912,,,0,,,0,,,1,0,200,182,1,199,0,1,0,2,stim/objects/HouseObjects/glass4.png,,0,stim/0.png,0,0,50,2021-01-21_07h42.28.793,premup-three_ses-02_part-03_label-phase3,3.2.4,Win32,60
1,left,1.03399992,,,0,,,0,,,1,0,200,186,1,199,0,1,0,2,stim/objects/HouseObjects/handvacuum4.png,,0,stim/0.png,0,0,50,2021-01-21_07h42.28.793,premup-three_ses-02_part-03_label-phase3,3.2.4,Win32,60
1,left,0.776000023,4,1.168000221,0,1,3.555999994,0,3,2.272000074,1,0,200,25,1,199,2,1,0.3,1,stim/objects/HouseObjects/coffee2.png,stim/32.jpeg,3,stim/3.png,2,2,50,2021-01-21_07h42.28.793,premup-three_ses-02_part-03_label-phase3,3.2.4,Win32,60
1,right,0.738000154,,,0,,,0,,,1,0,200,106,1,199,0,1,0,2,stim/objects/HouseObjects/garbagebin3.png,,0,stim/0.png,0,0,50,2021-01-21_07h42.28.793,premup-three_ses-02_part-03_label-phase3,3.2.4,Win32,60
1,right,0.705000162,4,1.300000191,0,4,3.774000168,0,2,4.269000053,1,0,200,84,1,199,3,1,0.9,1,stim/objects/HouseObjects/teapot2.png,stim/61.jpeg,6,stim/6.png,1,1,50,2021-01-21_07h42.28.793,premup-three_ses-02_part-03_label-phase3,3.2.4,Win32,60
1,left,1.13499999,,,0,,,0,,,1,0,200,176,1,199,0,2,0,2,stim/objects/Instruments/electricdrumset4.png,,0,stim/0.png,0,0,50,2021-01-21_07h42.28.793,premup-three_ses-02_part-03_label-phase3,3.2.4,Win32,60
1,right,0.690000057,,,0,,,0,,,1,0,200,150,1,199,0,2,0,2,stim/objects/Instruments/panflute3.png,,0,stim/0.png,0,0,50,2021-01-21_07h42.28.793,premup-three_ses-02_part-03_label-phase3,3.2.4,Win32,60
1,right,0.71600008,,,0,,,0,,,1,0,200,104,1,199,0,1,0,2,stim/objects/HouseObjects/dustpan3.png,,0,stim/0.png,0,0,50,2021-01-21_07h42.28.793,premup-three_ses-02_part-03_label-phase3,3.2.4,Win32,60
1,right,0.852999926,,,0,,,0,,,1,0,200,156,1,199,0,2,0,2,stim/objects/Instruments/tambourine3.png,,0,stim/0.png,0,0,50,2021-01-21_07h42.28.793,premup-three_ses-02_part-03_label-phase3,3.2.4,Win32,60
1,left,0.819000006,4,0.917000055,0,2,1.828000069,0,3,4.368000031,1,0,200,51,1,199,2,2,0.3,1,stim/objects/Instruments/gong2.png,stim/43.jpeg,4,stim/4.png,3,4,50,2021-01-21_07h42.28.793,premup-three_ses-02_part-03_label-phase3,3.2.4,Win32,60
1,right,0.699999809,,,0,,,0,,,1,0,200,109,1,199,0,1,0,2,stim/objects/HouseObjects/hairdryer3.png,,0,stim/0.png,0,0,50,2021-01-21_07h42.28.793,premup-three_ses-02_part-03_label-phase3,3.2.4,Win32,60
1,right,0.66899991,,,0,,,0,,,1,0,200,142,1,199,0,1,0,2,stim/objects/HouseObjects/rubbergloves3.png,,0,stim/0.png,0,0,50,2021-01-21_07h42.28.793,premup-three_ses-02_part-03_label-phase3,3.2.4,Win32,60
1,right,0.67599988,,,0,,,0,,,1,0,200,146,1,199,0,1,0,2,stim/objects/HouseObjects/scale3.png,,0,stim/0.png,0,0,50,2021-01-21_07h42.28.793,premup-three_ses-02_part-03_label-phase3,3.2.4,Win32,60
1,right,0.943000078,,,0,,,0,,,1,0,200,188,1,199,0,1,0,2,stim/objects/HouseObjects/ironingboard4.png,,0,stim/0.png,0,0,50,2021-01-21_07h42.28.793,premup-three_ses-02_part-03_label-phase3,3.2.4,Win32,60
1,right,0.673000097,3,2.812999964,0,1,3.609999895,0,2,2.299000025,1,0,200,99,1,199,3,2,0.1,1,stim/objects/Instruments/xylophone2.png,stim/64.jpeg,6,stim/6.png,4,4,50,2021-01-21_07h42.28.793,premup-three_ses-02_part-03_label-phase3,3.2.4,Win32,60
1,right,0.859999895,2,2.889999866,0,1,2.33100009,0,4,3.059999943,1,0,200,16,1,199,1,2,0.5,1,stim/objects/Instruments/tambourine.png,stim/21.jpeg,2,stim/2.png,1,2,50,2021-01-21_07h42.28.793,premup-three_ses-02_part-03_label-phase3,3.2.4,Win32,60
1,left,0.996999979,3,1.532999992,0,1,3.304000139,0,3,2.765000105,1,0,200,56,1,199,2,2,0.3,1,stim/objects/Instruments/hihat2.png,stim/44.jpeg,4,stim/4.png,4,2,50,2021-01-21_07h42.28.793,premup-three_ses-02_part-03_label-phase3,3.2.4,Win32,60
1,right,0.792999983,2,1.552999973,0,3,2.095000029,0,3,2.585000038,1,0,200,34,1,199,2,2,0.7,1,stim/objects/Instruments/xylophone.png,stim/32.jpeg,3,stim/3.png,2,2,50,2021-01-21_07h42.28.793,premup-three_ses-02_part-03_label-phase3,3.2.4,Win32,60
1,right,1.047999859,2,2.334000111,0,4,2.210000038,0,2,1.398999929,1,0,200,10,1,199,1,2,0.5,1,stim/objects/HouseObjects/saw.png,stim/21.jpeg,2,stim/2.png,1,1,50,2021-01-21_07h42.28.793,premup-three_ses-02_part-03_label-phase3,3.2.4,Win32,60
1,right,0.763000011,,,0,,,0,,,1,0,200,178,1,199,0,2,0,2,stim/objects/Instruments/flute4.png,,0,stim/0.png,0,0,50,2021-01-21_07h42.28.793,premup-three_ses-02_part-03_label-phase3,3.2.4,Win32,60
1,left,1.013000011,4,1.001999855,0,4,2.967999935,0,2,2.178999901,1,0,200,40,1,199,2,1,0.7,1,stim/objects/HouseObjects/flyswatter2.png,stim/44.jpeg,4,stim/4.png,4,1,50,2021-01-21_07h42.28.793,premup-three_ses-02_part-03_label-phase3,3.2.4,Win32,60
1,right,1.257000208,2,2.600999832,0,1,2.122999907,0,4,3.104000092,1,0,200,78,1,199,3,2,0.9,1,stim/objects/Instruments/record_player2.png,stim/53.jpeg,5,stim/5.png,3,2,50,2021-01-21_07h42.28.793,premup-three_ses-02_part-03_label-phase3,3.2.4,Win32,60
1,right,0.661000013,,,0,,,0,,,1,0,200,175,1,199,0,2,0,2,stim/objects/Instruments/drums4.png,,0,stim/0.png,0,0,50,2021-01-21_07h42.28.793,premup-three_ses-02_part-03_label-phase3,3.2.4,Win32,60
1,right,0.803999901,,,0,,,0,,,1,0,200,161,1,199,0,1,0,2,stim/objects/HouseObjects/thread3.png,,0,stim/0.png,0,0,50,2021-01-21_07h42.28.793,premup-three_ses-02_part-03_label-phase3,3.2.4,Win32,60
1,left,0.866999865,4,0.992000103,0,2,1.979000092,0,1,3.116999865,1,0,200,98,1,199,3,2,0.1,1,stim/objects/Instruments/vuvuzela2.png,stim/63.jpeg,6,stim/6.png,3,2,50,2021-01-21_07h42.28.793,premup-three_ses-02_part-03_label-phase3,3.2.4,Win32,60
1,right,0.858999968,1,2.345000029,0,2,2.343000174,0,3,1.992000103,1,0,200,94,1,199,3,2,0.1,1,stim/objects/Instruments/trombone2.png,stim/63.jpeg,6,stim/6.png,3,4,50,2021-01-21_07h42.28.793,premup-three_ses-02_part-03_label-phase3,3.2.4,Win32,60
1,right,0.622999907,,,0,,,0,,,1,0,200,184,1,199,0,1,0,2,stim/objects/HouseObjects/hairdryer4.png,,0,stim/0.png,0,0,50,2021-01-21_07h42.28.793,premup-three_ses-02_part-03_label-phase3,3.2.4,Win32,60
1,left,0.878999949,,,0,,,0,,,1,0,200,129,1,199,0,1,0,2,stim/objects/HouseObjects/pitcher3.png,,0,stim/0.png,0,0,50,2021-01-21_07h42.28.793,premup-three_ses-02_part-03_label-phase3,3.2.4,Win32,60
1,right,0.697000027,,,0,,,0,,,1,0,200,181,1,199,0,1,0,2,stim/objects/HouseObjects/garbagebin4.png,,0,stim/0.png,0,0,50,2021-01-21_07h42.28.793,premup-three_ses-02_part-03_label-phase3,3.2.4,Win32,60
1,left,0.789000034,4,1.483999968,0,4,1.819999933,0,2,1.446000099,1,0,200,97,1,199,3,2,0.1,1,stim/objects/Instruments/violin2.png,stim/62.jpeg,6,stim/6.png,2,4,50,2021-01-21_07h42.28.793,premup-three_ses-02_part-03_label-phase3,3.2.4,Win32,60
1,right,0.613000154,,,0,,,0,,,1,0,200,193,1,199,0,2,0,2,stim/objects/Instruments/guitarcase4.png,,0,stim/0.png,0,0,50,2021-01-21_07h42.28.793,premup-three_ses-02_part-03_label-phase3,3.2.4,Win32,60
1,right,0.719000101,,,0,,,0,,,1,0,200,197,1,199,0,2,0,2,stim/objects/Instruments/keyboard4.png,,0,stim/0.png,0,0,50,2021-01-21_07h42.28.793,premup-three_ses-02_part-03_label-phase3,3.2.4,Win32,60
1,right,0.679000139,,,0,,,0,,,1,0,200,133,1,199,0,2,0,2,stim/objects/Instruments/laud3.png,,0,stim/0.png,0,0,50,2021-01-21_07h42.28.793,premup-three_ses-02_part-03_label-phase3,3.2.4,Win32,60
1,right,0.740999937,3,4.124000072,0,3,2.30099988,0,1,3.842000008,1,0,200,41,1,199,2,1,0.7,1,stim/objects/HouseObjects/garbagebin2.png,stim/41.jpeg,4,stim/4.png,1,1,50,2021-01-21_07h42.28.793,premup-three_ses-02_part-03_label-phase3,3.2.4,Win32,60
1,right,0.648000002,2,2.101000071,0,4,3.237999916,0,3,2.434999943,1,0,200,81,1,199,3,1,0.9,1,stim/objects/HouseObjects/scale2.png,stim/62.jpeg,6,stim/6.png,2,3,50,2021-01-21_07h42.28.793,premup-three_ses-02_part-03_label-phase3,3.2.4,Win32,60
1,left,0.960999966,3,2.298999786,0,4,3.657999992,0,4,2.967999935,1,0,200,9,1,199,1,1,0.5,1,stim/objects/Instruments/saxophone.png,stim/12.jpeg,1,stim/1.png,2,3,50,2021-01-21_07h42.28.793,premup-three_ses-02_part-03_label-phase3,3.2.4,Win32,60
1,right,0.666000128,2,2.424000025,0,3,2.582999945,0,3,1.951999903,1,0,200,46,1,199,2,1,0.7,1,stim/objects/HouseObjects/handvacuum2.png,stim/42.jpeg,4,stim/4.png,2,4,50,2021-01-21_07h42.28.793,premup-three_ses-02_part-03_label-phase3,3.2.4,Win32,60
1,left,0.89199996,4,1.292000055,0,1,2.052000046,0,4,2.967999935,1,0,200,95,1,199,3,2,0.1,1,stim/objects/Instruments/trumpet2.png,stim/64.jpeg,6,stim/6.png,4,4,50,2021-01-21_07h42.28.793,premup-three_ses-02_part-03_label-phase3,3.2.4,Win32,60
1,right,0.625,3,3,0,1,3.957000017,0,4,3.686000109,1,0,200,53,1,199,2,2,0.3,1,stim/objects/Instruments/guitarcase2.png,stim/41.jpeg,4,stim/4.png,1,4,50,2021-01-21_07h42.28.793,premup-three_ses-02_part-03_label-phase3,3.2.4,Win32,60
1,left,0.967000008,,,0,,,0,,,1,0,200,137,1,199,0,2,0,2,stim/objects/Instruments/musicsheet3.png,,0,stim/0.png,0,0,50,2021-01-21_07h42.28.793,premup-three_ses-02_part-03_label-phase3,3.2.4,Win32,60
1,right,0.976999998,,,0,,,0,,,1,0,200,154,1,199,0,2,0,2,stim/objects/Instruments/saxophone3.png,,0,stim/0.png,0,0,50,2021-01-21_07h42.28.793,premup-three_ses-02_part-03_label-phase3,3.2.4,Win32,60
1,right,0.945000172,,,0,,,0,,,1,0,200,118,1,199,0,2,0,2,stim/objects/Instruments/guitarcase3.png,,0,stim/0.png,0,0,50,2021-01-21_07h42.28.793,premup-three_ses-02_part-03_label-phase3,3.2.4,Win32,60
1,left,0.796000004,4,1.369000196,0,2,2.438999891,0,2,3.686000109,1,0,200,12,1,199,1,2,0.5,1,stim/objects/HouseObjects/sponge.png,stim/23.jpeg,2,stim/2.png,3,3,50,2021-01-21_07h42.28.793,premup-three_ses-02_part-03_label-phase3,3.2.4,Win32,60
1,right,0.750999928,,,0,,,0,,,1,0,200,148,1,199,0,1,0,2,stim/objects/HouseObjects/spraybottle3.png,,0,stim/0.png,0,0,50,2021-01-21_07h42.28.793,premup-three_ses-02_part-03_label-phase3,3.2.4,Win32,60
1,left,1.361999989,3,1.015000105,0,1,2.657999992,0,3,2.802000046,1,0,200,92,1,199,3,2,0.1,1,stim/objects/Instruments/timbal2.png,stim/61.jpeg,6,stim/6.png,1,2,50,2021-01-21_07h42.28.793,premup-three_ses-02_part-03_label-phase3,3.2.4,Win32,60
1,right,1.013999939,2,1.664999962,0,2,0.94299984,0,4,2.54700017,1,0,200,61,1,199,3,1,0.1,1,stim/objects/HouseObjects/lintroller2.png,stim/52.jpeg,5,stim/5.png,2,3,50,2021-01-21_07h42.28.793,premup-three_ses-02_part-03_label-phase3,3.2.4,Win32,60
1,right,0.753000021,2,2.122999907,0,2,1.249000072,0,1,1.917000055,1,0,200,24,1,199,2,1,0.3,1,stim/objects/HouseObjects/wateringcan.png,stim/31.jpeg,3,stim/3.png,1,1,50,2021-01-21_07h42.28.793,premup-three_ses-02_part-03_label-phase3,3.2.4,Win32,60
1,right,0.811000109,,,0,,,0,,,1,0,200,140,1,199,0,1,0,2,stim/objects/HouseObjects/recyclingbin3.png,,0,stim/0.png,0,0,50,2021-01-21_07h42.28.793,premup-three_ses-02_part-03_label-phase3,3.2.4,Win32,60
1,right,0.842000008,,,0,,,0,,,1,0,200,151,1,199,0,2,0,2,stim/objects/Instruments/pipepiano3.png,,0,stim/0.png,0,0,50,2021-01-21_07h42.28.793,premup-three_ses-02_part-03_label-phase3,3.2.4,Win32,60
1,right,1.105999947,,,0,,,0,,,1,0,200,100,1,199,0,1,0,2,stim/objects/HouseObjects/coffee3.png,,0,stim/0.png,0,0,50,2021-01-21_07h42.28.793,premup-three_ses-02_part-03_label-phase3,3.2.4,Win32,60
1,left,0.872999907,4,1.053999901,0,3,1.786000013,0,2,2.191999912,1,0,200,54,1,199,2,2,0.3,1,stim/objects/Instruments/harmonica2.png,stim/42.jpeg,4,stim/4.png,2,2,50,2021-01-21_07h42.28.793,premup-three_ses-02_part-03_label-phase3,3.2.4,Win32,60
1,left,1.968000174,,,0,,,0,,,1,0,200,139,1,199,0,2,0,2,stim/objects/Instruments/oboe3.png,,0,stim/0.png,0,0,50,2021-01-21_07h42.28.793,premup-three_ses-02_part-03_label-phase3,3.2.4,Win32,60
1,left,1.481999874,,,0,,,0,,,1,0,200,190,1,199,0,2,0,2,stim/objects/Instruments/frenchhorn4.png,,0,stim/0.png,0,0,50,2021-01-21_07h42.28.793,premup-three_ses-02_part-03_label-phase3,3.2.4,Win32,60
1,left,1.029000044,4,1.085000038,0,3,1.602999926,0,4,2.621999979,1,0,200,20,1,199,2,1,0.3,1,stim/objects/HouseObjects/thermometer.png,stim/31.jpeg,3,stim/3.png,1,1,50,2021-01-21_07h42.28.793,premup-three_ses-02_part-03_label-phase3,3.2.4,Win32,60
1,left,0.96600008,,,0,,,0,,,1,0,200,159,1,199,0,2,0,2,stim/objects/Instruments/trombone3.png,,0,stim/0.png,0,0,50,2021-01-21_07h42.28.793,premup-three_ses-02_part-03_label-phase3,3.2.4,Win32,60
1,left,0.826999903,4,0.917000055,0,1,2.445999861,0,4,2.135999918,1,0,200,48,1,199,2,1,0.7,1,stim/objects/HouseObjects/ironingboard2.png,stim/44.jpeg,4,stim/4.png,4,1,50,2021-01-21_07h42.28.793,premup-three_ses-02_part-03_label-phase3,3.2.4,Win32,60
1,left,1.274999857,4,0.99000001,0,3,2.641000032,0,1,2.496000051,1,0,200,38,1,199,2,2,0.7,1,stim/objects/Instruments/flute2.png,stim/32.jpeg,3,stim/3.png,2,2,50,2021-01-21_07h42.28.793,premup-three_ses-02_part-03_label-phase3,3.2.4,Win32,60
1,left,1.166000128,3,1.25999999,0,2,1.57400012,0,1,1.950999975,1,0,200,33,1,199,2,2,0.7,1,stim/objects/Instruments/vuvuzela.png,stim/31.jpeg,3,stim/3.png,1,3,50,2021-01-21_07h42.28.793,premup-three_ses-02_part-03_label-phase3,3.2.4,Win32,60
1,right,0.868000031,2,1.786000013,0,2,1.267999887,0,1,2.015000105,1,0,200,55,1,199,2,2,0.3,1,stim/objects/Instruments/harp2.png,stim/43.jpeg,4,stim/4.png,3,4,50,2021-01-21_07h42.28.793,premup-three_ses-02_part-03_label-phase3,3.2.4,Win32,60
1,left,2.021999836,3,1.518000126,0,3,2.635999918,0,4,2.427000046,1,0,200,62,1,199,3,1,0.1,1,stim/objects/HouseObjects/match2.png,stim/53.jpeg,5,stim/5.png,3,3,50,2021-01-21_07h42.28.793,premup-three_ses-02_part-03_label-phase3,3.2.4,Win32,60
1,right,1.146999836,,,0,,,0,,,1,0,200,153,1,199,0,2,0,2,stim/objects/Instruments/record_player3.png,,0,stim/0.png,0,0,50,2021-01-21_07h42.28.793,premup-three_ses-02_part-03_label-phase3,3.2.4,Win32,60
1,left,0.785000086,,,0,,,0,,,1,0,200,172,1,199,0,2,0,2,stim/objects/Instruments/violin3.png,,0,stim/0.png,0,0,50,2021-01-21_07h42.28.793,premup-three_ses-02_part-03_label-phase3,3.2.4,Win32,60
1,left,0.815999985,,,0,,,0,,,1,0,200,115,1,199,0,2,0,2,stim/objects/Instruments/frenchhorn3.png,,0,stim/0.png,0,0,50,2021-01-21_07h42.28.793,premup-three_ses-02_part-03_label-phase3,3.2.4,Win32,60
1,right,0.677000046,,,0,,,0,,,1,0,200,122,1,199,0,1,0,2,stim/objects/HouseObjects/iron3.png,,0,stim/0.png,0,0,50,2021-01-21_07h42.28.793,premup-three_ses-02_part-03_label-phase3,3.2.4,Win32,60
1,right,1.428999901,2,1.788000107,0,3,2.257999897,0,1,2.309000015,1,0,200,80,1,199,3,1,0.9,1,stim/objects/HouseObjects/saw2.png,stim/61.jpeg,6,stim/6.png,1,1,50,2021-01-21_07h42.28.793,premup-three_ses-02_part-03_label-phase3,3.2.4,Win32,60
1,left,1.937999964,4,1.213999987,0,2,1.253000021,0,3,2.058000088,1,0,200,8,1,199,1,1,0.5,1,stim/objects/Instruments/record_player.png,stim/11.jpeg,1,stim/1.png,1,3,50,2021-01-21_07h42.28.793,premup-three_ses-02_part-03_label-phase3,3.2.4,Win32,60
1,right,0.792999983,2,1.885000229,0,4,3.601999998,0,3,2.308000088,1,0,200,67,1,199,3,1,0.1,1,stim/objects/HouseObjects/rubbergloves2.png,stim/54.jpeg,5,stim/5.png,4,1,50,2021-01-21_07h42.28.793,premup-three_ses-02_part-03_label-phase3,3.2.4,Win32,60
1,left,1.140999794,4,1.901000023,0,4,0.983999968,0,2,1.344000101,1,0,200,93,1,199,3,2,0.1,1,stim/objects/Instruments/triangle2.png,stim/62.jpeg,6,stim/6.png,2,2,50,2021-01-21_07h42.28.793,premup-three_ses-02_part-03_label-phase3,3.2.4,Win32,60
1,left,0.861999989,4,1.371999979,0,1,3.100999832,0,2,1.321000099,1,0,200,82,1,199,3,1,0.9,1,stim/objects/HouseObjects/sponge2.png,stim/63.jpeg,6,stim/6.png,3,4,50,2021-01-21_07h42.28.793,premup-three_ses-02_part-03_label-phase3,3.2.4,Win32,60
1,left,0.787999868,4,0.90199995,0,3,2.055000067,0,2,1.244000196,1,0,200,72,1,199,3,2,0.9,1,stim/objects/Instruments/musicsheet2.png,stim/51.jpeg,5,stim/5.png,1,3,50,2021-01-21_07h42.28.793,premup-three_ses-02_part-03_label-phase3,3.2.4,Win32,60
1,right,1.220000029,,,0,,,0,,,1,0,200,126,1,199,0,1,0,2,stim/objects/HouseObjects/lintroller3.png,,0,stim/0.png,0,0,50,2021-01-21_07h42.28.793,premup-three_ses-02_part-03_label-phase3,3.2.4,Win32,60
1,left,0.718999863,4,0.950000048,0,2,1.144000053,0,3,1.818000078,1,0,200,30,1,199,2,2,0.7,1,stim/objects/Instruments/trumpet.png,stim/32.jpeg,3,stim/3.png,2,2,50,2021-01-21_07h42.28.793,premup-three_ses-02_part-03_label-phase3,3.2.4,Win32,60
1,left,0.934999943,,,0,,,0,,,1,0,200,128,1,199,0,1,0,2,stim/objects/HouseObjects/pan3.png,,0,stim/0.png,0,0,50,2021-01-21_07h42.28.793,premup-three_ses-02_part-03_label-phase3,3.2.4,Win32,60
1,left,0.798000097,4,0.834000111,0,4,1.586000204,0,2,1.222000122,1,0,200,18,1,199,1,2,0.5,1,stim/objects/Instruments/triangle.png,stim/23.jpeg,2,stim/2.png,3,2,50,2021-01-21_07h42.28.793,premup-three_ses-02_part-03_label-phase3,3.2.4,Win32,60
1,right,0.84800005,2,1.713000059,0,2,0.803999901,0,3,1.477999926,1,0,200,47,1,199,2,1,0.7,1,stim/objects/HouseObjects/iron2.png,stim/43.jpeg,4,stim/4.png,3,2,50,2021-01-21_07h42.28.793,premup-three_ses-02_part-03_label-phase3,3.2.4,Win32,60
1,right,1.596999884,2,1.556999922,0,2,0.950999975,0,1,2.096999884,1,0,200,4,1,199,1,1,0.5,1,stim/objects/HouseObjects/safetypin.png,stim/13.jpeg,1,stim/1.png,3,1,50,2021-01-21_07h42.28.793,premup-three_ses-02_part-03_label-phase3,3.2.4,Win32,60
1,left,0.917999983,,,0,,,0,,,1,0,200,189,1,199,0,1,0,2,stim/objects/HouseObjects/key4.png,,0,stim/0.png,0,0,50,2021-01-21_07h42.28.793,premup-three_ses-02_part-03_label-phase3,3.2.4,Win32,60
1,left,1.085000038,4,0.884000063,0,2,2.720000029,0,2,2.708999872,1,0,200,75,1,199,3,2,0.9,1,stim/objects/Instruments/panflute2.png,stim/54.jpeg,5,stim/5.png,4,3,50,2021-01-21_07h42.28.793,premup-three_ses-02_part-03_label-phase3,3.2.4,Win32,60
1,right,0.875,4,1.805000067,0,2,3.190000057,0,1,1.323999882,1,0,200,86,1,199,3,1,0.9,1,stim/objects/HouseObjects/thread2.png,stim/63.jpeg,6,stim/6.png,3,3,50,2021-01-21_07h42.28.793,premup-three_ses-02_part-03_label-phase3,3.2.4,Win32,60
1,right,1.345000029,,,0,,,0,,,1,0,200,144,1,199,0,1,0,2,stim/objects/HouseObjects/safetypin3.png,,0,stim/0.png,0,0,50,2021-01-21_07h42.28.793,premup-three_ses-02_part-03_label-phase3,3.2.4,Win32,60
1,left,1.31400013,4,1.03399992,0,4,3.741999865,0,3,2.349000216,1,0,200,88,1,199,3,1,0.9,1,stim/objects/HouseObjects/vacuumcleaner2.png,stim/61.jpeg,6,stim/6.png,1,1,50,2021-01-21_07h42.28.793,premup-three_ses-02_part-03_label-phase3,3.2.4,Win32,60
1,right,0.650999784,3,2.280999899,0,2,2.13499999,0,1,1.795000076,1,0,200,15,1,199,1,2,0.5,1,stim/objects/Instruments/speaker.png,stim/24.jpeg,2,stim/2.png,4,1,50,2021-01-21_07h42.28.793,premup-three_ses-02_part-03_label-phase3,3.2.4,Win32,60
1,right,0.731999874,4,1.546999931,0,1,1.910000086,0,1,1.618000031,1,0,200,64,1,199,3,1,0.1,1,stim/objects/HouseObjects/pitcher2.png,stim/51.jpeg,5,stim/5.png,1,1,50,2021-01-21_07h42.28.793,premup-three_ses-02_part-03_label-phase3,3.2.4,Win32,60
1,right,0.713000059,2,1.974999905,0,2,0.865999937,0,3,1.726999998,1,0,200,2,1,199,1,1,0.5,1,stim/objects/HouseObjects/rubbergloves.png,stim/11.jpeg,1,stim/1.png,1,4,50,2021-01-21_07h42.28.793,premup-three_ses-02_part-03_label-phase3,3.2.4,Win32,60
1,right,0.70600009,2,4.682999849,0,2,0.902999878,0,3,1.421000004,1,0,200,66,1,199,3,1,0.1,1,stim/objects/HouseObjects/remote2.png,stim/53.jpeg,5,stim/5.png,3,1,50,2021-01-21_07h42.28.793,premup-three_ses-02_part-03_label-phase3,3.2.4,Win32,60
1,right,0.765000105,,,0,,,0,,,1,0,200,110,1,199,0,2,0,2,stim/objects/Instruments/drums3.png,,0,stim/0.png,0,0,50,2021-01-21_07h42.28.793,premup-three_ses-02_part-03_label-phase3,3.2.4,Win32,60
1,left,0.866999865,4,0.808000088,0,2,2.861999989,0,2,1.948999882,1,0,200,58,1,199,2,2,0.3,1,stim/objects/Instruments/laud2.png,stim/42.jpeg,4,stim/4.png,2,3,50,2021-01-21_07h42.28.793,premup-three_ses-02_part-03_label-phase3,3.2.4,Win32,60
1,right,0.934000015,,,0,,,0,,,1,0,200,145,1,199,0,1,0,2,stim/objects/HouseObjects/saw3.png,,0,stim/0.png,0,0,50,2021-01-21_07h42.28.793,premup-three_ses-02_part-03_label-phase3,3.2.4,Win32,60
1,left,0.979000092,3,0.90899992,0,2,1.686000109,0,4,1.680999994,1,0,200,90,1,199,3,2,0.1,1,stim/objects/Instruments/speaker2.png,stim/63.jpeg,6,stim/6.png,3,2,50,2021-01-21_07h42.28.793,premup-three_ses-02_part-03_label-phase3,3.2.4,Win32,60
1,right,0.927999973,,,0,,,0,,,1,0,200,141,1,199,0,1,0,2,stim/objects/HouseObjects/remote3.png,,0,stim/0.png,0,0,50,2021-01-21_07h42.28.793,premup-three_ses-02_part-03_label-phase3,3.2.4,Win32,60
1,right,1.217999935,,,0,,,0,,,1,0,200,198,1,199,0,2,0,2,stim/objects/Instruments/laud4.png,,0,stim/0.png,0,0,50,2021-01-21_07h42.28.793,premup-three_ses-02_part-03_label-phase3,3.2.4,Win32,60
1,left,0.875999928,3,1.085000038,0,3,3.555999994,0,4,1.462999821,1,0,200,73,1,199,3,2,0.9,1,stim/objects/Instruments/musicstand2.png,stim/52.jpeg,5,stim/5.png,2,4,50,2021-01-21_07h42.28.793,premup-three_ses-02_part-03_label-phase3,3.2.4,Win32,60
1,right,0.724999905,2,1.615999937,0,2,0.859999895,0,3,1.111999989,1,0,200,13,1,199,1,2,0.5,1,stim/objects/HouseObjects/spraybottle.png,stim/24.jpeg,2,stim/2.png,4,3,50,2021-01-21_07h42.28.793,premup-three_ses-02_part-03_label-phase3,3.2.4,Win32,60
1,right,0.784999847,3,1.49000001,0,2,1.142000198,0,1,1.652000189,1,0,200,87,1,199,3,1,0.9,1,stim/objects/HouseObjects/towel2.png,stim/64.jpeg,6,stim/6.png,4,2,50,2021-01-21_07h42.28.793,premup-three_ses-02_part-03_label-phase3,3.2.4,Win32,60
1,right,1.586999893,2,1.805999994,0,2,0.923000097,0,3,1.09100008,1,0,200,7,1,199,1,1,0.5,1,stim/objects/Instruments/record.png,stim/14.jpeg,1,stim/1.png,4,1,50,2021-01-21_07h42.28.793,premup-three_ses-02_part-03_label-phase3,3.2.4,Win32,60
1,left,0.996000051,3,0.878000021,0,3,1.404999971,0,1,2.450000048,1,0,200,60,1,199,3,1,0.1,1,stim/objects/HouseObjects/knife2.png,stim/51.jpeg,5,stim/5.png,1,3,50,2021-01-21_07h42.28.793,premup-three_ses-02_part-03_label-phase3,3.2.4,Win32,60
1,right,0.821000099,,,0,,,0,,,1,0,200,125,1,199,0,1,0,2,stim/objects/HouseObjects/knife3.png,,0,stim/0.png,0,0,50,2021-01-21_07h42.28.793,premup-three_ses-02_part-03_label-phase3,3.2.4,Win32,60
1,left,0.703999996,3,1.56400013,0,4,1.724999905,0,4,1.230000019,1,0,200,79,1,199,3,2,0.9,1,stim/objects/Instruments/saxophone2.png,stim/54.jpeg,5,stim/5.png,4,1,50,2021-01-21_07h42.28.793,premup-three_ses-02_part-03_label-phase3,3.2.4,Win32,60
1,right,3.104000092,,,0,,,0,,,1,0,200,103,1,199,0,1,0,2,stim/objects/HouseObjects/doormat3.png,,0,stim/0.png,0,0,50,2021-01-21_07h42.28.793,premup-three_ses-02_part-03_label-phase3,3.2.4,Win32,60
1,right,0.867000103,,,0,,,0,,,1,0,200,149,1,199,0,1,0,2,stim/objects/HouseObjects/teapot3.png,,0,stim/0.png,0,0,50,2021-01-21_07h42.28.793,premup-three_ses-02_part-03_label-phase3,3.2.4,Win32,60
1,right,0.937000036,,,0,,,0,,,1,0,200,179,1,199,0,2,0,2,stim/objects/Instruments/flutetrans4.png,,0,stim/0.png,0,0,50,2021-01-21_07h42.28.793,premup-three_ses-02_part-03_label-phase3,3.2.4,Win32,60
1,left,0.777999878,4,0.913000107,0,3,1.330999851,0,4,2.815999985,1,0,200,70,1,199,3,2,0.9,1,stim/objects/Instruments/marimba2.png,stim/53.jpeg,5,stim/5.png,3,1,50,2021-01-21_07h42.28.793,premup-three_ses-02_part-03_label-phase3,3.2.4,Win32,60
1,right,0.823999882,,,0,,,0,,,1,0,200,123,1,199,0,1,0,2,stim/objects/HouseObjects/ironingboard3.png,,0,stim/0.png,0,0,50,2021-01-21_07h42.28.793,premup-three_ses-02_part-03_label-phase3,3.2.4,Win32,60
1,right,0.927000046,2,2.637000084,0,2,1.287999868,0,1,1.522000074,1,0,200,6,1,199,1,1,0.5,1,stim/objects/Instruments/pipepiano.png,stim/13.jpeg,1,stim/1.png,3,2,50,2021-01-21_07h42.28.793,premup-three_ses-02_part-03_label-phase3,3.2.4,Win32,60
1,right,0.60800004,,,0,,,0,,,1,0,200,199,1,199,0,2,0,2,stim/objects/Instruments/maraca4.png,,0,stim/0.png,0,0,50,2021-01-21_07h42.28.793,premup-three_ses-02_part-03_label-phase3,3.2.4,Win32,60
1,right,0.784000158,4,1.355999947,0,2,0.825000048,0,3,1.360000134,1,0,200,35,1,199,2,2,0.7,1,stim/objects/Instruments/drums2.png,stim/33.jpeg,3,stim/3.png,3,1,50,2021-01-21_07h42.28.793,premup-three_ses-02_part-03_label-phase3,3.2.4,Win32,60
1,left,1.409000158,,,0,,,0,,,1,0,200,162,1,199,0,1,0,2,stim/objects/HouseObjects/towel3.png,,0,stim/0.png,0,0,50,2021-01-21_07h42.28.793,premup-three_ses-02_part-03_label-phase3,3.2.4,Win32,60
1,right,1.243000031,2,1.57799983,0,2,0.756999969,0,1,1.103000164,1,0,200,14,1,199,1,2,0.5,1,stim/objects/HouseObjects/teapot.png,stim/21.jpeg,2,stim/2.png,1,4,50,2021-01-21_07h42.28.793,premup-three_ses-02_part-03_label-phase3,3.2.4,Win32,60
1,right,0.621999979,3,1.677000046,0,1,2.147000074,0,3,2.088999987,1,0,200,43,1,199,2,1,0.7,1,stim/objects/HouseObjects/glassmop2.png,stim/43.jpeg,4,stim/4.png,3,3,50,2021-01-21_07h42.28.793,premup-three_ses-02_part-03_label-phase3,3.2.4,Win32,60
1,right,0.893000126,,,0,,,0,,,1,0,200,185,1,199,0,1,0,2,stim/objects/HouseObjects/handbrush4.png,,0,stim/0.png,0,0,50,2021-01-21_07h42.28.793,premup-three_ses-02_part-03_label-phase3,3.2.4,Win32,60
1,left,1.376999855,4,1.667999983,0,4,1.677999973,0,4,2.111000061,1,0,200,44,1,199,2,1,0.7,1,stim/objects/HouseObjects/hairdryer2.png,stim/44.jpeg,4,stim/4.png,4,3,50,2021-01-21_07h42.28.793,premup-three_ses-02_part-03_label-phase3,3.2.4,Win32,60
1,right,0.664000034,,,0,,,0,,,1,0,200,108,1,199,0,1,0,2,stim/objects/HouseObjects/glassmop3.png,,0,stim/0.png,0,0,50,2021-01-21_07h42.28.793,premup-three_ses-02_part-03_label-phase3,3.2.4,Win32,60
1,right,0.651000023,,,0,,,0,,,1,0,200,192,1,199,0,2,0,2,stim/objects/Instruments/grandpiano4.png,,0,stim/0.png,0,0,50,2021-01-21_07h42.28.793,premup-three_ses-02_part-03_label-phase3,3.2.4,Win32,60
1,right,0.938000202,3,3.855000019,0,2,1.118999958,0,3,1.28000021,1,0,200,36,1,199,2,2,0.7,1,stim/objects/Instruments/electricdrumset2.png,stim/34.jpeg,3,stim/3.png,4,1,50,2021-01-21_07h42.28.793,premup-three_ses-02_part-03_label-phase3,3.2.4,Win32,60
1,right,0.735000134,,,0,,,0,,,1,0,200,160,1,199,0,1,0,2,stim/objects/HouseObjects/thermometer3.png,,0,stim/0.png,0,0,50,2021-01-21_07h42.28.793,premup-three_ses-02_part-03_label-phase3,3.2.4,Win32,60
1,left,0.965000153,3,1.069000006,0,3,1.25,0,2,2.005000114,1,0,200,23,1,199,2,1,0.3,1,stim/objects/HouseObjects/vacuumcleaner.png,stim/34.jpeg,3,stim/3.png,4,3,50,2021-01-21_07h42.28.793,premup-three_ses-02_part-03_label-phase3,3.2.4,Win32,60
1,right,0.56400013,2,1.361999989,0,2,1.246000051,0,3,1.146000147,1,0,200,83,1,199,3,1,0.9,1,stim/objects/HouseObjects/spraybottle2.png,stim/64.jpeg,6,stim/6.png,4,4,50,2021-01-21_07h42.28.793,premup-three_ses-02_part-03_label-phase3,3.2.4,Win32,60
1,right,0.625,,,0,,,0,,,1,0,200,163,1,199,0,1,0,2,stim/objects/HouseObjects/vacuumcleaner3.png,,0,stim/0.png,0,0,50,2021-01-21_07h42.28.793,premup-three_ses-02_part-03_label-phase3,3.2.4,Win32,60
1,right,0.723999977,4,1.111000061,0,4,1.934999943,0,2,1.365999937,1,0,200,50,1,199,2,2,0.3,1,stim/objects/Instruments/frenchhorn2.png,stim/42.jpeg,4,stim/4.png,2,1,50,2021-01-21_07h42.28.793,premup-three_ses-02_part-03_label-phase3,3.2.4,Win32,60
1,right,0.713000059,1,2.735000134,0,1,0.909999847,0,1,0.799999952,1,0,200,5,1,199,1,1,0.5,1,stim/objects/Instruments/panflute.png,stim/12.jpeg,1,stim/1.png,2,1,50,2021-01-21_07h42.28.793,premup-three_ses-02_part-03_label-phase3,3.2.4,Win32,60
1,left,1.03399992,,,0,,,0,,,1,0,200,158,1,199,0,2,0,2,stim/objects/Instruments/triangle3.png,,0,stim/0.png,0,0,50,2021-01-21_07h42.28.793,premup-three_ses-02_part-03_label-phase3,3.2.4,Win32,60
1,left,1.021000147,3,1.217000008,0,1,2.71600008,0,2,1.790999889,1,0,200,91,1,199,3,2,0.1,1,stim/objects/Instruments/tambourine2.png,stim/64.jpeg,6,stim/6.png,4,4,50,2021-01-21_07h42.28.793,premup-three_ses-02_part-03_label-phase3,3.2.4,Win32,60
1,right,0.601000071,3,2.458999872,0,2,0.828999996,0,1,1.180000067,1,0,200,45,1,199,2,1,0.7,1,stim/objects/HouseObjects/handbrush2.png,stim/41.jpeg,4,stim/4.png,1,1,50,2021-01-21_07h42.28.793,premup-three_ses-02_part-03_label-phase3,3.2.4,Win32,60
1,right,0.611999989,,,0,,,0,,,1,0,200,157,1,199,0,2,0,2,stim/objects/Instruments/timbal3.png,,0,stim/0.png,0,0,50,2021-01-21_07h42.28.793,premup-three_ses-02_part-03_label-phase3,3.2.4,Win32,60
1,left,0.762000084,,,0,,,0,,,1,0,200,114,1,199,0,2,0,2,stim/objects/Instruments/flutetrans3.png,,0,stim/0.png,0,0,50,2021-01-21_07h42.28.793,premup-three_ses-02_part-03_label-phase3,3.2.4,Win32,60
1,left,0.746000051,3,1.590000153,0,2,1.055999994,0,2,1.120999813,1,0,200,74,1,199,3,2,0.9,1,stim/objects/Instruments/oboe2.png,stim/53.jpeg,5,stim/5.png,3,4,50,2021-01-21_07h42.28.793,premup-three_ses-02_part-03_label-phase3,3.2.4,Win32,60
1,right,0.736000061,,,0,,,0,,,1,0,200,112,1,199,0,2,0,2,stim/objects/Instruments/electricguitar3.png,,0,stim/0.png,0,0,50,2021-01-21_07h42.28.793,premup-three_ses-02_part-03_label-phase3,3.2.4,Win32,60
1,left,1.094000101,,,0,,,0,,,1,0,200,152,1,199,0,2,0,2,stim/objects/Instruments/record3.png,,0,stim/0.png,0,0,50,2021-01-21_07h42.28.793,premup-three_ses-02_part-03_label-phase3,3.2.4,Win32,60
1,right,0.840000153,,,0,,,0,,,1,0,200,155,1,199,0,2,0,2,stim/objects/Instruments/speaker3.png,,0,stim/0.png,0,0,50,2021-01-21_07h42.28.793,premup-three_ses-02_part-03_label-phase3,3.2.4,Win32,60
1,left,0.669999838,4,0.851999998,0,1,2.329999924,0,2,2.731999874,1,0,200,77,1,199,3,2,0.9,1,stim/objects/Instruments/record2.png,stim/52.jpeg,5,stim/5.png,2,2,50,2021-01-21_07h42.28.793,premup-three_ses-02_part-03_label-phase3,3.2.4,Win32,60
1,left,1.240999937,3,0.904999971,0,4,1.618000031,0,1,2.558000088,1,0,200,68,1,199,3,1,0.1,1,stim/objects/HouseObjects/rug2.png,stim/51.jpeg,5,stim/5.png,1,2,50,2021-01-21_07h42.28.793,premup-three_ses-02_part-03_label-phase3,3.2.4,Win32,60
1,right,1.134000063,,,0,,,0,,,1,0,200,180,1,199,0,1,0,2,stim/objects/HouseObjects/flyswatter4.png,,0,stim/0.png,0,0,50,2021-01-21_07h42.28.793,premup-three_ses-02_part-03_label-phase3,3.2.4,Win32,60
1,left,0.959000111,4,0.767999887,0,2,2.457000017,0,4,1.488000154,1,0,200,1,1,199,1,1,0.5,1,stim/objects/HouseObjects/remote.png,stim/14.jpeg,1,stim/1.png,4,1,50,2021-01-21_07h42.28.793,premup-three_ses-02_part-03_label-phase3,3.2.4,Win32,60
1,right,0.703000069,,,0,,,0,,,1,0,200,101,1,199,0,1,0,2,stim/objects/HouseObjects/cushion3.png,,0,stim/0.png,0,0,50,2021-01-21_07h42.28.793,premup-three_ses-02_part-03_label-phase3,3.2.4,Win32,60
1,left,0.742000103,4,0.804999828,0,2,2.417999983,0,1,1.772000074,1,0,200,17,1,199,1,2,0.5,1,stim/objects/Instruments/timbal.png,stim/22.jpeg,2,stim/2.png,2,2,50,2021-01-21_07h42.28.793,premup-three_ses-02_part-03_label-phase3,3.2.4,Win32,60
1,right,0.664999962,,,0,,,0,,,1,0,200,113,1,199,0,2,0,2,stim/objects/Instruments/flute3.png,,0,stim/0.png,0,0,50,2021-01-21_07h42.28.793,premup-three_ses-02_part-03_label-phase3,3.2.4,Win32,60
1,right,0.713999987,,,0,,,0,,,1,0,200,183,1,199,0,1,0,2,stim/objects/HouseObjects/glassmop4.png,,0,stim/0.png,0,0,50,2021-01-21_07h42.28.793,premup-three_ses-02_part-03_label-phase3,3.2.4,Win32,60
1,right,0.74000001,,,0,,,0,,,1,0,200,164,1,199,0,1,0,2,stim/objects/HouseObjects/wateringcan3.png,,0,stim/0.png,0,0,50,2021-01-21_07h42.28.793,premup-three_ses-02_part-03_label-phase3,3.2.4,Win32,60
1,left,0.845999956,4,0.845999956,0,1,1.957999945,0,2,1.802000046,1,0,200,89,1,199,3,1,0.9,1,stim/objects/HouseObjects/wateringcan2.png,stim/62.jpeg,6,stim/6.png,2,4,50,2021-01-21_07h42.28.793,premup-three_ses-02_part-03_label-phase3,3.2.4,Win32,60
1,left,0.984000206,,,0,,,0,,,1,0,200,107,1,199,0,1,0,2,stim/objects/HouseObjects/glass3.png,,0,stim/0.png,0,0,50,2021-01-21_07h42.28.793,premup-three_ses-02_part-03_label-phase3,3.2.4,Win32,60
1,left,1.095999956,,,0,,,0,,,1,0,200,121,1,199,0,1,0,2,stim/objects/HouseObjects/handvacuum3.png,,0,stim/0.png,0,0,50,2021-01-21_07h42.28.793,premup-three_ses-02_part-03_label-phase3,3.2.4,Win32,60
1,left,0.898999929,4,1.187999964,0,1,2.960000038,0,2,1.97300005,1,0,200,26,1,199,2,1,0.3,1,stim/objects/HouseObjects/cushion2.png,stim/33.jpeg,3,stim/3.png,3,4,50,2021-01-21_07h42.28.793,premup-three_ses-02_part-03_label-phase3,3.2.4,Win32,60
1,right,0.91899991,,,0,,,0,,,1,0,200,111,1,199,0,2,0,2,stim/objects/Instruments/electricdrumset3.png,,0,stim/0.png,0,0,50,2021-01-21_07h42.28.793,premup-three_ses-02_part-03_label-phase3,3.2.4,Win32,60
1,left,0.756999969,,,0,,,0,,,1,0,200,131,1,199,0,2,0,2,stim/objects/Instruments/hihat3.png,,0,stim/0.png,0,0,50,2021-01-21_07h42.28.793,premup-three_ses-02_part-03_label-phase3,3.2.4,Win32,60
1,right,1.570999861,3,1.238000154,0,2,0.855999947,0,2,0.967999935,1,0,200,71,1,199,3,2,0.9,1,stim/objects/Instruments/metronome2.png,stim/54.jpeg,5,stim/5.png,4,3,50,2021-01-21_07h42.28.793,premup-three_ses-02_part-03_label-phase3,3.2.4,Win32,60
1,right,0.715999842,,,0,,,0,,,1,0,200,132,1,199,0,2,0,2,stim/objects/Instruments/keyboard3.png,,0,stim/0.png,0,0,50,2021-01-21_07h42.28.793,premup-three_ses-02_part-03_label-phase3,3.2.4,Win32,60
1,left,0.744999886,4,0.820999861,0,4,1.917999983,0,3,1.774000168,1,0,200,21,1,199,2,1,0.3,1,stim/objects/HouseObjects/thread.png,stim/32.jpeg,3,stim/3.png,2,1,50,2021-01-21_07h42.28.793,premup-three_ses-02_part-03_label-phase3,3.2.4,Win32,60
1,left,1.299999952,,,0,,,0,,,1,0,200,134,1,199,0,2,0,2,stim/objects/Instruments/maraca3.png,,0,stim/0.png,0,0,50,2021-01-21_07h42.28.793,premup-three_ses-02_part-03_label-phase3,3.2.4,Win32,60
1,right,0.892999887,,,0,,,0,,,1,0,200,143,1,199,0,1,0,2,stim/objects/HouseObjects/rug3.png,,0,stim/0.png,0,0,50,2021-01-21_07h42.28.793,premup-three_ses-02_part-03_label-phase3,3.2.4,Win32,60
1,right,1.19299984,,,0,,,0,,,1,0,200,120,1,199,0,1,0,2,stim/objects/HouseObjects/handbrush3.png,,0,stim/0.png,0,0,50,2021-01-21_07h42.28.793,premup-three_ses-02_part-03_label-phase3,3.2.4,Win32,60
1,right,0.980000019,,,0,,,0,,,1,0,200,102,1,199,0,1,0,2,stim/objects/HouseObjects/dishsoap3.png,,0,stim/0.png,0,0,50,2021-01-21_07h42.28.793,premup-three_ses-02_part-03_label-phase3,3.2.4,Win32,60
