key_resp_trial.keys,key_resp_trial.rt,trial_acc,trial_index,iterations.thisRepN,iterations.thisTrialN,iterations.thisN,iterations.thisIndex,iterations.ran,iterations.order,task_innerloop.thisRepN,task_innerloop.thisTrialN,task_innerloop.thisN,task_innerloop.thisIndex,task_innerloop.ran,task_innerloop.order,scn_condition,scn_cat,scn_inst,scn_file,obj_cat,obj_cat_num,obj_file,trial_cond,quadrant,obj_x,obj_y,corr_ans,participant,date,expName,psychopyVersion,OS,frameRate,slider.response,slider.rt,slider_2.response,slider_2.rt,ratings.thisRepN,ratings.thisTrialN,ratings.thisN,ratings.thisIndex,ratings.ran,ratings.order,obj_cat_top,min_resp_top,max_resp_top,obj_cat_bottom,min_resp_bottom,max_resp_bottom,enc_trials.thisRepN,enc_trials.thisTrialN,enc_trials.thisN,enc_trials.thisIndex,enc_trials.ran,enc_trials.order,fillers,ratings_final.thisRepN,ratings_final.thisTrialN,ratings_final.thisN,ratings_final.thisIndex,ratings_final.ran,ratings_final.order
,,0,1,1,0,1,0,1,0,1,0,240,185,1,239,3,1,2,stim/12.jpeg,HouseObjects,2,stim/objects/HouseObjects/flyswatter2.png,0.9,2,0.2,0.15,right,51,2021-01-21_09h07.26.728,premup-three_ses-02_part-02_label-phase2,3.2.4,Win32,60,,,,,,,,,,,,,,,,,,,,,,,,,,,,,
right,0.687999964,1,2,1,0,1,0,1,0,1,0,240,171,1,239,3,1,4,stim/14.jpeg,HouseObjects,2,stim/objects/HouseObjects/glass2.png,0.9,2,0.2,0.15,right,51,2021-01-21_09h07.26.728,premup-three_ses-02_part-02_label-phase2,3.2.4,Win32,60,,,,,,,,,,,,,,,,,,,,,,,,,,,,,
,,0,3,1,0,1,0,1,0,1,0,240,101,1,239,2,5,2,stim/52.jpeg,HouseObjects,2,stim/objects/HouseObjects/hairdryer.png,0.7,2,0.2,0.15,right,51,2021-01-21_09h07.26.728,premup-three_ses-02_part-02_label-phase2,3.2.4,Win32,60,,,,,,,,,,,,,,,,,,,,,,,,,,,,,
right,0.770999908,1,4,1,0,1,0,1,0,1,0,240,21,1,239,1,3,2,stim/32.jpeg,HouseObjects,2,stim/objects/HouseObjects/cushion.png,0.5,1,-0.2,0.15,right,51,2021-01-21_09h07.26.728,premup-three_ses-02_part-02_label-phase2,3.2.4,Win32,60,,,,,,,,,,,,,,,,,,,,,,,,,,,,,
left,0.733999968,1,5,1,0,1,0,1,0,1,0,240,225,1,239,3,2,2,stim/22.jpeg,Instruments,1,stim/objects/Instruments/harmonica2.png,0.9,4,0.2,-0.15,left,51,2021-01-21_09h07.26.728,premup-three_ses-02_part-02_label-phase2,3.2.4,Win32,60,,,,,,,,,,,,,,,,,,,,,,,,,,,,,
right,0.669999838,1,6,1,0,1,0,1,0,1,0,240,187,1,239,3,1,4,stim/14.jpeg,HouseObjects,2,stim/objects/HouseObjects/glass2.png,0.9,4,0.2,-0.15,right,51,2021-01-21_09h07.26.728,premup-three_ses-02_part-02_label-phase2,3.2.4,Win32,60,,,,,,,,,,,,,,,,,,,,,,,,,,,,,
right,0.632999897,1,7,1,0,1,0,1,0,1,0,240,166,1,239,3,1,3,stim/13.jpeg,HouseObjects,2,stim/objects/HouseObjects/garbagebin2.png,0.9,1,-0.2,0.15,right,51,2021-01-21_09h07.26.728,premup-three_ses-02_part-02_label-phase2,3.2.4,Win32,60,,,,,,,,,,,,,,,,,,,,,,,,,,,,,
,,0,8,1,0,1,0,1,0,1,0,240,15,1,239,1,3,4,stim/34.jpeg,Instruments,1,stim/objects/Instruments/flute.png,0.5,3,-0.2,-0.15,left,51,2021-01-21_09h07.26.728,premup-three_ses-02_part-02_label-phase2,3.2.4,Win32,60,,,,,,,,,,,,,,,,,,,,,,,,,,,,,
right,0.617000103,1,9,1,0,1,0,1,0,1,0,240,28,1,239,1,3,1,stim/31.jpeg,HouseObjects,2,stim/objects/HouseObjects/coffee.png,0.5,4,0.2,-0.15,right,51,2021-01-21_09h07.26.728,premup-three_ses-02_part-02_label-phase2,3.2.4,Win32,60,,,,,,,,,,,,,,,,,,,,,,,,,,,,,
right,0.579999924,1,10,1,0,1,0,1,0,1,0,240,183,1,239,3,1,4,stim/14.jpeg,HouseObjects,2,stim/objects/HouseObjects/glass2.png,0.9,1,-0.2,0.15,right,51,2021-01-21_09h07.26.728,premup-three_ses-02_part-02_label-phase2,3.2.4,Win32,60,,,,,,,,,,,,,,,,,,,,,,,,,,,,,
right,0.907999992,0,11,1,0,1,0,1,0,1,0,240,81,1,239,2,5,2,stim/52.jpeg,Instruments,1,stim/objects/Instruments/harmonica.png,0.3,1,-0.2,0.15,left,51,2021-01-21_09h07.26.728,premup-three_ses-02_part-02_label-phase2,3.2.4,Win32,60,,,,,,,,,,,,,,,,,,,,,,,,,,,,,
right,0.677999735,1,12,1,0,1,0,1,0,1,0,240,36,1,239,1,3,1,stim/31.jpeg,HouseObjects,2,stim/objects/HouseObjects/coffee.png,0.5,3,-0.2,-0.15,right,51,2021-01-21_09h07.26.728,premup-three_ses-02_part-02_label-phase2,3.2.4,Win32,60,,,,,,,,,,,,,,,,,,,,,,,,,,,,,
left,0.784999847,1,13,1,0,1,0,1,0,1,0,240,0,1,239,1,3,1,stim/31.jpeg,Instruments,1,stim/objects/Instruments/drums.png,0.5,2,0.2,0.15,left,51,2021-01-21_09h07.26.728,premup-three_ses-02_part-02_label-phase2,3.2.4,Win32,60,,,,,,,,,,,,,,,,,,,,,,,,,,,,,
left,0.619999886,1,14,1,0,1,0,1,0,1,0,240,213,1,239,3,2,2,stim/22.jpeg,Instruments,1,stim/objects/Instruments/harmonica2.png,0.9,3,-0.2,-0.15,left,51,2021-01-21_09h07.26.728,premup-three_ses-02_part-02_label-phase2,3.2.4,Win32,60,,,,,,,,,,,,,,,,,,,,,,,,,,,,,
left,0.797999859,1,15,1,0,1,0,1,0,1,0,240,234,1,239,3,2,3,stim/23.jpeg,Instruments,1,stim/objects/Instruments/harp2.png,0.9,1,-0.2,0.15,left,51,2021-01-21_09h07.26.728,premup-three_ses-02_part-02_label-phase2,3.2.4,Win32,60,,,,,,,,,,,,,,,,,,,,,,,,,,,,,
right,0.799000025,1,16,1,0,1,0,1,0,1,0,240,62,1,239,1,4,3,stim/43.jpeg,HouseObjects,2,stim/objects/HouseObjects/garbagebin.png,0.5,4,0.2,-0.15,right,51,2021-01-21_09h07.26.728,premup-three_ses-02_part-02_label-phase2,3.2.4,Win32,60,,,,,,,,,,,,,,,,,,,,,,,,,,,,,
right,0.735000134,1,17,1,0,1,0,1,0,1,0,240,108,1,239,2,5,1,stim/51.jpeg,HouseObjects,2,stim/objects/HouseObjects/glassmop.png,0.7,2,0.2,0.15,right,51,2021-01-21_09h07.26.728,premup-three_ses-02_part-02_label-phase2,3.2.4,Win32,60,,,,,,,,,,,,,,,,,,,,,,,,,,,,,
right,0.902999878,0,18,1,0,1,0,1,0,1,0,240,49,1,239,1,4,2,stim/42.jpeg,Instruments,1,stim/objects/Instruments/frenchhorn.png,0.5,4,0.2,-0.15,left,51,2021-01-21_09h07.26.728,premup-three_ses-02_part-02_label-phase2,3.2.4,Win32,60,,,,,,,,,,,,,,,,,,,,,,,,,,,,,
right,0.750999928,1,19,1,0,1,0,1,0,1,0,240,33,1,239,1,3,2,stim/32.jpeg,HouseObjects,2,stim/objects/HouseObjects/cushion.png,0.5,1,-0.2,0.15,right,51,2021-01-21_09h07.26.728,premup-three_ses-02_part-02_label-phase2,3.2.4,Win32,60,,,,,,,,,,,,,,,,,,,,,,,,,,,,,
left,0.710999966,1,20,1,0,1,0,1,0,1,0,240,53,1,239,1,4,2,stim/42.jpeg,Instruments,1,stim/objects/Instruments/frenchhorn.png,0.5,3,-0.2,-0.15,left,51,2021-01-21_09h07.26.728,premup-three_ses-02_part-02_label-phase2,3.2.4,Win32,60,,,,,,,,,,,,,,,,,,,,,,,,,,,,,
left,0.73300004,0,21,1,0,1,0,1,0,1,0,240,154,1,239,2,6,3,stim/63.jpeg,HouseObjects,2,stim/objects/HouseObjects/dishsoap2.png,0.3,2,0.2,0.15,right,51,2021-01-21_09h07.26.728,premup-three_ses-02_part-02_label-phase2,3.2.4,Win32,60,,,,,,,,,,,,,,,,,,,,,,,,,,,,,
left,0.80099988,1,22,1,0,1,0,1,0,1,0,240,47,1,239,1,4,4,stim/44.jpeg,Instruments,1,stim/objects/Instruments/grandpiano.png,0.5,2,0.2,0.15,left,51,2021-01-21_09h07.26.728,premup-three_ses-02_part-02_label-phase2,3.2.4,Win32,60,,,,,,,,,,,,,,,,,,,,,,,,,,,,,
left,0.617999792,1,23,1,0,1,0,1,0,1,0,240,217,1,239,3,2,2,stim/22.jpeg,Instruments,1,stim/objects/Instruments/harmonica2.png,0.9,3,-0.2,-0.15,left,51,2021-01-21_09h07.26.728,premup-three_ses-02_part-02_label-phase2,3.2.4,Win32,60,,,,,,,,,,,,,,,,,,,,,,,,,,,,,
right,0.690999985,1,24,1,0,1,0,1,0,1,0,240,78,1,239,1,4,3,stim/43.jpeg,HouseObjects,2,stim/objects/HouseObjects/garbagebin.png,0.5,1,-0.2,0.15,right,51,2021-01-21_09h07.26.728,premup-three_ses-02_part-02_label-phase2,3.2.4,Win32,60,,,,,,,,,,,,,,,,,,,,,,,,,,,,,
right,0.619999886,1,25,1,0,1,0,1,0,1,0,240,194,1,239,3,1,3,stim/13.jpeg,HouseObjects,2,stim/objects/HouseObjects/garbagebin2.png,0.9,1,-0.2,0.15,right,51,2021-01-21_09h07.26.728,premup-three_ses-02_part-02_label-phase2,3.2.4,Win32,60,,,,,,,,,,,,,,,,,,,,,,,,,,,,,
,,0,26,1,0,1,0,1,0,1,0,240,114,1,239,2,5,3,stim/53.jpeg,HouseObjects,2,stim/objects/HouseObjects/handbrush.png,0.7,3,-0.2,-0.15,right,51,2021-01-21_09h07.26.728,premup-three_ses-02_part-02_label-phase2,3.2.4,Win32,60,,,,,,,,,,,,,,,,,,,,,,,,,,,,,
left,0.55099988,1,27,1,0,1,0,1,0,1,0,240,231,1,239,3,2,4,stim/24.jpeg,Instruments,1,stim/objects/Instruments/hihat2.png,0.9,4,0.2,-0.15,left,51,2021-01-21_09h07.26.728,premup-three_ses-02_part-02_label-phase2,3.2.4,Win32,60,,,,,,,,,,,,,,,,,,,,,,,,,,,,,
left,0.493000031,1,28,1,0,1,0,1,0,1,0,240,223,1,239,3,2,4,stim/24.jpeg,Instruments,1,stim/objects/Instruments/hihat2.png,0.9,1,-0.2,0.15,left,51,2021-01-21_09h07.26.728,premup-three_ses-02_part-02_label-phase2,3.2.4,Win32,60,,,,,,,,,,,,,,,,,,,,,,,,,,,,,
right,0.657000065,0,29,1,0,1,0,1,0,1,0,240,59,1,239,1,4,4,stim/44.jpeg,Instruments,1,stim/objects/Instruments/grandpiano.png,0.5,4,0.2,-0.15,left,51,2021-01-21_09h07.26.728,premup-three_ses-02_part-02_label-phase2,3.2.4,Win32,60,,,,,,,,,,,,,,,,,,,,,,,,,,,,,
left,0.601999998,1,30,1,0,1,0,1,0,1,0,240,207,1,239,3,2,4,stim/24.jpeg,Instruments,1,stim/objects/Instruments/hihat2.png,0.9,4,0.2,-0.15,left,51,2021-01-21_09h07.26.728,premup-three_ses-02_part-02_label-phase2,3.2.4,Win32,60,,,,,,,,,,,,,,,,,,,,,,,,,,,,,
right,0.678999901,0,31,1,0,1,0,1,0,1,0,240,123,1,239,2,6,4,stim/64.jpeg,Instruments,1,stim/objects/Instruments/flute2.png,0.7,3,-0.2,-0.15,left,51,2021-01-21_09h07.26.728,premup-three_ses-02_part-02_label-phase2,3.2.4,Win32,60,,,,,,,,,,,,,,,,,,,,,,,,,,,,,
right,0.770999908,0,32,1,0,1,0,1,0,1,0,240,3,1,239,1,3,4,stim/34.jpeg,Instruments,1,stim/objects/Instruments/flute.png,0.5,2,0.2,0.15,left,51,2021-01-21_09h07.26.728,premup-three_ses-02_part-02_label-phase2,3.2.4,Win32,60,,,,,,,,,,,,,,,,,,,,,,,,,,,,,
right,0.761999846,0,33,1,0,1,0,1,0,1,0,240,48,1,239,1,4,1,stim/41.jpeg,Instruments,1,stim/objects/Instruments/flutetrans.png,0.5,4,0.2,-0.15,left,51,2021-01-21_09h07.26.728,premup-three_ses-02_part-02_label-phase2,3.2.4,Win32,60,,,,,,,,,,,,,,,,,,,,,,,,,,,,,
left,0.677999973,1,34,1,0,1,0,1,0,1,0,240,205,1,239,3,2,2,stim/22.jpeg,Instruments,1,stim/objects/Instruments/harmonica2.png,0.9,2,0.2,0.15,left,51,2021-01-21_09h07.26.728,premup-three_ses-02_part-02_label-phase2,3.2.4,Win32,60,,,,,,,,,,,,,,,,,,,,,,,,,,,,,
right,0.562999964,1,35,1,0,1,0,1,0,1,0,240,193,1,239,3,1,2,stim/12.jpeg,HouseObjects,2,stim/objects/HouseObjects/flyswatter2.png,0.9,3,-0.2,-0.15,right,51,2021-01-21_09h07.26.728,premup-three_ses-02_part-02_label-phase2,3.2.4,Win32,60,,,,,,,,,,,,,,,,,,,,,,,,,,,,,
right,0.789000034,0,36,1,0,1,0,1,0,1,0,240,87,1,239,2,5,4,stim/54.jpeg,Instruments,1,stim/objects/Instruments/hihat.png,0.3,2,0.2,0.15,left,51,2021-01-21_09h07.26.728,premup-three_ses-02_part-02_label-phase2,3.2.4,Win32,60,,,,,,,,,,,,,,,,,,,,,,,,,,,,,
right,0.646999836,1,37,1,0,1,0,1,0,1,0,240,26,1,239,1,3,3,stim/33.jpeg,HouseObjects,2,stim/objects/HouseObjects/dishsoap.png,0.5,2,0.2,0.15,right,51,2021-01-21_09h07.26.728,premup-three_ses-02_part-02_label-phase2,3.2.4,Win32,60,,,,,,,,,,,,,,,,,,,,,,,,,,,,,
right,0.602999926,0,38,1,0,1,0,1,0,1,0,240,131,1,239,2,6,4,stim/64.jpeg,Instruments,1,stim/objects/Instruments/flute2.png,0.7,2,0.2,0.15,left,51,2021-01-21_09h07.26.728,premup-three_ses-02_part-02_label-phase2,3.2.4,Win32,60,,,,,,,,,,,,,,,,,,,,,,,,,,,,,
right,0.612999916,1,39,1,0,1,0,1,0,1,0,240,61,1,239,1,4,2,stim/42.jpeg,HouseObjects,2,stim/objects/HouseObjects/flyswatter.png,0.5,2,0.2,0.15,right,51,2021-01-21_09h07.26.728,premup-three_ses-02_part-02_label-phase2,3.2.4,Win32,60,,,,,,,,,,,,,,,,,,,,,,,,,,,,,
right,0.723999977,1,40,1,0,1,0,1,0,1,0,240,167,1,239,3,1,4,stim/14.jpeg,HouseObjects,2,stim/objects/HouseObjects/glass2.png,0.9,3,-0.2,-0.15,right,51,2021-01-21_09h07.26.728,premup-three_ses-02_part-02_label-phase2,3.2.4,Win32,60,,,,,,,,,,,,,,,,,,,,,,,,,,,,,
right,0.652999878,0,41,1,0,1,0,1,0,1,0,240,90,1,239,2,5,3,stim/53.jpeg,Instruments,1,stim/objects/Instruments/harp.png,0.3,1,-0.2,0.15,left,51,2021-01-21_09h07.26.728,premup-three_ses-02_part-02_label-phase2,3.2.4,Win32,60,,,,,,,,,,,,,,,,,,,,,,,,,,,,,
right,0.643000126,1,42,1,0,1,0,1,0,1,0,240,93,1,239,2,5,2,stim/52.jpeg,HouseObjects,2,stim/objects/HouseObjects/hairdryer.png,0.7,3,-0.2,-0.15,right,51,2021-01-21_09h07.26.728,premup-three_ses-02_part-02_label-phase2,3.2.4,Win32,60,,,,,,,,,,,,,,,,,,,,,,,,,,,,,
left,0.906999826,1,43,1,0,1,0,1,0,1,0,240,134,1,239,2,6,3,stim/63.jpeg,Instruments,1,stim/objects/Instruments/electricguitar2.png,0.7,2,0.2,0.15,left,51,2021-01-21_09h07.26.728,premup-three_ses-02_part-02_label-phase2,3.2.4,Win32,60,,,,,,,,,,,,,,,,,,,,,,,,,,,,,
right,0.756000042,1,44,1,0,1,0,1,0,1,0,240,73,1,239,1,4,2,stim/42.jpeg,HouseObjects,2,stim/objects/HouseObjects/flyswatter.png,0.5,2,0.2,0.15,right,51,2021-01-21_09h07.26.728,premup-three_ses-02_part-02_label-phase2,3.2.4,Win32,60,,,,,,,,,,,,,,,,,,,,,,,,,,,,,
left,0.819999933,1,45,1,0,1,0,1,0,1,0,240,139,1,239,2,6,4,stim/64.jpeg,Instruments,1,stim/objects/Instruments/flute2.png,0.7,1,-0.2,0.15,left,51,2021-01-21_09h07.26.728,premup-three_ses-02_part-02_label-phase2,3.2.4,Win32,60,,,,,,,,,,,,,,,,,,,,,,,,,,,,,
right,0.739000082,1,46,1,0,1,0,1,0,1,0,240,65,1,239,1,4,2,stim/42.jpeg,HouseObjects,2,stim/objects/HouseObjects/flyswatter.png,0.5,4,0.2,-0.15,right,51,2021-01-21_09h07.26.728,premup-three_ses-02_part-02_label-phase2,3.2.4,Win32,60,,,,,,,,,,,,,,,,,,,,,,,,,,,,,
right,0.671999931,0,47,1,0,1,0,1,0,1,0,240,13,1,239,1,3,2,stim/32.jpeg,Instruments,1,stim/objects/Instruments/electricdrumset.png,0.5,4,0.2,-0.15,left,51,2021-01-21_09h07.26.728,premup-three_ses-02_part-02_label-phase2,3.2.4,Win32,60,,,,,,,,,,,,,,,,,,,,,,,,,,,,,
right,0.592000008,1,48,1,0,1,0,1,0,1,0,240,170,1,239,3,1,3,stim/13.jpeg,HouseObjects,2,stim/objects/HouseObjects/garbagebin2.png,0.9,3,-0.2,-0.15,right,51,2021-01-21_09h07.26.728,premup-three_ses-02_part-02_label-phase2,3.2.4,Win32,60,,,,,,,,,,,,,,,,,,,,,,,,,,,,,
right,0.786000013,1,49,1,0,1,0,1,0,1,0,240,74,1,239,1,4,3,stim/43.jpeg,HouseObjects,2,stim/objects/HouseObjects/garbagebin.png,0.5,3,-0.2,-0.15,right,51,2021-01-21_09h07.26.728,premup-three_ses-02_part-02_label-phase2,3.2.4,Win32,60,,,,,,,,,,,,,,,,,,,,,,,,,,,,,
left,0.694999695,1,50,1,0,1,0,1,0,1,0,240,147,1,239,2,6,4,stim/64.jpeg,Instruments,1,stim/objects/Instruments/flute2.png,0.7,4,0.2,-0.15,left,51,2021-01-21_09h07.26.728,premup-three_ses-02_part-02_label-phase2,3.2.4,Win32,60,,,,,,,,,,,,,,,,,,,,,,,,,,,,,
left,0.605999947,1,51,1,0,1,0,1,0,1,0,240,208,1,239,3,2,1,stim/21.jpeg,Instruments,1,stim/objects/Instruments/guitarcase2.png,0.9,1,-0.2,0.15,left,51,2021-01-21_09h07.26.728,premup-three_ses-02_part-02_label-phase2,3.2.4,Win32,60,,,,,,,,,,,,,,,,,,,,,,,,,,,,,
left,0.76699996,1,52,1,0,1,0,1,0,1,0,240,128,1,239,2,6,1,stim/61.jpeg,Instruments,1,stim/objects/Instruments/drums2.png,0.7,1,-0.2,0.15,left,51,2021-01-21_09h07.26.728,premup-three_ses-02_part-02_label-phase2,3.2.4,Win32,60,,,,,,,,,,,,,,,,,,,,,,,,,,,,,
right,0.892999887,1,53,1,0,1,0,1,0,1,0,240,102,1,239,2,5,3,stim/53.jpeg,HouseObjects,2,stim/objects/HouseObjects/handbrush.png,0.7,1,-0.2,0.15,right,51,2021-01-21_09h07.26.728,premup-three_ses-02_part-02_label-phase2,3.2.4,Win32,60,,,,,,,,,,,,,,,,,,,,,,,,,,,,,
right,0.608999968,1,54,1,0,1,0,1,0,1,0,240,98,1,239,2,5,3,stim/53.jpeg,HouseObjects,2,stim/objects/HouseObjects/handbrush.png,0.7,2,0.2,0.15,right,51,2021-01-21_09h07.26.728,premup-three_ses-02_part-02_label-phase2,3.2.4,Win32,60,,,,,,,,,,,,,,,,,,,,,,,,,,,,,
right,0.601999998,0,55,1,0,1,0,1,0,1,0,240,161,1,239,3,1,2,stim/12.jpeg,Instruments,1,stim/objects/Instruments/frenchhorn2.png,0.1,3,-0.2,-0.15,left,51,2021-01-21_09h07.26.728,premup-three_ses-02_part-02_label-phase2,3.2.4,Win32,60,,,,,,,,,,,,,,,,,,,,,,,,,,,,,
left,0.753000021,0,56,1,0,1,0,1,0,1,0,240,63,1,239,1,4,4,stim/44.jpeg,HouseObjects,2,stim/objects/HouseObjects/glass.png,0.5,4,0.2,-0.15,right,51,2021-01-21_09h07.26.728,premup-three_ses-02_part-02_label-phase2,3.2.4,Win32,60,,,,,,,,,,,,,,,,,,,,,,,,,,,,,
right,0.838999987,0,57,1,0,1,0,1,0,1,0,240,17,1,239,1,3,2,stim/32.jpeg,Instruments,1,stim/objects/Instruments/electricdrumset.png,0.5,2,0.2,0.15,left,51,2021-01-21_09h07.26.728,premup-three_ses-02_part-02_label-phase2,3.2.4,Win32,60,,,,,,,,,,,,,,,,,,,,,,,,,,,,,
,,0,58,1,0,1,0,1,0,1,0,240,39,1,239,1,3,4,stim/34.jpeg,HouseObjects,2,stim/objects/HouseObjects/doormat.png,0.5,3,-0.2,-0.15,right,51,2021-01-21_09h07.26.728,premup-three_ses-02_part-02_label-phase2,3.2.4,Win32,60,,,,,,,,,,,,,,,,,,,,,,,,,,,,,
left,0.684999943,0,59,1,0,1,0,1,0,1,0,240,152,1,239,2,6,1,stim/61.jpeg,HouseObjects,2,stim/objects/HouseObjects/coffee2.png,0.3,2,0.2,0.15,right,51,2021-01-21_09h07.26.728,premup-three_ses-02_part-02_label-phase2,3.2.4,Win32,60,,,,,,,,,,,,,,,,,,,,,,,,,,,,,
left,0.736000061,0,60,1,0,1,0,1,0,1,0,240,67,1,239,1,4,4,stim/44.jpeg,HouseObjects,2,stim/objects/HouseObjects/glass.png,0.5,2,0.2,0.15,right,51,2021-01-21_09h07.26.728,premup-three_ses-02_part-02_label-phase2,3.2.4,Win32,60,,,,,,,,,,,,,,,,,,,,,,,,,,,,,
left,0.836999893,0,61,1,0,1,0,1,0,1,0,240,38,1,239,1,3,3,stim/33.jpeg,HouseObjects,2,stim/objects/HouseObjects/dishsoap.png,0.5,3,-0.2,-0.15,right,51,2021-01-21_09h07.26.728,premup-three_ses-02_part-02_label-phase2,3.2.4,Win32,60,,,,,,,,,,,,,,,,,,,,,,,,,,,,,
left,0.752000093,1,62,1,0,1,0,1,0,1,0,240,126,1,239,2,6,3,stim/63.jpeg,Instruments,1,stim/objects/Instruments/electricguitar2.png,0.7,1,-0.2,0.15,left,51,2021-01-21_09h07.26.728,premup-three_ses-02_part-02_label-phase2,3.2.4,Win32,60,,,,,,,,,,,,,,,,,,,,,,,,,,,,,
right,0.682999849,1,63,1,0,1,0,1,0,1,0,240,196,1,239,3,1,1,stim/11.jpeg,HouseObjects,2,stim/objects/HouseObjects/dustpan2.png,0.9,2,0.2,0.15,right,51,2021-01-21_09h07.26.728,premup-three_ses-02_part-02_label-phase2,3.2.4,Win32,60,,,,,,,,,,,,,,,,,,,,,,,,,,,,,
right,0.636999846,1,64,1,0,1,0,1,0,1,0,240,64,1,239,1,4,1,stim/41.jpeg,HouseObjects,2,stim/objects/HouseObjects/dustpan.png,0.5,4,0.2,-0.15,right,51,2021-01-21_09h07.26.728,premup-three_ses-02_part-02_label-phase2,3.2.4,Win32,60,,,,,,,,,,,,,,,,,,,,,,,,,,,,,
left,0.532999992,1,65,1,0,1,0,1,0,1,0,240,220,1,239,3,2,1,stim/21.jpeg,Instruments,1,stim/objects/Instruments/guitarcase2.png,0.9,1,-0.2,0.15,left,51,2021-01-21_09h07.26.728,premup-three_ses-02_part-02_label-phase2,3.2.4,Win32,60,,,,,,,,,,,,,,,,,,,,,,,,,,,,,
right,0.645999908,0,66,1,0,1,0,1,0,1,0,240,44,1,239,1,4,1,stim/41.jpeg,Instruments,1,stim/objects/Instruments/flutetrans.png,0.5,1,-0.2,0.15,left,51,2021-01-21_09h07.26.728,premup-three_ses-02_part-02_label-phase2,3.2.4,Win32,60,,,,,,,,,,,,,,,,,,,,,,,,,,,,,
left,0.642999887,1,67,1,0,1,0,1,0,1,0,240,202,1,239,3,2,3,stim/23.jpeg,Instruments,1,stim/objects/Instruments/harp2.png,0.9,3,-0.2,-0.15,left,51,2021-01-21_09h07.26.728,premup-three_ses-02_part-02_label-phase2,3.2.4,Win32,60,,,,,,,,,,,,,,,,,,,,,,,,,,,,,
right,0.597999811,1,68,1,0,1,0,1,0,1,0,240,70,1,239,1,4,3,stim/43.jpeg,HouseObjects,2,stim/objects/HouseObjects/garbagebin.png,0.5,1,-0.2,0.15,right,51,2021-01-21_09h07.26.728,premup-three_ses-02_part-02_label-phase2,3.2.4,Win32,60,,,,,,,,,,,,,,,,,,,,,,,,,,,,,
left,0.661999941,0,69,1,0,1,0,1,0,1,0,240,237,1,239,3,2,2,stim/22.jpeg,HouseObjects,2,stim/objects/HouseObjects/hairdryer2.png,0.1,2,0.2,0.15,right,51,2021-01-21_09h07.26.728,premup-three_ses-02_part-02_label-phase2,3.2.4,Win32,60,,,,,,,,,,,,,,,,,,,,,,,,,,,,,
right,0.664000034,1,70,1,0,1,0,1,0,1,0,240,115,1,239,2,5,4,stim/54.jpeg,HouseObjects,2,stim/objects/HouseObjects/handvacuum.png,0.7,4,0.2,-0.15,right,51,2021-01-21_09h07.26.728,premup-three_ses-02_part-02_label-phase2,3.2.4,Win32,60,,,,,,,,,,,,,,,,,,,,,,,,,,,,,
right,0.622999907,1,71,1,0,1,0,1,0,1,0,240,109,1,239,2,5,2,stim/52.jpeg,HouseObjects,2,stim/objects/HouseObjects/hairdryer.png,0.7,4,0.2,-0.15,right,51,2021-01-21_09h07.26.728,premup-three_ses-02_part-02_label-phase2,3.2.4,Win32,60,,,,,,,,,,,,,,,,,,,,,,,,,,,,,
right,0.589999914,1,72,1,0,1,0,1,0,1,0,240,24,1,239,1,3,1,stim/31.jpeg,HouseObjects,2,stim/objects/HouseObjects/coffee.png,0.5,2,0.2,0.15,right,51,2021-01-21_09h07.26.728,premup-three_ses-02_part-02_label-phase2,3.2.4,Win32,60,,,,,,,,,,,,,,,,,,,,,,,,,,,,,
left,0.720000029,1,73,1,0,1,0,1,0,1,0,240,127,1,239,2,6,4,stim/64.jpeg,Instruments,1,stim/objects/Instruments/flute2.png,0.7,4,0.2,-0.15,left,51,2021-01-21_09h07.26.728,premup-three_ses-02_part-02_label-phase2,3.2.4,Win32,60,,,,,,,,,,,,,,,,,,,,,,,,,,,,,
left,0.635999918,1,74,1,0,1,0,1,0,1,0,240,138,1,239,2,6,3,stim/63.jpeg,Instruments,1,stim/objects/Instruments/electricguitar2.png,0.7,2,0.2,0.15,left,51,2021-01-21_09h07.26.728,premup-three_ses-02_part-02_label-phase2,3.2.4,Win32,60,,,,,,,,,,,,,,,,,,,,,,,,,,,,,
right,0.572000027,0,75,1,0,1,0,1,0,1,0,240,50,1,239,1,4,3,stim/43.jpeg,Instruments,1,stim/objects/Instruments/gong.png,0.5,1,-0.2,0.15,left,51,2021-01-21_09h07.26.728,premup-three_ses-02_part-02_label-phase2,3.2.4,Win32,60,,,,,,,,,,,,,,,,,,,,,,,,,,,,,
right,0.684000015,1,76,1,0,1,0,1,0,1,0,240,68,1,239,1,4,1,stim/41.jpeg,HouseObjects,2,stim/objects/HouseObjects/dustpan.png,0.5,4,0.2,-0.15,right,51,2021-01-21_09h07.26.728,premup-three_ses-02_part-02_label-phase2,3.2.4,Win32,60,,,,,,,,,,,,,,,,,,,,,,,,,,,,,
left,0.792999983,0,77,1,0,1,0,1,0,1,0,240,30,1,239,1,3,3,stim/33.jpeg,HouseObjects,2,stim/objects/HouseObjects/dishsoap.png,0.5,3,-0.2,-0.15,right,51,2021-01-21_09h07.26.728,premup-three_ses-02_part-02_label-phase2,3.2.4,Win32,60,,,,,,,,,,,,,,,,,,,,,,,,,,,,,
left,0.67599988,1,78,1,0,1,0,1,0,1,0,240,214,1,239,3,2,3,stim/23.jpeg,Instruments,1,stim/objects/Instruments/harp2.png,0.9,1,-0.2,0.15,left,51,2021-01-21_09h07.26.728,premup-three_ses-02_part-02_label-phase2,3.2.4,Win32,60,,,,,,,,,,,,,,,,,,,,,,,,,,,,,
left,0.680000067,1,79,1,0,1,0,1,0,1,0,240,221,1,239,3,2,2,stim/22.jpeg,Instruments,1,stim/objects/Instruments/harmonica2.png,0.9,2,0.2,0.15,left,51,2021-01-21_09h07.26.728,premup-three_ses-02_part-02_label-phase2,3.2.4,Win32,60,,,,,,,,,,,,,,,,,,,,,,,,,,,,,
left,0.787999868,1,80,1,0,1,0,1,0,1,0,240,232,1,239,3,2,1,stim/21.jpeg,Instruments,1,stim/objects/Instruments/guitarcase2.png,0.9,2,0.2,0.15,left,51,2021-01-21_09h07.26.728,premup-three_ses-02_part-02_label-phase2,3.2.4,Win32,60,,,,,,,,,,,,,,,,,,,,,,,,,,,,,
left,0.786000013,0,81,1,0,1,0,1,0,1,0,240,60,1,239,1,4,1,stim/41.jpeg,HouseObjects,2,stim/objects/HouseObjects/dustpan.png,0.5,1,-0.2,0.15,right,51,2021-01-21_09h07.26.728,premup-three_ses-02_part-02_label-phase2,3.2.4,Win32,60,,,,,,,,,,,,,,,,,,,,,,,,,,,,,
right,0.665999889,1,82,1,0,1,0,1,0,1,0,240,112,1,239,2,5,1,stim/51.jpeg,HouseObjects,2,stim/objects/HouseObjects/glassmop.png,0.7,4,0.2,-0.15,right,51,2021-01-21_09h07.26.728,premup-three_ses-02_part-02_label-phase2,3.2.4,Win32,60,,,,,,,,,,,,,,,,,,,,,,,,,,,,,
right,0.703000069,0,83,1,0,1,0,1,0,1,0,240,82,1,239,2,5,3,stim/53.jpeg,Instruments,1,stim/objects/Instruments/harp.png,0.3,1,-0.2,0.15,left,51,2021-01-21_09h07.26.728,premup-three_ses-02_part-02_label-phase2,3.2.4,Win32,60,,,,,,,,,,,,,,,,,,,,,,,,,,,,,
left,0.756000042,0,84,1,0,1,0,1,0,1,0,240,35,1,239,1,3,4,stim/34.jpeg,HouseObjects,2,stim/objects/HouseObjects/doormat.png,0.5,3,-0.2,-0.15,right,51,2021-01-21_09h07.26.728,premup-three_ses-02_part-02_label-phase2,3.2.4,Win32,60,,,,,,,,,,,,,,,,,,,,,,,,,,,,,
right,0.924999952,0,85,1,0,1,0,1,0,1,0,240,14,1,239,1,3,3,stim/33.jpeg,Instruments,1,stim/objects/Instruments/electricguitar.png,0.5,4,0.2,-0.15,left,51,2021-01-21_09h07.26.728,premup-three_ses-02_part-02_label-phase2,3.2.4,Win32,60,,,,,,,,,,,,,,,,,,,,,,,,,,,,,
right,0.688999891,0,86,1,0,1,0,1,0,1,0,240,55,1,239,1,4,4,stim/44.jpeg,Instruments,1,stim/objects/Instruments/grandpiano.png,0.5,2,0.2,0.15,left,51,2021-01-21_09h07.26.728,premup-three_ses-02_part-02_label-phase2,3.2.4,Win32,60,,,,,,,,,,,,,,,,,,,,,,,,,,,,,
right,0.941999912,0,87,1,0,1,0,1,0,1,0,240,83,1,239,2,5,4,stim/54.jpeg,Instruments,1,stim/objects/Instruments/hihat.png,0.3,1,-0.2,0.15,left,51,2021-01-21_09h07.26.728,premup-three_ses-02_part-02_label-phase2,3.2.4,Win32,60,,,,,,,,,,,,,,,,,,,,,,,,,,,,,
right,0.67599988,0,88,1,0,1,0,1,0,1,0,240,54,1,239,1,4,3,stim/43.jpeg,Instruments,1,stim/objects/Instruments/gong.png,0.5,2,0.2,0.15,left,51,2021-01-21_09h07.26.728,premup-three_ses-02_part-02_label-phase2,3.2.4,Win32,60,,,,,,,,,,,,,,,,,,,,,,,,,,,,,
right,0.806999922,1,89,1,0,1,0,1,0,1,0,240,107,1,239,2,5,4,stim/54.jpeg,HouseObjects,2,stim/objects/HouseObjects/handvacuum.png,0.7,2,0.2,0.15,right,51,2021-01-21_09h07.26.728,premup-three_ses-02_part-02_label-phase2,3.2.4,Win32,60,,,,,,,,,,,,,,,,,,,,,,,,,,,,,
right,0.628000021,1,90,1,0,1,0,1,0,1,0,240,182,1,239,3,1,3,stim/13.jpeg,HouseObjects,2,stim/objects/HouseObjects/garbagebin2.png,0.9,1,-0.2,0.15,right,51,2021-01-21_09h07.26.728,premup-three_ses-02_part-02_label-phase2,3.2.4,Win32,60,,,,,,,,,,,,,,,,,,,,,,,,,,,,,
right,0.657000065,0,91,1,0,1,0,1,0,1,0,240,209,1,239,3,2,2,stim/22.jpeg,Instruments,1,stim/objects/Instruments/harmonica2.png,0.9,4,0.2,-0.15,left,51,2021-01-21_09h07.26.728,premup-three_ses-02_part-02_label-phase2,3.2.4,Win32,60,,,,,,,,,,,,,,,,,,,,,,,,,,,,,
right,0.799999952,0,92,1,0,1,0,1,0,1,0,240,137,1,239,2,6,2,stim/62.jpeg,Instruments,1,stim/objects/Instruments/electricdrumset2.png,0.7,2,0.2,0.15,left,51,2021-01-21_09h07.26.728,premup-three_ses-02_part-02_label-phase2,3.2.4,Win32,60,,,,,,,,,,,,,,,,,,,,,,,,,,,,,
left,0.85199976,0,93,1,0,1,0,1,0,1,0,240,150,1,239,2,6,3,stim/63.jpeg,HouseObjects,2,stim/objects/HouseObjects/dishsoap2.png,0.3,4,0.2,-0.15,right,51,2021-01-21_09h07.26.728,premup-three_ses-02_part-02_label-phase2,3.2.4,Win32,60,,,,,,,,,,,,,,,,,,,,,,,,,,,,,
right,0.911000013,0,94,1,0,1,0,1,0,1,0,240,219,1,239,3,2,4,stim/24.jpeg,Instruments,1,stim/objects/Instruments/hihat2.png,0.9,1,-0.2,0.15,left,51,2021-01-21_09h07.26.728,premup-three_ses-02_part-02_label-phase2,3.2.4,Win32,60,,,,,,,,,,,,,,,,,,,,,,,,,,,,,
right,0.720999956,0,95,1,0,1,0,1,0,1,0,240,12,1,239,1,3,1,stim/31.jpeg,Instruments,1,stim/objects/Instruments/drums.png,0.5,2,0.2,0.15,left,51,2021-01-21_09h07.26.728,premup-three_ses-02_part-02_label-phase2,3.2.4,Win32,60,,,,,,,,,,,,,,,,,,,,,,,,,,,,,
right,0.853999853,1,96,1,0,1,0,1,0,1,0,240,105,1,239,2,5,2,stim/52.jpeg,HouseObjects,2,stim/objects/HouseObjects/hairdryer.png,0.7,2,0.2,0.15,right,51,2021-01-21_09h07.26.728,premup-three_ses-02_part-02_label-phase2,3.2.4,Win32,60,,,,,,,,,,,,,,,,,,,,,,,,,,,,,
right,0.713999987,1,97,1,0,1,0,1,0,1,0,240,66,1,239,1,4,3,stim/43.jpeg,HouseObjects,2,stim/objects/HouseObjects/garbagebin.png,0.5,3,-0.2,-0.15,right,51,2021-01-21_09h07.26.728,premup-three_ses-02_part-02_label-phase2,3.2.4,Win32,60,,,,,,,,,,,,,,,,,,,,,,,,,,,,,
left,0.652999878,0,98,1,0,1,0,1,0,1,0,240,153,1,239,2,6,2,stim/62.jpeg,HouseObjects,2,stim/objects/HouseObjects/cushion2.png,0.3,2,0.2,0.15,right,51,2021-01-21_09h07.26.728,premup-three_ses-02_part-02_label-phase2,3.2.4,Win32,60,,,,,,,,,,,,,,,,,,,,,,,,,,,,,
left,0.696000099,1,99,1,0,1,0,1,0,1,0,240,230,1,239,3,2,3,stim/23.jpeg,Instruments,1,stim/objects/Instruments/harp2.png,0.9,4,0.2,-0.15,left,51,2021-01-21_09h07.26.728,premup-three_ses-02_part-02_label-phase2,3.2.4,Win32,60,,,,,,,,,,,,,,,,,,,,,,,,,,,,,
right,0.753999949,1,100,1,0,1,0,1,0,1,0,240,116,1,239,2,5,1,stim/51.jpeg,HouseObjects,2,stim/objects/HouseObjects/glassmop.png,0.7,3,-0.2,-0.15,right,51,2021-01-21_09h07.26.728,premup-three_ses-02_part-02_label-phase2,3.2.4,Win32,60,,,,,,,,,,,,,,,,,,,,,,,,,,,,,
left,0.655999899,1,101,1,0,1,0,1,0,1,0,240,211,1,239,3,2,4,stim/24.jpeg,Instruments,1,stim/objects/Instruments/hihat2.png,0.9,3,-0.2,-0.15,left,51,2021-01-21_09h07.26.728,premup-three_ses-02_part-02_label-phase2,3.2.4,Win32,60,,,,,,,,,,,,,,,,,,,,,,,,,,,,,
right,0.687000036,1,102,1,0,1,0,1,0,1,0,240,76,1,239,1,4,1,stim/41.jpeg,HouseObjects,2,stim/objects/HouseObjects/dustpan.png,0.5,4,0.2,-0.15,right,51,2021-01-21_09h07.26.728,premup-three_ses-02_part-02_label-phase2,3.2.4,Win32,60,,,,,,,,,,,,,,,,,,,,,,,,,,,,,
right,0.598999977,1,103,1,0,1,0,1,0,1,0,240,189,1,239,3,1,2,stim/12.jpeg,HouseObjects,2,stim/objects/HouseObjects/flyswatter2.png,0.9,4,0.2,-0.15,right,51,2021-01-21_09h07.26.728,premup-three_ses-02_part-02_label-phase2,3.2.4,Win32,60,,,,,,,,,,,,,,,,,,,,,,,,,,,,,
right,0.637000084,0,104,1,0,1,0,1,0,1,0,240,1,1,239,1,3,2,stim/32.jpeg,Instruments,1,stim/objects/Instruments/electricdrumset.png,0.5,4,0.2,-0.15,left,51,2021-01-21_09h07.26.728,premup-three_ses-02_part-02_label-phase2,3.2.4,Win32,60,,,,,,,,,,,,,,,,,,,,,,,,,,,,,
left,0.720999956,1,105,1,0,1,0,1,0,1,0,240,143,1,239,2,6,4,stim/64.jpeg,Instruments,1,stim/objects/Instruments/flute2.png,0.7,4,0.2,-0.15,left,51,2021-01-21_09h07.26.728,premup-three_ses-02_part-02_label-phase2,3.2.4,Win32,60,,,,,,,,,,,,,,,,,,,,,,,,,,,,,
left,0.555999994,0,106,1,0,1,0,1,0,1,0,240,239,1,239,3,2,4,stim/24.jpeg,HouseObjects,2,stim/objects/HouseObjects/handvacuum2.png,0.1,3,-0.2,-0.15,right,51,2021-01-21_09h07.26.728,premup-three_ses-02_part-02_label-phase2,3.2.4,Win32,60,,,,,,,,,,,,,,,,,,,,,,,,,,,,,
right,0.917000055,0,107,1,0,1,0,1,0,1,0,240,5,1,239,1,3,2,stim/32.jpeg,Instruments,1,stim/objects/Instruments/electricdrumset.png,0.5,3,-0.2,-0.15,left,51,2021-01-21_09h07.26.728,premup-three_ses-02_part-02_label-phase2,3.2.4,Win32,60,,,,,,,,,,,,,,,,,,,,,,,,,,,,,
left,0.592999935,0,108,1,0,1,0,1,0,1,0,240,151,1,239,2,6,4,stim/64.jpeg,HouseObjects,2,stim/objects/HouseObjects/doormat2.png,0.3,4,0.2,-0.15,right,51,2021-01-21_09h07.26.728,premup-three_ses-02_part-02_label-phase2,3.2.4,Win32,60,,,,,,,,,,,,,,,,,,,,,,,,,,,,,
right,0.805999756,1,109,1,0,1,0,1,0,1,0,240,195,1,239,3,1,4,stim/14.jpeg,HouseObjects,2,stim/objects/HouseObjects/glass2.png,0.9,3,-0.2,-0.15,right,51,2021-01-21_09h07.26.728,premup-three_ses-02_part-02_label-phase2,3.2.4,Win32,60,,,,,,,,,,,,,,,,,,,,,,,,,,,,,
left,0.753999949,0,110,1,0,1,0,1,0,1,0,240,69,1,239,1,4,2,stim/42.jpeg,HouseObjects,2,stim/objects/HouseObjects/flyswatter.png,0.5,3,-0.2,-0.15,right,51,2021-01-21_09h07.26.728,premup-three_ses-02_part-02_label-phase2,3.2.4,Win32,60,,,,,,,,,,,,,,,,,,,,,,,,,,,,,
right,0.684999943,1,111,1,0,1,0,1,0,1,0,240,156,1,239,2,6,1,stim/61.jpeg,HouseObjects,2,stim/objects/HouseObjects/coffee2.png,0.3,3,-0.2,-0.15,right,51,2021-01-21_09h07.26.728,premup-three_ses-02_part-02_label-phase2,3.2.4,Win32,60,,,,,,,,,,,,,,,,,,,,,,,,,,,,,
left,0.673999786,1,112,1,0,1,0,1,0,1,0,240,145,1,239,2,6,2,stim/62.jpeg,Instruments,1,stim/objects/Instruments/electricdrumset2.png,0.7,4,0.2,-0.15,left,51,2021-01-21_09h07.26.728,premup-three_ses-02_part-02_label-phase2,3.2.4,Win32,60,,,,,,,,,,,,,,,,,,,,,,,,,,,,,
right,0.631000042,0,113,1,0,1,0,1,0,1,0,240,46,1,239,1,4,3,stim/43.jpeg,Instruments,1,stim/objects/Instruments/gong.png,0.5,4,0.2,-0.15,left,51,2021-01-21_09h07.26.728,premup-three_ses-02_part-02_label-phase2,3.2.4,Win32,60,,,,,,,,,,,,,,,,,,,,,,,,,,,,,
left,0.697000027,0,114,1,0,1,0,1,0,1,0,240,238,1,239,3,2,3,stim/23.jpeg,HouseObjects,2,stim/objects/HouseObjects/handbrush2.png,0.1,4,0.2,-0.15,right,51,2021-01-21_09h07.26.728,premup-three_ses-02_part-02_label-phase2,3.2.4,Win32,60,,,,,,,,,,,,,,,,,,,,,,,,,,,,,
,,0,115,1,0,1,0,1,0,1,0,240,10,1,239,1,3,3,stim/33.jpeg,Instruments,1,stim/objects/Instruments/electricguitar.png,0.5,1,-0.2,0.15,left,51,2021-01-21_09h07.26.728,premup-three_ses-02_part-02_label-phase2,3.2.4,Win32,60,,,,,,,,,,,,,,,,,,,,,,,,,,,,,
right,0.620999813,1,116,1,0,1,0,1,0,1,0,240,180,1,239,3,1,1,stim/11.jpeg,HouseObjects,2,stim/objects/HouseObjects/dustpan2.png,0.9,4,0.2,-0.15,right,51,2021-01-21_09h07.26.728,premup-three_ses-02_part-02_label-phase2,3.2.4,Win32,60,,,,,,,,,,,,,,,,,,,,,,,,,,,,,
left,0.592000008,0,117,1,0,1,0,1,0,1,0,240,158,1,239,2,6,3,stim/63.jpeg,HouseObjects,2,stim/objects/HouseObjects/dishsoap2.png,0.3,4,0.2,-0.15,right,51,2021-01-21_09h07.26.728,premup-three_ses-02_part-02_label-phase2,3.2.4,Win32,60,,,,,,,,,,,,,,,,,,,,,,,,,,,,,
left,0.586999893,1,118,1,0,1,0,1,0,1,0,240,8,1,239,1,3,1,stim/31.jpeg,Instruments,1,stim/objects/Instruments/drums.png,0.5,1,-0.2,0.15,left,51,2021-01-21_09h07.26.728,premup-three_ses-02_part-02_label-phase2,3.2.4,Win32,60,,,,,,,,,,,,,,,,,,,,,,,,,,,,,
left,0.684999943,1,119,1,0,1,0,1,0,1,0,240,226,1,239,3,2,3,stim/23.jpeg,Instruments,1,stim/objects/Instruments/harp2.png,0.9,1,-0.2,0.15,left,51,2021-01-21_09h07.26.728,premup-three_ses-02_part-02_label-phase2,3.2.4,Win32,60,,,,,,,,,,,,,,,,,,,,,,,,,,,,,
left,0.519999981,0,120,1,0,1,0,1,0,1,0,240,23,1,239,1,3,4,stim/34.jpeg,HouseObjects,2,stim/objects/HouseObjects/doormat.png,0.5,1,-0.2,0.15,right,51,2021-01-21_09h07.26.728,premup-three_ses-02_part-02_label-phase2,3.2.4,Win32,60,,,,,,,,,,,,,,,,,,,,,,,,,,,,,
left,0.754999876,1,121,1,0,1,0,1,0,1,0,240,140,1,239,2,6,1,stim/61.jpeg,Instruments,1,stim/objects/Instruments/drums2.png,0.7,4,0.2,-0.15,left,51,2021-01-21_09h07.26.728,premup-three_ses-02_part-02_label-phase2,3.2.4,Win32,60,,,,,,,,,,,,,,,,,,,,,,,,,,,,,
right,0.58100009,1,122,1,0,1,0,1,0,1,0,240,177,1,239,3,1,2,stim/12.jpeg,HouseObjects,2,stim/objects/HouseObjects/flyswatter2.png,0.9,4,0.2,-0.15,right,51,2021-01-21_09h07.26.728,premup-three_ses-02_part-02_label-phase2,3.2.4,Win32,60,,,,,,,,,,,,,,,,,,,,,,,,,,,,,
right,0.670999765,1,123,1,0,1,0,1,0,1,0,240,103,1,239,2,5,4,stim/54.jpeg,HouseObjects,2,stim/objects/HouseObjects/handvacuum.png,0.7,4,0.2,-0.15,right,51,2021-01-21_09h07.26.728,premup-three_ses-02_part-02_label-phase2,3.2.4,Win32,60,,,,,,,,,,,,,,,,,,,,,,,,,,,,,
right,0.836999893,0,124,1,0,1,0,1,0,1,0,240,11,1,239,1,3,4,stim/34.jpeg,Instruments,1,stim/objects/Instruments/flute.png,0.5,2,0.2,0.15,left,51,2021-01-21_09h07.26.728,premup-three_ses-02_part-02_label-phase2,3.2.4,Win32,60,,,,,,,,,,,,,,,,,,,,,,,,,,,,,
right,0.602999926,1,125,1,0,1,0,1,0,1,0,240,181,1,239,3,1,2,stim/12.jpeg,HouseObjects,2,stim/objects/HouseObjects/flyswatter2.png,0.9,4,0.2,-0.15,right,51,2021-01-21_09h07.26.728,premup-three_ses-02_part-02_label-phase2,3.2.4,Win32,60,,,,,,,,,,,,,,,,,,,,,,,,,,,,,
right,0.595999956,1,126,1,0,1,0,1,0,1,0,240,111,1,239,2,5,4,stim/54.jpeg,HouseObjects,2,stim/objects/HouseObjects/handvacuum.png,0.7,1,-0.2,0.15,right,51,2021-01-21_09h07.26.728,premup-three_ses-02_part-02_label-phase2,3.2.4,Win32,60,,,,,,,,,,,,,,,,,,,,,,,,,,,,,
left,0.696000099,0,127,1,0,1,0,1,0,1,0,240,99,1,239,2,5,4,stim/54.jpeg,HouseObjects,2,stim/objects/HouseObjects/handvacuum.png,0.7,1,-0.2,0.15,right,51,2021-01-21_09h07.26.728,premup-three_ses-02_part-02_label-phase2,3.2.4,Win32,60,,,,,,,,,,,,,,,,,,,,,,,,,,,,,
left,0.642999887,1,128,1,0,1,0,1,0,1,0,240,210,1,239,3,2,3,stim/23.jpeg,Instruments,1,stim/objects/Instruments/harp2.png,0.9,4,0.2,-0.15,left,51,2021-01-21_09h07.26.728,premup-three_ses-02_part-02_label-phase2,3.2.4,Win32,60,,,,,,,,,,,,,,,,,,,,,,,,,,,,,
right,0.602999926,0,129,1,0,1,0,1,0,1,0,240,41,1,239,1,4,2,stim/42.jpeg,Instruments,1,stim/objects/Instruments/frenchhorn.png,0.5,2,0.2,0.15,left,51,2021-01-21_09h07.26.728,premup-three_ses-02_part-02_label-phase2,3.2.4,Win32,60,,,,,,,,,,,,,,,,,,,,,,,,,,,,,
right,0.595000029,1,130,1,0,1,0,1,0,1,0,240,117,1,239,2,5,2,stim/52.jpeg,HouseObjects,2,stim/objects/HouseObjects/hairdryer.png,0.7,3,-0.2,-0.15,right,51,2021-01-21_09h07.26.728,premup-three_ses-02_part-02_label-phase2,3.2.4,Win32,60,,,,,,,,,,,,,,,,,,,,,,,,,,,,,
right,0.638000011,0,131,1,0,1,0,1,0,1,0,240,56,1,239,1,4,1,stim/41.jpeg,Instruments,1,stim/objects/Instruments/flutetrans.png,0.5,2,0.2,0.15,left,51,2021-01-21_09h07.26.728,premup-three_ses-02_part-02_label-phase2,3.2.4,Win32,60,,,,,,,,,,,,,,,,,,,,,,,,,,,,,
right,0.84100008,1,132,1,0,1,0,1,0,1,0,240,25,1,239,1,3,2,stim/32.jpeg,HouseObjects,2,stim/objects/HouseObjects/cushion.png,0.5,3,-0.2,-0.15,right,51,2021-01-21_09h07.26.728,premup-three_ses-02_part-02_label-phase2,3.2.4,Win32,60,,,,,,,,,,,,,,,,,,,,,,,,,,,,,
left,0.834000111,1,133,1,0,1,0,1,0,1,0,240,130,1,239,2,6,3,stim/63.jpeg,Instruments,1,stim/objects/Instruments/electricguitar2.png,0.7,2,0.2,0.15,left,51,2021-01-21_09h07.26.728,premup-three_ses-02_part-02_label-phase2,3.2.4,Win32,60,,,,,,,,,,,,,,,,,,,,,,,,,,,,,
right,0.853999853,0,134,1,0,1,0,1,0,1,0,240,43,1,239,1,4,4,stim/44.jpeg,Instruments,1,stim/objects/Instruments/grandpiano.png,0.5,3,-0.2,-0.15,left,51,2021-01-21_09h07.26.728,premup-three_ses-02_part-02_label-phase2,3.2.4,Win32,60,,,,,,,,,,,,,,,,,,,,,,,,,,,,,
right,0.65199995,0,135,1,0,1,0,1,0,1,0,240,91,1,239,2,5,4,stim/54.jpeg,Instruments,1,stim/objects/Instruments/hihat.png,0.3,2,0.2,0.15,left,51,2021-01-21_09h07.26.728,premup-three_ses-02_part-02_label-phase2,3.2.4,Win32,60,,,,,,,,,,,,,,,,,,,,,,,,,,,,,
left,0.586999893,0,136,1,0,1,0,1,0,1,0,240,155,1,239,2,6,4,stim/64.jpeg,HouseObjects,2,stim/objects/HouseObjects/doormat2.png,0.3,1,-0.2,0.15,right,51,2021-01-21_09h07.26.728,premup-three_ses-02_part-02_label-phase2,3.2.4,Win32,60,,,,,,,,,,,,,,,,,,,,,,,,,,,,,
left,0.695999861,0,137,1,0,1,0,1,0,1,0,240,20,1,239,1,3,1,stim/31.jpeg,HouseObjects,2,stim/objects/HouseObjects/coffee.png,0.5,1,-0.2,0.15,right,51,2021-01-21_09h07.26.728,premup-three_ses-02_part-02_label-phase2,3.2.4,Win32,60,,,,,,,,,,,,,,,,,,,,,,,,,,,,,
left,0.610999823,1,138,1,0,1,0,1,0,1,0,240,218,1,239,3,2,3,stim/23.jpeg,Instruments,1,stim/objects/Instruments/harp2.png,0.9,2,0.2,0.15,left,51,2021-01-21_09h07.26.728,premup-three_ses-02_part-02_label-phase2,3.2.4,Win32,60,,,,,,,,,,,,,,,,,,,,,,,,,,,,,
left,0.672999859,0,139,1,0,1,0,1,0,1,0,240,149,1,239,2,6,2,stim/62.jpeg,HouseObjects,2,stim/objects/HouseObjects/cushion2.png,0.3,4,0.2,-0.15,right,51,2021-01-21_09h07.26.728,premup-three_ses-02_part-02_label-phase2,3.2.4,Win32,60,,,,,,,,,,,,,,,,,,,,,,,,,,,,,
left,0.903999805,1,140,1,0,1,0,1,0,1,0,240,9,1,239,1,3,2,stim/32.jpeg,Instruments,1,stim/objects/Instruments/electricdrumset.png,0.5,4,0.2,-0.15,left,51,2021-01-21_09h07.26.728,premup-three_ses-02_part-02_label-phase2,3.2.4,Win32,60,,,,,,,,,,,,,,,,,,,,,,,,,,,,,
right,0.694000006,1,141,1,0,1,0,1,0,1,0,240,175,1,239,3,1,4,stim/14.jpeg,HouseObjects,2,stim/objects/HouseObjects/glass2.png,0.9,2,0.2,0.15,right,51,2021-01-21_09h07.26.728,premup-three_ses-02_part-02_label-phase2,3.2.4,Win32,60,,,,,,,,,,,,,,,,,,,,,,,,,,,,,
right,0.904000044,1,142,1,0,1,0,1,0,1,0,240,27,1,239,1,3,4,stim/34.jpeg,HouseObjects,2,stim/objects/HouseObjects/doormat.png,0.5,1,-0.2,0.15,right,51,2021-01-21_09h07.26.728,premup-three_ses-02_part-02_label-phase2,3.2.4,Win32,60,,,,,,,,,,,,,,,,,,,,,,,,,,,,,
right,0.588000059,1,143,1,0,1,0,1,0,1,0,240,198,1,239,3,1,3,stim/13.jpeg,HouseObjects,2,stim/objects/HouseObjects/garbagebin2.png,0.9,3,-0.2,-0.15,right,51,2021-01-21_09h07.26.728,premup-three_ses-02_part-02_label-phase2,3.2.4,Win32,60,,,,,,,,,,,,,,,,,,,,,,,,,,,,,
right,0.637999773,0,144,1,0,1,0,1,0,1,0,240,222,1,239,3,2,3,stim/23.jpeg,Instruments,1,stim/objects/Instruments/harp2.png,0.9,4,0.2,-0.15,left,51,2021-01-21_09h07.26.728,premup-three_ses-02_part-02_label-phase2,3.2.4,Win32,60,,,,,,,,,,,,,,,,,,,,,,,,,,,,,
right,0.655999899,1,145,1,0,1,0,1,0,1,0,240,32,1,239,1,3,1,stim/31.jpeg,HouseObjects,2,stim/objects/HouseObjects/coffee.png,0.5,1,-0.2,0.15,right,51,2021-01-21_09h07.26.728,premup-three_ses-02_part-02_label-phase2,3.2.4,Win32,60,,,,,,,,,,,,,,,,,,,,,,,,,,,,,
right,0.944000006,0,146,1,0,1,0,1,0,1,0,240,88,1,239,2,5,1,stim/51.jpeg,Instruments,1,stim/objects/Instruments/guitarcase.png,0.3,1,-0.2,0.15,left,51,2021-01-21_09h07.26.728,premup-three_ses-02_part-02_label-phase2,3.2.4,Win32,60,,,,,,,,,,,,,,,,,,,,,,,,,,,,,
right,0.558999777,1,147,1,0,1,0,1,0,1,0,240,169,1,239,3,1,2,stim/12.jpeg,HouseObjects,2,stim/objects/HouseObjects/flyswatter2.png,0.9,1,-0.2,0.15,right,51,2021-01-21_09h07.26.728,premup-three_ses-02_part-02_label-phase2,3.2.4,Win32,60,,,,,,,,,,,,,,,,,,,,,,,,,,,,,
left,0.571000099,0,148,1,0,1,0,1,0,1,0,240,104,1,239,2,5,1,stim/51.jpeg,HouseObjects,2,stim/objects/HouseObjects/glassmop.png,0.7,1,-0.2,0.15,right,51,2021-01-21_09h07.26.728,premup-three_ses-02_part-02_label-phase2,3.2.4,Win32,60,,,,,,,,,,,,,,,,,,,,,,,,,,,,,
left,0.677999973,1,149,1,0,1,0,1,0,1,0,240,229,1,239,3,2,2,stim/22.jpeg,Instruments,1,stim/objects/Instruments/harmonica2.png,0.9,3,-0.2,-0.15,left,51,2021-01-21_09h07.26.728,premup-three_ses-02_part-02_label-phase2,3.2.4,Win32,60,,,,,,,,,,,,,,,,,,,,,,,,,,,,,
left,0.740999937,0,150,1,0,1,0,1,0,1,0,240,79,1,239,1,4,4,stim/44.jpeg,HouseObjects,2,stim/objects/HouseObjects/glass.png,0.5,1,-0.2,0.15,right,51,2021-01-21_09h07.26.728,premup-three_ses-02_part-02_label-phase2,3.2.4,Win32,60,,,,,,,,,,,,,,,,,,,,,,,,,,,,,
right,0.802999973,1,151,1,0,1,0,1,0,1,0,240,34,1,239,1,3,3,stim/33.jpeg,HouseObjects,2,stim/objects/HouseObjects/dishsoap.png,0.5,4,0.2,-0.15,right,51,2021-01-21_09h07.26.728,premup-three_ses-02_part-02_label-phase2,3.2.4,Win32,60,,,,,,,,,,,,,,,,,,,,,,,,,,,,,
left,0.71999979,1,152,1,0,1,0,1,0,1,0,240,121,1,239,2,6,2,stim/62.jpeg,Instruments,1,stim/objects/Instruments/electricdrumset2.png,0.7,3,-0.2,-0.15,left,51,2021-01-21_09h07.26.728,premup-three_ses-02_part-02_label-phase2,3.2.4,Win32,60,,,,,,,,,,,,,,,,,,,,,,,,,,,,,
right,0.570999861,1,153,1,0,1,0,1,0,1,0,240,173,1,239,3,1,2,stim/12.jpeg,HouseObjects,2,stim/objects/HouseObjects/flyswatter2.png,0.9,2,0.2,0.15,right,51,2021-01-21_09h07.26.728,premup-three_ses-02_part-02_label-phase2,3.2.4,Win32,60,,,,,,,,,,,,,,,,,,,,,,,,,,,,,
left,0.686999798,1,154,1,0,1,0,1,0,1,0,240,136,1,239,2,6,1,stim/61.jpeg,Instruments,1,stim/objects/Instruments/drums2.png,0.7,1,-0.2,0.15,left,51,2021-01-21_09h07.26.728,premup-three_ses-02_part-02_label-phase2,3.2.4,Win32,60,,,,,,,,,,,,,,,,,,,,,,,,,,,,,
left,0.754999876,0,155,1,0,1,0,1,0,1,0,240,157,1,239,2,6,2,stim/62.jpeg,HouseObjects,2,stim/objects/HouseObjects/cushion2.png,0.3,1,-0.2,0.15,right,51,2021-01-21_09h07.26.728,premup-three_ses-02_part-02_label-phase2,3.2.4,Win32,60,,,,,,,,,,,,,,,,,,,,,,,,,,,,,
left,0.610999823,1,156,1,0,1,0,1,0,1,0,240,84,1,239,2,5,1,stim/51.jpeg,Instruments,1,stim/objects/Instruments/guitarcase.png,0.3,1,-0.2,0.15,left,51,2021-01-21_09h07.26.728,premup-three_ses-02_part-02_label-phase2,3.2.4,Win32,60,,,,,,,,,,,,,,,,,,,,,,,,,,,,,
,,0,157,1,0,1,0,1,0,1,0,240,122,1,239,2,6,3,stim/63.jpeg,Instruments,1,stim/objects/Instruments/electricguitar2.png,0.7,3,-0.2,-0.15,left,51,2021-01-21_09h07.26.728,premup-three_ses-02_part-02_label-phase2,3.2.4,Win32,60,,,,,,,,,,,,,,,,,,,,,,,,,,,,,
right,0.637999773,1,158,1,0,1,0,1,0,1,0,240,179,1,239,3,1,4,stim/14.jpeg,HouseObjects,2,stim/objects/HouseObjects/glass2.png,0.9,3,-0.2,-0.15,right,51,2021-01-21_09h07.26.728,premup-three_ses-02_part-02_label-phase2,3.2.4,Win32,60,,,,,,,,,,,,,,,,,,,,,,,,,,,,,
left,0.768999815,1,159,1,0,1,0,1,0,1,0,240,6,1,239,1,3,3,stim/33.jpeg,Instruments,1,stim/objects/Instruments/electricguitar.png,0.5,4,0.2,-0.15,left,51,2021-01-21_09h07.26.728,premup-three_ses-02_part-02_label-phase2,3.2.4,Win32,60,,,,,,,,,,,,,,,,,,,,,,,,,,,,,
left,0.623999834,0,160,1,0,1,0,1,0,1,0,240,75,1,239,1,4,4,stim/44.jpeg,HouseObjects,2,stim/objects/HouseObjects/glass.png,0.5,3,-0.2,-0.15,right,51,2021-01-21_09h07.26.728,premup-three_ses-02_part-02_label-phase2,3.2.4,Win32,60,,,,,,,,,,,,,,,,,,,,,,,,,,,,,
left,0.751999855,0,161,1,0,1,0,1,0,1,0,240,159,1,239,2,6,4,stim/64.jpeg,HouseObjects,2,stim/objects/HouseObjects/doormat2.png,0.3,2,0.2,0.15,right,51,2021-01-21_09h07.26.728,premup-three_ses-02_part-02_label-phase2,3.2.4,Win32,60,,,,,,,,,,,,,,,,,,,,,,,,,,,,,
left,0.704999924,0,162,1,0,1,0,1,0,1,0,240,22,1,239,1,3,3,stim/33.jpeg,HouseObjects,2,stim/objects/HouseObjects/dishsoap.png,0.5,3,-0.2,-0.15,right,51,2021-01-21_09h07.26.728,premup-three_ses-02_part-02_label-phase2,3.2.4,Win32,60,,,,,,,,,,,,,,,,,,,,,,,,,,,,,
left,0.603999853,1,163,1,0,1,0,1,0,1,0,240,206,1,239,3,2,3,stim/23.jpeg,Instruments,1,stim/objects/Instruments/harp2.png,0.9,3,-0.2,-0.15,left,51,2021-01-21_09h07.26.728,premup-three_ses-02_part-02_label-phase2,3.2.4,Win32,60,,,,,,,,,,,,,,,,,,,,,,,,,,,,,
left,0.870999813,0,164,1,0,1,0,1,0,1,0,240,95,1,239,2,5,4,stim/54.jpeg,HouseObjects,2,stim/objects/HouseObjects/handvacuum.png,0.7,3,-0.2,-0.15,right,51,2021-01-21_09h07.26.728,premup-three_ses-02_part-02_label-phase2,3.2.4,Win32,60,,,,,,,,,,,,,,,,,,,,,,,,,,,,,
right,0.687999964,1,165,1,0,1,0,1,0,1,0,240,29,1,239,1,3,2,stim/32.jpeg,HouseObjects,2,stim/objects/HouseObjects/cushion.png,0.5,1,-0.2,0.15,right,51,2021-01-21_09h07.26.728,premup-three_ses-02_part-02_label-phase2,3.2.4,Win32,60,,,,,,,,,,,,,,,,,,,,,,,,,,,,,
right,0.852999926,1,166,1,0,1,0,1,0,1,0,240,31,1,239,1,3,4,stim/34.jpeg,HouseObjects,2,stim/objects/HouseObjects/doormat.png,0.5,1,-0.2,0.15,right,51,2021-01-21_09h07.26.728,premup-three_ses-02_part-02_label-phase2,3.2.4,Win32,60,,,,,,,,,,,,,,,,,,,,,,,,,,,,,
right,0.747999907,1,167,1,0,1,0,1,0,1,0,240,113,1,239,2,5,2,stim/52.jpeg,HouseObjects,2,stim/objects/HouseObjects/hairdryer.png,0.7,3,-0.2,-0.15,right,51,2021-01-21_09h07.26.728,premup-three_ses-02_part-02_label-phase2,3.2.4,Win32,60,,,,,,,,,,,,,,,,,,,,,,,,,,,,,
right,0.727999926,0,168,1,0,1,0,1,0,1,0,240,86,1,239,2,5,3,stim/53.jpeg,Instruments,1,stim/objects/Instruments/harp.png,0.3,4,0.2,-0.15,left,51,2021-01-21_09h07.26.728,premup-three_ses-02_part-02_label-phase2,3.2.4,Win32,60,,,,,,,,,,,,,,,,,,,,,,,,,,,,,
left,0.663999796,0,169,1,0,1,0,1,0,1,0,240,71,1,239,1,4,4,stim/44.jpeg,HouseObjects,2,stim/objects/HouseObjects/glass.png,0.5,3,-0.2,-0.15,right,51,2021-01-21_09h07.26.728,premup-three_ses-02_part-02_label-phase2,3.2.4,Win32,60,,,,,,,,,,,,,,,,,,,,,,,,,,,,,
right,0.738000154,1,170,1,0,1,0,1,0,1,0,240,164,1,239,3,1,1,stim/11.jpeg,HouseObjects,2,stim/objects/HouseObjects/dustpan2.png,0.9,1,-0.2,0.15,right,51,2021-01-21_09h07.26.728,premup-three_ses-02_part-02_label-phase2,3.2.4,Win32,60,,,,,,,,,,,,,,,,,,,,,,,,,,,,,
left,0.801999807,0,171,1,0,1,0,1,0,1,0,240,192,1,239,3,1,1,stim/11.jpeg,HouseObjects,2,stim/objects/HouseObjects/dustpan2.png,0.9,3,-0.2,-0.15,right,51,2021-01-21_09h07.26.728,premup-three_ses-02_part-02_label-phase2,3.2.4,Win32,60,,,,,,,,,,,,,,,,,,,,,,,,,,,,,
right,0.569999933,1,172,1,0,1,0,1,0,1,0,240,188,1,239,3,1,1,stim/11.jpeg,HouseObjects,2,stim/objects/HouseObjects/dustpan2.png,0.9,4,0.2,-0.15,right,51,2021-01-21_09h07.26.728,premup-three_ses-02_part-02_label-phase2,3.2.4,Win32,60,,,,,,,,,,,,,,,,,,,,,,,,,,,,,
left,0.755999804,1,173,1,0,1,0,1,0,1,0,240,7,1,239,1,3,4,stim/34.jpeg,Instruments,1,stim/objects/Instruments/flute.png,0.5,3,-0.2,-0.15,left,51,2021-01-21_09h07.26.728,premup-three_ses-02_part-02_label-phase2,3.2.4,Win32,60,,,,,,,,,,,,,,,,,,,,,,,,,,,,,
right,0.571999788,1,174,1,0,1,0,1,0,1,0,240,197,1,239,3,1,2,stim/12.jpeg,HouseObjects,2,stim/objects/HouseObjects/flyswatter2.png,0.9,2,0.2,0.15,right,51,2021-01-21_09h07.26.728,premup-three_ses-02_part-02_label-phase2,3.2.4,Win32,60,,,,,,,,,,,,,,,,,,,,,,,,,,,,,
left,0.609999895,1,175,1,0,1,0,1,0,1,0,240,120,1,239,2,6,1,stim/61.jpeg,Instruments,1,stim/objects/Instruments/drums2.png,0.7,1,-0.2,0.15,left,51,2021-01-21_09h07.26.728,premup-three_ses-02_part-02_label-phase2,3.2.4,Win32,60,,,,,,,,,,,,,,,,,,,,,,,,,,,,,
left,0.645999908,1,176,1,0,1,0,1,0,1,0,240,45,1,239,1,4,2,stim/42.jpeg,Instruments,1,stim/objects/Instruments/frenchhorn.png,0.5,3,-0.2,-0.15,left,51,2021-01-21_09h07.26.728,premup-three_ses-02_part-02_label-phase2,3.2.4,Win32,60,,,,,,,,,,,,,,,,,,,,,,,,,,,,,
left,0.618999958,1,177,1,0,1,0,1,0,1,0,240,18,1,239,1,3,3,stim/33.jpeg,Instruments,1,stim/objects/Instruments/electricguitar.png,0.5,1,-0.2,0.15,left,51,2021-01-21_09h07.26.728,premup-three_ses-02_part-02_label-phase2,3.2.4,Win32,60,,,,,,,,,,,,,,,,,,,,,,,,,,,,,
left,0.654999733,1,178,1,0,1,0,1,0,1,0,240,89,1,239,2,5,2,stim/52.jpeg,Instruments,1,stim/objects/Instruments/harmonica.png,0.3,1,-0.2,0.15,left,51,2021-01-21_09h07.26.728,premup-three_ses-02_part-02_label-phase2,3.2.4,Win32,60,,,,,,,,,,,,,,,,,,,,,,,,,,,,,
left,0.638999939,0,179,1,0,1,0,1,0,1,0,240,96,1,239,2,5,1,stim/51.jpeg,HouseObjects,2,stim/objects/HouseObjects/glassmop.png,0.7,3,-0.2,-0.15,right,51,2021-01-21_09h07.26.728,premup-three_ses-02_part-02_label-phase2,3.2.4,Win32,60,,,,,,,,,,,,,,,,,,,,,,,,,,,,,
right,0.484999895,1,180,1,0,1,0,1,0,1,0,240,190,1,239,3,1,3,stim/13.jpeg,HouseObjects,2,stim/objects/HouseObjects/garbagebin2.png,0.9,2,0.2,0.15,right,51,2021-01-21_09h07.26.728,premup-three_ses-02_part-02_label-phase2,3.2.4,Win32,60,,,,,,,,,,,,,,,,,,,,,,,,,,,,,
left,0.771000147,1,181,1,0,1,0,1,0,1,0,240,233,1,239,3,2,2,stim/22.jpeg,Instruments,1,stim/objects/Instruments/harmonica2.png,0.9,4,0.2,-0.15,left,51,2021-01-21_09h07.26.728,premup-three_ses-02_part-02_label-phase2,3.2.4,Win32,60,,,,,,,,,,,,,,,,,,,,,,,,,,,,,
right,0.912999868,0,182,1,0,1,0,1,0,1,0,240,2,1,239,1,3,3,stim/33.jpeg,Instruments,1,stim/objects/Instruments/electricguitar.png,0.5,3,-0.2,-0.15,left,51,2021-01-21_09h07.26.728,premup-three_ses-02_part-02_label-phase2,3.2.4,Win32,60,,,,,,,,,,,,,,,,,,,,,,,,,,,,,
left,0.821000099,1,183,1,0,1,0,1,0,1,0,240,40,1,239,1,4,1,stim/41.jpeg,Instruments,1,stim/objects/Instruments/flutetrans.png,0.5,2,0.2,0.15,left,51,2021-01-21_09h07.26.728,premup-three_ses-02_part-02_label-phase2,3.2.4,Win32,60,,,,,,,,,,,,,,,,,,,,,,,,,,,,,
right,0.598999977,0,184,1,0,1,0,1,0,1,0,240,160,1,239,3,1,1,stim/11.jpeg,Instruments,1,stim/objects/Instruments/flutetrans2.png,0.1,3,-0.2,-0.15,left,51,2021-01-21_09h07.26.728,premup-three_ses-02_part-02_label-phase2,3.2.4,Win32,60,,,,,,,,,,,,,,,,,,,,,,,,,,,,,
,,0,185,1,0,1,0,1,0,1,0,240,204,1,239,3,2,1,stim/21.jpeg,Instruments,1,stim/objects/Instruments/guitarcase2.png,0.9,4,0.2,-0.15,left,51,2021-01-21_09h07.26.728,premup-three_ses-02_part-02_label-phase2,3.2.4,Win32,60,,,,,,,,,,,,,,,,,,,,,,,,,,,,,
right,0.820999861,0,186,1,0,1,0,1,0,1,0,240,125,1,239,2,6,2,stim/62.jpeg,Instruments,1,stim/objects/Instruments/electricdrumset2.png,0.7,3,-0.2,-0.15,left,51,2021-01-21_09h07.26.728,premup-three_ses-02_part-02_label-phase2,3.2.4,Win32,60,,,,,,,,,,,,,,,,,,,,,,,,,,,,,
left,0.928999901,1,187,1,0,1,0,1,0,1,0,240,135,1,239,2,6,4,stim/64.jpeg,Instruments,1,stim/objects/Instruments/flute2.png,0.7,2,0.2,0.15,left,51,2021-01-21_09h07.26.728,premup-three_ses-02_part-02_label-phase2,3.2.4,Win32,60,,,,,,,,,,,,,,,,,,,,,,,,,,,,,
right,0.767999887,0,188,1,0,1,0,1,0,1,0,240,16,1,239,1,3,1,stim/31.jpeg,Instruments,1,stim/objects/Instruments/drums.png,0.5,2,0.2,0.15,left,51,2021-01-21_09h07.26.728,premup-three_ses-02_part-02_label-phase2,3.2.4,Win32,60,,,,,,,,,,,,,,,,,,,,,,,,,,,,,
left,0.91899991,0,189,1,0,1,0,1,0,1,0,240,72,1,239,1,4,1,stim/41.jpeg,HouseObjects,2,stim/objects/HouseObjects/dustpan.png,0.5,1,-0.2,0.15,right,51,2021-01-21_09h07.26.728,premup-three_ses-02_part-02_label-phase2,3.2.4,Win32,60,,,,,,,,,,,,,,,,,,,,,,,,,,,,,
right,0.707999945,1,190,1,0,1,0,1,0,1,0,240,174,1,239,3,1,3,stim/13.jpeg,HouseObjects,2,stim/objects/HouseObjects/garbagebin2.png,0.9,4,0.2,-0.15,right,51,2021-01-21_09h07.26.728,premup-three_ses-02_part-02_label-phase2,3.2.4,Win32,60,,,,,,,,,,,,,,,,,,,,,,,,,,,,,
,,0,191,1,0,1,0,1,0,1,0,240,142,1,239,2,6,3,stim/63.jpeg,Instruments,1,stim/objects/Instruments/electricguitar2.png,0.7,3,-0.2,-0.15,left,51,2021-01-21_09h07.26.728,premup-three_ses-02_part-02_label-phase2,3.2.4,Win32,60,,,,,,,,,,,,,,,,,,,,,,,,,,,,,
right,0.536000013,1,192,1,0,1,0,1,0,1,0,240,172,1,239,3,1,1,stim/11.jpeg,HouseObjects,2,stim/objects/HouseObjects/dustpan2.png,0.9,2,0.2,0.15,right,51,2021-01-21_09h07.26.728,premup-three_ses-02_part-02_label-phase2,3.2.4,Win32,60,,,,,,,,,,,,,,,,,,,,,,,,,,,,,
right,0.821999788,1,193,1,0,1,0,1,0,1,0,240,110,1,239,2,5,3,stim/53.jpeg,HouseObjects,2,stim/objects/HouseObjects/handbrush.png,0.7,2,0.2,0.15,right,51,2021-01-21_09h07.26.728,premup-three_ses-02_part-02_label-phase2,3.2.4,Win32,60,,,,,,,,,,,,,,,,,,,,,,,,,,,,,
right,0.556999922,0,194,1,0,1,0,1,0,1,0,240,215,1,239,3,2,4,stim/24.jpeg,Instruments,1,stim/objects/Instruments/hihat2.png,0.9,4,0.2,-0.15,left,51,2021-01-21_09h07.26.728,premup-three_ses-02_part-02_label-phase2,3.2.4,Win32,60,,,,,,,,,,,,,,,,,,,,,,,,,,,,,
right,0.65899992,1,195,1,0,1,0,1,0,1,0,240,77,1,239,1,4,2,stim/42.jpeg,HouseObjects,2,stim/objects/HouseObjects/flyswatter.png,0.5,2,0.2,0.15,right,51,2021-01-21_09h07.26.728,premup-three_ses-02_part-02_label-phase2,3.2.4,Win32,60,,,,,,,,,,,,,,,,,,,,,,,,,,,,,
left,0.854000092,0,196,1,0,1,0,1,0,1,0,240,94,1,239,2,5,3,stim/53.jpeg,HouseObjects,2,stim/objects/HouseObjects/handbrush.png,0.7,3,-0.2,-0.15,right,51,2021-01-21_09h07.26.728,premup-three_ses-02_part-02_label-phase2,3.2.4,Win32,60,,,,,,,,,,,,,,,,,,,,,,,,,,,,,
right,0.688999891,1,197,1,0,1,0,1,0,1,0,240,118,1,239,2,5,3,stim/53.jpeg,HouseObjects,2,stim/objects/HouseObjects/handbrush.png,0.7,3,-0.2,-0.15,right,51,2021-01-21_09h07.26.728,premup-three_ses-02_part-02_label-phase2,3.2.4,Win32,60,,,,,,,,,,,,,,,,,,,,,,,,,,,,,
,,0,198,1,0,1,0,1,0,1,0,240,51,1,239,1,4,4,stim/44.jpeg,Instruments,1,stim/objects/Instruments/grandpiano.png,0.5,3,-0.2,-0.15,left,51,2021-01-21_09h07.26.728,premup-three_ses-02_part-02_label-phase2,3.2.4,Win32,60,,,,,,,,,,,,,,,,,,,,,,,,,,,,,
left,0.77699995,0,199,1,0,1,0,1,0,1,0,240,97,1,239,2,5,2,stim/52.jpeg,HouseObjects,2,stim/objects/HouseObjects/hairdryer.png,0.7,1,-0.2,0.15,right,51,2021-01-21_09h07.26.728,premup-three_ses-02_part-02_label-phase2,3.2.4,Win32,60,,,,,,,,,,,,,,,,,,,,,,,,,,,,,
right,0.503000021,0,200,1,0,1,0,1,0,1,0,240,52,1,239,1,4,1,stim/41.jpeg,Instruments,1,stim/objects/Instruments/flutetrans.png,0.5,2,0.2,0.15,left,51,2021-01-21_09h07.26.728,premup-three_ses-02_part-02_label-phase2,3.2.4,Win32,60,,,,,,,,,,,,,,,,,,,,,,,,,,,,,
left,0.654999971,1,201,1,0,1,0,1,0,1,0,240,129,1,239,2,6,2,stim/62.jpeg,Instruments,1,stim/objects/Instruments/electricdrumset2.png,0.7,3,-0.2,-0.15,left,51,2021-01-21_09h07.26.728,premup-three_ses-02_part-02_label-phase2,3.2.4,Win32,60,,,,,,,,,,,,,,,,,,,,,,,,,,,,,
right,0.623000145,1,202,1,0,1,0,1,0,1,0,240,119,1,239,2,5,4,stim/54.jpeg,HouseObjects,2,stim/objects/HouseObjects/handvacuum.png,0.7,4,0.2,-0.15,right,51,2021-01-21_09h07.26.728,premup-three_ses-02_part-02_label-phase2,3.2.4,Win32,60,,,,,,,,,,,,,,,,,,,,,,,,,,,,,
left,0.610999823,0,203,1,0,1,0,1,0,1,0,240,148,1,239,2,6,1,stim/61.jpeg,HouseObjects,2,stim/objects/HouseObjects/coffee2.png,0.3,3,-0.2,-0.15,right,51,2021-01-21_09h07.26.728,premup-three_ses-02_part-02_label-phase2,3.2.4,Win32,60,,,,,,,,,,,,,,,,,,,,,,,,,,,,,
left,0.559000015,0,204,1,0,1,0,1,0,1,0,240,236,1,239,3,2,1,stim/21.jpeg,HouseObjects,2,stim/objects/HouseObjects/glassmop2.png,0.1,3,-0.2,-0.15,right,51,2021-01-21_09h07.26.728,premup-three_ses-02_part-02_label-phase2,3.2.4,Win32,60,,,,,,,,,,,,,,,,,,,,,,,,,,,,,
right,0.714999914,1,205,1,0,1,0,1,0,1,0,240,199,1,239,3,1,4,stim/14.jpeg,HouseObjects,2,stim/objects/HouseObjects/glass2.png,0.9,1,-0.2,0.15,right,51,2021-01-21_09h07.26.728,premup-three_ses-02_part-02_label-phase2,3.2.4,Win32,60,,,,,,,,,,,,,,,,,,,,,,,,,,,,,
right,0.636999846,1,206,1,0,1,0,1,0,1,0,240,178,1,239,3,1,3,stim/13.jpeg,HouseObjects,2,stim/objects/HouseObjects/garbagebin2.png,0.9,2,0.2,0.15,right,51,2021-01-21_09h07.26.728,premup-three_ses-02_part-02_label-phase2,3.2.4,Win32,60,,,,,,,,,,,,,,,,,,,,,,,,,,,,,
right,0.672999859,0,207,1,0,1,0,1,0,1,0,240,144,1,239,2,6,1,stim/61.jpeg,Instruments,1,stim/objects/Instruments/drums2.png,0.7,4,0.2,-0.15,left,51,2021-01-21_09h07.26.728,premup-three_ses-02_part-02_label-phase2,3.2.4,Win32,60,,,,,,,,,,,,,,,,,,,,,,,,,,,,,
right,0.768000126,1,208,1,0,1,0,1,0,1,0,240,92,1,239,2,5,1,stim/51.jpeg,HouseObjects,2,stim/objects/HouseObjects/glassmop.png,0.7,4,0.2,-0.15,right,51,2021-01-21_09h07.26.728,premup-three_ses-02_part-02_label-phase2,3.2.4,Win32,60,,,,,,,,,,,,,,,,,,,,,,,,,,,,,
right,0.540999889,1,209,1,0,1,0,1,0,1,0,240,176,1,239,3,1,1,stim/11.jpeg,HouseObjects,2,stim/objects/HouseObjects/dustpan2.png,0.9,4,0.2,-0.15,right,51,2021-01-21_09h07.26.728,premup-three_ses-02_part-02_label-phase2,3.2.4,Win32,60,,,,,,,,,,,,,,,,,,,,,,,,,,,,,
left,0.672999859,1,210,1,0,1,0,1,0,1,0,240,4,1,239,1,3,1,stim/31.jpeg,Instruments,1,stim/objects/Instruments/drums.png,0.5,1,-0.2,0.15,left,51,2021-01-21_09h07.26.728,premup-three_ses-02_part-02_label-phase2,3.2.4,Win32,60,,,,,,,,,,,,,,,,,,,,,,,,,,,,,
right,0.787999868,1,211,1,0,1,0,1,0,1,0,240,37,1,239,1,3,2,stim/32.jpeg,HouseObjects,2,stim/objects/HouseObjects/cushion.png,0.5,4,0.2,-0.15,right,51,2021-01-21_09h07.26.728,premup-three_ses-02_part-02_label-phase2,3.2.4,Win32,60,,,,,,,,,,,,,,,,,,,,,,,,,,,,,
left,0.605000019,1,212,1,0,1,0,1,0,1,0,240,235,1,239,3,2,4,stim/24.jpeg,Instruments,1,stim/objects/Instruments/hihat2.png,0.9,3,-0.2,-0.15,left,51,2021-01-21_09h07.26.728,premup-three_ses-02_part-02_label-phase2,3.2.4,Win32,60,,,,,,,,,,,,,,,,,,,,,,,,,,,,,
left,0.589999914,1,213,1,0,1,0,1,0,1,0,240,212,1,239,3,2,1,stim/21.jpeg,Instruments,1,stim/objects/Instruments/guitarcase2.png,0.9,2,0.2,0.15,left,51,2021-01-21_09h07.26.728,premup-three_ses-02_part-02_label-phase2,3.2.4,Win32,60,,,,,,,,,,,,,,,,,,,,,,,,,,,,,
left,0.657999992,1,214,1,0,1,0,1,0,1,0,240,200,1,239,3,2,1,stim/21.jpeg,Instruments,1,stim/objects/Instruments/guitarcase2.png,0.9,1,-0.2,0.15,left,51,2021-01-21_09h07.26.728,premup-three_ses-02_part-02_label-phase2,3.2.4,Win32,60,,,,,,,,,,,,,,,,,,,,,,,,,,,,,
right,0.612999916,1,215,1,0,1,0,1,0,1,0,240,165,1,239,3,1,2,stim/12.jpeg,HouseObjects,2,stim/objects/HouseObjects/flyswatter2.png,0.9,1,-0.2,0.15,right,51,2021-01-21_09h07.26.728,premup-three_ses-02_part-02_label-phase2,3.2.4,Win32,60,,,,,,,,,,,,,,,,,,,,,,,,,,,,,
left,0.539000034,1,216,1,0,1,0,1,0,1,0,240,216,1,239,3,2,1,stim/21.jpeg,Instruments,1,stim/objects/Instruments/guitarcase2.png,0.9,1,-0.2,0.15,left,51,2021-01-21_09h07.26.728,premup-three_ses-02_part-02_label-phase2,3.2.4,Win32,60,,,,,,,,,,,,,,,,,,,,,,,,,,,,,
right,0.771999836,0,217,1,0,1,0,1,0,1,0,240,19,1,239,1,3,4,stim/34.jpeg,Instruments,1,stim/objects/Instruments/flute.png,0.5,1,-0.2,0.15,left,51,2021-01-21_09h07.26.728,premup-three_ses-02_part-02_label-phase2,3.2.4,Win32,60,,,,,,,,,,,,,,,,,,,,,,,,,,,,,
left,0.768000126,1,218,1,0,1,0,1,0,1,0,240,132,1,239,2,6,1,stim/61.jpeg,Instruments,1,stim/objects/Instruments/drums2.png,0.7,3,-0.2,-0.15,left,51,2021-01-21_09h07.26.728,premup-three_ses-02_part-02_label-phase2,3.2.4,Win32,60,,,,,,,,,,,,,,,,,,,,,,,,,,,,,
right,0.608999968,0,219,1,0,1,0,1,0,1,0,240,163,1,239,3,1,4,stim/14.jpeg,Instruments,1,stim/objects/Instruments/grandpiano2.png,0.1,2,0.2,0.15,left,51,2021-01-21_09h07.26.728,premup-three_ses-02_part-02_label-phase2,3.2.4,Win32,60,,,,,,,,,,,,,,,,,,,,,,,,,,,,,
right,0.833999872,1,220,1,0,1,0,1,0,1,0,240,106,1,239,2,5,3,stim/53.jpeg,HouseObjects,2,stim/objects/HouseObjects/handbrush.png,0.7,3,-0.2,-0.15,right,51,2021-01-21_09h07.26.728,premup-three_ses-02_part-02_label-phase2,3.2.4,Win32,60,,,,,,,,,,,,,,,,,,,,,,,,,,,,,
right,0.650999784,0,221,1,0,1,0,1,0,1,0,240,57,1,239,1,4,2,stim/42.jpeg,Instruments,1,stim/objects/Instruments/frenchhorn.png,0.5,4,0.2,-0.15,left,51,2021-01-21_09h07.26.728,premup-three_ses-02_part-02_label-phase2,3.2.4,Win32,60,,,,,,,,,,,,,,,,,,,,,,,,,,,,,
right,0.586999893,1,222,1,0,1,0,1,0,1,0,240,168,1,239,3,1,1,stim/11.jpeg,HouseObjects,2,stim/objects/HouseObjects/dustpan2.png,0.9,3,-0.2,-0.15,right,51,2021-01-21_09h07.26.728,premup-three_ses-02_part-02_label-phase2,3.2.4,Win32,60,,,,,,,,,,,,,,,,,,,,,,,,,,,,,
left,0.737999916,1,223,1,0,1,0,1,0,1,0,240,80,1,239,2,5,1,stim/51.jpeg,Instruments,1,stim/objects/Instruments/guitarcase.png,0.3,3,-0.2,-0.15,left,51,2021-01-21_09h07.26.728,premup-three_ses-02_part-02_label-phase2,3.2.4,Win32,60,,,,,,,,,,,,,,,,,,,,,,,,,,,,,
right,0.892999887,0,224,1,0,1,0,1,0,1,0,240,133,1,239,2,6,2,stim/62.jpeg,Instruments,1,stim/objects/Instruments/electricdrumset2.png,0.7,4,0.2,-0.15,left,51,2021-01-21_09h07.26.728,premup-three_ses-02_part-02_label-phase2,3.2.4,Win32,60,,,,,,,,,,,,,,,,,,,,,,,,,,,,,
right,0.742000103,0,225,1,0,1,0,1,0,1,0,240,58,1,239,1,4,3,stim/43.jpeg,Instruments,1,stim/objects/Instruments/gong.png,0.5,2,0.2,0.15,left,51,2021-01-21_09h07.26.728,premup-three_ses-02_part-02_label-phase2,3.2.4,Win32,60,,,,,,,,,,,,,,,,,,,,,,,,,,,,,
left,0.579999924,1,226,1,0,1,0,1,0,1,0,240,203,1,239,3,2,4,stim/24.jpeg,Instruments,1,stim/objects/Instruments/hihat2.png,0.9,1,-0.2,0.15,left,51,2021-01-21_09h07.26.728,premup-three_ses-02_part-02_label-phase2,3.2.4,Win32,60,,,,,,,,,,,,,,,,,,,,,,,,,,,,,
right,0.857000113,1,227,1,0,1,0,1,0,1,0,240,184,1,239,3,1,1,stim/11.jpeg,HouseObjects,2,stim/objects/HouseObjects/dustpan2.png,0.9,1,-0.2,0.15,right,51,2021-01-21_09h07.26.728,premup-three_ses-02_part-02_label-phase2,3.2.4,Win32,60,,,,,,,,,,,,,,,,,,,,,,,,,,,,,
right,0.727999926,0,228,1,0,1,0,1,0,1,0,240,85,1,239,2,5,2,stim/52.jpeg,Instruments,1,stim/objects/Instruments/harmonica.png,0.3,2,0.2,0.15,left,51,2021-01-21_09h07.26.728,premup-three_ses-02_part-02_label-phase2,3.2.4,Win32,60,,,,,,,,,,,,,,,,,,,,,,,,,,,,,
left,0.55099988,1,229,1,0,1,0,1,0,1,0,240,224,1,239,3,2,1,stim/21.jpeg,Instruments,1,stim/objects/Instruments/guitarcase2.png,0.9,2,0.2,0.15,left,51,2021-01-21_09h07.26.728,premup-three_ses-02_part-02_label-phase2,3.2.4,Win32,60,,,,,,,,,,,,,,,,,,,,,,,,,,,,,
right,0.670000076,0,230,1,0,1,0,1,0,1,0,240,42,1,239,1,4,3,stim/43.jpeg,Instruments,1,stim/objects/Instruments/gong.png,0.5,4,0.2,-0.15,left,51,2021-01-21_09h07.26.728,premup-three_ses-02_part-02_label-phase2,3.2.4,Win32,60,,,,,,,,,,,,,,,,,,,,,,,,,,,,,
right,0.506000042,1,231,1,0,1,0,1,0,1,0,240,191,1,239,3,1,4,stim/14.jpeg,HouseObjects,2,stim/objects/HouseObjects/glass2.png,0.9,4,0.2,-0.15,right,51,2021-01-21_09h07.26.728,premup-three_ses-02_part-02_label-phase2,3.2.4,Win32,60,,,,,,,,,,,,,,,,,,,,,,,,,,,,,
,,0,232,1,0,1,0,1,0,1,0,240,146,1,239,2,6,3,stim/63.jpeg,Instruments,1,stim/objects/Instruments/electricguitar2.png,0.7,4,0.2,-0.15,left,51,2021-01-21_09h07.26.728,premup-three_ses-02_part-02_label-phase2,3.2.4,Win32,60,,,,,,,,,,,,,,,,,,,,,,,,,,,,,
left,0.530999899,1,233,1,0,1,0,1,0,1,0,240,228,1,239,3,2,1,stim/21.jpeg,Instruments,1,stim/objects/Instruments/guitarcase2.png,0.9,2,0.2,0.15,left,51,2021-01-21_09h07.26.728,premup-three_ses-02_part-02_label-phase2,3.2.4,Win32,60,,,,,,,,,,,,,,,,,,,,,,,,,,,,,
left,0.738999844,1,234,1,0,1,0,1,0,1,0,240,141,1,239,2,6,2,stim/62.jpeg,Instruments,1,stim/objects/Instruments/electricdrumset2.png,0.7,1,-0.2,0.15,left,51,2021-01-21_09h07.26.728,premup-three_ses-02_part-02_label-phase2,3.2.4,Win32,60,,,,,,,,,,,,,,,,,,,,,,,,,,,,,
left,0.534999847,1,235,1,0,1,0,1,0,1,0,240,201,1,239,3,2,2,stim/22.jpeg,Instruments,1,stim/objects/Instruments/harmonica2.png,0.9,1,-0.2,0.15,left,51,2021-01-21_09h07.26.728,premup-three_ses-02_part-02_label-phase2,3.2.4,Win32,60,,,,,,,,,,,,,,,,,,,,,,,,,,,,,
right,0.572000027,0,236,1,0,1,0,1,0,1,0,240,162,1,239,3,1,3,stim/13.jpeg,Instruments,1,stim/objects/Instruments/gong2.png,0.1,2,0.2,0.15,left,51,2021-01-21_09h07.26.728,premup-three_ses-02_part-02_label-phase2,3.2.4,Win32,60,,,,,,,,,,,,,,,,,,,,,,,,,,,,,
right,0.72300005,1,237,1,0,1,0,1,0,1,0,240,100,1,239,2,5,1,stim/51.jpeg,HouseObjects,2,stim/objects/HouseObjects/glassmop.png,0.7,4,0.2,-0.15,right,51,2021-01-21_09h07.26.728,premup-three_ses-02_part-02_label-phase2,3.2.4,Win32,60,,,,,,,,,,,,,,,,,,,,,,,,,,,,,
right,0.779999971,1,238,1,0,1,0,1,0,1,0,240,186,1,239,3,1,3,stim/13.jpeg,HouseObjects,2,stim/objects/HouseObjects/garbagebin2.png,0.9,3,-0.2,-0.15,right,51,2021-01-21_09h07.26.728,premup-three_ses-02_part-02_label-phase2,3.2.4,Win32,60,,,,,,,,,,,,,,,,,,,,,,,,,,,,,
right,0.648999929,0,239,1,0,1,0,1,0,1,0,240,124,1,239,2,6,1,stim/61.jpeg,Instruments,1,stim/objects/Instruments/drums2.png,0.7,2,0.2,0.15,left,51,2021-01-21_09h07.26.728,premup-three_ses-02_part-02_label-phase2,3.2.4,Win32,60,,,,,,,,,,,,,,,,,,,,,,,,,,,,,
left,0.669999838,1,240,1,0,1,0,1,0,1,0,240,227,1,239,3,2,4,stim/24.jpeg,Instruments,1,stim/objects/Instruments/hihat2.png,0.9,2,0.2,0.15,left,51,2021-01-21_09h07.26.728,premup-three_ses-02_part-02_label-phase2,3.2.4,Win32,60,,,,,,,,,,,,,,,,,,,,,,,,,,,,,
,,,,1,0,1,0,1,0,,,,,,,,3,,stim/31.jpeg,,,,,,,,,51,2021-01-21_09h07.26.728,premup-three_ses-02_part-02_label-phase2,3.2.4,Win32,60,90,12.90999985,,,1,0,6,2,1,5,Music items,65,75,Household items,25,35,,,,,,,,,,,,,
,,,,1,0,1,0,1,0,,,,,,,,4,,stim/41.jpeg,,,,,,,,,51,2021-01-21_09h07.26.728,premup-three_ses-02_part-02_label-phase2,3.2.4,Win32,60,81,7.687999964,,,1,0,6,3,1,5,Music items,65,75,Household items,25,35,,,,,,,,,,,,,
,,,,1,0,1,0,1,0,,,,,,,,1,,stim/11.jpeg,,,,,,,,,51,2021-01-21_09h07.26.728,premup-three_ses-02_part-02_label-phase2,3.2.4,Win32,60,2,8.925000191,,,1,0,6,0,1,5,Music items,45,55,Household items,45,55,,,,,,,,,,,,,
,,,,1,0,1,0,1,0,,,,,,,,2,,stim/21.jpeg,,,,,,,,,51,2021-01-21_09h07.26.728,premup-three_ses-02_part-02_label-phase2,3.2.4,Win32,60,0,7.738000154,,,1,0,6,1,1,5,Household items,45,55,Music items,45,55,,,,,,,,,,,,,
,,,,1,0,1,0,1,0,,,,,,,,6,,stim/61.jpeg,,,,,,,,,51,2021-01-21_09h07.26.728,premup-three_ses-02_part-02_label-phase2,3.2.4,Win32,60,50,4.433000088,,,1,0,6,5,1,5,Music items,5,15,Household items,85,95,,,,,,,,,,,,,
,,,,1,0,1,0,1,0,,,,,,,,5,,stim/51.jpeg,,,,,,,,,51,2021-01-21_09h07.26.728,premup-three_ses-02_part-02_label-phase2,3.2.4,Win32,60,76,7.705000162,,,1,0,6,4,1,5,Household items,5,15,Music items,85,95,,,,,,,,,,,,,
,,,,1,0,1,0,1,0,,,,,,,,,,,,,,,,,,,51,2021-01-21_09h07.26.728,premup-three_ses-02_part-02_label-phase2,3.2.4,Win32,60,,,,,,,,,,,,,,,,,,,,,,,,,,,,,
,,0,241,,,,,,,,,,,,,2,6,3,stim/63.jpeg,HouseObjects,2,stim/objects/HouseObjects/bottle4.png,0.3,2,0.2,0.15,right,51,2021-01-21_09h07.26.728,premup-three_ses-02_part-02_label-phase2,3.2.4,Win32,60,,,,,,,,,,,,,,,,,1,0,330,121,1,329,1,,,,,,
left,0.601999998,1,242,,,,,,,,,,,,,3,2,1,stim/21.jpeg,Instruments,1,stim/objects/Instruments/oboe3.png,0.9,1,-0.2,0.15,left,51,2021-01-21_09h07.26.728,premup-three_ses-02_part-02_label-phase2,3.2.4,Win32,60,,,,,,,,,,,,,,,,,1,0,330,274,1,329,2,,,,,,
left,0.741999865,0,243,,,,,,,,,,,,,1,4,4,stim/44.jpeg,HouseObjects,2,stim/objects/HouseObjects/saw3.png,0.5,2,0.2,0.15,right,51,2021-01-21_09h07.26.728,premup-three_ses-02_part-02_label-phase2,3.2.4,Win32,60,,,,,,,,,,,,,,,,,1,0,330,55,1,329,1,,,,,,
right,0.671999931,1,244,,,,,,,,,,,,,3,1,2,stim/12.jpeg,HouseObjects,2,stim/objects/HouseObjects/knife3.png,0.9,2,0.2,0.15,right,51,2021-01-21_09h07.26.728,premup-three_ses-02_part-02_label-phase2,3.2.4,Win32,60,,,,,,,,,,,,,,,,,1,0,330,195,1,329,2,,,,,,
left,0.513000011,1,245,,,,,,,,,,,,,3,2,1,stim/21.jpeg,Instruments,1,stim/objects/Instruments/metronome3.png,0.9,2,0.2,0.15,left,51,2021-01-21_09h07.26.728,premup-three_ses-02_part-02_label-phase2,3.2.4,Win32,60,,,,,,,,,,,,,,,,,1,0,330,266,1,329,2,,,,,,
left,0.520999908,1,246,,,,,,,,,,,,,3,2,1,stim/21.jpeg,Instruments,1,stim/objects/Instruments/metronome3.png,0.9,1,-0.2,0.15,left,51,2021-01-21_09h07.26.728,premup-three_ses-02_part-02_label-phase2,3.2.4,Win32,60,,,,,,,,,,,,,,,,,1,0,330,286,1,329,2,,,,,,
right,0.654999971,1,247,,,,,,,,,,,,,1,4,1,stim/41.jpeg,HouseObjects,2,stim/objects/HouseObjects/broom3.png,0.5,4,0.2,-0.15,right,51,2021-01-21_09h07.26.728,premup-three_ses-02_part-02_label-phase2,3.2.4,Win32,60,,,,,,,,,,,,,,,,,1,0,330,52,1,329,2,,,,,,
left,0.553999901,1,248,,,,,,,,,,,,,3,2,4,stim/24.jpeg,Instruments,1,stim/objects/Instruments/oboe3.png,0.9,4,0.2,-0.15,left,51,2021-01-21_09h07.26.728,premup-three_ses-02_part-02_label-phase2,3.2.4,Win32,60,,,,,,,,,,,,,,,,,1,0,330,309,1,329,2,,,,,,
right,0.832999945,0,249,,,,,,,,,,,,,2,5,3,stim/53.jpeg,Instruments,1,stim/objects/Instruments/acousticguitar4.png,0.3,3,-0.2,-0.15,left,51,2021-01-21_09h07.26.728,premup-three_ses-02_part-02_label-phase2,3.2.4,Win32,60,,,,,,,,,,,,,,,,,1,0,330,66,1,329,1,,,,,,
left,0.57799983,1,250,,,,,,,,,,,,,3,2,4,stim/24.jpeg,Instruments,1,stim/objects/Instruments/musicsheet3.png,0.9,2,0.2,0.15,left,51,2021-01-21_09h07.26.728,premup-three_ses-02_part-02_label-phase2,3.2.4,Win32,60,,,,,,,,,,,,,,,,,1,0,330,257,1,329,2,,,,,,
left,0.842000008,1,251,,,,,,,,,,,,,2,6,4,stim/64.jpeg,Instruments,1,stim/objects/Instruments/doublebass3.png,0.7,3,-0.2,-0.15,left,51,2021-01-21_09h07.26.728,premup-three_ses-02_part-02_label-phase2,3.2.4,Win32,60,,,,,,,,,,,,,,,,,1,0,330,106,1,329,2,,,,,,
left,0.805999994,0,252,,,,,,,,,,,,,1,3,4,stim/34.jpeg,HouseObjects,2,stim/objects/HouseObjects/rubbergloves3.png,0.5,3,-0.2,-0.15,right,51,2021-01-21_09h07.26.728,premup-three_ses-02_part-02_label-phase2,3.2.4,Win32,60,,,,,,,,,,,,,,,,,1,0,330,27,1,329,1,,,,,,
left,0.674000025,1,253,,,,,,,,,,,,,3,2,3,stim/23.jpeg,Instruments,1,stim/objects/Instruments/musicsheet3.png,0.9,4,0.2,-0.15,left,51,2021-01-21_09h07.26.728,premup-three_ses-02_part-02_label-phase2,3.2.4,Win32,60,,,,,,,,,,,,,,,,,1,0,330,252,1,329,2,,,,,,
left,0.576999903,1,254,,,,,,,,,,,,,3,2,3,stim/23.jpeg,Instruments,1,stim/objects/Instruments/oboe3.png,0.9,3,-0.2,-0.15,left,51,2021-01-21_09h07.26.728,premup-three_ses-02_part-02_label-phase2,3.2.4,Win32,60,,,,,,,,,,,,,,,,,1,0,330,244,1,329,2,,,,,,
right,0.785999775,0,255,,,,,,,,,,,,,2,5,1,stim/51.jpeg,Instruments,1,stim/objects/Instruments/trumpet3.png,0.3,2,0.2,0.15,left,51,2021-01-21_09h07.26.728,premup-three_ses-02_part-02_label-phase2,3.2.4,Win32,60,,,,,,,,,,,,,,,,,1,0,330,60,1,329,1,,,,,,
right,0.588999748,0,256,,,,,,,,,,,,,3,1,4,stim/14.jpeg,Instruments,1,stim/objects/Instruments/musicstand4.png,0.1,2,0.2,0.15,left,51,2021-01-21_09h07.26.728,premup-three_ses-02_part-02_label-phase2,3.2.4,Win32,60,,,,,,,,,,,,,,,,,1,0,330,133,1,329,1,,,,,,
right,0.721999884,1,257,,,,,,,,,,,,,2,5,4,stim/54.jpeg,HouseObjects,2,stim/objects/HouseObjects/clothespin3.png,0.7,4,0.2,-0.15,right,51,2021-01-21_09h07.26.728,premup-three_ses-02_part-02_label-phase2,3.2.4,Win32,60,,,,,,,,,,,,,,,,,1,0,330,71,1,329,2,,,,,,
right,0.599999905,1,258,,,,,,,,,,,,,3,1,4,stim/14.jpeg,HouseObjects,2,stim/objects/HouseObjects/knife3.png,0.9,1,-0.2,0.15,right,51,2021-01-21_09h07.26.728,premup-three_ses-02_part-02_label-phase2,3.2.4,Win32,60,,,,,,,,,,,,,,,,,1,0,330,185,1,329,2,,,,,,
left,0.803999901,0,259,,,,,,,,,,,,,2,5,2,stim/52.jpeg,HouseObjects,2,stim/objects/HouseObjects/clothespin3.png,0.7,1,-0.2,0.15,right,51,2021-01-21_09h07.26.728,premup-three_ses-02_part-02_label-phase2,3.2.4,Win32,60,,,,,,,,,,,,,,,,,1,0,330,81,1,329,2,,,,,,
left,0.773999929,1,260,,,,,,,,,,,,,1,4,1,stim/41.jpeg,Instruments,1,stim/objects/Instruments/chime3.png,0.5,2,0.2,0.15,left,51,2021-01-21_09h07.26.728,premup-three_ses-02_part-02_label-phase2,3.2.4,Win32,60,,,,,,,,,,,,,,,,,1,0,330,32,1,329,2,,,,,,
left,0.679999828,1,261,,,,,,,,,,,,,3,2,4,stim/24.jpeg,Instruments,1,stim/objects/Instruments/oboe3.png,0.9,4,0.2,-0.15,left,51,2021-01-21_09h07.26.728,premup-three_ses-02_part-02_label-phase2,3.2.4,Win32,60,,,,,,,,,,,,,,,,,1,0,330,269,1,329,2,,,,,,
left,0.839999914,0,262,,,,,,,,,,,,,1,4,1,stim/41.jpeg,HouseObjects,2,stim/objects/HouseObjects/scale3.png,0.5,1,-0.2,0.15,right,51,2021-01-21_09h07.26.728,premup-three_ses-02_part-02_label-phase2,3.2.4,Win32,60,,,,,,,,,,,,,,,,,1,0,330,56,1,329,1,,,,,,
right,0.635999918,1,263,,,,,,,,,,,,,3,1,4,stim/14.jpeg,HouseObjects,2,stim/objects/HouseObjects/match3.png,0.9,3,-0.2,-0.15,right,51,2021-01-21_09h07.26.728,premup-three_ses-02_part-02_label-phase2,3.2.4,Win32,60,,,,,,,,,,,,,,,,,1,0,330,177,1,329,2,,,,,,
right,0.743000031,0,264,,,,,,,,,,,,,1,3,2,stim/32.jpeg,Instruments,1,stim/objects/Instruments/record_player3.png,0.5,1,-0.2,0.15,left,51,2021-01-21_09h07.26.728,premup-three_ses-02_part-02_label-phase2,3.2.4,Win32,60,,,,,,,,,,,,,,,,,1,0,330,13,1,329,1,,,,,,
left,0.795000076,1,265,,,,,,,,,,,,,3,2,2,stim/22.jpeg,Instruments,1,stim/objects/Instruments/musicsheet3.png,0.9,4,0.2,-0.15,left,51,2021-01-21_09h07.26.728,premup-three_ses-02_part-02_label-phase2,3.2.4,Win32,60,,,,,,,,,,,,,,,,,1,0,330,267,1,329,2,,,,,,
left,0.582999945,1,266,,,,,,,,,,,,,3,2,4,stim/24.jpeg,Instruments,1,stim/objects/Instruments/violin4.png,0.9,3,-0.2,-0.15,left,51,2021-01-21_09h07.26.728,premup-three_ses-02_part-02_label-phase2,3.2.4,Win32,60,,,,,,,,,,,,,,,,,1,0,330,317,1,329,1,,,,,,
right,0.670999765,1,267,,,,,,,,,,,,,2,5,1,stim/51.jpeg,HouseObjects,2,stim/objects/HouseObjects/barbecuelighter4.png,0.7,4,0.2,-0.15,right,51,2021-01-21_09h07.26.728,premup-three_ses-02_part-02_label-phase2,3.2.4,Win32,60,,,,,,,,,,,,,,,,,1,0,330,92,1,329,1,,,,,,
left,0.602999926,1,268,,,,,,,,,,,,,3,2,2,stim/22.jpeg,Instruments,1,stim/objects/Instruments/oboe3.png,0.9,4,0.2,-0.15,left,51,2021-01-21_09h07.26.728,premup-three_ses-02_part-02_label-phase2,3.2.4,Win32,60,,,,,,,,,,,,,,,,,1,0,330,279,1,329,2,,,,,,
right,0.592000008,1,269,,,,,,,,,,,,,3,1,4,stim/14.jpeg,HouseObjects,2,stim/objects/HouseObjects/knife3.png,0.9,2,0.2,0.15,right,51,2021-01-21_09h07.26.728,premup-three_ses-02_part-02_label-phase2,3.2.4,Win32,60,,,,,,,,,,,,,,,,,1,0,330,205,1,329,2,,,,,,
right,0.791000128,1,270,,,,,,,,,,,,,2,5,4,stim/54.jpeg,HouseObjects,2,stim/objects/HouseObjects/clothesdryingrack3.png,0.7,1,-0.2,0.15,right,51,2021-01-21_09h07.26.728,premup-three_ses-02_part-02_label-phase2,3.2.4,Win32,60,,,,,,,,,,,,,,,,,1,0,330,75,1,329,2,,,,,,
left,0.775999784,1,271,,,,,,,,,,,,,2,6,4,stim/64.jpeg,Instruments,1,stim/objects/Instruments/bassguitar4.png,0.7,1,-0.2,0.15,left,51,2021-01-21_09h07.26.728,premup-three_ses-02_part-02_label-phase2,3.2.4,Win32,60,,,,,,,,,,,,,,,,,1,0,330,110,1,329,1,,,,,,
left,0.575999975,1,272,,,,,,,,,,,,,3,2,3,stim/23.jpeg,Instruments,1,stim/objects/Instruments/musicsheet3.png,0.9,1,-0.2,0.15,left,51,2021-01-21_09h07.26.728,premup-three_ses-02_part-02_label-phase2,3.2.4,Win32,60,,,,,,,,,,,,,,,,,1,0,330,292,1,329,2,,,,,,
right,0.620999813,1,273,,,,,,,,,,,,,3,1,4,stim/14.jpeg,HouseObjects,2,stim/objects/HouseObjects/match3.png,0.9,3,-0.2,-0.15,right,51,2021-01-21_09h07.26.728,premup-three_ses-02_part-02_label-phase2,3.2.4,Win32,60,,,,,,,,,,,,,,,,,1,0,330,197,1,329,2,,,,,,
left,0.61899972,0,274,,,,,,,,,,,,,2,6,2,stim/62.jpeg,HouseObjects,2,stim/objects/HouseObjects/blender4.png,0.3,1,-0.2,0.15,right,51,2021-01-21_09h07.26.728,premup-three_ses-02_part-02_label-phase2,3.2.4,Win32,60,,,,,,,,,,,,,,,,,1,0,330,120,1,329,1,,,,,,
left,0.722999811,1,275,,,,,,,,,,,,,3,2,2,stim/22.jpeg,Instruments,1,stim/objects/Instruments/musicsheet3.png,0.9,3,-0.2,-0.15,left,51,2021-01-21_09h07.26.728,premup-three_ses-02_part-02_label-phase2,3.2.4,Win32,60,,,,,,,,,,,,,,,,,1,0,330,287,1,329,2,,,,,,
right,0.693999767,1,276,,,,,,,,,,,,,1,3,4,stim/34.jpeg,HouseObjects,2,stim/objects/HouseObjects/ashtray3.png,0.5,2,0.2,0.15,right,51,2021-01-21_09h07.26.728,premup-three_ses-02_part-02_label-phase2,3.2.4,Win32,60,,,,,,,,,,,,,,,,,1,0,330,15,1,329,2,,,,,,
right,0.634000063,0,277,,,,,,,,,,,,,1,4,1,stim/41.jpeg,Instruments,1,stim/objects/Instruments/cello3.png,0.5,4,0.2,-0.15,left,51,2021-01-21_09h07.26.728,premup-three_ses-02_part-02_label-phase2,3.2.4,Win32,60,,,,,,,,,,,,,,,,,1,0,330,36,1,329,2,,,,,,
left,0.587000132,1,278,,,,,,,,,,,,,3,2,4,stim/24.jpeg,Instruments,1,stim/objects/Instruments/musicsheet3.png,0.9,2,0.2,0.15,left,51,2021-01-21_09h07.26.728,premup-three_ses-02_part-02_label-phase2,3.2.4,Win32,60,,,,,,,,,,,,,,,,,1,0,330,277,1,329,2,,,,,,
right,0.553999901,1,279,,,,,,,,,,,,,3,1,2,stim/12.jpeg,HouseObjects,2,stim/objects/HouseObjects/match3.png,0.9,1,-0.2,0.15,right,51,2021-01-21_09h07.26.728,premup-three_ses-02_part-02_label-phase2,3.2.4,Win32,60,,,,,,,,,,,,,,,,,1,0,330,207,1,329,2,,,,,,
right,0.822999954,1,280,,,,,,,,,,,,,1,3,2,stim/32.jpeg,HouseObjects,2,stim/objects/HouseObjects/ballofstring3.png,0.5,3,-0.2,-0.15,right,51,2021-01-21_09h07.26.728,premup-three_ses-02_part-02_label-phase2,3.2.4,Win32,60,,,,,,,,,,,,,,,,,1,0,330,21,1,329,2,,,,,,
left,0.589999914,1,281,,,,,,,,,,,,,3,2,1,stim/21.jpeg,Instruments,1,stim/objects/Instruments/musicsheet3.png,0.9,3,-0.2,-0.15,left,51,2021-01-21_09h07.26.728,premup-three_ses-02_part-02_label-phase2,3.2.4,Win32,60,,,,,,,,,,,,,,,,,1,0,330,302,1,329,2,,,,,,
right,0.569000006,1,282,,,,,,,,,,,,,3,1,4,stim/14.jpeg,HouseObjects,2,stim/objects/HouseObjects/knife3.png,0.9,4,0.2,-0.15,right,51,2021-01-21_09h07.26.728,premup-three_ses-02_part-02_label-phase2,3.2.4,Win32,60,,,,,,,,,,,,,,,,,1,0,330,165,1,329,2,,,,,,
right,0.792999983,0,283,,,,,,,,,,,,,1,4,3,stim/43.jpeg,Instruments,1,stim/objects/Instruments/timbal3.png,0.5,1,-0.2,0.15,left,51,2021-01-21_09h07.26.728,premup-three_ses-02_part-02_label-phase2,3.2.4,Win32,60,,,,,,,,,,,,,,,,,1,0,330,42,1,329,1,,,,,,
left,0.726000071,0,284,,,,,,,,,,,,,3,2,3,stim/23.jpeg,HouseObjects,2,stim/objects/HouseObjects/teapot4.png,0.1,2,0.2,0.15,right,51,2021-01-21_09h07.26.728,premup-three_ses-02_part-02_label-phase2,3.2.4,Win32,60,,,,,,,,,,,,,,,,,1,0,330,324,1,329,1,,,,,,
right,0.621000051,1,285,,,,,,,,,,,,,3,1,4,stim/14.jpeg,HouseObjects,2,stim/objects/HouseObjects/lintroller3.png,0.9,1,-0.2,0.15,right,51,2021-01-21_09h07.26.728,premup-three_ses-02_part-02_label-phase2,3.2.4,Win32,60,,,,,,,,,,,,,,,,,1,0,330,181,1,329,2,,,,,,
left,0.690999985,1,286,,,,,,,,,,,,,1,4,4,stim/44.jpeg,Instruments,1,stim/objects/Instruments/cello3.png,0.5,3,-0.2,-0.15,left,51,2021-01-21_09h07.26.728,premup-three_ses-02_part-02_label-phase2,3.2.4,Win32,60,,,,,,,,,,,,,,,,,1,0,330,31,1,329,2,,,,,,
left,0.780999899,1,287,,,,,,,,,,,,,3,2,1,stim/21.jpeg,Instruments,1,stim/objects/Instruments/musicsheet3.png,0.9,4,0.2,-0.15,left,51,2021-01-21_09h07.26.728,premup-three_ses-02_part-02_label-phase2,3.2.4,Win32,60,,,,,,,,,,,,,,,,,1,0,330,282,1,329,2,,,,,,
right,0.736999989,1,288,,,,,,,,,,,,,3,1,1,stim/11.jpeg,HouseObjects,2,stim/objects/HouseObjects/pan3.png,0.9,4,0.2,-0.15,right,51,2021-01-21_09h07.26.728,premup-three_ses-02_part-02_label-phase2,3.2.4,Win32,60,,,,,,,,,,,,,,,,,1,0,330,158,1,329,2,,,,,,
right,0.786999702,1,289,,,,,,,,,,,,,3,1,3,stim/13.jpeg,HouseObjects,2,stim/objects/HouseObjects/lintroller3.png,0.9,3,-0.2,-0.15,right,51,2021-01-21_09h07.26.728,premup-three_ses-02_part-02_label-phase2,3.2.4,Win32,60,,,,,,,,,,,,,,,,,1,0,330,176,1,329,2,,,,,,
right,0.59499979,1,290,,,,,,,,,,,,,3,1,2,stim/12.jpeg,HouseObjects,2,stim/objects/HouseObjects/lintroller3.png,0.9,1,-0.2,0.15,right,51,2021-01-21_09h07.26.728,premup-three_ses-02_part-02_label-phase2,3.2.4,Win32,60,,,,,,,,,,,,,,,,,1,0,330,211,1,329,2,,,,,,
left,0.539999962,1,291,,,,,,,,,,,,,2,6,1,stim/61.jpeg,Instruments,1,stim/objects/Instruments/cymbal4.png,0.7,1,-0.2,0.15,left,51,2021-01-21_09h07.26.728,premup-three_ses-02_part-02_label-phase2,3.2.4,Win32,60,,,,,,,,,,,,,,,,,1,0,330,115,1,329,1,,,,,,
right,0.545000076,1,292,,,,,,,,,,,,,3,1,4,stim/14.jpeg,HouseObjects,2,stim/objects/HouseObjects/lintroller4.png,0.9,4,0.2,-0.15,right,51,2021-01-21_09h07.26.728,premup-three_ses-02_part-02_label-phase2,3.2.4,Win32,60,,,,,,,,,,,,,,,,,1,0,330,221,1,329,1,,,,,,
right,0.709000111,1,293,,,,,,,,,,,,,2,5,3,stim/53.jpeg,HouseObjects,2,stim/objects/HouseObjects/key3.png,0.7,2,0.2,0.15,right,51,2021-01-21_09h07.26.728,premup-three_ses-02_part-02_label-phase2,3.2.4,Win32,60,,,,,,,,,,,,,,,,,1,0,330,74,1,329,2,,,,,,
left,0.718999863,1,294,,,,,,,,,,,,,3,2,3,stim/23.jpeg,Instruments,1,stim/objects/Instruments/marimba3.png,0.9,4,0.2,-0.15,left,51,2021-01-21_09h07.26.728,premup-three_ses-02_part-02_label-phase2,3.2.4,Win32,60,,,,,,,,,,,,,,,,,1,0,330,260,1,329,2,,,,,,
left,0.758999825,0,295,,,,,,,,,,,,,2,5,3,stim/53.jpeg,HouseObjects,2,stim/objects/HouseObjects/ashtray4.png,0.7,3,-0.2,-0.15,right,51,2021-01-21_09h07.26.728,premup-three_ses-02_part-02_label-phase2,3.2.4,Win32,60,,,,,,,,,,,,,,,,,1,0,330,90,1,329,1,,,,,,
left,0.644999981,1,296,,,,,,,,,,,,,3,2,3,stim/23.jpeg,Instruments,1,stim/objects/Instruments/musicstand3.png,0.9,4,0.2,-0.15,left,51,2021-01-21_09h07.26.728,premup-three_ses-02_part-02_label-phase2,3.2.4,Win32,60,,,,,,,,,,,,,,,,,1,0,330,288,1,329,2,,,,,,
right,0.592999935,0,297,,,,,,,,,,,,,2,5,4,stim/54.jpeg,Instruments,1,stim/objects/Instruments/vuvuzela3.png,0.3,4,0.2,-0.15,left,51,2021-01-21_09h07.26.728,premup-three_ses-02_part-02_label-phase2,3.2.4,Win32,60,,,,,,,,,,,,,,,,,1,0,330,63,1,329,1,,,,,,
left,0.65199995,0,298,,,,,,,,,,,,,3,2,1,stim/21.jpeg,HouseObjects,2,stim/objects/HouseObjects/sponge4.png,0.1,3,-0.2,-0.15,right,51,2021-01-21_09h07.26.728,premup-three_ses-02_part-02_label-phase2,3.2.4,Win32,60,,,,,,,,,,,,,,,,,1,0,330,322,1,329,1,,,,,,
right,0.588000059,0,299,,,,,,,,,,,,,3,1,2,stim/12.jpeg,Instruments,1,stim/objects/Instruments/saxophone4.png,0.1,4,0.2,-0.15,left,51,2021-01-21_09h07.26.728,premup-three_ses-02_part-02_label-phase2,3.2.4,Win32,60,,,,,,,,,,,,,,,,,1,0,330,139,1,329,1,,,,,,
right,0.578999996,1,300,,,,,,,,,,,,,3,1,1,stim/11.jpeg,HouseObjects,2,stim/objects/HouseObjects/knife3.png,0.9,4,0.2,-0.15,right,51,2021-01-21_09h07.26.728,premup-three_ses-02_part-02_label-phase2,3.2.4,Win32,60,,,,,,,,,,,,,,,,,1,0,330,170,1,329,2,,,,,,
left,0.674999952,1,301,,,,,,,,,,,,,2,6,3,stim/63.jpeg,Instruments,1,stim/objects/Instruments/maraca3.png,0.7,3,-0.2,-0.15,left,51,2021-01-21_09h07.26.728,premup-three_ses-02_part-02_label-phase2,3.2.4,Win32,60,,,,,,,,,,,,,,,,,1,0,330,109,1,329,2,,,,,,
right,0.759999752,1,302,,,,,,,,,,,,,3,1,1,stim/11.jpeg,HouseObjects,2,stim/objects/HouseObjects/pan3.png,0.9,1,-0.2,0.15,right,51,2021-01-21_09h07.26.728,premup-three_ses-02_part-02_label-phase2,3.2.4,Win32,60,,,,,,,,,,,,,,,,,1,0,330,198,1,329,2,,,,,,
left,0.571999788,1,303,,,,,,,,,,,,,3,2,2,stim/22.jpeg,Instruments,1,stim/objects/Instruments/marimba3.png,0.9,3,-0.2,-0.15,left,51,2021-01-21_09h07.26.728,premup-three_ses-02_part-02_label-phase2,3.2.4,Win32,60,,,,,,,,,,,,,,,,,1,0,330,275,1,329,2,,,,,,
right,0.791999817,1,304,,,,,,,,,,,,,3,1,4,stim/14.jpeg,HouseObjects,2,stim/objects/HouseObjects/pan3.png,0.9,3,-0.2,-0.15,right,51,2021-01-21_09h07.26.728,premup-three_ses-02_part-02_label-phase2,3.2.4,Win32,60,,,,,,,,,,,,,,,,,1,0,330,153,1,329,2,,,,,,
right,0.717000008,0,305,,,,,,,,,,,,,1,3,1,stim/31.jpeg,Instruments,1,stim/objects/Instruments/accordion3.png,0.5,1,-0.2,0.15,left,51,2021-01-21_09h07.26.728,premup-three_ses-02_part-02_label-phase2,3.2.4,Win32,60,,,,,,,,,,,,,,,,,1,0,330,0,1,329,2,,,,,,
left,0.65199995,1,306,,,,,,,,,,,,,1,4,4,stim/44.jpeg,Instruments,1,stim/objects/Instruments/triangle3.png,0.5,1,-0.2,0.15,left,51,2021-01-21_09h07.26.728,premup-three_ses-02_part-02_label-phase2,3.2.4,Win32,60,,,,,,,,,,,,,,,,,1,0,330,43,1,329,1,,,,,,
right,0.564999819,1,307,,,,,,,,,,,,,3,1,1,stim/11.jpeg,HouseObjects,2,stim/objects/HouseObjects/lintroller3.png,0.9,3,-0.2,-0.15,right,51,2021-01-21_09h07.26.728,premup-three_ses-02_part-02_label-phase2,3.2.4,Win32,60,,,,,,,,,,,,,,,,,1,0,330,186,1,329,2,,,,,,
right,0.736000061,0,308,,,,,,,,,,,,,1,4,1,stim/41.jpeg,Instruments,1,stim/objects/Instruments/speaker3.png,0.5,4,0.2,-0.15,left,51,2021-01-21_09h07.26.728,premup-three_ses-02_part-02_label-phase2,3.2.4,Win32,60,,,,,,,,,,,,,,,,,1,0,330,40,1,329,1,,,,,,
right,0.823999882,0,309,,,,,,,,,,,,,2,5,4,stim/54.jpeg,Instruments,1,stim/objects/Instruments/balalaika4.png,0.3,4,0.2,-0.15,left,51,2021-01-21_09h07.26.728,premup-three_ses-02_part-02_label-phase2,3.2.4,Win32,60,,,,,,,,,,,,,,,,,1,0,330,67,1,329,1,,,,,,
left,0.717999935,1,310,,,,,,,,,,,,,2,6,4,stim/64.jpeg,Instruments,1,stim/objects/Instruments/laud4.png,0.7,2,0.2,0.15,left,51,2021-01-21_09h07.26.728,premup-three_ses-02_part-02_label-phase2,3.2.4,Win32,60,,,,,,,,,,,,,,,,,1,0,330,118,1,329,1,,,,,,
right,0.535000086,1,311,,,,,,,,,,,,,3,1,4,stim/14.jpeg,HouseObjects,2,stim/objects/HouseObjects/pitcher3.png,0.9,4,0.2,-0.15,right,51,2021-01-21_09h07.26.728,premup-three_ses-02_part-02_label-phase2,3.2.4,Win32,60,,,,,,,,,,,,,,,,,1,0,330,169,1,329,2,,,,,,
left,0.588999748,1,312,,,,,,,,,,,,,3,2,1,stim/21.jpeg,Instruments,1,stim/objects/Instruments/musicstand3.png,0.9,2,0.2,0.15,left,51,2021-01-21_09h07.26.728,premup-three_ses-02_part-02_label-phase2,3.2.4,Win32,60,,,,,,,,,,,,,,,,,1,0,330,238,1,329,2,,,,,,
left,0.688999891,1,313,,,,,,,,,,,,,2,6,3,stim/63.jpeg,Instruments,1,stim/objects/Instruments/keyboard4.png,0.7,2,0.2,0.15,left,51,2021-01-21_09h07.26.728,premup-three_ses-02_part-02_label-phase2,3.2.4,Win32,60,,,,,,,,,,,,,,,,,1,0,330,117,1,329,1,,,,,,
left,0.539999962,1,314,,,,,,,,,,,,,3,2,1,stim/21.jpeg,Instruments,1,stim/objects/Instruments/oboe3.png,0.9,2,0.2,0.15,left,51,2021-01-21_09h07.26.728,premup-three_ses-02_part-02_label-phase2,3.2.4,Win32,60,,,,,,,,,,,,,,,,,1,0,330,294,1,329,2,,,,,,
right,0.755999804,1,315,,,,,,,,,,,,,2,5,2,stim/52.jpeg,HouseObjects,2,stim/objects/HouseObjects/thermometer3.png,0.7,2,0.2,0.15,right,51,2021-01-21_09h07.26.728,premup-three_ses-02_part-02_label-phase2,3.2.4,Win32,60,,,,,,,,,,,,,,,,,1,0,330,85,1,329,1,,,,,,
left,0.729999781,1,316,,,,,,,,,,,,,1,4,4,stim/44.jpeg,Instruments,1,stim/objects/Instruments/cornet3.png,0.5,4,0.2,-0.15,left,51,2021-01-21_09h07.26.728,premup-three_ses-02_part-02_label-phase2,3.2.4,Win32,60,,,,,,,,,,,,,,,,,1,0,330,39,1,329,2,,,,,,
left,0.566999912,1,317,,,,,,,,,,,,,2,6,2,stim/62.jpeg,Instruments,1,stim/objects/Instruments/doublebass3.png,0.7,3,-0.2,-0.15,left,51,2021-01-21_09h07.26.728,premup-three_ses-02_part-02_label-phase2,3.2.4,Win32,60,,,,,,,,,,,,,,,,,1,0,330,96,1,329,2,,,,,,
right,0.59100008,0,318,,,,,,,,,,,,,2,5,2,stim/52.jpeg,Instruments,1,stim/objects/Instruments/tuba3.png,0.3,4,0.2,-0.15,left,51,2021-01-21_09h07.26.728,premup-three_ses-02_part-02_label-phase2,3.2.4,Win32,60,,,,,,,,,,,,,,,,,1,0,330,61,1,329,1,,,,,,
left,0.601999998,1,319,,,,,,,,,,,,,3,2,3,stim/23.jpeg,Instruments,1,stim/objects/Instruments/metronome3.png,0.9,2,0.2,0.15,left,51,2021-01-21_09h07.26.728,premup-three_ses-02_part-02_label-phase2,3.2.4,Win32,60,,,,,,,,,,,,,,,,,1,0,330,256,1,329,2,,,,,,
left,0.688999891,0,320,,,,,,,,,,,,,2,5,3,stim/53.jpeg,HouseObjects,2,stim/objects/HouseObjects/bleachbottle4.png,0.7,1,-0.2,0.15,right,51,2021-01-21_09h07.26.728,premup-three_ses-02_part-02_label-phase2,3.2.4,Win32,60,,,,,,,,,,,,,,,,,1,0,330,94,1,329,1,,,,,,
right,0.52699995,1,321,,,,,,,,,,,,,3,1,1,stim/11.jpeg,HouseObjects,2,stim/objects/HouseObjects/match4.png,0.9,2,0.2,0.15,right,51,2021-01-21_09h07.26.728,premup-three_ses-02_part-02_label-phase2,3.2.4,Win32,60,,,,,,,,,,,,,,,,,1,0,330,222,1,329,1,,,,,,
left,0.667000055,1,322,,,,,,,,,,,,,3,2,3,stim/23.jpeg,Instruments,1,stim/objects/Instruments/tuba4.png,0.9,3,-0.2,-0.15,left,51,2021-01-21_09h07.26.728,premup-three_ses-02_part-02_label-phase2,3.2.4,Win32,60,,,,,,,,,,,,,,,,,1,0,330,316,1,329,1,,,,,,
left,0.544999838,1,323,,,,,,,,,,,,,3,2,3,stim/23.jpeg,Instruments,1,stim/objects/Instruments/oboe3.png,0.9,3,-0.2,-0.15,left,51,2021-01-21_09h07.26.728,premup-three_ses-02_part-02_label-phase2,3.2.4,Win32,60,,,,,,,,,,,,,,,,,1,0,330,304,1,329,2,,,,,,
right,0.718999863,1,324,,,,,,,,,,,,,3,1,4,stim/14.jpeg,HouseObjects,2,stim/objects/HouseObjects/knife3.png,0.9,3,-0.2,-0.15,right,51,2021-01-21_09h07.26.728,premup-three_ses-02_part-02_label-phase2,3.2.4,Win32,60,,,,,,,,,,,,,,,,,1,0,330,145,1,329,2,,,,,,
left,0.829999924,0,325,,,,,,,,,,,,,1,4,2,stim/42.jpeg,HouseObjects,2,stim/objects/HouseObjects/blender3.png,0.5,1,-0.2,0.15,right,51,2021-01-21_09h07.26.728,premup-three_ses-02_part-02_label-phase2,3.2.4,Win32,60,,,,,,,,,,,,,,,,,1,0,330,45,1,329,2,,,,,,
right,0.553999901,1,326,,,,,,,,,,,,,3,1,1,stim/11.jpeg,HouseObjects,2,stim/objects/HouseObjects/pitcher3.png,0.9,4,0.2,-0.15,right,51,2021-01-21_09h07.26.728,premup-three_ses-02_part-02_label-phase2,3.2.4,Win32,60,,,,,,,,,,,,,,,,,1,0,330,174,1,329,2,,,,,,
right,0.510999918,0,327,,,,,,,,,,,,,3,1,1,stim/11.jpeg,Instruments,1,stim/objects/Instruments/marimba4.png,0.1,4,0.2,-0.15,left,51,2021-01-21_09h07.26.728,premup-three_ses-02_part-02_label-phase2,3.2.4,Win32,60,,,,,,,,,,,,,,,,,1,0,330,130,1,329,1,,,,,,
right,0.805999756,0,328,,,,,,,,,,,,,1,3,3,stim/33.jpeg,Instruments,1,stim/objects/Instruments/balalaika3.png,0.5,2,0.2,0.15,left,51,2021-01-21_09h07.26.728,premup-three_ses-02_part-02_label-phase2,3.2.4,Win32,60,,,,,,,,,,,,,,,,,1,0,330,2,1,329,2,,,,,,
left,0.582999945,1,329,,,,,,,,,,,,,3,2,2,stim/22.jpeg,Instruments,1,stim/objects/Instruments/metronome3.png,0.9,1,-0.2,0.15,left,51,2021-01-21_09h07.26.728,premup-three_ses-02_part-02_label-phase2,3.2.4,Win32,60,,,,,,,,,,,,,,,,,1,0,330,251,1,329,2,,,,,,
left,0.571000099,1,330,,,,,,,,,,,,,3,2,1,stim/21.jpeg,Instruments,1,stim/objects/Instruments/marimba3.png,0.9,2,0.2,0.15,left,51,2021-01-21_09h07.26.728,premup-three_ses-02_part-02_label-phase2,3.2.4,Win32,60,,,,,,,,,,,,,,,,,1,0,330,250,1,329,2,,,,,,
left,0.823999882,1,331,,,,,,,,,,,,,2,6,2,stim/62.jpeg,Instruments,1,stim/objects/Instruments/maraca3.png,0.7,1,-0.2,0.15,left,51,2021-01-21_09h07.26.728,premup-three_ses-02_part-02_label-phase2,3.2.4,Win32,60,,,,,,,,,,,,,,,,,1,0,330,104,1,329,2,,,,,,
right,0.644999981,1,332,,,,,,,,,,,,,3,1,4,stim/14.jpeg,HouseObjects,2,stim/objects/HouseObjects/pan3.png,0.9,3,-0.2,-0.15,right,51,2021-01-21_09h07.26.728,premup-three_ses-02_part-02_label-phase2,3.2.4,Win32,60,,,,,,,,,,,,,,,,,1,0,330,193,1,329,2,,,,,,
right,0.54399991,1,333,,,,,,,,,,,,,3,1,2,stim/12.jpeg,HouseObjects,2,stim/objects/HouseObjects/lintroller3.png,0.9,4,0.2,-0.15,right,51,2021-01-21_09h07.26.728,premup-three_ses-02_part-02_label-phase2,3.2.4,Win32,60,,,,,,,,,,,,,,,,,1,0,330,191,1,329,2,,,,,,
left,0.571000099,1,334,,,,,,,,,,,,,3,2,2,stim/22.jpeg,Instruments,1,stim/objects/Instruments/marimba3.png,0.9,2,0.2,0.15,left,51,2021-01-21_09h07.26.728,premup-three_ses-02_part-02_label-phase2,3.2.4,Win32,60,,,,,,,,,,,,,,,,,1,0,330,235,1,329,2,,,,,,
right,0.74399972,0,335,,,,,,,,,,,,,2,6,2,stim/62.jpeg,Instruments,1,stim/objects/Instruments/cymbal3.png,0.7,4,0.2,-0.15,left,51,2021-01-21_09h07.26.728,premup-three_ses-02_part-02_label-phase2,3.2.4,Win32,60,,,,,,,,,,,,,,,,,1,0,330,100,1,329,2,,,,,,
right,0.723999977,0,336,,,,,,,,,,,,,3,1,1,stim/11.jpeg,Instruments,1,stim/objects/Instruments/record_player4.png,0.1,1,-0.2,0.15,left,51,2021-01-21_09h07.26.728,premup-three_ses-02_part-02_label-phase2,3.2.4,Win32,60,,,,,,,,,,,,,,,,,1,0,330,138,1,329,1,,,,,,
right,0.879999876,1,337,,,,,,,,,,,,,3,1,3,stim/13.jpeg,HouseObjects,2,stim/objects/HouseObjects/pitcher3.png,0.9,4,0.2,-0.15,right,51,2021-01-21_09h07.26.728,premup-three_ses-02_part-02_label-phase2,3.2.4,Win32,60,,,,,,,,,,,,,,,,,1,0,330,184,1,329,2,,,,,,
left,0.496000051,0,338,,,,,,,,,,,,,3,1,4,stim/14.jpeg,HouseObjects,2,stim/objects/HouseObjects/pitcher3.png,0.9,1,-0.2,0.15,right,51,2021-01-21_09h07.26.728,premup-three_ses-02_part-02_label-phase2,3.2.4,Win32,60,,,,,,,,,,,,,,,,,1,0,330,189,1,329,2,,,,,,
left,0.691999912,1,339,,,,,,,,,,,,,3,2,1,stim/21.jpeg,Instruments,1,stim/objects/Instruments/metronome3.png,0.9,4,0.2,-0.15,left,51,2021-01-21_09h07.26.728,premup-three_ses-02_part-02_label-phase2,3.2.4,Win32,60,,,,,,,,,,,,,,,,,1,0,330,246,1,329,2,,,,,,
right,0.524999857,1,340,,,,,,,,,,,,,3,1,1,stim/11.jpeg,HouseObjects,2,stim/objects/HouseObjects/lintroller3.png,0.9,4,0.2,-0.15,right,51,2021-01-21_09h07.26.728,premup-three_ses-02_part-02_label-phase2,3.2.4,Win32,60,,,,,,,,,,,,,,,,,1,0,330,166,1,329,2,,,,,,
right,0.651999712,1,341,,,,,,,,,,,,,3,1,1,stim/11.jpeg,HouseObjects,2,stim/objects/HouseObjects/pitcher3.png,0.9,2,0.2,0.15,right,51,2021-01-21_09h07.26.728,premup-three_ses-02_part-02_label-phase2,3.2.4,Win32,60,,,,,,,,,,,,,,,,,1,0,330,214,1,329,2,,,,,,
left,0.59100008,1,342,,,,,,,,,,,,,3,2,2,stim/22.jpeg,Instruments,1,stim/objects/Instruments/musicstand3.png,0.9,1,-0.2,0.15,left,51,2021-01-21_09h07.26.728,premup-three_ses-02_part-02_label-phase2,3.2.4,Win32,60,,,,,,,,,,,,,,,,,1,0,330,243,1,329,2,,,,,,
right,0.758999825,1,343,,,,,,,,,,,,,3,1,4,stim/14.jpeg,HouseObjects,2,stim/objects/HouseObjects/pitcher3.png,0.9,2,0.2,0.15,right,51,2021-01-21_09h07.26.728,premup-three_ses-02_part-02_label-phase2,3.2.4,Win32,60,,,,,,,,,,,,,,,,,1,0,330,149,1,329,2,,,,,,
left,0.710000038,0,344,,,,,,,,,,,,,1,3,2,stim/32.jpeg,HouseObjects,2,stim/objects/HouseObjects/barbecuelighter3.png,0.5,3,-0.2,-0.15,right,51,2021-01-21_09h07.26.728,premup-three_ses-02_part-02_label-phase2,3.2.4,Win32,60,,,,,,,,,,,,,,,,,1,0,330,17,1,329,2,,,,,,
left,0.640000105,1,345,,,,,,,,,,,,,3,2,3,stim/23.jpeg,Instruments,1,stim/objects/Instruments/marimba3.png,0.9,2,0.2,0.15,left,51,2021-01-21_09h07.26.728,premup-three_ses-02_part-02_label-phase2,3.2.4,Win32,60,,,,,,,,,,,,,,,,,1,0,330,280,1,329,2,,,,,,
left,0.670000076,0,346,,,,,,,,,,,,,2,6,3,stim/63.jpeg,HouseObjects,2,stim/objects/HouseObjects/key4.png,0.3,1,-0.2,0.15,right,51,2021-01-21_09h07.26.728,premup-three_ses-02_part-02_label-phase2,3.2.4,Win32,60,,,,,,,,,,,,,,,,,1,0,330,129,1,329,1,,,,,,
left,0.608999968,1,347,,,,,,,,,,,,,3,2,1,stim/21.jpeg,Instruments,1,stim/objects/Instruments/trombone4.png,0.9,2,0.2,0.15,left,51,2021-01-21_09h07.26.728,premup-three_ses-02_part-02_label-phase2,3.2.4,Win32,60,,,,,,,,,,,,,,,,,1,0,330,314,1,329,1,,,,,,
right,0.639999866,1,348,,,,,,,,,,,,,3,1,3,stim/13.jpeg,HouseObjects,2,stim/objects/HouseObjects/pitcher3.png,0.9,3,-0.2,-0.15,right,51,2021-01-21_09h07.26.728,premup-three_ses-02_part-02_label-phase2,3.2.4,Win32,60,,,,,,,,,,,,,,,,,1,0,330,204,1,329,2,,,,,,
right,0.811999798,1,349,,,,,,,,,,,,,1,4,3,stim/43.jpeg,HouseObjects,2,stim/objects/HouseObjects/blender3.png,0.5,2,0.2,0.15,right,51,2021-01-21_09h07.26.728,premup-three_ses-02_part-02_label-phase2,3.2.4,Win32,60,,,,,,,,,,,,,,,,,1,0,330,50,1,329,2,,,,,,
right,0.510999918,0,350,,,,,,,,,,,,,2,6,1,stim/61.jpeg,Instruments,1,stim/objects/Instruments/cello4.png,0.7,4,0.2,-0.15,left,51,2021-01-21_09h07.26.728,premup-three_ses-02_part-02_label-phase2,3.2.4,Win32,60,,,,,,,,,,,,,,,,,1,0,330,111,1,329,1,,,,,,
right,0.555999994,1,351,,,,,,,,,,,,,3,1,3,stim/13.jpeg,HouseObjects,2,stim/objects/HouseObjects/knife4.png,0.9,2,0.2,0.15,right,51,2021-01-21_09h07.26.728,premup-three_ses-02_part-02_label-phase2,3.2.4,Win32,60,,,,,,,,,,,,,,,,,1,0,330,220,1,329,1,,,,,,
right,0.773999929,0,352,,,,,,,,,,,,,3,2,4,stim/24.jpeg,Instruments,1,stim/objects/Instruments/metronome3.png,0.9,1,-0.2,0.15,left,51,2021-01-21_09h07.26.728,premup-three_ses-02_part-02_label-phase2,3.2.4,Win32,60,,,,,,,,,,,,,,,,,1,0,330,281,1,329,2,,,,,,
right,0.806999922,0,353,,,,,,,,,,,,,2,6,1,stim/61.jpeg,Instruments,1,stim/objects/Instruments/cymbal3.png,0.7,4,0.2,-0.15,left,51,2021-01-21_09h07.26.728,premup-three_ses-02_part-02_label-phase2,3.2.4,Win32,60,,,,,,,,,,,,,,,,,1,0,330,95,1,329,2,,,,,,
right,0.735999823,1,354,,,,,,,,,,,,,3,1,4,stim/14.jpeg,HouseObjects,2,stim/objects/HouseObjects/recyclingbin4.png,0.9,3,-0.2,-0.15,right,51,2021-01-21_09h07.26.728,premup-three_ses-02_part-02_label-phase2,3.2.4,Win32,60,,,,,,,,,,,,,,,,,1,0,330,225,1,329,1,,,,,,
,,0,355,,,,,,,,,,,,,1,3,1,stim/31.jpeg,HouseObjects,2,stim/objects/HouseObjects/bleachbottle3.png,0.5,4,0.2,-0.15,right,51,2021-01-21_09h07.26.728,premup-three_ses-02_part-02_label-phase2,3.2.4,Win32,60,,,,,,,,,,,,,,,,,1,0,330,24,1,329,2,,,,,,
right,0.593999863,0,356,,,,,,,,,,,,,2,6,3,stim/63.jpeg,Instruments,1,stim/objects/Instruments/doublebass3.png,0.7,2,0.2,0.15,left,51,2021-01-21_09h07.26.728,premup-three_ses-02_part-02_label-phase2,3.2.4,Win32,60,,,,,,,,,,,,,,,,,1,0,330,101,1,329,2,,,,,,
left,0.845000029,1,357,,,,,,,,,,,,,1,4,1,stim/41.jpeg,Instruments,1,stim/objects/Instruments/trombone3.png,0.5,3,-0.2,-0.15,left,51,2021-01-21_09h07.26.728,premup-three_ses-02_part-02_label-phase2,3.2.4,Win32,60,,,,,,,,,,,,,,,,,1,0,330,44,1,329,1,,,,,,
right,0.569999933,1,358,,,,,,,,,,,,,2,5,2,stim/52.jpeg,HouseObjects,2,stim/objects/HouseObjects/iron3.png,0.7,4,0.2,-0.15,right,51,2021-01-21_09h07.26.728,premup-three_ses-02_part-02_label-phase2,3.2.4,Win32,60,,,,,,,,,,,,,,,,,1,0,330,77,1,329,2,,,,,,
right,0.572000027,1,359,,,,,,,,,,,,,3,1,3,stim/13.jpeg,HouseObjects,2,stim/objects/HouseObjects/knife3.png,0.9,1,-0.2,0.15,right,51,2021-01-21_09h07.26.728,premup-three_ses-02_part-02_label-phase2,3.2.4,Win32,60,,,,,,,,,,,,,,,,,1,0,330,180,1,329,2,,,,,,
left,0.649999857,1,360,,,,,,,,,,,,,3,2,3,stim/23.jpeg,Instruments,1,stim/objects/Instruments/metronome3.png,0.9,4,0.2,-0.15,left,51,2021-01-21_09h07.26.728,premup-three_ses-02_part-02_label-phase2,3.2.4,Win32,60,,,,,,,,,,,,,,,,,1,0,330,276,1,329,2,,,,,,
right,0.556999922,1,361,,,,,,,,,,,,,3,1,2,stim/12.jpeg,HouseObjects,2,stim/objects/HouseObjects/pitcher3.png,0.9,2,0.2,0.15,right,51,2021-01-21_09h07.26.728,premup-three_ses-02_part-02_label-phase2,3.2.4,Win32,60,,,,,,,,,,,,,,,,,1,0,330,219,1,329,2,,,,,,
left,0.624000072,1,362,,,,,,,,,,,,,1,3,3,stim/33.jpeg,Instruments,1,stim/objects/Instruments/saxophone3.png,0.5,3,-0.2,-0.15,left,51,2021-01-21_09h07.26.728,premup-three_ses-02_part-02_label-phase2,3.2.4,Win32,60,,,,,,,,,,,,,,,,,1,0,330,14,1,329,1,,,,,,
right,0.518999815,1,363,,,,,,,,,,,,,3,1,1,stim/11.jpeg,HouseObjects,2,stim/objects/HouseObjects/knife3.png,0.9,4,0.2,-0.15,right,51,2021-01-21_09h07.26.728,premup-three_ses-02_part-02_label-phase2,3.2.4,Win32,60,,,,,,,,,,,,,,,,,1,0,330,190,1,329,2,,,,,,
left,0.713000059,1,364,,,,,,,,,,,,,2,5,1,stim/51.jpeg,Instruments,1,stim/objects/Instruments/banjo4.png,0.3,3,-0.2,-0.15,left,51,2021-01-21_09h07.26.728,premup-three_ses-02_part-02_label-phase2,3.2.4,Win32,60,,,,,,,,,,,,,,,,,1,0,330,68,1,329,1,,,,,,
right,0.564999819,1,365,,,,,,,,,,,,,3,1,1,stim/11.jpeg,HouseObjects,2,stim/objects/HouseObjects/remote4.png,0.9,1,-0.2,0.15,right,51,2021-01-21_09h07.26.728,premup-three_ses-02_part-02_label-phase2,3.2.4,Win32,60,,,,,,,,,,,,,,,,,1,0,330,226,1,329,1,,,,,,
right,0.54399991,1,366,,,,,,,,,,,,,3,1,4,stim/14.jpeg,HouseObjects,2,stim/objects/HouseObjects/pitcher3.png,0.9,1,-0.2,0.15,right,51,2021-01-21_09h07.26.728,premup-three_ses-02_part-02_label-phase2,3.2.4,Win32,60,,,,,,,,,,,,,,,,,1,0,330,209,1,329,2,,,,,,
right,0.500999928,1,367,,,,,,,,,,,,,3,1,3,stim/13.jpeg,HouseObjects,2,stim/objects/HouseObjects/match3.png,0.9,4,0.2,-0.15,right,51,2021-01-21_09h07.26.728,premup-three_ses-02_part-02_label-phase2,3.2.4,Win32,60,,,,,,,,,,,,,,,,,1,0,330,192,1,329,2,,,,,,
right,0.569999933,1,368,,,,,,,,,,,,,3,1,4,stim/14.jpeg,HouseObjects,2,stim/objects/HouseObjects/match3.png,0.9,2,0.2,0.15,right,51,2021-01-21_09h07.26.728,premup-three_ses-02_part-02_label-phase2,3.2.4,Win32,60,,,,,,,,,,,,,,,,,1,0,330,157,1,329,2,,,,,,
right,0.519999981,1,369,,,,,,,,,,,,,3,1,3,stim/13.jpeg,HouseObjects,2,stim/objects/HouseObjects/knife3.png,0.9,4,0.2,-0.15,right,51,2021-01-21_09h07.26.728,premup-three_ses-02_part-02_label-phase2,3.2.4,Win32,60,,,,,,,,,,,,,,,,,1,0,330,160,1,329,2,,,,,,
left,0.706999779,1,370,,,,,,,,,,,,,1,3,1,stim/31.jpeg,Instruments,1,stim/objects/Instruments/record3.png,0.5,4,0.2,-0.15,left,51,2021-01-21_09h07.26.728,premup-three_ses-02_part-02_label-phase2,3.2.4,Win32,60,,,,,,,,,,,,,,,,,1,0,330,12,1,329,1,,,,,,
right,0.664999723,0,371,,,,,,,,,,,,,3,2,2,stim/22.jpeg,Instruments,1,stim/objects/Instruments/xylophone4.png,0.9,4,0.2,-0.15,left,51,2021-01-21_09h07.26.728,premup-three_ses-02_part-02_label-phase2,3.2.4,Win32,60,,,,,,,,,,,,,,,,,1,0,330,319,1,329,1,,,,,,
right,0.677999973,1,372,,,,,,,,,,,,,1,3,3,stim/33.jpeg,HouseObjects,2,stim/objects/HouseObjects/basket3.png,0.5,4,0.2,-0.15,right,51,2021-01-21_09h07.26.728,premup-three_ses-02_part-02_label-phase2,3.2.4,Win32,60,,,,,,,,,,,,,,,,,1,0,330,18,1,329,2,,,,,,
right,0.637999773,1,373,,,,,,,,,,,,,3,1,2,stim/12.jpeg,HouseObjects,2,stim/objects/HouseObjects/knife3.png,0.9,3,-0.2,-0.15,right,51,2021-01-21_09h07.26.728,premup-three_ses-02_part-02_label-phase2,3.2.4,Win32,60,,,,,,,,,,,,,,,,,1,0,330,155,1,329,2,,,,,,
right,0.705999851,1,374,,,,,,,,,,,,,3,1,3,stim/13.jpeg,HouseObjects,2,stim/objects/HouseObjects/pan3.png,0.9,1,-0.2,0.15,right,51,2021-01-21_09h07.26.728,premup-three_ses-02_part-02_label-phase2,3.2.4,Win32,60,,,,,,,,,,,,,,,,,1,0,330,148,1,329,2,,,,,,
left,0.547999859,1,375,,,,,,,,,,,,,3,2,1,stim/21.jpeg,Instruments,1,stim/objects/Instruments/musicstand3.png,0.9,3,-0.2,-0.15,left,51,2021-01-21_09h07.26.728,premup-three_ses-02_part-02_label-phase2,3.2.4,Win32,60,,,,,,,,,,,,,,,,,1,0,330,278,1,329,2,,,,,,
left,0.549999952,1,376,,,,,,,,,,,,,3,2,4,stim/24.jpeg,Instruments,1,stim/objects/Instruments/oboe3.png,0.9,1,-0.2,0.15,left,51,2021-01-21_09h07.26.728,premup-three_ses-02_part-02_label-phase2,3.2.4,Win32,60,,,,,,,,,,,,,,,,,1,0,330,249,1,329,2,,,,,,
right,0.854999781,0,377,,,,,,,,,,,,,1,3,4,stim/34.jpeg,Instruments,1,stim/objects/Instruments/balalaika3.png,0.5,4,0.2,-0.15,left,51,2021-01-21_09h07.26.728,premup-three_ses-02_part-02_label-phase2,3.2.4,Win32,60,,,,,,,,,,,,,,,,,1,0,330,7,1,329,2,,,,,,
right,0.757999897,1,378,,,,,,,,,,,,,1,3,1,stim/31.jpeg,HouseObjects,2,stim/objects/HouseObjects/ashtray3.png,0.5,4,0.2,-0.15,right,51,2021-01-21_09h07.26.728,premup-three_ses-02_part-02_label-phase2,3.2.4,Win32,60,,,,,,,,,,,,,,,,,1,0,330,20,1,329,2,,,,,,
left,0.713999987,0,379,,,,,,,,,,,,,1,4,1,stim/41.jpeg,HouseObjects,2,stim/objects/HouseObjects/bucket3.png,0.5,2,0.2,0.15,right,51,2021-01-21_09h07.26.728,premup-three_ses-02_part-02_label-phase2,3.2.4,Win32,60,,,,,,,,,,,,,,,,,1,0,330,48,1,329,2,,,,,,
right,0.730999947,1,380,,,,,,,,,,,,,3,1,1,stim/11.jpeg,HouseObjects,2,stim/objects/HouseObjects/knife3.png,0.9,3,-0.2,-0.15,right,51,2021-01-21_09h07.26.728,premup-three_ses-02_part-02_label-phase2,3.2.4,Win32,60,,,,,,,,,,,,,,,,,1,0,330,150,1,329,2,,,,,,
