key_resp_pract.keys,key_resp_pract.rt,trial_acc,trial_index,practice_loop.thisRepN,practice_loop.thisTrialN,practice_loop.thisN,practice_loop.thisIndex,practice_loop.ran,practice_loop.order,scn_condition,scn_cat,scn_inst,scn_file,obj_cat,obj_cat_num,obj_file,trial_cond,quadrant,obj_x,obj_y,corr_ans,participant,date,expName,psychopyVersion,OS,frameRate,key_resp_trial.keys,key_resp_trial.rt,iterations.thisRepN,iterations.thisTrialN,iterations.thisN,iterations.thisIndex,iterations.ran,iterations.order,task_innerloop.thisRepN,task_innerloop.thisTrialN,task_innerloop.thisN,task_innerloop.thisIndex,task_innerloop.ran,task_innerloop.order,iteration_index,rating_acc,slider.response,slider.rt,slider_2.response,slider_2.rt,ratings.thisRepN,ratings.thisTrialN,ratings.thisN,ratings.thisIndex,ratings.ran,ratings.order,obj_cat_top,min_resp_top,max_resp_top,obj_cat_bottom,min_resp_bottom,max_resp_bottom
,,0,1,1,0,240,118,1,239,2,5,3,stim/53.jpeg,Instruments,2,stim/objects/Instruments/vuvuzela.png,0.7,4,0.2,-0.15,right,54,2021-02-02_08h37.50.369,premup-three_ses-01_part-01_label-phase1,3.2.4,Win32,60,,,,,,,,,,,,,,,,,,,,,,,,,,,,,,,,
right,1.450999975,0,2,1,0,240,1,1,239,1,3,2,stim/32.jpeg,HouseObjects,1,stim/objects/HouseObjects/safetypin.png,0.5,1,-0.2,0.15,left,54,2021-02-02_08h37.50.369,premup-three_ses-01_part-01_label-phase1,3.2.4,Win32,60,,,,,,,,,,,,,,,,,,,,,,,,,,,,,,,,
right,1.836999893,1,3,1,0,240,151,1,239,2,6,4,stim/64.jpeg,Instruments,2,stim/objects/Instruments/tambourine2.png,0.3,3,-0.2,-0.15,right,54,2021-02-02_08h37.50.369,premup-three_ses-01_part-01_label-phase1,3.2.4,Win32,60,,,,,,,,,,,,,,,,,,,,,,,,,,,,,,,,
right,1.694999933,0,4,1,0,240,219,1,239,3,2,4,stim/24.jpeg,HouseObjects,1,stim/objects/HouseObjects/wateringcan2.png,0.9,2,0.2,0.15,left,54,2021-02-02_08h37.50.369,premup-three_ses-01_part-01_label-phase1,3.2.4,Win32,60,,,,,,,,,,,,,,,,,,,,,,,,,,,,,,,,
left,1.833999872,0,5,1,0,240,179,1,239,3,1,4,stim/14.jpeg,Instruments,2,stim/objects/Instruments/trumpet2.png,0.9,1,-0.2,0.15,right,54,2021-02-02_08h37.50.369,premup-three_ses-01_part-01_label-phase1,3.2.4,Win32,60,,,,,,,,,,,,,,,,,,,,,,,,,,,,,,,,
right,1.11500001,0,6,1,0,240,132,1,239,2,6,1,stim/61.jpeg,HouseObjects,1,stim/objects/HouseObjects/rug2.png,0.7,2,0.2,0.15,left,54,2021-02-02_08h37.50.369,premup-three_ses-01_part-01_label-phase1,3.2.4,Win32,60,,,,,,,,,,,,,,,,,,,,,,,,,,,,,,,,
left,1.280999899,1,7,1,0,240,9,1,239,1,3,2,stim/32.jpeg,HouseObjects,1,stim/objects/HouseObjects/safetypin.png,0.5,3,-0.2,-0.15,left,54,2021-02-02_08h37.50.369,premup-three_ses-01_part-01_label-phase1,3.2.4,Win32,60,,,,,,,,,,,,,,,,,,,,,,,,,,,,,,,,
left,1.022999763,1,8,1,0,240,17,1,239,1,3,2,stim/32.jpeg,HouseObjects,1,stim/objects/HouseObjects/safetypin.png,0.5,4,0.2,-0.15,left,54,2021-02-02_08h37.50.369,premup-three_ses-01_part-01_label-phase1,3.2.4,Win32,60,,,,,,,,,,,,,,,,,,,,,,,,,,,,,,,,
right,1.413999796,0,9,1,0,240,88,1,239,2,5,1,stim/51.jpeg,HouseObjects,1,stim/objects/HouseObjects/thread.png,0.3,2,0.2,0.15,left,54,2021-02-02_08h37.50.369,premup-three_ses-01_part-01_label-phase1,3.2.4,Win32,60,,,,,,,,,,,,,,,,,,,,,,,,,,,,,,,,
left,1.342999935,0,10,1,0,240,107,1,239,2,5,4,stim/54.jpeg,Instruments,2,stim/objects/Instruments/xylophone.png,0.7,1,-0.2,0.15,right,54,2021-02-02_08h37.50.369,premup-three_ses-01_part-01_label-phase1,3.2.4,Win32,60,,,,,,,,,,,,,,,,,,,,,,,,,,,,,,,,
,,1,1,,,,,,,1,4,3,stim/43.jpeg,HouseObjects,1,stim/objects/HouseObjects/teapot.png,0.5,2,0.2,0.15,left,54,2021-02-02_08h37.50.369,premup-three_ses-01_part-01_label-phase1,3.2.4,Win32,60,left,1.127000093,4,0,4,0,1,3,1,0,240,50,1,239,,,,,,,,,,,,,,,,,,
,,1,2,,,,,,,3,2,3,stim/23.jpeg,HouseObjects,1,stim/objects/HouseObjects/vacuumcleaner2.png,0.9,3,-0.2,-0.15,left,54,2021-02-02_08h37.50.369,premup-three_ses-01_part-01_label-phase1,3.2.4,Win32,60,left,0.91899991,4,0,4,0,1,3,1,0,240,222,1,239,,,,,,,,,,,,,,,,,,
,,1,3,,,,,,,3,1,4,stim/14.jpeg,Instruments,2,stim/objects/Instruments/trumpet2.png,0.9,3,-0.2,-0.15,right,54,2021-02-02_08h37.50.369,premup-three_ses-01_part-01_label-phase1,3.2.4,Win32,60,right,1.103999853,4,0,4,0,1,3,1,0,240,191,1,239,,,,,,,,,,,,,,,,,,
,,0,4,,,,,,,1,3,4,stim/34.jpeg,HouseObjects,1,stim/objects/HouseObjects/scale.png,0.5,3,-0.2,-0.15,left,54,2021-02-02_08h37.50.369,premup-three_ses-01_part-01_label-phase1,3.2.4,Win32,60,right,1.264999866,4,0,4,0,1,3,1,0,240,11,1,239,,,,,,,,,,,,,,,,,,
,,0,5,,,,,,,1,3,1,stim/31.jpeg,Instruments,2,stim/objects/Instruments/record_player.png,0.5,4,0.2,-0.15,right,54,2021-02-02_08h37.50.369,premup-three_ses-01_part-01_label-phase1,3.2.4,Win32,60,left,0.81799984,4,0,4,0,1,3,1,0,240,24,1,239,,,,,,,,,,,,,,,,,,
,,1,6,,,,,,,2,5,1,stim/51.jpeg,Instruments,2,stim/objects/Instruments/tuba.png,0.7,2,0.2,0.15,right,54,2021-02-02_08h37.50.369,premup-three_ses-01_part-01_label-phase1,3.2.4,Win32,60,right,1.389999866,4,0,4,0,1,3,1,0,240,116,1,239,,,,,,,,,,,,,,,,,,
,,0,7,,,,,,,2,5,4,stim/54.jpeg,HouseObjects,1,stim/objects/HouseObjects/wateringcan.png,0.3,3,-0.2,-0.15,left,54,2021-02-02_08h37.50.369,premup-three_ses-01_part-01_label-phase1,3.2.4,Win32,60,right,0.934999943,4,0,4,0,1,3,1,0,240,83,1,239,,,,,,,,,,,,,,,,,,
,,0,8,,,,,,,1,3,2,stim/32.jpeg,Instruments,2,stim/objects/Instruments/saxophone.png,0.5,1,-0.2,0.15,right,54,2021-02-02_08h37.50.369,premup-three_ses-01_part-01_label-phase1,3.2.4,Win32,60,left,1.235000134,4,0,4,0,1,3,1,0,240,37,1,239,,,,,,,,,,,,,,,,,,
,,1,9,,,,,,,3,1,2,stim/12.jpeg,Instruments,2,stim/objects/Instruments/triangle2.png,0.9,3,-0.2,-0.15,right,54,2021-02-02_08h37.50.369,premup-three_ses-01_part-01_label-phase1,3.2.4,Win32,60,right,1.16899991,4,0,4,0,1,3,1,0,240,189,1,239,,,,,,,,,,,,,,,,,,
,,0,10,,,,,,,2,5,4,stim/54.jpeg,Instruments,2,stim/objects/Instruments/xylophone.png,0.7,1,-0.2,0.15,right,54,2021-02-02_08h37.50.369,premup-three_ses-01_part-01_label-phase1,3.2.4,Win32,60,left,1.059999943,4,0,4,0,1,3,1,0,240,107,1,239,,,,,,,,,,,,,,,,,,
,,1,11,,,,,,,1,3,2,stim/32.jpeg,Instruments,2,stim/objects/Instruments/saxophone.png,0.5,3,-0.2,-0.15,right,54,2021-02-02_08h37.50.369,premup-three_ses-01_part-01_label-phase1,3.2.4,Win32,60,right,1.572999716,4,0,4,0,1,3,1,0,240,25,1,239,,,,,,,,,,,,,,,,,,
,,1,12,,,,,,,1,4,4,stim/44.jpeg,HouseObjects,1,stim/objects/HouseObjects/thermometer.png,0.5,2,0.2,0.15,left,54,2021-02-02_08h37.50.369,premup-three_ses-01_part-01_label-phase1,3.2.4,Win32,60,left,1.080999851,4,0,4,0,1,3,1,0,240,55,1,239,,,,,,,,,,,,,,,,,,
,,0,13,,,,,,,2,6,4,stim/64.jpeg,HouseObjects,1,stim/objects/HouseObjects/scale2.png,0.7,3,-0.2,-0.15,left,54,2021-02-02_08h37.50.369,premup-three_ses-01_part-01_label-phase1,3.2.4,Win32,60,right,0.890999794,4,0,4,0,1,3,1,0,240,127,1,239,,,,,,,,,,,,,,,,,,
,,0,14,,,,,,,1,3,1,stim/31.jpeg,HouseObjects,1,stim/objects/HouseObjects/rug.png,0.5,2,0.2,0.15,left,54,2021-02-02_08h37.50.369,premup-three_ses-01_part-01_label-phase1,3.2.4,Win32,60,right,1.382999897,4,0,4,0,1,3,1,0,240,12,1,239,,,,,,,,,,,,,,,,,,
,,1,15,,,,,,,3,1,2,stim/12.jpeg,Instruments,2,stim/objects/Instruments/triangle2.png,0.9,3,-0.2,-0.15,right,54,2021-02-02_08h37.50.369,premup-three_ses-01_part-01_label-phase1,3.2.4,Win32,60,right,0.936999798,4,0,4,0,1,3,1,0,240,177,1,239,,,,,,,,,,,,,,,,,,
,,0,16,,,,,,,2,5,3,stim/53.jpeg,Instruments,2,stim/objects/Instruments/vuvuzela.png,0.7,2,0.2,0.15,right,54,2021-02-02_08h37.50.369,premup-three_ses-01_part-01_label-phase1,3.2.4,Win32,60,left,1.302000046,4,0,4,0,1,3,1,0,240,94,1,239,,,,,,,,,,,,,,,,,,
,,0,17,,,,,,,2,5,4,stim/54.jpeg,Instruments,2,stim/objects/Instruments/xylophone.png,0.7,1,-0.2,0.15,right,54,2021-02-02_08h37.50.369,premup-three_ses-01_part-01_label-phase1,3.2.4,Win32,60,left,0.875,4,0,4,0,1,3,1,0,240,119,1,239,,,,,,,,,,,,,,,,,,
,,1,18,,,,,,,2,5,3,stim/53.jpeg,Instruments,2,stim/objects/Instruments/vuvuzela.png,0.7,2,0.2,0.15,right,54,2021-02-02_08h37.50.369,premup-three_ses-01_part-01_label-phase1,3.2.4,Win32,60,right,0.889999866,4,0,4,0,1,3,1,0,240,114,1,239,,,,,,,,,,,,,,,,,,
,,1,19,,,,,,,2,6,1,stim/61.jpeg,HouseObjects,1,stim/objects/HouseObjects/rug2.png,0.7,2,0.2,0.15,left,54,2021-02-02_08h37.50.369,premup-three_ses-01_part-01_label-phase1,3.2.4,Win32,60,left,1.207000017,4,0,4,0,1,3,1,0,240,132,1,239,,,,,,,,,,,,,,,,,,
,,0,20,,,,,,,3,1,1,stim/11.jpeg,Instruments,2,stim/objects/Instruments/timbal2.png,0.9,4,0.2,-0.15,right,54,2021-02-02_08h37.50.369,premup-three_ses-01_part-01_label-phase1,3.2.4,Win32,60,left,1.247999907,4,0,4,0,1,3,1,0,240,192,1,239,,,,,,,,,,,,,,,,,,
,,1,21,,,,,,,2,6,1,stim/61.jpeg,HouseObjects,1,stim/objects/HouseObjects/rug2.png,0.7,3,-0.2,-0.15,left,54,2021-02-02_08h37.50.369,premup-three_ses-01_part-01_label-phase1,3.2.4,Win32,60,left,1.220999956,4,0,4,0,1,3,1,0,240,120,1,239,,,,,,,,,,,,,,,,,,
,,1,22,,,,,,,3,1,2,stim/12.jpeg,Instruments,2,stim/objects/Instruments/triangle2.png,0.9,3,-0.2,-0.15,right,54,2021-02-02_08h37.50.369,premup-three_ses-01_part-01_label-phase1,3.2.4,Win32,60,right,1.086999893,4,0,4,0,1,3,1,0,240,181,1,239,,,,,,,,,,,,,,,,,,
,,0,23,,,,,,,1,4,4,stim/44.jpeg,Instruments,2,stim/objects/Instruments/trumpet.png,0.5,3,-0.2,-0.15,right,54,2021-02-02_08h37.50.369,premup-three_ses-01_part-01_label-phase1,3.2.4,Win32,60,left,1.186999798,4,0,4,0,1,3,1,0,240,67,1,239,,,,,,,,,,,,,,,,,,
,,1,24,,,,,,,3,1,1,stim/11.jpeg,Instruments,2,stim/objects/Instruments/timbal2.png,0.9,1,-0.2,0.15,right,54,2021-02-02_08h37.50.369,premup-three_ses-01_part-01_label-phase1,3.2.4,Win32,60,right,1.136999846,4,0,4,0,1,3,1,0,240,188,1,239,,,,,,,,,,,,,,,,,,
,,1,25,,,,,,,1,3,4,stim/34.jpeg,Instruments,2,stim/objects/Instruments/tambourine.png,0.5,4,0.2,-0.15,right,54,2021-02-02_08h37.50.369,premup-three_ses-01_part-01_label-phase1,3.2.4,Win32,60,right,1.186000109,4,0,4,0,1,3,1,0,240,39,1,239,,,,,,,,,,,,,,,,,,
,,0,26,,,,,,,2,6,2,stim/62.jpeg,HouseObjects,1,stim/objects/HouseObjects/safetypin2.png,0.7,2,0.2,0.15,left,54,2021-02-02_08h37.50.369,premup-three_ses-01_part-01_label-phase1,3.2.4,Win32,60,right,0.937000036,4,0,4,0,1,3,1,0,240,137,1,239,,,,,,,,,,,,,,,,,,
,,1,27,,,,,,,1,4,2,stim/42.jpeg,Instruments,2,stim/objects/Instruments/triangle.png,0.5,3,-0.2,-0.15,right,54,2021-02-02_08h37.50.369,premup-three_ses-01_part-01_label-phase1,3.2.4,Win32,60,right,1.245999813,4,0,4,0,1,3,1,0,240,77,1,239,,,,,,,,,,,,,,,,,,
,,1,28,,,,,,,2,5,4,stim/54.jpeg,Instruments,2,stim/objects/Instruments/xylophone.png,0.7,2,0.2,0.15,right,54,2021-02-02_08h37.50.369,premup-three_ses-01_part-01_label-phase1,3.2.4,Win32,60,right,1.042000055,4,0,4,0,1,3,1,0,240,99,1,239,,,,,,,,,,,,,,,,,,
,,0,29,,,,,,,2,5,4,stim/54.jpeg,HouseObjects,1,stim/objects/HouseObjects/wateringcan.png,0.3,2,0.2,0.15,left,54,2021-02-02_08h37.50.369,premup-three_ses-01_part-01_label-phase1,3.2.4,Win32,60,right,0.790999889,4,0,4,0,1,3,1,0,240,91,1,239,,,,,,,,,,,,,,,,,,
,,0,30,,,,,,,1,3,2,stim/32.jpeg,HouseObjects,1,stim/objects/HouseObjects/safetypin.png,0.5,1,-0.2,0.15,left,54,2021-02-02_08h37.50.369,premup-three_ses-01_part-01_label-phase1,3.2.4,Win32,60,right,1.335999966,4,0,4,0,1,3,1,0,240,1,1,239,,,,,,,,,,,,,,,,,,
,,0,31,,,,,,,1,3,4,stim/34.jpeg,HouseObjects,1,stim/objects/HouseObjects/scale.png,0.5,2,0.2,0.15,left,54,2021-02-02_08h37.50.369,premup-three_ses-01_part-01_label-phase1,3.2.4,Win32,60,right,1.368999958,4,0,4,0,1,3,1,0,240,7,1,239,,,,,,,,,,,,,,,,,,
,,0,32,,,,,,,3,2,2,stim/22.jpeg,HouseObjects,1,stim/objects/HouseObjects/towel2.png,0.9,1,-0.2,0.15,left,54,2021-02-02_08h37.50.369,premup-three_ses-01_part-01_label-phase1,3.2.4,Win32,60,right,1.638999939,4,0,4,0,1,3,1,0,240,225,1,239,,,,,,,,,,,,,,,,,,
,,1,33,,,,,,,3,1,3,stim/13.jpeg,Instruments,2,stim/objects/Instruments/trombone2.png,0.9,2,0.2,0.15,right,54,2021-02-02_08h37.50.369,premup-three_ses-01_part-01_label-phase1,3.2.4,Win32,60,right,0.954999924,4,0,4,0,1,3,1,0,240,182,1,239,,,,,,,,,,,,,,,,,,
,,1,34,,,,,,,2,6,3,stim/63.jpeg,HouseObjects,1,stim/objects/HouseObjects/saw2.png,0.7,3,-0.2,-0.15,left,54,2021-02-02_08h37.50.369,premup-three_ses-01_part-01_label-phase1,3.2.4,Win32,60,left,1.082999945,4,0,4,0,1,3,1,0,240,122,1,239,,,,,,,,,,,,,,,,,,
,,0,35,,,,,,,1,3,3,stim/33.jpeg,Instruments,2,stim/objects/Instruments/speaker.png,0.5,1,-0.2,0.15,right,54,2021-02-02_08h37.50.369,premup-three_ses-01_part-01_label-phase1,3.2.4,Win32,60,left,1.159999847,4,0,4,0,1,3,1,0,240,38,1,239,,,,,,,,,,,,,,,,,,
,,0,36,,,,,,,1,4,4,stim/44.jpeg,Instruments,2,stim/objects/Instruments/trumpet.png,0.5,2,0.2,0.15,right,54,2021-02-02_08h37.50.369,premup-three_ses-01_part-01_label-phase1,3.2.4,Win32,60,left,1.15899992,4,0,4,0,1,3,1,0,240,75,1,239,,,,,,,,,,,,,,,,,,
,,1,37,,,,,,,3,2,3,stim/23.jpeg,HouseObjects,1,stim/objects/HouseObjects/vacuumcleaner2.png,0.9,4,0.2,-0.15,left,54,2021-02-02_08h37.50.369,premup-three_ses-01_part-01_label-phase1,3.2.4,Win32,60,left,1.572000027,4,0,4,0,1,3,1,0,240,202,1,239,,,,,,,,,,,,,,,,,,
,,1,38,,,,,,,2,5,1,stim/51.jpeg,Instruments,2,stim/objects/Instruments/tuba.png,0.7,2,0.2,0.15,right,54,2021-02-02_08h37.50.369,premup-three_ses-01_part-01_label-phase1,3.2.4,Win32,60,right,1.636999846,4,0,4,0,1,3,1,0,240,112,1,239,,,,,,,,,,,,,,,,,,
,,1,39,,,,,,,1,3,4,stim/34.jpeg,Instruments,2,stim/objects/Instruments/tambourine.png,0.5,1,-0.2,0.15,right,54,2021-02-02_08h37.50.369,premup-three_ses-01_part-01_label-phase1,3.2.4,Win32,60,right,1.457999945,4,0,4,0,1,3,1,0,240,27,1,239,,,,,,,,,,,,,,,,,,
,,0,40,,,,,,,1,3,1,stim/31.jpeg,Instruments,2,stim/objects/Instruments/record_player.png,0.5,1,-0.2,0.15,right,54,2021-02-02_08h37.50.369,premup-three_ses-01_part-01_label-phase1,3.2.4,Win32,60,left,1.335999727,4,0,4,0,1,3,1,0,240,32,1,239,,,,,,,,,,,,,,,,,,
,,1,41,,,,,,,2,5,2,stim/52.jpeg,Instruments,2,stim/objects/Instruments/violin.png,0.7,2,0.2,0.15,right,54,2021-02-02_08h37.50.369,premup-three_ses-01_part-01_label-phase1,3.2.4,Win32,60,right,1.157000065,4,0,4,0,1,3,1,0,240,117,1,239,,,,,,,,,,,,,,,,,,
,,1,42,,,,,,,3,2,2,stim/22.jpeg,Instruments,2,stim/objects/Instruments/violin2.png,0.1,4,0.2,-0.15,right,54,2021-02-02_08h37.50.369,premup-three_ses-01_part-01_label-phase1,3.2.4,Win32,60,right,1.220999956,4,0,4,0,1,3,1,0,240,237,1,239,,,,,,,,,,,,,,,,,,
,,1,43,,,,,,,3,1,1,stim/11.jpeg,Instruments,2,stim/objects/Instruments/timbal2.png,0.9,4,0.2,-0.15,right,54,2021-02-02_08h37.50.369,premup-three_ses-01_part-01_label-phase1,3.2.4,Win32,60,right,0.996999979,4,0,4,0,1,3,1,0,240,172,1,239,,,,,,,,,,,,,,,,,,
,,0,44,,,,,,,1,4,4,stim/44.jpeg,HouseObjects,1,stim/objects/HouseObjects/thermometer.png,0.5,2,0.2,0.15,left,54,2021-02-02_08h37.50.369,premup-three_ses-01_part-01_label-phase1,3.2.4,Win32,60,right,1.187999964,4,0,4,0,1,3,1,0,240,59,1,239,,,,,,,,,,,,,,,,,,
,,1,45,,,,,,,2,5,3,stim/53.jpeg,Instruments,2,stim/objects/Instruments/vuvuzela.png,0.7,4,0.2,-0.15,right,54,2021-02-02_08h37.50.369,premup-three_ses-01_part-01_label-phase1,3.2.4,Win32,60,right,1.825999975,4,0,4,0,1,3,1,0,240,118,1,239,,,,,,,,,,,,,,,,,,
,,0,46,,,,,,,1,3,1,stim/31.jpeg,Instruments,2,stim/objects/Instruments/record_player.png,0.5,1,-0.2,0.15,right,54,2021-02-02_08h37.50.369,premup-three_ses-01_part-01_label-phase1,3.2.4,Win32,60,left,1.413999796,4,0,4,0,1,3,1,0,240,20,1,239,,,,,,,,,,,,,,,,,,
,,0,47,,,,,,,3,2,3,stim/23.jpeg,HouseObjects,1,stim/objects/HouseObjects/vacuumcleaner2.png,0.9,4,0.2,-0.15,left,54,2021-02-02_08h37.50.369,premup-three_ses-01_part-01_label-phase1,3.2.4,Win32,60,,,4,0,4,0,1,3,1,0,240,210,1,239,,,,,,,,,,,,,,,,,,
,,0,48,,,,,,,3,2,4,stim/24.jpeg,HouseObjects,1,stim/objects/HouseObjects/wateringcan2.png,0.9,1,-0.2,0.15,left,54,2021-02-02_08h37.50.369,premup-three_ses-01_part-01_label-phase1,3.2.4,Win32,60,right,0.921999931,4,0,4,0,1,3,1,0,240,231,1,239,,,,,,,,,,,,,,,,,,
,,1,49,,,,,,,1,4,1,stim/41.jpeg,Instruments,2,stim/objects/Instruments/timbal.png,0.5,4,0.2,-0.15,right,54,2021-02-02_08h37.50.369,premup-three_ses-01_part-01_label-phase1,3.2.4,Win32,60,right,1.214999914,4,0,4,0,1,3,1,0,240,60,1,239,,,,,,,,,,,,,,,,,,
,,0,50,,,,,,,3,1,1,stim/11.jpeg,HouseObjects,1,stim/objects/HouseObjects/sponge2.png,0.1,2,0.2,0.15,left,54,2021-02-02_08h37.50.369,premup-three_ses-01_part-01_label-phase1,3.2.4,Win32,60,right,0.794999838,4,0,4,0,1,3,1,0,240,160,1,239,,,,,,,,,,,,,,,,,,
,,0,51,,,,,,,3,2,3,stim/23.jpeg,HouseObjects,1,stim/objects/HouseObjects/vacuumcleaner2.png,0.9,1,-0.2,0.15,left,54,2021-02-02_08h37.50.369,premup-three_ses-01_part-01_label-phase1,3.2.4,Win32,60,right,0.898999929,4,0,4,0,1,3,1,0,240,214,1,239,,,,,,,,,,,,,,,,,,
,,1,52,,,,,,,2,6,2,stim/62.jpeg,HouseObjects,1,stim/objects/HouseObjects/safetypin2.png,0.7,1,-0.2,0.15,left,54,2021-02-02_08h37.50.369,premup-three_ses-01_part-01_label-phase1,3.2.4,Win32,60,left,1.174000025,4,0,4,0,1,3,1,0,240,141,1,239,,,,,,,,,,,,,,,,,,
,,0,53,,,,,,,3,2,2,stim/22.jpeg,HouseObjects,1,stim/objects/HouseObjects/towel2.png,0.9,3,-0.2,-0.15,left,54,2021-02-02_08h37.50.369,premup-three_ses-01_part-01_label-phase1,3.2.4,Win32,60,right,1.238000154,4,0,4,0,1,3,1,0,240,209,1,239,,,,,,,,,,,,,,,,,,
,,1,54,,,,,,,3,1,3,stim/13.jpeg,Instruments,2,stim/objects/Instruments/trombone2.png,0.9,3,-0.2,-0.15,right,54,2021-02-02_08h37.50.369,premup-three_ses-01_part-01_label-phase1,3.2.4,Win32,60,right,0.90899992,4,0,4,0,1,3,1,0,240,198,1,239,,,,,,,,,,,,,,,,,,
,,1,55,,,,,,,3,2,2,stim/22.jpeg,HouseObjects,1,stim/objects/HouseObjects/towel2.png,0.9,2,0.2,0.15,left,54,2021-02-02_08h37.50.369,premup-three_ses-01_part-01_label-phase1,3.2.4,Win32,60,left,0.989999771,4,0,4,0,1,3,1,0,240,201,1,239,,,,,,,,,,,,,,,,,,
,,1,56,,,,,,,3,1,3,stim/13.jpeg,Instruments,2,stim/objects/Instruments/trombone2.png,0.9,4,0.2,-0.15,right,54,2021-02-02_08h37.50.369,premup-three_ses-01_part-01_label-phase1,3.2.4,Win32,60,right,1.021999836,4,0,4,0,1,3,1,0,240,194,1,239,,,,,,,,,,,,,,,,,,
,,0,57,,,,,,,2,5,2,stim/52.jpeg,Instruments,2,stim/objects/Instruments/violin.png,0.7,3,-0.2,-0.15,right,54,2021-02-02_08h37.50.369,premup-three_ses-01_part-01_label-phase1,3.2.4,Win32,60,left,1.424999952,4,0,4,0,1,3,1,0,240,93,1,239,,,,,,,,,,,,,,,,,,
,,1,58,,,,,,,1,4,1,stim/41.jpeg,Instruments,2,stim/objects/Instruments/timbal.png,0.5,1,-0.2,0.15,right,54,2021-02-02_08h37.50.369,premup-three_ses-01_part-01_label-phase1,3.2.4,Win32,60,right,1.424999952,4,0,4,0,1,3,1,0,240,72,1,239,,,,,,,,,,,,,,,,,,
,,1,59,,,,,,,1,4,4,stim/44.jpeg,HouseObjects,1,stim/objects/HouseObjects/thermometer.png,0.5,1,-0.2,0.15,left,54,2021-02-02_08h37.50.369,premup-three_ses-01_part-01_label-phase1,3.2.4,Win32,60,left,0.990999937,4,0,4,0,1,3,1,0,240,51,1,239,,,,,,,,,,,,,,,,,,
,,0,60,,,,,,,3,1,2,stim/12.jpeg,HouseObjects,1,stim/objects/HouseObjects/spraybottle2.png,0.1,3,-0.2,-0.15,left,54,2021-02-02_08h37.50.369,premup-three_ses-01_part-01_label-phase1,3.2.4,Win32,60,right,1.025000095,4,0,4,0,1,3,1,0,240,161,1,239,,,,,,,,,,,,,,,,,,
,,1,61,,,,,,,2,6,3,stim/63.jpeg,HouseObjects,1,stim/objects/HouseObjects/saw2.png,0.7,4,0.2,-0.15,left,54,2021-02-02_08h37.50.369,premup-three_ses-01_part-01_label-phase1,3.2.4,Win32,60,left,1.021999836,4,0,4,0,1,3,1,0,240,126,1,239,,,,,,,,,,,,,,,,,,
,,1,62,,,,,,,1,3,1,stim/31.jpeg,HouseObjects,1,stim/objects/HouseObjects/rug.png,0.5,2,0.2,0.15,left,54,2021-02-02_08h37.50.369,premup-three_ses-01_part-01_label-phase1,3.2.4,Win32,60,left,1.491999865,4,0,4,0,1,3,1,0,240,8,1,239,,,,,,,,,,,,,,,,,,
,,1,63,,,,,,,2,5,3,stim/53.jpeg,Instruments,2,stim/objects/Instruments/vuvuzela.png,0.7,4,0.2,-0.15,right,54,2021-02-02_08h37.50.369,premup-three_ses-01_part-01_label-phase1,3.2.4,Win32,60,right,1.144000053,4,0,4,0,1,3,1,0,240,106,1,239,,,,,,,,,,,,,,,,,,
,,1,64,,,,,,,1,4,3,stim/43.jpeg,Instruments,2,stim/objects/Instruments/trombone.png,0.5,3,-0.2,-0.15,right,54,2021-02-02_08h37.50.369,premup-three_ses-01_part-01_label-phase1,3.2.4,Win32,60,right,1.085999966,4,0,4,0,1,3,1,0,240,74,1,239,,,,,,,,,,,,,,,,,,
,,0,65,,,,,,,1,3,3,stim/33.jpeg,Instruments,2,stim/objects/Instruments/speaker.png,0.5,3,-0.2,-0.15,right,54,2021-02-02_08h37.50.369,premup-three_ses-01_part-01_label-phase1,3.2.4,Win32,60,left,1.36199975,4,0,4,0,1,3,1,0,240,34,1,239,,,,,,,,,,,,,,,,,,
,,1,66,,,,,,,2,5,2,stim/52.jpeg,Instruments,2,stim/objects/Instruments/violin.png,0.7,3,-0.2,-0.15,right,54,2021-02-02_08h37.50.369,premup-three_ses-01_part-01_label-phase1,3.2.4,Win32,60,right,0.994999886,4,0,4,0,1,3,1,0,240,97,1,239,,,,,,,,,,,,,,,,,,
,,1,67,,,,,,,2,5,4,stim/54.jpeg,Instruments,2,stim/objects/Instruments/xylophone.png,0.7,4,0.2,-0.15,right,54,2021-02-02_08h37.50.369,premup-three_ses-01_part-01_label-phase1,3.2.4,Win32,60,right,1.122999907,4,0,4,0,1,3,1,0,240,111,1,239,,,,,,,,,,,,,,,,,,
,,1,68,,,,,,,3,1,4,stim/14.jpeg,Instruments,2,stim/objects/Instruments/trumpet2.png,0.9,3,-0.2,-0.15,right,54,2021-02-02_08h37.50.369,premup-three_ses-01_part-01_label-phase1,3.2.4,Win32,60,right,0.990999937,4,0,4,0,1,3,1,0,240,167,1,239,,,,,,,,,,,,,,,,,,
,,0,69,,,,,,,3,1,3,stim/13.jpeg,Instruments,2,stim/objects/Instruments/trombone2.png,0.9,3,-0.2,-0.15,right,54,2021-02-02_08h37.50.369,premup-three_ses-01_part-01_label-phase1,3.2.4,Win32,60,left,1.241999865,4,0,4,0,1,3,1,0,240,190,1,239,,,,,,,,,,,,,,,,,,
,,0,70,,,,,,,3,1,4,stim/14.jpeg,Instruments,2,stim/objects/Instruments/trumpet2.png,0.9,1,-0.2,0.15,right,54,2021-02-02_08h37.50.369,premup-three_ses-01_part-01_label-phase1,3.2.4,Win32,60,left,1.489000082,4,0,4,0,1,3,1,0,240,179,1,239,,,,,,,,,,,,,,,,,,
,,1,71,,,,,,,1,4,2,stim/42.jpeg,Instruments,2,stim/objects/Instruments/triangle.png,0.5,1,-0.2,0.15,right,54,2021-02-02_08h37.50.369,premup-three_ses-01_part-01_label-phase1,3.2.4,Win32,60,right,1.287999868,4,0,4,0,1,3,1,0,240,65,1,239,,,,,,,,,,,,,,,,,,
,,1,72,,,,,,,3,2,4,stim/24.jpeg,HouseObjects,1,stim/objects/HouseObjects/wateringcan2.png,0.9,2,0.2,0.15,left,54,2021-02-02_08h37.50.369,premup-three_ses-01_part-01_label-phase1,3.2.4,Win32,60,left,0.991999865,4,0,4,0,1,3,1,0,240,215,1,239,,,,,,,,,,,,,,,,,,
,,0,73,,,,,,,2,6,4,stim/64.jpeg,Instruments,2,stim/objects/Instruments/tambourine2.png,0.3,1,-0.2,0.15,right,54,2021-02-02_08h37.50.369,premup-three_ses-01_part-01_label-phase1,3.2.4,Win32,60,left,1.128999949,4,0,4,0,1,3,1,0,240,155,1,239,,,,,,,,,,,,,,,,,,
,,1,74,,,,,,,2,6,1,stim/61.jpeg,HouseObjects,1,stim/objects/HouseObjects/rug2.png,0.7,2,0.2,0.15,left,54,2021-02-02_08h37.50.369,premup-three_ses-01_part-01_label-phase1,3.2.4,Win32,60,left,1.07400012,4,0,4,0,1,3,1,0,240,136,1,239,,,,,,,,,,,,,,,,,,
,,0,75,,,,,,,3,2,1,stim/21.jpeg,HouseObjects,1,stim/objects/HouseObjects/thread2.png,0.9,1,-0.2,0.15,left,54,2021-02-02_08h37.50.369,premup-three_ses-01_part-01_label-phase1,3.2.4,Win32,60,right,1.505000114,4,0,4,0,1,3,1,0,240,200,1,239,,,,,,,,,,,,,,,,,,
,,1,76,,,,,,,2,6,2,stim/62.jpeg,HouseObjects,1,stim/objects/HouseObjects/safetypin2.png,0.7,4,0.2,-0.15,left,54,2021-02-02_08h37.50.369,premup-three_ses-01_part-01_label-phase1,3.2.4,Win32,60,left,0.906999826,4,0,4,0,1,3,1,0,240,125,1,239,,,,,,,,,,,,,,,,,,
,,1,77,,,,,,,2,6,2,stim/62.jpeg,HouseObjects,1,stim/objects/HouseObjects/safetypin2.png,0.7,2,0.2,0.15,left,54,2021-02-02_08h37.50.369,premup-three_ses-01_part-01_label-phase1,3.2.4,Win32,60,left,0.790999889,4,0,4,0,1,3,1,0,240,129,1,239,,,,,,,,,,,,,,,,,,
,,1,78,,,,,,,1,4,1,stim/41.jpeg,Instruments,2,stim/objects/Instruments/timbal.png,0.5,2,0.2,0.15,right,54,2021-02-02_08h37.50.369,premup-three_ses-01_part-01_label-phase1,3.2.4,Win32,60,right,0.940000057,4,0,4,0,1,3,1,0,240,68,1,239,,,,,,,,,,,,,,,,,,
,,0,79,,,,,,,1,4,2,stim/42.jpeg,HouseObjects,1,stim/objects/HouseObjects/spraybottle.png,0.5,2,0.2,0.15,left,54,2021-02-02_08h37.50.369,premup-three_ses-01_part-01_label-phase1,3.2.4,Win32,60,right,0.89199996,4,0,4,0,1,3,1,0,240,41,1,239,,,,,,,,,,,,,,,,,,
,,1,80,,,,,,,2,6,4,stim/64.jpeg,HouseObjects,1,stim/objects/HouseObjects/scale2.png,0.7,2,0.2,0.15,left,54,2021-02-02_08h37.50.369,premup-three_ses-01_part-01_label-phase1,3.2.4,Win32,60,left,0.968999863,4,0,4,0,1,3,1,0,240,131,1,239,,,,,,,,,,,,,,,,,,
,,0,81,,,,,,,3,1,3,stim/13.jpeg,Instruments,2,stim/objects/Instruments/trombone2.png,0.9,3,-0.2,-0.15,right,54,2021-02-02_08h37.50.369,premup-three_ses-01_part-01_label-phase1,3.2.4,Win32,60,,,4,0,4,0,1,3,1,0,240,186,1,239,,,,,,,,,,,,,,,,,,
,,1,82,,,,,,,3,1,1,stim/11.jpeg,Instruments,2,stim/objects/Instruments/timbal2.png,0.9,2,0.2,0.15,right,54,2021-02-02_08h37.50.369,premup-three_ses-01_part-01_label-phase1,3.2.4,Win32,60,right,0.856999874,4,0,4,0,1,3,1,0,240,196,1,239,,,,,,,,,,,,,,,,,,
,,1,83,,,,,,,1,3,3,stim/33.jpeg,HouseObjects,1,stim/objects/HouseObjects/saw.png,0.5,2,0.2,0.15,left,54,2021-02-02_08h37.50.369,premup-three_ses-01_part-01_label-phase1,3.2.4,Win32,60,left,1.214999914,4,0,4,0,1,3,1,0,240,6,1,239,,,,,,,,,,,,,,,,,,
,,0,84,,,,,,,3,1,2,stim/12.jpeg,Instruments,2,stim/objects/Instruments/triangle2.png,0.9,2,0.2,0.15,right,54,2021-02-02_08h37.50.369,premup-three_ses-01_part-01_label-phase1,3.2.4,Win32,60,left,1.26699996,4,0,4,0,1,3,1,0,240,165,1,239,,,,,,,,,,,,,,,,,,
,,0,85,,,,,,,1,4,2,stim/42.jpeg,HouseObjects,1,stim/objects/HouseObjects/spraybottle.png,0.5,4,0.2,-0.15,left,54,2021-02-02_08h37.50.369,premup-three_ses-01_part-01_label-phase1,3.2.4,Win32,60,right,1.028999805,4,0,4,0,1,3,1,0,240,57,1,239,,,,,,,,,,,,,,,,,,
,,1,86,,,,,,,3,2,1,stim/21.jpeg,HouseObjects,1,stim/objects/HouseObjects/thread2.png,0.9,2,0.2,0.15,left,54,2021-02-02_08h37.50.369,premup-three_ses-01_part-01_label-phase1,3.2.4,Win32,60,left,1.194999933,4,0,4,0,1,3,1,0,240,208,1,239,,,,,,,,,,,,,,,,,,
,,0,87,,,,,,,2,6,4,stim/64.jpeg,Instruments,2,stim/objects/Instruments/tambourine2.png,0.3,3,-0.2,-0.15,right,54,2021-02-02_08h37.50.369,premup-three_ses-01_part-01_label-phase1,3.2.4,Win32,60,left,0.986999989,4,0,4,0,1,3,1,0,240,151,1,239,,,,,,,,,,,,,,,,,,
,,1,88,,,,,,,1,4,2,stim/42.jpeg,HouseObjects,1,stim/objects/HouseObjects/spraybottle.png,0.5,4,0.2,-0.15,left,54,2021-02-02_08h37.50.369,premup-three_ses-01_part-01_label-phase1,3.2.4,Win32,60,left,1.865999937,4,0,4,0,1,3,1,0,240,49,1,239,,,,,,,,,,,,,,,,,,
,,1,89,,,,,,,1,4,3,stim/43.jpeg,Instruments,2,stim/objects/Instruments/trombone.png,0.5,4,0.2,-0.15,right,54,2021-02-02_08h37.50.369,premup-three_ses-01_part-01_label-phase1,3.2.4,Win32,60,right,0.871999979,4,0,4,0,1,3,1,0,240,66,1,239,,,,,,,,,,,,,,,,,,
,,1,90,,,,,,,3,2,4,stim/24.jpeg,HouseObjects,1,stim/objects/HouseObjects/wateringcan2.png,0.9,4,0.2,-0.15,left,54,2021-02-02_08h37.50.369,premup-three_ses-01_part-01_label-phase1,3.2.4,Win32,60,left,0.972999811,4,0,4,0,1,3,1,0,240,203,1,239,,,,,,,,,,,,,,,,,,
,,0,91,,,,,,,2,6,2,stim/62.jpeg,Instruments,2,stim/objects/Instruments/saxophone2.png,0.3,4,0.2,-0.15,right,54,2021-02-02_08h37.50.369,premup-three_ses-01_part-01_label-phase1,3.2.4,Win32,60,left,1.682999849,4,0,4,0,1,3,1,0,240,149,1,239,,,,,,,,,,,,,,,,,,
,,1,92,,,,,,,3,1,1,stim/11.jpeg,Instruments,2,stim/objects/Instruments/timbal2.png,0.9,2,0.2,0.15,right,54,2021-02-02_08h37.50.369,premup-three_ses-01_part-01_label-phase1,3.2.4,Win32,60,right,0.757999897,4,0,4,0,1,3,1,0,240,168,1,239,,,,,,,,,,,,,,,,,,
,,1,93,,,,,,,3,1,2,stim/12.jpeg,Instruments,2,stim/objects/Instruments/triangle2.png,0.9,1,-0.2,0.15,right,54,2021-02-02_08h37.50.369,premup-three_ses-01_part-01_label-phase1,3.2.4,Win32,60,right,1.025999784,4,0,4,0,1,3,1,0,240,193,1,239,,,,,,,,,,,,,,,,,,
,,1,94,,,,,,,3,2,4,stim/24.jpeg,HouseObjects,1,stim/objects/HouseObjects/wateringcan2.png,0.9,3,-0.2,-0.15,left,54,2021-02-02_08h37.50.369,premup-three_ses-01_part-01_label-phase1,3.2.4,Win32,60,left,0.973999977,4,0,4,0,1,3,1,0,240,211,1,239,,,,,,,,,,,,,,,,,,
,,1,95,,,,,,,2,5,2,stim/52.jpeg,Instruments,2,stim/objects/Instruments/violin.png,0.7,4,0.2,-0.15,right,54,2021-02-02_08h37.50.369,premup-three_ses-01_part-01_label-phase1,3.2.4,Win32,60,right,1.072000027,4,0,4,0,1,3,1,0,240,109,1,239,,,,,,,,,,,,,,,,,,
,,0,96,,,,,,,1,4,1,stim/41.jpeg,HouseObjects,1,stim/objects/HouseObjects/sponge.png,0.5,3,-0.2,-0.15,left,54,2021-02-02_08h37.50.369,premup-three_ses-01_part-01_label-phase1,3.2.4,Win32,60,right,0.938999891,4,0,4,0,1,3,1,0,240,40,1,239,,,,,,,,,,,,,,,,,,
,,1,97,,,,,,,1,3,2,stim/32.jpeg,Instruments,2,stim/objects/Instruments/saxophone.png,0.5,1,-0.2,0.15,right,54,2021-02-02_08h37.50.369,premup-three_ses-01_part-01_label-phase1,3.2.4,Win32,60,right,1.289999962,4,0,4,0,1,3,1,0,240,33,1,239,,,,,,,,,,,,,,,,,,
,,0,98,,,,,,,1,3,1,stim/31.jpeg,HouseObjects,1,stim/objects/HouseObjects/rug.png,0.5,3,-0.2,-0.15,left,54,2021-02-02_08h37.50.369,premup-three_ses-01_part-01_label-phase1,3.2.4,Win32,60,right,0.870000124,4,0,4,0,1,3,1,0,240,4,1,239,,,,,,,,,,,,,,,,,,
,,0,99,,,,,,,3,1,4,stim/14.jpeg,HouseObjects,1,stim/objects/HouseObjects/thermometer2.png,0.1,3,-0.2,-0.15,left,54,2021-02-02_08h37.50.369,premup-three_ses-01_part-01_label-phase1,3.2.4,Win32,60,right,0.79399991,4,0,4,0,1,3,1,0,240,163,1,239,,,,,,,,,,,,,,,,,,
,,1,100,,,,,,,3,1,2,stim/12.jpeg,Instruments,2,stim/objects/Instruments/triangle2.png,0.9,1,-0.2,0.15,right,54,2021-02-02_08h37.50.369,premup-three_ses-01_part-01_label-phase1,3.2.4,Win32,60,right,1.082000017,4,0,4,0,1,3,1,0,240,197,1,239,,,,,,,,,,,,,,,,,,
,,1,101,,,,,,,1,4,1,stim/41.jpeg,HouseObjects,1,stim/objects/HouseObjects/sponge.png,0.5,4,0.2,-0.15,left,54,2021-02-02_08h37.50.369,premup-three_ses-01_part-01_label-phase1,3.2.4,Win32,60,left,1.89199996,4,0,4,0,1,3,1,0,240,56,1,239,,,,,,,,,,,,,,,,,,
,,1,102,,,,,,,3,2,4,stim/24.jpeg,HouseObjects,1,stim/objects/HouseObjects/wateringcan2.png,0.9,4,0.2,-0.15,left,54,2021-02-02_08h37.50.369,premup-three_ses-01_part-01_label-phase1,3.2.4,Win32,60,left,0.812999725,4,0,4,0,1,3,1,0,240,227,1,239,,,,,,,,,,,,,,,,,,
,,1,103,,,,,,,1,4,2,stim/42.jpeg,HouseObjects,1,stim/objects/HouseObjects/spraybottle.png,0.5,4,0.2,-0.15,left,54,2021-02-02_08h37.50.369,premup-three_ses-01_part-01_label-phase1,3.2.4,Win32,60,left,0.921999931,4,0,4,0,1,3,1,0,240,45,1,239,,,,,,,,,,,,,,,,,,
,,1,104,,,,,,,2,5,3,stim/53.jpeg,Instruments,2,stim/objects/Instruments/vuvuzela.png,0.7,1,-0.2,0.15,right,54,2021-02-02_08h37.50.369,premup-three_ses-01_part-01_label-phase1,3.2.4,Win32,60,right,1.049000025,4,0,4,0,1,3,1,0,240,102,1,239,,,,,,,,,,,,,,,,,,
,,0,105,,,,,,,1,3,1,stim/31.jpeg,HouseObjects,1,stim/objects/HouseObjects/rug.png,0.5,3,-0.2,-0.15,left,54,2021-02-02_08h37.50.369,premup-three_ses-01_part-01_label-phase1,3.2.4,Win32,60,right,1.092000008,4,0,4,0,1,3,1,0,240,0,1,239,,,,,,,,,,,,,,,,,,
,,0,106,,,,,,,2,6,3,stim/63.jpeg,Instruments,2,stim/objects/Instruments/speaker2.png,0.3,3,-0.2,-0.15,right,54,2021-02-02_08h37.50.369,premup-three_ses-01_part-01_label-phase1,3.2.4,Win32,60,left,0.999999762,4,0,4,0,1,3,1,0,240,158,1,239,,,,,,,,,,,,,,,,,,
,,0,107,,,,,,,2,6,3,stim/63.jpeg,HouseObjects,1,stim/objects/HouseObjects/saw2.png,0.7,2,0.2,0.15,left,54,2021-02-02_08h37.50.369,premup-three_ses-01_part-01_label-phase1,3.2.4,Win32,60,right,0.889999866,4,0,4,0,1,3,1,0,240,130,1,239,,,,,,,,,,,,,,,,,,
,,0,108,,,,,,,2,6,4,stim/64.jpeg,HouseObjects,1,stim/objects/HouseObjects/scale2.png,0.7,4,0.2,-0.15,left,54,2021-02-02_08h37.50.369,premup-three_ses-01_part-01_label-phase1,3.2.4,Win32,60,right,1.799000025,4,0,4,0,1,3,1,0,240,135,1,239,,,,,,,,,,,,,,,,,,
,,0,109,,,,,,,1,3,1,stim/31.jpeg,Instruments,2,stim/objects/Instruments/record_player.png,0.5,2,0.2,0.15,right,54,2021-02-02_08h37.50.369,premup-three_ses-01_part-01_label-phase1,3.2.4,Win32,60,left,1.656999826,4,0,4,0,1,3,1,0,240,28,1,239,,,,,,,,,,,,,,,,,,
,,0,110,,,,,,,1,3,3,stim/33.jpeg,HouseObjects,1,stim/objects/HouseObjects/saw.png,0.5,3,-0.2,-0.15,left,54,2021-02-02_08h37.50.369,premup-three_ses-01_part-01_label-phase1,3.2.4,Win32,60,right,1.738999844,4,0,4,0,1,3,1,0,240,2,1,239,,,,,,,,,,,,,,,,,,
,,0,111,,,,,,,1,3,2,stim/32.jpeg,HouseObjects,1,stim/objects/HouseObjects/safetypin.png,0.5,4,0.2,-0.15,left,54,2021-02-02_08h37.50.369,premup-three_ses-01_part-01_label-phase1,3.2.4,Win32,60,right,1.689999819,4,0,4,0,1,3,1,0,240,13,1,239,,,,,,,,,,,,,,,,,,
,,1,112,,,,,,,1,3,3,stim/33.jpeg,Instruments,2,stim/objects/Instruments/speaker.png,0.5,2,0.2,0.15,right,54,2021-02-02_08h37.50.369,premup-three_ses-01_part-01_label-phase1,3.2.4,Win32,60,right,1.092000008,4,0,4,0,1,3,1,0,240,30,1,239,,,,,,,,,,,,,,,,,,
,,1,113,,,,,,,3,1,3,stim/13.jpeg,Instruments,2,stim/objects/Instruments/trombone2.png,0.9,2,0.2,0.15,right,54,2021-02-02_08h37.50.369,premup-three_ses-01_part-01_label-phase1,3.2.4,Win32,60,right,0.887000084,4,0,4,0,1,3,1,0,240,170,1,239,,,,,,,,,,,,,,,,,,
,,1,114,,,,,,,3,1,1,stim/11.jpeg,Instruments,2,stim/objects/Instruments/timbal2.png,0.9,1,-0.2,0.15,right,54,2021-02-02_08h37.50.369,premup-three_ses-01_part-01_label-phase1,3.2.4,Win32,60,right,0.773000002,4,0,4,0,1,3,1,0,240,180,1,239,,,,,,,,,,,,,,,,,,
,,1,115,,,,,,,3,1,4,stim/14.jpeg,Instruments,2,stim/objects/Instruments/trumpet2.png,0.9,4,0.2,-0.15,right,54,2021-02-02_08h37.50.369,premup-three_ses-01_part-01_label-phase1,3.2.4,Win32,60,right,0.960000038,4,0,4,0,1,3,1,0,240,187,1,239,,,,,,,,,,,,,,,,,,
,,0,116,,,,,,,2,5,1,stim/51.jpeg,HouseObjects,1,stim/objects/HouseObjects/thread.png,0.3,1,-0.2,0.15,left,54,2021-02-02_08h37.50.369,premup-three_ses-01_part-01_label-phase1,3.2.4,Win32,60,right,1.169999838,4,0,4,0,1,3,1,0,240,80,1,239,,,,,,,,,,,,,,,,,,
,,1,117,,,,,,,2,5,4,stim/54.jpeg,Instruments,2,stim/objects/Instruments/xylophone.png,0.7,1,-0.2,0.15,right,54,2021-02-02_08h37.50.369,premup-three_ses-01_part-01_label-phase1,3.2.4,Win32,60,right,1.039000034,4,0,4,0,1,3,1,0,240,115,1,239,,,,,,,,,,,,,,,,,,
,,0,118,,,,,,,2,6,3,stim/63.jpeg,HouseObjects,1,stim/objects/HouseObjects/saw2.png,0.7,3,-0.2,-0.15,left,54,2021-02-02_08h37.50.369,premup-three_ses-01_part-01_label-phase1,3.2.4,Win32,60,right,1.503999949,4,0,4,0,1,3,1,0,240,142,1,239,,,,,,,,,,,,,,,,,,
,,1,119,,,,,,,2,5,2,stim/52.jpeg,Instruments,2,stim/objects/Instruments/violin.png,0.7,2,0.2,0.15,right,54,2021-02-02_08h37.50.369,premup-three_ses-01_part-01_label-phase1,3.2.4,Win32,60,right,0.960000038,4,0,4,0,1,3,1,0,240,113,1,239,,,,,,,,,,,,,,,,,,
,,1,120,,,,,,,3,2,2,stim/22.jpeg,HouseObjects,1,stim/objects/HouseObjects/towel2.png,0.9,4,0.2,-0.15,left,54,2021-02-02_08h37.50.369,premup-three_ses-01_part-01_label-phase1,3.2.4,Win32,60,left,0.886999846,4,0,4,0,1,3,1,0,240,221,1,239,,,,,,,,,,,,,,,,,,
,,1,121,,,,,,,2,6,4,stim/64.jpeg,HouseObjects,1,stim/objects/HouseObjects/scale2.png,0.7,4,0.2,-0.15,left,54,2021-02-02_08h37.50.369,premup-three_ses-01_part-01_label-phase1,3.2.4,Win32,60,left,1.489000082,4,0,4,0,1,3,1,0,240,123,1,239,,,,,,,,,,,,,,,,,,
,,0,122,,,,,,,3,2,3,stim/23.jpeg,Instruments,2,stim/objects/Instruments/vuvuzela2.png,0.1,2,0.2,0.15,right,54,2021-02-02_08h37.50.369,premup-three_ses-01_part-01_label-phase1,3.2.4,Win32,60,left,0.801999807,4,0,4,0,1,3,1,0,240,238,1,239,,,,,,,,,,,,,,,,,,
,,0,123,,,,,,,1,3,4,stim/34.jpeg,HouseObjects,1,stim/objects/HouseObjects/scale.png,0.5,4,0.2,-0.15,left,54,2021-02-02_08h37.50.369,premup-three_ses-01_part-01_label-phase1,3.2.4,Win32,60,right,1.287999868,4,0,4,0,1,3,1,0,240,19,1,239,,,,,,,,,,,,,,,,,,
,,1,124,,,,,,,3,1,2,stim/12.jpeg,Instruments,2,stim/objects/Instruments/triangle2.png,0.9,1,-0.2,0.15,right,54,2021-02-02_08h37.50.369,premup-three_ses-01_part-01_label-phase1,3.2.4,Win32,60,right,1.029000044,4,0,4,0,1,3,1,0,240,169,1,239,,,,,,,,,,,,,,,,,,
,,1,125,,,,,,,1,3,4,stim/34.jpeg,Instruments,2,stim/objects/Instruments/tambourine.png,0.5,2,0.2,0.15,right,54,2021-02-02_08h37.50.369,premup-three_ses-01_part-01_label-phase1,3.2.4,Win32,60,right,1.654999971,4,0,4,0,1,3,1,0,240,35,1,239,,,,,,,,,,,,,,,,,,
,,1,126,,,,,,,2,6,1,stim/61.jpeg,Instruments,2,stim/objects/Instruments/record_player2.png,0.3,3,-0.2,-0.15,right,54,2021-02-02_08h37.50.369,premup-three_ses-01_part-01_label-phase1,3.2.4,Win32,60,right,1.625999928,4,0,4,0,1,3,1,0,240,156,1,239,,,,,,,,,,,,,,,,,,
,,0,127,,,,,,,2,5,1,stim/51.jpeg,Instruments,2,stim/objects/Instruments/tuba.png,0.7,1,-0.2,0.15,right,54,2021-02-02_08h37.50.369,premup-three_ses-01_part-01_label-phase1,3.2.4,Win32,60,left,1.062000036,4,0,4,0,1,3,1,0,240,100,1,239,,,,,,,,,,,,,,,,,,
,,1,128,,,,,,,3,1,3,stim/13.jpeg,Instruments,2,stim/objects/Instruments/trombone2.png,0.9,2,0.2,0.15,right,54,2021-02-02_08h37.50.369,premup-three_ses-01_part-01_label-phase1,3.2.4,Win32,60,right,0.712999821,4,0,4,0,1,3,1,0,240,174,1,239,,,,,,,,,,,,,,,,,,
,,1,129,,,,,,,3,2,1,stim/21.jpeg,Instruments,2,stim/objects/Instruments/tuba2.png,0.1,1,-0.2,0.15,right,54,2021-02-02_08h37.50.369,premup-three_ses-01_part-01_label-phase1,3.2.4,Win32,60,right,1.126999855,4,0,4,0,1,3,1,0,240,236,1,239,,,,,,,,,,,,,,,,,,
,,1,130,,,,,,,3,1,1,stim/11.jpeg,Instruments,2,stim/objects/Instruments/timbal2.png,0.9,1,-0.2,0.15,right,54,2021-02-02_08h37.50.369,premup-three_ses-01_part-01_label-phase1,3.2.4,Win32,60,right,0.749999762,4,0,4,0,1,3,1,0,240,176,1,239,,,,,,,,,,,,,,,,,,
,,1,131,,,,,,,2,5,3,stim/53.jpeg,Instruments,2,stim/objects/Instruments/vuvuzela.png,0.7,1,-0.2,0.15,right,54,2021-02-02_08h37.50.369,premup-three_ses-01_part-01_label-phase1,3.2.4,Win32,60,right,1.026000023,4,0,4,0,1,3,1,0,240,98,1,239,,,,,,,,,,,,,,,,,,
,,0,132,,,,,,,2,6,2,stim/62.jpeg,HouseObjects,1,stim/objects/HouseObjects/safetypin2.png,0.7,3,-0.2,-0.15,left,54,2021-02-02_08h37.50.369,premup-three_ses-01_part-01_label-phase1,3.2.4,Win32,60,,,4,0,4,0,1,3,1,0,240,121,1,239,,,,,,,,,,,,,,,,,,
,,1,133,,,,,,,2,6,3,stim/63.jpeg,HouseObjects,1,stim/objects/HouseObjects/saw2.png,0.7,3,-0.2,-0.15,left,54,2021-02-02_08h37.50.369,premup-three_ses-01_part-01_label-phase1,3.2.4,Win32,60,left,0.888999939,4,0,4,0,1,3,1,0,240,138,1,239,,,,,,,,,,,,,,,,,,
,,0,134,,,,,,,3,1,3,stim/13.jpeg,HouseObjects,1,stim/objects/HouseObjects/teapot2.png,0.1,1,-0.2,0.15,left,54,2021-02-02_08h37.50.369,premup-three_ses-01_part-01_label-phase1,3.2.4,Win32,60,right,0.694000006,4,0,4,0,1,3,1,0,240,162,1,239,,,,,,,,,,,,,,,,,,
,,1,135,,,,,,,2,6,1,stim/61.jpeg,Instruments,2,stim/objects/Instruments/record_player2.png,0.3,1,-0.2,0.15,right,54,2021-02-02_08h37.50.369,premup-three_ses-01_part-01_label-phase1,3.2.4,Win32,60,right,1.660999775,4,0,4,0,1,3,1,0,240,148,1,239,,,,,,,,,,,,,,,,,,
,,0,136,,,,,,,2,5,2,stim/52.jpeg,HouseObjects,1,stim/objects/HouseObjects/towel.png,0.3,2,0.2,0.15,left,54,2021-02-02_08h37.50.369,premup-three_ses-01_part-01_label-phase1,3.2.4,Win32,60,right,0.878000021,4,0,4,0,1,3,1,0,240,89,1,239,,,,,,,,,,,,,,,,,,
,,1,137,,,,,,,1,4,3,stim/43.jpeg,Instruments,2,stim/objects/Instruments/trombone.png,0.5,4,0.2,-0.15,right,54,2021-02-02_08h37.50.369,premup-three_ses-01_part-01_label-phase1,3.2.4,Win32,60,right,1.135999918,4,0,4,0,1,3,1,0,240,78,1,239,,,,,,,,,,,,,,,,,,
,,1,138,,,,,,,3,1,4,stim/14.jpeg,Instruments,2,stim/objects/Instruments/trumpet2.png,0.9,3,-0.2,-0.15,right,54,2021-02-02_08h37.50.369,premup-three_ses-01_part-01_label-phase1,3.2.4,Win32,60,right,0.816999912,4,0,4,0,1,3,1,0,240,195,1,239,,,,,,,,,,,,,,,,,,
,,1,139,,,,,,,1,3,1,stim/31.jpeg,Instruments,2,stim/objects/Instruments/record_player.png,0.5,1,-0.2,0.15,right,54,2021-02-02_08h37.50.369,premup-three_ses-01_part-01_label-phase1,3.2.4,Win32,60,right,1.089999914,4,0,4,0,1,3,1,0,240,36,1,239,,,,,,,,,,,,,,,,,,
,,0,140,,,,,,,1,4,3,stim/43.jpeg,HouseObjects,1,stim/objects/HouseObjects/teapot.png,0.5,4,0.2,-0.15,left,54,2021-02-02_08h37.50.369,premup-three_ses-01_part-01_label-phase1,3.2.4,Win32,60,right,1.251999855,4,0,4,0,1,3,1,0,240,54,1,239,,,,,,,,,,,,,,,,,,
,,1,141,,,,,,,3,2,2,stim/22.jpeg,HouseObjects,1,stim/objects/HouseObjects/towel2.png,0.9,3,-0.2,-0.15,left,54,2021-02-02_08h37.50.369,premup-three_ses-01_part-01_label-phase1,3.2.4,Win32,60,left,0.944999933,4,0,4,0,1,3,1,0,240,213,1,239,,,,,,,,,,,,,,,,,,
,,0,142,,,,,,,1,4,2,stim/42.jpeg,Instruments,2,stim/objects/Instruments/triangle.png,0.5,2,0.2,0.15,right,54,2021-02-02_08h37.50.369,premup-three_ses-01_part-01_label-phase1,3.2.4,Win32,60,left,0.941999912,4,0,4,0,1,3,1,0,240,69,1,239,,,,,,,,,,,,,,,,,,
,,0,143,,,,,,,2,5,3,stim/53.jpeg,HouseObjects,1,stim/objects/HouseObjects/vacuumcleaner.png,0.3,3,-0.2,-0.15,left,54,2021-02-02_08h37.50.369,premup-three_ses-01_part-01_label-phase1,3.2.4,Win32,60,right,0.830999851,4,0,4,0,1,3,1,0,240,90,1,239,,,,,,,,,,,,,,,,,,
,,1,144,,,,,,,2,5,4,stim/54.jpeg,Instruments,2,stim/objects/Instruments/xylophone.png,0.7,1,-0.2,0.15,right,54,2021-02-02_08h37.50.369,premup-three_ses-01_part-01_label-phase1,3.2.4,Win32,60,right,1.006999969,4,0,4,0,1,3,1,0,240,95,1,239,,,,,,,,,,,,,,,,,,
,,1,145,,,,,,,2,6,4,stim/64.jpeg,HouseObjects,1,stim/objects/HouseObjects/scale2.png,0.7,4,0.2,-0.15,left,54,2021-02-02_08h37.50.369,premup-three_ses-01_part-01_label-phase1,3.2.4,Win32,60,left,0.835999966,4,0,4,0,1,3,1,0,240,139,1,239,,,,,,,,,,,,,,,,,,
,,0,146,,,,,,,1,4,3,stim/43.jpeg,Instruments,2,stim/objects/Instruments/trombone.png,0.5,4,0.2,-0.15,right,54,2021-02-02_08h37.50.369,premup-three_ses-01_part-01_label-phase1,3.2.4,Win32,60,left,1.212999821,4,0,4,0,1,3,1,0,240,62,1,239,,,,,,,,,,,,,,,,,,
,,1,147,,,,,,,1,3,4,stim/34.jpeg,Instruments,2,stim/objects/Instruments/tambourine.png,0.5,1,-0.2,0.15,right,54,2021-02-02_08h37.50.369,premup-three_ses-01_part-01_label-phase1,3.2.4,Win32,60,right,0.881999731,4,0,4,0,1,3,1,0,240,23,1,239,,,,,,,,,,,,,,,,,,
,,0,148,,,,,,,3,2,4,stim/24.jpeg,Instruments,2,stim/objects/Instruments/xylophone2.png,0.1,3,-0.2,-0.15,right,54,2021-02-02_08h37.50.369,premup-three_ses-01_part-01_label-phase1,3.2.4,Win32,60,left,0.867999792,4,0,4,0,1,3,1,0,240,239,1,239,,,,,,,,,,,,,,,,,,
,,1,149,,,,,,,2,6,1,stim/61.jpeg,Instruments,2,stim/objects/Instruments/record_player2.png,0.3,1,-0.2,0.15,right,54,2021-02-02_08h37.50.369,premup-three_ses-01_part-01_label-phase1,3.2.4,Win32,60,right,1.240999937,4,0,4,0,1,3,1,0,240,152,1,239,,,,,,,,,,,,,,,,,,
,,1,150,,,,,,,3,2,3,stim/23.jpeg,HouseObjects,1,stim/objects/HouseObjects/vacuumcleaner2.png,0.9,3,-0.2,-0.15,left,54,2021-02-02_08h37.50.369,premup-three_ses-01_part-01_label-phase1,3.2.4,Win32,60,left,0.857999802,4,0,4,0,1,3,1,0,240,234,1,239,,,,,,,,,,,,,,,,,,
,,0,151,,,,,,,3,2,4,stim/24.jpeg,HouseObjects,1,stim/objects/HouseObjects/wateringcan2.png,0.9,1,-0.2,0.15,left,54,2021-02-02_08h37.50.369,premup-three_ses-01_part-01_label-phase1,3.2.4,Win32,60,right,1.372999907,4,0,4,0,1,3,1,0,240,207,1,239,,,,,,,,,,,,,,,,,,
,,1,152,,,,,,,3,2,1,stim/21.jpeg,HouseObjects,1,stim/objects/HouseObjects/thread2.png,0.9,4,0.2,-0.15,left,54,2021-02-02_08h37.50.369,premup-three_ses-01_part-01_label-phase1,3.2.4,Win32,60,left,0.914999962,4,0,4,0,1,3,1,0,240,220,1,239,,,,,,,,,,,,,,,,,,
,,1,153,,,,,,,3,2,1,stim/21.jpeg,HouseObjects,1,stim/objects/HouseObjects/thread2.png,0.9,2,0.2,0.15,left,54,2021-02-02_08h37.50.369,premup-three_ses-01_part-01_label-phase1,3.2.4,Win32,60,left,0.770999908,4,0,4,0,1,3,1,0,240,212,1,239,,,,,,,,,,,,,,,,,,
,,1,154,,,,,,,3,1,3,stim/13.jpeg,Instruments,2,stim/objects/Instruments/trombone2.png,0.9,4,0.2,-0.15,right,54,2021-02-02_08h37.50.369,premup-three_ses-01_part-01_label-phase1,3.2.4,Win32,60,right,1.207999945,4,0,4,0,1,3,1,0,240,166,1,239,,,,,,,,,,,,,,,,,,
,,1,155,,,,,,,2,5,2,stim/52.jpeg,Instruments,2,stim/objects/Instruments/violin.png,0.7,4,0.2,-0.15,right,54,2021-02-02_08h37.50.369,premup-three_ses-01_part-01_label-phase1,3.2.4,Win32,60,right,0.89199996,4,0,4,0,1,3,1,0,240,101,1,239,,,,,,,,,,,,,,,,,,
,,0,156,,,,,,,2,6,1,stim/61.jpeg,HouseObjects,1,stim/objects/HouseObjects/rug2.png,0.7,3,-0.2,-0.15,left,54,2021-02-02_08h37.50.369,premup-three_ses-01_part-01_label-phase1,3.2.4,Win32,60,right,0.694000006,4,0,4,0,1,3,1,0,240,144,1,239,,,,,,,,,,,,,,,,,,
,,1,157,,,,,,,1,3,3,stim/33.jpeg,HouseObjects,1,stim/objects/HouseObjects/saw.png,0.5,1,-0.2,0.15,left,54,2021-02-02_08h37.50.369,premup-three_ses-01_part-01_label-phase1,3.2.4,Win32,60,left,1.789999962,4,0,4,0,1,3,1,0,240,10,1,239,,,,,,,,,,,,,,,,,,
,,1,158,,,,,,,3,1,4,stim/14.jpeg,Instruments,2,stim/objects/Instruments/trumpet2.png,0.9,1,-0.2,0.15,right,54,2021-02-02_08h37.50.369,premup-three_ses-01_part-01_label-phase1,3.2.4,Win32,60,right,0.767999887,4,0,4,0,1,3,1,0,240,199,1,239,,,,,,,,,,,,,,,,,,
,,1,159,,,,,,,3,2,3,stim/23.jpeg,HouseObjects,1,stim/objects/HouseObjects/vacuumcleaner2.png,0.9,2,0.2,0.15,left,54,2021-02-02_08h37.50.369,premup-three_ses-01_part-01_label-phase1,3.2.4,Win32,60,left,0.753000021,4,0,4,0,1,3,1,0,240,230,1,239,,,,,,,,,,,,,,,,,,
,,1,160,,,,,,,2,6,2,stim/62.jpeg,HouseObjects,1,stim/objects/HouseObjects/safetypin2.png,0.7,1,-0.2,0.15,left,54,2021-02-02_08h37.50.369,premup-three_ses-01_part-01_label-phase1,3.2.4,Win32,60,left,1.739000082,4,0,4,0,1,3,1,0,240,145,1,239,,,,,,,,,,,,,,,,,,
,,0,161,,,,,,,2,5,1,stim/51.jpeg,HouseObjects,1,stim/objects/HouseObjects/thread.png,0.3,2,0.2,0.15,left,54,2021-02-02_08h37.50.369,premup-three_ses-01_part-01_label-phase1,3.2.4,Win32,60,right,0.819999933,4,0,4,0,1,3,1,0,240,88,1,239,,,,,,,,,,,,,,,,,,
,,1,162,,,,,,,1,3,4,stim/34.jpeg,Instruments,2,stim/objects/Instruments/tambourine.png,0.5,1,-0.2,0.15,right,54,2021-02-02_08h37.50.369,premup-three_ses-01_part-01_label-phase1,3.2.4,Win32,60,right,1.139999866,4,0,4,0,1,3,1,0,240,31,1,239,,,,,,,,,,,,,,,,,,
,,1,163,,,,,,,2,5,2,stim/52.jpeg,Instruments,2,stim/objects/Instruments/violin.png,0.7,2,0.2,0.15,right,54,2021-02-02_08h37.50.369,premup-three_ses-01_part-01_label-phase1,3.2.4,Win32,60,right,1.286999941,4,0,4,0,1,3,1,0,240,105,1,239,,,,,,,,,,,,,,,,,,
,,1,164,,,,,,,3,2,4,stim/24.jpeg,HouseObjects,1,stim/objects/HouseObjects/wateringcan2.png,0.9,4,0.2,-0.15,left,54,2021-02-02_08h37.50.369,premup-three_ses-01_part-01_label-phase1,3.2.4,Win32,60,left,0.983999968,4,0,4,0,1,3,1,0,240,223,1,239,,,,,,,,,,,,,,,,,,
,,0,165,,,,,,,1,4,2,stim/42.jpeg,Instruments,2,stim/objects/Instruments/triangle.png,0.5,1,-0.2,0.15,right,54,2021-02-02_08h37.50.369,premup-three_ses-01_part-01_label-phase1,3.2.4,Win32,60,left,1.226000071,4,0,4,0,1,3,1,0,240,61,1,239,,,,,,,,,,,,,,,,,,
,,1,166,,,,,,,1,4,3,stim/43.jpeg,HouseObjects,1,stim/objects/HouseObjects/teapot.png,0.5,4,0.2,-0.15,left,54,2021-02-02_08h37.50.369,premup-three_ses-01_part-01_label-phase1,3.2.4,Win32,60,left,1.705999851,4,0,4,0,1,3,1,0,240,58,1,239,,,,,,,,,,,,,,,,,,
,,0,167,,,,,,,2,6,1,stim/61.jpeg,HouseObjects,1,stim/objects/HouseObjects/rug2.png,0.7,1,-0.2,0.15,left,54,2021-02-02_08h37.50.369,premup-three_ses-01_part-01_label-phase1,3.2.4,Win32,60,right,1.075999975,4,0,4,0,1,3,1,0,240,140,1,239,,,,,,,,,,,,,,,,,,
,,0,168,,,,,,,1,4,1,stim/41.jpeg,Instruments,2,stim/objects/Instruments/timbal.png,0.5,2,0.2,0.15,right,54,2021-02-02_08h37.50.369,premup-three_ses-01_part-01_label-phase1,3.2.4,Win32,60,,,4,0,4,0,1,3,1,0,240,64,1,239,,,,,,,,,,,,,,,,,,
,,0,169,,,,,,,2,6,2,stim/62.jpeg,Instruments,2,stim/objects/Instruments/saxophone2.png,0.3,4,0.2,-0.15,right,54,2021-02-02_08h37.50.369,premup-three_ses-01_part-01_label-phase1,3.2.4,Win32,60,left,1.364000082,4,0,4,0,1,3,1,0,240,153,1,239,,,,,,,,,,,,,,,,,,
,,0,170,,,,,,,2,6,3,stim/63.jpeg,Instruments,2,stim/objects/Instruments/speaker2.png,0.3,4,0.2,-0.15,right,54,2021-02-02_08h37.50.369,premup-three_ses-01_part-01_label-phase1,3.2.4,Win32,60,left,1.210000038,4,0,4,0,1,3,1,0,240,154,1,239,,,,,,,,,,,,,,,,,,
,,1,171,,,,,,,2,5,4,stim/54.jpeg,Instruments,2,stim/objects/Instruments/xylophone.png,0.7,3,-0.2,-0.15,right,54,2021-02-02_08h37.50.369,premup-three_ses-01_part-01_label-phase1,3.2.4,Win32,60,right,1.058000088,4,0,4,0,1,3,1,0,240,103,1,239,,,,,,,,,,,,,,,,,,
,,1,172,,,,,,,3,2,1,stim/21.jpeg,HouseObjects,1,stim/objects/HouseObjects/thread2.png,0.9,4,0.2,-0.15,left,54,2021-02-02_08h37.50.369,premup-three_ses-01_part-01_label-phase1,3.2.4,Win32,60,left,0.75,4,0,4,0,1,3,1,0,240,204,1,239,,,,,,,,,,,,,,,,,,
,,1,173,,,,,,,3,2,2,stim/22.jpeg,HouseObjects,1,stim/objects/HouseObjects/towel2.png,0.9,2,0.2,0.15,left,54,2021-02-02_08h37.50.369,premup-three_ses-01_part-01_label-phase1,3.2.4,Win32,60,left,1.230999947,4,0,4,0,1,3,1,0,240,233,1,239,,,,,,,,,,,,,,,,,,
,,1,174,,,,,,,2,5,3,stim/53.jpeg,Instruments,2,stim/objects/Instruments/vuvuzela.png,0.7,1,-0.2,0.15,right,54,2021-02-02_08h37.50.369,premup-three_ses-01_part-01_label-phase1,3.2.4,Win32,60,right,1.256999969,4,0,4,0,1,3,1,0,240,110,1,239,,,,,,,,,,,,,,,,,,
,,0,175,,,,,,,1,3,3,stim/33.jpeg,HouseObjects,1,stim/objects/HouseObjects/saw.png,0.5,1,-0.2,0.15,left,54,2021-02-02_08h37.50.369,premup-three_ses-01_part-01_label-phase1,3.2.4,Win32,60,right,0.871999979,4,0,4,0,1,3,1,0,240,14,1,239,,,,,,,,,,,,,,,,,,
,,0,176,,,,,,,1,4,4,stim/44.jpeg,HouseObjects,1,stim/objects/HouseObjects/thermometer.png,0.5,3,-0.2,-0.15,left,54,2021-02-02_08h37.50.369,premup-three_ses-01_part-01_label-phase1,3.2.4,Win32,60,right,1.125999928,4,0,4,0,1,3,1,0,240,47,1,239,,,,,,,,,,,,,,,,,,
,,1,177,,,,,,,3,2,3,stim/23.jpeg,HouseObjects,1,stim/objects/HouseObjects/vacuumcleaner2.png,0.9,1,-0.2,0.15,left,54,2021-02-02_08h37.50.369,premup-three_ses-01_part-01_label-phase1,3.2.4,Win32,60,left,0.762000084,4,0,4,0,1,3,1,0,240,218,1,239,,,,,,,,,,,,,,,,,,
,,1,178,,,,,,,2,6,1,stim/61.jpeg,HouseObjects,1,stim/objects/HouseObjects/rug2.png,0.7,3,-0.2,-0.15,left,54,2021-02-02_08h37.50.369,premup-three_ses-01_part-01_label-phase1,3.2.4,Win32,60,left,1.588999748,4,0,4,0,1,3,1,0,240,128,1,239,,,,,,,,,,,,,,,,,,
,,0,179,,,,,,,2,5,2,stim/52.jpeg,HouseObjects,1,stim/objects/HouseObjects/towel.png,0.3,1,-0.2,0.15,left,54,2021-02-02_08h37.50.369,premup-three_ses-01_part-01_label-phase1,3.2.4,Win32,60,right,0.787999868,4,0,4,0,1,3,1,0,240,85,1,239,,,,,,,,,,,,,,,,,,
,,1,180,,,,,,,3,2,4,stim/24.jpeg,HouseObjects,1,stim/objects/HouseObjects/wateringcan2.png,0.9,2,0.2,0.15,left,54,2021-02-02_08h37.50.369,premup-three_ses-01_part-01_label-phase1,3.2.4,Win32,60,left,0.679999828,4,0,4,0,1,3,1,0,240,219,1,239,,,,,,,,,,,,,,,,,,
,,0,181,,,,,,,1,4,1,stim/41.jpeg,HouseObjects,1,stim/objects/HouseObjects/sponge.png,0.5,3,-0.2,-0.15,left,54,2021-02-02_08h37.50.369,premup-three_ses-01_part-01_label-phase1,3.2.4,Win32,60,right,1.243000031,4,0,4,0,1,3,1,0,240,52,1,239,,,,,,,,,,,,,,,,,,
,,0,182,,,,,,,2,5,1,stim/51.jpeg,Instruments,2,stim/objects/Instruments/tuba.png,0.7,1,-0.2,0.15,right,54,2021-02-02_08h37.50.369,premup-three_ses-01_part-01_label-phase1,3.2.4,Win32,60,left,0.786000013,4,0,4,0,1,3,1,0,240,92,1,239,,,,,,,,,,,,,,,,,,
,,0,183,,,,,,,1,4,1,stim/41.jpeg,HouseObjects,1,stim/objects/HouseObjects/sponge.png,0.5,2,0.2,0.15,left,54,2021-02-02_08h37.50.369,premup-three_ses-01_part-01_label-phase1,3.2.4,Win32,60,right,1.274999857,4,0,4,0,1,3,1,0,240,48,1,239,,,,,,,,,,,,,,,,,,
,,0,184,,,,,,,2,5,1,stim/51.jpeg,Instruments,2,stim/objects/Instruments/tuba.png,0.7,2,0.2,0.15,right,54,2021-02-02_08h37.50.369,premup-three_ses-01_part-01_label-phase1,3.2.4,Win32,60,left,1.427999973,4,0,4,0,1,3,1,0,240,104,1,239,,,,,,,,,,,,,,,,,,
,,1,185,,,,,,,3,1,4,stim/14.jpeg,Instruments,2,stim/objects/Instruments/trumpet2.png,0.9,2,0.2,0.15,right,54,2021-02-02_08h37.50.369,premup-three_ses-01_part-01_label-phase1,3.2.4,Win32,60,right,0.723999977,4,0,4,0,1,3,1,0,240,175,1,239,,,,,,,,,,,,,,,,,,
,,1,186,,,,,,,3,2,2,stim/22.jpeg,HouseObjects,1,stim/objects/HouseObjects/towel2.png,0.9,2,0.2,0.15,left,54,2021-02-02_08h37.50.369,premup-three_ses-01_part-01_label-phase1,3.2.4,Win32,60,left,0.708999872,4,0,4,0,1,3,1,0,240,217,1,239,,,,,,,,,,,,,,,,,,
,,1,187,,,,,,,1,4,4,stim/44.jpeg,Instruments,2,stim/objects/Instruments/trumpet.png,0.5,3,-0.2,-0.15,right,54,2021-02-02_08h37.50.369,premup-three_ses-01_part-01_label-phase1,3.2.4,Win32,60,right,1.64199996,4,0,4,0,1,3,1,0,240,71,1,239,,,,,,,,,,,,,,,,,,
,,1,188,,,,,,,1,3,2,stim/32.jpeg,Instruments,2,stim/objects/Instruments/saxophone.png,0.5,1,-0.2,0.15,right,54,2021-02-02_08h37.50.369,premup-three_ses-01_part-01_label-phase1,3.2.4,Win32,60,right,1.713000059,4,0,4,0,1,3,1,0,240,21,1,239,,,,,,,,,,,,,,,,,,
,,0,189,,,,,,,2,5,3,stim/53.jpeg,HouseObjects,1,stim/objects/HouseObjects/vacuumcleaner.png,0.3,3,-0.2,-0.15,left,54,2021-02-02_08h37.50.369,premup-three_ses-01_part-01_label-phase1,3.2.4,Win32,60,right,0.855999947,4,0,4,0,1,3,1,0,240,82,1,239,,,,,,,,,,,,,,,,,,
,,0,190,,,,,,,2,6,3,stim/63.jpeg,Instruments,2,stim/objects/Instruments/speaker2.png,0.3,1,-0.2,0.15,right,54,2021-02-02_08h37.50.369,premup-three_ses-01_part-01_label-phase1,3.2.4,Win32,60,left,0.907999754,4,0,4,0,1,3,1,0,240,150,1,239,,,,,,,,,,,,,,,,,,
,,1,191,,,,,,,3,2,4,stim/24.jpeg,HouseObjects,1,stim/objects/HouseObjects/wateringcan2.png,0.9,3,-0.2,-0.15,left,54,2021-02-02_08h37.50.369,premup-three_ses-01_part-01_label-phase1,3.2.4,Win32,60,left,0.980999947,4,0,4,0,1,3,1,0,240,235,1,239,,,,,,,,,,,,,,,,,,
,,1,192,,,,,,,3,2,3,stim/23.jpeg,HouseObjects,1,stim/objects/HouseObjects/vacuumcleaner2.png,0.9,4,0.2,-0.15,left,54,2021-02-02_08h37.50.369,premup-three_ses-01_part-01_label-phase1,3.2.4,Win32,60,left,0.731999874,4,0,4,0,1,3,1,0,240,226,1,239,,,,,,,,,,,,,,,,,,
,,1,193,,,,,,,1,4,2,stim/42.jpeg,HouseObjects,1,stim/objects/HouseObjects/spraybottle.png,0.5,4,0.2,-0.15,left,54,2021-02-02_08h37.50.369,premup-three_ses-01_part-01_label-phase1,3.2.4,Win32,60,left,1.120999813,4,0,4,0,1,3,1,0,240,53,1,239,,,,,,,,,,,,,,,,,,
,,0,194,,,,,,,2,5,1,stim/51.jpeg,Instruments,2,stim/objects/Instruments/tuba.png,0.7,1,-0.2,0.15,right,54,2021-02-02_08h37.50.369,premup-three_ses-01_part-01_label-phase1,3.2.4,Win32,60,left,1.088999987,4,0,4,0,1,3,1,0,240,96,1,239,,,,,,,,,,,,,,,,,,
,,0,195,,,,,,,1,3,2,stim/32.jpeg,HouseObjects,1,stim/objects/HouseObjects/safetypin.png,0.5,4,0.2,-0.15,left,54,2021-02-02_08h37.50.369,premup-three_ses-01_part-01_label-phase1,3.2.4,Win32,60,right,1.092999935,4,0,4,0,1,3,1,0,240,17,1,239,,,,,,,,,,,,,,,,,,
,,1,196,,,,,,,3,2,1,stim/21.jpeg,HouseObjects,1,stim/objects/HouseObjects/thread2.png,0.9,4,0.2,-0.15,left,54,2021-02-02_08h37.50.369,premup-three_ses-01_part-01_label-phase1,3.2.4,Win32,60,left,0.694000006,4,0,4,0,1,3,1,0,240,232,1,239,,,,,,,,,,,,,,,,,,
,,0,197,,,,,,,1,3,4,stim/34.jpeg,HouseObjects,1,stim/objects/HouseObjects/scale.png,0.5,2,0.2,0.15,left,54,2021-02-02_08h37.50.369,premup-three_ses-01_part-01_label-phase1,3.2.4,Win32,60,right,1.027999878,4,0,4,0,1,3,1,0,240,15,1,239,,,,,,,,,,,,,,,,,,
,,1,198,,,,,,,1,4,4,stim/44.jpeg,Instruments,2,stim/objects/Instruments/trumpet.png,0.5,4,0.2,-0.15,right,54,2021-02-02_08h37.50.369,premup-three_ses-01_part-01_label-phase1,3.2.4,Win32,60,right,1.103999853,4,0,4,0,1,3,1,0,240,79,1,239,,,,,,,,,,,,,,,,,,
,,0,199,,,,,,,2,6,3,stim/63.jpeg,HouseObjects,1,stim/objects/HouseObjects/saw2.png,0.7,4,0.2,-0.15,left,54,2021-02-02_08h37.50.369,premup-three_ses-01_part-01_label-phase1,3.2.4,Win32,60,right,1.090999842,4,0,4,0,1,3,1,0,240,134,1,239,,,,,,,,,,,,,,,,,,
,,1,200,,,,,,,2,6,1,stim/61.jpeg,HouseObjects,1,stim/objects/HouseObjects/rug2.png,0.7,1,-0.2,0.15,left,54,2021-02-02_08h37.50.369,premup-three_ses-01_part-01_label-phase1,3.2.4,Win32,60,left,1.528999805,4,0,4,0,1,3,1,0,240,124,1,239,,,,,,,,,,,,,,,,,,
,,1,201,,,,,,,1,4,2,stim/42.jpeg,Instruments,2,stim/objects/Instruments/triangle.png,0.5,2,0.2,0.15,right,54,2021-02-02_08h37.50.369,premup-three_ses-01_part-01_label-phase1,3.2.4,Win32,60,right,1.738000154,4,0,4,0,1,3,1,0,240,73,1,239,,,,,,,,,,,,,,,,,,
,,0,202,,,,,,,1,3,4,stim/34.jpeg,HouseObjects,1,stim/objects/HouseObjects/scale.png,0.5,3,-0.2,-0.15,left,54,2021-02-02_08h37.50.369,premup-three_ses-01_part-01_label-phase1,3.2.4,Win32,60,right,1.00999999,4,0,4,0,1,3,1,0,240,3,1,239,,,,,,,,,,,,,,,,,,
,,0,203,,,,,,,1,3,3,stim/33.jpeg,HouseObjects,1,stim/objects/HouseObjects/saw.png,0.5,3,-0.2,-0.15,left,54,2021-02-02_08h37.50.369,premup-three_ses-01_part-01_label-phase1,3.2.4,Win32,60,right,1.329999924,4,0,4,0,1,3,1,0,240,18,1,239,,,,,,,,,,,,,,,,,,
,,0,204,,,,,,,1,3,3,stim/33.jpeg,Instruments,2,stim/objects/Instruments/speaker.png,0.5,1,-0.2,0.15,right,54,2021-02-02_08h37.50.369,premup-three_ses-01_part-01_label-phase1,3.2.4,Win32,60,left,0.841999769,4,0,4,0,1,3,1,0,240,26,1,239,,,,,,,,,,,,,,,,,,
,,1,205,,,,,,,1,4,4,stim/44.jpeg,Instruments,2,stim/objects/Instruments/trumpet.png,0.5,1,-0.2,0.15,right,54,2021-02-02_08h37.50.369,premup-three_ses-01_part-01_label-phase1,3.2.4,Win32,60,right,1.594000101,4,0,4,0,1,3,1,0,240,63,1,239,,,,,,,,,,,,,,,,,,
,,1,206,,,,,,,3,2,1,stim/21.jpeg,HouseObjects,1,stim/objects/HouseObjects/thread2.png,0.9,4,0.2,-0.15,left,54,2021-02-02_08h37.50.369,premup-three_ses-01_part-01_label-phase1,3.2.4,Win32,60,left,0.720999956,4,0,4,0,1,3,1,0,240,224,1,239,,,,,,,,,,,,,,,,,,
,,1,207,,,,,,,3,1,2,stim/12.jpeg,Instruments,2,stim/objects/Instruments/triangle2.png,0.9,4,0.2,-0.15,right,54,2021-02-02_08h37.50.369,premup-three_ses-01_part-01_label-phase1,3.2.4,Win32,60,right,0.990999937,4,0,4,0,1,3,1,0,240,185,1,239,,,,,,,,,,,,,,,,,,
,,0,208,,,,,,,2,5,3,stim/53.jpeg,HouseObjects,1,stim/objects/HouseObjects/vacuumcleaner.png,0.3,4,0.2,-0.15,left,54,2021-02-02_08h37.50.369,premup-three_ses-01_part-01_label-phase1,3.2.4,Win32,60,right,0.926999807,4,0,4,0,1,3,1,0,240,86,1,239,,,,,,,,,,,,,,,,,,
,,0,209,,,,,,,2,5,1,stim/51.jpeg,HouseObjects,1,stim/objects/HouseObjects/thread.png,0.3,4,0.2,-0.15,left,54,2021-02-02_08h37.50.369,premup-three_ses-01_part-01_label-phase1,3.2.4,Win32,60,right,1.174999952,4,0,4,0,1,3,1,0,240,84,1,239,,,,,,,,,,,,,,,,,,
,,0,210,,,,,,,1,3,2,stim/32.jpeg,HouseObjects,1,stim/objects/HouseObjects/safetypin.png,0.5,3,-0.2,-0.15,left,54,2021-02-02_08h37.50.369,premup-three_ses-01_part-01_label-phase1,3.2.4,Win32,60,right,1.407999754,4,0,4,0,1,3,1,0,240,5,1,239,,,,,,,,,,,,,,,,,,
,,1,211,,,,,,,2,6,4,stim/64.jpeg,HouseObjects,1,stim/objects/HouseObjects/scale2.png,0.7,4,0.2,-0.15,left,54,2021-02-02_08h37.50.369,premup-three_ses-01_part-01_label-phase1,3.2.4,Win32,60,left,1.214999914,4,0,4,0,1,3,1,0,240,143,1,239,,,,,,,,,,,,,,,,,,
,,1,212,,,,,,,3,2,1,stim/21.jpeg,HouseObjects,1,stim/objects/HouseObjects/thread2.png,0.9,1,-0.2,0.15,left,54,2021-02-02_08h37.50.369,premup-three_ses-01_part-01_label-phase1,3.2.4,Win32,60,left,0.644000053,4,0,4,0,1,3,1,0,240,228,1,239,,,,,,,,,,,,,,,,,,
,,0,213,,,,,,,1,4,3,stim/43.jpeg,HouseObjects,1,stim/objects/HouseObjects/teapot.png,0.5,2,0.2,0.15,left,54,2021-02-02_08h37.50.369,premup-three_ses-01_part-01_label-phase1,3.2.4,Win32,60,right,1.203999996,4,0,4,0,1,3,1,0,240,46,1,239,,,,,,,,,,,,,,,,,,
,,0,214,,,,,,,2,5,1,stim/51.jpeg,Instruments,2,stim/objects/Instruments/tuba.png,0.7,3,-0.2,-0.15,right,54,2021-02-02_08h37.50.369,premup-three_ses-01_part-01_label-phase1,3.2.4,Win32,60,left,1.612999916,4,0,4,0,1,3,1,0,240,108,1,239,,,,,,,,,,,,,,,,,,
,,0,215,,,,,,,2,6,2,stim/62.jpeg,Instruments,2,stim/objects/Instruments/saxophone2.png,0.3,3,-0.2,-0.15,right,54,2021-02-02_08h37.50.369,premup-three_ses-01_part-01_label-phase1,3.2.4,Win32,60,left,0.934999943,4,0,4,0,1,3,1,0,240,157,1,239,,,,,,,,,,,,,,,,,,
,,1,216,,,,,,,3,1,4,stim/14.jpeg,Instruments,2,stim/objects/Instruments/trumpet2.png,0.9,3,-0.2,-0.15,right,54,2021-02-02_08h37.50.369,premup-three_ses-01_part-01_label-phase1,3.2.4,Win32,60,right,0.788999796,4,0,4,0,1,3,1,0,240,183,1,239,,,,,,,,,,,,,,,,,,
,,1,217,,,,,,,3,2,1,stim/21.jpeg,HouseObjects,1,stim/objects/HouseObjects/thread2.png,0.9,2,0.2,0.15,left,54,2021-02-02_08h37.50.369,premup-three_ses-01_part-01_label-phase1,3.2.4,Win32,60,left,0.608999968,4,0,4,0,1,3,1,0,240,216,1,239,,,,,,,,,,,,,,,,,,
,,1,218,,,,,,,3,1,2,stim/12.jpeg,Instruments,2,stim/objects/Instruments/triangle2.png,0.9,1,-0.2,0.15,right,54,2021-02-02_08h37.50.369,premup-three_ses-01_part-01_label-phase1,3.2.4,Win32,60,right,0.794999838,4,0,4,0,1,3,1,0,240,173,1,239,,,,,,,,,,,,,,,,,,
,,0,219,,,,,,,1,4,1,stim/41.jpeg,Instruments,2,stim/objects/Instruments/timbal.png,0.5,2,0.2,0.15,right,54,2021-02-02_08h37.50.369,premup-three_ses-01_part-01_label-phase1,3.2.4,Win32,60,left,1.481999874,4,0,4,0,1,3,1,0,240,76,1,239,,,,,,,,,,,,,,,,,,
,,1,220,,,,,,,3,1,1,stim/11.jpeg,Instruments,2,stim/objects/Instruments/timbal2.png,0.9,1,-0.2,0.15,right,54,2021-02-02_08h37.50.369,premup-three_ses-01_part-01_label-phase1,3.2.4,Win32,60,right,0.755999804,4,0,4,0,1,3,1,0,240,164,1,239,,,,,,,,,,,,,,,,,,
,,1,221,,,,,,,3,1,3,stim/13.jpeg,Instruments,2,stim/objects/Instruments/trombone2.png,0.9,2,0.2,0.15,right,54,2021-02-02_08h37.50.369,premup-three_ses-01_part-01_label-phase1,3.2.4,Win32,60,right,0.770999908,4,0,4,0,1,3,1,0,240,178,1,239,,,,,,,,,,,,,,,,,,
,,1,222,,,,,,,1,3,2,stim/32.jpeg,Instruments,2,stim/objects/Instruments/saxophone.png,0.5,4,0.2,-0.15,right,54,2021-02-02_08h37.50.369,premup-three_ses-01_part-01_label-phase1,3.2.4,Win32,60,right,0.848999977,4,0,4,0,1,3,1,0,240,29,1,239,,,,,,,,,,,,,,,,,,
,,0,223,,,,,,,1,4,3,stim/43.jpeg,HouseObjects,1,stim/objects/HouseObjects/teapot.png,0.5,4,0.2,-0.15,left,54,2021-02-02_08h37.50.369,premup-three_ses-01_part-01_label-phase1,3.2.4,Win32,60,right,0.893000126,4,0,4,0,1,3,1,0,240,42,1,239,,,,,,,,,,,,,,,,,,
,,0,224,,,,,,,1,3,2,stim/32.jpeg,HouseObjects,1,stim/objects/HouseObjects/safetypin.png,0.5,3,-0.2,-0.15,left,54,2021-02-02_08h37.50.369,premup-three_ses-01_part-01_label-phase1,3.2.4,Win32,60,right,1.309000015,4,0,4,0,1,3,1,0,240,9,1,239,,,,,,,,,,,,,,,,,,
,,1,225,,,,,,,1,3,3,stim/33.jpeg,Instruments,2,stim/objects/Instruments/speaker.png,0.5,3,-0.2,-0.15,right,54,2021-02-02_08h37.50.369,premup-three_ses-01_part-01_label-phase1,3.2.4,Win32,60,right,0.989999771,4,0,4,0,1,3,1,0,240,22,1,239,,,,,,,,,,,,,,,,,,
,,1,226,,,,,,,3,1,1,stim/11.jpeg,Instruments,2,stim/objects/Instruments/timbal2.png,0.9,1,-0.2,0.15,right,54,2021-02-02_08h37.50.369,premup-three_ses-01_part-01_label-phase1,3.2.4,Win32,60,right,0.726999998,4,0,4,0,1,3,1,0,240,184,1,239,,,,,,,,,,,,,,,,,,
,,0,227,,,,,,,1,3,1,stim/31.jpeg,HouseObjects,1,stim/objects/HouseObjects/rug.png,0.5,1,-0.2,0.15,left,54,2021-02-02_08h37.50.369,premup-three_ses-01_part-01_label-phase1,3.2.4,Win32,60,right,1.238999844,4,0,4,0,1,3,1,0,240,16,1,239,,,,,,,,,,,,,,,,,,
,,1,228,,,,,,,3,2,2,stim/22.jpeg,HouseObjects,1,stim/objects/HouseObjects/towel2.png,0.9,3,-0.2,-0.15,left,54,2021-02-02_08h37.50.369,premup-three_ses-01_part-01_label-phase1,3.2.4,Win32,60,left,0.768000126,4,0,4,0,1,3,1,0,240,229,1,239,,,,,,,,,,,,,,,,,,
,,1,229,,,,,,,1,4,3,stim/43.jpeg,Instruments,2,stim/objects/Instruments/trombone.png,0.5,3,-0.2,-0.15,right,54,2021-02-02_08h37.50.369,premup-three_ses-01_part-01_label-phase1,3.2.4,Win32,60,right,0.929999828,4,0,4,0,1,3,1,0,240,70,1,239,,,,,,,,,,,,,,,,,,
,,1,230,,,,,,,2,6,4,stim/64.jpeg,HouseObjects,1,stim/objects/HouseObjects/scale2.png,0.7,2,0.2,0.15,left,54,2021-02-02_08h37.50.369,premup-three_ses-01_part-01_label-phase1,3.2.4,Win32,60,left,0.878999949,4,0,4,0,1,3,1,0,240,147,1,239,,,,,,,,,,,,,,,,,,
,,1,231,,,,,,,2,6,3,stim/63.jpeg,HouseObjects,1,stim/objects/HouseObjects/saw2.png,0.7,4,0.2,-0.15,left,54,2021-02-02_08h37.50.369,premup-three_ses-01_part-01_label-phase1,3.2.4,Win32,60,left,1.191999912,4,0,4,0,1,3,1,0,240,146,1,239,,,,,,,,,,,,,,,,,,
,,1,232,,,,,,,3,2,3,stim/23.jpeg,HouseObjects,1,stim/objects/HouseObjects/vacuumcleaner2.png,0.9,4,0.2,-0.15,left,54,2021-02-02_08h37.50.369,premup-three_ses-01_part-01_label-phase1,3.2.4,Win32,60,left,0.757999897,4,0,4,0,1,3,1,0,240,206,1,239,,,,,,,,,,,,,,,,,,
,,1,233,,,,,,,3,1,4,stim/14.jpeg,Instruments,2,stim/objects/Instruments/trumpet2.png,0.9,2,0.2,0.15,right,54,2021-02-02_08h37.50.369,premup-three_ses-01_part-01_label-phase1,3.2.4,Win32,60,right,0.656999826,4,0,4,0,1,3,1,0,240,171,1,239,,,,,,,,,,,,,,,,,,
,,1,234,,,,,,,3,2,2,stim/22.jpeg,HouseObjects,1,stim/objects/HouseObjects/towel2.png,0.9,4,0.2,-0.15,left,54,2021-02-02_08h37.50.369,premup-three_ses-01_part-01_label-phase1,3.2.4,Win32,60,left,0.65899992,4,0,4,0,1,3,1,0,240,205,1,239,,,,,,,,,,,,,,,,,,
,,0,235,,,,,,,2,6,4,stim/64.jpeg,Instruments,2,stim/objects/Instruments/tambourine2.png,0.3,4,0.2,-0.15,right,54,2021-02-02_08h37.50.369,premup-three_ses-01_part-01_label-phase1,3.2.4,Win32,60,left,0.660000086,4,0,4,0,1,3,1,0,240,159,1,239,,,,,,,,,,,,,,,,,,
,,0,236,,,,,,,2,5,2,stim/52.jpeg,HouseObjects,1,stim/objects/HouseObjects/towel.png,0.3,4,0.2,-0.15,left,54,2021-02-02_08h37.50.369,premup-three_ses-01_part-01_label-phase1,3.2.4,Win32,60,right,0.889999866,4,0,4,0,1,3,1,0,240,81,1,239,,,,,,,,,,,,,,,,,,
,,0,237,,,,,,,1,4,4,stim/44.jpeg,HouseObjects,1,stim/objects/HouseObjects/thermometer.png,0.5,3,-0.2,-0.15,left,54,2021-02-02_08h37.50.369,premup-three_ses-01_part-01_label-phase1,3.2.4,Win32,60,right,0.851999998,4,0,4,0,1,3,1,0,240,43,1,239,,,,,,,,,,,,,,,,,,
,,1,238,,,,,,,2,6,2,stim/62.jpeg,HouseObjects,1,stim/objects/HouseObjects/safetypin2.png,0.7,3,-0.2,-0.15,left,54,2021-02-02_08h37.50.369,premup-three_ses-01_part-01_label-phase1,3.2.4,Win32,60,left,0.936999798,4,0,4,0,1,3,1,0,240,133,1,239,,,,,,,,,,,,,,,,,,
,,0,239,,,,,,,2,5,4,stim/54.jpeg,HouseObjects,1,stim/objects/HouseObjects/wateringcan.png,0.3,2,0.2,0.15,left,54,2021-02-02_08h37.50.369,premup-three_ses-01_part-01_label-phase1,3.2.4,Win32,60,right,0.944999933,4,0,4,0,1,3,1,0,240,87,1,239,,,,,,,,,,,,,,,,,,
,,1,240,,,,,,,1,4,1,stim/41.jpeg,HouseObjects,1,stim/objects/HouseObjects/sponge.png,0.5,4,0.2,-0.15,left,54,2021-02-02_08h37.50.369,premup-three_ses-01_part-01_label-phase1,3.2.4,Win32,60,left,1.585999966,4,0,4,0,1,3,1,0,240,44,1,239,,,,,,,,,,,,,,,,,,
,,,,,,,,,,,1,,stim/11.jpeg,,,,,,,,,54,2021-02-02_08h37.50.369,premup-three_ses-01_part-01_label-phase1,3.2.4,Win32,60,,,4,0,4,0,1,3,,,,,,,1,0,,,57,12.30299997,1,0,6,0,1,5,Household items,45,55,Music items,45,55
,,,,,,,,,,,2,,stim/21.jpeg,,,,,,,,,54,2021-02-02_08h37.50.369,premup-three_ses-01_part-01_label-phase1,3.2.4,Win32,60,,,4,0,4,0,1,3,,,,,,,1,0,0,9.31799984,,,1,0,6,1,1,5,Music items,45,55,Household items,45,55
,,,,,,,,,,,4,,stim/41.jpeg,,,,,,,,,54,2021-02-02_08h37.50.369,premup-three_ses-01_part-01_label-phase1,3.2.4,Win32,60,,,4,0,4,0,1,3,,,,,,,1,0,60,10.22399998,,,1,0,6,3,1,5,Household items,65,75,Music items,25,35
,,,,,,,,,,,5,,stim/51.jpeg,,,,,,,,,54,2021-02-02_08h37.50.369,premup-three_ses-01_part-01_label-phase1,3.2.4,Win32,60,,,4,0,4,0,1,3,,,,,,,1,0,50,9.052999973,,,1,0,6,4,1,5,Music items,5,15,Household items,85,95
,,,,,,,,,,,6,,stim/61.jpeg,,,,,,,,,54,2021-02-02_08h37.50.369,premup-three_ses-01_part-01_label-phase1,3.2.4,Win32,60,,,4,0,4,0,1,3,,,,,,,1,0,80,15.30000019,,,1,0,6,5,1,5,Household items,5,15,Music items,85,95
,,,,,,,,,,,3,,stim/31.jpeg,,,,,,,,,54,2021-02-02_08h37.50.369,premup-three_ses-01_part-01_label-phase1,3.2.4,Win32,60,,,4,0,4,0,1,3,,,,,,,1,0,40,9.592000008,,,1,0,6,2,1,5,Household items,65,75,Music items,25,35
,,,,,,,,,,,,,,,,,,,,,,54,2021-02-02_08h37.50.369,premup-three_ses-01_part-01_label-phase1,3.2.4,Win32,60,,,4,0,4,0,1,3,,,,,,,,,,,,,,,,,,,,,,,,
,,1,1,,,,,,,3,2,3,stim/23.jpeg,HouseObjects,1,stim/objects/HouseObjects/vacuumcleaner2.png,0.9,1,-0.2,0.15,left,54,2021-02-02_08h37.50.369,premup-three_ses-01_part-01_label-phase1,3.2.4,Win32,60,left,0.873999834,4,0,4,0,1,3,1,0,240,214,1,239,,,,,,,,,,,,,,,,,,
,,0,2,,,,,,,1,4,3,stim/43.jpeg,HouseObjects,1,stim/objects/HouseObjects/teapot.png,0.5,4,0.2,-0.15,left,54,2021-02-02_08h37.50.369,premup-three_ses-01_part-01_label-phase1,3.2.4,Win32,60,right,0.954999924,4,0,4,0,1,3,1,0,240,42,1,239,,,,,,,,,,,,,,,,,,
,,1,3,,,,,,,2,5,1,stim/51.jpeg,Instruments,2,stim/objects/Instruments/tuba.png,0.7,2,0.2,0.15,right,54,2021-02-02_08h37.50.369,premup-three_ses-01_part-01_label-phase1,3.2.4,Win32,60,right,0.936000109,4,0,4,0,1,3,1,0,240,104,1,239,,,,,,,,,,,,,,,,,,
,,1,4,,,,,,,3,1,2,stim/12.jpeg,Instruments,2,stim/objects/Instruments/triangle2.png,0.9,1,-0.2,0.15,right,54,2021-02-02_08h37.50.369,premup-three_ses-01_part-01_label-phase1,3.2.4,Win32,60,right,0.674000025,4,0,4,0,1,3,1,0,240,169,1,239,,,,,,,,,,,,,,,,,,
,,0,5,,,,,,,1,4,4,stim/44.jpeg,HouseObjects,1,stim/objects/HouseObjects/thermometer.png,0.5,3,-0.2,-0.15,left,54,2021-02-02_08h37.50.369,premup-three_ses-01_part-01_label-phase1,3.2.4,Win32,60,right,0.823999882,4,0,4,0,1,3,1,0,240,43,1,239,,,,,,,,,,,,,,,,,,
,,1,6,,,,,,,3,1,3,stim/13.jpeg,Instruments,2,stim/objects/Instruments/trombone2.png,0.9,2,0.2,0.15,right,54,2021-02-02_08h37.50.369,premup-three_ses-01_part-01_label-phase1,3.2.4,Win32,60,right,0.621000051,4,0,4,0,1,3,1,0,240,182,1,239,,,,,,,,,,,,,,,,,,
,,1,7,,,,,,,3,1,3,stim/13.jpeg,Instruments,2,stim/objects/Instruments/trombone2.png,0.9,3,-0.2,-0.15,right,54,2021-02-02_08h37.50.369,premup-three_ses-01_part-01_label-phase1,3.2.4,Win32,60,right,0.773000002,4,0,4,0,1,3,1,0,240,198,1,239,,,,,,,,,,,,,,,,,,
,,1,8,,,,,,,3,1,3,stim/13.jpeg,Instruments,2,stim/objects/Instruments/trombone2.png,0.9,2,0.2,0.15,right,54,2021-02-02_08h37.50.369,premup-three_ses-01_part-01_label-phase1,3.2.4,Win32,60,right,0.655999899,4,0,4,0,1,3,1,0,240,178,1,239,,,,,,,,,,,,,,,,,,
,,1,9,,,,,,,2,6,1,stim/61.jpeg,HouseObjects,1,stim/objects/HouseObjects/rug2.png,0.7,2,0.2,0.15,left,54,2021-02-02_08h37.50.369,premup-three_ses-01_part-01_label-phase1,3.2.4,Win32,60,left,0.790999889,4,0,4,0,1,3,1,0,240,132,1,239,,,,,,,,,,,,,,,,,,
,,1,10,,,,,,,3,1,1,stim/11.jpeg,Instruments,2,stim/objects/Instruments/timbal2.png,0.9,1,-0.2,0.15,right,54,2021-02-02_08h37.50.369,premup-three_ses-01_part-01_label-phase1,3.2.4,Win32,60,right,0.66899991,4,0,4,0,1,3,1,0,240,164,1,239,,,,,,,,,,,,,,,,,,
,,1,11,,,,,,,2,6,2,stim/62.jpeg,HouseObjects,1,stim/objects/HouseObjects/safetypin2.png,0.7,2,0.2,0.15,left,54,2021-02-02_08h37.50.369,premup-three_ses-01_part-01_label-phase1,3.2.4,Win32,60,left,0.792999983,4,0,4,0,1,3,1,0,240,137,1,239,,,,,,,,,,,,,,,,,,
,,1,12,,,,,,,1,3,4,stim/34.jpeg,Instruments,2,stim/objects/Instruments/tambourine.png,0.5,1,-0.2,0.15,right,54,2021-02-02_08h37.50.369,premup-three_ses-01_part-01_label-phase1,3.2.4,Win32,60,right,0.937000036,4,0,4,0,1,3,1,0,240,23,1,239,,,,,,,,,,,,,,,,,,
,,0,13,,,,,,,1,3,1,stim/31.jpeg,HouseObjects,1,stim/objects/HouseObjects/rug.png,0.5,2,0.2,0.15,left,54,2021-02-02_08h37.50.369,premup-three_ses-01_part-01_label-phase1,3.2.4,Win32,60,right,1.306999922,4,0,4,0,1,3,1,0,240,12,1,239,,,,,,,,,,,,,,,,,,
,,1,14,,,,,,,1,4,1,stim/41.jpeg,HouseObjects,1,stim/objects/HouseObjects/sponge.png,0.5,2,0.2,0.15,left,54,2021-02-02_08h37.50.369,premup-three_ses-01_part-01_label-phase1,3.2.4,Win32,60,left,1.173000097,4,0,4,0,1,3,1,0,240,48,1,239,,,,,,,,,,,,,,,,,,
,,0,15,,,,,,,2,6,4,stim/64.jpeg,Instruments,2,stim/objects/Instruments/tambourine2.png,0.3,3,-0.2,-0.15,right,54,2021-02-02_08h37.50.369,premup-three_ses-01_part-01_label-phase1,3.2.4,Win32,60,left,0.923999786,4,0,4,0,1,3,1,0,240,151,1,239,,,,,,,,,,,,,,,,,,
,,1,16,,,,,,,3,1,1,stim/11.jpeg,Instruments,2,stim/objects/Instruments/timbal2.png,0.9,1,-0.2,0.15,right,54,2021-02-02_08h37.50.369,premup-three_ses-01_part-01_label-phase1,3.2.4,Win32,60,right,0.672999859,4,0,4,0,1,3,1,0,240,180,1,239,,,,,,,,,,,,,,,,,,
,,1,17,,,,,,,3,1,1,stim/11.jpeg,Instruments,2,stim/objects/Instruments/timbal2.png,0.9,2,0.2,0.15,right,54,2021-02-02_08h37.50.369,premup-three_ses-01_part-01_label-phase1,3.2.4,Win32,60,right,0.661999941,4,0,4,0,1,3,1,0,240,168,1,239,,,,,,,,,,,,,,,,,,
,,1,18,,,,,,,3,2,3,stim/23.jpeg,HouseObjects,1,stim/objects/HouseObjects/vacuumcleaner2.png,0.9,1,-0.2,0.15,left,54,2021-02-02_08h37.50.369,premup-three_ses-01_part-01_label-phase1,3.2.4,Win32,60,left,0.607999802,4,0,4,0,1,3,1,0,240,218,1,239,,,,,,,,,,,,,,,,,,
,,1,19,,,,,,,3,2,3,stim/23.jpeg,HouseObjects,1,stim/objects/HouseObjects/vacuumcleaner2.png,0.9,3,-0.2,-0.15,left,54,2021-02-02_08h37.50.369,premup-three_ses-01_part-01_label-phase1,3.2.4,Win32,60,left,0.556999922,4,0,4,0,1,3,1,0,240,234,1,239,,,,,,,,,,,,,,,,,,
,,0,20,,,,,,,2,6,2,stim/62.jpeg,Instruments,2,stim/objects/Instruments/saxophone2.png,0.3,4,0.2,-0.15,right,54,2021-02-02_08h37.50.369,premup-three_ses-01_part-01_label-phase1,3.2.4,Win32,60,left,1.23699975,4,0,4,0,1,3,1,0,240,153,1,239,,,,,,,,,,,,,,,,,,
,,0,21,,,,,,,3,2,1,stim/21.jpeg,Instruments,2,stim/objects/Instruments/tuba2.png,0.1,1,-0.2,0.15,right,54,2021-02-02_08h37.50.369,premup-three_ses-01_part-01_label-phase1,3.2.4,Win32,60,left,0.770999908,4,0,4,0,1,3,1,0,240,236,1,239,,,,,,,,,,,,,,,,,,
,,1,22,,,,,,,3,1,1,stim/11.jpeg,Instruments,2,stim/objects/Instruments/timbal2.png,0.9,1,-0.2,0.15,right,54,2021-02-02_08h37.50.369,premup-three_ses-01_part-01_label-phase1,3.2.4,Win32,60,right,0.773999929,4,0,4,0,1,3,1,0,240,188,1,239,,,,,,,,,,,,,,,,,,
,,0,23,,,,,,,1,4,4,stim/44.jpeg,Instruments,2,stim/objects/Instruments/trumpet.png,0.5,4,0.2,-0.15,right,54,2021-02-02_08h37.50.369,premup-three_ses-01_part-01_label-phase1,3.2.4,Win32,60,left,1.190999985,4,0,4,0,1,3,1,0,240,79,1,239,,,,,,,,,,,,,,,,,,
,,1,24,,,,,,,2,6,1,stim/61.jpeg,HouseObjects,1,stim/objects/HouseObjects/rug2.png,0.7,3,-0.2,-0.15,left,54,2021-02-02_08h37.50.369,premup-three_ses-01_part-01_label-phase1,3.2.4,Win32,60,left,1.223999977,4,0,4,0,1,3,1,0,240,128,1,239,,,,,,,,,,,,,,,,,,
,,0,25,,,,,,,1,3,1,stim/31.jpeg,Instruments,2,stim/objects/Instruments/record_player.png,0.5,1,-0.2,0.15,right,54,2021-02-02_08h37.50.369,premup-three_ses-01_part-01_label-phase1,3.2.4,Win32,60,left,1.371000051,4,0,4,0,1,3,1,0,240,36,1,239,,,,,,,,,,,,,,,,,,
,,1,26,,,,,,,2,6,1,stim/61.jpeg,HouseObjects,1,stim/objects/HouseObjects/rug2.png,0.7,3,-0.2,-0.15,left,54,2021-02-02_08h37.50.369,premup-three_ses-01_part-01_label-phase1,3.2.4,Win32,60,left,1.093999863,4,0,4,0,1,3,1,0,240,120,1,239,,,,,,,,,,,,,,,,,,
,,0,27,,,,,,,3,1,3,stim/13.jpeg,HouseObjects,1,stim/objects/HouseObjects/teapot2.png,0.1,1,-0.2,0.15,left,54,2021-02-02_08h37.50.369,premup-three_ses-01_part-01_label-phase1,3.2.4,Win32,60,right,0.610000134,4,0,4,0,1,3,1,0,240,162,1,239,,,,,,,,,,,,,,,,,,
,,0,28,,,,,,,2,5,3,stim/53.jpeg,HouseObjects,1,stim/objects/HouseObjects/vacuumcleaner.png,0.3,4,0.2,-0.15,left,54,2021-02-02_08h37.50.369,premup-three_ses-01_part-01_label-phase1,3.2.4,Win32,60,right,0.919999838,4,0,4,0,1,3,1,0,240,86,1,239,,,,,,,,,,,,,,,,,,
,,1,29,,,,,,,3,2,2,stim/22.jpeg,HouseObjects,1,stim/objects/HouseObjects/towel2.png,0.9,4,0.2,-0.15,left,54,2021-02-02_08h37.50.369,premup-three_ses-01_part-01_label-phase1,3.2.4,Win32,60,left,0.67599988,4,0,4,0,1,3,1,0,240,205,1,239,,,,,,,,,,,,,,,,,,
,,1,30,,,,,,,2,5,2,stim/52.jpeg,Instruments,2,stim/objects/Instruments/violin.png,0.7,2,0.2,0.15,right,54,2021-02-02_08h37.50.369,premup-three_ses-01_part-01_label-phase1,3.2.4,Win32,60,right,0.8349998,4,0,4,0,1,3,1,0,240,105,1,239,,,,,,,,,,,,,,,,,,
,,1,31,,,,,,,3,1,1,stim/11.jpeg,Instruments,2,stim/objects/Instruments/timbal2.png,0.9,2,0.2,0.15,right,54,2021-02-02_08h37.50.369,premup-three_ses-01_part-01_label-phase1,3.2.4,Win32,60,right,0.595999956,4,0,4,0,1,3,1,0,240,196,1,239,,,,,,,,,,,,,,,,,,
,,1,32,,,,,,,1,3,2,stim/32.jpeg,Instruments,2,stim/objects/Instruments/saxophone.png,0.5,1,-0.2,0.15,right,54,2021-02-02_08h37.50.369,premup-three_ses-01_part-01_label-phase1,3.2.4,Win32,60,right,0.951999903,4,0,4,0,1,3,1,0,240,33,1,239,,,,,,,,,,,,,,,,,,
,,1,33,,,,,,,2,5,2,stim/52.jpeg,Instruments,2,stim/objects/Instruments/violin.png,0.7,2,0.2,0.15,right,54,2021-02-02_08h37.50.369,premup-three_ses-01_part-01_label-phase1,3.2.4,Win32,60,right,0.757999897,4,0,4,0,1,3,1,0,240,113,1,239,,,,,,,,,,,,,,,,,,
,,1,34,,,,,,,3,1,4,stim/14.jpeg,Instruments,2,stim/objects/Instruments/trumpet2.png,0.9,2,0.2,0.15,right,54,2021-02-02_08h37.50.369,premup-three_ses-01_part-01_label-phase1,3.2.4,Win32,60,right,0.63499999,4,0,4,0,1,3,1,0,240,171,1,239,,,,,,,,,,,,,,,,,,
,,0,35,,,,,,,1,3,3,stim/33.jpeg,Instruments,2,stim/objects/Instruments/speaker.png,0.5,3,-0.2,-0.15,right,54,2021-02-02_08h37.50.369,premup-three_ses-01_part-01_label-phase1,3.2.4,Win32,60,left,1.305000067,4,0,4,0,1,3,1,0,240,34,1,239,,,,,,,,,,,,,,,,,,
,,0,36,,,,,,,2,5,4,stim/54.jpeg,Instruments,2,stim/objects/Instruments/xylophone.png,0.7,1,-0.2,0.15,right,54,2021-02-02_08h37.50.369,premup-three_ses-01_part-01_label-phase1,3.2.4,Win32,60,left,1.155999899,4,0,4,0,1,3,1,0,240,95,1,239,,,,,,,,,,,,,,,,,,
,,0,37,,,,,,,2,6,2,stim/62.jpeg,Instruments,2,stim/objects/Instruments/saxophone2.png,0.3,4,0.2,-0.15,right,54,2021-02-02_08h37.50.369,premup-three_ses-01_part-01_label-phase1,3.2.4,Win32,60,left,1.173999786,4,0,4,0,1,3,1,0,240,149,1,239,,,,,,,,,,,,,,,,,,
,,1,38,,,,,,,1,4,3,stim/43.jpeg,Instruments,2,stim/objects/Instruments/trombone.png,0.5,3,-0.2,-0.15,right,54,2021-02-02_08h37.50.369,premup-three_ses-01_part-01_label-phase1,3.2.4,Win32,60,right,1.142999887,4,0,4,0,1,3,1,0,240,74,1,239,,,,,,,,,,,,,,,,,,
,,1,39,,,,,,,3,2,2,stim/22.jpeg,HouseObjects,1,stim/objects/HouseObjects/towel2.png,0.9,2,0.2,0.15,left,54,2021-02-02_08h37.50.369,premup-three_ses-01_part-01_label-phase1,3.2.4,Win32,60,left,0.644999981,4,0,4,0,1,3,1,0,240,233,1,239,,,,,,,,,,,,,,,,,,
,,1,40,,,,,,,3,1,3,stim/13.jpeg,Instruments,2,stim/objects/Instruments/trombone2.png,0.9,2,0.2,0.15,right,54,2021-02-02_08h37.50.369,premup-three_ses-01_part-01_label-phase1,3.2.4,Win32,60,right,0.67599988,4,0,4,0,1,3,1,0,240,170,1,239,,,,,,,,,,,,,,,,,,
,,0,41,,,,,,,1,3,4,stim/34.jpeg,HouseObjects,1,stim/objects/HouseObjects/scale.png,0.5,4,0.2,-0.15,left,54,2021-02-02_08h37.50.369,premup-three_ses-01_part-01_label-phase1,3.2.4,Win32,60,right,1.21999979,4,0,4,0,1,3,1,0,240,19,1,239,,,,,,,,,,,,,,,,,,
,,1,42,,,,,,,1,3,1,stim/31.jpeg,HouseObjects,1,stim/objects/HouseObjects/rug.png,0.5,2,0.2,0.15,left,54,2021-02-02_08h37.50.369,premup-three_ses-01_part-01_label-phase1,3.2.4,Win32,60,left,1.122999907,4,0,4,0,1,3,1,0,240,8,1,239,,,,,,,,,,,,,,,,,,
,,1,43,,,,,,,1,3,1,stim/31.jpeg,HouseObjects,1,stim/objects/HouseObjects/rug.png,0.5,3,-0.2,-0.15,left,54,2021-02-02_08h37.50.369,premup-three_ses-01_part-01_label-phase1,3.2.4,Win32,60,left,1.127999783,4,0,4,0,1,3,1,0,240,0,1,239,,,,,,,,,,,,,,,,,,
,,0,44,,,,,,,1,4,3,stim/43.jpeg,HouseObjects,1,stim/objects/HouseObjects/teapot.png,0.5,4,0.2,-0.15,left,54,2021-02-02_08h37.50.369,premup-three_ses-01_part-01_label-phase1,3.2.4,Win32,60,right,1.855999947,4,0,4,0,1,3,1,0,240,58,1,239,,,,,,,,,,,,,,,,,,
,,1,45,,,,,,,1,4,2,stim/42.jpeg,HouseObjects,1,stim/objects/HouseObjects/spraybottle.png,0.5,4,0.2,-0.15,left,54,2021-02-02_08h37.50.369,premup-three_ses-01_part-01_label-phase1,3.2.4,Win32,60,left,1.100999832,4,0,4,0,1,3,1,0,240,57,1,239,,,,,,,,,,,,,,,,,,
,,0,46,,,,,,,1,4,3,stim/43.jpeg,HouseObjects,1,stim/objects/HouseObjects/teapot.png,0.5,2,0.2,0.15,left,54,2021-02-02_08h37.50.369,premup-three_ses-01_part-01_label-phase1,3.2.4,Win32,60,right,1.358999968,4,0,4,0,1,3,1,0,240,50,1,239,,,,,,,,,,,,,,,,,,
,,0,47,,,,,,,1,4,2,stim/42.jpeg,Instruments,2,stim/objects/Instruments/triangle.png,0.5,1,-0.2,0.15,right,54,2021-02-02_08h37.50.369,premup-three_ses-01_part-01_label-phase1,3.2.4,Win32,60,left,1.098999977,4,0,4,0,1,3,1,0,240,65,1,239,,,,,,,,,,,,,,,,,,
,,1,48,,,,,,,1,3,3,stim/33.jpeg,HouseObjects,1,stim/objects/HouseObjects/saw.png,0.5,3,-0.2,-0.15,left,54,2021-02-02_08h37.50.369,premup-three_ses-01_part-01_label-phase1,3.2.4,Win32,60,left,1.119999886,4,0,4,0,1,3,1,0,240,18,1,239,,,,,,,,,,,,,,,,,,
,,0,49,,,,,,,1,4,4,stim/44.jpeg,HouseObjects,1,stim/objects/HouseObjects/thermometer.png,0.5,1,-0.2,0.15,left,54,2021-02-02_08h37.50.369,premup-three_ses-01_part-01_label-phase1,3.2.4,Win32,60,right,1.088999987,4,0,4,0,1,3,1,0,240,51,1,239,,,,,,,,,,,,,,,,,,
,,0,50,,,,,,,1,3,4,stim/34.jpeg,HouseObjects,1,stim/objects/HouseObjects/scale.png,0.5,3,-0.2,-0.15,left,54,2021-02-02_08h37.50.369,premup-three_ses-01_part-01_label-phase1,3.2.4,Win32,60,right,1.112999916,4,0,4,0,1,3,1,0,240,3,1,239,,,,,,,,,,,,,,,,,,
,,1,51,,,,,,,2,6,3,stim/63.jpeg,Instruments,2,stim/objects/Instruments/speaker2.png,0.3,4,0.2,-0.15,right,54,2021-02-02_08h37.50.369,premup-three_ses-01_part-01_label-phase1,3.2.4,Win32,60,right,1.851999998,4,0,4,0,1,3,1,0,240,154,1,239,,,,,,,,,,,,,,,,,,
,,1,52,,,,,,,2,6,4,stim/64.jpeg,HouseObjects,1,stim/objects/HouseObjects/scale2.png,0.7,4,0.2,-0.15,left,54,2021-02-02_08h37.50.369,premup-three_ses-01_part-01_label-phase1,3.2.4,Win32,60,left,1.072000027,4,0,4,0,1,3,1,0,240,123,1,239,,,,,,,,,,,,,,,,,,
,,0,53,,,,,,,2,6,3,stim/63.jpeg,HouseObjects,1,stim/objects/HouseObjects/saw2.png,0.7,4,0.2,-0.15,left,54,2021-02-02_08h37.50.369,premup-three_ses-01_part-01_label-phase1,3.2.4,Win32,60,right,0.803999901,4,0,4,0,1,3,1,0,240,126,1,239,,,,,,,,,,,,,,,,,,
,,0,54,,,,,,,2,5,2,stim/52.jpeg,HouseObjects,1,stim/objects/HouseObjects/towel.png,0.3,2,0.2,0.15,left,54,2021-02-02_08h37.50.369,premup-three_ses-01_part-01_label-phase1,3.2.4,Win32,60,right,0.843999863,4,0,4,0,1,3,1,0,240,89,1,239,,,,,,,,,,,,,,,,,,
,,1,55,,,,,,,3,2,2,stim/22.jpeg,HouseObjects,1,stim/objects/HouseObjects/towel2.png,0.9,3,-0.2,-0.15,left,54,2021-02-02_08h37.50.369,premup-three_ses-01_part-01_label-phase1,3.2.4,Win32,60,left,0.707000017,4,0,4,0,1,3,1,0,240,209,1,239,,,,,,,,,,,,,,,,,,
,,1,56,,,,,,,1,4,1,stim/41.jpeg,HouseObjects,1,stim/objects/HouseObjects/sponge.png,0.5,3,-0.2,-0.15,left,54,2021-02-02_08h37.50.369,premup-three_ses-01_part-01_label-phase1,3.2.4,Win32,60,left,1.220000029,4,0,4,0,1,3,1,0,240,52,1,239,,,,,,,,,,,,,,,,,,
,,1,57,,,,,,,2,6,3,stim/63.jpeg,HouseObjects,1,stim/objects/HouseObjects/saw2.png,0.7,4,0.2,-0.15,left,54,2021-02-02_08h37.50.369,premup-three_ses-01_part-01_label-phase1,3.2.4,Win32,60,left,0.936999798,4,0,4,0,1,3,1,0,240,146,1,239,,,,,,,,,,,,,,,,,,
,,0,58,,,,,,,1,4,4,stim/44.jpeg,HouseObjects,1,stim/objects/HouseObjects/thermometer.png,0.5,2,0.2,0.15,left,54,2021-02-02_08h37.50.369,premup-three_ses-01_part-01_label-phase1,3.2.4,Win32,60,right,1.36199975,4,0,4,0,1,3,1,0,240,55,1,239,,,,,,,,,,,,,,,,,,
,,1,59,,,,,,,3,2,1,stim/21.jpeg,HouseObjects,1,stim/objects/HouseObjects/thread2.png,0.9,2,0.2,0.15,left,54,2021-02-02_08h37.50.369,premup-three_ses-01_part-01_label-phase1,3.2.4,Win32,60,left,0.608999968,4,0,4,0,1,3,1,0,240,208,1,239,,,,,,,,,,,,,,,,,,
,,0,60,,,,,,,2,6,2,stim/62.jpeg,HouseObjects,1,stim/objects/HouseObjects/safetypin2.png,0.7,3,-0.2,-0.15,left,54,2021-02-02_08h37.50.369,premup-three_ses-01_part-01_label-phase1,3.2.4,Win32,60,right,1.222999811,4,0,4,0,1,3,1,0,240,133,1,239,,,,,,,,,,,,,,,,,,
,,1,61,,,,,,,3,2,1,stim/21.jpeg,HouseObjects,1,stim/objects/HouseObjects/thread2.png,0.9,4,0.2,-0.15,left,54,2021-02-02_08h37.50.369,premup-three_ses-01_part-01_label-phase1,3.2.4,Win32,60,left,0.64199996,4,0,4,0,1,3,1,0,240,220,1,239,,,,,,,,,,,,,,,,,,
,,1,62,,,,,,,1,3,1,stim/31.jpeg,HouseObjects,1,stim/objects/HouseObjects/rug.png,0.5,1,-0.2,0.15,left,54,2021-02-02_08h37.50.369,premup-three_ses-01_part-01_label-phase1,3.2.4,Win32,60,left,0.964999914,4,0,4,0,1,3,1,0,240,16,1,239,,,,,,,,,,,,,,,,,,
,,0,63,,,,,,,1,3,4,stim/34.jpeg,HouseObjects,1,stim/objects/HouseObjects/scale.png,0.5,2,0.2,0.15,left,54,2021-02-02_08h37.50.369,premup-three_ses-01_part-01_label-phase1,3.2.4,Win32,60,right,1.109999895,4,0,4,0,1,3,1,0,240,15,1,239,,,,,,,,,,,,,,,,,,
,,1,64,,,,,,,1,4,1,stim/41.jpeg,HouseObjects,1,stim/objects/HouseObjects/sponge.png,0.5,4,0.2,-0.15,left,54,2021-02-02_08h37.50.369,premup-three_ses-01_part-01_label-phase1,3.2.4,Win32,60,left,0.907999754,4,0,4,0,1,3,1,0,240,44,1,239,,,,,,,,,,,,,,,,,,
,,1,65,,,,,,,3,2,4,stim/24.jpeg,HouseObjects,1,stim/objects/HouseObjects/wateringcan2.png,0.9,4,0.2,-0.15,left,54,2021-02-02_08h37.50.369,premup-three_ses-01_part-01_label-phase1,3.2.4,Win32,60,left,0.570999861,4,0,4,0,1,3,1,0,240,223,1,239,,,,,,,,,,,,,,,,,,
,,1,66,,,,,,,3,1,3,stim/13.jpeg,Instruments,2,stim/objects/Instruments/trombone2.png,0.9,3,-0.2,-0.15,right,54,2021-02-02_08h37.50.369,premup-three_ses-01_part-01_label-phase1,3.2.4,Win32,60,right,0.659999847,4,0,4,0,1,3,1,0,240,190,1,239,,,,,,,,,,,,,,,,,,
,,0,67,,,,,,,2,6,1,stim/61.jpeg,Instruments,2,stim/objects/Instruments/record_player2.png,0.3,1,-0.2,0.15,right,54,2021-02-02_08h37.50.369,premup-three_ses-01_part-01_label-phase1,3.2.4,Win32,60,left,0.789999962,4,0,4,0,1,3,1,0,240,152,1,239,,,,,,,,,,,,,,,,,,
,,1,68,,,,,,,2,5,2,stim/52.jpeg,Instruments,2,stim/objects/Instruments/violin.png,0.7,4,0.2,-0.15,right,54,2021-02-02_08h37.50.369,premup-three_ses-01_part-01_label-phase1,3.2.4,Win32,60,right,0.745000124,4,0,4,0,1,3,1,0,240,109,1,239,,,,,,,,,,,,,,,,,,
,,1,69,,,,,,,1,3,3,stim/33.jpeg,HouseObjects,1,stim/objects/HouseObjects/saw.png,0.5,1,-0.2,0.15,left,54,2021-02-02_08h37.50.369,premup-three_ses-01_part-01_label-phase1,3.2.4,Win32,60,left,1.072999954,4,0,4,0,1,3,1,0,240,10,1,239,,,,,,,,,,,,,,,,,,
,,0,70,,,,,,,3,1,1,stim/11.jpeg,HouseObjects,1,stim/objects/HouseObjects/sponge2.png,0.1,2,0.2,0.15,left,54,2021-02-02_08h37.50.369,premup-three_ses-01_part-01_label-phase1,3.2.4,Win32,60,right,0.60800004,4,0,4,0,1,3,1,0,240,160,1,239,,,,,,,,,,,,,,,,,,
,,1,71,,,,,,,2,5,1,stim/51.jpeg,Instruments,2,stim/objects/Instruments/tuba.png,0.7,2,0.2,0.15,right,54,2021-02-02_08h37.50.369,premup-three_ses-01_part-01_label-phase1,3.2.4,Win32,60,right,1.021999836,4,0,4,0,1,3,1,0,240,112,1,239,,,,,,,,,,,,,,,,,,
,,0,72,,,,,,,2,6,4,stim/64.jpeg,Instruments,2,stim/objects/Instruments/tambourine2.png,0.3,1,-0.2,0.15,right,54,2021-02-02_08h37.50.369,premup-three_ses-01_part-01_label-phase1,3.2.4,Win32,60,left,1.008000135,4,0,4,0,1,3,1,0,240,155,1,239,,,,,,,,,,,,,,,,,,
,,1,73,,,,,,,3,2,2,stim/22.jpeg,HouseObjects,1,stim/objects/HouseObjects/towel2.png,0.9,2,0.2,0.15,left,54,2021-02-02_08h37.50.369,premup-three_ses-01_part-01_label-phase1,3.2.4,Win32,60,left,0.593999863,4,0,4,0,1,3,1,0,240,217,1,239,,,,,,,,,,,,,,,,,,
,,1,74,,,,,,,1,3,2,stim/32.jpeg,Instruments,2,stim/objects/Instruments/saxophone.png,0.5,4,0.2,-0.15,right,54,2021-02-02_08h37.50.369,premup-three_ses-01_part-01_label-phase1,3.2.4,Win32,60,right,1.006999969,4,0,4,0,1,3,1,0,240,29,1,239,,,,,,,,,,,,,,,,,,
,,1,75,,,,,,,2,5,4,stim/54.jpeg,Instruments,2,stim/objects/Instruments/xylophone.png,0.7,1,-0.2,0.15,right,54,2021-02-02_08h37.50.369,premup-three_ses-01_part-01_label-phase1,3.2.4,Win32,60,right,1.165999889,4,0,4,0,1,3,1,0,240,119,1,239,,,,,,,,,,,,,,,,,,
,,0,76,,,,,,,1,4,4,stim/44.jpeg,Instruments,2,stim/objects/Instruments/trumpet.png,0.5,3,-0.2,-0.15,right,54,2021-02-02_08h37.50.369,premup-three_ses-01_part-01_label-phase1,3.2.4,Win32,60,left,1.027999878,4,0,4,0,1,3,1,0,240,67,1,239,,,,,,,,,,,,,,,,,,
,,1,77,,,,,,,3,2,1,stim/21.jpeg,HouseObjects,1,stim/objects/HouseObjects/thread2.png,0.9,4,0.2,-0.15,left,54,2021-02-02_08h37.50.369,premup-three_ses-01_part-01_label-phase1,3.2.4,Win32,60,left,0.612999916,4,0,4,0,1,3,1,0,240,204,1,239,,,,,,,,,,,,,,,,,,
,,0,78,,,,,,,1,4,4,stim/44.jpeg,Instruments,2,stim/objects/Instruments/trumpet.png,0.5,1,-0.2,0.15,right,54,2021-02-02_08h37.50.369,premup-three_ses-01_part-01_label-phase1,3.2.4,Win32,60,left,1.005000114,4,0,4,0,1,3,1,0,240,63,1,239,,,,,,,,,,,,,,,,,,
,,1,79,,,,,,,3,2,4,stim/24.jpeg,HouseObjects,1,stim/objects/HouseObjects/wateringcan2.png,0.9,2,0.2,0.15,left,54,2021-02-02_08h37.50.369,premup-three_ses-01_part-01_label-phase1,3.2.4,Win32,60,left,0.632999897,4,0,4,0,1,3,1,0,240,215,1,239,,,,,,,,,,,,,,,,,,
,,1,80,,,,,,,2,5,4,stim/54.jpeg,Instruments,2,stim/objects/Instruments/xylophone.png,0.7,1,-0.2,0.15,right,54,2021-02-02_08h37.50.369,premup-three_ses-01_part-01_label-phase1,3.2.4,Win32,60,right,0.780999899,4,0,4,0,1,3,1,0,240,115,1,239,,,,,,,,,,,,,,,,,,
,,0,81,,,,,,,1,3,3,stim/33.jpeg,Instruments,2,stim/objects/Instruments/speaker.png,0.5,2,0.2,0.15,right,54,2021-02-02_08h37.50.369,premup-three_ses-01_part-01_label-phase1,3.2.4,Win32,60,left,1.463999748,4,0,4,0,1,3,1,0,240,30,1,239,,,,,,,,,,,,,,,,,,
,,0,82,,,,,,,1,4,1,stim/41.jpeg,Instruments,2,stim/objects/Instruments/timbal.png,0.5,2,0.2,0.15,right,54,2021-02-02_08h37.50.369,premup-three_ses-01_part-01_label-phase1,3.2.4,Win32,60,left,0.829999924,4,0,4,0,1,3,1,0,240,76,1,239,,,,,,,,,,,,,,,,,,
,,1,83,,,,,,,3,2,4,stim/24.jpeg,HouseObjects,1,stim/objects/HouseObjects/wateringcan2.png,0.9,1,-0.2,0.15,left,54,2021-02-02_08h37.50.369,premup-three_ses-01_part-01_label-phase1,3.2.4,Win32,60,left,0.611999989,4,0,4,0,1,3,1,0,240,207,1,239,,,,,,,,,,,,,,,,,,
,,1,84,,,,,,,3,2,1,stim/21.jpeg,HouseObjects,1,stim/objects/HouseObjects/thread2.png,0.9,4,0.2,-0.15,left,54,2021-02-02_08h37.50.369,premup-three_ses-01_part-01_label-phase1,3.2.4,Win32,60,left,0.676999807,4,0,4,0,1,3,1,0,240,232,1,239,,,,,,,,,,,,,,,,,,
,,1,85,,,,,,,1,3,3,stim/33.jpeg,HouseObjects,1,stim/objects/HouseObjects/saw.png,0.5,1,-0.2,0.15,left,54,2021-02-02_08h37.50.369,premup-three_ses-01_part-01_label-phase1,3.2.4,Win32,60,left,1.271999836,4,0,4,0,1,3,1,0,240,14,1,239,,,,,,,,,,,,,,,,,,
,,1,86,,,,,,,2,5,3,stim/53.jpeg,Instruments,2,stim/objects/Instruments/vuvuzela.png,0.7,2,0.2,0.15,right,54,2021-02-02_08h37.50.369,premup-three_ses-01_part-01_label-phase1,3.2.4,Win32,60,right,1.05700016,4,0,4,0,1,3,1,0,240,114,1,239,,,,,,,,,,,,,,,,,,
,,1,87,,,,,,,1,3,4,stim/34.jpeg,Instruments,2,stim/objects/Instruments/tambourine.png,0.5,4,0.2,-0.15,right,54,2021-02-02_08h37.50.369,premup-three_ses-01_part-01_label-phase1,3.2.4,Win32,60,right,1.225999832,4,0,4,0,1,3,1,0,240,39,1,239,,,,,,,,,,,,,,,,,,
,,0,88,,,,,,,1,3,2,stim/32.jpeg,HouseObjects,1,stim/objects/HouseObjects/safetypin.png,0.5,4,0.2,-0.15,left,54,2021-02-02_08h37.50.369,premup-three_ses-01_part-01_label-phase1,3.2.4,Win32,60,right,0.835999966,4,0,4,0,1,3,1,0,240,17,1,239,,,,,,,,,,,,,,,,,,
,,1,89,,,,,,,3,1,4,stim/14.jpeg,Instruments,2,stim/objects/Instruments/trumpet2.png,0.9,3,-0.2,-0.15,right,54,2021-02-02_08h37.50.369,premup-three_ses-01_part-01_label-phase1,3.2.4,Win32,60,right,0.733999968,4,0,4,0,1,3,1,0,240,167,1,239,,,,,,,,,,,,,,,,,,
,,1,90,,,,,,,3,2,1,stim/21.jpeg,HouseObjects,1,stim/objects/HouseObjects/thread2.png,0.9,1,-0.2,0.15,left,54,2021-02-02_08h37.50.369,premup-three_ses-01_part-01_label-phase1,3.2.4,Win32,60,left,0.640000105,4,0,4,0,1,3,1,0,240,228,1,239,,,,,,,,,,,,,,,,,,
,,0,91,,,,,,,1,4,3,stim/43.jpeg,Instruments,2,stim/objects/Instruments/trombone.png,0.5,4,0.2,-0.15,right,54,2021-02-02_08h37.50.369,premup-three_ses-01_part-01_label-phase1,3.2.4,Win32,60,left,1.417999983,4,0,4,0,1,3,1,0,240,78,1,239,,,,,,,,,,,,,,,,,,
,,1,92,,,,,,,2,5,4,stim/54.jpeg,Instruments,2,stim/objects/Instruments/xylophone.png,0.7,4,0.2,-0.15,right,54,2021-02-02_08h37.50.369,premup-three_ses-01_part-01_label-phase1,3.2.4,Win32,60,right,0.884999752,4,0,4,0,1,3,1,0,240,111,1,239,,,,,,,,,,,,,,,,,,
,,0,93,,,,,,,2,6,4,stim/64.jpeg,HouseObjects,1,stim/objects/HouseObjects/scale2.png,0.7,2,0.2,0.15,left,54,2021-02-02_08h37.50.369,premup-three_ses-01_part-01_label-phase1,3.2.4,Win32,60,right,1.652999878,4,0,4,0,1,3,1,0,240,147,1,239,,,,,,,,,,,,,,,,,,
,,1,94,,,,,,,2,6,1,stim/61.jpeg,Instruments,2,stim/objects/Instruments/record_player2.png,0.3,1,-0.2,0.15,right,54,2021-02-02_08h37.50.369,premup-three_ses-01_part-01_label-phase1,3.2.4,Win32,60,right,1.089999914,4,0,4,0,1,3,1,0,240,148,1,239,,,,,,,,,,,,,,,,,,
,,0,95,,,,,,,1,3,1,stim/31.jpeg,Instruments,2,stim/objects/Instruments/record_player.png,0.5,1,-0.2,0.15,right,54,2021-02-02_08h37.50.369,premup-three_ses-01_part-01_label-phase1,3.2.4,Win32,60,,,4,0,4,0,1,3,1,0,240,20,1,239,,,,,,,,,,,,,,,,,,
,,1,96,,,,,,,3,2,3,stim/23.jpeg,HouseObjects,1,stim/objects/HouseObjects/vacuumcleaner2.png,0.9,4,0.2,-0.15,left,54,2021-02-02_08h37.50.369,premup-three_ses-01_part-01_label-phase1,3.2.4,Win32,60,left,0.589999914,4,0,4,0,1,3,1,0,240,226,1,239,,,,,,,,,,,,,,,,,,
,,0,97,,,,,,,3,2,4,stim/24.jpeg,Instruments,2,stim/objects/Instruments/xylophone2.png,0.1,3,-0.2,-0.15,right,54,2021-02-02_08h37.50.369,premup-three_ses-01_part-01_label-phase1,3.2.4,Win32,60,left,0.605999947,4,0,4,0,1,3,1,0,240,239,1,239,,,,,,,,,,,,,,,,,,
,,0,98,,,,,,,1,3,1,stim/31.jpeg,Instruments,2,stim/objects/Instruments/record_player.png,0.5,1,-0.2,0.15,right,54,2021-02-02_08h37.50.369,premup-three_ses-01_part-01_label-phase1,3.2.4,Win32,60,left,1.088999987,4,0,4,0,1,3,1,0,240,32,1,239,,,,,,,,,,,,,,,,,,
,,1,99,,,,,,,3,1,2,stim/12.jpeg,Instruments,2,stim/objects/Instruments/triangle2.png,0.9,1,-0.2,0.15,right,54,2021-02-02_08h37.50.369,premup-three_ses-01_part-01_label-phase1,3.2.4,Win32,60,right,0.973999977,4,0,4,0,1,3,1,0,240,197,1,239,,,,,,,,,,,,,,,,,,
,,0,100,,,,,,,2,5,1,stim/51.jpeg,HouseObjects,1,stim/objects/HouseObjects/thread.png,0.3,1,-0.2,0.15,left,54,2021-02-02_08h37.50.369,premup-three_ses-01_part-01_label-phase1,3.2.4,Win32,60,right,1.003999949,4,0,4,0,1,3,1,0,240,80,1,239,,,,,,,,,,,,,,,,,,
,,1,101,,,,,,,1,4,2,stim/42.jpeg,HouseObjects,1,stim/objects/HouseObjects/spraybottle.png,0.5,2,0.2,0.15,left,54,2021-02-02_08h37.50.369,premup-three_ses-01_part-01_label-phase1,3.2.4,Win32,60,left,1.147999763,4,0,4,0,1,3,1,0,240,41,1,239,,,,,,,,,,,,,,,,,,
,,1,102,,,,,,,3,1,2,stim/12.jpeg,Instruments,2,stim/objects/Instruments/triangle2.png,0.9,3,-0.2,-0.15,right,54,2021-02-02_08h37.50.369,premup-three_ses-01_part-01_label-phase1,3.2.4,Win32,60,right,0.886999846,4,0,4,0,1,3,1,0,240,177,1,239,,,,,,,,,,,,,,,,,,
,,0,103,,,,,,,1,4,2,stim/42.jpeg,Instruments,2,stim/objects/Instruments/triangle.png,0.5,2,0.2,0.15,right,54,2021-02-02_08h37.50.369,premup-three_ses-01_part-01_label-phase1,3.2.4,Win32,60,left,1.09100008,4,0,4,0,1,3,1,0,240,73,1,239,,,,,,,,,,,,,,,,,,
,,1,104,,,,,,,1,4,4,stim/44.jpeg,Instruments,2,stim/objects/Instruments/trumpet.png,0.5,3,-0.2,-0.15,right,54,2021-02-02_08h37.50.369,premup-three_ses-01_part-01_label-phase1,3.2.4,Win32,60,right,1.086999893,4,0,4,0,1,3,1,0,240,71,1,239,,,,,,,,,,,,,,,,,,
,,1,105,,,,,,,1,3,2,stim/32.jpeg,Instruments,2,stim/objects/Instruments/saxophone.png,0.5,1,-0.2,0.15,right,54,2021-02-02_08h37.50.369,premup-three_ses-01_part-01_label-phase1,3.2.4,Win32,60,right,0.983999968,4,0,4,0,1,3,1,0,240,37,1,239,,,,,,,,,,,,,,,,,,
,,0,106,,,,,,,2,5,3,stim/53.jpeg,HouseObjects,1,stim/objects/HouseObjects/vacuumcleaner.png,0.3,3,-0.2,-0.15,left,54,2021-02-02_08h37.50.369,premup-three_ses-01_part-01_label-phase1,3.2.4,Win32,60,right,0.863999844,4,0,4,0,1,3,1,0,240,82,1,239,,,,,,,,,,,,,,,,,,
,,0,107,,,,,,,2,6,1,stim/61.jpeg,HouseObjects,1,stim/objects/HouseObjects/rug2.png,0.7,3,-0.2,-0.15,left,54,2021-02-02_08h37.50.369,premup-three_ses-01_part-01_label-phase1,3.2.4,Win32,60,right,1.056999922,4,0,4,0,1,3,1,0,240,144,1,239,,,,,,,,,,,,,,,,,,
,,1,108,,,,,,,3,1,2,stim/12.jpeg,Instruments,2,stim/objects/Instruments/triangle2.png,0.9,1,-0.2,0.15,right,54,2021-02-02_08h37.50.369,premup-three_ses-01_part-01_label-phase1,3.2.4,Win32,60,right,0.788000107,4,0,4,0,1,3,1,0,240,173,1,239,,,,,,,,,,,,,,,,,,
,,1,109,,,,,,,2,5,2,stim/52.jpeg,Instruments,2,stim/objects/Instruments/violin.png,0.7,2,0.2,0.15,right,54,2021-02-02_08h37.50.369,premup-three_ses-01_part-01_label-phase1,3.2.4,Win32,60,right,0.885999918,4,0,4,0,1,3,1,0,240,117,1,239,,,,,,,,,,,,,,,,,,
,,0,110,,,,,,,2,6,2,stim/62.jpeg,HouseObjects,1,stim/objects/HouseObjects/safetypin2.png,0.7,1,-0.2,0.15,left,54,2021-02-02_08h37.50.369,premup-three_ses-01_part-01_label-phase1,3.2.4,Win32,60,right,1.029000044,4,0,4,0,1,3,1,0,240,145,1,239,,,,,,,,,,,,,,,,,,
,,1,111,,,,,,,1,4,4,stim/44.jpeg,Instruments,2,stim/objects/Instruments/trumpet.png,0.5,2,0.2,0.15,right,54,2021-02-02_08h37.50.369,premup-three_ses-01_part-01_label-phase1,3.2.4,Win32,60,right,1.290999889,4,0,4,0,1,3,1,0,240,75,1,239,,,,,,,,,,,,,,,,,,
,,1,112,,,,,,,3,2,4,stim/24.jpeg,HouseObjects,1,stim/objects/HouseObjects/wateringcan2.png,0.9,4,0.2,-0.15,left,54,2021-02-02_08h37.50.369,premup-three_ses-01_part-01_label-phase1,3.2.4,Win32,60,left,0.654999971,4,0,4,0,1,3,1,0,240,227,1,239,,,,,,,,,,,,,,,,,,
,,1,113,,,,,,,2,5,2,stim/52.jpeg,Instruments,2,stim/objects/Instruments/violin.png,0.7,3,-0.2,-0.15,right,54,2021-02-02_08h37.50.369,premup-three_ses-01_part-01_label-phase1,3.2.4,Win32,60,right,0.690999985,4,0,4,0,1,3,1,0,240,97,1,239,,,,,,,,,,,,,,,,,,
,,1,114,,,,,,,3,1,4,stim/14.jpeg,Instruments,2,stim/objects/Instruments/trumpet2.png,0.9,1,-0.2,0.15,right,54,2021-02-02_08h37.50.369,premup-three_ses-01_part-01_label-phase1,3.2.4,Win32,60,right,0.725999832,4,0,4,0,1,3,1,0,240,179,1,239,,,,,,,,,,,,,,,,,,
,,1,115,,,,,,,1,4,2,stim/42.jpeg,Instruments,2,stim/objects/Instruments/triangle.png,0.5,2,0.2,0.15,right,54,2021-02-02_08h37.50.369,premup-three_ses-01_part-01_label-phase1,3.2.4,Win32,60,right,0.906999826,4,0,4,0,1,3,1,0,240,69,1,239,,,,,,,,,,,,,,,,,,
,,1,116,,,,,,,2,5,3,stim/53.jpeg,Instruments,2,stim/objects/Instruments/vuvuzela.png,0.7,4,0.2,-0.15,right,54,2021-02-02_08h37.50.369,premup-three_ses-01_part-01_label-phase1,3.2.4,Win32,60,right,0.971999884,4,0,4,0,1,3,1,0,240,106,1,239,,,,,,,,,,,,,,,,,,
,,1,117,,,,,,,3,1,4,stim/14.jpeg,Instruments,2,stim/objects/Instruments/trumpet2.png,0.9,3,-0.2,-0.15,right,54,2021-02-02_08h37.50.369,premup-three_ses-01_part-01_label-phase1,3.2.4,Win32,60,right,0.735999823,4,0,4,0,1,3,1,0,240,183,1,239,,,,,,,,,,,,,,,,,,
,,1,118,,,,,,,3,1,3,stim/13.jpeg,Instruments,2,stim/objects/Instruments/trombone2.png,0.9,4,0.2,-0.15,right,54,2021-02-02_08h37.50.369,premup-three_ses-01_part-01_label-phase1,3.2.4,Win32,60,right,0.607999802,4,0,4,0,1,3,1,0,240,194,1,239,,,,,,,,,,,,,,,,,,
,,1,119,,,,,,,2,6,4,stim/64.jpeg,HouseObjects,1,stim/objects/HouseObjects/scale2.png,0.7,3,-0.2,-0.15,left,54,2021-02-02_08h37.50.369,premup-three_ses-01_part-01_label-phase1,3.2.4,Win32,60,left,1.072999954,4,0,4,0,1,3,1,0,240,127,1,239,,,,,,,,,,,,,,,,,,
,,1,120,,,,,,,1,4,3,stim/43.jpeg,Instruments,2,stim/objects/Instruments/trombone.png,0.5,4,0.2,-0.15,right,54,2021-02-02_08h37.50.369,premup-three_ses-01_part-01_label-phase1,3.2.4,Win32,60,right,1.508999825,4,0,4,0,1,3,1,0,240,66,1,239,,,,,,,,,,,,,,,,,,
,,1,121,,,,,,,2,5,3,stim/53.jpeg,Instruments,2,stim/objects/Instruments/vuvuzela.png,0.7,2,0.2,0.15,right,54,2021-02-02_08h37.50.369,premup-three_ses-01_part-01_label-phase1,3.2.4,Win32,60,right,0.920000076,4,0,4,0,1,3,1,0,240,94,1,239,,,,,,,,,,,,,,,,,,
,,1,122,,,,,,,3,2,2,stim/22.jpeg,HouseObjects,1,stim/objects/HouseObjects/towel2.png,0.9,3,-0.2,-0.15,left,54,2021-02-02_08h37.50.369,premup-three_ses-01_part-01_label-phase1,3.2.4,Win32,60,left,0.706999779,4,0,4,0,1,3,1,0,240,213,1,239,,,,,,,,,,,,,,,,,,
,,1,123,,,,,,,3,2,4,stim/24.jpeg,HouseObjects,1,stim/objects/HouseObjects/wateringcan2.png,0.9,4,0.2,-0.15,left,54,2021-02-02_08h37.50.369,premup-three_ses-01_part-01_label-phase1,3.2.4,Win32,60,left,0.774999857,4,0,4,0,1,3,1,0,240,203,1,239,,,,,,,,,,,,,,,,,,
,,1,124,,,,,,,3,2,3,stim/23.jpeg,HouseObjects,1,stim/objects/HouseObjects/vacuumcleaner2.png,0.9,4,0.2,-0.15,left,54,2021-02-02_08h37.50.369,premup-three_ses-01_part-01_label-phase1,3.2.4,Win32,60,left,0.68900013,4,0,4,0,1,3,1,0,240,202,1,239,,,,,,,,,,,,,,,,,,
,,1,125,,,,,,,3,2,1,stim/21.jpeg,HouseObjects,1,stim/objects/HouseObjects/thread2.png,0.9,2,0.2,0.15,left,54,2021-02-02_08h37.50.369,premup-three_ses-01_part-01_label-phase1,3.2.4,Win32,60,left,0.635999918,4,0,4,0,1,3,1,0,240,216,1,239,,,,,,,,,,,,,,,,,,
,,0,126,,,,,,,1,4,2,stim/42.jpeg,HouseObjects,1,stim/objects/HouseObjects/spraybottle.png,0.5,4,0.2,-0.15,left,54,2021-02-02_08h37.50.369,premup-three_ses-01_part-01_label-phase1,3.2.4,Win32,60,right,1.065000057,4,0,4,0,1,3,1,0,240,49,1,239,,,,,,,,,,,,,,,,,,
,,1,127,,,,,,,3,2,2,stim/22.jpeg,HouseObjects,1,stim/objects/HouseObjects/towel2.png,0.9,2,0.2,0.15,left,54,2021-02-02_08h37.50.369,premup-three_ses-01_part-01_label-phase1,3.2.4,Win32,60,left,0.628000021,4,0,4,0,1,3,1,0,240,201,1,239,,,,,,,,,,,,,,,,,,
,,1,128,,,,,,,3,2,3,stim/23.jpeg,HouseObjects,1,stim/objects/HouseObjects/vacuumcleaner2.png,0.9,3,-0.2,-0.15,left,54,2021-02-02_08h37.50.369,premup-three_ses-01_part-01_label-phase1,3.2.4,Win32,60,left,0.611000061,4,0,4,0,1,3,1,0,240,222,1,239,,,,,,,,,,,,,,,,,,
,,1,129,,,,,,,3,2,2,stim/22.jpeg,HouseObjects,1,stim/objects/HouseObjects/towel2.png,0.9,3,-0.2,-0.15,left,54,2021-02-02_08h37.50.369,premup-three_ses-01_part-01_label-phase1,3.2.4,Win32,60,left,0.627000093,4,0,4,0,1,3,1,0,240,229,1,239,,,,,,,,,,,,,,,,,,
,,0,130,,,,,,,2,6,4,stim/64.jpeg,Instruments,2,stim/objects/Instruments/tambourine2.png,0.3,4,0.2,-0.15,right,54,2021-02-02_08h37.50.369,premup-three_ses-01_part-01_label-phase1,3.2.4,Win32,60,left,0.957999945,4,0,4,0,1,3,1,0,240,159,1,239,,,,,,,,,,,,,,,,,,
,,1,131,,,,,,,2,5,3,stim/53.jpeg,Instruments,2,stim/objects/Instruments/vuvuzela.png,0.7,1,-0.2,0.15,right,54,2021-02-02_08h37.50.369,premup-three_ses-01_part-01_label-phase1,3.2.4,Win32,60,right,1.125,4,0,4,0,1,3,1,0,240,110,1,239,,,,,,,,,,,,,,,,,,
,,0,132,,,,,,,3,1,4,stim/14.jpeg,HouseObjects,1,stim/objects/HouseObjects/thermometer2.png,0.1,3,-0.2,-0.15,left,54,2021-02-02_08h37.50.369,premup-three_ses-01_part-01_label-phase1,3.2.4,Win32,60,right,0.583999872,4,0,4,0,1,3,1,0,240,163,1,239,,,,,,,,,,,,,,,,,,
,,0,133,,,,,,,3,2,2,stim/22.jpeg,Instruments,2,stim/objects/Instruments/violin2.png,0.1,4,0.2,-0.15,right,54,2021-02-02_08h37.50.369,premup-three_ses-01_part-01_label-phase1,3.2.4,Win32,60,left,0.619999886,4,0,4,0,1,3,1,0,240,237,1,239,,,,,,,,,,,,,,,,,,
