key_resp_pract.keys,key_resp_pract.rt,trial_acc,trial_index,practice_loop.thisRepN,practice_loop.thisTrialN,practice_loop.thisN,practice_loop.thisIndex,practice_loop.ran,practice_loop.order,scn_condition,scn_cat,scn_inst,scn_file,obj_cat,obj_cat_num,obj_file,trial_cond,quadrant,obj_x,obj_y,corr_ans,participant,date,expName,psychopyVersion,OS,frameRate,key_resp_trial.keys,key_resp_trial.rt,iterations.thisRepN,iterations.thisTrialN,iterations.thisN,iterations.thisIndex,iterations.ran,iterations.order,task_innerloop.thisRepN,task_innerloop.thisTrialN,task_innerloop.thisN,task_innerloop.thisIndex,task_innerloop.ran,task_innerloop.order,iteration_index,rating_acc,slider.response,slider.rt,slider_2.response,slider_2.rt,ratings.thisRepN,ratings.thisTrialN,ratings.thisN,ratings.thisIndex,ratings.ran,ratings.order,obj_cat_top,min_resp_top,max_resp_top,obj_cat_bottom,min_resp_bottom,max_resp_bottom
,,0,1,1,0,240,210,1,239,3,6,3,stim/63.jpeg,HouseObjects,1,stim/objects/HouseObjects/clothesdryingrack2.png,0.9,4,0.2,-0.15,left,55,2021-02-03_08h17.58.697,premup-three_ses-01_part-01_label-phase1,3.2.4,Win32,60,,,,,,,,,,,,,,,,,,,,,,,,,,,,,,,,
right,1.062000036,0,2,1,0,240,222,1,239,3,6,3,stim/63.jpeg,HouseObjects,1,stim/objects/HouseObjects/clothesdryingrack2.png,0.9,4,0.2,-0.15,left,55,2021-02-03_08h17.58.697,premup-three_ses-01_part-01_label-phase1,3.2.4,Win32,60,,,,,,,,,,,,,,,,,,,,,,,,,,,,,,,,
left,0.928999901,1,3,1,0,240,128,1,239,2,4,1,stim/41.jpeg,HouseObjects,1,stim/objects/HouseObjects/ashtray2.png,0.7,4,0.2,-0.15,left,55,2021-02-03_08h17.58.697,premup-three_ses-01_part-01_label-phase1,3.2.4,Win32,60,,,,,,,,,,,,,,,,,,,,,,,,,,,,,,,,
right,1.213999987,1,4,1,0,240,165,1,239,3,5,2,stim/52.jpeg,Instruments,2,stim/objects/Instruments/bassguitar2.png,0.9,4,0.2,-0.15,right,55,2021-02-03_08h17.58.697,premup-three_ses-01_part-01_label-phase1,3.2.4,Win32,60,,,,,,,,,,,,,,,,,,,,,,,,,,,,,,,,
right,0.845000029,0,5,1,0,240,137,1,239,2,4,2,stim/42.jpeg,HouseObjects,1,stim/objects/HouseObjects/ballofstring2.png,0.7,2,0.2,0.15,left,55,2021-02-03_08h17.58.697,premup-three_ses-01_part-01_label-phase1,3.2.4,Win32,60,,,,,,,,,,,,,,,,,,,,,,,,,,,,,,,,
left,0.975000143,0,6,1,0,240,102,1,239,2,3,3,stim/33.jpeg,Instruments,2,stim/objects/Instruments/cymbal.png,0.7,3,-0.2,-0.15,right,55,2021-02-03_08h17.58.697,premup-three_ses-01_part-01_label-phase1,3.2.4,Win32,60,,,,,,,,,,,,,,,,,,,,,,,,,,,,,,,,
right,0.69900012,0,7,1,0,240,141,1,239,2,4,2,stim/42.jpeg,HouseObjects,1,stim/objects/HouseObjects/ballofstring2.png,0.7,4,0.2,-0.15,left,55,2021-02-03_08h17.58.697,premup-three_ses-01_part-01_label-phase1,3.2.4,Win32,60,,,,,,,,,,,,,,,,,,,,,,,,,,,,,,,,
left,0.927000046,0,8,1,0,240,66,1,239,1,2,3,stim/23.jpeg,Instruments,2,stim/objects/Instruments/cello.png,0.5,3,-0.2,-0.15,right,55,2021-02-03_08h17.58.697,premup-three_ses-01_part-01_label-phase1,3.2.4,Win32,60,,,,,,,,,,,,,,,,,,,,,,,,,,,,,,,,
right,1.345000029,1,9,1,0,240,25,1,239,1,1,2,stim/12.jpeg,Instruments,2,stim/objects/Instruments/acousticguitar.png,0.5,2,0.2,0.15,right,55,2021-02-03_08h17.58.697,premup-three_ses-01_part-01_label-phase1,3.2.4,Win32,60,,,,,,,,,,,,,,,,,,,,,,,,,,,,,,,,
right,0.804999828,0,10,1,0,240,219,1,239,3,6,4,stim/64.jpeg,HouseObjects,1,stim/objects/HouseObjects/clothespin2.png,0.9,3,-0.2,-0.15,left,55,2021-02-03_08h17.58.697,premup-three_ses-01_part-01_label-phase1,3.2.4,Win32,60,,,,,,,,,,,,,,,,,,,,,,,,,,,,,,,,
,,0,1,,,,,,,1,1,2,stim/12.jpeg,Instruments,2,stim/objects/Instruments/acousticguitar.png,0.5,2,0.2,0.15,right,55,2021-02-03_08h17.58.697,premup-three_ses-01_part-01_label-phase1,3.2.4,Win32,60,,,4,0,4,0,1,3,1,0,240,21,1,239,,,,,,,,,,,,,,,,,,
,,0,2,,,,,,,1,2,2,stim/22.jpeg,HouseObjects,1,stim/objects/HouseObjects/blender.png,0.5,2,0.2,0.15,left,55,2021-02-03_08h17.58.697,premup-three_ses-01_part-01_label-phase1,3.2.4,Win32,60,right,1.210000038,4,0,4,0,1,3,1,0,240,49,1,239,,,,,,,,,,,,,,,,,,
,,0,3,,,,,,,3,6,1,stim/61.jpeg,HouseObjects,1,stim/objects/HouseObjects/bucket2.png,0.9,2,0.2,0.15,left,55,2021-02-03_08h17.58.697,premup-three_ses-01_part-01_label-phase1,3.2.4,Win32,60,right,0.611999989,4,0,4,0,1,3,1,0,240,208,1,239,,,,,,,,,,,,,,,,,,
,,1,4,,,,,,,2,4,1,stim/41.jpeg,HouseObjects,1,stim/objects/HouseObjects/ashtray2.png,0.7,2,0.2,0.15,left,55,2021-02-03_08h17.58.697,premup-three_ses-01_part-01_label-phase1,3.2.4,Win32,60,left,0.954999924,4,0,4,0,1,3,1,0,240,124,1,239,,,,,,,,,,,,,,,,,,
,,1,5,,,,,,,2,4,1,stim/41.jpeg,HouseObjects,1,stim/objects/HouseObjects/ashtray2.png,0.7,4,0.2,-0.15,left,55,2021-02-03_08h17.58.697,premup-three_ses-01_part-01_label-phase1,3.2.4,Win32,60,left,1.065999985,4,0,4,0,1,3,1,0,240,128,1,239,,,,,,,,,,,,,,,,,,
,,0,6,,,,,,,2,3,2,stim/32.jpeg,Instruments,2,stim/objects/Instruments/cornet.png,0.7,1,-0.2,0.15,right,55,2021-02-03_08h17.58.697,premup-three_ses-01_part-01_label-phase1,3.2.4,Win32,60,left,1.29399991,4,0,4,0,1,3,1,0,240,93,1,239,,,,,,,,,,,,,,,,,,
,,1,7,,,,,,,3,6,3,stim/63.jpeg,HouseObjects,1,stim/objects/HouseObjects/clothesdryingrack2.png,0.9,4,0.2,-0.15,left,55,2021-02-03_08h17.58.697,premup-three_ses-01_part-01_label-phase1,3.2.4,Win32,60,left,1.335999966,4,0,4,0,1,3,1,0,240,222,1,239,,,,,,,,,,,,,,,,,,
,,1,8,,,,,,,3,6,3,stim/63.jpeg,HouseObjects,1,stim/objects/HouseObjects/clothesdryingrack2.png,0.9,4,0.2,-0.15,left,55,2021-02-03_08h17.58.697,premup-three_ses-01_part-01_label-phase1,3.2.4,Win32,60,left,0.605000019,4,0,4,0,1,3,1,0,240,210,1,239,,,,,,,,,,,,,,,,,,
,,1,9,,,,,,,2,4,1,stim/41.jpeg,HouseObjects,1,stim/objects/HouseObjects/ashtray2.png,0.7,4,0.2,-0.15,left,55,2021-02-03_08h17.58.697,premup-three_ses-01_part-01_label-phase1,3.2.4,Win32,60,left,0.655999899,4,0,4,0,1,3,1,0,240,144,1,239,,,,,,,,,,,,,,,,,,
,,1,10,,,,,,,3,5,4,stim/54.jpeg,Instruments,2,stim/objects/Instruments/chime2.png,0.9,1,-0.2,0.15,right,55,2021-02-03_08h17.58.697,premup-three_ses-01_part-01_label-phase1,3.2.4,Win32,60,right,1.228999853,4,0,4,0,1,3,1,0,240,175,1,239,,,,,,,,,,,,,,,,,,
,,1,11,,,,,,,2,4,4,stim/44.jpeg,HouseObjects,1,stim/objects/HouseObjects/basket2.png,0.7,3,-0.2,-0.15,left,55,2021-02-03_08h17.58.697,premup-three_ses-01_part-01_label-phase1,3.2.4,Win32,60,left,0.711000204,4,0,4,0,1,3,1,0,240,131,1,239,,,,,,,,,,,,,,,,,,
,,0,12,,,,,,,1,2,2,stim/22.jpeg,HouseObjects,1,stim/objects/HouseObjects/blender.png,0.5,3,-0.2,-0.15,left,55,2021-02-03_08h17.58.697,premup-three_ses-01_part-01_label-phase1,3.2.4,Win32,60,right,1.082000017,4,0,4,0,1,3,1,0,240,57,1,239,,,,,,,,,,,,,,,,,,
,,0,13,,,,,,,2,4,1,stim/41.jpeg,Instruments,2,stim/objects/Instruments/accordion2.png,0.3,3,-0.2,-0.15,right,55,2021-02-03_08h17.58.697,premup-three_ses-01_part-01_label-phase1,3.2.4,Win32,60,left,0.892999887,4,0,4,0,1,3,1,0,240,152,1,239,,,,,,,,,,,,,,,,,,
,,0,14,,,,,,,3,5,4,stim/54.jpeg,Instruments,2,stim/objects/Instruments/chime2.png,0.9,2,0.2,0.15,right,55,2021-02-03_08h17.58.697,premup-three_ses-01_part-01_label-phase1,3.2.4,Win32,60,left,0.730999947,4,0,4,0,1,3,1,0,240,171,1,239,,,,,,,,,,,,,,,,,,
,,1,15,,,,,,,2,4,4,stim/44.jpeg,HouseObjects,1,stim/objects/HouseObjects/basket2.png,0.7,2,0.2,0.15,left,55,2021-02-03_08h17.58.697,premup-three_ses-01_part-01_label-phase1,3.2.4,Win32,60,left,1.213999987,4,0,4,0,1,3,1,0,240,139,1,239,,,,,,,,,,,,,,,,,,
,,0,16,,,,,,,2,4,1,stim/41.jpeg,Instruments,2,stim/objects/Instruments/accordion2.png,0.3,2,0.2,0.15,right,55,2021-02-03_08h17.58.697,premup-three_ses-01_part-01_label-phase1,3.2.4,Win32,60,left,0.61500001,4,0,4,0,1,3,1,0,240,148,1,239,,,,,,,,,,,,,,,,,,
,,0,17,,,,,,,1,1,3,stim/13.jpeg,HouseObjects,1,stim/objects/HouseObjects/barbecuelighter.png,0.5,4,0.2,-0.15,left,55,2021-02-03_08h17.58.697,premup-three_ses-01_part-01_label-phase1,3.2.4,Win32,60,right,0.976999998,4,0,4,0,1,3,1,0,240,10,1,239,,,,,,,,,,,,,,,,,,
,,1,18,,,,,,,3,6,3,stim/63.jpeg,HouseObjects,1,stim/objects/HouseObjects/clothesdryingrack2.png,0.9,2,0.2,0.15,left,55,2021-02-03_08h17.58.697,premup-three_ses-01_part-01_label-phase1,3.2.4,Win32,60,left,0.700000048,4,0,4,0,1,3,1,0,240,202,1,239,,,,,,,,,,,,,,,,,,
,,1,19,,,,,,,2,4,2,stim/42.jpeg,HouseObjects,1,stim/objects/HouseObjects/ballofstring2.png,0.7,2,0.2,0.15,left,55,2021-02-03_08h17.58.697,premup-three_ses-01_part-01_label-phase1,3.2.4,Win32,60,left,0.559999943,4,0,4,0,1,3,1,0,240,129,1,239,,,,,,,,,,,,,,,,,,
,,1,20,,,,,,,2,3,3,stim/33.jpeg,HouseObjects,1,stim/objects/HouseObjects/clothesdryingrack.png,0.3,3,-0.2,-0.15,left,55,2021-02-03_08h17.58.697,premup-three_ses-01_part-01_label-phase1,3.2.4,Win32,60,left,0.594000101,4,0,4,0,1,3,1,0,240,90,1,239,,,,,,,,,,,,,,,,,,
,,1,21,,,,,,,2,4,3,stim/43.jpeg,HouseObjects,1,stim/objects/HouseObjects/barbecuelighter2.png,0.7,4,0.2,-0.15,left,55,2021-02-03_08h17.58.697,premup-three_ses-01_part-01_label-phase1,3.2.4,Win32,60,left,1.546999931,4,0,4,0,1,3,1,0,240,146,1,239,,,,,,,,,,,,,,,,,,
,,0,22,,,,,,,3,6,2,stim/62.jpeg,HouseObjects,1,stim/objects/HouseObjects/clock2.png,0.9,2,0.2,0.15,left,55,2021-02-03_08h17.58.697,premup-three_ses-01_part-01_label-phase1,3.2.4,Win32,60,right,0.769000053,4,0,4,0,1,3,1,0,240,221,1,239,,,,,,,,,,,,,,,,,,
,,0,23,,,,,,,1,1,2,stim/12.jpeg,Instruments,2,stim/objects/Instruments/acousticguitar.png,0.5,3,-0.2,-0.15,right,55,2021-02-03_08h17.58.697,premup-three_ses-01_part-01_label-phase1,3.2.4,Win32,60,left,0.728000164,4,0,4,0,1,3,1,0,240,29,1,239,,,,,,,,,,,,,,,,,,
,,1,24,,,,,,,1,1,4,stim/14.jpeg,HouseObjects,1,stim/objects/HouseObjects/basket.png,0.5,4,0.2,-0.15,left,55,2021-02-03_08h17.58.697,premup-three_ses-01_part-01_label-phase1,3.2.4,Win32,60,left,1.506000042,4,0,4,0,1,3,1,0,240,3,1,239,,,,,,,,,,,,,,,,,,
,,0,25,,,,,,,3,6,2,stim/62.jpeg,HouseObjects,1,stim/objects/HouseObjects/clock2.png,0.9,4,0.2,-0.15,left,55,2021-02-03_08h17.58.697,premup-three_ses-01_part-01_label-phase1,3.2.4,Win32,60,,,4,0,4,0,1,3,1,0,240,201,1,239,,,,,,,,,,,,,,,,,,
,,1,26,,,,,,,2,4,1,stim/41.jpeg,HouseObjects,1,stim/objects/HouseObjects/ashtray2.png,0.7,2,0.2,0.15,left,55,2021-02-03_08h17.58.697,premup-three_ses-01_part-01_label-phase1,3.2.4,Win32,60,left,0.623000145,4,0,4,0,1,3,1,0,240,136,1,239,,,,,,,,,,,,,,,,,,
,,0,27,,,,,,,2,3,2,stim/32.jpeg,HouseObjects,1,stim/objects/HouseObjects/clock.png,0.3,4,0.2,-0.15,left,55,2021-02-03_08h17.58.697,premup-three_ses-01_part-01_label-phase1,3.2.4,Win32,60,right,0.926000118,4,0,4,0,1,3,1,0,240,89,1,239,,,,,,,,,,,,,,,,,,
,,1,28,,,,,,,3,6,2,stim/62.jpeg,HouseObjects,1,stim/objects/HouseObjects/clock2.png,0.9,3,-0.2,-0.15,left,55,2021-02-03_08h17.58.697,premup-three_ses-01_part-01_label-phase1,3.2.4,Win32,60,left,0.39199996,4,0,4,0,1,3,1,0,240,229,1,239,,,,,,,,,,,,,,,,,,
,,0,29,,,,,,,3,5,3,stim/53.jpeg,Instruments,2,stim/objects/Instruments/cello2.png,0.9,1,-0.2,0.15,right,55,2021-02-03_08h17.58.697,premup-three_ses-01_part-01_label-phase1,3.2.4,Win32,60,left,0.345000029,4,0,4,0,1,3,1,0,240,198,1,239,,,,,,,,,,,,,,,,,,
,,1,30,,,,,,,2,3,1,stim/31.jpeg,HouseObjects,1,stim/objects/HouseObjects/bucket.png,0.3,1,-0.2,0.15,left,55,2021-02-03_08h17.58.697,premup-three_ses-01_part-01_label-phase1,3.2.4,Win32,60,left,0.66899991,4,0,4,0,1,3,1,0,240,88,1,239,,,,,,,,,,,,,,,,,,
,,1,31,,,,,,,3,5,3,stim/53.jpeg,Instruments,2,stim/objects/Instruments/cello2.png,0.9,2,0.2,0.15,right,55,2021-02-03_08h17.58.697,premup-three_ses-01_part-01_label-phase1,3.2.4,Win32,60,right,0.454999924,4,0,4,0,1,3,1,0,240,186,1,239,,,,,,,,,,,,,,,,,,
,,0,32,,,,,,,2,3,4,stim/34.jpeg,Instruments,2,stim/objects/Instruments/doublebass.png,0.7,3,-0.2,-0.15,right,55,2021-02-03_08h17.58.697,premup-three_ses-01_part-01_label-phase1,3.2.4,Win32,60,left,0.464999914,4,0,4,0,1,3,1,0,240,111,1,239,,,,,,,,,,,,,,,,,,
,,1,33,,,,,,,3,5,3,stim/53.jpeg,HouseObjects,1,stim/objects/HouseObjects/bottle2.png,0.1,2,0.2,0.15,left,55,2021-02-03_08h17.58.697,premup-three_ses-01_part-01_label-phase1,3.2.4,Win32,60,left,0.862999916,4,0,4,0,1,3,1,0,240,162,1,239,,,,,,,,,,,,,,,,,,
,,0,34,,,,,,,3,6,1,stim/61.jpeg,HouseObjects,1,stim/objects/HouseObjects/bucket2.png,0.9,4,0.2,-0.15,left,55,2021-02-03_08h17.58.697,premup-three_ses-01_part-01_label-phase1,3.2.4,Win32,60,,,4,0,4,0,1,3,1,0,240,232,1,239,,,,,,,,,,,,,,,,,,
,,0,35,,,,,,,1,2,2,stim/22.jpeg,Instruments,2,stim/objects/Instruments/bassguitar.png,0.5,1,-0.2,0.15,right,55,2021-02-03_08h17.58.697,premup-three_ses-01_part-01_label-phase1,3.2.4,Win32,60,left,0.632999897,4,0,4,0,1,3,1,0,240,69,1,239,,,,,,,,,,,,,,,,,,
,,0,36,,,,,,,3,6,3,stim/63.jpeg,Instruments,2,stim/objects/Instruments/cymbal2.png,0.1,4,0.2,-0.15,right,55,2021-02-03_08h17.58.697,premup-three_ses-01_part-01_label-phase1,3.2.4,Win32,60,left,0.74000001,4,0,4,0,1,3,1,0,240,238,1,239,,,,,,,,,,,,,,,,,,
,,0,37,,,,,,,1,2,4,stim/24.jpeg,HouseObjects,1,stim/objects/HouseObjects/broom.png,0.5,3,-0.2,-0.15,left,55,2021-02-03_08h17.58.697,premup-three_ses-01_part-01_label-phase1,3.2.4,Win32,60,right,0.740999937,4,0,4,0,1,3,1,0,240,47,1,239,,,,,,,,,,,,,,,,,,
,,1,38,,,,,,,3,5,1,stim/51.jpeg,Instruments,2,stim/objects/Instruments/bassdrum2.png,0.9,1,-0.2,0.15,right,55,2021-02-03_08h17.58.697,premup-three_ses-01_part-01_label-phase1,3.2.4,Win32,60,right,0.884000063,4,0,4,0,1,3,1,0,240,172,1,239,,,,,,,,,,,,,,,,,,
,,1,39,,,,,,,3,5,1,stim/51.jpeg,Instruments,2,stim/objects/Instruments/bassdrum2.png,0.9,3,-0.2,-0.15,right,55,2021-02-03_08h17.58.697,premup-three_ses-01_part-01_label-phase1,3.2.4,Win32,60,right,0.558000088,4,0,4,0,1,3,1,0,240,192,1,239,,,,,,,,,,,,,,,,,,
,,1,40,,,,,,,3,5,2,stim/52.jpeg,Instruments,2,stim/objects/Instruments/bassguitar2.png,0.9,3,-0.2,-0.15,right,55,2021-02-03_08h17.58.697,premup-three_ses-01_part-01_label-phase1,3.2.4,Win32,60,right,0.471000195,4,0,4,0,1,3,1,0,240,193,1,239,,,,,,,,,,,,,,,,,,
,,0,41,,,,,,,1,1,3,stim/13.jpeg,Instruments,2,stim/objects/Instruments/balalaika.png,0.5,2,0.2,0.15,right,55,2021-02-03_08h17.58.697,premup-three_ses-01_part-01_label-phase1,3.2.4,Win32,60,left,0.794999838,4,0,4,0,1,3,1,0,240,22,1,239,,,,,,,,,,,,,,,,,,
,,1,42,,,,,,,2,3,3,stim/33.jpeg,Instruments,2,stim/objects/Instruments/cymbal.png,0.7,2,0.2,0.15,right,55,2021-02-03_08h17.58.697,premup-three_ses-01_part-01_label-phase1,3.2.4,Win32,60,right,0.873000145,4,0,4,0,1,3,1,0,240,106,1,239,,,,,,,,,,,,,,,,,,
,,0,43,,,,,,,1,1,2,stim/12.jpeg,HouseObjects,1,stim/objects/HouseObjects/ballofstring.png,0.5,4,0.2,-0.15,left,55,2021-02-03_08h17.58.697,premup-three_ses-01_part-01_label-phase1,3.2.4,Win32,60,right,0.940000057,4,0,4,0,1,3,1,0,240,17,1,239,,,,,,,,,,,,,,,,,,
,,1,44,,,,,,,2,4,2,stim/42.jpeg,Instruments,2,stim/objects/Instruments/acousticguitar2.png,0.3,4,0.2,-0.15,right,55,2021-02-03_08h17.58.697,premup-three_ses-01_part-01_label-phase1,3.2.4,Win32,60,right,0.30099988,4,0,4,0,1,3,1,0,240,149,1,239,,,,,,,,,,,,,,,,,,
,,1,45,,,,,,,1,1,3,stim/13.jpeg,Instruments,2,stim/objects/Instruments/balalaika.png,0.5,2,0.2,0.15,right,55,2021-02-03_08h17.58.697,premup-three_ses-01_part-01_label-phase1,3.2.4,Win32,60,right,0.670000076,4,0,4,0,1,3,1,0,240,30,1,239,,,,,,,,,,,,,,,,,,
,,0,46,,,,,,,1,1,1,stim/11.jpeg,HouseObjects,1,stim/objects/HouseObjects/ashtray.png,0.5,2,0.2,0.15,left,55,2021-02-03_08h17.58.697,premup-three_ses-01_part-01_label-phase1,3.2.4,Win32,60,right,0.669000149,4,0,4,0,1,3,1,0,240,8,1,239,,,,,,,,,,,,,,,,,,
,,0,47,,,,,,,1,2,2,stim/22.jpeg,HouseObjects,1,stim/objects/HouseObjects/blender.png,0.5,4,0.2,-0.15,left,55,2021-02-03_08h17.58.697,premup-three_ses-01_part-01_label-phase1,3.2.4,Win32,60,right,0.970000029,4,0,4,0,1,3,1,0,240,53,1,239,,,,,,,,,,,,,,,,,,
,,0,48,,,,,,,3,6,2,stim/62.jpeg,Instruments,2,stim/objects/Instruments/cornet2.png,0.1,1,-0.2,0.15,right,55,2021-02-03_08h17.58.697,premup-three_ses-01_part-01_label-phase1,3.2.4,Win32,60,left,0.621000051,4,0,4,0,1,3,1,0,240,237,1,239,,,,,,,,,,,,,,,,,,
,,1,49,,,,,,,2,4,2,stim/42.jpeg,HouseObjects,1,stim/objects/HouseObjects/ballofstring2.png,0.7,3,-0.2,-0.15,left,55,2021-02-03_08h17.58.697,premup-three_ses-01_part-01_label-phase1,3.2.4,Win32,60,left,0.695000172,4,0,4,0,1,3,1,0,240,145,1,239,,,,,,,,,,,,,,,,,,
,,0,50,,,,,,,2,4,2,stim/42.jpeg,Instruments,2,stim/objects/Instruments/acousticguitar2.png,0.3,2,0.2,0.15,right,55,2021-02-03_08h17.58.697,premup-three_ses-01_part-01_label-phase1,3.2.4,Win32,60,left,1.463000059,4,0,4,0,1,3,1,0,240,153,1,239,,,,,,,,,,,,,,,,,,
,,0,51,,,,,,,2,4,3,stim/43.jpeg,HouseObjects,1,stim/objects/HouseObjects/barbecuelighter2.png,0.7,2,0.2,0.15,left,55,2021-02-03_08h17.58.697,premup-three_ses-01_part-01_label-phase1,3.2.4,Win32,60,right,1.42200017,4,0,4,0,1,3,1,0,240,122,1,239,,,,,,,,,,,,,,,,,,
,,0,52,,,,,,,1,2,3,stim/23.jpeg,HouseObjects,1,stim/objects/HouseObjects/bottle.png,0.5,3,-0.2,-0.15,left,55,2021-02-03_08h17.58.697,premup-three_ses-01_part-01_label-phase1,3.2.4,Win32,60,right,0.478000164,4,0,4,0,1,3,1,0,240,50,1,239,,,,,,,,,,,,,,,,,,
,,1,53,,,,,,,2,4,4,stim/44.jpeg,Instruments,2,stim/objects/Instruments/banjo2.png,0.3,4,0.2,-0.15,right,55,2021-02-03_08h17.58.697,premup-three_ses-01_part-01_label-phase1,3.2.4,Win32,60,right,1.64199996,4,0,4,0,1,3,1,0,240,159,1,239,,,,,,,,,,,,,,,,,,
,,0,54,,,,,,,2,3,2,stim/32.jpeg,HouseObjects,1,stim/objects/HouseObjects/clock.png,0.3,3,-0.2,-0.15,left,55,2021-02-03_08h17.58.697,premup-three_ses-01_part-01_label-phase1,3.2.4,Win32,60,right,1.340999842,4,0,4,0,1,3,1,0,240,85,1,239,,,,,,,,,,,,,,,,,,
,,0,55,,,,,,,2,3,4,stim/34.jpeg,Instruments,2,stim/objects/Instruments/doublebass.png,0.7,4,0.2,-0.15,right,55,2021-02-03_08h17.58.697,premup-three_ses-01_part-01_label-phase1,3.2.4,Win32,60,left,0.868000031,4,0,4,0,1,3,1,0,240,115,1,239,,,,,,,,,,,,,,,,,,
,,0,56,,,,,,,1,2,2,stim/22.jpeg,HouseObjects,1,stim/objects/HouseObjects/blender.png,0.5,2,0.2,0.15,left,55,2021-02-03_08h17.58.697,premup-three_ses-01_part-01_label-phase1,3.2.4,Win32,60,right,1.151000023,4,0,4,0,1,3,1,0,240,45,1,239,,,,,,,,,,,,,,,,,,
,,1,57,,,,,,,3,6,1,stim/61.jpeg,HouseObjects,1,stim/objects/HouseObjects/bucket2.png,0.9,1,-0.2,0.15,left,55,2021-02-03_08h17.58.697,premup-three_ses-01_part-01_label-phase1,3.2.4,Win32,60,left,1.114000082,4,0,4,0,1,3,1,0,240,216,1,239,,,,,,,,,,,,,,,,,,
,,1,58,,,,,,,3,5,1,stim/51.jpeg,Instruments,2,stim/objects/Instruments/bassdrum2.png,0.9,1,-0.2,0.15,right,55,2021-02-03_08h17.58.697,premup-three_ses-01_part-01_label-phase1,3.2.4,Win32,60,right,1.049000025,4,0,4,0,1,3,1,0,240,184,1,239,,,,,,,,,,,,,,,,,,
,,0,59,,,,,,,2,3,3,stim/33.jpeg,HouseObjects,1,stim/objects/HouseObjects/clothesdryingrack.png,0.3,1,-0.2,0.15,left,55,2021-02-03_08h17.58.697,premup-three_ses-01_part-01_label-phase1,3.2.4,Win32,60,right,0.947999954,4,0,4,0,1,3,1,0,240,86,1,239,,,,,,,,,,,,,,,,,,
,,1,60,,,,,,,3,5,3,stim/53.jpeg,Instruments,2,stim/objects/Instruments/cello2.png,0.9,2,0.2,0.15,right,55,2021-02-03_08h17.58.697,premup-three_ses-01_part-01_label-phase1,3.2.4,Win32,60,right,1.409999847,4,0,4,0,1,3,1,0,240,178,1,239,,,,,,,,,,,,,,,,,,
,,0,61,,,,,,,1,1,1,stim/11.jpeg,Instruments,2,stim/objects/Instruments/accordion.png,0.5,3,-0.2,-0.15,right,55,2021-02-03_08h17.58.697,premup-three_ses-01_part-01_label-phase1,3.2.4,Win32,60,left,1.184000015,4,0,4,0,1,3,1,0,240,20,1,239,,,,,,,,,,,,,,,,,,
,,0,62,,,,,,,2,3,2,stim/32.jpeg,HouseObjects,1,stim/objects/HouseObjects/clock.png,0.3,2,0.2,0.15,left,55,2021-02-03_08h17.58.697,premup-three_ses-01_part-01_label-phase1,3.2.4,Win32,60,,,4,0,4,0,1,3,1,0,240,81,1,239,,,,,,,,,,,,,,,,,,
,,1,63,,,,,,,2,3,4,stim/34.jpeg,HouseObjects,1,stim/objects/HouseObjects/clothespin.png,0.3,1,-0.2,0.15,left,55,2021-02-03_08h17.58.697,premup-three_ses-01_part-01_label-phase1,3.2.4,Win32,60,left,1.198999882,4,0,4,0,1,3,1,0,240,83,1,239,,,,,,,,,,,,,,,,,,
,,0,64,,,,,,,3,6,2,stim/62.jpeg,HouseObjects,1,stim/objects/HouseObjects/clock2.png,0.9,4,0.2,-0.15,left,55,2021-02-03_08h17.58.697,premup-three_ses-01_part-01_label-phase1,3.2.4,Win32,60,right,0.976999998,4,0,4,0,1,3,1,0,240,217,1,239,,,,,,,,,,,,,,,,,,
,,1,65,,,,,,,3,6,3,stim/63.jpeg,HouseObjects,1,stim/objects/HouseObjects/clothesdryingrack2.png,0.9,4,0.2,-0.15,left,55,2021-02-03_08h17.58.697,premup-three_ses-01_part-01_label-phase1,3.2.4,Win32,60,left,0.915999889,4,0,4,0,1,3,1,0,240,234,1,239,,,,,,,,,,,,,,,,,,
,,1,66,,,,,,,3,6,1,stim/61.jpeg,HouseObjects,1,stim/objects/HouseObjects/bucket2.png,0.9,2,0.2,0.15,left,55,2021-02-03_08h17.58.697,premup-three_ses-01_part-01_label-phase1,3.2.4,Win32,60,left,0.593999863,4,0,4,0,1,3,1,0,240,212,1,239,,,,,,,,,,,,,,,,,,
,,0,67,,,,,,,3,6,1,stim/61.jpeg,Instruments,2,stim/objects/Instruments/clarinet2.png,0.1,4,0.2,-0.15,right,55,2021-02-03_08h17.58.697,premup-three_ses-01_part-01_label-phase1,3.2.4,Win32,60,left,0.45600009,4,0,4,0,1,3,1,0,240,236,1,239,,,,,,,,,,,,,,,,,,
,,0,68,,,,,,,2,4,4,stim/44.jpeg,Instruments,2,stim/objects/Instruments/banjo2.png,0.3,1,-0.2,0.15,right,55,2021-02-03_08h17.58.697,premup-three_ses-01_part-01_label-phase1,3.2.4,Win32,60,,,4,0,4,0,1,3,1,0,240,151,1,239,,,,,,,,,,,,,,,,,,
,,0,69,,,,,,,2,4,4,stim/44.jpeg,HouseObjects,1,stim/objects/HouseObjects/basket2.png,0.7,1,-0.2,0.15,left,55,2021-02-03_08h17.58.697,premup-three_ses-01_part-01_label-phase1,3.2.4,Win32,60,right,0.549999952,4,0,4,0,1,3,1,0,240,123,1,239,,,,,,,,,,,,,,,,,,
,,0,70,,,,,,,3,6,4,stim/64.jpeg,HouseObjects,1,stim/objects/HouseObjects/clothespin2.png,0.9,3,-0.2,-0.15,left,55,2021-02-03_08h17.58.697,premup-three_ses-01_part-01_label-phase1,3.2.4,Win32,60,right,1.434000015,4,0,4,0,1,3,1,0,240,231,1,239,,,,,,,,,,,,,,,,,,
,,0,71,,,,,,,3,5,2,stim/52.jpeg,Instruments,2,stim/objects/Instruments/bassguitar2.png,0.9,1,-0.2,0.15,right,55,2021-02-03_08h17.58.697,premup-three_ses-01_part-01_label-phase1,3.2.4,Win32,60,left,0.578000069,4,0,4,0,1,3,1,0,240,173,1,239,,,,,,,,,,,,,,,,,,
,,0,72,,,,,,,2,4,1,stim/41.jpeg,Instruments,2,stim/objects/Instruments/accordion2.png,0.3,1,-0.2,0.15,right,55,2021-02-03_08h17.58.697,premup-three_ses-01_part-01_label-phase1,3.2.4,Win32,60,left,0.412000179,4,0,4,0,1,3,1,0,240,156,1,239,,,,,,,,,,,,,,,,,,
,,0,73,,,,,,,1,1,3,stim/13.jpeg,HouseObjects,1,stim/objects/HouseObjects/barbecuelighter.png,0.5,3,-0.2,-0.15,left,55,2021-02-03_08h17.58.697,premup-three_ses-01_part-01_label-phase1,3.2.4,Win32,60,right,0.511000156,4,0,4,0,1,3,1,0,240,2,1,239,,,,,,,,,,,,,,,,,,
,,0,74,,,,,,,2,4,4,stim/44.jpeg,HouseObjects,1,stim/objects/HouseObjects/basket2.png,0.7,3,-0.2,-0.15,left,55,2021-02-03_08h17.58.697,premup-three_ses-01_part-01_label-phase1,3.2.4,Win32,60,right,0.31400013,4,0,4,0,1,3,1,0,240,147,1,239,,,,,,,,,,,,,,,,,,
,,0,75,,,,,,,3,5,1,stim/51.jpeg,Instruments,2,stim/objects/Instruments/bassdrum2.png,0.9,3,-0.2,-0.15,right,55,2021-02-03_08h17.58.697,premup-three_ses-01_part-01_label-phase1,3.2.4,Win32,60,left,0.407000065,4,0,4,0,1,3,1,0,240,196,1,239,,,,,,,,,,,,,,,,,,
,,0,76,,,,,,,2,4,2,stim/42.jpeg,HouseObjects,1,stim/objects/HouseObjects/ballofstring2.png,0.7,4,0.2,-0.15,left,55,2021-02-03_08h17.58.697,premup-three_ses-01_part-01_label-phase1,3.2.4,Win32,60,right,0.450999975,4,0,4,0,1,3,1,0,240,141,1,239,,,,,,,,,,,,,,,,,,
,,0,77,,,,,,,2,4,1,stim/41.jpeg,HouseObjects,1,stim/objects/HouseObjects/ashtray2.png,0.7,2,0.2,0.15,left,55,2021-02-03_08h17.58.697,premup-three_ses-01_part-01_label-phase1,3.2.4,Win32,60,right,0.960000038,4,0,4,0,1,3,1,0,240,140,1,239,,,,,,,,,,,,,,,,,,
,,0,78,,,,,,,3,5,2,stim/52.jpeg,Instruments,2,stim/objects/Instruments/bassguitar2.png,0.9,3,-0.2,-0.15,right,55,2021-02-03_08h17.58.697,premup-three_ses-01_part-01_label-phase1,3.2.4,Win32,60,left,0.215000153,4,0,4,0,1,3,1,0,240,185,1,239,,,,,,,,,,,,,,,,,,
,,1,79,,,,,,,1,1,2,stim/12.jpeg,HouseObjects,1,stim/objects/HouseObjects/ballofstring.png,0.5,3,-0.2,-0.15,left,55,2021-02-03_08h17.58.697,premup-three_ses-01_part-01_label-phase1,3.2.4,Win32,60,left,0.633999825,4,0,4,0,1,3,1,0,240,9,1,239,,,,,,,,,,,,,,,,,,
,,1,80,,,,,,,1,1,2,stim/12.jpeg,Instruments,2,stim/objects/Instruments/acousticguitar.png,0.5,2,0.2,0.15,right,55,2021-02-03_08h17.58.697,premup-three_ses-01_part-01_label-phase1,3.2.4,Win32,60,right,0.802000046,4,0,4,0,1,3,1,0,240,25,1,239,,,,,,,,,,,,,,,,,,
,,0,81,,,,,,,2,3,4,stim/34.jpeg,Instruments,2,stim/objects/Instruments/doublebass.png,0.7,3,-0.2,-0.15,right,55,2021-02-03_08h17.58.697,premup-three_ses-01_part-01_label-phase1,3.2.4,Win32,60,left,1.742000103,4,0,4,0,1,3,1,0,240,103,1,239,,,,,,,,,,,,,,,,,,
,,0,82,,,,,,,1,1,2,stim/12.jpeg,Instruments,2,stim/objects/Instruments/acousticguitar.png,0.5,3,-0.2,-0.15,right,55,2021-02-03_08h17.58.697,premup-three_ses-01_part-01_label-phase1,3.2.4,Win32,60,,,4,0,4,0,1,3,1,0,240,33,1,239,,,,,,,,,,,,,,,,,,
,,1,83,,,,,,,1,2,1,stim/21.jpeg,HouseObjects,1,stim/objects/HouseObjects/bleachbottle.png,0.5,1,-0.2,0.15,left,55,2021-02-03_08h17.58.697,premup-three_ses-01_part-01_label-phase1,3.2.4,Win32,60,left,1.006999969,4,0,4,0,1,3,1,0,240,40,1,239,,,,,,,,,,,,,,,,,,
,,0,84,,,,,,,1,2,1,stim/21.jpeg,HouseObjects,1,stim/objects/HouseObjects/bleachbottle.png,0.5,3,-0.2,-0.15,left,55,2021-02-03_08h17.58.697,premup-three_ses-01_part-01_label-phase1,3.2.4,Win32,60,right,0.758999825,4,0,4,0,1,3,1,0,240,56,1,239,,,,,,,,,,,,,,,,,,
,,0,85,,,,,,,3,5,4,stim/54.jpeg,Instruments,2,stim/objects/Instruments/chime2.png,0.9,3,-0.2,-0.15,right,55,2021-02-03_08h17.58.697,premup-three_ses-01_part-01_label-phase1,3.2.4,Win32,60,left,0.475000143,4,0,4,0,1,3,1,0,240,199,1,239,,,,,,,,,,,,,,,,,,
,,1,86,,,,,,,1,1,4,stim/14.jpeg,HouseObjects,1,stim/objects/HouseObjects/basket.png,0.5,3,-0.2,-0.15,left,55,2021-02-03_08h17.58.697,premup-three_ses-01_part-01_label-phase1,3.2.4,Win32,60,left,1.349999905,4,0,4,0,1,3,1,0,240,11,1,239,,,,,,,,,,,,,,,,,,
,,0,87,,,,,,,2,3,3,stim/33.jpeg,HouseObjects,1,stim/objects/HouseObjects/clothesdryingrack.png,0.3,4,0.2,-0.15,left,55,2021-02-03_08h17.58.697,premup-three_ses-01_part-01_label-phase1,3.2.4,Win32,60,right,0.932999849,4,0,4,0,1,3,1,0,240,82,1,239,,,,,,,,,,,,,,,,,,
,,0,88,,,,,,,1,1,4,stim/14.jpeg,Instruments,2,stim/objects/Instruments/banjo.png,0.5,1,-0.2,0.15,right,55,2021-02-03_08h17.58.697,premup-three_ses-01_part-01_label-phase1,3.2.4,Win32,60,left,0.549999952,4,0,4,0,1,3,1,0,240,27,1,239,,,,,,,,,,,,,,,,,,
,,0,89,,,,,,,3,6,4,stim/64.jpeg,HouseObjects,1,stim/objects/HouseObjects/clothespin2.png,0.9,1,-0.2,0.15,left,55,2021-02-03_08h17.58.697,premup-three_ses-01_part-01_label-phase1,3.2.4,Win32,60,right,0.817000151,4,0,4,0,1,3,1,0,240,207,1,239,,,,,,,,,,,,,,,,,,
,,0,90,,,,,,,1,2,1,stim/21.jpeg,Instruments,2,stim/objects/Instruments/bassdrum.png,0.5,2,0.2,0.15,right,55,2021-02-03_08h17.58.697,premup-three_ses-01_part-01_label-phase1,3.2.4,Win32,60,left,1.118999958,4,0,4,0,1,3,1,0,240,72,1,239,,,,,,,,,,,,,,,,,,
,,0,91,,,,,,,3,6,4,stim/64.jpeg,HouseObjects,1,stim/objects/HouseObjects/clothespin2.png,0.9,1,-0.2,0.15,left,55,2021-02-03_08h17.58.697,premup-three_ses-01_part-01_label-phase1,3.2.4,Win32,60,,,4,0,4,0,1,3,1,0,240,235,1,239,,,,,,,,,,,,,,,,,,
,,0,92,,,,,,,2,3,4,stim/34.jpeg,Instruments,2,stim/objects/Instruments/doublebass.png,0.7,3,-0.2,-0.15,right,55,2021-02-03_08h17.58.697,premup-three_ses-01_part-01_label-phase1,3.2.4,Win32,60,left,0.761000156,4,0,4,0,1,3,1,0,240,107,1,239,,,,,,,,,,,,,,,,,,
,,1,93,,,,,,,1,2,2,stim/22.jpeg,Instruments,2,stim/objects/Instruments/bassguitar.png,0.5,1,-0.2,0.15,right,55,2021-02-03_08h17.58.697,premup-three_ses-01_part-01_label-phase1,3.2.4,Win32,60,right,0.500999928,4,0,4,0,1,3,1,0,240,77,1,239,,,,,,,,,,,,,,,,,,
,,0,94,,,,,,,3,6,3,stim/63.jpeg,HouseObjects,1,stim/objects/HouseObjects/clothesdryingrack2.png,0.9,2,0.2,0.15,left,55,2021-02-03_08h17.58.697,premup-three_ses-01_part-01_label-phase1,3.2.4,Win32,60,right,0.703000069,4,0,4,0,1,3,1,0,240,206,1,239,,,,,,,,,,,,,,,,,,
,,1,95,,,,,,,1,2,3,stim/23.jpeg,Instruments,2,stim/objects/Instruments/cello.png,0.5,4,0.2,-0.15,right,55,2021-02-03_08h17.58.697,premup-three_ses-01_part-01_label-phase1,3.2.4,Win32,60,right,0.350000143,4,0,4,0,1,3,1,0,240,62,1,239,,,,,,,,,,,,,,,,,,
,,1,96,,,,,,,1,1,4,stim/14.jpeg,Instruments,2,stim/objects/Instruments/banjo.png,0.5,2,0.2,0.15,right,55,2021-02-03_08h17.58.697,premup-three_ses-01_part-01_label-phase1,3.2.4,Win32,60,right,0.535000086,4,0,4,0,1,3,1,0,240,35,1,239,,,,,,,,,,,,,,,,,,
,,1,97,,,,,,,2,3,1,stim/31.jpeg,Instruments,2,stim/objects/Instruments/clarinet.png,0.7,3,-0.2,-0.15,right,55,2021-02-03_08h17.58.697,premup-three_ses-01_part-01_label-phase1,3.2.4,Win32,60,right,0.582999945,4,0,4,0,1,3,1,0,240,112,1,239,,,,,,,,,,,,,,,,,,
,,1,98,,,,,,,1,1,2,stim/12.jpeg,Instruments,2,stim/objects/Instruments/acousticguitar.png,0.5,4,0.2,-0.15,right,55,2021-02-03_08h17.58.697,premup-three_ses-01_part-01_label-phase1,3.2.4,Win32,60,right,0.368000031,4,0,4,0,1,3,1,0,240,37,1,239,,,,,,,,,,,,,,,,,,
,,0,99,,,,,,,2,4,2,stim/42.jpeg,HouseObjects,1,stim/objects/HouseObjects/ballofstring2.png,0.7,2,0.2,0.15,left,55,2021-02-03_08h17.58.697,premup-three_ses-01_part-01_label-phase1,3.2.4,Win32,60,right,0.59100008,4,0,4,0,1,3,1,0,240,133,1,239,,,,,,,,,,,,,,,,,,
,,0,100,,,,,,,1,2,4,stim/24.jpeg,HouseObjects,1,stim/objects/HouseObjects/broom.png,0.5,4,0.2,-0.15,left,55,2021-02-03_08h17.58.697,premup-three_ses-01_part-01_label-phase1,3.2.4,Win32,60,right,0.887000084,4,0,4,0,1,3,1,0,240,43,1,239,,,,,,,,,,,,,,,,,,
,,0,101,,,,,,,1,1,3,stim/13.jpeg,Instruments,2,stim/objects/Instruments/balalaika.png,0.5,3,-0.2,-0.15,right,55,2021-02-03_08h17.58.697,premup-three_ses-01_part-01_label-phase1,3.2.4,Win32,60,left,1.180999994,4,0,4,0,1,3,1,0,240,38,1,239,,,,,,,,,,,,,,,,,,
,,0,102,,,,,,,2,3,4,stim/34.jpeg,Instruments,2,stim/objects/Instruments/doublebass.png,0.7,1,-0.2,0.15,right,55,2021-02-03_08h17.58.697,premup-three_ses-01_part-01_label-phase1,3.2.4,Win32,60,left,0.713999987,4,0,4,0,1,3,1,0,240,95,1,239,,,,,,,,,,,,,,,,,,
,,0,103,,,,,,,3,6,1,stim/61.jpeg,HouseObjects,1,stim/objects/HouseObjects/bucket2.png,0.9,2,0.2,0.15,left,55,2021-02-03_08h17.58.697,premup-three_ses-01_part-01_label-phase1,3.2.4,Win32,60,right,1.116000175,4,0,4,0,1,3,1,0,240,224,1,239,,,,,,,,,,,,,,,,,,
,,0,104,,,,,,,3,6,4,stim/64.jpeg,Instruments,2,stim/objects/Instruments/doublebass2.png,0.1,3,-0.2,-0.15,right,55,2021-02-03_08h17.58.697,premup-three_ses-01_part-01_label-phase1,3.2.4,Win32,60,left,1.443000078,4,0,4,0,1,3,1,0,240,239,1,239,,,,,,,,,,,,,,,,,,
,,0,105,,,,,,,3,6,1,stim/61.jpeg,HouseObjects,1,stim/objects/HouseObjects/bucket2.png,0.9,2,0.2,0.15,left,55,2021-02-03_08h17.58.697,premup-three_ses-01_part-01_label-phase1,3.2.4,Win32,60,right,0.881000042,4,0,4,0,1,3,1,0,240,200,1,239,,,,,,,,,,,,,,,,,,
,,1,106,,,,,,,1,2,2,stim/22.jpeg,HouseObjects,1,stim/objects/HouseObjects/blender.png,0.5,3,-0.2,-0.15,left,55,2021-02-03_08h17.58.697,premup-three_ses-01_part-01_label-phase1,3.2.4,Win32,60,left,0.523000002,4,0,4,0,1,3,1,0,240,41,1,239,,,,,,,,,,,,,,,,,,
,,1,107,,,,,,,1,2,1,stim/21.jpeg,HouseObjects,1,stim/objects/HouseObjects/bleachbottle.png,0.5,1,-0.2,0.15,left,55,2021-02-03_08h17.58.697,premup-three_ses-01_part-01_label-phase1,3.2.4,Win32,60,left,0.669999838,4,0,4,0,1,3,1,0,240,52,1,239,,,,,,,,,,,,,,,,,,
,,1,108,,,,,,,1,2,3,stim/23.jpeg,HouseObjects,1,stim/objects/HouseObjects/bottle.png,0.5,1,-0.2,0.15,left,55,2021-02-03_08h17.58.697,premup-three_ses-01_part-01_label-phase1,3.2.4,Win32,60,left,0.916000128,4,0,4,0,1,3,1,0,240,46,1,239,,,,,,,,,,,,,,,,,,
,,0,109,,,,,,,2,3,2,stim/32.jpeg,Instruments,2,stim/objects/Instruments/cornet.png,0.7,2,0.2,0.15,right,55,2021-02-03_08h17.58.697,premup-three_ses-01_part-01_label-phase1,3.2.4,Win32,60,left,1.376000166,4,0,4,0,1,3,1,0,240,101,1,239,,,,,,,,,,,,,,,,,,
,,1,110,,,,,,,3,5,2,stim/52.jpeg,Instruments,2,stim/objects/Instruments/bassguitar2.png,0.9,4,0.2,-0.15,right,55,2021-02-03_08h17.58.697,premup-three_ses-01_part-01_label-phase1,3.2.4,Win32,60,right,1.190000057,4,0,4,0,1,3,1,0,240,165,1,239,,,,,,,,,,,,,,,,,,
,,1,111,,,,,,,1,1,1,stim/11.jpeg,Instruments,2,stim/objects/Instruments/accordion.png,0.5,4,0.2,-0.15,right,55,2021-02-03_08h17.58.697,premup-three_ses-01_part-01_label-phase1,3.2.4,Win32,60,right,0.900000095,4,0,4,0,1,3,1,0,240,24,1,239,,,,,,,,,,,,,,,,,,
,,1,112,,,,,,,2,3,2,stim/32.jpeg,Instruments,2,stim/objects/Instruments/cornet.png,0.7,2,0.2,0.15,right,55,2021-02-03_08h17.58.697,premup-three_ses-01_part-01_label-phase1,3.2.4,Win32,60,right,0.710999966,4,0,4,0,1,3,1,0,240,97,1,239,,,,,,,,,,,,,,,,,,
,,1,113,,,,,,,3,5,1,stim/51.jpeg,Instruments,2,stim/objects/Instruments/bassdrum2.png,0.9,1,-0.2,0.15,right,55,2021-02-03_08h17.58.697,premup-three_ses-01_part-01_label-phase1,3.2.4,Win32,60,right,1.180999994,4,0,4,0,1,3,1,0,240,168,1,239,,,,,,,,,,,,,,,,,,
,,0,114,,,,,,,2,4,2,stim/42.jpeg,HouseObjects,1,stim/objects/HouseObjects/ballofstring2.png,0.7,3,-0.2,-0.15,left,55,2021-02-03_08h17.58.697,premup-three_ses-01_part-01_label-phase1,3.2.4,Win32,60,right,1.082000017,4,0,4,0,1,3,1,0,240,121,1,239,,,,,,,,,,,,,,,,,,
,,1,115,,,,,,,2,4,3,stim/43.jpeg,HouseObjects,1,stim/objects/HouseObjects/barbecuelighter2.png,0.7,2,0.2,0.15,left,55,2021-02-03_08h17.58.697,premup-three_ses-01_part-01_label-phase1,3.2.4,Win32,60,left,0.782000065,4,0,4,0,1,3,1,0,240,126,1,239,,,,,,,,,,,,,,,,,,
,,0,116,,,,,,,2,3,1,stim/31.jpeg,Instruments,2,stim/objects/Instruments/clarinet.png,0.7,1,-0.2,0.15,right,55,2021-02-03_08h17.58.697,premup-three_ses-01_part-01_label-phase1,3.2.4,Win32,60,left,0.559999943,4,0,4,0,1,3,1,0,240,92,1,239,,,,,,,,,,,,,,,,,,
,,0,117,,,,,,,1,2,2,stim/22.jpeg,Instruments,2,stim/objects/Instruments/bassguitar.png,0.5,2,0.2,0.15,right,55,2021-02-03_08h17.58.697,premup-three_ses-01_part-01_label-phase1,3.2.4,Win32,60,left,0.7099998,4,0,4,0,1,3,1,0,240,73,1,239,,,,,,,,,,,,,,,,,,
,,1,118,,,,,,,1,1,3,stim/13.jpeg,Instruments,2,stim/objects/Instruments/balalaika.png,0.5,4,0.2,-0.15,right,55,2021-02-03_08h17.58.697,premup-three_ses-01_part-01_label-phase1,3.2.4,Win32,60,right,0.427000046,4,0,4,0,1,3,1,0,240,34,1,239,,,,,,,,,,,,,,,,,,
,,0,119,,,,,,,2,4,2,stim/42.jpeg,HouseObjects,1,stim/objects/HouseObjects/ballofstring2.png,0.7,2,0.2,0.15,left,55,2021-02-03_08h17.58.697,premup-three_ses-01_part-01_label-phase1,3.2.4,Win32,60,right,0.680000067,4,0,4,0,1,3,1,0,240,137,1,239,,,,,,,,,,,,,,,,,,
,,0,120,,,,,,,3,5,4,stim/54.jpeg,Instruments,2,stim/objects/Instruments/chime2.png,0.9,4,0.2,-0.15,right,55,2021-02-03_08h17.58.697,premup-three_ses-01_part-01_label-phase1,3.2.4,Win32,60,left,1.032000065,4,0,4,0,1,3,1,0,240,167,1,239,,,,,,,,,,,,,,,,,,
,,0,121,,,,,,,2,4,3,stim/43.jpeg,Instruments,2,stim/objects/Instruments/balalaika2.png,0.3,3,-0.2,-0.15,right,55,2021-02-03_08h17.58.697,premup-three_ses-01_part-01_label-phase1,3.2.4,Win32,60,left,0.725000143,4,0,4,0,1,3,1,0,240,150,1,239,,,,,,,,,,,,,,,,,,
,,1,122,,,,,,,2,3,1,stim/31.jpeg,Instruments,2,stim/objects/Instruments/clarinet.png,0.7,4,0.2,-0.15,right,55,2021-02-03_08h17.58.697,premup-three_ses-01_part-01_label-phase1,3.2.4,Win32,60,right,0.454999924,4,0,4,0,1,3,1,0,240,108,1,239,,,,,,,,,,,,,,,,,,
,,1,123,,,,,,,2,3,1,stim/31.jpeg,Instruments,2,stim/objects/Instruments/clarinet.png,0.7,1,-0.2,0.15,right,55,2021-02-03_08h17.58.697,premup-three_ses-01_part-01_label-phase1,3.2.4,Win32,60,right,0.480999947,4,0,4,0,1,3,1,0,240,104,1,239,,,,,,,,,,,,,,,,,,
,,1,124,,,,,,,1,2,4,stim/24.jpeg,Instruments,2,stim/objects/Instruments/chime.png,0.5,3,-0.2,-0.15,right,55,2021-02-03_08h17.58.697,premup-three_ses-01_part-01_label-phase1,3.2.4,Win32,60,right,0.720999956,4,0,4,0,1,3,1,0,240,67,1,239,,,,,,,,,,,,,,,,,,
,,1,125,,,,,,,3,5,3,stim/53.jpeg,Instruments,2,stim/objects/Instruments/cello2.png,0.9,1,-0.2,0.15,right,55,2021-02-03_08h17.58.697,premup-three_ses-01_part-01_label-phase1,3.2.4,Win32,60,right,0.76699996,4,0,4,0,1,3,1,0,240,190,1,239,,,,,,,,,,,,,,,,,,
,,0,126,,,,,,,1,1,2,stim/12.jpeg,HouseObjects,1,stim/objects/HouseObjects/ballofstring.png,0.5,2,0.2,0.15,left,55,2021-02-03_08h17.58.697,premup-three_ses-01_part-01_label-phase1,3.2.4,Win32,60,right,0.644000053,4,0,4,0,1,3,1,0,240,5,1,239,,,,,,,,,,,,,,,,,,
,,1,127,,,,,,,2,3,4,stim/34.jpeg,Instruments,2,stim/objects/Instruments/doublebass.png,0.7,4,0.2,-0.15,right,55,2021-02-03_08h17.58.697,premup-three_ses-01_part-01_label-phase1,3.2.4,Win32,60,right,0.549999952,4,0,4,0,1,3,1,0,240,119,1,239,,,,,,,,,,,,,,,,,,
,,0,128,,,,,,,3,5,3,stim/53.jpeg,Instruments,2,stim/objects/Instruments/cello2.png,0.9,1,-0.2,0.15,right,55,2021-02-03_08h17.58.697,premup-three_ses-01_part-01_label-phase1,3.2.4,Win32,60,left,0.832999945,4,0,4,0,1,3,1,0,240,174,1,239,,,,,,,,,,,,,,,,,,
,,0,129,,,,,,,1,2,3,stim/23.jpeg,Instruments,2,stim/objects/Instruments/cello.png,0.5,3,-0.2,-0.15,right,55,2021-02-03_08h17.58.697,premup-three_ses-01_part-01_label-phase1,3.2.4,Win32,60,left,0.851000071,4,0,4,0,1,3,1,0,240,66,1,239,,,,,,,,,,,,,,,,,,
,,0,130,,,,,,,3,6,4,stim/64.jpeg,HouseObjects,1,stim/objects/HouseObjects/clothespin2.png,0.9,4,0.2,-0.15,left,55,2021-02-03_08h17.58.697,premup-three_ses-01_part-01_label-phase1,3.2.4,Win32,60,right,0.506999969,4,0,4,0,1,3,1,0,240,203,1,239,,,,,,,,,,,,,,,,,,
,,1,131,,,,,,,3,6,3,stim/63.jpeg,HouseObjects,1,stim/objects/HouseObjects/clothesdryingrack2.png,0.9,3,-0.2,-0.15,left,55,2021-02-03_08h17.58.697,premup-three_ses-01_part-01_label-phase1,3.2.4,Win32,60,left,0.748000145,4,0,4,0,1,3,1,0,240,230,1,239,,,,,,,,,,,,,,,,,,
,,0,132,,,,,,,1,1,4,stim/14.jpeg,Instruments,2,stim/objects/Instruments/banjo.png,0.5,1,-0.2,0.15,right,55,2021-02-03_08h17.58.697,premup-three_ses-01_part-01_label-phase1,3.2.4,Win32,60,left,1.599999905,4,0,4,0,1,3,1,0,240,23,1,239,,,,,,,,,,,,,,,,,,
,,1,133,,,,,,,2,3,3,stim/33.jpeg,Instruments,2,stim/objects/Instruments/cymbal.png,0.7,1,-0.2,0.15,right,55,2021-02-03_08h17.58.697,premup-three_ses-01_part-01_label-phase1,3.2.4,Win32,60,right,1.268999815,4,0,4,0,1,3,1,0,240,114,1,239,,,,,,,,,,,,,,,,,,
,,0,134,,,,,,,1,1,1,stim/11.jpeg,HouseObjects,1,stim/objects/HouseObjects/ashtray.png,0.5,2,0.2,0.15,left,55,2021-02-03_08h17.58.697,premup-three_ses-01_part-01_label-phase1,3.2.4,Win32,60,right,0.799000025,4,0,4,0,1,3,1,0,240,0,1,239,,,,,,,,,,,,,,,,,,
,,0,135,,,,,,,2,3,3,stim/33.jpeg,Instruments,2,stim/objects/Instruments/cymbal.png,0.7,2,0.2,0.15,right,55,2021-02-03_08h17.58.697,premup-three_ses-01_part-01_label-phase1,3.2.4,Win32,60,left,1.740999937,4,0,4,0,1,3,1,0,240,110,1,239,,,,,,,,,,,,,,,,,,
,,1,136,,,,,,,1,1,3,stim/13.jpeg,HouseObjects,1,stim/objects/HouseObjects/barbecuelighter.png,0.5,1,-0.2,0.15,left,55,2021-02-03_08h17.58.697,premup-three_ses-01_part-01_label-phase1,3.2.4,Win32,60,left,1.09800005,4,0,4,0,1,3,1,0,240,14,1,239,,,,,,,,,,,,,,,,,,
,,1,137,,,,,,,3,6,4,stim/64.jpeg,HouseObjects,1,stim/objects/HouseObjects/clothespin2.png,0.9,3,-0.2,-0.15,left,55,2021-02-03_08h17.58.697,premup-three_ses-01_part-01_label-phase1,3.2.4,Win32,60,left,1.256999969,4,0,4,0,1,3,1,0,240,211,1,239,,,,,,,,,,,,,,,,,,
,,0,138,,,,,,,2,4,3,stim/43.jpeg,Instruments,2,stim/objects/Instruments/balalaika2.png,0.3,1,-0.2,0.15,right,55,2021-02-03_08h17.58.697,premup-three_ses-01_part-01_label-phase1,3.2.4,Win32,60,left,0.787999868,4,0,4,0,1,3,1,0,240,154,1,239,,,,,,,,,,,,,,,,,,
,,0,139,,,,,,,1,2,1,stim/21.jpeg,Instruments,2,stim/objects/Instruments/bassdrum.png,0.5,1,-0.2,0.15,right,55,2021-02-03_08h17.58.697,premup-three_ses-01_part-01_label-phase1,3.2.4,Win32,60,left,0.700000048,4,0,4,0,1,3,1,0,240,76,1,239,,,,,,,,,,,,,,,,,,
,,0,140,,,,,,,2,3,3,stim/33.jpeg,Instruments,2,stim/objects/Instruments/cymbal.png,0.7,3,-0.2,-0.15,right,55,2021-02-03_08h17.58.697,premup-three_ses-01_part-01_label-phase1,3.2.4,Win32,60,left,0.684999943,4,0,4,0,1,3,1,0,240,102,1,239,,,,,,,,,,,,,,,,,,
,,0,141,,,,,,,2,4,4,stim/44.jpeg,HouseObjects,1,stim/objects/HouseObjects/basket2.png,0.7,3,-0.2,-0.15,left,55,2021-02-03_08h17.58.697,premup-three_ses-01_part-01_label-phase1,3.2.4,Win32,60,right,0.373000145,4,0,4,0,1,3,1,0,240,127,1,239,,,,,,,,,,,,,,,,,,
,,1,142,,,,,,,1,1,1,stim/11.jpeg,Instruments,2,stim/objects/Instruments/accordion.png,0.5,3,-0.2,-0.15,right,55,2021-02-03_08h17.58.697,premup-three_ses-01_part-01_label-phase1,3.2.4,Win32,60,right,0.698999882,4,0,4,0,1,3,1,0,240,36,1,239,,,,,,,,,,,,,,,,,,
,,0,143,,,,,,,2,3,1,stim/31.jpeg,HouseObjects,1,stim/objects/HouseObjects/bucket.png,0.3,2,0.2,0.15,left,55,2021-02-03_08h17.58.697,premup-three_ses-01_part-01_label-phase1,3.2.4,Win32,60,right,0.84800005,4,0,4,0,1,3,1,0,240,84,1,239,,,,,,,,,,,,,,,,,,
,,1,144,,,,,,,1,2,1,stim/21.jpeg,Instruments,2,stim/objects/Instruments/bassdrum.png,0.5,1,-0.2,0.15,right,55,2021-02-03_08h17.58.697,premup-three_ses-01_part-01_label-phase1,3.2.4,Win32,60,right,0.687000036,4,0,4,0,1,3,1,0,240,64,1,239,,,,,,,,,,,,,,,,,,
,,0,145,,,,,,,2,4,3,stim/43.jpeg,HouseObjects,1,stim/objects/HouseObjects/barbecuelighter2.png,0.7,4,0.2,-0.15,left,55,2021-02-03_08h17.58.697,premup-three_ses-01_part-01_label-phase1,3.2.4,Win32,60,right,1.026000023,4,0,4,0,1,3,1,0,240,134,1,239,,,,,,,,,,,,,,,,,,
,,0,146,,,,,,,1,2,3,stim/23.jpeg,HouseObjects,1,stim/objects/HouseObjects/bottle.png,0.5,1,-0.2,0.15,left,55,2021-02-03_08h17.58.697,premup-three_ses-01_part-01_label-phase1,3.2.4,Win32,60,right,0.470000029,4,0,4,0,1,3,1,0,240,58,1,239,,,,,,,,,,,,,,,,,,
,,0,147,,,,,,,2,3,3,stim/33.jpeg,Instruments,2,stim/objects/Instruments/cymbal.png,0.7,1,-0.2,0.15,right,55,2021-02-03_08h17.58.697,premup-three_ses-01_part-01_label-phase1,3.2.4,Win32,60,left,0.903000116,4,0,4,0,1,3,1,0,240,94,1,239,,,,,,,,,,,,,,,,,,
,,1,148,,,,,,,1,2,4,stim/24.jpeg,Instruments,2,stim/objects/Instruments/chime.png,0.5,4,0.2,-0.15,right,55,2021-02-03_08h17.58.697,premup-three_ses-01_part-01_label-phase1,3.2.4,Win32,60,right,0.820000172,4,0,4,0,1,3,1,0,240,63,1,239,,,,,,,,,,,,,,,,,,
,,0,149,,,,,,,1,2,4,stim/24.jpeg,HouseObjects,1,stim/objects/HouseObjects/broom.png,0.5,2,0.2,0.15,left,55,2021-02-03_08h17.58.697,premup-three_ses-01_part-01_label-phase1,3.2.4,Win32,60,right,1.011000156,4,0,4,0,1,3,1,0,240,59,1,239,,,,,,,,,,,,,,,,,,
,,0,150,,,,,,,3,6,2,stim/62.jpeg,HouseObjects,1,stim/objects/HouseObjects/clock2.png,0.9,1,-0.2,0.15,left,55,2021-02-03_08h17.58.697,premup-three_ses-01_part-01_label-phase1,3.2.4,Win32,60,right,0.51699996,4,0,4,0,1,3,1,0,240,233,1,239,,,,,,,,,,,,,,,,,,
,,0,151,,,,,,,1,1,1,stim/11.jpeg,Instruments,2,stim/objects/Instruments/accordion.png,0.5,3,-0.2,-0.15,right,55,2021-02-03_08h17.58.697,premup-three_ses-01_part-01_label-phase1,3.2.4,Win32,60,left,0.812999964,4,0,4,0,1,3,1,0,240,28,1,239,,,,,,,,,,,,,,,,,,
,,1,152,,,,,,,3,6,3,stim/63.jpeg,HouseObjects,1,stim/objects/HouseObjects/clothesdryingrack2.png,0.9,1,-0.2,0.15,left,55,2021-02-03_08h17.58.697,premup-three_ses-01_part-01_label-phase1,3.2.4,Win32,60,left,0.559000015,4,0,4,0,1,3,1,0,240,226,1,239,,,,,,,,,,,,,,,,,,
,,0,153,,,,,,,2,4,1,stim/41.jpeg,HouseObjects,1,stim/objects/HouseObjects/ashtray2.png,0.7,4,0.2,-0.15,left,55,2021-02-03_08h17.58.697,premup-three_ses-01_part-01_label-phase1,3.2.4,Win32,60,right,0.664999962,4,0,4,0,1,3,1,0,240,132,1,239,,,,,,,,,,,,,,,,,,
,,0,154,,,,,,,3,6,4,stim/64.jpeg,HouseObjects,1,stim/objects/HouseObjects/clothespin2.png,0.9,2,0.2,0.15,left,55,2021-02-03_08h17.58.697,premup-three_ses-01_part-01_label-phase1,3.2.4,Win32,60,right,0.791000128,4,0,4,0,1,3,1,0,240,223,1,239,,,,,,,,,,,,,,,,,,
,,0,155,,,,,,,2,3,3,stim/33.jpeg,Instruments,2,stim/objects/Instruments/cymbal.png,0.7,3,-0.2,-0.15,right,55,2021-02-03_08h17.58.697,premup-three_ses-01_part-01_label-phase1,3.2.4,Win32,60,left,0.663000107,4,0,4,0,1,3,1,0,240,98,1,239,,,,,,,,,,,,,,,,,,
,,1,156,,,,,,,2,4,1,stim/41.jpeg,HouseObjects,1,stim/objects/HouseObjects/ashtray2.png,0.7,2,0.2,0.15,left,55,2021-02-03_08h17.58.697,premup-three_ses-01_part-01_label-phase1,3.2.4,Win32,60,left,0.883999825,4,0,4,0,1,3,1,0,240,120,1,239,,,,,,,,,,,,,,,,,,
,,0,157,,,,,,,3,6,4,stim/64.jpeg,HouseObjects,1,stim/objects/HouseObjects/clothespin2.png,0.9,1,-0.2,0.15,left,55,2021-02-03_08h17.58.697,premup-three_ses-01_part-01_label-phase1,3.2.4,Win32,60,right,1.028000116,4,0,4,0,1,3,1,0,240,215,1,239,,,,,,,,,,,,,,,,,,
,,1,158,,,,,,,3,6,2,stim/62.jpeg,HouseObjects,1,stim/objects/HouseObjects/clock2.png,0.9,1,-0.2,0.15,left,55,2021-02-03_08h17.58.697,premup-three_ses-01_part-01_label-phase1,3.2.4,Win32,60,left,0.930999994,4,0,4,0,1,3,1,0,240,209,1,239,,,,,,,,,,,,,,,,,,
,,1,159,,,,,,,1,1,4,stim/14.jpeg,Instruments,2,stim/objects/Instruments/banjo.png,0.5,3,-0.2,-0.15,right,55,2021-02-03_08h17.58.697,premup-three_ses-01_part-01_label-phase1,3.2.4,Win32,60,right,0.976999998,4,0,4,0,1,3,1,0,240,39,1,239,,,,,,,,,,,,,,,,,,
,,1,160,,,,,,,3,6,4,stim/64.jpeg,HouseObjects,1,stim/objects/HouseObjects/clothespin2.png,0.9,4,0.2,-0.15,left,55,2021-02-03_08h17.58.697,premup-three_ses-01_part-01_label-phase1,3.2.4,Win32,60,left,0.779999971,4,0,4,0,1,3,1,0,240,227,1,239,,,,,,,,,,,,,,,,,,
,,1,161,,,,,,,3,5,4,stim/54.jpeg,Instruments,2,stim/objects/Instruments/chime2.png,0.9,3,-0.2,-0.15,right,55,2021-02-03_08h17.58.697,premup-three_ses-01_part-01_label-phase1,3.2.4,Win32,60,right,0.934999943,4,0,4,0,1,3,1,0,240,183,1,239,,,,,,,,,,,,,,,,,,
,,0,162,,,,,,,3,5,2,stim/52.jpeg,Instruments,2,stim/objects/Instruments/bassguitar2.png,0.9,3,-0.2,-0.15,right,55,2021-02-03_08h17.58.697,premup-three_ses-01_part-01_label-phase1,3.2.4,Win32,60,left,0.610000134,4,0,4,0,1,3,1,0,240,169,1,239,,,,,,,,,,,,,,,,,,
,,1,163,,,,,,,3,5,1,stim/51.jpeg,Instruments,2,stim/objects/Instruments/bassdrum2.png,0.9,4,0.2,-0.15,right,55,2021-02-03_08h17.58.697,premup-three_ses-01_part-01_label-phase1,3.2.4,Win32,60,right,1,4,0,4,0,1,3,1,0,240,176,1,239,,,,,,,,,,,,,,,,,,
,,1,164,,,,,,,3,5,2,stim/52.jpeg,Instruments,2,stim/objects/Instruments/bassguitar2.png,0.9,3,-0.2,-0.15,right,55,2021-02-03_08h17.58.697,premup-three_ses-01_part-01_label-phase1,3.2.4,Win32,60,right,0.542000055,4,0,4,0,1,3,1,0,240,177,1,239,,,,,,,,,,,,,,,,,,
,,1,165,,,,,,,2,3,1,stim/31.jpeg,HouseObjects,1,stim/objects/HouseObjects/bucket.png,0.3,3,-0.2,-0.15,left,55,2021-02-03_08h17.58.697,premup-three_ses-01_part-01_label-phase1,3.2.4,Win32,60,left,0.89199996,4,0,4,0,1,3,1,0,240,80,1,239,,,,,,,,,,,,,,,,,,
,,0,166,,,,,,,1,1,1,stim/11.jpeg,HouseObjects,1,stim/objects/HouseObjects/ashtray.png,0.5,4,0.2,-0.15,left,55,2021-02-03_08h17.58.697,premup-three_ses-01_part-01_label-phase1,3.2.4,Win32,60,right,1.549999952,4,0,4,0,1,3,1,0,240,12,1,239,,,,,,,,,,,,,,,,,,
,,0,167,,,,,,,2,4,4,stim/44.jpeg,HouseObjects,1,stim/objects/HouseObjects/basket2.png,0.7,4,0.2,-0.15,left,55,2021-02-03_08h17.58.697,premup-three_ses-01_part-01_label-phase1,3.2.4,Win32,60,right,1.43200016,4,0,4,0,1,3,1,0,240,135,1,239,,,,,,,,,,,,,,,,,,
,,1,168,,,,,,,2,4,2,stim/42.jpeg,Instruments,2,stim/objects/Instruments/acousticguitar2.png,0.3,3,-0.2,-0.15,right,55,2021-02-03_08h17.58.697,premup-three_ses-01_part-01_label-phase1,3.2.4,Win32,60,right,1.196000099,4,0,4,0,1,3,1,0,240,157,1,239,,,,,,,,,,,,,,,,,,
,,0,169,,,,,,,2,4,3,stim/43.jpeg,HouseObjects,1,stim/objects/HouseObjects/barbecuelighter2.png,0.7,4,0.2,-0.15,left,55,2021-02-03_08h17.58.697,premup-three_ses-01_part-01_label-phase1,3.2.4,Win32,60,right,0.736000061,4,0,4,0,1,3,1,0,240,142,1,239,,,,,,,,,,,,,,,,,,
,,0,170,,,,,,,1,2,3,stim/23.jpeg,Instruments,2,stim/objects/Instruments/cello.png,0.5,2,0.2,0.15,right,55,2021-02-03_08h17.58.697,premup-three_ses-01_part-01_label-phase1,3.2.4,Win32,60,left,1.247999907,4,0,4,0,1,3,1,0,240,78,1,239,,,,,,,,,,,,,,,,,,
,,1,171,,,,,,,1,1,3,stim/13.jpeg,HouseObjects,1,stim/objects/HouseObjects/barbecuelighter.png,0.5,3,-0.2,-0.15,left,55,2021-02-03_08h17.58.697,premup-three_ses-01_part-01_label-phase1,3.2.4,Win32,60,left,0.680000067,4,0,4,0,1,3,1,0,240,18,1,239,,,,,,,,,,,,,,,,,,
,,1,172,,,,,,,2,3,4,stim/34.jpeg,HouseObjects,1,stim/objects/HouseObjects/clothespin.png,0.3,1,-0.2,0.15,left,55,2021-02-03_08h17.58.697,premup-three_ses-01_part-01_label-phase1,3.2.4,Win32,60,left,1.219000101,4,0,4,0,1,3,1,0,240,87,1,239,,,,,,,,,,,,,,,,,,
,,0,173,,,,,,,3,6,4,stim/64.jpeg,HouseObjects,1,stim/objects/HouseObjects/clothespin2.png,0.9,3,-0.2,-0.15,left,55,2021-02-03_08h17.58.697,premup-three_ses-01_part-01_label-phase1,3.2.4,Win32,60,right,0.899999857,4,0,4,0,1,3,1,0,240,219,1,239,,,,,,,,,,,,,,,,,,
,,0,174,,,,,,,1,1,1,stim/11.jpeg,HouseObjects,1,stim/objects/HouseObjects/ashtray.png,0.5,2,0.2,0.15,left,55,2021-02-03_08h17.58.697,premup-three_ses-01_part-01_label-phase1,3.2.4,Win32,60,right,0.878000021,4,0,4,0,1,3,1,0,240,4,1,239,,,,,,,,,,,,,,,,,,
,,1,175,,,,,,,1,1,1,stim/11.jpeg,HouseObjects,1,stim/objects/HouseObjects/ashtray.png,0.5,4,0.2,-0.15,left,55,2021-02-03_08h17.58.697,premup-three_ses-01_part-01_label-phase1,3.2.4,Win32,60,left,1.056999922,4,0,4,0,1,3,1,0,240,16,1,239,,,,,,,,,,,,,,,,,,
,,0,176,,,,,,,1,2,1,stim/21.jpeg,HouseObjects,1,stim/objects/HouseObjects/bleachbottle.png,0.5,1,-0.2,0.15,left,55,2021-02-03_08h17.58.697,premup-three_ses-01_part-01_label-phase1,3.2.4,Win32,60,right,1.24000001,4,0,4,0,1,3,1,0,240,44,1,239,,,,,,,,,,,,,,,,,,
,,1,177,,,,,,,2,3,4,stim/34.jpeg,HouseObjects,1,stim/objects/HouseObjects/clothespin.png,0.3,4,0.2,-0.15,left,55,2021-02-03_08h17.58.697,premup-three_ses-01_part-01_label-phase1,3.2.4,Win32,60,left,0.69900012,4,0,4,0,1,3,1,0,240,91,1,239,,,,,,,,,,,,,,,,,,
,,1,178,,,,,,,3,5,1,stim/51.jpeg,Instruments,2,stim/objects/Instruments/bassdrum2.png,0.9,1,-0.2,0.15,right,55,2021-02-03_08h17.58.697,premup-three_ses-01_part-01_label-phase1,3.2.4,Win32,60,right,1.502000093,4,0,4,0,1,3,1,0,240,188,1,239,,,,,,,,,,,,,,,,,,
,,1,179,,,,,,,2,4,4,stim/44.jpeg,HouseObjects,1,stim/objects/HouseObjects/basket2.png,0.7,1,-0.2,0.15,left,55,2021-02-03_08h17.58.697,premup-three_ses-01_part-01_label-phase1,3.2.4,Win32,60,left,0.852999926,4,0,4,0,1,3,1,0,240,143,1,239,,,,,,,,,,,,,,,,,,
,,1,180,,,,,,,1,2,4,stim/24.jpeg,HouseObjects,1,stim/objects/HouseObjects/broom.png,0.5,4,0.2,-0.15,left,55,2021-02-03_08h17.58.697,premup-three_ses-01_part-01_label-phase1,3.2.4,Win32,60,left,0.980999947,4,0,4,0,1,3,1,0,240,51,1,239,,,,,,,,,,,,,,,,,,
,,1,181,,,,,,,3,5,2,stim/52.jpeg,Instruments,2,stim/objects/Instruments/bassguitar2.png,0.9,1,-0.2,0.15,right,55,2021-02-03_08h17.58.697,premup-three_ses-01_part-01_label-phase1,3.2.4,Win32,60,right,0.714999914,4,0,4,0,1,3,1,0,240,189,1,239,,,,,,,,,,,,,,,,,,
,,1,182,,,,,,,3,5,3,stim/53.jpeg,Instruments,2,stim/objects/Instruments/cello2.png,0.9,2,0.2,0.15,right,55,2021-02-03_08h17.58.697,premup-three_ses-01_part-01_label-phase1,3.2.4,Win32,60,right,0.815999985,4,0,4,0,1,3,1,0,240,182,1,239,,,,,,,,,,,,,,,,,,
,,0,183,,,,,,,2,3,3,stim/33.jpeg,Instruments,2,stim/objects/Instruments/cymbal.png,0.7,1,-0.2,0.15,right,55,2021-02-03_08h17.58.697,premup-three_ses-01_part-01_label-phase1,3.2.4,Win32,60,left,0.661000013,4,0,4,0,1,3,1,0,240,118,1,239,,,,,,,,,,,,,,,,,,
,,1,184,,,,,,,1,2,3,stim/23.jpeg,HouseObjects,1,stim/objects/HouseObjects/bottle.png,0.5,2,0.2,0.15,left,55,2021-02-03_08h17.58.697,premup-three_ses-01_part-01_label-phase1,3.2.4,Win32,60,left,1.148999929,4,0,4,0,1,3,1,0,240,54,1,239,,,,,,,,,,,,,,,,,,
,,0,185,,,,,,,1,2,4,stim/24.jpeg,Instruments,2,stim/objects/Instruments/chime.png,0.5,1,-0.2,0.15,right,55,2021-02-03_08h17.58.697,premup-three_ses-01_part-01_label-phase1,3.2.4,Win32,60,left,1.103000164,4,0,4,0,1,3,1,0,240,71,1,239,,,,,,,,,,,,,,,,,,
,,1,186,,,,,,,3,5,2,stim/52.jpeg,Instruments,2,stim/objects/Instruments/bassguitar2.png,0.9,1,-0.2,0.15,right,55,2021-02-03_08h17.58.697,premup-three_ses-01_part-01_label-phase1,3.2.4,Win32,60,right,0.546000004,4,0,4,0,1,3,1,0,240,181,1,239,,,,,,,,,,,,,,,,,,
,,1,187,,,,,,,2,3,2,stim/32.jpeg,Instruments,2,stim/objects/Instruments/cornet.png,0.7,4,0.2,-0.15,right,55,2021-02-03_08h17.58.697,premup-three_ses-01_part-01_label-phase1,3.2.4,Win32,60,right,0.445000172,4,0,4,0,1,3,1,0,240,117,1,239,,,,,,,,,,,,,,,,,,
,,1,188,,,,,,,3,6,2,stim/62.jpeg,HouseObjects,1,stim/objects/HouseObjects/clock2.png,0.9,3,-0.2,-0.15,left,55,2021-02-03_08h17.58.697,premup-three_ses-01_part-01_label-phase1,3.2.4,Win32,60,left,0.774999857,4,0,4,0,1,3,1,0,240,205,1,239,,,,,,,,,,,,,,,,,,
,,1,189,,,,,,,3,5,4,stim/54.jpeg,Instruments,2,stim/objects/Instruments/chime2.png,0.9,2,0.2,0.15,right,55,2021-02-03_08h17.58.697,premup-three_ses-01_part-01_label-phase1,3.2.4,Win32,60,right,0.787000179,4,0,4,0,1,3,1,0,240,191,1,239,,,,,,,,,,,,,,,,,,
,,0,190,,,,,,,1,1,1,stim/11.jpeg,Instruments,2,stim/objects/Instruments/accordion.png,0.5,2,0.2,0.15,right,55,2021-02-03_08h17.58.697,premup-three_ses-01_part-01_label-phase1,3.2.4,Win32,60,left,0.984999895,4,0,4,0,1,3,1,0,240,32,1,239,,,,,,,,,,,,,,,,,,
,,0,191,,,,,,,3,6,2,stim/62.jpeg,HouseObjects,1,stim/objects/HouseObjects/clock2.png,0.9,3,-0.2,-0.15,left,55,2021-02-03_08h17.58.697,premup-three_ses-01_part-01_label-phase1,3.2.4,Win32,60,right,1.326999903,4,0,4,0,1,3,1,0,240,213,1,239,,,,,,,,,,,,,,,,,,
,,1,192,,,,,,,1,1,3,stim/13.jpeg,Instruments,2,stim/objects/Instruments/balalaika.png,0.5,4,0.2,-0.15,right,55,2021-02-03_08h17.58.697,premup-three_ses-01_part-01_label-phase1,3.2.4,Win32,60,right,0.698999882,4,0,4,0,1,3,1,0,240,26,1,239,,,,,,,,,,,,,,,,,,
,,1,193,,,,,,,3,5,3,stim/53.jpeg,Instruments,2,stim/objects/Instruments/cello2.png,0.9,3,-0.2,-0.15,right,55,2021-02-03_08h17.58.697,premup-three_ses-01_part-01_label-phase1,3.2.4,Win32,60,right,1.173000097,4,0,4,0,1,3,1,0,240,166,1,239,,,,,,,,,,,,,,,,,,
,,0,194,,,,,,,1,1,4,stim/14.jpeg,HouseObjects,1,stim/objects/HouseObjects/basket.png,0.5,4,0.2,-0.15,left,55,2021-02-03_08h17.58.697,premup-three_ses-01_part-01_label-phase1,3.2.4,Win32,60,right,0.894999981,4,0,4,0,1,3,1,0,240,7,1,239,,,,,,,,,,,,,,,,,,
,,0,195,,,,,,,1,1,4,stim/14.jpeg,Instruments,2,stim/objects/Instruments/banjo.png,0.5,3,-0.2,-0.15,right,55,2021-02-03_08h17.58.697,premup-three_ses-01_part-01_label-phase1,3.2.4,Win32,60,left,0.686000109,4,0,4,0,1,3,1,0,240,31,1,239,,,,,,,,,,,,,,,,,,
,,0,196,,,,,,,3,5,4,stim/54.jpeg,HouseObjects,1,stim/objects/HouseObjects/broom2.png,0.1,4,0.2,-0.15,left,55,2021-02-03_08h17.58.697,premup-three_ses-01_part-01_label-phase1,3.2.4,Win32,60,right,0.743000031,4,0,4,0,1,3,1,0,240,163,1,239,,,,,,,,,,,,,,,,,,
,,0,197,,,,,,,1,2,2,stim/22.jpeg,Instruments,2,stim/objects/Instruments/bassguitar.png,0.5,1,-0.2,0.15,right,55,2021-02-03_08h17.58.697,premup-three_ses-01_part-01_label-phase1,3.2.4,Win32,60,,,4,0,4,0,1,3,1,0,240,61,1,239,,,,,,,,,,,,,,,,,,
,,1,198,,,,,,,3,5,3,stim/53.jpeg,Instruments,2,stim/objects/Instruments/cello2.png,0.9,2,0.2,0.15,right,55,2021-02-03_08h17.58.697,premup-three_ses-01_part-01_label-phase1,3.2.4,Win32,60,right,0.804000139,4,0,4,0,1,3,1,0,240,170,1,239,,,,,,,,,,,,,,,,,,
,,1,199,,,,,,,2,3,2,stim/32.jpeg,Instruments,2,stim/objects/Instruments/cornet.png,0.7,1,-0.2,0.15,right,55,2021-02-03_08h17.58.697,premup-three_ses-01_part-01_label-phase1,3.2.4,Win32,60,right,0.793000221,4,0,4,0,1,3,1,0,240,109,1,239,,,,,,,,,,,,,,,,,,
,,0,200,,,,,,,2,4,3,stim/43.jpeg,HouseObjects,1,stim/objects/HouseObjects/barbecuelighter2.png,0.7,2,0.2,0.15,left,55,2021-02-03_08h17.58.697,premup-three_ses-01_part-01_label-phase1,3.2.4,Win32,60,right,1.036999941,4,0,4,0,1,3,1,0,240,138,1,239,,,,,,,,,,,,,,,,,,
,,1,201,,,,,,,2,3,4,stim/34.jpeg,Instruments,2,stim/objects/Instruments/doublebass.png,0.7,4,0.2,-0.15,right,55,2021-02-03_08h17.58.697,premup-three_ses-01_part-01_label-phase1,3.2.4,Win32,60,right,0.950000048,4,0,4,0,1,3,1,0,240,99,1,239,,,,,,,,,,,,,,,,,,
,,1,202,,,,,,,3,6,1,stim/61.jpeg,HouseObjects,1,stim/objects/HouseObjects/bucket2.png,0.9,2,0.2,0.15,left,55,2021-02-03_08h17.58.697,premup-three_ses-01_part-01_label-phase1,3.2.4,Win32,60,left,0.845000029,4,0,4,0,1,3,1,0,240,204,1,239,,,,,,,,,,,,,,,,,,
,,1,203,,,,,,,1,2,1,stim/21.jpeg,Instruments,2,stim/objects/Instruments/bassdrum.png,0.5,4,0.2,-0.15,right,55,2021-02-03_08h17.58.697,premup-three_ses-01_part-01_label-phase1,3.2.4,Win32,60,right,0.805000067,4,0,4,0,1,3,1,0,240,68,1,239,,,,,,,,,,,,,,,,,,
,,1,204,,,,,,,3,5,1,stim/51.jpeg,Instruments,2,stim/objects/Instruments/bassdrum2.png,0.9,2,0.2,0.15,right,55,2021-02-03_08h17.58.697,premup-three_ses-01_part-01_label-phase1,3.2.4,Win32,60,right,1.601999998,4,0,4,0,1,3,1,0,240,180,1,239,,,,,,,,,,,,,,,,,,
,,0,205,,,,,,,1,2,3,stim/23.jpeg,Instruments,2,stim/objects/Instruments/cello.png,0.5,4,0.2,-0.15,right,55,2021-02-03_08h17.58.697,premup-three_ses-01_part-01_label-phase1,3.2.4,Win32,60,left,0.850000143,4,0,4,0,1,3,1,0,240,74,1,239,,,,,,,,,,,,,,,,,,
,,1,206,,,,,,,2,4,2,stim/42.jpeg,HouseObjects,1,stim/objects/HouseObjects/ballofstring2.png,0.7,4,0.2,-0.15,left,55,2021-02-03_08h17.58.697,premup-three_ses-01_part-01_label-phase1,3.2.4,Win32,60,left,0.836999893,4,0,4,0,1,3,1,0,240,125,1,239,,,,,,,,,,,,,,,,,,
,,0,207,,,,,,,3,6,3,stim/63.jpeg,HouseObjects,1,stim/objects/HouseObjects/clothesdryingrack2.png,0.9,4,0.2,-0.15,left,55,2021-02-03_08h17.58.697,premup-three_ses-01_part-01_label-phase1,3.2.4,Win32,60,right,1.550000191,4,0,4,0,1,3,1,0,240,214,1,239,,,,,,,,,,,,,,,,,,
,,0,208,,,,,,,2,4,3,stim/43.jpeg,HouseObjects,1,stim/objects/HouseObjects/barbecuelighter2.png,0.7,1,-0.2,0.15,left,55,2021-02-03_08h17.58.697,premup-three_ses-01_part-01_label-phase1,3.2.4,Win32,60,right,1.125999928,4,0,4,0,1,3,1,0,240,130,1,239,,,,,,,,,,,,,,,,,,
,,1,209,,,,,,,1,2,3,stim/23.jpeg,Instruments,2,stim/objects/Instruments/cello.png,0.5,4,0.2,-0.15,right,55,2021-02-03_08h17.58.697,premup-three_ses-01_part-01_label-phase1,3.2.4,Win32,60,right,1.055999994,4,0,4,0,1,3,1,0,240,70,1,239,,,,,,,,,,,,,,,,,,
,,1,210,,,,,,,1,2,1,stim/21.jpeg,Instruments,2,stim/objects/Instruments/bassdrum.png,0.5,2,0.2,0.15,right,55,2021-02-03_08h17.58.697,premup-three_ses-01_part-01_label-phase1,3.2.4,Win32,60,right,0.846999884,4,0,4,0,1,3,1,0,240,60,1,239,,,,,,,,,,,,,,,,,,
,,0,211,,,,,,,2,3,2,stim/32.jpeg,Instruments,2,stim/objects/Instruments/cornet.png,0.7,3,-0.2,-0.15,right,55,2021-02-03_08h17.58.697,premup-three_ses-01_part-01_label-phase1,3.2.4,Win32,60,left,0.666999817,4,0,4,0,1,3,1,0,240,113,1,239,,,,,,,,,,,,,,,,,,
,,1,212,,,,,,,3,6,2,stim/62.jpeg,HouseObjects,1,stim/objects/HouseObjects/clock2.png,0.9,4,0.2,-0.15,left,55,2021-02-03_08h17.58.697,premup-three_ses-01_part-01_label-phase1,3.2.4,Win32,60,left,1.118000031,4,0,4,0,1,3,1,0,240,225,1,239,,,,,,,,,,,,,,,,,,
,,0,213,,,,,,,3,6,1,stim/61.jpeg,HouseObjects,1,stim/objects/HouseObjects/bucket2.png,0.9,3,-0.2,-0.15,left,55,2021-02-03_08h17.58.697,premup-three_ses-01_part-01_label-phase1,3.2.4,Win32,60,right,1.02699995,4,0,4,0,1,3,1,0,240,220,1,239,,,,,,,,,,,,,,,,,,
,,1,214,,,,,,,3,5,2,stim/52.jpeg,Instruments,2,stim/objects/Instruments/bassguitar2.png,0.9,2,0.2,0.15,right,55,2021-02-03_08h17.58.697,premup-three_ses-01_part-01_label-phase1,3.2.4,Win32,60,right,0.555000067,4,0,4,0,1,3,1,0,240,197,1,239,,,,,,,,,,,,,,,,,,
,,0,215,,,,,,,1,1,4,stim/14.jpeg,HouseObjects,1,stim/objects/HouseObjects/basket.png,0.5,2,0.2,0.15,left,55,2021-02-03_08h17.58.697,premup-three_ses-01_part-01_label-phase1,3.2.4,Win32,60,right,1.104000092,4,0,4,0,1,3,1,0,240,19,1,239,,,,,,,,,,,,,,,,,,
,,1,216,,,,,,,2,3,2,stim/32.jpeg,Instruments,2,stim/objects/Instruments/cornet.png,0.7,1,-0.2,0.15,right,55,2021-02-03_08h17.58.697,premup-three_ses-01_part-01_label-phase1,3.2.4,Win32,60,right,0.875,4,0,4,0,1,3,1,0,240,105,1,239,,,,,,,,,,,,,,,,,,
,,1,217,,,,,,,1,2,4,stim/24.jpeg,Instruments,2,stim/objects/Instruments/chime.png,0.5,1,-0.2,0.15,right,55,2021-02-03_08h17.58.697,premup-three_ses-01_part-01_label-phase1,3.2.4,Win32,60,right,0.887000084,4,0,4,0,1,3,1,0,240,75,1,239,,,,,,,,,,,,,,,,,,
,,1,218,,,,,,,2,3,1,stim/31.jpeg,Instruments,2,stim/objects/Instruments/clarinet.png,0.7,3,-0.2,-0.15,right,55,2021-02-03_08h17.58.697,premup-three_ses-01_part-01_label-phase1,3.2.4,Win32,60,right,1.329999924,4,0,4,0,1,3,1,0,240,116,1,239,,,,,,,,,,,,,,,,,,
,,0,219,,,,,,,2,4,4,stim/44.jpeg,Instruments,2,stim/objects/Instruments/banjo2.png,0.3,3,-0.2,-0.15,right,55,2021-02-03_08h17.58.697,premup-three_ses-01_part-01_label-phase1,3.2.4,Win32,60,left,0.641000032,4,0,4,0,1,3,1,0,240,155,1,239,,,,,,,,,,,,,,,,,,
,,1,220,,,,,,,2,3,1,stim/31.jpeg,Instruments,2,stim/objects/Instruments/clarinet.png,0.7,4,0.2,-0.15,right,55,2021-02-03_08h17.58.697,premup-three_ses-01_part-01_label-phase1,3.2.4,Win32,60,right,0.728000164,4,0,4,0,1,3,1,0,240,96,1,239,,,,,,,,,,,,,,,,,,
,,0,221,,,,,,,1,2,1,stim/21.jpeg,HouseObjects,1,stim/objects/HouseObjects/bleachbottle.png,0.5,4,0.2,-0.15,left,55,2021-02-03_08h17.58.697,premup-three_ses-01_part-01_label-phase1,3.2.4,Win32,60,right,0.427999973,4,0,4,0,1,3,1,0,240,48,1,239,,,,,,,,,,,,,,,,,,
,,0,222,,,,,,,1,1,2,stim/12.jpeg,HouseObjects,1,stim/objects/HouseObjects/ballofstring.png,0.5,2,0.2,0.15,left,55,2021-02-03_08h17.58.697,premup-three_ses-01_part-01_label-phase1,3.2.4,Win32,60,right,0.760000229,4,0,4,0,1,3,1,0,240,1,1,239,,,,,,,,,,,,,,,,,,
,,1,223,,,,,,,2,3,1,stim/31.jpeg,Instruments,2,stim/objects/Instruments/clarinet.png,0.7,1,-0.2,0.15,right,55,2021-02-03_08h17.58.697,premup-three_ses-01_part-01_label-phase1,3.2.4,Win32,60,right,0.789000034,4,0,4,0,1,3,1,0,240,100,1,239,,,,,,,,,,,,,,,,,,
,,1,224,,,,,,,1,2,3,stim/23.jpeg,HouseObjects,1,stim/objects/HouseObjects/bottle.png,0.5,1,-0.2,0.15,left,55,2021-02-03_08h17.58.697,premup-three_ses-01_part-01_label-phase1,3.2.4,Win32,60,left,1.120000124,4,0,4,0,1,3,1,0,240,42,1,239,,,,,,,,,,,,,,,,,,
,,0,225,,,,,,,3,5,1,stim/51.jpeg,HouseObjects,1,stim/objects/HouseObjects/bleachbottle2.png,0.1,1,-0.2,0.15,left,55,2021-02-03_08h17.58.697,premup-three_ses-01_part-01_label-phase1,3.2.4,Win32,60,right,0.957000017,4,0,4,0,1,3,1,0,240,160,1,239,,,,,,,,,,,,,,,,,,
,,1,226,,,,,,,3,5,2,stim/52.jpeg,HouseObjects,1,stim/objects/HouseObjects/blender2.png,0.1,3,-0.2,-0.15,left,55,2021-02-03_08h17.58.697,premup-three_ses-01_part-01_label-phase1,3.2.4,Win32,60,left,0.746000051,4,0,4,0,1,3,1,0,240,161,1,239,,,,,,,,,,,,,,,,,,
,,0,227,,,,,,,3,6,1,stim/61.jpeg,HouseObjects,1,stim/objects/HouseObjects/bucket2.png,0.9,3,-0.2,-0.15,left,55,2021-02-03_08h17.58.697,premup-three_ses-01_part-01_label-phase1,3.2.4,Win32,60,right,1.48300004,4,0,4,0,1,3,1,0,240,228,1,239,,,,,,,,,,,,,,,,,,
,,0,228,,,,,,,2,4,3,stim/43.jpeg,Instruments,2,stim/objects/Instruments/balalaika2.png,0.3,2,0.2,0.15,right,55,2021-02-03_08h17.58.697,premup-three_ses-01_part-01_label-phase1,3.2.4,Win32,60,left,0.572000027,4,0,4,0,1,3,1,0,240,158,1,239,,,,,,,,,,,,,,,,,,
,,0,229,,,,,,,1,1,2,stim/12.jpeg,HouseObjects,1,stim/objects/HouseObjects/ballofstring.png,0.5,1,-0.2,0.15,left,55,2021-02-03_08h17.58.697,premup-three_ses-01_part-01_label-phase1,3.2.4,Win32,60,right,0.967999935,4,0,4,0,1,3,1,0,240,13,1,239,,,,,,,,,,,,,,,,,,
,,1,230,,,,,,,1,1,4,stim/14.jpeg,HouseObjects,1,stim/objects/HouseObjects/basket.png,0.5,3,-0.2,-0.15,left,55,2021-02-03_08h17.58.697,premup-three_ses-01_part-01_label-phase1,3.2.4,Win32,60,left,0.549000025,4,0,4,0,1,3,1,0,240,15,1,239,,,,,,,,,,,,,,,,,,
,,1,231,,,,,,,3,6,3,stim/63.jpeg,HouseObjects,1,stim/objects/HouseObjects/clothesdryingrack2.png,0.9,2,0.2,0.15,left,55,2021-02-03_08h17.58.697,premup-three_ses-01_part-01_label-phase1,3.2.4,Win32,60,left,0.81400013,4,0,4,0,1,3,1,0,240,218,1,239,,,,,,,,,,,,,,,,,,
,,1,232,,,,,,,1,1,3,stim/13.jpeg,HouseObjects,1,stim/objects/HouseObjects/barbecuelighter.png,0.5,1,-0.2,0.15,left,55,2021-02-03_08h17.58.697,premup-three_ses-01_part-01_label-phase1,3.2.4,Win32,60,left,0.549999952,4,0,4,0,1,3,1,0,240,6,1,239,,,,,,,,,,,,,,,,,,
,,0,233,,,,,,,1,2,4,stim/24.jpeg,Instruments,2,stim/objects/Instruments/chime.png,0.5,1,-0.2,0.15,right,55,2021-02-03_08h17.58.697,premup-three_ses-01_part-01_label-phase1,3.2.4,Win32,60,left,0.871999979,4,0,4,0,1,3,1,0,240,79,1,239,,,,,,,,,,,,,,,,,,
,,1,234,,,,,,,1,2,2,stim/22.jpeg,Instruments,2,stim/objects/Instruments/bassguitar.png,0.5,1,-0.2,0.15,right,55,2021-02-03_08h17.58.697,premup-three_ses-01_part-01_label-phase1,3.2.4,Win32,60,right,0.746000051,4,0,4,0,1,3,1,0,240,65,1,239,,,,,,,,,,,,,,,,,,
,,0,235,,,,,,,3,5,4,stim/54.jpeg,Instruments,2,stim/objects/Instruments/chime2.png,0.9,2,0.2,0.15,right,55,2021-02-03_08h17.58.697,premup-three_ses-01_part-01_label-phase1,3.2.4,Win32,60,left,0.794000149,4,0,4,0,1,3,1,0,240,187,1,239,,,,,,,,,,,,,,,,,,
,,1,236,,,,,,,3,5,1,stim/51.jpeg,Instruments,2,stim/objects/Instruments/bassdrum2.png,0.9,4,0.2,-0.15,right,55,2021-02-03_08h17.58.697,premup-three_ses-01_part-01_label-phase1,3.2.4,Win32,60,right,0.575000048,4,0,4,0,1,3,1,0,240,164,1,239,,,,,,,,,,,,,,,,,,
,,1,237,,,,,,,3,5,4,stim/54.jpeg,Instruments,2,stim/objects/Instruments/chime2.png,0.9,4,0.2,-0.15,right,55,2021-02-03_08h17.58.697,premup-three_ses-01_part-01_label-phase1,3.2.4,Win32,60,right,0.646000147,4,0,4,0,1,3,1,0,240,195,1,239,,,,,,,,,,,,,,,,,,
,,0,238,,,,,,,1,2,4,stim/24.jpeg,HouseObjects,1,stim/objects/HouseObjects/broom.png,0.5,4,0.2,-0.15,left,55,2021-02-03_08h17.58.697,premup-three_ses-01_part-01_label-phase1,3.2.4,Win32,60,right,1.031999826,4,0,4,0,1,3,1,0,240,55,1,239,,,,,,,,,,,,,,,,,,
,,0,239,,,,,,,3,5,3,stim/53.jpeg,Instruments,2,stim/objects/Instruments/cello2.png,0.9,4,0.2,-0.15,right,55,2021-02-03_08h17.58.697,premup-three_ses-01_part-01_label-phase1,3.2.4,Win32,60,left,1.004999876,4,0,4,0,1,3,1,0,240,194,1,239,,,,,,,,,,,,,,,,,,
,,1,240,,,,,,,3,5,4,stim/54.jpeg,Instruments,2,stim/objects/Instruments/chime2.png,0.9,4,0.2,-0.15,right,55,2021-02-03_08h17.58.697,premup-three_ses-01_part-01_label-phase1,3.2.4,Win32,60,right,0.436000109,4,0,4,0,1,3,1,0,240,179,1,239,,,,,,,,,,,,,,,,,,
,,,,,,,,,,,5,,stim/51.jpeg,,,,,,,,,55,2021-02-03_08h17.58.697,premup-three_ses-01_part-01_label-phase1,3.2.4,Win32,60,,,4,0,4,0,1,3,,,,,,,1,0,70,24.17199993,,,1,0,6,4,1,5,Music items,5,15,Household items,85,95
,,,,,,,,,,,1,,stim/11.jpeg,,,,,,,,,55,2021-02-03_08h17.58.697,premup-three_ses-01_part-01_label-phase1,3.2.4,Win32,60,,,4,0,4,0,1,3,,,,,,,1,0,70,18.81099987,,,1,0,6,0,1,5,Household items,45,55,Music items,45,55
,,,,,,,,,,,3,,stim/31.jpeg,,,,,,,,,55,2021-02-03_08h17.58.697,premup-three_ses-01_part-01_label-phase1,3.2.4,Win32,60,,,4,0,4,0,1,3,,,,,,,1,1,70,2.779999971,,,1,0,6,2,1,5,Household items,65,75,Music items,25,35
,,,,,,,,,,,4,,stim/41.jpeg,,,,,,,,,55,2021-02-03_08h17.58.697,premup-three_ses-01_part-01_label-phase1,3.2.4,Win32,60,,,4,0,4,0,1,3,,,,,,,1,2,70,2.031000137,,,1,0,6,3,1,5,Household items,65,75,Music items,25,35
,,,,,,,,,,,6,,stim/61.jpeg,,,,,,,,,55,2021-02-03_08h17.58.697,premup-three_ses-01_part-01_label-phase1,3.2.4,Win32,60,,,4,0,4,0,1,3,,,,,,,1,2,30,4.10800004,,,1,0,6,5,1,5,Household items,5,15,Music items,85,95
,,,,,,,,,,,2,,stim/21.jpeg,,,,,,,,,55,2021-02-03_08h17.58.697,premup-three_ses-01_part-01_label-phase1,3.2.4,Win32,60,,,4,0,4,0,1,3,,,,,,,1,2,70,3.180000067,,,1,0,6,1,1,5,Music items,45,55,Household items,45,55
,,,,,,,,,,,,,,,,,,,,,,55,2021-02-03_08h17.58.697,premup-three_ses-01_part-01_label-phase1,3.2.4,Win32,60,,,4,0,4,0,1,3,,,,,,,,,,,,,,,,,,,,,,,,
,,0,1,,,,,,,2,3,4,stim/34.jpeg,Instruments,2,stim/objects/Instruments/doublebass.png,0.7,4,0.2,-0.15,right,55,2021-02-03_08h17.58.697,premup-three_ses-01_part-01_label-phase1,3.2.4,Win32,60,,,4,0,4,0,1,3,1,0,240,99,1,239,,,,,,,,,,,,,,,,,,
,,0,2,,,,,,,3,6,3,stim/63.jpeg,HouseObjects,1,stim/objects/HouseObjects/clothesdryingrack2.png,0.9,3,-0.2,-0.15,left,55,2021-02-03_08h17.58.697,premup-three_ses-01_part-01_label-phase1,3.2.4,Win32,60,right,1.148000002,4,0,4,0,1,3,1,0,240,230,1,239,,,,,,,,,,,,,,,,,,
,,1,3,,,,,,,2,3,3,stim/33.jpeg,Instruments,2,stim/objects/Instruments/cymbal.png,0.7,3,-0.2,-0.15,right,55,2021-02-03_08h17.58.697,premup-three_ses-01_part-01_label-phase1,3.2.4,Win32,60,right,1.045000076,4,0,4,0,1,3,1,0,240,102,1,239,,,,,,,,,,,,,,,,,,
,,1,4,,,,,,,1,2,4,stim/24.jpeg,Instruments,2,stim/objects/Instruments/chime.png,0.5,1,-0.2,0.15,right,55,2021-02-03_08h17.58.697,premup-three_ses-01_part-01_label-phase1,3.2.4,Win32,60,right,1.200999975,4,0,4,0,1,3,1,0,240,79,1,239,,,,,,,,,,,,,,,,,,
,,0,5,,,,,,,1,2,3,stim/23.jpeg,HouseObjects,1,stim/objects/HouseObjects/bottle.png,0.5,1,-0.2,0.15,left,55,2021-02-03_08h17.58.697,premup-three_ses-01_part-01_label-phase1,3.2.4,Win32,60,right,0.730000019,4,0,4,0,1,3,1,0,240,46,1,239,,,,,,,,,,,,,,,,,,
,,1,6,,,,,,,2,4,2,stim/42.jpeg,HouseObjects,1,stim/objects/HouseObjects/ballofstring2.png,0.7,2,0.2,0.15,left,55,2021-02-03_08h17.58.697,premup-three_ses-01_part-01_label-phase1,3.2.4,Win32,60,left,0.827000141,4,0,4,0,1,3,1,0,240,133,1,239,,,,,,,,,,,,,,,,,,
,,0,7,,,,,,,3,6,4,stim/64.jpeg,HouseObjects,1,stim/objects/HouseObjects/clothespin2.png,0.9,3,-0.2,-0.15,left,55,2021-02-03_08h17.58.697,premup-three_ses-01_part-01_label-phase1,3.2.4,Win32,60,right,0.717000008,4,0,4,0,1,3,1,0,240,219,1,239,,,,,,,,,,,,,,,,,,
,,0,8,,,,,,,3,5,3,stim/53.jpeg,HouseObjects,1,stim/objects/HouseObjects/bottle2.png,0.1,2,0.2,0.15,left,55,2021-02-03_08h17.58.697,premup-three_ses-01_part-01_label-phase1,3.2.4,Win32,60,right,0.739000082,4,0,4,0,1,3,1,0,240,162,1,239,,,,,,,,,,,,,,,,,,
,,0,9,,,,,,,3,5,2,stim/52.jpeg,Instruments,2,stim/objects/Instruments/bassguitar2.png,0.9,1,-0.2,0.15,right,55,2021-02-03_08h17.58.697,premup-three_ses-01_part-01_label-phase1,3.2.4,Win32,60,left,0.53399992,4,0,4,0,1,3,1,0,240,189,1,239,,,,,,,,,,,,,,,,,,
,,0,10,,,,,,,2,3,3,stim/33.jpeg,Instruments,2,stim/objects/Instruments/cymbal.png,0.7,2,0.2,0.15,right,55,2021-02-03_08h17.58.697,premup-three_ses-01_part-01_label-phase1,3.2.4,Win32,60,left,0.745000124,4,0,4,0,1,3,1,0,240,110,1,239,,,,,,,,,,,,,,,,,,
,,1,11,,,,,,,2,4,3,stim/43.jpeg,Instruments,2,stim/objects/Instruments/balalaika2.png,0.3,2,0.2,0.15,right,55,2021-02-03_08h17.58.697,premup-three_ses-01_part-01_label-phase1,3.2.4,Win32,60,right,0.976000071,4,0,4,0,1,3,1,0,240,158,1,239,,,,,,,,,,,,,,,,,,
,,0,12,,,,,,,1,2,3,stim/23.jpeg,Instruments,2,stim/objects/Instruments/cello.png,0.5,4,0.2,-0.15,right,55,2021-02-03_08h17.58.697,premup-three_ses-01_part-01_label-phase1,3.2.4,Win32,60,left,0.621000051,4,0,4,0,1,3,1,0,240,62,1,239,,,,,,,,,,,,,,,,,,
,,0,13,,,,,,,3,6,3,stim/63.jpeg,HouseObjects,1,stim/objects/HouseObjects/clothesdryingrack2.png,0.9,2,0.2,0.15,left,55,2021-02-03_08h17.58.697,premup-three_ses-01_part-01_label-phase1,3.2.4,Win32,60,right,0.74000001,4,0,4,0,1,3,1,0,240,202,1,239,,,,,,,,,,,,,,,,,,
,,0,14,,,,,,,1,2,4,stim/24.jpeg,HouseObjects,1,stim/objects/HouseObjects/broom.png,0.5,3,-0.2,-0.15,left,55,2021-02-03_08h17.58.697,premup-three_ses-01_part-01_label-phase1,3.2.4,Win32,60,right,0.690000057,4,0,4,0,1,3,1,0,240,47,1,239,,,,,,,,,,,,,,,,,,
,,0,15,,,,,,,3,5,4,stim/54.jpeg,Instruments,2,stim/objects/Instruments/chime2.png,0.9,2,0.2,0.15,right,55,2021-02-03_08h17.58.697,premup-three_ses-01_part-01_label-phase1,3.2.4,Win32,60,left,1.046000004,4,0,4,0,1,3,1,0,240,187,1,239,,,,,,,,,,,,,,,,,,
,,1,16,,,,,,,3,5,1,stim/51.jpeg,HouseObjects,1,stim/objects/HouseObjects/bleachbottle2.png,0.1,1,-0.2,0.15,left,55,2021-02-03_08h17.58.697,premup-three_ses-01_part-01_label-phase1,3.2.4,Win32,60,left,0.687000036,4,0,4,0,1,3,1,0,240,160,1,239,,,,,,,,,,,,,,,,,,
,,0,17,,,,,,,1,1,4,stim/14.jpeg,Instruments,2,stim/objects/Instruments/banjo.png,0.5,3,-0.2,-0.15,right,55,2021-02-03_08h17.58.697,premup-three_ses-01_part-01_label-phase1,3.2.4,Win32,60,left,0.937999964,4,0,4,0,1,3,1,0,240,39,1,239,,,,,,,,,,,,,,,,,,
,,0,18,,,,,,,2,4,2,stim/42.jpeg,Instruments,2,stim/objects/Instruments/acousticguitar2.png,0.3,2,0.2,0.15,right,55,2021-02-03_08h17.58.697,premup-three_ses-01_part-01_label-phase1,3.2.4,Win32,60,left,0.69900012,4,0,4,0,1,3,1,0,240,153,1,239,,,,,,,,,,,,,,,,,,
,,0,19,,,,,,,1,2,3,stim/23.jpeg,Instruments,2,stim/objects/Instruments/cello.png,0.5,4,0.2,-0.15,right,55,2021-02-03_08h17.58.697,premup-three_ses-01_part-01_label-phase1,3.2.4,Win32,60,left,0.707999945,4,0,4,0,1,3,1,0,240,70,1,239,,,,,,,,,,,,,,,,,,
,,0,20,,,,,,,2,4,2,stim/42.jpeg,HouseObjects,1,stim/objects/HouseObjects/ballofstring2.png,0.7,2,0.2,0.15,left,55,2021-02-03_08h17.58.697,premup-three_ses-01_part-01_label-phase1,3.2.4,Win32,60,right,0.709000111,4,0,4,0,1,3,1,0,240,129,1,239,,,,,,,,,,,,,,,,,,
,,1,21,,,,,,,2,3,1,stim/31.jpeg,Instruments,2,stim/objects/Instruments/clarinet.png,0.7,1,-0.2,0.15,right,55,2021-02-03_08h17.58.697,premup-three_ses-01_part-01_label-phase1,3.2.4,Win32,60,right,0.759000063,4,0,4,0,1,3,1,0,240,92,1,239,,,,,,,,,,,,,,,,,,
,,0,22,,,,,,,3,5,4,stim/54.jpeg,Instruments,2,stim/objects/Instruments/chime2.png,0.9,3,-0.2,-0.15,right,55,2021-02-03_08h17.58.697,premup-three_ses-01_part-01_label-phase1,3.2.4,Win32,60,left,1.061000109,4,0,4,0,1,3,1,0,240,183,1,239,,,,,,,,,,,,,,,,,,
,,1,23,,,,,,,3,6,1,stim/61.jpeg,HouseObjects,1,stim/objects/HouseObjects/bucket2.png,0.9,2,0.2,0.15,left,55,2021-02-03_08h17.58.697,premup-three_ses-01_part-01_label-phase1,3.2.4,Win32,60,left,0.963999987,4,0,4,0,1,3,1,0,240,200,1,239,,,,,,,,,,,,,,,,,,
,,0,24,,,,,,,1,2,4,stim/24.jpeg,Instruments,2,stim/objects/Instruments/chime.png,0.5,3,-0.2,-0.15,right,55,2021-02-03_08h17.58.697,premup-three_ses-01_part-01_label-phase1,3.2.4,Win32,60,left,1.530999899,4,0,4,0,1,3,1,0,240,67,1,239,,,,,,,,,,,,,,,,,,
,,0,25,,,,,,,2,3,4,stim/34.jpeg,HouseObjects,1,stim/objects/HouseObjects/clothespin.png,0.3,1,-0.2,0.15,left,55,2021-02-03_08h17.58.697,premup-three_ses-01_part-01_label-phase1,3.2.4,Win32,60,right,0.822000027,4,0,4,0,1,3,1,0,240,87,1,239,,,,,,,,,,,,,,,,,,
,,1,26,,,,,,,3,6,2,stim/62.jpeg,HouseObjects,1,stim/objects/HouseObjects/clock2.png,0.9,4,0.2,-0.15,left,55,2021-02-03_08h17.58.697,premup-three_ses-01_part-01_label-phase1,3.2.4,Win32,60,left,0.811000109,4,0,4,0,1,3,1,0,240,217,1,239,,,,,,,,,,,,,,,,,,
,,1,27,,,,,,,3,6,4,stim/64.jpeg,HouseObjects,1,stim/objects/HouseObjects/clothespin2.png,0.9,1,-0.2,0.15,left,55,2021-02-03_08h17.58.697,premup-three_ses-01_part-01_label-phase1,3.2.4,Win32,60,left,0.780999899,4,0,4,0,1,3,1,0,240,207,1,239,,,,,,,,,,,,,,,,,,
,,1,28,,,,,,,2,4,3,stim/43.jpeg,HouseObjects,1,stim/objects/HouseObjects/barbecuelighter2.png,0.7,2,0.2,0.15,left,55,2021-02-03_08h17.58.697,premup-three_ses-01_part-01_label-phase1,3.2.4,Win32,60,left,1.417000055,4,0,4,0,1,3,1,0,240,122,1,239,,,,,,,,,,,,,,,,,,
,,1,29,,,,,,,2,4,1,stim/41.jpeg,HouseObjects,1,stim/objects/HouseObjects/ashtray2.png,0.7,2,0.2,0.15,left,55,2021-02-03_08h17.58.697,premup-three_ses-01_part-01_label-phase1,3.2.4,Win32,60,left,0.641000032,4,0,4,0,1,3,1,0,240,136,1,239,,,,,,,,,,,,,,,,,,
,,0,30,,,,,,,2,3,2,stim/32.jpeg,Instruments,2,stim/objects/Instruments/cornet.png,0.7,1,-0.2,0.15,right,55,2021-02-03_08h17.58.697,premup-three_ses-01_part-01_label-phase1,3.2.4,Win32,60,left,1.366000175,4,0,4,0,1,3,1,0,240,105,1,239,,,,,,,,,,,,,,,,,,
,,1,31,,,,,,,2,4,1,stim/41.jpeg,HouseObjects,1,stim/objects/HouseObjects/ashtray2.png,0.7,4,0.2,-0.15,left,55,2021-02-03_08h17.58.697,premup-three_ses-01_part-01_label-phase1,3.2.4,Win32,60,left,0.763000011,4,0,4,0,1,3,1,0,240,128,1,239,,,,,,,,,,,,,,,,,,
,,1,32,,,,,,,1,1,4,stim/14.jpeg,Instruments,2,stim/objects/Instruments/banjo.png,0.5,2,0.2,0.15,right,55,2021-02-03_08h17.58.697,premup-three_ses-01_part-01_label-phase1,3.2.4,Win32,60,right,0.99000001,4,0,4,0,1,3,1,0,240,35,1,239,,,,,,,,,,,,,,,,,,
,,1,33,,,,,,,3,6,3,stim/63.jpeg,HouseObjects,1,stim/objects/HouseObjects/clothesdryingrack2.png,0.9,4,0.2,-0.15,left,55,2021-02-03_08h17.58.697,premup-three_ses-01_part-01_label-phase1,3.2.4,Win32,60,left,1.142999887,4,0,4,0,1,3,1,0,240,222,1,239,,,,,,,,,,,,,,,,,,
,,1,34,,,,,,,3,5,3,stim/53.jpeg,Instruments,2,stim/objects/Instruments/cello2.png,0.9,2,0.2,0.15,right,55,2021-02-03_08h17.58.697,premup-three_ses-01_part-01_label-phase1,3.2.4,Win32,60,right,0.878000021,4,0,4,0,1,3,1,0,240,170,1,239,,,,,,,,,,,,,,,,,,
,,0,35,,,,,,,2,4,4,stim/44.jpeg,Instruments,2,stim/objects/Instruments/banjo2.png,0.3,4,0.2,-0.15,right,55,2021-02-03_08h17.58.697,premup-three_ses-01_part-01_label-phase1,3.2.4,Win32,60,left,0.651000023,4,0,4,0,1,3,1,0,240,159,1,239,,,,,,,,,,,,,,,,,,
,,0,36,,,,,,,2,4,1,stim/41.jpeg,HouseObjects,1,stim/objects/HouseObjects/ashtray2.png,0.7,2,0.2,0.15,left,55,2021-02-03_08h17.58.697,premup-three_ses-01_part-01_label-phase1,3.2.4,Win32,60,right,0.76300025,4,0,4,0,1,3,1,0,240,120,1,239,,,,,,,,,,,,,,,,,,
,,1,37,,,,,,,2,3,3,stim/33.jpeg,Instruments,2,stim/objects/Instruments/cymbal.png,0.7,2,0.2,0.15,right,55,2021-02-03_08h17.58.697,premup-three_ses-01_part-01_label-phase1,3.2.4,Win32,60,right,1.065999985,4,0,4,0,1,3,1,0,240,106,1,239,,,,,,,,,,,,,,,,,,
,,0,38,,,,,,,2,4,1,stim/41.jpeg,HouseObjects,1,stim/objects/HouseObjects/ashtray2.png,0.7,4,0.2,-0.15,left,55,2021-02-03_08h17.58.697,premup-three_ses-01_part-01_label-phase1,3.2.4,Win32,60,right,1.622999907,4,0,4,0,1,3,1,0,240,132,1,239,,,,,,,,,,,,,,,,,,
,,1,39,,,,,,,2,4,3,stim/43.jpeg,Instruments,2,stim/objects/Instruments/balalaika2.png,0.3,1,-0.2,0.15,right,55,2021-02-03_08h17.58.697,premup-three_ses-01_part-01_label-phase1,3.2.4,Win32,60,right,1.142000198,4,0,4,0,1,3,1,0,240,154,1,239,,,,,,,,,,,,,,,,,,
,,0,40,,,,,,,2,3,1,stim/31.jpeg,Instruments,2,stim/objects/Instruments/clarinet.png,0.7,3,-0.2,-0.15,right,55,2021-02-03_08h17.58.697,premup-three_ses-01_part-01_label-phase1,3.2.4,Win32,60,left,0.776000023,4,0,4,0,1,3,1,0,240,116,1,239,,,,,,,,,,,,,,,,,,
,,1,41,,,,,,,2,4,4,stim/44.jpeg,HouseObjects,1,stim/objects/HouseObjects/basket2.png,0.7,4,0.2,-0.15,left,55,2021-02-03_08h17.58.697,premup-three_ses-01_part-01_label-phase1,3.2.4,Win32,60,left,1.128000021,4,0,4,0,1,3,1,0,240,135,1,239,,,,,,,,,,,,,,,,,,
,,1,42,,,,,,,3,6,4,stim/64.jpeg,HouseObjects,1,stim/objects/HouseObjects/clothespin2.png,0.9,4,0.2,-0.15,left,55,2021-02-03_08h17.58.697,premup-three_ses-01_part-01_label-phase1,3.2.4,Win32,60,left,0.827000141,4,0,4,0,1,3,1,0,240,203,1,239,,,,,,,,,,,,,,,,,,
,,1,43,,,,,,,1,1,3,stim/13.jpeg,HouseObjects,1,stim/objects/HouseObjects/barbecuelighter.png,0.5,4,0.2,-0.15,left,55,2021-02-03_08h17.58.697,premup-three_ses-01_part-01_label-phase1,3.2.4,Win32,60,left,0.552000046,4,0,4,0,1,3,1,0,240,10,1,239,,,,,,,,,,,,,,,,,,
,,1,44,,,,,,,3,5,1,stim/51.jpeg,Instruments,2,stim/objects/Instruments/bassdrum2.png,0.9,1,-0.2,0.15,right,55,2021-02-03_08h17.58.697,premup-three_ses-01_part-01_label-phase1,3.2.4,Win32,60,right,0.980000019,4,0,4,0,1,3,1,0,240,184,1,239,,,,,,,,,,,,,,,,,,
,,1,45,,,,,,,2,3,3,stim/33.jpeg,Instruments,2,stim/objects/Instruments/cymbal.png,0.7,3,-0.2,-0.15,right,55,2021-02-03_08h17.58.697,premup-three_ses-01_part-01_label-phase1,3.2.4,Win32,60,right,1.299000025,4,0,4,0,1,3,1,0,240,98,1,239,,,,,,,,,,,,,,,,,,
,,0,46,,,,,,,3,6,1,stim/61.jpeg,Instruments,2,stim/objects/Instruments/clarinet2.png,0.1,4,0.2,-0.15,right,55,2021-02-03_08h17.58.697,premup-three_ses-01_part-01_label-phase1,3.2.4,Win32,60,left,0.616000175,4,0,4,0,1,3,1,0,240,236,1,239,,,,,,,,,,,,,,,,,,
,,0,47,,,,,,,1,2,2,stim/22.jpeg,HouseObjects,1,stim/objects/HouseObjects/blender.png,0.5,4,0.2,-0.15,left,55,2021-02-03_08h17.58.697,premup-three_ses-01_part-01_label-phase1,3.2.4,Win32,60,right,0.921000004,4,0,4,0,1,3,1,0,240,53,1,239,,,,,,,,,,,,,,,,,,
,,1,48,,,,,,,3,6,3,stim/63.jpeg,Instruments,2,stim/objects/Instruments/cymbal2.png,0.1,4,0.2,-0.15,right,55,2021-02-03_08h17.58.697,premup-three_ses-01_part-01_label-phase1,3.2.4,Win32,60,right,0.986000061,4,0,4,0,1,3,1,0,240,238,1,239,,,,,,,,,,,,,,,,,,
,,0,49,,,,,,,1,1,4,stim/14.jpeg,HouseObjects,1,stim/objects/HouseObjects/basket.png,0.5,2,0.2,0.15,left,55,2021-02-03_08h17.58.697,premup-three_ses-01_part-01_label-phase1,3.2.4,Win32,60,right,0.582000017,4,0,4,0,1,3,1,0,240,19,1,239,,,,,,,,,,,,,,,,,,
,,0,50,,,,,,,2,4,1,stim/41.jpeg,Instruments,2,stim/objects/Instruments/accordion2.png,0.3,2,0.2,0.15,right,55,2021-02-03_08h17.58.697,premup-three_ses-01_part-01_label-phase1,3.2.4,Win32,60,left,0.418000221,4,0,4,0,1,3,1,0,240,148,1,239,,,,,,,,,,,,,,,,,,
,,1,51,,,,,,,2,4,2,stim/42.jpeg,Instruments,2,stim/objects/Instruments/acousticguitar2.png,0.3,3,-0.2,-0.15,right,55,2021-02-03_08h17.58.697,premup-three_ses-01_part-01_label-phase1,3.2.4,Win32,60,right,0.96600008,4,0,4,0,1,3,1,0,240,157,1,239,,,,,,,,,,,,,,,,,,
,,0,52,,,,,,,2,4,2,stim/42.jpeg,HouseObjects,1,stim/objects/HouseObjects/ballofstring2.png,0.7,4,0.2,-0.15,left,55,2021-02-03_08h17.58.697,premup-three_ses-01_part-01_label-phase1,3.2.4,Win32,60,right,0.872000217,4,0,4,0,1,3,1,0,240,141,1,239,,,,,,,,,,,,,,,,,,
,,1,53,,,,,,,1,2,3,stim/23.jpeg,HouseObjects,1,stim/objects/HouseObjects/bottle.png,0.5,2,0.2,0.15,left,55,2021-02-03_08h17.58.697,premup-three_ses-01_part-01_label-phase1,3.2.4,Win32,60,left,0.976999998,4,0,4,0,1,3,1,0,240,54,1,239,,,,,,,,,,,,,,,,,,
,,0,54,,,,,,,3,5,4,stim/54.jpeg,Instruments,2,stim/objects/Instruments/chime2.png,0.9,3,-0.2,-0.15,right,55,2021-02-03_08h17.58.697,premup-three_ses-01_part-01_label-phase1,3.2.4,Win32,60,,,4,0,4,0,1,3,1,0,240,199,1,239,,,,,,,,,,,,,,,,,,
,,1,55,,,,,,,1,2,4,stim/24.jpeg,HouseObjects,1,stim/objects/HouseObjects/broom.png,0.5,4,0.2,-0.15,left,55,2021-02-03_08h17.58.697,premup-three_ses-01_part-01_label-phase1,3.2.4,Win32,60,left,0.82400012,4,0,4,0,1,3,1,0,240,43,1,239,,,,,,,,,,,,,,,,,,
,,1,56,,,,,,,3,6,3,stim/63.jpeg,HouseObjects,1,stim/objects/HouseObjects/clothesdryingrack2.png,0.9,4,0.2,-0.15,left,55,2021-02-03_08h17.58.697,premup-three_ses-01_part-01_label-phase1,3.2.4,Win32,60,left,0.654000044,4,0,4,0,1,3,1,0,240,214,1,239,,,,,,,,,,,,,,,,,,
,,1,57,,,,,,,1,2,1,stim/21.jpeg,HouseObjects,1,stim/objects/HouseObjects/bleachbottle.png,0.5,3,-0.2,-0.15,left,55,2021-02-03_08h17.58.697,premup-three_ses-01_part-01_label-phase1,3.2.4,Win32,60,left,0.444000006,4,0,4,0,1,3,1,0,240,56,1,239,,,,,,,,,,,,,,,,,,
,,1,58,,,,,,,2,3,4,stim/34.jpeg,HouseObjects,1,stim/objects/HouseObjects/clothespin.png,0.3,4,0.2,-0.15,left,55,2021-02-03_08h17.58.697,premup-three_ses-01_part-01_label-phase1,3.2.4,Win32,60,left,0.448999882,4,0,4,0,1,3,1,0,240,91,1,239,,,,,,,,,,,,,,,,,,
,,0,59,,,,,,,3,6,2,stim/62.jpeg,HouseObjects,1,stim/objects/HouseObjects/clock2.png,0.9,2,0.2,0.15,left,55,2021-02-03_08h17.58.697,premup-three_ses-01_part-01_label-phase1,3.2.4,Win32,60,right,0.601999998,4,0,4,0,1,3,1,0,240,221,1,239,,,,,,,,,,,,,,,,,,
,,0,60,,,,,,,3,5,1,stim/51.jpeg,Instruments,2,stim/objects/Instruments/bassdrum2.png,0.9,2,0.2,0.15,right,55,2021-02-03_08h17.58.697,premup-three_ses-01_part-01_label-phase1,3.2.4,Win32,60,left,0.469000101,4,0,4,0,1,3,1,0,240,180,1,239,,,,,,,,,,,,,,,,,,
,,0,61,,,,,,,1,1,4,stim/14.jpeg,Instruments,2,stim/objects/Instruments/banjo.png,0.5,1,-0.2,0.15,right,55,2021-02-03_08h17.58.697,premup-three_ses-01_part-01_label-phase1,3.2.4,Win32,60,left,0.929000139,4,0,4,0,1,3,1,0,240,23,1,239,,,,,,,,,,,,,,,,,,
,,0,62,,,,,,,1,1,1,stim/11.jpeg,HouseObjects,1,stim/objects/HouseObjects/ashtray.png,0.5,4,0.2,-0.15,left,55,2021-02-03_08h17.58.697,premup-three_ses-01_part-01_label-phase1,3.2.4,Win32,60,right,0.400000095,4,0,4,0,1,3,1,0,240,12,1,239,,,,,,,,,,,,,,,,,,
,,0,63,,,,,,,3,5,3,stim/53.jpeg,Instruments,2,stim/objects/Instruments/cello2.png,0.9,4,0.2,-0.15,right,55,2021-02-03_08h17.58.697,premup-three_ses-01_part-01_label-phase1,3.2.4,Win32,60,left,0.404999971,4,0,4,0,1,3,1,0,240,194,1,239,,,,,,,,,,,,,,,,,,
,,0,64,,,,,,,2,4,2,stim/42.jpeg,HouseObjects,1,stim/objects/HouseObjects/ballofstring2.png,0.7,4,0.2,-0.15,left,55,2021-02-03_08h17.58.697,premup-three_ses-01_part-01_label-phase1,3.2.4,Win32,60,right,0.392999887,4,0,4,0,1,3,1,0,240,125,1,239,,,,,,,,,,,,,,,,,,
,,1,65,,,,,,,1,2,3,stim/23.jpeg,Instruments,2,stim/objects/Instruments/cello.png,0.5,2,0.2,0.15,right,55,2021-02-03_08h17.58.697,premup-three_ses-01_part-01_label-phase1,3.2.4,Win32,60,right,0.579999924,4,0,4,0,1,3,1,0,240,78,1,239,,,,,,,,,,,,,,,,,,
,,0,66,,,,,,,1,1,2,stim/12.jpeg,HouseObjects,1,stim/objects/HouseObjects/ballofstring.png,0.5,2,0.2,0.15,left,55,2021-02-03_08h17.58.697,premup-three_ses-01_part-01_label-phase1,3.2.4,Win32,60,right,0.476000071,4,0,4,0,1,3,1,0,240,5,1,239,,,,,,,,,,,,,,,,,,
,,1,67,,,,,,,3,6,4,stim/64.jpeg,HouseObjects,1,stim/objects/HouseObjects/clothespin2.png,0.9,3,-0.2,-0.15,left,55,2021-02-03_08h17.58.697,premup-three_ses-01_part-01_label-phase1,3.2.4,Win32,60,left,0.575999975,4,0,4,0,1,3,1,0,240,231,1,239,,,,,,,,,,,,,,,,,,
,,1,68,,,,,,,1,1,4,stim/14.jpeg,HouseObjects,1,stim/objects/HouseObjects/basket.png,0.5,3,-0.2,-0.15,left,55,2021-02-03_08h17.58.697,premup-three_ses-01_part-01_label-phase1,3.2.4,Win32,60,left,0.53399992,4,0,4,0,1,3,1,0,240,15,1,239,,,,,,,,,,,,,,,,,,
,,0,69,,,,,,,2,3,2,stim/32.jpeg,HouseObjects,1,stim/objects/HouseObjects/clock.png,0.3,4,0.2,-0.15,left,55,2021-02-03_08h17.58.697,premup-three_ses-01_part-01_label-phase1,3.2.4,Win32,60,right,0.718999863,4,0,4,0,1,3,1,0,240,89,1,239,,,,,,,,,,,,,,,,,,
,,1,70,,,,,,,2,3,4,stim/34.jpeg,Instruments,2,stim/objects/Instruments/doublebass.png,0.7,3,-0.2,-0.15,right,55,2021-02-03_08h17.58.697,premup-three_ses-01_part-01_label-phase1,3.2.4,Win32,60,right,1.058000088,4,0,4,0,1,3,1,0,240,103,1,239,,,,,,,,,,,,,,,,,,
,,0,71,,,,,,,3,5,2,stim/52.jpeg,Instruments,2,stim/objects/Instruments/bassguitar2.png,0.9,3,-0.2,-0.15,right,55,2021-02-03_08h17.58.697,premup-three_ses-01_part-01_label-phase1,3.2.4,Win32,60,left,0.814999819,4,0,4,0,1,3,1,0,240,193,1,239,,,,,,,,,,,,,,,,,,
,,1,72,,,,,,,1,1,3,stim/13.jpeg,Instruments,2,stim/objects/Instruments/balalaika.png,0.5,3,-0.2,-0.15,right,55,2021-02-03_08h17.58.697,premup-three_ses-01_part-01_label-phase1,3.2.4,Win32,60,right,0.720000029,4,0,4,0,1,3,1,0,240,38,1,239,,,,,,,,,,,,,,,,,,
,,1,73,,,,,,,1,2,2,stim/22.jpeg,HouseObjects,1,stim/objects/HouseObjects/blender.png,0.5,2,0.2,0.15,left,55,2021-02-03_08h17.58.697,premup-three_ses-01_part-01_label-phase1,3.2.4,Win32,60,left,0.460999966,4,0,4,0,1,3,1,0,240,45,1,239,,,,,,,,,,,,,,,,,,
,,0,74,,,,,,,1,1,4,stim/14.jpeg,Instruments,2,stim/objects/Instruments/banjo.png,0.5,1,-0.2,0.15,right,55,2021-02-03_08h17.58.697,premup-three_ses-01_part-01_label-phase1,3.2.4,Win32,60,left,0.881999969,4,0,4,0,1,3,1,0,240,27,1,239,,,,,,,,,,,,,,,,,,
,,1,75,,,,,,,2,3,2,stim/32.jpeg,Instruments,2,stim/objects/Instruments/cornet.png,0.7,1,-0.2,0.15,right,55,2021-02-03_08h17.58.697,premup-three_ses-01_part-01_label-phase1,3.2.4,Win32,60,right,0.907000065,4,0,4,0,1,3,1,0,240,109,1,239,,,,,,,,,,,,,,,,,,
,,1,76,,,,,,,2,3,4,stim/34.jpeg,Instruments,2,stim/objects/Instruments/doublebass.png,0.7,1,-0.2,0.15,right,55,2021-02-03_08h17.58.697,premup-three_ses-01_part-01_label-phase1,3.2.4,Win32,60,right,0.430999994,4,0,4,0,1,3,1,0,240,95,1,239,,,,,,,,,,,,,,,,,,
,,1,77,,,,,,,1,1,3,stim/13.jpeg,Instruments,2,stim/objects/Instruments/balalaika.png,0.5,4,0.2,-0.15,right,55,2021-02-03_08h17.58.697,premup-three_ses-01_part-01_label-phase1,3.2.4,Win32,60,right,1.007000208,4,0,4,0,1,3,1,0,240,34,1,239,,,,,,,,,,,,,,,,,,
,,0,78,,,,,,,1,1,2,stim/12.jpeg,HouseObjects,1,stim/objects/HouseObjects/ballofstring.png,0.5,3,-0.2,-0.15,left,55,2021-02-03_08h17.58.697,premup-three_ses-01_part-01_label-phase1,3.2.4,Win32,60,right,0.929999828,4,0,4,0,1,3,1,0,240,9,1,239,,,,,,,,,,,,,,,,,,
,,1,79,,,,,,,2,4,1,stim/41.jpeg,HouseObjects,1,stim/objects/HouseObjects/ashtray2.png,0.7,4,0.2,-0.15,left,55,2021-02-03_08h17.58.697,premup-three_ses-01_part-01_label-phase1,3.2.4,Win32,60,left,0.467000008,4,0,4,0,1,3,1,0,240,144,1,239,,,,,,,,,,,,,,,,,,
,,1,80,,,,,,,2,3,2,stim/32.jpeg,Instruments,2,stim/objects/Instruments/cornet.png,0.7,3,-0.2,-0.15,right,55,2021-02-03_08h17.58.697,premup-three_ses-01_part-01_label-phase1,3.2.4,Win32,60,right,0.919000149,4,0,4,0,1,3,1,0,240,113,1,239,,,,,,,,,,,,,,,,,,
,,1,81,,,,,,,1,2,1,stim/21.jpeg,Instruments,2,stim/objects/Instruments/bassdrum.png,0.5,1,-0.2,0.15,right,55,2021-02-03_08h17.58.697,premup-three_ses-01_part-01_label-phase1,3.2.4,Win32,60,right,0.836999893,4,0,4,0,1,3,1,0,240,76,1,239,,,,,,,,,,,,,,,,,,
,,0,82,,,,,,,1,2,3,stim/23.jpeg,HouseObjects,1,stim/objects/HouseObjects/bottle.png,0.5,1,-0.2,0.15,left,55,2021-02-03_08h17.58.697,premup-three_ses-01_part-01_label-phase1,3.2.4,Win32,60,right,0.539999962,4,0,4,0,1,3,1,0,240,58,1,239,,,,,,,,,,,,,,,,,,
,,0,83,,,,,,,3,5,3,stim/53.jpeg,Instruments,2,stim/objects/Instruments/cello2.png,0.9,3,-0.2,-0.15,right,55,2021-02-03_08h17.58.697,premup-three_ses-01_part-01_label-phase1,3.2.4,Win32,60,left,1.094000101,4,0,4,0,1,3,1,0,240,166,1,239,,,,,,,,,,,,,,,,,,
,,0,84,,,,,,,1,1,4,stim/14.jpeg,HouseObjects,1,stim/objects/HouseObjects/basket.png,0.5,3,-0.2,-0.15,left,55,2021-02-03_08h17.58.697,premup-three_ses-01_part-01_label-phase1,3.2.4,Win32,60,right,1.075999975,4,0,4,0,1,3,1,0,240,11,1,239,,,,,,,,,,,,,,,,,,
,,1,85,,,,,,,3,6,3,stim/63.jpeg,HouseObjects,1,stim/objects/HouseObjects/clothesdryingrack2.png,0.9,2,0.2,0.15,left,55,2021-02-03_08h17.58.697,premup-three_ses-01_part-01_label-phase1,3.2.4,Win32,60,left,0.81400013,4,0,4,0,1,3,1,0,240,206,1,239,,,,,,,,,,,,,,,,,,
,,1,86,,,,,,,3,6,1,stim/61.jpeg,HouseObjects,1,stim/objects/HouseObjects/bucket2.png,0.9,2,0.2,0.15,left,55,2021-02-03_08h17.58.697,premup-three_ses-01_part-01_label-phase1,3.2.4,Win32,60,left,0.644999981,4,0,4,0,1,3,1,0,240,204,1,239,,,,,,,,,,,,,,,,,,
,,1,87,,,,,,,3,6,3,stim/63.jpeg,HouseObjects,1,stim/objects/HouseObjects/clothesdryingrack2.png,0.9,1,-0.2,0.15,left,55,2021-02-03_08h17.58.697,premup-three_ses-01_part-01_label-phase1,3.2.4,Win32,60,left,0.575000048,4,0,4,0,1,3,1,0,240,226,1,239,,,,,,,,,,,,,,,,,,
,,1,88,,,,,,,3,5,2,stim/52.jpeg,Instruments,2,stim/objects/Instruments/bassguitar2.png,0.9,2,0.2,0.15,right,55,2021-02-03_08h17.58.697,premup-three_ses-01_part-01_label-phase1,3.2.4,Win32,60,right,0.798000097,4,0,4,0,1,3,1,0,240,197,1,239,,,,,,,,,,,,,,,,,,
,,0,89,,,,,,,1,1,1,stim/11.jpeg,Instruments,2,stim/objects/Instruments/accordion.png,0.5,3,-0.2,-0.15,right,55,2021-02-03_08h17.58.697,premup-three_ses-01_part-01_label-phase1,3.2.4,Win32,60,left,1.095999956,4,0,4,0,1,3,1,0,240,28,1,239,,,,,,,,,,,,,,,,,,
,,1,90,,,,,,,1,2,2,stim/22.jpeg,Instruments,2,stim/objects/Instruments/bassguitar.png,0.5,2,0.2,0.15,right,55,2021-02-03_08h17.58.697,premup-three_ses-01_part-01_label-phase1,3.2.4,Win32,60,right,0.708999872,4,0,4,0,1,3,1,0,240,73,1,239,,,,,,,,,,,,,,,,,,
,,0,91,,,,,,,1,1,1,stim/11.jpeg,HouseObjects,1,stim/objects/HouseObjects/ashtray.png,0.5,2,0.2,0.15,left,55,2021-02-03_08h17.58.697,premup-three_ses-01_part-01_label-phase1,3.2.4,Win32,60,right,0.552000046,4,0,4,0,1,3,1,0,240,8,1,239,,,,,,,,,,,,,,,,,,
,,1,92,,,,,,,1,1,1,stim/11.jpeg,HouseObjects,1,stim/objects/HouseObjects/ashtray.png,0.5,4,0.2,-0.15,left,55,2021-02-03_08h17.58.697,premup-three_ses-01_part-01_label-phase1,3.2.4,Win32,60,left,0.562000036,4,0,4,0,1,3,1,0,240,16,1,239,,,,,,,,,,,,,,,,,,
,,0,93,,,,,,,3,5,1,stim/51.jpeg,Instruments,2,stim/objects/Instruments/bassdrum2.png,0.9,4,0.2,-0.15,right,55,2021-02-03_08h17.58.697,premup-three_ses-01_part-01_label-phase1,3.2.4,Win32,60,left,0.440000057,4,0,4,0,1,3,1,0,240,164,1,239,,,,,,,,,,,,,,,,,,
,,1,94,,,,,,,3,5,3,stim/53.jpeg,Instruments,2,stim/objects/Instruments/cello2.png,0.9,1,-0.2,0.15,right,55,2021-02-03_08h17.58.697,premup-three_ses-01_part-01_label-phase1,3.2.4,Win32,60,right,1.157999992,4,0,4,0,1,3,1,0,240,198,1,239,,,,,,,,,,,,,,,,,,
,,1,95,,,,,,,1,2,1,stim/21.jpeg,Instruments,2,stim/objects/Instruments/bassdrum.png,0.5,4,0.2,-0.15,right,55,2021-02-03_08h17.58.697,premup-three_ses-01_part-01_label-phase1,3.2.4,Win32,60,right,0.792999983,4,0,4,0,1,3,1,0,240,68,1,239,,,,,,,,,,,,,,,,,,
,,1,96,,,,,,,3,6,1,stim/61.jpeg,HouseObjects,1,stim/objects/HouseObjects/bucket2.png,0.9,2,0.2,0.15,left,55,2021-02-03_08h17.58.697,premup-three_ses-01_part-01_label-phase1,3.2.4,Win32,60,left,1.642999887,4,0,4,0,1,3,1,0,240,224,1,239,,,,,,,,,,,,,,,,,,
,,1,97,,,,,,,3,6,1,stim/61.jpeg,HouseObjects,1,stim/objects/HouseObjects/bucket2.png,0.9,1,-0.2,0.15,left,55,2021-02-03_08h17.58.697,premup-three_ses-01_part-01_label-phase1,3.2.4,Win32,60,left,0.611000061,4,0,4,0,1,3,1,0,240,216,1,239,,,,,,,,,,,,,,,,,,
,,0,98,,,,,,,1,1,2,stim/12.jpeg,Instruments,2,stim/objects/Instruments/acousticguitar.png,0.5,4,0.2,-0.15,right,55,2021-02-03_08h17.58.697,premup-three_ses-01_part-01_label-phase1,3.2.4,Win32,60,left,0.381000042,4,0,4,0,1,3,1,0,240,37,1,239,,,,,,,,,,,,,,,,,,
,,1,99,,,,,,,3,5,4,stim/54.jpeg,Instruments,2,stim/objects/Instruments/chime2.png,0.9,2,0.2,0.15,right,55,2021-02-03_08h17.58.697,premup-three_ses-01_part-01_label-phase1,3.2.4,Win32,60,right,0.421999931,4,0,4,0,1,3,1,0,240,171,1,239,,,,,,,,,,,,,,,,,,
,,1,100,,,,,,,2,4,3,stim/43.jpeg,Instruments,2,stim/objects/Instruments/balalaika2.png,0.3,3,-0.2,-0.15,right,55,2021-02-03_08h17.58.697,premup-three_ses-01_part-01_label-phase1,3.2.4,Win32,60,right,0.65199995,4,0,4,0,1,3,1,0,240,150,1,239,,,,,,,,,,,,,,,,,,
,,1,101,,,,,,,2,4,2,stim/42.jpeg,Instruments,2,stim/objects/Instruments/acousticguitar2.png,0.3,4,0.2,-0.15,right,55,2021-02-03_08h17.58.697,premup-three_ses-01_part-01_label-phase1,3.2.4,Win32,60,right,0.535000086,4,0,4,0,1,3,1,0,240,149,1,239,,,,,,,,,,,,,,,,,,
,,0,102,,,,,,,3,6,2,stim/62.jpeg,HouseObjects,1,stim/objects/HouseObjects/clock2.png,0.9,3,-0.2,-0.15,left,55,2021-02-03_08h17.58.697,premup-three_ses-01_part-01_label-phase1,3.2.4,Win32,60,right,0.664000034,4,0,4,0,1,3,1,0,240,205,1,239,,,,,,,,,,,,,,,,,,
,,1,103,,,,,,,3,5,3,stim/53.jpeg,Instruments,2,stim/objects/Instruments/cello2.png,0.9,1,-0.2,0.15,right,55,2021-02-03_08h17.58.697,premup-three_ses-01_part-01_label-phase1,3.2.4,Win32,60,right,0.76699996,4,0,4,0,1,3,1,0,240,174,1,239,,,,,,,,,,,,,,,,,,
,,1,104,,,,,,,1,2,2,stim/22.jpeg,Instruments,2,stim/objects/Instruments/bassguitar.png,0.5,1,-0.2,0.15,right,55,2021-02-03_08h17.58.697,premup-three_ses-01_part-01_label-phase1,3.2.4,Win32,60,right,0.694000006,4,0,4,0,1,3,1,0,240,65,1,239,,,,,,,,,,,,,,,,,,
,,0,105,,,,,,,2,4,4,stim/44.jpeg,HouseObjects,1,stim/objects/HouseObjects/basket2.png,0.7,3,-0.2,-0.15,left,55,2021-02-03_08h17.58.697,premup-three_ses-01_part-01_label-phase1,3.2.4,Win32,60,right,0.700999975,4,0,4,0,1,3,1,0,240,147,1,239,,,,,,,,,,,,,,,,,,
,,1,106,,,,,,,1,2,3,stim/23.jpeg,HouseObjects,1,stim/objects/HouseObjects/bottle.png,0.5,1,-0.2,0.15,left,55,2021-02-03_08h17.58.697,premup-three_ses-01_part-01_label-phase1,3.2.4,Win32,60,left,0.549000025,4,0,4,0,1,3,1,0,240,42,1,239,,,,,,,,,,,,,,,,,,
,,0,107,,,,,,,1,2,2,stim/22.jpeg,Instruments,2,stim/objects/Instruments/bassguitar.png,0.5,1,-0.2,0.15,right,55,2021-02-03_08h17.58.697,premup-three_ses-01_part-01_label-phase1,3.2.4,Win32,60,left,0.654999971,4,0,4,0,1,3,1,0,240,77,1,239,,,,,,,,,,,,,,,,,,
,,1,108,,,,,,,3,5,2,stim/52.jpeg,Instruments,2,stim/objects/Instruments/bassguitar2.png,0.9,1,-0.2,0.15,right,55,2021-02-03_08h17.58.697,premup-three_ses-01_part-01_label-phase1,3.2.4,Win32,60,right,0.552999973,4,0,4,0,1,3,1,0,240,181,1,239,,,,,,,,,,,,,,,,,,
,,0,109,,,,,,,2,3,3,stim/33.jpeg,HouseObjects,1,stim/objects/HouseObjects/clothesdryingrack.png,0.3,3,-0.2,-0.15,left,55,2021-02-03_08h17.58.697,premup-three_ses-01_part-01_label-phase1,3.2.4,Win32,60,right,0.994000196,4,0,4,0,1,3,1,0,240,90,1,239,,,,,,,,,,,,,,,,,,
,,1,110,,,,,,,1,1,4,stim/14.jpeg,HouseObjects,1,stim/objects/HouseObjects/basket.png,0.5,4,0.2,-0.15,left,55,2021-02-03_08h17.58.697,premup-three_ses-01_part-01_label-phase1,3.2.4,Win32,60,left,0.778000116,4,0,4,0,1,3,1,0,240,3,1,239,,,,,,,,,,,,,,,,,,
,,1,111,,,,,,,3,6,2,stim/62.jpeg,HouseObjects,1,stim/objects/HouseObjects/clock2.png,0.9,1,-0.2,0.15,left,55,2021-02-03_08h17.58.697,premup-three_ses-01_part-01_label-phase1,3.2.4,Win32,60,left,0.75,4,0,4,0,1,3,1,0,240,209,1,239,,,,,,,,,,,,,,,,,,
,,1,112,,,,,,,3,6,1,stim/61.jpeg,HouseObjects,1,stim/objects/HouseObjects/bucket2.png,0.9,3,-0.2,-0.15,left,55,2021-02-03_08h17.58.697,premup-three_ses-01_part-01_label-phase1,3.2.4,Win32,60,left,0.632999897,4,0,4,0,1,3,1,0,240,228,1,239,,,,,,,,,,,,,,,,,,
,,0,113,,,,,,,2,3,2,stim/32.jpeg,Instruments,2,stim/objects/Instruments/cornet.png,0.7,4,0.2,-0.15,right,55,2021-02-03_08h17.58.697,premup-three_ses-01_part-01_label-phase1,3.2.4,Win32,60,left,0.58100009,4,0,4,0,1,3,1,0,240,117,1,239,,,,,,,,,,,,,,,,,,
,,1,114,,,,,,,1,1,2,stim/12.jpeg,Instruments,2,stim/objects/Instruments/acousticguitar.png,0.5,2,0.2,0.15,right,55,2021-02-03_08h17.58.697,premup-three_ses-01_part-01_label-phase1,3.2.4,Win32,60,right,0.540999889,4,0,4,0,1,3,1,0,240,21,1,239,,,,,,,,,,,,,,,,,,
,,0,115,,,,,,,2,3,1,stim/31.jpeg,HouseObjects,1,stim/objects/HouseObjects/bucket.png,0.3,3,-0.2,-0.15,left,55,2021-02-03_08h17.58.697,premup-three_ses-01_part-01_label-phase1,3.2.4,Win32,60,right,0.72300005,4,0,4,0,1,3,1,0,240,80,1,239,,,,,,,,,,,,,,,,,,
,,1,116,,,,,,,3,6,2,stim/62.jpeg,HouseObjects,1,stim/objects/HouseObjects/clock2.png,0.9,3,-0.2,-0.15,left,55,2021-02-03_08h17.58.697,premup-three_ses-01_part-01_label-phase1,3.2.4,Win32,60,left,0.495000124,4,0,4,0,1,3,1,0,240,213,1,239,,,,,,,,,,,,,,,,,,
,,0,117,,,,,,,3,5,3,stim/53.jpeg,Instruments,2,stim/objects/Instruments/cello2.png,0.9,2,0.2,0.15,right,55,2021-02-03_08h17.58.697,premup-three_ses-01_part-01_label-phase1,3.2.4,Win32,60,left,0.743000031,4,0,4,0,1,3,1,0,240,182,1,239,,,,,,,,,,,,,,,,,,
,,0,118,,,,,,,2,4,2,stim/42.jpeg,HouseObjects,1,stim/objects/HouseObjects/ballofstring2.png,0.7,3,-0.2,-0.15,left,55,2021-02-03_08h17.58.697,premup-three_ses-01_part-01_label-phase1,3.2.4,Win32,60,right,0.443000078,4,0,4,0,1,3,1,0,240,145,1,239,,,,,,,,,,,,,,,,,,
,,0,119,,,,,,,1,1,3,stim/13.jpeg,Instruments,2,stim/objects/Instruments/balalaika.png,0.5,4,0.2,-0.15,right,55,2021-02-03_08h17.58.697,premup-three_ses-01_part-01_label-phase1,3.2.4,Win32,60,left,0.380000114,4,0,4,0,1,3,1,0,240,26,1,239,,,,,,,,,,,,,,,,,,
,,0,120,,,,,,,2,4,3,stim/43.jpeg,HouseObjects,1,stim/objects/HouseObjects/barbecuelighter2.png,0.7,4,0.2,-0.15,left,55,2021-02-03_08h17.58.697,premup-three_ses-01_part-01_label-phase1,3.2.4,Win32,60,right,0.522000074,4,0,4,0,1,3,1,0,240,134,1,239,,,,,,,,,,,,,,,,,,
,,0,121,,,,,,,3,6,1,stim/61.jpeg,HouseObjects,1,stim/objects/HouseObjects/bucket2.png,0.9,2,0.2,0.15,left,55,2021-02-03_08h17.58.697,premup-three_ses-01_part-01_label-phase1,3.2.4,Win32,60,right,0.375,4,0,4,0,1,3,1,0,240,208,1,239,,,,,,,,,,,,,,,,,,
,,0,122,,,,,,,3,5,1,stim/51.jpeg,Instruments,2,stim/objects/Instruments/bassdrum2.png,0.9,4,0.2,-0.15,right,55,2021-02-03_08h17.58.697,premup-three_ses-01_part-01_label-phase1,3.2.4,Win32,60,left,0.568000078,4,0,4,0,1,3,1,0,240,176,1,239,,,,,,,,,,,,,,,,,,
,,0,123,,,,,,,1,2,1,stim/21.jpeg,HouseObjects,1,stim/objects/HouseObjects/bleachbottle.png,0.5,1,-0.2,0.15,left,55,2021-02-03_08h17.58.697,premup-three_ses-01_part-01_label-phase1,3.2.4,Win32,60,right,0.647000074,4,0,4,0,1,3,1,0,240,40,1,239,,,,,,,,,,,,,,,,,,
,,1,124,,,,,,,1,1,3,stim/13.jpeg,Instruments,2,stim/objects/Instruments/balalaika.png,0.5,2,0.2,0.15,right,55,2021-02-03_08h17.58.697,premup-three_ses-01_part-01_label-phase1,3.2.4,Win32,60,right,0.681999922,4,0,4,0,1,3,1,0,240,22,1,239,,,,,,,,,,,,,,,,,,
,,1,125,,,,,,,2,3,4,stim/34.jpeg,Instruments,2,stim/objects/Instruments/doublebass.png,0.7,3,-0.2,-0.15,right,55,2021-02-03_08h17.58.697,premup-three_ses-01_part-01_label-phase1,3.2.4,Win32,60,right,1.04700017,4,0,4,0,1,3,1,0,240,111,1,239,,,,,,,,,,,,,,,,,,
,,1,126,,,,,,,1,2,4,stim/24.jpeg,Instruments,2,stim/objects/Instruments/chime.png,0.5,1,-0.2,0.15,right,55,2021-02-03_08h17.58.697,premup-three_ses-01_part-01_label-phase1,3.2.4,Win32,60,right,0.631000042,4,0,4,0,1,3,1,0,240,75,1,239,,,,,,,,,,,,,,,,,,
,,0,127,,,,,,,1,2,4,stim/24.jpeg,HouseObjects,1,stim/objects/HouseObjects/broom.png,0.5,4,0.2,-0.15,left,55,2021-02-03_08h17.58.697,premup-three_ses-01_part-01_label-phase1,3.2.4,Win32,60,right,0.463999987,4,0,4,0,1,3,1,0,240,55,1,239,,,,,,,,,,,,,,,,,,
,,0,128,,,,,,,1,2,1,stim/21.jpeg,HouseObjects,1,stim/objects/HouseObjects/bleachbottle.png,0.5,1,-0.2,0.15,left,55,2021-02-03_08h17.58.697,premup-three_ses-01_part-01_label-phase1,3.2.4,Win32,60,right,0.819000006,4,0,4,0,1,3,1,0,240,52,1,239,,,,,,,,,,,,,,,,,,
,,1,129,,,,,,,3,5,2,stim/52.jpeg,Instruments,2,stim/objects/Instruments/bassguitar2.png,0.9,3,-0.2,-0.15,right,55,2021-02-03_08h17.58.697,premup-three_ses-01_part-01_label-phase1,3.2.4,Win32,60,right,0.647000074,4,0,4,0,1,3,1,0,240,169,1,239,,,,,,,,,,,,,,,,,,
,,0,130,,,,,,,3,5,2,stim/52.jpeg,Instruments,2,stim/objects/Instruments/bassguitar2.png,0.9,3,-0.2,-0.15,right,55,2021-02-03_08h17.58.697,premup-three_ses-01_part-01_label-phase1,3.2.4,Win32,60,left,1.032999992,4,0,4,0,1,3,1,0,240,185,1,239,,,,,,,,,,,,,,,,,,
,,0,131,,,,,,,1,1,1,stim/11.jpeg,Instruments,2,stim/objects/Instruments/accordion.png,0.5,2,0.2,0.15,right,55,2021-02-03_08h17.58.697,premup-three_ses-01_part-01_label-phase1,3.2.4,Win32,60,left,0.654999971,4,0,4,0,1,3,1,0,240,32,1,239,,,,,,,,,,,,,,,,,,
,,1,132,,,,,,,2,4,3,stim/43.jpeg,HouseObjects,1,stim/objects/HouseObjects/barbecuelighter2.png,0.7,1,-0.2,0.15,left,55,2021-02-03_08h17.58.697,premup-three_ses-01_part-01_label-phase1,3.2.4,Win32,60,left,0.660000086,4,0,4,0,1,3,1,0,240,130,1,239,,,,,,,,,,,,,,,,,,
