key_resp_pract.keys,key_resp_pract.rt,trial_acc,trial_index,practice_loop.thisRepN,practice_loop.thisTrialN,practice_loop.thisN,practice_loop.thisIndex,practice_loop.ran,practice_loop.order,scn_condition,scn_cat,scn_inst,scn_file,obj_cat,obj_cat_num,obj_file,trial_cond,quadrant,obj_x,obj_y,corr_ans,participant,date,expName,psychopyVersion,OS,frameRate,key_resp_trial.keys,key_resp_trial.rt,iterations.thisRepN,iterations.thisTrialN,iterations.thisN,iterations.thisIndex,iterations.ran,iterations.order,task_innerloop.thisRepN,task_innerloop.thisTrialN,task_innerloop.thisN,task_innerloop.thisIndex,task_innerloop.ran,task_innerloop.order,iteration_index,rating_acc,slider.response,slider.rt,slider_2.response,slider_2.rt,ratings.thisRepN,ratings.thisTrialN,ratings.thisN,ratings.thisIndex,ratings.ran,ratings.order,obj_cat_top,min_resp_top,max_resp_top,obj_cat_bottom,min_resp_bottom,max_resp_bottom
,,0,1,1,0,240,135,1,239,2,2,4,stim/24.jpeg,HouseObjects,1,stim/objects/HouseObjects/knife2.png,0.7,2,0.2,0.15,left,57,2021-02-16_05h09.17.732,premup-three_ses-01_part-01_label-phase1,3.2.4,Win32,60,,,,,,,,,,,,,,,,,,,,,,,,,,,,,,,,
left,0.878000021,0,2,1,0,240,37,1,239,1,5,2,stim/52.jpeg,Instruments,2,stim/objects/Instruments/laud.png,0.5,4,0.2,-0.15,right,57,2021-02-16_05h09.17.732,premup-three_ses-01_part-01_label-phase1,3.2.4,Win32,60,,,,,,,,,,,,,,,,,,,,,,,,,,,,,,,,
right,0.782999992,1,3,1,0,240,159,1,239,2,2,4,stim/24.jpeg,Instruments,2,stim/objects/Instruments/marimba2.png,0.3,2,0.2,0.15,right,57,2021-02-16_05h09.17.732,premup-three_ses-01_part-01_label-phase1,3.2.4,Win32,60,,,,,,,,,,,,,,,,,,,,,,,,,,,,,,,,
right,0.694999933,1,4,1,0,240,155,1,239,2,2,4,stim/24.jpeg,Instruments,2,stim/objects/Instruments/marimba2.png,0.3,2,0.2,0.15,right,57,2021-02-16_05h09.17.732,premup-three_ses-01_part-01_label-phase1,3.2.4,Win32,60,,,,,,,,,,,,,,,,,,,,,,,,,,,,,,,,
left,0.611000061,1,5,1,0,240,58,1,239,1,6,3,stim/63.jpeg,HouseObjects,1,stim/objects/HouseObjects/pan.png,0.5,1,-0.2,0.15,left,57,2021-02-16_05h09.17.732,premup-three_ses-01_part-01_label-phase1,3.2.4,Win32,60,,,,,,,,,,,,,,,,,,,,,,,,,,,,,,,,
right,0.722999811,0,6,1,0,240,90,1,239,2,1,3,stim/13.jpeg,HouseObjects,1,stim/objects/HouseObjects/rubbergloves.png,0.3,1,-0.2,0.15,left,57,2021-02-16_05h09.17.732,premup-three_ses-01_part-01_label-phase1,3.2.4,Win32,60,,,,,,,,,,,,,,,,,,,,,,,,,,,,,,,,
left,0.621999979,0,7,1,0,240,118,1,239,2,1,3,stim/13.jpeg,Instruments,2,stim/objects/Instruments/record.png,0.7,1,-0.2,0.15,right,57,2021-02-16_05h09.17.732,premup-three_ses-01_part-01_label-phase1,3.2.4,Win32,60,,,,,,,,,,,,,,,,,,,,,,,,,,,,,,,,
right,1.024000168,1,8,1,0,240,169,1,239,3,3,2,stim/32.jpeg,Instruments,2,stim/objects/Instruments/musicsheet2.png,0.9,3,-0.2,-0.15,right,57,2021-02-16_05h09.17.732,premup-three_ses-01_part-01_label-phase1,3.2.4,Win32,60,,,,,,,,,,,,,,,,,,,,,,,,,,,,,,,,
left,0.883999825,0,9,1,0,240,110,1,239,2,1,3,stim/13.jpeg,Instruments,2,stim/objects/Instruments/record.png,0.7,4,0.2,-0.15,right,57,2021-02-16_05h09.17.732,premup-three_ses-01_part-01_label-phase1,3.2.4,Win32,60,,,,,,,,,,,,,,,,,,,,,,,,,,,,,,,,
left,0.736000061,1,10,1,0,240,53,1,239,1,6,2,stim/62.jpeg,HouseObjects,1,stim/objects/HouseObjects/match.png,0.5,1,-0.2,0.15,left,57,2021-02-16_05h09.17.732,premup-three_ses-01_part-01_label-phase1,3.2.4,Win32,60,,,,,,,,,,,,,,,,,,,,,,,,,,,,,,,,
,,1,1,,,,,,,2,1,1,stim/11.jpeg,Instruments,2,stim/objects/Instruments/panflute.png,0.7,1,-0.2,0.15,right,57,2021-02-16_05h09.17.732,premup-three_ses-01_part-01_label-phase1,3.2.4,Win32,60,right,0.88499999,4,0,4,0,1,3,1,0,240,92,1,239,,,,,,,,,,,,,,,,,,
,,0,2,,,,,,,3,3,2,stim/32.jpeg,Instruments,2,stim/objects/Instruments/musicsheet2.png,0.9,4,0.2,-0.15,right,57,2021-02-16_05h09.17.732,premup-three_ses-01_part-01_label-phase1,3.2.4,Win32,60,left,0.674999952,4,0,4,0,1,3,1,0,240,197,1,239,,,,,,,,,,,,,,,,,,
,,0,3,,,,,,,2,1,1,stim/11.jpeg,HouseObjects,1,stim/objects/HouseObjects/recyclingbin.png,0.3,1,-0.2,0.15,left,57,2021-02-16_05h09.17.732,premup-three_ses-01_part-01_label-phase1,3.2.4,Win32,60,right,0.67200017,4,0,4,0,1,3,1,0,240,80,1,239,,,,,,,,,,,,,,,,,,
,,1,4,,,,,,,1,6,1,stim/61.jpeg,Instruments,2,stim/objects/Instruments/metronome.png,0.5,1,-0.2,0.15,right,57,2021-02-16_05h09.17.732,premup-three_ses-01_part-01_label-phase1,3.2.4,Win32,60,right,0.756999969,4,0,4,0,1,3,1,0,240,72,1,239,,,,,,,,,,,,,,,,,,
,,1,5,,,,,,,3,4,2,stim/42.jpeg,HouseObjects,1,stim/objects/HouseObjects/remote2.png,0.9,1,-0.2,0.15,left,57,2021-02-16_05h09.17.732,premup-three_ses-01_part-01_label-phase1,3.2.4,Win32,60,left,0.888999939,4,0,4,0,1,3,1,0,240,201,1,239,,,,,,,,,,,,,,,,,,
,,1,6,,,,,,,3,3,4,stim/34.jpeg,Instruments,2,stim/objects/Instruments/oboe2.png,0.9,2,0.2,0.15,right,57,2021-02-16_05h09.17.732,premup-three_ses-01_part-01_label-phase1,3.2.4,Win32,60,right,0.856999874,4,0,4,0,1,3,1,0,240,171,1,239,,,,,,,,,,,,,,,,,,
,,0,7,,,,,,,3,3,3,stim/33.jpeg,Instruments,2,stim/objects/Instruments/musicstand2.png,0.9,2,0.2,0.15,right,57,2021-02-16_05h09.17.732,premup-three_ses-01_part-01_label-phase1,3.2.4,Win32,60,left,0.976999998,4,0,4,0,1,3,1,0,240,190,1,239,,,,,,,,,,,,,,,,,,
,,1,8,,,,,,,3,4,1,stim/41.jpeg,HouseObjects,1,stim/objects/HouseObjects/recyclingbin2.png,0.9,3,-0.2,-0.15,left,57,2021-02-16_05h09.17.732,premup-three_ses-01_part-01_label-phase1,3.2.4,Win32,60,left,0.743999958,4,0,4,0,1,3,1,0,240,204,1,239,,,,,,,,,,,,,,,,,,
,,0,9,,,,,,,1,6,1,stim/61.jpeg,HouseObjects,1,stim/objects/HouseObjects/lintroller.png,0.5,2,0.2,0.15,left,57,2021-02-16_05h09.17.732,premup-three_ses-01_part-01_label-phase1,3.2.4,Win32,60,right,0.815000057,4,0,4,0,1,3,1,0,240,52,1,239,,,,,,,,,,,,,,,,,,
,,1,10,,,,,,,3,4,3,stim/43.jpeg,HouseObjects,1,stim/objects/HouseObjects/rubbergloves2.png,0.9,1,-0.2,0.15,left,57,2021-02-16_05h09.17.732,premup-three_ses-01_part-01_label-phase1,3.2.4,Win32,60,left,0.888000011,4,0,4,0,1,3,1,0,240,210,1,239,,,,,,,,,,,,,,,,,,
,,1,11,,,,,,,1,5,3,stim/53.jpeg,HouseObjects,1,stim/objects/HouseObjects/key.png,0.5,4,0.2,-0.15,left,57,2021-02-16_05h09.17.732,premup-three_ses-01_part-01_label-phase1,3.2.4,Win32,60,left,0.786000013,4,0,4,0,1,3,1,0,240,6,1,239,,,,,,,,,,,,,,,,,,
,,0,12,,,,,,,1,6,2,stim/62.jpeg,HouseObjects,1,stim/objects/HouseObjects/match.png,0.5,4,0.2,-0.15,left,57,2021-02-16_05h09.17.732,premup-three_ses-01_part-01_label-phase1,3.2.4,Win32,60,right,0.814999819,4,0,4,0,1,3,1,0,240,45,1,239,,,,,,,,,,,,,,,,,,
,,0,13,,,,,,,3,3,3,stim/33.jpeg,Instruments,2,stim/objects/Instruments/musicstand2.png,0.9,2,0.2,0.15,right,57,2021-02-16_05h09.17.732,premup-three_ses-01_part-01_label-phase1,3.2.4,Win32,60,left,0.92200017,4,0,4,0,1,3,1,0,240,182,1,239,,,,,,,,,,,,,,,,,,
,,0,14,,,,,,,2,2,2,stim/22.jpeg,HouseObjects,1,stim/objects/HouseObjects/ironingboard2.png,0.7,3,-0.2,-0.15,left,57,2021-02-16_05h09.17.732,premup-three_ses-01_part-01_label-phase1,3.2.4,Win32,60,right,1.039000034,4,0,4,0,1,3,1,0,240,121,1,239,,,,,,,,,,,,,,,,,,
,,0,15,,,,,,,1,6,4,stim/64.jpeg,HouseObjects,1,stim/objects/HouseObjects/pitcher.png,0.5,1,-0.2,0.15,left,57,2021-02-16_05h09.17.732,premup-three_ses-01_part-01_label-phase1,3.2.4,Win32,60,right,1.031999826,4,0,4,0,1,3,1,0,240,55,1,239,,,,,,,,,,,,,,,,,,
,,1,16,,,,,,,3,3,4,stim/34.jpeg,Instruments,2,stim/objects/Instruments/oboe2.png,0.9,2,0.2,0.15,right,57,2021-02-16_05h09.17.732,premup-three_ses-01_part-01_label-phase1,3.2.4,Win32,60,right,1.376999855,4,0,4,0,1,3,1,0,240,175,1,239,,,,,,,,,,,,,,,,,,
,,1,17,,,,,,,1,5,4,stim/54.jpeg,HouseObjects,1,stim/objects/HouseObjects/knife.png,0.5,1,-0.2,0.15,left,57,2021-02-16_05h09.17.732,premup-three_ses-01_part-01_label-phase1,3.2.4,Win32,60,left,1.05099988,4,0,4,0,1,3,1,0,240,11,1,239,,,,,,,,,,,,,,,,,,
,,1,18,,,,,,,1,5,1,stim/51.jpeg,HouseObjects,1,stim/objects/HouseObjects/iron.png,0.5,3,-0.2,-0.15,left,57,2021-02-16_05h09.17.732,premup-three_ses-01_part-01_label-phase1,3.2.4,Win32,60,left,0.944999933,4,0,4,0,1,3,1,0,240,0,1,239,,,,,,,,,,,,,,,,,,
,,1,19,,,,,,,3,3,1,stim/31.jpeg,Instruments,2,stim/objects/Instruments/metronome2.png,0.9,1,-0.2,0.15,right,57,2021-02-16_05h09.17.732,premup-three_ses-01_part-01_label-phase1,3.2.4,Win32,60,right,0.832000017,4,0,4,0,1,3,1,0,240,196,1,239,,,,,,,,,,,,,,,,,,
,,1,20,,,,,,,3,3,2,stim/32.jpeg,Instruments,2,stim/objects/Instruments/musicsheet2.png,0.9,1,-0.2,0.15,right,57,2021-02-16_05h09.17.732,premup-three_ses-01_part-01_label-phase1,3.2.4,Win32,60,right,0.740999937,4,0,4,0,1,3,1,0,240,185,1,239,,,,,,,,,,,,,,,,,,
,,1,21,,,,,,,3,3,2,stim/32.jpeg,Instruments,2,stim/objects/Instruments/musicsheet2.png,0.9,4,0.2,-0.15,right,57,2021-02-16_05h09.17.732,premup-three_ses-01_part-01_label-phase1,3.2.4,Win32,60,right,0.555999994,4,0,4,0,1,3,1,0,240,181,1,239,,,,,,,,,,,,,,,,,,
,,1,22,,,,,,,3,3,3,stim/33.jpeg,Instruments,2,stim/objects/Instruments/musicstand2.png,0.9,1,-0.2,0.15,right,57,2021-02-16_05h09.17.732,premup-three_ses-01_part-01_label-phase1,3.2.4,Win32,60,right,0.513000011,4,0,4,0,1,3,1,0,240,170,1,239,,,,,,,,,,,,,,,,,,
,,1,23,,,,,,,2,1,3,stim/13.jpeg,HouseObjects,1,stim/objects/HouseObjects/rubbergloves.png,0.3,4,0.2,-0.15,left,57,2021-02-16_05h09.17.732,premup-three_ses-01_part-01_label-phase1,3.2.4,Win32,60,left,0.690999985,4,0,4,0,1,3,1,0,240,86,1,239,,,,,,,,,,,,,,,,,,
,,1,24,,,,,,,1,6,3,stim/63.jpeg,HouseObjects,1,stim/objects/HouseObjects/pan.png,0.5,4,0.2,-0.15,left,57,2021-02-16_05h09.17.732,premup-three_ses-01_part-01_label-phase1,3.2.4,Win32,60,left,1.305999994,4,0,4,0,1,3,1,0,240,50,1,239,,,,,,,,,,,,,,,,,,
,,1,25,,,,,,,3,3,2,stim/32.jpeg,Instruments,2,stim/objects/Instruments/musicsheet2.png,0.9,3,-0.2,-0.15,right,57,2021-02-16_05h09.17.732,premup-three_ses-01_part-01_label-phase1,3.2.4,Win32,60,right,0.609999895,4,0,4,0,1,3,1,0,240,193,1,239,,,,,,,,,,,,,,,,,,
,,0,26,,,,,,,2,1,1,stim/11.jpeg,Instruments,2,stim/objects/Instruments/panflute.png,0.7,3,-0.2,-0.15,right,57,2021-02-16_05h09.17.732,premup-three_ses-01_part-01_label-phase1,3.2.4,Win32,60,left,0.934000015,4,0,4,0,1,3,1,0,240,104,1,239,,,,,,,,,,,,,,,,,,
,,1,27,,,,,,,3,4,4,stim/44.jpeg,HouseObjects,1,stim/objects/HouseObjects/rug2.png,0.9,2,0.2,0.15,left,57,2021-02-16_05h09.17.732,premup-three_ses-01_part-01_label-phase1,3.2.4,Win32,60,left,1.13499999,4,0,4,0,1,3,1,0,240,227,1,239,,,,,,,,,,,,,,,,,,
,,0,28,,,,,,,2,1,1,stim/11.jpeg,Instruments,2,stim/objects/Instruments/panflute.png,0.7,3,-0.2,-0.15,right,57,2021-02-16_05h09.17.732,premup-three_ses-01_part-01_label-phase1,3.2.4,Win32,60,left,0.985000134,4,0,4,0,1,3,1,0,240,116,1,239,,,,,,,,,,,,,,,,,,
,,1,29,,,,,,,2,1,4,stim/14.jpeg,Instruments,2,stim/objects/Instruments/record_player.png,0.7,3,-0.2,-0.15,right,57,2021-02-16_05h09.17.732,premup-three_ses-01_part-01_label-phase1,3.2.4,Win32,60,right,0.643000126,4,0,4,0,1,3,1,0,240,111,1,239,,,,,,,,,,,,,,,,,,
,,1,30,,,,,,,2,2,3,stim/23.jpeg,HouseObjects,1,stim/objects/HouseObjects/key2.png,0.7,3,-0.2,-0.15,left,57,2021-02-16_05h09.17.732,premup-three_ses-01_part-01_label-phase1,3.2.4,Win32,60,left,1.044000149,4,0,4,0,1,3,1,0,240,130,1,239,,,,,,,,,,,,,,,,,,
,,1,31,,,,,,,3,4,2,stim/42.jpeg,HouseObjects,1,stim/objects/HouseObjects/remote2.png,0.9,1,-0.2,0.15,left,57,2021-02-16_05h09.17.732,premup-three_ses-01_part-01_label-phase1,3.2.4,Win32,60,left,0.930000067,4,0,4,0,1,3,1,0,240,209,1,239,,,,,,,,,,,,,,,,,,
,,1,32,,,,,,,3,3,4,stim/34.jpeg,Instruments,2,stim/objects/Instruments/oboe2.png,0.9,3,-0.2,-0.15,right,57,2021-02-16_05h09.17.732,premup-three_ses-01_part-01_label-phase1,3.2.4,Win32,60,right,0.751999855,4,0,4,0,1,3,1,0,240,191,1,239,,,,,,,,,,,,,,,,,,
,,1,33,,,,,,,1,6,4,stim/64.jpeg,Instruments,2,stim/objects/Instruments/oboe.png,0.5,1,-0.2,0.15,right,57,2021-02-16_05h09.17.732,premup-three_ses-01_part-01_label-phase1,3.2.4,Win32,60,right,0.822000027,4,0,4,0,1,3,1,0,240,71,1,239,,,,,,,,,,,,,,,,,,
,,1,34,,,,,,,3,3,2,stim/32.jpeg,Instruments,2,stim/objects/Instruments/musicsheet2.png,0.9,4,0.2,-0.15,right,57,2021-02-16_05h09.17.732,premup-three_ses-01_part-01_label-phase1,3.2.4,Win32,60,right,0.907000065,4,0,4,0,1,3,1,0,240,177,1,239,,,,,,,,,,,,,,,,,,
,,1,35,,,,,,,3,4,3,stim/43.jpeg,HouseObjects,1,stim/objects/HouseObjects/rubbergloves2.png,0.9,4,0.2,-0.15,left,57,2021-02-16_05h09.17.732,premup-three_ses-01_part-01_label-phase1,3.2.4,Win32,60,left,0.816999912,4,0,4,0,1,3,1,0,240,202,1,239,,,,,,,,,,,,,,,,,,
,,0,36,,,,,,,1,5,4,stim/54.jpeg,Instruments,2,stim/objects/Instruments/marimba.png,0.5,2,0.2,0.15,right,57,2021-02-16_05h09.17.732,premup-three_ses-01_part-01_label-phase1,3.2.4,Win32,60,left,0.829000235,4,0,4,0,1,3,1,0,240,27,1,239,,,,,,,,,,,,,,,,,,
,,1,37,,,,,,,2,1,4,stim/14.jpeg,Instruments,2,stim/objects/Instruments/record_player.png,0.7,3,-0.2,-0.15,right,57,2021-02-16_05h09.17.732,premup-three_ses-01_part-01_label-phase1,3.2.4,Win32,60,right,0.822999954,4,0,4,0,1,3,1,0,240,95,1,239,,,,,,,,,,,,,,,,,,
,,0,38,,,,,,,1,6,3,stim/63.jpeg,HouseObjects,1,stim/objects/HouseObjects/pan.png,0.5,3,-0.2,-0.15,left,57,2021-02-16_05h09.17.732,premup-three_ses-01_part-01_label-phase1,3.2.4,Win32,60,right,0.843999863,4,0,4,0,1,3,1,0,240,54,1,239,,,,,,,,,,,,,,,,,,
,,0,39,,,,,,,2,1,2,stim/12.jpeg,Instruments,2,stim/objects/Instruments/pipepiano.png,0.7,1,-0.2,0.15,right,57,2021-02-16_05h09.17.732,premup-three_ses-01_part-01_label-phase1,3.2.4,Win32,60,left,0.88499999,4,0,4,0,1,3,1,0,240,113,1,239,,,,,,,,,,,,,,,,,,
,,0,40,,,,,,,3,4,1,stim/41.jpeg,Instruments,2,stim/objects/Instruments/panflute2.png,0.1,1,-0.2,0.15,right,57,2021-02-16_05h09.17.732,premup-three_ses-01_part-01_label-phase1,3.2.4,Win32,60,left,0.676000118,4,0,4,0,1,3,1,0,240,236,1,239,,,,,,,,,,,,,,,,,,
,,1,41,,,,,,,3,3,4,stim/34.jpeg,Instruments,2,stim/objects/Instruments/oboe2.png,0.9,4,0.2,-0.15,right,57,2021-02-16_05h09.17.732,premup-three_ses-01_part-01_label-phase1,3.2.4,Win32,60,right,0.627000093,4,0,4,0,1,3,1,0,240,179,1,239,,,,,,,,,,,,,,,,,,
,,0,42,,,,,,,2,1,3,stim/13.jpeg,HouseObjects,1,stim/objects/HouseObjects/rubbergloves.png,0.3,1,-0.2,0.15,left,57,2021-02-16_05h09.17.732,premup-three_ses-01_part-01_label-phase1,3.2.4,Win32,60,right,0.812999964,4,0,4,0,1,3,1,0,240,90,1,239,,,,,,,,,,,,,,,,,,
,,1,43,,,,,,,3,4,2,stim/42.jpeg,HouseObjects,1,stim/objects/HouseObjects/remote2.png,0.9,3,-0.2,-0.15,left,57,2021-02-16_05h09.17.732,premup-three_ses-01_part-01_label-phase1,3.2.4,Win32,60,left,0.92599988,4,0,4,0,1,3,1,0,240,221,1,239,,,,,,,,,,,,,,,,,,
,,0,44,,,,,,,1,6,4,stim/64.jpeg,HouseObjects,1,stim/objects/HouseObjects/pitcher.png,0.5,4,0.2,-0.15,left,57,2021-02-16_05h09.17.732,premup-three_ses-01_part-01_label-phase1,3.2.4,Win32,60,right,0.669000149,4,0,4,0,1,3,1,0,240,59,1,239,,,,,,,,,,,,,,,,,,
,,0,45,,,,,,,1,5,3,stim/53.jpeg,Instruments,2,stim/objects/Instruments/maraca.png,0.5,2,0.2,0.15,right,57,2021-02-16_05h09.17.732,premup-three_ses-01_part-01_label-phase1,3.2.4,Win32,60,left,0.687999964,4,0,4,0,1,3,1,0,240,34,1,239,,,,,,,,,,,,,,,,,,
,,1,46,,,,,,,3,3,3,stim/33.jpeg,Instruments,2,stim/objects/Instruments/musicstand2.png,0.9,3,-0.2,-0.15,right,57,2021-02-16_05h09.17.732,premup-three_ses-01_part-01_label-phase1,3.2.4,Win32,60,right,1.279999971,4,0,4,0,1,3,1,0,240,186,1,239,,,,,,,,,,,,,,,,,,
,,1,47,,,,,,,1,5,1,stim/51.jpeg,HouseObjects,1,stim/objects/HouseObjects/iron.png,0.5,1,-0.2,0.15,left,57,2021-02-16_05h09.17.732,premup-three_ses-01_part-01_label-phase1,3.2.4,Win32,60,left,0.631999969,4,0,4,0,1,3,1,0,240,4,1,239,,,,,,,,,,,,,,,,,,
,,1,48,,,,,,,2,1,2,stim/12.jpeg,Instruments,2,stim/objects/Instruments/pipepiano.png,0.7,3,-0.2,-0.15,right,57,2021-02-16_05h09.17.732,premup-three_ses-01_part-01_label-phase1,3.2.4,Win32,60,right,0.815000057,4,0,4,0,1,3,1,0,240,101,1,239,,,,,,,,,,,,,,,,,,
,,1,49,,,,,,,1,6,2,stim/62.jpeg,Instruments,2,stim/objects/Instruments/musicsheet.png,0.5,2,0.2,0.15,right,57,2021-02-16_05h09.17.732,premup-three_ses-01_part-01_label-phase1,3.2.4,Win32,60,right,0.708999872,4,0,4,0,1,3,1,0,240,77,1,239,,,,,,,,,,,,,,,,,,
,,1,50,,,,,,,1,6,3,stim/63.jpeg,Instruments,2,stim/objects/Instruments/musicstand.png,0.5,1,-0.2,0.15,right,57,2021-02-16_05h09.17.732,premup-three_ses-01_part-01_label-phase1,3.2.4,Win32,60,right,0.56799984,4,0,4,0,1,3,1,0,240,74,1,239,,,,,,,,,,,,,,,,,,
,,1,51,,,,,,,3,4,2,stim/42.jpeg,HouseObjects,1,stim/objects/HouseObjects/remote2.png,0.9,2,0.2,0.15,left,57,2021-02-16_05h09.17.732,premup-three_ses-01_part-01_label-phase1,3.2.4,Win32,60,left,0.623000145,4,0,4,0,1,3,1,0,240,225,1,239,,,,,,,,,,,,,,,,,,
,,1,52,,,,,,,1,6,1,stim/61.jpeg,HouseObjects,1,stim/objects/HouseObjects/lintroller.png,0.5,4,0.2,-0.15,left,57,2021-02-16_05h09.17.732,premup-three_ses-01_part-01_label-phase1,3.2.4,Win32,60,left,0.746999979,4,0,4,0,1,3,1,0,240,40,1,239,,,,,,,,,,,,,,,,,,
,,1,53,,,,,,,3,3,2,stim/32.jpeg,Instruments,2,stim/objects/Instruments/musicsheet2.png,0.9,4,0.2,-0.15,right,57,2021-02-16_05h09.17.732,premup-three_ses-01_part-01_label-phase1,3.2.4,Win32,60,right,0.710000038,4,0,4,0,1,3,1,0,240,165,1,239,,,,,,,,,,,,,,,,,,
,,1,54,,,,,,,2,2,1,stim/21.jpeg,HouseObjects,1,stim/objects/HouseObjects/iron2.png,0.7,2,0.2,0.15,left,57,2021-02-16_05h09.17.732,premup-three_ses-01_part-01_label-phase1,3.2.4,Win32,60,left,0.655999899,4,0,4,0,1,3,1,0,240,128,1,239,,,,,,,,,,,,,,,,,,
,,1,55,,,,,,,1,5,1,stim/51.jpeg,HouseObjects,1,stim/objects/HouseObjects/iron.png,0.5,1,-0.2,0.15,left,57,2021-02-16_05h09.17.732,premup-three_ses-01_part-01_label-phase1,3.2.4,Win32,60,left,0.671000004,4,0,4,0,1,3,1,0,240,8,1,239,,,,,,,,,,,,,,,,,,
,,0,56,,,,,,,2,1,3,stim/13.jpeg,Instruments,2,stim/objects/Instruments/record.png,0.7,1,-0.2,0.15,right,57,2021-02-16_05h09.17.732,premup-three_ses-01_part-01_label-phase1,3.2.4,Win32,60,left,0.820000172,4,0,4,0,1,3,1,0,240,102,1,239,,,,,,,,,,,,,,,,,,
,,1,57,,,,,,,2,1,3,stim/13.jpeg,Instruments,2,stim/objects/Instruments/record.png,0.7,1,-0.2,0.15,right,57,2021-02-16_05h09.17.732,premup-three_ses-01_part-01_label-phase1,3.2.4,Win32,60,right,0.601999998,4,0,4,0,1,3,1,0,240,118,1,239,,,,,,,,,,,,,,,,,,
,,1,58,,,,,,,3,3,2,stim/32.jpeg,Instruments,2,stim/objects/Instruments/musicsheet2.png,0.9,4,0.2,-0.15,right,57,2021-02-16_05h09.17.732,premup-three_ses-01_part-01_label-phase1,3.2.4,Win32,60,right,0.59100008,4,0,4,0,1,3,1,0,240,189,1,239,,,,,,,,,,,,,,,,,,
,,1,59,,,,,,,3,3,2,stim/32.jpeg,Instruments,2,stim/objects/Instruments/musicsheet2.png,0.9,3,-0.2,-0.15,right,57,2021-02-16_05h09.17.732,premup-three_ses-01_part-01_label-phase1,3.2.4,Win32,60,right,0.477999926,4,0,4,0,1,3,1,0,240,169,1,239,,,,,,,,,,,,,,,,,,
,,1,60,,,,,,,3,3,4,stim/34.jpeg,Instruments,2,stim/objects/Instruments/oboe2.png,0.9,3,-0.2,-0.15,right,57,2021-02-16_05h09.17.732,premup-three_ses-01_part-01_label-phase1,3.2.4,Win32,60,right,0.369999886,4,0,4,0,1,3,1,0,240,195,1,239,,,,,,,,,,,,,,,,,,
,,0,61,,,,,,,1,5,1,stim/51.jpeg,Instruments,2,stim/objects/Instruments/keyboard.png,0.5,1,-0.2,0.15,right,57,2021-02-16_05h09.17.732,premup-three_ses-01_part-01_label-phase1,3.2.4,Win32,60,left,0.538999796,4,0,4,0,1,3,1,0,240,32,1,239,,,,,,,,,,,,,,,,,,
,,1,62,,,,,,,3,4,3,stim/43.jpeg,HouseObjects,1,stim/objects/HouseObjects/rubbergloves2.png,0.9,4,0.2,-0.15,left,57,2021-02-16_05h09.17.732,premup-three_ses-01_part-01_label-phase1,3.2.4,Win32,60,left,0.644000053,4,0,4,0,1,3,1,0,240,222,1,239,,,,,,,,,,,,,,,,,,
,,0,63,,,,,,,2,1,3,stim/13.jpeg,Instruments,2,stim/objects/Instruments/record.png,0.7,4,0.2,-0.15,right,57,2021-02-16_05h09.17.732,premup-three_ses-01_part-01_label-phase1,3.2.4,Win32,60,left,0.815000057,4,0,4,0,1,3,1,0,240,106,1,239,,,,,,,,,,,,,,,,,,
,,0,64,,,,,,,2,2,2,stim/22.jpeg,Instruments,2,stim/objects/Instruments/laud2.png,0.3,4,0.2,-0.15,right,57,2021-02-16_05h09.17.732,premup-three_ses-01_part-01_label-phase1,3.2.4,Win32,60,left,0.700999975,4,0,4,0,1,3,1,0,240,157,1,239,,,,,,,,,,,,,,,,,,
,,1,65,,,,,,,2,1,1,stim/11.jpeg,Instruments,2,stim/objects/Instruments/panflute.png,0.7,2,0.2,0.15,right,57,2021-02-16_05h09.17.732,premup-three_ses-01_part-01_label-phase1,3.2.4,Win32,60,right,0.881999969,4,0,4,0,1,3,1,0,240,112,1,239,,,,,,,,,,,,,,,,,,
,,0,66,,,,,,,2,2,4,stim/24.jpeg,HouseObjects,1,stim/objects/HouseObjects/knife2.png,0.7,4,0.2,-0.15,left,57,2021-02-16_05h09.17.732,premup-three_ses-01_part-01_label-phase1,3.2.4,Win32,60,right,0.697999954,4,0,4,0,1,3,1,0,240,127,1,239,,,,,,,,,,,,,,,,,,
,,1,67,,,,,,,3,4,3,stim/43.jpeg,HouseObjects,1,stim/objects/HouseObjects/rubbergloves2.png,0.9,1,-0.2,0.15,left,57,2021-02-16_05h09.17.732,premup-three_ses-01_part-01_label-phase1,3.2.4,Win32,60,left,0.592999935,4,0,4,0,1,3,1,0,240,234,1,239,,,,,,,,,,,,,,,,,,
,,1,68,,,,,,,2,2,1,stim/21.jpeg,HouseObjects,1,stim/objects/HouseObjects/iron2.png,0.7,1,-0.2,0.15,left,57,2021-02-16_05h09.17.732,premup-three_ses-01_part-01_label-phase1,3.2.4,Win32,60,left,0.789000034,4,0,4,0,1,3,1,0,240,124,1,239,,,,,,,,,,,,,,,,,,
,,1,69,,,,,,,1,6,2,stim/62.jpeg,HouseObjects,1,stim/objects/HouseObjects/match.png,0.5,1,-0.2,0.15,left,57,2021-02-16_05h09.17.732,premup-three_ses-01_part-01_label-phase1,3.2.4,Win32,60,left,1.017999887,4,0,4,0,1,3,1,0,240,49,1,239,,,,,,,,,,,,,,,,,,
,,0,70,,,,,,,1,6,2,stim/62.jpeg,Instruments,2,stim/objects/Instruments/musicsheet.png,0.5,2,0.2,0.15,right,57,2021-02-16_05h09.17.732,premup-three_ses-01_part-01_label-phase1,3.2.4,Win32,60,left,0.775000095,4,0,4,0,1,3,1,0,240,65,1,239,,,,,,,,,,,,,,,,,,
,,0,71,,,,,,,2,1,1,stim/11.jpeg,Instruments,2,stim/objects/Instruments/panflute.png,0.7,3,-0.2,-0.15,right,57,2021-02-16_05h09.17.732,premup-three_ses-01_part-01_label-phase1,3.2.4,Win32,60,left,0.911999941,4,0,4,0,1,3,1,0,240,100,1,239,,,,,,,,,,,,,,,,,,
,,0,72,,,,,,,1,6,3,stim/63.jpeg,HouseObjects,1,stim/objects/HouseObjects/pan.png,0.5,4,0.2,-0.15,left,57,2021-02-16_05h09.17.732,premup-three_ses-01_part-01_label-phase1,3.2.4,Win32,60,right,0.983999968,4,0,4,0,1,3,1,0,240,46,1,239,,,,,,,,,,,,,,,,,,
,,0,73,,,,,,,1,6,4,stim/64.jpeg,Instruments,2,stim/objects/Instruments/oboe.png,0.5,3,-0.2,-0.15,right,57,2021-02-16_05h09.17.732,premup-three_ses-01_part-01_label-phase1,3.2.4,Win32,60,left,0.907999992,4,0,4,0,1,3,1,0,240,75,1,239,,,,,,,,,,,,,,,,,,
,,0,74,,,,,,,1,5,2,stim/52.jpeg,Instruments,2,stim/objects/Instruments/laud.png,0.5,3,-0.2,-0.15,right,57,2021-02-16_05h09.17.732,premup-three_ses-01_part-01_label-phase1,3.2.4,Win32,60,left,0.969000101,4,0,4,0,1,3,1,0,240,25,1,239,,,,,,,,,,,,,,,,,,
,,0,75,,,,,,,1,5,4,stim/54.jpeg,Instruments,2,stim/objects/Instruments/marimba.png,0.5,3,-0.2,-0.15,right,57,2021-02-16_05h09.17.732,premup-three_ses-01_part-01_label-phase1,3.2.4,Win32,60,left,0.976999998,4,0,4,0,1,3,1,0,240,39,1,239,,,,,,,,,,,,,,,,,,
,,1,76,,,,,,,3,3,1,stim/31.jpeg,Instruments,2,stim/objects/Instruments/metronome2.png,0.9,2,0.2,0.15,right,57,2021-02-16_05h09.17.732,premup-three_ses-01_part-01_label-phase1,3.2.4,Win32,60,right,0.587999821,4,0,4,0,1,3,1,0,240,176,1,239,,,,,,,,,,,,,,,,,,
,,0,77,,,,,,,2,1,4,stim/14.jpeg,Instruments,2,stim/objects/Instruments/record_player.png,0.7,2,0.2,0.15,right,57,2021-02-16_05h09.17.732,premup-three_ses-01_part-01_label-phase1,3.2.4,Win32,60,left,0.782999992,4,0,4,0,1,3,1,0,240,107,1,239,,,,,,,,,,,,,,,,,,
,,1,78,,,,,,,2,2,3,stim/23.jpeg,HouseObjects,1,stim/objects/HouseObjects/key2.png,0.7,3,-0.2,-0.15,left,57,2021-02-16_05h09.17.732,premup-three_ses-01_part-01_label-phase1,3.2.4,Win32,60,left,0.590000153,4,0,4,0,1,3,1,0,240,142,1,239,,,,,,,,,,,,,,,,,,
,,0,79,,,,,,,2,2,4,stim/24.jpeg,Instruments,2,stim/objects/Instruments/marimba2.png,0.3,3,-0.2,-0.15,right,57,2021-02-16_05h09.17.732,premup-three_ses-01_part-01_label-phase1,3.2.4,Win32,60,left,0.450000048,4,0,4,0,1,3,1,0,240,151,1,239,,,,,,,,,,,,,,,,,,
,,1,80,,,,,,,1,6,2,stim/62.jpeg,HouseObjects,1,stim/objects/HouseObjects/match.png,0.5,1,-0.2,0.15,left,57,2021-02-16_05h09.17.732,premup-three_ses-01_part-01_label-phase1,3.2.4,Win32,60,left,0.692000151,4,0,4,0,1,3,1,0,240,53,1,239,,,,,,,,,,,,,,,,,,
,,1,81,,,,,,,3,3,1,stim/31.jpeg,Instruments,2,stim/objects/Instruments/metronome2.png,0.9,2,0.2,0.15,right,57,2021-02-16_05h09.17.732,premup-three_ses-01_part-01_label-phase1,3.2.4,Win32,60,right,0.568000078,4,0,4,0,1,3,1,0,240,180,1,239,,,,,,,,,,,,,,,,,,
,,1,82,,,,,,,1,6,2,stim/62.jpeg,Instruments,2,stim/objects/Instruments/musicsheet.png,0.5,1,-0.2,0.15,right,57,2021-02-16_05h09.17.732,premup-three_ses-01_part-01_label-phase1,3.2.4,Win32,60,right,0.71600008,4,0,4,0,1,3,1,0,240,73,1,239,,,,,,,,,,,,,,,,,,
,,1,83,,,,,,,3,4,3,stim/43.jpeg,HouseObjects,1,stim/objects/HouseObjects/rubbergloves2.png,0.9,2,0.2,0.15,left,57,2021-02-16_05h09.17.732,premup-three_ses-01_part-01_label-phase1,3.2.4,Win32,60,left,0.582999945,4,0,4,0,1,3,1,0,240,218,1,239,,,,,,,,,,,,,,,,,,
,,1,84,,,,,,,1,5,1,stim/51.jpeg,HouseObjects,1,stim/objects/HouseObjects/iron.png,0.5,2,0.2,0.15,left,57,2021-02-16_05h09.17.732,premup-three_ses-01_part-01_label-phase1,3.2.4,Win32,60,left,0.881000042,4,0,4,0,1,3,1,0,240,12,1,239,,,,,,,,,,,,,,,,,,
,,1,85,,,,,,,3,4,1,stim/41.jpeg,HouseObjects,1,stim/objects/HouseObjects/recyclingbin2.png,0.9,1,-0.2,0.15,left,57,2021-02-16_05h09.17.732,premup-three_ses-01_part-01_label-phase1,3.2.4,Win32,60,left,0.538000107,4,0,4,0,1,3,1,0,240,228,1,239,,,,,,,,,,,,,,,,,,
,,0,86,,,,,,,1,6,1,stim/61.jpeg,Instruments,2,stim/objects/Instruments/metronome.png,0.5,3,-0.2,-0.15,right,57,2021-02-16_05h09.17.732,premup-three_ses-01_part-01_label-phase1,3.2.4,Win32,60,left,0.710999966,4,0,4,0,1,3,1,0,240,68,1,239,,,,,,,,,,,,,,,,,,
,,1,87,,,,,,,3,3,3,stim/33.jpeg,Instruments,2,stim/objects/Instruments/musicstand2.png,0.9,1,-0.2,0.15,right,57,2021-02-16_05h09.17.732,premup-three_ses-01_part-01_label-phase1,3.2.4,Win32,60,right,0.545000076,4,0,4,0,1,3,1,0,240,194,1,239,,,,,,,,,,,,,,,,,,
,,0,88,,,,,,,1,5,2,stim/52.jpeg,Instruments,2,stim/objects/Instruments/laud.png,0.5,4,0.2,-0.15,right,57,2021-02-16_05h09.17.732,premup-three_ses-01_part-01_label-phase1,3.2.4,Win32,60,left,0.661999941,4,0,4,0,1,3,1,0,240,33,1,239,,,,,,,,,,,,,,,,,,
,,0,89,,,,,,,1,5,1,stim/51.jpeg,Instruments,2,stim/objects/Instruments/keyboard.png,0.5,4,0.2,-0.15,right,57,2021-02-16_05h09.17.732,premup-three_ses-01_part-01_label-phase1,3.2.4,Win32,60,left,0.737999916,4,0,4,0,1,3,1,0,240,36,1,239,,,,,,,,,,,,,,,,,,
,,1,90,,,,,,,2,2,2,stim/22.jpeg,HouseObjects,1,stim/objects/HouseObjects/ironingboard2.png,0.7,3,-0.2,-0.15,left,57,2021-02-16_05h09.17.732,premup-three_ses-01_part-01_label-phase1,3.2.4,Win32,60,left,0.59800005,4,0,4,0,1,3,1,0,240,145,1,239,,,,,,,,,,,,,,,,,,
,,1,91,,,,,,,3,4,1,stim/41.jpeg,HouseObjects,1,stim/objects/HouseObjects/recyclingbin2.png,0.9,1,-0.2,0.15,left,57,2021-02-16_05h09.17.732,premup-three_ses-01_part-01_label-phase1,3.2.4,Win32,60,left,0.599999905,4,0,4,0,1,3,1,0,240,224,1,239,,,,,,,,,,,,,,,,,,
,,0,92,,,,,,,1,5,2,stim/52.jpeg,HouseObjects,1,stim/objects/HouseObjects/ironingboard.png,0.5,2,0.2,0.15,left,57,2021-02-16_05h09.17.732,premup-three_ses-01_part-01_label-phase1,3.2.4,Win32,60,right,0.664999962,4,0,4,0,1,3,1,0,240,1,1,239,,,,,,,,,,,,,,,,,,
,,1,93,,,,,,,2,2,2,stim/22.jpeg,HouseObjects,1,stim/objects/HouseObjects/ironingboard2.png,0.7,3,-0.2,-0.15,left,57,2021-02-16_05h09.17.732,premup-three_ses-01_part-01_label-phase1,3.2.4,Win32,60,left,0.710999966,4,0,4,0,1,3,1,0,240,129,1,239,,,,,,,,,,,,,,,,,,
,,0,94,,,,,,,1,6,3,stim/63.jpeg,Instruments,2,stim/objects/Instruments/musicstand.png,0.5,3,-0.2,-0.15,right,57,2021-02-16_05h09.17.732,premup-three_ses-01_part-01_label-phase1,3.2.4,Win32,60,left,0.918000221,4,0,4,0,1,3,1,0,240,70,1,239,,,,,,,,,,,,,,,,,,
,,0,95,,,,,,,1,6,4,stim/64.jpeg,Instruments,2,stim/objects/Instruments/oboe.png,0.5,3,-0.2,-0.15,right,57,2021-02-16_05h09.17.732,premup-three_ses-01_part-01_label-phase1,3.2.4,Win32,60,left,1.463000059,4,0,4,0,1,3,1,0,240,63,1,239,,,,,,,,,,,,,,,,,,
,,1,96,,,,,,,1,5,2,stim/52.jpeg,HouseObjects,1,stim/objects/HouseObjects/ironingboard.png,0.5,2,0.2,0.15,left,57,2021-02-16_05h09.17.732,premup-three_ses-01_part-01_label-phase1,3.2.4,Win32,60,left,0.730000019,4,0,4,0,1,3,1,0,240,17,1,239,,,,,,,,,,,,,,,,,,
,,0,97,,,,,,,2,2,3,stim/23.jpeg,HouseObjects,1,stim/objects/HouseObjects/key2.png,0.7,2,0.2,0.15,left,57,2021-02-16_05h09.17.732,premup-three_ses-01_part-01_label-phase1,3.2.4,Win32,60,right,0.851999998,4,0,4,0,1,3,1,0,240,134,1,239,,,,,,,,,,,,,,,,,,
,,0,98,,,,,,,2,1,4,stim/14.jpeg,Instruments,2,stim/objects/Instruments/record_player.png,0.7,4,0.2,-0.15,right,57,2021-02-16_05h09.17.732,premup-three_ses-01_part-01_label-phase1,3.2.4,Win32,60,left,0.909000158,4,0,4,0,1,3,1,0,240,115,1,239,,,,,,,,,,,,,,,,,,
,,0,99,,,,,,,1,6,2,stim/62.jpeg,HouseObjects,1,stim/objects/HouseObjects/match.png,0.5,3,-0.2,-0.15,left,57,2021-02-16_05h09.17.732,premup-three_ses-01_part-01_label-phase1,3.2.4,Win32,60,right,0.680000067,4,0,4,0,1,3,1,0,240,57,1,239,,,,,,,,,,,,,,,,,,
,,0,100,,,,,,,2,1,1,stim/11.jpeg,Instruments,2,stim/objects/Instruments/panflute.png,0.7,1,-0.2,0.15,right,57,2021-02-16_05h09.17.732,premup-three_ses-01_part-01_label-phase1,3.2.4,Win32,60,left,0.837999821,4,0,4,0,1,3,1,0,240,108,1,239,,,,,,,,,,,,,,,,,,
,,1,101,,,,,,,2,2,1,stim/21.jpeg,HouseObjects,1,stim/objects/HouseObjects/iron2.png,0.7,1,-0.2,0.15,left,57,2021-02-16_05h09.17.732,premup-three_ses-01_part-01_label-phase1,3.2.4,Win32,60,left,0.631000042,4,0,4,0,1,3,1,0,240,136,1,239,,,,,,,,,,,,,,,,,,
,,1,102,,,,,,,3,4,1,stim/41.jpeg,HouseObjects,1,stim/objects/HouseObjects/recyclingbin2.png,0.9,3,-0.2,-0.15,left,57,2021-02-16_05h09.17.732,premup-three_ses-01_part-01_label-phase1,3.2.4,Win32,60,left,0.549999952,4,0,4,0,1,3,1,0,240,212,1,239,,,,,,,,,,,,,,,,,,
,,0,103,,,,,,,1,6,1,stim/61.jpeg,Instruments,2,stim/objects/Instruments/metronome.png,0.5,3,-0.2,-0.15,right,57,2021-02-16_05h09.17.732,premup-three_ses-01_part-01_label-phase1,3.2.4,Win32,60,left,0.929000139,4,0,4,0,1,3,1,0,240,76,1,239,,,,,,,,,,,,,,,,,,
,,1,104,,,,,,,3,4,4,stim/44.jpeg,HouseObjects,1,stim/objects/HouseObjects/rug2.png,0.9,1,-0.2,0.15,left,57,2021-02-16_05h09.17.732,premup-three_ses-01_part-01_label-phase1,3.2.4,Win32,60,left,0.493000031,4,0,4,0,1,3,1,0,240,207,1,239,,,,,,,,,,,,,,,,,,
,,1,105,,,,,,,2,1,2,stim/12.jpeg,Instruments,2,stim/objects/Instruments/pipepiano.png,0.7,1,-0.2,0.15,right,57,2021-02-16_05h09.17.732,premup-three_ses-01_part-01_label-phase1,3.2.4,Win32,60,right,0.749000072,4,0,4,0,1,3,1,0,240,117,1,239,,,,,,,,,,,,,,,,,,
,,1,106,,,,,,,3,4,4,stim/44.jpeg,HouseObjects,1,stim/objects/HouseObjects/rug2.png,0.9,4,0.2,-0.15,left,57,2021-02-16_05h09.17.732,premup-three_ses-01_part-01_label-phase1,3.2.4,Win32,60,left,0.5,4,0,4,0,1,3,1,0,240,235,1,239,,,,,,,,,,,,,,,,,,
,,1,107,,,,,,,2,1,2,stim/12.jpeg,Instruments,2,stim/objects/Instruments/pipepiano.png,0.7,1,-0.2,0.15,right,57,2021-02-16_05h09.17.732,premup-three_ses-01_part-01_label-phase1,3.2.4,Win32,60,right,0.453000069,4,0,4,0,1,3,1,0,240,93,1,239,,,,,,,,,,,,,,,,,,
,,0,108,,,,,,,1,5,3,stim/53.jpeg,HouseObjects,1,stim/objects/HouseObjects/key.png,0.5,3,-0.2,-0.15,left,57,2021-02-16_05h09.17.732,premup-three_ses-01_part-01_label-phase1,3.2.4,Win32,60,right,0.654000044,4,0,4,0,1,3,1,0,240,10,1,239,,,,,,,,,,,,,,,,,,
,,1,109,,,,,,,1,5,2,stim/52.jpeg,HouseObjects,1,stim/objects/HouseObjects/ironingboard.png,0.5,3,-0.2,-0.15,left,57,2021-02-16_05h09.17.732,premup-three_ses-01_part-01_label-phase1,3.2.4,Win32,60,left,0.577000141,4,0,4,0,1,3,1,0,240,5,1,239,,,,,,,,,,,,,,,,,,
,,0,110,,,,,,,1,5,4,stim/54.jpeg,HouseObjects,1,stim/objects/HouseObjects/knife.png,0.5,4,0.2,-0.15,left,57,2021-02-16_05h09.17.732,premup-three_ses-01_part-01_label-phase1,3.2.4,Win32,60,right,0.756999969,4,0,4,0,1,3,1,0,240,19,1,239,,,,,,,,,,,,,,,,,,
,,1,111,,,,,,,3,3,4,stim/34.jpeg,Instruments,2,stim/objects/Instruments/oboe2.png,0.9,1,-0.2,0.15,right,57,2021-02-16_05h09.17.732,premup-three_ses-01_part-01_label-phase1,3.2.4,Win32,60,right,0.609999895,4,0,4,0,1,3,1,0,240,199,1,239,,,,,,,,,,,,,,,,,,
,,1,112,,,,,,,1,6,4,stim/64.jpeg,Instruments,2,stim/objects/Instruments/oboe.png,0.5,3,-0.2,-0.15,right,57,2021-02-16_05h09.17.732,premup-three_ses-01_part-01_label-phase1,3.2.4,Win32,60,right,0.75999999,4,0,4,0,1,3,1,0,240,79,1,239,,,,,,,,,,,,,,,,,,
,,0,113,,,,,,,2,1,2,stim/12.jpeg,HouseObjects,1,stim/objects/HouseObjects/remote.png,0.3,1,-0.2,0.15,left,57,2021-02-16_05h09.17.732,premup-three_ses-01_part-01_label-phase1,3.2.4,Win32,60,right,0.620999813,4,0,4,0,1,3,1,0,240,89,1,239,,,,,,,,,,,,,,,,,,
,,0,114,,,,,,,2,2,1,stim/21.jpeg,Instruments,2,stim/objects/Instruments/keyboard2.png,0.3,2,0.2,0.15,right,57,2021-02-16_05h09.17.732,premup-three_ses-01_part-01_label-phase1,3.2.4,Win32,60,left,0.572000027,4,0,4,0,1,3,1,0,240,148,1,239,,,,,,,,,,,,,,,,,,
,,0,115,,,,,,,1,5,2,stim/52.jpeg,HouseObjects,1,stim/objects/HouseObjects/ironingboard.png,0.5,2,0.2,0.15,left,57,2021-02-16_05h09.17.732,premup-three_ses-01_part-01_label-phase1,3.2.4,Win32,60,right,0.963000059,4,0,4,0,1,3,1,0,240,9,1,239,,,,,,,,,,,,,,,,,,
,,0,116,,,,,,,2,1,3,stim/13.jpeg,HouseObjects,1,stim/objects/HouseObjects/rubbergloves.png,0.3,4,0.2,-0.15,left,57,2021-02-16_05h09.17.732,premup-three_ses-01_part-01_label-phase1,3.2.4,Win32,60,right,0.796000004,4,0,4,0,1,3,1,0,240,82,1,239,,,,,,,,,,,,,,,,,,
,,0,117,,,,,,,2,2,3,stim/23.jpeg,Instruments,2,stim/objects/Instruments/maraca2.png,0.3,2,0.2,0.15,right,57,2021-02-16_05h09.17.732,premup-three_ses-01_part-01_label-phase1,3.2.4,Win32,60,left,0.667000055,4,0,4,0,1,3,1,0,240,154,1,239,,,,,,,,,,,,,,,,,,
,,1,118,,,,,,,2,2,3,stim/23.jpeg,HouseObjects,1,stim/objects/HouseObjects/key2.png,0.7,1,-0.2,0.15,left,57,2021-02-16_05h09.17.732,premup-three_ses-01_part-01_label-phase1,3.2.4,Win32,60,left,0.65199995,4,0,4,0,1,3,1,0,240,126,1,239,,,,,,,,,,,,,,,,,,
,,0,119,,,,,,,2,1,3,stim/13.jpeg,Instruments,2,stim/objects/Instruments/record.png,0.7,4,0.2,-0.15,right,57,2021-02-16_05h09.17.732,premup-three_ses-01_part-01_label-phase1,3.2.4,Win32,60,left,0.90199995,4,0,4,0,1,3,1,0,240,110,1,239,,,,,,,,,,,,,,,,,,
,,0,120,,,,,,,1,5,4,stim/54.jpeg,Instruments,2,stim/objects/Instruments/marimba.png,0.5,4,0.2,-0.15,right,57,2021-02-16_05h09.17.732,premup-three_ses-01_part-01_label-phase1,3.2.4,Win32,60,left,0.674000025,4,0,4,0,1,3,1,0,240,35,1,239,,,,,,,,,,,,,,,,,,
,,0,121,,,,,,,1,5,3,stim/53.jpeg,HouseObjects,1,stim/objects/HouseObjects/key.png,0.5,4,0.2,-0.15,left,57,2021-02-16_05h09.17.732,premup-three_ses-01_part-01_label-phase1,3.2.4,Win32,60,right,0.959000111,4,0,4,0,1,3,1,0,240,18,1,239,,,,,,,,,,,,,,,,,,
,,1,122,,,,,,,3,4,1,stim/41.jpeg,HouseObjects,1,stim/objects/HouseObjects/recyclingbin2.png,0.9,3,-0.2,-0.15,left,57,2021-02-16_05h09.17.732,premup-three_ses-01_part-01_label-phase1,3.2.4,Win32,60,left,0.563000202,4,0,4,0,1,3,1,0,240,232,1,239,,,,,,,,,,,,,,,,,,
,,0,123,,,,,,,1,6,1,stim/61.jpeg,HouseObjects,1,stim/objects/HouseObjects/lintroller.png,0.5,4,0.2,-0.15,left,57,2021-02-16_05h09.17.732,premup-three_ses-01_part-01_label-phase1,3.2.4,Win32,60,right,0.819999933,4,0,4,0,1,3,1,0,240,44,1,239,,,,,,,,,,,,,,,,,,
,,1,124,,,,,,,2,1,3,stim/13.jpeg,Instruments,2,stim/objects/Instruments/record.png,0.7,4,0.2,-0.15,right,57,2021-02-16_05h09.17.732,premup-three_ses-01_part-01_label-phase1,3.2.4,Win32,60,right,0.651000023,4,0,4,0,1,3,1,0,240,114,1,239,,,,,,,,,,,,,,,,,,
,,0,125,,,,,,,2,2,2,stim/22.jpeg,Instruments,2,stim/objects/Instruments/laud2.png,0.3,4,0.2,-0.15,right,57,2021-02-16_05h09.17.732,premup-three_ses-01_part-01_label-phase1,3.2.4,Win32,60,left,0.792999983,4,0,4,0,1,3,1,0,240,149,1,239,,,,,,,,,,,,,,,,,,
,,1,126,,,,,,,2,1,4,stim/14.jpeg,Instruments,2,stim/objects/Instruments/record_player.png,0.7,3,-0.2,-0.15,right,57,2021-02-16_05h09.17.732,premup-three_ses-01_part-01_label-phase1,3.2.4,Win32,60,right,1.326000214,4,0,4,0,1,3,1,0,240,103,1,239,,,,,,,,,,,,,,,,,,
,,0,127,,,,,,,2,2,1,stim/21.jpeg,HouseObjects,1,stim/objects/HouseObjects/iron2.png,0.7,3,-0.2,-0.15,left,57,2021-02-16_05h09.17.732,premup-three_ses-01_part-01_label-phase1,3.2.4,Win32,60,right,0.761999846,4,0,4,0,1,3,1,0,240,140,1,239,,,,,,,,,,,,,,,,,,
,,1,128,,,,,,,1,5,4,stim/54.jpeg,Instruments,2,stim/objects/Instruments/marimba.png,0.5,2,0.2,0.15,right,57,2021-02-16_05h09.17.732,premup-three_ses-01_part-01_label-phase1,3.2.4,Win32,60,right,1.161999941,4,0,4,0,1,3,1,0,240,23,1,239,,,,,,,,,,,,,,,,,,
,,0,129,,,,,,,1,5,1,stim/51.jpeg,Instruments,2,stim/objects/Instruments/keyboard.png,0.5,4,0.2,-0.15,right,57,2021-02-16_05h09.17.732,premup-three_ses-01_part-01_label-phase1,3.2.4,Win32,60,left,1.138000011,4,0,4,0,1,3,1,0,240,28,1,239,,,,,,,,,,,,,,,,,,
,,0,130,,,,,,,2,2,3,stim/23.jpeg,HouseObjects,1,stim/objects/HouseObjects/key2.png,0.7,4,0.2,-0.15,left,57,2021-02-16_05h09.17.732,premup-three_ses-01_part-01_label-phase1,3.2.4,Win32,60,right,0.559000015,4,0,4,0,1,3,1,0,240,122,1,239,,,,,,,,,,,,,,,,,,
,,0,131,,,,,,,2,2,1,stim/21.jpeg,Instruments,2,stim/objects/Instruments/keyboard2.png,0.3,4,0.2,-0.15,right,57,2021-02-16_05h09.17.732,premup-three_ses-01_part-01_label-phase1,3.2.4,Win32,60,left,0.846999884,4,0,4,0,1,3,1,0,240,156,1,239,,,,,,,,,,,,,,,,,,
,,1,132,,,,,,,3,4,3,stim/43.jpeg,HouseObjects,1,stim/objects/HouseObjects/rubbergloves2.png,0.9,2,0.2,0.15,left,57,2021-02-16_05h09.17.732,premup-three_ses-01_part-01_label-phase1,3.2.4,Win32,60,left,0.563000202,4,0,4,0,1,3,1,0,240,226,1,239,,,,,,,,,,,,,,,,,,
,,1,133,,,,,,,3,3,3,stim/33.jpeg,Instruments,2,stim/objects/Instruments/musicstand2.png,0.9,2,0.2,0.15,right,57,2021-02-16_05h09.17.732,premup-three_ses-01_part-01_label-phase1,3.2.4,Win32,60,right,0.464999914,4,0,4,0,1,3,1,0,240,198,1,239,,,,,,,,,,,,,,,,,,
,,0,134,,,,,,,2,2,1,stim/21.jpeg,Instruments,2,stim/objects/Instruments/keyboard2.png,0.3,4,0.2,-0.15,right,57,2021-02-16_05h09.17.732,premup-three_ses-01_part-01_label-phase1,3.2.4,Win32,60,left,0.670000076,4,0,4,0,1,3,1,0,240,152,1,239,,,,,,,,,,,,,,,,,,
,,0,135,,,,,,,3,4,2,stim/42.jpeg,HouseObjects,1,stim/objects/HouseObjects/remote2.png,0.9,1,-0.2,0.15,left,57,2021-02-16_05h09.17.732,premup-three_ses-01_part-01_label-phase1,3.2.4,Win32,60,right,0.812999964,4,0,4,0,1,3,1,0,240,233,1,239,,,,,,,,,,,,,,,,,,
,,1,136,,,,,,,2,2,2,stim/22.jpeg,HouseObjects,1,stim/objects/HouseObjects/ironingboard2.png,0.7,3,-0.2,-0.15,left,57,2021-02-16_05h09.17.732,premup-three_ses-01_part-01_label-phase1,3.2.4,Win32,60,left,0.569000006,4,0,4,0,1,3,1,0,240,137,1,239,,,,,,,,,,,,,,,,,,
,,1,137,,,,,,,3,4,1,stim/41.jpeg,HouseObjects,1,stim/objects/HouseObjects/recyclingbin2.png,0.9,1,-0.2,0.15,left,57,2021-02-16_05h09.17.732,premup-three_ses-01_part-01_label-phase1,3.2.4,Win32,60,left,0.481999874,4,0,4,0,1,3,1,0,240,200,1,239,,,,,,,,,,,,,,,,,,
,,1,138,,,,,,,3,3,1,stim/31.jpeg,Instruments,2,stim/objects/Instruments/metronome2.png,0.9,4,0.2,-0.15,right,57,2021-02-16_05h09.17.732,premup-three_ses-01_part-01_label-phase1,3.2.4,Win32,60,right,0.411000013,4,0,4,0,1,3,1,0,240,168,1,239,,,,,,,,,,,,,,,,,,
,,0,139,,,,,,,2,2,3,stim/23.jpeg,Instruments,2,stim/objects/Instruments/maraca2.png,0.3,1,-0.2,0.15,right,57,2021-02-16_05h09.17.732,premup-three_ses-01_part-01_label-phase1,3.2.4,Win32,60,left,0.792000055,4,0,4,0,1,3,1,0,240,158,1,239,,,,,,,,,,,,,,,,,,
,,0,140,,,,,,,2,2,3,stim/23.jpeg,HouseObjects,1,stim/objects/HouseObjects/key2.png,0.7,1,-0.2,0.15,left,57,2021-02-16_05h09.17.732,premup-three_ses-01_part-01_label-phase1,3.2.4,Win32,60,right,0.413999796,4,0,4,0,1,3,1,0,240,138,1,239,,,,,,,,,,,,,,,,,,
,,0,141,,,,,,,3,3,3,stim/33.jpeg,HouseObjects,1,stim/objects/HouseObjects/pan2.png,0.1,4,0.2,-0.15,left,57,2021-02-16_05h09.17.732,premup-three_ses-01_part-01_label-phase1,3.2.4,Win32,60,right,0.464999914,4,0,4,0,1,3,1,0,240,162,1,239,,,,,,,,,,,,,,,,,,
,,0,142,,,,,,,1,5,2,stim/52.jpeg,Instruments,2,stim/objects/Instruments/laud.png,0.5,2,0.2,0.15,right,57,2021-02-16_05h09.17.732,premup-three_ses-01_part-01_label-phase1,3.2.4,Win32,60,left,1.006999969,4,0,4,0,1,3,1,0,240,29,1,239,,,,,,,,,,,,,,,,,,
,,1,143,,,,,,,3,3,3,stim/33.jpeg,Instruments,2,stim/objects/Instruments/musicstand2.png,0.9,2,0.2,0.15,right,57,2021-02-16_05h09.17.732,premup-three_ses-01_part-01_label-phase1,3.2.4,Win32,60,right,0.422999859,4,0,4,0,1,3,1,0,240,166,1,239,,,,,,,,,,,,,,,,,,
,,0,144,,,,,,,2,2,2,stim/22.jpeg,HouseObjects,1,stim/objects/HouseObjects/ironingboard2.png,0.7,1,-0.2,0.15,left,57,2021-02-16_05h09.17.732,premup-three_ses-01_part-01_label-phase1,3.2.4,Win32,60,right,0.715000153,4,0,4,0,1,3,1,0,240,133,1,239,,,,,,,,,,,,,,,,,,
,,1,145,,,,,,,3,3,4,stim/34.jpeg,Instruments,2,stim/objects/Instruments/oboe2.png,0.9,1,-0.2,0.15,right,57,2021-02-16_05h09.17.732,premup-three_ses-01_part-01_label-phase1,3.2.4,Win32,60,right,0.501000166,4,0,4,0,1,3,1,0,240,183,1,239,,,,,,,,,,,,,,,,,,
,,1,146,,,,,,,3,4,4,stim/44.jpeg,HouseObjects,1,stim/objects/HouseObjects/rug2.png,0.9,2,0.2,0.15,left,57,2021-02-16_05h09.17.732,premup-three_ses-01_part-01_label-phase1,3.2.4,Win32,60,left,0.514999866,4,0,4,0,1,3,1,0,240,203,1,239,,,,,,,,,,,,,,,,,,
,,0,147,,,,,,,1,6,1,stim/61.jpeg,HouseObjects,1,stim/objects/HouseObjects/lintroller.png,0.5,1,-0.2,0.15,left,57,2021-02-16_05h09.17.732,premup-three_ses-01_part-01_label-phase1,3.2.4,Win32,60,right,0.852999926,4,0,4,0,1,3,1,0,240,56,1,239,,,,,,,,,,,,,,,,,,
,,1,148,,,,,,,3,3,4,stim/34.jpeg,Instruments,2,stim/objects/Instruments/oboe2.png,0.9,4,0.2,-0.15,right,57,2021-02-16_05h09.17.732,premup-three_ses-01_part-01_label-phase1,3.2.4,Win32,60,right,0.57799983,4,0,4,0,1,3,1,0,240,167,1,239,,,,,,,,,,,,,,,,,,
,,0,149,,,,,,,1,6,3,stim/63.jpeg,Instruments,2,stim/objects/Instruments/musicstand.png,0.5,2,0.2,0.15,right,57,2021-02-16_05h09.17.732,premup-three_ses-01_part-01_label-phase1,3.2.4,Win32,60,left,0.803999901,4,0,4,0,1,3,1,0,240,78,1,239,,,,,,,,,,,,,,,,,,
,,1,150,,,,,,,3,4,3,stim/43.jpeg,HouseObjects,1,stim/objects/HouseObjects/rubbergloves2.png,0.9,2,0.2,0.15,left,57,2021-02-16_05h09.17.732,premup-three_ses-01_part-01_label-phase1,3.2.4,Win32,60,left,0.593000174,4,0,4,0,1,3,1,0,240,214,1,239,,,,,,,,,,,,,,,,,,
,,1,151,,,,,,,2,2,4,stim/24.jpeg,HouseObjects,1,stim/objects/HouseObjects/knife2.png,0.7,4,0.2,-0.15,left,57,2021-02-16_05h09.17.732,premup-three_ses-01_part-01_label-phase1,3.2.4,Win32,60,left,0.703999996,4,0,4,0,1,3,1,0,240,147,1,239,,,,,,,,,,,,,,,,,,
,,1,152,,,,,,,2,1,3,stim/13.jpeg,Instruments,2,stim/objects/Instruments/record.png,0.7,4,0.2,-0.15,right,57,2021-02-16_05h09.17.732,premup-three_ses-01_part-01_label-phase1,3.2.4,Win32,60,right,0.874000072,4,0,4,0,1,3,1,0,240,94,1,239,,,,,,,,,,,,,,,,,,
,,1,153,,,,,,,3,4,1,stim/41.jpeg,HouseObjects,1,stim/objects/HouseObjects/recyclingbin2.png,0.9,2,0.2,0.15,left,57,2021-02-16_05h09.17.732,premup-three_ses-01_part-01_label-phase1,3.2.4,Win32,60,left,0.592000008,4,0,4,0,1,3,1,0,240,216,1,239,,,,,,,,,,,,,,,,,,
,,0,154,,,,,,,3,3,2,stim/32.jpeg,HouseObjects,1,stim/objects/HouseObjects/match2.png,0.1,4,0.2,-0.15,left,57,2021-02-16_05h09.17.732,premup-three_ses-01_part-01_label-phase1,3.2.4,Win32,60,right,0.488999844,4,0,4,0,1,3,1,0,240,161,1,239,,,,,,,,,,,,,,,,,,
,,0,155,,,,,,,2,1,1,stim/11.jpeg,HouseObjects,1,stim/objects/HouseObjects/recyclingbin.png,0.3,2,0.2,0.15,left,57,2021-02-16_05h09.17.732,premup-three_ses-01_part-01_label-phase1,3.2.4,Win32,60,right,1.246999979,4,0,4,0,1,3,1,0,240,88,1,239,,,,,,,,,,,,,,,,,,
,,0,156,,,,,,,1,5,4,stim/54.jpeg,Instruments,2,stim/objects/Instruments/marimba.png,0.5,3,-0.2,-0.15,right,57,2021-02-16_05h09.17.732,premup-three_ses-01_part-01_label-phase1,3.2.4,Win32,60,left,0.835000038,4,0,4,0,1,3,1,0,240,31,1,239,,,,,,,,,,,,,,,,,,
,,1,157,,,,,,,2,2,3,stim/23.jpeg,HouseObjects,1,stim/objects/HouseObjects/key2.png,0.7,2,0.2,0.15,left,57,2021-02-16_05h09.17.732,premup-three_ses-01_part-01_label-phase1,3.2.4,Win32,60,left,0.585000038,4,0,4,0,1,3,1,0,240,146,1,239,,,,,,,,,,,,,,,,,,
,,0,158,,,,,,,2,2,4,stim/24.jpeg,Instruments,2,stim/objects/Instruments/marimba2.png,0.3,2,0.2,0.15,right,57,2021-02-16_05h09.17.732,premup-three_ses-01_part-01_label-phase1,3.2.4,Win32,60,left,0.457000017,4,0,4,0,1,3,1,0,240,159,1,239,,,,,,,,,,,,,,,,,,
,,1,159,,,,,,,1,6,2,stim/62.jpeg,HouseObjects,1,stim/objects/HouseObjects/match.png,0.5,3,-0.2,-0.15,left,57,2021-02-16_05h09.17.732,premup-three_ses-01_part-01_label-phase1,3.2.4,Win32,60,left,0.611000061,4,0,4,0,1,3,1,0,240,41,1,239,,,,,,,,,,,,,,,,,,
,,1,160,,,,,,,1,5,3,stim/53.jpeg,HouseObjects,1,stim/objects/HouseObjects/key.png,0.5,2,0.2,0.15,left,57,2021-02-16_05h09.17.732,premup-three_ses-01_part-01_label-phase1,3.2.4,Win32,60,left,1.075999975,4,0,4,0,1,3,1,0,240,14,1,239,,,,,,,,,,,,,,,,,,
,,1,161,,,,,,,3,4,1,stim/41.jpeg,HouseObjects,1,stim/objects/HouseObjects/recyclingbin2.png,0.9,1,-0.2,0.15,left,57,2021-02-16_05h09.17.732,premup-three_ses-01_part-01_label-phase1,3.2.4,Win32,60,left,0.56099987,4,0,4,0,1,3,1,0,240,208,1,239,,,,,,,,,,,,,,,,,,
,,0,162,,,,,,,2,2,1,stim/21.jpeg,HouseObjects,1,stim/objects/HouseObjects/iron2.png,0.7,1,-0.2,0.15,left,57,2021-02-16_05h09.17.732,premup-three_ses-01_part-01_label-phase1,3.2.4,Win32,60,right,1.003999949,4,0,4,0,1,3,1,0,240,132,1,239,,,,,,,,,,,,,,,,,,
,,0,163,,,,,,,1,5,3,stim/53.jpeg,Instruments,2,stim/objects/Instruments/maraca.png,0.5,3,-0.2,-0.15,right,57,2021-02-16_05h09.17.732,premup-three_ses-01_part-01_label-phase1,3.2.4,Win32,60,left,1.071000099,4,0,4,0,1,3,1,0,240,30,1,239,,,,,,,,,,,,,,,,,,
,,1,164,,,,,,,3,3,1,stim/31.jpeg,Instruments,2,stim/objects/Instruments/metronome2.png,0.9,3,-0.2,-0.15,right,57,2021-02-16_05h09.17.732,premup-three_ses-01_part-01_label-phase1,3.2.4,Win32,60,right,0.486000061,4,0,4,0,1,3,1,0,240,188,1,239,,,,,,,,,,,,,,,,,,
,,1,165,,,,,,,2,2,4,stim/24.jpeg,HouseObjects,1,stim/objects/HouseObjects/knife2.png,0.7,3,-0.2,-0.15,left,57,2021-02-16_05h09.17.732,premup-three_ses-01_part-01_label-phase1,3.2.4,Win32,60,left,0.711999893,4,0,4,0,1,3,1,0,240,139,1,239,,,,,,,,,,,,,,,,,,
,,1,166,,,,,,,1,5,3,stim/53.jpeg,Instruments,2,stim/objects/Instruments/maraca.png,0.5,2,0.2,0.15,right,57,2021-02-16_05h09.17.732,premup-three_ses-01_part-01_label-phase1,3.2.4,Win32,60,right,0.940999985,4,0,4,0,1,3,1,0,240,26,1,239,,,,,,,,,,,,,,,,,,
,,1,167,,,,,,,2,2,1,stim/21.jpeg,HouseObjects,1,stim/objects/HouseObjects/iron2.png,0.7,2,0.2,0.15,left,57,2021-02-16_05h09.17.732,premup-three_ses-01_part-01_label-phase1,3.2.4,Win32,60,left,0.812999964,4,0,4,0,1,3,1,0,240,144,1,239,,,,,,,,,,,,,,,,,,
,,1,168,,,,,,,3,4,4,stim/44.jpeg,HouseObjects,1,stim/objects/HouseObjects/rug2.png,0.9,4,0.2,-0.15,left,57,2021-02-16_05h09.17.732,premup-three_ses-01_part-01_label-phase1,3.2.4,Win32,60,left,0.623999834,4,0,4,0,1,3,1,0,240,223,1,239,,,,,,,,,,,,,,,,,,
,,0,169,,,,,,,1,6,3,stim/63.jpeg,HouseObjects,1,stim/objects/HouseObjects/pan.png,0.5,1,-0.2,0.15,left,57,2021-02-16_05h09.17.732,premup-three_ses-01_part-01_label-phase1,3.2.4,Win32,60,right,0.975000143,4,0,4,0,1,3,1,0,240,42,1,239,,,,,,,,,,,,,,,,,,
,,1,170,,,,,,,2,1,4,stim/14.jpeg,HouseObjects,1,stim/objects/HouseObjects/rug.png,0.3,2,0.2,0.15,left,57,2021-02-16_05h09.17.732,premup-three_ses-01_part-01_label-phase1,3.2.4,Win32,60,left,0.869999886,4,0,4,0,1,3,1,0,240,87,1,239,,,,,,,,,,,,,,,,,,
,,0,171,,,,,,,3,4,2,stim/42.jpeg,Instruments,2,stim/objects/Instruments/pipepiano2.png,0.1,3,-0.2,-0.15,right,57,2021-02-16_05h09.17.732,premup-three_ses-01_part-01_label-phase1,3.2.4,Win32,60,left,0.984999895,4,0,4,0,1,3,1,0,240,237,1,239,,,,,,,,,,,,,,,,,,
,,0,172,,,,,,,2,1,1,stim/11.jpeg,Instruments,2,stim/objects/Instruments/panflute.png,0.7,2,0.2,0.15,right,57,2021-02-16_05h09.17.732,premup-three_ses-01_part-01_label-phase1,3.2.4,Win32,60,left,1.025000095,4,0,4,0,1,3,1,0,240,96,1,239,,,,,,,,,,,,,,,,,,
,,1,173,,,,,,,3,3,2,stim/32.jpeg,Instruments,2,stim/objects/Instruments/musicsheet2.png,0.9,4,0.2,-0.15,right,57,2021-02-16_05h09.17.732,premup-three_ses-01_part-01_label-phase1,3.2.4,Win32,60,right,0.519999981,4,0,4,0,1,3,1,0,240,173,1,239,,,,,,,,,,,,,,,,,,
,,1,174,,,,,,,3,4,3,stim/43.jpeg,HouseObjects,1,stim/objects/HouseObjects/rubbergloves2.png,0.9,3,-0.2,-0.15,left,57,2021-02-16_05h09.17.732,premup-three_ses-01_part-01_label-phase1,3.2.4,Win32,60,left,0.504999876,4,0,4,0,1,3,1,0,240,206,1,239,,,,,,,,,,,,,,,,,,
,,0,175,,,,,,,3,3,1,stim/31.jpeg,HouseObjects,1,stim/objects/HouseObjects/lintroller2.png,0.1,4,0.2,-0.15,left,57,2021-02-16_05h09.17.732,premup-three_ses-01_part-01_label-phase1,3.2.4,Win32,60,right,0.488999844,4,0,4,0,1,3,1,0,240,160,1,239,,,,,,,,,,,,,,,,,,
,,1,176,,,,,,,3,4,1,stim/41.jpeg,HouseObjects,1,stim/objects/HouseObjects/recyclingbin2.png,0.9,1,-0.2,0.15,left,57,2021-02-16_05h09.17.732,premup-three_ses-01_part-01_label-phase1,3.2.4,Win32,60,left,0.633000135,4,0,4,0,1,3,1,0,240,220,1,239,,,,,,,,,,,,,,,,,,
,,1,177,,,,,,,2,2,4,stim/24.jpeg,HouseObjects,1,stim/objects/HouseObjects/knife2.png,0.7,3,-0.2,-0.15,left,57,2021-02-16_05h09.17.732,premup-three_ses-01_part-01_label-phase1,3.2.4,Win32,60,left,0.541000128,4,0,4,0,1,3,1,0,240,143,1,239,,,,,,,,,,,,,,,,,,
,,0,178,,,,,,,1,6,3,stim/63.jpeg,HouseObjects,1,stim/objects/HouseObjects/pan.png,0.5,1,-0.2,0.15,left,57,2021-02-16_05h09.17.732,premup-three_ses-01_part-01_label-phase1,3.2.4,Win32,60,right,0.910000086,4,0,4,0,1,3,1,0,240,58,1,239,,,,,,,,,,,,,,,,,,
,,0,179,,,,,,,1,5,3,stim/53.jpeg,Instruments,2,stim/objects/Instruments/maraca.png,0.5,3,-0.2,-0.15,right,57,2021-02-16_05h09.17.732,premup-three_ses-01_part-01_label-phase1,3.2.4,Win32,60,left,0.719000101,4,0,4,0,1,3,1,0,240,22,1,239,,,,,,,,,,,,,,,,,,
,,1,180,,,,,,,2,2,1,stim/21.jpeg,HouseObjects,1,stim/objects/HouseObjects/iron2.png,0.7,1,-0.2,0.15,left,57,2021-02-16_05h09.17.732,premup-three_ses-01_part-01_label-phase1,3.2.4,Win32,60,left,0.519000053,4,0,4,0,1,3,1,0,240,120,1,239,,,,,,,,,,,,,,,,,,
,,1,181,,,,,,,1,6,4,stim/64.jpeg,HouseObjects,1,stim/objects/HouseObjects/pitcher.png,0.5,3,-0.2,-0.15,left,57,2021-02-16_05h09.17.732,premup-three_ses-01_part-01_label-phase1,3.2.4,Win32,60,left,1.121999979,4,0,4,0,1,3,1,0,240,47,1,239,,,,,,,,,,,,,,,,,,
,,1,182,,,,,,,1,6,3,stim/63.jpeg,Instruments,2,stim/objects/Instruments/musicstand.png,0.5,1,-0.2,0.15,right,57,2021-02-16_05h09.17.732,premup-three_ses-01_part-01_label-phase1,3.2.4,Win32,60,right,1.21600008,4,0,4,0,1,3,1,0,240,66,1,239,,,,,,,,,,,,,,,,,,
,,0,183,,,,,,,2,1,4,stim/14.jpeg,Instruments,2,stim/objects/Instruments/record_player.png,0.7,4,0.2,-0.15,right,57,2021-02-16_05h09.17.732,premup-three_ses-01_part-01_label-phase1,3.2.4,Win32,60,left,1.217000008,4,0,4,0,1,3,1,0,240,119,1,239,,,,,,,,,,,,,,,,,,
,,0,184,,,,,,,2,1,4,stim/14.jpeg,HouseObjects,1,stim/objects/HouseObjects/rug.png,0.3,3,-0.2,-0.15,left,57,2021-02-16_05h09.17.732,premup-three_ses-01_part-01_label-phase1,3.2.4,Win32,60,right,1.019999981,4,0,4,0,1,3,1,0,240,91,1,239,,,,,,,,,,,,,,,,,,
,,1,185,,,,,,,1,6,4,stim/64.jpeg,Instruments,2,stim/objects/Instruments/oboe.png,0.5,2,0.2,0.15,right,57,2021-02-16_05h09.17.732,premup-three_ses-01_part-01_label-phase1,3.2.4,Win32,60,right,0.680999994,4,0,4,0,1,3,1,0,240,67,1,239,,,,,,,,,,,,,,,,,,
,,0,186,,,,,,,3,4,3,stim/43.jpeg,Instruments,2,stim/objects/Instruments/record2.png,0.1,3,-0.2,-0.15,right,57,2021-02-16_05h09.17.732,premup-three_ses-01_part-01_label-phase1,3.2.4,Win32,60,left,0.641000032,4,0,4,0,1,3,1,0,240,238,1,239,,,,,,,,,,,,,,,,,,
,,0,187,,,,,,,2,1,2,stim/12.jpeg,Instruments,2,stim/objects/Instruments/pipepiano.png,0.7,2,0.2,0.15,right,57,2021-02-16_05h09.17.732,premup-three_ses-01_part-01_label-phase1,3.2.4,Win32,60,left,1.101999998,4,0,4,0,1,3,1,0,240,109,1,239,,,,,,,,,,,,,,,,,,
,,0,188,,,,,,,2,1,2,stim/12.jpeg,Instruments,2,stim/objects/Instruments/pipepiano.png,0.7,3,-0.2,-0.15,right,57,2021-02-16_05h09.17.732,premup-three_ses-01_part-01_label-phase1,3.2.4,Win32,60,left,1.144000053,4,0,4,0,1,3,1,0,240,97,1,239,,,,,,,,,,,,,,,,,,
,,1,189,,,,,,,2,2,4,stim/24.jpeg,HouseObjects,1,stim/objects/HouseObjects/knife2.png,0.7,2,0.2,0.15,left,57,2021-02-16_05h09.17.732,premup-three_ses-01_part-01_label-phase1,3.2.4,Win32,60,left,0.58100009,4,0,4,0,1,3,1,0,240,131,1,239,,,,,,,,,,,,,,,,,,
,,0,190,,,,,,,2,1,1,stim/11.jpeg,HouseObjects,1,stim/objects/HouseObjects/recyclingbin.png,0.3,4,0.2,-0.15,left,57,2021-02-16_05h09.17.732,premup-three_ses-01_part-01_label-phase1,3.2.4,Win32,60,right,0.735000134,4,0,4,0,1,3,1,0,240,84,1,239,,,,,,,,,,,,,,,,,,
,,1,191,,,,,,,3,4,4,stim/44.jpeg,HouseObjects,1,stim/objects/HouseObjects/rug2.png,0.9,4,0.2,-0.15,left,57,2021-02-16_05h09.17.732,premup-three_ses-01_part-01_label-phase1,3.2.4,Win32,60,left,0.565000057,4,0,4,0,1,3,1,0,240,215,1,239,,,,,,,,,,,,,,,,,,
,,0,192,,,,,,,1,5,4,stim/54.jpeg,HouseObjects,1,stim/objects/HouseObjects/knife.png,0.5,2,0.2,0.15,left,57,2021-02-16_05h09.17.732,premup-three_ses-01_part-01_label-phase1,3.2.4,Win32,60,right,0.795000076,4,0,4,0,1,3,1,0,240,7,1,239,,,,,,,,,,,,,,,,,,
,,1,193,,,,,,,1,6,2,stim/62.jpeg,Instruments,2,stim/objects/Instruments/musicsheet.png,0.5,1,-0.2,0.15,right,57,2021-02-16_05h09.17.732,premup-three_ses-01_part-01_label-phase1,3.2.4,Win32,60,right,0.664000034,4,0,4,0,1,3,1,0,240,69,1,239,,,,,,,,,,,,,,,,,,
,,1,194,,,,,,,2,1,4,stim/14.jpeg,HouseObjects,1,stim/objects/HouseObjects/rug.png,0.3,4,0.2,-0.15,left,57,2021-02-16_05h09.17.732,premup-three_ses-01_part-01_label-phase1,3.2.4,Win32,60,left,1.08100009,4,0,4,0,1,3,1,0,240,83,1,239,,,,,,,,,,,,,,,,,,
,,0,195,,,,,,,1,5,3,stim/53.jpeg,HouseObjects,1,stim/objects/HouseObjects/key.png,0.5,1,-0.2,0.15,left,57,2021-02-16_05h09.17.732,premup-three_ses-01_part-01_label-phase1,3.2.4,Win32,60,right,0.916999817,4,0,4,0,1,3,1,0,240,2,1,239,,,,,,,,,,,,,,,,,,
,,1,196,,,,,,,2,1,2,stim/12.jpeg,HouseObjects,1,stim/objects/HouseObjects/remote.png,0.3,2,0.2,0.15,left,57,2021-02-16_05h09.17.732,premup-three_ses-01_part-01_label-phase1,3.2.4,Win32,60,left,0.667999983,4,0,4,0,1,3,1,0,240,81,1,239,,,,,,,,,,,,,,,,,,
,,1,197,,,,,,,3,4,4,stim/44.jpeg,HouseObjects,1,stim/objects/HouseObjects/rug2.png,0.9,2,0.2,0.15,left,57,2021-02-16_05h09.17.732,premup-three_ses-01_part-01_label-phase1,3.2.4,Win32,60,left,0.710000038,4,0,4,0,1,3,1,0,240,219,1,239,,,,,,,,,,,,,,,,,,
,,0,198,,,,,,,1,5,1,stim/51.jpeg,Instruments,2,stim/objects/Instruments/keyboard.png,0.5,1,-0.2,0.15,right,57,2021-02-16_05h09.17.732,premup-three_ses-01_part-01_label-phase1,3.2.4,Win32,60,left,0.837999821,4,0,4,0,1,3,1,0,240,24,1,239,,,,,,,,,,,,,,,,,,
,,1,199,,,,,,,3,4,4,stim/44.jpeg,HouseObjects,1,stim/objects/HouseObjects/rug2.png,0.9,4,0.2,-0.15,left,57,2021-02-16_05h09.17.732,premup-three_ses-01_part-01_label-phase1,3.2.4,Win32,60,left,0.467000008,4,0,4,0,1,3,1,0,240,211,1,239,,,,,,,,,,,,,,,,,,
,,0,200,,,,,,,1,5,1,stim/51.jpeg,HouseObjects,1,stim/objects/HouseObjects/iron.png,0.5,1,-0.2,0.15,left,57,2021-02-16_05h09.17.732,premup-three_ses-01_part-01_label-phase1,3.2.4,Win32,60,right,0.807999849,4,0,4,0,1,3,1,0,240,16,1,239,,,,,,,,,,,,,,,,,,
,,1,201,,,,,,,2,1,3,stim/13.jpeg,Instruments,2,stim/objects/Instruments/record.png,0.7,2,0.2,0.15,right,57,2021-02-16_05h09.17.732,premup-three_ses-01_part-01_label-phase1,3.2.4,Win32,60,right,0.822999954,4,0,4,0,1,3,1,0,240,98,1,239,,,,,,,,,,,,,,,,,,
,,1,202,,,,,,,3,4,2,stim/42.jpeg,HouseObjects,1,stim/objects/HouseObjects/remote2.png,0.9,3,-0.2,-0.15,left,57,2021-02-16_05h09.17.732,premup-three_ses-01_part-01_label-phase1,3.2.4,Win32,60,left,0.585000038,4,0,4,0,1,3,1,0,240,205,1,239,,,,,,,,,,,,,,,,,,
,,1,203,,,,,,,3,3,1,stim/31.jpeg,Instruments,2,stim/objects/Instruments/metronome2.png,0.9,1,-0.2,0.15,right,57,2021-02-16_05h09.17.732,premup-three_ses-01_part-01_label-phase1,3.2.4,Win32,60,right,0.388000011,4,0,4,0,1,3,1,0,240,172,1,239,,,,,,,,,,,,,,,,,,
,,1,204,,,,,,,3,3,1,stim/31.jpeg,Instruments,2,stim/objects/Instruments/metronome2.png,0.9,3,-0.2,-0.15,right,57,2021-02-16_05h09.17.732,premup-three_ses-01_part-01_label-phase1,3.2.4,Win32,60,right,0.421999931,4,0,4,0,1,3,1,0,240,184,1,239,,,,,,,,,,,,,,,,,,
,,1,205,,,,,,,3,4,4,stim/44.jpeg,HouseObjects,1,stim/objects/HouseObjects/rug2.png,0.9,2,0.2,0.15,left,57,2021-02-16_05h09.17.732,premup-three_ses-01_part-01_label-phase1,3.2.4,Win32,60,left,0.538000107,4,0,4,0,1,3,1,0,240,231,1,239,,,,,,,,,,,,,,,,,,
,,0,206,,,,,,,2,2,2,stim/22.jpeg,HouseObjects,1,stim/objects/HouseObjects/ironingboard2.png,0.7,4,0.2,-0.15,left,57,2021-02-16_05h09.17.732,premup-three_ses-01_part-01_label-phase1,3.2.4,Win32,60,right,0.671999931,4,0,4,0,1,3,1,0,240,141,1,239,,,,,,,,,,,,,,,,,,
,,0,207,,,,,,,1,5,4,stim/54.jpeg,HouseObjects,1,stim/objects/HouseObjects/knife.png,0.5,3,-0.2,-0.15,left,57,2021-02-16_05h09.17.732,premup-three_ses-01_part-01_label-phase1,3.2.4,Win32,60,right,0.80099988,4,0,4,0,1,3,1,0,240,15,1,239,,,,,,,,,,,,,,,,,,
,,0,208,,,,,,,2,2,4,stim/24.jpeg,Instruments,2,stim/objects/Instruments/marimba2.png,0.3,2,0.2,0.15,right,57,2021-02-16_05h09.17.732,premup-three_ses-01_part-01_label-phase1,3.2.4,Win32,60,left,0.559000015,4,0,4,0,1,3,1,0,240,155,1,239,,,,,,,,,,,,,,,,,,
,,1,209,,,,,,,3,4,2,stim/42.jpeg,HouseObjects,1,stim/objects/HouseObjects/remote2.png,0.9,4,0.2,-0.15,left,57,2021-02-16_05h09.17.732,premup-three_ses-01_part-01_label-phase1,3.2.4,Win32,60,left,0.662999868,4,0,4,0,1,3,1,0,240,217,1,239,,,,,,,,,,,,,,,,,,
,,1,210,,,,,,,2,2,4,stim/24.jpeg,HouseObjects,1,stim/objects/HouseObjects/knife2.png,0.7,4,0.2,-0.15,left,57,2021-02-16_05h09.17.732,premup-three_ses-01_part-01_label-phase1,3.2.4,Win32,60,left,0.996000051,4,0,4,0,1,3,1,0,240,123,1,239,,,,,,,,,,,,,,,,,,
,,1,211,,,,,,,2,2,3,stim/23.jpeg,Instruments,2,stim/objects/Instruments/maraca2.png,0.3,1,-0.2,0.15,right,57,2021-02-16_05h09.17.732,premup-three_ses-01_part-01_label-phase1,3.2.4,Win32,60,right,1.204999924,4,0,4,0,1,3,1,0,240,150,1,239,,,,,,,,,,,,,,,,,,
,,1,212,,,,,,,3,3,1,stim/31.jpeg,Instruments,2,stim/objects/Instruments/metronome2.png,0.9,1,-0.2,0.15,right,57,2021-02-16_05h09.17.732,premup-three_ses-01_part-01_label-phase1,3.2.4,Win32,60,right,0.875999928,4,0,4,0,1,3,1,0,240,164,1,239,,,,,,,,,,,,,,,,,,
,,1,213,,,,,,,3,4,3,stim/43.jpeg,HouseObjects,1,stim/objects/HouseObjects/rubbergloves2.png,0.9,3,-0.2,-0.15,left,57,2021-02-16_05h09.17.732,premup-three_ses-01_part-01_label-phase1,3.2.4,Win32,60,left,0.665999889,4,0,4,0,1,3,1,0,240,230,1,239,,,,,,,,,,,,,,,,,,
,,0,214,,,,,,,1,5,2,stim/52.jpeg,HouseObjects,1,stim/objects/HouseObjects/ironingboard.png,0.5,1,-0.2,0.15,left,57,2021-02-16_05h09.17.732,premup-three_ses-01_part-01_label-phase1,3.2.4,Win32,60,right,1.446999788,4,0,4,0,1,3,1,0,240,13,1,239,,,,,,,,,,,,,,,,,,
,,0,215,,,,,,,2,1,4,stim/14.jpeg,Instruments,2,stim/objects/Instruments/record_player.png,0.7,1,-0.2,0.15,right,57,2021-02-16_05h09.17.732,premup-three_ses-01_part-01_label-phase1,3.2.4,Win32,60,left,1.052999973,4,0,4,0,1,3,1,0,240,99,1,239,,,,,,,,,,,,,,,,,,
,,1,216,,,,,,,3,4,2,stim/42.jpeg,HouseObjects,1,stim/objects/HouseObjects/remote2.png,0.9,2,0.2,0.15,left,57,2021-02-16_05h09.17.732,premup-three_ses-01_part-01_label-phase1,3.2.4,Win32,60,left,0.787000179,4,0,4,0,1,3,1,0,240,213,1,239,,,,,,,,,,,,,,,,,,
,,0,217,,,,,,,2,1,2,stim/12.jpeg,Instruments,2,stim/objects/Instruments/pipepiano.png,0.7,2,0.2,0.15,right,57,2021-02-16_05h09.17.732,premup-three_ses-01_part-01_label-phase1,3.2.4,Win32,60,left,1.159999847,4,0,4,0,1,3,1,0,240,105,1,239,,,,,,,,,,,,,,,,,,
,,0,218,,,,,,,2,2,2,stim/22.jpeg,Instruments,2,stim/objects/Instruments/laud2.png,0.3,3,-0.2,-0.15,right,57,2021-02-16_05h09.17.732,premup-three_ses-01_part-01_label-phase1,3.2.4,Win32,60,left,0.97300005,4,0,4,0,1,3,1,0,240,153,1,239,,,,,,,,,,,,,,,,,,
,,0,219,,,,,,,1,5,3,stim/53.jpeg,Instruments,2,stim/objects/Instruments/maraca.png,0.5,4,0.2,-0.15,right,57,2021-02-16_05h09.17.732,premup-three_ses-01_part-01_label-phase1,3.2.4,Win32,60,left,0.776000023,4,0,4,0,1,3,1,0,240,38,1,239,,,,,,,,,,,,,,,,,,
,,0,220,,,,,,,3,3,4,stim/34.jpeg,HouseObjects,1,stim/objects/HouseObjects/pitcher2.png,0.1,3,-0.2,-0.15,left,57,2021-02-16_05h09.17.732,premup-three_ses-01_part-01_label-phase1,3.2.4,Win32,60,right,0.72300005,4,0,4,0,1,3,1,0,240,163,1,239,,,,,,,,,,,,,,,,,,
,,1,221,,,,,,,3,3,4,stim/34.jpeg,Instruments,2,stim/objects/Instruments/oboe2.png,0.9,2,0.2,0.15,right,57,2021-02-16_05h09.17.732,premup-three_ses-01_part-01_label-phase1,3.2.4,Win32,60,right,0.444000006,4,0,4,0,1,3,1,0,240,187,1,239,,,,,,,,,,,,,,,,,,
,,0,222,,,,,,,1,6,4,stim/64.jpeg,HouseObjects,1,stim/objects/HouseObjects/pitcher.png,0.5,3,-0.2,-0.15,left,57,2021-02-16_05h09.17.732,premup-three_ses-01_part-01_label-phase1,3.2.4,Win32,60,right,1.179000139,4,0,4,0,1,3,1,0,240,43,1,239,,,,,,,,,,,,,,,,,,
,,0,223,,,,,,,1,6,2,stim/62.jpeg,Instruments,2,stim/objects/Instruments/musicsheet.png,0.5,4,0.2,-0.15,right,57,2021-02-16_05h09.17.732,premup-three_ses-01_part-01_label-phase1,3.2.4,Win32,60,left,0.832999945,4,0,4,0,1,3,1,0,240,61,1,239,,,,,,,,,,,,,,,,,,
,,0,224,,,,,,,3,4,4,stim/44.jpeg,Instruments,2,stim/objects/Instruments/record_player2.png,0.1,3,-0.2,-0.15,right,57,2021-02-16_05h09.17.732,premup-three_ses-01_part-01_label-phase1,3.2.4,Win32,60,left,0.594000101,4,0,4,0,1,3,1,0,240,239,1,239,,,,,,,,,,,,,,,,,,
,,1,225,,,,,,,2,2,2,stim/22.jpeg,HouseObjects,1,stim/objects/HouseObjects/ironingboard2.png,0.7,4,0.2,-0.15,left,57,2021-02-16_05h09.17.732,premup-three_ses-01_part-01_label-phase1,3.2.4,Win32,60,left,0.598999977,4,0,4,0,1,3,1,0,240,125,1,239,,,,,,,,,,,,,,,,,,
,,0,226,,,,,,,1,6,4,stim/64.jpeg,HouseObjects,1,stim/objects/HouseObjects/pitcher.png,0.5,4,0.2,-0.15,left,57,2021-02-16_05h09.17.732,premup-three_ses-01_part-01_label-phase1,3.2.4,Win32,60,right,1.315000057,4,0,4,0,1,3,1,0,240,51,1,239,,,,,,,,,,,,,,,,,,
,,0,227,,,,,,,1,5,1,stim/51.jpeg,Instruments,2,stim/objects/Instruments/keyboard.png,0.5,4,0.2,-0.15,right,57,2021-02-16_05h09.17.732,premup-three_ses-01_part-01_label-phase1,3.2.4,Win32,60,left,0.750999928,4,0,4,0,1,3,1,0,240,20,1,239,,,,,,,,,,,,,,,,,,
,,1,228,,,,,,,3,4,2,stim/42.jpeg,HouseObjects,1,stim/objects/HouseObjects/remote2.png,0.9,3,-0.2,-0.15,left,57,2021-02-16_05h09.17.732,premup-three_ses-01_part-01_label-phase1,3.2.4,Win32,60,left,0.845000029,4,0,4,0,1,3,1,0,240,229,1,239,,,,,,,,,,,,,,,,,,
,,1,229,,,,,,,3,3,3,stim/33.jpeg,Instruments,2,stim/objects/Instruments/musicstand2.png,0.9,4,0.2,-0.15,right,57,2021-02-16_05h09.17.732,premup-three_ses-01_part-01_label-phase1,3.2.4,Win32,60,right,0.553999901,4,0,4,0,1,3,1,0,240,178,1,239,,,,,,,,,,,,,,,,,,
,,0,230,,,,,,,1,6,1,stim/61.jpeg,Instruments,2,stim/objects/Instruments/metronome.png,0.5,2,0.2,0.15,right,57,2021-02-16_05h09.17.732,premup-three_ses-01_part-01_label-phase1,3.2.4,Win32,60,left,0.950999975,4,0,4,0,1,3,1,0,240,60,1,239,,,,,,,,,,,,,,,,,,
,,1,231,,,,,,,3,3,1,stim/31.jpeg,Instruments,2,stim/objects/Instruments/metronome2.png,0.9,3,-0.2,-0.15,right,57,2021-02-16_05h09.17.732,premup-three_ses-01_part-01_label-phase1,3.2.4,Win32,60,right,0.624000072,4,0,4,0,1,3,1,0,240,192,1,239,,,,,,,,,,,,,,,,,,
,,0,232,,,,,,,1,5,2,stim/52.jpeg,Instruments,2,stim/objects/Instruments/laud.png,0.5,4,0.2,-0.15,right,57,2021-02-16_05h09.17.732,premup-three_ses-01_part-01_label-phase1,3.2.4,Win32,60,left,1.054999828,4,0,4,0,1,3,1,0,240,37,1,239,,,,,,,,,,,,,,,,,,
,,1,233,,,,,,,2,2,4,stim/24.jpeg,HouseObjects,1,stim/objects/HouseObjects/knife2.png,0.7,2,0.2,0.15,left,57,2021-02-16_05h09.17.732,premup-three_ses-01_part-01_label-phase1,3.2.4,Win32,60,left,0.59800005,4,0,4,0,1,3,1,0,240,135,1,239,,,,,,,,,,,,,,,,,,
,,1,234,,,,,,,1,6,3,stim/63.jpeg,Instruments,2,stim/objects/Instruments/musicstand.png,0.5,4,0.2,-0.15,right,57,2021-02-16_05h09.17.732,premup-three_ses-01_part-01_label-phase1,3.2.4,Win32,60,right,0.929999828,4,0,4,0,1,3,1,0,240,62,1,239,,,,,,,,,,,,,,,,,,
,,1,235,,,,,,,1,5,4,stim/54.jpeg,HouseObjects,1,stim/objects/HouseObjects/knife.png,0.5,4,0.2,-0.15,left,57,2021-02-16_05h09.17.732,premup-three_ses-01_part-01_label-phase1,3.2.4,Win32,60,left,0.690999985,4,0,4,0,1,3,1,0,240,3,1,239,,,,,,,,,,,,,,,,,,
,,1,236,,,,,,,1,6,1,stim/61.jpeg,HouseObjects,1,stim/objects/HouseObjects/lintroller.png,0.5,2,0.2,0.15,left,57,2021-02-16_05h09.17.732,premup-three_ses-01_part-01_label-phase1,3.2.4,Win32,60,left,0.845000029,4,0,4,0,1,3,1,0,240,48,1,239,,,,,,,,,,,,,,,,,,
,,0,237,,,,,,,1,6,1,stim/61.jpeg,Instruments,2,stim/objects/Instruments/metronome.png,0.5,2,0.2,0.15,right,57,2021-02-16_05h09.17.732,premup-three_ses-01_part-01_label-phase1,3.2.4,Win32,60,left,0.608999968,4,0,4,0,1,3,1,0,240,64,1,239,,,,,,,,,,,,,,,,,,
,,0,238,,,,,,,1,5,2,stim/52.jpeg,Instruments,2,stim/objects/Instruments/laud.png,0.5,2,0.2,0.15,right,57,2021-02-16_05h09.17.732,premup-three_ses-01_part-01_label-phase1,3.2.4,Win32,60,left,0.56799984,4,0,4,0,1,3,1,0,240,21,1,239,,,,,,,,,,,,,,,,,,
,,1,239,,,,,,,2,1,2,stim/12.jpeg,HouseObjects,1,stim/objects/HouseObjects/remote.png,0.3,2,0.2,0.15,left,57,2021-02-16_05h09.17.732,premup-three_ses-01_part-01_label-phase1,3.2.4,Win32,60,left,0.909000158,4,0,4,0,1,3,1,0,240,85,1,239,,,,,,,,,,,,,,,,,,
,,1,240,,,,,,,3,3,3,stim/33.jpeg,Instruments,2,stim/objects/Instruments/musicstand2.png,0.9,2,0.2,0.15,right,57,2021-02-16_05h09.17.732,premup-three_ses-01_part-01_label-phase1,3.2.4,Win32,60,right,0.619999886,4,0,4,0,1,3,1,0,240,174,1,239,,,,,,,,,,,,,,,,,,
,,,,,,,,,,,1,,stim/11.jpeg,,,,,,,,,57,2021-02-16_05h09.17.732,premup-three_ses-01_part-01_label-phase1,3.2.4,Win32,60,,,4,0,4,0,1,3,,,,,,,1,0,30,7.802000046,,,1,0,6,0,1,5,Household items,45,55,Music items,45,55
,,,,,,,,,,,2,,stim/21.jpeg,,,,,,,,,57,2021-02-16_05h09.17.732,premup-three_ses-01_part-01_label-phase1,3.2.4,Win32,60,,,4,0,4,0,1,3,,,,,,,1,0,70,8.554000139,,,1,0,6,1,1,5,Music items,45,55,Household items,45,55
,,,,,,,,,,,5,,stim/51.jpeg,,,,,,,,,57,2021-02-16_05h09.17.732,premup-three_ses-01_part-01_label-phase1,3.2.4,Win32,60,,,4,0,4,0,1,3,,,,,,,1,0,50,4.585999966,,,1,0,6,4,1,5,Music items,5,15,Household items,85,95
,,,,,,,,,,,4,,stim/41.jpeg,,,,,,,,,57,2021-02-16_05h09.17.732,premup-three_ses-01_part-01_label-phase1,3.2.4,Win32,60,,,4,0,4,0,1,3,,,,,,,1,0,97,6.132999897,,,1,0,6,3,1,5,Household items,65,75,Music items,25,35
,,,,,,,,,,,6,,stim/61.jpeg,,,,,,,,,57,2021-02-16_05h09.17.732,premup-three_ses-01_part-01_label-phase1,3.2.4,Win32,60,,,4,0,4,0,1,3,,,,,,,1,0,50,4.073999882,,,1,0,6,5,1,5,Household items,5,15,Music items,85,95
,,,,,,,,,,,3,,stim/31.jpeg,,,,,,,,,57,2021-02-16_05h09.17.732,premup-three_ses-01_part-01_label-phase1,3.2.4,Win32,60,,,4,0,4,0,1,3,,,,,,,1,0,1,5.480999947,,,1,0,6,2,1,5,Household items,65,75,Music items,25,35
,,,,,,,,,,,,,,,,,,,,,,57,2021-02-16_05h09.17.732,premup-three_ses-01_part-01_label-phase1,3.2.4,Win32,60,,,4,0,4,0,1,3,,,,,,,,,,,,,,,,,,,,,,,,
,,0,1,,,,,,,2,2,4,stim/24.jpeg,Instruments,2,stim/objects/Instruments/marimba2.png,0.3,2,0.2,0.15,right,57,2021-02-16_05h09.17.732,premup-three_ses-01_part-01_label-phase1,3.2.4,Win32,60,left,1.022000074,4,0,4,0,1,3,1,0,240,159,1,239,,,,,,,,,,,,,,,,,,
,,1,2,,,,,,,3,3,2,stim/32.jpeg,Instruments,2,stim/objects/Instruments/musicsheet2.png,0.9,3,-0.2,-0.15,right,57,2021-02-16_05h09.17.732,premup-three_ses-01_part-01_label-phase1,3.2.4,Win32,60,right,0.799000025,4,0,4,0,1,3,1,0,240,193,1,239,,,,,,,,,,,,,,,,,,
,,1,3,,,,,,,3,4,2,stim/42.jpeg,HouseObjects,1,stim/objects/HouseObjects/remote2.png,0.9,2,0.2,0.15,left,57,2021-02-16_05h09.17.732,premup-three_ses-01_part-01_label-phase1,3.2.4,Win32,60,left,0.775000095,4,0,4,0,1,3,1,0,240,213,1,239,,,,,,,,,,,,,,,,,,
,,0,4,,,,,,,2,2,3,stim/23.jpeg,HouseObjects,1,stim/objects/HouseObjects/key2.png,0.7,3,-0.2,-0.15,left,57,2021-02-16_05h09.17.732,premup-three_ses-01_part-01_label-phase1,3.2.4,Win32,60,right,0.681999922,4,0,4,0,1,3,1,0,240,142,1,239,,,,,,,,,,,,,,,,,,
,,0,5,,,,,,,1,6,3,stim/63.jpeg,Instruments,2,stim/objects/Instruments/musicstand.png,0.5,1,-0.2,0.15,right,57,2021-02-16_05h09.17.732,premup-three_ses-01_part-01_label-phase1,3.2.4,Win32,60,left,1.105999947,4,0,4,0,1,3,1,0,240,66,1,239,,,,,,,,,,,,,,,,,,
,,1,6,,,,,,,1,5,4,stim/54.jpeg,HouseObjects,1,stim/objects/HouseObjects/knife.png,0.5,2,0.2,0.15,left,57,2021-02-16_05h09.17.732,premup-three_ses-01_part-01_label-phase1,3.2.4,Win32,60,left,0.804000139,4,0,4,0,1,3,1,0,240,7,1,239,,,,,,,,,,,,,,,,,,
,,1,7,,,,,,,3,3,3,stim/33.jpeg,Instruments,2,stim/objects/Instruments/musicstand2.png,0.9,4,0.2,-0.15,right,57,2021-02-16_05h09.17.732,premup-three_ses-01_part-01_label-phase1,3.2.4,Win32,60,right,0.781000137,4,0,4,0,1,3,1,0,240,178,1,239,,,,,,,,,,,,,,,,,,
,,0,8,,,,,,,2,2,3,stim/23.jpeg,Instruments,2,stim/objects/Instruments/maraca2.png,0.3,1,-0.2,0.15,right,57,2021-02-16_05h09.17.732,premup-three_ses-01_part-01_label-phase1,3.2.4,Win32,60,left,1.154999971,4,0,4,0,1,3,1,0,240,158,1,239,,,,,,,,,,,,,,,,,,
,,1,9,,,,,,,3,3,2,stim/32.jpeg,Instruments,2,stim/objects/Instruments/musicsheet2.png,0.9,4,0.2,-0.15,right,57,2021-02-16_05h09.17.732,premup-three_ses-01_part-01_label-phase1,3.2.4,Win32,60,right,0.654000044,4,0,4,0,1,3,1,0,240,181,1,239,,,,,,,,,,,,,,,,,,
,,1,10,,,,,,,2,2,3,stim/23.jpeg,Instruments,2,stim/objects/Instruments/maraca2.png,0.3,1,-0.2,0.15,right,57,2021-02-16_05h09.17.732,premup-three_ses-01_part-01_label-phase1,3.2.4,Win32,60,right,0.547999859,4,0,4,0,1,3,1,0,240,150,1,239,,,,,,,,,,,,,,,,,,
,,0,11,,,,,,,3,3,2,stim/32.jpeg,HouseObjects,1,stim/objects/HouseObjects/match2.png,0.1,4,0.2,-0.15,left,57,2021-02-16_05h09.17.732,premup-three_ses-01_part-01_label-phase1,3.2.4,Win32,60,right,0.736000061,4,0,4,0,1,3,1,0,240,161,1,239,,,,,,,,,,,,,,,,,,
,,1,12,,,,,,,3,4,2,stim/42.jpeg,HouseObjects,1,stim/objects/HouseObjects/remote2.png,0.9,1,-0.2,0.15,left,57,2021-02-16_05h09.17.732,premup-three_ses-01_part-01_label-phase1,3.2.4,Win32,60,left,0.65899992,4,0,4,0,1,3,1,0,240,201,1,239,,,,,,,,,,,,,,,,,,
,,1,13,,,,,,,1,6,4,stim/64.jpeg,HouseObjects,1,stim/objects/HouseObjects/pitcher.png,0.5,4,0.2,-0.15,left,57,2021-02-16_05h09.17.732,premup-three_ses-01_part-01_label-phase1,3.2.4,Win32,60,left,1.14199996,4,0,4,0,1,3,1,0,240,51,1,239,,,,,,,,,,,,,,,,,,
,,1,14,,,,,,,3,3,3,stim/33.jpeg,Instruments,2,stim/objects/Instruments/musicstand2.png,0.9,2,0.2,0.15,right,57,2021-02-16_05h09.17.732,premup-three_ses-01_part-01_label-phase1,3.2.4,Win32,60,right,0.644999981,4,0,4,0,1,3,1,0,240,198,1,239,,,,,,,,,,,,,,,,,,
,,1,15,,,,,,,2,1,2,stim/12.jpeg,Instruments,2,stim/objects/Instruments/pipepiano.png,0.7,1,-0.2,0.15,right,57,2021-02-16_05h09.17.732,premup-three_ses-01_part-01_label-phase1,3.2.4,Win32,60,right,0.940999985,4,0,4,0,1,3,1,0,240,93,1,239,,,,,,,,,,,,,,,,,,
,,1,16,,,,,,,2,2,2,stim/22.jpeg,HouseObjects,1,stim/objects/HouseObjects/ironingboard2.png,0.7,4,0.2,-0.15,left,57,2021-02-16_05h09.17.732,premup-three_ses-01_part-01_label-phase1,3.2.4,Win32,60,left,1.06799984,4,0,4,0,1,3,1,0,240,125,1,239,,,,,,,,,,,,,,,,,,
,,1,17,,,,,,,1,5,1,stim/51.jpeg,HouseObjects,1,stim/objects/HouseObjects/iron.png,0.5,3,-0.2,-0.15,left,57,2021-02-16_05h09.17.732,premup-three_ses-01_part-01_label-phase1,3.2.4,Win32,60,left,0.836999893,4,0,4,0,1,3,1,0,240,0,1,239,,,,,,,,,,,,,,,,,,
,,1,18,,,,,,,3,4,3,stim/43.jpeg,HouseObjects,1,stim/objects/HouseObjects/rubbergloves2.png,0.9,3,-0.2,-0.15,left,57,2021-02-16_05h09.17.732,premup-three_ses-01_part-01_label-phase1,3.2.4,Win32,60,left,0.605000019,4,0,4,0,1,3,1,0,240,230,1,239,,,,,,,,,,,,,,,,,,
,,0,19,,,,,,,1,6,1,stim/61.jpeg,HouseObjects,1,stim/objects/HouseObjects/lintroller.png,0.5,1,-0.2,0.15,left,57,2021-02-16_05h09.17.732,premup-three_ses-01_part-01_label-phase1,3.2.4,Win32,60,right,0.833999872,4,0,4,0,1,3,1,0,240,56,1,239,,,,,,,,,,,,,,,,,,
,,0,20,,,,,,,2,1,4,stim/14.jpeg,Instruments,2,stim/objects/Instruments/record_player.png,0.7,2,0.2,0.15,right,57,2021-02-16_05h09.17.732,premup-three_ses-01_part-01_label-phase1,3.2.4,Win32,60,left,0.962000132,4,0,4,0,1,3,1,0,240,107,1,239,,,,,,,,,,,,,,,,,,
,,1,21,,,,,,,3,3,4,stim/34.jpeg,Instruments,2,stim/objects/Instruments/oboe2.png,0.9,1,-0.2,0.15,right,57,2021-02-16_05h09.17.732,premup-three_ses-01_part-01_label-phase1,3.2.4,Win32,60,right,0.901000023,4,0,4,0,1,3,1,0,240,183,1,239,,,,,,,,,,,,,,,,,,
,,0,22,,,,,,,3,4,2,stim/42.jpeg,Instruments,2,stim/objects/Instruments/pipepiano2.png,0.1,3,-0.2,-0.15,right,57,2021-02-16_05h09.17.732,premup-three_ses-01_part-01_label-phase1,3.2.4,Win32,60,left,0.77699995,4,0,4,0,1,3,1,0,240,237,1,239,,,,,,,,,,,,,,,,,,
,,1,23,,,,,,,3,3,2,stim/32.jpeg,Instruments,2,stim/objects/Instruments/musicsheet2.png,0.9,1,-0.2,0.15,right,57,2021-02-16_05h09.17.732,premup-three_ses-01_part-01_label-phase1,3.2.4,Win32,60,right,0.54700017,4,0,4,0,1,3,1,0,240,185,1,239,,,,,,,,,,,,,,,,,,
,,0,24,,,,,,,2,2,1,stim/21.jpeg,HouseObjects,1,stim/objects/HouseObjects/iron2.png,0.7,1,-0.2,0.15,left,57,2021-02-16_05h09.17.732,premup-three_ses-01_part-01_label-phase1,3.2.4,Win32,60,right,0.899000168,4,0,4,0,1,3,1,0,240,120,1,239,,,,,,,,,,,,,,,,,,
,,0,25,,,,,,,1,5,4,stim/54.jpeg,HouseObjects,1,stim/objects/HouseObjects/knife.png,0.5,1,-0.2,0.15,left,57,2021-02-16_05h09.17.732,premup-three_ses-01_part-01_label-phase1,3.2.4,Win32,60,right,1.421999931,4,0,4,0,1,3,1,0,240,11,1,239,,,,,,,,,,,,,,,,,,
,,0,26,,,,,,,1,5,4,stim/54.jpeg,Instruments,2,stim/objects/Instruments/marimba.png,0.5,4,0.2,-0.15,right,57,2021-02-16_05h09.17.732,premup-three_ses-01_part-01_label-phase1,3.2.4,Win32,60,left,0.945999861,4,0,4,0,1,3,1,0,240,35,1,239,,,,,,,,,,,,,,,,,,
,,1,27,,,,,,,1,6,3,stim/63.jpeg,Instruments,2,stim/objects/Instruments/musicstand.png,0.5,3,-0.2,-0.15,right,57,2021-02-16_05h09.17.732,premup-three_ses-01_part-01_label-phase1,3.2.4,Win32,60,right,0.628999949,4,0,4,0,1,3,1,0,240,70,1,239,,,,,,,,,,,,,,,,,,
,,1,28,,,,,,,1,6,2,stim/62.jpeg,HouseObjects,1,stim/objects/HouseObjects/match.png,0.5,4,0.2,-0.15,left,57,2021-02-16_05h09.17.732,premup-three_ses-01_part-01_label-phase1,3.2.4,Win32,60,left,0.765000105,4,0,4,0,1,3,1,0,240,45,1,239,,,,,,,,,,,,,,,,,,
,,1,29,,,,,,,2,2,2,stim/22.jpeg,Instruments,2,stim/objects/Instruments/laud2.png,0.3,3,-0.2,-0.15,right,57,2021-02-16_05h09.17.732,premup-three_ses-01_part-01_label-phase1,3.2.4,Win32,60,right,0.772000074,4,0,4,0,1,3,1,0,240,153,1,239,,,,,,,,,,,,,,,,,,
,,1,30,,,,,,,2,2,4,stim/24.jpeg,HouseObjects,1,stim/objects/HouseObjects/knife2.png,0.7,3,-0.2,-0.15,left,57,2021-02-16_05h09.17.732,premup-three_ses-01_part-01_label-phase1,3.2.4,Win32,60,left,0.753000021,4,0,4,0,1,3,1,0,240,143,1,239,,,,,,,,,,,,,,,,,,
,,1,31,,,,,,,3,4,4,stim/44.jpeg,HouseObjects,1,stim/objects/HouseObjects/rug2.png,0.9,2,0.2,0.15,left,57,2021-02-16_05h09.17.732,premup-three_ses-01_part-01_label-phase1,3.2.4,Win32,60,left,0.645999908,4,0,4,0,1,3,1,0,240,227,1,239,,,,,,,,,,,,,,,,,,
,,0,32,,,,,,,1,6,1,stim/61.jpeg,Instruments,2,stim/objects/Instruments/metronome.png,0.5,2,0.2,0.15,right,57,2021-02-16_05h09.17.732,premup-three_ses-01_part-01_label-phase1,3.2.4,Win32,60,left,0.75999999,4,0,4,0,1,3,1,0,240,64,1,239,,,,,,,,,,,,,,,,,,
,,0,33,,,,,,,2,2,1,stim/21.jpeg,Instruments,2,stim/objects/Instruments/keyboard2.png,0.3,4,0.2,-0.15,right,57,2021-02-16_05h09.17.732,premup-three_ses-01_part-01_label-phase1,3.2.4,Win32,60,left,1.101000071,4,0,4,0,1,3,1,0,240,152,1,239,,,,,,,,,,,,,,,,,,
,,0,34,,,,,,,2,1,1,stim/11.jpeg,Instruments,2,stim/objects/Instruments/panflute.png,0.7,2,0.2,0.15,right,57,2021-02-16_05h09.17.732,premup-three_ses-01_part-01_label-phase1,3.2.4,Win32,60,left,0.878000021,4,0,4,0,1,3,1,0,240,112,1,239,,,,,,,,,,,,,,,,,,
,,0,35,,,,,,,3,3,3,stim/33.jpeg,HouseObjects,1,stim/objects/HouseObjects/pan2.png,0.1,4,0.2,-0.15,left,57,2021-02-16_05h09.17.732,premup-three_ses-01_part-01_label-phase1,3.2.4,Win32,60,right,0.677000046,4,0,4,0,1,3,1,0,240,162,1,239,,,,,,,,,,,,,,,,,,
,,0,36,,,,,,,3,4,1,stim/41.jpeg,HouseObjects,1,stim/objects/HouseObjects/recyclingbin2.png,0.9,1,-0.2,0.15,left,57,2021-02-16_05h09.17.732,premup-three_ses-01_part-01_label-phase1,3.2.4,Win32,60,right,0.838999987,4,0,4,0,1,3,1,0,240,228,1,239,,,,,,,,,,,,,,,,,,
,,0,37,,,,,,,2,2,3,stim/23.jpeg,Instruments,2,stim/objects/Instruments/maraca2.png,0.3,2,0.2,0.15,right,57,2021-02-16_05h09.17.732,premup-three_ses-01_part-01_label-phase1,3.2.4,Win32,60,left,0.837999821,4,0,4,0,1,3,1,0,240,154,1,239,,,,,,,,,,,,,,,,,,
,,0,38,,,,,,,2,1,2,stim/12.jpeg,Instruments,2,stim/objects/Instruments/pipepiano.png,0.7,1,-0.2,0.15,right,57,2021-02-16_05h09.17.732,premup-three_ses-01_part-01_label-phase1,3.2.4,Win32,60,left,0.743999958,4,0,4,0,1,3,1,0,240,117,1,239,,,,,,,,,,,,,,,,,,
,,1,39,,,,,,,2,1,3,stim/13.jpeg,Instruments,2,stim/objects/Instruments/record.png,0.7,2,0.2,0.15,right,57,2021-02-16_05h09.17.732,premup-three_ses-01_part-01_label-phase1,3.2.4,Win32,60,right,0.89199996,4,0,4,0,1,3,1,0,240,98,1,239,,,,,,,,,,,,,,,,,,
,,0,40,,,,,,,2,1,3,stim/13.jpeg,Instruments,2,stim/objects/Instruments/record.png,0.7,4,0.2,-0.15,right,57,2021-02-16_05h09.17.732,premup-three_ses-01_part-01_label-phase1,3.2.4,Win32,60,left,0.791000128,4,0,4,0,1,3,1,0,240,94,1,239,,,,,,,,,,,,,,,,,,
,,1,41,,,,,,,1,5,3,stim/53.jpeg,HouseObjects,1,stim/objects/HouseObjects/key.png,0.5,4,0.2,-0.15,left,57,2021-02-16_05h09.17.732,premup-three_ses-01_part-01_label-phase1,3.2.4,Win32,60,left,0.857000113,4,0,4,0,1,3,1,0,240,6,1,239,,,,,,,,,,,,,,,,,,
,,0,42,,,,,,,3,4,1,stim/41.jpeg,Instruments,2,stim/objects/Instruments/panflute2.png,0.1,1,-0.2,0.15,right,57,2021-02-16_05h09.17.732,premup-three_ses-01_part-01_label-phase1,3.2.4,Win32,60,left,0.613999844,4,0,4,0,1,3,1,0,240,236,1,239,,,,,,,,,,,,,,,,,,
,,1,43,,,,,,,3,3,3,stim/33.jpeg,Instruments,2,stim/objects/Instruments/musicstand2.png,0.9,2,0.2,0.15,right,57,2021-02-16_05h09.17.732,premup-three_ses-01_part-01_label-phase1,3.2.4,Win32,60,right,0.516000032,4,0,4,0,1,3,1,0,240,166,1,239,,,,,,,,,,,,,,,,,,
,,0,44,,,,,,,2,2,1,stim/21.jpeg,HouseObjects,1,stim/objects/HouseObjects/iron2.png,0.7,2,0.2,0.15,left,57,2021-02-16_05h09.17.732,premup-three_ses-01_part-01_label-phase1,3.2.4,Win32,60,right,0.852999926,4,0,4,0,1,3,1,0,240,128,1,239,,,,,,,,,,,,,,,,,,
,,1,45,,,,,,,3,3,4,stim/34.jpeg,Instruments,2,stim/objects/Instruments/oboe2.png,0.9,2,0.2,0.15,right,57,2021-02-16_05h09.17.732,premup-three_ses-01_part-01_label-phase1,3.2.4,Win32,60,right,0.688000202,4,0,4,0,1,3,1,0,240,175,1,239,,,,,,,,,,,,,,,,,,
,,1,46,,,,,,,3,3,3,stim/33.jpeg,Instruments,2,stim/objects/Instruments/musicstand2.png,0.9,2,0.2,0.15,right,57,2021-02-16_05h09.17.732,premup-three_ses-01_part-01_label-phase1,3.2.4,Win32,60,right,0.582000017,4,0,4,0,1,3,1,0,240,182,1,239,,,,,,,,,,,,,,,,,,
,,0,47,,,,,,,2,1,3,stim/13.jpeg,Instruments,2,stim/objects/Instruments/record.png,0.7,4,0.2,-0.15,right,57,2021-02-16_05h09.17.732,premup-three_ses-01_part-01_label-phase1,3.2.4,Win32,60,left,0.878000021,4,0,4,0,1,3,1,0,240,114,1,239,,,,,,,,,,,,,,,,,,
,,1,48,,,,,,,3,3,1,stim/31.jpeg,Instruments,2,stim/objects/Instruments/metronome2.png,0.9,2,0.2,0.15,right,57,2021-02-16_05h09.17.732,premup-three_ses-01_part-01_label-phase1,3.2.4,Win32,60,right,0.746999979,4,0,4,0,1,3,1,0,240,176,1,239,,,,,,,,,,,,,,,,,,
,,1,49,,,,,,,3,4,2,stim/42.jpeg,HouseObjects,1,stim/objects/HouseObjects/remote2.png,0.9,3,-0.2,-0.15,left,57,2021-02-16_05h09.17.732,premup-three_ses-01_part-01_label-phase1,3.2.4,Win32,60,left,1.142999887,4,0,4,0,1,3,1,0,240,229,1,239,,,,,,,,,,,,,,,,,,
,,0,50,,,,,,,3,4,4,stim/44.jpeg,Instruments,2,stim/objects/Instruments/record_player2.png,0.1,3,-0.2,-0.15,right,57,2021-02-16_05h09.17.732,premup-three_ses-01_part-01_label-phase1,3.2.4,Win32,60,left,0.643000126,4,0,4,0,1,3,1,0,240,239,1,239,,,,,,,,,,,,,,,,,,
,,1,51,,,,,,,1,5,4,stim/54.jpeg,HouseObjects,1,stim/objects/HouseObjects/knife.png,0.5,3,-0.2,-0.15,left,57,2021-02-16_05h09.17.732,premup-three_ses-01_part-01_label-phase1,3.2.4,Win32,60,left,0.830999851,4,0,4,0,1,3,1,0,240,15,1,239,,,,,,,,,,,,,,,,,,
,,1,52,,,,,,,3,3,1,stim/31.jpeg,Instruments,2,stim/objects/Instruments/metronome2.png,0.9,1,-0.2,0.15,right,57,2021-02-16_05h09.17.732,premup-three_ses-01_part-01_label-phase1,3.2.4,Win32,60,right,0.572999954,4,0,4,0,1,3,1,0,240,196,1,239,,,,,,,,,,,,,,,,,,
,,1,53,,,,,,,2,2,1,stim/21.jpeg,HouseObjects,1,stim/objects/HouseObjects/iron2.png,0.7,3,-0.2,-0.15,left,57,2021-02-16_05h09.17.732,premup-three_ses-01_part-01_label-phase1,3.2.4,Win32,60,left,1.184000015,4,0,4,0,1,3,1,0,240,140,1,239,,,,,,,,,,,,,,,,,,
,,1,54,,,,,,,3,4,3,stim/43.jpeg,HouseObjects,1,stim/objects/HouseObjects/rubbergloves2.png,0.9,2,0.2,0.15,left,57,2021-02-16_05h09.17.732,premup-three_ses-01_part-01_label-phase1,3.2.4,Win32,60,left,0.667999983,4,0,4,0,1,3,1,0,240,218,1,239,,,,,,,,,,,,,,,,,,
,,0,55,,,,,,,1,6,1,stim/61.jpeg,Instruments,2,stim/objects/Instruments/metronome.png,0.5,2,0.2,0.15,right,57,2021-02-16_05h09.17.732,premup-three_ses-01_part-01_label-phase1,3.2.4,Win32,60,left,1.07799983,4,0,4,0,1,3,1,0,240,60,1,239,,,,,,,,,,,,,,,,,,
,,1,56,,,,,,,2,1,1,stim/11.jpeg,Instruments,2,stim/objects/Instruments/panflute.png,0.7,3,-0.2,-0.15,right,57,2021-02-16_05h09.17.732,premup-three_ses-01_part-01_label-phase1,3.2.4,Win32,60,right,1.161000013,4,0,4,0,1,3,1,0,240,104,1,239,,,,,,,,,,,,,,,,,,
,,0,57,,,,,,,2,1,4,stim/14.jpeg,HouseObjects,1,stim/objects/HouseObjects/rug.png,0.3,4,0.2,-0.15,left,57,2021-02-16_05h09.17.732,premup-three_ses-01_part-01_label-phase1,3.2.4,Win32,60,right,0.705999851,4,0,4,0,1,3,1,0,240,83,1,239,,,,,,,,,,,,,,,,,,
,,1,58,,,,,,,1,6,4,stim/64.jpeg,Instruments,2,stim/objects/Instruments/oboe.png,0.5,3,-0.2,-0.15,right,57,2021-02-16_05h09.17.732,premup-three_ses-01_part-01_label-phase1,3.2.4,Win32,60,right,0.792000055,4,0,4,0,1,3,1,0,240,63,1,239,,,,,,,,,,,,,,,,,,
,,1,59,,,,,,,2,1,1,stim/11.jpeg,HouseObjects,1,stim/objects/HouseObjects/recyclingbin.png,0.3,1,-0.2,0.15,left,57,2021-02-16_05h09.17.732,premup-three_ses-01_part-01_label-phase1,3.2.4,Win32,60,left,0.996999979,4,0,4,0,1,3,1,0,240,80,1,239,,,,,,,,,,,,,,,,,,
,,1,60,,,,,,,3,4,3,stim/43.jpeg,HouseObjects,1,stim/objects/HouseObjects/rubbergloves2.png,0.9,1,-0.2,0.15,left,57,2021-02-16_05h09.17.732,premup-three_ses-01_part-01_label-phase1,3.2.4,Win32,60,left,0.75999999,4,0,4,0,1,3,1,0,240,234,1,239,,,,,,,,,,,,,,,,,,
,,0,61,,,,,,,1,5,1,stim/51.jpeg,HouseObjects,1,stim/objects/HouseObjects/iron.png,0.5,1,-0.2,0.15,left,57,2021-02-16_05h09.17.732,premup-three_ses-01_part-01_label-phase1,3.2.4,Win32,60,right,0.878000021,4,0,4,0,1,3,1,0,240,16,1,239,,,,,,,,,,,,,,,,,,
,,0,62,,,,,,,3,3,1,stim/31.jpeg,HouseObjects,1,stim/objects/HouseObjects/lintroller2.png,0.1,4,0.2,-0.15,left,57,2021-02-16_05h09.17.732,premup-three_ses-01_part-01_label-phase1,3.2.4,Win32,60,right,0.746999979,4,0,4,0,1,3,1,0,240,160,1,239,,,,,,,,,,,,,,,,,,
,,1,63,,,,,,,2,2,2,stim/22.jpeg,Instruments,2,stim/objects/Instruments/laud2.png,0.3,4,0.2,-0.15,right,57,2021-02-16_05h09.17.732,premup-three_ses-01_part-01_label-phase1,3.2.4,Win32,60,right,0.976999998,4,0,4,0,1,3,1,0,240,149,1,239,,,,,,,,,,,,,,,,,,
,,1,64,,,,,,,3,4,3,stim/43.jpeg,HouseObjects,1,stim/objects/HouseObjects/rubbergloves2.png,0.9,1,-0.2,0.15,left,57,2021-02-16_05h09.17.732,premup-three_ses-01_part-01_label-phase1,3.2.4,Win32,60,left,0.826999903,4,0,4,0,1,3,1,0,240,210,1,239,,,,,,,,,,,,,,,,,,
,,1,65,,,,,,,2,2,4,stim/24.jpeg,Instruments,2,stim/objects/Instruments/marimba2.png,0.3,3,-0.2,-0.15,right,57,2021-02-16_05h09.17.732,premup-three_ses-01_part-01_label-phase1,3.2.4,Win32,60,right,1.017000198,4,0,4,0,1,3,1,0,240,151,1,239,,,,,,,,,,,,,,,,,,
,,0,66,,,,,,,1,6,3,stim/63.jpeg,Instruments,2,stim/objects/Instruments/musicstand.png,0.5,4,0.2,-0.15,right,57,2021-02-16_05h09.17.732,premup-three_ses-01_part-01_label-phase1,3.2.4,Win32,60,left,0.842999935,4,0,4,0,1,3,1,0,240,62,1,239,,,,,,,,,,,,,,,,,,
,,1,67,,,,,,,2,1,1,stim/11.jpeg,Instruments,2,stim/objects/Instruments/panflute.png,0.7,3,-0.2,-0.15,right,57,2021-02-16_05h09.17.732,premup-three_ses-01_part-01_label-phase1,3.2.4,Win32,60,right,1.017999887,4,0,4,0,1,3,1,0,240,100,1,239,,,,,,,,,,,,,,,,,,
,,1,68,,,,,,,2,1,2,stim/12.jpeg,HouseObjects,1,stim/objects/HouseObjects/remote.png,0.3,2,0.2,0.15,left,57,2021-02-16_05h09.17.732,premup-three_ses-01_part-01_label-phase1,3.2.4,Win32,60,left,0.934999943,4,0,4,0,1,3,1,0,240,81,1,239,,,,,,,,,,,,,,,,,,
,,0,69,,,,,,,3,3,4,stim/34.jpeg,Instruments,2,stim/objects/Instruments/oboe2.png,0.9,2,0.2,0.15,right,57,2021-02-16_05h09.17.732,premup-three_ses-01_part-01_label-phase1,3.2.4,Win32,60,left,0.861999989,4,0,4,0,1,3,1,0,240,187,1,239,,,,,,,,,,,,,,,,,,
,,0,70,,,,,,,1,5,1,stim/51.jpeg,HouseObjects,1,stim/objects/HouseObjects/iron.png,0.5,1,-0.2,0.15,left,57,2021-02-16_05h09.17.732,premup-three_ses-01_part-01_label-phase1,3.2.4,Win32,60,right,0.803000212,4,0,4,0,1,3,1,0,240,4,1,239,,,,,,,,,,,,,,,,,,
,,1,71,,,,,,,2,1,2,stim/12.jpeg,Instruments,2,stim/objects/Instruments/pipepiano.png,0.7,2,0.2,0.15,right,57,2021-02-16_05h09.17.732,premup-three_ses-01_part-01_label-phase1,3.2.4,Win32,60,right,1.01699996,4,0,4,0,1,3,1,0,240,105,1,239,,,,,,,,,,,,,,,,,,
,,1,72,,,,,,,1,5,3,stim/53.jpeg,Instruments,2,stim/objects/Instruments/maraca.png,0.5,3,-0.2,-0.15,right,57,2021-02-16_05h09.17.732,premup-three_ses-01_part-01_label-phase1,3.2.4,Win32,60,right,0.828000069,4,0,4,0,1,3,1,0,240,22,1,239,,,,,,,,,,,,,,,,,,
,,1,73,,,,,,,1,5,1,stim/51.jpeg,HouseObjects,1,stim/objects/HouseObjects/iron.png,0.5,2,0.2,0.15,left,57,2021-02-16_05h09.17.732,premup-three_ses-01_part-01_label-phase1,3.2.4,Win32,60,left,0.693999767,4,0,4,0,1,3,1,0,240,12,1,239,,,,,,,,,,,,,,,,,,
,,0,74,,,,,,,2,2,3,stim/23.jpeg,HouseObjects,1,stim/objects/HouseObjects/key2.png,0.7,1,-0.2,0.15,left,57,2021-02-16_05h09.17.732,premup-three_ses-01_part-01_label-phase1,3.2.4,Win32,60,right,0.744999886,4,0,4,0,1,3,1,0,240,138,1,239,,,,,,,,,,,,,,,,,,
,,1,75,,,,,,,2,2,4,stim/24.jpeg,HouseObjects,1,stim/objects/HouseObjects/knife2.png,0.7,3,-0.2,-0.15,left,57,2021-02-16_05h09.17.732,premup-three_ses-01_part-01_label-phase1,3.2.4,Win32,60,left,0.877000093,4,0,4,0,1,3,1,0,240,139,1,239,,,,,,,,,,,,,,,,,,
,,0,76,,,,,,,2,2,1,stim/21.jpeg,Instruments,2,stim/objects/Instruments/keyboard2.png,0.3,2,0.2,0.15,right,57,2021-02-16_05h09.17.732,premup-three_ses-01_part-01_label-phase1,3.2.4,Win32,60,left,0.921000004,4,0,4,0,1,3,1,0,240,148,1,239,,,,,,,,,,,,,,,,,,
,,1,77,,,,,,,2,1,2,stim/12.jpeg,Instruments,2,stim/objects/Instruments/pipepiano.png,0.7,2,0.2,0.15,right,57,2021-02-16_05h09.17.732,premup-three_ses-01_part-01_label-phase1,3.2.4,Win32,60,right,0.94299984,4,0,4,0,1,3,1,0,240,109,1,239,,,,,,,,,,,,,,,,,,
,,1,78,,,,,,,2,2,4,stim/24.jpeg,HouseObjects,1,stim/objects/HouseObjects/knife2.png,0.7,4,0.2,-0.15,left,57,2021-02-16_05h09.17.732,premup-three_ses-01_part-01_label-phase1,3.2.4,Win32,60,left,0.717999935,4,0,4,0,1,3,1,0,240,123,1,239,,,,,,,,,,,,,,,,,,
,,0,79,,,,,,,1,6,2,stim/62.jpeg,HouseObjects,1,stim/objects/HouseObjects/match.png,0.5,3,-0.2,-0.15,left,57,2021-02-16_05h09.17.732,premup-three_ses-01_part-01_label-phase1,3.2.4,Win32,60,right,1.011999846,4,0,4,0,1,3,1,0,240,57,1,239,,,,,,,,,,,,,,,,,,
,,1,80,,,,,,,3,4,1,stim/41.jpeg,HouseObjects,1,stim/objects/HouseObjects/recyclingbin2.png,0.9,1,-0.2,0.15,left,57,2021-02-16_05h09.17.732,premup-three_ses-01_part-01_label-phase1,3.2.4,Win32,60,left,0.875999928,4,0,4,0,1,3,1,0,240,200,1,239,,,,,,,,,,,,,,,,,,
,,0,81,,,,,,,2,2,3,stim/23.jpeg,HouseObjects,1,stim/objects/HouseObjects/key2.png,0.7,2,0.2,0.15,left,57,2021-02-16_05h09.17.732,premup-three_ses-01_part-01_label-phase1,3.2.4,Win32,60,right,1.06400013,4,0,4,0,1,3,1,0,240,134,1,239,,,,,,,,,,,,,,,,,,
,,0,82,,,,,,,1,5,2,stim/52.jpeg,Instruments,2,stim/objects/Instruments/laud.png,0.5,2,0.2,0.15,right,57,2021-02-16_05h09.17.732,premup-three_ses-01_part-01_label-phase1,3.2.4,Win32,60,left,0.881000042,4,0,4,0,1,3,1,0,240,29,1,239,,,,,,,,,,,,,,,,,,
,,0,83,,,,,,,1,6,2,stim/62.jpeg,Instruments,2,stim/objects/Instruments/musicsheet.png,0.5,2,0.2,0.15,right,57,2021-02-16_05h09.17.732,premup-three_ses-01_part-01_label-phase1,3.2.4,Win32,60,left,0.851999998,4,0,4,0,1,3,1,0,240,77,1,239,,,,,,,,,,,,,,,,,,
,,0,84,,,,,,,3,4,3,stim/43.jpeg,Instruments,2,stim/objects/Instruments/record2.png,0.1,3,-0.2,-0.15,right,57,2021-02-16_05h09.17.732,premup-three_ses-01_part-01_label-phase1,3.2.4,Win32,60,left,0.674999952,4,0,4,0,1,3,1,0,240,238,1,239,,,,,,,,,,,,,,,,,,
,,0,85,,,,,,,1,5,4,stim/54.jpeg,Instruments,2,stim/objects/Instruments/marimba.png,0.5,2,0.2,0.15,right,57,2021-02-16_05h09.17.732,premup-three_ses-01_part-01_label-phase1,3.2.4,Win32,60,left,0.662999868,4,0,4,0,1,3,1,0,240,23,1,239,,,,,,,,,,,,,,,,,,
,,1,86,,,,,,,3,3,1,stim/31.jpeg,Instruments,2,stim/objects/Instruments/metronome2.png,0.9,3,-0.2,-0.15,right,57,2021-02-16_05h09.17.732,premup-three_ses-01_part-01_label-phase1,3.2.4,Win32,60,right,0.839999914,4,0,4,0,1,3,1,0,240,184,1,239,,,,,,,,,,,,,,,,,,
,,1,87,,,,,,,2,1,3,stim/13.jpeg,Instruments,2,stim/objects/Instruments/record.png,0.7,1,-0.2,0.15,right,57,2021-02-16_05h09.17.732,premup-three_ses-01_part-01_label-phase1,3.2.4,Win32,60,right,0.969000101,4,0,4,0,1,3,1,0,240,102,1,239,,,,,,,,,,,,,,,,,,
,,0,88,,,,,,,1,6,4,stim/64.jpeg,Instruments,2,stim/objects/Instruments/oboe.png,0.5,3,-0.2,-0.15,right,57,2021-02-16_05h09.17.732,premup-three_ses-01_part-01_label-phase1,3.2.4,Win32,60,left,1.010999918,4,0,4,0,1,3,1,0,240,75,1,239,,,,,,,,,,,,,,,,,,
,,0,89,,,,,,,1,6,2,stim/62.jpeg,HouseObjects,1,stim/objects/HouseObjects/match.png,0.5,1,-0.2,0.15,left,57,2021-02-16_05h09.17.732,premup-three_ses-01_part-01_label-phase1,3.2.4,Win32,60,right,0.708999872,4,0,4,0,1,3,1,0,240,49,1,239,,,,,,,,,,,,,,,,,,
,,1,90,,,,,,,3,4,1,stim/41.jpeg,HouseObjects,1,stim/objects/HouseObjects/recyclingbin2.png,0.9,3,-0.2,-0.15,left,57,2021-02-16_05h09.17.732,premup-three_ses-01_part-01_label-phase1,3.2.4,Win32,60,left,0.904999971,4,0,4,0,1,3,1,0,240,232,1,239,,,,,,,,,,,,,,,,,,
,,1,91,,,,,,,3,4,3,stim/43.jpeg,HouseObjects,1,stim/objects/HouseObjects/rubbergloves2.png,0.9,2,0.2,0.15,left,57,2021-02-16_05h09.17.732,premup-three_ses-01_part-01_label-phase1,3.2.4,Win32,60,left,0.663000107,4,0,4,0,1,3,1,0,240,214,1,239,,,,,,,,,,,,,,,,,,
,,0,92,,,,,,,3,4,4,stim/44.jpeg,HouseObjects,1,stim/objects/HouseObjects/rug2.png,0.9,2,0.2,0.15,left,57,2021-02-16_05h09.17.732,premup-three_ses-01_part-01_label-phase1,3.2.4,Win32,60,right,1.180000067,4,0,4,0,1,3,1,0,240,231,1,239,,,,,,,,,,,,,,,,,,
,,1,93,,,,,,,3,3,4,stim/34.jpeg,Instruments,2,stim/objects/Instruments/oboe2.png,0.9,4,0.2,-0.15,right,57,2021-02-16_05h09.17.732,premup-three_ses-01_part-01_label-phase1,3.2.4,Win32,60,right,0.593000174,4,0,4,0,1,3,1,0,240,179,1,239,,,,,,,,,,,,,,,,,,
,,0,94,,,,,,,1,6,2,stim/62.jpeg,Instruments,2,stim/objects/Instruments/musicsheet.png,0.5,4,0.2,-0.15,right,57,2021-02-16_05h09.17.732,premup-three_ses-01_part-01_label-phase1,3.2.4,Win32,60,left,0.958999872,4,0,4,0,1,3,1,0,240,61,1,239,,,,,,,,,,,,,,,,,,
,,0,95,,,,,,,2,1,1,stim/11.jpeg,Instruments,2,stim/objects/Instruments/panflute.png,0.7,2,0.2,0.15,right,57,2021-02-16_05h09.17.732,premup-three_ses-01_part-01_label-phase1,3.2.4,Win32,60,left,0.856000185,4,0,4,0,1,3,1,0,240,96,1,239,,,,,,,,,,,,,,,,,,
,,1,96,,,,,,,3,4,4,stim/44.jpeg,HouseObjects,1,stim/objects/HouseObjects/rug2.png,0.9,4,0.2,-0.15,left,57,2021-02-16_05h09.17.732,premup-three_ses-01_part-01_label-phase1,3.2.4,Win32,60,left,0.834000111,4,0,4,0,1,3,1,0,240,235,1,239,,,,,,,,,,,,,,,,,,
,,1,97,,,,,,,2,2,3,stim/23.jpeg,HouseObjects,1,stim/objects/HouseObjects/key2.png,0.7,2,0.2,0.15,left,57,2021-02-16_05h09.17.732,premup-three_ses-01_part-01_label-phase1,3.2.4,Win32,60,left,0.803000212,4,0,4,0,1,3,1,0,240,146,1,239,,,,,,,,,,,,,,,,,,
,,1,98,,,,,,,2,1,1,stim/11.jpeg,Instruments,2,stim/objects/Instruments/panflute.png,0.7,1,-0.2,0.15,right,57,2021-02-16_05h09.17.732,premup-three_ses-01_part-01_label-phase1,3.2.4,Win32,60,right,1.062999964,4,0,4,0,1,3,1,0,240,92,1,239,,,,,,,,,,,,,,,,,,
,,1,99,,,,,,,2,1,3,stim/13.jpeg,HouseObjects,1,stim/objects/HouseObjects/rubbergloves.png,0.3,1,-0.2,0.15,left,57,2021-02-16_05h09.17.732,premup-three_ses-01_part-01_label-phase1,3.2.4,Win32,60,left,0.934000015,4,0,4,0,1,3,1,0,240,90,1,239,,,,,,,,,,,,,,,,,,
,,1,100,,,,,,,1,6,1,stim/61.jpeg,HouseObjects,1,stim/objects/HouseObjects/lintroller.png,0.5,2,0.2,0.15,left,57,2021-02-16_05h09.17.732,premup-three_ses-01_part-01_label-phase1,3.2.4,Win32,60,left,0.667000055,4,0,4,0,1,3,1,0,240,48,1,239,,,,,,,,,,,,,,,,,,
,,1,101,,,,,,,1,6,3,stim/63.jpeg,HouseObjects,1,stim/objects/HouseObjects/pan.png,0.5,4,0.2,-0.15,left,57,2021-02-16_05h09.17.732,premup-three_ses-01_part-01_label-phase1,3.2.4,Win32,60,left,0.747999907,4,0,4,0,1,3,1,0,240,50,1,239,,,,,,,,,,,,,,,,,,
,,1,102,,,,,,,3,3,3,stim/33.jpeg,Instruments,2,stim/objects/Instruments/musicstand2.png,0.9,1,-0.2,0.15,right,57,2021-02-16_05h09.17.732,premup-three_ses-01_part-01_label-phase1,3.2.4,Win32,60,right,0.690999985,4,0,4,0,1,3,1,0,240,194,1,239,,,,,,,,,,,,,,,,,,
,,0,103,,,,,,,2,1,4,stim/14.jpeg,HouseObjects,1,stim/objects/HouseObjects/rug.png,0.3,2,0.2,0.15,left,57,2021-02-16_05h09.17.732,premup-three_ses-01_part-01_label-phase1,3.2.4,Win32,60,right,0.763000011,4,0,4,0,1,3,1,0,240,87,1,239,,,,,,,,,,,,,,,,,,
,,1,104,,,,,,,2,2,4,stim/24.jpeg,HouseObjects,1,stim/objects/HouseObjects/knife2.png,0.7,2,0.2,0.15,left,57,2021-02-16_05h09.17.732,premup-three_ses-01_part-01_label-phase1,3.2.4,Win32,60,left,0.866999865,4,0,4,0,1,3,1,0,240,131,1,239,,,,,,,,,,,,,,,,,,
,,1,105,,,,,,,1,5,3,stim/53.jpeg,Instruments,2,stim/objects/Instruments/maraca.png,0.5,2,0.2,0.15,right,57,2021-02-16_05h09.17.732,premup-three_ses-01_part-01_label-phase1,3.2.4,Win32,60,right,0.919999838,4,0,4,0,1,3,1,0,240,26,1,239,,,,,,,,,,,,,,,,,,
,,1,106,,,,,,,3,4,4,stim/44.jpeg,HouseObjects,1,stim/objects/HouseObjects/rug2.png,0.9,2,0.2,0.15,left,57,2021-02-16_05h09.17.732,premup-three_ses-01_part-01_label-phase1,3.2.4,Win32,60,left,0.769000053,4,0,4,0,1,3,1,0,240,219,1,239,,,,,,,,,,,,,,,,,,
,,1,107,,,,,,,1,5,3,stim/53.jpeg,Instruments,2,stim/objects/Instruments/maraca.png,0.5,2,0.2,0.15,right,57,2021-02-16_05h09.17.732,premup-three_ses-01_part-01_label-phase1,3.2.4,Win32,60,right,0.546000004,4,0,4,0,1,3,1,0,240,34,1,239,,,,,,,,,,,,,,,,,,
,,0,108,,,,,,,2,2,3,stim/23.jpeg,HouseObjects,1,stim/objects/HouseObjects/key2.png,0.7,4,0.2,-0.15,left,57,2021-02-16_05h09.17.732,premup-three_ses-01_part-01_label-phase1,3.2.4,Win32,60,right,0.845000029,4,0,4,0,1,3,1,0,240,122,1,239,,,,,,,,,,,,,,,,,,
,,1,109,,,,,,,2,1,4,stim/14.jpeg,Instruments,2,stim/objects/Instruments/record_player.png,0.7,4,0.2,-0.15,right,57,2021-02-16_05h09.17.732,premup-three_ses-01_part-01_label-phase1,3.2.4,Win32,60,right,0.768000126,4,0,4,0,1,3,1,0,240,119,1,239,,,,,,,,,,,,,,,,,,
,,0,110,,,,,,,2,1,1,stim/11.jpeg,Instruments,2,stim/objects/Instruments/panflute.png,0.7,3,-0.2,-0.15,right,57,2021-02-16_05h09.17.732,premup-three_ses-01_part-01_label-phase1,3.2.4,Win32,60,left,0.923000097,4,0,4,0,1,3,1,0,240,116,1,239,,,,,,,,,,,,,,,,,,
,,1,111,,,,,,,2,2,2,stim/22.jpeg,HouseObjects,1,stim/objects/HouseObjects/ironingboard2.png,0.7,3,-0.2,-0.15,left,57,2021-02-16_05h09.17.732,premup-three_ses-01_part-01_label-phase1,3.2.4,Win32,60,left,0.850999832,4,0,4,0,1,3,1,0,240,145,1,239,,,,,,,,,,,,,,,,,,
,,1,112,,,,,,,2,1,1,stim/11.jpeg,Instruments,2,stim/objects/Instruments/panflute.png,0.7,1,-0.2,0.15,right,57,2021-02-16_05h09.17.732,premup-three_ses-01_part-01_label-phase1,3.2.4,Win32,60,right,0.898000002,4,0,4,0,1,3,1,0,240,108,1,239,,,,,,,,,,,,,,,,,,
,,0,113,,,,,,,1,6,1,stim/61.jpeg,HouseObjects,1,stim/objects/HouseObjects/lintroller.png,0.5,2,0.2,0.15,left,57,2021-02-16_05h09.17.732,premup-three_ses-01_part-01_label-phase1,3.2.4,Win32,60,right,0.759000063,4,0,4,0,1,3,1,0,240,52,1,239,,,,,,,,,,,,,,,,,,
,,0,114,,,,,,,2,2,4,stim/24.jpeg,HouseObjects,1,stim/objects/HouseObjects/knife2.png,0.7,4,0.2,-0.15,left,57,2021-02-16_05h09.17.732,premup-three_ses-01_part-01_label-phase1,3.2.4,Win32,60,right,0.615999937,4,0,4,0,1,3,1,0,240,127,1,239,,,,,,,,,,,,,,,,,,
,,0,115,,,,,,,1,6,1,stim/61.jpeg,Instruments,2,stim/objects/Instruments/metronome.png,0.5,3,-0.2,-0.15,right,57,2021-02-16_05h09.17.732,premup-three_ses-01_part-01_label-phase1,3.2.4,Win32,60,left,0.798000097,4,0,4,0,1,3,1,0,240,68,1,239,,,,,,,,,,,,,,,,,,
,,0,116,,,,,,,1,5,4,stim/54.jpeg,HouseObjects,1,stim/objects/HouseObjects/knife.png,0.5,4,0.2,-0.15,left,57,2021-02-16_05h09.17.732,premup-three_ses-01_part-01_label-phase1,3.2.4,Win32,60,right,1.195000172,4,0,4,0,1,3,1,0,240,3,1,239,,,,,,,,,,,,,,,,,,
,,1,117,,,,,,,3,3,1,stim/31.jpeg,Instruments,2,stim/objects/Instruments/metronome2.png,0.9,1,-0.2,0.15,right,57,2021-02-16_05h09.17.732,premup-three_ses-01_part-01_label-phase1,3.2.4,Win32,60,right,0.565999985,4,0,4,0,1,3,1,0,240,164,1,239,,,,,,,,,,,,,,,,,,
,,0,118,,,,,,,1,6,2,stim/62.jpeg,HouseObjects,1,stim/objects/HouseObjects/match.png,0.5,1,-0.2,0.15,left,57,2021-02-16_05h09.17.732,premup-three_ses-01_part-01_label-phase1,3.2.4,Win32,60,right,0.8349998,4,0,4,0,1,3,1,0,240,53,1,239,,,,,,,,,,,,,,,,,,
,,1,119,,,,,,,3,3,2,stim/32.jpeg,Instruments,2,stim/objects/Instruments/musicsheet2.png,0.9,4,0.2,-0.15,right,57,2021-02-16_05h09.17.732,premup-three_ses-01_part-01_label-phase1,3.2.4,Win32,60,right,0.726000071,4,0,4,0,1,3,1,0,240,189,1,239,,,,,,,,,,,,,,,,,,
,,0,120,,,,,,,1,5,4,stim/54.jpeg,Instruments,2,stim/objects/Instruments/marimba.png,0.5,3,-0.2,-0.15,right,57,2021-02-16_05h09.17.732,premup-three_ses-01_part-01_label-phase1,3.2.4,Win32,60,left,0.719000101,4,0,4,0,1,3,1,0,240,31,1,239,,,,,,,,,,,,,,,,,,
,,1,121,,,,,,,3,4,4,stim/44.jpeg,HouseObjects,1,stim/objects/HouseObjects/rug2.png,0.9,1,-0.2,0.15,left,57,2021-02-16_05h09.17.732,premup-three_ses-01_part-01_label-phase1,3.2.4,Win32,60,left,0.596999884,4,0,4,0,1,3,1,0,240,207,1,239,,,,,,,,,,,,,,,,,,
,,0,122,,,,,,,2,1,3,stim/13.jpeg,HouseObjects,1,stim/objects/HouseObjects/rubbergloves.png,0.3,4,0.2,-0.15,left,57,2021-02-16_05h09.17.732,premup-three_ses-01_part-01_label-phase1,3.2.4,Win32,60,right,0.764999866,4,0,4,0,1,3,1,0,240,82,1,239,,,,,,,,,,,,,,,,,,
,,0,123,,,,,,,2,2,4,stim/24.jpeg,HouseObjects,1,stim/objects/HouseObjects/knife2.png,0.7,2,0.2,0.15,left,57,2021-02-16_05h09.17.732,premup-three_ses-01_part-01_label-phase1,3.2.4,Win32,60,right,1.01699996,4,0,4,0,1,3,1,0,240,135,1,239,,,,,,,,,,,,,,,,,,
,,0,124,,,,,,,2,1,3,stim/13.jpeg,HouseObjects,1,stim/objects/HouseObjects/rubbergloves.png,0.3,4,0.2,-0.15,left,57,2021-02-16_05h09.17.732,premup-three_ses-01_part-01_label-phase1,3.2.4,Win32,60,right,0.744999886,4,0,4,0,1,3,1,0,240,86,1,239,,,,,,,,,,,,,,,,,,
,,1,125,,,,,,,3,3,4,stim/34.jpeg,Instruments,2,stim/objects/Instruments/oboe2.png,0.9,3,-0.2,-0.15,right,57,2021-02-16_05h09.17.732,premup-three_ses-01_part-01_label-phase1,3.2.4,Win32,60,right,0.681999922,4,0,4,0,1,3,1,0,240,195,1,239,,,,,,,,,,,,,,,,,,
,,1,126,,,,,,,3,4,1,stim/41.jpeg,HouseObjects,1,stim/objects/HouseObjects/recyclingbin2.png,0.9,1,-0.2,0.15,left,57,2021-02-16_05h09.17.732,premup-three_ses-01_part-01_label-phase1,3.2.4,Win32,60,left,0.676000118,4,0,4,0,1,3,1,0,240,208,1,239,,,,,,,,,,,,,,,,,,
,,0,127,,,,,,,1,6,1,stim/61.jpeg,Instruments,2,stim/objects/Instruments/metronome.png,0.5,3,-0.2,-0.15,right,57,2021-02-16_05h09.17.732,premup-three_ses-01_part-01_label-phase1,3.2.4,Win32,60,left,0.710000038,4,0,4,0,1,3,1,0,240,76,1,239,,,,,,,,,,,,,,,,,,
,,1,128,,,,,,,2,1,3,stim/13.jpeg,Instruments,2,stim/objects/Instruments/record.png,0.7,4,0.2,-0.15,right,57,2021-02-16_05h09.17.732,premup-three_ses-01_part-01_label-phase1,3.2.4,Win32,60,right,0.822000027,4,0,4,0,1,3,1,0,240,106,1,239,,,,,,,,,,,,,,,,,,
,,0,129,,,,,,,1,6,2,stim/62.jpeg,Instruments,2,stim/objects/Instruments/musicsheet.png,0.5,1,-0.2,0.15,right,57,2021-02-16_05h09.17.732,premup-three_ses-01_part-01_label-phase1,3.2.4,Win32,60,left,0.855000019,4,0,4,0,1,3,1,0,240,73,1,239,,,,,,,,,,,,,,,,,,
,,1,130,,,,,,,2,1,2,stim/12.jpeg,Instruments,2,stim/objects/Instruments/pipepiano.png,0.7,3,-0.2,-0.15,right,57,2021-02-16_05h09.17.732,premup-three_ses-01_part-01_label-phase1,3.2.4,Win32,60,right,0.940000057,4,0,4,0,1,3,1,0,240,101,1,239,,,,,,,,,,,,,,,,,,
,,1,131,,,,,,,3,3,3,stim/33.jpeg,Instruments,2,stim/objects/Instruments/musicstand2.png,0.9,1,-0.2,0.15,right,57,2021-02-16_05h09.17.732,premup-three_ses-01_part-01_label-phase1,3.2.4,Win32,60,right,0.511999846,4,0,4,0,1,3,1,0,240,170,1,239,,,,,,,,,,,,,,,,,,
,,0,132,,,,,,,1,5,1,stim/51.jpeg,Instruments,2,stim/objects/Instruments/keyboard.png,0.5,4,0.2,-0.15,right,57,2021-02-16_05h09.17.732,premup-three_ses-01_part-01_label-phase1,3.2.4,Win32,60,left,0.576999903,4,0,4,0,1,3,1,0,240,20,1,239,,,,,,,,,,,,,,,,,,
,,0,133,,,,,,,2,2,4,stim/24.jpeg,Instruments,2,stim/objects/Instruments/marimba2.png,0.3,2,0.2,0.15,right,57,2021-02-16_05h09.17.732,premup-three_ses-01_part-01_label-phase1,3.2.4,Win32,60,left,0.503000021,4,0,4,0,1,3,1,0,240,155,1,239,,,,,,,,,,,,,,,,,,
,,0,134,,,,,,,2,1,4,stim/14.jpeg,HouseObjects,1,stim/objects/HouseObjects/rug.png,0.3,3,-0.2,-0.15,left,57,2021-02-16_05h09.17.732,premup-three_ses-01_part-01_label-phase1,3.2.4,Win32,60,right,0.786999941,4,0,4,0,1,3,1,0,240,91,1,239,,,,,,,,,,,,,,,,,,
