id_acc,key_resp_id.keys,key_resp_id.rt,key_resp_conf.keys,key_resp_conf.rt,assoc_acc,key_resp_assoc.keys,key_resp_assoc.rt,loc_acc,key_resp_loc.keys,key_resp_loc.rt,task_innerloop.thisRepN,task_innerloop.thisTrialN,task_innerloop.thisN,task_innerloop.thisIndex,task_innerloop.ran,task_innerloop.order,context_type,object_cat,PE_level,OvsN,obj_file,scn_file,corr_scn_cat,assoc_file,corr_scn_inst,corr_loc,participant,date,expName,psychopyVersion,OS,frameRate
1,right,1.708999872,,,0,,,0,,,1,0,200,158,1,199,0,2,0,2,stim/objects/Instruments/triangle3.png,,0,stim/0.png,0,0,57,2021-02-18_04h06.51.858,premup-three_ses-02_part-03_label-phase3,3.2.4,Win32,60
1,left,1.983999968,3,2.230999947,0,3,3.523999929,0,2,2.911000013,1,0,200,46,1,199,2,1,0.7,1,stim/objects/HouseObjects/clothespin2.png,stim/22.jpeg,2,stim/2.png,2,3,57,2021-02-18_04h06.51.858,premup-three_ses-02_part-03_label-phase3,3.2.4,Win32,60
1,right,2.901000023,,,0,,,0,,,1,0,200,174,1,199,0,2,0,2,stim/objects/Instruments/xylophone3.png,,0,stim/0.png,0,0,57,2021-02-18_04h06.51.858,premup-three_ses-02_part-03_label-phase3,3.2.4,Win32,60
1,left,1.672999859,,,0,,,0,,,1,0,200,105,1,199,0,1,0,2,stim/objects/HouseObjects/blender3.png,,0,stim/0.png,0,0,57,2021-02-18_04h06.51.858,premup-three_ses-02_part-03_label-phase3,3.2.4,Win32,60
1,left,1.633000135,4,1.835999966,0,4,2.052000046,0,4,0.536000013,1,0,200,50,1,199,2,2,0.3,1,stim/objects/Instruments/bassguitar2.png,stim/22.jpeg,2,stim/2.png,2,4,57,2021-02-18_04h06.51.858,premup-three_ses-02_part-03_label-phase3,3.2.4,Win32,60
1,right,1.860000134,4,1.273000002,0,1,1.858999968,0,3,1.531999826,1,0,200,63,1,199,3,1,0.1,1,stim/objects/HouseObjects/garbagebin2.png,stim/34.jpeg,3,stim/3.png,4,4,57,2021-02-18_04h06.51.858,premup-three_ses-02_part-03_label-phase3,3.2.4,Win32,60
1,left,1.559999943,3,0.898999929,0,2,2.995000124,0,3,1.096999884,1,0,200,66,1,199,3,1,0.1,1,stim/objects/HouseObjects/hairdryer2.png,stim/33.jpeg,3,stim/3.png,3,3,57,2021-02-18_04h06.51.858,premup-three_ses-02_part-03_label-phase3,3.2.4,Win32,60
1,right,1.240999937,,,0,,,0,,,1,0,200,186,1,199,0,1,0,2,stim/objects/HouseObjects/clothespin4.png,,0,stim/0.png,0,0,57,2021-02-18_04h06.51.858,premup-three_ses-02_part-03_label-phase3,3.2.4,Win32,60
1,right,1.721999884,,,0,,,0,,,1,0,200,143,1,199,0,1,0,2,stim/objects/HouseObjects/handvacuum3.png,,0,stim/0.png,0,0,57,2021-02-18_04h06.51.858,premup-three_ses-02_part-03_label-phase3,3.2.4,Win32,60
1,right,2.994999886,4,1.095000029,0,1,1.679000139,0,4,0.913000107,1,0,200,62,1,199,3,1,0.1,1,stim/objects/HouseObjects/flyswatter2.png,stim/33.jpeg,3,stim/3.png,3,3,57,2021-02-18_04h06.51.858,premup-three_ses-02_part-03_label-phase3,3.2.4,Win32,60
1,right,1.805000067,,,0,,,0,,,1,0,200,194,1,199,0,2,0,2,stim/objects/Instruments/cornet4.png,,0,stim/0.png,0,0,57,2021-02-18_04h06.51.858,premup-three_ses-02_part-03_label-phase3,3.2.4,Win32,60
1,left,1.673000097,4,2.364000082,0,4,2.279999971,0,3,0.867999792,1,0,200,98,1,199,3,2,0.1,1,stim/objects/Instruments/vuvuzela2.png,stim/43.jpeg,4,stim/4.png,3,3,57,2021-02-18_04h06.51.858,premup-three_ses-02_part-03_label-phase3,3.2.4,Win32,60
1,right,1.096999884,3,1.090000153,0,2,1.910000086,0,3,0.607000113,1,0,200,73,1,199,3,2,0.9,1,stim/objects/Instruments/gong2.png,stim/32.jpeg,3,stim/3.png,2,2,57,2021-02-18_04h06.51.858,premup-three_ses-02_part-03_label-phase3,3.2.4,Win32,60
1,left,1.167999983,4,1.079999924,0,3,2.368999958,0,2,0.832000017,1,0,200,6,1,199,1,1,0.5,1,stim/objects/Instruments/harmonica.png,stim/53.jpeg,5,stim/5.png,3,3,57,2021-02-18_04h06.51.858,premup-three_ses-02_part-03_label-phase3,3.2.4,Win32,60
1,left,1.004999876,3,0.81099987,0,2,3.414000034,0,3,1.881999969,1,0,200,4,1,199,1,1,0.5,1,stim/objects/HouseObjects/safetypin.png,stim/53.jpeg,5,stim/5.png,3,3,57,2021-02-18_04h06.51.858,premup-three_ses-02_part-03_label-phase3,3.2.4,Win32,60
1,right,0.847999811,4,1.012000084,0,1,1.818000078,0,2,1.019999981,1,0,200,83,1,199,3,1,0.9,1,stim/objects/HouseObjects/spraybottle2.png,stim/44.jpeg,4,stim/4.png,4,1,57,2021-02-18_04h06.51.858,premup-three_ses-02_part-03_label-phase3,3.2.4,Win32,60
1,right,1.075999975,2,1.549999952,0,4,1.950000048,0,3,0.615999937,1,0,200,67,1,199,3,1,0.1,1,stim/objects/HouseObjects/handbrush2.png,stim/34.jpeg,3,stim/3.png,4,3,57,2021-02-18_04h06.51.858,premup-three_ses-02_part-03_label-phase3,3.2.4,Win32,60
1,left,1.243000031,3,2.944000006,0,3,1.80700016,0,4,0.674000025,1,0,200,71,1,199,3,2,0.9,1,stim/objects/Instruments/flutetrans2.png,stim/34.jpeg,3,stim/3.png,4,4,57,2021-02-18_04h06.51.858,premup-three_ses-02_part-03_label-phase3,3.2.4,Win32,60
1,right,0.967000008,2,1.541000128,0,3,2.118000031,0,3,1.269999981,1,0,200,13,1,199,1,2,0.5,1,stim/objects/HouseObjects/spraybottle.png,stim/64.jpeg,6,stim/6.png,4,3,57,2021-02-18_04h06.51.858,premup-three_ses-02_part-03_label-phase3,3.2.4,Win32,60
1,left,2.145999908,4,0.828999996,0,4,2.174999952,0,2,1.303000212,1,0,200,97,1,199,3,2,0.1,1,stim/objects/Instruments/violin2.png,stim/42.jpeg,4,stim/4.png,2,2,57,2021-02-18_04h06.51.858,premup-three_ses-02_part-03_label-phase3,3.2.4,Win32,60
1,right,3.660000086,,,0,,,0,,,1,0,200,109,1,199,0,1,0,2,stim/objects/HouseObjects/clock3.png,,0,stim/0.png,0,0,57,2021-02-18_04h06.51.858,premup-three_ses-02_part-03_label-phase3,3.2.4,Win32,60
1,right,1.570000172,,,0,,,0,,,1,0,200,121,1,199,0,1,0,2,stim/objects/HouseObjects/clothespin3.png,,0,stim/0.png,0,0,57,2021-02-18_04h06.51.858,premup-three_ses-02_part-03_label-phase3,3.2.4,Win32,60
1,left,0.826000214,4,1.884000063,0,3,2.118999958,0,4,0.870000124,1,0,200,27,1,199,2,1,0.3,1,stim/objects/HouseObjects/barbecuelighter2.png,stim/14.jpeg,1,stim/1.png,4,3,57,2021-02-18_04h06.51.858,premup-three_ses-02_part-03_label-phase3,3.2.4,Win32,60
1,right,0.883999825,,,0,,,0,,,1,0,200,147,1,199,0,1,0,2,stim/objects/HouseObjects/sponge3.png,,0,stim/0.png,0,0,57,2021-02-18_04h06.51.858,premup-three_ses-02_part-03_label-phase3,3.2.4,Win32,60
1,right,0.936000109,3,0.824999809,0,1,2,0,3,1.643000126,1,0,200,59,1,199,2,2,0.3,1,stim/objects/Instruments/electricguitar2.png,stim/23.jpeg,2,stim/2.png,3,1,57,2021-02-18_04h06.51.858,premup-three_ses-02_part-03_label-phase3,3.2.4,Win32,60
1,right,0.830000162,2,1.036999941,0,1,1.000999928,0,3,1.717000008,1,0,200,24,1,199,2,1,0.3,1,stim/objects/HouseObjects/wateringcan.png,stim/11.jpeg,1,stim/1.png,1,1,57,2021-02-18_04h06.51.858,premup-three_ses-02_part-03_label-phase3,3.2.4,Win32,60
1,right,1.518000126,,,0,,,0,,,1,0,200,161,1,199,0,1,0,2,stim/objects/HouseObjects/thread3.png,,0,stim/0.png,0,0,57,2021-02-18_04h06.51.858,premup-three_ses-02_part-03_label-phase3,3.2.4,Win32,60
1,right,0.759000063,,,0,,,0,,,1,0,200,184,1,199,0,1,0,2,stim/objects/HouseObjects/clock4.png,,0,stim/0.png,0,0,57,2021-02-18_04h06.51.858,premup-three_ses-02_part-03_label-phase3,3.2.4,Win32,60
1,right,1.004999876,2,1.363999844,0,3,2.142999887,0,4,1.511999846,1,0,200,70,1,199,3,2,0.9,1,stim/objects/Instruments/flute2.png,stim/33.jpeg,3,stim/3.png,3,4,57,2021-02-18_04h06.51.858,premup-three_ses-02_part-03_label-phase3,3.2.4,Win32,60
1,right,0.913000107,2,1.03000021,0,4,1.778000116,0,3,0.93900013,1,0,200,60,1,199,3,1,0.1,1,stim/objects/HouseObjects/doormat2.png,stim/31.jpeg,3,stim/3.png,1,1,57,2021-02-18_04h06.51.858,premup-three_ses-02_part-03_label-phase3,3.2.4,Win32,60
1,right,1.101000071,2,1.375,0,1,1.985000134,0,3,0.750999928,1,0,200,68,1,199,3,1,0.1,1,stim/objects/HouseObjects/handvacuum2.png,stim/31.jpeg,3,stim/3.png,1,2,57,2021-02-18_04h06.51.858,premup-three_ses-02_part-03_label-phase3,3.2.4,Win32,60
1,right,0.982999802,,,0,,,0,,,1,0,200,151,1,199,0,2,0,2,stim/objects/Instruments/harmonica3.png,,0,stim/0.png,0,0,57,2021-02-18_04h06.51.858,premup-three_ses-02_part-03_label-phase3,3.2.4,Win32,60
1,left,1.123000145,2,1.760999918,0,3,1.744999886,0,3,1.450999975,1,0,200,72,1,199,3,2,0.9,1,stim/objects/Instruments/frenchhorn2.png,stim/31.jpeg,3,stim/3.png,1,1,57,2021-02-18_04h06.51.858,premup-three_ses-02_part-03_label-phase3,3.2.4,Win32,60
1,right,0.955000162,1,3.139000177,0,4,1.142999887,0,3,1.868999958,1,0,200,55,1,199,2,2,0.3,1,stim/objects/Instruments/cymbal2.png,stim/23.jpeg,2,stim/2.png,3,4,57,2021-02-18_04h06.51.858,premup-three_ses-02_part-03_label-phase3,3.2.4,Win32,60
1,right,0.967000008,3,1.164999962,0,4,1.378999949,0,2,1.279999971,1,0,200,33,1,199,2,2,0.7,1,stim/objects/Instruments/vuvuzela.png,stim/11.jpeg,1,stim/1.png,1,2,57,2021-02-18_04h06.51.858,premup-three_ses-02_part-03_label-phase3,3.2.4,Win32,60
1,left,1.51699996,,,0,,,0,,,1,0,200,118,1,199,0,2,0,2,stim/objects/Instruments/clarinet3.png,,0,stim/0.png,0,0,57,2021-02-18_04h06.51.858,premup-three_ses-02_part-03_label-phase3,3.2.4,Win32,60
1,right,0.988999844,2,1.111999989,0,3,1.221999884,0,1,1.746000051,1,0,200,76,1,199,3,2,0.9,1,stim/objects/Instruments/harmonica2.png,stim/31.jpeg,3,stim/3.png,1,1,57,2021-02-18_04h06.51.858,premup-three_ses-02_part-03_label-phase3,3.2.4,Win32,60
1,right,1.278000116,,,0,,,0,,,1,0,200,169,1,199,0,1,0,2,stim/objects/HouseObjects/bleachbottle4.png,,0,stim/0.png,0,0,57,2021-02-18_04h06.51.858,premup-three_ses-02_part-03_label-phase3,3.2.4,Win32,60
1,right,1.345000029,,,0,,,0,,,1,0,200,102,1,199,0,1,0,2,stim/objects/HouseObjects/barbecuelighter3.png,,0,stim/0.png,0,0,57,2021-02-18_04h06.51.858,premup-three_ses-02_part-03_label-phase3,3.2.4,Win32,60
1,left,1.202000141,3,0.996999979,0,3,1.710999966,0,4,2.595000029,1,0,200,1,1,199,1,1,0.5,1,stim/objects/HouseObjects/hairdryer.png,stim/54.jpeg,5,stim/5.png,4,3,57,2021-02-18_04h06.51.858,premup-three_ses-02_part-03_label-phase3,3.2.4,Win32,60
1,left,0.705000162,3,0.838999987,0,1,1.208999872,0,4,2.342000008,1,0,200,31,1,199,2,2,0.7,1,stim/objects/Instruments/tuba.png,stim/13.jpeg,1,stim/1.png,3,3,57,2021-02-18_04h06.51.858,premup-three_ses-02_part-03_label-phase3,3.2.4,Win32,60
1,right,1.327000141,,,0,,,0,,,1,0,200,189,1,199,0,1,0,2,stim/objects/HouseObjects/dishsoap4.png,,0,stim/0.png,0,0,57,2021-02-18_04h06.51.858,premup-three_ses-02_part-03_label-phase3,3.2.4,Win32,60
1,right,0.870999813,4,0.917999983,0,3,2.052000046,0,4,1.101999998,1,0,200,87,1,199,3,1,0.9,1,stim/objects/HouseObjects/towel2.png,stim/44.jpeg,4,stim/4.png,4,3,57,2021-02-18_04h06.51.858,premup-three_ses-02_part-03_label-phase3,3.2.4,Win32,60
1,right,1.499000072,,,0,,,0,,,1,0,200,152,1,199,0,2,0,2,stim/objects/Instruments/harp3.png,,0,stim/0.png,0,0,57,2021-02-18_04h06.51.858,premup-three_ses-02_part-03_label-phase3,3.2.4,Win32,60
1,left,0.921000004,3,0.843999863,0,4,1.884000063,0,2,1.263999939,1,0,200,35,1,199,2,2,0.7,1,stim/objects/Instruments/accordion2.png,stim/13.jpeg,1,stim/1.png,3,2,57,2021-02-18_04h06.51.858,premup-three_ses-02_part-03_label-phase3,3.2.4,Win32,60
1,right,1.337000132,,,0,,,0,,,1,0,200,191,1,199,0,2,0,2,stim/objects/Instruments/cello4.png,,0,stim/0.png,0,0,57,2021-02-18_04h06.51.858,premup-three_ses-02_part-03_label-phase3,3.2.4,Win32,60
1,right,0.613999844,3,0.851999998,0,3,0.946000099,0,4,1.907000065,1,0,200,22,1,199,2,1,0.3,1,stim/objects/HouseObjects/towel.png,stim/13.jpeg,1,stim/1.png,3,1,57,2021-02-18_04h06.51.858,premup-three_ses-02_part-03_label-phase3,3.2.4,Win32,60
1,right,1.795000076,,,0,,,0,,,1,0,200,120,1,199,0,1,0,2,stim/objects/HouseObjects/clothesdryingrack3.png,,0,stim/0.png,0,0,57,2021-02-18_04h06.51.858,premup-three_ses-02_part-03_label-phase3,3.2.4,Win32,60
1,left,1.249000072,3,0.720999956,0,3,1.118000031,0,3,1.571999788,1,0,200,47,1,199,2,1,0.7,1,stim/objects/HouseObjects/coffee2.png,stim/23.jpeg,2,stim/2.png,3,2,57,2021-02-18_04h06.51.858,premup-three_ses-02_part-03_label-phase3,3.2.4,Win32,60
1,right,0.85800004,,,0,,,0,,,1,0,200,196,1,199,0,2,0,2,stim/objects/Instruments/doublebass4.png,,0,stim/0.png,0,0,57,2021-02-18_04h06.51.858,premup-three_ses-02_part-03_label-phase3,3.2.4,Win32,60
1,right,0.868999958,,,0,,,0,,,1,0,200,110,1,199,0,2,0,2,stim/objects/Instruments/accordion3.png,,0,stim/0.png,0,0,57,2021-02-18_04h06.51.858,premup-three_ses-02_part-03_label-phase3,3.2.4,Win32,60
1,right,1.023999929,,,0,,,0,,,1,0,200,166,1,199,0,1,0,2,stim/objects/HouseObjects/ballofstring4.png,,0,stim/0.png,0,0,57,2021-02-18_04h06.51.858,premup-three_ses-02_part-03_label-phase3,3.2.4,Win32,60
1,left,1.299999952,3,0.938000202,0,2,1.884000063,0,2,1.681999922,1,0,200,32,1,199,2,2,0.7,1,stim/objects/Instruments/violin.png,stim/14.jpeg,1,stim/1.png,4,2,57,2021-02-18_04h06.51.858,premup-three_ses-02_part-03_label-phase3,3.2.4,Win32,60
1,right,0.88499999,,,0,,,0,,,1,0,200,111,1,199,0,2,0,2,stim/objects/Instruments/acousticguitar3.png,,0,stim/0.png,0,0,57,2021-02-18_04h06.51.858,premup-three_ses-02_part-03_label-phase3,3.2.4,Win32,60
1,left,1.095999956,,,0,,,0,,,1,0,200,183,1,199,0,1,0,2,stim/objects/HouseObjects/bucket4.png,,0,stim/0.png,0,0,57,2021-02-18_04h06.51.858,premup-three_ses-02_part-03_label-phase3,3.2.4,Win32,60
1,right,1.361999989,,,0,,,0,,,1,0,200,126,1,199,0,1,0,2,stim/objects/HouseObjects/dustpan3.png,,0,stim/0.png,0,0,57,2021-02-18_04h06.51.858,premup-three_ses-02_part-03_label-phase3,3.2.4,Win32,60
1,right,0.930000067,3,0.881999969,0,4,2.6650002,0,3,0.601000071,1,0,200,61,1,199,3,1,0.1,1,stim/objects/HouseObjects/dustpan2.png,stim/32.jpeg,3,stim/3.png,2,2,57,2021-02-18_04h06.51.858,premup-three_ses-02_part-03_label-phase3,3.2.4,Win32,60
1,right,0.78399992,2,1.365999937,0,3,0.777999878,0,3,1.267000198,1,0,200,26,1,199,2,1,0.3,1,stim/objects/HouseObjects/ballofstring2.png,stim/13.jpeg,1,stim/1.png,3,3,57,2021-02-18_04h06.51.858,premup-three_ses-02_part-03_label-phase3,3.2.4,Win32,60
1,right,0.720999956,,,0,,,0,,,1,0,200,150,1,199,0,2,0,2,stim/objects/Instruments/guitarcase3.png,,0,stim/0.png,0,0,57,2021-02-18_04h06.51.858,premup-three_ses-02_part-03_label-phase3,3.2.4,Win32,60
1,right,0.812000036,2,0.898000002,0,3,0.769000053,0,4,0.684000015,1,0,200,25,1,199,2,1,0.3,1,stim/objects/HouseObjects/ashtray2.png,stim/12.jpeg,1,stim/1.png,2,2,57,2021-02-18_04h06.51.858,premup-three_ses-02_part-03_label-phase3,3.2.4,Win32,60
1,left,1.583999872,,,0,,,0,,,1,0,200,195,1,199,0,2,0,2,stim/objects/Instruments/cymbal4.png,,0,stim/0.png,0,0,57,2021-02-18_04h06.51.858,premup-three_ses-02_part-03_label-phase3,3.2.4,Win32,60
1,right,1.654999971,,,0,,,0,,,1,0,200,140,1,199,0,1,0,2,stim/objects/HouseObjects/glassmop3.png,,0,stim/0.png,0,0,57,2021-02-18_04h06.51.858,premup-three_ses-02_part-03_label-phase3,3.2.4,Win32,60
1,left,0.960000038,3,0.868000031,0,2,1.399000168,0,3,2.032000065,1,0,200,54,1,199,2,2,0.3,1,stim/objects/Instruments/cornet2.png,stim/22.jpeg,2,stim/2.png,2,4,57,2021-02-18_04h06.51.858,premup-three_ses-02_part-03_label-phase3,3.2.4,Win32,60
1,right,0.965999842,,,0,,,0,,,1,0,200,104,1,199,0,1,0,2,stim/objects/HouseObjects/bleachbottle3.png,,0,stim/0.png,0,0,57,2021-02-18_04h06.51.858,premup-three_ses-02_part-03_label-phase3,3.2.4,Win32,60
1,right,1.488999844,,,0,,,0,,,1,0,200,197,1,199,0,2,0,2,stim/objects/Instruments/drums4.png,,0,stim/0.png,0,0,57,2021-02-18_04h06.51.858,premup-three_ses-02_part-03_label-phase3,3.2.4,Win32,60
1,right,0.749000072,,,0,,,0,,,1,0,200,122,1,199,0,1,0,2,stim/objects/HouseObjects/coffee3.png,,0,stim/0.png,0,0,57,2021-02-18_04h06.51.858,premup-three_ses-02_part-03_label-phase3,3.2.4,Win32,60
1,right,0.747999907,,,0,,,0,,,1,0,200,148,1,199,0,1,0,2,stim/objects/HouseObjects/spraybottle3.png,,0,stim/0.png,0,0,57,2021-02-18_04h06.51.858,premup-three_ses-02_part-03_label-phase3,3.2.4,Win32,60
1,right,0.618000031,,,0,,,0,,,1,0,200,128,1,199,0,1,0,2,stim/objects/HouseObjects/garbagebin3.png,,0,stim/0.png,0,0,57,2021-02-18_04h06.51.858,premup-three_ses-02_part-03_label-phase3,3.2.4,Win32,60
1,right,1.274000168,1,2.173000097,0,3,1.198999882,0,2,2.141000032,1,0,200,92,1,199,3,2,0.1,1,stim/objects/Instruments/timbal2.png,stim/41.jpeg,4,stim/4.png,1,1,57,2021-02-18_04h06.51.858,premup-three_ses-02_part-03_label-phase3,3.2.4,Win32,60
1,left,1.067000151,3,0.843999863,0,3,1.493000031,0,3,1.398000002,1,0,200,16,1,199,1,2,0.5,1,stim/objects/Instruments/tambourine.png,stim/61.jpeg,6,stim/6.png,1,2,57,2021-02-18_04h06.51.858,premup-three_ses-02_part-03_label-phase3,3.2.4,Win32,60
1,right,0.833999872,2,1.276000023,0,1,1.15500021,0,3,1.750999928,1,0,200,30,1,199,2,2,0.7,1,stim/objects/Instruments/trumpet.png,stim/12.jpeg,1,stim/1.png,2,4,57,2021-02-18_04h06.51.858,premup-three_ses-02_part-03_label-phase3,3.2.4,Win32,60
1,right,0.854000092,,,0,,,0,,,1,0,200,180,1,199,0,1,0,2,stim/objects/HouseObjects/blender4.png,,0,stim/0.png,0,0,57,2021-02-18_04h06.51.858,premup-three_ses-02_part-03_label-phase3,3.2.4,Win32,60
1,left,3.04399991,2,1.299000025,0,3,1.444999933,0,4,1.421000004,1,0,200,9,1,199,1,1,0.5,1,stim/objects/Instruments/saxophone.png,stim/52.jpeg,5,stim/5.png,2,2,57,2021-02-18_04h06.51.858,premup-three_ses-02_part-03_label-phase3,3.2.4,Win32,60
1,left,1.286999941,4,0.937999964,0,2,1.82400012,0,2,2.386000156,1,0,200,53,1,199,2,2,0.3,1,stim/objects/Instruments/clarinet2.png,stim/21.jpeg,2,stim/2.png,1,1,57,2021-02-18_04h06.51.858,premup-three_ses-02_part-03_label-phase3,3.2.4,Win32,60
1,right,1.921999931,3,1.256000042,0,4,1.036000013,0,3,1.503999949,1,0,200,93,1,199,3,2,0.1,1,stim/objects/Instruments/triangle2.png,stim/42.jpeg,4,stim/4.png,2,1,57,2021-02-18_04h06.51.858,premup-three_ses-02_part-03_label-phase3,3.2.4,Win32,60
1,right,1.127000093,,,0,,,0,,,1,0,200,149,1,199,0,1,0,2,stim/objects/HouseObjects/teapot3.png,,0,stim/0.png,0,0,57,2021-02-18_04h06.51.858,premup-three_ses-02_part-03_label-phase3,3.2.4,Win32,60
1,right,0.751000166,,,0,,,0,,,1,0,200,199,1,199,0,2,0,2,stim/objects/Instruments/electricguitar4.png,,0,stim/0.png,0,0,57,2021-02-18_04h06.51.858,premup-three_ses-02_part-03_label-phase3,3.2.4,Win32,60
1,right,0.842000008,3,1.586999893,0,4,1.056999922,0,4,1.491000175,1,0,200,11,1,199,1,2,0.5,1,stim/objects/HouseObjects/scale.png,stim/62.jpeg,6,stim/6.png,2,2,57,2021-02-18_04h06.51.858,premup-three_ses-02_part-03_label-phase3,3.2.4,Win32,60
1,left,1.10800004,,,0,,,0,,,1,0,200,178,1,199,0,2,0,2,stim/objects/Instruments/banjo4.png,,0,stim/0.png,0,0,57,2021-02-18_04h06.51.858,premup-three_ses-02_part-03_label-phase3,3.2.4,Win32,60
1,right,1.460000038,2,1.138999939,0,4,1.156000137,0,4,0.659000158,1,0,200,79,1,199,3,2,0.9,1,stim/objects/Instruments/saxophone2.png,stim/34.jpeg,3,stim/3.png,4,2,57,2021-02-18_04h06.51.858,premup-three_ses-02_part-03_label-phase3,3.2.4,Win32,60
1,right,1.422999859,3,1.296000004,0,3,1.349999905,0,2,1.772000074,1,0,200,20,1,199,2,1,0.3,1,stim/objects/HouseObjects/thermometer.png,stim/11.jpeg,1,stim/1.png,1,1,57,2021-02-18_04h06.51.858,premup-three_ses-02_part-03_label-phase3,3.2.4,Win32,60
1,right,1.05700016,,,0,,,0,,,1,0,200,135,1,199,0,2,0,2,stim/objects/Instruments/flute3.png,,0,stim/0.png,0,0,57,2021-02-18_04h06.51.858,premup-three_ses-02_part-03_label-phase3,3.2.4,Win32,60
1,right,0.583999872,,,0,,,0,,,1,0,200,163,1,199,0,1,0,2,stim/objects/HouseObjects/vacuumcleaner3.png,,0,stim/0.png,0,0,57,2021-02-18_04h06.51.858,premup-three_ses-02_part-03_label-phase3,3.2.4,Win32,60
1,right,0.49000001,2,2.654000044,0,1,1.282999992,0,2,1.729000092,1,0,200,23,1,199,2,1,0.3,1,stim/objects/HouseObjects/vacuumcleaner.png,stim/14.jpeg,1,stim/1.png,4,1,57,2021-02-18_04h06.51.858,premup-three_ses-02_part-03_label-phase3,3.2.4,Win32,60
1,right,0.960999966,,,0,,,0,,,1,0,200,137,1,199,0,2,0,2,stim/objects/Instruments/frenchhorn3.png,,0,stim/0.png,0,0,57,2021-02-18_04h06.51.858,premup-three_ses-02_part-03_label-phase3,3.2.4,Win32,60
1,right,0.945000172,,,0,,,0,,,1,0,200,107,1,199,0,1,0,2,stim/objects/HouseObjects/broom3.png,,0,stim/0.png,0,0,57,2021-02-18_04h06.51.858,premup-three_ses-02_part-03_label-phase3,3.2.4,Win32,60
1,right,1.546999931,,,0,,,0,,,1,0,200,114,1,199,0,2,0,2,stim/objects/Instruments/bassdrum3.png,,0,stim/0.png,0,0,57,2021-02-18_04h06.51.858,premup-three_ses-02_part-03_label-phase3,3.2.4,Win32,60
1,right,0.810000181,3,0.973999977,0,3,1.007999897,0,3,0.754999876,1,0,200,69,1,199,3,1,0.1,1,stim/objects/HouseObjects/safetypin2.png,stim/32.jpeg,3,stim/3.png,2,1,57,2021-02-18_04h06.51.858,premup-three_ses-02_part-03_label-phase3,3.2.4,Win32,60
1,right,1.062000036,,,0,,,0,,,1,0,200,141,1,199,0,1,0,2,stim/objects/HouseObjects/hairdryer3.png,,0,stim/0.png,0,0,57,2021-02-18_04h06.51.858,premup-three_ses-02_part-03_label-phase3,3.2.4,Win32,60
1,left,0.953999996,,,0,,,0,,,1,0,200,176,1,199,0,2,0,2,stim/objects/Instruments/acousticguitar4.png,,0,stim/0.png,0,0,57,2021-02-18_04h06.51.858,premup-three_ses-02_part-03_label-phase3,3.2.4,Win32,60
1,right,1.347000122,3,0.602999926,0,3,0.943000078,0,4,1.747999907,1,0,200,39,1,199,2,2,0.7,1,stim/objects/Instruments/bassdrum2.png,stim/13.jpeg,1,stim/1.png,3,1,57,2021-02-18_04h06.51.858,premup-three_ses-02_part-03_label-phase3,3.2.4,Win32,60
1,right,1.092000008,4,1.02699995,0,2,2.109999895,0,2,1.363999844,1,0,200,28,1,199,2,1,0.3,1,stim/objects/HouseObjects/basket2.png,stim/11.jpeg,1,stim/1.png,1,2,57,2021-02-18_04h06.51.858,premup-three_ses-02_part-03_label-phase3,3.2.4,Win32,60
1,right,0.672999859,,,0,,,0,,,1,0,200,131,1,199,0,2,0,2,stim/objects/Instruments/doublebass3.png,,0,stim/0.png,0,0,57,2021-02-18_04h06.51.858,premup-three_ses-02_part-03_label-phase3,3.2.4,Win32,60
1,right,0.80700016,,,0,,,0,,,1,0,200,103,1,199,0,1,0,2,stim/objects/HouseObjects/basket3.png,,0,stim/0.png,0,0,57,2021-02-18_04h06.51.858,premup-three_ses-02_part-03_label-phase3,3.2.4,Win32,60
1,left,1.243000031,3,0.996999979,0,4,1.482999802,0,4,1.781999826,1,0,200,10,1,199,1,2,0.5,1,stim/objects/HouseObjects/saw.png,stim/61.jpeg,6,stim/6.png,1,2,57,2021-02-18_04h06.51.858,premup-three_ses-02_part-03_label-phase3,3.2.4,Win32,60
1,right,0.90899992,3,1.996000051,0,1,2.14199996,0,2,1.34100008,1,0,200,12,1,199,1,2,0.5,1,stim/objects/HouseObjects/sponge.png,stim/63.jpeg,6,stim/6.png,3,1,57,2021-02-18_04h06.51.858,premup-three_ses-02_part-03_label-phase3,3.2.4,Win32,60
1,right,0.667000055,1,2.796000004,0,3,1.778000116,0,1,2.433000088,1,0,200,37,1,199,2,2,0.7,1,stim/objects/Instruments/balalaika2.png,stim/11.jpeg,1,stim/1.png,1,4,57,2021-02-18_04h06.51.858,premup-three_ses-02_part-03_label-phase3,3.2.4,Win32,60
1,right,0.899999857,,,0,,,0,,,1,0,200,117,1,199,0,2,0,2,stim/objects/Instruments/chime3.png,,0,stim/0.png,0,0,57,2021-02-18_04h06.51.858,premup-three_ses-02_part-03_label-phase3,3.2.4,Win32,60
1,right,0.760999918,2,1.665999889,0,3,1.253999949,0,3,1.380999804,1,0,200,15,1,199,1,2,0.5,1,stim/objects/Instruments/speaker.png,stim/64.jpeg,6,stim/6.png,4,1,57,2021-02-18_04h06.51.858,premup-three_ses-02_part-03_label-phase3,3.2.4,Win32,60
1,right,0.70600009,3,2.678999901,0,4,2.565999985,0,3,2.059999943,1,0,200,52,1,199,2,2,0.3,1,stim/objects/Instruments/chime2.png,stim/24.jpeg,2,stim/2.png,4,1,57,2021-02-18_04h06.51.858,premup-three_ses-02_part-03_label-phase3,3.2.4,Win32,60
1,right,0.693000078,,,0,,,0,,,1,0,200,124,1,199,0,1,0,2,stim/objects/HouseObjects/dishsoap3.png,,0,stim/0.png,0,0,57,2021-02-18_04h06.51.858,premup-three_ses-02_part-03_label-phase3,3.2.4,Win32,60
1,right,2.397000074,,,0,,,0,,,1,0,200,119,1,199,0,2,0,2,stim/objects/Instruments/cornet3.png,,0,stim/0.png,0,0,57,2021-02-18_04h06.51.858,premup-three_ses-02_part-03_label-phase3,3.2.4,Win32,60
1,right,1.078999996,,,0,,,0,,,1,0,200,129,1,199,0,1,0,2,stim/objects/HouseObjects/glass3.png,,0,stim/0.png,0,0,57,2021-02-18_04h06.51.858,premup-three_ses-02_part-03_label-phase3,3.2.4,Win32,60
1,right,0.833999872,1,0.986999989,0,2,1.122999907,0,4,1.195999861,1,0,200,34,1,199,2,2,0.7,1,stim/objects/Instruments/xylophone.png,stim/12.jpeg,1,stim/1.png,2,3,57,2021-02-18_04h06.51.858,premup-three_ses-02_part-03_label-phase3,3.2.4,Win32,60
1,right,0.713999987,2,1.125,0,1,1.127999783,0,4,1.204999924,1,0,200,2,1,199,1,1,0.5,1,stim/objects/HouseObjects/handbrush.png,stim/51.jpeg,5,stim/5.png,1,1,57,2021-02-18_04h06.51.858,premup-three_ses-02_part-03_label-phase3,3.2.4,Win32,60
1,right,0.770999908,,,0,,,0,,,1,0,200,101,1,199,0,1,0,2,stim/objects/HouseObjects/ballofstring3.png,,0,stim/0.png,0,0,57,2021-02-18_04h06.51.858,premup-three_ses-02_part-03_label-phase3,3.2.4,Win32,60
1,right,0.618999958,,,0,,,0,,,1,0,200,185,1,199,0,1,0,2,stim/objects/HouseObjects/clothesdryingrack4.png,,0,stim/0.png,0,0,57,2021-02-18_04h06.51.858,premup-three_ses-02_part-03_label-phase3,3.2.4,Win32,60
1,right,0.72300005,,,0,,,0,,,1,0,200,175,1,199,0,2,0,2,stim/objects/Instruments/accordion4.png,,0,stim/0.png,0,0,57,2021-02-18_04h06.51.858,premup-three_ses-02_part-03_label-phase3,3.2.4,Win32,60
1,left,0.820999861,4,0.764999866,0,2,1.502000093,0,2,1.476999998,1,0,200,40,1,199,2,1,0.7,1,stim/objects/HouseObjects/blender2.png,stim/24.jpeg,2,stim/2.png,4,3,57,2021-02-18_04h06.51.858,premup-three_ses-02_part-03_label-phase3,3.2.4,Win32,60
1,right,0.607000113,,,0,,,0,,,1,0,200,162,1,199,0,1,0,2,stim/objects/HouseObjects/towel3.png,,0,stim/0.png,0,0,57,2021-02-18_04h06.51.858,premup-three_ses-02_part-03_label-phase3,3.2.4,Win32,60
1,right,1.087999821,,,0,,,0,,,1,0,200,127,1,199,0,1,0,2,stim/objects/HouseObjects/flyswatter3.png,,0,stim/0.png,0,0,57,2021-02-18_04h06.51.858,premup-three_ses-02_part-03_label-phase3,3.2.4,Win32,60
1,right,0.603999853,3,1.138999939,0,3,0.947999954,0,4,1.871000051,1,0,200,36,1,199,2,2,0.7,1,stim/objects/Instruments/acousticguitar2.png,stim/14.jpeg,1,stim/1.png,4,4,57,2021-02-18_04h06.51.858,premup-three_ses-02_part-03_label-phase3,3.2.4,Win32,60
1,left,0.941999912,,,0,,,0,,,1,0,200,172,1,199,0,2,0,2,stim/objects/Instruments/violin3.png,,0,stim/0.png,0,0,57,2021-02-18_04h06.51.858,premup-three_ses-02_part-03_label-phase3,3.2.4,Win32,60
1,left,1.849999905,2,1.747999907,0,1,1.444999933,0,4,1.092000008,1,0,200,44,1,199,2,1,0.7,1,stim/objects/HouseObjects/clock2.png,stim/24.jpeg,2,stim/2.png,4,3,57,2021-02-18_04h06.51.858,premup-three_ses-02_part-03_label-phase3,3.2.4,Win32,60
1,right,0.592000008,,,0,,,0,,,1,0,200,123,1,199,0,1,0,2,stim/objects/HouseObjects/cushion3.png,,0,stim/0.png,0,0,57,2021-02-18_04h06.51.858,premup-three_ses-02_part-03_label-phase3,3.2.4,Win32,60
1,left,1.582999945,3,0.779999971,0,2,2.128999949,0,2,1.310000181,1,0,200,43,1,199,2,1,0.7,1,stim/objects/HouseObjects/bucket2.png,stim/23.jpeg,2,stim/2.png,3,3,57,2021-02-18_04h06.51.858,premup-three_ses-02_part-03_label-phase3,3.2.4,Win32,60
1,left,1.065000057,2,1.09800005,0,4,1.140999794,0,4,0.93900013,1,0,200,3,1,199,1,1,0.5,1,stim/objects/HouseObjects/handvacuum.png,stim/52.jpeg,5,stim/5.png,2,4,57,2021-02-18_04h06.51.858,premup-three_ses-02_part-03_label-phase3,3.2.4,Win32,60
1,right,0.704999924,,,0,,,0,,,1,0,200,145,1,199,0,1,0,2,stim/objects/HouseObjects/saw3.png,,0,stim/0.png,0,0,57,2021-02-18_04h06.51.858,premup-three_ses-02_part-03_label-phase3,3.2.4,Win32,60
1,right,0.779999971,,,0,,,0,,,1,0,200,139,1,199,0,2,0,2,stim/objects/Instruments/grandpiano3.png,,0,stim/0.png,0,0,57,2021-02-18_04h06.51.858,premup-three_ses-02_part-03_label-phase3,3.2.4,Win32,60
1,left,0.755000114,,,0,,,0,,,1,0,200,159,1,199,0,2,0,2,stim/objects/Instruments/trombone3.png,,0,stim/0.png,0,0,57,2021-02-18_04h06.51.858,premup-three_ses-02_part-03_label-phase3,3.2.4,Win32,60
1,right,1.086999893,,,0,,,0,,,1,0,200,100,1,199,0,1,0,2,stim/objects/HouseObjects/ashtray3.png,,0,stim/0.png,0,0,57,2021-02-18_04h06.51.858,premup-three_ses-02_part-03_label-phase3,3.2.4,Win32,60
1,right,0.552999973,1,2.118999958,0,2,1.6650002,0,4,1.105000019,1,0,200,88,1,199,3,1,0.9,1,stim/objects/HouseObjects/vacuumcleaner2.png,stim/41.jpeg,4,stim/4.png,1,2,57,2021-02-18_04h06.51.858,premup-three_ses-02_part-03_label-phase3,3.2.4,Win32,60
1,right,0.710000038,4,2.948000193,0,4,1.23300004,0,2,1.808000088,1,0,200,74,1,199,3,2,0.9,1,stim/objects/Instruments/grandpiano2.png,stim/33.jpeg,3,stim/3.png,3,2,57,2021-02-18_04h06.51.858,premup-three_ses-02_part-03_label-phase3,3.2.4,Win32,60
1,left,3.258000135,3,0.866000175,0,2,2.366000175,0,2,1.453999996,1,0,200,82,1,199,3,1,0.9,1,stim/objects/HouseObjects/sponge2.png,stim/43.jpeg,4,stim/4.png,3,4,57,2021-02-18_04h06.51.858,premup-three_ses-02_part-03_label-phase3,3.2.4,Win32,60
1,left,0.941999912,,,0,,,0,,,1,0,200,136,1,199,0,2,0,2,stim/objects/Instruments/flutetrans3.png,,0,stim/0.png,0,0,57,2021-02-18_04h06.51.858,premup-three_ses-02_part-03_label-phase3,3.2.4,Win32,60
1,right,1.366999865,1,0.947000027,0,3,2.421999931,0,3,1.988000154,1,0,200,8,1,199,1,1,0.5,1,stim/objects/Instruments/hihat.png,stim/51.jpeg,5,stim/5.png,1,2,57,2021-02-18_04h06.51.858,premup-three_ses-02_part-03_label-phase3,3.2.4,Win32,60
1,right,1.161999941,,,0,,,0,,,1,0,200,155,1,199,0,2,0,2,stim/objects/Instruments/speaker3.png,,0,stim/0.png,0,0,57,2021-02-18_04h06.51.858,premup-three_ses-02_part-03_label-phase3,3.2.4,Win32,60
1,left,1.187000036,,,0,,,0,,,1,0,200,112,1,199,0,2,0,2,stim/objects/Instruments/balalaika3.png,,0,stim/0.png,0,0,57,2021-02-18_04h06.51.858,premup-three_ses-02_part-03_label-phase3,3.2.4,Win32,60
1,left,1.873999834,3,0.915999889,0,4,1.282999992,0,3,2.743000031,1,0,200,84,1,199,3,1,0.9,1,stim/objects/HouseObjects/teapot2.png,stim/41.jpeg,4,stim/4.png,1,4,57,2021-02-18_04h06.51.858,premup-three_ses-02_part-03_label-phase3,3.2.4,Win32,60
1,right,0.68599987,,,0,,,0,,,1,0,200,130,1,199,0,2,0,2,stim/objects/Instruments/cymbal3.png,,0,stim/0.png,0,0,57,2021-02-18_04h06.51.858,premup-three_ses-02_part-03_label-phase3,3.2.4,Win32,60
1,right,2.041000128,2,2.144000053,0,2,2.380000114,0,2,1.621999979,1,0,200,29,1,199,2,1,0.3,1,stim/objects/HouseObjects/bleachbottle2.png,stim/12.jpeg,1,stim/1.png,2,4,57,2021-02-18_04h06.51.858,premup-three_ses-02_part-03_label-phase3,3.2.4,Win32,60
1,right,0.944000006,4,2.087000132,0,1,1.199999809,0,3,1.503999949,1,0,200,0,1,199,1,1,0.5,1,stim/objects/HouseObjects/glassmop.png,stim/53.jpeg,5,stim/5.png,3,3,57,2021-02-18_04h06.51.858,premup-three_ses-02_part-03_label-phase3,3.2.4,Win32,60
1,right,0.980000019,4,1.250999928,0,3,1.021000147,0,1,1.25999999,1,0,200,49,1,199,2,1,0.7,1,stim/objects/HouseObjects/dishsoap2.png,stim/21.jpeg,2,stim/2.png,1,4,57,2021-02-18_04h06.51.858,premup-three_ses-02_part-03_label-phase3,3.2.4,Win32,60
1,right,3.089999914,,,0,,,0,,,1,0,200,142,1,199,0,1,0,2,stim/objects/HouseObjects/handbrush3.png,,0,stim/0.png,0,0,57,2021-02-18_04h06.51.858,premup-three_ses-02_part-03_label-phase3,3.2.4,Win32,60
1,right,0.812999964,,,0,,,0,,,1,0,200,167,1,199,0,1,0,2,stim/objects/HouseObjects/barbecuelighter4.png,,0,stim/0.png,0,0,57,2021-02-18_04h06.51.858,premup-three_ses-02_part-03_label-phase3,3.2.4,Win32,60
1,right,0.844000101,2,1.08100009,0,2,1.14199996,0,4,1.492999792,1,0,200,95,1,199,3,2,0.1,1,stim/objects/Instruments/trumpet2.png,stim/44.jpeg,4,stim/4.png,4,1,57,2021-02-18_04h06.51.858,premup-three_ses-02_part-03_label-phase3,3.2.4,Win32,60
1,right,0.834000111,2,2.469000101,0,3,1.264999866,0,2,2.312000036,1,0,200,17,1,199,1,2,0.5,1,stim/objects/Instruments/timbal.png,stim/62.jpeg,6,stim/6.png,2,4,57,2021-02-18_04h06.51.858,premup-three_ses-02_part-03_label-phase3,3.2.4,Win32,60
1,right,1.636999846,4,0.718999863,0,3,1.000999928,0,3,1.542999983,1,0,200,65,1,199,3,1,0.1,1,stim/objects/HouseObjects/glassmop2.png,stim/32.jpeg,3,stim/3.png,2,3,57,2021-02-18_04h06.51.858,premup-three_ses-02_part-03_label-phase3,3.2.4,Win32,60
1,right,0.570000172,,,0,,,0,,,1,0,200,132,1,199,0,2,0,2,stim/objects/Instruments/drums3.png,,0,stim/0.png,0,0,57,2021-02-18_04h06.51.858,premup-three_ses-02_part-03_label-phase3,3.2.4,Win32,60
1,right,1.05099988,,,0,,,0,,,1,0,200,165,1,199,0,1,0,2,stim/objects/HouseObjects/ashtray4.png,,0,stim/0.png,0,0,57,2021-02-18_04h06.51.858,premup-three_ses-02_part-03_label-phase3,3.2.4,Win32,60
1,left,1.063999891,3,1.898000002,0,4,0.823999882,0,3,1.659000158,1,0,200,91,1,199,3,2,0.1,1,stim/objects/Instruments/tambourine2.png,stim/44.jpeg,4,stim/4.png,4,4,57,2021-02-18_04h06.51.858,premup-three_ses-02_part-03_label-phase3,3.2.4,Win32,60
1,right,1.057999849,2,1.231000185,0,3,1.355000019,0,2,1.42200017,1,0,200,94,1,199,3,2,0.1,1,stim/objects/Instruments/trombone2.png,stim/43.jpeg,4,stim/4.png,3,4,57,2021-02-18_04h06.51.858,premup-three_ses-02_part-03_label-phase3,3.2.4,Win32,60
1,left,0.928999901,,,0,,,0,,,1,0,200,179,1,199,0,2,0,2,stim/objects/Instruments/bassdrum4.png,,0,stim/0.png,0,0,57,2021-02-18_04h06.51.858,premup-three_ses-02_part-03_label-phase3,3.2.4,Win32,60
1,right,0.825999975,2,1.338000059,0,3,1.328000069,0,3,2.437000036,1,0,200,7,1,199,1,1,0.5,1,stim/objects/Instruments/harp.png,stim/54.jpeg,5,stim/5.png,4,4,57,2021-02-18_04h06.51.858,premup-three_ses-02_part-03_label-phase3,3.2.4,Win32,60
1,right,0.930000067,4,0.835999966,0,3,1.025000095,0,3,1.404999971,1,0,200,81,1,199,3,1,0.9,1,stim/objects/HouseObjects/scale2.png,stim/42.jpeg,4,stim/4.png,2,4,57,2021-02-18_04h06.51.858,premup-three_ses-02_part-03_label-phase3,3.2.4,Win32,60
1,right,0.723999977,4,1.95299983,0,3,1.313999891,0,4,0.954999924,1,0,200,14,1,199,1,2,0.5,1,stim/objects/HouseObjects/teapot.png,stim/61.jpeg,6,stim/6.png,1,1,57,2021-02-18_04h06.51.858,premup-three_ses-02_part-03_label-phase3,3.2.4,Win32,60
1,left,0.977999926,3,1.347000122,0,1,1.339999914,0,4,1.273000002,1,0,200,5,1,199,1,1,0.5,1,stim/objects/Instruments/guitarcase.png,stim/52.jpeg,5,stim/5.png,2,3,57,2021-02-18_04h06.51.858,premup-three_ses-02_part-03_label-phase3,3.2.4,Win32,60
1,right,1.692000151,,,0,,,0,,,1,0,200,115,1,199,0,2,0,2,stim/objects/Instruments/bassguitar3.png,,0,stim/0.png,0,0,57,2021-02-18_04h06.51.858,premup-three_ses-02_part-03_label-phase3,3.2.4,Win32,60
1,right,1.031999826,4,0.779999971,0,1,1.269999981,0,4,1.164000034,1,0,200,19,1,199,1,2,0.5,1,stim/objects/Instruments/trombone.png,stim/64.jpeg,6,stim/6.png,4,1,57,2021-02-18_04h06.51.858,premup-three_ses-02_part-03_label-phase3,3.2.4,Win32,60
1,right,0.640000105,,,0,,,0,,,1,0,200,190,1,199,0,2,0,2,stim/objects/Instruments/bassguitar4.png,,0,stim/0.png,0,0,57,2021-02-18_04h06.51.858,premup-three_ses-02_part-03_label-phase3,3.2.4,Win32,60
1,right,0.54399991,,,0,,,0,,,1,0,200,173,1,199,0,2,0,2,stim/objects/Instruments/vuvuzela3.png,,0,stim/0.png,0,0,57,2021-02-18_04h06.51.858,premup-three_ses-02_part-03_label-phase3,3.2.4,Win32,60
1,left,0.885999918,,,0,,,0,,,1,0,200,193,1,199,0,2,0,2,stim/objects/Instruments/clarinet4.png,,0,stim/0.png,0,0,57,2021-02-18_04h06.51.858,premup-three_ses-02_part-03_label-phase3,3.2.4,Win32,60
1,right,0.744999886,,,0,,,0,,,1,0,200,181,1,199,0,1,0,2,stim/objects/HouseObjects/bottle4.png,,0,stim/0.png,0,0,57,2021-02-18_04h06.51.858,premup-three_ses-02_part-03_label-phase3,3.2.4,Win32,60
1,right,0.712000132,2,1.26699996,0,4,0.929999828,0,3,1.863999844,1,0,200,99,1,199,3,2,0.1,1,stim/objects/Instruments/xylophone2.png,stim/44.jpeg,4,stim/4.png,4,2,57,2021-02-18_04h06.51.858,premup-three_ses-02_part-03_label-phase3,3.2.4,Win32,60
1,right,0.57400012,2,4.037999868,0,3,0.842999935,0,2,2.476999998,1,0,200,41,1,199,2,1,0.7,1,stim/objects/HouseObjects/bottle2.png,stim/21.jpeg,2,stim/2.png,1,1,57,2021-02-18_04h06.51.858,premup-three_ses-02_part-03_label-phase3,3.2.4,Win32,60
1,right,0.703999996,2,1.075999975,0,3,1.089999914,0,4,1.029999971,1,0,200,58,1,199,2,2,0.3,1,stim/objects/Instruments/electricdrumset2.png,stim/22.jpeg,2,stim/2.png,2,2,57,2021-02-18_04h06.51.858,premup-three_ses-02_part-03_label-phase3,3.2.4,Win32,60
1,right,0.575000048,2,1.982000113,0,2,2.764000177,0,2,1.337999821,1,0,200,86,1,199,3,1,0.9,1,stim/objects/HouseObjects/thread2.png,stim/43.jpeg,4,stim/4.png,3,3,57,2021-02-18_04h06.51.858,premup-three_ses-02_part-03_label-phase3,3.2.4,Win32,60
1,right,0.642000198,2,1.190999985,0,2,2.177999973,0,2,1.936999798,1,0,200,42,1,199,2,1,0.7,1,stim/objects/HouseObjects/broom2.png,stim/22.jpeg,2,stim/2.png,2,4,57,2021-02-18_04h06.51.858,premup-three_ses-02_part-03_label-phase3,3.2.4,Win32,60
1,left,1.602999926,4,0.720999956,0,4,1.924000025,0,4,1.34800005,1,0,200,56,1,199,2,2,0.3,1,stim/objects/Instruments/doublebass2.png,stim/24.jpeg,2,stim/2.png,4,3,57,2021-02-18_04h06.51.858,premup-three_ses-02_part-03_label-phase3,3.2.4,Win32,60
1,right,0.818000078,,,0,,,0,,,1,0,200,106,1,199,0,1,0,2,stim/objects/HouseObjects/bottle3.png,,0,stim/0.png,0,0,57,2021-02-18_04h06.51.858,premup-three_ses-02_part-03_label-phase3,3.2.4,Win32,60
1,left,0.940000057,,,0,,,0,,,1,0,200,170,1,199,0,2,0,2,stim/objects/Instruments/trumpet3.png,,0,stim/0.png,0,0,57,2021-02-18_04h06.51.858,premup-three_ses-02_part-03_label-phase3,3.2.4,Win32,60
1,right,1.267999887,,,0,,,0,,,1,0,200,187,1,199,0,1,0,2,stim/objects/HouseObjects/coffee4.png,,0,stim/0.png,0,0,57,2021-02-18_04h06.51.858,premup-three_ses-02_part-03_label-phase3,3.2.4,Win32,60
1,right,1.03399992,2,1.09800005,0,1,1.213000059,0,3,1.407999992,1,0,200,45,1,199,2,1,0.7,1,stim/objects/HouseObjects/clothesdryingrack2.png,stim/21.jpeg,2,stim/2.png,1,3,57,2021-02-18_04h06.51.858,premup-three_ses-02_part-03_label-phase3,3.2.4,Win32,60
1,right,1.68200016,,,0,,,0,,,1,0,200,188,1,199,0,1,0,2,stim/objects/HouseObjects/cushion4.png,,0,stim/0.png,0,0,57,2021-02-18_04h06.51.858,premup-three_ses-02_part-03_label-phase3,3.2.4,Win32,60
1,left,0.779000044,3,0.898999929,0,2,2.18599987,0,2,2.106000185,1,0,200,78,1,199,3,2,0.9,1,stim/objects/Instruments/hihat2.png,stim/33.jpeg,3,stim/3.png,3,3,57,2021-02-18_04h06.51.858,premup-three_ses-02_part-03_label-phase3,3.2.4,Win32,60
1,left,1.013000011,3,1.73300004,0,3,1.076999903,0,3,2.648999929,1,0,200,51,1,199,2,2,0.3,1,stim/objects/Instruments/cello2.png,stim/23.jpeg,2,stim/2.png,3,3,57,2021-02-18_04h06.51.858,premup-three_ses-02_part-03_label-phase3,3.2.4,Win32,60
1,right,1.332000017,,,0,,,0,,,1,0,200,146,1,199,0,1,0,2,stim/objects/HouseObjects/scale3.png,,0,stim/0.png,0,0,57,2021-02-18_04h06.51.858,premup-three_ses-02_part-03_label-phase3,3.2.4,Win32,60
1,right,0.836000204,,,0,,,0,,,1,0,200,192,1,199,0,2,0,2,stim/objects/Instruments/chime4.png,,0,stim/0.png,0,0,57,2021-02-18_04h06.51.858,premup-three_ses-02_part-03_label-phase3,3.2.4,Win32,60
1,right,1.105999947,,,0,,,0,,,1,0,200,156,1,199,0,2,0,2,stim/objects/Instruments/tambourine3.png,,0,stim/0.png,0,0,57,2021-02-18_04h06.51.858,premup-three_ses-02_part-03_label-phase3,3.2.4,Win32,60
1,right,0.67200017,,,0,,,0,,,1,0,200,168,1,199,0,1,0,2,stim/objects/HouseObjects/basket4.png,,0,stim/0.png,0,0,57,2021-02-18_04h06.51.858,premup-three_ses-02_part-03_label-phase3,3.2.4,Win32,60
1,right,0.553999901,,,0,,,0,,,1,0,200,160,1,199,0,1,0,2,stim/objects/HouseObjects/thermometer3.png,,0,stim/0.png,0,0,57,2021-02-18_04h06.51.858,premup-three_ses-02_part-03_label-phase3,3.2.4,Win32,60
1,right,0.799000025,,,0,,,0,,,1,0,200,116,1,199,0,2,0,2,stim/objects/Instruments/cello3.png,,0,stim/0.png,0,0,57,2021-02-18_04h06.51.858,premup-three_ses-02_part-03_label-phase3,3.2.4,Win32,60
1,right,0.98300004,,,0,,,0,,,1,0,200,182,1,199,0,1,0,2,stim/objects/HouseObjects/broom4.png,,0,stim/0.png,0,0,57,2021-02-18_04h06.51.858,premup-three_ses-02_part-03_label-phase3,3.2.4,Win32,60
1,left,0.930000067,1,2.881999969,0,3,1.978999853,0,3,1.481999874,1,0,200,18,1,199,1,2,0.5,1,stim/objects/Instruments/triangle.png,stim/63.jpeg,6,stim/6.png,3,4,57,2021-02-18_04h06.51.858,premup-three_ses-02_part-03_label-phase3,3.2.4,Win32,60
1,right,0.659999847,3,3.021000147,0,1,1.688000202,0,2,2.789000034,1,0,200,21,1,199,2,1,0.3,1,stim/objects/HouseObjects/thread.png,stim/12.jpeg,1,stim/1.png,2,3,57,2021-02-18_04h06.51.858,premup-three_ses-02_part-03_label-phase3,3.2.4,Win32,60
1,right,0.90199995,2,1.246000051,0,2,1.487000227,0,1,1.523999929,1,0,200,57,1,199,2,2,0.3,1,stim/objects/Instruments/drums2.png,stim/21.jpeg,2,stim/2.png,1,3,57,2021-02-18_04h06.51.858,premup-three_ses-02_part-03_label-phase3,3.2.4,Win32,60
1,right,0.878999949,3,1.265000105,0,4,1.042000055,0,1,1.890000105,1,0,200,64,1,199,3,1,0.1,1,stim/objects/HouseObjects/glass2.png,stim/31.jpeg,3,stim/3.png,1,1,57,2021-02-18_04h06.51.858,premup-three_ses-02_part-03_label-phase3,3.2.4,Win32,60
1,right,0.724999905,,,0,,,0,,,1,0,200,138,1,199,0,2,0,2,stim/objects/Instruments/gong3.png,,0,stim/0.png,0,0,57,2021-02-18_04h06.51.858,premup-three_ses-02_part-03_label-phase3,3.2.4,Win32,60
1,right,0.601999998,1,1.875,0,2,1.553999901,0,3,1.693000078,1,0,200,85,1,199,3,1,0.9,1,stim/objects/HouseObjects/thermometer2.png,stim/42.jpeg,4,stim/4.png,2,1,57,2021-02-18_04h06.51.858,premup-three_ses-02_part-03_label-phase3,3.2.4,Win32,60
1,right,0.674999952,4,1.743999958,0,4,2.024999857,0,3,1.849999905,1,0,200,80,1,199,3,1,0.9,1,stim/objects/HouseObjects/saw2.png,stim/41.jpeg,4,stim/4.png,1,3,57,2021-02-18_04h06.51.858,premup-three_ses-02_part-03_label-phase3,3.2.4,Win32,60
1,right,0.953000069,3,1.631000042,0,1,2.90199995,0,2,2.055000067,1,0,200,96,1,199,3,2,0.1,1,stim/objects/Instruments/tuba2.png,stim/41.jpeg,4,stim/4.png,1,3,57,2021-02-18_04h06.51.858,premup-three_ses-02_part-03_label-phase3,3.2.4,Win32,60
1,right,0.713999987,2,1.410000086,0,2,1.016000032,0,3,1.566999912,1,0,200,90,1,199,3,2,0.1,1,stim/objects/Instruments/speaker2.png,stim/43.jpeg,4,stim/4.png,3,1,57,2021-02-18_04h06.51.858,premup-three_ses-02_part-03_label-phase3,3.2.4,Win32,60
1,left,1.980000019,,,0,,,0,,,1,0,200,171,1,199,0,2,0,2,stim/objects/Instruments/tuba3.png,,0,stim/0.png,0,0,57,2021-02-18_04h06.51.858,premup-three_ses-02_part-03_label-phase3,3.2.4,Win32,60
1,right,1.264999866,,,0,,,0,,,1,0,200,133,1,199,0,2,0,2,stim/objects/Instruments/electricdrumset3.png,,0,stim/0.png,0,0,57,2021-02-18_04h06.51.858,premup-three_ses-02_part-03_label-phase3,3.2.4,Win32,60
1,right,0.639000177,,,0,,,0,,,1,0,200,157,1,199,0,2,0,2,stim/objects/Instruments/timbal3.png,,0,stim/0.png,0,0,57,2021-02-18_04h06.51.858,premup-three_ses-02_part-03_label-phase3,3.2.4,Win32,60
1,left,1.075999975,,,0,,,0,,,1,0,200,164,1,199,0,1,0,2,stim/objects/HouseObjects/wateringcan3.png,,0,stim/0.png,0,0,57,2021-02-18_04h06.51.858,premup-three_ses-02_part-03_label-phase3,3.2.4,Win32,60
1,right,1.17599988,,,0,,,0,,,1,0,200,177,1,199,0,2,0,2,stim/objects/Instruments/balalaika4.png,,0,stim/0.png,0,0,57,2021-02-18_04h06.51.858,premup-three_ses-02_part-03_label-phase3,3.2.4,Win32,60
1,right,0.94900012,2,1.144999981,0,4,1.328999996,0,1,2.239000082,1,0,200,89,1,199,3,1,0.9,1,stim/objects/HouseObjects/wateringcan2.png,stim/42.jpeg,4,stim/4.png,2,4,57,2021-02-18_04h06.51.858,premup-three_ses-02_part-03_label-phase3,3.2.4,Win32,60
1,right,1.019999981,,,0,,,0,,,1,0,200,198,1,199,0,2,0,2,stim/objects/Instruments/electricdrumset4.png,,0,stim/0.png,0,0,57,2021-02-18_04h06.51.858,premup-three_ses-02_part-03_label-phase3,3.2.4,Win32,60
1,right,1.004000187,,,0,,,0,,,1,0,200,154,1,199,0,2,0,2,stim/objects/Instruments/saxophone3.png,,0,stim/0.png,0,0,57,2021-02-18_04h06.51.858,premup-three_ses-02_part-03_label-phase3,3.2.4,Win32,60
1,right,0.598999977,,,0,,,0,,,1,0,200,125,1,199,0,1,0,2,stim/objects/HouseObjects/doormat3.png,,0,stim/0.png,0,0,57,2021-02-18_04h06.51.858,premup-three_ses-02_part-03_label-phase3,3.2.4,Win32,60
1,right,0.922999859,1,1.91899991,0,2,1.694000006,0,2,1.496000051,1,0,200,75,1,199,3,2,0.9,1,stim/objects/Instruments/guitarcase2.png,stim/34.jpeg,3,stim/3.png,4,4,57,2021-02-18_04h06.51.858,premup-three_ses-02_part-03_label-phase3,3.2.4,Win32,60
1,right,0.698999882,4,0.882000208,0,3,1.322999954,0,4,1.761999846,1,0,200,38,1,199,2,2,0.7,1,stim/objects/Instruments/banjo2.png,stim/12.jpeg,1,stim/1.png,2,2,57,2021-02-18_04h06.51.858,premup-three_ses-02_part-03_label-phase3,3.2.4,Win32,60
1,right,1.554000139,,,0,,,0,,,1,0,200,144,1,199,0,1,0,2,stim/objects/HouseObjects/safetypin3.png,,0,stim/0.png,0,0,57,2021-02-18_04h06.51.858,premup-three_ses-02_part-03_label-phase3,3.2.4,Win32,60
1,left,0.864000082,,,0,,,0,,,1,0,200,113,1,199,0,2,0,2,stim/objects/Instruments/banjo3.png,,0,stim/0.png,0,0,57,2021-02-18_04h06.51.858,premup-three_ses-02_part-03_label-phase3,3.2.4,Win32,60
1,right,1.339999914,,,0,,,0,,,1,0,200,108,1,199,0,1,0,2,stim/objects/HouseObjects/bucket3.png,,0,stim/0.png,0,0,57,2021-02-18_04h06.51.858,premup-three_ses-02_part-03_label-phase3,3.2.4,Win32,60
1,right,0.734999895,,,0,,,0,,,1,0,200,153,1,199,0,2,0,2,stim/objects/Instruments/hihat3.png,,0,stim/0.png,0,0,57,2021-02-18_04h06.51.858,premup-three_ses-02_part-03_label-phase3,3.2.4,Win32,60
1,right,0.549000025,4,1.242000103,0,3,0.967000008,0,2,1.526000023,1,0,200,48,1,199,2,1,0.7,1,stim/objects/HouseObjects/cushion2.png,stim/24.jpeg,2,stim/2.png,4,4,57,2021-02-18_04h06.51.858,premup-three_ses-02_part-03_label-phase3,3.2.4,Win32,60
1,right,0.740999937,,,0,,,0,,,1,0,200,134,1,199,0,2,0,2,stim/objects/Instruments/electricguitar3.png,,0,stim/0.png,0,0,57,2021-02-18_04h06.51.858,premup-three_ses-02_part-03_label-phase3,3.2.4,Win32,60
1,right,0.634000063,4,0.89199996,0,4,1.039999962,0,2,1.434000015,1,0,200,77,1,199,3,2,0.9,1,stim/objects/Instruments/harp2.png,stim/32.jpeg,3,stim/3.png,2,1,57,2021-02-18_04h06.51.858,premup-three_ses-02_part-03_label-phase3,3.2.4,Win32,60
