key_resp_pract.keys,key_resp_pract.rt,trial_acc,trial_index,practice_loop.thisRepN,practice_loop.thisTrialN,practice_loop.thisN,practice_loop.thisIndex,practice_loop.ran,practice_loop.order,scn_condition,scn_cat,scn_inst,scn_file,obj_cat,obj_cat_num,obj_file,trial_cond,quadrant,obj_x,obj_y,corr_ans,participant,date,expName,psychopyVersion,OS,frameRate,key_resp_trial.keys,key_resp_trial.rt,iterations.thisRepN,iterations.thisTrialN,iterations.thisN,iterations.thisIndex,iterations.ran,iterations.order,task_innerloop.thisRepN,task_innerloop.thisTrialN,task_innerloop.thisN,task_innerloop.thisIndex,task_innerloop.ran,task_innerloop.order,iteration_index,rating_acc,slider.response,slider.rt,slider_2.response,slider_2.rt,ratings.thisRepN,ratings.thisTrialN,ratings.thisN,ratings.thisIndex,ratings.ran,ratings.order,obj_cat_top,min_resp_top,max_resp_top,obj_cat_bottom,min_resp_bottom,max_resp_bottom
right,1.090000153,0,1,1,0,240,147,1,239,2,4,4,stim/44.jpeg,Instruments,1,stim/objects/Instruments/record_player2.png,0.7,2,0.2,0.15,left,58,2021-02-22_08h21.46.355,premup-three_ses-01_part-01_label-phase1,3.2.4,MacIntel,60,,,,,,,,,,,,,,,,,,,,,,,,,,,,,,,,
right,1.538000107,1,2,1,0,240,71,1,239,1,2,4,stim/24.jpeg,HouseObjects,2,stim/objects/HouseObjects/sponge.png,0.5,2,0.2,0.15,right,58,2021-02-22_08h21.46.355,premup-three_ses-01_part-01_label-phase1,3.2.4,MacIntel,60,,,,,,,,,,,,,,,,,,,,,,,,,,,,,,,,
right,1.200999975,1,3,1,0,240,173,1,239,3,5,2,stim/52.jpeg,HouseObjects,2,stim/objects/HouseObjects/saw2.png,0.9,3,-0.2,-0.15,right,58,2021-02-22_08h21.46.355,premup-three_ses-01_part-01_label-phase1,3.2.4,MacIntel,60,,,,,,,,,,,,,,,,,,,,,,,,,,,,,,,,
left,0.638999939,1,4,1,0,240,207,1,239,3,6,4,stim/64.jpeg,Instruments,1,stim/objects/Instruments/tuba2.png,0.9,4,0.2,-0.15,left,58,2021-02-22_08h21.46.355,premup-three_ses-01_part-01_label-phase1,3.2.4,MacIntel,60,,,,,,,,,,,,,,,,,,,,,,,,,,,,,,,,
right,0.70600009,0,5,1,0,240,124,1,239,2,4,1,stim/41.jpeg,Instruments,1,stim/objects/Instruments/panflute2.png,0.7,1,-0.2,0.15,left,58,2021-02-22_08h21.46.355,premup-three_ses-01_part-01_label-phase1,3.2.4,MacIntel,60,,,,,,,,,,,,,,,,,,,,,,,,,,,,,,,,
right,1.294000149,0,6,1,0,240,45,1,239,1,2,2,stim/22.jpeg,Instruments,1,stim/objects/Instruments/speaker.png,0.5,1,-0.2,0.15,left,58,2021-02-22_08h21.46.355,premup-three_ses-01_part-01_label-phase1,3.2.4,MacIntel,60,,,,,,,,,,,,,,,,,,,,,,,,,,,,,,,,
left,1.008000135,0,7,1,0,240,36,1,239,1,1,1,stim/11.jpeg,HouseObjects,2,stim/objects/HouseObjects/recyclingbin.png,0.5,2,0.2,0.15,right,58,2021-02-22_08h21.46.355,premup-three_ses-01_part-01_label-phase1,3.2.4,MacIntel,60,,,,,,,,,,,,,,,,,,,,,,,,,,,,,,,,
right,0.713999987,0,8,1,0,240,128,1,239,2,4,1,stim/41.jpeg,Instruments,1,stim/objects/Instruments/panflute2.png,0.7,2,0.2,0.15,left,58,2021-02-22_08h21.46.355,premup-three_ses-01_part-01_label-phase1,3.2.4,MacIntel,60,,,,,,,,,,,,,,,,,,,,,,,,,,,,,,,,
right,1.058000326,1,9,1,0,240,76,1,239,1,2,1,stim/21.jpeg,HouseObjects,2,stim/objects/HouseObjects/safetypin.png,0.5,3,-0.2,-0.15,right,58,2021-02-22_08h21.46.355,premup-three_ses-01_part-01_label-phase1,3.2.4,MacIntel,60,,,,,,,,,,,,,,,,,,,,,,,,,,,,,,,,
left,0.775000095,0,10,1,0,240,99,1,239,2,3,4,stim/34.jpeg,HouseObjects,2,stim/objects/HouseObjects/thread.png,0.7,4,0.2,-0.15,right,58,2021-02-22_08h21.46.355,premup-three_ses-01_part-01_label-phase1,3.2.4,MacIntel,60,,,,,,,,,,,,,,,,,,,,,,,,,,,,,,,,
,,1,1,,,,,,,2,4,3,stim/43.jpeg,HouseObjects,2,stim/objects/HouseObjects/rubbergloves2.png,0.3,3,-0.2,-0.15,right,58,2021-02-22_08h21.46.355,premup-three_ses-01_part-01_label-phase1,3.2.4,MacIntel,60,right,1.586000204,4,0,4,0,1,3,1,0,240,150,1,239,,,,,,,,,,,,,,,,,,
,,1,2,,,,,,,3,5,2,stim/52.jpeg,HouseObjects,2,stim/objects/HouseObjects/saw2.png,0.9,4,0.2,-0.15,right,58,2021-02-22_08h21.46.355,premup-three_ses-01_part-01_label-phase1,3.2.4,MacIntel,60,right,1.08100009,4,0,4,0,1,3,1,0,240,181,1,239,,,,,,,,,,,,,,,,,,
,,1,3,,,,,,,1,1,4,stim/14.jpeg,Instruments,1,stim/objects/Instruments/record_player.png,0.5,4,0.2,-0.15,left,58,2021-02-22_08h21.46.355,premup-three_ses-01_part-01_label-phase1,3.2.4,MacIntel,60,left,1.593000174,4,0,4,0,1,3,1,0,240,7,1,239,,,,,,,,,,,,,,,,,,
,,1,4,,,,,,,3,6,4,stim/64.jpeg,Instruments,1,stim/objects/Instruments/tuba2.png,0.9,2,0.2,0.15,left,58,2021-02-22_08h21.46.355,premup-three_ses-01_part-01_label-phase1,3.2.4,MacIntel,60,left,0.590000153,4,0,4,0,1,3,1,0,240,211,1,239,,,,,,,,,,,,,,,,,,
,,0,5,,,,,,,1,1,3,stim/13.jpeg,Instruments,1,stim/objects/Instruments/record.png,0.5,3,-0.2,-0.15,left,58,2021-02-22_08h21.46.355,premup-three_ses-01_part-01_label-phase1,3.2.4,MacIntel,60,right,1.376000166,4,0,4,0,1,3,1,0,240,10,1,239,,,,,,,,,,,,,,,,,,
,,1,6,,,,,,,3,6,3,stim/63.jpeg,Instruments,1,stim/objects/Instruments/trumpet2.png,0.9,3,-0.2,-0.15,left,58,2021-02-22_08h21.46.355,premup-three_ses-01_part-01_label-phase1,3.2.4,MacIntel,60,left,0.68900013,4,0,4,0,1,3,1,0,240,206,1,239,,,,,,,,,,,,,,,,,,
,,0,7,,,,,,,1,1,4,stim/14.jpeg,Instruments,1,stim/objects/Instruments/record_player.png,0.5,1,-0.2,0.15,left,58,2021-02-22_08h21.46.355,premup-three_ses-01_part-01_label-phase1,3.2.4,MacIntel,60,right,0.637000084,4,0,4,0,1,3,1,0,240,19,1,239,,,,,,,,,,,,,,,,,,
,,1,8,,,,,,,1,2,2,stim/22.jpeg,Instruments,1,stim/objects/Instruments/speaker.png,0.5,3,-0.2,-0.15,left,58,2021-02-22_08h21.46.355,premup-three_ses-01_part-01_label-phase1,3.2.4,MacIntel,60,left,0.728000164,4,0,4,0,1,3,1,0,240,53,1,239,,,,,,,,,,,,,,,,,,
,,0,9,,,,,,,2,4,2,stim/42.jpeg,Instruments,1,stim/objects/Instruments/pipepiano2.png,0.7,2,0.2,0.15,left,58,2021-02-22_08h21.46.355,premup-three_ses-01_part-01_label-phase1,3.2.4,MacIntel,60,right,1.426000118,4,0,4,0,1,3,1,0,240,137,1,239,,,,,,,,,,,,,,,,,,
,,1,10,,,,,,,3,5,1,stim/51.jpeg,HouseObjects,2,stim/objects/HouseObjects/safetypin2.png,0.9,1,-0.2,0.15,right,58,2021-02-22_08h21.46.355,premup-three_ses-01_part-01_label-phase1,3.2.4,MacIntel,60,right,1.65500021,4,0,4,0,1,3,1,0,240,192,1,239,,,,,,,,,,,,,,,,,,
,,0,11,,,,,,,1,1,4,stim/14.jpeg,HouseObjects,2,stim/objects/HouseObjects/rug.png,0.5,1,-0.2,0.15,right,58,2021-02-22_08h21.46.355,premup-three_ses-01_part-01_label-phase1,3.2.4,MacIntel,60,left,1.549999952,4,0,4,0,1,3,1,0,240,31,1,239,,,,,,,,,,,,,,,,,,
,,1,12,,,,,,,1,2,1,stim/21.jpeg,Instruments,1,stim/objects/Instruments/saxophone.png,0.5,2,0.2,0.15,left,58,2021-02-22_08h21.46.355,premup-three_ses-01_part-01_label-phase1,3.2.4,MacIntel,60,left,1.711000204,4,0,4,0,1,3,1,0,240,40,1,239,,,,,,,,,,,,,,,,,,
,,0,13,,,,,,,1,1,4,stim/14.jpeg,Instruments,1,stim/objects/Instruments/record_player.png,0.5,4,0.2,-0.15,left,58,2021-02-22_08h21.46.355,premup-three_ses-01_part-01_label-phase1,3.2.4,MacIntel,60,,,4,0,4,0,1,3,1,0,240,3,1,239,,,,,,,,,,,,,,,,,,
,,0,14,,,,,,,1,2,3,stim/23.jpeg,Instruments,1,stim/objects/Instruments/tambourine.png,0.5,4,0.2,-0.15,left,58,2021-02-22_08h21.46.355,premup-three_ses-01_part-01_label-phase1,3.2.4,MacIntel,60,right,1.019000292,4,0,4,0,1,3,1,0,240,54,1,239,,,,,,,,,,,,,,,,,,
,,1,15,,,,,,,1,2,2,stim/22.jpeg,HouseObjects,2,stim/objects/HouseObjects/saw.png,0.5,1,-0.2,0.15,right,58,2021-02-22_08h21.46.355,premup-three_ses-01_part-01_label-phase1,3.2.4,MacIntel,60,right,0.765000105,4,0,4,0,1,3,1,0,240,61,1,239,,,,,,,,,,,,,,,,,,
,,0,16,,,,,,,2,4,4,stim/44.jpeg,Instruments,1,stim/objects/Instruments/record_player2.png,0.7,1,-0.2,0.15,left,58,2021-02-22_08h21.46.355,premup-three_ses-01_part-01_label-phase1,3.2.4,MacIntel,60,right,0.635000229,4,0,4,0,1,3,1,0,240,143,1,239,,,,,,,,,,,,,,,,,,
,,1,17,,,,,,,3,6,1,stim/61.jpeg,Instruments,1,stim/objects/Instruments/triangle2.png,0.9,2,0.2,0.15,left,58,2021-02-22_08h21.46.355,premup-three_ses-01_part-01_label-phase1,3.2.4,MacIntel,60,left,0.837000132,4,0,4,0,1,3,1,0,240,216,1,239,,,,,,,,,,,,,,,,,,
,,0,18,,,,,,,3,5,4,stim/54.jpeg,HouseObjects,2,stim/objects/HouseObjects/sponge2.png,0.9,1,-0.2,0.15,right,58,2021-02-22_08h21.46.355,premup-three_ses-01_part-01_label-phase1,3.2.4,MacIntel,60,left,1.310000181,4,0,4,0,1,3,1,0,240,183,1,239,,,,,,,,,,,,,,,,,,
,,1,19,,,,,,,3,5,3,stim/53.jpeg,HouseObjects,2,stim/objects/HouseObjects/scale2.png,0.9,2,0.2,0.15,right,58,2021-02-22_08h21.46.355,premup-three_ses-01_part-01_label-phase1,3.2.4,MacIntel,60,right,1.135000229,4,0,4,0,1,3,1,0,240,166,1,239,,,,,,,,,,,,,,,,,,
,,0,20,,,,,,,2,4,1,stim/41.jpeg,HouseObjects,2,stim/objects/HouseObjects/recyclingbin2.png,0.3,4,0.2,-0.15,right,58,2021-02-22_08h21.46.355,premup-three_ses-01_part-01_label-phase1,3.2.4,MacIntel,60,left,1.191000223,4,0,4,0,1,3,1,0,240,148,1,239,,,,,,,,,,,,,,,,,,
,,0,21,,,,,,,2,3,4,stim/34.jpeg,HouseObjects,2,stim/objects/HouseObjects/thread.png,0.7,3,-0.2,-0.15,right,58,2021-02-22_08h21.46.355,premup-three_ses-01_part-01_label-phase1,3.2.4,MacIntel,60,left,0.972000122,4,0,4,0,1,3,1,0,240,103,1,239,,,,,,,,,,,,,,,,,,
,,1,22,,,,,,,1,1,3,stim/13.jpeg,HouseObjects,2,stim/objects/HouseObjects/rubbergloves.png,0.5,1,-0.2,0.15,right,58,2021-02-22_08h21.46.355,premup-three_ses-01_part-01_label-phase1,3.2.4,MacIntel,60,right,1.136000156,4,0,4,0,1,3,1,0,240,22,1,239,,,,,,,,,,,,,,,,,,
,,1,23,,,,,,,1,1,1,stim/11.jpeg,Instruments,1,stim/objects/Instruments/panflute.png,0.5,4,0.2,-0.15,left,58,2021-02-22_08h21.46.355,premup-three_ses-01_part-01_label-phase1,3.2.4,MacIntel,60,left,0.624000311,4,0,4,0,1,3,1,0,240,0,1,239,,,,,,,,,,,,,,,,,,
,,1,24,,,,,,,2,4,4,stim/44.jpeg,HouseObjects,2,stim/objects/HouseObjects/rug2.png,0.3,1,-0.2,0.15,right,58,2021-02-22_08h21.46.355,premup-three_ses-01_part-01_label-phase1,3.2.4,MacIntel,60,right,0.484000206,4,0,4,0,1,3,1,0,240,159,1,239,,,,,,,,,,,,,,,,,,
,,1,25,,,,,,,3,5,1,stim/51.jpeg,HouseObjects,2,stim/objects/HouseObjects/safetypin2.png,0.9,4,0.2,-0.15,right,58,2021-02-22_08h21.46.355,premup-three_ses-01_part-01_label-phase1,3.2.4,MacIntel,60,right,0.813000202,4,0,4,0,1,3,1,0,240,184,1,239,,,,,,,,,,,,,,,,,,
,,0,26,,,,,,,2,4,3,stim/43.jpeg,Instruments,1,stim/objects/Instruments/record2.png,0.7,3,-0.2,-0.15,left,58,2021-02-22_08h21.46.355,premup-three_ses-01_part-01_label-phase1,3.2.4,MacIntel,60,right,1.0400002,4,0,4,0,1,3,1,0,240,126,1,239,,,,,,,,,,,,,,,,,,
,,1,27,,,,,,,1,1,1,stim/11.jpeg,Instruments,1,stim/objects/Instruments/panflute.png,0.5,2,0.2,0.15,left,58,2021-02-22_08h21.46.355,premup-three_ses-01_part-01_label-phase1,3.2.4,MacIntel,60,left,0.72300005,4,0,4,0,1,3,1,0,240,8,1,239,,,,,,,,,,,,,,,,,,
,,1,28,,,,,,,3,6,4,stim/64.jpeg,Instruments,1,stim/objects/Instruments/tuba2.png,0.9,3,-0.2,-0.15,left,58,2021-02-22_08h21.46.355,premup-three_ses-01_part-01_label-phase1,3.2.4,MacIntel,60,left,0.72900033,4,0,4,0,1,3,1,0,240,215,1,239,,,,,,,,,,,,,,,,,,
,,0,29,,,,,,,3,5,4,stim/54.jpeg,HouseObjects,2,stim/objects/HouseObjects/sponge2.png,0.9,1,-0.2,0.15,right,58,2021-02-22_08h21.46.355,premup-three_ses-01_part-01_label-phase1,3.2.4,MacIntel,60,left,1.528000116,4,0,4,0,1,3,1,0,240,187,1,239,,,,,,,,,,,,,,,,,,
,,1,30,,,,,,,3,6,4,stim/64.jpeg,Instruments,1,stim/objects/Instruments/tuba2.png,0.9,3,-0.2,-0.15,left,58,2021-02-22_08h21.46.355,premup-three_ses-01_part-01_label-phase1,3.2.4,MacIntel,60,left,0.575000286,4,0,4,0,1,3,1,0,240,231,1,239,,,,,,,,,,,,,,,,,,
,,1,31,,,,,,,1,1,3,stim/13.jpeg,HouseObjects,2,stim/objects/HouseObjects/rubbergloves.png,0.5,2,0.2,0.15,right,58,2021-02-22_08h21.46.355,premup-three_ses-01_part-01_label-phase1,3.2.4,MacIntel,60,right,0.927000046,4,0,4,0,1,3,1,0,240,38,1,239,,,,,,,,,,,,,,,,,,
,,1,32,,,,,,,2,4,2,stim/42.jpeg,Instruments,1,stim/objects/Instruments/pipepiano2.png,0.7,3,-0.2,-0.15,left,58,2021-02-22_08h21.46.355,premup-three_ses-01_part-01_label-phase1,3.2.4,MacIntel,60,left,1.120000124,4,0,4,0,1,3,1,0,240,121,1,239,,,,,,,,,,,,,,,,,,
,,0,33,,,,,,,3,5,2,stim/52.jpeg,HouseObjects,2,stim/objects/HouseObjects/saw2.png,0.9,3,-0.2,-0.15,right,58,2021-02-22_08h21.46.355,premup-three_ses-01_part-01_label-phase1,3.2.4,MacIntel,60,left,1.444000006,4,0,4,0,1,3,1,0,240,189,1,239,,,,,,,,,,,,,,,,,,
,,0,34,,,,,,,1,2,3,stim/23.jpeg,Instruments,1,stim/objects/Instruments/tambourine.png,0.5,4,0.2,-0.15,left,58,2021-02-22_08h21.46.355,premup-three_ses-01_part-01_label-phase1,3.2.4,MacIntel,60,right,1.339000225,4,0,4,0,1,3,1,0,240,50,1,239,,,,,,,,,,,,,,,,,,
,,0,35,,,,,,,1,1,1,stim/11.jpeg,Instruments,1,stim/objects/Instruments/panflute.png,0.5,2,0.2,0.15,left,58,2021-02-22_08h21.46.355,premup-three_ses-01_part-01_label-phase1,3.2.4,MacIntel,60,right,1.226000309,4,0,4,0,1,3,1,0,240,16,1,239,,,,,,,,,,,,,,,,,,
,,1,36,,,,,,,1,1,2,stim/12.jpeg,HouseObjects,2,stim/objects/HouseObjects/remote.png,0.5,2,0.2,0.15,right,58,2021-02-22_08h21.46.355,premup-three_ses-01_part-01_label-phase1,3.2.4,MacIntel,60,right,1.653000355,4,0,4,0,1,3,1,0,240,25,1,239,,,,,,,,,,,,,,,,,,
,,1,37,,,,,,,3,5,1,stim/51.jpeg,HouseObjects,2,stim/objects/HouseObjects/safetypin2.png,0.9,2,0.2,0.15,right,58,2021-02-22_08h21.46.355,premup-three_ses-01_part-01_label-phase1,3.2.4,MacIntel,60,right,1.617000341,4,0,4,0,1,3,1,0,240,168,1,239,,,,,,,,,,,,,,,,,,
,,0,38,,,,,,,1,2,1,stim/21.jpeg,HouseObjects,2,stim/objects/HouseObjects/safetypin.png,0.5,3,-0.2,-0.15,right,58,2021-02-22_08h21.46.355,premup-three_ses-01_part-01_label-phase1,3.2.4,MacIntel,60,left,1.18900013,4,0,4,0,1,3,1,0,240,60,1,239,,,,,,,,,,,,,,,,,,
,,0,39,,,,,,,2,3,1,stim/31.jpeg,Instruments,1,stim/objects/Instruments/triangle.png,0.3,2,0.2,0.15,left,58,2021-02-22_08h21.46.355,premup-three_ses-01_part-01_label-phase1,3.2.4,MacIntel,60,right,1.369000196,4,0,4,0,1,3,1,0,240,80,1,239,,,,,,,,,,,,,,,,,,
,,0,40,,,,,,,2,3,3,stim/33.jpeg,HouseObjects,2,stim/objects/HouseObjects/thermometer.png,0.7,4,0.2,-0.15,right,58,2021-02-22_08h21.46.355,premup-three_ses-01_part-01_label-phase1,3.2.4,MacIntel,60,left,1.101000309,4,0,4,0,1,3,1,0,240,102,1,239,,,,,,,,,,,,,,,,,,
,,1,41,,,,,,,1,2,2,stim/22.jpeg,Instruments,1,stim/objects/Instruments/speaker.png,0.5,4,0.2,-0.15,left,58,2021-02-22_08h21.46.355,premup-three_ses-01_part-01_label-phase1,3.2.4,MacIntel,60,left,0.937000275,4,0,4,0,1,3,1,0,240,41,1,239,,,,,,,,,,,,,,,,,,
,,1,42,,,,,,,3,5,1,stim/51.jpeg,HouseObjects,2,stim/objects/HouseObjects/safetypin2.png,0.9,4,0.2,-0.15,right,58,2021-02-22_08h21.46.355,premup-three_ses-01_part-01_label-phase1,3.2.4,MacIntel,60,right,1.113000154,4,0,4,0,1,3,1,0,240,188,1,239,,,,,,,,,,,,,,,,,,
,,1,43,,,,,,,1,1,4,stim/14.jpeg,HouseObjects,2,stim/objects/HouseObjects/rug.png,0.5,4,0.2,-0.15,right,58,2021-02-22_08h21.46.355,premup-three_ses-01_part-01_label-phase1,3.2.4,MacIntel,60,right,1.201000214,4,0,4,0,1,3,1,0,240,27,1,239,,,,,,,,,,,,,,,,,,
,,0,44,,,,,,,3,5,1,stim/51.jpeg,HouseObjects,2,stim/objects/HouseObjects/safetypin2.png,0.9,3,-0.2,-0.15,right,58,2021-02-22_08h21.46.355,premup-three_ses-01_part-01_label-phase1,3.2.4,MacIntel,60,left,0.883000135,4,0,4,0,1,3,1,0,240,196,1,239,,,,,,,,,,,,,,,,,,
,,0,45,,,,,,,2,3,2,stim/32.jpeg,Instruments,1,stim/objects/Instruments/trombone.png,0.3,2,0.2,0.15,left,58,2021-02-22_08h21.46.355,premup-three_ses-01_part-01_label-phase1,3.2.4,MacIntel,60,right,0.825000048,4,0,4,0,1,3,1,0,240,85,1,239,,,,,,,,,,,,,,,,,,
,,0,46,,,,,,,2,4,1,stim/41.jpeg,HouseObjects,2,stim/objects/HouseObjects/recyclingbin2.png,0.3,4,0.2,-0.15,right,58,2021-02-22_08h21.46.355,premup-three_ses-01_part-01_label-phase1,3.2.4,MacIntel,60,left,0.787000179,4,0,4,0,1,3,1,0,240,156,1,239,,,,,,,,,,,,,,,,,,
,,0,47,,,,,,,3,5,1,stim/51.jpeg,Instruments,1,stim/objects/Instruments/saxophone2.png,0.1,4,0.2,-0.15,left,58,2021-02-22_08h21.46.355,premup-three_ses-01_part-01_label-phase1,3.2.4,MacIntel,60,right,0.68200016,4,0,4,0,1,3,1,0,240,160,1,239,,,,,,,,,,,,,,,,,,
,,1,48,,,,,,,2,4,4,stim/44.jpeg,Instruments,1,stim/objects/Instruments/record_player2.png,0.7,1,-0.2,0.15,left,58,2021-02-22_08h21.46.355,premup-three_ses-01_part-01_label-phase1,3.2.4,MacIntel,60,left,1.584000111,4,0,4,0,1,3,1,0,240,127,1,239,,,,,,,,,,,,,,,,,,
,,0,49,,,,,,,2,4,4,stim/44.jpeg,Instruments,1,stim/objects/Instruments/record_player2.png,0.7,4,0.2,-0.15,left,58,2021-02-22_08h21.46.355,premup-three_ses-01_part-01_label-phase1,3.2.4,MacIntel,60,right,0.956000328,4,0,4,0,1,3,1,0,240,135,1,239,,,,,,,,,,,,,,,,,,
,,1,50,,,,,,,2,3,3,stim/33.jpeg,HouseObjects,2,stim/objects/HouseObjects/thermometer.png,0.7,1,-0.2,0.15,right,58,2021-02-22_08h21.46.355,premup-three_ses-01_part-01_label-phase1,3.2.4,MacIntel,60,right,1.291000128,4,0,4,0,1,3,1,0,240,98,1,239,,,,,,,,,,,,,,,,,,
,,0,51,,,,,,,3,5,3,stim/53.jpeg,HouseObjects,2,stim/objects/HouseObjects/scale2.png,0.9,3,-0.2,-0.15,right,58,2021-02-22_08h21.46.355,premup-three_ses-01_part-01_label-phase1,3.2.4,MacIntel,60,left,0.93200016,4,0,4,0,1,3,1,0,240,170,1,239,,,,,,,,,,,,,,,,,,
,,1,52,,,,,,,1,1,3,stim/13.jpeg,HouseObjects,2,stim/objects/HouseObjects/rubbergloves.png,0.5,4,0.2,-0.15,right,58,2021-02-22_08h21.46.355,premup-three_ses-01_part-01_label-phase1,3.2.4,MacIntel,60,right,0.984000206,4,0,4,0,1,3,1,0,240,26,1,239,,,,,,,,,,,,,,,,,,
,,0,53,,,,,,,1,1,2,stim/12.jpeg,HouseObjects,2,stim/objects/HouseObjects/remote.png,0.5,2,0.2,0.15,right,58,2021-02-22_08h21.46.355,premup-three_ses-01_part-01_label-phase1,3.2.4,MacIntel,60,left,0.953000069,4,0,4,0,1,3,1,0,240,33,1,239,,,,,,,,,,,,,,,,,,
,,0,54,,,,,,,1,2,3,stim/23.jpeg,Instruments,1,stim/objects/Instruments/tambourine.png,0.5,1,-0.2,0.15,left,58,2021-02-22_08h21.46.355,premup-three_ses-01_part-01_label-phase1,3.2.4,MacIntel,60,right,0.919000149,4,0,4,0,1,3,1,0,240,58,1,239,,,,,,,,,,,,,,,,,,
,,1,55,,,,,,,1,1,4,stim/14.jpeg,Instruments,1,stim/objects/Instruments/record_player.png,0.5,4,0.2,-0.15,left,58,2021-02-22_08h21.46.355,premup-three_ses-01_part-01_label-phase1,3.2.4,MacIntel,60,left,1.008000374,4,0,4,0,1,3,1,0,240,11,1,239,,,,,,,,,,,,,,,,,,
,,1,56,,,,,,,1,2,4,stim/24.jpeg,HouseObjects,2,stim/objects/HouseObjects/sponge.png,0.5,2,0.2,0.15,right,58,2021-02-22_08h21.46.355,premup-three_ses-01_part-01_label-phase1,3.2.4,MacIntel,60,right,1.486000061,4,0,4,0,1,3,1,0,240,67,1,239,,,,,,,,,,,,,,,,,,
,,1,57,,,,,,,3,6,1,stim/61.jpeg,Instruments,1,stim/objects/Instruments/triangle2.png,0.9,4,0.2,-0.15,left,58,2021-02-22_08h21.46.355,premup-three_ses-01_part-01_label-phase1,3.2.4,MacIntel,60,left,0.615000248,4,0,4,0,1,3,1,0,240,228,1,239,,,,,,,,,,,,,,,,,,
,,0,58,,,,,,,2,4,4,stim/44.jpeg,Instruments,1,stim/objects/Instruments/record_player2.png,0.7,1,-0.2,0.15,left,58,2021-02-22_08h21.46.355,premup-three_ses-01_part-01_label-phase1,3.2.4,MacIntel,60,right,0.652000189,4,0,4,0,1,3,1,0,240,139,1,239,,,,,,,,,,,,,,,,,,
,,0,59,,,,,,,2,4,1,stim/41.jpeg,Instruments,1,stim/objects/Instruments/panflute2.png,0.7,1,-0.2,0.15,left,58,2021-02-22_08h21.46.355,premup-three_ses-01_part-01_label-phase1,3.2.4,MacIntel,60,right,1.044000149,4,0,4,0,1,3,1,0,240,132,1,239,,,,,,,,,,,,,,,,,,
,,1,60,,,,,,,3,5,3,stim/53.jpeg,HouseObjects,2,stim/objects/HouseObjects/scale2.png,0.9,1,-0.2,0.15,right,58,2021-02-22_08h21.46.355,premup-three_ses-01_part-01_label-phase1,3.2.4,MacIntel,60,right,1.306000233,4,0,4,0,1,3,1,0,240,182,1,239,,,,,,,,,,,,,,,,,,
,,1,61,,,,,,,1,2,4,stim/24.jpeg,Instruments,1,stim/objects/Instruments/timbal.png,0.5,2,0.2,0.15,left,58,2021-02-22_08h21.46.355,premup-three_ses-01_part-01_label-phase1,3.2.4,MacIntel,60,left,0.666000128,4,0,4,0,1,3,1,0,240,55,1,239,,,,,,,,,,,,,,,,,,
,,1,62,,,,,,,3,5,2,stim/52.jpeg,HouseObjects,2,stim/objects/HouseObjects/saw2.png,0.9,1,-0.2,0.15,right,58,2021-02-22_08h21.46.355,premup-three_ses-01_part-01_label-phase1,3.2.4,MacIntel,60,right,1.034000158,4,0,4,0,1,3,1,0,240,177,1,239,,,,,,,,,,,,,,,,,,
,,1,63,,,,,,,3,6,4,stim/64.jpeg,Instruments,1,stim/objects/Instruments/tuba2.png,0.9,1,-0.2,0.15,left,58,2021-02-22_08h21.46.355,premup-three_ses-01_part-01_label-phase1,3.2.4,MacIntel,60,left,0.646000147,4,0,4,0,1,3,1,0,240,235,1,239,,,,,,,,,,,,,,,,,,
,,0,64,,,,,,,2,3,2,stim/32.jpeg,Instruments,1,stim/objects/Instruments/trombone.png,0.3,2,0.2,0.15,left,58,2021-02-22_08h21.46.355,premup-three_ses-01_part-01_label-phase1,3.2.4,MacIntel,60,right,0.868000269,4,0,4,0,1,3,1,0,240,81,1,239,,,,,,,,,,,,,,,,,,
,,0,65,,,,,,,3,5,4,stim/54.jpeg,HouseObjects,2,stim/objects/HouseObjects/sponge2.png,0.9,4,0.2,-0.15,right,58,2021-02-22_08h21.46.355,premup-three_ses-01_part-01_label-phase1,3.2.4,MacIntel,60,left,1.260000229,4,0,4,0,1,3,1,0,240,171,1,239,,,,,,,,,,,,,,,,,,
,,1,66,,,,,,,2,4,4,stim/44.jpeg,Instruments,1,stim/objects/Instruments/record_player2.png,0.7,1,-0.2,0.15,left,58,2021-02-22_08h21.46.355,premup-three_ses-01_part-01_label-phase1,3.2.4,MacIntel,60,left,1.274000168,4,0,4,0,1,3,1,0,240,131,1,239,,,,,,,,,,,,,,,,,,
,,0,67,,,,,,,2,4,2,stim/42.jpeg,Instruments,1,stim/objects/Instruments/pipepiano2.png,0.7,3,-0.2,-0.15,left,58,2021-02-22_08h21.46.355,premup-three_ses-01_part-01_label-phase1,3.2.4,MacIntel,60,right,0.636000156,4,0,4,0,1,3,1,0,240,141,1,239,,,,,,,,,,,,,,,,,,
,,1,68,,,,,,,2,4,2,stim/42.jpeg,Instruments,1,stim/objects/Instruments/pipepiano2.png,0.7,4,0.2,-0.15,left,58,2021-02-22_08h21.46.355,premup-three_ses-01_part-01_label-phase1,3.2.4,MacIntel,60,left,1.087000132,4,0,4,0,1,3,1,0,240,145,1,239,,,,,,,,,,,,,,,,,,
,,1,69,,,,,,,2,3,1,stim/31.jpeg,HouseObjects,2,stim/objects/HouseObjects/spraybottle.png,0.7,3,-0.2,-0.15,right,58,2021-02-22_08h21.46.355,premup-three_ses-01_part-01_label-phase1,3.2.4,MacIntel,60,right,1.311000109,4,0,4,0,1,3,1,0,240,116,1,239,,,,,,,,,,,,,,,,,,
,,0,70,,,,,,,2,3,2,stim/32.jpeg,HouseObjects,2,stim/objects/HouseObjects/teapot.png,0.7,3,-0.2,-0.15,right,58,2021-02-22_08h21.46.355,premup-three_ses-01_part-01_label-phase1,3.2.4,MacIntel,60,left,0.82400012,4,0,4,0,1,3,1,0,240,101,1,239,,,,,,,,,,,,,,,,,,
,,1,71,,,,,,,3,5,3,stim/53.jpeg,HouseObjects,2,stim/objects/HouseObjects/scale2.png,0.9,2,0.2,0.15,right,58,2021-02-22_08h21.46.355,premup-three_ses-01_part-01_label-phase1,3.2.4,MacIntel,60,right,1.072000265,4,0,4,0,1,3,1,0,240,186,1,239,,,,,,,,,,,,,,,,,,
,,0,72,,,,,,,1,1,1,stim/11.jpeg,HouseObjects,2,stim/objects/HouseObjects/recyclingbin.png,0.5,1,-0.2,0.15,right,58,2021-02-22_08h21.46.355,premup-three_ses-01_part-01_label-phase1,3.2.4,MacIntel,60,left,0.457000256,4,0,4,0,1,3,1,0,240,32,1,239,,,,,,,,,,,,,,,,,,
,,0,73,,,,,,,2,4,3,stim/43.jpeg,HouseObjects,2,stim/objects/HouseObjects/rubbergloves2.png,0.3,4,0.2,-0.15,right,58,2021-02-22_08h21.46.355,premup-three_ses-01_part-01_label-phase1,3.2.4,MacIntel,60,left,1.708000183,4,0,4,0,1,3,1,0,240,158,1,239,,,,,,,,,,,,,,,,,,
,,0,74,,,,,,,2,3,4,stim/34.jpeg,HouseObjects,2,stim/objects/HouseObjects/thread.png,0.7,4,0.2,-0.15,right,58,2021-02-22_08h21.46.355,premup-three_ses-01_part-01_label-phase1,3.2.4,MacIntel,60,,,4,0,4,0,1,3,1,0,240,115,1,239,,,,,,,,,,,,,,,,,,
,,1,75,,,,,,,3,5,3,stim/53.jpeg,HouseObjects,2,stim/objects/HouseObjects/scale2.png,0.9,2,0.2,0.15,right,58,2021-02-22_08h21.46.355,premup-three_ses-01_part-01_label-phase1,3.2.4,MacIntel,60,right,1.50600028,4,0,4,0,1,3,1,0,240,174,1,239,,,,,,,,,,,,,,,,,,
,,0,76,,,,,,,2,3,4,stim/34.jpeg,Instruments,1,stim/objects/Instruments/tuba.png,0.3,2,0.2,0.15,left,58,2021-02-22_08h21.46.355,premup-three_ses-01_part-01_label-phase1,3.2.4,MacIntel,60,right,1.050000191,4,0,4,0,1,3,1,0,240,87,1,239,,,,,,,,,,,,,,,,,,
,,1,77,,,,,,,3,6,2,stim/62.jpeg,Instruments,1,stim/objects/Instruments/trombone2.png,0.9,4,0.2,-0.15,left,58,2021-02-22_08h21.46.355,premup-three_ses-01_part-01_label-phase1,3.2.4,MacIntel,60,left,0.778000355,4,0,4,0,1,3,1,0,240,229,1,239,,,,,,,,,,,,,,,,,,
,,1,78,,,,,,,1,1,2,stim/12.jpeg,Instruments,1,stim/objects/Instruments/pipepiano.png,0.5,2,0.2,0.15,left,58,2021-02-22_08h21.46.355,premup-three_ses-01_part-01_label-phase1,3.2.4,MacIntel,60,left,1.036000252,4,0,4,0,1,3,1,0,240,5,1,239,,,,,,,,,,,,,,,,,,
,,0,79,,,,,,,2,3,4,stim/34.jpeg,HouseObjects,2,stim/objects/HouseObjects/thread.png,0.7,4,0.2,-0.15,right,58,2021-02-22_08h21.46.355,premup-three_ses-01_part-01_label-phase1,3.2.4,MacIntel,60,left,0.910000324,4,0,4,0,1,3,1,0,240,99,1,239,,,,,,,,,,,,,,,,,,
,,1,80,,,,,,,1,1,1,stim/11.jpeg,HouseObjects,2,stim/objects/HouseObjects/recyclingbin.png,0.5,2,0.2,0.15,right,58,2021-02-22_08h21.46.355,premup-three_ses-01_part-01_label-phase1,3.2.4,MacIntel,60,right,0.577000141,4,0,4,0,1,3,1,0,240,36,1,239,,,,,,,,,,,,,,,,,,
,,1,81,,,,,,,1,2,2,stim/22.jpeg,HouseObjects,2,stim/objects/HouseObjects/saw.png,0.5,2,0.2,0.15,right,58,2021-02-22_08h21.46.355,premup-three_ses-01_part-01_label-phase1,3.2.4,MacIntel,60,right,0.411000013,4,0,4,0,1,3,1,0,240,65,1,239,,,,,,,,,,,,,,,,,,
,,0,82,,,,,,,2,3,3,stim/33.jpeg,Instruments,1,stim/objects/Instruments/trumpet.png,0.3,3,-0.2,-0.15,left,58,2021-02-22_08h21.46.355,premup-three_ses-01_part-01_label-phase1,3.2.4,MacIntel,60,right,0.618000269,4,0,4,0,1,3,1,0,240,82,1,239,,,,,,,,,,,,,,,,,,
,,0,83,,,,,,,2,3,1,stim/31.jpeg,HouseObjects,2,stim/objects/HouseObjects/spraybottle.png,0.7,2,0.2,0.15,right,58,2021-02-22_08h21.46.355,premup-three_ses-01_part-01_label-phase1,3.2.4,MacIntel,60,left,1.804000378,4,0,4,0,1,3,1,0,240,112,1,239,,,,,,,,,,,,,,,,,,
,,1,84,,,,,,,1,2,4,stim/24.jpeg,HouseObjects,2,stim/objects/HouseObjects/sponge.png,0.5,2,0.2,0.15,right,58,2021-02-22_08h21.46.355,premup-three_ses-01_part-01_label-phase1,3.2.4,MacIntel,60,right,1.258000135,4,0,4,0,1,3,1,0,240,71,1,239,,,,,,,,,,,,,,,,,,
,,1,85,,,,,,,2,3,3,stim/33.jpeg,HouseObjects,2,stim/objects/HouseObjects/thermometer.png,0.7,2,0.2,0.15,right,58,2021-02-22_08h21.46.355,premup-three_ses-01_part-01_label-phase1,3.2.4,MacIntel,60,right,0.694000244,4,0,4,0,1,3,1,0,240,94,1,239,,,,,,,,,,,,,,,,,,
,,1,86,,,,,,,2,4,1,stim/41.jpeg,Instruments,1,stim/objects/Instruments/panflute2.png,0.7,3,-0.2,-0.15,left,58,2021-02-22_08h21.46.355,premup-three_ses-01_part-01_label-phase1,3.2.4,MacIntel,60,left,0.777000189,4,0,4,0,1,3,1,0,240,136,1,239,,,,,,,,,,,,,,,,,,
,,1,87,,,,,,,1,2,3,stim/23.jpeg,Instruments,1,stim/objects/Instruments/tambourine.png,0.5,3,-0.2,-0.15,left,58,2021-02-22_08h21.46.355,premup-three_ses-01_part-01_label-phase1,3.2.4,MacIntel,60,left,0.336000204,4,0,4,0,1,3,1,0,240,42,1,239,,,,,,,,,,,,,,,,,,
,,1,88,,,,,,,2,4,3,stim/43.jpeg,Instruments,1,stim/objects/Instruments/record2.png,0.7,4,0.2,-0.15,left,58,2021-02-22_08h21.46.355,premup-three_ses-01_part-01_label-phase1,3.2.4,MacIntel,60,left,0.687000275,4,0,4,0,1,3,1,0,240,130,1,239,,,,,,,,,,,,,,,,,,
,,1,89,,,,,,,3,5,4,stim/54.jpeg,HouseObjects,2,stim/objects/HouseObjects/sponge2.png,0.9,3,-0.2,-0.15,right,58,2021-02-22_08h21.46.355,premup-three_ses-01_part-01_label-phase1,3.2.4,MacIntel,60,right,0.399000168,4,0,4,0,1,3,1,0,240,179,1,239,,,,,,,,,,,,,,,,,,
,,1,90,,,,,,,3,6,1,stim/61.jpeg,HouseObjects,2,stim/objects/HouseObjects/spraybottle2.png,0.1,2,0.2,0.15,right,58,2021-02-22_08h21.46.355,premup-three_ses-01_part-01_label-phase1,3.2.4,MacIntel,60,right,0.354000092,4,0,4,0,1,3,1,0,240,236,1,239,,,,,,,,,,,,,,,,,,
,,0,91,,,,,,,3,6,2,stim/62.jpeg,Instruments,1,stim/objects/Instruments/trombone2.png,0.9,4,0.2,-0.15,left,58,2021-02-22_08h21.46.355,premup-three_ses-01_part-01_label-phase1,3.2.4,MacIntel,60,right,0.2900002,4,0,4,0,1,3,1,0,240,225,1,239,,,,,,,,,,,,,,,,,,
,,1,92,,,,,,,3,6,3,stim/63.jpeg,Instruments,1,stim/objects/Instruments/trumpet2.png,0.9,4,0.2,-0.15,left,58,2021-02-22_08h21.46.355,premup-three_ses-01_part-01_label-phase1,3.2.4,MacIntel,60,left,1.222000122,4,0,4,0,1,3,1,0,240,234,1,239,,,,,,,,,,,,,,,,,,
,,1,93,,,,,,,3,6,1,stim/61.jpeg,Instruments,1,stim/objects/Instruments/triangle2.png,0.9,4,0.2,-0.15,left,58,2021-02-22_08h21.46.355,premup-three_ses-01_part-01_label-phase1,3.2.4,MacIntel,60,left,0.741000175,4,0,4,0,1,3,1,0,240,220,1,239,,,,,,,,,,,,,,,,,,
,,1,94,,,,,,,3,6,4,stim/64.jpeg,HouseObjects,2,stim/objects/HouseObjects/thread2.png,0.1,4,0.2,-0.15,right,58,2021-02-22_08h21.46.355,premup-three_ses-01_part-01_label-phase1,3.2.4,MacIntel,60,right,0.366000175,4,0,4,0,1,3,1,0,240,239,1,239,,,,,,,,,,,,,,,,,,
,,0,95,,,,,,,1,1,2,stim/12.jpeg,Instruments,1,stim/objects/Instruments/pipepiano.png,0.5,4,0.2,-0.15,left,58,2021-02-22_08h21.46.355,premup-three_ses-01_part-01_label-phase1,3.2.4,MacIntel,60,right,0.252000332,4,0,4,0,1,3,1,0,240,17,1,239,,,,,,,,,,,,,,,,,,
,,1,96,,,,,,,1,2,4,stim/24.jpeg,Instruments,1,stim/objects/Instruments/timbal.png,0.5,3,-0.2,-0.15,left,58,2021-02-22_08h21.46.355,premup-three_ses-01_part-01_label-phase1,3.2.4,MacIntel,60,left,0.969000101,4,0,4,0,1,3,1,0,240,47,1,239,,,,,,,,,,,,,,,,,,
,,0,97,,,,,,,2,3,1,stim/31.jpeg,Instruments,1,stim/objects/Instruments/triangle.png,0.3,2,0.2,0.15,left,58,2021-02-22_08h21.46.355,premup-three_ses-01_part-01_label-phase1,3.2.4,MacIntel,60,right,0.487000227,4,0,4,0,1,3,1,0,240,84,1,239,,,,,,,,,,,,,,,,,,
,,0,98,,,,,,,2,3,4,stim/34.jpeg,Instruments,1,stim/objects/Instruments/tuba.png,0.3,3,-0.2,-0.15,left,58,2021-02-22_08h21.46.355,premup-three_ses-01_part-01_label-phase1,3.2.4,MacIntel,60,right,0.586000204,4,0,4,0,1,3,1,0,240,83,1,239,,,,,,,,,,,,,,,,,,
,,1,99,,,,,,,2,4,1,stim/41.jpeg,Instruments,1,stim/objects/Instruments/panflute2.png,0.7,2,0.2,0.15,left,58,2021-02-22_08h21.46.355,premup-three_ses-01_part-01_label-phase1,3.2.4,MacIntel,60,left,1.602000237,4,0,4,0,1,3,1,0,240,120,1,239,,,,,,,,,,,,,,,,,,
,,0,100,,,,,,,2,3,1,stim/31.jpeg,HouseObjects,2,stim/objects/HouseObjects/spraybottle.png,0.7,4,0.2,-0.15,right,58,2021-02-22_08h21.46.355,premup-three_ses-01_part-01_label-phase1,3.2.4,MacIntel,60,left,0.54700017,4,0,4,0,1,3,1,0,240,96,1,239,,,,,,,,,,,,,,,,,,
,,1,101,,,,,,,3,6,2,stim/62.jpeg,HouseObjects,2,stim/objects/HouseObjects/teapot2.png,0.1,1,-0.2,0.15,right,58,2021-02-22_08h21.46.355,premup-three_ses-01_part-01_label-phase1,3.2.4,MacIntel,60,right,0.435000181,4,0,4,0,1,3,1,0,240,237,1,239,,,,,,,,,,,,,,,,,,
,,0,102,,,,,,,3,6,1,stim/61.jpeg,Instruments,1,stim/objects/Instruments/triangle2.png,0.9,4,0.2,-0.15,left,58,2021-02-22_08h21.46.355,premup-three_ses-01_part-01_label-phase1,3.2.4,MacIntel,60,right,0.427000046,4,0,4,0,1,3,1,0,240,224,1,239,,,,,,,,,,,,,,,,,,
,,1,103,,,,,,,3,6,3,stim/63.jpeg,Instruments,1,stim/objects/Instruments/trumpet2.png,0.9,3,-0.2,-0.15,left,58,2021-02-22_08h21.46.355,premup-three_ses-01_part-01_label-phase1,3.2.4,MacIntel,60,left,0.640000105,4,0,4,0,1,3,1,0,240,218,1,239,,,,,,,,,,,,,,,,,,
,,1,104,,,,,,,3,6,2,stim/62.jpeg,Instruments,1,stim/objects/Instruments/trombone2.png,0.9,4,0.2,-0.15,left,58,2021-02-22_08h21.46.355,premup-three_ses-01_part-01_label-phase1,3.2.4,MacIntel,60,left,1.069000244,4,0,4,0,1,3,1,0,240,209,1,239,,,,,,,,,,,,,,,,,,
,,1,105,,,,,,,1,2,2,stim/22.jpeg,Instruments,1,stim/objects/Instruments/speaker.png,0.5,1,-0.2,0.15,left,58,2021-02-22_08h21.46.355,premup-three_ses-01_part-01_label-phase1,3.2.4,MacIntel,60,left,0.569000244,4,0,4,0,1,3,1,0,240,45,1,239,,,,,,,,,,,,,,,,,,
,,0,106,,,,,,,1,1,4,stim/14.jpeg,HouseObjects,2,stim/objects/HouseObjects/rug.png,0.5,1,-0.2,0.15,right,58,2021-02-22_08h21.46.355,premup-three_ses-01_part-01_label-phase1,3.2.4,MacIntel,60,left,0.356000185,4,0,4,0,1,3,1,0,240,39,1,239,,,,,,,,,,,,,,,,,,
,,1,107,,,,,,,2,3,4,stim/34.jpeg,HouseObjects,2,stim/objects/HouseObjects/thread.png,0.7,2,0.2,0.15,right,58,2021-02-22_08h21.46.355,premup-three_ses-01_part-01_label-phase1,3.2.4,MacIntel,60,right,0.36400032,4,0,4,0,1,3,1,0,240,111,1,239,,,,,,,,,,,,,,,,,,
,,0,108,,,,,,,1,1,1,stim/11.jpeg,Instruments,1,stim/objects/Instruments/panflute.png,0.5,1,-0.2,0.15,left,58,2021-02-22_08h21.46.355,premup-three_ses-01_part-01_label-phase1,3.2.4,MacIntel,60,right,0.401000261,4,0,4,0,1,3,1,0,240,4,1,239,,,,,,,,,,,,,,,,,,
,,0,109,,,,,,,1,2,1,stim/21.jpeg,HouseObjects,2,stim/objects/HouseObjects/safetypin.png,0.5,4,0.2,-0.15,right,58,2021-02-22_08h21.46.355,premup-three_ses-01_part-01_label-phase1,3.2.4,MacIntel,60,left,1.893000126,4,0,4,0,1,3,1,0,240,72,1,239,,,,,,,,,,,,,,,,,,
,,1,110,,,,,,,2,3,3,stim/33.jpeg,HouseObjects,2,stim/objects/HouseObjects/thermometer.png,0.7,4,0.2,-0.15,right,58,2021-02-22_08h21.46.355,premup-three_ses-01_part-01_label-phase1,3.2.4,MacIntel,60,right,0.451000214,4,0,4,0,1,3,1,0,240,118,1,239,,,,,,,,,,,,,,,,,,
,,1,111,,,,,,,2,3,4,stim/34.jpeg,HouseObjects,2,stim/objects/HouseObjects/thread.png,0.7,4,0.2,-0.15,right,58,2021-02-22_08h21.46.355,premup-three_ses-01_part-01_label-phase1,3.2.4,MacIntel,60,right,0.367000103,4,0,4,0,1,3,1,0,240,95,1,239,,,,,,,,,,,,,,,,,,
,,1,112,,,,,,,1,2,4,stim/24.jpeg,Instruments,1,stim/objects/Instruments/timbal.png,0.5,3,-0.2,-0.15,left,58,2021-02-22_08h21.46.355,premup-three_ses-01_part-01_label-phase1,3.2.4,MacIntel,60,left,1.234000206,4,0,4,0,1,3,1,0,240,43,1,239,,,,,,,,,,,,,,,,,,
,,1,113,,,,,,,3,6,3,stim/63.jpeg,Instruments,1,stim/objects/Instruments/trumpet2.png,0.9,4,0.2,-0.15,left,58,2021-02-22_08h21.46.355,premup-three_ses-01_part-01_label-phase1,3.2.4,MacIntel,60,left,0.696000099,4,0,4,0,1,3,1,0,240,202,1,239,,,,,,,,,,,,,,,,,,
,,1,114,,,,,,,2,4,3,stim/43.jpeg,Instruments,1,stim/objects/Instruments/record2.png,0.7,1,-0.2,0.15,left,58,2021-02-22_08h21.46.355,premup-three_ses-01_part-01_label-phase1,3.2.4,MacIntel,60,left,0.515000105,4,0,4,0,1,3,1,0,240,142,1,239,,,,,,,,,,,,,,,,,,
,,1,115,,,,,,,1,1,1,stim/11.jpeg,HouseObjects,2,stim/objects/HouseObjects/recyclingbin.png,0.5,2,0.2,0.15,right,58,2021-02-22_08h21.46.355,premup-three_ses-01_part-01_label-phase1,3.2.4,MacIntel,60,right,0.334000349,4,0,4,0,1,3,1,0,240,28,1,239,,,,,,,,,,,,,,,,,,
,,0,116,,,,,,,1,1,3,stim/13.jpeg,Instruments,1,stim/objects/Instruments/record.png,0.5,1,-0.2,0.15,left,58,2021-02-22_08h21.46.355,premup-three_ses-01_part-01_label-phase1,3.2.4,MacIntel,60,right,0.389000177,4,0,4,0,1,3,1,0,240,18,1,239,,,,,,,,,,,,,,,,,,
,,0,117,,,,,,,1,2,4,stim/24.jpeg,HouseObjects,2,stim/objects/HouseObjects/sponge.png,0.5,2,0.2,0.15,right,58,2021-02-22_08h21.46.355,premup-three_ses-01_part-01_label-phase1,3.2.4,MacIntel,60,left,0.78000021,4,0,4,0,1,3,1,0,240,79,1,239,,,,,,,,,,,,,,,,,,
,,1,118,,,,,,,3,6,3,stim/63.jpeg,Instruments,1,stim/objects/Instruments/trumpet2.png,0.9,2,0.2,0.15,left,58,2021-02-22_08h21.46.355,premup-three_ses-01_part-01_label-phase1,3.2.4,MacIntel,60,left,0.927000046,4,0,4,0,1,3,1,0,240,226,1,239,,,,,,,,,,,,,,,,,,
,,0,119,,,,,,,2,3,4,stim/34.jpeg,Instruments,1,stim/objects/Instruments/tuba.png,0.3,3,-0.2,-0.15,left,58,2021-02-22_08h21.46.355,premup-three_ses-01_part-01_label-phase1,3.2.4,MacIntel,60,right,0.76300025,4,0,4,0,1,3,1,0,240,91,1,239,,,,,,,,,,,,,,,,,,
,,1,120,,,,,,,1,2,2,stim/22.jpeg,Instruments,1,stim/objects/Instruments/speaker.png,0.5,4,0.2,-0.15,left,58,2021-02-22_08h21.46.355,premup-three_ses-01_part-01_label-phase1,3.2.4,MacIntel,60,left,0.518000364,4,0,4,0,1,3,1,0,240,49,1,239,,,,,,,,,,,,,,,,,,
,,0,121,,,,,,,2,3,3,stim/33.jpeg,HouseObjects,2,stim/objects/HouseObjects/thermometer.png,0.7,1,-0.2,0.15,right,58,2021-02-22_08h21.46.355,premup-three_ses-01_part-01_label-phase1,3.2.4,MacIntel,60,left,0.618000031,4,0,4,0,1,3,1,0,240,106,1,239,,,,,,,,,,,,,,,,,,
,,1,122,,,,,,,3,6,3,stim/63.jpeg,Instruments,1,stim/objects/Instruments/trumpet2.png,0.9,3,-0.2,-0.15,left,58,2021-02-22_08h21.46.355,premup-three_ses-01_part-01_label-phase1,3.2.4,MacIntel,60,left,0.683000088,4,0,4,0,1,3,1,0,240,230,1,239,,,,,,,,,,,,,,,,,,
,,1,123,,,,,,,2,3,2,stim/32.jpeg,HouseObjects,2,stim/objects/HouseObjects/teapot.png,0.7,1,-0.2,0.15,right,58,2021-02-22_08h21.46.355,premup-three_ses-01_part-01_label-phase1,3.2.4,MacIntel,60,right,0.834000111,4,0,4,0,1,3,1,0,240,93,1,239,,,,,,,,,,,,,,,,,,
,,0,124,,,,,,,2,3,3,stim/33.jpeg,HouseObjects,2,stim/objects/HouseObjects/thermometer.png,0.7,2,0.2,0.15,right,58,2021-02-22_08h21.46.355,premup-three_ses-01_part-01_label-phase1,3.2.4,MacIntel,60,left,0.685000181,4,0,4,0,1,3,1,0,240,110,1,239,,,,,,,,,,,,,,,,,,
,,1,125,,,,,,,2,4,4,stim/44.jpeg,HouseObjects,2,stim/objects/HouseObjects/rug2.png,0.3,4,0.2,-0.15,right,58,2021-02-22_08h21.46.355,premup-three_ses-01_part-01_label-phase1,3.2.4,MacIntel,60,right,0.626000166,4,0,4,0,1,3,1,0,240,151,1,239,,,,,,,,,,,,,,,,,,
,,1,126,,,,,,,3,5,1,stim/51.jpeg,HouseObjects,2,stim/objects/HouseObjects/safetypin2.png,0.9,1,-0.2,0.15,right,58,2021-02-22_08h21.46.355,premup-three_ses-01_part-01_label-phase1,3.2.4,MacIntel,60,right,0.817000151,4,0,4,0,1,3,1,0,240,176,1,239,,,,,,,,,,,,,,,,,,
,,1,127,,,,,,,1,1,2,stim/12.jpeg,HouseObjects,2,stim/objects/HouseObjects/remote.png,0.5,2,0.2,0.15,right,58,2021-02-22_08h21.46.355,premup-three_ses-01_part-01_label-phase1,3.2.4,MacIntel,60,right,0.832000017,4,0,4,0,1,3,1,0,240,21,1,239,,,,,,,,,,,,,,,,,,
,,1,128,,,,,,,3,6,4,stim/64.jpeg,Instruments,1,stim/objects/Instruments/tuba2.png,0.9,3,-0.2,-0.15,left,58,2021-02-22_08h21.46.355,premup-three_ses-01_part-01_label-phase1,3.2.4,MacIntel,60,left,0.696000099,4,0,4,0,1,3,1,0,240,227,1,239,,,,,,,,,,,,,,,,,,
,,0,129,,,,,,,2,4,2,stim/42.jpeg,HouseObjects,2,stim/objects/HouseObjects/remote2.png,0.3,2,0.2,0.15,right,58,2021-02-22_08h21.46.355,premup-three_ses-01_part-01_label-phase1,3.2.4,MacIntel,60,left,0.486000299,4,0,4,0,1,3,1,0,240,157,1,239,,,,,,,,,,,,,,,,,,
,,1,130,,,,,,,2,4,3,stim/43.jpeg,Instruments,1,stim/objects/Instruments/record2.png,0.7,1,-0.2,0.15,left,58,2021-02-22_08h21.46.355,premup-three_ses-01_part-01_label-phase1,3.2.4,MacIntel,60,left,0.669000149,4,0,4,0,1,3,1,0,240,146,1,239,,,,,,,,,,,,,,,,,,
,,0,131,,,,,,,3,5,4,stim/54.jpeg,HouseObjects,2,stim/objects/HouseObjects/sponge2.png,0.9,3,-0.2,-0.15,right,58,2021-02-22_08h21.46.355,premup-three_ses-01_part-01_label-phase1,3.2.4,MacIntel,60,left,0.481000185,4,0,4,0,1,3,1,0,240,175,1,239,,,,,,,,,,,,,,,,,,
,,0,132,,,,,,,2,4,4,stim/44.jpeg,Instruments,1,stim/objects/Instruments/record_player2.png,0.7,2,0.2,0.15,left,58,2021-02-22_08h21.46.355,premup-three_ses-01_part-01_label-phase1,3.2.4,MacIntel,60,right,0.902000189,4,0,4,0,1,3,1,0,240,147,1,239,,,,,,,,,,,,,,,,,,
,,0,133,,,,,,,1,1,1,stim/11.jpeg,HouseObjects,2,stim/objects/HouseObjects/recyclingbin.png,0.5,3,-0.2,-0.15,right,58,2021-02-22_08h21.46.355,premup-three_ses-01_part-01_label-phase1,3.2.4,MacIntel,60,left,1.686000109,4,0,4,0,1,3,1,0,240,20,1,239,,,,,,,,,,,,,,,,,,
,,1,134,,,,,,,1,2,1,stim/21.jpeg,Instruments,1,stim/objects/Instruments/saxophone.png,0.5,3,-0.2,-0.15,left,58,2021-02-22_08h21.46.355,premup-three_ses-01_part-01_label-phase1,3.2.4,MacIntel,60,left,1.141000271,4,0,4,0,1,3,1,0,240,48,1,239,,,,,,,,,,,,,,,,,,
,,1,135,,,,,,,1,2,1,stim/21.jpeg,HouseObjects,2,stim/objects/HouseObjects/safetypin.png,0.5,4,0.2,-0.15,right,58,2021-02-22_08h21.46.355,premup-three_ses-01_part-01_label-phase1,3.2.4,MacIntel,60,right,0.787000179,4,0,4,0,1,3,1,0,240,64,1,239,,,,,,,,,,,,,,,,,,
,,0,136,,,,,,,1,1,3,stim/13.jpeg,HouseObjects,2,stim/objects/HouseObjects/rubbergloves.png,0.5,3,-0.2,-0.15,right,58,2021-02-22_08h21.46.355,premup-three_ses-01_part-01_label-phase1,3.2.4,MacIntel,60,left,1.055000305,4,0,4,0,1,3,1,0,240,34,1,239,,,,,,,,,,,,,,,,,,
,,1,137,,,,,,,1,2,4,stim/24.jpeg,HouseObjects,2,stim/objects/HouseObjects/sponge.png,0.5,2,0.2,0.15,right,58,2021-02-22_08h21.46.355,premup-three_ses-01_part-01_label-phase1,3.2.4,MacIntel,60,right,1.430000305,4,0,4,0,1,3,1,0,240,63,1,239,,,,,,,,,,,,,,,,,,
,,1,138,,,,,,,2,4,3,stim/43.jpeg,HouseObjects,2,stim/objects/HouseObjects/rubbergloves2.png,0.3,4,0.2,-0.15,right,58,2021-02-22_08h21.46.355,premup-three_ses-01_part-01_label-phase1,3.2.4,MacIntel,60,right,0.878000259,4,0,4,0,1,3,1,0,240,154,1,239,,,,,,,,,,,,,,,,,,
,,1,139,,,,,,,3,5,1,stim/51.jpeg,HouseObjects,2,stim/objects/HouseObjects/safetypin2.png,0.9,4,0.2,-0.15,right,58,2021-02-22_08h21.46.355,premup-three_ses-01_part-01_label-phase1,3.2.4,MacIntel,60,right,1.169000149,4,0,4,0,1,3,1,0,240,180,1,239,,,,,,,,,,,,,,,,,,
,,0,140,,,,,,,2,3,1,stim/31.jpeg,HouseObjects,2,stim/objects/HouseObjects/spraybottle.png,0.7,1,-0.2,0.15,right,58,2021-02-22_08h21.46.355,premup-three_ses-01_part-01_label-phase1,3.2.4,MacIntel,60,left,0.96900034,4,0,4,0,1,3,1,0,240,104,1,239,,,,,,,,,,,,,,,,,,
,,1,141,,,,,,,3,6,2,stim/62.jpeg,Instruments,1,stim/objects/Instruments/trombone2.png,0.9,1,-0.2,0.15,left,58,2021-02-22_08h21.46.355,premup-three_ses-01_part-01_label-phase1,3.2.4,MacIntel,60,left,0.714000225,4,0,4,0,1,3,1,0,240,205,1,239,,,,,,,,,,,,,,,,,,
,,0,142,,,,,,,1,2,1,stim/21.jpeg,Instruments,1,stim/objects/Instruments/saxophone.png,0.5,4,0.2,-0.15,left,58,2021-02-22_08h21.46.355,premup-three_ses-01_part-01_label-phase1,3.2.4,MacIntel,60,right,0.740000248,4,0,4,0,1,3,1,0,240,52,1,239,,,,,,,,,,,,,,,,,,
,,0,143,,,,,,,1,1,3,stim/13.jpeg,Instruments,1,stim/objects/Instruments/record.png,0.5,3,-0.2,-0.15,left,58,2021-02-22_08h21.46.355,premup-three_ses-01_part-01_label-phase1,3.2.4,MacIntel,60,right,1.349000216,4,0,4,0,1,3,1,0,240,2,1,239,,,,,,,,,,,,,,,,,,
,,0,144,,,,,,,1,2,2,stim/22.jpeg,HouseObjects,2,stim/objects/HouseObjects/saw.png,0.5,1,-0.2,0.15,right,58,2021-02-22_08h21.46.355,premup-three_ses-01_part-01_label-phase1,3.2.4,MacIntel,60,left,0.886000156,4,0,4,0,1,3,1,0,240,69,1,239,,,,,,,,,,,,,,,,,,
,,0,145,,,,,,,2,3,1,stim/31.jpeg,Instruments,1,stim/objects/Instruments/triangle.png,0.3,3,-0.2,-0.15,left,58,2021-02-22_08h21.46.355,premup-three_ses-01_part-01_label-phase1,3.2.4,MacIntel,60,right,1.274000168,4,0,4,0,1,3,1,0,240,88,1,239,,,,,,,,,,,,,,,,,,
,,1,146,,,,,,,2,3,1,stim/31.jpeg,HouseObjects,2,stim/objects/HouseObjects/spraybottle.png,0.7,4,0.2,-0.15,right,58,2021-02-22_08h21.46.355,premup-three_ses-01_part-01_label-phase1,3.2.4,MacIntel,60,right,0.806000233,4,0,4,0,1,3,1,0,240,100,1,239,,,,,,,,,,,,,,,,,,
,,0,147,,,,,,,1,2,2,stim/22.jpeg,Instruments,1,stim/objects/Instruments/speaker.png,0.5,1,-0.2,0.15,left,58,2021-02-22_08h21.46.355,premup-three_ses-01_part-01_label-phase1,3.2.4,MacIntel,60,right,0.510000229,4,0,4,0,1,3,1,0,240,57,1,239,,,,,,,,,,,,,,,,,,
,,0,148,,,,,,,3,5,4,stim/54.jpeg,HouseObjects,2,stim/objects/HouseObjects/sponge2.png,0.9,1,-0.2,0.15,right,58,2021-02-22_08h21.46.355,premup-three_ses-01_part-01_label-phase1,3.2.4,MacIntel,60,left,0.982000113,4,0,4,0,1,3,1,0,240,167,1,239,,,,,,,,,,,,,,,,,,
,,1,149,,,,,,,1,1,2,stim/12.jpeg,Instruments,1,stim/objects/Instruments/pipepiano.png,0.5,4,0.2,-0.15,left,58,2021-02-22_08h21.46.355,premup-three_ses-01_part-01_label-phase1,3.2.4,MacIntel,60,left,1.219000101,4,0,4,0,1,3,1,0,240,1,1,239,,,,,,,,,,,,,,,,,,
,,1,150,,,,,,,3,6,2,stim/62.jpeg,Instruments,1,stim/objects/Instruments/trombone2.png,0.9,1,-0.2,0.15,left,58,2021-02-22_08h21.46.355,premup-three_ses-01_part-01_label-phase1,3.2.4,MacIntel,60,left,0.821000338,4,0,4,0,1,3,1,0,240,217,1,239,,,,,,,,,,,,,,,,,,
,,0,151,,,,,,,2,3,1,stim/31.jpeg,HouseObjects,2,stim/objects/HouseObjects/spraybottle.png,0.7,3,-0.2,-0.15,right,58,2021-02-22_08h21.46.355,premup-three_ses-01_part-01_label-phase1,3.2.4,MacIntel,60,left,1.502000332,4,0,4,0,1,3,1,0,240,92,1,239,,,,,,,,,,,,,,,,,,
,,1,152,,,,,,,2,3,2,stim/32.jpeg,HouseObjects,2,stim/objects/HouseObjects/teapot.png,0.7,1,-0.2,0.15,right,58,2021-02-22_08h21.46.355,premup-three_ses-01_part-01_label-phase1,3.2.4,MacIntel,60,right,0.642000198,4,0,4,0,1,3,1,0,240,117,1,239,,,,,,,,,,,,,,,,,,
,,0,153,,,,,,,1,2,1,stim/21.jpeg,Instruments,1,stim/objects/Instruments/saxophone.png,0.5,4,0.2,-0.15,left,58,2021-02-22_08h21.46.355,premup-three_ses-01_part-01_label-phase1,3.2.4,MacIntel,60,right,0.744000196,4,0,4,0,1,3,1,0,240,56,1,239,,,,,,,,,,,,,,,,,,
,,0,154,,,,,,,3,6,3,stim/63.jpeg,HouseObjects,2,stim/objects/HouseObjects/thermometer2.png,0.1,4,0.2,-0.15,right,58,2021-02-22_08h21.46.355,premup-three_ses-01_part-01_label-phase1,3.2.4,MacIntel,60,left,0.494000196,4,0,4,0,1,3,1,0,240,238,1,239,,,,,,,,,,,,,,,,,,
,,1,155,,,,,,,2,3,2,stim/32.jpeg,HouseObjects,2,stim/objects/HouseObjects/teapot.png,0.7,3,-0.2,-0.15,right,58,2021-02-22_08h21.46.355,premup-three_ses-01_part-01_label-phase1,3.2.4,MacIntel,60,right,1.352000237,4,0,4,0,1,3,1,0,240,113,1,239,,,,,,,,,,,,,,,,,,
,,1,156,,,,,,,3,6,2,stim/62.jpeg,Instruments,1,stim/objects/Instruments/trombone2.png,0.9,1,-0.2,0.15,left,58,2021-02-22_08h21.46.355,premup-three_ses-01_part-01_label-phase1,3.2.4,MacIntel,60,left,0.688000202,4,0,4,0,1,3,1,0,240,233,1,239,,,,,,,,,,,,,,,,,,
,,1,157,,,,,,,1,1,4,stim/14.jpeg,HouseObjects,2,stim/objects/HouseObjects/rug.png,0.5,3,-0.2,-0.15,right,58,2021-02-22_08h21.46.355,premup-three_ses-01_part-01_label-phase1,3.2.4,MacIntel,60,right,0.775000095,4,0,4,0,1,3,1,0,240,35,1,239,,,,,,,,,,,,,,,,,,
,,0,158,,,,,,,1,1,2,stim/12.jpeg,HouseObjects,2,stim/objects/HouseObjects/remote.png,0.5,3,-0.2,-0.15,right,58,2021-02-22_08h21.46.355,premup-three_ses-01_part-01_label-phase1,3.2.4,MacIntel,60,left,0.397000313,4,0,4,0,1,3,1,0,240,37,1,239,,,,,,,,,,,,,,,,,,
,,0,159,,,,,,,2,4,1,stim/41.jpeg,Instruments,1,stim/objects/Instruments/panflute2.png,0.7,2,0.2,0.15,left,58,2021-02-22_08h21.46.355,premup-three_ses-01_part-01_label-phase1,3.2.4,MacIntel,60,right,1.302000046,4,0,4,0,1,3,1,0,240,140,1,239,,,,,,,,,,,,,,,,,,
,,0,160,,,,,,,1,2,4,stim/24.jpeg,Instruments,1,stim/objects/Instruments/timbal.png,0.5,1,-0.2,0.15,left,58,2021-02-22_08h21.46.355,premup-three_ses-01_part-01_label-phase1,3.2.4,MacIntel,60,right,0.65500021,4,0,4,0,1,3,1,0,240,59,1,239,,,,,,,,,,,,,,,,,,
,,1,161,,,,,,,1,1,1,stim/11.jpeg,HouseObjects,2,stim/objects/HouseObjects/recyclingbin.png,0.5,2,0.2,0.15,right,58,2021-02-22_08h21.46.355,premup-three_ses-01_part-01_label-phase1,3.2.4,MacIntel,60,right,0.486000299,4,0,4,0,1,3,1,0,240,24,1,239,,,,,,,,,,,,,,,,,,
,,1,162,,,,,,,3,5,3,stim/53.jpeg,HouseObjects,2,stim/objects/HouseObjects/scale2.png,0.9,1,-0.2,0.15,right,58,2021-02-22_08h21.46.355,premup-three_ses-01_part-01_label-phase1,3.2.4,MacIntel,60,right,0.400000095,4,0,4,0,1,3,1,0,240,194,1,239,,,,,,,,,,,,,,,,,,
,,0,163,,,,,,,3,5,3,stim/53.jpeg,HouseObjects,2,stim/objects/HouseObjects/scale2.png,0.9,1,-0.2,0.15,right,58,2021-02-22_08h21.46.355,premup-three_ses-01_part-01_label-phase1,3.2.4,MacIntel,60,left,0.464000225,4,0,4,0,1,3,1,0,240,198,1,239,,,,,,,,,,,,,,,,,,
,,1,164,,,,,,,2,4,4,stim/44.jpeg,Instruments,1,stim/objects/Instruments/record_player2.png,0.7,3,-0.2,-0.15,left,58,2021-02-22_08h21.46.355,premup-three_ses-01_part-01_label-phase1,3.2.4,MacIntel,60,left,0.726000309,4,0,4,0,1,3,1,0,240,123,1,239,,,,,,,,,,,,,,,,,,
,,1,165,,,,,,,2,4,2,stim/42.jpeg,Instruments,1,stim/objects/Instruments/pipepiano2.png,0.7,1,-0.2,0.15,left,58,2021-02-22_08h21.46.355,premup-three_ses-01_part-01_label-phase1,3.2.4,MacIntel,60,left,0.77300024,4,0,4,0,1,3,1,0,240,133,1,239,,,,,,,,,,,,,,,,,,
,,0,166,,,,,,,3,5,2,stim/52.jpeg,HouseObjects,2,stim/objects/HouseObjects/saw2.png,0.9,2,0.2,0.15,right,58,2021-02-22_08h21.46.355,premup-three_ses-01_part-01_label-phase1,3.2.4,MacIntel,60,left,0.711000204,4,0,4,0,1,3,1,0,240,165,1,239,,,,,,,,,,,,,,,,,,
,,1,167,,,,,,,3,5,3,stim/53.jpeg,HouseObjects,2,stim/objects/HouseObjects/scale2.png,0.9,1,-0.2,0.15,right,58,2021-02-22_08h21.46.355,premup-three_ses-01_part-01_label-phase1,3.2.4,MacIntel,60,right,0.575000286,4,0,4,0,1,3,1,0,240,178,1,239,,,,,,,,,,,,,,,,,,
,,1,168,,,,,,,1,2,3,stim/23.jpeg,HouseObjects,2,stim/objects/HouseObjects/scale.png,0.5,4,0.2,-0.15,right,58,2021-02-22_08h21.46.355,premup-three_ses-01_part-01_label-phase1,3.2.4,MacIntel,60,right,0.401000261,4,0,4,0,1,3,1,0,240,66,1,239,,,,,,,,,,,,,,,,,,
,,1,169,,,,,,,3,6,4,stim/64.jpeg,Instruments,1,stim/objects/Instruments/tuba2.png,0.9,3,-0.2,-0.15,left,58,2021-02-22_08h21.46.355,premup-three_ses-01_part-01_label-phase1,3.2.4,MacIntel,60,left,0.40500021,4,0,4,0,1,3,1,0,240,203,1,239,,,,,,,,,,,,,,,,,,
,,0,170,,,,,,,3,5,4,stim/54.jpeg,HouseObjects,2,stim/objects/HouseObjects/sponge2.png,0.9,2,0.2,0.15,right,58,2021-02-22_08h21.46.355,premup-three_ses-01_part-01_label-phase1,3.2.4,MacIntel,60,left,0.264000177,4,0,4,0,1,3,1,0,240,191,1,239,,,,,,,,,,,,,,,,,,
,,0,171,,,,,,,1,1,3,stim/13.jpeg,Instruments,1,stim/objects/Instruments/record.png,0.5,2,0.2,0.15,left,58,2021-02-22_08h21.46.355,premup-three_ses-01_part-01_label-phase1,3.2.4,MacIntel,60,right,0.285000324,4,0,4,0,1,3,1,0,240,6,1,239,,,,,,,,,,,,,,,,,,
,,1,172,,,,,,,2,3,1,stim/31.jpeg,HouseObjects,2,stim/objects/HouseObjects/spraybottle.png,0.7,2,0.2,0.15,right,58,2021-02-22_08h21.46.355,premup-three_ses-01_part-01_label-phase1,3.2.4,MacIntel,60,right,0.955000162,4,0,4,0,1,3,1,0,240,108,1,239,,,,,,,,,,,,,,,,,,
,,1,173,,,,,,,1,2,1,stim/21.jpeg,HouseObjects,2,stim/objects/HouseObjects/safetypin.png,0.5,3,-0.2,-0.15,right,58,2021-02-22_08h21.46.355,premup-three_ses-01_part-01_label-phase1,3.2.4,MacIntel,60,right,0.488000154,4,0,4,0,1,3,1,0,240,76,1,239,,,,,,,,,,,,,,,,,,
,,1,174,,,,,,,1,2,2,stim/22.jpeg,HouseObjects,2,stim/objects/HouseObjects/saw.png,0.5,1,-0.2,0.15,right,58,2021-02-22_08h21.46.355,premup-three_ses-01_part-01_label-phase1,3.2.4,MacIntel,60,right,0.303000212,4,0,4,0,1,3,1,0,240,73,1,239,,,,,,,,,,,,,,,,,,
,,0,175,,,,,,,1,1,2,stim/12.jpeg,HouseObjects,2,stim/objects/HouseObjects/remote.png,0.5,1,-0.2,0.15,right,58,2021-02-22_08h21.46.355,premup-three_ses-01_part-01_label-phase1,3.2.4,MacIntel,60,left,0.623000145,4,0,4,0,1,3,1,0,240,29,1,239,,,,,,,,,,,,,,,,,,
,,1,176,,,,,,,3,5,2,stim/52.jpeg,HouseObjects,2,stim/objects/HouseObjects/saw2.png,0.9,2,0.2,0.15,right,58,2021-02-22_08h21.46.355,premup-three_ses-01_part-01_label-phase1,3.2.4,MacIntel,60,right,0.558000326,4,0,4,0,1,3,1,0,240,185,1,239,,,,,,,,,,,,,,,,,,
,,1,177,,,,,,,1,2,3,stim/23.jpeg,HouseObjects,2,stim/objects/HouseObjects/scale.png,0.5,3,-0.2,-0.15,right,58,2021-02-22_08h21.46.355,premup-three_ses-01_part-01_label-phase1,3.2.4,MacIntel,60,right,0.651000023,4,0,4,0,1,3,1,0,240,62,1,239,,,,,,,,,,,,,,,,,,
,,0,178,,,,,,,2,4,2,stim/42.jpeg,HouseObjects,2,stim/objects/HouseObjects/remote2.png,0.3,3,-0.2,-0.15,right,58,2021-02-22_08h21.46.355,premup-three_ses-01_part-01_label-phase1,3.2.4,MacIntel,60,left,0.893000364,4,0,4,0,1,3,1,0,240,149,1,239,,,,,,,,,,,,,,,,,,
,,1,179,,,,,,,2,3,2,stim/32.jpeg,HouseObjects,2,stim/objects/HouseObjects/teapot.png,0.7,4,0.2,-0.15,right,58,2021-02-22_08h21.46.355,premup-three_ses-01_part-01_label-phase1,3.2.4,MacIntel,60,right,1.018000126,4,0,4,0,1,3,1,0,240,105,1,239,,,,,,,,,,,,,,,,,,
,,0,180,,,,,,,1,2,1,stim/21.jpeg,HouseObjects,2,stim/objects/HouseObjects/safetypin.png,0.5,3,-0.2,-0.15,right,58,2021-02-22_08h21.46.355,premup-three_ses-01_part-01_label-phase1,3.2.4,MacIntel,60,left,0.826000214,4,0,4,0,1,3,1,0,240,68,1,239,,,,,,,,,,,,,,,,,,
,,1,181,,,,,,,3,5,2,stim/52.jpeg,HouseObjects,2,stim/objects/HouseObjects/saw2.png,0.9,2,0.2,0.15,right,58,2021-02-22_08h21.46.355,premup-three_ses-01_part-01_label-phase1,3.2.4,MacIntel,60,right,0.52300024,4,0,4,0,1,3,1,0,240,197,1,239,,,,,,,,,,,,,,,,,,
,,1,182,,,,,,,1,1,2,stim/12.jpeg,Instruments,1,stim/objects/Instruments/pipepiano.png,0.5,3,-0.2,-0.15,left,58,2021-02-22_08h21.46.355,premup-three_ses-01_part-01_label-phase1,3.2.4,MacIntel,60,left,1.43900013,4,0,4,0,1,3,1,0,240,9,1,239,,,,,,,,,,,,,,,,,,
,,0,183,,,,,,,1,2,2,stim/22.jpeg,HouseObjects,2,stim/objects/HouseObjects/saw.png,0.5,3,-0.2,-0.15,right,58,2021-02-22_08h21.46.355,premup-three_ses-01_part-01_label-phase1,3.2.4,MacIntel,60,left,1.301000118,4,0,4,0,1,3,1,0,240,77,1,239,,,,,,,,,,,,,,,,,,
,,0,184,,,,,,,2,4,1,stim/41.jpeg,Instruments,1,stim/objects/Instruments/panflute2.png,0.7,1,-0.2,0.15,left,58,2021-02-22_08h21.46.355,premup-three_ses-01_part-01_label-phase1,3.2.4,MacIntel,60,right,0.355000257,4,0,4,0,1,3,1,0,240,124,1,239,,,,,,,,,,,,,,,,,,
,,1,185,,,,,,,3,5,1,stim/51.jpeg,HouseObjects,2,stim/objects/HouseObjects/safetypin2.png,0.9,2,0.2,0.15,right,58,2021-02-22_08h21.46.355,premup-three_ses-01_part-01_label-phase1,3.2.4,MacIntel,60,right,0.818000317,4,0,4,0,1,3,1,0,240,164,1,239,,,,,,,,,,,,,,,,,,
,,1,186,,,,,,,2,3,4,stim/34.jpeg,HouseObjects,2,stim/objects/HouseObjects/thread.png,0.7,2,0.2,0.15,right,58,2021-02-22_08h21.46.355,premup-three_ses-01_part-01_label-phase1,3.2.4,MacIntel,60,right,1.107000113,4,0,4,0,1,3,1,0,240,107,1,239,,,,,,,,,,,,,,,,,,
,,0,187,,,,,,,3,6,1,stim/61.jpeg,Instruments,1,stim/objects/Instruments/triangle2.png,0.9,2,0.2,0.15,left,58,2021-02-22_08h21.46.355,premup-three_ses-01_part-01_label-phase1,3.2.4,MacIntel,60,right,1.271000147,4,0,4,0,1,3,1,0,240,232,1,239,,,,,,,,,,,,,,,,,,
,,1,188,,,,,,,2,4,1,stim/41.jpeg,Instruments,1,stim/objects/Instruments/panflute2.png,0.7,2,0.2,0.15,left,58,2021-02-22_08h21.46.355,premup-three_ses-01_part-01_label-phase1,3.2.4,MacIntel,60,left,1.440999985,4,0,4,0,1,3,1,0,240,128,1,239,,,,,,,,,,,,,,,,,,
,,1,189,,,,,,,1,1,4,stim/14.jpeg,Instruments,1,stim/objects/Instruments/record_player.png,0.5,3,-0.2,-0.15,left,58,2021-02-22_08h21.46.355,premup-three_ses-01_part-01_label-phase1,3.2.4,MacIntel,60,left,0.7900002,4,0,4,0,1,3,1,0,240,15,1,239,,,,,,,,,,,,,,,,,,
,,1,190,,,,,,,1,1,3,stim/13.jpeg,Instruments,1,stim/objects/Instruments/record.png,0.5,1,-0.2,0.15,left,58,2021-02-22_08h21.46.355,premup-three_ses-01_part-01_label-phase1,3.2.4,MacIntel,60,left,1.17200017,4,0,4,0,1,3,1,0,240,14,1,239,,,,,,,,,,,,,,,,,,
,,1,191,,,,,,,2,3,3,stim/33.jpeg,HouseObjects,2,stim/objects/HouseObjects/thermometer.png,0.7,4,0.2,-0.15,right,58,2021-02-22_08h21.46.355,premup-three_ses-01_part-01_label-phase1,3.2.4,MacIntel,60,right,1.052000046,4,0,4,0,1,3,1,0,240,114,1,239,,,,,,,,,,,,,,,,,,
,,1,192,,,,,,,3,5,2,stim/52.jpeg,HouseObjects,2,stim/objects/HouseObjects/saw2.png,0.9,3,-0.2,-0.15,right,58,2021-02-22_08h21.46.355,premup-three_ses-01_part-01_label-phase1,3.2.4,MacIntel,60,right,0.853000164,4,0,4,0,1,3,1,0,240,193,1,239,,,,,,,,,,,,,,,,,,
,,1,193,,,,,,,1,2,3,stim/23.jpeg,HouseObjects,2,stim/objects/HouseObjects/scale.png,0.5,4,0.2,-0.15,right,58,2021-02-22_08h21.46.355,premup-three_ses-01_part-01_label-phase1,3.2.4,MacIntel,60,right,0.390000343,4,0,4,0,1,3,1,0,240,70,1,239,,,,,,,,,,,,,,,,,,
,,0,194,,,,,,,3,6,2,stim/62.jpeg,Instruments,1,stim/objects/Instruments/trombone2.png,0.9,1,-0.2,0.15,left,58,2021-02-22_08h21.46.355,premup-three_ses-01_part-01_label-phase1,3.2.4,MacIntel,60,right,0.26300025,4,0,4,0,1,3,1,0,240,221,1,239,,,,,,,,,,,,,,,,,,
,,0,195,,,,,,,3,5,2,stim/52.jpeg,HouseObjects,2,stim/objects/HouseObjects/saw2.png,0.9,4,0.2,-0.15,right,58,2021-02-22_08h21.46.355,premup-three_ses-01_part-01_label-phase1,3.2.4,MacIntel,60,left,0.618000031,4,0,4,0,1,3,1,0,240,169,1,239,,,,,,,,,,,,,,,,,,
,,0,196,,,,,,,1,2,4,stim/24.jpeg,HouseObjects,2,stim/objects/HouseObjects/sponge.png,0.5,1,-0.2,0.15,right,58,2021-02-22_08h21.46.355,premup-three_ses-01_part-01_label-phase1,3.2.4,MacIntel,60,left,1.568000078,4,0,4,0,1,3,1,0,240,75,1,239,,,,,,,,,,,,,,,,,,
,,1,197,,,,,,,3,6,1,stim/61.jpeg,Instruments,1,stim/objects/Instruments/triangle2.png,0.9,2,0.2,0.15,left,58,2021-02-22_08h21.46.355,premup-three_ses-01_part-01_label-phase1,3.2.4,MacIntel,60,left,0.777000189,4,0,4,0,1,3,1,0,240,208,1,239,,,,,,,,,,,,,,,,,,
,,0,198,,,,,,,1,2,1,stim/21.jpeg,Instruments,1,stim/objects/Instruments/saxophone.png,0.5,3,-0.2,-0.15,left,58,2021-02-22_08h21.46.355,premup-three_ses-01_part-01_label-phase1,3.2.4,MacIntel,60,right,0.804000139,4,0,4,0,1,3,1,0,240,44,1,239,,,,,,,,,,,,,,,,,,
,,0,199,,,,,,,2,4,2,stim/42.jpeg,Instruments,1,stim/objects/Instruments/pipepiano2.png,0.7,4,0.2,-0.15,left,58,2021-02-22_08h21.46.355,premup-three_ses-01_part-01_label-phase1,3.2.4,MacIntel,60,right,1.120000362,4,0,4,0,1,3,1,0,240,125,1,239,,,,,,,,,,,,,,,,,,
,,1,200,,,,,,,2,4,3,stim/43.jpeg,Instruments,1,stim/objects/Instruments/record2.png,0.7,1,-0.2,0.15,left,58,2021-02-22_08h21.46.355,premup-three_ses-01_part-01_label-phase1,3.2.4,MacIntel,60,left,1.355000257,4,0,4,0,1,3,1,0,240,134,1,239,,,,,,,,,,,,,,,,,,
,,0,201,,,,,,,2,3,3,stim/33.jpeg,Instruments,1,stim/objects/Instruments/trumpet.png,0.3,4,0.2,-0.15,left,58,2021-02-22_08h21.46.355,premup-three_ses-01_part-01_label-phase1,3.2.4,MacIntel,60,right,1.210999966,4,0,4,0,1,3,1,0,240,90,1,239,,,,,,,,,,,,,,,,,,
,,1,202,,,,,,,2,4,1,stim/41.jpeg,Instruments,1,stim/objects/Instruments/panflute2.png,0.7,1,-0.2,0.15,left,58,2021-02-22_08h21.46.355,premup-three_ses-01_part-01_label-phase1,3.2.4,MacIntel,60,left,1.485000134,4,0,4,0,1,3,1,0,240,144,1,239,,,,,,,,,,,,,,,,,,
,,0,203,,,,,,,3,5,3,stim/53.jpeg,Instruments,1,stim/objects/Instruments/tambourine2.png,0.1,4,0.2,-0.15,left,58,2021-02-22_08h21.46.355,premup-three_ses-01_part-01_label-phase1,3.2.4,MacIntel,60,right,1.09800005,4,0,4,0,1,3,1,0,240,162,1,239,,,,,,,,,,,,,,,,,,
,,1,204,,,,,,,3,6,2,stim/62.jpeg,Instruments,1,stim/objects/Instruments/trombone2.png,0.9,1,-0.2,0.15,left,58,2021-02-22_08h21.46.355,premup-three_ses-01_part-01_label-phase1,3.2.4,MacIntel,60,left,1.092000246,4,0,4,0,1,3,1,0,240,213,1,239,,,,,,,,,,,,,,,,,,
,,0,205,,,,,,,1,2,4,stim/24.jpeg,Instruments,1,stim/objects/Instruments/timbal.png,0.5,4,0.2,-0.15,left,58,2021-02-22_08h21.46.355,premup-three_ses-01_part-01_label-phase1,3.2.4,MacIntel,60,right,1.398000002,4,0,4,0,1,3,1,0,240,51,1,239,,,,,,,,,,,,,,,,,,
,,0,206,,,,,,,2,3,2,stim/32.jpeg,HouseObjects,2,stim/objects/HouseObjects/teapot.png,0.7,4,0.2,-0.15,right,58,2021-02-22_08h21.46.355,premup-three_ses-01_part-01_label-phase1,3.2.4,MacIntel,60,left,1.5400002,4,0,4,0,1,3,1,0,240,97,1,239,,,,,,,,,,,,,,,,,,
,,1,207,,,,,,,3,5,2,stim/52.jpeg,HouseObjects,2,stim/objects/HouseObjects/saw2.png,0.9,3,-0.2,-0.15,right,58,2021-02-22_08h21.46.355,premup-three_ses-01_part-01_label-phase1,3.2.4,MacIntel,60,right,1.868000269,4,0,4,0,1,3,1,0,240,173,1,239,,,,,,,,,,,,,,,,,,
,,1,208,,,,,,,3,6,1,stim/61.jpeg,Instruments,1,stim/objects/Instruments/triangle2.png,0.9,3,-0.2,-0.15,left,58,2021-02-22_08h21.46.355,premup-three_ses-01_part-01_label-phase1,3.2.4,MacIntel,60,left,0.685000181,4,0,4,0,1,3,1,0,240,212,1,239,,,,,,,,,,,,,,,,,,
,,1,209,,,,,,,3,6,3,stim/63.jpeg,Instruments,1,stim/objects/Instruments/trumpet2.png,0.9,2,0.2,0.15,left,58,2021-02-22_08h21.46.355,premup-three_ses-01_part-01_label-phase1,3.2.4,MacIntel,60,left,0.874000072,4,0,4,0,1,3,1,0,240,214,1,239,,,,,,,,,,,,,,,,,,
,,0,210,,,,,,,2,3,2,stim/32.jpeg,Instruments,1,stim/objects/Instruments/trombone.png,0.3,3,-0.2,-0.15,left,58,2021-02-22_08h21.46.355,premup-three_ses-01_part-01_label-phase1,3.2.4,MacIntel,60,right,0.93900013,4,0,4,0,1,3,1,0,240,89,1,239,,,,,,,,,,,,,,,,,,
,,1,211,,,,,,,3,6,1,stim/61.jpeg,Instruments,1,stim/objects/Instruments/triangle2.png,0.9,3,-0.2,-0.15,left,58,2021-02-22_08h21.46.355,premup-three_ses-01_part-01_label-phase1,3.2.4,MacIntel,60,left,0.728000164,4,0,4,0,1,3,1,0,240,200,1,239,,,,,,,,,,,,,,,,,,
,,1,212,,,,,,,3,6,3,stim/63.jpeg,Instruments,1,stim/objects/Instruments/trumpet2.png,0.9,1,-0.2,0.15,left,58,2021-02-22_08h21.46.355,premup-three_ses-01_part-01_label-phase1,3.2.4,MacIntel,60,left,0.693000078,4,0,4,0,1,3,1,0,240,222,1,239,,,,,,,,,,,,,,,,,,
,,1,213,,,,,,,3,5,4,stim/54.jpeg,HouseObjects,2,stim/objects/HouseObjects/sponge2.png,0.9,2,0.2,0.15,right,58,2021-02-22_08h21.46.355,premup-three_ses-01_part-01_label-phase1,3.2.4,MacIntel,60,right,0.796000242,4,0,4,0,1,3,1,0,240,195,1,239,,,,,,,,,,,,,,,,,,
,,0,214,,,,,,,2,3,2,stim/32.jpeg,HouseObjects,2,stim/objects/HouseObjects/teapot.png,0.7,1,-0.2,0.15,right,58,2021-02-22_08h21.46.355,premup-three_ses-01_part-01_label-phase1,3.2.4,MacIntel,60,left,0.718000174,4,0,4,0,1,3,1,0,240,109,1,239,,,,,,,,,,,,,,,,,,
,,0,215,,,,,,,1,2,3,stim/23.jpeg,Instruments,1,stim/objects/Instruments/tambourine.png,0.5,4,0.2,-0.15,left,58,2021-02-22_08h21.46.355,premup-three_ses-01_part-01_label-phase1,3.2.4,MacIntel,60,right,0.772000074,4,0,4,0,1,3,1,0,240,46,1,239,,,,,,,,,,,,,,,,,,
,,0,216,,,,,,,3,5,3,stim/53.jpeg,HouseObjects,2,stim/objects/HouseObjects/scale2.png,0.9,2,0.2,0.15,right,58,2021-02-22_08h21.46.355,premup-three_ses-01_part-01_label-phase1,3.2.4,MacIntel,60,left,1.139000177,4,0,4,0,1,3,1,0,240,190,1,239,,,,,,,,,,,,,,,,,,
,,1,217,,,,,,,3,6,4,stim/64.jpeg,Instruments,1,stim/objects/Instruments/tuba2.png,0.9,2,0.2,0.15,left,58,2021-02-22_08h21.46.355,premup-three_ses-01_part-01_label-phase1,3.2.4,MacIntel,60,left,0.86400032,4,0,4,0,1,3,1,0,240,223,1,239,,,,,,,,,,,,,,,,,,
,,1,218,,,,,,,3,6,2,stim/62.jpeg,Instruments,1,stim/objects/Instruments/trombone2.png,0.9,1,-0.2,0.15,left,58,2021-02-22_08h21.46.355,premup-three_ses-01_part-01_label-phase1,3.2.4,MacIntel,60,left,0.630000114,4,0,4,0,1,3,1,0,240,201,1,239,,,,,,,,,,,,,,,,,,
,,0,219,,,,,,,2,3,3,stim/33.jpeg,Instruments,1,stim/objects/Instruments/trumpet.png,0.3,1,-0.2,0.15,left,58,2021-02-22_08h21.46.355,premup-three_ses-01_part-01_label-phase1,3.2.4,MacIntel,60,right,0.768000126,4,0,4,0,1,3,1,0,240,86,1,239,,,,,,,,,,,,,,,,,,
,,0,220,,,,,,,2,4,1,stim/41.jpeg,HouseObjects,2,stim/objects/HouseObjects/recyclingbin2.png,0.3,3,-0.2,-0.15,right,58,2021-02-22_08h21.46.355,premup-three_ses-01_part-01_label-phase1,3.2.4,MacIntel,60,left,1.140000105,4,0,4,0,1,3,1,0,240,152,1,239,,,,,,,,,,,,,,,,,,
,,1,221,,,,,,,2,4,3,stim/43.jpeg,Instruments,1,stim/objects/Instruments/record2.png,0.7,2,0.2,0.15,left,58,2021-02-22_08h21.46.355,premup-three_ses-01_part-01_label-phase1,3.2.4,MacIntel,60,left,1.317000151,4,0,4,0,1,3,1,0,240,138,1,239,,,,,,,,,,,,,,,,,,
,,0,222,,,,,,,2,4,3,stim/43.jpeg,Instruments,1,stim/objects/Instruments/record2.png,0.7,3,-0.2,-0.15,left,58,2021-02-22_08h21.46.355,premup-three_ses-01_part-01_label-phase1,3.2.4,MacIntel,60,right,0.848000288,4,0,4,0,1,3,1,0,240,122,1,239,,,,,,,,,,,,,,,,,,
,,1,223,,,,,,,1,1,3,stim/13.jpeg,HouseObjects,2,stim/objects/HouseObjects/rubbergloves.png,0.5,3,-0.2,-0.15,right,58,2021-02-22_08h21.46.355,premup-three_ses-01_part-01_label-phase1,3.2.4,MacIntel,60,right,1.809000254,4,0,4,0,1,3,1,0,240,30,1,239,,,,,,,,,,,,,,,,,,
,,1,224,,,,,,,2,3,4,stim/34.jpeg,HouseObjects,2,stim/objects/HouseObjects/thread.png,0.7,3,-0.2,-0.15,right,58,2021-02-22_08h21.46.355,premup-three_ses-01_part-01_label-phase1,3.2.4,MacIntel,60,right,1.07400012,4,0,4,0,1,3,1,0,240,119,1,239,,,,,,,,,,,,,,,,,,
,,0,225,,,,,,,1,2,3,stim/23.jpeg,HouseObjects,2,stim/objects/HouseObjects/scale.png,0.5,2,0.2,0.15,right,58,2021-02-22_08h21.46.355,premup-three_ses-01_part-01_label-phase1,3.2.4,MacIntel,60,left,1.715000153,4,0,4,0,1,3,1,0,240,74,1,239,,,,,,,,,,,,,,,,,,
,,0,226,,,,,,,1,1,2,stim/12.jpeg,Instruments,1,stim/objects/Instruments/pipepiano.png,0.5,1,-0.2,0.15,left,58,2021-02-22_08h21.46.355,premup-three_ses-01_part-01_label-phase1,3.2.4,MacIntel,60,right,0.971000195,4,0,4,0,1,3,1,0,240,13,1,239,,,,,,,,,,,,,,,,,,
,,1,227,,,,,,,3,5,4,stim/54.jpeg,HouseObjects,2,stim/objects/HouseObjects/sponge2.png,0.9,4,0.2,-0.15,right,58,2021-02-22_08h21.46.355,premup-three_ses-01_part-01_label-phase1,3.2.4,MacIntel,60,right,0.904999971,4,0,4,0,1,3,1,0,240,199,1,239,,,,,,,,,,,,,,,,,,
,,0,228,,,,,,,2,4,4,stim/44.jpeg,HouseObjects,2,stim/objects/HouseObjects/rug2.png,0.3,2,0.2,0.15,right,58,2021-02-22_08h21.46.355,premup-three_ses-01_part-01_label-phase1,3.2.4,MacIntel,60,left,0.857000113,4,0,4,0,1,3,1,0,240,155,1,239,,,,,,,,,,,,,,,,,,
,,0,229,,,,,,,3,5,4,stim/54.jpeg,Instruments,1,stim/objects/Instruments/timbal2.png,0.1,1,-0.2,0.15,left,58,2021-02-22_08h21.46.355,premup-three_ses-01_part-01_label-phase1,3.2.4,MacIntel,60,right,0.769000053,4,0,4,0,1,3,1,0,240,163,1,239,,,,,,,,,,,,,,,,,,
,,1,230,,,,,,,3,5,2,stim/52.jpeg,Instruments,1,stim/objects/Instruments/speaker2.png,0.1,3,-0.2,-0.15,left,58,2021-02-22_08h21.46.355,premup-three_ses-01_part-01_label-phase1,3.2.4,MacIntel,60,left,0.895000219,4,0,4,0,1,3,1,0,240,161,1,239,,,,,,,,,,,,,,,,,,
,,1,231,,,,,,,1,1,4,stim/14.jpeg,HouseObjects,2,stim/objects/HouseObjects/rug.png,0.5,2,0.2,0.15,right,58,2021-02-22_08h21.46.355,premup-three_ses-01_part-01_label-phase1,3.2.4,MacIntel,60,right,0.594000101,4,0,4,0,1,3,1,0,240,23,1,239,,,,,,,,,,,,,,,,,,
,,1,232,,,,,,,3,6,4,stim/64.jpeg,Instruments,1,stim/objects/Instruments/tuba2.png,0.9,4,0.2,-0.15,left,58,2021-02-22_08h21.46.355,premup-three_ses-01_part-01_label-phase1,3.2.4,MacIntel,60,left,0.666000128,4,0,4,0,1,3,1,0,240,207,1,239,,,,,,,,,,,,,,,,,,
,,0,233,,,,,,,1,1,1,stim/11.jpeg,Instruments,1,stim/objects/Instruments/panflute.png,0.5,1,-0.2,0.15,left,58,2021-02-22_08h21.46.355,premup-three_ses-01_part-01_label-phase1,3.2.4,MacIntel,60,right,0.792000055,4,0,4,0,1,3,1,0,240,12,1,239,,,,,,,,,,,,,,,,,,
,,0,234,,,,,,,3,5,1,stim/51.jpeg,HouseObjects,2,stim/objects/HouseObjects/safetypin2.png,0.9,3,-0.2,-0.15,right,58,2021-02-22_08h21.46.355,premup-three_ses-01_part-01_label-phase1,3.2.4,MacIntel,60,left,0.736000299,4,0,4,0,1,3,1,0,240,172,1,239,,,,,,,,,,,,,,,,,,
,,1,235,,,,,,,1,2,3,stim/23.jpeg,HouseObjects,2,stim/objects/HouseObjects/scale.png,0.5,1,-0.2,0.15,right,58,2021-02-22_08h21.46.355,premup-three_ses-01_part-01_label-phase1,3.2.4,MacIntel,60,right,1.394000053,4,0,4,0,1,3,1,0,240,78,1,239,,,,,,,,,,,,,,,,,,
,,1,236,,,,,,,3,6,3,stim/63.jpeg,Instruments,1,stim/objects/Instruments/trumpet2.png,0.9,3,-0.2,-0.15,left,58,2021-02-22_08h21.46.355,premup-three_ses-01_part-01_label-phase1,3.2.4,MacIntel,60,left,0.626000166,4,0,4,0,1,3,1,0,240,210,1,239,,,,,,,,,,,,,,,,,,
,,1,237,,,,,,,3,6,1,stim/61.jpeg,Instruments,1,stim/objects/Instruments/triangle2.png,0.9,3,-0.2,-0.15,left,58,2021-02-22_08h21.46.355,premup-three_ses-01_part-01_label-phase1,3.2.4,MacIntel,60,left,0.735000134,4,0,4,0,1,3,1,0,240,204,1,239,,,,,,,,,,,,,,,,,,
,,1,238,,,,,,,3,6,4,stim/64.jpeg,Instruments,1,stim/objects/Instruments/tuba2.png,0.9,2,0.2,0.15,left,58,2021-02-22_08h21.46.355,premup-three_ses-01_part-01_label-phase1,3.2.4,MacIntel,60,left,0.695000172,4,0,4,0,1,3,1,0,240,219,1,239,,,,,,,,,,,,,,,,,,
,,1,239,,,,,,,2,4,2,stim/42.jpeg,Instruments,1,stim/objects/Instruments/pipepiano2.png,0.7,1,-0.2,0.15,left,58,2021-02-22_08h21.46.355,premup-three_ses-01_part-01_label-phase1,3.2.4,MacIntel,60,left,0.704000235,4,0,4,0,1,3,1,0,240,129,1,239,,,,,,,,,,,,,,,,,,
,,1,240,,,,,,,2,4,2,stim/42.jpeg,HouseObjects,2,stim/objects/HouseObjects/remote2.png,0.3,2,0.2,0.15,right,58,2021-02-22_08h21.46.355,premup-three_ses-01_part-01_label-phase1,3.2.4,MacIntel,60,right,1.082000017,4,0,4,0,1,3,1,0,240,153,1,239,,,,,,,,,,,,,,,,,,
,,,,,,,,,,,2,,stim/21.jpeg,,,,,,,,,58,2021-02-22_08h21.46.355,premup-three_ses-01_part-01_label-phase1,3.2.4,MacIntel,60,,,4,0,4,0,1,3,,,,,,,1,0,20,20.50399995,,,1,0,6,1,1,5,Household items,45,55,Music items,45,55
,,,,,,,,,,,1,,stim/11.jpeg,,,,,,,,,58,2021-02-22_08h21.46.355,premup-three_ses-01_part-01_label-phase1,3.2.4,MacIntel,60,,,4,0,4,0,1,3,,,,,,,1,0,70,10.76100016,,,1,0,6,0,1,5,Music items,45,55,Household items,45,55
,,,,,,,,,,,3,,stim/31.jpeg,,,,,,,,,58,2021-02-22_08h21.46.355,premup-three_ses-01_part-01_label-phase1,3.2.4,MacIntel,60,,,4,0,4,0,1,3,,,,,,,1,0,10,8.107000113,,,1,0,6,2,1,5,Music items,65,75,Household items,25,35
,,,,,,,,,,,5,,stim/51.jpeg,,,,,,,,,58,2021-02-22_08h21.46.355,premup-three_ses-01_part-01_label-phase1,3.2.4,MacIntel,60,,,4,0,4,0,1,3,,,,,,,1,0,90,4.64199996,,,1,0,6,4,1,5,Household items,5,15,Music items,85,95
,,,,,,,,,,,4,,stim/41.jpeg,,,,,,,,,58,2021-02-22_08h21.46.355,premup-three_ses-01_part-01_label-phase1,3.2.4,MacIntel,60,,,4,0,4,0,1,3,,,,,,,1,0,90,5.016000032,,,1,0,6,3,1,5,Music items,65,75,Household items,25,35
,,,,,,,,,,,6,,stim/61.jpeg,,,,,,,,,58,2021-02-22_08h21.46.355,premup-three_ses-01_part-01_label-phase1,3.2.4,MacIntel,60,,,4,0,4,0,1,3,,,,,,,1,0,89,7.529999971,,,1,0,6,5,1,5,Music items,5,15,Household items,85,95
,,,,,,,,,,,,,,,,,,,,,,58,2021-02-22_08h21.46.355,premup-three_ses-01_part-01_label-phase1,3.2.4,MacIntel,60,,,4,0,4,0,1,3,,,,,,,,,,,,,,,,,,,,,,,,
,,0,1,,,,,,,2,4,4,stim/44.jpeg,HouseObjects,2,stim/objects/HouseObjects/rug2.png,0.3,2,0.2,0.15,right,58,2021-02-22_08h21.46.355,premup-three_ses-01_part-01_label-phase1,3.2.4,MacIntel,60,,,4,0,4,0,1,3,1,0,240,155,1,239,,,,,,,,,,,,,,,,,,
,,1,2,,,,,,,2,4,1,stim/41.jpeg,HouseObjects,2,stim/objects/HouseObjects/recyclingbin2.png,0.3,4,0.2,-0.15,right,58,2021-02-22_08h21.46.355,premup-three_ses-01_part-01_label-phase1,3.2.4,MacIntel,60,right,0.957000017,4,0,4,0,1,3,1,0,240,156,1,239,,,,,,,,,,,,,,,,,,
,,0,3,,,,,,,1,1,3,stim/13.jpeg,HouseObjects,2,stim/objects/HouseObjects/rubbergloves.png,0.5,3,-0.2,-0.15,right,58,2021-02-22_08h21.46.355,premup-three_ses-01_part-01_label-phase1,3.2.4,MacIntel,60,left,1.036000252,4,0,4,0,1,3,1,0,240,34,1,239,,,,,,,,,,,,,,,,,,
,,0,4,,,,,,,3,5,3,stim/53.jpeg,HouseObjects,2,stim/objects/HouseObjects/scale2.png,0.9,1,-0.2,0.15,right,58,2021-02-22_08h21.46.355,premup-three_ses-01_part-01_label-phase1,3.2.4,MacIntel,60,left,0.444000244,4,0,4,0,1,3,1,0,240,178,1,239,,,,,,,,,,,,,,,,,,
,,0,5,,,,,,,3,6,1,stim/61.jpeg,HouseObjects,2,stim/objects/HouseObjects/spraybottle2.png,0.1,2,0.2,0.15,right,58,2021-02-22_08h21.46.355,premup-three_ses-01_part-01_label-phase1,3.2.4,MacIntel,60,left,0.591000319,4,0,4,0,1,3,1,0,240,236,1,239,,,,,,,,,,,,,,,,,,
,,0,6,,,,,,,2,4,1,stim/41.jpeg,Instruments,1,stim/objects/Instruments/panflute2.png,0.7,3,-0.2,-0.15,left,58,2021-02-22_08h21.46.355,premup-three_ses-01_part-01_label-phase1,3.2.4,MacIntel,60,right,1.006000042,4,0,4,0,1,3,1,0,240,136,1,239,,,,,,,,,,,,,,,,,,
,,0,7,,,,,,,3,5,1,stim/51.jpeg,HouseObjects,2,stim/objects/HouseObjects/safetypin2.png,0.9,4,0.2,-0.15,right,58,2021-02-22_08h21.46.355,premup-three_ses-01_part-01_label-phase1,3.2.4,MacIntel,60,left,0.942000151,4,0,4,0,1,3,1,0,240,180,1,239,,,,,,,,,,,,,,,,,,
,,0,8,,,,,,,2,4,3,stim/43.jpeg,Instruments,1,stim/objects/Instruments/record2.png,0.7,4,0.2,-0.15,left,58,2021-02-22_08h21.46.355,premup-three_ses-01_part-01_label-phase1,3.2.4,MacIntel,60,right,1.016000032,4,0,4,0,1,3,1,0,240,130,1,239,,,,,,,,,,,,,,,,,,
,,1,9,,,,,,,3,6,3,stim/63.jpeg,Instruments,1,stim/objects/Instruments/trumpet2.png,0.9,1,-0.2,0.15,left,58,2021-02-22_08h21.46.355,premup-three_ses-01_part-01_label-phase1,3.2.4,MacIntel,60,left,0.614000082,4,0,4,0,1,3,1,0,240,222,1,239,,,,,,,,,,,,,,,,,,
,,0,10,,,,,,,2,3,3,stim/33.jpeg,HouseObjects,2,stim/objects/HouseObjects/thermometer.png,0.7,1,-0.2,0.15,right,58,2021-02-22_08h21.46.355,premup-three_ses-01_part-01_label-phase1,3.2.4,MacIntel,60,left,0.676000118,4,0,4,0,1,3,1,0,240,106,1,239,,,,,,,,,,,,,,,,,,
,,1,11,,,,,,,3,6,2,stim/62.jpeg,Instruments,1,stim/objects/Instruments/trombone2.png,0.9,1,-0.2,0.15,left,58,2021-02-22_08h21.46.355,premup-three_ses-01_part-01_label-phase1,3.2.4,MacIntel,60,left,0.879000187,4,0,4,0,1,3,1,0,240,201,1,239,,,,,,,,,,,,,,,,,,
,,1,12,,,,,,,3,6,2,stim/62.jpeg,Instruments,1,stim/objects/Instruments/trombone2.png,0.9,1,-0.2,0.15,left,58,2021-02-22_08h21.46.355,premup-three_ses-01_part-01_label-phase1,3.2.4,MacIntel,60,left,0.440000057,4,0,4,0,1,3,1,0,240,217,1,239,,,,,,,,,,,,,,,,,,
,,1,13,,,,,,,2,3,1,stim/31.jpeg,HouseObjects,2,stim/objects/HouseObjects/spraybottle.png,0.7,3,-0.2,-0.15,right,58,2021-02-22_08h21.46.355,premup-three_ses-01_part-01_label-phase1,3.2.4,MacIntel,60,right,1.085999966,4,0,4,0,1,3,1,0,240,116,1,239,,,,,,,,,,,,,,,,,,
,,1,14,,,,,,,3,5,1,stim/51.jpeg,HouseObjects,2,stim/objects/HouseObjects/safetypin2.png,0.9,3,-0.2,-0.15,right,58,2021-02-22_08h21.46.355,premup-three_ses-01_part-01_label-phase1,3.2.4,MacIntel,60,right,0.713999987,4,0,4,0,1,3,1,0,240,172,1,239,,,,,,,,,,,,,,,,,,
,,1,15,,,,,,,3,6,3,stim/63.jpeg,Instruments,1,stim/objects/Instruments/trumpet2.png,0.9,2,0.2,0.15,left,58,2021-02-22_08h21.46.355,premup-three_ses-01_part-01_label-phase1,3.2.4,MacIntel,60,left,0.593000174,4,0,4,0,1,3,1,0,240,214,1,239,,,,,,,,,,,,,,,,,,
,,0,16,,,,,,,2,4,4,stim/44.jpeg,Instruments,1,stim/objects/Instruments/record_player2.png,0.7,3,-0.2,-0.15,left,58,2021-02-22_08h21.46.355,premup-three_ses-01_part-01_label-phase1,3.2.4,MacIntel,60,right,1.003000259,4,0,4,0,1,3,1,0,240,123,1,239,,,,,,,,,,,,,,,,,,
,,1,17,,,,,,,3,6,4,stim/64.jpeg,Instruments,1,stim/objects/Instruments/tuba2.png,0.9,2,0.2,0.15,left,58,2021-02-22_08h21.46.355,premup-three_ses-01_part-01_label-phase1,3.2.4,MacIntel,60,left,0.671000004,4,0,4,0,1,3,1,0,240,219,1,239,,,,,,,,,,,,,,,,,,
,,1,18,,,,,,,1,2,2,stim/22.jpeg,HouseObjects,2,stim/objects/HouseObjects/saw.png,0.5,2,0.2,0.15,right,58,2021-02-22_08h21.46.355,premup-three_ses-01_part-01_label-phase1,3.2.4,MacIntel,60,right,0.827000141,4,0,4,0,1,3,1,0,240,65,1,239,,,,,,,,,,,,,,,,,,
,,0,19,,,,,,,2,4,2,stim/42.jpeg,HouseObjects,2,stim/objects/HouseObjects/remote2.png,0.3,2,0.2,0.15,right,58,2021-02-22_08h21.46.355,premup-three_ses-01_part-01_label-phase1,3.2.4,MacIntel,60,left,1.306000233,4,0,4,0,1,3,1,0,240,157,1,239,,,,,,,,,,,,,,,,,,
,,0,20,,,,,,,3,5,4,stim/54.jpeg,HouseObjects,2,stim/objects/HouseObjects/sponge2.png,0.9,3,-0.2,-0.15,right,58,2021-02-22_08h21.46.355,premup-three_ses-01_part-01_label-phase1,3.2.4,MacIntel,60,left,0.85400033,4,0,4,0,1,3,1,0,240,179,1,239,,,,,,,,,,,,,,,,,,
,,0,21,,,,,,,1,2,1,stim/21.jpeg,Instruments,1,stim/objects/Instruments/saxophone.png,0.5,3,-0.2,-0.15,left,58,2021-02-22_08h21.46.355,premup-three_ses-01_part-01_label-phase1,3.2.4,MacIntel,60,right,1.035000086,4,0,4,0,1,3,1,0,240,48,1,239,,,,,,,,,,,,,,,,,,
,,0,22,,,,,,,1,1,4,stim/14.jpeg,Instruments,1,stim/objects/Instruments/record_player.png,0.5,4,0.2,-0.15,left,58,2021-02-22_08h21.46.355,premup-three_ses-01_part-01_label-phase1,3.2.4,MacIntel,60,right,0.936000109,4,0,4,0,1,3,1,0,240,7,1,239,,,,,,,,,,,,,,,,,,
,,1,23,,,,,,,2,3,2,stim/32.jpeg,HouseObjects,2,stim/objects/HouseObjects/teapot.png,0.7,4,0.2,-0.15,right,58,2021-02-22_08h21.46.355,premup-three_ses-01_part-01_label-phase1,3.2.4,MacIntel,60,right,1.069000244,4,0,4,0,1,3,1,0,240,105,1,239,,,,,,,,,,,,,,,,,,
,,1,24,,,,,,,1,2,1,stim/21.jpeg,HouseObjects,2,stim/objects/HouseObjects/safetypin.png,0.5,4,0.2,-0.15,right,58,2021-02-22_08h21.46.355,premup-three_ses-01_part-01_label-phase1,3.2.4,MacIntel,60,right,1.934000254,4,0,4,0,1,3,1,0,240,72,1,239,,,,,,,,,,,,,,,,,,
,,1,25,,,,,,,3,6,4,stim/64.jpeg,Instruments,1,stim/objects/Instruments/tuba2.png,0.9,3,-0.2,-0.15,left,58,2021-02-22_08h21.46.355,premup-three_ses-01_part-01_label-phase1,3.2.4,MacIntel,60,left,1.193000317,4,0,4,0,1,3,1,0,240,215,1,239,,,,,,,,,,,,,,,,,,
,,1,26,,,,,,,3,5,1,stim/51.jpeg,HouseObjects,2,stim/objects/HouseObjects/safetypin2.png,0.9,4,0.2,-0.15,right,58,2021-02-22_08h21.46.355,premup-three_ses-01_part-01_label-phase1,3.2.4,MacIntel,60,right,1.04700017,4,0,4,0,1,3,1,0,240,188,1,239,,,,,,,,,,,,,,,,,,
,,1,27,,,,,,,3,5,4,stim/54.jpeg,HouseObjects,2,stim/objects/HouseObjects/sponge2.png,0.9,2,0.2,0.15,right,58,2021-02-22_08h21.46.355,premup-three_ses-01_part-01_label-phase1,3.2.4,MacIntel,60,right,1.382000208,4,0,4,0,1,3,1,0,240,191,1,239,,,,,,,,,,,,,,,,,,
,,1,28,,,,,,,3,6,3,stim/63.jpeg,Instruments,1,stim/objects/Instruments/trumpet2.png,0.9,4,0.2,-0.15,left,58,2021-02-22_08h21.46.355,premup-three_ses-01_part-01_label-phase1,3.2.4,MacIntel,60,left,0.629000187,4,0,4,0,1,3,1,0,240,234,1,239,,,,,,,,,,,,,,,,,,
,,0,29,,,,,,,1,1,1,stim/11.jpeg,Instruments,1,stim/objects/Instruments/panflute.png,0.5,4,0.2,-0.15,left,58,2021-02-22_08h21.46.355,premup-three_ses-01_part-01_label-phase1,3.2.4,MacIntel,60,right,0.635000229,4,0,4,0,1,3,1,0,240,0,1,239,,,,,,,,,,,,,,,,,,
,,0,30,,,,,,,2,3,2,stim/32.jpeg,HouseObjects,2,stim/objects/HouseObjects/teapot.png,0.7,3,-0.2,-0.15,right,58,2021-02-22_08h21.46.355,premup-three_ses-01_part-01_label-phase1,3.2.4,MacIntel,60,left,0.555000305,4,0,4,0,1,3,1,0,240,113,1,239,,,,,,,,,,,,,,,,,,
,,1,31,,,,,,,2,3,1,stim/31.jpeg,HouseObjects,2,stim/objects/HouseObjects/spraybottle.png,0.7,2,0.2,0.15,right,58,2021-02-22_08h21.46.355,premup-three_ses-01_part-01_label-phase1,3.2.4,MacIntel,60,right,0.635000229,4,0,4,0,1,3,1,0,240,108,1,239,,,,,,,,,,,,,,,,,,
,,1,32,,,,,,,3,5,4,stim/54.jpeg,HouseObjects,2,stim/objects/HouseObjects/sponge2.png,0.9,1,-0.2,0.15,right,58,2021-02-22_08h21.46.355,premup-three_ses-01_part-01_label-phase1,3.2.4,MacIntel,60,right,0.890000105,4,0,4,0,1,3,1,0,240,187,1,239,,,,,,,,,,,,,,,,,,
,,1,33,,,,,,,3,6,4,stim/64.jpeg,Instruments,1,stim/objects/Instruments/tuba2.png,0.9,3,-0.2,-0.15,left,58,2021-02-22_08h21.46.355,premup-three_ses-01_part-01_label-phase1,3.2.4,MacIntel,60,left,0.57400012,4,0,4,0,1,3,1,0,240,231,1,239,,,,,,,,,,,,,,,,,,
,,1,34,,,,,,,3,6,1,stim/61.jpeg,Instruments,1,stim/objects/Instruments/triangle2.png,0.9,4,0.2,-0.15,left,58,2021-02-22_08h21.46.355,premup-three_ses-01_part-01_label-phase1,3.2.4,MacIntel,60,left,0.676000118,4,0,4,0,1,3,1,0,240,228,1,239,,,,,,,,,,,,,,,,,,
,,0,35,,,,,,,1,2,1,stim/21.jpeg,Instruments,1,stim/objects/Instruments/saxophone.png,0.5,3,-0.2,-0.15,left,58,2021-02-22_08h21.46.355,premup-three_ses-01_part-01_label-phase1,3.2.4,MacIntel,60,right,1.487000227,4,0,4,0,1,3,1,0,240,44,1,239,,,,,,,,,,,,,,,,,,
,,0,36,,,,,,,3,5,1,stim/51.jpeg,Instruments,1,stim/objects/Instruments/saxophone2.png,0.1,4,0.2,-0.15,left,58,2021-02-22_08h21.46.355,premup-three_ses-01_part-01_label-phase1,3.2.4,MacIntel,60,right,0.967000008,4,0,4,0,1,3,1,0,240,160,1,239,,,,,,,,,,,,,,,,,,
,,1,37,,,,,,,1,1,1,stim/11.jpeg,HouseObjects,2,stim/objects/HouseObjects/recyclingbin.png,0.5,2,0.2,0.15,right,58,2021-02-22_08h21.46.355,premup-three_ses-01_part-01_label-phase1,3.2.4,MacIntel,60,right,1.192000151,4,0,4,0,1,3,1,0,240,28,1,239,,,,,,,,,,,,,,,,,,
,,0,38,,,,,,,1,2,3,stim/23.jpeg,HouseObjects,2,stim/objects/HouseObjects/scale.png,0.5,2,0.2,0.15,right,58,2021-02-22_08h21.46.355,premup-three_ses-01_part-01_label-phase1,3.2.4,MacIntel,60,left,0.587000132,4,0,4,0,1,3,1,0,240,74,1,239,,,,,,,,,,,,,,,,,,
,,1,39,,,,,,,2,4,4,stim/44.jpeg,Instruments,1,stim/objects/Instruments/record_player2.png,0.7,1,-0.2,0.15,left,58,2021-02-22_08h21.46.355,premup-three_ses-01_part-01_label-phase1,3.2.4,MacIntel,60,left,0.901000261,4,0,4,0,1,3,1,0,240,127,1,239,,,,,,,,,,,,,,,,,,
,,1,40,,,,,,,1,2,1,stim/21.jpeg,HouseObjects,2,stim/objects/HouseObjects/safetypin.png,0.5,3,-0.2,-0.15,right,58,2021-02-22_08h21.46.355,premup-three_ses-01_part-01_label-phase1,3.2.4,MacIntel,60,right,0.660000324,4,0,4,0,1,3,1,0,240,68,1,239,,,,,,,,,,,,,,,,,,
,,0,41,,,,,,,1,1,1,stim/11.jpeg,Instruments,1,stim/objects/Instruments/panflute.png,0.5,2,0.2,0.15,left,58,2021-02-22_08h21.46.355,premup-three_ses-01_part-01_label-phase1,3.2.4,MacIntel,60,right,0.596000195,4,0,4,0,1,3,1,0,240,8,1,239,,,,,,,,,,,,,,,,,,
,,1,42,,,,,,,2,3,2,stim/32.jpeg,Instruments,1,stim/objects/Instruments/trombone.png,0.3,2,0.2,0.15,left,58,2021-02-22_08h21.46.355,premup-three_ses-01_part-01_label-phase1,3.2.4,MacIntel,60,left,0.849000216,4,0,4,0,1,3,1,0,240,85,1,239,,,,,,,,,,,,,,,,,,
,,0,43,,,,,,,1,2,1,stim/21.jpeg,HouseObjects,2,stim/objects/HouseObjects/safetypin.png,0.5,3,-0.2,-0.15,right,58,2021-02-22_08h21.46.355,premup-three_ses-01_part-01_label-phase1,3.2.4,MacIntel,60,left,0.884000063,4,0,4,0,1,3,1,0,240,60,1,239,,,,,,,,,,,,,,,,,,
,,1,44,,,,,,,1,2,1,stim/21.jpeg,HouseObjects,2,stim/objects/HouseObjects/safetypin.png,0.5,3,-0.2,-0.15,right,58,2021-02-22_08h21.46.355,premup-three_ses-01_part-01_label-phase1,3.2.4,MacIntel,60,right,1.052000046,4,0,4,0,1,3,1,0,240,76,1,239,,,,,,,,,,,,,,,,,,
,,1,45,,,,,,,1,1,2,stim/12.jpeg,HouseObjects,2,stim/objects/HouseObjects/remote.png,0.5,1,-0.2,0.15,right,58,2021-02-22_08h21.46.355,premup-three_ses-01_part-01_label-phase1,3.2.4,MacIntel,60,right,1.136000156,4,0,4,0,1,3,1,0,240,29,1,239,,,,,,,,,,,,,,,,,,
,,1,46,,,,,,,3,6,4,stim/64.jpeg,Instruments,1,stim/objects/Instruments/tuba2.png,0.9,1,-0.2,0.15,left,58,2021-02-22_08h21.46.355,premup-three_ses-01_part-01_label-phase1,3.2.4,MacIntel,60,left,0.678000212,4,0,4,0,1,3,1,0,240,235,1,239,,,,,,,,,,,,,,,,,,
,,0,47,,,,,,,3,6,2,stim/62.jpeg,Instruments,1,stim/objects/Instruments/trombone2.png,0.9,1,-0.2,0.15,left,58,2021-02-22_08h21.46.355,premup-three_ses-01_part-01_label-phase1,3.2.4,MacIntel,60,right,0.695000172,4,0,4,0,1,3,1,0,240,221,1,239,,,,,,,,,,,,,,,,,,
,,1,48,,,,,,,2,4,1,stim/41.jpeg,Instruments,1,stim/objects/Instruments/panflute2.png,0.7,2,0.2,0.15,left,58,2021-02-22_08h21.46.355,premup-three_ses-01_part-01_label-phase1,3.2.4,MacIntel,60,left,0.787000179,4,0,4,0,1,3,1,0,240,140,1,239,,,,,,,,,,,,,,,,,,
,,0,49,,,,,,,2,4,3,stim/43.jpeg,HouseObjects,2,stim/objects/HouseObjects/rubbergloves2.png,0.3,3,-0.2,-0.15,right,58,2021-02-22_08h21.46.355,premup-three_ses-01_part-01_label-phase1,3.2.4,MacIntel,60,left,1.262000084,4,0,4,0,1,3,1,0,240,150,1,239,,,,,,,,,,,,,,,,,,
,,1,50,,,,,,,1,2,2,stim/22.jpeg,HouseObjects,2,stim/objects/HouseObjects/saw.png,0.5,1,-0.2,0.15,right,58,2021-02-22_08h21.46.355,premup-three_ses-01_part-01_label-phase1,3.2.4,MacIntel,60,right,1.251000166,4,0,4,0,1,3,1,0,240,73,1,239,,,,,,,,,,,,,,,,,,
,,1,51,,,,,,,3,6,3,stim/63.jpeg,Instruments,1,stim/objects/Instruments/trumpet2.png,0.9,3,-0.2,-0.15,left,58,2021-02-22_08h21.46.355,premup-three_ses-01_part-01_label-phase1,3.2.4,MacIntel,60,left,0.542000055,4,0,4,0,1,3,1,0,240,210,1,239,,,,,,,,,,,,,,,,,,
,,1,52,,,,,,,2,3,4,stim/34.jpeg,HouseObjects,2,stim/objects/HouseObjects/thread.png,0.7,2,0.2,0.15,right,58,2021-02-22_08h21.46.355,premup-three_ses-01_part-01_label-phase1,3.2.4,MacIntel,60,right,0.569000244,4,0,4,0,1,3,1,0,240,111,1,239,,,,,,,,,,,,,,,,,,
,,1,53,,,,,,,2,3,3,stim/33.jpeg,HouseObjects,2,stim/objects/HouseObjects/thermometer.png,0.7,4,0.2,-0.15,right,58,2021-02-22_08h21.46.355,premup-three_ses-01_part-01_label-phase1,3.2.4,MacIntel,60,right,0.9150002,4,0,4,0,1,3,1,0,240,114,1,239,,,,,,,,,,,,,,,,,,
,,0,54,,,,,,,1,2,3,stim/23.jpeg,HouseObjects,2,stim/objects/HouseObjects/scale.png,0.5,1,-0.2,0.15,right,58,2021-02-22_08h21.46.355,premup-three_ses-01_part-01_label-phase1,3.2.4,MacIntel,60,left,1.236000061,4,0,4,0,1,3,1,0,240,78,1,239,,,,,,,,,,,,,,,,,,
,,1,55,,,,,,,2,3,2,stim/32.jpeg,HouseObjects,2,stim/objects/HouseObjects/teapot.png,0.7,4,0.2,-0.15,right,58,2021-02-22_08h21.46.355,premup-three_ses-01_part-01_label-phase1,3.2.4,MacIntel,60,right,0.611000299,4,0,4,0,1,3,1,0,240,97,1,239,,,,,,,,,,,,,,,,,,
,,1,56,,,,,,,1,1,3,stim/13.jpeg,Instruments,1,stim/objects/Instruments/record.png,0.5,3,-0.2,-0.15,left,58,2021-02-22_08h21.46.355,premup-three_ses-01_part-01_label-phase1,3.2.4,MacIntel,60,left,0.518000126,4,0,4,0,1,3,1,0,240,10,1,239,,,,,,,,,,,,,,,,,,
,,0,57,,,,,,,2,4,3,stim/43.jpeg,Instruments,1,stim/objects/Instruments/record2.png,0.7,1,-0.2,0.15,left,58,2021-02-22_08h21.46.355,premup-three_ses-01_part-01_label-phase1,3.2.4,MacIntel,60,right,0.769000292,4,0,4,0,1,3,1,0,240,142,1,239,,,,,,,,,,,,,,,,,,
,,1,58,,,,,,,3,6,1,stim/61.jpeg,Instruments,1,stim/objects/Instruments/triangle2.png,0.9,2,0.2,0.15,left,58,2021-02-22_08h21.46.355,premup-three_ses-01_part-01_label-phase1,3.2.4,MacIntel,60,left,0.654000044,4,0,4,0,1,3,1,0,240,208,1,239,,,,,,,,,,,,,,,,,,
,,1,59,,,,,,,1,1,3,stim/13.jpeg,HouseObjects,2,stim/objects/HouseObjects/rubbergloves.png,0.5,4,0.2,-0.15,right,58,2021-02-22_08h21.46.355,premup-three_ses-01_part-01_label-phase1,3.2.4,MacIntel,60,right,0.570000172,4,0,4,0,1,3,1,0,240,26,1,239,,,,,,,,,,,,,,,,,,
,,1,60,,,,,,,1,1,1,stim/11.jpeg,Instruments,1,stim/objects/Instruments/panflute.png,0.5,1,-0.2,0.15,left,58,2021-02-22_08h21.46.355,premup-three_ses-01_part-01_label-phase1,3.2.4,MacIntel,60,left,1.127000332,4,0,4,0,1,3,1,0,240,12,1,239,,,,,,,,,,,,,,,,,,
,,1,61,,,,,,,3,5,4,stim/54.jpeg,HouseObjects,2,stim/objects/HouseObjects/sponge2.png,0.9,4,0.2,-0.15,right,58,2021-02-22_08h21.46.355,premup-three_ses-01_part-01_label-phase1,3.2.4,MacIntel,60,right,0.776000023,4,0,4,0,1,3,1,0,240,199,1,239,,,,,,,,,,,,,,,,,,
,,0,62,,,,,,,1,2,1,stim/21.jpeg,Instruments,1,stim/objects/Instruments/saxophone.png,0.5,4,0.2,-0.15,left,58,2021-02-22_08h21.46.355,premup-three_ses-01_part-01_label-phase1,3.2.4,MacIntel,60,right,0.950000048,4,0,4,0,1,3,1,0,240,52,1,239,,,,,,,,,,,,,,,,,,
,,1,63,,,,,,,3,6,3,stim/63.jpeg,Instruments,1,stim/objects/Instruments/trumpet2.png,0.9,4,0.2,-0.15,left,58,2021-02-22_08h21.46.355,premup-three_ses-01_part-01_label-phase1,3.2.4,MacIntel,60,left,0.622000217,4,0,4,0,1,3,1,0,240,202,1,239,,,,,,,,,,,,,,,,,,
,,1,64,,,,,,,3,6,2,stim/62.jpeg,Instruments,1,stim/objects/Instruments/trombone2.png,0.9,1,-0.2,0.15,left,58,2021-02-22_08h21.46.355,premup-three_ses-01_part-01_label-phase1,3.2.4,MacIntel,60,left,0.735000134,4,0,4,0,1,3,1,0,240,233,1,239,,,,,,,,,,,,,,,,,,
,,0,65,,,,,,,1,2,4,stim/24.jpeg,Instruments,1,stim/objects/Instruments/timbal.png,0.5,1,-0.2,0.15,left,58,2021-02-22_08h21.46.355,premup-three_ses-01_part-01_label-phase1,3.2.4,MacIntel,60,right,1.476000309,4,0,4,0,1,3,1,0,240,59,1,239,,,,,,,,,,,,,,,,,,
,,0,66,,,,,,,1,1,4,stim/14.jpeg,HouseObjects,2,stim/objects/HouseObjects/rug.png,0.5,1,-0.2,0.15,right,58,2021-02-22_08h21.46.355,premup-three_ses-01_part-01_label-phase1,3.2.4,MacIntel,60,left,1.584000111,4,0,4,0,1,3,1,0,240,31,1,239,,,,,,,,,,,,,,,,,,
,,0,67,,,,,,,2,4,2,stim/42.jpeg,Instruments,1,stim/objects/Instruments/pipepiano2.png,0.7,3,-0.2,-0.15,left,58,2021-02-22_08h21.46.355,premup-three_ses-01_part-01_label-phase1,3.2.4,MacIntel,60,right,1.088000298,4,0,4,0,1,3,1,0,240,121,1,239,,,,,,,,,,,,,,,,,,
,,1,68,,,,,,,1,2,1,stim/21.jpeg,HouseObjects,2,stim/objects/HouseObjects/safetypin.png,0.5,4,0.2,-0.15,right,58,2021-02-22_08h21.46.355,premup-three_ses-01_part-01_label-phase1,3.2.4,MacIntel,60,right,0.769000053,4,0,4,0,1,3,1,0,240,64,1,239,,,,,,,,,,,,,,,,,,
,,0,69,,,,,,,3,6,2,stim/62.jpeg,HouseObjects,2,stim/objects/HouseObjects/teapot2.png,0.1,1,-0.2,0.15,right,58,2021-02-22_08h21.46.355,premup-three_ses-01_part-01_label-phase1,3.2.4,MacIntel,60,left,0.677000284,4,0,4,0,1,3,1,0,240,237,1,239,,,,,,,,,,,,,,,,,,
,,1,70,,,,,,,3,6,1,stim/61.jpeg,Instruments,1,stim/objects/Instruments/triangle2.png,0.9,3,-0.2,-0.15,left,58,2021-02-22_08h21.46.355,premup-three_ses-01_part-01_label-phase1,3.2.4,MacIntel,60,left,0.611000061,4,0,4,0,1,3,1,0,240,200,1,239,,,,,,,,,,,,,,,,,,
,,0,71,,,,,,,1,1,4,stim/14.jpeg,Instruments,1,stim/objects/Instruments/record_player.png,0.5,4,0.2,-0.15,left,58,2021-02-22_08h21.46.355,premup-three_ses-01_part-01_label-phase1,3.2.4,MacIntel,60,right,0.550000191,4,0,4,0,1,3,1,0,240,3,1,239,,,,,,,,,,,,,,,,,,
,,1,72,,,,,,,3,6,1,stim/61.jpeg,Instruments,1,stim/objects/Instruments/triangle2.png,0.9,4,0.2,-0.15,left,58,2021-02-22_08h21.46.355,premup-three_ses-01_part-01_label-phase1,3.2.4,MacIntel,60,left,0.755000114,4,0,4,0,1,3,1,0,240,220,1,239,,,,,,,,,,,,,,,,,,
,,1,73,,,,,,,3,6,1,stim/61.jpeg,Instruments,1,stim/objects/Instruments/triangle2.png,0.9,3,-0.2,-0.15,left,58,2021-02-22_08h21.46.355,premup-three_ses-01_part-01_label-phase1,3.2.4,MacIntel,60,left,0.972000122,4,0,4,0,1,3,1,0,240,204,1,239,,,,,,,,,,,,,,,,,,
,,0,74,,,,,,,3,5,4,stim/54.jpeg,HouseObjects,2,stim/objects/HouseObjects/sponge2.png,0.9,4,0.2,-0.15,right,58,2021-02-22_08h21.46.355,premup-three_ses-01_part-01_label-phase1,3.2.4,MacIntel,60,,,4,0,4,0,1,3,1,0,240,171,1,239,,,,,,,,,,,,,,,,,,
,,1,75,,,,,,,2,3,4,stim/34.jpeg,Instruments,1,stim/objects/Instruments/tuba.png,0.3,3,-0.2,-0.15,left,58,2021-02-22_08h21.46.355,premup-three_ses-01_part-01_label-phase1,3.2.4,MacIntel,60,left,0.468000174,4,0,4,0,1,3,1,0,240,83,1,239,,,,,,,,,,,,,,,,,,
,,1,76,,,,,,,3,6,2,stim/62.jpeg,Instruments,1,stim/objects/Instruments/trombone2.png,0.9,4,0.2,-0.15,left,58,2021-02-22_08h21.46.355,premup-three_ses-01_part-01_label-phase1,3.2.4,MacIntel,60,left,1.430000067,4,0,4,0,1,3,1,0,240,229,1,239,,,,,,,,,,,,,,,,,,
,,1,77,,,,,,,1,2,2,stim/22.jpeg,Instruments,1,stim/objects/Instruments/speaker.png,0.5,3,-0.2,-0.15,left,58,2021-02-22_08h21.46.355,premup-three_ses-01_part-01_label-phase1,3.2.4,MacIntel,60,left,0.871999979,4,0,4,0,1,3,1,0,240,53,1,239,,,,,,,,,,,,,,,,,,
,,0,78,,,,,,,1,1,4,stim/14.jpeg,Instruments,1,stim/objects/Instruments/record_player.png,0.5,1,-0.2,0.15,left,58,2021-02-22_08h21.46.355,premup-three_ses-01_part-01_label-phase1,3.2.4,MacIntel,60,right,0.885000229,4,0,4,0,1,3,1,0,240,19,1,239,,,,,,,,,,,,,,,,,,
,,0,79,,,,,,,1,2,4,stim/24.jpeg,HouseObjects,2,stim/objects/HouseObjects/sponge.png,0.5,2,0.2,0.15,right,58,2021-02-22_08h21.46.355,premup-three_ses-01_part-01_label-phase1,3.2.4,MacIntel,60,left,0.786000252,4,0,4,0,1,3,1,0,240,71,1,239,,,,,,,,,,,,,,,,,,
,,1,80,,,,,,,1,1,3,stim/13.jpeg,Instruments,1,stim/objects/Instruments/record.png,0.5,3,-0.2,-0.15,left,58,2021-02-22_08h21.46.355,premup-three_ses-01_part-01_label-phase1,3.2.4,MacIntel,60,left,0.720999956,4,0,4,0,1,3,1,0,240,2,1,239,,,,,,,,,,,,,,,,,,
,,0,81,,,,,,,3,5,1,stim/51.jpeg,HouseObjects,2,stim/objects/HouseObjects/safetypin2.png,0.9,2,0.2,0.15,right,58,2021-02-22_08h21.46.355,premup-three_ses-01_part-01_label-phase1,3.2.4,MacIntel,60,left,1.001000166,4,0,4,0,1,3,1,0,240,168,1,239,,,,,,,,,,,,,,,,,,
,,0,82,,,,,,,3,6,4,stim/64.jpeg,Instruments,1,stim/objects/Instruments/tuba2.png,0.9,3,-0.2,-0.15,left,58,2021-02-22_08h21.46.355,premup-three_ses-01_part-01_label-phase1,3.2.4,MacIntel,60,right,0.703000307,4,0,4,0,1,3,1,0,240,227,1,239,,,,,,,,,,,,,,,,,,
,,0,83,,,,,,,2,3,1,stim/31.jpeg,HouseObjects,2,stim/objects/HouseObjects/spraybottle.png,0.7,2,0.2,0.15,right,58,2021-02-22_08h21.46.355,premup-three_ses-01_part-01_label-phase1,3.2.4,MacIntel,60,left,0.920000315,4,0,4,0,1,3,1,0,240,112,1,239,,,,,,,,,,,,,,,,,,
,,1,84,,,,,,,3,6,1,stim/61.jpeg,Instruments,1,stim/objects/Instruments/triangle2.png,0.9,2,0.2,0.15,left,58,2021-02-22_08h21.46.355,premup-three_ses-01_part-01_label-phase1,3.2.4,MacIntel,60,left,0.903000116,4,0,4,0,1,3,1,0,240,216,1,239,,,,,,,,,,,,,,,,,,
,,1,85,,,,,,,3,6,3,stim/63.jpeg,Instruments,1,stim/objects/Instruments/trumpet2.png,0.9,2,0.2,0.15,left,58,2021-02-22_08h21.46.355,premup-three_ses-01_part-01_label-phase1,3.2.4,MacIntel,60,left,0.828999996,4,0,4,0,1,3,1,0,240,226,1,239,,,,,,,,,,,,,,,,,,
,,1,86,,,,,,,2,3,4,stim/34.jpeg,HouseObjects,2,stim/objects/HouseObjects/thread.png,0.7,3,-0.2,-0.15,right,58,2021-02-22_08h21.46.355,premup-three_ses-01_part-01_label-phase1,3.2.4,MacIntel,60,right,1.909000158,4,0,4,0,1,3,1,0,240,103,1,239,,,,,,,,,,,,,,,,,,
,,0,87,,,,,,,2,4,1,stim/41.jpeg,Instruments,1,stim/objects/Instruments/panflute2.png,0.7,1,-0.2,0.15,left,58,2021-02-22_08h21.46.355,premup-three_ses-01_part-01_label-phase1,3.2.4,MacIntel,60,,,4,0,4,0,1,3,1,0,240,132,1,239,,,,,,,,,,,,,,,,,,
,,1,88,,,,,,,1,2,3,stim/23.jpeg,Instruments,1,stim/objects/Instruments/tambourine.png,0.5,4,0.2,-0.15,left,58,2021-02-22_08h21.46.355,premup-three_ses-01_part-01_label-phase1,3.2.4,MacIntel,60,left,0.40500021,4,0,4,0,1,3,1,0,240,46,1,239,,,,,,,,,,,,,,,,,,
,,1,89,,,,,,,3,6,3,stim/63.jpeg,Instruments,1,stim/objects/Instruments/trumpet2.png,0.9,3,-0.2,-0.15,left,58,2021-02-22_08h21.46.355,premup-three_ses-01_part-01_label-phase1,3.2.4,MacIntel,60,left,0.587000132,4,0,4,0,1,3,1,0,240,230,1,239,,,,,,,,,,,,,,,,,,
,,1,90,,,,,,,2,4,1,stim/41.jpeg,Instruments,1,stim/objects/Instruments/panflute2.png,0.7,2,0.2,0.15,left,58,2021-02-22_08h21.46.355,premup-three_ses-01_part-01_label-phase1,3.2.4,MacIntel,60,left,0.525000095,4,0,4,0,1,3,1,0,240,120,1,239,,,,,,,,,,,,,,,,,,
,,1,91,,,,,,,1,1,3,stim/13.jpeg,Instruments,1,stim/objects/Instruments/record.png,0.5,1,-0.2,0.15,left,58,2021-02-22_08h21.46.355,premup-three_ses-01_part-01_label-phase1,3.2.4,MacIntel,60,left,0.800000191,4,0,4,0,1,3,1,0,240,14,1,239,,,,,,,,,,,,,,,,,,
,,1,92,,,,,,,2,4,3,stim/43.jpeg,Instruments,1,stim/objects/Instruments/record2.png,0.7,1,-0.2,0.15,left,58,2021-02-22_08h21.46.355,premup-three_ses-01_part-01_label-phase1,3.2.4,MacIntel,60,left,0.685000181,4,0,4,0,1,3,1,0,240,146,1,239,,,,,,,,,,,,,,,,,,
,,0,93,,,,,,,1,2,2,stim/22.jpeg,HouseObjects,2,stim/objects/HouseObjects/saw.png,0.5,1,-0.2,0.15,right,58,2021-02-22_08h21.46.355,premup-three_ses-01_part-01_label-phase1,3.2.4,MacIntel,60,left,0.626000166,4,0,4,0,1,3,1,0,240,61,1,239,,,,,,,,,,,,,,,,,,
,,1,94,,,,,,,2,3,4,stim/34.jpeg,HouseObjects,2,stim/objects/HouseObjects/thread.png,0.7,4,0.2,-0.15,right,58,2021-02-22_08h21.46.355,premup-three_ses-01_part-01_label-phase1,3.2.4,MacIntel,60,right,0.548000336,4,0,4,0,1,3,1,0,240,95,1,239,,,,,,,,,,,,,,,,,,
,,1,95,,,,,,,1,2,3,stim/23.jpeg,Instruments,1,stim/objects/Instruments/tambourine.png,0.5,4,0.2,-0.15,left,58,2021-02-22_08h21.46.355,premup-three_ses-01_part-01_label-phase1,3.2.4,MacIntel,60,left,0.603000164,4,0,4,0,1,3,1,0,240,50,1,239,,,,,,,,,,,,,,,,,,
,,1,96,,,,,,,3,6,4,stim/64.jpeg,Instruments,1,stim/objects/Instruments/tuba2.png,0.9,4,0.2,-0.15,left,58,2021-02-22_08h21.46.355,premup-three_ses-01_part-01_label-phase1,3.2.4,MacIntel,60,left,0.551000118,4,0,4,0,1,3,1,0,240,207,1,239,,,,,,,,,,,,,,,,,,
,,0,97,,,,,,,3,5,1,stim/51.jpeg,HouseObjects,2,stim/objects/HouseObjects/safetypin2.png,0.9,4,0.2,-0.15,right,58,2021-02-22_08h21.46.355,premup-three_ses-01_part-01_label-phase1,3.2.4,MacIntel,60,left,0.577000141,4,0,4,0,1,3,1,0,240,184,1,239,,,,,,,,,,,,,,,,,,
,,1,98,,,,,,,3,6,3,stim/63.jpeg,Instruments,1,stim/objects/Instruments/trumpet2.png,0.9,3,-0.2,-0.15,left,58,2021-02-22_08h21.46.355,premup-three_ses-01_part-01_label-phase1,3.2.4,MacIntel,60,left,0.583000183,4,0,4,0,1,3,1,0,240,218,1,239,,,,,,,,,,,,,,,,,,
,,1,99,,,,,,,2,4,4,stim/44.jpeg,HouseObjects,2,stim/objects/HouseObjects/rug2.png,0.3,4,0.2,-0.15,right,58,2021-02-22_08h21.46.355,premup-three_ses-01_part-01_label-phase1,3.2.4,MacIntel,60,right,0.785000324,4,0,4,0,1,3,1,0,240,151,1,239,,,,,,,,,,,,,,,,,,
,,1,100,,,,,,,3,6,2,stim/62.jpeg,Instruments,1,stim/objects/Instruments/trombone2.png,0.9,1,-0.2,0.15,left,58,2021-02-22_08h21.46.355,premup-three_ses-01_part-01_label-phase1,3.2.4,MacIntel,60,left,0.551000118,4,0,4,0,1,3,1,0,240,205,1,239,,,,,,,,,,,,,,,,,,
,,0,101,,,,,,,2,3,3,stim/33.jpeg,HouseObjects,2,stim/objects/HouseObjects/thermometer.png,0.7,2,0.2,0.15,right,58,2021-02-22_08h21.46.355,premup-three_ses-01_part-01_label-phase1,3.2.4,MacIntel,60,left,0.675000191,4,0,4,0,1,3,1,0,240,110,1,239,,,,,,,,,,,,,,,,,,
,,1,102,,,,,,,2,3,3,stim/33.jpeg,HouseObjects,2,stim/objects/HouseObjects/thermometer.png,0.7,1,-0.2,0.15,right,58,2021-02-22_08h21.46.355,premup-three_ses-01_part-01_label-phase1,3.2.4,MacIntel,60,right,0.794000149,4,0,4,0,1,3,1,0,240,98,1,239,,,,,,,,,,,,,,,,,,
,,0,103,,,,,,,1,1,2,stim/12.jpeg,Instruments,1,stim/objects/Instruments/pipepiano.png,0.5,2,0.2,0.15,left,58,2021-02-22_08h21.46.355,premup-three_ses-01_part-01_label-phase1,3.2.4,MacIntel,60,right,0.990000248,4,0,4,0,1,3,1,0,240,5,1,239,,,,,,,,,,,,,,,,,,
,,0,104,,,,,,,3,5,2,stim/52.jpeg,HouseObjects,2,stim/objects/HouseObjects/saw2.png,0.9,2,0.2,0.15,right,58,2021-02-22_08h21.46.355,premup-three_ses-01_part-01_label-phase1,3.2.4,MacIntel,60,left,0.677000046,4,0,4,0,1,3,1,0,240,185,1,239,,,,,,,,,,,,,,,,,,
,,1,105,,,,,,,2,3,4,stim/34.jpeg,HouseObjects,2,stim/objects/HouseObjects/thread.png,0.7,4,0.2,-0.15,right,58,2021-02-22_08h21.46.355,premup-three_ses-01_part-01_label-phase1,3.2.4,MacIntel,60,right,1.121000051,4,0,4,0,1,3,1,0,240,99,1,239,,,,,,,,,,,,,,,,,,
,,1,106,,,,,,,2,4,4,stim/44.jpeg,Instruments,1,stim/objects/Instruments/record_player2.png,0.7,1,-0.2,0.15,left,58,2021-02-22_08h21.46.355,premup-three_ses-01_part-01_label-phase1,3.2.4,MacIntel,60,left,0.697000265,4,0,4,0,1,3,1,0,240,143,1,239,,,,,,,,,,,,,,,,,,
,,0,107,,,,,,,3,5,3,stim/53.jpeg,Instruments,1,stim/objects/Instruments/tambourine2.png,0.1,4,0.2,-0.15,left,58,2021-02-22_08h21.46.355,premup-three_ses-01_part-01_label-phase1,3.2.4,MacIntel,60,right,0.701000214,4,0,4,0,1,3,1,0,240,162,1,239,,,,,,,,,,,,,,,,,,
,,1,108,,,,,,,3,6,3,stim/63.jpeg,Instruments,1,stim/objects/Instruments/trumpet2.png,0.9,3,-0.2,-0.15,left,58,2021-02-22_08h21.46.355,premup-three_ses-01_part-01_label-phase1,3.2.4,MacIntel,60,left,0.605000257,4,0,4,0,1,3,1,0,240,206,1,239,,,,,,,,,,,,,,,,,,
,,0,109,,,,,,,2,4,3,stim/43.jpeg,Instruments,1,stim/objects/Instruments/record2.png,0.7,1,-0.2,0.15,left,58,2021-02-22_08h21.46.355,premup-three_ses-01_part-01_label-phase1,3.2.4,MacIntel,60,right,0.89199996,4,0,4,0,1,3,1,0,240,134,1,239,,,,,,,,,,,,,,,,,,
,,1,110,,,,,,,1,1,1,stim/11.jpeg,Instruments,1,stim/objects/Instruments/panflute.png,0.5,1,-0.2,0.15,left,58,2021-02-22_08h21.46.355,premup-three_ses-01_part-01_label-phase1,3.2.4,MacIntel,60,left,1.101000071,4,0,4,0,1,3,1,0,240,4,1,239,,,,,,,,,,,,,,,,,,
,,0,111,,,,,,,2,3,2,stim/32.jpeg,HouseObjects,2,stim/objects/HouseObjects/teapot.png,0.7,1,-0.2,0.15,right,58,2021-02-22_08h21.46.355,premup-three_ses-01_part-01_label-phase1,3.2.4,MacIntel,60,left,0.671000242,4,0,4,0,1,3,1,0,240,109,1,239,,,,,,,,,,,,,,,,,,
,,1,112,,,,,,,1,2,4,stim/24.jpeg,HouseObjects,2,stim/objects/HouseObjects/sponge.png,0.5,2,0.2,0.15,right,58,2021-02-22_08h21.46.355,premup-three_ses-01_part-01_label-phase1,3.2.4,MacIntel,60,right,0.873000145,4,0,4,0,1,3,1,0,240,79,1,239,,,,,,,,,,,,,,,,,,
,,0,113,,,,,,,1,1,1,stim/11.jpeg,HouseObjects,2,stim/objects/HouseObjects/recyclingbin.png,0.5,2,0.2,0.15,right,58,2021-02-22_08h21.46.355,premup-three_ses-01_part-01_label-phase1,3.2.4,MacIntel,60,left,0.792000055,4,0,4,0,1,3,1,0,240,24,1,239,,,,,,,,,,,,,,,,,,
,,1,114,,,,,,,1,2,3,stim/23.jpeg,Instruments,1,stim/objects/Instruments/tambourine.png,0.5,3,-0.2,-0.15,left,58,2021-02-22_08h21.46.355,premup-three_ses-01_part-01_label-phase1,3.2.4,MacIntel,60,left,1.153000116,4,0,4,0,1,3,1,0,240,42,1,239,,,,,,,,,,,,,,,,,,
,,1,115,,,,,,,2,4,1,stim/41.jpeg,HouseObjects,2,stim/objects/HouseObjects/recyclingbin2.png,0.3,3,-0.2,-0.15,right,58,2021-02-22_08h21.46.355,premup-three_ses-01_part-01_label-phase1,3.2.4,MacIntel,60,right,1.316000223,4,0,4,0,1,3,1,0,240,152,1,239,,,,,,,,,,,,,,,,,,
,,0,116,,,,,,,2,4,4,stim/44.jpeg,HouseObjects,2,stim/objects/HouseObjects/rug2.png,0.3,1,-0.2,0.15,right,58,2021-02-22_08h21.46.355,premup-three_ses-01_part-01_label-phase1,3.2.4,MacIntel,60,left,0.944000244,4,0,4,0,1,3,1,0,240,159,1,239,,,,,,,,,,,,,,,,,,
,,1,117,,,,,,,2,4,2,stim/42.jpeg,HouseObjects,2,stim/objects/HouseObjects/remote2.png,0.3,3,-0.2,-0.15,right,58,2021-02-22_08h21.46.355,premup-three_ses-01_part-01_label-phase1,3.2.4,MacIntel,60,right,0.684000254,4,0,4,0,1,3,1,0,240,149,1,239,,,,,,,,,,,,,,,,,,
,,0,118,,,,,,,1,2,1,stim/21.jpeg,Instruments,1,stim/objects/Instruments/saxophone.png,0.5,2,0.2,0.15,left,58,2021-02-22_08h21.46.355,premup-three_ses-01_part-01_label-phase1,3.2.4,MacIntel,60,right,0.688000202,4,0,4,0,1,3,1,0,240,40,1,239,,,,,,,,,,,,,,,,,,
,,1,119,,,,,,,2,4,2,stim/42.jpeg,Instruments,1,stim/objects/Instruments/pipepiano2.png,0.7,4,0.2,-0.15,left,58,2021-02-22_08h21.46.355,premup-three_ses-01_part-01_label-phase1,3.2.4,MacIntel,60,left,0.676000118,4,0,4,0,1,3,1,0,240,145,1,239,,,,,,,,,,,,,,,,,,
,,1,120,,,,,,,2,4,3,stim/43.jpeg,HouseObjects,2,stim/objects/HouseObjects/rubbergloves2.png,0.3,4,0.2,-0.15,right,58,2021-02-22_08h21.46.355,premup-three_ses-01_part-01_label-phase1,3.2.4,MacIntel,60,right,0.622000217,4,0,4,0,1,3,1,0,240,154,1,239,,,,,,,,,,,,,,,,,,
,,1,121,,,,,,,3,6,1,stim/61.jpeg,Instruments,1,stim/objects/Instruments/triangle2.png,0.9,3,-0.2,-0.15,left,58,2021-02-22_08h21.46.355,premup-three_ses-01_part-01_label-phase1,3.2.4,MacIntel,60,left,0.700000286,4,0,4,0,1,3,1,0,240,212,1,239,,,,,,,,,,,,,,,,,,
,,1,122,,,,,,,3,5,2,stim/52.jpeg,HouseObjects,2,stim/objects/HouseObjects/saw2.png,0.9,4,0.2,-0.15,right,58,2021-02-22_08h21.46.355,premup-three_ses-01_part-01_label-phase1,3.2.4,MacIntel,60,right,0.494000196,4,0,4,0,1,3,1,0,240,181,1,239,,,,,,,,,,,,,,,,,,
,,0,123,,,,,,,3,5,3,stim/53.jpeg,HouseObjects,2,stim/objects/HouseObjects/scale2.png,0.9,1,-0.2,0.15,right,58,2021-02-22_08h21.46.355,premup-three_ses-01_part-01_label-phase1,3.2.4,MacIntel,60,left,0.594000101,4,0,4,0,1,3,1,0,240,194,1,239,,,,,,,,,,,,,,,,,,
,,1,124,,,,,,,1,1,4,stim/14.jpeg,HouseObjects,2,stim/objects/HouseObjects/rug.png,0.5,1,-0.2,0.15,right,58,2021-02-22_08h21.46.355,premup-three_ses-01_part-01_label-phase1,3.2.4,MacIntel,60,right,0.820000172,4,0,4,0,1,3,1,0,240,39,1,239,,,,,,,,,,,,,,,,,,
,,1,125,,,,,,,1,2,4,stim/24.jpeg,Instruments,1,stim/objects/Instruments/timbal.png,0.5,3,-0.2,-0.15,left,58,2021-02-22_08h21.46.355,premup-three_ses-01_part-01_label-phase1,3.2.4,MacIntel,60,left,0.652000189,4,0,4,0,1,3,1,0,240,43,1,239,,,,,,,,,,,,,,,,,,
,,0,126,,,,,,,2,3,4,stim/34.jpeg,HouseObjects,2,stim/objects/HouseObjects/thread.png,0.7,3,-0.2,-0.15,right,58,2021-02-22_08h21.46.355,premup-three_ses-01_part-01_label-phase1,3.2.4,MacIntel,60,left,0.772000074,4,0,4,0,1,3,1,0,240,119,1,239,,,,,,,,,,,,,,,,,,
,,1,127,,,,,,,2,3,3,stim/33.jpeg,Instruments,1,stim/objects/Instruments/trumpet.png,0.3,1,-0.2,0.15,left,58,2021-02-22_08h21.46.355,premup-three_ses-01_part-01_label-phase1,3.2.4,MacIntel,60,left,0.67200017,4,0,4,0,1,3,1,0,240,86,1,239,,,,,,,,,,,,,,,,,,
,,1,128,,,,,,,3,5,2,stim/52.jpeg,HouseObjects,2,stim/objects/HouseObjects/saw2.png,0.9,1,-0.2,0.15,right,58,2021-02-22_08h21.46.355,premup-three_ses-01_part-01_label-phase1,3.2.4,MacIntel,60,right,0.752000093,4,0,4,0,1,3,1,0,240,177,1,239,,,,,,,,,,,,,,,,,,
,,0,129,,,,,,,1,1,1,stim/11.jpeg,HouseObjects,2,stim/objects/HouseObjects/recyclingbin.png,0.5,1,-0.2,0.15,right,58,2021-02-22_08h21.46.355,premup-three_ses-01_part-01_label-phase1,3.2.4,MacIntel,60,left,0.900000095,4,0,4,0,1,3,1,0,240,32,1,239,,,,,,,,,,,,,,,,,,
