id_acc,key_resp_id.keys,key_resp_id.rt,key_resp_conf.keys,key_resp_conf.rt,assoc_acc,key_resp_assoc.keys,key_resp_assoc.rt,loc_acc,key_resp_loc.keys,key_resp_loc.rt,task_innerloop.thisRepN,task_innerloop.thisTrialN,task_innerloop.thisN,task_innerloop.thisIndex,task_innerloop.ran,task_innerloop.order,context_type,object_cat,PE_level,OvsN,obj_file,scn_file,corr_scn_cat,assoc_file,corr_scn_inst,corr_loc,participant,date,expName,psychopyVersion,OS,frameRate
1,left,1.42599988,,,0,,,0,,,1,0,200,121,1,199,0,1,0,2,stim/objects/Instruments/doublebass.png,,0,stim/0.png,0,0,58,2021-02-24_08h04.01.797,premup-three_ses-02_part-03_label-phase3,3.2.4,MacIntel,60
1,right,1.023999929,2,3.005999804,0,2,3.548000097,0,2,3.964999914,1,0,200,45,1,199,2,1,0.7,1,stim/objects/Instruments/cymbal4.png,stim/41.jpeg,4,stim/4.png,1,2,58,2021-02-24_08h04.01.797,premup-three_ses-02_part-03_label-phase3,3.2.4,MacIntel,60
1,right,1.128999949,,,0,,,0,,,1,0,200,133,1,199,0,2,0,2,stim/objects/HouseObjects/cushion.png,,0,stim/0.png,0,0,58,2021-02-24_08h04.01.797,premup-three_ses-02_part-03_label-phase3,3.2.4,MacIntel,60
1,left,1.57400012,3,11.63499999,0,3,2.5,0,3,1.728999853,1,0,200,26,1,199,2,1,0.3,1,stim/objects/Instruments/acousticguitar4.png,stim/33.jpeg,3,stim/3.png,3,3,58,2021-02-24_08h04.01.797,premup-three_ses-02_part-03_label-phase3,3.2.4,MacIntel,60
1,left,1.623999834,4,2.519000053,0,4,7.188999891,0,2,1.467999935,1,0,200,83,1,199,3,1,0.9,1,stim/objects/Instruments/metronome4.png,stim/64.jpeg,6,stim/6.png,4,2,58,2021-02-24_08h04.01.797,premup-three_ses-02_part-03_label-phase3,3.2.4,MacIntel,60
1,right,1.927999973,,,0,,,0,,,1,0,200,159,1,199,0,2,0,2,stim/objects/HouseObjects/match.png,,0,stim/0.png,0,0,58,2021-02-24_08h04.01.797,premup-three_ses-02_part-03_label-phase3,3.2.4,MacIntel,60
1,left,0.861999989,4,1.299000025,0,1,5.950999975,0,1,3.156000137,1,0,200,14,1,199,1,2,0.5,1,stim/objects/Instruments/musicsheet3.png,stim/21.jpeg,2,stim/2.png,1,1,58,2021-02-24_08h04.01.797,premup-three_ses-02_part-03_label-phase3,3.2.4,MacIntel,60
1,right,1.157999754,,,0,,,0,,,1,0,200,138,1,199,0,2,0,2,stim/objects/HouseObjects/garbagebin.png,,0,stim/0.png,0,0,58,2021-02-24_08h04.01.797,premup-three_ses-02_part-03_label-phase3,3.2.4,MacIntel,60
1,left,0.843999863,,,0,,,0,,,1,0,200,131,1,199,0,2,0,2,stim/objects/HouseObjects/clothespin.png,,0,stim/0.png,0,0,58,2021-02-24_08h04.01.797,premup-three_ses-02_part-03_label-phase3,3.2.4,MacIntel,60
1,left,1.106999874,4,1.264999866,0,3,1.930999756,0,3,2.156999826,1,0,200,11,1,199,1,2,0.5,1,stim/objects/Instruments/maraca3.png,stim/22.jpeg,2,stim/2.png,2,3,58,2021-02-24_08h04.01.797,premup-three_ses-02_part-03_label-phase3,3.2.4,MacIntel,60
1,left,0.961999893,4,1.097999811,0,2,2.850999832,0,3,1.713999987,1,0,200,10,1,199,1,2,0.5,1,stim/objects/Instruments/laud3.png,stim/21.jpeg,2,stim/2.png,1,1,58,2021-02-24_08h04.01.797,premup-three_ses-02_part-03_label-phase3,3.2.4,MacIntel,60
1,right,1.22699976,,,0,,,0,,,1,0,200,110,1,199,0,2,0,2,stim/objects/HouseObjects/ashtray.png,,0,stim/0.png,0,0,58,2021-02-24_08h04.01.797,premup-three_ses-02_part-03_label-phase3,3.2.4,MacIntel,60
1,right,1.129999876,,,0,,,0,,,1,0,200,141,1,199,0,1,0,2,stim/objects/Instruments/harmonica.png,,0,stim/0.png,0,0,58,2021-02-24_08h04.01.797,premup-three_ses-02_part-03_label-phase3,3.2.4,MacIntel,60
1,right,2.071999788,2,1.852999926,0,2,2.395999908,0,3,1.634000063,1,0,200,91,1,199,3,2,0.1,1,stim/objects/HouseObjects/key4.png,stim/64.jpeg,6,stim/6.png,4,4,58,2021-02-24_08h04.01.797,premup-three_ses-02_part-03_label-phase3,3.2.4,MacIntel,60
1,left,1.684000015,,,0,,,0,,,1,0,200,106,1,199,0,1,0,2,stim/objects/Instruments/cello.png,,0,stim/0.png,0,0,58,2021-02-24_08h04.01.797,premup-three_ses-02_part-03_label-phase3,3.2.4,MacIntel,60
1,right,2.423000097,,,0,,,0,,,1,0,200,130,1,199,0,2,0,2,stim/objects/HouseObjects/clothesdryingrack.png,,0,stim/0.png,0,0,58,2021-02-24_08h04.01.797,premup-three_ses-02_part-03_label-phase3,3.2.4,MacIntel,60
1,left,1.024999857,4,1.099999905,0,4,2.112999916,0,2,2.357000113,1,0,200,12,1,199,1,2,0.5,1,stim/objects/Instruments/marimba3.png,stim/23.jpeg,2,stim/2.png,3,2,58,2021-02-24_08h04.01.797,premup-three_ses-02_part-03_label-phase3,3.2.4,MacIntel,60
1,left,1.144999981,4,1.447999954,0,1,4.200000048,0,3,1.583999872,1,0,200,8,1,199,1,1,0.5,1,stim/objects/HouseObjects/handvacuum3.png,stim/11.jpeg,1,stim/1.png,1,4,58,2021-02-24_08h04.01.797,premup-three_ses-02_part-03_label-phase3,3.2.4,MacIntel,60
1,left,2.328999996,3,1.35199976,0,2,2.402999878,0,4,2.611999989,1,0,200,21,1,199,2,1,0.3,1,stim/objects/Instruments/oboe3.png,stim/32.jpeg,3,stim/3.png,2,4,58,2021-02-24_08h04.01.797,premup-three_ses-02_part-03_label-phase3,3.2.4,MacIntel,60
1,right,1.002999783,,,0,,,0,,,1,0,200,157,1,199,0,2,0,2,stim/objects/HouseObjects/knife.png,,0,stim/0.png,0,0,58,2021-02-24_08h04.01.797,premup-three_ses-02_part-03_label-phase3,3.2.4,MacIntel,60
1,right,1.014999866,3,2.113999844,0,2,2.233999968,0,1,2.128999949,1,0,200,6,1,199,1,1,0.5,1,stim/objects/HouseObjects/hairdryer3.png,stim/13.jpeg,1,stim/1.png,3,1,58,2021-02-24_08h04.01.797,premup-three_ses-02_part-03_label-phase3,3.2.4,MacIntel,60
1,left,2.183000088,,,0,,,0,,,1,0,200,101,1,199,0,1,0,2,stim/objects/Instruments/acousticguitar.png,,0,stim/0.png,0,0,58,2021-02-24_08h04.01.797,premup-three_ses-02_part-03_label-phase3,3.2.4,MacIntel,60
1,right,1.115999937,3,1.713999987,0,1,3.467999935,0,4,4.447999954,1,0,200,41,1,199,2,1,0.7,1,stim/objects/Instruments/cello4.png,stim/41.jpeg,4,stim/4.png,1,1,58,2021-02-24_08h04.01.797,premup-three_ses-02_part-03_label-phase3,3.2.4,MacIntel,60
1,right,1.762999773,,,0,,,0,,,1,0,200,119,1,199,0,2,0,2,stim/objects/HouseObjects/clock.png,,0,stim/0.png,0,0,58,2021-02-24_08h04.01.797,premup-three_ses-02_part-03_label-phase3,3.2.4,MacIntel,60
1,left,3.540999889,,,0,,,0,,,1,0,200,156,1,199,0,2,0,2,stim/objects/HouseObjects/key.png,,0,stim/0.png,0,0,58,2021-02-24_08h04.01.797,premup-three_ses-02_part-03_label-phase3,3.2.4,MacIntel,60
1,right,1.226999998,,,0,,,0,,,1,0,200,144,1,199,0,1,0,2,stim/objects/Instruments/keyboard.png,,0,stim/0.png,0,0,58,2021-02-24_08h04.01.797,premup-three_ses-02_part-03_label-phase3,3.2.4,MacIntel,60
1,left,1.893999815,2,2.486000061,0,2,3.506999969,0,3,4.562000036,1,0,200,60,1,199,3,1,0.1,1,stim/objects/Instruments/flute4.png,stim/51.jpeg,5,stim/5.png,1,3,58,2021-02-24_08h04.01.797,premup-three_ses-02_part-03_label-phase3,3.2.4,MacIntel,60
1,left,1.899999857,4,1.152999878,0,3,2.828999996,0,2,5.049999952,1,0,200,7,1,199,1,1,0.5,1,stim/objects/HouseObjects/handbrush3.png,stim/14.jpeg,1,stim/1.png,4,2,58,2021-02-24_08h04.01.797,premup-three_ses-02_part-03_label-phase3,3.2.4,MacIntel,60
1,right,0.875999928,3,2.069999933,0,2,3.554999828,0,1,6.109999895,1,0,200,90,1,199,3,2,0.1,1,stim/objects/HouseObjects/ironingboard4.png,stim/63.jpeg,6,stim/6.png,3,4,58,2021-02-24_08h04.01.797,premup-three_ses-02_part-03_label-phase3,3.2.4,MacIntel,60
1,left,1.594000101,2,2.71999979,0,2,2.296000004,0,4,2.482999802,1,0,200,22,1,199,2,1,0.3,1,stim/objects/Instruments/violin3.png,stim/33.jpeg,3,stim/3.png,3,1,58,2021-02-24_08h04.01.797,premup-three_ses-02_part-03_label-phase3,3.2.4,MacIntel,60
1,left,1.299000025,,,0,,,0,,,1,0,200,137,1,199,0,2,0,2,stim/objects/HouseObjects/flyswatter.png,,0,stim/0.png,0,0,58,2021-02-24_08h04.01.797,premup-three_ses-02_part-03_label-phase3,3.2.4,MacIntel,60
1,right,0.884000063,3,1.482999802,0,4,5.404000044,0,3,2.29399991,1,0,200,5,1,199,1,1,0.5,1,stim/objects/HouseObjects/glassmop3.png,stim/12.jpeg,1,stim/1.png,2,4,58,2021-02-24_08h04.01.797,premup-three_ses-02_part-03_label-phase3,3.2.4,MacIntel,60
1,right,1.150999784,,,0,,,0,,,1,0,200,199,1,199,0,2,0,2,stim/objects/HouseObjects/dishsoap2.png,,0,stim/0.png,0,0,58,2021-02-24_08h04.01.797,premup-three_ses-02_part-03_label-phase3,3.2.4,MacIntel,60
1,right,1.195999861,,,0,,,0,,,1,0,200,191,1,199,0,2,0,2,stim/objects/HouseObjects/bottle2.png,,0,stim/0.png,0,0,58,2021-02-24_08h04.01.797,premup-three_ses-02_part-03_label-phase3,3.2.4,MacIntel,60
1,right,0.695999861,,,0,,,0,,,1,0,200,114,1,199,0,2,0,2,stim/objects/HouseObjects/bleachbottle.png,,0,stim/0.png,0,0,58,2021-02-24_08h04.01.797,premup-three_ses-02_part-03_label-phase3,3.2.4,MacIntel,60
1,right,1.025000095,4,4.957999945,0,3,3.394999981,0,2,3.215999842,1,0,200,92,1,199,3,2,0.1,1,stim/objects/HouseObjects/knife4.png,stim/61.jpeg,6,stim/6.png,1,3,58,2021-02-24_08h04.01.797,premup-three_ses-02_part-03_label-phase3,3.2.4,MacIntel,60
1,right,1.349999905,2,2.41899991,0,2,1.914000034,0,2,4.255000114,1,0,200,94,1,199,3,2,0.1,1,stim/objects/HouseObjects/match4.png,stim/63.jpeg,6,stim/6.png,3,2,58,2021-02-24_08h04.01.797,premup-three_ses-02_part-03_label-phase3,3.2.4,MacIntel,60
1,right,1.614000082,4,2.747999907,0,3,5.886999846,0,3,2.565999985,1,0,200,52,1,199,2,2,0.3,1,stim/objects/HouseObjects/broom4.png,stim/44.jpeg,4,stim/4.png,4,2,58,2021-02-24_08h04.01.797,premup-three_ses-02_part-03_label-phase3,3.2.4,MacIntel,60
1,right,1.319000006,,,0,,,0,,,1,0,200,168,1,199,0,1,0,2,stim/objects/Instruments/banjo2.png,,0,stim/0.png,0,0,58,2021-02-24_08h04.01.797,premup-three_ses-02_part-03_label-phase3,3.2.4,MacIntel,60
1,left,0.979999781,4,1.151000023,0,3,4.766000032,0,3,3.272000074,1,0,200,65,1,199,3,1,0.1,1,stim/objects/Instruments/guitarcase4.png,stim/52.jpeg,5,stim/5.png,2,2,58,2021-02-24_08h04.01.797,premup-three_ses-02_part-03_label-phase3,3.2.4,MacIntel,60
1,left,1.061999798,4,0.904000044,0,4,5.062999725,0,1,2.319999933,1,0,200,1,1,199,1,1,0.5,1,stim/objects/Instruments/harmonica3.png,stim/14.jpeg,1,stim/1.png,4,3,58,2021-02-24_08h04.01.797,premup-three_ses-02_part-03_label-phase3,3.2.4,MacIntel,60
1,right,0.978999853,3,1.984999895,0,2,2.549999952,0,3,2.282999992,1,0,200,2,1,199,1,1,0.5,1,stim/objects/Instruments/harp3.png,stim/11.jpeg,1,stim/1.png,1,2,58,2021-02-24_08h04.01.797,premup-three_ses-02_part-03_label-phase3,3.2.4,MacIntel,60
1,right,1.213000059,,,0,,,0,,,1,0,200,140,1,199,0,1,0,2,stim/objects/Instruments/guitarcase.png,,0,stim/0.png,0,0,58,2021-02-24_08h04.01.797,premup-three_ses-02_part-03_label-phase3,3.2.4,MacIntel,60
1,right,1.328999758,2,2.285000086,0,1,2.669999838,0,4,2.191999912,1,0,200,32,1,199,2,2,0.7,1,stim/objects/HouseObjects/towel3.png,stim/34.jpeg,3,stim/3.png,4,2,58,2021-02-24_08h04.01.797,premup-three_ses-02_part-03_label-phase3,3.2.4,MacIntel,60
1,right,2.86199975,3,5.332999945,0,2,1.86500001,0,3,1.778000116,1,0,200,48,1,199,2,1,0.7,1,stim/objects/Instruments/electricdrumset4.png,stim/44.jpeg,4,stim/4.png,4,3,58,2021-02-24_08h04.01.797,premup-three_ses-02_part-03_label-phase3,3.2.4,MacIntel,60
1,right,1.089999914,,,0,,,0,,,1,0,200,176,1,199,0,2,0,2,stim/objects/HouseObjects/ballofstring2.png,,0,stim/0.png,0,0,58,2021-02-24_08h04.01.797,premup-three_ses-02_part-03_label-phase3,3.2.4,MacIntel,60
1,right,0.833999872,,,0,,,0,,,1,0,200,116,1,199,0,2,0,2,stim/objects/HouseObjects/bottle.png,,0,stim/0.png,0,0,58,2021-02-24_08h04.01.797,premup-three_ses-02_part-03_label-phase3,3.2.4,MacIntel,60
1,right,1.296000004,,,0,,,0,,,1,0,200,188,1,199,0,1,0,2,stim/objects/Instruments/electricdrumset2.png,,0,stim/0.png,0,0,58,2021-02-24_08h04.01.797,premup-three_ses-02_part-03_label-phase3,3.2.4,MacIntel,60
1,right,2.665999889,2,2.335999966,0,3,3.180000067,0,3,1.835999966,1,0,200,53,1,199,2,2,0.3,1,stim/objects/HouseObjects/bucket4.png,stim/41.jpeg,4,stim/4.png,1,1,58,2021-02-24_08h04.01.797,premup-three_ses-02_part-03_label-phase3,3.2.4,MacIntel,60
1,right,1.825000048,,,0,,,0,,,1,0,200,142,1,199,0,1,0,2,stim/objects/Instruments/harp.png,,0,stim/0.png,0,0,58,2021-02-24_08h04.01.797,premup-three_ses-02_part-03_label-phase3,3.2.4,MacIntel,60
1,right,0.625,,,0,,,0,,,1,0,200,158,1,199,0,2,0,2,stim/objects/HouseObjects/lintroller.png,,0,stim/0.png,0,0,58,2021-02-24_08h04.01.797,premup-three_ses-02_part-03_label-phase3,3.2.4,MacIntel,60
1,right,0.928999901,3,1.673999786,0,3,1.63499999,0,3,1.555000067,1,0,200,56,1,199,2,2,0.3,1,stim/objects/HouseObjects/clothespin4.png,stim/44.jpeg,4,stim/4.png,4,4,58,2021-02-24_08h04.01.797,premup-three_ses-02_part-03_label-phase3,3.2.4,MacIntel,60
1,left,1.761999846,3,2.248000145,0,2,4.913999796,0,3,2.123000145,1,0,200,66,1,199,3,1,0.1,1,stim/objects/Instruments/harmonica4.png,stim/53.jpeg,5,stim/5.png,3,3,58,2021-02-24_08h04.01.797,premup-three_ses-02_part-03_label-phase3,3.2.4,MacIntel,60
1,right,0.912999868,1,2.488999844,0,1,1.703999996,0,4,1.665999889,1,0,200,18,1,199,1,2,0.5,1,stim/objects/HouseObjects/lintroller3.png,stim/23.jpeg,2,stim/2.png,3,3,58,2021-02-24_08h04.01.797,premup-three_ses-02_part-03_label-phase3,3.2.4,MacIntel,60
1,right,1.250999928,2,2.83100009,0,4,7.128999949,0,2,1.849999905,1,0,200,98,1,199,3,2,0.1,1,stim/objects/HouseObjects/vacuumcleaner4.png,stim/63.jpeg,6,stim/6.png,3,4,58,2021-02-24_08h04.01.797,premup-three_ses-02_part-03_label-phase3,3.2.4,MacIntel,60
1,right,1.463000059,2,1.61500001,0,4,2.5849998,0,2,2.069000006,1,0,200,97,1,199,3,2,0.1,1,stim/objects/HouseObjects/towel4.png,stim/62.jpeg,6,stim/6.png,2,2,58,2021-02-24_08h04.01.797,premup-three_ses-02_part-03_label-phase3,3.2.4,MacIntel,60
1,right,1.019999981,,,0,,,0,,,1,0,200,152,1,199,0,2,0,2,stim/objects/HouseObjects/handbrush.png,,0,stim/0.png,0,0,58,2021-02-24_08h04.01.797,premup-three_ses-02_part-03_label-phase3,3.2.4,MacIntel,60
1,left,1.055999994,4,2.102999926,0,1,4.269999981,0,2,2.188999891,1,0,200,63,1,199,3,1,0.1,1,stim/objects/Instruments/gong4.png,stim/54.jpeg,5,stim/5.png,4,2,58,2021-02-24_08h04.01.797,premup-three_ses-02_part-03_label-phase3,3.2.4,MacIntel,60
1,right,1.079999924,,,0,,,0,,,1,0,200,111,1,199,0,2,0,2,stim/objects/HouseObjects/ballofstring.png,,0,stim/0.png,0,0,58,2021-02-24_08h04.01.797,premup-three_ses-02_part-03_label-phase3,3.2.4,MacIntel,60
1,right,0.812000036,2,1.68900013,0,3,2.328000069,0,3,2.622999907,1,0,200,13,1,199,1,2,0.5,1,stim/objects/Instruments/metronome3.png,stim/24.jpeg,2,stim/2.png,4,2,58,2021-02-24_08h04.01.797,premup-three_ses-02_part-03_label-phase3,3.2.4,MacIntel,60
1,right,1.28399992,,,0,,,0,,,1,0,200,182,1,199,0,1,0,2,stim/objects/Instruments/chime2.png,,0,stim/0.png,0,0,58,2021-02-24_08h04.01.797,premup-three_ses-02_part-03_label-phase3,3.2.4,MacIntel,60
1,right,0.796000004,,,0,,,0,,,1,0,200,124,1,199,0,1,0,2,stim/objects/Instruments/electricguitar.png,,0,stim/0.png,0,0,58,2021-02-24_08h04.01.797,premup-three_ses-02_part-03_label-phase3,3.2.4,MacIntel,60
1,right,1.361999989,2,1.731999874,0,1,2.018999815,0,2,1.689999819,1,0,200,95,1,199,3,2,0.1,1,stim/objects/HouseObjects/pan4.png,stim/64.jpeg,6,stim/6.png,4,2,58,2021-02-24_08h04.01.797,premup-three_ses-02_part-03_label-phase3,3.2.4,MacIntel,60
1,right,0.927999973,,,0,,,0,,,1,0,200,107,1,199,0,1,0,2,stim/objects/Instruments/chime.png,,0,stim/0.png,0,0,58,2021-02-24_08h04.01.797,premup-three_ses-02_part-03_label-phase3,3.2.4,MacIntel,60
1,right,0.499999762,3,2.30099988,0,4,1.934999943,0,1,1.782999992,1,0,200,39,1,199,2,2,0.7,1,stim/objects/HouseObjects/bleachbottle4.png,stim/33.jpeg,3,stim/3.png,3,2,58,2021-02-24_08h04.01.797,premup-three_ses-02_part-03_label-phase3,3.2.4,MacIntel,60
1,right,1.617000103,1,6.779999971,0,1,6.03399992,0,2,2.213999748,1,0,200,24,1,199,2,1,0.3,1,stim/objects/Instruments/xylophone3.png,stim/31.jpeg,3,stim/3.png,1,3,58,2021-02-24_08h04.01.797,premup-three_ses-02_part-03_label-phase3,3.2.4,MacIntel,60
1,right,1.211999893,,,0,,,0,,,1,0,200,118,1,199,0,2,0,2,stim/objects/HouseObjects/bucket.png,,0,stim/0.png,0,0,58,2021-02-24_08h04.01.797,premup-three_ses-02_part-03_label-phase3,3.2.4,MacIntel,60
1,right,0.832000017,3,1.529999733,0,4,2.016000032,0,2,1.835999966,1,0,200,89,1,199,3,1,0.9,1,stim/objects/Instruments/xylophone4.png,stim/62.jpeg,6,stim/6.png,2,4,58,2021-02-24_08h04.01.797,premup-three_ses-02_part-03_label-phase3,3.2.4,MacIntel,60
1,left,1.67599988,2,1.619999886,0,2,1.881999969,0,2,1.836999893,1,0,200,19,1,199,1,2,0.5,1,stim/objects/HouseObjects/match3.png,stim/24.jpeg,2,stim/2.png,4,3,58,2021-02-24_08h04.01.797,premup-three_ses-02_part-03_label-phase3,3.2.4,MacIntel,60
1,left,1.15199995,,,0,,,0,,,1,0,200,183,1,199,0,1,0,2,stim/objects/Instruments/clarinet2.png,,0,stim/0.png,0,0,58,2021-02-24_08h04.01.797,premup-three_ses-02_part-03_label-phase3,3.2.4,MacIntel,60
1,right,0.951999903,,,0,,,0,,,1,0,200,160,1,199,0,1,0,2,stim/objects/Instruments/musicstand.png,,0,stim/0.png,0,0,58,2021-02-24_08h04.01.797,premup-three_ses-02_part-03_label-phase3,3.2.4,MacIntel,60
1,left,1.039999962,,,0,,,0,,,1,0,200,103,1,199,0,1,0,2,stim/objects/Instruments/banjo.png,,0,stim/0.png,0,0,58,2021-02-24_08h04.01.797,premup-three_ses-02_part-03_label-phase3,3.2.4,MacIntel,60
1,right,1.122999907,,,0,,,0,,,1,0,200,135,1,199,0,2,0,2,stim/objects/HouseObjects/doormat.png,,0,stim/0.png,0,0,58,2021-02-24_08h04.01.797,premup-three_ses-02_part-03_label-phase3,3.2.4,MacIntel,60
1,left,0.962999821,3,1.621000051,0,2,2.847000122,0,3,2.704999924,1,0,200,80,1,199,3,1,0.9,1,stim/objects/Instruments/laud4.png,stim/61.jpeg,6,stim/6.png,1,2,58,2021-02-24_08h04.01.797,premup-three_ses-02_part-03_label-phase3,3.2.4,MacIntel,60
1,right,0.965999842,,,0,,,0,,,1,0,200,132,1,199,0,2,0,2,stim/objects/HouseObjects/coffee.png,,0,stim/0.png,0,0,58,2021-02-24_08h04.01.797,premup-three_ses-02_part-03_label-phase3,3.2.4,MacIntel,60
1,right,0.628999949,,,0,,,0,,,1,0,200,197,1,199,0,2,0,2,stim/objects/HouseObjects/coffee2.png,,0,stim/0.png,0,0,58,2021-02-24_08h04.01.797,premup-three_ses-02_part-03_label-phase3,3.2.4,MacIntel,60
1,left,1.463999987,,,0,,,0,,,1,0,200,145,1,199,0,1,0,2,stim/objects/Instruments/laud.png,,0,stim/0.png,0,0,58,2021-02-24_08h04.01.797,premup-three_ses-02_part-03_label-phase3,3.2.4,MacIntel,60
1,left,1.090000153,4,1.387000084,0,4,3.207999706,0,1,3.291999817,1,0,200,59,1,199,2,2,0.3,1,stim/objects/HouseObjects/dishsoap4.png,stim/43.jpeg,4,stim/4.png,3,1,58,2021-02-24_08h04.01.797,premup-three_ses-02_part-03_label-phase3,3.2.4,MacIntel,60
1,left,2.391000032,,,0,,,0,,,1,0,200,128,1,199,0,1,0,2,stim/objects/Instruments/gong.png,,0,stim/0.png,0,0,58,2021-02-24_08h04.01.797,premup-three_ses-02_part-03_label-phase3,3.2.4,MacIntel,60
1,right,1.789000034,,,0,,,0,,,1,0,200,117,1,199,0,2,0,2,stim/objects/HouseObjects/broom.png,,0,stim/0.png,0,0,58,2021-02-24_08h04.01.797,premup-three_ses-02_part-03_label-phase3,3.2.4,MacIntel,60
1,right,0.993999958,,,0,,,0,,,1,0,200,163,1,199,0,1,0,2,stim/objects/Instruments/vuvuzela.png,,0,stim/0.png,0,0,58,2021-02-24_08h04.01.797,premup-three_ses-02_part-03_label-phase3,3.2.4,MacIntel,60
1,left,1.211999893,,,0,,,0,,,1,0,200,162,1,199,0,1,0,2,stim/objects/Instruments/violin.png,,0,stim/0.png,0,0,58,2021-02-24_08h04.01.797,premup-three_ses-02_part-03_label-phase3,3.2.4,MacIntel,60
1,right,0.757999897,,,0,,,0,,,1,0,200,113,1,199,0,2,0,2,stim/objects/HouseObjects/basket.png,,0,stim/0.png,0,0,58,2021-02-24_08h04.01.797,premup-three_ses-02_part-03_label-phase3,3.2.4,MacIntel,60
1,right,1.098999977,,,0,,,0,,,1,0,200,196,1,199,0,2,0,2,stim/objects/HouseObjects/clothespin2.png,,0,stim/0.png,0,0,58,2021-02-24_08h04.01.797,premup-three_ses-02_part-03_label-phase3,3.2.4,MacIntel,60
1,left,1.309999943,,,0,,,0,,,1,0,200,129,1,199,0,1,0,2,stim/objects/Instruments/grandpiano.png,,0,stim/0.png,0,0,58,2021-02-24_08h04.01.797,premup-three_ses-02_part-03_label-phase3,3.2.4,MacIntel,60
1,left,1.176999807,,,0,,,0,,,1,0,200,180,1,199,0,1,0,2,stim/objects/Instruments/bassguitar2.png,,0,stim/0.png,0,0,58,2021-02-24_08h04.01.797,premup-three_ses-02_part-03_label-phase3,3.2.4,MacIntel,60
1,left,1.673999786,3,3.184999943,0,3,1.888999939,0,3,1.199999809,1,0,200,23,1,199,2,1,0.3,1,stim/objects/Instruments/vuvuzela3.png,stim/34.jpeg,3,stim/3.png,4,4,58,2021-02-24_08h04.01.797,premup-three_ses-02_part-03_label-phase3,3.2.4,MacIntel,60
1,left,1.250999928,,,0,,,0,,,1,0,200,102,1,199,0,1,0,2,stim/objects/Instruments/balalaika.png,,0,stim/0.png,0,0,58,2021-02-24_08h04.01.797,premup-three_ses-02_part-03_label-phase3,3.2.4,MacIntel,60
1,right,1.873999834,,,0,,,0,,,1,0,200,148,1,199,0,1,0,2,stim/objects/Instruments/metronome.png,,0,stim/0.png,0,0,58,2021-02-24_08h04.01.797,premup-three_ses-02_part-03_label-phase3,3.2.4,MacIntel,60
1,right,0.879999876,,,0,,,0,,,1,0,200,134,1,199,0,2,0,2,stim/objects/HouseObjects/dishsoap.png,,0,stim/0.png,0,0,58,2021-02-24_08h04.01.797,premup-three_ses-02_part-03_label-phase3,3.2.4,MacIntel,60
1,left,0.664000034,4,1.782999754,0,3,4.598999739,0,3,1.102999926,1,0,200,62,1,199,3,1,0.1,1,stim/objects/Instruments/frenchhorn4.png,stim/53.jpeg,5,stim/5.png,3,4,58,2021-02-24_08h04.01.797,premup-three_ses-02_part-03_label-phase3,3.2.4,MacIntel,60
1,right,1.023000002,2,1.470000029,0,2,1.108999968,0,4,1.728000164,1,0,200,82,1,199,3,1,0.9,1,stim/objects/Instruments/marimba4.png,stim/63.jpeg,6,stim/6.png,3,3,58,2021-02-24_08h04.01.797,premup-three_ses-02_part-03_label-phase3,3.2.4,MacIntel,60
1,right,3.444999933,2,3.239000082,0,3,2.478999853,0,3,1.244999886,1,0,200,34,1,199,2,2,0.7,1,stim/objects/HouseObjects/wateringcan3.png,stim/32.jpeg,3,stim/3.png,2,3,58,2021-02-24_08h04.01.797,premup-three_ses-02_part-03_label-phase3,3.2.4,MacIntel,60
1,right,1.909999847,1,2.122999907,0,4,2.045000076,0,1,2.023999929,1,0,200,67,1,199,3,1,0.1,1,stim/objects/Instruments/harp4.png,stim/54.jpeg,5,stim/5.png,4,2,58,2021-02-24_08h04.01.797,premup-three_ses-02_part-03_label-phase3,3.2.4,MacIntel,60
1,left,1.108999968,,,0,,,0,,,1,0,200,184,1,199,0,1,0,2,stim/objects/Instruments/cornet2.png,,0,stim/0.png,0,0,58,2021-02-24_08h04.01.797,premup-three_ses-02_part-03_label-phase3,3.2.4,MacIntel,60
1,right,0.713999987,,,0,,,0,,,1,0,200,150,1,199,0,2,0,2,stim/objects/HouseObjects/glassmop.png,,0,stim/0.png,0,0,58,2021-02-24_08h04.01.797,premup-three_ses-02_part-03_label-phase3,3.2.4,MacIntel,60
1,right,0.740999937,3,1.651999712,0,4,1.512999773,0,2,1.387000084,1,0,200,38,1,199,2,2,0.7,1,stim/objects/HouseObjects/basket4.png,stim/32.jpeg,3,stim/3.png,2,2,58,2021-02-24_08h04.01.797,premup-three_ses-02_part-03_label-phase3,3.2.4,MacIntel,60
1,right,1.696000099,2,1.782999992,0,3,3.802999973,0,2,1.894999981,1,0,200,47,1,199,2,1,0.7,1,stim/objects/Instruments/drums4.png,stim/43.jpeg,4,stim/4.png,3,4,58,2021-02-24_08h04.01.797,premup-three_ses-02_part-03_label-phase3,3.2.4,MacIntel,60
1,left,1.328999996,4,1.671000004,0,2,3.444000006,0,4,3.027999878,1,0,200,27,1,199,2,1,0.3,1,stim/objects/Instruments/balalaika4.png,stim/34.jpeg,3,stim/3.png,4,2,58,2021-02-24_08h04.01.797,premup-three_ses-02_part-03_label-phase3,3.2.4,MacIntel,60
1,right,0.950999975,,,0,,,0,,,1,0,200,143,1,199,0,1,0,2,stim/objects/Instruments/hihat.png,,0,stim/0.png,0,0,58,2021-02-24_08h04.01.797,premup-three_ses-02_part-03_label-phase3,3.2.4,MacIntel,60
1,right,1.474999905,,,0,,,0,,,1,0,200,165,1,199,0,1,0,2,stim/objects/Instruments/accordion2.png,,0,stim/0.png,0,0,58,2021-02-24_08h04.01.797,premup-three_ses-02_part-03_label-phase3,3.2.4,MacIntel,60
1,right,0.700999975,3,1.701999903,0,2,2.960000038,0,3,1.195999861,1,0,200,72,1,199,3,2,0.9,1,stim/objects/HouseObjects/flyswatter4.png,stim/51.jpeg,5,stim/5.png,1,1,58,2021-02-24_08h04.01.797,premup-three_ses-02_part-03_label-phase3,3.2.4,MacIntel,60
1,right,0.965999842,,,0,,,0,,,1,0,200,170,1,199,0,2,0,2,stim/objects/HouseObjects/pan.png,,0,stim/0.png,0,0,58,2021-02-24_08h04.01.797,premup-three_ses-02_part-03_label-phase3,3.2.4,MacIntel,60
1,left,1.138999939,,,0,,,0,,,1,0,200,122,1,199,0,1,0,2,stim/objects/Instruments/drums.png,,0,stim/0.png,0,0,58,2021-02-24_08h04.01.797,premup-three_ses-02_part-03_label-phase3,3.2.4,MacIntel,60
1,right,0.89199996,,,0,,,0,,,1,0,200,154,1,199,0,2,0,2,stim/objects/HouseObjects/iron.png,,0,stim/0.png,0,0,58,2021-02-24_08h04.01.797,premup-three_ses-02_part-03_label-phase3,3.2.4,MacIntel,60
1,left,1.142999887,,,0,,,0,,,1,0,200,164,1,199,0,1,0,2,stim/objects/Instruments/xylophone.png,,0,stim/0.png,0,0,58,2021-02-24_08h04.01.797,premup-three_ses-02_part-03_label-phase3,3.2.4,MacIntel,60
1,left,1.677999973,3,1.388999939,0,3,2.028000116,0,3,1.845999718,1,0,200,37,1,199,2,2,0.7,1,stim/objects/HouseObjects/barbecuelighter4.png,stim/31.jpeg,3,stim/3.png,1,1,58,2021-02-24_08h04.01.797,premup-three_ses-02_part-03_label-phase3,3.2.4,MacIntel,60
1,right,1.576999903,,,0,,,0,,,1,0,200,167,1,199,0,1,0,2,stim/objects/Instruments/balalaika2.png,,0,stim/0.png,0,0,58,2021-02-24_08h04.01.797,premup-three_ses-02_part-03_label-phase3,3.2.4,MacIntel,60
1,left,1.010999918,3,1.332999945,0,1,1.3349998,0,4,1.644999743,1,0,200,15,1,199,1,2,0.5,1,stim/objects/HouseObjects/ironingboard3.png,stim/24.jpeg,2,stim/2.png,4,1,58,2021-02-24_08h04.01.797,premup-three_ses-02_part-03_label-phase3,3.2.4,MacIntel,60
1,right,1.695999861,,,0,,,0,,,1,0,200,185,1,199,0,1,0,2,stim/objects/Instruments/cymbal2.png,,0,stim/0.png,0,0,58,2021-02-24_08h04.01.797,premup-three_ses-02_part-03_label-phase3,3.2.4,MacIntel,60
1,right,0.941999912,3,1.930999994,0,4,1.55099988,0,3,1.597000122,1,0,200,3,1,199,1,1,0.5,1,stim/objects/Instruments/hihat3.png,stim/12.jpeg,1,stim/1.png,2,3,58,2021-02-24_08h04.01.797,premup-three_ses-02_part-03_label-phase3,3.2.4,MacIntel,60
1,right,0.997999907,,,0,,,0,,,1,0,200,179,1,199,0,2,0,2,stim/objects/HouseObjects/bleachbottle2.png,,0,stim/0.png,0,0,58,2021-02-24_08h04.01.797,premup-three_ses-02_part-03_label-phase3,3.2.4,MacIntel,60
1,right,0.782999992,1,4.501999855,0,2,1.986999989,0,3,3.230999947,1,0,200,76,1,199,3,2,0.9,1,stim/objects/HouseObjects/hairdryer4.png,stim/51.jpeg,5,stim/5.png,1,4,58,2021-02-24_08h04.01.797,premup-three_ses-02_part-03_label-phase3,3.2.4,MacIntel,60
1,right,1.305000067,3,1.651000023,0,2,1.855999947,0,3,1.663000107,1,0,200,54,1,199,2,2,0.3,1,stim/objects/HouseObjects/clock4.png,stim/42.jpeg,4,stim/4.png,2,2,58,2021-02-24_08h04.01.797,premup-three_ses-02_part-03_label-phase3,3.2.4,MacIntel,60
1,left,1.464999914,3,1.432999849,0,2,1.911999941,0,2,1.480999947,1,0,200,33,1,199,2,2,0.7,1,stim/objects/HouseObjects/vacuumcleaner3.png,stim/31.jpeg,3,stim/3.png,1,3,58,2021-02-24_08h04.01.797,premup-three_ses-02_part-03_label-phase3,3.2.4,MacIntel,60
1,left,1.161999941,,,0,,,0,,,1,0,200,161,1,199,0,1,0,2,stim/objects/Instruments/oboe.png,,0,stim/0.png,0,0,58,2021-02-24_08h04.01.797,premup-three_ses-02_part-03_label-phase3,3.2.4,MacIntel,60
1,right,1.056999922,2,3.143999815,0,3,2.862999916,0,2,1.938999891,1,0,200,74,1,199,3,2,0.9,1,stim/objects/HouseObjects/glass4.png,stim/53.jpeg,5,stim/5.png,3,4,58,2021-02-24_08h04.01.797,premup-three_ses-02_part-03_label-phase3,3.2.4,MacIntel,60
1,left,1.687000036,2,2.963999987,0,1,2.453999996,0,3,1.55099988,1,0,200,86,1,199,3,1,0.9,1,stim/objects/Instruments/oboe4.png,stim/63.jpeg,6,stim/6.png,3,1,58,2021-02-24_08h04.01.797,premup-three_ses-02_part-03_label-phase3,3.2.4,MacIntel,60
1,right,1.227999926,,,0,,,0,,,1,0,200,169,1,199,0,1,0,2,stim/objects/Instruments/bassdrum2.png,,0,stim/0.png,0,0,58,2021-02-24_08h04.01.797,premup-three_ses-02_part-03_label-phase3,3.2.4,MacIntel,60
1,left,0.868000031,4,1.135999918,0,4,2.047999859,0,3,1.897999763,1,0,200,46,1,199,2,1,0.7,1,stim/objects/Instruments/doublebass4.png,stim/42.jpeg,4,stim/4.png,2,4,58,2021-02-24_08h04.01.797,premup-three_ses-02_part-03_label-phase3,3.2.4,MacIntel,60
1,right,1.244999886,2,3.603999853,0,2,1.561999798,0,1,2.078999758,1,0,200,0,1,199,1,1,0.5,1,stim/objects/Instruments/guitarcase3.png,stim/13.jpeg,1,stim/1.png,3,1,58,2021-02-24_08h04.01.797,premup-three_ses-02_part-03_label-phase3,3.2.4,MacIntel,60
1,left,1.61500001,,,0,,,0,,,1,0,200,127,1,199,0,1,0,2,stim/objects/Instruments/frenchhorn.png,,0,stim/0.png,0,0,58,2021-02-24_08h04.01.797,premup-three_ses-02_part-03_label-phase3,3.2.4,MacIntel,60
1,right,1.027999878,,,0,,,0,,,1,0,200,198,1,199,0,2,0,2,stim/objects/HouseObjects/cushion2.png,,0,stim/0.png,0,0,58,2021-02-24_08h04.01.797,premup-three_ses-02_part-03_label-phase3,3.2.4,MacIntel,60
1,right,2.109999895,3,1.506999731,0,2,3.413999796,0,4,1.717999935,1,0,200,78,1,199,3,2,0.9,1,stim/objects/HouseObjects/handvacuum4.png,stim/53.jpeg,5,stim/5.png,3,3,58,2021-02-24_08h04.01.797,premup-three_ses-02_part-03_label-phase3,3.2.4,MacIntel,60
1,right,1.047999859,,,0,,,0,,,1,0,200,112,1,199,0,2,0,2,stim/objects/HouseObjects/barbecuelighter.png,,0,stim/0.png,0,0,58,2021-02-24_08h04.01.797,premup-three_ses-02_part-03_label-phase3,3.2.4,MacIntel,60
1,right,0.944999933,,,0,,,0,,,1,0,200,175,1,199,0,2,0,2,stim/objects/HouseObjects/ashtray2.png,,0,stim/0.png,0,0,58,2021-02-24_08h04.01.797,premup-three_ses-02_part-03_label-phase3,3.2.4,MacIntel,60
1,right,1.161999941,4,1.468999863,0,2,2.929999828,0,2,1.427999973,1,0,200,96,1,199,3,2,0.1,1,stim/objects/HouseObjects/pitcher4.png,stim/61.jpeg,6,stim/6.png,1,4,58,2021-02-24_08h04.01.797,premup-three_ses-02_part-03_label-phase3,3.2.4,MacIntel,60
1,left,2.207000017,,,0,,,0,,,1,0,200,100,1,199,0,1,0,2,stim/objects/Instruments/accordion.png,,0,stim/0.png,0,0,58,2021-02-24_08h04.01.797,premup-three_ses-02_part-03_label-phase3,3.2.4,MacIntel,60
1,right,0.794999838,3,2.736999989,0,4,1.246999979,0,2,1.977999926,1,0,200,17,1,199,1,2,0.5,1,stim/objects/HouseObjects/knife3.png,stim/22.jpeg,2,stim/2.png,2,2,58,2021-02-24_08h04.01.797,premup-three_ses-02_part-03_label-phase3,3.2.4,MacIntel,60
1,right,0.972999811,2,3.663999796,0,4,2.647000074,0,3,1.611000061,1,0,200,16,1,199,1,2,0.5,1,stim/objects/HouseObjects/key3.png,stim/21.jpeg,2,stim/2.png,1,4,58,2021-02-24_08h04.01.797,premup-three_ses-02_part-03_label-phase3,3.2.4,MacIntel,60
1,right,1.242999792,3,4.312999964,0,4,2.167999983,0,2,2.275999784,1,0,200,85,1,199,3,1,0.9,1,stim/objects/Instruments/musicstand4.png,stim/62.jpeg,6,stim/6.png,2,2,58,2021-02-24_08h04.01.797,premup-three_ses-02_part-03_label-phase3,3.2.4,MacIntel,60
1,right,1.062999964,2,2.157000065,0,1,2.651000023,0,4,1.625999928,1,0,200,68,1,199,3,1,0.1,1,stim/objects/Instruments/hihat4.png,stim/51.jpeg,5,stim/5.png,1,2,58,2021-02-24_08h04.01.797,premup-three_ses-02_part-03_label-phase3,3.2.4,MacIntel,60
1,left,2.211999893,,,0,,,0,,,1,0,200,155,1,199,0,2,0,2,stim/objects/HouseObjects/ironingboard.png,,0,stim/0.png,0,0,58,2021-02-24_08h04.01.797,premup-three_ses-02_part-03_label-phase3,3.2.4,MacIntel,60
1,right,1.941999912,,,0,,,0,,,1,0,200,120,1,199,0,1,0,2,stim/objects/Instruments/cymbal.png,,0,stim/0.png,0,0,58,2021-02-24_08h04.01.797,premup-three_ses-02_part-03_label-phase3,3.2.4,MacIntel,60
1,right,0.989999771,,,0,,,0,,,1,0,200,104,1,199,0,1,0,2,stim/objects/Instruments/bassdrum.png,,0,stim/0.png,0,0,58,2021-02-24_08h04.01.797,premup-three_ses-02_part-03_label-phase3,3.2.4,MacIntel,60
1,right,0.960000038,,,0,,,0,,,1,0,200,153,1,199,0,2,0,2,stim/objects/HouseObjects/handvacuum.png,,0,stim/0.png,0,0,58,2021-02-24_08h04.01.797,premup-three_ses-02_part-03_label-phase3,3.2.4,MacIntel,60
1,left,0.889999866,,,0,,,0,,,1,0,200,146,1,199,0,1,0,2,stim/objects/Instruments/maraca.png,,0,stim/0.png,0,0,58,2021-02-24_08h04.01.797,premup-three_ses-02_part-03_label-phase3,3.2.4,MacIntel,60
1,right,1.379999876,3,1.353999853,0,2,1.730000019,0,2,1.348999977,1,0,200,9,1,199,1,1,0.5,1,stim/objects/HouseObjects/iron3.png,stim/12.jpeg,1,stim/1.png,2,2,58,2021-02-24_08h04.01.797,premup-three_ses-02_part-03_label-phase3,3.2.4,MacIntel,60
1,right,2.210000038,2,1.802999973,0,4,1.717999935,0,3,2.275999784,1,0,200,49,1,199,2,1,0.7,1,stim/objects/Instruments/electricguitar4.png,stim/41.jpeg,4,stim/4.png,1,3,58,2021-02-24_08h04.01.797,premup-three_ses-02_part-03_label-phase3,3.2.4,MacIntel,60
1,left,1.161000013,4,1.198999882,0,2,3.378999949,0,3,3.112999916,1,0,200,81,1,199,3,1,0.9,1,stim/objects/Instruments/maraca4.png,stim/62.jpeg,6,stim/6.png,2,4,58,2021-02-24_08h04.01.797,premup-three_ses-02_part-03_label-phase3,3.2.4,MacIntel,60
1,right,0.883999825,2,1.398000002,0,3,1.707000017,0,2,1.371999979,1,0,200,25,1,199,2,1,0.3,1,stim/objects/Instruments/accordion4.png,stim/32.jpeg,3,stim/3.png,2,4,58,2021-02-24_08h04.01.797,premup-three_ses-02_part-03_label-phase3,3.2.4,MacIntel,60
1,left,1.878999949,3,1.401000023,0,1,2.143999815,0,2,1.612999916,1,0,200,42,1,199,2,1,0.7,1,stim/objects/Instruments/chime4.png,stim/42.jpeg,4,stim/4.png,2,4,58,2021-02-24_08h04.01.797,premup-three_ses-02_part-03_label-phase3,3.2.4,MacIntel,60
1,right,0.894999981,2,1.442000151,0,4,1.303999901,0,3,1.850000143,1,0,200,77,1,199,3,2,0.9,1,stim/objects/HouseObjects/handbrush4.png,stim/52.jpeg,5,stim/5.png,2,1,58,2021-02-24_08h04.01.797,premup-three_ses-02_part-03_label-phase3,3.2.4,MacIntel,60
1,left,2.176999807,,,0,,,0,,,1,0,200,186,1,199,0,1,0,2,stim/objects/Instruments/doublebass2.png,,0,stim/0.png,0,0,58,2021-02-24_08h04.01.797,premup-three_ses-02_part-03_label-phase3,3.2.4,MacIntel,60
1,right,0.689999819,,,0,,,0,,,1,0,200,190,1,199,0,2,0,2,stim/objects/HouseObjects/blender2.png,,0,stim/0.png,0,0,58,2021-02-24_08h04.01.797,premup-three_ses-02_part-03_label-phase3,3.2.4,MacIntel,60
1,right,1.106999874,,,0,,,0,,,1,0,200,174,1,199,0,2,0,2,stim/objects/HouseObjects/wateringcan.png,,0,stim/0.png,0,0,58,2021-02-24_08h04.01.797,premup-three_ses-02_part-03_label-phase3,3.2.4,MacIntel,60
1,left,2.29399991,3,2.552999973,0,2,2.087999821,0,3,2.950999737,1,0,200,70,1,199,3,2,0.9,1,stim/objects/HouseObjects/doormat4.png,stim/53.jpeg,5,stim/5.png,3,1,58,2021-02-24_08h04.01.797,premup-three_ses-02_part-03_label-phase3,3.2.4,MacIntel,60
1,right,1.182999849,,,0,,,0,,,1,0,200,178,1,199,0,2,0,2,stim/objects/HouseObjects/basket2.png,,0,stim/0.png,0,0,58,2021-02-24_08h04.01.797,premup-three_ses-02_part-03_label-phase3,3.2.4,MacIntel,60
1,right,1.038999796,4,1.49000001,0,1,1.934999943,0,1,1.515000105,1,0,200,84,1,199,3,1,0.9,1,stim/objects/Instruments/musicsheet4.png,stim/61.jpeg,6,stim/6.png,1,1,58,2021-02-24_08h04.01.797,premup-three_ses-02_part-03_label-phase3,3.2.4,MacIntel,60
1,right,1.161999941,4,1.451999903,0,3,2.019000053,0,4,1.230000019,1,0,200,73,1,199,3,2,0.9,1,stim/objects/HouseObjects/garbagebin4.png,stim/52.jpeg,5,stim/5.png,2,1,58,2021-02-24_08h04.01.797,premup-three_ses-02_part-03_label-phase3,3.2.4,MacIntel,60
1,right,0.872999907,4,2.253000021,0,2,1.419999838,0,3,2.066999912,1,0,200,57,1,199,2,2,0.3,1,stim/objects/HouseObjects/coffee4.png,stim/41.jpeg,4,stim/4.png,1,3,58,2021-02-24_08h04.01.797,premup-three_ses-02_part-03_label-phase3,3.2.4,MacIntel,60
1,right,2.181999922,,,0,,,0,,,1,0,200,123,1,199,0,1,0,2,stim/objects/Instruments/electricdrumset.png,,0,stim/0.png,0,0,58,2021-02-24_08h04.01.797,premup-three_ses-02_part-03_label-phase3,3.2.4,MacIntel,60
1,right,0.699999809,,,0,,,0,,,1,0,200,136,1,199,0,2,0,2,stim/objects/HouseObjects/dustpan.png,,0,stim/0.png,0,0,58,2021-02-24_08h04.01.797,premup-three_ses-02_part-03_label-phase3,3.2.4,MacIntel,60
1,right,0.845000029,4,1.275000095,0,3,1.312000036,0,2,3.089999914,1,0,200,31,1,199,2,2,0.7,1,stim/objects/HouseObjects/pitcher3.png,stim/33.jpeg,3,stim/3.png,3,2,58,2021-02-24_08h04.01.797,premup-three_ses-02_part-03_label-phase3,3.2.4,MacIntel,60
1,right,1,,,0,,,0,,,1,0,200,189,1,199,0,1,0,2,stim/objects/Instruments/electricguitar2.png,,0,stim/0.png,0,0,58,2021-02-24_08h04.01.797,premup-three_ses-02_part-03_label-phase3,3.2.4,MacIntel,60
1,right,0.661000013,,,0,,,0,,,1,0,200,149,1,199,0,1,0,2,stim/objects/Instruments/musicsheet.png,,0,stim/0.png,0,0,58,2021-02-24_08h04.01.797,premup-three_ses-02_part-03_label-phase3,3.2.4,MacIntel,60
1,left,1.648000002,,,0,,,0,,,1,0,200,181,1,199,0,1,0,2,stim/objects/Instruments/cello2.png,,0,stim/0.png,0,0,58,2021-02-24_08h04.01.797,premup-three_ses-02_part-03_label-phase3,3.2.4,MacIntel,60
1,right,0.678999901,,,0,,,0,,,1,0,200,195,1,199,0,2,0,2,stim/objects/HouseObjects/clothesdryingrack2.png,,0,stim/0.png,0,0,58,2021-02-24_08h04.01.797,premup-three_ses-02_part-03_label-phase3,3.2.4,MacIntel,60
1,right,0.872999907,3,2.243999958,0,1,1.752999783,0,2,3.184999943,1,0,200,58,1,199,2,2,0.3,1,stim/objects/HouseObjects/cushion4.png,stim/42.jpeg,4,stim/4.png,2,2,58,2021-02-24_08h04.01.797,premup-three_ses-02_part-03_label-phase3,3.2.4,MacIntel,60
1,right,0.912999868,3,2.129999876,0,4,1.967999935,0,3,1.285999775,1,0,200,71,1,199,3,2,0.9,1,stim/objects/HouseObjects/dustpan4.png,stim/54.jpeg,5,stim/5.png,4,2,58,2021-02-24_08h04.01.797,premup-three_ses-02_part-03_label-phase3,3.2.4,MacIntel,60
1,left,1.589999914,,,0,,,0,,,1,0,200,108,1,199,0,1,0,2,stim/objects/Instruments/clarinet.png,,0,stim/0.png,0,0,58,2021-02-24_08h04.01.797,premup-three_ses-02_part-03_label-phase3,3.2.4,MacIntel,60
1,right,0.878999949,4,1.735999823,0,4,1.899999857,0,2,1.764999866,1,0,200,93,1,199,3,2,0.1,1,stim/objects/HouseObjects/lintroller4.png,stim/62.jpeg,6,stim/6.png,2,4,58,2021-02-24_08h04.01.797,premup-three_ses-02_part-03_label-phase3,3.2.4,MacIntel,60
1,left,1.513000011,4,1.40899992,0,4,3.645999908,0,3,5.444000006,1,0,200,55,1,199,2,2,0.3,1,stim/objects/HouseObjects/clothesdryingrack4.png,stim/43.jpeg,4,stim/4.png,3,2,58,2021-02-24_08h04.01.797,premup-three_ses-02_part-03_label-phase3,3.2.4,MacIntel,60
1,right,1.263999939,4,4.213000059,0,3,2.33100009,0,2,1.371000051,1,0,200,88,1,199,3,1,0.9,1,stim/objects/Instruments/vuvuzela4.png,stim/61.jpeg,6,stim/6.png,1,4,58,2021-02-24_08h04.01.797,premup-three_ses-02_part-03_label-phase3,3.2.4,MacIntel,60
1,right,66.57199979,,,0,,,0,,,1,0,200,187,1,199,0,1,0,2,stim/objects/Instruments/drums2.png,,0,stim/0.png,0,0,58,2021-02-24_08h04.01.797,premup-three_ses-02_part-03_label-phase3,3.2.4,MacIntel,60
1,left,1.411999702,,,0,,,0,,,1,0,200,177,1,199,0,2,0,2,stim/objects/HouseObjects/barbecuelighter2.png,,0,stim/0.png,0,0,58,2021-02-24_08h04.01.797,premup-three_ses-02_part-03_label-phase3,3.2.4,MacIntel,60
1,left,0.913000107,4,1.482999802,0,2,3.481999874,0,4,2.02699995,1,0,200,36,1,199,2,2,0.7,1,stim/objects/HouseObjects/ballofstring4.png,stim/34.jpeg,3,stim/3.png,4,4,58,2021-02-24_08h04.01.797,premup-three_ses-02_part-03_label-phase3,3.2.4,MacIntel,60
1,right,0.871999741,3,5.164999962,0,2,2.211999893,0,3,1.176999807,1,0,200,30,1,199,2,2,0.7,1,stim/objects/HouseObjects/pan3.png,stim/32.jpeg,3,stim/3.png,2,2,58,2021-02-24_08h04.01.797,premup-three_ses-02_part-03_label-phase3,3.2.4,MacIntel,60
1,right,0.782999992,,,0,,,0,,,1,0,200,173,1,199,0,2,0,2,stim/objects/HouseObjects/vacuumcleaner.png,,0,stim/0.png,0,0,58,2021-02-24_08h04.01.797,premup-three_ses-02_part-03_label-phase3,3.2.4,MacIntel,60
1,left,1.774999857,2,2.270999908,0,1,2.122999907,0,1,1.315000057,1,0,200,87,1,199,3,1,0.9,1,stim/objects/Instruments/violin4.png,stim/64.jpeg,6,stim/6.png,4,3,58,2021-02-24_08h04.01.797,premup-three_ses-02_part-03_label-phase3,3.2.4,MacIntel,60
1,right,1.278999805,4,1.414999723,0,3,2.426999807,0,3,1.507999897,1,0,200,69,1,199,3,1,0.1,1,stim/objects/Instruments/keyboard4.png,stim/52.jpeg,5,stim/5.png,2,4,58,2021-02-24_08h04.01.797,premup-three_ses-02_part-03_label-phase3,3.2.4,MacIntel,60
1,right,0.984999895,4,1.219000101,0,4,1.164000034,0,2,1.144999981,1,0,200,4,1,199,1,1,0.5,1,stim/objects/Instruments/keyboard3.png,stim/13.jpeg,1,stim/1.png,3,2,58,2021-02-24_08h04.01.797,premup-three_ses-02_part-03_label-phase3,3.2.4,MacIntel,60
1,left,1.157000065,3,1.881999969,0,4,2.546000004,0,2,1.479000092,1,0,200,99,1,199,3,2,0.1,1,stim/objects/HouseObjects/wateringcan4.png,stim/64.jpeg,6,stim/6.png,4,2,58,2021-02-24_08h04.01.797,premup-three_ses-02_part-03_label-phase3,3.2.4,MacIntel,60
1,right,1.976999998,2,4.884999752,0,3,2.007999897,0,3,1.073999882,1,0,200,40,1,199,2,1,0.7,1,stim/objects/Instruments/bassguitar4.png,stim/44.jpeg,4,stim/4.png,4,1,58,2021-02-24_08h04.01.797,premup-three_ses-02_part-03_label-phase3,3.2.4,MacIntel,60
1,right,0.911999941,1,2.953999996,0,2,2.307999849,0,3,1.710999966,1,0,200,43,1,199,2,1,0.7,1,stim/objects/Instruments/clarinet4.png,stim/43.jpeg,4,stim/4.png,3,3,58,2021-02-24_08h04.01.797,premup-three_ses-02_part-03_label-phase3,3.2.4,MacIntel,60
1,right,1.162999868,,,0,,,0,,,1,0,200,193,1,199,0,2,0,2,stim/objects/HouseObjects/bucket2.png,,0,stim/0.png,0,0,58,2021-02-24_08h04.01.797,premup-three_ses-02_part-03_label-phase3,3.2.4,MacIntel,60
1,right,2.30099988,4,1.324999809,0,1,1.468999863,0,1,1.161999941,1,0,200,20,1,199,2,1,0.3,1,stim/objects/Instruments/musicstand3.png,stim/31.jpeg,3,stim/3.png,1,2,58,2021-02-24_08h04.01.797,premup-three_ses-02_part-03_label-phase3,3.2.4,MacIntel,60
1,right,1.345000029,,,0,,,0,,,1,0,200,172,1,199,0,2,0,2,stim/objects/HouseObjects/towel.png,,0,stim/0.png,0,0,58,2021-02-24_08h04.01.797,premup-three_ses-02_part-03_label-phase3,3.2.4,MacIntel,60
1,right,0.647000074,4,2.398000002,0,4,1.885999918,0,3,1.150000095,1,0,200,51,1,199,2,2,0.3,1,stim/objects/HouseObjects/bottle4.png,stim/43.jpeg,4,stim/4.png,3,3,58,2021-02-24_08h04.01.797,premup-three_ses-02_part-03_label-phase3,3.2.4,MacIntel,60
1,right,1.017999887,1,3.523999929,0,1,1.617999792,0,2,2.049000025,1,0,200,75,1,199,3,2,0.9,1,stim/objects/HouseObjects/glassmop4.png,stim/54.jpeg,5,stim/5.png,4,3,58,2021-02-24_08h04.01.797,premup-three_ses-02_part-03_label-phase3,3.2.4,MacIntel,60
1,right,1.223999977,1,2.286999941,0,3,2.332999945,0,3,1.069999933,1,0,200,61,1,199,3,1,0.1,1,stim/objects/Instruments/flutetrans4.png,stim/52.jpeg,5,stim/5.png,2,4,58,2021-02-24_08h04.01.797,premup-three_ses-02_part-03_label-phase3,3.2.4,MacIntel,60
1,left,3.032999754,,,0,,,0,,,1,0,200,109,1,199,0,1,0,2,stim/objects/Instruments/cornet.png,,0,stim/0.png,0,0,58,2021-02-24_08h04.01.797,premup-three_ses-02_part-03_label-phase3,3.2.4,MacIntel,60
1,right,1.097000122,,,0,,,0,,,1,0,200,139,1,199,0,2,0,2,stim/objects/HouseObjects/glass.png,,0,stim/0.png,0,0,58,2021-02-24_08h04.01.797,premup-three_ses-02_part-03_label-phase3,3.2.4,MacIntel,60
1,right,1.159999847,,,0,,,0,,,1,0,200,147,1,199,0,1,0,2,stim/objects/Instruments/marimba.png,,0,stim/0.png,0,0,58,2021-02-24_08h04.01.797,premup-three_ses-02_part-03_label-phase3,3.2.4,MacIntel,60
1,right,0.777999878,,,0,,,0,,,1,0,200,115,1,199,0,2,0,2,stim/objects/HouseObjects/blender.png,,0,stim/0.png,0,0,58,2021-02-24_08h04.01.797,premup-three_ses-02_part-03_label-phase3,3.2.4,MacIntel,60
1,right,0.856999874,,,0,,,0,,,1,0,200,194,1,199,0,2,0,2,stim/objects/HouseObjects/clock2.png,,0,stim/0.png,0,0,58,2021-02-24_08h04.01.797,premup-three_ses-02_part-03_label-phase3,3.2.4,MacIntel,60
1,right,1.089999914,,,0,,,0,,,1,0,200,171,1,199,0,2,0,2,stim/objects/HouseObjects/pitcher.png,,0,stim/0.png,0,0,58,2021-02-24_08h04.01.797,premup-three_ses-02_part-03_label-phase3,3.2.4,MacIntel,60
1,right,1.596999884,4,2.187999964,0,2,1.646999836,0,3,1.20299983,1,0,200,79,1,199,3,2,0.9,1,stim/objects/HouseObjects/iron4.png,stim/54.jpeg,5,stim/5.png,4,2,58,2021-02-24_08h04.01.797,premup-three_ses-02_part-03_label-phase3,3.2.4,MacIntel,60
1,left,1.180999994,4,1.214999914,0,1,2.219000101,0,3,2.167999983,1,0,200,64,1,199,3,1,0.1,1,stim/objects/Instruments/grandpiano4.png,stim/51.jpeg,5,stim/5.png,1,4,58,2021-02-24_08h04.01.797,premup-three_ses-02_part-03_label-phase3,3.2.4,MacIntel,60
1,right,0.860999823,,,0,,,0,,,1,0,200,192,1,199,0,2,0,2,stim/objects/HouseObjects/broom2.png,,0,stim/0.png,0,0,58,2021-02-24_08h04.01.797,premup-three_ses-02_part-03_label-phase3,3.2.4,MacIntel,60
1,right,0.726000071,4,1.437999964,0,2,1.851999998,0,3,1.115999937,1,0,200,44,1,199,2,1,0.7,1,stim/objects/Instruments/cornet4.png,stim/44.jpeg,4,stim/4.png,4,4,58,2021-02-24_08h04.01.797,premup-three_ses-02_part-03_label-phase3,3.2.4,MacIntel,60
1,right,0.92599988,1,2.616999865,0,4,1.355000019,0,2,1.530999899,1,0,200,29,1,199,2,1,0.3,1,stim/objects/Instruments/bassdrum4.png,stim/32.jpeg,3,stim/3.png,2,3,58,2021-02-24_08h04.01.797,premup-three_ses-02_part-03_label-phase3,3.2.4,MacIntel,60
1,right,1.188999891,,,0,,,0,,,1,0,200,126,1,199,0,1,0,2,stim/objects/Instruments/flutetrans.png,,0,stim/0.png,0,0,58,2021-02-24_08h04.01.797,premup-three_ses-02_part-03_label-phase3,3.2.4,MacIntel,60
1,left,1.066999912,4,1.039999962,0,1,2.832999706,0,2,1.984999895,1,0,200,35,1,199,2,2,0.7,1,stim/objects/HouseObjects/ashtray4.png,stim/33.jpeg,3,stim/3.png,3,1,58,2021-02-24_08h04.01.797,premup-three_ses-02_part-03_label-phase3,3.2.4,MacIntel,60
1,right,0.889999866,,,0,,,0,,,1,0,200,151,1,199,0,2,0,2,stim/objects/HouseObjects/hairdryer.png,,0,stim/0.png,0,0,58,2021-02-24_08h04.01.797,premup-three_ses-02_part-03_label-phase3,3.2.4,MacIntel,60
1,right,0.677999735,2,2.802999973,0,2,1.26699996,0,2,1.582999706,1,0,200,50,1,199,2,2,0.3,1,stim/objects/HouseObjects/blender4.png,stim/42.jpeg,4,stim/4.png,2,2,58,2021-02-24_08h04.01.797,premup-three_ses-02_part-03_label-phase3,3.2.4,MacIntel,60
1,right,1.378000021,,,0,,,0,,,1,0,200,166,1,199,0,1,0,2,stim/objects/Instruments/acousticguitar2.png,,0,stim/0.png,0,0,58,2021-02-24_08h04.01.797,premup-three_ses-02_part-03_label-phase3,3.2.4,MacIntel,60
1,right,0.712999821,,,0,,,0,,,1,0,200,105,1,199,0,1,0,2,stim/objects/Instruments/bassguitar.png,,0,stim/0.png,0,0,58,2021-02-24_08h04.01.797,premup-three_ses-02_part-03_label-phase3,3.2.4,MacIntel,60
1,right,1.016000032,,,0,,,0,,,1,0,200,125,1,199,0,1,0,2,stim/objects/Instruments/flute.png,,0,stim/0.png,0,0,58,2021-02-24_08h04.01.797,premup-three_ses-02_part-03_label-phase3,3.2.4,MacIntel,60
1,left,1.139999866,3,1.381999969,0,3,1.096999884,0,2,1.503000021,1,0,200,28,1,199,2,1,0.3,1,stim/objects/Instruments/banjo4.png,stim/31.jpeg,3,stim/3.png,1,3,58,2021-02-24_08h04.01.797,premup-three_ses-02_part-03_label-phase3,3.2.4,MacIntel,60
