id_acc,key_resp_id.keys,key_resp_id.rt,key_resp_conf.keys,key_resp_conf.rt,assoc_acc,key_resp_assoc.keys,key_resp_assoc.rt,loc_acc,key_resp_loc.keys,key_resp_loc.rt,task_innerloop.thisRepN,task_innerloop.thisTrialN,task_innerloop.thisN,task_innerloop.thisIndex,task_innerloop.ran,task_innerloop.order,context_type,object_cat,PE_level,OvsN,obj_file,scn_file,corr_scn_cat,assoc_file,corr_scn_inst,corr_loc,participant,date,expName,psychopyVersion,OS,frameRate
1,right,1.554999828,,,0,,,0,,,1,0,200,180,1,199,0,1,0,2,stim/objects/HouseObjects/blender4.png,,0,stim/0.png,0,0,59,2021-02-24_08h00.12.940,premup-three_ses-02_part-03_label-phase3,3.2.4,MacIntel,60
1,left,0.799999952,,,0,,,0,,,1,0,200,177,1,199,0,2,0,2,stim/objects/Instruments/balalaika4.png,,0,stim/0.png,0,0,59,2021-02-24_08h00.12.940,premup-three_ses-02_part-03_label-phase3,3.2.4,MacIntel,60
1,right,1.461999893,2,1.861999989,0,1,4.088999748,0,2,2.311000109,1,0,200,41,1,199,2,1,0.7,1,stim/objects/HouseObjects/bottle2.png,stim/61.jpeg,6,stim/6.png,1,4,59,2021-02-24_08h00.12.940,premup-three_ses-02_part-03_label-phase3,3.2.4,MacIntel,60
1,left,1.446000099,3,2.460000038,0,3,3.089999914,0,4,1.861000061,1,0,200,75,1,199,3,2,0.9,1,stim/objects/Instruments/guitarcase2.png,stim/14.jpeg,1,stim/1.png,4,4,59,2021-02-24_08h00.12.940,premup-three_ses-02_part-03_label-phase3,3.2.4,MacIntel,60
1,left,1.133999825,1,1.667999983,0,1,2.871000051,0,4,2.385999918,1,0,200,70,1,199,3,2,0.9,1,stim/objects/Instruments/flute2.png,stim/13.jpeg,1,stim/1.png,3,3,59,2021-02-24_08h00.12.940,premup-three_ses-02_part-03_label-phase3,3.2.4,MacIntel,60
1,right,2.369999886,1,3.660999775,0,3,5.187000036,0,2,3.013999939,1,0,200,56,1,199,2,2,0.3,1,stim/objects/Instruments/doublebass2.png,stim/64.jpeg,6,stim/6.png,4,2,59,2021-02-24_08h00.12.940,premup-three_ses-02_part-03_label-phase3,3.2.4,MacIntel,60
1,right,1.463999748,2,1.47300005,0,4,3.997999907,0,1,4.462999821,1,0,200,39,1,199,2,2,0.7,1,stim/objects/Instruments/bassdrum2.png,stim/53.jpeg,5,stim/5.png,3,2,59,2021-02-24_08h00.12.940,premup-three_ses-02_part-03_label-phase3,3.2.4,MacIntel,60
1,right,1.095999718,,,0,,,0,,,1,0,200,190,1,199,0,2,0,2,stim/objects/Instruments/bassguitar4.png,,0,stim/0.png,0,0,59,2021-02-24_08h00.12.940,premup-three_ses-02_part-03_label-phase3,3.2.4,MacIntel,60
1,right,0.960999966,,,0,,,0,,,1,0,200,194,1,199,0,2,0,2,stim/objects/Instruments/cornet4.png,,0,stim/0.png,0,0,59,2021-02-24_08h00.12.940,premup-three_ses-02_part-03_label-phase3,3.2.4,MacIntel,60
1,left,0.884000063,4,2.217000008,0,4,4.198999882,0,2,2.383999825,1,0,200,71,1,199,3,2,0.9,1,stim/objects/Instruments/flutetrans2.png,stim/14.jpeg,1,stim/1.png,4,4,59,2021-02-24_08h00.12.940,premup-three_ses-02_part-03_label-phase3,3.2.4,MacIntel,60
1,right,1.282000065,2,1.940000057,0,4,2.450999975,0,2,3.062999964,1,0,200,86,1,199,3,1,0.9,1,stim/objects/HouseObjects/pitcher2.png,stim/23.jpeg,2,stim/2.png,3,2,59,2021-02-24_08h00.12.940,premup-three_ses-02_part-03_label-phase3,3.2.4,MacIntel,60
1,right,1.645999908,,,0,,,0,,,1,0,200,153,1,199,0,2,0,2,stim/objects/Instruments/hihat3.png,,0,stim/0.png,0,0,59,2021-02-24_08h00.12.940,premup-three_ses-02_part-03_label-phase3,3.2.4,MacIntel,60
1,left,0.957999945,3,1.470999956,0,2,6.404000044,0,2,3.499999762,1,0,200,58,1,199,2,2,0.3,1,stim/objects/Instruments/electricdrumset2.png,stim/62.jpeg,6,stim/6.png,2,4,59,2021-02-24_08h00.12.940,premup-three_ses-02_part-03_label-phase3,3.2.4,MacIntel,60
1,right,1.194999933,,,0,,,0,,,1,0,200,100,1,199,0,1,0,2,stim/objects/HouseObjects/ashtray3.png,,0,stim/0.png,0,0,59,2021-02-24_08h00.12.940,premup-three_ses-02_part-03_label-phase3,3.2.4,MacIntel,60
1,left,0.885999918,3,1.454999924,0,1,4.417000055,0,1,1.191999912,1,0,200,98,1,199,3,2,0.1,1,stim/objects/Instruments/pipepiano2.png,stim/23.jpeg,2,stim/2.png,3,3,59,2021-02-24_08h00.12.940,premup-three_ses-02_part-03_label-phase3,3.2.4,MacIntel,60
1,right,1.247999907,,,0,,,0,,,1,0,200,181,1,199,0,1,0,2,stim/objects/HouseObjects/bottle4.png,,0,stim/0.png,0,0,59,2021-02-24_08h00.12.940,premup-three_ses-02_part-03_label-phase3,3.2.4,MacIntel,60
1,right,0.910999775,2,1.519999981,0,3,4.45299983,0,4,1.299999952,1,0,200,11,1,199,1,2,0.5,1,stim/objects/HouseObjects/key.png,stim/42.jpeg,4,stim/4.png,2,4,59,2021-02-24_08h00.12.940,premup-three_ses-02_part-03_label-phase3,3.2.4,MacIntel,60
1,left,1.495999813,4,2.269000053,0,4,3.150999784,0,3,4.181999922,1,0,200,51,1,199,2,2,0.3,1,stim/objects/Instruments/cello2.png,stim/63.jpeg,6,stim/6.png,3,4,59,2021-02-24_08h00.12.940,premup-three_ses-02_part-03_label-phase3,3.2.4,MacIntel,60
1,right,1.615999937,3,2.741999865,0,2,3.872999907,0,1,2.790999889,1,0,200,49,1,199,2,1,0.7,1,stim/objects/HouseObjects/dishsoap2.png,stim/61.jpeg,6,stim/6.png,1,1,59,2021-02-24_08h00.12.940,premup-three_ses-02_part-03_label-phase3,3.2.4,MacIntel,60
1,left,2.933999777,3,1.717000008,0,3,1.81400013,0,1,1.411999941,1,0,200,94,1,199,3,2,0.1,1,stim/objects/Instruments/musicsheet2.png,stim/23.jpeg,2,stim/2.png,3,4,59,2021-02-24_08h00.12.940,premup-three_ses-02_part-03_label-phase3,3.2.4,MacIntel,60
1,left,2.184999943,2,1.118000031,0,2,2.46999979,0,3,1.22300005,1,0,200,43,1,199,2,1,0.7,1,stim/objects/HouseObjects/bucket2.png,stim/63.jpeg,6,stim/6.png,3,4,59,2021-02-24_08h00.12.940,premup-three_ses-02_part-03_label-phase3,3.2.4,MacIntel,60
1,right,1.127999783,2,2.517999887,0,1,4.855999947,0,3,2.450999975,1,0,200,36,1,199,2,2,0.7,1,stim/objects/Instruments/acousticguitar2.png,stim/54.jpeg,5,stim/5.png,4,1,59,2021-02-24_08h00.12.940,premup-three_ses-02_part-03_label-phase3,3.2.4,MacIntel,60
1,right,1.56099987,2,1.755000114,0,3,2.812999964,0,3,2.576999903,1,0,200,97,1,199,3,2,0.1,1,stim/objects/Instruments/panflute2.png,stim/22.jpeg,2,stim/2.png,2,1,59,2021-02-24_08h00.12.940,premup-three_ses-02_part-03_label-phase3,3.2.4,MacIntel,60
1,right,1.540999889,2,1.318999767,0,1,2.125999928,0,3,1.973999739,1,0,200,10,1,199,1,2,0.5,1,stim/objects/HouseObjects/ironingboard.png,stim/41.jpeg,4,stim/4.png,1,3,59,2021-02-24_08h00.12.940,premup-three_ses-02_part-03_label-phase3,3.2.4,MacIntel,60
1,right,1.379999876,,,0,,,0,,,1,0,200,171,1,199,0,2,0,2,stim/objects/Instruments/oboe3.png,,0,stim/0.png,0,0,59,2021-02-24_08h00.12.940,premup-three_ses-02_part-03_label-phase3,3.2.4,MacIntel,60
1,left,1.115999937,3,1.801999807,0,3,2.620999813,0,4,3.108999729,1,0,200,73,1,199,3,2,0.9,1,stim/objects/Instruments/gong2.png,stim/12.jpeg,1,stim/1.png,2,2,59,2021-02-24_08h00.12.940,premup-three_ses-02_part-03_label-phase3,3.2.4,MacIntel,60
1,left,2.32799983,3,1.316999912,0,1,2.438999891,0,4,2.549000025,1,0,200,46,1,199,2,1,0.7,1,stim/objects/HouseObjects/clothespin2.png,stim/62.jpeg,6,stim/6.png,2,4,59,2021-02-24_08h00.12.940,premup-three_ses-02_part-03_label-phase3,3.2.4,MacIntel,60
1,left,3.159999847,,,0,,,0,,,1,0,200,144,1,199,0,1,0,2,stim/objects/HouseObjects/iron3.png,,0,stim/0.png,0,0,59,2021-02-24_08h00.12.940,premup-three_ses-02_part-03_label-phase3,3.2.4,MacIntel,60
1,left,1.700000048,2,1.534999847,0,3,1.510999918,0,2,2.496999741,1,0,200,53,1,199,2,2,0.3,1,stim/objects/Instruments/clarinet2.png,stim/61.jpeg,6,stim/6.png,1,3,59,2021-02-24_08h00.12.940,premup-three_ses-02_part-03_label-phase3,3.2.4,MacIntel,60
1,left,1.940999985,4,1.894000053,0,2,2.379999876,0,2,1.625,1,0,200,28,1,199,2,1,0.3,1,stim/objects/HouseObjects/basket2.png,stim/51.jpeg,5,stim/5.png,1,3,59,2021-02-24_08h00.12.940,premup-three_ses-02_part-03_label-phase3,3.2.4,MacIntel,60
1,left,3.342999935,,,0,,,0,,,1,0,200,187,1,199,0,1,0,2,stim/objects/HouseObjects/coffee4.png,,0,stim/0.png,0,0,59,2021-02-24_08h00.12.940,premup-three_ses-02_part-03_label-phase3,3.2.4,MacIntel,60
1,right,2.807999849,,,0,,,0,,,1,0,200,184,1,199,0,1,0,2,stim/objects/HouseObjects/clock4.png,,0,stim/0.png,0,0,59,2021-02-24_08h00.12.940,premup-three_ses-02_part-03_label-phase3,3.2.4,MacIntel,60
1,right,1.257999897,2,1.054999828,0,3,2.461999893,0,4,1.529999971,1,0,200,67,1,199,3,1,0.1,1,stim/objects/HouseObjects/handbrush2.png,stim/14.jpeg,1,stim/1.png,4,2,59,2021-02-24_08h00.12.940,premup-three_ses-02_part-03_label-phase3,3.2.4,MacIntel,60
1,left,1.540999889,4,1.851000071,0,3,4.069000006,0,3,0.941999912,1,0,200,18,1,199,1,2,0.5,1,stim/objects/Instruments/metronome.png,stim/43.jpeg,4,stim/4.png,3,3,59,2021-02-24_08h00.12.940,premup-three_ses-02_part-03_label-phase3,3.2.4,MacIntel,60
1,right,1.378999949,2,1.51699996,0,2,2.694999933,0,3,2.015999794,1,0,200,12,1,199,1,2,0.5,1,stim/objects/HouseObjects/knife.png,stim/43.jpeg,4,stim/4.png,3,1,59,2021-02-24_08h00.12.940,premup-three_ses-02_part-03_label-phase3,3.2.4,MacIntel,60
1,left,2.382999897,,,0,,,0,,,1,0,200,118,1,199,0,2,0,2,stim/objects/Instruments/clarinet3.png,,0,stim/0.png,0,0,59,2021-02-24_08h00.12.940,premup-three_ses-02_part-03_label-phase3,3.2.4,MacIntel,60
1,left,1.134000063,,,0,,,0,,,1,0,200,136,1,199,0,2,0,2,stim/objects/Instruments/flutetrans3.png,,0,stim/0.png,0,0,59,2021-02-24_08h00.12.940,premup-three_ses-02_part-03_label-phase3,3.2.4,MacIntel,60
1,right,1.063999891,,,0,,,0,,,1,0,200,117,1,199,0,2,0,2,stim/objects/Instruments/chime3.png,,0,stim/0.png,0,0,59,2021-02-24_08h00.12.940,premup-three_ses-02_part-03_label-phase3,3.2.4,MacIntel,60
1,right,0.941999912,,,0,,,0,,,1,0,200,161,1,199,0,1,0,2,stim/objects/HouseObjects/pitcher3.png,,0,stim/0.png,0,0,59,2021-02-24_08h00.12.940,premup-three_ses-02_part-03_label-phase3,3.2.4,MacIntel,60
1,right,1.394999981,2,1.316999912,0,1,2.564999819,0,3,1.474999905,1,0,200,3,1,199,1,1,0.5,1,stim/objects/HouseObjects/handvacuum.png,stim/32.jpeg,3,stim/3.png,2,2,59,2021-02-24_08h00.12.940,premup-three_ses-02_part-03_label-phase3,3.2.4,MacIntel,60
1,right,1.246999979,,,0,,,0,,,1,0,200,150,1,199,0,2,0,2,stim/objects/Instruments/guitarcase3.png,,0,stim/0.png,0,0,59,2021-02-24_08h00.12.940,premup-three_ses-02_part-03_label-phase3,3.2.4,MacIntel,60
1,right,0.666999817,,,0,,,0,,,1,0,200,163,1,199,0,1,0,2,stim/objects/HouseObjects/remote3.png,,0,stim/0.png,0,0,59,2021-02-24_08h00.12.940,premup-three_ses-02_part-03_label-phase3,3.2.4,MacIntel,60
1,left,1.211999893,,,0,,,0,,,1,0,200,182,1,199,0,1,0,2,stim/objects/HouseObjects/broom4.png,,0,stim/0.png,0,0,59,2021-02-24_08h00.12.940,premup-three_ses-02_part-03_label-phase3,3.2.4,MacIntel,60
1,right,1.11500001,2,1.301999807,0,3,2.064999819,0,4,1.762999773,1,0,200,63,1,199,3,1,0.1,1,stim/objects/HouseObjects/garbagebin2.png,stim/14.jpeg,1,stim/1.png,4,3,59,2021-02-24_08h00.12.940,premup-three_ses-02_part-03_label-phase3,3.2.4,MacIntel,60
1,left,1.590999842,4,2.157000065,0,3,3.882999897,0,1,1.34499979,1,0,200,72,1,199,3,2,0.9,1,stim/objects/Instruments/frenchhorn2.png,stim/11.jpeg,1,stim/1.png,1,1,59,2021-02-24_08h00.12.940,premup-three_ses-02_part-03_label-phase3,3.2.4,MacIntel,60
1,right,1.019999981,,,0,,,0,,,1,0,200,172,1,199,0,2,0,2,stim/objects/Instruments/panflute3.png,,0,stim/0.png,0,0,59,2021-02-24_08h00.12.940,premup-three_ses-02_part-03_label-phase3,3.2.4,MacIntel,60
1,right,0.907999754,,,0,,,0,,,1,0,200,121,1,199,0,1,0,2,stim/objects/HouseObjects/clothespin3.png,,0,stim/0.png,0,0,59,2021-02-24_08h00.12.940,premup-three_ses-02_part-03_label-phase3,3.2.4,MacIntel,60
1,right,0.661999941,1,2.088999748,0,2,1.932999849,0,1,0.91899991,1,0,200,55,1,199,2,2,0.3,1,stim/objects/Instruments/cymbal2.png,stim/63.jpeg,6,stim/6.png,3,3,59,2021-02-24_08h00.12.940,premup-three_ses-02_part-03_label-phase3,3.2.4,MacIntel,60
1,right,0.829999924,,,0,,,0,,,1,0,200,106,1,199,0,1,0,2,stim/objects/HouseObjects/bottle3.png,,0,stim/0.png,0,0,59,2021-02-24_08h00.12.940,premup-three_ses-02_part-03_label-phase3,3.2.4,MacIntel,60
1,right,0.826999903,,,0,,,0,,,1,0,200,168,1,199,0,1,0,2,stim/objects/HouseObjects/basket4.png,,0,stim/0.png,0,0,59,2021-02-24_08h00.12.940,premup-three_ses-02_part-03_label-phase3,3.2.4,MacIntel,60
1,left,1.424000025,3,1.687999964,0,2,2.16899991,0,2,2.062999725,1,0,200,5,1,199,1,1,0.5,1,stim/objects/Instruments/guitarcase.png,stim/32.jpeg,3,stim/3.png,2,2,59,2021-02-24_08h00.12.940,premup-three_ses-02_part-03_label-phase3,3.2.4,MacIntel,60
1,right,1.493999958,2,1.415999889,0,2,1.680999756,0,3,1.89199996,1,0,200,84,1,199,3,1,0.9,1,stim/objects/HouseObjects/match2.png,stim/21.jpeg,2,stim/2.png,1,2,59,2021-02-24_08h00.12.940,premup-three_ses-02_part-03_label-phase3,3.2.4,MacIntel,60
1,right,1.147000074,,,0,,,0,,,1,0,200,197,1,199,0,2,0,2,stim/objects/Instruments/drums4.png,,0,stim/0.png,0,0,59,2021-02-24_08h00.12.940,premup-three_ses-02_part-03_label-phase3,3.2.4,MacIntel,60
1,right,0.736999989,1,2.606999874,0,3,2.846999884,0,2,1.373999834,1,0,200,42,1,199,2,1,0.7,1,stim/objects/HouseObjects/broom2.png,stim/62.jpeg,6,stim/6.png,2,2,59,2021-02-24_08h00.12.940,premup-three_ses-02_part-03_label-phase3,3.2.4,MacIntel,60
1,left,1.549999952,4,1.555999994,0,4,4.846999884,0,1,1.21999979,1,0,200,47,1,199,2,1,0.7,1,stim/objects/HouseObjects/coffee2.png,stim/63.jpeg,6,stim/6.png,3,1,59,2021-02-24_08h00.12.940,premup-three_ses-02_part-03_label-phase3,3.2.4,MacIntel,60
1,left,1.404999971,,,0,,,0,,,1,0,200,196,1,199,0,2,0,2,stim/objects/Instruments/doublebass4.png,,0,stim/0.png,0,0,59,2021-02-24_08h00.12.940,premup-three_ses-02_part-03_label-phase3,3.2.4,MacIntel,60
1,right,0.777999878,1,2.133999825,0,2,4.212999821,0,1,1.577000141,1,0,200,7,1,199,1,1,0.5,1,stim/objects/Instruments/harp.png,stim/34.jpeg,3,stim/3.png,4,2,59,2021-02-24_08h00.12.940,premup-three_ses-02_part-03_label-phase3,3.2.4,MacIntel,60
1,right,1.630999804,2,1.478999853,0,4,2.578000069,0,4,2.760999918,1,0,200,92,1,199,3,2,0.1,1,stim/objects/Instruments/marimba2.png,stim/21.jpeg,2,stim/2.png,1,2,59,2021-02-24_08h00.12.940,premup-three_ses-02_part-03_label-phase3,3.2.4,MacIntel,60
1,right,1.69299984,,,0,,,0,,,1,0,200,160,1,199,0,1,0,2,stim/objects/HouseObjects/pan3.png,,0,stim/0.png,0,0,59,2021-02-24_08h00.12.940,premup-three_ses-02_part-03_label-phase3,3.2.4,MacIntel,60
1,right,0.792999983,,,0,,,0,,,1,0,200,157,1,199,0,2,0,2,stim/objects/Instruments/marimba3.png,,0,stim/0.png,0,0,59,2021-02-24_08h00.12.940,premup-three_ses-02_part-03_label-phase3,3.2.4,MacIntel,60
1,right,0.643999815,,,0,,,0,,,1,0,200,186,1,199,0,1,0,2,stim/objects/HouseObjects/clothespin4.png,,0,stim/0.png,0,0,59,2021-02-24_08h00.12.940,premup-three_ses-02_part-03_label-phase3,3.2.4,MacIntel,60
1,right,0.55099988,2,3.485000134,0,2,1.720000029,0,1,1.073999882,1,0,200,88,1,199,3,1,0.9,1,stim/objects/HouseObjects/remote2.png,stim/21.jpeg,2,stim/2.png,1,2,59,2021-02-24_08h00.12.940,premup-three_ses-02_part-03_label-phase3,3.2.4,MacIntel,60
1,right,1.437000036,,,0,,,0,,,1,0,200,169,1,199,0,1,0,2,stim/objects/HouseObjects/bleachbottle4.png,,0,stim/0.png,0,0,59,2021-02-24_08h00.12.940,premup-three_ses-02_part-03_label-phase3,3.2.4,MacIntel,60
1,right,1.073999882,,,0,,,0,,,1,0,200,147,1,199,0,1,0,2,stim/objects/HouseObjects/knife3.png,,0,stim/0.png,0,0,59,2021-02-24_08h00.12.940,premup-three_ses-02_part-03_label-phase3,3.2.4,MacIntel,60
1,right,0.661000013,3,2.674999952,0,2,1.829999924,0,3,2.940999985,1,0,200,8,1,199,1,1,0.5,1,stim/objects/Instruments/hihat.png,stim/31.jpeg,3,stim/3.png,1,4,59,2021-02-24_08h00.12.940,premup-three_ses-02_part-03_label-phase3,3.2.4,MacIntel,60
1,right,1.127999783,,,0,,,0,,,1,0,200,189,1,199,0,1,0,2,stim/objects/HouseObjects/dishsoap4.png,,0,stim/0.png,0,0,59,2021-02-24_08h00.12.940,premup-three_ses-02_part-03_label-phase3,3.2.4,MacIntel,60
1,right,0.582999945,2,2.386999846,0,2,2.144999981,0,2,1.820999861,1,0,200,32,1,199,2,2,0.7,1,stim/objects/Instruments/panflute.png,stim/54.jpeg,5,stim/5.png,4,4,59,2021-02-24_08h00.12.940,premup-three_ses-02_part-03_label-phase3,3.2.4,MacIntel,60
1,left,1.915999889,2,1.700000048,0,2,1.112999916,0,3,1.46999979,1,0,200,78,1,199,3,2,0.9,1,stim/objects/Instruments/hihat2.png,stim/13.jpeg,1,stim/1.png,3,3,59,2021-02-24_08h00.12.940,premup-three_ses-02_part-03_label-phase3,3.2.4,MacIntel,60
1,left,2.301999807,,,0,,,0,,,1,0,200,116,1,199,0,2,0,2,stim/objects/Instruments/cello3.png,,0,stim/0.png,0,0,59,2021-02-24_08h00.12.940,premup-three_ses-02_part-03_label-phase3,3.2.4,MacIntel,60
1,right,0.924999952,2,2.523999929,0,4,1.928999901,0,1,1.72300005,1,0,200,77,1,199,3,2,0.9,1,stim/objects/Instruments/harp2.png,stim/12.jpeg,1,stim/1.png,2,2,59,2021-02-24_08h00.12.940,premup-three_ses-02_part-03_label-phase3,3.2.4,MacIntel,60
1,right,1.178999901,,,0,,,0,,,1,0,200,156,1,199,0,2,0,2,stim/objects/Instruments/maraca3.png,,0,stim/0.png,0,0,59,2021-02-24_08h00.12.940,premup-three_ses-02_part-03_label-phase3,3.2.4,MacIntel,60
1,left,1.295000076,1,1.472999811,0,2,1.733999968,0,3,3.480999947,1,0,200,90,1,199,3,2,0.1,1,stim/objects/Instruments/laud2.png,stim/23.jpeg,2,stim/2.png,3,4,59,2021-02-24_08h00.12.940,premup-three_ses-02_part-03_label-phase3,3.2.4,MacIntel,60
1,right,1.111999989,,,0,,,0,,,1,0,200,185,1,199,0,1,0,2,stim/objects/HouseObjects/clothesdryingrack4.png,,0,stim/0.png,0,0,59,2021-02-24_08h00.12.940,premup-three_ses-02_part-03_label-phase3,3.2.4,MacIntel,60
1,right,0.707999945,,,0,,,0,,,1,0,200,108,1,199,0,1,0,2,stim/objects/HouseObjects/bucket3.png,,0,stim/0.png,0,0,59,2021-02-24_08h00.12.940,premup-three_ses-02_part-03_label-phase3,3.2.4,MacIntel,60
1,right,0.944000006,,,0,,,0,,,1,0,200,115,1,199,0,2,0,2,stim/objects/Instruments/bassguitar3.png,,0,stim/0.png,0,0,59,2021-02-24_08h00.12.940,premup-three_ses-02_part-03_label-phase3,3.2.4,MacIntel,60
1,right,0.562999964,,,0,,,0,,,1,0,200,175,1,199,0,2,0,2,stim/objects/Instruments/accordion4.png,,0,stim/0.png,0,0,59,2021-02-24_08h00.12.940,premup-three_ses-02_part-03_label-phase3,3.2.4,MacIntel,60
1,right,1.427999973,,,0,,,0,,,1,0,200,198,1,199,0,2,0,2,stim/objects/Instruments/electricdrumset4.png,,0,stim/0.png,0,0,59,2021-02-24_08h00.12.940,premup-three_ses-02_part-03_label-phase3,3.2.4,MacIntel,60
1,right,0.65899992,2,2.384000063,0,3,1.833999872,0,1,1.309999943,1,0,200,64,1,199,3,1,0.1,1,stim/objects/HouseObjects/glass2.png,stim/11.jpeg,1,stim/1.png,1,4,59,2021-02-24_08h00.12.940,premup-three_ses-02_part-03_label-phase3,3.2.4,MacIntel,60
1,right,1.395999908,2,2.002000093,0,4,2.052000046,0,4,1.786000013,1,0,200,50,1,199,2,2,0.3,1,stim/objects/Instruments/bassguitar2.png,stim/62.jpeg,6,stim/6.png,2,3,59,2021-02-24_08h00.12.940,premup-three_ses-02_part-03_label-phase3,3.2.4,MacIntel,60
1,right,2.394999981,,,0,,,0,,,1,0,200,131,1,199,0,2,0,2,stim/objects/Instruments/doublebass3.png,,0,stim/0.png,0,0,59,2021-02-24_08h00.12.940,premup-three_ses-02_part-03_label-phase3,3.2.4,MacIntel,60
1,right,1.497999907,,,0,,,0,,,1,0,200,107,1,199,0,1,0,2,stim/objects/HouseObjects/broom3.png,,0,stim/0.png,0,0,59,2021-02-24_08h00.12.940,premup-three_ses-02_part-03_label-phase3,3.2.4,MacIntel,60
1,right,0.708999872,,,0,,,0,,,1,0,200,149,1,199,0,1,0,2,stim/objects/HouseObjects/match3.png,,0,stim/0.png,0,0,59,2021-02-24_08h00.12.940,premup-three_ses-02_part-03_label-phase3,3.2.4,MacIntel,60
1,right,0.598999977,,,0,,,0,,,1,0,200,154,1,199,0,2,0,2,stim/objects/Instruments/keyboard3.png,,0,stim/0.png,0,0,59,2021-02-24_08h00.12.940,premup-three_ses-02_part-03_label-phase3,3.2.4,MacIntel,60
1,right,0.529999971,1,3.968999863,0,2,1.401000023,0,1,1.747999907,1,0,200,27,1,199,2,1,0.3,1,stim/objects/HouseObjects/barbecuelighter2.png,stim/54.jpeg,5,stim/5.png,4,1,59,2021-02-24_08h00.12.940,premup-three_ses-02_part-03_label-phase3,3.2.4,MacIntel,60
1,right,2.227999926,1,1.138999939,0,4,2.368999958,0,3,2.628999949,1,0,200,54,1,199,2,2,0.3,1,stim/objects/Instruments/cornet2.png,stim/62.jpeg,6,stim/6.png,2,2,59,2021-02-24_08h00.12.940,premup-three_ses-02_part-03_label-phase3,3.2.4,MacIntel,60
1,left,2.643000126,2,1.42599988,0,3,1.328999758,0,2,1.415999889,1,0,200,81,1,199,3,1,0.9,1,stim/objects/HouseObjects/key2.png,stim/22.jpeg,2,stim/2.png,2,3,59,2021-02-24_08h00.12.940,premup-three_ses-02_part-03_label-phase3,3.2.4,MacIntel,60
1,right,1.531000137,1,1.268000126,0,1,1.545000076,0,2,4.144999981,1,0,200,30,1,199,2,2,0.7,1,stim/objects/Instruments/musicstand.png,stim/52.jpeg,5,stim/5.png,2,2,59,2021-02-24_08h00.12.940,premup-three_ses-02_part-03_label-phase3,3.2.4,MacIntel,60
1,right,1.398999929,,,0,,,0,,,1,0,200,170,1,199,0,2,0,2,stim/objects/Instruments/musicstand3.png,,0,stim/0.png,0,0,59,2021-02-24_08h00.12.940,premup-three_ses-02_part-03_label-phase3,3.2.4,MacIntel,60
1,right,0.573999882,3,2.777999878,0,3,1.948999882,0,4,2.599999905,1,0,200,35,1,199,2,2,0.7,1,stim/objects/Instruments/accordion2.png,stim/53.jpeg,5,stim/5.png,3,4,59,2021-02-24_08h00.12.940,premup-three_ses-02_part-03_label-phase3,3.2.4,MacIntel,60
1,right,1.278999805,,,0,,,0,,,1,0,200,135,1,199,0,2,0,2,stim/objects/Instruments/flute3.png,,0,stim/0.png,0,0,59,2021-02-24_08h00.12.940,premup-three_ses-02_part-03_label-phase3,3.2.4,MacIntel,60
1,right,1.88499999,,,0,,,0,,,1,0,200,143,1,199,0,1,0,2,stim/objects/HouseObjects/handvacuum3.png,,0,stim/0.png,0,0,59,2021-02-24_08h00.12.940,premup-three_ses-02_part-03_label-phase3,3.2.4,MacIntel,60
1,left,1.144999743,,,0,,,0,,,1,0,200,176,1,199,0,2,0,2,stim/objects/Instruments/acousticguitar4.png,,0,stim/0.png,0,0,59,2021-02-24_08h00.12.940,premup-three_ses-02_part-03_label-phase3,3.2.4,MacIntel,60
1,right,1.325000048,,,0,,,0,,,1,0,200,101,1,199,0,1,0,2,stim/objects/HouseObjects/ballofstring3.png,,0,stim/0.png,0,0,59,2021-02-24_08h00.12.940,premup-three_ses-02_part-03_label-phase3,3.2.4,MacIntel,60
1,right,1.100999832,,,0,,,0,,,1,0,200,111,1,199,0,2,0,2,stim/objects/Instruments/acousticguitar3.png,,0,stim/0.png,0,0,59,2021-02-24_08h00.12.940,premup-three_ses-02_part-03_label-phase3,3.2.4,MacIntel,60
1,right,0.858999968,,,0,,,0,,,1,0,200,119,1,199,0,2,0,2,stim/objects/Instruments/cornet3.png,,0,stim/0.png,0,0,59,2021-02-24_08h00.12.940,premup-three_ses-02_part-03_label-phase3,3.2.4,MacIntel,60
1,right,0.872999907,2,2.71999979,0,4,2.038000107,0,3,1.556999922,1,0,200,19,1,199,1,2,0.5,1,stim/objects/Instruments/musicsheet.png,stim/44.jpeg,4,stim/4.png,4,2,59,2021-02-24_08h00.12.940,premup-three_ses-02_part-03_label-phase3,3.2.4,MacIntel,60
1,right,0.934999943,,,0,,,0,,,1,0,200,130,1,199,0,2,0,2,stim/objects/Instruments/cymbal3.png,,0,stim/0.png,0,0,59,2021-02-24_08h00.12.940,premup-three_ses-02_part-03_label-phase3,3.2.4,MacIntel,60
1,right,1.200999975,1,1.906999826,0,1,1.244999886,0,3,1.378999949,1,0,200,96,1,199,3,2,0.1,1,stim/objects/Instruments/oboe2.png,stim/21.jpeg,2,stim/2.png,1,4,59,2021-02-24_08h00.12.940,premup-three_ses-02_part-03_label-phase3,3.2.4,MacIntel,60
1,right,2.029999971,2,1.212999821,0,4,4.664000034,0,3,2.512999773,1,0,200,31,1,199,2,2,0.7,1,stim/objects/Instruments/oboe.png,stim/53.jpeg,5,stim/5.png,3,1,59,2021-02-24_08h00.12.940,premup-three_ses-02_part-03_label-phase3,3.2.4,MacIntel,60
1,left,1.890999794,,,0,,,0,,,1,0,200,137,1,199,0,2,0,2,stim/objects/Instruments/frenchhorn3.png,,0,stim/0.png,0,0,59,2021-02-24_08h00.12.940,premup-three_ses-02_part-03_label-phase3,3.2.4,MacIntel,60
1,right,0.947999954,,,0,,,0,,,1,0,200,104,1,199,0,1,0,2,stim/objects/HouseObjects/bleachbottle3.png,,0,stim/0.png,0,0,59,2021-02-24_08h00.12.940,premup-three_ses-02_part-03_label-phase3,3.2.4,MacIntel,60
1,right,1.174000025,2,1.226000071,0,4,6.447000027,0,2,2.597999811,1,0,200,17,1,199,1,2,0.5,1,stim/objects/Instruments/marimba.png,stim/42.jpeg,4,stim/4.png,2,4,59,2021-02-24_08h00.12.940,premup-three_ses-02_part-03_label-phase3,3.2.4,MacIntel,60
1,left,1.246999741,,,0,,,0,,,1,0,200,165,1,199,0,1,0,2,stim/objects/HouseObjects/ashtray4.png,,0,stim/0.png,0,0,59,2021-02-24_08h00.12.940,premup-three_ses-02_part-03_label-phase3,3.2.4,MacIntel,60
1,left,1.208999872,1,2.417999983,0,3,2.493000031,0,3,2.076999903,1,0,200,37,1,199,2,2,0.7,1,stim/objects/Instruments/balalaika2.png,stim/51.jpeg,5,stim/5.png,1,3,59,2021-02-24_08h00.12.940,premup-three_ses-02_part-03_label-phase3,3.2.4,MacIntel,60
1,right,1.029999971,3,2.452000141,0,1,3.796999931,0,4,2.309999943,1,0,200,29,1,199,2,1,0.3,1,stim/objects/HouseObjects/bleachbottle2.png,stim/52.jpeg,5,stim/5.png,2,4,59,2021-02-24_08h00.12.940,premup-three_ses-02_part-03_label-phase3,3.2.4,MacIntel,60
1,right,1.911000013,2,1.893000126,0,3,1.239999771,0,2,1.583999872,1,0,200,52,1,199,2,2,0.3,1,stim/objects/Instruments/chime2.png,stim/64.jpeg,6,stim/6.png,4,1,59,2021-02-24_08h00.12.940,premup-three_ses-02_part-03_label-phase3,3.2.4,MacIntel,60
1,right,1.829999924,,,0,,,0,,,1,0,200,174,1,199,0,2,0,2,stim/objects/Instruments/record3.png,,0,stim/0.png,0,0,59,2021-02-24_08h00.12.940,premup-three_ses-02_part-03_label-phase3,3.2.4,MacIntel,60
1,right,0.835999966,,,0,,,0,,,1,0,200,103,1,199,0,1,0,2,stim/objects/HouseObjects/basket3.png,,0,stim/0.png,0,0,59,2021-02-24_08h00.12.940,premup-three_ses-02_part-03_label-phase3,3.2.4,MacIntel,60
1,right,0.726999998,,,0,,,0,,,1,0,200,192,1,199,0,2,0,2,stim/objects/Instruments/chime4.png,,0,stim/0.png,0,0,59,2021-02-24_08h00.12.940,premup-three_ses-02_part-03_label-phase3,3.2.4,MacIntel,60
1,right,0.659999847,,,0,,,0,,,1,0,200,164,1,199,0,1,0,2,stim/objects/HouseObjects/rubbergloves3.png,,0,stim/0.png,0,0,59,2021-02-24_08h00.12.940,premup-three_ses-02_part-03_label-phase3,3.2.4,MacIntel,60
1,right,0.877999783,,,0,,,0,,,1,0,200,178,1,199,0,2,0,2,stim/objects/Instruments/banjo4.png,,0,stim/0.png,0,0,59,2021-02-24_08h00.12.940,premup-three_ses-02_part-03_label-phase3,3.2.4,MacIntel,60
1,right,1.53399992,,,0,,,0,,,1,0,200,133,1,199,0,2,0,2,stim/objects/Instruments/electricdrumset3.png,,0,stim/0.png,0,0,59,2021-02-24_08h00.12.940,premup-three_ses-02_part-03_label-phase3,3.2.4,MacIntel,60
1,right,0.689999819,2,2.085999966,0,3,2.118999958,0,2,1.530999899,1,0,200,74,1,199,3,2,0.9,1,stim/objects/Instruments/grandpiano2.png,stim/13.jpeg,1,stim/1.png,3,1,59,2021-02-24_08h00.12.940,premup-three_ses-02_part-03_label-phase3,3.2.4,MacIntel,60
1,left,1.863999844,2,1.592000008,0,3,1.604000092,0,2,1.586999893,1,0,200,69,1,199,3,1,0.1,1,stim/objects/HouseObjects/iron2.png,stim/12.jpeg,1,stim/1.png,2,4,59,2021-02-24_08h00.12.940,premup-three_ses-02_part-03_label-phase3,3.2.4,MacIntel,60
1,right,1.3349998,1,2.152999878,0,1,1.262000084,0,1,2.281000137,1,0,200,65,1,199,3,1,0.1,1,stim/objects/HouseObjects/glassmop2.png,stim/12.jpeg,1,stim/1.png,2,3,59,2021-02-24_08h00.12.940,premup-three_ses-02_part-03_label-phase3,3.2.4,MacIntel,60
1,right,1.564999819,2,1.27699995,0,1,2.006000042,0,1,3.746999979,1,0,200,23,1,199,2,1,0.3,1,stim/objects/HouseObjects/remote.png,stim/54.jpeg,5,stim/5.png,4,3,59,2021-02-24_08h00.12.940,premup-three_ses-02_part-03_label-phase3,3.2.4,MacIntel,60
1,right,1.069999933,2,1.00999999,0,3,1.097000122,0,2,2.046999931,1,0,200,80,1,199,3,1,0.9,1,stim/objects/HouseObjects/ironingboard2.png,stim/21.jpeg,2,stim/2.png,1,4,59,2021-02-24_08h00.12.940,premup-three_ses-02_part-03_label-phase3,3.2.4,MacIntel,60
1,right,1.26699996,,,0,,,0,,,1,0,200,151,1,199,0,2,0,2,stim/objects/Instruments/harmonica3.png,,0,stim/0.png,0,0,59,2021-02-24_08h00.12.940,premup-three_ses-02_part-03_label-phase3,3.2.4,MacIntel,60
1,right,0.858999968,,,0,,,0,,,1,0,200,173,1,199,0,2,0,2,stim/objects/Instruments/pipepiano3.png,,0,stim/0.png,0,0,59,2021-02-24_08h00.12.940,premup-three_ses-02_part-03_label-phase3,3.2.4,MacIntel,60
1,right,0.536000013,,,0,,,0,,,1,0,200,114,1,199,0,2,0,2,stim/objects/Instruments/bassdrum3.png,,0,stim/0.png,0,0,59,2021-02-24_08h00.12.940,premup-three_ses-02_part-03_label-phase3,3.2.4,MacIntel,60
1,right,0.802000046,,,0,,,0,,,1,0,200,127,1,199,0,1,0,2,stim/objects/HouseObjects/flyswatter3.png,,0,stim/0.png,0,0,59,2021-02-24_08h00.12.940,premup-three_ses-02_part-03_label-phase3,3.2.4,MacIntel,60
1,right,0.643999815,1,2.03399992,0,3,1.603999853,0,4,1.947999954,1,0,200,76,1,199,3,2,0.9,1,stim/objects/Instruments/harmonica2.png,stim/11.jpeg,1,stim/1.png,1,3,59,2021-02-24_08h00.12.940,premup-three_ses-02_part-03_label-phase3,3.2.4,MacIntel,60
1,right,1.967000008,2,1.143999815,0,3,1.651000023,0,3,3.669999838,1,0,200,22,1,199,2,1,0.3,1,stim/objects/HouseObjects/recyclingbin.png,stim/53.jpeg,5,stim/5.png,3,1,59,2021-02-24_08h00.12.940,premup-three_ses-02_part-03_label-phase3,3.2.4,MacIntel,60
1,right,1.151000023,1,1.40199995,0,3,1.527999878,0,3,1.127000093,1,0,200,91,1,199,3,2,0.1,1,stim/objects/Instruments/maraca2.png,stim/24.jpeg,2,stim/2.png,4,4,59,2021-02-24_08h00.12.940,premup-three_ses-02_part-03_label-phase3,3.2.4,MacIntel,60
1,right,0.983999968,,,0,,,0,,,1,0,200,162,1,199,0,1,0,2,stim/objects/HouseObjects/recyclingbin3.png,,0,stim/0.png,0,0,59,2021-02-24_08h00.12.940,premup-three_ses-02_part-03_label-phase3,3.2.4,MacIntel,60
1,right,0.637000084,,,0,,,0,,,1,0,200,145,1,199,0,1,0,2,stim/objects/HouseObjects/ironingboard3.png,,0,stim/0.png,0,0,59,2021-02-24_08h00.12.940,premup-three_ses-02_part-03_label-phase3,3.2.4,MacIntel,60
1,right,0.896999836,1,1.478999853,0,3,1.345999956,0,3,0.980000019,1,0,200,59,1,199,2,2,0.3,1,stim/objects/Instruments/electricguitar2.png,stim/63.jpeg,6,stim/6.png,3,1,59,2021-02-24_08h00.12.940,premup-three_ses-02_part-03_label-phase3,3.2.4,MacIntel,60
1,right,0.950999737,2,2.332999945,0,3,1.730000019,0,2,2.375,1,0,200,0,1,199,1,1,0.5,1,stim/objects/HouseObjects/glassmop.png,stim/33.jpeg,3,stim/3.png,3,1,59,2021-02-24_08h00.12.940,premup-three_ses-02_part-03_label-phase3,3.2.4,MacIntel,60
1,right,1.347000122,1,1.16899991,0,2,1.349999905,0,3,1.572000027,1,0,200,25,1,199,2,1,0.3,1,stim/objects/HouseObjects/ashtray2.png,stim/52.jpeg,5,stim/5.png,2,3,59,2021-02-24_08h00.12.940,premup-three_ses-02_part-03_label-phase3,3.2.4,MacIntel,60
1,right,1.809000015,,,0,,,0,,,1,0,200,132,1,199,0,2,0,2,stim/objects/Instruments/drums3.png,,0,stim/0.png,0,0,59,2021-02-24_08h00.12.940,premup-three_ses-02_part-03_label-phase3,3.2.4,MacIntel,60
1,right,0.950000048,,,0,,,0,,,1,0,200,158,1,199,0,2,0,2,stim/objects/Instruments/metronome3.png,,0,stim/0.png,0,0,59,2021-02-24_08h00.12.940,premup-three_ses-02_part-03_label-phase3,3.2.4,MacIntel,60
1,right,0.579999924,,,0,,,0,,,1,0,200,148,1,199,0,1,0,2,stim/objects/HouseObjects/lintroller3.png,,0,stim/0.png,0,0,59,2021-02-24_08h00.12.940,premup-three_ses-02_part-03_label-phase3,3.2.4,MacIntel,60
1,right,2.039000034,,,0,,,0,,,1,0,200,183,1,199,0,1,0,2,stim/objects/HouseObjects/bucket4.png,,0,stim/0.png,0,0,59,2021-02-24_08h00.12.940,premup-three_ses-02_part-03_label-phase3,3.2.4,MacIntel,60
1,right,0.879999876,,,0,,,0,,,1,0,200,113,1,199,0,2,0,2,stim/objects/Instruments/banjo3.png,,0,stim/0.png,0,0,59,2021-02-24_08h00.12.940,premup-three_ses-02_part-03_label-phase3,3.2.4,MacIntel,60
1,left,0.980000019,3,1.38499999,0,1,2.229999781,0,1,1.978999853,1,0,200,40,1,199,2,1,0.7,1,stim/objects/HouseObjects/blender2.png,stim/64.jpeg,6,stim/6.png,4,2,59,2021-02-24_08h00.12.940,premup-three_ses-02_part-03_label-phase3,3.2.4,MacIntel,60
1,right,1.130999804,,,0,,,0,,,1,0,200,199,1,199,0,2,0,2,stim/objects/Instruments/electricguitar4.png,,0,stim/0.png,0,0,59,2021-02-24_08h00.12.940,premup-three_ses-02_part-03_label-phase3,3.2.4,MacIntel,60
1,right,0.846999884,,,0,,,0,,,1,0,200,179,1,199,0,2,0,2,stim/objects/Instruments/bassdrum4.png,,0,stim/0.png,0,0,59,2021-02-24_08h00.12.940,premup-three_ses-02_part-03_label-phase3,3.2.4,MacIntel,60
1,right,0.631999731,,,0,,,0,,,1,0,200,138,1,199,0,2,0,2,stim/objects/Instruments/gong3.png,,0,stim/0.png,0,0,59,2021-02-24_08h00.12.940,premup-three_ses-02_part-03_label-phase3,3.2.4,MacIntel,60
1,right,0.546999931,,,0,,,0,,,1,0,200,191,1,199,0,2,0,2,stim/objects/Instruments/cello4.png,,0,stim/0.png,0,0,59,2021-02-24_08h00.12.940,premup-three_ses-02_part-03_label-phase3,3.2.4,MacIntel,60
1,right,0.569000006,,,0,,,0,,,1,0,200,188,1,199,0,1,0,2,stim/objects/HouseObjects/cushion4.png,,0,stim/0.png,0,0,59,2021-02-24_08h00.12.940,premup-three_ses-02_part-03_label-phase3,3.2.4,MacIntel,60
1,right,0.619999886,,,0,,,0,,,1,0,200,167,1,199,0,1,0,2,stim/objects/HouseObjects/barbecuelighter4.png,,0,stim/0.png,0,0,59,2021-02-24_08h00.12.940,premup-three_ses-02_part-03_label-phase3,3.2.4,MacIntel,60
1,right,0.52699995,2,2.684000015,0,3,1.493999958,0,4,1.881000042,1,0,200,60,1,199,3,1,0.1,1,stim/objects/HouseObjects/doormat2.png,stim/11.jpeg,1,stim/1.png,1,4,59,2021-02-24_08h00.12.940,premup-three_ses-02_part-03_label-phase3,3.2.4,MacIntel,60
1,left,2.427999973,,,0,,,0,,,1,0,200,102,1,199,0,1,0,2,stim/objects/HouseObjects/barbecuelighter3.png,,0,stim/0.png,0,0,59,2021-02-24_08h00.12.940,premup-three_ses-02_part-03_label-phase3,3.2.4,MacIntel,60
1,right,0.777999878,2,2.222000122,0,3,1.552999973,0,3,1.264999866,1,0,200,24,1,199,2,1,0.3,1,stim/objects/HouseObjects/rubbergloves.png,stim/51.jpeg,5,stim/5.png,1,1,59,2021-02-24_08h00.12.940,premup-three_ses-02_part-03_label-phase3,3.2.4,MacIntel,60
1,right,0.842999935,1,1.767999887,0,3,2.051999807,0,3,2.762000084,1,0,200,57,1,199,2,2,0.3,1,stim/objects/Instruments/drums2.png,stim/61.jpeg,6,stim/6.png,1,3,59,2021-02-24_08h00.12.940,premup-three_ses-02_part-03_label-phase3,3.2.4,MacIntel,60
1,right,1.029999971,2,1.135999918,0,2,1.355000019,0,1,2.504999876,1,0,200,82,1,199,3,1,0.9,1,stim/objects/HouseObjects/knife2.png,stim/23.jpeg,2,stim/2.png,3,3,59,2021-02-24_08h00.12.940,premup-three_ses-02_part-03_label-phase3,3.2.4,MacIntel,60
1,right,1.05099988,,,0,,,0,,,1,0,200,193,1,199,0,2,0,2,stim/objects/Instruments/clarinet4.png,,0,stim/0.png,0,0,59,2021-02-24_08h00.12.940,premup-three_ses-02_part-03_label-phase3,3.2.4,MacIntel,60
1,right,0.578999996,,,0,,,0,,,1,0,200,195,1,199,0,2,0,2,stim/objects/Instruments/cymbal4.png,,0,stim/0.png,0,0,59,2021-02-24_08h00.12.940,premup-three_ses-02_part-03_label-phase3,3.2.4,MacIntel,60
1,right,0.871000051,1,1.250999928,0,2,1.444999933,0,3,2.058000088,1,0,200,6,1,199,1,1,0.5,1,stim/objects/Instruments/harmonica.png,stim/33.jpeg,3,stim/3.png,3,3,59,2021-02-24_08h00.12.940,premup-three_ses-02_part-03_label-phase3,3.2.4,MacIntel,60
1,right,0.771999836,2,1.582999706,0,1,2.365999937,0,3,2.266999722,1,0,200,38,1,199,2,2,0.7,1,stim/objects/Instruments/banjo2.png,stim/52.jpeg,5,stim/5.png,2,1,59,2021-02-24_08h00.12.940,premup-three_ses-02_part-03_label-phase3,3.2.4,MacIntel,60
1,right,1.45299983,1,3.66899991,0,4,2.113999844,0,2,2.678999901,1,0,200,2,1,199,1,1,0.5,1,stim/objects/HouseObjects/handbrush.png,stim/31.jpeg,3,stim/3.png,1,4,59,2021-02-24_08h00.12.940,premup-three_ses-02_part-03_label-phase3,3.2.4,MacIntel,60
1,right,0.854000092,,,0,,,0,,,1,0,200,109,1,199,0,1,0,2,stim/objects/HouseObjects/clock3.png,,0,stim/0.png,0,0,59,2021-02-24_08h00.12.940,premup-three_ses-02_part-03_label-phase3,3.2.4,MacIntel,60
1,right,0.582000017,2,1.30099988,0,3,1.096999884,0,3,1.361999989,1,0,200,14,1,199,1,2,0.5,1,stim/objects/HouseObjects/match.png,stim/41.jpeg,4,stim/4.png,1,1,59,2021-02-24_08h00.12.940,premup-three_ses-02_part-03_label-phase3,3.2.4,MacIntel,60
1,left,1.45600009,,,0,,,0,,,1,0,200,152,1,199,0,2,0,2,stim/objects/Instruments/harp3.png,,0,stim/0.png,0,0,59,2021-02-24_08h00.12.940,premup-three_ses-02_part-03_label-phase3,3.2.4,MacIntel,60
1,right,0.58100009,,,0,,,0,,,1,0,200,124,1,199,0,1,0,2,stim/objects/HouseObjects/dishsoap3.png,,0,stim/0.png,0,0,59,2021-02-24_08h00.12.940,premup-three_ses-02_part-03_label-phase3,3.2.4,MacIntel,60
1,right,0.678999901,1,1.801999807,0,3,1.532999992,0,2,1.949999809,1,0,200,95,1,199,3,2,0.1,1,stim/objects/Instruments/musicstand2.png,stim/24.jpeg,2,stim/2.png,4,3,59,2021-02-24_08h00.12.940,premup-three_ses-02_part-03_label-phase3,3.2.4,MacIntel,60
1,right,1.277999878,1,1.094000101,0,2,1.773000002,0,2,1.398000002,1,0,200,21,1,199,2,1,0.3,1,stim/objects/HouseObjects/pitcher.png,stim/52.jpeg,5,stim/5.png,2,2,59,2021-02-24_08h00.12.940,premup-three_ses-02_part-03_label-phase3,3.2.4,MacIntel,60
1,right,0.99399972,1,1.710000038,0,4,2.714999914,0,4,2.731999874,1,0,200,48,1,199,2,1,0.7,1,stim/objects/HouseObjects/cushion2.png,stim/64.jpeg,6,stim/6.png,4,3,59,2021-02-24_08h00.12.940,premup-three_ses-02_part-03_label-phase3,3.2.4,MacIntel,60
1,right,1.213000059,2,1.232000113,0,3,1.140000105,0,3,1.06099987,1,0,200,15,1,199,1,2,0.5,1,stim/objects/Instruments/laud.png,stim/44.jpeg,4,stim/4.png,4,1,59,2021-02-24_08h00.12.940,premup-three_ses-02_part-03_label-phase3,3.2.4,MacIntel,60
1,right,1.303999901,,,0,,,0,,,1,0,200,166,1,199,0,1,0,2,stim/objects/HouseObjects/ballofstring4.png,,0,stim/0.png,0,0,59,2021-02-24_08h00.12.940,premup-three_ses-02_part-03_label-phase3,3.2.4,MacIntel,60
1,right,0.643999815,,,0,,,0,,,1,0,200,129,1,199,0,1,0,2,stim/objects/HouseObjects/glass3.png,,0,stim/0.png,0,0,59,2021-02-24_08h00.12.940,premup-three_ses-02_part-03_label-phase3,3.2.4,MacIntel,60
1,right,0.617000103,,,0,,,0,,,1,0,200,128,1,199,0,1,0,2,stim/objects/HouseObjects/garbagebin3.png,,0,stim/0.png,0,0,59,2021-02-24_08h00.12.940,premup-three_ses-02_part-03_label-phase3,3.2.4,MacIntel,60
1,right,0.660999775,1,1.72699976,0,2,1.06099987,0,3,1.605999947,1,0,200,9,1,199,1,1,0.5,1,stim/objects/Instruments/keyboard.png,stim/32.jpeg,3,stim/3.png,2,2,59,2021-02-24_08h00.12.940,premup-three_ses-02_part-03_label-phase3,3.2.4,MacIntel,60
1,right,0.68599987,,,0,,,0,,,1,0,200,141,1,199,0,1,0,2,stim/objects/HouseObjects/hairdryer3.png,,0,stim/0.png,0,0,59,2021-02-24_08h00.12.940,premup-three_ses-02_part-03_label-phase3,3.2.4,MacIntel,60
1,right,0.694000006,,,0,,,0,,,1,0,200,155,1,199,0,2,0,2,stim/objects/Instruments/laud3.png,,0,stim/0.png,0,0,59,2021-02-24_08h00.12.940,premup-three_ses-02_part-03_label-phase3,3.2.4,MacIntel,60
1,right,0.568000078,1,1.542999983,0,1,1.479999781,0,2,1.664999723,1,0,200,20,1,199,2,1,0.3,1,stim/objects/HouseObjects/pan.png,stim/51.jpeg,5,stim/5.png,1,4,59,2021-02-24_08h00.12.940,premup-three_ses-02_part-03_label-phase3,3.2.4,MacIntel,60
1,right,1.011999846,1,0.865999937,0,3,1.246000051,0,3,1.01699996,1,0,200,45,1,199,2,1,0.7,1,stim/objects/HouseObjects/clothesdryingrack2.png,stim/61.jpeg,6,stim/6.png,1,4,59,2021-02-24_08h00.12.940,premup-three_ses-02_part-03_label-phase3,3.2.4,MacIntel,60
1,left,1.338999987,,,0,,,0,,,1,0,200,112,1,199,0,2,0,2,stim/objects/Instruments/balalaika3.png,,0,stim/0.png,0,0,59,2021-02-24_08h00.12.940,premup-three_ses-02_part-03_label-phase3,3.2.4,MacIntel,60
1,right,0.57799983,1,1.657999992,0,1,1.556999922,0,2,1.881999731,1,0,200,79,1,199,3,2,0.9,1,stim/objects/Instruments/keyboard2.png,stim/14.jpeg,1,stim/1.png,4,2,59,2021-02-24_08h00.12.940,premup-three_ses-02_part-03_label-phase3,3.2.4,MacIntel,60
1,right,0.888999939,,,0,,,0,,,1,0,200,123,1,199,0,1,0,2,stim/objects/HouseObjects/cushion3.png,,0,stim/0.png,0,0,59,2021-02-24_08h00.12.940,premup-three_ses-02_part-03_label-phase3,3.2.4,MacIntel,60
1,right,0.608999968,1,1.082999945,0,4,1.469000101,0,2,1.881999969,1,0,200,66,1,199,3,1,0.1,1,stim/objects/HouseObjects/hairdryer2.png,stim/13.jpeg,1,stim/1.png,3,4,59,2021-02-24_08h00.12.940,premup-three_ses-02_part-03_label-phase3,3.2.4,MacIntel,60
1,right,1.795000076,1,4.05099988,0,2,1.643999815,0,3,1.470999956,1,0,200,87,1,199,3,1,0.9,1,stim/objects/HouseObjects/recyclingbin2.png,stim/24.jpeg,2,stim/2.png,4,1,59,2021-02-24_08h00.12.940,premup-three_ses-02_part-03_label-phase3,3.2.4,MacIntel,60
1,right,0.945999861,2,1.335000038,0,3,1.062999964,0,1,3.095999956,1,0,200,85,1,199,3,1,0.9,1,stim/objects/HouseObjects/pan2.png,stim/22.jpeg,2,stim/2.png,2,3,59,2021-02-24_08h00.12.940,premup-three_ses-02_part-03_label-phase3,3.2.4,MacIntel,60
1,right,0.932999849,,,0,,,0,,,1,0,200,159,1,199,0,2,0,2,stim/objects/Instruments/musicsheet3.png,,0,stim/0.png,0,0,59,2021-02-24_08h00.12.940,premup-three_ses-02_part-03_label-phase3,3.2.4,MacIntel,60
1,right,0.773000002,,,0,,,0,,,1,0,200,139,1,199,0,2,0,2,stim/objects/Instruments/grandpiano3.png,,0,stim/0.png,0,0,59,2021-02-24_08h00.12.940,premup-three_ses-02_part-03_label-phase3,3.2.4,MacIntel,60
1,right,0.61500001,2,1.273000002,0,3,1.101999998,0,3,1.634000063,1,0,200,1,1,199,1,1,0.5,1,stim/objects/HouseObjects/hairdryer.png,stim/34.jpeg,3,stim/3.png,4,3,59,2021-02-24_08h00.12.940,premup-three_ses-02_part-03_label-phase3,3.2.4,MacIntel,60
1,right,1.06099987,1,1.541999817,0,3,1.434999943,0,2,0.889999866,1,0,200,44,1,199,2,1,0.7,1,stim/objects/HouseObjects/clock2.png,stim/64.jpeg,6,stim/6.png,4,1,59,2021-02-24_08h00.12.940,premup-three_ses-02_part-03_label-phase3,3.2.4,MacIntel,60
1,left,1.359999895,4,1.858999968,0,1,2.735999823,0,3,2.914999962,1,0,200,68,1,199,3,1,0.1,1,stim/objects/HouseObjects/handvacuum2.png,stim/11.jpeg,1,stim/1.png,1,2,59,2021-02-24_08h00.12.940,premup-three_ses-02_part-03_label-phase3,3.2.4,MacIntel,60
1,right,0.985999823,,,0,,,0,,,1,0,200,126,1,199,0,1,0,2,stim/objects/HouseObjects/dustpan3.png,,0,stim/0.png,0,0,59,2021-02-24_08h00.12.940,premup-three_ses-02_part-03_label-phase3,3.2.4,MacIntel,60
1,right,0.717000008,2,1.451999903,0,2,1.296999931,0,2,0.897000074,1,0,200,99,1,199,3,2,0.1,1,stim/objects/Instruments/record2.png,stim/24.jpeg,2,stim/2.png,4,3,59,2021-02-24_08h00.12.940,premup-three_ses-02_part-03_label-phase3,3.2.4,MacIntel,60
1,right,1.065999985,,,0,,,0,,,1,0,200,122,1,199,0,1,0,2,stim/objects/HouseObjects/coffee3.png,,0,stim/0.png,0,0,59,2021-02-24_08h00.12.940,premup-three_ses-02_part-03_label-phase3,3.2.4,MacIntel,60
1,left,1.135999918,3,1.319000006,0,3,1.319999933,0,3,1.337999821,1,0,200,93,1,199,3,2,0.1,1,stim/objects/Instruments/metronome2.png,stim/22.jpeg,2,stim/2.png,2,3,59,2021-02-24_08h00.12.940,premup-three_ses-02_part-03_label-phase3,3.2.4,MacIntel,60
1,right,0.894000053,2,1.632999897,0,1,2.361999989,0,3,4.463999987,1,0,200,61,1,199,3,1,0.1,1,stim/objects/HouseObjects/dustpan2.png,stim/12.jpeg,1,stim/1.png,2,2,59,2021-02-24_08h00.12.940,premup-three_ses-02_part-03_label-phase3,3.2.4,MacIntel,60
1,right,0.978999853,,,0,,,0,,,1,0,200,120,1,199,0,1,0,2,stim/objects/HouseObjects/clothesdryingrack3.png,,0,stim/0.png,0,0,59,2021-02-24_08h00.12.940,premup-three_ses-02_part-03_label-phase3,3.2.4,MacIntel,60
1,left,1.434999943,3,1.468999863,0,3,1.885999918,0,2,2.411999941,1,0,200,16,1,199,1,2,0.5,1,stim/objects/Instruments/maraca.png,stim/41.jpeg,4,stim/4.png,1,3,59,2021-02-24_08h00.12.940,premup-three_ses-02_part-03_label-phase3,3.2.4,MacIntel,60
1,right,0.844000101,2,1.439999819,0,3,1.430999756,0,1,3.409999847,1,0,200,13,1,199,1,2,0.5,1,stim/objects/HouseObjects/lintroller.png,stim/44.jpeg,4,stim/4.png,4,1,59,2021-02-24_08h00.12.940,premup-three_ses-02_part-03_label-phase3,3.2.4,MacIntel,60
1,right,0.839999914,,,0,,,0,,,1,0,200,140,1,199,0,1,0,2,stim/objects/HouseObjects/glassmop3.png,,0,stim/0.png,0,0,59,2021-02-24_08h00.12.940,premup-three_ses-02_part-03_label-phase3,3.2.4,MacIntel,60
1,right,0.612999916,1,1.258999825,0,3,1.996999741,0,3,1.859999895,1,0,200,83,1,199,3,1,0.9,1,stim/objects/HouseObjects/lintroller2.png,stim/24.jpeg,2,stim/2.png,4,4,59,2021-02-24_08h00.12.940,premup-three_ses-02_part-03_label-phase3,3.2.4,MacIntel,60
1,right,1.092000008,2,1.426999807,0,2,1.34800005,0,2,0.940000057,1,0,200,33,1,199,2,2,0.7,1,stim/objects/Instruments/pipepiano.png,stim/51.jpeg,5,stim/5.png,1,4,59,2021-02-24_08h00.12.940,premup-three_ses-02_part-03_label-phase3,3.2.4,MacIntel,60
1,left,1.926000118,,,0,,,0,,,1,0,200,146,1,199,0,1,0,2,stim/objects/HouseObjects/key3.png,,0,stim/0.png,0,0,59,2021-02-24_08h00.12.940,premup-three_ses-02_part-03_label-phase3,3.2.4,MacIntel,60
1,right,0.743000031,,,0,,,0,,,1,0,200,105,1,199,0,1,0,2,stim/objects/HouseObjects/blender3.png,,0,stim/0.png,0,0,59,2021-02-24_08h00.12.940,premup-three_ses-02_part-03_label-phase3,3.2.4,MacIntel,60
1,right,0.611000061,2,1.865999937,0,3,1.599999905,0,1,2.662999868,1,0,200,62,1,199,3,1,0.1,1,stim/objects/HouseObjects/flyswatter2.png,stim/13.jpeg,1,stim/1.png,3,3,59,2021-02-24_08h00.12.940,premup-three_ses-02_part-03_label-phase3,3.2.4,MacIntel,60
1,right,0.730000019,2,0.920000076,0,3,1.029000044,0,3,0.997999907,1,0,200,89,1,199,3,1,0.9,1,stim/objects/HouseObjects/rubbergloves2.png,stim/22.jpeg,2,stim/2.png,2,4,59,2021-02-24_08h00.12.940,premup-three_ses-02_part-03_label-phase3,3.2.4,MacIntel,60
1,right,1.106999874,2,0.750999928,0,2,1.146999836,0,2,0.679999828,1,0,200,4,1,199,1,1,0.5,1,stim/objects/HouseObjects/iron.png,stim/33.jpeg,3,stim/3.png,3,2,59,2021-02-24_08h00.12.940,premup-three_ses-02_part-03_label-phase3,3.2.4,MacIntel,60
1,right,0.88499999,,,0,,,0,,,1,0,200,110,1,199,0,2,0,2,stim/objects/Instruments/accordion3.png,,0,stim/0.png,0,0,59,2021-02-24_08h00.12.940,premup-three_ses-02_part-03_label-phase3,3.2.4,MacIntel,60
1,right,0.621999979,2,0.966999769,0,3,2.062999964,0,3,0.703999996,1,0,200,26,1,199,2,1,0.3,1,stim/objects/HouseObjects/ballofstring2.png,stim/53.jpeg,5,stim/5.png,3,3,59,2021-02-24_08h00.12.940,premup-three_ses-02_part-03_label-phase3,3.2.4,MacIntel,60
1,right,1.529999971,,,0,,,0,,,1,0,200,142,1,199,0,1,0,2,stim/objects/HouseObjects/handbrush3.png,,0,stim/0.png,0,0,59,2021-02-24_08h00.12.940,premup-three_ses-02_part-03_label-phase3,3.2.4,MacIntel,60
1,right,0.648999929,,,0,,,0,,,1,0,200,134,1,199,0,2,0,2,stim/objects/Instruments/electricguitar3.png,,0,stim/0.png,0,0,59,2021-02-24_08h00.12.940,premup-three_ses-02_part-03_label-phase3,3.2.4,MacIntel,60
1,right,0.613999844,,,0,,,0,,,1,0,200,125,1,199,0,1,0,2,stim/objects/HouseObjects/doormat3.png,,0,stim/0.png,0,0,59,2021-02-24_08h00.12.940,premup-three_ses-02_part-03_label-phase3,3.2.4,MacIntel,60
1,right,0.717999935,2,0.751999855,0,1,0.994999886,0,2,1.365999937,1,0,200,34,1,199,2,2,0.7,1,stim/objects/Instruments/record.png,stim/52.jpeg,5,stim/5.png,2,3,59,2021-02-24_08h00.12.940,premup-three_ses-02_part-03_label-phase3,3.2.4,MacIntel,60
