key_resp_pract.keys,key_resp_pract.rt,trial_acc,trial_index,practice_loop.thisRepN,practice_loop.thisTrialN,practice_loop.thisN,practice_loop.thisIndex,practice_loop.ran,practice_loop.order,scn_condition,scn_cat,scn_inst,scn_file,obj_cat,obj_cat_num,obj_file,trial_cond,quadrant,obj_x,obj_y,corr_ans,participant,date,expName,psychopyVersion,OS,frameRate,key_resp_trial.keys,key_resp_trial.rt,iterations.thisRepN,iterations.thisTrialN,iterations.thisN,iterations.thisIndex,iterations.ran,iterations.order,task_innerloop.thisRepN,task_innerloop.thisTrialN,task_innerloop.thisN,task_innerloop.thisIndex,task_innerloop.ran,task_innerloop.order,iteration_index,rating_acc,slider.response,slider.rt,slider_2.response,slider_2.rt,ratings.thisRepN,ratings.thisTrialN,ratings.thisN,ratings.thisIndex,ratings.ran,ratings.order,obj_cat_top,min_resp_top,max_resp_top,obj_cat_bottom,min_resp_bottom,max_resp_bottom
,,0,1,1,0,240,120,1,239,2,6,1,stim/61.jpeg,HouseObjects,1,stim/objects/HouseObjects/rug2.png,0.7,3,-0.2,-0.15,left,59,2021-02-22_08h03.52.198,premup-three_ses-01_part-01_label-phase1,3.2.4,MacIntel,60,,,,,,,,,,,,,,,,,,,,,,,,,,,,,,,,
right,1.561000109,1,2,1,0,240,183,1,239,3,1,4,stim/14.jpeg,Instruments,2,stim/objects/Instruments/trumpet2.png,0.9,3,-0.2,-0.15,right,59,2021-02-22_08h03.52.198,premup-three_ses-01_part-01_label-phase1,3.2.4,MacIntel,60,,,,,,,,,,,,,,,,,,,,,,,,,,,,,,,,
right,1.312000036,0,3,1,0,240,126,1,239,2,6,3,stim/63.jpeg,HouseObjects,1,stim/objects/HouseObjects/saw2.png,0.7,4,0.2,-0.15,left,59,2021-02-22_08h03.52.198,premup-three_ses-01_part-01_label-phase1,3.2.4,MacIntel,60,,,,,,,,,,,,,,,,,,,,,,,,,,,,,,,,
right,1.756999969,0,4,1,0,240,229,1,239,3,2,2,stim/22.jpeg,HouseObjects,1,stim/objects/HouseObjects/towel2.png,0.9,3,-0.2,-0.15,left,59,2021-02-22_08h03.52.198,premup-three_ses-01_part-01_label-phase1,3.2.4,MacIntel,60,,,,,,,,,,,,,,,,,,,,,,,,,,,,,,,,
right,1.286000013,1,5,1,0,240,189,1,239,3,1,2,stim/12.jpeg,Instruments,2,stim/objects/Instruments/triangle2.png,0.9,3,-0.2,-0.15,right,59,2021-02-22_08h03.52.198,premup-three_ses-01_part-01_label-phase1,3.2.4,MacIntel,60,,,,,,,,,,,,,,,,,,,,,,,,,,,,,,,,
,,0,6,1,0,240,40,1,239,1,4,1,stim/41.jpeg,HouseObjects,1,stim/objects/HouseObjects/sponge.png,0.5,3,-0.2,-0.15,left,59,2021-02-22_08h03.52.198,premup-three_ses-01_part-01_label-phase1,3.2.4,MacIntel,60,,,,,,,,,,,,,,,,,,,,,,,,,,,,,,,,
,,0,7,1,0,240,150,1,239,2,6,3,stim/63.jpeg,Instruments,2,stim/objects/Instruments/speaker2.png,0.3,1,-0.2,0.15,right,59,2021-02-22_08h03.52.198,premup-three_ses-01_part-01_label-phase1,3.2.4,MacIntel,60,,,,,,,,,,,,,,,,,,,,,,,,,,,,,,,,
left,1.065999985,0,8,1,0,240,169,1,239,3,1,2,stim/12.jpeg,Instruments,2,stim/objects/Instruments/triangle2.png,0.9,1,-0.2,0.15,right,59,2021-02-22_08h03.52.198,premup-three_ses-01_part-01_label-phase1,3.2.4,MacIntel,60,,,,,,,,,,,,,,,,,,,,,,,,,,,,,,,,
left,1.674999952,0,9,1,0,240,28,1,239,1,3,1,stim/31.jpeg,Instruments,2,stim/objects/Instruments/record_player.png,0.5,2,0.2,0.15,right,59,2021-02-22_08h03.52.198,premup-three_ses-01_part-01_label-phase1,3.2.4,MacIntel,60,,,,,,,,,,,,,,,,,,,,,,,,,,,,,,,,
right,1.447999954,0,10,1,0,240,122,1,239,2,6,3,stim/63.jpeg,HouseObjects,1,stim/objects/HouseObjects/saw2.png,0.7,3,-0.2,-0.15,left,59,2021-02-22_08h03.52.198,premup-three_ses-01_part-01_label-phase1,3.2.4,MacIntel,60,,,,,,,,,,,,,,,,,,,,,,,,,,,,,,,,
,,0,1,,,,,,,2,6,2,stim/62.jpeg,HouseObjects,1,stim/objects/HouseObjects/safetypin2.png,0.7,3,-0.2,-0.15,left,59,2021-02-22_08h03.52.198,premup-three_ses-01_part-01_label-phase1,3.2.4,MacIntel,60,right,1.277999878,4,0,4,0,1,3,1,0,240,121,1,239,,,,,,,,,,,,,,,,,,
,,1,2,,,,,,,3,2,2,stim/22.jpeg,HouseObjects,1,stim/objects/HouseObjects/towel2.png,0.9,3,-0.2,-0.15,left,59,2021-02-22_08h03.52.198,premup-three_ses-01_part-01_label-phase1,3.2.4,MacIntel,60,left,0.98300004,4,0,4,0,1,3,1,0,240,229,1,239,,,,,,,,,,,,,,,,,,
,,0,3,,,,,,,2,6,4,stim/64.jpeg,Instruments,2,stim/objects/Instruments/tambourine2.png,0.3,3,-0.2,-0.15,right,59,2021-02-22_08h03.52.198,premup-three_ses-01_part-01_label-phase1,3.2.4,MacIntel,60,left,1.332999945,4,0,4,0,1,3,1,0,240,151,1,239,,,,,,,,,,,,,,,,,,
,,0,4,,,,,,,1,4,1,stim/41.jpeg,Instruments,2,stim/objects/Instruments/timbal.png,0.5,2,0.2,0.15,right,59,2021-02-22_08h03.52.198,premup-three_ses-01_part-01_label-phase1,3.2.4,MacIntel,60,left,1.054999828,4,0,4,0,1,3,1,0,240,76,1,239,,,,,,,,,,,,,,,,,,
,,0,5,,,,,,,1,4,4,stim/44.jpeg,Instruments,2,stim/objects/Instruments/trumpet.png,0.5,1,-0.2,0.15,right,59,2021-02-22_08h03.52.198,premup-three_ses-01_part-01_label-phase1,3.2.4,MacIntel,60,,,4,0,4,0,1,3,1,0,240,63,1,239,,,,,,,,,,,,,,,,,,
,,0,6,,,,,,,1,4,3,stim/43.jpeg,HouseObjects,1,stim/objects/HouseObjects/teapot.png,0.5,4,0.2,-0.15,left,59,2021-02-22_08h03.52.198,premup-three_ses-01_part-01_label-phase1,3.2.4,MacIntel,60,right,1.671999931,4,0,4,0,1,3,1,0,240,42,1,239,,,,,,,,,,,,,,,,,,
,,0,7,,,,,,,3,1,3,stim/13.jpeg,HouseObjects,1,stim/objects/HouseObjects/teapot2.png,0.1,1,-0.2,0.15,left,59,2021-02-22_08h03.52.198,premup-three_ses-01_part-01_label-phase1,3.2.4,MacIntel,60,right,0.883999825,4,0,4,0,1,3,1,0,240,162,1,239,,,,,,,,,,,,,,,,,,
,,0,8,,,,,,,2,5,1,stim/51.jpeg,Instruments,2,stim/objects/Instruments/tuba.png,0.7,3,-0.2,-0.15,right,59,2021-02-22_08h03.52.198,premup-three_ses-01_part-01_label-phase1,3.2.4,MacIntel,60,left,1.19299984,4,0,4,0,1,3,1,0,240,108,1,239,,,,,,,,,,,,,,,,,,
,,1,9,,,,,,,1,3,3,stim/33.jpeg,Instruments,2,stim/objects/Instruments/speaker.png,0.5,2,0.2,0.15,right,59,2021-02-22_08h03.52.198,premup-three_ses-01_part-01_label-phase1,3.2.4,MacIntel,60,right,1.397000074,4,0,4,0,1,3,1,0,240,30,1,239,,,,,,,,,,,,,,,,,,
,,0,10,,,,,,,1,3,3,stim/33.jpeg,Instruments,2,stim/objects/Instruments/speaker.png,0.5,1,-0.2,0.15,right,59,2021-02-22_08h03.52.198,premup-three_ses-01_part-01_label-phase1,3.2.4,MacIntel,60,left,1.115999937,4,0,4,0,1,3,1,0,240,26,1,239,,,,,,,,,,,,,,,,,,
,,0,11,,,,,,,2,6,3,stim/63.jpeg,HouseObjects,1,stim/objects/HouseObjects/saw2.png,0.7,2,0.2,0.15,left,59,2021-02-22_08h03.52.198,premup-three_ses-01_part-01_label-phase1,3.2.4,MacIntel,60,right,1.216999769,4,0,4,0,1,3,1,0,240,130,1,239,,,,,,,,,,,,,,,,,,
,,0,12,,,,,,,3,1,3,stim/13.jpeg,Instruments,2,stim/objects/Instruments/trombone2.png,0.9,4,0.2,-0.15,right,59,2021-02-22_08h03.52.198,premup-three_ses-01_part-01_label-phase1,3.2.4,MacIntel,60,left,1.36899972,4,0,4,0,1,3,1,0,240,166,1,239,,,,,,,,,,,,,,,,,,
,,1,13,,,,,,,3,2,4,stim/24.jpeg,HouseObjects,1,stim/objects/HouseObjects/wateringcan2.png,0.9,4,0.2,-0.15,left,59,2021-02-22_08h03.52.198,premup-three_ses-01_part-01_label-phase1,3.2.4,MacIntel,60,left,1.44900012,4,0,4,0,1,3,1,0,240,223,1,239,,,,,,,,,,,,,,,,,,
,,0,14,,,,,,,1,3,4,stim/34.jpeg,HouseObjects,1,stim/objects/HouseObjects/scale.png,0.5,3,-0.2,-0.15,left,59,2021-02-22_08h03.52.198,premup-three_ses-01_part-01_label-phase1,3.2.4,MacIntel,60,right,1.100000143,4,0,4,0,1,3,1,0,240,11,1,239,,,,,,,,,,,,,,,,,,
,,1,15,,,,,,,2,6,1,stim/61.jpeg,HouseObjects,1,stim/objects/HouseObjects/rug2.png,0.7,1,-0.2,0.15,left,59,2021-02-22_08h03.52.198,premup-three_ses-01_part-01_label-phase1,3.2.4,MacIntel,60,left,1.217999935,4,0,4,0,1,3,1,0,240,124,1,239,,,,,,,,,,,,,,,,,,
,,1,16,,,,,,,1,4,2,stim/42.jpeg,Instruments,2,stim/objects/Instruments/triangle.png,0.5,2,0.2,0.15,right,59,2021-02-22_08h03.52.198,premup-three_ses-01_part-01_label-phase1,3.2.4,MacIntel,60,right,1.38499999,4,0,4,0,1,3,1,0,240,69,1,239,,,,,,,,,,,,,,,,,,
,,1,17,,,,,,,3,1,2,stim/12.jpeg,Instruments,2,stim/objects/Instruments/triangle2.png,0.9,1,-0.2,0.15,right,59,2021-02-22_08h03.52.198,premup-three_ses-01_part-01_label-phase1,3.2.4,MacIntel,60,right,1.213999987,4,0,4,0,1,3,1,0,240,173,1,239,,,,,,,,,,,,,,,,,,
,,0,18,,,,,,,1,3,4,stim/34.jpeg,HouseObjects,1,stim/objects/HouseObjects/scale.png,0.5,4,0.2,-0.15,left,59,2021-02-22_08h03.52.198,premup-three_ses-01_part-01_label-phase1,3.2.4,MacIntel,60,right,1.529999733,4,0,4,0,1,3,1,0,240,19,1,239,,,,,,,,,,,,,,,,,,
,,0,19,,,,,,,1,4,4,stim/44.jpeg,HouseObjects,1,stim/objects/HouseObjects/thermometer.png,0.5,2,0.2,0.15,left,59,2021-02-22_08h03.52.198,premup-three_ses-01_part-01_label-phase1,3.2.4,MacIntel,60,,,4,0,4,0,1,3,1,0,240,55,1,239,,,,,,,,,,,,,,,,,,
,,0,20,,,,,,,2,5,2,stim/52.jpeg,Instruments,2,stim/objects/Instruments/violin.png,0.7,4,0.2,-0.15,right,59,2021-02-22_08h03.52.198,premup-three_ses-01_part-01_label-phase1,3.2.4,MacIntel,60,left,1.260999918,4,0,4,0,1,3,1,0,240,109,1,239,,,,,,,,,,,,,,,,,,
,,0,21,,,,,,,1,4,1,stim/41.jpeg,HouseObjects,1,stim/objects/HouseObjects/sponge.png,0.5,3,-0.2,-0.15,left,59,2021-02-22_08h03.52.198,premup-three_ses-01_part-01_label-phase1,3.2.4,MacIntel,60,right,1.319999933,4,0,4,0,1,3,1,0,240,52,1,239,,,,,,,,,,,,,,,,,,
,,1,22,,,,,,,2,5,2,stim/52.jpeg,HouseObjects,1,stim/objects/HouseObjects/towel.png,0.3,1,-0.2,0.15,left,59,2021-02-22_08h03.52.198,premup-three_ses-01_part-01_label-phase1,3.2.4,MacIntel,60,left,1.198999882,4,0,4,0,1,3,1,0,240,85,1,239,,,,,,,,,,,,,,,,,,
,,1,23,,,,,,,3,1,4,stim/14.jpeg,Instruments,2,stim/objects/Instruments/trumpet2.png,0.9,3,-0.2,-0.15,right,59,2021-02-22_08h03.52.198,premup-three_ses-01_part-01_label-phase1,3.2.4,MacIntel,60,right,1.068999767,4,0,4,0,1,3,1,0,240,195,1,239,,,,,,,,,,,,,,,,,,
,,1,24,,,,,,,3,1,4,stim/14.jpeg,Instruments,2,stim/objects/Instruments/trumpet2.png,0.9,1,-0.2,0.15,right,59,2021-02-22_08h03.52.198,premup-three_ses-01_part-01_label-phase1,3.2.4,MacIntel,60,right,1.470000029,4,0,4,0,1,3,1,0,240,179,1,239,,,,,,,,,,,,,,,,,,
,,1,25,,,,,,,1,4,2,stim/42.jpeg,HouseObjects,1,stim/objects/HouseObjects/spraybottle.png,0.5,4,0.2,-0.15,left,59,2021-02-22_08h03.52.198,premup-three_ses-01_part-01_label-phase1,3.2.4,MacIntel,60,left,1.15899992,4,0,4,0,1,3,1,0,240,49,1,239,,,,,,,,,,,,,,,,,,
,,0,26,,,,,,,1,4,4,stim/44.jpeg,HouseObjects,1,stim/objects/HouseObjects/thermometer.png,0.5,1,-0.2,0.15,left,59,2021-02-22_08h03.52.198,premup-three_ses-01_part-01_label-phase1,3.2.4,MacIntel,60,right,1.30099988,4,0,4,0,1,3,1,0,240,51,1,239,,,,,,,,,,,,,,,,,,
,,0,27,,,,,,,3,2,1,stim/21.jpeg,Instruments,2,stim/objects/Instruments/tuba2.png,0.1,1,-0.2,0.15,right,59,2021-02-22_08h03.52.198,premup-three_ses-01_part-01_label-phase1,3.2.4,MacIntel,60,left,1.44299984,4,0,4,0,1,3,1,0,240,236,1,239,,,,,,,,,,,,,,,,,,
,,1,28,,,,,,,1,3,4,stim/34.jpeg,Instruments,2,stim/objects/Instruments/tambourine.png,0.5,1,-0.2,0.15,right,59,2021-02-22_08h03.52.198,premup-three_ses-01_part-01_label-phase1,3.2.4,MacIntel,60,right,1.842999935,4,0,4,0,1,3,1,0,240,31,1,239,,,,,,,,,,,,,,,,,,
,,0,29,,,,,,,2,6,2,stim/62.jpeg,Instruments,2,stim/objects/Instruments/saxophone2.png,0.3,4,0.2,-0.15,right,59,2021-02-22_08h03.52.198,premup-three_ses-01_part-01_label-phase1,3.2.4,MacIntel,60,left,1.198999882,4,0,4,0,1,3,1,0,240,149,1,239,,,,,,,,,,,,,,,,,,
,,0,30,,,,,,,3,1,1,stim/11.jpeg,Instruments,2,stim/objects/Instruments/timbal2.png,0.9,2,0.2,0.15,right,59,2021-02-22_08h03.52.198,premup-three_ses-01_part-01_label-phase1,3.2.4,MacIntel,60,left,1.191999912,4,0,4,0,1,3,1,0,240,196,1,239,,,,,,,,,,,,,,,,,,
,,1,31,,,,,,,2,5,1,stim/51.jpeg,Instruments,2,stim/objects/Instruments/tuba.png,0.7,2,0.2,0.15,right,59,2021-02-22_08h03.52.198,premup-three_ses-01_part-01_label-phase1,3.2.4,MacIntel,60,right,1.098999977,4,0,4,0,1,3,1,0,240,116,1,239,,,,,,,,,,,,,,,,,,
,,0,32,,,,,,,2,6,2,stim/62.jpeg,Instruments,2,stim/objects/Instruments/saxophone2.png,0.3,4,0.2,-0.15,right,59,2021-02-22_08h03.52.198,premup-three_ses-01_part-01_label-phase1,3.2.4,MacIntel,60,left,1.235999823,4,0,4,0,1,3,1,0,240,153,1,239,,,,,,,,,,,,,,,,,,
,,1,33,,,,,,,1,4,3,stim/43.jpeg,Instruments,2,stim/objects/Instruments/trombone.png,0.5,4,0.2,-0.15,right,59,2021-02-22_08h03.52.198,premup-three_ses-01_part-01_label-phase1,3.2.4,MacIntel,60,right,1.76699996,4,0,4,0,1,3,1,0,240,78,1,239,,,,,,,,,,,,,,,,,,
,,1,34,,,,,,,2,5,4,stim/54.jpeg,Instruments,2,stim/objects/Instruments/xylophone.png,0.7,2,0.2,0.15,right,59,2021-02-22_08h03.52.198,premup-three_ses-01_part-01_label-phase1,3.2.4,MacIntel,60,right,1.397000074,4,0,4,0,1,3,1,0,240,99,1,239,,,,,,,,,,,,,,,,,,
,,0,35,,,,,,,2,5,4,stim/54.jpeg,HouseObjects,1,stim/objects/HouseObjects/wateringcan.png,0.3,2,0.2,0.15,left,59,2021-02-22_08h03.52.198,premup-three_ses-01_part-01_label-phase1,3.2.4,MacIntel,60,right,0.724999905,4,0,4,0,1,3,1,0,240,91,1,239,,,,,,,,,,,,,,,,,,
,,1,36,,,,,,,3,1,1,stim/11.jpeg,Instruments,2,stim/objects/Instruments/timbal2.png,0.9,1,-0.2,0.15,right,59,2021-02-22_08h03.52.198,premup-three_ses-01_part-01_label-phase1,3.2.4,MacIntel,60,right,1.895999908,4,0,4,0,1,3,1,0,240,164,1,239,,,,,,,,,,,,,,,,,,
,,1,37,,,,,,,3,1,2,stim/12.jpeg,Instruments,2,stim/objects/Instruments/triangle2.png,0.9,1,-0.2,0.15,right,59,2021-02-22_08h03.52.198,premup-three_ses-01_part-01_label-phase1,3.2.4,MacIntel,60,right,0.852999926,4,0,4,0,1,3,1,0,240,197,1,239,,,,,,,,,,,,,,,,,,
,,1,38,,,,,,,3,1,4,stim/14.jpeg,Instruments,2,stim/objects/Instruments/trumpet2.png,0.9,3,-0.2,-0.15,right,59,2021-02-22_08h03.52.198,premup-three_ses-01_part-01_label-phase1,3.2.4,MacIntel,60,right,0.568999767,4,0,4,0,1,3,1,0,240,191,1,239,,,,,,,,,,,,,,,,,,
,,1,39,,,,,,,1,4,1,stim/41.jpeg,HouseObjects,1,stim/objects/HouseObjects/sponge.png,0.5,2,0.2,0.15,left,59,2021-02-22_08h03.52.198,premup-three_ses-01_part-01_label-phase1,3.2.4,MacIntel,60,left,1.054999828,4,0,4,0,1,3,1,0,240,48,1,239,,,,,,,,,,,,,,,,,,
,,0,40,,,,,,,2,5,4,stim/54.jpeg,Instruments,2,stim/objects/Instruments/xylophone.png,0.7,4,0.2,-0.15,right,59,2021-02-22_08h03.52.198,premup-three_ses-01_part-01_label-phase1,3.2.4,MacIntel,60,,,4,0,4,0,1,3,1,0,240,111,1,239,,,,,,,,,,,,,,,,,,
,,1,41,,,,,,,3,1,2,stim/12.jpeg,Instruments,2,stim/objects/Instruments/triangle2.png,0.9,3,-0.2,-0.15,right,59,2021-02-22_08h03.52.198,premup-three_ses-01_part-01_label-phase1,3.2.4,MacIntel,60,right,0.797999859,4,0,4,0,1,3,1,0,240,177,1,239,,,,,,,,,,,,,,,,,,
,,0,42,,,,,,,2,6,2,stim/62.jpeg,Instruments,2,stim/objects/Instruments/saxophone2.png,0.3,3,-0.2,-0.15,right,59,2021-02-22_08h03.52.198,premup-three_ses-01_part-01_label-phase1,3.2.4,MacIntel,60,left,1.142999887,4,0,4,0,1,3,1,0,240,157,1,239,,,,,,,,,,,,,,,,,,
,,0,43,,,,,,,2,5,3,stim/53.jpeg,Instruments,2,stim/objects/Instruments/vuvuzela.png,0.7,2,0.2,0.15,right,59,2021-02-22_08h03.52.198,premup-three_ses-01_part-01_label-phase1,3.2.4,MacIntel,60,left,1.54399991,4,0,4,0,1,3,1,0,240,94,1,239,,,,,,,,,,,,,,,,,,
,,0,44,,,,,,,2,6,4,stim/64.jpeg,HouseObjects,1,stim/objects/HouseObjects/scale2.png,0.7,2,0.2,0.15,left,59,2021-02-22_08h03.52.198,premup-three_ses-01_part-01_label-phase1,3.2.4,MacIntel,60,right,0.972999811,4,0,4,0,1,3,1,0,240,131,1,239,,,,,,,,,,,,,,,,,,
,,1,45,,,,,,,1,3,1,stim/31.jpeg,Instruments,2,stim/objects/Instruments/record_player.png,0.5,4,0.2,-0.15,right,59,2021-02-22_08h03.52.198,premup-three_ses-01_part-01_label-phase1,3.2.4,MacIntel,60,right,1.373999834,4,0,4,0,1,3,1,0,240,24,1,239,,,,,,,,,,,,,,,,,,
,,1,46,,,,,,,3,1,2,stim/12.jpeg,Instruments,2,stim/objects/Instruments/triangle2.png,0.9,1,-0.2,0.15,right,59,2021-02-22_08h03.52.198,premup-three_ses-01_part-01_label-phase1,3.2.4,MacIntel,60,right,0.701999903,4,0,4,0,1,3,1,0,240,169,1,239,,,,,,,,,,,,,,,,,,
,,1,47,,,,,,,2,6,2,stim/62.jpeg,HouseObjects,1,stim/objects/HouseObjects/safetypin2.png,0.7,4,0.2,-0.15,left,59,2021-02-22_08h03.52.198,premup-three_ses-01_part-01_label-phase1,3.2.4,MacIntel,60,left,1.128999949,4,0,4,0,1,3,1,0,240,125,1,239,,,,,,,,,,,,,,,,,,
,,0,48,,,,,,,1,3,1,stim/31.jpeg,HouseObjects,1,stim/objects/HouseObjects/rug.png,0.5,2,0.2,0.15,left,59,2021-02-22_08h03.52.198,premup-three_ses-01_part-01_label-phase1,3.2.4,MacIntel,60,right,0.997999907,4,0,4,0,1,3,1,0,240,12,1,239,,,,,,,,,,,,,,,,,,
,,1,49,,,,,,,3,1,3,stim/13.jpeg,Instruments,2,stim/objects/Instruments/trombone2.png,0.9,3,-0.2,-0.15,right,59,2021-02-22_08h03.52.198,premup-three_ses-01_part-01_label-phase1,3.2.4,MacIntel,60,right,0.984999895,4,0,4,0,1,3,1,0,240,190,1,239,,,,,,,,,,,,,,,,,,
,,0,50,,,,,,,3,2,4,stim/24.jpeg,HouseObjects,1,stim/objects/HouseObjects/wateringcan2.png,0.9,2,0.2,0.15,left,59,2021-02-22_08h03.52.198,premup-three_ses-01_part-01_label-phase1,3.2.4,MacIntel,60,right,1.633000135,4,0,4,0,1,3,1,0,240,219,1,239,,,,,,,,,,,,,,,,,,
,,0,51,,,,,,,1,4,3,stim/43.jpeg,HouseObjects,1,stim/objects/HouseObjects/teapot.png,0.5,4,0.2,-0.15,left,59,2021-02-22_08h03.52.198,premup-three_ses-01_part-01_label-phase1,3.2.4,MacIntel,60,right,1.748000145,4,0,4,0,1,3,1,0,240,54,1,239,,,,,,,,,,,,,,,,,,
,,0,52,,,,,,,2,6,4,stim/64.jpeg,Instruments,2,stim/objects/Instruments/tambourine2.png,0.3,1,-0.2,0.15,right,59,2021-02-22_08h03.52.198,premup-three_ses-01_part-01_label-phase1,3.2.4,MacIntel,60,left,0.94299984,4,0,4,0,1,3,1,0,240,155,1,239,,,,,,,,,,,,,,,,,,
,,0,53,,,,,,,2,6,2,stim/62.jpeg,HouseObjects,1,stim/objects/HouseObjects/safetypin2.png,0.7,2,0.2,0.15,left,59,2021-02-22_08h03.52.198,premup-three_ses-01_part-01_label-phase1,3.2.4,MacIntel,60,right,1.309999943,4,0,4,0,1,3,1,0,240,137,1,239,,,,,,,,,,,,,,,,,,
,,0,54,,,,,,,1,4,2,stim/42.jpeg,HouseObjects,1,stim/objects/HouseObjects/spraybottle.png,0.5,4,0.2,-0.15,left,59,2021-02-22_08h03.52.198,premup-three_ses-01_part-01_label-phase1,3.2.4,MacIntel,60,right,1.463999748,4,0,4,0,1,3,1,0,240,57,1,239,,,,,,,,,,,,,,,,,,
,,1,55,,,,,,,3,1,1,stim/11.jpeg,Instruments,2,stim/objects/Instruments/timbal2.png,0.9,1,-0.2,0.15,right,59,2021-02-22_08h03.52.198,premup-three_ses-01_part-01_label-phase1,3.2.4,MacIntel,60,right,1.329999924,4,0,4,0,1,3,1,0,240,180,1,239,,,,,,,,,,,,,,,,,,
,,1,56,,,,,,,3,1,4,stim/14.jpeg,Instruments,2,stim/objects/Instruments/trumpet2.png,0.9,1,-0.2,0.15,right,59,2021-02-22_08h03.52.198,premup-three_ses-01_part-01_label-phase1,3.2.4,MacIntel,60,right,0.609999895,4,0,4,0,1,3,1,0,240,199,1,239,,,,,,,,,,,,,,,,,,
,,0,57,,,,,,,1,3,4,stim/34.jpeg,HouseObjects,1,stim/objects/HouseObjects/scale.png,0.5,3,-0.2,-0.15,left,59,2021-02-22_08h03.52.198,premup-three_ses-01_part-01_label-phase1,3.2.4,MacIntel,60,right,1.20299983,4,0,4,0,1,3,1,0,240,3,1,239,,,,,,,,,,,,,,,,,,
,,0,58,,,,,,,1,4,3,stim/43.jpeg,Instruments,2,stim/objects/Instruments/trombone.png,0.5,4,0.2,-0.15,right,59,2021-02-22_08h03.52.198,premup-three_ses-01_part-01_label-phase1,3.2.4,MacIntel,60,left,1.796999693,4,0,4,0,1,3,1,0,240,66,1,239,,,,,,,,,,,,,,,,,,
,,1,59,,,,,,,3,1,1,stim/11.jpeg,Instruments,2,stim/objects/Instruments/timbal2.png,0.9,1,-0.2,0.15,right,59,2021-02-22_08h03.52.198,premup-three_ses-01_part-01_label-phase1,3.2.4,MacIntel,60,right,0.627999783,4,0,4,0,1,3,1,0,240,188,1,239,,,,,,,,,,,,,,,,,,
,,1,60,,,,,,,3,2,2,stim/22.jpeg,HouseObjects,1,stim/objects/HouseObjects/towel2.png,0.9,4,0.2,-0.15,left,59,2021-02-22_08h03.52.198,premup-three_ses-01_part-01_label-phase1,3.2.4,MacIntel,60,left,1.199999809,4,0,4,0,1,3,1,0,240,221,1,239,,,,,,,,,,,,,,,,,,
,,0,61,,,,,,,1,3,1,stim/31.jpeg,HouseObjects,1,stim/objects/HouseObjects/rug.png,0.5,3,-0.2,-0.15,left,59,2021-02-22_08h03.52.198,premup-three_ses-01_part-01_label-phase1,3.2.4,MacIntel,60,right,1.23300004,4,0,4,0,1,3,1,0,240,4,1,239,,,,,,,,,,,,,,,,,,
,,1,62,,,,,,,3,2,2,stim/22.jpeg,HouseObjects,1,stim/objects/HouseObjects/towel2.png,0.9,2,0.2,0.15,left,59,2021-02-22_08h03.52.198,premup-three_ses-01_part-01_label-phase1,3.2.4,MacIntel,60,left,0.967999935,4,0,4,0,1,3,1,0,240,217,1,239,,,,,,,,,,,,,,,,,,
,,1,63,,,,,,,1,4,1,stim/41.jpeg,Instruments,2,stim/objects/Instruments/timbal.png,0.5,1,-0.2,0.15,right,59,2021-02-22_08h03.52.198,premup-three_ses-01_part-01_label-phase1,3.2.4,MacIntel,60,right,0.832999945,4,0,4,0,1,3,1,0,240,72,1,239,,,,,,,,,,,,,,,,,,
,,0,64,,,,,,,2,5,2,stim/52.jpeg,Instruments,2,stim/objects/Instruments/violin.png,0.7,3,-0.2,-0.15,right,59,2021-02-22_08h03.52.198,premup-three_ses-01_part-01_label-phase1,3.2.4,MacIntel,60,left,1.173000097,4,0,4,0,1,3,1,0,240,97,1,239,,,,,,,,,,,,,,,,,,
,,0,65,,,,,,,2,5,1,stim/51.jpeg,HouseObjects,1,stim/objects/HouseObjects/thread.png,0.3,4,0.2,-0.15,left,59,2021-02-22_08h03.52.198,premup-three_ses-01_part-01_label-phase1,3.2.4,MacIntel,60,right,0.839999914,4,0,4,0,1,3,1,0,240,84,1,239,,,,,,,,,,,,,,,,,,
,,0,66,,,,,,,1,4,2,stim/42.jpeg,HouseObjects,1,stim/objects/HouseObjects/spraybottle.png,0.5,4,0.2,-0.15,left,59,2021-02-22_08h03.52.198,premup-three_ses-01_part-01_label-phase1,3.2.4,MacIntel,60,right,1.174999714,4,0,4,0,1,3,1,0,240,45,1,239,,,,,,,,,,,,,,,,,,
,,1,67,,,,,,,2,5,3,stim/53.jpeg,Instruments,2,stim/objects/Instruments/vuvuzela.png,0.7,2,0.2,0.15,right,59,2021-02-22_08h03.52.198,premup-three_ses-01_part-01_label-phase1,3.2.4,MacIntel,60,right,1.197000027,4,0,4,0,1,3,1,0,240,114,1,239,,,,,,,,,,,,,,,,,,
,,1,68,,,,,,,1,4,3,stim/43.jpeg,HouseObjects,1,stim/objects/HouseObjects/teapot.png,0.5,4,0.2,-0.15,left,59,2021-02-22_08h03.52.198,premup-three_ses-01_part-01_label-phase1,3.2.4,MacIntel,60,left,1.069000006,4,0,4,0,1,3,1,0,240,58,1,239,,,,,,,,,,,,,,,,,,
,,1,69,,,,,,,3,2,2,stim/22.jpeg,HouseObjects,1,stim/objects/HouseObjects/towel2.png,0.9,2,0.2,0.15,left,59,2021-02-22_08h03.52.198,premup-three_ses-01_part-01_label-phase1,3.2.4,MacIntel,60,left,1.25,4,0,4,0,1,3,1,0,240,201,1,239,,,,,,,,,,,,,,,,,,
,,1,70,,,,,,,1,3,1,stim/31.jpeg,HouseObjects,1,stim/objects/HouseObjects/rug.png,0.5,1,-0.2,0.15,left,59,2021-02-22_08h03.52.198,premup-three_ses-01_part-01_label-phase1,3.2.4,MacIntel,60,left,1.472999811,4,0,4,0,1,3,1,0,240,16,1,239,,,,,,,,,,,,,,,,,,
,,1,71,,,,,,,3,1,4,stim/14.jpeg,Instruments,2,stim/objects/Instruments/trumpet2.png,0.9,3,-0.2,-0.15,right,59,2021-02-22_08h03.52.198,premup-three_ses-01_part-01_label-phase1,3.2.4,MacIntel,60,right,0.714999914,4,0,4,0,1,3,1,0,240,183,1,239,,,,,,,,,,,,,,,,,,
,,1,72,,,,,,,3,1,2,stim/12.jpeg,Instruments,2,stim/objects/Instruments/triangle2.png,0.9,4,0.2,-0.15,right,59,2021-02-22_08h03.52.198,premup-three_ses-01_part-01_label-phase1,3.2.4,MacIntel,60,right,0.585999966,4,0,4,0,1,3,1,0,240,185,1,239,,,,,,,,,,,,,,,,,,
,,1,73,,,,,,,2,5,4,stim/54.jpeg,Instruments,2,stim/objects/Instruments/xylophone.png,0.7,3,-0.2,-0.15,right,59,2021-02-22_08h03.52.198,premup-three_ses-01_part-01_label-phase1,3.2.4,MacIntel,60,right,0.349999905,4,0,4,0,1,3,1,0,240,103,1,239,,,,,,,,,,,,,,,,,,
,,0,74,,,,,,,2,5,3,stim/53.jpeg,HouseObjects,1,stim/objects/HouseObjects/vacuumcleaner.png,0.3,3,-0.2,-0.15,left,59,2021-02-22_08h03.52.198,premup-three_ses-01_part-01_label-phase1,3.2.4,MacIntel,60,right,0.521999836,4,0,4,0,1,3,1,0,240,90,1,239,,,,,,,,,,,,,,,,,,
,,1,75,,,,,,,2,5,2,stim/52.jpeg,Instruments,2,stim/objects/Instruments/violin.png,0.7,4,0.2,-0.15,right,59,2021-02-22_08h03.52.198,premup-three_ses-01_part-01_label-phase1,3.2.4,MacIntel,60,right,0.981999874,4,0,4,0,1,3,1,0,240,101,1,239,,,,,,,,,,,,,,,,,,
,,0,76,,,,,,,2,5,3,stim/53.jpeg,HouseObjects,1,stim/objects/HouseObjects/vacuumcleaner.png,0.3,4,0.2,-0.15,left,59,2021-02-22_08h03.52.198,premup-three_ses-01_part-01_label-phase1,3.2.4,MacIntel,60,right,0.98300004,4,0,4,0,1,3,1,0,240,86,1,239,,,,,,,,,,,,,,,,,,
,,0,77,,,,,,,1,3,3,stim/33.jpeg,HouseObjects,1,stim/objects/HouseObjects/saw.png,0.5,3,-0.2,-0.15,left,59,2021-02-22_08h03.52.198,premup-three_ses-01_part-01_label-phase1,3.2.4,MacIntel,60,right,1.146999836,4,0,4,0,1,3,1,0,240,2,1,239,,,,,,,,,,,,,,,,,,
,,1,78,,,,,,,2,5,1,stim/51.jpeg,Instruments,2,stim/objects/Instruments/tuba.png,0.7,2,0.2,0.15,right,59,2021-02-22_08h03.52.198,premup-three_ses-01_part-01_label-phase1,3.2.4,MacIntel,60,right,0.796999931,4,0,4,0,1,3,1,0,240,112,1,239,,,,,,,,,,,,,,,,,,
,,1,79,,,,,,,2,5,4,stim/54.jpeg,Instruments,2,stim/objects/Instruments/xylophone.png,0.7,1,-0.2,0.15,right,59,2021-02-22_08h03.52.198,premup-three_ses-01_part-01_label-phase1,3.2.4,MacIntel,60,right,0.812999964,4,0,4,0,1,3,1,0,240,119,1,239,,,,,,,,,,,,,,,,,,
,,1,80,,,,,,,2,6,4,stim/64.jpeg,HouseObjects,1,stim/objects/HouseObjects/scale2.png,0.7,4,0.2,-0.15,left,59,2021-02-22_08h03.52.198,premup-three_ses-01_part-01_label-phase1,3.2.4,MacIntel,60,left,1.212999821,4,0,4,0,1,3,1,0,240,135,1,239,,,,,,,,,,,,,,,,,,
,,1,81,,,,,,,1,4,4,stim/44.jpeg,Instruments,2,stim/objects/Instruments/trumpet.png,0.5,3,-0.2,-0.15,right,59,2021-02-22_08h03.52.198,premup-three_ses-01_part-01_label-phase1,3.2.4,MacIntel,60,right,1.088999987,4,0,4,0,1,3,1,0,240,71,1,239,,,,,,,,,,,,,,,,,,
,,1,82,,,,,,,2,6,1,stim/61.jpeg,HouseObjects,1,stim/objects/HouseObjects/rug2.png,0.7,1,-0.2,0.15,left,59,2021-02-22_08h03.52.198,premup-three_ses-01_part-01_label-phase1,3.2.4,MacIntel,60,left,0.945999861,4,0,4,0,1,3,1,0,240,140,1,239,,,,,,,,,,,,,,,,,,
,,1,83,,,,,,,2,5,2,stim/52.jpeg,Instruments,2,stim/objects/Instruments/violin.png,0.7,2,0.2,0.15,right,59,2021-02-22_08h03.52.198,premup-three_ses-01_part-01_label-phase1,3.2.4,MacIntel,60,right,0.994999886,4,0,4,0,1,3,1,0,240,105,1,239,,,,,,,,,,,,,,,,,,
,,1,84,,,,,,,3,2,3,stim/23.jpeg,HouseObjects,1,stim/objects/HouseObjects/vacuumcleaner2.png,0.9,3,-0.2,-0.15,left,59,2021-02-22_08h03.52.198,premup-three_ses-01_part-01_label-phase1,3.2.4,MacIntel,60,left,1.161999941,4,0,4,0,1,3,1,0,240,222,1,239,,,,,,,,,,,,,,,,,,
,,1,85,,,,,,,2,5,2,stim/52.jpeg,Instruments,2,stim/objects/Instruments/violin.png,0.7,2,0.2,0.15,right,59,2021-02-22_08h03.52.198,premup-three_ses-01_part-01_label-phase1,3.2.4,MacIntel,60,right,0.875999928,4,0,4,0,1,3,1,0,240,113,1,239,,,,,,,,,,,,,,,,,,
,,0,86,,,,,,,1,3,1,stim/31.jpeg,Instruments,2,stim/objects/Instruments/record_player.png,0.5,1,-0.2,0.15,right,59,2021-02-22_08h03.52.198,premup-three_ses-01_part-01_label-phase1,3.2.4,MacIntel,60,left,0.822000027,4,0,4,0,1,3,1,0,240,36,1,239,,,,,,,,,,,,,,,,,,
,,1,87,,,,,,,1,3,2,stim/32.jpeg,HouseObjects,1,stim/objects/HouseObjects/safetypin.png,0.5,3,-0.2,-0.15,left,59,2021-02-22_08h03.52.198,premup-three_ses-01_part-01_label-phase1,3.2.4,MacIntel,60,left,0.852999926,4,0,4,0,1,3,1,0,240,9,1,239,,,,,,,,,,,,,,,,,,
,,0,88,,,,,,,1,3,4,stim/34.jpeg,HouseObjects,1,stim/objects/HouseObjects/scale.png,0.5,2,0.2,0.15,left,59,2021-02-22_08h03.52.198,premup-three_ses-01_part-01_label-phase1,3.2.4,MacIntel,60,right,1.641000032,4,0,4,0,1,3,1,0,240,15,1,239,,,,,,,,,,,,,,,,,,
,,0,89,,,,,,,3,1,2,stim/12.jpeg,HouseObjects,1,stim/objects/HouseObjects/spraybottle2.png,0.1,3,-0.2,-0.15,left,59,2021-02-22_08h03.52.198,premup-three_ses-01_part-01_label-phase1,3.2.4,MacIntel,60,right,0.858999968,4,0,4,0,1,3,1,0,240,161,1,239,,,,,,,,,,,,,,,,,,
,,0,90,,,,,,,1,3,4,stim/34.jpeg,Instruments,2,stim/objects/Instruments/tambourine.png,0.5,1,-0.2,0.15,right,59,2021-02-22_08h03.52.198,premup-three_ses-01_part-01_label-phase1,3.2.4,MacIntel,60,left,1.286000013,4,0,4,0,1,3,1,0,240,23,1,239,,,,,,,,,,,,,,,,,,
,,0,91,,,,,,,2,6,1,stim/61.jpeg,Instruments,2,stim/objects/Instruments/record_player2.png,0.3,1,-0.2,0.15,right,59,2021-02-22_08h03.52.198,premup-three_ses-01_part-01_label-phase1,3.2.4,MacIntel,60,left,1.234999895,4,0,4,0,1,3,1,0,240,148,1,239,,,,,,,,,,,,,,,,,,
,,0,92,,,,,,,2,6,3,stim/63.jpeg,HouseObjects,1,stim/objects/HouseObjects/saw2.png,0.7,3,-0.2,-0.15,left,59,2021-02-22_08h03.52.198,premup-three_ses-01_part-01_label-phase1,3.2.4,MacIntel,60,right,1.231999874,4,0,4,0,1,3,1,0,240,138,1,239,,,,,,,,,,,,,,,,,,
,,0,93,,,,,,,3,2,1,stim/21.jpeg,HouseObjects,1,stim/objects/HouseObjects/thread2.png,0.9,1,-0.2,0.15,left,59,2021-02-22_08h03.52.198,premup-three_ses-01_part-01_label-phase1,3.2.4,MacIntel,60,right,1.187999964,4,0,4,0,1,3,1,0,240,228,1,239,,,,,,,,,,,,,,,,,,
,,0,94,,,,,,,1,4,4,stim/44.jpeg,Instruments,2,stim/objects/Instruments/trumpet.png,0.5,3,-0.2,-0.15,right,59,2021-02-22_08h03.52.198,premup-three_ses-01_part-01_label-phase1,3.2.4,MacIntel,60,left,0.866999865,4,0,4,0,1,3,1,0,240,67,1,239,,,,,,,,,,,,,,,,,,
,,0,95,,,,,,,3,2,2,stim/22.jpeg,Instruments,2,stim/objects/Instruments/violin2.png,0.1,4,0.2,-0.15,right,59,2021-02-22_08h03.52.198,premup-three_ses-01_part-01_label-phase1,3.2.4,MacIntel,60,left,1.200999975,4,0,4,0,1,3,1,0,240,237,1,239,,,,,,,,,,,,,,,,,,
,,1,96,,,,,,,2,6,1,stim/61.jpeg,HouseObjects,1,stim/objects/HouseObjects/rug2.png,0.7,3,-0.2,-0.15,left,59,2021-02-22_08h03.52.198,premup-three_ses-01_part-01_label-phase1,3.2.4,MacIntel,60,left,0.962000132,4,0,4,0,1,3,1,0,240,120,1,239,,,,,,,,,,,,,,,,,,
,,0,97,,,,,,,1,3,2,stim/32.jpeg,Instruments,2,stim/objects/Instruments/saxophone.png,0.5,1,-0.2,0.15,right,59,2021-02-22_08h03.52.198,premup-three_ses-01_part-01_label-phase1,3.2.4,MacIntel,60,left,0.812999964,4,0,4,0,1,3,1,0,240,21,1,239,,,,,,,,,,,,,,,,,,
,,1,98,,,,,,,3,1,4,stim/14.jpeg,Instruments,2,stim/objects/Instruments/trumpet2.png,0.9,3,-0.2,-0.15,right,59,2021-02-22_08h03.52.198,premup-three_ses-01_part-01_label-phase1,3.2.4,MacIntel,60,right,0.794999838,4,0,4,0,1,3,1,0,240,167,1,239,,,,,,,,,,,,,,,,,,
,,1,99,,,,,,,3,1,3,stim/13.jpeg,Instruments,2,stim/objects/Instruments/trombone2.png,0.9,2,0.2,0.15,right,59,2021-02-22_08h03.52.198,premup-three_ses-01_part-01_label-phase1,3.2.4,MacIntel,60,right,0.780999899,4,0,4,0,1,3,1,0,240,182,1,239,,,,,,,,,,,,,,,,,,
,,0,100,,,,,,,1,4,4,stim/44.jpeg,Instruments,2,stim/objects/Instruments/trumpet.png,0.5,4,0.2,-0.15,right,59,2021-02-22_08h03.52.198,premup-three_ses-01_part-01_label-phase1,3.2.4,MacIntel,60,left,0.761999846,4,0,4,0,1,3,1,0,240,79,1,239,,,,,,,,,,,,,,,,,,
,,0,101,,,,,,,3,2,3,stim/23.jpeg,Instruments,2,stim/objects/Instruments/vuvuzela2.png,0.1,2,0.2,0.15,right,59,2021-02-22_08h03.52.198,premup-three_ses-01_part-01_label-phase1,3.2.4,MacIntel,60,left,0.962999821,4,0,4,0,1,3,1,0,240,238,1,239,,,,,,,,,,,,,,,,,,
,,1,102,,,,,,,2,5,3,stim/53.jpeg,Instruments,2,stim/objects/Instruments/vuvuzela.png,0.7,4,0.2,-0.15,right,59,2021-02-22_08h03.52.198,premup-three_ses-01_part-01_label-phase1,3.2.4,MacIntel,60,right,0.842999935,4,0,4,0,1,3,1,0,240,118,1,239,,,,,,,,,,,,,,,,,,
,,1,103,,,,,,,1,3,3,stim/33.jpeg,Instruments,2,stim/objects/Instruments/speaker.png,0.5,3,-0.2,-0.15,right,59,2021-02-22_08h03.52.198,premup-three_ses-01_part-01_label-phase1,3.2.4,MacIntel,60,right,0.795000076,4,0,4,0,1,3,1,0,240,22,1,239,,,,,,,,,,,,,,,,,,
,,0,104,,,,,,,2,6,4,stim/64.jpeg,HouseObjects,1,stim/objects/HouseObjects/scale2.png,0.7,4,0.2,-0.15,left,59,2021-02-22_08h03.52.198,premup-three_ses-01_part-01_label-phase1,3.2.4,MacIntel,60,right,0.752999783,4,0,4,0,1,3,1,0,240,139,1,239,,,,,,,,,,,,,,,,,,
,,1,105,,,,,,,3,1,2,stim/12.jpeg,Instruments,2,stim/objects/Instruments/triangle2.png,0.9,1,-0.2,0.15,right,59,2021-02-22_08h03.52.198,premup-three_ses-01_part-01_label-phase1,3.2.4,MacIntel,60,right,0.54399991,4,0,4,0,1,3,1,0,240,193,1,239,,,,,,,,,,,,,,,,,,
,,0,106,,,,,,,2,6,4,stim/64.jpeg,HouseObjects,1,stim/objects/HouseObjects/scale2.png,0.7,2,0.2,0.15,left,59,2021-02-22_08h03.52.198,premup-three_ses-01_part-01_label-phase1,3.2.4,MacIntel,60,right,0.862999916,4,0,4,0,1,3,1,0,240,147,1,239,,,,,,,,,,,,,,,,,,
,,0,107,,,,,,,3,2,2,stim/22.jpeg,HouseObjects,1,stim/objects/HouseObjects/towel2.png,0.9,4,0.2,-0.15,left,59,2021-02-22_08h03.52.198,premup-three_ses-01_part-01_label-phase1,3.2.4,MacIntel,60,right,0.415999889,4,0,4,0,1,3,1,0,240,205,1,239,,,,,,,,,,,,,,,,,,
,,1,108,,,,,,,1,3,2,stim/32.jpeg,Instruments,2,stim/objects/Instruments/saxophone.png,0.5,1,-0.2,0.15,right,59,2021-02-22_08h03.52.198,premup-three_ses-01_part-01_label-phase1,3.2.4,MacIntel,60,right,0.659999847,4,0,4,0,1,3,1,0,240,33,1,239,,,,,,,,,,,,,,,,,,
,,0,109,,,,,,,3,2,2,stim/22.jpeg,HouseObjects,1,stim/objects/HouseObjects/towel2.png,0.9,3,-0.2,-0.15,left,59,2021-02-22_08h03.52.198,premup-three_ses-01_part-01_label-phase1,3.2.4,MacIntel,60,,,4,0,4,0,1,3,1,0,240,213,1,239,,,,,,,,,,,,,,,,,,
,,1,110,,,,,,,1,3,4,stim/34.jpeg,Instruments,2,stim/objects/Instruments/tambourine.png,0.5,1,-0.2,0.15,right,59,2021-02-22_08h03.52.198,premup-three_ses-01_part-01_label-phase1,3.2.4,MacIntel,60,right,0.693000078,4,0,4,0,1,3,1,0,240,27,1,239,,,,,,,,,,,,,,,,,,
,,0,111,,,,,,,1,4,4,stim/44.jpeg,HouseObjects,1,stim/objects/HouseObjects/thermometer.png,0.5,3,-0.2,-0.15,left,59,2021-02-22_08h03.52.198,premup-three_ses-01_part-01_label-phase1,3.2.4,MacIntel,60,right,1.021000147,4,0,4,0,1,3,1,0,240,47,1,239,,,,,,,,,,,,,,,,,,
,,1,112,,,,,,,1,3,3,stim/33.jpeg,HouseObjects,1,stim/objects/HouseObjects/saw.png,0.5,3,-0.2,-0.15,left,59,2021-02-22_08h03.52.198,premup-three_ses-01_part-01_label-phase1,3.2.4,MacIntel,60,left,0.962999821,4,0,4,0,1,3,1,0,240,18,1,239,,,,,,,,,,,,,,,,,,
,,1,113,,,,,,,3,2,4,stim/24.jpeg,HouseObjects,1,stim/objects/HouseObjects/wateringcan2.png,0.9,1,-0.2,0.15,left,59,2021-02-22_08h03.52.198,premup-three_ses-01_part-01_label-phase1,3.2.4,MacIntel,60,left,0.677000046,4,0,4,0,1,3,1,0,240,207,1,239,,,,,,,,,,,,,,,,,,
,,1,114,,,,,,,3,2,3,stim/23.jpeg,HouseObjects,1,stim/objects/HouseObjects/vacuumcleaner2.png,0.9,4,0.2,-0.15,left,59,2021-02-22_08h03.52.198,premup-three_ses-01_part-01_label-phase1,3.2.4,MacIntel,60,left,0.630999804,4,0,4,0,1,3,1,0,240,210,1,239,,,,,,,,,,,,,,,,,,
,,1,115,,,,,,,3,1,2,stim/12.jpeg,Instruments,2,stim/objects/Instruments/triangle2.png,0.9,3,-0.2,-0.15,right,59,2021-02-22_08h03.52.198,premup-three_ses-01_part-01_label-phase1,3.2.4,MacIntel,60,right,0.697999954,4,0,4,0,1,3,1,0,240,189,1,239,,,,,,,,,,,,,,,,,,
,,1,116,,,,,,,2,6,3,stim/63.jpeg,Instruments,2,stim/objects/Instruments/speaker2.png,0.3,4,0.2,-0.15,right,59,2021-02-22_08h03.52.198,premup-three_ses-01_part-01_label-phase1,3.2.4,MacIntel,60,right,1.311999798,4,0,4,0,1,3,1,0,240,154,1,239,,,,,,,,,,,,,,,,,,
,,1,117,,,,,,,2,6,3,stim/63.jpeg,Instruments,2,stim/objects/Instruments/speaker2.png,0.3,3,-0.2,-0.15,right,59,2021-02-22_08h03.52.198,premup-three_ses-01_part-01_label-phase1,3.2.4,MacIntel,60,right,0.654000044,4,0,4,0,1,3,1,0,240,158,1,239,,,,,,,,,,,,,,,,,,
,,0,118,,,,,,,3,1,1,stim/11.jpeg,HouseObjects,1,stim/objects/HouseObjects/sponge2.png,0.1,2,0.2,0.15,left,59,2021-02-22_08h03.52.198,premup-three_ses-01_part-01_label-phase1,3.2.4,MacIntel,60,right,0.829999924,4,0,4,0,1,3,1,0,240,160,1,239,,,,,,,,,,,,,,,,,,
,,0,119,,,,,,,3,2,1,stim/21.jpeg,HouseObjects,1,stim/objects/HouseObjects/thread2.png,0.9,2,0.2,0.15,left,59,2021-02-22_08h03.52.198,premup-three_ses-01_part-01_label-phase1,3.2.4,MacIntel,60,right,1.096999884,4,0,4,0,1,3,1,0,240,216,1,239,,,,,,,,,,,,,,,,,,
,,0,120,,,,,,,2,5,1,stim/51.jpeg,HouseObjects,1,stim/objects/HouseObjects/thread.png,0.3,1,-0.2,0.15,left,59,2021-02-22_08h03.52.198,premup-three_ses-01_part-01_label-phase1,3.2.4,MacIntel,60,right,0.75999999,4,0,4,0,1,3,1,0,240,80,1,239,,,,,,,,,,,,,,,,,,
,,0,121,,,,,,,1,4,3,stim/43.jpeg,HouseObjects,1,stim/objects/HouseObjects/teapot.png,0.5,2,0.2,0.15,left,59,2021-02-22_08h03.52.198,premup-three_ses-01_part-01_label-phase1,3.2.4,MacIntel,60,right,0.598999977,4,0,4,0,1,3,1,0,240,46,1,239,,,,,,,,,,,,,,,,,,
,,0,122,,,,,,,2,5,4,stim/54.jpeg,HouseObjects,1,stim/objects/HouseObjects/wateringcan.png,0.3,2,0.2,0.15,left,59,2021-02-22_08h03.52.198,premup-three_ses-01_part-01_label-phase1,3.2.4,MacIntel,60,right,0.993000031,4,0,4,0,1,3,1,0,240,87,1,239,,,,,,,,,,,,,,,,,,
,,1,123,,,,,,,3,1,1,stim/11.jpeg,Instruments,2,stim/objects/Instruments/timbal2.png,0.9,1,-0.2,0.15,right,59,2021-02-22_08h03.52.198,premup-three_ses-01_part-01_label-phase1,3.2.4,MacIntel,60,right,1.42599988,4,0,4,0,1,3,1,0,240,184,1,239,,,,,,,,,,,,,,,,,,
,,0,124,,,,,,,2,5,4,stim/54.jpeg,Instruments,2,stim/objects/Instruments/xylophone.png,0.7,1,-0.2,0.15,right,59,2021-02-22_08h03.52.198,premup-three_ses-01_part-01_label-phase1,3.2.4,MacIntel,60,left,0.855999947,4,0,4,0,1,3,1,0,240,95,1,239,,,,,,,,,,,,,,,,,,
,,0,125,,,,,,,3,2,1,stim/21.jpeg,HouseObjects,1,stim/objects/HouseObjects/thread2.png,0.9,4,0.2,-0.15,left,59,2021-02-22_08h03.52.198,premup-three_ses-01_part-01_label-phase1,3.2.4,MacIntel,60,right,0.605999947,4,0,4,0,1,3,1,0,240,232,1,239,,,,,,,,,,,,,,,,,,
,,0,126,,,,,,,2,6,3,stim/63.jpeg,HouseObjects,1,stim/objects/HouseObjects/saw2.png,0.7,4,0.2,-0.15,left,59,2021-02-22_08h03.52.198,premup-three_ses-01_part-01_label-phase1,3.2.4,MacIntel,60,right,1.019000053,4,0,4,0,1,3,1,0,240,146,1,239,,,,,,,,,,,,,,,,,,
,,1,127,,,,,,,3,2,3,stim/23.jpeg,HouseObjects,1,stim/objects/HouseObjects/vacuumcleaner2.png,0.9,4,0.2,-0.15,left,59,2021-02-22_08h03.52.198,premup-three_ses-01_part-01_label-phase1,3.2.4,MacIntel,60,left,0.700999975,4,0,4,0,1,3,1,0,240,206,1,239,,,,,,,,,,,,,,,,,,
,,1,128,,,,,,,2,6,3,stim/63.jpeg,HouseObjects,1,stim/objects/HouseObjects/saw2.png,0.7,4,0.2,-0.15,left,59,2021-02-22_08h03.52.198,premup-three_ses-01_part-01_label-phase1,3.2.4,MacIntel,60,left,0.610999823,4,0,4,0,1,3,1,0,240,126,1,239,,,,,,,,,,,,,,,,,,
,,1,129,,,,,,,3,1,2,stim/12.jpeg,Instruments,2,stim/objects/Instruments/triangle2.png,0.9,2,0.2,0.15,right,59,2021-02-22_08h03.52.198,premup-three_ses-01_part-01_label-phase1,3.2.4,MacIntel,60,right,0.70299983,4,0,4,0,1,3,1,0,240,165,1,239,,,,,,,,,,,,,,,,,,
,,0,130,,,,,,,1,4,3,stim/43.jpeg,Instruments,2,stim/objects/Instruments/trombone.png,0.5,3,-0.2,-0.15,right,59,2021-02-22_08h03.52.198,premup-three_ses-01_part-01_label-phase1,3.2.4,MacIntel,60,left,0.811000109,4,0,4,0,1,3,1,0,240,74,1,239,,,,,,,,,,,,,,,,,,
,,0,131,,,,,,,1,4,2,stim/42.jpeg,Instruments,2,stim/objects/Instruments/triangle.png,0.5,1,-0.2,0.15,right,59,2021-02-22_08h03.52.198,premup-three_ses-01_part-01_label-phase1,3.2.4,MacIntel,60,left,0.715999842,4,0,4,0,1,3,1,0,240,61,1,239,,,,,,,,,,,,,,,,,,
,,1,132,,,,,,,2,6,2,stim/62.jpeg,HouseObjects,1,stim/objects/HouseObjects/safetypin2.png,0.7,3,-0.2,-0.15,left,59,2021-02-22_08h03.52.198,premup-three_ses-01_part-01_label-phase1,3.2.4,MacIntel,60,left,1.091999769,4,0,4,0,1,3,1,0,240,133,1,239,,,,,,,,,,,,,,,,,,
,,1,133,,,,,,,3,2,2,stim/22.jpeg,HouseObjects,1,stim/objects/HouseObjects/towel2.png,0.9,3,-0.2,-0.15,left,59,2021-02-22_08h03.52.198,premup-three_ses-01_part-01_label-phase1,3.2.4,MacIntel,60,left,0.961999893,4,0,4,0,1,3,1,0,240,209,1,239,,,,,,,,,,,,,,,,,,
,,1,134,,,,,,,1,3,4,stim/34.jpeg,Instruments,2,stim/objects/Instruments/tambourine.png,0.5,2,0.2,0.15,right,59,2021-02-22_08h03.52.198,premup-three_ses-01_part-01_label-phase1,3.2.4,MacIntel,60,right,1.092000008,4,0,4,0,1,3,1,0,240,35,1,239,,,,,,,,,,,,,,,,,,
,,1,135,,,,,,,3,2,3,stim/23.jpeg,HouseObjects,1,stim/objects/HouseObjects/vacuumcleaner2.png,0.9,1,-0.2,0.15,left,59,2021-02-22_08h03.52.198,premup-three_ses-01_part-01_label-phase1,3.2.4,MacIntel,60,left,0.645999908,4,0,4,0,1,3,1,0,240,214,1,239,,,,,,,,,,,,,,,,,,
,,0,136,,,,,,,2,5,2,stim/52.jpeg,HouseObjects,1,stim/objects/HouseObjects/towel.png,0.3,4,0.2,-0.15,left,59,2021-02-22_08h03.52.198,premup-three_ses-01_part-01_label-phase1,3.2.4,MacIntel,60,right,1.497999907,4,0,4,0,1,3,1,0,240,81,1,239,,,,,,,,,,,,,,,,,,
,,0,137,,,,,,,2,5,3,stim/53.jpeg,Instruments,2,stim/objects/Instruments/vuvuzela.png,0.7,1,-0.2,0.15,right,59,2021-02-22_08h03.52.198,premup-three_ses-01_part-01_label-phase1,3.2.4,MacIntel,60,left,0.626999855,4,0,4,0,1,3,1,0,240,98,1,239,,,,,,,,,,,,,,,,,,
,,1,138,,,,,,,3,2,3,stim/23.jpeg,HouseObjects,1,stim/objects/HouseObjects/vacuumcleaner2.png,0.9,4,0.2,-0.15,left,59,2021-02-22_08h03.52.198,premup-three_ses-01_part-01_label-phase1,3.2.4,MacIntel,60,left,0.806999922,4,0,4,0,1,3,1,0,240,202,1,239,,,,,,,,,,,,,,,,,,
,,1,139,,,,,,,3,2,3,stim/23.jpeg,HouseObjects,1,stim/objects/HouseObjects/vacuumcleaner2.png,0.9,4,0.2,-0.15,left,59,2021-02-22_08h03.52.198,premup-three_ses-01_part-01_label-phase1,3.2.4,MacIntel,60,left,0.416000128,4,0,4,0,1,3,1,0,240,226,1,239,,,,,,,,,,,,,,,,,,
,,1,140,,,,,,,1,3,3,stim/33.jpeg,HouseObjects,1,stim/objects/HouseObjects/saw.png,0.5,1,-0.2,0.15,left,59,2021-02-22_08h03.52.198,premup-three_ses-01_part-01_label-phase1,3.2.4,MacIntel,60,left,0.996999979,4,0,4,0,1,3,1,0,240,10,1,239,,,,,,,,,,,,,,,,,,
,,0,141,,,,,,,1,3,2,stim/32.jpeg,HouseObjects,1,stim/objects/HouseObjects/safetypin.png,0.5,4,0.2,-0.15,left,59,2021-02-22_08h03.52.198,premup-three_ses-01_part-01_label-phase1,3.2.4,MacIntel,60,right,0.583999872,4,0,4,0,1,3,1,0,240,13,1,239,,,,,,,,,,,,,,,,,,
,,1,142,,,,,,,3,1,3,stim/13.jpeg,Instruments,2,stim/objects/Instruments/trombone2.png,0.9,2,0.2,0.15,right,59,2021-02-22_08h03.52.198,premup-three_ses-01_part-01_label-phase1,3.2.4,MacIntel,60,right,0.687000036,4,0,4,0,1,3,1,0,240,170,1,239,,,,,,,,,,,,,,,,,,
,,1,143,,,,,,,3,1,3,stim/13.jpeg,Instruments,2,stim/objects/Instruments/trombone2.png,0.9,2,0.2,0.15,right,59,2021-02-22_08h03.52.198,premup-three_ses-01_part-01_label-phase1,3.2.4,MacIntel,60,right,0.421999931,4,0,4,0,1,3,1,0,240,178,1,239,,,,,,,,,,,,,,,,,,
,,1,144,,,,,,,1,4,2,stim/42.jpeg,Instruments,2,stim/objects/Instruments/triangle.png,0.5,3,-0.2,-0.15,right,59,2021-02-22_08h03.52.198,premup-three_ses-01_part-01_label-phase1,3.2.4,MacIntel,60,right,1.015000105,4,0,4,0,1,3,1,0,240,77,1,239,,,,,,,,,,,,,,,,,,
,,1,145,,,,,,,2,6,3,stim/63.jpeg,HouseObjects,1,stim/objects/HouseObjects/saw2.png,0.7,3,-0.2,-0.15,left,59,2021-02-22_08h03.52.198,premup-three_ses-01_part-01_label-phase1,3.2.4,MacIntel,60,left,0.858999968,4,0,4,0,1,3,1,0,240,122,1,239,,,,,,,,,,,,,,,,,,
,,1,146,,,,,,,1,4,3,stim/43.jpeg,HouseObjects,1,stim/objects/HouseObjects/teapot.png,0.5,2,0.2,0.15,left,59,2021-02-22_08h03.52.198,premup-three_ses-01_part-01_label-phase1,3.2.4,MacIntel,60,left,0.907999992,4,0,4,0,1,3,1,0,240,50,1,239,,,,,,,,,,,,,,,,,,
,,1,147,,,,,,,3,2,2,stim/22.jpeg,HouseObjects,1,stim/objects/HouseObjects/towel2.png,0.9,2,0.2,0.15,left,59,2021-02-22_08h03.52.198,premup-three_ses-01_part-01_label-phase1,3.2.4,MacIntel,60,left,0.628999949,4,0,4,0,1,3,1,0,240,233,1,239,,,,,,,,,,,,,,,,,,
,,1,148,,,,,,,1,3,3,stim/33.jpeg,HouseObjects,1,stim/objects/HouseObjects/saw.png,0.5,1,-0.2,0.15,left,59,2021-02-22_08h03.52.198,premup-three_ses-01_part-01_label-phase1,3.2.4,MacIntel,60,left,0.760999918,4,0,4,0,1,3,1,0,240,14,1,239,,,,,,,,,,,,,,,,,,
,,1,149,,,,,,,1,3,1,stim/31.jpeg,HouseObjects,1,stim/objects/HouseObjects/rug.png,0.5,3,-0.2,-0.15,left,59,2021-02-22_08h03.52.198,premup-three_ses-01_part-01_label-phase1,3.2.4,MacIntel,60,left,0.666999817,4,0,4,0,1,3,1,0,240,0,1,239,,,,,,,,,,,,,,,,,,
,,1,150,,,,,,,2,6,3,stim/63.jpeg,HouseObjects,1,stim/objects/HouseObjects/saw2.png,0.7,3,-0.2,-0.15,left,59,2021-02-22_08h03.52.198,premup-three_ses-01_part-01_label-phase1,3.2.4,MacIntel,60,left,0.813999891,4,0,4,0,1,3,1,0,240,142,1,239,,,,,,,,,,,,,,,,,,
,,1,151,,,,,,,3,2,4,stim/24.jpeg,HouseObjects,1,stim/objects/HouseObjects/wateringcan2.png,0.9,2,0.2,0.15,left,59,2021-02-22_08h03.52.198,premup-three_ses-01_part-01_label-phase1,3.2.4,MacIntel,60,left,0.69299984,4,0,4,0,1,3,1,0,240,215,1,239,,,,,,,,,,,,,,,,,,
,,0,152,,,,,,,3,2,4,stim/24.jpeg,Instruments,2,stim/objects/Instruments/xylophone2.png,0.1,3,-0.2,-0.15,right,59,2021-02-22_08h03.52.198,premup-three_ses-01_part-01_label-phase1,3.2.4,MacIntel,60,left,0.438999891,4,0,4,0,1,3,1,0,240,239,1,239,,,,,,,,,,,,,,,,,,
,,1,153,,,,,,,2,6,4,stim/64.jpeg,HouseObjects,1,stim/objects/HouseObjects/scale2.png,0.7,3,-0.2,-0.15,left,59,2021-02-22_08h03.52.198,premup-three_ses-01_part-01_label-phase1,3.2.4,MacIntel,60,left,0.729999781,4,0,4,0,1,3,1,0,240,127,1,239,,,,,,,,,,,,,,,,,,
,,1,154,,,,,,,3,1,3,stim/13.jpeg,Instruments,2,stim/objects/Instruments/trombone2.png,0.9,4,0.2,-0.15,right,59,2021-02-22_08h03.52.198,premup-three_ses-01_part-01_label-phase1,3.2.4,MacIntel,60,right,0.624999762,4,0,4,0,1,3,1,0,240,194,1,239,,,,,,,,,,,,,,,,,,
,,1,155,,,,,,,3,1,1,stim/11.jpeg,Instruments,2,stim/objects/Instruments/timbal2.png,0.9,4,0.2,-0.15,right,59,2021-02-22_08h03.52.198,premup-three_ses-01_part-01_label-phase1,3.2.4,MacIntel,60,right,0.732000113,4,0,4,0,1,3,1,0,240,192,1,239,,,,,,,,,,,,,,,,,,
,,1,156,,,,,,,2,6,2,stim/62.jpeg,HouseObjects,1,stim/objects/HouseObjects/safetypin2.png,0.7,2,0.2,0.15,left,59,2021-02-22_08h03.52.198,premup-three_ses-01_part-01_label-phase1,3.2.4,MacIntel,60,left,0.7099998,4,0,4,0,1,3,1,0,240,129,1,239,,,,,,,,,,,,,,,,,,
,,0,157,,,,,,,2,6,4,stim/64.jpeg,HouseObjects,1,stim/objects/HouseObjects/scale2.png,0.7,4,0.2,-0.15,left,59,2021-02-22_08h03.52.198,premup-three_ses-01_part-01_label-phase1,3.2.4,MacIntel,60,right,1.086999893,4,0,4,0,1,3,1,0,240,143,1,239,,,,,,,,,,,,,,,,,,
,,1,158,,,,,,,3,2,1,stim/21.jpeg,HouseObjects,1,stim/objects/HouseObjects/thread2.png,0.9,2,0.2,0.15,left,59,2021-02-22_08h03.52.198,premup-three_ses-01_part-01_label-phase1,3.2.4,MacIntel,60,left,0.73300004,4,0,4,0,1,3,1,0,240,208,1,239,,,,,,,,,,,,,,,,,,
,,1,159,,,,,,,2,6,1,stim/61.jpeg,HouseObjects,1,stim/objects/HouseObjects/rug2.png,0.7,2,0.2,0.15,left,59,2021-02-22_08h03.52.198,premup-three_ses-01_part-01_label-phase1,3.2.4,MacIntel,60,left,0.59499979,4,0,4,0,1,3,1,0,240,132,1,239,,,,,,,,,,,,,,,,,,
,,0,160,,,,,,,1,3,2,stim/32.jpeg,Instruments,2,stim/objects/Instruments/saxophone.png,0.5,4,0.2,-0.15,right,59,2021-02-22_08h03.52.198,premup-three_ses-01_part-01_label-phase1,3.2.4,MacIntel,60,left,0.749000072,4,0,4,0,1,3,1,0,240,29,1,239,,,,,,,,,,,,,,,,,,
,,1,161,,,,,,,3,2,4,stim/24.jpeg,HouseObjects,1,stim/objects/HouseObjects/wateringcan2.png,0.9,3,-0.2,-0.15,left,59,2021-02-22_08h03.52.198,premup-three_ses-01_part-01_label-phase1,3.2.4,MacIntel,60,left,0.664999962,4,0,4,0,1,3,1,0,240,235,1,239,,,,,,,,,,,,,,,,,,
,,0,162,,,,,,,1,4,4,stim/44.jpeg,HouseObjects,1,stim/objects/HouseObjects/thermometer.png,0.5,2,0.2,0.15,left,59,2021-02-22_08h03.52.198,premup-three_ses-01_part-01_label-phase1,3.2.4,MacIntel,60,right,1.190999985,4,0,4,0,1,3,1,0,240,59,1,239,,,,,,,,,,,,,,,,,,
,,0,163,,,,,,,3,1,4,stim/14.jpeg,Instruments,2,stim/objects/Instruments/trumpet2.png,0.9,2,0.2,0.15,right,59,2021-02-22_08h03.52.198,premup-three_ses-01_part-01_label-phase1,3.2.4,MacIntel,60,left,0.632999897,4,0,4,0,1,3,1,0,240,171,1,239,,,,,,,,,,,,,,,,,,
,,0,164,,,,,,,1,4,3,stim/43.jpeg,Instruments,2,stim/objects/Instruments/trombone.png,0.5,3,-0.2,-0.15,right,59,2021-02-22_08h03.52.198,premup-three_ses-01_part-01_label-phase1,3.2.4,MacIntel,60,left,1.217999935,4,0,4,0,1,3,1,0,240,70,1,239,,,,,,,,,,,,,,,,,,
,,1,165,,,,,,,3,2,3,stim/23.jpeg,HouseObjects,1,stim/objects/HouseObjects/vacuumcleaner2.png,0.9,2,0.2,0.15,left,59,2021-02-22_08h03.52.198,premup-three_ses-01_part-01_label-phase1,3.2.4,MacIntel,60,left,0.559999943,4,0,4,0,1,3,1,0,240,230,1,239,,,,,,,,,,,,,,,,,,
,,1,166,,,,,,,2,5,1,stim/51.jpeg,Instruments,2,stim/objects/Instruments/tuba.png,0.7,1,-0.2,0.15,right,59,2021-02-22_08h03.52.198,premup-three_ses-01_part-01_label-phase1,3.2.4,MacIntel,60,right,0.74000001,4,0,4,0,1,3,1,0,240,92,1,239,,,,,,,,,,,,,,,,,,
,,1,167,,,,,,,3,1,4,stim/14.jpeg,Instruments,2,stim/objects/Instruments/trumpet2.png,0.9,2,0.2,0.15,right,59,2021-02-22_08h03.52.198,premup-three_ses-01_part-01_label-phase1,3.2.4,MacIntel,60,right,0.802000046,4,0,4,0,1,3,1,0,240,175,1,239,,,,,,,,,,,,,,,,,,
,,1,168,,,,,,,1,3,1,stim/31.jpeg,HouseObjects,1,stim/objects/HouseObjects/rug.png,0.5,2,0.2,0.15,left,59,2021-02-22_08h03.52.198,premup-three_ses-01_part-01_label-phase1,3.2.4,MacIntel,60,left,1.027999878,4,0,4,0,1,3,1,0,240,8,1,239,,,,,,,,,,,,,,,,,,
,,0,169,,,,,,,2,5,1,stim/51.jpeg,Instruments,2,stim/objects/Instruments/tuba.png,0.7,1,-0.2,0.15,right,59,2021-02-22_08h03.52.198,premup-three_ses-01_part-01_label-phase1,3.2.4,MacIntel,60,left,1.713999748,4,0,4,0,1,3,1,0,240,100,1,239,,,,,,,,,,,,,,,,,,
,,0,170,,,,,,,2,5,3,stim/53.jpeg,Instruments,2,stim/objects/Instruments/vuvuzela.png,0.7,4,0.2,-0.15,right,59,2021-02-22_08h03.52.198,premup-three_ses-01_part-01_label-phase1,3.2.4,MacIntel,60,left,1.057999849,4,0,4,0,1,3,1,0,240,106,1,239,,,,,,,,,,,,,,,,,,
,,1,171,,,,,,,1,4,1,stim/41.jpeg,Instruments,2,stim/objects/Instruments/timbal.png,0.5,2,0.2,0.15,right,59,2021-02-22_08h03.52.198,premup-three_ses-01_part-01_label-phase1,3.2.4,MacIntel,60,right,0.998999834,4,0,4,0,1,3,1,0,240,68,1,239,,,,,,,,,,,,,,,,,,
,,0,172,,,,,,,1,4,1,stim/41.jpeg,HouseObjects,1,stim/objects/HouseObjects/sponge.png,0.5,3,-0.2,-0.15,left,59,2021-02-22_08h03.52.198,premup-three_ses-01_part-01_label-phase1,3.2.4,MacIntel,60,right,0.674999952,4,0,4,0,1,3,1,0,240,40,1,239,,,,,,,,,,,,,,,,,,
,,1,173,,,,,,,1,3,3,stim/33.jpeg,HouseObjects,1,stim/objects/HouseObjects/saw.png,0.5,2,0.2,0.15,left,59,2021-02-22_08h03.52.198,premup-three_ses-01_part-01_label-phase1,3.2.4,MacIntel,60,left,1.461999893,4,0,4,0,1,3,1,0,240,6,1,239,,,,,,,,,,,,,,,,,,
,,0,174,,,,,,,3,2,4,stim/24.jpeg,HouseObjects,1,stim/objects/HouseObjects/wateringcan2.png,0.9,4,0.2,-0.15,left,59,2021-02-22_08h03.52.198,premup-three_ses-01_part-01_label-phase1,3.2.4,MacIntel,60,right,0.566999912,4,0,4,0,1,3,1,0,240,203,1,239,,,,,,,,,,,,,,,,,,
,,0,175,,,,,,,1,4,1,stim/41.jpeg,HouseObjects,1,stim/objects/HouseObjects/sponge.png,0.5,4,0.2,-0.15,left,59,2021-02-22_08h03.52.198,premup-three_ses-01_part-01_label-phase1,3.2.4,MacIntel,60,right,1.052000046,4,0,4,0,1,3,1,0,240,44,1,239,,,,,,,,,,,,,,,,,,
,,1,176,,,,,,,3,2,4,stim/24.jpeg,HouseObjects,1,stim/objects/HouseObjects/wateringcan2.png,0.9,1,-0.2,0.15,left,59,2021-02-22_08h03.52.198,premup-three_ses-01_part-01_label-phase1,3.2.4,MacIntel,60,left,0.782999754,4,0,4,0,1,3,1,0,240,231,1,239,,,,,,,,,,,,,,,,,,
,,0,177,,,,,,,1,3,1,stim/31.jpeg,Instruments,2,stim/objects/Instruments/record_player.png,0.5,2,0.2,0.15,right,59,2021-02-22_08h03.52.198,premup-three_ses-01_part-01_label-phase1,3.2.4,MacIntel,60,left,1.092999935,4,0,4,0,1,3,1,0,240,28,1,239,,,,,,,,,,,,,,,,,,
,,0,178,,,,,,,1,3,4,stim/34.jpeg,Instruments,2,stim/objects/Instruments/tambourine.png,0.5,4,0.2,-0.15,right,59,2021-02-22_08h03.52.198,premup-three_ses-01_part-01_label-phase1,3.2.4,MacIntel,60,left,0.893000126,4,0,4,0,1,3,1,0,240,39,1,239,,,,,,,,,,,,,,,,,,
,,1,179,,,,,,,3,2,1,stim/21.jpeg,HouseObjects,1,stim/objects/HouseObjects/thread2.png,0.9,4,0.2,-0.15,left,59,2021-02-22_08h03.52.198,premup-three_ses-01_part-01_label-phase1,3.2.4,MacIntel,60,left,0.714999914,4,0,4,0,1,3,1,0,240,224,1,239,,,,,,,,,,,,,,,,,,
,,1,180,,,,,,,3,2,1,stim/21.jpeg,HouseObjects,1,stim/objects/HouseObjects/thread2.png,0.9,4,0.2,-0.15,left,59,2021-02-22_08h03.52.198,premup-three_ses-01_part-01_label-phase1,3.2.4,MacIntel,60,left,0.511999846,4,0,4,0,1,3,1,0,240,204,1,239,,,,,,,,,,,,,,,,,,
,,1,181,,,,,,,3,2,1,stim/21.jpeg,HouseObjects,1,stim/objects/HouseObjects/thread2.png,0.9,1,-0.2,0.15,left,59,2021-02-22_08h03.52.198,premup-three_ses-01_part-01_label-phase1,3.2.4,MacIntel,60,left,0.470000029,4,0,4,0,1,3,1,0,240,200,1,239,,,,,,,,,,,,,,,,,,
,,1,182,,,,,,,3,1,2,stim/12.jpeg,Instruments,2,stim/objects/Instruments/triangle2.png,0.9,3,-0.2,-0.15,right,59,2021-02-22_08h03.52.198,premup-three_ses-01_part-01_label-phase1,3.2.4,MacIntel,60,right,0.809999704,4,0,4,0,1,3,1,0,240,181,1,239,,,,,,,,,,,,,,,,,,
,,1,183,,,,,,,3,1,1,stim/11.jpeg,Instruments,2,stim/objects/Instruments/timbal2.png,0.9,1,-0.2,0.15,right,59,2021-02-22_08h03.52.198,premup-three_ses-01_part-01_label-phase1,3.2.4,MacIntel,60,right,0.575000048,4,0,4,0,1,3,1,0,240,176,1,239,,,,,,,,,,,,,,,,,,
,,1,184,,,,,,,1,3,2,stim/32.jpeg,HouseObjects,1,stim/objects/HouseObjects/safetypin.png,0.5,3,-0.2,-0.15,left,59,2021-02-22_08h03.52.198,premup-three_ses-01_part-01_label-phase1,3.2.4,MacIntel,60,left,0.808000088,4,0,4,0,1,3,1,0,240,5,1,239,,,,,,,,,,,,,,,,,,
,,1,185,,,,,,,2,6,4,stim/64.jpeg,HouseObjects,1,stim/objects/HouseObjects/scale2.png,0.7,4,0.2,-0.15,left,59,2021-02-22_08h03.52.198,premup-three_ses-01_part-01_label-phase1,3.2.4,MacIntel,60,left,0.919000149,4,0,4,0,1,3,1,0,240,123,1,239,,,,,,,,,,,,,,,,,,
,,0,186,,,,,,,1,4,3,stim/43.jpeg,Instruments,2,stim/objects/Instruments/trombone.png,0.5,4,0.2,-0.15,right,59,2021-02-22_08h03.52.198,premup-three_ses-01_part-01_label-phase1,3.2.4,MacIntel,60,left,0.999000072,4,0,4,0,1,3,1,0,240,62,1,239,,,,,,,,,,,,,,,,,,
,,1,187,,,,,,,2,6,3,stim/63.jpeg,HouseObjects,1,stim/objects/HouseObjects/saw2.png,0.7,4,0.2,-0.15,left,59,2021-02-22_08h03.52.198,premup-three_ses-01_part-01_label-phase1,3.2.4,MacIntel,60,left,0.737999916,4,0,4,0,1,3,1,0,240,134,1,239,,,,,,,,,,,,,,,,,,
,,0,188,,,,,,,2,5,2,stim/52.jpeg,HouseObjects,1,stim/objects/HouseObjects/towel.png,0.3,2,0.2,0.15,left,59,2021-02-22_08h03.52.198,premup-three_ses-01_part-01_label-phase1,3.2.4,MacIntel,60,right,0.763999939,4,0,4,0,1,3,1,0,240,89,1,239,,,,,,,,,,,,,,,,,,
,,1,189,,,,,,,3,2,3,stim/23.jpeg,HouseObjects,1,stim/objects/HouseObjects/vacuumcleaner2.png,0.9,1,-0.2,0.15,left,59,2021-02-22_08h03.52.198,premup-three_ses-01_part-01_label-phase1,3.2.4,MacIntel,60,left,0.554999828,4,0,4,0,1,3,1,0,240,218,1,239,,,,,,,,,,,,,,,,,,
,,0,190,,,,,,,1,4,1,stim/41.jpeg,Instruments,2,stim/objects/Instruments/timbal.png,0.5,4,0.2,-0.15,right,59,2021-02-22_08h03.52.198,premup-three_ses-01_part-01_label-phase1,3.2.4,MacIntel,60,left,0.884000063,4,0,4,0,1,3,1,0,240,60,1,239,,,,,,,,,,,,,,,,,,
,,0,191,,,,,,,2,5,4,stim/54.jpeg,HouseObjects,1,stim/objects/HouseObjects/wateringcan.png,0.3,3,-0.2,-0.15,left,59,2021-02-22_08h03.52.198,premup-three_ses-01_part-01_label-phase1,3.2.4,MacIntel,60,right,0.845999956,4,0,4,0,1,3,1,0,240,83,1,239,,,,,,,,,,,,,,,,,,
,,1,192,,,,,,,3,1,1,stim/11.jpeg,Instruments,2,stim/objects/Instruments/timbal2.png,0.9,2,0.2,0.15,right,59,2021-02-22_08h03.52.198,premup-three_ses-01_part-01_label-phase1,3.2.4,MacIntel,60,right,0.627999783,4,0,4,0,1,3,1,0,240,168,1,239,,,,,,,,,,,,,,,,,,
,,0,193,,,,,,,1,4,2,stim/42.jpeg,HouseObjects,1,stim/objects/HouseObjects/spraybottle.png,0.5,4,0.2,-0.15,left,59,2021-02-22_08h03.52.198,premup-three_ses-01_part-01_label-phase1,3.2.4,MacIntel,60,right,0.444999933,4,0,4,0,1,3,1,0,240,53,1,239,,,,,,,,,,,,,,,,,,
,,0,194,,,,,,,2,5,3,stim/53.jpeg,HouseObjects,1,stim/objects/HouseObjects/vacuumcleaner.png,0.3,3,-0.2,-0.15,left,59,2021-02-22_08h03.52.198,premup-three_ses-01_part-01_label-phase1,3.2.4,MacIntel,60,right,1.171999931,4,0,4,0,1,3,1,0,240,82,1,239,,,,,,,,,,,,,,,,,,
,,0,195,,,,,,,1,4,2,stim/42.jpeg,Instruments,2,stim/objects/Instruments/triangle.png,0.5,1,-0.2,0.15,right,59,2021-02-22_08h03.52.198,premup-three_ses-01_part-01_label-phase1,3.2.4,MacIntel,60,left,1.32799983,4,0,4,0,1,3,1,0,240,65,1,239,,,,,,,,,,,,,,,,,,
,,1,196,,,,,,,3,2,2,stim/22.jpeg,HouseObjects,1,stim/objects/HouseObjects/towel2.png,0.9,1,-0.2,0.15,left,59,2021-02-22_08h03.52.198,premup-three_ses-01_part-01_label-phase1,3.2.4,MacIntel,60,left,0.700999975,4,0,4,0,1,3,1,0,240,225,1,239,,,,,,,,,,,,,,,,,,
,,1,197,,,,,,,3,1,3,stim/13.jpeg,Instruments,2,stim/objects/Instruments/trombone2.png,0.9,3,-0.2,-0.15,right,59,2021-02-22_08h03.52.198,premup-three_ses-01_part-01_label-phase1,3.2.4,MacIntel,60,right,0.565999746,4,0,4,0,1,3,1,0,240,186,1,239,,,,,,,,,,,,,,,,,,
,,1,198,,,,,,,3,1,3,stim/13.jpeg,Instruments,2,stim/objects/Instruments/trombone2.png,0.9,3,-0.2,-0.15,right,59,2021-02-22_08h03.52.198,premup-three_ses-01_part-01_label-phase1,3.2.4,MacIntel,60,right,0.496999979,4,0,4,0,1,3,1,0,240,198,1,239,,,,,,,,,,,,,,,,,,
,,0,199,,,,,,,1,3,2,stim/32.jpeg,Instruments,2,stim/objects/Instruments/saxophone.png,0.5,1,-0.2,0.15,right,59,2021-02-22_08h03.52.198,premup-three_ses-01_part-01_label-phase1,3.2.4,MacIntel,60,left,0.779999971,4,0,4,0,1,3,1,0,240,37,1,239,,,,,,,,,,,,,,,,,,
,,0,200,,,,,,,2,6,1,stim/61.jpeg,Instruments,2,stim/objects/Instruments/record_player2.png,0.3,1,-0.2,0.15,right,59,2021-02-22_08h03.52.198,premup-three_ses-01_part-01_label-phase1,3.2.4,MacIntel,60,left,0.762000084,4,0,4,0,1,3,1,0,240,152,1,239,,,,,,,,,,,,,,,,,,
,,1,201,,,,,,,3,1,4,stim/14.jpeg,Instruments,2,stim/objects/Instruments/trumpet2.png,0.9,4,0.2,-0.15,right,59,2021-02-22_08h03.52.198,premup-three_ses-01_part-01_label-phase1,3.2.4,MacIntel,60,right,0.773999929,4,0,4,0,1,3,1,0,240,187,1,239,,,,,,,,,,,,,,,,,,
,,1,202,,,,,,,2,5,4,stim/54.jpeg,Instruments,2,stim/objects/Instruments/xylophone.png,0.7,1,-0.2,0.15,right,59,2021-02-22_08h03.52.198,premup-three_ses-01_part-01_label-phase1,3.2.4,MacIntel,60,right,1.313999891,4,0,4,0,1,3,1,0,240,107,1,239,,,,,,,,,,,,,,,,,,
,,0,203,,,,,,,2,6,1,stim/61.jpeg,Instruments,2,stim/objects/Instruments/record_player2.png,0.3,3,-0.2,-0.15,right,59,2021-02-22_08h03.52.198,premup-three_ses-01_part-01_label-phase1,3.2.4,MacIntel,60,left,0.580999851,4,0,4,0,1,3,1,0,240,156,1,239,,,,,,,,,,,,,,,,,,
,,0,204,,,,,,,1,3,2,stim/32.jpeg,Instruments,2,stim/objects/Instruments/saxophone.png,0.5,3,-0.2,-0.15,right,59,2021-02-22_08h03.52.198,premup-three_ses-01_part-01_label-phase1,3.2.4,MacIntel,60,left,1.161000013,4,0,4,0,1,3,1,0,240,25,1,239,,,,,,,,,,,,,,,,,,
,,0,205,,,,,,,2,6,1,stim/61.jpeg,HouseObjects,1,stim/objects/HouseObjects/rug2.png,0.7,3,-0.2,-0.15,left,59,2021-02-22_08h03.52.198,premup-three_ses-01_part-01_label-phase1,3.2.4,MacIntel,60,right,1.03399992,4,0,4,0,1,3,1,0,240,144,1,239,,,,,,,,,,,,,,,,,,
,,1,206,,,,,,,1,3,3,stim/33.jpeg,Instruments,2,stim/objects/Instruments/speaker.png,0.5,3,-0.2,-0.15,right,59,2021-02-22_08h03.52.198,premup-three_ses-01_part-01_label-phase1,3.2.4,MacIntel,60,right,1.508999825,4,0,4,0,1,3,1,0,240,34,1,239,,,,,,,,,,,,,,,,,,
,,1,207,,,,,,,1,4,4,stim/44.jpeg,HouseObjects,1,stim/objects/HouseObjects/thermometer.png,0.5,3,-0.2,-0.15,left,59,2021-02-22_08h03.52.198,premup-three_ses-01_part-01_label-phase1,3.2.4,MacIntel,60,left,1.079999924,4,0,4,0,1,3,1,0,240,43,1,239,,,,,,,,,,,,,,,,,,
,,0,208,,,,,,,2,5,3,stim/53.jpeg,Instruments,2,stim/objects/Instruments/vuvuzela.png,0.7,1,-0.2,0.15,right,59,2021-02-22_08h03.52.198,premup-three_ses-01_part-01_label-phase1,3.2.4,MacIntel,60,left,1.109999895,4,0,4,0,1,3,1,0,240,110,1,239,,,,,,,,,,,,,,,,,,
,,1,209,,,,,,,3,1,3,stim/13.jpeg,Instruments,2,stim/objects/Instruments/trombone2.png,0.9,2,0.2,0.15,right,59,2021-02-22_08h03.52.198,premup-three_ses-01_part-01_label-phase1,3.2.4,MacIntel,60,right,0.762999773,4,0,4,0,1,3,1,0,240,174,1,239,,,,,,,,,,,,,,,,,,
,,1,210,,,,,,,1,4,4,stim/44.jpeg,Instruments,2,stim/objects/Instruments/trumpet.png,0.5,2,0.2,0.15,right,59,2021-02-22_08h03.52.198,premup-three_ses-01_part-01_label-phase1,3.2.4,MacIntel,60,right,0.829999924,4,0,4,0,1,3,1,0,240,75,1,239,,,,,,,,,,,,,,,,,,
,,1,211,,,,,,,3,2,1,stim/21.jpeg,HouseObjects,1,stim/objects/HouseObjects/thread2.png,0.9,2,0.2,0.15,left,59,2021-02-22_08h03.52.198,premup-three_ses-01_part-01_label-phase1,3.2.4,MacIntel,60,left,0.711999893,4,0,4,0,1,3,1,0,240,212,1,239,,,,,,,,,,,,,,,,,,
,,1,212,,,,,,,2,6,3,stim/63.jpeg,Instruments,2,stim/objects/Instruments/speaker2.png,0.3,1,-0.2,0.15,right,59,2021-02-22_08h03.52.198,premup-three_ses-01_part-01_label-phase1,3.2.4,MacIntel,60,right,0.697999954,4,0,4,0,1,3,1,0,240,150,1,239,,,,,,,,,,,,,,,,,,
,,1,213,,,,,,,2,6,1,stim/61.jpeg,HouseObjects,1,stim/objects/HouseObjects/rug2.png,0.7,3,-0.2,-0.15,left,59,2021-02-22_08h03.52.198,premup-three_ses-01_part-01_label-phase1,3.2.4,MacIntel,60,left,0.882999897,4,0,4,0,1,3,1,0,240,128,1,239,,,,,,,,,,,,,,,,,,
,,0,214,,,,,,,1,3,1,stim/31.jpeg,Instruments,2,stim/objects/Instruments/record_player.png,0.5,1,-0.2,0.15,right,59,2021-02-22_08h03.52.198,premup-three_ses-01_part-01_label-phase1,3.2.4,MacIntel,60,left,0.997999907,4,0,4,0,1,3,1,0,240,20,1,239,,,,,,,,,,,,,,,,,,
,,0,215,,,,,,,2,6,2,stim/62.jpeg,HouseObjects,1,stim/objects/HouseObjects/safetypin2.png,0.7,1,-0.2,0.15,left,59,2021-02-22_08h03.52.198,premup-three_ses-01_part-01_label-phase1,3.2.4,MacIntel,60,right,1.23300004,4,0,4,0,1,3,1,0,240,145,1,239,,,,,,,,,,,,,,,,,,
,,1,216,,,,,,,1,4,1,stim/41.jpeg,Instruments,2,stim/objects/Instruments/timbal.png,0.5,2,0.2,0.15,right,59,2021-02-22_08h03.52.198,premup-three_ses-01_part-01_label-phase1,3.2.4,MacIntel,60,right,0.833999872,4,0,4,0,1,3,1,0,240,64,1,239,,,,,,,,,,,,,,,,,,
,,0,217,,,,,,,2,5,1,stim/51.jpeg,Instruments,2,stim/objects/Instruments/tuba.png,0.7,1,-0.2,0.15,right,59,2021-02-22_08h03.52.198,premup-three_ses-01_part-01_label-phase1,3.2.4,MacIntel,60,left,0.944999933,4,0,4,0,1,3,1,0,240,96,1,239,,,,,,,,,,,,,,,,,,
,,1,218,,,,,,,1,3,4,stim/34.jpeg,HouseObjects,1,stim/objects/HouseObjects/scale.png,0.5,2,0.2,0.15,left,59,2021-02-22_08h03.52.198,premup-three_ses-01_part-01_label-phase1,3.2.4,MacIntel,60,left,1.299999952,4,0,4,0,1,3,1,0,240,7,1,239,,,,,,,,,,,,,,,,,,
,,1,219,,,,,,,2,5,3,stim/53.jpeg,Instruments,2,stim/objects/Instruments/vuvuzela.png,0.7,1,-0.2,0.15,right,59,2021-02-22_08h03.52.198,premup-three_ses-01_part-01_label-phase1,3.2.4,MacIntel,60,right,1.393999815,4,0,4,0,1,3,1,0,240,102,1,239,,,,,,,,,,,,,,,,,,
,,1,220,,,,,,,3,2,3,stim/23.jpeg,HouseObjects,1,stim/objects/HouseObjects/vacuumcleaner2.png,0.9,3,-0.2,-0.15,left,59,2021-02-22_08h03.52.198,premup-three_ses-01_part-01_label-phase1,3.2.4,MacIntel,60,left,0.718999863,4,0,4,0,1,3,1,0,240,234,1,239,,,,,,,,,,,,,,,,,,
,,0,221,,,,,,,1,3,1,stim/31.jpeg,Instruments,2,stim/objects/Instruments/record_player.png,0.5,1,-0.2,0.15,right,59,2021-02-22_08h03.52.198,premup-three_ses-01_part-01_label-phase1,3.2.4,MacIntel,60,left,0.763999939,4,0,4,0,1,3,1,0,240,32,1,239,,,,,,,,,,,,,,,,,,
,,0,222,,,,,,,1,4,2,stim/42.jpeg,HouseObjects,1,stim/objects/HouseObjects/spraybottle.png,0.5,2,0.2,0.15,left,59,2021-02-22_08h03.52.198,premup-three_ses-01_part-01_label-phase1,3.2.4,MacIntel,60,right,1.47699976,4,0,4,0,1,3,1,0,240,41,1,239,,,,,,,,,,,,,,,,,,
,,0,223,,,,,,,1,3,2,stim/32.jpeg,HouseObjects,1,stim/objects/HouseObjects/safetypin.png,0.5,4,0.2,-0.15,left,59,2021-02-22_08h03.52.198,premup-three_ses-01_part-01_label-phase1,3.2.4,MacIntel,60,right,1.23300004,4,0,4,0,1,3,1,0,240,17,1,239,,,,,,,,,,,,,,,,,,
,,0,224,,,,,,,2,5,1,stim/51.jpeg,HouseObjects,1,stim/objects/HouseObjects/thread.png,0.3,2,0.2,0.15,left,59,2021-02-22_08h03.52.198,premup-three_ses-01_part-01_label-phase1,3.2.4,MacIntel,60,right,1.230000019,4,0,4,0,1,3,1,0,240,88,1,239,,,,,,,,,,,,,,,,,,
,,1,225,,,,,,,2,5,4,stim/54.jpeg,Instruments,2,stim/objects/Instruments/xylophone.png,0.7,1,-0.2,0.15,right,59,2021-02-22_08h03.52.198,premup-three_ses-01_part-01_label-phase1,3.2.4,MacIntel,60,right,0.612999916,4,0,4,0,1,3,1,0,240,115,1,239,,,,,,,,,,,,,,,,,,
,,0,226,,,,,,,1,4,2,stim/42.jpeg,Instruments,2,stim/objects/Instruments/triangle.png,0.5,2,0.2,0.15,right,59,2021-02-22_08h03.52.198,premup-three_ses-01_part-01_label-phase1,3.2.4,MacIntel,60,left,0.875999928,4,0,4,0,1,3,1,0,240,73,1,239,,,,,,,,,,,,,,,,,,
,,1,227,,,,,,,3,1,1,stim/11.jpeg,Instruments,2,stim/objects/Instruments/timbal2.png,0.9,4,0.2,-0.15,right,59,2021-02-22_08h03.52.198,premup-three_ses-01_part-01_label-phase1,3.2.4,MacIntel,60,right,0.730999947,4,0,4,0,1,3,1,0,240,172,1,239,,,,,,,,,,,,,,,,,,
,,0,228,,,,,,,1,4,1,stim/41.jpeg,HouseObjects,1,stim/objects/HouseObjects/sponge.png,0.5,4,0.2,-0.15,left,59,2021-02-22_08h03.52.198,premup-three_ses-01_part-01_label-phase1,3.2.4,MacIntel,60,right,1.181999922,4,0,4,0,1,3,1,0,240,56,1,239,,,,,,,,,,,,,,,,,,
,,1,229,,,,,,,2,5,1,stim/51.jpeg,Instruments,2,stim/objects/Instruments/tuba.png,0.7,2,0.2,0.15,right,59,2021-02-22_08h03.52.198,premup-three_ses-01_part-01_label-phase1,3.2.4,MacIntel,60,right,1.275000095,4,0,4,0,1,3,1,0,240,104,1,239,,,,,,,,,,,,,,,,,,
,,1,230,,,,,,,2,6,1,stim/61.jpeg,HouseObjects,1,stim/objects/HouseObjects/rug2.png,0.7,2,0.2,0.15,left,59,2021-02-22_08h03.52.198,premup-three_ses-01_part-01_label-phase1,3.2.4,MacIntel,60,left,0.680999994,4,0,4,0,1,3,1,0,240,136,1,239,,,,,,,,,,,,,,,,,,
,,1,231,,,,,,,1,3,3,stim/33.jpeg,Instruments,2,stim/objects/Instruments/speaker.png,0.5,1,-0.2,0.15,right,59,2021-02-22_08h03.52.198,premup-three_ses-01_part-01_label-phase1,3.2.4,MacIntel,60,right,0.90899992,4,0,4,0,1,3,1,0,240,38,1,239,,,,,,,,,,,,,,,,,,
,,1,232,,,,,,,3,1,4,stim/14.jpeg,HouseObjects,1,stim/objects/HouseObjects/thermometer2.png,0.1,3,-0.2,-0.15,left,59,2021-02-22_08h03.52.198,premup-three_ses-01_part-01_label-phase1,3.2.4,MacIntel,60,left,0.595999956,4,0,4,0,1,3,1,0,240,163,1,239,,,,,,,,,,,,,,,,,,
,,0,233,,,,,,,1,3,2,stim/32.jpeg,HouseObjects,1,stim/objects/HouseObjects/safetypin.png,0.5,1,-0.2,0.15,left,59,2021-02-22_08h03.52.198,premup-three_ses-01_part-01_label-phase1,3.2.4,MacIntel,60,right,0.879999876,4,0,4,0,1,3,1,0,240,1,1,239,,,,,,,,,,,,,,,,,,
,,0,234,,,,,,,2,5,2,stim/52.jpeg,Instruments,2,stim/objects/Instruments/violin.png,0.7,2,0.2,0.15,right,59,2021-02-22_08h03.52.198,premup-three_ses-01_part-01_label-phase1,3.2.4,MacIntel,60,left,1.402999878,4,0,4,0,1,3,1,0,240,117,1,239,,,,,,,,,,,,,,,,,,
,,1,235,,,,,,,2,5,2,stim/52.jpeg,Instruments,2,stim/objects/Instruments/violin.png,0.7,3,-0.2,-0.15,right,59,2021-02-22_08h03.52.198,premup-three_ses-01_part-01_label-phase1,3.2.4,MacIntel,60,right,1.128999949,4,0,4,0,1,3,1,0,240,93,1,239,,,,,,,,,,,,,,,,,,
,,0,236,,,,,,,2,6,4,stim/64.jpeg,Instruments,2,stim/objects/Instruments/tambourine2.png,0.3,4,0.2,-0.15,right,59,2021-02-22_08h03.52.198,premup-three_ses-01_part-01_label-phase1,3.2.4,MacIntel,60,left,0.670000076,4,0,4,0,1,3,1,0,240,159,1,239,,,,,,,,,,,,,,,,,,
,,1,237,,,,,,,3,2,4,stim/24.jpeg,HouseObjects,1,stim/objects/HouseObjects/wateringcan2.png,0.9,4,0.2,-0.15,left,59,2021-02-22_08h03.52.198,premup-three_ses-01_part-01_label-phase1,3.2.4,MacIntel,60,left,0.61199975,4,0,4,0,1,3,1,0,240,227,1,239,,,,,,,,,,,,,,,,,,
,,1,238,,,,,,,2,6,2,stim/62.jpeg,HouseObjects,1,stim/objects/HouseObjects/safetypin2.png,0.7,1,-0.2,0.15,left,59,2021-02-22_08h03.52.198,premup-three_ses-01_part-01_label-phase1,3.2.4,MacIntel,60,left,0.77699995,4,0,4,0,1,3,1,0,240,141,1,239,,,,,,,,,,,,,,,,,,
,,1,239,,,,,,,3,2,1,stim/21.jpeg,HouseObjects,1,stim/objects/HouseObjects/thread2.png,0.9,4,0.2,-0.15,left,59,2021-02-22_08h03.52.198,premup-three_ses-01_part-01_label-phase1,3.2.4,MacIntel,60,left,0.59100008,4,0,4,0,1,3,1,0,240,220,1,239,,,,,,,,,,,,,,,,,,
,,1,240,,,,,,,3,2,4,stim/24.jpeg,HouseObjects,1,stim/objects/HouseObjects/wateringcan2.png,0.9,3,-0.2,-0.15,left,59,2021-02-22_08h03.52.198,premup-three_ses-01_part-01_label-phase1,3.2.4,MacIntel,60,left,0.498999834,4,0,4,0,1,3,1,0,240,211,1,239,,,,,,,,,,,,,,,,,,
,,,,,,,,,,,3,,stim/31.jpeg,,,,,,,,,59,2021-02-22_08h03.52.198,premup-three_ses-01_part-01_label-phase1,3.2.4,MacIntel,60,,,4,0,4,0,1,3,,,,,,,1,0,30,15.11100006,,,1,0,6,2,1,5,Household items,65,75,Music items,25,35
,,,,,,,,,,,2,,stim/21.jpeg,,,,,,,,,59,2021-02-22_08h03.52.198,premup-three_ses-01_part-01_label-phase1,3.2.4,MacIntel,60,,,4,0,4,0,1,3,,,,,,,1,0,10,6.67200017,,,1,0,6,1,1,5,Music items,45,55,Household items,45,55
,,,,,,,,,,,4,,stim/41.jpeg,,,,,,,,,59,2021-02-22_08h03.52.198,premup-three_ses-01_part-01_label-phase1,3.2.4,MacIntel,60,,,4,0,4,0,1,3,,,,,,,1,0,20,7.143000126,,,1,0,6,3,1,5,Household items,65,75,Music items,25,35
,,,,,,,,,,,1,,stim/11.jpeg,,,,,,,,,59,2021-02-22_08h03.52.198,premup-three_ses-01_part-01_label-phase1,3.2.4,MacIntel,60,,,4,0,4,0,1,3,,,,,,,1,0,0,4.355000019,,,1,0,6,0,1,5,Household items,45,55,Music items,45,55
,,,,,,,,,,,6,,stim/61.jpeg,,,,,,,,,59,2021-02-22_08h03.52.198,premup-three_ses-01_part-01_label-phase1,3.2.4,MacIntel,60,,,4,0,4,0,1,3,,,,,,,1,0,90,7.370000124,,,1,0,6,5,1,5,Household items,5,15,Music items,85,95
,,,,,,,,,,,5,,stim/51.jpeg,,,,,,,,,59,2021-02-22_08h03.52.198,premup-three_ses-01_part-01_label-phase1,3.2.4,MacIntel,60,,,4,0,4,0,1,3,,,,,,,1,0,30,6.598999977,,,1,0,6,4,1,5,Music items,5,15,Household items,85,95
,,,,,,,,,,,,,,,,,,,,,,59,2021-02-22_08h03.52.198,premup-three_ses-01_part-01_label-phase1,3.2.4,MacIntel,60,,,4,0,4,0,1,3,,,,,,,,,,,,,,,,,,,,,,,,
,,1,1,,,,,,,3,1,2,stim/12.jpeg,Instruments,2,stim/objects/Instruments/triangle2.png,0.9,1,-0.2,0.15,right,59,2021-02-22_08h03.52.198,premup-three_ses-01_part-01_label-phase1,3.2.4,MacIntel,60,right,1.65899992,4,0,4,0,1,3,1,0,240,169,1,239,,,,,,,,,,,,,,,,,,
,,1,2,,,,,,,1,4,2,stim/42.jpeg,HouseObjects,1,stim/objects/HouseObjects/spraybottle.png,0.5,4,0.2,-0.15,left,59,2021-02-22_08h03.52.198,premup-three_ses-01_part-01_label-phase1,3.2.4,MacIntel,60,left,0.983999968,4,0,4,0,1,3,1,0,240,57,1,239,,,,,,,,,,,,,,,,,,
,,1,3,,,,,,,1,4,1,stim/41.jpeg,Instruments,2,stim/objects/Instruments/timbal.png,0.5,2,0.2,0.15,right,59,2021-02-22_08h03.52.198,premup-three_ses-01_part-01_label-phase1,3.2.4,MacIntel,60,right,0.815999985,4,0,4,0,1,3,1,0,240,76,1,239,,,,,,,,,,,,,,,,,,
,,1,4,,,,,,,3,1,1,stim/11.jpeg,Instruments,2,stim/objects/Instruments/timbal2.png,0.9,2,0.2,0.15,right,59,2021-02-22_08h03.52.198,premup-three_ses-01_part-01_label-phase1,3.2.4,MacIntel,60,right,0.641000032,4,0,4,0,1,3,1,0,240,196,1,239,,,,,,,,,,,,,,,,,,
,,1,5,,,,,,,3,2,2,stim/22.jpeg,HouseObjects,1,stim/objects/HouseObjects/towel2.png,0.9,2,0.2,0.15,left,59,2021-02-22_08h03.52.198,premup-three_ses-01_part-01_label-phase1,3.2.4,MacIntel,60,left,0.626999855,4,0,4,0,1,3,1,0,240,233,1,239,,,,,,,,,,,,,,,,,,
,,1,6,,,,,,,2,5,2,stim/52.jpeg,Instruments,2,stim/objects/Instruments/violin.png,0.7,2,0.2,0.15,right,59,2021-02-22_08h03.52.198,premup-three_ses-01_part-01_label-phase1,3.2.4,MacIntel,60,right,1.114999771,4,0,4,0,1,3,1,0,240,113,1,239,,,,,,,,,,,,,,,,,,
,,0,7,,,,,,,2,6,1,stim/61.jpeg,Instruments,2,stim/objects/Instruments/record_player2.png,0.3,3,-0.2,-0.15,right,59,2021-02-22_08h03.52.198,premup-three_ses-01_part-01_label-phase1,3.2.4,MacIntel,60,left,0.898999929,4,0,4,0,1,3,1,0,240,156,1,239,,,,,,,,,,,,,,,,,,
,,1,8,,,,,,,2,5,2,stim/52.jpeg,Instruments,2,stim/objects/Instruments/violin.png,0.7,4,0.2,-0.15,right,59,2021-02-22_08h03.52.198,premup-three_ses-01_part-01_label-phase1,3.2.4,MacIntel,60,right,0.986999989,4,0,4,0,1,3,1,0,240,101,1,239,,,,,,,,,,,,,,,,,,
,,1,9,,,,,,,3,2,3,stim/23.jpeg,HouseObjects,1,stim/objects/HouseObjects/vacuumcleaner2.png,0.9,2,0.2,0.15,left,59,2021-02-22_08h03.52.198,premup-three_ses-01_part-01_label-phase1,3.2.4,MacIntel,60,left,0.586999893,4,0,4,0,1,3,1,0,240,230,1,239,,,,,,,,,,,,,,,,,,
,,1,10,,,,,,,3,1,1,stim/11.jpeg,Instruments,2,stim/objects/Instruments/timbal2.png,0.9,2,0.2,0.15,right,59,2021-02-22_08h03.52.198,premup-three_ses-01_part-01_label-phase1,3.2.4,MacIntel,60,right,0.59800005,4,0,4,0,1,3,1,0,240,168,1,239,,,,,,,,,,,,,,,,,,
,,1,11,,,,,,,2,6,3,stim/63.jpeg,HouseObjects,1,stim/objects/HouseObjects/saw2.png,0.7,3,-0.2,-0.15,left,59,2021-02-22_08h03.52.198,premup-three_ses-01_part-01_label-phase1,3.2.4,MacIntel,60,left,0.726000071,4,0,4,0,1,3,1,0,240,142,1,239,,,,,,,,,,,,,,,,,,
,,1,12,,,,,,,3,2,4,stim/24.jpeg,HouseObjects,1,stim/objects/HouseObjects/wateringcan2.png,0.9,4,0.2,-0.15,left,59,2021-02-22_08h03.52.198,premup-three_ses-01_part-01_label-phase1,3.2.4,MacIntel,60,left,0.639999866,4,0,4,0,1,3,1,0,240,227,1,239,,,,,,,,,,,,,,,,,,
,,1,13,,,,,,,2,6,4,stim/64.jpeg,HouseObjects,1,stim/objects/HouseObjects/scale2.png,0.7,4,0.2,-0.15,left,59,2021-02-22_08h03.52.198,premup-three_ses-01_part-01_label-phase1,3.2.4,MacIntel,60,left,0.717000008,4,0,4,0,1,3,1,0,240,143,1,239,,,,,,,,,,,,,,,,,,
,,0,14,,,,,,,2,6,2,stim/62.jpeg,HouseObjects,1,stim/objects/HouseObjects/safetypin2.png,0.7,4,0.2,-0.15,left,59,2021-02-22_08h03.52.198,premup-three_ses-01_part-01_label-phase1,3.2.4,MacIntel,60,right,1.030999899,4,0,4,0,1,3,1,0,240,125,1,239,,,,,,,,,,,,,,,,,,
,,1,15,,,,,,,3,2,2,stim/22.jpeg,HouseObjects,1,stim/objects/HouseObjects/towel2.png,0.9,3,-0.2,-0.15,left,59,2021-02-22_08h03.52.198,premup-three_ses-01_part-01_label-phase1,3.2.4,MacIntel,60,left,0.534999847,4,0,4,0,1,3,1,0,240,229,1,239,,,,,,,,,,,,,,,,,,
,,0,16,,,,,,,1,3,1,stim/31.jpeg,Instruments,2,stim/objects/Instruments/record_player.png,0.5,1,-0.2,0.15,right,59,2021-02-22_08h03.52.198,premup-three_ses-01_part-01_label-phase1,3.2.4,MacIntel,60,left,0.915999889,4,0,4,0,1,3,1,0,240,32,1,239,,,,,,,,,,,,,,,,,,
,,0,17,,,,,,,2,6,2,stim/62.jpeg,Instruments,2,stim/objects/Instruments/saxophone2.png,0.3,3,-0.2,-0.15,right,59,2021-02-22_08h03.52.198,premup-three_ses-01_part-01_label-phase1,3.2.4,MacIntel,60,left,0.56799984,4,0,4,0,1,3,1,0,240,157,1,239,,,,,,,,,,,,,,,,,,
,,1,18,,,,,,,3,1,4,stim/14.jpeg,Instruments,2,stim/objects/Instruments/trumpet2.png,0.9,3,-0.2,-0.15,right,59,2021-02-22_08h03.52.198,premup-three_ses-01_part-01_label-phase1,3.2.4,MacIntel,60,right,0.851000071,4,0,4,0,1,3,1,0,240,167,1,239,,,,,,,,,,,,,,,,,,
,,1,19,,,,,,,3,1,3,stim/13.jpeg,Instruments,2,stim/objects/Instruments/trombone2.png,0.9,3,-0.2,-0.15,right,59,2021-02-22_08h03.52.198,premup-three_ses-01_part-01_label-phase1,3.2.4,MacIntel,60,right,0.782999992,4,0,4,0,1,3,1,0,240,190,1,239,,,,,,,,,,,,,,,,,,
,,0,20,,,,,,,1,3,1,stim/31.jpeg,HouseObjects,1,stim/objects/HouseObjects/rug.png,0.5,2,0.2,0.15,left,59,2021-02-22_08h03.52.198,premup-three_ses-01_part-01_label-phase1,3.2.4,MacIntel,60,right,1.684999943,4,0,4,0,1,3,1,0,240,12,1,239,,,,,,,,,,,,,,,,,,
,,0,21,,,,,,,2,6,3,stim/63.jpeg,Instruments,2,stim/objects/Instruments/speaker2.png,0.3,1,-0.2,0.15,right,59,2021-02-22_08h03.52.198,premup-three_ses-01_part-01_label-phase1,3.2.4,MacIntel,60,left,0.738999844,4,0,4,0,1,3,1,0,240,150,1,239,,,,,,,,,,,,,,,,,,
,,1,22,,,,,,,2,6,4,stim/64.jpeg,HouseObjects,1,stim/objects/HouseObjects/scale2.png,0.7,3,-0.2,-0.15,left,59,2021-02-22_08h03.52.198,premup-three_ses-01_part-01_label-phase1,3.2.4,MacIntel,60,left,0.712999821,4,0,4,0,1,3,1,0,240,127,1,239,,,,,,,,,,,,,,,,,,
,,0,23,,,,,,,1,3,3,stim/33.jpeg,Instruments,2,stim/objects/Instruments/speaker.png,0.5,1,-0.2,0.15,right,59,2021-02-22_08h03.52.198,premup-three_ses-01_part-01_label-phase1,3.2.4,MacIntel,60,left,1.006999969,4,0,4,0,1,3,1,0,240,38,1,239,,,,,,,,,,,,,,,,,,
,,1,24,,,,,,,2,6,1,stim/61.jpeg,HouseObjects,1,stim/objects/HouseObjects/rug2.png,0.7,2,0.2,0.15,left,59,2021-02-22_08h03.52.198,premup-three_ses-01_part-01_label-phase1,3.2.4,MacIntel,60,left,0.690000057,4,0,4,0,1,3,1,0,240,136,1,239,,,,,,,,,,,,,,,,,,
,,1,25,,,,,,,3,1,2,stim/12.jpeg,Instruments,2,stim/objects/Instruments/triangle2.png,0.9,3,-0.2,-0.15,right,59,2021-02-22_08h03.52.198,premup-three_ses-01_part-01_label-phase1,3.2.4,MacIntel,60,right,0.608999968,4,0,4,0,1,3,1,0,240,181,1,239,,,,,,,,,,,,,,,,,,
,,0,26,,,,,,,1,3,1,stim/31.jpeg,Instruments,2,stim/objects/Instruments/record_player.png,0.5,4,0.2,-0.15,right,59,2021-02-22_08h03.52.198,premup-three_ses-01_part-01_label-phase1,3.2.4,MacIntel,60,left,1.154999971,4,0,4,0,1,3,1,0,240,24,1,239,,,,,,,,,,,,,,,,,,
,,1,27,,,,,,,2,5,3,stim/53.jpeg,Instruments,2,stim/objects/Instruments/vuvuzela.png,0.7,2,0.2,0.15,right,59,2021-02-22_08h03.52.198,premup-three_ses-01_part-01_label-phase1,3.2.4,MacIntel,60,right,1.00999999,4,0,4,0,1,3,1,0,240,94,1,239,,,,,,,,,,,,,,,,,,
,,0,28,,,,,,,2,5,1,stim/51.jpeg,Instruments,2,stim/objects/Instruments/tuba.png,0.7,3,-0.2,-0.15,right,59,2021-02-22_08h03.52.198,premup-three_ses-01_part-01_label-phase1,3.2.4,MacIntel,60,left,0.877000093,4,0,4,0,1,3,1,0,240,108,1,239,,,,,,,,,,,,,,,,,,
,,0,29,,,,,,,1,4,3,stim/43.jpeg,Instruments,2,stim/objects/Instruments/trombone.png,0.5,3,-0.2,-0.15,right,59,2021-02-22_08h03.52.198,premup-three_ses-01_part-01_label-phase1,3.2.4,MacIntel,60,left,0.914999962,4,0,4,0,1,3,1,0,240,74,1,239,,,,,,,,,,,,,,,,,,
,,1,30,,,,,,,3,2,4,stim/24.jpeg,HouseObjects,1,stim/objects/HouseObjects/wateringcan2.png,0.9,2,0.2,0.15,left,59,2021-02-22_08h03.52.198,premup-three_ses-01_part-01_label-phase1,3.2.4,MacIntel,60,left,0.707999945,4,0,4,0,1,3,1,0,240,215,1,239,,,,,,,,,,,,,,,,,,
,,0,31,,,,,,,3,2,3,stim/23.jpeg,Instruments,2,stim/objects/Instruments/vuvuzela2.png,0.1,2,0.2,0.15,right,59,2021-02-22_08h03.52.198,premup-three_ses-01_part-01_label-phase1,3.2.4,MacIntel,60,left,0.621999979,4,0,4,0,1,3,1,0,240,238,1,239,,,,,,,,,,,,,,,,,,
,,1,32,,,,,,,3,2,4,stim/24.jpeg,HouseObjects,1,stim/objects/HouseObjects/wateringcan2.png,0.9,4,0.2,-0.15,left,59,2021-02-22_08h03.52.198,premup-three_ses-01_part-01_label-phase1,3.2.4,MacIntel,60,left,0.631999731,4,0,4,0,1,3,1,0,240,223,1,239,,,,,,,,,,,,,,,,,,
,,0,33,,,,,,,1,3,4,stim/34.jpeg,Instruments,2,stim/objects/Instruments/tambourine.png,0.5,2,0.2,0.15,right,59,2021-02-22_08h03.52.198,premup-three_ses-01_part-01_label-phase1,3.2.4,MacIntel,60,left,1.096999884,4,0,4,0,1,3,1,0,240,35,1,239,,,,,,,,,,,,,,,,,,
,,1,34,,,,,,,2,5,1,stim/51.jpeg,Instruments,2,stim/objects/Instruments/tuba.png,0.7,2,0.2,0.15,right,59,2021-02-22_08h03.52.198,premup-three_ses-01_part-01_label-phase1,3.2.4,MacIntel,60,right,0.937999964,4,0,4,0,1,3,1,0,240,104,1,239,,,,,,,,,,,,,,,,,,
,,1,35,,,,,,,3,1,4,stim/14.jpeg,Instruments,2,stim/objects/Instruments/trumpet2.png,0.9,3,-0.2,-0.15,right,59,2021-02-22_08h03.52.198,premup-three_ses-01_part-01_label-phase1,3.2.4,MacIntel,60,right,0.618999958,4,0,4,0,1,3,1,0,240,191,1,239,,,,,,,,,,,,,,,,,,
,,1,36,,,,,,,2,6,1,stim/61.jpeg,HouseObjects,1,stim/objects/HouseObjects/rug2.png,0.7,2,0.2,0.15,left,59,2021-02-22_08h03.52.198,premup-three_ses-01_part-01_label-phase1,3.2.4,MacIntel,60,left,0.630000114,4,0,4,0,1,3,1,0,240,132,1,239,,,,,,,,,,,,,,,,,,
,,0,37,,,,,,,3,1,4,stim/14.jpeg,Instruments,2,stim/objects/Instruments/trumpet2.png,0.9,2,0.2,0.15,right,59,2021-02-22_08h03.52.198,premup-three_ses-01_part-01_label-phase1,3.2.4,MacIntel,60,left,0.643999815,4,0,4,0,1,3,1,0,240,175,1,239,,,,,,,,,,,,,,,,,,
,,0,38,,,,,,,1,3,1,stim/31.jpeg,HouseObjects,1,stim/objects/HouseObjects/rug.png,0.5,3,-0.2,-0.15,left,59,2021-02-22_08h03.52.198,premup-three_ses-01_part-01_label-phase1,3.2.4,MacIntel,60,right,1.090999842,4,0,4,0,1,3,1,0,240,0,1,239,,,,,,,,,,,,,,,,,,
,,0,39,,,,,,,3,1,1,stim/11.jpeg,Instruments,2,stim/objects/Instruments/timbal2.png,0.9,4,0.2,-0.15,right,59,2021-02-22_08h03.52.198,premup-three_ses-01_part-01_label-phase1,3.2.4,MacIntel,60,left,0.546999931,4,0,4,0,1,3,1,0,240,172,1,239,,,,,,,,,,,,,,,,,,
,,1,40,,,,,,,3,2,1,stim/21.jpeg,HouseObjects,1,stim/objects/HouseObjects/thread2.png,0.9,2,0.2,0.15,left,59,2021-02-22_08h03.52.198,premup-three_ses-01_part-01_label-phase1,3.2.4,MacIntel,60,left,0.600000143,4,0,4,0,1,3,1,0,240,216,1,239,,,,,,,,,,,,,,,,,,
,,0,41,,,,,,,1,4,2,stim/42.jpeg,HouseObjects,1,stim/objects/HouseObjects/spraybottle.png,0.5,4,0.2,-0.15,left,59,2021-02-22_08h03.52.198,premup-three_ses-01_part-01_label-phase1,3.2.4,MacIntel,60,right,0.880999804,4,0,4,0,1,3,1,0,240,45,1,239,,,,,,,,,,,,,,,,,,
,,1,42,,,,,,,3,2,2,stim/22.jpeg,HouseObjects,1,stim/objects/HouseObjects/towel2.png,0.9,3,-0.2,-0.15,left,59,2021-02-22_08h03.52.198,premup-three_ses-01_part-01_label-phase1,3.2.4,MacIntel,60,left,0.718999863,4,0,4,0,1,3,1,0,240,209,1,239,,,,,,,,,,,,,,,,,,
,,0,43,,,,,,,1,3,3,stim/33.jpeg,HouseObjects,1,stim/objects/HouseObjects/saw.png,0.5,3,-0.2,-0.15,left,59,2021-02-22_08h03.52.198,premup-three_ses-01_part-01_label-phase1,3.2.4,MacIntel,60,right,0.648999929,4,0,4,0,1,3,1,0,240,18,1,239,,,,,,,,,,,,,,,,,,
,,0,44,,,,,,,1,3,2,stim/32.jpeg,HouseObjects,1,stim/objects/HouseObjects/safetypin.png,0.5,3,-0.2,-0.15,left,59,2021-02-22_08h03.52.198,premup-three_ses-01_part-01_label-phase1,3.2.4,MacIntel,60,right,0.625999928,4,0,4,0,1,3,1,0,240,5,1,239,,,,,,,,,,,,,,,,,,
,,1,45,,,,,,,1,3,2,stim/32.jpeg,Instruments,2,stim/objects/Instruments/saxophone.png,0.5,1,-0.2,0.15,right,59,2021-02-22_08h03.52.198,premup-three_ses-01_part-01_label-phase1,3.2.4,MacIntel,60,right,0.600999832,4,0,4,0,1,3,1,0,240,21,1,239,,,,,,,,,,,,,,,,,,
,,0,46,,,,,,,2,5,2,stim/52.jpeg,Instruments,2,stim/objects/Instruments/violin.png,0.7,2,0.2,0.15,right,59,2021-02-22_08h03.52.198,premup-three_ses-01_part-01_label-phase1,3.2.4,MacIntel,60,left,1.179999828,4,0,4,0,1,3,1,0,240,105,1,239,,,,,,,,,,,,,,,,,,
,,1,47,,,,,,,1,4,2,stim/42.jpeg,Instruments,2,stim/objects/Instruments/triangle.png,0.5,1,-0.2,0.15,right,59,2021-02-22_08h03.52.198,premup-three_ses-01_part-01_label-phase1,3.2.4,MacIntel,60,right,1.166999817,4,0,4,0,1,3,1,0,240,61,1,239,,,,,,,,,,,,,,,,,,
,,0,48,,,,,,,2,6,2,stim/62.jpeg,Instruments,2,stim/objects/Instruments/saxophone2.png,0.3,4,0.2,-0.15,right,59,2021-02-22_08h03.52.198,premup-three_ses-01_part-01_label-phase1,3.2.4,MacIntel,60,left,0.71999979,4,0,4,0,1,3,1,0,240,149,1,239,,,,,,,,,,,,,,,,,,
,,0,49,,,,,,,2,6,2,stim/62.jpeg,HouseObjects,1,stim/objects/HouseObjects/safetypin2.png,0.7,2,0.2,0.15,left,59,2021-02-22_08h03.52.198,premup-three_ses-01_part-01_label-phase1,3.2.4,MacIntel,60,right,0.904999971,4,0,4,0,1,3,1,0,240,129,1,239,,,,,,,,,,,,,,,,,,
,,0,50,,,,,,,2,6,3,stim/63.jpeg,Instruments,2,stim/objects/Instruments/speaker2.png,0.3,4,0.2,-0.15,right,59,2021-02-22_08h03.52.198,premup-three_ses-01_part-01_label-phase1,3.2.4,MacIntel,60,left,1.032000065,4,0,4,0,1,3,1,0,240,154,1,239,,,,,,,,,,,,,,,,,,
,,1,51,,,,,,,1,4,3,stim/43.jpeg,HouseObjects,1,stim/objects/HouseObjects/teapot.png,0.5,2,0.2,0.15,left,59,2021-02-22_08h03.52.198,premup-three_ses-01_part-01_label-phase1,3.2.4,MacIntel,60,left,0.97699976,4,0,4,0,1,3,1,0,240,50,1,239,,,,,,,,,,,,,,,,,,
,,0,52,,,,,,,1,4,4,stim/44.jpeg,HouseObjects,1,stim/objects/HouseObjects/thermometer.png,0.5,3,-0.2,-0.15,left,59,2021-02-22_08h03.52.198,premup-three_ses-01_part-01_label-phase1,3.2.4,MacIntel,60,right,0.628999949,4,0,4,0,1,3,1,0,240,43,1,239,,,,,,,,,,,,,,,,,,
,,0,53,,,,,,,1,3,2,stim/32.jpeg,Instruments,2,stim/objects/Instruments/saxophone.png,0.5,3,-0.2,-0.15,right,59,2021-02-22_08h03.52.198,premup-three_ses-01_part-01_label-phase1,3.2.4,MacIntel,60,left,1.001999855,4,0,4,0,1,3,1,0,240,25,1,239,,,,,,,,,,,,,,,,,,
,,1,54,,,,,,,2,5,2,stim/52.jpeg,Instruments,2,stim/objects/Instruments/violin.png,0.7,2,0.2,0.15,right,59,2021-02-22_08h03.52.198,premup-three_ses-01_part-01_label-phase1,3.2.4,MacIntel,60,right,0.879999876,4,0,4,0,1,3,1,0,240,117,1,239,,,,,,,,,,,,,,,,,,
,,0,55,,,,,,,3,1,3,stim/13.jpeg,Instruments,2,stim/objects/Instruments/trombone2.png,0.9,2,0.2,0.15,right,59,2021-02-22_08h03.52.198,premup-three_ses-01_part-01_label-phase1,3.2.4,MacIntel,60,left,0.608999968,4,0,4,0,1,3,1,0,240,178,1,239,,,,,,,,,,,,,,,,,,
,,1,56,,,,,,,3,2,1,stim/21.jpeg,HouseObjects,1,stim/objects/HouseObjects/thread2.png,0.9,2,0.2,0.15,left,59,2021-02-22_08h03.52.198,premup-three_ses-01_part-01_label-phase1,3.2.4,MacIntel,60,left,0.730000019,4,0,4,0,1,3,1,0,240,208,1,239,,,,,,,,,,,,,,,,,,
,,0,57,,,,,,,1,3,4,stim/34.jpeg,HouseObjects,1,stim/objects/HouseObjects/scale.png,0.5,3,-0.2,-0.15,left,59,2021-02-22_08h03.52.198,premup-three_ses-01_part-01_label-phase1,3.2.4,MacIntel,60,right,1.646000147,4,0,4,0,1,3,1,0,240,3,1,239,,,,,,,,,,,,,,,,,,
,,1,58,,,,,,,3,2,4,stim/24.jpeg,HouseObjects,1,stim/objects/HouseObjects/wateringcan2.png,0.9,3,-0.2,-0.15,left,59,2021-02-22_08h03.52.198,premup-three_ses-01_part-01_label-phase1,3.2.4,MacIntel,60,left,0.644999981,4,0,4,0,1,3,1,0,240,211,1,239,,,,,,,,,,,,,,,,,,
,,1,59,,,,,,,3,2,3,stim/23.jpeg,HouseObjects,1,stim/objects/HouseObjects/vacuumcleaner2.png,0.9,4,0.2,-0.15,left,59,2021-02-22_08h03.52.198,premup-three_ses-01_part-01_label-phase1,3.2.4,MacIntel,60,left,0.592000008,4,0,4,0,1,3,1,0,240,210,1,239,,,,,,,,,,,,,,,,,,
,,0,60,,,,,,,1,3,3,stim/33.jpeg,HouseObjects,1,stim/objects/HouseObjects/saw.png,0.5,1,-0.2,0.15,left,59,2021-02-22_08h03.52.198,premup-three_ses-01_part-01_label-phase1,3.2.4,MacIntel,60,right,1.057999849,4,0,4,0,1,3,1,0,240,10,1,239,,,,,,,,,,,,,,,,,,
,,1,61,,,,,,,3,2,3,stim/23.jpeg,HouseObjects,1,stim/objects/HouseObjects/vacuumcleaner2.png,0.9,1,-0.2,0.15,left,59,2021-02-22_08h03.52.198,premup-three_ses-01_part-01_label-phase1,3.2.4,MacIntel,60,left,0.500999928,4,0,4,0,1,3,1,0,240,214,1,239,,,,,,,,,,,,,,,,,,
,,1,62,,,,,,,3,2,1,stim/21.jpeg,HouseObjects,1,stim/objects/HouseObjects/thread2.png,0.9,1,-0.2,0.15,left,59,2021-02-22_08h03.52.198,premup-three_ses-01_part-01_label-phase1,3.2.4,MacIntel,60,left,0.512000084,4,0,4,0,1,3,1,0,240,200,1,239,,,,,,,,,,,,,,,,,,
,,1,63,,,,,,,1,3,1,stim/31.jpeg,HouseObjects,1,stim/objects/HouseObjects/rug.png,0.5,3,-0.2,-0.15,left,59,2021-02-22_08h03.52.198,premup-three_ses-01_part-01_label-phase1,3.2.4,MacIntel,60,left,1.087000132,4,0,4,0,1,3,1,0,240,4,1,239,,,,,,,,,,,,,,,,,,
,,1,64,,,,,,,3,1,1,stim/11.jpeg,Instruments,2,stim/objects/Instruments/timbal2.png,0.9,1,-0.2,0.15,right,59,2021-02-22_08h03.52.198,premup-three_ses-01_part-01_label-phase1,3.2.4,MacIntel,60,right,0.730000019,4,0,4,0,1,3,1,0,240,176,1,239,,,,,,,,,,,,,,,,,,
,,0,65,,,,,,,2,6,4,stim/64.jpeg,Instruments,2,stim/objects/Instruments/tambourine2.png,0.3,3,-0.2,-0.15,right,59,2021-02-22_08h03.52.198,premup-three_ses-01_part-01_label-phase1,3.2.4,MacIntel,60,left,0.934000015,4,0,4,0,1,3,1,0,240,151,1,239,,,,,,,,,,,,,,,,,,
,,1,66,,,,,,,3,1,3,stim/13.jpeg,Instruments,2,stim/objects/Instruments/trombone2.png,0.9,2,0.2,0.15,right,59,2021-02-22_08h03.52.198,premup-three_ses-01_part-01_label-phase1,3.2.4,MacIntel,60,right,0.904999971,4,0,4,0,1,3,1,0,240,170,1,239,,,,,,,,,,,,,,,,,,
,,1,67,,,,,,,3,1,4,stim/14.jpeg,Instruments,2,stim/objects/Instruments/trumpet2.png,0.9,3,-0.2,-0.15,right,59,2021-02-22_08h03.52.198,premup-three_ses-01_part-01_label-phase1,3.2.4,MacIntel,60,right,0.760999918,4,0,4,0,1,3,1,0,240,195,1,239,,,,,,,,,,,,,,,,,,
,,1,68,,,,,,,3,1,2,stim/12.jpeg,Instruments,2,stim/objects/Instruments/triangle2.png,0.9,2,0.2,0.15,right,59,2021-02-22_08h03.52.198,premup-three_ses-01_part-01_label-phase1,3.2.4,MacIntel,60,right,0.598999977,4,0,4,0,1,3,1,0,240,165,1,239,,,,,,,,,,,,,,,,,,
,,1,69,,,,,,,3,2,1,stim/21.jpeg,HouseObjects,1,stim/objects/HouseObjects/thread2.png,0.9,4,0.2,-0.15,left,59,2021-02-22_08h03.52.198,premup-three_ses-01_part-01_label-phase1,3.2.4,MacIntel,60,left,0.637999773,4,0,4,0,1,3,1,0,240,224,1,239,,,,,,,,,,,,,,,,,,
,,1,70,,,,,,,1,4,2,stim/42.jpeg,Instruments,2,stim/objects/Instruments/triangle.png,0.5,3,-0.2,-0.15,right,59,2021-02-22_08h03.52.198,premup-three_ses-01_part-01_label-phase1,3.2.4,MacIntel,60,right,0.927999973,4,0,4,0,1,3,1,0,240,77,1,239,,,,,,,,,,,,,,,,,,
,,0,71,,,,,,,2,6,2,stim/62.jpeg,Instruments,2,stim/objects/Instruments/saxophone2.png,0.3,4,0.2,-0.15,right,59,2021-02-22_08h03.52.198,premup-three_ses-01_part-01_label-phase1,3.2.4,MacIntel,60,left,0.8349998,4,0,4,0,1,3,1,0,240,153,1,239,,,,,,,,,,,,,,,,,,
,,0,72,,,,,,,3,1,4,stim/14.jpeg,Instruments,2,stim/objects/Instruments/trumpet2.png,0.9,1,-0.2,0.15,right,59,2021-02-22_08h03.52.198,premup-three_ses-01_part-01_label-phase1,3.2.4,MacIntel,60,left,0.624000072,4,0,4,0,1,3,1,0,240,199,1,239,,,,,,,,,,,,,,,,,,
,,1,73,,,,,,,3,1,1,stim/11.jpeg,Instruments,2,stim/objects/Instruments/timbal2.png,0.9,1,-0.2,0.15,right,59,2021-02-22_08h03.52.198,premup-three_ses-01_part-01_label-phase1,3.2.4,MacIntel,60,right,0.564999819,4,0,4,0,1,3,1,0,240,180,1,239,,,,,,,,,,,,,,,,,,
,,1,74,,,,,,,2,6,1,stim/61.jpeg,HouseObjects,1,stim/objects/HouseObjects/rug2.png,0.7,3,-0.2,-0.15,left,59,2021-02-22_08h03.52.198,premup-three_ses-01_part-01_label-phase1,3.2.4,MacIntel,60,left,1.704999924,4,0,4,0,1,3,1,0,240,128,1,239,,,,,,,,,,,,,,,,,,
,,1,75,,,,,,,2,5,1,stim/51.jpeg,Instruments,2,stim/objects/Instruments/tuba.png,0.7,1,-0.2,0.15,right,59,2021-02-22_08h03.52.198,premup-three_ses-01_part-01_label-phase1,3.2.4,MacIntel,60,right,0.839999914,4,0,4,0,1,3,1,0,240,96,1,239,,,,,,,,,,,,,,,,,,
,,0,76,,,,,,,2,6,1,stim/61.jpeg,HouseObjects,1,stim/objects/HouseObjects/rug2.png,0.7,3,-0.2,-0.15,left,59,2021-02-22_08h03.52.198,premup-three_ses-01_part-01_label-phase1,3.2.4,MacIntel,60,right,0.975999832,4,0,4,0,1,3,1,0,240,144,1,239,,,,,,,,,,,,,,,,,,
,,0,77,,,,,,,3,1,3,stim/13.jpeg,HouseObjects,1,stim/objects/HouseObjects/teapot2.png,0.1,1,-0.2,0.15,left,59,2021-02-22_08h03.52.198,premup-three_ses-01_part-01_label-phase1,3.2.4,MacIntel,60,right,0.643999815,4,0,4,0,1,3,1,0,240,162,1,239,,,,,,,,,,,,,,,,,,
,,1,78,,,,,,,1,4,4,stim/44.jpeg,Instruments,2,stim/objects/Instruments/trumpet.png,0.5,2,0.2,0.15,right,59,2021-02-22_08h03.52.198,premup-three_ses-01_part-01_label-phase1,3.2.4,MacIntel,60,right,0.959000111,4,0,4,0,1,3,1,0,240,75,1,239,,,,,,,,,,,,,,,,,,
,,1,79,,,,,,,2,5,4,stim/54.jpeg,Instruments,2,stim/objects/Instruments/xylophone.png,0.7,1,-0.2,0.15,right,59,2021-02-22_08h03.52.198,premup-three_ses-01_part-01_label-phase1,3.2.4,MacIntel,60,right,0.839999914,4,0,4,0,1,3,1,0,240,115,1,239,,,,,,,,,,,,,,,,,,
,,0,80,,,,,,,1,4,1,stim/41.jpeg,HouseObjects,1,stim/objects/HouseObjects/sponge.png,0.5,2,0.2,0.15,left,59,2021-02-22_08h03.52.198,premup-three_ses-01_part-01_label-phase1,3.2.4,MacIntel,60,right,0.845000029,4,0,4,0,1,3,1,0,240,48,1,239,,,,,,,,,,,,,,,,,,
,,0,81,,,,,,,1,3,4,stim/34.jpeg,Instruments,2,stim/objects/Instruments/tambourine.png,0.5,4,0.2,-0.15,right,59,2021-02-22_08h03.52.198,premup-three_ses-01_part-01_label-phase1,3.2.4,MacIntel,60,left,0.947999954,4,0,4,0,1,3,1,0,240,39,1,239,,,,,,,,,,,,,,,,,,
,,1,82,,,,,,,1,3,1,stim/31.jpeg,Instruments,2,stim/objects/Instruments/record_player.png,0.5,1,-0.2,0.15,right,59,2021-02-22_08h03.52.198,premup-three_ses-01_part-01_label-phase1,3.2.4,MacIntel,60,right,0.859999895,4,0,4,0,1,3,1,0,240,36,1,239,,,,,,,,,,,,,,,,,,
,,1,83,,,,,,,2,5,1,stim/51.jpeg,Instruments,2,stim/objects/Instruments/tuba.png,0.7,2,0.2,0.15,right,59,2021-02-22_08h03.52.198,premup-three_ses-01_part-01_label-phase1,3.2.4,MacIntel,60,right,0.736999989,4,0,4,0,1,3,1,0,240,112,1,239,,,,,,,,,,,,,,,,,,
,,0,84,,,,,,,2,6,2,stim/62.jpeg,HouseObjects,1,stim/objects/HouseObjects/safetypin2.png,0.7,1,-0.2,0.15,left,59,2021-02-22_08h03.52.198,premup-three_ses-01_part-01_label-phase1,3.2.4,MacIntel,60,right,0.880999804,4,0,4,0,1,3,1,0,240,145,1,239,,,,,,,,,,,,,,,,,,
,,0,85,,,,,,,2,5,1,stim/51.jpeg,HouseObjects,1,stim/objects/HouseObjects/thread.png,0.3,2,0.2,0.15,left,59,2021-02-22_08h03.52.198,premup-three_ses-01_part-01_label-phase1,3.2.4,MacIntel,60,right,0.549999952,4,0,4,0,1,3,1,0,240,88,1,239,,,,,,,,,,,,,,,,,,
,,1,86,,,,,,,1,3,4,stim/34.jpeg,HouseObjects,1,stim/objects/HouseObjects/scale.png,0.5,4,0.2,-0.15,left,59,2021-02-22_08h03.52.198,premup-three_ses-01_part-01_label-phase1,3.2.4,MacIntel,60,left,0.850999832,4,0,4,0,1,3,1,0,240,19,1,239,,,,,,,,,,,,,,,,,,
,,0,87,,,,,,,1,4,1,stim/41.jpeg,HouseObjects,1,stim/objects/HouseObjects/sponge.png,0.5,4,0.2,-0.15,left,59,2021-02-22_08h03.52.198,premup-three_ses-01_part-01_label-phase1,3.2.4,MacIntel,60,right,0.940999985,4,0,4,0,1,3,1,0,240,56,1,239,,,,,,,,,,,,,,,,,,
,,1,88,,,,,,,2,6,2,stim/62.jpeg,HouseObjects,1,stim/objects/HouseObjects/safetypin2.png,0.7,2,0.2,0.15,left,59,2021-02-22_08h03.52.198,premup-three_ses-01_part-01_label-phase1,3.2.4,MacIntel,60,left,0.697999954,4,0,4,0,1,3,1,0,240,137,1,239,,,,,,,,,,,,,,,,,,
,,0,89,,,,,,,1,3,2,stim/32.jpeg,HouseObjects,1,stim/objects/HouseObjects/safetypin.png,0.5,1,-0.2,0.15,left,59,2021-02-22_08h03.52.198,premup-three_ses-01_part-01_label-phase1,3.2.4,MacIntel,60,right,1.032000065,4,0,4,0,1,3,1,0,240,1,1,239,,,,,,,,,,,,,,,,,,
,,1,90,,,,,,,3,2,2,stim/22.jpeg,HouseObjects,1,stim/objects/HouseObjects/towel2.png,0.9,4,0.2,-0.15,left,59,2021-02-22_08h03.52.198,premup-three_ses-01_part-01_label-phase1,3.2.4,MacIntel,60,left,0.61199975,4,0,4,0,1,3,1,0,240,221,1,239,,,,,,,,,,,,,,,,,,
,,0,91,,,,,,,1,4,3,stim/43.jpeg,Instruments,2,stim/objects/Instruments/trombone.png,0.5,3,-0.2,-0.15,right,59,2021-02-22_08h03.52.198,premup-three_ses-01_part-01_label-phase1,3.2.4,MacIntel,60,left,0.963999987,4,0,4,0,1,3,1,0,240,70,1,239,,,,,,,,,,,,,,,,,,
,,1,92,,,,,,,1,4,4,stim/44.jpeg,Instruments,2,stim/objects/Instruments/trumpet.png,0.5,4,0.2,-0.15,right,59,2021-02-22_08h03.52.198,premup-three_ses-01_part-01_label-phase1,3.2.4,MacIntel,60,right,0.734999895,4,0,4,0,1,3,1,0,240,79,1,239,,,,,,,,,,,,,,,,,,
,,1,93,,,,,,,3,1,1,stim/11.jpeg,Instruments,2,stim/objects/Instruments/timbal2.png,0.9,1,-0.2,0.15,right,59,2021-02-22_08h03.52.198,premup-three_ses-01_part-01_label-phase1,3.2.4,MacIntel,60,right,0.622999907,4,0,4,0,1,3,1,0,240,184,1,239,,,,,,,,,,,,,,,,,,
,,1,94,,,,,,,2,5,3,stim/53.jpeg,Instruments,2,stim/objects/Instruments/vuvuzela.png,0.7,1,-0.2,0.15,right,59,2021-02-22_08h03.52.198,premup-three_ses-01_part-01_label-phase1,3.2.4,MacIntel,60,right,1.254999876,4,0,4,0,1,3,1,0,240,110,1,239,,,,,,,,,,,,,,,,,,
,,0,95,,,,,,,3,2,4,stim/24.jpeg,Instruments,2,stim/objects/Instruments/xylophone2.png,0.1,3,-0.2,-0.15,right,59,2021-02-22_08h03.52.198,premup-three_ses-01_part-01_label-phase1,3.2.4,MacIntel,60,left,0.569999933,4,0,4,0,1,3,1,0,240,239,1,239,,,,,,,,,,,,,,,,,,
,,1,96,,,,,,,2,5,4,stim/54.jpeg,Instruments,2,stim/objects/Instruments/xylophone.png,0.7,1,-0.2,0.15,right,59,2021-02-22_08h03.52.198,premup-three_ses-01_part-01_label-phase1,3.2.4,MacIntel,60,right,0.863999844,4,0,4,0,1,3,1,0,240,107,1,239,,,,,,,,,,,,,,,,,,
,,1,97,,,,,,,3,1,2,stim/12.jpeg,Instruments,2,stim/objects/Instruments/triangle2.png,0.9,1,-0.2,0.15,right,59,2021-02-22_08h03.52.198,premup-three_ses-01_part-01_label-phase1,3.2.4,MacIntel,60,right,0.704999924,4,0,4,0,1,3,1,0,240,173,1,239,,,,,,,,,,,,,,,,,,
,,1,98,,,,,,,2,6,2,stim/62.jpeg,HouseObjects,1,stim/objects/HouseObjects/safetypin2.png,0.7,1,-0.2,0.15,left,59,2021-02-22_08h03.52.198,premup-three_ses-01_part-01_label-phase1,3.2.4,MacIntel,60,left,1.062000036,4,0,4,0,1,3,1,0,240,141,1,239,,,,,,,,,,,,,,,,,,
,,0,99,,,,,,,3,2,3,stim/23.jpeg,HouseObjects,1,stim/objects/HouseObjects/vacuumcleaner2.png,0.9,4,0.2,-0.15,left,59,2021-02-22_08h03.52.198,premup-three_ses-01_part-01_label-phase1,3.2.4,MacIntel,60,right,0.530999899,4,0,4,0,1,3,1,0,240,206,1,239,,,,,,,,,,,,,,,,,,
,,1,100,,,,,,,2,6,4,stim/64.jpeg,HouseObjects,1,stim/objects/HouseObjects/scale2.png,0.7,4,0.2,-0.15,left,59,2021-02-22_08h03.52.198,premup-three_ses-01_part-01_label-phase1,3.2.4,MacIntel,60,left,1.097999811,4,0,4,0,1,3,1,0,240,135,1,239,,,,,,,,,,,,,,,,,,
,,0,101,,,,,,,2,5,3,stim/53.jpeg,HouseObjects,1,stim/objects/HouseObjects/vacuumcleaner.png,0.3,3,-0.2,-0.15,left,59,2021-02-22_08h03.52.198,premup-three_ses-01_part-01_label-phase1,3.2.4,MacIntel,60,right,0.773000002,4,0,4,0,1,3,1,0,240,90,1,239,,,,,,,,,,,,,,,,,,
,,0,102,,,,,,,2,6,3,stim/63.jpeg,Instruments,2,stim/objects/Instruments/speaker2.png,0.3,3,-0.2,-0.15,right,59,2021-02-22_08h03.52.198,premup-three_ses-01_part-01_label-phase1,3.2.4,MacIntel,60,left,0.812999964,4,0,4,0,1,3,1,0,240,158,1,239,,,,,,,,,,,,,,,,,,
,,0,103,,,,,,,3,1,3,stim/13.jpeg,Instruments,2,stim/objects/Instruments/trombone2.png,0.9,4,0.2,-0.15,right,59,2021-02-22_08h03.52.198,premup-three_ses-01_part-01_label-phase1,3.2.4,MacIntel,60,left,0.636999846,4,0,4,0,1,3,1,0,240,194,1,239,,,,,,,,,,,,,,,,,,
,,0,104,,,,,,,2,6,4,stim/64.jpeg,HouseObjects,1,stim/objects/HouseObjects/scale2.png,0.7,4,0.2,-0.15,left,59,2021-02-22_08h03.52.198,premup-three_ses-01_part-01_label-phase1,3.2.4,MacIntel,60,right,0.738999844,4,0,4,0,1,3,1,0,240,139,1,239,,,,,,,,,,,,,,,,,,
,,0,105,,,,,,,1,4,1,stim/41.jpeg,HouseObjects,1,stim/objects/HouseObjects/sponge.png,0.5,4,0.2,-0.15,left,59,2021-02-22_08h03.52.198,premup-three_ses-01_part-01_label-phase1,3.2.4,MacIntel,60,right,0.649999857,4,0,4,0,1,3,1,0,240,44,1,239,,,,,,,,,,,,,,,,,,
,,1,106,,,,,,,2,5,4,stim/54.jpeg,Instruments,2,stim/objects/Instruments/xylophone.png,0.7,3,-0.2,-0.15,right,59,2021-02-22_08h03.52.198,premup-three_ses-01_part-01_label-phase1,3.2.4,MacIntel,60,right,0.769999981,4,0,4,0,1,3,1,0,240,103,1,239,,,,,,,,,,,,,,,,,,
,,1,107,,,,,,,1,3,3,stim/33.jpeg,HouseObjects,1,stim/objects/HouseObjects/saw.png,0.5,2,0.2,0.15,left,59,2021-02-22_08h03.52.198,premup-three_ses-01_part-01_label-phase1,3.2.4,MacIntel,60,left,1.062999964,4,0,4,0,1,3,1,0,240,6,1,239,,,,,,,,,,,,,,,,,,
,,1,108,,,,,,,3,1,3,stim/13.jpeg,Instruments,2,stim/objects/Instruments/trombone2.png,0.9,4,0.2,-0.15,right,59,2021-02-22_08h03.52.198,premup-three_ses-01_part-01_label-phase1,3.2.4,MacIntel,60,right,0.586999893,4,0,4,0,1,3,1,0,240,166,1,239,,,,,,,,,,,,,,,,,,
,,1,109,,,,,,,2,6,1,stim/61.jpeg,HouseObjects,1,stim/objects/HouseObjects/rug2.png,0.7,1,-0.2,0.15,left,59,2021-02-22_08h03.52.198,premup-three_ses-01_part-01_label-phase1,3.2.4,MacIntel,60,left,0.79399991,4,0,4,0,1,3,1,0,240,124,1,239,,,,,,,,,,,,,,,,,,
,,1,110,,,,,,,2,5,1,stim/51.jpeg,Instruments,2,stim/objects/Instruments/tuba.png,0.7,1,-0.2,0.15,right,59,2021-02-22_08h03.52.198,premup-three_ses-01_part-01_label-phase1,3.2.4,MacIntel,60,right,0.805000067,4,0,4,0,1,3,1,0,240,100,1,239,,,,,,,,,,,,,,,,,,
,,0,111,,,,,,,1,4,1,stim/41.jpeg,Instruments,2,stim/objects/Instruments/timbal.png,0.5,2,0.2,0.15,right,59,2021-02-22_08h03.52.198,premup-three_ses-01_part-01_label-phase1,3.2.4,MacIntel,60,left,1.066999912,4,0,4,0,1,3,1,0,240,64,1,239,,,,,,,,,,,,,,,,,,
,,0,112,,,,,,,1,3,2,stim/32.jpeg,Instruments,2,stim/objects/Instruments/saxophone.png,0.5,4,0.2,-0.15,right,59,2021-02-22_08h03.52.198,premup-three_ses-01_part-01_label-phase1,3.2.4,MacIntel,60,left,1.088999987,4,0,4,0,1,3,1,0,240,29,1,239,,,,,,,,,,,,,,,,,,
,,1,113,,,,,,,3,2,2,stim/22.jpeg,HouseObjects,1,stim/objects/HouseObjects/towel2.png,0.9,2,0.2,0.15,left,59,2021-02-22_08h03.52.198,premup-three_ses-01_part-01_label-phase1,3.2.4,MacIntel,60,left,0.582000017,4,0,4,0,1,3,1,0,240,217,1,239,,,,,,,,,,,,,,,,,,
,,0,114,,,,,,,2,5,3,stim/53.jpeg,Instruments,2,stim/objects/Instruments/vuvuzela.png,0.7,4,0.2,-0.15,right,59,2021-02-22_08h03.52.198,premup-three_ses-01_part-01_label-phase1,3.2.4,MacIntel,60,left,1.279000044,4,0,4,0,1,3,1,0,240,118,1,239,,,,,,,,,,,,,,,,,,
,,1,115,,,,,,,2,6,1,stim/61.jpeg,HouseObjects,1,stim/objects/HouseObjects/rug2.png,0.7,1,-0.2,0.15,left,59,2021-02-22_08h03.52.198,premup-three_ses-01_part-01_label-phase1,3.2.4,MacIntel,60,left,0.832999945,4,0,4,0,1,3,1,0,240,140,1,239,,,,,,,,,,,,,,,,,,
,,1,116,,,,,,,2,5,3,stim/53.jpeg,Instruments,2,stim/objects/Instruments/vuvuzela.png,0.7,1,-0.2,0.15,right,59,2021-02-22_08h03.52.198,premup-three_ses-01_part-01_label-phase1,3.2.4,MacIntel,60,right,0.682999849,4,0,4,0,1,3,1,0,240,102,1,239,,,,,,,,,,,,,,,,,,
,,1,117,,,,,,,2,5,4,stim/54.jpeg,Instruments,2,stim/objects/Instruments/xylophone.png,0.7,4,0.2,-0.15,right,59,2021-02-22_08h03.52.198,premup-three_ses-01_part-01_label-phase1,3.2.4,MacIntel,60,right,0.542999983,4,0,4,0,1,3,1,0,240,111,1,239,,,,,,,,,,,,,,,,,,
,,1,118,,,,,,,3,1,3,stim/13.jpeg,Instruments,2,stim/objects/Instruments/trombone2.png,0.9,2,0.2,0.15,right,59,2021-02-22_08h03.52.198,premup-three_ses-01_part-01_label-phase1,3.2.4,MacIntel,60,right,0.65199995,4,0,4,0,1,3,1,0,240,174,1,239,,,,,,,,,,,,,,,,,,
,,1,119,,,,,,,3,2,1,stim/21.jpeg,HouseObjects,1,stim/objects/HouseObjects/thread2.png,0.9,1,-0.2,0.15,left,59,2021-02-22_08h03.52.198,premup-three_ses-01_part-01_label-phase1,3.2.4,MacIntel,60,left,0.667999983,4,0,4,0,1,3,1,0,240,228,1,239,,,,,,,,,,,,,,,,,,
,,0,120,,,,,,,1,4,4,stim/44.jpeg,HouseObjects,1,stim/objects/HouseObjects/thermometer.png,0.5,2,0.2,0.15,left,59,2021-02-22_08h03.52.198,premup-three_ses-01_part-01_label-phase1,3.2.4,MacIntel,60,right,1.220999956,4,0,4,0,1,3,1,0,240,55,1,239,,,,,,,,,,,,,,,,,,
,,0,121,,,,,,,1,3,2,stim/32.jpeg,Instruments,2,stim/objects/Instruments/saxophone.png,0.5,1,-0.2,0.15,right,59,2021-02-22_08h03.52.198,premup-three_ses-01_part-01_label-phase1,3.2.4,MacIntel,60,left,0.898999929,4,0,4,0,1,3,1,0,240,37,1,239,,,,,,,,,,,,,,,,,,
,,0,122,,,,,,,3,2,4,stim/24.jpeg,HouseObjects,1,stim/objects/HouseObjects/wateringcan2.png,0.9,2,0.2,0.15,left,59,2021-02-22_08h03.52.198,premup-three_ses-01_part-01_label-phase1,3.2.4,MacIntel,60,right,0.563999891,4,0,4,0,1,3,1,0,240,219,1,239,,,,,,,,,,,,,,,,,,
,,1,123,,,,,,,1,4,3,stim/43.jpeg,HouseObjects,1,stim/objects/HouseObjects/teapot.png,0.5,2,0.2,0.15,left,59,2021-02-22_08h03.52.198,premup-three_ses-01_part-01_label-phase1,3.2.4,MacIntel,60,left,0.881999969,4,0,4,0,1,3,1,0,240,46,1,239,,,,,,,,,,,,,,,,,,
,,0,124,,,,,,,1,3,2,stim/32.jpeg,HouseObjects,1,stim/objects/HouseObjects/safetypin.png,0.5,4,0.2,-0.15,left,59,2021-02-22_08h03.52.198,premup-three_ses-01_part-01_label-phase1,3.2.4,MacIntel,60,right,0.875999928,4,0,4,0,1,3,1,0,240,17,1,239,,,,,,,,,,,,,,,,,,
,,1,125,,,,,,,3,2,2,stim/22.jpeg,HouseObjects,1,stim/objects/HouseObjects/towel2.png,0.9,1,-0.2,0.15,left,59,2021-02-22_08h03.52.198,premup-three_ses-01_part-01_label-phase1,3.2.4,MacIntel,60,left,0.480999947,4,0,4,0,1,3,1,0,240,225,1,239,,,,,,,,,,,,,,,,,,
,,0,126,,,,,,,2,6,3,stim/63.jpeg,HouseObjects,1,stim/objects/HouseObjects/saw2.png,0.7,3,-0.2,-0.15,left,59,2021-02-22_08h03.52.198,premup-three_ses-01_part-01_label-phase1,3.2.4,MacIntel,60,right,0.778999805,4,0,4,0,1,3,1,0,240,138,1,239,,,,,,,,,,,,,,,,,,
,,1,127,,,,,,,2,6,4,stim/64.jpeg,HouseObjects,1,stim/objects/HouseObjects/scale2.png,0.7,2,0.2,0.15,left,59,2021-02-22_08h03.52.198,premup-three_ses-01_part-01_label-phase1,3.2.4,MacIntel,60,left,0.649999857,4,0,4,0,1,3,1,0,240,131,1,239,,,,,,,,,,,,,,,,,,
,,1,128,,,,,,,3,2,1,stim/21.jpeg,HouseObjects,1,stim/objects/HouseObjects/thread2.png,0.9,4,0.2,-0.15,left,59,2021-02-22_08h03.52.198,premup-three_ses-01_part-01_label-phase1,3.2.4,MacIntel,60,left,0.494999886,4,0,4,0,1,3,1,0,240,220,1,239,,,,,,,,,,,,,,,,,,
,,1,129,,,,,,,2,5,4,stim/54.jpeg,HouseObjects,1,stim/objects/HouseObjects/wateringcan.png,0.3,2,0.2,0.15,left,59,2021-02-22_08h03.52.198,premup-three_ses-01_part-01_label-phase1,3.2.4,MacIntel,60,left,1.342000008,4,0,4,0,1,3,1,0,240,87,1,239,,,,,,,,,,,,,,,,,,
