key_resp_trial.keys,key_resp_trial.rt,trial_acc,trial_index,iterations.thisRepN,iterations.thisTrialN,iterations.thisN,iterations.thisIndex,iterations.ran,iterations.order,task_innerloop.thisRepN,task_innerloop.thisTrialN,task_innerloop.thisN,task_innerloop.thisIndex,task_innerloop.ran,task_innerloop.order,scn_condition,scn_cat,scn_inst,scn_file,obj_cat,obj_cat_num,obj_file,trial_cond,quadrant,obj_x,obj_y,corr_ans,participant,date,expName,psychopyVersion,OS,frameRate,slider.response,slider.rt,slider_2.response,slider_2.rt,ratings.thisRepN,ratings.thisTrialN,ratings.thisN,ratings.thisIndex,ratings.ran,ratings.order,obj_cat_top,min_resp_top,max_resp_top,obj_cat_bottom,min_resp_bottom,max_resp_bottom,enc_trials.thisRepN,enc_trials.thisTrialN,enc_trials.thisN,enc_trials.thisIndex,enc_trials.ran,enc_trials.order,fillers,ratings_final.thisRepN,ratings_final.thisTrialN,ratings_final.thisN,ratings_final.thisIndex,ratings_final.ran,ratings_final.order
,,0,1,1,0,1,0,1,0,1,0,240,235,1,239,3,6,4,stim/64.jpeg,HouseObjects,1,stim/objects/HouseObjects/clothespin2.png,0.9,1,-0.2,0.15,left,5,2020-12-14_19h05.11.464,premup-three_ses-02_part-02_label-phase2,3.2.4,Win32,60,,,,,,,,,,,,,,,,,,,,,,,,,,,,,
right,0.720999956,0,2,1,0,1,0,1,0,1,0,240,88,1,239,2,3,1,stim/31.jpeg,HouseObjects,1,stim/objects/HouseObjects/bucket.png,0.3,1,-0.2,0.15,left,5,2020-12-14_19h05.11.464,premup-three_ses-02_part-02_label-phase2,3.2.4,Win32,60,,,,,,,,,,,,,,,,,,,,,,,,,,,,,
,,0,3,1,0,1,0,1,0,1,0,240,61,1,239,1,2,2,stim/22.jpeg,Instruments,2,stim/objects/Instruments/bassguitar.png,0.5,1,-0.2,0.15,right,5,2020-12-14_19h05.11.464,premup-three_ses-02_part-02_label-phase2,3.2.4,Win32,60,,,,,,,,,,,,,,,,,,,,,,,,,,,,,
right,0.687999725,1,4,1,0,1,0,1,0,1,0,240,116,1,239,2,3,1,stim/31.jpeg,Instruments,2,stim/objects/Instruments/clarinet.png,0.7,3,-0.2,-0.15,right,5,2020-12-14_19h05.11.464,premup-three_ses-02_part-02_label-phase2,3.2.4,Win32,60,,,,,,,,,,,,,,,,,,,,,,,,,,,,,
right,0.728999853,1,5,1,0,1,0,1,0,1,0,240,101,1,239,2,3,2,stim/32.jpeg,Instruments,2,stim/objects/Instruments/cornet.png,0.7,2,0.2,0.15,right,5,2020-12-14_19h05.11.464,premup-three_ses-02_part-02_label-phase2,3.2.4,Win32,60,,,,,,,,,,,,,,,,,,,,,,,,,,,,,
,,0,6,1,0,1,0,1,0,1,0,240,35,1,239,1,1,4,stim/14.jpeg,Instruments,2,stim/objects/Instruments/banjo.png,0.5,2,0.2,0.15,right,5,2020-12-14_19h05.11.464,premup-three_ses-02_part-02_label-phase2,3.2.4,Win32,60,,,,,,,,,,,,,,,,,,,,,,,,,,,,,
,,0,7,1,0,1,0,1,0,1,0,240,46,1,239,1,2,3,stim/23.jpeg,HouseObjects,1,stim/objects/HouseObjects/bottle.png,0.5,1,-0.2,0.15,left,5,2020-12-14_19h05.11.464,premup-three_ses-02_part-02_label-phase2,3.2.4,Win32,60,,,,,,,,,,,,,,,,,,,,,,,,,,,,,
,,0,8,1,0,1,0,1,0,1,0,240,166,1,239,3,5,3,stim/53.jpeg,Instruments,2,stim/objects/Instruments/cello2.png,0.9,3,-0.2,-0.15,right,5,2020-12-14_19h05.11.464,premup-three_ses-02_part-02_label-phase2,3.2.4,Win32,60,,,,,,,,,,,,,,,,,,,,,,,,,,,,,
right,0.443000078,1,9,1,0,1,0,1,0,1,0,240,25,1,239,1,1,2,stim/12.jpeg,Instruments,2,stim/objects/Instruments/acousticguitar.png,0.5,2,0.2,0.15,right,5,2020-12-14_19h05.11.464,premup-three_ses-02_part-02_label-phase2,3.2.4,Win32,60,,,,,,,,,,,,,,,,,,,,,,,,,,,,,
left,0.711999893,0,10,1,0,1,0,1,0,1,0,240,75,1,239,1,2,4,stim/24.jpeg,Instruments,2,stim/objects/Instruments/chime.png,0.5,1,-0.2,0.15,right,5,2020-12-14_19h05.11.464,premup-three_ses-02_part-02_label-phase2,3.2.4,Win32,60,,,,,,,,,,,,,,,,,,,,,,,,,,,,,
,,0,11,1,0,1,0,1,0,1,0,240,42,1,239,1,2,3,stim/23.jpeg,HouseObjects,1,stim/objects/HouseObjects/bottle.png,0.5,1,-0.2,0.15,left,5,2020-12-14_19h05.11.464,premup-three_ses-02_part-02_label-phase2,3.2.4,Win32,60,,,,,,,,,,,,,,,,,,,,,,,,,,,,,
right,0.605999708,1,12,1,0,1,0,1,0,1,0,240,26,1,239,1,1,3,stim/13.jpeg,Instruments,2,stim/objects/Instruments/balalaika.png,0.5,4,0.2,-0.15,right,5,2020-12-14_19h05.11.464,premup-three_ses-02_part-02_label-phase2,3.2.4,Win32,60,,,,,,,,,,,,,,,,,,,,,,,,,,,,,
right,0.503000021,0,13,1,0,1,0,1,0,1,0,240,12,1,239,1,1,1,stim/11.jpeg,HouseObjects,1,stim/objects/HouseObjects/ashtray.png,0.5,4,0.2,-0.15,left,5,2020-12-14_19h05.11.464,premup-three_ses-02_part-02_label-phase2,3.2.4,Win32,60,,,,,,,,,,,,,,,,,,,,,,,,,,,,,
left,0.730999947,1,14,1,0,1,0,1,0,1,0,240,202,1,239,3,6,3,stim/63.jpeg,HouseObjects,1,stim/objects/HouseObjects/clothesdryingrack2.png,0.9,2,0.2,0.15,left,5,2020-12-14_19h05.11.464,premup-three_ses-02_part-02_label-phase2,3.2.4,Win32,60,,,,,,,,,,,,,,,,,,,,,,,,,,,,,
right,0.644000053,1,15,1,0,1,0,1,0,1,0,240,195,1,239,3,5,4,stim/54.jpeg,Instruments,2,stim/objects/Instruments/chime2.png,0.9,4,0.2,-0.15,right,5,2020-12-14_19h05.11.464,premup-three_ses-02_part-02_label-phase2,3.2.4,Win32,60,,,,,,,,,,,,,,,,,,,,,,,,,,,,,
left,0.707999945,1,16,1,0,1,0,1,0,1,0,240,140,1,239,2,4,1,stim/41.jpeg,HouseObjects,1,stim/objects/HouseObjects/ashtray2.png,0.7,2,0.2,0.15,left,5,2020-12-14_19h05.11.464,premup-three_ses-02_part-02_label-phase2,3.2.4,Win32,60,,,,,,,,,,,,,,,,,,,,,,,,,,,,,
left,0.643999815,0,17,1,0,1,0,1,0,1,0,240,156,1,239,2,4,1,stim/41.jpeg,Instruments,2,stim/objects/Instruments/accordion2.png,0.3,1,-0.2,0.15,right,5,2020-12-14_19h05.11.464,premup-three_ses-02_part-02_label-phase2,3.2.4,Win32,60,,,,,,,,,,,,,,,,,,,,,,,,,,,,,
right,0.635999918,0,18,1,0,1,0,1,0,1,0,240,3,1,239,1,1,4,stim/14.jpeg,HouseObjects,1,stim/objects/HouseObjects/basket.png,0.5,4,0.2,-0.15,left,5,2020-12-14_19h05.11.464,premup-three_ses-02_part-02_label-phase2,3.2.4,Win32,60,,,,,,,,,,,,,,,,,,,,,,,,,,,,,
left,0.678999901,1,19,1,0,1,0,1,0,1,0,240,124,1,239,2,4,1,stim/41.jpeg,HouseObjects,1,stim/objects/HouseObjects/ashtray2.png,0.7,2,0.2,0.15,left,5,2020-12-14_19h05.11.464,premup-three_ses-02_part-02_label-phase2,3.2.4,Win32,60,,,,,,,,,,,,,,,,,,,,,,,,,,,,,
,,0,20,1,0,1,0,1,0,1,0,240,44,1,239,1,2,1,stim/21.jpeg,HouseObjects,1,stim/objects/HouseObjects/bleachbottle.png,0.5,1,-0.2,0.15,left,5,2020-12-14_19h05.11.464,premup-three_ses-02_part-02_label-phase2,3.2.4,Win32,60,,,,,,,,,,,,,,,,,,,,,,,,,,,,,
left,0.661999941,1,21,1,0,1,0,1,0,1,0,240,52,1,239,1,2,1,stim/21.jpeg,HouseObjects,1,stim/objects/HouseObjects/bleachbottle.png,0.5,1,-0.2,0.15,left,5,2020-12-14_19h05.11.464,premup-three_ses-02_part-02_label-phase2,3.2.4,Win32,60,,,,,,,,,,,,,,,,,,,,,,,,,,,,,
left,0.694999933,1,22,1,0,1,0,1,0,1,0,240,144,1,239,2,4,1,stim/41.jpeg,HouseObjects,1,stim/objects/HouseObjects/ashtray2.png,0.7,4,0.2,-0.15,left,5,2020-12-14_19h05.11.464,premup-three_ses-02_part-02_label-phase2,3.2.4,Win32,60,,,,,,,,,,,,,,,,,,,,,,,,,,,,,
right,0.690999985,1,23,1,0,1,0,1,0,1,0,240,183,1,239,3,5,4,stim/54.jpeg,Instruments,2,stim/objects/Instruments/chime2.png,0.9,3,-0.2,-0.15,right,5,2020-12-14_19h05.11.464,premup-three_ses-02_part-02_label-phase2,3.2.4,Win32,60,,,,,,,,,,,,,,,,,,,,,,,,,,,,,
,,0,24,1,0,1,0,1,0,1,0,240,111,1,239,2,3,4,stim/34.jpeg,Instruments,2,stim/objects/Instruments/doublebass.png,0.7,3,-0.2,-0.15,right,5,2020-12-14_19h05.11.464,premup-three_ses-02_part-02_label-phase2,3.2.4,Win32,60,,,,,,,,,,,,,,,,,,,,,,,,,,,,,
right,0.588999987,1,25,1,0,1,0,1,0,1,0,240,62,1,239,1,2,3,stim/23.jpeg,Instruments,2,stim/objects/Instruments/cello.png,0.5,4,0.2,-0.15,right,5,2020-12-14_19h05.11.464,premup-three_ses-02_part-02_label-phase2,3.2.4,Win32,60,,,,,,,,,,,,,,,,,,,,,,,,,,,,,
right,0.704999924,0,26,1,0,1,0,1,0,1,0,240,58,1,239,1,2,3,stim/23.jpeg,HouseObjects,1,stim/objects/HouseObjects/bottle.png,0.5,1,-0.2,0.15,left,5,2020-12-14_19h05.11.464,premup-three_ses-02_part-02_label-phase2,3.2.4,Win32,60,,,,,,,,,,,,,,,,,,,,,,,,,,,,,
right,0.65199995,1,27,1,0,1,0,1,0,1,0,240,103,1,239,2,3,4,stim/34.jpeg,Instruments,2,stim/objects/Instruments/doublebass.png,0.7,3,-0.2,-0.15,right,5,2020-12-14_19h05.11.464,premup-three_ses-02_part-02_label-phase2,3.2.4,Win32,60,,,,,,,,,,,,,,,,,,,,,,,,,,,,,
right,0.539999962,1,28,1,0,1,0,1,0,1,0,240,115,1,239,2,3,4,stim/34.jpeg,Instruments,2,stim/objects/Instruments/doublebass.png,0.7,4,0.2,-0.15,right,5,2020-12-14_19h05.11.464,premup-three_ses-02_part-02_label-phase2,3.2.4,Win32,60,,,,,,,,,,,,,,,,,,,,,,,,,,,,,
left,0.849999905,0,29,1,0,1,0,1,0,1,0,240,36,1,239,1,1,1,stim/11.jpeg,Instruments,2,stim/objects/Instruments/accordion.png,0.5,3,-0.2,-0.15,right,5,2020-12-14_19h05.11.464,premup-three_ses-02_part-02_label-phase2,3.2.4,Win32,60,,,,,,,,,,,,,,,,,,,,,,,,,,,,,
right,0.617000103,1,30,1,0,1,0,1,0,1,0,240,32,1,239,1,1,1,stim/11.jpeg,Instruments,2,stim/objects/Instruments/accordion.png,0.5,2,0.2,0.15,right,5,2020-12-14_19h05.11.464,premup-three_ses-02_part-02_label-phase2,3.2.4,Win32,60,,,,,,,,,,,,,,,,,,,,,,,,,,,,,
right,0.609999895,1,31,1,0,1,0,1,0,1,0,240,167,1,239,3,5,4,stim/54.jpeg,Instruments,2,stim/objects/Instruments/chime2.png,0.9,4,0.2,-0.15,right,5,2020-12-14_19h05.11.464,premup-three_ses-02_part-02_label-phase2,3.2.4,Win32,60,,,,,,,,,,,,,,,,,,,,,,,,,,,,,
left,0.648999929,1,32,1,0,1,0,1,0,1,0,240,234,1,239,3,6,3,stim/63.jpeg,HouseObjects,1,stim/objects/HouseObjects/clothesdryingrack2.png,0.9,4,0.2,-0.15,left,5,2020-12-14_19h05.11.464,premup-three_ses-02_part-02_label-phase2,3.2.4,Win32,60,,,,,,,,,,,,,,,,,,,,,,,,,,,,,
left,0.584000111,0,33,1,0,1,0,1,0,1,0,240,157,1,239,2,4,2,stim/42.jpeg,Instruments,2,stim/objects/Instruments/acousticguitar2.png,0.3,3,-0.2,-0.15,right,5,2020-12-14_19h05.11.464,premup-three_ses-02_part-02_label-phase2,3.2.4,Win32,60,,,,,,,,,,,,,,,,,,,,,,,,,,,,,
right,0.704999924,1,34,1,0,1,0,1,0,1,0,240,193,1,239,3,5,2,stim/52.jpeg,Instruments,2,stim/objects/Instruments/bassguitar2.png,0.9,3,-0.2,-0.15,right,5,2020-12-14_19h05.11.464,premup-three_ses-02_part-02_label-phase2,3.2.4,Win32,60,,,,,,,,,,,,,,,,,,,,,,,,,,,,,
,,0,35,1,0,1,0,1,0,1,0,240,54,1,239,1,2,3,stim/23.jpeg,HouseObjects,1,stim/objects/HouseObjects/bottle.png,0.5,2,0.2,0.15,left,5,2020-12-14_19h05.11.464,premup-three_ses-02_part-02_label-phase2,3.2.4,Win32,60,,,,,,,,,,,,,,,,,,,,,,,,,,,,,
right,0.453999758,0,36,1,0,1,0,1,0,1,0,240,223,1,239,3,6,4,stim/64.jpeg,HouseObjects,1,stim/objects/HouseObjects/clothespin2.png,0.9,2,0.2,0.15,left,5,2020-12-14_19h05.11.464,premup-three_ses-02_part-02_label-phase2,3.2.4,Win32,60,,,,,,,,,,,,,,,,,,,,,,,,,,,,,
right,0.781999826,0,37,1,0,1,0,1,0,1,0,240,7,1,239,1,1,4,stim/14.jpeg,HouseObjects,1,stim/objects/HouseObjects/basket.png,0.5,4,0.2,-0.15,left,5,2020-12-14_19h05.11.464,premup-three_ses-02_part-02_label-phase2,3.2.4,Win32,60,,,,,,,,,,,,,,,,,,,,,,,,,,,,,
left,0.618999958,1,38,1,0,1,0,1,0,1,0,240,233,1,239,3,6,2,stim/62.jpeg,HouseObjects,1,stim/objects/HouseObjects/clock2.png,0.9,1,-0.2,0.15,left,5,2020-12-14_19h05.11.464,premup-three_ses-02_part-02_label-phase2,3.2.4,Win32,60,,,,,,,,,,,,,,,,,,,,,,,,,,,,,
,,0,39,1,0,1,0,1,0,1,0,240,39,1,239,1,1,4,stim/14.jpeg,Instruments,2,stim/objects/Instruments/banjo.png,0.5,3,-0.2,-0.15,right,5,2020-12-14_19h05.11.464,premup-three_ses-02_part-02_label-phase2,3.2.4,Win32,60,,,,,,,,,,,,,,,,,,,,,,,,,,,,,
right,0.654999733,0,40,1,0,1,0,1,0,1,0,240,85,1,239,2,3,2,stim/32.jpeg,HouseObjects,1,stim/objects/HouseObjects/clock.png,0.3,3,-0.2,-0.15,left,5,2020-12-14_19h05.11.464,premup-three_ses-02_part-02_label-phase2,3.2.4,Win32,60,,,,,,,,,,,,,,,,,,,,,,,,,,,,,
right,0.749999762,0,41,1,0,1,0,1,0,1,0,240,17,1,239,1,1,2,stim/12.jpeg,HouseObjects,1,stim/objects/HouseObjects/ballofstring.png,0.5,4,0.2,-0.15,left,5,2020-12-14_19h05.11.464,premup-three_ses-02_part-02_label-phase2,3.2.4,Win32,60,,,,,,,,,,,,,,,,,,,,,,,,,,,,,
right,0.723999977,0,42,1,0,1,0,1,0,1,0,240,57,1,239,1,2,2,stim/22.jpeg,HouseObjects,1,stim/objects/HouseObjects/blender.png,0.5,3,-0.2,-0.15,left,5,2020-12-14_19h05.11.464,premup-three_ses-02_part-02_label-phase2,3.2.4,Win32,60,,,,,,,,,,,,,,,,,,,,,,,,,,,,,
left,0.546999931,0,43,1,0,1,0,1,0,1,0,240,239,1,239,3,6,4,stim/64.jpeg,Instruments,2,stim/objects/Instruments/doublebass2.png,0.1,3,-0.2,-0.15,right,5,2020-12-14_19h05.11.464,premup-three_ses-02_part-02_label-phase2,3.2.4,Win32,60,,,,,,,,,,,,,,,,,,,,,,,,,,,,,
right,0.741999865,0,44,1,0,1,0,1,0,1,0,240,18,1,239,1,1,3,stim/13.jpeg,HouseObjects,1,stim/objects/HouseObjects/barbecuelighter.png,0.5,3,-0.2,-0.15,left,5,2020-12-14_19h05.11.464,premup-three_ses-02_part-02_label-phase2,3.2.4,Win32,60,,,,,,,,,,,,,,,,,,,,,,,,,,,,,
right,0.662999868,1,45,1,0,1,0,1,0,1,0,240,27,1,239,1,1,4,stim/14.jpeg,Instruments,2,stim/objects/Instruments/banjo.png,0.5,1,-0.2,0.15,right,5,2020-12-14_19h05.11.464,premup-three_ses-02_part-02_label-phase2,3.2.4,Win32,60,,,,,,,,,,,,,,,,,,,,,,,,,,,,,
left,0.611000061,1,46,1,0,1,0,1,0,1,0,240,210,1,239,3,6,3,stim/63.jpeg,HouseObjects,1,stim/objects/HouseObjects/clothesdryingrack2.png,0.9,4,0.2,-0.15,left,5,2020-12-14_19h05.11.464,premup-three_ses-02_part-02_label-phase2,3.2.4,Win32,60,,,,,,,,,,,,,,,,,,,,,,,,,,,,,
left,0.505999804,1,47,1,0,1,0,1,0,1,0,240,220,1,239,3,6,1,stim/61.jpeg,HouseObjects,1,stim/objects/HouseObjects/bucket2.png,0.9,3,-0.2,-0.15,left,5,2020-12-14_19h05.11.464,premup-three_ses-02_part-02_label-phase2,3.2.4,Win32,60,,,,,,,,,,,,,,,,,,,,,,,,,,,,,
right,0.697000027,1,48,1,0,1,0,1,0,1,0,240,98,1,239,2,3,3,stim/33.jpeg,Instruments,2,stim/objects/Instruments/cymbal.png,0.7,3,-0.2,-0.15,right,5,2020-12-14_19h05.11.464,premup-three_ses-02_part-02_label-phase2,3.2.4,Win32,60,,,,,,,,,,,,,,,,,,,,,,,,,,,,,
left,0.605999947,1,49,1,0,1,0,1,0,1,0,240,143,1,239,2,4,4,stim/44.jpeg,HouseObjects,1,stim/objects/HouseObjects/basket2.png,0.7,1,-0.2,0.15,left,5,2020-12-14_19h05.11.464,premup-three_ses-02_part-02_label-phase2,3.2.4,Win32,60,,,,,,,,,,,,,,,,,,,,,,,,,,,,,
,,0,50,1,0,1,0,1,0,1,0,240,216,1,239,3,6,1,stim/61.jpeg,HouseObjects,1,stim/objects/HouseObjects/bucket2.png,0.9,1,-0.2,0.15,left,5,2020-12-14_19h05.11.464,premup-three_ses-02_part-02_label-phase2,3.2.4,Win32,60,,,,,,,,,,,,,,,,,,,,,,,,,,,,,
left,0.753999949,1,51,1,0,1,0,1,0,1,0,240,232,1,239,3,6,1,stim/61.jpeg,HouseObjects,1,stim/objects/HouseObjects/bucket2.png,0.9,4,0.2,-0.15,left,5,2020-12-14_19h05.11.464,premup-three_ses-02_part-02_label-phase2,3.2.4,Win32,60,,,,,,,,,,,,,,,,,,,,,,,,,,,,,
left,0.53399992,1,52,1,0,1,0,1,0,1,0,240,203,1,239,3,6,4,stim/64.jpeg,HouseObjects,1,stim/objects/HouseObjects/clothespin2.png,0.9,4,0.2,-0.15,left,5,2020-12-14_19h05.11.464,premup-three_ses-02_part-02_label-phase2,3.2.4,Win32,60,,,,,,,,,,,,,,,,,,,,,,,,,,,,,
right,0.786999941,1,53,1,0,1,0,1,0,1,0,240,117,1,239,2,3,2,stim/32.jpeg,Instruments,2,stim/objects/Instruments/cornet.png,0.7,4,0.2,-0.15,right,5,2020-12-14_19h05.11.464,premup-three_ses-02_part-02_label-phase2,3.2.4,Win32,60,,,,,,,,,,,,,,,,,,,,,,,,,,,,,
,,0,54,1,0,1,0,1,0,1,0,240,47,1,239,1,2,4,stim/24.jpeg,HouseObjects,1,stim/objects/HouseObjects/broom.png,0.5,3,-0.2,-0.15,left,5,2020-12-14_19h05.11.464,premup-three_ses-02_part-02_label-phase2,3.2.4,Win32,60,,,,,,,,,,,,,,,,,,,,,,,,,,,,,
right,0.495999813,0,55,1,0,1,0,1,0,1,0,240,227,1,239,3,6,4,stim/64.jpeg,HouseObjects,1,stim/objects/HouseObjects/clothespin2.png,0.9,4,0.2,-0.15,left,5,2020-12-14_19h05.11.464,premup-three_ses-02_part-02_label-phase2,3.2.4,Win32,60,,,,,,,,,,,,,,,,,,,,,,,,,,,,,
left,0.738999844,1,56,1,0,1,0,1,0,1,0,240,16,1,239,1,1,1,stim/11.jpeg,HouseObjects,1,stim/objects/HouseObjects/ashtray.png,0.5,4,0.2,-0.15,left,5,2020-12-14_19h05.11.464,premup-three_ses-02_part-02_label-phase2,3.2.4,Win32,60,,,,,,,,,,,,,,,,,,,,,,,,,,,,,
left,0.714999914,0,57,1,0,1,0,1,0,1,0,240,28,1,239,1,1,1,stim/11.jpeg,Instruments,2,stim/objects/Instruments/accordion.png,0.5,3,-0.2,-0.15,right,5,2020-12-14_19h05.11.464,premup-three_ses-02_part-02_label-phase2,3.2.4,Win32,60,,,,,,,,,,,,,,,,,,,,,,,,,,,,,
left,0.610999823,1,58,1,0,1,0,1,0,1,0,240,219,1,239,3,6,4,stim/64.jpeg,HouseObjects,1,stim/objects/HouseObjects/clothespin2.png,0.9,3,-0.2,-0.15,left,5,2020-12-14_19h05.11.464,premup-three_ses-02_part-02_label-phase2,3.2.4,Win32,60,,,,,,,,,,,,,,,,,,,,,,,,,,,,,
left,0.872999907,1,59,1,0,1,0,1,0,1,0,240,51,1,239,1,2,4,stim/24.jpeg,HouseObjects,1,stim/objects/HouseObjects/broom.png,0.5,4,0.2,-0.15,left,5,2020-12-14_19h05.11.464,premup-three_ses-02_part-02_label-phase2,3.2.4,Win32,60,,,,,,,,,,,,,,,,,,,,,,,,,,,,,
right,0.628000021,1,60,1,0,1,0,1,0,1,0,240,187,1,239,3,5,4,stim/54.jpeg,Instruments,2,stim/objects/Instruments/chime2.png,0.9,2,0.2,0.15,right,5,2020-12-14_19h05.11.464,premup-three_ses-02_part-02_label-phase2,3.2.4,Win32,60,,,,,,,,,,,,,,,,,,,,,,,,,,,,,
left,0.546000004,0,61,1,0,1,0,1,0,1,0,240,178,1,239,3,5,3,stim/53.jpeg,Instruments,2,stim/objects/Instruments/cello2.png,0.9,2,0.2,0.15,right,5,2020-12-14_19h05.11.464,premup-three_ses-02_part-02_label-phase2,3.2.4,Win32,60,,,,,,,,,,,,,,,,,,,,,,,,,,,,,
right,0.598999977,1,62,1,0,1,0,1,0,1,0,240,164,1,239,3,5,1,stim/51.jpeg,Instruments,2,stim/objects/Instruments/bassdrum2.png,0.9,4,0.2,-0.15,right,5,2020-12-14_19h05.11.464,premup-three_ses-02_part-02_label-phase2,3.2.4,Win32,60,,,,,,,,,,,,,,,,,,,,,,,,,,,,,
,,0,63,1,0,1,0,1,0,1,0,240,33,1,239,1,1,2,stim/12.jpeg,Instruments,2,stim/objects/Instruments/acousticguitar.png,0.5,3,-0.2,-0.15,right,5,2020-12-14_19h05.11.464,premup-three_ses-02_part-02_label-phase2,3.2.4,Win32,60,,,,,,,,,,,,,,,,,,,,,,,,,,,,,
left,0.763000011,1,64,1,0,1,0,1,0,1,0,240,147,1,239,2,4,4,stim/44.jpeg,HouseObjects,1,stim/objects/HouseObjects/basket2.png,0.7,3,-0.2,-0.15,left,5,2020-12-14_19h05.11.464,premup-three_ses-02_part-02_label-phase2,3.2.4,Win32,60,,,,,,,,,,,,,,,,,,,,,,,,,,,,,
right,0.829999924,0,65,1,0,1,0,1,0,1,0,240,9,1,239,1,1,2,stim/12.jpeg,HouseObjects,1,stim/objects/HouseObjects/ballofstring.png,0.5,3,-0.2,-0.15,left,5,2020-12-14_19h05.11.464,premup-three_ses-02_part-02_label-phase2,3.2.4,Win32,60,,,,,,,,,,,,,,,,,,,,,,,,,,,,,
,,0,66,1,0,1,0,1,0,1,0,240,30,1,239,1,1,3,stim/13.jpeg,Instruments,2,stim/objects/Instruments/balalaika.png,0.5,2,0.2,0.15,right,5,2020-12-14_19h05.11.464,premup-three_ses-02_part-02_label-phase2,3.2.4,Win32,60,,,,,,,,,,,,,,,,,,,,,,,,,,,,,
left,0.626999855,1,67,1,0,1,0,1,0,1,0,240,81,1,239,2,3,2,stim/32.jpeg,HouseObjects,1,stim/objects/HouseObjects/clock.png,0.3,2,0.2,0.15,left,5,2020-12-14_19h05.11.464,premup-three_ses-02_part-02_label-phase2,3.2.4,Win32,60,,,,,,,,,,,,,,,,,,,,,,,,,,,,,
left,0.59800005,1,68,1,0,1,0,1,0,1,0,240,135,1,239,2,4,4,stim/44.jpeg,HouseObjects,1,stim/objects/HouseObjects/basket2.png,0.7,4,0.2,-0.15,left,5,2020-12-14_19h05.11.464,premup-three_ses-02_part-02_label-phase2,3.2.4,Win32,60,,,,,,,,,,,,,,,,,,,,,,,,,,,,,
right,0.723999977,1,69,1,0,1,0,1,0,1,0,240,72,1,239,1,2,1,stim/21.jpeg,Instruments,2,stim/objects/Instruments/bassdrum.png,0.5,2,0.2,0.15,right,5,2020-12-14_19h05.11.464,premup-three_ses-02_part-02_label-phase2,3.2.4,Win32,60,,,,,,,,,,,,,,,,,,,,,,,,,,,,,
right,0.799000025,1,70,1,0,1,0,1,0,1,0,240,198,1,239,3,5,3,stim/53.jpeg,Instruments,2,stim/objects/Instruments/cello2.png,0.9,1,-0.2,0.15,right,5,2020-12-14_19h05.11.464,premup-three_ses-02_part-02_label-phase2,3.2.4,Win32,60,,,,,,,,,,,,,,,,,,,,,,,,,,,,,
left,0.495000124,0,71,1,0,1,0,1,0,1,0,240,29,1,239,1,1,2,stim/12.jpeg,Instruments,2,stim/objects/Instruments/acousticguitar.png,0.5,3,-0.2,-0.15,right,5,2020-12-14_19h05.11.464,premup-three_ses-02_part-02_label-phase2,3.2.4,Win32,60,,,,,,,,,,,,,,,,,,,,,,,,,,,,,
,,0,72,1,0,1,0,1,0,1,0,240,70,1,239,1,2,3,stim/23.jpeg,Instruments,2,stim/objects/Instruments/cello.png,0.5,4,0.2,-0.15,right,5,2020-12-14_19h05.11.464,premup-three_ses-02_part-02_label-phase2,3.2.4,Win32,60,,,,,,,,,,,,,,,,,,,,,,,,,,,,,
right,0.546999931,0,73,1,0,1,0,1,0,1,0,240,5,1,239,1,1,2,stim/12.jpeg,HouseObjects,1,stim/objects/HouseObjects/ballofstring.png,0.5,2,0.2,0.15,left,5,2020-12-14_19h05.11.464,premup-three_ses-02_part-02_label-phase2,3.2.4,Win32,60,,,,,,,,,,,,,,,,,,,,,,,,,,,,,
left,0.415999889,0,74,1,0,1,0,1,0,1,0,240,113,1,239,2,3,2,stim/32.jpeg,Instruments,2,stim/objects/Instruments/cornet.png,0.7,3,-0.2,-0.15,right,5,2020-12-14_19h05.11.464,premup-three_ses-02_part-02_label-phase2,3.2.4,Win32,60,,,,,,,,,,,,,,,,,,,,,,,,,,,,,
right,0.674000025,1,75,1,0,1,0,1,0,1,0,240,194,1,239,3,5,3,stim/53.jpeg,Instruments,2,stim/objects/Instruments/cello2.png,0.9,4,0.2,-0.15,right,5,2020-12-14_19h05.11.464,premup-three_ses-02_part-02_label-phase2,3.2.4,Win32,60,,,,,,,,,,,,,,,,,,,,,,,,,,,,,
left,0.768999815,1,76,1,0,1,0,1,0,1,0,240,136,1,239,2,4,1,stim/41.jpeg,HouseObjects,1,stim/objects/HouseObjects/ashtray2.png,0.7,2,0.2,0.15,left,5,2020-12-14_19h05.11.464,premup-three_ses-02_part-02_label-phase2,3.2.4,Win32,60,,,,,,,,,,,,,,,,,,,,,,,,,,,,,
right,0.664999962,1,77,1,0,1,0,1,0,1,0,240,196,1,239,3,5,1,stim/51.jpeg,Instruments,2,stim/objects/Instruments/bassdrum2.png,0.9,3,-0.2,-0.15,right,5,2020-12-14_19h05.11.464,premup-three_ses-02_part-02_label-phase2,3.2.4,Win32,60,,,,,,,,,,,,,,,,,,,,,,,,,,,,,
right,0.660000086,1,78,1,0,1,0,1,0,1,0,240,180,1,239,3,5,1,stim/51.jpeg,Instruments,2,stim/objects/Instruments/bassdrum2.png,0.9,2,0.2,0.15,right,5,2020-12-14_19h05.11.464,premup-three_ses-02_part-02_label-phase2,3.2.4,Win32,60,,,,,,,,,,,,,,,,,,,,,,,,,,,,,
left,0.611000061,1,79,1,0,1,0,1,0,1,0,240,208,1,239,3,6,1,stim/61.jpeg,HouseObjects,1,stim/objects/HouseObjects/bucket2.png,0.9,2,0.2,0.15,left,5,2020-12-14_19h05.11.464,premup-three_ses-02_part-02_label-phase2,3.2.4,Win32,60,,,,,,,,,,,,,,,,,,,,,,,,,,,,,
left,0.555999756,1,80,1,0,1,0,1,0,1,0,240,226,1,239,3,6,3,stim/63.jpeg,HouseObjects,1,stim/objects/HouseObjects/clothesdryingrack2.png,0.9,1,-0.2,0.15,left,5,2020-12-14_19h05.11.464,premup-three_ses-02_part-02_label-phase2,3.2.4,Win32,60,,,,,,,,,,,,,,,,,,,,,,,,,,,,,
right,0.559999943,1,81,1,0,1,0,1,0,1,0,240,174,1,239,3,5,3,stim/53.jpeg,Instruments,2,stim/objects/Instruments/cello2.png,0.9,1,-0.2,0.15,right,5,2020-12-14_19h05.11.464,premup-three_ses-02_part-02_label-phase2,3.2.4,Win32,60,,,,,,,,,,,,,,,,,,,,,,,,,,,,,
right,0.682999849,1,82,1,0,1,0,1,0,1,0,240,185,1,239,3,5,2,stim/52.jpeg,Instruments,2,stim/objects/Instruments/bassguitar2.png,0.9,3,-0.2,-0.15,right,5,2020-12-14_19h05.11.464,premup-three_ses-02_part-02_label-phase2,3.2.4,Win32,60,,,,,,,,,,,,,,,,,,,,,,,,,,,,,
right,0.683000088,0,83,1,0,1,0,1,0,1,0,240,90,1,239,2,3,3,stim/33.jpeg,HouseObjects,1,stim/objects/HouseObjects/clothesdryingrack.png,0.3,3,-0.2,-0.15,left,5,2020-12-14_19h05.11.464,premup-three_ses-02_part-02_label-phase2,3.2.4,Win32,60,,,,,,,,,,,,,,,,,,,,,,,,,,,,,
left,0.594000101,1,84,1,0,1,0,1,0,1,0,240,129,1,239,2,4,2,stim/42.jpeg,HouseObjects,1,stim/objects/HouseObjects/ballofstring2.png,0.7,2,0.2,0.15,left,5,2020-12-14_19h05.11.464,premup-three_ses-02_part-02_label-phase2,3.2.4,Win32,60,,,,,,,,,,,,,,,,,,,,,,,,,,,,,
,,0,85,1,0,1,0,1,0,1,0,240,71,1,239,1,2,4,stim/24.jpeg,Instruments,2,stim/objects/Instruments/chime.png,0.5,1,-0.2,0.15,right,5,2020-12-14_19h05.11.464,premup-three_ses-02_part-02_label-phase2,3.2.4,Win32,60,,,,,,,,,,,,,,,,,,,,,,,,,,,,,
left,0.605999947,1,86,1,0,1,0,1,0,1,0,240,225,1,239,3,6,2,stim/62.jpeg,HouseObjects,1,stim/objects/HouseObjects/clock2.png,0.9,4,0.2,-0.15,left,5,2020-12-14_19h05.11.464,premup-three_ses-02_part-02_label-phase2,3.2.4,Win32,60,,,,,,,,,,,,,,,,,,,,,,,,,,,,,
left,0.768999815,0,87,1,0,1,0,1,0,1,0,240,154,1,239,2,4,3,stim/43.jpeg,Instruments,2,stim/objects/Instruments/balalaika2.png,0.3,1,-0.2,0.15,right,5,2020-12-14_19h05.11.464,premup-three_ses-02_part-02_label-phase2,3.2.4,Win32,60,,,,,,,,,,,,,,,,,,,,,,,,,,,,,
left,0.565999985,0,88,1,0,1,0,1,0,1,0,240,237,1,239,3,6,2,stim/62.jpeg,Instruments,2,stim/objects/Instruments/cornet2.png,0.1,1,-0.2,0.15,right,5,2020-12-14_19h05.11.464,premup-three_ses-02_part-02_label-phase2,3.2.4,Win32,60,,,,,,,,,,,,,,,,,,,,,,,,,,,,,
left,0.71999979,1,89,1,0,1,0,1,0,1,0,240,209,1,239,3,6,2,stim/62.jpeg,HouseObjects,1,stim/objects/HouseObjects/clock2.png,0.9,1,-0.2,0.15,left,5,2020-12-14_19h05.11.464,premup-three_ses-02_part-02_label-phase2,3.2.4,Win32,60,,,,,,,,,,,,,,,,,,,,,,,,,,,,,
right,0.625999928,1,90,1,0,1,0,1,0,1,0,240,197,1,239,3,5,2,stim/52.jpeg,Instruments,2,stim/objects/Instruments/bassguitar2.png,0.9,2,0.2,0.15,right,5,2020-12-14_19h05.11.464,premup-three_ses-02_part-02_label-phase2,3.2.4,Win32,60,,,,,,,,,,,,,,,,,,,,,,,,,,,,,
left,0.648999929,1,91,1,0,1,0,1,0,1,0,240,132,1,239,2,4,1,stim/41.jpeg,HouseObjects,1,stim/objects/HouseObjects/ashtray2.png,0.7,4,0.2,-0.15,left,5,2020-12-14_19h05.11.464,premup-three_ses-02_part-02_label-phase2,3.2.4,Win32,60,,,,,,,,,,,,,,,,,,,,,,,,,,,,,
right,0.820999861,0,92,1,0,1,0,1,0,1,0,240,130,1,239,2,4,3,stim/43.jpeg,HouseObjects,1,stim/objects/HouseObjects/barbecuelighter2.png,0.7,1,-0.2,0.15,left,5,2020-12-14_19h05.11.464,premup-three_ses-02_part-02_label-phase2,3.2.4,Win32,60,,,,,,,,,,,,,,,,,,,,,,,,,,,,,
right,0.616999865,1,93,1,0,1,0,1,0,1,0,240,191,1,239,3,5,4,stim/54.jpeg,Instruments,2,stim/objects/Instruments/chime2.png,0.9,2,0.2,0.15,right,5,2020-12-14_19h05.11.464,premup-three_ses-02_part-02_label-phase2,3.2.4,Win32,60,,,,,,,,,,,,,,,,,,,,,,,,,,,,,
right,0.670000076,0,94,1,0,1,0,1,0,1,0,240,160,1,239,3,5,1,stim/51.jpeg,HouseObjects,1,stim/objects/HouseObjects/bleachbottle2.png,0.1,1,-0.2,0.15,left,5,2020-12-14_19h05.11.464,premup-three_ses-02_part-02_label-phase2,3.2.4,Win32,60,,,,,,,,,,,,,,,,,,,,,,,,,,,,,
left,0.676000118,1,95,1,0,1,0,1,0,1,0,240,11,1,239,1,1,4,stim/14.jpeg,HouseObjects,1,stim/objects/HouseObjects/basket.png,0.5,3,-0.2,-0.15,left,5,2020-12-14_19h05.11.464,premup-three_ses-02_part-02_label-phase2,3.2.4,Win32,60,,,,,,,,,,,,,,,,,,,,,,,,,,,,,
,,0,96,1,0,1,0,1,0,1,0,240,23,1,239,1,1,4,stim/14.jpeg,Instruments,2,stim/objects/Instruments/banjo.png,0.5,1,-0.2,0.15,right,5,2020-12-14_19h05.11.464,premup-three_ses-02_part-02_label-phase2,3.2.4,Win32,60,,,,,,,,,,,,,,,,,,,,,,,,,,,,,
left,0.499000072,1,97,1,0,1,0,1,0,1,0,240,215,1,239,3,6,4,stim/64.jpeg,HouseObjects,1,stim/objects/HouseObjects/clothespin2.png,0.9,1,-0.2,0.15,left,5,2020-12-14_19h05.11.464,premup-three_ses-02_part-02_label-phase2,3.2.4,Win32,60,,,,,,,,,,,,,,,,,,,,,,,,,,,,,
left,0.604000092,0,98,1,0,1,0,1,0,1,0,240,114,1,239,2,3,3,stim/33.jpeg,Instruments,2,stim/objects/Instruments/cymbal.png,0.7,1,-0.2,0.15,right,5,2020-12-14_19h05.11.464,premup-three_ses-02_part-02_label-phase2,3.2.4,Win32,60,,,,,,,,,,,,,,,,,,,,,,,,,,,,,
left,0.666999817,1,99,1,0,1,0,1,0,1,0,240,201,1,239,3,6,2,stim/62.jpeg,HouseObjects,1,stim/objects/HouseObjects/clock2.png,0.9,4,0.2,-0.15,left,5,2020-12-14_19h05.11.464,premup-three_ses-02_part-02_label-phase2,3.2.4,Win32,60,,,,,,,,,,,,,,,,,,,,,,,,,,,,,
right,0.802999973,0,100,1,0,1,0,1,0,1,0,240,41,1,239,1,2,2,stim/22.jpeg,HouseObjects,1,stim/objects/HouseObjects/blender.png,0.5,3,-0.2,-0.15,left,5,2020-12-14_19h05.11.464,premup-three_ses-02_part-02_label-phase2,3.2.4,Win32,60,,,,,,,,,,,,,,,,,,,,,,,,,,,,,
left,0.529999971,1,101,1,0,1,0,1,0,1,0,240,230,1,239,3,6,3,stim/63.jpeg,HouseObjects,1,stim/objects/HouseObjects/clothesdryingrack2.png,0.9,3,-0.2,-0.15,left,5,2020-12-14_19h05.11.464,premup-three_ses-02_part-02_label-phase2,3.2.4,Win32,60,,,,,,,,,,,,,,,,,,,,,,,,,,,,,
,,0,102,1,0,1,0,1,0,1,0,240,152,1,239,2,4,1,stim/41.jpeg,Instruments,2,stim/objects/Instruments/accordion2.png,0.3,3,-0.2,-0.15,right,5,2020-12-14_19h05.11.464,premup-three_ses-02_part-02_label-phase2,3.2.4,Win32,60,,,,,,,,,,,,,,,,,,,,,,,,,,,,,
right,0.599999905,0,103,1,0,1,0,1,0,1,0,240,45,1,239,1,2,2,stim/22.jpeg,HouseObjects,1,stim/objects/HouseObjects/blender.png,0.5,2,0.2,0.15,left,5,2020-12-14_19h05.11.464,premup-three_ses-02_part-02_label-phase2,3.2.4,Win32,60,,,,,,,,,,,,,,,,,,,,,,,,,,,,,
right,0.736999989,1,104,1,0,1,0,1,0,1,0,240,165,1,239,3,5,2,stim/52.jpeg,Instruments,2,stim/objects/Instruments/bassguitar2.png,0.9,4,0.2,-0.15,right,5,2020-12-14_19h05.11.464,premup-three_ses-02_part-02_label-phase2,3.2.4,Win32,60,,,,,,,,,,,,,,,,,,,,,,,,,,,,,
left,0.745999813,0,105,1,0,1,0,1,0,1,0,240,93,1,239,2,3,2,stim/32.jpeg,Instruments,2,stim/objects/Instruments/cornet.png,0.7,1,-0.2,0.15,right,5,2020-12-14_19h05.11.464,premup-three_ses-02_part-02_label-phase2,3.2.4,Win32,60,,,,,,,,,,,,,,,,,,,,,,,,,,,,,
,,0,106,1,0,1,0,1,0,1,0,240,121,1,239,2,4,2,stim/42.jpeg,HouseObjects,1,stim/objects/HouseObjects/ballofstring2.png,0.7,3,-0.2,-0.15,left,5,2020-12-14_19h05.11.464,premup-three_ses-02_part-02_label-phase2,3.2.4,Win32,60,,,,,,,,,,,,,,,,,,,,,,,,,,,,,
left,0.557999849,1,107,1,0,1,0,1,0,1,0,240,218,1,239,3,6,3,stim/63.jpeg,HouseObjects,1,stim/objects/HouseObjects/clothesdryingrack2.png,0.9,2,0.2,0.15,left,5,2020-12-14_19h05.11.464,premup-three_ses-02_part-02_label-phase2,3.2.4,Win32,60,,,,,,,,,,,,,,,,,,,,,,,,,,,,,
left,0.773999929,1,108,1,0,1,0,1,0,1,0,240,146,1,239,2,4,3,stim/43.jpeg,HouseObjects,1,stim/objects/HouseObjects/barbecuelighter2.png,0.7,4,0.2,-0.15,left,5,2020-12-14_19h05.11.464,premup-three_ses-02_part-02_label-phase2,3.2.4,Win32,60,,,,,,,,,,,,,,,,,,,,,,,,,,,,,
right,0.654000044,0,109,1,0,1,0,1,0,1,0,240,162,1,239,3,5,3,stim/53.jpeg,HouseObjects,1,stim/objects/HouseObjects/bottle2.png,0.1,2,0.2,0.15,left,5,2020-12-14_19h05.11.464,premup-three_ses-02_part-02_label-phase2,3.2.4,Win32,60,,,,,,,,,,,,,,,,,,,,,,,,,,,,,
left,0.703000069,0,110,1,0,1,0,1,0,1,0,240,79,1,239,1,2,4,stim/24.jpeg,Instruments,2,stim/objects/Instruments/chime.png,0.5,1,-0.2,0.15,right,5,2020-12-14_19h05.11.464,premup-three_ses-02_part-02_label-phase2,3.2.4,Win32,60,,,,,,,,,,,,,,,,,,,,,,,,,,,,,
left,0.784999847,1,111,1,0,1,0,1,0,1,0,240,2,1,239,1,1,3,stim/13.jpeg,HouseObjects,1,stim/objects/HouseObjects/barbecuelighter.png,0.5,3,-0.2,-0.15,left,5,2020-12-14_19h05.11.464,premup-three_ses-02_part-02_label-phase2,3.2.4,Win32,60,,,,,,,,,,,,,,,,,,,,,,,,,,,,,
,,0,112,1,0,1,0,1,0,1,0,240,68,1,239,1,2,1,stim/21.jpeg,Instruments,2,stim/objects/Instruments/bassdrum.png,0.5,4,0.2,-0.15,right,5,2020-12-14_19h05.11.464,premup-three_ses-02_part-02_label-phase2,3.2.4,Win32,60,,,,,,,,,,,,,,,,,,,,,,,,,,,,,
left,0.725999832,1,113,1,0,1,0,1,0,1,0,240,145,1,239,2,4,2,stim/42.jpeg,HouseObjects,1,stim/objects/HouseObjects/ballofstring2.png,0.7,3,-0.2,-0.15,left,5,2020-12-14_19h05.11.464,premup-three_ses-02_part-02_label-phase2,3.2.4,Win32,60,,,,,,,,,,,,,,,,,,,,,,,,,,,,,
right,0.717999935,0,114,1,0,1,0,1,0,1,0,240,56,1,239,1,2,1,stim/21.jpeg,HouseObjects,1,stim/objects/HouseObjects/bleachbottle.png,0.5,3,-0.2,-0.15,left,5,2020-12-14_19h05.11.464,premup-three_ses-02_part-02_label-phase2,3.2.4,Win32,60,,,,,,,,,,,,,,,,,,,,,,,,,,,,,
left,0.646999836,0,115,1,0,1,0,1,0,1,0,240,102,1,239,2,3,3,stim/33.jpeg,Instruments,2,stim/objects/Instruments/cymbal.png,0.7,3,-0.2,-0.15,right,5,2020-12-14_19h05.11.464,premup-three_ses-02_part-02_label-phase2,3.2.4,Win32,60,,,,,,,,,,,,,,,,,,,,,,,,,,,,,
left,0.667000055,1,116,1,0,1,0,1,0,1,0,240,213,1,239,3,6,2,stim/62.jpeg,HouseObjects,1,stim/objects/HouseObjects/clock2.png,0.9,3,-0.2,-0.15,left,5,2020-12-14_19h05.11.464,premup-three_ses-02_part-02_label-phase2,3.2.4,Win32,60,,,,,,,,,,,,,,,,,,,,,,,,,,,,,
right,0.728999853,1,117,1,0,1,0,1,0,1,0,240,105,1,239,2,3,2,stim/32.jpeg,Instruments,2,stim/objects/Instruments/cornet.png,0.7,1,-0.2,0.15,right,5,2020-12-14_19h05.11.464,premup-three_ses-02_part-02_label-phase2,3.2.4,Win32,60,,,,,,,,,,,,,,,,,,,,,,,,,,,,,
left,0.655999899,1,118,1,0,1,0,1,0,1,0,240,137,1,239,2,4,2,stim/42.jpeg,HouseObjects,1,stim/objects/HouseObjects/ballofstring2.png,0.7,2,0.2,0.15,left,5,2020-12-14_19h05.11.464,premup-three_ses-02_part-02_label-phase2,3.2.4,Win32,60,,,,,,,,,,,,,,,,,,,,,,,,,,,,,
left,0.718999863,1,119,1,0,1,0,1,0,1,0,240,50,1,239,1,2,3,stim/23.jpeg,HouseObjects,1,stim/objects/HouseObjects/bottle.png,0.5,3,-0.2,-0.15,left,5,2020-12-14_19h05.11.464,premup-three_ses-02_part-02_label-phase2,3.2.4,Win32,60,,,,,,,,,,,,,,,,,,,,,,,,,,,,,
left,0.664999962,1,120,1,0,1,0,1,0,1,0,240,122,1,239,2,4,3,stim/43.jpeg,HouseObjects,1,stim/objects/HouseObjects/barbecuelighter2.png,0.7,2,0.2,0.15,left,5,2020-12-14_19h05.11.464,premup-three_ses-02_part-02_label-phase2,3.2.4,Win32,60,,,,,,,,,,,,,,,,,,,,,,,,,,,,,
right,0.63499999,1,121,1,0,1,0,1,0,1,0,240,172,1,239,3,5,1,stim/51.jpeg,Instruments,2,stim/objects/Instruments/bassdrum2.png,0.9,1,-0.2,0.15,right,5,2020-12-14_19h05.11.464,premup-three_ses-02_part-02_label-phase2,3.2.4,Win32,60,,,,,,,,,,,,,,,,,,,,,,,,,,,,,
right,0.819999933,1,122,1,0,1,0,1,0,1,0,240,112,1,239,2,3,1,stim/31.jpeg,Instruments,2,stim/objects/Instruments/clarinet.png,0.7,3,-0.2,-0.15,right,5,2020-12-14_19h05.11.464,premup-three_ses-02_part-02_label-phase2,3.2.4,Win32,60,,,,,,,,,,,,,,,,,,,,,,,,,,,,,
right,0.697999954,1,123,1,0,1,0,1,0,1,0,240,92,1,239,2,3,1,stim/31.jpeg,Instruments,2,stim/objects/Instruments/clarinet.png,0.7,1,-0.2,0.15,right,5,2020-12-14_19h05.11.464,premup-three_ses-02_part-02_label-phase2,3.2.4,Win32,60,,,,,,,,,,,,,,,,,,,,,,,,,,,,,
,,0,124,1,0,1,0,1,0,1,0,240,94,1,239,2,3,3,stim/33.jpeg,Instruments,2,stim/objects/Instruments/cymbal.png,0.7,1,-0.2,0.15,right,5,2020-12-14_19h05.11.464,premup-three_ses-02_part-02_label-phase2,3.2.4,Win32,60,,,,,,,,,,,,,,,,,,,,,,,,,,,,,
right,0.647000074,1,125,1,0,1,0,1,0,1,0,240,99,1,239,2,3,4,stim/34.jpeg,Instruments,2,stim/objects/Instruments/doublebass.png,0.7,4,0.2,-0.15,right,5,2020-12-14_19h05.11.464,premup-three_ses-02_part-02_label-phase2,3.2.4,Win32,60,,,,,,,,,,,,,,,,,,,,,,,,,,,,,
left,0.717000008,1,126,1,0,1,0,1,0,1,0,240,55,1,239,1,2,4,stim/24.jpeg,HouseObjects,1,stim/objects/HouseObjects/broom.png,0.5,4,0.2,-0.15,left,5,2020-12-14_19h05.11.464,premup-three_ses-02_part-02_label-phase2,3.2.4,Win32,60,,,,,,,,,,,,,,,,,,,,,,,,,,,,,
left,0.618000031,0,127,1,0,1,0,1,0,1,0,240,149,1,239,2,4,2,stim/42.jpeg,Instruments,2,stim/objects/Instruments/acousticguitar2.png,0.3,4,0.2,-0.15,right,5,2020-12-14_19h05.11.464,premup-three_ses-02_part-02_label-phase2,3.2.4,Win32,60,,,,,,,,,,,,,,,,,,,,,,,,,,,,,
right,0.858999968,1,128,1,0,1,0,1,0,1,0,240,95,1,239,2,3,4,stim/34.jpeg,Instruments,2,stim/objects/Instruments/doublebass.png,0.7,1,-0.2,0.15,right,5,2020-12-14_19h05.11.464,premup-three_ses-02_part-02_label-phase2,3.2.4,Win32,60,,,,,,,,,,,,,,,,,,,,,,,,,,,,,
left,0.75,1,129,1,0,1,0,1,0,1,0,240,126,1,239,2,4,3,stim/43.jpeg,HouseObjects,1,stim/objects/HouseObjects/barbecuelighter2.png,0.7,2,0.2,0.15,left,5,2020-12-14_19h05.11.464,premup-three_ses-02_part-02_label-phase2,3.2.4,Win32,60,,,,,,,,,,,,,,,,,,,,,,,,,,,,,
left,0.747999907,1,130,1,0,1,0,1,0,1,0,240,134,1,239,2,4,3,stim/43.jpeg,HouseObjects,1,stim/objects/HouseObjects/barbecuelighter2.png,0.7,4,0.2,-0.15,left,5,2020-12-14_19h05.11.464,premup-three_ses-02_part-02_label-phase2,3.2.4,Win32,60,,,,,,,,,,,,,,,,,,,,,,,,,,,,,
right,0.583999872,1,131,1,0,1,0,1,0,1,0,240,97,1,239,2,3,2,stim/32.jpeg,Instruments,2,stim/objects/Instruments/cornet.png,0.7,2,0.2,0.15,right,5,2020-12-14_19h05.11.464,premup-three_ses-02_part-02_label-phase2,3.2.4,Win32,60,,,,,,,,,,,,,,,,,,,,,,,,,,,,,
left,0.872999907,0,132,1,0,1,0,1,0,1,0,240,34,1,239,1,1,3,stim/13.jpeg,Instruments,2,stim/objects/Instruments/balalaika.png,0.5,4,0.2,-0.15,right,5,2020-12-14_19h05.11.464,premup-three_ses-02_part-02_label-phase2,3.2.4,Win32,60,,,,,,,,,,,,,,,,,,,,,,,,,,,,,
left,0.838999987,0,133,1,0,1,0,1,0,1,0,240,236,1,239,3,6,1,stim/61.jpeg,Instruments,2,stim/objects/Instruments/clarinet2.png,0.1,4,0.2,-0.15,right,5,2020-12-14_19h05.11.464,premup-three_ses-02_part-02_label-phase2,3.2.4,Win32,60,,,,,,,,,,,,,,,,,,,,,,,,,,,,,
left,0.825999975,1,134,1,0,1,0,1,0,1,0,240,86,1,239,2,3,3,stim/33.jpeg,HouseObjects,1,stim/objects/HouseObjects/clothesdryingrack.png,0.3,1,-0.2,0.15,left,5,2020-12-14_19h05.11.464,premup-three_ses-02_part-02_label-phase2,3.2.4,Win32,60,,,,,,,,,,,,,,,,,,,,,,,,,,,,,
,,0,135,1,0,1,0,1,0,1,0,240,214,1,239,3,6,3,stim/63.jpeg,HouseObjects,1,stim/objects/HouseObjects/clothesdryingrack2.png,0.9,4,0.2,-0.15,left,5,2020-12-14_19h05.11.464,premup-three_ses-02_part-02_label-phase2,3.2.4,Win32,60,,,,,,,,,,,,,,,,,,,,,,,,,,,,,
left,0.598999977,1,136,1,0,1,0,1,0,1,0,240,217,1,239,3,6,2,stim/62.jpeg,HouseObjects,1,stim/objects/HouseObjects/clock2.png,0.9,4,0.2,-0.15,left,5,2020-12-14_19h05.11.464,premup-three_ses-02_part-02_label-phase2,3.2.4,Win32,60,,,,,,,,,,,,,,,,,,,,,,,,,,,,,
right,0.829999924,0,137,1,0,1,0,1,0,1,0,240,163,1,239,3,5,4,stim/54.jpeg,HouseObjects,1,stim/objects/HouseObjects/broom2.png,0.1,4,0.2,-0.15,left,5,2020-12-14_19h05.11.464,premup-three_ses-02_part-02_label-phase2,3.2.4,Win32,60,,,,,,,,,,,,,,,,,,,,,,,,,,,,,
,,0,138,1,0,1,0,1,0,1,0,240,37,1,239,1,1,2,stim/12.jpeg,Instruments,2,stim/objects/Instruments/acousticguitar.png,0.5,4,0.2,-0.15,right,5,2020-12-14_19h05.11.464,premup-three_ses-02_part-02_label-phase2,3.2.4,Win32,60,,,,,,,,,,,,,,,,,,,,,,,,,,,,,
left,0.421000004,0,139,1,0,1,0,1,0,1,0,240,153,1,239,2,4,2,stim/42.jpeg,Instruments,2,stim/objects/Instruments/acousticguitar2.png,0.3,2,0.2,0.15,right,5,2020-12-14_19h05.11.464,premup-three_ses-02_part-02_label-phase2,3.2.4,Win32,60,,,,,,,,,,,,,,,,,,,,,,,,,,,,,
left,0.676999807,1,140,1,0,1,0,1,0,1,0,240,200,1,239,3,6,1,stim/61.jpeg,HouseObjects,1,stim/objects/HouseObjects/bucket2.png,0.9,2,0.2,0.15,left,5,2020-12-14_19h05.11.464,premup-three_ses-02_part-02_label-phase2,3.2.4,Win32,60,,,,,,,,,,,,,,,,,,,,,,,,,,,,,
left,0.596999884,1,141,1,0,1,0,1,0,1,0,240,82,1,239,2,3,3,stim/33.jpeg,HouseObjects,1,stim/objects/HouseObjects/clothesdryingrack.png,0.3,4,0.2,-0.15,left,5,2020-12-14_19h05.11.464,premup-three_ses-02_part-02_label-phase2,3.2.4,Win32,60,,,,,,,,,,,,,,,,,,,,,,,,,,,,,
left,0.684999943,1,142,1,0,1,0,1,0,1,0,240,206,1,239,3,6,3,stim/63.jpeg,HouseObjects,1,stim/objects/HouseObjects/clothesdryingrack2.png,0.9,2,0.2,0.15,left,5,2020-12-14_19h05.11.464,premup-three_ses-02_part-02_label-phase2,3.2.4,Win32,60,,,,,,,,,,,,,,,,,,,,,,,,,,,,,
left,0.722999811,1,143,1,0,1,0,1,0,1,0,240,221,1,239,3,6,2,stim/62.jpeg,HouseObjects,1,stim/objects/HouseObjects/clock2.png,0.9,2,0.2,0.15,left,5,2020-12-14_19h05.11.464,premup-three_ses-02_part-02_label-phase2,3.2.4,Win32,60,,,,,,,,,,,,,,,,,,,,,,,,,,,,,
right,0.5849998,1,144,1,0,1,0,1,0,1,0,240,175,1,239,3,5,4,stim/54.jpeg,Instruments,2,stim/objects/Instruments/chime2.png,0.9,1,-0.2,0.15,right,5,2020-12-14_19h05.11.464,premup-three_ses-02_part-02_label-phase2,3.2.4,Win32,60,,,,,,,,,,,,,,,,,,,,,,,,,,,,,
,,0,145,1,0,1,0,1,0,1,0,240,0,1,239,1,1,1,stim/11.jpeg,HouseObjects,1,stim/objects/HouseObjects/ashtray.png,0.5,2,0.2,0.15,left,5,2020-12-14_19h05.11.464,premup-three_ses-02_part-02_label-phase2,3.2.4,Win32,60,,,,,,,,,,,,,,,,,,,,,,,,,,,,,
left,0.519000053,0,146,1,0,1,0,1,0,1,0,240,170,1,239,3,5,3,stim/53.jpeg,Instruments,2,stim/objects/Instruments/cello2.png,0.9,2,0.2,0.15,right,5,2020-12-14_19h05.11.464,premup-three_ses-02_part-02_label-phase2,3.2.4,Win32,60,,,,,,,,,,,,,,,,,,,,,,,,,,,,,
right,0.677999735,1,147,1,0,1,0,1,0,1,0,240,179,1,239,3,5,4,stim/54.jpeg,Instruments,2,stim/objects/Instruments/chime2.png,0.9,4,0.2,-0.15,right,5,2020-12-14_19h05.11.464,premup-three_ses-02_part-02_label-phase2,3.2.4,Win32,60,,,,,,,,,,,,,,,,,,,,,,,,,,,,,
left,0.757999897,0,148,1,0,1,0,1,0,1,0,240,151,1,239,2,4,4,stim/44.jpeg,Instruments,2,stim/objects/Instruments/banjo2.png,0.3,1,-0.2,0.15,right,5,2020-12-14_19h05.11.464,premup-three_ses-02_part-02_label-phase2,3.2.4,Win32,60,,,,,,,,,,,,,,,,,,,,,,,,,,,,,
left,0.832999945,1,149,1,0,1,0,1,0,1,0,240,228,1,239,3,6,1,stim/61.jpeg,HouseObjects,1,stim/objects/HouseObjects/bucket2.png,0.9,3,-0.2,-0.15,left,5,2020-12-14_19h05.11.464,premup-three_ses-02_part-02_label-phase2,3.2.4,Win32,60,,,,,,,,,,,,,,,,,,,,,,,,,,,,,
right,0.676999807,1,150,1,0,1,0,1,0,1,0,240,184,1,239,3,5,1,stim/51.jpeg,Instruments,2,stim/objects/Instruments/bassdrum2.png,0.9,1,-0.2,0.15,right,5,2020-12-14_19h05.11.464,premup-three_ses-02_part-02_label-phase2,3.2.4,Win32,60,,,,,,,,,,,,,,,,,,,,,,,,,,,,,
left,0.667999983,0,151,1,0,1,0,1,0,1,0,240,22,1,239,1,1,3,stim/13.jpeg,Instruments,2,stim/objects/Instruments/balalaika.png,0.5,2,0.2,0.15,right,5,2020-12-14_19h05.11.464,premup-three_ses-02_part-02_label-phase2,3.2.4,Win32,60,,,,,,,,,,,,,,,,,,,,,,,,,,,,,
left,0.734999895,0,152,1,0,1,0,1,0,1,0,240,159,1,239,2,4,4,stim/44.jpeg,Instruments,2,stim/objects/Instruments/banjo2.png,0.3,4,0.2,-0.15,right,5,2020-12-14_19h05.11.464,premup-three_ses-02_part-02_label-phase2,3.2.4,Win32,60,,,,,,,,,,,,,,,,,,,,,,,,,,,,,
,,0,153,1,0,1,0,1,0,1,0,240,10,1,239,1,1,3,stim/13.jpeg,HouseObjects,1,stim/objects/HouseObjects/barbecuelighter.png,0.5,4,0.2,-0.15,left,5,2020-12-14_19h05.11.464,premup-three_ses-02_part-02_label-phase2,3.2.4,Win32,60,,,,,,,,,,,,,,,,,,,,,,,,,,,,,
right,0.74000001,1,154,1,0,1,0,1,0,1,0,240,20,1,239,1,1,1,stim/11.jpeg,Instruments,2,stim/objects/Instruments/accordion.png,0.5,3,-0.2,-0.15,right,5,2020-12-14_19h05.11.464,premup-three_ses-02_part-02_label-phase2,3.2.4,Win32,60,,,,,,,,,,,,,,,,,,,,,,,,,,,,,
left,0.494999886,0,155,1,0,1,0,1,0,1,0,240,100,1,239,2,3,1,stim/31.jpeg,Instruments,2,stim/objects/Instruments/clarinet.png,0.7,1,-0.2,0.15,right,5,2020-12-14_19h05.11.464,premup-three_ses-02_part-02_label-phase2,3.2.4,Win32,60,,,,,,,,,,,,,,,,,,,,,,,,,,,,,
,,0,156,1,0,1,0,1,0,1,0,240,64,1,239,1,2,1,stim/21.jpeg,Instruments,2,stim/objects/Instruments/bassdrum.png,0.5,1,-0.2,0.15,right,5,2020-12-14_19h05.11.464,premup-three_ses-02_part-02_label-phase2,3.2.4,Win32,60,,,,,,,,,,,,,,,,,,,,,,,,,,,,,
right,0.578000069,1,157,1,0,1,0,1,0,1,0,240,24,1,239,1,1,1,stim/11.jpeg,Instruments,2,stim/objects/Instruments/accordion.png,0.5,4,0.2,-0.15,right,5,2020-12-14_19h05.11.464,premup-three_ses-02_part-02_label-phase2,3.2.4,Win32,60,,,,,,,,,,,,,,,,,,,,,,,,,,,,,
right,0.682999849,1,158,1,0,1,0,1,0,1,0,240,192,1,239,3,5,1,stim/51.jpeg,Instruments,2,stim/objects/Instruments/bassdrum2.png,0.9,3,-0.2,-0.15,right,5,2020-12-14_19h05.11.464,premup-three_ses-02_part-02_label-phase2,3.2.4,Win32,60,,,,,,,,,,,,,,,,,,,,,,,,,,,,,
left,0.664000034,1,159,1,0,1,0,1,0,1,0,240,222,1,239,3,6,3,stim/63.jpeg,HouseObjects,1,stim/objects/HouseObjects/clothesdryingrack2.png,0.9,4,0.2,-0.15,left,5,2020-12-14_19h05.11.464,premup-three_ses-02_part-02_label-phase2,3.2.4,Win32,60,,,,,,,,,,,,,,,,,,,,,,,,,,,,,
,,0,160,1,0,1,0,1,0,1,0,240,119,1,239,2,3,4,stim/34.jpeg,Instruments,2,stim/objects/Instruments/doublebass.png,0.7,4,0.2,-0.15,right,5,2020-12-14_19h05.11.464,premup-three_ses-02_part-02_label-phase2,3.2.4,Win32,60,,,,,,,,,,,,,,,,,,,,,,,,,,,,,
left,0.601999998,1,161,1,0,1,0,1,0,1,0,240,43,1,239,1,2,4,stim/24.jpeg,HouseObjects,1,stim/objects/HouseObjects/broom.png,0.5,4,0.2,-0.15,left,5,2020-12-14_19h05.11.464,premup-three_ses-02_part-02_label-phase2,3.2.4,Win32,60,,,,,,,,,,,,,,,,,,,,,,,,,,,,,
right,0.552000046,1,162,1,0,1,0,1,0,1,0,240,173,1,239,3,5,2,stim/52.jpeg,Instruments,2,stim/objects/Instruments/bassguitar2.png,0.9,1,-0.2,0.15,right,5,2020-12-14_19h05.11.464,premup-three_ses-02_part-02_label-phase2,3.2.4,Win32,60,,,,,,,,,,,,,,,,,,,,,,,,,,,,,
left,0.559000015,0,163,1,0,1,0,1,0,1,0,240,65,1,239,1,2,2,stim/22.jpeg,Instruments,2,stim/objects/Instruments/bassguitar.png,0.5,1,-0.2,0.15,right,5,2020-12-14_19h05.11.464,premup-three_ses-02_part-02_label-phase2,3.2.4,Win32,60,,,,,,,,,,,,,,,,,,,,,,,,,,,,,
right,0.575999975,1,164,1,0,1,0,1,0,1,0,240,177,1,239,3,5,2,stim/52.jpeg,Instruments,2,stim/objects/Instruments/bassguitar2.png,0.9,3,-0.2,-0.15,right,5,2020-12-14_19h05.11.464,premup-three_ses-02_part-02_label-phase2,3.2.4,Win32,60,,,,,,,,,,,,,,,,,,,,,,,,,,,,,
left,0.650000095,1,165,1,0,1,0,1,0,1,0,240,205,1,239,3,6,2,stim/62.jpeg,HouseObjects,1,stim/objects/HouseObjects/clock2.png,0.9,3,-0.2,-0.15,left,5,2020-12-14_19h05.11.464,premup-three_ses-02_part-02_label-phase2,3.2.4,Win32,60,,,,,,,,,,,,,,,,,,,,,,,,,,,,,
right,0.711999893,0,166,1,0,1,0,1,0,1,0,240,40,1,239,1,2,1,stim/21.jpeg,HouseObjects,1,stim/objects/HouseObjects/bleachbottle.png,0.5,1,-0.2,0.15,left,5,2020-12-14_19h05.11.464,premup-three_ses-02_part-02_label-phase2,3.2.4,Win32,60,,,,,,,,,,,,,,,,,,,,,,,,,,,,,
,,0,167,1,0,1,0,1,0,1,0,240,123,1,239,2,4,4,stim/44.jpeg,HouseObjects,1,stim/objects/HouseObjects/basket2.png,0.7,1,-0.2,0.15,left,5,2020-12-14_19h05.11.464,premup-three_ses-02_part-02_label-phase2,3.2.4,Win32,60,,,,,,,,,,,,,,,,,,,,,,,,,,,,,
,,0,168,1,0,1,0,1,0,1,0,240,141,1,239,2,4,2,stim/42.jpeg,HouseObjects,1,stim/objects/HouseObjects/ballofstring2.png,0.7,4,0.2,-0.15,left,5,2020-12-14_19h05.11.464,premup-three_ses-02_part-02_label-phase2,3.2.4,Win32,60,,,,,,,,,,,,,,,,,,,,,,,,,,,,,
left,0.422999859,0,169,1,0,1,0,1,0,1,0,240,189,1,239,3,5,2,stim/52.jpeg,Instruments,2,stim/objects/Instruments/bassguitar2.png,0.9,1,-0.2,0.15,right,5,2020-12-14_19h05.11.464,premup-three_ses-02_part-02_label-phase2,3.2.4,Win32,60,,,,,,,,,,,,,,,,,,,,,,,,,,,,,
,,0,170,1,0,1,0,1,0,1,0,240,1,1,239,1,1,2,stim/12.jpeg,HouseObjects,1,stim/objects/HouseObjects/ballofstring.png,0.5,2,0.2,0.15,left,5,2020-12-14_19h05.11.464,premup-three_ses-02_part-02_label-phase2,3.2.4,Win32,60,,,,,,,,,,,,,,,,,,,,,,,,,,,,,
left,0.439999819,0,171,1,0,1,0,1,0,1,0,240,73,1,239,1,2,2,stim/22.jpeg,Instruments,2,stim/objects/Instruments/bassguitar.png,0.5,2,0.2,0.15,right,5,2020-12-14_19h05.11.464,premup-three_ses-02_part-02_label-phase2,3.2.4,Win32,60,,,,,,,,,,,,,,,,,,,,,,,,,,,,,
left,0.776000023,0,172,1,0,1,0,1,0,1,0,240,69,1,239,1,2,2,stim/22.jpeg,Instruments,2,stim/objects/Instruments/bassguitar.png,0.5,1,-0.2,0.15,right,5,2020-12-14_19h05.11.464,premup-three_ses-02_part-02_label-phase2,3.2.4,Win32,60,,,,,,,,,,,,,,,,,,,,,,,,,,,,,
,,0,173,1,0,1,0,1,0,1,0,240,60,1,239,1,2,1,stim/21.jpeg,Instruments,2,stim/objects/Instruments/bassdrum.png,0.5,2,0.2,0.15,right,5,2020-12-14_19h05.11.464,premup-three_ses-02_part-02_label-phase2,3.2.4,Win32,60,,,,,,,,,,,,,,,,,,,,,,,,,,,,,
left,0.553999901,1,174,1,0,1,0,1,0,1,0,240,224,1,239,3,6,1,stim/61.jpeg,HouseObjects,1,stim/objects/HouseObjects/bucket2.png,0.9,2,0.2,0.15,left,5,2020-12-14_19h05.11.464,premup-three_ses-02_part-02_label-phase2,3.2.4,Win32,60,,,,,,,,,,,,,,,,,,,,,,,,,,,,,
right,0.576999903,1,175,1,0,1,0,1,0,1,0,240,186,1,239,3,5,3,stim/53.jpeg,Instruments,2,stim/objects/Instruments/cello2.png,0.9,2,0.2,0.15,right,5,2020-12-14_19h05.11.464,premup-three_ses-02_part-02_label-phase2,3.2.4,Win32,60,,,,,,,,,,,,,,,,,,,,,,,,,,,,,
left,0.463999987,1,176,1,0,1,0,1,0,1,0,240,14,1,239,1,1,3,stim/13.jpeg,HouseObjects,1,stim/objects/HouseObjects/barbecuelighter.png,0.5,1,-0.2,0.15,left,5,2020-12-14_19h05.11.464,premup-three_ses-02_part-02_label-phase2,3.2.4,Win32,60,,,,,,,,,,,,,,,,,,,,,,,,,,,,,
left,0.620000124,0,177,1,0,1,0,1,0,1,0,240,238,1,239,3,6,3,stim/63.jpeg,Instruments,2,stim/objects/Instruments/cymbal2.png,0.1,4,0.2,-0.15,right,5,2020-12-14_19h05.11.464,premup-three_ses-02_part-02_label-phase2,3.2.4,Win32,60,,,,,,,,,,,,,,,,,,,,,,,,,,,,,
right,0.637999773,1,178,1,0,1,0,1,0,1,0,240,168,1,239,3,5,1,stim/51.jpeg,Instruments,2,stim/objects/Instruments/bassdrum2.png,0.9,1,-0.2,0.15,right,5,2020-12-14_19h05.11.464,premup-three_ses-02_part-02_label-phase2,3.2.4,Win32,60,,,,,,,,,,,,,,,,,,,,,,,,,,,,,
right,0.815999985,1,179,1,0,1,0,1,0,1,0,240,76,1,239,1,2,1,stim/21.jpeg,Instruments,2,stim/objects/Instruments/bassdrum.png,0.5,1,-0.2,0.15,right,5,2020-12-14_19h05.11.464,premup-three_ses-02_part-02_label-phase2,3.2.4,Win32,60,,,,,,,,,,,,,,,,,,,,,,,,,,,,,
,,0,180,1,0,1,0,1,0,1,0,240,161,1,239,3,5,2,stim/52.jpeg,HouseObjects,1,stim/objects/HouseObjects/blender2.png,0.1,3,-0.2,-0.15,left,5,2020-12-14_19h05.11.464,premup-three_ses-02_part-02_label-phase2,3.2.4,Win32,60,,,,,,,,,,,,,,,,,,,,,,,,,,,,,
right,0.622999907,1,181,1,0,1,0,1,0,1,0,240,188,1,239,3,5,1,stim/51.jpeg,Instruments,2,stim/objects/Instruments/bassdrum2.png,0.9,1,-0.2,0.15,right,5,2020-12-14_19h05.11.464,premup-three_ses-02_part-02_label-phase2,3.2.4,Win32,60,,,,,,,,,,,,,,,,,,,,,,,,,,,,,
left,0.697000027,1,182,1,0,1,0,1,0,1,0,240,229,1,239,3,6,2,stim/62.jpeg,HouseObjects,1,stim/objects/HouseObjects/clock2.png,0.9,3,-0.2,-0.15,left,5,2020-12-14_19h05.11.464,premup-three_ses-02_part-02_label-phase2,3.2.4,Win32,60,,,,,,,,,,,,,,,,,,,,,,,,,,,,,
right,0.755999804,1,183,1,0,1,0,1,0,1,0,240,169,1,239,3,5,2,stim/52.jpeg,Instruments,2,stim/objects/Instruments/bassguitar2.png,0.9,3,-0.2,-0.15,right,5,2020-12-14_19h05.11.464,premup-three_ses-02_part-02_label-phase2,3.2.4,Win32,60,,,,,,,,,,,,,,,,,,,,,,,,,,,,,
left,0.776000023,1,184,1,0,1,0,1,0,1,0,240,13,1,239,1,1,2,stim/12.jpeg,HouseObjects,1,stim/objects/HouseObjects/ballofstring.png,0.5,1,-0.2,0.15,left,5,2020-12-14_19h05.11.464,premup-three_ses-02_part-02_label-phase2,3.2.4,Win32,60,,,,,,,,,,,,,,,,,,,,,,,,,,,,,
,,0,185,1,0,1,0,1,0,1,0,240,49,1,239,1,2,2,stim/22.jpeg,HouseObjects,1,stim/objects/HouseObjects/blender.png,0.5,2,0.2,0.15,left,5,2020-12-14_19h05.11.464,premup-three_ses-02_part-02_label-phase2,3.2.4,Win32,60,,,,,,,,,,,,,,,,,,,,,,,,,,,,,
left,0.697000027,1,186,1,0,1,0,1,0,1,0,240,127,1,239,2,4,4,stim/44.jpeg,HouseObjects,1,stim/objects/HouseObjects/basket2.png,0.7,3,-0.2,-0.15,left,5,2020-12-14_19h05.11.464,premup-three_ses-02_part-02_label-phase2,3.2.4,Win32,60,,,,,,,,,,,,,,,,,,,,,,,,,,,,,
right,0.855000019,0,187,1,0,1,0,1,0,1,0,240,142,1,239,2,4,3,stim/43.jpeg,HouseObjects,1,stim/objects/HouseObjects/barbecuelighter2.png,0.7,4,0.2,-0.15,left,5,2020-12-14_19h05.11.464,premup-three_ses-02_part-02_label-phase2,3.2.4,Win32,60,,,,,,,,,,,,,,,,,,,,,,,,,,,,,
right,0.657999992,1,188,1,0,1,0,1,0,1,0,240,190,1,239,3,5,3,stim/53.jpeg,Instruments,2,stim/objects/Instruments/cello2.png,0.9,1,-0.2,0.15,right,5,2020-12-14_19h05.11.464,premup-three_ses-02_part-02_label-phase2,3.2.4,Win32,60,,,,,,,,,,,,,,,,,,,,,,,,,,,,,
,,0,189,1,0,1,0,1,0,1,0,240,89,1,239,2,3,2,stim/32.jpeg,HouseObjects,1,stim/objects/HouseObjects/clock.png,0.3,4,0.2,-0.15,left,5,2020-12-14_19h05.11.464,premup-three_ses-02_part-02_label-phase2,3.2.4,Win32,60,,,,,,,,,,,,,,,,,,,,,,,,,,,,,
,,0,190,1,0,1,0,1,0,1,0,240,199,1,239,3,5,4,stim/54.jpeg,Instruments,2,stim/objects/Instruments/chime2.png,0.9,3,-0.2,-0.15,right,5,2020-12-14_19h05.11.464,premup-three_ses-02_part-02_label-phase2,3.2.4,Win32,60,,,,,,,,,,,,,,,,,,,,,,,,,,,,,
left,0.796999931,1,191,1,0,1,0,1,0,1,0,240,133,1,239,2,4,2,stim/42.jpeg,HouseObjects,1,stim/objects/HouseObjects/ballofstring2.png,0.7,2,0.2,0.15,left,5,2020-12-14_19h05.11.464,premup-three_ses-02_part-02_label-phase2,3.2.4,Win32,60,,,,,,,,,,,,,,,,,,,,,,,,,,,,,
,,0,192,1,0,1,0,1,0,1,0,240,78,1,239,1,2,3,stim/23.jpeg,Instruments,2,stim/objects/Instruments/cello.png,0.5,2,0.2,0.15,right,5,2020-12-14_19h05.11.464,premup-three_ses-02_part-02_label-phase2,3.2.4,Win32,60,,,,,,,,,,,,,,,,,,,,,,,,,,,,,
left,0.579999924,1,193,1,0,1,0,1,0,1,0,240,212,1,239,3,6,1,stim/61.jpeg,HouseObjects,1,stim/objects/HouseObjects/bucket2.png,0.9,2,0.2,0.15,left,5,2020-12-14_19h05.11.464,premup-three_ses-02_part-02_label-phase2,3.2.4,Win32,60,,,,,,,,,,,,,,,,,,,,,,,,,,,,,
left,0.647999763,0,194,1,0,1,0,1,0,1,0,240,148,1,239,2,4,1,stim/41.jpeg,Instruments,2,stim/objects/Instruments/accordion2.png,0.3,2,0.2,0.15,right,5,2020-12-14_19h05.11.464,premup-three_ses-02_part-02_label-phase2,3.2.4,Win32,60,,,,,,,,,,,,,,,,,,,,,,,,,,,,,
,,0,195,1,0,1,0,1,0,1,0,240,63,1,239,1,2,4,stim/24.jpeg,Instruments,2,stim/objects/Instruments/chime.png,0.5,4,0.2,-0.15,right,5,2020-12-14_19h05.11.464,premup-three_ses-02_part-02_label-phase2,3.2.4,Win32,60,,,,,,,,,,,,,,,,,,,,,,,,,,,,,
left,0.381000042,0,196,1,0,1,0,1,0,1,0,240,96,1,239,2,3,1,stim/31.jpeg,Instruments,2,stim/objects/Instruments/clarinet.png,0.7,4,0.2,-0.15,right,5,2020-12-14_19h05.11.464,premup-three_ses-02_part-02_label-phase2,3.2.4,Win32,60,,,,,,,,,,,,,,,,,,,,,,,,,,,,,
right,0.513000011,0,197,1,0,1,0,1,0,1,0,240,125,1,239,2,4,2,stim/42.jpeg,HouseObjects,1,stim/objects/HouseObjects/ballofstring2.png,0.7,4,0.2,-0.15,left,5,2020-12-14_19h05.11.464,premup-three_ses-02_part-02_label-phase2,3.2.4,Win32,60,,,,,,,,,,,,,,,,,,,,,,,,,,,,,
left,0.605999947,1,198,1,0,1,0,1,0,1,0,240,211,1,239,3,6,4,stim/64.jpeg,HouseObjects,1,stim/objects/HouseObjects/clothespin2.png,0.9,3,-0.2,-0.15,left,5,2020-12-14_19h05.11.464,premup-three_ses-02_part-02_label-phase2,3.2.4,Win32,60,,,,,,,,,,,,,,,,,,,,,,,,,,,,,
left,0.730000019,1,199,1,0,1,0,1,0,1,0,240,48,1,239,1,2,1,stim/21.jpeg,HouseObjects,1,stim/objects/HouseObjects/bleachbottle.png,0.5,4,0.2,-0.15,left,5,2020-12-14_19h05.11.464,premup-three_ses-02_part-02_label-phase2,3.2.4,Win32,60,,,,,,,,,,,,,,,,,,,,,,,,,,,,,
,,0,200,1,0,1,0,1,0,1,0,240,171,1,239,3,5,4,stim/54.jpeg,Instruments,2,stim/objects/Instruments/chime2.png,0.9,2,0.2,0.15,right,5,2020-12-14_19h05.11.464,premup-three_ses-02_part-02_label-phase2,3.2.4,Win32,60,,,,,,,,,,,,,,,,,,,,,,,,,,,,,
left,0.506999969,1,201,1,0,1,0,1,0,1,0,240,231,1,239,3,6,4,stim/64.jpeg,HouseObjects,1,stim/objects/HouseObjects/clothespin2.png,0.9,3,-0.2,-0.15,left,5,2020-12-14_19h05.11.464,premup-three_ses-02_part-02_label-phase2,3.2.4,Win32,60,,,,,,,,,,,,,,,,,,,,,,,,,,,,,
left,0.527999878,1,202,1,0,1,0,1,0,1,0,240,131,1,239,2,4,4,stim/44.jpeg,HouseObjects,1,stim/objects/HouseObjects/basket2.png,0.7,3,-0.2,-0.15,left,5,2020-12-14_19h05.11.464,premup-three_ses-02_part-02_label-phase2,3.2.4,Win32,60,,,,,,,,,,,,,,,,,,,,,,,,,,,,,
left,0.818000078,1,203,1,0,1,0,1,0,1,0,240,19,1,239,1,1,4,stim/14.jpeg,HouseObjects,1,stim/objects/HouseObjects/basket.png,0.5,2,0.2,0.15,left,5,2020-12-14_19h05.11.464,premup-three_ses-02_part-02_label-phase2,3.2.4,Win32,60,,,,,,,,,,,,,,,,,,,,,,,,,,,,,
right,0.839999914,1,204,1,0,1,0,1,0,1,0,240,181,1,239,3,5,2,stim/52.jpeg,Instruments,2,stim/objects/Instruments/bassguitar2.png,0.9,1,-0.2,0.15,right,5,2020-12-14_19h05.11.464,premup-three_ses-02_part-02_label-phase2,3.2.4,Win32,60,,,,,,,,,,,,,,,,,,,,,,,,,,,,,
left,0.565999985,0,205,1,0,1,0,1,0,1,0,240,77,1,239,1,2,2,stim/22.jpeg,Instruments,2,stim/objects/Instruments/bassguitar.png,0.5,1,-0.2,0.15,right,5,2020-12-14_19h05.11.464,premup-three_ses-02_part-02_label-phase2,3.2.4,Win32,60,,,,,,,,,,,,,,,,,,,,,,,,,,,,,
,,0,206,1,0,1,0,1,0,1,0,240,8,1,239,1,1,1,stim/11.jpeg,HouseObjects,1,stim/objects/HouseObjects/ashtray.png,0.5,2,0.2,0.15,left,5,2020-12-14_19h05.11.464,premup-three_ses-02_part-02_label-phase2,3.2.4,Win32,60,,,,,,,,,,,,,,,,,,,,,,,,,,,,,
right,0.746000051,1,207,1,0,1,0,1,0,1,0,240,158,1,239,2,4,3,stim/43.jpeg,Instruments,2,stim/objects/Instruments/balalaika2.png,0.3,2,0.2,0.15,right,5,2020-12-14_19h05.11.464,premup-three_ses-02_part-02_label-phase2,3.2.4,Win32,60,,,,,,,,,,,,,,,,,,,,,,,,,,,,,
right,0.602999926,1,208,1,0,1,0,1,0,1,0,240,182,1,239,3,5,3,stim/53.jpeg,Instruments,2,stim/objects/Instruments/cello2.png,0.9,2,0.2,0.15,right,5,2020-12-14_19h05.11.464,premup-three_ses-02_part-02_label-phase2,3.2.4,Win32,60,,,,,,,,,,,,,,,,,,,,,,,,,,,,,
left,0.305000067,1,209,1,0,1,0,1,0,1,0,240,53,1,239,1,2,2,stim/22.jpeg,HouseObjects,1,stim/objects/HouseObjects/blender.png,0.5,4,0.2,-0.15,left,5,2020-12-14_19h05.11.464,premup-three_ses-02_part-02_label-phase2,3.2.4,Win32,60,,,,,,,,,,,,,,,,,,,,,,,,,,,,,
left,0.735999823,1,210,1,0,1,0,1,0,1,0,240,120,1,239,2,4,1,stim/41.jpeg,HouseObjects,1,stim/objects/HouseObjects/ashtray2.png,0.7,2,0.2,0.15,left,5,2020-12-14_19h05.11.464,premup-three_ses-02_part-02_label-phase2,3.2.4,Win32,60,,,,,,,,,,,,,,,,,,,,,,,,,,,,,
right,0.781000137,0,211,1,0,1,0,1,0,1,0,240,4,1,239,1,1,1,stim/11.jpeg,HouseObjects,1,stim/objects/HouseObjects/ashtray.png,0.5,2,0.2,0.15,left,5,2020-12-14_19h05.11.464,premup-three_ses-02_part-02_label-phase2,3.2.4,Win32,60,,,,,,,,,,,,,,,,,,,,,,,,,,,,,
left,0.506999969,0,212,1,0,1,0,1,0,1,0,240,110,1,239,2,3,3,stim/33.jpeg,Instruments,2,stim/objects/Instruments/cymbal.png,0.7,2,0.2,0.15,right,5,2020-12-14_19h05.11.464,premup-three_ses-02_part-02_label-phase2,3.2.4,Win32,60,,,,,,,,,,,,,,,,,,,,,,,,,,,,,
right,0.776000023,0,213,1,0,1,0,1,0,1,0,240,15,1,239,1,1,4,stim/14.jpeg,HouseObjects,1,stim/objects/HouseObjects/basket.png,0.5,3,-0.2,-0.15,left,5,2020-12-14_19h05.11.464,premup-three_ses-02_part-02_label-phase2,3.2.4,Win32,60,,,,,,,,,,,,,,,,,,,,,,,,,,,,,
right,0.747999907,0,214,1,0,1,0,1,0,1,0,240,91,1,239,2,3,4,stim/34.jpeg,HouseObjects,1,stim/objects/HouseObjects/clothespin.png,0.3,4,0.2,-0.15,left,5,2020-12-14_19h05.11.464,premup-three_ses-02_part-02_label-phase2,3.2.4,Win32,60,,,,,,,,,,,,,,,,,,,,,,,,,,,,,
right,0.836999893,0,215,1,0,1,0,1,0,1,0,240,59,1,239,1,2,4,stim/24.jpeg,HouseObjects,1,stim/objects/HouseObjects/broom.png,0.5,2,0.2,0.15,left,5,2020-12-14_19h05.11.464,premup-three_ses-02_part-02_label-phase2,3.2.4,Win32,60,,,,,,,,,,,,,,,,,,,,,,,,,,,,,
left,0.692000151,0,216,1,0,1,0,1,0,1,0,240,150,1,239,2,4,3,stim/43.jpeg,Instruments,2,stim/objects/Instruments/balalaika2.png,0.3,3,-0.2,-0.15,right,5,2020-12-14_19h05.11.464,premup-three_ses-02_part-02_label-phase2,3.2.4,Win32,60,,,,,,,,,,,,,,,,,,,,,,,,,,,,,
,,0,217,1,0,1,0,1,0,1,0,240,38,1,239,1,1,3,stim/13.jpeg,Instruments,2,stim/objects/Instruments/balalaika.png,0.5,3,-0.2,-0.15,right,5,2020-12-14_19h05.11.464,premup-three_ses-02_part-02_label-phase2,3.2.4,Win32,60,,,,,,,,,,,,,,,,,,,,,,,,,,,,,
,,0,218,1,0,1,0,1,0,1,0,240,66,1,239,1,2,3,stim/23.jpeg,Instruments,2,stim/objects/Instruments/cello.png,0.5,3,-0.2,-0.15,right,5,2020-12-14_19h05.11.464,premup-three_ses-02_part-02_label-phase2,3.2.4,Win32,60,,,,,,,,,,,,,,,,,,,,,,,,,,,,,
left,0.580999851,1,219,1,0,1,0,1,0,1,0,240,207,1,239,3,6,4,stim/64.jpeg,HouseObjects,1,stim/objects/HouseObjects/clothespin2.png,0.9,1,-0.2,0.15,left,5,2020-12-14_19h05.11.464,premup-three_ses-02_part-02_label-phase2,3.2.4,Win32,60,,,,,,,,,,,,,,,,,,,,,,,,,,,,,
left,0.61199975,1,220,1,0,1,0,1,0,1,0,240,138,1,239,2,4,3,stim/43.jpeg,HouseObjects,1,stim/objects/HouseObjects/barbecuelighter2.png,0.7,2,0.2,0.15,left,5,2020-12-14_19h05.11.464,premup-three_ses-02_part-02_label-phase2,3.2.4,Win32,60,,,,,,,,,,,,,,,,,,,,,,,,,,,,,
left,0.866999865,0,221,1,0,1,0,1,0,1,0,240,109,1,239,2,3,2,stim/32.jpeg,Instruments,2,stim/objects/Instruments/cornet.png,0.7,1,-0.2,0.15,right,5,2020-12-14_19h05.11.464,premup-three_ses-02_part-02_label-phase2,3.2.4,Win32,60,,,,,,,,,,,,,,,,,,,,,,,,,,,,,
,,0,222,1,0,1,0,1,0,1,0,240,108,1,239,2,3,1,stim/31.jpeg,Instruments,2,stim/objects/Instruments/clarinet.png,0.7,4,0.2,-0.15,right,5,2020-12-14_19h05.11.464,premup-three_ses-02_part-02_label-phase2,3.2.4,Win32,60,,,,,,,,,,,,,,,,,,,,,,,,,,,,,
right,0.730000019,0,223,1,0,1,0,1,0,1,0,240,80,1,239,2,3,1,stim/31.jpeg,HouseObjects,1,stim/objects/HouseObjects/bucket.png,0.3,3,-0.2,-0.15,left,5,2020-12-14_19h05.11.464,premup-three_ses-02_part-02_label-phase2,3.2.4,Win32,60,,,,,,,,,,,,,,,,,,,,,,,,,,,,,
left,0.681999922,0,224,1,0,1,0,1,0,1,0,240,155,1,239,2,4,4,stim/44.jpeg,Instruments,2,stim/objects/Instruments/banjo2.png,0.3,3,-0.2,-0.15,right,5,2020-12-14_19h05.11.464,premup-three_ses-02_part-02_label-phase2,3.2.4,Win32,60,,,,,,,,,,,,,,,,,,,,,,,,,,,,,
right,0.611000061,1,225,1,0,1,0,1,0,1,0,240,118,1,239,2,3,3,stim/33.jpeg,Instruments,2,stim/objects/Instruments/cymbal.png,0.7,1,-0.2,0.15,right,5,2020-12-14_19h05.11.464,premup-three_ses-02_part-02_label-phase2,3.2.4,Win32,60,,,,,,,,,,,,,,,,,,,,,,,,,,,,,
,,0,226,1,0,1,0,1,0,1,0,240,107,1,239,2,3,4,stim/34.jpeg,Instruments,2,stim/objects/Instruments/doublebass.png,0.7,3,-0.2,-0.15,right,5,2020-12-14_19h05.11.464,premup-three_ses-02_part-02_label-phase2,3.2.4,Win32,60,,,,,,,,,,,,,,,,,,,,,,,,,,,,,
left,0.746000051,1,227,1,0,1,0,1,0,1,0,240,6,1,239,1,1,3,stim/13.jpeg,HouseObjects,1,stim/objects/HouseObjects/barbecuelighter.png,0.5,1,-0.2,0.15,left,5,2020-12-14_19h05.11.464,premup-three_ses-02_part-02_label-phase2,3.2.4,Win32,60,,,,,,,,,,,,,,,,,,,,,,,,,,,,,
left,0.616999865,1,228,1,0,1,0,1,0,1,0,240,204,1,239,3,6,1,stim/61.jpeg,HouseObjects,1,stim/objects/HouseObjects/bucket2.png,0.9,2,0.2,0.15,left,5,2020-12-14_19h05.11.464,premup-three_ses-02_part-02_label-phase2,3.2.4,Win32,60,,,,,,,,,,,,,,,,,,,,,,,,,,,,,
right,0.779999971,0,229,1,0,1,0,1,0,1,0,240,84,1,239,2,3,1,stim/31.jpeg,HouseObjects,1,stim/objects/HouseObjects/bucket.png,0.3,2,0.2,0.15,left,5,2020-12-14_19h05.11.464,premup-three_ses-02_part-02_label-phase2,3.2.4,Win32,60,,,,,,,,,,,,,,,,,,,,,,,,,,,,,
right,0.635999918,1,230,1,0,1,0,1,0,1,0,240,104,1,239,2,3,1,stim/31.jpeg,Instruments,2,stim/objects/Instruments/clarinet.png,0.7,1,-0.2,0.15,right,5,2020-12-14_19h05.11.464,premup-three_ses-02_part-02_label-phase2,3.2.4,Win32,60,,,,,,,,,,,,,,,,,,,,,,,,,,,,,
right,0.690999985,0,231,1,0,1,0,1,0,1,0,240,83,1,239,2,3,4,stim/34.jpeg,HouseObjects,1,stim/objects/HouseObjects/clothespin.png,0.3,1,-0.2,0.15,left,5,2020-12-14_19h05.11.464,premup-three_ses-02_part-02_label-phase2,3.2.4,Win32,60,,,,,,,,,,,,,,,,,,,,,,,,,,,,,
,,0,232,1,0,1,0,1,0,1,0,240,74,1,239,1,2,3,stim/23.jpeg,Instruments,2,stim/objects/Instruments/cello.png,0.5,4,0.2,-0.15,right,5,2020-12-14_19h05.11.464,premup-three_ses-02_part-02_label-phase2,3.2.4,Win32,60,,,,,,,,,,,,,,,,,,,,,,,,,,,,,
right,0.686000109,0,233,1,0,1,0,1,0,1,0,240,87,1,239,2,3,4,stim/34.jpeg,HouseObjects,1,stim/objects/HouseObjects/clothespin.png,0.3,1,-0.2,0.15,left,5,2020-12-14_19h05.11.464,premup-three_ses-02_part-02_label-phase2,3.2.4,Win32,60,,,,,,,,,,,,,,,,,,,,,,,,,,,,,
right,0.645999908,1,234,1,0,1,0,1,0,1,0,240,106,1,239,2,3,3,stim/33.jpeg,Instruments,2,stim/objects/Instruments/cymbal.png,0.7,2,0.2,0.15,right,5,2020-12-14_19h05.11.464,premup-three_ses-02_part-02_label-phase2,3.2.4,Win32,60,,,,,,,,,,,,,,,,,,,,,,,,,,,,,
,,0,235,1,0,1,0,1,0,1,0,240,67,1,239,1,2,4,stim/24.jpeg,Instruments,2,stim/objects/Instruments/chime.png,0.5,3,-0.2,-0.15,right,5,2020-12-14_19h05.11.464,premup-three_ses-02_part-02_label-phase2,3.2.4,Win32,60,,,,,,,,,,,,,,,,,,,,,,,,,,,,,
right,0.485999823,1,236,1,0,1,0,1,0,1,0,240,21,1,239,1,1,2,stim/12.jpeg,Instruments,2,stim/objects/Instruments/acousticguitar.png,0.5,2,0.2,0.15,right,5,2020-12-14_19h05.11.464,premup-three_ses-02_part-02_label-phase2,3.2.4,Win32,60,,,,,,,,,,,,,,,,,,,,,,,,,,,,,
left,0.649999857,1,237,1,0,1,0,1,0,1,0,240,139,1,239,2,4,4,stim/44.jpeg,HouseObjects,1,stim/objects/HouseObjects/basket2.png,0.7,2,0.2,0.15,left,5,2020-12-14_19h05.11.464,premup-three_ses-02_part-02_label-phase2,3.2.4,Win32,60,,,,,,,,,,,,,,,,,,,,,,,,,,,,,
right,0.686000109,1,238,1,0,1,0,1,0,1,0,240,31,1,239,1,1,4,stim/14.jpeg,Instruments,2,stim/objects/Instruments/banjo.png,0.5,3,-0.2,-0.15,right,5,2020-12-14_19h05.11.464,premup-three_ses-02_part-02_label-phase2,3.2.4,Win32,60,,,,,,,,,,,,,,,,,,,,,,,,,,,,,
right,0.667999983,1,239,1,0,1,0,1,0,1,0,240,176,1,239,3,5,1,stim/51.jpeg,Instruments,2,stim/objects/Instruments/bassdrum2.png,0.9,4,0.2,-0.15,right,5,2020-12-14_19h05.11.464,premup-three_ses-02_part-02_label-phase2,3.2.4,Win32,60,,,,,,,,,,,,,,,,,,,,,,,,,,,,,
,,0,240,1,0,1,0,1,0,1,0,240,128,1,239,2,4,1,stim/41.jpeg,HouseObjects,1,stim/objects/HouseObjects/ashtray2.png,0.7,4,0.2,-0.15,left,5,2020-12-14_19h05.11.464,premup-three_ses-02_part-02_label-phase2,3.2.4,Win32,60,,,,,,,,,,,,,,,,,,,,,,,,,,,,,
,,,,1,0,1,0,1,0,,,,,,,,4,,stim/41.jpeg,,,,,,,,,5,2020-12-14_19h05.11.464,premup-three_ses-02_part-02_label-phase2,3.2.4,Win32,60,30,23.704,,,1,0,6,3,1,5,Household items,65,75,Music items,25,35,,,,,,,,,,,,,
,,,,1,0,1,0,1,0,,,,,,,,5,,stim/51.jpeg,,,,,,,,,5,2020-12-14_19h05.11.464,premup-three_ses-02_part-02_label-phase2,3.2.4,Win32,60,95,7.243000031,,,1,0,6,4,1,5,Music items,5,15,Household items,85,95,,,,,,,,,,,,,
,,,,1,0,1,0,1,0,,,,,,,,1,,stim/11.jpeg,,,,,,,,,5,2020-12-14_19h05.11.464,premup-three_ses-02_part-02_label-phase2,3.2.4,Win32,60,60,5.898000002,,,1,0,6,0,1,5,Household items,45,55,Music items,45,55,,,,,,,,,,,,,
,,,,1,0,1,0,1,0,,,,,,,,3,,stim/31.jpeg,,,,,,,,,5,2020-12-14_19h05.11.464,premup-three_ses-02_part-02_label-phase2,3.2.4,Win32,60,10,5.390000105,,,1,0,6,2,1,5,Household items,65,75,Music items,25,35,,,,,,,,,,,,,
,,,,1,0,1,0,1,0,,,,,,,,2,,stim/21.jpeg,,,,,,,,,5,2020-12-14_19h05.11.464,premup-three_ses-02_part-02_label-phase2,3.2.4,Win32,60,41,4.996999979,,,1,0,6,1,1,5,Music items,45,55,Household items,45,55,,,,,,,,,,,,,
,,,,1,0,1,0,1,0,,,,,,,,6,,stim/61.jpeg,,,,,,,,,5,2020-12-14_19h05.11.464,premup-three_ses-02_part-02_label-phase2,3.2.4,Win32,60,75,5.062999964,,,1,0,6,5,1,5,Household items,5,15,Music items,85,95,,,,,,,,,,,,,
,,,,1,0,1,0,1,0,,,,,,,,,,,,,,,,,,,5,2020-12-14_19h05.11.464,premup-three_ses-02_part-02_label-phase2,3.2.4,Win32,60,,,,,,,,,,,,,,,,,,,,,,,,,,,,,
,,0,241,,,,,,,,,,,,,2,4,4,stim/44.jpeg,Instruments,2,stim/objects/Instruments/grandpiano2.png,0.3,4,0.2,-0.15,right,5,2020-12-14_19h05.11.464,premup-three_ses-02_part-02_label-phase2,3.2.4,Win32,60,,,,,,,,,,,,,,,,,1,0,330,122,1,329,1,,,,,,
,,0,242,,,,,,,,,,,,,1,1,2,stim/12.jpeg,HouseObjects,1,stim/objects/HouseObjects/cushion.png,0.5,4,0.2,-0.15,left,5,2020-12-14_19h05.11.464,premup-three_ses-02_part-02_label-phase2,3.2.4,Win32,60,,,,,,,,,,,,,,,,,1,0,330,1,1,329,2,,,,,,
left,0.517999887,0,243,,,,,,,,,,,,,2,3,3,stim/33.jpeg,Instruments,2,stim/objects/Instruments/maraca.png,0.7,4,0.2,-0.15,right,5,2020-12-14_19h05.11.464,premup-three_ses-02_part-02_label-phase2,3.2.4,Win32,60,,,,,,,,,,,,,,,,,1,0,330,74,1,329,2,,,,,,
right,0.733999729,1,244,,,,,,,,,,,,,2,3,3,stim/33.jpeg,Instruments,2,stim/objects/Instruments/keyboard.png,0.7,4,0.2,-0.15,right,5,2020-12-14_19h05.11.464,premup-three_ses-02_part-02_label-phase2,3.2.4,Win32,60,,,,,,,,,,,,,,,,,1,0,330,82,1,329,2,,,,,,
right,0.704999924,1,245,,,,,,,,,,,,,2,3,1,stim/31.jpeg,Instruments,2,stim/objects/Instruments/harp.png,0.7,3,-0.2,-0.15,right,5,2020-12-14_19h05.11.464,premup-three_ses-02_part-02_label-phase2,3.2.4,Win32,60,,,,,,,,,,,,,,,,,1,0,330,80,1,329,2,,,,,,
left,0.721999884,0,246,,,,,,,,,,,,,2,4,2,stim/42.jpeg,Instruments,2,stim/objects/Instruments/frenchhorn2.png,0.3,1,-0.2,0.15,right,5,2020-12-14_19h05.11.464,premup-three_ses-02_part-02_label-phase2,3.2.4,Win32,60,,,,,,,,,,,,,,,,,1,0,330,120,1,329,1,,,,,,
right,0.539999962,1,247,,,,,,,,,,,,,3,5,1,stim/51.jpeg,Instruments,2,stim/objects/Instruments/musicsheet.png,0.9,4,0.2,-0.15,right,5,2020-12-14_19h05.11.464,premup-three_ses-02_part-02_label-phase2,3.2.4,Win32,60,,,,,,,,,,,,,,,,,1,0,330,162,1,329,2,,,,,,
right,0.597999811,1,248,,,,,,,,,,,,,3,5,3,stim/53.jpeg,Instruments,2,stim/objects/Instruments/musicstand.png,0.9,2,0.2,0.15,right,5,2020-12-14_19h05.11.464,premup-three_ses-02_part-02_label-phase2,3.2.4,Win32,60,,,,,,,,,,,,,,,,,1,0,330,208,1,329,2,,,,,,
left,0.666999817,1,249,,,,,,,,,,,,,3,6,2,stim/62.jpeg,HouseObjects,1,stim/objects/HouseObjects/lintroller.png,0.9,3,-0.2,-0.15,left,5,2020-12-14_19h05.11.464,premup-three_ses-02_part-02_label-phase2,3.2.4,Win32,60,,,,,,,,,,,,,,,,,1,0,330,231,1,329,2,,,,,,
right,0.754999876,1,250,,,,,,,,,,,,,1,2,2,stim/22.jpeg,Instruments,2,stim/objects/Instruments/timbal.png,0.5,2,0.2,0.15,right,5,2020-12-14_19h05.11.464,premup-three_ses-02_part-02_label-phase2,3.2.4,Win32,60,,,,,,,,,,,,,,,,,1,0,330,57,1,329,1,,,,,,
,,0,251,,,,,,,,,,,,,3,5,2,stim/52.jpeg,Instruments,2,stim/objects/Instruments/oboe.png,0.9,4,0.2,-0.15,right,5,2020-12-14_19h05.11.464,premup-three_ses-02_part-02_label-phase2,3.2.4,Win32,60,,,,,,,,,,,,,,,,,1,0,330,199,1,329,2,,,,,,
right,0.536999941,1,252,,,,,,,,,,,,,3,5,3,stim/53.jpeg,Instruments,2,stim/objects/Instruments/musicstand.png,0.9,3,-0.2,-0.15,right,5,2020-12-14_19h05.11.464,premup-three_ses-02_part-02_label-phase2,3.2.4,Win32,60,,,,,,,,,,,,,,,,,1,0,330,168,1,329,2,,,,,,
left,0.256999969,1,253,,,,,,,,,,,,,3,6,4,stim/64.jpeg,HouseObjects,1,stim/objects/HouseObjects/pitcher.png,0.9,3,-0.2,-0.15,left,5,2020-12-14_19h05.11.464,premup-three_ses-02_part-02_label-phase2,3.2.4,Win32,60,,,,,,,,,,,,,,,,,1,0,330,269,1,329,2,,,,,,
right,0.518999815,1,254,,,,,,,,,,,,,3,5,2,stim/52.jpeg,Instruments,2,stim/objects/Instruments/oboe.png,0.9,2,0.2,0.15,right,5,2020-12-14_19h05.11.464,premup-three_ses-02_part-02_label-phase2,3.2.4,Win32,60,,,,,,,,,,,,,,,,,1,0,330,219,1,329,2,,,,,,
left,0.490999937,0,255,,,,,,,,,,,,,2,3,3,stim/33.jpeg,Instruments,2,stim/objects/Instruments/drums2.png,0.7,1,-0.2,0.15,right,5,2020-12-14_19h05.11.464,premup-three_ses-02_part-02_label-phase2,3.2.4,Win32,60,,,,,,,,,,,,,,,,,1,0,330,90,1,329,1,,,,,,
right,0.598999977,1,256,,,,,,,,,,,,,3,5,3,stim/53.jpeg,Instruments,2,stim/objects/Instruments/musicstand.png,0.9,1,-0.2,0.15,right,5,2020-12-14_19h05.11.464,premup-three_ses-02_part-02_label-phase2,3.2.4,Win32,60,,,,,,,,,,,,,,,,,1,0,330,188,1,329,2,,,,,,
right,0.529999971,1,257,,,,,,,,,,,,,3,5,1,stim/51.jpeg,Instruments,2,stim/objects/Instruments/metronome.png,0.9,4,0.2,-0.15,right,5,2020-12-14_19h05.11.464,premup-three_ses-02_part-02_label-phase2,3.2.4,Win32,60,,,,,,,,,,,,,,,,,1,0,330,166,1,329,2,,,,,,
,,0,258,,,,,,,,,,,,,2,3,2,stim/32.jpeg,HouseObjects,1,stim/objects/HouseObjects/thread.png,0.3,1,-0.2,0.15,left,5,2020-12-14_19h05.11.464,premup-three_ses-02_part-02_label-phase2,3.2.4,Win32,60,,,,,,,,,,,,,,,,,1,0,330,61,1,329,1,,,,,,
left,0.721999884,1,259,,,,,,,,,,,,,3,6,4,stim/64.jpeg,HouseObjects,1,stim/objects/HouseObjects/pitcher.png,0.9,4,0.2,-0.15,left,5,2020-12-14_19h05.11.464,premup-three_ses-02_part-02_label-phase2,3.2.4,Win32,60,,,,,,,,,,,,,,,,,1,0,330,249,1,329,2,,,,,,
,,0,260,,,,,,,,,,,,,2,4,1,stim/41.jpeg,HouseObjects,1,stim/objects/HouseObjects/garbagebin2.png,0.7,1,-0.2,0.15,left,5,2020-12-14_19h05.11.464,premup-three_ses-02_part-02_label-phase2,3.2.4,Win32,60,,,,,,,,,,,,,,,,,1,0,330,111,1,329,1,,,,,,
,,0,261,,,,,,,,,,,,,1,2,2,stim/22.jpeg,HouseObjects,1,stim/objects/HouseObjects/scale.png,0.5,2,0.2,0.15,left,5,2020-12-14_19h05.11.464,premup-three_ses-02_part-02_label-phase2,3.2.4,Win32,60,,,,,,,,,,,,,,,,,1,0,330,41,1,329,1,,,,,,
left,0.57799983,1,262,,,,,,,,,,,,,2,4,4,stim/44.jpeg,HouseObjects,1,stim/objects/HouseObjects/ironingboard2.png,0.7,1,-0.2,0.15,left,5,2020-12-14_19h05.11.464,premup-three_ses-02_part-02_label-phase2,3.2.4,Win32,60,,,,,,,,,,,,,,,,,1,0,330,118,1,329,1,,,,,,
right,0.518000126,0,263,,,,,,,,,,,,,1,1,1,stim/11.jpeg,HouseObjects,1,stim/objects/HouseObjects/coffee.png,0.5,2,0.2,0.15,left,5,2020-12-14_19h05.11.464,premup-three_ses-02_part-02_label-phase2,3.2.4,Win32,60,,,,,,,,,,,,,,,,,1,0,330,0,1,329,2,,,,,,
left,0.753000021,0,264,,,,,,,,,,,,,1,2,2,stim/22.jpeg,Instruments,2,stim/objects/Instruments/harmonica.png,0.5,3,-0.2,-0.15,right,5,2020-12-14_19h05.11.464,premup-three_ses-02_part-02_label-phase2,3.2.4,Win32,60,,,,,,,,,,,,,,,,,1,0,330,49,1,329,2,,,,,,
right,0.552999735,1,265,,,,,,,,,,,,,3,5,3,stim/53.jpeg,Instruments,2,stim/objects/Instruments/musicsheet.png,0.9,1,-0.2,0.15,right,5,2020-12-14_19h05.11.464,premup-three_ses-02_part-02_label-phase2,3.2.4,Win32,60,,,,,,,,,,,,,,,,,1,0,330,212,1,329,2,,,,,,
left,0.676999807,1,266,,,,,,,,,,,,,2,4,2,stim/42.jpeg,HouseObjects,1,stim/objects/HouseObjects/handbrush.png,0.7,4,0.2,-0.15,left,5,2020-12-14_19h05.11.464,premup-three_ses-02_part-02_label-phase2,3.2.4,Win32,60,,,,,,,,,,,,,,,,,1,0,330,100,1,329,2,,,,,,
left,0.683999777,0,267,,,,,,,,,,,,,3,6,3,stim/63.jpeg,Instruments,2,stim/objects/Instruments/vuvuzela2.png,0.1,2,0.2,0.15,right,5,2020-12-14_19h05.11.464,premup-three_ses-02_part-02_label-phase2,3.2.4,Win32,60,,,,,,,,,,,,,,,,,1,0,330,328,1,329,1,,,,,,
right,0.739999771,0,268,,,,,,,,,,,,,3,5,4,stim/54.jpeg,HouseObjects,1,stim/objects/HouseObjects/pan2.png,0.1,3,-0.2,-0.15,left,5,2020-12-14_19h05.11.464,premup-three_ses-02_part-02_label-phase2,3.2.4,Win32,60,,,,,,,,,,,,,,,,,1,0,330,133,1,329,1,,,,,,
left,0.593999863,1,269,,,,,,,,,,,,,3,6,3,stim/63.jpeg,HouseObjects,1,stim/objects/HouseObjects/lintroller.png,0.9,2,0.2,0.15,left,5,2020-12-14_19h05.11.464,premup-three_ses-02_part-02_label-phase2,3.2.4,Win32,60,,,,,,,,,,,,,,,,,1,0,330,256,1,329,2,,,,,,
left,0.731999874,1,270,,,,,,,,,,,,,2,4,2,stim/42.jpeg,HouseObjects,1,stim/objects/HouseObjects/key.png,0.7,1,-0.2,0.15,left,5,2020-12-14_19h05.11.464,premup-three_ses-02_part-02_label-phase2,3.2.4,Win32,60,,,,,,,,,,,,,,,,,1,0,330,104,1,329,2,,,,,,
left,0.791999817,1,271,,,,,,,,,,,,,1,2,4,stim/24.jpeg,HouseObjects,1,stim/objects/HouseObjects/hairdryer.png,0.5,2,0.2,0.15,left,5,2020-12-14_19h05.11.464,premup-three_ses-02_part-02_label-phase2,3.2.4,Win32,60,,,,,,,,,,,,,,,,,1,0,330,39,1,329,2,,,,,,
right,0.651000023,1,272,,,,,,,,,,,,,3,5,1,stim/51.jpeg,Instruments,2,stim/objects/Instruments/musicstand.png,0.9,4,0.2,-0.15,right,5,2020-12-14_19h05.11.464,premup-three_ses-02_part-02_label-phase2,3.2.4,Win32,60,,,,,,,,,,,,,,,,,1,0,330,218,1,329,2,,,,,,
right,0.470999718,1,273,,,,,,,,,,,,,1,1,3,stim/13.jpeg,Instruments,2,stim/objects/Instruments/electricguitar.png,0.5,3,-0.2,-0.15,right,5,2020-12-14_19h05.11.464,premup-three_ses-02_part-02_label-phase2,3.2.4,Win32,60,,,,,,,,,,,,,,,,,1,0,330,22,1,329,2,,,,,,
left,0.575000048,0,274,,,,,,,,,,,,,3,6,1,stim/61.jpeg,Instruments,2,stim/objects/Instruments/timbal2.png,0.1,2,0.2,0.15,right,5,2020-12-14_19h05.11.464,premup-three_ses-02_part-02_label-phase2,3.2.4,Win32,60,,,,,,,,,,,,,,,,,1,0,330,322,1,329,1,,,,,,
right,0.76699996,1,275,,,,,,,,,,,,,3,5,3,stim/53.jpeg,Instruments,2,stim/objects/Instruments/marimba.png,0.9,2,0.2,0.15,right,5,2020-12-14_19h05.11.464,premup-three_ses-02_part-02_label-phase2,3.2.4,Win32,60,,,,,,,,,,,,,,,,,1,0,330,140,1,329,2,,,,,,
left,0.746000051,1,276,,,,,,,,,,,,,3,6,3,stim/63.jpeg,HouseObjects,1,stim/objects/HouseObjects/pitcher.png,0.9,4,0.2,-0.15,left,5,2020-12-14_19h05.11.464,premup-three_ses-02_part-02_label-phase2,3.2.4,Win32,60,,,,,,,,,,,,,,,,,1,0,330,244,1,329,2,,,,,,
right,0.625,0,277,,,,,,,,,,,,,1,2,2,stim/22.jpeg,HouseObjects,1,stim/objects/HouseObjects/glass.png,0.5,4,0.2,-0.15,left,5,2020-12-14_19h05.11.464,premup-three_ses-02_part-02_label-phase2,3.2.4,Win32,60,,,,,,,,,,,,,,,,,1,0,330,37,1,329,2,,,,,,
right,0.616999865,1,278,,,,,,,,,,,,,3,5,2,stim/52.jpeg,Instruments,2,stim/objects/Instruments/musicsheet.png,0.9,2,0.2,0.15,right,5,2020-12-14_19h05.11.464,premup-three_ses-02_part-02_label-phase2,3.2.4,Win32,60,,,,,,,,,,,,,,,,,1,0,330,147,1,329,2,,,,,,
left,0.654999971,0,279,,,,,,,,,,,,,3,6,2,stim/62.jpeg,Instruments,2,stim/objects/Instruments/triangle2.png,0.1,2,0.2,0.15,right,5,2020-12-14_19h05.11.464,premup-three_ses-02_part-02_label-phase2,3.2.4,Win32,60,,,,,,,,,,,,,,,,,1,0,330,323,1,329,1,,,,,,
right,0.561999798,1,280,,,,,,,,,,,,,3,5,3,stim/53.jpeg,Instruments,2,stim/objects/Instruments/oboe.png,0.9,3,-0.2,-0.15,right,5,2020-12-14_19h05.11.464,premup-three_ses-02_part-02_label-phase2,3.2.4,Win32,60,,,,,,,,,,,,,,,,,1,0,330,184,1,329,2,,,,,,
,,0,281,,,,,,,,,,,,,3,5,2,stim/52.jpeg,Instruments,2,stim/objects/Instruments/metronome.png,0.9,3,-0.2,-0.15,right,5,2020-12-14_19h05.11.464,premup-three_ses-02_part-02_label-phase2,3.2.4,Win32,60,,,,,,,,,,,,,,,,,1,0,330,191,1,329,2,,,,,,
left,0.617000103,1,282,,,,,,,,,,,,,3,6,2,stim/62.jpeg,HouseObjects,1,stim/objects/HouseObjects/knife.png,0.9,4,0.2,-0.15,left,5,2020-12-14_19h05.11.464,premup-three_ses-02_part-02_label-phase2,3.2.4,Win32,60,,,,,,,,,,,,,,,,,1,0,330,275,1,329,2,,,,,,
left,0.694999933,1,283,,,,,,,,,,,,,2,4,4,stim/44.jpeg,HouseObjects,1,stim/objects/HouseObjects/flyswatter2.png,0.7,1,-0.2,0.15,left,5,2020-12-14_19h05.11.464,premup-three_ses-02_part-02_label-phase2,3.2.4,Win32,60,,,,,,,,,,,,,,,,,1,0,330,110,1,329,1,,,,,,
right,0.862999916,0,284,,,,,,,,,,,,,1,2,4,stim/24.jpeg,HouseObjects,1,stim/objects/HouseObjects/spraybottle.png,0.5,3,-0.2,-0.15,left,5,2020-12-14_19h05.11.464,premup-three_ses-02_part-02_label-phase2,3.2.4,Win32,60,,,,,,,,,,,,,,,,,1,0,330,43,1,329,1,,,,,,
left,0.863999844,0,285,,,,,,,,,,,,,2,4,1,stim/41.jpeg,Instruments,2,stim/objects/Instruments/keyboard2.png,0.3,4,0.2,-0.15,right,5,2020-12-14_19h05.11.464,premup-three_ses-02_part-02_label-phase2,3.2.4,Win32,60,,,,,,,,,,,,,,,,,1,0,330,127,1,329,1,,,,,,
right,0.600999832,1,286,,,,,,,,,,,,,3,5,4,stim/54.jpeg,Instruments,2,stim/objects/Instruments/metronome.png,0.9,1,-0.2,0.15,right,5,2020-12-14_19h05.11.464,premup-three_ses-02_part-02_label-phase2,3.2.4,Win32,60,,,,,,,,,,,,,,,,,1,0,330,141,1,329,2,,,,,,
right,0.581999779,0,287,,,,,,,,,,,,,1,2,4,stim/24.jpeg,HouseObjects,1,stim/objects/HouseObjects/flyswatter.png,0.5,2,0.2,0.15,left,5,2020-12-14_19h05.11.464,premup-three_ses-02_part-02_label-phase2,3.2.4,Win32,60,,,,,,,,,,,,,,,,,1,0,330,35,1,329,2,,,,,,
right,0.673999786,1,288,,,,,,,,,,,,,3,5,4,stim/54.jpeg,Instruments,2,stim/objects/Instruments/metronome.png,0.9,1,-0.2,0.15,right,5,2020-12-14_19h05.11.464,premup-three_ses-02_part-02_label-phase2,3.2.4,Win32,60,,,,,,,,,,,,,,,,,1,0,330,201,1,329,2,,,,,,
left,0.636999846,1,289,,,,,,,,,,,,,3,6,4,stim/64.jpeg,HouseObjects,1,stim/objects/HouseObjects/lintroller.png,0.9,3,-0.2,-0.15,left,5,2020-12-14_19h05.11.464,premup-three_ses-02_part-02_label-phase2,3.2.4,Win32,60,,,,,,,,,,,,,,,,,1,0,330,281,1,329,2,,,,,,
left,0.532000065,0,290,,,,,,,,,,,,,3,6,1,stim/61.jpeg,Instruments,2,stim/objects/Instruments/tuba2.png,0.1,2,0.2,0.15,right,5,2020-12-14_19h05.11.464,premup-three_ses-02_part-02_label-phase2,3.2.4,Win32,60,,,,,,,,,,,,,,,,,1,0,330,326,1,329,1,,,,,,
right,0.667000055,1,291,,,,,,,,,,,,,3,5,1,stim/51.jpeg,Instruments,2,stim/objects/Instruments/musicsheet.png,0.9,2,0.2,0.15,right,5,2020-12-14_19h05.11.464,premup-three_ses-02_part-02_label-phase2,3.2.4,Win32,60,,,,,,,,,,,,,,,,,1,0,330,142,1,329,2,,,,,,
right,0.631999969,1,292,,,,,,,,,,,,,3,5,2,stim/52.jpeg,Instruments,2,stim/objects/Instruments/musicsheet.png,0.9,4,0.2,-0.15,right,5,2020-12-14_19h05.11.464,premup-three_ses-02_part-02_label-phase2,3.2.4,Win32,60,,,,,,,,,,,,,,,,,1,0,330,187,1,329,2,,,,,,
left,0.707999945,1,293,,,,,,,,,,,,,3,6,3,stim/63.jpeg,HouseObjects,1,stim/objects/HouseObjects/lintroller.png,0.9,1,-0.2,0.15,left,5,2020-12-14_19h05.11.464,premup-three_ses-02_part-02_label-phase2,3.2.4,Win32,60,,,,,,,,,,,,,,,,,1,0,330,296,1,329,2,,,,,,
left,0.667999983,1,294,,,,,,,,,,,,,3,6,2,stim/62.jpeg,HouseObjects,1,stim/objects/HouseObjects/pan.png,0.9,4,0.2,-0.15,left,5,2020-12-14_19h05.11.464,premup-three_ses-02_part-02_label-phase2,3.2.4,Win32,60,,,,,,,,,,,,,,,,,1,0,330,243,1,329,2,,,,,,
right,0.765999794,1,295,,,,,,,,,,,,,2,3,2,stim/32.jpeg,Instruments,2,stim/objects/Instruments/keyboard.png,0.7,3,-0.2,-0.15,right,5,2020-12-14_19h05.11.464,premup-three_ses-02_part-02_label-phase2,3.2.4,Win32,60,,,,,,,,,,,,,,,,,1,0,330,77,1,329,2,,,,,,
left,0.578999996,1,296,,,,,,,,,,,,,3,6,4,stim/64.jpeg,HouseObjects,1,stim/objects/HouseObjects/knife.png,0.9,2,0.2,0.15,left,5,2020-12-14_19h05.11.464,premup-three_ses-02_part-02_label-phase2,3.2.4,Win32,60,,,,,,,,,,,,,,,,,1,0,330,245,1,329,2,,,,,,
right,0.618000031,1,297,,,,,,,,,,,,,3,5,4,stim/54.jpeg,Instruments,2,stim/objects/Instruments/metronome.png,0.9,1,-0.2,0.15,right,5,2020-12-14_19h05.11.464,premup-three_ses-02_part-02_label-phase2,3.2.4,Win32,60,,,,,,,,,,,,,,,,,1,0,330,181,1,329,2,,,,,,
left,0.56099987,1,298,,,,,,,,,,,,,3,6,3,stim/63.jpeg,HouseObjects,1,stim/objects/HouseObjects/knife.png,0.9,1,-0.2,0.15,left,5,2020-12-14_19h05.11.464,premup-three_ses-02_part-02_label-phase2,3.2.4,Win32,60,,,,,,,,,,,,,,,,,1,0,330,260,1,329,2,,,,,,
right,0.63499999,1,299,,,,,,,,,,,,,2,3,2,stim/32.jpeg,Instruments,2,stim/objects/Instruments/hihat.png,0.7,2,0.2,0.15,right,5,2020-12-14_19h05.11.464,premup-three_ses-02_part-02_label-phase2,3.2.4,Win32,60,,,,,,,,,,,,,,,,,1,0,330,81,1,329,2,,,,,,
left,0.782000065,1,300,,,,,,,,,,,,,1,2,3,stim/23.jpeg,HouseObjects,1,stim/objects/HouseObjects/sponge.png,0.5,3,-0.2,-0.15,left,5,2020-12-14_19h05.11.464,premup-three_ses-02_part-02_label-phase2,3.2.4,Win32,60,,,,,,,,,,,,,,,,,1,0,330,42,1,329,1,,,,,,
,,0,301,,,,,,,,,,,,,2,4,3,stim/43.jpeg,HouseObjects,1,stim/objects/HouseObjects/iron.png,0.7,3,-0.2,-0.15,left,5,2020-12-14_19h05.11.464,premup-three_ses-02_part-02_label-phase2,3.2.4,Win32,60,,,,,,,,,,,,,,,,,1,0,330,97,1,329,2,,,,,,
right,0.458999872,1,302,,,,,,,,,,,,,3,5,4,stim/54.jpeg,Instruments,2,stim/objects/Instruments/musicsheet.png,0.9,3,-0.2,-0.15,right,5,2020-12-14_19h05.11.464,premup-three_ses-02_part-02_label-phase2,3.2.4,Win32,60,,,,,,,,,,,,,,,,,1,0,330,197,1,329,2,,,,,,
left,0.694000006,1,303,,,,,,,,,,,,,3,6,4,stim/64.jpeg,HouseObjects,1,stim/objects/HouseObjects/match.png,0.9,1,-0.2,0.15,left,5,2020-12-14_19h05.11.464,premup-three_ses-02_part-02_label-phase2,3.2.4,Win32,60,,,,,,,,,,,,,,,,,1,0,330,237,1,329,2,,,,,,
right,0.665999889,1,304,,,,,,,,,,,,,3,6,4,stim/64.jpeg,Instruments,2,stim/objects/Instruments/tambourine2.png,0.1,4,0.2,-0.15,right,5,2020-12-14_19h05.11.464,premup-three_ses-02_part-02_label-phase2,3.2.4,Win32,60,,,,,,,,,,,,,,,,,1,0,330,321,1,329,1,,,,,,
right,0.616999865,1,305,,,,,,,,,,,,,3,5,1,stim/51.jpeg,Instruments,2,stim/objects/Instruments/musicstand.png,0.9,3,-0.2,-0.15,right,5,2020-12-14_19h05.11.464,premup-three_ses-02_part-02_label-phase2,3.2.4,Win32,60,,,,,,,,,,,,,,,,,1,0,330,158,1,329,2,,,,,,
left,0.700000048,1,306,,,,,,,,,,,,,2,3,1,stim/31.jpeg,HouseObjects,1,stim/objects/HouseObjects/wateringcan.png,0.3,1,-0.2,0.15,left,5,2020-12-14_19h05.11.464,premup-three_ses-02_part-02_label-phase2,3.2.4,Win32,60,,,,,,,,,,,,,,,,,1,0,330,64,1,329,1,,,,,,
right,0.715999842,1,307,,,,,,,,,,,,,3,5,1,stim/51.jpeg,Instruments,2,stim/objects/Instruments/musicsheet.png,0.9,4,0.2,-0.15,right,5,2020-12-14_19h05.11.464,premup-three_ses-02_part-02_label-phase2,3.2.4,Win32,60,,,,,,,,,,,,,,,,,1,0,330,182,1,329,2,,,,,,
,,0,308,,,,,,,,,,,,,3,6,1,stim/61.jpeg,HouseObjects,1,stim/objects/HouseObjects/lintroller.png,0.9,4,0.2,-0.15,left,5,2020-12-14_19h05.11.464,premup-three_ses-02_part-02_label-phase2,3.2.4,Win32,60,,,,,,,,,,,,,,,,,1,0,330,286,1,329,2,,,,,,
left,0.856999874,0,309,,,,,,,,,,,,,3,5,4,stim/54.jpeg,Instruments,2,stim/objects/Instruments/panflute2.png,0.9,3,-0.2,-0.15,right,5,2020-12-14_19h05.11.464,premup-three_ses-02_part-02_label-phase2,3.2.4,Win32,60,,,,,,,,,,,,,,,,,1,0,330,225,1,329,1,,,,,,
right,0.529999971,1,310,,,,,,,,,,,,,2,4,2,stim/42.jpeg,Instruments,2,stim/objects/Instruments/harmonica2.png,0.3,2,0.2,0.15,right,5,2020-12-14_19h05.11.464,premup-three_ses-02_part-02_label-phase2,3.2.4,Win32,60,,,,,,,,,,,,,,,,,1,0,330,124,1,329,1,,,,,,
,,0,311,,,,,,,,,,,,,3,5,4,stim/54.jpeg,Instruments,2,stim/objects/Instruments/oboe.png,0.9,2,0.2,0.15,right,5,2020-12-14_19h05.11.464,premup-three_ses-02_part-02_label-phase2,3.2.4,Win32,60,,,,,,,,,,,,,,,,,1,0,330,149,1,329,2,,,,,,
right,0.644999743,0,312,,,,,,,,,,,,,3,5,1,stim/51.jpeg,HouseObjects,1,stim/objects/HouseObjects/rug2.png,0.1,2,0.2,0.15,left,5,2020-12-14_19h05.11.464,premup-three_ses-02_part-02_label-phase2,3.2.4,Win32,60,,,,,,,,,,,,,,,,,1,0,330,138,1,329,1,,,,,,
right,0.667999983,0,313,,,,,,,,,,,,,3,5,1,stim/51.jpeg,HouseObjects,1,stim/objects/HouseObjects/pitcher2.png,0.1,1,-0.2,0.15,left,5,2020-12-14_19h05.11.464,premup-three_ses-02_part-02_label-phase2,3.2.4,Win32,60,,,,,,,,,,,,,,,,,1,0,330,134,1,329,1,,,,,,
,,0,314,,,,,,,,,,,,,3,5,3,stim/53.jpeg,Instruments,2,stim/objects/Instruments/musicsheet.png,0.9,1,-0.2,0.15,right,5,2020-12-14_19h05.11.464,premup-three_ses-02_part-02_label-phase2,3.2.4,Win32,60,,,,,,,,,,,,,,,,,1,0,330,172,1,329,2,,,,,,
left,0.592999935,0,315,,,,,,,,,,,,,1,1,1,stim/11.jpeg,Instruments,2,stim/objects/Instruments/electricdrumset.png,0.5,1,-0.2,0.15,right,5,2020-12-14_19h05.11.464,premup-three_ses-02_part-02_label-phase2,3.2.4,Win32,60,,,,,,,,,,,,,,,,,1,0,330,16,1,329,2,,,,,,
left,0.694000006,1,316,,,,,,,,,,,,,3,6,3,stim/63.jpeg,HouseObjects,1,stim/objects/HouseObjects/thread2.png,0.9,3,-0.2,-0.15,left,5,2020-12-14_19h05.11.464,premup-three_ses-02_part-02_label-phase2,3.2.4,Win32,60,,,,,,,,,,,,,,,,,1,0,330,316,1,329,1,,,,,,
left,0.68599987,1,317,,,,,,,,,,,,,1,1,4,stim/14.jpeg,HouseObjects,1,stim/objects/HouseObjects/doormat.png,0.5,4,0.2,-0.15,left,5,2020-12-14_19h05.11.464,premup-three_ses-02_part-02_label-phase2,3.2.4,Win32,60,,,,,,,,,,,,,,,,,1,0,330,3,1,329,2,,,,,,
left,0.815999985,1,318,,,,,,,,,,,,,3,6,3,stim/63.jpeg,HouseObjects,1,stim/objects/HouseObjects/pitcher.png,0.9,3,-0.2,-0.15,left,5,2020-12-14_19h05.11.464,premup-three_ses-02_part-02_label-phase2,3.2.4,Win32,60,,,,,,,,,,,,,,,,,1,0,330,264,1,329,2,,,,,,
right,0.753999949,1,319,,,,,,,,,,,,,3,5,4,stim/54.jpeg,Instruments,2,stim/objects/Instruments/saxophone2.png,0.9,1,-0.2,0.15,right,5,2020-12-14_19h05.11.464,premup-three_ses-02_part-02_label-phase2,3.2.4,Win32,60,,,,,,,,,,,,,,,,,1,0,330,229,1,329,1,,,,,,
left,0.555000067,1,320,,,,,,,,,,,,,3,6,2,stim/62.jpeg,HouseObjects,1,stim/objects/HouseObjects/pitcher.png,0.9,4,0.2,-0.15,left,5,2020-12-14_19h05.11.464,premup-three_ses-02_part-02_label-phase2,3.2.4,Win32,60,,,,,,,,,,,,,,,,,1,0,330,259,1,329,2,,,,,,
right,0.576999903,1,321,,,,,,,,,,,,,3,5,2,stim/52.jpeg,Instruments,2,stim/objects/Instruments/oboe.png,0.9,1,-0.2,0.15,right,5,2020-12-14_19h05.11.464,premup-three_ses-02_part-02_label-phase2,3.2.4,Win32,60,,,,,,,,,,,,,,,,,1,0,330,179,1,329,2,,,,,,
right,0.613999844,1,322,,,,,,,,,,,,,3,5,4,stim/54.jpeg,Instruments,2,stim/objects/Instruments/musicstand.png,0.9,3,-0.2,-0.15,right,5,2020-12-14_19h05.11.464,premup-three_ses-02_part-02_label-phase2,3.2.4,Win32,60,,,,,,,,,,,,,,,,,1,0,330,153,1,329,2,,,,,,
right,0.634999752,1,323,,,,,,,,,,,,,3,5,4,stim/54.jpeg,Instruments,2,stim/objects/Instruments/musicstand.png,0.9,4,0.2,-0.15,right,5,2020-12-14_19h05.11.464,premup-three_ses-02_part-02_label-phase2,3.2.4,Win32,60,,,,,,,,,,,,,,,,,1,0,330,213,1,329,2,,,,,,
left,0.84499979,1,324,,,,,,,,,,,,,1,2,1,stim/21.jpeg,HouseObjects,1,stim/objects/HouseObjects/teapot.png,0.5,4,0.2,-0.15,left,5,2020-12-14_19h05.11.464,premup-three_ses-02_part-02_label-phase2,3.2.4,Win32,60,,,,,,,,,,,,,,,,,1,0,330,44,1,329,1,,,,,,
left,0.749999762,1,325,,,,,,,,,,,,,3,6,3,stim/63.jpeg,HouseObjects,1,stim/objects/HouseObjects/pan.png,0.9,1,-0.2,0.15,left,5,2020-12-14_19h05.11.464,premup-three_ses-02_part-02_label-phase2,3.2.4,Win32,60,,,,,,,,,,,,,,,,,1,0,330,308,1,329,2,,,,,,
,,0,326,,,,,,,,,,,,,2,4,2,stim/42.jpeg,HouseObjects,1,stim/objects/HouseObjects/glass2.png,0.7,2,0.2,0.15,left,5,2020-12-14_19h05.11.464,premup-three_ses-02_part-02_label-phase2,3.2.4,Win32,60,,,,,,,,,,,,,,,,,1,0,330,112,1,329,1,,,,,,
right,0.680999994,1,327,,,,,,,,,,,,,2,3,2,stim/32.jpeg,Instruments,2,stim/objects/Instruments/flute2.png,0.7,2,0.2,0.15,right,5,2020-12-14_19h05.11.464,premup-three_ses-02_part-02_label-phase2,3.2.4,Win32,60,,,,,,,,,,,,,,,,,1,0,330,93,1,329,1,,,,,,
left,0.652999878,1,328,,,,,,,,,,,,,3,6,4,stim/64.jpeg,HouseObjects,1,stim/objects/HouseObjects/lintroller.png,0.9,2,0.2,0.15,left,5,2020-12-14_19h05.11.464,premup-three_ses-02_part-02_label-phase2,3.2.4,Win32,60,,,,,,,,,,,,,,,,,1,0,330,241,1,329,2,,,,,,
left,0.866999865,1,329,,,,,,,,,,,,,3,6,1,stim/61.jpeg,HouseObjects,1,stim/objects/HouseObjects/lintroller.png,0.9,1,-0.2,0.15,left,5,2020-12-14_19h05.11.464,premup-three_ses-02_part-02_label-phase2,3.2.4,Win32,60,,,,,,,,,,,,,,,,,1,0,330,246,1,329,2,,,,,,
right,0.68599987,1,330,,,,,,,,,,,,,2,3,2,stim/32.jpeg,Instruments,2,stim/objects/Instruments/xylophone.png,0.7,2,0.2,0.15,right,5,2020-12-14_19h05.11.464,premup-three_ses-02_part-02_label-phase2,3.2.4,Win32,60,,,,,,,,,,,,,,,,,1,0,330,89,1,329,1,,,,,,
left,0.78399992,1,331,,,,,,,,,,,,,3,6,3,stim/63.jpeg,HouseObjects,1,stim/objects/HouseObjects/match.png,0.9,1,-0.2,0.15,left,5,2020-12-14_19h05.11.464,premup-three_ses-02_part-02_label-phase2,3.2.4,Win32,60,,,,,,,,,,,,,,,,,1,0,330,232,1,329,2,,,,,,
left,0.700000048,1,332,,,,,,,,,,,,,3,6,4,stim/64.jpeg,HouseObjects,1,stim/objects/HouseObjects/lintroller.png,0.9,2,0.2,0.15,left,5,2020-12-14_19h05.11.464,premup-three_ses-02_part-02_label-phase2,3.2.4,Win32,60,,,,,,,,,,,,,,,,,1,0,330,261,1,329,2,,,,,,
,,0,333,,,,,,,,,,,,,1,1,1,stim/11.jpeg,HouseObjects,1,stim/objects/HouseObjects/rubbergloves.png,0.5,4,0.2,-0.15,left,5,2020-12-14_19h05.11.464,premup-three_ses-02_part-02_label-phase2,3.2.4,Win32,60,,,,,,,,,,,,,,,,,1,0,330,12,1,329,1,,,,,,
left,0.638999939,1,334,,,,,,,,,,,,,2,4,1,stim/41.jpeg,HouseObjects,1,stim/objects/HouseObjects/handbrush.png,0.7,2,0.2,0.15,left,5,2020-12-14_19h05.11.464,premup-three_ses-02_part-02_label-phase2,3.2.4,Win32,60,,,,,,,,,,,,,,,,,1,0,330,95,1,329,2,,,,,,
left,0.683999777,1,335,,,,,,,,,,,,,3,6,2,stim/62.jpeg,HouseObjects,1,stim/objects/HouseObjects/pan.png,0.9,2,0.2,0.15,left,5,2020-12-14_19h05.11.464,premup-three_ses-02_part-02_label-phase2,3.2.4,Win32,60,,,,,,,,,,,,,,,,,1,0,330,283,1,329,2,,,,,,
,,0,336,,,,,,,,,,,,,1,2,4,stim/24.jpeg,HouseObjects,1,stim/objects/HouseObjects/garbagebin.png,0.5,4,0.2,-0.15,left,5,2020-12-14_19h05.11.464,premup-three_ses-02_part-02_label-phase2,3.2.4,Win32,60,,,,,,,,,,,,,,,,,1,0,330,31,1,329,2,,,,,,
right,0.691999912,1,337,,,,,,,,,,,,,3,5,4,stim/54.jpeg,Instruments,2,stim/objects/Instruments/musicstand.png,0.9,4,0.2,-0.15,right,5,2020-12-14_19h05.11.464,premup-three_ses-02_part-02_label-phase2,3.2.4,Win32,60,,,,,,,,,,,,,,,,,1,0,330,173,1,329,2,,,,,,
right,0.621999979,0,338,,,,,,,,,,,,,1,1,1,stim/11.jpeg,HouseObjects,1,stim/objects/HouseObjects/dustpan.png,0.5,4,0.2,-0.15,left,5,2020-12-14_19h05.11.464,premup-three_ses-02_part-02_label-phase2,3.2.4,Win32,60,,,,,,,,,,,,,,,,,1,0,330,4,1,329,2,,,,,,
left,0.666999817,1,339,,,,,,,,,,,,,3,6,2,stim/62.jpeg,HouseObjects,1,stim/objects/HouseObjects/match.png,0.9,3,-0.2,-0.15,left,5,2020-12-14_19h05.11.464,premup-three_ses-02_part-02_label-phase2,3.2.4,Win32,60,,,,,,,,,,,,,,,,,1,0,330,287,1,329,2,,,,,,
left,0.576999903,1,340,,,,,,,,,,,,,1,2,2,stim/22.jpeg,HouseObjects,1,stim/objects/HouseObjects/glassmop.png,0.5,1,-0.2,0.15,left,5,2020-12-14_19h05.11.464,premup-three_ses-02_part-02_label-phase2,3.2.4,Win32,60,,,,,,,,,,,,,,,,,1,0,330,33,1,329,2,,,,,,
left,0.683999777,1,341,,,,,,,,,,,,,3,6,2,stim/62.jpeg,HouseObjects,1,stim/objects/HouseObjects/pitcher.png,0.9,1,-0.2,0.15,left,5,2020-12-14_19h05.11.464,premup-three_ses-02_part-02_label-phase2,3.2.4,Win32,60,,,,,,,,,,,,,,,,,1,0,330,299,1,329,2,,,,,,
right,0.660999775,0,342,,,,,,,,,,,,,2,3,3,stim/33.jpeg,HouseObjects,1,stim/objects/HouseObjects/towel.png,0.3,4,0.2,-0.15,left,5,2020-12-14_19h05.11.464,premup-three_ses-02_part-02_label-phase2,3.2.4,Win32,60,,,,,,,,,,,,,,,,,1,0,330,62,1,329,1,,,,,,
left,0.654999971,0,343,,,,,,,,,,,,,2,4,3,stim/43.jpeg,Instruments,2,stim/objects/Instruments/gong2.png,0.3,4,0.2,-0.15,right,5,2020-12-14_19h05.11.464,premup-three_ses-02_part-02_label-phase2,3.2.4,Win32,60,,,,,,,,,,,,,,,,,1,0,330,121,1,329,1,,,,,,
left,0.707999945,1,344,,,,,,,,,,,,,3,6,3,stim/63.jpeg,HouseObjects,1,stim/objects/HouseObjects/knife.png,0.9,4,0.2,-0.15,left,5,2020-12-14_19h05.11.464,premup-three_ses-02_part-02_label-phase2,3.2.4,Win32,60,,,,,,,,,,,,,,,,,1,0,330,300,1,329,2,,,,,,
right,0.792999983,0,345,,,,,,,,,,,,,3,6,1,stim/61.jpeg,HouseObjects,1,stim/objects/HouseObjects/lintroller.png,0.9,2,0.2,0.15,left,5,2020-12-14_19h05.11.464,premup-three_ses-02_part-02_label-phase2,3.2.4,Win32,60,,,,,,,,,,,,,,,,,1,0,330,306,1,329,2,,,,,,
left,0.65899992,1,346,,,,,,,,,,,,,3,6,4,stim/64.jpeg,HouseObjects,1,stim/objects/HouseObjects/pan.png,0.9,2,0.2,0.15,left,5,2020-12-14_19h05.11.464,premup-three_ses-02_part-02_label-phase2,3.2.4,Win32,60,,,,,,,,,,,,,,,,,1,0,330,293,1,329,2,,,,,,
,,0,347,,,,,,,,,,,,,1,1,4,stim/14.jpeg,Instruments,2,stim/objects/Instruments/flutetrans.png,0.5,4,0.2,-0.15,right,5,2020-12-14_19h05.11.464,premup-three_ses-02_part-02_label-phase2,3.2.4,Win32,60,,,,,,,,,,,,,,,,,1,0,330,19,1,329,2,,,,,,
left,0.657999992,1,348,,,,,,,,,,,,,3,6,3,stim/63.jpeg,HouseObjects,1,stim/objects/HouseObjects/match.png,0.9,2,0.2,0.15,left,5,2020-12-14_19h05.11.464,premup-three_ses-02_part-02_label-phase2,3.2.4,Win32,60,,,,,,,,,,,,,,,,,1,0,330,292,1,329,2,,,,,,
right,0.761999846,0,349,,,,,,,,,,,,,3,6,2,stim/62.jpeg,HouseObjects,1,stim/objects/HouseObjects/match.png,0.9,3,-0.2,-0.15,left,5,2020-12-14_19h05.11.464,premup-three_ses-02_part-02_label-phase2,3.2.4,Win32,60,,,,,,,,,,,,,,,,,1,0,330,267,1,329,2,,,,,,
,,0,350,,,,,,,,,,,,,1,2,3,stim/23.jpeg,HouseObjects,1,stim/objects/HouseObjects/flyswatter.png,0.5,4,0.2,-0.15,left,5,2020-12-14_19h05.11.464,premup-three_ses-02_part-02_label-phase2,3.2.4,Win32,60,,,,,,,,,,,,,,,,,1,0,330,30,1,329,2,,,,,,
left,0.700999975,1,351,,,,,,,,,,,,,3,6,2,stim/62.jpeg,HouseObjects,1,stim/objects/HouseObjects/match.png,0.9,4,0.2,-0.15,left,5,2020-12-14_19h05.11.464,premup-three_ses-02_part-02_label-phase2,3.2.4,Win32,60,,,,,,,,,,,,,,,,,1,0,330,307,1,329,2,,,,,,
,,0,352,,,,,,,,,,,,,3,5,1,stim/51.jpeg,Instruments,2,stim/objects/Instruments/marimba.png,0.9,3,-0.2,-0.15,right,5,2020-12-14_19h05.11.464,premup-three_ses-02_part-02_label-phase2,3.2.4,Win32,60,,,,,,,,,,,,,,,,,1,0,330,210,1,329,2,,,,,,
right,0.775000095,1,353,,,,,,,,,,,,,3,5,1,stim/51.jpeg,Instruments,2,stim/objects/Instruments/oboe.png,0.9,1,-0.2,0.15,right,5,2020-12-14_19h05.11.464,premup-three_ses-02_part-02_label-phase2,3.2.4,Win32,60,,,,,,,,,,,,,,,,,1,0,330,214,1,329,2,,,,,,
,,0,354,,,,,,,,,,,,,3,5,3,stim/53.jpeg,Instruments,2,stim/objects/Instruments/oboe.png,0.9,1,-0.2,0.15,right,5,2020-12-14_19h05.11.464,premup-three_ses-02_part-02_label-phase2,3.2.4,Win32,60,,,,,,,,,,,,,,,,,1,0,330,164,1,329,2,,,,,,
right,0.515000105,0,355,,,,,,,,,,,,,2,4,4,stim/44.jpeg,HouseObjects,1,stim/objects/HouseObjects/ironingboard.png,0.7,2,0.2,0.15,left,5,2020-12-14_19h05.11.464,premup-three_ses-02_part-02_label-phase2,3.2.4,Win32,60,,,,,,,,,,,,,,,,,1,0,330,98,1,329,2,,,,,,
left,0.674999952,1,356,,,,,,,,,,,,,3,6,1,stim/61.jpeg,HouseObjects,1,stim/objects/HouseObjects/lintroller.png,0.9,3,-0.2,-0.15,left,5,2020-12-14_19h05.11.464,premup-three_ses-02_part-02_label-phase2,3.2.4,Win32,60,,,,,,,,,,,,,,,,,1,0,330,266,1,329,2,,,,,,
left,0.59800005,0,357,,,,,,,,,,,,,3,6,2,stim/62.jpeg,Instruments,2,stim/objects/Instruments/violin2.png,0.1,4,0.2,-0.15,right,5,2020-12-14_19h05.11.464,premup-three_ses-02_part-02_label-phase2,3.2.4,Win32,60,,,,,,,,,,,,,,,,,1,0,330,327,1,329,1,,,,,,
right,0.635999918,1,358,,,,,,,,,,,,,3,5,1,stim/51.jpeg,Instruments,2,stim/objects/Instruments/metronome.png,0.9,1,-0.2,0.15,right,5,2020-12-14_19h05.11.464,premup-three_ses-02_part-02_label-phase2,3.2.4,Win32,60,,,,,,,,,,,,,,,,,1,0,330,186,1,329,2,,,,,,
left,0.652999878,0,359,,,,,,,,,,,,,3,5,3,stim/53.jpeg,Instruments,2,stim/objects/Instruments/musicsheet.png,0.9,3,-0.2,-0.15,right,5,2020-12-14_19h05.11.464,premup-three_ses-02_part-02_label-phase2,3.2.4,Win32,60,,,,,,,,,,,,,,,,,1,0,330,192,1,329,2,,,,,,
right,0.751999855,1,360,,,,,,,,,,,,,3,5,2,stim/52.jpeg,Instruments,2,stim/objects/Instruments/musicsheet.png,0.9,2,0.2,0.15,right,5,2020-12-14_19h05.11.464,premup-three_ses-02_part-02_label-phase2,3.2.4,Win32,60,,,,,,,,,,,,,,,,,1,0,330,207,1,329,2,,,,,,
left,0.618999958,1,361,,,,,,,,,,,,,3,6,4,stim/64.jpeg,HouseObjects,1,stim/objects/HouseObjects/pitcher.png,0.9,4,0.2,-0.15,left,5,2020-12-14_19h05.11.464,premup-three_ses-02_part-02_label-phase2,3.2.4,Win32,60,,,,,,,,,,,,,,,,,1,0,330,289,1,329,2,,,,,,
,,0,362,,,,,,,,,,,,,3,5,1,stim/51.jpeg,Instruments,2,stim/objects/Instruments/pipepiano2.png,0.9,1,-0.2,0.15,right,5,2020-12-14_19h05.11.464,premup-three_ses-02_part-02_label-phase2,3.2.4,Win32,60,,,,,,,,,,,,,,,,,1,0,330,226,1,329,1,,,,,,
left,0.583999872,1,363,,,,,,,,,,,,,2,4,3,stim/43.jpeg,HouseObjects,1,stim/objects/HouseObjects/glassmop2.png,0.7,3,-0.2,-0.15,left,5,2020-12-14_19h05.11.464,premup-three_ses-02_part-02_label-phase2,3.2.4,Win32,60,,,,,,,,,,,,,,,,,1,0,330,113,1,329,1,,,,,,
right,0.622999907,1,364,,,,,,,,,,,,,2,3,1,stim/31.jpeg,Instruments,2,stim/objects/Instruments/vuvuzela.png,0.7,3,-0.2,-0.15,right,5,2020-12-14_19h05.11.464,premup-three_ses-02_part-02_label-phase2,3.2.4,Win32,60,,,,,,,,,,,,,,,,,1,0,330,88,1,329,1,,,,,,
right,0.644999743,0,365,,,,,,,,,,,,,2,3,1,stim/31.jpeg,HouseObjects,1,stim/objects/HouseObjects/thermometer.png,0.3,1,-0.2,0.15,left,5,2020-12-14_19h05.11.464,premup-three_ses-02_part-02_label-phase2,3.2.4,Win32,60,,,,,,,,,,,,,,,,,1,0,330,60,1,329,1,,,,,,
left,0.674999952,1,366,,,,,,,,,,,,,3,6,4,stim/64.jpeg,HouseObjects,1,stim/objects/HouseObjects/lintroller.png,0.9,4,0.2,-0.15,left,5,2020-12-14_19h05.11.464,premup-three_ses-02_part-02_label-phase2,3.2.4,Win32,60,,,,,,,,,,,,,,,,,1,0,330,301,1,329,2,,,,,,
,,0,367,,,,,,,,,,,,,3,6,4,stim/64.jpeg,HouseObjects,1,stim/objects/HouseObjects/match.png,0.9,1,-0.2,0.15,left,5,2020-12-14_19h05.11.464,premup-three_ses-02_part-02_label-phase2,3.2.4,Win32,60,,,,,,,,,,,,,,,,,1,0,330,277,1,329,2,,,,,,
,,0,368,,,,,,,,,,,,,3,5,1,stim/51.jpeg,Instruments,2,stim/objects/Instruments/marimba.png,0.9,3,-0.2,-0.15,right,5,2020-12-14_19h05.11.464,premup-three_ses-02_part-02_label-phase2,3.2.4,Win32,60,,,,,,,,,,,,,,,,,1,0,330,150,1,329,2,,,,,,
right,0.650999784,1,369,,,,,,,,,,,,,3,5,3,stim/53.jpeg,Instruments,2,stim/objects/Instruments/marimba.png,0.9,3,-0.2,-0.15,right,5,2020-12-14_19h05.11.464,premup-three_ses-02_part-02_label-phase2,3.2.4,Win32,60,,,,,,,,,,,,,,,,,1,0,330,160,1,329,2,,,,,,
,,0,370,,,,,,,,,,,,,3,5,1,stim/51.jpeg,Instruments,2,stim/objects/Instruments/metronome.png,0.9,3,-0.2,-0.15,right,5,2020-12-14_19h05.11.464,premup-three_ses-02_part-02_label-phase2,3.2.4,Win32,60,,,,,,,,,,,,,,,,,1,0,330,146,1,329,2,,,,,,
left,0.558999777,0,371,,,,,,,,,,,,,2,3,4,stim/34.jpeg,Instruments,2,stim/objects/Instruments/laud.png,0.7,3,-0.2,-0.15,right,5,2020-12-14_19h05.11.464,premup-three_ses-02_part-02_label-phase2,3.2.4,Win32,60,,,,,,,,,,,,,,,,,1,0,330,83,1,329,2,,,,,,
,,0,372,,,,,,,,,,,,,3,5,4,stim/54.jpeg,HouseObjects,1,stim/objects/HouseObjects/rubbergloves2.png,0.1,1,-0.2,0.15,left,5,2020-12-14_19h05.11.464,premup-three_ses-02_part-02_label-phase2,3.2.4,Win32,60,,,,,,,,,,,,,,,,,1,0,330,137,1,329,1,,,,,,
right,0.586999893,1,373,,,,,,,,,,,,,3,5,2,stim/52.jpeg,Instruments,2,stim/objects/Instruments/metronome.png,0.9,1,-0.2,0.15,right,5,2020-12-14_19h05.11.464,premup-three_ses-02_part-02_label-phase2,3.2.4,Win32,60,,,,,,,,,,,,,,,,,1,0,330,151,1,329,2,,,,,,
left,0.497999907,0,374,,,,,,,,,,,,,3,5,3,stim/53.jpeg,Instruments,2,stim/objects/Instruments/record_player2.png,0.9,2,0.2,0.15,right,5,2020-12-14_19h05.11.464,premup-three_ses-02_part-02_label-phase2,3.2.4,Win32,60,,,,,,,,,,,,,,,,,1,0,330,228,1,329,1,,,,,,
right,0.615999937,0,375,,,,,,,,,,,,,1,1,3,stim/13.jpeg,HouseObjects,1,stim/objects/HouseObjects/dishsoap.png,0.5,4,0.2,-0.15,left,5,2020-12-14_19h05.11.464,premup-three_ses-02_part-02_label-phase2,3.2.4,Win32,60,,,,,,,,,,,,,,,,,1,0,330,2,1,329,2,,,,,,
,,0,376,,,,,,,,,,,,,3,5,4,stim/54.jpeg,Instruments,2,stim/objects/Instruments/musicsheet.png,0.9,2,0.2,0.15,right,5,2020-12-14_19h05.11.464,premup-three_ses-02_part-02_label-phase2,3.2.4,Win32,60,,,,,,,,,,,,,,,,,1,0,330,217,1,329,2,,,,,,
left,0.81099987,0,377,,,,,,,,,,,,,2,4,3,stim/43.jpeg,Instruments,2,stim/objects/Instruments/harp2.png,0.3,4,0.2,-0.15,right,5,2020-12-14_19h05.11.464,premup-three_ses-02_part-02_label-phase2,3.2.4,Win32,60,,,,,,,,,,,,,,,,,1,0,330,125,1,329,1,,,,,,
right,0.747999907,0,378,,,,,,,,,,,,,2,4,3,stim/43.jpeg,HouseObjects,1,stim/objects/HouseObjects/key.png,0.7,3,-0.2,-0.15,left,5,2020-12-14_19h05.11.464,premup-three_ses-02_part-02_label-phase2,3.2.4,Win32,60,,,,,,,,,,,,,,,,,1,0,330,109,1,329,2,,,,,,
right,0.736999989,1,379,,,,,,,,,,,,,3,5,1,stim/51.jpeg,Instruments,2,stim/objects/Instruments/metronome.png,0.9,1,-0.2,0.15,right,5,2020-12-14_19h05.11.464,premup-three_ses-02_part-02_label-phase2,3.2.4,Win32,60,,,,,,,,,,,,,,,,,1,0,330,206,1,329,2,,,,,,
left,0.447999716,1,380,,,,,,,,,,,,,3,6,3,stim/63.jpeg,HouseObjects,1,stim/objects/HouseObjects/knife.png,0.9,1,-0.2,0.15,left,5,2020-12-14_19h05.11.464,premup-three_ses-02_part-02_label-phase2,3.2.4,Win32,60,,,,,,,,,,,,,,,,,1,0,330,280,1,329,2,,,,,,
left,0.508999825,1,381,,,,,,,,,,,,,3,6,1,stim/61.jpeg,HouseObjects,1,stim/objects/HouseObjects/pan.png,0.9,1,-0.2,0.15,left,5,2020-12-14_19h05.11.464,premup-three_ses-02_part-02_label-phase2,3.2.4,Win32,60,,,,,,,,,,,,,,,,,1,0,330,298,1,329,2,,,,,,
right,0.638000011,1,382,,,,,,,,,,,,,3,5,3,stim/53.jpeg,Instruments,2,stim/objects/Instruments/oboe.png,0.9,4,0.2,-0.15,right,5,2020-12-14_19h05.11.464,premup-three_ses-02_part-02_label-phase2,3.2.4,Win32,60,,,,,,,,,,,,,,,,,1,0,330,144,1,329,2,,,,,,
right,0.676000118,1,383,,,,,,,,,,,,,3,5,3,stim/53.jpeg,Instruments,2,stim/objects/Instruments/metronome.png,0.9,3,-0.2,-0.15,right,5,2020-12-14_19h05.11.464,premup-three_ses-02_part-02_label-phase2,3.2.4,Win32,60,,,,,,,,,,,,,,,,,1,0,330,196,1,329,2,,,,,,
right,0.664000034,1,384,,,,,,,,,,,,,3,5,1,stim/51.jpeg,Instruments,2,stim/objects/Instruments/oboe.png,0.9,4,0.2,-0.15,right,5,2020-12-14_19h05.11.464,premup-three_ses-02_part-02_label-phase2,3.2.4,Win32,60,,,,,,,,,,,,,,,,,1,0,330,194,1,329,2,,,,,,
right,0.534999847,1,385,,,,,,,,,,,,,3,5,1,stim/51.jpeg,Instruments,2,stim/objects/Instruments/marimba.png,0.9,3,-0.2,-0.15,right,5,2020-12-14_19h05.11.464,premup-three_ses-02_part-02_label-phase2,3.2.4,Win32,60,,,,,,,,,,,,,,,,,1,0,330,190,1,329,2,,,,,,
