key_resp_pract.keys,key_resp_pract.rt,trial_acc,trial_index,practice_loop.thisRepN,practice_loop.thisTrialN,practice_loop.thisN,practice_loop.thisIndex,practice_loop.ran,practice_loop.order,scn_condition,scn_cat,scn_inst,scn_file,obj_cat,obj_cat_num,obj_file,trial_cond,quadrant,obj_x,obj_y,corr_ans,participant,date,expName,psychopyVersion,OS,frameRate,key_resp_trial.keys,key_resp_trial.rt,iterations.thisRepN,iterations.thisTrialN,iterations.thisN,iterations.thisIndex,iterations.ran,iterations.order,task_innerloop.thisRepN,task_innerloop.thisTrialN,task_innerloop.thisN,task_innerloop.thisIndex,task_innerloop.ran,task_innerloop.order,iteration_index,rating_acc,slider.response,slider.rt,slider_2.response,slider_2.rt,ratings.thisRepN,ratings.thisTrialN,ratings.thisN,ratings.thisIndex,ratings.ran,ratings.order,obj_cat_top,min_resp_top,max_resp_top,obj_cat_bottom,min_resp_bottom,max_resp_bottom
,,0,1,1,0,240,181,1,239,3,5,2,stim/52.jpeg,Instruments,2,stim/objects/Instruments/bassguitar2.png,0.9,1,-0.2,0.15,right,60,2021-02-22_08h25.56.490,premup-three_ses-01_part-01_label-phase1,3.2.4,Linux x86_64,60,,,,,,,,,,,,,,,,,,,,,,,,,,,,,,,,
left,1.177000284,0,2,1,0,240,36,1,239,1,1,1,stim/11.jpeg,Instruments,2,stim/objects/Instruments/accordion.png,0.5,3,-0.2,-0.15,right,60,2021-02-22_08h25.56.490,premup-three_ses-01_part-01_label-phase1,3.2.4,Linux x86_64,60,,,,,,,,,,,,,,,,,,,,,,,,,,,,,,,,
left,0.988000154,1,3,1,0,240,230,1,239,3,6,3,stim/63.jpeg,HouseObjects,1,stim/objects/HouseObjects/clothesdryingrack2.png,0.9,3,-0.2,-0.15,left,60,2021-02-22_08h25.56.490,premup-three_ses-01_part-01_label-phase1,3.2.4,Linux x86_64,60,,,,,,,,,,,,,,,,,,,,,,,,,,,,,,,,
right,0.930000067,1,4,1,0,240,69,1,239,1,2,2,stim/22.jpeg,Instruments,2,stim/objects/Instruments/bassguitar.png,0.5,1,-0.2,0.15,right,60,2021-02-22_08h25.56.490,premup-three_ses-01_part-01_label-phase1,3.2.4,Linux x86_64,60,,,,,,,,,,,,,,,,,,,,,,,,,,,,,,,,
right,0.899000168,0,5,1,0,240,123,1,239,2,4,4,stim/44.jpeg,HouseObjects,1,stim/objects/HouseObjects/basket2.png,0.7,1,-0.2,0.15,left,60,2021-02-22_08h25.56.490,premup-three_ses-01_part-01_label-phase1,3.2.4,Linux x86_64,60,,,,,,,,,,,,,,,,,,,,,,,,,,,,,,,,
left,1.029000282,0,6,1,0,240,153,1,239,2,4,2,stim/42.jpeg,Instruments,2,stim/objects/Instruments/acousticguitar2.png,0.3,2,0.2,0.15,right,60,2021-02-22_08h25.56.490,premup-three_ses-01_part-01_label-phase1,3.2.4,Linux x86_64,60,,,,,,,,,,,,,,,,,,,,,,,,,,,,,,,,
right,1.728000164,1,7,1,0,240,171,1,239,3,5,4,stim/54.jpeg,Instruments,2,stim/objects/Instruments/chime2.png,0.9,2,0.2,0.15,right,60,2021-02-22_08h25.56.490,premup-three_ses-01_part-01_label-phase1,3.2.4,Linux x86_64,60,,,,,,,,,,,,,,,,,,,,,,,,,,,,,,,,
right,1.317000151,1,8,1,0,240,63,1,239,1,2,4,stim/24.jpeg,Instruments,2,stim/objects/Instruments/chime.png,0.5,4,0.2,-0.15,right,60,2021-02-22_08h25.56.490,premup-three_ses-01_part-01_label-phase1,3.2.4,Linux x86_64,60,,,,,,,,,,,,,,,,,,,,,,,,,,,,,,,,
right,1.347000122,1,9,1,0,240,99,1,239,2,3,4,stim/34.jpeg,Instruments,2,stim/objects/Instruments/doublebass.png,0.7,4,0.2,-0.15,right,60,2021-02-22_08h25.56.490,premup-three_ses-01_part-01_label-phase1,3.2.4,Linux x86_64,60,,,,,,,,,,,,,,,,,,,,,,,,,,,,,,,,
left,0.853000164,1,10,1,0,240,204,1,239,3,6,1,stim/61.jpeg,HouseObjects,1,stim/objects/HouseObjects/bucket2.png,0.9,2,0.2,0.15,left,60,2021-02-22_08h25.56.490,premup-three_ses-01_part-01_label-phase1,3.2.4,Linux x86_64,60,,,,,,,,,,,,,,,,,,,,,,,,,,,,,,,,
,,1,1,,,,,,,3,6,4,stim/64.jpeg,HouseObjects,1,stim/objects/HouseObjects/clothespin2.png,0.9,3,-0.2,-0.15,left,60,2021-02-22_08h25.56.490,premup-three_ses-01_part-01_label-phase1,3.2.4,Linux x86_64,60,left,1.342000246,4,0,4,0,1,3,1,0,240,231,1,239,,,,,,,,,,,,,,,,,,
,,0,2,,,,,,,1,1,2,stim/12.jpeg,HouseObjects,1,stim/objects/HouseObjects/ballofstring.png,0.5,1,-0.2,0.15,left,60,2021-02-22_08h25.56.490,premup-three_ses-01_part-01_label-phase1,3.2.4,Linux x86_64,60,right,0.897000074,4,0,4,0,1,3,1,0,240,13,1,239,,,,,,,,,,,,,,,,,,
,,1,3,,,,,,,3,6,4,stim/64.jpeg,HouseObjects,1,stim/objects/HouseObjects/clothespin2.png,0.9,1,-0.2,0.15,left,60,2021-02-22_08h25.56.490,premup-three_ses-01_part-01_label-phase1,3.2.4,Linux x86_64,60,left,0.720000029,4,0,4,0,1,3,1,0,240,215,1,239,,,,,,,,,,,,,,,,,,
,,1,4,,,,,,,3,6,1,stim/61.jpeg,HouseObjects,1,stim/objects/HouseObjects/bucket2.png,0.9,2,0.2,0.15,left,60,2021-02-22_08h25.56.490,premup-three_ses-01_part-01_label-phase1,3.2.4,Linux x86_64,60,left,0.802000046,4,0,4,0,1,3,1,0,240,224,1,239,,,,,,,,,,,,,,,,,,
,,0,5,,,,,,,1,1,2,stim/12.jpeg,HouseObjects,1,stim/objects/HouseObjects/ballofstring.png,0.5,2,0.2,0.15,left,60,2021-02-22_08h25.56.490,premup-three_ses-01_part-01_label-phase1,3.2.4,Linux x86_64,60,right,1.42200017,4,0,4,0,1,3,1,0,240,5,1,239,,,,,,,,,,,,,,,,,,
,,1,6,,,,,,,3,6,2,stim/62.jpeg,HouseObjects,1,stim/objects/HouseObjects/clock2.png,0.9,3,-0.2,-0.15,left,60,2021-02-22_08h25.56.490,premup-three_ses-01_part-01_label-phase1,3.2.4,Linux x86_64,60,left,0.768000364,4,0,4,0,1,3,1,0,240,229,1,239,,,,,,,,,,,,,,,,,,
,,0,7,,,,,,,2,4,1,stim/41.jpeg,HouseObjects,1,stim/objects/HouseObjects/ashtray2.png,0.7,2,0.2,0.15,left,60,2021-02-22_08h25.56.490,premup-three_ses-01_part-01_label-phase1,3.2.4,Linux x86_64,60,right,0.931000233,4,0,4,0,1,3,1,0,240,124,1,239,,,,,,,,,,,,,,,,,,
,,0,8,,,,,,,2,4,2,stim/42.jpeg,HouseObjects,1,stim/objects/HouseObjects/ballofstring2.png,0.7,2,0.2,0.15,left,60,2021-02-22_08h25.56.490,premup-three_ses-01_part-01_label-phase1,3.2.4,Linux x86_64,60,right,1.369000196,4,0,4,0,1,3,1,0,240,129,1,239,,,,,,,,,,,,,,,,,,
,,1,9,,,,,,,1,1,1,stim/11.jpeg,Instruments,2,stim/objects/Instruments/accordion.png,0.5,3,-0.2,-0.15,right,60,2021-02-22_08h25.56.490,premup-three_ses-01_part-01_label-phase1,3.2.4,Linux x86_64,60,right,1.121000051,4,0,4,0,1,3,1,0,240,20,1,239,,,,,,,,,,,,,,,,,,
,,0,10,,,,,,,2,4,3,stim/43.jpeg,HouseObjects,1,stim/objects/HouseObjects/barbecuelighter2.png,0.7,4,0.2,-0.15,left,60,2021-02-22_08h25.56.490,premup-three_ses-01_part-01_label-phase1,3.2.4,Linux x86_64,60,right,0.967000008,4,0,4,0,1,3,1,0,240,134,1,239,,,,,,,,,,,,,,,,,,
,,0,11,,,,,,,3,5,2,stim/52.jpeg,Instruments,2,stim/objects/Instruments/bassguitar2.png,0.9,3,-0.2,-0.15,right,60,2021-02-22_08h25.56.490,premup-three_ses-01_part-01_label-phase1,3.2.4,Linux x86_64,60,left,1.703000307,4,0,4,0,1,3,1,0,240,169,1,239,,,,,,,,,,,,,,,,,,
,,0,12,,,,,,,1,1,1,stim/11.jpeg,Instruments,2,stim/objects/Instruments/accordion.png,0.5,3,-0.2,-0.15,right,60,2021-02-22_08h25.56.490,premup-three_ses-01_part-01_label-phase1,3.2.4,Linux x86_64,60,,,4,0,4,0,1,3,1,0,240,28,1,239,,,,,,,,,,,,,,,,,,
,,1,13,,,,,,,3,5,1,stim/51.jpeg,Instruments,2,stim/objects/Instruments/bassdrum2.png,0.9,1,-0.2,0.15,right,60,2021-02-22_08h25.56.490,premup-three_ses-01_part-01_label-phase1,3.2.4,Linux x86_64,60,right,1.049000263,4,0,4,0,1,3,1,0,240,168,1,239,,,,,,,,,,,,,,,,,,
,,1,14,,,,,,,3,6,2,stim/62.jpeg,HouseObjects,1,stim/objects/HouseObjects/clock2.png,0.9,4,0.2,-0.15,left,60,2021-02-22_08h25.56.490,premup-three_ses-01_part-01_label-phase1,3.2.4,Linux x86_64,60,left,1.038000107,4,0,4,0,1,3,1,0,240,201,1,239,,,,,,,,,,,,,,,,,,
,,1,15,,,,,,,2,3,2,stim/32.jpeg,Instruments,2,stim/objects/Instruments/cornet.png,0.7,2,0.2,0.15,right,60,2021-02-22_08h25.56.490,premup-three_ses-01_part-01_label-phase1,3.2.4,Linux x86_64,60,right,1.430000067,4,0,4,0,1,3,1,0,240,101,1,239,,,,,,,,,,,,,,,,,,
,,0,16,,,,,,,1,2,3,stim/23.jpeg,HouseObjects,1,stim/objects/HouseObjects/bottle.png,0.5,1,-0.2,0.15,left,60,2021-02-22_08h25.56.490,premup-three_ses-01_part-01_label-phase1,3.2.4,Linux x86_64,60,right,1.101000071,4,0,4,0,1,3,1,0,240,42,1,239,,,,,,,,,,,,,,,,,,
,,1,17,,,,,,,2,4,1,stim/41.jpeg,HouseObjects,1,stim/objects/HouseObjects/ashtray2.png,0.7,2,0.2,0.15,left,60,2021-02-22_08h25.56.490,premup-three_ses-01_part-01_label-phase1,3.2.4,Linux x86_64,60,left,0.968000174,4,0,4,0,1,3,1,0,240,120,1,239,,,,,,,,,,,,,,,,,,
,,0,18,,,,,,,3,5,3,stim/53.jpeg,Instruments,2,stim/objects/Instruments/cello2.png,0.9,1,-0.2,0.15,right,60,2021-02-22_08h25.56.490,premup-three_ses-01_part-01_label-phase1,3.2.4,Linux x86_64,60,left,1.402000189,4,0,4,0,1,3,1,0,240,198,1,239,,,,,,,,,,,,,,,,,,
,,1,19,,,,,,,1,2,3,stim/23.jpeg,Instruments,2,stim/objects/Instruments/cello.png,0.5,4,0.2,-0.15,right,60,2021-02-22_08h25.56.490,premup-three_ses-01_part-01_label-phase1,3.2.4,Linux x86_64,60,right,1.188000202,4,0,4,0,1,3,1,0,240,74,1,239,,,,,,,,,,,,,,,,,,
,,1,20,,,,,,,3,6,2,stim/62.jpeg,HouseObjects,1,stim/objects/HouseObjects/clock2.png,0.9,4,0.2,-0.15,left,60,2021-02-22_08h25.56.490,premup-three_ses-01_part-01_label-phase1,3.2.4,Linux x86_64,60,left,1.035000086,4,0,4,0,1,3,1,0,240,217,1,239,,,,,,,,,,,,,,,,,,
,,1,21,,,,,,,2,3,1,stim/31.jpeg,Instruments,2,stim/objects/Instruments/clarinet.png,0.7,3,-0.2,-0.15,right,60,2021-02-22_08h25.56.490,premup-three_ses-01_part-01_label-phase1,3.2.4,Linux x86_64,60,right,1.516000271,4,0,4,0,1,3,1,0,240,112,1,239,,,,,,,,,,,,,,,,,,
,,0,22,,,,,,,1,1,2,stim/12.jpeg,Instruments,2,stim/objects/Instruments/acousticguitar.png,0.5,4,0.2,-0.15,right,60,2021-02-22_08h25.56.490,premup-three_ses-01_part-01_label-phase1,3.2.4,Linux x86_64,60,left,1.722000122,4,0,4,0,1,3,1,0,240,37,1,239,,,,,,,,,,,,,,,,,,
,,0,23,,,,,,,3,5,4,stim/54.jpeg,Instruments,2,stim/objects/Instruments/chime2.png,0.9,3,-0.2,-0.15,right,60,2021-02-22_08h25.56.490,premup-three_ses-01_part-01_label-phase1,3.2.4,Linux x86_64,60,left,1.187000036,4,0,4,0,1,3,1,0,240,183,1,239,,,,,,,,,,,,,,,,,,
,,0,24,,,,,,,2,3,2,stim/32.jpeg,HouseObjects,1,stim/objects/HouseObjects/clock.png,0.3,2,0.2,0.15,left,60,2021-02-22_08h25.56.490,premup-three_ses-01_part-01_label-phase1,3.2.4,Linux x86_64,60,right,1.004000187,4,0,4,0,1,3,1,0,240,81,1,239,,,,,,,,,,,,,,,,,,
,,1,25,,,,,,,2,3,2,stim/32.jpeg,Instruments,2,stim/objects/Instruments/cornet.png,0.7,2,0.2,0.15,right,60,2021-02-22_08h25.56.490,premup-three_ses-01_part-01_label-phase1,3.2.4,Linux x86_64,60,right,1.316000223,4,0,4,0,1,3,1,0,240,97,1,239,,,,,,,,,,,,,,,,,,
,,1,26,,,,,,,2,3,3,stim/33.jpeg,Instruments,2,stim/objects/Instruments/cymbal.png,0.7,3,-0.2,-0.15,right,60,2021-02-22_08h25.56.490,premup-three_ses-01_part-01_label-phase1,3.2.4,Linux x86_64,60,right,1.232000113,4,0,4,0,1,3,1,0,240,98,1,239,,,,,,,,,,,,,,,,,,
,,0,27,,,,,,,1,2,4,stim/24.jpeg,HouseObjects,1,stim/objects/HouseObjects/broom.png,0.5,2,0.2,0.15,left,60,2021-02-22_08h25.56.490,premup-three_ses-01_part-01_label-phase1,3.2.4,Linux x86_64,60,right,1.53000021,4,0,4,0,1,3,1,0,240,59,1,239,,,,,,,,,,,,,,,,,,
,,0,28,,,,,,,2,4,2,stim/42.jpeg,Instruments,2,stim/objects/Instruments/acousticguitar2.png,0.3,4,0.2,-0.15,right,60,2021-02-22_08h25.56.490,premup-three_ses-01_part-01_label-phase1,3.2.4,Linux x86_64,60,,,4,0,4,0,1,3,1,0,240,149,1,239,,,,,,,,,,,,,,,,,,
,,1,29,,,,,,,2,4,1,stim/41.jpeg,Instruments,2,stim/objects/Instruments/accordion2.png,0.3,2,0.2,0.15,right,60,2021-02-22_08h25.56.490,premup-three_ses-01_part-01_label-phase1,3.2.4,Linux x86_64,60,right,1.336000204,4,0,4,0,1,3,1,0,240,148,1,239,,,,,,,,,,,,,,,,,,
,,0,30,,,,,,,1,1,4,stim/14.jpeg,HouseObjects,1,stim/objects/HouseObjects/basket.png,0.5,4,0.2,-0.15,left,60,2021-02-22_08h25.56.490,premup-three_ses-01_part-01_label-phase1,3.2.4,Linux x86_64,60,right,1.230000257,4,0,4,0,1,3,1,0,240,7,1,239,,,,,,,,,,,,,,,,,,
,,1,31,,,,,,,2,3,4,stim/34.jpeg,Instruments,2,stim/objects/Instruments/doublebass.png,0.7,4,0.2,-0.15,right,60,2021-02-22_08h25.56.490,premup-three_ses-01_part-01_label-phase1,3.2.4,Linux x86_64,60,right,1.015000105,4,0,4,0,1,3,1,0,240,115,1,239,,,,,,,,,,,,,,,,,,
,,1,32,,,,,,,1,2,4,stim/24.jpeg,HouseObjects,1,stim/objects/HouseObjects/broom.png,0.5,3,-0.2,-0.15,left,60,2021-02-22_08h25.56.490,premup-three_ses-01_part-01_label-phase1,3.2.4,Linux x86_64,60,left,1.034000158,4,0,4,0,1,3,1,0,240,47,1,239,,,,,,,,,,,,,,,,,,
,,1,33,,,,,,,1,2,3,stim/23.jpeg,HouseObjects,1,stim/objects/HouseObjects/bottle.png,0.5,2,0.2,0.15,left,60,2021-02-22_08h25.56.490,premup-three_ses-01_part-01_label-phase1,3.2.4,Linux x86_64,60,left,1.037000179,4,0,4,0,1,3,1,0,240,54,1,239,,,,,,,,,,,,,,,,,,
,,1,34,,,,,,,3,5,2,stim/52.jpeg,Instruments,2,stim/objects/Instruments/bassguitar2.png,0.9,1,-0.2,0.15,right,60,2021-02-22_08h25.56.490,premup-three_ses-01_part-01_label-phase1,3.2.4,Linux x86_64,60,right,1.486000061,4,0,4,0,1,3,1,0,240,173,1,239,,,,,,,,,,,,,,,,,,
,,0,35,,,,,,,1,2,3,stim/23.jpeg,Instruments,2,stim/objects/Instruments/cello.png,0.5,4,0.2,-0.15,right,60,2021-02-22_08h25.56.490,premup-three_ses-01_part-01_label-phase1,3.2.4,Linux x86_64,60,left,0.721000195,4,0,4,0,1,3,1,0,240,70,1,239,,,,,,,,,,,,,,,,,,
,,1,36,,,,,,,2,4,2,stim/42.jpeg,HouseObjects,1,stim/objects/HouseObjects/ballofstring2.png,0.7,3,-0.2,-0.15,left,60,2021-02-22_08h25.56.490,premup-three_ses-01_part-01_label-phase1,3.2.4,Linux x86_64,60,left,0.936000109,4,0,4,0,1,3,1,0,240,121,1,239,,,,,,,,,,,,,,,,,,
,,1,37,,,,,,,3,6,4,stim/64.jpeg,HouseObjects,1,stim/objects/HouseObjects/clothespin2.png,0.9,4,0.2,-0.15,left,60,2021-02-22_08h25.56.490,premup-three_ses-01_part-01_label-phase1,3.2.4,Linux x86_64,60,left,0.899000168,4,0,4,0,1,3,1,0,240,227,1,239,,,,,,,,,,,,,,,,,,
,,0,38,,,,,,,1,2,4,stim/24.jpeg,Instruments,2,stim/objects/Instruments/chime.png,0.5,3,-0.2,-0.15,right,60,2021-02-22_08h25.56.490,premup-three_ses-01_part-01_label-phase1,3.2.4,Linux x86_64,60,left,1.151000023,4,0,4,0,1,3,1,0,240,67,1,239,,,,,,,,,,,,,,,,,,
,,1,39,,,,,,,2,4,4,stim/44.jpeg,Instruments,2,stim/objects/Instruments/banjo2.png,0.3,1,-0.2,0.15,right,60,2021-02-22_08h25.56.490,premup-three_ses-01_part-01_label-phase1,3.2.4,Linux x86_64,60,right,1.68200016,4,0,4,0,1,3,1,0,240,151,1,239,,,,,,,,,,,,,,,,,,
,,0,40,,,,,,,2,3,3,stim/33.jpeg,HouseObjects,1,stim/objects/HouseObjects/clothesdryingrack.png,0.3,1,-0.2,0.15,left,60,2021-02-22_08h25.56.490,premup-three_ses-01_part-01_label-phase1,3.2.4,Linux x86_64,60,,,4,0,4,0,1,3,1,0,240,86,1,239,,,,,,,,,,,,,,,,,,
,,1,41,,,,,,,1,1,3,stim/13.jpeg,HouseObjects,1,stim/objects/HouseObjects/barbecuelighter.png,0.5,1,-0.2,0.15,left,60,2021-02-22_08h25.56.490,premup-three_ses-01_part-01_label-phase1,3.2.4,Linux x86_64,60,left,1.663000107,4,0,4,0,1,3,1,0,240,14,1,239,,,,,,,,,,,,,,,,,,
,,1,42,,,,,,,3,6,2,stim/62.jpeg,HouseObjects,1,stim/objects/HouseObjects/clock2.png,0.9,4,0.2,-0.15,left,60,2021-02-22_08h25.56.490,premup-three_ses-01_part-01_label-phase1,3.2.4,Linux x86_64,60,left,0.965000153,4,0,4,0,1,3,1,0,240,225,1,239,,,,,,,,,,,,,,,,,,
,,0,43,,,,,,,3,6,1,stim/61.jpeg,Instruments,2,stim/objects/Instruments/clarinet2.png,0.1,4,0.2,-0.15,right,60,2021-02-22_08h25.56.490,premup-three_ses-01_part-01_label-phase1,3.2.4,Linux x86_64,60,left,0.763000011,4,0,4,0,1,3,1,0,240,236,1,239,,,,,,,,,,,,,,,,,,
,,0,44,,,,,,,1,1,1,stim/11.jpeg,HouseObjects,1,stim/objects/HouseObjects/ashtray.png,0.5,4,0.2,-0.15,left,60,2021-02-22_08h25.56.490,premup-three_ses-01_part-01_label-phase1,3.2.4,Linux x86_64,60,right,1.086000204,4,0,4,0,1,3,1,0,240,12,1,239,,,,,,,,,,,,,,,,,,
,,1,45,,,,,,,3,6,3,stim/63.jpeg,HouseObjects,1,stim/objects/HouseObjects/clothesdryingrack2.png,0.9,4,0.2,-0.15,left,60,2021-02-22_08h25.56.490,premup-three_ses-01_part-01_label-phase1,3.2.4,Linux x86_64,60,left,0.891000032,4,0,4,0,1,3,1,0,240,210,1,239,,,,,,,,,,,,,,,,,,
,,1,46,,,,,,,1,1,4,stim/14.jpeg,Instruments,2,stim/objects/Instruments/banjo.png,0.5,3,-0.2,-0.15,right,60,2021-02-22_08h25.56.490,premup-three_ses-01_part-01_label-phase1,3.2.4,Linux x86_64,60,right,1.167000055,4,0,4,0,1,3,1,0,240,31,1,239,,,,,,,,,,,,,,,,,,
,,0,47,,,,,,,2,4,3,stim/43.jpeg,HouseObjects,1,stim/objects/HouseObjects/barbecuelighter2.png,0.7,2,0.2,0.15,left,60,2021-02-22_08h25.56.490,premup-three_ses-01_part-01_label-phase1,3.2.4,Linux x86_64,60,right,0.99000001,4,0,4,0,1,3,1,0,240,126,1,239,,,,,,,,,,,,,,,,,,
,,1,48,,,,,,,1,1,2,stim/12.jpeg,Instruments,2,stim/objects/Instruments/acousticguitar.png,0.5,2,0.2,0.15,right,60,2021-02-22_08h25.56.490,premup-three_ses-01_part-01_label-phase1,3.2.4,Linux x86_64,60,right,0.785000324,4,0,4,0,1,3,1,0,240,25,1,239,,,,,,,,,,,,,,,,,,
,,1,49,,,,,,,2,3,4,stim/34.jpeg,Instruments,2,stim/objects/Instruments/doublebass.png,0.7,4,0.2,-0.15,right,60,2021-02-22_08h25.56.490,premup-three_ses-01_part-01_label-phase1,3.2.4,Linux x86_64,60,right,0.753000259,4,0,4,0,1,3,1,0,240,99,1,239,,,,,,,,,,,,,,,,,,
,,0,50,,,,,,,3,6,2,stim/62.jpeg,Instruments,2,stim/objects/Instruments/cornet2.png,0.1,1,-0.2,0.15,right,60,2021-02-22_08h25.56.490,premup-three_ses-01_part-01_label-phase1,3.2.4,Linux x86_64,60,left,0.823000193,4,0,4,0,1,3,1,0,240,237,1,239,,,,,,,,,,,,,,,,,,
,,1,51,,,,,,,1,1,3,stim/13.jpeg,Instruments,2,stim/objects/Instruments/balalaika.png,0.5,3,-0.2,-0.15,right,60,2021-02-22_08h25.56.490,premup-three_ses-01_part-01_label-phase1,3.2.4,Linux x86_64,60,right,0.622000217,4,0,4,0,1,3,1,0,240,38,1,239,,,,,,,,,,,,,,,,,,
,,0,52,,,,,,,2,4,2,stim/42.jpeg,HouseObjects,1,stim/objects/HouseObjects/ballofstring2.png,0.7,4,0.2,-0.15,left,60,2021-02-22_08h25.56.490,premup-three_ses-01_part-01_label-phase1,3.2.4,Linux x86_64,60,right,1.101999998,4,0,4,0,1,3,1,0,240,125,1,239,,,,,,,,,,,,,,,,,,
,,0,53,,,,,,,3,5,4,stim/54.jpeg,Instruments,2,stim/objects/Instruments/chime2.png,0.9,2,0.2,0.15,right,60,2021-02-22_08h25.56.490,premup-three_ses-01_part-01_label-phase1,3.2.4,Linux x86_64,60,left,0.761000156,4,0,4,0,1,3,1,0,240,191,1,239,,,,,,,,,,,,,,,,,,
,,1,54,,,,,,,3,6,1,stim/61.jpeg,HouseObjects,1,stim/objects/HouseObjects/bucket2.png,0.9,3,-0.2,-0.15,left,60,2021-02-22_08h25.56.490,premup-three_ses-01_part-01_label-phase1,3.2.4,Linux x86_64,60,left,0.652000189,4,0,4,0,1,3,1,0,240,228,1,239,,,,,,,,,,,,,,,,,,
,,0,55,,,,,,,1,1,1,stim/11.jpeg,Instruments,2,stim/objects/Instruments/accordion.png,0.5,3,-0.2,-0.15,right,60,2021-02-22_08h25.56.490,premup-three_ses-01_part-01_label-phase1,3.2.4,Linux x86_64,60,left,1.152000189,4,0,4,0,1,3,1,0,240,36,1,239,,,,,,,,,,,,,,,,,,
,,0,56,,,,,,,1,1,3,stim/13.jpeg,HouseObjects,1,stim/objects/HouseObjects/barbecuelighter.png,0.5,4,0.2,-0.15,left,60,2021-02-22_08h25.56.490,premup-three_ses-01_part-01_label-phase1,3.2.4,Linux x86_64,60,right,0.936000347,4,0,4,0,1,3,1,0,240,10,1,239,,,,,,,,,,,,,,,,,,
,,1,57,,,,,,,3,6,2,stim/62.jpeg,HouseObjects,1,stim/objects/HouseObjects/clock2.png,0.9,1,-0.2,0.15,left,60,2021-02-22_08h25.56.490,premup-three_ses-01_part-01_label-phase1,3.2.4,Linux x86_64,60,left,0.902000189,4,0,4,0,1,3,1,0,240,233,1,239,,,,,,,,,,,,,,,,,,
,,1,58,,,,,,,2,3,4,stim/34.jpeg,Instruments,2,stim/objects/Instruments/doublebass.png,0.7,3,-0.2,-0.15,right,60,2021-02-22_08h25.56.490,premup-three_ses-01_part-01_label-phase1,3.2.4,Linux x86_64,60,right,0.69900012,4,0,4,0,1,3,1,0,240,103,1,239,,,,,,,,,,,,,,,,,,
,,1,59,,,,,,,2,4,1,stim/41.jpeg,Instruments,2,stim/objects/Instruments/accordion2.png,0.3,1,-0.2,0.15,right,60,2021-02-22_08h25.56.490,premup-three_ses-01_part-01_label-phase1,3.2.4,Linux x86_64,60,right,1.156000137,4,0,4,0,1,3,1,0,240,156,1,239,,,,,,,,,,,,,,,,,,
,,0,60,,,,,,,2,4,3,stim/43.jpeg,HouseObjects,1,stim/objects/HouseObjects/barbecuelighter2.png,0.7,2,0.2,0.15,left,60,2021-02-22_08h25.56.490,premup-three_ses-01_part-01_label-phase1,3.2.4,Linux x86_64,60,right,0.835000038,4,0,4,0,1,3,1,0,240,122,1,239,,,,,,,,,,,,,,,,,,
,,1,61,,,,,,,3,6,2,stim/62.jpeg,HouseObjects,1,stim/objects/HouseObjects/clock2.png,0.9,1,-0.2,0.15,left,60,2021-02-22_08h25.56.490,premup-three_ses-01_part-01_label-phase1,3.2.4,Linux x86_64,60,left,0.703000307,4,0,4,0,1,3,1,0,240,209,1,239,,,,,,,,,,,,,,,,,,
,,0,62,,,,,,,1,1,1,stim/11.jpeg,HouseObjects,1,stim/objects/HouseObjects/ashtray.png,0.5,2,0.2,0.15,left,60,2021-02-22_08h25.56.490,premup-three_ses-01_part-01_label-phase1,3.2.4,Linux x86_64,60,right,1.367000103,4,0,4,0,1,3,1,0,240,0,1,239,,,,,,,,,,,,,,,,,,
,,1,63,,,,,,,2,3,1,stim/31.jpeg,Instruments,2,stim/objects/Instruments/clarinet.png,0.7,4,0.2,-0.15,right,60,2021-02-22_08h25.56.490,premup-three_ses-01_part-01_label-phase1,3.2.4,Linux x86_64,60,right,0.875000238,4,0,4,0,1,3,1,0,240,108,1,239,,,,,,,,,,,,,,,,,,
,,0,64,,,,,,,1,1,2,stim/12.jpeg,Instruments,2,stim/objects/Instruments/acousticguitar.png,0.5,3,-0.2,-0.15,right,60,2021-02-22_08h25.56.490,premup-three_ses-01_part-01_label-phase1,3.2.4,Linux x86_64,60,left,0.870000124,4,0,4,0,1,3,1,0,240,33,1,239,,,,,,,,,,,,,,,,,,
,,0,65,,,,,,,3,5,3,stim/53.jpeg,HouseObjects,1,stim/objects/HouseObjects/bottle2.png,0.1,2,0.2,0.15,left,60,2021-02-22_08h25.56.490,premup-three_ses-01_part-01_label-phase1,3.2.4,Linux x86_64,60,right,1.298000097,4,0,4,0,1,3,1,0,240,162,1,239,,,,,,,,,,,,,,,,,,
,,0,66,,,,,,,1,2,2,stim/22.jpeg,Instruments,2,stim/objects/Instruments/bassguitar.png,0.5,1,-0.2,0.15,right,60,2021-02-22_08h25.56.490,premup-three_ses-01_part-01_label-phase1,3.2.4,Linux x86_64,60,left,0.879000187,4,0,4,0,1,3,1,0,240,65,1,239,,,,,,,,,,,,,,,,,,
,,0,67,,,,,,,1,2,2,stim/22.jpeg,Instruments,2,stim/objects/Instruments/bassguitar.png,0.5,1,-0.2,0.15,right,60,2021-02-22_08h25.56.490,premup-three_ses-01_part-01_label-phase1,3.2.4,Linux x86_64,60,left,0.902000189,4,0,4,0,1,3,1,0,240,69,1,239,,,,,,,,,,,,,,,,,,
,,0,68,,,,,,,2,4,4,stim/44.jpeg,HouseObjects,1,stim/objects/HouseObjects/basket2.png,0.7,3,-0.2,-0.15,left,60,2021-02-22_08h25.56.490,premup-three_ses-01_part-01_label-phase1,3.2.4,Linux x86_64,60,right,0.952000141,4,0,4,0,1,3,1,0,240,147,1,239,,,,,,,,,,,,,,,,,,
,,1,69,,,,,,,2,3,4,stim/34.jpeg,Instruments,2,stim/objects/Instruments/doublebass.png,0.7,4,0.2,-0.15,right,60,2021-02-22_08h25.56.490,premup-three_ses-01_part-01_label-phase1,3.2.4,Linux x86_64,60,right,0.75,4,0,4,0,1,3,1,0,240,119,1,239,,,,,,,,,,,,,,,,,,
,,1,70,,,,,,,3,5,1,stim/51.jpeg,Instruments,2,stim/objects/Instruments/bassdrum2.png,0.9,3,-0.2,-0.15,right,60,2021-02-22_08h25.56.490,premup-three_ses-01_part-01_label-phase1,3.2.4,Linux x86_64,60,right,1.197000265,4,0,4,0,1,3,1,0,240,192,1,239,,,,,,,,,,,,,,,,,,
,,1,71,,,,,,,3,5,3,stim/53.jpeg,Instruments,2,stim/objects/Instruments/cello2.png,0.9,2,0.2,0.15,right,60,2021-02-22_08h25.56.490,premup-three_ses-01_part-01_label-phase1,3.2.4,Linux x86_64,60,right,1.654000044,4,0,4,0,1,3,1,0,240,178,1,239,,,,,,,,,,,,,,,,,,
,,0,72,,,,,,,2,4,4,stim/44.jpeg,HouseObjects,1,stim/objects/HouseObjects/basket2.png,0.7,4,0.2,-0.15,left,60,2021-02-22_08h25.56.490,premup-three_ses-01_part-01_label-phase1,3.2.4,Linux x86_64,60,right,1.021000147,4,0,4,0,1,3,1,0,240,135,1,239,,,,,,,,,,,,,,,,,,
,,1,73,,,,,,,2,3,2,stim/32.jpeg,Instruments,2,stim/objects/Instruments/cornet.png,0.7,1,-0.2,0.15,right,60,2021-02-22_08h25.56.490,premup-three_ses-01_part-01_label-phase1,3.2.4,Linux x86_64,60,right,0.76699996,4,0,4,0,1,3,1,0,240,105,1,239,,,,,,,,,,,,,,,,,,
,,1,74,,,,,,,3,6,1,stim/61.jpeg,HouseObjects,1,stim/objects/HouseObjects/bucket2.png,0.9,1,-0.2,0.15,left,60,2021-02-22_08h25.56.490,premup-three_ses-01_part-01_label-phase1,3.2.4,Linux x86_64,60,left,0.816000223,4,0,4,0,1,3,1,0,240,216,1,239,,,,,,,,,,,,,,,,,,
,,0,75,,,,,,,1,2,4,stim/24.jpeg,Instruments,2,stim/objects/Instruments/chime.png,0.5,1,-0.2,0.15,right,60,2021-02-22_08h25.56.490,premup-three_ses-01_part-01_label-phase1,3.2.4,Linux x86_64,60,left,0.75,4,0,4,0,1,3,1,0,240,79,1,239,,,,,,,,,,,,,,,,,,
,,0,76,,,,,,,3,5,1,stim/51.jpeg,HouseObjects,1,stim/objects/HouseObjects/bleachbottle2.png,0.1,1,-0.2,0.15,left,60,2021-02-22_08h25.56.490,premup-three_ses-01_part-01_label-phase1,3.2.4,Linux x86_64,60,right,1.272000313,4,0,4,0,1,3,1,0,240,160,1,239,,,,,,,,,,,,,,,,,,
,,0,77,,,,,,,2,3,3,stim/33.jpeg,HouseObjects,1,stim/objects/HouseObjects/clothesdryingrack.png,0.3,4,0.2,-0.15,left,60,2021-02-22_08h25.56.490,premup-three_ses-01_part-01_label-phase1,3.2.4,Linux x86_64,60,right,0.874000072,4,0,4,0,1,3,1,0,240,82,1,239,,,,,,,,,,,,,,,,,,
,,1,78,,,,,,,1,2,2,stim/22.jpeg,HouseObjects,1,stim/objects/HouseObjects/blender.png,0.5,3,-0.2,-0.15,left,60,2021-02-22_08h25.56.490,premup-three_ses-01_part-01_label-phase1,3.2.4,Linux x86_64,60,left,0.736999989,4,0,4,0,1,3,1,0,240,57,1,239,,,,,,,,,,,,,,,,,,
,,0,79,,,,,,,1,2,2,stim/22.jpeg,Instruments,2,stim/objects/Instruments/bassguitar.png,0.5,2,0.2,0.15,right,60,2021-02-22_08h25.56.490,premup-three_ses-01_part-01_label-phase1,3.2.4,Linux x86_64,60,left,0.95600009,4,0,4,0,1,3,1,0,240,73,1,239,,,,,,,,,,,,,,,,,,
,,0,80,,,,,,,1,1,1,stim/11.jpeg,HouseObjects,1,stim/objects/HouseObjects/ashtray.png,0.5,2,0.2,0.15,left,60,2021-02-22_08h25.56.490,premup-three_ses-01_part-01_label-phase1,3.2.4,Linux x86_64,60,,,4,0,4,0,1,3,1,0,240,4,1,239,,,,,,,,,,,,,,,,,,
,,0,81,,,,,,,3,5,2,stim/52.jpeg,Instruments,2,stim/objects/Instruments/bassguitar2.png,0.9,3,-0.2,-0.15,right,60,2021-02-22_08h25.56.490,premup-three_ses-01_part-01_label-phase1,3.2.4,Linux x86_64,60,left,0.69900012,4,0,4,0,1,3,1,0,240,193,1,239,,,,,,,,,,,,,,,,,,
,,1,82,,,,,,,1,1,1,stim/11.jpeg,HouseObjects,1,stim/objects/HouseObjects/ashtray.png,0.5,2,0.2,0.15,left,60,2021-02-22_08h25.56.490,premup-three_ses-01_part-01_label-phase1,3.2.4,Linux x86_64,60,left,0.953000069,4,0,4,0,1,3,1,0,240,8,1,239,,,,,,,,,,,,,,,,,,
,,0,83,,,,,,,3,5,4,stim/54.jpeg,HouseObjects,1,stim/objects/HouseObjects/broom2.png,0.1,4,0.2,-0.15,left,60,2021-02-22_08h25.56.490,premup-three_ses-01_part-01_label-phase1,3.2.4,Linux x86_64,60,right,0.785000324,4,0,4,0,1,3,1,0,240,163,1,239,,,,,,,,,,,,,,,,,,
,,1,84,,,,,,,1,2,2,stim/22.jpeg,HouseObjects,1,stim/objects/HouseObjects/blender.png,0.5,2,0.2,0.15,left,60,2021-02-22_08h25.56.490,premup-three_ses-01_part-01_label-phase1,3.2.4,Linux x86_64,60,left,0.785000086,4,0,4,0,1,3,1,0,240,45,1,239,,,,,,,,,,,,,,,,,,
,,0,85,,,,,,,3,5,4,stim/54.jpeg,Instruments,2,stim/objects/Instruments/chime2.png,0.9,2,0.2,0.15,right,60,2021-02-22_08h25.56.490,premup-three_ses-01_part-01_label-phase1,3.2.4,Linux x86_64,60,left,0.903000116,4,0,4,0,1,3,1,0,240,171,1,239,,,,,,,,,,,,,,,,,,
,,1,86,,,,,,,1,2,1,stim/21.jpeg,HouseObjects,1,stim/objects/HouseObjects/bleachbottle.png,0.5,1,-0.2,0.15,left,60,2021-02-22_08h25.56.490,premup-three_ses-01_part-01_label-phase1,3.2.4,Linux x86_64,60,left,0.732000113,4,0,4,0,1,3,1,0,240,40,1,239,,,,,,,,,,,,,,,,,,
,,1,87,,,,,,,2,4,4,stim/44.jpeg,HouseObjects,1,stim/objects/HouseObjects/basket2.png,0.7,1,-0.2,0.15,left,60,2021-02-22_08h25.56.490,premup-three_ses-01_part-01_label-phase1,3.2.4,Linux x86_64,60,left,1.088000059,4,0,4,0,1,3,1,0,240,123,1,239,,,,,,,,,,,,,,,,,,
,,1,88,,,,,,,2,3,3,stim/33.jpeg,Instruments,2,stim/objects/Instruments/cymbal.png,0.7,2,0.2,0.15,right,60,2021-02-22_08h25.56.490,premup-three_ses-01_part-01_label-phase1,3.2.4,Linux x86_64,60,right,0.686000347,4,0,4,0,1,3,1,0,240,110,1,239,,,,,,,,,,,,,,,,,,
,,1,89,,,,,,,2,4,2,stim/42.jpeg,HouseObjects,1,stim/objects/HouseObjects/ballofstring2.png,0.7,3,-0.2,-0.15,left,60,2021-02-22_08h25.56.490,premup-three_ses-01_part-01_label-phase1,3.2.4,Linux x86_64,60,left,0.837000132,4,0,4,0,1,3,1,0,240,145,1,239,,,,,,,,,,,,,,,,,,
,,0,90,,,,,,,2,4,3,stim/43.jpeg,Instruments,2,stim/objects/Instruments/balalaika2.png,0.3,3,-0.2,-0.15,right,60,2021-02-22_08h25.56.490,premup-three_ses-01_part-01_label-phase1,3.2.4,Linux x86_64,60,left,0.700000286,4,0,4,0,1,3,1,0,240,150,1,239,,,,,,,,,,,,,,,,,,
,,0,91,,,,,,,1,1,3,stim/13.jpeg,Instruments,2,stim/objects/Instruments/balalaika.png,0.5,4,0.2,-0.15,right,60,2021-02-22_08h25.56.490,premup-three_ses-01_part-01_label-phase1,3.2.4,Linux x86_64,60,left,0.769999981,4,0,4,0,1,3,1,0,240,26,1,239,,,,,,,,,,,,,,,,,,
,,1,92,,,,,,,3,5,2,stim/52.jpeg,Instruments,2,stim/objects/Instruments/bassguitar2.png,0.9,1,-0.2,0.15,right,60,2021-02-22_08h25.56.490,premup-three_ses-01_part-01_label-phase1,3.2.4,Linux x86_64,60,right,0.837000132,4,0,4,0,1,3,1,0,240,189,1,239,,,,,,,,,,,,,,,,,,
,,0,93,,,,,,,2,4,1,stim/41.jpeg,HouseObjects,1,stim/objects/HouseObjects/ashtray2.png,0.7,2,0.2,0.15,left,60,2021-02-22_08h25.56.490,premup-three_ses-01_part-01_label-phase1,3.2.4,Linux x86_64,60,right,0.869000196,4,0,4,0,1,3,1,0,240,136,1,239,,,,,,,,,,,,,,,,,,
,,1,94,,,,,,,3,5,2,stim/52.jpeg,HouseObjects,1,stim/objects/HouseObjects/blender2.png,0.1,3,-0.2,-0.15,left,60,2021-02-22_08h25.56.490,premup-three_ses-01_part-01_label-phase1,3.2.4,Linux x86_64,60,left,0.900000334,4,0,4,0,1,3,1,0,240,161,1,239,,,,,,,,,,,,,,,,,,
,,1,95,,,,,,,1,1,2,stim/12.jpeg,HouseObjects,1,stim/objects/HouseObjects/ballofstring.png,0.5,3,-0.2,-0.15,left,60,2021-02-22_08h25.56.490,premup-three_ses-01_part-01_label-phase1,3.2.4,Linux x86_64,60,left,1.1650002,4,0,4,0,1,3,1,0,240,9,1,239,,,,,,,,,,,,,,,,,,
,,0,96,,,,,,,2,3,1,stim/31.jpeg,HouseObjects,1,stim/objects/HouseObjects/bucket.png,0.3,3,-0.2,-0.15,left,60,2021-02-22_08h25.56.490,premup-three_ses-01_part-01_label-phase1,3.2.4,Linux x86_64,60,right,0.865000248,4,0,4,0,1,3,1,0,240,80,1,239,,,,,,,,,,,,,,,,,,
,,1,97,,,,,,,1,1,4,stim/14.jpeg,HouseObjects,1,stim/objects/HouseObjects/basket.png,0.5,3,-0.2,-0.15,left,60,2021-02-22_08h25.56.490,premup-three_ses-01_part-01_label-phase1,3.2.4,Linux x86_64,60,left,0.850000143,4,0,4,0,1,3,1,0,240,11,1,239,,,,,,,,,,,,,,,,,,
,,1,98,,,,,,,3,6,3,stim/63.jpeg,HouseObjects,1,stim/objects/HouseObjects/clothesdryingrack2.png,0.9,4,0.2,-0.15,left,60,2021-02-22_08h25.56.490,premup-three_ses-01_part-01_label-phase1,3.2.4,Linux x86_64,60,left,0.826000214,4,0,4,0,1,3,1,0,240,214,1,239,,,,,,,,,,,,,,,,,,
,,0,99,,,,,,,2,4,3,stim/43.jpeg,HouseObjects,1,stim/objects/HouseObjects/barbecuelighter2.png,0.7,4,0.2,-0.15,left,60,2021-02-22_08h25.56.490,premup-three_ses-01_part-01_label-phase1,3.2.4,Linux x86_64,60,right,1.003000021,4,0,4,0,1,3,1,0,240,142,1,239,,,,,,,,,,,,,,,,,,
,,0,100,,,,,,,1,1,1,stim/11.jpeg,Instruments,2,stim/objects/Instruments/accordion.png,0.5,4,0.2,-0.15,right,60,2021-02-22_08h25.56.490,premup-three_ses-01_part-01_label-phase1,3.2.4,Linux x86_64,60,left,0.868000269,4,0,4,0,1,3,1,0,240,24,1,239,,,,,,,,,,,,,,,,,,
,,1,101,,,,,,,3,5,4,stim/54.jpeg,Instruments,2,stim/objects/Instruments/chime2.png,0.9,4,0.2,-0.15,right,60,2021-02-22_08h25.56.490,premup-three_ses-01_part-01_label-phase1,3.2.4,Linux x86_64,60,right,0.770000219,4,0,4,0,1,3,1,0,240,179,1,239,,,,,,,,,,,,,,,,,,
,,1,102,,,,,,,2,3,3,stim/33.jpeg,HouseObjects,1,stim/objects/HouseObjects/clothesdryingrack.png,0.3,3,-0.2,-0.15,left,60,2021-02-22_08h25.56.490,premup-three_ses-01_part-01_label-phase1,3.2.4,Linux x86_64,60,left,0.871999979,4,0,4,0,1,3,1,0,240,90,1,239,,,,,,,,,,,,,,,,,,
,,0,103,,,,,,,2,4,3,stim/43.jpeg,Instruments,2,stim/objects/Instruments/balalaika2.png,0.3,2,0.2,0.15,right,60,2021-02-22_08h25.56.490,premup-three_ses-01_part-01_label-phase1,3.2.4,Linux x86_64,60,left,0.920000076,4,0,4,0,1,3,1,0,240,158,1,239,,,,,,,,,,,,,,,,,,
,,0,104,,,,,,,1,1,2,stim/12.jpeg,Instruments,2,stim/objects/Instruments/acousticguitar.png,0.5,2,0.2,0.15,right,60,2021-02-22_08h25.56.490,premup-three_ses-01_part-01_label-phase1,3.2.4,Linux x86_64,60,left,0.752000332,4,0,4,0,1,3,1,0,240,21,1,239,,,,,,,,,,,,,,,,,,
,,1,105,,,,,,,2,4,2,stim/42.jpeg,HouseObjects,1,stim/objects/HouseObjects/ballofstring2.png,0.7,2,0.2,0.15,left,60,2021-02-22_08h25.56.490,premup-three_ses-01_part-01_label-phase1,3.2.4,Linux x86_64,60,left,0.885000229,4,0,4,0,1,3,1,0,240,133,1,239,,,,,,,,,,,,,,,,,,
,,1,106,,,,,,,2,3,1,stim/31.jpeg,Instruments,2,stim/objects/Instruments/clarinet.png,0.7,4,0.2,-0.15,right,60,2021-02-22_08h25.56.490,premup-three_ses-01_part-01_label-phase1,3.2.4,Linux x86_64,60,right,0.769000053,4,0,4,0,1,3,1,0,240,96,1,239,,,,,,,,,,,,,,,,,,
,,1,107,,,,,,,3,6,1,stim/61.jpeg,HouseObjects,1,stim/objects/HouseObjects/bucket2.png,0.9,2,0.2,0.15,left,60,2021-02-22_08h25.56.490,premup-three_ses-01_part-01_label-phase1,3.2.4,Linux x86_64,60,left,0.870000124,4,0,4,0,1,3,1,0,240,200,1,239,,,,,,,,,,,,,,,,,,
,,1,108,,,,,,,1,1,3,stim/13.jpeg,HouseObjects,1,stim/objects/HouseObjects/barbecuelighter.png,0.5,3,-0.2,-0.15,left,60,2021-02-22_08h25.56.490,premup-three_ses-01_part-01_label-phase1,3.2.4,Linux x86_64,60,left,0.903000355,4,0,4,0,1,3,1,0,240,18,1,239,,,,,,,,,,,,,,,,,,
,,1,109,,,,,,,3,5,4,stim/54.jpeg,Instruments,2,stim/objects/Instruments/chime2.png,0.9,3,-0.2,-0.15,right,60,2021-02-22_08h25.56.490,premup-three_ses-01_part-01_label-phase1,3.2.4,Linux x86_64,60,right,1.222000122,4,0,4,0,1,3,1,0,240,199,1,239,,,,,,,,,,,,,,,,,,
,,0,110,,,,,,,2,3,2,stim/32.jpeg,HouseObjects,1,stim/objects/HouseObjects/clock.png,0.3,3,-0.2,-0.15,left,60,2021-02-22_08h25.56.490,premup-three_ses-01_part-01_label-phase1,3.2.4,Linux x86_64,60,right,0.738000154,4,0,4,0,1,3,1,0,240,85,1,239,,,,,,,,,,,,,,,,,,
,,1,111,,,,,,,3,6,4,stim/64.jpeg,HouseObjects,1,stim/objects/HouseObjects/clothespin2.png,0.9,3,-0.2,-0.15,left,60,2021-02-22_08h25.56.490,premup-three_ses-01_part-01_label-phase1,3.2.4,Linux x86_64,60,left,0.685000181,4,0,4,0,1,3,1,0,240,219,1,239,,,,,,,,,,,,,,,,,,
,,0,112,,,,,,,3,5,3,stim/53.jpeg,Instruments,2,stim/objects/Instruments/cello2.png,0.9,1,-0.2,0.15,right,60,2021-02-22_08h25.56.490,premup-three_ses-01_part-01_label-phase1,3.2.4,Linux x86_64,60,left,0.99600029,4,0,4,0,1,3,1,0,240,174,1,239,,,,,,,,,,,,,,,,,,
,,0,113,,,,,,,1,2,3,stim/23.jpeg,Instruments,2,stim/objects/Instruments/cello.png,0.5,4,0.2,-0.15,right,60,2021-02-22_08h25.56.490,premup-three_ses-01_part-01_label-phase1,3.2.4,Linux x86_64,60,left,0.752000093,4,0,4,0,1,3,1,0,240,62,1,239,,,,,,,,,,,,,,,,,,
,,0,114,,,,,,,3,6,3,stim/63.jpeg,Instruments,2,stim/objects/Instruments/cymbal2.png,0.1,4,0.2,-0.15,right,60,2021-02-22_08h25.56.490,premup-three_ses-01_part-01_label-phase1,3.2.4,Linux x86_64,60,left,0.686000109,4,0,4,0,1,3,1,0,240,238,1,239,,,,,,,,,,,,,,,,,,
,,1,115,,,,,,,2,3,1,stim/31.jpeg,Instruments,2,stim/objects/Instruments/clarinet.png,0.7,1,-0.2,0.15,right,60,2021-02-22_08h25.56.490,premup-three_ses-01_part-01_label-phase1,3.2.4,Linux x86_64,60,right,0.802000046,4,0,4,0,1,3,1,0,240,100,1,239,,,,,,,,,,,,,,,,,,
,,0,116,,,,,,,1,2,4,stim/24.jpeg,Instruments,2,stim/objects/Instruments/chime.png,0.5,1,-0.2,0.15,right,60,2021-02-22_08h25.56.490,premup-three_ses-01_part-01_label-phase1,3.2.4,Linux x86_64,60,left,0.902000189,4,0,4,0,1,3,1,0,240,71,1,239,,,,,,,,,,,,,,,,,,
,,1,117,,,,,,,3,5,3,stim/53.jpeg,Instruments,2,stim/objects/Instruments/cello2.png,0.9,2,0.2,0.15,right,60,2021-02-22_08h25.56.490,premup-three_ses-01_part-01_label-phase1,3.2.4,Linux x86_64,60,right,1.001000166,4,0,4,0,1,3,1,0,240,186,1,239,,,,,,,,,,,,,,,,,,
,,0,118,,,,,,,2,4,1,stim/41.jpeg,Instruments,2,stim/objects/Instruments/accordion2.png,0.3,3,-0.2,-0.15,right,60,2021-02-22_08h25.56.490,premup-three_ses-01_part-01_label-phase1,3.2.4,Linux x86_64,60,left,0.779000044,4,0,4,0,1,3,1,0,240,152,1,239,,,,,,,,,,,,,,,,,,
,,1,119,,,,,,,1,2,1,stim/21.jpeg,Instruments,2,stim/objects/Instruments/bassdrum.png,0.5,2,0.2,0.15,right,60,2021-02-22_08h25.56.490,premup-three_ses-01_part-01_label-phase1,3.2.4,Linux x86_64,60,right,1.116000175,4,0,4,0,1,3,1,0,240,60,1,239,,,,,,,,,,,,,,,,,,
,,0,120,,,,,,,1,2,2,stim/22.jpeg,Instruments,2,stim/objects/Instruments/bassguitar.png,0.5,1,-0.2,0.15,right,60,2021-02-22_08h25.56.490,premup-three_ses-01_part-01_label-phase1,3.2.4,Linux x86_64,60,left,1.559000015,4,0,4,0,1,3,1,0,240,61,1,239,,,,,,,,,,,,,,,,,,
,,1,121,,,,,,,1,2,1,stim/21.jpeg,Instruments,2,stim/objects/Instruments/bassdrum.png,0.5,4,0.2,-0.15,right,60,2021-02-22_08h25.56.490,premup-three_ses-01_part-01_label-phase1,3.2.4,Linux x86_64,60,right,0.852000237,4,0,4,0,1,3,1,0,240,68,1,239,,,,,,,,,,,,,,,,,,
,,0,122,,,,,,,2,3,2,stim/32.jpeg,HouseObjects,1,stim/objects/HouseObjects/clock.png,0.3,4,0.2,-0.15,left,60,2021-02-22_08h25.56.490,premup-three_ses-01_part-01_label-phase1,3.2.4,Linux x86_64,60,right,0.686000109,4,0,4,0,1,3,1,0,240,89,1,239,,,,,,,,,,,,,,,,,,
,,1,123,,,,,,,2,3,4,stim/34.jpeg,Instruments,2,stim/objects/Instruments/doublebass.png,0.7,3,-0.2,-0.15,right,60,2021-02-22_08h25.56.490,premup-three_ses-01_part-01_label-phase1,3.2.4,Linux x86_64,60,right,0.850000143,4,0,4,0,1,3,1,0,240,111,1,239,,,,,,,,,,,,,,,,,,
,,1,124,,,,,,,2,3,1,stim/31.jpeg,Instruments,2,stim/objects/Instruments/clarinet.png,0.7,1,-0.2,0.15,right,60,2021-02-22_08h25.56.490,premup-three_ses-01_part-01_label-phase1,3.2.4,Linux x86_64,60,right,0.889000177,4,0,4,0,1,3,1,0,240,92,1,239,,,,,,,,,,,,,,,,,,
,,0,125,,,,,,,2,3,1,stim/31.jpeg,HouseObjects,1,stim/objects/HouseObjects/bucket.png,0.3,1,-0.2,0.15,left,60,2021-02-22_08h25.56.490,premup-three_ses-01_part-01_label-phase1,3.2.4,Linux x86_64,60,right,0.717000246,4,0,4,0,1,3,1,0,240,88,1,239,,,,,,,,,,,,,,,,,,
,,0,126,,,,,,,3,5,1,stim/51.jpeg,Instruments,2,stim/objects/Instruments/bassdrum2.png,0.9,4,0.2,-0.15,right,60,2021-02-22_08h25.56.490,premup-three_ses-01_part-01_label-phase1,3.2.4,Linux x86_64,60,left,1.299000025,4,0,4,0,1,3,1,0,240,176,1,239,,,,,,,,,,,,,,,,,,
,,1,127,,,,,,,2,3,1,stim/31.jpeg,Instruments,2,stim/objects/Instruments/clarinet.png,0.7,1,-0.2,0.15,right,60,2021-02-22_08h25.56.490,premup-three_ses-01_part-01_label-phase1,3.2.4,Linux x86_64,60,right,0.916000128,4,0,4,0,1,3,1,0,240,104,1,239,,,,,,,,,,,,,,,,,,
,,1,128,,,,,,,2,4,4,stim/44.jpeg,Instruments,2,stim/objects/Instruments/banjo2.png,0.3,4,0.2,-0.15,right,60,2021-02-22_08h25.56.490,premup-three_ses-01_part-01_label-phase1,3.2.4,Linux x86_64,60,right,1.19900012,4,0,4,0,1,3,1,0,240,159,1,239,,,,,,,,,,,,,,,,,,
,,0,129,,,,,,,2,4,4,stim/44.jpeg,HouseObjects,1,stim/objects/HouseObjects/basket2.png,0.7,3,-0.2,-0.15,left,60,2021-02-22_08h25.56.490,premup-three_ses-01_part-01_label-phase1,3.2.4,Linux x86_64,60,right,0.957000256,4,0,4,0,1,3,1,0,240,131,1,239,,,,,,,,,,,,,,,,,,
,,1,130,,,,,,,3,6,3,stim/63.jpeg,HouseObjects,1,stim/objects/HouseObjects/clothesdryingrack2.png,0.9,1,-0.2,0.15,left,60,2021-02-22_08h25.56.490,premup-three_ses-01_part-01_label-phase1,3.2.4,Linux x86_64,60,left,0.753000259,4,0,4,0,1,3,1,0,240,226,1,239,,,,,,,,,,,,,,,,,,
,,1,131,,,,,,,3,6,1,stim/61.jpeg,HouseObjects,1,stim/objects/HouseObjects/bucket2.png,0.9,3,-0.2,-0.15,left,60,2021-02-22_08h25.56.490,premup-three_ses-01_part-01_label-phase1,3.2.4,Linux x86_64,60,left,0.717000246,4,0,4,0,1,3,1,0,240,220,1,239,,,,,,,,,,,,,,,,,,
,,1,132,,,,,,,1,1,3,stim/13.jpeg,Instruments,2,stim/objects/Instruments/balalaika.png,0.5,2,0.2,0.15,right,60,2021-02-22_08h25.56.490,premup-three_ses-01_part-01_label-phase1,3.2.4,Linux x86_64,60,right,1.005000114,4,0,4,0,1,3,1,0,240,22,1,239,,,,,,,,,,,,,,,,,,
,,1,133,,,,,,,1,1,4,stim/14.jpeg,HouseObjects,1,stim/objects/HouseObjects/basket.png,0.5,3,-0.2,-0.15,left,60,2021-02-22_08h25.56.490,premup-three_ses-01_part-01_label-phase1,3.2.4,Linux x86_64,60,left,1.453000307,4,0,4,0,1,3,1,0,240,15,1,239,,,,,,,,,,,,,,,,,,
,,0,134,,,,,,,3,5,1,stim/51.jpeg,Instruments,2,stim/objects/Instruments/bassdrum2.png,0.9,3,-0.2,-0.15,right,60,2021-02-22_08h25.56.490,premup-three_ses-01_part-01_label-phase1,3.2.4,Linux x86_64,60,left,0.919000149,4,0,4,0,1,3,1,0,240,196,1,239,,,,,,,,,,,,,,,,,,
,,1,135,,,,,,,1,2,1,stim/21.jpeg,Instruments,2,stim/objects/Instruments/bassdrum.png,0.5,1,-0.2,0.15,right,60,2021-02-22_08h25.56.490,premup-three_ses-01_part-01_label-phase1,3.2.4,Linux x86_64,60,right,1.400000095,4,0,4,0,1,3,1,0,240,64,1,239,,,,,,,,,,,,,,,,,,
,,1,136,,,,,,,3,6,1,stim/61.jpeg,HouseObjects,1,stim/objects/HouseObjects/bucket2.png,0.9,2,0.2,0.15,left,60,2021-02-22_08h25.56.490,premup-three_ses-01_part-01_label-phase1,3.2.4,Linux x86_64,60,left,0.671000242,4,0,4,0,1,3,1,0,240,212,1,239,,,,,,,,,,,,,,,,,,
,,1,137,,,,,,,3,6,3,stim/63.jpeg,HouseObjects,1,stim/objects/HouseObjects/clothesdryingrack2.png,0.9,3,-0.2,-0.15,left,60,2021-02-22_08h25.56.490,premup-three_ses-01_part-01_label-phase1,3.2.4,Linux x86_64,60,left,0.704000235,4,0,4,0,1,3,1,0,240,230,1,239,,,,,,,,,,,,,,,,,,
,,1,138,,,,,,,1,2,4,stim/24.jpeg,Instruments,2,stim/objects/Instruments/chime.png,0.5,1,-0.2,0.15,right,60,2021-02-22_08h25.56.490,premup-three_ses-01_part-01_label-phase1,3.2.4,Linux x86_64,60,right,1.103000164,4,0,4,0,1,3,1,0,240,75,1,239,,,,,,,,,,,,,,,,,,
,,1,139,,,,,,,2,3,2,stim/32.jpeg,Instruments,2,stim/objects/Instruments/cornet.png,0.7,1,-0.2,0.15,right,60,2021-02-22_08h25.56.490,premup-three_ses-01_part-01_label-phase1,3.2.4,Linux x86_64,60,right,0.819000244,4,0,4,0,1,3,1,0,240,109,1,239,,,,,,,,,,,,,,,,,,
,,1,140,,,,,,,3,5,3,stim/53.jpeg,Instruments,2,stim/objects/Instruments/cello2.png,0.9,3,-0.2,-0.15,right,60,2021-02-22_08h25.56.490,premup-three_ses-01_part-01_label-phase1,3.2.4,Linux x86_64,60,right,0.837000132,4,0,4,0,1,3,1,0,240,166,1,239,,,,,,,,,,,,,,,,,,
,,1,141,,,,,,,1,1,3,stim/13.jpeg,Instruments,2,stim/objects/Instruments/balalaika.png,0.5,4,0.2,-0.15,right,60,2021-02-22_08h25.56.490,premup-three_ses-01_part-01_label-phase1,3.2.4,Linux x86_64,60,right,1.003000021,4,0,4,0,1,3,1,0,240,34,1,239,,,,,,,,,,,,,,,,,,
,,1,142,,,,,,,2,3,3,stim/33.jpeg,Instruments,2,stim/objects/Instruments/cymbal.png,0.7,1,-0.2,0.15,right,60,2021-02-22_08h25.56.490,premup-three_ses-01_part-01_label-phase1,3.2.4,Linux x86_64,60,right,0.778000116,4,0,4,0,1,3,1,0,240,114,1,239,,,,,,,,,,,,,,,,,,
,,1,143,,,,,,,3,6,3,stim/63.jpeg,HouseObjects,1,stim/objects/HouseObjects/clothesdryingrack2.png,0.9,2,0.2,0.15,left,60,2021-02-22_08h25.56.490,premup-three_ses-01_part-01_label-phase1,3.2.4,Linux x86_64,60,left,0.872000217,4,0,4,0,1,3,1,0,240,202,1,239,,,,,,,,,,,,,,,,,,
,,1,144,,,,,,,1,2,1,stim/21.jpeg,Instruments,2,stim/objects/Instruments/bassdrum.png,0.5,2,0.2,0.15,right,60,2021-02-22_08h25.56.490,premup-three_ses-01_part-01_label-phase1,3.2.4,Linux x86_64,60,right,0.773000002,4,0,4,0,1,3,1,0,240,72,1,239,,,,,,,,,,,,,,,,,,
,,1,145,,,,,,,3,5,3,stim/53.jpeg,Instruments,2,stim/objects/Instruments/cello2.png,0.9,2,0.2,0.15,right,60,2021-02-22_08h25.56.490,premup-three_ses-01_part-01_label-phase1,3.2.4,Linux x86_64,60,right,0.803000212,4,0,4,0,1,3,1,0,240,170,1,239,,,,,,,,,,,,,,,,,,
,,1,146,,,,,,,3,5,1,stim/51.jpeg,Instruments,2,stim/objects/Instruments/bassdrum2.png,0.9,2,0.2,0.15,right,60,2021-02-22_08h25.56.490,premup-three_ses-01_part-01_label-phase1,3.2.4,Linux x86_64,60,right,1.037000179,4,0,4,0,1,3,1,0,240,180,1,239,,,,,,,,,,,,,,,,,,
,,0,147,,,,,,,1,2,4,stim/24.jpeg,Instruments,2,stim/objects/Instruments/chime.png,0.5,4,0.2,-0.15,right,60,2021-02-22_08h25.56.490,premup-three_ses-01_part-01_label-phase1,3.2.4,Linux x86_64,60,left,1.569000006,4,0,4,0,1,3,1,0,240,63,1,239,,,,,,,,,,,,,,,,,,
,,1,148,,,,,,,2,3,2,stim/32.jpeg,Instruments,2,stim/objects/Instruments/cornet.png,0.7,1,-0.2,0.15,right,60,2021-02-22_08h25.56.490,premup-three_ses-01_part-01_label-phase1,3.2.4,Linux x86_64,60,right,0.702000141,4,0,4,0,1,3,1,0,240,93,1,239,,,,,,,,,,,,,,,,,,
,,0,149,,,,,,,1,2,3,stim/23.jpeg,HouseObjects,1,stim/objects/HouseObjects/bottle.png,0.5,3,-0.2,-0.15,left,60,2021-02-22_08h25.56.490,premup-three_ses-01_part-01_label-phase1,3.2.4,Linux x86_64,60,right,1.082000256,4,0,4,0,1,3,1,0,240,50,1,239,,,,,,,,,,,,,,,,,,
,,1,150,,,,,,,3,5,4,stim/54.jpeg,Instruments,2,stim/objects/Instruments/chime2.png,0.9,1,-0.2,0.15,right,60,2021-02-22_08h25.56.490,premup-three_ses-01_part-01_label-phase1,3.2.4,Linux x86_64,60,right,1.150000334,4,0,4,0,1,3,1,0,240,175,1,239,,,,,,,,,,,,,,,,,,
,,1,151,,,,,,,3,5,3,stim/53.jpeg,Instruments,2,stim/objects/Instruments/cello2.png,0.9,1,-0.2,0.15,right,60,2021-02-22_08h25.56.490,premup-three_ses-01_part-01_label-phase1,3.2.4,Linux x86_64,60,right,1.052000284,4,0,4,0,1,3,1,0,240,190,1,239,,,,,,,,,,,,,,,,,,
,,0,152,,,,,,,2,4,4,stim/44.jpeg,HouseObjects,1,stim/objects/HouseObjects/basket2.png,0.7,1,-0.2,0.15,left,60,2021-02-22_08h25.56.490,premup-three_ses-01_part-01_label-phase1,3.2.4,Linux x86_64,60,right,1.014000177,4,0,4,0,1,3,1,0,240,143,1,239,,,,,,,,,,,,,,,,,,
,,0,153,,,,,,,3,5,2,stim/52.jpeg,Instruments,2,stim/objects/Instruments/bassguitar2.png,0.9,2,0.2,0.15,right,60,2021-02-22_08h25.56.490,premup-three_ses-01_part-01_label-phase1,3.2.4,Linux x86_64,60,left,1.396000147,4,0,4,0,1,3,1,0,240,197,1,239,,,,,,,,,,,,,,,,,,
,,1,154,,,,,,,1,2,3,stim/23.jpeg,Instruments,2,stim/objects/Instruments/cello.png,0.5,3,-0.2,-0.15,right,60,2021-02-22_08h25.56.490,premup-three_ses-01_part-01_label-phase1,3.2.4,Linux x86_64,60,right,1.118000269,4,0,4,0,1,3,1,0,240,66,1,239,,,,,,,,,,,,,,,,,,
,,0,155,,,,,,,3,6,4,stim/64.jpeg,Instruments,2,stim/objects/Instruments/doublebass2.png,0.1,3,-0.2,-0.15,right,60,2021-02-22_08h25.56.490,premup-three_ses-01_part-01_label-phase1,3.2.4,Linux x86_64,60,left,1.071000099,4,0,4,0,1,3,1,0,240,239,1,239,,,,,,,,,,,,,,,,,,
,,1,156,,,,,,,1,2,4,stim/24.jpeg,HouseObjects,1,stim/objects/HouseObjects/broom.png,0.5,4,0.2,-0.15,left,60,2021-02-22_08h25.56.490,premup-three_ses-01_part-01_label-phase1,3.2.4,Linux x86_64,60,left,1.001000166,4,0,4,0,1,3,1,0,240,43,1,239,,,,,,,,,,,,,,,,,,
,,0,157,,,,,,,1,2,1,stim/21.jpeg,HouseObjects,1,stim/objects/HouseObjects/bleachbottle.png,0.5,4,0.2,-0.15,left,60,2021-02-22_08h25.56.490,premup-three_ses-01_part-01_label-phase1,3.2.4,Linux x86_64,60,right,0.886000156,4,0,4,0,1,3,1,0,240,48,1,239,,,,,,,,,,,,,,,,,,
,,1,158,,,,,,,2,3,4,stim/34.jpeg,Instruments,2,stim/objects/Instruments/doublebass.png,0.7,1,-0.2,0.15,right,60,2021-02-22_08h25.56.490,premup-three_ses-01_part-01_label-phase1,3.2.4,Linux x86_64,60,right,0.671000242,4,0,4,0,1,3,1,0,240,95,1,239,,,,,,,,,,,,,,,,,,
,,1,159,,,,,,,3,6,1,stim/61.jpeg,HouseObjects,1,stim/objects/HouseObjects/bucket2.png,0.9,2,0.2,0.15,left,60,2021-02-22_08h25.56.490,premup-three_ses-01_part-01_label-phase1,3.2.4,Linux x86_64,60,left,0.687000275,4,0,4,0,1,3,1,0,240,204,1,239,,,,,,,,,,,,,,,,,,
,,1,160,,,,,,,3,6,2,stim/62.jpeg,HouseObjects,1,stim/objects/HouseObjects/clock2.png,0.9,3,-0.2,-0.15,left,60,2021-02-22_08h25.56.490,premup-three_ses-01_part-01_label-phase1,3.2.4,Linux x86_64,60,left,0.700000286,4,0,4,0,1,3,1,0,240,205,1,239,,,,,,,,,,,,,,,,,,
,,0,161,,,,,,,1,2,4,stim/24.jpeg,HouseObjects,1,stim/objects/HouseObjects/broom.png,0.5,4,0.2,-0.15,left,60,2021-02-22_08h25.56.490,premup-three_ses-01_part-01_label-phase1,3.2.4,Linux x86_64,60,right,1.054000139,4,0,4,0,1,3,1,0,240,55,1,239,,,,,,,,,,,,,,,,,,
,,1,162,,,,,,,3,6,3,stim/63.jpeg,HouseObjects,1,stim/objects/HouseObjects/clothesdryingrack2.png,0.9,4,0.2,-0.15,left,60,2021-02-22_08h25.56.490,premup-three_ses-01_part-01_label-phase1,3.2.4,Linux x86_64,60,left,0.669000149,4,0,4,0,1,3,1,0,240,222,1,239,,,,,,,,,,,,,,,,,,
,,1,163,,,,,,,3,6,4,stim/64.jpeg,HouseObjects,1,stim/objects/HouseObjects/clothespin2.png,0.9,3,-0.2,-0.15,left,60,2021-02-22_08h25.56.490,premup-three_ses-01_part-01_label-phase1,3.2.4,Linux x86_64,60,left,0.720000267,4,0,4,0,1,3,1,0,240,211,1,239,,,,,,,,,,,,,,,,,,
,,0,164,,,,,,,2,4,4,stim/44.jpeg,HouseObjects,1,stim/objects/HouseObjects/basket2.png,0.7,3,-0.2,-0.15,left,60,2021-02-22_08h25.56.490,premup-three_ses-01_part-01_label-phase1,3.2.4,Linux x86_64,60,right,1.08700037,4,0,4,0,1,3,1,0,240,127,1,239,,,,,,,,,,,,,,,,,,
,,1,165,,,,,,,3,5,2,stim/52.jpeg,Instruments,2,stim/objects/Instruments/bassguitar2.png,0.9,3,-0.2,-0.15,right,60,2021-02-22_08h25.56.490,premup-three_ses-01_part-01_label-phase1,3.2.4,Linux x86_64,60,right,1.019000292,4,0,4,0,1,3,1,0,240,185,1,239,,,,,,,,,,,,,,,,,,
,,0,166,,,,,,,2,4,1,stim/41.jpeg,HouseObjects,1,stim/objects/HouseObjects/ashtray2.png,0.7,4,0.2,-0.15,left,60,2021-02-22_08h25.56.490,premup-three_ses-01_part-01_label-phase1,3.2.4,Linux x86_64,60,right,1.184000015,4,0,4,0,1,3,1,0,240,132,1,239,,,,,,,,,,,,,,,,,,
,,0,167,,,,,,,3,5,2,stim/52.jpeg,Instruments,2,stim/objects/Instruments/bassguitar2.png,0.9,4,0.2,-0.15,right,60,2021-02-22_08h25.56.490,premup-three_ses-01_part-01_label-phase1,3.2.4,Linux x86_64,60,left,1.385000229,4,0,4,0,1,3,1,0,240,165,1,239,,,,,,,,,,,,,,,,,,
,,0,168,,,,,,,2,3,1,stim/31.jpeg,HouseObjects,1,stim/objects/HouseObjects/bucket.png,0.3,2,0.2,0.15,left,60,2021-02-22_08h25.56.490,premup-three_ses-01_part-01_label-phase1,3.2.4,Linux x86_64,60,right,0.712000132,4,0,4,0,1,3,1,0,240,84,1,239,,,,,,,,,,,,,,,,,,
,,0,169,,,,,,,1,1,3,stim/13.jpeg,Instruments,2,stim/objects/Instruments/balalaika.png,0.5,2,0.2,0.15,right,60,2021-02-22_08h25.56.490,premup-three_ses-01_part-01_label-phase1,3.2.4,Linux x86_64,60,left,1.185000181,4,0,4,0,1,3,1,0,240,30,1,239,,,,,,,,,,,,,,,,,,
,,1,170,,,,,,,2,3,3,stim/33.jpeg,Instruments,2,stim/objects/Instruments/cymbal.png,0.7,2,0.2,0.15,right,60,2021-02-22_08h25.56.490,premup-three_ses-01_part-01_label-phase1,3.2.4,Linux x86_64,60,right,0.820000172,4,0,4,0,1,3,1,0,240,106,1,239,,,,,,,,,,,,,,,,,,
,,0,171,,,,,,,1,2,1,stim/21.jpeg,HouseObjects,1,stim/objects/HouseObjects/bleachbottle.png,0.5,1,-0.2,0.15,left,60,2021-02-22_08h25.56.490,premup-three_ses-01_part-01_label-phase1,3.2.4,Linux x86_64,60,right,0.853000164,4,0,4,0,1,3,1,0,240,44,1,239,,,,,,,,,,,,,,,,,,
,,1,172,,,,,,,3,5,1,stim/51.jpeg,Instruments,2,stim/objects/Instruments/bassdrum2.png,0.9,1,-0.2,0.15,right,60,2021-02-22_08h25.56.490,premup-three_ses-01_part-01_label-phase1,3.2.4,Linux x86_64,60,right,1.019000292,4,0,4,0,1,3,1,0,240,172,1,239,,,,,,,,,,,,,,,,,,
,,1,173,,,,,,,2,3,2,stim/32.jpeg,Instruments,2,stim/objects/Instruments/cornet.png,0.7,4,0.2,-0.15,right,60,2021-02-22_08h25.56.490,premup-three_ses-01_part-01_label-phase1,3.2.4,Linux x86_64,60,right,1.002000093,4,0,4,0,1,3,1,0,240,117,1,239,,,,,,,,,,,,,,,,,,
,,1,174,,,,,,,3,6,3,stim/63.jpeg,HouseObjects,1,stim/objects/HouseObjects/clothesdryingrack2.png,0.9,2,0.2,0.15,left,60,2021-02-22_08h25.56.490,premup-three_ses-01_part-01_label-phase1,3.2.4,Linux x86_64,60,left,0.687000036,4,0,4,0,1,3,1,0,240,218,1,239,,,,,,,,,,,,,,,,,,
,,0,175,,,,,,,1,2,4,stim/24.jpeg,HouseObjects,1,stim/objects/HouseObjects/broom.png,0.5,4,0.2,-0.15,left,60,2021-02-22_08h25.56.490,premup-three_ses-01_part-01_label-phase1,3.2.4,Linux x86_64,60,right,0.702000141,4,0,4,0,1,3,1,0,240,51,1,239,,,,,,,,,,,,,,,,,,
,,1,176,,,,,,,2,3,3,stim/33.jpeg,Instruments,2,stim/objects/Instruments/cymbal.png,0.7,1,-0.2,0.15,right,60,2021-02-22_08h25.56.490,premup-three_ses-01_part-01_label-phase1,3.2.4,Linux x86_64,60,right,0.687000275,4,0,4,0,1,3,1,0,240,94,1,239,,,,,,,,,,,,,,,,,,
,,1,177,,,,,,,3,6,4,stim/64.jpeg,HouseObjects,1,stim/objects/HouseObjects/clothespin2.png,0.9,1,-0.2,0.15,left,60,2021-02-22_08h25.56.490,premup-three_ses-01_part-01_label-phase1,3.2.4,Linux x86_64,60,left,1.004000187,4,0,4,0,1,3,1,0,240,235,1,239,,,,,,,,,,,,,,,,,,
,,0,178,,,,,,,2,3,4,stim/34.jpeg,HouseObjects,1,stim/objects/HouseObjects/clothespin.png,0.3,1,-0.2,0.15,left,60,2021-02-22_08h25.56.490,premup-three_ses-01_part-01_label-phase1,3.2.4,Linux x86_64,60,right,1.836000204,4,0,4,0,1,3,1,0,240,83,1,239,,,,,,,,,,,,,,,,,,
,,1,179,,,,,,,3,5,4,stim/54.jpeg,Instruments,2,stim/objects/Instruments/chime2.png,0.9,2,0.2,0.15,right,60,2021-02-22_08h25.56.490,premup-three_ses-01_part-01_label-phase1,3.2.4,Linux x86_64,60,right,1.153000116,4,0,4,0,1,3,1,0,240,187,1,239,,,,,,,,,,,,,,,,,,
,,1,180,,,,,,,1,2,2,stim/22.jpeg,HouseObjects,1,stim/objects/HouseObjects/blender.png,0.5,4,0.2,-0.15,left,60,2021-02-22_08h25.56.490,premup-three_ses-01_part-01_label-phase1,3.2.4,Linux x86_64,60,left,1.157999992,4,0,4,0,1,3,1,0,240,53,1,239,,,,,,,,,,,,,,,,,,
,,1,181,,,,,,,3,6,4,stim/64.jpeg,HouseObjects,1,stim/objects/HouseObjects/clothespin2.png,0.9,4,0.2,-0.15,left,60,2021-02-22_08h25.56.490,premup-three_ses-01_part-01_label-phase1,3.2.4,Linux x86_64,60,left,0.701000214,4,0,4,0,1,3,1,0,240,203,1,239,,,,,,,,,,,,,,,,,,
,,1,182,,,,,,,3,6,2,stim/62.jpeg,HouseObjects,1,stim/objects/HouseObjects/clock2.png,0.9,3,-0.2,-0.15,left,60,2021-02-22_08h25.56.490,premup-three_ses-01_part-01_label-phase1,3.2.4,Linux x86_64,60,left,0.657000303,4,0,4,0,1,3,1,0,240,213,1,239,,,,,,,,,,,,,,,,,,
,,1,183,,,,,,,3,6,3,stim/63.jpeg,HouseObjects,1,stim/objects/HouseObjects/clothesdryingrack2.png,0.9,2,0.2,0.15,left,60,2021-02-22_08h25.56.490,premup-three_ses-01_part-01_label-phase1,3.2.4,Linux x86_64,60,left,0.555000067,4,0,4,0,1,3,1,0,240,206,1,239,,,,,,,,,,,,,,,,,,
,,1,184,,,,,,,3,5,1,stim/51.jpeg,Instruments,2,stim/objects/Instruments/bassdrum2.png,0.9,1,-0.2,0.15,right,60,2021-02-22_08h25.56.490,premup-three_ses-01_part-01_label-phase1,3.2.4,Linux x86_64,60,right,0.686000109,4,0,4,0,1,3,1,0,240,188,1,239,,,,,,,,,,,,,,,,,,
,,1,185,,,,,,,2,3,2,stim/32.jpeg,Instruments,2,stim/objects/Instruments/cornet.png,0.7,3,-0.2,-0.15,right,60,2021-02-22_08h25.56.490,premup-three_ses-01_part-01_label-phase1,3.2.4,Linux x86_64,60,right,0.837000132,4,0,4,0,1,3,1,0,240,113,1,239,,,,,,,,,,,,,,,,,,
,,0,186,,,,,,,1,2,1,stim/21.jpeg,HouseObjects,1,stim/objects/HouseObjects/bleachbottle.png,0.5,3,-0.2,-0.15,left,60,2021-02-22_08h25.56.490,premup-three_ses-01_part-01_label-phase1,3.2.4,Linux x86_64,60,right,0.752000093,4,0,4,0,1,3,1,0,240,56,1,239,,,,,,,,,,,,,,,,,,
,,1,187,,,,,,,2,4,1,stim/41.jpeg,HouseObjects,1,stim/objects/HouseObjects/ashtray2.png,0.7,4,0.2,-0.15,left,60,2021-02-22_08h25.56.490,premup-three_ses-01_part-01_label-phase1,3.2.4,Linux x86_64,60,left,1.254000187,4,0,4,0,1,3,1,0,240,144,1,239,,,,,,,,,,,,,,,,,,
,,1,188,,,,,,,2,4,1,stim/41.jpeg,HouseObjects,1,stim/objects/HouseObjects/ashtray2.png,0.7,2,0.2,0.15,left,60,2021-02-22_08h25.56.490,premup-three_ses-01_part-01_label-phase1,3.2.4,Linux x86_64,60,left,0.687000275,4,0,4,0,1,3,1,0,240,140,1,239,,,,,,,,,,,,,,,,,,
,,1,189,,,,,,,1,1,4,stim/14.jpeg,HouseObjects,1,stim/objects/HouseObjects/basket.png,0.5,4,0.2,-0.15,left,60,2021-02-22_08h25.56.490,premup-three_ses-01_part-01_label-phase1,3.2.4,Linux x86_64,60,left,1.218000174,4,0,4,0,1,3,1,0,240,3,1,239,,,,,,,,,,,,,,,,,,
,,1,190,,,,,,,1,2,3,stim/23.jpeg,HouseObjects,1,stim/objects/HouseObjects/bottle.png,0.5,1,-0.2,0.15,left,60,2021-02-22_08h25.56.490,premup-three_ses-01_part-01_label-phase1,3.2.4,Linux x86_64,60,left,1.018000126,4,0,4,0,1,3,1,0,240,46,1,239,,,,,,,,,,,,,,,,,,
,,0,191,,,,,,,2,4,3,stim/43.jpeg,HouseObjects,1,stim/objects/HouseObjects/barbecuelighter2.png,0.7,1,-0.2,0.15,left,60,2021-02-22_08h25.56.490,premup-three_ses-01_part-01_label-phase1,3.2.4,Linux x86_64,60,right,1.851000071,4,0,4,0,1,3,1,0,240,130,1,239,,,,,,,,,,,,,,,,,,
,,1,192,,,,,,,3,5,3,stim/53.jpeg,Instruments,2,stim/objects/Instruments/cello2.png,0.9,4,0.2,-0.15,right,60,2021-02-22_08h25.56.490,premup-three_ses-01_part-01_label-phase1,3.2.4,Linux x86_64,60,right,1.334000111,4,0,4,0,1,3,1,0,240,194,1,239,,,,,,,,,,,,,,,,,,
,,0,193,,,,,,,2,4,4,stim/44.jpeg,Instruments,2,stim/objects/Instruments/banjo2.png,0.3,3,-0.2,-0.15,right,60,2021-02-22_08h25.56.490,premup-three_ses-01_part-01_label-phase1,3.2.4,Linux x86_64,60,left,1.265000105,4,0,4,0,1,3,1,0,240,155,1,239,,,,,,,,,,,,,,,,,,
,,1,194,,,,,,,3,6,4,stim/64.jpeg,HouseObjects,1,stim/objects/HouseObjects/clothespin2.png,0.9,1,-0.2,0.15,left,60,2021-02-22_08h25.56.490,premup-three_ses-01_part-01_label-phase1,3.2.4,Linux x86_64,60,left,0.717000246,4,0,4,0,1,3,1,0,240,207,1,239,,,,,,,,,,,,,,,,,,
,,1,195,,,,,,,1,1,2,stim/12.jpeg,HouseObjects,1,stim/objects/HouseObjects/ballofstring.png,0.5,4,0.2,-0.15,left,60,2021-02-22_08h25.56.490,premup-three_ses-01_part-01_label-phase1,3.2.4,Linux x86_64,60,left,1.218000174,4,0,4,0,1,3,1,0,240,17,1,239,,,,,,,,,,,,,,,,,,
,,0,196,,,,,,,2,4,3,stim/43.jpeg,HouseObjects,1,stim/objects/HouseObjects/barbecuelighter2.png,0.7,2,0.2,0.15,left,60,2021-02-22_08h25.56.490,premup-three_ses-01_part-01_label-phase1,3.2.4,Linux x86_64,60,right,1.091000319,4,0,4,0,1,3,1,0,240,138,1,239,,,,,,,,,,,,,,,,,,
,,0,197,,,,,,,2,3,4,stim/34.jpeg,HouseObjects,1,stim/objects/HouseObjects/clothespin.png,0.3,4,0.2,-0.15,left,60,2021-02-22_08h25.56.490,premup-three_ses-01_part-01_label-phase1,3.2.4,Linux x86_64,60,right,0.636000156,4,0,4,0,1,3,1,0,240,91,1,239,,,,,,,,,,,,,,,,,,
,,0,198,,,,,,,1,1,4,stim/14.jpeg,Instruments,2,stim/objects/Instruments/banjo.png,0.5,3,-0.2,-0.15,right,60,2021-02-22_08h25.56.490,premup-three_ses-01_part-01_label-phase1,3.2.4,Linux x86_64,60,left,1.202000141,4,0,4,0,1,3,1,0,240,39,1,239,,,,,,,,,,,,,,,,,,
,,1,199,,,,,,,3,6,1,stim/61.jpeg,HouseObjects,1,stim/objects/HouseObjects/bucket2.png,0.9,2,0.2,0.15,left,60,2021-02-22_08h25.56.490,premup-three_ses-01_part-01_label-phase1,3.2.4,Linux x86_64,60,left,0.6650002,4,0,4,0,1,3,1,0,240,208,1,239,,,,,,,,,,,,,,,,,,
,,1,200,,,,,,,2,3,1,stim/31.jpeg,Instruments,2,stim/objects/Instruments/clarinet.png,0.7,3,-0.2,-0.15,right,60,2021-02-22_08h25.56.490,premup-three_ses-01_part-01_label-phase1,3.2.4,Linux x86_64,60,right,0.838000298,4,0,4,0,1,3,1,0,240,116,1,239,,,,,,,,,,,,,,,,,,
,,0,201,,,,,,,2,4,2,stim/42.jpeg,HouseObjects,1,stim/objects/HouseObjects/ballofstring2.png,0.7,2,0.2,0.15,left,60,2021-02-22_08h25.56.490,premup-three_ses-01_part-01_label-phase1,3.2.4,Linux x86_64,60,,,4,0,4,0,1,3,1,0,240,137,1,239,,,,,,,,,,,,,,,,,,
,,1,202,,,,,,,3,5,4,stim/54.jpeg,Instruments,2,stim/objects/Instruments/chime2.png,0.9,4,0.2,-0.15,right,60,2021-02-22_08h25.56.490,premup-three_ses-01_part-01_label-phase1,3.2.4,Linux x86_64,60,right,0.968000174,4,0,4,0,1,3,1,0,240,167,1,239,,,,,,,,,,,,,,,,,,
,,0,203,,,,,,,2,4,2,stim/42.jpeg,Instruments,2,stim/objects/Instruments/acousticguitar2.png,0.3,3,-0.2,-0.15,right,60,2021-02-22_08h25.56.490,premup-three_ses-01_part-01_label-phase1,3.2.4,Linux x86_64,60,left,1.068000078,4,0,4,0,1,3,1,0,240,157,1,239,,,,,,,,,,,,,,,,,,
,,1,204,,,,,,,1,2,2,stim/22.jpeg,Instruments,2,stim/objects/Instruments/bassguitar.png,0.5,1,-0.2,0.15,right,60,2021-02-22_08h25.56.490,premup-three_ses-01_part-01_label-phase1,3.2.4,Linux x86_64,60,right,0.902000189,4,0,4,0,1,3,1,0,240,77,1,239,,,,,,,,,,,,,,,,,,
,,0,205,,,,,,,1,1,3,stim/13.jpeg,HouseObjects,1,stim/objects/HouseObjects/barbecuelighter.png,0.5,1,-0.2,0.15,left,60,2021-02-22_08h25.56.490,premup-three_ses-01_part-01_label-phase1,3.2.4,Linux x86_64,60,right,1.186000109,4,0,4,0,1,3,1,0,240,6,1,239,,,,,,,,,,,,,,,,,,
,,0,206,,,,,,,1,1,2,stim/12.jpeg,Instruments,2,stim/objects/Instruments/acousticguitar.png,0.5,3,-0.2,-0.15,right,60,2021-02-22_08h25.56.490,premup-three_ses-01_part-01_label-phase1,3.2.4,Linux x86_64,60,left,0.970000267,4,0,4,0,1,3,1,0,240,29,1,239,,,,,,,,,,,,,,,,,,
,,1,207,,,,,,,3,5,1,stim/51.jpeg,Instruments,2,stim/objects/Instruments/bassdrum2.png,0.9,1,-0.2,0.15,right,60,2021-02-22_08h25.56.490,premup-three_ses-01_part-01_label-phase1,3.2.4,Linux x86_64,60,right,0.671000242,4,0,4,0,1,3,1,0,240,184,1,239,,,,,,,,,,,,,,,,,,
,,1,208,,,,,,,1,1,1,stim/11.jpeg,Instruments,2,stim/objects/Instruments/accordion.png,0.5,2,0.2,0.15,right,60,2021-02-22_08h25.56.490,premup-three_ses-01_part-01_label-phase1,3.2.4,Linux x86_64,60,right,1.23300004,4,0,4,0,1,3,1,0,240,32,1,239,,,,,,,,,,,,,,,,,,
,,0,209,,,,,,,2,3,4,stim/34.jpeg,HouseObjects,1,stim/objects/HouseObjects/clothespin.png,0.3,1,-0.2,0.15,left,60,2021-02-22_08h25.56.490,premup-three_ses-01_part-01_label-phase1,3.2.4,Linux x86_64,60,right,0.87100029,4,0,4,0,1,3,1,0,240,87,1,239,,,,,,,,,,,,,,,,,,
,,1,210,,,,,,,3,6,2,stim/62.jpeg,HouseObjects,1,stim/objects/HouseObjects/clock2.png,0.9,2,0.2,0.15,left,60,2021-02-22_08h25.56.490,premup-three_ses-01_part-01_label-phase1,3.2.4,Linux x86_64,60,left,0.768000126,4,0,4,0,1,3,1,0,240,221,1,239,,,,,,,,,,,,,,,,,,
,,0,211,,,,,,,1,1,4,stim/14.jpeg,Instruments,2,stim/objects/Instruments/banjo.png,0.5,1,-0.2,0.15,right,60,2021-02-22_08h25.56.490,premup-three_ses-01_part-01_label-phase1,3.2.4,Linux x86_64,60,left,1.036000252,4,0,4,0,1,3,1,0,240,27,1,239,,,,,,,,,,,,,,,,,,
,,0,212,,,,,,,1,2,1,stim/21.jpeg,HouseObjects,1,stim/objects/HouseObjects/bleachbottle.png,0.5,1,-0.2,0.15,left,60,2021-02-22_08h25.56.490,premup-three_ses-01_part-01_label-phase1,3.2.4,Linux x86_64,60,right,0.782000065,4,0,4,0,1,3,1,0,240,52,1,239,,,,,,,,,,,,,,,,,,
,,0,213,,,,,,,1,2,3,stim/23.jpeg,Instruments,2,stim/objects/Instruments/cello.png,0.5,2,0.2,0.15,right,60,2021-02-22_08h25.56.490,premup-three_ses-01_part-01_label-phase1,3.2.4,Linux x86_64,60,left,0.804000139,4,0,4,0,1,3,1,0,240,78,1,239,,,,,,,,,,,,,,,,,,
,,1,214,,,,,,,3,6,1,stim/61.jpeg,HouseObjects,1,stim/objects/HouseObjects/bucket2.png,0.9,4,0.2,-0.15,left,60,2021-02-22_08h25.56.490,premup-three_ses-01_part-01_label-phase1,3.2.4,Linux x86_64,60,left,0.638000011,4,0,4,0,1,3,1,0,240,232,1,239,,,,,,,,,,,,,,,,,,
,,1,215,,,,,,,2,4,4,stim/44.jpeg,HouseObjects,1,stim/objects/HouseObjects/basket2.png,0.7,2,0.2,0.15,left,60,2021-02-22_08h25.56.490,premup-three_ses-01_part-01_label-phase1,3.2.4,Linux x86_64,60,left,1.335000277,4,0,4,0,1,3,1,0,240,139,1,239,,,,,,,,,,,,,,,,,,
,,1,216,,,,,,,2,3,3,stim/33.jpeg,Instruments,2,stim/objects/Instruments/cymbal.png,0.7,3,-0.2,-0.15,right,60,2021-02-22_08h25.56.490,premup-three_ses-01_part-01_label-phase1,3.2.4,Linux x86_64,60,right,0.700000048,4,0,4,0,1,3,1,0,240,102,1,239,,,,,,,,,,,,,,,,,,
,,1,217,,,,,,,1,1,2,stim/12.jpeg,HouseObjects,1,stim/objects/HouseObjects/ballofstring.png,0.5,2,0.2,0.15,left,60,2021-02-22_08h25.56.490,premup-three_ses-01_part-01_label-phase1,3.2.4,Linux x86_64,60,left,0.969000101,4,0,4,0,1,3,1,0,240,1,1,239,,,,,,,,,,,,,,,,,,
,,0,218,,,,,,,1,1,3,stim/13.jpeg,HouseObjects,1,stim/objects/HouseObjects/barbecuelighter.png,0.5,3,-0.2,-0.15,left,60,2021-02-22_08h25.56.490,premup-three_ses-01_part-01_label-phase1,3.2.4,Linux x86_64,60,right,1.288000107,4,0,4,0,1,3,1,0,240,2,1,239,,,,,,,,,,,,,,,,,,
,,1,219,,,,,,,3,6,4,stim/64.jpeg,HouseObjects,1,stim/objects/HouseObjects/clothespin2.png,0.9,2,0.2,0.15,left,60,2021-02-22_08h25.56.490,premup-three_ses-01_part-01_label-phase1,3.2.4,Linux x86_64,60,left,0.855999947,4,0,4,0,1,3,1,0,240,223,1,239,,,,,,,,,,,,,,,,,,
,,1,220,,,,,,,2,3,4,stim/34.jpeg,Instruments,2,stim/objects/Instruments/doublebass.png,0.7,3,-0.2,-0.15,right,60,2021-02-22_08h25.56.490,premup-three_ses-01_part-01_label-phase1,3.2.4,Linux x86_64,60,right,0.837000132,4,0,4,0,1,3,1,0,240,107,1,239,,,,,,,,,,,,,,,,,,
,,0,221,,,,,,,1,2,2,stim/22.jpeg,HouseObjects,1,stim/objects/HouseObjects/blender.png,0.5,2,0.2,0.15,left,60,2021-02-22_08h25.56.490,premup-three_ses-01_part-01_label-phase1,3.2.4,Linux x86_64,60,right,0.639000177,4,0,4,0,1,3,1,0,240,49,1,239,,,,,,,,,,,,,,,,,,
,,1,222,,,,,,,3,6,3,stim/63.jpeg,HouseObjects,1,stim/objects/HouseObjects/clothesdryingrack2.png,0.9,4,0.2,-0.15,left,60,2021-02-22_08h25.56.490,premup-three_ses-01_part-01_label-phase1,3.2.4,Linux x86_64,60,left,0.603000164,4,0,4,0,1,3,1,0,240,234,1,239,,,,,,,,,,,,,,,,,,
,,1,223,,,,,,,3,5,2,stim/52.jpeg,Instruments,2,stim/objects/Instruments/bassguitar2.png,0.9,1,-0.2,0.15,right,60,2021-02-22_08h25.56.490,premup-three_ses-01_part-01_label-phase1,3.2.4,Linux x86_64,60,right,1.144000292,4,0,4,0,1,3,1,0,240,181,1,239,,,,,,,,,,,,,,,,,,
,,1,224,,,,,,,1,2,1,stim/21.jpeg,Instruments,2,stim/objects/Instruments/bassdrum.png,0.5,1,-0.2,0.15,right,60,2021-02-22_08h25.56.490,premup-three_ses-01_part-01_label-phase1,3.2.4,Linux x86_64,60,right,1.018000126,4,0,4,0,1,3,1,0,240,76,1,239,,,,,,,,,,,,,,,,,,
,,1,225,,,,,,,3,5,2,stim/52.jpeg,Instruments,2,stim/objects/Instruments/bassguitar2.png,0.9,3,-0.2,-0.15,right,60,2021-02-22_08h25.56.490,premup-three_ses-01_part-01_label-phase1,3.2.4,Linux x86_64,60,right,0.968000174,4,0,4,0,1,3,1,0,240,177,1,239,,,,,,,,,,,,,,,,,,
,,0,226,,,,,,,1,1,4,stim/14.jpeg,Instruments,2,stim/objects/Instruments/banjo.png,0.5,2,0.2,0.15,right,60,2021-02-22_08h25.56.490,premup-three_ses-01_part-01_label-phase1,3.2.4,Linux x86_64,60,left,0.872000217,4,0,4,0,1,3,1,0,240,35,1,239,,,,,,,,,,,,,,,,,,
,,0,227,,,,,,,2,4,2,stim/42.jpeg,HouseObjects,1,stim/objects/HouseObjects/ballofstring2.png,0.7,4,0.2,-0.15,left,60,2021-02-22_08h25.56.490,premup-three_ses-01_part-01_label-phase1,3.2.4,Linux x86_64,60,right,1.003000021,4,0,4,0,1,3,1,0,240,141,1,239,,,,,,,,,,,,,,,,,,
,,0,228,,,,,,,2,4,2,stim/42.jpeg,Instruments,2,stim/objects/Instruments/acousticguitar2.png,0.3,2,0.2,0.15,right,60,2021-02-22_08h25.56.490,premup-three_ses-01_part-01_label-phase1,3.2.4,Linux x86_64,60,left,1.019000292,4,0,4,0,1,3,1,0,240,153,1,239,,,,,,,,,,,,,,,,,,
,,1,229,,,,,,,1,1,4,stim/14.jpeg,HouseObjects,1,stim/objects/HouseObjects/basket.png,0.5,2,0.2,0.15,left,60,2021-02-22_08h25.56.490,premup-three_ses-01_part-01_label-phase1,3.2.4,Linux x86_64,60,left,1.072000027,4,0,4,0,1,3,1,0,240,19,1,239,,,,,,,,,,,,,,,,,,
,,1,230,,,,,,,2,4,1,stim/41.jpeg,HouseObjects,1,stim/objects/HouseObjects/ashtray2.png,0.7,4,0.2,-0.15,left,60,2021-02-22_08h25.56.490,premup-three_ses-01_part-01_label-phase1,3.2.4,Linux x86_64,60,left,1.335000038,4,0,4,0,1,3,1,0,240,128,1,239,,,,,,,,,,,,,,,,,,
,,1,231,,,,,,,3,5,1,stim/51.jpeg,Instruments,2,stim/objects/Instruments/bassdrum2.png,0.9,4,0.2,-0.15,right,60,2021-02-22_08h25.56.490,premup-three_ses-01_part-01_label-phase1,3.2.4,Linux x86_64,60,right,0.686000347,4,0,4,0,1,3,1,0,240,164,1,239,,,,,,,,,,,,,,,,,,
,,0,232,,,,,,,1,1,4,stim/14.jpeg,Instruments,2,stim/objects/Instruments/banjo.png,0.5,1,-0.2,0.15,right,60,2021-02-22_08h25.56.490,premup-three_ses-01_part-01_label-phase1,3.2.4,Linux x86_64,60,left,0.772000074,4,0,4,0,1,3,1,0,240,23,1,239,,,,,,,,,,,,,,,,,,
,,1,233,,,,,,,2,3,3,stim/33.jpeg,Instruments,2,stim/objects/Instruments/cymbal.png,0.7,1,-0.2,0.15,right,60,2021-02-22_08h25.56.490,premup-three_ses-01_part-01_label-phase1,3.2.4,Linux x86_64,60,right,0.621000051,4,0,4,0,1,3,1,0,240,118,1,239,,,,,,,,,,,,,,,,,,
,,1,234,,,,,,,2,4,3,stim/43.jpeg,HouseObjects,1,stim/objects/HouseObjects/barbecuelighter2.png,0.7,4,0.2,-0.15,left,60,2021-02-22_08h25.56.490,premup-three_ses-01_part-01_label-phase1,3.2.4,Linux x86_64,60,left,1.062000275,4,0,4,0,1,3,1,0,240,146,1,239,,,,,,,,,,,,,,,,,,
,,0,235,,,,,,,1,2,2,stim/22.jpeg,HouseObjects,1,stim/objects/HouseObjects/blender.png,0.5,3,-0.2,-0.15,left,60,2021-02-22_08h25.56.490,premup-three_ses-01_part-01_label-phase1,3.2.4,Linux x86_64,60,right,0.86400032,4,0,4,0,1,3,1,0,240,41,1,239,,,,,,,,,,,,,,,,,,
,,1,236,,,,,,,3,5,4,stim/54.jpeg,Instruments,2,stim/objects/Instruments/chime2.png,0.9,4,0.2,-0.15,right,60,2021-02-22_08h25.56.490,premup-three_ses-01_part-01_label-phase1,3.2.4,Linux x86_64,60,right,1.063000202,4,0,4,0,1,3,1,0,240,195,1,239,,,,,,,,,,,,,,,,,,
,,1,237,,,,,,,1,2,3,stim/23.jpeg,HouseObjects,1,stim/objects/HouseObjects/bottle.png,0.5,1,-0.2,0.15,left,60,2021-02-22_08h25.56.490,premup-three_ses-01_part-01_label-phase1,3.2.4,Linux x86_64,60,left,1.118000269,4,0,4,0,1,3,1,0,240,58,1,239,,,,,,,,,,,,,,,,,,
,,0,238,,,,,,,1,1,1,stim/11.jpeg,HouseObjects,1,stim/objects/HouseObjects/ashtray.png,0.5,4,0.2,-0.15,left,60,2021-02-22_08h25.56.490,premup-three_ses-01_part-01_label-phase1,3.2.4,Linux x86_64,60,right,0.966000319,4,0,4,0,1,3,1,0,240,16,1,239,,,,,,,,,,,,,,,,,,
,,1,239,,,,,,,3,5,3,stim/53.jpeg,Instruments,2,stim/objects/Instruments/cello2.png,0.9,2,0.2,0.15,right,60,2021-02-22_08h25.56.490,premup-three_ses-01_part-01_label-phase1,3.2.4,Linux x86_64,60,right,0.795000076,4,0,4,0,1,3,1,0,240,182,1,239,,,,,,,,,,,,,,,,,,
,,0,240,,,,,,,2,4,3,stim/43.jpeg,Instruments,2,stim/objects/Instruments/balalaika2.png,0.3,1,-0.2,0.15,right,60,2021-02-22_08h25.56.490,premup-three_ses-01_part-01_label-phase1,3.2.4,Linux x86_64,60,left,0.980000257,4,0,4,0,1,3,1,0,240,154,1,239,,,,,,,,,,,,,,,,,,
,,,,,,,,,,,4,,stim/41.jpeg,,,,,,,,,60,2021-02-22_08h25.56.490,premup-three_ses-01_part-01_label-phase1,3.2.4,Linux x86_64,60,,,4,0,4,0,1,3,,,,,,,1,1,71,5.004999876,,,1,0,6,3,1,5,Household items,65,75,Music items,25,35
,,,,,,,,,,,1,,stim/11.jpeg,,,,,,,,,60,2021-02-22_08h25.56.490,premup-three_ses-01_part-01_label-phase1,3.2.4,Linux x86_64,60,,,4,0,4,0,1,3,,,,,,,1,1,39,4.70600009,,,1,0,6,0,1,5,Household items,45,55,Music items,45,55
,,,,,,,,,,,6,,stim/61.jpeg,,,,,,,,,60,2021-02-22_08h25.56.490,premup-three_ses-01_part-01_label-phase1,3.2.4,Linux x86_64,60,,,4,0,4,0,1,3,,,,,,,1,1,90,3.546000004,,,1,0,6,5,1,5,Household items,5,15,Music items,85,95
,,,,,,,,,,,2,,stim/21.jpeg,,,,,,,,,60,2021-02-22_08h25.56.490,premup-three_ses-01_part-01_label-phase1,3.2.4,Linux x86_64,60,,,4,0,4,0,1,3,,,,,,,1,1,90,6.875,,,1,0,6,1,1,5,Music items,45,55,Household items,45,55
,,,,,,,,,,,3,,stim/31.jpeg,,,,,,,,,60,2021-02-22_08h25.56.490,premup-three_ses-01_part-01_label-phase1,3.2.4,Linux x86_64,60,,,4,0,4,0,1,3,,,,,,,1,1,,,91,5.256999969,1,0,6,2,1,5,Household items,65,75,Music items,25,35
,,,,,,,,,,,5,,stim/51.jpeg,,,,,,,,,60,2021-02-22_08h25.56.490,premup-three_ses-01_part-01_label-phase1,3.2.4,Linux x86_64,60,,,4,0,4,0,1,3,,,,,,,1,1,,,91,4.29399991,1,0,6,4,1,5,Music items,5,15,Household items,85,95
,,,,,,,,,,,,,,,,,,,,,,60,2021-02-22_08h25.56.490,premup-three_ses-01_part-01_label-phase1,3.2.4,Linux x86_64,60,,,4,0,4,0,1,3,,,,,,,,,,,,,,,,,,,,,,,,
,,0,1,,,,,,,2,4,4,stim/44.jpeg,HouseObjects,1,stim/objects/HouseObjects/basket2.png,0.7,4,0.2,-0.15,left,60,2021-02-22_08h25.56.490,premup-three_ses-01_part-01_label-phase1,3.2.4,Linux x86_64,60,,,4,0,4,0,1,3,1,0,240,135,1,239,,,,,,,,,,,,,,,,,,
,,1,2,,,,,,,3,5,3,stim/53.jpeg,Instruments,2,stim/objects/Instruments/cello2.png,0.9,3,-0.2,-0.15,right,60,2021-02-22_08h25.56.490,premup-three_ses-01_part-01_label-phase1,3.2.4,Linux x86_64,60,right,0.819000006,4,0,4,0,1,3,1,0,240,166,1,239,,,,,,,,,,,,,,,,,,
,,1,3,,,,,,,3,5,1,stim/51.jpeg,Instruments,2,stim/objects/Instruments/bassdrum2.png,0.9,1,-0.2,0.15,right,60,2021-02-22_08h25.56.490,premup-three_ses-01_part-01_label-phase1,3.2.4,Linux x86_64,60,right,0.890000105,4,0,4,0,1,3,1,0,240,172,1,239,,,,,,,,,,,,,,,,,,
,,1,4,,,,,,,3,6,4,stim/64.jpeg,HouseObjects,1,stim/objects/HouseObjects/clothespin2.png,0.9,4,0.2,-0.15,left,60,2021-02-22_08h25.56.490,premup-three_ses-01_part-01_label-phase1,3.2.4,Linux x86_64,60,left,0.786000013,4,0,4,0,1,3,1,0,240,203,1,239,,,,,,,,,,,,,,,,,,
,,1,5,,,,,,,2,4,1,stim/41.jpeg,HouseObjects,1,stim/objects/HouseObjects/ashtray2.png,0.7,4,0.2,-0.15,left,60,2021-02-22_08h25.56.490,premup-three_ses-01_part-01_label-phase1,3.2.4,Linux x86_64,60,left,1.237000227,4,0,4,0,1,3,1,0,240,132,1,239,,,,,,,,,,,,,,,,,,
,,0,6,,,,,,,2,3,1,stim/31.jpeg,HouseObjects,1,stim/objects/HouseObjects/bucket.png,0.3,1,-0.2,0.15,left,60,2021-02-22_08h25.56.490,premup-three_ses-01_part-01_label-phase1,3.2.4,Linux x86_64,60,right,0.788000107,4,0,4,0,1,3,1,0,240,88,1,239,,,,,,,,,,,,,,,,,,
,,1,7,,,,,,,1,1,3,stim/13.jpeg,Instruments,2,stim/objects/Instruments/balalaika.png,0.5,2,0.2,0.15,right,60,2021-02-22_08h25.56.490,premup-three_ses-01_part-01_label-phase1,3.2.4,Linux x86_64,60,right,0.6650002,4,0,4,0,1,3,1,0,240,30,1,239,,,,,,,,,,,,,,,,,,
,,1,8,,,,,,,1,1,1,stim/11.jpeg,HouseObjects,1,stim/objects/HouseObjects/ashtray.png,0.5,4,0.2,-0.15,left,60,2021-02-22_08h25.56.490,premup-three_ses-01_part-01_label-phase1,3.2.4,Linux x86_64,60,left,0.838000059,4,0,4,0,1,3,1,0,240,12,1,239,,,,,,,,,,,,,,,,,,
,,0,9,,,,,,,1,1,3,stim/13.jpeg,Instruments,2,stim/objects/Instruments/balalaika.png,0.5,4,0.2,-0.15,right,60,2021-02-22_08h25.56.490,premup-three_ses-01_part-01_label-phase1,3.2.4,Linux x86_64,60,left,0.736000299,4,0,4,0,1,3,1,0,240,26,1,239,,,,,,,,,,,,,,,,,,
,,0,10,,,,,,,2,4,1,stim/41.jpeg,Instruments,2,stim/objects/Instruments/accordion2.png,0.3,1,-0.2,0.15,right,60,2021-02-22_08h25.56.490,premup-three_ses-01_part-01_label-phase1,3.2.4,Linux x86_64,60,left,0.90500021,4,0,4,0,1,3,1,0,240,156,1,239,,,,,,,,,,,,,,,,,,
,,0,11,,,,,,,1,1,2,stim/12.jpeg,HouseObjects,1,stim/objects/HouseObjects/ballofstring.png,0.5,1,-0.2,0.15,left,60,2021-02-22_08h25.56.490,premup-three_ses-01_part-01_label-phase1,3.2.4,Linux x86_64,60,right,1.114000082,4,0,4,0,1,3,1,0,240,13,1,239,,,,,,,,,,,,,,,,,,
,,1,12,,,,,,,3,5,1,stim/51.jpeg,Instruments,2,stim/objects/Instruments/bassdrum2.png,0.9,2,0.2,0.15,right,60,2021-02-22_08h25.56.490,premup-three_ses-01_part-01_label-phase1,3.2.4,Linux x86_64,60,right,0.637000084,4,0,4,0,1,3,1,0,240,180,1,239,,,,,,,,,,,,,,,,,,
,,1,13,,,,,,,2,4,2,stim/42.jpeg,HouseObjects,1,stim/objects/HouseObjects/ballofstring2.png,0.7,2,0.2,0.15,left,60,2021-02-22_08h25.56.490,premup-three_ses-01_part-01_label-phase1,3.2.4,Linux x86_64,60,left,0.847000122,4,0,4,0,1,3,1,0,240,137,1,239,,,,,,,,,,,,,,,,,,
,,0,14,,,,,,,1,1,1,stim/11.jpeg,HouseObjects,1,stim/objects/HouseObjects/ashtray.png,0.5,2,0.2,0.15,left,60,2021-02-22_08h25.56.490,premup-three_ses-01_part-01_label-phase1,3.2.4,Linux x86_64,60,right,1.301000118,4,0,4,0,1,3,1,0,240,8,1,239,,,,,,,,,,,,,,,,,,
,,1,15,,,,,,,2,3,2,stim/32.jpeg,Instruments,2,stim/objects/Instruments/cornet.png,0.7,3,-0.2,-0.15,right,60,2021-02-22_08h25.56.490,premup-three_ses-01_part-01_label-phase1,3.2.4,Linux x86_64,60,right,0.611000061,4,0,4,0,1,3,1,0,240,113,1,239,,,,,,,,,,,,,,,,,,
,,0,16,,,,,,,1,1,4,stim/14.jpeg,Instruments,2,stim/objects/Instruments/banjo.png,0.5,2,0.2,0.15,right,60,2021-02-22_08h25.56.490,premup-three_ses-01_part-01_label-phase1,3.2.4,Linux x86_64,60,left,1.433000326,4,0,4,0,1,3,1,0,240,35,1,239,,,,,,,,,,,,,,,,,,
,,1,17,,,,,,,1,1,3,stim/13.jpeg,HouseObjects,1,stim/objects/HouseObjects/barbecuelighter.png,0.5,1,-0.2,0.15,left,60,2021-02-22_08h25.56.490,premup-three_ses-01_part-01_label-phase1,3.2.4,Linux x86_64,60,left,0.819000244,4,0,4,0,1,3,1,0,240,6,1,239,,,,,,,,,,,,,,,,,,
,,1,18,,,,,,,2,3,4,stim/34.jpeg,Instruments,2,stim/objects/Instruments/doublebass.png,0.7,4,0.2,-0.15,right,60,2021-02-22_08h25.56.490,premup-three_ses-01_part-01_label-phase1,3.2.4,Linux x86_64,60,right,0.613000154,4,0,4,0,1,3,1,0,240,115,1,239,,,,,,,,,,,,,,,,,,
,,1,19,,,,,,,3,6,4,stim/64.jpeg,HouseObjects,1,stim/objects/HouseObjects/clothespin2.png,0.9,3,-0.2,-0.15,left,60,2021-02-22_08h25.56.490,premup-three_ses-01_part-01_label-phase1,3.2.4,Linux x86_64,60,left,0.603000164,4,0,4,0,1,3,1,0,240,211,1,239,,,,,,,,,,,,,,,,,,
,,1,20,,,,,,,2,4,3,stim/43.jpeg,HouseObjects,1,stim/objects/HouseObjects/barbecuelighter2.png,0.7,1,-0.2,0.15,left,60,2021-02-22_08h25.56.490,premup-three_ses-01_part-01_label-phase1,3.2.4,Linux x86_64,60,left,1.304000139,4,0,4,0,1,3,1,0,240,130,1,239,,,,,,,,,,,,,,,,,,
,,1,21,,,,,,,2,3,3,stim/33.jpeg,Instruments,2,stim/objects/Instruments/cymbal.png,0.7,3,-0.2,-0.15,right,60,2021-02-22_08h25.56.490,premup-three_ses-01_part-01_label-phase1,3.2.4,Linux x86_64,60,right,0.631000042,4,0,4,0,1,3,1,0,240,102,1,239,,,,,,,,,,,,,,,,,,
,,1,22,,,,,,,3,6,2,stim/62.jpeg,HouseObjects,1,stim/objects/HouseObjects/clock2.png,0.9,2,0.2,0.15,left,60,2021-02-22_08h25.56.490,premup-three_ses-01_part-01_label-phase1,3.2.4,Linux x86_64,60,left,0.69900012,4,0,4,0,1,3,1,0,240,221,1,239,,,,,,,,,,,,,,,,,,
,,1,23,,,,,,,1,1,2,stim/12.jpeg,HouseObjects,1,stim/objects/HouseObjects/ballofstring.png,0.5,2,0.2,0.15,left,60,2021-02-22_08h25.56.490,premup-three_ses-01_part-01_label-phase1,3.2.4,Linux x86_64,60,left,1.035000086,4,0,4,0,1,3,1,0,240,5,1,239,,,,,,,,,,,,,,,,,,
,,0,24,,,,,,,1,1,1,stim/11.jpeg,Instruments,2,stim/objects/Instruments/accordion.png,0.5,2,0.2,0.15,right,60,2021-02-22_08h25.56.490,premup-three_ses-01_part-01_label-phase1,3.2.4,Linux x86_64,60,,,4,0,4,0,1,3,1,0,240,32,1,239,,,,,,,,,,,,,,,,,,
,,1,25,,,,,,,3,6,3,stim/63.jpeg,HouseObjects,1,stim/objects/HouseObjects/clothesdryingrack2.png,0.9,4,0.2,-0.15,left,60,2021-02-22_08h25.56.490,premup-three_ses-01_part-01_label-phase1,3.2.4,Linux x86_64,60,left,0.607000113,4,0,4,0,1,3,1,0,240,210,1,239,,,,,,,,,,,,,,,,,,
,,1,26,,,,,,,3,6,4,stim/64.jpeg,HouseObjects,1,stim/objects/HouseObjects/clothespin2.png,0.9,3,-0.2,-0.15,left,60,2021-02-22_08h25.56.490,premup-three_ses-01_part-01_label-phase1,3.2.4,Linux x86_64,60,left,0.620000362,4,0,4,0,1,3,1,0,240,219,1,239,,,,,,,,,,,,,,,,,,
,,1,27,,,,,,,3,5,2,stim/52.jpeg,Instruments,2,stim/objects/Instruments/bassguitar2.png,0.9,3,-0.2,-0.15,right,60,2021-02-22_08h25.56.490,premup-three_ses-01_part-01_label-phase1,3.2.4,Linux x86_64,60,right,0.694000244,4,0,4,0,1,3,1,0,240,193,1,239,,,,,,,,,,,,,,,,,,
,,0,28,,,,,,,2,4,4,stim/44.jpeg,HouseObjects,1,stim/objects/HouseObjects/basket2.png,0.7,2,0.2,0.15,left,60,2021-02-22_08h25.56.490,premup-three_ses-01_part-01_label-phase1,3.2.4,Linux x86_64,60,right,0.687000036,4,0,4,0,1,3,1,0,240,139,1,239,,,,,,,,,,,,,,,,,,
,,0,29,,,,,,,1,2,4,stim/24.jpeg,HouseObjects,1,stim/objects/HouseObjects/broom.png,0.5,3,-0.2,-0.15,left,60,2021-02-22_08h25.56.490,premup-three_ses-01_part-01_label-phase1,3.2.4,Linux x86_64,60,right,1.130000353,4,0,4,0,1,3,1,0,240,47,1,239,,,,,,,,,,,,,,,,,,
,,1,30,,,,,,,3,6,1,stim/61.jpeg,HouseObjects,1,stim/objects/HouseObjects/bucket2.png,0.9,2,0.2,0.15,left,60,2021-02-22_08h25.56.490,premup-three_ses-01_part-01_label-phase1,3.2.4,Linux x86_64,60,left,0.567000151,4,0,4,0,1,3,1,0,240,208,1,239,,,,,,,,,,,,,,,,,,
,,1,31,,,,,,,2,3,4,stim/34.jpeg,Instruments,2,stim/objects/Instruments/doublebass.png,0.7,4,0.2,-0.15,right,60,2021-02-22_08h25.56.490,premup-three_ses-01_part-01_label-phase1,3.2.4,Linux x86_64,60,right,0.754000187,4,0,4,0,1,3,1,0,240,119,1,239,,,,,,,,,,,,,,,,,,
,,1,32,,,,,,,1,1,4,stim/14.jpeg,HouseObjects,1,stim/objects/HouseObjects/basket.png,0.5,4,0.2,-0.15,left,60,2021-02-22_08h25.56.490,premup-three_ses-01_part-01_label-phase1,3.2.4,Linux x86_64,60,left,1.086000204,4,0,4,0,1,3,1,0,240,3,1,239,,,,,,,,,,,,,,,,,,
,,1,33,,,,,,,3,5,3,stim/53.jpeg,Instruments,2,stim/objects/Instruments/cello2.png,0.9,1,-0.2,0.15,right,60,2021-02-22_08h25.56.490,premup-three_ses-01_part-01_label-phase1,3.2.4,Linux x86_64,60,right,1.052999973,4,0,4,0,1,3,1,0,240,190,1,239,,,,,,,,,,,,,,,,,,
,,1,34,,,,,,,2,4,2,stim/42.jpeg,HouseObjects,1,stim/objects/HouseObjects/ballofstring2.png,0.7,3,-0.2,-0.15,left,60,2021-02-22_08h25.56.490,premup-three_ses-01_part-01_label-phase1,3.2.4,Linux x86_64,60,left,1.020000219,4,0,4,0,1,3,1,0,240,145,1,239,,,,,,,,,,,,,,,,,,
,,0,35,,,,,,,1,1,1,stim/11.jpeg,HouseObjects,1,stim/objects/HouseObjects/ashtray.png,0.5,2,0.2,0.15,left,60,2021-02-22_08h25.56.490,premup-three_ses-01_part-01_label-phase1,3.2.4,Linux x86_64,60,right,0.702000141,4,0,4,0,1,3,1,0,240,0,1,239,,,,,,,,,,,,,,,,,,
,,1,36,,,,,,,2,3,3,stim/33.jpeg,Instruments,2,stim/objects/Instruments/cymbal.png,0.7,1,-0.2,0.15,right,60,2021-02-22_08h25.56.490,premup-three_ses-01_part-01_label-phase1,3.2.4,Linux x86_64,60,right,0.803000212,4,0,4,0,1,3,1,0,240,118,1,239,,,,,,,,,,,,,,,,,,
,,0,37,,,,,,,1,1,3,stim/13.jpeg,Instruments,2,stim/objects/Instruments/balalaika.png,0.5,3,-0.2,-0.15,right,60,2021-02-22_08h25.56.490,premup-three_ses-01_part-01_label-phase1,3.2.4,Linux x86_64,60,left,0.705000162,4,0,4,0,1,3,1,0,240,38,1,239,,,,,,,,,,,,,,,,,,
,,1,38,,,,,,,1,2,1,stim/21.jpeg,Instruments,2,stim/objects/Instruments/bassdrum.png,0.5,2,0.2,0.15,right,60,2021-02-22_08h25.56.490,premup-three_ses-01_part-01_label-phase1,3.2.4,Linux x86_64,60,right,0.667000294,4,0,4,0,1,3,1,0,240,72,1,239,,,,,,,,,,,,,,,,,,
,,1,39,,,,,,,1,1,4,stim/14.jpeg,HouseObjects,1,stim/objects/HouseObjects/basket.png,0.5,3,-0.2,-0.15,left,60,2021-02-22_08h25.56.490,premup-three_ses-01_part-01_label-phase1,3.2.4,Linux x86_64,60,left,0.87100029,4,0,4,0,1,3,1,0,240,15,1,239,,,,,,,,,,,,,,,,,,
,,1,40,,,,,,,2,4,2,stim/42.jpeg,HouseObjects,1,stim/objects/HouseObjects/ballofstring2.png,0.7,3,-0.2,-0.15,left,60,2021-02-22_08h25.56.490,premup-three_ses-01_part-01_label-phase1,3.2.4,Linux x86_64,60,left,1.568000078,4,0,4,0,1,3,1,0,240,121,1,239,,,,,,,,,,,,,,,,,,
,,1,41,,,,,,,3,6,2,stim/62.jpeg,HouseObjects,1,stim/objects/HouseObjects/clock2.png,0.9,1,-0.2,0.15,left,60,2021-02-22_08h25.56.490,premup-three_ses-01_part-01_label-phase1,3.2.4,Linux x86_64,60,left,0.670000076,4,0,4,0,1,3,1,0,240,209,1,239,,,,,,,,,,,,,,,,,,
,,1,42,,,,,,,3,5,1,stim/51.jpeg,Instruments,2,stim/objects/Instruments/bassdrum2.png,0.9,3,-0.2,-0.15,right,60,2021-02-22_08h25.56.490,premup-three_ses-01_part-01_label-phase1,3.2.4,Linux x86_64,60,right,0.652000189,4,0,4,0,1,3,1,0,240,196,1,239,,,,,,,,,,,,,,,,,,
,,1,43,,,,,,,1,2,2,stim/22.jpeg,HouseObjects,1,stim/objects/HouseObjects/blender.png,0.5,3,-0.2,-0.15,left,60,2021-02-22_08h25.56.490,premup-three_ses-01_part-01_label-phase1,3.2.4,Linux x86_64,60,left,1.21600008,4,0,4,0,1,3,1,0,240,57,1,239,,,,,,,,,,,,,,,,,,
,,0,44,,,,,,,2,4,4,stim/44.jpeg,Instruments,2,stim/objects/Instruments/banjo2.png,0.3,1,-0.2,0.15,right,60,2021-02-22_08h25.56.490,premup-three_ses-01_part-01_label-phase1,3.2.4,Linux x86_64,60,left,1.021000147,4,0,4,0,1,3,1,0,240,151,1,239,,,,,,,,,,,,,,,,,,
,,0,45,,,,,,,2,4,2,stim/42.jpeg,HouseObjects,1,stim/objects/HouseObjects/ballofstring2.png,0.7,4,0.2,-0.15,left,60,2021-02-22_08h25.56.490,premup-three_ses-01_part-01_label-phase1,3.2.4,Linux x86_64,60,right,1.13800025,4,0,4,0,1,3,1,0,240,141,1,239,,,,,,,,,,,,,,,,,,
,,1,46,,,,,,,1,2,2,stim/22.jpeg,Instruments,2,stim/objects/Instruments/bassguitar.png,0.5,2,0.2,0.15,right,60,2021-02-22_08h25.56.490,premup-three_ses-01_part-01_label-phase1,3.2.4,Linux x86_64,60,right,1.572000027,4,0,4,0,1,3,1,0,240,73,1,239,,,,,,,,,,,,,,,,,,
,,0,47,,,,,,,2,3,4,stim/34.jpeg,HouseObjects,1,stim/objects/HouseObjects/clothespin.png,0.3,1,-0.2,0.15,left,60,2021-02-22_08h25.56.490,premup-three_ses-01_part-01_label-phase1,3.2.4,Linux x86_64,60,right,0.768000126,4,0,4,0,1,3,1,0,240,87,1,239,,,,,,,,,,,,,,,,,,
,,0,48,,,,,,,1,2,1,stim/21.jpeg,HouseObjects,1,stim/objects/HouseObjects/bleachbottle.png,0.5,1,-0.2,0.15,left,60,2021-02-22_08h25.56.490,premup-three_ses-01_part-01_label-phase1,3.2.4,Linux x86_64,60,right,0.758000135,4,0,4,0,1,3,1,0,240,40,1,239,,,,,,,,,,,,,,,,,,
,,0,49,,,,,,,2,4,1,stim/41.jpeg,Instruments,2,stim/objects/Instruments/accordion2.png,0.3,2,0.2,0.15,right,60,2021-02-22_08h25.56.490,premup-three_ses-01_part-01_label-phase1,3.2.4,Linux x86_64,60,left,0.913000345,4,0,4,0,1,3,1,0,240,148,1,239,,,,,,,,,,,,,,,,,,
,,1,50,,,,,,,3,6,1,stim/61.jpeg,HouseObjects,1,stim/objects/HouseObjects/bucket2.png,0.9,2,0.2,0.15,left,60,2021-02-22_08h25.56.490,premup-three_ses-01_part-01_label-phase1,3.2.4,Linux x86_64,60,left,0.752000093,4,0,4,0,1,3,1,0,240,204,1,239,,,,,,,,,,,,,,,,,,
,,1,51,,,,,,,3,5,2,stim/52.jpeg,Instruments,2,stim/objects/Instruments/bassguitar2.png,0.9,3,-0.2,-0.15,right,60,2021-02-22_08h25.56.490,premup-three_ses-01_part-01_label-phase1,3.2.4,Linux x86_64,60,right,0.855000257,4,0,4,0,1,3,1,0,240,169,1,239,,,,,,,,,,,,,,,,,,
,,1,52,,,,,,,3,6,1,stim/61.jpeg,HouseObjects,1,stim/objects/HouseObjects/bucket2.png,0.9,2,0.2,0.15,left,60,2021-02-22_08h25.56.490,premup-three_ses-01_part-01_label-phase1,3.2.4,Linux x86_64,60,left,0.700000286,4,0,4,0,1,3,1,0,240,200,1,239,,,,,,,,,,,,,,,,,,
,,0,53,,,,,,,3,5,1,stim/51.jpeg,HouseObjects,1,stim/objects/HouseObjects/bleachbottle2.png,0.1,1,-0.2,0.15,left,60,2021-02-22_08h25.56.490,premup-three_ses-01_part-01_label-phase1,3.2.4,Linux x86_64,60,right,0.687000275,4,0,4,0,1,3,1,0,240,160,1,239,,,,,,,,,,,,,,,,,,
,,1,54,,,,,,,3,5,2,stim/52.jpeg,Instruments,2,stim/objects/Instruments/bassguitar2.png,0.9,1,-0.2,0.15,right,60,2021-02-22_08h25.56.490,premup-three_ses-01_part-01_label-phase1,3.2.4,Linux x86_64,60,right,0.902000189,4,0,4,0,1,3,1,0,240,181,1,239,,,,,,,,,,,,,,,,,,
,,1,55,,,,,,,3,5,4,stim/54.jpeg,Instruments,2,stim/objects/Instruments/chime2.png,0.9,2,0.2,0.15,right,60,2021-02-22_08h25.56.490,premup-three_ses-01_part-01_label-phase1,3.2.4,Linux x86_64,60,right,0.963000298,4,0,4,0,1,3,1,0,240,191,1,239,,,,,,,,,,,,,,,,,,
,,1,56,,,,,,,3,6,1,stim/61.jpeg,HouseObjects,1,stim/objects/HouseObjects/bucket2.png,0.9,2,0.2,0.15,left,60,2021-02-22_08h25.56.490,premup-three_ses-01_part-01_label-phase1,3.2.4,Linux x86_64,60,left,0.605000019,4,0,4,0,1,3,1,0,240,212,1,239,,,,,,,,,,,,,,,,,,
,,1,57,,,,,,,2,4,4,stim/44.jpeg,HouseObjects,1,stim/objects/HouseObjects/basket2.png,0.7,1,-0.2,0.15,left,60,2021-02-22_08h25.56.490,premup-three_ses-01_part-01_label-phase1,3.2.4,Linux x86_64,60,left,1.054000378,4,0,4,0,1,3,1,0,240,123,1,239,,,,,,,,,,,,,,,,,,
,,1,58,,,,,,,3,6,2,stim/62.jpeg,HouseObjects,1,stim/objects/HouseObjects/clock2.png,0.9,3,-0.2,-0.15,left,60,2021-02-22_08h25.56.490,premup-three_ses-01_part-01_label-phase1,3.2.4,Linux x86_64,60,left,0.652000189,4,0,4,0,1,3,1,0,240,229,1,239,,,,,,,,,,,,,,,,,,
,,0,59,,,,,,,2,4,2,stim/42.jpeg,Instruments,2,stim/objects/Instruments/acousticguitar2.png,0.3,3,-0.2,-0.15,right,60,2021-02-22_08h25.56.490,premup-three_ses-01_part-01_label-phase1,3.2.4,Linux x86_64,60,left,1.353000164,4,0,4,0,1,3,1,0,240,157,1,239,,,,,,,,,,,,,,,,,,
,,1,60,,,,,,,1,2,1,stim/21.jpeg,Instruments,2,stim/objects/Instruments/bassdrum.png,0.5,4,0.2,-0.15,right,60,2021-02-22_08h25.56.490,premup-three_ses-01_part-01_label-phase1,3.2.4,Linux x86_64,60,right,0.720999956,4,0,4,0,1,3,1,0,240,68,1,239,,,,,,,,,,,,,,,,,,
,,1,61,,,,,,,2,4,3,stim/43.jpeg,HouseObjects,1,stim/objects/HouseObjects/barbecuelighter2.png,0.7,4,0.2,-0.15,left,60,2021-02-22_08h25.56.490,premup-three_ses-01_part-01_label-phase1,3.2.4,Linux x86_64,60,left,0.848999977,4,0,4,0,1,3,1,0,240,142,1,239,,,,,,,,,,,,,,,,,,
,,0,62,,,,,,,1,2,4,stim/24.jpeg,HouseObjects,1,stim/objects/HouseObjects/broom.png,0.5,4,0.2,-0.15,left,60,2021-02-22_08h25.56.490,premup-three_ses-01_part-01_label-phase1,3.2.4,Linux x86_64,60,right,0.871000051,4,0,4,0,1,3,1,0,240,55,1,239,,,,,,,,,,,,,,,,,,
,,1,63,,,,,,,3,5,1,stim/51.jpeg,Instruments,2,stim/objects/Instruments/bassdrum2.png,0.9,1,-0.2,0.15,right,60,2021-02-22_08h25.56.490,premup-three_ses-01_part-01_label-phase1,3.2.4,Linux x86_64,60,right,0.637000084,4,0,4,0,1,3,1,0,240,188,1,239,,,,,,,,,,,,,,,,,,
,,1,64,,,,,,,3,6,1,stim/61.jpeg,HouseObjects,1,stim/objects/HouseObjects/bucket2.png,0.9,4,0.2,-0.15,left,60,2021-02-22_08h25.56.490,premup-three_ses-01_part-01_label-phase1,3.2.4,Linux x86_64,60,left,0.85800004,4,0,4,0,1,3,1,0,240,232,1,239,,,,,,,,,,,,,,,,,,
,,1,65,,,,,,,3,5,1,stim/51.jpeg,Instruments,2,stim/objects/Instruments/bassdrum2.png,0.9,3,-0.2,-0.15,right,60,2021-02-22_08h25.56.490,premup-three_ses-01_part-01_label-phase1,3.2.4,Linux x86_64,60,right,0.623000145,4,0,4,0,1,3,1,0,240,192,1,239,,,,,,,,,,,,,,,,,,
,,0,66,,,,,,,1,2,4,stim/24.jpeg,Instruments,2,stim/objects/Instruments/chime.png,0.5,3,-0.2,-0.15,right,60,2021-02-22_08h25.56.490,premup-three_ses-01_part-01_label-phase1,3.2.4,Linux x86_64,60,left,0.803000212,4,0,4,0,1,3,1,0,240,67,1,239,,,,,,,,,,,,,,,,,,
,,1,67,,,,,,,3,6,4,stim/64.jpeg,HouseObjects,1,stim/objects/HouseObjects/clothespin2.png,0.9,3,-0.2,-0.15,left,60,2021-02-22_08h25.56.490,premup-three_ses-01_part-01_label-phase1,3.2.4,Linux x86_64,60,left,0.735000134,4,0,4,0,1,3,1,0,240,231,1,239,,,,,,,,,,,,,,,,,,
,,1,68,,,,,,,2,4,3,stim/43.jpeg,HouseObjects,1,stim/objects/HouseObjects/barbecuelighter2.png,0.7,2,0.2,0.15,left,60,2021-02-22_08h25.56.490,premup-three_ses-01_part-01_label-phase1,3.2.4,Linux x86_64,60,left,0.837000132,4,0,4,0,1,3,1,0,240,122,1,239,,,,,,,,,,,,,,,,,,
,,1,69,,,,,,,2,4,3,stim/43.jpeg,Instruments,2,stim/objects/Instruments/balalaika2.png,0.3,3,-0.2,-0.15,right,60,2021-02-22_08h25.56.490,premup-three_ses-01_part-01_label-phase1,3.2.4,Linux x86_64,60,right,0.687000275,4,0,4,0,1,3,1,0,240,150,1,239,,,,,,,,,,,,,,,,,,
,,0,70,,,,,,,1,1,2,stim/12.jpeg,Instruments,2,stim/objects/Instruments/acousticguitar.png,0.5,3,-0.2,-0.15,right,60,2021-02-22_08h25.56.490,premup-three_ses-01_part-01_label-phase1,3.2.4,Linux x86_64,60,left,0.766000271,4,0,4,0,1,3,1,0,240,29,1,239,,,,,,,,,,,,,,,,,,
,,1,71,,,,,,,3,5,2,stim/52.jpeg,Instruments,2,stim/objects/Instruments/bassguitar2.png,0.9,3,-0.2,-0.15,right,60,2021-02-22_08h25.56.490,premup-three_ses-01_part-01_label-phase1,3.2.4,Linux x86_64,60,right,0.602000237,4,0,4,0,1,3,1,0,240,185,1,239,,,,,,,,,,,,,,,,,,
,,0,72,,,,,,,2,3,1,stim/31.jpeg,HouseObjects,1,stim/objects/HouseObjects/bucket.png,0.3,2,0.2,0.15,left,60,2021-02-22_08h25.56.490,premup-three_ses-01_part-01_label-phase1,3.2.4,Linux x86_64,60,right,0.782000065,4,0,4,0,1,3,1,0,240,84,1,239,,,,,,,,,,,,,,,,,,
,,1,73,,,,,,,2,4,1,stim/41.jpeg,HouseObjects,1,stim/objects/HouseObjects/ashtray2.png,0.7,4,0.2,-0.15,left,60,2021-02-22_08h25.56.490,premup-three_ses-01_part-01_label-phase1,3.2.4,Linux x86_64,60,left,1.053000212,4,0,4,0,1,3,1,0,240,144,1,239,,,,,,,,,,,,,,,,,,
,,1,74,,,,,,,3,5,3,stim/53.jpeg,Instruments,2,stim/objects/Instruments/cello2.png,0.9,1,-0.2,0.15,right,60,2021-02-22_08h25.56.490,premup-three_ses-01_part-01_label-phase1,3.2.4,Linux x86_64,60,right,0.83100009,4,0,4,0,1,3,1,0,240,198,1,239,,,,,,,,,,,,,,,,,,
,,0,75,,,,,,,3,6,2,stim/62.jpeg,Instruments,2,stim/objects/Instruments/cornet2.png,0.1,1,-0.2,0.15,right,60,2021-02-22_08h25.56.490,premup-three_ses-01_part-01_label-phase1,3.2.4,Linux x86_64,60,left,0.720000267,4,0,4,0,1,3,1,0,240,237,1,239,,,,,,,,,,,,,,,,,,
,,1,76,,,,,,,1,1,1,stim/11.jpeg,Instruments,2,stim/objects/Instruments/accordion.png,0.5,3,-0.2,-0.15,right,60,2021-02-22_08h25.56.490,premup-three_ses-01_part-01_label-phase1,3.2.4,Linux x86_64,60,right,0.815000057,4,0,4,0,1,3,1,0,240,28,1,239,,,,,,,,,,,,,,,,,,
,,1,77,,,,,,,2,4,3,stim/43.jpeg,HouseObjects,1,stim/objects/HouseObjects/barbecuelighter2.png,0.7,2,0.2,0.15,left,60,2021-02-22_08h25.56.490,premup-three_ses-01_part-01_label-phase1,3.2.4,Linux x86_64,60,left,1.002000332,4,0,4,0,1,3,1,0,240,138,1,239,,,,,,,,,,,,,,,,,,
,,1,78,,,,,,,3,6,1,stim/61.jpeg,HouseObjects,1,stim/objects/HouseObjects/bucket2.png,0.9,2,0.2,0.15,left,60,2021-02-22_08h25.56.490,premup-three_ses-01_part-01_label-phase1,3.2.4,Linux x86_64,60,left,0.620000362,4,0,4,0,1,3,1,0,240,224,1,239,,,,,,,,,,,,,,,,,,
,,0,79,,,,,,,2,3,3,stim/33.jpeg,HouseObjects,1,stim/objects/HouseObjects/clothesdryingrack.png,0.3,1,-0.2,0.15,left,60,2021-02-22_08h25.56.490,premup-three_ses-01_part-01_label-phase1,3.2.4,Linux x86_64,60,right,0.644000292,4,0,4,0,1,3,1,0,240,86,1,239,,,,,,,,,,,,,,,,,,
,,1,80,,,,,,,2,4,3,stim/43.jpeg,HouseObjects,1,stim/objects/HouseObjects/barbecuelighter2.png,0.7,2,0.2,0.15,left,60,2021-02-22_08h25.56.490,premup-three_ses-01_part-01_label-phase1,3.2.4,Linux x86_64,60,left,1.036000252,4,0,4,0,1,3,1,0,240,126,1,239,,,,,,,,,,,,,,,,,,
,,1,81,,,,,,,1,1,4,stim/14.jpeg,HouseObjects,1,stim/objects/HouseObjects/basket.png,0.5,3,-0.2,-0.15,left,60,2021-02-22_08h25.56.490,premup-three_ses-01_part-01_label-phase1,3.2.4,Linux x86_64,60,left,0.89800024,4,0,4,0,1,3,1,0,240,11,1,239,,,,,,,,,,,,,,,,,,
,,1,82,,,,,,,1,1,4,stim/14.jpeg,HouseObjects,1,stim/objects/HouseObjects/basket.png,0.5,4,0.2,-0.15,left,60,2021-02-22_08h25.56.490,premup-three_ses-01_part-01_label-phase1,3.2.4,Linux x86_64,60,left,0.621000051,4,0,4,0,1,3,1,0,240,7,1,239,,,,,,,,,,,,,,,,,,
,,0,83,,,,,,,3,5,2,stim/52.jpeg,HouseObjects,1,stim/objects/HouseObjects/blender2.png,0.1,3,-0.2,-0.15,left,60,2021-02-22_08h25.56.490,premup-three_ses-01_part-01_label-phase1,3.2.4,Linux x86_64,60,right,0.637000084,4,0,4,0,1,3,1,0,240,161,1,239,,,,,,,,,,,,,,,,,,
,,1,84,,,,,,,3,6,3,stim/63.jpeg,HouseObjects,1,stim/objects/HouseObjects/clothesdryingrack2.png,0.9,1,-0.2,0.15,left,60,2021-02-22_08h25.56.490,premup-three_ses-01_part-01_label-phase1,3.2.4,Linux x86_64,60,left,0.572000027,4,0,4,0,1,3,1,0,240,226,1,239,,,,,,,,,,,,,,,,,,
,,0,85,,,,,,,3,6,1,stim/61.jpeg,Instruments,2,stim/objects/Instruments/clarinet2.png,0.1,4,0.2,-0.15,right,60,2021-02-22_08h25.56.490,premup-three_ses-01_part-01_label-phase1,3.2.4,Linux x86_64,60,left,0.619000196,4,0,4,0,1,3,1,0,240,236,1,239,,,,,,,,,,,,,,,,,,
,,1,86,,,,,,,3,6,2,stim/62.jpeg,HouseObjects,1,stim/objects/HouseObjects/clock2.png,0.9,1,-0.2,0.15,left,60,2021-02-22_08h25.56.490,premup-three_ses-01_part-01_label-phase1,3.2.4,Linux x86_64,60,left,0.769000292,4,0,4,0,1,3,1,0,240,233,1,239,,,,,,,,,,,,,,,,,,
,,0,87,,,,,,,2,4,4,stim/44.jpeg,HouseObjects,1,stim/objects/HouseObjects/basket2.png,0.7,1,-0.2,0.15,left,60,2021-02-22_08h25.56.490,premup-three_ses-01_part-01_label-phase1,3.2.4,Linux x86_64,60,right,1.33100009,4,0,4,0,1,3,1,0,240,143,1,239,,,,,,,,,,,,,,,,,,
,,1,88,,,,,,,2,4,2,stim/42.jpeg,Instruments,2,stim/objects/Instruments/acousticguitar2.png,0.3,2,0.2,0.15,right,60,2021-02-22_08h25.56.490,premup-three_ses-01_part-01_label-phase1,3.2.4,Linux x86_64,60,right,0.788000107,4,0,4,0,1,3,1,0,240,153,1,239,,,,,,,,,,,,,,,,,,
,,1,89,,,,,,,3,5,4,stim/54.jpeg,Instruments,2,stim/objects/Instruments/chime2.png,0.9,3,-0.2,-0.15,right,60,2021-02-22_08h25.56.490,premup-three_ses-01_part-01_label-phase1,3.2.4,Linux x86_64,60,right,0.719000101,4,0,4,0,1,3,1,0,240,183,1,239,,,,,,,,,,,,,,,,,,
,,1,90,,,,,,,2,3,3,stim/33.jpeg,Instruments,2,stim/objects/Instruments/cymbal.png,0.7,3,-0.2,-0.15,right,60,2021-02-22_08h25.56.490,premup-three_ses-01_part-01_label-phase1,3.2.4,Linux x86_64,60,right,0.594000101,4,0,4,0,1,3,1,0,240,98,1,239,,,,,,,,,,,,,,,,,,
,,0,91,,,,,,,2,4,4,stim/44.jpeg,HouseObjects,1,stim/objects/HouseObjects/basket2.png,0.7,3,-0.2,-0.15,left,60,2021-02-22_08h25.56.490,premup-three_ses-01_part-01_label-phase1,3.2.4,Linux x86_64,60,right,1.354000092,4,0,4,0,1,3,1,0,240,127,1,239,,,,,,,,,,,,,,,,,,
,,1,92,,,,,,,1,2,3,stim/23.jpeg,HouseObjects,1,stim/objects/HouseObjects/bottle.png,0.5,3,-0.2,-0.15,left,60,2021-02-22_08h25.56.490,premup-three_ses-01_part-01_label-phase1,3.2.4,Linux x86_64,60,left,1.248000145,4,0,4,0,1,3,1,0,240,50,1,239,,,,,,,,,,,,,,,,,,
,,1,93,,,,,,,3,6,4,stim/64.jpeg,HouseObjects,1,stim/objects/HouseObjects/clothespin2.png,0.9,2,0.2,0.15,left,60,2021-02-22_08h25.56.490,premup-three_ses-01_part-01_label-phase1,3.2.4,Linux x86_64,60,left,0.684000254,4,0,4,0,1,3,1,0,240,223,1,239,,,,,,,,,,,,,,,,,,
,,1,94,,,,,,,2,3,3,stim/33.jpeg,Instruments,2,stim/objects/Instruments/cymbal.png,0.7,1,-0.2,0.15,right,60,2021-02-22_08h25.56.490,premup-three_ses-01_part-01_label-phase1,3.2.4,Linux x86_64,60,right,0.623000145,4,0,4,0,1,3,1,0,240,94,1,239,,,,,,,,,,,,,,,,,,
,,0,95,,,,,,,2,4,3,stim/43.jpeg,Instruments,2,stim/objects/Instruments/balalaika2.png,0.3,1,-0.2,0.15,right,60,2021-02-22_08h25.56.490,premup-three_ses-01_part-01_label-phase1,3.2.4,Linux x86_64,60,left,1.202000141,4,0,4,0,1,3,1,0,240,154,1,239,,,,,,,,,,,,,,,,,,
,,1,96,,,,,,,1,1,4,stim/14.jpeg,Instruments,2,stim/objects/Instruments/banjo.png,0.5,1,-0.2,0.15,right,60,2021-02-22_08h25.56.490,premup-three_ses-01_part-01_label-phase1,3.2.4,Linux x86_64,60,right,1.070000172,4,0,4,0,1,3,1,0,240,27,1,239,,,,,,,,,,,,,,,,,,
,,1,97,,,,,,,1,1,1,stim/11.jpeg,HouseObjects,1,stim/objects/HouseObjects/ashtray.png,0.5,2,0.2,0.15,left,60,2021-02-22_08h25.56.490,premup-three_ses-01_part-01_label-phase1,3.2.4,Linux x86_64,60,left,1.353000164,4,0,4,0,1,3,1,0,240,4,1,239,,,,,,,,,,,,,,,,,,
,,0,98,,,,,,,1,1,4,stim/14.jpeg,Instruments,2,stim/objects/Instruments/banjo.png,0.5,3,-0.2,-0.15,right,60,2021-02-22_08h25.56.490,premup-three_ses-01_part-01_label-phase1,3.2.4,Linux x86_64,60,left,0.803000212,4,0,4,0,1,3,1,0,240,31,1,239,,,,,,,,,,,,,,,,,,
,,0,99,,,,,,,1,2,3,stim/23.jpeg,Instruments,2,stim/objects/Instruments/cello.png,0.5,3,-0.2,-0.15,right,60,2021-02-22_08h25.56.490,premup-three_ses-01_part-01_label-phase1,3.2.4,Linux x86_64,60,left,1.002000332,4,0,4,0,1,3,1,0,240,66,1,239,,,,,,,,,,,,,,,,,,
,,1,100,,,,,,,3,6,4,stim/64.jpeg,HouseObjects,1,stim/objects/HouseObjects/clothespin2.png,0.9,1,-0.2,0.15,left,60,2021-02-22_08h25.56.490,premup-three_ses-01_part-01_label-phase1,3.2.4,Linux x86_64,60,left,0.788000107,4,0,4,0,1,3,1,0,240,235,1,239,,,,,,,,,,,,,,,,,,
,,1,101,,,,,,,3,6,3,stim/63.jpeg,HouseObjects,1,stim/objects/HouseObjects/clothesdryingrack2.png,0.9,2,0.2,0.15,left,60,2021-02-22_08h25.56.490,premup-three_ses-01_part-01_label-phase1,3.2.4,Linux x86_64,60,left,0.971000195,4,0,4,0,1,3,1,0,240,218,1,239,,,,,,,,,,,,,,,,,,
,,1,102,,,,,,,2,3,1,stim/31.jpeg,Instruments,2,stim/objects/Instruments/clarinet.png,0.7,1,-0.2,0.15,right,60,2021-02-22_08h25.56.490,premup-three_ses-01_part-01_label-phase1,3.2.4,Linux x86_64,60,right,1.21900034,4,0,4,0,1,3,1,0,240,104,1,239,,,,,,,,,,,,,,,,,,
,,0,103,,,,,,,1,1,4,stim/14.jpeg,HouseObjects,1,stim/objects/HouseObjects/basket.png,0.5,2,0.2,0.15,left,60,2021-02-22_08h25.56.490,premup-three_ses-01_part-01_label-phase1,3.2.4,Linux x86_64,60,,,4,0,4,0,1,3,1,0,240,19,1,239,,,,,,,,,,,,,,,,,,
,,0,104,,,,,,,1,1,2,stim/12.jpeg,Instruments,2,stim/objects/Instruments/acousticguitar.png,0.5,4,0.2,-0.15,right,60,2021-02-22_08h25.56.490,premup-three_ses-01_part-01_label-phase1,3.2.4,Linux x86_64,60,left,0.787000179,4,0,4,0,1,3,1,0,240,37,1,239,,,,,,,,,,,,,,,,,,
,,1,105,,,,,,,3,5,1,stim/51.jpeg,Instruments,2,stim/objects/Instruments/bassdrum2.png,0.9,1,-0.2,0.15,right,60,2021-02-22_08h25.56.490,premup-three_ses-01_part-01_label-phase1,3.2.4,Linux x86_64,60,right,0.697000027,4,0,4,0,1,3,1,0,240,168,1,239,,,,,,,,,,,,,,,,,,
,,0,106,,,,,,,2,3,2,stim/32.jpeg,HouseObjects,1,stim/objects/HouseObjects/clock.png,0.3,2,0.2,0.15,left,60,2021-02-22_08h25.56.490,premup-three_ses-01_part-01_label-phase1,3.2.4,Linux x86_64,60,right,1.25,4,0,4,0,1,3,1,0,240,81,1,239,,,,,,,,,,,,,,,,,,
,,1,107,,,,,,,2,3,2,stim/32.jpeg,Instruments,2,stim/objects/Instruments/cornet.png,0.7,2,0.2,0.15,right,60,2021-02-22_08h25.56.490,premup-three_ses-01_part-01_label-phase1,3.2.4,Linux x86_64,60,right,1.070000172,4,0,4,0,1,3,1,0,240,101,1,239,,,,,,,,,,,,,,,,,,
,,1,108,,,,,,,3,6,2,stim/62.jpeg,HouseObjects,1,stim/objects/HouseObjects/clock2.png,0.9,4,0.2,-0.15,left,60,2021-02-22_08h25.56.490,premup-three_ses-01_part-01_label-phase1,3.2.4,Linux x86_64,60,left,0.737000227,4,0,4,0,1,3,1,0,240,201,1,239,,,,,,,,,,,,,,,,,,
,,1,109,,,,,,,3,5,4,stim/54.jpeg,Instruments,2,stim/objects/Instruments/chime2.png,0.9,2,0.2,0.15,right,60,2021-02-22_08h25.56.490,premup-three_ses-01_part-01_label-phase1,3.2.4,Linux x86_64,60,right,1.085000277,4,0,4,0,1,3,1,0,240,187,1,239,,,,,,,,,,,,,,,,,,
,,0,110,,,,,,,1,2,4,stim/24.jpeg,Instruments,2,stim/objects/Instruments/chime.png,0.5,1,-0.2,0.15,right,60,2021-02-22_08h25.56.490,premup-three_ses-01_part-01_label-phase1,3.2.4,Linux x86_64,60,left,0.849000216,4,0,4,0,1,3,1,0,240,75,1,239,,,,,,,,,,,,,,,,,,
,,1,111,,,,,,,1,2,1,stim/21.jpeg,Instruments,2,stim/objects/Instruments/bassdrum.png,0.5,1,-0.2,0.15,right,60,2021-02-22_08h25.56.490,premup-three_ses-01_part-01_label-phase1,3.2.4,Linux x86_64,60,right,0.734000206,4,0,4,0,1,3,1,0,240,76,1,239,,,,,,,,,,,,,,,,,,
,,1,112,,,,,,,3,5,3,stim/53.jpeg,Instruments,2,stim/objects/Instruments/cello2.png,0.9,4,0.2,-0.15,right,60,2021-02-22_08h25.56.490,premup-three_ses-01_part-01_label-phase1,3.2.4,Linux x86_64,60,right,0.823000193,4,0,4,0,1,3,1,0,240,194,1,239,,,,,,,,,,,,,,,,,,
,,1,113,,,,,,,3,6,2,stim/62.jpeg,HouseObjects,1,stim/objects/HouseObjects/clock2.png,0.9,4,0.2,-0.15,left,60,2021-02-22_08h25.56.490,premup-three_ses-01_part-01_label-phase1,3.2.4,Linux x86_64,60,left,0.784000158,4,0,4,0,1,3,1,0,240,225,1,239,,,,,,,,,,,,,,,,,,
,,1,114,,,,,,,1,2,2,stim/22.jpeg,Instruments,2,stim/objects/Instruments/bassguitar.png,0.5,1,-0.2,0.15,right,60,2021-02-22_08h25.56.490,premup-three_ses-01_part-01_label-phase1,3.2.4,Linux x86_64,60,right,1.231000185,4,0,4,0,1,3,1,0,240,65,1,239,,,,,,,,,,,,,,,,,,
,,1,115,,,,,,,1,1,3,stim/13.jpeg,HouseObjects,1,stim/objects/HouseObjects/barbecuelighter.png,0.5,3,-0.2,-0.15,left,60,2021-02-22_08h25.56.490,premup-three_ses-01_part-01_label-phase1,3.2.4,Linux x86_64,60,left,0.81400013,4,0,4,0,1,3,1,0,240,2,1,239,,,,,,,,,,,,,,,,,,
,,0,116,,,,,,,1,2,3,stim/23.jpeg,Instruments,2,stim/objects/Instruments/cello.png,0.5,2,0.2,0.15,right,60,2021-02-22_08h25.56.490,premup-three_ses-01_part-01_label-phase1,3.2.4,Linux x86_64,60,left,0.87100029,4,0,4,0,1,3,1,0,240,78,1,239,,,,,,,,,,,,,,,,,,
,,1,117,,,,,,,2,4,1,stim/41.jpeg,HouseObjects,1,stim/objects/HouseObjects/ashtray2.png,0.7,2,0.2,0.15,left,60,2021-02-22_08h25.56.490,premup-three_ses-01_part-01_label-phase1,3.2.4,Linux x86_64,60,left,0.750000238,4,0,4,0,1,3,1,0,240,120,1,239,,,,,,,,,,,,,,,,,,
,,0,118,,,,,,,2,3,3,stim/33.jpeg,HouseObjects,1,stim/objects/HouseObjects/clothesdryingrack.png,0.3,4,0.2,-0.15,left,60,2021-02-22_08h25.56.490,premup-three_ses-01_part-01_label-phase1,3.2.4,Linux x86_64,60,right,0.669000149,4,0,4,0,1,3,1,0,240,82,1,239,,,,,,,,,,,,,,,,,,
,,1,119,,,,,,,3,5,4,stim/54.jpeg,Instruments,2,stim/objects/Instruments/chime2.png,0.9,4,0.2,-0.15,right,60,2021-02-22_08h25.56.490,premup-three_ses-01_part-01_label-phase1,3.2.4,Linux x86_64,60,right,0.717000246,4,0,4,0,1,3,1,0,240,195,1,239,,,,,,,,,,,,,,,,,,
,,1,120,,,,,,,2,4,3,stim/43.jpeg,HouseObjects,1,stim/objects/HouseObjects/barbecuelighter2.png,0.7,4,0.2,-0.15,left,60,2021-02-22_08h25.56.490,premup-three_ses-01_part-01_label-phase1,3.2.4,Linux x86_64,60,left,0.80700016,4,0,4,0,1,3,1,0,240,134,1,239,,,,,,,,,,,,,,,,,,
,,1,121,,,,,,,1,2,4,stim/24.jpeg,Instruments,2,stim/objects/Instruments/chime.png,0.5,1,-0.2,0.15,right,60,2021-02-22_08h25.56.490,premup-three_ses-01_part-01_label-phase1,3.2.4,Linux x86_64,60,right,1.203000307,4,0,4,0,1,3,1,0,240,79,1,239,,,,,,,,,,,,,,,,,,
,,0,122,,,,,,,1,2,2,stim/22.jpeg,HouseObjects,1,stim/objects/HouseObjects/blender.png,0.5,2,0.2,0.15,left,60,2021-02-22_08h25.56.490,premup-three_ses-01_part-01_label-phase1,3.2.4,Linux x86_64,60,right,0.766000271,4,0,4,0,1,3,1,0,240,49,1,239,,,,,,,,,,,,,,,,,,
