id_acc,key_resp_id.keys,key_resp_id.rt,key_resp_conf.keys,key_resp_conf.rt,assoc_acc,key_resp_assoc.keys,key_resp_assoc.rt,loc_acc,key_resp_loc.keys,key_resp_loc.rt,task_innerloop.thisRepN,task_innerloop.thisTrialN,task_innerloop.thisN,task_innerloop.thisIndex,task_innerloop.ran,task_innerloop.order,context_type,object_cat,PE_level,OvsN,obj_file,scn_file,corr_scn_cat,assoc_file,corr_scn_inst,corr_loc,participant,date,expName,psychopyVersion,OS,frameRate
1,right,1.515000105,,,0,,,0,,,1,0,200,180,1,199,0,1,0,2,stim/objects/HouseObjects/flyswatter4.png,,0,stim/0.png,0,0,60,2021-02-24_07h31.36.558,premup-three_ses-02_part-03_label-phase3,3.2.4,Linux x86_64,60
1,right,1.122999907,,,0,,,0,,,1,0,200,160,1,199,0,1,0,2,stim/objects/HouseObjects/thermometer3.png,,0,stim/0.png,0,0,60,2021-02-24_07h31.36.558,premup-three_ses-02_part-03_label-phase3,3.2.4,Linux x86_64,60
1,left,1.118000031,4,2.762999773,0,3,7.814999819,0,1,2.463000059,1,0,200,36,1,199,2,2,0.7,1,stim/objects/Instruments/electricdrumset2.png,stim/34.jpeg,3,stim/3.png,4,1,60,2021-02-24_07h31.36.558,premup-three_ses-02_part-03_label-phase3,3.2.4,Linux x86_64,60
1,right,4.145999908,,,0,,,0,,,1,0,200,100,1,199,0,1,0,2,stim/objects/HouseObjects/coffee3.png,,0,stim/0.png,0,0,60,2021-02-24_07h31.36.558,premup-three_ses-02_part-03_label-phase3,3.2.4,Linux x86_64,60
1,right,1.423999786,,,0,,,0,,,1,0,200,173,1,199,0,2,0,2,stim/objects/Instruments/vuvuzela3.png,,0,stim/0.png,0,0,60,2021-02-24_07h31.36.558,premup-three_ses-02_part-03_label-phase3,3.2.4,Linux x86_64,60
1,right,0.95299983,4,2.156999826,0,4,5.368000031,0,1,0.987999916,1,0,200,89,1,199,3,1,0.9,1,stim/objects/HouseObjects/wateringcan2.png,stim/62.jpeg,6,stim/6.png,2,4,60,2021-02-24_07h31.36.558,premup-three_ses-02_part-03_label-phase3,3.2.4,Linux x86_64,60
1,right,1.402999878,,,0,,,0,,,1,0,200,157,1,199,0,2,0,2,stim/objects/Instruments/timbal3.png,,0,stim/0.png,0,0,60,2021-02-24_07h31.36.558,premup-three_ses-02_part-03_label-phase3,3.2.4,Linux x86_64,60
1,right,1.151999712,,,0,,,0,,,1,0,200,199,1,199,0,2,0,2,stim/objects/Instruments/maraca4.png,,0,stim/0.png,0,0,60,2021-02-24_07h31.36.558,premup-three_ses-02_part-03_label-phase3,3.2.4,Linux x86_64,60
1,left,12.67400002,,,0,,,0,,,1,0,200,135,1,199,0,2,0,2,stim/objects/Instruments/marimba3.png,,0,stim/0.png,0,0,60,2021-02-24_07h31.36.558,premup-three_ses-02_part-03_label-phase3,3.2.4,Linux x86_64,60
1,right,3.345999956,2,3.073999882,0,3,3.625,0,1,1.135999918,1,0,200,55,1,199,2,2,0.3,1,stim/objects/Instruments/harp2.png,stim/43.jpeg,4,stim/4.png,3,4,60,2021-02-24_07h31.36.558,premup-three_ses-02_part-03_label-phase3,3.2.4,Linux x86_64,60
1,left,1.694999933,4,2.309000015,0,1,7.684000015,0,3,3.493000031,1,0,200,65,1,199,3,1,0.1,1,stim/objects/HouseObjects/recyclingbin2.png,stim/52.jpeg,5,stim/5.png,2,3,60,2021-02-24_07h31.36.558,premup-three_ses-02_part-03_label-phase3,3.2.4,Linux x86_64,60
1,right,1.600999832,,,0,,,0,,,1,0,200,114,1,199,0,2,0,2,stim/objects/Instruments/flutetrans3.png,,0,stim/0.png,0,0,60,2021-02-24_07h31.36.558,premup-three_ses-02_part-03_label-phase3,3.2.4,Linux x86_64,60
1,right,1.136999846,2,3.461999893,0,4,2.04399991,0,4,1.140000105,1,0,200,95,1,199,3,2,0.1,1,stim/objects/Instruments/trumpet2.png,stim/64.jpeg,6,stim/6.png,4,4,60,2021-02-24_07h31.36.558,premup-three_ses-02_part-03_label-phase3,3.2.4,Linux x86_64,60
1,right,1.263999939,,,0,,,0,,,1,0,200,149,1,199,0,1,0,2,stim/objects/HouseObjects/teapot3.png,,0,stim/0.png,0,0,60,2021-02-24_07h31.36.558,premup-three_ses-02_part-03_label-phase3,3.2.4,Linux x86_64,60
1,left,4.07799983,3,4.208999872,0,1,1.59499979,0,1,2.545999765,1,0,200,83,1,199,3,1,0.9,1,stim/objects/HouseObjects/spraybottle2.png,stim/64.jpeg,6,stim/6.png,4,4,60,2021-02-24_07h31.36.558,premup-three_ses-02_part-03_label-phase3,3.2.4,Linux x86_64,60
1,left,3.944999933,3,1.28399992,0,4,8.032999992,0,2,1.862999916,1,0,200,59,1,199,2,2,0.3,1,stim/objects/Instruments/maraca2.png,stim/43.jpeg,4,stim/4.png,3,2,60,2021-02-24_07h31.36.558,premup-three_ses-02_part-03_label-phase3,3.2.4,Linux x86_64,60
1,left,2.428999901,3,1.121999741,0,1,4.818000078,0,3,1.46999979,1,0,200,25,1,199,2,1,0.3,1,stim/objects/HouseObjects/coffee2.png,stim/32.jpeg,3,stim/3.png,2,2,60,2021-02-24_07h31.36.558,premup-three_ses-02_part-03_label-phase3,3.2.4,Linux x86_64,60
1,right,2.634999752,,,0,,,0,,,1,0,200,174,1,199,0,2,0,2,stim/objects/Instruments/xylophone3.png,,0,stim/0.png,0,0,60,2021-02-24_07h31.36.558,premup-three_ses-02_part-03_label-phase3,3.2.4,Linux x86_64,60
1,right,1.386999846,,,0,,,0,,,1,0,200,145,1,199,0,1,0,2,stim/objects/HouseObjects/saw3.png,,0,stim/0.png,0,0,60,2021-02-24_07h31.36.558,premup-three_ses-02_part-03_label-phase3,3.2.4,Linux x86_64,60
1,left,1.118999958,4,1.426999807,0,3,3.142999887,0,1,0.927999973,1,0,200,7,1,199,1,1,0.5,1,stim/objects/Instruments/record.png,stim/14.jpeg,1,stim/1.png,4,1,60,2021-02-24_07h31.36.558,premup-three_ses-02_part-03_label-phase3,3.2.4,Linux x86_64,60
1,right,1.335000038,3,1.72300005,0,1,1.172999859,0,1,1.111000061,1,0,200,80,1,199,3,1,0.9,1,stim/objects/HouseObjects/saw2.png,stim/61.jpeg,6,stim/6.png,1,1,60,2021-02-24_07h31.36.558,premup-three_ses-02_part-03_label-phase3,3.2.4,Linux x86_64,60
1,left,1.732999802,,,0,,,0,,,1,0,200,118,1,199,0,2,0,2,stim/objects/Instruments/guitarcase3.png,,0,stim/0.png,0,0,60,2021-02-24_07h31.36.558,premup-three_ses-02_part-03_label-phase3,3.2.4,Linux x86_64,60
1,left,1.398999929,,,0,,,0,,,1,0,200,117,1,199,0,2,0,2,stim/objects/Instruments/grandpiano3.png,,0,stim/0.png,0,0,60,2021-02-24_07h31.36.558,premup-three_ses-02_part-03_label-phase3,3.2.4,Linux x86_64,60
1,left,1.115999937,3,1.138999939,0,2,4.940000057,0,3,4.146999836,1,0,200,57,1,199,2,2,0.3,1,stim/objects/Instruments/keyboard2.png,stim/41.jpeg,4,stim/4.png,1,4,60,2021-02-24_07h31.36.558,premup-three_ses-02_part-03_label-phase3,3.2.4,Linux x86_64,60
1,right,1.946999788,2,1.296999931,0,1,1.092999935,0,3,1.078999996,1,0,200,27,1,199,2,1,0.3,1,stim/objects/HouseObjects/dishsoap2.png,stim/34.jpeg,3,stim/3.png,4,1,60,2021-02-24_07h31.36.558,premup-three_ses-02_part-03_label-phase3,3.2.4,Linux x86_64,60
1,left,1.151999712,,,0,,,0,,,1,0,200,128,1,199,0,1,0,2,stim/objects/HouseObjects/pan3.png,,0,stim/0.png,0,0,60,2021-02-24_07h31.36.558,premup-three_ses-02_part-03_label-phase3,3.2.4,Linux x86_64,60
1,left,1.483999968,4,1.35199976,0,1,6.232999802,0,1,8.263999939,1,0,200,78,1,199,3,2,0.9,1,stim/objects/Instruments/record_player2.png,stim/53.jpeg,5,stim/5.png,3,2,60,2021-02-24_07h31.36.558,premup-three_ses-02_part-03_label-phase3,3.2.4,Linux x86_64,60
1,right,1.450999737,,,0,,,0,,,1,0,200,140,1,199,0,1,0,2,stim/objects/HouseObjects/recyclingbin3.png,,0,stim/0.png,0,0,60,2021-02-24_07h31.36.558,premup-three_ses-02_part-03_label-phase3,3.2.4,Linux x86_64,60
1,right,1.008999825,4,1.815999985,0,1,0.920000076,0,1,0.585999727,1,0,200,90,1,199,3,2,0.1,1,stim/objects/Instruments/speaker2.png,stim/63.jpeg,6,stim/6.png,3,2,60,2021-02-24_07h31.36.558,premup-three_ses-02_part-03_label-phase3,3.2.4,Linux x86_64,60
1,left,1.217000008,3,1.585000038,0,3,3.706999779,0,3,1.649999857,1,0,200,56,1,199,2,2,0.3,1,stim/objects/Instruments/hihat2.png,stim/44.jpeg,4,stim/4.png,4,2,60,2021-02-24_07h31.36.558,premup-three_ses-02_part-03_label-phase3,3.2.4,Linux x86_64,60
1,left,1.345999956,,,0,,,0,,,1,0,200,165,1,199,0,1,0,2,stim/objects/HouseObjects/coffee4.png,,0,stim/0.png,0,0,60,2021-02-24_07h31.36.558,premup-three_ses-02_part-03_label-phase3,3.2.4,Linux x86_64,60
1,left,1.22699976,2,1.109999895,0,1,1.066999912,0,3,1.002000093,1,0,200,73,1,199,3,2,0.9,1,stim/objects/Instruments/musicstand2.png,stim/52.jpeg,5,stim/5.png,2,4,60,2021-02-24_07h31.36.558,premup-three_ses-02_part-03_label-phase3,3.2.4,Linux x86_64,60
1,right,1.512999773,2,2.129999876,0,2,1.538000107,0,1,2.707999945,1,0,200,77,1,199,3,2,0.9,1,stim/objects/Instruments/record2.png,stim/52.jpeg,5,stim/5.png,2,2,60,2021-02-24_07h31.36.558,premup-three_ses-02_part-03_label-phase3,3.2.4,Linux x86_64,60
1,right,1.21600008,,,0,,,0,,,1,0,200,178,1,199,0,2,0,2,stim/objects/Instruments/flute4.png,,0,stim/0.png,0,0,60,2021-02-24_07h31.36.558,premup-three_ses-02_part-03_label-phase3,3.2.4,Linux x86_64,60
1,right,1.779999971,,,0,,,0,,,1,0,200,101,1,199,0,1,0,2,stim/objects/HouseObjects/cushion3.png,,0,stim/0.png,0,0,60,2021-02-24_07h31.36.558,premup-three_ses-02_part-03_label-phase3,3.2.4,Linux x86_64,60
1,left,0.988999844,4,1.177999973,0,3,6.223999977,0,3,2.070999861,1,0,200,49,1,199,2,1,0.7,1,stim/objects/HouseObjects/key2.png,stim/41.jpeg,4,stim/4.png,1,1,60,2021-02-24_07h31.36.558,premup-three_ses-02_part-03_label-phase3,3.2.4,Linux x86_64,60
1,left,1.181999922,,,0,,,0,,,1,0,200,109,1,199,0,1,0,2,stim/objects/HouseObjects/hairdryer3.png,,0,stim/0.png,0,0,60,2021-02-24_07h31.36.558,premup-three_ses-02_part-03_label-phase3,3.2.4,Linux x86_64,60
1,left,1.922999859,,,0,,,0,,,1,0,200,177,1,199,0,2,0,2,stim/objects/Instruments/electricguitar4.png,,0,stim/0.png,0,0,60,2021-02-24_07h31.36.558,premup-three_ses-02_part-03_label-phase3,3.2.4,Linux x86_64,60
1,right,1.207000017,,,0,,,0,,,1,0,200,163,1,199,0,1,0,2,stim/objects/HouseObjects/vacuumcleaner3.png,,0,stim/0.png,0,0,60,2021-02-24_07h31.36.558,premup-three_ses-02_part-03_label-phase3,3.2.4,Linux x86_64,60
1,left,1.640000105,3,1.388999939,0,4,1.638999939,0,2,1.369999886,1,0,200,40,1,199,2,1,0.7,1,stim/objects/HouseObjects/flyswatter2.png,stim/44.jpeg,4,stim/4.png,4,1,60,2021-02-24_07h31.36.558,premup-three_ses-02_part-03_label-phase3,3.2.4,Linux x86_64,60
1,left,4.351999998,2,5.200000048,0,1,3.114999771,0,2,1.01699996,1,0,200,93,1,199,3,2,0.1,1,stim/objects/Instruments/triangle2.png,stim/62.jpeg,6,stim/6.png,2,2,60,2021-02-24_07h31.36.558,premup-three_ses-02_part-03_label-phase3,3.2.4,Linux x86_64,60
1,left,1.309999943,,,0,,,0,,,1,0,200,133,1,199,0,2,0,2,stim/objects/Instruments/laud3.png,,0,stim/0.png,0,0,60,2021-02-24_07h31.36.558,premup-three_ses-02_part-03_label-phase3,3.2.4,Linux x86_64,60
1,left,1.224999905,,,0,,,0,,,1,0,200,193,1,199,0,2,0,2,stim/objects/Instruments/guitarcase4.png,,0,stim/0.png,0,0,60,2021-02-24_07h31.36.558,premup-three_ses-02_part-03_label-phase3,3.2.4,Linux x86_64,60
1,right,1.66899991,2,1.121999979,0,1,0.829999924,0,2,0.955999851,1,0,200,81,1,199,3,1,0.9,1,stim/objects/HouseObjects/scale2.png,stim/62.jpeg,6,stim/6.png,2,3,60,2021-02-24_07h31.36.558,premup-three_ses-02_part-03_label-phase3,3.2.4,Linux x86_64,60
1,left,2.536000013,,,0,,,0,,,1,0,200,162,1,199,0,1,0,2,stim/objects/HouseObjects/towel3.png,,0,stim/0.png,0,0,60,2021-02-24_07h31.36.558,premup-three_ses-02_part-03_label-phase3,3.2.4,Linux x86_64,60
1,left,2.427999973,,,0,,,0,,,1,0,200,170,1,199,0,2,0,2,stim/objects/Instruments/trumpet3.png,,0,stim/0.png,0,0,60,2021-02-24_07h31.36.558,premup-three_ses-02_part-03_label-phase3,3.2.4,Linux x86_64,60
1,left,1.677999973,,,0,,,0,,,1,0,200,112,1,199,0,2,0,2,stim/objects/Instruments/electricguitar3.png,,0,stim/0.png,0,0,60,2021-02-24_07h31.36.558,premup-three_ses-02_part-03_label-phase3,3.2.4,Linux x86_64,60
1,left,1.106999874,2,1.509999752,0,3,9.090000153,0,3,1.267999887,1,0,200,63,1,199,3,1,0.1,1,stim/objects/HouseObjects/pan2.png,stim/54.jpeg,5,stim/5.png,4,3,60,2021-02-24_07h31.36.558,premup-three_ses-02_part-03_label-phase3,3.2.4,Linux x86_64,60
1,right,1.20299983,,,0,,,0,,,1,0,200,154,1,199,0,2,0,2,stim/objects/Instruments/saxophone3.png,,0,stim/0.png,0,0,60,2021-02-24_07h31.36.558,premup-three_ses-02_part-03_label-phase3,3.2.4,Linux x86_64,60
1,left,1.390999794,,,0,,,0,,,1,0,200,148,1,199,0,1,0,2,stim/objects/HouseObjects/spraybottle3.png,,0,stim/0.png,0,0,60,2021-02-24_07h31.36.558,premup-three_ses-02_part-03_label-phase3,3.2.4,Linux x86_64,60
1,left,1.052000046,3,1.207000017,0,1,1.248000145,0,4,1.204999924,1,0,200,87,1,199,3,1,0.9,1,stim/objects/HouseObjects/towel2.png,stim/64.jpeg,6,stim/6.png,4,2,60,2021-02-24_07h31.36.558,premup-three_ses-02_part-03_label-phase3,3.2.4,Linux x86_64,60
1,left,1.332999706,,,0,,,0,,,1,0,200,190,1,199,0,2,0,2,stim/objects/Instruments/frenchhorn4.png,,0,stim/0.png,0,0,60,2021-02-24_07h31.36.558,premup-three_ses-02_part-03_label-phase3,3.2.4,Linux x86_64,60
1,left,1.117000103,,,0,,,0,,,1,0,200,131,1,199,0,2,0,2,stim/objects/Instruments/hihat3.png,,0,stim/0.png,0,0,60,2021-02-24_07h31.36.558,premup-three_ses-02_part-03_label-phase3,3.2.4,Linux x86_64,60
1,left,1.907000065,2,1.217000008,0,4,8.311999798,0,4,0.832000017,1,0,200,70,1,199,3,2,0.9,1,stim/objects/Instruments/marimba2.png,stim/53.jpeg,5,stim/5.png,3,1,60,2021-02-24_07h31.36.558,premup-three_ses-02_part-03_label-phase3,3.2.4,Linux x86_64,60
1,left,1.181999922,,,0,,,0,,,1,0,200,158,1,199,0,2,0,2,stim/objects/Instruments/triangle3.png,,0,stim/0.png,0,0,60,2021-02-24_07h31.36.558,premup-three_ses-02_part-03_label-phase3,3.2.4,Linux x86_64,60
1,right,1.220000029,4,1.311999798,0,2,2.163000107,0,4,0.736999989,1,0,200,16,1,199,1,2,0.5,1,stim/objects/Instruments/tambourine.png,stim/21.jpeg,2,stim/2.png,1,2,60,2021-02-24_07h31.36.558,premup-three_ses-02_part-03_label-phase3,3.2.4,Linux x86_64,60
1,right,1.049000025,2,1.447999954,0,2,1.491999865,0,4,0.648000002,1,0,200,39,1,199,2,2,0.7,1,stim/objects/Instruments/flutetrans2.png,stim/33.jpeg,3,stim/3.png,3,1,60,2021-02-24_07h31.36.558,premup-three_ses-02_part-03_label-phase3,3.2.4,Linux x86_64,60
1,left,2.126999855,,,0,,,0,,,1,0,200,188,1,199,0,1,0,2,stim/objects/HouseObjects/ironingboard4.png,,0,stim/0.png,0,0,60,2021-02-24_07h31.36.558,premup-three_ses-02_part-03_label-phase3,3.2.4,Linux x86_64,60
1,left,1.602999926,3,1.001999855,0,1,1.888999939,0,1,0.996999741,1,0,200,35,1,199,2,2,0.7,1,stim/objects/Instruments/drums2.png,stim/33.jpeg,3,stim/3.png,3,1,60,2021-02-24_07h31.36.558,premup-three_ses-02_part-03_label-phase3,3.2.4,Linux x86_64,60
1,left,1.538999796,3,3.743999958,0,2,1.182999849,0,1,0.832999945,1,0,200,86,1,199,3,1,0.9,1,stim/objects/HouseObjects/thread2.png,stim/63.jpeg,6,stim/6.png,3,3,60,2021-02-24_07h31.36.558,premup-three_ses-02_part-03_label-phase3,3.2.4,Linux x86_64,60
1,left,1.151000023,4,1.372999907,0,3,1.635999918,0,4,0.751999855,1,0,200,51,1,199,2,2,0.3,1,stim/objects/Instruments/gong2.png,stim/43.jpeg,4,stim/4.png,3,4,60,2021-02-24_07h31.36.558,premup-three_ses-02_part-03_label-phase3,3.2.4,Linux x86_64,60
1,left,1.249999762,4,1.509999752,0,1,6.373999834,0,1,1.735999823,1,0,200,74,1,199,3,2,0.9,1,stim/objects/Instruments/oboe2.png,stim/53.jpeg,5,stim/5.png,3,4,60,2021-02-24_07h31.36.558,premup-three_ses-02_part-03_label-phase3,3.2.4,Linux x86_64,60
1,left,0.986999989,4,0.880000114,0,4,7.327000141,0,1,0.799999952,1,0,200,30,1,199,2,2,0.7,1,stim/objects/Instruments/trumpet.png,stim/32.jpeg,3,stim/3.png,2,2,60,2021-02-24_07h31.36.558,premup-three_ses-02_part-03_label-phase3,3.2.4,Linux x86_64,60
1,left,0.947999716,4,0.939999819,0,3,2.404999971,0,1,0.689999819,1,0,200,8,1,199,1,1,0.5,1,stim/objects/Instruments/record_player.png,stim/11.jpeg,1,stim/1.png,1,3,60,2021-02-24_07h31.36.558,premup-three_ses-02_part-03_label-phase3,3.2.4,Linux x86_64,60
1,right,1.111000061,,,0,,,0,,,1,0,200,130,1,199,0,2,0,2,stim/objects/Instruments/harp3.png,,0,stim/0.png,0,0,60,2021-02-24_07h31.36.558,premup-three_ses-02_part-03_label-phase3,3.2.4,Linux x86_64,60
1,right,1.226999998,3,2.396999836,0,1,1.432999849,0,1,0.767999887,1,0,200,19,1,199,1,2,0.5,1,stim/objects/Instruments/trombone.png,stim/24.jpeg,2,stim/2.png,4,1,60,2021-02-24_07h31.36.558,premup-three_ses-02_part-03_label-phase3,3.2.4,Linux x86_64,60
1,left,1.428999901,,,0,,,0,,,1,0,200,111,1,199,0,2,0,2,stim/objects/Instruments/electricdrumset3.png,,0,stim/0.png,0,0,60,2021-02-24_07h31.36.558,premup-three_ses-02_part-03_label-phase3,3.2.4,Linux x86_64,60
1,left,2.248999834,4,1.109999895,0,1,9.006999969,0,2,1.101999998,1,0,200,42,1,199,2,1,0.7,1,stim/objects/HouseObjects/glass2.png,stim/42.jpeg,4,stim/4.png,2,2,60,2021-02-24_07h31.36.558,premup-three_ses-02_part-03_label-phase3,3.2.4,Linux x86_64,60
1,left,0.922999859,,,0,,,0,,,1,0,200,196,1,199,0,2,0,2,stim/objects/Instruments/hihat4.png,,0,stim/0.png,0,0,60,2021-02-24_07h31.36.558,premup-three_ses-02_part-03_label-phase3,3.2.4,Linux x86_64,60
1,left,1.65899992,,,0,,,0,,,1,0,200,169,1,199,0,1,0,2,stim/objects/HouseObjects/dustpan4.png,,0,stim/0.png,0,0,60,2021-02-24_07h31.36.558,premup-three_ses-02_part-03_label-phase3,3.2.4,Linux x86_64,60
1,left,0.923999786,,,0,,,0,,,1,0,200,136,1,199,0,2,0,2,stim/objects/Instruments/metronome3.png,,0,stim/0.png,0,0,60,2021-02-24_07h31.36.558,premup-three_ses-02_part-03_label-phase3,3.2.4,Linux x86_64,60
1,left,0.849999905,3,1.073999882,0,2,2.345999956,0,3,0.953999996,1,0,200,26,1,199,2,1,0.3,1,stim/objects/HouseObjects/cushion2.png,stim/33.jpeg,3,stim/3.png,3,4,60,2021-02-24_07h31.36.558,premup-three_ses-02_part-03_label-phase3,3.2.4,Linux x86_64,60
1,left,1.67599988,,,0,,,0,,,1,0,200,150,1,199,0,2,0,2,stim/objects/Instruments/panflute3.png,,0,stim/0.png,0,0,60,2021-02-24_07h31.36.558,premup-three_ses-02_part-03_label-phase3,3.2.4,Linux x86_64,60
1,right,1.635999918,4,1.386999846,0,2,1.444000006,0,2,0.378999949,1,0,200,60,1,199,3,1,0.1,1,stim/objects/HouseObjects/knife2.png,stim/51.jpeg,5,stim/5.png,1,3,60,2021-02-24_07h31.36.558,premup-three_ses-02_part-03_label-phase3,3.2.4,Linux x86_64,60
1,left,1.430999756,3,0.951999903,0,1,1.292999983,0,1,0.433000088,1,0,200,84,1,199,3,1,0.9,1,stim/objects/HouseObjects/teapot2.png,stim/61.jpeg,6,stim/6.png,1,1,60,2021-02-24_07h31.36.558,premup-three_ses-02_part-03_label-phase3,3.2.4,Linux x86_64,60
1,left,4.995999813,,,0,,,0,,,1,0,200,194,1,199,0,2,0,2,stim/objects/Instruments/harmonica4.png,,0,stim/0.png,0,0,60,2021-02-24_07h31.36.558,premup-three_ses-02_part-03_label-phase3,3.2.4,Linux x86_64,60
1,right,1.315999985,4,0.979000092,0,1,1.040999889,0,1,0.47300005,1,0,200,4,1,199,1,1,0.5,1,stim/objects/HouseObjects/safetypin.png,stim/13.jpeg,1,stim/1.png,3,1,60,2021-02-24_07h31.36.558,premup-three_ses-02_part-03_label-phase3,3.2.4,Linux x86_64,60
1,left,3.142999887,4,0.868000031,0,4,5.455999851,0,4,1.064999819,1,0,200,14,1,199,1,2,0.5,1,stim/objects/HouseObjects/teapot.png,stim/21.jpeg,2,stim/2.png,1,4,60,2021-02-24_07h31.36.558,premup-three_ses-02_part-03_label-phase3,3.2.4,Linux x86_64,60
1,left,1.10800004,4,1.171999931,0,4,6.339999914,0,1,0.447000027,1,0,200,45,1,199,2,1,0.7,1,stim/objects/HouseObjects/handbrush2.png,stim/41.jpeg,4,stim/4.png,1,1,60,2021-02-24_07h31.36.558,premup-three_ses-02_part-03_label-phase3,3.2.4,Linux x86_64,60
1,left,1.095999956,4,0.957999945,0,2,1.756999969,0,3,1.133999825,1,0,200,53,1,199,2,2,0.3,1,stim/objects/Instruments/guitarcase2.png,stim/41.jpeg,4,stim/4.png,1,4,60,2021-02-24_07h31.36.558,premup-three_ses-02_part-03_label-phase3,3.2.4,Linux x86_64,60
1,left,1.03399992,,,0,,,0,,,1,0,200,172,1,199,0,2,0,2,stim/objects/Instruments/violin3.png,,0,stim/0.png,0,0,60,2021-02-24_07h31.36.558,premup-three_ses-02_part-03_label-phase3,3.2.4,Linux x86_64,60
1,left,1.465999842,,,0,,,0,,,1,0,200,187,1,199,0,1,0,2,stim/objects/HouseObjects/iron4.png,,0,stim/0.png,0,0,60,2021-02-24_07h31.36.558,premup-three_ses-02_part-03_label-phase3,3.2.4,Linux x86_64,60
1,left,1.025999784,4,0.845000029,0,3,3.083999872,0,1,0.404999971,1,0,200,5,1,199,1,1,0.5,1,stim/objects/Instruments/panflute.png,stim/12.jpeg,1,stim/1.png,2,1,60,2021-02-24_07h31.36.558,premup-three_ses-02_part-03_label-phase3,3.2.4,Linux x86_64,60
1,left,10.64199996,,,0,,,0,,,1,0,200,186,1,199,0,1,0,2,stim/objects/HouseObjects/handvacuum4.png,,0,stim/0.png,0,0,60,2021-02-24_07h31.36.558,premup-three_ses-02_part-03_label-phase3,3.2.4,Linux x86_64,60
1,right,2.018999815,3,1.205999851,0,2,2.881999969,0,2,0.846999884,1,0,200,28,1,199,2,1,0.3,1,stim/objects/HouseObjects/doormat2.png,stim/31.jpeg,3,stim/3.png,1,3,60,2021-02-24_07h31.36.558,premup-three_ses-02_part-03_label-phase3,3.2.4,Linux x86_64,60
1,left,1.304999828,3,1.217000008,0,1,0.940000057,0,3,1.187999964,1,0,200,23,1,199,2,1,0.3,1,stim/objects/HouseObjects/vacuumcleaner.png,stim/34.jpeg,3,stim/3.png,4,3,60,2021-02-24_07h31.36.558,premup-three_ses-02_part-03_label-phase3,3.2.4,Linux x86_64,60
1,left,1.220999956,,,0,,,0,,,1,0,200,181,1,199,0,1,0,2,stim/objects/HouseObjects/garbagebin4.png,,0,stim/0.png,0,0,60,2021-02-24_07h31.36.558,premup-three_ses-02_part-03_label-phase3,3.2.4,Linux x86_64,60
1,right,1.341999769,2,1.278999805,0,2,1.069000006,0,4,0.828000069,1,0,200,61,1,199,3,1,0.1,1,stim/objects/HouseObjects/lintroller2.png,stim/52.jpeg,5,stim/5.png,2,3,60,2021-02-24_07h31.36.558,premup-three_ses-02_part-03_label-phase3,3.2.4,Linux x86_64,60
1,right,1.718999863,,,0,,,0,,,1,0,200,108,1,199,0,1,0,2,stim/objects/HouseObjects/glassmop3.png,,0,stim/0.png,0,0,60,2021-02-24_07h31.36.558,premup-three_ses-02_part-03_label-phase3,3.2.4,Linux x86_64,60
1,left,1.122999907,4,1.114000082,0,4,4.041999817,0,3,0.553999901,1,0,200,20,1,199,2,1,0.3,1,stim/objects/HouseObjects/thermometer.png,stim/31.jpeg,3,stim/3.png,1,1,60,2021-02-24_07h31.36.558,premup-three_ses-02_part-03_label-phase3,3.2.4,Linux x86_64,60
1,left,2.855999947,2,5.805999994,0,1,2.246999979,0,3,0.576999903,1,0,200,46,1,199,2,1,0.7,1,stim/objects/HouseObjects/handvacuum2.png,stim/42.jpeg,4,stim/4.png,2,4,60,2021-02-24_07h31.36.558,premup-three_ses-02_part-03_label-phase3,3.2.4,Linux x86_64,60
1,left,1.305999756,,,0,,,0,,,1,0,200,127,1,199,0,1,0,2,stim/objects/HouseObjects/match3.png,,0,stim/0.png,0,0,60,2021-02-24_07h31.36.558,premup-three_ses-02_part-03_label-phase3,3.2.4,Linux x86_64,60
1,right,2.845000029,2,1.144000053,0,1,1.184999943,0,3,0.95299983,1,0,200,99,1,199,3,2,0.1,1,stim/objects/Instruments/xylophone2.png,stim/64.jpeg,6,stim/6.png,4,4,60,2021-02-24_07h31.36.558,premup-three_ses-02_part-03_label-phase3,3.2.4,Linux x86_64,60
1,left,1.269000053,,,0,,,0,,,1,0,200,185,1,199,0,1,0,2,stim/objects/HouseObjects/handbrush4.png,,0,stim/0.png,0,0,60,2021-02-24_07h31.36.558,premup-three_ses-02_part-03_label-phase3,3.2.4,Linux x86_64,60
1,left,1.319999933,3,1.194999933,0,3,3.636999846,0,4,0.822999954,1,0,200,97,1,199,3,2,0.1,1,stim/objects/Instruments/violin2.png,stim/62.jpeg,6,stim/6.png,2,4,60,2021-02-24_07h31.36.558,premup-three_ses-02_part-03_label-phase3,3.2.4,Linux x86_64,60
1,left,0.802999973,4,2.704999924,0,1,1.073999882,0,2,1.275000095,1,0,200,18,1,199,1,2,0.5,1,stim/objects/Instruments/triangle.png,stim/23.jpeg,2,stim/2.png,3,2,60,2021-02-24_07h31.36.558,premup-three_ses-02_part-03_label-phase3,3.2.4,Linux x86_64,60
1,right,1.023000002,2,1.148999929,0,2,1.182999849,0,2,0.860999823,1,0,200,2,1,199,1,1,0.5,1,stim/objects/HouseObjects/rubbergloves.png,stim/11.jpeg,1,stim/1.png,1,4,60,2021-02-24_07h31.36.558,premup-three_ses-02_part-03_label-phase3,3.2.4,Linux x86_64,60
1,left,1.398999929,,,0,,,0,,,1,0,200,138,1,199,0,2,0,2,stim/objects/Instruments/musicstand3.png,,0,stim/0.png,0,0,60,2021-02-24_07h31.36.558,premup-three_ses-02_part-03_label-phase3,3.2.4,Linux x86_64,60
1,right,1.076999903,,,0,,,0,,,1,0,200,144,1,199,0,1,0,2,stim/objects/HouseObjects/safetypin3.png,,0,stim/0.png,0,0,60,2021-02-24_07h31.36.558,premup-three_ses-02_part-03_label-phase3,3.2.4,Linux x86_64,60
1,left,2.101999998,,,0,,,0,,,1,0,200,184,1,199,0,1,0,2,stim/objects/HouseObjects/hairdryer4.png,,0,stim/0.png,0,0,60,2021-02-24_07h31.36.558,premup-three_ses-02_part-03_label-phase3,3.2.4,Linux x86_64,60
1,right,1.656999826,4,0.990999937,0,1,0.834000111,0,1,0.677999973,1,0,200,88,1,199,3,1,0.9,1,stim/objects/HouseObjects/vacuumcleaner2.png,stim/61.jpeg,6,stim/6.png,1,1,60,2021-02-24_07h31.36.558,premup-three_ses-02_part-03_label-phase3,3.2.4,Linux x86_64,60
1,left,0.947000027,,,0,,,0,,,1,0,200,192,1,199,0,2,0,2,stim/objects/Instruments/grandpiano4.png,,0,stim/0.png,0,0,60,2021-02-24_07h31.36.558,premup-three_ses-02_part-03_label-phase3,3.2.4,Linux x86_64,60
1,left,1.014999866,,,0,,,0,,,1,0,200,153,1,199,0,2,0,2,stim/objects/Instruments/record_player3.png,,0,stim/0.png,0,0,60,2021-02-24_07h31.36.558,premup-three_ses-02_part-03_label-phase3,3.2.4,Linux x86_64,60
1,right,1.036999941,4,0.9599998,0,1,1.756999969,0,1,0.712999821,1,0,200,10,1,199,1,2,0.5,1,stim/objects/HouseObjects/saw.png,stim/21.jpeg,2,stim/2.png,1,1,60,2021-02-24_07h31.36.558,premup-three_ses-02_part-03_label-phase3,3.2.4,Linux x86_64,60
1,right,2.588999987,,,0,,,0,,,1,0,200,132,1,199,0,2,0,2,stim/objects/Instruments/keyboard3.png,,0,stim/0.png,0,0,60,2021-02-24_07h31.36.558,premup-three_ses-02_part-03_label-phase3,3.2.4,Linux x86_64,60
1,right,1.478999853,,,0,,,0,,,1,0,200,168,1,199,0,1,0,2,stim/objects/HouseObjects/doormat4.png,,0,stim/0.png,0,0,60,2021-02-24_07h31.36.558,premup-three_ses-02_part-03_label-phase3,3.2.4,Linux x86_64,60
1,left,0.771999836,,,0,,,0,,,1,0,200,120,1,199,0,1,0,2,stim/objects/HouseObjects/handbrush3.png,,0,stim/0.png,0,0,60,2021-02-24_07h31.36.558,premup-three_ses-02_part-03_label-phase3,3.2.4,Linux x86_64,60
1,left,1.351999998,,,0,,,0,,,1,0,200,115,1,199,0,2,0,2,stim/objects/Instruments/frenchhorn3.png,,0,stim/0.png,0,0,60,2021-02-24_07h31.36.558,premup-three_ses-02_part-03_label-phase3,3.2.4,Linux x86_64,60
1,left,1.51699996,,,0,,,0,,,1,0,200,116,1,199,0,2,0,2,stim/objects/Instruments/gong3.png,,0,stim/0.png,0,0,60,2021-02-24_07h31.36.558,premup-three_ses-02_part-03_label-phase3,3.2.4,Linux x86_64,60
1,right,1.354999781,3,0.873999834,0,1,0.756000042,0,1,0.328999996,1,0,200,64,1,199,3,1,0.1,1,stim/objects/HouseObjects/pitcher2.png,stim/51.jpeg,5,stim/5.png,1,1,60,2021-02-24_07h31.36.558,premup-three_ses-02_part-03_label-phase3,3.2.4,Linux x86_64,60
1,left,1.356999874,3,0.964999914,0,1,0.717000008,0,4,2.500999928,1,0,200,29,1,199,2,1,0.3,1,stim/objects/HouseObjects/dustpan2.png,stim/32.jpeg,3,stim/3.png,2,3,60,2021-02-24_07h31.36.558,premup-three_ses-02_part-03_label-phase3,3.2.4,Linux x86_64,60
1,right,1.99399972,,,0,,,0,,,1,0,200,195,1,199,0,2,0,2,stim/objects/Instruments/harp4.png,,0,stim/0.png,0,0,60,2021-02-24_07h31.36.558,premup-three_ses-02_part-03_label-phase3,3.2.4,Linux x86_64,60
1,left,0.816999912,,,0,,,0,,,1,0,200,124,1,199,0,1,0,2,stim/objects/HouseObjects/key3.png,,0,stim/0.png,0,0,60,2021-02-24_07h31.36.558,premup-three_ses-02_part-03_label-phase3,3.2.4,Linux x86_64,60
1,left,1.822999954,,,0,,,0,,,1,0,200,191,1,199,0,2,0,2,stim/objects/Instruments/gong4.png,,0,stim/0.png,0,0,60,2021-02-24_07h31.36.558,premup-three_ses-02_part-03_label-phase3,3.2.4,Linux x86_64,60
1,right,1.103999853,,,0,,,0,,,1,0,200,125,1,199,0,1,0,2,stim/objects/HouseObjects/knife3.png,,0,stim/0.png,0,0,60,2021-02-24_07h31.36.558,premup-three_ses-02_part-03_label-phase3,3.2.4,Linux x86_64,60
1,left,0.937999964,4,1.073999882,0,2,2.321999788,0,2,1.542000055,1,0,200,33,1,199,2,2,0.7,1,stim/objects/Instruments/vuvuzela.png,stim/31.jpeg,3,stim/3.png,1,3,60,2021-02-24_07h31.36.558,premup-three_ses-02_part-03_label-phase3,3.2.4,Linux x86_64,60
1,left,1.647999763,4,0.902999878,0,1,1.69900012,0,2,0.89199996,1,0,200,54,1,199,2,2,0.3,1,stim/objects/Instruments/harmonica2.png,stim/42.jpeg,4,stim/4.png,2,2,60,2021-02-24_07h31.36.558,premup-three_ses-02_part-03_label-phase3,3.2.4,Linux x86_64,60
1,right,1.872999907,,,0,,,0,,,1,0,200,122,1,199,0,1,0,2,stim/objects/HouseObjects/iron3.png,,0,stim/0.png,0,0,60,2021-02-24_07h31.36.558,premup-three_ses-02_part-03_label-phase3,3.2.4,Linux x86_64,60
1,left,1.141000032,,,0,,,0,,,1,0,200,139,1,199,0,2,0,2,stim/objects/Instruments/oboe3.png,,0,stim/0.png,0,0,60,2021-02-24_07h31.36.558,premup-three_ses-02_part-03_label-phase3,3.2.4,Linux x86_64,60
1,left,1.35199976,,,0,,,0,,,1,0,200,113,1,199,0,2,0,2,stim/objects/Instruments/flute3.png,,0,stim/0.png,0,0,60,2021-02-24_07h31.36.558,premup-three_ses-02_part-03_label-phase3,3.2.4,Linux x86_64,60
1,right,0.716999769,4,0.773999929,0,1,0.672999859,0,1,0.306999922,1,0,200,69,1,199,3,1,0.1,1,stim/objects/HouseObjects/safetypin2.png,stim/52.jpeg,5,stim/5.png,2,4,60,2021-02-24_07h31.36.558,premup-three_ses-02_part-03_label-phase3,3.2.4,Linux x86_64,60
1,right,1.15199995,,,0,,,0,,,1,0,200,107,1,199,0,1,0,2,stim/objects/HouseObjects/glass3.png,,0,stim/0.png,0,0,60,2021-02-24_07h31.36.558,premup-three_ses-02_part-03_label-phase3,3.2.4,Linux x86_64,60
1,right,1.16899991,4,0.843999863,0,1,0.460999966,0,1,0.343999863,1,0,200,3,1,199,1,1,0.5,1,stim/objects/HouseObjects/rug.png,stim/12.jpeg,1,stim/1.png,2,2,60,2021-02-24_07h31.36.558,premup-three_ses-02_part-03_label-phase3,3.2.4,Linux x86_64,60
1,right,1.812000036,,,0,,,0,,,1,0,200,182,1,199,0,1,0,2,stim/objects/HouseObjects/glass4.png,,0,stim/0.png,0,0,60,2021-02-24_07h31.36.558,premup-three_ses-02_part-03_label-phase3,3.2.4,Linux x86_64,60
1,left,2.070999861,4,1.126999855,0,1,0.805999994,0,1,0.671000004,1,0,200,15,1,199,1,2,0.5,1,stim/objects/Instruments/speaker.png,stim/24.jpeg,2,stim/2.png,4,1,60,2021-02-24_07h31.36.558,premup-three_ses-02_part-03_label-phase3,3.2.4,Linux x86_64,60
1,left,0.978999853,4,1.052999735,0,4,1.775000095,0,4,0.953999758,1,0,200,34,1,199,2,2,0.7,1,stim/objects/Instruments/xylophone.png,stim/32.jpeg,3,stim/3.png,2,2,60,2021-02-24_07h31.36.558,premup-three_ses-02_part-03_label-phase3,3.2.4,Linux x86_64,60
1,right,1.148999929,,,0,,,0,,,1,0,200,166,1,199,0,1,0,2,stim/objects/HouseObjects/cushion4.png,,0,stim/0.png,0,0,60,2021-02-24_07h31.36.558,premup-three_ses-02_part-03_label-phase3,3.2.4,Linux x86_64,60
1,left,0.94299984,,,0,,,0,,,1,0,200,137,1,199,0,2,0,2,stim/objects/Instruments/musicsheet3.png,,0,stim/0.png,0,0,60,2021-02-24_07h31.36.558,premup-three_ses-02_part-03_label-phase3,3.2.4,Linux x86_64,60
1,right,0.818999767,3,1.14199996,0,2,1.500999928,0,2,0.257999897,1,0,200,67,1,199,3,1,0.1,1,stim/objects/HouseObjects/rubbergloves2.png,stim/54.jpeg,5,stim/5.png,4,1,60,2021-02-24_07h31.36.558,premup-three_ses-02_part-03_label-phase3,3.2.4,Linux x86_64,60
1,left,1.138999939,,,0,,,0,,,1,0,200,198,1,199,0,2,0,2,stim/objects/Instruments/laud4.png,,0,stim/0.png,0,0,60,2021-02-24_07h31.36.558,premup-three_ses-02_part-03_label-phase3,3.2.4,Linux x86_64,60
1,left,1.636999846,4,0.786999941,0,2,2.812000036,0,4,0.648999929,1,0,200,12,1,199,1,2,0.5,1,stim/objects/HouseObjects/sponge.png,stim/23.jpeg,2,stim/2.png,3,3,60,2021-02-24_07h31.36.558,premup-three_ses-02_part-03_label-phase3,3.2.4,Linux x86_64,60
1,left,1.269000053,,,0,,,0,,,1,0,200,134,1,199,0,2,0,2,stim/objects/Instruments/maraca3.png,,0,stim/0.png,0,0,60,2021-02-24_07h31.36.558,premup-three_ses-02_part-03_label-phase3,3.2.4,Linux x86_64,60
1,left,1.996999979,,,0,,,0,,,1,0,200,167,1,199,0,1,0,2,stim/objects/HouseObjects/dishsoap4.png,,0,stim/0.png,0,0,60,2021-02-24_07h31.36.558,premup-three_ses-02_part-03_label-phase3,3.2.4,Linux x86_64,60
1,right,1.691999912,2,1.230999947,0,1,0.992999792,0,3,0.714999914,1,0,200,11,1,199,1,2,0.5,1,stim/objects/HouseObjects/scale.png,stim/22.jpeg,2,stim/2.png,2,2,60,2021-02-24_07h31.36.558,premup-three_ses-02_part-03_label-phase3,3.2.4,Linux x86_64,60
1,left,0.932999849,,,0,,,0,,,1,0,200,123,1,199,0,1,0,2,stim/objects/HouseObjects/ironingboard3.png,,0,stim/0.png,0,0,60,2021-02-24_07h31.36.558,premup-three_ses-02_part-03_label-phase3,3.2.4,Linux x86_64,60
1,left,0.945999861,4,0.802000046,0,1,2.351999998,0,3,0.355999947,1,0,200,13,1,199,1,2,0.5,1,stim/objects/HouseObjects/spraybottle.png,stim/24.jpeg,2,stim/2.png,4,3,60,2021-02-24_07h31.36.558,premup-three_ses-02_part-03_label-phase3,3.2.4,Linux x86_64,60
1,right,1.062999964,,,0,,,0,,,1,0,200,147,1,199,0,1,0,2,stim/objects/HouseObjects/sponge3.png,,0,stim/0.png,0,0,60,2021-02-24_07h31.36.558,premup-three_ses-02_part-03_label-phase3,3.2.4,Linux x86_64,60
1,left,0.94900012,4,0.895999908,0,2,2.859999895,0,4,1.086999893,1,0,200,17,1,199,1,2,0.5,1,stim/objects/Instruments/timbal.png,stim/22.jpeg,2,stim/2.png,2,2,60,2021-02-24_07h31.36.558,premup-three_ses-02_part-03_label-phase3,3.2.4,Linux x86_64,60
1,left,0.937999964,4,1.059999943,0,3,2.55099988,0,3,0.936000109,1,0,200,98,1,199,3,2,0.1,1,stim/objects/Instruments/vuvuzela2.png,stim/63.jpeg,6,stim/6.png,3,2,60,2021-02-24_07h31.36.558,premup-three_ses-02_part-03_label-phase3,3.2.4,Linux x86_64,60
1,right,1.341999769,2,0.970000029,0,1,0.851000071,0,1,0.285000086,1,0,200,91,1,199,3,2,0.1,1,stim/objects/Instruments/tambourine2.png,stim/64.jpeg,6,stim/6.png,4,4,60,2021-02-24_07h31.36.558,premup-three_ses-02_part-03_label-phase3,3.2.4,Linux x86_64,60
1,left,1.06799984,4,0.725999832,0,3,3.039999962,0,2,0.832000017,1,0,200,6,1,199,1,1,0.5,1,stim/objects/Instruments/pipepiano.png,stim/13.jpeg,1,stim/1.png,3,2,60,2021-02-24_07h31.36.558,premup-three_ses-02_part-03_label-phase3,3.2.4,Linux x86_64,60
1,left,1.031999826,4,0.922999859,0,3,2.853999853,0,2,0.653999805,1,0,200,62,1,199,3,1,0.1,1,stim/objects/HouseObjects/match2.png,stim/53.jpeg,5,stim/5.png,3,3,60,2021-02-24_07h31.36.558,premup-three_ses-02_part-03_label-phase3,3.2.4,Linux x86_64,60
1,left,1.199999809,4,1.102999926,0,4,1.474999905,0,1,0.700000048,1,0,200,37,1,199,2,2,0.7,1,stim/objects/Instruments/electricguitar2.png,stim/31.jpeg,3,stim/3.png,1,1,60,2021-02-24_07h31.36.558,premup-three_ses-02_part-03_label-phase3,3.2.4,Linux x86_64,60
1,left,0.90899992,2,1.967000008,0,2,2.822999954,0,1,0.870999813,1,0,200,38,1,199,2,2,0.7,1,stim/objects/Instruments/flute2.png,stim/32.jpeg,3,stim/3.png,2,2,60,2021-02-24_07h31.36.558,premup-three_ses-02_part-03_label-phase3,3.2.4,Linux x86_64,60
1,left,1.008999825,,,0,,,0,,,1,0,200,119,1,199,0,2,0,2,stim/objects/Instruments/harmonica3.png,,0,stim/0.png,0,0,60,2021-02-24_07h31.36.558,premup-three_ses-02_part-03_label-phase3,3.2.4,Linux x86_64,60
1,left,1.557999849,,,0,,,0,,,1,0,200,155,1,199,0,2,0,2,stim/objects/Instruments/speaker3.png,,0,stim/0.png,0,0,60,2021-02-24_07h31.36.558,premup-three_ses-02_part-03_label-phase3,3.2.4,Linux x86_64,60
1,left,0.805000067,,,0,,,0,,,1,0,200,176,1,199,0,2,0,2,stim/objects/Instruments/electricdrumset4.png,,0,stim/0.png,0,0,60,2021-02-24_07h31.36.558,premup-three_ses-02_part-03_label-phase3,3.2.4,Linux x86_64,60
1,right,1.674999952,2,0.736999989,0,2,0.792999983,0,3,0.757999897,1,0,200,41,1,199,2,1,0.7,1,stim/objects/HouseObjects/garbagebin2.png,stim/41.jpeg,4,stim/4.png,1,1,60,2021-02-24_07h31.36.558,premup-three_ses-02_part-03_label-phase3,3.2.4,Linux x86_64,60
1,left,0.890999794,4,0.889999866,0,2,2.95299983,0,1,0.347999811,1,0,200,52,1,199,2,2,0.3,1,stim/objects/Instruments/grandpiano2.png,stim/44.jpeg,4,stim/4.png,4,4,60,2021-02-24_07h31.36.558,premup-three_ses-02_part-03_label-phase3,3.2.4,Linux x86_64,60
1,right,1.166999817,2,1.22300005,0,2,0.833999872,0,1,0.323999882,1,0,200,96,1,199,3,2,0.1,1,stim/objects/Instruments/tuba2.png,stim/61.jpeg,6,stim/6.png,1,2,60,2021-02-24_07h31.36.558,premup-three_ses-02_part-03_label-phase3,3.2.4,Linux x86_64,60
1,left,1.044999838,,,0,,,0,,,1,0,200,151,1,199,0,2,0,2,stim/objects/Instruments/pipepiano3.png,,0,stim/0.png,0,0,60,2021-02-24_07h31.36.558,premup-three_ses-02_part-03_label-phase3,3.2.4,Linux x86_64,60
1,right,1.845000029,,,0,,,0,,,1,0,200,171,1,199,0,2,0,2,stim/objects/Instruments/tuba3.png,,0,stim/0.png,0,0,60,2021-02-24_07h31.36.558,premup-three_ses-02_part-03_label-phase3,3.2.4,Linux x86_64,60
1,left,0.746999979,4,0.816999912,0,1,1.301999807,0,1,0.268000126,1,0,200,72,1,199,3,2,0.9,1,stim/objects/Instruments/musicsheet2.png,stim/51.jpeg,5,stim/5.png,1,3,60,2021-02-24_07h31.36.558,premup-three_ses-02_part-03_label-phase3,3.2.4,Linux x86_64,60
1,left,1.123999834,,,0,,,0,,,1,0,200,175,1,199,0,2,0,2,stim/objects/Instruments/drums4.png,,0,stim/0.png,0,0,60,2021-02-24_07h31.36.558,premup-three_ses-02_part-03_label-phase3,3.2.4,Linux x86_64,60
1,right,7.770999908,,,0,,,0,,,1,0,200,141,1,199,0,1,0,2,stim/objects/HouseObjects/remote3.png,,0,stim/0.png,0,0,60,2021-02-24_07h31.36.558,premup-three_ses-02_part-03_label-phase3,3.2.4,Linux x86_64,60
1,right,1.469000101,3,1.272999763,0,2,0.68599987,0,1,0.621999979,1,0,200,68,1,199,3,1,0.1,1,stim/objects/HouseObjects/rug2.png,stim/51.jpeg,5,stim/5.png,1,2,60,2021-02-24_07h31.36.558,premup-three_ses-02_part-03_label-phase3,3.2.4,Linux x86_64,60
1,left,1.290999889,4,1.612999916,0,3,3.437000036,0,1,0.468999863,1,0,200,50,1,199,2,2,0.3,1,stim/objects/Instruments/frenchhorn2.png,stim/42.jpeg,4,stim/4.png,2,1,60,2021-02-24_07h31.36.558,premup-three_ses-02_part-03_label-phase3,3.2.4,Linux x86_64,60
1,right,0.975999832,2,0.906999826,0,2,0.924999714,0,1,0.427999973,1,0,200,43,1,199,2,1,0.7,1,stim/objects/HouseObjects/glassmop2.png,stim/43.jpeg,4,stim/4.png,3,3,60,2021-02-24_07h31.36.558,premup-three_ses-02_part-03_label-phase3,3.2.4,Linux x86_64,60
1,left,1.029000044,4,0.885999918,0,4,1.554999828,0,2,0.655999899,1,0,200,85,1,199,3,1,0.9,1,stim/objects/HouseObjects/thermometer2.png,stim/62.jpeg,6,stim/6.png,2,2,60,2021-02-24_07h31.36.558,premup-three_ses-02_part-03_label-phase3,3.2.4,Linux x86_64,60
1,left,1.010999918,3,0.947999954,0,1,2.470999956,0,4,0.923000097,1,0,200,44,1,199,2,1,0.7,1,stim/objects/HouseObjects/hairdryer2.png,stim/44.jpeg,4,stim/4.png,4,3,60,2021-02-24_07h31.36.558,premup-three_ses-02_part-03_label-phase3,3.2.4,Linux x86_64,60
1,right,1.199999809,3,1.092000008,0,2,1.035999775,0,1,0.938999891,1,0,200,94,1,199,3,2,0.1,1,stim/objects/Instruments/trombone2.png,stim/63.jpeg,6,stim/6.png,3,4,60,2021-02-24_07h31.36.558,premup-three_ses-02_part-03_label-phase3,3.2.4,Linux x86_64,60
1,left,1.042999983,,,0,,,0,,,1,0,200,110,1,199,0,2,0,2,stim/objects/Instruments/drums3.png,,0,stim/0.png,0,0,60,2021-02-24_07h31.36.558,premup-three_ses-02_part-03_label-phase3,3.2.4,Linux x86_64,60
1,left,1.065999985,4,0.802999973,0,3,1.217000008,0,4,0.694999933,1,0,200,22,1,199,2,1,0.3,1,stim/objects/HouseObjects/towel.png,stim/33.jpeg,3,stim/3.png,3,4,60,2021-02-24_07h31.36.558,premup-three_ses-02_part-03_label-phase3,3.2.4,Linux x86_64,60
1,right,1.795000076,,,0,,,0,,,1,0,200,159,1,199,0,2,0,2,stim/objects/Instruments/trombone3.png,,0,stim/0.png,0,0,60,2021-02-24_07h31.36.558,premup-three_ses-02_part-03_label-phase3,3.2.4,Linux x86_64,60
1,left,0.975999832,4,0.757999897,0,3,2.24000001,0,1,1.177999735,1,0,200,75,1,199,3,2,0.9,1,stim/objects/Instruments/panflute2.png,stim/54.jpeg,5,stim/5.png,4,3,60,2021-02-24_07h31.36.558,premup-three_ses-02_part-03_label-phase3,3.2.4,Linux x86_64,60
1,left,3.483999968,3,0.733999968,0,2,1.493999958,0,1,0.422999859,1,0,200,47,1,199,2,1,0.7,1,stim/objects/HouseObjects/iron2.png,stim/43.jpeg,4,stim/4.png,3,2,60,2021-02-24_07h31.36.558,premup-three_ses-02_part-03_label-phase3,3.2.4,Linux x86_64,60
1,right,1.319000006,,,0,,,0,,,1,0,200,104,1,199,0,1,0,2,stim/objects/HouseObjects/dustpan3.png,,0,stim/0.png,0,0,60,2021-02-24_07h31.36.558,premup-three_ses-02_part-03_label-phase3,3.2.4,Linux x86_64,60
1,right,1.279000044,,,0,,,0,,,1,0,200,164,1,199,0,1,0,2,stim/objects/HouseObjects/wateringcan3.png,,0,stim/0.png,0,0,60,2021-02-24_07h31.36.558,premup-three_ses-02_part-03_label-phase3,3.2.4,Linux x86_64,60
1,right,0.875,3,1.509999752,0,2,0.803999901,0,1,0.762000084,1,0,200,9,1,199,1,1,0.5,1,stim/objects/Instruments/saxophone.png,stim/12.jpeg,1,stim/1.png,2,3,60,2021-02-24_07h31.36.558,premup-three_ses-02_part-03_label-phase3,3.2.4,Linux x86_64,60
1,right,1.130999804,,,0,,,0,,,1,0,200,156,1,199,0,2,0,2,stim/objects/Instruments/tambourine3.png,,0,stim/0.png,0,0,60,2021-02-24_07h31.36.558,premup-three_ses-02_part-03_label-phase3,3.2.4,Linux x86_64,60
1,left,1.75,,,0,,,0,,,1,0,200,142,1,199,0,1,0,2,stim/objects/HouseObjects/rubbergloves3.png,,0,stim/0.png,0,0,60,2021-02-24_07h31.36.558,premup-three_ses-02_part-03_label-phase3,3.2.4,Linux x86_64,60
1,left,1.164000034,4,0.866999865,0,3,0.808999777,0,4,0.439999819,1,0,200,21,1,199,2,1,0.3,1,stim/objects/HouseObjects/thread.png,stim/32.jpeg,3,stim/3.png,2,1,60,2021-02-24_07h31.36.558,premup-three_ses-02_part-03_label-phase3,3.2.4,Linux x86_64,60
1,right,0.81099987,3,1.335000038,0,2,0.821000099,0,1,0.440999985,1,0,200,79,1,199,3,2,0.9,1,stim/objects/Instruments/saxophone2.png,stim/54.jpeg,5,stim/5.png,4,1,60,2021-02-24_07h31.36.558,premup-three_ses-02_part-03_label-phase3,3.2.4,Linux x86_64,60
1,left,0.948999882,4,0.953000069,0,3,3.563999891,0,4,0.159999847,1,0,200,32,1,199,2,2,0.7,1,stim/objects/Instruments/violin.png,stim/34.jpeg,3,stim/3.png,4,4,60,2021-02-24_07h31.36.558,premup-three_ses-02_part-03_label-phase3,3.2.4,Linux x86_64,60
1,right,1.138999939,,,0,,,0,,,1,0,200,103,1,199,0,1,0,2,stim/objects/HouseObjects/doormat3.png,,0,stim/0.png,0,0,60,2021-02-24_07h31.36.558,premup-three_ses-02_part-03_label-phase3,3.2.4,Linux x86_64,60
1,left,1.167999983,,,0,,,0,,,1,0,200,161,1,199,0,1,0,2,stim/objects/HouseObjects/thread3.png,,0,stim/0.png,0,0,60,2021-02-24_07h31.36.558,premup-three_ses-02_part-03_label-phase3,3.2.4,Linux x86_64,60
1,right,0.842999935,,,0,,,0,,,1,0,200,183,1,199,0,1,0,2,stim/objects/HouseObjects/glassmop4.png,,0,stim/0.png,0,0,60,2021-02-24_07h31.36.558,premup-three_ses-02_part-03_label-phase3,3.2.4,Linux x86_64,60
1,left,1.148999929,,,0,,,0,,,1,0,200,102,1,199,0,1,0,2,stim/objects/HouseObjects/dishsoap3.png,,0,stim/0.png,0,0,60,2021-02-24_07h31.36.558,premup-three_ses-02_part-03_label-phase3,3.2.4,Linux x86_64,60
1,left,0.850999832,,,0,,,0,,,1,0,200,189,1,199,0,1,0,2,stim/objects/HouseObjects/key4.png,,0,stim/0.png,0,0,60,2021-02-24_07h31.36.558,premup-three_ses-02_part-03_label-phase3,3.2.4,Linux x86_64,60
1,left,0.904999971,4,1.075999975,0,2,1.434999704,0,1,0.409999847,1,0,200,0,1,199,1,1,0.5,1,stim/objects/HouseObjects/recyclingbin.png,stim/13.jpeg,1,stim/1.png,3,4,60,2021-02-24_07h31.36.558,premup-three_ses-02_part-03_label-phase3,3.2.4,Linux x86_64,60
1,right,1.813999891,2,0.931999922,0,2,0.756000042,0,1,0.214999914,1,0,200,66,1,199,3,1,0.1,1,stim/objects/HouseObjects/remote2.png,stim/53.jpeg,5,stim/5.png,3,1,60,2021-02-24_07h31.36.558,premup-three_ses-02_part-03_label-phase3,3.2.4,Linux x86_64,60
1,left,0.946999788,,,0,,,0,,,1,0,200,121,1,199,0,1,0,2,stim/objects/HouseObjects/handvacuum3.png,,0,stim/0.png,0,0,60,2021-02-24_07h31.36.558,premup-three_ses-02_part-03_label-phase3,3.2.4,Linux x86_64,60
1,right,1.007999897,2,1.296999931,0,2,0.828000069,0,1,0.29399991,1,0,200,1,1,199,1,1,0.5,1,stim/objects/HouseObjects/remote.png,stim/14.jpeg,1,stim/1.png,4,1,60,2021-02-24_07h31.36.558,premup-three_ses-02_part-03_label-phase3,3.2.4,Linux x86_64,60
1,left,0.822999954,4,0.661000013,0,2,0.973999977,0,1,0.406999826,1,0,200,48,1,199,2,1,0.7,1,stim/objects/HouseObjects/ironingboard2.png,stim/44.jpeg,4,stim/4.png,4,1,60,2021-02-24_07h31.36.558,premup-three_ses-02_part-03_label-phase3,3.2.4,Linux x86_64,60
1,left,1.178999901,4,0.723999977,0,1,2.934000015,0,3,0.682999849,1,0,200,71,1,199,3,2,0.9,1,stim/objects/Instruments/metronome2.png,stim/54.jpeg,5,stim/5.png,4,3,60,2021-02-24_07h31.36.558,premup-three_ses-02_part-03_label-phase3,3.2.4,Linux x86_64,60
1,left,1.229999781,4,0.937000036,0,3,1.342999935,0,1,0.231999874,1,0,200,92,1,199,3,2,0.1,1,stim/objects/Instruments/timbal2.png,stim/61.jpeg,6,stim/6.png,1,2,60,2021-02-24_07h31.36.558,premup-three_ses-02_part-03_label-phase3,3.2.4,Linux x86_64,60
1,left,0.924999952,4,0.801000118,0,2,1.907000065,0,2,0.990999937,1,0,200,31,1,199,2,2,0.7,1,stim/objects/Instruments/tuba.png,stim/33.jpeg,3,stim/3.png,3,4,60,2021-02-24_07h31.36.558,premup-three_ses-02_part-03_label-phase3,3.2.4,Linux x86_64,60
1,left,1.03399992,,,0,,,0,,,1,0,200,105,1,199,0,1,0,2,stim/objects/HouseObjects/flyswatter3.png,,0,stim/0.png,0,0,60,2021-02-24_07h31.36.558,premup-three_ses-02_part-03_label-phase3,3.2.4,Linux x86_64,60
1,right,1.013000011,,,0,,,0,,,1,0,200,106,1,199,0,1,0,2,stim/objects/HouseObjects/garbagebin3.png,,0,stim/0.png,0,0,60,2021-02-24_07h31.36.558,premup-three_ses-02_part-03_label-phase3,3.2.4,Linux x86_64,60
1,right,1.527999878,,,0,,,0,,,1,0,200,129,1,199,0,1,0,2,stim/objects/HouseObjects/pitcher3.png,,0,stim/0.png,0,0,60,2021-02-24_07h31.36.558,premup-three_ses-02_part-03_label-phase3,3.2.4,Linux x86_64,60
1,left,0.838000059,,,0,,,0,,,1,0,200,179,1,199,0,2,0,2,stim/objects/Instruments/flutetrans4.png,,0,stim/0.png,0,0,60,2021-02-24_07h31.36.558,premup-three_ses-02_part-03_label-phase3,3.2.4,Linux x86_64,60
1,left,0.914000034,4,1.327000141,0,4,3.758999825,0,1,0.875,1,0,200,76,1,199,3,2,0.9,1,stim/objects/Instruments/pipepiano2.png,stim/51.jpeg,5,stim/5.png,1,1,60,2021-02-24_07h31.36.558,premup-three_ses-02_part-03_label-phase3,3.2.4,Linux x86_64,60
1,right,2.328999996,,,0,,,0,,,1,0,200,146,1,199,0,1,0,2,stim/objects/HouseObjects/scale3.png,,0,stim/0.png,0,0,60,2021-02-24_07h31.36.558,premup-three_ses-02_part-03_label-phase3,3.2.4,Linux x86_64,60
1,left,0.740999937,,,0,,,0,,,1,0,200,152,1,199,0,2,0,2,stim/objects/Instruments/record3.png,,0,stim/0.png,0,0,60,2021-02-24_07h31.36.558,premup-three_ses-02_part-03_label-phase3,3.2.4,Linux x86_64,60
1,left,0.914999962,4,0.822999954,0,4,3.055999994,0,3,0.315999985,1,0,200,58,1,199,2,2,0.3,1,stim/objects/Instruments/laud2.png,stim/42.jpeg,4,stim/4.png,2,3,60,2021-02-24_07h31.36.558,premup-three_ses-02_part-03_label-phase3,3.2.4,Linux x86_64,60
1,right,0.952000141,4,2.356999874,0,1,1.074999809,0,1,0.335999966,1,0,200,24,1,199,2,1,0.3,1,stim/objects/HouseObjects/wateringcan.png,stim/31.jpeg,3,stim/3.png,1,1,60,2021-02-24_07h31.36.558,premup-three_ses-02_part-03_label-phase3,3.2.4,Linux x86_64,60
1,left,1.230000019,,,0,,,0,,,1,0,200,126,1,199,0,1,0,2,stim/objects/HouseObjects/lintroller3.png,,0,stim/0.png,0,0,60,2021-02-24_07h31.36.558,premup-three_ses-02_part-03_label-phase3,3.2.4,Linux x86_64,60
1,right,1.092999935,,,0,,,0,,,1,0,200,143,1,199,0,1,0,2,stim/objects/HouseObjects/rug3.png,,0,stim/0.png,0,0,60,2021-02-24_07h31.36.558,premup-three_ses-02_part-03_label-phase3,3.2.4,Linux x86_64,60
1,right,0.862999916,3,1.272999763,0,2,0.621999741,0,1,0.295999765,1,0,200,82,1,199,3,1,0.9,1,stim/objects/HouseObjects/sponge2.png,stim/63.jpeg,6,stim/6.png,3,4,60,2021-02-24_07h31.36.558,premup-three_ses-02_part-03_label-phase3,3.2.4,Linux x86_64,60
1,left,0.97300005,,,0,,,0,,,1,0,200,197,1,199,0,2,0,2,stim/objects/Instruments/keyboard4.png,,0,stim/0.png,0,0,60,2021-02-24_07h31.36.558,premup-three_ses-02_part-03_label-phase3,3.2.4,Linux x86_64,60
