id_acc,key_resp_id.keys,key_resp_id.rt,key_resp_conf.keys,key_resp_conf.rt,assoc_acc,key_resp_assoc.keys,key_resp_assoc.rt,loc_acc,key_resp_loc.keys,key_resp_loc.rt,task_innerloop.thisRepN,task_innerloop.thisTrialN,task_innerloop.thisN,task_innerloop.thisIndex,task_innerloop.ran,task_innerloop.order,context_type,object_cat,PE_level,OvsN,obj_file,scn_file,corr_scn_cat,assoc_file,corr_scn_inst,corr_loc,participant,date,expName,psychopyVersion,OS,frameRate
1,right,1.167999983,4,2.552000046,0,1,3.865999937,0,1,3.000999928,1,0,200,39,1,199,2,2,0.7,1,stim/objects/HouseObjects/bleachbottle4.png,stim/53.jpeg,5,stim/5.png,3,1,61,2021-03-31_07h03.03.137,premup-three_ses-02_part-03_label-phase3,3.2.4,MacIntel,60
1,left,3.13499999,,,0,,,0,,,1,0,200,159,1,199,0,2,0,2,stim/objects/HouseObjects/teapot.png,,0,stim/0.png,0,0,61,2021-03-31_07h03.03.137,premup-three_ses-02_part-03_label-phase3,3.2.4,MacIntel,60
1,right,3.035000086,1,4.301999807,0,1,1.28399992,0,1,0.841999769,1,0,200,78,1,199,3,2,0.9,1,stim/objects/HouseObjects/rug4.png,stim/13.jpeg,1,stim/1.png,3,2,61,2021-03-31_07h03.03.137,premup-three_ses-02_part-03_label-phase3,3.2.4,MacIntel,60
1,left,3.539999962,,,0,,,0,,,1,0,200,167,1,199,0,1,0,2,stim/objects/Instruments/balalaika2.png,,0,stim/0.png,0,0,61,2021-03-31_07h03.03.137,premup-three_ses-02_part-03_label-phase3,3.2.4,MacIntel,60
1,left,2.75999999,,,0,,,0,,,1,0,200,137,1,199,0,2,0,2,stim/objects/HouseObjects/match.png,,0,stim/0.png,0,0,61,2021-03-31_07h03.03.137,premup-three_ses-02_part-03_label-phase3,3.2.4,MacIntel,60
1,right,2.371999979,,,0,,,0,,,1,0,200,172,1,199,0,2,0,2,stim/objects/HouseObjects/towel.png,,0,stim/0.png,0,0,61,2021-03-31_07h03.03.137,premup-three_ses-02_part-03_label-phase3,3.2.4,MacIntel,60
1,left,1.197000027,,,0,,,0,,,1,0,200,193,1,199,0,2,0,2,stim/objects/HouseObjects/bucket2.png,,0,stim/0.png,0,0,61,2021-03-31_07h03.03.137,premup-three_ses-02_part-03_label-phase3,3.2.4,MacIntel,60
1,left,1.879999876,4,2.136999846,0,2,2.632999897,0,4,1.776000023,1,0,200,96,1,199,3,2,0.1,1,stim/objects/HouseObjects/thread4.png,stim/21.jpeg,2,stim/2.png,1,3,61,2021-03-31_07h03.03.137,premup-three_ses-02_part-03_label-phase3,3.2.4,MacIntel,60
1,left,2.243999958,3,1.487999916,0,3,2.406999826,0,2,1.9599998,1,0,200,1,1,199,1,1,0.5,1,stim/objects/Instruments/pipepiano3.png,stim/34.jpeg,3,stim/3.png,4,2,61,2021-03-31_07h03.03.137,premup-three_ses-02_part-03_label-phase3,3.2.4,MacIntel,60
1,left,2.797999859,3,1.552999973,0,2,1.162999868,0,2,0.501999855,1,0,200,74,1,199,3,2,0.9,1,stim/objects/HouseObjects/pitcher4.png,stim/13.jpeg,1,stim/1.png,3,3,61,2021-03-31_07h03.03.137,premup-three_ses-02_part-03_label-phase3,3.2.4,MacIntel,60
1,left,1.642999887,4,1.665999889,0,2,1.161000013,0,2,0.22699976,1,0,200,12,1,199,1,2,0.5,1,stim/objects/Instruments/timbal3.png,stim/43.jpeg,4,stim/4.png,3,1,61,2021-03-31_07h03.03.137,premup-three_ses-02_part-03_label-phase3,3.2.4,MacIntel,60
1,left,2.128999949,2,1.3349998,0,3,1.328999996,0,1,1.407000065,1,0,200,82,1,199,3,1,0.9,1,stim/objects/Instruments/timbal4.png,stim/23.jpeg,2,stim/2.png,3,1,61,2021-03-31_07h03.03.137,premup-three_ses-02_part-03_label-phase3,3.2.4,MacIntel,60
1,left,3.595999956,,,0,,,0,,,1,0,200,111,1,199,0,2,0,2,stim/objects/HouseObjects/ballofstring.png,,0,stim/0.png,0,0,61,2021-03-31_07h03.03.137,premup-three_ses-02_part-03_label-phase3,3.2.4,MacIntel,60
1,left,1.105999947,2,1.519000053,0,2,1.069999933,0,1,0.813999891,1,0,200,56,1,199,2,2,0.3,1,stim/objects/HouseObjects/clothespin4.png,stim/64.jpeg,6,stim/6.png,4,1,61,2021-03-31_07h03.03.137,premup-three_ses-02_part-03_label-phase3,3.2.4,MacIntel,60
1,left,3.256000042,,,0,,,0,,,1,0,200,124,1,199,0,1,0,2,stim/objects/Instruments/maraca.png,,0,stim/0.png,0,0,61,2021-03-31_07h03.03.137,premup-three_ses-02_part-03_label-phase3,3.2.4,MacIntel,60
1,left,1.722999811,3,0.830999851,0,2,0.94299984,0,2,1.371999979,1,0,200,20,1,199,2,1,0.3,1,stim/objects/Instruments/trumpet3.png,stim/51.jpeg,5,stim/5.png,1,2,61,2021-03-31_07h03.03.137,premup-three_ses-02_part-03_label-phase3,3.2.4,MacIntel,60
1,right,2.432999849,2,1.689999819,0,2,1.047999859,0,2,1.227999926,1,0,200,89,1,199,3,1,0.9,1,stim/objects/Instruments/xylophone4.png,stim/22.jpeg,2,stim/2.png,2,4,61,2021-03-31_07h03.03.137,premup-three_ses-02_part-03_label-phase3,3.2.4,MacIntel,60
1,right,2.333999872,3,0.917999983,0,2,0.801000118,0,2,0.615999937,1,0,200,61,1,199,3,1,0.1,1,stim/objects/Instruments/metronome4.png,stim/12.jpeg,1,stim/1.png,2,4,61,2021-03-31_07h03.03.137,premup-three_ses-02_part-03_label-phase3,3.2.4,MacIntel,60
1,left,1.523999929,3,1.017999887,0,3,0.598999739,0,3,0.450999975,1,0,200,33,1,199,2,2,0.7,1,stim/objects/HouseObjects/vacuumcleaner3.png,stim/51.jpeg,5,stim/5.png,1,1,61,2021-03-31_07h03.03.137,premup-three_ses-02_part-03_label-phase3,3.2.4,MacIntel,60
1,right,1.899999857,2,0.688999891,0,2,0.654000044,0,2,0.369999886,1,0,200,59,1,199,2,2,0.3,1,stim/objects/HouseObjects/key4.png,stim/63.jpeg,6,stim/6.png,3,1,61,2021-03-31_07h03.03.137,premup-three_ses-02_part-03_label-phase3,3.2.4,MacIntel,60
1,right,1.457000017,,,0,,,0,,,1,0,200,110,1,199,0,2,0,2,stim/objects/HouseObjects/ashtray.png,,0,stim/0.png,0,0,61,2021-03-31_07h03.03.137,premup-three_ses-02_part-03_label-phase3,3.2.4,MacIntel,60
1,right,0.99000001,2,2.148999929,0,2,0.409999847,0,2,0.282999754,1,0,200,16,1,199,1,2,0.5,1,stim/objects/HouseObjects/scale3.png,stim/41.jpeg,4,stim/4.png,1,1,61,2021-03-31_07h03.03.137,premup-three_ses-02_part-03_label-phase3,3.2.4,MacIntel,60
1,right,1.721999884,,,0,,,0,,,1,0,200,195,1,199,0,2,0,2,stim/objects/HouseObjects/clothesdryingrack2.png,,0,stim/0.png,0,0,61,2021-03-31_07h03.03.137,premup-three_ses-02_part-03_label-phase3,3.2.4,MacIntel,60
1,left,1.224999905,,,0,,,0,,,1,0,200,192,1,199,0,2,0,2,stim/objects/HouseObjects/broom2.png,,0,stim/0.png,0,0,61,2021-03-31_07h03.03.137,premup-three_ses-02_part-03_label-phase3,3.2.4,MacIntel,60
1,left,1.129999876,,,0,,,0,,,1,0,200,185,1,199,0,1,0,2,stim/objects/Instruments/cymbal2.png,,0,stim/0.png,0,0,61,2021-03-31_07h03.03.137,premup-three_ses-02_part-03_label-phase3,3.2.4,MacIntel,60
1,left,0.955999851,,,0,,,0,,,1,0,200,102,1,199,0,1,0,2,stim/objects/Instruments/balalaika.png,,0,stim/0.png,0,0,61,2021-03-31_07h03.03.137,premup-three_ses-02_part-03_label-phase3,3.2.4,MacIntel,60
1,left,0.807999849,,,0,,,0,,,1,0,200,101,1,199,0,1,0,2,stim/objects/Instruments/acousticguitar.png,,0,stim/0.png,0,0,61,2021-03-31_07h03.03.137,premup-three_ses-02_part-03_label-phase3,3.2.4,MacIntel,60
1,left,0.856999874,,,0,,,0,,,1,0,200,161,1,199,0,1,0,2,stim/objects/Instruments/tuba.png,,0,stim/0.png,0,0,61,2021-03-31_07h03.03.137,premup-three_ses-02_part-03_label-phase3,3.2.4,MacIntel,60
1,right,1.069999933,2,0.801999807,0,2,0.530999899,0,2,0.323999882,1,0,200,9,1,199,1,1,0.5,1,stim/objects/HouseObjects/safetypin3.png,stim/32.jpeg,3,stim/3.png,2,3,61,2021-03-31_07h03.03.137,premup-three_ses-02_part-03_label-phase3,3.2.4,MacIntel,60
1,right,2.177999973,2,0.398999929,0,2,0.324999809,0,2,0.230000019,1,0,200,54,1,199,2,2,0.3,1,stim/objects/HouseObjects/clock4.png,stim/62.jpeg,6,stim/6.png,2,2,61,2021-03-31_07h03.03.137,premup-three_ses-02_part-03_label-phase3,3.2.4,MacIntel,60
1,right,1.305999994,2,0.448999882,0,2,0.322999954,0,2,0.246999979,1,0,200,44,1,199,2,1,0.7,1,stim/objects/Instruments/cornet4.png,stim/64.jpeg,6,stim/6.png,4,1,61,2021-03-31_07h03.03.137,premup-three_ses-02_part-03_label-phase3,3.2.4,MacIntel,60
1,left,1.847999811,,,0,,,0,,,1,0,200,109,1,199,0,1,0,2,stim/objects/Instruments/cornet.png,,0,stim/0.png,0,0,61,2021-03-31_07h03.03.137,premup-three_ses-02_part-03_label-phase3,3.2.4,MacIntel,60
1,left,1.414999723,3,1.002999783,0,3,0.480000019,0,3,0.246999741,1,0,200,91,1,199,3,2,0.1,1,stim/objects/HouseObjects/scale4.png,stim/24.jpeg,2,stim/2.png,4,2,61,2021-03-31_07h03.03.137,premup-three_ses-02_part-03_label-phase3,3.2.4,MacIntel,60
1,right,1.225000143,,,0,,,0,,,1,0,200,158,1,199,0,2,0,2,stim/objects/HouseObjects/spraybottle.png,,0,stim/0.png,0,0,61,2021-03-31_07h03.03.137,premup-three_ses-02_part-03_label-phase3,3.2.4,MacIntel,60
1,right,0.555000067,3,1.714999914,0,2,0.307999849,0,2,0.596999884,1,0,200,10,1,199,1,2,0.5,1,stim/objects/Instruments/speaker3.png,stim/41.jpeg,4,stim/4.png,1,4,61,2021-03-31_07h03.03.137,premup-three_ses-02_part-03_label-phase3,3.2.4,MacIntel,60
1,left,1.863999844,,,0,,,0,,,1,0,200,186,1,199,0,1,0,2,stim/objects/Instruments/doublebass2.png,,0,stim/0.png,0,0,61,2021-03-31_07h03.03.137,premup-three_ses-02_part-03_label-phase3,3.2.4,MacIntel,60
1,right,1.313999891,2,1.006999731,0,2,0.296000004,0,2,0.296999931,1,0,200,70,1,199,3,2,0.9,1,stim/objects/HouseObjects/knife4.png,stim/13.jpeg,1,stim/1.png,3,2,61,2021-03-31_07h03.03.137,premup-three_ses-02_part-03_label-phase3,3.2.4,MacIntel,60
1,left,1.379999876,4,1.564999819,0,3,0.815999985,0,3,0.710000038,1,0,200,0,1,199,1,1,0.5,1,stim/objects/Instruments/panflute3.png,stim/33.jpeg,3,stim/3.png,3,2,61,2021-03-31_07h03.03.137,premup-three_ses-02_part-03_label-phase3,3.2.4,MacIntel,60
1,right,2.422999859,,,0,,,0,,,1,0,200,187,1,199,0,1,0,2,stim/objects/Instruments/keyboard2.png,,0,stim/0.png,0,0,61,2021-03-31_07h03.03.137,premup-three_ses-02_part-03_label-phase3,3.2.4,MacIntel,60
1,right,1.376999855,,,0,,,0,,,1,0,200,115,1,199,0,2,0,2,stim/objects/HouseObjects/blender.png,,0,stim/0.png,0,0,61,2021-03-31_07h03.03.137,premup-three_ses-02_part-03_label-phase3,3.2.4,MacIntel,60
1,left,1.02699995,4,0.94299984,0,3,2.15199995,0,3,0.473999977,1,0,200,43,1,199,2,1,0.7,1,stim/objects/Instruments/clarinet4.png,stim/63.jpeg,6,stim/6.png,3,4,61,2021-03-31_07h03.03.137,premup-three_ses-02_part-03_label-phase3,3.2.4,MacIntel,60
1,right,1.872999907,2,0.980999947,0,2,0.378999949,0,2,0.280999899,1,0,200,23,1,199,2,1,0.3,1,stim/objects/Instruments/vuvuzela3.png,stim/54.jpeg,5,stim/5.png,4,4,61,2021-03-31_07h03.03.137,premup-three_ses-02_part-03_label-phase3,3.2.4,MacIntel,60
1,left,1.529999733,,,0,,,0,,,1,0,200,125,1,199,0,1,0,2,stim/objects/Instruments/marimba.png,,0,stim/0.png,0,0,61,2021-03-31_07h03.03.137,premup-three_ses-02_part-03_label-phase3,3.2.4,MacIntel,60
1,left,2.08100009,4,0.882999897,0,3,0.677999973,0,3,0.23300004,1,0,200,25,1,199,2,1,0.3,1,stim/objects/Instruments/accordion4.png,stim/52.jpeg,5,stim/5.png,2,1,61,2021-03-31_07h03.03.137,premup-three_ses-02_part-03_label-phase3,3.2.4,MacIntel,60
1,right,1.747999907,2,0.763999939,0,2,0.480000019,0,2,0.477999926,1,0,200,87,1,199,3,1,0.9,1,stim/objects/Instruments/violin4.png,stim/24.jpeg,2,stim/2.png,4,3,61,2021-03-31_07h03.03.137,premup-three_ses-02_part-03_label-phase3,3.2.4,MacIntel,60
1,right,1.80099988,,,0,,,0,,,1,0,200,155,1,199,0,2,0,2,stim/objects/HouseObjects/saw.png,,0,stim/0.png,0,0,61,2021-03-31_07h03.03.137,premup-three_ses-02_part-03_label-phase3,3.2.4,MacIntel,60
1,right,0.824999809,2,0.68599987,0,2,0.366999865,0,2,0.497999907,1,0,200,92,1,199,3,2,0.1,1,stim/objects/HouseObjects/sponge4.png,stim/21.jpeg,2,stim/2.png,1,3,61,2021-03-31_07h03.03.137,premup-three_ses-02_part-03_label-phase3,3.2.4,MacIntel,60
1,right,2.639999866,,,0,,,0,,,1,0,200,133,1,199,0,2,0,2,stim/objects/HouseObjects/ironingboard.png,,0,stim/0.png,0,0,61,2021-03-31_07h03.03.137,premup-three_ses-02_part-03_label-phase3,3.2.4,MacIntel,60
1,right,1.483999968,2,0.63499999,0,2,0.27699995,0,2,0.217999935,1,0,200,37,1,199,2,2,0.7,1,stim/objects/HouseObjects/barbecuelighter4.png,stim/51.jpeg,5,stim/5.png,1,4,61,2021-03-31_07h03.03.137,premup-three_ses-02_part-03_label-phase3,3.2.4,MacIntel,60
1,right,1.296000004,3,1.713999987,0,3,0.427000046,0,3,0.253999949,1,0,200,73,1,199,3,2,0.9,1,stim/objects/HouseObjects/pan4.png,stim/12.jpeg,1,stim/1.png,2,4,61,2021-03-31_07h03.03.137,premup-three_ses-02_part-03_label-phase3,3.2.4,MacIntel,60
1,left,1.128999949,,,0,,,0,,,1,0,200,106,1,199,0,1,0,2,stim/objects/Instruments/cello.png,,0,stim/0.png,0,0,61,2021-03-31_07h03.03.137,premup-three_ses-02_part-03_label-phase3,3.2.4,MacIntel,60
1,left,1.119999886,,,0,,,0,,,1,0,200,176,1,199,0,2,0,2,stim/objects/HouseObjects/ballofstring2.png,,0,stim/0.png,0,0,61,2021-03-31_07h03.03.137,premup-three_ses-02_part-03_label-phase3,3.2.4,MacIntel,60
1,left,1.273999929,,,0,,,0,,,1,0,200,140,1,199,0,1,0,2,stim/objects/Instruments/panflute.png,,0,stim/0.png,0,0,61,2021-03-31_07h03.03.137,premup-three_ses-02_part-03_label-phase3,3.2.4,MacIntel,60
1,right,1.428999901,3,1.654999971,0,3,0.378000021,0,3,0.30099988,1,0,200,30,1,199,2,2,0.7,1,stim/objects/HouseObjects/thermometer3.png,stim/52.jpeg,5,stim/5.png,2,2,61,2021-03-31_07h03.03.137,premup-three_ses-02_part-03_label-phase3,3.2.4,MacIntel,60
1,left,1.124999762,,,0,,,0,,,1,0,200,160,1,199,0,1,0,2,stim/objects/Instruments/trumpet.png,,0,stim/0.png,0,0,61,2021-03-31_07h03.03.137,premup-three_ses-02_part-03_label-phase3,3.2.4,MacIntel,60
1,left,1.078999996,,,0,,,0,,,1,0,200,139,1,199,0,2,0,2,stim/objects/HouseObjects/pitcher.png,,0,stim/0.png,0,0,61,2021-03-31_07h03.03.137,premup-three_ses-02_part-03_label-phase3,3.2.4,MacIntel,60
1,left,1.447999954,,,0,,,0,,,1,0,200,126,1,199,0,1,0,2,stim/objects/Instruments/metronome.png,,0,stim/0.png,0,0,61,2021-03-31_07h03.03.137,premup-three_ses-02_part-03_label-phase3,3.2.4,MacIntel,60
1,right,1.141000032,,,0,,,0,,,1,0,200,191,1,199,0,2,0,2,stim/objects/HouseObjects/bottle2.png,,0,stim/0.png,0,0,61,2021-03-31_07h03.03.137,premup-three_ses-02_part-03_label-phase3,3.2.4,MacIntel,60
1,left,1.280999899,2,1.082999945,0,2,0.375999928,0,2,0.297999859,1,0,200,64,1,199,3,1,0.1,1,stim/objects/Instruments/oboe4.png,stim/11.jpeg,1,stim/1.png,1,4,61,2021-03-31_07h03.03.137,premup-three_ses-02_part-03_label-phase3,3.2.4,MacIntel,60
1,right,1.244999886,,,0,,,0,,,1,0,200,178,1,199,0,2,0,2,stim/objects/HouseObjects/basket2.png,,0,stim/0.png,0,0,61,2021-03-31_07h03.03.137,premup-three_ses-02_part-03_label-phase3,3.2.4,MacIntel,60
1,left,5.386999846,2,0.789999723,0,2,0.270999908,0,2,0.313999891,1,0,200,97,1,199,3,2,0.1,1,stim/objects/HouseObjects/towel4.png,stim/22.jpeg,2,stim/2.png,2,2,61,2021-03-31_07h03.03.137,premup-three_ses-02_part-03_label-phase3,3.2.4,MacIntel,60
1,left,1.958999872,,,0,,,0,,,1,0,200,152,1,199,0,2,0,2,stim/objects/HouseObjects/rubbergloves.png,,0,stim/0.png,0,0,61,2021-03-31_07h03.03.137,premup-three_ses-02_part-03_label-phase3,3.2.4,MacIntel,60
1,right,1.006999731,2,0.667999983,0,2,0.278000116,0,2,0.197999954,1,0,200,38,1,199,2,2,0.7,1,stim/objects/HouseObjects/basket4.png,stim/52.jpeg,5,stim/5.png,2,2,61,2021-03-31_07h03.03.137,premup-three_ses-02_part-03_label-phase3,3.2.4,MacIntel,60
1,right,0.931999922,,,0,,,0,,,1,0,200,169,1,199,0,1,0,2,stim/objects/Instruments/bassdrum2.png,,0,stim/0.png,0,0,61,2021-03-31_07h03.03.137,premup-three_ses-02_part-03_label-phase3,3.2.4,MacIntel,60
1,left,1.398000002,,,0,,,0,,,1,0,200,166,1,199,0,1,0,2,stim/objects/Instruments/acousticguitar2.png,,0,stim/0.png,0,0,61,2021-03-31_07h03.03.137,premup-three_ses-02_part-03_label-phase3,3.2.4,MacIntel,60
1,left,0.960999966,,,0,,,0,,,1,0,200,198,1,199,0,2,0,2,stim/objects/HouseObjects/ironingboard2.png,,0,stim/0.png,0,0,61,2021-03-31_07h03.03.137,premup-three_ses-02_part-03_label-phase3,3.2.4,MacIntel,60
1,right,0.958999872,,,0,,,0,,,1,0,200,151,1,199,0,2,0,2,stim/objects/HouseObjects/remote.png,,0,stim/0.png,0,0,61,2021-03-31_07h03.03.137,premup-three_ses-02_part-03_label-phase3,3.2.4,MacIntel,60
1,right,1.183000088,,,0,,,0,,,1,0,200,144,1,199,0,1,0,2,stim/objects/Instruments/saxophone.png,,0,stim/0.png,0,0,61,2021-03-31_07h03.03.137,premup-three_ses-02_part-03_label-phase3,3.2.4,MacIntel,60
1,left,0.55099988,2,0.601999998,0,2,0.212999821,0,2,0.213999987,1,0,200,86,1,199,3,1,0.9,1,stim/objects/Instruments/tuba4.png,stim/23.jpeg,2,stim/2.png,3,3,61,2021-03-31_07h03.03.137,premup-three_ses-02_part-03_label-phase3,3.2.4,MacIntel,60
1,left,0.74000001,,,0,,,0,,,1,0,200,113,1,199,0,2,0,2,stim/objects/HouseObjects/basket.png,,0,stim/0.png,0,0,61,2021-03-31_07h03.03.137,premup-three_ses-02_part-03_label-phase3,3.2.4,MacIntel,60
1,right,0.773000002,,,0,,,0,,,1,0,200,141,1,199,0,1,0,2,stim/objects/Instruments/pipepiano.png,,0,stim/0.png,0,0,61,2021-03-31_07h03.03.137,premup-three_ses-02_part-03_label-phase3,3.2.4,MacIntel,60
1,right,2.70299983,2,0.645999908,0,2,0.296000004,0,2,0.23699975,1,0,200,58,1,199,2,2,0.3,1,stim/objects/HouseObjects/ironingboard4.png,stim/62.jpeg,6,stim/6.png,2,1,61,2021-03-31_07h03.03.137,premup-three_ses-02_part-03_label-phase3,3.2.4,MacIntel,60
1,left,1.23699975,,,0,,,0,,,1,0,200,175,1,199,0,2,0,2,stim/objects/HouseObjects/ashtray2.png,,0,stim/0.png,0,0,61,2021-03-31_07h03.03.137,premup-three_ses-02_part-03_label-phase3,3.2.4,MacIntel,60
1,left,1.194999933,,,0,,,0,,,1,0,200,105,1,199,0,1,0,2,stim/objects/Instruments/bassguitar.png,,0,stim/0.png,0,0,61,2021-03-31_07h03.03.137,premup-three_ses-02_part-03_label-phase3,3.2.4,MacIntel,60
1,left,0.690999985,,,0,,,0,,,1,0,200,134,1,199,0,2,0,2,stim/objects/HouseObjects/key.png,,0,stim/0.png,0,0,61,2021-03-31_07h03.03.137,premup-three_ses-02_part-03_label-phase3,3.2.4,MacIntel,60
1,left,0.978999853,2,0.536000013,0,2,0.421000004,0,2,0.30099988,1,0,200,47,1,199,2,1,0.7,1,stim/objects/Instruments/keyboard4.png,stim/63.jpeg,6,stim/6.png,3,2,61,2021-03-31_07h03.03.137,premup-three_ses-02_part-03_label-phase3,3.2.4,MacIntel,60
1,left,1.125999928,,,0,,,0,,,1,0,200,117,1,199,0,2,0,2,stim/objects/HouseObjects/broom.png,,0,stim/0.png,0,0,61,2021-03-31_07h03.03.137,premup-three_ses-02_part-03_label-phase3,3.2.4,MacIntel,60
1,left,0.766000032,,,0,,,0,,,1,0,200,122,1,199,0,1,0,2,stim/objects/Instruments/keyboard.png,,0,stim/0.png,0,0,61,2021-03-31_07h03.03.137,premup-three_ses-02_part-03_label-phase3,3.2.4,MacIntel,60
1,left,0.90199995,3,1.299999952,0,3,0.463999748,0,1,0.486999989,1,0,200,98,1,199,3,2,0.1,1,stim/objects/HouseObjects/vacuumcleaner4.png,stim/23.jpeg,2,stim/2.png,3,4,61,2021-03-31_07h03.03.137,premup-three_ses-02_part-03_label-phase3,3.2.4,MacIntel,60
1,left,2.483999968,,,0,,,0,,,1,0,200,114,1,199,0,2,0,2,stim/objects/HouseObjects/bleachbottle.png,,0,stim/0.png,0,0,61,2021-03-31_07h03.03.137,premup-three_ses-02_part-03_label-phase3,3.2.4,MacIntel,60
1,left,1.347000122,,,0,,,0,,,1,0,200,199,1,199,0,2,0,2,stim/objects/HouseObjects/key2.png,,0,stim/0.png,0,0,61,2021-03-31_07h03.03.137,premup-three_ses-02_part-03_label-phase3,3.2.4,MacIntel,60
1,left,1.191999912,,,0,,,0,,,1,0,200,121,1,199,0,1,0,2,stim/objects/Instruments/doublebass.png,,0,stim/0.png,0,0,61,2021-03-31_07h03.03.137,premup-three_ses-02_part-03_label-phase3,3.2.4,MacIntel,60
1,left,0.695999861,2,0.595999956,0,2,0.47699976,0,2,0.189999819,1,0,200,46,1,199,2,1,0.7,1,stim/objects/Instruments/doublebass4.png,stim/62.jpeg,6,stim/6.png,2,3,61,2021-03-31_07h03.03.137,premup-three_ses-02_part-03_label-phase3,3.2.4,MacIntel,60
1,right,2.618000031,2,0.874000072,0,2,0.383999825,0,2,0.225999832,1,0,200,11,1,199,1,2,0.5,1,stim/objects/Instruments/tambourine3.png,stim/42.jpeg,4,stim/4.png,2,3,61,2021-03-31_07h03.03.137,premup-three_ses-02_part-03_label-phase3,3.2.4,MacIntel,60
1,left,1.131999969,,,0,,,0,,,1,0,200,165,1,199,0,1,0,2,stim/objects/Instruments/accordion2.png,,0,stim/0.png,0,0,61,2021-03-31_07h03.03.137,premup-three_ses-02_part-03_label-phase3,3.2.4,MacIntel,60
1,right,1.342000008,3,0.690999985,0,3,0.362999916,0,3,0.243999958,1,0,200,13,1,199,1,2,0.5,1,stim/objects/Instruments/triangle3.png,stim/44.jpeg,4,stim/4.png,4,1,61,2021-03-31_07h03.03.137,premup-three_ses-02_part-03_label-phase3,3.2.4,MacIntel,60
1,left,1.276000023,,,0,,,0,,,1,0,200,180,1,199,0,1,0,2,stim/objects/Instruments/bassguitar2.png,,0,stim/0.png,0,0,61,2021-03-31_07h03.03.137,premup-three_ses-02_part-03_label-phase3,3.2.4,MacIntel,60
1,right,1.028999805,3,0.75,0,3,0.448999882,0,3,0.256000042,1,0,200,76,1,199,3,2,0.9,1,stim/objects/HouseObjects/remote4.png,stim/11.jpeg,1,stim/1.png,1,1,61,2021-03-31_07h03.03.137,premup-three_ses-02_part-03_label-phase3,3.2.4,MacIntel,60
1,left,1.245999813,,,0,,,0,,,1,0,200,103,1,199,0,1,0,2,stim/objects/Instruments/banjo.png,,0,stim/0.png,0,0,61,2021-03-31_07h03.03.137,premup-three_ses-02_part-03_label-phase3,3.2.4,MacIntel,60
1,right,1.638999939,,,0,,,0,,,1,0,200,138,1,199,0,2,0,2,stim/objects/HouseObjects/pan.png,,0,stim/0.png,0,0,61,2021-03-31_07h03.03.137,premup-three_ses-02_part-03_label-phase3,3.2.4,MacIntel,60
1,left,0.898000002,,,0,,,0,,,1,0,200,171,1,199,0,2,0,2,stim/objects/HouseObjects/thread.png,,0,stim/0.png,0,0,61,2021-03-31_07h03.03.137,premup-three_ses-02_part-03_label-phase3,3.2.4,MacIntel,60
1,left,0.926000118,,,0,,,0,,,1,0,200,147,1,199,0,1,0,2,stim/objects/Instruments/timbal.png,,0,stim/0.png,0,0,61,2021-03-31_07h03.03.137,premup-three_ses-02_part-03_label-phase3,3.2.4,MacIntel,60
1,left,0.871000051,,,0,,,0,,,1,0,200,153,1,199,0,2,0,2,stim/objects/HouseObjects/rug.png,,0,stim/0.png,0,0,61,2021-03-31_07h03.03.137,premup-three_ses-02_part-03_label-phase3,3.2.4,MacIntel,60
1,left,1.331999779,,,0,,,0,,,1,0,200,128,1,199,0,1,0,2,stim/objects/Instruments/musicstand.png,,0,stim/0.png,0,0,61,2021-03-31_07h03.03.137,premup-three_ses-02_part-03_label-phase3,3.2.4,MacIntel,60
1,left,0.720000029,,,0,,,0,,,1,0,200,181,1,199,0,1,0,2,stim/objects/Instruments/cello2.png,,0,stim/0.png,0,0,61,2021-03-31_07h03.03.137,premup-three_ses-02_part-03_label-phase3,3.2.4,MacIntel,60
1,left,1.81799984,,,0,,,0,,,1,0,200,190,1,199,0,2,0,2,stim/objects/HouseObjects/blender2.png,,0,stim/0.png,0,0,61,2021-03-31_07h03.03.137,premup-three_ses-02_part-03_label-phase3,3.2.4,MacIntel,60
1,left,1.046999931,2,1.089999914,0,2,0.350999832,0,2,0.199999809,1,0,200,53,1,199,2,2,0.3,1,stim/objects/HouseObjects/bucket4.png,stim/61.jpeg,6,stim/6.png,1,3,61,2021-03-31_07h03.03.137,premup-three_ses-02_part-03_label-phase3,3.2.4,MacIntel,60
1,left,1.007999897,,,0,,,0,,,1,0,200,156,1,199,0,2,0,2,stim/objects/HouseObjects/scale.png,,0,stim/0.png,0,0,61,2021-03-31_07h03.03.137,premup-three_ses-02_part-03_label-phase3,3.2.4,MacIntel,60
1,left,0.749000072,,,0,,,0,,,1,0,200,183,1,199,0,1,0,2,stim/objects/Instruments/clarinet2.png,,0,stim/0.png,0,0,61,2021-03-31_07h03.03.137,premup-three_ses-02_part-03_label-phase3,3.2.4,MacIntel,60
1,left,0.850999832,2,0.805999994,0,2,0.417000055,0,2,0.200000048,1,0,200,52,1,199,2,2,0.3,1,stim/objects/HouseObjects/broom4.png,stim/64.jpeg,6,stim/6.png,4,4,61,2021-03-31_07h03.03.137,premup-three_ses-02_part-03_label-phase3,3.2.4,MacIntel,60
1,left,0.970999956,3,0.71600008,0,3,0.378999949,0,3,0.231999874,1,0,200,22,1,199,2,1,0.3,1,stim/objects/Instruments/violin3.png,stim/53.jpeg,5,stim/5.png,3,2,61,2021-03-31_07h03.03.137,premup-three_ses-02_part-03_label-phase3,3.2.4,MacIntel,60
1,left,1.040999889,,,0,,,0,,,1,0,200,150,1,199,0,2,0,2,stim/objects/HouseObjects/recyclingbin.png,,0,stim/0.png,0,0,61,2021-03-31_07h03.03.137,premup-three_ses-02_part-03_label-phase3,3.2.4,MacIntel,60
1,right,1.129999876,2,1.322999954,0,2,0.303999901,0,2,0.215999842,1,0,200,90,1,199,3,2,0.1,1,stim/objects/HouseObjects/saw4.png,stim/23.jpeg,2,stim/2.png,3,2,61,2021-03-31_07h03.03.137,premup-three_ses-02_part-03_label-phase3,3.2.4,MacIntel,60
1,right,1.133999825,,,0,,,0,,,1,0,200,154,1,199,0,2,0,2,stim/objects/HouseObjects/safetypin.png,,0,stim/0.png,0,0,61,2021-03-31_07h03.03.137,premup-three_ses-02_part-03_label-phase3,3.2.4,MacIntel,60
1,right,3.2099998,2,0.882999897,0,2,0.214999914,0,2,0.214999914,1,0,200,8,1,199,1,1,0.5,1,stim/objects/HouseObjects/rug3.png,stim/31.jpeg,3,stim/3.png,1,4,61,2021-03-31_07h03.03.137,premup-three_ses-02_part-03_label-phase3,3.2.4,MacIntel,60
1,right,0.993999958,,,0,,,0,,,1,0,200,136,1,199,0,2,0,2,stim/objects/HouseObjects/lintroller.png,,0,stim/0.png,0,0,61,2021-03-31_07h03.03.137,premup-three_ses-02_part-03_label-phase3,3.2.4,MacIntel,60
1,right,0.980999947,2,0.467000008,0,2,0.183999777,0,2,0.644999981,1,0,200,75,1,199,3,2,0.9,1,stim/objects/HouseObjects/recyclingbin4.png,stim/14.jpeg,1,stim/1.png,4,3,61,2021-03-31_07h03.03.137,premup-three_ses-02_part-03_label-phase3,3.2.4,MacIntel,60
1,left,1.375999928,,,0,,,0,,,1,0,200,143,1,199,0,1,0,2,stim/objects/Instruments/record_player.png,,0,stim/0.png,0,0,61,2021-03-31_07h03.03.137,premup-three_ses-02_part-03_label-phase3,3.2.4,MacIntel,60
1,left,0.398999929,,,0,,,0,,,1,0,200,119,1,199,0,2,0,2,stim/objects/HouseObjects/clock.png,,0,stim/0.png,0,0,61,2021-03-31_07h03.03.137,premup-three_ses-02_part-03_label-phase3,3.2.4,MacIntel,60
1,right,0.982000113,,,0,,,0,,,1,0,200,127,1,199,0,1,0,2,stim/objects/Instruments/musicsheet.png,,0,stim/0.png,0,0,61,2021-03-31_07h03.03.137,premup-three_ses-02_part-03_label-phase3,3.2.4,MacIntel,60
1,left,0.461999893,2,0.666999817,0,2,0.230000019,0,2,0.849999905,1,0,200,65,1,199,3,1,0.1,1,stim/objects/Instruments/panflute4.png,stim/12.jpeg,1,stim/1.png,2,3,61,2021-03-31_07h03.03.137,premup-three_ses-02_part-03_label-phase3,3.2.4,MacIntel,60
1,left,1.379999876,,,0,,,0,,,1,0,200,173,1,199,0,2,0,2,stim/objects/HouseObjects/vacuumcleaner.png,,0,stim/0.png,0,0,61,2021-03-31_07h03.03.137,premup-three_ses-02_part-03_label-phase3,3.2.4,MacIntel,60
1,left,0.776000023,2,0.984999895,0,2,0.253999949,0,2,0.568000078,1,0,200,19,1,199,1,2,0.5,1,stim/objects/HouseObjects/teapot3.png,stim/44.jpeg,4,stim/4.png,4,3,61,2021-03-31_07h03.03.137,premup-three_ses-02_part-03_label-phase3,3.2.4,MacIntel,60
1,right,1.298999786,4,1.166000128,0,4,1.729999781,0,4,0.585999966,1,0,200,40,1,199,2,1,0.7,1,stim/objects/Instruments/bassguitar4.png,stim/64.jpeg,6,stim/6.png,4,1,61,2021-03-31_07h03.03.137,premup-three_ses-02_part-03_label-phase3,3.2.4,MacIntel,60
1,right,2.072999954,3,1.039999723,0,3,0.463000059,0,3,0.285999775,1,0,200,27,1,199,2,1,0.3,1,stim/objects/Instruments/balalaika4.png,stim/54.jpeg,5,stim/5.png,4,4,61,2021-03-31_07h03.03.137,premup-three_ses-02_part-03_label-phase3,3.2.4,MacIntel,60
1,right,1.481999874,1,1.154999971,0,1,0.569000006,0,1,0.232999802,1,0,200,5,1,199,1,1,0.5,1,stim/objects/HouseObjects/recyclingbin3.png,stim/32.jpeg,3,stim/3.png,2,3,61,2021-03-31_07h03.03.137,premup-three_ses-02_part-03_label-phase3,3.2.4,MacIntel,60
1,right,1.605999947,3,0.84100008,0,3,0.402999878,0,3,0.21600008,1,0,200,72,1,199,3,2,0.9,1,stim/objects/HouseObjects/match4.png,stim/11.jpeg,1,stim/1.png,1,2,61,2021-03-31_07h03.03.137,premup-three_ses-02_part-03_label-phase3,3.2.4,MacIntel,60
1,left,2.812999964,2,0.664999962,0,2,0.342999935,0,2,0.22300005,1,0,200,28,1,199,2,1,0.3,1,stim/objects/Instruments/banjo4.png,stim/51.jpeg,5,stim/5.png,1,3,61,2021-03-31_07h03.03.137,premup-three_ses-02_part-03_label-phase3,3.2.4,MacIntel,60
1,left,2.361999989,,,0,,,0,,,1,0,200,189,1,199,0,1,0,2,stim/objects/Instruments/maraca2.png,,0,stim/0.png,0,0,61,2021-03-31_07h03.03.137,premup-three_ses-02_part-03_label-phase3,3.2.4,MacIntel,60
1,right,1.089999914,2,0.614999771,0,2,0.28399992,0,2,0.198999882,1,0,200,15,1,199,1,2,0.5,1,stim/objects/HouseObjects/saw3.png,stim/44.jpeg,4,stim/4.png,4,2,61,2021-03-31_07h03.03.137,premup-three_ses-02_part-03_label-phase3,3.2.4,MacIntel,60
1,right,1.207999945,2,0.84100008,0,2,0.350999832,0,2,0.19900012,1,0,200,67,1,199,3,1,0.1,1,stim/objects/Instruments/record4.png,stim/14.jpeg,1,stim/1.png,4,3,61,2021-03-31_07h03.03.137,premup-three_ses-02_part-03_label-phase3,3.2.4,MacIntel,60
1,left,1.160000086,,,0,,,0,,,1,0,200,112,1,199,0,2,0,2,stim/objects/HouseObjects/barbecuelighter.png,,0,stim/0.png,0,0,61,2021-03-31_07h03.03.137,premup-three_ses-02_part-03_label-phase3,3.2.4,MacIntel,60
1,left,1.216999769,,,0,,,0,,,1,0,200,145,1,199,0,1,0,2,stim/objects/Instruments/speaker.png,,0,stim/0.png,0,0,61,2021-03-31_07h03.03.137,premup-three_ses-02_part-03_label-phase3,3.2.4,MacIntel,60
1,right,1.608999968,2,0.883999825,0,3,0.598999977,0,2,0.297999859,1,0,200,7,1,199,1,1,0.5,1,stim/objects/HouseObjects/rubbergloves3.png,stim/34.jpeg,3,stim/3.png,4,3,61,2021-03-31_07h03.03.137,premup-three_ses-02_part-03_label-phase3,3.2.4,MacIntel,60
1,left,1.278999805,2,0.570999861,0,4,0.549999952,0,2,0.299999952,1,0,200,14,1,199,1,2,0.5,1,stim/objects/Instruments/trombone3.png,stim/41.jpeg,4,stim/4.png,1,3,61,2021-03-31_07h03.03.137,premup-three_ses-02_part-03_label-phase3,3.2.4,MacIntel,60
1,left,1.83100009,2,0.75,0,4,0.427999973,0,1,0.336999893,1,0,200,26,1,199,2,1,0.3,1,stim/objects/Instruments/acousticguitar4.png,stim/53.jpeg,5,stim/5.png,3,3,61,2021-03-31_07h03.03.137,premup-three_ses-02_part-03_label-phase3,3.2.4,MacIntel,60
1,left,1.756999969,4,0.467999935,0,3,0.450000048,0,2,0.315999985,1,0,200,60,1,199,3,1,0.1,1,stim/objects/Instruments/marimba4.png,stim/11.jpeg,1,stim/1.png,1,4,61,2021-03-31_07h03.03.137,premup-three_ses-02_part-03_label-phase3,3.2.4,MacIntel,60
1,left,1.329999924,,,0,,,0,,,1,0,200,123,1,199,0,1,0,2,stim/objects/Instruments/laud.png,,0,stim/0.png,0,0,61,2021-03-31_07h03.03.137,premup-three_ses-02_part-03_label-phase3,3.2.4,MacIntel,60
1,right,1.75999999,2,0.883999825,0,1,0.569000006,0,1,0.321000099,1,0,200,77,1,199,3,2,0.9,1,stim/objects/HouseObjects/rubbergloves4.png,stim/12.jpeg,1,stim/1.png,2,2,61,2021-03-31_07h03.03.137,premup-three_ses-02_part-03_label-phase3,3.2.4,MacIntel,60
1,right,2.241999865,,,0,,,0,,,1,0,200,130,1,199,0,2,0,2,stim/objects/HouseObjects/clothesdryingrack.png,,0,stim/0.png,0,0,61,2021-03-31_07h03.03.137,premup-three_ses-02_part-03_label-phase3,3.2.4,MacIntel,60
1,right,0.822999954,,,0,,,0,,,1,0,200,157,1,199,0,2,0,2,stim/objects/HouseObjects/sponge.png,,0,stim/0.png,0,0,61,2021-03-31_07h03.03.137,premup-three_ses-02_part-03_label-phase3,3.2.4,MacIntel,60
1,right,0.726000071,2,0.621000051,0,2,0.31799984,0,2,0.181999922,1,0,200,94,1,199,3,2,0.1,1,stim/objects/HouseObjects/teapot4.png,stim/23.jpeg,2,stim/2.png,3,2,61,2021-03-31_07h03.03.137,premup-three_ses-02_part-03_label-phase3,3.2.4,MacIntel,60
1,right,0.872999907,2,0.463000059,0,2,0.263999939,0,2,0.183999777,1,0,200,18,1,199,1,2,0.5,1,stim/objects/HouseObjects/spraybottle3.png,stim/43.jpeg,4,stim/4.png,3,1,61,2021-03-31_07h03.03.137,premup-three_ses-02_part-03_label-phase3,3.2.4,MacIntel,60
1,right,1.228000164,,,0,,,0,,,1,0,200,182,1,199,0,1,0,2,stim/objects/Instruments/chime2.png,,0,stim/0.png,0,0,61,2021-03-31_07h03.03.137,premup-three_ses-02_part-03_label-phase3,3.2.4,MacIntel,60
1,right,0.624000072,2,0.839999914,0,2,0.23300004,0,2,0.181999922,1,0,200,42,1,199,2,1,0.7,1,stim/objects/Instruments/chime4.png,stim/62.jpeg,6,stim/6.png,2,4,61,2021-03-31_07h03.03.137,premup-three_ses-02_part-03_label-phase3,3.2.4,MacIntel,60
1,left,0.700999975,,,0,,,0,,,1,0,200,129,1,199,0,1,0,2,stim/objects/Instruments/oboe.png,,0,stim/0.png,0,0,61,2021-03-31_07h03.03.137,premup-three_ses-02_part-03_label-phase3,3.2.4,MacIntel,60
1,right,1.025000095,2,0.421000004,0,2,0.233999729,0,2,0.199999809,1,0,200,63,1,199,3,1,0.1,1,stim/objects/Instruments/musicstand4.png,stim/14.jpeg,1,stim/1.png,4,2,61,2021-03-31_07h03.03.137,premup-three_ses-02_part-03_label-phase3,3.2.4,MacIntel,60
1,right,0.708999872,2,1.047999859,0,2,0.198999882,0,2,0.480000019,1,0,200,50,1,199,2,2,0.3,1,stim/objects/HouseObjects/blender4.png,stim/62.jpeg,6,stim/6.png,2,1,61,2021-03-31_07h03.03.137,premup-three_ses-02_part-03_label-phase3,3.2.4,MacIntel,60
1,right,1.131999731,2,0.375999928,0,2,0.312999964,0,2,0.177000046,1,0,200,45,1,199,2,1,0.7,1,stim/objects/Instruments/cymbal4.png,stim/61.jpeg,6,stim/6.png,1,1,61,2021-03-31_07h03.03.137,premup-three_ses-02_part-03_label-phase3,3.2.4,MacIntel,60
1,left,1.492999792,4,0.786000013,0,4,1.044999838,0,1,0.350999832,1,0,200,35,1,199,2,2,0.7,1,stim/objects/HouseObjects/ashtray4.png,stim/53.jpeg,5,stim/5.png,3,3,61,2021-03-31_07h03.03.137,premup-three_ses-02_part-03_label-phase3,3.2.4,MacIntel,60
1,left,4.023000002,4,0.913999796,0,1,0.448999882,0,1,0.546000004,1,0,200,48,1,199,2,1,0.7,1,stim/objects/Instruments/laud4.png,stim/64.jpeg,6,stim/6.png,4,2,61,2021-03-31_07h03.03.137,premup-three_ses-02_part-03_label-phase3,3.2.4,MacIntel,60
1,right,1.708999872,,,0,,,0,,,1,0,200,108,1,199,0,1,0,2,stim/objects/Instruments/clarinet.png,,0,stim/0.png,0,0,61,2021-03-31_07h03.03.137,premup-three_ses-02_part-03_label-phase3,3.2.4,MacIntel,60
1,right,1.089999914,,,0,,,0,,,1,0,200,100,1,199,0,1,0,2,stim/objects/Instruments/accordion.png,,0,stim/0.png,0,0,61,2021-03-31_07h03.03.137,premup-three_ses-02_part-03_label-phase3,3.2.4,MacIntel,60
1,right,2.815999985,,,0,,,0,,,1,0,200,196,1,199,0,2,0,2,stim/objects/HouseObjects/clothespin2.png,,0,stim/0.png,0,0,61,2021-03-31_07h03.03.137,premup-three_ses-02_part-03_label-phase3,3.2.4,MacIntel,60
1,right,2.040999889,2,0.503999949,0,2,0.381000042,0,2,0.197999954,1,0,200,3,1,199,1,1,0.5,1,stim/objects/Instruments/record_player3.png,stim/32.jpeg,3,stim/3.png,2,1,61,2021-03-31_07h03.03.137,premup-three_ses-02_part-03_label-phase3,3.2.4,MacIntel,60
1,left,2.694999933,,,0,,,0,,,1,0,200,149,1,199,0,1,0,2,stim/objects/Instruments/trombone.png,,0,stim/0.png,0,0,61,2021-03-31_07h03.03.137,premup-three_ses-02_part-03_label-phase3,3.2.4,MacIntel,60
1,right,1.582999945,2,0.608999968,0,2,0.312999964,0,2,0.182999849,1,0,200,51,1,199,2,2,0.3,1,stim/objects/HouseObjects/bottle4.png,stim/63.jpeg,6,stim/6.png,3,2,61,2021-03-31_07h03.03.137,premup-three_ses-02_part-03_label-phase3,3.2.4,MacIntel,60
1,right,1.578000069,2,0.370000124,0,2,0.221999884,0,2,0.207000017,1,0,200,21,1,199,2,1,0.3,1,stim/objects/Instruments/tuba3.png,stim/52.jpeg,5,stim/5.png,2,4,61,2021-03-31_07h03.03.137,premup-three_ses-02_part-03_label-phase3,3.2.4,MacIntel,60
1,right,0.963999987,,,0,,,0,,,1,0,200,194,1,199,0,2,0,2,stim/objects/HouseObjects/clock2.png,,0,stim/0.png,0,0,61,2021-03-31_07h03.03.137,premup-three_ses-02_part-03_label-phase3,3.2.4,MacIntel,60
1,right,0.815000057,,,0,,,0,,,1,0,200,148,1,199,0,1,0,2,stim/objects/Instruments/triangle.png,,0,stim/0.png,0,0,61,2021-03-31_07h03.03.137,premup-three_ses-02_part-03_label-phase3,3.2.4,MacIntel,60
1,right,2.799999952,,,0,,,0,,,1,0,200,120,1,199,0,1,0,2,stim/objects/Instruments/cymbal.png,,0,stim/0.png,0,0,61,2021-03-31_07h03.03.137,premup-three_ses-02_part-03_label-phase3,3.2.4,MacIntel,60
1,right,0.512999773,,,0,,,0,,,1,0,200,164,1,199,0,1,0,2,stim/objects/Instruments/xylophone.png,,0,stim/0.png,0,0,61,2021-03-31_07h03.03.137,premup-three_ses-02_part-03_label-phase3,3.2.4,MacIntel,60
1,right,0.613999844,,,0,,,0,,,1,0,200,184,1,199,0,1,0,2,stim/objects/Instruments/cornet2.png,,0,stim/0.png,0,0,61,2021-03-31_07h03.03.137,premup-three_ses-02_part-03_label-phase3,3.2.4,MacIntel,60
1,right,2.151000023,2,0.638999939,0,2,0.282999992,0,2,0.196999788,1,0,200,57,1,199,2,2,0.3,1,stim/objects/HouseObjects/iron4.png,stim/61.jpeg,6,stim/6.png,1,1,61,2021-03-31_07h03.03.137,premup-three_ses-02_part-03_label-phase3,3.2.4,MacIntel,60
1,right,0.947000027,,,0,,,0,,,1,0,200,146,1,199,0,1,0,2,stim/objects/Instruments/tambourine.png,,0,stim/0.png,0,0,61,2021-03-31_07h03.03.137,premup-three_ses-02_part-03_label-phase3,3.2.4,MacIntel,60
1,right,0.648999929,2,0.552999973,0,2,0.230000019,0,2,0.180000067,1,0,200,41,1,199,2,1,0.7,1,stim/objects/Instruments/cello4.png,stim/61.jpeg,6,stim/6.png,1,4,61,2021-03-31_07h03.03.137,premup-three_ses-02_part-03_label-phase3,3.2.4,MacIntel,60
1,right,0.941999912,2,0.471999884,0,2,0.351999998,0,2,0.250999928,1,0,200,34,1,199,2,2,0.7,1,stim/objects/HouseObjects/wateringcan3.png,stim/52.jpeg,5,stim/5.png,2,4,61,2021-03-31_07h03.03.137,premup-three_ses-02_part-03_label-phase3,3.2.4,MacIntel,60
1,left,1.190000057,,,0,,,0,,,1,0,200,168,1,199,0,1,0,2,stim/objects/Instruments/banjo2.png,,0,stim/0.png,0,0,61,2021-03-31_07h03.03.137,premup-three_ses-02_part-03_label-phase3,3.2.4,MacIntel,60
1,left,0.40899992,2,1.868999958,0,2,0.243999958,0,2,0.164999962,1,0,200,88,1,199,3,1,0.9,1,stim/objects/Instruments/vuvuzela4.png,stim/21.jpeg,2,stim/2.png,1,2,61,2021-03-31_07h03.03.137,premup-three_ses-02_part-03_label-phase3,3.2.4,MacIntel,60
1,right,1.152999878,,,0,,,0,,,1,0,200,179,1,199,0,2,0,2,stim/objects/HouseObjects/bleachbottle2.png,,0,stim/0.png,0,0,61,2021-03-31_07h03.03.137,premup-three_ses-02_part-03_label-phase3,3.2.4,MacIntel,60
1,right,0.979000092,2,1.075999975,0,2,0.430000067,0,2,0.180999756,1,0,200,17,1,199,1,2,0.5,1,stim/objects/HouseObjects/sponge3.png,stim/42.jpeg,4,stim/4.png,2,2,61,2021-03-31_07h03.03.137,premup-three_ses-02_part-03_label-phase3,3.2.4,MacIntel,60
1,right,0.732999802,,,0,,,0,,,1,0,200,174,1,199,0,2,0,2,stim/objects/HouseObjects/wateringcan.png,,0,stim/0.png,0,0,61,2021-03-31_07h03.03.137,premup-three_ses-02_part-03_label-phase3,3.2.4,MacIntel,60
1,right,2.383999825,,,0,,,0,,,1,0,200,188,1,199,0,1,0,2,stim/objects/Instruments/laud2.png,,0,stim/0.png,0,0,61,2021-03-31_07h03.03.137,premup-three_ses-02_part-03_label-phase3,3.2.4,MacIntel,60
1,right,1.024999857,2,0.970999956,0,2,0.315999985,0,2,0.220999718,1,0,200,85,1,199,3,1,0.9,1,stim/objects/Instruments/trumpet4.png,stim/22.jpeg,2,stim/2.png,2,4,61,2021-03-31_07h03.03.137,premup-three_ses-02_part-03_label-phase3,3.2.4,MacIntel,60
1,right,0.994999886,3,0.865999937,0,3,0.409999847,0,3,0.203999758,1,0,200,55,1,199,2,2,0.3,1,stim/objects/HouseObjects/clothesdryingrack4.png,stim/63.jpeg,6,stim/6.png,3,3,61,2021-03-31_07h03.03.137,premup-three_ses-02_part-03_label-phase3,3.2.4,MacIntel,60
1,right,1.562000036,3,1.750999928,0,3,0.413999796,0,3,0.162999868,1,0,200,49,1,199,2,1,0.7,1,stim/objects/Instruments/maraca4.png,stim/61.jpeg,6,stim/6.png,1,4,61,2021-03-31_07h03.03.137,premup-three_ses-02_part-03_label-phase3,3.2.4,MacIntel,60
1,left,3.440999985,,,0,,,0,,,1,0,200,170,1,199,0,2,0,2,stim/objects/HouseObjects/thermometer.png,,0,stim/0.png,0,0,61,2021-03-31_07h03.03.137,premup-three_ses-02_part-03_label-phase3,3.2.4,MacIntel,60
1,left,2.062000036,,,0,,,0,,,1,0,200,107,1,199,0,1,0,2,stim/objects/Instruments/chime.png,,0,stim/0.png,0,0,61,2021-03-31_07h03.03.137,premup-three_ses-02_part-03_label-phase3,3.2.4,MacIntel,60
1,left,3.641999722,,,0,,,0,,,1,0,200,131,1,199,0,2,0,2,stim/objects/HouseObjects/clothespin.png,,0,stim/0.png,0,0,61,2021-03-31_07h03.03.137,premup-three_ses-02_part-03_label-phase3,3.2.4,MacIntel,60
1,right,1.048000097,2,0.770999908,0,2,0.277999878,0,2,0.181999922,1,0,200,95,1,199,3,2,0.1,1,stim/objects/HouseObjects/thermometer4.png,stim/24.jpeg,2,stim/2.png,4,1,61,2021-03-31_07h03.03.137,premup-three_ses-02_part-03_label-phase3,3.2.4,MacIntel,60
1,right,1.031999826,2,0.805999994,0,2,0.28399992,0,2,0.215999842,1,0,200,62,1,199,3,1,0.1,1,stim/objects/Instruments/musicsheet4.png,stim/13.jpeg,1,stim/1.png,3,1,61,2021-03-31_07h03.03.137,premup-three_ses-02_part-03_label-phase3,3.2.4,MacIntel,60
1,left,2.048000097,4,0.750999928,0,3,0.802000046,0,3,0.246000051,1,0,200,80,1,199,3,1,0.9,1,stim/objects/Instruments/speaker4.png,stim/21.jpeg,2,stim/2.png,1,2,61,2021-03-31_07h03.03.137,premup-three_ses-02_part-03_label-phase3,3.2.4,MacIntel,60
1,left,4.572999954,2,1.553999901,0,3,1.303999901,0,4,0.557999849,1,0,200,24,1,199,2,1,0.3,1,stim/objects/Instruments/xylophone3.png,stim/51.jpeg,5,stim/5.png,1,1,61,2021-03-31_07h03.03.137,premup-three_ses-02_part-03_label-phase3,3.2.4,MacIntel,60
1,left,2.819999933,3,1.152999878,0,3,0.428999901,0,3,0.235999823,1,0,200,79,1,199,3,2,0.9,1,stim/objects/HouseObjects/safetypin4.png,stim/14.jpeg,1,stim/1.png,4,1,61,2021-03-31_07h03.03.137,premup-three_ses-02_part-03_label-phase3,3.2.4,MacIntel,60
1,right,1.378000021,2,0.936000109,0,2,0.430999994,0,2,0.195999861,1,0,200,66,1,199,3,1,0.1,1,stim/objects/Instruments/pipepiano4.png,stim/13.jpeg,1,stim/1.png,3,3,61,2021-03-31_07h03.03.137,premup-three_ses-02_part-03_label-phase3,3.2.4,MacIntel,60
1,left,1.64199996,3,1.24000001,0,3,0.450000048,0,3,0.180999994,1,0,200,68,1,199,3,1,0.1,1,stim/objects/Instruments/record_player4.png,stim/11.jpeg,1,stim/1.png,1,1,61,2021-03-31_07h03.03.137,premup-three_ses-02_part-03_label-phase3,3.2.4,MacIntel,60
1,left,1.695999861,,,0,,,0,,,1,0,200,162,1,199,0,1,0,2,stim/objects/Instruments/violin.png,,0,stim/0.png,0,0,61,2021-03-31_07h03.03.137,premup-three_ses-02_part-03_label-phase3,3.2.4,MacIntel,60
1,left,1.590999842,,,0,,,0,,,1,0,200,142,1,199,0,1,0,2,stim/objects/Instruments/record.png,,0,stim/0.png,0,0,61,2021-03-31_07h03.03.137,premup-three_ses-02_part-03_label-phase3,3.2.4,MacIntel,60
1,left,0.861000061,2,0.713999748,0,2,0.280999899,0,2,0.187999964,1,0,200,69,1,199,3,1,0.1,1,stim/objects/Instruments/saxophone4.png,stim/12.jpeg,1,stim/1.png,2,4,61,2021-03-31_07h03.03.137,premup-three_ses-02_part-03_label-phase3,3.2.4,MacIntel,60
1,right,1.746999979,3,0.670000076,0,2,0.40199995,0,2,0.246000051,1,0,200,32,1,199,2,2,0.7,1,stim/objects/HouseObjects/towel3.png,stim/54.jpeg,5,stim/5.png,4,2,61,2021-03-31_07h03.03.137,premup-three_ses-02_part-03_label-phase3,3.2.4,MacIntel,60
1,right,1.428999901,1,3.069999933,0,2,0.61500001,0,2,0.297999859,1,0,200,83,1,199,3,1,0.9,1,stim/objects/Instruments/triangle4.png,stim/24.jpeg,2,stim/2.png,4,3,61,2021-03-31_07h03.03.137,premup-three_ses-02_part-03_label-phase3,3.2.4,MacIntel,60
1,right,2.830999851,,,0,,,0,,,1,0,200,104,1,199,0,1,0,2,stim/objects/Instruments/bassdrum.png,,0,stim/0.png,0,0,61,2021-03-31_07h03.03.137,premup-three_ses-02_part-03_label-phase3,3.2.4,MacIntel,60
1,right,1.851999998,2,1.191999912,0,2,0.286000013,0,2,0.215999842,1,0,200,6,1,199,1,1,0.5,1,stim/objects/HouseObjects/remote3.png,stim/33.jpeg,3,stim/3.png,3,2,61,2021-03-31_07h03.03.137,premup-three_ses-02_part-03_label-phase3,3.2.4,MacIntel,60
1,right,2.747999907,2,2.01699996,0,2,0.19900012,0,2,0.503000021,1,0,200,84,1,199,3,1,0.9,1,stim/objects/Instruments/trombone4.png,stim/21.jpeg,2,stim/2.png,1,2,61,2021-03-31_07h03.03.137,premup-three_ses-02_part-03_label-phase3,3.2.4,MacIntel,60
1,right,1.325000048,2,0.585999966,0,2,0.3349998,0,2,0.388000011,1,0,200,81,1,199,3,1,0.9,1,stim/objects/Instruments/tambourine4.png,stim/22.jpeg,2,stim/2.png,2,2,61,2021-03-31_07h03.03.137,premup-three_ses-02_part-03_label-phase3,3.2.4,MacIntel,60
1,right,1.712999821,2,0.333999872,0,2,0.184000015,0,2,0.580999851,1,0,200,99,1,199,3,2,0.1,1,stim/objects/HouseObjects/wateringcan4.png,stim/24.jpeg,2,stim/2.png,4,4,61,2021-03-31_07h03.03.137,premup-three_ses-02_part-03_label-phase3,3.2.4,MacIntel,60
1,left,1.260999918,,,0,,,0,,,1,0,200,163,1,199,0,1,0,2,stim/objects/Instruments/vuvuzela.png,,0,stim/0.png,0,0,61,2021-03-31_07h03.03.137,premup-three_ses-02_part-03_label-phase3,3.2.4,MacIntel,60
1,left,0.710999966,2,0.565000057,0,2,0.269999981,0,2,0.188999891,1,0,200,4,1,199,1,1,0.5,1,stim/objects/Instruments/saxophone3.png,stim/33.jpeg,3,stim/3.png,3,3,61,2021-03-31_07h03.03.137,premup-three_ses-02_part-03_label-phase3,3.2.4,MacIntel,60
1,right,1.17599988,2,0.865999937,0,2,0.644000053,0,2,0.146999836,1,0,200,2,1,199,1,1,0.5,1,stim/objects/Instruments/record3.png,stim/31.jpeg,3,stim/3.png,1,4,61,2021-03-31_07h03.03.137,premup-three_ses-02_part-03_label-phase3,3.2.4,MacIntel,60
1,right,0.910999775,,,0,,,0,,,1,0,200,177,1,199,0,2,0,2,stim/objects/HouseObjects/barbecuelighter2.png,,0,stim/0.png,0,0,61,2021-03-31_07h03.03.137,premup-three_ses-02_part-03_label-phase3,3.2.4,MacIntel,60
1,right,0.67599988,2,0.746999979,0,2,0.230000019,0,2,0.174000025,1,0,200,93,1,199,3,2,0.1,1,stim/objects/HouseObjects/spraybottle4.png,stim/22.jpeg,2,stim/2.png,2,1,61,2021-03-31_07h03.03.137,premup-three_ses-02_part-03_label-phase3,3.2.4,MacIntel,60
1,left,1.279999971,,,0,,,0,,,1,0,200,132,1,199,0,2,0,2,stim/objects/HouseObjects/iron.png,,0,stim/0.png,0,0,61,2021-03-31_07h03.03.137,premup-three_ses-02_part-03_label-phase3,3.2.4,MacIntel,60
1,left,0.880999804,2,0.549999952,0,2,0.376999855,0,2,0.181999922,1,0,200,36,1,199,2,2,0.7,1,stim/objects/HouseObjects/ballofstring4.png,stim/54.jpeg,5,stim/5.png,4,3,61,2021-03-31_07h03.03.137,premup-three_ses-02_part-03_label-phase3,3.2.4,MacIntel,60
1,right,0.945999861,,,0,,,0,,,1,0,200,135,1,199,0,2,0,2,stim/objects/HouseObjects/knife.png,,0,stim/0.png,0,0,61,2021-03-31_07h03.03.137,premup-three_ses-02_part-03_label-phase3,3.2.4,MacIntel,60
1,left,1.509000063,2,0.43599987,0,2,0.329999924,0,2,0.147000074,1,0,200,29,1,199,2,1,0.3,1,stim/objects/Instruments/bassdrum4.png,stim/52.jpeg,5,stim/5.png,2,2,61,2021-03-31_07h03.03.137,premup-three_ses-02_part-03_label-phase3,3.2.4,MacIntel,60
1,right,1.190999746,2,0.652999878,0,2,0.296000004,0,2,0.403999805,1,0,200,71,1,199,3,2,0.9,1,stim/objects/HouseObjects/lintroller4.png,stim/14.jpeg,1,stim/1.png,4,4,61,2021-03-31_07h03.03.137,premup-three_ses-02_part-03_label-phase3,3.2.4,MacIntel,60
1,right,0.823999882,,,0,,,0,,,1,0,200,197,1,199,0,2,0,2,stim/objects/HouseObjects/iron2.png,,0,stim/0.png,0,0,61,2021-03-31_07h03.03.137,premup-three_ses-02_part-03_label-phase3,3.2.4,MacIntel,60
1,right,1.005999804,2,0.842000008,0,2,0.245999813,0,2,0.367000103,1,0,200,31,1,199,2,2,0.7,1,stim/objects/HouseObjects/thread3.png,stim/53.jpeg,5,stim/5.png,3,1,61,2021-03-31_07h03.03.137,premup-three_ses-02_part-03_label-phase3,3.2.4,MacIntel,60
1,right,0.760999918,,,0,,,0,,,1,0,200,118,1,199,0,2,0,2,stim/objects/HouseObjects/bucket.png,,0,stim/0.png,0,0,61,2021-03-31_07h03.03.137,premup-three_ses-02_part-03_label-phase3,3.2.4,MacIntel,60
1,right,0.488999844,,,0,,,0,,,1,0,200,116,1,199,0,2,0,2,stim/objects/HouseObjects/bottle.png,,0,stim/0.png,0,0,61,2021-03-31_07h03.03.137,premup-three_ses-02_part-03_label-phase3,3.2.4,MacIntel,60
