key_resp_trial.keys,key_resp_trial.rt,trial_acc,trial_index,iterations.thisRepN,iterations.thisTrialN,iterations.thisN,iterations.thisIndex,iterations.ran,iterations.order,task_innerloop.thisRepN,task_innerloop.thisTrialN,task_innerloop.thisN,task_innerloop.thisIndex,task_innerloop.ran,task_innerloop.order,scn_condition,scn_cat,scn_inst,scn_file,obj_cat,obj_cat_num,obj_file,trial_cond,quadrant,obj_x,obj_y,corr_ans,participant,date,expName,psychopyVersion,OS,frameRate,slider.response,slider.rt,slider_2.response,slider_2.rt,ratings.thisRepN,ratings.thisTrialN,ratings.thisN,ratings.thisIndex,ratings.ran,ratings.order,obj_cat_top,min_resp_top,max_resp_top,obj_cat_bottom,min_resp_bottom,max_resp_bottom,enc_trials.thisRepN,enc_trials.thisTrialN,enc_trials.thisN,enc_trials.thisIndex,enc_trials.ran,enc_trials.order,fillers,ratings_final.thisRepN,ratings_final.thisTrialN,ratings_final.thisN,ratings_final.thisIndex,ratings_final.ran,ratings_final.order
,,0,1,1,0,1,0,1,0,1,0,240,221,1,239,3,2,2,stim/22.jpeg,Instruments,1,stim/objects/Instruments/harmonica2.png,0.9,2,0.2,0.15,left,61,2021-03-30_07h05.47.748,premup-three_ses-02_part-02_label-phase2,3.2.4,MacIntel,60,,,,,,,,,,,,,,,,,,,,,,,,,,,,,
right,0.821000338,1,2,1,0,1,0,1,0,1,0,240,158,1,239,2,6,3,stim/63.jpeg,HouseObjects,2,stim/objects/HouseObjects/dishsoap2.png,0.3,4,0.2,-0.15,right,61,2021-03-30_07h05.47.748,premup-three_ses-02_part-02_label-phase2,3.2.4,MacIntel,60,,,,,,,,,,,,,,,,,,,,,,,,,,,,,
,,0,3,1,0,1,0,1,0,1,0,240,98,1,239,2,5,3,stim/53.jpeg,HouseObjects,2,stim/objects/HouseObjects/handbrush.png,0.7,2,0.2,0.15,right,61,2021-03-30_07h05.47.748,premup-three_ses-02_part-02_label-phase2,3.2.4,MacIntel,60,,,,,,,,,,,,,,,,,,,,,,,,,,,,,
right,0.501000166,0,4,1,0,1,0,1,0,1,0,240,205,1,239,3,2,2,stim/22.jpeg,Instruments,1,stim/objects/Instruments/harmonica2.png,0.9,2,0.2,0.15,left,61,2021-03-30_07h05.47.748,premup-three_ses-02_part-02_label-phase2,3.2.4,MacIntel,60,,,,,,,,,,,,,,,,,,,,,,,,,,,,,
left,0.244000196,0,5,1,0,1,0,1,0,1,0,240,113,1,239,2,5,2,stim/52.jpeg,HouseObjects,2,stim/objects/HouseObjects/hairdryer.png,0.7,3,-0.2,-0.15,right,61,2021-03-30_07h05.47.748,premup-three_ses-02_part-02_label-phase2,3.2.4,MacIntel,60,,,,,,,,,,,,,,,,,,,,,,,,,,,,,
left,0.64800024,0,6,1,0,1,0,1,0,1,0,240,239,1,239,3,2,4,stim/24.jpeg,HouseObjects,2,stim/objects/HouseObjects/handvacuum2.png,0.1,3,-0.2,-0.15,right,61,2021-03-30_07h05.47.748,premup-three_ses-02_part-02_label-phase2,3.2.4,MacIntel,60,,,,,,,,,,,,,,,,,,,,,,,,,,,,,
right,0.828000069,1,7,1,0,1,0,1,0,1,0,240,172,1,239,3,1,1,stim/11.jpeg,HouseObjects,2,stim/objects/HouseObjects/dustpan2.png,0.9,2,0.2,0.15,right,61,2021-03-30_07h05.47.748,premup-three_ses-02_part-02_label-phase2,3.2.4,MacIntel,60,,,,,,,,,,,,,,,,,,,,,,,,,,,,,
left,0.632000208,0,8,1,0,1,0,1,0,1,0,240,151,1,239,2,6,4,stim/64.jpeg,HouseObjects,2,stim/objects/HouseObjects/doormat2.png,0.3,4,0.2,-0.15,right,61,2021-03-30_07h05.47.748,premup-three_ses-02_part-02_label-phase2,3.2.4,MacIntel,60,,,,,,,,,,,,,,,,,,,,,,,,,,,,,
,,0,9,1,0,1,0,1,0,1,0,240,0,1,239,1,3,1,stim/31.jpeg,Instruments,1,stim/objects/Instruments/drums.png,0.5,2,0.2,0.15,left,61,2021-03-30_07h05.47.748,premup-three_ses-02_part-02_label-phase2,3.2.4,MacIntel,60,,,,,,,,,,,,,,,,,,,,,,,,,,,,,
left,0.511000156,1,10,1,0,1,0,1,0,1,0,240,7,1,239,1,3,4,stim/34.jpeg,Instruments,1,stim/objects/Instruments/flute.png,0.5,3,-0.2,-0.15,left,61,2021-03-30_07h05.47.748,premup-three_ses-02_part-02_label-phase2,3.2.4,MacIntel,60,,,,,,,,,,,,,,,,,,,,,,,,,,,,,
left,0.545000076,1,11,1,0,1,0,1,0,1,0,240,11,1,239,1,3,4,stim/34.jpeg,Instruments,1,stim/objects/Instruments/flute.png,0.5,2,0.2,0.15,left,61,2021-03-30_07h05.47.748,premup-three_ses-02_part-02_label-phase2,3.2.4,MacIntel,60,,,,,,,,,,,,,,,,,,,,,,,,,,,,,
right,0.628000259,0,12,1,0,1,0,1,0,1,0,240,41,1,239,1,4,2,stim/42.jpeg,Instruments,1,stim/objects/Instruments/frenchhorn.png,0.5,2,0.2,0.15,left,61,2021-03-30_07h05.47.748,premup-three_ses-02_part-02_label-phase2,3.2.4,MacIntel,60,,,,,,,,,,,,,,,,,,,,,,,,,,,,,
left,0.342000008,0,13,1,0,1,0,1,0,1,0,240,34,1,239,1,3,3,stim/33.jpeg,HouseObjects,2,stim/objects/HouseObjects/dishsoap.png,0.5,4,0.2,-0.15,right,61,2021-03-30_07h05.47.748,premup-three_ses-02_part-02_label-phase2,3.2.4,MacIntel,60,,,,,,,,,,,,,,,,,,,,,,,,,,,,,
right,0.470000029,0,14,1,0,1,0,1,0,1,0,240,15,1,239,1,3,4,stim/34.jpeg,Instruments,1,stim/objects/Instruments/flute.png,0.5,3,-0.2,-0.15,left,61,2021-03-30_07h05.47.748,premup-three_ses-02_part-02_label-phase2,3.2.4,MacIntel,60,,,,,,,,,,,,,,,,,,,,,,,,,,,,,
left,0.077000141,0,15,1,0,1,0,1,0,1,0,240,156,1,239,2,6,1,stim/61.jpeg,HouseObjects,2,stim/objects/HouseObjects/coffee2.png,0.3,3,-0.2,-0.15,right,61,2021-03-30_07h05.47.748,premup-three_ses-02_part-02_label-phase2,3.2.4,MacIntel,60,,,,,,,,,,,,,,,,,,,,,,,,,,,,,
right,0.799000263,1,16,1,0,1,0,1,0,1,0,240,184,1,239,3,1,1,stim/11.jpeg,HouseObjects,2,stim/objects/HouseObjects/dustpan2.png,0.9,1,-0.2,0.15,right,61,2021-03-30_07h05.47.748,premup-three_ses-02_part-02_label-phase2,3.2.4,MacIntel,60,,,,,,,,,,,,,,,,,,,,,,,,,,,,,
,,0,17,1,0,1,0,1,0,1,0,240,187,1,239,3,1,4,stim/14.jpeg,HouseObjects,2,stim/objects/HouseObjects/glass2.png,0.9,4,0.2,-0.15,right,61,2021-03-30_07h05.47.748,premup-three_ses-02_part-02_label-phase2,3.2.4,MacIntel,60,,,,,,,,,,,,,,,,,,,,,,,,,,,,,
right,0.375000238,0,18,1,0,1,0,1,0,1,0,240,1,1,239,1,3,2,stim/32.jpeg,Instruments,1,stim/objects/Instruments/electricdrumset.png,0.5,4,0.2,-0.15,left,61,2021-03-30_07h05.47.748,premup-three_ses-02_part-02_label-phase2,3.2.4,MacIntel,60,,,,,,,,,,,,,,,,,,,,,,,,,,,,,
left,0.636000156,1,19,1,0,1,0,1,0,1,0,240,123,1,239,2,6,4,stim/64.jpeg,Instruments,1,stim/objects/Instruments/flute2.png,0.7,3,-0.2,-0.15,left,61,2021-03-30_07h05.47.748,premup-three_ses-02_part-02_label-phase2,3.2.4,MacIntel,60,,,,,,,,,,,,,,,,,,,,,,,,,,,,,
,,0,20,1,0,1,0,1,0,1,0,240,52,1,239,1,4,1,stim/41.jpeg,Instruments,1,stim/objects/Instruments/flutetrans.png,0.5,2,0.2,0.15,left,61,2021-03-30_07h05.47.748,premup-three_ses-02_part-02_label-phase2,3.2.4,MacIntel,60,,,,,,,,,,,,,,,,,,,,,,,,,,,,,
,,0,21,1,0,1,0,1,0,1,0,240,210,1,239,3,2,3,stim/23.jpeg,Instruments,1,stim/objects/Instruments/harp2.png,0.9,4,0.2,-0.15,left,61,2021-03-30_07h05.47.748,premup-three_ses-02_part-02_label-phase2,3.2.4,MacIntel,60,,,,,,,,,,,,,,,,,,,,,,,,,,,,,
right,0.111000061,0,22,1,0,1,0,1,0,1,0,240,137,1,239,2,6,2,stim/62.jpeg,Instruments,1,stim/objects/Instruments/electricdrumset2.png,0.7,2,0.2,0.15,left,61,2021-03-30_07h05.47.748,premup-three_ses-02_part-02_label-phase2,3.2.4,MacIntel,60,,,,,,,,,,,,,,,,,,,,,,,,,,,,,
right,0.196000099,0,23,1,0,1,0,1,0,1,0,240,44,1,239,1,4,1,stim/41.jpeg,Instruments,1,stim/objects/Instruments/flutetrans.png,0.5,1,-0.2,0.15,left,61,2021-03-30_07h05.47.748,premup-three_ses-02_part-02_label-phase2,3.2.4,MacIntel,60,,,,,,,,,,,,,,,,,,,,,,,,,,,,,
left,0.511000156,0,24,1,0,1,0,1,0,1,0,240,183,1,239,3,1,4,stim/14.jpeg,HouseObjects,2,stim/objects/HouseObjects/glass2.png,0.9,1,-0.2,0.15,right,61,2021-03-30_07h05.47.748,premup-three_ses-02_part-02_label-phase2,3.2.4,MacIntel,60,,,,,,,,,,,,,,,,,,,,,,,,,,,,,
right,0.646000147,0,25,1,0,1,0,1,0,1,0,240,230,1,239,3,2,3,stim/23.jpeg,Instruments,1,stim/objects/Instruments/harp2.png,0.9,4,0.2,-0.15,left,61,2021-03-30_07h05.47.748,premup-three_ses-02_part-02_label-phase2,3.2.4,MacIntel,60,,,,,,,,,,,,,,,,,,,,,,,,,,,,,
right,0.386000156,0,26,1,0,1,0,1,0,1,0,240,207,1,239,3,2,4,stim/24.jpeg,Instruments,1,stim/objects/Instruments/hihat2.png,0.9,4,0.2,-0.15,left,61,2021-03-30_07h05.47.748,premup-three_ses-02_part-02_label-phase2,3.2.4,MacIntel,60,,,,,,,,,,,,,,,,,,,,,,,,,,,,,
right,0.284000158,0,27,1,0,1,0,1,0,1,0,240,146,1,239,2,6,3,stim/63.jpeg,Instruments,1,stim/objects/Instruments/electricguitar2.png,0.7,4,0.2,-0.15,left,61,2021-03-30_07h05.47.748,premup-three_ses-02_part-02_label-phase2,3.2.4,MacIntel,60,,,,,,,,,,,,,,,,,,,,,,,,,,,,,
right,0.311000109,0,28,1,0,1,0,1,0,1,0,240,134,1,239,2,6,3,stim/63.jpeg,Instruments,1,stim/objects/Instruments/electricguitar2.png,0.7,2,0.2,0.15,left,61,2021-03-30_07h05.47.748,premup-three_ses-02_part-02_label-phase2,3.2.4,MacIntel,60,,,,,,,,,,,,,,,,,,,,,,,,,,,,,
,,0,29,1,0,1,0,1,0,1,0,240,153,1,239,2,6,2,stim/62.jpeg,HouseObjects,2,stim/objects/HouseObjects/cushion2.png,0.3,2,0.2,0.15,right,61,2021-03-30_07h05.47.748,premup-three_ses-02_part-02_label-phase2,3.2.4,MacIntel,60,,,,,,,,,,,,,,,,,,,,,,,,,,,,,
left,0.401000023,1,30,1,0,1,0,1,0,1,0,240,208,1,239,3,2,1,stim/21.jpeg,Instruments,1,stim/objects/Instruments/guitarcase2.png,0.9,1,-0.2,0.15,left,61,2021-03-30_07h05.47.748,premup-three_ses-02_part-02_label-phase2,3.2.4,MacIntel,60,,,,,,,,,,,,,,,,,,,,,,,,,,,,,
left,0.717000008,1,31,1,0,1,0,1,0,1,0,240,225,1,239,3,2,2,stim/22.jpeg,Instruments,1,stim/objects/Instruments/harmonica2.png,0.9,4,0.2,-0.15,left,61,2021-03-30_07h05.47.748,premup-three_ses-02_part-02_label-phase2,3.2.4,MacIntel,60,,,,,,,,,,,,,,,,,,,,,,,,,,,,,
right,0.633000135,1,32,1,0,1,0,1,0,1,0,240,181,1,239,3,1,2,stim/12.jpeg,HouseObjects,2,stim/objects/HouseObjects/flyswatter2.png,0.9,4,0.2,-0.15,right,61,2021-03-30_07h05.47.748,premup-three_ses-02_part-02_label-phase2,3.2.4,MacIntel,60,,,,,,,,,,,,,,,,,,,,,,,,,,,,,
right,0.486000061,1,33,1,0,1,0,1,0,1,0,240,61,1,239,1,4,2,stim/42.jpeg,HouseObjects,2,stim/objects/HouseObjects/flyswatter.png,0.5,2,0.2,0.15,right,61,2021-03-30_07h05.47.748,premup-three_ses-02_part-02_label-phase2,3.2.4,MacIntel,60,,,,,,,,,,,,,,,,,,,,,,,,,,,,,
left,0.570000172,0,34,1,0,1,0,1,0,1,0,240,236,1,239,3,2,1,stim/21.jpeg,HouseObjects,2,stim/objects/HouseObjects/glassmop2.png,0.1,3,-0.2,-0.15,right,61,2021-03-30_07h05.47.748,premup-three_ses-02_part-02_label-phase2,3.2.4,MacIntel,60,,,,,,,,,,,,,,,,,,,,,,,,,,,,,
right,0.370000124,1,35,1,0,1,0,1,0,1,0,240,159,1,239,2,6,4,stim/64.jpeg,HouseObjects,2,stim/objects/HouseObjects/doormat2.png,0.3,2,0.2,0.15,right,61,2021-03-30_07h05.47.748,premup-three_ses-02_part-02_label-phase2,3.2.4,MacIntel,60,,,,,,,,,,,,,,,,,,,,,,,,,,,,,
right,0.251000166,1,36,1,0,1,0,1,0,1,0,240,155,1,239,2,6,4,stim/64.jpeg,HouseObjects,2,stim/objects/HouseObjects/doormat2.png,0.3,1,-0.2,0.15,right,61,2021-03-30_07h05.47.748,premup-three_ses-02_part-02_label-phase2,3.2.4,MacIntel,60,,,,,,,,,,,,,,,,,,,,,,,,,,,,,
left,0.549000025,1,37,1,0,1,0,1,0,1,0,240,125,1,239,2,6,2,stim/62.jpeg,Instruments,1,stim/objects/Instruments/electricdrumset2.png,0.7,3,-0.2,-0.15,left,61,2021-03-30_07h05.47.748,premup-three_ses-02_part-02_label-phase2,3.2.4,MacIntel,60,,,,,,,,,,,,,,,,,,,,,,,,,,,,,
left,0.448000193,1,38,1,0,1,0,1,0,1,0,240,48,1,239,1,4,1,stim/41.jpeg,Instruments,1,stim/objects/Instruments/flutetrans.png,0.5,4,0.2,-0.15,left,61,2021-03-30_07h05.47.748,premup-three_ses-02_part-02_label-phase2,3.2.4,MacIntel,60,,,,,,,,,,,,,,,,,,,,,,,,,,,,,
right,0.424000263,1,39,1,0,1,0,1,0,1,0,240,197,1,239,3,1,2,stim/12.jpeg,HouseObjects,2,stim/objects/HouseObjects/flyswatter2.png,0.9,2,0.2,0.15,right,61,2021-03-30_07h05.47.748,premup-three_ses-02_part-02_label-phase2,3.2.4,MacIntel,60,,,,,,,,,,,,,,,,,,,,,,,,,,,,,
left,0.528000355,0,40,1,0,1,0,1,0,1,0,240,38,1,239,1,3,3,stim/33.jpeg,HouseObjects,2,stim/objects/HouseObjects/dishsoap.png,0.5,3,-0.2,-0.15,right,61,2021-03-30_07h05.47.748,premup-three_ses-02_part-02_label-phase2,3.2.4,MacIntel,60,,,,,,,,,,,,,,,,,,,,,,,,,,,,,
right,0.818000078,1,41,1,0,1,0,1,0,1,0,240,114,1,239,2,5,3,stim/53.jpeg,HouseObjects,2,stim/objects/HouseObjects/handbrush.png,0.7,3,-0.2,-0.15,right,61,2021-03-30_07h05.47.748,premup-three_ses-02_part-02_label-phase2,3.2.4,MacIntel,60,,,,,,,,,,,,,,,,,,,,,,,,,,,,,
left,0.637000084,1,42,1,0,1,0,1,0,1,0,240,129,1,239,2,6,2,stim/62.jpeg,Instruments,1,stim/objects/Instruments/electricdrumset2.png,0.7,3,-0.2,-0.15,left,61,2021-03-30_07h05.47.748,premup-three_ses-02_part-02_label-phase2,3.2.4,MacIntel,60,,,,,,,,,,,,,,,,,,,,,,,,,,,,,
left,0.644000292,1,43,1,0,1,0,1,0,1,0,240,200,1,239,3,2,1,stim/21.jpeg,Instruments,1,stim/objects/Instruments/guitarcase2.png,0.9,1,-0.2,0.15,left,61,2021-03-30_07h05.47.748,premup-three_ses-02_part-02_label-phase2,3.2.4,MacIntel,60,,,,,,,,,,,,,,,,,,,,,,,,,,,,,
left,0.538000107,0,44,1,0,1,0,1,0,1,0,240,29,1,239,1,3,2,stim/32.jpeg,HouseObjects,2,stim/objects/HouseObjects/cushion.png,0.5,1,-0.2,0.15,right,61,2021-03-30_07h05.47.748,premup-three_ses-02_part-02_label-phase2,3.2.4,MacIntel,60,,,,,,,,,,,,,,,,,,,,,,,,,,,,,
left,0.130000114,1,45,1,0,1,0,1,0,1,0,240,147,1,239,2,6,4,stim/64.jpeg,Instruments,1,stim/objects/Instruments/flute2.png,0.7,4,0.2,-0.15,left,61,2021-03-30_07h05.47.748,premup-three_ses-02_part-02_label-phase2,3.2.4,MacIntel,60,,,,,,,,,,,,,,,,,,,,,,,,,,,,,
right,0.478000164,1,46,1,0,1,0,1,0,1,0,240,108,1,239,2,5,1,stim/51.jpeg,HouseObjects,2,stim/objects/HouseObjects/glassmop.png,0.7,2,0.2,0.15,right,61,2021-03-30_07h05.47.748,premup-three_ses-02_part-02_label-phase2,3.2.4,MacIntel,60,,,,,,,,,,,,,,,,,,,,,,,,,,,,,
right,0.578000069,1,47,1,0,1,0,1,0,1,0,240,117,1,239,2,5,2,stim/52.jpeg,HouseObjects,2,stim/objects/HouseObjects/hairdryer.png,0.7,3,-0.2,-0.15,right,61,2021-03-30_07h05.47.748,premup-three_ses-02_part-02_label-phase2,3.2.4,MacIntel,60,,,,,,,,,,,,,,,,,,,,,,,,,,,,,
left,0.579000235,1,48,1,0,1,0,1,0,1,0,240,122,1,239,2,6,3,stim/63.jpeg,Instruments,1,stim/objects/Instruments/electricguitar2.png,0.7,3,-0.2,-0.15,left,61,2021-03-30_07h05.47.748,premup-three_ses-02_part-02_label-phase2,3.2.4,MacIntel,60,,,,,,,,,,,,,,,,,,,,,,,,,,,,,
left,0.671000004,1,49,1,0,1,0,1,0,1,0,240,229,1,239,3,2,2,stim/22.jpeg,Instruments,1,stim/objects/Instruments/harmonica2.png,0.9,3,-0.2,-0.15,left,61,2021-03-30_07h05.47.748,premup-three_ses-02_part-02_label-phase2,3.2.4,MacIntel,60,,,,,,,,,,,,,,,,,,,,,,,,,,,,,
left,0.794000149,1,50,1,0,1,0,1,0,1,0,240,121,1,239,2,6,2,stim/62.jpeg,Instruments,1,stim/objects/Instruments/electricdrumset2.png,0.7,3,-0.2,-0.15,left,61,2021-03-30_07h05.47.748,premup-three_ses-02_part-02_label-phase2,3.2.4,MacIntel,60,,,,,,,,,,,,,,,,,,,,,,,,,,,,,
right,0.827000141,1,51,1,0,1,0,1,0,1,0,240,192,1,239,3,1,1,stim/11.jpeg,HouseObjects,2,stim/objects/HouseObjects/dustpan2.png,0.9,3,-0.2,-0.15,right,61,2021-03-30_07h05.47.748,premup-three_ses-02_part-02_label-phase2,3.2.4,MacIntel,60,,,,,,,,,,,,,,,,,,,,,,,,,,,,,
right,0.542000055,1,52,1,0,1,0,1,0,1,0,240,115,1,239,2,5,4,stim/54.jpeg,HouseObjects,2,stim/objects/HouseObjects/handvacuum.png,0.7,4,0.2,-0.15,right,61,2021-03-30_07h05.47.748,premup-three_ses-02_part-02_label-phase2,3.2.4,MacIntel,60,,,,,,,,,,,,,,,,,,,,,,,,,,,,,
left,0.703999996,1,53,1,0,1,0,1,0,1,0,240,8,1,239,1,3,1,stim/31.jpeg,Instruments,1,stim/objects/Instruments/drums.png,0.5,1,-0.2,0.15,left,61,2021-03-30_07h05.47.748,premup-three_ses-02_part-02_label-phase2,3.2.4,MacIntel,60,,,,,,,,,,,,,,,,,,,,,,,,,,,,,
left,0.312999964,1,54,1,0,1,0,1,0,1,0,240,91,1,239,2,5,4,stim/54.jpeg,Instruments,1,stim/objects/Instruments/hihat.png,0.3,2,0.2,0.15,left,61,2021-03-30_07h05.47.748,premup-three_ses-02_part-02_label-phase2,3.2.4,MacIntel,60,,,,,,,,,,,,,,,,,,,,,,,,,,,,,
right,0.532000065,0,55,1,0,1,0,1,0,1,0,240,42,1,239,1,4,3,stim/43.jpeg,Instruments,1,stim/objects/Instruments/gong.png,0.5,4,0.2,-0.15,left,61,2021-03-30_07h05.47.748,premup-three_ses-02_part-02_label-phase2,3.2.4,MacIntel,60,,,,,,,,,,,,,,,,,,,,,,,,,,,,,
left,0.353000164,1,56,1,0,1,0,1,0,1,0,240,17,1,239,1,3,2,stim/32.jpeg,Instruments,1,stim/objects/Instruments/electricdrumset.png,0.5,2,0.2,0.15,left,61,2021-03-30_07h05.47.748,premup-three_ses-02_part-02_label-phase2,3.2.4,MacIntel,60,,,,,,,,,,,,,,,,,,,,,,,,,,,,,
right,0.529999971,1,57,1,0,1,0,1,0,1,0,240,104,1,239,2,5,1,stim/51.jpeg,HouseObjects,2,stim/objects/HouseObjects/glassmop.png,0.7,1,-0.2,0.15,right,61,2021-03-30_07h05.47.748,premup-three_ses-02_part-02_label-phase2,3.2.4,MacIntel,60,,,,,,,,,,,,,,,,,,,,,,,,,,,,,
left,0.511000156,1,58,1,0,1,0,1,0,1,0,240,142,1,239,2,6,3,stim/63.jpeg,Instruments,1,stim/objects/Instruments/electricguitar2.png,0.7,3,-0.2,-0.15,left,61,2021-03-30_07h05.47.748,premup-three_ses-02_part-02_label-phase2,3.2.4,MacIntel,60,,,,,,,,,,,,,,,,,,,,,,,,,,,,,
right,0.376000166,1,59,1,0,1,0,1,0,1,0,240,64,1,239,1,4,1,stim/41.jpeg,HouseObjects,2,stim/objects/HouseObjects/dustpan.png,0.5,4,0.2,-0.15,right,61,2021-03-30_07h05.47.748,premup-three_ses-02_part-02_label-phase2,3.2.4,MacIntel,60,,,,,,,,,,,,,,,,,,,,,,,,,,,,,
left,0.27300024,0,60,1,0,1,0,1,0,1,0,240,119,1,239,2,5,4,stim/54.jpeg,HouseObjects,2,stim/objects/HouseObjects/handvacuum.png,0.7,4,0.2,-0.15,right,61,2021-03-30_07h05.47.748,premup-three_ses-02_part-02_label-phase2,3.2.4,MacIntel,60,,,,,,,,,,,,,,,,,,,,,,,,,,,,,
right,0.545000315,1,61,1,0,1,0,1,0,1,0,240,72,1,239,1,4,1,stim/41.jpeg,HouseObjects,2,stim/objects/HouseObjects/dustpan.png,0.5,1,-0.2,0.15,right,61,2021-03-30_07h05.47.748,premup-three_ses-02_part-02_label-phase2,3.2.4,MacIntel,60,,,,,,,,,,,,,,,,,,,,,,,,,,,,,
right,0.404000282,1,62,1,0,1,0,1,0,1,0,240,102,1,239,2,5,3,stim/53.jpeg,HouseObjects,2,stim/objects/HouseObjects/handbrush.png,0.7,1,-0.2,0.15,right,61,2021-03-30_07h05.47.748,premup-three_ses-02_part-02_label-phase2,3.2.4,MacIntel,60,,,,,,,,,,,,,,,,,,,,,,,,,,,,,
right,0.62100029,1,63,1,0,1,0,1,0,1,0,240,164,1,239,3,1,1,stim/11.jpeg,HouseObjects,2,stim/objects/HouseObjects/dustpan2.png,0.9,1,-0.2,0.15,right,61,2021-03-30_07h05.47.748,premup-three_ses-02_part-02_label-phase2,3.2.4,MacIntel,60,,,,,,,,,,,,,,,,,,,,,,,,,,,,,
left,0.720000267,1,64,1,0,1,0,1,0,1,0,240,218,1,239,3,2,3,stim/23.jpeg,Instruments,1,stim/objects/Instruments/harp2.png,0.9,2,0.2,0.15,left,61,2021-03-30_07h05.47.748,premup-three_ses-02_part-02_label-phase2,3.2.4,MacIntel,60,,,,,,,,,,,,,,,,,,,,,,,,,,,,,
right,0.857000113,1,65,1,0,1,0,1,0,1,0,240,67,1,239,1,4,4,stim/44.jpeg,HouseObjects,2,stim/objects/HouseObjects/glass.png,0.5,2,0.2,0.15,right,61,2021-03-30_07h05.47.748,premup-three_ses-02_part-02_label-phase2,3.2.4,MacIntel,60,,,,,,,,,,,,,,,,,,,,,,,,,,,,,
,,0,66,1,0,1,0,1,0,1,0,240,26,1,239,1,3,3,stim/33.jpeg,HouseObjects,2,stim/objects/HouseObjects/dishsoap.png,0.5,2,0.2,0.15,right,61,2021-03-30_07h05.47.748,premup-three_ses-02_part-02_label-phase2,3.2.4,MacIntel,60,,,,,,,,,,,,,,,,,,,,,,,,,,,,,
right,0.828000069,1,67,1,0,1,0,1,0,1,0,240,198,1,239,3,1,3,stim/13.jpeg,HouseObjects,2,stim/objects/HouseObjects/garbagebin2.png,0.9,3,-0.2,-0.15,right,61,2021-03-30_07h05.47.748,premup-three_ses-02_part-02_label-phase2,3.2.4,MacIntel,60,,,,,,,,,,,,,,,,,,,,,,,,,,,,,
right,0.360000134,0,68,1,0,1,0,1,0,1,0,240,86,1,239,2,5,3,stim/53.jpeg,Instruments,1,stim/objects/Instruments/harp.png,0.3,4,0.2,-0.15,left,61,2021-03-30_07h05.47.748,premup-three_ses-02_part-02_label-phase2,3.2.4,MacIntel,60,,,,,,,,,,,,,,,,,,,,,,,,,,,,,
right,0.719000101,0,69,1,0,1,0,1,0,1,0,240,89,1,239,2,5,2,stim/52.jpeg,Instruments,1,stim/objects/Instruments/harmonica.png,0.3,1,-0.2,0.15,left,61,2021-03-30_07h05.47.748,premup-three_ses-02_part-02_label-phase2,3.2.4,MacIntel,60,,,,,,,,,,,,,,,,,,,,,,,,,,,,,
left,0.677000284,1,70,1,0,1,0,1,0,1,0,240,235,1,239,3,2,4,stim/24.jpeg,Instruments,1,stim/objects/Instruments/hihat2.png,0.9,3,-0.2,-0.15,left,61,2021-03-30_07h05.47.748,premup-three_ses-02_part-02_label-phase2,3.2.4,MacIntel,60,,,,,,,,,,,,,,,,,,,,,,,,,,,,,
,,0,71,1,0,1,0,1,0,1,0,240,133,1,239,2,6,2,stim/62.jpeg,Instruments,1,stim/objects/Instruments/electricdrumset2.png,0.7,4,0.2,-0.15,left,61,2021-03-30_07h05.47.748,premup-three_ses-02_part-02_label-phase2,3.2.4,MacIntel,60,,,,,,,,,,,,,,,,,,,,,,,,,,,,,
right,0.200000048,1,72,1,0,1,0,1,0,1,0,240,20,1,239,1,3,1,stim/31.jpeg,HouseObjects,2,stim/objects/HouseObjects/coffee.png,0.5,1,-0.2,0.15,right,61,2021-03-30_07h05.47.748,premup-three_ses-02_part-02_label-phase2,3.2.4,MacIntel,60,,,,,,,,,,,,,,,,,,,,,,,,,,,,,
right,0.269000053,1,73,1,0,1,0,1,0,1,0,240,109,1,239,2,5,2,stim/52.jpeg,HouseObjects,2,stim/objects/HouseObjects/hairdryer.png,0.7,4,0.2,-0.15,right,61,2021-03-30_07h05.47.748,premup-three_ses-02_part-02_label-phase2,3.2.4,MacIntel,60,,,,,,,,,,,,,,,,,,,,,,,,,,,,,
left,0.249000311,1,74,1,0,1,0,1,0,1,0,240,57,1,239,1,4,2,stim/42.jpeg,Instruments,1,stim/objects/Instruments/frenchhorn.png,0.5,4,0.2,-0.15,left,61,2021-03-30_07h05.47.748,premup-three_ses-02_part-02_label-phase2,3.2.4,MacIntel,60,,,,,,,,,,,,,,,,,,,,,,,,,,,,,
left,0.512000084,0,75,1,0,1,0,1,0,1,0,240,182,1,239,3,1,3,stim/13.jpeg,HouseObjects,2,stim/objects/HouseObjects/garbagebin2.png,0.9,1,-0.2,0.15,right,61,2021-03-30_07h05.47.748,premup-three_ses-02_part-02_label-phase2,3.2.4,MacIntel,60,,,,,,,,,,,,,,,,,,,,,,,,,,,,,
right,0.435000181,1,76,1,0,1,0,1,0,1,0,240,177,1,239,3,1,2,stim/12.jpeg,HouseObjects,2,stim/objects/HouseObjects/flyswatter2.png,0.9,4,0.2,-0.15,right,61,2021-03-30_07h05.47.748,premup-three_ses-02_part-02_label-phase2,3.2.4,MacIntel,60,,,,,,,,,,,,,,,,,,,,,,,,,,,,,
left,0.389000177,0,77,1,0,1,0,1,0,1,0,240,32,1,239,1,3,1,stim/31.jpeg,HouseObjects,2,stim/objects/HouseObjects/coffee.png,0.5,1,-0.2,0.15,right,61,2021-03-30_07h05.47.748,premup-three_ses-02_part-02_label-phase2,3.2.4,MacIntel,60,,,,,,,,,,,,,,,,,,,,,,,,,,,,,
,,0,78,1,0,1,0,1,0,1,0,240,103,1,239,2,5,4,stim/54.jpeg,HouseObjects,2,stim/objects/HouseObjects/handvacuum.png,0.7,4,0.2,-0.15,right,61,2021-03-30_07h05.47.748,premup-three_ses-02_part-02_label-phase2,3.2.4,MacIntel,60,,,,,,,,,,,,,,,,,,,,,,,,,,,,,
right,0.231000185,0,79,1,0,1,0,1,0,1,0,240,124,1,239,2,6,1,stim/61.jpeg,Instruments,1,stim/objects/Instruments/drums2.png,0.7,2,0.2,0.15,left,61,2021-03-30_07h05.47.748,premup-three_ses-02_part-02_label-phase2,3.2.4,MacIntel,60,,,,,,,,,,,,,,,,,,,,,,,,,,,,,
left,0.305000305,1,80,1,0,1,0,1,0,1,0,240,47,1,239,1,4,4,stim/44.jpeg,Instruments,1,stim/objects/Instruments/grandpiano.png,0.5,2,0.2,0.15,left,61,2021-03-30_07h05.47.748,premup-three_ses-02_part-02_label-phase2,3.2.4,MacIntel,60,,,,,,,,,,,,,,,,,,,,,,,,,,,,,
right,0.203999996,1,81,1,0,1,0,1,0,1,0,240,75,1,239,1,4,4,stim/44.jpeg,HouseObjects,2,stim/objects/HouseObjects/glass.png,0.5,3,-0.2,-0.15,right,61,2021-03-30_07h05.47.748,premup-three_ses-02_part-02_label-phase2,3.2.4,MacIntel,60,,,,,,,,,,,,,,,,,,,,,,,,,,,,,
right,0.743000031,1,82,1,0,1,0,1,0,1,0,240,169,1,239,3,1,2,stim/12.jpeg,HouseObjects,2,stim/objects/HouseObjects/flyswatter2.png,0.9,1,-0.2,0.15,right,61,2021-03-30_07h05.47.748,premup-three_ses-02_part-02_label-phase2,3.2.4,MacIntel,60,,,,,,,,,,,,,,,,,,,,,,,,,,,,,
right,0.413000107,1,83,1,0,1,0,1,0,1,0,240,27,1,239,1,3,4,stim/34.jpeg,HouseObjects,2,stim/objects/HouseObjects/doormat.png,0.5,1,-0.2,0.15,right,61,2021-03-30_07h05.47.748,premup-three_ses-02_part-02_label-phase2,3.2.4,MacIntel,60,,,,,,,,,,,,,,,,,,,,,,,,,,,,,
right,0.564000368,1,84,1,0,1,0,1,0,1,0,240,97,1,239,2,5,2,stim/52.jpeg,HouseObjects,2,stim/objects/HouseObjects/hairdryer.png,0.7,1,-0.2,0.15,right,61,2021-03-30_07h05.47.748,premup-three_ses-02_part-02_label-phase2,3.2.4,MacIntel,60,,,,,,,,,,,,,,,,,,,,,,,,,,,,,
left,0.748000145,1,85,1,0,1,0,1,0,1,0,240,231,1,239,3,2,4,stim/24.jpeg,Instruments,1,stim/objects/Instruments/hihat2.png,0.9,4,0.2,-0.15,left,61,2021-03-30_07h05.47.748,premup-three_ses-02_part-02_label-phase2,3.2.4,MacIntel,60,,,,,,,,,,,,,,,,,,,,,,,,,,,,,
right,0.668000221,1,86,1,0,1,0,1,0,1,0,240,175,1,239,3,1,4,stim/14.jpeg,HouseObjects,2,stim/objects/HouseObjects/glass2.png,0.9,2,0.2,0.15,right,61,2021-03-30_07h05.47.748,premup-three_ses-02_part-02_label-phase2,3.2.4,MacIntel,60,,,,,,,,,,,,,,,,,,,,,,,,,,,,,
right,0.417999983,1,87,1,0,1,0,1,0,1,0,240,110,1,239,2,5,3,stim/53.jpeg,HouseObjects,2,stim/objects/HouseObjects/handbrush.png,0.7,2,0.2,0.15,right,61,2021-03-30_07h05.47.748,premup-three_ses-02_part-02_label-phase2,3.2.4,MacIntel,60,,,,,,,,,,,,,,,,,,,,,,,,,,,,,
right,0.805000305,0,88,1,0,1,0,1,0,1,0,240,50,1,239,1,4,3,stim/43.jpeg,Instruments,1,stim/objects/Instruments/gong.png,0.5,1,-0.2,0.15,left,61,2021-03-30_07h05.47.748,premup-three_ses-02_part-02_label-phase2,3.2.4,MacIntel,60,,,,,,,,,,,,,,,,,,,,,,,,,,,,,
left,0.697000265,0,89,1,0,1,0,1,0,1,0,240,62,1,239,1,4,3,stim/43.jpeg,HouseObjects,2,stim/objects/HouseObjects/garbagebin.png,0.5,4,0.2,-0.15,right,61,2021-03-30_07h05.47.748,premup-three_ses-02_part-02_label-phase2,3.2.4,MacIntel,60,,,,,,,,,,,,,,,,,,,,,,,,,,,,,
,,0,90,1,0,1,0,1,0,1,0,240,128,1,239,2,6,1,stim/61.jpeg,Instruments,1,stim/objects/Instruments/drums2.png,0.7,1,-0.2,0.15,left,61,2021-03-30_07h05.47.748,premup-three_ses-02_part-02_label-phase2,3.2.4,MacIntel,60,,,,,,,,,,,,,,,,,,,,,,,,,,,,,
left,0.421000242,0,91,1,0,1,0,1,0,1,0,240,78,1,239,1,4,3,stim/43.jpeg,HouseObjects,2,stim/objects/HouseObjects/garbagebin.png,0.5,1,-0.2,0.15,right,61,2021-03-30_07h05.47.748,premup-three_ses-02_part-02_label-phase2,3.2.4,MacIntel,60,,,,,,,,,,,,,,,,,,,,,,,,,,,,,
right,0.413000107,1,92,1,0,1,0,1,0,1,0,240,180,1,239,3,1,1,stim/11.jpeg,HouseObjects,2,stim/objects/HouseObjects/dustpan2.png,0.9,4,0.2,-0.15,right,61,2021-03-30_07h05.47.748,premup-three_ses-02_part-02_label-phase2,3.2.4,MacIntel,60,,,,,,,,,,,,,,,,,,,,,,,,,,,,,
right,0.402000189,0,93,1,0,1,0,1,0,1,0,240,161,1,239,3,1,2,stim/12.jpeg,Instruments,1,stim/objects/Instruments/frenchhorn2.png,0.1,3,-0.2,-0.15,left,61,2021-03-30_07h05.47.748,premup-three_ses-02_part-02_label-phase2,3.2.4,MacIntel,60,,,,,,,,,,,,,,,,,,,,,,,,,,,,,
right,0.529000282,0,94,1,0,1,0,1,0,1,0,240,58,1,239,1,4,3,stim/43.jpeg,Instruments,1,stim/objects/Instruments/gong.png,0.5,2,0.2,0.15,left,61,2021-03-30_07h05.47.748,premup-three_ses-02_part-02_label-phase2,3.2.4,MacIntel,60,,,,,,,,,,,,,,,,,,,,,,,,,,,,,
right,0.453000069,0,95,1,0,1,0,1,0,1,0,240,228,1,239,3,2,1,stim/21.jpeg,Instruments,1,stim/objects/Instruments/guitarcase2.png,0.9,2,0.2,0.15,left,61,2021-03-30_07h05.47.748,premup-three_ses-02_part-02_label-phase2,3.2.4,MacIntel,60,,,,,,,,,,,,,,,,,,,,,,,,,,,,,
left,0.253000259,1,96,1,0,1,0,1,0,1,0,240,53,1,239,1,4,2,stim/42.jpeg,Instruments,1,stim/objects/Instruments/frenchhorn.png,0.5,3,-0.2,-0.15,left,61,2021-03-30_07h05.47.748,premup-three_ses-02_part-02_label-phase2,3.2.4,MacIntel,60,,,,,,,,,,,,,,,,,,,,,,,,,,,,,
left,0.477000237,1,97,1,0,1,0,1,0,1,0,240,90,1,239,2,5,3,stim/53.jpeg,Instruments,1,stim/objects/Instruments/harp.png,0.3,1,-0.2,0.15,left,61,2021-03-30_07h05.47.748,premup-three_ses-02_part-02_label-phase2,3.2.4,MacIntel,60,,,,,,,,,,,,,,,,,,,,,,,,,,,,,
right,0.640000343,1,98,1,0,1,0,1,0,1,0,240,149,1,239,2,6,2,stim/62.jpeg,HouseObjects,2,stim/objects/HouseObjects/cushion2.png,0.3,4,0.2,-0.15,right,61,2021-03-30_07h05.47.748,premup-three_ses-02_part-02_label-phase2,3.2.4,MacIntel,60,,,,,,,,,,,,,,,,,,,,,,,,,,,,,
left,0.695000172,1,99,1,0,1,0,1,0,1,0,240,126,1,239,2,6,3,stim/63.jpeg,Instruments,1,stim/objects/Instruments/electricguitar2.png,0.7,1,-0.2,0.15,left,61,2021-03-30_07h05.47.748,premup-three_ses-02_part-02_label-phase2,3.2.4,MacIntel,60,,,,,,,,,,,,,,,,,,,,,,,,,,,,,
right,0.696000338,1,100,1,0,1,0,1,0,1,0,240,105,1,239,2,5,2,stim/52.jpeg,HouseObjects,2,stim/objects/HouseObjects/hairdryer.png,0.7,2,0.2,0.15,right,61,2021-03-30_07h05.47.748,premup-three_ses-02_part-02_label-phase2,3.2.4,MacIntel,60,,,,,,,,,,,,,,,,,,,,,,,,,,,,,
right,0.694000244,1,101,1,0,1,0,1,0,1,0,240,28,1,239,1,3,1,stim/31.jpeg,HouseObjects,2,stim/objects/HouseObjects/coffee.png,0.5,4,0.2,-0.15,right,61,2021-03-30_07h05.47.748,premup-three_ses-02_part-02_label-phase2,3.2.4,MacIntel,60,,,,,,,,,,,,,,,,,,,,,,,,,,,,,
right,0.88800025,1,102,1,0,1,0,1,0,1,0,240,76,1,239,1,4,1,stim/41.jpeg,HouseObjects,2,stim/objects/HouseObjects/dustpan.png,0.5,4,0.2,-0.15,right,61,2021-03-30_07h05.47.748,premup-three_ses-02_part-02_label-phase2,3.2.4,MacIntel,60,,,,,,,,,,,,,,,,,,,,,,,,,,,,,
left,0.43200016,0,103,1,0,1,0,1,0,1,0,240,30,1,239,1,3,3,stim/33.jpeg,HouseObjects,2,stim/objects/HouseObjects/dishsoap.png,0.5,3,-0.2,-0.15,right,61,2021-03-30_07h05.47.748,premup-three_ses-02_part-02_label-phase2,3.2.4,MacIntel,60,,,,,,,,,,,,,,,,,,,,,,,,,,,,,
left,0.644000053,1,104,1,0,1,0,1,0,1,0,240,226,1,239,3,2,3,stim/23.jpeg,Instruments,1,stim/objects/Instruments/harp2.png,0.9,1,-0.2,0.15,left,61,2021-03-30_07h05.47.748,premup-three_ses-02_part-02_label-phase2,3.2.4,MacIntel,60,,,,,,,,,,,,,,,,,,,,,,,,,,,,,
right,0.702000141,1,105,1,0,1,0,1,0,1,0,240,68,1,239,1,4,1,stim/41.jpeg,HouseObjects,2,stim/objects/HouseObjects/dustpan.png,0.5,4,0.2,-0.15,right,61,2021-03-30_07h05.47.748,premup-three_ses-02_part-02_label-phase2,3.2.4,MacIntel,60,,,,,,,,,,,,,,,,,,,,,,,,,,,,,
left,0.429000139,1,106,1,0,1,0,1,0,1,0,240,203,1,239,3,2,4,stim/24.jpeg,Instruments,1,stim/objects/Instruments/hihat2.png,0.9,1,-0.2,0.15,left,61,2021-03-30_07h05.47.748,premup-three_ses-02_part-02_label-phase2,3.2.4,MacIntel,60,,,,,,,,,,,,,,,,,,,,,,,,,,,,,
right,0.828000307,1,107,1,0,1,0,1,0,1,0,240,107,1,239,2,5,4,stim/54.jpeg,HouseObjects,2,stim/objects/HouseObjects/handvacuum.png,0.7,2,0.2,0.15,right,61,2021-03-30_07h05.47.748,premup-three_ses-02_part-02_label-phase2,3.2.4,MacIntel,60,,,,,,,,,,,,,,,,,,,,,,,,,,,,,
left,0.520000219,1,108,1,0,1,0,1,0,1,0,240,45,1,239,1,4,2,stim/42.jpeg,Instruments,1,stim/objects/Instruments/frenchhorn.png,0.5,3,-0.2,-0.15,left,61,2021-03-30_07h05.47.748,premup-three_ses-02_part-02_label-phase2,3.2.4,MacIntel,60,,,,,,,,,,,,,,,,,,,,,,,,,,,,,
left,0.378000259,1,109,1,0,1,0,1,0,1,0,240,51,1,239,1,4,4,stim/44.jpeg,Instruments,1,stim/objects/Instruments/grandpiano.png,0.5,3,-0.2,-0.15,left,61,2021-03-30_07h05.47.748,premup-three_ses-02_part-02_label-phase2,3.2.4,MacIntel,60,,,,,,,,,,,,,,,,,,,,,,,,,,,,,
left,0.460000038,1,110,1,0,1,0,1,0,1,0,240,19,1,239,1,3,4,stim/34.jpeg,Instruments,1,stim/objects/Instruments/flute.png,0.5,1,-0.2,0.15,left,61,2021-03-30_07h05.47.748,premup-three_ses-02_part-02_label-phase2,3.2.4,MacIntel,60,,,,,,,,,,,,,,,,,,,,,,,,,,,,,
left,0.703000069,1,111,1,0,1,0,1,0,1,0,240,213,1,239,3,2,2,stim/22.jpeg,Instruments,1,stim/objects/Instruments/harmonica2.png,0.9,3,-0.2,-0.15,left,61,2021-03-30_07h05.47.748,premup-three_ses-02_part-02_label-phase2,3.2.4,MacIntel,60,,,,,,,,,,,,,,,,,,,,,,,,,,,,,
left,0.398000002,1,112,1,0,1,0,1,0,1,0,240,224,1,239,3,2,1,stim/21.jpeg,Instruments,1,stim/objects/Instruments/guitarcase2.png,0.9,2,0.2,0.15,left,61,2021-03-30_07h05.47.748,premup-three_ses-02_part-02_label-phase2,3.2.4,MacIntel,60,,,,,,,,,,,,,,,,,,,,,,,,,,,,,
right,0.512000084,1,113,1,0,1,0,1,0,1,0,240,173,1,239,3,1,2,stim/12.jpeg,HouseObjects,2,stim/objects/HouseObjects/flyswatter2.png,0.9,2,0.2,0.15,right,61,2021-03-30_07h05.47.748,premup-three_ses-02_part-02_label-phase2,3.2.4,MacIntel,60,,,,,,,,,,,,,,,,,,,,,,,,,,,,,
right,0.604000092,0,114,1,0,1,0,1,0,1,0,240,138,1,239,2,6,3,stim/63.jpeg,Instruments,1,stim/objects/Instruments/electricguitar2.png,0.7,2,0.2,0.15,left,61,2021-03-30_07h05.47.748,premup-three_ses-02_part-02_label-phase2,3.2.4,MacIntel,60,,,,,,,,,,,,,,,,,,,,,,,,,,,,,
left,0.550000191,1,115,1,0,1,0,1,0,1,0,240,85,1,239,2,5,2,stim/52.jpeg,Instruments,1,stim/objects/Instruments/harmonica.png,0.3,2,0.2,0.15,left,61,2021-03-30_07h05.47.748,premup-three_ses-02_part-02_label-phase2,3.2.4,MacIntel,60,,,,,,,,,,,,,,,,,,,,,,,,,,,,,
left,0.650000095,1,116,1,0,1,0,1,0,1,0,240,135,1,239,2,6,4,stim/64.jpeg,Instruments,1,stim/objects/Instruments/flute2.png,0.7,2,0.2,0.15,left,61,2021-03-30_07h05.47.748,premup-three_ses-02_part-02_label-phase2,3.2.4,MacIntel,60,,,,,,,,,,,,,,,,,,,,,,,,,,,,,
left,0.210999966,1,117,1,0,1,0,1,0,1,0,240,140,1,239,2,6,1,stim/61.jpeg,Instruments,1,stim/objects/Instruments/drums2.png,0.7,4,0.2,-0.15,left,61,2021-03-30_07h05.47.748,premup-three_ses-02_part-02_label-phase2,3.2.4,MacIntel,60,,,,,,,,,,,,,,,,,,,,,,,,,,,,,
left,0.502000093,0,118,1,0,1,0,1,0,1,0,240,22,1,239,1,3,3,stim/33.jpeg,HouseObjects,2,stim/objects/HouseObjects/dishsoap.png,0.5,3,-0.2,-0.15,right,61,2021-03-30_07h05.47.748,premup-three_ses-02_part-02_label-phase2,3.2.4,MacIntel,60,,,,,,,,,,,,,,,,,,,,,,,,,,,,,
right,0.815999985,0,119,1,0,1,0,1,0,1,0,240,59,1,239,1,4,4,stim/44.jpeg,Instruments,1,stim/objects/Instruments/grandpiano.png,0.5,4,0.2,-0.15,left,61,2021-03-30_07h05.47.748,premup-three_ses-02_part-02_label-phase2,3.2.4,MacIntel,60,,,,,,,,,,,,,,,,,,,,,,,,,,,,,
left,0.002000093,1,120,1,0,1,0,1,0,1,0,240,214,1,239,3,2,3,stim/23.jpeg,Instruments,1,stim/objects/Instruments/harp2.png,0.9,1,-0.2,0.15,left,61,2021-03-30_07h05.47.748,premup-three_ses-02_part-02_label-phase2,3.2.4,MacIntel,60,,,,,,,,,,,,,,,,,,,,,,,,,,,,,
right,0.493000269,1,121,1,0,1,0,1,0,1,0,240,106,1,239,2,5,3,stim/53.jpeg,HouseObjects,2,stim/objects/HouseObjects/handbrush.png,0.7,3,-0.2,-0.15,right,61,2021-03-30_07h05.47.748,premup-three_ses-02_part-02_label-phase2,3.2.4,MacIntel,60,,,,,,,,,,,,,,,,,,,,,,,,,,,,,
right,0.765000105,0,122,1,0,1,0,1,0,1,0,240,162,1,239,3,1,3,stim/13.jpeg,Instruments,1,stim/objects/Instruments/gong2.png,0.1,2,0.2,0.15,left,61,2021-03-30_07h05.47.748,premup-three_ses-02_part-02_label-phase2,3.2.4,MacIntel,60,,,,,,,,,,,,,,,,,,,,,,,,,,,,,
left,0.597000122,0,123,1,0,1,0,1,0,1,0,240,189,1,239,3,1,2,stim/12.jpeg,HouseObjects,2,stim/objects/HouseObjects/flyswatter2.png,0.9,4,0.2,-0.15,right,61,2021-03-30_07h05.47.748,premup-three_ses-02_part-02_label-phase2,3.2.4,MacIntel,60,,,,,,,,,,,,,,,,,,,,,,,,,,,,,
right,0.519000053,1,124,1,0,1,0,1,0,1,0,240,77,1,239,1,4,2,stim/42.jpeg,HouseObjects,2,stim/objects/HouseObjects/flyswatter.png,0.5,2,0.2,0.15,right,61,2021-03-30_07h05.47.748,premup-three_ses-02_part-02_label-phase2,3.2.4,MacIntel,60,,,,,,,,,,,,,,,,,,,,,,,,,,,,,
right,0.544000149,1,125,1,0,1,0,1,0,1,0,240,69,1,239,1,4,2,stim/42.jpeg,HouseObjects,2,stim/objects/HouseObjects/flyswatter.png,0.5,3,-0.2,-0.15,right,61,2021-03-30_07h05.47.748,premup-three_ses-02_part-02_label-phase2,3.2.4,MacIntel,60,,,,,,,,,,,,,,,,,,,,,,,,,,,,,
right,0.696000099,0,126,1,0,1,0,1,0,1,0,240,55,1,239,1,4,4,stim/44.jpeg,Instruments,1,stim/objects/Instruments/grandpiano.png,0.5,2,0.2,0.15,left,61,2021-03-30_07h05.47.748,premup-three_ses-02_part-02_label-phase2,3.2.4,MacIntel,60,,,,,,,,,,,,,,,,,,,,,,,,,,,,,
right,0.841000319,1,127,1,0,1,0,1,0,1,0,240,199,1,239,3,1,4,stim/14.jpeg,HouseObjects,2,stim/objects/HouseObjects/glass2.png,0.9,1,-0.2,0.15,right,61,2021-03-30_07h05.47.748,premup-three_ses-02_part-02_label-phase2,3.2.4,MacIntel,60,,,,,,,,,,,,,,,,,,,,,,,,,,,,,
right,0.548000097,1,128,1,0,1,0,1,0,1,0,240,92,1,239,2,5,1,stim/51.jpeg,HouseObjects,2,stim/objects/HouseObjects/glassmop.png,0.7,4,0.2,-0.15,right,61,2021-03-30_07h05.47.748,premup-three_ses-02_part-02_label-phase2,3.2.4,MacIntel,60,,,,,,,,,,,,,,,,,,,,,,,,,,,,,
right,0.685000181,1,129,1,0,1,0,1,0,1,0,240,111,1,239,2,5,4,stim/54.jpeg,HouseObjects,2,stim/objects/HouseObjects/handvacuum.png,0.7,1,-0.2,0.15,right,61,2021-03-30_07h05.47.748,premup-three_ses-02_part-02_label-phase2,3.2.4,MacIntel,60,,,,,,,,,,,,,,,,,,,,,,,,,,,,,
right,0.602000237,1,130,1,0,1,0,1,0,1,0,240,96,1,239,2,5,1,stim/51.jpeg,HouseObjects,2,stim/objects/HouseObjects/glassmop.png,0.7,3,-0.2,-0.15,right,61,2021-03-30_07h05.47.748,premup-three_ses-02_part-02_label-phase2,3.2.4,MacIntel,60,,,,,,,,,,,,,,,,,,,,,,,,,,,,,
left,0.712000132,1,131,1,0,1,0,1,0,1,0,240,216,1,239,3,2,1,stim/21.jpeg,Instruments,1,stim/objects/Instruments/guitarcase2.png,0.9,1,-0.2,0.15,left,61,2021-03-30_07h05.47.748,premup-three_ses-02_part-02_label-phase2,3.2.4,MacIntel,60,,,,,,,,,,,,,,,,,,,,,,,,,,,,,
,,0,132,1,0,1,0,1,0,1,0,240,120,1,239,2,6,1,stim/61.jpeg,Instruments,1,stim/objects/Instruments/drums2.png,0.7,1,-0.2,0.15,left,61,2021-03-30_07h05.47.748,premup-three_ses-02_part-02_label-phase2,3.2.4,MacIntel,60,,,,,,,,,,,,,,,,,,,,,,,,,,,,,
left,0.321000099,0,133,1,0,1,0,1,0,1,0,240,63,1,239,1,4,4,stim/44.jpeg,HouseObjects,2,stim/objects/HouseObjects/glass.png,0.5,4,0.2,-0.15,right,61,2021-03-30_07h05.47.748,premup-three_ses-02_part-02_label-phase2,3.2.4,MacIntel,60,,,,,,,,,,,,,,,,,,,,,,,,,,,,,
,,0,134,1,0,1,0,1,0,1,0,240,65,1,239,1,4,2,stim/42.jpeg,HouseObjects,2,stim/objects/HouseObjects/flyswatter.png,0.5,4,0.2,-0.15,right,61,2021-03-30_07h05.47.748,premup-three_ses-02_part-02_label-phase2,3.2.4,MacIntel,60,,,,,,,,,,,,,,,,,,,,,,,,,,,,,
right,0.386000156,0,135,1,0,1,0,1,0,1,0,240,16,1,239,1,3,1,stim/31.jpeg,Instruments,1,stim/objects/Instruments/drums.png,0.5,2,0.2,0.15,left,61,2021-03-30_07h05.47.748,premup-three_ses-02_part-02_label-phase2,3.2.4,MacIntel,60,,,,,,,,,,,,,,,,,,,,,,,,,,,,,
right,0.535000086,0,136,1,0,1,0,1,0,1,0,240,9,1,239,1,3,2,stim/32.jpeg,Instruments,1,stim/objects/Instruments/electricdrumset.png,0.5,4,0.2,-0.15,left,61,2021-03-30_07h05.47.748,premup-three_ses-02_part-02_label-phase2,3.2.4,MacIntel,60,,,,,,,,,,,,,,,,,,,,,,,,,,,,,
left,0.420000076,0,137,1,0,1,0,1,0,1,0,240,154,1,239,2,6,3,stim/63.jpeg,HouseObjects,2,stim/objects/HouseObjects/dishsoap2.png,0.3,2,0.2,0.15,right,61,2021-03-30_07h05.47.748,premup-three_ses-02_part-02_label-phase2,3.2.4,MacIntel,60,,,,,,,,,,,,,,,,,,,,,,,,,,,,,
left,0.267000198,1,138,1,0,1,0,1,0,1,0,240,132,1,239,2,6,1,stim/61.jpeg,Instruments,1,stim/objects/Instruments/drums2.png,0.7,3,-0.2,-0.15,left,61,2021-03-30_07h05.47.748,premup-three_ses-02_part-02_label-phase2,3.2.4,MacIntel,60,,,,,,,,,,,,,,,,,,,,,,,,,,,,,
left,0.735000134,1,139,1,0,1,0,1,0,1,0,240,143,1,239,2,6,4,stim/64.jpeg,Instruments,1,stim/objects/Instruments/flute2.png,0.7,4,0.2,-0.15,left,61,2021-03-30_07h05.47.748,premup-three_ses-02_part-02_label-phase2,3.2.4,MacIntel,60,,,,,,,,,,,,,,,,,,,,,,,,,,,,,
left,0.631000042,1,140,1,0,1,0,1,0,1,0,240,223,1,239,3,2,4,stim/24.jpeg,Instruments,1,stim/objects/Instruments/hihat2.png,0.9,1,-0.2,0.15,left,61,2021-03-30_07h05.47.748,premup-three_ses-02_part-02_label-phase2,3.2.4,MacIntel,60,,,,,,,,,,,,,,,,,,,,,,,,,,,,,
left,0.79700017,0,141,1,0,1,0,1,0,1,0,240,71,1,239,1,4,4,stim/44.jpeg,HouseObjects,2,stim/objects/HouseObjects/glass.png,0.5,3,-0.2,-0.15,right,61,2021-03-30_07h05.47.748,premup-three_ses-02_part-02_label-phase2,3.2.4,MacIntel,60,,,,,,,,,,,,,,,,,,,,,,,,,,,,,
left,0.361000299,1,142,1,0,1,0,1,0,1,0,240,209,1,239,3,2,2,stim/22.jpeg,Instruments,1,stim/objects/Instruments/harmonica2.png,0.9,4,0.2,-0.15,left,61,2021-03-30_07h05.47.748,premup-three_ses-02_part-02_label-phase2,3.2.4,MacIntel,60,,,,,,,,,,,,,,,,,,,,,,,,,,,,,
right,0.569000006,1,143,1,0,1,0,1,0,1,0,240,166,1,239,3,1,3,stim/13.jpeg,HouseObjects,2,stim/objects/HouseObjects/garbagebin2.png,0.9,1,-0.2,0.15,right,61,2021-03-30_07h05.47.748,premup-three_ses-02_part-02_label-phase2,3.2.4,MacIntel,60,,,,,,,,,,,,,,,,,,,,,,,,,,,,,
right,0.717000008,0,144,1,0,1,0,1,0,1,0,240,145,1,239,2,6,2,stim/62.jpeg,Instruments,1,stim/objects/Instruments/electricdrumset2.png,0.7,4,0.2,-0.15,left,61,2021-03-30_07h05.47.748,premup-three_ses-02_part-02_label-phase2,3.2.4,MacIntel,60,,,,,,,,,,,,,,,,,,,,,,,,,,,,,
left,0.58100009,1,145,1,0,1,0,1,0,1,0,240,219,1,239,3,2,4,stim/24.jpeg,Instruments,1,stim/objects/Instruments/hihat2.png,0.9,1,-0.2,0.15,left,61,2021-03-30_07h05.47.748,premup-three_ses-02_part-02_label-phase2,3.2.4,MacIntel,60,,,,,,,,,,,,,,,,,,,,,,,,,,,,,
right,0.611000299,0,146,1,0,1,0,1,0,1,0,240,80,1,239,2,5,1,stim/51.jpeg,Instruments,1,stim/objects/Instruments/guitarcase.png,0.3,3,-0.2,-0.15,left,61,2021-03-30_07h05.47.748,premup-three_ses-02_part-02_label-phase2,3.2.4,MacIntel,60,,,,,,,,,,,,,,,,,,,,,,,,,,,,,
right,0.343000174,0,147,1,0,1,0,1,0,1,0,240,3,1,239,1,3,4,stim/34.jpeg,Instruments,1,stim/objects/Instruments/flute.png,0.5,2,0.2,0.15,left,61,2021-03-30_07h05.47.748,premup-three_ses-02_part-02_label-phase2,3.2.4,MacIntel,60,,,,,,,,,,,,,,,,,,,,,,,,,,,,,
left,0.437000036,0,148,1,0,1,0,1,0,1,0,240,99,1,239,2,5,4,stim/54.jpeg,HouseObjects,2,stim/objects/HouseObjects/handvacuum.png,0.7,1,-0.2,0.15,right,61,2021-03-30_07h05.47.748,premup-three_ses-02_part-02_label-phase2,3.2.4,MacIntel,60,,,,,,,,,,,,,,,,,,,,,,,,,,,,,
left,0.618000269,0,149,1,0,1,0,1,0,1,0,240,39,1,239,1,3,4,stim/34.jpeg,HouseObjects,2,stim/objects/HouseObjects/doormat.png,0.5,3,-0.2,-0.15,right,61,2021-03-30_07h05.47.748,premup-three_ses-02_part-02_label-phase2,3.2.4,MacIntel,60,,,,,,,,,,,,,,,,,,,,,,,,,,,,,
right,0.743000269,1,150,1,0,1,0,1,0,1,0,240,178,1,239,3,1,3,stim/13.jpeg,HouseObjects,2,stim/objects/HouseObjects/garbagebin2.png,0.9,2,0.2,0.15,right,61,2021-03-30_07h05.47.748,premup-three_ses-02_part-02_label-phase2,3.2.4,MacIntel,60,,,,,,,,,,,,,,,,,,,,,,,,,,,,,
right,0.46900034,1,151,1,0,1,0,1,0,1,0,240,37,1,239,1,3,2,stim/32.jpeg,HouseObjects,2,stim/objects/HouseObjects/cushion.png,0.5,4,0.2,-0.15,right,61,2021-03-30_07h05.47.748,premup-three_ses-02_part-02_label-phase2,3.2.4,MacIntel,60,,,,,,,,,,,,,,,,,,,,,,,,,,,,,
right,0.534000158,1,152,1,0,1,0,1,0,1,0,240,93,1,239,2,5,2,stim/52.jpeg,HouseObjects,2,stim/objects/HouseObjects/hairdryer.png,0.7,3,-0.2,-0.15,right,61,2021-03-30_07h05.47.748,premup-three_ses-02_part-02_label-phase2,3.2.4,MacIntel,60,,,,,,,,,,,,,,,,,,,,,,,,,,,,,
right,0.420000315,0,153,1,0,1,0,1,0,1,0,240,141,1,239,2,6,2,stim/62.jpeg,Instruments,1,stim/objects/Instruments/electricdrumset2.png,0.7,1,-0.2,0.15,left,61,2021-03-30_07h05.47.748,premup-three_ses-02_part-02_label-phase2,3.2.4,MacIntel,60,,,,,,,,,,,,,,,,,,,,,,,,,,,,,
left,0.828999996,0,154,1,0,1,0,1,0,1,0,240,170,1,239,3,1,3,stim/13.jpeg,HouseObjects,2,stim/objects/HouseObjects/garbagebin2.png,0.9,3,-0.2,-0.15,right,61,2021-03-30_07h05.47.748,premup-three_ses-02_part-02_label-phase2,3.2.4,MacIntel,60,,,,,,,,,,,,,,,,,,,,,,,,,,,,,
right,0.611000299,1,155,1,0,1,0,1,0,1,0,240,185,1,239,3,1,2,stim/12.jpeg,HouseObjects,2,stim/objects/HouseObjects/flyswatter2.png,0.9,2,0.2,0.15,right,61,2021-03-30_07h05.47.748,premup-three_ses-02_part-02_label-phase2,3.2.4,MacIntel,60,,,,,,,,,,,,,,,,,,,,,,,,,,,,,
right,0.553000212,0,156,1,0,1,0,1,0,1,0,240,40,1,239,1,4,1,stim/41.jpeg,Instruments,1,stim/objects/Instruments/flutetrans.png,0.5,2,0.2,0.15,left,61,2021-03-30_07h05.47.748,premup-three_ses-02_part-02_label-phase2,3.2.4,MacIntel,60,,,,,,,,,,,,,,,,,,,,,,,,,,,,,
right,0.633000135,1,157,1,0,1,0,1,0,1,0,240,35,1,239,1,3,4,stim/34.jpeg,HouseObjects,2,stim/objects/HouseObjects/doormat.png,0.5,3,-0.2,-0.15,right,61,2021-03-30_07h05.47.748,premup-three_ses-02_part-02_label-phase2,3.2.4,MacIntel,60,,,,,,,,,,,,,,,,,,,,,,,,,,,,,
,,0,158,1,0,1,0,1,0,1,0,240,144,1,239,2,6,1,stim/61.jpeg,Instruments,1,stim/objects/Instruments/drums2.png,0.7,4,0.2,-0.15,left,61,2021-03-30_07h05.47.748,premup-three_ses-02_part-02_label-phase2,3.2.4,MacIntel,60,,,,,,,,,,,,,,,,,,,,,,,,,,,,,
right,0.719000101,1,159,1,0,1,0,1,0,1,0,240,167,1,239,3,1,4,stim/14.jpeg,HouseObjects,2,stim/objects/HouseObjects/glass2.png,0.9,3,-0.2,-0.15,right,61,2021-03-30_07h05.47.748,premup-three_ses-02_part-02_label-phase2,3.2.4,MacIntel,60,,,,,,,,,,,,,,,,,,,,,,,,,,,,,
right,0.445000172,0,160,1,0,1,0,1,0,1,0,240,212,1,239,3,2,1,stim/21.jpeg,Instruments,1,stim/objects/Instruments/guitarcase2.png,0.9,2,0.2,0.15,left,61,2021-03-30_07h05.47.748,premup-three_ses-02_part-02_label-phase2,3.2.4,MacIntel,60,,,,,,,,,,,,,,,,,,,,,,,,,,,,,
right,0.694000244,1,161,1,0,1,0,1,0,1,0,240,165,1,239,3,1,2,stim/12.jpeg,HouseObjects,2,stim/objects/HouseObjects/flyswatter2.png,0.9,1,-0.2,0.15,right,61,2021-03-30_07h05.47.748,premup-three_ses-02_part-02_label-phase2,3.2.4,MacIntel,60,,,,,,,,,,,,,,,,,,,,,,,,,,,,,
left,0.645000219,0,162,1,0,1,0,1,0,1,0,240,36,1,239,1,3,1,stim/31.jpeg,HouseObjects,2,stim/objects/HouseObjects/coffee.png,0.5,3,-0.2,-0.15,right,61,2021-03-30_07h05.47.748,premup-three_ses-02_part-02_label-phase2,3.2.4,MacIntel,60,,,,,,,,,,,,,,,,,,,,,,,,,,,,,
,,0,163,1,0,1,0,1,0,1,0,240,201,1,239,3,2,2,stim/22.jpeg,Instruments,1,stim/objects/Instruments/harmonica2.png,0.9,1,-0.2,0.15,left,61,2021-03-30_07h05.47.748,premup-three_ses-02_part-02_label-phase2,3.2.4,MacIntel,60,,,,,,,,,,,,,,,,,,,,,,,,,,,,,
left,0.350000143,0,164,1,0,1,0,1,0,1,0,240,74,1,239,1,4,3,stim/43.jpeg,HouseObjects,2,stim/objects/HouseObjects/garbagebin.png,0.5,3,-0.2,-0.15,right,61,2021-03-30_07h05.47.748,premup-three_ses-02_part-02_label-phase2,3.2.4,MacIntel,60,,,,,,,,,,,,,,,,,,,,,,,,,,,,,
right,0.704000235,1,165,1,0,1,0,1,0,1,0,240,168,1,239,3,1,1,stim/11.jpeg,HouseObjects,2,stim/objects/HouseObjects/dustpan2.png,0.9,3,-0.2,-0.15,right,61,2021-03-30_07h05.47.748,premup-three_ses-02_part-02_label-phase2,3.2.4,MacIntel,60,,,,,,,,,,,,,,,,,,,,,,,,,,,,,
right,0.726000071,1,166,1,0,1,0,1,0,1,0,240,193,1,239,3,1,2,stim/12.jpeg,HouseObjects,2,stim/objects/HouseObjects/flyswatter2.png,0.9,3,-0.2,-0.15,right,61,2021-03-30_07h05.47.748,premup-three_ses-02_part-02_label-phase2,3.2.4,MacIntel,60,,,,,,,,,,,,,,,,,,,,,,,,,,,,,
left,0.744000196,0,167,1,0,1,0,1,0,1,0,240,21,1,239,1,3,2,stim/32.jpeg,HouseObjects,2,stim/objects/HouseObjects/cushion.png,0.5,1,-0.2,0.15,right,61,2021-03-30_07h05.47.748,premup-three_ses-02_part-02_label-phase2,3.2.4,MacIntel,60,,,,,,,,,,,,,,,,,,,,,,,,,,,,,
right,0.450000048,0,168,1,0,1,0,1,0,1,0,240,13,1,239,1,3,2,stim/32.jpeg,Instruments,1,stim/objects/Instruments/electricdrumset.png,0.5,4,0.2,-0.15,left,61,2021-03-30_07h05.47.748,premup-three_ses-02_part-02_label-phase2,3.2.4,MacIntel,60,,,,,,,,,,,,,,,,,,,,,,,,,,,,,
right,0.626000166,0,169,1,0,1,0,1,0,1,0,240,87,1,239,2,5,4,stim/54.jpeg,Instruments,1,stim/objects/Instruments/hihat.png,0.3,2,0.2,0.15,left,61,2021-03-30_07h05.47.748,premup-three_ses-02_part-02_label-phase2,3.2.4,MacIntel,60,,,,,,,,,,,,,,,,,,,,,,,,,,,,,
left,0.617000341,0,170,1,0,1,0,1,0,1,0,240,33,1,239,1,3,2,stim/32.jpeg,HouseObjects,2,stim/objects/HouseObjects/cushion.png,0.5,1,-0.2,0.15,right,61,2021-03-30_07h05.47.748,premup-three_ses-02_part-02_label-phase2,3.2.4,MacIntel,60,,,,,,,,,,,,,,,,,,,,,,,,,,,,,
left,0.68900013,1,171,1,0,1,0,1,0,1,0,240,10,1,239,1,3,3,stim/33.jpeg,Instruments,1,stim/objects/Instruments/electricguitar.png,0.5,1,-0.2,0.15,left,61,2021-03-30_07h05.47.748,premup-three_ses-02_part-02_label-phase2,3.2.4,MacIntel,60,,,,,,,,,,,,,,,,,,,,,,,,,,,,,
left,0.596000195,1,172,1,0,1,0,1,0,1,0,240,202,1,239,3,2,3,stim/23.jpeg,Instruments,1,stim/objects/Instruments/harp2.png,0.9,3,-0.2,-0.15,left,61,2021-03-30_07h05.47.748,premup-three_ses-02_part-02_label-phase2,3.2.4,MacIntel,60,,,,,,,,,,,,,,,,,,,,,,,,,,,,,
left,0.74600029,1,173,1,0,1,0,1,0,1,0,240,4,1,239,1,3,1,stim/31.jpeg,Instruments,1,stim/objects/Instruments/drums.png,0.5,1,-0.2,0.15,left,61,2021-03-30_07h05.47.748,premup-three_ses-02_part-02_label-phase2,3.2.4,MacIntel,60,,,,,,,,,,,,,,,,,,,,,,,,,,,,,
left,0.521000147,1,174,1,0,1,0,1,0,1,0,240,234,1,239,3,2,3,stim/23.jpeg,Instruments,1,stim/objects/Instruments/harp2.png,0.9,1,-0.2,0.15,left,61,2021-03-30_07h05.47.748,premup-three_ses-02_part-02_label-phase2,3.2.4,MacIntel,60,,,,,,,,,,,,,,,,,,,,,,,,,,,,,
,,0,175,1,0,1,0,1,0,1,0,240,195,1,239,3,1,4,stim/14.jpeg,HouseObjects,2,stim/objects/HouseObjects/glass2.png,0.9,3,-0.2,-0.15,right,61,2021-03-30_07h05.47.748,premup-three_ses-02_part-02_label-phase2,3.2.4,MacIntel,60,,,,,,,,,,,,,,,,,,,,,,,,,,,,,
right,0.261000156,0,176,1,0,1,0,1,0,1,0,240,46,1,239,1,4,3,stim/43.jpeg,Instruments,1,stim/objects/Instruments/gong.png,0.5,4,0.2,-0.15,left,61,2021-03-30_07h05.47.748,premup-three_ses-02_part-02_label-phase2,3.2.4,MacIntel,60,,,,,,,,,,,,,,,,,,,,,,,,,,,,,
right,0.259000063,1,177,1,0,1,0,1,0,1,0,240,194,1,239,3,1,3,stim/13.jpeg,HouseObjects,2,stim/objects/HouseObjects/garbagebin2.png,0.9,1,-0.2,0.15,right,61,2021-03-30_07h05.47.748,premup-three_ses-02_part-02_label-phase2,3.2.4,MacIntel,60,,,,,,,,,,,,,,,,,,,,,,,,,,,,,
right,0.461000204,0,178,1,0,1,0,1,0,1,0,240,2,1,239,1,3,3,stim/33.jpeg,Instruments,1,stim/objects/Instruments/electricguitar.png,0.5,3,-0.2,-0.15,left,61,2021-03-30_07h05.47.748,premup-three_ses-02_part-02_label-phase2,3.2.4,MacIntel,60,,,,,,,,,,,,,,,,,,,,,,,,,,,,,
right,0.464000225,0,179,1,0,1,0,1,0,1,0,240,56,1,239,1,4,1,stim/41.jpeg,Instruments,1,stim/objects/Instruments/flutetrans.png,0.5,2,0.2,0.15,left,61,2021-03-30_07h05.47.748,premup-three_ses-02_part-02_label-phase2,3.2.4,MacIntel,60,,,,,,,,,,,,,,,,,,,,,,,,,,,,,
right,0.31400013,1,180,1,0,1,0,1,0,1,0,240,95,1,239,2,5,4,stim/54.jpeg,HouseObjects,2,stim/objects/HouseObjects/handvacuum.png,0.7,3,-0.2,-0.15,right,61,2021-03-30_07h05.47.748,premup-three_ses-02_part-02_label-phase2,3.2.4,MacIntel,60,,,,,,,,,,,,,,,,,,,,,,,,,,,,,
left,0.285000086,1,181,1,0,1,0,1,0,1,0,240,88,1,239,2,5,1,stim/51.jpeg,Instruments,1,stim/objects/Instruments/guitarcase.png,0.3,1,-0.2,0.15,left,61,2021-03-30_07h05.47.748,premup-three_ses-02_part-02_label-phase2,3.2.4,MacIntel,60,,,,,,,,,,,,,,,,,,,,,,,,,,,,,
left,0.179000139,0,182,1,0,1,0,1,0,1,0,240,188,1,239,3,1,1,stim/11.jpeg,HouseObjects,2,stim/objects/HouseObjects/dustpan2.png,0.9,4,0.2,-0.15,right,61,2021-03-30_07h05.47.748,premup-three_ses-02_part-02_label-phase2,3.2.4,MacIntel,60,,,,,,,,,,,,,,,,,,,,,,,,,,,,,
right,0.417999983,0,183,1,0,1,0,1,0,1,0,240,84,1,239,2,5,1,stim/51.jpeg,Instruments,1,stim/objects/Instruments/guitarcase.png,0.3,1,-0.2,0.15,left,61,2021-03-30_07h05.47.748,premup-three_ses-02_part-02_label-phase2,3.2.4,MacIntel,60,,,,,,,,,,,,,,,,,,,,,,,,,,,,,
right,0.618000031,1,184,1,0,1,0,1,0,1,0,240,118,1,239,2,5,3,stim/53.jpeg,HouseObjects,2,stim/objects/HouseObjects/handbrush.png,0.7,3,-0.2,-0.15,right,61,2021-03-30_07h05.47.748,premup-three_ses-02_part-02_label-phase2,3.2.4,MacIntel,60,,,,,,,,,,,,,,,,,,,,,,,,,,,,,
left,0.542999983,1,185,1,0,1,0,1,0,1,0,240,127,1,239,2,6,4,stim/64.jpeg,Instruments,1,stim/objects/Instruments/flute2.png,0.7,4,0.2,-0.15,left,61,2021-03-30_07h05.47.748,premup-three_ses-02_part-02_label-phase2,3.2.4,MacIntel,60,,,,,,,,,,,,,,,,,,,,,,,,,,,,,
left,0.293000221,0,186,1,0,1,0,1,0,1,0,240,79,1,239,1,4,4,stim/44.jpeg,HouseObjects,2,stim/objects/HouseObjects/glass.png,0.5,1,-0.2,0.15,right,61,2021-03-30_07h05.47.748,premup-three_ses-02_part-02_label-phase2,3.2.4,MacIntel,60,,,,,,,,,,,,,,,,,,,,,,,,,,,,,
right,0.544000149,1,187,1,0,1,0,1,0,1,0,240,73,1,239,1,4,2,stim/42.jpeg,HouseObjects,2,stim/objects/HouseObjects/flyswatter.png,0.5,2,0.2,0.15,right,61,2021-03-30_07h05.47.748,premup-three_ses-02_part-02_label-phase2,3.2.4,MacIntel,60,,,,,,,,,,,,,,,,,,,,,,,,,,,,,
left,0.703000069,1,188,1,0,1,0,1,0,1,0,240,14,1,239,1,3,3,stim/33.jpeg,Instruments,1,stim/objects/Instruments/electricguitar.png,0.5,4,0.2,-0.15,left,61,2021-03-30_07h05.47.748,premup-three_ses-02_part-02_label-phase2,3.2.4,MacIntel,60,,,,,,,,,,,,,,,,,,,,,,,,,,,,,
left,0.49600029,1,189,1,0,1,0,1,0,1,0,240,227,1,239,3,2,4,stim/24.jpeg,Instruments,1,stim/objects/Instruments/hihat2.png,0.9,2,0.2,0.15,left,61,2021-03-30_07h05.47.748,premup-three_ses-02_part-02_label-phase2,3.2.4,MacIntel,60,,,,,,,,,,,,,,,,,,,,,,,,,,,,,
right,0.434000254,0,190,1,0,1,0,1,0,1,0,240,217,1,239,3,2,2,stim/22.jpeg,Instruments,1,stim/objects/Instruments/harmonica2.png,0.9,3,-0.2,-0.15,left,61,2021-03-30_07h05.47.748,premup-three_ses-02_part-02_label-phase2,3.2.4,MacIntel,60,,,,,,,,,,,,,,,,,,,,,,,,,,,,,
left,0.38499999,1,191,1,0,1,0,1,0,1,0,240,222,1,239,3,2,3,stim/23.jpeg,Instruments,1,stim/objects/Instruments/harp2.png,0.9,4,0.2,-0.15,left,61,2021-03-30_07h05.47.748,premup-three_ses-02_part-02_label-phase2,3.2.4,MacIntel,60,,,,,,,,,,,,,,,,,,,,,,,,,,,,,
left,0.800000191,0,192,1,0,1,0,1,0,1,0,240,23,1,239,1,3,4,stim/34.jpeg,HouseObjects,2,stim/objects/HouseObjects/doormat.png,0.5,1,-0.2,0.15,right,61,2021-03-30_07h05.47.748,premup-three_ses-02_part-02_label-phase2,3.2.4,MacIntel,60,,,,,,,,,,,,,,,,,,,,,,,,,,,,,
right,0.502000332,1,193,1,0,1,0,1,0,1,0,240,179,1,239,3,1,4,stim/14.jpeg,HouseObjects,2,stim/objects/HouseObjects/glass2.png,0.9,3,-0.2,-0.15,right,61,2021-03-30_07h05.47.748,premup-three_ses-02_part-02_label-phase2,3.2.4,MacIntel,60,,,,,,,,,,,,,,,,,,,,,,,,,,,,,
right,0.248000145,0,194,1,0,1,0,1,0,1,0,240,82,1,239,2,5,3,stim/53.jpeg,Instruments,1,stim/objects/Instruments/harp.png,0.3,1,-0.2,0.15,left,61,2021-03-30_07h05.47.748,premup-three_ses-02_part-02_label-phase2,3.2.4,MacIntel,60,,,,,,,,,,,,,,,,,,,,,,,,,,,,,
right,0.518000126,1,195,1,0,1,0,1,0,1,0,240,100,1,239,2,5,1,stim/51.jpeg,HouseObjects,2,stim/objects/HouseObjects/glassmop.png,0.7,4,0.2,-0.15,right,61,2021-03-30_07h05.47.748,premup-three_ses-02_part-02_label-phase2,3.2.4,MacIntel,60,,,,,,,,,,,,,,,,,,,,,,,,,,,,,
left,0.636000156,0,196,1,0,1,0,1,0,1,0,240,148,1,239,2,6,1,stim/61.jpeg,HouseObjects,2,stim/objects/HouseObjects/coffee2.png,0.3,3,-0.2,-0.15,right,61,2021-03-30_07h05.47.748,premup-three_ses-02_part-02_label-phase2,3.2.4,MacIntel,60,,,,,,,,,,,,,,,,,,,,,,,,,,,,,
right,0.668000221,0,197,1,0,1,0,1,0,1,0,240,83,1,239,2,5,4,stim/54.jpeg,Instruments,1,stim/objects/Instruments/hihat.png,0.3,1,-0.2,0.15,left,61,2021-03-30_07h05.47.748,premup-three_ses-02_part-02_label-phase2,3.2.4,MacIntel,60,,,,,,,,,,,,,,,,,,,,,,,,,,,,,
left,0.933000088,0,198,1,0,1,0,1,0,1,0,240,237,1,239,3,2,2,stim/22.jpeg,HouseObjects,2,stim/objects/HouseObjects/hairdryer2.png,0.1,2,0.2,0.15,right,61,2021-03-30_07h05.47.748,premup-three_ses-02_part-02_label-phase2,3.2.4,MacIntel,60,,,,,,,,,,,,,,,,,,,,,,,,,,,,,
,,0,199,1,0,1,0,1,0,1,0,240,70,1,239,1,4,3,stim/43.jpeg,HouseObjects,2,stim/objects/HouseObjects/garbagebin.png,0.5,1,-0.2,0.15,right,61,2021-03-30_07h05.47.748,premup-three_ses-02_part-02_label-phase2,3.2.4,MacIntel,60,,,,,,,,,,,,,,,,,,,,,,,,,,,,,
right,0.347000122,1,200,1,0,1,0,1,0,1,0,240,66,1,239,1,4,3,stim/43.jpeg,HouseObjects,2,stim/objects/HouseObjects/garbagebin.png,0.5,3,-0.2,-0.15,right,61,2021-03-30_07h05.47.748,premup-three_ses-02_part-02_label-phase2,3.2.4,MacIntel,60,,,,,,,,,,,,,,,,,,,,,,,,,,,,,
right,0.352000237,1,201,1,0,1,0,1,0,1,0,240,171,1,239,3,1,4,stim/14.jpeg,HouseObjects,2,stim/objects/HouseObjects/glass2.png,0.9,2,0.2,0.15,right,61,2021-03-30_07h05.47.748,premup-three_ses-02_part-02_label-phase2,3.2.4,MacIntel,60,,,,,,,,,,,,,,,,,,,,,,,,,,,,,
right,0.702000141,1,202,1,0,1,0,1,0,1,0,240,112,1,239,2,5,1,stim/51.jpeg,HouseObjects,2,stim/objects/HouseObjects/glassmop.png,0.7,4,0.2,-0.15,right,61,2021-03-30_07h05.47.748,premup-three_ses-02_part-02_label-phase2,3.2.4,MacIntel,60,,,,,,,,,,,,,,,,,,,,,,,,,,,,,
left,0.46200037,0,203,1,0,1,0,1,0,1,0,240,150,1,239,2,6,3,stim/63.jpeg,HouseObjects,2,stim/objects/HouseObjects/dishsoap2.png,0.3,4,0.2,-0.15,right,61,2021-03-30_07h05.47.748,premup-three_ses-02_part-02_label-phase2,3.2.4,MacIntel,60,,,,,,,,,,,,,,,,,,,,,,,,,,,,,
left,0.545000076,1,204,1,0,1,0,1,0,1,0,240,206,1,239,3,2,3,stim/23.jpeg,Instruments,1,stim/objects/Instruments/harp2.png,0.9,3,-0.2,-0.15,left,61,2021-03-30_07h05.47.748,premup-three_ses-02_part-02_label-phase2,3.2.4,MacIntel,60,,,,,,,,,,,,,,,,,,,,,,,,,,,,,
left,0.484000206,1,205,1,0,1,0,1,0,1,0,240,130,1,239,2,6,3,stim/63.jpeg,Instruments,1,stim/objects/Instruments/electricguitar2.png,0.7,2,0.2,0.15,left,61,2021-03-30_07h05.47.748,premup-three_ses-02_part-02_label-phase2,3.2.4,MacIntel,60,,,,,,,,,,,,,,,,,,,,,,,,,,,,,
right,0.54700017,1,206,1,0,1,0,1,0,1,0,240,157,1,239,2,6,2,stim/62.jpeg,HouseObjects,2,stim/objects/HouseObjects/cushion2.png,0.3,1,-0.2,0.15,right,61,2021-03-30_07h05.47.748,premup-three_ses-02_part-02_label-phase2,3.2.4,MacIntel,60,,,,,,,,,,,,,,,,,,,,,,,,,,,,,
left,0.429000139,0,207,1,0,1,0,1,0,1,0,240,186,1,239,3,1,3,stim/13.jpeg,HouseObjects,2,stim/objects/HouseObjects/garbagebin2.png,0.9,3,-0.2,-0.15,right,61,2021-03-30_07h05.47.748,premup-three_ses-02_part-02_label-phase2,3.2.4,MacIntel,60,,,,,,,,,,,,,,,,,,,,,,,,,,,,,
left,0.342000246,0,208,1,0,1,0,1,0,1,0,240,238,1,239,3,2,3,stim/23.jpeg,HouseObjects,2,stim/objects/HouseObjects/handbrush2.png,0.1,4,0.2,-0.15,right,61,2021-03-30_07h05.47.748,premup-three_ses-02_part-02_label-phase2,3.2.4,MacIntel,60,,,,,,,,,,,,,,,,,,,,,,,,,,,,,
right,0.434000015,1,209,1,0,1,0,1,0,1,0,240,60,1,239,1,4,1,stim/41.jpeg,HouseObjects,2,stim/objects/HouseObjects/dustpan.png,0.5,1,-0.2,0.15,right,61,2021-03-30_07h05.47.748,premup-three_ses-02_part-02_label-phase2,3.2.4,MacIntel,60,,,,,,,,,,,,,,,,,,,,,,,,,,,,,
right,0.301000357,0,210,1,0,1,0,1,0,1,0,240,18,1,239,1,3,3,stim/33.jpeg,Instruments,1,stim/objects/Instruments/electricguitar.png,0.5,1,-0.2,0.15,left,61,2021-03-30_07h05.47.748,premup-three_ses-02_part-02_label-phase2,3.2.4,MacIntel,60,,,,,,,,,,,,,,,,,,,,,,,,,,,,,
left,0.710000038,0,211,1,0,1,0,1,0,1,0,240,190,1,239,3,1,3,stim/13.jpeg,HouseObjects,2,stim/objects/HouseObjects/garbagebin2.png,0.9,2,0.2,0.15,right,61,2021-03-30_07h05.47.748,premup-three_ses-02_part-02_label-phase2,3.2.4,MacIntel,60,,,,,,,,,,,,,,,,,,,,,,,,,,,,,
right,0.502000093,0,212,1,0,1,0,1,0,1,0,240,49,1,239,1,4,2,stim/42.jpeg,Instruments,1,stim/objects/Instruments/frenchhorn.png,0.5,4,0.2,-0.15,left,61,2021-03-30_07h05.47.748,premup-three_ses-02_part-02_label-phase2,3.2.4,MacIntel,60,,,,,,,,,,,,,,,,,,,,,,,,,,,,,
right,0.549000263,0,213,1,0,1,0,1,0,1,0,240,160,1,239,3,1,1,stim/11.jpeg,Instruments,1,stim/objects/Instruments/flutetrans2.png,0.1,3,-0.2,-0.15,left,61,2021-03-30_07h05.47.748,premup-three_ses-02_part-02_label-phase2,3.2.4,MacIntel,60,,,,,,,,,,,,,,,,,,,,,,,,,,,,,
right,0.320000172,0,214,1,0,1,0,1,0,1,0,240,163,1,239,3,1,4,stim/14.jpeg,Instruments,1,stim/objects/Instruments/grandpiano2.png,0.1,2,0.2,0.15,left,61,2021-03-30_07h05.47.748,premup-three_ses-02_part-02_label-phase2,3.2.4,MacIntel,60,,,,,,,,,,,,,,,,,,,,,,,,,,,,,
right,0.460999966,0,215,1,0,1,0,1,0,1,0,240,233,1,239,3,2,2,stim/22.jpeg,Instruments,1,stim/objects/Instruments/harmonica2.png,0.9,4,0.2,-0.15,left,61,2021-03-30_07h05.47.748,premup-three_ses-02_part-02_label-phase2,3.2.4,MacIntel,60,,,,,,,,,,,,,,,,,,,,,,,,,,,,,
left,0.441000223,0,216,1,0,1,0,1,0,1,0,240,196,1,239,3,1,1,stim/11.jpeg,HouseObjects,2,stim/objects/HouseObjects/dustpan2.png,0.9,2,0.2,0.15,right,61,2021-03-30_07h05.47.748,premup-three_ses-02_part-02_label-phase2,3.2.4,MacIntel,60,,,,,,,,,,,,,,,,,,,,,,,,,,,,,
right,0.2900002,1,217,1,0,1,0,1,0,1,0,240,101,1,239,2,5,2,stim/52.jpeg,HouseObjects,2,stim/objects/HouseObjects/hairdryer.png,0.7,2,0.2,0.15,right,61,2021-03-30_07h05.47.748,premup-three_ses-02_part-02_label-phase2,3.2.4,MacIntel,60,,,,,,,,,,,,,,,,,,,,,,,,,,,,,
right,0.19900012,1,218,1,0,1,0,1,0,1,0,240,174,1,239,3,1,3,stim/13.jpeg,HouseObjects,2,stim/objects/HouseObjects/garbagebin2.png,0.9,4,0.2,-0.15,right,61,2021-03-30_07h05.47.748,premup-three_ses-02_part-02_label-phase2,3.2.4,MacIntel,60,,,,,,,,,,,,,,,,,,,,,,,,,,,,,
right,0.660000086,1,219,1,0,1,0,1,0,1,0,240,94,1,239,2,5,3,stim/53.jpeg,HouseObjects,2,stim/objects/HouseObjects/handbrush.png,0.7,3,-0.2,-0.15,right,61,2021-03-30_07h05.47.748,premup-three_ses-02_part-02_label-phase2,3.2.4,MacIntel,60,,,,,,,,,,,,,,,,,,,,,,,,,,,,,
right,0.771000147,0,220,1,0,1,0,1,0,1,0,240,43,1,239,1,4,4,stim/44.jpeg,Instruments,1,stim/objects/Instruments/grandpiano.png,0.5,3,-0.2,-0.15,left,61,2021-03-30_07h05.47.748,premup-three_ses-02_part-02_label-phase2,3.2.4,MacIntel,60,,,,,,,,,,,,,,,,,,,,,,,,,,,,,
left,0.653000355,0,221,1,0,1,0,1,0,1,0,240,25,1,239,1,3,2,stim/32.jpeg,HouseObjects,2,stim/objects/HouseObjects/cushion.png,0.5,3,-0.2,-0.15,right,61,2021-03-30_07h05.47.748,premup-three_ses-02_part-02_label-phase2,3.2.4,MacIntel,60,,,,,,,,,,,,,,,,,,,,,,,,,,,,,
right,0.276000023,0,222,1,0,1,0,1,0,1,0,240,6,1,239,1,3,3,stim/33.jpeg,Instruments,1,stim/objects/Instruments/electricguitar.png,0.5,4,0.2,-0.15,left,61,2021-03-30_07h05.47.748,premup-three_ses-02_part-02_label-phase2,3.2.4,MacIntel,60,,,,,,,,,,,,,,,,,,,,,,,,,,,,,
left,0.378000259,1,223,1,0,1,0,1,0,1,0,240,131,1,239,2,6,4,stim/64.jpeg,Instruments,1,stim/objects/Instruments/flute2.png,0.7,2,0.2,0.15,left,61,2021-03-30_07h05.47.748,premup-three_ses-02_part-02_label-phase2,3.2.4,MacIntel,60,,,,,,,,,,,,,,,,,,,,,,,,,,,,,
left,0.494000196,1,224,1,0,1,0,1,0,1,0,240,232,1,239,3,2,1,stim/21.jpeg,Instruments,1,stim/objects/Instruments/guitarcase2.png,0.9,2,0.2,0.15,left,61,2021-03-30_07h05.47.748,premup-three_ses-02_part-02_label-phase2,3.2.4,MacIntel,60,,,,,,,,,,,,,,,,,,,,,,,,,,,,,
left,0.519000292,1,225,1,0,1,0,1,0,1,0,240,81,1,239,2,5,2,stim/52.jpeg,Instruments,1,stim/objects/Instruments/harmonica.png,0.3,1,-0.2,0.15,left,61,2021-03-30_07h05.47.748,premup-three_ses-02_part-02_label-phase2,3.2.4,MacIntel,60,,,,,,,,,,,,,,,,,,,,,,,,,,,,,
left,0.595000029,0,226,1,0,1,0,1,0,1,0,240,152,1,239,2,6,1,stim/61.jpeg,HouseObjects,2,stim/objects/HouseObjects/coffee2.png,0.3,2,0.2,0.15,right,61,2021-03-30_07h05.47.748,premup-three_ses-02_part-02_label-phase2,3.2.4,MacIntel,60,,,,,,,,,,,,,,,,,,,,,,,,,,,,,
left,0.450000048,1,227,1,0,1,0,1,0,1,0,240,12,1,239,1,3,1,stim/31.jpeg,Instruments,1,stim/objects/Instruments/drums.png,0.5,2,0.2,0.15,left,61,2021-03-30_07h05.47.748,premup-three_ses-02_part-02_label-phase2,3.2.4,MacIntel,60,,,,,,,,,,,,,,,,,,,,,,,,,,,,,
left,0.654000044,1,228,1,0,1,0,1,0,1,0,240,5,1,239,1,3,2,stim/32.jpeg,Instruments,1,stim/objects/Instruments/electricdrumset.png,0.5,3,-0.2,-0.15,left,61,2021-03-30_07h05.47.748,premup-three_ses-02_part-02_label-phase2,3.2.4,MacIntel,60,,,,,,,,,,,,,,,,,,,,,,,,,,,,,
left,0.59400034,1,229,1,0,1,0,1,0,1,0,240,204,1,239,3,2,1,stim/21.jpeg,Instruments,1,stim/objects/Instruments/guitarcase2.png,0.9,4,0.2,-0.15,left,61,2021-03-30_07h05.47.748,premup-three_ses-02_part-02_label-phase2,3.2.4,MacIntel,60,,,,,,,,,,,,,,,,,,,,,,,,,,,,,
left,0.750000238,1,230,1,0,1,0,1,0,1,0,240,136,1,239,2,6,1,stim/61.jpeg,Instruments,1,stim/objects/Instruments/drums2.png,0.7,1,-0.2,0.15,left,61,2021-03-30_07h05.47.748,premup-three_ses-02_part-02_label-phase2,3.2.4,MacIntel,60,,,,,,,,,,,,,,,,,,,,,,,,,,,,,
left,0.53000021,0,231,1,0,1,0,1,0,1,0,240,191,1,239,3,1,4,stim/14.jpeg,HouseObjects,2,stim/objects/HouseObjects/glass2.png,0.9,4,0.2,-0.15,right,61,2021-03-30_07h05.47.748,premup-three_ses-02_part-02_label-phase2,3.2.4,MacIntel,60,,,,,,,,,,,,,,,,,,,,,,,,,,,,,
right,0.546000004,1,232,1,0,1,0,1,0,1,0,240,176,1,239,3,1,1,stim/11.jpeg,HouseObjects,2,stim/objects/HouseObjects/dustpan2.png,0.9,4,0.2,-0.15,right,61,2021-03-30_07h05.47.748,premup-three_ses-02_part-02_label-phase2,3.2.4,MacIntel,60,,,,,,,,,,,,,,,,,,,,,,,,,,,,,
left,0.684000015,1,233,1,0,1,0,1,0,1,0,240,220,1,239,3,2,1,stim/21.jpeg,Instruments,1,stim/objects/Instruments/guitarcase2.png,0.9,1,-0.2,0.15,left,61,2021-03-30_07h05.47.748,premup-three_ses-02_part-02_label-phase2,3.2.4,MacIntel,60,,,,,,,,,,,,,,,,,,,,,,,,,,,,,
right,0.535000324,0,234,1,0,1,0,1,0,1,0,240,139,1,239,2,6,4,stim/64.jpeg,Instruments,1,stim/objects/Instruments/flute2.png,0.7,1,-0.2,0.15,left,61,2021-03-30_07h05.47.748,premup-three_ses-02_part-02_label-phase2,3.2.4,MacIntel,60,,,,,,,,,,,,,,,,,,,,,,,,,,,,,
left,0.261000156,1,235,1,0,1,0,1,0,1,0,240,215,1,239,3,2,4,stim/24.jpeg,Instruments,1,stim/objects/Instruments/hihat2.png,0.9,4,0.2,-0.15,left,61,2021-03-30_07h05.47.748,premup-three_ses-02_part-02_label-phase2,3.2.4,MacIntel,60,,,,,,,,,,,,,,,,,,,,,,,,,,,,,
left,0.445000172,1,236,1,0,1,0,1,0,1,0,240,54,1,239,1,4,3,stim/43.jpeg,Instruments,1,stim/objects/Instruments/gong.png,0.5,2,0.2,0.15,left,61,2021-03-30_07h05.47.748,premup-three_ses-02_part-02_label-phase2,3.2.4,MacIntel,60,,,,,,,,,,,,,,,,,,,,,,,,,,,,,
left,0.770000219,0,237,1,0,1,0,1,0,1,0,240,31,1,239,1,3,4,stim/34.jpeg,HouseObjects,2,stim/objects/HouseObjects/doormat.png,0.5,1,-0.2,0.15,right,61,2021-03-30_07h05.47.748,premup-three_ses-02_part-02_label-phase2,3.2.4,MacIntel,60,,,,,,,,,,,,,,,,,,,,,,,,,,,,,
left,0.419000387,1,238,1,0,1,0,1,0,1,0,240,211,1,239,3,2,4,stim/24.jpeg,Instruments,1,stim/objects/Instruments/hihat2.png,0.9,3,-0.2,-0.15,left,61,2021-03-30_07h05.47.748,premup-three_ses-02_part-02_label-phase2,3.2.4,MacIntel,60,,,,,,,,,,,,,,,,,,,,,,,,,,,,,
left,0.56400013,0,239,1,0,1,0,1,0,1,0,240,24,1,239,1,3,1,stim/31.jpeg,HouseObjects,2,stim/objects/HouseObjects/coffee.png,0.5,2,0.2,0.15,right,61,2021-03-30_07h05.47.748,premup-three_ses-02_part-02_label-phase2,3.2.4,MacIntel,60,,,,,,,,,,,,,,,,,,,,,,,,,,,,,
left,0.497000217,0,240,1,0,1,0,1,0,1,0,240,116,1,239,2,5,1,stim/51.jpeg,HouseObjects,2,stim/objects/HouseObjects/glassmop.png,0.7,3,-0.2,-0.15,right,61,2021-03-30_07h05.47.748,premup-three_ses-02_part-02_label-phase2,3.2.4,MacIntel,60,,,,,,,,,,,,,,,,,,,,,,,,,,,,,
,,,,1,0,1,0,1,0,,,,,,,,6,,stim/61.jpeg,,,,,,,,,61,2021-03-30_07h05.47.748,premup-three_ses-02_part-02_label-phase2,3.2.4,MacIntel,60,57,5.962000132,,,1,0,6,5,1,5,Music items,5,15,Household items,85,95,,,,,,,,,,,,,
,,,,1,0,1,0,1,0,,,,,,,,1,,stim/11.jpeg,,,,,,,,,61,2021-03-30_07h05.47.748,premup-three_ses-02_part-02_label-phase2,3.2.4,MacIntel,60,31,6.858999968,,,1,0,6,0,1,5,Music items,45,55,Household items,45,55,,,,,,,,,,,,,
,,,,1,0,1,0,1,0,,,,,,,,4,,stim/41.jpeg,,,,,,,,,61,2021-03-30_07h05.47.748,premup-three_ses-02_part-02_label-phase2,3.2.4,MacIntel,60,32,3.530999899,,,1,0,6,3,1,5,Music items,65,75,Household items,25,35,,,,,,,,,,,,,
,,,,1,0,1,0,1,0,,,,,,,,3,,stim/31.jpeg,,,,,,,,,61,2021-03-30_07h05.47.748,premup-three_ses-02_part-02_label-phase2,3.2.4,MacIntel,60,55,3.578999996,,,1,0,6,2,1,5,Music items,65,75,Household items,25,35,,,,,,,,,,,,,
,,,,1,0,1,0,1,0,,,,,,,,5,,stim/51.jpeg,,,,,,,,,61,2021-03-30_07h05.47.748,premup-three_ses-02_part-02_label-phase2,3.2.4,MacIntel,60,42,5.59100008,,,1,0,6,4,1,5,Household items,5,15,Music items,85,95,,,,,,,,,,,,,
,,,,1,0,1,0,1,0,,,,,,,,2,,stim/21.jpeg,,,,,,,,,61,2021-03-30_07h05.47.748,premup-three_ses-02_part-02_label-phase2,3.2.4,MacIntel,60,7,7.513999939,,,1,0,6,1,1,5,Household items,45,55,Music items,45,55,,,,,,,,,,,,,
,,,,1,0,1,0,1,0,,,,,,,,,,,,,,,,,,,61,2021-03-30_07h05.47.748,premup-three_ses-02_part-02_label-phase2,3.2.4,MacIntel,60,,,,,,,,,,,,,,,,,,,,,,,,,,,,,
left,0.634000063,0,241,,,,,,,,,,,,,3,1,3,stim/13.jpeg,HouseObjects,2,stim/objects/HouseObjects/knife3.png,0.9,4,0.2,-0.15,right,61,2021-03-30_07h05.47.748,premup-three_ses-02_part-02_label-phase2,3.2.4,MacIntel,60,,,,,,,,,,,,,,,,,1,0,330,160,1,329,2,,,,,,
,,0,242,,,,,,,,,,,,,3,2,2,stim/22.jpeg,Instruments,1,stim/objects/Instruments/oboe3.png,0.9,4,0.2,-0.15,left,61,2021-03-30_07h05.47.748,premup-three_ses-02_part-02_label-phase2,3.2.4,MacIntel,60,,,,,,,,,,,,,,,,,1,0,330,299,1,329,2,,,,,,
,,0,243,,,,,,,,,,,,,3,1,2,stim/12.jpeg,HouseObjects,2,stim/objects/HouseObjects/match3.png,0.9,1,-0.2,0.15,right,61,2021-03-30_07h05.47.748,premup-three_ses-02_part-02_label-phase2,3.2.4,MacIntel,60,,,,,,,,,,,,,,,,,1,0,330,207,1,329,2,,,,,,
right,0.452000141,0,244,,,,,,,,,,,,,3,2,2,stim/22.jpeg,Instruments,1,stim/objects/Instruments/musicsheet3.png,0.9,3,-0.2,-0.15,left,61,2021-03-30_07h05.47.748,premup-three_ses-02_part-02_label-phase2,3.2.4,MacIntel,60,,,,,,,,,,,,,,,,,1,0,330,287,1,329,2,,,,,,
left,0.775000095,0,245,,,,,,,,,,,,,2,5,1,stim/51.jpeg,HouseObjects,2,stim/objects/HouseObjects/key3.png,0.7,3,-0.2,-0.15,right,61,2021-03-30_07h05.47.748,premup-three_ses-02_part-02_label-phase2,3.2.4,MacIntel,60,,,,,,,,,,,,,,,,,1,0,330,84,1,329,2,,,,,,
left,0.765000105,1,246,,,,,,,,,,,,,3,2,4,stim/24.jpeg,Instruments,1,stim/objects/Instruments/musicsheet3.png,0.9,2,0.2,0.15,left,61,2021-03-30_07h05.47.748,premup-three_ses-02_part-02_label-phase2,3.2.4,MacIntel,60,,,,,,,,,,,,,,,,,1,0,330,297,1,329,2,,,,,,
left,0.316000223,1,247,,,,,,,,,,,,,2,6,2,stim/62.jpeg,Instruments,1,stim/objects/Instruments/doublebass3.png,0.7,3,-0.2,-0.15,left,61,2021-03-30_07h05.47.748,premup-three_ses-02_part-02_label-phase2,3.2.4,MacIntel,60,,,,,,,,,,,,,,,,,1,0,330,96,1,329,2,,,,,,
left,0.264000177,1,248,,,,,,,,,,,,,3,2,4,stim/24.jpeg,Instruments,1,stim/objects/Instruments/musicsheet3.png,0.9,1,-0.2,0.15,left,61,2021-03-30_07h05.47.748,premup-three_ses-02_part-02_label-phase2,3.2.4,MacIntel,60,,,,,,,,,,,,,,,,,1,0,330,237,1,329,2,,,,,,
right,0.539000273,1,249,,,,,,,,,,,,,3,1,4,stim/14.jpeg,HouseObjects,2,stim/objects/HouseObjects/pan3.png,0.9,3,-0.2,-0.15,right,61,2021-03-30_07h05.47.748,premup-three_ses-02_part-02_label-phase2,3.2.4,MacIntel,60,,,,,,,,,,,,,,,,,1,0,330,193,1,329,2,,,,,,
left,0.310000181,1,250,,,,,,,,,,,,,2,5,1,stim/51.jpeg,Instruments,1,stim/objects/Instruments/banjo4.png,0.3,3,-0.2,-0.15,left,61,2021-03-30_07h05.47.748,premup-three_ses-02_part-02_label-phase2,3.2.4,MacIntel,60,,,,,,,,,,,,,,,,,1,0,330,68,1,329,1,,,,,,
right,0.366000175,0,251,,,,,,,,,,,,,2,5,4,stim/54.jpeg,Instruments,1,stim/objects/Instruments/vuvuzela3.png,0.3,4,0.2,-0.15,left,61,2021-03-30_07h05.47.748,premup-three_ses-02_part-02_label-phase2,3.2.4,MacIntel,60,,,,,,,,,,,,,,,,,1,0,330,63,1,329,1,,,,,,
left,0.24600029,0,252,,,,,,,,,,,,,3,1,1,stim/11.jpeg,HouseObjects,2,stim/objects/HouseObjects/match3.png,0.9,2,0.2,0.15,right,61,2021-03-30_07h05.47.748,premup-three_ses-02_part-02_label-phase2,3.2.4,MacIntel,60,,,,,,,,,,,,,,,,,1,0,330,182,1,329,2,,,,,,
right,0.802000284,1,253,,,,,,,,,,,,,3,1,4,stim/14.jpeg,HouseObjects,2,stim/objects/HouseObjects/lintroller3.png,0.9,2,0.2,0.15,right,61,2021-03-30_07h05.47.748,premup-three_ses-02_part-02_label-phase2,3.2.4,MacIntel,60,,,,,,,,,,,,,,,,,1,0,330,141,1,329,2,,,,,,
left,0.460000277,0,254,,,,,,,,,,,,,1,3,4,stim/34.jpeg,HouseObjects,2,stim/objects/HouseObjects/rubbergloves3.png,0.5,3,-0.2,-0.15,right,61,2021-03-30_07h05.47.748,premup-three_ses-02_part-02_label-phase2,3.2.4,MacIntel,60,,,,,,,,,,,,,,,,,1,0,330,27,1,329,1,,,,,,
right,0.694000006,1,255,,,,,,,,,,,,,3,1,1,stim/11.jpeg,HouseObjects,2,stim/objects/HouseObjects/knife3.png,0.9,3,-0.2,-0.15,right,61,2021-03-30_07h05.47.748,premup-three_ses-02_part-02_label-phase2,3.2.4,MacIntel,60,,,,,,,,,,,,,,,,,1,0,330,210,1,329,2,,,,,,
left,0.570000172,1,256,,,,,,,,,,,,,3,2,1,stim/21.jpeg,Instruments,1,stim/objects/Instruments/marimba3.png,0.9,2,0.2,0.15,left,61,2021-03-30_07h05.47.748,premup-three_ses-02_part-02_label-phase2,3.2.4,MacIntel,60,,,,,,,,,,,,,,,,,1,0,330,250,1,329,2,,,,,,
right,0.245000124,1,257,,,,,,,,,,,,,1,4,2,stim/42.jpeg,HouseObjects,2,stim/objects/HouseObjects/blender3.png,0.5,1,-0.2,0.15,right,61,2021-03-30_07h05.47.748,premup-three_ses-02_part-02_label-phase2,3.2.4,MacIntel,60,,,,,,,,,,,,,,,,,1,0,330,45,1,329,2,,,,,,
left,0.244000196,1,258,,,,,,,,,,,,,1,3,3,stim/33.jpeg,Instruments,1,stim/objects/Instruments/balalaika3.png,0.5,2,0.2,0.15,left,61,2021-03-30_07h05.47.748,premup-three_ses-02_part-02_label-phase2,3.2.4,MacIntel,60,,,,,,,,,,,,,,,,,1,0,330,2,1,329,2,,,,,,
right,0.362000227,0,259,,,,,,,,,,,,,3,2,4,stim/24.jpeg,Instruments,1,stim/objects/Instruments/oboe3.png,0.9,4,0.2,-0.15,left,61,2021-03-30_07h05.47.748,premup-three_ses-02_part-02_label-phase2,3.2.4,MacIntel,60,,,,,,,,,,,,,,,,,1,0,330,269,1,329,2,,,,,,
right,0.602000237,1,260,,,,,,,,,,,,,3,1,2,stim/12.jpeg,HouseObjects,2,stim/objects/HouseObjects/knife3.png,0.9,2,0.2,0.15,right,61,2021-03-30_07h05.47.748,premup-three_ses-02_part-02_label-phase2,3.2.4,MacIntel,60,,,,,,,,,,,,,,,,,1,0,330,195,1,329,2,,,,,,
right,0.683000088,1,261,,,,,,,,,,,,,3,1,1,stim/11.jpeg,HouseObjects,2,stim/objects/HouseObjects/pan3.png,0.9,1,-0.2,0.15,right,61,2021-03-30_07h05.47.748,premup-three_ses-02_part-02_label-phase2,3.2.4,MacIntel,60,,,,,,,,,,,,,,,,,1,0,330,198,1,329,2,,,,,,
left,0.7900002,1,262,,,,,,,,,,,,,2,6,1,stim/61.jpeg,Instruments,1,stim/objects/Instruments/cymbal3.png,0.7,4,0.2,-0.15,left,61,2021-03-30_07h05.47.748,premup-three_ses-02_part-02_label-phase2,3.2.4,MacIntel,60,,,,,,,,,,,,,,,,,1,0,330,95,1,329,2,,,,,,
left,0.253000021,1,263,,,,,,,,,,,,,2,6,4,stim/64.jpeg,Instruments,1,stim/objects/Instruments/laud4.png,0.7,2,0.2,0.15,left,61,2021-03-30_07h05.47.748,premup-three_ses-02_part-02_label-phase2,3.2.4,MacIntel,60,,,,,,,,,,,,,,,,,1,0,330,118,1,329,1,,,,,,
right,0.26699996,0,264,,,,,,,,,,,,,2,6,2,stim/62.jpeg,Instruments,1,stim/objects/Instruments/doublebass4.png,0.7,3,-0.2,-0.15,left,61,2021-03-30_07h05.47.748,premup-three_ses-02_part-02_label-phase2,3.2.4,MacIntel,60,,,,,,,,,,,,,,,,,1,0,330,116,1,329,1,,,,,,
left,0.802000046,1,265,,,,,,,,,,,,,1,3,1,stim/31.jpeg,Instruments,1,stim/objects/Instruments/banjo3.png,0.5,1,-0.2,0.15,left,61,2021-03-30_07h05.47.748,premup-three_ses-02_part-02_label-phase2,3.2.4,MacIntel,60,,,,,,,,,,,,,,,,,1,0,330,8,1,329,2,,,,,,
left,0.678000212,1,266,,,,,,,,,,,,,3,2,1,stim/21.jpeg,Instruments,1,stim/objects/Instruments/musicstand3.png,0.9,2,0.2,0.15,left,61,2021-03-30_07h05.47.748,premup-three_ses-02_part-02_label-phase2,3.2.4,MacIntel,60,,,,,,,,,,,,,,,,,1,0,330,238,1,329,2,,,,,,
left,0.496000051,1,267,,,,,,,,,,,,,2,6,1,stim/61.jpeg,Instruments,1,stim/objects/Instruments/cello4.png,0.7,4,0.2,-0.15,left,61,2021-03-30_07h05.47.748,premup-three_ses-02_part-02_label-phase2,3.2.4,MacIntel,60,,,,,,,,,,,,,,,,,1,0,330,111,1,329,1,,,,,,
right,0.243000031,0,268,,,,,,,,,,,,,3,1,1,stim/11.jpeg,Instruments,1,stim/objects/Instruments/record_player4.png,0.1,1,-0.2,0.15,left,61,2021-03-30_07h05.47.748,premup-three_ses-02_part-02_label-phase2,3.2.4,MacIntel,60,,,,,,,,,,,,,,,,,1,0,330,138,1,329,1,,,,,,
left,0.328000307,1,269,,,,,,,,,,,,,2,5,4,stim/54.jpeg,Instruments,1,stim/objects/Instruments/balalaika4.png,0.3,4,0.2,-0.15,left,61,2021-03-30_07h05.47.748,premup-three_ses-02_part-02_label-phase2,3.2.4,MacIntel,60,,,,,,,,,,,,,,,,,1,0,330,67,1,329,1,,,,,,
right,0.42200017,1,270,,,,,,,,,,,,,3,1,4,stim/14.jpeg,HouseObjects,2,stim/objects/HouseObjects/pitcher3.png,0.9,2,0.2,0.15,right,61,2021-03-30_07h05.47.748,premup-three_ses-02_part-02_label-phase2,3.2.4,MacIntel,60,,,,,,,,,,,,,,,,,1,0,330,149,1,329,2,,,,,,
right,0.119000196,1,271,,,,,,,,,,,,,3,1,1,stim/11.jpeg,HouseObjects,2,stim/objects/HouseObjects/pitcher3.png,0.9,2,0.2,0.15,right,61,2021-03-30_07h05.47.748,premup-three_ses-02_part-02_label-phase2,3.2.4,MacIntel,60,,,,,,,,,,,,,,,,,1,0,330,214,1,329,2,,,,,,
right,0.736999989,0,272,,,,,,,,,,,,,1,4,4,stim/44.jpeg,Instruments,1,stim/objects/Instruments/cornet3.png,0.5,4,0.2,-0.15,left,61,2021-03-30_07h05.47.748,premup-three_ses-02_part-02_label-phase2,3.2.4,MacIntel,60,,,,,,,,,,,,,,,,,1,0,330,39,1,329,2,,,,,,
,,0,273,,,,,,,,,,,,,2,5,1,stim/51.jpeg,Instruments,1,stim/objects/Instruments/trumpet3.png,0.3,2,0.2,0.15,left,61,2021-03-30_07h05.47.748,premup-three_ses-02_part-02_label-phase2,3.2.4,MacIntel,60,,,,,,,,,,,,,,,,,1,0,330,60,1,329,1,,,,,,
left,0.313000202,1,274,,,,,,,,,,,,,3,2,2,stim/22.jpeg,Instruments,1,stim/objects/Instruments/metronome3.png,0.9,4,0.2,-0.15,left,61,2021-03-30_07h05.47.748,premup-three_ses-02_part-02_label-phase2,3.2.4,MacIntel,60,,,,,,,,,,,,,,,,,1,0,330,291,1,329,2,,,,,,
right,0.832000256,0,275,,,,,,,,,,,,,3,2,3,stim/23.jpeg,Instruments,1,stim/objects/Instruments/timbal4.png,0.9,1,-0.2,0.15,left,61,2021-03-30_07h05.47.748,premup-three_ses-02_part-02_label-phase2,3.2.4,MacIntel,60,,,,,,,,,,,,,,,,,1,0,330,312,1,329,1,,,,,,
left,0.762000084,0,276,,,,,,,,,,,,,3,1,4,stim/14.jpeg,HouseObjects,2,stim/objects/HouseObjects/pitcher3.png,0.9,1,-0.2,0.15,right,61,2021-03-30_07h05.47.748,premup-three_ses-02_part-02_label-phase2,3.2.4,MacIntel,60,,,,,,,,,,,,,,,,,1,0,330,189,1,329,2,,,,,,
right,0.585000277,0,277,,,,,,,,,,,,,1,3,3,stim/33.jpeg,Instruments,1,stim/objects/Instruments/acousticguitar3.png,0.5,1,-0.2,0.15,left,61,2021-03-30_07h05.47.748,premup-three_ses-02_part-02_label-phase2,3.2.4,MacIntel,60,,,,,,,,,,,,,,,,,1,0,330,6,1,329,2,,,,,,
right,0.304000139,1,278,,,,,,,,,,,,,3,1,3,stim/13.jpeg,HouseObjects,2,stim/objects/HouseObjects/knife4.png,0.9,2,0.2,0.15,right,61,2021-03-30_07h05.47.748,premup-three_ses-02_part-02_label-phase2,3.2.4,MacIntel,60,,,,,,,,,,,,,,,,,1,0,330,220,1,329,1,,,,,,
right,0.490000248,0,279,,,,,,,,,,,,,2,5,2,stim/52.jpeg,Instruments,1,stim/objects/Instruments/accordion4.png,0.3,1,-0.2,0.15,left,61,2021-03-30_07h05.47.748,premup-three_ses-02_part-02_label-phase2,3.2.4,MacIntel,60,,,,,,,,,,,,,,,,,1,0,330,65,1,329,1,,,,,,
right,0.747000217,0,280,,,,,,,,,,,,,1,3,3,stim/33.jpeg,Instruments,1,stim/objects/Instruments/panflute3.png,0.5,2,0.2,0.15,left,61,2021-03-30_07h05.47.748,premup-three_ses-02_part-02_label-phase2,3.2.4,MacIntel,60,,,,,,,,,,,,,,,,,1,0,330,10,1,329,1,,,,,,
right,0.375,1,281,,,,,,,,,,,,,1,3,3,stim/33.jpeg,HouseObjects,2,stim/objects/HouseObjects/basket3.png,0.5,4,0.2,-0.15,right,61,2021-03-30_07h05.47.748,premup-three_ses-02_part-02_label-phase2,3.2.4,MacIntel,60,,,,,,,,,,,,,,,,,1,0,330,18,1,329,2,,,,,,
right,0.420000315,1,282,,,,,,,,,,,,,3,1,2,stim/12.jpeg,HouseObjects,2,stim/objects/HouseObjects/knife3.png,0.9,1,-0.2,0.15,right,61,2021-03-30_07h05.47.748,premup-three_ses-02_part-02_label-phase2,3.2.4,MacIntel,60,,,,,,,,,,,,,,,,,1,0,330,175,1,329,2,,,,,,
right,0.783000231,0,283,,,,,,,,,,,,,3,2,3,stim/23.jpeg,Instruments,1,stim/objects/Instruments/metronome3.png,0.9,3,-0.2,-0.15,left,61,2021-03-30_07h05.47.748,premup-three_ses-02_part-02_label-phase2,3.2.4,MacIntel,60,,,,,,,,,,,,,,,,,1,0,330,236,1,329,2,,,,,,
right,0.728000164,0,284,,,,,,,,,,,,,3,1,2,stim/12.jpeg,Instruments,1,stim/objects/Instruments/metronome4.png,0.1,4,0.2,-0.15,left,61,2021-03-30_07h05.47.748,premup-three_ses-02_part-02_label-phase2,3.2.4,MacIntel,60,,,,,,,,,,,,,,,,,1,0,330,131,1,329,1,,,,,,
right,0.629000187,1,285,,,,,,,,,,,,,2,5,4,stim/54.jpeg,HouseObjects,2,stim/objects/HouseObjects/clothesdryingrack3.png,0.7,1,-0.2,0.15,right,61,2021-03-30_07h05.47.748,premup-three_ses-02_part-02_label-phase2,3.2.4,MacIntel,60,,,,,,,,,,,,,,,,,1,0,330,75,1,329,2,,,,,,
left,0.412000179,1,286,,,,,,,,,,,,,3,2,3,stim/23.jpeg,Instruments,1,stim/objects/Instruments/musicstand3.png,0.9,1,-0.2,0.15,left,61,2021-03-30_07h05.47.748,premup-three_ses-02_part-02_label-phase2,3.2.4,MacIntel,60,,,,,,,,,,,,,,,,,1,0,330,248,1,329,2,,,,,,
right,0.524000168,1,287,,,,,,,,,,,,,1,4,3,stim/43.jpeg,HouseObjects,2,stim/objects/HouseObjects/clock3.png,0.5,1,-0.2,0.15,right,61,2021-03-30_07h05.47.748,premup-three_ses-02_part-02_label-phase2,3.2.4,MacIntel,60,,,,,,,,,,,,,,,,,1,0,330,54,1,329,2,,,,,,
left,0.282000065,1,288,,,,,,,,,,,,,3,2,4,stim/24.jpeg,Instruments,1,stim/objects/Instruments/marimba3.png,0.9,1,-0.2,0.15,left,61,2021-03-30_07h05.47.748,premup-three_ses-02_part-02_label-phase2,3.2.4,MacIntel,60,,,,,,,,,,,,,,,,,1,0,330,265,1,329,2,,,,,,
left,0.377000093,1,289,,,,,,,,,,,,,3,2,4,stim/24.jpeg,Instruments,1,stim/objects/Instruments/metronome3.png,0.9,3,-0.2,-0.15,left,61,2021-03-30_07h05.47.748,premup-three_ses-02_part-02_label-phase2,3.2.4,MacIntel,60,,,,,,,,,,,,,,,,,1,0,330,241,1,329,2,,,,,,
right,0.520000219,1,290,,,,,,,,,,,,,1,3,1,stim/31.jpeg,HouseObjects,2,stim/objects/HouseObjects/ashtray3.png,0.5,4,0.2,-0.15,right,61,2021-03-30_07h05.47.748,premup-three_ses-02_part-02_label-phase2,3.2.4,MacIntel,60,,,,,,,,,,,,,,,,,1,0,330,20,1,329,2,,,,,,
left,0.393000126,1,291,,,,,,,,,,,,,3,2,2,stim/22.jpeg,Instruments,1,stim/objects/Instruments/marimba3.png,0.9,2,0.2,0.15,left,61,2021-03-30_07h05.47.748,premup-three_ses-02_part-02_label-phase2,3.2.4,MacIntel,60,,,,,,,,,,,,,,,,,1,0,330,235,1,329,2,,,,,,
left,0.252000093,0,292,,,,,,,,,,,,,3,1,3,stim/13.jpeg,HouseObjects,2,stim/objects/HouseObjects/lintroller3.png,0.9,3,-0.2,-0.15,right,61,2021-03-30_07h05.47.748,premup-three_ses-02_part-02_label-phase2,3.2.4,MacIntel,60,,,,,,,,,,,,,,,,,1,0,330,176,1,329,2,,,,,,
right,0.195000172,0,293,,,,,,,,,,,,,2,6,4,stim/64.jpeg,Instruments,1,stim/objects/Instruments/doublebass3.png,0.7,3,-0.2,-0.15,left,61,2021-03-30_07h05.47.748,premup-three_ses-02_part-02_label-phase2,3.2.4,MacIntel,60,,,,,,,,,,,,,,,,,1,0,330,106,1,329,2,,,,,,
right,0.161000252,0,294,,,,,,,,,,,,,3,1,2,stim/12.jpeg,Instruments,1,stim/objects/Instruments/panflute4.png,0.1,3,-0.2,-0.15,left,61,2021-03-30_07h05.47.748,premup-three_ses-02_part-02_label-phase2,3.2.4,MacIntel,60,,,,,,,,,,,,,,,,,1,0,330,135,1,329,1,,,,,,
left,0.249000311,1,295,,,,,,,,,,,,,1,3,2,stim/32.jpeg,Instruments,1,stim/objects/Instruments/record_player3.png,0.5,1,-0.2,0.15,left,61,2021-03-30_07h05.47.748,premup-three_ses-02_part-02_label-phase2,3.2.4,MacIntel,60,,,,,,,,,,,,,,,,,1,0,330,13,1,329,1,,,,,,
right,0.277000189,0,296,,,,,,,,,,,,,2,6,3,stim/63.jpeg,Instruments,1,stim/objects/Instruments/cymbal3.png,0.7,1,-0.2,0.15,left,61,2021-03-30_07h05.47.748,premup-three_ses-02_part-02_label-phase2,3.2.4,MacIntel,60,,,,,,,,,,,,,,,,,1,0,330,105,1,329,2,,,,,,
left,0.002000093,0,297,,,,,,,,,,,,,3,1,3,stim/13.jpeg,HouseObjects,2,stim/objects/HouseObjects/knife3.png,0.9,2,0.2,0.15,right,61,2021-03-30_07h05.47.748,premup-three_ses-02_part-02_label-phase2,3.2.4,MacIntel,60,,,,,,,,,,,,,,,,,1,0,330,140,1,329,2,,,,,,
right,0.418000221,0,298,,,,,,,,,,,,,3,2,1,stim/21.jpeg,Instruments,1,stim/objects/Instruments/musicstand3.png,0.9,2,0.2,0.15,left,61,2021-03-30_07h05.47.748,premup-three_ses-02_part-02_label-phase2,3.2.4,MacIntel,60,,,,,,,,,,,,,,,,,1,0,330,258,1,329,2,,,,,,
left,0.381000042,1,299,,,,,,,,,,,,,2,6,3,stim/63.jpeg,Instruments,1,stim/objects/Instruments/clarinet4.png,0.7,4,0.2,-0.15,left,61,2021-03-30_07h05.47.748,premup-three_ses-02_part-02_label-phase2,3.2.4,MacIntel,60,,,,,,,,,,,,,,,,,1,0,330,113,1,329,1,,,,,,
left,0.289000034,1,300,,,,,,,,,,,,,3,2,3,stim/23.jpeg,Instruments,1,stim/objects/Instruments/oboe3.png,0.9,3,-0.2,-0.15,left,61,2021-03-30_07h05.47.748,premup-three_ses-02_part-02_label-phase2,3.2.4,MacIntel,60,,,,,,,,,,,,,,,,,1,0,330,304,1,329,2,,,,,,
left,0.537000179,1,301,,,,,,,,,,,,,3,2,1,stim/21.jpeg,Instruments,1,stim/objects/Instruments/oboe3.png,0.9,1,-0.2,0.15,left,61,2021-03-30_07h05.47.748,premup-three_ses-02_part-02_label-phase2,3.2.4,MacIntel,60,,,,,,,,,,,,,,,,,1,0,330,234,1,329,2,,,,,,
right,0.295000076,0,302,,,,,,,,,,,,,3,2,4,stim/24.jpeg,Instruments,1,stim/objects/Instruments/marimba3.png,0.9,4,0.2,-0.15,left,61,2021-03-30_07h05.47.748,premup-three_ses-02_part-02_label-phase2,3.2.4,MacIntel,60,,,,,,,,,,,,,,,,,1,0,330,245,1,329,2,,,,,,
right,0.654000044,1,303,,,,,,,,,,,,,2,5,4,stim/54.jpeg,HouseObjects,2,stim/objects/HouseObjects/ballofstring4.png,0.7,3,-0.2,-0.15,right,61,2021-03-30_07h05.47.748,premup-three_ses-02_part-02_label-phase2,3.2.4,MacIntel,60,,,,,,,,,,,,,,,,,1,0,330,91,1,329,1,,,,,,
right,0.392000198,0,304,,,,,,,,,,,,,3,2,3,stim/23.jpeg,Instruments,1,stim/objects/Instruments/musicsheet3.png,0.9,1,-0.2,0.15,left,61,2021-03-30_07h05.47.748,premup-three_ses-02_part-02_label-phase2,3.2.4,MacIntel,60,,,,,,,,,,,,,,,,,1,0,330,232,1,329,2,,,,,,
left,0.494000196,1,305,,,,,,,,,,,,,1,4,1,stim/41.jpeg,Instruments,1,stim/objects/Instruments/cello3.png,0.5,4,0.2,-0.15,left,61,2021-03-30_07h05.47.748,premup-three_ses-02_part-02_label-phase2,3.2.4,MacIntel,60,,,,,,,,,,,,,,,,,1,0,330,36,1,329,2,,,,,,
left,0.552000046,1,306,,,,,,,,,,,,,3,2,2,stim/22.jpeg,Instruments,1,stim/objects/Instruments/oboe3.png,0.9,4,0.2,-0.15,left,61,2021-03-30_07h05.47.748,premup-three_ses-02_part-02_label-phase2,3.2.4,MacIntel,60,,,,,,,,,,,,,,,,,1,0,330,279,1,329,2,,,,,,
left,0.818000078,0,307,,,,,,,,,,,,,2,6,1,stim/61.jpeg,HouseObjects,2,stim/objects/HouseObjects/bucket4.png,0.3,3,-0.2,-0.15,right,61,2021-03-30_07h05.47.748,premup-three_ses-02_part-02_label-phase2,3.2.4,MacIntel,60,,,,,,,,,,,,,,,,,1,0,330,123,1,329,1,,,,,,
left,0.411000252,0,308,,,,,,,,,,,,,3,1,2,stim/12.jpeg,HouseObjects,2,stim/objects/HouseObjects/pan3.png,0.9,4,0.2,-0.15,right,61,2021-03-30_07h05.47.748,premup-three_ses-02_part-02_label-phase2,3.2.4,MacIntel,60,,,,,,,,,,,,,,,,,1,0,330,143,1,329,2,,,,,,
left,0.812000275,1,309,,,,,,,,,,,,,3,2,3,stim/23.jpeg,Instruments,1,stim/objects/Instruments/marimba3.png,0.9,2,0.2,0.15,left,61,2021-03-30_07h05.47.748,premup-three_ses-02_part-02_label-phase2,3.2.4,MacIntel,60,,,,,,,,,,,,,,,,,1,0,330,280,1,329,2,,,,,,
left,0.744000196,1,310,,,,,,,,,,,,,3,2,1,stim/21.jpeg,Instruments,1,stim/objects/Instruments/metronome3.png,0.9,3,-0.2,-0.15,left,61,2021-03-30_07h05.47.748,premup-three_ses-02_part-02_label-phase2,3.2.4,MacIntel,60,,,,,,,,,,,,,,,,,1,0,330,306,1,329,2,,,,,,
right,0.861999989,1,311,,,,,,,,,,,,,3,1,3,stim/13.jpeg,HouseObjects,2,stim/objects/HouseObjects/pitcher3.png,0.9,2,0.2,0.15,right,61,2021-03-30_07h05.47.748,premup-three_ses-02_part-02_label-phase2,3.2.4,MacIntel,60,,,,,,,,,,,,,,,,,1,0,330,164,1,329,2,,,,,,
right,0.434999943,1,312,,,,,,,,,,,,,2,5,1,stim/51.jpeg,HouseObjects,2,stim/objects/HouseObjects/clothespin3.png,0.7,2,0.2,0.15,right,61,2021-03-30_07h05.47.748,premup-three_ses-02_part-02_label-phase2,3.2.4,MacIntel,60,,,,,,,,,,,,,,,,,1,0,330,76,1,329,2,,,,,,
right,0.578999996,1,313,,,,,,,,,,,,,3,1,2,stim/12.jpeg,HouseObjects,2,stim/objects/HouseObjects/pan3.png,0.9,1,-0.2,0.15,right,61,2021-03-30_07h05.47.748,premup-three_ses-02_part-02_label-phase2,3.2.4,MacIntel,60,,,,,,,,,,,,,,,,,1,0,330,163,1,329,2,,,,,,
left,0.698000193,1,314,,,,,,,,,,,,,2,6,3,stim/63.jpeg,Instruments,1,stim/objects/Instruments/keyboard3.png,0.7,2,0.2,0.15,left,61,2021-03-30_07h05.47.748,premup-three_ses-02_part-02_label-phase2,3.2.4,MacIntel,60,,,,,,,,,,,,,,,,,1,0,330,97,1,329,2,,,,,,
left,0.150000334,1,315,,,,,,,,,,,,,3,2,2,stim/22.jpeg,Instruments,1,stim/objects/Instruments/musicsheet3.png,0.9,4,0.2,-0.15,left,61,2021-03-30_07h05.47.748,premup-three_ses-02_part-02_label-phase2,3.2.4,MacIntel,60,,,,,,,,,,,,,,,,,1,0,330,267,1,329,2,,,,,,
right,0.245000124,0,316,,,,,,,,,,,,,3,2,4,stim/24.jpeg,Instruments,1,stim/objects/Instruments/metronome3.png,0.9,1,-0.2,0.15,left,61,2021-03-30_07h05.47.748,premup-three_ses-02_part-02_label-phase2,3.2.4,MacIntel,60,,,,,,,,,,,,,,,,,1,0,330,261,1,329,2,,,,,,
left,0.585000277,0,317,,,,,,,,,,,,,2,6,3,stim/63.jpeg,HouseObjects,2,stim/objects/HouseObjects/clothesdryingrack4.png,0.3,3,-0.2,-0.15,right,61,2021-03-30_07h05.47.748,premup-three_ses-02_part-02_label-phase2,3.2.4,MacIntel,60,,,,,,,,,,,,,,,,,1,0,330,125,1,329,1,,,,,,
,,0,318,,,,,,,,,,,,,1,3,1,stim/31.jpeg,Instruments,1,stim/objects/Instruments/record3.png,0.5,4,0.2,-0.15,left,61,2021-03-30_07h05.47.748,premup-three_ses-02_part-02_label-phase2,3.2.4,MacIntel,60,,,,,,,,,,,,,,,,,1,0,330,12,1,329,1,,,,,,
,,0,319,,,,,,,,,,,,,2,5,3,stim/53.jpeg,Instruments,1,stim/objects/Instruments/violin3.png,0.3,2,0.2,0.15,left,61,2021-03-30_07h05.47.748,premup-three_ses-02_part-02_label-phase2,3.2.4,MacIntel,60,,,,,,,,,,,,,,,,,1,0,330,62,1,329,1,,,,,,
right,0.769000053,0,320,,,,,,,,,,,,,3,1,2,stim/12.jpeg,Instruments,1,stim/objects/Instruments/saxophone4.png,0.1,4,0.2,-0.15,left,61,2021-03-30_07h05.47.748,premup-three_ses-02_part-02_label-phase2,3.2.4,MacIntel,60,,,,,,,,,,,,,,,,,1,0,330,139,1,329,1,,,,,,
,,0,321,,,,,,,,,,,,,3,1,3,stim/13.jpeg,HouseObjects,2,stim/objects/HouseObjects/lintroller3.png,0.9,4,0.2,-0.15,right,61,2021-03-30_07h05.47.748,premup-three_ses-02_part-02_label-phase2,3.2.4,MacIntel,60,,,,,,,,,,,,,,,,,1,0,330,216,1,329,2,,,,,,
right,0.467000246,1,322,,,,,,,,,,,,,3,1,1,stim/11.jpeg,HouseObjects,2,stim/objects/HouseObjects/knife3.png,0.9,4,0.2,-0.15,right,61,2021-03-30_07h05.47.748,premup-three_ses-02_part-02_label-phase2,3.2.4,MacIntel,60,,,,,,,,,,,,,,,,,1,0,330,190,1,329,2,,,,,,
right,0.452000141,0,323,,,,,,,,,,,,,3,2,3,stim/23.jpeg,Instruments,1,stim/objects/Instruments/metronome3.png,0.9,4,0.2,-0.15,left,61,2021-03-30_07h05.47.748,premup-three_ses-02_part-02_label-phase2,3.2.4,MacIntel,60,,,,,,,,,,,,,,,,,1,0,330,296,1,329,2,,,,,,
,,0,324,,,,,,,,,,,,,3,1,4,stim/14.jpeg,HouseObjects,2,stim/objects/HouseObjects/match3.png,0.9,2,0.2,0.15,right,61,2021-03-30_07h05.47.748,premup-three_ses-02_part-02_label-phase2,3.2.4,MacIntel,60,,,,,,,,,,,,,,,,,1,0,330,217,1,329,2,,,,,,
right,0.245000124,1,325,,,,,,,,,,,,,3,2,3,stim/23.jpeg,HouseObjects,2,stim/objects/HouseObjects/vacuumcleaner4.png,0.1,4,0.2,-0.15,right,61,2021-03-30_07h05.47.748,premup-three_ses-02_part-02_label-phase2,3.2.4,MacIntel,60,,,,,,,,,,,,,,,,,1,0,330,328,1,329,1,,,,,,
right,0.596000195,1,326,,,,,,,,,,,,,3,1,4,stim/14.jpeg,HouseObjects,2,stim/objects/HouseObjects/pan3.png,0.9,4,0.2,-0.15,right,61,2021-03-30_07h05.47.748,premup-three_ses-02_part-02_label-phase2,3.2.4,MacIntel,60,,,,,,,,,,,,,,,,,1,0,330,213,1,329,2,,,,,,
,,0,327,,,,,,,,,,,,,1,4,1,stim/41.jpeg,HouseObjects,2,stim/objects/HouseObjects/bucket3.png,0.5,2,0.2,0.15,right,61,2021-03-30_07h05.47.748,premup-three_ses-02_part-02_label-phase2,3.2.4,MacIntel,60,,,,,,,,,,,,,,,,,1,0,330,48,1,329,2,,,,,,
left,0.845000029,1,328,,,,,,,,,,,,,3,2,4,stim/24.jpeg,Instruments,1,stim/objects/Instruments/oboe3.png,0.9,1,-0.2,0.15,left,61,2021-03-30_07h05.47.748,premup-three_ses-02_part-02_label-phase2,3.2.4,MacIntel,60,,,,,,,,,,,,,,,,,1,0,330,289,1,329,2,,,,,,
left,0.618000269,0,329,,,,,,,,,,,,,3,1,3,stim/13.jpeg,HouseObjects,2,stim/objects/HouseObjects/lintroller3.png,0.9,4,0.2,-0.15,right,61,2021-03-30_07h05.47.748,premup-three_ses-02_part-02_label-phase2,3.2.4,MacIntel,60,,,,,,,,,,,,,,,,,1,0,330,156,1,329,2,,,,,,
left,0.319000244,0,330,,,,,,,,,,,,,2,5,4,stim/54.jpeg,HouseObjects,2,stim/objects/HouseObjects/ironingboard3.png,0.7,4,0.2,-0.15,right,61,2021-03-30_07h05.47.748,premup-three_ses-02_part-02_label-phase2,3.2.4,MacIntel,60,,,,,,,,,,,,,,,,,1,0,330,83,1,329,2,,,,,,
left,0.519000292,0,331,,,,,,,,,,,,,2,6,4,stim/64.jpeg,HouseObjects,2,stim/objects/HouseObjects/clothespin4.png,0.3,1,-0.2,0.15,right,61,2021-03-30_07h05.47.748,premup-three_ses-02_part-02_label-phase2,3.2.4,MacIntel,60,,,,,,,,,,,,,,,,,1,0,330,126,1,329,1,,,,,,
left,0.63499999,1,332,,,,,,,,,,,,,3,2,1,stim/21.jpeg,Instruments,1,stim/objects/Instruments/oboe3.png,0.9,2,0.2,0.15,left,61,2021-03-30_07h05.47.748,premup-three_ses-02_part-02_label-phase2,3.2.4,MacIntel,60,,,,,,,,,,,,,,,,,1,0,330,294,1,329,2,,,,,,
,,0,333,,,,,,,,,,,,,3,1,4,stim/14.jpeg,HouseObjects,2,stim/objects/HouseObjects/safetypin4.png,0.9,1,-0.2,0.15,right,61,2021-03-30_07h05.47.748,premup-three_ses-02_part-02_label-phase2,3.2.4,MacIntel,60,,,,,,,,,,,,,,,,,1,0,330,229,1,329,1,,,,,,
right,0.262000322,1,334,,,,,,,,,,,,,1,4,4,stim/44.jpeg,HouseObjects,2,stim/objects/HouseObjects/broom3.png,0.5,4,0.2,-0.15,right,61,2021-03-30_07h05.47.748,premup-three_ses-02_part-02_label-phase2,3.2.4,MacIntel,60,,,,,,,,,,,,,,,,,1,0,330,47,1,329,2,,,,,,
left,0.550000191,1,335,,,,,,,,,,,,,3,2,2,stim/22.jpeg,Instruments,1,stim/objects/Instruments/musicstand3.png,0.9,1,-0.2,0.15,left,61,2021-03-30_07h05.47.748,premup-three_ses-02_part-02_label-phase2,3.2.4,MacIntel,60,,,,,,,,,,,,,,,,,1,0,330,243,1,329,2,,,,,,
left,0.845999956,0,336,,,,,,,,,,,,,3,1,3,stim/13.jpeg,HouseObjects,2,stim/objects/HouseObjects/pan3.png,0.9,1,-0.2,0.15,right,61,2021-03-30_07h05.47.748,premup-three_ses-02_part-02_label-phase2,3.2.4,MacIntel,60,,,,,,,,,,,,,,,,,1,0,330,148,1,329,2,,,,,,
right,0.701000214,1,337,,,,,,,,,,,,,1,4,4,stim/44.jpeg,HouseObjects,2,stim/objects/HouseObjects/teapot3.png,0.5,3,-0.2,-0.15,right,61,2021-03-30_07h05.47.748,premup-three_ses-02_part-02_label-phase2,3.2.4,MacIntel,60,,,,,,,,,,,,,,,,,1,0,330,59,1,329,1,,,,,,
right,0.83100009,1,338,,,,,,,,,,,,,1,3,3,stim/33.jpeg,HouseObjects,2,stim/objects/HouseObjects/remote3.png,0.5,2,0.2,0.15,right,61,2021-03-30_07h05.47.748,premup-three_ses-02_part-02_label-phase2,3.2.4,MacIntel,60,,,,,,,,,,,,,,,,,1,0,330,26,1,329,1,,,,,,
right,0.744000196,1,339,,,,,,,,,,,,,2,5,4,stim/54.jpeg,HouseObjects,2,stim/objects/HouseObjects/clothespin3.png,0.7,4,0.2,-0.15,right,61,2021-03-30_07h05.47.748,premup-three_ses-02_part-02_label-phase2,3.2.4,MacIntel,60,,,,,,,,,,,,,,,,,1,0,330,71,1,329,2,,,,,,
,,0,340,,,,,,,,,,,,,2,5,2,stim/52.jpeg,HouseObjects,2,stim/objects/HouseObjects/basket4.png,0.7,2,0.2,0.15,right,61,2021-03-30_07h05.47.748,premup-three_ses-02_part-02_label-phase2,3.2.4,MacIntel,60,,,,,,,,,,,,,,,,,1,0,330,93,1,329,1,,,,,,
left,0.485000134,1,341,,,,,,,,,,,,,2,5,3,stim/53.jpeg,Instruments,1,stim/objects/Instruments/acousticguitar4.png,0.3,3,-0.2,-0.15,left,61,2021-03-30_07h05.47.748,premup-three_ses-02_part-02_label-phase2,3.2.4,MacIntel,60,,,,,,,,,,,,,,,,,1,0,330,66,1,329,1,,,,,,
right,0.566000223,1,342,,,,,,,,,,,,,2,6,2,stim/62.jpeg,HouseObjects,2,stim/objects/HouseObjects/ironingboard4.png,0.3,1,-0.2,0.15,right,61,2021-03-30_07h05.47.748,premup-three_ses-02_part-02_label-phase2,3.2.4,MacIntel,60,,,,,,,,,,,,,,,,,1,0,330,128,1,329,1,,,,,,
left,0.412000179,0,343,,,,,,,,,,,,,3,1,4,stim/14.jpeg,HouseObjects,2,stim/objects/HouseObjects/knife3.png,0.9,1,-0.2,0.15,right,61,2021-03-30_07h05.47.748,premup-three_ses-02_part-02_label-phase2,3.2.4,MacIntel,60,,,,,,,,,,,,,,,,,1,0,330,185,1,329,2,,,,,,
right,0.266000032,0,344,,,,,,,,,,,,,3,1,3,stim/13.jpeg,Instruments,1,stim/objects/Instruments/pipepiano4.png,0.1,3,-0.2,-0.15,left,61,2021-03-30_07h05.47.748,premup-three_ses-02_part-02_label-phase2,3.2.4,MacIntel,60,,,,,,,,,,,,,,,,,1,0,330,136,1,329,1,,,,,,
left,0.282999992,1,345,,,,,,,,,,,,,1,3,4,stim/34.jpeg,Instruments,1,stim/objects/Instruments/balalaika3.png,0.5,4,0.2,-0.15,left,61,2021-03-30_07h05.47.748,premup-three_ses-02_part-02_label-phase2,3.2.4,MacIntel,60,,,,,,,,,,,,,,,,,1,0,330,7,1,329,2,,,,,,
left,0.784000158,0,346,,,,,,,,,,,,,1,4,1,stim/41.jpeg,HouseObjects,2,stim/objects/HouseObjects/scale3.png,0.5,1,-0.2,0.15,right,61,2021-03-30_07h05.47.748,premup-three_ses-02_part-02_label-phase2,3.2.4,MacIntel,60,,,,,,,,,,,,,,,,,1,0,330,56,1,329,1,,,,,,
right,0.052000046,1,347,,,,,,,,,,,,,2,6,1,stim/61.jpeg,HouseObjects,2,stim/objects/HouseObjects/iron4.png,0.3,1,-0.2,0.15,right,61,2021-03-30_07h05.47.748,premup-three_ses-02_part-02_label-phase2,3.2.4,MacIntel,60,,,,,,,,,,,,,,,,,1,0,330,127,1,329,1,,,,,,
right,0.350000143,0,348,,,,,,,,,,,,,2,6,1,stim/61.jpeg,Instruments,1,stim/objects/Instruments/keyboard3.png,0.7,1,-0.2,0.15,left,61,2021-03-30_07h05.47.748,premup-three_ses-02_part-02_label-phase2,3.2.4,MacIntel,60,,,,,,,,,,,,,,,,,1,0,330,107,1,329,2,,,,,,
right,0.644999981,1,349,,,,,,,,,,,,,3,1,4,stim/14.jpeg,HouseObjects,2,stim/objects/HouseObjects/knife3.png,0.9,3,-0.2,-0.15,right,61,2021-03-30_07h05.47.748,premup-three_ses-02_part-02_label-phase2,3.2.4,MacIntel,60,,,,,,,,,,,,,,,,,1,0,330,145,1,329,2,,,,,,
right,0.200000048,0,350,,,,,,,,,,,,,2,5,2,stim/52.jpeg,Instruments,1,stim/objects/Instruments/tuba3.png,0.3,4,0.2,-0.15,left,61,2021-03-30_07h05.47.748,premup-three_ses-02_part-02_label-phase2,3.2.4,MacIntel,60,,,,,,,,,,,,,,,,,1,0,330,61,1,329,1,,,,,,
left,0.236000061,0,351,,,,,,,,,,,,,3,1,4,stim/14.jpeg,HouseObjects,2,stim/objects/HouseObjects/knife3.png,0.9,2,0.2,0.15,right,61,2021-03-30_07h05.47.748,premup-three_ses-02_part-02_label-phase2,3.2.4,MacIntel,60,,,,,,,,,,,,,,,,,1,0,330,205,1,329,2,,,,,,
right,0.302000046,1,352,,,,,,,,,,,,,3,1,1,stim/11.jpeg,HouseObjects,2,stim/objects/HouseObjects/match3.png,0.9,3,-0.2,-0.15,right,61,2021-03-30_07h05.47.748,premup-three_ses-02_part-02_label-phase2,3.2.4,MacIntel,60,,,,,,,,,,,,,,,,,1,0,330,202,1,329,2,,,,,,
left,0.661000013,1,353,,,,,,,,,,,,,3,2,1,stim/21.jpeg,Instruments,1,stim/objects/Instruments/marimba3.png,0.9,2,0.2,0.15,left,61,2021-03-30_07h05.47.748,premup-three_ses-02_part-02_label-phase2,3.2.4,MacIntel,60,,,,,,,,,,,,,,,,,1,0,330,270,1,329,2,,,,,,
left,0.416000128,1,354,,,,,,,,,,,,,3,2,4,stim/24.jpeg,Instruments,1,stim/objects/Instruments/musicstand3.png,0.9,3,-0.2,-0.15,left,61,2021-03-30_07h05.47.748,premup-three_ses-02_part-02_label-phase2,3.2.4,MacIntel,60,,,,,,,,,,,,,,,,,1,0,330,233,1,329,2,,,,,,
right,0.669000149,0,355,,,,,,,,,,,,,3,2,3,stim/23.jpeg,Instruments,1,stim/objects/Instruments/marimba3.png,0.9,1,-0.2,0.15,left,61,2021-03-30_07h05.47.748,premup-three_ses-02_part-02_label-phase2,3.2.4,MacIntel,60,,,,,,,,,,,,,,,,,1,0,330,300,1,329,2,,,,,,
right,0.627000093,1,356,,,,,,,,,,,,,1,4,3,stim/43.jpeg,HouseObjects,2,stim/objects/HouseObjects/bottle3.png,0.5,4,0.2,-0.15,right,61,2021-03-30_07h05.47.748,premup-three_ses-02_part-02_label-phase2,3.2.4,MacIntel,60,,,,,,,,,,,,,,,,,1,0,330,46,1,329,2,,,,,,
left,0.327000141,0,357,,,,,,,,,,,,,2,6,2,stim/62.jpeg,HouseObjects,2,stim/objects/HouseObjects/blender4.png,0.3,1,-0.2,0.15,right,61,2021-03-30_07h05.47.748,premup-three_ses-02_part-02_label-phase2,3.2.4,MacIntel,60,,,,,,,,,,,,,,,,,1,0,330,120,1,329,1,,,,,,
right,0.218000174,1,358,,,,,,,,,,,,,3,1,3,stim/13.jpeg,HouseObjects,2,stim/objects/HouseObjects/match3.png,0.9,4,0.2,-0.15,right,61,2021-03-30_07h05.47.748,premup-three_ses-02_part-02_label-phase2,3.2.4,MacIntel,60,,,,,,,,,,,,,,,,,1,0,330,192,1,329,2,,,,,,
right,0.452000141,0,359,,,,,,,,,,,,,1,3,2,stim/32.jpeg,Instruments,1,stim/objects/Instruments/bassdrum3.png,0.5,1,-0.2,0.15,left,61,2021-03-30_07h05.47.748,premup-three_ses-02_part-02_label-phase2,3.2.4,MacIntel,60,,,,,,,,,,,,,,,,,1,0,330,9,1,329,2,,,,,,
right,0.595000267,0,360,,,,,,,,,,,,,1,3,2,stim/32.jpeg,Instruments,1,stim/objects/Instruments/accordion3.png,0.5,1,-0.2,0.15,left,61,2021-03-30_07h05.47.748,premup-three_ses-02_part-02_label-phase2,3.2.4,MacIntel,60,,,,,,,,,,,,,,,,,1,0,330,5,1,329,2,,,,,,
left,0.86400032,1,361,,,,,,,,,,,,,3,2,2,stim/22.jpeg,Instruments,1,stim/objects/Instruments/musicsheet3.png,0.9,2,0.2,0.15,left,61,2021-03-30_07h05.47.748,premup-three_ses-02_part-02_label-phase2,3.2.4,MacIntel,60,,,,,,,,,,,,,,,,,1,0,330,247,1,329,2,,,,,,
left,0.895000219,0,362,,,,,,,,,,,,,2,6,2,stim/62.jpeg,HouseObjects,2,stim/objects/HouseObjects/clock4.png,0.3,2,0.2,0.15,right,61,2021-03-30_07h05.47.748,premup-three_ses-02_part-02_label-phase2,3.2.4,MacIntel,60,,,,,,,,,,,,,,,,,1,0,330,124,1,329,1,,,,,,
left,0.436000109,1,363,,,,,,,,,,,,,3,2,1,stim/21.jpeg,Instruments,1,stim/objects/Instruments/metronome3.png,0.9,4,0.2,-0.15,left,61,2021-03-30_07h05.47.748,premup-three_ses-02_part-02_label-phase2,3.2.4,MacIntel,60,,,,,,,,,,,,,,,,,1,0,330,246,1,329,2,,,,,,
left,0.444000244,0,364,,,,,,,,,,,,,3,1,4,stim/14.jpeg,HouseObjects,2,stim/objects/HouseObjects/pan3.png,0.9,3,-0.2,-0.15,right,61,2021-03-30_07h05.47.748,premup-three_ses-02_part-02_label-phase2,3.2.4,MacIntel,60,,,,,,,,,,,,,,,,,1,0,330,153,1,329,2,,,,,,
left,0.542000055,0,365,,,,,,,,,,,,,1,3,3,stim/33.jpeg,HouseObjects,2,stim/objects/HouseObjects/barbecuelighter3.png,0.5,1,-0.2,0.15,right,61,2021-03-30_07h05.47.748,premup-three_ses-02_part-02_label-phase2,3.2.4,MacIntel,60,,,,,,,,,,,,,,,,,1,0,330,22,1,329,2,,,,,,
left,0.813000202,1,366,,,,,,,,,,,,,1,4,4,stim/44.jpeg,Instruments,1,stim/objects/Instruments/triangle3.png,0.5,1,-0.2,0.15,left,61,2021-03-30_07h05.47.748,premup-three_ses-02_part-02_label-phase2,3.2.4,MacIntel,60,,,,,,,,,,,,,,,,,1,0,330,43,1,329,1,,,,,,
,,0,367,,,,,,,,,,,,,3,2,1,stim/21.jpeg,HouseObjects,2,stim/objects/HouseObjects/thread4.png,0.1,3,-0.2,-0.15,right,61,2021-03-30_07h05.47.748,premup-three_ses-02_part-02_label-phase2,3.2.4,MacIntel,60,,,,,,,,,,,,,,,,,1,0,330,326,1,329,1,,,,,,
right,0.298000336,0,368,,,,,,,,,,,,,3,2,1,stim/21.jpeg,Instruments,1,stim/objects/Instruments/metronome3.png,0.9,2,0.2,0.15,left,61,2021-03-30_07h05.47.748,premup-three_ses-02_part-02_label-phase2,3.2.4,MacIntel,60,,,,,,,,,,,,,,,,,1,0,330,266,1,329,2,,,,,,
,,0,369,,,,,,,,,,,,,3,2,4,stim/24.jpeg,Instruments,1,stim/objects/Instruments/violin4.png,0.9,3,-0.2,-0.15,left,61,2021-03-30_07h05.47.748,premup-three_ses-02_part-02_label-phase2,3.2.4,MacIntel,60,,,,,,,,,,,,,,,,,1,0,330,317,1,329,1,,,,,,
right,0.566000223,1,370,,,,,,,,,,,,,1,4,2,stim/42.jpeg,HouseObjects,2,stim/objects/HouseObjects/clock3.png,0.5,4,0.2,-0.15,right,61,2021-03-30_07h05.47.748,premup-three_ses-02_part-02_label-phase2,3.2.4,MacIntel,60,,,,,,,,,,,,,,,,,1,0,330,49,1,329,2,,,,,,
right,0.220000029,1,371,,,,,,,,,,,,,3,1,4,stim/14.jpeg,HouseObjects,2,stim/objects/HouseObjects/lintroller3.png,0.9,2,0.2,0.15,right,61,2021-03-30_07h05.47.748,premup-three_ses-02_part-02_label-phase2,3.2.4,MacIntel,60,,,,,,,,,,,,,,,,,1,0,330,161,1,329,2,,,,,,
left,0.219000101,0,372,,,,,,,,,,,,,3,1,4,stim/14.jpeg,HouseObjects,2,stim/objects/HouseObjects/match3.png,0.9,2,0.2,0.15,right,61,2021-03-30_07h05.47.748,premup-three_ses-02_part-02_label-phase2,3.2.4,MacIntel,60,,,,,,,,,,,,,,,,,1,0,330,157,1,329,2,,,,,,
left,0.210999966,0,373,,,,,,,,,,,,,2,5,3,stim/53.jpeg,HouseObjects,2,stim/objects/HouseObjects/clothesdryingrack3.png,0.7,3,-0.2,-0.15,right,61,2021-03-30_07h05.47.748,premup-three_ses-02_part-02_label-phase2,3.2.4,MacIntel,60,,,,,,,,,,,,,,,,,1,0,330,70,1,329,2,,,,,,
left,0.097000122,1,374,,,,,,,,,,,,,1,3,1,stim/31.jpeg,Instruments,1,stim/objects/Instruments/accordion3.png,0.5,1,-0.2,0.15,left,61,2021-03-30_07h05.47.748,premup-three_ses-02_part-02_label-phase2,3.2.4,MacIntel,60,,,,,,,,,,,,,,,,,1,0,330,0,1,329,2,,,,,,
left,0.398000002,0,375,,,,,,,,,,,,,3,1,2,stim/12.jpeg,HouseObjects,2,stim/objects/HouseObjects/rubbergloves4.png,0.9,2,0.2,0.15,right,61,2021-03-30_07h05.47.748,premup-three_ses-02_part-02_label-phase2,3.2.4,MacIntel,60,,,,,,,,,,,,,,,,,1,0,330,227,1,329,1,,,,,,
right,0.529000282,0,376,,,,,,,,,,,,,2,6,2,stim/62.jpeg,Instruments,1,stim/objects/Instruments/chime4.png,0.7,4,0.2,-0.15,left,61,2021-03-30_07h05.47.748,premup-three_ses-02_part-02_label-phase2,3.2.4,MacIntel,60,,,,,,,,,,,,,,,,,1,0,330,112,1,329,1,,,,,,
right,0.081000328,1,377,,,,,,,,,,,,,3,1,2,stim/12.jpeg,HouseObjects,2,stim/objects/HouseObjects/match3.png,0.9,2,0.2,0.15,right,61,2021-03-30_07h05.47.748,premup-three_ses-02_part-02_label-phase2,3.2.4,MacIntel,60,,,,,,,,,,,,,,,,,1,0,330,167,1,329,2,,,,,,
