key_resp_pract.keys,key_resp_pract.rt,trial_acc,trial_index,practice_loop.thisRepN,practice_loop.thisTrialN,practice_loop.thisN,practice_loop.thisIndex,practice_loop.ran,practice_loop.order,scn_condition,scn_cat,scn_inst,scn_file,obj_cat,obj_cat_num,obj_file,trial_cond,quadrant,obj_x,obj_y,corr_ans,participant,date,expName,psychopyVersion,OS,frameRate,key_resp_trial.keys,key_resp_trial.rt,iterations.thisRepN,iterations.thisTrialN,iterations.thisN,iterations.thisIndex,iterations.ran,iterations.order,task_innerloop.thisRepN,task_innerloop.thisTrialN,task_innerloop.thisN,task_innerloop.thisIndex,task_innerloop.ran,task_innerloop.order,iteration_index,rating_acc,slider.response,slider.rt,slider_2.response,slider_2.rt,ratings.thisRepN,ratings.thisTrialN,ratings.thisN,ratings.thisIndex,ratings.ran,ratings.order,obj_cat_top,min_resp_top,max_resp_top,obj_cat_bottom,min_resp_bottom,max_resp_bottom
,,0,1,1,0,240,51,1,239,1,4,4,stim/44.jpeg,Instruments,1,stim/objects/Instruments/grandpiano.png,0.5,3,-0.2,-0.15,left,61,2021-03-29_07h15.47.725,premup-three_ses-01_part-01_label-phase1,3.2.4,MacIntel,60,,,,,,,,,,,,,,,,,,,,,,,,,,,,,,,,
left,0.943000078,0,2,1,0,240,31,1,239,1,3,4,stim/34.jpeg,HouseObjects,2,stim/objects/HouseObjects/doormat.png,0.5,1,-0.2,0.15,right,61,2021-03-29_07h15.47.725,premup-three_ses-01_part-01_label-phase1,3.2.4,MacIntel,60,,,,,,,,,,,,,,,,,,,,,,,,,,,,,,,,
left,1.230999947,0,3,1,0,240,119,1,239,2,5,4,stim/54.jpeg,HouseObjects,2,stim/objects/HouseObjects/handvacuum.png,0.7,4,0.2,-0.15,right,61,2021-03-29_07h15.47.725,premup-three_ses-01_part-01_label-phase1,3.2.4,MacIntel,60,,,,,,,,,,,,,,,,,,,,,,,,,,,,,,,,
left,1.549000025,0,4,1,0,240,97,1,239,2,5,2,stim/52.jpeg,HouseObjects,2,stim/objects/HouseObjects/hairdryer.png,0.7,1,-0.2,0.15,right,61,2021-03-29_07h15.47.725,premup-three_ses-01_part-01_label-phase1,3.2.4,MacIntel,60,,,,,,,,,,,,,,,,,,,,,,,,,,,,,,,,
left,0.924000025,1,5,1,0,240,18,1,239,1,3,3,stim/33.jpeg,Instruments,1,stim/objects/Instruments/electricguitar.png,0.5,1,-0.2,0.15,left,61,2021-03-29_07h15.47.725,premup-three_ses-01_part-01_label-phase1,3.2.4,MacIntel,60,,,,,,,,,,,,,,,,,,,,,,,,,,,,,,,,
left,1.070999861,0,6,1,0,240,68,1,239,1,4,1,stim/41.jpeg,HouseObjects,2,stim/objects/HouseObjects/dustpan.png,0.5,4,0.2,-0.15,right,61,2021-03-29_07h15.47.725,premup-three_ses-01_part-01_label-phase1,3.2.4,MacIntel,60,,,,,,,,,,,,,,,,,,,,,,,,,,,,,,,,
left,1.289000034,1,7,1,0,240,17,1,239,1,3,2,stim/32.jpeg,Instruments,1,stim/objects/Instruments/electricdrumset.png,0.5,2,0.2,0.15,left,61,2021-03-29_07h15.47.725,premup-three_ses-01_part-01_label-phase1,3.2.4,MacIntel,60,,,,,,,,,,,,,,,,,,,,,,,,,,,,,,,,
left,1.047999859,0,8,1,0,240,34,1,239,1,3,3,stim/33.jpeg,HouseObjects,2,stim/objects/HouseObjects/dishsoap.png,0.5,4,0.2,-0.15,right,61,2021-03-29_07h15.47.725,premup-three_ses-01_part-01_label-phase1,3.2.4,MacIntel,60,,,,,,,,,,,,,,,,,,,,,,,,,,,,,,,,
left,1.741000175,1,9,1,0,240,120,1,239,2,6,1,stim/61.jpeg,Instruments,1,stim/objects/Instruments/drums2.png,0.7,1,-0.2,0.15,left,61,2021-03-29_07h15.47.725,premup-three_ses-01_part-01_label-phase1,3.2.4,MacIntel,60,,,,,,,,,,,,,,,,,,,,,,,,,,,,,,,,
right,1.25999999,0,10,1,0,240,56,1,239,1,4,1,stim/41.jpeg,Instruments,1,stim/objects/Instruments/flutetrans.png,0.5,2,0.2,0.15,left,61,2021-03-29_07h15.47.725,premup-three_ses-01_part-01_label-phase1,3.2.4,MacIntel,60,,,,,,,,,,,,,,,,,,,,,,,,,,,,,,,,
,,0,1,,,,,,,3,2,2,stim/22.jpeg,Instruments,1,stim/objects/Instruments/harmonica2.png,0.9,4,0.2,-0.15,left,61,2021-03-29_07h15.47.725,premup-three_ses-01_part-01_label-phase1,3.2.4,MacIntel,60,right,1.258000135,4,0,4,0,1,3,1,0,240,233,1,239,,,,,,,,,,,,,,,,,,
,,0,2,,,,,,,2,5,1,stim/51.jpeg,Instruments,1,stim/objects/Instruments/guitarcase.png,0.3,3,-0.2,-0.15,left,61,2021-03-29_07h15.47.725,premup-three_ses-01_part-01_label-phase1,3.2.4,MacIntel,60,right,1.605999947,4,0,4,0,1,3,1,0,240,80,1,239,,,,,,,,,,,,,,,,,,
,,0,3,,,,,,,3,1,4,stim/14.jpeg,HouseObjects,2,stim/objects/HouseObjects/glass2.png,0.9,1,-0.2,0.15,right,61,2021-03-29_07h15.47.725,premup-three_ses-01_part-01_label-phase1,3.2.4,MacIntel,60,left,1.492000103,4,0,4,0,1,3,1,0,240,183,1,239,,,,,,,,,,,,,,,,,,
,,0,4,,,,,,,2,6,1,stim/61.jpeg,Instruments,1,stim/objects/Instruments/drums2.png,0.7,4,0.2,-0.15,left,61,2021-03-29_07h15.47.725,premup-three_ses-01_part-01_label-phase1,3.2.4,MacIntel,60,right,1.078999996,4,0,4,0,1,3,1,0,240,144,1,239,,,,,,,,,,,,,,,,,,
,,1,5,,,,,,,2,5,2,stim/52.jpeg,HouseObjects,2,stim/objects/HouseObjects/hairdryer.png,0.7,4,0.2,-0.15,right,61,2021-03-29_07h15.47.725,premup-three_ses-01_part-01_label-phase1,3.2.4,MacIntel,60,right,0.916000128,4,0,4,0,1,3,1,0,240,109,1,239,,,,,,,,,,,,,,,,,,
,,0,6,,,,,,,1,4,4,stim/44.jpeg,HouseObjects,2,stim/objects/HouseObjects/glass.png,0.5,3,-0.2,-0.15,right,61,2021-03-29_07h15.47.725,premup-three_ses-01_part-01_label-phase1,3.2.4,MacIntel,60,left,1.080000162,4,0,4,0,1,3,1,0,240,71,1,239,,,,,,,,,,,,,,,,,,
,,0,7,,,,,,,3,1,4,stim/14.jpeg,Instruments,1,stim/objects/Instruments/grandpiano2.png,0.1,2,0.2,0.15,left,61,2021-03-29_07h15.47.725,premup-three_ses-01_part-01_label-phase1,3.2.4,MacIntel,60,,,4,0,4,0,1,3,1,0,240,163,1,239,,,,,,,,,,,,,,,,,,
,,0,8,,,,,,,2,6,1,stim/61.jpeg,Instruments,1,stim/objects/Instruments/drums2.png,0.7,4,0.2,-0.15,left,61,2021-03-29_07h15.47.725,premup-three_ses-01_part-01_label-phase1,3.2.4,MacIntel,60,right,0.64199996,4,0,4,0,1,3,1,0,240,140,1,239,,,,,,,,,,,,,,,,,,
,,1,9,,,,,,,1,3,1,stim/31.jpeg,Instruments,1,stim/objects/Instruments/drums.png,0.5,2,0.2,0.15,left,61,2021-03-29_07h15.47.725,premup-three_ses-01_part-01_label-phase1,3.2.4,MacIntel,60,left,1.208000183,4,0,4,0,1,3,1,0,240,12,1,239,,,,,,,,,,,,,,,,,,
,,0,10,,,,,,,3,2,2,stim/22.jpeg,Instruments,1,stim/objects/Instruments/harmonica2.png,0.9,2,0.2,0.15,left,61,2021-03-29_07h15.47.725,premup-three_ses-01_part-01_label-phase1,3.2.4,MacIntel,60,right,1.328999996,4,0,4,0,1,3,1,0,240,205,1,239,,,,,,,,,,,,,,,,,,
,,0,11,,,,,,,3,1,2,stim/12.jpeg,HouseObjects,2,stim/objects/HouseObjects/flyswatter2.png,0.9,2,0.2,0.15,right,61,2021-03-29_07h15.47.725,premup-three_ses-01_part-01_label-phase1,3.2.4,MacIntel,60,left,1.470999956,4,0,4,0,1,3,1,0,240,185,1,239,,,,,,,,,,,,,,,,,,
,,1,12,,,,,,,1,3,3,stim/33.jpeg,Instruments,1,stim/objects/Instruments/electricguitar.png,0.5,4,0.2,-0.15,left,61,2021-03-29_07h15.47.725,premup-three_ses-01_part-01_label-phase1,3.2.4,MacIntel,60,left,1.109999895,4,0,4,0,1,3,1,0,240,14,1,239,,,,,,,,,,,,,,,,,,
,,0,13,,,,,,,1,3,3,stim/33.jpeg,HouseObjects,2,stim/objects/HouseObjects/dishsoap.png,0.5,2,0.2,0.15,right,61,2021-03-29_07h15.47.725,premup-three_ses-01_part-01_label-phase1,3.2.4,MacIntel,60,left,0.598999977,4,0,4,0,1,3,1,0,240,26,1,239,,,,,,,,,,,,,,,,,,
,,1,14,,,,,,,1,3,1,stim/31.jpeg,Instruments,1,stim/objects/Instruments/drums.png,0.5,2,0.2,0.15,left,61,2021-03-29_07h15.47.725,premup-three_ses-01_part-01_label-phase1,3.2.4,MacIntel,60,left,0.635999918,4,0,4,0,1,3,1,0,240,0,1,239,,,,,,,,,,,,,,,,,,
,,1,15,,,,,,,2,6,3,stim/63.jpeg,HouseObjects,2,stim/objects/HouseObjects/dishsoap2.png,0.3,2,0.2,0.15,right,61,2021-03-29_07h15.47.725,premup-three_ses-01_part-01_label-phase1,3.2.4,MacIntel,60,right,0.598999977,4,0,4,0,1,3,1,0,240,154,1,239,,,,,,,,,,,,,,,,,,
,,1,16,,,,,,,2,5,4,stim/54.jpeg,HouseObjects,2,stim/objects/HouseObjects/handvacuum.png,0.7,3,-0.2,-0.15,right,61,2021-03-29_07h15.47.725,premup-three_ses-01_part-01_label-phase1,3.2.4,MacIntel,60,right,1.545000076,4,0,4,0,1,3,1,0,240,95,1,239,,,,,,,,,,,,,,,,,,
,,1,17,,,,,,,2,5,2,stim/52.jpeg,HouseObjects,2,stim/objects/HouseObjects/hairdryer.png,0.7,2,0.2,0.15,right,61,2021-03-29_07h15.47.725,premup-three_ses-01_part-01_label-phase1,3.2.4,MacIntel,60,right,0.844000101,4,0,4,0,1,3,1,0,240,105,1,239,,,,,,,,,,,,,,,,,,
,,1,18,,,,,,,2,6,2,stim/62.jpeg,Instruments,1,stim/objects/Instruments/electricdrumset2.png,0.7,4,0.2,-0.15,left,61,2021-03-29_07h15.47.725,premup-three_ses-01_part-01_label-phase1,3.2.4,MacIntel,60,left,1.23300004,4,0,4,0,1,3,1,0,240,145,1,239,,,,,,,,,,,,,,,,,,
,,1,19,,,,,,,1,3,3,stim/33.jpeg,Instruments,1,stim/objects/Instruments/electricguitar.png,0.5,1,-0.2,0.15,left,61,2021-03-29_07h15.47.725,premup-three_ses-01_part-01_label-phase1,3.2.4,MacIntel,60,left,0.663000107,4,0,4,0,1,3,1,0,240,10,1,239,,,,,,,,,,,,,,,,,,
,,1,20,,,,,,,3,1,3,stim/13.jpeg,HouseObjects,2,stim/objects/HouseObjects/garbagebin2.png,0.9,2,0.2,0.15,right,61,2021-03-29_07h15.47.725,premup-three_ses-01_part-01_label-phase1,3.2.4,MacIntel,60,right,0.773999929,4,0,4,0,1,3,1,0,240,178,1,239,,,,,,,,,,,,,,,,,,
,,0,21,,,,,,,3,1,1,stim/11.jpeg,Instruments,1,stim/objects/Instruments/flutetrans2.png,0.1,3,-0.2,-0.15,left,61,2021-03-29_07h15.47.725,premup-three_ses-01_part-01_label-phase1,3.2.4,MacIntel,60,right,0.987999916,4,0,4,0,1,3,1,0,240,160,1,239,,,,,,,,,,,,,,,,,,
,,0,22,,,,,,,1,3,2,stim/32.jpeg,HouseObjects,2,stim/objects/HouseObjects/cushion.png,0.5,4,0.2,-0.15,right,61,2021-03-29_07h15.47.725,premup-three_ses-01_part-01_label-phase1,3.2.4,MacIntel,60,left,0.69900012,4,0,4,0,1,3,1,0,240,37,1,239,,,,,,,,,,,,,,,,,,
,,0,23,,,,,,,3,2,1,stim/21.jpeg,Instruments,1,stim/objects/Instruments/guitarcase2.png,0.9,2,0.2,0.15,left,61,2021-03-29_07h15.47.725,premup-three_ses-01_part-01_label-phase1,3.2.4,MacIntel,60,right,1.093999863,4,0,4,0,1,3,1,0,240,212,1,239,,,,,,,,,,,,,,,,,,
,,0,24,,,,,,,3,1,2,stim/12.jpeg,HouseObjects,2,stim/objects/HouseObjects/flyswatter2.png,0.9,4,0.2,-0.15,right,61,2021-03-29_07h15.47.725,premup-three_ses-01_part-01_label-phase1,3.2.4,MacIntel,60,left,0.532000065,4,0,4,0,1,3,1,0,240,189,1,239,,,,,,,,,,,,,,,,,,
,,0,25,,,,,,,1,4,3,stim/43.jpeg,Instruments,1,stim/objects/Instruments/gong.png,0.5,2,0.2,0.15,left,61,2021-03-29_07h15.47.725,premup-three_ses-01_part-01_label-phase1,3.2.4,MacIntel,60,right,1.403999805,4,0,4,0,1,3,1,0,240,58,1,239,,,,,,,,,,,,,,,,,,
,,1,26,,,,,,,1,3,2,stim/32.jpeg,Instruments,1,stim/objects/Instruments/electricdrumset.png,0.5,2,0.2,0.15,left,61,2021-03-29_07h15.47.725,premup-three_ses-01_part-01_label-phase1,3.2.4,MacIntel,60,left,0.843999863,4,0,4,0,1,3,1,0,240,17,1,239,,,,,,,,,,,,,,,,,,
,,1,27,,,,,,,1,4,1,stim/41.jpeg,HouseObjects,2,stim/objects/HouseObjects/dustpan.png,0.5,4,0.2,-0.15,right,61,2021-03-29_07h15.47.725,premup-three_ses-01_part-01_label-phase1,3.2.4,MacIntel,60,right,1.326999903,4,0,4,0,1,3,1,0,240,76,1,239,,,,,,,,,,,,,,,,,,
,,0,28,,,,,,,3,1,3,stim/13.jpeg,HouseObjects,2,stim/objects/HouseObjects/garbagebin2.png,0.9,1,-0.2,0.15,right,61,2021-03-29_07h15.47.725,premup-three_ses-01_part-01_label-phase1,3.2.4,MacIntel,60,left,0.874000072,4,0,4,0,1,3,1,0,240,182,1,239,,,,,,,,,,,,,,,,,,
,,1,29,,,,,,,1,4,1,stim/41.jpeg,HouseObjects,2,stim/objects/HouseObjects/dustpan.png,0.5,4,0.2,-0.15,right,61,2021-03-29_07h15.47.725,premup-three_ses-01_part-01_label-phase1,3.2.4,MacIntel,60,right,0.375999928,4,0,4,0,1,3,1,0,240,64,1,239,,,,,,,,,,,,,,,,,,
,,1,30,,,,,,,3,2,1,stim/21.jpeg,Instruments,1,stim/objects/Instruments/guitarcase2.png,0.9,2,0.2,0.15,left,61,2021-03-29_07h15.47.725,premup-three_ses-01_part-01_label-phase1,3.2.4,MacIntel,60,left,0.299999952,4,0,4,0,1,3,1,0,240,224,1,239,,,,,,,,,,,,,,,,,,
,,0,31,,,,,,,1,4,3,stim/43.jpeg,HouseObjects,2,stim/objects/HouseObjects/garbagebin.png,0.5,1,-0.2,0.15,right,61,2021-03-29_07h15.47.725,premup-three_ses-01_part-01_label-phase1,3.2.4,MacIntel,60,left,0.460999966,4,0,4,0,1,3,1,0,240,78,1,239,,,,,,,,,,,,,,,,,,
,,0,32,,,,,,,1,4,2,stim/42.jpeg,Instruments,1,stim/objects/Instruments/frenchhorn.png,0.5,2,0.2,0.15,left,61,2021-03-29_07h15.47.725,premup-three_ses-01_part-01_label-phase1,3.2.4,MacIntel,60,right,0.15899992,4,0,4,0,1,3,1,0,240,41,1,239,,,,,,,,,,,,,,,,,,
,,1,33,,,,,,,2,6,4,stim/64.jpeg,Instruments,1,stim/objects/Instruments/flute2.png,0.7,2,0.2,0.15,left,61,2021-03-29_07h15.47.725,premup-three_ses-01_part-01_label-phase1,3.2.4,MacIntel,60,left,0.084000111,4,0,4,0,1,3,1,0,240,135,1,239,,,,,,,,,,,,,,,,,,
,,1,34,,,,,,,1,3,1,stim/31.jpeg,Instruments,1,stim/objects/Instruments/drums.png,0.5,1,-0.2,0.15,left,61,2021-03-29_07h15.47.725,premup-three_ses-01_part-01_label-phase1,3.2.4,MacIntel,60,left,0.926000118,4,0,4,0,1,3,1,0,240,4,1,239,,,,,,,,,,,,,,,,,,
,,0,35,,,,,,,2,6,3,stim/63.jpeg,Instruments,1,stim/objects/Instruments/electricguitar2.png,0.7,3,-0.2,-0.15,left,61,2021-03-29_07h15.47.725,premup-three_ses-01_part-01_label-phase1,3.2.4,MacIntel,60,right,0.395999908,4,0,4,0,1,3,1,0,240,122,1,239,,,,,,,,,,,,,,,,,,
,,0,36,,,,,,,3,1,1,stim/11.jpeg,HouseObjects,2,stim/objects/HouseObjects/dustpan2.png,0.9,4,0.2,-0.15,right,61,2021-03-29_07h15.47.725,premup-three_ses-01_part-01_label-phase1,3.2.4,MacIntel,60,left,0.000999928,4,0,4,0,1,3,1,0,240,176,1,239,,,,,,,,,,,,,,,,,,
,,1,37,,,,,,,1,3,4,stim/34.jpeg,Instruments,1,stim/objects/Instruments/flute.png,0.5,3,-0.2,-0.15,left,61,2021-03-29_07h15.47.725,premup-three_ses-01_part-01_label-phase1,3.2.4,MacIntel,60,left,0.359999895,4,0,4,0,1,3,1,0,240,15,1,239,,,,,,,,,,,,,,,,,,
,,0,38,,,,,,,1,4,1,stim/41.jpeg,Instruments,1,stim/objects/Instruments/flutetrans.png,0.5,2,0.2,0.15,left,61,2021-03-29_07h15.47.725,premup-three_ses-01_part-01_label-phase1,3.2.4,MacIntel,60,right,0.661000013,4,0,4,0,1,3,1,0,240,40,1,239,,,,,,,,,,,,,,,,,,
,,1,39,,,,,,,1,4,1,stim/41.jpeg,Instruments,1,stim/objects/Instruments/flutetrans.png,0.5,4,0.2,-0.15,left,61,2021-03-29_07h15.47.725,premup-three_ses-01_part-01_label-phase1,3.2.4,MacIntel,60,left,0.431999922,4,0,4,0,1,3,1,0,240,48,1,239,,,,,,,,,,,,,,,,,,
,,0,40,,,,,,,3,2,3,stim/23.jpeg,Instruments,1,stim/objects/Instruments/harp2.png,0.9,3,-0.2,-0.15,left,61,2021-03-29_07h15.47.725,premup-three_ses-01_part-01_label-phase1,3.2.4,MacIntel,60,right,0.911000013,4,0,4,0,1,3,1,0,240,202,1,239,,,,,,,,,,,,,,,,,,
,,1,41,,,,,,,2,5,4,stim/54.jpeg,HouseObjects,2,stim/objects/HouseObjects/handvacuum.png,0.7,4,0.2,-0.15,right,61,2021-03-29_07h15.47.725,premup-three_ses-01_part-01_label-phase1,3.2.4,MacIntel,60,right,1.761999846,4,0,4,0,1,3,1,0,240,115,1,239,,,,,,,,,,,,,,,,,,
,,0,42,,,,,,,3,2,4,stim/24.jpeg,Instruments,1,stim/objects/Instruments/hihat2.png,0.9,3,-0.2,-0.15,left,61,2021-03-29_07h15.47.725,premup-three_ses-01_part-01_label-phase1,3.2.4,MacIntel,60,right,1.292000055,4,0,4,0,1,3,1,0,240,211,1,239,,,,,,,,,,,,,,,,,,
,,1,43,,,,,,,3,1,3,stim/13.jpeg,HouseObjects,2,stim/objects/HouseObjects/garbagebin2.png,0.9,2,0.2,0.15,right,61,2021-03-29_07h15.47.725,premup-three_ses-01_part-01_label-phase1,3.2.4,MacIntel,60,right,1.030999899,4,0,4,0,1,3,1,0,240,190,1,239,,,,,,,,,,,,,,,,,,
,,0,44,,,,,,,2,5,1,stim/51.jpeg,HouseObjects,2,stim/objects/HouseObjects/glassmop.png,0.7,3,-0.2,-0.15,right,61,2021-03-29_07h15.47.725,premup-three_ses-01_part-01_label-phase1,3.2.4,MacIntel,60,left,0.944999933,4,0,4,0,1,3,1,0,240,96,1,239,,,,,,,,,,,,,,,,,,
,,0,45,,,,,,,1,4,4,stim/44.jpeg,Instruments,1,stim/objects/Instruments/grandpiano.png,0.5,3,-0.2,-0.15,left,61,2021-03-29_07h15.47.725,premup-three_ses-01_part-01_label-phase1,3.2.4,MacIntel,60,right,1.156999826,4,0,4,0,1,3,1,0,240,43,1,239,,,,,,,,,,,,,,,,,,
,,0,46,,,,,,,2,5,2,stim/52.jpeg,Instruments,1,stim/objects/Instruments/harmonica.png,0.3,2,0.2,0.15,left,61,2021-03-29_07h15.47.725,premup-three_ses-01_part-01_label-phase1,3.2.4,MacIntel,60,right,1.873999834,4,0,4,0,1,3,1,0,240,85,1,239,,,,,,,,,,,,,,,,,,
,,1,47,,,,,,,3,1,4,stim/14.jpeg,HouseObjects,2,stim/objects/HouseObjects/glass2.png,0.9,1,-0.2,0.15,right,61,2021-03-29_07h15.47.725,premup-three_ses-01_part-01_label-phase1,3.2.4,MacIntel,60,right,0.958999872,4,0,4,0,1,3,1,0,240,199,1,239,,,,,,,,,,,,,,,,,,
,,0,48,,,,,,,2,5,4,stim/54.jpeg,HouseObjects,2,stim/objects/HouseObjects/handvacuum.png,0.7,2,0.2,0.15,right,61,2021-03-29_07h15.47.725,premup-three_ses-01_part-01_label-phase1,3.2.4,MacIntel,60,left,1.146000147,4,0,4,0,1,3,1,0,240,107,1,239,,,,,,,,,,,,,,,,,,
,,0,49,,,,,,,3,2,2,stim/22.jpeg,Instruments,1,stim/objects/Instruments/harmonica2.png,0.9,2,0.2,0.15,left,61,2021-03-29_07h15.47.725,premup-three_ses-01_part-01_label-phase1,3.2.4,MacIntel,60,right,1.344000101,4,0,4,0,1,3,1,0,240,221,1,239,,,,,,,,,,,,,,,,,,
,,0,50,,,,,,,1,3,4,stim/34.jpeg,HouseObjects,2,stim/objects/HouseObjects/doormat.png,0.5,3,-0.2,-0.15,right,61,2021-03-29_07h15.47.725,premup-three_ses-01_part-01_label-phase1,3.2.4,MacIntel,60,left,0.75999999,4,0,4,0,1,3,1,0,240,35,1,239,,,,,,,,,,,,,,,,,,
,,0,51,,,,,,,1,4,3,stim/43.jpeg,Instruments,1,stim/objects/Instruments/gong.png,0.5,1,-0.2,0.15,left,61,2021-03-29_07h15.47.725,premup-three_ses-01_part-01_label-phase1,3.2.4,MacIntel,60,right,0.991999865,4,0,4,0,1,3,1,0,240,50,1,239,,,,,,,,,,,,,,,,,,
,,0,52,,,,,,,2,5,3,stim/53.jpeg,HouseObjects,2,stim/objects/HouseObjects/handbrush.png,0.7,2,0.2,0.15,right,61,2021-03-29_07h15.47.725,premup-three_ses-01_part-01_label-phase1,3.2.4,MacIntel,60,left,0.429999828,4,0,4,0,1,3,1,0,240,98,1,239,,,,,,,,,,,,,,,,,,
,,1,53,,,,,,,3,2,2,stim/22.jpeg,Instruments,1,stim/objects/Instruments/harmonica2.png,0.9,4,0.2,-0.15,left,61,2021-03-29_07h15.47.725,premup-three_ses-01_part-01_label-phase1,3.2.4,MacIntel,60,left,0.826000214,4,0,4,0,1,3,1,0,240,225,1,239,,,,,,,,,,,,,,,,,,
,,1,54,,,,,,,1,4,1,stim/41.jpeg,HouseObjects,2,stim/objects/HouseObjects/dustpan.png,0.5,1,-0.2,0.15,right,61,2021-03-29_07h15.47.725,premup-three_ses-01_part-01_label-phase1,3.2.4,MacIntel,60,right,0.896999836,4,0,4,0,1,3,1,0,240,72,1,239,,,,,,,,,,,,,,,,,,
,,1,55,,,,,,,1,3,2,stim/32.jpeg,Instruments,1,stim/objects/Instruments/electricdrumset.png,0.5,3,-0.2,-0.15,left,61,2021-03-29_07h15.47.725,premup-three_ses-01_part-01_label-phase1,3.2.4,MacIntel,60,left,0.843999863,4,0,4,0,1,3,1,0,240,5,1,239,,,,,,,,,,,,,,,,,,
,,1,56,,,,,,,1,4,4,stim/44.jpeg,HouseObjects,2,stim/objects/HouseObjects/glass.png,0.5,4,0.2,-0.15,right,61,2021-03-29_07h15.47.725,premup-three_ses-01_part-01_label-phase1,3.2.4,MacIntel,60,right,0.612999916,4,0,4,0,1,3,1,0,240,63,1,239,,,,,,,,,,,,,,,,,,
,,0,57,,,,,,,2,5,3,stim/53.jpeg,Instruments,1,stim/objects/Instruments/harp.png,0.3,1,-0.2,0.15,left,61,2021-03-29_07h15.47.725,premup-three_ses-01_part-01_label-phase1,3.2.4,MacIntel,60,right,0.382999897,4,0,4,0,1,3,1,0,240,90,1,239,,,,,,,,,,,,,,,,,,
,,1,58,,,,,,,3,1,2,stim/12.jpeg,HouseObjects,2,stim/objects/HouseObjects/flyswatter2.png,0.9,2,0.2,0.15,right,61,2021-03-29_07h15.47.725,premup-three_ses-01_part-01_label-phase1,3.2.4,MacIntel,60,right,0.562000036,4,0,4,0,1,3,1,0,240,173,1,239,,,,,,,,,,,,,,,,,,
,,1,59,,,,,,,2,5,1,stim/51.jpeg,HouseObjects,2,stim/objects/HouseObjects/glassmop.png,0.7,4,0.2,-0.15,right,61,2021-03-29_07h15.47.725,premup-three_ses-01_part-01_label-phase1,3.2.4,MacIntel,60,right,1.226999998,4,0,4,0,1,3,1,0,240,112,1,239,,,,,,,,,,,,,,,,,,
,,1,60,,,,,,,2,6,4,stim/64.jpeg,Instruments,1,stim/objects/Instruments/flute2.png,0.7,4,0.2,-0.15,left,61,2021-03-29_07h15.47.725,premup-three_ses-01_part-01_label-phase1,3.2.4,MacIntel,60,left,1.126999855,4,0,4,0,1,3,1,0,240,127,1,239,,,,,,,,,,,,,,,,,,
,,1,61,,,,,,,3,2,3,stim/23.jpeg,HouseObjects,2,stim/objects/HouseObjects/handbrush2.png,0.1,4,0.2,-0.15,right,61,2021-03-29_07h15.47.725,premup-three_ses-01_part-01_label-phase1,3.2.4,MacIntel,60,right,0.713999987,4,0,4,0,1,3,1,0,240,238,1,239,,,,,,,,,,,,,,,,,,
,,0,62,,,,,,,1,3,4,stim/34.jpeg,HouseObjects,2,stim/objects/HouseObjects/doormat.png,0.5,3,-0.2,-0.15,right,61,2021-03-29_07h15.47.725,premup-three_ses-01_part-01_label-phase1,3.2.4,MacIntel,60,left,0.511999846,4,0,4,0,1,3,1,0,240,39,1,239,,,,,,,,,,,,,,,,,,
,,0,63,,,,,,,2,5,2,stim/52.jpeg,HouseObjects,2,stim/objects/HouseObjects/hairdryer.png,0.7,1,-0.2,0.15,right,61,2021-03-29_07h15.47.725,premup-three_ses-01_part-01_label-phase1,3.2.4,MacIntel,60,left,0.948000193,4,0,4,0,1,3,1,0,240,97,1,239,,,,,,,,,,,,,,,,,,
,,1,64,,,,,,,3,2,1,stim/21.jpeg,Instruments,1,stim/objects/Instruments/guitarcase2.png,0.9,1,-0.2,0.15,left,61,2021-03-29_07h15.47.725,premup-three_ses-01_part-01_label-phase1,3.2.4,MacIntel,60,left,0.541000128,4,0,4,0,1,3,1,0,240,220,1,239,,,,,,,,,,,,,,,,,,
,,1,65,,,,,,,1,4,2,stim/42.jpeg,Instruments,1,stim/objects/Instruments/frenchhorn.png,0.5,3,-0.2,-0.15,left,61,2021-03-29_07h15.47.725,premup-three_ses-01_part-01_label-phase1,3.2.4,MacIntel,60,left,0.324999809,4,0,4,0,1,3,1,0,240,53,1,239,,,,,,,,,,,,,,,,,,
,,1,66,,,,,,,3,2,3,stim/23.jpeg,Instruments,1,stim/objects/Instruments/harp2.png,0.9,4,0.2,-0.15,left,61,2021-03-29_07h15.47.725,premup-three_ses-01_part-01_label-phase1,3.2.4,MacIntel,60,left,0.280999899,4,0,4,0,1,3,1,0,240,210,1,239,,,,,,,,,,,,,,,,,,
,,0,67,,,,,,,3,2,4,stim/24.jpeg,Instruments,1,stim/objects/Instruments/hihat2.png,0.9,4,0.2,-0.15,left,61,2021-03-29_07h15.47.725,premup-three_ses-01_part-01_label-phase1,3.2.4,MacIntel,60,right,0.261999846,4,0,4,0,1,3,1,0,240,207,1,239,,,,,,,,,,,,,,,,,,
,,0,68,,,,,,,1,4,3,stim/43.jpeg,HouseObjects,2,stim/objects/HouseObjects/garbagebin.png,0.5,4,0.2,-0.15,right,61,2021-03-29_07h15.47.725,premup-three_ses-01_part-01_label-phase1,3.2.4,MacIntel,60,left,0.127000093,4,0,4,0,1,3,1,0,240,62,1,239,,,,,,,,,,,,,,,,,,
,,0,69,,,,,,,3,2,3,stim/23.jpeg,Instruments,1,stim/objects/Instruments/harp2.png,0.9,1,-0.2,0.15,left,61,2021-03-29_07h15.47.725,premup-three_ses-01_part-01_label-phase1,3.2.4,MacIntel,60,right,0.674999952,4,0,4,0,1,3,1,0,240,226,1,239,,,,,,,,,,,,,,,,,,
,,0,70,,,,,,,1,4,2,stim/42.jpeg,Instruments,1,stim/objects/Instruments/frenchhorn.png,0.5,4,0.2,-0.15,left,61,2021-03-29_07h15.47.725,premup-three_ses-01_part-01_label-phase1,3.2.4,MacIntel,60,right,0.843999863,4,0,4,0,1,3,1,0,240,49,1,239,,,,,,,,,,,,,,,,,,
,,1,71,,,,,,,2,6,1,stim/61.jpeg,Instruments,1,stim/objects/Instruments/drums2.png,0.7,2,0.2,0.15,left,61,2021-03-29_07h15.47.725,premup-three_ses-01_part-01_label-phase1,3.2.4,MacIntel,60,left,0.226999998,4,0,4,0,1,3,1,0,240,124,1,239,,,,,,,,,,,,,,,,,,
,,0,72,,,,,,,1,3,3,stim/33.jpeg,HouseObjects,2,stim/objects/HouseObjects/dishsoap.png,0.5,4,0.2,-0.15,right,61,2021-03-29_07h15.47.725,premup-three_ses-01_part-01_label-phase1,3.2.4,MacIntel,60,left,0.440000057,4,0,4,0,1,3,1,0,240,34,1,239,,,,,,,,,,,,,,,,,,
,,0,73,,,,,,,3,1,3,stim/13.jpeg,HouseObjects,2,stim/objects/HouseObjects/garbagebin2.png,0.9,3,-0.2,-0.15,right,61,2021-03-29_07h15.47.725,premup-three_ses-01_part-01_label-phase1,3.2.4,MacIntel,60,left,1.04700017,4,0,4,0,1,3,1,0,240,198,1,239,,,,,,,,,,,,,,,,,,
,,1,74,,,,,,,1,3,2,stim/32.jpeg,HouseObjects,2,stim/objects/HouseObjects/cushion.png,0.5,3,-0.2,-0.15,right,61,2021-03-29_07h15.47.725,premup-three_ses-01_part-01_label-phase1,3.2.4,MacIntel,60,right,1.444000006,4,0,4,0,1,3,1,0,240,25,1,239,,,,,,,,,,,,,,,,,,
,,1,75,,,,,,,3,2,4,stim/24.jpeg,HouseObjects,2,stim/objects/HouseObjects/handvacuum2.png,0.1,3,-0.2,-0.15,right,61,2021-03-29_07h15.47.725,premup-three_ses-01_part-01_label-phase1,3.2.4,MacIntel,60,right,0.9150002,4,0,4,0,1,3,1,0,240,239,1,239,,,,,,,,,,,,,,,,,,
,,1,76,,,,,,,2,5,2,stim/52.jpeg,HouseObjects,2,stim/objects/HouseObjects/hairdryer.png,0.7,3,-0.2,-0.15,right,61,2021-03-29_07h15.47.725,premup-three_ses-01_part-01_label-phase1,3.2.4,MacIntel,60,right,1.362999916,4,0,4,0,1,3,1,0,240,113,1,239,,,,,,,,,,,,,,,,,,
,,1,77,,,,,,,3,2,3,stim/23.jpeg,Instruments,1,stim/objects/Instruments/harp2.png,0.9,3,-0.2,-0.15,left,61,2021-03-29_07h15.47.725,premup-three_ses-01_part-01_label-phase1,3.2.4,MacIntel,60,left,0.857000113,4,0,4,0,1,3,1,0,240,206,1,239,,,,,,,,,,,,,,,,,,
,,1,78,,,,,,,1,3,3,stim/33.jpeg,Instruments,1,stim/objects/Instruments/electricguitar.png,0.5,4,0.2,-0.15,left,61,2021-03-29_07h15.47.725,premup-three_ses-01_part-01_label-phase1,3.2.4,MacIntel,60,left,1.85800004,4,0,4,0,1,3,1,0,240,6,1,239,,,,,,,,,,,,,,,,,,
,,0,79,,,,,,,1,4,4,stim/44.jpeg,Instruments,1,stim/objects/Instruments/grandpiano.png,0.5,2,0.2,0.15,left,61,2021-03-29_07h15.47.725,premup-three_ses-01_part-01_label-phase1,3.2.4,MacIntel,60,right,1.644999981,4,0,4,0,1,3,1,0,240,55,1,239,,,,,,,,,,,,,,,,,,
,,1,80,,,,,,,1,3,1,stim/31.jpeg,Instruments,1,stim/objects/Instruments/drums.png,0.5,2,0.2,0.15,left,61,2021-03-29_07h15.47.725,premup-three_ses-01_part-01_label-phase1,3.2.4,MacIntel,60,left,0.860000134,4,0,4,0,1,3,1,0,240,16,1,239,,,,,,,,,,,,,,,,,,
,,1,81,,,,,,,2,6,1,stim/61.jpeg,Instruments,1,stim/objects/Instruments/drums2.png,0.7,1,-0.2,0.15,left,61,2021-03-29_07h15.47.725,premup-three_ses-01_part-01_label-phase1,3.2.4,MacIntel,60,left,0.611999989,4,0,4,0,1,3,1,0,240,136,1,239,,,,,,,,,,,,,,,,,,
,,1,82,,,,,,,2,6,2,stim/62.jpeg,Instruments,1,stim/objects/Instruments/electricdrumset2.png,0.7,3,-0.2,-0.15,left,61,2021-03-29_07h15.47.725,premup-three_ses-01_part-01_label-phase1,3.2.4,MacIntel,60,left,0.476000071,4,0,4,0,1,3,1,0,240,129,1,239,,,,,,,,,,,,,,,,,,
,,1,83,,,,,,,1,3,1,stim/31.jpeg,Instruments,1,stim/objects/Instruments/drums.png,0.5,1,-0.2,0.15,left,61,2021-03-29_07h15.47.725,premup-three_ses-01_part-01_label-phase1,3.2.4,MacIntel,60,left,0.529000044,4,0,4,0,1,3,1,0,240,8,1,239,,,,,,,,,,,,,,,,,,
,,1,84,,,,,,,2,6,1,stim/61.jpeg,Instruments,1,stim/objects/Instruments/drums2.png,0.7,3,-0.2,-0.15,left,61,2021-03-29_07h15.47.725,premup-three_ses-01_part-01_label-phase1,3.2.4,MacIntel,60,left,0.74000001,4,0,4,0,1,3,1,0,240,132,1,239,,,,,,,,,,,,,,,,,,
,,0,85,,,,,,,1,4,3,stim/43.jpeg,Instruments,1,stim/objects/Instruments/gong.png,0.5,4,0.2,-0.15,left,61,2021-03-29_07h15.47.725,premup-three_ses-01_part-01_label-phase1,3.2.4,MacIntel,60,right,1.009000063,4,0,4,0,1,3,1,0,240,42,1,239,,,,,,,,,,,,,,,,,,
,,1,86,,,,,,,1,4,1,stim/41.jpeg,Instruments,1,stim/objects/Instruments/flutetrans.png,0.5,2,0.2,0.15,left,61,2021-03-29_07h15.47.725,premup-three_ses-01_part-01_label-phase1,3.2.4,MacIntel,60,left,0.746000051,4,0,4,0,1,3,1,0,240,52,1,239,,,,,,,,,,,,,,,,,,
,,0,87,,,,,,,3,2,1,stim/21.jpeg,Instruments,1,stim/objects/Instruments/guitarcase2.png,0.9,2,0.2,0.15,left,61,2021-03-29_07h15.47.725,premup-three_ses-01_part-01_label-phase1,3.2.4,MacIntel,60,,,4,0,4,0,1,3,1,0,240,232,1,239,,,,,,,,,,,,,,,,,,
,,1,88,,,,,,,3,2,1,stim/21.jpeg,Instruments,1,stim/objects/Instruments/guitarcase2.png,0.9,1,-0.2,0.15,left,61,2021-03-29_07h15.47.725,premup-three_ses-01_part-01_label-phase1,3.2.4,MacIntel,60,left,1.128000021,4,0,4,0,1,3,1,0,240,200,1,239,,,,,,,,,,,,,,,,,,
,,1,89,,,,,,,2,6,2,stim/62.jpeg,Instruments,1,stim/objects/Instruments/electricdrumset2.png,0.7,1,-0.2,0.15,left,61,2021-03-29_07h15.47.725,premup-three_ses-01_part-01_label-phase1,3.2.4,MacIntel,60,left,0.976999998,4,0,4,0,1,3,1,0,240,141,1,239,,,,,,,,,,,,,,,,,,
,,0,90,,,,,,,3,1,3,stim/13.jpeg,Instruments,1,stim/objects/Instruments/gong2.png,0.1,2,0.2,0.15,left,61,2021-03-29_07h15.47.725,premup-three_ses-01_part-01_label-phase1,3.2.4,MacIntel,60,right,0.727999926,4,0,4,0,1,3,1,0,240,162,1,239,,,,,,,,,,,,,,,,,,
,,0,91,,,,,,,1,4,2,stim/42.jpeg,Instruments,1,stim/objects/Instruments/frenchhorn.png,0.5,3,-0.2,-0.15,left,61,2021-03-29_07h15.47.725,premup-three_ses-01_part-01_label-phase1,3.2.4,MacIntel,60,right,0.56400013,4,0,4,0,1,3,1,0,240,45,1,239,,,,,,,,,,,,,,,,,,
,,1,92,,,,,,,3,2,4,stim/24.jpeg,Instruments,1,stim/objects/Instruments/hihat2.png,0.9,3,-0.2,-0.15,left,61,2021-03-29_07h15.47.725,premup-three_ses-01_part-01_label-phase1,3.2.4,MacIntel,60,left,0.745000124,4,0,4,0,1,3,1,0,240,235,1,239,,,,,,,,,,,,,,,,,,
,,1,93,,,,,,,1,3,3,stim/33.jpeg,Instruments,1,stim/objects/Instruments/electricguitar.png,0.5,3,-0.2,-0.15,left,61,2021-03-29_07h15.47.725,premup-three_ses-01_part-01_label-phase1,3.2.4,MacIntel,60,left,0.626000166,4,0,4,0,1,3,1,0,240,2,1,239,,,,,,,,,,,,,,,,,,
,,1,94,,,,,,,3,1,3,stim/13.jpeg,HouseObjects,2,stim/objects/HouseObjects/garbagebin2.png,0.9,1,-0.2,0.15,right,61,2021-03-29_07h15.47.725,premup-three_ses-01_part-01_label-phase1,3.2.4,MacIntel,60,right,0.863000154,4,0,4,0,1,3,1,0,240,194,1,239,,,,,,,,,,,,,,,,,,
,,0,95,,,,,,,3,2,1,stim/21.jpeg,HouseObjects,2,stim/objects/HouseObjects/glassmop2.png,0.1,3,-0.2,-0.15,right,61,2021-03-29_07h15.47.725,premup-three_ses-01_part-01_label-phase1,3.2.4,MacIntel,60,left,0.659000158,4,0,4,0,1,3,1,0,240,236,1,239,,,,,,,,,,,,,,,,,,
,,1,96,,,,,,,2,5,1,stim/51.jpeg,HouseObjects,2,stim/objects/HouseObjects/glassmop.png,0.7,1,-0.2,0.15,right,61,2021-03-29_07h15.47.725,premup-three_ses-01_part-01_label-phase1,3.2.4,MacIntel,60,right,1.042000055,4,0,4,0,1,3,1,0,240,104,1,239,,,,,,,,,,,,,,,,,,
,,1,97,,,,,,,2,6,4,stim/64.jpeg,Instruments,1,stim/objects/Instruments/flute2.png,0.7,4,0.2,-0.15,left,61,2021-03-29_07h15.47.725,premup-three_ses-01_part-01_label-phase1,3.2.4,MacIntel,60,left,0.906000137,4,0,4,0,1,3,1,0,240,143,1,239,,,,,,,,,,,,,,,,,,
,,0,98,,,,,,,1,4,2,stim/42.jpeg,HouseObjects,2,stim/objects/HouseObjects/flyswatter.png,0.5,2,0.2,0.15,right,61,2021-03-29_07h15.47.725,premup-three_ses-01_part-01_label-phase1,3.2.4,MacIntel,60,left,0.694000006,4,0,4,0,1,3,1,0,240,73,1,239,,,,,,,,,,,,,,,,,,
,,0,99,,,,,,,2,5,4,stim/54.jpeg,HouseObjects,2,stim/objects/HouseObjects/handvacuum.png,0.7,4,0.2,-0.15,right,61,2021-03-29_07h15.47.725,premup-three_ses-01_part-01_label-phase1,3.2.4,MacIntel,60,,,4,0,4,0,1,3,1,0,240,103,1,239,,,,,,,,,,,,,,,,,,
,,1,100,,,,,,,2,6,3,stim/63.jpeg,Instruments,1,stim/objects/Instruments/electricguitar2.png,0.7,4,0.2,-0.15,left,61,2021-03-29_07h15.47.725,premup-three_ses-01_part-01_label-phase1,3.2.4,MacIntel,60,left,0.56099987,4,0,4,0,1,3,1,0,240,146,1,239,,,,,,,,,,,,,,,,,,
,,1,101,,,,,,,3,2,3,stim/23.jpeg,Instruments,1,stim/objects/Instruments/harp2.png,0.9,4,0.2,-0.15,left,61,2021-03-29_07h15.47.725,premup-three_ses-01_part-01_label-phase1,3.2.4,MacIntel,60,left,0.650000095,4,0,4,0,1,3,1,0,240,222,1,239,,,,,,,,,,,,,,,,,,
,,0,102,,,,,,,2,5,3,stim/53.jpeg,HouseObjects,2,stim/objects/HouseObjects/handbrush.png,0.7,2,0.2,0.15,right,61,2021-03-29_07h15.47.725,premup-three_ses-01_part-01_label-phase1,3.2.4,MacIntel,60,left,0.861000061,4,0,4,0,1,3,1,0,240,110,1,239,,,,,,,,,,,,,,,,,,
,,0,103,,,,,,,3,1,2,stim/12.jpeg,HouseObjects,2,stim/objects/HouseObjects/flyswatter2.png,0.9,1,-0.2,0.15,right,61,2021-03-29_07h15.47.725,premup-three_ses-01_part-01_label-phase1,3.2.4,MacIntel,60,left,0.70600009,4,0,4,0,1,3,1,0,240,165,1,239,,,,,,,,,,,,,,,,,,
,,1,104,,,,,,,2,6,3,stim/63.jpeg,Instruments,1,stim/objects/Instruments/electricguitar2.png,0.7,2,0.2,0.15,left,61,2021-03-29_07h15.47.725,premup-three_ses-01_part-01_label-phase1,3.2.4,MacIntel,60,left,0.751000166,4,0,4,0,1,3,1,0,240,138,1,239,,,,,,,,,,,,,,,,,,
,,1,105,,,,,,,3,2,2,stim/22.jpeg,Instruments,1,stim/objects/Instruments/harmonica2.png,0.9,3,-0.2,-0.15,left,61,2021-03-29_07h15.47.725,premup-three_ses-01_part-01_label-phase1,3.2.4,MacIntel,60,left,0.727999926,4,0,4,0,1,3,1,0,240,229,1,239,,,,,,,,,,,,,,,,,,
,,0,106,,,,,,,1,4,2,stim/42.jpeg,HouseObjects,2,stim/objects/HouseObjects/flyswatter.png,0.5,2,0.2,0.15,right,61,2021-03-29_07h15.47.725,premup-three_ses-01_part-01_label-phase1,3.2.4,MacIntel,60,left,1.611999989,4,0,4,0,1,3,1,0,240,77,1,239,,,,,,,,,,,,,,,,,,
,,1,107,,,,,,,2,6,3,stim/63.jpeg,Instruments,1,stim/objects/Instruments/electricguitar2.png,0.7,2,0.2,0.15,left,61,2021-03-29_07h15.47.725,premup-three_ses-01_part-01_label-phase1,3.2.4,MacIntel,60,left,0.627000093,4,0,4,0,1,3,1,0,240,130,1,239,,,,,,,,,,,,,,,,,,
,,0,108,,,,,,,1,4,1,stim/41.jpeg,Instruments,1,stim/objects/Instruments/flutetrans.png,0.5,2,0.2,0.15,left,61,2021-03-29_07h15.47.725,premup-three_ses-01_part-01_label-phase1,3.2.4,MacIntel,60,right,0.894999981,4,0,4,0,1,3,1,0,240,56,1,239,,,,,,,,,,,,,,,,,,
,,0,109,,,,,,,2,5,1,stim/51.jpeg,Instruments,1,stim/objects/Instruments/guitarcase.png,0.3,1,-0.2,0.15,left,61,2021-03-29_07h15.47.725,premup-three_ses-01_part-01_label-phase1,3.2.4,MacIntel,60,right,0.853999853,4,0,4,0,1,3,1,0,240,88,1,239,,,,,,,,,,,,,,,,,,
,,1,110,,,,,,,2,6,2,stim/62.jpeg,Instruments,1,stim/objects/Instruments/electricdrumset2.png,0.7,3,-0.2,-0.15,left,61,2021-03-29_07h15.47.725,premup-three_ses-01_part-01_label-phase1,3.2.4,MacIntel,60,left,0.710999966,4,0,4,0,1,3,1,0,240,121,1,239,,,,,,,,,,,,,,,,,,
,,0,111,,,,,,,1,3,3,stim/33.jpeg,HouseObjects,2,stim/objects/HouseObjects/dishsoap.png,0.5,3,-0.2,-0.15,right,61,2021-03-29_07h15.47.725,premup-three_ses-01_part-01_label-phase1,3.2.4,MacIntel,60,left,0.782999992,4,0,4,0,1,3,1,0,240,30,1,239,,,,,,,,,,,,,,,,,,
,,0,112,,,,,,,3,2,1,stim/21.jpeg,Instruments,1,stim/objects/Instruments/guitarcase2.png,0.9,4,0.2,-0.15,left,61,2021-03-29_07h15.47.725,premup-three_ses-01_part-01_label-phase1,3.2.4,MacIntel,60,right,0.917000055,4,0,4,0,1,3,1,0,240,204,1,239,,,,,,,,,,,,,,,,,,
,,0,113,,,,,,,2,6,1,stim/61.jpeg,HouseObjects,2,stim/objects/HouseObjects/coffee2.png,0.3,3,-0.2,-0.15,right,61,2021-03-29_07h15.47.725,premup-three_ses-01_part-01_label-phase1,3.2.4,MacIntel,60,left,0.628999949,4,0,4,0,1,3,1,0,240,148,1,239,,,,,,,,,,,,,,,,,,
,,1,114,,,,,,,3,1,4,stim/14.jpeg,HouseObjects,2,stim/objects/HouseObjects/glass2.png,0.9,2,0.2,0.15,right,61,2021-03-29_07h15.47.725,premup-three_ses-01_part-01_label-phase1,3.2.4,MacIntel,60,right,0.859999895,4,0,4,0,1,3,1,0,240,171,1,239,,,,,,,,,,,,,,,,,,
,,1,115,,,,,,,1,4,2,stim/42.jpeg,Instruments,1,stim/objects/Instruments/frenchhorn.png,0.5,4,0.2,-0.15,left,61,2021-03-29_07h15.47.725,premup-three_ses-01_part-01_label-phase1,3.2.4,MacIntel,60,left,0.627999783,4,0,4,0,1,3,1,0,240,57,1,239,,,,,,,,,,,,,,,,,,
,,1,116,,,,,,,2,6,2,stim/62.jpeg,Instruments,1,stim/objects/Instruments/electricdrumset2.png,0.7,2,0.2,0.15,left,61,2021-03-29_07h15.47.725,premup-three_ses-01_part-01_label-phase1,3.2.4,MacIntel,60,left,0.691999912,4,0,4,0,1,3,1,0,240,137,1,239,,,,,,,,,,,,,,,,,,
,,0,117,,,,,,,1,4,3,stim/43.jpeg,HouseObjects,2,stim/objects/HouseObjects/garbagebin.png,0.5,3,-0.2,-0.15,right,61,2021-03-29_07h15.47.725,premup-three_ses-01_part-01_label-phase1,3.2.4,MacIntel,60,left,0.697000027,4,0,4,0,1,3,1,0,240,66,1,239,,,,,,,,,,,,,,,,,,
,,0,118,,,,,,,2,6,3,stim/63.jpeg,Instruments,1,stim/objects/Instruments/electricguitar2.png,0.7,3,-0.2,-0.15,left,61,2021-03-29_07h15.47.725,premup-three_ses-01_part-01_label-phase1,3.2.4,MacIntel,60,right,0.626000166,4,0,4,0,1,3,1,0,240,142,1,239,,,,,,,,,,,,,,,,,,
,,1,119,,,,,,,2,5,3,stim/53.jpeg,HouseObjects,2,stim/objects/HouseObjects/handbrush.png,0.7,1,-0.2,0.15,right,61,2021-03-29_07h15.47.725,premup-three_ses-01_part-01_label-phase1,3.2.4,MacIntel,60,right,0.894999981,4,0,4,0,1,3,1,0,240,102,1,239,,,,,,,,,,,,,,,,,,
,,1,120,,,,,,,2,5,1,stim/51.jpeg,HouseObjects,2,stim/objects/HouseObjects/glassmop.png,0.7,3,-0.2,-0.15,right,61,2021-03-29_07h15.47.725,premup-three_ses-01_part-01_label-phase1,3.2.4,MacIntel,60,right,0.944000006,4,0,4,0,1,3,1,0,240,116,1,239,,,,,,,,,,,,,,,,,,
,,0,121,,,,,,,1,4,4,stim/44.jpeg,Instruments,1,stim/objects/Instruments/grandpiano.png,0.5,4,0.2,-0.15,left,61,2021-03-29_07h15.47.725,premup-three_ses-01_part-01_label-phase1,3.2.4,MacIntel,60,right,1.082999945,4,0,4,0,1,3,1,0,240,59,1,239,,,,,,,,,,,,,,,,,,
,,1,122,,,,,,,3,1,2,stim/12.jpeg,HouseObjects,2,stim/objects/HouseObjects/flyswatter2.png,0.9,4,0.2,-0.15,right,61,2021-03-29_07h15.47.725,premup-three_ses-01_part-01_label-phase1,3.2.4,MacIntel,60,right,1.174000025,4,0,4,0,1,3,1,0,240,181,1,239,,,,,,,,,,,,,,,,,,
,,0,123,,,,,,,2,6,4,stim/64.jpeg,HouseObjects,2,stim/objects/HouseObjects/doormat2.png,0.3,2,0.2,0.15,right,61,2021-03-29_07h15.47.725,premup-three_ses-01_part-01_label-phase1,3.2.4,MacIntel,60,left,1.361999989,4,0,4,0,1,3,1,0,240,159,1,239,,,,,,,,,,,,,,,,,,
,,0,124,,,,,,,3,1,4,stim/14.jpeg,HouseObjects,2,stim/objects/HouseObjects/glass2.png,0.9,4,0.2,-0.15,right,61,2021-03-29_07h15.47.725,premup-three_ses-01_part-01_label-phase1,3.2.4,MacIntel,60,left,1.363000154,4,0,4,0,1,3,1,0,240,187,1,239,,,,,,,,,,,,,,,,,,
,,0,125,,,,,,,2,6,4,stim/64.jpeg,HouseObjects,2,stim/objects/HouseObjects/doormat2.png,0.3,1,-0.2,0.15,right,61,2021-03-29_07h15.47.725,premup-three_ses-01_part-01_label-phase1,3.2.4,MacIntel,60,left,0.628000021,4,0,4,0,1,3,1,0,240,155,1,239,,,,,,,,,,,,,,,,,,
,,1,126,,,,,,,3,1,1,stim/11.jpeg,HouseObjects,2,stim/objects/HouseObjects/dustpan2.png,0.9,4,0.2,-0.15,right,61,2021-03-29_07h15.47.725,premup-three_ses-01_part-01_label-phase1,3.2.4,MacIntel,60,right,1.046999931,4,0,4,0,1,3,1,0,240,180,1,239,,,,,,,,,,,,,,,,,,
,,0,127,,,,,,,1,3,4,stim/34.jpeg,HouseObjects,2,stim/objects/HouseObjects/doormat.png,0.5,1,-0.2,0.15,right,61,2021-03-29_07h15.47.725,premup-three_ses-01_part-01_label-phase1,3.2.4,MacIntel,60,left,0.695000172,4,0,4,0,1,3,1,0,240,31,1,239,,,,,,,,,,,,,,,,,,
,,1,128,,,,,,,3,1,1,stim/11.jpeg,HouseObjects,2,stim/objects/HouseObjects/dustpan2.png,0.9,3,-0.2,-0.15,right,61,2021-03-29_07h15.47.725,premup-three_ses-01_part-01_label-phase1,3.2.4,MacIntel,60,right,0.792999983,4,0,4,0,1,3,1,0,240,192,1,239,,,,,,,,,,,,,,,,,,
,,1,129,,,,,,,3,1,3,stim/13.jpeg,HouseObjects,2,stim/objects/HouseObjects/garbagebin2.png,0.9,1,-0.2,0.15,right,61,2021-03-29_07h15.47.725,premup-three_ses-01_part-01_label-phase1,3.2.4,MacIntel,60,right,0.931999922,4,0,4,0,1,3,1,0,240,166,1,239,,,,,,,,,,,,,,,,,,
,,1,130,,,,,,,2,6,1,stim/61.jpeg,Instruments,1,stim/objects/Instruments/drums2.png,0.7,1,-0.2,0.15,left,61,2021-03-29_07h15.47.725,premup-three_ses-01_part-01_label-phase1,3.2.4,MacIntel,60,left,0.858999968,4,0,4,0,1,3,1,0,240,120,1,239,,,,,,,,,,,,,,,,,,
,,0,131,,,,,,,2,6,1,stim/61.jpeg,HouseObjects,2,stim/objects/HouseObjects/coffee2.png,0.3,3,-0.2,-0.15,right,61,2021-03-29_07h15.47.725,premup-three_ses-01_part-01_label-phase1,3.2.4,MacIntel,60,left,0.973999977,4,0,4,0,1,3,1,0,240,156,1,239,,,,,,,,,,,,,,,,,,
,,1,132,,,,,,,3,1,4,stim/14.jpeg,HouseObjects,2,stim/objects/HouseObjects/glass2.png,0.9,4,0.2,-0.15,right,61,2021-03-29_07h15.47.725,premup-three_ses-01_part-01_label-phase1,3.2.4,MacIntel,60,right,0.980000019,4,0,4,0,1,3,1,0,240,191,1,239,,,,,,,,,,,,,,,,,,
,,1,133,,,,,,,2,6,1,stim/61.jpeg,Instruments,1,stim/objects/Instruments/drums2.png,0.7,1,-0.2,0.15,left,61,2021-03-29_07h15.47.725,premup-three_ses-01_part-01_label-phase1,3.2.4,MacIntel,60,left,1.308000088,4,0,4,0,1,3,1,0,240,128,1,239,,,,,,,,,,,,,,,,,,
,,1,134,,,,,,,1,4,4,stim/44.jpeg,Instruments,1,stim/objects/Instruments/grandpiano.png,0.5,3,-0.2,-0.15,left,61,2021-03-29_07h15.47.725,premup-three_ses-01_part-01_label-phase1,3.2.4,MacIntel,60,left,1.648999929,4,0,4,0,1,3,1,0,240,51,1,239,,,,,,,,,,,,,,,,,,
,,0,135,,,,,,,2,5,4,stim/54.jpeg,HouseObjects,2,stim/objects/HouseObjects/handvacuum.png,0.7,4,0.2,-0.15,right,61,2021-03-29_07h15.47.725,premup-three_ses-01_part-01_label-phase1,3.2.4,MacIntel,60,left,0.993999958,4,0,4,0,1,3,1,0,240,119,1,239,,,,,,,,,,,,,,,,,,
,,1,136,,,,,,,2,5,2,stim/52.jpeg,Instruments,1,stim/objects/Instruments/harmonica.png,0.3,1,-0.2,0.15,left,61,2021-03-29_07h15.47.725,premup-three_ses-01_part-01_label-phase1,3.2.4,MacIntel,60,left,0.946000099,4,0,4,0,1,3,1,0,240,81,1,239,,,,,,,,,,,,,,,,,,
,,0,137,,,,,,,3,1,4,stim/14.jpeg,HouseObjects,2,stim/objects/HouseObjects/glass2.png,0.9,2,0.2,0.15,right,61,2021-03-29_07h15.47.725,premup-three_ses-01_part-01_label-phase1,3.2.4,MacIntel,60,left,1.061000109,4,0,4,0,1,3,1,0,240,175,1,239,,,,,,,,,,,,,,,,,,
,,0,138,,,,,,,3,2,4,stim/24.jpeg,Instruments,1,stim/objects/Instruments/hihat2.png,0.9,4,0.2,-0.15,left,61,2021-03-29_07h15.47.725,premup-three_ses-01_part-01_label-phase1,3.2.4,MacIntel,60,right,0.694000006,4,0,4,0,1,3,1,0,240,215,1,239,,,,,,,,,,,,,,,,,,
,,1,139,,,,,,,3,2,1,stim/21.jpeg,Instruments,1,stim/objects/Instruments/guitarcase2.png,0.9,1,-0.2,0.15,left,61,2021-03-29_07h15.47.725,premup-three_ses-01_part-01_label-phase1,3.2.4,MacIntel,60,left,0.279000044,4,0,4,0,1,3,1,0,240,208,1,239,,,,,,,,,,,,,,,,,,
,,1,140,,,,,,,2,5,3,stim/53.jpeg,Instruments,1,stim/objects/Instruments/harp.png,0.3,4,0.2,-0.15,left,61,2021-03-29_07h15.47.725,premup-three_ses-01_part-01_label-phase1,3.2.4,MacIntel,60,left,0.493000031,4,0,4,0,1,3,1,0,240,86,1,239,,,,,,,,,,,,,,,,,,
,,1,141,,,,,,,1,3,2,stim/32.jpeg,HouseObjects,2,stim/objects/HouseObjects/cushion.png,0.5,1,-0.2,0.15,right,61,2021-03-29_07h15.47.725,premup-three_ses-01_part-01_label-phase1,3.2.4,MacIntel,60,right,0.476000071,4,0,4,0,1,3,1,0,240,33,1,239,,,,,,,,,,,,,,,,,,
,,0,142,,,,,,,1,4,1,stim/41.jpeg,Instruments,1,stim/objects/Instruments/flutetrans.png,0.5,1,-0.2,0.15,left,61,2021-03-29_07h15.47.725,premup-three_ses-01_part-01_label-phase1,3.2.4,MacIntel,60,right,0.830000162,4,0,4,0,1,3,1,0,240,44,1,239,,,,,,,,,,,,,,,,,,
,,0,143,,,,,,,3,2,1,stim/21.jpeg,Instruments,1,stim/objects/Instruments/guitarcase2.png,0.9,1,-0.2,0.15,left,61,2021-03-29_07h15.47.725,premup-three_ses-01_part-01_label-phase1,3.2.4,MacIntel,60,right,0.360000134,4,0,4,0,1,3,1,0,240,216,1,239,,,,,,,,,,,,,,,,,,
,,0,144,,,,,,,2,5,1,stim/51.jpeg,HouseObjects,2,stim/objects/HouseObjects/glassmop.png,0.7,4,0.2,-0.15,right,61,2021-03-29_07h15.47.725,premup-three_ses-01_part-01_label-phase1,3.2.4,MacIntel,60,left,0.260999918,4,0,4,0,1,3,1,0,240,100,1,239,,,,,,,,,,,,,,,,,,
,,0,145,,,,,,,3,1,3,stim/13.jpeg,HouseObjects,2,stim/objects/HouseObjects/garbagebin2.png,0.9,4,0.2,-0.15,right,61,2021-03-29_07h15.47.725,premup-three_ses-01_part-01_label-phase1,3.2.4,MacIntel,60,left,0.345000029,4,0,4,0,1,3,1,0,240,174,1,239,,,,,,,,,,,,,,,,,,
,,1,146,,,,,,,3,1,2,stim/12.jpeg,HouseObjects,2,stim/objects/HouseObjects/flyswatter2.png,0.9,1,-0.2,0.15,right,61,2021-03-29_07h15.47.725,premup-three_ses-01_part-01_label-phase1,3.2.4,MacIntel,60,right,0.743000031,4,0,4,0,1,3,1,0,240,169,1,239,,,,,,,,,,,,,,,,,,
,,1,147,,,,,,,2,6,2,stim/62.jpeg,Instruments,1,stim/objects/Instruments/electricdrumset2.png,0.7,4,0.2,-0.15,left,61,2021-03-29_07h15.47.725,premup-three_ses-01_part-01_label-phase1,3.2.4,MacIntel,60,left,0.531000137,4,0,4,0,1,3,1,0,240,133,1,239,,,,,,,,,,,,,,,,,,
,,1,148,,,,,,,3,2,4,stim/24.jpeg,Instruments,1,stim/objects/Instruments/hihat2.png,0.9,1,-0.2,0.15,left,61,2021-03-29_07h15.47.725,premup-three_ses-01_part-01_label-phase1,3.2.4,MacIntel,60,left,0.798000097,4,0,4,0,1,3,1,0,240,219,1,239,,,,,,,,,,,,,,,,,,
,,0,149,,,,,,,1,3,1,stim/31.jpeg,HouseObjects,2,stim/objects/HouseObjects/coffee.png,0.5,1,-0.2,0.15,right,61,2021-03-29_07h15.47.725,premup-three_ses-01_part-01_label-phase1,3.2.4,MacIntel,60,left,0.562000036,4,0,4,0,1,3,1,0,240,32,1,239,,,,,,,,,,,,,,,,,,
,,0,150,,,,,,,2,5,1,stim/51.jpeg,HouseObjects,2,stim/objects/HouseObjects/glassmop.png,0.7,4,0.2,-0.15,right,61,2021-03-29_07h15.47.725,premup-three_ses-01_part-01_label-phase1,3.2.4,MacIntel,60,left,1.174000025,4,0,4,0,1,3,1,0,240,92,1,239,,,,,,,,,,,,,,,,,,
,,1,151,,,,,,,1,3,3,stim/33.jpeg,Instruments,1,stim/objects/Instruments/electricguitar.png,0.5,1,-0.2,0.15,left,61,2021-03-29_07h15.47.725,premup-three_ses-01_part-01_label-phase1,3.2.4,MacIntel,60,left,0.677000046,4,0,4,0,1,3,1,0,240,18,1,239,,,,,,,,,,,,,,,,,,
,,0,152,,,,,,,1,3,4,stim/34.jpeg,Instruments,1,stim/objects/Instruments/flute.png,0.5,2,0.2,0.15,left,61,2021-03-29_07h15.47.725,premup-three_ses-01_part-01_label-phase1,3.2.4,MacIntel,60,right,0.960999966,4,0,4,0,1,3,1,0,240,11,1,239,,,,,,,,,,,,,,,,,,
,,1,153,,,,,,,1,4,2,stim/42.jpeg,HouseObjects,2,stim/objects/HouseObjects/flyswatter.png,0.5,2,0.2,0.15,right,61,2021-03-29_07h15.47.725,premup-three_ses-01_part-01_label-phase1,3.2.4,MacIntel,60,right,0.32400012,4,0,4,0,1,3,1,0,240,61,1,239,,,,,,,,,,,,,,,,,,
,,1,154,,,,,,,3,2,3,stim/23.jpeg,Instruments,1,stim/objects/Instruments/harp2.png,0.9,1,-0.2,0.15,left,61,2021-03-29_07h15.47.725,premup-three_ses-01_part-01_label-phase1,3.2.4,MacIntel,60,left,0.328999996,4,0,4,0,1,3,1,0,240,214,1,239,,,,,,,,,,,,,,,,,,
,,0,155,,,,,,,1,4,4,stim/44.jpeg,Instruments,1,stim/objects/Instruments/grandpiano.png,0.5,2,0.2,0.15,left,61,2021-03-29_07h15.47.725,premup-three_ses-01_part-01_label-phase1,3.2.4,MacIntel,60,right,0.815000057,4,0,4,0,1,3,1,0,240,47,1,239,,,,,,,,,,,,,,,,,,
,,1,156,,,,,,,1,3,4,stim/34.jpeg,Instruments,1,stim/objects/Instruments/flute.png,0.5,2,0.2,0.15,left,61,2021-03-29_07h15.47.725,premup-three_ses-01_part-01_label-phase1,3.2.4,MacIntel,60,left,0.461999893,4,0,4,0,1,3,1,0,240,3,1,239,,,,,,,,,,,,,,,,,,
,,0,157,,,,,,,2,5,1,stim/51.jpeg,HouseObjects,2,stim/objects/HouseObjects/glassmop.png,0.7,2,0.2,0.15,right,61,2021-03-29_07h15.47.725,premup-three_ses-01_part-01_label-phase1,3.2.4,MacIntel,60,left,1.02699995,4,0,4,0,1,3,1,0,240,108,1,239,,,,,,,,,,,,,,,,,,
,,0,158,,,,,,,1,4,2,stim/42.jpeg,HouseObjects,2,stim/objects/HouseObjects/flyswatter.png,0.5,4,0.2,-0.15,right,61,2021-03-29_07h15.47.725,premup-three_ses-01_part-01_label-phase1,3.2.4,MacIntel,60,,,4,0,4,0,1,3,1,0,240,65,1,239,,,,,,,,,,,,,,,,,,
,,0,159,,,,,,,1,3,2,stim/32.jpeg,HouseObjects,2,stim/objects/HouseObjects/cushion.png,0.5,1,-0.2,0.15,right,61,2021-03-29_07h15.47.725,premup-three_ses-01_part-01_label-phase1,3.2.4,MacIntel,60,left,0.19299984,4,0,4,0,1,3,1,0,240,29,1,239,,,,,,,,,,,,,,,,,,
,,0,160,,,,,,,1,4,3,stim/43.jpeg,HouseObjects,2,stim/objects/HouseObjects/garbagebin.png,0.5,1,-0.2,0.15,right,61,2021-03-29_07h15.47.725,premup-three_ses-01_part-01_label-phase1,3.2.4,MacIntel,60,left,0.260999918,4,0,4,0,1,3,1,0,240,70,1,239,,,,,,,,,,,,,,,,,,
,,0,161,,,,,,,2,6,4,stim/64.jpeg,HouseObjects,2,stim/objects/HouseObjects/doormat2.png,0.3,4,0.2,-0.15,right,61,2021-03-29_07h15.47.725,premup-three_ses-01_part-01_label-phase1,3.2.4,MacIntel,60,left,0.328999996,4,0,4,0,1,3,1,0,240,151,1,239,,,,,,,,,,,,,,,,,,
,,1,162,,,,,,,3,2,3,stim/23.jpeg,Instruments,1,stim/objects/Instruments/harp2.png,0.9,1,-0.2,0.15,left,61,2021-03-29_07h15.47.725,premup-three_ses-01_part-01_label-phase1,3.2.4,MacIntel,60,left,0.545000076,4,0,4,0,1,3,1,0,240,234,1,239,,,,,,,,,,,,,,,,,,
,,1,163,,,,,,,2,5,1,stim/51.jpeg,Instruments,1,stim/objects/Instruments/guitarcase.png,0.3,1,-0.2,0.15,left,61,2021-03-29_07h15.47.725,premup-three_ses-01_part-01_label-phase1,3.2.4,MacIntel,60,left,0.177999973,4,0,4,0,1,3,1,0,240,84,1,239,,,,,,,,,,,,,,,,,,
,,1,164,,,,,,,1,3,4,stim/34.jpeg,Instruments,1,stim/objects/Instruments/flute.png,0.5,1,-0.2,0.15,left,61,2021-03-29_07h15.47.725,premup-three_ses-01_part-01_label-phase1,3.2.4,MacIntel,60,left,0.407000065,4,0,4,0,1,3,1,0,240,19,1,239,,,,,,,,,,,,,,,,,,
,,0,165,,,,,,,3,2,4,stim/24.jpeg,Instruments,1,stim/objects/Instruments/hihat2.png,0.9,2,0.2,0.15,left,61,2021-03-29_07h15.47.725,premup-three_ses-01_part-01_label-phase1,3.2.4,MacIntel,60,right,0.375,4,0,4,0,1,3,1,0,240,227,1,239,,,,,,,,,,,,,,,,,,
,,1,166,,,,,,,2,6,4,stim/64.jpeg,Instruments,1,stim/objects/Instruments/flute2.png,0.7,1,-0.2,0.15,left,61,2021-03-29_07h15.47.725,premup-three_ses-01_part-01_label-phase1,3.2.4,MacIntel,60,left,0.710999966,4,0,4,0,1,3,1,0,240,139,1,239,,,,,,,,,,,,,,,,,,
,,0,167,,,,,,,2,5,4,stim/54.jpeg,Instruments,1,stim/objects/Instruments/hihat.png,0.3,2,0.2,0.15,left,61,2021-03-29_07h15.47.725,premup-three_ses-01_part-01_label-phase1,3.2.4,MacIntel,60,right,0.895000219,4,0,4,0,1,3,1,0,240,91,1,239,,,,,,,,,,,,,,,,,,
,,0,168,,,,,,,2,6,3,stim/63.jpeg,HouseObjects,2,stim/objects/HouseObjects/dishsoap2.png,0.3,4,0.2,-0.15,right,61,2021-03-29_07h15.47.725,premup-three_ses-01_part-01_label-phase1,3.2.4,MacIntel,60,left,0.875999928,4,0,4,0,1,3,1,0,240,150,1,239,,,,,,,,,,,,,,,,,,
,,0,169,,,,,,,2,6,1,stim/61.jpeg,HouseObjects,2,stim/objects/HouseObjects/coffee2.png,0.3,2,0.2,0.15,right,61,2021-03-29_07h15.47.725,premup-three_ses-01_part-01_label-phase1,3.2.4,MacIntel,60,left,0.972999811,4,0,4,0,1,3,1,0,240,152,1,239,,,,,,,,,,,,,,,,,,
,,1,170,,,,,,,3,1,2,stim/12.jpeg,HouseObjects,2,stim/objects/HouseObjects/flyswatter2.png,0.9,2,0.2,0.15,right,61,2021-03-29_07h15.47.725,premup-three_ses-01_part-01_label-phase1,3.2.4,MacIntel,60,right,0.677000046,4,0,4,0,1,3,1,0,240,197,1,239,,,,,,,,,,,,,,,,,,
,,1,171,,,,,,,3,1,2,stim/12.jpeg,HouseObjects,2,stim/objects/HouseObjects/flyswatter2.png,0.9,4,0.2,-0.15,right,61,2021-03-29_07h15.47.725,premup-three_ses-01_part-01_label-phase1,3.2.4,MacIntel,60,right,1.694999933,4,0,4,0,1,3,1,0,240,177,1,239,,,,,,,,,,,,,,,,,,
,,1,172,,,,,,,3,2,4,stim/24.jpeg,Instruments,1,stim/objects/Instruments/hihat2.png,0.9,1,-0.2,0.15,left,61,2021-03-29_07h15.47.725,premup-three_ses-01_part-01_label-phase1,3.2.4,MacIntel,60,left,1.094000101,4,0,4,0,1,3,1,0,240,203,1,239,,,,,,,,,,,,,,,,,,
,,1,173,,,,,,,3,2,2,stim/22.jpeg,Instruments,1,stim/objects/Instruments/harmonica2.png,0.9,1,-0.2,0.15,left,61,2021-03-29_07h15.47.725,premup-three_ses-01_part-01_label-phase1,3.2.4,MacIntel,60,left,0.607999802,4,0,4,0,1,3,1,0,240,201,1,239,,,,,,,,,,,,,,,,,,
,,0,174,,,,,,,1,3,4,stim/34.jpeg,Instruments,1,stim/objects/Instruments/flute.png,0.5,3,-0.2,-0.15,left,61,2021-03-29_07h15.47.725,premup-three_ses-01_part-01_label-phase1,3.2.4,MacIntel,60,right,1.414999962,4,0,4,0,1,3,1,0,240,7,1,239,,,,,,,,,,,,,,,,,,
,,0,175,,,,,,,2,6,2,stim/62.jpeg,HouseObjects,2,stim/objects/HouseObjects/cushion2.png,0.3,2,0.2,0.15,right,61,2021-03-29_07h15.47.725,premup-three_ses-01_part-01_label-phase1,3.2.4,MacIntel,60,left,1.757999897,4,0,4,0,1,3,1,0,240,153,1,239,,,,,,,,,,,,,,,,,,
,,0,176,,,,,,,1,3,1,stim/31.jpeg,HouseObjects,2,stim/objects/HouseObjects/coffee.png,0.5,2,0.2,0.15,right,61,2021-03-29_07h15.47.725,premup-three_ses-01_part-01_label-phase1,3.2.4,MacIntel,60,left,0.872999907,4,0,4,0,1,3,1,0,240,24,1,239,,,,,,,,,,,,,,,,,,
,,1,177,,,,,,,3,1,1,stim/11.jpeg,HouseObjects,2,stim/objects/HouseObjects/dustpan2.png,0.9,2,0.2,0.15,right,61,2021-03-29_07h15.47.725,premup-three_ses-01_part-01_label-phase1,3.2.4,MacIntel,60,right,1.096999884,4,0,4,0,1,3,1,0,240,196,1,239,,,,,,,,,,,,,,,,,,
,,0,178,,,,,,,3,2,2,stim/22.jpeg,Instruments,1,stim/objects/Instruments/harmonica2.png,0.9,3,-0.2,-0.15,left,61,2021-03-29_07h15.47.725,premup-three_ses-01_part-01_label-phase1,3.2.4,MacIntel,60,right,1.625999928,4,0,4,0,1,3,1,0,240,217,1,239,,,,,,,,,,,,,,,,,,
,,0,179,,,,,,,2,6,3,stim/63.jpeg,HouseObjects,2,stim/objects/HouseObjects/dishsoap2.png,0.3,4,0.2,-0.15,right,61,2021-03-29_07h15.47.725,premup-three_ses-01_part-01_label-phase1,3.2.4,MacIntel,60,left,1.079999924,4,0,4,0,1,3,1,0,240,158,1,239,,,,,,,,,,,,,,,,,,
,,0,180,,,,,,,3,2,2,stim/22.jpeg,HouseObjects,2,stim/objects/HouseObjects/hairdryer2.png,0.1,2,0.2,0.15,right,61,2021-03-29_07h15.47.725,premup-three_ses-01_part-01_label-phase1,3.2.4,MacIntel,60,left,0.84100008,4,0,4,0,1,3,1,0,240,237,1,239,,,,,,,,,,,,,,,,,,
,,1,181,,,,,,,1,3,2,stim/32.jpeg,Instruments,1,stim/objects/Instruments/electricdrumset.png,0.5,4,0.2,-0.15,left,61,2021-03-29_07h15.47.725,premup-three_ses-01_part-01_label-phase1,3.2.4,MacIntel,60,left,1.493999958,4,0,4,0,1,3,1,0,240,9,1,239,,,,,,,,,,,,,,,,,,
,,0,182,,,,,,,3,1,4,stim/14.jpeg,HouseObjects,2,stim/objects/HouseObjects/glass2.png,0.9,3,-0.2,-0.15,right,61,2021-03-29_07h15.47.725,premup-three_ses-01_part-01_label-phase1,3.2.4,MacIntel,60,left,1.345000029,4,0,4,0,1,3,1,0,240,195,1,239,,,,,,,,,,,,,,,,,,
,,1,183,,,,,,,2,6,2,stim/62.jpeg,HouseObjects,2,stim/objects/HouseObjects/cushion2.png,0.3,4,0.2,-0.15,right,61,2021-03-29_07h15.47.725,premup-three_ses-01_part-01_label-phase1,3.2.4,MacIntel,60,right,1.332000017,4,0,4,0,1,3,1,0,240,149,1,239,,,,,,,,,,,,,,,,,,
,,0,184,,,,,,,2,5,4,stim/54.jpeg,Instruments,1,stim/objects/Instruments/hihat.png,0.3,2,0.2,0.15,left,61,2021-03-29_07h15.47.725,premup-three_ses-01_part-01_label-phase1,3.2.4,MacIntel,60,right,0.81099987,4,0,4,0,1,3,1,0,240,87,1,239,,,,,,,,,,,,,,,,,,
,,1,185,,,,,,,3,2,4,stim/24.jpeg,Instruments,1,stim/objects/Instruments/hihat2.png,0.9,4,0.2,-0.15,left,61,2021-03-29_07h15.47.725,premup-three_ses-01_part-01_label-phase1,3.2.4,MacIntel,60,left,0.664999962,4,0,4,0,1,3,1,0,240,231,1,239,,,,,,,,,,,,,,,,,,
,,0,186,,,,,,,1,3,1,stim/31.jpeg,HouseObjects,2,stim/objects/HouseObjects/coffee.png,0.5,4,0.2,-0.15,right,61,2021-03-29_07h15.47.725,premup-three_ses-01_part-01_label-phase1,3.2.4,MacIntel,60,left,0.292999983,4,0,4,0,1,3,1,0,240,28,1,239,,,,,,,,,,,,,,,,,,
,,0,187,,,,,,,1,3,1,stim/31.jpeg,HouseObjects,2,stim/objects/HouseObjects/coffee.png,0.5,3,-0.2,-0.15,right,61,2021-03-29_07h15.47.725,premup-three_ses-01_part-01_label-phase1,3.2.4,MacIntel,60,left,0.532000065,4,0,4,0,1,3,1,0,240,36,1,239,,,,,,,,,,,,,,,,,,
,,0,188,,,,,,,1,4,4,stim/44.jpeg,HouseObjects,2,stim/objects/HouseObjects/glass.png,0.5,3,-0.2,-0.15,right,61,2021-03-29_07h15.47.725,premup-three_ses-01_part-01_label-phase1,3.2.4,MacIntel,60,left,0.731999874,4,0,4,0,1,3,1,0,240,75,1,239,,,,,,,,,,,,,,,,,,
,,0,189,,,,,,,2,5,2,stim/52.jpeg,HouseObjects,2,stim/objects/HouseObjects/hairdryer.png,0.7,3,-0.2,-0.15,right,61,2021-03-29_07h15.47.725,premup-three_ses-01_part-01_label-phase1,3.2.4,MacIntel,60,left,0.427999973,4,0,4,0,1,3,1,0,240,117,1,239,,,,,,,,,,,,,,,,,,
,,1,190,,,,,,,1,3,3,stim/33.jpeg,HouseObjects,2,stim/objects/HouseObjects/dishsoap.png,0.5,3,-0.2,-0.15,right,61,2021-03-29_07h15.47.725,premup-three_ses-01_part-01_label-phase1,3.2.4,MacIntel,60,right,0.546999931,4,0,4,0,1,3,1,0,240,38,1,239,,,,,,,,,,,,,,,,,,
,,1,191,,,,,,,3,2,2,stim/22.jpeg,Instruments,1,stim/objects/Instruments/harmonica2.png,0.9,3,-0.2,-0.15,left,61,2021-03-29_07h15.47.725,premup-three_ses-01_part-01_label-phase1,3.2.4,MacIntel,60,left,0.734000206,4,0,4,0,1,3,1,0,240,213,1,239,,,,,,,,,,,,,,,,,,
,,0,192,,,,,,,1,3,4,stim/34.jpeg,HouseObjects,2,stim/objects/HouseObjects/doormat.png,0.5,1,-0.2,0.15,right,61,2021-03-29_07h15.47.725,premup-three_ses-01_part-01_label-phase1,3.2.4,MacIntel,60,left,0.713999987,4,0,4,0,1,3,1,0,240,23,1,239,,,,,,,,,,,,,,,,,,
,,1,193,,,,,,,3,2,3,stim/23.jpeg,Instruments,1,stim/objects/Instruments/harp2.png,0.9,4,0.2,-0.15,left,61,2021-03-29_07h15.47.725,premup-three_ses-01_part-01_label-phase1,3.2.4,MacIntel,60,left,0.973999977,4,0,4,0,1,3,1,0,240,230,1,239,,,,,,,,,,,,,,,,,,
,,1,194,,,,,,,2,6,4,stim/64.jpeg,Instruments,1,stim/objects/Instruments/flute2.png,0.7,2,0.2,0.15,left,61,2021-03-29_07h15.47.725,premup-three_ses-01_part-01_label-phase1,3.2.4,MacIntel,60,left,1.260999918,4,0,4,0,1,3,1,0,240,131,1,239,,,,,,,,,,,,,,,,,,
,,0,195,,,,,,,1,3,4,stim/34.jpeg,HouseObjects,2,stim/objects/HouseObjects/doormat.png,0.5,1,-0.2,0.15,right,61,2021-03-29_07h15.47.725,premup-three_ses-01_part-01_label-phase1,3.2.4,MacIntel,60,left,1.558999777,4,0,4,0,1,3,1,0,240,27,1,239,,,,,,,,,,,,,,,,,,
,,1,196,,,,,,,1,4,4,stim/44.jpeg,HouseObjects,2,stim/objects/HouseObjects/glass.png,0.5,2,0.2,0.15,right,61,2021-03-29_07h15.47.725,premup-three_ses-01_part-01_label-phase1,3.2.4,MacIntel,60,right,1.459000111,4,0,4,0,1,3,1,0,240,67,1,239,,,,,,,,,,,,,,,,,,
,,1,197,,,,,,,2,5,4,stim/54.jpeg,HouseObjects,2,stim/objects/HouseObjects/handvacuum.png,0.7,1,-0.2,0.15,right,61,2021-03-29_07h15.47.725,premup-three_ses-01_part-01_label-phase1,3.2.4,MacIntel,60,right,1.04399991,4,0,4,0,1,3,1,0,240,99,1,239,,,,,,,,,,,,,,,,,,
,,1,198,,,,,,,1,3,2,stim/32.jpeg,Instruments,1,stim/objects/Instruments/electricdrumset.png,0.5,4,0.2,-0.15,left,61,2021-03-29_07h15.47.725,premup-three_ses-01_part-01_label-phase1,3.2.4,MacIntel,60,left,0.911999941,4,0,4,0,1,3,1,0,240,13,1,239,,,,,,,,,,,,,,,,,,
,,1,199,,,,,,,2,5,3,stim/53.jpeg,HouseObjects,2,stim/objects/HouseObjects/handbrush.png,0.7,3,-0.2,-0.15,right,61,2021-03-29_07h15.47.725,premup-three_ses-01_part-01_label-phase1,3.2.4,MacIntel,60,right,1.157999992,4,0,4,0,1,3,1,0,240,94,1,239,,,,,,,,,,,,,,,,,,
,,0,200,,,,,,,3,1,1,stim/11.jpeg,HouseObjects,2,stim/objects/HouseObjects/dustpan2.png,0.9,4,0.2,-0.15,right,61,2021-03-29_07h15.47.725,premup-three_ses-01_part-01_label-phase1,3.2.4,MacIntel,60,left,0.727999926,4,0,4,0,1,3,1,0,240,188,1,239,,,,,,,,,,,,,,,,,,
,,0,201,,,,,,,1,3,1,stim/31.jpeg,HouseObjects,2,stim/objects/HouseObjects/coffee.png,0.5,1,-0.2,0.15,right,61,2021-03-29_07h15.47.725,premup-three_ses-01_part-01_label-phase1,3.2.4,MacIntel,60,left,1.644000053,4,0,4,0,1,3,1,0,240,20,1,239,,,,,,,,,,,,,,,,,,
,,1,202,,,,,,,1,4,4,stim/44.jpeg,HouseObjects,2,stim/objects/HouseObjects/glass.png,0.5,1,-0.2,0.15,right,61,2021-03-29_07h15.47.725,premup-three_ses-01_part-01_label-phase1,3.2.4,MacIntel,60,right,1.226999998,4,0,4,0,1,3,1,0,240,79,1,239,,,,,,,,,,,,,,,,,,
,,1,203,,,,,,,2,6,4,stim/64.jpeg,Instruments,1,stim/objects/Instruments/flute2.png,0.7,4,0.2,-0.15,left,61,2021-03-29_07h15.47.725,premup-three_ses-01_part-01_label-phase1,3.2.4,MacIntel,60,left,0.927000046,4,0,4,0,1,3,1,0,240,147,1,239,,,,,,,,,,,,,,,,,,
,,1,204,,,,,,,3,1,4,stim/14.jpeg,HouseObjects,2,stim/objects/HouseObjects/glass2.png,0.9,3,-0.2,-0.15,right,61,2021-03-29_07h15.47.725,premup-three_ses-01_part-01_label-phase1,3.2.4,MacIntel,60,right,1.794999838,4,0,4,0,1,3,1,0,240,179,1,239,,,,,,,,,,,,,,,,,,
,,1,205,,,,,,,3,1,4,stim/14.jpeg,HouseObjects,2,stim/objects/HouseObjects/glass2.png,0.9,3,-0.2,-0.15,right,61,2021-03-29_07h15.47.725,premup-three_ses-01_part-01_label-phase1,3.2.4,MacIntel,60,right,0.542999983,4,0,4,0,1,3,1,0,240,167,1,239,,,,,,,,,,,,,,,,,,
,,1,206,,,,,,,3,1,3,stim/13.jpeg,HouseObjects,2,stim/objects/HouseObjects/garbagebin2.png,0.9,3,-0.2,-0.15,right,61,2021-03-29_07h15.47.725,premup-three_ses-01_part-01_label-phase1,3.2.4,MacIntel,60,right,0.826999903,4,0,4,0,1,3,1,0,240,170,1,239,,,,,,,,,,,,,,,,,,
,,0,207,,,,,,,2,5,3,stim/53.jpeg,Instruments,1,stim/objects/Instruments/harp.png,0.3,1,-0.2,0.15,left,61,2021-03-29_07h15.47.725,premup-three_ses-01_part-01_label-phase1,3.2.4,MacIntel,60,right,1.048000097,4,0,4,0,1,3,1,0,240,82,1,239,,,,,,,,,,,,,,,,,,
,,1,208,,,,,,,3,2,4,stim/24.jpeg,Instruments,1,stim/objects/Instruments/hihat2.png,0.9,1,-0.2,0.15,left,61,2021-03-29_07h15.47.725,premup-three_ses-01_part-01_label-phase1,3.2.4,MacIntel,60,left,1.29399991,4,0,4,0,1,3,1,0,240,223,1,239,,,,,,,,,,,,,,,,,,
,,0,209,,,,,,,1,4,3,stim/43.jpeg,HouseObjects,2,stim/objects/HouseObjects/garbagebin.png,0.5,3,-0.2,-0.15,right,61,2021-03-29_07h15.47.725,premup-three_ses-01_part-01_label-phase1,3.2.4,MacIntel,60,left,0.976999998,4,0,4,0,1,3,1,0,240,74,1,239,,,,,,,,,,,,,,,,,,
,,1,210,,,,,,,2,6,4,stim/64.jpeg,Instruments,1,stim/objects/Instruments/flute2.png,0.7,3,-0.2,-0.15,left,61,2021-03-29_07h15.47.725,premup-three_ses-01_part-01_label-phase1,3.2.4,MacIntel,60,left,0.721999884,4,0,4,0,1,3,1,0,240,123,1,239,,,,,,,,,,,,,,,,,,
,,0,211,,,,,,,2,6,3,stim/63.jpeg,Instruments,1,stim/objects/Instruments/electricguitar2.png,0.7,2,0.2,0.15,left,61,2021-03-29_07h15.47.725,premup-three_ses-01_part-01_label-phase1,3.2.4,MacIntel,60,right,1.325999975,4,0,4,0,1,3,1,0,240,134,1,239,,,,,,,,,,,,,,,,,,
,,0,212,,,,,,,1,4,1,stim/41.jpeg,HouseObjects,2,stim/objects/HouseObjects/dustpan.png,0.5,4,0.2,-0.15,right,61,2021-03-29_07h15.47.725,premup-three_ses-01_part-01_label-phase1,3.2.4,MacIntel,60,left,1.105999947,4,0,4,0,1,3,1,0,240,68,1,239,,,,,,,,,,,,,,,,,,
,,0,213,,,,,,,3,1,2,stim/12.jpeg,HouseObjects,2,stim/objects/HouseObjects/flyswatter2.png,0.9,3,-0.2,-0.15,right,61,2021-03-29_07h15.47.725,premup-three_ses-01_part-01_label-phase1,3.2.4,MacIntel,60,left,0.648000002,4,0,4,0,1,3,1,0,240,193,1,239,,,,,,,,,,,,,,,,,,
,,0,214,,,,,,,2,5,4,stim/54.jpeg,HouseObjects,2,stim/objects/HouseObjects/handvacuum.png,0.7,1,-0.2,0.15,right,61,2021-03-29_07h15.47.725,premup-three_ses-01_part-01_label-phase1,3.2.4,MacIntel,60,left,0.428000212,4,0,4,0,1,3,1,0,240,111,1,239,,,,,,,,,,,,,,,,,,
,,0,215,,,,,,,1,4,2,stim/42.jpeg,HouseObjects,2,stim/objects/HouseObjects/flyswatter.png,0.5,3,-0.2,-0.15,right,61,2021-03-29_07h15.47.725,premup-three_ses-01_part-01_label-phase1,3.2.4,MacIntel,60,left,0.56099987,4,0,4,0,1,3,1,0,240,69,1,239,,,,,,,,,,,,,,,,,,
,,0,216,,,,,,,3,2,1,stim/21.jpeg,Instruments,1,stim/objects/Instruments/guitarcase2.png,0.9,2,0.2,0.15,left,61,2021-03-29_07h15.47.725,premup-three_ses-01_part-01_label-phase1,3.2.4,MacIntel,60,right,0.559000015,4,0,4,0,1,3,1,0,240,228,1,239,,,,,,,,,,,,,,,,,,
,,0,217,,,,,,,3,1,3,stim/13.jpeg,HouseObjects,2,stim/objects/HouseObjects/garbagebin2.png,0.9,3,-0.2,-0.15,right,61,2021-03-29_07h15.47.725,premup-three_ses-01_part-01_label-phase1,3.2.4,MacIntel,60,,,4,0,4,0,1,3,1,0,240,186,1,239,,,,,,,,,,,,,,,,,,
,,1,218,,,,,,,2,6,3,stim/63.jpeg,Instruments,1,stim/objects/Instruments/electricguitar2.png,0.7,1,-0.2,0.15,left,61,2021-03-29_07h15.47.725,premup-three_ses-01_part-01_label-phase1,3.2.4,MacIntel,60,left,0.243000031,4,0,4,0,1,3,1,0,240,126,1,239,,,,,,,,,,,,,,,,,,
,,1,219,,,,,,,3,1,2,stim/12.jpeg,Instruments,1,stim/objects/Instruments/frenchhorn2.png,0.1,3,-0.2,-0.15,left,61,2021-03-29_07h15.47.725,premup-three_ses-01_part-01_label-phase1,3.2.4,MacIntel,60,left,0.56099987,4,0,4,0,1,3,1,0,240,161,1,239,,,,,,,,,,,,,,,,,,
,,1,220,,,,,,,2,5,2,stim/52.jpeg,Instruments,1,stim/objects/Instruments/harmonica.png,0.3,1,-0.2,0.15,left,61,2021-03-29_07h15.47.725,premup-three_ses-01_part-01_label-phase1,3.2.4,MacIntel,60,left,0.44900012,4,0,4,0,1,3,1,0,240,89,1,239,,,,,,,,,,,,,,,,,,
,,1,221,,,,,,,1,4,1,stim/41.jpeg,HouseObjects,2,stim/objects/HouseObjects/dustpan.png,0.5,1,-0.2,0.15,right,61,2021-03-29_07h15.47.725,premup-three_ses-01_part-01_label-phase1,3.2.4,MacIntel,60,right,0.411000013,4,0,4,0,1,3,1,0,240,60,1,239,,,,,,,,,,,,,,,,,,
,,1,222,,,,,,,1,3,2,stim/32.jpeg,HouseObjects,2,stim/objects/HouseObjects/cushion.png,0.5,1,-0.2,0.15,right,61,2021-03-29_07h15.47.725,premup-three_ses-01_part-01_label-phase1,3.2.4,MacIntel,60,right,0.295000076,4,0,4,0,1,3,1,0,240,21,1,239,,,,,,,,,,,,,,,,,,
,,0,223,,,,,,,3,1,1,stim/11.jpeg,HouseObjects,2,stim/objects/HouseObjects/dustpan2.png,0.9,1,-0.2,0.15,right,61,2021-03-29_07h15.47.725,premup-three_ses-01_part-01_label-phase1,3.2.4,MacIntel,60,left,1.56099987,4,0,4,0,1,3,1,0,240,164,1,239,,,,,,,,,,,,,,,,,,
,,0,224,,,,,,,2,5,3,stim/53.jpeg,HouseObjects,2,stim/objects/HouseObjects/handbrush.png,0.7,3,-0.2,-0.15,right,61,2021-03-29_07h15.47.725,premup-three_ses-01_part-01_label-phase1,3.2.4,MacIntel,60,left,0.545000076,4,0,4,0,1,3,1,0,240,118,1,239,,,,,,,,,,,,,,,,,,
,,0,225,,,,,,,2,5,3,stim/53.jpeg,HouseObjects,2,stim/objects/HouseObjects/handbrush.png,0.7,3,-0.2,-0.15,right,61,2021-03-29_07h15.47.725,premup-three_ses-01_part-01_label-phase1,3.2.4,MacIntel,60,left,0.940999985,4,0,4,0,1,3,1,0,240,114,1,239,,,,,,,,,,,,,,,,,,
,,1,226,,,,,,,2,6,2,stim/62.jpeg,Instruments,1,stim/objects/Instruments/electricdrumset2.png,0.7,3,-0.2,-0.15,left,61,2021-03-29_07h15.47.725,premup-three_ses-01_part-01_label-phase1,3.2.4,MacIntel,60,left,0.825999975,4,0,4,0,1,3,1,0,240,125,1,239,,,,,,,,,,,,,,,,,,
,,0,227,,,,,,,3,1,1,stim/11.jpeg,HouseObjects,2,stim/objects/HouseObjects/dustpan2.png,0.9,3,-0.2,-0.15,right,61,2021-03-29_07h15.47.725,premup-three_ses-01_part-01_label-phase1,3.2.4,MacIntel,60,left,0.625999928,4,0,4,0,1,3,1,0,240,168,1,239,,,,,,,,,,,,,,,,,,
,,0,228,,,,,,,2,5,2,stim/52.jpeg,HouseObjects,2,stim/objects/HouseObjects/hairdryer.png,0.7,2,0.2,0.15,right,61,2021-03-29_07h15.47.725,premup-three_ses-01_part-01_label-phase1,3.2.4,MacIntel,60,left,0.86500001,4,0,4,0,1,3,1,0,240,101,1,239,,,,,,,,,,,,,,,,,,
,,0,229,,,,,,,2,5,2,stim/52.jpeg,HouseObjects,2,stim/objects/HouseObjects/hairdryer.png,0.7,3,-0.2,-0.15,right,61,2021-03-29_07h15.47.725,premup-three_ses-01_part-01_label-phase1,3.2.4,MacIntel,60,left,0.796000004,4,0,4,0,1,3,1,0,240,93,1,239,,,,,,,,,,,,,,,,,,
,,0,230,,,,,,,1,4,3,stim/43.jpeg,Instruments,1,stim/objects/Instruments/gong.png,0.5,2,0.2,0.15,left,61,2021-03-29_07h15.47.725,premup-three_ses-01_part-01_label-phase1,3.2.4,MacIntel,60,right,0.328999996,4,0,4,0,1,3,1,0,240,54,1,239,,,,,,,,,,,,,,,,,,
,,0,231,,,,,,,2,6,2,stim/62.jpeg,HouseObjects,2,stim/objects/HouseObjects/cushion2.png,0.3,1,-0.2,0.15,right,61,2021-03-29_07h15.47.725,premup-three_ses-01_part-01_label-phase1,3.2.4,MacIntel,60,left,0.907999992,4,0,4,0,1,3,1,0,240,157,1,239,,,,,,,,,,,,,,,,,,
,,1,232,,,,,,,1,3,2,stim/32.jpeg,Instruments,1,stim/objects/Instruments/electricdrumset.png,0.5,4,0.2,-0.15,left,61,2021-03-29_07h15.47.725,premup-three_ses-01_part-01_label-phase1,3.2.4,MacIntel,60,left,1.545000076,4,0,4,0,1,3,1,0,240,1,1,239,,,,,,,,,,,,,,,,,,
,,0,233,,,,,,,3,2,2,stim/22.jpeg,Instruments,1,stim/objects/Instruments/harmonica2.png,0.9,4,0.2,-0.15,left,61,2021-03-29_07h15.47.725,premup-three_ses-01_part-01_label-phase1,3.2.4,MacIntel,60,right,0.893999815,4,0,4,0,1,3,1,0,240,209,1,239,,,,,,,,,,,,,,,,,,
,,0,234,,,,,,,2,5,3,stim/53.jpeg,HouseObjects,2,stim/objects/HouseObjects/handbrush.png,0.7,3,-0.2,-0.15,right,61,2021-03-29_07h15.47.725,premup-three_ses-01_part-01_label-phase1,3.2.4,MacIntel,60,left,0.001000166,4,0,4,0,1,3,1,0,240,106,1,239,,,,,,,,,,,,,,,,,,
,,1,235,,,,,,,1,4,3,stim/43.jpeg,Instruments,1,stim/objects/Instruments/gong.png,0.5,4,0.2,-0.15,left,61,2021-03-29_07h15.47.725,premup-three_ses-01_part-01_label-phase1,3.2.4,MacIntel,60,left,0.279000044,4,0,4,0,1,3,1,0,240,46,1,239,,,,,,,,,,,,,,,,,,
,,1,236,,,,,,,3,1,1,stim/11.jpeg,HouseObjects,2,stim/objects/HouseObjects/dustpan2.png,0.9,1,-0.2,0.15,right,61,2021-03-29_07h15.47.725,premup-three_ses-01_part-01_label-phase1,3.2.4,MacIntel,60,right,0.262000084,4,0,4,0,1,3,1,0,240,184,1,239,,,,,,,,,,,,,,,,,,
,,0,237,,,,,,,1,3,3,stim/33.jpeg,HouseObjects,2,stim/objects/HouseObjects/dishsoap.png,0.5,3,-0.2,-0.15,right,61,2021-03-29_07h15.47.725,premup-three_ses-01_part-01_label-phase1,3.2.4,MacIntel,60,left,0.50999999,4,0,4,0,1,3,1,0,240,22,1,239,,,,,,,,,,,,,,,,,,
,,0,238,,,,,,,2,5,4,stim/54.jpeg,Instruments,1,stim/objects/Instruments/hihat.png,0.3,1,-0.2,0.15,left,61,2021-03-29_07h15.47.725,premup-three_ses-01_part-01_label-phase1,3.2.4,MacIntel,60,right,0.361000061,4,0,4,0,1,3,1,0,240,83,1,239,,,,,,,,,,,,,,,,,,
,,1,239,,,,,,,3,2,3,stim/23.jpeg,Instruments,1,stim/objects/Instruments/harp2.png,0.9,2,0.2,0.15,left,61,2021-03-29_07h15.47.725,premup-three_ses-01_part-01_label-phase1,3.2.4,MacIntel,60,left,0.002000093,4,0,4,0,1,3,1,0,240,218,1,239,,,,,,,,,,,,,,,,,,
,,1,240,,,,,,,3,1,1,stim/11.jpeg,HouseObjects,2,stim/objects/HouseObjects/dustpan2.png,0.9,2,0.2,0.15,right,61,2021-03-29_07h15.47.725,premup-three_ses-01_part-01_label-phase1,3.2.4,MacIntel,60,right,0.480000019,4,0,4,0,1,3,1,0,240,172,1,239,,,,,,,,,,,,,,,,,,
,,,,,,,,,,,4,,stim/41.jpeg,,,,,,,,,61,2021-03-29_07h15.47.725,premup-three_ses-01_part-01_label-phase1,3.2.4,MacIntel,60,,,4,0,4,0,1,3,,,,,,,1,0,20,22.41899991,,,1,0,6,3,1,5,Music items,65,75,Household items,25,35
,,,,,,,,,,,1,,stim/11.jpeg,,,,,,,,,61,2021-03-29_07h15.47.725,premup-three_ses-01_part-01_label-phase1,3.2.4,MacIntel,60,,,4,0,4,0,1,3,,,,,,,1,0,31,16.47799993,,,1,0,6,0,1,5,Music items,45,55,Household items,45,55
,,,,,,,,,,,2,,stim/21.jpeg,,,,,,,,,61,2021-03-29_07h15.47.725,premup-three_ses-01_part-01_label-phase1,3.2.4,MacIntel,60,,,4,0,4,0,1,3,,,,,,,1,0,31,3.392999887,,,1,0,6,1,1,5,Household items,45,55,Music items,45,55
,,,,,,,,,,,3,,stim/31.jpeg,,,,,,,,,61,2021-03-29_07h15.47.725,premup-three_ses-01_part-01_label-phase1,3.2.4,MacIntel,60,,,4,0,4,0,1,3,,,,,,,1,0,81,3.97300005,,,1,0,6,2,1,5,Music items,65,75,Household items,25,35
,,,,,,,,,,,5,,stim/51.jpeg,,,,,,,,,61,2021-03-29_07h15.47.725,premup-three_ses-01_part-01_label-phase1,3.2.4,MacIntel,60,,,4,0,4,0,1,3,,,,,,,1,0,38,3.696000099,,,1,0,6,4,1,5,Household items,5,15,Music items,85,95
,,,,,,,,,,,6,,stim/61.jpeg,,,,,,,,,61,2021-03-29_07h15.47.725,premup-three_ses-01_part-01_label-phase1,3.2.4,MacIntel,60,,,4,0,4,0,1,3,,,,,,,1,0,80,3.811000109,,,1,0,6,5,1,5,Music items,5,15,Household items,85,95
,,,,,,,,,,,,,,,,,,,,,,61,2021-03-29_07h15.47.725,premup-three_ses-01_part-01_label-phase1,3.2.4,MacIntel,60,,,4,0,4,0,1,3,,,,,,,,,,,,,,,,,,,,,,,,
,,0,1,,,,,,,2,5,1,stim/51.jpeg,Instruments,1,stim/objects/Instruments/guitarcase.png,0.3,1,-0.2,0.15,left,61,2021-03-29_07h15.47.725,premup-three_ses-01_part-01_label-phase1,3.2.4,MacIntel,60,,,4,0,4,0,1,3,1,0,240,84,1,239,,,,,,,,,,,,,,,,,,
,,1,2,,,,,,,2,6,3,stim/63.jpeg,Instruments,1,stim/objects/Instruments/electricguitar2.png,0.7,2,0.2,0.15,left,61,2021-03-29_07h15.47.725,premup-three_ses-01_part-01_label-phase1,3.2.4,MacIntel,60,left,0.867000103,4,0,4,0,1,3,1,0,240,130,1,239,,,,,,,,,,,,,,,,,,
,,0,3,,,,,,,1,3,4,stim/34.jpeg,HouseObjects,2,stim/objects/HouseObjects/doormat.png,0.5,3,-0.2,-0.15,right,61,2021-03-29_07h15.47.725,premup-three_ses-01_part-01_label-phase1,3.2.4,MacIntel,60,left,0.91899991,4,0,4,0,1,3,1,0,240,35,1,239,,,,,,,,,,,,,,,,,,
,,0,4,,,,,,,2,5,1,stim/51.jpeg,Instruments,1,stim/objects/Instruments/guitarcase.png,0.3,1,-0.2,0.15,left,61,2021-03-29_07h15.47.725,premup-three_ses-01_part-01_label-phase1,3.2.4,MacIntel,60,right,1.828000069,4,0,4,0,1,3,1,0,240,88,1,239,,,,,,,,,,,,,,,,,,
,,1,5,,,,,,,1,3,3,stim/33.jpeg,Instruments,1,stim/objects/Instruments/electricguitar.png,0.5,1,-0.2,0.15,left,61,2021-03-29_07h15.47.725,premup-three_ses-01_part-01_label-phase1,3.2.4,MacIntel,60,left,0.847000122,4,0,4,0,1,3,1,0,240,10,1,239,,,,,,,,,,,,,,,,,,
,,1,6,,,,,,,3,2,2,stim/22.jpeg,Instruments,1,stim/objects/Instruments/harmonica2.png,0.9,1,-0.2,0.15,left,61,2021-03-29_07h15.47.725,premup-three_ses-01_part-01_label-phase1,3.2.4,MacIntel,60,left,0.861999989,4,0,4,0,1,3,1,0,240,201,1,239,,,,,,,,,,,,,,,,,,
,,0,7,,,,,,,1,4,4,stim/44.jpeg,Instruments,1,stim/objects/Instruments/grandpiano.png,0.5,4,0.2,-0.15,left,61,2021-03-29_07h15.47.725,premup-three_ses-01_part-01_label-phase1,3.2.4,MacIntel,60,right,0.745999813,4,0,4,0,1,3,1,0,240,59,1,239,,,,,,,,,,,,,,,,,,
,,1,8,,,,,,,2,6,3,stim/63.jpeg,Instruments,1,stim/objects/Instruments/electricguitar2.png,0.7,3,-0.2,-0.15,left,61,2021-03-29_07h15.47.725,premup-three_ses-01_part-01_label-phase1,3.2.4,MacIntel,60,left,0.865999937,4,0,4,0,1,3,1,0,240,122,1,239,,,,,,,,,,,,,,,,,,
,,0,9,,,,,,,1,3,2,stim/32.jpeg,HouseObjects,2,stim/objects/HouseObjects/cushion.png,0.5,1,-0.2,0.15,right,61,2021-03-29_07h15.47.725,premup-three_ses-01_part-01_label-phase1,3.2.4,MacIntel,60,left,0.865999937,4,0,4,0,1,3,1,0,240,21,1,239,,,,,,,,,,,,,,,,,,
,,0,10,,,,,,,1,3,3,stim/33.jpeg,HouseObjects,2,stim/objects/HouseObjects/dishsoap.png,0.5,3,-0.2,-0.15,right,61,2021-03-29_07h15.47.725,premup-three_ses-01_part-01_label-phase1,3.2.4,MacIntel,60,left,0.74000001,4,0,4,0,1,3,1,0,240,30,1,239,,,,,,,,,,,,,,,,,,
,,0,11,,,,,,,3,1,2,stim/12.jpeg,HouseObjects,2,stim/objects/HouseObjects/flyswatter2.png,0.9,1,-0.2,0.15,right,61,2021-03-29_07h15.47.725,premup-three_ses-01_part-01_label-phase1,3.2.4,MacIntel,60,left,0.588999987,4,0,4,0,1,3,1,0,240,169,1,239,,,,,,,,,,,,,,,,,,
,,1,12,,,,,,,2,6,4,stim/64.jpeg,Instruments,1,stim/objects/Instruments/flute2.png,0.7,4,0.2,-0.15,left,61,2021-03-29_07h15.47.725,premup-three_ses-01_part-01_label-phase1,3.2.4,MacIntel,60,left,0.728999853,4,0,4,0,1,3,1,0,240,143,1,239,,,,,,,,,,,,,,,,,,
,,1,13,,,,,,,2,6,3,stim/63.jpeg,HouseObjects,2,stim/objects/HouseObjects/dishsoap2.png,0.3,4,0.2,-0.15,right,61,2021-03-29_07h15.47.725,premup-three_ses-01_part-01_label-phase1,3.2.4,MacIntel,60,right,0.263000011,4,0,4,0,1,3,1,0,240,158,1,239,,,,,,,,,,,,,,,,,,
,,0,14,,,,,,,3,2,1,stim/21.jpeg,Instruments,1,stim/objects/Instruments/guitarcase2.png,0.9,1,-0.2,0.15,left,61,2021-03-29_07h15.47.725,premup-three_ses-01_part-01_label-phase1,3.2.4,MacIntel,60,right,0.758999825,4,0,4,0,1,3,1,0,240,216,1,239,,,,,,,,,,,,,,,,,,
,,1,15,,,,,,,1,4,2,stim/42.jpeg,Instruments,1,stim/objects/Instruments/frenchhorn.png,0.5,4,0.2,-0.15,left,61,2021-03-29_07h15.47.725,premup-three_ses-01_part-01_label-phase1,3.2.4,MacIntel,60,left,0.674999952,4,0,4,0,1,3,1,0,240,57,1,239,,,,,,,,,,,,,,,,,,
,,0,16,,,,,,,1,4,2,stim/42.jpeg,HouseObjects,2,stim/objects/HouseObjects/flyswatter.png,0.5,2,0.2,0.15,right,61,2021-03-29_07h15.47.725,premup-three_ses-01_part-01_label-phase1,3.2.4,MacIntel,60,left,0.843999863,4,0,4,0,1,3,1,0,240,73,1,239,,,,,,,,,,,,,,,,,,
,,0,17,,,,,,,3,2,4,stim/24.jpeg,Instruments,1,stim/objects/Instruments/hihat2.png,0.9,1,-0.2,0.15,left,61,2021-03-29_07h15.47.725,premup-three_ses-01_part-01_label-phase1,3.2.4,MacIntel,60,right,0.442000151,4,0,4,0,1,3,1,0,240,219,1,239,,,,,,,,,,,,,,,,,,
,,1,18,,,,,,,2,6,4,stim/64.jpeg,Instruments,1,stim/objects/Instruments/flute2.png,0.7,2,0.2,0.15,left,61,2021-03-29_07h15.47.725,premup-three_ses-01_part-01_label-phase1,3.2.4,MacIntel,60,left,0.211999893,4,0,4,0,1,3,1,0,240,131,1,239,,,,,,,,,,,,,,,,,,
,,1,19,,,,,,,2,6,1,stim/61.jpeg,Instruments,1,stim/objects/Instruments/drums2.png,0.7,2,0.2,0.15,left,61,2021-03-29_07h15.47.725,premup-three_ses-01_part-01_label-phase1,3.2.4,MacIntel,60,left,0.61500001,4,0,4,0,1,3,1,0,240,124,1,239,,,,,,,,,,,,,,,,,,
,,1,20,,,,,,,1,3,1,stim/31.jpeg,Instruments,1,stim/objects/Instruments/drums.png,0.5,1,-0.2,0.15,left,61,2021-03-29_07h15.47.725,premup-three_ses-01_part-01_label-phase1,3.2.4,MacIntel,60,left,0.227999926,4,0,4,0,1,3,1,0,240,4,1,239,,,,,,,,,,,,,,,,,,
,,0,21,,,,,,,2,5,3,stim/53.jpeg,Instruments,1,stim/objects/Instruments/harp.png,0.3,4,0.2,-0.15,left,61,2021-03-29_07h15.47.725,premup-three_ses-01_part-01_label-phase1,3.2.4,MacIntel,60,right,0.129000187,4,0,4,0,1,3,1,0,240,86,1,239,,,,,,,,,,,,,,,,,,
,,1,22,,,,,,,1,4,4,stim/44.jpeg,Instruments,1,stim/objects/Instruments/grandpiano.png,0.5,3,-0.2,-0.15,left,61,2021-03-29_07h15.47.725,premup-three_ses-01_part-01_label-phase1,3.2.4,MacIntel,60,left,0,4,0,4,0,1,3,1,0,240,43,1,239,,,,,,,,,,,,,,,,,,
,,0,23,,,,,,,3,1,2,stim/12.jpeg,HouseObjects,2,stim/objects/HouseObjects/flyswatter2.png,0.9,1,-0.2,0.15,right,61,2021-03-29_07h15.47.725,premup-three_ses-01_part-01_label-phase1,3.2.4,MacIntel,60,left,0.262000084,4,0,4,0,1,3,1,0,240,165,1,239,,,,,,,,,,,,,,,,,,
,,0,24,,,,,,,1,3,3,stim/33.jpeg,Instruments,1,stim/objects/Instruments/electricguitar.png,0.5,4,0.2,-0.15,left,61,2021-03-29_07h15.47.725,premup-three_ses-01_part-01_label-phase1,3.2.4,MacIntel,60,right,0.000999928,4,0,4,0,1,3,1,0,240,6,1,239,,,,,,,,,,,,,,,,,,
,,0,25,,,,,,,2,6,4,stim/64.jpeg,Instruments,1,stim/objects/Instruments/flute2.png,0.7,1,-0.2,0.15,left,61,2021-03-29_07h15.47.725,premup-three_ses-01_part-01_label-phase1,3.2.4,MacIntel,60,right,0.513000011,4,0,4,0,1,3,1,0,240,139,1,239,,,,,,,,,,,,,,,,,,
,,0,26,,,,,,,1,4,2,stim/42.jpeg,HouseObjects,2,stim/objects/HouseObjects/flyswatter.png,0.5,4,0.2,-0.15,right,61,2021-03-29_07h15.47.725,premup-three_ses-01_part-01_label-phase1,3.2.4,MacIntel,60,left,0.876000166,4,0,4,0,1,3,1,0,240,65,1,239,,,,,,,,,,,,,,,,,,
,,0,27,,,,,,,3,2,4,stim/24.jpeg,Instruments,1,stim/objects/Instruments/hihat2.png,0.9,3,-0.2,-0.15,left,61,2021-03-29_07h15.47.725,premup-three_ses-01_part-01_label-phase1,3.2.4,MacIntel,60,right,0.878999949,4,0,4,0,1,3,1,0,240,235,1,239,,,,,,,,,,,,,,,,,,
,,0,28,,,,,,,1,3,2,stim/32.jpeg,HouseObjects,2,stim/objects/HouseObjects/cushion.png,0.5,3,-0.2,-0.15,right,61,2021-03-29_07h15.47.725,premup-three_ses-01_part-01_label-phase1,3.2.4,MacIntel,60,left,0.927000046,4,0,4,0,1,3,1,0,240,25,1,239,,,,,,,,,,,,,,,,,,
,,0,29,,,,,,,2,5,4,stim/54.jpeg,HouseObjects,2,stim/objects/HouseObjects/handvacuum.png,0.7,4,0.2,-0.15,right,61,2021-03-29_07h15.47.725,premup-three_ses-01_part-01_label-phase1,3.2.4,MacIntel,60,left,0.082999945,4,0,4,0,1,3,1,0,240,119,1,239,,,,,,,,,,,,,,,,,,
,,1,30,,,,,,,1,4,2,stim/42.jpeg,Instruments,1,stim/objects/Instruments/frenchhorn.png,0.5,4,0.2,-0.15,left,61,2021-03-29_07h15.47.725,premup-three_ses-01_part-01_label-phase1,3.2.4,MacIntel,60,left,0.77699995,4,0,4,0,1,3,1,0,240,49,1,239,,,,,,,,,,,,,,,,,,
,,1,31,,,,,,,3,1,2,stim/12.jpeg,HouseObjects,2,stim/objects/HouseObjects/flyswatter2.png,0.9,2,0.2,0.15,right,61,2021-03-29_07h15.47.725,premup-three_ses-01_part-01_label-phase1,3.2.4,MacIntel,60,right,0.898999929,4,0,4,0,1,3,1,0,240,185,1,239,,,,,,,,,,,,,,,,,,
,,1,32,,,,,,,2,5,1,stim/51.jpeg,HouseObjects,2,stim/objects/HouseObjects/glassmop.png,0.7,3,-0.2,-0.15,right,61,2021-03-29_07h15.47.725,premup-three_ses-01_part-01_label-phase1,3.2.4,MacIntel,60,right,0.609999895,4,0,4,0,1,3,1,0,240,116,1,239,,,,,,,,,,,,,,,,,,
,,1,33,,,,,,,1,3,2,stim/32.jpeg,Instruments,1,stim/objects/Instruments/electricdrumset.png,0.5,3,-0.2,-0.15,left,61,2021-03-29_07h15.47.725,premup-three_ses-01_part-01_label-phase1,3.2.4,MacIntel,60,left,0.513999939,4,0,4,0,1,3,1,0,240,5,1,239,,,,,,,,,,,,,,,,,,
,,0,34,,,,,,,1,3,2,stim/32.jpeg,HouseObjects,2,stim/objects/HouseObjects/cushion.png,0.5,1,-0.2,0.15,right,61,2021-03-29_07h15.47.725,premup-three_ses-01_part-01_label-phase1,3.2.4,MacIntel,60,left,0.493999958,4,0,4,0,1,3,1,0,240,33,1,239,,,,,,,,,,,,,,,,,,
,,1,35,,,,,,,3,1,3,stim/13.jpeg,HouseObjects,2,stim/objects/HouseObjects/garbagebin2.png,0.9,2,0.2,0.15,right,61,2021-03-29_07h15.47.725,premup-three_ses-01_part-01_label-phase1,3.2.4,MacIntel,60,right,0.942000151,4,0,4,0,1,3,1,0,240,190,1,239,,,,,,,,,,,,,,,,,,
,,0,36,,,,,,,2,5,2,stim/52.jpeg,Instruments,1,stim/objects/Instruments/harmonica.png,0.3,1,-0.2,0.15,left,61,2021-03-29_07h15.47.725,premup-three_ses-01_part-01_label-phase1,3.2.4,MacIntel,60,right,1.010999918,4,0,4,0,1,3,1,0,240,89,1,239,,,,,,,,,,,,,,,,,,
,,0,37,,,,,,,3,2,3,stim/23.jpeg,Instruments,1,stim/objects/Instruments/harp2.png,0.9,1,-0.2,0.15,left,61,2021-03-29_07h15.47.725,premup-three_ses-01_part-01_label-phase1,3.2.4,MacIntel,60,right,0.627000093,4,0,4,0,1,3,1,0,240,226,1,239,,,,,,,,,,,,,,,,,,
,,1,38,,,,,,,3,2,3,stim/23.jpeg,Instruments,1,stim/objects/Instruments/harp2.png,0.9,2,0.2,0.15,left,61,2021-03-29_07h15.47.725,premup-three_ses-01_part-01_label-phase1,3.2.4,MacIntel,60,left,0.755000114,4,0,4,0,1,3,1,0,240,218,1,239,,,,,,,,,,,,,,,,,,
,,1,39,,,,,,,3,2,1,stim/21.jpeg,Instruments,1,stim/objects/Instruments/guitarcase2.png,0.9,1,-0.2,0.15,left,61,2021-03-29_07h15.47.725,premup-three_ses-01_part-01_label-phase1,3.2.4,MacIntel,60,left,0.56099987,4,0,4,0,1,3,1,0,240,200,1,239,,,,,,,,,,,,,,,,,,
,,1,40,,,,,,,1,4,1,stim/41.jpeg,HouseObjects,2,stim/objects/HouseObjects/dustpan.png,0.5,1,-0.2,0.15,right,61,2021-03-29_07h15.47.725,premup-three_ses-01_part-01_label-phase1,3.2.4,MacIntel,60,right,0.647000074,4,0,4,0,1,3,1,0,240,72,1,239,,,,,,,,,,,,,,,,,,
,,1,41,,,,,,,3,1,3,stim/13.jpeg,HouseObjects,2,stim/objects/HouseObjects/garbagebin2.png,0.9,4,0.2,-0.15,right,61,2021-03-29_07h15.47.725,premup-three_ses-01_part-01_label-phase1,3.2.4,MacIntel,60,right,0.697000027,4,0,4,0,1,3,1,0,240,174,1,239,,,,,,,,,,,,,,,,,,
,,1,42,,,,,,,2,5,4,stim/54.jpeg,Instruments,1,stim/objects/Instruments/hihat.png,0.3,2,0.2,0.15,left,61,2021-03-29_07h15.47.725,premup-three_ses-01_part-01_label-phase1,3.2.4,MacIntel,60,left,1.325000048,4,0,4,0,1,3,1,0,240,87,1,239,,,,,,,,,,,,,,,,,,
,,0,43,,,,,,,3,2,3,stim/23.jpeg,Instruments,1,stim/objects/Instruments/harp2.png,0.9,1,-0.2,0.15,left,61,2021-03-29_07h15.47.725,premup-three_ses-01_part-01_label-phase1,3.2.4,MacIntel,60,right,1.046000004,4,0,4,0,1,3,1,0,240,214,1,239,,,,,,,,,,,,,,,,,,
,,0,44,,,,,,,2,5,3,stim/53.jpeg,HouseObjects,2,stim/objects/HouseObjects/handbrush.png,0.7,2,0.2,0.15,right,61,2021-03-29_07h15.47.725,premup-three_ses-01_part-01_label-phase1,3.2.4,MacIntel,60,left,1.845999956,4,0,4,0,1,3,1,0,240,110,1,239,,,,,,,,,,,,,,,,,,
,,0,45,,,,,,,1,3,3,stim/33.jpeg,HouseObjects,2,stim/objects/HouseObjects/dishsoap.png,0.5,2,0.2,0.15,right,61,2021-03-29_07h15.47.725,premup-three_ses-01_part-01_label-phase1,3.2.4,MacIntel,60,left,0.746999979,4,0,4,0,1,3,1,0,240,26,1,239,,,,,,,,,,,,,,,,,,
,,1,46,,,,,,,3,1,1,stim/11.jpeg,HouseObjects,2,stim/objects/HouseObjects/dustpan2.png,0.9,1,-0.2,0.15,right,61,2021-03-29_07h15.47.725,premup-three_ses-01_part-01_label-phase1,3.2.4,MacIntel,60,right,0.914000034,4,0,4,0,1,3,1,0,240,164,1,239,,,,,,,,,,,,,,,,,,
,,0,47,,,,,,,2,5,2,stim/52.jpeg,Instruments,1,stim/objects/Instruments/harmonica.png,0.3,1,-0.2,0.15,left,61,2021-03-29_07h15.47.725,premup-three_ses-01_part-01_label-phase1,3.2.4,MacIntel,60,right,0.724999905,4,0,4,0,1,3,1,0,240,81,1,239,,,,,,,,,,,,,,,,,,
,,0,48,,,,,,,2,5,1,stim/51.jpeg,HouseObjects,2,stim/objects/HouseObjects/glassmop.png,0.7,2,0.2,0.15,right,61,2021-03-29_07h15.47.725,premup-three_ses-01_part-01_label-phase1,3.2.4,MacIntel,60,left,0.71600008,4,0,4,0,1,3,1,0,240,108,1,239,,,,,,,,,,,,,,,,,,
,,0,49,,,,,,,2,5,1,stim/51.jpeg,Instruments,1,stim/objects/Instruments/guitarcase.png,0.3,3,-0.2,-0.15,left,61,2021-03-29_07h15.47.725,premup-three_ses-01_part-01_label-phase1,3.2.4,MacIntel,60,right,0.680999994,4,0,4,0,1,3,1,0,240,80,1,239,,,,,,,,,,,,,,,,,,
,,1,50,,,,,,,2,6,3,stim/63.jpeg,Instruments,1,stim/objects/Instruments/electricguitar2.png,0.7,2,0.2,0.15,left,61,2021-03-29_07h15.47.725,premup-three_ses-01_part-01_label-phase1,3.2.4,MacIntel,60,left,0.874000072,4,0,4,0,1,3,1,0,240,138,1,239,,,,,,,,,,,,,,,,,,
,,0,51,,,,,,,1,4,3,stim/43.jpeg,HouseObjects,2,stim/objects/HouseObjects/garbagebin.png,0.5,1,-0.2,0.15,right,61,2021-03-29_07h15.47.725,premup-three_ses-01_part-01_label-phase1,3.2.4,MacIntel,60,left,1.046999931,4,0,4,0,1,3,1,0,240,70,1,239,,,,,,,,,,,,,,,,,,
,,0,52,,,,,,,2,6,2,stim/62.jpeg,HouseObjects,2,stim/objects/HouseObjects/cushion2.png,0.3,1,-0.2,0.15,right,61,2021-03-29_07h15.47.725,premup-three_ses-01_part-01_label-phase1,3.2.4,MacIntel,60,left,0.578000069,4,0,4,0,1,3,1,0,240,157,1,239,,,,,,,,,,,,,,,,,,
,,1,53,,,,,,,1,3,1,stim/31.jpeg,HouseObjects,2,stim/objects/HouseObjects/coffee.png,0.5,3,-0.2,-0.15,right,61,2021-03-29_07h15.47.725,premup-three_ses-01_part-01_label-phase1,3.2.4,MacIntel,60,right,0.363999844,4,0,4,0,1,3,1,0,240,36,1,239,,,,,,,,,,,,,,,,,,
,,1,54,,,,,,,2,6,4,stim/64.jpeg,Instruments,1,stim/objects/Instruments/flute2.png,0.7,4,0.2,-0.15,left,61,2021-03-29_07h15.47.725,premup-three_ses-01_part-01_label-phase1,3.2.4,MacIntel,60,left,1.029999971,4,0,4,0,1,3,1,0,240,127,1,239,,,,,,,,,,,,,,,,,,
,,1,55,,,,,,,2,6,1,stim/61.jpeg,Instruments,1,stim/objects/Instruments/drums2.png,0.7,4,0.2,-0.15,left,61,2021-03-29_07h15.47.725,premup-three_ses-01_part-01_label-phase1,3.2.4,MacIntel,60,left,0.709000111,4,0,4,0,1,3,1,0,240,140,1,239,,,,,,,,,,,,,,,,,,
,,1,56,,,,,,,3,2,2,stim/22.jpeg,Instruments,1,stim/objects/Instruments/harmonica2.png,0.9,3,-0.2,-0.15,left,61,2021-03-29_07h15.47.725,premup-three_ses-01_part-01_label-phase1,3.2.4,MacIntel,60,left,0.757999897,4,0,4,0,1,3,1,0,240,217,1,239,,,,,,,,,,,,,,,,,,
,,0,57,,,,,,,1,4,3,stim/43.jpeg,Instruments,1,stim/objects/Instruments/gong.png,0.5,4,0.2,-0.15,left,61,2021-03-29_07h15.47.725,premup-three_ses-01_part-01_label-phase1,3.2.4,MacIntel,60,right,0.001000166,4,0,4,0,1,3,1,0,240,42,1,239,,,,,,,,,,,,,,,,,,
,,0,58,,,,,,,3,1,3,stim/13.jpeg,HouseObjects,2,stim/objects/HouseObjects/garbagebin2.png,0.9,3,-0.2,-0.15,right,61,2021-03-29_07h15.47.725,premup-three_ses-01_part-01_label-phase1,3.2.4,MacIntel,60,left,0.000999928,4,0,4,0,1,3,1,0,240,170,1,239,,,,,,,,,,,,,,,,,,
,,1,59,,,,,,,3,2,3,stim/23.jpeg,Instruments,1,stim/objects/Instruments/harp2.png,0.9,4,0.2,-0.15,left,61,2021-03-29_07h15.47.725,premup-three_ses-01_part-01_label-phase1,3.2.4,MacIntel,60,left,1.548999786,4,0,4,0,1,3,1,0,240,230,1,239,,,,,,,,,,,,,,,,,,
,,1,60,,,,,,,1,4,3,stim/43.jpeg,Instruments,1,stim/objects/Instruments/gong.png,0.5,2,0.2,0.15,left,61,2021-03-29_07h15.47.725,premup-three_ses-01_part-01_label-phase1,3.2.4,MacIntel,60,left,0.693000078,4,0,4,0,1,3,1,0,240,58,1,239,,,,,,,,,,,,,,,,,,
,,0,61,,,,,,,2,5,4,stim/54.jpeg,Instruments,1,stim/objects/Instruments/hihat.png,0.3,2,0.2,0.15,left,61,2021-03-29_07h15.47.725,premup-three_ses-01_part-01_label-phase1,3.2.4,MacIntel,60,right,0.611000061,4,0,4,0,1,3,1,0,240,91,1,239,,,,,,,,,,,,,,,,,,
,,1,62,,,,,,,2,5,3,stim/53.jpeg,Instruments,1,stim/objects/Instruments/harp.png,0.3,1,-0.2,0.15,left,61,2021-03-29_07h15.47.725,premup-three_ses-01_part-01_label-phase1,3.2.4,MacIntel,60,left,0.476000071,4,0,4,0,1,3,1,0,240,82,1,239,,,,,,,,,,,,,,,,,,
,,1,63,,,,,,,1,3,4,stim/34.jpeg,Instruments,1,stim/objects/Instruments/flute.png,0.5,2,0.2,0.15,left,61,2021-03-29_07h15.47.725,premup-three_ses-01_part-01_label-phase1,3.2.4,MacIntel,60,left,0.957000017,4,0,4,0,1,3,1,0,240,3,1,239,,,,,,,,,,,,,,,,,,
,,0,64,,,,,,,3,2,3,stim/23.jpeg,HouseObjects,2,stim/objects/HouseObjects/handbrush2.png,0.1,4,0.2,-0.15,right,61,2021-03-29_07h15.47.725,premup-three_ses-01_part-01_label-phase1,3.2.4,MacIntel,60,left,0.646000147,4,0,4,0,1,3,1,0,240,238,1,239,,,,,,,,,,,,,,,,,,
,,1,65,,,,,,,2,5,3,stim/53.jpeg,HouseObjects,2,stim/objects/HouseObjects/handbrush.png,0.7,3,-0.2,-0.15,right,61,2021-03-29_07h15.47.725,premup-three_ses-01_part-01_label-phase1,3.2.4,MacIntel,60,right,0.830000162,4,0,4,0,1,3,1,0,240,94,1,239,,,,,,,,,,,,,,,,,,
,,0,66,,,,,,,3,2,1,stim/21.jpeg,Instruments,1,stim/objects/Instruments/guitarcase2.png,0.9,1,-0.2,0.15,left,61,2021-03-29_07h15.47.725,premup-three_ses-01_part-01_label-phase1,3.2.4,MacIntel,60,right,1.190999985,4,0,4,0,1,3,1,0,240,220,1,239,,,,,,,,,,,,,,,,,,
,,1,67,,,,,,,1,4,1,stim/41.jpeg,HouseObjects,2,stim/objects/HouseObjects/dustpan.png,0.5,4,0.2,-0.15,right,61,2021-03-29_07h15.47.725,premup-three_ses-01_part-01_label-phase1,3.2.4,MacIntel,60,right,1.444000006,4,0,4,0,1,3,1,0,240,76,1,239,,,,,,,,,,,,,,,,,,
,,1,68,,,,,,,3,1,4,stim/14.jpeg,HouseObjects,2,stim/objects/HouseObjects/glass2.png,0.9,2,0.2,0.15,right,61,2021-03-29_07h15.47.725,premup-three_ses-01_part-01_label-phase1,3.2.4,MacIntel,60,right,0.796000004,4,0,4,0,1,3,1,0,240,171,1,239,,,,,,,,,,,,,,,,,,
,,1,69,,,,,,,3,1,3,stim/13.jpeg,HouseObjects,2,stim/objects/HouseObjects/garbagebin2.png,0.9,1,-0.2,0.15,right,61,2021-03-29_07h15.47.725,premup-three_ses-01_part-01_label-phase1,3.2.4,MacIntel,60,right,0.643999815,4,0,4,0,1,3,1,0,240,194,1,239,,,,,,,,,,,,,,,,,,
,,0,70,,,,,,,3,2,2,stim/22.jpeg,HouseObjects,2,stim/objects/HouseObjects/hairdryer2.png,0.1,2,0.2,0.15,right,61,2021-03-29_07h15.47.725,premup-three_ses-01_part-01_label-phase1,3.2.4,MacIntel,60,left,1.006999969,4,0,4,0,1,3,1,0,240,237,1,239,,,,,,,,,,,,,,,,,,
,,1,71,,,,,,,1,3,3,stim/33.jpeg,Instruments,1,stim/objects/Instruments/electricguitar.png,0.5,3,-0.2,-0.15,left,61,2021-03-29_07h15.47.725,premup-three_ses-01_part-01_label-phase1,3.2.4,MacIntel,60,left,1.144000053,4,0,4,0,1,3,1,0,240,2,1,239,,,,,,,,,,,,,,,,,,
,,1,72,,,,,,,2,5,4,stim/54.jpeg,HouseObjects,2,stim/objects/HouseObjects/handvacuum.png,0.7,2,0.2,0.15,right,61,2021-03-29_07h15.47.725,premup-three_ses-01_part-01_label-phase1,3.2.4,MacIntel,60,right,0.860000134,4,0,4,0,1,3,1,0,240,107,1,239,,,,,,,,,,,,,,,,,,
,,1,73,,,,,,,3,2,3,stim/23.jpeg,Instruments,1,stim/objects/Instruments/harp2.png,0.9,3,-0.2,-0.15,left,61,2021-03-29_07h15.47.725,premup-three_ses-01_part-01_label-phase1,3.2.4,MacIntel,60,left,0.760999918,4,0,4,0,1,3,1,0,240,206,1,239,,,,,,,,,,,,,,,,,,
,,1,74,,,,,,,3,2,2,stim/22.jpeg,Instruments,1,stim/objects/Instruments/harmonica2.png,0.9,3,-0.2,-0.15,left,61,2021-03-29_07h15.47.725,premup-three_ses-01_part-01_label-phase1,3.2.4,MacIntel,60,left,1.059000015,4,0,4,0,1,3,1,0,240,229,1,239,,,,,,,,,,,,,,,,,,
,,0,75,,,,,,,3,1,1,stim/11.jpeg,Instruments,1,stim/objects/Instruments/flutetrans2.png,0.1,3,-0.2,-0.15,left,61,2021-03-29_07h15.47.725,premup-three_ses-01_part-01_label-phase1,3.2.4,MacIntel,60,right,0.358999968,4,0,4,0,1,3,1,0,240,160,1,239,,,,,,,,,,,,,,,,,,
,,0,76,,,,,,,3,2,4,stim/24.jpeg,Instruments,1,stim/objects/Instruments/hihat2.png,0.9,2,0.2,0.15,left,61,2021-03-29_07h15.47.725,premup-three_ses-01_part-01_label-phase1,3.2.4,MacIntel,60,right,0.333000183,4,0,4,0,1,3,1,0,240,227,1,239,,,,,,,,,,,,,,,,,,
,,0,77,,,,,,,2,6,2,stim/62.jpeg,Instruments,1,stim/objects/Instruments/electricdrumset2.png,0.7,3,-0.2,-0.15,left,61,2021-03-29_07h15.47.725,premup-three_ses-01_part-01_label-phase1,3.2.4,MacIntel,60,right,0.778000116,4,0,4,0,1,3,1,0,240,121,1,239,,,,,,,,,,,,,,,,,,
,,0,78,,,,,,,2,5,3,stim/53.jpeg,HouseObjects,2,stim/objects/HouseObjects/handbrush.png,0.7,1,-0.2,0.15,right,61,2021-03-29_07h15.47.725,premup-three_ses-01_part-01_label-phase1,3.2.4,MacIntel,60,left,0.546999931,4,0,4,0,1,3,1,0,240,102,1,239,,,,,,,,,,,,,,,,,,
,,0,79,,,,,,,1,3,1,stim/31.jpeg,Instruments,1,stim/objects/Instruments/drums.png,0.5,2,0.2,0.15,left,61,2021-03-29_07h15.47.725,premup-three_ses-01_part-01_label-phase1,3.2.4,MacIntel,60,right,0.710999966,4,0,4,0,1,3,1,0,240,0,1,239,,,,,,,,,,,,,,,,,,
,,0,80,,,,,,,3,1,3,stim/13.jpeg,HouseObjects,2,stim/objects/HouseObjects/garbagebin2.png,0.9,1,-0.2,0.15,right,61,2021-03-29_07h15.47.725,premup-three_ses-01_part-01_label-phase1,3.2.4,MacIntel,60,left,0.826999903,4,0,4,0,1,3,1,0,240,182,1,239,,,,,,,,,,,,,,,,,,
,,0,81,,,,,,,1,4,4,stim/44.jpeg,HouseObjects,2,stim/objects/HouseObjects/glass.png,0.5,1,-0.2,0.15,right,61,2021-03-29_07h15.47.725,premup-three_ses-01_part-01_label-phase1,3.2.4,MacIntel,60,left,0.868000031,4,0,4,0,1,3,1,0,240,79,1,239,,,,,,,,,,,,,,,,,,
,,1,82,,,,,,,1,4,4,stim/44.jpeg,HouseObjects,2,stim/objects/HouseObjects/glass.png,0.5,2,0.2,0.15,right,61,2021-03-29_07h15.47.725,premup-three_ses-01_part-01_label-phase1,3.2.4,MacIntel,60,right,0.525000095,4,0,4,0,1,3,1,0,240,67,1,239,,,,,,,,,,,,,,,,,,
,,0,83,,,,,,,3,2,4,stim/24.jpeg,Instruments,1,stim/objects/Instruments/hihat2.png,0.9,1,-0.2,0.15,left,61,2021-03-29_07h15.47.725,premup-three_ses-01_part-01_label-phase1,3.2.4,MacIntel,60,right,0.342999935,4,0,4,0,1,3,1,0,240,203,1,239,,,,,,,,,,,,,,,,,,
,,0,84,,,,,,,2,6,1,stim/61.jpeg,HouseObjects,2,stim/objects/HouseObjects/coffee2.png,0.3,3,-0.2,-0.15,right,61,2021-03-29_07h15.47.725,premup-three_ses-01_part-01_label-phase1,3.2.4,MacIntel,60,left,0.676000118,4,0,4,0,1,3,1,0,240,156,1,239,,,,,,,,,,,,,,,,,,
,,0,85,,,,,,,3,2,1,stim/21.jpeg,Instruments,1,stim/objects/Instruments/guitarcase2.png,0.9,2,0.2,0.15,left,61,2021-03-29_07h15.47.725,premup-three_ses-01_part-01_label-phase1,3.2.4,MacIntel,60,right,0.776000023,4,0,4,0,1,3,1,0,240,232,1,239,,,,,,,,,,,,,,,,,,
,,0,86,,,,,,,1,4,3,stim/43.jpeg,HouseObjects,2,stim/objects/HouseObjects/garbagebin.png,0.5,3,-0.2,-0.15,right,61,2021-03-29_07h15.47.725,premup-three_ses-01_part-01_label-phase1,3.2.4,MacIntel,60,left,0.642999887,4,0,4,0,1,3,1,0,240,66,1,239,,,,,,,,,,,,,,,,,,
,,0,87,,,,,,,3,1,3,stim/13.jpeg,HouseObjects,2,stim/objects/HouseObjects/garbagebin2.png,0.9,3,-0.2,-0.15,right,61,2021-03-29_07h15.47.725,premup-three_ses-01_part-01_label-phase1,3.2.4,MacIntel,60,left,0.661999941,4,0,4,0,1,3,1,0,240,198,1,239,,,,,,,,,,,,,,,,,,
,,0,88,,,,,,,3,1,4,stim/14.jpeg,HouseObjects,2,stim/objects/HouseObjects/glass2.png,0.9,4,0.2,-0.15,right,61,2021-03-29_07h15.47.725,premup-three_ses-01_part-01_label-phase1,3.2.4,MacIntel,60,left,0.467000008,4,0,4,0,1,3,1,0,240,187,1,239,,,,,,,,,,,,,,,,,,
,,1,89,,,,,,,3,1,3,stim/13.jpeg,Instruments,1,stim/objects/Instruments/gong2.png,0.1,2,0.2,0.15,left,61,2021-03-29_07h15.47.725,premup-three_ses-01_part-01_label-phase1,3.2.4,MacIntel,60,left,0.75,4,0,4,0,1,3,1,0,240,162,1,239,,,,,,,,,,,,,,,,,,
,,0,90,,,,,,,3,1,1,stim/11.jpeg,HouseObjects,2,stim/objects/HouseObjects/dustpan2.png,0.9,4,0.2,-0.15,right,61,2021-03-29_07h15.47.725,premup-three_ses-01_part-01_label-phase1,3.2.4,MacIntel,60,left,1.508999825,4,0,4,0,1,3,1,0,240,180,1,239,,,,,,,,,,,,,,,,,,
,,0,91,,,,,,,2,5,2,stim/52.jpeg,HouseObjects,2,stim/objects/HouseObjects/hairdryer.png,0.7,2,0.2,0.15,right,61,2021-03-29_07h15.47.725,premup-three_ses-01_part-01_label-phase1,3.2.4,MacIntel,60,left,0.810000181,4,0,4,0,1,3,1,0,240,101,1,239,,,,,,,,,,,,,,,,,,
,,1,92,,,,,,,2,6,4,stim/64.jpeg,Instruments,1,stim/objects/Instruments/flute2.png,0.7,4,0.2,-0.15,left,61,2021-03-29_07h15.47.725,premup-three_ses-01_part-01_label-phase1,3.2.4,MacIntel,60,left,0.792999983,4,0,4,0,1,3,1,0,240,147,1,239,,,,,,,,,,,,,,,,,,
,,0,93,,,,,,,1,3,2,stim/32.jpeg,HouseObjects,2,stim/objects/HouseObjects/cushion.png,0.5,1,-0.2,0.15,right,61,2021-03-29_07h15.47.725,premup-three_ses-01_part-01_label-phase1,3.2.4,MacIntel,60,left,0.84100008,4,0,4,0,1,3,1,0,240,29,1,239,,,,,,,,,,,,,,,,,,
,,0,94,,,,,,,3,1,4,stim/14.jpeg,HouseObjects,2,stim/objects/HouseObjects/glass2.png,0.9,4,0.2,-0.15,right,61,2021-03-29_07h15.47.725,premup-three_ses-01_part-01_label-phase1,3.2.4,MacIntel,60,left,1.161999941,4,0,4,0,1,3,1,0,240,191,1,239,,,,,,,,,,,,,,,,,,
,,1,95,,,,,,,2,6,2,stim/62.jpeg,Instruments,1,stim/objects/Instruments/electricdrumset2.png,0.7,3,-0.2,-0.15,left,61,2021-03-29_07h15.47.725,premup-three_ses-01_part-01_label-phase1,3.2.4,MacIntel,60,left,1.062999964,4,0,4,0,1,3,1,0,240,125,1,239,,,,,,,,,,,,,,,,,,
,,0,96,,,,,,,3,1,2,stim/12.jpeg,HouseObjects,2,stim/objects/HouseObjects/flyswatter2.png,0.9,4,0.2,-0.15,right,61,2021-03-29_07h15.47.725,premup-three_ses-01_part-01_label-phase1,3.2.4,MacIntel,60,left,1.796000004,4,0,4,0,1,3,1,0,240,189,1,239,,,,,,,,,,,,,,,,,,
,,0,97,,,,,,,1,3,1,stim/31.jpeg,HouseObjects,2,stim/objects/HouseObjects/coffee.png,0.5,1,-0.2,0.15,right,61,2021-03-29_07h15.47.725,premup-three_ses-01_part-01_label-phase1,3.2.4,MacIntel,60,left,0.77699995,4,0,4,0,1,3,1,0,240,32,1,239,,,,,,,,,,,,,,,,,,
,,0,98,,,,,,,1,3,4,stim/34.jpeg,Instruments,1,stim/objects/Instruments/flute.png,0.5,1,-0.2,0.15,left,61,2021-03-29_07h15.47.725,premup-three_ses-01_part-01_label-phase1,3.2.4,MacIntel,60,right,0.911000013,4,0,4,0,1,3,1,0,240,19,1,239,,,,,,,,,,,,,,,,,,
,,1,99,,,,,,,3,2,4,stim/24.jpeg,Instruments,1,stim/objects/Instruments/hihat2.png,0.9,4,0.2,-0.15,left,61,2021-03-29_07h15.47.725,premup-three_ses-01_part-01_label-phase1,3.2.4,MacIntel,60,left,0.542999983,4,0,4,0,1,3,1,0,240,215,1,239,,,,,,,,,,,,,,,,,,
,,0,100,,,,,,,3,1,2,stim/12.jpeg,HouseObjects,2,stim/objects/HouseObjects/flyswatter2.png,0.9,4,0.2,-0.15,right,61,2021-03-29_07h15.47.725,premup-three_ses-01_part-01_label-phase1,3.2.4,MacIntel,60,left,0.264999866,4,0,4,0,1,3,1,0,240,181,1,239,,,,,,,,,,,,,,,,,,
,,0,101,,,,,,,2,5,4,stim/54.jpeg,HouseObjects,2,stim/objects/HouseObjects/handvacuum.png,0.7,3,-0.2,-0.15,right,61,2021-03-29_07h15.47.725,premup-three_ses-01_part-01_label-phase1,3.2.4,MacIntel,60,left,0.427000046,4,0,4,0,1,3,1,0,240,95,1,239,,,,,,,,,,,,,,,,,,
,,1,102,,,,,,,3,1,1,stim/11.jpeg,HouseObjects,2,stim/objects/HouseObjects/dustpan2.png,0.9,3,-0.2,-0.15,right,61,2021-03-29_07h15.47.725,premup-three_ses-01_part-01_label-phase1,3.2.4,MacIntel,60,right,0.513999939,4,0,4,0,1,3,1,0,240,192,1,239,,,,,,,,,,,,,,,,,,
,,0,103,,,,,,,3,1,1,stim/11.jpeg,HouseObjects,2,stim/objects/HouseObjects/dustpan2.png,0.9,2,0.2,0.15,right,61,2021-03-29_07h15.47.725,premup-three_ses-01_part-01_label-phase1,3.2.4,MacIntel,60,left,0.295000076,4,0,4,0,1,3,1,0,240,172,1,239,,,,,,,,,,,,,,,,,,
,,1,104,,,,,,,1,4,2,stim/42.jpeg,Instruments,1,stim/objects/Instruments/frenchhorn.png,0.5,3,-0.2,-0.15,left,61,2021-03-29_07h15.47.725,premup-three_ses-01_part-01_label-phase1,3.2.4,MacIntel,60,left,0.246999979,4,0,4,0,1,3,1,0,240,53,1,239,,,,,,,,,,,,,,,,,,
,,1,105,,,,,,,1,4,4,stim/44.jpeg,HouseObjects,2,stim/objects/HouseObjects/glass.png,0.5,3,-0.2,-0.15,right,61,2021-03-29_07h15.47.725,premup-three_ses-01_part-01_label-phase1,3.2.4,MacIntel,60,right,0.648999929,4,0,4,0,1,3,1,0,240,71,1,239,,,,,,,,,,,,,,,,,,
,,0,106,,,,,,,2,6,2,stim/62.jpeg,HouseObjects,2,stim/objects/HouseObjects/cushion2.png,0.3,2,0.2,0.15,right,61,2021-03-29_07h15.47.725,premup-three_ses-01_part-01_label-phase1,3.2.4,MacIntel,60,left,0.778000116,4,0,4,0,1,3,1,0,240,153,1,239,,,,,,,,,,,,,,,,,,
,,1,107,,,,,,,1,3,3,stim/33.jpeg,Instruments,1,stim/objects/Instruments/electricguitar.png,0.5,1,-0.2,0.15,left,61,2021-03-29_07h15.47.725,premup-three_ses-01_part-01_label-phase1,3.2.4,MacIntel,60,left,0.677000046,4,0,4,0,1,3,1,0,240,18,1,239,,,,,,,,,,,,,,,,,,
,,0,108,,,,,,,2,6,4,stim/64.jpeg,HouseObjects,2,stim/objects/HouseObjects/doormat2.png,0.3,1,-0.2,0.15,right,61,2021-03-29_07h15.47.725,premup-three_ses-01_part-01_label-phase1,3.2.4,MacIntel,60,left,0.726999998,4,0,4,0,1,3,1,0,240,155,1,239,,,,,,,,,,,,,,,,,,
,,0,109,,,,,,,1,4,3,stim/43.jpeg,HouseObjects,2,stim/objects/HouseObjects/garbagebin.png,0.5,1,-0.2,0.15,right,61,2021-03-29_07h15.47.725,premup-three_ses-01_part-01_label-phase1,3.2.4,MacIntel,60,left,1.023000002,4,0,4,0,1,3,1,0,240,78,1,239,,,,,,,,,,,,,,,,,,
,,1,110,,,,,,,1,4,2,stim/42.jpeg,Instruments,1,stim/objects/Instruments/frenchhorn.png,0.5,2,0.2,0.15,left,61,2021-03-29_07h15.47.725,premup-three_ses-01_part-01_label-phase1,3.2.4,MacIntel,60,left,0.426000118,4,0,4,0,1,3,1,0,240,41,1,239,,,,,,,,,,,,,,,,,,
,,0,111,,,,,,,2,6,1,stim/61.jpeg,HouseObjects,2,stim/objects/HouseObjects/coffee2.png,0.3,2,0.2,0.15,right,61,2021-03-29_07h15.47.725,premup-three_ses-01_part-01_label-phase1,3.2.4,MacIntel,60,left,0.458999872,4,0,4,0,1,3,1,0,240,152,1,239,,,,,,,,,,,,,,,,,,
,,0,112,,,,,,,3,1,1,stim/11.jpeg,HouseObjects,2,stim/objects/HouseObjects/dustpan2.png,0.9,3,-0.2,-0.15,right,61,2021-03-29_07h15.47.725,premup-three_ses-01_part-01_label-phase1,3.2.4,MacIntel,60,left,0.476000071,4,0,4,0,1,3,1,0,240,168,1,239,,,,,,,,,,,,,,,,,,
,,1,113,,,,,,,3,2,3,stim/23.jpeg,Instruments,1,stim/objects/Instruments/harp2.png,0.9,4,0.2,-0.15,left,61,2021-03-29_07h15.47.725,premup-three_ses-01_part-01_label-phase1,3.2.4,MacIntel,60,left,0.459000111,4,0,4,0,1,3,1,0,240,222,1,239,,,,,,,,,,,,,,,,,,
,,1,114,,,,,,,2,6,3,stim/63.jpeg,Instruments,1,stim/objects/Instruments/electricguitar2.png,0.7,4,0.2,-0.15,left,61,2021-03-29_07h15.47.725,premup-three_ses-01_part-01_label-phase1,3.2.4,MacIntel,60,left,0.977999926,4,0,4,0,1,3,1,0,240,146,1,239,,,,,,,,,,,,,,,,,,
,,1,115,,,,,,,2,6,4,stim/64.jpeg,Instruments,1,stim/objects/Instruments/flute2.png,0.7,2,0.2,0.15,left,61,2021-03-29_07h15.47.725,premup-three_ses-01_part-01_label-phase1,3.2.4,MacIntel,60,left,0.479000092,4,0,4,0,1,3,1,0,240,135,1,239,,,,,,,,,,,,,,,,,,
,,0,116,,,,,,,1,4,4,stim/44.jpeg,HouseObjects,2,stim/objects/HouseObjects/glass.png,0.5,4,0.2,-0.15,right,61,2021-03-29_07h15.47.725,premup-three_ses-01_part-01_label-phase1,3.2.4,MacIntel,60,left,0.980000019,4,0,4,0,1,3,1,0,240,63,1,239,,,,,,,,,,,,,,,,,,
,,0,117,,,,,,,2,5,1,stim/51.jpeg,HouseObjects,2,stim/objects/HouseObjects/glassmop.png,0.7,4,0.2,-0.15,right,61,2021-03-29_07h15.47.725,premup-three_ses-01_part-01_label-phase1,3.2.4,MacIntel,60,left,0.960000038,4,0,4,0,1,3,1,0,240,100,1,239,,,,,,,,,,,,,,,,,,
,,1,118,,,,,,,1,4,1,stim/41.jpeg,Instruments,1,stim/objects/Instruments/flutetrans.png,0.5,2,0.2,0.15,left,61,2021-03-29_07h15.47.725,premup-three_ses-01_part-01_label-phase1,3.2.4,MacIntel,60,left,0.325000048,4,0,4,0,1,3,1,0,240,56,1,239,,,,,,,,,,,,,,,,,,
,,0,119,,,,,,,2,6,4,stim/64.jpeg,HouseObjects,2,stim/objects/HouseObjects/doormat2.png,0.3,2,0.2,0.15,right,61,2021-03-29_07h15.47.725,premup-three_ses-01_part-01_label-phase1,3.2.4,MacIntel,60,left,0.712000132,4,0,4,0,1,3,1,0,240,159,1,239,,,,,,,,,,,,,,,,,,
,,1,120,,,,,,,2,5,2,stim/52.jpeg,HouseObjects,2,stim/objects/HouseObjects/hairdryer.png,0.7,4,0.2,-0.15,right,61,2021-03-29_07h15.47.725,premup-three_ses-01_part-01_label-phase1,3.2.4,MacIntel,60,right,0.527999878,4,0,4,0,1,3,1,0,240,109,1,239,,,,,,,,,,,,,,,,,,
,,0,121,,,,,,,3,1,4,stim/14.jpeg,HouseObjects,2,stim/objects/HouseObjects/glass2.png,0.9,2,0.2,0.15,right,61,2021-03-29_07h15.47.725,premup-three_ses-01_part-01_label-phase1,3.2.4,MacIntel,60,left,0.779999971,4,0,4,0,1,3,1,0,240,175,1,239,,,,,,,,,,,,,,,,,,
,,1,122,,,,,,,1,3,4,stim/34.jpeg,Instruments,1,stim/objects/Instruments/flute.png,0.5,3,-0.2,-0.15,left,61,2021-03-29_07h15.47.725,premup-three_ses-01_part-01_label-phase1,3.2.4,MacIntel,60,left,0.825999975,4,0,4,0,1,3,1,0,240,7,1,239,,,,,,,,,,,,,,,,,,
,,0,123,,,,,,,2,5,4,stim/54.jpeg,HouseObjects,2,stim/objects/HouseObjects/handvacuum.png,0.7,1,-0.2,0.15,right,61,2021-03-29_07h15.47.725,premup-three_ses-01_part-01_label-phase1,3.2.4,MacIntel,60,left,0.960000038,4,0,4,0,1,3,1,0,240,99,1,239,,,,,,,,,,,,,,,,,,
,,1,124,,,,,,,1,3,2,stim/32.jpeg,Instruments,1,stim/objects/Instruments/electricdrumset.png,0.5,4,0.2,-0.15,left,61,2021-03-29_07h15.47.725,premup-three_ses-01_part-01_label-phase1,3.2.4,MacIntel,60,left,0.974999905,4,0,4,0,1,3,1,0,240,9,1,239,,,,,,,,,,,,,,,,,,
,,0,125,,,,,,,3,2,2,stim/22.jpeg,Instruments,1,stim/objects/Instruments/harmonica2.png,0.9,4,0.2,-0.15,left,61,2021-03-29_07h15.47.725,premup-three_ses-01_part-01_label-phase1,3.2.4,MacIntel,60,right,0.556999922,4,0,4,0,1,3,1,0,240,209,1,239,,,,,,,,,,,,,,,,,,
,,1,126,,,,,,,2,6,2,stim/62.jpeg,Instruments,1,stim/objects/Instruments/electricdrumset2.png,0.7,3,-0.2,-0.15,left,61,2021-03-29_07h15.47.725,premup-three_ses-01_part-01_label-phase1,3.2.4,MacIntel,60,left,0.107999802,4,0,4,0,1,3,1,0,240,129,1,239,,,,,,,,,,,,,,,,,,
,,0,127,,,,,,,2,5,4,stim/54.jpeg,Instruments,1,stim/objects/Instruments/hihat.png,0.3,1,-0.2,0.15,left,61,2021-03-29_07h15.47.725,premup-three_ses-01_part-01_label-phase1,3.2.4,MacIntel,60,right,0.79399991,4,0,4,0,1,3,1,0,240,83,1,239,,,,,,,,,,,,,,,,,,
,,1,128,,,,,,,1,4,3,stim/43.jpeg,Instruments,1,stim/objects/Instruments/gong.png,0.5,2,0.2,0.15,left,61,2021-03-29_07h15.47.725,premup-three_ses-01_part-01_label-phase1,3.2.4,MacIntel,60,left,0.328999996,4,0,4,0,1,3,1,0,240,54,1,239,,,,,,,,,,,,,,,,,,
