key_resp_pract.keys,key_resp_pract.rt,trial_acc,trial_index,practice_loop.thisRepN,practice_loop.thisTrialN,practice_loop.thisN,practice_loop.thisIndex,practice_loop.ran,practice_loop.order,scn_condition,scn_cat,scn_inst,scn_file,obj_cat,obj_cat_num,obj_file,trial_cond,quadrant,obj_x,obj_y,corr_ans,participant,date,expName,psychopyVersion,OS,frameRate,key_resp_trial.keys,key_resp_trial.rt,iterations.thisRepN,iterations.thisTrialN,iterations.thisN,iterations.thisIndex,iterations.ran,iterations.order,task_innerloop.thisRepN,task_innerloop.thisTrialN,task_innerloop.thisN,task_innerloop.thisIndex,task_innerloop.ran,task_innerloop.order,iteration_index,rating_acc,slider.response,slider.rt,slider_2.response,slider_2.rt,ratings.thisRepN,ratings.thisTrialN,ratings.thisN,ratings.thisIndex,ratings.ran,ratings.order,obj_cat_top,min_resp_top,max_resp_top,obj_cat_bottom,min_resp_bottom,max_resp_bottom
,,0,1,1,0,240,147,1,239,2,4,4,stim/44.jpeg,Instruments,1,stim/objects/Instruments/record_player2.png,0.7,2,0.2,0.15,left,63,2021-03-29_13h04.10.637,premup-three_ses-01_part-01_label-phase1,3.2.4,MacIntel,60,,,,,,,,,,,,,,,,,,,,,,,,,,,,,,,,
,,0,2,1,0,240,30,1,239,1,1,3,stim/13.jpeg,HouseObjects,2,stim/objects/HouseObjects/rubbergloves.png,0.5,3,-0.2,-0.15,right,63,2021-03-29_13h04.10.637,premup-three_ses-01_part-01_label-phase1,3.2.4,MacIntel,60,,,,,,,,,,,,,,,,,,,,,,,,,,,,,,,,
right,1.008999825,1,3,1,0,240,73,1,239,1,2,2,stim/22.jpeg,HouseObjects,2,stim/objects/HouseObjects/saw.png,0.5,1,-0.2,0.15,right,63,2021-03-29_13h04.10.637,premup-three_ses-01_part-01_label-phase1,3.2.4,MacIntel,60,,,,,,,,,,,,,,,,,,,,,,,,,,,,,,,,
left,1.142999887,0,4,1,0,240,24,1,239,1,1,1,stim/11.jpeg,HouseObjects,2,stim/objects/HouseObjects/recyclingbin.png,0.5,2,0.2,0.15,right,63,2021-03-29_13h04.10.637,premup-three_ses-01_part-01_label-phase1,3.2.4,MacIntel,60,,,,,,,,,,,,,,,,,,,,,,,,,,,,,,,,
left,1.359999895,1,5,1,0,240,121,1,239,2,4,2,stim/42.jpeg,Instruments,1,stim/objects/Instruments/pipepiano2.png,0.7,3,-0.2,-0.15,left,63,2021-03-29_13h04.10.637,premup-three_ses-01_part-01_label-phase1,3.2.4,MacIntel,60,,,,,,,,,,,,,,,,,,,,,,,,,,,,,,,,
right,1.023999929,0,6,1,0,240,132,1,239,2,4,1,stim/41.jpeg,Instruments,1,stim/objects/Instruments/panflute2.png,0.7,1,-0.2,0.15,left,63,2021-03-29_13h04.10.637,premup-three_ses-01_part-01_label-phase1,3.2.4,MacIntel,60,,,,,,,,,,,,,,,,,,,,,,,,,,,,,,,,
left,0.9599998,0,7,1,0,240,114,1,239,2,3,3,stim/33.jpeg,HouseObjects,2,stim/objects/HouseObjects/thermometer.png,0.7,4,0.2,-0.15,right,63,2021-03-29_13h04.10.637,premup-three_ses-01_part-01_label-phase1,3.2.4,MacIntel,60,,,,,,,,,,,,,,,,,,,,,,,,,,,,,,,,
right,1.585999966,1,8,1,0,240,23,1,239,1,1,4,stim/14.jpeg,HouseObjects,2,stim/objects/HouseObjects/rug.png,0.5,2,0.2,0.15,right,63,2021-03-29_13h04.10.637,premup-three_ses-01_part-01_label-phase1,3.2.4,MacIntel,60,,,,,,,,,,,,,,,,,,,,,,,,,,,,,,,,
left,1.26699996,0,9,1,0,240,104,1,239,2,3,1,stim/31.jpeg,HouseObjects,2,stim/objects/HouseObjects/spraybottle.png,0.7,1,-0.2,0.15,right,63,2021-03-29_13h04.10.637,premup-three_ses-01_part-01_label-phase1,3.2.4,MacIntel,60,,,,,,,,,,,,,,,,,,,,,,,,,,,,,,,,
left,1.075000048,1,10,1,0,240,214,1,239,3,6,3,stim/63.jpeg,Instruments,1,stim/objects/Instruments/trumpet2.png,0.9,2,0.2,0.15,left,63,2021-03-29_13h04.10.637,premup-three_ses-01_part-01_label-phase1,3.2.4,MacIntel,60,,,,,,,,,,,,,,,,,,,,,,,,,,,,,,,,
,,1,1,,,,,,,2,4,1,stim/41.jpeg,HouseObjects,2,stim/objects/HouseObjects/recyclingbin2.png,0.3,3,-0.2,-0.15,right,63,2021-03-29_13h04.10.637,premup-three_ses-01_part-01_label-phase1,3.2.4,MacIntel,60,right,1.023000002,4,0,4,0,1,3,1,0,240,152,1,239,,,,,,,,,,,,,,,,,,
,,1,2,,,,,,,1,2,1,stim/21.jpeg,Instruments,1,stim/objects/Instruments/saxophone.png,0.5,3,-0.2,-0.15,left,63,2021-03-29_13h04.10.637,premup-three_ses-01_part-01_label-phase1,3.2.4,MacIntel,60,left,1.59100008,4,0,4,0,1,3,1,0,240,44,1,239,,,,,,,,,,,,,,,,,,
,,1,3,,,,,,,2,4,1,stim/41.jpeg,Instruments,1,stim/objects/Instruments/panflute2.png,0.7,2,0.2,0.15,left,63,2021-03-29_13h04.10.637,premup-three_ses-01_part-01_label-phase1,3.2.4,MacIntel,60,left,1.427999973,4,0,4,0,1,3,1,0,240,140,1,239,,,,,,,,,,,,,,,,,,
,,1,4,,,,,,,2,4,4,stim/44.jpeg,Instruments,1,stim/objects/Instruments/record_player2.png,0.7,1,-0.2,0.15,left,63,2021-03-29_13h04.10.637,premup-three_ses-01_part-01_label-phase1,3.2.4,MacIntel,60,left,0.792000055,4,0,4,0,1,3,1,0,240,139,1,239,,,,,,,,,,,,,,,,,,
,,0,5,,,,,,,1,1,2,stim/12.jpeg,Instruments,1,stim/objects/Instruments/pipepiano.png,0.5,4,0.2,-0.15,left,63,2021-03-29_13h04.10.637,premup-three_ses-01_part-01_label-phase1,3.2.4,MacIntel,60,right,1.31099987,4,0,4,0,1,3,1,0,240,17,1,239,,,,,,,,,,,,,,,,,,
,,1,6,,,,,,,3,6,1,stim/61.jpeg,Instruments,1,stim/objects/Instruments/triangle2.png,0.9,3,-0.2,-0.15,left,63,2021-03-29_13h04.10.637,premup-three_ses-01_part-01_label-phase1,3.2.4,MacIntel,60,left,1.187000036,4,0,4,0,1,3,1,0,240,200,1,239,,,,,,,,,,,,,,,,,,
,,1,7,,,,,,,2,3,4,stim/34.jpeg,HouseObjects,2,stim/objects/HouseObjects/thread.png,0.7,2,0.2,0.15,right,63,2021-03-29_13h04.10.637,premup-three_ses-01_part-01_label-phase1,3.2.4,MacIntel,60,right,0.986999989,4,0,4,0,1,3,1,0,240,107,1,239,,,,,,,,,,,,,,,,,,
,,0,8,,,,,,,2,4,2,stim/42.jpeg,HouseObjects,2,stim/objects/HouseObjects/remote2.png,0.3,2,0.2,0.15,right,63,2021-03-29_13h04.10.637,premup-three_ses-01_part-01_label-phase1,3.2.4,MacIntel,60,left,0.992000103,4,0,4,0,1,3,1,0,240,157,1,239,,,,,,,,,,,,,,,,,,
,,0,9,,,,,,,2,4,2,stim/42.jpeg,HouseObjects,2,stim/objects/HouseObjects/remote2.png,0.3,2,0.2,0.15,right,63,2021-03-29_13h04.10.637,premup-three_ses-01_part-01_label-phase1,3.2.4,MacIntel,60,left,0.74000001,4,0,4,0,1,3,1,0,240,153,1,239,,,,,,,,,,,,,,,,,,
,,0,10,,,,,,,1,1,4,stim/14.jpeg,Instruments,1,stim/objects/Instruments/record_player.png,0.5,4,0.2,-0.15,left,63,2021-03-29_13h04.10.637,premup-three_ses-01_part-01_label-phase1,3.2.4,MacIntel,60,right,1.434999943,4,0,4,0,1,3,1,0,240,3,1,239,,,,,,,,,,,,,,,,,,
,,1,11,,,,,,,1,1,4,stim/14.jpeg,Instruments,1,stim/objects/Instruments/record_player.png,0.5,4,0.2,-0.15,left,63,2021-03-29_13h04.10.637,premup-three_ses-01_part-01_label-phase1,3.2.4,MacIntel,60,left,1.068000078,4,0,4,0,1,3,1,0,240,7,1,239,,,,,,,,,,,,,,,,,,
,,1,12,,,,,,,2,4,3,stim/43.jpeg,Instruments,1,stim/objects/Instruments/record2.png,0.7,1,-0.2,0.15,left,63,2021-03-29_13h04.10.637,premup-three_ses-01_part-01_label-phase1,3.2.4,MacIntel,60,left,1.398999929,4,0,4,0,1,3,1,0,240,134,1,239,,,,,,,,,,,,,,,,,,
,,1,13,,,,,,,2,3,1,stim/31.jpeg,HouseObjects,2,stim/objects/HouseObjects/spraybottle.png,0.7,2,0.2,0.15,right,63,2021-03-29_13h04.10.637,premup-three_ses-01_part-01_label-phase1,3.2.4,MacIntel,60,right,0.795000076,4,0,4,0,1,3,1,0,240,108,1,239,,,,,,,,,,,,,,,,,,
,,0,14,,,,,,,2,3,4,stim/34.jpeg,Instruments,1,stim/objects/Instruments/tuba.png,0.3,2,0.2,0.15,left,63,2021-03-29_13h04.10.637,premup-three_ses-01_part-01_label-phase1,3.2.4,MacIntel,60,right,0.640999794,4,0,4,0,1,3,1,0,240,87,1,239,,,,,,,,,,,,,,,,,,
,,1,15,,,,,,,1,1,4,stim/14.jpeg,Instruments,1,stim/objects/Instruments/record_player.png,0.5,3,-0.2,-0.15,left,63,2021-03-29_13h04.10.637,premup-three_ses-01_part-01_label-phase1,3.2.4,MacIntel,60,left,1.048999786,4,0,4,0,1,3,1,0,240,15,1,239,,,,,,,,,,,,,,,,,,
,,1,16,,,,,,,3,6,2,stim/62.jpeg,Instruments,1,stim/objects/Instruments/trombone2.png,0.9,1,-0.2,0.15,left,63,2021-03-29_13h04.10.637,premup-three_ses-01_part-01_label-phase1,3.2.4,MacIntel,60,left,0.904999733,4,0,4,0,1,3,1,0,240,213,1,239,,,,,,,,,,,,,,,,,,
,,1,17,,,,,,,2,4,1,stim/41.jpeg,Instruments,1,stim/objects/Instruments/panflute2.png,0.7,3,-0.2,-0.15,left,63,2021-03-29_13h04.10.637,premup-three_ses-01_part-01_label-phase1,3.2.4,MacIntel,60,left,0.682999849,4,0,4,0,1,3,1,0,240,136,1,239,,,,,,,,,,,,,,,,,,
,,1,18,,,,,,,3,5,3,stim/53.jpeg,HouseObjects,2,stim/objects/HouseObjects/scale2.png,0.9,2,0.2,0.15,right,63,2021-03-29_13h04.10.637,premup-three_ses-01_part-01_label-phase1,3.2.4,MacIntel,60,right,1.014999866,4,0,4,0,1,3,1,0,240,174,1,239,,,,,,,,,,,,,,,,,,
,,1,19,,,,,,,1,1,4,stim/14.jpeg,Instruments,1,stim/objects/Instruments/record_player.png,0.5,4,0.2,-0.15,left,63,2021-03-29_13h04.10.637,premup-three_ses-01_part-01_label-phase1,3.2.4,MacIntel,60,left,1.120999813,4,0,4,0,1,3,1,0,240,11,1,239,,,,,,,,,,,,,,,,,,
,,1,20,,,,,,,2,4,3,stim/43.jpeg,Instruments,1,stim/objects/Instruments/record2.png,0.7,3,-0.2,-0.15,left,63,2021-03-29_13h04.10.637,premup-three_ses-01_part-01_label-phase1,3.2.4,MacIntel,60,left,0.72300005,4,0,4,0,1,3,1,0,240,126,1,239,,,,,,,,,,,,,,,,,,
,,0,21,,,,,,,1,2,3,stim/23.jpeg,Instruments,1,stim/objects/Instruments/tambourine.png,0.5,4,0.2,-0.15,left,63,2021-03-29_13h04.10.637,premup-three_ses-01_part-01_label-phase1,3.2.4,MacIntel,60,right,1.353999853,4,0,4,0,1,3,1,0,240,46,1,239,,,,,,,,,,,,,,,,,,
,,1,22,,,,,,,3,6,1,stim/61.jpeg,Instruments,1,stim/objects/Instruments/triangle2.png,0.9,3,-0.2,-0.15,left,63,2021-03-29_13h04.10.637,premup-three_ses-01_part-01_label-phase1,3.2.4,MacIntel,60,left,1.064999819,4,0,4,0,1,3,1,0,240,204,1,239,,,,,,,,,,,,,,,,,,
,,0,23,,,,,,,2,3,3,stim/33.jpeg,Instruments,1,stim/objects/Instruments/trumpet.png,0.3,3,-0.2,-0.15,left,63,2021-03-29_13h04.10.637,premup-three_ses-01_part-01_label-phase1,3.2.4,MacIntel,60,right,0.934999943,4,0,4,0,1,3,1,0,240,82,1,239,,,,,,,,,,,,,,,,,,
,,1,24,,,,,,,1,2,2,stim/22.jpeg,HouseObjects,2,stim/objects/HouseObjects/saw.png,0.5,3,-0.2,-0.15,right,63,2021-03-29_13h04.10.637,premup-three_ses-01_part-01_label-phase1,3.2.4,MacIntel,60,right,1.367000103,4,0,4,0,1,3,1,0,240,77,1,239,,,,,,,,,,,,,,,,,,
,,1,25,,,,,,,3,6,2,stim/62.jpeg,Instruments,1,stim/objects/Instruments/trombone2.png,0.9,1,-0.2,0.15,left,63,2021-03-29_13h04.10.637,premup-three_ses-01_part-01_label-phase1,3.2.4,MacIntel,60,left,0.826999903,4,0,4,0,1,3,1,0,240,221,1,239,,,,,,,,,,,,,,,,,,
,,1,26,,,,,,,3,5,3,stim/53.jpeg,HouseObjects,2,stim/objects/HouseObjects/scale2.png,0.9,1,-0.2,0.15,right,63,2021-03-29_13h04.10.637,premup-three_ses-01_part-01_label-phase1,3.2.4,MacIntel,60,right,1.580999851,4,0,4,0,1,3,1,0,240,194,1,239,,,,,,,,,,,,,,,,,,
,,1,27,,,,,,,3,6,4,stim/64.jpeg,Instruments,1,stim/objects/Instruments/tuba2.png,0.9,4,0.2,-0.15,left,63,2021-03-29_13h04.10.637,premup-three_ses-01_part-01_label-phase1,3.2.4,MacIntel,60,left,0.772999763,4,0,4,0,1,3,1,0,240,207,1,239,,,,,,,,,,,,,,,,,,
,,0,28,,,,,,,1,1,2,stim/12.jpeg,HouseObjects,2,stim/objects/HouseObjects/remote.png,0.5,2,0.2,0.15,right,63,2021-03-29_13h04.10.637,premup-three_ses-01_part-01_label-phase1,3.2.4,MacIntel,60,left,0.755999804,4,0,4,0,1,3,1,0,240,33,1,239,,,,,,,,,,,,,,,,,,
,,0,29,,,,,,,1,1,3,stim/13.jpeg,HouseObjects,2,stim/objects/HouseObjects/rubbergloves.png,0.5,3,-0.2,-0.15,right,63,2021-03-29_13h04.10.637,premup-three_ses-01_part-01_label-phase1,3.2.4,MacIntel,60,left,1.250999928,4,0,4,0,1,3,1,0,240,30,1,239,,,,,,,,,,,,,,,,,,
,,1,30,,,,,,,2,4,2,stim/42.jpeg,Instruments,1,stim/objects/Instruments/pipepiano2.png,0.7,4,0.2,-0.15,left,63,2021-03-29_13h04.10.637,premup-three_ses-01_part-01_label-phase1,3.2.4,MacIntel,60,left,1.589999914,4,0,4,0,1,3,1,0,240,125,1,239,,,,,,,,,,,,,,,,,,
,,0,31,,,,,,,2,4,1,stim/41.jpeg,Instruments,1,stim/objects/Instruments/panflute2.png,0.7,1,-0.2,0.15,left,63,2021-03-29_13h04.10.637,premup-three_ses-01_part-01_label-phase1,3.2.4,MacIntel,60,right,0.947000027,4,0,4,0,1,3,1,0,240,144,1,239,,,,,,,,,,,,,,,,,,
,,1,32,,,,,,,1,2,1,stim/21.jpeg,HouseObjects,2,stim/objects/HouseObjects/safetypin.png,0.5,4,0.2,-0.15,right,63,2021-03-29_13h04.10.637,premup-three_ses-01_part-01_label-phase1,3.2.4,MacIntel,60,right,1.096999884,4,0,4,0,1,3,1,0,240,64,1,239,,,,,,,,,,,,,,,,,,
,,0,33,,,,,,,1,2,4,stim/24.jpeg,HouseObjects,2,stim/objects/HouseObjects/sponge.png,0.5,2,0.2,0.15,right,63,2021-03-29_13h04.10.637,premup-three_ses-01_part-01_label-phase1,3.2.4,MacIntel,60,left,1.200999975,4,0,4,0,1,3,1,0,240,79,1,239,,,,,,,,,,,,,,,,,,
,,1,34,,,,,,,2,4,3,stim/43.jpeg,Instruments,1,stim/objects/Instruments/record2.png,0.7,4,0.2,-0.15,left,63,2021-03-29_13h04.10.637,premup-three_ses-01_part-01_label-phase1,3.2.4,MacIntel,60,left,1.217999935,4,0,4,0,1,3,1,0,240,130,1,239,,,,,,,,,,,,,,,,,,
,,1,35,,,,,,,1,2,4,stim/24.jpeg,Instruments,1,stim/objects/Instruments/timbal.png,0.5,3,-0.2,-0.15,left,63,2021-03-29_13h04.10.637,premup-three_ses-01_part-01_label-phase1,3.2.4,MacIntel,60,left,1.348999977,4,0,4,0,1,3,1,0,240,47,1,239,,,,,,,,,,,,,,,,,,
,,1,36,,,,,,,3,6,2,stim/62.jpeg,Instruments,1,stim/objects/Instruments/trombone2.png,0.9,4,0.2,-0.15,left,63,2021-03-29_13h04.10.637,premup-three_ses-01_part-01_label-phase1,3.2.4,MacIntel,60,left,0.835000038,4,0,4,0,1,3,1,0,240,229,1,239,,,,,,,,,,,,,,,,,,
,,0,37,,,,,,,1,2,3,stim/23.jpeg,HouseObjects,2,stim/objects/HouseObjects/scale.png,0.5,4,0.2,-0.15,right,63,2021-03-29_13h04.10.637,premup-three_ses-01_part-01_label-phase1,3.2.4,MacIntel,60,left,0.744999886,4,0,4,0,1,3,1,0,240,66,1,239,,,,,,,,,,,,,,,,,,
,,1,38,,,,,,,3,6,2,stim/62.jpeg,Instruments,1,stim/objects/Instruments/trombone2.png,0.9,1,-0.2,0.15,left,63,2021-03-29_13h04.10.637,premup-three_ses-01_part-01_label-phase1,3.2.4,MacIntel,60,left,0.782000065,4,0,4,0,1,3,1,0,240,217,1,239,,,,,,,,,,,,,,,,,,
,,1,39,,,,,,,3,5,1,stim/51.jpeg,HouseObjects,2,stim/objects/HouseObjects/safetypin2.png,0.9,4,0.2,-0.15,right,63,2021-03-29_13h04.10.637,premup-three_ses-01_part-01_label-phase1,3.2.4,MacIntel,60,right,1.052999973,4,0,4,0,1,3,1,0,240,180,1,239,,,,,,,,,,,,,,,,,,
,,1,40,,,,,,,2,3,3,stim/33.jpeg,HouseObjects,2,stim/objects/HouseObjects/thermometer.png,0.7,4,0.2,-0.15,right,63,2021-03-29_13h04.10.637,premup-three_ses-01_part-01_label-phase1,3.2.4,MacIntel,60,right,1.024999857,4,0,4,0,1,3,1,0,240,114,1,239,,,,,,,,,,,,,,,,,,
,,1,41,,,,,,,2,3,3,stim/33.jpeg,HouseObjects,2,stim/objects/HouseObjects/thermometer.png,0.7,4,0.2,-0.15,right,63,2021-03-29_13h04.10.637,premup-three_ses-01_part-01_label-phase1,3.2.4,MacIntel,60,right,0.539000034,4,0,4,0,1,3,1,0,240,102,1,239,,,,,,,,,,,,,,,,,,
,,1,42,,,,,,,3,6,3,stim/63.jpeg,Instruments,1,stim/objects/Instruments/trumpet2.png,0.9,3,-0.2,-0.15,left,63,2021-03-29_13h04.10.637,premup-three_ses-01_part-01_label-phase1,3.2.4,MacIntel,60,left,0.829999924,4,0,4,0,1,3,1,0,240,230,1,239,,,,,,,,,,,,,,,,,,
,,1,43,,,,,,,2,4,4,stim/44.jpeg,HouseObjects,2,stim/objects/HouseObjects/rug2.png,0.3,1,-0.2,0.15,right,63,2021-03-29_13h04.10.637,premup-three_ses-01_part-01_label-phase1,3.2.4,MacIntel,60,right,1.342999935,4,0,4,0,1,3,1,0,240,159,1,239,,,,,,,,,,,,,,,,,,
,,0,44,,,,,,,1,1,4,stim/14.jpeg,HouseObjects,2,stim/objects/HouseObjects/rug.png,0.5,2,0.2,0.15,right,63,2021-03-29_13h04.10.637,premup-three_ses-01_part-01_label-phase1,3.2.4,MacIntel,60,left,0.971999884,4,0,4,0,1,3,1,0,240,23,1,239,,,,,,,,,,,,,,,,,,
,,0,45,,,,,,,2,3,3,stim/33.jpeg,Instruments,1,stim/objects/Instruments/trumpet.png,0.3,4,0.2,-0.15,left,63,2021-03-29_13h04.10.637,premup-three_ses-01_part-01_label-phase1,3.2.4,MacIntel,60,right,1.833999872,4,0,4,0,1,3,1,0,240,90,1,239,,,,,,,,,,,,,,,,,,
,,1,46,,,,,,,2,3,2,stim/32.jpeg,HouseObjects,2,stim/objects/HouseObjects/teapot.png,0.7,3,-0.2,-0.15,right,63,2021-03-29_13h04.10.637,premup-three_ses-01_part-01_label-phase1,3.2.4,MacIntel,60,right,1.22300005,4,0,4,0,1,3,1,0,240,113,1,239,,,,,,,,,,,,,,,,,,
,,0,47,,,,,,,1,1,1,stim/11.jpeg,HouseObjects,2,stim/objects/HouseObjects/recyclingbin.png,0.5,1,-0.2,0.15,right,63,2021-03-29_13h04.10.637,premup-three_ses-01_part-01_label-phase1,3.2.4,MacIntel,60,left,1.289000034,4,0,4,0,1,3,1,0,240,32,1,239,,,,,,,,,,,,,,,,,,
,,1,48,,,,,,,3,6,1,stim/61.jpeg,Instruments,1,stim/objects/Instruments/triangle2.png,0.9,4,0.2,-0.15,left,63,2021-03-29_13h04.10.637,premup-three_ses-01_part-01_label-phase1,3.2.4,MacIntel,60,left,1.049999952,4,0,4,0,1,3,1,0,240,224,1,239,,,,,,,,,,,,,,,,,,
,,1,49,,,,,,,3,5,1,stim/51.jpeg,HouseObjects,2,stim/objects/HouseObjects/safetypin2.png,0.9,3,-0.2,-0.15,right,63,2021-03-29_13h04.10.637,premup-three_ses-01_part-01_label-phase1,3.2.4,MacIntel,60,right,1.111999989,4,0,4,0,1,3,1,0,240,172,1,239,,,,,,,,,,,,,,,,,,
,,0,50,,,,,,,1,1,2,stim/12.jpeg,HouseObjects,2,stim/objects/HouseObjects/remote.png,0.5,2,0.2,0.15,right,63,2021-03-29_13h04.10.637,premup-three_ses-01_part-01_label-phase1,3.2.4,MacIntel,60,left,1.761999846,4,0,4,0,1,3,1,0,240,25,1,239,,,,,,,,,,,,,,,,,,
,,1,51,,,,,,,3,6,3,stim/63.jpeg,Instruments,1,stim/objects/Instruments/trumpet2.png,0.9,2,0.2,0.15,left,63,2021-03-29_13h04.10.637,premup-three_ses-01_part-01_label-phase1,3.2.4,MacIntel,60,left,0.945999861,4,0,4,0,1,3,1,0,240,226,1,239,,,,,,,,,,,,,,,,,,
,,0,52,,,,,,,1,2,4,stim/24.jpeg,HouseObjects,2,stim/objects/HouseObjects/sponge.png,0.5,2,0.2,0.15,right,63,2021-03-29_13h04.10.637,premup-three_ses-01_part-01_label-phase1,3.2.4,MacIntel,60,,,4,0,4,0,1,3,1,0,240,63,1,239,,,,,,,,,,,,,,,,,,
,,0,53,,,,,,,1,2,4,stim/24.jpeg,Instruments,1,stim/objects/Instruments/timbal.png,0.5,3,-0.2,-0.15,left,63,2021-03-29_13h04.10.637,premup-three_ses-01_part-01_label-phase1,3.2.4,MacIntel,60,right,1.113999844,4,0,4,0,1,3,1,0,240,43,1,239,,,,,,,,,,,,,,,,,,
,,1,54,,,,,,,3,6,1,stim/61.jpeg,Instruments,1,stim/objects/Instruments/triangle2.png,0.9,4,0.2,-0.15,left,63,2021-03-29_13h04.10.637,premup-three_ses-01_part-01_label-phase1,3.2.4,MacIntel,60,left,0.860999823,4,0,4,0,1,3,1,0,240,228,1,239,,,,,,,,,,,,,,,,,,
,,1,55,,,,,,,3,5,1,stim/51.jpeg,HouseObjects,2,stim/objects/HouseObjects/safetypin2.png,0.9,1,-0.2,0.15,right,63,2021-03-29_13h04.10.637,premup-three_ses-01_part-01_label-phase1,3.2.4,MacIntel,60,right,1.78399992,4,0,4,0,1,3,1,0,240,192,1,239,,,,,,,,,,,,,,,,,,
,,1,56,,,,,,,3,5,3,stim/53.jpeg,HouseObjects,2,stim/objects/HouseObjects/scale2.png,0.9,2,0.2,0.15,right,63,2021-03-29_13h04.10.637,premup-three_ses-01_part-01_label-phase1,3.2.4,MacIntel,60,right,0.75999999,4,0,4,0,1,3,1,0,240,186,1,239,,,,,,,,,,,,,,,,,,
,,1,57,,,,,,,2,3,2,stim/32.jpeg,HouseObjects,2,stim/objects/HouseObjects/teapot.png,0.7,1,-0.2,0.15,right,63,2021-03-29_13h04.10.637,premup-three_ses-01_part-01_label-phase1,3.2.4,MacIntel,60,right,1.049999952,4,0,4,0,1,3,1,0,240,117,1,239,,,,,,,,,,,,,,,,,,
,,0,58,,,,,,,2,3,4,stim/34.jpeg,HouseObjects,2,stim/objects/HouseObjects/thread.png,0.7,4,0.2,-0.15,right,63,2021-03-29_13h04.10.637,premup-three_ses-01_part-01_label-phase1,3.2.4,MacIntel,60,left,0.763000011,4,0,4,0,1,3,1,0,240,95,1,239,,,,,,,,,,,,,,,,,,
,,1,59,,,,,,,3,5,2,stim/52.jpeg,HouseObjects,2,stim/objects/HouseObjects/saw2.png,0.9,2,0.2,0.15,right,63,2021-03-29_13h04.10.637,premup-three_ses-01_part-01_label-phase1,3.2.4,MacIntel,60,right,1.269999743,4,0,4,0,1,3,1,0,240,185,1,239,,,,,,,,,,,,,,,,,,
,,1,60,,,,,,,2,3,1,stim/31.jpeg,HouseObjects,2,stim/objects/HouseObjects/spraybottle.png,0.7,1,-0.2,0.15,right,63,2021-03-29_13h04.10.637,premup-three_ses-01_part-01_label-phase1,3.2.4,MacIntel,60,right,1.066999912,4,0,4,0,1,3,1,0,240,104,1,239,,,,,,,,,,,,,,,,,,
,,0,61,,,,,,,1,2,1,stim/21.jpeg,Instruments,1,stim/objects/Instruments/saxophone.png,0.5,4,0.2,-0.15,left,63,2021-03-29_13h04.10.637,premup-three_ses-01_part-01_label-phase1,3.2.4,MacIntel,60,right,0.996999979,4,0,4,0,1,3,1,0,240,56,1,239,,,,,,,,,,,,,,,,,,
,,1,62,,,,,,,3,6,4,stim/64.jpeg,Instruments,1,stim/objects/Instruments/tuba2.png,0.9,2,0.2,0.15,left,63,2021-03-29_13h04.10.637,premup-three_ses-01_part-01_label-phase1,3.2.4,MacIntel,60,left,0.587000132,4,0,4,0,1,3,1,0,240,223,1,239,,,,,,,,,,,,,,,,,,
,,1,63,,,,,,,3,5,1,stim/51.jpeg,HouseObjects,2,stim/objects/HouseObjects/safetypin2.png,0.9,2,0.2,0.15,right,63,2021-03-29_13h04.10.637,premup-three_ses-01_part-01_label-phase1,3.2.4,MacIntel,60,right,0.924000025,4,0,4,0,1,3,1,0,240,168,1,239,,,,,,,,,,,,,,,,,,
,,1,64,,,,,,,3,5,3,stim/53.jpeg,HouseObjects,2,stim/objects/HouseObjects/scale2.png,0.9,1,-0.2,0.15,right,63,2021-03-29_13h04.10.637,premup-three_ses-01_part-01_label-phase1,3.2.4,MacIntel,60,right,0.878999949,4,0,4,0,1,3,1,0,240,198,1,239,,,,,,,,,,,,,,,,,,
,,0,65,,,,,,,1,2,4,stim/24.jpeg,Instruments,1,stim/objects/Instruments/timbal.png,0.5,1,-0.2,0.15,left,63,2021-03-29_13h04.10.637,premup-three_ses-01_part-01_label-phase1,3.2.4,MacIntel,60,right,0.751999855,4,0,4,0,1,3,1,0,240,59,1,239,,,,,,,,,,,,,,,,,,
,,0,66,,,,,,,1,2,3,stim/23.jpeg,HouseObjects,2,stim/objects/HouseObjects/scale.png,0.5,2,0.2,0.15,right,63,2021-03-29_13h04.10.637,premup-three_ses-01_part-01_label-phase1,3.2.4,MacIntel,60,left,0.865999937,4,0,4,0,1,3,1,0,240,74,1,239,,,,,,,,,,,,,,,,,,
,,1,67,,,,,,,1,2,3,stim/23.jpeg,HouseObjects,2,stim/objects/HouseObjects/scale.png,0.5,4,0.2,-0.15,right,63,2021-03-29_13h04.10.637,premup-three_ses-01_part-01_label-phase1,3.2.4,MacIntel,60,right,1.207999945,4,0,4,0,1,3,1,0,240,70,1,239,,,,,,,,,,,,,,,,,,
,,0,68,,,,,,,2,4,2,stim/42.jpeg,Instruments,1,stim/objects/Instruments/pipepiano2.png,0.7,1,-0.2,0.15,left,63,2021-03-29_13h04.10.637,premup-three_ses-01_part-01_label-phase1,3.2.4,MacIntel,60,right,1.496999979,4,0,4,0,1,3,1,0,240,133,1,239,,,,,,,,,,,,,,,,,,
,,0,69,,,,,,,3,6,4,stim/64.jpeg,HouseObjects,2,stim/objects/HouseObjects/thread2.png,0.1,4,0.2,-0.15,right,63,2021-03-29_13h04.10.637,premup-three_ses-01_part-01_label-phase1,3.2.4,MacIntel,60,left,0.947000027,4,0,4,0,1,3,1,0,240,239,1,239,,,,,,,,,,,,,,,,,,
,,0,70,,,,,,,2,3,3,stim/33.jpeg,Instruments,1,stim/objects/Instruments/trumpet.png,0.3,1,-0.2,0.15,left,63,2021-03-29_13h04.10.637,premup-three_ses-01_part-01_label-phase1,3.2.4,MacIntel,60,,,4,0,4,0,1,3,1,0,240,86,1,239,,,,,,,,,,,,,,,,,,
,,1,71,,,,,,,2,4,4,stim/44.jpeg,Instruments,1,stim/objects/Instruments/record_player2.png,0.7,3,-0.2,-0.15,left,63,2021-03-29_13h04.10.637,premup-three_ses-01_part-01_label-phase1,3.2.4,MacIntel,60,left,1.270999908,4,0,4,0,1,3,1,0,240,123,1,239,,,,,,,,,,,,,,,,,,
,,1,72,,,,,,,1,2,2,stim/22.jpeg,HouseObjects,2,stim/objects/HouseObjects/saw.png,0.5,2,0.2,0.15,right,63,2021-03-29_13h04.10.637,premup-three_ses-01_part-01_label-phase1,3.2.4,MacIntel,60,right,0.796000004,4,0,4,0,1,3,1,0,240,65,1,239,,,,,,,,,,,,,,,,,,
,,0,73,,,,,,,1,1,1,stim/11.jpeg,Instruments,1,stim/objects/Instruments/panflute.png,0.5,1,-0.2,0.15,left,63,2021-03-29_13h04.10.637,premup-three_ses-01_part-01_label-phase1,3.2.4,MacIntel,60,right,0.773000002,4,0,4,0,1,3,1,0,240,4,1,239,,,,,,,,,,,,,,,,,,
,,1,74,,,,,,,3,5,4,stim/54.jpeg,Instruments,1,stim/objects/Instruments/timbal2.png,0.1,1,-0.2,0.15,left,63,2021-03-29_13h04.10.637,premup-three_ses-01_part-01_label-phase1,3.2.4,MacIntel,60,left,0.928999901,4,0,4,0,1,3,1,0,240,163,1,239,,,,,,,,,,,,,,,,,,
,,1,75,,,,,,,1,2,1,stim/21.jpeg,HouseObjects,2,stim/objects/HouseObjects/safetypin.png,0.5,4,0.2,-0.15,right,63,2021-03-29_13h04.10.637,premup-three_ses-01_part-01_label-phase1,3.2.4,MacIntel,60,right,0.819000006,4,0,4,0,1,3,1,0,240,72,1,239,,,,,,,,,,,,,,,,,,
,,1,76,,,,,,,3,6,3,stim/63.jpeg,Instruments,1,stim/objects/Instruments/trumpet2.png,0.9,1,-0.2,0.15,left,63,2021-03-29_13h04.10.637,premup-three_ses-01_part-01_label-phase1,3.2.4,MacIntel,60,left,0.799999952,4,0,4,0,1,3,1,0,240,222,1,239,,,,,,,,,,,,,,,,,,
,,0,77,,,,,,,1,2,4,stim/24.jpeg,HouseObjects,2,stim/objects/HouseObjects/sponge.png,0.5,1,-0.2,0.15,right,63,2021-03-29_13h04.10.637,premup-three_ses-01_part-01_label-phase1,3.2.4,MacIntel,60,left,0.503000021,4,0,4,0,1,3,1,0,240,75,1,239,,,,,,,,,,,,,,,,,,
,,1,78,,,,,,,2,3,2,stim/32.jpeg,HouseObjects,2,stim/objects/HouseObjects/teapot.png,0.7,4,0.2,-0.15,right,63,2021-03-29_13h04.10.637,premup-three_ses-01_part-01_label-phase1,3.2.4,MacIntel,60,right,0.902999878,4,0,4,0,1,3,1,0,240,97,1,239,,,,,,,,,,,,,,,,,,
,,1,79,,,,,,,3,6,4,stim/64.jpeg,Instruments,1,stim/objects/Instruments/tuba2.png,0.9,3,-0.2,-0.15,left,63,2021-03-29_13h04.10.637,premup-three_ses-01_part-01_label-phase1,3.2.4,MacIntel,60,left,0.947999954,4,0,4,0,1,3,1,0,240,215,1,239,,,,,,,,,,,,,,,,,,
,,1,80,,,,,,,3,5,4,stim/54.jpeg,HouseObjects,2,stim/objects/HouseObjects/sponge2.png,0.9,4,0.2,-0.15,right,63,2021-03-29_13h04.10.637,premup-three_ses-01_part-01_label-phase1,3.2.4,MacIntel,60,right,0.777999878,4,0,4,0,1,3,1,0,240,171,1,239,,,,,,,,,,,,,,,,,,
,,0,81,,,,,,,1,2,2,stim/22.jpeg,HouseObjects,2,stim/objects/HouseObjects/saw.png,0.5,1,-0.2,0.15,right,63,2021-03-29_13h04.10.637,premup-three_ses-01_part-01_label-phase1,3.2.4,MacIntel,60,left,0.900000095,4,0,4,0,1,3,1,0,240,73,1,239,,,,,,,,,,,,,,,,,,
,,0,82,,,,,,,3,5,4,stim/54.jpeg,HouseObjects,2,stim/objects/HouseObjects/sponge2.png,0.9,2,0.2,0.15,right,63,2021-03-29_13h04.10.637,premup-three_ses-01_part-01_label-phase1,3.2.4,MacIntel,60,left,0.921000004,4,0,4,0,1,3,1,0,240,191,1,239,,,,,,,,,,,,,,,,,,
,,0,83,,,,,,,3,5,2,stim/52.jpeg,HouseObjects,2,stim/objects/HouseObjects/saw2.png,0.9,3,-0.2,-0.15,right,63,2021-03-29_13h04.10.637,premup-three_ses-01_part-01_label-phase1,3.2.4,MacIntel,60,left,0.948999882,4,0,4,0,1,3,1,0,240,173,1,239,,,,,,,,,,,,,,,,,,
,,0,84,,,,,,,3,6,3,stim/63.jpeg,Instruments,1,stim/objects/Instruments/trumpet2.png,0.9,4,0.2,-0.15,left,63,2021-03-29_13h04.10.637,premup-three_ses-01_part-01_label-phase1,3.2.4,MacIntel,60,right,1.432999849,4,0,4,0,1,3,1,0,240,202,1,239,,,,,,,,,,,,,,,,,,
,,0,85,,,,,,,3,6,1,stim/61.jpeg,Instruments,1,stim/objects/Instruments/triangle2.png,0.9,2,0.2,0.15,left,63,2021-03-29_13h04.10.637,premup-three_ses-01_part-01_label-phase1,3.2.4,MacIntel,60,right,1.77699995,4,0,4,0,1,3,1,0,240,216,1,239,,,,,,,,,,,,,,,,,,
,,1,86,,,,,,,1,1,1,stim/11.jpeg,Instruments,1,stim/objects/Instruments/panflute.png,0.5,2,0.2,0.15,left,63,2021-03-29_13h04.10.637,premup-three_ses-01_part-01_label-phase1,3.2.4,MacIntel,60,left,0.970000029,4,0,4,0,1,3,1,0,240,8,1,239,,,,,,,,,,,,,,,,,,
,,0,87,,,,,,,1,1,1,stim/11.jpeg,HouseObjects,2,stim/objects/HouseObjects/recyclingbin.png,0.5,3,-0.2,-0.15,right,63,2021-03-29_13h04.10.637,premup-three_ses-01_part-01_label-phase1,3.2.4,MacIntel,60,left,1.08100009,4,0,4,0,1,3,1,0,240,20,1,239,,,,,,,,,,,,,,,,,,
,,1,88,,,,,,,2,4,3,stim/43.jpeg,HouseObjects,2,stim/objects/HouseObjects/rubbergloves2.png,0.3,4,0.2,-0.15,right,63,2021-03-29_13h04.10.637,premup-three_ses-01_part-01_label-phase1,3.2.4,MacIntel,60,right,1.440000057,4,0,4,0,1,3,1,0,240,158,1,239,,,,,,,,,,,,,,,,,,
,,0,89,,,,,,,3,6,3,stim/63.jpeg,Instruments,1,stim/objects/Instruments/trumpet2.png,0.9,2,0.2,0.15,left,63,2021-03-29_13h04.10.637,premup-three_ses-01_part-01_label-phase1,3.2.4,MacIntel,60,right,0.910000086,4,0,4,0,1,3,1,0,240,214,1,239,,,,,,,,,,,,,,,,,,
,,1,90,,,,,,,3,6,3,stim/63.jpeg,Instruments,1,stim/objects/Instruments/trumpet2.png,0.9,4,0.2,-0.15,left,63,2021-03-29_13h04.10.637,premup-three_ses-01_part-01_label-phase1,3.2.4,MacIntel,60,left,0.972999811,4,0,4,0,1,3,1,0,240,234,1,239,,,,,,,,,,,,,,,,,,
,,1,91,,,,,,,1,2,2,stim/22.jpeg,HouseObjects,2,stim/objects/HouseObjects/saw.png,0.5,1,-0.2,0.15,right,63,2021-03-29_13h04.10.637,premup-three_ses-01_part-01_label-phase1,3.2.4,MacIntel,60,right,1.148999929,4,0,4,0,1,3,1,0,240,69,1,239,,,,,,,,,,,,,,,,,,
,,0,92,,,,,,,1,1,3,stim/13.jpeg,HouseObjects,2,stim/objects/HouseObjects/rubbergloves.png,0.5,4,0.2,-0.15,right,63,2021-03-29_13h04.10.637,premup-three_ses-01_part-01_label-phase1,3.2.4,MacIntel,60,left,1.075999975,4,0,4,0,1,3,1,0,240,26,1,239,,,,,,,,,,,,,,,,,,
,,0,93,,,,,,,3,6,3,stim/63.jpeg,HouseObjects,2,stim/objects/HouseObjects/thermometer2.png,0.1,4,0.2,-0.15,right,63,2021-03-29_13h04.10.637,premup-three_ses-01_part-01_label-phase1,3.2.4,MacIntel,60,left,1.234999895,4,0,4,0,1,3,1,0,240,238,1,239,,,,,,,,,,,,,,,,,,
,,0,94,,,,,,,3,5,1,stim/51.jpeg,HouseObjects,2,stim/objects/HouseObjects/safetypin2.png,0.9,3,-0.2,-0.15,right,63,2021-03-29_13h04.10.637,premup-three_ses-01_part-01_label-phase1,3.2.4,MacIntel,60,,,4,0,4,0,1,3,1,0,240,196,1,239,,,,,,,,,,,,,,,,,,
,,1,95,,,,,,,3,5,3,stim/53.jpeg,HouseObjects,2,stim/objects/HouseObjects/scale2.png,0.9,1,-0.2,0.15,right,63,2021-03-29_13h04.10.637,premup-three_ses-01_part-01_label-phase1,3.2.4,MacIntel,60,right,1.343999863,4,0,4,0,1,3,1,0,240,178,1,239,,,,,,,,,,,,,,,,,,
,,1,96,,,,,,,2,3,1,stim/31.jpeg,Instruments,1,stim/objects/Instruments/triangle.png,0.3,3,-0.2,-0.15,left,63,2021-03-29_13h04.10.637,premup-three_ses-01_part-01_label-phase1,3.2.4,MacIntel,60,left,0.636999846,4,0,4,0,1,3,1,0,240,88,1,239,,,,,,,,,,,,,,,,,,
,,1,97,,,,,,,3,5,1,stim/51.jpeg,HouseObjects,2,stim/objects/HouseObjects/safetypin2.png,0.9,4,0.2,-0.15,right,63,2021-03-29_13h04.10.637,premup-three_ses-01_part-01_label-phase1,3.2.4,MacIntel,60,right,1.197000027,4,0,4,0,1,3,1,0,240,184,1,239,,,,,,,,,,,,,,,,,,
,,1,98,,,,,,,2,4,2,stim/42.jpeg,Instruments,1,stim/objects/Instruments/pipepiano2.png,0.7,3,-0.2,-0.15,left,63,2021-03-29_13h04.10.637,premup-three_ses-01_part-01_label-phase1,3.2.4,MacIntel,60,left,0.796999931,4,0,4,0,1,3,1,0,240,121,1,239,,,,,,,,,,,,,,,,,,
,,0,99,,,,,,,1,1,3,stim/13.jpeg,Instruments,1,stim/objects/Instruments/record.png,0.5,1,-0.2,0.15,left,63,2021-03-29_13h04.10.637,premup-three_ses-01_part-01_label-phase1,3.2.4,MacIntel,60,right,0.730999947,4,0,4,0,1,3,1,0,240,18,1,239,,,,,,,,,,,,,,,,,,
,,0,100,,,,,,,3,5,4,stim/54.jpeg,HouseObjects,2,stim/objects/HouseObjects/sponge2.png,0.9,3,-0.2,-0.15,right,63,2021-03-29_13h04.10.637,premup-three_ses-01_part-01_label-phase1,3.2.4,MacIntel,60,left,0.835000038,4,0,4,0,1,3,1,0,240,179,1,239,,,,,,,,,,,,,,,,,,
,,0,101,,,,,,,1,1,2,stim/12.jpeg,Instruments,1,stim/objects/Instruments/pipepiano.png,0.5,2,0.2,0.15,left,63,2021-03-29_13h04.10.637,premup-three_ses-01_part-01_label-phase1,3.2.4,MacIntel,60,right,1.375,4,0,4,0,1,3,1,0,240,5,1,239,,,,,,,,,,,,,,,,,,
,,0,102,,,,,,,2,3,1,stim/31.jpeg,HouseObjects,2,stim/objects/HouseObjects/spraybottle.png,0.7,3,-0.2,-0.15,right,63,2021-03-29_13h04.10.637,premup-three_ses-01_part-01_label-phase1,3.2.4,MacIntel,60,left,1.154999971,4,0,4,0,1,3,1,0,240,116,1,239,,,,,,,,,,,,,,,,,,
,,1,103,,,,,,,3,6,2,stim/62.jpeg,Instruments,1,stim/objects/Instruments/trombone2.png,0.9,1,-0.2,0.15,left,63,2021-03-29_13h04.10.637,premup-three_ses-01_part-01_label-phase1,3.2.4,MacIntel,60,left,1.35800004,4,0,4,0,1,3,1,0,240,201,1,239,,,,,,,,,,,,,,,,,,
,,1,104,,,,,,,2,3,1,stim/31.jpeg,HouseObjects,2,stim/objects/HouseObjects/spraybottle.png,0.7,3,-0.2,-0.15,right,63,2021-03-29_13h04.10.637,premup-three_ses-01_part-01_label-phase1,3.2.4,MacIntel,60,right,1.138000011,4,0,4,0,1,3,1,0,240,92,1,239,,,,,,,,,,,,,,,,,,
,,1,105,,,,,,,2,4,4,stim/44.jpeg,Instruments,1,stim/objects/Instruments/record_player2.png,0.7,1,-0.2,0.15,left,63,2021-03-29_13h04.10.637,premup-three_ses-01_part-01_label-phase1,3.2.4,MacIntel,60,left,0.914999723,4,0,4,0,1,3,1,0,240,127,1,239,,,,,,,,,,,,,,,,,,
,,0,106,,,,,,,3,5,2,stim/52.jpeg,Instruments,1,stim/objects/Instruments/speaker2.png,0.1,3,-0.2,-0.15,left,63,2021-03-29_13h04.10.637,premup-three_ses-01_part-01_label-phase1,3.2.4,MacIntel,60,right,0.528000116,4,0,4,0,1,3,1,0,240,161,1,239,,,,,,,,,,,,,,,,,,
,,1,107,,,,,,,3,5,1,stim/51.jpeg,HouseObjects,2,stim/objects/HouseObjects/safetypin2.png,0.9,2,0.2,0.15,right,63,2021-03-29_13h04.10.637,premup-three_ses-01_part-01_label-phase1,3.2.4,MacIntel,60,right,0.946999788,4,0,4,0,1,3,1,0,240,164,1,239,,,,,,,,,,,,,,,,,,
,,0,108,,,,,,,3,6,1,stim/61.jpeg,Instruments,1,stim/objects/Instruments/triangle2.png,0.9,2,0.2,0.15,left,63,2021-03-29_13h04.10.637,premup-three_ses-01_part-01_label-phase1,3.2.4,MacIntel,60,right,0.627000093,4,0,4,0,1,3,1,0,240,208,1,239,,,,,,,,,,,,,,,,,,
,,1,109,,,,,,,2,4,1,stim/41.jpeg,Instruments,1,stim/objects/Instruments/panflute2.png,0.7,2,0.2,0.15,left,63,2021-03-29_13h04.10.637,premup-three_ses-01_part-01_label-phase1,3.2.4,MacIntel,60,left,0.774999857,4,0,4,0,1,3,1,0,240,128,1,239,,,,,,,,,,,,,,,,,,
,,0,110,,,,,,,3,5,1,stim/51.jpeg,Instruments,1,stim/objects/Instruments/saxophone2.png,0.1,4,0.2,-0.15,left,63,2021-03-29_13h04.10.637,premup-three_ses-01_part-01_label-phase1,3.2.4,MacIntel,60,right,0.898999929,4,0,4,0,1,3,1,0,240,160,1,239,,,,,,,,,,,,,,,,,,
,,1,111,,,,,,,2,3,4,stim/34.jpeg,HouseObjects,2,stim/objects/HouseObjects/thread.png,0.7,2,0.2,0.15,right,63,2021-03-29_13h04.10.637,premup-three_ses-01_part-01_label-phase1,3.2.4,MacIntel,60,right,0.822999954,4,0,4,0,1,3,1,0,240,111,1,239,,,,,,,,,,,,,,,,,,
,,1,112,,,,,,,2,3,2,stim/32.jpeg,HouseObjects,2,stim/objects/HouseObjects/teapot.png,0.7,4,0.2,-0.15,right,63,2021-03-29_13h04.10.637,premup-three_ses-01_part-01_label-phase1,3.2.4,MacIntel,60,right,0.750999928,4,0,4,0,1,3,1,0,240,105,1,239,,,,,,,,,,,,,,,,,,
,,0,113,,,,,,,1,2,3,stim/23.jpeg,HouseObjects,2,stim/objects/HouseObjects/scale.png,0.5,3,-0.2,-0.15,right,63,2021-03-29_13h04.10.637,premup-three_ses-01_part-01_label-phase1,3.2.4,MacIntel,60,left,0.47300005,4,0,4,0,1,3,1,0,240,62,1,239,,,,,,,,,,,,,,,,,,
,,0,114,,,,,,,3,6,4,stim/64.jpeg,Instruments,1,stim/objects/Instruments/tuba2.png,0.9,2,0.2,0.15,left,63,2021-03-29_13h04.10.637,premup-three_ses-01_part-01_label-phase1,3.2.4,MacIntel,60,right,0.81799984,4,0,4,0,1,3,1,0,240,211,1,239,,,,,,,,,,,,,,,,,,
,,0,115,,,,,,,3,5,2,stim/52.jpeg,HouseObjects,2,stim/objects/HouseObjects/saw2.png,0.9,2,0.2,0.15,right,63,2021-03-29_13h04.10.637,premup-three_ses-01_part-01_label-phase1,3.2.4,MacIntel,60,left,1.119999886,4,0,4,0,1,3,1,0,240,197,1,239,,,,,,,,,,,,,,,,,,
,,1,116,,,,,,,3,6,2,stim/62.jpeg,Instruments,1,stim/objects/Instruments/trombone2.png,0.9,1,-0.2,0.15,left,63,2021-03-29_13h04.10.637,premup-three_ses-01_part-01_label-phase1,3.2.4,MacIntel,60,left,0.888000011,4,0,4,0,1,3,1,0,240,233,1,239,,,,,,,,,,,,,,,,,,
,,1,117,,,,,,,1,1,1,stim/11.jpeg,Instruments,1,stim/objects/Instruments/panflute.png,0.5,4,0.2,-0.15,left,63,2021-03-29_13h04.10.637,premup-three_ses-01_part-01_label-phase1,3.2.4,MacIntel,60,left,1.028999805,4,0,4,0,1,3,1,0,240,0,1,239,,,,,,,,,,,,,,,,,,
,,1,118,,,,,,,3,5,2,stim/52.jpeg,HouseObjects,2,stim/objects/HouseObjects/saw2.png,0.9,3,-0.2,-0.15,right,63,2021-03-29_13h04.10.637,premup-three_ses-01_part-01_label-phase1,3.2.4,MacIntel,60,right,0.862999916,4,0,4,0,1,3,1,0,240,189,1,239,,,,,,,,,,,,,,,,,,
,,1,119,,,,,,,2,4,2,stim/42.jpeg,HouseObjects,2,stim/objects/HouseObjects/remote2.png,0.3,3,-0.2,-0.15,right,63,2021-03-29_13h04.10.637,premup-three_ses-01_part-01_label-phase1,3.2.4,MacIntel,60,right,0.773999929,4,0,4,0,1,3,1,0,240,149,1,239,,,,,,,,,,,,,,,,,,
,,1,120,,,,,,,3,6,4,stim/64.jpeg,Instruments,1,stim/objects/Instruments/tuba2.png,0.9,1,-0.2,0.15,left,63,2021-03-29_13h04.10.637,premup-three_ses-01_part-01_label-phase1,3.2.4,MacIntel,60,left,0.649999857,4,0,4,0,1,3,1,0,240,235,1,239,,,,,,,,,,,,,,,,,,
,,1,121,,,,,,,1,1,2,stim/12.jpeg,HouseObjects,2,stim/objects/HouseObjects/remote.png,0.5,3,-0.2,-0.15,right,63,2021-03-29_13h04.10.637,premup-three_ses-01_part-01_label-phase1,3.2.4,MacIntel,60,right,1.636999846,4,0,4,0,1,3,1,0,240,37,1,239,,,,,,,,,,,,,,,,,,
,,0,122,,,,,,,2,3,1,stim/31.jpeg,HouseObjects,2,stim/objects/HouseObjects/spraybottle.png,0.7,4,0.2,-0.15,right,63,2021-03-29_13h04.10.637,premup-three_ses-01_part-01_label-phase1,3.2.4,MacIntel,60,left,1.562999964,4,0,4,0,1,3,1,0,240,100,1,239,,,,,,,,,,,,,,,,,,
,,0,123,,,,,,,3,5,3,stim/53.jpeg,Instruments,1,stim/objects/Instruments/tambourine2.png,0.1,4,0.2,-0.15,left,63,2021-03-29_13h04.10.637,premup-three_ses-01_part-01_label-phase1,3.2.4,MacIntel,60,right,0.950000048,4,0,4,0,1,3,1,0,240,162,1,239,,,,,,,,,,,,,,,,,,
,,1,124,,,,,,,2,4,3,stim/43.jpeg,Instruments,1,stim/objects/Instruments/record2.png,0.7,2,0.2,0.15,left,63,2021-03-29_13h04.10.637,premup-three_ses-01_part-01_label-phase1,3.2.4,MacIntel,60,left,1.342000008,4,0,4,0,1,3,1,0,240,138,1,239,,,,,,,,,,,,,,,,,,
,,0,125,,,,,,,3,6,1,stim/61.jpeg,HouseObjects,2,stim/objects/HouseObjects/spraybottle2.png,0.1,2,0.2,0.15,right,63,2021-03-29_13h04.10.637,premup-three_ses-01_part-01_label-phase1,3.2.4,MacIntel,60,left,0.65899992,4,0,4,0,1,3,1,0,240,236,1,239,,,,,,,,,,,,,,,,,,
,,0,126,,,,,,,1,1,3,stim/13.jpeg,HouseObjects,2,stim/objects/HouseObjects/rubbergloves.png,0.5,2,0.2,0.15,right,63,2021-03-29_13h04.10.637,premup-three_ses-01_part-01_label-phase1,3.2.4,MacIntel,60,left,1.226000071,4,0,4,0,1,3,1,0,240,38,1,239,,,,,,,,,,,,,,,,,,
,,1,127,,,,,,,2,4,4,stim/44.jpeg,Instruments,1,stim/objects/Instruments/record_player2.png,0.7,1,-0.2,0.15,left,63,2021-03-29_13h04.10.637,premup-three_ses-01_part-01_label-phase1,3.2.4,MacIntel,60,left,1.195999861,4,0,4,0,1,3,1,0,240,131,1,239,,,,,,,,,,,,,,,,,,
,,0,128,,,,,,,1,2,1,stim/21.jpeg,Instruments,1,stim/objects/Instruments/saxophone.png,0.5,4,0.2,-0.15,left,63,2021-03-29_13h04.10.637,premup-three_ses-01_part-01_label-phase1,3.2.4,MacIntel,60,right,1.129999876,4,0,4,0,1,3,1,0,240,52,1,239,,,,,,,,,,,,,,,,,,
,,0,129,,,,,,,2,3,3,stim/33.jpeg,HouseObjects,2,stim/objects/HouseObjects/thermometer.png,0.7,2,0.2,0.15,right,63,2021-03-29_13h04.10.637,premup-three_ses-01_part-01_label-phase1,3.2.4,MacIntel,60,left,0.926999807,4,0,4,0,1,3,1,0,240,94,1,239,,,,,,,,,,,,,,,,,,
,,0,130,,,,,,,3,5,4,stim/54.jpeg,HouseObjects,2,stim/objects/HouseObjects/sponge2.png,0.9,3,-0.2,-0.15,right,63,2021-03-29_13h04.10.637,premup-three_ses-01_part-01_label-phase1,3.2.4,MacIntel,60,left,1.053999901,4,0,4,0,1,3,1,0,240,175,1,239,,,,,,,,,,,,,,,,,,
,,1,131,,,,,,,1,2,3,stim/23.jpeg,Instruments,1,stim/objects/Instruments/tambourine.png,0.5,1,-0.2,0.15,left,63,2021-03-29_13h04.10.637,premup-three_ses-01_part-01_label-phase1,3.2.4,MacIntel,60,left,1.217000008,4,0,4,0,1,3,1,0,240,58,1,239,,,,,,,,,,,,,,,,,,
,,1,132,,,,,,,3,6,1,stim/61.jpeg,Instruments,1,stim/objects/Instruments/triangle2.png,0.9,4,0.2,-0.15,left,63,2021-03-29_13h04.10.637,premup-three_ses-01_part-01_label-phase1,3.2.4,MacIntel,60,left,1.065999746,4,0,4,0,1,3,1,0,240,220,1,239,,,,,,,,,,,,,,,,,,
,,1,133,,,,,,,2,4,2,stim/42.jpeg,Instruments,1,stim/objects/Instruments/pipepiano2.png,0.7,2,0.2,0.15,left,63,2021-03-29_13h04.10.637,premup-three_ses-01_part-01_label-phase1,3.2.4,MacIntel,60,left,1.128999949,4,0,4,0,1,3,1,0,240,137,1,239,,,,,,,,,,,,,,,,,,
,,1,134,,,,,,,3,6,4,stim/64.jpeg,Instruments,1,stim/objects/Instruments/tuba2.png,0.9,2,0.2,0.15,left,63,2021-03-29_13h04.10.637,premup-three_ses-01_part-01_label-phase1,3.2.4,MacIntel,60,left,1.163000107,4,0,4,0,1,3,1,0,240,219,1,239,,,,,,,,,,,,,,,,,,
,,0,135,,,,,,,1,1,2,stim/12.jpeg,Instruments,1,stim/objects/Instruments/pipepiano.png,0.5,3,-0.2,-0.15,left,63,2021-03-29_13h04.10.637,premup-three_ses-01_part-01_label-phase1,3.2.4,MacIntel,60,right,1.022000074,4,0,4,0,1,3,1,0,240,9,1,239,,,,,,,,,,,,,,,,,,
,,1,136,,,,,,,2,3,4,stim/34.jpeg,HouseObjects,2,stim/objects/HouseObjects/thread.png,0.7,4,0.2,-0.15,right,63,2021-03-29_13h04.10.637,premup-three_ses-01_part-01_label-phase1,3.2.4,MacIntel,60,right,1.079999924,4,0,4,0,1,3,1,0,240,115,1,239,,,,,,,,,,,,,,,,,,
,,0,137,,,,,,,1,2,2,stim/22.jpeg,Instruments,1,stim/objects/Instruments/speaker.png,0.5,1,-0.2,0.15,left,63,2021-03-29_13h04.10.637,premup-three_ses-01_part-01_label-phase1,3.2.4,MacIntel,60,right,0.762000084,4,0,4,0,1,3,1,0,240,57,1,239,,,,,,,,,,,,,,,,,,
,,1,138,,,,,,,3,5,4,stim/54.jpeg,HouseObjects,2,stim/objects/HouseObjects/sponge2.png,0.9,1,-0.2,0.15,right,63,2021-03-29_13h04.10.637,premup-three_ses-01_part-01_label-phase1,3.2.4,MacIntel,60,right,0.588000059,4,0,4,0,1,3,1,0,240,187,1,239,,,,,,,,,,,,,,,,,,
,,1,139,,,,,,,1,2,1,stim/21.jpeg,HouseObjects,2,stim/objects/HouseObjects/safetypin.png,0.5,3,-0.2,-0.15,right,63,2021-03-29_13h04.10.637,premup-three_ses-01_part-01_label-phase1,3.2.4,MacIntel,60,right,0.546000004,4,0,4,0,1,3,1,0,240,76,1,239,,,,,,,,,,,,,,,,,,
,,0,140,,,,,,,1,2,2,stim/22.jpeg,HouseObjects,2,stim/objects/HouseObjects/saw.png,0.5,1,-0.2,0.15,right,63,2021-03-29_13h04.10.637,premup-three_ses-01_part-01_label-phase1,3.2.4,MacIntel,60,left,1.010999918,4,0,4,0,1,3,1,0,240,61,1,239,,,,,,,,,,,,,,,,,,
,,1,141,,,,,,,3,6,3,stim/63.jpeg,Instruments,1,stim/objects/Instruments/trumpet2.png,0.9,3,-0.2,-0.15,left,63,2021-03-29_13h04.10.637,premup-three_ses-01_part-01_label-phase1,3.2.4,MacIntel,60,left,0.546999931,4,0,4,0,1,3,1,0,240,218,1,239,,,,,,,,,,,,,,,,,,
,,0,142,,,,,,,1,1,4,stim/14.jpeg,HouseObjects,2,stim/objects/HouseObjects/rug.png,0.5,1,-0.2,0.15,right,63,2021-03-29_13h04.10.637,premup-three_ses-01_part-01_label-phase1,3.2.4,MacIntel,60,left,0.441999912,4,0,4,0,1,3,1,0,240,39,1,239,,,,,,,,,,,,,,,,,,
,,1,143,,,,,,,3,5,3,stim/53.jpeg,HouseObjects,2,stim/objects/HouseObjects/scale2.png,0.9,2,0.2,0.15,right,63,2021-03-29_13h04.10.637,premup-three_ses-01_part-01_label-phase1,3.2.4,MacIntel,60,right,0.79399991,4,0,4,0,1,3,1,0,240,166,1,239,,,,,,,,,,,,,,,,,,
,,0,144,,,,,,,1,2,1,stim/21.jpeg,Instruments,1,stim/objects/Instruments/saxophone.png,0.5,2,0.2,0.15,left,63,2021-03-29_13h04.10.637,premup-three_ses-01_part-01_label-phase1,3.2.4,MacIntel,60,right,0.464999914,4,0,4,0,1,3,1,0,240,40,1,239,,,,,,,,,,,,,,,,,,
,,1,145,,,,,,,3,5,4,stim/54.jpeg,HouseObjects,2,stim/objects/HouseObjects/sponge2.png,0.9,4,0.2,-0.15,right,63,2021-03-29_13h04.10.637,premup-three_ses-01_part-01_label-phase1,3.2.4,MacIntel,60,right,0.592999935,4,0,4,0,1,3,1,0,240,199,1,239,,,,,,,,,,,,,,,,,,
,,0,146,,,,,,,1,2,2,stim/22.jpeg,Instruments,1,stim/objects/Instruments/speaker.png,0.5,3,-0.2,-0.15,left,63,2021-03-29_13h04.10.637,premup-three_ses-01_part-01_label-phase1,3.2.4,MacIntel,60,right,0.648999929,4,0,4,0,1,3,1,0,240,53,1,239,,,,,,,,,,,,,,,,,,
,,0,147,,,,,,,2,4,4,stim/44.jpeg,HouseObjects,2,stim/objects/HouseObjects/rug2.png,0.3,4,0.2,-0.15,right,63,2021-03-29_13h04.10.637,premup-three_ses-01_part-01_label-phase1,3.2.4,MacIntel,60,left,1.146999836,4,0,4,0,1,3,1,0,240,151,1,239,,,,,,,,,,,,,,,,,,
,,1,148,,,,,,,3,5,3,stim/53.jpeg,HouseObjects,2,stim/objects/HouseObjects/scale2.png,0.9,1,-0.2,0.15,right,63,2021-03-29_13h04.10.637,premup-three_ses-01_part-01_label-phase1,3.2.4,MacIntel,60,right,0.84100008,4,0,4,0,1,3,1,0,240,182,1,239,,,,,,,,,,,,,,,,,,
,,1,149,,,,,,,3,5,2,stim/52.jpeg,HouseObjects,2,stim/objects/HouseObjects/saw2.png,0.9,2,0.2,0.15,right,63,2021-03-29_13h04.10.637,premup-three_ses-01_part-01_label-phase1,3.2.4,MacIntel,60,right,0.460000038,4,0,4,0,1,3,1,0,240,165,1,239,,,,,,,,,,,,,,,,,,
,,1,150,,,,,,,2,4,4,stim/44.jpeg,HouseObjects,2,stim/objects/HouseObjects/rug2.png,0.3,2,0.2,0.15,right,63,2021-03-29_13h04.10.637,premup-three_ses-01_part-01_label-phase1,3.2.4,MacIntel,60,right,1.388999939,4,0,4,0,1,3,1,0,240,155,1,239,,,,,,,,,,,,,,,,,,
,,1,151,,,,,,,2,3,3,stim/33.jpeg,HouseObjects,2,stim/objects/HouseObjects/thermometer.png,0.7,4,0.2,-0.15,right,63,2021-03-29_13h04.10.637,premup-three_ses-01_part-01_label-phase1,3.2.4,MacIntel,60,right,0.746999741,4,0,4,0,1,3,1,0,240,118,1,239,,,,,,,,,,,,,,,,,,
,,0,152,,,,,,,1,2,1,stim/21.jpeg,Instruments,1,stim/objects/Instruments/saxophone.png,0.5,3,-0.2,-0.15,left,63,2021-03-29_13h04.10.637,premup-three_ses-01_part-01_label-phase1,3.2.4,MacIntel,60,right,0.641000032,4,0,4,0,1,3,1,0,240,48,1,239,,,,,,,,,,,,,,,,,,
,,1,153,,,,,,,3,6,3,stim/63.jpeg,Instruments,1,stim/objects/Instruments/trumpet2.png,0.9,3,-0.2,-0.15,left,63,2021-03-29_13h04.10.637,premup-three_ses-01_part-01_label-phase1,3.2.4,MacIntel,60,left,0.434999943,4,0,4,0,1,3,1,0,240,206,1,239,,,,,,,,,,,,,,,,,,
,,0,154,,,,,,,1,2,1,stim/21.jpeg,HouseObjects,2,stim/objects/HouseObjects/safetypin.png,0.5,3,-0.2,-0.15,right,63,2021-03-29_13h04.10.637,premup-three_ses-01_part-01_label-phase1,3.2.4,MacIntel,60,left,0.421999931,4,0,4,0,1,3,1,0,240,68,1,239,,,,,,,,,,,,,,,,,,
,,0,155,,,,,,,2,3,4,stim/34.jpeg,Instruments,1,stim/objects/Instruments/tuba.png,0.3,3,-0.2,-0.15,left,63,2021-03-29_13h04.10.637,premup-three_ses-01_part-01_label-phase1,3.2.4,MacIntel,60,right,1.494999886,4,0,4,0,1,3,1,0,240,83,1,239,,,,,,,,,,,,,,,,,,
,,1,156,,,,,,,2,4,1,stim/41.jpeg,Instruments,1,stim/objects/Instruments/panflute2.png,0.7,2,0.2,0.15,left,63,2021-03-29_13h04.10.637,premup-three_ses-01_part-01_label-phase1,3.2.4,MacIntel,60,left,1.261999846,4,0,4,0,1,3,1,0,240,120,1,239,,,,,,,,,,,,,,,,,,
,,1,157,,,,,,,3,6,2,stim/62.jpeg,Instruments,1,stim/objects/Instruments/trombone2.png,0.9,4,0.2,-0.15,left,63,2021-03-29_13h04.10.637,premup-three_ses-01_part-01_label-phase1,3.2.4,MacIntel,60,left,0.756999969,4,0,4,0,1,3,1,0,240,209,1,239,,,,,,,,,,,,,,,,,,
,,1,158,,,,,,,1,1,3,stim/13.jpeg,Instruments,1,stim/objects/Instruments/record.png,0.5,2,0.2,0.15,left,63,2021-03-29_13h04.10.637,premup-three_ses-01_part-01_label-phase1,3.2.4,MacIntel,60,left,1.108999729,4,0,4,0,1,3,1,0,240,6,1,239,,,,,,,,,,,,,,,,,,
,,1,159,,,,,,,1,2,3,stim/23.jpeg,Instruments,1,stim/objects/Instruments/tambourine.png,0.5,4,0.2,-0.15,left,63,2021-03-29_13h04.10.637,premup-three_ses-01_part-01_label-phase1,3.2.4,MacIntel,60,left,0.903000116,4,0,4,0,1,3,1,0,240,50,1,239,,,,,,,,,,,,,,,,,,
,,1,160,,,,,,,1,1,2,stim/12.jpeg,HouseObjects,2,stim/objects/HouseObjects/remote.png,0.5,2,0.2,0.15,right,63,2021-03-29_13h04.10.637,premup-three_ses-01_part-01_label-phase1,3.2.4,MacIntel,60,right,1.058000088,4,0,4,0,1,3,1,0,240,21,1,239,,,,,,,,,,,,,,,,,,
,,1,161,,,,,,,1,1,1,stim/11.jpeg,HouseObjects,2,stim/objects/HouseObjects/recyclingbin.png,0.5,2,0.2,0.15,right,63,2021-03-29_13h04.10.637,premup-three_ses-01_part-01_label-phase1,3.2.4,MacIntel,60,right,0.694999933,4,0,4,0,1,3,1,0,240,24,1,239,,,,,,,,,,,,,,,,,,
,,0,162,,,,,,,1,1,1,stim/11.jpeg,Instruments,1,stim/objects/Instruments/panflute.png,0.5,2,0.2,0.15,left,63,2021-03-29_13h04.10.637,premup-three_ses-01_part-01_label-phase1,3.2.4,MacIntel,60,right,0.495999813,4,0,4,0,1,3,1,0,240,16,1,239,,,,,,,,,,,,,,,,,,
,,1,163,,,,,,,1,2,2,stim/22.jpeg,Instruments,1,stim/objects/Instruments/speaker.png,0.5,4,0.2,-0.15,left,63,2021-03-29_13h04.10.637,premup-three_ses-01_part-01_label-phase1,3.2.4,MacIntel,60,left,1.812000036,4,0,4,0,1,3,1,0,240,41,1,239,,,,,,,,,,,,,,,,,,
,,0,164,,,,,,,2,3,1,stim/31.jpeg,Instruments,1,stim/objects/Instruments/triangle.png,0.3,2,0.2,0.15,left,63,2021-03-29_13h04.10.637,premup-three_ses-01_part-01_label-phase1,3.2.4,MacIntel,60,right,1.166999817,4,0,4,0,1,3,1,0,240,84,1,239,,,,,,,,,,,,,,,,,,
,,1,165,,,,,,,1,1,2,stim/12.jpeg,HouseObjects,2,stim/objects/HouseObjects/remote.png,0.5,1,-0.2,0.15,right,63,2021-03-29_13h04.10.637,premup-three_ses-01_part-01_label-phase1,3.2.4,MacIntel,60,right,1.086999893,4,0,4,0,1,3,1,0,240,29,1,239,,,,,,,,,,,,,,,,,,
,,1,166,,,,,,,2,3,2,stim/32.jpeg,HouseObjects,2,stim/objects/HouseObjects/teapot.png,0.7,1,-0.2,0.15,right,63,2021-03-29_13h04.10.637,premup-three_ses-01_part-01_label-phase1,3.2.4,MacIntel,60,right,0.885999918,4,0,4,0,1,3,1,0,240,93,1,239,,,,,,,,,,,,,,,,,,
,,1,167,,,,,,,3,5,2,stim/52.jpeg,HouseObjects,2,stim/objects/HouseObjects/saw2.png,0.9,4,0.2,-0.15,right,63,2021-03-29_13h04.10.637,premup-three_ses-01_part-01_label-phase1,3.2.4,MacIntel,60,right,0.691999912,4,0,4,0,1,3,1,0,240,169,1,239,,,,,,,,,,,,,,,,,,
,,1,168,,,,,,,3,5,3,stim/53.jpeg,HouseObjects,2,stim/objects/HouseObjects/scale2.png,0.9,2,0.2,0.15,right,63,2021-03-29_13h04.10.637,premup-three_ses-01_part-01_label-phase1,3.2.4,MacIntel,60,right,0.591999769,4,0,4,0,1,3,1,0,240,190,1,239,,,,,,,,,,,,,,,,,,
,,0,169,,,,,,,2,3,4,stim/34.jpeg,HouseObjects,2,stim/objects/HouseObjects/thread.png,0.7,4,0.2,-0.15,right,63,2021-03-29_13h04.10.637,premup-three_ses-01_part-01_label-phase1,3.2.4,MacIntel,60,left,1.095999718,4,0,4,0,1,3,1,0,240,99,1,239,,,,,,,,,,,,,,,,,,
,,1,170,,,,,,,2,4,3,stim/43.jpeg,Instruments,1,stim/objects/Instruments/record2.png,0.7,3,-0.2,-0.15,left,63,2021-03-29_13h04.10.637,premup-three_ses-01_part-01_label-phase1,3.2.4,MacIntel,60,left,0.842999935,4,0,4,0,1,3,1,0,240,122,1,239,,,,,,,,,,,,,,,,,,
,,1,171,,,,,,,3,6,4,stim/64.jpeg,Instruments,1,stim/objects/Instruments/tuba2.png,0.9,3,-0.2,-0.15,left,63,2021-03-29_13h04.10.637,premup-three_ses-01_part-01_label-phase1,3.2.4,MacIntel,60,left,0.75,4,0,4,0,1,3,1,0,240,231,1,239,,,,,,,,,,,,,,,,,,
,,1,172,,,,,,,1,2,2,stim/22.jpeg,Instruments,1,stim/objects/Instruments/speaker.png,0.5,1,-0.2,0.15,left,63,2021-03-29_13h04.10.637,premup-three_ses-01_part-01_label-phase1,3.2.4,MacIntel,60,left,0.89199996,4,0,4,0,1,3,1,0,240,45,1,239,,,,,,,,,,,,,,,,,,
,,0,173,,,,,,,2,4,3,stim/43.jpeg,HouseObjects,2,stim/objects/HouseObjects/rubbergloves2.png,0.3,4,0.2,-0.15,right,63,2021-03-29_13h04.10.637,premup-three_ses-01_part-01_label-phase1,3.2.4,MacIntel,60,left,0.904000044,4,0,4,0,1,3,1,0,240,154,1,239,,,,,,,,,,,,,,,,,,
,,0,174,,,,,,,2,4,3,stim/43.jpeg,Instruments,1,stim/objects/Instruments/record2.png,0.7,1,-0.2,0.15,left,63,2021-03-29_13h04.10.637,premup-three_ses-01_part-01_label-phase1,3.2.4,MacIntel,60,right,1.280999899,4,0,4,0,1,3,1,0,240,146,1,239,,,,,,,,,,,,,,,,,,
,,1,175,,,,,,,2,3,3,stim/33.jpeg,HouseObjects,2,stim/objects/HouseObjects/thermometer.png,0.7,1,-0.2,0.15,right,63,2021-03-29_13h04.10.637,premup-three_ses-01_part-01_label-phase1,3.2.4,MacIntel,60,right,1.378000021,4,0,4,0,1,3,1,0,240,98,1,239,,,,,,,,,,,,,,,,,,
,,0,176,,,,,,,3,6,2,stim/62.jpeg,HouseObjects,2,stim/objects/HouseObjects/teapot2.png,0.1,1,-0.2,0.15,right,63,2021-03-29_13h04.10.637,premup-three_ses-01_part-01_label-phase1,3.2.4,MacIntel,60,left,0.944000006,4,0,4,0,1,3,1,0,240,237,1,239,,,,,,,,,,,,,,,,,,
,,1,177,,,,,,,3,6,3,stim/63.jpeg,Instruments,1,stim/objects/Instruments/trumpet2.png,0.9,3,-0.2,-0.15,left,63,2021-03-29_13h04.10.637,premup-three_ses-01_part-01_label-phase1,3.2.4,MacIntel,60,left,1.631999731,4,0,4,0,1,3,1,0,240,210,1,239,,,,,,,,,,,,,,,,,,
,,1,178,,,,,,,3,5,4,stim/54.jpeg,HouseObjects,2,stim/objects/HouseObjects/sponge2.png,0.9,2,0.2,0.15,right,63,2021-03-29_13h04.10.637,premup-three_ses-01_part-01_label-phase1,3.2.4,MacIntel,60,right,0.978999853,4,0,4,0,1,3,1,0,240,195,1,239,,,,,,,,,,,,,,,,,,
,,0,179,,,,,,,1,2,4,stim/24.jpeg,HouseObjects,2,stim/objects/HouseObjects/sponge.png,0.5,2,0.2,0.15,right,63,2021-03-29_13h04.10.637,premup-three_ses-01_part-01_label-phase1,3.2.4,MacIntel,60,left,0.826999903,4,0,4,0,1,3,1,0,240,67,1,239,,,,,,,,,,,,,,,,,,
,,0,180,,,,,,,2,3,2,stim/32.jpeg,HouseObjects,2,stim/objects/HouseObjects/teapot.png,0.7,3,-0.2,-0.15,right,63,2021-03-29_13h04.10.637,premup-three_ses-01_part-01_label-phase1,3.2.4,MacIntel,60,left,0.842999935,4,0,4,0,1,3,1,0,240,101,1,239,,,,,,,,,,,,,,,,,,
,,0,181,,,,,,,2,4,3,stim/43.jpeg,HouseObjects,2,stim/objects/HouseObjects/rubbergloves2.png,0.3,3,-0.2,-0.15,right,63,2021-03-29_13h04.10.637,premup-three_ses-01_part-01_label-phase1,3.2.4,MacIntel,60,left,1.342999935,4,0,4,0,1,3,1,0,240,150,1,239,,,,,,,,,,,,,,,,,,
,,1,182,,,,,,,3,5,4,stim/54.jpeg,HouseObjects,2,stim/objects/HouseObjects/sponge2.png,0.9,1,-0.2,0.15,right,63,2021-03-29_13h04.10.637,premup-three_ses-01_part-01_label-phase1,3.2.4,MacIntel,60,right,0.822999954,4,0,4,0,1,3,1,0,240,183,1,239,,,,,,,,,,,,,,,,,,
,,1,183,,,,,,,3,5,1,stim/51.jpeg,HouseObjects,2,stim/objects/HouseObjects/safetypin2.png,0.9,1,-0.2,0.15,right,63,2021-03-29_13h04.10.637,premup-three_ses-01_part-01_label-phase1,3.2.4,MacIntel,60,right,1.000999928,4,0,4,0,1,3,1,0,240,176,1,239,,,,,,,,,,,,,,,,,,
,,1,184,,,,,,,2,3,3,stim/33.jpeg,HouseObjects,2,stim/objects/HouseObjects/thermometer.png,0.7,1,-0.2,0.15,right,63,2021-03-29_13h04.10.637,premup-three_ses-01_part-01_label-phase1,3.2.4,MacIntel,60,right,0.694000006,4,0,4,0,1,3,1,0,240,106,1,239,,,,,,,,,,,,,,,,,,
,,1,185,,,,,,,1,1,4,stim/14.jpeg,HouseObjects,2,stim/objects/HouseObjects/rug.png,0.5,1,-0.2,0.15,right,63,2021-03-29_13h04.10.637,premup-three_ses-01_part-01_label-phase1,3.2.4,MacIntel,60,right,0.458999872,4,0,4,0,1,3,1,0,240,31,1,239,,,,,,,,,,,,,,,,,,
,,0,186,,,,,,,3,5,2,stim/52.jpeg,HouseObjects,2,stim/objects/HouseObjects/saw2.png,0.9,3,-0.2,-0.15,right,63,2021-03-29_13h04.10.637,premup-three_ses-01_part-01_label-phase1,3.2.4,MacIntel,60,left,0.853999853,4,0,4,0,1,3,1,0,240,193,1,239,,,,,,,,,,,,,,,,,,
,,0,187,,,,,,,1,2,4,stim/24.jpeg,HouseObjects,2,stim/objects/HouseObjects/sponge.png,0.5,2,0.2,0.15,right,63,2021-03-29_13h04.10.637,premup-three_ses-01_part-01_label-phase1,3.2.4,MacIntel,60,left,1.394999743,4,0,4,0,1,3,1,0,240,71,1,239,,,,,,,,,,,,,,,,,,
,,1,188,,,,,,,1,1,4,stim/14.jpeg,HouseObjects,2,stim/objects/HouseObjects/rug.png,0.5,4,0.2,-0.15,right,63,2021-03-29_13h04.10.637,premup-three_ses-01_part-01_label-phase1,3.2.4,MacIntel,60,right,0.679999828,4,0,4,0,1,3,1,0,240,27,1,239,,,,,,,,,,,,,,,,,,
,,0,189,,,,,,,2,3,2,stim/32.jpeg,Instruments,1,stim/objects/Instruments/trombone.png,0.3,2,0.2,0.15,left,63,2021-03-29_13h04.10.637,premup-three_ses-01_part-01_label-phase1,3.2.4,MacIntel,60,right,0.52699995,4,0,4,0,1,3,1,0,240,81,1,239,,,,,,,,,,,,,,,,,,
,,1,190,,,,,,,2,4,1,stim/41.jpeg,Instruments,1,stim/objects/Instruments/panflute2.png,0.7,1,-0.2,0.15,left,63,2021-03-29_13h04.10.637,premup-three_ses-01_part-01_label-phase1,3.2.4,MacIntel,60,left,0.611999989,4,0,4,0,1,3,1,0,240,124,1,239,,,,,,,,,,,,,,,,,,
,,1,191,,,,,,,2,3,2,stim/32.jpeg,HouseObjects,2,stim/objects/HouseObjects/teapot.png,0.7,1,-0.2,0.15,right,63,2021-03-29_13h04.10.637,premup-three_ses-01_part-01_label-phase1,3.2.4,MacIntel,60,right,0.920000076,4,0,4,0,1,3,1,0,240,109,1,239,,,,,,,,,,,,,,,,,,
,,0,192,,,,,,,1,1,2,stim/12.jpeg,Instruments,1,stim/objects/Instruments/pipepiano.png,0.5,4,0.2,-0.15,left,63,2021-03-29_13h04.10.637,premup-three_ses-01_part-01_label-phase1,3.2.4,MacIntel,60,right,1.232000113,4,0,4,0,1,3,1,0,240,1,1,239,,,,,,,,,,,,,,,,,,
,,1,193,,,,,,,2,4,2,stim/42.jpeg,Instruments,1,stim/objects/Instruments/pipepiano2.png,0.7,1,-0.2,0.15,left,63,2021-03-29_13h04.10.637,premup-three_ses-01_part-01_label-phase1,3.2.4,MacIntel,60,left,0.618000031,4,0,4,0,1,3,1,0,240,129,1,239,,,,,,,,,,,,,,,,,,
,,1,194,,,,,,,1,2,3,stim/23.jpeg,Instruments,1,stim/objects/Instruments/tambourine.png,0.5,3,-0.2,-0.15,left,63,2021-03-29_13h04.10.637,premup-three_ses-01_part-01_label-phase1,3.2.4,MacIntel,60,left,0.671999931,4,0,4,0,1,3,1,0,240,42,1,239,,,,,,,,,,,,,,,,,,
,,1,195,,,,,,,1,1,3,stim/13.jpeg,Instruments,1,stim/objects/Instruments/record.png,0.5,1,-0.2,0.15,left,63,2021-03-29_13h04.10.637,premup-three_ses-01_part-01_label-phase1,3.2.4,MacIntel,60,left,0.556999922,4,0,4,0,1,3,1,0,240,14,1,239,,,,,,,,,,,,,,,,,,
,,1,196,,,,,,,2,4,1,stim/41.jpeg,HouseObjects,2,stim/objects/HouseObjects/recyclingbin2.png,0.3,4,0.2,-0.15,right,63,2021-03-29_13h04.10.637,premup-three_ses-01_part-01_label-phase1,3.2.4,MacIntel,60,right,0.578000069,4,0,4,0,1,3,1,0,240,156,1,239,,,,,,,,,,,,,,,,,,
,,1,197,,,,,,,1,1,1,stim/11.jpeg,Instruments,1,stim/objects/Instruments/panflute.png,0.5,1,-0.2,0.15,left,63,2021-03-29_13h04.10.637,premup-three_ses-01_part-01_label-phase1,3.2.4,MacIntel,60,left,0.845000029,4,0,4,0,1,3,1,0,240,12,1,239,,,,,,,,,,,,,,,,,,
,,1,198,,,,,,,1,1,4,stim/14.jpeg,Instruments,1,stim/objects/Instruments/record_player.png,0.5,1,-0.2,0.15,left,63,2021-03-29_13h04.10.637,premup-three_ses-01_part-01_label-phase1,3.2.4,MacIntel,60,left,1.088000059,4,0,4,0,1,3,1,0,240,19,1,239,,,,,,,,,,,,,,,,,,
,,1,199,,,,,,,3,6,2,stim/62.jpeg,Instruments,1,stim/objects/Instruments/trombone2.png,0.9,1,-0.2,0.15,left,63,2021-03-29_13h04.10.637,premup-three_ses-01_part-01_label-phase1,3.2.4,MacIntel,60,left,0.511999846,4,0,4,0,1,3,1,0,240,205,1,239,,,,,,,,,,,,,,,,,,
,,1,200,,,,,,,2,4,1,stim/41.jpeg,HouseObjects,2,stim/objects/HouseObjects/recyclingbin2.png,0.3,4,0.2,-0.15,right,63,2021-03-29_13h04.10.637,premup-three_ses-01_part-01_label-phase1,3.2.4,MacIntel,60,right,0.528999805,4,0,4,0,1,3,1,0,240,148,1,239,,,,,,,,,,,,,,,,,,
,,1,201,,,,,,,2,3,2,stim/32.jpeg,Instruments,1,stim/objects/Instruments/trombone.png,0.3,3,-0.2,-0.15,left,63,2021-03-29_13h04.10.637,premup-three_ses-01_part-01_label-phase1,3.2.4,MacIntel,60,left,0.726999998,4,0,4,0,1,3,1,0,240,89,1,239,,,,,,,,,,,,,,,,,,
,,1,202,,,,,,,2,4,3,stim/43.jpeg,Instruments,1,stim/objects/Instruments/record2.png,0.7,1,-0.2,0.15,left,63,2021-03-29_13h04.10.637,premup-three_ses-01_part-01_label-phase1,3.2.4,MacIntel,60,left,0.644999743,4,0,4,0,1,3,1,0,240,142,1,239,,,,,,,,,,,,,,,,,,
,,1,203,,,,,,,3,6,4,stim/64.jpeg,Instruments,1,stim/objects/Instruments/tuba2.png,0.9,3,-0.2,-0.15,left,63,2021-03-29_13h04.10.637,premup-three_ses-01_part-01_label-phase1,3.2.4,MacIntel,60,left,0.654999971,4,0,4,0,1,3,1,0,240,227,1,239,,,,,,,,,,,,,,,,,,
,,0,204,,,,,,,2,3,1,stim/31.jpeg,Instruments,1,stim/objects/Instruments/triangle.png,0.3,2,0.2,0.15,left,63,2021-03-29_13h04.10.637,premup-three_ses-01_part-01_label-phase1,3.2.4,MacIntel,60,right,0.433000088,4,0,4,0,1,3,1,0,240,80,1,239,,,,,,,,,,,,,,,,,,
,,0,205,,,,,,,2,4,4,stim/44.jpeg,Instruments,1,stim/objects/Instruments/record_player2.png,0.7,1,-0.2,0.15,left,63,2021-03-29_13h04.10.637,premup-three_ses-01_part-01_label-phase1,3.2.4,MacIntel,60,right,1.481999874,4,0,4,0,1,3,1,0,240,143,1,239,,,,,,,,,,,,,,,,,,
,,0,206,,,,,,,2,3,4,stim/34.jpeg,HouseObjects,2,stim/objects/HouseObjects/thread.png,0.7,3,-0.2,-0.15,right,63,2021-03-29_13h04.10.637,premup-three_ses-01_part-01_label-phase1,3.2.4,MacIntel,60,left,0.510999918,4,0,4,0,1,3,1,0,240,119,1,239,,,,,,,,,,,,,,,,,,
,,0,207,,,,,,,1,1,3,stim/13.jpeg,Instruments,1,stim/objects/Instruments/record.png,0.5,3,-0.2,-0.15,left,63,2021-03-29_13h04.10.637,premup-three_ses-01_part-01_label-phase1,3.2.4,MacIntel,60,right,0.850000143,4,0,4,0,1,3,1,0,240,2,1,239,,,,,,,,,,,,,,,,,,
,,1,208,,,,,,,3,6,2,stim/62.jpeg,Instruments,1,stim/objects/Instruments/trombone2.png,0.9,4,0.2,-0.15,left,63,2021-03-29_13h04.10.637,premup-three_ses-01_part-01_label-phase1,3.2.4,MacIntel,60,left,0.838999987,4,0,4,0,1,3,1,0,240,225,1,239,,,,,,,,,,,,,,,,,,
,,0,209,,,,,,,3,5,3,stim/53.jpeg,HouseObjects,2,stim/objects/HouseObjects/scale2.png,0.9,3,-0.2,-0.15,right,63,2021-03-29_13h04.10.637,premup-three_ses-01_part-01_label-phase1,3.2.4,MacIntel,60,left,0.792999983,4,0,4,0,1,3,1,0,240,170,1,239,,,,,,,,,,,,,,,,,,
,,1,210,,,,,,,1,2,3,stim/23.jpeg,Instruments,1,stim/objects/Instruments/tambourine.png,0.5,4,0.2,-0.15,left,63,2021-03-29_13h04.10.637,premup-three_ses-01_part-01_label-phase1,3.2.4,MacIntel,60,left,0.745999813,4,0,4,0,1,3,1,0,240,54,1,239,,,,,,,,,,,,,,,,,,
,,0,211,,,,,,,2,3,1,stim/31.jpeg,HouseObjects,2,stim/objects/HouseObjects/spraybottle.png,0.7,4,0.2,-0.15,right,63,2021-03-29_13h04.10.637,premup-three_ses-01_part-01_label-phase1,3.2.4,MacIntel,60,left,0.881999969,4,0,4,0,1,3,1,0,240,96,1,239,,,,,,,,,,,,,,,,,,
,,1,212,,,,,,,3,5,4,stim/54.jpeg,HouseObjects,2,stim/objects/HouseObjects/sponge2.png,0.9,1,-0.2,0.15,right,63,2021-03-29_13h04.10.637,premup-three_ses-01_part-01_label-phase1,3.2.4,MacIntel,60,right,1.273999929,4,0,4,0,1,3,1,0,240,167,1,239,,,,,,,,,,,,,,,,,,
,,1,213,,,,,,,2,3,4,stim/34.jpeg,HouseObjects,2,stim/objects/HouseObjects/thread.png,0.7,3,-0.2,-0.15,right,63,2021-03-29_13h04.10.637,premup-three_ses-01_part-01_label-phase1,3.2.4,MacIntel,60,right,0.947999954,4,0,4,0,1,3,1,0,240,103,1,239,,,,,,,,,,,,,,,,,,
,,1,214,,,,,,,1,1,4,stim/14.jpeg,HouseObjects,2,stim/objects/HouseObjects/rug.png,0.5,3,-0.2,-0.15,right,63,2021-03-29_13h04.10.637,premup-three_ses-01_part-01_label-phase1,3.2.4,MacIntel,60,right,0.561999798,4,0,4,0,1,3,1,0,240,35,1,239,,,,,,,,,,,,,,,,,,
,,0,215,,,,,,,3,5,1,stim/51.jpeg,HouseObjects,2,stim/objects/HouseObjects/safetypin2.png,0.9,4,0.2,-0.15,right,63,2021-03-29_13h04.10.637,premup-three_ses-01_part-01_label-phase1,3.2.4,MacIntel,60,left,0.549999952,4,0,4,0,1,3,1,0,240,188,1,239,,,,,,,,,,,,,,,,,,
,,0,216,,,,,,,2,4,2,stim/42.jpeg,Instruments,1,stim/objects/Instruments/pipepiano2.png,0.7,4,0.2,-0.15,left,63,2021-03-29_13h04.10.637,premup-three_ses-01_part-01_label-phase1,3.2.4,MacIntel,60,right,0.410999775,4,0,4,0,1,3,1,0,240,145,1,239,,,,,,,,,,,,,,,,,,
,,1,217,,,,,,,2,4,1,stim/41.jpeg,Instruments,1,stim/objects/Instruments/panflute2.png,0.7,1,-0.2,0.15,left,63,2021-03-29_13h04.10.637,premup-three_ses-01_part-01_label-phase1,3.2.4,MacIntel,60,left,0.559999943,4,0,4,0,1,3,1,0,240,132,1,239,,,,,,,,,,,,,,,,,,
,,1,218,,,,,,,3,6,4,stim/64.jpeg,Instruments,1,stim/objects/Instruments/tuba2.png,0.9,3,-0.2,-0.15,left,63,2021-03-29_13h04.10.637,premup-three_ses-01_part-01_label-phase1,3.2.4,MacIntel,60,left,0.412999868,4,0,4,0,1,3,1,0,240,203,1,239,,,,,,,,,,,,,,,,,,
,,0,219,,,,,,,1,2,4,stim/24.jpeg,Instruments,1,stim/objects/Instruments/timbal.png,0.5,2,0.2,0.15,left,63,2021-03-29_13h04.10.637,premup-three_ses-01_part-01_label-phase1,3.2.4,MacIntel,60,right,0.388000011,4,0,4,0,1,3,1,0,240,55,1,239,,,,,,,,,,,,,,,,,,
,,1,220,,,,,,,1,1,2,stim/12.jpeg,Instruments,1,stim/objects/Instruments/pipepiano.png,0.5,1,-0.2,0.15,left,63,2021-03-29_13h04.10.637,premup-three_ses-01_part-01_label-phase1,3.2.4,MacIntel,60,left,0.886999846,4,0,4,0,1,3,1,0,240,13,1,239,,,,,,,,,,,,,,,,,,
,,1,221,,,,,,,2,3,4,stim/34.jpeg,Instruments,1,stim/objects/Instruments/tuba.png,0.3,3,-0.2,-0.15,left,63,2021-03-29_13h04.10.637,premup-three_ses-01_part-01_label-phase1,3.2.4,MacIntel,60,left,0.52699995,4,0,4,0,1,3,1,0,240,91,1,239,,,,,,,,,,,,,,,,,,
,,0,222,,,,,,,2,3,2,stim/32.jpeg,Instruments,1,stim/objects/Instruments/trombone.png,0.3,2,0.2,0.15,left,63,2021-03-29_13h04.10.637,premup-three_ses-01_part-01_label-phase1,3.2.4,MacIntel,60,right,0.463000059,4,0,4,0,1,3,1,0,240,85,1,239,,,,,,,,,,,,,,,,,,
,,0,223,,,,,,,3,5,2,stim/52.jpeg,HouseObjects,2,stim/objects/HouseObjects/saw2.png,0.9,1,-0.2,0.15,right,63,2021-03-29_13h04.10.637,premup-three_ses-01_part-01_label-phase1,3.2.4,MacIntel,60,left,0.359999895,4,0,4,0,1,3,1,0,240,177,1,239,,,,,,,,,,,,,,,,,,
,,0,224,,,,,,,3,6,1,stim/61.jpeg,Instruments,1,stim/objects/Instruments/triangle2.png,0.9,3,-0.2,-0.15,left,63,2021-03-29_13h04.10.637,premup-three_ses-01_part-01_label-phase1,3.2.4,MacIntel,60,right,0.364000082,4,0,4,0,1,3,1,0,240,212,1,239,,,,,,,,,,,,,,,,,,
,,1,225,,,,,,,3,5,2,stim/52.jpeg,HouseObjects,2,stim/objects/HouseObjects/saw2.png,0.9,4,0.2,-0.15,right,63,2021-03-29_13h04.10.637,premup-three_ses-01_part-01_label-phase1,3.2.4,MacIntel,60,right,1.011999846,4,0,4,0,1,3,1,0,240,181,1,239,,,,,,,,,,,,,,,,,,
,,1,226,,,,,,,1,1,3,stim/13.jpeg,Instruments,1,stim/objects/Instruments/record.png,0.5,3,-0.2,-0.15,left,63,2021-03-29_13h04.10.637,premup-three_ses-01_part-01_label-phase1,3.2.4,MacIntel,60,left,0.859999895,4,0,4,0,1,3,1,0,240,10,1,239,,,,,,,,,,,,,,,,,,
,,0,227,,,,,,,1,2,4,stim/24.jpeg,Instruments,1,stim/objects/Instruments/timbal.png,0.5,4,0.2,-0.15,left,63,2021-03-29_13h04.10.637,premup-three_ses-01_part-01_label-phase1,3.2.4,MacIntel,60,right,0.595999956,4,0,4,0,1,3,1,0,240,51,1,239,,,,,,,,,,,,,,,,,,
,,0,228,,,,,,,2,3,3,stim/33.jpeg,HouseObjects,2,stim/objects/HouseObjects/thermometer.png,0.7,2,0.2,0.15,right,63,2021-03-29_13h04.10.637,premup-three_ses-01_part-01_label-phase1,3.2.4,MacIntel,60,left,0.489000082,4,0,4,0,1,3,1,0,240,110,1,239,,,,,,,,,,,,,,,,,,
,,0,229,,,,,,,2,4,4,stim/44.jpeg,Instruments,1,stim/objects/Instruments/record_player2.png,0.7,4,0.2,-0.15,left,63,2021-03-29_13h04.10.637,premup-three_ses-01_part-01_label-phase1,3.2.4,MacIntel,60,right,0.636999846,4,0,4,0,1,3,1,0,240,135,1,239,,,,,,,,,,,,,,,,,,
,,0,230,,,,,,,1,1,3,stim/13.jpeg,HouseObjects,2,stim/objects/HouseObjects/rubbergloves.png,0.5,1,-0.2,0.15,right,63,2021-03-29_13h04.10.637,premup-three_ses-01_part-01_label-phase1,3.2.4,MacIntel,60,left,0.864000082,4,0,4,0,1,3,1,0,240,22,1,239,,,,,,,,,,,,,,,,,,
,,1,231,,,,,,,2,3,1,stim/31.jpeg,HouseObjects,2,stim/objects/HouseObjects/spraybottle.png,0.7,2,0.2,0.15,right,63,2021-03-29_13h04.10.637,premup-three_ses-01_part-01_label-phase1,3.2.4,MacIntel,60,right,0.50999999,4,0,4,0,1,3,1,0,240,112,1,239,,,,,,,,,,,,,,,,,,
,,0,232,,,,,,,1,1,3,stim/13.jpeg,HouseObjects,2,stim/objects/HouseObjects/rubbergloves.png,0.5,3,-0.2,-0.15,right,63,2021-03-29_13h04.10.637,premup-three_ses-01_part-01_label-phase1,3.2.4,MacIntel,60,left,1.123999834,4,0,4,0,1,3,1,0,240,34,1,239,,,,,,,,,,,,,,,,,,
,,0,233,,,,,,,2,4,4,stim/44.jpeg,Instruments,1,stim/objects/Instruments/record_player2.png,0.7,2,0.2,0.15,left,63,2021-03-29_13h04.10.637,premup-three_ses-01_part-01_label-phase1,3.2.4,MacIntel,60,,,4,0,4,0,1,3,1,0,240,147,1,239,,,,,,,,,,,,,,,,,,
,,1,234,,,,,,,3,6,1,stim/61.jpeg,Instruments,1,stim/objects/Instruments/triangle2.png,0.9,2,0.2,0.15,left,63,2021-03-29_13h04.10.637,premup-three_ses-01_part-01_label-phase1,3.2.4,MacIntel,60,left,0.697999954,4,0,4,0,1,3,1,0,240,232,1,239,,,,,,,,,,,,,,,,,,
,,0,235,,,,,,,1,2,3,stim/23.jpeg,HouseObjects,2,stim/objects/HouseObjects/scale.png,0.5,1,-0.2,0.15,right,63,2021-03-29_13h04.10.637,premup-three_ses-01_part-01_label-phase1,3.2.4,MacIntel,60,left,0.469000101,4,0,4,0,1,3,1,0,240,78,1,239,,,,,,,,,,,,,,,,,,
,,1,236,,,,,,,1,1,1,stim/11.jpeg,HouseObjects,2,stim/objects/HouseObjects/recyclingbin.png,0.5,2,0.2,0.15,right,63,2021-03-29_13h04.10.637,premup-three_ses-01_part-01_label-phase1,3.2.4,MacIntel,60,right,0.432999849,4,0,4,0,1,3,1,0,240,36,1,239,,,,,,,,,,,,,,,,,,
,,1,237,,,,,,,1,1,1,stim/11.jpeg,HouseObjects,2,stim/objects/HouseObjects/recyclingbin.png,0.5,2,0.2,0.15,right,63,2021-03-29_13h04.10.637,premup-three_ses-01_part-01_label-phase1,3.2.4,MacIntel,60,right,0.460999966,4,0,4,0,1,3,1,0,240,28,1,239,,,,,,,,,,,,,,,,,,
,,0,238,,,,,,,1,2,2,stim/22.jpeg,Instruments,1,stim/objects/Instruments/speaker.png,0.5,4,0.2,-0.15,left,63,2021-03-29_13h04.10.637,premup-three_ses-01_part-01_label-phase1,3.2.4,MacIntel,60,right,0.570999861,4,0,4,0,1,3,1,0,240,49,1,239,,,,,,,,,,,,,,,,,,
,,0,239,,,,,,,1,2,1,stim/21.jpeg,HouseObjects,2,stim/objects/HouseObjects/safetypin.png,0.5,3,-0.2,-0.15,right,63,2021-03-29_13h04.10.637,premup-three_ses-01_part-01_label-phase1,3.2.4,MacIntel,60,left,0.786999941,4,0,4,0,1,3,1,0,240,60,1,239,,,,,,,,,,,,,,,,,,
,,0,240,,,,,,,2,4,2,stim/42.jpeg,Instruments,1,stim/objects/Instruments/pipepiano2.png,0.7,3,-0.2,-0.15,left,63,2021-03-29_13h04.10.637,premup-three_ses-01_part-01_label-phase1,3.2.4,MacIntel,60,right,0.924000025,4,0,4,0,1,3,1,0,240,141,1,239,,,,,,,,,,,,,,,,,,
,,,,,,,,,,,1,,stim/11.jpeg,,,,,,,,,63,2021-03-29_13h04.10.637,premup-three_ses-01_part-01_label-phase1,3.2.4,MacIntel,60,,,4,0,4,0,1,3,,,,,,,1,0,20,11.50500011,,,1,0,6,0,1,5,Music items,45,55,Household items,45,55
,,,,,,,,,,,4,,stim/41.jpeg,,,,,,,,,63,2021-03-29_13h04.10.637,premup-three_ses-01_part-01_label-phase1,3.2.4,MacIntel,60,,,4,0,4,0,1,3,,,,,,,1,0,20,12.96299982,,,1,0,6,3,1,5,Music items,65,75,Household items,25,35
,,,,,,,,,,,3,,stim/31.jpeg,,,,,,,,,63,2021-03-29_13h04.10.637,premup-three_ses-01_part-01_label-phase1,3.2.4,MacIntel,60,,,4,0,4,0,1,3,,,,,,,1,0,20,5.407000065,,,1,0,6,2,1,5,Music items,65,75,Household items,25,35
,,,,,,,,,,,6,,stim/61.jpeg,,,,,,,,,63,2021-03-29_13h04.10.637,premup-three_ses-01_part-01_label-phase1,3.2.4,MacIntel,60,,,4,0,4,0,1,3,,,,,,,1,0,90,4.361000061,,,1,0,6,5,1,5,Music items,5,15,Household items,85,95
,,,,,,,,,,,2,,stim/21.jpeg,,,,,,,,,63,2021-03-29_13h04.10.637,premup-three_ses-01_part-01_label-phase1,3.2.4,MacIntel,60,,,4,0,4,0,1,3,,,,,,,1,1,50,5.546000004,,,1,0,6,1,1,5,Household items,45,55,Music items,45,55
,,,,,,,,,,,5,,stim/51.jpeg,,,,,,,,,63,2021-03-29_13h04.10.637,premup-three_ses-01_part-01_label-phase1,3.2.4,MacIntel,60,,,4,0,4,0,1,3,,,,,,,1,1,90,4.893000126,,,1,0,6,4,1,5,Household items,5,15,Music items,85,95
,,,,,,,,,,,,,,,,,,,,,,63,2021-03-29_13h04.10.637,premup-three_ses-01_part-01_label-phase1,3.2.4,MacIntel,60,,,4,0,4,0,1,3,,,,,,,,,,,,,,,,,,,,,,,,
,,1,1,,,,,,,1,2,1,stim/21.jpeg,HouseObjects,2,stim/objects/HouseObjects/safetypin.png,0.5,3,-0.2,-0.15,right,63,2021-03-29_13h04.10.637,premup-three_ses-01_part-01_label-phase1,3.2.4,MacIntel,60,right,1.292999983,4,0,4,0,1,3,1,0,240,68,1,239,,,,,,,,,,,,,,,,,,
,,1,2,,,,,,,1,1,4,stim/14.jpeg,Instruments,1,stim/objects/Instruments/record_player.png,0.5,3,-0.2,-0.15,left,63,2021-03-29_13h04.10.637,premup-three_ses-01_part-01_label-phase1,3.2.4,MacIntel,60,left,1.075999975,4,0,4,0,1,3,1,0,240,15,1,239,,,,,,,,,,,,,,,,,,
,,1,3,,,,,,,2,3,4,stim/34.jpeg,HouseObjects,2,stim/objects/HouseObjects/thread.png,0.7,3,-0.2,-0.15,right,63,2021-03-29_13h04.10.637,premup-three_ses-01_part-01_label-phase1,3.2.4,MacIntel,60,right,1.07799983,4,0,4,0,1,3,1,0,240,103,1,239,,,,,,,,,,,,,,,,,,
,,0,4,,,,,,,1,1,3,stim/13.jpeg,HouseObjects,2,stim/objects/HouseObjects/rubbergloves.png,0.5,2,0.2,0.15,right,63,2021-03-29_13h04.10.637,premup-three_ses-01_part-01_label-phase1,3.2.4,MacIntel,60,left,0.979999781,4,0,4,0,1,3,1,0,240,38,1,239,,,,,,,,,,,,,,,,,,
,,1,5,,,,,,,1,2,2,stim/22.jpeg,Instruments,1,stim/objects/Instruments/speaker.png,0.5,4,0.2,-0.15,left,63,2021-03-29_13h04.10.637,premup-three_ses-01_part-01_label-phase1,3.2.4,MacIntel,60,left,0.998999834,4,0,4,0,1,3,1,0,240,41,1,239,,,,,,,,,,,,,,,,,,
,,0,6,,,,,,,1,2,2,stim/22.jpeg,HouseObjects,2,stim/objects/HouseObjects/saw.png,0.5,1,-0.2,0.15,right,63,2021-03-29_13h04.10.637,premup-three_ses-01_part-01_label-phase1,3.2.4,MacIntel,60,left,0.96999979,4,0,4,0,1,3,1,0,240,69,1,239,,,,,,,,,,,,,,,,,,
,,1,7,,,,,,,2,3,1,stim/31.jpeg,Instruments,1,stim/objects/Instruments/triangle.png,0.3,2,0.2,0.15,left,63,2021-03-29_13h04.10.637,premup-three_ses-01_part-01_label-phase1,3.2.4,MacIntel,60,left,1.294999838,4,0,4,0,1,3,1,0,240,80,1,239,,,,,,,,,,,,,,,,,,
,,0,8,,,,,,,2,4,3,stim/43.jpeg,Instruments,1,stim/objects/Instruments/record2.png,0.7,1,-0.2,0.15,left,63,2021-03-29_13h04.10.637,premup-three_ses-01_part-01_label-phase1,3.2.4,MacIntel,60,right,1.17599988,4,0,4,0,1,3,1,0,240,146,1,239,,,,,,,,,,,,,,,,,,
,,1,9,,,,,,,1,2,1,stim/21.jpeg,Instruments,1,stim/objects/Instruments/saxophone.png,0.5,2,0.2,0.15,left,63,2021-03-29_13h04.10.637,premup-three_ses-01_part-01_label-phase1,3.2.4,MacIntel,60,left,1.03399992,4,0,4,0,1,3,1,0,240,40,1,239,,,,,,,,,,,,,,,,,,
,,1,10,,,,,,,3,6,1,stim/61.jpeg,Instruments,1,stim/objects/Instruments/triangle2.png,0.9,3,-0.2,-0.15,left,63,2021-03-29_13h04.10.637,premup-three_ses-01_part-01_label-phase1,3.2.4,MacIntel,60,left,1.027999878,4,0,4,0,1,3,1,0,240,212,1,239,,,,,,,,,,,,,,,,,,
,,1,11,,,,,,,3,6,4,stim/64.jpeg,Instruments,1,stim/objects/Instruments/tuba2.png,0.9,2,0.2,0.15,left,63,2021-03-29_13h04.10.637,premup-three_ses-01_part-01_label-phase1,3.2.4,MacIntel,60,left,0.796000004,4,0,4,0,1,3,1,0,240,223,1,239,,,,,,,,,,,,,,,,,,
,,1,12,,,,,,,3,6,1,stim/61.jpeg,Instruments,1,stim/objects/Instruments/triangle2.png,0.9,4,0.2,-0.15,left,63,2021-03-29_13h04.10.637,premup-three_ses-01_part-01_label-phase1,3.2.4,MacIntel,60,left,0.558999777,4,0,4,0,1,3,1,0,240,220,1,239,,,,,,,,,,,,,,,,,,
,,0,13,,,,,,,1,2,3,stim/23.jpeg,HouseObjects,2,stim/objects/HouseObjects/scale.png,0.5,4,0.2,-0.15,right,63,2021-03-29_13h04.10.637,premup-three_ses-01_part-01_label-phase1,3.2.4,MacIntel,60,left,1.174000025,4,0,4,0,1,3,1,0,240,66,1,239,,,,,,,,,,,,,,,,,,
,,1,14,,,,,,,2,3,2,stim/32.jpeg,HouseObjects,2,stim/objects/HouseObjects/teapot.png,0.7,4,0.2,-0.15,right,63,2021-03-29_13h04.10.637,premup-three_ses-01_part-01_label-phase1,3.2.4,MacIntel,60,right,1.092000008,4,0,4,0,1,3,1,0,240,105,1,239,,,,,,,,,,,,,,,,,,
,,1,15,,,,,,,1,1,1,stim/11.jpeg,HouseObjects,2,stim/objects/HouseObjects/recyclingbin.png,0.5,2,0.2,0.15,right,63,2021-03-29_13h04.10.637,premup-three_ses-01_part-01_label-phase1,3.2.4,MacIntel,60,right,1.348999977,4,0,4,0,1,3,1,0,240,28,1,239,,,,,,,,,,,,,,,,,,
,,0,16,,,,,,,2,3,4,stim/34.jpeg,HouseObjects,2,stim/objects/HouseObjects/thread.png,0.7,3,-0.2,-0.15,right,63,2021-03-29_13h04.10.637,premup-three_ses-01_part-01_label-phase1,3.2.4,MacIntel,60,left,1.615999937,4,0,4,0,1,3,1,0,240,119,1,239,,,,,,,,,,,,,,,,,,
,,1,17,,,,,,,3,5,2,stim/52.jpeg,HouseObjects,2,stim/objects/HouseObjects/saw2.png,0.9,4,0.2,-0.15,right,63,2021-03-29_13h04.10.637,premup-three_ses-01_part-01_label-phase1,3.2.4,MacIntel,60,right,1.170000076,4,0,4,0,1,3,1,0,240,181,1,239,,,,,,,,,,,,,,,,,,
,,1,18,,,,,,,3,5,1,stim/51.jpeg,HouseObjects,2,stim/objects/HouseObjects/safetypin2.png,0.9,4,0.2,-0.15,right,63,2021-03-29_13h04.10.637,premup-three_ses-01_part-01_label-phase1,3.2.4,MacIntel,60,right,0.778999805,4,0,4,0,1,3,1,0,240,180,1,239,,,,,,,,,,,,,,,,,,
,,1,19,,,,,,,3,5,2,stim/52.jpeg,HouseObjects,2,stim/objects/HouseObjects/saw2.png,0.9,3,-0.2,-0.15,right,63,2021-03-29_13h04.10.637,premup-three_ses-01_part-01_label-phase1,3.2.4,MacIntel,60,right,0.838000059,4,0,4,0,1,3,1,0,240,193,1,239,,,,,,,,,,,,,,,,,,
,,1,20,,,,,,,3,6,4,stim/64.jpeg,Instruments,1,stim/objects/Instruments/tuba2.png,0.9,3,-0.2,-0.15,left,63,2021-03-29_13h04.10.637,premup-three_ses-01_part-01_label-phase1,3.2.4,MacIntel,60,left,0.86899972,4,0,4,0,1,3,1,0,240,215,1,239,,,,,,,,,,,,,,,,,,
,,0,21,,,,,,,1,2,1,stim/21.jpeg,HouseObjects,2,stim/objects/HouseObjects/safetypin.png,0.5,4,0.2,-0.15,right,63,2021-03-29_13h04.10.637,premup-three_ses-01_part-01_label-phase1,3.2.4,MacIntel,60,left,1.184000015,4,0,4,0,1,3,1,0,240,64,1,239,,,,,,,,,,,,,,,,,,
,,1,22,,,,,,,1,1,2,stim/12.jpeg,Instruments,1,stim/objects/Instruments/pipepiano.png,0.5,2,0.2,0.15,left,63,2021-03-29_13h04.10.637,premup-three_ses-01_part-01_label-phase1,3.2.4,MacIntel,60,left,1.117000103,4,0,4,0,1,3,1,0,240,5,1,239,,,,,,,,,,,,,,,,,,
,,0,23,,,,,,,3,5,4,stim/54.jpeg,Instruments,1,stim/objects/Instruments/timbal2.png,0.1,1,-0.2,0.15,left,63,2021-03-29_13h04.10.637,premup-three_ses-01_part-01_label-phase1,3.2.4,MacIntel,60,right,0.713999748,4,0,4,0,1,3,1,0,240,163,1,239,,,,,,,,,,,,,,,,,,
,,1,24,,,,,,,3,6,4,stim/64.jpeg,Instruments,1,stim/objects/Instruments/tuba2.png,0.9,3,-0.2,-0.15,left,63,2021-03-29_13h04.10.637,premup-three_ses-01_part-01_label-phase1,3.2.4,MacIntel,60,left,0.753000021,4,0,4,0,1,3,1,0,240,203,1,239,,,,,,,,,,,,,,,,,,
,,1,25,,,,,,,3,6,3,stim/63.jpeg,Instruments,1,stim/objects/Instruments/trumpet2.png,0.9,2,0.2,0.15,left,63,2021-03-29_13h04.10.637,premup-three_ses-01_part-01_label-phase1,3.2.4,MacIntel,60,left,0.649999857,4,0,4,0,1,3,1,0,240,214,1,239,,,,,,,,,,,,,,,,,,
,,1,26,,,,,,,2,3,3,stim/33.jpeg,HouseObjects,2,stim/objects/HouseObjects/thermometer.png,0.7,1,-0.2,0.15,right,63,2021-03-29_13h04.10.637,premup-three_ses-01_part-01_label-phase1,3.2.4,MacIntel,60,right,0.929999828,4,0,4,0,1,3,1,0,240,98,1,239,,,,,,,,,,,,,,,,,,
,,1,27,,,,,,,3,6,3,stim/63.jpeg,Instruments,1,stim/objects/Instruments/trumpet2.png,0.9,3,-0.2,-0.15,left,63,2021-03-29_13h04.10.637,premup-three_ses-01_part-01_label-phase1,3.2.4,MacIntel,60,left,0.766000032,4,0,4,0,1,3,1,0,240,206,1,239,,,,,,,,,,,,,,,,,,
,,1,28,,,,,,,3,6,4,stim/64.jpeg,Instruments,1,stim/objects/Instruments/tuba2.png,0.9,2,0.2,0.15,left,63,2021-03-29_13h04.10.637,premup-three_ses-01_part-01_label-phase1,3.2.4,MacIntel,60,left,0.91899991,4,0,4,0,1,3,1,0,240,219,1,239,,,,,,,,,,,,,,,,,,
,,1,29,,,,,,,3,5,2,stim/52.jpeg,HouseObjects,2,stim/objects/HouseObjects/saw2.png,0.9,4,0.2,-0.15,right,63,2021-03-29_13h04.10.637,premup-three_ses-01_part-01_label-phase1,3.2.4,MacIntel,60,right,0.944999933,4,0,4,0,1,3,1,0,240,169,1,239,,,,,,,,,,,,,,,,,,
,,0,30,,,,,,,1,2,3,stim/23.jpeg,HouseObjects,2,stim/objects/HouseObjects/scale.png,0.5,1,-0.2,0.15,right,63,2021-03-29_13h04.10.637,premup-three_ses-01_part-01_label-phase1,3.2.4,MacIntel,60,left,1.47300005,4,0,4,0,1,3,1,0,240,78,1,239,,,,,,,,,,,,,,,,,,
,,0,31,,,,,,,3,6,1,stim/61.jpeg,HouseObjects,2,stim/objects/HouseObjects/spraybottle2.png,0.1,2,0.2,0.15,right,63,2021-03-29_13h04.10.637,premup-three_ses-01_part-01_label-phase1,3.2.4,MacIntel,60,left,0.828999996,4,0,4,0,1,3,1,0,240,236,1,239,,,,,,,,,,,,,,,,,,
,,0,32,,,,,,,2,4,4,stim/44.jpeg,Instruments,1,stim/objects/Instruments/record_player2.png,0.7,1,-0.2,0.15,left,63,2021-03-29_13h04.10.637,premup-three_ses-01_part-01_label-phase1,3.2.4,MacIntel,60,right,1.853999853,4,0,4,0,1,3,1,0,240,131,1,239,,,,,,,,,,,,,,,,,,
,,0,33,,,,,,,3,6,2,stim/62.jpeg,HouseObjects,2,stim/objects/HouseObjects/teapot2.png,0.1,1,-0.2,0.15,right,63,2021-03-29_13h04.10.637,premup-three_ses-01_part-01_label-phase1,3.2.4,MacIntel,60,left,0.671000004,4,0,4,0,1,3,1,0,240,237,1,239,,,,,,,,,,,,,,,,,,
,,0,34,,,,,,,2,4,2,stim/42.jpeg,Instruments,1,stim/objects/Instruments/pipepiano2.png,0.7,1,-0.2,0.15,left,63,2021-03-29_13h04.10.637,premup-three_ses-01_part-01_label-phase1,3.2.4,MacIntel,60,right,1.218999863,4,0,4,0,1,3,1,0,240,129,1,239,,,,,,,,,,,,,,,,,,
,,1,35,,,,,,,3,6,2,stim/62.jpeg,Instruments,1,stim/objects/Instruments/trombone2.png,0.9,4,0.2,-0.15,left,63,2021-03-29_13h04.10.637,premup-three_ses-01_part-01_label-phase1,3.2.4,MacIntel,60,left,0.707000017,4,0,4,0,1,3,1,0,240,225,1,239,,,,,,,,,,,,,,,,,,
,,0,36,,,,,,,1,1,3,stim/13.jpeg,HouseObjects,2,stim/objects/HouseObjects/rubbergloves.png,0.5,3,-0.2,-0.15,right,63,2021-03-29_13h04.10.637,premup-three_ses-01_part-01_label-phase1,3.2.4,MacIntel,60,left,0.751999855,4,0,4,0,1,3,1,0,240,30,1,239,,,,,,,,,,,,,,,,,,
,,1,37,,,,,,,3,5,3,stim/53.jpeg,HouseObjects,2,stim/objects/HouseObjects/scale2.png,0.9,2,0.2,0.15,right,63,2021-03-29_13h04.10.637,premup-three_ses-01_part-01_label-phase1,3.2.4,MacIntel,60,right,1.153000116,4,0,4,0,1,3,1,0,240,166,1,239,,,,,,,,,,,,,,,,,,
,,1,38,,,,,,,1,1,4,stim/14.jpeg,Instruments,1,stim/objects/Instruments/record_player.png,0.5,4,0.2,-0.15,left,63,2021-03-29_13h04.10.637,premup-three_ses-01_part-01_label-phase1,3.2.4,MacIntel,60,left,0.990999937,4,0,4,0,1,3,1,0,240,3,1,239,,,,,,,,,,,,,,,,,,
,,1,39,,,,,,,1,2,4,stim/24.jpeg,HouseObjects,2,stim/objects/HouseObjects/sponge.png,0.5,2,0.2,0.15,right,63,2021-03-29_13h04.10.637,premup-three_ses-01_part-01_label-phase1,3.2.4,MacIntel,60,right,0.971999884,4,0,4,0,1,3,1,0,240,71,1,239,,,,,,,,,,,,,,,,,,
,,0,40,,,,,,,3,6,3,stim/63.jpeg,HouseObjects,2,stim/objects/HouseObjects/thermometer2.png,0.1,4,0.2,-0.15,right,63,2021-03-29_13h04.10.637,premup-three_ses-01_part-01_label-phase1,3.2.4,MacIntel,60,left,1.101000071,4,0,4,0,1,3,1,0,240,238,1,239,,,,,,,,,,,,,,,,,,
,,1,41,,,,,,,3,6,2,stim/62.jpeg,Instruments,1,stim/objects/Instruments/trombone2.png,0.9,1,-0.2,0.15,left,63,2021-03-29_13h04.10.637,premup-three_ses-01_part-01_label-phase1,3.2.4,MacIntel,60,left,0.923000097,4,0,4,0,1,3,1,0,240,217,1,239,,,,,,,,,,,,,,,,,,
,,1,42,,,,,,,2,3,2,stim/32.jpeg,HouseObjects,2,stim/objects/HouseObjects/teapot.png,0.7,1,-0.2,0.15,right,63,2021-03-29_13h04.10.637,premup-three_ses-01_part-01_label-phase1,3.2.4,MacIntel,60,right,1.635999918,4,0,4,0,1,3,1,0,240,93,1,239,,,,,,,,,,,,,,,,,,
,,1,43,,,,,,,2,3,4,stim/34.jpeg,HouseObjects,2,stim/objects/HouseObjects/thread.png,0.7,4,0.2,-0.15,right,63,2021-03-29_13h04.10.637,premup-three_ses-01_part-01_label-phase1,3.2.4,MacIntel,60,right,1.531999826,4,0,4,0,1,3,1,0,240,115,1,239,,,,,,,,,,,,,,,,,,
,,1,44,,,,,,,2,3,4,stim/34.jpeg,HouseObjects,2,stim/objects/HouseObjects/thread.png,0.7,2,0.2,0.15,right,63,2021-03-29_13h04.10.637,premup-three_ses-01_part-01_label-phase1,3.2.4,MacIntel,60,right,0.967999935,4,0,4,0,1,3,1,0,240,107,1,239,,,,,,,,,,,,,,,,,,
,,1,45,,,,,,,2,3,3,stim/33.jpeg,Instruments,1,stim/objects/Instruments/trumpet.png,0.3,1,-0.2,0.15,left,63,2021-03-29_13h04.10.637,premup-three_ses-01_part-01_label-phase1,3.2.4,MacIntel,60,left,0.596999884,4,0,4,0,1,3,1,0,240,86,1,239,,,,,,,,,,,,,,,,,,
,,1,46,,,,,,,3,5,2,stim/52.jpeg,Instruments,1,stim/objects/Instruments/speaker2.png,0.1,3,-0.2,-0.15,left,63,2021-03-29_13h04.10.637,premup-three_ses-01_part-01_label-phase1,3.2.4,MacIntel,60,left,0.47699976,4,0,4,0,1,3,1,0,240,161,1,239,,,,,,,,,,,,,,,,,,
,,0,47,,,,,,,2,4,1,stim/41.jpeg,Instruments,1,stim/objects/Instruments/panflute2.png,0.7,2,0.2,0.15,left,63,2021-03-29_13h04.10.637,premup-three_ses-01_part-01_label-phase1,3.2.4,MacIntel,60,right,0.599999905,4,0,4,0,1,3,1,0,240,120,1,239,,,,,,,,,,,,,,,,,,
,,1,48,,,,,,,3,5,3,stim/53.jpeg,HouseObjects,2,stim/objects/HouseObjects/scale2.png,0.9,2,0.2,0.15,right,63,2021-03-29_13h04.10.637,premup-three_ses-01_part-01_label-phase1,3.2.4,MacIntel,60,right,0.845000029,4,0,4,0,1,3,1,0,240,174,1,239,,,,,,,,,,,,,,,,,,
,,1,49,,,,,,,1,1,3,stim/13.jpeg,Instruments,1,stim/objects/Instruments/record.png,0.5,1,-0.2,0.15,left,63,2021-03-29_13h04.10.637,premup-three_ses-01_part-01_label-phase1,3.2.4,MacIntel,60,left,0.65199995,4,0,4,0,1,3,1,0,240,14,1,239,,,,,,,,,,,,,,,,,,
,,1,50,,,,,,,2,4,2,stim/42.jpeg,Instruments,1,stim/objects/Instruments/pipepiano2.png,0.7,1,-0.2,0.15,left,63,2021-03-29_13h04.10.637,premup-three_ses-01_part-01_label-phase1,3.2.4,MacIntel,60,left,0.583999872,4,0,4,0,1,3,1,0,240,133,1,239,,,,,,,,,,,,,,,,,,
,,0,51,,,,,,,3,5,2,stim/52.jpeg,HouseObjects,2,stim/objects/HouseObjects/saw2.png,0.9,1,-0.2,0.15,right,63,2021-03-29_13h04.10.637,premup-three_ses-01_part-01_label-phase1,3.2.4,MacIntel,60,left,0.487999916,4,0,4,0,1,3,1,0,240,177,1,239,,,,,,,,,,,,,,,,,,
,,0,52,,,,,,,1,2,1,stim/21.jpeg,HouseObjects,2,stim/objects/HouseObjects/safetypin.png,0.5,3,-0.2,-0.15,right,63,2021-03-29_13h04.10.637,premup-three_ses-01_part-01_label-phase1,3.2.4,MacIntel,60,left,0.993999958,4,0,4,0,1,3,1,0,240,76,1,239,,,,,,,,,,,,,,,,,,
,,0,53,,,,,,,1,1,2,stim/12.jpeg,Instruments,1,stim/objects/Instruments/pipepiano.png,0.5,4,0.2,-0.15,left,63,2021-03-29_13h04.10.637,premup-three_ses-01_part-01_label-phase1,3.2.4,MacIntel,60,right,0.961999893,4,0,4,0,1,3,1,0,240,1,1,239,,,,,,,,,,,,,,,,,,
,,1,54,,,,,,,2,4,1,stim/41.jpeg,HouseObjects,2,stim/objects/HouseObjects/recyclingbin2.png,0.3,4,0.2,-0.15,right,63,2021-03-29_13h04.10.637,premup-three_ses-01_part-01_label-phase1,3.2.4,MacIntel,60,right,1.181999922,4,0,4,0,1,3,1,0,240,156,1,239,,,,,,,,,,,,,,,,,,
,,1,55,,,,,,,3,5,4,stim/54.jpeg,HouseObjects,2,stim/objects/HouseObjects/sponge2.png,0.9,2,0.2,0.15,right,63,2021-03-29_13h04.10.637,premup-three_ses-01_part-01_label-phase1,3.2.4,MacIntel,60,right,0.727999926,4,0,4,0,1,3,1,0,240,191,1,239,,,,,,,,,,,,,,,,,,
,,0,56,,,,,,,2,3,2,stim/32.jpeg,HouseObjects,2,stim/objects/HouseObjects/teapot.png,0.7,3,-0.2,-0.15,right,63,2021-03-29_13h04.10.637,premup-three_ses-01_part-01_label-phase1,3.2.4,MacIntel,60,left,0.597999811,4,0,4,0,1,3,1,0,240,101,1,239,,,,,,,,,,,,,,,,,,
,,0,57,,,,,,,2,4,3,stim/43.jpeg,Instruments,1,stim/objects/Instruments/record2.png,0.7,2,0.2,0.15,left,63,2021-03-29_13h04.10.637,premup-three_ses-01_part-01_label-phase1,3.2.4,MacIntel,60,right,0.917999983,4,0,4,0,1,3,1,0,240,138,1,239,,,,,,,,,,,,,,,,,,
,,0,58,,,,,,,1,2,4,stim/24.jpeg,HouseObjects,2,stim/objects/HouseObjects/sponge.png,0.5,2,0.2,0.15,right,63,2021-03-29_13h04.10.637,premup-three_ses-01_part-01_label-phase1,3.2.4,MacIntel,60,left,1.289999962,4,0,4,0,1,3,1,0,240,79,1,239,,,,,,,,,,,,,,,,,,
,,0,59,,,,,,,2,4,4,stim/44.jpeg,Instruments,1,stim/objects/Instruments/record_player2.png,0.7,1,-0.2,0.15,left,63,2021-03-29_13h04.10.637,premup-three_ses-01_part-01_label-phase1,3.2.4,MacIntel,60,right,0.886999846,4,0,4,0,1,3,1,0,240,139,1,239,,,,,,,,,,,,,,,,,,
,,1,60,,,,,,,3,6,3,stim/63.jpeg,Instruments,1,stim/objects/Instruments/trumpet2.png,0.9,4,0.2,-0.15,left,63,2021-03-29_13h04.10.637,premup-three_ses-01_part-01_label-phase1,3.2.4,MacIntel,60,left,0.765999794,4,0,4,0,1,3,1,0,240,202,1,239,,,,,,,,,,,,,,,,,,
,,1,61,,,,,,,2,4,1,stim/41.jpeg,Instruments,1,stim/objects/Instruments/panflute2.png,0.7,2,0.2,0.15,left,63,2021-03-29_13h04.10.637,premup-three_ses-01_part-01_label-phase1,3.2.4,MacIntel,60,left,0.733999968,4,0,4,0,1,3,1,0,240,140,1,239,,,,,,,,,,,,,,,,,,
,,1,62,,,,,,,3,6,4,stim/64.jpeg,Instruments,1,stim/objects/Instruments/tuba2.png,0.9,4,0.2,-0.15,left,63,2021-03-29_13h04.10.637,premup-three_ses-01_part-01_label-phase1,3.2.4,MacIntel,60,left,0.444000006,4,0,4,0,1,3,1,0,240,207,1,239,,,,,,,,,,,,,,,,,,
,,0,63,,,,,,,1,2,2,stim/22.jpeg,HouseObjects,2,stim/objects/HouseObjects/saw.png,0.5,3,-0.2,-0.15,right,63,2021-03-29_13h04.10.637,premup-three_ses-01_part-01_label-phase1,3.2.4,MacIntel,60,left,0.54399991,4,0,4,0,1,3,1,0,240,77,1,239,,,,,,,,,,,,,,,,,,
,,1,64,,,,,,,1,1,3,stim/13.jpeg,HouseObjects,2,stim/objects/HouseObjects/rubbergloves.png,0.5,3,-0.2,-0.15,right,63,2021-03-29_13h04.10.637,premup-three_ses-01_part-01_label-phase1,3.2.4,MacIntel,60,right,0.924999952,4,0,4,0,1,3,1,0,240,34,1,239,,,,,,,,,,,,,,,,,,
,,0,65,,,,,,,3,5,1,stim/51.jpeg,HouseObjects,2,stim/objects/HouseObjects/safetypin2.png,0.9,4,0.2,-0.15,right,63,2021-03-29_13h04.10.637,premup-three_ses-01_part-01_label-phase1,3.2.4,MacIntel,60,left,0.895999908,4,0,4,0,1,3,1,0,240,188,1,239,,,,,,,,,,,,,,,,,,
,,0,66,,,,,,,2,3,4,stim/34.jpeg,Instruments,1,stim/objects/Instruments/tuba.png,0.3,2,0.2,0.15,left,63,2021-03-29_13h04.10.637,premup-three_ses-01_part-01_label-phase1,3.2.4,MacIntel,60,right,0.946000099,4,0,4,0,1,3,1,0,240,87,1,239,,,,,,,,,,,,,,,,,,
,,0,67,,,,,,,1,2,4,stim/24.jpeg,Instruments,1,stim/objects/Instruments/timbal.png,0.5,1,-0.2,0.15,left,63,2021-03-29_13h04.10.637,premup-three_ses-01_part-01_label-phase1,3.2.4,MacIntel,60,right,0.771999836,4,0,4,0,1,3,1,0,240,59,1,239,,,,,,,,,,,,,,,,,,
,,0,68,,,,,,,2,3,3,stim/33.jpeg,Instruments,1,stim/objects/Instruments/trumpet.png,0.3,4,0.2,-0.15,left,63,2021-03-29_13h04.10.637,premup-three_ses-01_part-01_label-phase1,3.2.4,MacIntel,60,right,0.976000071,4,0,4,0,1,3,1,0,240,90,1,239,,,,,,,,,,,,,,,,,,
,,1,69,,,,,,,3,6,3,stim/63.jpeg,Instruments,1,stim/objects/Instruments/trumpet2.png,0.9,3,-0.2,-0.15,left,63,2021-03-29_13h04.10.637,premup-three_ses-01_part-01_label-phase1,3.2.4,MacIntel,60,left,1.083999872,4,0,4,0,1,3,1,0,240,230,1,239,,,,,,,,,,,,,,,,,,
,,1,70,,,,,,,1,2,2,stim/22.jpeg,HouseObjects,2,stim/objects/HouseObjects/saw.png,0.5,2,0.2,0.15,right,63,2021-03-29_13h04.10.637,premup-three_ses-01_part-01_label-phase1,3.2.4,MacIntel,60,right,1.395999908,4,0,4,0,1,3,1,0,240,65,1,239,,,,,,,,,,,,,,,,,,
,,0,71,,,,,,,3,5,3,stim/53.jpeg,Instruments,1,stim/objects/Instruments/tambourine2.png,0.1,4,0.2,-0.15,left,63,2021-03-29_13h04.10.637,premup-three_ses-01_part-01_label-phase1,3.2.4,MacIntel,60,right,1.246000051,4,0,4,0,1,3,1,0,240,162,1,239,,,,,,,,,,,,,,,,,,
,,1,72,,,,,,,2,3,2,stim/32.jpeg,Instruments,1,stim/objects/Instruments/trombone.png,0.3,2,0.2,0.15,left,63,2021-03-29_13h04.10.637,premup-three_ses-01_part-01_label-phase1,3.2.4,MacIntel,60,left,0.66899991,4,0,4,0,1,3,1,0,240,85,1,239,,,,,,,,,,,,,,,,,,
,,0,73,,,,,,,2,3,4,stim/34.jpeg,HouseObjects,2,stim/objects/HouseObjects/thread.png,0.7,4,0.2,-0.15,right,63,2021-03-29_13h04.10.637,premup-three_ses-01_part-01_label-phase1,3.2.4,MacIntel,60,left,0.44900012,4,0,4,0,1,3,1,0,240,99,1,239,,,,,,,,,,,,,,,,,,
,,1,74,,,,,,,1,1,3,stim/13.jpeg,Instruments,1,stim/objects/Instruments/record.png,0.5,2,0.2,0.15,left,63,2021-03-29_13h04.10.637,premup-three_ses-01_part-01_label-phase1,3.2.4,MacIntel,60,left,0.924999714,4,0,4,0,1,3,1,0,240,6,1,239,,,,,,,,,,,,,,,,,,
,,0,75,,,,,,,2,3,4,stim/34.jpeg,Instruments,1,stim/objects/Instruments/tuba.png,0.3,3,-0.2,-0.15,left,63,2021-03-29_13h04.10.637,premup-three_ses-01_part-01_label-phase1,3.2.4,MacIntel,60,right,0.48300004,4,0,4,0,1,3,1,0,240,91,1,239,,,,,,,,,,,,,,,,,,
,,0,76,,,,,,,2,4,3,stim/43.jpeg,HouseObjects,2,stim/objects/HouseObjects/rubbergloves2.png,0.3,3,-0.2,-0.15,right,63,2021-03-29_13h04.10.637,premup-three_ses-01_part-01_label-phase1,3.2.4,MacIntel,60,left,0.429999828,4,0,4,0,1,3,1,0,240,150,1,239,,,,,,,,,,,,,,,,,,
,,0,77,,,,,,,2,3,1,stim/31.jpeg,Instruments,1,stim/objects/Instruments/triangle.png,0.3,3,-0.2,-0.15,left,63,2021-03-29_13h04.10.637,premup-three_ses-01_part-01_label-phase1,3.2.4,MacIntel,60,right,0.816999912,4,0,4,0,1,3,1,0,240,88,1,239,,,,,,,,,,,,,,,,,,
,,0,78,,,,,,,3,5,3,stim/53.jpeg,HouseObjects,2,stim/objects/HouseObjects/scale2.png,0.9,1,-0.2,0.15,right,63,2021-03-29_13h04.10.637,premup-three_ses-01_part-01_label-phase1,3.2.4,MacIntel,60,left,0.618000031,4,0,4,0,1,3,1,0,240,182,1,239,,,,,,,,,,,,,,,,,,
,,1,79,,,,,,,1,1,1,stim/11.jpeg,HouseObjects,2,stim/objects/HouseObjects/recyclingbin.png,0.5,3,-0.2,-0.15,right,63,2021-03-29_13h04.10.637,premup-three_ses-01_part-01_label-phase1,3.2.4,MacIntel,60,right,1.068999767,4,0,4,0,1,3,1,0,240,20,1,239,,,,,,,,,,,,,,,,,,
,,1,80,,,,,,,2,4,2,stim/42.jpeg,HouseObjects,2,stim/objects/HouseObjects/remote2.png,0.3,3,-0.2,-0.15,right,63,2021-03-29_13h04.10.637,premup-three_ses-01_part-01_label-phase1,3.2.4,MacIntel,60,right,0.679999828,4,0,4,0,1,3,1,0,240,149,1,239,,,,,,,,,,,,,,,,,,
,,1,81,,,,,,,1,1,2,stim/12.jpeg,HouseObjects,2,stim/objects/HouseObjects/remote.png,0.5,3,-0.2,-0.15,right,63,2021-03-29_13h04.10.637,premup-three_ses-01_part-01_label-phase1,3.2.4,MacIntel,60,right,0.664000034,4,0,4,0,1,3,1,0,240,37,1,239,,,,,,,,,,,,,,,,,,
,,1,82,,,,,,,3,6,4,stim/64.jpeg,Instruments,1,stim/objects/Instruments/tuba2.png,0.9,2,0.2,0.15,left,63,2021-03-29_13h04.10.637,premup-three_ses-01_part-01_label-phase1,3.2.4,MacIntel,60,left,0.897999763,4,0,4,0,1,3,1,0,240,211,1,239,,,,,,,,,,,,,,,,,,
,,0,83,,,,,,,2,3,2,stim/32.jpeg,Instruments,1,stim/objects/Instruments/trombone.png,0.3,2,0.2,0.15,left,63,2021-03-29_13h04.10.637,premup-three_ses-01_part-01_label-phase1,3.2.4,MacIntel,60,right,0.911000013,4,0,4,0,1,3,1,0,240,81,1,239,,,,,,,,,,,,,,,,,,
,,1,84,,,,,,,1,1,2,stim/12.jpeg,HouseObjects,2,stim/objects/HouseObjects/remote.png,0.5,1,-0.2,0.15,right,63,2021-03-29_13h04.10.637,premup-three_ses-01_part-01_label-phase1,3.2.4,MacIntel,60,right,1.201999903,4,0,4,0,1,3,1,0,240,29,1,239,,,,,,,,,,,,,,,,,,
,,1,85,,,,,,,3,6,2,stim/62.jpeg,Instruments,1,stim/objects/Instruments/trombone2.png,0.9,1,-0.2,0.15,left,63,2021-03-29_13h04.10.637,premup-three_ses-01_part-01_label-phase1,3.2.4,MacIntel,60,left,0.902999878,4,0,4,0,1,3,1,0,240,213,1,239,,,,,,,,,,,,,,,,,,
,,1,86,,,,,,,2,4,3,stim/43.jpeg,Instruments,1,stim/objects/Instruments/record2.png,0.7,3,-0.2,-0.15,left,63,2021-03-29_13h04.10.637,premup-three_ses-01_part-01_label-phase1,3.2.4,MacIntel,60,left,0.625999928,4,0,4,0,1,3,1,0,240,126,1,239,,,,,,,,,,,,,,,,,,
,,0,87,,,,,,,1,2,1,stim/21.jpeg,Instruments,1,stim/objects/Instruments/saxophone.png,0.5,3,-0.2,-0.15,left,63,2021-03-29_13h04.10.637,premup-three_ses-01_part-01_label-phase1,3.2.4,MacIntel,60,right,0.761999846,4,0,4,0,1,3,1,0,240,44,1,239,,,,,,,,,,,,,,,,,,
,,0,88,,,,,,,1,1,3,stim/13.jpeg,HouseObjects,2,stim/objects/HouseObjects/rubbergloves.png,0.5,1,-0.2,0.15,right,63,2021-03-29_13h04.10.637,premup-three_ses-01_part-01_label-phase1,3.2.4,MacIntel,60,left,0.947000027,4,0,4,0,1,3,1,0,240,22,1,239,,,,,,,,,,,,,,,,,,
,,0,89,,,,,,,1,1,1,stim/11.jpeg,Instruments,1,stim/objects/Instruments/panflute.png,0.5,4,0.2,-0.15,left,63,2021-03-29_13h04.10.637,premup-three_ses-01_part-01_label-phase1,3.2.4,MacIntel,60,right,0.986999989,4,0,4,0,1,3,1,0,240,0,1,239,,,,,,,,,,,,,,,,,,
,,0,90,,,,,,,2,4,1,stim/41.jpeg,HouseObjects,2,stim/objects/HouseObjects/recyclingbin2.png,0.3,3,-0.2,-0.15,right,63,2021-03-29_13h04.10.637,premup-three_ses-01_part-01_label-phase1,3.2.4,MacIntel,60,left,0.60800004,4,0,4,0,1,3,1,0,240,152,1,239,,,,,,,,,,,,,,,,,,
,,0,91,,,,,,,1,2,2,stim/22.jpeg,HouseObjects,2,stim/objects/HouseObjects/saw.png,0.5,1,-0.2,0.15,right,63,2021-03-29_13h04.10.637,premup-three_ses-01_part-01_label-phase1,3.2.4,MacIntel,60,left,0.777999878,4,0,4,0,1,3,1,0,240,73,1,239,,,,,,,,,,,,,,,,,,
,,1,92,,,,,,,2,4,2,stim/42.jpeg,HouseObjects,2,stim/objects/HouseObjects/remote2.png,0.3,2,0.2,0.15,right,63,2021-03-29_13h04.10.637,premup-three_ses-01_part-01_label-phase1,3.2.4,MacIntel,60,right,1.161000013,4,0,4,0,1,3,1,0,240,157,1,239,,,,,,,,,,,,,,,,,,
,,0,93,,,,,,,3,6,1,stim/61.jpeg,Instruments,1,stim/objects/Instruments/triangle2.png,0.9,4,0.2,-0.15,left,63,2021-03-29_13h04.10.637,premup-three_ses-01_part-01_label-phase1,3.2.4,MacIntel,60,right,0.713999748,4,0,4,0,1,3,1,0,240,224,1,239,,,,,,,,,,,,,,,,,,
,,0,94,,,,,,,1,1,4,stim/14.jpeg,HouseObjects,2,stim/objects/HouseObjects/rug.png,0.5,1,-0.2,0.15,right,63,2021-03-29_13h04.10.637,premup-three_ses-01_part-01_label-phase1,3.2.4,MacIntel,60,left,0.386999846,4,0,4,0,1,3,1,0,240,39,1,239,,,,,,,,,,,,,,,,,,
,,0,95,,,,,,,2,4,1,stim/41.jpeg,Instruments,1,stim/objects/Instruments/panflute2.png,0.7,2,0.2,0.15,left,63,2021-03-29_13h04.10.637,premup-three_ses-01_part-01_label-phase1,3.2.4,MacIntel,60,right,0.579999924,4,0,4,0,1,3,1,0,240,128,1,239,,,,,,,,,,,,,,,,,,
,,1,96,,,,,,,1,2,4,stim/24.jpeg,Instruments,1,stim/objects/Instruments/timbal.png,0.5,3,-0.2,-0.15,left,63,2021-03-29_13h04.10.637,premup-three_ses-01_part-01_label-phase1,3.2.4,MacIntel,60,left,1.229999781,4,0,4,0,1,3,1,0,240,43,1,239,,,,,,,,,,,,,,,,,,
,,1,97,,,,,,,1,1,3,stim/13.jpeg,Instruments,1,stim/objects/Instruments/record.png,0.5,1,-0.2,0.15,left,63,2021-03-29_13h04.10.637,premup-three_ses-01_part-01_label-phase1,3.2.4,MacIntel,60,left,0.549999952,4,0,4,0,1,3,1,0,240,18,1,239,,,,,,,,,,,,,,,,,,
,,1,98,,,,,,,3,6,3,stim/63.jpeg,Instruments,1,stim/objects/Instruments/trumpet2.png,0.9,4,0.2,-0.15,left,63,2021-03-29_13h04.10.637,premup-three_ses-01_part-01_label-phase1,3.2.4,MacIntel,60,left,0.740999937,4,0,4,0,1,3,1,0,240,234,1,239,,,,,,,,,,,,,,,,,,
,,1,99,,,,,,,3,5,4,stim/54.jpeg,HouseObjects,2,stim/objects/HouseObjects/sponge2.png,0.9,1,-0.2,0.15,right,63,2021-03-29_13h04.10.637,premup-three_ses-01_part-01_label-phase1,3.2.4,MacIntel,60,right,0.507999897,4,0,4,0,1,3,1,0,240,183,1,239,,,,,,,,,,,,,,,,,,
,,0,100,,,,,,,2,4,3,stim/43.jpeg,Instruments,1,stim/objects/Instruments/record2.png,0.7,3,-0.2,-0.15,left,63,2021-03-29_13h04.10.637,premup-three_ses-01_part-01_label-phase1,3.2.4,MacIntel,60,right,0.996000051,4,0,4,0,1,3,1,0,240,122,1,239,,,,,,,,,,,,,,,,,,
,,0,101,,,,,,,1,2,1,stim/21.jpeg,Instruments,1,stim/objects/Instruments/saxophone.png,0.5,4,0.2,-0.15,left,63,2021-03-29_13h04.10.637,premup-three_ses-01_part-01_label-phase1,3.2.4,MacIntel,60,right,1.093999863,4,0,4,0,1,3,1,0,240,56,1,239,,,,,,,,,,,,,,,,,,
,,1,102,,,,,,,1,2,2,stim/22.jpeg,Instruments,1,stim/objects/Instruments/speaker.png,0.5,4,0.2,-0.15,left,63,2021-03-29_13h04.10.637,premup-three_ses-01_part-01_label-phase1,3.2.4,MacIntel,60,left,1.292000055,4,0,4,0,1,3,1,0,240,49,1,239,,,,,,,,,,,,,,,,,,
,,1,103,,,,,,,1,1,2,stim/12.jpeg,Instruments,1,stim/objects/Instruments/pipepiano.png,0.5,1,-0.2,0.15,left,63,2021-03-29_13h04.10.637,premup-three_ses-01_part-01_label-phase1,3.2.4,MacIntel,60,left,0.902999878,4,0,4,0,1,3,1,0,240,13,1,239,,,,,,,,,,,,,,,,,,
,,1,104,,,,,,,2,3,1,stim/31.jpeg,Instruments,1,stim/objects/Instruments/triangle.png,0.3,2,0.2,0.15,left,63,2021-03-29_13h04.10.637,premup-three_ses-01_part-01_label-phase1,3.2.4,MacIntel,60,left,0.611999989,4,0,4,0,1,3,1,0,240,84,1,239,,,,,,,,,,,,,,,,,,
,,1,105,,,,,,,3,5,1,stim/51.jpeg,HouseObjects,2,stim/objects/HouseObjects/safetypin2.png,0.9,2,0.2,0.15,right,63,2021-03-29_13h04.10.637,premup-three_ses-01_part-01_label-phase1,3.2.4,MacIntel,60,right,0.713000059,4,0,4,0,1,3,1,0,240,168,1,239,,,,,,,,,,,,,,,,,,
,,1,106,,,,,,,2,4,2,stim/42.jpeg,Instruments,1,stim/objects/Instruments/pipepiano2.png,0.7,3,-0.2,-0.15,left,63,2021-03-29_13h04.10.637,premup-three_ses-01_part-01_label-phase1,3.2.4,MacIntel,60,left,1.137000084,4,0,4,0,1,3,1,0,240,121,1,239,,,,,,,,,,,,,,,,,,
,,0,107,,,,,,,1,1,4,stim/14.jpeg,HouseObjects,2,stim/objects/HouseObjects/rug.png,0.5,1,-0.2,0.15,right,63,2021-03-29_13h04.10.637,premup-three_ses-01_part-01_label-phase1,3.2.4,MacIntel,60,left,0.542000055,4,0,4,0,1,3,1,0,240,31,1,239,,,,,,,,,,,,,,,,,,
,,1,108,,,,,,,3,5,4,stim/54.jpeg,HouseObjects,2,stim/objects/HouseObjects/sponge2.png,0.9,1,-0.2,0.15,right,63,2021-03-29_13h04.10.637,premup-three_ses-01_part-01_label-phase1,3.2.4,MacIntel,60,right,0.849999905,4,0,4,0,1,3,1,0,240,167,1,239,,,,,,,,,,,,,,,,,,
,,1,109,,,,,,,3,6,2,stim/62.jpeg,Instruments,1,stim/objects/Instruments/trombone2.png,0.9,1,-0.2,0.15,left,63,2021-03-29_13h04.10.637,premup-three_ses-01_part-01_label-phase1,3.2.4,MacIntel,60,left,0.771999836,4,0,4,0,1,3,1,0,240,201,1,239,,,,,,,,,,,,,,,,,,
,,0,110,,,,,,,3,5,1,stim/51.jpeg,Instruments,1,stim/objects/Instruments/saxophone2.png,0.1,4,0.2,-0.15,left,63,2021-03-29_13h04.10.637,premup-three_ses-01_part-01_label-phase1,3.2.4,MacIntel,60,right,0.479999781,4,0,4,0,1,3,1,0,240,160,1,239,,,,,,,,,,,,,,,,,,
,,0,111,,,,,,,2,4,2,stim/42.jpeg,HouseObjects,2,stim/objects/HouseObjects/remote2.png,0.3,2,0.2,0.15,right,63,2021-03-29_13h04.10.637,premup-three_ses-01_part-01_label-phase1,3.2.4,MacIntel,60,left,1.149999857,4,0,4,0,1,3,1,0,240,153,1,239,,,,,,,,,,,,,,,,,,
,,0,112,,,,,,,2,3,4,stim/34.jpeg,HouseObjects,2,stim/objects/HouseObjects/thread.png,0.7,4,0.2,-0.15,right,63,2021-03-29_13h04.10.637,premup-three_ses-01_part-01_label-phase1,3.2.4,MacIntel,60,left,1.111999989,4,0,4,0,1,3,1,0,240,95,1,239,,,,,,,,,,,,,,,,,,
,,0,113,,,,,,,2,4,1,stim/41.jpeg,Instruments,1,stim/objects/Instruments/panflute2.png,0.7,3,-0.2,-0.15,left,63,2021-03-29_13h04.10.637,premup-three_ses-01_part-01_label-phase1,3.2.4,MacIntel,60,right,0.572999954,4,0,4,0,1,3,1,0,240,136,1,239,,,,,,,,,,,,,,,,,,
,,0,114,,,,,,,2,3,4,stim/34.jpeg,Instruments,1,stim/objects/Instruments/tuba.png,0.3,3,-0.2,-0.15,left,63,2021-03-29_13h04.10.637,premup-three_ses-01_part-01_label-phase1,3.2.4,MacIntel,60,right,1.404999971,4,0,4,0,1,3,1,0,240,83,1,239,,,,,,,,,,,,,,,,,,
,,1,115,,,,,,,3,6,3,stim/63.jpeg,Instruments,1,stim/objects/Instruments/trumpet2.png,0.9,2,0.2,0.15,left,63,2021-03-29_13h04.10.637,premup-three_ses-01_part-01_label-phase1,3.2.4,MacIntel,60,left,0.587999821,4,0,4,0,1,3,1,0,240,226,1,239,,,,,,,,,,,,,,,,,,
,,1,116,,,,,,,2,3,1,stim/31.jpeg,HouseObjects,2,stim/objects/HouseObjects/spraybottle.png,0.7,3,-0.2,-0.15,right,63,2021-03-29_13h04.10.637,premup-three_ses-01_part-01_label-phase1,3.2.4,MacIntel,60,right,1.161999941,4,0,4,0,1,3,1,0,240,116,1,239,,,,,,,,,,,,,,,,,,
,,1,117,,,,,,,3,5,2,stim/52.jpeg,HouseObjects,2,stim/objects/HouseObjects/saw2.png,0.9,2,0.2,0.15,right,63,2021-03-29_13h04.10.637,premup-three_ses-01_part-01_label-phase1,3.2.4,MacIntel,60,right,1.25999999,4,0,4,0,1,3,1,0,240,185,1,239,,,,,,,,,,,,,,,,,,
,,1,118,,,,,,,2,3,1,stim/31.jpeg,HouseObjects,2,stim/objects/HouseObjects/spraybottle.png,0.7,1,-0.2,0.15,right,63,2021-03-29_13h04.10.637,premup-three_ses-01_part-01_label-phase1,3.2.4,MacIntel,60,right,1.007999897,4,0,4,0,1,3,1,0,240,104,1,239,,,,,,,,,,,,,,,,,,
,,1,119,,,,,,,1,2,3,stim/23.jpeg,Instruments,1,stim/objects/Instruments/tambourine.png,0.5,1,-0.2,0.15,left,63,2021-03-29_13h04.10.637,premup-three_ses-01_part-01_label-phase1,3.2.4,MacIntel,60,left,0.763999939,4,0,4,0,1,3,1,0,240,58,1,239,,,,,,,,,,,,,,,,,,
,,0,120,,,,,,,1,2,2,stim/22.jpeg,HouseObjects,2,stim/objects/HouseObjects/saw.png,0.5,1,-0.2,0.15,right,63,2021-03-29_13h04.10.637,premup-three_ses-01_part-01_label-phase1,3.2.4,MacIntel,60,left,0.590999842,4,0,4,0,1,3,1,0,240,61,1,239,,,,,,,,,,,,,,,,,,
,,1,121,,,,,,,3,6,2,stim/62.jpeg,Instruments,1,stim/objects/Instruments/trombone2.png,0.9,1,-0.2,0.15,left,63,2021-03-29_13h04.10.637,premup-three_ses-01_part-01_label-phase1,3.2.4,MacIntel,60,left,1.272000074,4,0,4,0,1,3,1,0,240,221,1,239,,,,,,,,,,,,,,,,,,
,,1,122,,,,,,,3,5,4,stim/54.jpeg,HouseObjects,2,stim/objects/HouseObjects/sponge2.png,0.9,4,0.2,-0.15,right,63,2021-03-29_13h04.10.637,premup-three_ses-01_part-01_label-phase1,3.2.4,MacIntel,60,right,1.063999891,4,0,4,0,1,3,1,0,240,199,1,239,,,,,,,,,,,,,,,,,,
,,1,123,,,,,,,3,6,3,stim/63.jpeg,Instruments,1,stim/objects/Instruments/trumpet2.png,0.9,1,-0.2,0.15,left,63,2021-03-29_13h04.10.637,premup-three_ses-01_part-01_label-phase1,3.2.4,MacIntel,60,left,0.957999945,4,0,4,0,1,3,1,0,240,222,1,239,,,,,,,,,,,,,,,,,,
,,0,124,,,,,,,2,4,4,stim/44.jpeg,HouseObjects,2,stim/objects/HouseObjects/rug2.png,0.3,1,-0.2,0.15,right,63,2021-03-29_13h04.10.637,premup-three_ses-01_part-01_label-phase1,3.2.4,MacIntel,60,left,0.552000046,4,0,4,0,1,3,1,0,240,159,1,239,,,,,,,,,,,,,,,,,,
,,0,125,,,,,,,2,4,4,stim/44.jpeg,HouseObjects,2,stim/objects/HouseObjects/rug2.png,0.3,2,0.2,0.15,right,63,2021-03-29_13h04.10.637,premup-three_ses-01_part-01_label-phase1,3.2.4,MacIntel,60,left,1.561999798,4,0,4,0,1,3,1,0,240,155,1,239,,,,,,,,,,,,,,,,,,
,,1,126,,,,,,,1,1,4,stim/14.jpeg,Instruments,1,stim/objects/Instruments/record_player.png,0.5,1,-0.2,0.15,left,63,2021-03-29_13h04.10.637,premup-three_ses-01_part-01_label-phase1,3.2.4,MacIntel,60,left,0.904999971,4,0,4,0,1,3,1,0,240,19,1,239,,,,,,,,,,,,,,,,,,
,,0,127,,,,,,,2,3,2,stim/32.jpeg,HouseObjects,2,stim/objects/HouseObjects/teapot.png,0.7,1,-0.2,0.15,right,63,2021-03-29_13h04.10.637,premup-three_ses-01_part-01_label-phase1,3.2.4,MacIntel,60,left,0.568000078,4,0,4,0,1,3,1,0,240,117,1,239,,,,,,,,,,,,,,,,,,
,,1,128,,,,,,,2,3,1,stim/31.jpeg,HouseObjects,2,stim/objects/HouseObjects/spraybottle.png,0.7,2,0.2,0.15,right,63,2021-03-29_13h04.10.637,premup-three_ses-01_part-01_label-phase1,3.2.4,MacIntel,60,right,0.792999983,4,0,4,0,1,3,1,0,240,112,1,239,,,,,,,,,,,,,,,,,,
,,1,129,,,,,,,3,6,1,stim/61.jpeg,Instruments,1,stim/objects/Instruments/triangle2.png,0.9,3,-0.2,-0.15,left,63,2021-03-29_13h04.10.637,premup-three_ses-01_part-01_label-phase1,3.2.4,MacIntel,60,left,0.741999865,4,0,4,0,1,3,1,0,240,200,1,239,,,,,,,,,,,,,,,,,,
