id_acc,key_resp_id.keys,key_resp_id.rt,key_resp_conf.keys,key_resp_conf.rt,assoc_acc,key_resp_assoc.keys,key_resp_assoc.rt,loc_acc,key_resp_loc.keys,key_resp_loc.rt,task_innerloop.thisRepN,task_innerloop.thisTrialN,task_innerloop.thisN,task_innerloop.thisIndex,task_innerloop.ran,task_innerloop.order,context_type,object_cat,PE_level,OvsN,obj_file,scn_file,corr_scn_cat,assoc_file,corr_scn_inst,corr_loc,participant,date,expName,psychopyVersion,OS,frameRate
1,left,1.156999826,,,0,,,0,,,1,0,200,168,1,199,0,1,0,2,stim/objects/Instruments/banjo2.png,,0,stim/0.png,0,0,63,2021-03-31_13h06.35.702,premup-three_ses-02_part-03_label-phase3,3.2.4,MacIntel,60
1,left,1.592000008,,,0,,,0,,,1,0,200,129,1,199,0,1,0,2,stim/objects/Instruments/grandpiano.png,,0,stim/0.png,0,0,63,2021-03-31_13h06.35.702,premup-three_ses-02_part-03_label-phase3,3.2.4,MacIntel,60
1,right,0.917999983,,,0,,,0,,,1,0,200,156,1,199,0,2,0,2,stim/objects/HouseObjects/key.png,,0,stim/0.png,0,0,63,2021-03-31_13h06.35.702,premup-three_ses-02_part-03_label-phase3,3.2.4,MacIntel,60
1,left,0.899999857,,,0,,,0,,,1,0,200,173,1,199,0,2,0,2,stim/objects/HouseObjects/vacuumcleaner.png,,0,stim/0.png,0,0,63,2021-03-31_13h06.35.702,premup-three_ses-02_part-03_label-phase3,3.2.4,MacIntel,60
1,left,0.932999849,4,2.684000015,0,2,7.806999922,0,2,2.82400012,1,0,200,79,1,199,3,2,0.9,1,stim/objects/HouseObjects/iron4.png,stim/54.jpeg,5,stim/5.png,4,2,63,2021-03-31_13h06.35.702,premup-three_ses-02_part-03_label-phase3,3.2.4,MacIntel,60
1,left,1.278000116,,,0,,,0,,,1,0,200,121,1,199,0,1,0,2,stim/objects/Instruments/doublebass.png,,0,stim/0.png,0,0,63,2021-03-31_13h06.35.702,premup-three_ses-02_part-03_label-phase3,3.2.4,MacIntel,60
1,right,1.744999886,,,0,,,0,,,1,0,200,174,1,199,0,2,0,2,stim/objects/HouseObjects/wateringcan.png,,0,stim/0.png,0,0,63,2021-03-31_13h06.35.702,premup-three_ses-02_part-03_label-phase3,3.2.4,MacIntel,60
1,left,0.667999983,,,0,,,0,,,1,0,200,186,1,199,0,1,0,2,stim/objects/Instruments/doublebass2.png,,0,stim/0.png,0,0,63,2021-03-31_13h06.35.702,premup-three_ses-02_part-03_label-phase3,3.2.4,MacIntel,60
1,right,2.046000004,2,3.995000124,0,3,3.691999912,0,1,3.832999945,1,0,200,50,1,199,2,2,0.3,1,stim/objects/HouseObjects/blender4.png,stim/42.jpeg,4,stim/4.png,2,2,63,2021-03-31_13h06.35.702,premup-three_ses-02_part-03_label-phase3,3.2.4,MacIntel,60
1,right,2,2,1.84800005,0,1,3.453000069,0,1,2.211999893,1,0,200,58,1,199,2,2,0.3,1,stim/objects/HouseObjects/cushion4.png,stim/42.jpeg,4,stim/4.png,2,2,63,2021-03-31_13h06.35.702,premup-three_ses-02_part-03_label-phase3,3.2.4,MacIntel,60
1,right,1.255999804,,,0,,,0,,,1,0,200,167,1,199,0,1,0,2,stim/objects/Instruments/balalaika2.png,,0,stim/0.png,0,0,63,2021-03-31_13h06.35.702,premup-three_ses-02_part-03_label-phase3,3.2.4,MacIntel,60
1,left,0.92599988,3,1.888999701,0,4,8.167999983,0,2,3.105999947,1,0,200,2,1,199,1,1,0.5,1,stim/objects/Instruments/harp3.png,stim/11.jpeg,1,stim/1.png,1,2,63,2021-03-31_13h06.35.702,premup-three_ses-02_part-03_label-phase3,3.2.4,MacIntel,60
1,right,1.135999918,,,0,,,0,,,1,0,200,169,1,199,0,1,0,2,stim/objects/Instruments/bassdrum2.png,,0,stim/0.png,0,0,63,2021-03-31_13h06.35.702,premup-three_ses-02_part-03_label-phase3,3.2.4,MacIntel,60
1,right,1.114000082,,,0,,,0,,,1,0,200,154,1,199,0,2,0,2,stim/objects/HouseObjects/iron.png,,0,stim/0.png,0,0,63,2021-03-31_13h06.35.702,premup-three_ses-02_part-03_label-phase3,3.2.4,MacIntel,60
1,right,0.917000055,,,0,,,0,,,1,0,200,180,1,199,0,1,0,2,stim/objects/Instruments/bassguitar2.png,,0,stim/0.png,0,0,63,2021-03-31_13h06.35.702,premup-three_ses-02_part-03_label-phase3,3.2.4,MacIntel,60
1,left,2.065999985,,,0,,,0,,,1,0,200,183,1,199,0,1,0,2,stim/objects/Instruments/clarinet2.png,,0,stim/0.png,0,0,63,2021-03-31_13h06.35.702,premup-three_ses-02_part-03_label-phase3,3.2.4,MacIntel,60
1,left,1.78399992,2,1.651000023,0,4,3.657000065,0,1,1.954999924,1,0,200,53,1,199,2,2,0.3,1,stim/objects/HouseObjects/bucket4.png,stim/41.jpeg,4,stim/4.png,1,1,63,2021-03-31_13h06.35.702,premup-three_ses-02_part-03_label-phase3,3.2.4,MacIntel,60
1,left,1.621000051,3,2.296000004,0,3,3.920000076,0,4,2.478999853,1,0,200,41,1,199,2,1,0.7,1,stim/objects/Instruments/cello4.png,stim/41.jpeg,4,stim/4.png,1,1,63,2021-03-31_13h06.35.702,premup-three_ses-02_part-03_label-phase3,3.2.4,MacIntel,60
1,left,0.926999807,,,0,,,0,,,1,0,200,117,1,199,0,2,0,2,stim/objects/HouseObjects/broom.png,,0,stim/0.png,0,0,63,2021-03-31_13h06.35.702,premup-three_ses-02_part-03_label-phase3,3.2.4,MacIntel,60
1,right,0.916999817,3,1.941999912,0,1,2.423999786,0,3,2.672999859,1,0,200,6,1,199,1,1,0.5,1,stim/objects/HouseObjects/hairdryer3.png,stim/13.jpeg,1,stim/1.png,3,1,63,2021-03-31_13h06.35.702,premup-three_ses-02_part-03_label-phase3,3.2.4,MacIntel,60
1,left,1.160999775,,,0,,,0,,,1,0,200,187,1,199,0,1,0,2,stim/objects/Instruments/drums2.png,,0,stim/0.png,0,0,63,2021-03-31_13h06.35.702,premup-three_ses-02_part-03_label-phase3,3.2.4,MacIntel,60
1,right,0.933000088,2,3.592000008,0,1,2.894000053,0,4,1.823999882,1,0,200,97,1,199,3,2,0.1,1,stim/objects/HouseObjects/towel4.png,stim/62.jpeg,6,stim/6.png,2,2,63,2021-03-31_13h06.35.702,premup-three_ses-02_part-03_label-phase3,3.2.4,MacIntel,60
1,left,1.138999939,4,2.664999962,0,4,3.462999821,0,2,2.303999901,1,0,200,70,1,199,3,2,0.9,1,stim/objects/HouseObjects/doormat4.png,stim/53.jpeg,5,stim/5.png,3,1,63,2021-03-31_13h06.35.702,premup-three_ses-02_part-03_label-phase3,3.2.4,MacIntel,60
1,left,2.7099998,,,0,,,0,,,1,0,200,152,1,199,0,2,0,2,stim/objects/HouseObjects/handbrush.png,,0,stim/0.png,0,0,63,2021-03-31_13h06.35.702,premup-three_ses-02_part-03_label-phase3,3.2.4,MacIntel,60
1,right,1.029999971,3,2.517999887,0,4,2.48300004,0,3,2.372999907,1,0,200,9,1,199,1,1,0.5,1,stim/objects/HouseObjects/iron3.png,stim/12.jpeg,1,stim/1.png,2,2,63,2021-03-31_13h06.35.702,premup-three_ses-02_part-03_label-phase3,3.2.4,MacIntel,60
1,right,0.950000048,3,2.318000078,0,3,3.977999926,0,3,2.290999889,1,0,200,95,1,199,3,2,0.1,1,stim/objects/HouseObjects/pan4.png,stim/64.jpeg,6,stim/6.png,4,2,63,2021-03-31_13h06.35.702,premup-three_ses-02_part-03_label-phase3,3.2.4,MacIntel,60
1,left,1.052999973,,,0,,,0,,,1,0,200,175,1,199,0,2,0,2,stim/objects/HouseObjects/ashtray2.png,,0,stim/0.png,0,0,63,2021-03-31_13h06.35.702,premup-three_ses-02_part-03_label-phase3,3.2.4,MacIntel,60
1,left,1.118999958,2,1.565999985,0,1,5.166999817,0,4,2.823999882,1,0,200,40,1,199,2,1,0.7,1,stim/objects/Instruments/bassguitar4.png,stim/44.jpeg,4,stim/4.png,4,1,63,2021-03-31_13h06.35.702,premup-three_ses-02_part-03_label-phase3,3.2.4,MacIntel,60
1,left,1.017999887,2,2.681999922,0,2,4.618999958,0,1,2.36199975,1,0,200,47,1,199,2,1,0.7,1,stim/objects/Instruments/drums4.png,stim/43.jpeg,4,stim/4.png,3,4,63,2021-03-31_13h06.35.702,premup-three_ses-02_part-03_label-phase3,3.2.4,MacIntel,60
1,left,1.615999937,2,2.24399972,0,4,4.820999861,0,1,2.044999838,1,0,200,94,1,199,3,2,0.1,1,stim/objects/HouseObjects/match4.png,stim/63.jpeg,6,stim/6.png,3,2,63,2021-03-31_13h06.35.702,premup-three_ses-02_part-03_label-phase3,3.2.4,MacIntel,60
1,left,1.680000067,2,0.513999939,0,3,4.101000071,0,1,1.139999866,1,0,200,78,1,199,3,2,0.9,1,stim/objects/HouseObjects/handvacuum4.png,stim/53.jpeg,5,stim/5.png,3,3,63,2021-03-31_13h06.35.702,premup-three_ses-02_part-03_label-phase3,3.2.4,MacIntel,60
1,left,0.977999926,2,2.174999952,0,4,2.657999992,0,1,1.226999998,1,0,200,86,1,199,3,1,0.9,1,stim/objects/Instruments/oboe4.png,stim/63.jpeg,6,stim/6.png,3,1,63,2021-03-31_13h06.35.702,premup-three_ses-02_part-03_label-phase3,3.2.4,MacIntel,60
1,left,1.919999838,,,0,,,0,,,1,0,200,141,1,199,0,1,0,2,stim/objects/Instruments/harmonica.png,,0,stim/0.png,0,0,63,2021-03-31_13h06.35.702,premup-three_ses-02_part-03_label-phase3,3.2.4,MacIntel,60
1,right,1.068000078,,,0,,,0,,,1,0,200,172,1,199,0,2,0,2,stim/objects/HouseObjects/towel.png,,0,stim/0.png,0,0,63,2021-03-31_13h06.35.702,premup-three_ses-02_part-03_label-phase3,3.2.4,MacIntel,60
1,right,0.852999926,,,0,,,0,,,1,0,200,199,1,199,0,2,0,2,stim/objects/HouseObjects/dishsoap2.png,,0,stim/0.png,0,0,63,2021-03-31_13h06.35.702,premup-three_ses-02_part-03_label-phase3,3.2.4,MacIntel,60
1,right,0.984999895,3,4.88499999,0,2,2.367999792,0,1,1.850999832,1,0,200,56,1,199,2,2,0.3,1,stim/objects/HouseObjects/clothespin4.png,stim/44.jpeg,4,stim/4.png,4,4,63,2021-03-31_13h06.35.702,premup-three_ses-02_part-03_label-phase3,3.2.4,MacIntel,60
1,left,0.975999832,4,1.922999859,0,3,4.163999796,0,2,2.02699995,1,0,200,89,1,199,3,1,0.9,1,stim/objects/Instruments/xylophone4.png,stim/62.jpeg,6,stim/6.png,2,4,63,2021-03-31_13h06.35.702,premup-three_ses-02_part-03_label-phase3,3.2.4,MacIntel,60
1,left,2.969000101,2,1.330999851,0,3,2.599999905,0,2,2.318000078,1,0,200,45,1,199,2,1,0.7,1,stim/objects/Instruments/cymbal4.png,stim/41.jpeg,4,stim/4.png,1,2,63,2021-03-31_13h06.35.702,premup-three_ses-02_part-03_label-phase3,3.2.4,MacIntel,60
1,left,1.24000001,2,0.697000027,0,4,4.184999943,0,3,1.725999832,1,0,200,39,1,199,2,2,0.7,1,stim/objects/HouseObjects/bleachbottle4.png,stim/33.jpeg,3,stim/3.png,3,2,63,2021-03-31_13h06.35.702,premup-three_ses-02_part-03_label-phase3,3.2.4,MacIntel,60
1,left,1.882999897,4,2.984999895,0,2,3.239999771,0,4,1.805000067,1,0,200,17,1,199,1,2,0.5,1,stim/objects/HouseObjects/knife3.png,stim/22.jpeg,2,stim/2.png,2,2,63,2021-03-31_13h06.35.702,premup-three_ses-02_part-03_label-phase3,3.2.4,MacIntel,60
1,right,1.378000021,,,0,,,0,,,1,0,200,179,1,199,0,2,0,2,stim/objects/HouseObjects/bleachbottle2.png,,0,stim/0.png,0,0,63,2021-03-31_13h06.35.702,premup-three_ses-02_part-03_label-phase3,3.2.4,MacIntel,60
1,left,1.154999971,3,2.328999996,0,4,3.177000046,0,2,1.697000027,1,0,200,37,1,199,2,2,0.7,1,stim/objects/HouseObjects/barbecuelighter4.png,stim/31.jpeg,3,stim/3.png,1,1,63,2021-03-31_13h06.35.702,premup-three_ses-02_part-03_label-phase3,3.2.4,MacIntel,60
1,right,2.420000076,2,2.221999884,0,4,2.737999916,0,3,1.612999916,1,0,200,36,1,199,2,2,0.7,1,stim/objects/HouseObjects/ballofstring4.png,stim/34.jpeg,3,stim/3.png,4,4,63,2021-03-31_13h06.35.702,premup-three_ses-02_part-03_label-phase3,3.2.4,MacIntel,60
1,right,1.195999861,,,0,,,0,,,1,0,200,178,1,199,0,2,0,2,stim/objects/HouseObjects/basket2.png,,0,stim/0.png,0,0,63,2021-03-31_13h06.35.702,premup-three_ses-02_part-03_label-phase3,3.2.4,MacIntel,60
1,right,1.068000078,,,0,,,0,,,1,0,200,108,1,199,0,1,0,2,stim/objects/Instruments/clarinet.png,,0,stim/0.png,0,0,63,2021-03-31_13h06.35.702,premup-three_ses-02_part-03_label-phase3,3.2.4,MacIntel,60
1,right,1.079999924,,,0,,,0,,,1,0,200,190,1,199,0,2,0,2,stim/objects/HouseObjects/blender2.png,,0,stim/0.png,0,0,63,2021-03-31_13h06.35.702,premup-three_ses-02_part-03_label-phase3,3.2.4,MacIntel,60
1,right,0.871000051,,,0,,,0,,,1,0,200,157,1,199,0,2,0,2,stim/objects/HouseObjects/knife.png,,0,stim/0.png,0,0,63,2021-03-31_13h06.35.702,premup-three_ses-02_part-03_label-phase3,3.2.4,MacIntel,60
1,left,2.667000055,,,0,,,0,,,1,0,200,153,1,199,0,2,0,2,stim/objects/HouseObjects/handvacuum.png,,0,stim/0.png,0,0,63,2021-03-31_13h06.35.702,premup-three_ses-02_part-03_label-phase3,3.2.4,MacIntel,60
1,right,0.979999781,,,0,,,0,,,1,0,200,176,1,199,0,2,0,2,stim/objects/HouseObjects/ballofstring2.png,,0,stim/0.png,0,0,63,2021-03-31_13h06.35.702,premup-three_ses-02_part-03_label-phase3,3.2.4,MacIntel,60
1,left,0.91899991,3,1.849999905,0,2,3.928999901,0,3,1.713999748,1,0,200,13,1,199,1,2,0.5,1,stim/objects/Instruments/metronome3.png,stim/24.jpeg,2,stim/2.png,4,2,63,2021-03-31_13h06.35.702,premup-three_ses-02_part-03_label-phase3,3.2.4,MacIntel,60
1,right,3.621000051,,,0,,,0,,,1,0,200,197,1,199,0,2,0,2,stim/objects/HouseObjects/coffee2.png,,0,stim/0.png,0,0,63,2021-03-31_13h06.35.702,premup-three_ses-02_part-03_label-phase3,3.2.4,MacIntel,60
1,left,2.516999722,2,3.013000011,0,1,3.335999966,0,2,1.485999823,1,0,200,3,1,199,1,1,0.5,1,stim/objects/Instruments/hihat3.png,stim/12.jpeg,1,stim/1.png,2,3,63,2021-03-31_13h06.35.702,premup-three_ses-02_part-03_label-phase3,3.2.4,MacIntel,60
1,right,1.628999949,,,0,,,0,,,1,0,200,192,1,199,0,2,0,2,stim/objects/HouseObjects/broom2.png,,0,stim/0.png,0,0,63,2021-03-31_13h06.35.702,premup-three_ses-02_part-03_label-phase3,3.2.4,MacIntel,60
1,left,1.047999859,3,1.150000095,0,4,2.271999836,0,4,1.881999969,1,0,200,88,1,199,3,1,0.9,1,stim/objects/Instruments/vuvuzela4.png,stim/61.jpeg,6,stim/6.png,1,4,63,2021-03-31_13h06.35.702,premup-three_ses-02_part-03_label-phase3,3.2.4,MacIntel,60
1,left,0.992999792,3,3.755999804,0,3,2.253000021,0,3,1.822999954,1,0,200,25,1,199,2,1,0.3,1,stim/objects/Instruments/accordion4.png,stim/32.jpeg,3,stim/3.png,2,4,63,2021-03-31_13h06.35.702,premup-three_ses-02_part-03_label-phase3,3.2.4,MacIntel,60
1,right,2.352999926,,,0,,,0,,,1,0,200,185,1,199,0,1,0,2,stim/objects/Instruments/cymbal2.png,,0,stim/0.png,0,0,63,2021-03-31_13h06.35.702,premup-three_ses-02_part-03_label-phase3,3.2.4,MacIntel,60
1,left,2.269999743,,,0,,,0,,,1,0,200,103,1,199,0,1,0,2,stim/objects/Instruments/banjo.png,,0,stim/0.png,0,0,63,2021-03-31_13h06.35.702,premup-three_ses-02_part-03_label-phase3,3.2.4,MacIntel,60
1,right,1.554999828,,,0,,,0,,,1,0,200,101,1,199,0,1,0,2,stim/objects/Instruments/acousticguitar.png,,0,stim/0.png,0,0,63,2021-03-31_13h06.35.702,premup-three_ses-02_part-03_label-phase3,3.2.4,MacIntel,60
1,right,1.242999792,2,1.145999908,0,1,1.70299983,0,3,1.201999903,1,0,200,0,1,199,1,1,0.5,1,stim/objects/Instruments/guitarcase3.png,stim/13.jpeg,1,stim/1.png,3,1,63,2021-03-31_13h06.35.702,premup-three_ses-02_part-03_label-phase3,3.2.4,MacIntel,60
1,left,1.863999844,4,1.780999899,0,1,5.538999796,0,4,3.808999777,1,0,200,73,1,199,3,2,0.9,1,stim/objects/HouseObjects/garbagebin4.png,stim/52.jpeg,5,stim/5.png,2,1,63,2021-03-31_13h06.35.702,premup-three_ses-02_part-03_label-phase3,3.2.4,MacIntel,60
1,right,1.470999956,,,0,,,0,,,1,0,200,148,1,199,0,1,0,2,stim/objects/Instruments/metronome.png,,0,stim/0.png,0,0,63,2021-03-31_13h06.35.702,premup-three_ses-02_part-03_label-phase3,3.2.4,MacIntel,60
1,right,0.818999767,2,4.659999847,0,3,4.617999792,0,1,1.934999943,1,0,200,96,1,199,3,2,0.1,1,stim/objects/HouseObjects/pitcher4.png,stim/61.jpeg,6,stim/6.png,1,4,63,2021-03-31_13h06.35.702,premup-three_ses-02_part-03_label-phase3,3.2.4,MacIntel,60
1,right,1.578999758,,,0,,,0,,,1,0,200,163,1,199,0,1,0,2,stim/objects/Instruments/vuvuzela.png,,0,stim/0.png,0,0,63,2021-03-31_13h06.35.702,premup-three_ses-02_part-03_label-phase3,3.2.4,MacIntel,60
1,left,0.986999989,2,2.553999901,0,1,1.383999825,0,2,1.84800005,1,0,200,80,1,199,3,1,0.9,1,stim/objects/Instruments/laud4.png,stim/61.jpeg,6,stim/6.png,1,2,63,2021-03-31_13h06.35.702,premup-three_ses-02_part-03_label-phase3,3.2.4,MacIntel,60
1,right,1.056999922,2,0.947999954,0,3,3.154000044,0,2,1.963999987,1,0,200,31,1,199,2,2,0.7,1,stim/objects/HouseObjects/pitcher3.png,stim/33.jpeg,3,stim/3.png,3,2,63,2021-03-31_13h06.35.702,premup-three_ses-02_part-03_label-phase3,3.2.4,MacIntel,60
1,right,1.011999846,2,0.832999945,0,4,2.70600009,0,3,1.909999847,1,0,200,98,1,199,3,2,0.1,1,stim/objects/HouseObjects/vacuumcleaner4.png,stim/63.jpeg,6,stim/6.png,3,4,63,2021-03-31_13h06.35.702,premup-three_ses-02_part-03_label-phase3,3.2.4,MacIntel,60
1,right,1.619999886,,,0,,,0,,,1,0,200,138,1,199,0,2,0,2,stim/objects/HouseObjects/garbagebin.png,,0,stim/0.png,0,0,63,2021-03-31_13h06.35.702,premup-three_ses-02_part-03_label-phase3,3.2.4,MacIntel,60
1,right,0.684999943,,,0,,,0,,,1,0,200,171,1,199,0,2,0,2,stim/objects/HouseObjects/pitcher.png,,0,stim/0.png,0,0,63,2021-03-31_13h06.35.702,premup-three_ses-02_part-03_label-phase3,3.2.4,MacIntel,60
1,right,0.773999929,,,0,,,0,,,1,0,200,196,1,199,0,2,0,2,stim/objects/HouseObjects/clothespin2.png,,0,stim/0.png,0,0,63,2021-03-31_13h06.35.702,premup-three_ses-02_part-03_label-phase3,3.2.4,MacIntel,60
1,right,0.717000008,,,0,,,0,,,1,0,200,110,1,199,0,2,0,2,stim/objects/HouseObjects/ashtray.png,,0,stim/0.png,0,0,63,2021-03-31_13h06.35.702,premup-three_ses-02_part-03_label-phase3,3.2.4,MacIntel,60
1,right,1.001999855,,,0,,,0,,,1,0,200,195,1,199,0,2,0,2,stim/objects/HouseObjects/clothesdryingrack2.png,,0,stim/0.png,0,0,63,2021-03-31_13h06.35.702,premup-three_ses-02_part-03_label-phase3,3.2.4,MacIntel,60
1,right,0.967999935,,,0,,,0,,,1,0,200,145,1,199,0,1,0,2,stim/objects/Instruments/laud.png,,0,stim/0.png,0,0,63,2021-03-31_13h06.35.702,premup-three_ses-02_part-03_label-phase3,3.2.4,MacIntel,60
1,left,2.818999767,3,2.884000063,0,3,2.450999975,0,2,1.773999929,1,0,200,55,1,199,2,2,0.3,1,stim/objects/HouseObjects/clothesdryingrack4.png,stim/43.jpeg,4,stim/4.png,3,2,63,2021-03-31_13h06.35.702,premup-three_ses-02_part-03_label-phase3,3.2.4,MacIntel,60
1,left,1.518999815,,,0,,,0,,,1,0,200,193,1,199,0,2,0,2,stim/objects/HouseObjects/bucket2.png,,0,stim/0.png,0,0,63,2021-03-31_13h06.35.702,premup-three_ses-02_part-03_label-phase3,3.2.4,MacIntel,60
1,right,0.986999989,,,0,,,0,,,1,0,200,115,1,199,0,2,0,2,stim/objects/HouseObjects/blender.png,,0,stim/0.png,0,0,63,2021-03-31_13h06.35.702,premup-three_ses-02_part-03_label-phase3,3.2.4,MacIntel,60
1,right,0.819999933,,,0,,,0,,,1,0,200,131,1,199,0,2,0,2,stim/objects/HouseObjects/clothespin.png,,0,stim/0.png,0,0,63,2021-03-31_13h06.35.702,premup-three_ses-02_part-03_label-phase3,3.2.4,MacIntel,60
1,right,1.029000044,2,0.981999874,0,1,1.703999996,0,2,1.882999897,1,0,200,27,1,199,2,1,0.3,1,stim/objects/Instruments/balalaika4.png,stim/34.jpeg,3,stim/3.png,4,2,63,2021-03-31_13h06.35.702,premup-three_ses-02_part-03_label-phase3,3.2.4,MacIntel,60
1,right,0.92599988,3,1.481999874,0,2,4.95299983,0,3,1.417000055,1,0,200,77,1,199,3,2,0.9,1,stim/objects/HouseObjects/handbrush4.png,stim/52.jpeg,5,stim/5.png,2,1,63,2021-03-31_13h06.35.702,premup-three_ses-02_part-03_label-phase3,3.2.4,MacIntel,60
1,right,0.836999893,,,0,,,0,,,1,0,200,191,1,199,0,2,0,2,stim/objects/HouseObjects/bottle2.png,,0,stim/0.png,0,0,63,2021-03-31_13h06.35.702,premup-three_ses-02_part-03_label-phase3,3.2.4,MacIntel,60
1,left,1.353999853,3,1.818999767,0,3,3.38499999,0,3,1.370000124,1,0,200,43,1,199,2,1,0.7,1,stim/objects/Instruments/clarinet4.png,stim/43.jpeg,4,stim/4.png,3,3,63,2021-03-31_13h06.35.702,premup-three_ses-02_part-03_label-phase3,3.2.4,MacIntel,60
1,right,0.776999712,,,0,,,0,,,1,0,200,189,1,199,0,1,0,2,stim/objects/Instruments/electricguitar2.png,,0,stim/0.png,0,0,63,2021-03-31_13h06.35.702,premup-three_ses-02_part-03_label-phase3,3.2.4,MacIntel,60
1,right,0.620000124,3,2.485999823,0,3,1.794999838,0,2,1.200999975,1,0,200,38,1,199,2,2,0.7,1,stim/objects/HouseObjects/basket4.png,stim/32.jpeg,3,stim/3.png,2,2,63,2021-03-31_13h06.35.702,premup-three_ses-02_part-03_label-phase3,3.2.4,MacIntel,60
1,right,1.116999865,3,1.745999813,0,1,2.157999992,0,1,2.270999908,1,0,200,19,1,199,1,2,0.5,1,stim/objects/HouseObjects/match3.png,stim/24.jpeg,2,stim/2.png,4,3,63,2021-03-31_13h06.35.702,premup-three_ses-02_part-03_label-phase3,3.2.4,MacIntel,60
1,left,2.329999924,4,1.683000088,0,4,2.388999939,0,1,2.30099988,1,0,200,81,1,199,3,1,0.9,1,stim/objects/Instruments/maraca4.png,stim/62.jpeg,6,stim/6.png,2,4,63,2021-03-31_13h06.35.702,premup-three_ses-02_part-03_label-phase3,3.2.4,MacIntel,60
1,left,1.34499979,,,0,,,0,,,1,0,200,106,1,199,0,1,0,2,stim/objects/Instruments/cello.png,,0,stim/0.png,0,0,63,2021-03-31_13h06.35.702,premup-three_ses-02_part-03_label-phase3,3.2.4,MacIntel,60
1,right,0.733999968,,,0,,,0,,,1,0,200,124,1,199,0,1,0,2,stim/objects/Instruments/electricguitar.png,,0,stim/0.png,0,0,63,2021-03-31_13h06.35.702,premup-three_ses-02_part-03_label-phase3,3.2.4,MacIntel,60
1,right,0.687999964,3,2.802999973,0,3,0.305999994,0,2,2.532999992,1,0,200,7,1,199,1,1,0.5,1,stim/objects/HouseObjects/handbrush3.png,stim/14.jpeg,1,stim/1.png,4,2,63,2021-03-31_13h06.35.702,premup-three_ses-02_part-03_label-phase3,3.2.4,MacIntel,60
1,left,1.578999758,2,0.781999826,0,2,2.302000046,0,3,1.470999956,1,0,200,12,1,199,1,2,0.5,1,stim/objects/Instruments/marimba3.png,stim/23.jpeg,2,stim/2.png,3,2,63,2021-03-31_13h06.35.702,premup-three_ses-02_part-03_label-phase3,3.2.4,MacIntel,60
1,right,0.85199976,,,0,,,0,,,1,0,200,144,1,199,0,1,0,2,stim/objects/Instruments/keyboard.png,,0,stim/0.png,0,0,63,2021-03-31_13h06.35.702,premup-three_ses-02_part-03_label-phase3,3.2.4,MacIntel,60
1,left,1.518999815,3,1.250999928,0,2,1.851999998,0,2,1.135999918,1,0,200,35,1,199,2,2,0.7,1,stim/objects/HouseObjects/ashtray4.png,stim/33.jpeg,3,stim/3.png,3,1,63,2021-03-31_13h06.35.702,premup-three_ses-02_part-03_label-phase3,3.2.4,MacIntel,60
1,right,0.792999744,,,0,,,0,,,1,0,200,147,1,199,0,1,0,2,stim/objects/Instruments/marimba.png,,0,stim/0.png,0,0,63,2021-03-31_13h06.35.702,premup-three_ses-02_part-03_label-phase3,3.2.4,MacIntel,60
1,right,0.753000021,3,2.348999977,0,2,3.177999973,0,1,1.778999805,1,0,200,18,1,199,1,2,0.5,1,stim/objects/HouseObjects/lintroller3.png,stim/23.jpeg,2,stim/2.png,3,3,63,2021-03-31_13h06.35.702,premup-three_ses-02_part-03_label-phase3,3.2.4,MacIntel,60
1,left,1.911000013,2,1.555999994,0,3,1.382999897,0,2,2.063999891,1,0,200,10,1,199,1,2,0.5,1,stim/objects/Instruments/laud3.png,stim/21.jpeg,2,stim/2.png,1,1,63,2021-03-31_13h06.35.702,premup-three_ses-02_part-03_label-phase3,3.2.4,MacIntel,60
1,left,0.944000006,,,0,,,0,,,1,0,200,127,1,199,0,1,0,2,stim/objects/Instruments/frenchhorn.png,,0,stim/0.png,0,0,63,2021-03-31_13h06.35.702,premup-three_ses-02_part-03_label-phase3,3.2.4,MacIntel,60
1,right,0.948999882,,,0,,,0,,,1,0,200,142,1,199,0,1,0,2,stim/objects/Instruments/harp.png,,0,stim/0.png,0,0,63,2021-03-31_13h06.35.702,premup-three_ses-02_part-03_label-phase3,3.2.4,MacIntel,60
1,right,0.65899992,2,1.143999815,0,3,1.476999998,0,2,1.38499999,1,0,200,5,1,199,1,1,0.5,1,stim/objects/HouseObjects/glassmop3.png,stim/12.jpeg,1,stim/1.png,2,4,63,2021-03-31_13h06.35.702,premup-three_ses-02_part-03_label-phase3,3.2.4,MacIntel,60
1,left,1.332999945,,,0,,,0,,,1,0,200,118,1,199,0,2,0,2,stim/objects/HouseObjects/bucket.png,,0,stim/0.png,0,0,63,2021-03-31_13h06.35.702,premup-three_ses-02_part-03_label-phase3,3.2.4,MacIntel,60
1,right,0.81799984,3,5.239000082,0,3,5.372999907,0,3,1.570999861,1,0,200,69,1,199,3,1,0.1,1,stim/objects/Instruments/keyboard4.png,stim/52.jpeg,5,stim/5.png,2,4,63,2021-03-31_13h06.35.702,premup-three_ses-02_part-03_label-phase3,3.2.4,MacIntel,60
1,left,1.11199975,4,1.161999941,0,4,3.38499999,0,2,3.652999878,1,0,200,23,1,199,2,1,0.3,1,stim/objects/Instruments/vuvuzela3.png,stim/34.jpeg,3,stim/3.png,4,4,63,2021-03-31_13h06.35.702,premup-three_ses-02_part-03_label-phase3,3.2.4,MacIntel,60
1,left,0.994999886,2,1.150999784,0,2,3.286999941,0,4,5.203999996,1,0,200,46,1,199,2,1,0.7,1,stim/objects/Instruments/doublebass4.png,stim/42.jpeg,4,stim/4.png,2,4,63,2021-03-31_13h06.35.702,premup-three_ses-02_part-03_label-phase3,3.2.4,MacIntel,60
1,left,1.869999886,3,1.416000128,0,2,2.285000086,0,1,1.752999783,1,0,200,92,1,199,3,2,0.1,1,stim/objects/HouseObjects/knife4.png,stim/61.jpeg,6,stim/6.png,1,3,63,2021-03-31_13h06.35.702,premup-three_ses-02_part-03_label-phase3,3.2.4,MacIntel,60
1,left,0.921000004,,,0,,,0,,,1,0,200,162,1,199,0,1,0,2,stim/objects/Instruments/violin.png,,0,stim/0.png,0,0,63,2021-03-31_13h06.35.702,premup-three_ses-02_part-03_label-phase3,3.2.4,MacIntel,60
1,right,0.769999981,2,1.529999971,0,4,1.753000021,0,1,1.102999926,1,0,200,26,1,199,2,1,0.3,1,stim/objects/Instruments/acousticguitar4.png,stim/33.jpeg,3,stim/3.png,3,3,63,2021-03-31_13h06.35.702,premup-three_ses-02_part-03_label-phase3,3.2.4,MacIntel,60
1,left,1.381999969,,,0,,,0,,,1,0,200,135,1,199,0,2,0,2,stim/objects/HouseObjects/doormat.png,,0,stim/0.png,0,0,63,2021-03-31_13h06.35.702,premup-three_ses-02_part-03_label-phase3,3.2.4,MacIntel,60
1,right,0.735999823,,,0,,,0,,,1,0,200,133,1,199,0,2,0,2,stim/objects/HouseObjects/cushion.png,,0,stim/0.png,0,0,63,2021-03-31_13h06.35.702,premup-three_ses-02_part-03_label-phase3,3.2.4,MacIntel,60
1,left,1.072999954,3,2.069000006,0,1,2.886999846,0,1,1.404000044,1,0,200,66,1,199,3,1,0.1,1,stim/objects/Instruments/harmonica4.png,stim/53.jpeg,5,stim/5.png,3,3,63,2021-03-31_13h06.35.702,premup-three_ses-02_part-03_label-phase3,3.2.4,MacIntel,60
1,left,1.044999838,,,0,,,0,,,1,0,200,194,1,199,0,2,0,2,stim/objects/HouseObjects/clock2.png,,0,stim/0.png,0,0,63,2021-03-31_13h06.35.702,premup-three_ses-02_part-03_label-phase3,3.2.4,MacIntel,60
1,right,1.05099988,,,0,,,0,,,1,0,200,181,1,199,0,1,0,2,stim/objects/Instruments/cello2.png,,0,stim/0.png,0,0,63,2021-03-31_13h06.35.702,premup-three_ses-02_part-03_label-phase3,3.2.4,MacIntel,60
1,right,0.678999901,,,0,,,0,,,1,0,200,104,1,199,0,1,0,2,stim/objects/Instruments/bassdrum.png,,0,stim/0.png,0,0,63,2021-03-31_13h06.35.702,premup-three_ses-02_part-03_label-phase3,3.2.4,MacIntel,60
1,right,0.669999838,,,0,,,0,,,1,0,200,136,1,199,0,2,0,2,stim/objects/HouseObjects/dustpan.png,,0,stim/0.png,0,0,63,2021-03-31_13h06.35.702,premup-three_ses-02_part-03_label-phase3,3.2.4,MacIntel,60
1,left,1.600999832,,,0,,,0,,,1,0,200,128,1,199,0,1,0,2,stim/objects/Instruments/gong.png,,0,stim/0.png,0,0,63,2021-03-31_13h06.35.702,premup-three_ses-02_part-03_label-phase3,3.2.4,MacIntel,60
1,left,0.802999973,,,0,,,0,,,1,0,200,184,1,199,0,1,0,2,stim/objects/Instruments/cornet2.png,,0,stim/0.png,0,0,63,2021-03-31_13h06.35.702,premup-three_ses-02_part-03_label-phase3,3.2.4,MacIntel,60
1,left,1.799999952,2,0.813999891,0,3,1.501999855,0,1,1.234999895,1,0,200,30,1,199,2,2,0.7,1,stim/objects/HouseObjects/pan3.png,stim/32.jpeg,3,stim/3.png,2,2,63,2021-03-31_13h06.35.702,premup-three_ses-02_part-03_label-phase3,3.2.4,MacIntel,60
1,left,0.851000071,4,1.432999849,0,2,2.660000086,0,3,1.123000145,1,0,200,74,1,199,3,2,0.9,1,stim/objects/HouseObjects/glass4.png,stim/53.jpeg,5,stim/5.png,3,4,63,2021-03-31_13h06.35.702,premup-three_ses-02_part-03_label-phase3,3.2.4,MacIntel,60
1,left,1.275999784,,,0,,,0,,,1,0,200,161,1,199,0,1,0,2,stim/objects/Instruments/oboe.png,,0,stim/0.png,0,0,63,2021-03-31_13h06.35.702,premup-three_ses-02_part-03_label-phase3,3.2.4,MacIntel,60
1,left,0.953999996,3,1.519000053,0,4,1.532000065,0,2,2.553999901,1,0,200,60,1,199,3,1,0.1,1,stim/objects/Instruments/flute4.png,stim/51.jpeg,5,stim/5.png,1,3,63,2021-03-31_13h06.35.702,premup-three_ses-02_part-03_label-phase3,3.2.4,MacIntel,60
1,right,0.843999863,,,0,,,0,,,1,0,200,177,1,199,0,2,0,2,stim/objects/HouseObjects/barbecuelighter2.png,,0,stim/0.png,0,0,63,2021-03-31_13h06.35.702,premup-three_ses-02_part-03_label-phase3,3.2.4,MacIntel,60
1,left,0.819000006,4,0.931999922,0,2,3.09100008,0,3,1.666999817,1,0,200,20,1,199,2,1,0.3,1,stim/objects/Instruments/musicstand3.png,stim/31.jpeg,3,stim/3.png,1,2,63,2021-03-31_13h06.35.702,premup-three_ses-02_part-03_label-phase3,3.2.4,MacIntel,60
1,left,1.144999981,3,1.184000015,0,1,3.316999912,0,2,1.697999954,1,0,200,68,1,199,3,1,0.1,1,stim/objects/Instruments/hihat4.png,stim/51.jpeg,5,stim/5.png,1,2,63,2021-03-31_13h06.35.702,premup-three_ses-02_part-03_label-phase3,3.2.4,MacIntel,60
1,left,1.086999893,,,0,,,0,,,1,0,200,123,1,199,0,1,0,2,stim/objects/Instruments/electricdrumset.png,,0,stim/0.png,0,0,63,2021-03-31_13h06.35.702,premup-three_ses-02_part-03_label-phase3,3.2.4,MacIntel,60
1,right,0.767999887,,,0,,,0,,,1,0,200,137,1,199,0,2,0,2,stim/objects/HouseObjects/flyswatter.png,,0,stim/0.png,0,0,63,2021-03-31_13h06.35.702,premup-three_ses-02_part-03_label-phase3,3.2.4,MacIntel,60
1,right,0.819000006,2,1.234999895,0,2,1.34800005,0,2,1.666999817,1,0,200,16,1,199,1,2,0.5,1,stim/objects/HouseObjects/key3.png,stim/21.jpeg,2,stim/2.png,1,4,63,2021-03-31_13h06.35.702,premup-three_ses-02_part-03_label-phase3,3.2.4,MacIntel,60
1,left,0.845000029,,,0,,,0,,,1,0,200,170,1,199,0,2,0,2,stim/objects/HouseObjects/pan.png,,0,stim/0.png,0,0,63,2021-03-31_13h06.35.702,premup-three_ses-02_part-03_label-phase3,3.2.4,MacIntel,60
1,left,1.269999981,,,0,,,0,,,1,0,200,149,1,199,0,1,0,2,stim/objects/Instruments/musicsheet.png,,0,stim/0.png,0,0,63,2021-03-31_13h06.35.702,premup-three_ses-02_part-03_label-phase3,3.2.4,MacIntel,60
1,right,1.202000141,,,0,,,0,,,1,0,200,112,1,199,0,2,0,2,stim/objects/HouseObjects/barbecuelighter.png,,0,stim/0.png,0,0,63,2021-03-31_13h06.35.702,premup-three_ses-02_part-03_label-phase3,3.2.4,MacIntel,60
1,right,0.782000065,3,2.11500001,0,4,1.676999807,0,2,1.223999739,1,0,200,67,1,199,3,1,0.1,1,stim/objects/Instruments/harp4.png,stim/54.jpeg,5,stim/5.png,4,2,63,2021-03-31_13h06.35.702,premup-three_ses-02_part-03_label-phase3,3.2.4,MacIntel,60
1,right,1.388999939,,,0,,,0,,,1,0,200,151,1,199,0,2,0,2,stim/objects/HouseObjects/hairdryer.png,,0,stim/0.png,0,0,63,2021-03-31_13h06.35.702,premup-three_ses-02_part-03_label-phase3,3.2.4,MacIntel,60
1,left,0.91899991,3,2.5,0,2,1.301999807,0,4,1.687999964,1,0,200,87,1,199,3,1,0.9,1,stim/objects/Instruments/violin4.png,stim/64.jpeg,6,stim/6.png,4,3,63,2021-03-31_13h06.35.702,premup-three_ses-02_part-03_label-phase3,3.2.4,MacIntel,60
1,left,1.38499999,4,1.217999935,0,1,4.368999958,0,1,1.119999886,1,0,200,84,1,199,3,1,0.9,1,stim/objects/Instruments/musicsheet4.png,stim/61.jpeg,6,stim/6.png,1,1,63,2021-03-31_13h06.35.702,premup-three_ses-02_part-03_label-phase3,3.2.4,MacIntel,60
1,right,0.850999832,,,0,,,0,,,1,0,200,130,1,199,0,2,0,2,stim/objects/HouseObjects/clothesdryingrack.png,,0,stim/0.png,0,0,63,2021-03-31_13h06.35.702,premup-three_ses-02_part-03_label-phase3,3.2.4,MacIntel,60
1,left,1.051999807,2,2.76699996,0,3,1.504999876,0,2,1.239999771,1,0,200,28,1,199,2,1,0.3,1,stim/objects/Instruments/banjo4.png,stim/31.jpeg,3,stim/3.png,1,3,63,2021-03-31_13h06.35.702,premup-three_ses-02_part-03_label-phase3,3.2.4,MacIntel,60
1,right,0.986999989,,,0,,,0,,,1,0,200,116,1,199,0,2,0,2,stim/objects/HouseObjects/bottle.png,,0,stim/0.png,0,0,63,2021-03-31_13h06.35.702,premup-three_ses-02_part-03_label-phase3,3.2.4,MacIntel,60
1,right,0.784999847,3,2.563999891,0,1,1.433999777,0,1,0.849999905,1,0,200,49,1,199,2,1,0.7,1,stim/objects/Instruments/electricguitar4.png,stim/41.jpeg,4,stim/4.png,1,3,63,2021-03-31_13h06.35.702,premup-three_ses-02_part-03_label-phase3,3.2.4,MacIntel,60
1,right,1.27699995,,,0,,,0,,,1,0,200,143,1,199,0,1,0,2,stim/objects/Instruments/hihat.png,,0,stim/0.png,0,0,63,2021-03-31_13h06.35.702,premup-three_ses-02_part-03_label-phase3,3.2.4,MacIntel,60
1,right,0.703999758,2,1.057999849,0,3,1.143999815,0,2,1.529999733,1,0,200,99,1,199,3,2,0.1,1,stim/objects/HouseObjects/wateringcan4.png,stim/64.jpeg,6,stim/6.png,4,2,63,2021-03-31_13h06.35.702,premup-three_ses-02_part-03_label-phase3,3.2.4,MacIntel,60
1,left,1.095999956,2,1.296999931,0,1,1.134000063,0,1,0.766000032,1,0,200,1,1,199,1,1,0.5,1,stim/objects/Instruments/harmonica3.png,stim/14.jpeg,1,stim/1.png,4,3,63,2021-03-31_13h06.35.702,premup-three_ses-02_part-03_label-phase3,3.2.4,MacIntel,60
1,right,0.850999832,2,2.663000107,0,2,3.213999987,0,2,1.544999838,1,0,200,72,1,199,3,2,0.9,1,stim/objects/HouseObjects/flyswatter4.png,stim/51.jpeg,5,stim/5.png,1,1,63,2021-03-31_13h06.35.702,premup-three_ses-02_part-03_label-phase3,3.2.4,MacIntel,60
1,left,1.292999744,2,0.712999821,0,3,1.336999893,0,3,0.983999968,1,0,200,64,1,199,3,1,0.1,1,stim/objects/Instruments/grandpiano4.png,stim/51.jpeg,5,stim/5.png,1,4,63,2021-03-31_13h06.35.702,premup-three_ses-02_part-03_label-phase3,3.2.4,MacIntel,60
1,left,1.039000034,,,0,,,0,,,1,0,200,100,1,199,0,1,0,2,stim/objects/Instruments/accordion.png,,0,stim/0.png,0,0,63,2021-03-31_13h06.35.702,premup-three_ses-02_part-03_label-phase3,3.2.4,MacIntel,60
1,left,0.924999952,2,0.90899992,0,2,1.251999855,0,1,0.882999897,1,0,200,83,1,199,3,1,0.9,1,stim/objects/Instruments/metronome4.png,stim/64.jpeg,6,stim/6.png,4,2,63,2021-03-31_13h06.35.702,premup-three_ses-02_part-03_label-phase3,3.2.4,MacIntel,60
1,left,0.877999783,4,2.42599988,0,3,2.54399991,0,1,0.80099988,1,0,200,33,1,199,2,2,0.7,1,stim/objects/HouseObjects/vacuumcleaner3.png,stim/31.jpeg,3,stim/3.png,1,3,63,2021-03-31_13h06.35.702,premup-three_ses-02_part-03_label-phase3,3.2.4,MacIntel,60
1,left,0.945999861,4,0.764999866,0,3,1.307999849,0,2,0.919999838,1,0,200,63,1,199,3,1,0.1,1,stim/objects/Instruments/gong4.png,stim/54.jpeg,5,stim/5.png,4,2,63,2021-03-31_13h06.35.702,premup-three_ses-02_part-03_label-phase3,3.2.4,MacIntel,60
1,right,0.825000048,,,0,,,0,,,1,0,200,182,1,199,0,1,0,2,stim/objects/Instruments/chime2.png,,0,stim/0.png,0,0,63,2021-03-31_13h06.35.702,premup-three_ses-02_part-03_label-phase3,3.2.4,MacIntel,60
1,left,0.91899991,2,1.882999897,0,1,1.140000105,0,1,1.363999844,1,0,200,61,1,199,3,1,0.1,1,stim/objects/Instruments/flutetrans4.png,stim/52.jpeg,5,stim/5.png,2,4,63,2021-03-31_13h06.35.702,premup-three_ses-02_part-03_label-phase3,3.2.4,MacIntel,60
1,right,0.987999916,2,0.750999928,0,3,1.039000034,0,2,1.037999868,1,0,200,71,1,199,3,2,0.9,1,stim/objects/HouseObjects/dustpan4.png,stim/54.jpeg,5,stim/5.png,4,2,63,2021-03-31_13h06.35.702,premup-three_ses-02_part-03_label-phase3,3.2.4,MacIntel,60
1,right,0.948999882,,,0,,,0,,,1,0,200,107,1,199,0,1,0,2,stim/objects/Instruments/chime.png,,0,stim/0.png,0,0,63,2021-03-31_13h06.35.702,premup-three_ses-02_part-03_label-phase3,3.2.4,MacIntel,60
1,right,0.782999992,2,1.436999798,0,2,2.40199995,0,2,1.522999763,1,0,200,75,1,199,3,2,0.9,1,stim/objects/HouseObjects/glassmop4.png,stim/54.jpeg,5,stim/5.png,4,3,63,2021-03-31_13h06.35.702,premup-three_ses-02_part-03_label-phase3,3.2.4,MacIntel,60
1,left,0.921999931,,,0,,,0,,,1,0,200,146,1,199,0,1,0,2,stim/objects/Instruments/maraca.png,,0,stim/0.png,0,0,63,2021-03-31_13h06.35.702,premup-three_ses-02_part-03_label-phase3,3.2.4,MacIntel,60
1,right,0.805000067,2,2.39199996,0,4,1.554000139,0,4,1.645999908,1,0,200,34,1,199,2,2,0.7,1,stim/objects/HouseObjects/wateringcan3.png,stim/32.jpeg,3,stim/3.png,2,3,63,2021-03-31_13h06.35.702,premup-three_ses-02_part-03_label-phase3,3.2.4,MacIntel,60
1,right,0.843999863,3,3.493000031,0,4,2.632999897,0,4,1.752000093,1,0,200,76,1,199,3,2,0.9,1,stim/objects/HouseObjects/hairdryer4.png,stim/51.jpeg,5,stim/5.png,1,4,63,2021-03-31_13h06.35.702,premup-three_ses-02_part-03_label-phase3,3.2.4,MacIntel,60
1,left,0.923999786,,,0,,,0,,,1,0,200,122,1,199,0,1,0,2,stim/objects/Instruments/drums.png,,0,stim/0.png,0,0,63,2021-03-31_13h06.35.702,premup-three_ses-02_part-03_label-phase3,3.2.4,MacIntel,60
1,right,1.453999996,2,0.928999901,0,1,3.056999922,0,1,1.265000105,1,0,200,44,1,199,2,1,0.7,1,stim/objects/Instruments/cornet4.png,stim/44.jpeg,4,stim/4.png,4,4,63,2021-03-31_13h06.35.702,premup-three_ses-02_part-03_label-phase3,3.2.4,MacIntel,60
1,right,1.004999876,2,1.263999939,0,3,1.742000103,0,3,3.336999893,1,0,200,82,1,199,3,1,0.9,1,stim/objects/Instruments/marimba4.png,stim/63.jpeg,6,stim/6.png,3,3,63,2021-03-31_13h06.35.702,premup-three_ses-02_part-03_label-phase3,3.2.4,MacIntel,60
1,right,4.053999901,2,0.861999989,0,2,1.057999849,0,1,0.899999857,1,0,200,14,1,199,1,2,0.5,1,stim/objects/Instruments/musicsheet3.png,stim/21.jpeg,2,stim/2.png,1,1,63,2021-03-31_13h06.35.702,premup-three_ses-02_part-03_label-phase3,3.2.4,MacIntel,60
1,left,1.131000042,,,0,,,0,,,1,0,200,160,1,199,0,1,0,2,stim/objects/Instruments/musicstand.png,,0,stim/0.png,0,0,63,2021-03-31_13h06.35.702,premup-three_ses-02_part-03_label-phase3,3.2.4,MacIntel,60
1,right,0.881999969,,,0,,,0,,,1,0,200,164,1,199,0,1,0,2,stim/objects/Instruments/xylophone.png,,0,stim/0.png,0,0,63,2021-03-31_13h06.35.702,premup-three_ses-02_part-03_label-phase3,3.2.4,MacIntel,60
1,right,0.586999893,2,0.895999908,0,3,1.254999876,0,1,1.020999908,1,0,200,51,1,199,2,2,0.3,1,stim/objects/HouseObjects/bottle4.png,stim/43.jpeg,4,stim/4.png,3,3,63,2021-03-31_13h06.35.702,premup-three_ses-02_part-03_label-phase3,3.2.4,MacIntel,60
1,right,0.828000069,,,0,,,0,,,1,0,200,150,1,199,0,2,0,2,stim/objects/HouseObjects/glassmop.png,,0,stim/0.png,0,0,63,2021-03-31_13h06.35.702,premup-three_ses-02_part-03_label-phase3,3.2.4,MacIntel,60
1,right,0.730000019,2,2.605000019,0,1,1.320999861,0,1,1.001999855,1,0,200,29,1,199,2,1,0.3,1,stim/objects/Instruments/bassdrum4.png,stim/32.jpeg,3,stim/3.png,2,3,63,2021-03-31_13h06.35.702,premup-three_ses-02_part-03_label-phase3,3.2.4,MacIntel,60
1,right,1.04399991,,,0,,,0,,,1,0,200,105,1,199,0,1,0,2,stim/objects/Instruments/bassguitar.png,,0,stim/0.png,0,0,63,2021-03-31_13h06.35.702,premup-three_ses-02_part-03_label-phase3,3.2.4,MacIntel,60
1,left,1.623999834,4,2.09499979,0,4,2.532999992,0,1,1.590000153,1,0,200,32,1,199,2,2,0.7,1,stim/objects/HouseObjects/towel3.png,stim/34.jpeg,3,stim/3.png,4,2,63,2021-03-31_13h06.35.702,premup-three_ses-02_part-03_label-phase3,3.2.4,MacIntel,60
1,right,0.720000029,,,0,,,0,,,1,0,200,113,1,199,0,2,0,2,stim/objects/HouseObjects/basket.png,,0,stim/0.png,0,0,63,2021-03-31_13h06.35.702,premup-three_ses-02_part-03_label-phase3,3.2.4,MacIntel,60
1,right,1.035999775,,,0,,,0,,,1,0,200,134,1,199,0,2,0,2,stim/objects/HouseObjects/dishsoap.png,,0,stim/0.png,0,0,63,2021-03-31_13h06.35.702,premup-three_ses-02_part-03_label-phase3,3.2.4,MacIntel,60
1,left,1.100999832,,,0,,,0,,,1,0,200,125,1,199,0,1,0,2,stim/objects/Instruments/flute.png,,0,stim/0.png,0,0,63,2021-03-31_13h06.35.702,premup-three_ses-02_part-03_label-phase3,3.2.4,MacIntel,60
1,right,1.555999994,,,0,,,0,,,1,0,200,166,1,199,0,1,0,2,stim/objects/Instruments/acousticguitar2.png,,0,stim/0.png,0,0,63,2021-03-31_13h06.35.702,premup-three_ses-02_part-03_label-phase3,3.2.4,MacIntel,60
1,left,0.76699996,2,1.951999903,0,4,2.049000025,0,1,0.835999727,1,0,200,21,1,199,2,1,0.3,1,stim/objects/Instruments/oboe3.png,stim/32.jpeg,3,stim/3.png,2,4,63,2021-03-31_13h06.35.702,premup-three_ses-02_part-03_label-phase3,3.2.4,MacIntel,60
1,right,0.763999939,2,0.931999922,0,2,3.10199976,0,3,2.038000107,1,0,200,65,1,199,3,1,0.1,1,stim/objects/Instruments/guitarcase4.png,stim/52.jpeg,5,stim/5.png,2,2,63,2021-03-31_13h06.35.702,premup-three_ses-02_part-03_label-phase3,3.2.4,MacIntel,60
1,right,0.970999956,,,0,,,0,,,1,0,200,109,1,199,0,1,0,2,stim/objects/Instruments/cornet.png,,0,stim/0.png,0,0,63,2021-03-31_13h06.35.702,premup-three_ses-02_part-03_label-phase3,3.2.4,MacIntel,60
1,right,0.734999895,3,1.214999914,0,2,3.16899991,0,4,1.733999968,1,0,200,85,1,199,3,1,0.9,1,stim/objects/Instruments/musicstand4.png,stim/62.jpeg,6,stim/6.png,2,2,63,2021-03-31_13h06.35.702,premup-three_ses-02_part-03_label-phase3,3.2.4,MacIntel,60
1,left,1.789999962,3,1.194999933,0,2,2.542999983,0,4,1.90199995,1,0,200,91,1,199,3,2,0.1,1,stim/objects/HouseObjects/key4.png,stim/64.jpeg,6,stim/6.png,4,4,63,2021-03-31_13h06.35.702,premup-three_ses-02_part-03_label-phase3,3.2.4,MacIntel,60
1,left,2.075000048,,,0,,,0,,,1,0,200,158,1,199,0,2,0,2,stim/objects/HouseObjects/lintroller.png,,0,stim/0.png,0,0,63,2021-03-31_13h06.35.702,premup-three_ses-02_part-03_label-phase3,3.2.4,MacIntel,60
1,right,0.895999908,,,0,,,0,,,1,0,200,155,1,199,0,2,0,2,stim/objects/HouseObjects/ironingboard.png,,0,stim/0.png,0,0,63,2021-03-31_13h06.35.702,premup-three_ses-02_part-03_label-phase3,3.2.4,MacIntel,60
1,right,0.699999809,3,1.515999794,0,1,1.470999956,0,1,0.835000038,1,0,200,93,1,199,3,2,0.1,1,stim/objects/HouseObjects/lintroller4.png,stim/62.jpeg,6,stim/6.png,2,4,63,2021-03-31_13h06.35.702,premup-three_ses-02_part-03_label-phase3,3.2.4,MacIntel,60
1,right,0.725999832,,,0,,,0,,,1,0,200,140,1,199,0,1,0,2,stim/objects/Instruments/guitarcase.png,,0,stim/0.png,0,0,63,2021-03-31_13h06.35.702,premup-three_ses-02_part-03_label-phase3,3.2.4,MacIntel,60
1,left,1.118000031,2,2.665999889,0,3,1.371999979,0,4,1.47300005,1,0,200,24,1,199,2,1,0.3,1,stim/objects/Instruments/xylophone3.png,stim/31.jpeg,3,stim/3.png,1,3,63,2021-03-31_13h06.35.702,premup-three_ses-02_part-03_label-phase3,3.2.4,MacIntel,60
1,left,0.894999981,,,0,,,0,,,1,0,200,132,1,199,0,2,0,2,stim/objects/HouseObjects/coffee.png,,0,stim/0.png,0,0,63,2021-03-31_13h06.35.702,premup-three_ses-02_part-03_label-phase3,3.2.4,MacIntel,60
1,right,1.07400012,,,0,,,0,,,1,0,200,159,1,199,0,2,0,2,stim/objects/HouseObjects/match.png,,0,stim/0.png,0,0,63,2021-03-31_13h06.35.702,premup-three_ses-02_part-03_label-phase3,3.2.4,MacIntel,60
1,right,0.901999712,,,0,,,0,,,1,0,200,102,1,199,0,1,0,2,stim/objects/Instruments/balalaika.png,,0,stim/0.png,0,0,63,2021-03-31_13h06.35.702,premup-three_ses-02_part-03_label-phase3,3.2.4,MacIntel,60
1,left,0.956999779,,,0,,,0,,,1,0,200,198,1,199,0,2,0,2,stim/objects/HouseObjects/cushion2.png,,0,stim/0.png,0,0,63,2021-03-31_13h06.35.702,premup-three_ses-02_part-03_label-phase3,3.2.4,MacIntel,60
1,left,1.503000021,2,0.934999943,0,3,1.183999777,0,1,0.739000082,1,0,200,42,1,199,2,1,0.7,1,stim/objects/Instruments/chime4.png,stim/42.jpeg,4,stim/4.png,2,4,63,2021-03-31_13h06.35.702,premup-three_ses-02_part-03_label-phase3,3.2.4,MacIntel,60
1,left,1.30099988,,,0,,,0,,,1,0,200,114,1,199,0,2,0,2,stim/objects/HouseObjects/bleachbottle.png,,0,stim/0.png,0,0,63,2021-03-31_13h06.35.702,premup-three_ses-02_part-03_label-phase3,3.2.4,MacIntel,60
1,right,0.832000017,2,1.832999945,0,3,1.644999981,0,2,1.217999935,1,0,200,4,1,199,1,1,0.5,1,stim/objects/Instruments/keyboard3.png,stim/13.jpeg,1,stim/1.png,3,2,63,2021-03-31_13h06.35.702,premup-three_ses-02_part-03_label-phase3,3.2.4,MacIntel,60
1,left,1.037999868,,,0,,,0,,,1,0,200,139,1,199,0,2,0,2,stim/objects/HouseObjects/glass.png,,0,stim/0.png,0,0,63,2021-03-31_13h06.35.702,premup-three_ses-02_part-03_label-phase3,3.2.4,MacIntel,60
1,right,0.901000023,2,1.098999739,0,1,0.96999979,0,1,0.701999903,1,0,200,57,1,199,2,2,0.3,1,stim/objects/HouseObjects/coffee4.png,stim/41.jpeg,4,stim/4.png,1,3,63,2021-03-31_13h06.35.702,premup-three_ses-02_part-03_label-phase3,3.2.4,MacIntel,60
1,left,1.173999786,4,1.373999834,0,3,1.20299983,0,4,2.147999763,1,0,200,11,1,199,1,2,0.5,1,stim/objects/Instruments/maraca3.png,stim/22.jpeg,2,stim/2.png,2,3,63,2021-03-31_13h06.35.702,premup-three_ses-02_part-03_label-phase3,3.2.4,MacIntel,60
1,left,0.878000021,2,0.837000132,0,3,1.235000134,0,2,1.506999969,1,0,200,8,1,199,1,1,0.5,1,stim/objects/HouseObjects/handvacuum3.png,stim/11.jpeg,1,stim/1.png,1,4,63,2021-03-31_13h06.35.702,premup-three_ses-02_part-03_label-phase3,3.2.4,MacIntel,60
1,right,0.768999815,,,0,,,0,,,1,0,200,165,1,199,0,1,0,2,stim/objects/Instruments/accordion2.png,,0,stim/0.png,0,0,63,2021-03-31_13h06.35.702,premup-three_ses-02_part-03_label-phase3,3.2.4,MacIntel,60
1,right,0.850999832,1,6.504999876,0,2,3.570999861,0,1,1.582999706,1,0,200,59,1,199,2,2,0.3,1,stim/objects/HouseObjects/dishsoap4.png,stim/43.jpeg,4,stim/4.png,3,1,63,2021-03-31_13h06.35.702,premup-three_ses-02_part-03_label-phase3,3.2.4,MacIntel,60
1,left,1.259999752,,,0,,,0,,,1,0,200,188,1,199,0,1,0,2,stim/objects/Instruments/electricdrumset2.png,,0,stim/0.png,0,0,63,2021-03-31_13h06.35.702,premup-three_ses-02_part-03_label-phase3,3.2.4,MacIntel,60
1,right,0.766000032,,,0,,,0,,,1,0,200,119,1,199,0,2,0,2,stim/objects/HouseObjects/clock.png,,0,stim/0.png,0,0,63,2021-03-31_13h06.35.702,premup-three_ses-02_part-03_label-phase3,3.2.4,MacIntel,60
1,right,0.832999945,2,1.080999851,0,4,1.398999929,0,2,1.252999783,1,0,200,48,1,199,2,1,0.7,1,stim/objects/Instruments/electricdrumset4.png,stim/44.jpeg,4,stim/4.png,4,3,63,2021-03-31_13h06.35.702,premup-three_ses-02_part-03_label-phase3,3.2.4,MacIntel,60
1,left,1.756000042,,,0,,,0,,,1,0,200,126,1,199,0,1,0,2,stim/objects/Instruments/flutetrans.png,,0,stim/0.png,0,0,63,2021-03-31_13h06.35.702,premup-three_ses-02_part-03_label-phase3,3.2.4,MacIntel,60
1,right,1.036999941,,,0,,,0,,,1,0,200,111,1,199,0,2,0,2,stim/objects/HouseObjects/ballofstring.png,,0,stim/0.png,0,0,63,2021-03-31_13h06.35.702,premup-three_ses-02_part-03_label-phase3,3.2.4,MacIntel,60
1,right,0.651000023,2,1.032999992,0,2,1.371000051,0,2,1.70600009,1,0,200,15,1,199,1,2,0.5,1,stim/objects/HouseObjects/ironingboard3.png,stim/24.jpeg,2,stim/2.png,4,1,63,2021-03-31_13h06.35.702,premup-three_ses-02_part-03_label-phase3,3.2.4,MacIntel,60
1,left,1.019999981,2,0.854000092,0,3,2.671999931,0,2,1.756999969,1,0,200,22,1,199,2,1,0.3,1,stim/objects/Instruments/violin3.png,stim/33.jpeg,3,stim/3.png,3,1,63,2021-03-31_13h06.35.702,premup-three_ses-02_part-03_label-phase3,3.2.4,MacIntel,60
1,left,0.826999903,2,3.002999783,0,3,1.538000107,0,4,1.989999771,1,0,200,52,1,199,2,2,0.3,1,stim/objects/HouseObjects/broom4.png,stim/44.jpeg,4,stim/4.png,4,2,63,2021-03-31_13h06.35.702,premup-three_ses-02_part-03_label-phase3,3.2.4,MacIntel,60
1,left,0.917999983,4,2.387000084,0,3,2.413999796,0,2,1.43599987,1,0,200,62,1,199,3,1,0.1,1,stim/objects/Instruments/frenchhorn4.png,stim/53.jpeg,5,stim/5.png,3,4,63,2021-03-31_13h06.35.702,premup-three_ses-02_part-03_label-phase3,3.2.4,MacIntel,60
1,right,1.003999949,3,2.664999962,0,2,0.000999928,0,3,2.248999834,1,0,200,54,1,199,2,2,0.3,1,stim/objects/HouseObjects/clock4.png,stim/42.jpeg,4,stim/4.png,2,2,63,2021-03-31_13h06.35.702,premup-three_ses-02_part-03_label-phase3,3.2.4,MacIntel,60
1,left,1.621000051,,,0,,,0,,,1,0,200,120,1,199,0,1,0,2,stim/objects/Instruments/cymbal.png,,0,stim/0.png,0,0,63,2021-03-31_13h06.35.702,premup-three_ses-02_part-03_label-phase3,3.2.4,MacIntel,60
1,right,0.815999985,2,1.282999992,0,1,1.602999926,0,3,1.455999851,1,0,200,90,1,199,3,2,0.1,1,stim/objects/HouseObjects/ironingboard4.png,stim/63.jpeg,6,stim/6.png,3,4,63,2021-03-31_13h06.35.702,premup-three_ses-02_part-03_label-phase3,3.2.4,MacIntel,60
