key_resp_trial.keys,key_resp_trial.rt,trial_acc,trial_index,iterations.thisRepN,iterations.thisTrialN,iterations.thisN,iterations.thisIndex,iterations.ran,iterations.order,task_innerloop.thisRepN,task_innerloop.thisTrialN,task_innerloop.thisN,task_innerloop.thisIndex,task_innerloop.ran,task_innerloop.order,scn_condition,scn_cat,scn_inst,scn_file,obj_cat,obj_cat_num,obj_file,trial_cond,quadrant,obj_x,obj_y,corr_ans,participant,date,expName,psychopyVersion,OS,frameRate,slider.response,slider.rt,slider_2.response,slider_2.rt,ratings.thisRepN,ratings.thisTrialN,ratings.thisN,ratings.thisIndex,ratings.ran,ratings.order,obj_cat_top,min_resp_top,max_resp_top,obj_cat_bottom,min_resp_bottom,max_resp_bottom,enc_trials.thisRepN,enc_trials.thisTrialN,enc_trials.thisN,enc_trials.thisIndex,enc_trials.ran,enc_trials.order,fillers,ratings_final.thisRepN,ratings_final.thisTrialN,ratings_final.thisN,ratings_final.thisIndex,ratings_final.ran,ratings_final.order
,,0,1,1,0,1,0,1,0,1,0,240,43,1,239,1,2,4,stim/24.jpeg,Instruments,1,stim/objects/Instruments/timbal.png,0.5,3,-0.2,-0.15,left,63,2021-03-30_13h04.40.974,premup-three_ses-02_part-02_label-phase2,3.2.4,MacIntel,60,,,,,,,,,,,,,,,,,,,,,,,,,,,,,
right,0.811000109,1,2,1,0,1,0,1,0,1,0,240,173,1,239,3,5,2,stim/52.jpeg,HouseObjects,2,stim/objects/HouseObjects/saw2.png,0.9,3,-0.2,-0.15,right,63,2021-03-30_13h04.40.974,premup-three_ses-02_part-02_label-phase2,3.2.4,MacIntel,60,,,,,,,,,,,,,,,,,,,,,,,,,,,,,
right,0.720000029,0,3,1,0,1,0,1,0,1,0,240,85,1,239,2,3,2,stim/32.jpeg,Instruments,1,stim/objects/Instruments/trombone.png,0.3,2,0.2,0.15,left,63,2021-03-30_13h04.40.974,premup-three_ses-02_part-02_label-phase2,3.2.4,MacIntel,60,,,,,,,,,,,,,,,,,,,,,,,,,,,,,
right,0.845999956,1,4,1,0,1,0,1,0,1,0,240,63,1,239,1,2,4,stim/24.jpeg,HouseObjects,2,stim/objects/HouseObjects/sponge.png,0.5,2,0.2,0.15,right,63,2021-03-30_13h04.40.974,premup-three_ses-02_part-02_label-phase2,3.2.4,MacIntel,60,,,,,,,,,,,,,,,,,,,,,,,,,,,,,
,,0,5,1,0,1,0,1,0,1,0,240,77,1,239,1,2,2,stim/22.jpeg,HouseObjects,2,stim/objects/HouseObjects/saw.png,0.5,3,-0.2,-0.15,right,63,2021-03-30_13h04.40.974,premup-three_ses-02_part-02_label-phase2,3.2.4,MacIntel,60,,,,,,,,,,,,,,,,,,,,,,,,,,,,,
right,0.65899992,1,6,1,0,1,0,1,0,1,0,240,181,1,239,3,5,2,stim/52.jpeg,HouseObjects,2,stim/objects/HouseObjects/saw2.png,0.9,4,0.2,-0.15,right,63,2021-03-30_13h04.40.974,premup-three_ses-02_part-02_label-phase2,3.2.4,MacIntel,60,,,,,,,,,,,,,,,,,,,,,,,,,,,,,
left,0.679000139,0,7,1,0,1,0,1,0,1,0,240,33,1,239,1,1,2,stim/12.jpeg,HouseObjects,2,stim/objects/HouseObjects/remote.png,0.5,2,0.2,0.15,right,63,2021-03-30_13h04.40.974,premup-three_ses-02_part-02_label-phase2,3.2.4,MacIntel,60,,,,,,,,,,,,,,,,,,,,,,,,,,,,,
right,0.753000021,0,8,1,0,1,0,1,0,1,0,240,90,1,239,2,3,3,stim/33.jpeg,Instruments,1,stim/objects/Instruments/trumpet.png,0.3,4,0.2,-0.15,left,63,2021-03-30_13h04.40.974,premup-three_ses-02_part-02_label-phase2,3.2.4,MacIntel,60,,,,,,,,,,,,,,,,,,,,,,,,,,,,,
left,0.75,1,9,1,0,1,0,1,0,1,0,240,18,1,239,1,1,3,stim/13.jpeg,Instruments,1,stim/objects/Instruments/record.png,0.5,1,-0.2,0.15,left,63,2021-03-30_13h04.40.974,premup-three_ses-02_part-02_label-phase2,3.2.4,MacIntel,60,,,,,,,,,,,,,,,,,,,,,,,,,,,,,
left,0.525000095,1,10,1,0,1,0,1,0,1,0,240,201,1,239,3,6,2,stim/62.jpeg,Instruments,1,stim/objects/Instruments/trombone2.png,0.9,1,-0.2,0.15,left,63,2021-03-30_13h04.40.974,premup-three_ses-02_part-02_label-phase2,3.2.4,MacIntel,60,,,,,,,,,,,,,,,,,,,,,,,,,,,,,
left,0.514000177,1,11,1,0,1,0,1,0,1,0,240,10,1,239,1,1,3,stim/13.jpeg,Instruments,1,stim/objects/Instruments/record.png,0.5,3,-0.2,-0.15,left,63,2021-03-30_13h04.40.974,premup-three_ses-02_part-02_label-phase2,3.2.4,MacIntel,60,,,,,,,,,,,,,,,,,,,,,,,,,,,,,
right,0.616999865,1,12,1,0,1,0,1,0,1,0,240,70,1,239,1,2,3,stim/23.jpeg,HouseObjects,2,stim/objects/HouseObjects/scale.png,0.5,4,0.2,-0.15,right,63,2021-03-30_13h04.40.974,premup-three_ses-02_part-02_label-phase2,3.2.4,MacIntel,60,,,,,,,,,,,,,,,,,,,,,,,,,,,,,
right,0.68900013,0,13,1,0,1,0,1,0,1,0,240,140,1,239,2,4,1,stim/41.jpeg,Instruments,1,stim/objects/Instruments/panflute2.png,0.7,2,0.2,0.15,left,63,2021-03-30_13h04.40.974,premup-three_ses-02_part-02_label-phase2,3.2.4,MacIntel,60,,,,,,,,,,,,,,,,,,,,,,,,,,,,,
left,0.720000029,1,14,1,0,1,0,1,0,1,0,240,214,1,239,3,6,3,stim/63.jpeg,Instruments,1,stim/objects/Instruments/trumpet2.png,0.9,2,0.2,0.15,left,63,2021-03-30_13h04.40.974,premup-three_ses-02_part-02_label-phase2,3.2.4,MacIntel,60,,,,,,,,,,,,,,,,,,,,,,,,,,,,,
left,0.482000113,0,15,1,0,1,0,1,0,1,0,240,29,1,239,1,1,2,stim/12.jpeg,HouseObjects,2,stim/objects/HouseObjects/remote.png,0.5,1,-0.2,0.15,right,63,2021-03-30_13h04.40.974,premup-three_ses-02_part-02_label-phase2,3.2.4,MacIntel,60,,,,,,,,,,,,,,,,,,,,,,,,,,,,,
left,0.758000135,0,16,1,0,1,0,1,0,1,0,240,110,1,239,2,3,3,stim/33.jpeg,HouseObjects,2,stim/objects/HouseObjects/thermometer.png,0.7,2,0.2,0.15,right,63,2021-03-30_13h04.40.974,premup-three_ses-02_part-02_label-phase2,3.2.4,MacIntel,60,,,,,,,,,,,,,,,,,,,,,,,,,,,,,
right,0.77300024,0,17,1,0,1,0,1,0,1,0,240,48,1,239,1,2,1,stim/21.jpeg,Instruments,1,stim/objects/Instruments/saxophone.png,0.5,3,-0.2,-0.15,left,63,2021-03-30_13h04.40.974,premup-three_ses-02_part-02_label-phase2,3.2.4,MacIntel,60,,,,,,,,,,,,,,,,,,,,,,,,,,,,,
left,0.471000195,1,18,1,0,1,0,1,0,1,0,240,2,1,239,1,1,3,stim/13.jpeg,Instruments,1,stim/objects/Instruments/record.png,0.5,3,-0.2,-0.15,left,63,2021-03-30_13h04.40.974,premup-three_ses-02_part-02_label-phase2,3.2.4,MacIntel,60,,,,,,,,,,,,,,,,,,,,,,,,,,,,,
,,0,19,1,0,1,0,1,0,1,0,240,3,1,239,1,1,4,stim/14.jpeg,Instruments,1,stim/objects/Instruments/record_player.png,0.5,4,0.2,-0.15,left,63,2021-03-30_13h04.40.974,premup-three_ses-02_part-02_label-phase2,3.2.4,MacIntel,60,,,,,,,,,,,,,,,,,,,,,,,,,,,,,
left,0.751000166,0,20,1,0,1,0,1,0,1,0,240,112,1,239,2,3,1,stim/31.jpeg,HouseObjects,2,stim/objects/HouseObjects/spraybottle.png,0.7,2,0.2,0.15,right,63,2021-03-30_13h04.40.974,premup-three_ses-02_part-02_label-phase2,3.2.4,MacIntel,60,,,,,,,,,,,,,,,,,,,,,,,,,,,,,
left,0.816000223,0,21,1,0,1,0,1,0,1,0,240,238,1,239,3,6,3,stim/63.jpeg,HouseObjects,2,stim/objects/HouseObjects/thermometer2.png,0.1,4,0.2,-0.15,right,63,2021-03-30_13h04.40.974,premup-three_ses-02_part-02_label-phase2,3.2.4,MacIntel,60,,,,,,,,,,,,,,,,,,,,,,,,,,,,,
right,0.697000027,1,22,1,0,1,0,1,0,1,0,240,114,1,239,2,3,3,stim/33.jpeg,HouseObjects,2,stim/objects/HouseObjects/thermometer.png,0.7,4,0.2,-0.15,right,63,2021-03-30_13h04.40.974,premup-three_ses-02_part-02_label-phase2,3.2.4,MacIntel,60,,,,,,,,,,,,,,,,,,,,,,,,,,,,,
left,0.686000109,0,23,1,0,1,0,1,0,1,0,240,117,1,239,2,3,2,stim/32.jpeg,HouseObjects,2,stim/objects/HouseObjects/teapot.png,0.7,1,-0.2,0.15,right,63,2021-03-30_13h04.40.974,premup-three_ses-02_part-02_label-phase2,3.2.4,MacIntel,60,,,,,,,,,,,,,,,,,,,,,,,,,,,,,
left,0.815000057,1,24,1,0,1,0,1,0,1,0,240,14,1,239,1,1,3,stim/13.jpeg,Instruments,1,stim/objects/Instruments/record.png,0.5,1,-0.2,0.15,left,63,2021-03-30_13h04.40.974,premup-three_ses-02_part-02_label-phase2,3.2.4,MacIntel,60,,,,,,,,,,,,,,,,,,,,,,,,,,,,,
,,0,25,1,0,1,0,1,0,1,0,240,133,1,239,2,4,2,stim/42.jpeg,Instruments,1,stim/objects/Instruments/pipepiano2.png,0.7,1,-0.2,0.15,left,63,2021-03-30_13h04.40.974,premup-three_ses-02_part-02_label-phase2,3.2.4,MacIntel,60,,,,,,,,,,,,,,,,,,,,,,,,,,,,,
right,0.774000168,1,26,1,0,1,0,1,0,1,0,240,100,1,239,2,3,1,stim/31.jpeg,HouseObjects,2,stim/objects/HouseObjects/spraybottle.png,0.7,4,0.2,-0.15,right,63,2021-03-30_13h04.40.974,premup-three_ses-02_part-02_label-phase2,3.2.4,MacIntel,60,,,,,,,,,,,,,,,,,,,,,,,,,,,,,
left,0.633000135,0,27,1,0,1,0,1,0,1,0,240,68,1,239,1,2,1,stim/21.jpeg,HouseObjects,2,stim/objects/HouseObjects/safetypin.png,0.5,3,-0.2,-0.15,right,63,2021-03-30_13h04.40.974,premup-three_ses-02_part-02_label-phase2,3.2.4,MacIntel,60,,,,,,,,,,,,,,,,,,,,,,,,,,,,,
right,0.728000164,1,28,1,0,1,0,1,0,1,0,240,102,1,239,2,3,3,stim/33.jpeg,HouseObjects,2,stim/objects/HouseObjects/thermometer.png,0.7,4,0.2,-0.15,right,63,2021-03-30_13h04.40.974,premup-three_ses-02_part-02_label-phase2,3.2.4,MacIntel,60,,,,,,,,,,,,,,,,,,,,,,,,,,,,,
left,0.690000057,1,29,1,0,1,0,1,0,1,0,240,15,1,239,1,1,4,stim/14.jpeg,Instruments,1,stim/objects/Instruments/record_player.png,0.5,3,-0.2,-0.15,left,63,2021-03-30_13h04.40.974,premup-three_ses-02_part-02_label-phase2,3.2.4,MacIntel,60,,,,,,,,,,,,,,,,,,,,,,,,,,,,,
left,0.664999962,1,30,1,0,1,0,1,0,1,0,240,141,1,239,2,4,2,stim/42.jpeg,Instruments,1,stim/objects/Instruments/pipepiano2.png,0.7,3,-0.2,-0.15,left,63,2021-03-30_13h04.40.974,premup-three_ses-02_part-02_label-phase2,3.2.4,MacIntel,60,,,,,,,,,,,,,,,,,,,,,,,,,,,,,
right,0.805999994,1,31,1,0,1,0,1,0,1,0,240,38,1,239,1,1,3,stim/13.jpeg,HouseObjects,2,stim/objects/HouseObjects/rubbergloves.png,0.5,2,0.2,0.15,right,63,2021-03-30_13h04.40.974,premup-three_ses-02_part-02_label-phase2,3.2.4,MacIntel,60,,,,,,,,,,,,,,,,,,,,,,,,,,,,,
left,0.619000196,1,32,1,0,1,0,1,0,1,0,240,204,1,239,3,6,1,stim/61.jpeg,Instruments,1,stim/objects/Instruments/triangle2.png,0.9,3,-0.2,-0.15,left,63,2021-03-30_13h04.40.974,premup-three_ses-02_part-02_label-phase2,3.2.4,MacIntel,60,,,,,,,,,,,,,,,,,,,,,,,,,,,,,
,,0,33,1,0,1,0,1,0,1,0,240,74,1,239,1,2,3,stim/23.jpeg,HouseObjects,2,stim/objects/HouseObjects/scale.png,0.5,2,0.2,0.15,right,63,2021-03-30_13h04.40.974,premup-three_ses-02_part-02_label-phase2,3.2.4,MacIntel,60,,,,,,,,,,,,,,,,,,,,,,,,,,,,,
left,0.463000059,1,34,1,0,1,0,1,0,1,0,240,124,1,239,2,4,1,stim/41.jpeg,Instruments,1,stim/objects/Instruments/panflute2.png,0.7,1,-0.2,0.15,left,63,2021-03-30_13h04.40.974,premup-three_ses-02_part-02_label-phase2,3.2.4,MacIntel,60,,,,,,,,,,,,,,,,,,,,,,,,,,,,,
left,0.531000137,1,35,1,0,1,0,1,0,1,0,240,120,1,239,2,4,1,stim/41.jpeg,Instruments,1,stim/objects/Instruments/panflute2.png,0.7,2,0.2,0.15,left,63,2021-03-30_13h04.40.974,premup-three_ses-02_part-02_label-phase2,3.2.4,MacIntel,60,,,,,,,,,,,,,,,,,,,,,,,,,,,,,
right,0.667000055,1,36,1,0,1,0,1,0,1,0,240,239,1,239,3,6,4,stim/64.jpeg,HouseObjects,2,stim/objects/HouseObjects/thread2.png,0.1,4,0.2,-0.15,right,63,2021-03-30_13h04.40.974,premup-three_ses-02_part-02_label-phase2,3.2.4,MacIntel,60,,,,,,,,,,,,,,,,,,,,,,,,,,,,,
left,0.684000015,1,37,1,0,1,0,1,0,1,0,240,11,1,239,1,1,4,stim/14.jpeg,Instruments,1,stim/objects/Instruments/record_player.png,0.5,4,0.2,-0.15,left,63,2021-03-30_13h04.40.974,premup-three_ses-02_part-02_label-phase2,3.2.4,MacIntel,60,,,,,,,,,,,,,,,,,,,,,,,,,,,,,
left,0.642000198,1,38,1,0,1,0,1,0,1,0,240,84,1,239,2,3,1,stim/31.jpeg,Instruments,1,stim/objects/Instruments/triangle.png,0.3,2,0.2,0.15,left,63,2021-03-30_13h04.40.974,premup-three_ses-02_part-02_label-phase2,3.2.4,MacIntel,60,,,,,,,,,,,,,,,,,,,,,,,,,,,,,
left,0.700999975,0,39,1,0,1,0,1,0,1,0,240,96,1,239,2,3,1,stim/31.jpeg,HouseObjects,2,stim/objects/HouseObjects/spraybottle.png,0.7,4,0.2,-0.15,right,63,2021-03-30_13h04.40.974,premup-three_ses-02_part-02_label-phase2,3.2.4,MacIntel,60,,,,,,,,,,,,,,,,,,,,,,,,,,,,,
left,0.730000257,0,40,1,0,1,0,1,0,1,0,240,61,1,239,1,2,2,stim/22.jpeg,HouseObjects,2,stim/objects/HouseObjects/saw.png,0.5,1,-0.2,0.15,right,63,2021-03-30_13h04.40.974,premup-three_ses-02_part-02_label-phase2,3.2.4,MacIntel,60,,,,,,,,,,,,,,,,,,,,,,,,,,,,,
left,0.851999998,0,41,1,0,1,0,1,0,1,0,240,155,1,239,2,4,4,stim/44.jpeg,HouseObjects,2,stim/objects/HouseObjects/rug2.png,0.3,2,0.2,0.15,right,63,2021-03-30_13h04.40.974,premup-three_ses-02_part-02_label-phase2,3.2.4,MacIntel,60,,,,,,,,,,,,,,,,,,,,,,,,,,,,,
left,0.658000231,1,42,1,0,1,0,1,0,1,0,240,46,1,239,1,2,3,stim/23.jpeg,Instruments,1,stim/objects/Instruments/tambourine.png,0.5,4,0.2,-0.15,left,63,2021-03-30_13h04.40.974,premup-three_ses-02_part-02_label-phase2,3.2.4,MacIntel,60,,,,,,,,,,,,,,,,,,,,,,,,,,,,,
right,0.762000084,1,43,1,0,1,0,1,0,1,0,240,169,1,239,3,5,2,stim/52.jpeg,HouseObjects,2,stim/objects/HouseObjects/saw2.png,0.9,4,0.2,-0.15,right,63,2021-03-30_13h04.40.974,premup-three_ses-02_part-02_label-phase2,3.2.4,MacIntel,60,,,,,,,,,,,,,,,,,,,,,,,,,,,,,
left,0.649000168,1,44,1,0,1,0,1,0,1,0,240,205,1,239,3,6,2,stim/62.jpeg,Instruments,1,stim/objects/Instruments/trombone2.png,0.9,1,-0.2,0.15,left,63,2021-03-30_13h04.40.974,premup-three_ses-02_part-02_label-phase2,3.2.4,MacIntel,60,,,,,,,,,,,,,,,,,,,,,,,,,,,,,
left,0.595000029,1,45,1,0,1,0,1,0,1,0,240,235,1,239,3,6,4,stim/64.jpeg,Instruments,1,stim/objects/Instruments/tuba2.png,0.9,1,-0.2,0.15,left,63,2021-03-30_13h04.40.974,premup-three_ses-02_part-02_label-phase2,3.2.4,MacIntel,60,,,,,,,,,,,,,,,,,,,,,,,,,,,,,
left,0.650000095,0,46,1,0,1,0,1,0,1,0,240,149,1,239,2,4,2,stim/42.jpeg,HouseObjects,2,stim/objects/HouseObjects/remote2.png,0.3,3,-0.2,-0.15,right,63,2021-03-30_13h04.40.974,premup-three_ses-02_part-02_label-phase2,3.2.4,MacIntel,60,,,,,,,,,,,,,,,,,,,,,,,,,,,,,
right,0.710999966,1,47,1,0,1,0,1,0,1,0,240,192,1,239,3,5,1,stim/51.jpeg,HouseObjects,2,stim/objects/HouseObjects/safetypin2.png,0.9,1,-0.2,0.15,right,63,2021-03-30_13h04.40.974,premup-three_ses-02_part-02_label-phase2,3.2.4,MacIntel,60,,,,,,,,,,,,,,,,,,,,,,,,,,,,,
left,0.759000063,0,48,1,0,1,0,1,0,1,0,240,71,1,239,1,2,4,stim/24.jpeg,HouseObjects,2,stim/objects/HouseObjects/sponge.png,0.5,2,0.2,0.15,right,63,2021-03-30_13h04.40.974,premup-three_ses-02_part-02_label-phase2,3.2.4,MacIntel,60,,,,,,,,,,,,,,,,,,,,,,,,,,,,,
left,0.566000223,1,49,1,0,1,0,1,0,1,0,240,203,1,239,3,6,4,stim/64.jpeg,Instruments,1,stim/objects/Instruments/tuba2.png,0.9,3,-0.2,-0.15,left,63,2021-03-30_13h04.40.974,premup-three_ses-02_part-02_label-phase2,3.2.4,MacIntel,60,,,,,,,,,,,,,,,,,,,,,,,,,,,,,
left,0.781000137,0,50,1,0,1,0,1,0,1,0,240,152,1,239,2,4,1,stim/41.jpeg,HouseObjects,2,stim/objects/HouseObjects/recyclingbin2.png,0.3,3,-0.2,-0.15,right,63,2021-03-30_13h04.40.974,premup-three_ses-02_part-02_label-phase2,3.2.4,MacIntel,60,,,,,,,,,,,,,,,,,,,,,,,,,,,,,
right,0.806000233,1,51,1,0,1,0,1,0,1,0,240,158,1,239,2,4,3,stim/43.jpeg,HouseObjects,2,stim/objects/HouseObjects/rubbergloves2.png,0.3,4,0.2,-0.15,right,63,2021-03-30_13h04.40.974,premup-three_ses-02_part-02_label-phase2,3.2.4,MacIntel,60,,,,,,,,,,,,,,,,,,,,,,,,,,,,,
left,0.629000187,1,52,1,0,1,0,1,0,1,0,240,86,1,239,2,3,3,stim/33.jpeg,Instruments,1,stim/objects/Instruments/trumpet.png,0.3,1,-0.2,0.15,left,63,2021-03-30_13h04.40.974,premup-three_ses-02_part-02_label-phase2,3.2.4,MacIntel,60,,,,,,,,,,,,,,,,,,,,,,,,,,,,,
left,0.53399992,1,53,1,0,1,0,1,0,1,0,240,220,1,239,3,6,1,stim/61.jpeg,Instruments,1,stim/objects/Instruments/triangle2.png,0.9,4,0.2,-0.15,left,63,2021-03-30_13h04.40.974,premup-three_ses-02_part-02_label-phase2,3.2.4,MacIntel,60,,,,,,,,,,,,,,,,,,,,,,,,,,,,,
left,0.64800024,0,54,1,0,1,0,1,0,1,0,240,116,1,239,2,3,1,stim/31.jpeg,HouseObjects,2,stim/objects/HouseObjects/spraybottle.png,0.7,3,-0.2,-0.15,right,63,2021-03-30_13h04.40.974,premup-three_ses-02_part-02_label-phase2,3.2.4,MacIntel,60,,,,,,,,,,,,,,,,,,,,,,,,,,,,,
right,0.808000088,1,55,1,0,1,0,1,0,1,0,240,34,1,239,1,1,3,stim/13.jpeg,HouseObjects,2,stim/objects/HouseObjects/rubbergloves.png,0.5,3,-0.2,-0.15,right,63,2021-03-30_13h04.40.974,premup-three_ses-02_part-02_label-phase2,3.2.4,MacIntel,60,,,,,,,,,,,,,,,,,,,,,,,,,,,,,
left,0.696000099,0,56,1,0,1,0,1,0,1,0,240,171,1,239,3,5,4,stim/54.jpeg,HouseObjects,2,stim/objects/HouseObjects/sponge2.png,0.9,4,0.2,-0.15,right,63,2021-03-30_13h04.40.974,premup-three_ses-02_part-02_label-phase2,3.2.4,MacIntel,60,,,,,,,,,,,,,,,,,,,,,,,,,,,,,
right,0.663000107,0,57,1,0,1,0,1,0,1,0,240,138,1,239,2,4,3,stim/43.jpeg,Instruments,1,stim/objects/Instruments/record2.png,0.7,2,0.2,0.15,left,63,2021-03-30_13h04.40.974,premup-three_ses-02_part-02_label-phase2,3.2.4,MacIntel,60,,,,,,,,,,,,,,,,,,,,,,,,,,,,,
left,0.679000139,0,58,1,0,1,0,1,0,1,0,240,36,1,239,1,1,1,stim/11.jpeg,HouseObjects,2,stim/objects/HouseObjects/recyclingbin.png,0.5,2,0.2,0.15,right,63,2021-03-30_13h04.40.974,premup-three_ses-02_part-02_label-phase2,3.2.4,MacIntel,60,,,,,,,,,,,,,,,,,,,,,,,,,,,,,
,,0,59,1,0,1,0,1,0,1,0,240,6,1,239,1,1,3,stim/13.jpeg,Instruments,1,stim/objects/Instruments/record.png,0.5,2,0.2,0.15,left,63,2021-03-30_13h04.40.974,premup-three_ses-02_part-02_label-phase2,3.2.4,MacIntel,60,,,,,,,,,,,,,,,,,,,,,,,,,,,,,
right,0.727999926,0,60,1,0,1,0,1,0,1,0,240,47,1,239,1,2,4,stim/24.jpeg,Instruments,1,stim/objects/Instruments/timbal.png,0.5,3,-0.2,-0.15,left,63,2021-03-30_13h04.40.974,premup-three_ses-02_part-02_label-phase2,3.2.4,MacIntel,60,,,,,,,,,,,,,,,,,,,,,,,,,,,,,
left,0.65199995,1,61,1,0,1,0,1,0,1,0,240,216,1,239,3,6,1,stim/61.jpeg,Instruments,1,stim/objects/Instruments/triangle2.png,0.9,2,0.2,0.15,left,63,2021-03-30_13h04.40.974,premup-three_ses-02_part-02_label-phase2,3.2.4,MacIntel,60,,,,,,,,,,,,,,,,,,,,,,,,,,,,,
left,0.660000086,0,62,1,0,1,0,1,0,1,0,240,115,1,239,2,3,4,stim/34.jpeg,HouseObjects,2,stim/objects/HouseObjects/thread.png,0.7,4,0.2,-0.15,right,63,2021-03-30_13h04.40.974,premup-three_ses-02_part-02_label-phase2,3.2.4,MacIntel,60,,,,,,,,,,,,,,,,,,,,,,,,,,,,,
right,0.594000101,0,63,1,0,1,0,1,0,1,0,240,57,1,239,1,2,2,stim/22.jpeg,Instruments,1,stim/objects/Instruments/speaker.png,0.5,1,-0.2,0.15,left,63,2021-03-30_13h04.40.974,premup-three_ses-02_part-02_label-phase2,3.2.4,MacIntel,60,,,,,,,,,,,,,,,,,,,,,,,,,,,,,
left,0.656000137,1,64,1,0,1,0,1,0,1,0,240,225,1,239,3,6,2,stim/62.jpeg,Instruments,1,stim/objects/Instruments/trombone2.png,0.9,4,0.2,-0.15,left,63,2021-03-30_13h04.40.974,premup-three_ses-02_part-02_label-phase2,3.2.4,MacIntel,60,,,,,,,,,,,,,,,,,,,,,,,,,,,,,
left,0.616000175,1,65,1,0,1,0,1,0,1,0,240,202,1,239,3,6,3,stim/63.jpeg,Instruments,1,stim/objects/Instruments/trumpet2.png,0.9,4,0.2,-0.15,left,63,2021-03-30_13h04.40.974,premup-three_ses-02_part-02_label-phase2,3.2.4,MacIntel,60,,,,,,,,,,,,,,,,,,,,,,,,,,,,,
left,0.578999996,1,66,1,0,1,0,1,0,1,0,240,226,1,239,3,6,3,stim/63.jpeg,Instruments,1,stim/objects/Instruments/trumpet2.png,0.9,2,0.2,0.15,left,63,2021-03-30_13h04.40.974,premup-three_ses-02_part-02_label-phase2,3.2.4,MacIntel,60,,,,,,,,,,,,,,,,,,,,,,,,,,,,,
right,0.667000055,1,67,1,0,1,0,1,0,1,0,240,106,1,239,2,3,3,stim/33.jpeg,HouseObjects,2,stim/objects/HouseObjects/thermometer.png,0.7,1,-0.2,0.15,right,63,2021-03-30_13h04.40.974,premup-three_ses-02_part-02_label-phase2,3.2.4,MacIntel,60,,,,,,,,,,,,,,,,,,,,,,,,,,,,,
left,0.730999947,1,68,1,0,1,0,1,0,1,0,240,136,1,239,2,4,1,stim/41.jpeg,Instruments,1,stim/objects/Instruments/panflute2.png,0.7,3,-0.2,-0.15,left,63,2021-03-30_13h04.40.974,premup-three_ses-02_part-02_label-phase2,3.2.4,MacIntel,60,,,,,,,,,,,,,,,,,,,,,,,,,,,,,
,,0,69,1,0,1,0,1,0,1,0,240,150,1,239,2,4,3,stim/43.jpeg,HouseObjects,2,stim/objects/HouseObjects/rubbergloves2.png,0.3,3,-0.2,-0.15,right,63,2021-03-30_13h04.40.974,premup-three_ses-02_part-02_label-phase2,3.2.4,MacIntel,60,,,,,,,,,,,,,,,,,,,,,,,,,,,,,
left,0.782999992,1,70,1,0,1,0,1,0,1,0,240,7,1,239,1,1,4,stim/14.jpeg,Instruments,1,stim/objects/Instruments/record_player.png,0.5,4,0.2,-0.15,left,63,2021-03-30_13h04.40.974,premup-three_ses-02_part-02_label-phase2,3.2.4,MacIntel,60,,,,,,,,,,,,,,,,,,,,,,,,,,,,,
left,0.766000271,0,71,1,0,1,0,1,0,1,0,240,119,1,239,2,3,4,stim/34.jpeg,HouseObjects,2,stim/objects/HouseObjects/thread.png,0.7,3,-0.2,-0.15,right,63,2021-03-30_13h04.40.974,premup-three_ses-02_part-02_label-phase2,3.2.4,MacIntel,60,,,,,,,,,,,,,,,,,,,,,,,,,,,,,
right,0.80099988,0,72,1,0,1,0,1,0,1,0,240,59,1,239,1,2,4,stim/24.jpeg,Instruments,1,stim/objects/Instruments/timbal.png,0.5,1,-0.2,0.15,left,63,2021-03-30_13h04.40.974,premup-three_ses-02_part-02_label-phase2,3.2.4,MacIntel,60,,,,,,,,,,,,,,,,,,,,,,,,,,,,,
left,0.777999878,1,73,1,0,1,0,1,0,1,0,240,19,1,239,1,1,4,stim/14.jpeg,Instruments,1,stim/objects/Instruments/record_player.png,0.5,1,-0.2,0.15,left,63,2021-03-30_13h04.40.974,premup-three_ses-02_part-02_label-phase2,3.2.4,MacIntel,60,,,,,,,,,,,,,,,,,,,,,,,,,,,,,
right,0.715000153,0,74,1,0,1,0,1,0,1,0,240,161,1,239,3,5,2,stim/52.jpeg,Instruments,1,stim/objects/Instruments/speaker2.png,0.1,3,-0.2,-0.15,left,63,2021-03-30_13h04.40.974,premup-three_ses-02_part-02_label-phase2,3.2.4,MacIntel,60,,,,,,,,,,,,,,,,,,,,,,,,,,,,,
,,0,75,1,0,1,0,1,0,1,0,240,121,1,239,2,4,2,stim/42.jpeg,Instruments,1,stim/objects/Instruments/pipepiano2.png,0.7,3,-0.2,-0.15,left,63,2021-03-30_13h04.40.974,premup-three_ses-02_part-02_label-phase2,3.2.4,MacIntel,60,,,,,,,,,,,,,,,,,,,,,,,,,,,,,
right,0.548000097,1,76,1,0,1,0,1,0,1,0,240,197,1,239,3,5,2,stim/52.jpeg,HouseObjects,2,stim/objects/HouseObjects/saw2.png,0.9,2,0.2,0.15,right,63,2021-03-30_13h04.40.974,premup-three_ses-02_part-02_label-phase2,3.2.4,MacIntel,60,,,,,,,,,,,,,,,,,,,,,,,,,,,,,
left,0.648000002,0,77,1,0,1,0,1,0,1,0,240,21,1,239,1,1,2,stim/12.jpeg,HouseObjects,2,stim/objects/HouseObjects/remote.png,0.5,2,0.2,0.15,right,63,2021-03-30_13h04.40.974,premup-three_ses-02_part-02_label-phase2,3.2.4,MacIntel,60,,,,,,,,,,,,,,,,,,,,,,,,,,,,,
right,0.677000046,1,78,1,0,1,0,1,0,1,0,240,193,1,239,3,5,2,stim/52.jpeg,HouseObjects,2,stim/objects/HouseObjects/saw2.png,0.9,3,-0.2,-0.15,right,63,2021-03-30_13h04.40.974,premup-three_ses-02_part-02_label-phase2,3.2.4,MacIntel,60,,,,,,,,,,,,,,,,,,,,,,,,,,,,,
left,0.623000145,1,79,1,0,1,0,1,0,1,0,240,223,1,239,3,6,4,stim/64.jpeg,Instruments,1,stim/objects/Instruments/tuba2.png,0.9,2,0.2,0.15,left,63,2021-03-30_13h04.40.974,premup-three_ses-02_part-02_label-phase2,3.2.4,MacIntel,60,,,,,,,,,,,,,,,,,,,,,,,,,,,,,
left,0.624000072,0,80,1,0,1,0,1,0,1,0,240,111,1,239,2,3,4,stim/34.jpeg,HouseObjects,2,stim/objects/HouseObjects/thread.png,0.7,2,0.2,0.15,right,63,2021-03-30_13h04.40.974,premup-three_ses-02_part-02_label-phase2,3.2.4,MacIntel,60,,,,,,,,,,,,,,,,,,,,,,,,,,,,,
right,0.840000153,1,81,1,0,1,0,1,0,1,0,240,113,1,239,2,3,2,stim/32.jpeg,HouseObjects,2,stim/objects/HouseObjects/teapot.png,0.7,3,-0.2,-0.15,right,63,2021-03-30_13h04.40.974,premup-three_ses-02_part-02_label-phase2,3.2.4,MacIntel,60,,,,,,,,,,,,,,,,,,,,,,,,,,,,,
left,0.651000261,1,82,1,0,1,0,1,0,1,0,240,122,1,239,2,4,3,stim/43.jpeg,Instruments,1,stim/objects/Instruments/record2.png,0.7,3,-0.2,-0.15,left,63,2021-03-30_13h04.40.974,premup-three_ses-02_part-02_label-phase2,3.2.4,MacIntel,60,,,,,,,,,,,,,,,,,,,,,,,,,,,,,
right,0.618999958,1,83,1,0,1,0,1,0,1,0,240,172,1,239,3,5,1,stim/51.jpeg,HouseObjects,2,stim/objects/HouseObjects/safetypin2.png,0.9,3,-0.2,-0.15,right,63,2021-03-30_13h04.40.974,premup-three_ses-02_part-02_label-phase2,3.2.4,MacIntel,60,,,,,,,,,,,,,,,,,,,,,,,,,,,,,
left,0.585000277,1,84,1,0,1,0,1,0,1,0,240,56,1,239,1,2,1,stim/21.jpeg,Instruments,1,stim/objects/Instruments/saxophone.png,0.5,4,0.2,-0.15,left,63,2021-03-30_13h04.40.974,premup-three_ses-02_part-02_label-phase2,3.2.4,MacIntel,60,,,,,,,,,,,,,,,,,,,,,,,,,,,,,
right,0.580000162,1,85,1,0,1,0,1,0,1,0,240,103,1,239,2,3,4,stim/34.jpeg,HouseObjects,2,stim/objects/HouseObjects/thread.png,0.7,3,-0.2,-0.15,right,63,2021-03-30_13h04.40.974,premup-three_ses-02_part-02_label-phase2,3.2.4,MacIntel,60,,,,,,,,,,,,,,,,,,,,,,,,,,,,,
left,0.697000265,0,86,1,0,1,0,1,0,1,0,240,148,1,239,2,4,1,stim/41.jpeg,HouseObjects,2,stim/objects/HouseObjects/recyclingbin2.png,0.3,4,0.2,-0.15,right,63,2021-03-30_13h04.40.974,premup-three_ses-02_part-02_label-phase2,3.2.4,MacIntel,60,,,,,,,,,,,,,,,,,,,,,,,,,,,,,
left,0.628000259,1,87,1,0,1,0,1,0,1,0,240,231,1,239,3,6,4,stim/64.jpeg,Instruments,1,stim/objects/Instruments/tuba2.png,0.9,3,-0.2,-0.15,left,63,2021-03-30_13h04.40.974,premup-three_ses-02_part-02_label-phase2,3.2.4,MacIntel,60,,,,,,,,,,,,,,,,,,,,,,,,,,,,,
,,0,88,1,0,1,0,1,0,1,0,240,42,1,239,1,2,3,stim/23.jpeg,Instruments,1,stim/objects/Instruments/tambourine.png,0.5,3,-0.2,-0.15,left,63,2021-03-30_13h04.40.974,premup-three_ses-02_part-02_label-phase2,3.2.4,MacIntel,60,,,,,,,,,,,,,,,,,,,,,,,,,,,,,
right,0.555000067,0,89,1,0,1,0,1,0,1,0,240,87,1,239,2,3,4,stim/34.jpeg,Instruments,1,stim/objects/Instruments/tuba.png,0.3,2,0.2,0.15,left,63,2021-03-30_13h04.40.974,premup-three_ses-02_part-02_label-phase2,3.2.4,MacIntel,60,,,,,,,,,,,,,,,,,,,,,,,,,,,,,
left,0.695000172,1,90,1,0,1,0,1,0,1,0,240,213,1,239,3,6,2,stim/62.jpeg,Instruments,1,stim/objects/Instruments/trombone2.png,0.9,1,-0.2,0.15,left,63,2021-03-30_13h04.40.974,premup-three_ses-02_part-02_label-phase2,3.2.4,MacIntel,60,,,,,,,,,,,,,,,,,,,,,,,,,,,,,
right,0.630000114,0,91,1,0,1,0,1,0,1,0,240,162,1,239,3,5,3,stim/53.jpeg,Instruments,1,stim/objects/Instruments/tambourine2.png,0.1,4,0.2,-0.15,left,63,2021-03-30_13h04.40.974,premup-three_ses-02_part-02_label-phase2,3.2.4,MacIntel,60,,,,,,,,,,,,,,,,,,,,,,,,,,,,,
right,0.685000181,0,92,1,0,1,0,1,0,1,0,240,51,1,239,1,2,4,stim/24.jpeg,Instruments,1,stim/objects/Instruments/timbal.png,0.5,4,0.2,-0.15,left,63,2021-03-30_13h04.40.974,premup-three_ses-02_part-02_label-phase2,3.2.4,MacIntel,60,,,,,,,,,,,,,,,,,,,,,,,,,,,,,
right,0.568000317,0,93,1,0,1,0,1,0,1,0,240,41,1,239,1,2,2,stim/22.jpeg,Instruments,1,stim/objects/Instruments/speaker.png,0.5,4,0.2,-0.15,left,63,2021-03-30_13h04.40.974,premup-three_ses-02_part-02_label-phase2,3.2.4,MacIntel,60,,,,,,,,,,,,,,,,,,,,,,,,,,,,,
right,0.578000069,0,94,1,0,1,0,1,0,1,0,240,54,1,239,1,2,3,stim/23.jpeg,Instruments,1,stim/objects/Instruments/tambourine.png,0.5,4,0.2,-0.15,left,63,2021-03-30_13h04.40.974,premup-three_ses-02_part-02_label-phase2,3.2.4,MacIntel,60,,,,,,,,,,,,,,,,,,,,,,,,,,,,,
left,0.603000164,0,95,1,0,1,0,1,0,1,0,240,108,1,239,2,3,1,stim/31.jpeg,HouseObjects,2,stim/objects/HouseObjects/spraybottle.png,0.7,2,0.2,0.15,right,63,2021-03-30_13h04.40.974,premup-three_ses-02_part-02_label-phase2,3.2.4,MacIntel,60,,,,,,,,,,,,,,,,,,,,,,,,,,,,,
right,0.786000013,0,96,1,0,1,0,1,0,1,0,240,200,1,239,3,6,1,stim/61.jpeg,Instruments,1,stim/objects/Instruments/triangle2.png,0.9,3,-0.2,-0.15,left,63,2021-03-30_13h04.40.974,premup-three_ses-02_part-02_label-phase2,3.2.4,MacIntel,60,,,,,,,,,,,,,,,,,,,,,,,,,,,,,
left,0.756999969,0,97,1,0,1,0,1,0,1,0,240,37,1,239,1,1,2,stim/12.jpeg,HouseObjects,2,stim/objects/HouseObjects/remote.png,0.5,3,-0.2,-0.15,right,63,2021-03-30_13h04.40.974,premup-three_ses-02_part-02_label-phase2,3.2.4,MacIntel,60,,,,,,,,,,,,,,,,,,,,,,,,,,,,,
right,0.789999962,1,98,1,0,1,0,1,0,1,0,240,175,1,239,3,5,4,stim/54.jpeg,HouseObjects,2,stim/objects/HouseObjects/sponge2.png,0.9,3,-0.2,-0.15,right,63,2021-03-30_13h04.40.974,premup-three_ses-02_part-02_label-phase2,3.2.4,MacIntel,60,,,,,,,,,,,,,,,,,,,,,,,,,,,,,
left,0.819000006,0,99,1,0,1,0,1,0,1,0,240,39,1,239,1,1,4,stim/14.jpeg,HouseObjects,2,stim/objects/HouseObjects/rug.png,0.5,1,-0.2,0.15,right,63,2021-03-30_13h04.40.974,premup-three_ses-02_part-02_label-phase2,3.2.4,MacIntel,60,,,,,,,,,,,,,,,,,,,,,,,,,,,,,
left,0.816000223,0,100,1,0,1,0,1,0,1,0,240,75,1,239,1,2,4,stim/24.jpeg,HouseObjects,2,stim/objects/HouseObjects/sponge.png,0.5,1,-0.2,0.15,right,63,2021-03-30_13h04.40.974,premup-three_ses-02_part-02_label-phase2,3.2.4,MacIntel,60,,,,,,,,,,,,,,,,,,,,,,,,,,,,,
right,0.832000256,1,101,1,0,1,0,1,0,1,0,240,191,1,239,3,5,4,stim/54.jpeg,HouseObjects,2,stim/objects/HouseObjects/sponge2.png,0.9,2,0.2,0.15,right,63,2021-03-30_13h04.40.974,premup-three_ses-02_part-02_label-phase2,3.2.4,MacIntel,60,,,,,,,,,,,,,,,,,,,,,,,,,,,,,
right,0.84800005,1,102,1,0,1,0,1,0,1,0,240,168,1,239,3,5,1,stim/51.jpeg,HouseObjects,2,stim/objects/HouseObjects/safetypin2.png,0.9,2,0.2,0.15,right,63,2021-03-30_13h04.40.974,premup-three_ses-02_part-02_label-phase2,3.2.4,MacIntel,60,,,,,,,,,,,,,,,,,,,,,,,,,,,,,
,,0,103,1,0,1,0,1,0,1,0,240,142,1,239,2,4,3,stim/43.jpeg,Instruments,1,stim/objects/Instruments/record2.png,0.7,1,-0.2,0.15,left,63,2021-03-30_13h04.40.974,premup-three_ses-02_part-02_label-phase2,3.2.4,MacIntel,60,,,,,,,,,,,,,,,,,,,,,,,,,,,,,
right,0.645999908,1,104,1,0,1,0,1,0,1,0,240,198,1,239,3,5,3,stim/53.jpeg,HouseObjects,2,stim/objects/HouseObjects/scale2.png,0.9,1,-0.2,0.15,right,63,2021-03-30_13h04.40.974,premup-three_ses-02_part-02_label-phase2,3.2.4,MacIntel,60,,,,,,,,,,,,,,,,,,,,,,,,,,,,,
right,0.697000027,1,105,1,0,1,0,1,0,1,0,240,23,1,239,1,1,4,stim/14.jpeg,HouseObjects,2,stim/objects/HouseObjects/rug.png,0.5,2,0.2,0.15,right,63,2021-03-30_13h04.40.974,premup-three_ses-02_part-02_label-phase2,3.2.4,MacIntel,60,,,,,,,,,,,,,,,,,,,,,,,,,,,,,
left,0.59100008,1,106,1,0,1,0,1,0,1,0,240,234,1,239,3,6,3,stim/63.jpeg,Instruments,1,stim/objects/Instruments/trumpet2.png,0.9,4,0.2,-0.15,left,63,2021-03-30_13h04.40.974,premup-three_ses-02_part-02_label-phase2,3.2.4,MacIntel,60,,,,,,,,,,,,,,,,,,,,,,,,,,,,,
,,0,107,1,0,1,0,1,0,1,0,240,187,1,239,3,5,4,stim/54.jpeg,HouseObjects,2,stim/objects/HouseObjects/sponge2.png,0.9,1,-0.2,0.15,right,63,2021-03-30_13h04.40.974,premup-three_ses-02_part-02_label-phase2,3.2.4,MacIntel,60,,,,,,,,,,,,,,,,,,,,,,,,,,,,,
right,0.566999912,1,108,1,0,1,0,1,0,1,0,240,92,1,239,2,3,1,stim/31.jpeg,HouseObjects,2,stim/objects/HouseObjects/spraybottle.png,0.7,3,-0.2,-0.15,right,63,2021-03-30_13h04.40.974,premup-three_ses-02_part-02_label-phase2,3.2.4,MacIntel,60,,,,,,,,,,,,,,,,,,,,,,,,,,,,,
right,0.546000004,1,109,1,0,1,0,1,0,1,0,240,190,1,239,3,5,3,stim/53.jpeg,HouseObjects,2,stim/objects/HouseObjects/scale2.png,0.9,2,0.2,0.15,right,63,2021-03-30_13h04.40.974,premup-three_ses-02_part-02_label-phase2,3.2.4,MacIntel,60,,,,,,,,,,,,,,,,,,,,,,,,,,,,,
right,0.624000072,0,110,1,0,1,0,1,0,1,0,240,88,1,239,2,3,1,stim/31.jpeg,Instruments,1,stim/objects/Instruments/triangle.png,0.3,3,-0.2,-0.15,left,63,2021-03-30_13h04.40.974,premup-three_ses-02_part-02_label-phase2,3.2.4,MacIntel,60,,,,,,,,,,,,,,,,,,,,,,,,,,,,,
right,0.619000196,1,111,1,0,1,0,1,0,1,0,240,182,1,239,3,5,3,stim/53.jpeg,HouseObjects,2,stim/objects/HouseObjects/scale2.png,0.9,1,-0.2,0.15,right,63,2021-03-30_13h04.40.974,premup-three_ses-02_part-02_label-phase2,3.2.4,MacIntel,60,,,,,,,,,,,,,,,,,,,,,,,,,,,,,
right,0.694999933,1,112,1,0,1,0,1,0,1,0,240,98,1,239,2,3,3,stim/33.jpeg,HouseObjects,2,stim/objects/HouseObjects/thermometer.png,0.7,1,-0.2,0.15,right,63,2021-03-30_13h04.40.974,premup-three_ses-02_part-02_label-phase2,3.2.4,MacIntel,60,,,,,,,,,,,,,,,,,,,,,,,,,,,,,
left,0.692000151,1,113,1,0,1,0,1,0,1,0,240,221,1,239,3,6,2,stim/62.jpeg,Instruments,1,stim/objects/Instruments/trombone2.png,0.9,1,-0.2,0.15,left,63,2021-03-30_13h04.40.974,premup-three_ses-02_part-02_label-phase2,3.2.4,MacIntel,60,,,,,,,,,,,,,,,,,,,,,,,,,,,,,
right,0.628000021,0,114,1,0,1,0,1,0,1,0,240,12,1,239,1,1,1,stim/11.jpeg,Instruments,1,stim/objects/Instruments/panflute.png,0.5,1,-0.2,0.15,left,63,2021-03-30_13h04.40.974,premup-three_ses-02_part-02_label-phase2,3.2.4,MacIntel,60,,,,,,,,,,,,,,,,,,,,,,,,,,,,,
right,0.747000217,1,115,1,0,1,0,1,0,1,0,240,176,1,239,3,5,1,stim/51.jpeg,HouseObjects,2,stim/objects/HouseObjects/safetypin2.png,0.9,1,-0.2,0.15,right,63,2021-03-30_13h04.40.974,premup-three_ses-02_part-02_label-phase2,3.2.4,MacIntel,60,,,,,,,,,,,,,,,,,,,,,,,,,,,,,
right,0.759000063,1,116,1,0,1,0,1,0,1,0,240,99,1,239,2,3,4,stim/34.jpeg,HouseObjects,2,stim/objects/HouseObjects/thread.png,0.7,4,0.2,-0.15,right,63,2021-03-30_13h04.40.974,premup-three_ses-02_part-02_label-phase2,3.2.4,MacIntel,60,,,,,,,,,,,,,,,,,,,,,,,,,,,,,
right,0.676000118,1,117,1,0,1,0,1,0,1,0,240,64,1,239,1,2,1,stim/21.jpeg,HouseObjects,2,stim/objects/HouseObjects/safetypin.png,0.5,4,0.2,-0.15,right,63,2021-03-30_13h04.40.974,premup-three_ses-02_part-02_label-phase2,3.2.4,MacIntel,60,,,,,,,,,,,,,,,,,,,,,,,,,,,,,
left,0.626000166,1,118,1,0,1,0,1,0,1,0,240,208,1,239,3,6,1,stim/61.jpeg,Instruments,1,stim/objects/Instruments/triangle2.png,0.9,2,0.2,0.15,left,63,2021-03-30_13h04.40.974,premup-three_ses-02_part-02_label-phase2,3.2.4,MacIntel,60,,,,,,,,,,,,,,,,,,,,,,,,,,,,,
left,0.71600008,0,119,1,0,1,0,1,0,1,0,240,118,1,239,2,3,3,stim/33.jpeg,HouseObjects,2,stim/objects/HouseObjects/thermometer.png,0.7,4,0.2,-0.15,right,63,2021-03-30_13h04.40.974,premup-three_ses-02_part-02_label-phase2,3.2.4,MacIntel,60,,,,,,,,,,,,,,,,,,,,,,,,,,,,,
left,0.761000156,1,120,1,0,1,0,1,0,1,0,240,219,1,239,3,6,4,stim/64.jpeg,Instruments,1,stim/objects/Instruments/tuba2.png,0.9,2,0.2,0.15,left,63,2021-03-30_13h04.40.974,premup-three_ses-02_part-02_label-phase2,3.2.4,MacIntel,60,,,,,,,,,,,,,,,,,,,,,,,,,,,,,
right,0.684000254,0,121,1,0,1,0,1,0,1,0,240,89,1,239,2,3,2,stim/32.jpeg,Instruments,1,stim/objects/Instruments/trombone.png,0.3,3,-0.2,-0.15,left,63,2021-03-30_13h04.40.974,premup-three_ses-02_part-02_label-phase2,3.2.4,MacIntel,60,,,,,,,,,,,,,,,,,,,,,,,,,,,,,
left,0.844000101,0,122,1,0,1,0,1,0,1,0,240,30,1,239,1,1,3,stim/13.jpeg,HouseObjects,2,stim/objects/HouseObjects/rubbergloves.png,0.5,3,-0.2,-0.15,right,63,2021-03-30_13h04.40.974,premup-three_ses-02_part-02_label-phase2,3.2.4,MacIntel,60,,,,,,,,,,,,,,,,,,,,,,,,,,,,,
right,0.645000219,0,123,1,0,1,0,1,0,1,0,240,91,1,239,2,3,4,stim/34.jpeg,Instruments,1,stim/objects/Instruments/tuba.png,0.3,3,-0.2,-0.15,left,63,2021-03-30_13h04.40.974,premup-three_ses-02_part-02_label-phase2,3.2.4,MacIntel,60,,,,,,,,,,,,,,,,,,,,,,,,,,,,,
left,0.684000015,0,124,1,0,1,0,1,0,1,0,240,97,1,239,2,3,2,stim/32.jpeg,HouseObjects,2,stim/objects/HouseObjects/teapot.png,0.7,4,0.2,-0.15,right,63,2021-03-30_13h04.40.974,premup-three_ses-02_part-02_label-phase2,3.2.4,MacIntel,60,,,,,,,,,,,,,,,,,,,,,,,,,,,,,
,,0,125,1,0,1,0,1,0,1,0,240,5,1,239,1,1,2,stim/12.jpeg,Instruments,1,stim/objects/Instruments/pipepiano.png,0.5,2,0.2,0.15,left,63,2021-03-30_13h04.40.974,premup-three_ses-02_part-02_label-phase2,3.2.4,MacIntel,60,,,,,,,,,,,,,,,,,,,,,,,,,,,,,
right,0.759000063,1,126,1,0,1,0,1,0,1,0,240,196,1,239,3,5,1,stim/51.jpeg,HouseObjects,2,stim/objects/HouseObjects/safetypin2.png,0.9,3,-0.2,-0.15,right,63,2021-03-30_13h04.40.974,premup-three_ses-02_part-02_label-phase2,3.2.4,MacIntel,60,,,,,,,,,,,,,,,,,,,,,,,,,,,,,
left,0.744000196,1,127,1,0,1,0,1,0,1,0,240,147,1,239,2,4,4,stim/44.jpeg,Instruments,1,stim/objects/Instruments/record_player2.png,0.7,2,0.2,0.15,left,63,2021-03-30_13h04.40.974,premup-three_ses-02_part-02_label-phase2,3.2.4,MacIntel,60,,,,,,,,,,,,,,,,,,,,,,,,,,,,,
left,0.531000137,0,128,1,0,1,0,1,0,1,0,240,164,1,239,3,5,1,stim/51.jpeg,HouseObjects,2,stim/objects/HouseObjects/safetypin2.png,0.9,2,0.2,0.15,right,63,2021-03-30_13h04.40.974,premup-three_ses-02_part-02_label-phase2,3.2.4,MacIntel,60,,,,,,,,,,,,,,,,,,,,,,,,,,,,,
,,0,129,1,0,1,0,1,0,1,0,240,66,1,239,1,2,3,stim/23.jpeg,HouseObjects,2,stim/objects/HouseObjects/scale.png,0.5,4,0.2,-0.15,right,63,2021-03-30_13h04.40.974,premup-three_ses-02_part-02_label-phase2,3.2.4,MacIntel,60,,,,,,,,,,,,,,,,,,,,,,,,,,,,,
left,0.631000042,1,130,1,0,1,0,1,0,1,0,240,212,1,239,3,6,1,stim/61.jpeg,Instruments,1,stim/objects/Instruments/triangle2.png,0.9,3,-0.2,-0.15,left,63,2021-03-30_13h04.40.974,premup-three_ses-02_part-02_label-phase2,3.2.4,MacIntel,60,,,,,,,,,,,,,,,,,,,,,,,,,,,,,
left,0.86500001,0,131,1,0,1,0,1,0,1,0,240,78,1,239,1,2,3,stim/23.jpeg,HouseObjects,2,stim/objects/HouseObjects/scale.png,0.5,1,-0.2,0.15,right,63,2021-03-30_13h04.40.974,premup-three_ses-02_part-02_label-phase2,3.2.4,MacIntel,60,,,,,,,,,,,,,,,,,,,,,,,,,,,,,
left,0.782999992,1,132,1,0,1,0,1,0,1,0,240,9,1,239,1,1,2,stim/12.jpeg,Instruments,1,stim/objects/Instruments/pipepiano.png,0.5,3,-0.2,-0.15,left,63,2021-03-30_13h04.40.974,premup-three_ses-02_part-02_label-phase2,3.2.4,MacIntel,60,,,,,,,,,,,,,,,,,,,,,,,,,,,,,
left,0.499000072,0,133,1,0,1,0,1,0,1,0,240,25,1,239,1,1,2,stim/12.jpeg,HouseObjects,2,stim/objects/HouseObjects/remote.png,0.5,2,0.2,0.15,right,63,2021-03-30_13h04.40.974,premup-three_ses-02_part-02_label-phase2,3.2.4,MacIntel,60,,,,,,,,,,,,,,,,,,,,,,,,,,,,,
right,0.845999956,0,134,1,0,1,0,1,0,1,0,240,50,1,239,1,2,3,stim/23.jpeg,Instruments,1,stim/objects/Instruments/tambourine.png,0.5,4,0.2,-0.15,left,63,2021-03-30_13h04.40.974,premup-three_ses-02_part-02_label-phase2,3.2.4,MacIntel,60,,,,,,,,,,,,,,,,,,,,,,,,,,,,,
right,0.799000263,1,135,1,0,1,0,1,0,1,0,240,189,1,239,3,5,2,stim/52.jpeg,HouseObjects,2,stim/objects/HouseObjects/saw2.png,0.9,3,-0.2,-0.15,right,63,2021-03-30_13h04.40.974,premup-three_ses-02_part-02_label-phase2,3.2.4,MacIntel,60,,,,,,,,,,,,,,,,,,,,,,,,,,,,,
left,0.684999943,0,136,1,0,1,0,1,0,1,0,240,166,1,239,3,5,3,stim/53.jpeg,HouseObjects,2,stim/objects/HouseObjects/scale2.png,0.9,2,0.2,0.15,right,63,2021-03-30_13h04.40.974,premup-three_ses-02_part-02_label-phase2,3.2.4,MacIntel,60,,,,,,,,,,,,,,,,,,,,,,,,,,,,,
right,0.745000124,1,137,1,0,1,0,1,0,1,0,240,95,1,239,2,3,4,stim/34.jpeg,HouseObjects,2,stim/objects/HouseObjects/thread.png,0.7,4,0.2,-0.15,right,63,2021-03-30_13h04.40.974,premup-three_ses-02_part-02_label-phase2,3.2.4,MacIntel,60,,,,,,,,,,,,,,,,,,,,,,,,,,,,,
left,0.671000004,1,138,1,0,1,0,1,0,1,0,240,217,1,239,3,6,2,stim/62.jpeg,Instruments,1,stim/objects/Instruments/trombone2.png,0.9,1,-0.2,0.15,left,63,2021-03-30_13h04.40.974,premup-three_ses-02_part-02_label-phase2,3.2.4,MacIntel,60,,,,,,,,,,,,,,,,,,,,,,,,,,,,,
right,0.881000042,1,139,1,0,1,0,1,0,1,0,240,165,1,239,3,5,2,stim/52.jpeg,HouseObjects,2,stim/objects/HouseObjects/saw2.png,0.9,2,0.2,0.15,right,63,2021-03-30_13h04.40.974,premup-three_ses-02_part-02_label-phase2,3.2.4,MacIntel,60,,,,,,,,,,,,,,,,,,,,,,,,,,,,,
right,0.786000013,0,140,1,0,1,0,1,0,1,0,240,82,1,239,2,3,3,stim/33.jpeg,Instruments,1,stim/objects/Instruments/trumpet.png,0.3,3,-0.2,-0.15,left,63,2021-03-30_13h04.40.974,premup-three_ses-02_part-02_label-phase2,3.2.4,MacIntel,60,,,,,,,,,,,,,,,,,,,,,,,,,,,,,
left,0.861999989,1,141,1,0,1,0,1,0,1,0,240,49,1,239,1,2,2,stim/22.jpeg,Instruments,1,stim/objects/Instruments/speaker.png,0.5,4,0.2,-0.15,left,63,2021-03-30_13h04.40.974,premup-three_ses-02_part-02_label-phase2,3.2.4,MacIntel,60,,,,,,,,,,,,,,,,,,,,,,,,,,,,,
left,0.77699995,0,142,1,0,1,0,1,0,1,0,240,35,1,239,1,1,4,stim/14.jpeg,HouseObjects,2,stim/objects/HouseObjects/rug.png,0.5,3,-0.2,-0.15,right,63,2021-03-30_13h04.40.974,premup-three_ses-02_part-02_label-phase2,3.2.4,MacIntel,60,,,,,,,,,,,,,,,,,,,,,,,,,,,,,
,,0,143,1,0,1,0,1,0,1,0,240,45,1,239,1,2,2,stim/22.jpeg,Instruments,1,stim/objects/Instruments/speaker.png,0.5,1,-0.2,0.15,left,63,2021-03-30_13h04.40.974,premup-three_ses-02_part-02_label-phase2,3.2.4,MacIntel,60,,,,,,,,,,,,,,,,,,,,,,,,,,,,,
right,0.673000097,1,144,1,0,1,0,1,0,1,0,240,174,1,239,3,5,3,stim/53.jpeg,HouseObjects,2,stim/objects/HouseObjects/scale2.png,0.9,2,0.2,0.15,right,63,2021-03-30_13h04.40.974,premup-three_ses-02_part-02_label-phase2,3.2.4,MacIntel,60,,,,,,,,,,,,,,,,,,,,,,,,,,,,,
right,0.555999994,0,145,1,0,1,0,1,0,1,0,240,131,1,239,2,4,4,stim/44.jpeg,Instruments,1,stim/objects/Instruments/record_player2.png,0.7,1,-0.2,0.15,left,63,2021-03-30_13h04.40.974,premup-three_ses-02_part-02_label-phase2,3.2.4,MacIntel,60,,,,,,,,,,,,,,,,,,,,,,,,,,,,,
right,0.59100008,1,146,1,0,1,0,1,0,1,0,240,194,1,239,3,5,3,stim/53.jpeg,HouseObjects,2,stim/objects/HouseObjects/scale2.png,0.9,1,-0.2,0.15,right,63,2021-03-30_13h04.40.974,premup-three_ses-02_part-02_label-phase2,3.2.4,MacIntel,60,,,,,,,,,,,,,,,,,,,,,,,,,,,,,
right,0.576000214,1,147,1,0,1,0,1,0,1,0,240,186,1,239,3,5,3,stim/53.jpeg,HouseObjects,2,stim/objects/HouseObjects/scale2.png,0.9,2,0.2,0.15,right,63,2021-03-30_13h04.40.974,premup-three_ses-02_part-02_label-phase2,3.2.4,MacIntel,60,,,,,,,,,,,,,,,,,,,,,,,,,,,,,
left,0.654000044,1,148,1,0,1,0,1,0,1,0,240,232,1,239,3,6,1,stim/61.jpeg,Instruments,1,stim/objects/Instruments/triangle2.png,0.9,2,0.2,0.15,left,63,2021-03-30_13h04.40.974,premup-three_ses-02_part-02_label-phase2,3.2.4,MacIntel,60,,,,,,,,,,,,,,,,,,,,,,,,,,,,,
right,0.544000149,0,149,1,0,1,0,1,0,1,0,240,160,1,239,3,5,1,stim/51.jpeg,Instruments,1,stim/objects/Instruments/saxophone2.png,0.1,4,0.2,-0.15,left,63,2021-03-30_13h04.40.974,premup-three_ses-02_part-02_label-phase2,3.2.4,MacIntel,60,,,,,,,,,,,,,,,,,,,,,,,,,,,,,
left,0.710999966,1,150,1,0,1,0,1,0,1,0,240,227,1,239,3,6,4,stim/64.jpeg,Instruments,1,stim/objects/Instruments/tuba2.png,0.9,3,-0.2,-0.15,left,63,2021-03-30_13h04.40.974,premup-three_ses-02_part-02_label-phase2,3.2.4,MacIntel,60,,,,,,,,,,,,,,,,,,,,,,,,,,,,,
,,0,151,1,0,1,0,1,0,1,0,240,143,1,239,2,4,4,stim/44.jpeg,Instruments,1,stim/objects/Instruments/record_player2.png,0.7,1,-0.2,0.15,left,63,2021-03-30_13h04.40.974,premup-three_ses-02_part-02_label-phase2,3.2.4,MacIntel,60,,,,,,,,,,,,,,,,,,,,,,,,,,,,,
right,0.545000076,1,152,1,0,1,0,1,0,1,0,240,101,1,239,2,3,2,stim/32.jpeg,HouseObjects,2,stim/objects/HouseObjects/teapot.png,0.7,3,-0.2,-0.15,right,63,2021-03-30_13h04.40.974,premup-three_ses-02_part-02_label-phase2,3.2.4,MacIntel,60,,,,,,,,,,,,,,,,,,,,,,,,,,,,,
right,0.603000164,1,153,1,0,1,0,1,0,1,0,240,105,1,239,2,3,2,stim/32.jpeg,HouseObjects,2,stim/objects/HouseObjects/teapot.png,0.7,4,0.2,-0.15,right,63,2021-03-30_13h04.40.974,premup-three_ses-02_part-02_label-phase2,3.2.4,MacIntel,60,,,,,,,,,,,,,,,,,,,,,,,,,,,,,
left,0.776000023,0,154,1,0,1,0,1,0,1,0,240,188,1,239,3,5,1,stim/51.jpeg,HouseObjects,2,stim/objects/HouseObjects/safetypin2.png,0.9,4,0.2,-0.15,right,63,2021-03-30_13h04.40.974,premup-three_ses-02_part-02_label-phase2,3.2.4,MacIntel,60,,,,,,,,,,,,,,,,,,,,,,,,,,,,,
left,0.812000275,1,155,1,0,1,0,1,0,1,0,240,233,1,239,3,6,2,stim/62.jpeg,Instruments,1,stim/objects/Instruments/trombone2.png,0.9,1,-0.2,0.15,left,63,2021-03-30_13h04.40.974,premup-three_ses-02_part-02_label-phase2,3.2.4,MacIntel,60,,,,,,,,,,,,,,,,,,,,,,,,,,,,,
,,0,156,1,0,1,0,1,0,1,0,240,109,1,239,2,3,2,stim/32.jpeg,HouseObjects,2,stim/objects/HouseObjects/teapot.png,0.7,1,-0.2,0.15,right,63,2021-03-30_13h04.40.974,premup-three_ses-02_part-02_label-phase2,3.2.4,MacIntel,60,,,,,,,,,,,,,,,,,,,,,,,,,,,,,
left,0.500999928,1,157,1,0,1,0,1,0,1,0,240,218,1,239,3,6,3,stim/63.jpeg,Instruments,1,stim/objects/Instruments/trumpet2.png,0.9,3,-0.2,-0.15,left,63,2021-03-30_13h04.40.974,premup-three_ses-02_part-02_label-phase2,3.2.4,MacIntel,60,,,,,,,,,,,,,,,,,,,,,,,,,,,,,
right,0.696000099,1,158,1,0,1,0,1,0,1,0,240,60,1,239,1,2,1,stim/21.jpeg,HouseObjects,2,stim/objects/HouseObjects/safetypin.png,0.5,3,-0.2,-0.15,right,63,2021-03-30_13h04.40.974,premup-three_ses-02_part-02_label-phase2,3.2.4,MacIntel,60,,,,,,,,,,,,,,,,,,,,,,,,,,,,,
left,0.747000217,0,159,1,0,1,0,1,0,1,0,240,177,1,239,3,5,2,stim/52.jpeg,HouseObjects,2,stim/objects/HouseObjects/saw2.png,0.9,1,-0.2,0.15,right,63,2021-03-30_13h04.40.974,premup-three_ses-02_part-02_label-phase2,3.2.4,MacIntel,60,,,,,,,,,,,,,,,,,,,,,,,,,,,,,
,,0,160,1,0,1,0,1,0,1,0,240,126,1,239,2,4,3,stim/43.jpeg,Instruments,1,stim/objects/Instruments/record2.png,0.7,3,-0.2,-0.15,left,63,2021-03-30_13h04.40.974,premup-three_ses-02_part-02_label-phase2,3.2.4,MacIntel,60,,,,,,,,,,,,,,,,,,,,,,,,,,,,,
right,0.54700017,1,161,1,0,1,0,1,0,1,0,240,28,1,239,1,1,1,stim/11.jpeg,HouseObjects,2,stim/objects/HouseObjects/recyclingbin.png,0.5,2,0.2,0.15,right,63,2021-03-30_13h04.40.974,premup-three_ses-02_part-02_label-phase2,3.2.4,MacIntel,60,,,,,,,,,,,,,,,,,,,,,,,,,,,,,
left,0.6650002,0,162,1,0,1,0,1,0,1,0,240,72,1,239,1,2,1,stim/21.jpeg,HouseObjects,2,stim/objects/HouseObjects/safetypin.png,0.5,4,0.2,-0.15,right,63,2021-03-30_13h04.40.974,premup-three_ses-02_part-02_label-phase2,3.2.4,MacIntel,60,,,,,,,,,,,,,,,,,,,,,,,,,,,,,
left,0.742000103,1,163,1,0,1,0,1,0,1,0,240,16,1,239,1,1,1,stim/11.jpeg,Instruments,1,stim/objects/Instruments/panflute.png,0.5,2,0.2,0.15,left,63,2021-03-30_13h04.40.974,premup-three_ses-02_part-02_label-phase2,3.2.4,MacIntel,60,,,,,,,,,,,,,,,,,,,,,,,,,,,,,
right,0.613000154,0,164,1,0,1,0,1,0,1,0,240,40,1,239,1,2,1,stim/21.jpeg,Instruments,1,stim/objects/Instruments/saxophone.png,0.5,2,0.2,0.15,left,63,2021-03-30_13h04.40.974,premup-three_ses-02_part-02_label-phase2,3.2.4,MacIntel,60,,,,,,,,,,,,,,,,,,,,,,,,,,,,,
left,0.645999908,1,165,1,0,1,0,1,0,1,0,240,8,1,239,1,1,1,stim/11.jpeg,Instruments,1,stim/objects/Instruments/panflute.png,0.5,2,0.2,0.15,left,63,2021-03-30_13h04.40.974,premup-three_ses-02_part-02_label-phase2,3.2.4,MacIntel,60,,,,,,,,,,,,,,,,,,,,,,,,,,,,,
right,0.666000128,1,166,1,0,1,0,1,0,1,0,240,76,1,239,1,2,1,stim/21.jpeg,HouseObjects,2,stim/objects/HouseObjects/safetypin.png,0.5,3,-0.2,-0.15,right,63,2021-03-30_13h04.40.974,premup-three_ses-02_part-02_label-phase2,3.2.4,MacIntel,60,,,,,,,,,,,,,,,,,,,,,,,,,,,,,
right,0.496000051,0,167,1,0,1,0,1,0,1,0,240,44,1,239,1,2,1,stim/21.jpeg,Instruments,1,stim/objects/Instruments/saxophone.png,0.5,3,-0.2,-0.15,left,63,2021-03-30_13h04.40.974,premup-three_ses-02_part-02_label-phase2,3.2.4,MacIntel,60,,,,,,,,,,,,,,,,,,,,,,,,,,,,,
,,0,168,1,0,1,0,1,0,1,0,240,20,1,239,1,1,1,stim/11.jpeg,HouseObjects,2,stim/objects/HouseObjects/recyclingbin.png,0.5,3,-0.2,-0.15,right,63,2021-03-30_13h04.40.974,premup-three_ses-02_part-02_label-phase2,3.2.4,MacIntel,60,,,,,,,,,,,,,,,,,,,,,,,,,,,,,
left,0.69900012,0,169,1,0,1,0,1,0,1,0,240,154,1,239,2,4,3,stim/43.jpeg,HouseObjects,2,stim/objects/HouseObjects/rubbergloves2.png,0.3,4,0.2,-0.15,right,63,2021-03-30_13h04.40.974,premup-three_ses-02_part-02_label-phase2,3.2.4,MacIntel,60,,,,,,,,,,,,,,,,,,,,,,,,,,,,,
right,0.555999994,1,170,1,0,1,0,1,0,1,0,240,73,1,239,1,2,2,stim/22.jpeg,HouseObjects,2,stim/objects/HouseObjects/saw.png,0.5,1,-0.2,0.15,right,63,2021-03-30_13h04.40.974,premup-three_ses-02_part-02_label-phase2,3.2.4,MacIntel,60,,,,,,,,,,,,,,,,,,,,,,,,,,,,,
left,0.696000099,1,171,1,0,1,0,1,0,1,0,240,13,1,239,1,1,2,stim/12.jpeg,Instruments,1,stim/objects/Instruments/pipepiano.png,0.5,1,-0.2,0.15,left,63,2021-03-30_13h04.40.974,premup-three_ses-02_part-02_label-phase2,3.2.4,MacIntel,60,,,,,,,,,,,,,,,,,,,,,,,,,,,,,
right,0.729000092,0,172,1,0,1,0,1,0,1,0,240,53,1,239,1,2,2,stim/22.jpeg,Instruments,1,stim/objects/Instruments/speaker.png,0.5,3,-0.2,-0.15,left,63,2021-03-30_13h04.40.974,premup-three_ses-02_part-02_label-phase2,3.2.4,MacIntel,60,,,,,,,,,,,,,,,,,,,,,,,,,,,,,
left,0.719000101,1,173,1,0,1,0,1,0,1,0,240,17,1,239,1,1,2,stim/12.jpeg,Instruments,1,stim/objects/Instruments/pipepiano.png,0.5,4,0.2,-0.15,left,63,2021-03-30_13h04.40.974,premup-three_ses-02_part-02_label-phase2,3.2.4,MacIntel,60,,,,,,,,,,,,,,,,,,,,,,,,,,,,,
left,0.730000019,1,174,1,0,1,0,1,0,1,0,240,135,1,239,2,4,4,stim/44.jpeg,Instruments,1,stim/objects/Instruments/record_player2.png,0.7,4,0.2,-0.15,left,63,2021-03-30_13h04.40.974,premup-three_ses-02_part-02_label-phase2,3.2.4,MacIntel,60,,,,,,,,,,,,,,,,,,,,,,,,,,,,,
left,0.662000179,0,175,1,0,1,0,1,0,1,0,240,236,1,239,3,6,1,stim/61.jpeg,HouseObjects,2,stim/objects/HouseObjects/spraybottle2.png,0.1,2,0.2,0.15,right,63,2021-03-30_13h04.40.974,premup-three_ses-02_part-02_label-phase2,3.2.4,MacIntel,60,,,,,,,,,,,,,,,,,,,,,,,,,,,,,
right,0.76699996,0,176,1,0,1,0,1,0,1,0,240,123,1,239,2,4,4,stim/44.jpeg,Instruments,1,stim/objects/Instruments/record_player2.png,0.7,3,-0.2,-0.15,left,63,2021-03-30_13h04.40.974,premup-three_ses-02_part-02_label-phase2,3.2.4,MacIntel,60,,,,,,,,,,,,,,,,,,,,,,,,,,,,,
right,0.664000273,0,177,1,0,1,0,1,0,1,0,240,163,1,239,3,5,4,stim/54.jpeg,Instruments,1,stim/objects/Instruments/timbal2.png,0.1,1,-0.2,0.15,left,63,2021-03-30_13h04.40.974,premup-three_ses-02_part-02_label-phase2,3.2.4,MacIntel,60,,,,,,,,,,,,,,,,,,,,,,,,,,,,,
left,0.722000122,0,178,1,0,1,0,1,0,1,0,240,69,1,239,1,2,2,stim/22.jpeg,HouseObjects,2,stim/objects/HouseObjects/saw.png,0.5,1,-0.2,0.15,right,63,2021-03-30_13h04.40.974,premup-three_ses-02_part-02_label-phase2,3.2.4,MacIntel,60,,,,,,,,,,,,,,,,,,,,,,,,,,,,,
left,0.755000114,0,179,1,0,1,0,1,0,1,0,240,157,1,239,2,4,2,stim/42.jpeg,HouseObjects,2,stim/objects/HouseObjects/remote2.png,0.3,2,0.2,0.15,right,63,2021-03-30_13h04.40.974,premup-three_ses-02_part-02_label-phase2,3.2.4,MacIntel,60,,,,,,,,,,,,,,,,,,,,,,,,,,,,,
left,0.756000042,1,180,1,0,1,0,1,0,1,0,240,128,1,239,2,4,1,stim/41.jpeg,Instruments,1,stim/objects/Instruments/panflute2.png,0.7,2,0.2,0.15,left,63,2021-03-30_13h04.40.974,premup-three_ses-02_part-02_label-phase2,3.2.4,MacIntel,60,,,,,,,,,,,,,,,,,,,,,,,,,,,,,
right,0.683000088,1,181,1,0,1,0,1,0,1,0,240,185,1,239,3,5,2,stim/52.jpeg,HouseObjects,2,stim/objects/HouseObjects/saw2.png,0.9,2,0.2,0.15,right,63,2021-03-30_13h04.40.974,premup-three_ses-02_part-02_label-phase2,3.2.4,MacIntel,60,,,,,,,,,,,,,,,,,,,,,,,,,,,,,
right,0.493999958,0,182,1,0,1,0,1,0,1,0,240,137,1,239,2,4,2,stim/42.jpeg,Instruments,1,stim/objects/Instruments/pipepiano2.png,0.7,2,0.2,0.15,left,63,2021-03-30_13h04.40.974,premup-three_ses-02_part-02_label-phase2,3.2.4,MacIntel,60,,,,,,,,,,,,,,,,,,,,,,,,,,,,,
left,0.601000071,1,183,1,0,1,0,1,0,1,0,240,211,1,239,3,6,4,stim/64.jpeg,Instruments,1,stim/objects/Instruments/tuba2.png,0.9,2,0.2,0.15,left,63,2021-03-30_13h04.40.974,premup-three_ses-02_part-02_label-phase2,3.2.4,MacIntel,60,,,,,,,,,,,,,,,,,,,,,,,,,,,,,
left,0.645000219,0,184,1,0,1,0,1,0,1,0,240,184,1,239,3,5,1,stim/51.jpeg,HouseObjects,2,stim/objects/HouseObjects/safetypin2.png,0.9,4,0.2,-0.15,right,63,2021-03-30_13h04.40.974,premup-three_ses-02_part-02_label-phase2,3.2.4,MacIntel,60,,,,,,,,,,,,,,,,,,,,,,,,,,,,,
left,0.684000015,0,185,1,0,1,0,1,0,1,0,240,153,1,239,2,4,2,stim/42.jpeg,HouseObjects,2,stim/objects/HouseObjects/remote2.png,0.3,2,0.2,0.15,right,63,2021-03-30_13h04.40.974,premup-three_ses-02_part-02_label-phase2,3.2.4,MacIntel,60,,,,,,,,,,,,,,,,,,,,,,,,,,,,,
right,0.578999996,0,186,1,0,1,0,1,0,1,0,240,58,1,239,1,2,3,stim/23.jpeg,Instruments,1,stim/objects/Instruments/tambourine.png,0.5,1,-0.2,0.15,left,63,2021-03-30_13h04.40.974,premup-three_ses-02_part-02_label-phase2,3.2.4,MacIntel,60,,,,,,,,,,,,,,,,,,,,,,,,,,,,,
right,0.728000164,0,187,1,0,1,0,1,0,1,0,240,83,1,239,2,3,4,stim/34.jpeg,Instruments,1,stim/objects/Instruments/tuba.png,0.3,3,-0.2,-0.15,left,63,2021-03-30_13h04.40.974,premup-three_ses-02_part-02_label-phase2,3.2.4,MacIntel,60,,,,,,,,,,,,,,,,,,,,,,,,,,,,,
,,0,188,1,0,1,0,1,0,1,0,240,31,1,239,1,1,4,stim/14.jpeg,HouseObjects,2,stim/objects/HouseObjects/rug.png,0.5,1,-0.2,0.15,right,63,2021-03-30_13h04.40.974,premup-three_ses-02_part-02_label-phase2,3.2.4,MacIntel,60,,,,,,,,,,,,,,,,,,,,,,,,,,,,,
right,0.651000261,0,189,1,0,1,0,1,0,1,0,240,144,1,239,2,4,1,stim/41.jpeg,Instruments,1,stim/objects/Instruments/panflute2.png,0.7,1,-0.2,0.15,left,63,2021-03-30_13h04.40.974,premup-three_ses-02_part-02_label-phase2,3.2.4,MacIntel,60,,,,,,,,,,,,,,,,,,,,,,,,,,,,,
right,0.685000181,0,190,1,0,1,0,1,0,1,0,240,129,1,239,2,4,2,stim/42.jpeg,Instruments,1,stim/objects/Instruments/pipepiano2.png,0.7,1,-0.2,0.15,left,63,2021-03-30_13h04.40.974,premup-three_ses-02_part-02_label-phase2,3.2.4,MacIntel,60,,,,,,,,,,,,,,,,,,,,,,,,,,,,,
left,0.562000036,1,191,1,0,1,0,1,0,1,0,240,228,1,239,3,6,1,stim/61.jpeg,Instruments,1,stim/objects/Instruments/triangle2.png,0.9,4,0.2,-0.15,left,63,2021-03-30_13h04.40.974,premup-three_ses-02_part-02_label-phase2,3.2.4,MacIntel,60,,,,,,,,,,,,,,,,,,,,,,,,,,,,,
right,0.761000156,1,192,1,0,1,0,1,0,1,0,240,32,1,239,1,1,1,stim/11.jpeg,HouseObjects,2,stim/objects/HouseObjects/recyclingbin.png,0.5,1,-0.2,0.15,right,63,2021-03-30_13h04.40.974,premup-three_ses-02_part-02_label-phase2,3.2.4,MacIntel,60,,,,,,,,,,,,,,,,,,,,,,,,,,,,,
right,0.738000154,1,193,1,0,1,0,1,0,1,0,240,170,1,239,3,5,3,stim/53.jpeg,HouseObjects,2,stim/objects/HouseObjects/scale2.png,0.9,3,-0.2,-0.15,right,63,2021-03-30_13h04.40.974,premup-three_ses-02_part-02_label-phase2,3.2.4,MacIntel,60,,,,,,,,,,,,,,,,,,,,,,,,,,,,,
left,0.70600009,1,194,1,0,1,0,1,0,1,0,240,215,1,239,3,6,4,stim/64.jpeg,Instruments,1,stim/objects/Instruments/tuba2.png,0.9,3,-0.2,-0.15,left,63,2021-03-30_13h04.40.974,premup-three_ses-02_part-02_label-phase2,3.2.4,MacIntel,60,,,,,,,,,,,,,,,,,,,,,,,,,,,,,
right,0.580000162,1,195,1,0,1,0,1,0,1,0,240,195,1,239,3,5,4,stim/54.jpeg,HouseObjects,2,stim/objects/HouseObjects/sponge2.png,0.9,2,0.2,0.15,right,63,2021-03-30_13h04.40.974,premup-three_ses-02_part-02_label-phase2,3.2.4,MacIntel,60,,,,,,,,,,,,,,,,,,,,,,,,,,,,,
left,0.763000011,1,196,1,0,1,0,1,0,1,0,240,229,1,239,3,6,2,stim/62.jpeg,Instruments,1,stim/objects/Instruments/trombone2.png,0.9,4,0.2,-0.15,left,63,2021-03-30_13h04.40.974,premup-three_ses-02_part-02_label-phase2,3.2.4,MacIntel,60,,,,,,,,,,,,,,,,,,,,,,,,,,,,,
right,0.688000202,1,197,1,0,1,0,1,0,1,0,240,104,1,239,2,3,1,stim/31.jpeg,HouseObjects,2,stim/objects/HouseObjects/spraybottle.png,0.7,1,-0.2,0.15,right,63,2021-03-30_13h04.40.974,premup-three_ses-02_part-02_label-phase2,3.2.4,MacIntel,60,,,,,,,,,,,,,,,,,,,,,,,,,,,,,
left,0.641000032,0,198,1,0,1,0,1,0,1,0,240,79,1,239,1,2,4,stim/24.jpeg,HouseObjects,2,stim/objects/HouseObjects/sponge.png,0.5,2,0.2,0.15,right,63,2021-03-30_13h04.40.974,premup-three_ses-02_part-02_label-phase2,3.2.4,MacIntel,60,,,,,,,,,,,,,,,,,,,,,,,,,,,,,
left,0.782999992,1,199,1,0,1,0,1,0,1,0,240,146,1,239,2,4,3,stim/43.jpeg,Instruments,1,stim/objects/Instruments/record2.png,0.7,1,-0.2,0.15,left,63,2021-03-30_13h04.40.974,premup-three_ses-02_part-02_label-phase2,3.2.4,MacIntel,60,,,,,,,,,,,,,,,,,,,,,,,,,,,,,
left,0.59800005,1,200,1,0,1,0,1,0,1,0,240,145,1,239,2,4,2,stim/42.jpeg,Instruments,1,stim/objects/Instruments/pipepiano2.png,0.7,4,0.2,-0.15,left,63,2021-03-30_13h04.40.974,premup-three_ses-02_part-02_label-phase2,3.2.4,MacIntel,60,,,,,,,,,,,,,,,,,,,,,,,,,,,,,
right,0.628000021,1,201,1,0,1,0,1,0,1,0,240,65,1,239,1,2,2,stim/22.jpeg,HouseObjects,2,stim/objects/HouseObjects/saw.png,0.5,2,0.2,0.15,right,63,2021-03-30_13h04.40.974,premup-three_ses-02_part-02_label-phase2,3.2.4,MacIntel,60,,,,,,,,,,,,,,,,,,,,,,,,,,,,,
left,0.644000053,1,202,1,0,1,0,1,0,1,0,240,52,1,239,1,2,1,stim/21.jpeg,Instruments,1,stim/objects/Instruments/saxophone.png,0.5,4,0.2,-0.15,left,63,2021-03-30_13h04.40.974,premup-three_ses-02_part-02_label-phase2,3.2.4,MacIntel,60,,,,,,,,,,,,,,,,,,,,,,,,,,,,,
right,0.598000288,1,203,1,0,1,0,1,0,1,0,240,183,1,239,3,5,4,stim/54.jpeg,HouseObjects,2,stim/objects/HouseObjects/sponge2.png,0.9,1,-0.2,0.15,right,63,2021-03-30_13h04.40.974,premup-three_ses-02_part-02_label-phase2,3.2.4,MacIntel,60,,,,,,,,,,,,,,,,,,,,,,,,,,,,,
left,0.818000078,0,204,1,0,1,0,1,0,1,0,240,62,1,239,1,2,3,stim/23.jpeg,HouseObjects,2,stim/objects/HouseObjects/scale.png,0.5,3,-0.2,-0.15,right,63,2021-03-30_13h04.40.974,premup-three_ses-02_part-02_label-phase2,3.2.4,MacIntel,60,,,,,,,,,,,,,,,,,,,,,,,,,,,,,
left,0.810000181,1,205,1,0,1,0,1,0,1,0,240,4,1,239,1,1,1,stim/11.jpeg,Instruments,1,stim/objects/Instruments/panflute.png,0.5,1,-0.2,0.15,left,63,2021-03-30_13h04.40.974,premup-three_ses-02_part-02_label-phase2,3.2.4,MacIntel,60,,,,,,,,,,,,,,,,,,,,,,,,,,,,,
,,0,206,1,0,1,0,1,0,1,0,240,94,1,239,2,3,3,stim/33.jpeg,HouseObjects,2,stim/objects/HouseObjects/thermometer.png,0.7,2,0.2,0.15,right,63,2021-03-30_13h04.40.974,premup-three_ses-02_part-02_label-phase2,3.2.4,MacIntel,60,,,,,,,,,,,,,,,,,,,,,,,,,,,,,
right,0.561000109,0,207,1,0,1,0,1,0,1,0,240,125,1,239,2,4,2,stim/42.jpeg,Instruments,1,stim/objects/Instruments/pipepiano2.png,0.7,4,0.2,-0.15,left,63,2021-03-30_13h04.40.974,premup-three_ses-02_part-02_label-phase2,3.2.4,MacIntel,60,,,,,,,,,,,,,,,,,,,,,,,,,,,,,
left,0.667000055,1,208,1,0,1,0,1,0,1,0,240,139,1,239,2,4,4,stim/44.jpeg,Instruments,1,stim/objects/Instruments/record_player2.png,0.7,1,-0.2,0.15,left,63,2021-03-30_13h04.40.974,premup-three_ses-02_part-02_label-phase2,3.2.4,MacIntel,60,,,,,,,,,,,,,,,,,,,,,,,,,,,,,
left,0.81400013,1,209,1,0,1,0,1,0,1,0,240,206,1,239,3,6,3,stim/63.jpeg,Instruments,1,stim/objects/Instruments/trumpet2.png,0.9,3,-0.2,-0.15,left,63,2021-03-30_13h04.40.974,premup-three_ses-02_part-02_label-phase2,3.2.4,MacIntel,60,,,,,,,,,,,,,,,,,,,,,,,,,,,,,
left,0.597000122,0,210,1,0,1,0,1,0,1,0,240,26,1,239,1,1,3,stim/13.jpeg,HouseObjects,2,stim/objects/HouseObjects/rubbergloves.png,0.5,4,0.2,-0.15,right,63,2021-03-30_13h04.40.974,premup-three_ses-02_part-02_label-phase2,3.2.4,MacIntel,60,,,,,,,,,,,,,,,,,,,,,,,,,,,,,
left,0.548000097,0,211,1,0,1,0,1,0,1,0,240,199,1,239,3,5,4,stim/54.jpeg,HouseObjects,2,stim/objects/HouseObjects/sponge2.png,0.9,4,0.2,-0.15,right,63,2021-03-30_13h04.40.974,premup-three_ses-02_part-02_label-phase2,3.2.4,MacIntel,60,,,,,,,,,,,,,,,,,,,,,,,,,,,,,
left,0.713000059,0,212,1,0,1,0,1,0,1,0,240,27,1,239,1,1,4,stim/14.jpeg,HouseObjects,2,stim/objects/HouseObjects/rug.png,0.5,4,0.2,-0.15,right,63,2021-03-30_13h04.40.974,premup-three_ses-02_part-02_label-phase2,3.2.4,MacIntel,60,,,,,,,,,,,,,,,,,,,,,,,,,,,,,
right,0.759000063,1,213,1,0,1,0,1,0,1,0,240,107,1,239,2,3,4,stim/34.jpeg,HouseObjects,2,stim/objects/HouseObjects/thread.png,0.7,2,0.2,0.15,right,63,2021-03-30_13h04.40.974,premup-three_ses-02_part-02_label-phase2,3.2.4,MacIntel,60,,,,,,,,,,,,,,,,,,,,,,,,,,,,,
left,0.843000174,0,214,1,0,1,0,1,0,1,0,240,22,1,239,1,1,3,stim/13.jpeg,HouseObjects,2,stim/objects/HouseObjects/rubbergloves.png,0.5,1,-0.2,0.15,right,63,2021-03-30_13h04.40.974,premup-three_ses-02_part-02_label-phase2,3.2.4,MacIntel,60,,,,,,,,,,,,,,,,,,,,,,,,,,,,,
left,0.555000067,1,215,1,0,1,0,1,0,1,0,240,1,1,239,1,1,2,stim/12.jpeg,Instruments,1,stim/objects/Instruments/pipepiano.png,0.5,4,0.2,-0.15,left,63,2021-03-30_13h04.40.974,premup-three_ses-02_part-02_label-phase2,3.2.4,MacIntel,60,,,,,,,,,,,,,,,,,,,,,,,,,,,,,
left,0.614000082,1,216,1,0,1,0,1,0,1,0,240,230,1,239,3,6,3,stim/63.jpeg,Instruments,1,stim/objects/Instruments/trumpet2.png,0.9,3,-0.2,-0.15,left,63,2021-03-30_13h04.40.974,premup-three_ses-02_part-02_label-phase2,3.2.4,MacIntel,60,,,,,,,,,,,,,,,,,,,,,,,,,,,,,
left,0.678000212,1,217,1,0,1,0,1,0,1,0,240,55,1,239,1,2,4,stim/24.jpeg,Instruments,1,stim/objects/Instruments/timbal.png,0.5,2,0.2,0.15,left,63,2021-03-30_13h04.40.974,premup-three_ses-02_part-02_label-phase2,3.2.4,MacIntel,60,,,,,,,,,,,,,,,,,,,,,,,,,,,,,
left,0.691000223,1,218,1,0,1,0,1,0,1,0,240,134,1,239,2,4,3,stim/43.jpeg,Instruments,1,stim/objects/Instruments/record2.png,0.7,1,-0.2,0.15,left,63,2021-03-30_13h04.40.974,premup-three_ses-02_part-02_label-phase2,3.2.4,MacIntel,60,,,,,,,,,,,,,,,,,,,,,,,,,,,,,
right,0.585000277,1,219,1,0,1,0,1,0,1,0,240,93,1,239,2,3,2,stim/32.jpeg,HouseObjects,2,stim/objects/HouseObjects/teapot.png,0.7,1,-0.2,0.15,right,63,2021-03-30_13h04.40.974,premup-three_ses-02_part-02_label-phase2,3.2.4,MacIntel,60,,,,,,,,,,,,,,,,,,,,,,,,,,,,,
left,0.796000004,1,220,1,0,1,0,1,0,1,0,240,222,1,239,3,6,3,stim/63.jpeg,Instruments,1,stim/objects/Instruments/trumpet2.png,0.9,1,-0.2,0.15,left,63,2021-03-30_13h04.40.974,premup-three_ses-02_part-02_label-phase2,3.2.4,MacIntel,60,,,,,,,,,,,,,,,,,,,,,,,,,,,,,
left,0.558000088,1,221,1,0,1,0,1,0,1,0,240,209,1,239,3,6,2,stim/62.jpeg,Instruments,1,stim/objects/Instruments/trombone2.png,0.9,4,0.2,-0.15,left,63,2021-03-30_13h04.40.974,premup-three_ses-02_part-02_label-phase2,3.2.4,MacIntel,60,,,,,,,,,,,,,,,,,,,,,,,,,,,,,
left,0.670000076,1,222,1,0,1,0,1,0,1,0,240,80,1,239,2,3,1,stim/31.jpeg,Instruments,1,stim/objects/Instruments/triangle.png,0.3,2,0.2,0.15,left,63,2021-03-30_13h04.40.974,premup-three_ses-02_part-02_label-phase2,3.2.4,MacIntel,60,,,,,,,,,,,,,,,,,,,,,,,,,,,,,
left,0.638000011,0,223,1,0,1,0,1,0,1,0,240,237,1,239,3,6,2,stim/62.jpeg,HouseObjects,2,stim/objects/HouseObjects/teapot2.png,0.1,1,-0.2,0.15,right,63,2021-03-30_13h04.40.974,premup-three_ses-02_part-02_label-phase2,3.2.4,MacIntel,60,,,,,,,,,,,,,,,,,,,,,,,,,,,,,
left,0.671000004,1,224,1,0,1,0,1,0,1,0,240,127,1,239,2,4,4,stim/44.jpeg,Instruments,1,stim/objects/Instruments/record_player2.png,0.7,1,-0.2,0.15,left,63,2021-03-30_13h04.40.974,premup-three_ses-02_part-02_label-phase2,3.2.4,MacIntel,60,,,,,,,,,,,,,,,,,,,,,,,,,,,,,
left,0.662000179,1,225,1,0,1,0,1,0,1,0,240,132,1,239,2,4,1,stim/41.jpeg,Instruments,1,stim/objects/Instruments/panflute2.png,0.7,1,-0.2,0.15,left,63,2021-03-30_13h04.40.974,premup-three_ses-02_part-02_label-phase2,3.2.4,MacIntel,60,,,,,,,,,,,,,,,,,,,,,,,,,,,,,
left,0.578999996,1,226,1,0,1,0,1,0,1,0,240,224,1,239,3,6,1,stim/61.jpeg,Instruments,1,stim/objects/Instruments/triangle2.png,0.9,4,0.2,-0.15,left,63,2021-03-30_13h04.40.974,premup-three_ses-02_part-02_label-phase2,3.2.4,MacIntel,60,,,,,,,,,,,,,,,,,,,,,,,,,,,,,
right,0.695000172,1,227,1,0,1,0,1,0,1,0,240,180,1,239,3,5,1,stim/51.jpeg,HouseObjects,2,stim/objects/HouseObjects/safetypin2.png,0.9,4,0.2,-0.15,right,63,2021-03-30_13h04.40.974,premup-three_ses-02_part-02_label-phase2,3.2.4,MacIntel,60,,,,,,,,,,,,,,,,,,,,,,,,,,,,,
right,0.749000072,0,228,1,0,1,0,1,0,1,0,240,0,1,239,1,1,1,stim/11.jpeg,Instruments,1,stim/objects/Instruments/panflute.png,0.5,4,0.2,-0.15,left,63,2021-03-30_13h04.40.974,premup-three_ses-02_part-02_label-phase2,3.2.4,MacIntel,60,,,,,,,,,,,,,,,,,,,,,,,,,,,,,
right,0.877000093,1,229,1,0,1,0,1,0,1,0,240,179,1,239,3,5,4,stim/54.jpeg,HouseObjects,2,stim/objects/HouseObjects/sponge2.png,0.9,3,-0.2,-0.15,right,63,2021-03-30_13h04.40.974,premup-three_ses-02_part-02_label-phase2,3.2.4,MacIntel,60,,,,,,,,,,,,,,,,,,,,,,,,,,,,,
left,0.726999998,1,230,1,0,1,0,1,0,1,0,240,207,1,239,3,6,4,stim/64.jpeg,Instruments,1,stim/objects/Instruments/tuba2.png,0.9,4,0.2,-0.15,left,63,2021-03-30_13h04.40.974,premup-three_ses-02_part-02_label-phase2,3.2.4,MacIntel,60,,,,,,,,,,,,,,,,,,,,,,,,,,,,,
right,0.744999886,0,231,1,0,1,0,1,0,1,0,240,81,1,239,2,3,2,stim/32.jpeg,Instruments,1,stim/objects/Instruments/trombone.png,0.3,2,0.2,0.15,left,63,2021-03-30_13h04.40.974,premup-three_ses-02_part-02_label-phase2,3.2.4,MacIntel,60,,,,,,,,,,,,,,,,,,,,,,,,,,,,,
left,0.878999949,0,232,1,0,1,0,1,0,1,0,240,156,1,239,2,4,1,stim/41.jpeg,HouseObjects,2,stim/objects/HouseObjects/recyclingbin2.png,0.3,4,0.2,-0.15,right,63,2021-03-30_13h04.40.974,premup-three_ses-02_part-02_label-phase2,3.2.4,MacIntel,60,,,,,,,,,,,,,,,,,,,,,,,,,,,,,
left,0.595000029,0,233,1,0,1,0,1,0,1,0,240,151,1,239,2,4,4,stim/44.jpeg,HouseObjects,2,stim/objects/HouseObjects/rug2.png,0.3,4,0.2,-0.15,right,63,2021-03-30_13h04.40.974,premup-three_ses-02_part-02_label-phase2,3.2.4,MacIntel,60,,,,,,,,,,,,,,,,,,,,,,,,,,,,,
right,0.740000248,1,234,1,0,1,0,1,0,1,0,240,167,1,239,3,5,4,stim/54.jpeg,HouseObjects,2,stim/objects/HouseObjects/sponge2.png,0.9,1,-0.2,0.15,right,63,2021-03-30_13h04.40.974,premup-three_ses-02_part-02_label-phase2,3.2.4,MacIntel,60,,,,,,,,,,,,,,,,,,,,,,,,,,,,,
left,0.741000175,1,235,1,0,1,0,1,0,1,0,240,130,1,239,2,4,3,stim/43.jpeg,Instruments,1,stim/objects/Instruments/record2.png,0.7,4,0.2,-0.15,left,63,2021-03-30_13h04.40.974,premup-three_ses-02_part-02_label-phase2,3.2.4,MacIntel,60,,,,,,,,,,,,,,,,,,,,,,,,,,,,,
right,0.674000025,1,236,1,0,1,0,1,0,1,0,240,67,1,239,1,2,4,stim/24.jpeg,HouseObjects,2,stim/objects/HouseObjects/sponge.png,0.5,2,0.2,0.15,right,63,2021-03-30_13h04.40.974,premup-three_ses-02_part-02_label-phase2,3.2.4,MacIntel,60,,,,,,,,,,,,,,,,,,,,,,,,,,,,,
left,0.743000269,0,237,1,0,1,0,1,0,1,0,240,24,1,239,1,1,1,stim/11.jpeg,HouseObjects,2,stim/objects/HouseObjects/recyclingbin.png,0.5,2,0.2,0.15,right,63,2021-03-30_13h04.40.974,premup-three_ses-02_part-02_label-phase2,3.2.4,MacIntel,60,,,,,,,,,,,,,,,,,,,,,,,,,,,,,
left,0.753999949,1,238,1,0,1,0,1,0,1,0,240,210,1,239,3,6,3,stim/63.jpeg,Instruments,1,stim/objects/Instruments/trumpet2.png,0.9,3,-0.2,-0.15,left,63,2021-03-30_13h04.40.974,premup-three_ses-02_part-02_label-phase2,3.2.4,MacIntel,60,,,,,,,,,,,,,,,,,,,,,,,,,,,,,
right,0.657999992,1,239,1,0,1,0,1,0,1,0,240,178,1,239,3,5,3,stim/53.jpeg,HouseObjects,2,stim/objects/HouseObjects/scale2.png,0.9,1,-0.2,0.15,right,63,2021-03-30_13h04.40.974,premup-three_ses-02_part-02_label-phase2,3.2.4,MacIntel,60,,,,,,,,,,,,,,,,,,,,,,,,,,,,,
right,0.746000051,1,240,1,0,1,0,1,0,1,0,240,159,1,239,2,4,4,stim/44.jpeg,HouseObjects,2,stim/objects/HouseObjects/rug2.png,0.3,1,-0.2,0.15,right,63,2021-03-30_13h04.40.974,premup-three_ses-02_part-02_label-phase2,3.2.4,MacIntel,60,,,,,,,,,,,,,,,,,,,,,,,,,,,,,
,,,,1,0,1,0,1,0,,,,,,,,1,,stim/11.jpeg,,,,,,,,,63,2021-03-30_13h04.40.974,premup-three_ses-02_part-02_label-phase2,3.2.4,MacIntel,60,50,6.920000076,,,1,0,6,0,1,5,Music items,45,55,Household items,45,55,,,,,,,,,,,,,
,,,,1,0,1,0,1,0,,,,,,,,4,,stim/41.jpeg,,,,,,,,,63,2021-03-30_13h04.40.974,premup-three_ses-02_part-02_label-phase2,3.2.4,MacIntel,60,80,10.44300008,,,1,0,6,3,1,5,Music items,65,75,Household items,25,35,,,,,,,,,,,,,
,,,,1,0,1,0,1,0,,,,,,,,2,,stim/21.jpeg,,,,,,,,,63,2021-03-30_13h04.40.974,premup-three_ses-02_part-02_label-phase2,3.2.4,MacIntel,60,50,4.041000128,,,1,0,6,1,1,5,Household items,45,55,Music items,45,55,,,,,,,,,,,,,
,,,,1,0,1,0,1,0,,,,,,,,3,,stim/31.jpeg,,,,,,,,,63,2021-03-30_13h04.40.974,premup-three_ses-02_part-02_label-phase2,3.2.4,MacIntel,60,10,6.779999971,,,1,0,6,2,1,5,Music items,65,75,Household items,25,35,,,,,,,,,,,,,
,,,,1,0,1,0,1,0,,,,,,,,6,,stim/61.jpeg,,,,,,,,,63,2021-03-30_13h04.40.974,premup-three_ses-02_part-02_label-phase2,3.2.4,MacIntel,60,100,5.245000124,,,1,0,6,5,1,5,Music items,5,15,Household items,85,95,,,,,,,,,,,,,
,,,,1,0,1,0,1,0,,,,,,,,5,,stim/51.jpeg,,,,,,,,,63,2021-03-30_13h04.40.974,premup-three_ses-02_part-02_label-phase2,3.2.4,MacIntel,60,100,3.946000099,,,1,0,6,4,1,5,Household items,5,15,Music items,85,95,,,,,,,,,,,,,
,,,,1,0,1,0,1,0,,,,,,,,,,,,,,,,,,,63,2021-03-30_13h04.40.974,premup-three_ses-02_part-02_label-phase2,3.2.4,MacIntel,60,,,,,,,,,,,,,,,,,,,,,,,,,,,,,
right,0.793000221,1,241,,,,,,,,,,,,,3,5,2,stim/52.jpeg,HouseObjects,2,stim/objects/HouseObjects/garbagebin3.png,0.9,3,-0.2,-0.15,right,63,2021-03-30_13h04.40.974,premup-three_ses-02_part-02_label-phase2,3.2.4,MacIntel,60,,,,,,,,,,,,,,,,,1,0,330,183,1,329,2,,,,,,
right,0.532000065,1,242,,,,,,,,,,,,,3,5,2,stim/52.jpeg,HouseObjects,2,stim/objects/HouseObjects/dustpan3.png,0.9,3,-0.2,-0.15,right,63,2021-03-30_13h04.40.974,premup-three_ses-02_part-02_label-phase2,3.2.4,MacIntel,60,,,,,,,,,,,,,,,,,1,0,330,151,1,329,2,,,,,,
left,0.577000141,1,243,,,,,,,,,,,,,1,1,1,stim/11.jpeg,Instruments,1,stim/objects/Instruments/harp3.png,0.5,2,0.2,0.15,left,63,2021-03-30_13h04.40.974,premup-three_ses-02_part-02_label-phase2,3.2.4,MacIntel,60,,,,,,,,,,,,,,,,,1,0,330,12,1,329,1,,,,,,
right,0.710000038,1,244,,,,,,,,,,,,,1,2,4,stim/24.jpeg,HouseObjects,2,stim/objects/HouseObjects/broom3.png,0.5,4,0.2,-0.15,right,63,2021-03-30_13h04.40.974,premup-three_ses-02_part-02_label-phase2,3.2.4,MacIntel,60,,,,,,,,,,,,,,,,,1,0,330,47,1,329,2,,,,,,
left,0.713000059,1,245,,,,,,,,,,,,,3,6,4,stim/64.jpeg,Instruments,1,stim/objects/Instruments/flutetrans3.png,0.9,1,-0.2,0.15,left,63,2021-03-30_13h04.40.974,premup-three_ses-02_part-02_label-phase2,3.2.4,MacIntel,60,,,,,,,,,,,,,,,,,1,0,330,281,1,329,2,,,,,,
right,0.751000166,1,246,,,,,,,,,,,,,3,5,4,stim/54.jpeg,HouseObjects,2,stim/objects/HouseObjects/garbagebin3.png,0.9,3,-0.2,-0.15,right,63,2021-03-30_13h04.40.974,premup-three_ses-02_part-02_label-phase2,3.2.4,MacIntel,60,,,,,,,,,,,,,,,,,1,0,330,173,1,329,2,,,,,,
left,0.64800024,1,247,,,,,,,,,,,,,3,6,3,stim/63.jpeg,Instruments,1,stim/objects/Instruments/flutetrans3.png,0.9,1,-0.2,0.15,left,63,2021-03-30_13h04.40.974,premup-three_ses-02_part-02_label-phase2,3.2.4,MacIntel,60,,,,,,,,,,,,,,,,,1,0,330,276,1,329,2,,,,,,
,,0,248,,,,,,,,,,,,,1,2,1,stim/21.jpeg,Instruments,1,stim/objects/Instruments/cello3.png,0.5,4,0.2,-0.15,left,63,2021-03-30_13h04.40.974,premup-three_ses-02_part-02_label-phase2,3.2.4,MacIntel,60,,,,,,,,,,,,,,,,,1,0,330,36,1,329,2,,,,,,
left,0.702000141,1,249,,,,,,,,,,,,,3,6,1,stim/61.jpeg,Instruments,1,stim/objects/Instruments/frenchhorn3.png,0.9,1,-0.2,0.15,left,63,2021-03-30_13h04.40.974,premup-three_ses-02_part-02_label-phase2,3.2.4,MacIntel,60,,,,,,,,,,,,,,,,,1,0,330,302,1,329,2,,,,,,
right,0.725000143,0,250,,,,,,,,,,,,,2,4,2,stim/42.jpeg,Instruments,1,stim/objects/Instruments/chime4.png,0.7,4,0.2,-0.15,left,63,2021-03-30_13h04.40.974,premup-three_ses-02_part-02_label-phase2,3.2.4,MacIntel,60,,,,,,,,,,,,,,,,,1,0,330,112,1,329,1,,,,,,
,,0,251,,,,,,,,,,,,,2,3,3,stim/33.jpeg,Instruments,1,stim/objects/Instruments/violin3.png,0.3,1,-0.2,0.15,left,63,2021-03-30_13h04.40.974,premup-three_ses-02_part-02_label-phase2,3.2.4,MacIntel,60,,,,,,,,,,,,,,,,,1,0,330,62,1,329,1,,,,,,
left,0.667999983,1,252,,,,,,,,,,,,,3,6,3,stim/63.jpeg,Instruments,1,stim/objects/Instruments/marimba4.png,0.9,3,-0.2,-0.15,left,63,2021-03-30_13h04.40.974,premup-three_ses-02_part-02_label-phase2,3.2.4,MacIntel,60,,,,,,,,,,,,,,,,,1,0,330,312,1,329,1,,,,,,
right,0.817000151,0,253,,,,,,,,,,,,,3,6,1,stim/61.jpeg,Instruments,1,stim/objects/Instruments/gong3.png,0.9,1,-0.2,0.15,left,63,2021-03-30_13h04.40.974,premup-three_ses-02_part-02_label-phase2,3.2.4,MacIntel,60,,,,,,,,,,,,,,,,,1,0,330,278,1,329,2,,,,,,
right,0.865999937,0,254,,,,,,,,,,,,,1,2,1,stim/21.jpeg,Instruments,1,stim/objects/Instruments/laud3.png,0.5,1,-0.2,0.15,left,63,2021-03-30_13h04.40.974,premup-three_ses-02_part-02_label-phase2,3.2.4,MacIntel,60,,,,,,,,,,,,,,,,,1,0,330,40,1,329,1,,,,,,
,,0,255,,,,,,,,,,,,,3,5,4,stim/54.jpeg,HouseObjects,2,stim/objects/HouseObjects/dustpan3.png,0.9,2,0.2,0.15,right,63,2021-03-30_13h04.40.974,premup-three_ses-02_part-02_label-phase2,3.2.4,MacIntel,60,,,,,,,,,,,,,,,,,1,0,330,161,1,329,2,,,,,,
left,0.653000116,1,256,,,,,,,,,,,,,3,6,3,stim/63.jpeg,Instruments,1,stim/objects/Instruments/gong3.png,0.9,4,0.2,-0.15,left,63,2021-03-30_13h04.40.974,premup-three_ses-02_part-02_label-phase2,3.2.4,MacIntel,60,,,,,,,,,,,,,,,,,1,0,330,248,1,329,2,,,,,,
right,0.610000134,1,257,,,,,,,,,,,,,3,5,2,stim/52.jpeg,HouseObjects,2,stim/objects/HouseObjects/garbagebin4.png,0.9,1,-0.2,0.15,right,63,2021-03-30_13h04.40.974,premup-three_ses-02_part-02_label-phase2,3.2.4,MacIntel,60,,,,,,,,,,,,,,,,,1,0,330,223,1,329,1,,,,,,
right,0.830000162,0,258,,,,,,,,,,,,,2,4,2,stim/42.jpeg,Instruments,1,stim/objects/Instruments/doublebass3.png,0.7,2,0.2,0.15,left,63,2021-03-30_13h04.40.974,premup-three_ses-02_part-02_label-phase2,3.2.4,MacIntel,60,,,,,,,,,,,,,,,,,1,0,330,96,1,329,2,,,,,,
,,0,259,,,,,,,,,,,,,3,5,4,stim/54.jpeg,HouseObjects,2,stim/objects/HouseObjects/dustpan3.png,0.9,3,-0.2,-0.15,right,63,2021-03-30_13h04.40.974,premup-three_ses-02_part-02_label-phase2,3.2.4,MacIntel,60,,,,,,,,,,,,,,,,,1,0,330,141,1,329,2,,,,,,
right,0.603000164,1,260,,,,,,,,,,,,,3,5,1,stim/51.jpeg,HouseObjects,2,stim/objects/HouseObjects/dustpan3.png,0.9,4,0.2,-0.15,right,63,2021-03-30_13h04.40.974,premup-three_ses-02_part-02_label-phase2,3.2.4,MacIntel,60,,,,,,,,,,,,,,,,,1,0,330,206,1,329,2,,,,,,
right,0.663000107,0,261,,,,,,,,,,,,,1,1,3,stim/13.jpeg,Instruments,1,stim/objects/Instruments/acousticguitar3.png,0.5,3,-0.2,-0.15,left,63,2021-03-30_13h04.40.974,premup-three_ses-02_part-02_label-phase2,3.2.4,MacIntel,60,,,,,,,,,,,,,,,,,1,0,330,6,1,329,2,,,,,,
right,0.819000244,1,262,,,,,,,,,,,,,2,3,3,stim/33.jpeg,HouseObjects,2,stim/objects/HouseObjects/bleachbottle4.png,0.7,2,0.2,0.15,right,63,2021-03-30_13h04.40.974,premup-three_ses-02_part-02_label-phase2,3.2.4,MacIntel,60,,,,,,,,,,,,,,,,,1,0,330,94,1,329,1,,,,,,
right,0.552000046,1,263,,,,,,,,,,,,,3,5,2,stim/52.jpeg,HouseObjects,2,stim/objects/HouseObjects/garbagebin3.png,0.9,2,0.2,0.15,right,63,2021-03-30_13h04.40.974,premup-three_ses-02_part-02_label-phase2,3.2.4,MacIntel,60,,,,,,,,,,,,,,,,,1,0,330,203,1,329,2,,,,,,
right,0.673000097,1,264,,,,,,,,,,,,,3,5,1,stim/51.jpeg,HouseObjects,2,stim/objects/HouseObjects/hairdryer4.png,0.9,4,0.2,-0.15,right,63,2021-03-30_13h04.40.974,premup-three_ses-02_part-02_label-phase2,3.2.4,MacIntel,60,,,,,,,,,,,,,,,,,1,0,330,226,1,329,1,,,,,,
left,0.780999899,1,265,,,,,,,,,,,,,2,4,1,stim/41.jpeg,Instruments,1,stim/objects/Instruments/cymbal3.png,0.7,3,-0.2,-0.15,left,63,2021-03-30_13h04.40.974,premup-three_ses-02_part-02_label-phase2,3.2.4,MacIntel,60,,,,,,,,,,,,,,,,,1,0,330,95,1,329,2,,,,,,
left,0.601999998,1,266,,,,,,,,,,,,,3,6,4,stim/64.jpeg,Instruments,1,stim/objects/Instruments/gong3.png,0.9,2,0.2,0.15,left,63,2021-03-30_13h04.40.974,premup-three_ses-02_part-02_label-phase2,3.2.4,MacIntel,60,,,,,,,,,,,,,,,,,1,0,330,293,1,329,2,,,,,,
right,0.63499999,1,267,,,,,,,,,,,,,3,5,4,stim/54.jpeg,HouseObjects,2,stim/objects/HouseObjects/doormat3.png,0.9,4,0.2,-0.15,right,63,2021-03-30_13h04.40.974,premup-three_ses-02_part-02_label-phase2,3.2.4,MacIntel,60,,,,,,,,,,,,,,,,,1,0,330,185,1,329,2,,,,,,
left,0.762000084,0,268,,,,,,,,,,,,,2,4,3,stim/43.jpeg,HouseObjects,2,stim/objects/HouseObjects/clothesdryingrack4.png,0.3,2,0.2,0.15,right,63,2021-03-30_13h04.40.974,premup-three_ses-02_part-02_label-phase2,3.2.4,MacIntel,60,,,,,,,,,,,,,,,,,1,0,330,125,1,329,1,,,,,,
right,0.832999945,0,269,,,,,,,,,,,,,2,3,2,stim/32.jpeg,Instruments,1,stim/objects/Instruments/oboe3.png,0.3,4,0.2,-0.15,left,63,2021-03-30_13h04.40.974,premup-three_ses-02_part-02_label-phase2,3.2.4,MacIntel,60,,,,,,,,,,,,,,,,,1,0,330,61,1,329,1,,,,,,
left,0.640000105,1,270,,,,,,,,,,,,,3,6,2,stim/62.jpeg,Instruments,1,stim/objects/Instruments/frenchhorn3.png,0.9,2,0.2,0.15,left,63,2021-03-30_13h04.40.974,premup-three_ses-02_part-02_label-phase2,3.2.4,MacIntel,60,,,,,,,,,,,,,,,,,1,0,330,247,1,329,2,,,,,,
right,0.781000137,1,271,,,,,,,,,,,,,1,1,1,stim/11.jpeg,HouseObjects,2,stim/objects/HouseObjects/ashtray3.png,0.5,4,0.2,-0.15,right,63,2021-03-30_13h04.40.974,premup-three_ses-02_part-02_label-phase2,3.2.4,MacIntel,60,,,,,,,,,,,,,,,,,1,0,330,20,1,329,2,,,,,,
left,0.822000265,1,272,,,,,,,,,,,,,2,4,3,stim/43.jpeg,Instruments,1,stim/objects/Instruments/cymbal3.png,0.7,3,-0.2,-0.15,left,63,2021-03-30_13h04.40.974,premup-three_ses-02_part-02_label-phase2,3.2.4,MacIntel,60,,,,,,,,,,,,,,,,,1,0,330,105,1,329,2,,,,,,
right,0.758000135,1,273,,,,,,,,,,,,,2,3,2,stim/32.jpeg,HouseObjects,2,stim/objects/HouseObjects/basket4.png,0.7,2,0.2,0.15,right,63,2021-03-30_13h04.40.974,premup-three_ses-02_part-02_label-phase2,3.2.4,MacIntel,60,,,,,,,,,,,,,,,,,1,0,330,93,1,329,1,,,,,,
left,0.629000187,1,274,,,,,,,,,,,,,3,6,4,stim/64.jpeg,Instruments,1,stim/objects/Instruments/grandpiano3.png,0.9,1,-0.2,0.15,left,63,2021-03-30_13h04.40.974,premup-three_ses-02_part-02_label-phase2,3.2.4,MacIntel,60,,,,,,,,,,,,,,,,,1,0,330,269,1,329,2,,,,,,
right,0.684000015,0,275,,,,,,,,,,,,,1,2,1,stim/21.jpeg,Instruments,1,stim/objects/Instruments/chime3.png,0.5,2,0.2,0.15,left,63,2021-03-30_13h04.40.974,premup-three_ses-02_part-02_label-phase2,3.2.4,MacIntel,60,,,,,,,,,,,,,,,,,1,0,330,32,1,329,2,,,,,,
left,0.617000103,1,276,,,,,,,,,,,,,3,6,3,stim/63.jpeg,Instruments,1,stim/objects/Instruments/flute3.png,0.9,1,-0.2,0.15,left,63,2021-03-30_13h04.40.974,premup-three_ses-02_part-02_label-phase2,3.2.4,MacIntel,60,,,,,,,,,,,,,,,,,1,0,330,300,1,329,2,,,,,,
right,0.546000242,0,277,,,,,,,,,,,,,2,3,2,stim/32.jpeg,Instruments,1,stim/objects/Instruments/accordion4.png,0.3,4,0.2,-0.15,left,63,2021-03-30_13h04.40.974,premup-three_ses-02_part-02_label-phase2,3.2.4,MacIntel,60,,,,,,,,,,,,,,,,,1,0,330,65,1,329,1,,,,,,
right,0.720000029,1,278,,,,,,,,,,,,,3,5,4,stim/54.jpeg,HouseObjects,2,stim/objects/HouseObjects/flyswatter3.png,0.9,2,0.2,0.15,right,63,2021-03-30_13h04.40.974,premup-three_ses-02_part-02_label-phase2,3.2.4,MacIntel,60,,,,,,,,,,,,,,,,,1,0,330,157,1,329,2,,,,,,
right,0.796000004,1,279,,,,,,,,,,,,,3,5,3,stim/53.jpeg,HouseObjects,2,stim/objects/HouseObjects/dustpan3.png,0.9,4,0.2,-0.15,right,63,2021-03-30_13h04.40.974,premup-three_ses-02_part-02_label-phase2,3.2.4,MacIntel,60,,,,,,,,,,,,,,,,,1,0,330,156,1,329,2,,,,,,
left,0.667000055,0,280,,,,,,,,,,,,,3,6,3,stim/63.jpeg,HouseObjects,2,stim/objects/HouseObjects/match4.png,0.1,2,0.2,0.15,right,63,2021-03-30_13h04.40.974,premup-three_ses-02_part-02_label-phase2,3.2.4,MacIntel,60,,,,,,,,,,,,,,,,,1,0,330,324,1,329,1,,,,,,
right,0.683000088,1,281,,,,,,,,,,,,,3,5,4,stim/54.jpeg,HouseObjects,2,stim/objects/HouseObjects/flyswatter3.png,0.9,2,0.2,0.15,right,63,2021-03-30_13h04.40.974,premup-three_ses-02_part-02_label-phase2,3.2.4,MacIntel,60,,,,,,,,,,,,,,,,,1,0,330,177,1,329,2,,,,,,
right,0.728000164,1,282,,,,,,,,,,,,,3,5,4,stim/54.jpeg,HouseObjects,2,stim/objects/HouseObjects/doormat3.png,0.9,2,0.2,0.15,right,63,2021-03-30_13h04.40.974,premup-three_ses-02_part-02_label-phase2,3.2.4,MacIntel,60,,,,,,,,,,,,,,,,,1,0,330,145,1,329,2,,,,,,
,,0,283,,,,,,,,,,,,,2,4,2,stim/42.jpeg,Instruments,1,stim/objects/Instruments/doublebass4.png,0.7,4,0.2,-0.15,left,63,2021-03-30_13h04.40.974,premup-three_ses-02_part-02_label-phase2,3.2.4,MacIntel,60,,,,,,,,,,,,,,,,,1,0,330,116,1,329,1,,,,,,
right,0.603000164,1,284,,,,,,,,,,,,,3,5,1,stim/51.jpeg,HouseObjects,2,stim/objects/HouseObjects/garbagebin3.png,0.9,1,-0.2,0.15,right,63,2021-03-30_13h04.40.974,premup-three_ses-02_part-02_label-phase2,3.2.4,MacIntel,60,,,,,,,,,,,,,,,,,1,0,330,178,1,329,2,,,,,,
left,0.573000193,1,285,,,,,,,,,,,,,3,6,2,stim/62.jpeg,Instruments,1,stim/objects/Instruments/flutetrans3.png,0.9,2,0.2,0.15,left,63,2021-03-30_13h04.40.974,premup-three_ses-02_part-02_label-phase2,3.2.4,MacIntel,60,,,,,,,,,,,,,,,,,1,0,330,271,1,329,2,,,,,,
right,0.553000212,1,286,,,,,,,,,,,,,3,5,1,stim/51.jpeg,HouseObjects,2,stim/objects/HouseObjects/flyswatter3.png,0.9,3,-0.2,-0.15,right,63,2021-03-30_13h04.40.974,premup-three_ses-02_part-02_label-phase2,3.2.4,MacIntel,60,,,,,,,,,,,,,,,,,1,0,330,182,1,329,2,,,,,,
right,0.679000139,1,287,,,,,,,,,,,,,2,3,1,stim/31.jpeg,HouseObjects,2,stim/objects/HouseObjects/coffee3.png,0.7,4,0.2,-0.15,right,63,2021-03-30_13h04.40.974,premup-three_ses-02_part-02_label-phase2,3.2.4,MacIntel,60,,,,,,,,,,,,,,,,,1,0,330,72,1,329,2,,,,,,
left,0.561000109,1,288,,,,,,,,,,,,,3,6,3,stim/63.jpeg,Instruments,1,stim/objects/Instruments/frenchhorn3.png,0.9,3,-0.2,-0.15,left,63,2021-03-30_13h04.40.974,premup-three_ses-02_part-02_label-phase2,3.2.4,MacIntel,60,,,,,,,,,,,,,,,,,1,0,330,232,1,329,2,,,,,,
right,0.52699995,1,289,,,,,,,,,,,,,3,6,4,stim/64.jpeg,HouseObjects,2,stim/objects/HouseObjects/key4.png,0.1,4,0.2,-0.15,right,63,2021-03-30_13h04.40.974,premup-three_ses-02_part-02_label-phase2,3.2.4,MacIntel,60,,,,,,,,,,,,,,,,,1,0,330,321,1,329,1,,,,,,
left,0.677000284,1,290,,,,,,,,,,,,,3,6,3,stim/63.jpeg,Instruments,1,stim/objects/Instruments/gong3.png,0.9,4,0.2,-0.15,left,63,2021-03-30_13h04.40.974,premup-three_ses-02_part-02_label-phase2,3.2.4,MacIntel,60,,,,,,,,,,,,,,,,,1,0,330,288,1,329,2,,,,,,
right,0.833000183,0,291,,,,,,,,,,,,,1,1,4,stim/14.jpeg,Instruments,1,stim/objects/Instruments/banjo3.png,0.5,4,0.2,-0.15,left,63,2021-03-30_13h04.40.974,premup-three_ses-02_part-02_label-phase2,3.2.4,MacIntel,60,,,,,,,,,,,,,,,,,1,0,330,3,1,329,2,,,,,,
right,0.729000092,0,292,,,,,,,,,,,,,1,2,2,stim/22.jpeg,Instruments,1,stim/objects/Instruments/clarinet3.png,0.5,1,-0.2,0.15,left,63,2021-03-30_13h04.40.974,premup-three_ses-02_part-02_label-phase2,3.2.4,MacIntel,60,,,,,,,,,,,,,,,,,1,0,330,33,1,329,2,,,,,,
left,0.6650002,1,293,,,,,,,,,,,,,3,6,4,stim/64.jpeg,Instruments,1,stim/objects/Instruments/grandpiano3.png,0.9,3,-0.2,-0.15,left,63,2021-03-30_13h04.40.974,premup-three_ses-02_part-02_label-phase2,3.2.4,MacIntel,60,,,,,,,,,,,,,,,,,1,0,330,249,1,329,2,,,,,,
left,0.61500001,1,294,,,,,,,,,,,,,1,2,3,stim/23.jpeg,Instruments,1,stim/objects/Instruments/cornet3.png,0.5,3,-0.2,-0.15,left,63,2021-03-30_13h04.40.974,premup-three_ses-02_part-02_label-phase2,3.2.4,MacIntel,60,,,,,,,,,,,,,,,,,1,0,330,34,1,329,2,,,,,,
right,0.684999943,1,295,,,,,,,,,,,,,3,5,3,stim/53.jpeg,HouseObjects,2,stim/objects/HouseObjects/dustpan3.png,0.9,1,-0.2,0.15,right,63,2021-03-30_13h04.40.974,premup-three_ses-02_part-02_label-phase2,3.2.4,MacIntel,60,,,,,,,,,,,,,,,,,1,0,330,216,1,329,2,,,,,,
right,0.566000223,1,296,,,,,,,,,,,,,3,5,3,stim/53.jpeg,HouseObjects,2,stim/objects/HouseObjects/garbagebin3.png,0.9,4,0.2,-0.15,right,63,2021-03-30_13h04.40.974,premup-three_ses-02_part-02_label-phase2,3.2.4,MacIntel,60,,,,,,,,,,,,,,,,,1,0,330,148,1,329,2,,,,,,
left,0.565999985,1,297,,,,,,,,,,,,,3,6,3,stim/63.jpeg,Instruments,1,stim/objects/Instruments/oboe4.png,0.9,1,-0.2,0.15,left,63,2021-03-30_13h04.40.974,premup-three_ses-02_part-02_label-phase2,3.2.4,MacIntel,60,,,,,,,,,,,,,,,,,1,0,330,316,1,329,1,,,,,,
right,0.664000034,1,298,,,,,,,,,,,,,2,3,1,stim/31.jpeg,HouseObjects,2,stim/objects/HouseObjects/clothespin3.png,0.7,1,-0.2,0.15,right,63,2021-03-30_13h04.40.974,premup-three_ses-02_part-02_label-phase2,3.2.4,MacIntel,60,,,,,,,,,,,,,,,,,1,0,330,76,1,329,2,,,,,,
left,0.758000135,0,299,,,,,,,,,,,,,1,1,2,stim/12.jpeg,HouseObjects,2,stim/objects/HouseObjects/ballofstring3.png,0.5,4,0.2,-0.15,right,63,2021-03-30_13h04.40.974,premup-three_ses-02_part-02_label-phase2,3.2.4,MacIntel,60,,,,,,,,,,,,,,,,,1,0,330,21,1,329,2,,,,,,
right,0.664000034,0,300,,,,,,,,,,,,,2,3,3,stim/33.jpeg,Instruments,1,stim/objects/Instruments/acousticguitar4.png,0.3,3,-0.2,-0.15,left,63,2021-03-30_13h04.40.974,premup-three_ses-02_part-02_label-phase2,3.2.4,MacIntel,60,,,,,,,,,,,,,,,,,1,0,330,66,1,329,1,,,,,,
left,0.773000002,1,301,,,,,,,,,,,,,1,1,3,stim/13.jpeg,Instruments,1,stim/objects/Instruments/balalaika3.png,0.5,1,-0.2,0.15,left,63,2021-03-30_13h04.40.974,premup-three_ses-02_part-02_label-phase2,3.2.4,MacIntel,60,,,,,,,,,,,,,,,,,1,0,330,2,1,329,2,,,,,,
right,0.739000082,1,302,,,,,,,,,,,,,3,5,4,stim/54.jpeg,HouseObjects,2,stim/objects/HouseObjects/flyswatter3.png,0.9,4,0.2,-0.15,right,63,2021-03-30_13h04.40.974,premup-three_ses-02_part-02_label-phase2,3.2.4,MacIntel,60,,,,,,,,,,,,,,,,,1,0,330,197,1,329,2,,,,,,
left,0.707000017,1,303,,,,,,,,,,,,,1,1,3,stim/13.jpeg,Instruments,1,stim/objects/Instruments/guitarcase3.png,0.5,1,-0.2,0.15,left,63,2021-03-30_13h04.40.974,premup-three_ses-02_part-02_label-phase2,3.2.4,MacIntel,60,,,,,,,,,,,,,,,,,1,0,330,10,1,329,1,,,,,,
left,0.660000086,1,304,,,,,,,,,,,,,3,6,4,stim/64.jpeg,Instruments,1,stim/objects/Instruments/frenchhorn3.png,0.9,3,-0.2,-0.15,left,63,2021-03-30_13h04.40.974,premup-three_ses-02_part-02_label-phase2,3.2.4,MacIntel,60,,,,,,,,,,,,,,,,,1,0,330,237,1,329,2,,,,,,
left,0.763000011,1,305,,,,,,,,,,,,,2,4,3,stim/43.jpeg,Instruments,1,stim/objects/Instruments/clarinet4.png,0.7,3,-0.2,-0.15,left,63,2021-03-30_13h04.40.974,premup-three_ses-02_part-02_label-phase2,3.2.4,MacIntel,60,,,,,,,,,,,,,,,,,1,0,330,113,1,329,1,,,,,,
left,0.728000164,0,306,,,,,,,,,,,,,1,2,3,stim/23.jpeg,HouseObjects,2,stim/objects/HouseObjects/lintroller3.png,0.5,3,-0.2,-0.15,right,63,2021-03-30_13h04.40.974,premup-three_ses-02_part-02_label-phase2,3.2.4,MacIntel,60,,,,,,,,,,,,,,,,,1,0,330,58,1,329,1,,,,,,
left,0.611000061,1,307,,,,,,,,,,,,,3,6,3,stim/63.jpeg,Instruments,1,stim/objects/Instruments/flute3.png,0.9,1,-0.2,0.15,left,63,2021-03-30_13h04.40.974,premup-three_ses-02_part-02_label-phase2,3.2.4,MacIntel,60,,,,,,,,,,,,,,,,,1,0,330,240,1,329,2,,,,,,
right,0.704999924,0,308,,,,,,,,,,,,,1,1,1,stim/11.jpeg,Instruments,1,stim/objects/Instruments/accordion3.png,0.5,4,0.2,-0.15,left,63,2021-03-30_13h04.40.974,premup-three_ses-02_part-02_label-phase2,3.2.4,MacIntel,60,,,,,,,,,,,,,,,,,1,0,330,0,1,329,2,,,,,,
right,0.820000172,1,309,,,,,,,,,,,,,3,5,1,stim/51.jpeg,HouseObjects,2,stim/objects/HouseObjects/glass3.png,0.9,3,-0.2,-0.15,right,63,2021-03-30_13h04.40.974,premup-three_ses-02_part-02_label-phase2,3.2.4,MacIntel,60,,,,,,,,,,,,,,,,,1,0,330,194,1,329,2,,,,,,
left,0.584000111,1,310,,,,,,,,,,,,,3,6,2,stim/62.jpeg,Instruments,1,stim/objects/Instruments/gong3.png,0.9,2,0.2,0.15,left,63,2021-03-30_13h04.40.974,premup-three_ses-02_part-02_label-phase2,3.2.4,MacIntel,60,,,,,,,,,,,,,,,,,1,0,330,263,1,329,2,,,,,,
left,0.763000011,1,311,,,,,,,,,,,,,1,1,4,stim/14.jpeg,Instruments,1,stim/objects/Instruments/balalaika3.png,0.5,1,-0.2,0.15,left,63,2021-03-30_13h04.40.974,premup-three_ses-02_part-02_label-phase2,3.2.4,MacIntel,60,,,,,,,,,,,,,,,,,1,0,330,7,1,329,2,,,,,,
right,0.74600029,1,312,,,,,,,,,,,,,3,5,2,stim/52.jpeg,HouseObjects,2,stim/objects/HouseObjects/glass3.png,0.9,2,0.2,0.15,right,63,2021-03-30_13h04.40.974,premup-three_ses-02_part-02_label-phase2,3.2.4,MacIntel,60,,,,,,,,,,,,,,,,,1,0,330,199,1,329,2,,,,,,
right,0.724999905,0,313,,,,,,,,,,,,,2,3,1,stim/31.jpeg,Instruments,1,stim/objects/Instruments/musicstand3.png,0.3,2,0.2,0.15,left,63,2021-03-30_13h04.40.974,premup-three_ses-02_part-02_label-phase2,3.2.4,MacIntel,60,,,,,,,,,,,,,,,,,1,0,330,60,1,329,1,,,,,,
,,0,314,,,,,,,,,,,,,1,1,1,stim/11.jpeg,Instruments,1,stim/objects/Instruments/banjo3.png,0.5,2,0.2,0.15,left,63,2021-03-30_13h04.40.974,premup-three_ses-02_part-02_label-phase2,3.2.4,MacIntel,60,,,,,,,,,,,,,,,,,1,0,330,8,1,329,2,,,,,,
left,0.533000231,1,315,,,,,,,,,,,,,3,6,2,stim/62.jpeg,Instruments,1,stim/objects/Instruments/flute3.png,0.9,1,-0.2,0.15,left,63,2021-03-30_13h04.40.974,premup-three_ses-02_part-02_label-phase2,3.2.4,MacIntel,60,,,,,,,,,,,,,,,,,1,0,330,235,1,329,2,,,,,,
left,0.614000082,1,316,,,,,,,,,,,,,3,6,4,stim/64.jpeg,Instruments,1,stim/objects/Instruments/violin4.png,0.9,3,-0.2,-0.15,left,63,2021-03-30_13h04.40.974,premup-three_ses-02_part-02_label-phase2,3.2.4,MacIntel,60,,,,,,,,,,,,,,,,,1,0,330,317,1,329,1,,,,,,
right,0.668000221,1,317,,,,,,,,,,,,,3,5,4,stim/54.jpeg,HouseObjects,2,stim/objects/HouseObjects/flyswatter3.png,0.9,3,-0.2,-0.15,right,63,2021-03-30_13h04.40.974,premup-three_ses-02_part-02_label-phase2,3.2.4,MacIntel,60,,,,,,,,,,,,,,,,,1,0,330,217,1,329,2,,,,,,
left,0.729000092,1,318,,,,,,,,,,,,,3,6,1,stim/61.jpeg,Instruments,1,stim/objects/Instruments/frenchhorn3.png,0.9,4,0.2,-0.15,left,63,2021-03-30_13h04.40.974,premup-three_ses-02_part-02_label-phase2,3.2.4,MacIntel,60,,,,,,,,,,,,,,,,,1,0,330,242,1,329,2,,,,,,
left,0.747000217,1,319,,,,,,,,,,,,,2,4,4,stim/44.jpeg,Instruments,1,stim/objects/Instruments/bassguitar4.png,0.7,1,-0.2,0.15,left,63,2021-03-30_13h04.40.974,premup-three_ses-02_part-02_label-phase2,3.2.4,MacIntel,60,,,,,,,,,,,,,,,,,1,0,330,110,1,329,1,,,,,,
left,0.528000116,1,320,,,,,,,,,,,,,3,6,4,stim/64.jpeg,Instruments,1,stim/objects/Instruments/frenchhorn3.png,0.9,1,-0.2,0.15,left,63,2021-03-30_13h04.40.974,premup-three_ses-02_part-02_label-phase2,3.2.4,MacIntel,60,,,,,,,,,,,,,,,,,1,0,330,297,1,329,2,,,,,,
right,0.747000217,1,321,,,,,,,,,,,,,3,5,4,stim/54.jpeg,HouseObjects,2,stim/objects/HouseObjects/glass3.png,0.9,1,-0.2,0.15,right,63,2021-03-30_13h04.40.974,premup-three_ses-02_part-02_label-phase2,3.2.4,MacIntel,60,,,,,,,,,,,,,,,,,1,0,330,209,1,329,2,,,,,,
left,0.676000118,1,322,,,,,,,,,,,,,1,2,4,stim/24.jpeg,Instruments,1,stim/objects/Instruments/cello3.png,0.5,4,0.2,-0.15,left,63,2021-03-30_13h04.40.974,premup-three_ses-02_part-02_label-phase2,3.2.4,MacIntel,60,,,,,,,,,,,,,,,,,1,0,330,31,1,329,2,,,,,,
left,0.594000101,1,323,,,,,,,,,,,,,3,6,2,stim/62.jpeg,Instruments,1,stim/objects/Instruments/grandpiano3.png,0.9,2,0.2,0.15,left,63,2021-03-30_13h04.40.974,premup-three_ses-02_part-02_label-phase2,3.2.4,MacIntel,60,,,,,,,,,,,,,,,,,1,0,330,239,1,329,2,,,,,,
right,0.562000036,1,324,,,,,,,,,,,,,3,5,1,stim/51.jpeg,HouseObjects,2,stim/objects/HouseObjects/glass3.png,0.9,1,-0.2,0.15,right,63,2021-03-30_13h04.40.974,premup-three_ses-02_part-02_label-phase2,3.2.4,MacIntel,60,,,,,,,,,,,,,,,,,1,0,330,154,1,329,2,,,,,,
left,0.694999933,1,325,,,,,,,,,,,,,2,4,4,stim/44.jpeg,Instruments,1,stim/objects/Instruments/doublebass3.png,0.7,2,0.2,0.15,left,63,2021-03-30_13h04.40.974,premup-three_ses-02_part-02_label-phase2,3.2.4,MacIntel,60,,,,,,,,,,,,,,,,,1,0,330,106,1,329,2,,,,,,
left,0.533000231,1,326,,,,,,,,,,,,,3,6,2,stim/62.jpeg,Instruments,1,stim/objects/Instruments/gong3.png,0.9,2,0.2,0.15,left,63,2021-03-30_13h04.40.974,premup-three_ses-02_part-02_label-phase2,3.2.4,MacIntel,60,,,,,,,,,,,,,,,,,1,0,330,283,1,329,2,,,,,,
left,0.532000065,0,327,,,,,,,,,,,,,3,5,2,stim/52.jpeg,HouseObjects,2,stim/objects/HouseObjects/flyswatter3.png,0.9,2,0.2,0.15,right,63,2021-03-30_13h04.40.974,premup-three_ses-02_part-02_label-phase2,3.2.4,MacIntel,60,,,,,,,,,,,,,,,,,1,0,330,147,1,329,2,,,,,,
left,0.563000202,1,328,,,,,,,,,,,,,3,6,3,stim/63.jpeg,Instruments,1,stim/objects/Instruments/gong3.png,0.9,3,-0.2,-0.15,left,63,2021-03-30_13h04.40.974,premup-three_ses-02_part-02_label-phase2,3.2.4,MacIntel,60,,,,,,,,,,,,,,,,,1,0,330,268,1,329,2,,,,,,
right,0.603000164,1,329,,,,,,,,,,,,,3,5,4,stim/54.jpeg,HouseObjects,2,stim/objects/HouseObjects/glass3.png,0.9,3,-0.2,-0.15,right,63,2021-03-30_13h04.40.974,premup-three_ses-02_part-02_label-phase2,3.2.4,MacIntel,60,,,,,,,,,,,,,,,,,1,0,330,189,1,329,2,,,,,,
right,0.496999979,1,330,,,,,,,,,,,,,3,5,4,stim/54.jpeg,HouseObjects,2,stim/objects/HouseObjects/glass3.png,0.9,2,0.2,0.15,right,63,2021-03-30_13h04.40.974,premup-three_ses-02_part-02_label-phase2,3.2.4,MacIntel,60,,,,,,,,,,,,,,,,,1,0,330,169,1,329,2,,,,,,
left,0.684000254,1,331,,,,,,,,,,,,,2,4,4,stim/44.jpeg,Instruments,1,stim/objects/Instruments/drums3.png,0.7,4,0.2,-0.15,left,63,2021-03-30_13h04.40.974,premup-three_ses-02_part-02_label-phase2,3.2.4,MacIntel,60,,,,,,,,,,,,,,,,,1,0,330,102,1,329,2,,,,,,
left,0.755000114,1,332,,,,,,,,,,,,,3,6,2,stim/62.jpeg,Instruments,1,stim/objects/Instruments/grandpiano3.png,0.9,2,0.2,0.15,left,63,2021-03-30_13h04.40.974,premup-three_ses-02_part-02_label-phase2,3.2.4,MacIntel,60,,,,,,,,,,,,,,,,,1,0,330,279,1,329,2,,,,,,
left,0.461000204,0,333,,,,,,,,,,,,,3,6,2,stim/62.jpeg,HouseObjects,2,stim/objects/HouseObjects/lintroller4.png,0.1,4,0.2,-0.15,right,63,2021-03-30_13h04.40.974,premup-three_ses-02_part-02_label-phase2,3.2.4,MacIntel,60,,,,,,,,,,,,,,,,,1,0,330,323,1,329,1,,,,,,
left,0.871000051,1,334,,,,,,,,,,,,,3,6,4,stim/64.jpeg,Instruments,1,stim/objects/Instruments/frenchhorn3.png,0.9,3,-0.2,-0.15,left,63,2021-03-30_13h04.40.974,premup-three_ses-02_part-02_label-phase2,3.2.4,MacIntel,60,,,,,,,,,,,,,,,,,1,0,330,257,1,329,2,,,,,,
left,0.567000151,1,335,,,,,,,,,,,,,3,6,2,stim/62.jpeg,Instruments,1,stim/objects/Instruments/flutetrans3.png,0.9,4,0.2,-0.15,left,63,2021-03-30_13h04.40.974,premup-three_ses-02_part-02_label-phase2,3.2.4,MacIntel,60,,,,,,,,,,,,,,,,,1,0,330,291,1,329,2,,,,,,
left,0.612000227,1,336,,,,,,,,,,,,,3,6,3,stim/63.jpeg,Instruments,1,stim/objects/Instruments/frenchhorn3.png,0.9,2,0.2,0.15,left,63,2021-03-30_13h04.40.974,premup-three_ses-02_part-02_label-phase2,3.2.4,MacIntel,60,,,,,,,,,,,,,,,,,1,0,330,292,1,329,2,,,,,,
right,0.497999907,1,337,,,,,,,,,,,,,3,5,1,stim/51.jpeg,HouseObjects,2,stim/objects/HouseObjects/garbagebin3.png,0.9,4,0.2,-0.15,right,63,2021-03-30_13h04.40.974,premup-three_ses-02_part-02_label-phase2,3.2.4,MacIntel,60,,,,,,,,,,,,,,,,,1,0,330,218,1,329,2,,,,,,
right,0.600000143,1,338,,,,,,,,,,,,,3,5,3,stim/53.jpeg,HouseObjects,2,stim/objects/HouseObjects/flyswatter3.png,0.9,3,-0.2,-0.15,right,63,2021-03-30_13h04.40.974,premup-three_ses-02_part-02_label-phase2,3.2.4,MacIntel,60,,,,,,,,,,,,,,,,,1,0,330,192,1,329,2,,,,,,
right,0.679000139,0,339,,,,,,,,,,,,,2,4,2,stim/42.jpeg,Instruments,1,stim/objects/Instruments/electricdrumset3.png,0.7,3,-0.2,-0.15,left,63,2021-03-30_13h04.40.974,premup-three_ses-02_part-02_label-phase2,3.2.4,MacIntel,60,,,,,,,,,,,,,,,,,1,0,330,108,1,329,2,,,,,,
left,0.577000141,1,340,,,,,,,,,,,,,3,6,1,stim/61.jpeg,Instruments,1,stim/objects/Instruments/grandpiano3.png,0.9,1,-0.2,0.15,left,63,2021-03-30_13h04.40.974,premup-three_ses-02_part-02_label-phase2,3.2.4,MacIntel,60,,,,,,,,,,,,,,,,,1,0,330,254,1,329,2,,,,,,
left,0.813000202,0,341,,,,,,,,,,,,,2,4,4,stim/44.jpeg,HouseObjects,2,stim/objects/HouseObjects/broom4.png,0.3,2,0.2,0.15,right,63,2021-03-30_13h04.40.974,premup-three_ses-02_part-02_label-phase2,3.2.4,MacIntel,60,,,,,,,,,,,,,,,,,1,0,330,122,1,329,1,,,,,,
left,0.614000082,0,342,,,,,,,,,,,,,3,6,4,stim/64.jpeg,HouseObjects,2,stim/objects/HouseObjects/wateringcan4.png,0.1,2,0.2,0.15,right,63,2021-03-30_13h04.40.974,premup-three_ses-02_part-02_label-phase2,3.2.4,MacIntel,60,,,,,,,,,,,,,,,,,1,0,330,329,1,329,1,,,,,,
right,0.661999941,1,343,,,,,,,,,,,,,3,5,4,stim/54.jpeg,HouseObjects,2,stim/objects/HouseObjects/glassmop4.png,0.9,3,-0.2,-0.15,right,63,2021-03-30_13h04.40.974,premup-three_ses-02_part-02_label-phase2,3.2.4,MacIntel,60,,,,,,,,,,,,,,,,,1,0,330,225,1,329,1,,,,,,
,,0,344,,,,,,,,,,,,,1,1,3,stim/13.jpeg,HouseObjects,2,stim/objects/HouseObjects/basket3.png,0.5,3,-0.2,-0.15,right,63,2021-03-30_13h04.40.974,premup-three_ses-02_part-02_label-phase2,3.2.4,MacIntel,60,,,,,,,,,,,,,,,,,1,0,330,18,1,329,2,,,,,,
right,0.517000198,1,345,,,,,,,,,,,,,3,5,2,stim/52.jpeg,HouseObjects,2,stim/objects/HouseObjects/dustpan3.png,0.9,4,0.2,-0.15,right,63,2021-03-30_13h04.40.974,premup-three_ses-02_part-02_label-phase2,3.2.4,MacIntel,60,,,,,,,,,,,,,,,,,1,0,330,191,1,329,2,,,,,,
right,0.606000185,1,346,,,,,,,,,,,,,3,5,4,stim/54.jpeg,HouseObjects,2,stim/objects/HouseObjects/garbagebin3.png,0.9,3,-0.2,-0.15,right,63,2021-03-30_13h04.40.974,premup-three_ses-02_part-02_label-phase2,3.2.4,MacIntel,60,,,,,,,,,,,,,,,,,1,0,330,193,1,329,2,,,,,,
left,0.577000141,0,347,,,,,,,,,,,,,1,2,3,stim/23.jpeg,HouseObjects,2,stim/objects/HouseObjects/clock3.png,0.5,4,0.2,-0.15,right,63,2021-03-30_13h04.40.974,premup-three_ses-02_part-02_label-phase2,3.2.4,MacIntel,60,,,,,,,,,,,,,,,,,1,0,330,54,1,329,2,,,,,,
right,0.786000013,1,348,,,,,,,,,,,,,3,5,3,stim/53.jpeg,HouseObjects,2,stim/objects/HouseObjects/garbagebin3.png,0.9,4,0.2,-0.15,right,63,2021-03-30_13h04.40.974,premup-three_ses-02_part-02_label-phase2,3.2.4,MacIntel,60,,,,,,,,,,,,,,,,,1,0,330,188,1,329,2,,,,,,
right,0.542000294,0,349,,,,,,,,,,,,,3,5,4,stim/54.jpeg,Instruments,1,stim/objects/Instruments/harp4.png,0.1,2,0.2,0.15,left,63,2021-03-30_13h04.40.974,premup-three_ses-02_part-02_label-phase2,3.2.4,MacIntel,60,,,,,,,,,,,,,,,,,1,0,330,137,1,329,1,,,,,,
left,0.76300025,0,350,,,,,,,,,,,,,1,1,3,stim/13.jpeg,HouseObjects,2,stim/objects/HouseObjects/barbecuelighter3.png,0.5,3,-0.2,-0.15,right,63,2021-03-30_13h04.40.974,premup-three_ses-02_part-02_label-phase2,3.2.4,MacIntel,60,,,,,,,,,,,,,,,,,1,0,330,22,1,329,2,,,,,,
left,0.612000227,1,351,,,,,,,,,,,,,3,6,1,stim/61.jpeg,Instruments,1,stim/objects/Instruments/flutetrans3.png,0.9,2,0.2,0.15,left,63,2021-03-30_13h04.40.974,premup-three_ses-02_part-02_label-phase2,3.2.4,MacIntel,60,,,,,,,,,,,,,,,,,1,0,330,246,1,329,2,,,,,,
right,0.580000162,1,352,,,,,,,,,,,,,3,5,3,stim/53.jpeg,HouseObjects,2,stim/objects/HouseObjects/dustpan3.png,0.9,4,0.2,-0.15,right,63,2021-03-30_13h04.40.974,premup-three_ses-02_part-02_label-phase2,3.2.4,MacIntel,60,,,,,,,,,,,,,,,,,1,0,330,176,1,329,2,,,,,,
left,0.627000093,0,353,,,,,,,,,,,,,3,6,1,stim/61.jpeg,HouseObjects,2,stim/objects/HouseObjects/knife4.png,0.1,3,-0.2,-0.15,right,63,2021-03-30_13h04.40.974,premup-three_ses-02_part-02_label-phase2,3.2.4,MacIntel,60,,,,,,,,,,,,,,,,,1,0,330,322,1,329,1,,,,,,
left,0.614000082,1,354,,,,,,,,,,,,,3,6,1,stim/61.jpeg,Instruments,1,stim/objects/Instruments/flute3.png,0.9,2,0.2,0.15,left,63,2021-03-30_13h04.40.974,premup-three_ses-02_part-02_label-phase2,3.2.4,MacIntel,60,,,,,,,,,,,,,,,,,1,0,330,290,1,329,2,,,,,,
right,0.631000042,1,355,,,,,,,,,,,,,2,3,1,stim/31.jpeg,HouseObjects,2,stim/objects/HouseObjects/vacuumcleaner3.png,0.7,3,-0.2,-0.15,right,63,2021-03-30_13h04.40.974,premup-three_ses-02_part-02_label-phase2,3.2.4,MacIntel,60,,,,,,,,,,,,,,,,,1,0,330,88,1,329,1,,,,,,
left,0.604000092,0,356,,,,,,,,,,,,,1,2,2,stim/22.jpeg,HouseObjects,2,stim/objects/HouseObjects/blender3.png,0.5,2,0.2,0.15,right,63,2021-03-30_13h04.40.974,premup-three_ses-02_part-02_label-phase2,3.2.4,MacIntel,60,,,,,,,,,,,,,,,,,1,0,330,45,1,329,2,,,,,,
left,0.536999941,1,357,,,,,,,,,,,,,2,4,3,stim/43.jpeg,Instruments,1,stim/objects/Instruments/drums3.png,0.7,3,-0.2,-0.15,left,63,2021-03-30_13h04.40.974,premup-three_ses-02_part-02_label-phase2,3.2.4,MacIntel,60,,,,,,,,,,,,,,,,,1,0,330,97,1,329,2,,,,,,
right,0.678999901,0,358,,,,,,,,,,,,,1,1,3,stim/13.jpeg,Instruments,1,stim/objects/Instruments/keyboard3.png,0.5,2,0.2,0.15,left,63,2021-03-30_13h04.40.974,premup-three_ses-02_part-02_label-phase2,3.2.4,MacIntel,60,,,,,,,,,,,,,,,,,1,0,330,14,1,329,1,,,,,,
right,0.728000164,1,359,,,,,,,,,,,,,2,3,1,stim/31.jpeg,HouseObjects,2,stim/objects/HouseObjects/clothesdryingrack3.png,0.7,1,-0.2,0.15,right,63,2021-03-30_13h04.40.974,premup-three_ses-02_part-02_label-phase2,3.2.4,MacIntel,60,,,,,,,,,,,,,,,,,1,0,330,80,1,329,2,,,,,,
right,0.752000093,1,360,,,,,,,,,,,,,3,5,1,stim/51.jpeg,HouseObjects,2,stim/objects/HouseObjects/doormat3.png,0.9,3,-0.2,-0.15,right,63,2021-03-30_13h04.40.974,premup-three_ses-02_part-02_label-phase2,3.2.4,MacIntel,60,,,,,,,,,,,,,,,,,1,0,330,190,1,329,2,,,,,,
right,0.554000139,1,361,,,,,,,,,,,,,1,1,1,stim/11.jpeg,HouseObjects,2,stim/objects/HouseObjects/bleachbottle3.png,0.5,1,-0.2,0.15,right,63,2021-03-30_13h04.40.974,premup-three_ses-02_part-02_label-phase2,3.2.4,MacIntel,60,,,,,,,,,,,,,,,,,1,0,330,24,1,329,2,,,,,,
right,0.563000202,1,362,,,,,,,,,,,,,3,5,2,stim/52.jpeg,HouseObjects,2,stim/objects/HouseObjects/doormat3.png,0.9,3,-0.2,-0.15,right,63,2021-03-30_13h04.40.974,premup-three_ses-02_part-02_label-phase2,3.2.4,MacIntel,60,,,,,,,,,,,,,,,,,1,0,330,195,1,329,2,,,,,,
left,0.59800005,1,363,,,,,,,,,,,,,3,6,1,stim/61.jpeg,Instruments,1,stim/objects/Instruments/flute3.png,0.9,1,-0.2,0.15,left,63,2021-03-30_13h04.40.974,premup-three_ses-02_part-02_label-phase2,3.2.4,MacIntel,60,,,,,,,,,,,,,,,,,1,0,330,250,1,329,2,,,,,,
left,0.587000132,1,364,,,,,,,,,,,,,3,6,1,stim/61.jpeg,Instruments,1,stim/objects/Instruments/grandpiano3.png,0.9,4,0.2,-0.15,left,63,2021-03-30_13h04.40.974,premup-three_ses-02_part-02_label-phase2,3.2.4,MacIntel,60,,,,,,,,,,,,,,,,,1,0,330,274,1,329,2,,,,,,
left,0.469000101,1,365,,,,,,,,,,,,,3,6,2,stim/62.jpeg,Instruments,1,stim/objects/Instruments/flute3.png,0.9,3,-0.2,-0.15,left,63,2021-03-30_13h04.40.974,premup-three_ses-02_part-02_label-phase2,3.2.4,MacIntel,60,,,,,,,,,,,,,,,,,1,0,330,275,1,329,2,,,,,,
right,0.496000051,1,366,,,,,,,,,,,,,3,5,2,stim/52.jpeg,HouseObjects,2,stim/objects/HouseObjects/doormat3.png,0.9,4,0.2,-0.15,right,63,2021-03-30_13h04.40.974,premup-three_ses-02_part-02_label-phase2,3.2.4,MacIntel,60,,,,,,,,,,,,,,,,,1,0,330,175,1,329,2,,,,,,
left,0.646000147,1,367,,,,,,,,,,,,,3,6,3,stim/63.jpeg,Instruments,1,stim/objects/Instruments/flute3.png,0.9,2,0.2,0.15,left,63,2021-03-30_13h04.40.974,premup-three_ses-02_part-02_label-phase2,3.2.4,MacIntel,60,,,,,,,,,,,,,,,,,1,0,330,260,1,329,2,,,,,,
left,0.425000191,1,368,,,,,,,,,,,,,3,6,3,stim/63.jpeg,Instruments,1,stim/objects/Instruments/grandpiano3.png,0.9,3,-0.2,-0.15,left,63,2021-03-30_13h04.40.974,premup-three_ses-02_part-02_label-phase2,3.2.4,MacIntel,60,,,,,,,,,,,,,,,,,1,0,330,244,1,329,2,,,,,,
right,0.631000042,1,369,,,,,,,,,,,,,3,5,3,stim/53.jpeg,HouseObjects,2,stim/objects/HouseObjects/doormat3.png,0.9,2,0.2,0.15,right,63,2021-03-30_13h04.40.974,premup-three_ses-02_part-02_label-phase2,3.2.4,MacIntel,60,,,,,,,,,,,,,,,,,1,0,330,140,1,329,2,,,,,,
right,0.613000154,1,370,,,,,,,,,,,,,3,5,3,stim/53.jpeg,HouseObjects,2,stim/objects/HouseObjects/garbagebin3.png,0.9,4,0.2,-0.15,right,63,2021-03-30_13h04.40.974,premup-three_ses-02_part-02_label-phase2,3.2.4,MacIntel,60,,,,,,,,,,,,,,,,,1,0,330,208,1,329,2,,,,,,
right,0.652000189,0,371,,,,,,,,,,,,,1,1,2,stim/12.jpeg,Instruments,1,stim/objects/Instruments/hihat3.png,0.5,3,-0.2,-0.15,left,63,2021-03-30_13h04.40.974,premup-three_ses-02_part-02_label-phase2,3.2.4,MacIntel,60,,,,,,,,,,,,,,,,,1,0,330,13,1,329,1,,,,,,
right,0.726999998,1,372,,,,,,,,,,,,,3,5,3,stim/53.jpeg,HouseObjects,2,stim/objects/HouseObjects/garbagebin3.png,0.9,3,-0.2,-0.15,right,63,2021-03-30_13h04.40.974,premup-three_ses-02_part-02_label-phase2,3.2.4,MacIntel,60,,,,,,,,,,,,,,,,,1,0,330,168,1,329,2,,,,,,
left,0.618999958,1,373,,,,,,,,,,,,,3,6,3,stim/63.jpeg,Instruments,1,stim/objects/Instruments/flutetrans3.png,0.9,3,-0.2,-0.15,left,63,2021-03-30_13h04.40.974,premup-three_ses-02_part-02_label-phase2,3.2.4,MacIntel,60,,,,,,,,,,,,,,,,,1,0,330,296,1,329,2,,,,,,
right,0.73300004,0,374,,,,,,,,,,,,,3,5,4,stim/54.jpeg,Instruments,1,stim/objects/Instruments/gong4.png,0.1,2,0.2,0.15,left,63,2021-03-30_13h04.40.974,premup-three_ses-02_part-02_label-phase2,3.2.4,MacIntel,60,,,,,,,,,,,,,,,,,1,0,330,133,1,329,1,,,,,,
right,0.709000111,1,375,,,,,,,,,,,,,2,3,2,stim/32.jpeg,HouseObjects,2,stim/objects/HouseObjects/cushion3.png,0.7,1,-0.2,0.15,right,63,2021-03-30_13h04.40.974,premup-three_ses-02_part-02_label-phase2,3.2.4,MacIntel,60,,,,,,,,,,,,,,,,,1,0,330,73,1,329,2,,,,,,
right,0.58100009,0,376,,,,,,,,,,,,,3,5,2,stim/52.jpeg,Instruments,1,stim/objects/Instruments/flutetrans4.png,0.1,4,0.2,-0.15,left,63,2021-03-30_13h04.40.974,premup-three_ses-02_part-02_label-phase2,3.2.4,MacIntel,60,,,,,,,,,,,,,,,,,1,0,330,131,1,329,1,,,,,,
left,0.681000233,1,377,,,,,,,,,,,,,2,4,4,stim/44.jpeg,Instruments,1,stim/objects/Instruments/cornet4.png,0.7,4,0.2,-0.15,left,63,2021-03-30_13h04.40.974,premup-three_ses-02_part-02_label-phase2,3.2.4,MacIntel,60,,,,,,,,,,,,,,,,,1,0,330,114,1,329,1,,,,,,
