key_resp_trial.keys,key_resp_trial.rt,trial_acc,trial_index,iterations.thisRepN,iterations.thisTrialN,iterations.thisN,iterations.thisIndex,iterations.ran,iterations.order,task_innerloop.thisRepN,task_innerloop.thisTrialN,task_innerloop.thisN,task_innerloop.thisIndex,task_innerloop.ran,task_innerloop.order,scn_condition,scn_cat,scn_inst,scn_file,obj_cat,obj_cat_num,obj_file,trial_cond,quadrant,obj_x,obj_y,corr_ans,participant,date,expName,psychopyVersion,OS,frameRate,slider.response,slider.rt,slider_2.response,slider_2.rt,ratings.thisRepN,ratings.thisTrialN,ratings.thisN,ratings.thisIndex,ratings.ran,ratings.order,obj_cat_top,min_resp_top,max_resp_top,obj_cat_bottom,min_resp_bottom,max_resp_bottom,enc_trials.thisRepN,enc_trials.thisTrialN,enc_trials.thisN,enc_trials.thisIndex,enc_trials.ran,enc_trials.order,fillers,ratings_final.thisRepN,ratings_final.thisTrialN,ratings_final.thisN,ratings_final.thisIndex,ratings_final.ran,ratings_final.order
,,0,1,1,0,1,0,1,0,1,0,240,64,1,239,1,4,1,stim/41.jpeg,Instruments,2,stim/objects/Instruments/timbal.png,0.5,2,0.2,0.15,right,64,2021-03-30_15h03.56.516,premup-three_ses-02_part-02_label-phase2,3.2.4,Win32,60,,,,,,,,,,,,,,,,,,,,,,,,,,,,,
left,0.582999945,1,2,1,0,1,0,1,0,1,0,240,124,1,239,2,6,1,stim/61.jpeg,HouseObjects,1,stim/objects/HouseObjects/rug2.png,0.7,1,-0.2,0.15,left,64,2021-03-30_15h03.56.516,premup-three_ses-02_part-02_label-phase2,3.2.4,Win32,60,,,,,,,,,,,,,,,,,,,,,,,,,,,,,
left,0.731999874,1,3,1,0,1,0,1,0,1,0,240,130,1,239,2,6,3,stim/63.jpeg,HouseObjects,1,stim/objects/HouseObjects/saw2.png,0.7,2,0.2,0.15,left,64,2021-03-30_15h03.56.516,premup-three_ses-02_part-02_label-phase2,3.2.4,Win32,60,,,,,,,,,,,,,,,,,,,,,,,,,,,,,
right,0.707999945,0,4,1,0,1,0,1,0,1,0,240,161,1,239,3,1,2,stim/12.jpeg,HouseObjects,1,stim/objects/HouseObjects/spraybottle2.png,0.1,3,-0.2,-0.15,left,64,2021-03-30_15h03.56.516,premup-three_ses-02_part-02_label-phase2,3.2.4,Win32,60,,,,,,,,,,,,,,,,,,,,,,,,,,,,,
left,0.714999914,1,5,1,0,1,0,1,0,1,0,240,204,1,239,3,2,1,stim/21.jpeg,HouseObjects,1,stim/objects/HouseObjects/thread2.png,0.9,4,0.2,-0.15,left,64,2021-03-30_15h03.56.516,premup-three_ses-02_part-02_label-phase2,3.2.4,Win32,60,,,,,,,,,,,,,,,,,,,,,,,,,,,,,
,,0,6,1,0,1,0,1,0,1,0,240,63,1,239,1,4,4,stim/44.jpeg,Instruments,2,stim/objects/Instruments/trumpet.png,0.5,1,-0.2,0.15,right,64,2021-03-30_15h03.56.516,premup-three_ses-02_part-02_label-phase2,3.2.4,Win32,60,,,,,,,,,,,,,,,,,,,,,,,,,,,,,
right,0.669999838,0,7,1,0,1,0,1,0,1,0,240,86,1,239,2,5,3,stim/53.jpeg,HouseObjects,1,stim/objects/HouseObjects/vacuumcleaner.png,0.3,4,0.2,-0.15,left,64,2021-03-30_15h03.56.516,premup-three_ses-02_part-02_label-phase2,3.2.4,Win32,60,,,,,,,,,,,,,,,,,,,,,,,,,,,,,
left,0.653999805,0,8,1,0,1,0,1,0,1,0,240,155,1,239,2,6,4,stim/64.jpeg,Instruments,2,stim/objects/Instruments/tambourine2.png,0.3,1,-0.2,0.15,right,64,2021-03-30_15h03.56.516,premup-three_ses-02_part-02_label-phase2,3.2.4,Win32,60,,,,,,,,,,,,,,,,,,,,,,,,,,,,,
right,0.838000059,0,9,1,0,1,0,1,0,1,0,240,15,1,239,1,3,4,stim/34.jpeg,HouseObjects,1,stim/objects/HouseObjects/scale.png,0.5,2,0.2,0.15,left,64,2021-03-30_15h03.56.516,premup-three_ses-02_part-02_label-phase2,3.2.4,Win32,60,,,,,,,,,,,,,,,,,,,,,,,,,,,,,
right,0.546999931,1,10,1,0,1,0,1,0,1,0,240,105,1,239,2,5,2,stim/52.jpeg,Instruments,2,stim/objects/Instruments/violin.png,0.7,2,0.2,0.15,right,64,2021-03-30_15h03.56.516,premup-three_ses-02_part-02_label-phase2,3.2.4,Win32,60,,,,,,,,,,,,,,,,,,,,,,,,,,,,,
right,0.593999863,1,11,1,0,1,0,1,0,1,0,240,199,1,239,3,1,4,stim/14.jpeg,Instruments,2,stim/objects/Instruments/trumpet2.png,0.9,1,-0.2,0.15,right,64,2021-03-30_15h03.56.516,premup-three_ses-02_part-02_label-phase2,3.2.4,Win32,60,,,,,,,,,,,,,,,,,,,,,,,,,,,,,
right,0.5849998,1,12,1,0,1,0,1,0,1,0,240,117,1,239,2,5,2,stim/52.jpeg,Instruments,2,stim/objects/Instruments/violin.png,0.7,2,0.2,0.15,right,64,2021-03-30_15h03.56.516,premup-three_ses-02_part-02_label-phase2,3.2.4,Win32,60,,,,,,,,,,,,,,,,,,,,,,,,,,,,,
left,0.867000103,1,13,1,0,1,0,1,0,1,0,240,125,1,239,2,6,2,stim/62.jpeg,HouseObjects,1,stim/objects/HouseObjects/safetypin2.png,0.7,4,0.2,-0.15,left,64,2021-03-30_15h03.56.516,premup-three_ses-02_part-02_label-phase2,3.2.4,Win32,60,,,,,,,,,,,,,,,,,,,,,,,,,,,,,
left,0.830999851,1,14,1,0,1,0,1,0,1,0,240,142,1,239,2,6,3,stim/63.jpeg,HouseObjects,1,stim/objects/HouseObjects/saw2.png,0.7,3,-0.2,-0.15,left,64,2021-03-30_15h03.56.516,premup-three_ses-02_part-02_label-phase2,3.2.4,Win32,60,,,,,,,,,,,,,,,,,,,,,,,,,,,,,
left,0.878000021,1,15,1,0,1,0,1,0,1,0,240,224,1,239,3,2,1,stim/21.jpeg,HouseObjects,1,stim/objects/HouseObjects/thread2.png,0.9,4,0.2,-0.15,left,64,2021-03-30_15h03.56.516,premup-three_ses-02_part-02_label-phase2,3.2.4,Win32,60,,,,,,,,,,,,,,,,,,,,,,,,,,,,,
right,0.752999783,0,16,1,0,1,0,1,0,1,0,240,18,1,239,1,3,3,stim/33.jpeg,HouseObjects,1,stim/objects/HouseObjects/saw.png,0.5,3,-0.2,-0.15,left,64,2021-03-30_15h03.56.516,premup-three_ses-02_part-02_label-phase2,3.2.4,Win32,60,,,,,,,,,,,,,,,,,,,,,,,,,,,,,
right,0.811000109,0,17,1,0,1,0,1,0,1,0,240,9,1,239,1,3,2,stim/32.jpeg,HouseObjects,1,stim/objects/HouseObjects/safetypin.png,0.5,3,-0.2,-0.15,left,64,2021-03-30_15h03.56.516,premup-three_ses-02_part-02_label-phase2,3.2.4,Win32,60,,,,,,,,,,,,,,,,,,,,,,,,,,,,,
left,0.707999945,1,18,1,0,1,0,1,0,1,0,240,143,1,239,2,6,4,stim/64.jpeg,HouseObjects,1,stim/objects/HouseObjects/scale2.png,0.7,4,0.2,-0.15,left,64,2021-03-30_15h03.56.516,premup-three_ses-02_part-02_label-phase2,3.2.4,Win32,60,,,,,,,,,,,,,,,,,,,,,,,,,,,,,
left,0.632999897,1,19,1,0,1,0,1,0,1,0,240,209,1,239,3,2,2,stim/22.jpeg,HouseObjects,1,stim/objects/HouseObjects/towel2.png,0.9,3,-0.2,-0.15,left,64,2021-03-30_15h03.56.516,premup-three_ses-02_part-02_label-phase2,3.2.4,Win32,60,,,,,,,,,,,,,,,,,,,,,,,,,,,,,
right,0.74399972,1,20,1,0,1,0,1,0,1,0,240,188,1,239,3,1,1,stim/11.jpeg,Instruments,2,stim/objects/Instruments/timbal2.png,0.9,1,-0.2,0.15,right,64,2021-03-30_15h03.56.516,premup-three_ses-02_part-02_label-phase2,3.2.4,Win32,60,,,,,,,,,,,,,,,,,,,,,,,,,,,,,
left,0.805999994,1,21,1,0,1,0,1,0,1,0,240,213,1,239,3,2,2,stim/22.jpeg,HouseObjects,1,stim/objects/HouseObjects/towel2.png,0.9,3,-0.2,-0.15,left,64,2021-03-30_15h03.56.516,premup-three_ses-02_part-02_label-phase2,3.2.4,Win32,60,,,,,,,,,,,,,,,,,,,,,,,,,,,,,
left,0.830999851,1,22,1,0,1,0,1,0,1,0,240,129,1,239,2,6,2,stim/62.jpeg,HouseObjects,1,stim/objects/HouseObjects/safetypin2.png,0.7,2,0.2,0.15,left,64,2021-03-30_15h03.56.516,premup-three_ses-02_part-02_label-phase2,3.2.4,Win32,60,,,,,,,,,,,,,,,,,,,,,,,,,,,,,
right,0.580999851,1,23,1,0,1,0,1,0,1,0,240,108,1,239,2,5,1,stim/51.jpeg,Instruments,2,stim/objects/Instruments/tuba.png,0.7,3,-0.2,-0.15,right,64,2021-03-30_15h03.56.516,premup-three_ses-02_part-02_label-phase2,3.2.4,Win32,60,,,,,,,,,,,,,,,,,,,,,,,,,,,,,
right,0.718999863,1,24,1,0,1,0,1,0,1,0,240,198,1,239,3,1,3,stim/13.jpeg,Instruments,2,stim/objects/Instruments/trombone2.png,0.9,3,-0.2,-0.15,right,64,2021-03-30_15h03.56.516,premup-three_ses-02_part-02_label-phase2,3.2.4,Win32,60,,,,,,,,,,,,,,,,,,,,,,,,,,,,,
left,0.631000042,1,25,1,0,1,0,1,0,1,0,240,227,1,239,3,2,4,stim/24.jpeg,HouseObjects,1,stim/objects/HouseObjects/wateringcan2.png,0.9,4,0.2,-0.15,left,64,2021-03-30_15h03.56.516,premup-three_ses-02_part-02_label-phase2,3.2.4,Win32,60,,,,,,,,,,,,,,,,,,,,,,,,,,,,,
right,0.484999895,1,26,1,0,1,0,1,0,1,0,240,30,1,239,1,3,3,stim/33.jpeg,Instruments,2,stim/objects/Instruments/speaker.png,0.5,2,0.2,0.15,right,64,2021-03-30_15h03.56.516,premup-three_ses-02_part-02_label-phase2,3.2.4,Win32,60,,,,,,,,,,,,,,,,,,,,,,,,,,,,,
right,0.791000128,1,27,1,0,1,0,1,0,1,0,240,179,1,239,3,1,4,stim/14.jpeg,Instruments,2,stim/objects/Instruments/trumpet2.png,0.9,1,-0.2,0.15,right,64,2021-03-30_15h03.56.516,premup-three_ses-02_part-02_label-phase2,3.2.4,Win32,60,,,,,,,,,,,,,,,,,,,,,,,,,,,,,
right,0.638999939,1,28,1,0,1,0,1,0,1,0,240,96,1,239,2,5,1,stim/51.jpeg,Instruments,2,stim/objects/Instruments/tuba.png,0.7,1,-0.2,0.15,right,64,2021-03-30_15h03.56.516,premup-three_ses-02_part-02_label-phase2,3.2.4,Win32,60,,,,,,,,,,,,,,,,,,,,,,,,,,,,,
left,0.635999918,1,29,1,0,1,0,1,0,1,0,240,223,1,239,3,2,4,stim/24.jpeg,HouseObjects,1,stim/objects/HouseObjects/wateringcan2.png,0.9,4,0.2,-0.15,left,64,2021-03-30_15h03.56.516,premup-three_ses-02_part-02_label-phase2,3.2.4,Win32,60,,,,,,,,,,,,,,,,,,,,,,,,,,,,,
left,0.727999926,1,30,1,0,1,0,1,0,1,0,240,128,1,239,2,6,1,stim/61.jpeg,HouseObjects,1,stim/objects/HouseObjects/rug2.png,0.7,3,-0.2,-0.15,left,64,2021-03-30_15h03.56.516,premup-three_ses-02_part-02_label-phase2,3.2.4,Win32,60,,,,,,,,,,,,,,,,,,,,,,,,,,,,,
right,0.470999956,1,31,1,0,1,0,1,0,1,0,240,115,1,239,2,5,4,stim/54.jpeg,Instruments,2,stim/objects/Instruments/xylophone.png,0.7,1,-0.2,0.15,right,64,2021-03-30_15h03.56.516,premup-three_ses-02_part-02_label-phase2,3.2.4,Win32,60,,,,,,,,,,,,,,,,,,,,,,,,,,,,,
left,0.694000006,1,32,1,0,1,0,1,0,1,0,240,208,1,239,3,2,1,stim/21.jpeg,HouseObjects,1,stim/objects/HouseObjects/thread2.png,0.9,2,0.2,0.15,left,64,2021-03-30_15h03.56.516,premup-three_ses-02_part-02_label-phase2,3.2.4,Win32,60,,,,,,,,,,,,,,,,,,,,,,,,,,,,,
right,0.848999977,1,33,1,0,1,0,1,0,1,0,240,29,1,239,1,3,2,stim/32.jpeg,Instruments,2,stim/objects/Instruments/saxophone.png,0.5,4,0.2,-0.15,right,64,2021-03-30_15h03.56.516,premup-three_ses-02_part-02_label-phase2,3.2.4,Win32,60,,,,,,,,,,,,,,,,,,,,,,,,,,,,,
right,0.565999985,1,34,1,0,1,0,1,0,1,0,240,195,1,239,3,1,4,stim/14.jpeg,Instruments,2,stim/objects/Instruments/trumpet2.png,0.9,3,-0.2,-0.15,right,64,2021-03-30_15h03.56.516,premup-three_ses-02_part-02_label-phase2,3.2.4,Win32,60,,,,,,,,,,,,,,,,,,,,,,,,,,,,,
left,0.822000027,0,35,1,0,1,0,1,0,1,0,240,149,1,239,2,6,2,stim/62.jpeg,Instruments,2,stim/objects/Instruments/saxophone2.png,0.3,4,0.2,-0.15,right,64,2021-03-30_15h03.56.516,premup-three_ses-02_part-02_label-phase2,3.2.4,Win32,60,,,,,,,,,,,,,,,,,,,,,,,,,,,,,
right,0.553999901,1,36,1,0,1,0,1,0,1,0,240,181,1,239,3,1,2,stim/12.jpeg,Instruments,2,stim/objects/Instruments/triangle2.png,0.9,3,-0.2,-0.15,right,64,2021-03-30_15h03.56.516,premup-three_ses-02_part-02_label-phase2,3.2.4,Win32,60,,,,,,,,,,,,,,,,,,,,,,,,,,,,,
left,0.730999947,1,37,1,0,1,0,1,0,1,0,240,147,1,239,2,6,4,stim/64.jpeg,HouseObjects,1,stim/objects/HouseObjects/scale2.png,0.7,2,0.2,0.15,left,64,2021-03-30_15h03.56.516,premup-three_ses-02_part-02_label-phase2,3.2.4,Win32,60,,,,,,,,,,,,,,,,,,,,,,,,,,,,,
left,0.826999903,0,38,1,0,1,0,1,0,1,0,240,62,1,239,1,4,3,stim/43.jpeg,Instruments,2,stim/objects/Instruments/trombone.png,0.5,4,0.2,-0.15,right,64,2021-03-30_15h03.56.516,premup-three_ses-02_part-02_label-phase2,3.2.4,Win32,60,,,,,,,,,,,,,,,,,,,,,,,,,,,,,
right,0.871999979,1,39,1,0,1,0,1,0,1,0,240,171,1,239,3,1,4,stim/14.jpeg,Instruments,2,stim/objects/Instruments/trumpet2.png,0.9,2,0.2,0.15,right,64,2021-03-30_15h03.56.516,premup-three_ses-02_part-02_label-phase2,3.2.4,Win32,60,,,,,,,,,,,,,,,,,,,,,,,,,,,,,
right,0.821999788,0,40,1,0,1,0,1,0,1,0,240,4,1,239,1,3,1,stim/31.jpeg,HouseObjects,1,stim/objects/HouseObjects/rug.png,0.5,3,-0.2,-0.15,left,64,2021-03-30_15h03.56.516,premup-three_ses-02_part-02_label-phase2,3.2.4,Win32,60,,,,,,,,,,,,,,,,,,,,,,,,,,,,,
left,0.883000135,1,41,1,0,1,0,1,0,1,0,240,47,1,239,1,4,4,stim/44.jpeg,HouseObjects,1,stim/objects/HouseObjects/thermometer.png,0.5,3,-0.2,-0.15,left,64,2021-03-30_15h03.56.516,premup-three_ses-02_part-02_label-phase2,3.2.4,Win32,60,,,,,,,,,,,,,,,,,,,,,,,,,,,,,
left,0.802999973,1,42,1,0,1,0,1,0,1,0,240,0,1,239,1,3,1,stim/31.jpeg,HouseObjects,1,stim/objects/HouseObjects/rug.png,0.5,3,-0.2,-0.15,left,64,2021-03-30_15h03.56.516,premup-three_ses-02_part-02_label-phase2,3.2.4,Win32,60,,,,,,,,,,,,,,,,,,,,,,,,,,,,,
left,0.621000051,1,43,1,0,1,0,1,0,1,0,240,217,1,239,3,2,2,stim/22.jpeg,HouseObjects,1,stim/objects/HouseObjects/towel2.png,0.9,2,0.2,0.15,left,64,2021-03-30_15h03.56.516,premup-three_ses-02_part-02_label-phase2,3.2.4,Win32,60,,,,,,,,,,,,,,,,,,,,,,,,,,,,,
left,0.798000097,1,44,1,0,1,0,1,0,1,0,240,133,1,239,2,6,2,stim/62.jpeg,HouseObjects,1,stim/objects/HouseObjects/safetypin2.png,0.7,3,-0.2,-0.15,left,64,2021-03-30_15h03.56.516,premup-three_ses-02_part-02_label-phase2,3.2.4,Win32,60,,,,,,,,,,,,,,,,,,,,,,,,,,,,,
right,0.631000042,1,45,1,0,1,0,1,0,1,0,240,192,1,239,3,1,1,stim/11.jpeg,Instruments,2,stim/objects/Instruments/timbal2.png,0.9,4,0.2,-0.15,right,64,2021-03-30_15h03.56.516,premup-three_ses-02_part-02_label-phase2,3.2.4,Win32,60,,,,,,,,,,,,,,,,,,,,,,,,,,,,,
right,0.55099988,1,46,1,0,1,0,1,0,1,0,240,173,1,239,3,1,2,stim/12.jpeg,Instruments,2,stim/objects/Instruments/triangle2.png,0.9,1,-0.2,0.15,right,64,2021-03-30_15h03.56.516,premup-three_ses-02_part-02_label-phase2,3.2.4,Win32,60,,,,,,,,,,,,,,,,,,,,,,,,,,,,,
left,0.534000158,0,47,1,0,1,0,1,0,1,0,240,238,1,239,3,2,3,stim/23.jpeg,Instruments,2,stim/objects/Instruments/vuvuzela2.png,0.1,2,0.2,0.15,right,64,2021-03-30_15h03.56.516,premup-three_ses-02_part-02_label-phase2,3.2.4,Win32,60,,,,,,,,,,,,,,,,,,,,,,,,,,,,,
right,0.75,0,48,1,0,1,0,1,0,1,0,240,5,1,239,1,3,2,stim/32.jpeg,HouseObjects,1,stim/objects/HouseObjects/safetypin.png,0.5,3,-0.2,-0.15,left,64,2021-03-30_15h03.56.516,premup-three_ses-02_part-02_label-phase2,3.2.4,Win32,60,,,,,,,,,,,,,,,,,,,,,,,,,,,,,
right,0.480999947,0,49,1,0,1,0,1,0,1,0,240,84,1,239,2,5,1,stim/51.jpeg,HouseObjects,1,stim/objects/HouseObjects/thread.png,0.3,4,0.2,-0.15,left,64,2021-03-30_15h03.56.516,premup-three_ses-02_part-02_label-phase2,3.2.4,Win32,60,,,,,,,,,,,,,,,,,,,,,,,,,,,,,
right,0.510999918,1,50,1,0,1,0,1,0,1,0,240,92,1,239,2,5,1,stim/51.jpeg,Instruments,2,stim/objects/Instruments/tuba.png,0.7,1,-0.2,0.15,right,64,2021-03-30_15h03.56.516,premup-three_ses-02_part-02_label-phase2,3.2.4,Win32,60,,,,,,,,,,,,,,,,,,,,,,,,,,,,,
right,0.616999865,1,51,1,0,1,0,1,0,1,0,240,113,1,239,2,5,2,stim/52.jpeg,Instruments,2,stim/objects/Instruments/violin.png,0.7,2,0.2,0.15,right,64,2021-03-30_15h03.56.516,premup-three_ses-02_part-02_label-phase2,3.2.4,Win32,60,,,,,,,,,,,,,,,,,,,,,,,,,,,,,
,,0,52,1,0,1,0,1,0,1,0,240,24,1,239,1,3,1,stim/31.jpeg,Instruments,2,stim/objects/Instruments/record_player.png,0.5,4,0.2,-0.15,right,64,2021-03-30_15h03.56.516,premup-three_ses-02_part-02_label-phase2,3.2.4,Win32,60,,,,,,,,,,,,,,,,,,,,,,,,,,,,,
left,0.625999928,1,53,1,0,1,0,1,0,1,0,240,225,1,239,3,2,2,stim/22.jpeg,HouseObjects,1,stim/objects/HouseObjects/towel2.png,0.9,1,-0.2,0.15,left,64,2021-03-30_15h03.56.516,premup-three_ses-02_part-02_label-phase2,3.2.4,Win32,60,,,,,,,,,,,,,,,,,,,,,,,,,,,,,
left,0.463000059,1,54,1,0,1,0,1,0,1,0,240,235,1,239,3,2,4,stim/24.jpeg,HouseObjects,1,stim/objects/HouseObjects/wateringcan2.png,0.9,3,-0.2,-0.15,left,64,2021-03-30_15h03.56.516,premup-three_ses-02_part-02_label-phase2,3.2.4,Win32,60,,,,,,,,,,,,,,,,,,,,,,,,,,,,,
right,0.472999811,1,55,1,0,1,0,1,0,1,0,240,100,1,239,2,5,1,stim/51.jpeg,Instruments,2,stim/objects/Instruments/tuba.png,0.7,1,-0.2,0.15,right,64,2021-03-30_15h03.56.516,premup-three_ses-02_part-02_label-phase2,3.2.4,Win32,60,,,,,,,,,,,,,,,,,,,,,,,,,,,,,
left,0.597999811,1,56,1,0,1,0,1,0,1,0,240,234,1,239,3,2,3,stim/23.jpeg,HouseObjects,1,stim/objects/HouseObjects/vacuumcleaner2.png,0.9,3,-0.2,-0.15,left,64,2021-03-30_15h03.56.516,premup-three_ses-02_part-02_label-phase2,3.2.4,Win32,60,,,,,,,,,,,,,,,,,,,,,,,,,,,,,
right,0.690000057,1,57,1,0,1,0,1,0,1,0,240,76,1,239,1,4,1,stim/41.jpeg,Instruments,2,stim/objects/Instruments/timbal.png,0.5,2,0.2,0.15,right,64,2021-03-30_15h03.56.516,premup-three_ses-02_part-02_label-phase2,3.2.4,Win32,60,,,,,,,,,,,,,,,,,,,,,,,,,,,,,
right,0.478999853,0,58,1,0,1,0,1,0,1,0,240,89,1,239,2,5,2,stim/52.jpeg,HouseObjects,1,stim/objects/HouseObjects/towel.png,0.3,2,0.2,0.15,left,64,2021-03-30_15h03.56.516,premup-three_ses-02_part-02_label-phase2,3.2.4,Win32,60,,,,,,,,,,,,,,,,,,,,,,,,,,,,,
left,0.618000031,1,59,1,0,1,0,1,0,1,0,240,121,1,239,2,6,2,stim/62.jpeg,HouseObjects,1,stim/objects/HouseObjects/safetypin2.png,0.7,3,-0.2,-0.15,left,64,2021-03-30_15h03.56.516,premup-three_ses-02_part-02_label-phase2,3.2.4,Win32,60,,,,,,,,,,,,,,,,,,,,,,,,,,,,,
left,0.605000019,0,60,1,0,1,0,1,0,1,0,240,159,1,239,2,6,4,stim/64.jpeg,Instruments,2,stim/objects/Instruments/tambourine2.png,0.3,4,0.2,-0.15,right,64,2021-03-30_15h03.56.516,premup-three_ses-02_part-02_label-phase2,3.2.4,Win32,60,,,,,,,,,,,,,,,,,,,,,,,,,,,,,
,,0,61,1,0,1,0,1,0,1,0,240,66,1,239,1,4,3,stim/43.jpeg,Instruments,2,stim/objects/Instruments/trombone.png,0.5,4,0.2,-0.15,right,64,2021-03-30_15h03.56.516,premup-three_ses-02_part-02_label-phase2,3.2.4,Win32,60,,,,,,,,,,,,,,,,,,,,,,,,,,,,,
right,0.462999821,1,62,1,0,1,0,1,0,1,0,240,94,1,239,2,5,3,stim/53.jpeg,Instruments,2,stim/objects/Instruments/vuvuzela.png,0.7,2,0.2,0.15,right,64,2021-03-30_15h03.56.516,premup-three_ses-02_part-02_label-phase2,3.2.4,Win32,60,,,,,,,,,,,,,,,,,,,,,,,,,,,,,
right,0.538999796,1,63,1,0,1,0,1,0,1,0,240,196,1,239,3,1,1,stim/11.jpeg,Instruments,2,stim/objects/Instruments/timbal2.png,0.9,2,0.2,0.15,right,64,2021-03-30_15h03.56.516,premup-three_ses-02_part-02_label-phase2,3.2.4,Win32,60,,,,,,,,,,,,,,,,,,,,,,,,,,,,,
right,0.436999798,1,64,1,0,1,0,1,0,1,0,240,165,1,239,3,1,2,stim/12.jpeg,Instruments,2,stim/objects/Instruments/triangle2.png,0.9,2,0.2,0.15,right,64,2021-03-30_15h03.56.516,premup-three_ses-02_part-02_label-phase2,3.2.4,Win32,60,,,,,,,,,,,,,,,,,,,,,,,,,,,,,
left,0.368999958,1,65,1,0,1,0,1,0,1,0,240,207,1,239,3,2,4,stim/24.jpeg,HouseObjects,1,stim/objects/HouseObjects/wateringcan2.png,0.9,1,-0.2,0.15,left,64,2021-03-30_15h03.56.516,premup-three_ses-02_part-02_label-phase2,3.2.4,Win32,60,,,,,,,,,,,,,,,,,,,,,,,,,,,,,
left,0.529999971,1,66,1,0,1,0,1,0,1,0,240,126,1,239,2,6,3,stim/63.jpeg,HouseObjects,1,stim/objects/HouseObjects/saw2.png,0.7,4,0.2,-0.15,left,64,2021-03-30_15h03.56.516,premup-three_ses-02_part-02_label-phase2,3.2.4,Win32,60,,,,,,,,,,,,,,,,,,,,,,,,,,,,,
right,0.492999792,1,67,1,0,1,0,1,0,1,0,240,116,1,239,2,5,1,stim/51.jpeg,Instruments,2,stim/objects/Instruments/tuba.png,0.7,2,0.2,0.15,right,64,2021-03-30_15h03.56.516,premup-three_ses-02_part-02_label-phase2,3.2.4,Win32,60,,,,,,,,,,,,,,,,,,,,,,,,,,,,,
left,0.579999924,0,68,1,0,1,0,1,0,1,0,240,32,1,239,1,3,1,stim/31.jpeg,Instruments,2,stim/objects/Instruments/record_player.png,0.5,1,-0.2,0.15,right,64,2021-03-30_15h03.56.516,premup-three_ses-02_part-02_label-phase2,3.2.4,Win32,60,,,,,,,,,,,,,,,,,,,,,,,,,,,,,
right,0.530999899,1,69,1,0,1,0,1,0,1,0,240,172,1,239,3,1,1,stim/11.jpeg,Instruments,2,stim/objects/Instruments/timbal2.png,0.9,4,0.2,-0.15,right,64,2021-03-30_15h03.56.516,premup-three_ses-02_part-02_label-phase2,3.2.4,Win32,60,,,,,,,,,,,,,,,,,,,,,,,,,,,,,
left,0.463999987,1,70,1,0,1,0,1,0,1,0,240,202,1,239,3,2,3,stim/23.jpeg,HouseObjects,1,stim/objects/HouseObjects/vacuumcleaner2.png,0.9,4,0.2,-0.15,left,64,2021-03-30_15h03.56.516,premup-three_ses-02_part-02_label-phase2,3.2.4,Win32,60,,,,,,,,,,,,,,,,,,,,,,,,,,,,,
right,0.537999868,0,71,1,0,1,0,1,0,1,0,240,82,1,239,2,5,3,stim/53.jpeg,HouseObjects,1,stim/objects/HouseObjects/vacuumcleaner.png,0.3,3,-0.2,-0.15,left,64,2021-03-30_15h03.56.516,premup-three_ses-02_part-02_label-phase2,3.2.4,Win32,60,,,,,,,,,,,,,,,,,,,,,,,,,,,,,
left,0.802999973,0,72,1,0,1,0,1,0,1,0,240,20,1,239,1,3,1,stim/31.jpeg,Instruments,2,stim/objects/Instruments/record_player.png,0.5,1,-0.2,0.15,right,64,2021-03-30_15h03.56.516,premup-three_ses-02_part-02_label-phase2,3.2.4,Win32,60,,,,,,,,,,,,,,,,,,,,,,,,,,,,,
right,0.548999786,0,73,1,0,1,0,1,0,1,0,240,85,1,239,2,5,2,stim/52.jpeg,HouseObjects,1,stim/objects/HouseObjects/towel.png,0.3,1,-0.2,0.15,left,64,2021-03-30_15h03.56.516,premup-three_ses-02_part-02_label-phase2,3.2.4,Win32,60,,,,,,,,,,,,,,,,,,,,,,,,,,,,,
left,0.569000006,0,74,1,0,1,0,1,0,1,0,240,237,1,239,3,2,2,stim/22.jpeg,Instruments,2,stim/objects/Instruments/violin2.png,0.1,4,0.2,-0.15,right,64,2021-03-30_15h03.56.516,premup-three_ses-02_part-02_label-phase2,3.2.4,Win32,60,,,,,,,,,,,,,,,,,,,,,,,,,,,,,
right,0.445999861,0,75,1,0,1,0,1,0,1,0,240,42,1,239,1,4,3,stim/43.jpeg,HouseObjects,1,stim/objects/HouseObjects/teapot.png,0.5,4,0.2,-0.15,left,64,2021-03-30_15h03.56.516,premup-three_ses-02_part-02_label-phase2,3.2.4,Win32,60,,,,,,,,,,,,,,,,,,,,,,,,,,,,,
left,0.566999912,0,76,1,0,1,0,1,0,1,0,240,153,1,239,2,6,2,stim/62.jpeg,Instruments,2,stim/objects/Instruments/saxophone2.png,0.3,4,0.2,-0.15,right,64,2021-03-30_15h03.56.516,premup-three_ses-02_part-02_label-phase2,3.2.4,Win32,60,,,,,,,,,,,,,,,,,,,,,,,,,,,,,
right,0.478999853,0,77,1,0,1,0,1,0,1,0,240,51,1,239,1,4,4,stim/44.jpeg,HouseObjects,1,stim/objects/HouseObjects/thermometer.png,0.5,1,-0.2,0.15,left,64,2021-03-30_15h03.56.516,premup-three_ses-02_part-02_label-phase2,3.2.4,Win32,60,,,,,,,,,,,,,,,,,,,,,,,,,,,,,
right,0.575999737,1,78,1,0,1,0,1,0,1,0,240,114,1,239,2,5,3,stim/53.jpeg,Instruments,2,stim/objects/Instruments/vuvuzela.png,0.7,2,0.2,0.15,right,64,2021-03-30_15h03.56.516,premup-three_ses-02_part-02_label-phase2,3.2.4,Win32,60,,,,,,,,,,,,,,,,,,,,,,,,,,,,,
left,0.78399992,0,79,1,0,1,0,1,0,1,0,240,75,1,239,1,4,4,stim/44.jpeg,Instruments,2,stim/objects/Instruments/trumpet.png,0.5,2,0.2,0.15,right,64,2021-03-30_15h03.56.516,premup-three_ses-02_part-02_label-phase2,3.2.4,Win32,60,,,,,,,,,,,,,,,,,,,,,,,,,,,,,
right,0.736999989,0,80,1,0,1,0,1,0,1,0,240,162,1,239,3,1,3,stim/13.jpeg,HouseObjects,1,stim/objects/HouseObjects/teapot2.png,0.1,1,-0.2,0.15,left,64,2021-03-30_15h03.56.516,premup-three_ses-02_part-02_label-phase2,3.2.4,Win32,60,,,,,,,,,,,,,,,,,,,,,,,,,,,,,
,,0,81,1,0,1,0,1,0,1,0,240,54,1,239,1,4,3,stim/43.jpeg,HouseObjects,1,stim/objects/HouseObjects/teapot.png,0.5,4,0.2,-0.15,left,64,2021-03-30_15h03.56.516,premup-three_ses-02_part-02_label-phase2,3.2.4,Win32,60,,,,,,,,,,,,,,,,,,,,,,,,,,,,,
right,0.674999952,0,82,1,0,1,0,1,0,1,0,240,17,1,239,1,3,2,stim/32.jpeg,HouseObjects,1,stim/objects/HouseObjects/safetypin.png,0.5,4,0.2,-0.15,left,64,2021-03-30_15h03.56.516,premup-three_ses-02_part-02_label-phase2,3.2.4,Win32,60,,,,,,,,,,,,,,,,,,,,,,,,,,,,,
right,0.574999809,1,83,1,0,1,0,1,0,1,0,240,185,1,239,3,1,2,stim/12.jpeg,Instruments,2,stim/objects/Instruments/triangle2.png,0.9,4,0.2,-0.15,right,64,2021-03-30_15h03.56.516,premup-three_ses-02_part-02_label-phase2,3.2.4,Win32,60,,,,,,,,,,,,,,,,,,,,,,,,,,,,,
left,0.58100009,0,84,1,0,1,0,1,0,1,0,240,150,1,239,2,6,3,stim/63.jpeg,Instruments,2,stim/objects/Instruments/speaker2.png,0.3,1,-0.2,0.15,right,64,2021-03-30_15h03.56.516,premup-three_ses-02_part-02_label-phase2,3.2.4,Win32,60,,,,,,,,,,,,,,,,,,,,,,,,,,,,,
right,0.477999926,0,85,1,0,1,0,1,0,1,0,240,48,1,239,1,4,1,stim/41.jpeg,HouseObjects,1,stim/objects/HouseObjects/sponge.png,0.5,2,0.2,0.15,left,64,2021-03-30_15h03.56.516,premup-three_ses-02_part-02_label-phase2,3.2.4,Win32,60,,,,,,,,,,,,,,,,,,,,,,,,,,,,,
right,0.841999769,0,86,1,0,1,0,1,0,1,0,240,160,1,239,3,1,1,stim/11.jpeg,HouseObjects,1,stim/objects/HouseObjects/sponge2.png,0.1,2,0.2,0.15,left,64,2021-03-30_15h03.56.516,premup-three_ses-02_part-02_label-phase2,3.2.4,Win32,60,,,,,,,,,,,,,,,,,,,,,,,,,,,,,
left,0.730999947,0,87,1,0,1,0,1,0,1,0,240,156,1,239,2,6,1,stim/61.jpeg,Instruments,2,stim/objects/Instruments/record_player2.png,0.3,3,-0.2,-0.15,right,64,2021-03-30_15h03.56.516,premup-three_ses-02_part-02_label-phase2,3.2.4,Win32,60,,,,,,,,,,,,,,,,,,,,,,,,,,,,,
right,0.446999788,0,88,1,0,1,0,1,0,1,0,240,11,1,239,1,3,4,stim/34.jpeg,HouseObjects,1,stim/objects/HouseObjects/scale.png,0.5,3,-0.2,-0.15,left,64,2021-03-30_15h03.56.516,premup-three_ses-02_part-02_label-phase2,3.2.4,Win32,60,,,,,,,,,,,,,,,,,,,,,,,,,,,,,
right,0.647000074,0,89,1,0,1,0,1,0,1,0,240,13,1,239,1,3,2,stim/32.jpeg,HouseObjects,1,stim/objects/HouseObjects/safetypin.png,0.5,4,0.2,-0.15,left,64,2021-03-30_15h03.56.516,premup-three_ses-02_part-02_label-phase2,3.2.4,Win32,60,,,,,,,,,,,,,,,,,,,,,,,,,,,,,
right,0.677999973,1,90,1,0,1,0,1,0,1,0,240,22,1,239,1,3,3,stim/33.jpeg,Instruments,2,stim/objects/Instruments/speaker.png,0.5,3,-0.2,-0.15,right,64,2021-03-30_15h03.56.516,premup-three_ses-02_part-02_label-phase2,3.2.4,Win32,60,,,,,,,,,,,,,,,,,,,,,,,,,,,,,
left,0.703999996,1,91,1,0,1,0,1,0,1,0,240,135,1,239,2,6,4,stim/64.jpeg,HouseObjects,1,stim/objects/HouseObjects/scale2.png,0.7,4,0.2,-0.15,left,64,2021-03-30_15h03.56.516,premup-three_ses-02_part-02_label-phase2,3.2.4,Win32,60,,,,,,,,,,,,,,,,,,,,,,,,,,,,,
left,0.473999977,1,92,1,0,1,0,1,0,1,0,240,131,1,239,2,6,4,stim/64.jpeg,HouseObjects,1,stim/objects/HouseObjects/scale2.png,0.7,2,0.2,0.15,left,64,2021-03-30_15h03.56.516,premup-three_ses-02_part-02_label-phase2,3.2.4,Win32,60,,,,,,,,,,,,,,,,,,,,,,,,,,,,,
left,0.599999905,0,93,1,0,1,0,1,0,1,0,240,154,1,239,2,6,3,stim/63.jpeg,Instruments,2,stim/objects/Instruments/speaker2.png,0.3,4,0.2,-0.15,right,64,2021-03-30_15h03.56.516,premup-three_ses-02_part-02_label-phase2,3.2.4,Win32,60,,,,,,,,,,,,,,,,,,,,,,,,,,,,,
left,0.577000141,0,94,1,0,1,0,1,0,1,0,240,236,1,239,3,2,1,stim/21.jpeg,Instruments,2,stim/objects/Instruments/tuba2.png,0.1,1,-0.2,0.15,right,64,2021-03-30_15h03.56.516,premup-three_ses-02_part-02_label-phase2,3.2.4,Win32,60,,,,,,,,,,,,,,,,,,,,,,,,,,,,,
left,0.569000006,1,95,1,0,1,0,1,0,1,0,240,226,1,239,3,2,3,stim/23.jpeg,HouseObjects,1,stim/objects/HouseObjects/vacuumcleaner2.png,0.9,4,0.2,-0.15,left,64,2021-03-30_15h03.56.516,premup-three_ses-02_part-02_label-phase2,3.2.4,Win32,60,,,,,,,,,,,,,,,,,,,,,,,,,,,,,
right,0.655999899,0,96,1,0,1,0,1,0,1,0,240,8,1,239,1,3,1,stim/31.jpeg,HouseObjects,1,stim/objects/HouseObjects/rug.png,0.5,2,0.2,0.15,left,64,2021-03-30_15h03.56.516,premup-three_ses-02_part-02_label-phase2,3.2.4,Win32,60,,,,,,,,,,,,,,,,,,,,,,,,,,,,,
right,0.433999777,1,97,1,0,1,0,1,0,1,0,240,38,1,239,1,3,3,stim/33.jpeg,Instruments,2,stim/objects/Instruments/speaker.png,0.5,1,-0.2,0.15,right,64,2021-03-30_15h03.56.516,premup-three_ses-02_part-02_label-phase2,3.2.4,Win32,60,,,,,,,,,,,,,,,,,,,,,,,,,,,,,
right,0.500999928,1,98,1,0,1,0,1,0,1,0,240,37,1,239,1,3,2,stim/32.jpeg,Instruments,2,stim/objects/Instruments/saxophone.png,0.5,1,-0.2,0.15,right,64,2021-03-30_15h03.56.516,premup-three_ses-02_part-02_label-phase2,3.2.4,Win32,60,,,,,,,,,,,,,,,,,,,,,,,,,,,,,
left,0.753000021,0,99,1,0,1,0,1,0,1,0,240,77,1,239,1,4,2,stim/42.jpeg,Instruments,2,stim/objects/Instruments/triangle.png,0.5,3,-0.2,-0.15,right,64,2021-03-30_15h03.56.516,premup-three_ses-02_part-02_label-phase2,3.2.4,Win32,60,,,,,,,,,,,,,,,,,,,,,,,,,,,,,
left,0.8349998,0,100,1,0,1,0,1,0,1,0,240,74,1,239,1,4,3,stim/43.jpeg,Instruments,2,stim/objects/Instruments/trombone.png,0.5,3,-0.2,-0.15,right,64,2021-03-30_15h03.56.516,premup-three_ses-02_part-02_label-phase2,3.2.4,Win32,60,,,,,,,,,,,,,,,,,,,,,,,,,,,,,
left,0.498000145,1,101,1,0,1,0,1,0,1,0,240,233,1,239,3,2,2,stim/22.jpeg,HouseObjects,1,stim/objects/HouseObjects/towel2.png,0.9,2,0.2,0.15,left,64,2021-03-30_15h03.56.516,premup-three_ses-02_part-02_label-phase2,3.2.4,Win32,60,,,,,,,,,,,,,,,,,,,,,,,,,,,,,
left,0.622999907,1,102,1,0,1,0,1,0,1,0,240,140,1,239,2,6,1,stim/61.jpeg,HouseObjects,1,stim/objects/HouseObjects/rug2.png,0.7,1,-0.2,0.15,left,64,2021-03-30_15h03.56.516,premup-three_ses-02_part-02_label-phase2,3.2.4,Win32,60,,,,,,,,,,,,,,,,,,,,,,,,,,,,,
right,0.565000057,1,103,1,0,1,0,1,0,1,0,240,176,1,239,3,1,1,stim/11.jpeg,Instruments,2,stim/objects/Instruments/timbal2.png,0.9,1,-0.2,0.15,right,64,2021-03-30_15h03.56.516,premup-three_ses-02_part-02_label-phase2,3.2.4,Win32,60,,,,,,,,,,,,,,,,,,,,,,,,,,,,,
right,0.59499979,1,104,1,0,1,0,1,0,1,0,240,177,1,239,3,1,2,stim/12.jpeg,Instruments,2,stim/objects/Instruments/triangle2.png,0.9,3,-0.2,-0.15,right,64,2021-03-30_15h03.56.516,premup-three_ses-02_part-02_label-phase2,3.2.4,Win32,60,,,,,,,,,,,,,,,,,,,,,,,,,,,,,
left,0.600999832,1,105,1,0,1,0,1,0,1,0,240,52,1,239,1,4,1,stim/41.jpeg,HouseObjects,1,stim/objects/HouseObjects/sponge.png,0.5,3,-0.2,-0.15,left,64,2021-03-30_15h03.56.516,premup-three_ses-02_part-02_label-phase2,3.2.4,Win32,60,,,,,,,,,,,,,,,,,,,,,,,,,,,,,
left,0.618999958,0,106,1,0,1,0,1,0,1,0,240,61,1,239,1,4,2,stim/42.jpeg,Instruments,2,stim/objects/Instruments/triangle.png,0.5,1,-0.2,0.15,right,64,2021-03-30_15h03.56.516,premup-three_ses-02_part-02_label-phase2,3.2.4,Win32,60,,,,,,,,,,,,,,,,,,,,,,,,,,,,,
right,0.487999916,1,107,1,0,1,0,1,0,1,0,240,60,1,239,1,4,1,stim/41.jpeg,Instruments,2,stim/objects/Instruments/timbal.png,0.5,4,0.2,-0.15,right,64,2021-03-30_15h03.56.516,premup-three_ses-02_part-02_label-phase2,3.2.4,Win32,60,,,,,,,,,,,,,,,,,,,,,,,,,,,,,
right,0.520999908,1,108,1,0,1,0,1,0,1,0,240,197,1,239,3,1,2,stim/12.jpeg,Instruments,2,stim/objects/Instruments/triangle2.png,0.9,1,-0.2,0.15,right,64,2021-03-30_15h03.56.516,premup-three_ses-02_part-02_label-phase2,3.2.4,Win32,60,,,,,,,,,,,,,,,,,,,,,,,,,,,,,
right,0.505000114,1,109,1,0,1,0,1,0,1,0,240,167,1,239,3,1,4,stim/14.jpeg,Instruments,2,stim/objects/Instruments/trumpet2.png,0.9,3,-0.2,-0.15,right,64,2021-03-30_15h03.56.516,premup-three_ses-02_part-02_label-phase2,3.2.4,Win32,60,,,,,,,,,,,,,,,,,,,,,,,,,,,,,
right,0.758999825,0,110,1,0,1,0,1,0,1,0,240,12,1,239,1,3,1,stim/31.jpeg,HouseObjects,1,stim/objects/HouseObjects/rug.png,0.5,2,0.2,0.15,left,64,2021-03-30_15h03.56.516,premup-three_ses-02_part-02_label-phase2,3.2.4,Win32,60,,,,,,,,,,,,,,,,,,,,,,,,,,,,,
left,0.528000116,0,111,1,0,1,0,1,0,1,0,240,151,1,239,2,6,4,stim/64.jpeg,Instruments,2,stim/objects/Instruments/tambourine2.png,0.3,3,-0.2,-0.15,right,64,2021-03-30_15h03.56.516,premup-three_ses-02_part-02_label-phase2,3.2.4,Win32,60,,,,,,,,,,,,,,,,,,,,,,,,,,,,,
right,0.545999765,1,112,1,0,1,0,1,0,1,0,240,99,1,239,2,5,4,stim/54.jpeg,Instruments,2,stim/objects/Instruments/xylophone.png,0.7,2,0.2,0.15,right,64,2021-03-30_15h03.56.516,premup-three_ses-02_part-02_label-phase2,3.2.4,Win32,60,,,,,,,,,,,,,,,,,,,,,,,,,,,,,
right,0.662999868,1,113,1,0,1,0,1,0,1,0,240,118,1,239,2,5,3,stim/53.jpeg,Instruments,2,stim/objects/Instruments/vuvuzela.png,0.7,4,0.2,-0.15,right,64,2021-03-30_15h03.56.516,premup-three_ses-02_part-02_label-phase2,3.2.4,Win32,60,,,,,,,,,,,,,,,,,,,,,,,,,,,,,
right,0.485999823,0,114,1,0,1,0,1,0,1,0,240,91,1,239,2,5,4,stim/54.jpeg,HouseObjects,1,stim/objects/HouseObjects/wateringcan.png,0.3,2,0.2,0.15,left,64,2021-03-30_15h03.56.516,premup-three_ses-02_part-02_label-phase2,3.2.4,Win32,60,,,,,,,,,,,,,,,,,,,,,,,,,,,,,
left,0.645999908,0,115,1,0,1,0,1,0,1,0,240,67,1,239,1,4,4,stim/44.jpeg,Instruments,2,stim/objects/Instruments/trumpet.png,0.5,3,-0.2,-0.15,right,64,2021-03-30_15h03.56.516,premup-three_ses-02_part-02_label-phase2,3.2.4,Win32,60,,,,,,,,,,,,,,,,,,,,,,,,,,,,,
right,0.53399992,1,116,1,0,1,0,1,0,1,0,240,107,1,239,2,5,4,stim/54.jpeg,Instruments,2,stim/objects/Instruments/xylophone.png,0.7,1,-0.2,0.15,right,64,2021-03-30_15h03.56.516,premup-three_ses-02_part-02_label-phase2,3.2.4,Win32,60,,,,,,,,,,,,,,,,,,,,,,,,,,,,,
left,0.694000006,1,117,1,0,1,0,1,0,1,0,240,122,1,239,2,6,3,stim/63.jpeg,HouseObjects,1,stim/objects/HouseObjects/saw2.png,0.7,3,-0.2,-0.15,left,64,2021-03-30_15h03.56.516,premup-three_ses-02_part-02_label-phase2,3.2.4,Win32,60,,,,,,,,,,,,,,,,,,,,,,,,,,,,,
right,0.64199996,1,118,1,0,1,0,1,0,1,0,240,26,1,239,1,3,3,stim/33.jpeg,Instruments,2,stim/objects/Instruments/speaker.png,0.5,1,-0.2,0.15,right,64,2021-03-30_15h03.56.516,premup-three_ses-02_part-02_label-phase2,3.2.4,Win32,60,,,,,,,,,,,,,,,,,,,,,,,,,,,,,
right,0.536000013,1,119,1,0,1,0,1,0,1,0,240,164,1,239,3,1,1,stim/11.jpeg,Instruments,2,stim/objects/Instruments/timbal2.png,0.9,1,-0.2,0.15,right,64,2021-03-30_15h03.56.516,premup-three_ses-02_part-02_label-phase2,3.2.4,Win32,60,,,,,,,,,,,,,,,,,,,,,,,,,,,,,
left,0.56099987,0,120,1,0,1,0,1,0,1,0,240,157,1,239,2,6,2,stim/62.jpeg,Instruments,2,stim/objects/Instruments/saxophone2.png,0.3,3,-0.2,-0.15,right,64,2021-03-30_15h03.56.516,premup-three_ses-02_part-02_label-phase2,3.2.4,Win32,60,,,,,,,,,,,,,,,,,,,,,,,,,,,,,
right,0.493000031,0,121,1,0,1,0,1,0,1,0,240,83,1,239,2,5,4,stim/54.jpeg,HouseObjects,1,stim/objects/HouseObjects/wateringcan.png,0.3,3,-0.2,-0.15,left,64,2021-03-30_15h03.56.516,premup-three_ses-02_part-02_label-phase2,3.2.4,Win32,60,,,,,,,,,,,,,,,,,,,,,,,,,,,,,
right,0.770999908,1,122,1,0,1,0,1,0,1,0,240,79,1,239,1,4,4,stim/44.jpeg,Instruments,2,stim/objects/Instruments/trumpet.png,0.5,4,0.2,-0.15,right,64,2021-03-30_15h03.56.516,premup-three_ses-02_part-02_label-phase2,3.2.4,Win32,60,,,,,,,,,,,,,,,,,,,,,,,,,,,,,
right,0.552000046,0,123,1,0,1,0,1,0,1,0,240,44,1,239,1,4,1,stim/41.jpeg,HouseObjects,1,stim/objects/HouseObjects/sponge.png,0.5,4,0.2,-0.15,left,64,2021-03-30_15h03.56.516,premup-three_ses-02_part-02_label-phase2,3.2.4,Win32,60,,,,,,,,,,,,,,,,,,,,,,,,,,,,,
left,0.501999855,1,124,1,0,1,0,1,0,1,0,240,232,1,239,3,2,1,stim/21.jpeg,HouseObjects,1,stim/objects/HouseObjects/thread2.png,0.9,4,0.2,-0.15,left,64,2021-03-30_15h03.56.516,premup-three_ses-02_part-02_label-phase2,3.2.4,Win32,60,,,,,,,,,,,,,,,,,,,,,,,,,,,,,
right,0.593999863,1,125,1,0,1,0,1,0,1,0,240,34,1,239,1,3,3,stim/33.jpeg,Instruments,2,stim/objects/Instruments/speaker.png,0.5,3,-0.2,-0.15,right,64,2021-03-30_15h03.56.516,premup-three_ses-02_part-02_label-phase2,3.2.4,Win32,60,,,,,,,,,,,,,,,,,,,,,,,,,,,,,
left,0.54399991,1,126,1,0,1,0,1,0,1,0,240,210,1,239,3,2,3,stim/23.jpeg,HouseObjects,1,stim/objects/HouseObjects/vacuumcleaner2.png,0.9,4,0.2,-0.15,left,64,2021-03-30_15h03.56.516,premup-three_ses-02_part-02_label-phase2,3.2.4,Win32,60,,,,,,,,,,,,,,,,,,,,,,,,,,,,,
right,0.576999903,1,127,1,0,1,0,1,0,1,0,240,95,1,239,2,5,4,stim/54.jpeg,Instruments,2,stim/objects/Instruments/xylophone.png,0.7,1,-0.2,0.15,right,64,2021-03-30_15h03.56.516,premup-three_ses-02_part-02_label-phase2,3.2.4,Win32,60,,,,,,,,,,,,,,,,,,,,,,,,,,,,,
right,0.45299983,1,128,1,0,1,0,1,0,1,0,240,102,1,239,2,5,3,stim/53.jpeg,Instruments,2,stim/objects/Instruments/vuvuzela.png,0.7,1,-0.2,0.15,right,64,2021-03-30_15h03.56.516,premup-three_ses-02_part-02_label-phase2,3.2.4,Win32,60,,,,,,,,,,,,,,,,,,,,,,,,,,,,,
left,0.558000088,1,129,1,0,1,0,1,0,1,0,240,134,1,239,2,6,3,stim/63.jpeg,HouseObjects,1,stim/objects/HouseObjects/saw2.png,0.7,4,0.2,-0.15,left,64,2021-03-30_15h03.56.516,premup-three_ses-02_part-02_label-phase2,3.2.4,Win32,60,,,,,,,,,,,,,,,,,,,,,,,,,,,,,
left,0.473999977,1,130,1,0,1,0,1,0,1,0,240,222,1,239,3,2,3,stim/23.jpeg,HouseObjects,1,stim/objects/HouseObjects/vacuumcleaner2.png,0.9,3,-0.2,-0.15,left,64,2021-03-30_15h03.56.516,premup-three_ses-02_part-02_label-phase2,3.2.4,Win32,60,,,,,,,,,,,,,,,,,,,,,,,,,,,,,
left,0.792000055,1,131,1,0,1,0,1,0,1,0,240,50,1,239,1,4,3,stim/43.jpeg,HouseObjects,1,stim/objects/HouseObjects/teapot.png,0.5,2,0.2,0.15,left,64,2021-03-30_15h03.56.516,premup-three_ses-02_part-02_label-phase2,3.2.4,Win32,60,,,,,,,,,,,,,,,,,,,,,,,,,,,,,
left,0.549999952,1,132,1,0,1,0,1,0,1,0,240,146,1,239,2,6,3,stim/63.jpeg,HouseObjects,1,stim/objects/HouseObjects/saw2.png,0.7,4,0.2,-0.15,left,64,2021-03-30_15h03.56.516,premup-three_ses-02_part-02_label-phase2,3.2.4,Win32,60,,,,,,,,,,,,,,,,,,,,,,,,,,,,,
left,0.55099988,1,133,1,0,1,0,1,0,1,0,240,218,1,239,3,2,3,stim/23.jpeg,HouseObjects,1,stim/objects/HouseObjects/vacuumcleaner2.png,0.9,1,-0.2,0.15,left,64,2021-03-30_15h03.56.516,premup-three_ses-02_part-02_label-phase2,3.2.4,Win32,60,,,,,,,,,,,,,,,,,,,,,,,,,,,,,
left,0.51699996,1,134,1,0,1,0,1,0,1,0,240,220,1,239,3,2,1,stim/21.jpeg,HouseObjects,1,stim/objects/HouseObjects/thread2.png,0.9,4,0.2,-0.15,left,64,2021-03-30_15h03.56.516,premup-three_ses-02_part-02_label-phase2,3.2.4,Win32,60,,,,,,,,,,,,,,,,,,,,,,,,,,,,,
right,0.506999969,1,135,1,0,1,0,1,0,1,0,240,104,1,239,2,5,1,stim/51.jpeg,Instruments,2,stim/objects/Instruments/tuba.png,0.7,2,0.2,0.15,right,64,2021-03-30_15h03.56.516,premup-three_ses-02_part-02_label-phase2,3.2.4,Win32,60,,,,,,,,,,,,,,,,,,,,,,,,,,,,,
right,0.539999962,0,136,1,0,1,0,1,0,1,0,240,87,1,239,2,5,4,stim/54.jpeg,HouseObjects,1,stim/objects/HouseObjects/wateringcan.png,0.3,2,0.2,0.15,left,64,2021-03-30_15h03.56.516,premup-three_ses-02_part-02_label-phase2,3.2.4,Win32,60,,,,,,,,,,,,,,,,,,,,,,,,,,,,,
right,0.529000044,1,137,1,0,1,0,1,0,1,0,240,187,1,239,3,1,4,stim/14.jpeg,Instruments,2,stim/objects/Instruments/trumpet2.png,0.9,4,0.2,-0.15,right,64,2021-03-30_15h03.56.516,premup-three_ses-02_part-02_label-phase2,3.2.4,Win32,60,,,,,,,,,,,,,,,,,,,,,,,,,,,,,
right,0.569000006,0,138,1,0,1,0,1,0,1,0,240,14,1,239,1,3,3,stim/33.jpeg,HouseObjects,1,stim/objects/HouseObjects/saw.png,0.5,1,-0.2,0.15,left,64,2021-03-30_15h03.56.516,premup-three_ses-02_part-02_label-phase2,3.2.4,Win32,60,,,,,,,,,,,,,,,,,,,,,,,,,,,,,
right,0.666999817,1,139,1,0,1,0,1,0,1,0,240,93,1,239,2,5,2,stim/52.jpeg,Instruments,2,stim/objects/Instruments/violin.png,0.7,3,-0.2,-0.15,right,64,2021-03-30_15h03.56.516,premup-three_ses-02_part-02_label-phase2,3.2.4,Win32,60,,,,,,,,,,,,,,,,,,,,,,,,,,,,,
,,0,140,1,0,1,0,1,0,1,0,240,65,1,239,1,4,2,stim/42.jpeg,Instruments,2,stim/objects/Instruments/triangle.png,0.5,1,-0.2,0.15,right,64,2021-03-30_15h03.56.516,premup-three_ses-02_part-02_label-phase2,3.2.4,Win32,60,,,,,,,,,,,,,,,,,,,,,,,,,,,,,
right,0.473999977,0,141,1,0,1,0,1,0,1,0,240,80,1,239,2,5,1,stim/51.jpeg,HouseObjects,1,stim/objects/HouseObjects/thread.png,0.3,1,-0.2,0.15,left,64,2021-03-30_15h03.56.516,premup-three_ses-02_part-02_label-phase2,3.2.4,Win32,60,,,,,,,,,,,,,,,,,,,,,,,,,,,,,
left,0.538999796,1,142,1,0,1,0,1,0,1,0,240,144,1,239,2,6,1,stim/61.jpeg,HouseObjects,1,stim/objects/HouseObjects/rug2.png,0.7,3,-0.2,-0.15,left,64,2021-03-30_15h03.56.516,premup-three_ses-02_part-02_label-phase2,3.2.4,Win32,60,,,,,,,,,,,,,,,,,,,,,,,,,,,,,
right,0.496999979,1,143,1,0,1,0,1,0,1,0,240,193,1,239,3,1,2,stim/12.jpeg,Instruments,2,stim/objects/Instruments/triangle2.png,0.9,1,-0.2,0.15,right,64,2021-03-30_15h03.56.516,premup-three_ses-02_part-02_label-phase2,3.2.4,Win32,60,,,,,,,,,,,,,,,,,,,,,,,,,,,,,
left,0.47300005,1,144,1,0,1,0,1,0,1,0,240,137,1,239,2,6,2,stim/62.jpeg,HouseObjects,1,stim/objects/HouseObjects/safetypin2.png,0.7,2,0.2,0.15,left,64,2021-03-30_15h03.56.516,premup-three_ses-02_part-02_label-phase2,3.2.4,Win32,60,,,,,,,,,,,,,,,,,,,,,,,,,,,,,
left,0.545999765,1,145,1,0,1,0,1,0,1,0,240,200,1,239,3,2,1,stim/21.jpeg,HouseObjects,1,stim/objects/HouseObjects/thread2.png,0.9,1,-0.2,0.15,left,64,2021-03-30_15h03.56.516,premup-three_ses-02_part-02_label-phase2,3.2.4,Win32,60,,,,,,,,,,,,,,,,,,,,,,,,,,,,,
right,0.646999836,0,146,1,0,1,0,1,0,1,0,240,3,1,239,1,3,4,stim/34.jpeg,HouseObjects,1,stim/objects/HouseObjects/scale.png,0.5,3,-0.2,-0.15,left,64,2021-03-30_15h03.56.516,premup-three_ses-02_part-02_label-phase2,3.2.4,Win32,60,,,,,,,,,,,,,,,,,,,,,,,,,,,,,
right,0.566999912,1,147,1,0,1,0,1,0,1,0,240,169,1,239,3,1,2,stim/12.jpeg,Instruments,2,stim/objects/Instruments/triangle2.png,0.9,1,-0.2,0.15,right,64,2021-03-30_15h03.56.516,premup-three_ses-02_part-02_label-phase2,3.2.4,Win32,60,,,,,,,,,,,,,,,,,,,,,,,,,,,,,
right,0.676000118,1,148,1,0,1,0,1,0,1,0,240,36,1,239,1,3,1,stim/31.jpeg,Instruments,2,stim/objects/Instruments/record_player.png,0.5,1,-0.2,0.15,right,64,2021-03-30_15h03.56.516,premup-three_ses-02_part-02_label-phase2,3.2.4,Win32,60,,,,,,,,,,,,,,,,,,,,,,,,,,,,,
right,0.468999863,1,149,1,0,1,0,1,0,1,0,240,178,1,239,3,1,3,stim/13.jpeg,Instruments,2,stim/objects/Instruments/trombone2.png,0.9,2,0.2,0.15,right,64,2021-03-30_15h03.56.516,premup-three_ses-02_part-02_label-phase2,3.2.4,Win32,60,,,,,,,,,,,,,,,,,,,,,,,,,,,,,
right,0.358999968,1,150,1,0,1,0,1,0,1,0,240,174,1,239,3,1,3,stim/13.jpeg,Instruments,2,stim/objects/Instruments/trombone2.png,0.9,2,0.2,0.15,right,64,2021-03-30_15h03.56.516,premup-three_ses-02_part-02_label-phase2,3.2.4,Win32,60,,,,,,,,,,,,,,,,,,,,,,,,,,,,,
right,0.715000153,1,151,1,0,1,0,1,0,1,0,240,21,1,239,1,3,2,stim/32.jpeg,Instruments,2,stim/objects/Instruments/saxophone.png,0.5,1,-0.2,0.15,right,64,2021-03-30_15h03.56.516,premup-three_ses-02_part-02_label-phase2,3.2.4,Win32,60,,,,,,,,,,,,,,,,,,,,,,,,,,,,,
left,0.758999825,0,152,1,0,1,0,1,0,1,0,240,72,1,239,1,4,1,stim/41.jpeg,Instruments,2,stim/objects/Instruments/timbal.png,0.5,1,-0.2,0.15,right,64,2021-03-30_15h03.56.516,premup-three_ses-02_part-02_label-phase2,3.2.4,Win32,60,,,,,,,,,,,,,,,,,,,,,,,,,,,,,
left,0.677999973,1,153,1,0,1,0,1,0,1,0,240,46,1,239,1,4,3,stim/43.jpeg,HouseObjects,1,stim/objects/HouseObjects/teapot.png,0.5,2,0.2,0.15,left,64,2021-03-30_15h03.56.516,premup-three_ses-02_part-02_label-phase2,3.2.4,Win32,60,,,,,,,,,,,,,,,,,,,,,,,,,,,,,
left,0.502999783,1,154,1,0,1,0,1,0,1,0,240,206,1,239,3,2,3,stim/23.jpeg,HouseObjects,1,stim/objects/HouseObjects/vacuumcleaner2.png,0.9,4,0.2,-0.15,left,64,2021-03-30_15h03.56.516,premup-three_ses-02_part-02_label-phase2,3.2.4,Win32,60,,,,,,,,,,,,,,,,,,,,,,,,,,,,,
right,0.506000042,1,155,1,0,1,0,1,0,1,0,240,180,1,239,3,1,1,stim/11.jpeg,Instruments,2,stim/objects/Instruments/timbal2.png,0.9,1,-0.2,0.15,right,64,2021-03-30_15h03.56.516,premup-three_ses-02_part-02_label-phase2,3.2.4,Win32,60,,,,,,,,,,,,,,,,,,,,,,,,,,,,,
right,0.599999905,1,156,1,0,1,0,1,0,1,0,240,33,1,239,1,3,2,stim/32.jpeg,Instruments,2,stim/objects/Instruments/saxophone.png,0.5,1,-0.2,0.15,right,64,2021-03-30_15h03.56.516,premup-three_ses-02_part-02_label-phase2,3.2.4,Win32,60,,,,,,,,,,,,,,,,,,,,,,,,,,,,,
left,0.640999794,0,157,1,0,1,0,1,0,1,0,240,69,1,239,1,4,2,stim/42.jpeg,Instruments,2,stim/objects/Instruments/triangle.png,0.5,2,0.2,0.15,right,64,2021-03-30_15h03.56.516,premup-three_ses-02_part-02_label-phase2,3.2.4,Win32,60,,,,,,,,,,,,,,,,,,,,,,,,,,,,,
right,0.437000036,1,158,1,0,1,0,1,0,1,0,240,191,1,239,3,1,4,stim/14.jpeg,Instruments,2,stim/objects/Instruments/trumpet2.png,0.9,3,-0.2,-0.15,right,64,2021-03-30_15h03.56.516,premup-three_ses-02_part-02_label-phase2,3.2.4,Win32,60,,,,,,,,,,,,,,,,,,,,,,,,,,,,,
right,0.720999956,1,159,1,0,1,0,1,0,1,0,240,31,1,239,1,3,4,stim/34.jpeg,Instruments,2,stim/objects/Instruments/tambourine.png,0.5,1,-0.2,0.15,right,64,2021-03-30_15h03.56.516,premup-three_ses-02_part-02_label-phase2,3.2.4,Win32,60,,,,,,,,,,,,,,,,,,,,,,,,,,,,,
right,0.402999878,1,160,1,0,1,0,1,0,1,0,240,28,1,239,1,3,1,stim/31.jpeg,Instruments,2,stim/objects/Instruments/record_player.png,0.5,2,0.2,0.15,right,64,2021-03-30_15h03.56.516,premup-three_ses-02_part-02_label-phase2,3.2.4,Win32,60,,,,,,,,,,,,,,,,,,,,,,,,,,,,,
right,0.458999872,1,161,1,0,1,0,1,0,1,0,240,110,1,239,2,5,3,stim/53.jpeg,Instruments,2,stim/objects/Instruments/vuvuzela.png,0.7,1,-0.2,0.15,right,64,2021-03-30_15h03.56.516,premup-three_ses-02_part-02_label-phase2,3.2.4,Win32,60,,,,,,,,,,,,,,,,,,,,,,,,,,,,,
right,0.394999981,1,162,1,0,1,0,1,0,1,0,240,170,1,239,3,1,3,stim/13.jpeg,Instruments,2,stim/objects/Instruments/trombone2.png,0.9,2,0.2,0.15,right,64,2021-03-30_15h03.56.516,premup-three_ses-02_part-02_label-phase2,3.2.4,Win32,60,,,,,,,,,,,,,,,,,,,,,,,,,,,,,
right,0.527999878,0,163,1,0,1,0,1,0,1,0,240,88,1,239,2,5,1,stim/51.jpeg,HouseObjects,1,stim/objects/HouseObjects/thread.png,0.3,2,0.2,0.15,left,64,2021-03-30_15h03.56.516,premup-three_ses-02_part-02_label-phase2,3.2.4,Win32,60,,,,,,,,,,,,,,,,,,,,,,,,,,,,,
right,0.727999926,1,164,1,0,1,0,1,0,1,0,240,168,1,239,3,1,1,stim/11.jpeg,Instruments,2,stim/objects/Instruments/timbal2.png,0.9,2,0.2,0.15,right,64,2021-03-30_15h03.56.516,premup-three_ses-02_part-02_label-phase2,3.2.4,Win32,60,,,,,,,,,,,,,,,,,,,,,,,,,,,,,
right,0.480000019,1,165,1,0,1,0,1,0,1,0,240,109,1,239,2,5,2,stim/52.jpeg,Instruments,2,stim/objects/Instruments/violin.png,0.7,4,0.2,-0.15,right,64,2021-03-30_15h03.56.516,premup-three_ses-02_part-02_label-phase2,3.2.4,Win32,60,,,,,,,,,,,,,,,,,,,,,,,,,,,,,
right,0.621999741,0,166,1,0,1,0,1,0,1,0,240,19,1,239,1,3,4,stim/34.jpeg,HouseObjects,1,stim/objects/HouseObjects/scale.png,0.5,4,0.2,-0.15,left,64,2021-03-30_15h03.56.516,premup-three_ses-02_part-02_label-phase2,3.2.4,Win32,60,,,,,,,,,,,,,,,,,,,,,,,,,,,,,
left,0.46999979,1,167,1,0,1,0,1,0,1,0,240,163,1,239,3,1,4,stim/14.jpeg,HouseObjects,1,stim/objects/HouseObjects/thermometer2.png,0.1,3,-0.2,-0.15,left,64,2021-03-30_15h03.56.516,premup-three_ses-02_part-02_label-phase2,3.2.4,Win32,60,,,,,,,,,,,,,,,,,,,,,,,,,,,,,
left,0.752999783,1,168,1,0,1,0,1,0,1,0,240,138,1,239,2,6,3,stim/63.jpeg,HouseObjects,1,stim/objects/HouseObjects/saw2.png,0.7,3,-0.2,-0.15,left,64,2021-03-30_15h03.56.516,premup-three_ses-02_part-02_label-phase2,3.2.4,Win32,60,,,,,,,,,,,,,,,,,,,,,,,,,,,,,
left,0.574999809,1,169,1,0,1,0,1,0,1,0,240,219,1,239,3,2,4,stim/24.jpeg,HouseObjects,1,stim/objects/HouseObjects/wateringcan2.png,0.9,2,0.2,0.15,left,64,2021-03-30_15h03.56.516,premup-three_ses-02_part-02_label-phase2,3.2.4,Win32,60,,,,,,,,,,,,,,,,,,,,,,,,,,,,,
left,0.42599988,1,170,1,0,1,0,1,0,1,0,240,231,1,239,3,2,4,stim/24.jpeg,HouseObjects,1,stim/objects/HouseObjects/wateringcan2.png,0.9,1,-0.2,0.15,left,64,2021-03-30_15h03.56.516,premup-three_ses-02_part-02_label-phase2,3.2.4,Win32,60,,,,,,,,,,,,,,,,,,,,,,,,,,,,,
right,0.902999878,0,171,1,0,1,0,1,0,1,0,240,45,1,239,1,4,2,stim/42.jpeg,HouseObjects,1,stim/objects/HouseObjects/spraybottle.png,0.5,4,0.2,-0.15,left,64,2021-03-30_15h03.56.516,premup-three_ses-02_part-02_label-phase2,3.2.4,Win32,60,,,,,,,,,,,,,,,,,,,,,,,,,,,,,
left,0.494999886,1,172,1,0,1,0,1,0,1,0,240,221,1,239,3,2,2,stim/22.jpeg,HouseObjects,1,stim/objects/HouseObjects/towel2.png,0.9,4,0.2,-0.15,left,64,2021-03-30_15h03.56.516,premup-three_ses-02_part-02_label-phase2,3.2.4,Win32,60,,,,,,,,,,,,,,,,,,,,,,,,,,,,,
right,0.558000088,1,173,1,0,1,0,1,0,1,0,240,35,1,239,1,3,4,stim/34.jpeg,Instruments,2,stim/objects/Instruments/tambourine.png,0.5,2,0.2,0.15,right,64,2021-03-30_15h03.56.516,premup-three_ses-02_part-02_label-phase2,3.2.4,Win32,60,,,,,,,,,,,,,,,,,,,,,,,,,,,,,
right,0.524999857,1,174,1,0,1,0,1,0,1,0,240,27,1,239,1,3,4,stim/34.jpeg,Instruments,2,stim/objects/Instruments/tambourine.png,0.5,1,-0.2,0.15,right,64,2021-03-30_15h03.56.516,premup-three_ses-02_part-02_label-phase2,3.2.4,Win32,60,,,,,,,,,,,,,,,,,,,,,,,,,,,,,
right,0.372999907,1,175,1,0,1,0,1,0,1,0,240,23,1,239,1,3,4,stim/34.jpeg,Instruments,2,stim/objects/Instruments/tambourine.png,0.5,1,-0.2,0.15,right,64,2021-03-30_15h03.56.516,premup-three_ses-02_part-02_label-phase2,3.2.4,Win32,60,,,,,,,,,,,,,,,,,,,,,,,,,,,,,
,,0,176,1,0,1,0,1,0,1,0,240,40,1,239,1,4,1,stim/41.jpeg,HouseObjects,1,stim/objects/HouseObjects/sponge.png,0.5,3,-0.2,-0.15,left,64,2021-03-30_15h03.56.516,premup-three_ses-02_part-02_label-phase2,3.2.4,Win32,60,,,,,,,,,,,,,,,,,,,,,,,,,,,,,
left,0.512999773,1,177,1,0,1,0,1,0,1,0,240,132,1,239,2,6,1,stim/61.jpeg,HouseObjects,1,stim/objects/HouseObjects/rug2.png,0.7,2,0.2,0.15,left,64,2021-03-30_15h03.56.516,premup-three_ses-02_part-02_label-phase2,3.2.4,Win32,60,,,,,,,,,,,,,,,,,,,,,,,,,,,,,
right,0.378999949,0,178,1,0,1,0,1,0,1,0,240,56,1,239,1,4,1,stim/41.jpeg,HouseObjects,1,stim/objects/HouseObjects/sponge.png,0.5,4,0.2,-0.15,left,64,2021-03-30_15h03.56.516,premup-three_ses-02_part-02_label-phase2,3.2.4,Win32,60,,,,,,,,,,,,,,,,,,,,,,,,,,,,,
left,0.473999739,1,179,1,0,1,0,1,0,1,0,240,201,1,239,3,2,2,stim/22.jpeg,HouseObjects,1,stim/objects/HouseObjects/towel2.png,0.9,2,0.2,0.15,left,64,2021-03-30_15h03.56.516,premup-three_ses-02_part-02_label-phase2,3.2.4,Win32,60,,,,,,,,,,,,,,,,,,,,,,,,,,,,,
left,0.549000025,1,180,1,0,1,0,1,0,1,0,240,7,1,239,1,3,4,stim/34.jpeg,HouseObjects,1,stim/objects/HouseObjects/scale.png,0.5,2,0.2,0.15,left,64,2021-03-30_15h03.56.516,premup-three_ses-02_part-02_label-phase2,3.2.4,Win32,60,,,,,,,,,,,,,,,,,,,,,,,,,,,,,
right,0.638999939,0,181,1,0,1,0,1,0,1,0,240,120,1,239,2,6,1,stim/61.jpeg,HouseObjects,1,stim/objects/HouseObjects/rug2.png,0.7,3,-0.2,-0.15,left,64,2021-03-30_15h03.56.516,premup-three_ses-02_part-02_label-phase2,3.2.4,Win32,60,,,,,,,,,,,,,,,,,,,,,,,,,,,,,
left,0.509000063,1,182,1,0,1,0,1,0,1,0,240,123,1,239,2,6,4,stim/64.jpeg,HouseObjects,1,stim/objects/HouseObjects/scale2.png,0.7,4,0.2,-0.15,left,64,2021-03-30_15h03.56.516,premup-three_ses-02_part-02_label-phase2,3.2.4,Win32,60,,,,,,,,,,,,,,,,,,,,,,,,,,,,,
left,0.609999895,0,183,1,0,1,0,1,0,1,0,240,73,1,239,1,4,2,stim/42.jpeg,Instruments,2,stim/objects/Instruments/triangle.png,0.5,2,0.2,0.15,right,64,2021-03-30_15h03.56.516,premup-three_ses-02_part-02_label-phase2,3.2.4,Win32,60,,,,,,,,,,,,,,,,,,,,,,,,,,,,,
left,0.438999891,1,184,1,0,1,0,1,0,1,0,240,214,1,239,3,2,3,stim/23.jpeg,HouseObjects,1,stim/objects/HouseObjects/vacuumcleaner2.png,0.9,1,-0.2,0.15,left,64,2021-03-30_15h03.56.516,premup-three_ses-02_part-02_label-phase2,3.2.4,Win32,60,,,,,,,,,,,,,,,,,,,,,,,,,,,,,
left,0.602999926,1,185,1,0,1,0,1,0,1,0,240,41,1,239,1,4,2,stim/42.jpeg,HouseObjects,1,stim/objects/HouseObjects/spraybottle.png,0.5,2,0.2,0.15,left,64,2021-03-30_15h03.56.516,premup-three_ses-02_part-02_label-phase2,3.2.4,Win32,60,,,,,,,,,,,,,,,,,,,,,,,,,,,,,
right,0.490999937,1,186,1,0,1,0,1,0,1,0,240,184,1,239,3,1,1,stim/11.jpeg,Instruments,2,stim/objects/Instruments/timbal2.png,0.9,1,-0.2,0.15,right,64,2021-03-30_15h03.56.516,premup-three_ses-02_part-02_label-phase2,3.2.4,Win32,60,,,,,,,,,,,,,,,,,,,,,,,,,,,,,
left,0.661999941,0,187,1,0,1,0,1,0,1,0,240,68,1,239,1,4,1,stim/41.jpeg,Instruments,2,stim/objects/Instruments/timbal.png,0.5,2,0.2,0.15,right,64,2021-03-30_15h03.56.516,premup-three_ses-02_part-02_label-phase2,3.2.4,Win32,60,,,,,,,,,,,,,,,,,,,,,,,,,,,,,
left,0.450999975,1,188,1,0,1,0,1,0,1,0,240,203,1,239,3,2,4,stim/24.jpeg,HouseObjects,1,stim/objects/HouseObjects/wateringcan2.png,0.9,4,0.2,-0.15,left,64,2021-03-30_15h03.56.516,premup-three_ses-02_part-02_label-phase2,3.2.4,Win32,60,,,,,,,,,,,,,,,,,,,,,,,,,,,,,
left,0.353999853,1,189,1,0,1,0,1,0,1,0,240,215,1,239,3,2,4,stim/24.jpeg,HouseObjects,1,stim/objects/HouseObjects/wateringcan2.png,0.9,2,0.2,0.15,left,64,2021-03-30_15h03.56.516,premup-three_ses-02_part-02_label-phase2,3.2.4,Win32,60,,,,,,,,,,,,,,,,,,,,,,,,,,,,,
right,0.368999958,1,190,1,0,1,0,1,0,1,0,240,190,1,239,3,1,3,stim/13.jpeg,Instruments,2,stim/objects/Instruments/trombone2.png,0.9,3,-0.2,-0.15,right,64,2021-03-30_15h03.56.516,premup-three_ses-02_part-02_label-phase2,3.2.4,Win32,60,,,,,,,,,,,,,,,,,,,,,,,,,,,,,
right,0.40899992,1,191,1,0,1,0,1,0,1,0,240,103,1,239,2,5,4,stim/54.jpeg,Instruments,2,stim/objects/Instruments/xylophone.png,0.7,3,-0.2,-0.15,right,64,2021-03-30_15h03.56.516,premup-three_ses-02_part-02_label-phase2,3.2.4,Win32,60,,,,,,,,,,,,,,,,,,,,,,,,,,,,,
left,0.546999931,0,192,1,0,1,0,1,0,1,0,240,148,1,239,2,6,1,stim/61.jpeg,Instruments,2,stim/objects/Instruments/record_player2.png,0.3,1,-0.2,0.15,right,64,2021-03-30_15h03.56.516,premup-three_ses-02_part-02_label-phase2,3.2.4,Win32,60,,,,,,,,,,,,,,,,,,,,,,,,,,,,,
right,0.399999857,1,193,1,0,1,0,1,0,1,0,240,166,1,239,3,1,3,stim/13.jpeg,Instruments,2,stim/objects/Instruments/trombone2.png,0.9,4,0.2,-0.15,right,64,2021-03-30_15h03.56.516,premup-three_ses-02_part-02_label-phase2,3.2.4,Win32,60,,,,,,,,,,,,,,,,,,,,,,,,,,,,,
right,0.546999931,0,194,1,0,1,0,1,0,1,0,240,81,1,239,2,5,2,stim/52.jpeg,HouseObjects,1,stim/objects/HouseObjects/towel.png,0.3,4,0.2,-0.15,left,64,2021-03-30_15h03.56.516,premup-three_ses-02_part-02_label-phase2,3.2.4,Win32,60,,,,,,,,,,,,,,,,,,,,,,,,,,,,,
right,0.526000023,1,195,1,0,1,0,1,0,1,0,240,183,1,239,3,1,4,stim/14.jpeg,Instruments,2,stim/objects/Instruments/trumpet2.png,0.9,3,-0.2,-0.15,right,64,2021-03-30_15h03.56.516,premup-three_ses-02_part-02_label-phase2,3.2.4,Win32,60,,,,,,,,,,,,,,,,,,,,,,,,,,,,,
right,0.437999964,0,196,1,0,1,0,1,0,1,0,240,90,1,239,2,5,3,stim/53.jpeg,HouseObjects,1,stim/objects/HouseObjects/vacuumcleaner.png,0.3,3,-0.2,-0.15,left,64,2021-03-30_15h03.56.516,premup-three_ses-02_part-02_label-phase2,3.2.4,Win32,60,,,,,,,,,,,,,,,,,,,,,,,,,,,,,
left,0.428999901,0,197,1,0,1,0,1,0,1,0,240,152,1,239,2,6,1,stim/61.jpeg,Instruments,2,stim/objects/Instruments/record_player2.png,0.3,1,-0.2,0.15,right,64,2021-03-30_15h03.56.516,premup-three_ses-02_part-02_label-phase2,3.2.4,Win32,60,,,,,,,,,,,,,,,,,,,,,,,,,,,,,
right,0.710999966,1,198,1,0,1,0,1,0,1,0,240,98,1,239,2,5,3,stim/53.jpeg,Instruments,2,stim/objects/Instruments/vuvuzela.png,0.7,1,-0.2,0.15,right,64,2021-03-30_15h03.56.516,premup-three_ses-02_part-02_label-phase2,3.2.4,Win32,60,,,,,,,,,,,,,,,,,,,,,,,,,,,,,
right,0.515000105,0,199,1,0,1,0,1,0,1,0,240,1,1,239,1,3,2,stim/32.jpeg,HouseObjects,1,stim/objects/HouseObjects/safetypin.png,0.5,1,-0.2,0.15,left,64,2021-03-30_15h03.56.516,premup-three_ses-02_part-02_label-phase2,3.2.4,Win32,60,,,,,,,,,,,,,,,,,,,,,,,,,,,,,
left,0.484999895,1,200,1,0,1,0,1,0,1,0,240,205,1,239,3,2,2,stim/22.jpeg,HouseObjects,1,stim/objects/HouseObjects/towel2.png,0.9,4,0.2,-0.15,left,64,2021-03-30_15h03.56.516,premup-three_ses-02_part-02_label-phase2,3.2.4,Win32,60,,,,,,,,,,,,,,,,,,,,,,,,,,,,,
left,0.877000093,1,201,1,0,1,0,1,0,1,0,240,57,1,239,1,4,2,stim/42.jpeg,HouseObjects,1,stim/objects/HouseObjects/spraybottle.png,0.5,4,0.2,-0.15,left,64,2021-03-30_15h03.56.516,premup-three_ses-02_part-02_label-phase2,3.2.4,Win32,60,,,,,,,,,,,,,,,,,,,,,,,,,,,,,
right,0.45299983,1,202,1,0,1,0,1,0,1,0,240,189,1,239,3,1,2,stim/12.jpeg,Instruments,2,stim/objects/Instruments/triangle2.png,0.9,3,-0.2,-0.15,right,64,2021-03-30_15h03.56.516,premup-three_ses-02_part-02_label-phase2,3.2.4,Win32,60,,,,,,,,,,,,,,,,,,,,,,,,,,,,,
left,0.467999935,1,203,1,0,1,0,1,0,1,0,240,216,1,239,3,2,1,stim/21.jpeg,HouseObjects,1,stim/objects/HouseObjects/thread2.png,0.9,2,0.2,0.15,left,64,2021-03-30_15h03.56.516,premup-three_ses-02_part-02_label-phase2,3.2.4,Win32,60,,,,,,,,,,,,,,,,,,,,,,,,,,,,,
right,0.578999758,1,204,1,0,1,0,1,0,1,0,240,119,1,239,2,5,4,stim/54.jpeg,Instruments,2,stim/objects/Instruments/xylophone.png,0.7,1,-0.2,0.15,right,64,2021-03-30_15h03.56.516,premup-three_ses-02_part-02_label-phase2,3.2.4,Win32,60,,,,,,,,,,,,,,,,,,,,,,,,,,,,,
left,0.538999796,1,205,1,0,1,0,1,0,1,0,240,58,1,239,1,4,3,stim/43.jpeg,HouseObjects,1,stim/objects/HouseObjects/teapot.png,0.5,4,0.2,-0.15,left,64,2021-03-30_15h03.56.516,premup-three_ses-02_part-02_label-phase2,3.2.4,Win32,60,,,,,,,,,,,,,,,,,,,,,,,,,,,,,
left,0.521999836,1,206,1,0,1,0,1,0,1,0,240,127,1,239,2,6,4,stim/64.jpeg,HouseObjects,1,stim/objects/HouseObjects/scale2.png,0.7,3,-0.2,-0.15,left,64,2021-03-30_15h03.56.516,premup-three_ses-02_part-02_label-phase2,3.2.4,Win32,60,,,,,,,,,,,,,,,,,,,,,,,,,,,,,
right,0.405999899,1,207,1,0,1,0,1,0,1,0,240,101,1,239,2,5,2,stim/52.jpeg,Instruments,2,stim/objects/Instruments/violin.png,0.7,4,0.2,-0.15,right,64,2021-03-30_15h03.56.516,premup-three_ses-02_part-02_label-phase2,3.2.4,Win32,60,,,,,,,,,,,,,,,,,,,,,,,,,,,,,
left,0.450999975,1,208,1,0,1,0,1,0,1,0,240,16,1,239,1,3,1,stim/31.jpeg,HouseObjects,1,stim/objects/HouseObjects/rug.png,0.5,1,-0.2,0.15,left,64,2021-03-30_15h03.56.516,premup-three_ses-02_part-02_label-phase2,3.2.4,Win32,60,,,,,,,,,,,,,,,,,,,,,,,,,,,,,
left,0.553999901,1,209,1,0,1,0,1,0,1,0,240,145,1,239,2,6,2,stim/62.jpeg,HouseObjects,1,stim/objects/HouseObjects/safetypin2.png,0.7,1,-0.2,0.15,left,64,2021-03-30_15h03.56.516,premup-three_ses-02_part-02_label-phase2,3.2.4,Win32,60,,,,,,,,,,,,,,,,,,,,,,,,,,,,,
left,0.526000023,1,210,1,0,1,0,1,0,1,0,240,230,1,239,3,2,3,stim/23.jpeg,HouseObjects,1,stim/objects/HouseObjects/vacuumcleaner2.png,0.9,2,0.2,0.15,left,64,2021-03-30_15h03.56.516,premup-three_ses-02_part-02_label-phase2,3.2.4,Win32,60,,,,,,,,,,,,,,,,,,,,,,,,,,,,,
right,0.415999889,0,211,1,0,1,0,1,0,1,0,240,53,1,239,1,4,2,stim/42.jpeg,HouseObjects,1,stim/objects/HouseObjects/spraybottle.png,0.5,4,0.2,-0.15,left,64,2021-03-30_15h03.56.516,premup-three_ses-02_part-02_label-phase2,3.2.4,Win32,60,,,,,,,,,,,,,,,,,,,,,,,,,,,,,
left,0.513000011,1,212,1,0,1,0,1,0,1,0,240,211,1,239,3,2,4,stim/24.jpeg,HouseObjects,1,stim/objects/HouseObjects/wateringcan2.png,0.9,3,-0.2,-0.15,left,64,2021-03-30_15h03.56.516,premup-three_ses-02_part-02_label-phase2,3.2.4,Win32,60,,,,,,,,,,,,,,,,,,,,,,,,,,,,,
right,0.47699976,1,213,1,0,1,0,1,0,1,0,240,186,1,239,3,1,3,stim/13.jpeg,Instruments,2,stim/objects/Instruments/trombone2.png,0.9,3,-0.2,-0.15,right,64,2021-03-30_15h03.56.516,premup-three_ses-02_part-02_label-phase2,3.2.4,Win32,60,,,,,,,,,,,,,,,,,,,,,,,,,,,,,
left,0.54399991,1,214,1,0,1,0,1,0,1,0,240,136,1,239,2,6,1,stim/61.jpeg,HouseObjects,1,stim/objects/HouseObjects/rug2.png,0.7,2,0.2,0.15,left,64,2021-03-30_15h03.56.516,premup-three_ses-02_part-02_label-phase2,3.2.4,Win32,60,,,,,,,,,,,,,,,,,,,,,,,,,,,,,
right,0.426000118,1,215,1,0,1,0,1,0,1,0,240,112,1,239,2,5,1,stim/51.jpeg,Instruments,2,stim/objects/Instruments/tuba.png,0.7,2,0.2,0.15,right,64,2021-03-30_15h03.56.516,premup-three_ses-02_part-02_label-phase2,3.2.4,Win32,60,,,,,,,,,,,,,,,,,,,,,,,,,,,,,
left,0.613999844,1,216,1,0,1,0,1,0,1,0,240,43,1,239,1,4,4,stim/44.jpeg,HouseObjects,1,stim/objects/HouseObjects/thermometer.png,0.5,3,-0.2,-0.15,left,64,2021-03-30_15h03.56.516,premup-three_ses-02_part-02_label-phase2,3.2.4,Win32,60,,,,,,,,,,,,,,,,,,,,,,,,,,,,,
left,0.481999874,0,217,1,0,1,0,1,0,1,0,240,158,1,239,2,6,3,stim/63.jpeg,Instruments,2,stim/objects/Instruments/speaker2.png,0.3,3,-0.2,-0.15,right,64,2021-03-30_15h03.56.516,premup-three_ses-02_part-02_label-phase2,3.2.4,Win32,60,,,,,,,,,,,,,,,,,,,,,,,,,,,,,
right,0.536000013,1,218,1,0,1,0,1,0,1,0,240,39,1,239,1,3,4,stim/34.jpeg,Instruments,2,stim/objects/Instruments/tambourine.png,0.5,4,0.2,-0.15,right,64,2021-03-30_15h03.56.516,premup-three_ses-02_part-02_label-phase2,3.2.4,Win32,60,,,,,,,,,,,,,,,,,,,,,,,,,,,,,
left,0.599999905,1,219,1,0,1,0,1,0,1,0,240,49,1,239,1,4,2,stim/42.jpeg,HouseObjects,1,stim/objects/HouseObjects/spraybottle.png,0.5,4,0.2,-0.15,left,64,2021-03-30_15h03.56.516,premup-three_ses-02_part-02_label-phase2,3.2.4,Win32,60,,,,,,,,,,,,,,,,,,,,,,,,,,,,,
left,0.521999836,0,220,1,0,1,0,1,0,1,0,240,70,1,239,1,4,3,stim/43.jpeg,Instruments,2,stim/objects/Instruments/trombone.png,0.5,3,-0.2,-0.15,right,64,2021-03-30_15h03.56.516,premup-three_ses-02_part-02_label-phase2,3.2.4,Win32,60,,,,,,,,,,,,,,,,,,,,,,,,,,,,,
right,0.476000071,1,221,1,0,1,0,1,0,1,0,240,175,1,239,3,1,4,stim/14.jpeg,Instruments,2,stim/objects/Instruments/trumpet2.png,0.9,2,0.2,0.15,right,64,2021-03-30_15h03.56.516,premup-three_ses-02_part-02_label-phase2,3.2.4,Win32,60,,,,,,,,,,,,,,,,,,,,,,,,,,,,,
right,0.652999878,0,222,1,0,1,0,1,0,1,0,240,10,1,239,1,3,3,stim/33.jpeg,HouseObjects,1,stim/objects/HouseObjects/saw.png,0.5,1,-0.2,0.15,left,64,2021-03-30_15h03.56.516,premup-three_ses-02_part-02_label-phase2,3.2.4,Win32,60,,,,,,,,,,,,,,,,,,,,,,,,,,,,,
left,0.644999981,1,223,1,0,1,0,1,0,1,0,240,2,1,239,1,3,3,stim/33.jpeg,HouseObjects,1,stim/objects/HouseObjects/saw.png,0.5,3,-0.2,-0.15,left,64,2021-03-30_15h03.56.516,premup-three_ses-02_part-02_label-phase2,3.2.4,Win32,60,,,,,,,,,,,,,,,,,,,,,,,,,,,,,
left,0.782999992,0,224,1,0,1,0,1,0,1,0,240,78,1,239,1,4,3,stim/43.jpeg,Instruments,2,stim/objects/Instruments/trombone.png,0.5,4,0.2,-0.15,right,64,2021-03-30_15h03.56.516,premup-three_ses-02_part-02_label-phase2,3.2.4,Win32,60,,,,,,,,,,,,,,,,,,,,,,,,,,,,,
left,0.457000017,1,225,1,0,1,0,1,0,1,0,240,228,1,239,3,2,1,stim/21.jpeg,HouseObjects,1,stim/objects/HouseObjects/thread2.png,0.9,1,-0.2,0.15,left,64,2021-03-30_15h03.56.516,premup-three_ses-02_part-02_label-phase2,3.2.4,Win32,60,,,,,,,,,,,,,,,,,,,,,,,,,,,,,
left,0.707000017,0,226,1,0,1,0,1,0,1,0,240,182,1,239,3,1,3,stim/13.jpeg,Instruments,2,stim/objects/Instruments/trombone2.png,0.9,2,0.2,0.15,right,64,2021-03-30_15h03.56.516,premup-three_ses-02_part-02_label-phase2,3.2.4,Win32,60,,,,,,,,,,,,,,,,,,,,,,,,,,,,,
right,0.541000128,1,227,1,0,1,0,1,0,1,0,240,111,1,239,2,5,4,stim/54.jpeg,Instruments,2,stim/objects/Instruments/xylophone.png,0.7,4,0.2,-0.15,right,64,2021-03-30_15h03.56.516,premup-three_ses-02_part-02_label-phase2,3.2.4,Win32,60,,,,,,,,,,,,,,,,,,,,,,,,,,,,,
right,0.532000065,0,228,1,0,1,0,1,0,1,0,240,55,1,239,1,4,4,stim/44.jpeg,HouseObjects,1,stim/objects/HouseObjects/thermometer.png,0.5,2,0.2,0.15,left,64,2021-03-30_15h03.56.516,premup-three_ses-02_part-02_label-phase2,3.2.4,Win32,60,,,,,,,,,,,,,,,,,,,,,,,,,,,,,
right,0.539999962,1,229,1,0,1,0,1,0,1,0,240,106,1,239,2,5,3,stim/53.jpeg,Instruments,2,stim/objects/Instruments/vuvuzela.png,0.7,4,0.2,-0.15,right,64,2021-03-30_15h03.56.516,premup-three_ses-02_part-02_label-phase2,3.2.4,Win32,60,,,,,,,,,,,,,,,,,,,,,,,,,,,,,
left,0.684999704,0,230,1,0,1,0,1,0,1,0,240,71,1,239,1,4,4,stim/44.jpeg,Instruments,2,stim/objects/Instruments/trumpet.png,0.5,3,-0.2,-0.15,right,64,2021-03-30_15h03.56.516,premup-three_ses-02_part-02_label-phase2,3.2.4,Win32,60,,,,,,,,,,,,,,,,,,,,,,,,,,,,,
left,0.532999992,1,231,1,0,1,0,1,0,1,0,240,59,1,239,1,4,4,stim/44.jpeg,HouseObjects,1,stim/objects/HouseObjects/thermometer.png,0.5,2,0.2,0.15,left,64,2021-03-30_15h03.56.516,premup-three_ses-02_part-02_label-phase2,3.2.4,Win32,60,,,,,,,,,,,,,,,,,,,,,,,,,,,,,
right,0.473999739,1,232,1,0,1,0,1,0,1,0,240,25,1,239,1,3,2,stim/32.jpeg,Instruments,2,stim/objects/Instruments/saxophone.png,0.5,3,-0.2,-0.15,right,64,2021-03-30_15h03.56.516,premup-three_ses-02_part-02_label-phase2,3.2.4,Win32,60,,,,,,,,,,,,,,,,,,,,,,,,,,,,,
right,0.552999973,0,233,1,0,1,0,1,0,1,0,240,6,1,239,1,3,3,stim/33.jpeg,HouseObjects,1,stim/objects/HouseObjects/saw.png,0.5,2,0.2,0.15,left,64,2021-03-30_15h03.56.516,premup-three_ses-02_part-02_label-phase2,3.2.4,Win32,60,,,,,,,,,,,,,,,,,,,,,,,,,,,,,
left,0.488999844,1,234,1,0,1,0,1,0,1,0,240,139,1,239,2,6,4,stim/64.jpeg,HouseObjects,1,stim/objects/HouseObjects/scale2.png,0.7,4,0.2,-0.15,left,64,2021-03-30_15h03.56.516,premup-three_ses-02_part-02_label-phase2,3.2.4,Win32,60,,,,,,,,,,,,,,,,,,,,,,,,,,,,,
left,0.519999981,1,235,1,0,1,0,1,0,1,0,240,212,1,239,3,2,1,stim/21.jpeg,HouseObjects,1,stim/objects/HouseObjects/thread2.png,0.9,2,0.2,0.15,left,64,2021-03-30_15h03.56.516,premup-three_ses-02_part-02_label-phase2,3.2.4,Win32,60,,,,,,,,,,,,,,,,,,,,,,,,,,,,,
left,0.577000141,1,236,1,0,1,0,1,0,1,0,240,141,1,239,2,6,2,stim/62.jpeg,HouseObjects,1,stim/objects/HouseObjects/safetypin2.png,0.7,1,-0.2,0.15,left,64,2021-03-30_15h03.56.516,premup-three_ses-02_part-02_label-phase2,3.2.4,Win32,60,,,,,,,,,,,,,,,,,,,,,,,,,,,,,
left,0.465999842,0,237,1,0,1,0,1,0,1,0,240,239,1,239,3,2,4,stim/24.jpeg,Instruments,2,stim/objects/Instruments/xylophone2.png,0.1,3,-0.2,-0.15,right,64,2021-03-30_15h03.56.516,premup-three_ses-02_part-02_label-phase2,3.2.4,Win32,60,,,,,,,,,,,,,,,,,,,,,,,,,,,,,
right,0.437999964,1,238,1,0,1,0,1,0,1,0,240,97,1,239,2,5,2,stim/52.jpeg,Instruments,2,stim/objects/Instruments/violin.png,0.7,3,-0.2,-0.15,right,64,2021-03-30_15h03.56.516,premup-three_ses-02_part-02_label-phase2,3.2.4,Win32,60,,,,,,,,,,,,,,,,,,,,,,,,,,,,,
right,0.495999813,1,239,1,0,1,0,1,0,1,0,240,194,1,239,3,1,3,stim/13.jpeg,Instruments,2,stim/objects/Instruments/trombone2.png,0.9,4,0.2,-0.15,right,64,2021-03-30_15h03.56.516,premup-three_ses-02_part-02_label-phase2,3.2.4,Win32,60,,,,,,,,,,,,,,,,,,,,,,,,,,,,,
left,0.509999752,1,240,1,0,1,0,1,0,1,0,240,229,1,239,3,2,2,stim/22.jpeg,HouseObjects,1,stim/objects/HouseObjects/towel2.png,0.9,3,-0.2,-0.15,left,64,2021-03-30_15h03.56.516,premup-three_ses-02_part-02_label-phase2,3.2.4,Win32,60,,,,,,,,,,,,,,,,,,,,,,,,,,,,,
,,,,1,0,1,0,1,0,,,,,,,,1,,stim/11.jpeg,,,,,,,,,64,2021-03-30_15h03.56.516,premup-three_ses-02_part-02_label-phase2,3.2.4,Win32,60,10,11.80900002,,,1,0,6,0,1,5,Household items,45,55,Music items,45,55,,,,,,,,,,,,,
,,,,1,0,1,0,1,0,,,,,,,,3,,stim/31.jpeg,,,,,,,,,64,2021-03-30_15h03.56.516,premup-three_ses-02_part-02_label-phase2,3.2.4,Win32,60,40,9.031000137,,,1,0,6,2,1,5,Household items,65,75,Music items,25,35,,,,,,,,,,,,,
,,,,1,0,1,0,1,0,,,,,,,,6,,stim/61.jpeg,,,,,,,,,64,2021-03-30_15h03.56.516,premup-three_ses-02_part-02_label-phase2,3.2.4,Win32,60,40,4.798000097,,,1,0,6,5,1,5,Household items,5,15,Music items,85,95,,,,,,,,,,,,,
,,,,1,0,1,0,1,0,,,,,,,,4,,stim/41.jpeg,,,,,,,,,64,2021-03-30_15h03.56.516,premup-three_ses-02_part-02_label-phase2,3.2.4,Win32,60,20,4.78399992,,,1,0,6,3,1,5,Household items,65,75,Music items,25,35,,,,,,,,,,,,,
,,,,1,0,1,0,1,0,,,,,,,,5,,stim/51.jpeg,,,,,,,,,64,2021-03-30_15h03.56.516,premup-three_ses-02_part-02_label-phase2,3.2.4,Win32,60,90,6.506000042,,,1,0,6,4,1,5,Music items,5,15,Household items,85,95,,,,,,,,,,,,,
,,,,1,0,1,0,1,0,,,,,,,,2,,stim/21.jpeg,,,,,,,,,64,2021-03-30_15h03.56.516,premup-three_ses-02_part-02_label-phase2,3.2.4,Win32,60,10,4.437000036,,,1,0,6,1,1,5,Music items,45,55,Household items,45,55,,,,,,,,,,,,,
,,,,1,0,1,0,1,0,,,,,,,,,,,,,,,,,,,64,2021-03-30_15h03.56.516,premup-three_ses-02_part-02_label-phase2,3.2.4,Win32,60,,,,,,,,,,,,,,,,,,,,,,,,,,,,,
left,0.750999928,1,241,,,,,,,,,,,,,3,2,4,stim/24.jpeg,HouseObjects,1,stim/objects/HouseObjects/dustpan.png,0.9,2,0.2,0.15,left,64,2021-03-30_15h03.56.516,premup-three_ses-02_part-02_label-phase2,3.2.4,Win32,60,,,,,,,,,,,,,,,,,1,0,330,301,1,329,2,,,,,,
left,0.5849998,1,242,,,,,,,,,,,,,3,2,1,stim/21.jpeg,HouseObjects,1,stim/objects/HouseObjects/doormat.png,0.9,3,-0.2,-0.15,left,64,2021-03-30_15h03.56.516,premup-three_ses-02_part-02_label-phase2,3.2.4,Win32,60,,,,,,,,,,,,,,,,,1,0,330,270,1,329,2,,,,,,
left,0.501999855,1,243,,,,,,,,,,,,,3,2,3,stim/23.jpeg,HouseObjects,1,stim/objects/HouseObjects/knife2.png,0.9,3,-0.2,-0.15,left,64,2021-03-30_15h03.56.516,premup-three_ses-02_part-02_label-phase2,3.2.4,Win32,60,,,,,,,,,,,,,,,,,1,0,330,312,1,329,1,,,,,,
left,0.592999935,1,244,,,,,,,,,,,,,3,2,4,stim/24.jpeg,HouseObjects,1,stim/objects/HouseObjects/glass.png,0.9,1,-0.2,0.15,left,64,2021-03-30_15h03.56.516,premup-three_ses-02_part-02_label-phase2,3.2.4,Win32,60,,,,,,,,,,,,,,,,,1,0,330,249,1,329,2,,,,,,
right,0.761999846,1,245,,,,,,,,,,,,,3,1,3,stim/13.jpeg,Instruments,2,stim/objects/Instruments/flute2.png,0.9,3,-0.2,-0.15,right,64,2021-03-30_15h03.56.516,premup-three_ses-02_part-02_label-phase2,3.2.4,Win32,60,,,,,,,,,,,,,,,,,1,0,330,220,1,329,1,,,,,,
right,0.568000078,1,246,,,,,,,,,,,,,3,1,3,stim/13.jpeg,Instruments,2,stim/objects/Instruments/frenchhorn.png,0.9,1,-0.2,0.15,right,64,2021-03-30_15h03.56.516,premup-three_ses-02_part-02_label-phase2,3.2.4,Win32,60,,,,,,,,,,,,,,,,,1,0,330,192,1,329,2,,,,,,
right,0.663999796,1,247,,,,,,,,,,,,,3,1,4,stim/14.jpeg,Instruments,2,stim/objects/Instruments/flutetrans.png,0.9,4,0.2,-0.15,right,64,2021-03-30_15h03.56.516,premup-three_ses-02_part-02_label-phase2,3.2.4,Win32,60,,,,,,,,,,,,,,,,,1,0,330,141,1,329,2,,,,,,
right,0.580999851,1,248,,,,,,,,,,,,,3,1,1,stim/11.jpeg,Instruments,2,stim/objects/Instruments/frenchhorn2.png,0.9,1,-0.2,0.15,right,64,2021-03-30_15h03.56.516,premup-three_ses-02_part-02_label-phase2,3.2.4,Win32,60,,,,,,,,,,,,,,,,,1,0,330,222,1,329,1,,,,,,
left,0.855999947,1,249,,,,,,,,,,,,,2,6,4,stim/64.jpeg,HouseObjects,1,stim/objects/HouseObjects/cushion.png,0.7,3,-0.2,-0.15,left,64,2021-03-30_15h03.56.516,premup-three_ses-02_part-02_label-phase2,3.2.4,Win32,60,,,,,,,,,,,,,,,,,1,0,330,98,1,329,2,,,,,,
right,0.50999999,1,250,,,,,,,,,,,,,3,1,4,stim/14.jpeg,Instruments,2,stim/objects/Instruments/flute.png,0.9,4,0.2,-0.15,right,64,2021-03-30_15h03.56.516,premup-three_ses-02_part-02_label-phase2,3.2.4,Win32,60,,,,,,,,,,,,,,,,,1,0,330,145,1,329,2,,,,,,
left,0.563999891,0,251,,,,,,,,,,,,,2,6,4,stim/64.jpeg,Instruments,2,stim/objects/Instruments/doublebass2.png,0.3,2,0.2,0.15,right,64,2021-03-30_15h03.56.516,premup-three_ses-02_part-02_label-phase2,3.2.4,Win32,60,,,,,,,,,,,,,,,,,1,0,330,126,1,329,1,,,,,,
right,0.529999971,1,252,,,,,,,,,,,,,3,1,2,stim/12.jpeg,Instruments,2,stim/objects/Instruments/flute.png,0.9,2,0.2,0.15,right,64,2021-03-30_15h03.56.516,premup-three_ses-02_part-02_label-phase2,3.2.4,Win32,60,,,,,,,,,,,,,,,,,1,0,330,195,1,329,2,,,,,,
right,0.547999859,1,253,,,,,,,,,,,,,3,1,3,stim/13.jpeg,Instruments,2,stim/objects/Instruments/flutetrans.png,0.9,2,0.2,0.15,right,64,2021-03-30_15h03.56.516,premup-three_ses-02_part-02_label-phase2,3.2.4,Win32,60,,,,,,,,,,,,,,,,,1,0,330,196,1,329,2,,,,,,
left,0.488999844,1,254,,,,,,,,,,,,,3,2,4,stim/24.jpeg,HouseObjects,1,stim/objects/HouseObjects/dustpan.png,0.9,1,-0.2,0.15,left,64,2021-03-30_15h03.56.516,premup-three_ses-02_part-02_label-phase2,3.2.4,Win32,60,,,,,,,,,,,,,,,,,1,0,330,241,1,329,2,,,,,,
right,0.815999985,1,255,,,,,,,,,,,,,2,6,2,stim/62.jpeg,Instruments,2,stim/objects/Instruments/electricdrumset2.png,0.3,4,0.2,-0.15,right,64,2021-03-30_15h03.56.516,premup-three_ses-02_part-02_label-phase2,3.2.4,Win32,60,,,,,,,,,,,,,,,,,1,0,330,128,1,329,1,,,,,,
left,0.671999931,0,256,,,,,,,,,,,,,3,1,3,stim/13.jpeg,Instruments,2,stim/objects/Instruments/grandpiano.png,0.9,4,0.2,-0.15,right,64,2021-03-30_15h03.56.516,premup-three_ses-02_part-02_label-phase2,3.2.4,Win32,60,,,,,,,,,,,,,,,,,1,0,330,204,1,329,2,,,,,,
left,0.607999802,1,257,,,,,,,,,,,,,3,2,2,stim/22.jpeg,HouseObjects,1,stim/objects/HouseObjects/garbagebin.png,0.9,2,0.2,0.15,left,64,2021-03-30_15h03.56.516,premup-three_ses-02_part-02_label-phase2,3.2.4,Win32,60,,,,,,,,,,,,,,,,,1,0,330,243,1,329,2,,,,,,
right,0.523999929,1,258,,,,,,,,,,,,,3,1,1,stim/11.jpeg,Instruments,2,stim/objects/Instruments/flutetrans.png,0.9,2,0.2,0.15,right,64,2021-03-30_15h03.56.516,premup-three_ses-02_part-02_label-phase2,3.2.4,Win32,60,,,,,,,,,,,,,,,,,1,0,330,206,1,329,2,,,,,,
right,0.496000051,1,259,,,,,,,,,,,,,2,5,3,stim/53.jpeg,Instruments,2,stim/objects/Instruments/drums.png,0.7,2,0.2,0.15,right,64,2021-03-30_15h03.56.516,premup-three_ses-02_part-02_label-phase2,3.2.4,Win32,60,,,,,,,,,,,,,,,,,1,0,330,82,1,329,2,,,,,,
right,0.535999775,0,260,,,,,,,,,,,,,2,5,2,stim/52.jpeg,HouseObjects,1,stim/objects/HouseObjects/ashtray2.png,0.3,3,-0.2,-0.15,left,64,2021-03-30_15h03.56.516,premup-three_ses-02_part-02_label-phase2,3.2.4,Win32,60,,,,,,,,,,,,,,,,,1,0,330,65,1,329,1,,,,,,
left,0.592999935,1,261,,,,,,,,,,,,,3,2,2,stim/22.jpeg,HouseObjects,1,stim/objects/HouseObjects/dustpan.png,0.9,1,-0.2,0.15,left,64,2021-03-30_15h03.56.516,premup-three_ses-02_part-02_label-phase2,3.2.4,Win32,60,,,,,,,,,,,,,,,,,1,0,330,271,1,329,2,,,,,,
right,0.76699996,1,262,,,,,,,,,,,,,2,6,1,stim/61.jpeg,Instruments,2,stim/objects/Instruments/clarinet2.png,0.3,3,-0.2,-0.15,right,64,2021-03-30_15h03.56.516,premup-three_ses-02_part-02_label-phase2,3.2.4,Win32,60,,,,,,,,,,,,,,,,,1,0,330,123,1,329,1,,,,,,
,,0,263,,,,,,,,,,,,,3,1,2,stim/12.jpeg,Instruments,2,stim/objects/Instruments/grandpiano.png,0.9,3,-0.2,-0.15,right,64,2021-03-30_15h03.56.516,premup-three_ses-02_part-02_label-phase2,3.2.4,Win32,60,,,,,,,,,,,,,,,,,1,0,330,219,1,329,2,,,,,,
,,0,264,,,,,,,,,,,,,3,1,2,stim/12.jpeg,Instruments,2,stim/objects/Instruments/frenchhorn.png,0.9,2,0.2,0.15,right,64,2021-03-30_15h03.56.516,premup-three_ses-02_part-02_label-phase2,3.2.4,Win32,60,,,,,,,,,,,,,,,,,1,0,330,207,1,329,2,,,,,,
left,0.479999781,1,265,,,,,,,,,,,,,3,2,2,stim/22.jpeg,HouseObjects,1,stim/objects/HouseObjects/garbagebin.png,0.9,1,-0.2,0.15,left,64,2021-03-30_15h03.56.516,premup-three_ses-02_part-02_label-phase2,3.2.4,Win32,60,,,,,,,,,,,,,,,,,1,0,330,263,1,329,2,,,,,,
left,0.478999853,1,266,,,,,,,,,,,,,3,2,3,stim/23.jpeg,HouseObjects,1,stim/objects/HouseObjects/flyswatter.png,0.9,1,-0.2,0.15,left,64,2021-03-30_15h03.56.516,premup-three_ses-02_part-02_label-phase2,3.2.4,Win32,60,,,,,,,,,,,,,,,,,1,0,330,272,1,329,2,,,,,,
left,0.528000116,0,267,,,,,,,,,,,,,2,6,3,stim/63.jpeg,Instruments,2,stim/objects/Instruments/cymbal2.png,0.3,3,-0.2,-0.15,right,64,2021-03-30_15h03.56.516,premup-three_ses-02_part-02_label-phase2,3.2.4,Win32,60,,,,,,,,,,,,,,,,,1,0,330,125,1,329,1,,,,,,
left,0.446999788,1,268,,,,,,,,,,,,,3,2,4,stim/24.jpeg,HouseObjects,1,stim/objects/HouseObjects/dustpan.png,0.9,4,0.2,-0.15,left,64,2021-03-30_15h03.56.516,premup-three_ses-02_part-02_label-phase2,3.2.4,Win32,60,,,,,,,,,,,,,,,,,1,0,330,261,1,329,2,,,,,,
left,0.47300005,1,269,,,,,,,,,,,,,3,2,2,stim/22.jpeg,HouseObjects,1,stim/objects/HouseObjects/glass.png,0.9,2,0.2,0.15,left,64,2021-03-30_15h03.56.516,premup-three_ses-02_part-02_label-phase2,3.2.4,Win32,60,,,,,,,,,,,,,,,,,1,0,330,299,1,329,2,,,,,,
,,0,270,,,,,,,,,,,,,3,2,1,stim/21.jpeg,HouseObjects,1,stim/objects/HouseObjects/garbagebin.png,0.9,1,-0.2,0.15,left,64,2021-03-30_15h03.56.516,premup-three_ses-02_part-02_label-phase2,3.2.4,Win32,60,,,,,,,,,,,,,,,,,1,0,330,258,1,329,2,,,,,,
right,0.656999826,1,271,,,,,,,,,,,,,3,1,3,stim/13.jpeg,Instruments,2,stim/objects/Instruments/flute.png,0.9,2,0.2,0.15,right,64,2021-03-30_15h03.56.516,premup-three_ses-02_part-02_label-phase2,3.2.4,Win32,60,,,,,,,,,,,,,,,,,1,0,330,160,1,329,2,,,,,,
left,0.498999834,1,272,,,,,,,,,,,,,3,2,4,stim/24.jpeg,HouseObjects,1,stim/objects/HouseObjects/doormat.png,0.9,2,0.2,0.15,left,64,2021-03-30_15h03.56.516,premup-three_ses-02_part-02_label-phase2,3.2.4,Win32,60,,,,,,,,,,,,,,,,,1,0,330,245,1,329,2,,,,,,
left,0.399999857,1,273,,,,,,,,,,,,,3,2,2,stim/22.jpeg,HouseObjects,1,stim/objects/HouseObjects/dustpan.png,0.9,1,-0.2,0.15,left,64,2021-03-30_15h03.56.516,premup-three_ses-02_part-02_label-phase2,3.2.4,Win32,60,,,,,,,,,,,,,,,,,1,0,330,251,1,329,2,,,,,,
left,0.563999891,1,274,,,,,,,,,,,,,3,2,3,stim/23.jpeg,HouseObjects,1,stim/objects/HouseObjects/glass.png,0.9,1,-0.2,0.15,left,64,2021-03-30_15h03.56.516,premup-three_ses-02_part-02_label-phase2,3.2.4,Win32,60,,,,,,,,,,,,,,,,,1,0,330,284,1,329,2,,,,,,
right,0.532999754,1,275,,,,,,,,,,,,,3,1,2,stim/12.jpeg,Instruments,2,stim/objects/Instruments/gong.png,0.9,1,-0.2,0.15,right,64,2021-03-30_15h03.56.516,premup-three_ses-02_part-02_label-phase2,3.2.4,Win32,60,,,,,,,,,,,,,,,,,1,0,330,163,1,329,2,,,,,,
right,0.595999956,1,276,,,,,,,,,,,,,1,4,4,stim/44.jpeg,Instruments,2,stim/objects/Instruments/musicsheet.png,0.5,2,0.2,0.15,right,64,2021-03-30_15h03.56.516,premup-three_ses-02_part-02_label-phase2,3.2.4,Win32,60,,,,,,,,,,,,,,,,,1,0,330,59,1,329,1,,,,,,
,,0,277,,,,,,,,,,,,,1,4,4,stim/44.jpeg,HouseObjects,1,stim/objects/HouseObjects/blender.png,0.5,2,0.2,0.15,left,64,2021-03-30_15h03.56.516,premup-three_ses-02_part-02_label-phase2,3.2.4,Win32,60,,,,,,,,,,,,,,,,,1,0,330,35,1,329,2,,,,,,
left,0.446000099,1,278,,,,,,,,,,,,,3,2,4,stim/24.jpeg,HouseObjects,1,stim/objects/HouseObjects/doormat.png,0.9,3,-0.2,-0.15,left,64,2021-03-30_15h03.56.516,premup-three_ses-02_part-02_label-phase2,3.2.4,Win32,60,,,,,,,,,,,,,,,,,1,0,330,285,1,329,2,,,,,,
left,0.494999886,0,279,,,,,,,,,,,,,3,2,2,stim/22.jpeg,Instruments,2,stim/objects/Instruments/metronome2.png,0.1,3,-0.2,-0.15,right,64,2021-03-30_15h03.56.516,premup-three_ses-02_part-02_label-phase2,3.2.4,Win32,60,,,,,,,,,,,,,,,,,1,0,330,323,1,329,1,,,,,,
left,0.465999842,1,280,,,,,,,,,,,,,3,2,2,stim/22.jpeg,HouseObjects,1,stim/objects/HouseObjects/key2.png,0.9,3,-0.2,-0.15,left,64,2021-03-30_15h03.56.516,premup-three_ses-02_part-02_label-phase2,3.2.4,Win32,60,,,,,,,,,,,,,,,,,1,0,330,311,1,329,1,,,,,,
left,0.437000036,1,281,,,,,,,,,,,,,3,2,4,stim/24.jpeg,HouseObjects,1,stim/objects/HouseObjects/garbagebin.png,0.9,1,-0.2,0.15,left,64,2021-03-30_15h03.56.516,premup-three_ses-02_part-02_label-phase2,3.2.4,Win32,60,,,,,,,,,,,,,,,,,1,0,330,273,1,329,2,,,,,,
left,0.466999769,1,282,,,,,,,,,,,,,3,2,1,stim/21.jpeg,HouseObjects,1,stim/objects/HouseObjects/glass.png,0.9,4,0.2,-0.15,left,64,2021-03-30_15h03.56.516,premup-three_ses-02_part-02_label-phase2,3.2.4,Win32,60,,,,,,,,,,,,,,,,,1,0,330,234,1,329,2,,,,,,
right,0.746000051,1,283,,,,,,,,,,,,,2,5,1,stim/51.jpeg,Instruments,2,stim/objects/Instruments/drums.png,0.7,2,0.2,0.15,right,64,2021-03-30_15h03.56.516,premup-three_ses-02_part-02_label-phase2,3.2.4,Win32,60,,,,,,,,,,,,,,,,,1,0,330,72,1,329,2,,,,,,
left,0.530999899,0,284,,,,,,,,,,,,,3,2,3,stim/23.jpeg,Instruments,2,stim/objects/Instruments/pipepiano2.png,0.1,3,-0.2,-0.15,right,64,2021-03-30_15h03.56.516,premup-three_ses-02_part-02_label-phase2,3.2.4,Win32,60,,,,,,,,,,,,,,,,,1,0,330,328,1,329,1,,,,,,
left,0.629999876,1,285,,,,,,,,,,,,,2,6,1,stim/61.jpeg,HouseObjects,1,stim/objects/HouseObjects/dishsoap2.png,0.7,1,-0.2,0.15,left,64,2021-03-30_15h03.56.516,premup-three_ses-02_part-02_label-phase2,3.2.4,Win32,60,,,,,,,,,,,,,,,,,1,0,330,119,1,329,1,,,,,,
right,0.595000029,1,286,,,,,,,,,,,,,3,1,2,stim/12.jpeg,Instruments,2,stim/objects/Instruments/flutetrans.png,0.9,1,-0.2,0.15,right,64,2021-03-30_15h03.56.516,premup-three_ses-02_part-02_label-phase2,3.2.4,Win32,60,,,,,,,,,,,,,,,,,1,0,330,211,1,329,2,,,,,,
left,0.548000097,1,287,,,,,,,,,,,,,3,2,3,stim/23.jpeg,HouseObjects,1,stim/objects/HouseObjects/glass.png,0.9,1,-0.2,0.15,left,64,2021-03-30_15h03.56.516,premup-three_ses-02_part-02_label-phase2,3.2.4,Win32,60,,,,,,,,,,,,,,,,,1,0,330,244,1,329,2,,,,,,
left,0.65199995,1,288,,,,,,,,,,,,,3,2,2,stim/22.jpeg,HouseObjects,1,stim/objects/HouseObjects/doormat.png,0.9,2,0.2,0.15,left,64,2021-03-30_15h03.56.516,premup-three_ses-02_part-02_label-phase2,3.2.4,Win32,60,,,,,,,,,,,,,,,,,1,0,330,235,1,329,2,,,,,,
right,0.575999975,0,289,,,,,,,,,,,,,1,4,3,stim/43.jpeg,HouseObjects,1,stim/objects/HouseObjects/bucket.png,0.5,3,-0.2,-0.15,left,64,2021-03-30_15h03.56.516,premup-three_ses-02_part-02_label-phase2,3.2.4,Win32,60,,,,,,,,,,,,,,,,,1,0,330,38,1,329,2,,,,,,
left,0.461999893,1,290,,,,,,,,,,,,,3,2,3,stim/23.jpeg,HouseObjects,1,stim/objects/HouseObjects/dustpan.png,0.9,4,0.2,-0.15,left,64,2021-03-30_15h03.56.516,premup-three_ses-02_part-02_label-phase2,3.2.4,Win32,60,,,,,,,,,,,,,,,,,1,0,330,296,1,329,2,,,,,,
left,0.836999893,0,291,,,,,,,,,,,,,3,2,2,stim/22.jpeg,Instruments,2,stim/objects/Instruments/panflute2.png,0.1,1,-0.2,0.15,right,64,2021-03-30_15h03.56.516,premup-three_ses-02_part-02_label-phase2,3.2.4,Win32,60,,,,,,,,,,,,,,,,,1,0,330,327,1,329,1,,,,,,
right,0.447000027,1,292,,,,,,,,,,,,,3,1,2,stim/12.jpeg,Instruments,2,stim/objects/Instruments/flute.png,0.9,4,0.2,-0.15,right,64,2021-03-30_15h03.56.516,premup-three_ses-02_part-02_label-phase2,3.2.4,Win32,60,,,,,,,,,,,,,,,,,1,0,330,155,1,329,2,,,,,,
right,0.82799983,1,293,,,,,,,,,,,,,3,1,4,stim/14.jpeg,Instruments,2,stim/objects/Instruments/flutetrans.png,0.9,1,-0.2,0.15,right,64,2021-03-30_15h03.56.516,premup-three_ses-02_part-02_label-phase2,3.2.4,Win32,60,,,,,,,,,,,,,,,,,1,0,330,201,1,329,2,,,,,,
,,0,294,,,,,,,,,,,,,2,6,1,stim/61.jpeg,HouseObjects,1,stim/objects/HouseObjects/coffee.png,0.7,1,-0.2,0.15,left,64,2021-03-30_15h03.56.516,premup-three_ses-02_part-02_label-phase2,3.2.4,Win32,60,,,,,,,,,,,,,,,,,1,0,330,107,1,329,2,,,,,,
right,0.532999992,1,295,,,,,,,,,,,,,3,1,4,stim/14.jpeg,Instruments,2,stim/objects/Instruments/grandpiano.png,0.9,4,0.2,-0.15,right,64,2021-03-30_15h03.56.516,premup-three_ses-02_part-02_label-phase2,3.2.4,Win32,60,,,,,,,,,,,,,,,,,1,0,330,149,1,329,2,,,,,,
right,0.605000019,1,296,,,,,,,,,,,,,2,5,2,stim/52.jpeg,Instruments,2,stim/objects/Instruments/doublebass.png,0.7,2,0.2,0.15,right,64,2021-03-30_15h03.56.516,premup-three_ses-02_part-02_label-phase2,3.2.4,Win32,60,,,,,,,,,,,,,,,,,1,0,330,81,1,329,2,,,,,,
right,0.664999962,1,297,,,,,,,,,,,,,1,4,2,stim/42.jpeg,Instruments,2,stim/objects/Instruments/clarinet.png,0.5,2,0.2,0.15,right,64,2021-03-30_15h03.56.516,premup-three_ses-02_part-02_label-phase2,3.2.4,Win32,60,,,,,,,,,,,,,,,,,1,0,330,53,1,329,2,,,,,,
left,0.621999979,0,298,,,,,,,,,,,,,2,6,1,stim/61.jpeg,Instruments,2,stim/objects/Instruments/drums2.png,0.3,3,-0.2,-0.15,right,64,2021-03-30_15h03.56.516,premup-three_ses-02_part-02_label-phase2,3.2.4,Win32,60,,,,,,,,,,,,,,,,,1,0,330,127,1,329,1,,,,,,
right,0.59499979,0,299,,,,,,,,,,,,,1,4,1,stim/41.jpeg,HouseObjects,1,stim/objects/HouseObjects/match.png,0.5,1,-0.2,0.15,left,64,2021-03-30_15h03.56.516,premup-three_ses-02_part-02_label-phase2,3.2.4,Win32,60,,,,,,,,,,,,,,,,,1,0,330,44,1,329,1,,,,,,
,,0,300,,,,,,,,,,,,,2,6,1,stim/61.jpeg,HouseObjects,1,stim/objects/HouseObjects/clothesdryingrack.png,0.7,2,0.2,0.15,left,64,2021-03-30_15h03.56.516,premup-three_ses-02_part-02_label-phase2,3.2.4,Win32,60,,,,,,,,,,,,,,,,,1,0,330,95,1,329,2,,,,,,
left,0.812999964,0,301,,,,,,,,,,,,,1,4,1,stim/41.jpeg,Instruments,2,stim/objects/Instruments/chime.png,0.5,2,0.2,0.15,right,64,2021-03-30_15h03.56.516,premup-three_ses-02_part-02_label-phase2,3.2.4,Win32,60,,,,,,,,,,,,,,,,,1,0,330,52,1,329,2,,,,,,
,,0,302,,,,,,,,,,,,,2,5,1,stim/51.jpeg,HouseObjects,1,stim/objects/HouseObjects/rubbergloves.png,0.3,1,-0.2,0.15,left,64,2021-03-30_15h03.56.516,premup-three_ses-02_part-02_label-phase2,3.2.4,Win32,60,,,,,,,,,,,,,,,,,1,0,330,64,1,329,1,,,,,,
left,0.487999916,1,303,,,,,,,,,,,,,3,2,1,stim/21.jpeg,HouseObjects,1,stim/objects/HouseObjects/flyswatter.png,0.9,3,-0.2,-0.15,left,64,2021-03-30_15h03.56.516,premup-three_ses-02_part-02_label-phase2,3.2.4,Win32,60,,,,,,,,,,,,,,,,,1,0,330,302,1,329,2,,,,,,
left,0.579999924,1,304,,,,,,,,,,,,,3,2,1,stim/21.jpeg,HouseObjects,1,stim/objects/HouseObjects/flyswatter.png,0.9,1,-0.2,0.15,left,64,2021-03-30_15h03.56.516,premup-three_ses-02_part-02_label-phase2,3.2.4,Win32,60,,,,,,,,,,,,,,,,,1,0,330,242,1,329,2,,,,,,
,,0,305,,,,,,,,,,,,,1,4,2,stim/42.jpeg,Instruments,2,stim/objects/Instruments/bassguitar.png,0.5,4,0.2,-0.15,right,64,2021-03-30_15h03.56.516,premup-three_ses-02_part-02_label-phase2,3.2.4,Win32,60,,,,,,,,,,,,,,,,,1,0,330,45,1,329,2,,,,,,
right,0.515999794,1,306,,,,,,,,,,,,,3,1,3,stim/13.jpeg,Instruments,2,stim/objects/Instruments/grandpiano.png,0.9,1,-0.2,0.15,right,64,2021-03-30_15h03.56.516,premup-three_ses-02_part-02_label-phase2,3.2.4,Win32,60,,,,,,,,,,,,,,,,,1,0,330,164,1,329,2,,,,,,
left,0.5,0,307,,,,,,,,,,,,,3,2,4,stim/24.jpeg,Instruments,2,stim/objects/Instruments/musicstand2.png,0.1,3,-0.2,-0.15,right,64,2021-03-30_15h03.56.516,premup-three_ses-02_part-02_label-phase2,3.2.4,Win32,60,,,,,,,,,,,,,,,,,1,0,330,325,1,329,1,,,,,,
left,0.473999977,1,308,,,,,,,,,,,,,3,2,3,stim/23.jpeg,HouseObjects,1,stim/objects/HouseObjects/flyswatter.png,0.9,4,0.2,-0.15,left,64,2021-03-30_15h03.56.516,premup-three_ses-02_part-02_label-phase2,3.2.4,Win32,60,,,,,,,,,,,,,,,,,1,0,330,292,1,329,2,,,,,,
left,0.480000019,1,309,,,,,,,,,,,,,3,2,1,stim/21.jpeg,HouseObjects,1,stim/objects/HouseObjects/glass.png,0.9,1,-0.2,0.15,left,64,2021-03-30_15h03.56.516,premup-three_ses-02_part-02_label-phase2,3.2.4,Win32,60,,,,,,,,,,,,,,,,,1,0,330,294,1,329,2,,,,,,
left,0.773999929,1,310,,,,,,,,,,,,,3,2,1,stim/21.jpeg,HouseObjects,1,stim/objects/HouseObjects/flyswatter.png,0.9,3,-0.2,-0.15,left,64,2021-03-30_15h03.56.516,premup-three_ses-02_part-02_label-phase2,3.2.4,Win32,60,,,,,,,,,,,,,,,,,1,0,330,282,1,329,2,,,,,,
left,0.528999805,1,311,,,,,,,,,,,,,3,2,2,stim/22.jpeg,HouseObjects,1,stim/objects/HouseObjects/flyswatter.png,0.9,1,-0.2,0.15,left,64,2021-03-30_15h03.56.516,premup-three_ses-02_part-02_label-phase2,3.2.4,Win32,60,,,,,,,,,,,,,,,,,1,0,330,287,1,329,2,,,,,,
right,0.642999887,1,312,,,,,,,,,,,,,3,1,4,stim/14.jpeg,Instruments,2,stim/objects/Instruments/frenchhorn.png,0.9,1,-0.2,0.15,right,64,2021-03-30_15h03.56.516,premup-three_ses-02_part-02_label-phase2,3.2.4,Win32,60,,,,,,,,,,,,,,,,,1,0,330,177,1,329,2,,,,,,
right,0.621999979,0,313,,,,,,,,,,,,,1,4,4,stim/44.jpeg,HouseObjects,1,stim/objects/HouseObjects/lintroller.png,0.5,1,-0.2,0.15,left,64,2021-03-30_15h03.56.516,premup-three_ses-02_part-02_label-phase2,3.2.4,Win32,60,,,,,,,,,,,,,,,,,1,0,330,43,1,329,1,,,,,,
right,0.521000147,1,314,,,,,,,,,,,,,2,5,2,stim/52.jpeg,Instruments,2,stim/objects/Instruments/electricdrumset.png,0.7,3,-0.2,-0.15,right,64,2021-03-30_15h03.56.516,premup-three_ses-02_part-02_label-phase2,3.2.4,Win32,60,,,,,,,,,,,,,,,,,1,0,330,73,1,329,2,,,,,,
right,0.552999973,1,315,,,,,,,,,,,,,2,5,1,stim/51.jpeg,Instruments,2,stim/objects/Instruments/cymbal.png,0.7,3,-0.2,-0.15,right,64,2021-03-30_15h03.56.516,premup-three_ses-02_part-02_label-phase2,3.2.4,Win32,60,,,,,,,,,,,,,,,,,1,0,330,80,1,329,2,,,,,,
right,0.54399991,0,316,,,,,,,,,,,,,1,3,2,stim/32.jpeg,HouseObjects,1,stim/objects/HouseObjects/bleachbottle.png,0.5,3,-0.2,-0.15,left,64,2021-03-30_15h03.56.516,premup-three_ses-02_part-02_label-phase2,3.2.4,Win32,60,,,,,,,,,,,,,,,,,1,0,330,9,1,329,2,,,,,,
right,0.620999813,1,317,,,,,,,,,,,,,3,1,2,stim/12.jpeg,Instruments,2,stim/objects/Instruments/flute.png,0.9,2,0.2,0.15,right,64,2021-03-30_15h03.56.516,premup-three_ses-02_part-02_label-phase2,3.2.4,Win32,60,,,,,,,,,,,,,,,,,1,0,330,175,1,329,2,,,,,,
left,0.767999887,1,318,,,,,,,,,,,,,1,4,2,stim/42.jpeg,HouseObjects,1,stim/objects/HouseObjects/key.png,0.5,4,0.2,-0.15,left,64,2021-03-30_15h03.56.516,premup-three_ses-02_part-02_label-phase2,3.2.4,Win32,60,,,,,,,,,,,,,,,,,1,0,330,41,1,329,1,,,,,,
left,0.486000061,1,319,,,,,,,,,,,,,3,2,1,stim/21.jpeg,HouseObjects,1,stim/objects/HouseObjects/flyswatter.png,0.9,1,-0.2,0.15,left,64,2021-03-30_15h03.56.516,premup-three_ses-02_part-02_label-phase2,3.2.4,Win32,60,,,,,,,,,,,,,,,,,1,0,330,262,1,329,2,,,,,,
right,0.486999989,1,320,,,,,,,,,,,,,3,1,3,stim/13.jpeg,Instruments,2,stim/objects/Instruments/gong.png,0.9,4,0.2,-0.15,right,64,2021-03-30_15h03.56.516,premup-three_ses-02_part-02_label-phase2,3.2.4,Win32,60,,,,,,,,,,,,,,,,,1,0,330,148,1,329,2,,,,,,
right,0.706999779,1,321,,,,,,,,,,,,,2,5,2,stim/52.jpeg,Instruments,2,stim/objects/Instruments/banjo2.png,0.7,1,-0.2,0.15,right,64,2021-03-30_15h03.56.516,premup-three_ses-02_part-02_label-phase2,3.2.4,Win32,60,,,,,,,,,,,,,,,,,1,0,330,93,1,329,1,,,,,,
left,0.539999962,1,322,,,,,,,,,,,,,2,6,2,stim/62.jpeg,HouseObjects,1,stim/objects/HouseObjects/clothesdryingrack.png,0.7,4,0.2,-0.15,left,64,2021-03-30_15h03.56.516,premup-three_ses-02_part-02_label-phase2,3.2.4,Win32,60,,,,,,,,,,,,,,,,,1,0,330,100,1,329,2,,,,,,
right,0.617000103,1,323,,,,,,,,,,,,,3,1,1,stim/11.jpeg,Instruments,2,stim/objects/Instruments/grandpiano.png,0.9,3,-0.2,-0.15,right,64,2021-03-30_15h03.56.516,premup-three_ses-02_part-02_label-phase2,3.2.4,Win32,60,,,,,,,,,,,,,,,,,1,0,330,194,1,329,2,,,,,,
,,0,324,,,,,,,,,,,,,1,4,3,stim/43.jpeg,HouseObjects,1,stim/objects/HouseObjects/clock.png,0.5,1,-0.2,0.15,left,64,2021-03-30_15h03.56.516,premup-three_ses-02_part-02_label-phase2,3.2.4,Win32,60,,,,,,,,,,,,,,,,,1,0,330,34,1,329,2,,,,,,
,,0,325,,,,,,,,,,,,,3,1,4,stim/14.jpeg,HouseObjects,1,stim/objects/HouseObjects/handbrush2.png,0.1,2,0.2,0.15,left,64,2021-03-30_15h03.56.516,premup-three_ses-02_part-02_label-phase2,3.2.4,Win32,60,,,,,,,,,,,,,,,,,1,0,330,137,1,329,1,,,,,,
right,0.495000124,1,326,,,,,,,,,,,,,3,1,4,stim/14.jpeg,Instruments,2,stim/objects/Instruments/guitarcase2.png,0.9,4,0.2,-0.15,right,64,2021-03-30_15h03.56.516,premup-three_ses-02_part-02_label-phase2,3.2.4,Win32,60,,,,,,,,,,,,,,,,,1,0,330,225,1,329,1,,,,,,
left,0.481999874,1,327,,,,,,,,,,,,,3,2,1,stim/21.jpeg,HouseObjects,1,stim/objects/HouseObjects/remote2.png,0.9,2,0.2,0.15,left,64,2021-03-30_15h03.56.516,premup-three_ses-02_part-02_label-phase2,3.2.4,Win32,60,,,,,,,,,,,,,,,,,1,0,330,318,1,329,1,,,,,,
right,0.625999928,1,328,,,,,,,,,,,,,3,1,2,stim/12.jpeg,Instruments,2,stim/objects/Instruments/flute.png,0.9,2,0.2,0.15,right,64,2021-03-30_15h03.56.516,premup-three_ses-02_part-02_label-phase2,3.2.4,Win32,60,,,,,,,,,,,,,,,,,1,0,330,215,1,329,2,,,,,,
right,0.606999874,0,329,,,,,,,,,,,,,1,4,1,stim/41.jpeg,HouseObjects,1,stim/objects/HouseObjects/ironingboard.png,0.5,3,-0.2,-0.15,left,64,2021-03-30_15h03.56.516,premup-three_ses-02_part-02_label-phase2,3.2.4,Win32,60,,,,,,,,,,,,,,,,,1,0,330,40,1,329,1,,,,,,
right,0.649999857,1,330,,,,,,,,,,,,,3,1,2,stim/12.jpeg,Instruments,2,stim/objects/Instruments/grandpiano.png,0.9,2,0.2,0.15,right,64,2021-03-30_15h03.56.516,premup-three_ses-02_part-02_label-phase2,3.2.4,Win32,60,,,,,,,,,,,,,,,,,1,0,330,179,1,329,2,,,,,,
left,0.625,1,331,,,,,,,,,,,,,3,2,3,stim/23.jpeg,HouseObjects,1,stim/objects/HouseObjects/dustpan.png,0.9,1,-0.2,0.15,left,64,2021-03-30_15h03.56.516,premup-three_ses-02_part-02_label-phase2,3.2.4,Win32,60,,,,,,,,,,,,,,,,,1,0,330,236,1,329,2,,,,,,
right,0.601999998,1,332,,,,,,,,,,,,,3,1,3,stim/13.jpeg,Instruments,2,stim/objects/Instruments/frenchhorn.png,0.9,1,-0.2,0.15,right,64,2021-03-30_15h03.56.516,premup-three_ses-02_part-02_label-phase2,3.2.4,Win32,60,,,,,,,,,,,,,,,,,1,0,330,152,1,329,2,,,,,,
right,0.415999889,1,333,,,,,,,,,,,,,3,1,3,stim/13.jpeg,Instruments,2,stim/objects/Instruments/flute.png,0.9,4,0.2,-0.15,right,64,2021-03-30_15h03.56.516,premup-three_ses-02_part-02_label-phase2,3.2.4,Win32,60,,,,,,,,,,,,,,,,,1,0,330,200,1,329,2,,,,,,
right,0.790999889,0,334,,,,,,,,,,,,,3,1,3,stim/13.jpeg,HouseObjects,1,stim/objects/HouseObjects/hairdryer2.png,0.1,4,0.2,-0.15,left,64,2021-03-30_15h03.56.516,premup-three_ses-02_part-02_label-phase2,3.2.4,Win32,60,,,,,,,,,,,,,,,,,1,0,330,136,1,329,1,,,,,,
left,0.529000044,0,335,,,,,,,,,,,,,3,2,1,stim/21.jpeg,Instruments,2,stim/objects/Instruments/marimba2.png,0.1,2,0.2,0.15,right,64,2021-03-30_15h03.56.516,premup-three_ses-02_part-02_label-phase2,3.2.4,Win32,60,,,,,,,,,,,,,,,,,1,0,330,322,1,329,1,,,,,,
right,0.466999769,1,336,,,,,,,,,,,,,3,1,1,stim/11.jpeg,Instruments,2,stim/objects/Instruments/gong.png,0.9,2,0.2,0.15,right,64,2021-03-30_15h03.56.516,premup-three_ses-02_part-02_label-phase2,3.2.4,Win32,60,,,,,,,,,,,,,,,,,1,0,330,198,1,329,2,,,,,,
right,0.507999897,1,337,,,,,,,,,,,,,2,5,2,stim/52.jpeg,Instruments,2,stim/objects/Instruments/drums.png,0.7,1,-0.2,0.15,right,64,2021-03-30_15h03.56.516,premup-three_ses-02_part-02_label-phase2,3.2.4,Win32,60,,,,,,,,,,,,,,,,,1,0,330,77,1,329,2,,,,,,
,,0,338,,,,,,,,,,,,,3,1,4,stim/14.jpeg,Instruments,2,stim/objects/Instruments/flute.png,0.9,4,0.2,-0.15,right,64,2021-03-30_15h03.56.516,premup-three_ses-02_part-02_label-phase2,3.2.4,Win32,60,,,,,,,,,,,,,,,,,1,0,330,185,1,329,2,,,,,,
left,0.4599998,1,339,,,,,,,,,,,,,3,2,3,stim/23.jpeg,HouseObjects,1,stim/objects/HouseObjects/garbagebin.png,0.9,2,0.2,0.15,left,64,2021-03-30_15h03.56.516,premup-three_ses-02_part-02_label-phase2,3.2.4,Win32,60,,,,,,,,,,,,,,,,,1,0,330,268,1,329,2,,,,,,
right,0.726999998,0,340,,,,,,,,,,,,,1,4,4,stim/44.jpeg,HouseObjects,1,stim/objects/HouseObjects/bottle.png,0.5,2,0.2,0.15,left,64,2021-03-30_15h03.56.516,premup-three_ses-02_part-02_label-phase2,3.2.4,Win32,60,,,,,,,,,,,,,,,,,1,0,330,31,1,329,2,,,,,,
right,0.657000065,1,341,,,,,,,,,,,,,1,4,3,stim/43.jpeg,Instruments,2,stim/objects/Instruments/metronome.png,0.5,3,-0.2,-0.15,right,64,2021-03-30_15h03.56.516,premup-three_ses-02_part-02_label-phase2,3.2.4,Win32,60,,,,,,,,,,,,,,,,,1,0,330,58,1,329,1,,,,,,
right,0.474999905,1,342,,,,,,,,,,,,,2,5,4,stim/54.jpeg,Instruments,2,stim/objects/Instruments/panflute.png,0.7,4,0.2,-0.15,right,64,2021-03-30_15h03.56.516,premup-three_ses-02_part-02_label-phase2,3.2.4,Win32,60,,,,,,,,,,,,,,,,,1,0,330,87,1,329,1,,,,,,
left,0.488000154,1,343,,,,,,,,,,,,,3,2,1,stim/21.jpeg,HouseObjects,1,stim/objects/HouseObjects/doormat.png,0.9,3,-0.2,-0.15,left,64,2021-03-30_15h03.56.516,premup-three_ses-02_part-02_label-phase2,3.2.4,Win32,60,,,,,,,,,,,,,,,,,1,0,330,250,1,329,2,,,,,,
right,0.558999777,0,344,,,,,,,,,,,,,2,5,4,stim/54.jpeg,HouseObjects,1,stim/objects/HouseObjects/remote.png,0.3,3,-0.2,-0.15,left,64,2021-03-30_15h03.56.516,premup-three_ses-02_part-02_label-phase2,3.2.4,Win32,60,,,,,,,,,,,,,,,,,1,0,330,63,1,329,1,,,,,,
right,0.496999979,1,345,,,,,,,,,,,,,1,4,1,stim/41.jpeg,Instruments,2,stim/objects/Instruments/maraca.png,0.5,3,-0.2,-0.15,right,64,2021-03-30_15h03.56.516,premup-three_ses-02_part-02_label-phase2,3.2.4,Win32,60,,,,,,,,,,,,,,,,,1,0,330,56,1,329,1,,,,,,
right,0.487999916,1,346,,,,,,,,,,,,,3,1,2,stim/12.jpeg,Instruments,2,stim/objects/Instruments/gong.png,0.9,2,0.2,0.15,right,64,2021-03-30_15h03.56.516,premup-three_ses-02_part-02_label-phase2,3.2.4,Win32,60,,,,,,,,,,,,,,,,,1,0,330,143,1,329,2,,,,,,
right,0.497999907,1,347,,,,,,,,,,,,,3,1,4,stim/14.jpeg,Instruments,2,stim/objects/Instruments/gong.png,0.9,4,0.2,-0.15,right,64,2021-03-30_15h03.56.516,premup-three_ses-02_part-02_label-phase2,3.2.4,Win32,60,,,,,,,,,,,,,,,,,1,0,330,173,1,329,2,,,,,,
,,0,348,,,,,,,,,,,,,2,6,1,stim/61.jpeg,HouseObjects,1,stim/objects/HouseObjects/bottle2.png,0.7,4,0.2,-0.15,left,64,2021-03-30_15h03.56.516,premup-three_ses-02_part-02_label-phase2,3.2.4,Win32,60,,,,,,,,,,,,,,,,,1,0,330,111,1,329,1,,,,,,
left,0.669999838,1,349,,,,,,,,,,,,,2,6,4,stim/64.jpeg,HouseObjects,1,stim/objects/HouseObjects/blender2.png,0.7,2,0.2,0.15,left,64,2021-03-30_15h03.56.516,premup-three_ses-02_part-02_label-phase2,3.2.4,Win32,60,,,,,,,,,,,,,,,,,1,0,330,110,1,329,1,,,,,,
left,0.621999979,1,350,,,,,,,,,,,,,2,6,3,stim/63.jpeg,HouseObjects,1,stim/objects/HouseObjects/clothespin.png,0.7,2,0.2,0.15,left,64,2021-03-30_15h03.56.516,premup-three_ses-02_part-02_label-phase2,3.2.4,Win32,60,,,,,,,,,,,,,,,,,1,0,330,101,1,329,2,,,,,,
left,0.395999908,0,351,,,,,,,,,,,,,2,6,4,stim/64.jpeg,Instruments,2,stim/objects/Instruments/chime2.png,0.3,1,-0.2,0.15,right,64,2021-03-30_15h03.56.516,premup-three_ses-02_part-02_label-phase2,3.2.4,Win32,60,,,,,,,,,,,,,,,,,1,0,330,122,1,329,1,,,,,,
right,0.49000001,0,352,,,,,,,,,,,,,3,1,3,stim/13.jpeg,HouseObjects,1,stim/objects/HouseObjects/flyswatter2.png,0.1,3,-0.2,-0.15,left,64,2021-03-30_15h03.56.516,premup-three_ses-02_part-02_label-phase2,3.2.4,Win32,60,,,,,,,,,,,,,,,,,1,0,330,132,1,329,1,,,,,,
left,0.458999872,1,353,,,,,,,,,,,,,2,6,4,stim/64.jpeg,HouseObjects,1,stim/objects/HouseObjects/cushion2.png,0.7,3,-0.2,-0.15,left,64,2021-03-30_15h03.56.516,premup-three_ses-02_part-02_label-phase2,3.2.4,Win32,60,,,,,,,,,,,,,,,,,1,0,330,118,1,329,1,,,,,,
right,0.712000132,1,354,,,,,,,,,,,,,3,1,1,stim/11.jpeg,Instruments,2,stim/objects/Instruments/gong.png,0.9,1,-0.2,0.15,right,64,2021-03-30_15h03.56.516,premup-three_ses-02_part-02_label-phase2,3.2.4,Win32,60,,,,,,,,,,,,,,,,,1,0,330,158,1,329,2,,,,,,
left,0.457999945,1,355,,,,,,,,,,,,,3,2,3,stim/23.jpeg,HouseObjects,1,stim/objects/HouseObjects/flyswatter.png,0.9,1,-0.2,0.15,left,64,2021-03-30_15h03.56.516,premup-three_ses-02_part-02_label-phase2,3.2.4,Win32,60,,,,,,,,,,,,,,,,,1,0,330,232,1,329,2,,,,,,
right,0.592999935,1,356,,,,,,,,,,,,,3,1,3,stim/13.jpeg,Instruments,2,stim/objects/Instruments/hihat2.png,0.9,3,-0.2,-0.15,right,64,2021-03-30_15h03.56.516,premup-three_ses-02_part-02_label-phase2,3.2.4,Win32,60,,,,,,,,,,,,,,,,,1,0,330,228,1,329,1,,,,,,
,,0,357,,,,,,,,,,,,,3,2,3,stim/23.jpeg,HouseObjects,1,stim/objects/HouseObjects/flyswatter.png,0.9,3,-0.2,-0.15,left,64,2021-03-30_15h03.56.516,premup-three_ses-02_part-02_label-phase2,3.2.4,Win32,60,,,,,,,,,,,,,,,,,1,0,330,252,1,329,2,,,,,,
right,0.598999739,0,358,,,,,,,,,,,,,1,4,4,stim/44.jpeg,HouseObjects,1,stim/objects/HouseObjects/clock.png,0.5,1,-0.2,0.15,left,64,2021-03-30_15h03.56.516,premup-three_ses-02_part-02_label-phase2,3.2.4,Win32,60,,,,,,,,,,,,,,,,,1,0,330,39,1,329,2,,,,,,
left,0.479000092,1,359,,,,,,,,,,,,,2,6,4,stim/64.jpeg,HouseObjects,1,stim/objects/HouseObjects/coffee.png,0.7,2,0.2,0.15,left,64,2021-03-30_15h03.56.516,premup-three_ses-02_part-02_label-phase2,3.2.4,Win32,60,,,,,,,,,,,,,,,,,1,0,330,102,1,329,2,,,,,,
,,0,360,,,,,,,,,,,,,3,1,4,stim/14.jpeg,Instruments,2,stim/objects/Instruments/flute.png,0.9,4,0.2,-0.15,right,64,2021-03-30_15h03.56.516,premup-three_ses-02_part-02_label-phase2,3.2.4,Win32,60,,,,,,,,,,,,,,,,,1,0,330,205,1,329,2,,,,,,
right,0.635999918,1,361,,,,,,,,,,,,,3,1,1,stim/11.jpeg,Instruments,2,stim/objects/Instruments/frenchhorn.png,0.9,4,0.2,-0.15,right,64,2021-03-30_15h03.56.516,premup-three_ses-02_part-02_label-phase2,3.2.4,Win32,60,,,,,,,,,,,,,,,,,1,0,330,162,1,329,2,,,,,,
right,0.528999805,0,362,,,,,,,,,,,,,1,4,1,stim/41.jpeg,HouseObjects,1,stim/objects/HouseObjects/bottle.png,0.5,2,0.2,0.15,left,64,2021-03-30_15h03.56.516,premup-three_ses-02_part-02_label-phase2,3.2.4,Win32,60,,,,,,,,,,,,,,,,,1,0,330,36,1,329,2,,,,,,
left,0.468999863,1,363,,,,,,,,,,,,,3,2,1,stim/21.jpeg,HouseObjects,1,stim/objects/HouseObjects/dustpan.png,0.9,3,-0.2,-0.15,left,64,2021-03-30_15h03.56.516,premup-three_ses-02_part-02_label-phase2,3.2.4,Win32,60,,,,,,,,,,,,,,,,,1,0,330,306,1,329,2,,,,,,
right,0.559999943,1,364,,,,,,,,,,,,,3,1,1,stim/11.jpeg,Instruments,2,stim/objects/Instruments/harmonica2.png,0.9,3,-0.2,-0.15,right,64,2021-03-30_15h03.56.516,premup-three_ses-02_part-02_label-phase2,3.2.4,Win32,60,,,,,,,,,,,,,,,,,1,0,330,226,1,329,1,,,,,,
right,0.710000038,0,365,,,,,,,,,,,,,3,2,4,stim/24.jpeg,HouseObjects,1,stim/objects/HouseObjects/glass.png,0.9,4,0.2,-0.15,left,64,2021-03-30_15h03.56.516,premup-three_ses-02_part-02_label-phase2,3.2.4,Win32,60,,,,,,,,,,,,,,,,,1,0,330,269,1,329,2,,,,,,
right,0.758000135,1,366,,,,,,,,,,,,,1,4,2,stim/42.jpeg,Instruments,2,stim/objects/Instruments/marimba.png,0.5,4,0.2,-0.15,right,64,2021-03-30_15h03.56.516,premup-three_ses-02_part-02_label-phase2,3.2.4,Win32,60,,,,,,,,,,,,,,,,,1,0,330,57,1,329,1,,,,,,
left,0.57799983,1,367,,,,,,,,,,,,,1,4,2,stim/42.jpeg,HouseObjects,1,stim/objects/HouseObjects/broom.png,0.5,1,-0.2,0.15,left,64,2021-03-30_15h03.56.516,premup-three_ses-02_part-02_label-phase2,3.2.4,Win32,60,,,,,,,,,,,,,,,,,1,0,330,37,1,329,2,,,,,,
,,0,368,,,,,,,,,,,,,3,1,3,stim/13.jpeg,Instruments,2,stim/objects/Instruments/gong.png,0.9,2,0.2,0.15,right,64,2021-03-30_15h03.56.516,premup-three_ses-02_part-02_label-phase2,3.2.4,Win32,60,,,,,,,,,,,,,,,,,1,0,330,208,1,329,2,,,,,,
right,0.512000084,0,369,,,,,,,,,,,,,2,5,4,stim/54.jpeg,HouseObjects,1,stim/objects/HouseObjects/barbecuelighter2.png,0.3,1,-0.2,0.15,left,64,2021-03-30_15h03.56.516,premup-three_ses-02_part-02_label-phase2,3.2.4,Win32,60,,,,,,,,,,,,,,,,,1,0,330,67,1,329,1,,,,,,
left,0.853999853,1,370,,,,,,,,,,,,,2,5,2,stim/52.jpeg,HouseObjects,1,stim/objects/HouseObjects/pitcher.png,0.3,2,0.2,0.15,left,64,2021-03-30_15h03.56.516,premup-three_ses-02_part-02_label-phase2,3.2.4,Win32,60,,,,,,,,,,,,,,,,,1,0,330,61,1,329,1,,,,,,
left,0.582000017,1,371,,,,,,,,,,,,,3,2,1,stim/21.jpeg,HouseObjects,1,stim/objects/HouseObjects/garbagebin.png,0.9,3,-0.2,-0.15,left,64,2021-03-30_15h03.56.516,premup-three_ses-02_part-02_label-phase2,3.2.4,Win32,60,,,,,,,,,,,,,,,,,1,0,330,298,1,329,2,,,,,,
left,0.4599998,0,372,,,,,,,,,,,,,3,2,1,stim/21.jpeg,Instruments,2,stim/objects/Instruments/oboe2.png,0.1,4,0.2,-0.15,right,64,2021-03-30_15h03.56.516,premup-three_ses-02_part-02_label-phase2,3.2.4,Win32,60,,,,,,,,,,,,,,,,,1,0,330,326,1,329,1,,,,,,
left,0.467000008,1,373,,,,,,,,,,,,,3,2,1,stim/21.jpeg,HouseObjects,1,stim/objects/HouseObjects/ironingboard2.png,0.9,4,0.2,-0.15,left,64,2021-03-30_15h03.56.516,premup-three_ses-02_part-02_label-phase2,3.2.4,Win32,60,,,,,,,,,,,,,,,,,1,0,330,310,1,329,1,,,,,,
right,0.453999996,1,374,,,,,,,,,,,,,1,3,1,stim/31.jpeg,Instruments,2,stim/objects/Instruments/accordion.png,0.5,4,0.2,-0.15,right,64,2021-03-30_15h03.56.516,premup-three_ses-02_part-02_label-phase2,3.2.4,Win32,60,,,,,,,,,,,,,,,,,1,0,330,20,1,329,2,,,,,,
left,0.554999828,1,375,,,,,,,,,,,,,3,2,3,stim/23.jpeg,HouseObjects,1,stim/objects/HouseObjects/pitcher2.png,0.9,2,0.2,0.15,left,64,2021-03-30_15h03.56.516,premup-three_ses-02_part-02_label-phase2,3.2.4,Win32,60,,,,,,,,,,,,,,,,,1,0,330,316,1,329,1,,,,,,
right,0.552999973,1,376,,,,,,,,,,,,,3,1,4,stim/14.jpeg,Instruments,2,stim/objects/Instruments/frenchhorn.png,0.9,1,-0.2,0.15,right,64,2021-03-30_15h03.56.516,premup-three_ses-02_part-02_label-phase2,3.2.4,Win32,60,,,,,,,,,,,,,,,,,1,0,330,157,1,329,2,,,,,,
right,0.477999926,0,377,,,,,,,,,,,,,2,6,2,stim/62.jpeg,HouseObjects,1,stim/objects/HouseObjects/dishsoap.png,0.7,1,-0.2,0.15,left,64,2021-03-30_15h03.56.516,premup-three_ses-02_part-02_label-phase2,3.2.4,Win32,60,,,,,,,,,,,,,,,,,1,0,330,104,1,329,2,,,,,,
right,0.461999893,1,378,,,,,,,,,,,,,1,4,3,stim/43.jpeg,Instruments,2,stim/objects/Instruments/cello.png,0.5,2,0.2,0.15,right,64,2021-03-30_15h03.56.516,premup-three_ses-02_part-02_label-phase2,3.2.4,Win32,60,,,,,,,,,,,,,,,,,1,0,330,46,1,329,2,,,,,,
right,0.394999981,1,379,,,,,,,,,,,,,1,3,2,stim/32.jpeg,Instruments,2,stim/objects/Instruments/guitarcase.png,0.5,2,0.2,0.15,right,64,2021-03-30_15h03.56.516,premup-three_ses-02_part-02_label-phase2,3.2.4,Win32,60,,,,,,,,,,,,,,,,,1,0,330,25,1,329,1,,,,,,
right,0.444999933,1,380,,,,,,,,,,,,,1,3,3,stim/33.jpeg,Instruments,2,stim/objects/Instruments/balalaika.png,0.5,4,0.2,-0.15,right,64,2021-03-30_15h03.56.516,premup-three_ses-02_part-02_label-phase2,3.2.4,Win32,60,,,,,,,,,,,,,,,,,1,0,330,22,1,329,2,,,,,,
right,0.604000092,1,381,,,,,,,,,,,,,3,1,3,stim/13.jpeg,Instruments,2,stim/objects/Instruments/flutetrans.png,0.9,2,0.2,0.15,right,64,2021-03-30_15h03.56.516,premup-three_ses-02_part-02_label-phase2,3.2.4,Win32,60,,,,,,,,,,,,,,,,,1,0,330,216,1,329,2,,,,,,
right,0.519000053,1,382,,,,,,,,,,,,,3,1,3,stim/13.jpeg,Instruments,2,stim/objects/Instruments/grandpiano.png,0.9,2,0.2,0.15,right,64,2021-03-30_15h03.56.516,premup-three_ses-02_part-02_label-phase2,3.2.4,Win32,60,,,,,,,,,,,,,,,,,1,0,330,184,1,329,2,,,,,,
