key_resp_pract.keys,key_resp_pract.rt,trial_acc,trial_index,practice_loop.thisRepN,practice_loop.thisTrialN,practice_loop.thisN,practice_loop.thisIndex,practice_loop.ran,practice_loop.order,scn_condition,scn_cat,scn_inst,scn_file,obj_cat,obj_cat_num,obj_file,trial_cond,quadrant,obj_x,obj_y,corr_ans,participant,date,expName,psychopyVersion,OS,frameRate,key_resp_trial.keys,key_resp_trial.rt,iterations.thisRepN,iterations.thisTrialN,iterations.thisN,iterations.thisIndex,iterations.ran,iterations.order,task_innerloop.thisRepN,task_innerloop.thisTrialN,task_innerloop.thisN,task_innerloop.thisIndex,task_innerloop.ran,task_innerloop.order,iteration_index,rating_acc,slider.response,slider.rt,slider_2.response,slider_2.rt,ratings.thisRepN,ratings.thisTrialN,ratings.thisN,ratings.thisIndex,ratings.ran,ratings.order,obj_cat_top,min_resp_top,max_resp_top,obj_cat_bottom,min_resp_bottom,max_resp_bottom
,,0,1,1,0,240,138,1,239,2,6,3,stim/63.jpeg,HouseObjects,1,stim/objects/HouseObjects/saw2.png,0.7,3,-0.2,-0.15,left,64,2021-03-29_17h08.51.324,premup-three_ses-01_part-01_label-phase1,3.2.4,Win32,60,,,,,,,,,,,,,,,,,,,,,,,,,,,,,,,,
left,0.680999994,1,2,1,0,240,14,1,239,1,3,3,stim/33.jpeg,HouseObjects,1,stim/objects/HouseObjects/saw.png,0.5,1,-0.2,0.15,left,64,2021-03-29_17h08.51.324,premup-three_ses-01_part-01_label-phase1,3.2.4,Win32,60,,,,,,,,,,,,,,,,,,,,,,,,,,,,,,,,
left,0.742000341,0,3,1,0,240,170,1,239,3,1,3,stim/13.jpeg,Instruments,2,stim/objects/Instruments/trombone2.png,0.9,2,0.2,0.15,right,64,2021-03-29_17h08.51.324,premup-three_ses-01_part-01_label-phase1,3.2.4,Win32,60,,,,,,,,,,,,,,,,,,,,,,,,,,,,,,,,
right,1.045000315,0,4,1,0,240,139,1,239,2,6,4,stim/64.jpeg,HouseObjects,1,stim/objects/HouseObjects/scale2.png,0.7,4,0.2,-0.15,left,64,2021-03-29_17h08.51.324,premup-three_ses-01_part-01_label-phase1,3.2.4,Win32,60,,,,,,,,,,,,,,,,,,,,,,,,,,,,,,,,
right,0.753000259,0,5,1,0,240,123,1,239,2,6,4,stim/64.jpeg,HouseObjects,1,stim/objects/HouseObjects/scale2.png,0.7,4,0.2,-0.15,left,64,2021-03-29_17h08.51.324,premup-three_ses-01_part-01_label-phase1,3.2.4,Win32,60,,,,,,,,,,,,,,,,,,,,,,,,,,,,,,,,
left,1.135000229,0,6,1,0,240,61,1,239,1,4,2,stim/42.jpeg,Instruments,2,stim/objects/Instruments/triangle.png,0.5,1,-0.2,0.15,right,64,2021-03-29_17h08.51.324,premup-three_ses-01_part-01_label-phase1,3.2.4,Win32,60,,,,,,,,,,,,,,,,,,,,,,,,,,,,,,,,
left,0.828999996,0,7,1,0,240,31,1,239,1,3,4,stim/34.jpeg,Instruments,2,stim/objects/Instruments/tambourine.png,0.5,1,-0.2,0.15,right,64,2021-03-29_17h08.51.324,premup-three_ses-01_part-01_label-phase1,3.2.4,Win32,60,,,,,,,,,,,,,,,,,,,,,,,,,,,,,,,,
left,1.031000137,1,8,1,0,240,225,1,239,3,2,2,stim/22.jpeg,HouseObjects,1,stim/objects/HouseObjects/towel2.png,0.9,1,-0.2,0.15,left,64,2021-03-29_17h08.51.324,premup-three_ses-01_part-01_label-phase1,3.2.4,Win32,60,,,,,,,,,,,,,,,,,,,,,,,,,,,,,,,,
,,0,9,1,0,240,3,1,239,1,3,4,stim/34.jpeg,HouseObjects,1,stim/objects/HouseObjects/scale.png,0.5,3,-0.2,-0.15,left,64,2021-03-29_17h08.51.324,premup-three_ses-01_part-01_label-phase1,3.2.4,Win32,60,,,,,,,,,,,,,,,,,,,,,,,,,,,,,,,,
right,1.571000099,1,10,1,0,240,21,1,239,1,3,2,stim/32.jpeg,Instruments,2,stim/objects/Instruments/saxophone.png,0.5,1,-0.2,0.15,right,64,2021-03-29_17h08.51.324,premup-three_ses-01_part-01_label-phase1,3.2.4,Win32,60,,,,,,,,,,,,,,,,,,,,,,,,,,,,,,,,
,,0,1,,,,,,,1,3,1,stim/31.jpeg,HouseObjects,1,stim/objects/HouseObjects/rug.png,0.5,2,0.2,0.15,left,64,2021-03-29_17h08.51.324,premup-three_ses-01_part-01_label-phase1,3.2.4,Win32,60,right,0.420000076,4,0,4,0,1,3,1,0,240,8,1,239,,,,,,,,,,,,,,,,,,
,,1,2,,,,,,,1,4,2,stim/42.jpeg,Instruments,2,stim/objects/Instruments/triangle.png,0.5,2,0.2,0.15,right,64,2021-03-29_17h08.51.324,premup-three_ses-01_part-01_label-phase1,3.2.4,Win32,60,right,0.71900034,4,0,4,0,1,3,1,0,240,69,1,239,,,,,,,,,,,,,,,,,,
,,1,3,,,,,,,2,6,3,stim/63.jpeg,HouseObjects,1,stim/objects/HouseObjects/saw2.png,0.7,3,-0.2,-0.15,left,64,2021-03-29_17h08.51.324,premup-three_ses-01_part-01_label-phase1,3.2.4,Win32,60,left,1.00600028,4,0,4,0,1,3,1,0,240,138,1,239,,,,,,,,,,,,,,,,,,
,,0,4,,,,,,,3,2,2,stim/22.jpeg,HouseObjects,1,stim/objects/HouseObjects/towel2.png,0.9,3,-0.2,-0.15,left,64,2021-03-29_17h08.51.324,premup-three_ses-01_part-01_label-phase1,3.2.4,Win32,60,right,1.27300024,4,0,4,0,1,3,1,0,240,229,1,239,,,,,,,,,,,,,,,,,,
,,1,5,,,,,,,1,4,4,stim/44.jpeg,Instruments,2,stim/objects/Instruments/trumpet.png,0.5,2,0.2,0.15,right,64,2021-03-29_17h08.51.324,premup-three_ses-01_part-01_label-phase1,3.2.4,Win32,60,right,1.173000097,4,0,4,0,1,3,1,0,240,75,1,239,,,,,,,,,,,,,,,,,,
,,1,6,,,,,,,3,1,2,stim/12.jpeg,HouseObjects,1,stim/objects/HouseObjects/spraybottle2.png,0.1,3,-0.2,-0.15,left,64,2021-03-29_17h08.51.324,premup-three_ses-01_part-01_label-phase1,3.2.4,Win32,60,left,1.518000364,4,0,4,0,1,3,1,0,240,161,1,239,,,,,,,,,,,,,,,,,,
,,0,7,,,,,,,3,2,3,stim/23.jpeg,Instruments,2,stim/objects/Instruments/vuvuzela2.png,0.1,2,0.2,0.15,right,64,2021-03-29_17h08.51.324,premup-three_ses-01_part-01_label-phase1,3.2.4,Win32,60,left,1.160000086,4,0,4,0,1,3,1,0,240,238,1,239,,,,,,,,,,,,,,,,,,
,,1,8,,,,,,,3,1,3,stim/13.jpeg,Instruments,2,stim/objects/Instruments/trombone2.png,0.9,2,0.2,0.15,right,64,2021-03-29_17h08.51.324,premup-three_ses-01_part-01_label-phase1,3.2.4,Win32,60,right,1.096000195,4,0,4,0,1,3,1,0,240,178,1,239,,,,,,,,,,,,,,,,,,
,,0,9,,,,,,,3,1,3,stim/13.jpeg,HouseObjects,1,stim/objects/HouseObjects/teapot2.png,0.1,1,-0.2,0.15,left,64,2021-03-29_17h08.51.324,premup-three_ses-01_part-01_label-phase1,3.2.4,Win32,60,right,1.192000151,4,0,4,0,1,3,1,0,240,162,1,239,,,,,,,,,,,,,,,,,,
,,1,10,,,,,,,1,4,4,stim/44.jpeg,HouseObjects,1,stim/objects/HouseObjects/thermometer.png,0.5,1,-0.2,0.15,left,64,2021-03-29_17h08.51.324,premup-three_ses-01_part-01_label-phase1,3.2.4,Win32,60,left,1.819000244,4,0,4,0,1,3,1,0,240,51,1,239,,,,,,,,,,,,,,,,,,
,,0,11,,,,,,,3,1,4,stim/14.jpeg,Instruments,2,stim/objects/Instruments/trumpet2.png,0.9,3,-0.2,-0.15,right,64,2021-03-29_17h08.51.324,premup-three_ses-01_part-01_label-phase1,3.2.4,Win32,60,left,1.461000204,4,0,4,0,1,3,1,0,240,191,1,239,,,,,,,,,,,,,,,,,,
,,0,12,,,,,,,2,6,4,stim/64.jpeg,HouseObjects,1,stim/objects/HouseObjects/scale2.png,0.7,4,0.2,-0.15,left,64,2021-03-29_17h08.51.324,premup-three_ses-01_part-01_label-phase1,3.2.4,Win32,60,right,1.186000109,4,0,4,0,1,3,1,0,240,135,1,239,,,,,,,,,,,,,,,,,,
,,0,13,,,,,,,1,3,4,stim/34.jpeg,Instruments,2,stim/objects/Instruments/tambourine.png,0.5,2,0.2,0.15,right,64,2021-03-29_17h08.51.324,premup-three_ses-01_part-01_label-phase1,3.2.4,Win32,60,left,1.11500001,4,0,4,0,1,3,1,0,240,35,1,239,,,,,,,,,,,,,,,,,,
,,1,14,,,,,,,1,3,2,stim/32.jpeg,HouseObjects,1,stim/objects/HouseObjects/safetypin.png,0.5,3,-0.2,-0.15,left,64,2021-03-29_17h08.51.324,premup-three_ses-01_part-01_label-phase1,3.2.4,Win32,60,left,0.957000256,4,0,4,0,1,3,1,0,240,9,1,239,,,,,,,,,,,,,,,,,,
,,1,15,,,,,,,2,5,2,stim/52.jpeg,Instruments,2,stim/objects/Instruments/violin.png,0.7,4,0.2,-0.15,right,64,2021-03-29_17h08.51.324,premup-three_ses-01_part-01_label-phase1,3.2.4,Win32,60,right,1.159000158,4,0,4,0,1,3,1,0,240,101,1,239,,,,,,,,,,,,,,,,,,
,,0,16,,,,,,,3,2,1,stim/21.jpeg,HouseObjects,1,stim/objects/HouseObjects/thread2.png,0.9,4,0.2,-0.15,left,64,2021-03-29_17h08.51.324,premup-three_ses-01_part-01_label-phase1,3.2.4,Win32,60,right,0.892000198,4,0,4,0,1,3,1,0,240,220,1,239,,,,,,,,,,,,,,,,,,
,,1,17,,,,,,,1,3,1,stim/31.jpeg,HouseObjects,1,stim/objects/HouseObjects/rug.png,0.5,1,-0.2,0.15,left,64,2021-03-29_17h08.51.324,premup-three_ses-01_part-01_label-phase1,3.2.4,Win32,60,left,1.425000191,4,0,4,0,1,3,1,0,240,16,1,239,,,,,,,,,,,,,,,,,,
,,0,18,,,,,,,2,5,3,stim/53.jpeg,HouseObjects,1,stim/objects/HouseObjects/vacuumcleaner.png,0.3,4,0.2,-0.15,left,64,2021-03-29_17h08.51.324,premup-three_ses-01_part-01_label-phase1,3.2.4,Win32,60,right,1.624000311,4,0,4,0,1,3,1,0,240,86,1,239,,,,,,,,,,,,,,,,,,
,,0,19,,,,,,,2,5,3,stim/53.jpeg,Instruments,2,stim/objects/Instruments/vuvuzela.png,0.7,1,-0.2,0.15,right,64,2021-03-29_17h08.51.324,premup-three_ses-01_part-01_label-phase1,3.2.4,Win32,60,left,1.550000191,4,0,4,0,1,3,1,0,240,102,1,239,,,,,,,,,,,,,,,,,,
,,0,20,,,,,,,3,1,2,stim/12.jpeg,Instruments,2,stim/objects/Instruments/triangle2.png,0.9,1,-0.2,0.15,right,64,2021-03-29_17h08.51.324,premup-three_ses-01_part-01_label-phase1,3.2.4,Win32,60,left,1.378000259,4,0,4,0,1,3,1,0,240,173,1,239,,,,,,,,,,,,,,,,,,
,,0,21,,,,,,,2,5,1,stim/51.jpeg,HouseObjects,1,stim/objects/HouseObjects/thread.png,0.3,4,0.2,-0.15,left,64,2021-03-29_17h08.51.324,premup-three_ses-01_part-01_label-phase1,3.2.4,Win32,60,right,1.683000088,4,0,4,0,1,3,1,0,240,84,1,239,,,,,,,,,,,,,,,,,,
,,0,22,,,,,,,2,6,2,stim/62.jpeg,HouseObjects,1,stim/objects/HouseObjects/safetypin2.png,0.7,2,0.2,0.15,left,64,2021-03-29_17h08.51.324,premup-three_ses-01_part-01_label-phase1,3.2.4,Win32,60,right,1.357000113,4,0,4,0,1,3,1,0,240,129,1,239,,,,,,,,,,,,,,,,,,
,,1,23,,,,,,,1,3,4,stim/34.jpeg,HouseObjects,1,stim/objects/HouseObjects/scale.png,0.5,2,0.2,0.15,left,64,2021-03-29_17h08.51.324,premup-three_ses-01_part-01_label-phase1,3.2.4,Win32,60,left,1.191000223,4,0,4,0,1,3,1,0,240,7,1,239,,,,,,,,,,,,,,,,,,
,,1,24,,,,,,,1,3,3,stim/33.jpeg,HouseObjects,1,stim/objects/HouseObjects/saw.png,0.5,2,0.2,0.15,left,64,2021-03-29_17h08.51.324,premup-three_ses-01_part-01_label-phase1,3.2.4,Win32,60,left,0.7900002,4,0,4,0,1,3,1,0,240,6,1,239,,,,,,,,,,,,,,,,,,
,,1,25,,,,,,,1,4,2,stim/42.jpeg,Instruments,2,stim/objects/Instruments/triangle.png,0.5,1,-0.2,0.15,right,64,2021-03-29_17h08.51.324,premup-three_ses-01_part-01_label-phase1,3.2.4,Win32,60,right,1.259000301,4,0,4,0,1,3,1,0,240,65,1,239,,,,,,,,,,,,,,,,,,
,,0,26,,,,,,,1,3,3,stim/33.jpeg,Instruments,2,stim/objects/Instruments/speaker.png,0.5,1,-0.2,0.15,right,64,2021-03-29_17h08.51.324,premup-three_ses-01_part-01_label-phase1,3.2.4,Win32,60,left,1.078000307,4,0,4,0,1,3,1,0,240,26,1,239,,,,,,,,,,,,,,,,,,
,,0,27,,,,,,,1,3,4,stim/34.jpeg,HouseObjects,1,stim/objects/HouseObjects/scale.png,0.5,4,0.2,-0.15,left,64,2021-03-29_17h08.51.324,premup-three_ses-01_part-01_label-phase1,3.2.4,Win32,60,right,1.302999973,4,0,4,0,1,3,1,0,240,19,1,239,,,,,,,,,,,,,,,,,,
,,1,28,,,,,,,2,6,3,stim/63.jpeg,Instruments,2,stim/objects/Instruments/speaker2.png,0.3,1,-0.2,0.15,right,64,2021-03-29_17h08.51.324,premup-three_ses-01_part-01_label-phase1,3.2.4,Win32,60,right,1.395000219,4,0,4,0,1,3,1,0,240,150,1,239,,,,,,,,,,,,,,,,,,
,,1,29,,,,,,,1,3,1,stim/31.jpeg,HouseObjects,1,stim/objects/HouseObjects/rug.png,0.5,3,-0.2,-0.15,left,64,2021-03-29_17h08.51.324,premup-three_ses-01_part-01_label-phase1,3.2.4,Win32,60,left,1.026000023,4,0,4,0,1,3,1,0,240,4,1,239,,,,,,,,,,,,,,,,,,
,,1,30,,,,,,,2,6,3,stim/63.jpeg,HouseObjects,1,stim/objects/HouseObjects/saw2.png,0.7,4,0.2,-0.15,left,64,2021-03-29_17h08.51.324,premup-three_ses-01_part-01_label-phase1,3.2.4,Win32,60,left,1.024000168,4,0,4,0,1,3,1,0,240,134,1,239,,,,,,,,,,,,,,,,,,
,,1,31,,,,,,,3,2,1,stim/21.jpeg,HouseObjects,1,stim/objects/HouseObjects/thread2.png,0.9,1,-0.2,0.15,left,64,2021-03-29_17h08.51.324,premup-three_ses-01_part-01_label-phase1,3.2.4,Win32,60,left,1.368000269,4,0,4,0,1,3,1,0,240,200,1,239,,,,,,,,,,,,,,,,,,
,,0,32,,,,,,,1,4,3,stim/43.jpeg,Instruments,2,stim/objects/Instruments/trombone.png,0.5,4,0.2,-0.15,right,64,2021-03-29_17h08.51.324,premup-three_ses-01_part-01_label-phase1,3.2.4,Win32,60,left,1.594000101,4,0,4,0,1,3,1,0,240,62,1,239,,,,,,,,,,,,,,,,,,
,,0,33,,,,,,,2,6,2,stim/62.jpeg,HouseObjects,1,stim/objects/HouseObjects/safetypin2.png,0.7,1,-0.2,0.15,left,64,2021-03-29_17h08.51.324,premup-three_ses-01_part-01_label-phase1,3.2.4,Win32,60,right,1.28000021,4,0,4,0,1,3,1,0,240,141,1,239,,,,,,,,,,,,,,,,,,
,,1,34,,,,,,,3,2,2,stim/22.jpeg,HouseObjects,1,stim/objects/HouseObjects/towel2.png,0.9,1,-0.2,0.15,left,64,2021-03-29_17h08.51.324,premup-three_ses-01_part-01_label-phase1,3.2.4,Win32,60,left,1.029999971,4,0,4,0,1,3,1,0,240,225,1,239,,,,,,,,,,,,,,,,,,
,,0,35,,,,,,,3,1,3,stim/13.jpeg,Instruments,2,stim/objects/Instruments/trombone2.png,0.9,2,0.2,0.15,right,64,2021-03-29_17h08.51.324,premup-three_ses-01_part-01_label-phase1,3.2.4,Win32,60,left,1.193000317,4,0,4,0,1,3,1,0,240,170,1,239,,,,,,,,,,,,,,,,,,
,,0,36,,,,,,,3,2,3,stim/23.jpeg,HouseObjects,1,stim/objects/HouseObjects/vacuumcleaner2.png,0.9,3,-0.2,-0.15,left,64,2021-03-29_17h08.51.324,premup-three_ses-01_part-01_label-phase1,3.2.4,Win32,60,,,4,0,4,0,1,3,1,0,240,234,1,239,,,,,,,,,,,,,,,,,,
,,0,37,,,,,,,3,2,1,stim/21.jpeg,HouseObjects,1,stim/objects/HouseObjects/thread2.png,0.9,2,0.2,0.15,left,64,2021-03-29_17h08.51.324,premup-three_ses-01_part-01_label-phase1,3.2.4,Win32,60,right,1.17200017,4,0,4,0,1,3,1,0,240,216,1,239,,,,,,,,,,,,,,,,,,
,,0,38,,,,,,,3,2,2,stim/22.jpeg,HouseObjects,1,stim/objects/HouseObjects/towel2.png,0.9,4,0.2,-0.15,left,64,2021-03-29_17h08.51.324,premup-three_ses-01_part-01_label-phase1,3.2.4,Win32,60,right,1.268000126,4,0,4,0,1,3,1,0,240,205,1,239,,,,,,,,,,,,,,,,,,
,,0,39,,,,,,,3,1,2,stim/12.jpeg,Instruments,2,stim/objects/Instruments/triangle2.png,0.9,2,0.2,0.15,right,64,2021-03-29_17h08.51.324,premup-three_ses-01_part-01_label-phase1,3.2.4,Win32,60,left,1.269000053,4,0,4,0,1,3,1,0,240,165,1,239,,,,,,,,,,,,,,,,,,
,,0,40,,,,,,,3,2,1,stim/21.jpeg,Instruments,2,stim/objects/Instruments/tuba2.png,0.1,1,-0.2,0.15,right,64,2021-03-29_17h08.51.324,premup-three_ses-01_part-01_label-phase1,3.2.4,Win32,60,left,0.937000275,4,0,4,0,1,3,1,0,240,236,1,239,,,,,,,,,,,,,,,,,,
,,1,41,,,,,,,1,4,1,stim/41.jpeg,Instruments,2,stim/objects/Instruments/timbal.png,0.5,2,0.2,0.15,right,64,2021-03-29_17h08.51.324,premup-three_ses-01_part-01_label-phase1,3.2.4,Win32,60,right,1.212000132,4,0,4,0,1,3,1,0,240,68,1,239,,,,,,,,,,,,,,,,,,
,,1,42,,,,,,,3,2,3,stim/23.jpeg,HouseObjects,1,stim/objects/HouseObjects/vacuumcleaner2.png,0.9,4,0.2,-0.15,left,64,2021-03-29_17h08.51.324,premup-three_ses-01_part-01_label-phase1,3.2.4,Win32,60,left,1.059000254,4,0,4,0,1,3,1,0,240,206,1,239,,,,,,,,,,,,,,,,,,
,,0,43,,,,,,,1,4,1,stim/41.jpeg,HouseObjects,1,stim/objects/HouseObjects/sponge.png,0.5,3,-0.2,-0.15,left,64,2021-03-29_17h08.51.324,premup-three_ses-01_part-01_label-phase1,3.2.4,Win32,60,right,1.160000086,4,0,4,0,1,3,1,0,240,40,1,239,,,,,,,,,,,,,,,,,,
,,1,44,,,,,,,3,2,3,stim/23.jpeg,HouseObjects,1,stim/objects/HouseObjects/vacuumcleaner2.png,0.9,4,0.2,-0.15,left,64,2021-03-29_17h08.51.324,premup-three_ses-01_part-01_label-phase1,3.2.4,Win32,60,left,0.690999985,4,0,4,0,1,3,1,0,240,210,1,239,,,,,,,,,,,,,,,,,,
,,1,45,,,,,,,3,1,3,stim/13.jpeg,Instruments,2,stim/objects/Instruments/trombone2.png,0.9,3,-0.2,-0.15,right,64,2021-03-29_17h08.51.324,premup-three_ses-01_part-01_label-phase1,3.2.4,Win32,60,right,1.282000065,4,0,4,0,1,3,1,0,240,198,1,239,,,,,,,,,,,,,,,,,,
,,0,46,,,,,,,2,6,2,stim/62.jpeg,Instruments,2,stim/objects/Instruments/saxophone2.png,0.3,3,-0.2,-0.15,right,64,2021-03-29_17h08.51.324,premup-three_ses-01_part-01_label-phase1,3.2.4,Win32,60,left,1.417000055,4,0,4,0,1,3,1,0,240,157,1,239,,,,,,,,,,,,,,,,,,
,,0,47,,,,,,,2,6,4,stim/64.jpeg,Instruments,2,stim/objects/Instruments/tambourine2.png,0.3,3,-0.2,-0.15,right,64,2021-03-29_17h08.51.324,premup-three_ses-01_part-01_label-phase1,3.2.4,Win32,60,left,0.894000053,4,0,4,0,1,3,1,0,240,151,1,239,,,,,,,,,,,,,,,,,,
,,1,48,,,,,,,2,5,2,stim/52.jpeg,Instruments,2,stim/objects/Instruments/violin.png,0.7,4,0.2,-0.15,right,64,2021-03-29_17h08.51.324,premup-three_ses-01_part-01_label-phase1,3.2.4,Win32,60,right,1.429000139,4,0,4,0,1,3,1,0,240,109,1,239,,,,,,,,,,,,,,,,,,
,,0,49,,,,,,,2,5,4,stim/54.jpeg,HouseObjects,1,stim/objects/HouseObjects/wateringcan.png,0.3,2,0.2,0.15,left,64,2021-03-29_17h08.51.324,premup-three_ses-01_part-01_label-phase1,3.2.4,Win32,60,right,1.072999954,4,0,4,0,1,3,1,0,240,87,1,239,,,,,,,,,,,,,,,,,,
,,0,50,,,,,,,1,3,2,stim/32.jpeg,Instruments,2,stim/objects/Instruments/saxophone.png,0.5,1,-0.2,0.15,right,64,2021-03-29_17h08.51.324,premup-three_ses-01_part-01_label-phase1,3.2.4,Win32,60,left,1.430999994,4,0,4,0,1,3,1,0,240,37,1,239,,,,,,,,,,,,,,,,,,
,,1,51,,,,,,,3,2,3,stim/23.jpeg,HouseObjects,1,stim/objects/HouseObjects/vacuumcleaner2.png,0.9,1,-0.2,0.15,left,64,2021-03-29_17h08.51.324,premup-three_ses-01_part-01_label-phase1,3.2.4,Win32,60,left,0.837000132,4,0,4,0,1,3,1,0,240,218,1,239,,,,,,,,,,,,,,,,,,
,,0,52,,,,,,,1,4,1,stim/41.jpeg,HouseObjects,1,stim/objects/HouseObjects/sponge.png,0.5,4,0.2,-0.15,left,64,2021-03-29_17h08.51.324,premup-three_ses-01_part-01_label-phase1,3.2.4,Win32,60,,,4,0,4,0,1,3,1,0,240,44,1,239,,,,,,,,,,,,,,,,,,
,,0,53,,,,,,,2,5,2,stim/52.jpeg,HouseObjects,1,stim/objects/HouseObjects/towel.png,0.3,1,-0.2,0.15,left,64,2021-03-29_17h08.51.324,premup-three_ses-01_part-01_label-phase1,3.2.4,Win32,60,right,1.045000076,4,0,4,0,1,3,1,0,240,85,1,239,,,,,,,,,,,,,,,,,,
,,1,54,,,,,,,3,2,2,stim/22.jpeg,HouseObjects,1,stim/objects/HouseObjects/towel2.png,0.9,2,0.2,0.15,left,64,2021-03-29_17h08.51.324,premup-three_ses-01_part-01_label-phase1,3.2.4,Win32,60,left,1.312000036,4,0,4,0,1,3,1,0,240,201,1,239,,,,,,,,,,,,,,,,,,
,,1,55,,,,,,,1,3,2,stim/32.jpeg,HouseObjects,1,stim/objects/HouseObjects/safetypin.png,0.5,4,0.2,-0.15,left,64,2021-03-29_17h08.51.324,premup-three_ses-01_part-01_label-phase1,3.2.4,Win32,60,left,1.052000284,4,0,4,0,1,3,1,0,240,17,1,239,,,,,,,,,,,,,,,,,,
,,0,56,,,,,,,1,3,1,stim/31.jpeg,Instruments,2,stim/objects/Instruments/record_player.png,0.5,1,-0.2,0.15,right,64,2021-03-29_17h08.51.324,premup-three_ses-01_part-01_label-phase1,3.2.4,Win32,60,left,1.312999964,4,0,4,0,1,3,1,0,240,32,1,239,,,,,,,,,,,,,,,,,,
,,0,57,,,,,,,2,5,3,stim/53.jpeg,Instruments,2,stim/objects/Instruments/vuvuzela.png,0.7,4,0.2,-0.15,right,64,2021-03-29_17h08.51.324,premup-three_ses-01_part-01_label-phase1,3.2.4,Win32,60,left,1.413000107,4,0,4,0,1,3,1,0,240,118,1,239,,,,,,,,,,,,,,,,,,
,,1,58,,,,,,,1,4,4,stim/44.jpeg,Instruments,2,stim/objects/Instruments/trumpet.png,0.5,3,-0.2,-0.15,right,64,2021-03-29_17h08.51.324,premup-three_ses-01_part-01_label-phase1,3.2.4,Win32,60,right,1.371000051,4,0,4,0,1,3,1,0,240,67,1,239,,,,,,,,,,,,,,,,,,
,,1,59,,,,,,,3,2,2,stim/22.jpeg,HouseObjects,1,stim/objects/HouseObjects/towel2.png,0.9,2,0.2,0.15,left,64,2021-03-29_17h08.51.324,premup-three_ses-01_part-01_label-phase1,3.2.4,Win32,60,left,1.037000179,4,0,4,0,1,3,1,0,240,217,1,239,,,,,,,,,,,,,,,,,,
,,0,60,,,,,,,1,3,2,stim/32.jpeg,Instruments,2,stim/objects/Instruments/saxophone.png,0.5,1,-0.2,0.15,right,64,2021-03-29_17h08.51.324,premup-three_ses-01_part-01_label-phase1,3.2.4,Win32,60,left,1.222000122,4,0,4,0,1,3,1,0,240,21,1,239,,,,,,,,,,,,,,,,,,
,,0,61,,,,,,,2,6,3,stim/63.jpeg,HouseObjects,1,stim/objects/HouseObjects/saw2.png,0.7,3,-0.2,-0.15,left,64,2021-03-29_17h08.51.324,premup-three_ses-01_part-01_label-phase1,3.2.4,Win32,60,right,1.664000034,4,0,4,0,1,3,1,0,240,122,1,239,,,,,,,,,,,,,,,,,,
,,0,62,,,,,,,1,4,4,stim/44.jpeg,HouseObjects,1,stim/objects/HouseObjects/thermometer.png,0.5,2,0.2,0.15,left,64,2021-03-29_17h08.51.324,premup-three_ses-01_part-01_label-phase1,3.2.4,Win32,60,right,1.008000135,4,0,4,0,1,3,1,0,240,55,1,239,,,,,,,,,,,,,,,,,,
,,1,63,,,,,,,1,3,2,stim/32.jpeg,HouseObjects,1,stim/objects/HouseObjects/safetypin.png,0.5,1,-0.2,0.15,left,64,2021-03-29_17h08.51.324,premup-three_ses-01_part-01_label-phase1,3.2.4,Win32,60,left,0.674000263,4,0,4,0,1,3,1,0,240,1,1,239,,,,,,,,,,,,,,,,,,
,,1,64,,,,,,,2,5,3,stim/53.jpeg,Instruments,2,stim/objects/Instruments/vuvuzela.png,0.7,4,0.2,-0.15,right,64,2021-03-29_17h08.51.324,premup-three_ses-01_part-01_label-phase1,3.2.4,Win32,60,right,0.948000193,4,0,4,0,1,3,1,0,240,106,1,239,,,,,,,,,,,,,,,,,,
,,1,65,,,,,,,1,3,1,stim/31.jpeg,HouseObjects,1,stim/objects/HouseObjects/rug.png,0.5,3,-0.2,-0.15,left,64,2021-03-29_17h08.51.324,premup-three_ses-01_part-01_label-phase1,3.2.4,Win32,60,left,0.715000391,4,0,4,0,1,3,1,0,240,0,1,239,,,,,,,,,,,,,,,,,,
,,1,66,,,,,,,3,1,1,stim/11.jpeg,Instruments,2,stim/objects/Instruments/timbal2.png,0.9,2,0.2,0.15,right,64,2021-03-29_17h08.51.324,premup-three_ses-01_part-01_label-phase1,3.2.4,Win32,60,right,0.943000078,4,0,4,0,1,3,1,0,240,168,1,239,,,,,,,,,,,,,,,,,,
,,0,67,,,,,,,3,1,4,stim/14.jpeg,Instruments,2,stim/objects/Instruments/trumpet2.png,0.9,3,-0.2,-0.15,right,64,2021-03-29_17h08.51.324,premup-three_ses-01_part-01_label-phase1,3.2.4,Win32,60,left,1.369000196,4,0,4,0,1,3,1,0,240,183,1,239,,,,,,,,,,,,,,,,,,
,,0,68,,,,,,,1,3,1,stim/31.jpeg,Instruments,2,stim/objects/Instruments/record_player.png,0.5,1,-0.2,0.15,right,64,2021-03-29_17h08.51.324,premup-three_ses-01_part-01_label-phase1,3.2.4,Win32,60,left,0.802000284,4,0,4,0,1,3,1,0,240,36,1,239,,,,,,,,,,,,,,,,,,
,,1,69,,,,,,,2,6,3,stim/63.jpeg,HouseObjects,1,stim/objects/HouseObjects/saw2.png,0.7,4,0.2,-0.15,left,64,2021-03-29_17h08.51.324,premup-three_ses-01_part-01_label-phase1,3.2.4,Win32,60,left,1.098999977,4,0,4,0,1,3,1,0,240,146,1,239,,,,,,,,,,,,,,,,,,
,,1,70,,,,,,,2,6,1,stim/61.jpeg,HouseObjects,1,stim/objects/HouseObjects/rug2.png,0.7,3,-0.2,-0.15,left,64,2021-03-29_17h08.51.324,premup-three_ses-01_part-01_label-phase1,3.2.4,Win32,60,left,1.191000223,4,0,4,0,1,3,1,0,240,120,1,239,,,,,,,,,,,,,,,,,,
,,1,71,,,,,,,3,2,2,stim/22.jpeg,HouseObjects,1,stim/objects/HouseObjects/towel2.png,0.9,3,-0.2,-0.15,left,64,2021-03-29_17h08.51.324,premup-three_ses-01_part-01_label-phase1,3.2.4,Win32,60,left,0.974000216,4,0,4,0,1,3,1,0,240,209,1,239,,,,,,,,,,,,,,,,,,
,,0,72,,,,,,,2,5,3,stim/53.jpeg,HouseObjects,1,stim/objects/HouseObjects/vacuumcleaner.png,0.3,3,-0.2,-0.15,left,64,2021-03-29_17h08.51.324,premup-three_ses-01_part-01_label-phase1,3.2.4,Win32,60,right,1.268000364,4,0,4,0,1,3,1,0,240,90,1,239,,,,,,,,,,,,,,,,,,
,,0,73,,,,,,,1,4,3,stim/43.jpeg,Instruments,2,stim/objects/Instruments/trombone.png,0.5,4,0.2,-0.15,right,64,2021-03-29_17h08.51.324,premup-three_ses-01_part-01_label-phase1,3.2.4,Win32,60,left,1.486000299,4,0,4,0,1,3,1,0,240,78,1,239,,,,,,,,,,,,,,,,,,
,,0,74,,,,,,,1,4,3,stim/43.jpeg,HouseObjects,1,stim/objects/HouseObjects/teapot.png,0.5,4,0.2,-0.15,left,64,2021-03-29_17h08.51.324,premup-three_ses-01_part-01_label-phase1,3.2.4,Win32,60,right,0.745000362,4,0,4,0,1,3,1,0,240,42,1,239,,,,,,,,,,,,,,,,,,
,,1,75,,,,,,,1,4,4,stim/44.jpeg,Instruments,2,stim/objects/Instruments/trumpet.png,0.5,3,-0.2,-0.15,right,64,2021-03-29_17h08.51.324,premup-three_ses-01_part-01_label-phase1,3.2.4,Win32,60,right,0.77300024,4,0,4,0,1,3,1,0,240,71,1,239,,,,,,,,,,,,,,,,,,
,,1,76,,,,,,,2,5,4,stim/54.jpeg,Instruments,2,stim/objects/Instruments/xylophone.png,0.7,2,0.2,0.15,right,64,2021-03-29_17h08.51.324,premup-three_ses-01_part-01_label-phase1,3.2.4,Win32,60,right,0.916000128,4,0,4,0,1,3,1,0,240,99,1,239,,,,,,,,,,,,,,,,,,
,,1,77,,,,,,,3,2,1,stim/21.jpeg,HouseObjects,1,stim/objects/HouseObjects/thread2.png,0.9,4,0.2,-0.15,left,64,2021-03-29_17h08.51.324,premup-three_ses-01_part-01_label-phase1,3.2.4,Win32,60,left,0.746999979,4,0,4,0,1,3,1,0,240,232,1,239,,,,,,,,,,,,,,,,,,
,,0,78,,,,,,,1,4,1,stim/41.jpeg,HouseObjects,1,stim/objects/HouseObjects/sponge.png,0.5,2,0.2,0.15,left,64,2021-03-29_17h08.51.324,premup-three_ses-01_part-01_label-phase1,3.2.4,Win32,60,right,0.819000006,4,0,4,0,1,3,1,0,240,48,1,239,,,,,,,,,,,,,,,,,,
,,1,79,,,,,,,3,1,1,stim/11.jpeg,Instruments,2,stim/objects/Instruments/timbal2.png,0.9,1,-0.2,0.15,right,64,2021-03-29_17h08.51.324,premup-three_ses-01_part-01_label-phase1,3.2.4,Win32,60,right,1.545000076,4,0,4,0,1,3,1,0,240,188,1,239,,,,,,,,,,,,,,,,,,
,,0,80,,,,,,,2,5,1,stim/51.jpeg,HouseObjects,1,stim/objects/HouseObjects/thread.png,0.3,2,0.2,0.15,left,64,2021-03-29_17h08.51.324,premup-three_ses-01_part-01_label-phase1,3.2.4,Win32,60,right,0.812000036,4,0,4,0,1,3,1,0,240,88,1,239,,,,,,,,,,,,,,,,,,
,,1,81,,,,,,,2,6,1,stim/61.jpeg,HouseObjects,1,stim/objects/HouseObjects/rug2.png,0.7,2,0.2,0.15,left,64,2021-03-29_17h08.51.324,premup-three_ses-01_part-01_label-phase1,3.2.4,Win32,60,left,0.938000202,4,0,4,0,1,3,1,0,240,136,1,239,,,,,,,,,,,,,,,,,,
,,0,82,,,,,,,2,6,3,stim/63.jpeg,Instruments,2,stim/objects/Instruments/speaker2.png,0.3,3,-0.2,-0.15,right,64,2021-03-29_17h08.51.324,premup-three_ses-01_part-01_label-phase1,3.2.4,Win32,60,left,0.787000179,4,0,4,0,1,3,1,0,240,158,1,239,,,,,,,,,,,,,,,,,,
,,1,83,,,,,,,2,5,1,stim/51.jpeg,Instruments,2,stim/objects/Instruments/tuba.png,0.7,1,-0.2,0.15,right,64,2021-03-29_17h08.51.324,premup-three_ses-01_part-01_label-phase1,3.2.4,Win32,60,right,1.054000139,4,0,4,0,1,3,1,0,240,100,1,239,,,,,,,,,,,,,,,,,,
,,0,84,,,,,,,2,6,2,stim/62.jpeg,Instruments,2,stim/objects/Instruments/saxophone2.png,0.3,4,0.2,-0.15,right,64,2021-03-29_17h08.51.324,premup-three_ses-01_part-01_label-phase1,3.2.4,Win32,60,left,1.396000385,4,0,4,0,1,3,1,0,240,149,1,239,,,,,,,,,,,,,,,,,,
,,1,85,,,,,,,3,1,1,stim/11.jpeg,Instruments,2,stim/objects/Instruments/timbal2.png,0.9,4,0.2,-0.15,right,64,2021-03-29_17h08.51.324,premup-three_ses-01_part-01_label-phase1,3.2.4,Win32,60,right,1.083000183,4,0,4,0,1,3,1,0,240,192,1,239,,,,,,,,,,,,,,,,,,
,,1,86,,,,,,,3,1,3,stim/13.jpeg,Instruments,2,stim/objects/Instruments/trombone2.png,0.9,2,0.2,0.15,right,64,2021-03-29_17h08.51.324,premup-three_ses-01_part-01_label-phase1,3.2.4,Win32,60,right,0.63800025,4,0,4,0,1,3,1,0,240,182,1,239,,,,,,,,,,,,,,,,,,
,,0,87,,,,,,,1,4,4,stim/44.jpeg,HouseObjects,1,stim/objects/HouseObjects/thermometer.png,0.5,2,0.2,0.15,left,64,2021-03-29_17h08.51.324,premup-three_ses-01_part-01_label-phase1,3.2.4,Win32,60,right,0.738000154,4,0,4,0,1,3,1,0,240,59,1,239,,,,,,,,,,,,,,,,,,
,,1,88,,,,,,,3,1,2,stim/12.jpeg,Instruments,2,stim/objects/Instruments/triangle2.png,0.9,1,-0.2,0.15,right,64,2021-03-29_17h08.51.324,premup-three_ses-01_part-01_label-phase1,3.2.4,Win32,60,right,0.847000122,4,0,4,0,1,3,1,0,240,197,1,239,,,,,,,,,,,,,,,,,,
,,0,89,,,,,,,2,6,1,stim/61.jpeg,Instruments,2,stim/objects/Instruments/record_player2.png,0.3,1,-0.2,0.15,right,64,2021-03-29_17h08.51.324,premup-three_ses-01_part-01_label-phase1,3.2.4,Win32,60,left,0.791000128,4,0,4,0,1,3,1,0,240,148,1,239,,,,,,,,,,,,,,,,,,
,,1,90,,,,,,,3,2,3,stim/23.jpeg,HouseObjects,1,stim/objects/HouseObjects/vacuumcleaner2.png,0.9,3,-0.2,-0.15,left,64,2021-03-29_17h08.51.324,premup-three_ses-01_part-01_label-phase1,3.2.4,Win32,60,left,0.850000143,4,0,4,0,1,3,1,0,240,222,1,239,,,,,,,,,,,,,,,,,,
,,1,91,,,,,,,1,3,4,stim/34.jpeg,HouseObjects,1,stim/objects/HouseObjects/scale.png,0.5,2,0.2,0.15,left,64,2021-03-29_17h08.51.324,premup-three_ses-01_part-01_label-phase1,3.2.4,Win32,60,left,0.999000311,4,0,4,0,1,3,1,0,240,15,1,239,,,,,,,,,,,,,,,,,,
,,1,92,,,,,,,2,5,1,stim/51.jpeg,Instruments,2,stim/objects/Instruments/tuba.png,0.7,1,-0.2,0.15,right,64,2021-03-29_17h08.51.324,premup-three_ses-01_part-01_label-phase1,3.2.4,Win32,60,right,1.321000099,4,0,4,0,1,3,1,0,240,92,1,239,,,,,,,,,,,,,,,,,,
,,1,93,,,,,,,1,4,1,stim/41.jpeg,Instruments,2,stim/objects/Instruments/timbal.png,0.5,2,0.2,0.15,right,64,2021-03-29_17h08.51.324,premup-three_ses-01_part-01_label-phase1,3.2.4,Win32,60,right,1.183000088,4,0,4,0,1,3,1,0,240,76,1,239,,,,,,,,,,,,,,,,,,
,,1,94,,,,,,,2,5,4,stim/54.jpeg,Instruments,2,stim/objects/Instruments/xylophone.png,0.7,1,-0.2,0.15,right,64,2021-03-29_17h08.51.324,premup-three_ses-01_part-01_label-phase1,3.2.4,Win32,60,right,1.147000074,4,0,4,0,1,3,1,0,240,107,1,239,,,,,,,,,,,,,,,,,,
,,0,95,,,,,,,1,3,4,stim/34.jpeg,Instruments,2,stim/objects/Instruments/tambourine.png,0.5,1,-0.2,0.15,right,64,2021-03-29_17h08.51.324,premup-three_ses-01_part-01_label-phase1,3.2.4,Win32,60,left,1.295000076,4,0,4,0,1,3,1,0,240,27,1,239,,,,,,,,,,,,,,,,,,
,,0,96,,,,,,,1,4,3,stim/43.jpeg,HouseObjects,1,stim/objects/HouseObjects/teapot.png,0.5,4,0.2,-0.15,left,64,2021-03-29_17h08.51.324,premup-three_ses-01_part-01_label-phase1,3.2.4,Win32,60,right,0.88100028,4,0,4,0,1,3,1,0,240,54,1,239,,,,,,,,,,,,,,,,,,
,,1,97,,,,,,,3,2,4,stim/24.jpeg,HouseObjects,1,stim/objects/HouseObjects/wateringcan2.png,0.9,3,-0.2,-0.15,left,64,2021-03-29_17h08.51.324,premup-three_ses-01_part-01_label-phase1,3.2.4,Win32,60,left,0.906000137,4,0,4,0,1,3,1,0,240,235,1,239,,,,,,,,,,,,,,,,,,
,,1,98,,,,,,,2,5,4,stim/54.jpeg,Instruments,2,stim/objects/Instruments/xylophone.png,0.7,4,0.2,-0.15,right,64,2021-03-29_17h08.51.324,premup-three_ses-01_part-01_label-phase1,3.2.4,Win32,60,right,0.84100008,4,0,4,0,1,3,1,0,240,111,1,239,,,,,,,,,,,,,,,,,,
,,1,99,,,,,,,3,1,4,stim/14.jpeg,Instruments,2,stim/objects/Instruments/trumpet2.png,0.9,1,-0.2,0.15,right,64,2021-03-29_17h08.51.324,premup-three_ses-01_part-01_label-phase1,3.2.4,Win32,60,right,1.472000122,4,0,4,0,1,3,1,0,240,179,1,239,,,,,,,,,,,,,,,,,,
,,0,100,,,,,,,1,4,3,stim/43.jpeg,HouseObjects,1,stim/objects/HouseObjects/teapot.png,0.5,4,0.2,-0.15,left,64,2021-03-29_17h08.51.324,premup-three_ses-01_part-01_label-phase1,3.2.4,Win32,60,right,1.021000147,4,0,4,0,1,3,1,0,240,58,1,239,,,,,,,,,,,,,,,,,,
,,0,101,,,,,,,2,5,2,stim/52.jpeg,HouseObjects,1,stim/objects/HouseObjects/towel.png,0.3,4,0.2,-0.15,left,64,2021-03-29_17h08.51.324,premup-three_ses-01_part-01_label-phase1,3.2.4,Win32,60,right,0.955000162,4,0,4,0,1,3,1,0,240,81,1,239,,,,,,,,,,,,,,,,,,
,,1,102,,,,,,,1,4,1,stim/41.jpeg,Instruments,2,stim/objects/Instruments/timbal.png,0.5,2,0.2,0.15,right,64,2021-03-29_17h08.51.324,premup-three_ses-01_part-01_label-phase1,3.2.4,Win32,60,right,1.373000145,4,0,4,0,1,3,1,0,240,64,1,239,,,,,,,,,,,,,,,,,,
,,1,103,,,,,,,2,5,3,stim/53.jpeg,Instruments,2,stim/objects/Instruments/vuvuzela.png,0.7,2,0.2,0.15,right,64,2021-03-29_17h08.51.324,premup-three_ses-01_part-01_label-phase1,3.2.4,Win32,60,right,0.715000153,4,0,4,0,1,3,1,0,240,94,1,239,,,,,,,,,,,,,,,,,,
,,1,104,,,,,,,2,5,1,stim/51.jpeg,Instruments,2,stim/objects/Instruments/tuba.png,0.7,2,0.2,0.15,right,64,2021-03-29_17h08.51.324,premup-three_ses-01_part-01_label-phase1,3.2.4,Win32,60,right,0.726000309,4,0,4,0,1,3,1,0,240,104,1,239,,,,,,,,,,,,,,,,,,
,,1,105,,,,,,,3,2,4,stim/24.jpeg,HouseObjects,1,stim/objects/HouseObjects/wateringcan2.png,0.9,1,-0.2,0.15,left,64,2021-03-29_17h08.51.324,premup-three_ses-01_part-01_label-phase1,3.2.4,Win32,60,left,1.235000134,4,0,4,0,1,3,1,0,240,231,1,239,,,,,,,,,,,,,,,,,,
,,1,106,,,,,,,3,1,3,stim/13.jpeg,Instruments,2,stim/objects/Instruments/trombone2.png,0.9,3,-0.2,-0.15,right,64,2021-03-29_17h08.51.324,premup-three_ses-01_part-01_label-phase1,3.2.4,Win32,60,right,1.066000223,4,0,4,0,1,3,1,0,240,190,1,239,,,,,,,,,,,,,,,,,,
,,1,107,,,,,,,1,3,4,stim/34.jpeg,HouseObjects,1,stim/objects/HouseObjects/scale.png,0.5,3,-0.2,-0.15,left,64,2021-03-29_17h08.51.324,premup-three_ses-01_part-01_label-phase1,3.2.4,Win32,60,left,1.207000017,4,0,4,0,1,3,1,0,240,3,1,239,,,,,,,,,,,,,,,,,,
,,0,108,,,,,,,3,1,1,stim/11.jpeg,HouseObjects,1,stim/objects/HouseObjects/sponge2.png,0.1,2,0.2,0.15,left,64,2021-03-29_17h08.51.324,premup-three_ses-01_part-01_label-phase1,3.2.4,Win32,60,right,1.038000345,4,0,4,0,1,3,1,0,240,160,1,239,,,,,,,,,,,,,,,,,,
,,0,109,,,,,,,1,4,1,stim/41.jpeg,HouseObjects,1,stim/objects/HouseObjects/sponge.png,0.5,3,-0.2,-0.15,left,64,2021-03-29_17h08.51.324,premup-three_ses-01_part-01_label-phase1,3.2.4,Win32,60,right,1.176000118,4,0,4,0,1,3,1,0,240,52,1,239,,,,,,,,,,,,,,,,,,
,,0,110,,,,,,,1,3,2,stim/32.jpeg,Instruments,2,stim/objects/Instruments/saxophone.png,0.5,1,-0.2,0.15,right,64,2021-03-29_17h08.51.324,premup-three_ses-01_part-01_label-phase1,3.2.4,Win32,60,left,1.128000259,4,0,4,0,1,3,1,0,240,33,1,239,,,,,,,,,,,,,,,,,,
,,1,111,,,,,,,2,5,4,stim/54.jpeg,Instruments,2,stim/objects/Instruments/xylophone.png,0.7,1,-0.2,0.15,right,64,2021-03-29_17h08.51.324,premup-three_ses-01_part-01_label-phase1,3.2.4,Win32,60,right,0.706000328,4,0,4,0,1,3,1,0,240,119,1,239,,,,,,,,,,,,,,,,,,
,,1,112,,,,,,,2,6,1,stim/61.jpeg,HouseObjects,1,stim/objects/HouseObjects/rug2.png,0.7,2,0.2,0.15,left,64,2021-03-29_17h08.51.324,premup-three_ses-01_part-01_label-phase1,3.2.4,Win32,60,left,1.094000101,4,0,4,0,1,3,1,0,240,132,1,239,,,,,,,,,,,,,,,,,,
,,1,113,,,,,,,1,4,2,stim/42.jpeg,Instruments,2,stim/objects/Instruments/triangle.png,0.5,3,-0.2,-0.15,right,64,2021-03-29_17h08.51.324,premup-three_ses-01_part-01_label-phase1,3.2.4,Win32,60,right,1.34400034,4,0,4,0,1,3,1,0,240,77,1,239,,,,,,,,,,,,,,,,,,
,,0,114,,,,,,,2,6,4,stim/64.jpeg,HouseObjects,1,stim/objects/HouseObjects/scale2.png,0.7,4,0.2,-0.15,left,64,2021-03-29_17h08.51.324,premup-three_ses-01_part-01_label-phase1,3.2.4,Win32,60,right,1.233000278,4,0,4,0,1,3,1,0,240,139,1,239,,,,,,,,,,,,,,,,,,
,,0,115,,,,,,,1,4,2,stim/42.jpeg,HouseObjects,1,stim/objects/HouseObjects/spraybottle.png,0.5,4,0.2,-0.15,left,64,2021-03-29_17h08.51.324,premup-three_ses-01_part-01_label-phase1,3.2.4,Win32,60,right,1.181000233,4,0,4,0,1,3,1,0,240,53,1,239,,,,,,,,,,,,,,,,,,
,,1,116,,,,,,,1,3,1,stim/31.jpeg,HouseObjects,1,stim/objects/HouseObjects/rug.png,0.5,2,0.2,0.15,left,64,2021-03-29_17h08.51.324,premup-three_ses-01_part-01_label-phase1,3.2.4,Win32,60,left,1.217000008,4,0,4,0,1,3,1,0,240,12,1,239,,,,,,,,,,,,,,,,,,
,,0,117,,,,,,,2,6,3,stim/63.jpeg,Instruments,2,stim/objects/Instruments/speaker2.png,0.3,4,0.2,-0.15,right,64,2021-03-29_17h08.51.324,premup-three_ses-01_part-01_label-phase1,3.2.4,Win32,60,left,1.061000109,4,0,4,0,1,3,1,0,240,154,1,239,,,,,,,,,,,,,,,,,,
,,0,118,,,,,,,2,6,4,stim/64.jpeg,Instruments,2,stim/objects/Instruments/tambourine2.png,0.3,4,0.2,-0.15,right,64,2021-03-29_17h08.51.324,premup-three_ses-01_part-01_label-phase1,3.2.4,Win32,60,left,0.834000349,4,0,4,0,1,3,1,0,240,159,1,239,,,,,,,,,,,,,,,,,,
,,0,119,,,,,,,1,4,1,stim/41.jpeg,HouseObjects,1,stim/objects/HouseObjects/sponge.png,0.5,4,0.2,-0.15,left,64,2021-03-29_17h08.51.324,premup-three_ses-01_part-01_label-phase1,3.2.4,Win32,60,right,0.726000309,4,0,4,0,1,3,1,0,240,56,1,239,,,,,,,,,,,,,,,,,,
,,0,120,,,,,,,3,1,4,stim/14.jpeg,Instruments,2,stim/objects/Instruments/trumpet2.png,0.9,2,0.2,0.15,right,64,2021-03-29_17h08.51.324,premup-three_ses-01_part-01_label-phase1,3.2.4,Win32,60,left,1.407000065,4,0,4,0,1,3,1,0,240,175,1,239,,,,,,,,,,,,,,,,,,
,,0,121,,,,,,,3,2,4,stim/24.jpeg,Instruments,2,stim/objects/Instruments/xylophone2.png,0.1,3,-0.2,-0.15,right,64,2021-03-29_17h08.51.324,premup-three_ses-01_part-01_label-phase1,3.2.4,Win32,60,left,0.721000195,4,0,4,0,1,3,1,0,240,239,1,239,,,,,,,,,,,,,,,,,,
,,0,122,,,,,,,2,5,3,stim/53.jpeg,HouseObjects,1,stim/objects/HouseObjects/vacuumcleaner.png,0.3,3,-0.2,-0.15,left,64,2021-03-29_17h08.51.324,premup-three_ses-01_part-01_label-phase1,3.2.4,Win32,60,right,1.110000134,4,0,4,0,1,3,1,0,240,82,1,239,,,,,,,,,,,,,,,,,,
,,1,123,,,,,,,3,1,4,stim/14.jpeg,Instruments,2,stim/objects/Instruments/trumpet2.png,0.9,2,0.2,0.15,right,64,2021-03-29_17h08.51.324,premup-three_ses-01_part-01_label-phase1,3.2.4,Win32,60,right,1.173000097,4,0,4,0,1,3,1,0,240,171,1,239,,,,,,,,,,,,,,,,,,
,,0,124,,,,,,,2,6,4,stim/64.jpeg,Instruments,2,stim/objects/Instruments/tambourine2.png,0.3,1,-0.2,0.15,right,64,2021-03-29_17h08.51.324,premup-three_ses-01_part-01_label-phase1,3.2.4,Win32,60,left,0.926000118,4,0,4,0,1,3,1,0,240,155,1,239,,,,,,,,,,,,,,,,,,
,,0,125,,,,,,,3,1,4,stim/14.jpeg,Instruments,2,stim/objects/Instruments/trumpet2.png,0.9,1,-0.2,0.15,right,64,2021-03-29_17h08.51.324,premup-three_ses-01_part-01_label-phase1,3.2.4,Win32,60,left,1.319000006,4,0,4,0,1,3,1,0,240,199,1,239,,,,,,,,,,,,,,,,,,
,,1,126,,,,,,,3,1,3,stim/13.jpeg,Instruments,2,stim/objects/Instruments/trombone2.png,0.9,4,0.2,-0.15,right,64,2021-03-29_17h08.51.324,premup-three_ses-01_part-01_label-phase1,3.2.4,Win32,60,right,0.937000036,4,0,4,0,1,3,1,0,240,166,1,239,,,,,,,,,,,,,,,,,,
,,0,127,,,,,,,1,3,1,stim/31.jpeg,Instruments,2,stim/objects/Instruments/record_player.png,0.5,2,0.2,0.15,right,64,2021-03-29_17h08.51.324,premup-three_ses-01_part-01_label-phase1,3.2.4,Win32,60,left,0.907000065,4,0,4,0,1,3,1,0,240,28,1,239,,,,,,,,,,,,,,,,,,
,,1,128,,,,,,,1,3,3,stim/33.jpeg,HouseObjects,1,stim/objects/HouseObjects/saw.png,0.5,1,-0.2,0.15,left,64,2021-03-29_17h08.51.324,premup-three_ses-01_part-01_label-phase1,3.2.4,Win32,60,left,0.7900002,4,0,4,0,1,3,1,0,240,10,1,239,,,,,,,,,,,,,,,,,,
,,1,129,,,,,,,2,5,1,stim/51.jpeg,Instruments,2,stim/objects/Instruments/tuba.png,0.7,2,0.2,0.15,right,64,2021-03-29_17h08.51.324,premup-three_ses-01_part-01_label-phase1,3.2.4,Win32,60,right,1.129000187,4,0,4,0,1,3,1,0,240,116,1,239,,,,,,,,,,,,,,,,,,
,,0,130,,,,,,,1,4,2,stim/42.jpeg,HouseObjects,1,stim/objects/HouseObjects/spraybottle.png,0.5,2,0.2,0.15,left,64,2021-03-29_17h08.51.324,premup-three_ses-01_part-01_label-phase1,3.2.4,Win32,60,right,1.054000378,4,0,4,0,1,3,1,0,240,41,1,239,,,,,,,,,,,,,,,,,,
,,1,131,,,,,,,1,3,3,stim/33.jpeg,HouseObjects,1,stim/objects/HouseObjects/saw.png,0.5,3,-0.2,-0.15,left,64,2021-03-29_17h08.51.324,premup-three_ses-01_part-01_label-phase1,3.2.4,Win32,60,left,1.017000198,4,0,4,0,1,3,1,0,240,2,1,239,,,,,,,,,,,,,,,,,,
,,1,132,,,,,,,1,3,4,stim/34.jpeg,HouseObjects,1,stim/objects/HouseObjects/scale.png,0.5,3,-0.2,-0.15,left,64,2021-03-29_17h08.51.324,premup-three_ses-01_part-01_label-phase1,3.2.4,Win32,60,left,0.675000191,4,0,4,0,1,3,1,0,240,11,1,239,,,,,,,,,,,,,,,,,,
,,0,133,,,,,,,2,6,1,stim/61.jpeg,Instruments,2,stim/objects/Instruments/record_player2.png,0.3,1,-0.2,0.15,right,64,2021-03-29_17h08.51.324,premup-three_ses-01_part-01_label-phase1,3.2.4,Win32,60,left,0.926000118,4,0,4,0,1,3,1,0,240,152,1,239,,,,,,,,,,,,,,,,,,
,,1,134,,,,,,,3,2,1,stim/21.jpeg,HouseObjects,1,stim/objects/HouseObjects/thread2.png,0.9,1,-0.2,0.15,left,64,2021-03-29_17h08.51.324,premup-three_ses-01_part-01_label-phase1,3.2.4,Win32,60,left,0.65500021,4,0,4,0,1,3,1,0,240,228,1,239,,,,,,,,,,,,,,,,,,
,,1,135,,,,,,,3,2,2,stim/22.jpeg,HouseObjects,1,stim/objects/HouseObjects/towel2.png,0.9,3,-0.2,-0.15,left,64,2021-03-29_17h08.51.324,premup-three_ses-01_part-01_label-phase1,3.2.4,Win32,60,left,0.924000263,4,0,4,0,1,3,1,0,240,213,1,239,,,,,,,,,,,,,,,,,,
,,1,136,,,,,,,3,2,4,stim/24.jpeg,HouseObjects,1,stim/objects/HouseObjects/wateringcan2.png,0.9,2,0.2,0.15,left,64,2021-03-29_17h08.51.324,premup-three_ses-01_part-01_label-phase1,3.2.4,Win32,60,left,0.606000185,4,0,4,0,1,3,1,0,240,215,1,239,,,,,,,,,,,,,,,,,,
,,1,137,,,,,,,2,5,3,stim/53.jpeg,Instruments,2,stim/objects/Instruments/vuvuzela.png,0.7,1,-0.2,0.15,right,64,2021-03-29_17h08.51.324,premup-three_ses-01_part-01_label-phase1,3.2.4,Win32,60,right,1.113000154,4,0,4,0,1,3,1,0,240,98,1,239,,,,,,,,,,,,,,,,,,
,,0,138,,,,,,,1,4,2,stim/42.jpeg,HouseObjects,1,stim/objects/HouseObjects/spraybottle.png,0.5,4,0.2,-0.15,left,64,2021-03-29_17h08.51.324,premup-three_ses-01_part-01_label-phase1,3.2.4,Win32,60,right,1.431000233,4,0,4,0,1,3,1,0,240,49,1,239,,,,,,,,,,,,,,,,,,
,,1,139,,,,,,,3,1,4,stim/14.jpeg,Instruments,2,stim/objects/Instruments/trumpet2.png,0.9,3,-0.2,-0.15,right,64,2021-03-29_17h08.51.324,premup-three_ses-01_part-01_label-phase1,3.2.4,Win32,60,right,0.967000008,4,0,4,0,1,3,1,0,240,167,1,239,,,,,,,,,,,,,,,,,,
,,1,140,,,,,,,2,6,3,stim/63.jpeg,HouseObjects,1,stim/objects/HouseObjects/saw2.png,0.7,4,0.2,-0.15,left,64,2021-03-29_17h08.51.324,premup-three_ses-01_part-01_label-phase1,3.2.4,Win32,60,left,0.712000132,4,0,4,0,1,3,1,0,240,126,1,239,,,,,,,,,,,,,,,,,,
,,1,141,,,,,,,2,5,4,stim/54.jpeg,Instruments,2,stim/objects/Instruments/xylophone.png,0.7,1,-0.2,0.15,right,64,2021-03-29_17h08.51.324,premup-three_ses-01_part-01_label-phase1,3.2.4,Win32,60,right,0.839000225,4,0,4,0,1,3,1,0,240,115,1,239,,,,,,,,,,,,,,,,,,
,,1,142,,,,,,,3,2,4,stim/24.jpeg,HouseObjects,1,stim/objects/HouseObjects/wateringcan2.png,0.9,3,-0.2,-0.15,left,64,2021-03-29_17h08.51.324,premup-three_ses-01_part-01_label-phase1,3.2.4,Win32,60,left,0.813000202,4,0,4,0,1,3,1,0,240,211,1,239,,,,,,,,,,,,,,,,,,
,,0,143,,,,,,,1,3,2,stim/32.jpeg,Instruments,2,stim/objects/Instruments/saxophone.png,0.5,3,-0.2,-0.15,right,64,2021-03-29_17h08.51.324,premup-three_ses-01_part-01_label-phase1,3.2.4,Win32,60,left,1.127000093,4,0,4,0,1,3,1,0,240,25,1,239,,,,,,,,,,,,,,,,,,
,,1,144,,,,,,,3,2,3,stim/23.jpeg,HouseObjects,1,stim/objects/HouseObjects/vacuumcleaner2.png,0.9,2,0.2,0.15,left,64,2021-03-29_17h08.51.324,premup-three_ses-01_part-01_label-phase1,3.2.4,Win32,60,left,0.636000156,4,0,4,0,1,3,1,0,240,230,1,239,,,,,,,,,,,,,,,,,,
,,0,145,,,,,,,1,3,2,stim/32.jpeg,Instruments,2,stim/objects/Instruments/saxophone.png,0.5,4,0.2,-0.15,right,64,2021-03-29_17h08.51.324,premup-three_ses-01_part-01_label-phase1,3.2.4,Win32,60,left,1.437000275,4,0,4,0,1,3,1,0,240,29,1,239,,,,,,,,,,,,,,,,,,
,,0,146,,,,,,,1,3,4,stim/34.jpeg,Instruments,2,stim/objects/Instruments/tambourine.png,0.5,1,-0.2,0.15,right,64,2021-03-29_17h08.51.324,premup-three_ses-01_part-01_label-phase1,3.2.4,Win32,60,left,0.894000053,4,0,4,0,1,3,1,0,240,23,1,239,,,,,,,,,,,,,,,,,,
,,1,147,,,,,,,1,4,2,stim/42.jpeg,Instruments,2,stim/objects/Instruments/triangle.png,0.5,1,-0.2,0.15,right,64,2021-03-29_17h08.51.324,premup-three_ses-01_part-01_label-phase1,3.2.4,Win32,60,right,1.276000023,4,0,4,0,1,3,1,0,240,61,1,239,,,,,,,,,,,,,,,,,,
,,1,148,,,,,,,3,1,4,stim/14.jpeg,Instruments,2,stim/objects/Instruments/trumpet2.png,0.9,3,-0.2,-0.15,right,64,2021-03-29_17h08.51.324,premup-three_ses-01_part-01_label-phase1,3.2.4,Win32,60,right,1.002000093,4,0,4,0,1,3,1,0,240,195,1,239,,,,,,,,,,,,,,,,,,
,,0,149,,,,,,,1,4,2,stim/42.jpeg,HouseObjects,1,stim/objects/HouseObjects/spraybottle.png,0.5,4,0.2,-0.15,left,64,2021-03-29_17h08.51.324,premup-three_ses-01_part-01_label-phase1,3.2.4,Win32,60,right,1.519999981,4,0,4,0,1,3,1,0,240,45,1,239,,,,,,,,,,,,,,,,,,
,,1,150,,,,,,,1,3,3,stim/33.jpeg,Instruments,2,stim/objects/Instruments/speaker.png,0.5,1,-0.2,0.15,right,64,2021-03-29_17h08.51.324,premup-three_ses-01_part-01_label-phase1,3.2.4,Win32,60,right,0.889000177,4,0,4,0,1,3,1,0,240,38,1,239,,,,,,,,,,,,,,,,,,
,,1,151,,,,,,,2,6,2,stim/62.jpeg,HouseObjects,1,stim/objects/HouseObjects/safetypin2.png,0.7,4,0.2,-0.15,left,64,2021-03-29_17h08.51.324,premup-three_ses-01_part-01_label-phase1,3.2.4,Win32,60,left,1.082000256,4,0,4,0,1,3,1,0,240,125,1,239,,,,,,,,,,,,,,,,,,
,,1,152,,,,,,,3,2,3,stim/23.jpeg,HouseObjects,1,stim/objects/HouseObjects/vacuumcleaner2.png,0.9,4,0.2,-0.15,left,64,2021-03-29_17h08.51.324,premup-three_ses-01_part-01_label-phase1,3.2.4,Win32,60,left,0.838999987,4,0,4,0,1,3,1,0,240,226,1,239,,,,,,,,,,,,,,,,,,
,,1,153,,,,,,,2,6,1,stim/61.jpeg,HouseObjects,1,stim/objects/HouseObjects/rug2.png,0.7,3,-0.2,-0.15,left,64,2021-03-29_17h08.51.324,premup-three_ses-01_part-01_label-phase1,3.2.4,Win32,60,left,0.879000187,4,0,4,0,1,3,1,0,240,144,1,239,,,,,,,,,,,,,,,,,,
,,0,154,,,,,,,2,6,2,stim/62.jpeg,Instruments,2,stim/objects/Instruments/saxophone2.png,0.3,4,0.2,-0.15,right,64,2021-03-29_17h08.51.324,premup-three_ses-01_part-01_label-phase1,3.2.4,Win32,60,left,0.97200036,4,0,4,0,1,3,1,0,240,153,1,239,,,,,,,,,,,,,,,,,,
,,1,155,,,,,,,2,5,1,stim/51.jpeg,Instruments,2,stim/objects/Instruments/tuba.png,0.7,3,-0.2,-0.15,right,64,2021-03-29_17h08.51.324,premup-three_ses-01_part-01_label-phase1,3.2.4,Win32,60,right,1.368000269,4,0,4,0,1,3,1,0,240,108,1,239,,,,,,,,,,,,,,,,,,
,,1,156,,,,,,,3,2,4,stim/24.jpeg,HouseObjects,1,stim/objects/HouseObjects/wateringcan2.png,0.9,4,0.2,-0.15,left,64,2021-03-29_17h08.51.324,premup-three_ses-01_part-01_label-phase1,3.2.4,Win32,60,left,0.93200016,4,0,4,0,1,3,1,0,240,227,1,239,,,,,,,,,,,,,,,,,,
,,1,157,,,,,,,3,1,1,stim/11.jpeg,Instruments,2,stim/objects/Instruments/timbal2.png,0.9,2,0.2,0.15,right,64,2021-03-29_17h08.51.324,premup-three_ses-01_part-01_label-phase1,3.2.4,Win32,60,right,1.094000101,4,0,4,0,1,3,1,0,240,196,1,239,,,,,,,,,,,,,,,,,,
,,1,158,,,,,,,2,5,1,stim/51.jpeg,Instruments,2,stim/objects/Instruments/tuba.png,0.7,1,-0.2,0.15,right,64,2021-03-29_17h08.51.324,premup-three_ses-01_part-01_label-phase1,3.2.4,Win32,60,right,1.402000189,4,0,4,0,1,3,1,0,240,96,1,239,,,,,,,,,,,,,,,,,,
,,1,159,,,,,,,2,5,2,stim/52.jpeg,Instruments,2,stim/objects/Instruments/violin.png,0.7,3,-0.2,-0.15,right,64,2021-03-29_17h08.51.324,premup-three_ses-01_part-01_label-phase1,3.2.4,Win32,60,right,0.90500021,4,0,4,0,1,3,1,0,240,93,1,239,,,,,,,,,,,,,,,,,,
,,1,160,,,,,,,3,1,2,stim/12.jpeg,Instruments,2,stim/objects/Instruments/triangle2.png,0.9,4,0.2,-0.15,right,64,2021-03-29_17h08.51.324,premup-three_ses-01_part-01_label-phase1,3.2.4,Win32,60,right,0.618000031,4,0,4,0,1,3,1,0,240,185,1,239,,,,,,,,,,,,,,,,,,
,,1,161,,,,,,,2,6,1,stim/61.jpeg,HouseObjects,1,stim/objects/HouseObjects/rug2.png,0.7,1,-0.2,0.15,left,64,2021-03-29_17h08.51.324,premup-three_ses-01_part-01_label-phase1,3.2.4,Win32,60,left,0.978000164,4,0,4,0,1,3,1,0,240,124,1,239,,,,,,,,,,,,,,,,,,
,,0,162,,,,,,,1,3,3,stim/33.jpeg,HouseObjects,1,stim/objects/HouseObjects/saw.png,0.5,3,-0.2,-0.15,left,64,2021-03-29_17h08.51.324,premup-three_ses-01_part-01_label-phase1,3.2.4,Win32,60,right,0.796000242,4,0,4,0,1,3,1,0,240,18,1,239,,,,,,,,,,,,,,,,,,
,,1,163,,,,,,,2,6,1,stim/61.jpeg,HouseObjects,1,stim/objects/HouseObjects/rug2.png,0.7,3,-0.2,-0.15,left,64,2021-03-29_17h08.51.324,premup-three_ses-01_part-01_label-phase1,3.2.4,Win32,60,left,0.845000029,4,0,4,0,1,3,1,0,240,128,1,239,,,,,,,,,,,,,,,,,,
,,1,164,,,,,,,2,5,4,stim/54.jpeg,Instruments,2,stim/objects/Instruments/xylophone.png,0.7,1,-0.2,0.15,right,64,2021-03-29_17h08.51.324,premup-three_ses-01_part-01_label-phase1,3.2.4,Win32,60,right,0.890000343,4,0,4,0,1,3,1,0,240,95,1,239,,,,,,,,,,,,,,,,,,
,,0,165,,,,,,,2,6,4,stim/64.jpeg,HouseObjects,1,stim/objects/HouseObjects/scale2.png,0.7,4,0.2,-0.15,left,64,2021-03-29_17h08.51.324,premup-three_ses-01_part-01_label-phase1,3.2.4,Win32,60,right,1.231000185,4,0,4,0,1,3,1,0,240,123,1,239,,,,,,,,,,,,,,,,,,
,,1,166,,,,,,,1,3,3,stim/33.jpeg,HouseObjects,1,stim/objects/HouseObjects/saw.png,0.5,1,-0.2,0.15,left,64,2021-03-29_17h08.51.324,premup-three_ses-01_part-01_label-phase1,3.2.4,Win32,60,left,1.022000074,4,0,4,0,1,3,1,0,240,14,1,239,,,,,,,,,,,,,,,,,,
,,1,167,,,,,,,3,2,1,stim/21.jpeg,HouseObjects,1,stim/objects/HouseObjects/thread2.png,0.9,4,0.2,-0.15,left,64,2021-03-29_17h08.51.324,premup-three_ses-01_part-01_label-phase1,3.2.4,Win32,60,left,1.18900013,4,0,4,0,1,3,1,0,240,224,1,239,,,,,,,,,,,,,,,,,,
,,0,168,,,,,,,2,6,4,stim/64.jpeg,HouseObjects,1,stim/objects/HouseObjects/scale2.png,0.7,2,0.2,0.15,left,64,2021-03-29_17h08.51.324,premup-three_ses-01_part-01_label-phase1,3.2.4,Win32,60,right,0.960000038,4,0,4,0,1,3,1,0,240,147,1,239,,,,,,,,,,,,,,,,,,
,,1,169,,,,,,,3,2,4,stim/24.jpeg,HouseObjects,1,stim/objects/HouseObjects/wateringcan2.png,0.9,1,-0.2,0.15,left,64,2021-03-29_17h08.51.324,premup-three_ses-01_part-01_label-phase1,3.2.4,Win32,60,left,0.93900013,4,0,4,0,1,3,1,0,240,207,1,239,,,,,,,,,,,,,,,,,,
,,1,170,,,,,,,2,6,4,stim/64.jpeg,HouseObjects,1,stim/objects/HouseObjects/scale2.png,0.7,2,0.2,0.15,left,64,2021-03-29_17h08.51.324,premup-three_ses-01_part-01_label-phase1,3.2.4,Win32,60,left,0.896000147,4,0,4,0,1,3,1,0,240,131,1,239,,,,,,,,,,,,,,,,,,
,,0,171,,,,,,,1,4,4,stim/44.jpeg,HouseObjects,1,stim/objects/HouseObjects/thermometer.png,0.5,3,-0.2,-0.15,left,64,2021-03-29_17h08.51.324,premup-three_ses-01_part-01_label-phase1,3.2.4,Win32,60,right,0.897000313,4,0,4,0,1,3,1,0,240,43,1,239,,,,,,,,,,,,,,,,,,
,,0,172,,,,,,,1,4,3,stim/43.jpeg,Instruments,2,stim/objects/Instruments/trombone.png,0.5,3,-0.2,-0.15,right,64,2021-03-29_17h08.51.324,premup-three_ses-01_part-01_label-phase1,3.2.4,Win32,60,left,0.877000093,4,0,4,0,1,3,1,0,240,74,1,239,,,,,,,,,,,,,,,,,,
,,1,173,,,,,,,1,3,4,stim/34.jpeg,Instruments,2,stim/objects/Instruments/tambourine.png,0.5,1,-0.2,0.15,right,64,2021-03-29_17h08.51.324,premup-three_ses-01_part-01_label-phase1,3.2.4,Win32,60,right,1.1650002,4,0,4,0,1,3,1,0,240,31,1,239,,,,,,,,,,,,,,,,,,
,,1,174,,,,,,,2,5,2,stim/52.jpeg,Instruments,2,stim/objects/Instruments/violin.png,0.7,2,0.2,0.15,right,64,2021-03-29_17h08.51.324,premup-three_ses-01_part-01_label-phase1,3.2.4,Win32,60,right,0.805000067,4,0,4,0,1,3,1,0,240,117,1,239,,,,,,,,,,,,,,,,,,
,,1,175,,,,,,,2,5,2,stim/52.jpeg,Instruments,2,stim/objects/Instruments/violin.png,0.7,3,-0.2,-0.15,right,64,2021-03-29_17h08.51.324,premup-three_ses-01_part-01_label-phase1,3.2.4,Win32,60,right,0.589000225,4,0,4,0,1,3,1,0,240,97,1,239,,,,,,,,,,,,,,,,,,
,,0,176,,,,,,,1,3,1,stim/31.jpeg,Instruments,2,stim/objects/Instruments/record_player.png,0.5,1,-0.2,0.15,right,64,2021-03-29_17h08.51.324,premup-three_ses-01_part-01_label-phase1,3.2.4,Win32,60,left,0.851999998,4,0,4,0,1,3,1,0,240,20,1,239,,,,,,,,,,,,,,,,,,
,,1,177,,,,,,,1,4,3,stim/43.jpeg,Instruments,2,stim/objects/Instruments/trombone.png,0.5,4,0.2,-0.15,right,64,2021-03-29_17h08.51.324,premup-three_ses-01_part-01_label-phase1,3.2.4,Win32,60,right,0.75,4,0,4,0,1,3,1,0,240,66,1,239,,,,,,,,,,,,,,,,,,
,,1,178,,,,,,,2,6,3,stim/63.jpeg,HouseObjects,1,stim/objects/HouseObjects/saw2.png,0.7,3,-0.2,-0.15,left,64,2021-03-29_17h08.51.324,premup-three_ses-01_part-01_label-phase1,3.2.4,Win32,60,left,0.955000162,4,0,4,0,1,3,1,0,240,142,1,239,,,,,,,,,,,,,,,,,,
,,1,179,,,,,,,2,6,3,stim/63.jpeg,HouseObjects,1,stim/objects/HouseObjects/saw2.png,0.7,2,0.2,0.15,left,64,2021-03-29_17h08.51.324,premup-three_ses-01_part-01_label-phase1,3.2.4,Win32,60,left,0.658000231,4,0,4,0,1,3,1,0,240,130,1,239,,,,,,,,,,,,,,,,,,
,,1,180,,,,,,,3,1,3,stim/13.jpeg,Instruments,2,stim/objects/Instruments/trombone2.png,0.9,3,-0.2,-0.15,right,64,2021-03-29_17h08.51.324,premup-three_ses-01_part-01_label-phase1,3.2.4,Win32,60,right,1.204000235,4,0,4,0,1,3,1,0,240,186,1,239,,,,,,,,,,,,,,,,,,
,,0,181,,,,,,,3,1,4,stim/14.jpeg,HouseObjects,1,stim/objects/HouseObjects/thermometer2.png,0.1,3,-0.2,-0.15,left,64,2021-03-29_17h08.51.324,premup-three_ses-01_part-01_label-phase1,3.2.4,Win32,60,right,0.746000051,4,0,4,0,1,3,1,0,240,163,1,239,,,,,,,,,,,,,,,,,,
,,1,182,,,,,,,2,5,2,stim/52.jpeg,Instruments,2,stim/objects/Instruments/violin.png,0.7,2,0.2,0.15,right,64,2021-03-29_17h08.51.324,premup-three_ses-01_part-01_label-phase1,3.2.4,Win32,60,right,0.623000145,4,0,4,0,1,3,1,0,240,113,1,239,,,,,,,,,,,,,,,,,,
,,1,183,,,,,,,3,1,1,stim/11.jpeg,Instruments,2,stim/objects/Instruments/timbal2.png,0.9,4,0.2,-0.15,right,64,2021-03-29_17h08.51.324,premup-three_ses-01_part-01_label-phase1,3.2.4,Win32,60,right,1.061000109,4,0,4,0,1,3,1,0,240,172,1,239,,,,,,,,,,,,,,,,,,
,,1,184,,,,,,,3,2,4,stim/24.jpeg,HouseObjects,1,stim/objects/HouseObjects/wateringcan2.png,0.9,4,0.2,-0.15,left,64,2021-03-29_17h08.51.324,premup-three_ses-01_part-01_label-phase1,3.2.4,Win32,60,left,1.062000036,4,0,4,0,1,3,1,0,240,223,1,239,,,,,,,,,,,,,,,,,,
,,1,185,,,,,,,3,1,1,stim/11.jpeg,Instruments,2,stim/objects/Instruments/timbal2.png,0.9,1,-0.2,0.15,right,64,2021-03-29_17h08.51.324,premup-three_ses-01_part-01_label-phase1,3.2.4,Win32,60,right,0.803000212,4,0,4,0,1,3,1,0,240,184,1,239,,,,,,,,,,,,,,,,,,
,,1,186,,,,,,,3,1,1,stim/11.jpeg,Instruments,2,stim/objects/Instruments/timbal2.png,0.9,1,-0.2,0.15,right,64,2021-03-29_17h08.51.324,premup-three_ses-01_part-01_label-phase1,3.2.4,Win32,60,right,0.653000116,4,0,4,0,1,3,1,0,240,180,1,239,,,,,,,,,,,,,,,,,,
,,1,187,,,,,,,1,4,3,stim/43.jpeg,Instruments,2,stim/objects/Instruments/trombone.png,0.5,3,-0.2,-0.15,right,64,2021-03-29_17h08.51.324,premup-three_ses-01_part-01_label-phase1,3.2.4,Win32,60,right,1.360000372,4,0,4,0,1,3,1,0,240,70,1,239,,,,,,,,,,,,,,,,,,
,,0,188,,,,,,,1,4,4,stim/44.jpeg,HouseObjects,1,stim/objects/HouseObjects/thermometer.png,0.5,3,-0.2,-0.15,left,64,2021-03-29_17h08.51.324,premup-three_ses-01_part-01_label-phase1,3.2.4,Win32,60,right,0.527000189,4,0,4,0,1,3,1,0,240,47,1,239,,,,,,,,,,,,,,,,,,
,,0,189,,,,,,,1,4,3,stim/43.jpeg,HouseObjects,1,stim/objects/HouseObjects/teapot.png,0.5,2,0.2,0.15,left,64,2021-03-29_17h08.51.324,premup-three_ses-01_part-01_label-phase1,3.2.4,Win32,60,right,0.674000263,4,0,4,0,1,3,1,0,240,46,1,239,,,,,,,,,,,,,,,,,,
,,1,190,,,,,,,3,2,1,stim/21.jpeg,HouseObjects,1,stim/objects/HouseObjects/thread2.png,0.9,2,0.2,0.15,left,64,2021-03-29_17h08.51.324,premup-three_ses-01_part-01_label-phase1,3.2.4,Win32,60,left,0.7900002,4,0,4,0,1,3,1,0,240,212,1,239,,,,,,,,,,,,,,,,,,
,,1,191,,,,,,,2,6,1,stim/61.jpeg,HouseObjects,1,stim/objects/HouseObjects/rug2.png,0.7,1,-0.2,0.15,left,64,2021-03-29_17h08.51.324,premup-three_ses-01_part-01_label-phase1,3.2.4,Win32,60,left,0.657000065,4,0,4,0,1,3,1,0,240,140,1,239,,,,,,,,,,,,,,,,,,
,,1,192,,,,,,,1,4,4,stim/44.jpeg,Instruments,2,stim/objects/Instruments/trumpet.png,0.5,4,0.2,-0.15,right,64,2021-03-29_17h08.51.324,premup-three_ses-01_part-01_label-phase1,3.2.4,Win32,60,right,0.779999971,4,0,4,0,1,3,1,0,240,79,1,239,,,,,,,,,,,,,,,,,,
,,1,193,,,,,,,3,1,2,stim/12.jpeg,Instruments,2,stim/objects/Instruments/triangle2.png,0.9,3,-0.2,-0.15,right,64,2021-03-29_17h08.51.324,premup-three_ses-01_part-01_label-phase1,3.2.4,Win32,60,right,0.802000284,4,0,4,0,1,3,1,0,240,181,1,239,,,,,,,,,,,,,,,,,,
,,1,194,,,,,,,3,1,3,stim/13.jpeg,Instruments,2,stim/objects/Instruments/trombone2.png,0.9,2,0.2,0.15,right,64,2021-03-29_17h08.51.324,premup-three_ses-01_part-01_label-phase1,3.2.4,Win32,60,right,0.700000048,4,0,4,0,1,3,1,0,240,174,1,239,,,,,,,,,,,,,,,,,,
,,1,195,,,,,,,2,5,2,stim/52.jpeg,Instruments,2,stim/objects/Instruments/violin.png,0.7,2,0.2,0.15,right,64,2021-03-29_17h08.51.324,premup-three_ses-01_part-01_label-phase1,3.2.4,Win32,60,right,0.817000151,4,0,4,0,1,3,1,0,240,105,1,239,,,,,,,,,,,,,,,,,,
,,1,196,,,,,,,1,4,1,stim/41.jpeg,Instruments,2,stim/objects/Instruments/timbal.png,0.5,1,-0.2,0.15,right,64,2021-03-29_17h08.51.324,premup-three_ses-01_part-01_label-phase1,3.2.4,Win32,60,right,0.831000328,4,0,4,0,1,3,1,0,240,72,1,239,,,,,,,,,,,,,,,,,,
,,1,197,,,,,,,3,2,2,stim/22.jpeg,HouseObjects,1,stim/objects/HouseObjects/towel2.png,0.9,4,0.2,-0.15,left,64,2021-03-29_17h08.51.324,premup-three_ses-01_part-01_label-phase1,3.2.4,Win32,60,left,0.93200016,4,0,4,0,1,3,1,0,240,221,1,239,,,,,,,,,,,,,,,,,,
,,1,198,,,,,,,1,3,4,stim/34.jpeg,Instruments,2,stim/objects/Instruments/tambourine.png,0.5,4,0.2,-0.15,right,64,2021-03-29_17h08.51.324,premup-three_ses-01_part-01_label-phase1,3.2.4,Win32,60,right,1.208000183,4,0,4,0,1,3,1,0,240,39,1,239,,,,,,,,,,,,,,,,,,
,,1,199,,,,,,,3,2,2,stim/22.jpeg,HouseObjects,1,stim/objects/HouseObjects/towel2.png,0.9,2,0.2,0.15,left,64,2021-03-29_17h08.51.324,premup-three_ses-01_part-01_label-phase1,3.2.4,Win32,60,left,0.570000172,4,0,4,0,1,3,1,0,240,233,1,239,,,,,,,,,,,,,,,,,,
,,1,200,,,,,,,1,4,1,stim/41.jpeg,Instruments,2,stim/objects/Instruments/timbal.png,0.5,4,0.2,-0.15,right,64,2021-03-29_17h08.51.324,premup-three_ses-01_part-01_label-phase1,3.2.4,Win32,60,right,0.70200038,4,0,4,0,1,3,1,0,240,60,1,239,,,,,,,,,,,,,,,,,,
,,0,201,,,,,,,3,2,2,stim/22.jpeg,Instruments,2,stim/objects/Instruments/violin2.png,0.1,4,0.2,-0.15,right,64,2021-03-29_17h08.51.324,premup-three_ses-01_part-01_label-phase1,3.2.4,Win32,60,left,0.587000132,4,0,4,0,1,3,1,0,240,237,1,239,,,,,,,,,,,,,,,,,,
,,0,202,,,,,,,1,3,2,stim/32.jpeg,HouseObjects,1,stim/objects/HouseObjects/safetypin.png,0.5,4,0.2,-0.15,left,64,2021-03-29_17h08.51.324,premup-three_ses-01_part-01_label-phase1,3.2.4,Win32,60,right,0.848999977,4,0,4,0,1,3,1,0,240,13,1,239,,,,,,,,,,,,,,,,,,
,,0,203,,,,,,,2,5,4,stim/54.jpeg,HouseObjects,1,stim/objects/HouseObjects/wateringcan.png,0.3,2,0.2,0.15,left,64,2021-03-29_17h08.51.324,premup-three_ses-01_part-01_label-phase1,3.2.4,Win32,60,right,0.679000139,4,0,4,0,1,3,1,0,240,91,1,239,,,,,,,,,,,,,,,,,,
,,1,204,,,,,,,3,1,2,stim/12.jpeg,Instruments,2,stim/objects/Instruments/triangle2.png,0.9,1,-0.2,0.15,right,64,2021-03-29_17h08.51.324,premup-three_ses-01_part-01_label-phase1,3.2.4,Win32,60,right,0.663000345,4,0,4,0,1,3,1,0,240,193,1,239,,,,,,,,,,,,,,,,,,
,,1,205,,,,,,,3,1,1,stim/11.jpeg,Instruments,2,stim/objects/Instruments/timbal2.png,0.9,1,-0.2,0.15,right,64,2021-03-29_17h08.51.324,premup-three_ses-01_part-01_label-phase1,3.2.4,Win32,60,right,0.483999968,4,0,4,0,1,3,1,0,240,164,1,239,,,,,,,,,,,,,,,,,,
,,1,206,,,,,,,1,3,1,stim/31.jpeg,Instruments,2,stim/objects/Instruments/record_player.png,0.5,4,0.2,-0.15,right,64,2021-03-29_17h08.51.324,premup-three_ses-01_part-01_label-phase1,3.2.4,Win32,60,right,0.958000183,4,0,4,0,1,3,1,0,240,24,1,239,,,,,,,,,,,,,,,,,,
,,1,207,,,,,,,3,1,2,stim/12.jpeg,Instruments,2,stim/objects/Instruments/triangle2.png,0.9,3,-0.2,-0.15,right,64,2021-03-29_17h08.51.324,premup-three_ses-01_part-01_label-phase1,3.2.4,Win32,60,right,0.652000189,4,0,4,0,1,3,1,0,240,177,1,239,,,,,,,,,,,,,,,,,,
,,1,208,,,,,,,2,6,4,stim/64.jpeg,HouseObjects,1,stim/objects/HouseObjects/scale2.png,0.7,3,-0.2,-0.15,left,64,2021-03-29_17h08.51.324,premup-three_ses-01_part-01_label-phase1,3.2.4,Win32,60,left,0.781000137,4,0,4,0,1,3,1,0,240,127,1,239,,,,,,,,,,,,,,,,,,
,,1,209,,,,,,,2,6,4,stim/64.jpeg,HouseObjects,1,stim/objects/HouseObjects/scale2.png,0.7,4,0.2,-0.15,left,64,2021-03-29_17h08.51.324,premup-three_ses-01_part-01_label-phase1,3.2.4,Win32,60,left,0.628000021,4,0,4,0,1,3,1,0,240,143,1,239,,,,,,,,,,,,,,,,,,
,,1,210,,,,,,,1,3,3,stim/33.jpeg,Instruments,2,stim/objects/Instruments/speaker.png,0.5,3,-0.2,-0.15,right,64,2021-03-29_17h08.51.324,premup-three_ses-01_part-01_label-phase1,3.2.4,Win32,60,right,0.792000055,4,0,4,0,1,3,1,0,240,34,1,239,,,,,,,,,,,,,,,,,,
,,1,211,,,,,,,3,2,4,stim/24.jpeg,HouseObjects,1,stim/objects/HouseObjects/wateringcan2.png,0.9,4,0.2,-0.15,left,64,2021-03-29_17h08.51.324,premup-three_ses-01_part-01_label-phase1,3.2.4,Win32,60,left,0.698000193,4,0,4,0,1,3,1,0,240,203,1,239,,,,,,,,,,,,,,,,,,
,,0,212,,,,,,,2,6,2,stim/62.jpeg,HouseObjects,1,stim/objects/HouseObjects/safetypin2.png,0.7,3,-0.2,-0.15,left,64,2021-03-29_17h08.51.324,premup-three_ses-01_part-01_label-phase1,3.2.4,Win32,60,right,0.685000181,4,0,4,0,1,3,1,0,240,121,1,239,,,,,,,,,,,,,,,,,,
,,1,213,,,,,,,3,2,4,stim/24.jpeg,HouseObjects,1,stim/objects/HouseObjects/wateringcan2.png,0.9,2,0.2,0.15,left,64,2021-03-29_17h08.51.324,premup-three_ses-01_part-01_label-phase1,3.2.4,Win32,60,left,0.993000269,4,0,4,0,1,3,1,0,240,219,1,239,,,,,,,,,,,,,,,,,,
,,0,214,,,,,,,2,5,1,stim/51.jpeg,HouseObjects,1,stim/objects/HouseObjects/thread.png,0.3,1,-0.2,0.15,left,64,2021-03-29_17h08.51.324,premup-three_ses-01_part-01_label-phase1,3.2.4,Win32,60,right,0.605000019,4,0,4,0,1,3,1,0,240,80,1,239,,,,,,,,,,,,,,,,,,
,,1,215,,,,,,,3,1,2,stim/12.jpeg,Instruments,2,stim/objects/Instruments/triangle2.png,0.9,3,-0.2,-0.15,right,64,2021-03-29_17h08.51.324,premup-three_ses-01_part-01_label-phase1,3.2.4,Win32,60,right,0.666000128,4,0,4,0,1,3,1,0,240,189,1,239,,,,,,,,,,,,,,,,,,
,,1,216,,,,,,,1,4,4,stim/44.jpeg,Instruments,2,stim/objects/Instruments/trumpet.png,0.5,1,-0.2,0.15,right,64,2021-03-29_17h08.51.324,premup-three_ses-01_part-01_label-phase1,3.2.4,Win32,60,right,0.576000214,4,0,4,0,1,3,1,0,240,63,1,239,,,,,,,,,,,,,,,,,,
,,1,217,,,,,,,3,1,1,stim/11.jpeg,Instruments,2,stim/objects/Instruments/timbal2.png,0.9,1,-0.2,0.15,right,64,2021-03-29_17h08.51.324,premup-three_ses-01_part-01_label-phase1,3.2.4,Win32,60,right,0.890000343,4,0,4,0,1,3,1,0,240,176,1,239,,,,,,,,,,,,,,,,,,
,,0,218,,,,,,,1,3,2,stim/32.jpeg,HouseObjects,1,stim/objects/HouseObjects/safetypin.png,0.5,3,-0.2,-0.15,left,64,2021-03-29_17h08.51.324,premup-three_ses-01_part-01_label-phase1,3.2.4,Win32,60,right,1.150000095,4,0,4,0,1,3,1,0,240,5,1,239,,,,,,,,,,,,,,,,,,
,,1,219,,,,,,,3,1,4,stim/14.jpeg,Instruments,2,stim/objects/Instruments/trumpet2.png,0.9,4,0.2,-0.15,right,64,2021-03-29_17h08.51.324,premup-three_ses-01_part-01_label-phase1,3.2.4,Win32,60,right,0.74000001,4,0,4,0,1,3,1,0,240,187,1,239,,,,,,,,,,,,,,,,,,
,,0,220,,,,,,,1,4,2,stim/42.jpeg,HouseObjects,1,stim/objects/HouseObjects/spraybottle.png,0.5,4,0.2,-0.15,left,64,2021-03-29_17h08.51.324,premup-three_ses-01_part-01_label-phase1,3.2.4,Win32,60,right,0.571000099,4,0,4,0,1,3,1,0,240,57,1,239,,,,,,,,,,,,,,,,,,
,,1,221,,,,,,,2,5,4,stim/54.jpeg,Instruments,2,stim/objects/Instruments/xylophone.png,0.7,3,-0.2,-0.15,right,64,2021-03-29_17h08.51.324,premup-three_ses-01_part-01_label-phase1,3.2.4,Win32,60,right,0.781000137,4,0,4,0,1,3,1,0,240,103,1,239,,,,,,,,,,,,,,,,,,
,,1,222,,,,,,,2,5,3,stim/53.jpeg,Instruments,2,stim/objects/Instruments/vuvuzela.png,0.7,1,-0.2,0.15,right,64,2021-03-29_17h08.51.324,premup-three_ses-01_part-01_label-phase1,3.2.4,Win32,60,right,0.784000158,4,0,4,0,1,3,1,0,240,110,1,239,,,,,,,,,,,,,,,,,,
,,1,223,,,,,,,3,2,3,stim/23.jpeg,HouseObjects,1,stim/objects/HouseObjects/vacuumcleaner2.png,0.9,4,0.2,-0.15,left,64,2021-03-29_17h08.51.324,premup-three_ses-01_part-01_label-phase1,3.2.4,Win32,60,left,0.584000349,4,0,4,0,1,3,1,0,240,202,1,239,,,,,,,,,,,,,,,,,,
,,1,224,,,,,,,3,2,1,stim/21.jpeg,HouseObjects,1,stim/objects/HouseObjects/thread2.png,0.9,4,0.2,-0.15,left,64,2021-03-29_17h08.51.324,premup-three_ses-01_part-01_label-phase1,3.2.4,Win32,60,left,0.757000208,4,0,4,0,1,3,1,0,240,204,1,239,,,,,,,,,,,,,,,,,,
,,0,225,,,,,,,2,6,1,stim/61.jpeg,Instruments,2,stim/objects/Instruments/record_player2.png,0.3,3,-0.2,-0.15,right,64,2021-03-29_17h08.51.324,premup-three_ses-01_part-01_label-phase1,3.2.4,Win32,60,left,0.750000238,4,0,4,0,1,3,1,0,240,156,1,239,,,,,,,,,,,,,,,,,,
,,0,226,,,,,,,2,5,2,stim/52.jpeg,HouseObjects,1,stim/objects/HouseObjects/towel.png,0.3,2,0.2,0.15,left,64,2021-03-29_17h08.51.324,premup-three_ses-01_part-01_label-phase1,3.2.4,Win32,60,right,0.743000031,4,0,4,0,1,3,1,0,240,89,1,239,,,,,,,,,,,,,,,,,,
,,1,227,,,,,,,1,4,2,stim/42.jpeg,Instruments,2,stim/objects/Instruments/triangle.png,0.5,2,0.2,0.15,right,64,2021-03-29_17h08.51.324,premup-three_ses-01_part-01_label-phase1,3.2.4,Win32,60,right,0.715000153,4,0,4,0,1,3,1,0,240,73,1,239,,,,,,,,,,,,,,,,,,
,,1,228,,,,,,,1,3,3,stim/33.jpeg,Instruments,2,stim/objects/Instruments/speaker.png,0.5,3,-0.2,-0.15,right,64,2021-03-29_17h08.51.324,premup-three_ses-01_part-01_label-phase1,3.2.4,Win32,60,right,0.837000132,4,0,4,0,1,3,1,0,240,22,1,239,,,,,,,,,,,,,,,,,,
,,1,229,,,,,,,2,6,2,stim/62.jpeg,HouseObjects,1,stim/objects/HouseObjects/safetypin2.png,0.7,2,0.2,0.15,left,64,2021-03-29_17h08.51.324,premup-three_ses-01_part-01_label-phase1,3.2.4,Win32,60,left,0.765000343,4,0,4,0,1,3,1,0,240,137,1,239,,,,,,,,,,,,,,,,,,
,,1,230,,,,,,,1,3,3,stim/33.jpeg,Instruments,2,stim/objects/Instruments/speaker.png,0.5,2,0.2,0.15,right,64,2021-03-29_17h08.51.324,premup-three_ses-01_part-01_label-phase1,3.2.4,Win32,60,right,0.921000242,4,0,4,0,1,3,1,0,240,30,1,239,,,,,,,,,,,,,,,,,,
,,1,231,,,,,,,2,6,2,stim/62.jpeg,HouseObjects,1,stim/objects/HouseObjects/safetypin2.png,0.7,3,-0.2,-0.15,left,64,2021-03-29_17h08.51.324,premup-three_ses-01_part-01_label-phase1,3.2.4,Win32,60,left,0.768000126,4,0,4,0,1,3,1,0,240,133,1,239,,,,,,,,,,,,,,,,,,
,,1,232,,,,,,,2,5,3,stim/53.jpeg,Instruments,2,stim/objects/Instruments/vuvuzela.png,0.7,2,0.2,0.15,right,64,2021-03-29_17h08.51.324,premup-three_ses-01_part-01_label-phase1,3.2.4,Win32,60,right,0.874000311,4,0,4,0,1,3,1,0,240,114,1,239,,,,,,,,,,,,,,,,,,
,,1,233,,,,,,,3,2,3,stim/23.jpeg,HouseObjects,1,stim/objects/HouseObjects/vacuumcleaner2.png,0.9,1,-0.2,0.15,left,64,2021-03-29_17h08.51.324,premup-three_ses-01_part-01_label-phase1,3.2.4,Win32,60,left,0.637000084,4,0,4,0,1,3,1,0,240,214,1,239,,,,,,,,,,,,,,,,,,
,,1,234,,,,,,,2,5,1,stim/51.jpeg,Instruments,2,stim/objects/Instruments/tuba.png,0.7,2,0.2,0.15,right,64,2021-03-29_17h08.51.324,premup-three_ses-01_part-01_label-phase1,3.2.4,Win32,60,right,0.550000191,4,0,4,0,1,3,1,0,240,112,1,239,,,,,,,,,,,,,,,,,,
,,1,235,,,,,,,3,1,2,stim/12.jpeg,Instruments,2,stim/objects/Instruments/triangle2.png,0.9,1,-0.2,0.15,right,64,2021-03-29_17h08.51.324,premup-three_ses-01_part-01_label-phase1,3.2.4,Win32,60,right,0.835000277,4,0,4,0,1,3,1,0,240,169,1,239,,,,,,,,,,,,,,,,,,
,,0,236,,,,,,,1,4,3,stim/43.jpeg,HouseObjects,1,stim/objects/HouseObjects/teapot.png,0.5,2,0.2,0.15,left,64,2021-03-29_17h08.51.324,premup-three_ses-01_part-01_label-phase1,3.2.4,Win32,60,right,0.760000229,4,0,4,0,1,3,1,0,240,50,1,239,,,,,,,,,,,,,,,,,,
,,1,237,,,,,,,3,2,1,stim/21.jpeg,HouseObjects,1,stim/objects/HouseObjects/thread2.png,0.9,2,0.2,0.15,left,64,2021-03-29_17h08.51.324,premup-three_ses-01_part-01_label-phase1,3.2.4,Win32,60,left,0.766000271,4,0,4,0,1,3,1,0,240,208,1,239,,,,,,,,,,,,,,,,,,
,,1,238,,,,,,,3,1,3,stim/13.jpeg,Instruments,2,stim/objects/Instruments/trombone2.png,0.9,4,0.2,-0.15,right,64,2021-03-29_17h08.51.324,premup-three_ses-01_part-01_label-phase1,3.2.4,Win32,60,right,0.583000183,4,0,4,0,1,3,1,0,240,194,1,239,,,,,,,,,,,,,,,,,,
,,0,239,,,,,,,2,5,4,stim/54.jpeg,HouseObjects,1,stim/objects/HouseObjects/wateringcan.png,0.3,3,-0.2,-0.15,left,64,2021-03-29_17h08.51.324,premup-three_ses-01_part-01_label-phase1,3.2.4,Win32,60,right,0.834000111,4,0,4,0,1,3,1,0,240,83,1,239,,,,,,,,,,,,,,,,,,
,,1,240,,,,,,,2,6,2,stim/62.jpeg,HouseObjects,1,stim/objects/HouseObjects/safetypin2.png,0.7,1,-0.2,0.15,left,64,2021-03-29_17h08.51.324,premup-three_ses-01_part-01_label-phase1,3.2.4,Win32,60,left,0.697000265,4,0,4,0,1,3,1,0,240,145,1,239,,,,,,,,,,,,,,,,,,
,,,,,,,,,,,4,,stim/41.jpeg,,,,,,,,,64,2021-03-29_17h08.51.324,premup-three_ses-01_part-01_label-phase1,3.2.4,Win32,60,,,4,0,4,0,1,3,,,,,,,1,0,40,14.12199998,,,1,0,6,3,1,5,Household items,65,75,Music items,25,35
,,,,,,,,,,,3,,stim/31.jpeg,,,,,,,,,64,2021-03-29_17h08.51.324,premup-three_ses-01_part-01_label-phase1,3.2.4,Win32,60,,,4,0,4,0,1,3,,,,,,,1,0,10,6.679999828,,,1,0,6,2,1,5,Household items,65,75,Music items,25,35
,,,,,,,,,,,5,,stim/51.jpeg,,,,,,,,,64,2021-03-29_17h08.51.324,premup-three_ses-01_part-01_label-phase1,3.2.4,Win32,60,,,4,0,4,0,1,3,,,,,,,1,0,4,4.542000055,,,1,0,6,4,1,5,Music items,5,15,Household items,85,95
,,,,,,,,,,,6,,stim/61.jpeg,,,,,,,,,64,2021-03-29_17h08.51.324,premup-three_ses-01_part-01_label-phase1,3.2.4,Win32,60,,,4,0,4,0,1,3,,,,,,,1,0,90,8.309999943,,,1,0,6,5,1,5,Household items,5,15,Music items,85,95
,,,,,,,,,,,1,,stim/11.jpeg,,,,,,,,,64,2021-03-29_17h08.51.324,premup-three_ses-01_part-01_label-phase1,3.2.4,Win32,60,,,4,0,4,0,1,3,,,,,,,1,0,,,15,5.555000067,1,0,6,0,1,5,Household items,45,55,Music items,45,55
,,,,,,,,,,,2,,stim/21.jpeg,,,,,,,,,64,2021-03-29_17h08.51.324,premup-three_ses-01_part-01_label-phase1,3.2.4,Win32,60,,,4,0,4,0,1,3,,,,,,,1,0,6,13.17799997,,,1,0,6,1,1,5,Music items,45,55,Household items,45,55
,,,,,,,,,,,,,,,,,,,,,,64,2021-03-29_17h08.51.324,premup-three_ses-01_part-01_label-phase1,3.2.4,Win32,60,,,4,0,4,0,1,3,,,,,,,,,,,,,,,,,,,,,,,,
,,1,1,,,,,,,3,2,1,stim/21.jpeg,HouseObjects,1,stim/objects/HouseObjects/thread2.png,0.9,1,-0.2,0.15,left,64,2021-03-29_17h08.51.324,premup-three_ses-01_part-01_label-phase1,3.2.4,Win32,60,left,0.93900013,4,0,4,0,1,3,1,0,240,200,1,239,,,,,,,,,,,,,,,,,,
,,1,2,,,,,,,2,6,2,stim/62.jpeg,HouseObjects,1,stim/objects/HouseObjects/safetypin2.png,0.7,2,0.2,0.15,left,64,2021-03-29_17h08.51.324,premup-three_ses-01_part-01_label-phase1,3.2.4,Win32,60,left,0.774000168,4,0,4,0,1,3,1,0,240,129,1,239,,,,,,,,,,,,,,,,,,
,,0,3,,,,,,,2,6,3,stim/63.jpeg,Instruments,2,stim/objects/Instruments/speaker2.png,0.3,3,-0.2,-0.15,right,64,2021-03-29_17h08.51.324,premup-three_ses-01_part-01_label-phase1,3.2.4,Win32,60,left,1.009000063,4,0,4,0,1,3,1,0,240,158,1,239,,,,,,,,,,,,,,,,,,
,,1,4,,,,,,,2,5,4,stim/54.jpeg,Instruments,2,stim/objects/Instruments/xylophone.png,0.7,3,-0.2,-0.15,right,64,2021-03-29_17h08.51.324,premup-three_ses-01_part-01_label-phase1,3.2.4,Win32,60,right,0.541000128,4,0,4,0,1,3,1,0,240,103,1,239,,,,,,,,,,,,,,,,,,
,,1,5,,,,,,,3,2,4,stim/24.jpeg,HouseObjects,1,stim/objects/HouseObjects/wateringcan2.png,0.9,1,-0.2,0.15,left,64,2021-03-29_17h08.51.324,premup-three_ses-01_part-01_label-phase1,3.2.4,Win32,60,left,0.521000147,4,0,4,0,1,3,1,0,240,231,1,239,,,,,,,,,,,,,,,,,,
,,1,6,,,,,,,2,6,3,stim/63.jpeg,HouseObjects,1,stim/objects/HouseObjects/saw2.png,0.7,4,0.2,-0.15,left,64,2021-03-29_17h08.51.324,premup-three_ses-01_part-01_label-phase1,3.2.4,Win32,60,left,0.812000036,4,0,4,0,1,3,1,0,240,146,1,239,,,,,,,,,,,,,,,,,,
,,1,7,,,,,,,2,5,1,stim/51.jpeg,Instruments,2,stim/objects/Instruments/tuba.png,0.7,3,-0.2,-0.15,right,64,2021-03-29_17h08.51.324,premup-three_ses-01_part-01_label-phase1,3.2.4,Win32,60,right,0.818000078,4,0,4,0,1,3,1,0,240,108,1,239,,,,,,,,,,,,,,,,,,
,,0,8,,,,,,,3,2,3,stim/23.jpeg,Instruments,2,stim/objects/Instruments/vuvuzela2.png,0.1,2,0.2,0.15,right,64,2021-03-29_17h08.51.324,premup-three_ses-01_part-01_label-phase1,3.2.4,Win32,60,left,0.808000088,4,0,4,0,1,3,1,0,240,238,1,239,,,,,,,,,,,,,,,,,,
,,1,9,,,,,,,1,3,1,stim/31.jpeg,HouseObjects,1,stim/objects/HouseObjects/rug.png,0.5,2,0.2,0.15,left,64,2021-03-29_17h08.51.324,premup-three_ses-01_part-01_label-phase1,3.2.4,Win32,60,left,1.850000143,4,0,4,0,1,3,1,0,240,8,1,239,,,,,,,,,,,,,,,,,,
,,1,10,,,,,,,1,4,3,stim/43.jpeg,Instruments,2,stim/objects/Instruments/trombone.png,0.5,3,-0.2,-0.15,right,64,2021-03-29_17h08.51.324,premup-three_ses-01_part-01_label-phase1,3.2.4,Win32,60,right,0.980000019,4,0,4,0,1,3,1,0,240,70,1,239,,,,,,,,,,,,,,,,,,
,,1,11,,,,,,,2,5,3,stim/53.jpeg,Instruments,2,stim/objects/Instruments/vuvuzela.png,0.7,2,0.2,0.15,right,64,2021-03-29_17h08.51.324,premup-three_ses-01_part-01_label-phase1,3.2.4,Win32,60,right,1.022000313,4,0,4,0,1,3,1,0,240,114,1,239,,,,,,,,,,,,,,,,,,
,,1,12,,,,,,,2,6,2,stim/62.jpeg,HouseObjects,1,stim/objects/HouseObjects/safetypin2.png,0.7,1,-0.2,0.15,left,64,2021-03-29_17h08.51.324,premup-three_ses-01_part-01_label-phase1,3.2.4,Win32,60,left,1.123000145,4,0,4,0,1,3,1,0,240,141,1,239,,,,,,,,,,,,,,,,,,
,,1,13,,,,,,,2,6,1,stim/61.jpeg,HouseObjects,1,stim/objects/HouseObjects/rug2.png,0.7,3,-0.2,-0.15,left,64,2021-03-29_17h08.51.324,premup-three_ses-01_part-01_label-phase1,3.2.4,Win32,60,left,0.67200017,4,0,4,0,1,3,1,0,240,128,1,239,,,,,,,,,,,,,,,,,,
,,0,14,,,,,,,1,4,1,stim/41.jpeg,HouseObjects,1,stim/objects/HouseObjects/sponge.png,0.5,3,-0.2,-0.15,left,64,2021-03-29_17h08.51.324,premup-three_ses-01_part-01_label-phase1,3.2.4,Win32,60,right,1.495000362,4,0,4,0,1,3,1,0,240,40,1,239,,,,,,,,,,,,,,,,,,
,,1,15,,,,,,,3,2,3,stim/23.jpeg,HouseObjects,1,stim/objects/HouseObjects/vacuumcleaner2.png,0.9,4,0.2,-0.15,left,64,2021-03-29_17h08.51.324,premup-three_ses-01_part-01_label-phase1,3.2.4,Win32,60,left,0.728000164,4,0,4,0,1,3,1,0,240,206,1,239,,,,,,,,,,,,,,,,,,
,,1,16,,,,,,,2,6,3,stim/63.jpeg,HouseObjects,1,stim/objects/HouseObjects/saw2.png,0.7,3,-0.2,-0.15,left,64,2021-03-29_17h08.51.324,premup-three_ses-01_part-01_label-phase1,3.2.4,Win32,60,left,1.203999996,4,0,4,0,1,3,1,0,240,122,1,239,,,,,,,,,,,,,,,,,,
,,0,17,,,,,,,2,5,4,stim/54.jpeg,HouseObjects,1,stim/objects/HouseObjects/wateringcan.png,0.3,3,-0.2,-0.15,left,64,2021-03-29_17h08.51.324,premup-three_ses-01_part-01_label-phase1,3.2.4,Win32,60,right,0.776000261,4,0,4,0,1,3,1,0,240,83,1,239,,,,,,,,,,,,,,,,,,
,,1,18,,,,,,,3,1,4,stim/14.jpeg,Instruments,2,stim/objects/Instruments/trumpet2.png,0.9,4,0.2,-0.15,right,64,2021-03-29_17h08.51.324,premup-three_ses-01_part-01_label-phase1,3.2.4,Win32,60,right,0.808000088,4,0,4,0,1,3,1,0,240,187,1,239,,,,,,,,,,,,,,,,,,
,,0,19,,,,,,,1,3,2,stim/32.jpeg,Instruments,2,stim/objects/Instruments/saxophone.png,0.5,1,-0.2,0.15,right,64,2021-03-29_17h08.51.324,premup-three_ses-01_part-01_label-phase1,3.2.4,Win32,60,left,1.15500021,4,0,4,0,1,3,1,0,240,33,1,239,,,,,,,,,,,,,,,,,,
,,1,20,,,,,,,2,6,1,stim/61.jpeg,HouseObjects,1,stim/objects/HouseObjects/rug2.png,0.7,1,-0.2,0.15,left,64,2021-03-29_17h08.51.324,premup-three_ses-01_part-01_label-phase1,3.2.4,Win32,60,left,1.137000322,4,0,4,0,1,3,1,0,240,124,1,239,,,,,,,,,,,,,,,,,,
,,1,21,,,,,,,3,2,1,stim/21.jpeg,HouseObjects,1,stim/objects/HouseObjects/thread2.png,0.9,2,0.2,0.15,left,64,2021-03-29_17h08.51.324,premup-three_ses-01_part-01_label-phase1,3.2.4,Win32,60,left,1.039000273,4,0,4,0,1,3,1,0,240,212,1,239,,,,,,,,,,,,,,,,,,
,,1,22,,,,,,,1,4,2,stim/42.jpeg,Instruments,2,stim/objects/Instruments/triangle.png,0.5,2,0.2,0.15,right,64,2021-03-29_17h08.51.324,premup-three_ses-01_part-01_label-phase1,3.2.4,Win32,60,right,0.875000238,4,0,4,0,1,3,1,0,240,73,1,239,,,,,,,,,,,,,,,,,,
,,1,23,,,,,,,1,3,3,stim/33.jpeg,HouseObjects,1,stim/objects/HouseObjects/saw.png,0.5,3,-0.2,-0.15,left,64,2021-03-29_17h08.51.324,premup-three_ses-01_part-01_label-phase1,3.2.4,Win32,60,left,1.136000156,4,0,4,0,1,3,1,0,240,2,1,239,,,,,,,,,,,,,,,,,,
,,1,24,,,,,,,2,5,3,stim/53.jpeg,Instruments,2,stim/objects/Instruments/vuvuzela.png,0.7,4,0.2,-0.15,right,64,2021-03-29_17h08.51.324,premup-three_ses-01_part-01_label-phase1,3.2.4,Win32,60,right,0.603000164,4,0,4,0,1,3,1,0,240,118,1,239,,,,,,,,,,,,,,,,,,
,,0,25,,,,,,,3,1,2,stim/12.jpeg,HouseObjects,1,stim/objects/HouseObjects/spraybottle2.png,0.1,3,-0.2,-0.15,left,64,2021-03-29_17h08.51.324,premup-three_ses-01_part-01_label-phase1,3.2.4,Win32,60,right,1.494000196,4,0,4,0,1,3,1,0,240,161,1,239,,,,,,,,,,,,,,,,,,
,,1,26,,,,,,,3,1,1,stim/11.jpeg,Instruments,2,stim/objects/Instruments/timbal2.png,0.9,1,-0.2,0.15,right,64,2021-03-29_17h08.51.324,premup-three_ses-01_part-01_label-phase1,3.2.4,Win32,60,right,1.333000183,4,0,4,0,1,3,1,0,240,188,1,239,,,,,,,,,,,,,,,,,,
,,1,27,,,,,,,3,1,3,stim/13.jpeg,Instruments,2,stim/objects/Instruments/trombone2.png,0.9,4,0.2,-0.15,right,64,2021-03-29_17h08.51.324,premup-three_ses-01_part-01_label-phase1,3.2.4,Win32,60,right,0.696000099,4,0,4,0,1,3,1,0,240,194,1,239,,,,,,,,,,,,,,,,,,
,,0,28,,,,,,,3,2,2,stim/22.jpeg,HouseObjects,1,stim/objects/HouseObjects/towel2.png,0.9,4,0.2,-0.15,left,64,2021-03-29_17h08.51.324,premup-three_ses-01_part-01_label-phase1,3.2.4,Win32,60,right,1.510000229,4,0,4,0,1,3,1,0,240,221,1,239,,,,,,,,,,,,,,,,,,
,,0,29,,,,,,,2,5,2,stim/52.jpeg,HouseObjects,1,stim/objects/HouseObjects/towel.png,0.3,1,-0.2,0.15,left,64,2021-03-29_17h08.51.324,premup-three_ses-01_part-01_label-phase1,3.2.4,Win32,60,right,0.685000181,4,0,4,0,1,3,1,0,240,85,1,239,,,,,,,,,,,,,,,,,,
,,0,30,,,,,,,1,3,2,stim/32.jpeg,HouseObjects,1,stim/objects/HouseObjects/safetypin.png,0.5,4,0.2,-0.15,left,64,2021-03-29_17h08.51.324,premup-three_ses-01_part-01_label-phase1,3.2.4,Win32,60,right,1.140000343,4,0,4,0,1,3,1,0,240,13,1,239,,,,,,,,,,,,,,,,,,
,,1,31,,,,,,,1,4,3,stim/43.jpeg,Instruments,2,stim/objects/Instruments/trombone.png,0.5,4,0.2,-0.15,right,64,2021-03-29_17h08.51.324,premup-three_ses-01_part-01_label-phase1,3.2.4,Win32,60,right,1.03000021,4,0,4,0,1,3,1,0,240,62,1,239,,,,,,,,,,,,,,,,,,
,,1,32,,,,,,,3,1,1,stim/11.jpeg,Instruments,2,stim/objects/Instruments/timbal2.png,0.9,4,0.2,-0.15,right,64,2021-03-29_17h08.51.324,premup-three_ses-01_part-01_label-phase1,3.2.4,Win32,60,right,0.744000196,4,0,4,0,1,3,1,0,240,192,1,239,,,,,,,,,,,,,,,,,,
,,1,33,,,,,,,3,2,3,stim/23.jpeg,HouseObjects,1,stim/objects/HouseObjects/vacuumcleaner2.png,0.9,4,0.2,-0.15,left,64,2021-03-29_17h08.51.324,premup-three_ses-01_part-01_label-phase1,3.2.4,Win32,60,left,0.618999958,4,0,4,0,1,3,1,0,240,202,1,239,,,,,,,,,,,,,,,,,,
,,1,34,,,,,,,2,5,4,stim/54.jpeg,Instruments,2,stim/objects/Instruments/xylophone.png,0.7,1,-0.2,0.15,right,64,2021-03-29_17h08.51.324,premup-three_ses-01_part-01_label-phase1,3.2.4,Win32,60,right,0.643000126,4,0,4,0,1,3,1,0,240,107,1,239,,,,,,,,,,,,,,,,,,
,,1,35,,,,,,,1,4,1,stim/41.jpeg,Instruments,2,stim/objects/Instruments/timbal.png,0.5,4,0.2,-0.15,right,64,2021-03-29_17h08.51.324,premup-three_ses-01_part-01_label-phase1,3.2.4,Win32,60,right,1.225000143,4,0,4,0,1,3,1,0,240,60,1,239,,,,,,,,,,,,,,,,,,
,,0,36,,,,,,,1,4,2,stim/42.jpeg,HouseObjects,1,stim/objects/HouseObjects/spraybottle.png,0.5,2,0.2,0.15,left,64,2021-03-29_17h08.51.324,premup-three_ses-01_part-01_label-phase1,3.2.4,Win32,60,right,1.044000149,4,0,4,0,1,3,1,0,240,41,1,239,,,,,,,,,,,,,,,,,,
,,1,37,,,,,,,2,5,3,stim/53.jpeg,Instruments,2,stim/objects/Instruments/vuvuzela.png,0.7,1,-0.2,0.15,right,64,2021-03-29_17h08.51.324,premup-three_ses-01_part-01_label-phase1,3.2.4,Win32,60,right,0.745000124,4,0,4,0,1,3,1,0,240,110,1,239,,,,,,,,,,,,,,,,,,
,,1,38,,,,,,,1,3,4,stim/34.jpeg,HouseObjects,1,stim/objects/HouseObjects/scale.png,0.5,4,0.2,-0.15,left,64,2021-03-29_17h08.51.324,premup-three_ses-01_part-01_label-phase1,3.2.4,Win32,60,left,0.976999998,4,0,4,0,1,3,1,0,240,19,1,239,,,,,,,,,,,,,,,,,,
,,1,39,,,,,,,1,3,2,stim/32.jpeg,Instruments,2,stim/objects/Instruments/saxophone.png,0.5,1,-0.2,0.15,right,64,2021-03-29_17h08.51.324,premup-three_ses-01_part-01_label-phase1,3.2.4,Win32,60,right,0.680000067,4,0,4,0,1,3,1,0,240,21,1,239,,,,,,,,,,,,,,,,,,
,,1,40,,,,,,,3,1,4,stim/14.jpeg,Instruments,2,stim/objects/Instruments/trumpet2.png,0.9,3,-0.2,-0.15,right,64,2021-03-29_17h08.51.324,premup-three_ses-01_part-01_label-phase1,3.2.4,Win32,60,right,0.72200036,4,0,4,0,1,3,1,0,240,167,1,239,,,,,,,,,,,,,,,,,,
,,0,41,,,,,,,1,4,1,stim/41.jpeg,HouseObjects,1,stim/objects/HouseObjects/sponge.png,0.5,3,-0.2,-0.15,left,64,2021-03-29_17h08.51.324,premup-three_ses-01_part-01_label-phase1,3.2.4,Win32,60,right,0.880000353,4,0,4,0,1,3,1,0,240,52,1,239,,,,,,,,,,,,,,,,,,
,,0,42,,,,,,,1,3,1,stim/31.jpeg,Instruments,2,stim/objects/Instruments/record_player.png,0.5,1,-0.2,0.15,right,64,2021-03-29_17h08.51.324,premup-three_ses-01_part-01_label-phase1,3.2.4,Win32,60,left,1.282000065,4,0,4,0,1,3,1,0,240,32,1,239,,,,,,,,,,,,,,,,,,
,,1,43,,,,,,,3,2,2,stim/22.jpeg,HouseObjects,1,stim/objects/HouseObjects/towel2.png,0.9,1,-0.2,0.15,left,64,2021-03-29_17h08.51.324,premup-three_ses-01_part-01_label-phase1,3.2.4,Win32,60,left,0.700000048,4,0,4,0,1,3,1,0,240,225,1,239,,,,,,,,,,,,,,,,,,
,,1,44,,,,,,,1,4,3,stim/43.jpeg,Instruments,2,stim/objects/Instruments/trombone.png,0.5,4,0.2,-0.15,right,64,2021-03-29_17h08.51.324,premup-three_ses-01_part-01_label-phase1,3.2.4,Win32,60,right,0.990000248,4,0,4,0,1,3,1,0,240,78,1,239,,,,,,,,,,,,,,,,,,
,,0,45,,,,,,,2,6,2,stim/62.jpeg,Instruments,2,stim/objects/Instruments/saxophone2.png,0.3,3,-0.2,-0.15,right,64,2021-03-29_17h08.51.324,premup-three_ses-01_part-01_label-phase1,3.2.4,Win32,60,left,0.837000132,4,0,4,0,1,3,1,0,240,157,1,239,,,,,,,,,,,,,,,,,,
,,0,46,,,,,,,1,4,4,stim/44.jpeg,HouseObjects,1,stim/objects/HouseObjects/thermometer.png,0.5,1,-0.2,0.15,left,64,2021-03-29_17h08.51.324,premup-three_ses-01_part-01_label-phase1,3.2.4,Win32,60,right,0.916000128,4,0,4,0,1,3,1,0,240,51,1,239,,,,,,,,,,,,,,,,,,
,,1,47,,,,,,,3,1,4,stim/14.jpeg,Instruments,2,stim/objects/Instruments/trumpet2.png,0.9,1,-0.2,0.15,right,64,2021-03-29_17h08.51.324,premup-three_ses-01_part-01_label-phase1,3.2.4,Win32,60,right,1.484000206,4,0,4,0,1,3,1,0,240,179,1,239,,,,,,,,,,,,,,,,,,
,,1,48,,,,,,,1,3,3,stim/33.jpeg,HouseObjects,1,stim/objects/HouseObjects/saw.png,0.5,1,-0.2,0.15,left,64,2021-03-29_17h08.51.324,premup-three_ses-01_part-01_label-phase1,3.2.4,Win32,60,left,1.147000074,4,0,4,0,1,3,1,0,240,14,1,239,,,,,,,,,,,,,,,,,,
,,0,49,,,,,,,2,6,1,stim/61.jpeg,Instruments,2,stim/objects/Instruments/record_player2.png,0.3,1,-0.2,0.15,right,64,2021-03-29_17h08.51.324,premup-three_ses-01_part-01_label-phase1,3.2.4,Win32,60,left,1.042000055,4,0,4,0,1,3,1,0,240,152,1,239,,,,,,,,,,,,,,,,,,
,,0,50,,,,,,,1,3,3,stim/33.jpeg,Instruments,2,stim/objects/Instruments/speaker.png,0.5,3,-0.2,-0.15,right,64,2021-03-29_17h08.51.324,premup-three_ses-01_part-01_label-phase1,3.2.4,Win32,60,left,0.828000069,4,0,4,0,1,3,1,0,240,22,1,239,,,,,,,,,,,,,,,,,,
,,1,51,,,,,,,2,5,1,stim/51.jpeg,Instruments,2,stim/objects/Instruments/tuba.png,0.7,1,-0.2,0.15,right,64,2021-03-29_17h08.51.324,premup-three_ses-01_part-01_label-phase1,3.2.4,Win32,60,right,0.701000214,4,0,4,0,1,3,1,0,240,100,1,239,,,,,,,,,,,,,,,,,,
,,1,52,,,,,,,3,2,4,stim/24.jpeg,HouseObjects,1,stim/objects/HouseObjects/wateringcan2.png,0.9,1,-0.2,0.15,left,64,2021-03-29_17h08.51.324,premup-three_ses-01_part-01_label-phase1,3.2.4,Win32,60,left,0.667999983,4,0,4,0,1,3,1,0,240,207,1,239,,,,,,,,,,,,,,,,,,
,,1,53,,,,,,,3,2,3,stim/23.jpeg,HouseObjects,1,stim/objects/HouseObjects/vacuumcleaner2.png,0.9,2,0.2,0.15,left,64,2021-03-29_17h08.51.324,premup-three_ses-01_part-01_label-phase1,3.2.4,Win32,60,left,0.617000103,4,0,4,0,1,3,1,0,240,230,1,239,,,,,,,,,,,,,,,,,,
,,1,54,,,,,,,3,2,2,stim/22.jpeg,HouseObjects,1,stim/objects/HouseObjects/towel2.png,0.9,3,-0.2,-0.15,left,64,2021-03-29_17h08.51.324,premup-three_ses-01_part-01_label-phase1,3.2.4,Win32,60,left,0.585000038,4,0,4,0,1,3,1,0,240,213,1,239,,,,,,,,,,,,,,,,,,
,,1,55,,,,,,,2,5,2,stim/52.jpeg,Instruments,2,stim/objects/Instruments/violin.png,0.7,4,0.2,-0.15,right,64,2021-03-29_17h08.51.324,premup-three_ses-01_part-01_label-phase1,3.2.4,Win32,60,right,0.690000057,4,0,4,0,1,3,1,0,240,109,1,239,,,,,,,,,,,,,,,,,,
,,1,56,,,,,,,3,2,2,stim/22.jpeg,HouseObjects,1,stim/objects/HouseObjects/towel2.png,0.9,3,-0.2,-0.15,left,64,2021-03-29_17h08.51.324,premup-three_ses-01_part-01_label-phase1,3.2.4,Win32,60,left,0.609000206,4,0,4,0,1,3,1,0,240,229,1,239,,,,,,,,,,,,,,,,,,
,,0,57,,,,,,,2,6,1,stim/61.jpeg,Instruments,2,stim/objects/Instruments/record_player2.png,0.3,1,-0.2,0.15,right,64,2021-03-29_17h08.51.324,premup-three_ses-01_part-01_label-phase1,3.2.4,Win32,60,left,0.949000359,4,0,4,0,1,3,1,0,240,148,1,239,,,,,,,,,,,,,,,,,,
,,1,58,,,,,,,1,4,4,stim/44.jpeg,Instruments,2,stim/objects/Instruments/trumpet.png,0.5,4,0.2,-0.15,right,64,2021-03-29_17h08.51.324,premup-three_ses-01_part-01_label-phase1,3.2.4,Win32,60,right,0.624000072,4,0,4,0,1,3,1,0,240,79,1,239,,,,,,,,,,,,,,,,,,
,,1,59,,,,,,,1,4,4,stim/44.jpeg,Instruments,2,stim/objects/Instruments/trumpet.png,0.5,3,-0.2,-0.15,right,64,2021-03-29_17h08.51.324,premup-three_ses-01_part-01_label-phase1,3.2.4,Win32,60,right,0.75,4,0,4,0,1,3,1,0,240,71,1,239,,,,,,,,,,,,,,,,,,
,,1,60,,,,,,,3,1,2,stim/12.jpeg,Instruments,2,stim/objects/Instruments/triangle2.png,0.9,4,0.2,-0.15,right,64,2021-03-29_17h08.51.324,premup-three_ses-01_part-01_label-phase1,3.2.4,Win32,60,right,0.684000254,4,0,4,0,1,3,1,0,240,185,1,239,,,,,,,,,,,,,,,,,,
,,1,61,,,,,,,2,6,1,stim/61.jpeg,HouseObjects,1,stim/objects/HouseObjects/rug2.png,0.7,1,-0.2,0.15,left,64,2021-03-29_17h08.51.324,premup-three_ses-01_part-01_label-phase1,3.2.4,Win32,60,left,0.84800005,4,0,4,0,1,3,1,0,240,140,1,239,,,,,,,,,,,,,,,,,,
,,0,62,,,,,,,2,6,4,stim/64.jpeg,Instruments,2,stim/objects/Instruments/tambourine2.png,0.3,4,0.2,-0.15,right,64,2021-03-29_17h08.51.324,premup-three_ses-01_part-01_label-phase1,3.2.4,Win32,60,left,0.779000044,4,0,4,0,1,3,1,0,240,159,1,239,,,,,,,,,,,,,,,,,,
,,0,63,,,,,,,1,3,4,stim/34.jpeg,HouseObjects,1,stim/objects/HouseObjects/scale.png,0.5,2,0.2,0.15,left,64,2021-03-29_17h08.51.324,premup-three_ses-01_part-01_label-phase1,3.2.4,Win32,60,right,1.074000359,4,0,4,0,1,3,1,0,240,7,1,239,,,,,,,,,,,,,,,,,,
,,1,64,,,,,,,3,1,4,stim/14.jpeg,Instruments,2,stim/objects/Instruments/trumpet2.png,0.9,1,-0.2,0.15,right,64,2021-03-29_17h08.51.324,premup-three_ses-01_part-01_label-phase1,3.2.4,Win32,60,right,0.635000229,4,0,4,0,1,3,1,0,240,199,1,239,,,,,,,,,,,,,,,,,,
,,1,65,,,,,,,3,2,3,stim/23.jpeg,HouseObjects,1,stim/objects/HouseObjects/vacuumcleaner2.png,0.9,1,-0.2,0.15,left,64,2021-03-29_17h08.51.324,premup-three_ses-01_part-01_label-phase1,3.2.4,Win32,60,left,0.532999992,4,0,4,0,1,3,1,0,240,218,1,239,,,,,,,,,,,,,,,,,,
,,0,66,,,,,,,3,2,1,stim/21.jpeg,Instruments,2,stim/objects/Instruments/tuba2.png,0.1,1,-0.2,0.15,right,64,2021-03-29_17h08.51.324,premup-three_ses-01_part-01_label-phase1,3.2.4,Win32,60,left,0.512000084,4,0,4,0,1,3,1,0,240,236,1,239,,,,,,,,,,,,,,,,,,
,,1,67,,,,,,,2,6,3,stim/63.jpeg,HouseObjects,1,stim/objects/HouseObjects/saw2.png,0.7,4,0.2,-0.15,left,64,2021-03-29_17h08.51.324,premup-three_ses-01_part-01_label-phase1,3.2.4,Win32,60,left,0.893000364,4,0,4,0,1,3,1,0,240,134,1,239,,,,,,,,,,,,,,,,,,
,,1,68,,,,,,,3,1,3,stim/13.jpeg,Instruments,2,stim/objects/Instruments/trombone2.png,0.9,3,-0.2,-0.15,right,64,2021-03-29_17h08.51.324,premup-three_ses-01_part-01_label-phase1,3.2.4,Win32,60,right,0.891000271,4,0,4,0,1,3,1,0,240,198,1,239,,,,,,,,,,,,,,,,,,
,,0,69,,,,,,,2,5,2,stim/52.jpeg,HouseObjects,1,stim/objects/HouseObjects/towel.png,0.3,4,0.2,-0.15,left,64,2021-03-29_17h08.51.324,premup-three_ses-01_part-01_label-phase1,3.2.4,Win32,60,right,0.657999992,4,0,4,0,1,3,1,0,240,81,1,239,,,,,,,,,,,,,,,,,,
,,1,70,,,,,,,3,1,3,stim/13.jpeg,Instruments,2,stim/objects/Instruments/trombone2.png,0.9,3,-0.2,-0.15,right,64,2021-03-29_17h08.51.324,premup-three_ses-01_part-01_label-phase1,3.2.4,Win32,60,right,1.084000111,4,0,4,0,1,3,1,0,240,190,1,239,,,,,,,,,,,,,,,,,,
,,1,71,,,,,,,3,1,2,stim/12.jpeg,Instruments,2,stim/objects/Instruments/triangle2.png,0.9,1,-0.2,0.15,right,64,2021-03-29_17h08.51.324,premup-three_ses-01_part-01_label-phase1,3.2.4,Win32,60,right,0.630000114,4,0,4,0,1,3,1,0,240,173,1,239,,,,,,,,,,,,,,,,,,
,,1,72,,,,,,,1,3,3,stim/33.jpeg,Instruments,2,stim/objects/Instruments/speaker.png,0.5,2,0.2,0.15,right,64,2021-03-29_17h08.51.324,premup-three_ses-01_part-01_label-phase1,3.2.4,Win32,60,right,1.316000223,4,0,4,0,1,3,1,0,240,30,1,239,,,,,,,,,,,,,,,,,,
,,1,73,,,,,,,1,4,1,stim/41.jpeg,Instruments,2,stim/objects/Instruments/timbal.png,0.5,2,0.2,0.15,right,64,2021-03-29_17h08.51.324,premup-three_ses-01_part-01_label-phase1,3.2.4,Win32,60,right,0.628000259,4,0,4,0,1,3,1,0,240,76,1,239,,,,,,,,,,,,,,,,,,
,,1,74,,,,,,,1,3,2,stim/32.jpeg,Instruments,2,stim/objects/Instruments/saxophone.png,0.5,3,-0.2,-0.15,right,64,2021-03-29_17h08.51.324,premup-three_ses-01_part-01_label-phase1,3.2.4,Win32,60,right,0.734000206,4,0,4,0,1,3,1,0,240,25,1,239,,,,,,,,,,,,,,,,,,
,,1,75,,,,,,,3,2,4,stim/24.jpeg,HouseObjects,1,stim/objects/HouseObjects/wateringcan2.png,0.9,3,-0.2,-0.15,left,64,2021-03-29_17h08.51.324,premup-three_ses-01_part-01_label-phase1,3.2.4,Win32,60,left,0.562999964,4,0,4,0,1,3,1,0,240,235,1,239,,,,,,,,,,,,,,,,,,
,,0,76,,,,,,,2,5,3,stim/53.jpeg,HouseObjects,1,stim/objects/HouseObjects/vacuumcleaner.png,0.3,3,-0.2,-0.15,left,64,2021-03-29_17h08.51.324,premup-three_ses-01_part-01_label-phase1,3.2.4,Win32,60,right,0.801000357,4,0,4,0,1,3,1,0,240,90,1,239,,,,,,,,,,,,,,,,,,
,,1,77,,,,,,,1,3,2,stim/32.jpeg,HouseObjects,1,stim/objects/HouseObjects/safetypin.png,0.5,4,0.2,-0.15,left,64,2021-03-29_17h08.51.324,premup-three_ses-01_part-01_label-phase1,3.2.4,Win32,60,left,0.859000206,4,0,4,0,1,3,1,0,240,17,1,239,,,,,,,,,,,,,,,,,,
,,1,78,,,,,,,3,2,2,stim/22.jpeg,HouseObjects,1,stim/objects/HouseObjects/towel2.png,0.9,4,0.2,-0.15,left,64,2021-03-29_17h08.51.324,premup-three_ses-01_part-01_label-phase1,3.2.4,Win32,60,left,0.676000118,4,0,4,0,1,3,1,0,240,205,1,239,,,,,,,,,,,,,,,,,,
,,0,79,,,,,,,2,6,3,stim/63.jpeg,Instruments,2,stim/objects/Instruments/speaker2.png,0.3,1,-0.2,0.15,right,64,2021-03-29_17h08.51.324,premup-three_ses-01_part-01_label-phase1,3.2.4,Win32,60,left,0.708000183,4,0,4,0,1,3,1,0,240,150,1,239,,,,,,,,,,,,,,,,,,
,,0,80,,,,,,,3,1,1,stim/11.jpeg,HouseObjects,1,stim/objects/HouseObjects/sponge2.png,0.1,2,0.2,0.15,left,64,2021-03-29_17h08.51.324,premup-three_ses-01_part-01_label-phase1,3.2.4,Win32,60,right,0.852000237,4,0,4,0,1,3,1,0,240,160,1,239,,,,,,,,,,,,,,,,,,
,,1,81,,,,,,,2,5,2,stim/52.jpeg,Instruments,2,stim/objects/Instruments/violin.png,0.7,3,-0.2,-0.15,right,64,2021-03-29_17h08.51.324,premup-three_ses-01_part-01_label-phase1,3.2.4,Win32,60,right,0.734000206,4,0,4,0,1,3,1,0,240,93,1,239,,,,,,,,,,,,,,,,,,
,,1,82,,,,,,,3,2,2,stim/22.jpeg,Instruments,2,stim/objects/Instruments/violin2.png,0.1,4,0.2,-0.15,right,64,2021-03-29_17h08.51.324,premup-three_ses-01_part-01_label-phase1,3.2.4,Win32,60,right,0.900000334,4,0,4,0,1,3,1,0,240,237,1,239,,,,,,,,,,,,,,,,,,
,,0,83,,,,,,,2,6,4,stim/64.jpeg,Instruments,2,stim/objects/Instruments/tambourine2.png,0.3,3,-0.2,-0.15,right,64,2021-03-29_17h08.51.324,premup-three_ses-01_part-01_label-phase1,3.2.4,Win32,60,left,0.849000216,4,0,4,0,1,3,1,0,240,151,1,239,,,,,,,,,,,,,,,,,,
,,1,84,,,,,,,1,3,1,stim/31.jpeg,Instruments,2,stim/objects/Instruments/record_player.png,0.5,2,0.2,0.15,right,64,2021-03-29_17h08.51.324,premup-three_ses-01_part-01_label-phase1,3.2.4,Win32,60,right,0.971000195,4,0,4,0,1,3,1,0,240,28,1,239,,,,,,,,,,,,,,,,,,
,,1,85,,,,,,,2,6,4,stim/64.jpeg,HouseObjects,1,stim/objects/HouseObjects/scale2.png,0.7,4,0.2,-0.15,left,64,2021-03-29_17h08.51.324,premup-three_ses-01_part-01_label-phase1,3.2.4,Win32,60,left,0.886000156,4,0,4,0,1,3,1,0,240,143,1,239,,,,,,,,,,,,,,,,,,
,,0,86,,,,,,,1,4,1,stim/41.jpeg,HouseObjects,1,stim/objects/HouseObjects/sponge.png,0.5,4,0.2,-0.15,left,64,2021-03-29_17h08.51.324,premup-three_ses-01_part-01_label-phase1,3.2.4,Win32,60,right,0.595000029,4,0,4,0,1,3,1,0,240,56,1,239,,,,,,,,,,,,,,,,,,
,,0,87,,,,,,,3,1,4,stim/14.jpeg,HouseObjects,1,stim/objects/HouseObjects/thermometer2.png,0.1,3,-0.2,-0.15,left,64,2021-03-29_17h08.51.324,premup-three_ses-01_part-01_label-phase1,3.2.4,Win32,60,right,1.343000174,4,0,4,0,1,3,1,0,240,163,1,239,,,,,,,,,,,,,,,,,,
,,0,88,,,,,,,1,3,4,stim/34.jpeg,HouseObjects,1,stim/objects/HouseObjects/scale.png,0.5,3,-0.2,-0.15,left,64,2021-03-29_17h08.51.324,premup-three_ses-01_part-01_label-phase1,3.2.4,Win32,60,right,0.85400033,4,0,4,0,1,3,1,0,240,3,1,239,,,,,,,,,,,,,,,,,,
,,1,89,,,,,,,3,2,3,stim/23.jpeg,HouseObjects,1,stim/objects/HouseObjects/vacuumcleaner2.png,0.9,4,0.2,-0.15,left,64,2021-03-29_17h08.51.324,premup-three_ses-01_part-01_label-phase1,3.2.4,Win32,60,left,0.611000061,4,0,4,0,1,3,1,0,240,226,1,239,,,,,,,,,,,,,,,,,,
,,0,90,,,,,,,1,4,3,stim/43.jpeg,HouseObjects,1,stim/objects/HouseObjects/teapot.png,0.5,4,0.2,-0.15,left,64,2021-03-29_17h08.51.324,premup-three_ses-01_part-01_label-phase1,3.2.4,Win32,60,right,1.236000299,4,0,4,0,1,3,1,0,240,58,1,239,,,,,,,,,,,,,,,,,,
,,0,91,,,,,,,1,3,1,stim/31.jpeg,HouseObjects,1,stim/objects/HouseObjects/rug.png,0.5,2,0.2,0.15,left,64,2021-03-29_17h08.51.324,premup-three_ses-01_part-01_label-phase1,3.2.4,Win32,60,right,1.22300005,4,0,4,0,1,3,1,0,240,12,1,239,,,,,,,,,,,,,,,,,,
,,0,92,,,,,,,1,4,4,stim/44.jpeg,HouseObjects,1,stim/objects/HouseObjects/thermometer.png,0.5,3,-0.2,-0.15,left,64,2021-03-29_17h08.51.324,premup-three_ses-01_part-01_label-phase1,3.2.4,Win32,60,right,0.708000183,4,0,4,0,1,3,1,0,240,47,1,239,,,,,,,,,,,,,,,,,,
,,1,93,,,,,,,3,2,1,stim/21.jpeg,HouseObjects,1,stim/objects/HouseObjects/thread2.png,0.9,4,0.2,-0.15,left,64,2021-03-29_17h08.51.324,premup-three_ses-01_part-01_label-phase1,3.2.4,Win32,60,left,0.519999981,4,0,4,0,1,3,1,0,240,204,1,239,,,,,,,,,,,,,,,,,,
,,1,94,,,,,,,1,3,3,stim/33.jpeg,Instruments,2,stim/objects/Instruments/speaker.png,0.5,3,-0.2,-0.15,right,64,2021-03-29_17h08.51.324,premup-three_ses-01_part-01_label-phase1,3.2.4,Win32,60,right,0.866000175,4,0,4,0,1,3,1,0,240,34,1,239,,,,,,,,,,,,,,,,,,
,,0,95,,,,,,,1,4,2,stim/42.jpeg,HouseObjects,1,stim/objects/HouseObjects/spraybottle.png,0.5,4,0.2,-0.15,left,64,2021-03-29_17h08.51.324,premup-three_ses-01_part-01_label-phase1,3.2.4,Win32,60,right,0.654000044,4,0,4,0,1,3,1,0,240,53,1,239,,,,,,,,,,,,,,,,,,
,,1,96,,,,,,,2,5,1,stim/51.jpeg,Instruments,2,stim/objects/Instruments/tuba.png,0.7,1,-0.2,0.15,right,64,2021-03-29_17h08.51.324,premup-three_ses-01_part-01_label-phase1,3.2.4,Win32,60,right,0.735000134,4,0,4,0,1,3,1,0,240,92,1,239,,,,,,,,,,,,,,,,,,
,,1,97,,,,,,,2,6,2,stim/62.jpeg,HouseObjects,1,stim/objects/HouseObjects/safetypin2.png,0.7,4,0.2,-0.15,left,64,2021-03-29_17h08.51.324,premup-three_ses-01_part-01_label-phase1,3.2.4,Win32,60,left,0.923000097,4,0,4,0,1,3,1,0,240,125,1,239,,,,,,,,,,,,,,,,,,
,,1,98,,,,,,,2,6,1,stim/61.jpeg,HouseObjects,1,stim/objects/HouseObjects/rug2.png,0.7,3,-0.2,-0.15,left,64,2021-03-29_17h08.51.324,premup-three_ses-01_part-01_label-phase1,3.2.4,Win32,60,left,0.710000277,4,0,4,0,1,3,1,0,240,144,1,239,,,,,,,,,,,,,,,,,,
,,1,99,,,,,,,3,1,3,stim/13.jpeg,Instruments,2,stim/objects/Instruments/trombone2.png,0.9,2,0.2,0.15,right,64,2021-03-29_17h08.51.324,premup-three_ses-01_part-01_label-phase1,3.2.4,Win32,60,right,0.632000208,4,0,4,0,1,3,1,0,240,182,1,239,,,,,,,,,,,,,,,,,,
,,0,100,,,,,,,2,5,4,stim/54.jpeg,HouseObjects,1,stim/objects/HouseObjects/wateringcan.png,0.3,2,0.2,0.15,left,64,2021-03-29_17h08.51.324,premup-three_ses-01_part-01_label-phase1,3.2.4,Win32,60,right,0.691000223,4,0,4,0,1,3,1,0,240,91,1,239,,,,,,,,,,,,,,,,,,
,,0,101,,,,,,,2,5,4,stim/54.jpeg,HouseObjects,1,stim/objects/HouseObjects/wateringcan.png,0.3,2,0.2,0.15,left,64,2021-03-29_17h08.51.324,premup-three_ses-01_part-01_label-phase1,3.2.4,Win32,60,right,0.412000179,4,0,4,0,1,3,1,0,240,87,1,239,,,,,,,,,,,,,,,,,,
,,1,102,,,,,,,3,2,1,stim/21.jpeg,HouseObjects,1,stim/objects/HouseObjects/thread2.png,0.9,4,0.2,-0.15,left,64,2021-03-29_17h08.51.324,premup-three_ses-01_part-01_label-phase1,3.2.4,Win32,60,left,0.650000095,4,0,4,0,1,3,1,0,240,220,1,239,,,,,,,,,,,,,,,,,,
,,1,103,,,,,,,3,1,2,stim/12.jpeg,Instruments,2,stim/objects/Instruments/triangle2.png,0.9,3,-0.2,-0.15,right,64,2021-03-29_17h08.51.324,premup-three_ses-01_part-01_label-phase1,3.2.4,Win32,60,right,0.664000273,4,0,4,0,1,3,1,0,240,177,1,239,,,,,,,,,,,,,,,,,,
,,0,104,,,,,,,2,6,2,stim/62.jpeg,Instruments,2,stim/objects/Instruments/saxophone2.png,0.3,4,0.2,-0.15,right,64,2021-03-29_17h08.51.324,premup-three_ses-01_part-01_label-phase1,3.2.4,Win32,60,left,0.743000269,4,0,4,0,1,3,1,0,240,153,1,239,,,,,,,,,,,,,,,,,,
,,1,105,,,,,,,2,5,4,stim/54.jpeg,Instruments,2,stim/objects/Instruments/xylophone.png,0.7,1,-0.2,0.15,right,64,2021-03-29_17h08.51.324,premup-three_ses-01_part-01_label-phase1,3.2.4,Win32,60,right,0.626000166,4,0,4,0,1,3,1,0,240,95,1,239,,,,,,,,,,,,,,,,,,
,,1,106,,,,,,,3,2,3,stim/23.jpeg,HouseObjects,1,stim/objects/HouseObjects/vacuumcleaner2.png,0.9,1,-0.2,0.15,left,64,2021-03-29_17h08.51.324,premup-three_ses-01_part-01_label-phase1,3.2.4,Win32,60,left,0.60800004,4,0,4,0,1,3,1,0,240,214,1,239,,,,,,,,,,,,,,,,,,
,,1,107,,,,,,,1,4,2,stim/42.jpeg,Instruments,2,stim/objects/Instruments/triangle.png,0.5,1,-0.2,0.15,right,64,2021-03-29_17h08.51.324,premup-three_ses-01_part-01_label-phase1,3.2.4,Win32,60,right,1.207000256,4,0,4,0,1,3,1,0,240,65,1,239,,,,,,,,,,,,,,,,,,
,,0,108,,,,,,,1,4,4,stim/44.jpeg,HouseObjects,1,stim/objects/HouseObjects/thermometer.png,0.5,3,-0.2,-0.15,left,64,2021-03-29_17h08.51.324,premup-three_ses-01_part-01_label-phase1,3.2.4,Win32,60,right,0.631000042,4,0,4,0,1,3,1,0,240,43,1,239,,,,,,,,,,,,,,,,,,
,,1,109,,,,,,,3,2,2,stim/22.jpeg,HouseObjects,1,stim/objects/HouseObjects/towel2.png,0.9,2,0.2,0.15,left,64,2021-03-29_17h08.51.324,premup-three_ses-01_part-01_label-phase1,3.2.4,Win32,60,left,0.571000338,4,0,4,0,1,3,1,0,240,201,1,239,,,,,,,,,,,,,,,,,,
,,1,110,,,,,,,1,3,2,stim/32.jpeg,Instruments,2,stim/objects/Instruments/saxophone.png,0.5,1,-0.2,0.15,right,64,2021-03-29_17h08.51.324,premup-three_ses-01_part-01_label-phase1,3.2.4,Win32,60,right,0.510000229,4,0,4,0,1,3,1,0,240,37,1,239,,,,,,,,,,,,,,,,,,
,,1,111,,,,,,,1,3,4,stim/34.jpeg,Instruments,2,stim/objects/Instruments/tambourine.png,0.5,4,0.2,-0.15,right,64,2021-03-29_17h08.51.324,premup-three_ses-01_part-01_label-phase1,3.2.4,Win32,60,right,0.590000153,4,0,4,0,1,3,1,0,240,39,1,239,,,,,,,,,,,,,,,,,,
,,0,112,,,,,,,1,3,3,stim/33.jpeg,HouseObjects,1,stim/objects/HouseObjects/saw.png,0.5,2,0.2,0.15,left,64,2021-03-29_17h08.51.324,premup-three_ses-01_part-01_label-phase1,3.2.4,Win32,60,right,0.505000353,4,0,4,0,1,3,1,0,240,6,1,239,,,,,,,,,,,,,,,,,,
,,1,113,,,,,,,1,4,4,stim/44.jpeg,Instruments,2,stim/objects/Instruments/trumpet.png,0.5,3,-0.2,-0.15,right,64,2021-03-29_17h08.51.324,premup-three_ses-01_part-01_label-phase1,3.2.4,Win32,60,right,0.571000338,4,0,4,0,1,3,1,0,240,67,1,239,,,,,,,,,,,,,,,,,,
,,0,114,,,,,,,1,4,3,stim/43.jpeg,HouseObjects,1,stim/objects/HouseObjects/teapot.png,0.5,2,0.2,0.15,left,64,2021-03-29_17h08.51.324,premup-three_ses-01_part-01_label-phase1,3.2.4,Win32,60,right,0.517000198,4,0,4,0,1,3,1,0,240,50,1,239,,,,,,,,,,,,,,,,,,
,,1,115,,,,,,,3,2,2,stim/22.jpeg,HouseObjects,1,stim/objects/HouseObjects/towel2.png,0.9,2,0.2,0.15,left,64,2021-03-29_17h08.51.324,premup-three_ses-01_part-01_label-phase1,3.2.4,Win32,60,left,0.697000027,4,0,4,0,1,3,1,0,240,233,1,239,,,,,,,,,,,,,,,,,,
,,1,116,,,,,,,1,3,4,stim/34.jpeg,Instruments,2,stim/objects/Instruments/tambourine.png,0.5,1,-0.2,0.15,right,64,2021-03-29_17h08.51.324,premup-three_ses-01_part-01_label-phase1,3.2.4,Win32,60,right,0.861000061,4,0,4,0,1,3,1,0,240,27,1,239,,,,,,,,,,,,,,,,,,
,,1,117,,,,,,,2,6,1,stim/61.jpeg,HouseObjects,1,stim/objects/HouseObjects/rug2.png,0.7,3,-0.2,-0.15,left,64,2021-03-29_17h08.51.324,premup-three_ses-01_part-01_label-phase1,3.2.4,Win32,60,left,0.626000166,4,0,4,0,1,3,1,0,240,120,1,239,,,,,,,,,,,,,,,,,,
,,1,118,,,,,,,2,5,1,stim/51.jpeg,Instruments,2,stim/objects/Instruments/tuba.png,0.7,1,-0.2,0.15,right,64,2021-03-29_17h08.51.324,premup-three_ses-01_part-01_label-phase1,3.2.4,Win32,60,right,0.550000191,4,0,4,0,1,3,1,0,240,96,1,239,,,,,,,,,,,,,,,,,,
,,0,119,,,,,,,1,4,2,stim/42.jpeg,HouseObjects,1,stim/objects/HouseObjects/spraybottle.png,0.5,4,0.2,-0.15,left,64,2021-03-29_17h08.51.324,premup-three_ses-01_part-01_label-phase1,3.2.4,Win32,60,right,0.745000124,4,0,4,0,1,3,1,0,240,57,1,239,,,,,,,,,,,,,,,,,,
,,1,120,,,,,,,2,5,2,stim/52.jpeg,Instruments,2,stim/objects/Instruments/violin.png,0.7,4,0.2,-0.15,right,64,2021-03-29_17h08.51.324,premup-three_ses-01_part-01_label-phase1,3.2.4,Win32,60,right,1.196000099,4,0,4,0,1,3,1,0,240,101,1,239,,,,,,,,,,,,,,,,,,
,,1,121,,,,,,,3,2,1,stim/21.jpeg,HouseObjects,1,stim/objects/HouseObjects/thread2.png,0.9,1,-0.2,0.15,left,64,2021-03-29_17h08.51.324,premup-three_ses-01_part-01_label-phase1,3.2.4,Win32,60,left,0.692000389,4,0,4,0,1,3,1,0,240,228,1,239,,,,,,,,,,,,,,,,,,
,,1,122,,,,,,,3,2,4,stim/24.jpeg,HouseObjects,1,stim/objects/HouseObjects/wateringcan2.png,0.9,2,0.2,0.15,left,64,2021-03-29_17h08.51.324,premup-three_ses-01_part-01_label-phase1,3.2.4,Win32,60,left,0.722000122,4,0,4,0,1,3,1,0,240,215,1,239,,,,,,,,,,,,,,,,,,
,,0,123,,,,,,,2,5,1,stim/51.jpeg,HouseObjects,1,stim/objects/HouseObjects/thread.png,0.3,4,0.2,-0.15,left,64,2021-03-29_17h08.51.324,premup-three_ses-01_part-01_label-phase1,3.2.4,Win32,60,right,0.693000078,4,0,4,0,1,3,1,0,240,84,1,239,,,,,,,,,,,,,,,,,,
,,1,124,,,,,,,2,6,4,stim/64.jpeg,HouseObjects,1,stim/objects/HouseObjects/scale2.png,0.7,3,-0.2,-0.15,left,64,2021-03-29_17h08.51.324,premup-three_ses-01_part-01_label-phase1,3.2.4,Win32,60,left,0.677000284,4,0,4,0,1,3,1,0,240,127,1,239,,,,,,,,,,,,,,,,,,
,,0,125,,,,,,,1,3,2,stim/32.jpeg,HouseObjects,1,stim/objects/HouseObjects/safetypin.png,0.5,3,-0.2,-0.15,left,64,2021-03-29_17h08.51.324,premup-three_ses-01_part-01_label-phase1,3.2.4,Win32,60,right,0.802000284,4,0,4,0,1,3,1,0,240,5,1,239,,,,,,,,,,,,,,,,,,
,,0,126,,,,,,,2,6,2,stim/62.jpeg,Instruments,2,stim/objects/Instruments/saxophone2.png,0.3,4,0.2,-0.15,right,64,2021-03-29_17h08.51.324,premup-three_ses-01_part-01_label-phase1,3.2.4,Win32,60,left,0.620000362,4,0,4,0,1,3,1,0,240,149,1,239,,,,,,,,,,,,,,,,,,
,,0,127,,,,,,,1,4,3,stim/43.jpeg,HouseObjects,1,stim/objects/HouseObjects/teapot.png,0.5,4,0.2,-0.15,left,64,2021-03-29_17h08.51.324,premup-three_ses-01_part-01_label-phase1,3.2.4,Win32,60,right,0.703000069,4,0,4,0,1,3,1,0,240,42,1,239,,,,,,,,,,,,,,,,,,
,,1,128,,,,,,,2,6,3,stim/63.jpeg,HouseObjects,1,stim/objects/HouseObjects/saw2.png,0.7,3,-0.2,-0.15,left,64,2021-03-29_17h08.51.324,premup-three_ses-01_part-01_label-phase1,3.2.4,Win32,60,left,0.851000071,4,0,4,0,1,3,1,0,240,138,1,239,,,,,,,,,,,,,,,,,,
,,1,129,,,,,,,2,6,4,stim/64.jpeg,HouseObjects,1,stim/objects/HouseObjects/scale2.png,0.7,2,0.2,0.15,left,64,2021-03-29_17h08.51.324,premup-three_ses-01_part-01_label-phase1,3.2.4,Win32,60,left,0.680000305,4,0,4,0,1,3,1,0,240,147,1,239,,,,,,,,,,,,,,,,,,
,,0,130,,,,,,,1,3,1,stim/31.jpeg,HouseObjects,1,stim/objects/HouseObjects/rug.png,0.5,3,-0.2,-0.15,left,64,2021-03-29_17h08.51.324,premup-three_ses-01_part-01_label-phase1,3.2.4,Win32,60,right,0.76300025,4,0,4,0,1,3,1,0,240,0,1,239,,,,,,,,,,,,,,,,,,
,,1,131,,,,,,,2,5,2,stim/52.jpeg,Instruments,2,stim/objects/Instruments/violin.png,0.7,2,0.2,0.15,right,64,2021-03-29_17h08.51.324,premup-three_ses-01_part-01_label-phase1,3.2.4,Win32,60,right,0.686000347,4,0,4,0,1,3,1,0,240,113,1,239,,,,,,,,,,,,,,,,,,
,,0,132,,,,,,,1,3,3,stim/33.jpeg,HouseObjects,1,stim/objects/HouseObjects/saw.png,0.5,3,-0.2,-0.15,left,64,2021-03-29_17h08.51.324,premup-three_ses-01_part-01_label-phase1,3.2.4,Win32,60,right,1.03000021,4,0,4,0,1,3,1,0,240,18,1,239,,,,,,,,,,,,,,,,,,
,,1,133,,,,,,,1,4,4,stim/44.jpeg,Instruments,2,stim/objects/Instruments/trumpet.png,0.5,1,-0.2,0.15,right,64,2021-03-29_17h08.51.324,premup-three_ses-01_part-01_label-phase1,3.2.4,Win32,60,right,1.072999954,4,0,4,0,1,3,1,0,240,63,1,239,,,,,,,,,,,,,,,,,,
