id_acc,key_resp_id.keys,key_resp_id.rt,key_resp_conf.keys,key_resp_conf.rt,assoc_acc,key_resp_assoc.keys,key_resp_assoc.rt,loc_acc,key_resp_loc.keys,key_resp_loc.rt,task_innerloop.thisRepN,task_innerloop.thisTrialN,task_innerloop.thisN,task_innerloop.thisIndex,task_innerloop.ran,task_innerloop.order,context_type,object_cat,PE_level,OvsN,obj_file,scn_file,corr_scn_cat,assoc_file,corr_scn_inst,corr_loc,participant,date,expName,psychopyVersion,OS,frameRate
1,left,1.404000044,4,1.247999907,0,3,8.204999924,0,4,1.40199995,1,0,200,95,1,199,3,2,0.1,1,stim/objects/Instruments/trumpet2.png,stim/64.jpeg,6,stim/6.png,4,4,65,2021-04-02_09h04.03.275,premup-three_ses-02_part-03_label-phase3,3.2.4,MacIntel,60
1,left,1.803999901,3,1.729000092,0,1,2.792999744,0,4,1.812999725,1,0,200,31,1,199,2,2,0.7,1,stim/objects/Instruments/tuba.png,stim/33.jpeg,3,stim/3.png,3,4,65,2021-04-02_09h04.03.275,premup-three_ses-02_part-03_label-phase3,3.2.4,MacIntel,60
1,left,2.61899972,,,0,,,0,,,1,0,200,109,1,199,0,1,0,2,stim/objects/HouseObjects/hairdryer3.png,,0,stim/0.png,0,0,65,2021-04-02_09h04.03.275,premup-three_ses-02_part-03_label-phase3,3.2.4,MacIntel,60
1,right,2.034999847,,,0,,,0,,,1,0,200,107,1,199,0,1,0,2,stim/objects/HouseObjects/glass3.png,,0,stim/0.png,0,0,65,2021-04-02_09h04.03.275,premup-three_ses-02_part-03_label-phase3,3.2.4,MacIntel,60
1,left,1.604999781,3,2.665999889,0,3,6.490999937,0,3,3.129999876,1,0,200,69,1,199,3,1,0.1,1,stim/objects/HouseObjects/safetypin2.png,stim/52.jpeg,5,stim/5.png,2,4,65,2021-04-02_09h04.03.275,premup-three_ses-02_part-03_label-phase3,3.2.4,MacIntel,60
1,right,1.641000032,,,0,,,0,,,1,0,200,160,1,199,0,1,0,2,stim/objects/HouseObjects/thermometer3.png,,0,stim/0.png,0,0,65,2021-04-02_09h04.03.275,premup-three_ses-02_part-03_label-phase3,3.2.4,MacIntel,60
1,left,1.088999748,,,0,,,0,,,1,0,200,128,1,199,0,1,0,2,stim/objects/HouseObjects/pan3.png,,0,stim/0.png,0,0,65,2021-04-02_09h04.03.275,premup-three_ses-02_part-03_label-phase3,3.2.4,MacIntel,60
1,right,2.006999969,,,0,,,0,,,1,0,200,166,1,199,0,1,0,2,stim/objects/HouseObjects/cushion4.png,,0,stim/0.png,0,0,65,2021-04-02_09h04.03.275,premup-three_ses-02_part-03_label-phase3,3.2.4,MacIntel,60
1,right,0.90199995,,,0,,,0,,,1,0,200,185,1,199,0,1,0,2,stim/objects/HouseObjects/handbrush4.png,,0,stim/0.png,0,0,65,2021-04-02_09h04.03.275,premup-three_ses-02_part-03_label-phase3,3.2.4,MacIntel,60
1,left,0.967999935,,,0,,,0,,,1,0,200,121,1,199,0,1,0,2,stim/objects/HouseObjects/handvacuum3.png,,0,stim/0.png,0,0,65,2021-04-02_09h04.03.275,premup-three_ses-02_part-03_label-phase3,3.2.4,MacIntel,60
1,left,1.003000021,,,0,,,0,,,1,0,200,178,1,199,0,2,0,2,stim/objects/Instruments/flute4.png,,0,stim/0.png,0,0,65,2021-04-02_09h04.03.275,premup-three_ses-02_part-03_label-phase3,3.2.4,MacIntel,60
1,right,0.82400012,,,0,,,0,,,1,0,200,157,1,199,0,2,0,2,stim/objects/Instruments/timbal3.png,,0,stim/0.png,0,0,65,2021-04-02_09h04.03.275,premup-three_ses-02_part-03_label-phase3,3.2.4,MacIntel,60
1,right,1.03399992,3,3.145999908,0,4,2.755000114,0,4,7.530999899,1,0,200,24,1,199,2,1,0.3,1,stim/objects/HouseObjects/wateringcan.png,stim/31.jpeg,3,stim/3.png,1,1,65,2021-04-02_09h04.03.275,premup-three_ses-02_part-03_label-phase3,3.2.4,MacIntel,60
1,right,1.938999891,,,0,,,0,,,1,0,200,194,1,199,0,2,0,2,stim/objects/Instruments/harmonica4.png,,0,stim/0.png,0,0,65,2021-04-02_09h04.03.275,premup-three_ses-02_part-03_label-phase3,3.2.4,MacIntel,60
1,left,2.485999823,1,2.681999922,0,1,3.808999777,0,2,3.046999931,1,0,200,72,1,199,3,2,0.9,1,stim/objects/Instruments/musicsheet2.png,stim/51.jpeg,5,stim/5.png,1,3,65,2021-04-02_09h04.03.275,premup-three_ses-02_part-03_label-phase3,3.2.4,MacIntel,60
1,left,1.75999999,,,0,,,0,,,1,0,200,172,1,199,0,2,0,2,stim/objects/Instruments/violin3.png,,0,stim/0.png,0,0,65,2021-04-02_09h04.03.275,premup-three_ses-02_part-03_label-phase3,3.2.4,MacIntel,60
1,right,2.21999979,,,0,,,0,,,1,0,200,132,1,199,0,2,0,2,stim/objects/Instruments/keyboard3.png,,0,stim/0.png,0,0,65,2021-04-02_09h04.03.275,premup-three_ses-02_part-03_label-phase3,3.2.4,MacIntel,60
1,left,0.91899991,3,1.477999926,0,4,4.537999868,0,1,2.234999895,1,0,200,52,1,199,2,2,0.3,1,stim/objects/Instruments/grandpiano2.png,stim/44.jpeg,4,stim/4.png,4,4,65,2021-04-02_09h04.03.275,premup-three_ses-02_part-03_label-phase3,3.2.4,MacIntel,60
1,left,1.475999832,3,2.367000103,0,1,3.026000023,0,1,0.986999989,1,0,200,39,1,199,2,2,0.7,1,stim/objects/Instruments/flutetrans2.png,stim/33.jpeg,3,stim/3.png,3,1,65,2021-04-02_09h04.03.275,premup-three_ses-02_part-03_label-phase3,3.2.4,MacIntel,60
1,right,2.855999947,2,1.651000023,0,4,1.902999878,0,1,2.368000031,1,0,200,66,1,199,3,1,0.1,1,stim/objects/HouseObjects/remote2.png,stim/53.jpeg,5,stim/5.png,3,1,65,2021-04-02_09h04.03.275,premup-three_ses-02_part-03_label-phase3,3.2.4,MacIntel,60
1,right,1.194000006,3,3.381999731,0,1,7.612999916,0,1,2.477999926,1,0,200,85,1,199,3,1,0.9,1,stim/objects/HouseObjects/thermometer2.png,stim/62.jpeg,6,stim/6.png,2,2,65,2021-04-02_09h04.03.275,premup-three_ses-02_part-03_label-phase3,3.2.4,MacIntel,60
1,left,1.592000008,3,2.532000065,0,4,1.286999941,0,2,1.605000019,1,0,200,75,1,199,3,2,0.9,1,stim/objects/Instruments/panflute2.png,stim/54.jpeg,5,stim/5.png,4,3,65,2021-04-02_09h04.03.275,premup-three_ses-02_part-03_label-phase3,3.2.4,MacIntel,60
1,right,1.315000057,2,4.181999922,0,2,2.93599987,0,3,2.08100009,1,0,200,99,1,199,3,2,0.1,1,stim/objects/Instruments/xylophone2.png,stim/64.jpeg,6,stim/6.png,4,4,65,2021-04-02_09h04.03.275,premup-three_ses-02_part-03_label-phase3,3.2.4,MacIntel,60
1,right,1.322999954,2,5.715999842,0,1,7.039999962,0,2,30.3829999,1,0,200,1,1,199,1,1,0.5,1,stim/objects/HouseObjects/remote.png,stim/14.jpeg,1,stim/1.png,4,1,65,2021-04-02_09h04.03.275,premup-three_ses-02_part-03_label-phase3,3.2.4,MacIntel,60
1,right,2.203999996,,,0,,,0,,,1,0,200,176,1,199,0,2,0,2,stim/objects/Instruments/electricdrumset4.png,,0,stim/0.png,0,0,65,2021-04-02_09h04.03.275,premup-three_ses-02_part-03_label-phase3,3.2.4,MacIntel,60
1,right,3.250999928,2,3.584000111,0,2,2.628999949,0,3,1.73300004,1,0,200,50,1,199,2,2,0.3,1,stim/objects/Instruments/frenchhorn2.png,stim/42.jpeg,4,stim/4.png,2,1,65,2021-04-02_09h04.03.275,premup-three_ses-02_part-03_label-phase3,3.2.4,MacIntel,60
1,right,1.246999979,,,0,,,0,,,1,0,200,169,1,199,0,1,0,2,stim/objects/HouseObjects/dustpan4.png,,0,stim/0.png,0,0,65,2021-04-02_09h04.03.275,premup-three_ses-02_part-03_label-phase3,3.2.4,MacIntel,60
1,left,1.487999916,3,1.3349998,0,3,2.460000038,0,1,1.297999859,1,0,200,47,1,199,2,1,0.7,1,stim/objects/HouseObjects/iron2.png,stim/43.jpeg,4,stim/4.png,3,2,65,2021-04-02_09h04.03.275,premup-three_ses-02_part-03_label-phase3,3.2.4,MacIntel,60
1,right,2.822000027,1,1.980000019,0,3,3.859999895,0,4,1.296999931,1,0,200,17,1,199,1,2,0.5,1,stim/objects/Instruments/timbal.png,stim/22.jpeg,2,stim/2.png,2,2,65,2021-04-02_09h04.03.275,premup-three_ses-02_part-03_label-phase3,3.2.4,MacIntel,60
1,right,1.082000017,,,0,,,0,,,1,0,200,100,1,199,0,1,0,2,stim/objects/HouseObjects/coffee3.png,,0,stim/0.png,0,0,65,2021-04-02_09h04.03.275,premup-three_ses-02_part-03_label-phase3,3.2.4,MacIntel,60
1,right,1.003999949,3,1.579999924,0,2,2.444999933,0,2,1.495999813,1,0,200,18,1,199,1,2,0.5,1,stim/objects/Instruments/triangle.png,stim/23.jpeg,2,stim/2.png,3,2,65,2021-04-02_09h04.03.275,premup-three_ses-02_part-03_label-phase3,3.2.4,MacIntel,60
1,right,1.789000034,,,0,,,0,,,1,0,200,143,1,199,0,1,0,2,stim/objects/HouseObjects/rug3.png,,0,stim/0.png,0,0,65,2021-04-02_09h04.03.275,premup-three_ses-02_part-03_label-phase3,3.2.4,MacIntel,60
1,right,0.901000023,,,0,,,0,,,1,0,200,168,1,199,0,1,0,2,stim/objects/HouseObjects/doormat4.png,,0,stim/0.png,0,0,65,2021-04-02_09h04.03.275,premup-three_ses-02_part-03_label-phase3,3.2.4,MacIntel,60
1,left,1.419999838,2,1.512999773,0,3,4.669999838,0,4,4.215999842,1,0,200,92,1,199,3,2,0.1,1,stim/objects/Instruments/timbal2.png,stim/61.jpeg,6,stim/6.png,1,2,65,2021-04-02_09h04.03.275,premup-three_ses-02_part-03_label-phase3,3.2.4,MacIntel,60
1,left,1.611000061,,,0,,,0,,,1,0,200,198,1,199,0,2,0,2,stim/objects/Instruments/laud4.png,,0,stim/0.png,0,0,65,2021-04-02_09h04.03.275,premup-three_ses-02_part-03_label-phase3,3.2.4,MacIntel,60
1,right,1.086999893,,,0,,,0,,,1,0,200,162,1,199,0,1,0,2,stim/objects/HouseObjects/towel3.png,,0,stim/0.png,0,0,65,2021-04-02_09h04.03.275,premup-three_ses-02_part-03_label-phase3,3.2.4,MacIntel,60
1,right,1.13499999,,,0,,,0,,,1,0,200,150,1,199,0,2,0,2,stim/objects/Instruments/panflute3.png,,0,stim/0.png,0,0,65,2021-04-02_09h04.03.275,premup-three_ses-02_part-03_label-phase3,3.2.4,MacIntel,60
1,right,0.769999743,,,0,,,0,,,1,0,200,136,1,199,0,2,0,2,stim/objects/Instruments/metronome3.png,,0,stim/0.png,0,0,65,2021-04-02_09h04.03.275,premup-three_ses-02_part-03_label-phase3,3.2.4,MacIntel,60
1,right,0.95299983,2,2.696000099,0,3,1.835999966,0,2,2.260999918,1,0,200,98,1,199,3,2,0.1,1,stim/objects/Instruments/vuvuzela2.png,stim/63.jpeg,6,stim/6.png,3,2,65,2021-04-02_09h04.03.275,premup-three_ses-02_part-03_label-phase3,3.2.4,MacIntel,60
1,right,1.144999743,,,0,,,0,,,1,0,200,181,1,199,0,1,0,2,stim/objects/HouseObjects/garbagebin4.png,,0,stim/0.png,0,0,65,2021-04-02_09h04.03.275,premup-three_ses-02_part-03_label-phase3,3.2.4,MacIntel,60
1,right,0.960999966,,,0,,,0,,,1,0,200,147,1,199,0,1,0,2,stim/objects/HouseObjects/sponge3.png,,0,stim/0.png,0,0,65,2021-04-02_09h04.03.275,premup-three_ses-02_part-03_label-phase3,3.2.4,MacIntel,60
1,left,1.031999826,,,0,,,0,,,1,0,200,135,1,199,0,2,0,2,stim/objects/Instruments/marimba3.png,,0,stim/0.png,0,0,65,2021-04-02_09h04.03.275,premup-three_ses-02_part-03_label-phase3,3.2.4,MacIntel,60
1,right,1.368999958,,,0,,,0,,,1,0,200,142,1,199,0,1,0,2,stim/objects/HouseObjects/rubbergloves3.png,,0,stim/0.png,0,0,65,2021-04-02_09h04.03.275,premup-three_ses-02_part-03_label-phase3,3.2.4,MacIntel,60
1,right,2.582000017,,,0,,,0,,,1,0,200,193,1,199,0,2,0,2,stim/objects/Instruments/guitarcase4.png,,0,stim/0.png,0,0,65,2021-04-02_09h04.03.275,premup-three_ses-02_part-03_label-phase3,3.2.4,MacIntel,60
1,right,1.583999872,,,0,,,0,,,1,0,200,103,1,199,0,1,0,2,stim/objects/HouseObjects/doormat3.png,,0,stim/0.png,0,0,65,2021-04-02_09h04.03.275,premup-three_ses-02_part-03_label-phase3,3.2.4,MacIntel,60
1,right,1.355000019,,,0,,,0,,,1,0,200,182,1,199,0,1,0,2,stim/objects/HouseObjects/glass4.png,,0,stim/0.png,0,0,65,2021-04-02_09h04.03.275,premup-three_ses-02_part-03_label-phase3,3.2.4,MacIntel,60
1,right,0.792999744,2,2.865999937,0,2,2.348999977,0,4,1.299999952,1,0,200,54,1,199,2,2,0.3,1,stim/objects/Instruments/harmonica2.png,stim/42.jpeg,4,stim/4.png,2,2,65,2021-04-02_09h04.03.275,premup-three_ses-02_part-03_label-phase3,3.2.4,MacIntel,60
1,left,1.322999954,3,1.599999905,0,3,2.405999899,0,1,1.268000126,1,0,200,38,1,199,2,2,0.7,1,stim/objects/Instruments/flute2.png,stim/32.jpeg,3,stim/3.png,2,2,65,2021-04-02_09h04.03.275,premup-three_ses-02_part-03_label-phase3,3.2.4,MacIntel,60
1,right,1.042999744,2,3.530999899,0,3,1.803999901,0,3,2.144000053,1,0,200,81,1,199,3,1,0.9,1,stim/objects/HouseObjects/scale2.png,stim/62.jpeg,6,stim/6.png,2,3,65,2021-04-02_09h04.03.275,premup-three_ses-02_part-03_label-phase3,3.2.4,MacIntel,60
1,left,1.124000072,3,1.113999844,0,1,2.357999802,0,4,1.674999952,1,0,200,44,1,199,2,1,0.7,1,stim/objects/HouseObjects/hairdryer2.png,stim/44.jpeg,4,stim/4.png,4,3,65,2021-04-02_09h04.03.275,premup-three_ses-02_part-03_label-phase3,3.2.4,MacIntel,60
1,right,1.333999872,2,1.917999744,0,1,1.848999977,0,1,1.032000065,1,0,200,6,1,199,1,1,0.5,1,stim/objects/Instruments/pipepiano.png,stim/13.jpeg,1,stim/1.png,3,2,65,2021-04-02_09h04.03.275,premup-three_ses-02_part-03_label-phase3,3.2.4,MacIntel,60
1,right,1.359999895,,,0,,,0,,,1,0,200,167,1,199,0,1,0,2,stim/objects/HouseObjects/dishsoap4.png,,0,stim/0.png,0,0,65,2021-04-02_09h04.03.275,premup-three_ses-02_part-03_label-phase3,3.2.4,MacIntel,60
1,right,0.700000048,3,4.128999949,0,3,1.532999992,0,3,1.42599988,1,0,200,42,1,199,2,1,0.7,1,stim/objects/HouseObjects/glass2.png,stim/42.jpeg,4,stim/4.png,2,2,65,2021-04-02_09h04.03.275,premup-three_ses-02_part-03_label-phase3,3.2.4,MacIntel,60
1,right,1.234999895,2,1.271999836,0,2,0.835999966,0,1,1.036999941,1,0,200,27,1,199,2,1,0.3,1,stim/objects/HouseObjects/dishsoap2.png,stim/34.jpeg,3,stim/3.png,4,1,65,2021-04-02_09h04.03.275,premup-three_ses-02_part-03_label-phase3,3.2.4,MacIntel,60
1,left,1.104000092,4,1.428999901,0,4,3.868999958,0,1,2.439999819,1,0,200,58,1,199,2,2,0.3,1,stim/objects/Instruments/laud2.png,stim/42.jpeg,4,stim/4.png,2,3,65,2021-04-02_09h04.03.275,premup-three_ses-02_part-03_label-phase3,3.2.4,MacIntel,60
1,right,1.145999908,2,1.628000021,0,3,1.191999912,0,3,0.655999899,1,0,200,93,1,199,3,2,0.1,1,stim/objects/Instruments/triangle2.png,stim/62.jpeg,6,stim/6.png,2,2,65,2021-04-02_09h04.03.275,premup-three_ses-02_part-03_label-phase3,3.2.4,MacIntel,60
1,right,1.269999981,,,0,,,0,,,1,0,200,134,1,199,0,2,0,2,stim/objects/Instruments/maraca3.png,,0,stim/0.png,0,0,65,2021-04-02_09h04.03.275,premup-three_ses-02_part-03_label-phase3,3.2.4,MacIntel,60
1,right,0.796999931,4,1.429999828,0,1,1.487999916,0,1,0.713000059,1,0,200,35,1,199,2,2,0.7,1,stim/objects/Instruments/drums2.png,stim/33.jpeg,3,stim/3.png,3,1,65,2021-04-02_09h04.03.275,premup-three_ses-02_part-03_label-phase3,3.2.4,MacIntel,60
1,left,2.032999992,3,3.381999731,0,2,3.737999916,0,3,1.763999939,1,0,200,29,1,199,2,1,0.3,1,stim/objects/HouseObjects/dustpan2.png,stim/32.jpeg,3,stim/3.png,2,3,65,2021-04-02_09h04.03.275,premup-three_ses-02_part-03_label-phase3,3.2.4,MacIntel,60
1,left,1.088999987,4,0.997999907,0,2,2.487999916,0,3,0.940000057,1,0,200,5,1,199,1,1,0.5,1,stim/objects/Instruments/panflute.png,stim/12.jpeg,1,stim/1.png,2,1,65,2021-04-02_09h04.03.275,premup-three_ses-02_part-03_label-phase3,3.2.4,MacIntel,60
1,right,1.375,3,2.44900012,0,2,1.006000042,0,1,0.78399992,1,0,200,55,1,199,2,2,0.3,1,stim/objects/Instruments/harp2.png,stim/43.jpeg,4,stim/4.png,3,4,65,2021-04-02_09h04.03.275,premup-three_ses-02_part-03_label-phase3,3.2.4,MacIntel,60
1,left,1.224999905,,,0,,,0,,,1,0,200,129,1,199,0,1,0,2,stim/objects/HouseObjects/pitcher3.png,,0,stim/0.png,0,0,65,2021-04-02_09h04.03.275,premup-three_ses-02_part-03_label-phase3,3.2.4,MacIntel,60
1,right,1.039000034,2,1.131999969,0,3,2.129999876,0,3,1.620999813,1,0,200,61,1,199,3,1,0.1,1,stim/objects/HouseObjects/lintroller2.png,stim/52.jpeg,5,stim/5.png,2,3,65,2021-04-02_09h04.03.275,premup-three_ses-02_part-03_label-phase3,3.2.4,MacIntel,60
1,left,0.951999903,,,0,,,0,,,1,0,200,144,1,199,0,1,0,2,stim/objects/HouseObjects/safetypin3.png,,0,stim/0.png,0,0,65,2021-04-02_09h04.03.275,premup-three_ses-02_part-03_label-phase3,3.2.4,MacIntel,60
1,left,1.18599987,2,1.348999739,0,4,2.428999901,0,4,1.463000059,1,0,200,89,1,199,3,1,0.9,1,stim/objects/HouseObjects/wateringcan2.png,stim/62.jpeg,6,stim/6.png,2,4,65,2021-04-02_09h04.03.275,premup-three_ses-02_part-03_label-phase3,3.2.4,MacIntel,60
1,right,1.273999929,2,1.12899971,0,1,1.206999779,0,3,1.489999771,1,0,200,83,1,199,3,1,0.9,1,stim/objects/HouseObjects/spraybottle2.png,stim/64.jpeg,6,stim/6.png,4,4,65,2021-04-02_09h04.03.275,premup-three_ses-02_part-03_label-phase3,3.2.4,MacIntel,60
1,left,1.290999889,2,1.34800005,0,4,1.224999905,0,3,0.557999849,1,0,200,23,1,199,2,1,0.3,1,stim/objects/HouseObjects/vacuumcleaner.png,stim/34.jpeg,3,stim/3.png,4,3,65,2021-04-02_09h04.03.275,premup-three_ses-02_part-03_label-phase3,3.2.4,MacIntel,60
1,left,1.351000071,,,0,,,0,,,1,0,200,114,1,199,0,2,0,2,stim/objects/Instruments/flutetrans3.png,,0,stim/0.png,0,0,65,2021-04-02_09h04.03.275,premup-three_ses-02_part-03_label-phase3,3.2.4,MacIntel,60
1,left,0.539000034,4,1.501999855,0,3,1.82799983,0,2,1.201999903,1,0,200,97,1,199,3,2,0.1,1,stim/objects/Instruments/violin2.png,stim/62.jpeg,6,stim/6.png,2,4,65,2021-04-02_09h04.03.275,premup-three_ses-02_part-03_label-phase3,3.2.4,MacIntel,60
1,right,0.938999891,2,1.010999918,0,3,1.570999861,0,1,0.818999767,1,0,200,2,1,199,1,1,0.5,1,stim/objects/HouseObjects/rubbergloves.png,stim/11.jpeg,1,stim/1.png,1,4,65,2021-04-02_09h04.03.275,premup-three_ses-02_part-03_label-phase3,3.2.4,MacIntel,60
1,right,1.375999928,,,0,,,0,,,1,0,200,133,1,199,0,2,0,2,stim/objects/Instruments/laud3.png,,0,stim/0.png,0,0,65,2021-04-02_09h04.03.275,premup-three_ses-02_part-03_label-phase3,3.2.4,MacIntel,60
1,right,0.592999935,,,0,,,0,,,1,0,200,123,1,199,0,1,0,2,stim/objects/HouseObjects/ironingboard3.png,,0,stim/0.png,0,0,65,2021-04-02_09h04.03.275,premup-three_ses-02_part-03_label-phase3,3.2.4,MacIntel,60
1,right,2.117999792,2,0.816999912,0,1,0.72300005,0,2,0.587999821,1,0,200,88,1,199,3,1,0.9,1,stim/objects/HouseObjects/vacuumcleaner2.png,stim/61.jpeg,6,stim/6.png,1,1,65,2021-04-02_09h04.03.275,premup-three_ses-02_part-03_label-phase3,3.2.4,MacIntel,60
1,left,1.312000036,,,0,,,0,,,1,0,200,153,1,199,0,2,0,2,stim/objects/Instruments/record_player3.png,,0,stim/0.png,0,0,65,2021-04-02_09h04.03.275,premup-three_ses-02_part-03_label-phase3,3.2.4,MacIntel,60
1,right,0.957000017,,,0,,,0,,,1,0,200,183,1,199,0,1,0,2,stim/objects/HouseObjects/glassmop4.png,,0,stim/0.png,0,0,65,2021-04-02_09h04.03.275,premup-three_ses-02_part-03_label-phase3,3.2.4,MacIntel,60
1,right,0.779999971,,,0,,,0,,,1,0,200,148,1,199,0,1,0,2,stim/objects/HouseObjects/spraybottle3.png,,0,stim/0.png,0,0,65,2021-04-02_09h04.03.275,premup-three_ses-02_part-03_label-phase3,3.2.4,MacIntel,60
1,right,1.021999836,3,1.568000078,0,1,1.335999966,0,3,1.047999859,1,0,200,82,1,199,3,1,0.9,1,stim/objects/HouseObjects/sponge2.png,stim/63.jpeg,6,stim/6.png,3,4,65,2021-04-02_09h04.03.275,premup-three_ses-02_part-03_label-phase3,3.2.4,MacIntel,60
1,right,1.203000069,,,0,,,0,,,1,0,200,197,1,199,0,2,0,2,stim/objects/Instruments/keyboard4.png,,0,stim/0.png,0,0,65,2021-04-02_09h04.03.275,premup-three_ses-02_part-03_label-phase3,3.2.4,MacIntel,60
1,right,0.767999887,,,0,,,0,,,1,0,200,199,1,199,0,2,0,2,stim/objects/Instruments/maraca4.png,,0,stim/0.png,0,0,65,2021-04-02_09h04.03.275,premup-three_ses-02_part-03_label-phase3,3.2.4,MacIntel,60
1,right,0.592999935,3,2.621000051,0,4,2.11500001,0,1,1.499999762,1,0,200,11,1,199,1,2,0.5,1,stim/objects/HouseObjects/scale.png,stim/22.jpeg,2,stim/2.png,2,2,65,2021-04-02_09h04.03.275,premup-three_ses-02_part-03_label-phase3,3.2.4,MacIntel,60
1,right,1.02699995,3,1.197000027,0,3,2.208999872,0,2,1.07799983,1,0,200,87,1,199,3,1,0.9,1,stim/objects/HouseObjects/towel2.png,stim/64.jpeg,6,stim/6.png,4,2,65,2021-04-02_09h04.03.275,premup-three_ses-02_part-03_label-phase3,3.2.4,MacIntel,60
1,left,1.189999819,3,1.434999943,0,1,1.569999933,0,2,2.138999939,1,0,200,79,1,199,3,2,0.9,1,stim/objects/Instruments/saxophone2.png,stim/54.jpeg,5,stim/5.png,4,1,65,2021-04-02_09h04.03.275,premup-three_ses-02_part-03_label-phase3,3.2.4,MacIntel,60
1,right,3.02699995,,,0,,,0,,,1,0,200,152,1,199,0,2,0,2,stim/objects/Instruments/record3.png,,0,stim/0.png,0,0,65,2021-04-02_09h04.03.275,premup-three_ses-02_part-03_label-phase3,3.2.4,MacIntel,60
1,left,1.472999811,,,0,,,0,,,1,0,200,195,1,199,0,2,0,2,stim/objects/Instruments/harp4.png,,0,stim/0.png,0,0,65,2021-04-02_09h04.03.275,premup-three_ses-02_part-03_label-phase3,3.2.4,MacIntel,60
1,right,0.998999834,3,1.347999811,0,3,1.088000059,0,2,1.118999958,1,0,200,96,1,199,3,2,0.1,1,stim/objects/Instruments/tuba2.png,stim/61.jpeg,6,stim/6.png,1,2,65,2021-04-02_09h04.03.275,premup-three_ses-02_part-03_label-phase3,3.2.4,MacIntel,60
1,right,1.045000076,,,0,,,0,,,1,0,200,112,1,199,0,2,0,2,stim/objects/Instruments/electricguitar3.png,,0,stim/0.png,0,0,65,2021-04-02_09h04.03.275,premup-three_ses-02_part-03_label-phase3,3.2.4,MacIntel,60
1,right,0.802999973,,,0,,,0,,,1,0,200,131,1,199,0,2,0,2,stim/objects/Instruments/hihat3.png,,0,stim/0.png,0,0,65,2021-04-02_09h04.03.275,premup-three_ses-02_part-03_label-phase3,3.2.4,MacIntel,60
1,right,0.720999956,,,0,,,0,,,1,0,200,110,1,199,0,2,0,2,stim/objects/Instruments/drums3.png,,0,stim/0.png,0,0,65,2021-04-02_09h04.03.275,premup-three_ses-02_part-03_label-phase3,3.2.4,MacIntel,60
1,right,0.572999954,,,0,,,0,,,1,0,200,140,1,199,0,1,0,2,stim/objects/HouseObjects/recyclingbin3.png,,0,stim/0.png,0,0,65,2021-04-02_09h04.03.275,premup-three_ses-02_part-03_label-phase3,3.2.4,MacIntel,60
1,right,0.484999895,3,1.434000015,0,1,0.753000021,0,1,1.064999819,1,0,200,7,1,199,1,1,0.5,1,stim/objects/Instruments/record.png,stim/14.jpeg,1,stim/1.png,4,1,65,2021-04-02_09h04.03.275,premup-three_ses-02_part-03_label-phase3,3.2.4,MacIntel,60
1,right,0.778000116,2,1.898999929,0,4,3.338999987,0,3,1.335999966,1,0,200,14,1,199,1,2,0.5,1,stim/objects/HouseObjects/teapot.png,stim/21.jpeg,2,stim/2.png,1,4,65,2021-04-02_09h04.03.275,premup-three_ses-02_part-03_label-phase3,3.2.4,MacIntel,60
1,left,1.529000044,,,0,,,0,,,1,0,200,171,1,199,0,2,0,2,stim/objects/Instruments/tuba3.png,,0,stim/0.png,0,0,65,2021-04-02_09h04.03.275,premup-three_ses-02_part-03_label-phase3,3.2.4,MacIntel,60
1,left,0.467999935,,,0,,,0,,,1,0,200,191,1,199,0,2,0,2,stim/objects/Instruments/gong4.png,,0,stim/0.png,0,0,65,2021-04-02_09h04.03.275,premup-three_ses-02_part-03_label-phase3,3.2.4,MacIntel,60
1,left,0.329999924,1,0.552999973,0,2,0.643999815,0,2,2.608999729,1,0,200,90,1,199,3,2,0.1,1,stim/objects/Instruments/speaker2.png,stim/63.jpeg,6,stim/6.png,3,2,65,2021-04-02_09h04.03.275,premup-three_ses-02_part-03_label-phase3,3.2.4,MacIntel,60
1,right,1.919999838,,,0,,,0,,,1,0,200,101,1,199,0,1,0,2,stim/objects/HouseObjects/cushion3.png,,0,stim/0.png,0,0,65,2021-04-02_09h04.03.275,premup-three_ses-02_part-03_label-phase3,3.2.4,MacIntel,60
1,right,0.799999952,,,0,,,0,,,1,0,200,189,1,199,0,1,0,2,stim/objects/HouseObjects/key4.png,,0,stim/0.png,0,0,65,2021-04-02_09h04.03.275,premup-three_ses-02_part-03_label-phase3,3.2.4,MacIntel,60
1,right,0.599999905,1,3.028999805,0,1,2.369999886,0,2,0.792999744,1,0,200,45,1,199,2,1,0.7,1,stim/objects/HouseObjects/handbrush2.png,stim/41.jpeg,4,stim/4.png,1,1,65,2021-04-02_09h04.03.275,premup-three_ses-02_part-03_label-phase3,3.2.4,MacIntel,60
1,right,1.414999962,1,1.113999844,0,1,1.585999966,0,3,1.47300005,1,0,200,10,1,199,1,2,0.5,1,stim/objects/HouseObjects/saw.png,stim/21.jpeg,2,stim/2.png,1,1,65,2021-04-02_09h04.03.275,premup-three_ses-02_part-03_label-phase3,3.2.4,MacIntel,60
1,left,1.028999805,,,0,,,0,,,1,0,200,141,1,199,0,1,0,2,stim/objects/HouseObjects/remote3.png,,0,stim/0.png,0,0,65,2021-04-02_09h04.03.275,premup-three_ses-02_part-03_label-phase3,3.2.4,MacIntel,60
1,left,1.41899991,3,1.279999971,0,2,1.622999907,0,3,0.88499999,1,0,200,46,1,199,2,1,0.7,1,stim/objects/HouseObjects/handvacuum2.png,stim/42.jpeg,4,stim/4.png,2,4,65,2021-04-02_09h04.03.275,premup-three_ses-02_part-03_label-phase3,3.2.4,MacIntel,60
1,left,2.039000034,,,0,,,0,,,1,0,200,177,1,199,0,2,0,2,stim/objects/Instruments/electricguitar4.png,,0,stim/0.png,0,0,65,2021-04-02_09h04.03.275,premup-three_ses-02_part-03_label-phase3,3.2.4,MacIntel,60
1,left,0.926000118,,,0,,,0,,,1,0,200,158,1,199,0,2,0,2,stim/objects/Instruments/triangle3.png,,0,stim/0.png,0,0,65,2021-04-02_09h04.03.275,premup-three_ses-02_part-03_label-phase3,3.2.4,MacIntel,60
1,left,1.140999794,,,0,,,0,,,1,0,200,145,1,199,0,1,0,2,stim/objects/HouseObjects/saw3.png,,0,stim/0.png,0,0,65,2021-04-02_09h04.03.275,premup-three_ses-02_part-03_label-phase3,3.2.4,MacIntel,60
1,left,1.103999853,2,1.309000015,0,2,1.794999838,0,1,1.217000008,1,0,200,64,1,199,3,1,0.1,1,stim/objects/HouseObjects/pitcher2.png,stim/51.jpeg,5,stim/5.png,1,1,65,2021-04-02_09h04.03.275,premup-three_ses-02_part-03_label-phase3,3.2.4,MacIntel,60
1,right,1.440999985,3,1.114999771,0,1,2.121000051,0,3,1.541000128,1,0,200,25,1,199,2,1,0.3,1,stim/objects/HouseObjects/coffee2.png,stim/32.jpeg,3,stim/3.png,2,2,65,2021-04-02_09h04.03.275,premup-three_ses-02_part-03_label-phase3,3.2.4,MacIntel,60
1,left,1.39199996,3,1.35199976,0,3,1.324999809,0,4,0.981999874,1,0,200,4,1,199,1,1,0.5,1,stim/objects/HouseObjects/safetypin.png,stim/13.jpeg,1,stim/1.png,3,1,65,2021-04-02_09h04.03.275,premup-three_ses-02_part-03_label-phase3,3.2.4,MacIntel,60
1,left,0.876999855,,,0,,,0,,,1,0,200,122,1,199,0,1,0,2,stim/objects/HouseObjects/iron3.png,,0,stim/0.png,0,0,65,2021-04-02_09h04.03.275,premup-three_ses-02_part-03_label-phase3,3.2.4,MacIntel,60
1,left,0.944999933,3,1.260999918,0,4,1.965999842,0,2,1.813999891,1,0,200,21,1,199,2,1,0.3,1,stim/objects/HouseObjects/thread.png,stim/32.jpeg,3,stim/3.png,2,1,65,2021-04-02_09h04.03.275,premup-three_ses-02_part-03_label-phase3,3.2.4,MacIntel,60
1,left,1.069999933,,,0,,,0,,,1,0,200,115,1,199,0,2,0,2,stim/objects/Instruments/frenchhorn3.png,,0,stim/0.png,0,0,65,2021-04-02_09h04.03.275,premup-three_ses-02_part-03_label-phase3,3.2.4,MacIntel,60
1,right,1.150999784,,,0,,,0,,,1,0,200,130,1,199,0,2,0,2,stim/objects/Instruments/harp3.png,,0,stim/0.png,0,0,65,2021-04-02_09h04.03.275,premup-three_ses-02_part-03_label-phase3,3.2.4,MacIntel,60
1,right,1.025000095,,,0,,,0,,,1,0,200,186,1,199,0,1,0,2,stim/objects/HouseObjects/handvacuum4.png,,0,stim/0.png,0,0,65,2021-04-02_09h04.03.275,premup-three_ses-02_part-03_label-phase3,3.2.4,MacIntel,60
1,left,0.906999826,2,1.015999794,0,3,0.736000061,0,3,0.900999784,1,0,200,20,1,199,2,1,0.3,1,stim/objects/HouseObjects/thermometer.png,stim/31.jpeg,3,stim/3.png,1,1,65,2021-04-02_09h04.03.275,premup-three_ses-02_part-03_label-phase3,3.2.4,MacIntel,60
1,left,1.174000025,,,0,,,0,,,1,0,200,138,1,199,0,2,0,2,stim/objects/Instruments/musicstand3.png,,0,stim/0.png,0,0,65,2021-04-02_09h04.03.275,premup-three_ses-02_part-03_label-phase3,3.2.4,MacIntel,60
1,right,0.563999891,1,0.615999937,0,1,1.051999807,0,3,1.318000078,1,0,200,53,1,199,2,2,0.3,1,stim/objects/Instruments/guitarcase2.png,stim/41.jpeg,4,stim/4.png,1,4,65,2021-04-02_09h04.03.275,premup-three_ses-02_part-03_label-phase3,3.2.4,MacIntel,60
1,right,0.971999884,,,0,,,0,,,1,0,200,104,1,199,0,1,0,2,stim/objects/HouseObjects/dustpan3.png,,0,stim/0.png,0,0,65,2021-04-02_09h04.03.275,premup-three_ses-02_part-03_label-phase3,3.2.4,MacIntel,60
1,right,0.838999748,,,0,,,0,,,1,0,200,170,1,199,0,2,0,2,stim/objects/Instruments/trumpet3.png,,0,stim/0.png,0,0,65,2021-04-02_09h04.03.275,premup-three_ses-02_part-03_label-phase3,3.2.4,MacIntel,60
1,right,0.522999763,4,1.481999874,0,2,2.559999943,0,2,0.619999886,1,0,200,71,1,199,3,2,0.9,1,stim/objects/Instruments/metronome2.png,stim/54.jpeg,5,stim/5.png,4,3,65,2021-04-02_09h04.03.275,premup-three_ses-02_part-03_label-phase3,3.2.4,MacIntel,60
1,right,1.342000008,3,1.129999876,0,1,0.93599987,0,2,0.438999891,1,0,200,13,1,199,1,2,0.5,1,stim/objects/HouseObjects/spraybottle.png,stim/24.jpeg,2,stim/2.png,4,3,65,2021-04-02_09h04.03.275,premup-three_ses-02_part-03_label-phase3,3.2.4,MacIntel,60
1,right,2.595999956,,,0,,,0,,,1,0,200,146,1,199,0,1,0,2,stim/objects/HouseObjects/scale3.png,,0,stim/0.png,0,0,65,2021-04-02_09h04.03.275,premup-three_ses-02_part-03_label-phase3,3.2.4,MacIntel,60
1,left,0.523999929,,,0,,,0,,,1,0,200,126,1,199,0,1,0,2,stim/objects/HouseObjects/lintroller3.png,,0,stim/0.png,0,0,65,2021-04-02_09h04.03.275,premup-three_ses-02_part-03_label-phase3,3.2.4,MacIntel,60
1,right,0.60800004,,,0,,,0,,,1,0,200,105,1,199,0,1,0,2,stim/objects/HouseObjects/flyswatter3.png,,0,stim/0.png,0,0,65,2021-04-02_09h04.03.275,premup-three_ses-02_part-03_label-phase3,3.2.4,MacIntel,60
1,left,1.403000116,2,1.069000006,0,1,0.876999855,0,1,0.620999813,1,0,200,73,1,199,3,2,0.9,1,stim/objects/Instruments/musicstand2.png,stim/52.jpeg,5,stim/5.png,2,4,65,2021-04-02_09h04.03.275,premup-three_ses-02_part-03_label-phase3,3.2.4,MacIntel,60
1,right,1.505999804,2,0.892999887,0,2,1.715999842,0,4,0.940000057,1,0,200,41,1,199,2,1,0.7,1,stim/objects/HouseObjects/garbagebin2.png,stim/41.jpeg,4,stim/4.png,1,1,65,2021-04-02_09h04.03.275,premup-three_ses-02_part-03_label-phase3,3.2.4,MacIntel,60
1,right,1.018999815,2,3.799000025,0,2,0.720000029,0,1,2.274999857,1,0,200,51,1,199,2,2,0.3,1,stim/objects/Instruments/gong2.png,stim/43.jpeg,4,stim/4.png,3,4,65,2021-04-02_09h04.03.275,premup-three_ses-02_part-03_label-phase3,3.2.4,MacIntel,60
1,right,0.871000051,,,0,,,0,,,1,0,200,102,1,199,0,1,0,2,stim/objects/HouseObjects/dishsoap3.png,,0,stim/0.png,0,0,65,2021-04-02_09h04.03.275,premup-three_ses-02_part-03_label-phase3,3.2.4,MacIntel,60
1,right,0.671999931,1,1.197000027,0,2,1.818000078,0,2,1.01699996,1,0,200,15,1,199,1,2,0.5,1,stim/objects/Instruments/speaker.png,stim/24.jpeg,2,stim/2.png,4,1,65,2021-04-02_09h04.03.275,premup-three_ses-02_part-03_label-phase3,3.2.4,MacIntel,60
1,left,0.848999977,2,0.636999846,0,3,0.669999838,0,3,0.896999836,1,0,200,8,1,199,1,1,0.5,1,stim/objects/Instruments/record_player.png,stim/11.jpeg,1,stim/1.png,1,3,65,2021-04-02_09h04.03.275,premup-three_ses-02_part-03_label-phase3,3.2.4,MacIntel,60
1,right,1.644999981,2,1.677999973,0,2,0.472000122,0,1,0.888999939,1,0,200,43,1,199,2,1,0.7,1,stim/objects/HouseObjects/glassmop2.png,stim/43.jpeg,4,stim/4.png,3,3,65,2021-04-02_09h04.03.275,premup-three_ses-02_part-03_label-phase3,3.2.4,MacIntel,60
1,right,4.271999836,2,0.821000099,0,1,1.47699976,0,1,0.538999796,1,0,200,49,1,199,2,1,0.7,1,stim/objects/HouseObjects/key2.png,stim/41.jpeg,4,stim/4.png,1,1,65,2021-04-02_09h04.03.275,premup-three_ses-02_part-03_label-phase3,3.2.4,MacIntel,60
1,left,0.970999956,,,0,,,0,,,1,0,200,190,1,199,0,2,0,2,stim/objects/Instruments/frenchhorn4.png,,0,stim/0.png,0,0,65,2021-04-02_09h04.03.275,premup-three_ses-02_part-03_label-phase3,3.2.4,MacIntel,60
1,left,0.888000011,4,3.448999882,0,2,2.769000053,0,2,2.352999926,1,0,200,91,1,199,3,2,0.1,1,stim/objects/Instruments/tambourine2.png,stim/64.jpeg,6,stim/6.png,4,4,65,2021-04-02_09h04.03.275,premup-three_ses-02_part-03_label-phase3,3.2.4,MacIntel,60
1,right,1.308999777,2,1.146999836,0,2,0.884000063,0,1,1.364000082,1,0,200,12,1,199,1,2,0.5,1,stim/objects/HouseObjects/sponge.png,stim/23.jpeg,2,stim/2.png,3,3,65,2021-04-02_09h04.03.275,premup-three_ses-02_part-03_label-phase3,3.2.4,MacIntel,60
1,left,1.409999847,4,1.316999912,0,4,4.04399991,0,4,1.620999813,1,0,200,19,1,199,1,2,0.5,1,stim/objects/Instruments/trombone.png,stim/24.jpeg,2,stim/2.png,4,1,65,2021-04-02_09h04.03.275,premup-three_ses-02_part-03_label-phase3,3.2.4,MacIntel,60
1,right,1.197999954,,,0,,,0,,,1,0,200,179,1,199,0,2,0,2,stim/objects/Instruments/flutetrans4.png,,0,stim/0.png,0,0,65,2021-04-02_09h04.03.275,premup-three_ses-02_part-03_label-phase3,3.2.4,MacIntel,60
1,right,1.103999853,2,1.029999733,0,1,40.68099976,0,1,1.503999949,1,0,200,84,1,199,3,1,0.9,1,stim/objects/HouseObjects/teapot2.png,stim/61.jpeg,6,stim/6.png,1,1,65,2021-04-02_09h04.03.275,premup-three_ses-02_part-03_label-phase3,3.2.4,MacIntel,60
1,left,0.862999916,4,1.654999971,0,1,1.255999804,0,1,0.325000048,1,0,200,30,1,199,2,2,0.7,1,stim/objects/Instruments/trumpet.png,stim/32.jpeg,3,stim/3.png,2,2,65,2021-04-02_09h04.03.275,premup-three_ses-02_part-03_label-phase3,3.2.4,MacIntel,60
1,right,1.431999922,2,1.53399992,0,1,2.328000069,0,4,4.256999969,1,0,200,62,1,199,3,1,0.1,1,stim/objects/HouseObjects/match2.png,stim/53.jpeg,5,stim/5.png,3,3,65,2021-04-02_09h04.03.275,premup-three_ses-02_part-03_label-phase3,3.2.4,MacIntel,60
1,left,0.951999903,,,0,,,0,,,1,0,200,159,1,199,0,2,0,2,stim/objects/Instruments/trombone3.png,,0,stim/0.png,0,0,65,2021-04-02_09h04.03.275,premup-three_ses-02_part-03_label-phase3,3.2.4,MacIntel,60
1,right,3.868999958,,,0,,,0,,,1,0,200,155,1,199,0,2,0,2,stim/objects/Instruments/speaker3.png,,0,stim/0.png,0,0,65,2021-04-02_09h04.03.275,premup-three_ses-02_part-03_label-phase3,3.2.4,MacIntel,60
1,right,0.16899991,2,2.653999805,0,2,1.569999933,0,4,2.877000093,1,0,200,37,1,199,2,2,0.7,1,stim/objects/Instruments/electricguitar2.png,stim/31.jpeg,3,stim/3.png,1,1,65,2021-04-02_09h04.03.275,premup-three_ses-02_part-03_label-phase3,3.2.4,MacIntel,60
1,left,1.194999933,3,1.698999882,0,2,1.221999884,0,1,3.272999763,1,0,200,63,1,199,3,1,0.1,1,stim/objects/HouseObjects/pan2.png,stim/54.jpeg,5,stim/5.png,4,3,65,2021-04-02_09h04.03.275,premup-three_ses-02_part-03_label-phase3,3.2.4,MacIntel,60
1,right,2.378000021,,,0,,,0,,,1,0,200,180,1,199,0,1,0,2,stim/objects/HouseObjects/flyswatter4.png,,0,stim/0.png,0,0,65,2021-04-02_09h04.03.275,premup-three_ses-02_part-03_label-phase3,3.2.4,MacIntel,60
1,right,0.687999964,,,0,,,0,,,1,0,200,127,1,199,0,1,0,2,stim/objects/HouseObjects/match3.png,,0,stim/0.png,0,0,65,2021-04-02_09h04.03.275,premup-three_ses-02_part-03_label-phase3,3.2.4,MacIntel,60
1,right,0.756999969,,,0,,,0,,,1,0,200,149,1,199,0,1,0,2,stim/objects/HouseObjects/teapot3.png,,0,stim/0.png,0,0,65,2021-04-02_09h04.03.275,premup-three_ses-02_part-03_label-phase3,3.2.4,MacIntel,60
1,right,0.717999935,,,0,,,0,,,1,0,200,124,1,199,0,1,0,2,stim/objects/HouseObjects/key3.png,,0,stim/0.png,0,0,65,2021-04-02_09h04.03.275,premup-three_ses-02_part-03_label-phase3,3.2.4,MacIntel,60
1,right,1.089999914,,,0,,,0,,,1,0,200,119,1,199,0,2,0,2,stim/objects/Instruments/harmonica3.png,,0,stim/0.png,0,0,65,2021-04-02_09h04.03.275,premup-three_ses-02_part-03_label-phase3,3.2.4,MacIntel,60
1,right,0.736000061,,,0,,,0,,,1,0,200,113,1,199,0,2,0,2,stim/objects/Instruments/flute3.png,,0,stim/0.png,0,0,65,2021-04-02_09h04.03.275,premup-three_ses-02_part-03_label-phase3,3.2.4,MacIntel,60
1,right,0.785999775,3,2.287999868,0,4,1.70299983,0,4,2.419999838,1,0,200,78,1,199,3,2,0.9,1,stim/objects/Instruments/record_player2.png,stim/53.jpeg,5,stim/5.png,3,2,65,2021-04-02_09h04.03.275,premup-three_ses-02_part-03_label-phase3,3.2.4,MacIntel,60
1,right,1.258999825,,,0,,,0,,,1,0,200,116,1,199,0,2,0,2,stim/objects/Instruments/gong3.png,,0,stim/0.png,0,0,65,2021-04-02_09h04.03.275,premup-three_ses-02_part-03_label-phase3,3.2.4,MacIntel,60
1,right,0.657999754,1,1.111999989,0,1,0.809000015,0,1,0.601999998,1,0,200,34,1,199,2,2,0.7,1,stim/objects/Instruments/xylophone.png,stim/32.jpeg,3,stim/3.png,2,2,65,2021-04-02_09h04.03.275,premup-three_ses-02_part-03_label-phase3,3.2.4,MacIntel,60
1,right,1.221999884,2,0.829999924,0,3,1.501999855,0,3,2.740999937,1,0,200,67,1,199,3,1,0.1,1,stim/objects/HouseObjects/rubbergloves2.png,stim/54.jpeg,5,stim/5.png,4,1,65,2021-04-02_09h04.03.275,premup-three_ses-02_part-03_label-phase3,3.2.4,MacIntel,60
1,left,1.342000008,2,1.178999901,0,4,2.588999987,0,3,1.247999907,1,0,200,80,1,199,3,1,0.9,1,stim/objects/HouseObjects/saw2.png,stim/61.jpeg,6,stim/6.png,1,1,65,2021-04-02_09h04.03.275,premup-three_ses-02_part-03_label-phase3,3.2.4,MacIntel,60
1,left,0.9599998,,,0,,,0,,,1,0,200,117,1,199,0,2,0,2,stim/objects/Instruments/grandpiano3.png,,0,stim/0.png,0,0,65,2021-04-02_09h04.03.275,premup-three_ses-02_part-03_label-phase3,3.2.4,MacIntel,60
1,right,1.457000017,,,0,,,0,,,1,0,200,111,1,199,0,2,0,2,stim/objects/Instruments/electricdrumset3.png,,0,stim/0.png,0,0,65,2021-04-02_09h04.03.275,premup-three_ses-02_part-03_label-phase3,3.2.4,MacIntel,60
1,right,0.772000074,2,2.070999861,0,2,1.586999893,0,3,1.451999903,1,0,200,22,1,199,2,1,0.3,1,stim/objects/HouseObjects/towel.png,stim/33.jpeg,3,stim/3.png,3,4,65,2021-04-02_09h04.03.275,premup-three_ses-02_part-03_label-phase3,3.2.4,MacIntel,60
1,left,1.070999861,3,1.23300004,0,1,1.139999866,0,1,1.519000053,1,0,200,57,1,199,2,2,0.3,1,stim/objects/Instruments/keyboard2.png,stim/41.jpeg,4,stim/4.png,1,4,65,2021-04-02_09h04.03.275,premup-three_ses-02_part-03_label-phase3,3.2.4,MacIntel,60
1,left,0.764999866,3,1.131999731,0,4,1.088000059,0,2,1.669999838,1,0,200,74,1,199,3,2,0.9,1,stim/objects/Instruments/oboe2.png,stim/53.jpeg,5,stim/5.png,3,4,65,2021-04-02_09h04.03.275,premup-three_ses-02_part-03_label-phase3,3.2.4,MacIntel,60
1,left,1.670999765,3,0.665999889,0,1,1.071999788,0,1,0.805999994,1,0,200,26,1,199,2,1,0.3,1,stim/objects/HouseObjects/cushion2.png,stim/33.jpeg,3,stim/3.png,3,4,65,2021-04-02_09h04.03.275,premup-three_ses-02_part-03_label-phase3,3.2.4,MacIntel,60
1,right,1.707000017,,,0,,,0,,,1,0,200,156,1,199,0,2,0,2,stim/objects/Instruments/tambourine3.png,,0,stim/0.png,0,0,65,2021-04-02_09h04.03.275,premup-three_ses-02_part-03_label-phase3,3.2.4,MacIntel,60
1,right,1.552999973,,,0,,,0,,,1,0,200,161,1,199,0,1,0,2,stim/objects/HouseObjects/thread3.png,,0,stim/0.png,0,0,65,2021-04-02_09h04.03.275,premup-three_ses-02_part-03_label-phase3,3.2.4,MacIntel,60
1,right,0.876999855,3,1.147999763,0,3,1.936999798,0,1,3.127000093,1,0,200,56,1,199,2,2,0.3,1,stim/objects/Instruments/hihat2.png,stim/44.jpeg,4,stim/4.png,4,2,65,2021-04-02_09h04.03.275,premup-three_ses-02_part-03_label-phase3,3.2.4,MacIntel,60
1,left,0.840999842,3,0.965999842,0,3,1.737999916,0,2,1.8349998,1,0,200,16,1,199,1,2,0.5,1,stim/objects/Instruments/tambourine.png,stim/21.jpeg,2,stim/2.png,1,2,65,2021-04-02_09h04.03.275,premup-three_ses-02_part-03_label-phase3,3.2.4,MacIntel,60
1,right,1.791999817,,,0,,,0,,,1,0,200,184,1,199,0,1,0,2,stim/objects/HouseObjects/hairdryer4.png,,0,stim/0.png,0,0,65,2021-04-02_09h04.03.275,premup-three_ses-02_part-03_label-phase3,3.2.4,MacIntel,60
1,right,0.588000059,,,0,,,0,,,1,0,200,173,1,199,0,2,0,2,stim/objects/Instruments/vuvuzela3.png,,0,stim/0.png,0,0,65,2021-04-02_09h04.03.275,premup-three_ses-02_part-03_label-phase3,3.2.4,MacIntel,60
1,right,1.286999941,,,0,,,0,,,1,0,200,151,1,199,0,2,0,2,stim/objects/Instruments/pipepiano3.png,,0,stim/0.png,0,0,65,2021-04-02_09h04.03.275,premup-three_ses-02_part-03_label-phase3,3.2.4,MacIntel,60
1,right,0.618999958,,,0,,,0,,,1,0,200,175,1,199,0,2,0,2,stim/objects/Instruments/drums4.png,,0,stim/0.png,0,0,65,2021-04-02_09h04.03.275,premup-three_ses-02_part-03_label-phase3,3.2.4,MacIntel,60
1,right,0.769999981,4,1.531999826,0,1,2.003999949,0,1,0.669999838,1,0,200,28,1,199,2,1,0.3,1,stim/objects/HouseObjects/doormat2.png,stim/31.jpeg,3,stim/3.png,1,3,65,2021-04-02_09h04.03.275,premup-three_ses-02_part-03_label-phase3,3.2.4,MacIntel,60
1,left,4.836999893,,,0,,,0,,,1,0,200,165,1,199,0,1,0,2,stim/objects/HouseObjects/coffee4.png,,0,stim/0.png,0,0,65,2021-04-02_09h04.03.275,premup-three_ses-02_part-03_label-phase3,3.2.4,MacIntel,60
1,left,1.786999941,,,0,,,0,,,1,0,200,164,1,199,0,1,0,2,stim/objects/HouseObjects/wateringcan3.png,,0,stim/0.png,0,0,65,2021-04-02_09h04.03.275,premup-three_ses-02_part-03_label-phase3,3.2.4,MacIntel,60
1,right,0.866999865,,,0,,,0,,,1,0,200,125,1,199,0,1,0,2,stim/objects/HouseObjects/knife3.png,,0,stim/0.png,0,0,65,2021-04-02_09h04.03.275,premup-three_ses-02_part-03_label-phase3,3.2.4,MacIntel,60
1,right,0.717000008,3,1.980000019,0,1,1.044000149,0,1,0.638000011,1,0,200,77,1,199,3,2,0.9,1,stim/objects/Instruments/record2.png,stim/52.jpeg,5,stim/5.png,2,2,65,2021-04-02_09h04.03.275,premup-three_ses-02_part-03_label-phase3,3.2.4,MacIntel,60
1,right,1.72300005,3,1.662999868,0,3,1.103999853,0,1,1.286000013,1,0,200,33,1,199,2,2,0.7,1,stim/objects/Instruments/vuvuzela.png,stim/31.jpeg,3,stim/3.png,1,3,65,2021-04-02_09h04.03.275,premup-three_ses-02_part-03_label-phase3,3.2.4,MacIntel,60
1,right,1.075000048,1,1.25,0,2,2.171999931,0,2,0.953999758,1,0,200,40,1,199,2,1,0.7,1,stim/objects/HouseObjects/flyswatter2.png,stim/44.jpeg,4,stim/4.png,4,1,65,2021-04-02_09h04.03.275,premup-three_ses-02_part-03_label-phase3,3.2.4,MacIntel,60
1,right,4.108999729,1,3.536999941,0,1,0.720999956,0,4,1.104000092,1,0,200,48,1,199,2,1,0.7,1,stim/objects/HouseObjects/ironingboard2.png,stim/44.jpeg,4,stim/4.png,4,1,65,2021-04-02_09h04.03.275,premup-three_ses-02_part-03_label-phase3,3.2.4,MacIntel,60
1,right,0.693000078,1,2.51699996,0,4,1.403999805,0,3,1.768999815,1,0,200,65,1,199,3,1,0.1,1,stim/objects/HouseObjects/recyclingbin2.png,stim/52.jpeg,5,stim/5.png,2,3,65,2021-04-02_09h04.03.275,premup-three_ses-02_part-03_label-phase3,3.2.4,MacIntel,60
1,right,2.007999897,,,0,,,0,,,1,0,200,174,1,199,0,2,0,2,stim/objects/Instruments/xylophone3.png,,0,stim/0.png,0,0,65,2021-04-02_09h04.03.275,premup-three_ses-02_part-03_label-phase3,3.2.4,MacIntel,60
1,right,1.431999922,1,1.166999817,0,2,0.960999727,0,4,2.09800005,1,0,200,0,1,199,1,1,0.5,1,stim/objects/HouseObjects/recyclingbin.png,stim/13.jpeg,1,stim/1.png,3,4,65,2021-04-02_09h04.03.275,premup-three_ses-02_part-03_label-phase3,3.2.4,MacIntel,60
1,left,1.102999926,,,0,,,0,,,1,0,200,154,1,199,0,2,0,2,stim/objects/Instruments/saxophone3.png,,0,stim/0.png,0,0,65,2021-04-02_09h04.03.275,premup-three_ses-02_part-03_label-phase3,3.2.4,MacIntel,60
1,left,0.904999733,,,0,,,0,,,1,0,200,192,1,199,0,2,0,2,stim/objects/Instruments/grandpiano4.png,,0,stim/0.png,0,0,65,2021-04-02_09h04.03.275,premup-three_ses-02_part-03_label-phase3,3.2.4,MacIntel,60
1,right,1.053999901,3,1.645999908,0,3,1.57799983,0,1,0.552999973,1,0,200,60,1,199,3,1,0.1,1,stim/objects/HouseObjects/knife2.png,stim/51.jpeg,5,stim/5.png,1,3,65,2021-04-02_09h04.03.275,premup-three_ses-02_part-03_label-phase3,3.2.4,MacIntel,60
1,right,2.371999979,2,1.167000055,0,2,1.618999958,0,1,0.467999935,1,0,200,68,1,199,3,1,0.1,1,stim/objects/HouseObjects/rug2.png,stim/51.jpeg,5,stim/5.png,1,2,65,2021-04-02_09h04.03.275,premup-three_ses-02_part-03_label-phase3,3.2.4,MacIntel,60
1,left,0.749000072,,,0,,,0,,,1,0,200,139,1,199,0,2,0,2,stim/objects/Instruments/oboe3.png,,0,stim/0.png,0,0,65,2021-04-02_09h04.03.275,premup-three_ses-02_part-03_label-phase3,3.2.4,MacIntel,60
1,right,1.069999933,2,1.196999788,0,4,1.16899991,0,1,0.769999981,1,0,200,3,1,199,1,1,0.5,1,stim/objects/HouseObjects/rug.png,stim/12.jpeg,1,stim/1.png,2,2,65,2021-04-02_09h04.03.275,premup-three_ses-02_part-03_label-phase3,3.2.4,MacIntel,60
1,left,1.15899992,3,1.34800005,0,3,1.63499999,0,2,1.391000032,1,0,200,94,1,199,3,2,0.1,1,stim/objects/Instruments/trombone2.png,stim/63.jpeg,6,stim/6.png,3,4,65,2021-04-02_09h04.03.275,premup-three_ses-02_part-03_label-phase3,3.2.4,MacIntel,60
1,right,1.176999807,,,0,,,0,,,1,0,200,163,1,199,0,1,0,2,stim/objects/HouseObjects/vacuumcleaner3.png,,0,stim/0.png,0,0,65,2021-04-02_09h04.03.275,premup-three_ses-02_part-03_label-phase3,3.2.4,MacIntel,60
1,right,0.701999903,,,0,,,0,,,1,0,200,188,1,199,0,1,0,2,stim/objects/HouseObjects/ironingboard4.png,,0,stim/0.png,0,0,65,2021-04-02_09h04.03.275,premup-three_ses-02_part-03_label-phase3,3.2.4,MacIntel,60
1,right,1.101000071,,,0,,,0,,,1,0,200,137,1,199,0,2,0,2,stim/objects/Instruments/musicsheet3.png,,0,stim/0.png,0,0,65,2021-04-02_09h04.03.275,premup-three_ses-02_part-03_label-phase3,3.2.4,MacIntel,60
1,right,0.900999784,2,1.400999784,0,1,0.671000004,0,1,0.671000004,1,0,200,36,1,199,2,2,0.7,1,stim/objects/Instruments/electricdrumset2.png,stim/34.jpeg,3,stim/3.png,4,1,65,2021-04-02_09h04.03.275,premup-three_ses-02_part-03_label-phase3,3.2.4,MacIntel,60
1,left,0.856999874,3,1.881000042,0,3,1.325999975,0,4,1.327000141,1,0,200,70,1,199,3,2,0.9,1,stim/objects/Instruments/marimba2.png,stim/53.jpeg,5,stim/5.png,3,1,65,2021-04-02_09h04.03.275,premup-three_ses-02_part-03_label-phase3,3.2.4,MacIntel,60
1,left,0.855999947,4,1.059999943,0,1,0.917999983,0,2,2.503000021,1,0,200,32,1,199,2,2,0.7,1,stim/objects/Instruments/violin.png,stim/34.jpeg,3,stim/3.png,4,4,65,2021-04-02_09h04.03.275,premup-three_ses-02_part-03_label-phase3,3.2.4,MacIntel,60
1,left,1.244999886,3,0.982999802,0,2,1.835999727,0,4,3.777999878,1,0,200,9,1,199,1,1,0.5,1,stim/objects/Instruments/saxophone.png,stim/12.jpeg,1,stim/1.png,2,3,65,2021-04-02_09h04.03.275,premup-three_ses-02_part-03_label-phase3,3.2.4,MacIntel,60
1,right,0.906999826,2,1.05099988,0,1,0.857000113,0,3,1.541000128,1,0,200,59,1,199,2,2,0.3,1,stim/objects/Instruments/maraca2.png,stim/43.jpeg,4,stim/4.png,3,2,65,2021-04-02_09h04.03.275,premup-three_ses-02_part-03_label-phase3,3.2.4,MacIntel,60
1,right,3.220999956,,,0,,,0,,,1,0,200,187,1,199,0,1,0,2,stim/objects/HouseObjects/iron4.png,,0,stim/0.png,0,0,65,2021-04-02_09h04.03.275,premup-three_ses-02_part-03_label-phase3,3.2.4,MacIntel,60
1,left,0.76699996,,,0,,,0,,,1,0,200,120,1,199,0,1,0,2,stim/objects/HouseObjects/handbrush3.png,,0,stim/0.png,0,0,65,2021-04-02_09h04.03.275,premup-three_ses-02_part-03_label-phase3,3.2.4,MacIntel,60
1,left,0.796999931,2,1.11500001,0,3,1.369999886,0,4,1.322999954,1,0,200,76,1,199,3,2,0.9,1,stim/objects/Instruments/pipepiano2.png,stim/51.jpeg,5,stim/5.png,1,1,65,2021-04-02_09h04.03.275,premup-three_ses-02_part-03_label-phase3,3.2.4,MacIntel,60
1,right,0.92599988,,,0,,,0,,,1,0,200,118,1,199,0,2,0,2,stim/objects/Instruments/guitarcase3.png,,0,stim/0.png,0,0,65,2021-04-02_09h04.03.275,premup-three_ses-02_part-03_label-phase3,3.2.4,MacIntel,60
1,right,1.411000013,,,0,,,0,,,1,0,200,196,1,199,0,2,0,2,stim/objects/Instruments/hihat4.png,,0,stim/0.png,0,0,65,2021-04-02_09h04.03.275,premup-three_ses-02_part-03_label-phase3,3.2.4,MacIntel,60
1,right,0.605999947,,,0,,,0,,,1,0,200,106,1,199,0,1,0,2,stim/objects/HouseObjects/garbagebin3.png,,0,stim/0.png,0,0,65,2021-04-02_09h04.03.275,premup-three_ses-02_part-03_label-phase3,3.2.4,MacIntel,60
1,right,0.885999918,,,0,,,0,,,1,0,200,108,1,199,0,1,0,2,stim/objects/HouseObjects/glassmop3.png,,0,stim/0.png,0,0,65,2021-04-02_09h04.03.275,premup-three_ses-02_part-03_label-phase3,3.2.4,MacIntel,60
1,right,1.26699996,3,1.130999804,0,1,1.039999962,0,4,1.319999933,1,0,200,86,1,199,3,1,0.9,1,stim/objects/HouseObjects/thread2.png,stim/63.jpeg,6,stim/6.png,3,3,65,2021-04-02_09h04.03.275,premup-three_ses-02_part-03_label-phase3,3.2.4,MacIntel,60
