key_resp_pract.keys,key_resp_pract.rt,trial_acc,trial_index,practice_loop.thisRepN,practice_loop.thisTrialN,practice_loop.thisN,practice_loop.thisIndex,practice_loop.ran,practice_loop.order,scn_condition,scn_cat,scn_inst,scn_file,obj_cat,obj_cat_num,obj_file,trial_cond,quadrant,obj_x,obj_y,corr_ans,participant,date,expName,psychopyVersion,OS,frameRate,key_resp_trial.keys,key_resp_trial.rt,iterations.thisRepN,iterations.thisTrialN,iterations.thisN,iterations.thisIndex,iterations.ran,iterations.order,task_innerloop.thisRepN,task_innerloop.thisTrialN,task_innerloop.thisN,task_innerloop.thisIndex,task_innerloop.ran,task_innerloop.order,iteration_index,rating_acc,slider.response,slider.rt,slider_2.response,slider_2.rt,ratings.thisRepN,ratings.thisTrialN,ratings.thisN,ratings.thisIndex,ratings.ran,ratings.order,obj_cat_top,min_resp_top,max_resp_top,obj_cat_bottom,min_resp_bottom,max_resp_bottom
left,1.238000154,1,1,1,0,240,227,1,239,3,2,4,stim/24.jpeg,Instruments,1,stim/objects/Instruments/hihat2.png,0.9,2,0.2,0.15,left,66,2021-03-31_14h02.35.706,premup-three_ses-01_part-01_label-phase1,3.2.4,MacIntel,60,,,,,,,,,,,,,,,,,,,,,,,,,,,,,,,,
right,1.10800004,0,2,1,0,240,58,1,239,1,4,3,stim/43.jpeg,Instruments,1,stim/objects/Instruments/gong.png,0.5,2,0.2,0.15,left,66,2021-03-31_14h02.35.706,premup-three_ses-01_part-01_label-phase1,3.2.4,MacIntel,60,,,,,,,,,,,,,,,,,,,,,,,,,,,,,,,,
,,0,3,1,0,240,188,1,239,3,1,1,stim/11.jpeg,HouseObjects,2,stim/objects/HouseObjects/dustpan2.png,0.9,4,0.2,-0.15,right,66,2021-03-31_14h02.35.706,premup-three_ses-01_part-01_label-phase1,3.2.4,MacIntel,60,,,,,,,,,,,,,,,,,,,,,,,,,,,,,,,,
left,0.642000198,0,4,1,0,240,117,1,239,2,5,2,stim/52.jpeg,HouseObjects,2,stim/objects/HouseObjects/hairdryer.png,0.7,3,-0.2,-0.15,right,66,2021-03-31_14h02.35.706,premup-three_ses-01_part-01_label-phase1,3.2.4,MacIntel,60,,,,,,,,,,,,,,,,,,,,,,,,,,,,,,,,
left,0.703999996,1,5,1,0,240,214,1,239,3,2,3,stim/23.jpeg,Instruments,1,stim/objects/Instruments/harp2.png,0.9,1,-0.2,0.15,left,66,2021-03-31_14h02.35.706,premup-three_ses-01_part-01_label-phase1,3.2.4,MacIntel,60,,,,,,,,,,,,,,,,,,,,,,,,,,,,,,,,
left,0.693000078,1,6,1,0,240,85,1,239,2,5,2,stim/52.jpeg,Instruments,1,stim/objects/Instruments/harmonica.png,0.3,2,0.2,0.15,left,66,2021-03-31_14h02.35.706,premup-three_ses-01_part-01_label-phase1,3.2.4,MacIntel,60,,,,,,,,,,,,,,,,,,,,,,,,,,,,,,,,
left,1.007000208,0,7,1,0,240,101,1,239,2,5,2,stim/52.jpeg,HouseObjects,2,stim/objects/HouseObjects/hairdryer.png,0.7,2,0.2,0.15,right,66,2021-03-31_14h02.35.706,premup-three_ses-01_part-01_label-phase1,3.2.4,MacIntel,60,,,,,,,,,,,,,,,,,,,,,,,,,,,,,,,,
left,1.256000042,0,8,1,0,240,73,1,239,1,4,2,stim/42.jpeg,HouseObjects,2,stim/objects/HouseObjects/flyswatter.png,0.5,2,0.2,0.15,right,66,2021-03-31_14h02.35.706,premup-three_ses-01_part-01_label-phase1,3.2.4,MacIntel,60,,,,,,,,,,,,,,,,,,,,,,,,,,,,,,,,
left,0.837000132,0,9,1,0,240,39,1,239,1,3,4,stim/34.jpeg,HouseObjects,2,stim/objects/HouseObjects/doormat.png,0.5,3,-0.2,-0.15,right,66,2021-03-31_14h02.35.706,premup-three_ses-01_part-01_label-phase1,3.2.4,MacIntel,60,,,,,,,,,,,,,,,,,,,,,,,,,,,,,,,,
right,1.051000357,0,10,1,0,240,9,1,239,1,3,2,stim/32.jpeg,Instruments,1,stim/objects/Instruments/electricdrumset.png,0.5,4,0.2,-0.15,left,66,2021-03-31_14h02.35.706,premup-three_ses-01_part-01_label-phase1,3.2.4,MacIntel,60,,,,,,,,,,,,,,,,,,,,,,,,,,,,,,,,
,,1,1,,,,,,,2,5,1,stim/51.jpeg,Instruments,1,stim/objects/Instruments/guitarcase.png,0.3,3,-0.2,-0.15,left,66,2021-03-31_14h02.35.706,premup-three_ses-01_part-01_label-phase1,3.2.4,MacIntel,60,left,0.936000109,4,0,4,0,1,3,1,0,240,80,1,239,,,,,,,,,,,,,,,,,,
,,0,2,,,,,,,1,4,1,stim/41.jpeg,HouseObjects,2,stim/objects/HouseObjects/dustpan.png,0.5,4,0.2,-0.15,right,66,2021-03-31_14h02.35.706,premup-three_ses-01_part-01_label-phase1,3.2.4,MacIntel,60,left,0.911999941,4,0,4,0,1,3,1,0,240,76,1,239,,,,,,,,,,,,,,,,,,
,,0,3,,,,,,,2,6,4,stim/64.jpeg,HouseObjects,2,stim/objects/HouseObjects/doormat2.png,0.3,1,-0.2,0.15,right,66,2021-03-31_14h02.35.706,premup-three_ses-01_part-01_label-phase1,3.2.4,MacIntel,60,left,1.058000088,4,0,4,0,1,3,1,0,240,155,1,239,,,,,,,,,,,,,,,,,,
,,0,4,,,,,,,3,1,2,stim/12.jpeg,HouseObjects,2,stim/objects/HouseObjects/flyswatter2.png,0.9,3,-0.2,-0.15,right,66,2021-03-31_14h02.35.706,premup-three_ses-01_part-01_label-phase1,3.2.4,MacIntel,60,left,1.083000183,4,0,4,0,1,3,1,0,240,193,1,239,,,,,,,,,,,,,,,,,,
,,1,5,,,,,,,2,6,3,stim/63.jpeg,Instruments,1,stim/objects/Instruments/electricguitar2.png,0.7,4,0.2,-0.15,left,66,2021-03-31_14h02.35.706,premup-three_ses-01_part-01_label-phase1,3.2.4,MacIntel,60,left,1.418000221,4,0,4,0,1,3,1,0,240,146,1,239,,,,,,,,,,,,,,,,,,
,,0,6,,,,,,,3,2,1,stim/21.jpeg,Instruments,1,stim/objects/Instruments/guitarcase2.png,0.9,1,-0.2,0.15,left,66,2021-03-31_14h02.35.706,premup-three_ses-01_part-01_label-phase1,3.2.4,MacIntel,60,right,1.13100028,4,0,4,0,1,3,1,0,240,216,1,239,,,,,,,,,,,,,,,,,,
,,0,7,,,,,,,2,6,4,stim/64.jpeg,Instruments,1,stim/objects/Instruments/flute2.png,0.7,4,0.2,-0.15,left,66,2021-03-31_14h02.35.706,premup-three_ses-01_part-01_label-phase1,3.2.4,MacIntel,60,right,1.455000401,4,0,4,0,1,3,1,0,240,127,1,239,,,,,,,,,,,,,,,,,,
,,0,8,,,,,,,2,5,2,stim/52.jpeg,HouseObjects,2,stim/objects/HouseObjects/hairdryer.png,0.7,2,0.2,0.15,right,66,2021-03-31_14h02.35.706,premup-three_ses-01_part-01_label-phase1,3.2.4,MacIntel,60,left,0.565000296,4,0,4,0,1,3,1,0,240,105,1,239,,,,,,,,,,,,,,,,,,
,,1,9,,,,,,,3,2,3,stim/23.jpeg,Instruments,1,stim/objects/Instruments/harp2.png,0.9,3,-0.2,-0.15,left,66,2021-03-31_14h02.35.706,premup-three_ses-01_part-01_label-phase1,3.2.4,MacIntel,60,left,1.168000221,4,0,4,0,1,3,1,0,240,206,1,239,,,,,,,,,,,,,,,,,,
,,0,10,,,,,,,2,5,4,stim/54.jpeg,Instruments,1,stim/objects/Instruments/hihat.png,0.3,2,0.2,0.15,left,66,2021-03-31_14h02.35.706,premup-three_ses-01_part-01_label-phase1,3.2.4,MacIntel,60,right,1.339000225,4,0,4,0,1,3,1,0,240,91,1,239,,,,,,,,,,,,,,,,,,
,,1,11,,,,,,,1,4,4,stim/44.jpeg,Instruments,1,stim/objects/Instruments/grandpiano.png,0.5,4,0.2,-0.15,left,66,2021-03-31_14h02.35.706,premup-three_ses-01_part-01_label-phase1,3.2.4,MacIntel,60,left,1.04700017,4,0,4,0,1,3,1,0,240,59,1,239,,,,,,,,,,,,,,,,,,
,,1,12,,,,,,,1,4,4,stim/44.jpeg,Instruments,1,stim/objects/Instruments/grandpiano.png,0.5,3,-0.2,-0.15,left,66,2021-03-31_14h02.35.706,premup-three_ses-01_part-01_label-phase1,3.2.4,MacIntel,60,left,0.864000082,4,0,4,0,1,3,1,0,240,51,1,239,,,,,,,,,,,,,,,,,,
,,0,13,,,,,,,1,3,4,stim/34.jpeg,HouseObjects,2,stim/objects/HouseObjects/doormat.png,0.5,1,-0.2,0.15,right,66,2021-03-31_14h02.35.706,premup-three_ses-01_part-01_label-phase1,3.2.4,MacIntel,60,left,0.761000156,4,0,4,0,1,3,1,0,240,23,1,239,,,,,,,,,,,,,,,,,,
,,1,14,,,,,,,2,6,2,stim/62.jpeg,Instruments,1,stim/objects/Instruments/electricdrumset2.png,0.7,1,-0.2,0.15,left,66,2021-03-31_14h02.35.706,premup-three_ses-01_part-01_label-phase1,3.2.4,MacIntel,60,left,1.303000212,4,0,4,0,1,3,1,0,240,141,1,239,,,,,,,,,,,,,,,,,,
,,0,15,,,,,,,2,6,2,stim/62.jpeg,HouseObjects,2,stim/objects/HouseObjects/cushion2.png,0.3,2,0.2,0.15,right,66,2021-03-31_14h02.35.706,premup-three_ses-01_part-01_label-phase1,3.2.4,MacIntel,60,left,0.786000252,4,0,4,0,1,3,1,0,240,153,1,239,,,,,,,,,,,,,,,,,,
,,0,16,,,,,,,3,1,4,stim/14.jpeg,HouseObjects,2,stim/objects/HouseObjects/glass2.png,0.9,3,-0.2,-0.15,right,66,2021-03-31_14h02.35.706,premup-three_ses-01_part-01_label-phase1,3.2.4,MacIntel,60,left,1.247000217,4,0,4,0,1,3,1,0,240,179,1,239,,,,,,,,,,,,,,,,,,
,,0,17,,,,,,,1,4,2,stim/42.jpeg,HouseObjects,2,stim/objects/HouseObjects/flyswatter.png,0.5,4,0.2,-0.15,right,66,2021-03-31_14h02.35.706,premup-three_ses-01_part-01_label-phase1,3.2.4,MacIntel,60,left,0.940000057,4,0,4,0,1,3,1,0,240,65,1,239,,,,,,,,,,,,,,,,,,
,,1,18,,,,,,,2,6,1,stim/61.jpeg,Instruments,1,stim/objects/Instruments/drums2.png,0.7,1,-0.2,0.15,left,66,2021-03-31_14h02.35.706,premup-three_ses-01_part-01_label-phase1,3.2.4,MacIntel,60,left,0.789000034,4,0,4,0,1,3,1,0,240,128,1,239,,,,,,,,,,,,,,,,,,
,,1,19,,,,,,,3,1,1,stim/11.jpeg,HouseObjects,2,stim/objects/HouseObjects/dustpan2.png,0.9,2,0.2,0.15,right,66,2021-03-31_14h02.35.706,premup-three_ses-01_part-01_label-phase1,3.2.4,MacIntel,60,right,1.356000185,4,0,4,0,1,3,1,0,240,172,1,239,,,,,,,,,,,,,,,,,,
,,1,20,,,,,,,1,4,1,stim/41.jpeg,Instruments,1,stim/objects/Instruments/flutetrans.png,0.5,2,0.2,0.15,left,66,2021-03-31_14h02.35.706,premup-three_ses-01_part-01_label-phase1,3.2.4,MacIntel,60,left,1.356000185,4,0,4,0,1,3,1,0,240,52,1,239,,,,,,,,,,,,,,,,,,
,,0,21,,,,,,,3,2,4,stim/24.jpeg,HouseObjects,2,stim/objects/HouseObjects/handvacuum2.png,0.1,3,-0.2,-0.15,right,66,2021-03-31_14h02.35.706,premup-three_ses-01_part-01_label-phase1,3.2.4,MacIntel,60,left,1.183000088,4,0,4,0,1,3,1,0,240,239,1,239,,,,,,,,,,,,,,,,,,
,,1,22,,,,,,,1,3,2,stim/32.jpeg,HouseObjects,2,stim/objects/HouseObjects/cushion.png,0.5,1,-0.2,0.15,right,66,2021-03-31_14h02.35.706,premup-three_ses-01_part-01_label-phase1,3.2.4,MacIntel,60,right,1.303000212,4,0,4,0,1,3,1,0,240,29,1,239,,,,,,,,,,,,,,,,,,
,,0,23,,,,,,,3,1,3,stim/13.jpeg,HouseObjects,2,stim/objects/HouseObjects/garbagebin2.png,0.9,4,0.2,-0.15,right,66,2021-03-31_14h02.35.706,premup-three_ses-01_part-01_label-phase1,3.2.4,MacIntel,60,left,1.092000008,4,0,4,0,1,3,1,0,240,174,1,239,,,,,,,,,,,,,,,,,,
,,0,24,,,,,,,3,2,1,stim/21.jpeg,Instruments,1,stim/objects/Instruments/guitarcase2.png,0.9,1,-0.2,0.15,left,66,2021-03-31_14h02.35.706,premup-three_ses-01_part-01_label-phase1,3.2.4,MacIntel,60,right,1.221000195,4,0,4,0,1,3,1,0,240,200,1,239,,,,,,,,,,,,,,,,,,
,,1,25,,,,,,,3,2,4,stim/24.jpeg,Instruments,1,stim/objects/Instruments/hihat2.png,0.9,1,-0.2,0.15,left,66,2021-03-31_14h02.35.706,premup-three_ses-01_part-01_label-phase1,3.2.4,MacIntel,60,left,1.159000158,4,0,4,0,1,3,1,0,240,223,1,239,,,,,,,,,,,,,,,,,,
,,0,26,,,,,,,2,6,3,stim/63.jpeg,HouseObjects,2,stim/objects/HouseObjects/dishsoap2.png,0.3,4,0.2,-0.15,right,66,2021-03-31_14h02.35.706,premup-three_ses-01_part-01_label-phase1,3.2.4,MacIntel,60,left,1.75600028,4,0,4,0,1,3,1,0,240,158,1,239,,,,,,,,,,,,,,,,,,
,,1,27,,,,,,,3,1,2,stim/12.jpeg,HouseObjects,2,stim/objects/HouseObjects/flyswatter2.png,0.9,4,0.2,-0.15,right,66,2021-03-31_14h02.35.706,premup-three_ses-01_part-01_label-phase1,3.2.4,MacIntel,60,right,1.402000189,4,0,4,0,1,3,1,0,240,177,1,239,,,,,,,,,,,,,,,,,,
,,1,28,,,,,,,2,5,4,stim/54.jpeg,Instruments,1,stim/objects/Instruments/hihat.png,0.3,1,-0.2,0.15,left,66,2021-03-31_14h02.35.706,premup-three_ses-01_part-01_label-phase1,3.2.4,MacIntel,60,left,1.24000001,4,0,4,0,1,3,1,0,240,83,1,239,,,,,,,,,,,,,,,,,,
,,1,29,,,,,,,2,6,2,stim/62.jpeg,Instruments,1,stim/objects/Instruments/electricdrumset2.png,0.7,4,0.2,-0.15,left,66,2021-03-31_14h02.35.706,premup-three_ses-01_part-01_label-phase1,3.2.4,MacIntel,60,left,1.177000284,4,0,4,0,1,3,1,0,240,133,1,239,,,,,,,,,,,,,,,,,,
,,0,30,,,,,,,3,2,2,stim/22.jpeg,Instruments,1,stim/objects/Instruments/harmonica2.png,0.9,4,0.2,-0.15,left,66,2021-03-31_14h02.35.706,premup-three_ses-01_part-01_label-phase1,3.2.4,MacIntel,60,right,0.837000132,4,0,4,0,1,3,1,0,240,225,1,239,,,,,,,,,,,,,,,,,,
,,0,31,,,,,,,3,2,3,stim/23.jpeg,Instruments,1,stim/objects/Instruments/harp2.png,0.9,2,0.2,0.15,left,66,2021-03-31_14h02.35.706,premup-three_ses-01_part-01_label-phase1,3.2.4,MacIntel,60,right,0.708000183,4,0,4,0,1,3,1,0,240,218,1,239,,,,,,,,,,,,,,,,,,
,,0,32,,,,,,,3,1,2,stim/12.jpeg,Instruments,1,stim/objects/Instruments/frenchhorn2.png,0.1,3,-0.2,-0.15,left,66,2021-03-31_14h02.35.706,premup-three_ses-01_part-01_label-phase1,3.2.4,MacIntel,60,right,1.74000001,4,0,4,0,1,3,1,0,240,161,1,239,,,,,,,,,,,,,,,,,,
,,0,33,,,,,,,3,2,1,stim/21.jpeg,Instruments,1,stim/objects/Instruments/guitarcase2.png,0.9,2,0.2,0.15,left,66,2021-03-31_14h02.35.706,premup-three_ses-01_part-01_label-phase1,3.2.4,MacIntel,60,right,1.225000381,4,0,4,0,1,3,1,0,240,212,1,239,,,,,,,,,,,,,,,,,,
,,0,34,,,,,,,1,3,1,stim/31.jpeg,Instruments,1,stim/objects/Instruments/drums.png,0.5,1,-0.2,0.15,left,66,2021-03-31_14h02.35.706,premup-three_ses-01_part-01_label-phase1,3.2.4,MacIntel,60,right,0.924000263,4,0,4,0,1,3,1,0,240,8,1,239,,,,,,,,,,,,,,,,,,
,,0,35,,,,,,,3,1,4,stim/14.jpeg,HouseObjects,2,stim/objects/HouseObjects/glass2.png,0.9,2,0.2,0.15,right,66,2021-03-31_14h02.35.706,premup-three_ses-01_part-01_label-phase1,3.2.4,MacIntel,60,,,4,0,4,0,1,3,1,0,240,175,1,239,,,,,,,,,,,,,,,,,,
,,0,36,,,,,,,2,5,1,stim/51.jpeg,HouseObjects,2,stim/objects/HouseObjects/glassmop.png,0.7,1,-0.2,0.15,right,66,2021-03-31_14h02.35.706,premup-three_ses-01_part-01_label-phase1,3.2.4,MacIntel,60,left,0.738000154,4,0,4,0,1,3,1,0,240,104,1,239,,,,,,,,,,,,,,,,,,
,,1,37,,,,,,,1,4,1,stim/41.jpeg,HouseObjects,2,stim/objects/HouseObjects/dustpan.png,0.5,1,-0.2,0.15,right,66,2021-03-31_14h02.35.706,premup-three_ses-01_part-01_label-phase1,3.2.4,MacIntel,60,right,0.834000111,4,0,4,0,1,3,1,0,240,60,1,239,,,,,,,,,,,,,,,,,,
,,1,38,,,,,,,1,3,1,stim/31.jpeg,HouseObjects,2,stim/objects/HouseObjects/coffee.png,0.5,1,-0.2,0.15,right,66,2021-03-31_14h02.35.706,premup-three_ses-01_part-01_label-phase1,3.2.4,MacIntel,60,right,1.171000004,4,0,4,0,1,3,1,0,240,32,1,239,,,,,,,,,,,,,,,,,,
,,0,39,,,,,,,1,4,1,stim/41.jpeg,HouseObjects,2,stim/objects/HouseObjects/dustpan.png,0.5,1,-0.2,0.15,right,66,2021-03-31_14h02.35.706,premup-three_ses-01_part-01_label-phase1,3.2.4,MacIntel,60,left,1.454000235,4,0,4,0,1,3,1,0,240,72,1,239,,,,,,,,,,,,,,,,,,
,,0,40,,,,,,,2,6,3,stim/63.jpeg,Instruments,1,stim/objects/Instruments/electricguitar2.png,0.7,3,-0.2,-0.15,left,66,2021-03-31_14h02.35.706,premup-three_ses-01_part-01_label-phase1,3.2.4,MacIntel,60,right,1.042000055,4,0,4,0,1,3,1,0,240,142,1,239,,,,,,,,,,,,,,,,,,
,,0,41,,,,,,,3,1,4,stim/14.jpeg,HouseObjects,2,stim/objects/HouseObjects/glass2.png,0.9,4,0.2,-0.15,right,66,2021-03-31_14h02.35.706,premup-three_ses-01_part-01_label-phase1,3.2.4,MacIntel,60,left,1.219000101,4,0,4,0,1,3,1,0,240,191,1,239,,,,,,,,,,,,,,,,,,
,,1,42,,,,,,,3,2,2,stim/22.jpeg,HouseObjects,2,stim/objects/HouseObjects/hairdryer2.png,0.1,2,0.2,0.15,right,66,2021-03-31_14h02.35.706,premup-three_ses-01_part-01_label-phase1,3.2.4,MacIntel,60,right,0.771000147,4,0,4,0,1,3,1,0,240,237,1,239,,,,,,,,,,,,,,,,,,
,,0,43,,,,,,,1,3,2,stim/32.jpeg,HouseObjects,2,stim/objects/HouseObjects/cushion.png,0.5,1,-0.2,0.15,right,66,2021-03-31_14h02.35.706,premup-three_ses-01_part-01_label-phase1,3.2.4,MacIntel,60,left,1.142000198,4,0,4,0,1,3,1,0,240,21,1,239,,,,,,,,,,,,,,,,,,
,,0,44,,,,,,,3,2,4,stim/24.jpeg,Instruments,1,stim/objects/Instruments/hihat2.png,0.9,3,-0.2,-0.15,left,66,2021-03-31_14h02.35.706,premup-three_ses-01_part-01_label-phase1,3.2.4,MacIntel,60,right,0.739000082,4,0,4,0,1,3,1,0,240,235,1,239,,,,,,,,,,,,,,,,,,
,,0,45,,,,,,,2,5,1,stim/51.jpeg,HouseObjects,2,stim/objects/HouseObjects/glassmop.png,0.7,3,-0.2,-0.15,right,66,2021-03-31_14h02.35.706,premup-three_ses-01_part-01_label-phase1,3.2.4,MacIntel,60,left,0.907000303,4,0,4,0,1,3,1,0,240,116,1,239,,,,,,,,,,,,,,,,,,
,,1,46,,,,,,,2,6,2,stim/62.jpeg,Instruments,1,stim/objects/Instruments/electricdrumset2.png,0.7,3,-0.2,-0.15,left,66,2021-03-31_14h02.35.706,premup-three_ses-01_part-01_label-phase1,3.2.4,MacIntel,60,left,1.401000023,4,0,4,0,1,3,1,0,240,125,1,239,,,,,,,,,,,,,,,,,,
,,0,47,,,,,,,1,4,3,stim/43.jpeg,HouseObjects,2,stim/objects/HouseObjects/garbagebin.png,0.5,4,0.2,-0.15,right,66,2021-03-31_14h02.35.706,premup-three_ses-01_part-01_label-phase1,3.2.4,MacIntel,60,left,0.934000254,4,0,4,0,1,3,1,0,240,62,1,239,,,,,,,,,,,,,,,,,,
,,1,48,,,,,,,3,2,4,stim/24.jpeg,Instruments,1,stim/objects/Instruments/hihat2.png,0.9,2,0.2,0.15,left,66,2021-03-31_14h02.35.706,premup-three_ses-01_part-01_label-phase1,3.2.4,MacIntel,60,left,1.391000032,4,0,4,0,1,3,1,0,240,227,1,239,,,,,,,,,,,,,,,,,,
,,1,49,,,,,,,2,5,2,stim/52.jpeg,Instruments,1,stim/objects/Instruments/harmonica.png,0.3,2,0.2,0.15,left,66,2021-03-31_14h02.35.706,premup-three_ses-01_part-01_label-phase1,3.2.4,MacIntel,60,left,1.485000134,4,0,4,0,1,3,1,0,240,85,1,239,,,,,,,,,,,,,,,,,,
,,0,50,,,,,,,1,3,1,stim/31.jpeg,Instruments,1,stim/objects/Instruments/drums.png,0.5,2,0.2,0.15,left,66,2021-03-31_14h02.35.706,premup-three_ses-01_part-01_label-phase1,3.2.4,MacIntel,60,right,1.638000011,4,0,4,0,1,3,1,0,240,0,1,239,,,,,,,,,,,,,,,,,,
,,0,51,,,,,,,1,4,4,stim/44.jpeg,HouseObjects,2,stim/objects/HouseObjects/glass.png,0.5,1,-0.2,0.15,right,66,2021-03-31_14h02.35.706,premup-three_ses-01_part-01_label-phase1,3.2.4,MacIntel,60,left,1.320000172,4,0,4,0,1,3,1,0,240,79,1,239,,,,,,,,,,,,,,,,,,
,,1,52,,,,,,,3,2,3,stim/23.jpeg,Instruments,1,stim/objects/Instruments/harp2.png,0.9,1,-0.2,0.15,left,66,2021-03-31_14h02.35.706,premup-three_ses-01_part-01_label-phase1,3.2.4,MacIntel,60,left,1.705000162,4,0,4,0,1,3,1,0,240,226,1,239,,,,,,,,,,,,,,,,,,
,,1,53,,,,,,,2,6,3,stim/63.jpeg,Instruments,1,stim/objects/Instruments/electricguitar2.png,0.7,3,-0.2,-0.15,left,66,2021-03-31_14h02.35.706,premup-three_ses-01_part-01_label-phase1,3.2.4,MacIntel,60,left,1.14800024,4,0,4,0,1,3,1,0,240,122,1,239,,,,,,,,,,,,,,,,,,
,,1,54,,,,,,,3,2,1,stim/21.jpeg,HouseObjects,2,stim/objects/HouseObjects/glassmop2.png,0.1,3,-0.2,-0.15,right,66,2021-03-31_14h02.35.706,premup-three_ses-01_part-01_label-phase1,3.2.4,MacIntel,60,right,1.137000322,4,0,4,0,1,3,1,0,240,236,1,239,,,,,,,,,,,,,,,,,,
,,1,55,,,,,,,1,4,4,stim/44.jpeg,HouseObjects,2,stim/objects/HouseObjects/glass.png,0.5,3,-0.2,-0.15,right,66,2021-03-31_14h02.35.706,premup-three_ses-01_part-01_label-phase1,3.2.4,MacIntel,60,right,1.121999979,4,0,4,0,1,3,1,0,240,75,1,239,,,,,,,,,,,,,,,,,,
,,0,56,,,,,,,2,6,3,stim/63.jpeg,Instruments,1,stim/objects/Instruments/electricguitar2.png,0.7,2,0.2,0.15,left,66,2021-03-31_14h02.35.706,premup-three_ses-01_part-01_label-phase1,3.2.4,MacIntel,60,right,1.035000086,4,0,4,0,1,3,1,0,240,130,1,239,,,,,,,,,,,,,,,,,,
,,0,57,,,,,,,3,1,2,stim/12.jpeg,HouseObjects,2,stim/objects/HouseObjects/flyswatter2.png,0.9,4,0.2,-0.15,right,66,2021-03-31_14h02.35.706,premup-three_ses-01_part-01_label-phase1,3.2.4,MacIntel,60,left,1.20600009,4,0,4,0,1,3,1,0,240,181,1,239,,,,,,,,,,,,,,,,,,
,,1,58,,,,,,,3,1,3,stim/13.jpeg,HouseObjects,2,stim/objects/HouseObjects/garbagebin2.png,0.9,3,-0.2,-0.15,right,66,2021-03-31_14h02.35.706,premup-three_ses-01_part-01_label-phase1,3.2.4,MacIntel,60,right,0.986999989,4,0,4,0,1,3,1,0,240,186,1,239,,,,,,,,,,,,,,,,,,
,,1,59,,,,,,,2,6,1,stim/61.jpeg,Instruments,1,stim/objects/Instruments/drums2.png,0.7,4,0.2,-0.15,left,66,2021-03-31_14h02.35.706,premup-three_ses-01_part-01_label-phase1,3.2.4,MacIntel,60,left,1.222000122,4,0,4,0,1,3,1,0,240,144,1,239,,,,,,,,,,,,,,,,,,
,,1,60,,,,,,,1,3,2,stim/32.jpeg,HouseObjects,2,stim/objects/HouseObjects/cushion.png,0.5,1,-0.2,0.15,right,66,2021-03-31_14h02.35.706,premup-three_ses-01_part-01_label-phase1,3.2.4,MacIntel,60,right,1.095000029,4,0,4,0,1,3,1,0,240,33,1,239,,,,,,,,,,,,,,,,,,
,,0,61,,,,,,,1,3,4,stim/34.jpeg,Instruments,1,stim/objects/Instruments/flute.png,0.5,2,0.2,0.15,left,66,2021-03-31_14h02.35.706,premup-three_ses-01_part-01_label-phase1,3.2.4,MacIntel,60,right,0.776000023,4,0,4,0,1,3,1,0,240,3,1,239,,,,,,,,,,,,,,,,,,
,,0,62,,,,,,,1,3,2,stim/32.jpeg,HouseObjects,2,stim/objects/HouseObjects/cushion.png,0.5,4,0.2,-0.15,right,66,2021-03-31_14h02.35.706,premup-three_ses-01_part-01_label-phase1,3.2.4,MacIntel,60,left,0.703000069,4,0,4,0,1,3,1,0,240,37,1,239,,,,,,,,,,,,,,,,,,
,,1,63,,,,,,,2,5,2,stim/52.jpeg,HouseObjects,2,stim/objects/HouseObjects/hairdryer.png,0.7,1,-0.2,0.15,right,66,2021-03-31_14h02.35.706,premup-three_ses-01_part-01_label-phase1,3.2.4,MacIntel,60,right,0.926000118,4,0,4,0,1,3,1,0,240,97,1,239,,,,,,,,,,,,,,,,,,
,,0,64,,,,,,,1,3,1,stim/31.jpeg,Instruments,1,stim/objects/Instruments/drums.png,0.5,2,0.2,0.15,left,66,2021-03-31_14h02.35.706,premup-three_ses-01_part-01_label-phase1,3.2.4,MacIntel,60,right,0.960000277,4,0,4,0,1,3,1,0,240,16,1,239,,,,,,,,,,,,,,,,,,
,,1,65,,,,,,,3,2,3,stim/23.jpeg,Instruments,1,stim/objects/Instruments/harp2.png,0.9,3,-0.2,-0.15,left,66,2021-03-31_14h02.35.706,premup-three_ses-01_part-01_label-phase1,3.2.4,MacIntel,60,left,1.670000315,4,0,4,0,1,3,1,0,240,202,1,239,,,,,,,,,,,,,,,,,,
,,1,66,,,,,,,3,2,4,stim/24.jpeg,Instruments,1,stim/objects/Instruments/hihat2.png,0.9,4,0.2,-0.15,left,66,2021-03-31_14h02.35.706,premup-three_ses-01_part-01_label-phase1,3.2.4,MacIntel,60,left,1.090000153,4,0,4,0,1,3,1,0,240,207,1,239,,,,,,,,,,,,,,,,,,
,,0,67,,,,,,,2,5,3,stim/53.jpeg,Instruments,1,stim/objects/Instruments/harp.png,0.3,1,-0.2,0.15,left,66,2021-03-31_14h02.35.706,premup-three_ses-01_part-01_label-phase1,3.2.4,MacIntel,60,right,0.977000237,4,0,4,0,1,3,1,0,240,90,1,239,,,,,,,,,,,,,,,,,,
,,1,68,,,,,,,2,5,3,stim/53.jpeg,HouseObjects,2,stim/objects/HouseObjects/handbrush.png,0.7,1,-0.2,0.15,right,66,2021-03-31_14h02.35.706,premup-three_ses-01_part-01_label-phase1,3.2.4,MacIntel,60,right,1.253000259,4,0,4,0,1,3,1,0,240,102,1,239,,,,,,,,,,,,,,,,,,
,,1,69,,,,,,,2,5,3,stim/53.jpeg,HouseObjects,2,stim/objects/HouseObjects/handbrush.png,0.7,3,-0.2,-0.15,right,66,2021-03-31_14h02.35.706,premup-three_ses-01_part-01_label-phase1,3.2.4,MacIntel,60,right,0.717000008,4,0,4,0,1,3,1,0,240,114,1,239,,,,,,,,,,,,,,,,,,
,,0,70,,,,,,,1,4,2,stim/42.jpeg,HouseObjects,2,stim/objects/HouseObjects/flyswatter.png,0.5,2,0.2,0.15,right,66,2021-03-31_14h02.35.706,premup-three_ses-01_part-01_label-phase1,3.2.4,MacIntel,60,left,0.950000286,4,0,4,0,1,3,1,0,240,77,1,239,,,,,,,,,,,,,,,,,,
,,1,71,,,,,,,1,4,3,stim/43.jpeg,HouseObjects,2,stim/objects/HouseObjects/garbagebin.png,0.5,3,-0.2,-0.15,right,66,2021-03-31_14h02.35.706,premup-three_ses-01_part-01_label-phase1,3.2.4,MacIntel,60,right,0.986000299,4,0,4,0,1,3,1,0,240,66,1,239,,,,,,,,,,,,,,,,,,
,,1,72,,,,,,,3,1,3,stim/13.jpeg,HouseObjects,2,stim/objects/HouseObjects/garbagebin2.png,0.9,1,-0.2,0.15,right,66,2021-03-31_14h02.35.706,premup-three_ses-01_part-01_label-phase1,3.2.4,MacIntel,60,right,1.492000103,4,0,4,0,1,3,1,0,240,194,1,239,,,,,,,,,,,,,,,,,,
,,1,73,,,,,,,2,6,2,stim/62.jpeg,Instruments,1,stim/objects/Instruments/electricdrumset2.png,0.7,3,-0.2,-0.15,left,66,2021-03-31_14h02.35.706,premup-three_ses-01_part-01_label-phase1,3.2.4,MacIntel,60,left,0.785000086,4,0,4,0,1,3,1,0,240,129,1,239,,,,,,,,,,,,,,,,,,
,,1,74,,,,,,,3,1,4,stim/14.jpeg,HouseObjects,2,stim/objects/HouseObjects/glass2.png,0.9,3,-0.2,-0.15,right,66,2021-03-31_14h02.35.706,premup-three_ses-01_part-01_label-phase1,3.2.4,MacIntel,60,right,1.792999983,4,0,4,0,1,3,1,0,240,167,1,239,,,,,,,,,,,,,,,,,,
,,1,75,,,,,,,2,6,1,stim/61.jpeg,Instruments,1,stim/objects/Instruments/drums2.png,0.7,3,-0.2,-0.15,left,66,2021-03-31_14h02.35.706,premup-three_ses-01_part-01_label-phase1,3.2.4,MacIntel,60,left,0.841000319,4,0,4,0,1,3,1,0,240,132,1,239,,,,,,,,,,,,,,,,,,
,,0,76,,,,,,,2,5,1,stim/51.jpeg,Instruments,1,stim/objects/Instruments/guitarcase.png,0.3,1,-0.2,0.15,left,66,2021-03-31_14h02.35.706,premup-three_ses-01_part-01_label-phase1,3.2.4,MacIntel,60,right,1.171000242,4,0,4,0,1,3,1,0,240,84,1,239,,,,,,,,,,,,,,,,,,
,,1,77,,,,,,,3,1,1,stim/11.jpeg,HouseObjects,2,stim/objects/HouseObjects/dustpan2.png,0.9,1,-0.2,0.15,right,66,2021-03-31_14h02.35.706,premup-three_ses-01_part-01_label-phase1,3.2.4,MacIntel,60,right,1.134000063,4,0,4,0,1,3,1,0,240,184,1,239,,,,,,,,,,,,,,,,,,
,,0,78,,,,,,,2,5,2,stim/52.jpeg,HouseObjects,2,stim/objects/HouseObjects/hairdryer.png,0.7,3,-0.2,-0.15,right,66,2021-03-31_14h02.35.706,premup-three_ses-01_part-01_label-phase1,3.2.4,MacIntel,60,left,0.73300004,4,0,4,0,1,3,1,0,240,93,1,239,,,,,,,,,,,,,,,,,,
,,0,79,,,,,,,1,3,3,stim/33.jpeg,Instruments,1,stim/objects/Instruments/electricguitar.png,0.5,3,-0.2,-0.15,left,66,2021-03-31_14h02.35.706,premup-three_ses-01_part-01_label-phase1,3.2.4,MacIntel,60,right,1.118000269,4,0,4,0,1,3,1,0,240,2,1,239,,,,,,,,,,,,,,,,,,
,,0,80,,,,,,,2,6,4,stim/64.jpeg,HouseObjects,2,stim/objects/HouseObjects/doormat2.png,0.3,4,0.2,-0.15,right,66,2021-03-31_14h02.35.706,premup-three_ses-01_part-01_label-phase1,3.2.4,MacIntel,60,left,1.287000179,4,0,4,0,1,3,1,0,240,151,1,239,,,,,,,,,,,,,,,,,,
,,1,81,,,,,,,1,3,4,stim/34.jpeg,HouseObjects,2,stim/objects/HouseObjects/doormat.png,0.5,1,-0.2,0.15,right,66,2021-03-31_14h02.35.706,premup-three_ses-01_part-01_label-phase1,3.2.4,MacIntel,60,right,1.25600028,4,0,4,0,1,3,1,0,240,27,1,239,,,,,,,,,,,,,,,,,,
,,1,82,,,,,,,2,5,4,stim/54.jpeg,HouseObjects,2,stim/objects/HouseObjects/handvacuum.png,0.7,1,-0.2,0.15,right,66,2021-03-31_14h02.35.706,premup-three_ses-01_part-01_label-phase1,3.2.4,MacIntel,60,right,1.045000315,4,0,4,0,1,3,1,0,240,111,1,239,,,,,,,,,,,,,,,,,,
,,1,83,,,,,,,1,4,3,stim/43.jpeg,Instruments,1,stim/objects/Instruments/gong.png,0.5,4,0.2,-0.15,left,66,2021-03-31_14h02.35.706,premup-three_ses-01_part-01_label-phase1,3.2.4,MacIntel,60,left,1.355000019,4,0,4,0,1,3,1,0,240,42,1,239,,,,,,,,,,,,,,,,,,
,,0,84,,,,,,,3,2,2,stim/22.jpeg,Instruments,1,stim/objects/Instruments/harmonica2.png,0.9,3,-0.2,-0.15,left,66,2021-03-31_14h02.35.706,premup-three_ses-01_part-01_label-phase1,3.2.4,MacIntel,60,right,1.670000076,4,0,4,0,1,3,1,0,240,229,1,239,,,,,,,,,,,,,,,,,,
,,0,85,,,,,,,2,6,4,stim/64.jpeg,Instruments,1,stim/objects/Instruments/flute2.png,0.7,4,0.2,-0.15,left,66,2021-03-31_14h02.35.706,premup-three_ses-01_part-01_label-phase1,3.2.4,MacIntel,60,right,1.300000191,4,0,4,0,1,3,1,0,240,147,1,239,,,,,,,,,,,,,,,,,,
,,0,86,,,,,,,1,3,4,stim/34.jpeg,Instruments,1,stim/objects/Instruments/flute.png,0.5,3,-0.2,-0.15,left,66,2021-03-31_14h02.35.706,premup-three_ses-01_part-01_label-phase1,3.2.4,MacIntel,60,right,1.238000154,4,0,4,0,1,3,1,0,240,7,1,239,,,,,,,,,,,,,,,,,,
,,0,87,,,,,,,3,1,2,stim/12.jpeg,HouseObjects,2,stim/objects/HouseObjects/flyswatter2.png,0.9,1,-0.2,0.15,right,66,2021-03-31_14h02.35.706,premup-three_ses-01_part-01_label-phase1,3.2.4,MacIntel,60,left,1.054000139,4,0,4,0,1,3,1,0,240,165,1,239,,,,,,,,,,,,,,,,,,
,,1,88,,,,,,,2,5,2,stim/52.jpeg,HouseObjects,2,stim/objects/HouseObjects/hairdryer.png,0.7,3,-0.2,-0.15,right,66,2021-03-31_14h02.35.706,premup-three_ses-01_part-01_label-phase1,3.2.4,MacIntel,60,right,1.174000025,4,0,4,0,1,3,1,0,240,113,1,239,,,,,,,,,,,,,,,,,,
,,0,89,,,,,,,3,2,1,stim/21.jpeg,Instruments,1,stim/objects/Instruments/guitarcase2.png,0.9,2,0.2,0.15,left,66,2021-03-31_14h02.35.706,premup-three_ses-01_part-01_label-phase1,3.2.4,MacIntel,60,right,1.402000189,4,0,4,0,1,3,1,0,240,228,1,239,,,,,,,,,,,,,,,,,,
,,1,90,,,,,,,2,5,4,stim/54.jpeg,HouseObjects,2,stim/objects/HouseObjects/handvacuum.png,0.7,2,0.2,0.15,right,66,2021-03-31_14h02.35.706,premup-three_ses-01_part-01_label-phase1,3.2.4,MacIntel,60,right,1.160000086,4,0,4,0,1,3,1,0,240,107,1,239,,,,,,,,,,,,,,,,,,
,,0,91,,,,,,,1,4,3,stim/43.jpeg,Instruments,1,stim/objects/Instruments/gong.png,0.5,2,0.2,0.15,left,66,2021-03-31_14h02.35.706,premup-three_ses-01_part-01_label-phase1,3.2.4,MacIntel,60,right,1.370000124,4,0,4,0,1,3,1,0,240,54,1,239,,,,,,,,,,,,,,,,,,
,,1,92,,,,,,,1,3,2,stim/32.jpeg,HouseObjects,2,stim/objects/HouseObjects/cushion.png,0.5,3,-0.2,-0.15,right,66,2021-03-31_14h02.35.706,premup-three_ses-01_part-01_label-phase1,3.2.4,MacIntel,60,right,1.227000237,4,0,4,0,1,3,1,0,240,25,1,239,,,,,,,,,,,,,,,,,,
,,0,93,,,,,,,3,1,1,stim/11.jpeg,HouseObjects,2,stim/objects/HouseObjects/dustpan2.png,0.9,3,-0.2,-0.15,right,66,2021-03-31_14h02.35.706,premup-three_ses-01_part-01_label-phase1,3.2.4,MacIntel,60,left,1.350000143,4,0,4,0,1,3,1,0,240,192,1,239,,,,,,,,,,,,,,,,,,
,,1,94,,,,,,,3,2,4,stim/24.jpeg,Instruments,1,stim/objects/Instruments/hihat2.png,0.9,4,0.2,-0.15,left,66,2021-03-31_14h02.35.706,premup-three_ses-01_part-01_label-phase1,3.2.4,MacIntel,60,left,1.738000154,4,0,4,0,1,3,1,0,240,215,1,239,,,,,,,,,,,,,,,,,,
,,1,95,,,,,,,1,3,3,stim/33.jpeg,HouseObjects,2,stim/objects/HouseObjects/dishsoap.png,0.5,4,0.2,-0.15,right,66,2021-03-31_14h02.35.706,premup-three_ses-01_part-01_label-phase1,3.2.4,MacIntel,60,right,0.876000166,4,0,4,0,1,3,1,0,240,34,1,239,,,,,,,,,,,,,,,,,,
,,0,96,,,,,,,2,6,4,stim/64.jpeg,Instruments,1,stim/objects/Instruments/flute2.png,0.7,2,0.2,0.15,left,66,2021-03-31_14h02.35.706,premup-three_ses-01_part-01_label-phase1,3.2.4,MacIntel,60,right,1.610000134,4,0,4,0,1,3,1,0,240,135,1,239,,,,,,,,,,,,,,,,,,
,,1,97,,,,,,,1,3,4,stim/34.jpeg,HouseObjects,2,stim/objects/HouseObjects/doormat.png,0.5,3,-0.2,-0.15,right,66,2021-03-31_14h02.35.706,premup-three_ses-01_part-01_label-phase1,3.2.4,MacIntel,60,right,0.943000317,4,0,4,0,1,3,1,0,240,39,1,239,,,,,,,,,,,,,,,,,,
,,1,98,,,,,,,3,2,4,stim/24.jpeg,Instruments,1,stim/objects/Instruments/hihat2.png,0.9,4,0.2,-0.15,left,66,2021-03-31_14h02.35.706,premup-three_ses-01_part-01_label-phase1,3.2.4,MacIntel,60,left,1.561000109,4,0,4,0,1,3,1,0,240,231,1,239,,,,,,,,,,,,,,,,,,
,,1,99,,,,,,,1,3,1,stim/31.jpeg,HouseObjects,2,stim/objects/HouseObjects/coffee.png,0.5,4,0.2,-0.15,right,66,2021-03-31_14h02.35.706,premup-three_ses-01_part-01_label-phase1,3.2.4,MacIntel,60,right,0.991000175,4,0,4,0,1,3,1,0,240,28,1,239,,,,,,,,,,,,,,,,,,
,,0,100,,,,,,,2,5,3,stim/53.jpeg,HouseObjects,2,stim/objects/HouseObjects/handbrush.png,0.7,3,-0.2,-0.15,right,66,2021-03-31_14h02.35.706,premup-three_ses-01_part-01_label-phase1,3.2.4,MacIntel,60,left,1.488000154,4,0,4,0,1,3,1,0,240,94,1,239,,,,,,,,,,,,,,,,,,
,,1,101,,,,,,,1,3,4,stim/34.jpeg,HouseObjects,2,stim/objects/HouseObjects/doormat.png,0.5,1,-0.2,0.15,right,66,2021-03-31_14h02.35.706,premup-three_ses-01_part-01_label-phase1,3.2.4,MacIntel,60,right,1.188000202,4,0,4,0,1,3,1,0,240,31,1,239,,,,,,,,,,,,,,,,,,
,,1,102,,,,,,,2,6,4,stim/64.jpeg,Instruments,1,stim/objects/Instruments/flute2.png,0.7,3,-0.2,-0.15,left,66,2021-03-31_14h02.35.706,premup-three_ses-01_part-01_label-phase1,3.2.4,MacIntel,60,left,0.986000299,4,0,4,0,1,3,1,0,240,123,1,239,,,,,,,,,,,,,,,,,,
,,1,103,,,,,,,3,1,1,stim/11.jpeg,HouseObjects,2,stim/objects/HouseObjects/dustpan2.png,0.9,2,0.2,0.15,right,66,2021-03-31_14h02.35.706,premup-three_ses-01_part-01_label-phase1,3.2.4,MacIntel,60,right,0.947999954,4,0,4,0,1,3,1,0,240,196,1,239,,,,,,,,,,,,,,,,,,
,,0,104,,,,,,,2,5,2,stim/52.jpeg,Instruments,1,stim/objects/Instruments/harmonica.png,0.3,1,-0.2,0.15,left,66,2021-03-31_14h02.35.706,premup-three_ses-01_part-01_label-phase1,3.2.4,MacIntel,60,right,1.808000088,4,0,4,0,1,3,1,0,240,89,1,239,,,,,,,,,,,,,,,,,,
,,1,105,,,,,,,2,5,1,stim/51.jpeg,HouseObjects,2,stim/objects/HouseObjects/glassmop.png,0.7,4,0.2,-0.15,right,66,2021-03-31_14h02.35.706,premup-three_ses-01_part-01_label-phase1,3.2.4,MacIntel,60,right,0.582000256,4,0,4,0,1,3,1,0,240,92,1,239,,,,,,,,,,,,,,,,,,
,,0,106,,,,,,,2,5,1,stim/51.jpeg,Instruments,1,stim/objects/Instruments/guitarcase.png,0.3,1,-0.2,0.15,left,66,2021-03-31_14h02.35.706,premup-three_ses-01_part-01_label-phase1,3.2.4,MacIntel,60,right,0.855000019,4,0,4,0,1,3,1,0,240,88,1,239,,,,,,,,,,,,,,,,,,
,,0,107,,,,,,,3,2,3,stim/23.jpeg,HouseObjects,2,stim/objects/HouseObjects/handbrush2.png,0.1,4,0.2,-0.15,right,66,2021-03-31_14h02.35.706,premup-three_ses-01_part-01_label-phase1,3.2.4,MacIntel,60,left,1.394000292,4,0,4,0,1,3,1,0,240,238,1,239,,,,,,,,,,,,,,,,,,
,,0,108,,,,,,,1,3,4,stim/34.jpeg,Instruments,1,stim/objects/Instruments/flute.png,0.5,2,0.2,0.15,left,66,2021-03-31_14h02.35.706,premup-three_ses-01_part-01_label-phase1,3.2.4,MacIntel,60,right,1.875000238,4,0,4,0,1,3,1,0,240,11,1,239,,,,,,,,,,,,,,,,,,
,,1,109,,,,,,,2,5,2,stim/52.jpeg,Instruments,1,stim/objects/Instruments/harmonica.png,0.3,1,-0.2,0.15,left,66,2021-03-31_14h02.35.706,premup-three_ses-01_part-01_label-phase1,3.2.4,MacIntel,60,left,1.194000244,4,0,4,0,1,3,1,0,240,81,1,239,,,,,,,,,,,,,,,,,,
,,1,110,,,,,,,3,2,3,stim/23.jpeg,Instruments,1,stim/objects/Instruments/harp2.png,0.9,4,0.2,-0.15,left,66,2021-03-31_14h02.35.706,premup-three_ses-01_part-01_label-phase1,3.2.4,MacIntel,60,left,1.101000071,4,0,4,0,1,3,1,0,240,222,1,239,,,,,,,,,,,,,,,,,,
,,1,111,,,,,,,2,6,1,stim/61.jpeg,Instruments,1,stim/objects/Instruments/drums2.png,0.7,1,-0.2,0.15,left,66,2021-03-31_14h02.35.706,premup-three_ses-01_part-01_label-phase1,3.2.4,MacIntel,60,left,1.195000172,4,0,4,0,1,3,1,0,240,136,1,239,,,,,,,,,,,,,,,,,,
,,1,112,,,,,,,3,1,1,stim/11.jpeg,HouseObjects,2,stim/objects/HouseObjects/dustpan2.png,0.9,4,0.2,-0.15,right,66,2021-03-31_14h02.35.706,premup-three_ses-01_part-01_label-phase1,3.2.4,MacIntel,60,right,0.791000128,4,0,4,0,1,3,1,0,240,180,1,239,,,,,,,,,,,,,,,,,,
,,1,113,,,,,,,2,6,2,stim/62.jpeg,Instruments,1,stim/objects/Instruments/electricdrumset2.png,0.7,3,-0.2,-0.15,left,66,2021-03-31_14h02.35.706,premup-three_ses-01_part-01_label-phase1,3.2.4,MacIntel,60,left,0.942000151,4,0,4,0,1,3,1,0,240,121,1,239,,,,,,,,,,,,,,,,,,
,,0,114,,,,,,,3,1,1,stim/11.jpeg,Instruments,1,stim/objects/Instruments/flutetrans2.png,0.1,3,-0.2,-0.15,left,66,2021-03-31_14h02.35.706,premup-three_ses-01_part-01_label-phase1,3.2.4,MacIntel,60,right,1.150000095,4,0,4,0,1,3,1,0,240,160,1,239,,,,,,,,,,,,,,,,,,
,,0,115,,,,,,,1,3,3,stim/33.jpeg,HouseObjects,2,stim/objects/HouseObjects/dishsoap.png,0.5,3,-0.2,-0.15,right,66,2021-03-31_14h02.35.706,premup-three_ses-01_part-01_label-phase1,3.2.4,MacIntel,60,left,1.277000189,4,0,4,0,1,3,1,0,240,38,1,239,,,,,,,,,,,,,,,,,,
,,0,116,,,,,,,1,3,3,stim/33.jpeg,Instruments,1,stim/objects/Instruments/electricguitar.png,0.5,1,-0.2,0.15,left,66,2021-03-31_14h02.35.706,premup-three_ses-01_part-01_label-phase1,3.2.4,MacIntel,60,right,0.757000208,4,0,4,0,1,3,1,0,240,10,1,239,,,,,,,,,,,,,,,,,,
,,0,117,,,,,,,1,4,3,stim/43.jpeg,Instruments,1,stim/objects/Instruments/gong.png,0.5,2,0.2,0.15,left,66,2021-03-31_14h02.35.706,premup-three_ses-01_part-01_label-phase1,3.2.4,MacIntel,60,right,1.088000298,4,0,4,0,1,3,1,0,240,58,1,239,,,,,,,,,,,,,,,,,,
,,0,118,,,,,,,2,5,3,stim/53.jpeg,HouseObjects,2,stim/objects/HouseObjects/handbrush.png,0.7,2,0.2,0.15,right,66,2021-03-31_14h02.35.706,premup-three_ses-01_part-01_label-phase1,3.2.4,MacIntel,60,left,0.823000193,4,0,4,0,1,3,1,0,240,110,1,239,,,,,,,,,,,,,,,,,,
,,0,119,,,,,,,2,5,1,stim/51.jpeg,HouseObjects,2,stim/objects/HouseObjects/glassmop.png,0.7,4,0.2,-0.15,right,66,2021-03-31_14h02.35.706,premup-three_ses-01_part-01_label-phase1,3.2.4,MacIntel,60,left,0.755000114,4,0,4,0,1,3,1,0,240,112,1,239,,,,,,,,,,,,,,,,,,
,,0,120,,,,,,,2,6,2,stim/62.jpeg,HouseObjects,2,stim/objects/HouseObjects/cushion2.png,0.3,1,-0.2,0.15,right,66,2021-03-31_14h02.35.706,premup-three_ses-01_part-01_label-phase1,3.2.4,MacIntel,60,left,0.693000078,4,0,4,0,1,3,1,0,240,157,1,239,,,,,,,,,,,,,,,,,,
,,1,121,,,,,,,3,1,4,stim/14.jpeg,HouseObjects,2,stim/objects/HouseObjects/glass2.png,0.9,2,0.2,0.15,right,66,2021-03-31_14h02.35.706,premup-three_ses-01_part-01_label-phase1,3.2.4,MacIntel,60,right,1.458000183,4,0,4,0,1,3,1,0,240,171,1,239,,,,,,,,,,,,,,,,,,
,,0,122,,,,,,,1,4,3,stim/43.jpeg,Instruments,1,stim/objects/Instruments/gong.png,0.5,4,0.2,-0.15,left,66,2021-03-31_14h02.35.706,premup-three_ses-01_part-01_label-phase1,3.2.4,MacIntel,60,right,1.327000141,4,0,4,0,1,3,1,0,240,46,1,239,,,,,,,,,,,,,,,,,,
,,1,123,,,,,,,1,4,1,stim/41.jpeg,Instruments,1,stim/objects/Instruments/flutetrans.png,0.5,1,-0.2,0.15,left,66,2021-03-31_14h02.35.706,premup-three_ses-01_part-01_label-phase1,3.2.4,MacIntel,60,left,1.211000204,4,0,4,0,1,3,1,0,240,44,1,239,,,,,,,,,,,,,,,,,,
,,1,124,,,,,,,3,1,2,stim/12.jpeg,HouseObjects,2,stim/objects/HouseObjects/flyswatter2.png,0.9,2,0.2,0.15,right,66,2021-03-31_14h02.35.706,premup-three_ses-01_part-01_label-phase1,3.2.4,MacIntel,60,right,1.294000149,4,0,4,0,1,3,1,0,240,173,1,239,,,,,,,,,,,,,,,,,,
,,1,125,,,,,,,3,2,2,stim/22.jpeg,Instruments,1,stim/objects/Instruments/harmonica2.png,0.9,2,0.2,0.15,left,66,2021-03-31_14h02.35.706,premup-three_ses-01_part-01_label-phase1,3.2.4,MacIntel,60,left,1.43200016,4,0,4,0,1,3,1,0,240,205,1,239,,,,,,,,,,,,,,,,,,
,,1,126,,,,,,,1,4,3,stim/43.jpeg,HouseObjects,2,stim/objects/HouseObjects/garbagebin.png,0.5,1,-0.2,0.15,right,66,2021-03-31_14h02.35.706,premup-three_ses-01_part-01_label-phase1,3.2.4,MacIntel,60,right,1.493000031,4,0,4,0,1,3,1,0,240,78,1,239,,,,,,,,,,,,,,,,,,
,,0,127,,,,,,,1,3,2,stim/32.jpeg,Instruments,1,stim/objects/Instruments/electricdrumset.png,0.5,3,-0.2,-0.15,left,66,2021-03-31_14h02.35.706,premup-three_ses-01_part-01_label-phase1,3.2.4,MacIntel,60,right,1.362000227,4,0,4,0,1,3,1,0,240,5,1,239,,,,,,,,,,,,,,,,,,
,,0,128,,,,,,,1,4,4,stim/44.jpeg,Instruments,1,stim/objects/Instruments/grandpiano.png,0.5,3,-0.2,-0.15,left,66,2021-03-31_14h02.35.706,premup-three_ses-01_part-01_label-phase1,3.2.4,MacIntel,60,right,1.531000376,4,0,4,0,1,3,1,0,240,43,1,239,,,,,,,,,,,,,,,,,,
,,1,129,,,,,,,1,3,3,stim/33.jpeg,Instruments,1,stim/objects/Instruments/electricguitar.png,0.5,1,-0.2,0.15,left,66,2021-03-31_14h02.35.706,premup-three_ses-01_part-01_label-phase1,3.2.4,MacIntel,60,left,1.074000359,4,0,4,0,1,3,1,0,240,18,1,239,,,,,,,,,,,,,,,,,,
,,1,130,,,,,,,2,6,4,stim/64.jpeg,Instruments,1,stim/objects/Instruments/flute2.png,0.7,2,0.2,0.15,left,66,2021-03-31_14h02.35.706,premup-three_ses-01_part-01_label-phase1,3.2.4,MacIntel,60,left,1.106000185,4,0,4,0,1,3,1,0,240,131,1,239,,,,,,,,,,,,,,,,,,
,,1,131,,,,,,,3,1,4,stim/14.jpeg,HouseObjects,2,stim/objects/HouseObjects/glass2.png,0.9,3,-0.2,-0.15,right,66,2021-03-31_14h02.35.706,premup-three_ses-01_part-01_label-phase1,3.2.4,MacIntel,60,right,1.073000193,4,0,4,0,1,3,1,0,240,195,1,239,,,,,,,,,,,,,,,,,,
,,0,132,,,,,,,3,2,2,stim/22.jpeg,Instruments,1,stim/objects/Instruments/harmonica2.png,0.9,3,-0.2,-0.15,left,66,2021-03-31_14h02.35.706,premup-three_ses-01_part-01_label-phase1,3.2.4,MacIntel,60,right,1.103000164,4,0,4,0,1,3,1,0,240,217,1,239,,,,,,,,,,,,,,,,,,
,,0,133,,,,,,,1,3,1,stim/31.jpeg,HouseObjects,2,stim/objects/HouseObjects/coffee.png,0.5,1,-0.2,0.15,right,66,2021-03-31_14h02.35.706,premup-three_ses-01_part-01_label-phase1,3.2.4,MacIntel,60,left,0.971000195,4,0,4,0,1,3,1,0,240,20,1,239,,,,,,,,,,,,,,,,,,
,,1,134,,,,,,,2,6,3,stim/63.jpeg,Instruments,1,stim/objects/Instruments/electricguitar2.png,0.7,2,0.2,0.15,left,66,2021-03-31_14h02.35.706,premup-three_ses-01_part-01_label-phase1,3.2.4,MacIntel,60,left,0.937000036,4,0,4,0,1,3,1,0,240,138,1,239,,,,,,,,,,,,,,,,,,
,,1,135,,,,,,,3,1,1,stim/11.jpeg,HouseObjects,2,stim/objects/HouseObjects/dustpan2.png,0.9,3,-0.2,-0.15,right,66,2021-03-31_14h02.35.706,premup-three_ses-01_part-01_label-phase1,3.2.4,MacIntel,60,right,1.336000204,4,0,4,0,1,3,1,0,240,168,1,239,,,,,,,,,,,,,,,,,,
,,1,136,,,,,,,1,4,2,stim/42.jpeg,Instruments,1,stim/objects/Instruments/frenchhorn.png,0.5,4,0.2,-0.15,left,66,2021-03-31_14h02.35.706,premup-three_ses-01_part-01_label-phase1,3.2.4,MacIntel,60,left,0.833000183,4,0,4,0,1,3,1,0,240,49,1,239,,,,,,,,,,,,,,,,,,
,,1,137,,,,,,,1,4,3,stim/43.jpeg,HouseObjects,2,stim/objects/HouseObjects/garbagebin.png,0.5,1,-0.2,0.15,right,66,2021-03-31_14h02.35.706,premup-three_ses-01_part-01_label-phase1,3.2.4,MacIntel,60,right,0.944999933,4,0,4,0,1,3,1,0,240,70,1,239,,,,,,,,,,,,,,,,,,
,,1,138,,,,,,,3,1,2,stim/12.jpeg,HouseObjects,2,stim/objects/HouseObjects/flyswatter2.png,0.9,1,-0.2,0.15,right,66,2021-03-31_14h02.35.706,premup-three_ses-01_part-01_label-phase1,3.2.4,MacIntel,60,right,1.502000093,4,0,4,0,1,3,1,0,240,169,1,239,,,,,,,,,,,,,,,,,,
,,1,139,,,,,,,1,3,2,stim/32.jpeg,Instruments,1,stim/objects/Instruments/electricdrumset.png,0.5,4,0.2,-0.15,left,66,2021-03-31_14h02.35.706,premup-three_ses-01_part-01_label-phase1,3.2.4,MacIntel,60,left,1.392000198,4,0,4,0,1,3,1,0,240,13,1,239,,,,,,,,,,,,,,,,,,
,,1,140,,,,,,,3,2,1,stim/21.jpeg,Instruments,1,stim/objects/Instruments/guitarcase2.png,0.9,1,-0.2,0.15,left,66,2021-03-31_14h02.35.706,premup-three_ses-01_part-01_label-phase1,3.2.4,MacIntel,60,left,1.174000263,4,0,4,0,1,3,1,0,240,208,1,239,,,,,,,,,,,,,,,,,,
,,0,141,,,,,,,1,4,1,stim/41.jpeg,Instruments,1,stim/objects/Instruments/flutetrans.png,0.5,2,0.2,0.15,left,66,2021-03-31_14h02.35.706,premup-three_ses-01_part-01_label-phase1,3.2.4,MacIntel,60,right,1.445000172,4,0,4,0,1,3,1,0,240,56,1,239,,,,,,,,,,,,,,,,,,
,,1,142,,,,,,,1,3,3,stim/33.jpeg,HouseObjects,2,stim/objects/HouseObjects/dishsoap.png,0.5,3,-0.2,-0.15,right,66,2021-03-31_14h02.35.706,premup-three_ses-01_part-01_label-phase1,3.2.4,MacIntel,60,right,1.188000202,4,0,4,0,1,3,1,0,240,30,1,239,,,,,,,,,,,,,,,,,,
,,0,143,,,,,,,1,4,3,stim/43.jpeg,Instruments,1,stim/objects/Instruments/gong.png,0.5,1,-0.2,0.15,left,66,2021-03-31_14h02.35.706,premup-three_ses-01_part-01_label-phase1,3.2.4,MacIntel,60,right,0.808000326,4,0,4,0,1,3,1,0,240,50,1,239,,,,,,,,,,,,,,,,,,
,,1,144,,,,,,,3,2,3,stim/23.jpeg,Instruments,1,stim/objects/Instruments/harp2.png,0.9,4,0.2,-0.15,left,66,2021-03-31_14h02.35.706,premup-three_ses-01_part-01_label-phase1,3.2.4,MacIntel,60,left,1.604000092,4,0,4,0,1,3,1,0,240,230,1,239,,,,,,,,,,,,,,,,,,
,,0,145,,,,,,,1,3,2,stim/32.jpeg,Instruments,1,stim/objects/Instruments/electricdrumset.png,0.5,4,0.2,-0.15,left,66,2021-03-31_14h02.35.706,premup-three_ses-01_part-01_label-phase1,3.2.4,MacIntel,60,,,4,0,4,0,1,3,1,0,240,1,1,239,,,,,,,,,,,,,,,,,,
,,1,146,,,,,,,1,3,2,stim/32.jpeg,Instruments,1,stim/objects/Instruments/electricdrumset.png,0.5,4,0.2,-0.15,left,66,2021-03-31_14h02.35.706,premup-three_ses-01_part-01_label-phase1,3.2.4,MacIntel,60,left,0.751000166,4,0,4,0,1,3,1,0,240,9,1,239,,,,,,,,,,,,,,,,,,
,,1,147,,,,,,,2,6,3,stim/63.jpeg,Instruments,1,stim/objects/Instruments/electricguitar2.png,0.7,2,0.2,0.15,left,66,2021-03-31_14h02.35.706,premup-three_ses-01_part-01_label-phase1,3.2.4,MacIntel,60,left,1.113000154,4,0,4,0,1,3,1,0,240,134,1,239,,,,,,,,,,,,,,,,,,
,,1,148,,,,,,,1,4,4,stim/44.jpeg,HouseObjects,2,stim/objects/HouseObjects/glass.png,0.5,3,-0.2,-0.15,right,66,2021-03-31_14h02.35.706,premup-three_ses-01_part-01_label-phase1,3.2.4,MacIntel,60,right,0.792000294,4,0,4,0,1,3,1,0,240,71,1,239,,,,,,,,,,,,,,,,,,
,,1,149,,,,,,,3,1,1,stim/11.jpeg,HouseObjects,2,stim/objects/HouseObjects/dustpan2.png,0.9,4,0.2,-0.15,right,66,2021-03-31_14h02.35.706,premup-three_ses-01_part-01_label-phase1,3.2.4,MacIntel,60,right,1.140000343,4,0,4,0,1,3,1,0,240,176,1,239,,,,,,,,,,,,,,,,,,
,,0,150,,,,,,,1,3,3,stim/33.jpeg,Instruments,1,stim/objects/Instruments/electricguitar.png,0.5,4,0.2,-0.15,left,66,2021-03-31_14h02.35.706,premup-three_ses-01_part-01_label-phase1,3.2.4,MacIntel,60,right,1.187000036,4,0,4,0,1,3,1,0,240,14,1,239,,,,,,,,,,,,,,,,,,
,,0,151,,,,,,,2,5,3,stim/53.jpeg,Instruments,1,stim/objects/Instruments/harp.png,0.3,4,0.2,-0.15,left,66,2021-03-31_14h02.35.706,premup-three_ses-01_part-01_label-phase1,3.2.4,MacIntel,60,right,1.305000067,4,0,4,0,1,3,1,0,240,86,1,239,,,,,,,,,,,,,,,,,,
,,1,152,,,,,,,2,6,4,stim/64.jpeg,Instruments,1,stim/objects/Instruments/flute2.png,0.7,1,-0.2,0.15,left,66,2021-03-31_14h02.35.706,premup-three_ses-01_part-01_label-phase1,3.2.4,MacIntel,60,left,0.817000389,4,0,4,0,1,3,1,0,240,139,1,239,,,,,,,,,,,,,,,,,,
,,0,153,,,,,,,1,3,4,stim/34.jpeg,Instruments,1,stim/objects/Instruments/flute.png,0.5,1,-0.2,0.15,left,66,2021-03-31_14h02.35.706,premup-three_ses-01_part-01_label-phase1,3.2.4,MacIntel,60,right,0.804000378,4,0,4,0,1,3,1,0,240,19,1,239,,,,,,,,,,,,,,,,,,
,,1,154,,,,,,,3,1,3,stim/13.jpeg,HouseObjects,2,stim/objects/HouseObjects/garbagebin2.png,0.9,1,-0.2,0.15,right,66,2021-03-31_14h02.35.706,premup-three_ses-01_part-01_label-phase1,3.2.4,MacIntel,60,right,0.973000288,4,0,4,0,1,3,1,0,240,182,1,239,,,,,,,,,,,,,,,,,,
,,1,155,,,,,,,3,1,4,stim/14.jpeg,HouseObjects,2,stim/objects/HouseObjects/glass2.png,0.9,1,-0.2,0.15,right,66,2021-03-31_14h02.35.706,premup-three_ses-01_part-01_label-phase1,3.2.4,MacIntel,60,right,0.843000174,4,0,4,0,1,3,1,0,240,199,1,239,,,,,,,,,,,,,,,,,,
,,1,156,,,,,,,1,3,4,stim/34.jpeg,HouseObjects,2,stim/objects/HouseObjects/doormat.png,0.5,3,-0.2,-0.15,right,66,2021-03-31_14h02.35.706,premup-three_ses-01_part-01_label-phase1,3.2.4,MacIntel,60,right,0.902000189,4,0,4,0,1,3,1,0,240,35,1,239,,,,,,,,,,,,,,,,,,
,,0,157,,,,,,,1,4,4,stim/44.jpeg,Instruments,1,stim/objects/Instruments/grandpiano.png,0.5,2,0.2,0.15,left,66,2021-03-31_14h02.35.706,premup-three_ses-01_part-01_label-phase1,3.2.4,MacIntel,60,right,1.499000072,4,0,4,0,1,3,1,0,240,55,1,239,,,,,,,,,,,,,,,,,,
,,1,158,,,,,,,3,2,1,stim/21.jpeg,Instruments,1,stim/objects/Instruments/guitarcase2.png,0.9,2,0.2,0.15,left,66,2021-03-31_14h02.35.706,premup-three_ses-01_part-01_label-phase1,3.2.4,MacIntel,60,left,1.440000057,4,0,4,0,1,3,1,0,240,232,1,239,,,,,,,,,,,,,,,,,,
,,0,159,,,,,,,1,3,4,stim/34.jpeg,Instruments,1,stim/objects/Instruments/flute.png,0.5,3,-0.2,-0.15,left,66,2021-03-31_14h02.35.706,premup-three_ses-01_part-01_label-phase1,3.2.4,MacIntel,60,right,1.054000139,4,0,4,0,1,3,1,0,240,15,1,239,,,,,,,,,,,,,,,,,,
,,1,160,,,,,,,3,1,2,stim/12.jpeg,HouseObjects,2,stim/objects/HouseObjects/flyswatter2.png,0.9,2,0.2,0.15,right,66,2021-03-31_14h02.35.706,premup-three_ses-01_part-01_label-phase1,3.2.4,MacIntel,60,right,1.4150002,4,0,4,0,1,3,1,0,240,185,1,239,,,,,,,,,,,,,,,,,,
,,1,161,,,,,,,3,2,4,stim/24.jpeg,Instruments,1,stim/objects/Instruments/hihat2.png,0.9,1,-0.2,0.15,left,66,2021-03-31_14h02.35.706,premup-three_ses-01_part-01_label-phase1,3.2.4,MacIntel,60,left,1.34400034,4,0,4,0,1,3,1,0,240,219,1,239,,,,,,,,,,,,,,,,,,
,,1,162,,,,,,,1,3,3,stim/33.jpeg,HouseObjects,2,stim/objects/HouseObjects/dishsoap.png,0.5,2,0.2,0.15,right,66,2021-03-31_14h02.35.706,premup-three_ses-01_part-01_label-phase1,3.2.4,MacIntel,60,right,1.703000307,4,0,4,0,1,3,1,0,240,26,1,239,,,,,,,,,,,,,,,,,,
,,1,163,,,,,,,3,1,2,stim/12.jpeg,HouseObjects,2,stim/objects/HouseObjects/flyswatter2.png,0.9,2,0.2,0.15,right,66,2021-03-31_14h02.35.706,premup-three_ses-01_part-01_label-phase1,3.2.4,MacIntel,60,right,1.423000336,4,0,4,0,1,3,1,0,240,197,1,239,,,,,,,,,,,,,,,,,,
,,0,164,,,,,,,1,3,2,stim/32.jpeg,Instruments,1,stim/objects/Instruments/electricdrumset.png,0.5,2,0.2,0.15,left,66,2021-03-31_14h02.35.706,premup-three_ses-01_part-01_label-phase1,3.2.4,MacIntel,60,right,1.78000021,4,0,4,0,1,3,1,0,240,17,1,239,,,,,,,,,,,,,,,,,,
,,1,165,,,,,,,3,1,3,stim/13.jpeg,HouseObjects,2,stim/objects/HouseObjects/garbagebin2.png,0.9,3,-0.2,-0.15,right,66,2021-03-31_14h02.35.706,premup-three_ses-01_part-01_label-phase1,3.2.4,MacIntel,60,right,1.358000278,4,0,4,0,1,3,1,0,240,198,1,239,,,,,,,,,,,,,,,,,,
,,0,166,,,,,,,3,1,3,stim/13.jpeg,Instruments,1,stim/objects/Instruments/gong2.png,0.1,2,0.2,0.15,left,66,2021-03-31_14h02.35.706,premup-three_ses-01_part-01_label-phase1,3.2.4,MacIntel,60,right,0.685000181,4,0,4,0,1,3,1,0,240,162,1,239,,,,,,,,,,,,,,,,,,
,,0,167,,,,,,,1,4,2,stim/42.jpeg,Instruments,1,stim/objects/Instruments/frenchhorn.png,0.5,4,0.2,-0.15,left,66,2021-03-31_14h02.35.706,premup-three_ses-01_part-01_label-phase1,3.2.4,MacIntel,60,,,4,0,4,0,1,3,1,0,240,57,1,239,,,,,,,,,,,,,,,,,,
,,0,168,,,,,,,2,5,4,stim/54.jpeg,HouseObjects,2,stim/objects/HouseObjects/handvacuum.png,0.7,4,0.2,-0.15,right,66,2021-03-31_14h02.35.706,premup-three_ses-01_part-01_label-phase1,3.2.4,MacIntel,60,left,1.323000193,4,0,4,0,1,3,1,0,240,115,1,239,,,,,,,,,,,,,,,,,,
,,1,169,,,,,,,1,4,2,stim/42.jpeg,HouseObjects,2,stim/objects/HouseObjects/flyswatter.png,0.5,2,0.2,0.15,right,66,2021-03-31_14h02.35.706,premup-three_ses-01_part-01_label-phase1,3.2.4,MacIntel,60,right,1.122000217,4,0,4,0,1,3,1,0,240,61,1,239,,,,,,,,,,,,,,,,,,
,,1,170,,,,,,,3,2,3,stim/23.jpeg,Instruments,1,stim/objects/Instruments/harp2.png,0.9,4,0.2,-0.15,left,66,2021-03-31_14h02.35.706,premup-three_ses-01_part-01_label-phase1,3.2.4,MacIntel,60,left,0.718000174,4,0,4,0,1,3,1,0,240,210,1,239,,,,,,,,,,,,,,,,,,
,,1,171,,,,,,,3,2,2,stim/22.jpeg,Instruments,1,stim/objects/Instruments/harmonica2.png,0.9,3,-0.2,-0.15,left,66,2021-03-31_14h02.35.706,premup-three_ses-01_part-01_label-phase1,3.2.4,MacIntel,60,left,0.955000162,4,0,4,0,1,3,1,0,240,213,1,239,,,,,,,,,,,,,,,,,,
,,1,172,,,,,,,1,4,2,stim/42.jpeg,HouseObjects,2,stim/objects/HouseObjects/flyswatter.png,0.5,2,0.2,0.15,right,66,2021-03-31_14h02.35.706,premup-three_ses-01_part-01_label-phase1,3.2.4,MacIntel,60,right,1.2900002,4,0,4,0,1,3,1,0,240,73,1,239,,,,,,,,,,,,,,,,,,
,,0,173,,,,,,,1,4,2,stim/42.jpeg,Instruments,1,stim/objects/Instruments/frenchhorn.png,0.5,3,-0.2,-0.15,left,66,2021-03-31_14h02.35.706,premup-three_ses-01_part-01_label-phase1,3.2.4,MacIntel,60,right,0.75600028,4,0,4,0,1,3,1,0,240,45,1,239,,,,,,,,,,,,,,,,,,
,,0,174,,,,,,,1,3,1,stim/31.jpeg,Instruments,1,stim/objects/Instruments/drums.png,0.5,1,-0.2,0.15,left,66,2021-03-31_14h02.35.706,premup-three_ses-01_part-01_label-phase1,3.2.4,MacIntel,60,right,1.495000124,4,0,4,0,1,3,1,0,240,4,1,239,,,,,,,,,,,,,,,,,,
,,1,175,,,,,,,3,2,3,stim/23.jpeg,Instruments,1,stim/objects/Instruments/harp2.png,0.9,1,-0.2,0.15,left,66,2021-03-31_14h02.35.706,premup-three_ses-01_part-01_label-phase1,3.2.4,MacIntel,60,left,0.834000111,4,0,4,0,1,3,1,0,240,234,1,239,,,,,,,,,,,,,,,,,,
,,1,176,,,,,,,2,6,4,stim/64.jpeg,Instruments,1,stim/objects/Instruments/flute2.png,0.7,4,0.2,-0.15,left,66,2021-03-31_14h02.35.706,premup-three_ses-01_part-01_label-phase1,3.2.4,MacIntel,60,left,0.690000296,4,0,4,0,1,3,1,0,240,143,1,239,,,,,,,,,,,,,,,,,,
,,1,177,,,,,,,2,6,2,stim/62.jpeg,Instruments,1,stim/objects/Instruments/electricdrumset2.png,0.7,4,0.2,-0.15,left,66,2021-03-31_14h02.35.706,premup-three_ses-01_part-01_label-phase1,3.2.4,MacIntel,60,left,0.611000061,4,0,4,0,1,3,1,0,240,145,1,239,,,,,,,,,,,,,,,,,,
,,0,178,,,,,,,2,6,4,stim/64.jpeg,HouseObjects,2,stim/objects/HouseObjects/doormat2.png,0.3,2,0.2,0.15,right,66,2021-03-31_14h02.35.706,premup-three_ses-01_part-01_label-phase1,3.2.4,MacIntel,60,left,0.542000294,4,0,4,0,1,3,1,0,240,159,1,239,,,,,,,,,,,,,,,,,,
,,1,179,,,,,,,2,6,1,stim/61.jpeg,Instruments,1,stim/objects/Instruments/drums2.png,0.7,1,-0.2,0.15,left,66,2021-03-31_14h02.35.706,premup-three_ses-01_part-01_label-phase1,3.2.4,MacIntel,60,left,1.020000219,4,0,4,0,1,3,1,0,240,120,1,239,,,,,,,,,,,,,,,,,,
,,1,180,,,,,,,3,1,3,stim/13.jpeg,HouseObjects,2,stim/objects/HouseObjects/garbagebin2.png,0.9,3,-0.2,-0.15,right,66,2021-03-31_14h02.35.706,premup-three_ses-01_part-01_label-phase1,3.2.4,MacIntel,60,right,0.777000189,4,0,4,0,1,3,1,0,240,170,1,239,,,,,,,,,,,,,,,,,,
,,1,181,,,,,,,2,5,2,stim/52.jpeg,HouseObjects,2,stim/objects/HouseObjects/hairdryer.png,0.7,2,0.2,0.15,right,66,2021-03-31_14h02.35.706,premup-three_ses-01_part-01_label-phase1,3.2.4,MacIntel,60,right,1.138000011,4,0,4,0,1,3,1,0,240,101,1,239,,,,,,,,,,,,,,,,,,
,,1,182,,,,,,,1,3,3,stim/33.jpeg,Instruments,1,stim/objects/Instruments/electricguitar.png,0.5,4,0.2,-0.15,left,66,2021-03-31_14h02.35.706,premup-three_ses-01_part-01_label-phase1,3.2.4,MacIntel,60,left,1.100000143,4,0,4,0,1,3,1,0,240,6,1,239,,,,,,,,,,,,,,,,,,
,,1,183,,,,,,,2,5,3,stim/53.jpeg,HouseObjects,2,stim/objects/HouseObjects/handbrush.png,0.7,3,-0.2,-0.15,right,66,2021-03-31_14h02.35.706,premup-three_ses-01_part-01_label-phase1,3.2.4,MacIntel,60,right,0.77300024,4,0,4,0,1,3,1,0,240,106,1,239,,,,,,,,,,,,,,,,,,
,,1,184,,,,,,,3,2,3,stim/23.jpeg,Instruments,1,stim/objects/Instruments/harp2.png,0.9,1,-0.2,0.15,left,66,2021-03-31_14h02.35.706,premup-three_ses-01_part-01_label-phase1,3.2.4,MacIntel,60,left,0.721000195,4,0,4,0,1,3,1,0,240,214,1,239,,,,,,,,,,,,,,,,,,
,,1,185,,,,,,,2,6,1,stim/61.jpeg,Instruments,1,stim/objects/Instruments/drums2.png,0.7,4,0.2,-0.15,left,66,2021-03-31_14h02.35.706,premup-three_ses-01_part-01_label-phase1,3.2.4,MacIntel,60,left,0.67200017,4,0,4,0,1,3,1,0,240,140,1,239,,,,,,,,,,,,,,,,,,
,,0,186,,,,,,,1,4,4,stim/44.jpeg,Instruments,1,stim/objects/Instruments/grandpiano.png,0.5,2,0.2,0.15,left,66,2021-03-31_14h02.35.706,premup-three_ses-01_part-01_label-phase1,3.2.4,MacIntel,60,right,0.798000097,4,0,4,0,1,3,1,0,240,47,1,239,,,,,,,,,,,,,,,,,,
,,1,187,,,,,,,1,4,1,stim/41.jpeg,HouseObjects,2,stim/objects/HouseObjects/dustpan.png,0.5,4,0.2,-0.15,right,66,2021-03-31_14h02.35.706,premup-three_ses-01_part-01_label-phase1,3.2.4,MacIntel,60,right,0.958000183,4,0,4,0,1,3,1,0,240,68,1,239,,,,,,,,,,,,,,,,,,
,,1,188,,,,,,,2,6,2,stim/62.jpeg,Instruments,1,stim/objects/Instruments/electricdrumset2.png,0.7,2,0.2,0.15,left,66,2021-03-31_14h02.35.706,premup-three_ses-01_part-01_label-phase1,3.2.4,MacIntel,60,left,0.691000223,4,0,4,0,1,3,1,0,240,137,1,239,,,,,,,,,,,,,,,,,,
,,0,189,,,,,,,2,5,4,stim/54.jpeg,HouseObjects,2,stim/objects/HouseObjects/handvacuum.png,0.7,4,0.2,-0.15,right,66,2021-03-31_14h02.35.706,premup-three_ses-01_part-01_label-phase1,3.2.4,MacIntel,60,left,1.356000185,4,0,4,0,1,3,1,0,240,119,1,239,,,,,,,,,,,,,,,,,,
,,1,190,,,,,,,2,5,2,stim/52.jpeg,HouseObjects,2,stim/objects/HouseObjects/hairdryer.png,0.7,4,0.2,-0.15,right,66,2021-03-31_14h02.35.706,premup-three_ses-01_part-01_label-phase1,3.2.4,MacIntel,60,right,1.278000116,4,0,4,0,1,3,1,0,240,109,1,239,,,,,,,,,,,,,,,,,,
,,0,191,,,,,,,2,6,1,stim/61.jpeg,HouseObjects,2,stim/objects/HouseObjects/coffee2.png,0.3,3,-0.2,-0.15,right,66,2021-03-31_14h02.35.706,premup-three_ses-01_part-01_label-phase1,3.2.4,MacIntel,60,left,0.656000376,4,0,4,0,1,3,1,0,240,148,1,239,,,,,,,,,,,,,,,,,,
,,1,192,,,,,,,3,1,3,stim/13.jpeg,HouseObjects,2,stim/objects/HouseObjects/garbagebin2.png,0.9,1,-0.2,0.15,right,66,2021-03-31_14h02.35.706,premup-three_ses-01_part-01_label-phase1,3.2.4,MacIntel,60,right,0.902000189,4,0,4,0,1,3,1,0,240,166,1,239,,,,,,,,,,,,,,,,,,
,,1,193,,,,,,,3,2,1,stim/21.jpeg,Instruments,1,stim/objects/Instruments/guitarcase2.png,0.9,1,-0.2,0.15,left,66,2021-03-31_14h02.35.706,premup-three_ses-01_part-01_label-phase1,3.2.4,MacIntel,60,left,1.322000265,4,0,4,0,1,3,1,0,240,220,1,239,,,,,,,,,,,,,,,,,,
,,1,194,,,,,,,3,2,2,stim/22.jpeg,Instruments,1,stim/objects/Instruments/harmonica2.png,0.9,4,0.2,-0.15,left,66,2021-03-31_14h02.35.706,premup-three_ses-01_part-01_label-phase1,3.2.4,MacIntel,60,left,1.02300024,4,0,4,0,1,3,1,0,240,233,1,239,,,,,,,,,,,,,,,,,,
,,0,195,,,,,,,2,5,4,stim/54.jpeg,HouseObjects,2,stim/objects/HouseObjects/handvacuum.png,0.7,4,0.2,-0.15,right,66,2021-03-31_14h02.35.706,premup-three_ses-01_part-01_label-phase1,3.2.4,MacIntel,60,left,1.111000299,4,0,4,0,1,3,1,0,240,103,1,239,,,,,,,,,,,,,,,,,,
,,1,196,,,,,,,3,1,4,stim/14.jpeg,HouseObjects,2,stim/objects/HouseObjects/glass2.png,0.9,1,-0.2,0.15,right,66,2021-03-31_14h02.35.706,premup-three_ses-01_part-01_label-phase1,3.2.4,MacIntel,60,right,0.904999971,4,0,4,0,1,3,1,0,240,183,1,239,,,,,,,,,,,,,,,,,,
,,0,197,,,,,,,2,5,1,stim/51.jpeg,HouseObjects,2,stim/objects/HouseObjects/glassmop.png,0.7,2,0.2,0.15,right,66,2021-03-31_14h02.35.706,premup-three_ses-01_part-01_label-phase1,3.2.4,MacIntel,60,left,1.013000011,4,0,4,0,1,3,1,0,240,108,1,239,,,,,,,,,,,,,,,,,,
,,1,198,,,,,,,1,3,1,stim/31.jpeg,HouseObjects,2,stim/objects/HouseObjects/coffee.png,0.5,3,-0.2,-0.15,right,66,2021-03-31_14h02.35.706,premup-three_ses-01_part-01_label-phase1,3.2.4,MacIntel,60,right,1.596000195,4,0,4,0,1,3,1,0,240,36,1,239,,,,,,,,,,,,,,,,,,
,,1,199,,,,,,,3,2,1,stim/21.jpeg,Instruments,1,stim/objects/Instruments/guitarcase2.png,0.9,4,0.2,-0.15,left,66,2021-03-31_14h02.35.706,premup-three_ses-01_part-01_label-phase1,3.2.4,MacIntel,60,left,0.760000229,4,0,4,0,1,3,1,0,240,204,1,239,,,,,,,,,,,,,,,,,,
,,1,200,,,,,,,1,3,1,stim/31.jpeg,HouseObjects,2,stim/objects/HouseObjects/coffee.png,0.5,2,0.2,0.15,right,66,2021-03-31_14h02.35.706,premup-three_ses-01_part-01_label-phase1,3.2.4,MacIntel,60,right,1.356000185,4,0,4,0,1,3,1,0,240,24,1,239,,,,,,,,,,,,,,,,,,
,,1,201,,,,,,,3,1,1,stim/11.jpeg,HouseObjects,2,stim/objects/HouseObjects/dustpan2.png,0.9,4,0.2,-0.15,right,66,2021-03-31_14h02.35.706,premup-three_ses-01_part-01_label-phase1,3.2.4,MacIntel,60,right,1.39800024,4,0,4,0,1,3,1,0,240,188,1,239,,,,,,,,,,,,,,,,,,
,,0,202,,,,,,,2,5,3,stim/53.jpeg,Instruments,1,stim/objects/Instruments/harp.png,0.3,1,-0.2,0.15,left,66,2021-03-31_14h02.35.706,premup-three_ses-01_part-01_label-phase1,3.2.4,MacIntel,60,right,0.991000175,4,0,4,0,1,3,1,0,240,82,1,239,,,,,,,,,,,,,,,,,,
,,0,203,,,,,,,2,6,3,stim/63.jpeg,HouseObjects,2,stim/objects/HouseObjects/dishsoap2.png,0.3,4,0.2,-0.15,right,66,2021-03-31_14h02.35.706,premup-three_ses-01_part-01_label-phase1,3.2.4,MacIntel,60,left,0.750000238,4,0,4,0,1,3,1,0,240,150,1,239,,,,,,,,,,,,,,,,,,
,,1,204,,,,,,,1,3,3,stim/33.jpeg,HouseObjects,2,stim/objects/HouseObjects/dishsoap.png,0.5,3,-0.2,-0.15,right,66,2021-03-31_14h02.35.706,premup-three_ses-01_part-01_label-phase1,3.2.4,MacIntel,60,right,1.042999983,4,0,4,0,1,3,1,0,240,22,1,239,,,,,,,,,,,,,,,,,,
,,1,205,,,,,,,1,4,4,stim/44.jpeg,HouseObjects,2,stim/objects/HouseObjects/glass.png,0.5,2,0.2,0.15,right,66,2021-03-31_14h02.35.706,premup-three_ses-01_part-01_label-phase1,3.2.4,MacIntel,60,right,0.957000017,4,0,4,0,1,3,1,0,240,67,1,239,,,,,,,,,,,,,,,,,,
,,0,206,,,,,,,2,6,2,stim/62.jpeg,HouseObjects,2,stim/objects/HouseObjects/cushion2.png,0.3,4,0.2,-0.15,right,66,2021-03-31_14h02.35.706,premup-three_ses-01_part-01_label-phase1,3.2.4,MacIntel,60,left,0.671000242,4,0,4,0,1,3,1,0,240,149,1,239,,,,,,,,,,,,,,,,,,
,,1,207,,,,,,,2,5,4,stim/54.jpeg,Instruments,1,stim/objects/Instruments/hihat.png,0.3,2,0.2,0.15,left,66,2021-03-31_14h02.35.706,premup-three_ses-01_part-01_label-phase1,3.2.4,MacIntel,60,left,1.382000208,4,0,4,0,1,3,1,0,240,87,1,239,,,,,,,,,,,,,,,,,,
,,1,208,,,,,,,3,2,2,stim/22.jpeg,Instruments,1,stim/objects/Instruments/harmonica2.png,0.9,1,-0.2,0.15,left,66,2021-03-31_14h02.35.706,premup-three_ses-01_part-01_label-phase1,3.2.4,MacIntel,60,left,0.760000229,4,0,4,0,1,3,1,0,240,201,1,239,,,,,,,,,,,,,,,,,,
,,1,209,,,,,,,2,5,1,stim/51.jpeg,HouseObjects,2,stim/objects/HouseObjects/glassmop.png,0.7,4,0.2,-0.15,right,66,2021-03-31_14h02.35.706,premup-three_ses-01_part-01_label-phase1,3.2.4,MacIntel,60,right,0.926000118,4,0,4,0,1,3,1,0,240,100,1,239,,,,,,,,,,,,,,,,,,
,,0,210,,,,,,,3,1,4,stim/14.jpeg,Instruments,1,stim/objects/Instruments/grandpiano2.png,0.1,2,0.2,0.15,left,66,2021-03-31_14h02.35.706,premup-three_ses-01_part-01_label-phase1,3.2.4,MacIntel,60,right,1.024000168,4,0,4,0,1,3,1,0,240,163,1,239,,,,,,,,,,,,,,,,,,
,,1,211,,,,,,,1,4,4,stim/44.jpeg,HouseObjects,2,stim/objects/HouseObjects/glass.png,0.5,4,0.2,-0.15,right,66,2021-03-31_14h02.35.706,premup-three_ses-01_part-01_label-phase1,3.2.4,MacIntel,60,right,1.086000204,4,0,4,0,1,3,1,0,240,63,1,239,,,,,,,,,,,,,,,,,,
,,1,212,,,,,,,3,2,2,stim/22.jpeg,Instruments,1,stim/objects/Instruments/harmonica2.png,0.9,2,0.2,0.15,left,66,2021-03-31_14h02.35.706,premup-three_ses-01_part-01_label-phase1,3.2.4,MacIntel,60,left,0.69900012,4,0,4,0,1,3,1,0,240,221,1,239,,,,,,,,,,,,,,,,,,
,,1,213,,,,,,,3,1,4,stim/14.jpeg,HouseObjects,2,stim/objects/HouseObjects/glass2.png,0.9,4,0.2,-0.15,right,66,2021-03-31_14h02.35.706,premup-three_ses-01_part-01_label-phase1,3.2.4,MacIntel,60,right,0.940999985,4,0,4,0,1,3,1,0,240,187,1,239,,,,,,,,,,,,,,,,,,
,,0,214,,,,,,,1,3,1,stim/31.jpeg,Instruments,1,stim/objects/Instruments/drums.png,0.5,2,0.2,0.15,left,66,2021-03-31_14h02.35.706,premup-three_ses-01_part-01_label-phase1,3.2.4,MacIntel,60,right,1.288000345,4,0,4,0,1,3,1,0,240,12,1,239,,,,,,,,,,,,,,,,,,
,,1,215,,,,,,,3,1,1,stim/11.jpeg,HouseObjects,2,stim/objects/HouseObjects/dustpan2.png,0.9,1,-0.2,0.15,right,66,2021-03-31_14h02.35.706,premup-three_ses-01_part-01_label-phase1,3.2.4,MacIntel,60,right,1.154000044,4,0,4,0,1,3,1,0,240,164,1,239,,,,,,,,,,,,,,,,,,
,,1,216,,,,,,,1,4,2,stim/42.jpeg,Instruments,1,stim/objects/Instruments/frenchhorn.png,0.5,3,-0.2,-0.15,left,66,2021-03-31_14h02.35.706,premup-three_ses-01_part-01_label-phase1,3.2.4,MacIntel,60,left,1.554000139,4,0,4,0,1,3,1,0,240,53,1,239,,,,,,,,,,,,,,,,,,
,,1,217,,,,,,,2,5,4,stim/54.jpeg,HouseObjects,2,stim/objects/HouseObjects/handvacuum.png,0.7,1,-0.2,0.15,right,66,2021-03-31_14h02.35.706,premup-three_ses-01_part-01_label-phase1,3.2.4,MacIntel,60,right,1.274000168,4,0,4,0,1,3,1,0,240,99,1,239,,,,,,,,,,,,,,,,,,
,,0,218,,,,,,,2,6,1,stim/61.jpeg,HouseObjects,2,stim/objects/HouseObjects/coffee2.png,0.3,2,0.2,0.15,right,66,2021-03-31_14h02.35.706,premup-three_ses-01_part-01_label-phase1,3.2.4,MacIntel,60,left,0.687000275,4,0,4,0,1,3,1,0,240,152,1,239,,,,,,,,,,,,,,,,,,
,,1,219,,,,,,,3,2,4,stim/24.jpeg,Instruments,1,stim/objects/Instruments/hihat2.png,0.9,3,-0.2,-0.15,left,66,2021-03-31_14h02.35.706,premup-three_ses-01_part-01_label-phase1,3.2.4,MacIntel,60,left,0.686000109,4,0,4,0,1,3,1,0,240,211,1,239,,,,,,,,,,,,,,,,,,
,,1,220,,,,,,,3,2,1,stim/21.jpeg,Instruments,1,stim/objects/Instruments/guitarcase2.png,0.9,2,0.2,0.15,left,66,2021-03-31_14h02.35.706,premup-three_ses-01_part-01_label-phase1,3.2.4,MacIntel,60,left,0.592000008,4,0,4,0,1,3,1,0,240,224,1,239,,,,,,,,,,,,,,,,,,
,,0,221,,,,,,,2,6,1,stim/61.jpeg,HouseObjects,2,stim/objects/HouseObjects/coffee2.png,0.3,3,-0.2,-0.15,right,66,2021-03-31_14h02.35.706,premup-three_ses-01_part-01_label-phase1,3.2.4,MacIntel,60,left,1.224000216,4,0,4,0,1,3,1,0,240,156,1,239,,,,,,,,,,,,,,,,,,
,,0,222,,,,,,,2,6,3,stim/63.jpeg,HouseObjects,2,stim/objects/HouseObjects/dishsoap2.png,0.3,2,0.2,0.15,right,66,2021-03-31_14h02.35.706,premup-three_ses-01_part-01_label-phase1,3.2.4,MacIntel,60,left,0.891000271,4,0,4,0,1,3,1,0,240,154,1,239,,,,,,,,,,,,,,,,,,
,,1,223,,,,,,,1,4,2,stim/42.jpeg,Instruments,1,stim/objects/Instruments/frenchhorn.png,0.5,2,0.2,0.15,left,66,2021-03-31_14h02.35.706,premup-three_ses-01_part-01_label-phase1,3.2.4,MacIntel,60,left,1.749000311,4,0,4,0,1,3,1,0,240,41,1,239,,,,,,,,,,,,,,,,,,
,,1,224,,,,,,,1,4,1,stim/41.jpeg,HouseObjects,2,stim/objects/HouseObjects/dustpan.png,0.5,4,0.2,-0.15,right,66,2021-03-31_14h02.35.706,premup-three_ses-01_part-01_label-phase1,3.2.4,MacIntel,60,right,1.203000307,4,0,4,0,1,3,1,0,240,64,1,239,,,,,,,,,,,,,,,,,,
,,1,225,,,,,,,2,5,4,stim/54.jpeg,HouseObjects,2,stim/objects/HouseObjects/handvacuum.png,0.7,3,-0.2,-0.15,right,66,2021-03-31_14h02.35.706,premup-three_ses-01_part-01_label-phase1,3.2.4,MacIntel,60,right,1.171000004,4,0,4,0,1,3,1,0,240,95,1,239,,,,,,,,,,,,,,,,,,
,,1,226,,,,,,,3,1,2,stim/12.jpeg,HouseObjects,2,stim/objects/HouseObjects/flyswatter2.png,0.9,4,0.2,-0.15,right,66,2021-03-31_14h02.35.706,premup-three_ses-01_part-01_label-phase1,3.2.4,MacIntel,60,right,1.283000231,4,0,4,0,1,3,1,0,240,189,1,239,,,,,,,,,,,,,,,,,,
,,0,227,,,,,,,1,4,2,stim/42.jpeg,HouseObjects,2,stim/objects/HouseObjects/flyswatter.png,0.5,3,-0.2,-0.15,right,66,2021-03-31_14h02.35.706,premup-three_ses-01_part-01_label-phase1,3.2.4,MacIntel,60,left,1.420000076,4,0,4,0,1,3,1,0,240,69,1,239,,,,,,,,,,,,,,,,,,
,,1,228,,,,,,,1,4,3,stim/43.jpeg,HouseObjects,2,stim/objects/HouseObjects/garbagebin.png,0.5,3,-0.2,-0.15,right,66,2021-03-31_14h02.35.706,premup-three_ses-01_part-01_label-phase1,3.2.4,MacIntel,60,right,1.623000145,4,0,4,0,1,3,1,0,240,74,1,239,,,,,,,,,,,,,,,,,,
,,1,229,,,,,,,3,1,3,stim/13.jpeg,HouseObjects,2,stim/objects/HouseObjects/garbagebin2.png,0.9,2,0.2,0.15,right,66,2021-03-31_14h02.35.706,premup-three_ses-01_part-01_label-phase1,3.2.4,MacIntel,60,right,1.09100008,4,0,4,0,1,3,1,0,240,178,1,239,,,,,,,,,,,,,,,,,,
,,0,230,,,,,,,2,6,3,stim/63.jpeg,Instruments,1,stim/objects/Instruments/electricguitar2.png,0.7,1,-0.2,0.15,left,66,2021-03-31_14h02.35.706,premup-three_ses-01_part-01_label-phase1,3.2.4,MacIntel,60,right,0.608999968,4,0,4,0,1,3,1,0,240,126,1,239,,,,,,,,,,,,,,,,,,
,,0,231,,,,,,,2,5,3,stim/53.jpeg,HouseObjects,2,stim/objects/HouseObjects/handbrush.png,0.7,3,-0.2,-0.15,right,66,2021-03-31_14h02.35.706,premup-three_ses-01_part-01_label-phase1,3.2.4,MacIntel,60,left,1.460000277,4,0,4,0,1,3,1,0,240,118,1,239,,,,,,,,,,,,,,,,,,
,,1,232,,,,,,,3,2,2,stim/22.jpeg,Instruments,1,stim/objects/Instruments/harmonica2.png,0.9,4,0.2,-0.15,left,66,2021-03-31_14h02.35.706,premup-three_ses-01_part-01_label-phase1,3.2.4,MacIntel,60,left,0.639000177,4,0,4,0,1,3,1,0,240,209,1,239,,,,,,,,,,,,,,,,,,
,,0,233,,,,,,,1,4,1,stim/41.jpeg,Instruments,1,stim/objects/Instruments/flutetrans.png,0.5,2,0.2,0.15,left,66,2021-03-31_14h02.35.706,premup-three_ses-01_part-01_label-phase1,3.2.4,MacIntel,60,right,0.959000111,4,0,4,0,1,3,1,0,240,40,1,239,,,,,,,,,,,,,,,,,,
,,0,234,,,,,,,1,4,1,stim/41.jpeg,Instruments,1,stim/objects/Instruments/flutetrans.png,0.5,4,0.2,-0.15,left,66,2021-03-31_14h02.35.706,premup-three_ses-01_part-01_label-phase1,3.2.4,MacIntel,60,right,1.236000061,4,0,4,0,1,3,1,0,240,48,1,239,,,,,,,,,,,,,,,,,,
,,1,235,,,,,,,3,2,4,stim/24.jpeg,Instruments,1,stim/objects/Instruments/hihat2.png,0.9,1,-0.2,0.15,left,66,2021-03-31_14h02.35.706,premup-three_ses-01_part-01_label-phase1,3.2.4,MacIntel,60,left,1.654000044,4,0,4,0,1,3,1,0,240,203,1,239,,,,,,,,,,,,,,,,,,
,,0,236,,,,,,,2,6,1,stim/61.jpeg,Instruments,1,stim/objects/Instruments/drums2.png,0.7,2,0.2,0.15,left,66,2021-03-31_14h02.35.706,premup-three_ses-01_part-01_label-phase1,3.2.4,MacIntel,60,right,0.85800004,4,0,4,0,1,3,1,0,240,124,1,239,,,,,,,,,,,,,,,,,,
,,1,237,,,,,,,2,5,1,stim/51.jpeg,HouseObjects,2,stim/objects/HouseObjects/glassmop.png,0.7,3,-0.2,-0.15,right,66,2021-03-31_14h02.35.706,premup-three_ses-01_part-01_label-phase1,3.2.4,MacIntel,60,right,0.925000191,4,0,4,0,1,3,1,0,240,96,1,239,,,,,,,,,,,,,,,,,,
,,0,238,,,,,,,2,5,3,stim/53.jpeg,HouseObjects,2,stim/objects/HouseObjects/handbrush.png,0.7,2,0.2,0.15,right,66,2021-03-31_14h02.35.706,premup-three_ses-01_part-01_label-phase1,3.2.4,MacIntel,60,left,0.889000177,4,0,4,0,1,3,1,0,240,98,1,239,,,,,,,,,,,,,,,,,,
,,1,239,,,,,,,2,5,2,stim/52.jpeg,HouseObjects,2,stim/objects/HouseObjects/hairdryer.png,0.7,3,-0.2,-0.15,right,66,2021-03-31_14h02.35.706,premup-three_ses-01_part-01_label-phase1,3.2.4,MacIntel,60,right,0.708000183,4,0,4,0,1,3,1,0,240,117,1,239,,,,,,,,,,,,,,,,,,
,,1,240,,,,,,,3,1,3,stim/13.jpeg,HouseObjects,2,stim/objects/HouseObjects/garbagebin2.png,0.9,2,0.2,0.15,right,66,2021-03-31_14h02.35.706,premup-three_ses-01_part-01_label-phase1,3.2.4,MacIntel,60,right,0.84100008,4,0,4,0,1,3,1,0,240,190,1,239,,,,,,,,,,,,,,,,,,
,,,,,,,,,,,4,,stim/41.jpeg,,,,,,,,,66,2021-03-31_14h02.35.706,premup-three_ses-01_part-01_label-phase1,3.2.4,MacIntel,60,,,4,0,4,0,1,3,,,,,,,1,0,38,18.66200018,,,1,0,6,3,1,5,Music items,65,75,Household items,25,35
,,,,,,,,,,,3,,stim/31.jpeg,,,,,,,,,66,2021-03-31_14h02.35.706,premup-three_ses-01_part-01_label-phase1,3.2.4,MacIntel,60,,,4,0,4,0,1,3,,,,,,,1,0,26,9.193999767,,,1,0,6,2,1,5,Music items,65,75,Household items,25,35
,,,,,,,,,,,5,,stim/51.jpeg,,,,,,,,,66,2021-03-31_14h02.35.706,premup-three_ses-01_part-01_label-phase1,3.2.4,MacIntel,60,,,4,0,4,0,1,3,,,,,,,1,0,85,7.18900013,,,1,0,6,4,1,5,Household items,5,15,Music items,85,95
,,,,,,,,,,,2,,stim/21.jpeg,,,,,,,,,66,2021-03-31_14h02.35.706,premup-three_ses-01_part-01_label-phase1,3.2.4,MacIntel,60,,,4,0,4,0,1,3,,,,,,,1,0,2,7.210000038,,,1,0,6,1,1,5,Household items,45,55,Music items,45,55
,,,,,,,,,,,6,,stim/61.jpeg,,,,,,,,,66,2021-03-31_14h02.35.706,premup-three_ses-01_part-01_label-phase1,3.2.4,MacIntel,60,,,4,0,4,0,1,3,,,,,,,1,0,70,11.41100001,,,1,0,6,5,1,5,Music items,5,15,Household items,85,95
,,,,,,,,,,,1,,stim/11.jpeg,,,,,,,,,66,2021-03-31_14h02.35.706,premup-three_ses-01_part-01_label-phase1,3.2.4,MacIntel,60,,,4,0,4,0,1,3,,,,,,,1,0,19,10.19299984,,,1,0,6,0,1,5,Music items,45,55,Household items,45,55
,,,,,,,,,,,,,,,,,,,,,,66,2021-03-31_14h02.35.706,premup-three_ses-01_part-01_label-phase1,3.2.4,MacIntel,60,,,4,0,4,0,1,3,,,,,,,,,,,,,,,,,,,,,,,,
,,1,1,,,,,,,2,5,3,stim/53.jpeg,HouseObjects,2,stim/objects/HouseObjects/handbrush.png,0.7,2,0.2,0.15,right,66,2021-03-31_14h02.35.706,premup-three_ses-01_part-01_label-phase1,3.2.4,MacIntel,60,right,1.267000198,4,0,4,0,1,3,1,0,240,110,1,239,,,,,,,,,,,,,,,,,,
,,1,2,,,,,,,2,6,4,stim/64.jpeg,Instruments,1,stim/objects/Instruments/flute2.png,0.7,4,0.2,-0.15,left,66,2021-03-31_14h02.35.706,premup-three_ses-01_part-01_label-phase1,3.2.4,MacIntel,60,left,0.767000198,4,0,4,0,1,3,1,0,240,147,1,239,,,,,,,,,,,,,,,,,,
,,0,3,,,,,,,1,4,3,stim/43.jpeg,Instruments,1,stim/objects/Instruments/gong.png,0.5,2,0.2,0.15,left,66,2021-03-31_14h02.35.706,premup-three_ses-01_part-01_label-phase1,3.2.4,MacIntel,60,right,0.913000107,4,0,4,0,1,3,1,0,240,54,1,239,,,,,,,,,,,,,,,,,,
,,0,4,,,,,,,1,3,3,stim/33.jpeg,HouseObjects,2,stim/objects/HouseObjects/dishsoap.png,0.5,3,-0.2,-0.15,right,66,2021-03-31_14h02.35.706,premup-three_ses-01_part-01_label-phase1,3.2.4,MacIntel,60,left,1.417000294,4,0,4,0,1,3,1,0,240,22,1,239,,,,,,,,,,,,,,,,,,
,,1,5,,,,,,,2,6,4,stim/64.jpeg,Instruments,1,stim/objects/Instruments/flute2.png,0.7,1,-0.2,0.15,left,66,2021-03-31_14h02.35.706,premup-three_ses-01_part-01_label-phase1,3.2.4,MacIntel,60,left,0.745000124,4,0,4,0,1,3,1,0,240,139,1,239,,,,,,,,,,,,,,,,,,
,,1,6,,,,,,,2,6,1,stim/61.jpeg,Instruments,1,stim/objects/Instruments/drums2.png,0.7,2,0.2,0.15,left,66,2021-03-31_14h02.35.706,premup-three_ses-01_part-01_label-phase1,3.2.4,MacIntel,60,left,0.798000097,4,0,4,0,1,3,1,0,240,124,1,239,,,,,,,,,,,,,,,,,,
,,1,7,,,,,,,2,6,1,stim/61.jpeg,Instruments,1,stim/objects/Instruments/drums2.png,0.7,1,-0.2,0.15,left,66,2021-03-31_14h02.35.706,premup-three_ses-01_part-01_label-phase1,3.2.4,MacIntel,60,left,0.59800005,4,0,4,0,1,3,1,0,240,120,1,239,,,,,,,,,,,,,,,,,,
,,1,8,,,,,,,2,6,2,stim/62.jpeg,Instruments,1,stim/objects/Instruments/electricdrumset2.png,0.7,1,-0.2,0.15,left,66,2021-03-31_14h02.35.706,premup-three_ses-01_part-01_label-phase1,3.2.4,MacIntel,60,left,0.82700038,4,0,4,0,1,3,1,0,240,141,1,239,,,,,,,,,,,,,,,,,,
,,1,9,,,,,,,1,4,2,stim/42.jpeg,HouseObjects,2,stim/objects/HouseObjects/flyswatter.png,0.5,3,-0.2,-0.15,right,66,2021-03-31_14h02.35.706,premup-three_ses-01_part-01_label-phase1,3.2.4,MacIntel,60,right,1.219000101,4,0,4,0,1,3,1,0,240,69,1,239,,,,,,,,,,,,,,,,,,
,,0,10,,,,,,,2,5,1,stim/51.jpeg,Instruments,1,stim/objects/Instruments/guitarcase.png,0.3,1,-0.2,0.15,left,66,2021-03-31_14h02.35.706,premup-three_ses-01_part-01_label-phase1,3.2.4,MacIntel,60,right,0.861000061,4,0,4,0,1,3,1,0,240,84,1,239,,,,,,,,,,,,,,,,,,
,,0,11,,,,,,,3,2,4,stim/24.jpeg,HouseObjects,2,stim/objects/HouseObjects/handvacuum2.png,0.1,3,-0.2,-0.15,right,66,2021-03-31_14h02.35.706,premup-three_ses-01_part-01_label-phase1,3.2.4,MacIntel,60,left,0.650000095,4,0,4,0,1,3,1,0,240,239,1,239,,,,,,,,,,,,,,,,,,
,,1,12,,,,,,,1,3,3,stim/33.jpeg,HouseObjects,2,stim/objects/HouseObjects/dishsoap.png,0.5,2,0.2,0.15,right,66,2021-03-31_14h02.35.706,premup-three_ses-01_part-01_label-phase1,3.2.4,MacIntel,60,right,1.49600029,4,0,4,0,1,3,1,0,240,26,1,239,,,,,,,,,,,,,,,,,,
,,1,13,,,,,,,2,6,4,stim/64.jpeg,Instruments,1,stim/objects/Instruments/flute2.png,0.7,3,-0.2,-0.15,left,66,2021-03-31_14h02.35.706,premup-three_ses-01_part-01_label-phase1,3.2.4,MacIntel,60,left,0.703000069,4,0,4,0,1,3,1,0,240,123,1,239,,,,,,,,,,,,,,,,,,
,,0,14,,,,,,,2,6,2,stim/62.jpeg,HouseObjects,2,stim/objects/HouseObjects/cushion2.png,0.3,4,0.2,-0.15,right,66,2021-03-31_14h02.35.706,premup-three_ses-01_part-01_label-phase1,3.2.4,MacIntel,60,left,0.659000158,4,0,4,0,1,3,1,0,240,149,1,239,,,,,,,,,,,,,,,,,,
,,0,15,,,,,,,1,3,1,stim/31.jpeg,Instruments,1,stim/objects/Instruments/drums.png,0.5,2,0.2,0.15,left,66,2021-03-31_14h02.35.706,premup-three_ses-01_part-01_label-phase1,3.2.4,MacIntel,60,right,1.187000275,4,0,4,0,1,3,1,0,240,0,1,239,,,,,,,,,,,,,,,,,,
,,0,16,,,,,,,3,1,2,stim/12.jpeg,Instruments,1,stim/objects/Instruments/frenchhorn2.png,0.1,3,-0.2,-0.15,left,66,2021-03-31_14h02.35.706,premup-three_ses-01_part-01_label-phase1,3.2.4,MacIntel,60,right,1.096000195,4,0,4,0,1,3,1,0,240,161,1,239,,,,,,,,,,,,,,,,,,
,,1,17,,,,,,,3,1,4,stim/14.jpeg,HouseObjects,2,stim/objects/HouseObjects/glass2.png,0.9,4,0.2,-0.15,right,66,2021-03-31_14h02.35.706,premup-three_ses-01_part-01_label-phase1,3.2.4,MacIntel,60,right,0.891000271,4,0,4,0,1,3,1,0,240,187,1,239,,,,,,,,,,,,,,,,,,
,,1,18,,,,,,,2,5,4,stim/54.jpeg,HouseObjects,2,stim/objects/HouseObjects/handvacuum.png,0.7,4,0.2,-0.15,right,66,2021-03-31_14h02.35.706,premup-three_ses-01_part-01_label-phase1,3.2.4,MacIntel,60,right,0.955000162,4,0,4,0,1,3,1,0,240,119,1,239,,,,,,,,,,,,,,,,,,
,,0,19,,,,,,,1,3,4,stim/34.jpeg,Instruments,1,stim/objects/Instruments/flute.png,0.5,2,0.2,0.15,left,66,2021-03-31_14h02.35.706,premup-three_ses-01_part-01_label-phase1,3.2.4,MacIntel,60,right,1.383000135,4,0,4,0,1,3,1,0,240,11,1,239,,,,,,,,,,,,,,,,,,
,,1,20,,,,,,,1,3,3,stim/33.jpeg,HouseObjects,2,stim/objects/HouseObjects/dishsoap.png,0.5,3,-0.2,-0.15,right,66,2021-03-31_14h02.35.706,premup-three_ses-01_part-01_label-phase1,3.2.4,MacIntel,60,right,1.426000357,4,0,4,0,1,3,1,0,240,30,1,239,,,,,,,,,,,,,,,,,,
,,1,21,,,,,,,2,5,4,stim/54.jpeg,HouseObjects,2,stim/objects/HouseObjects/handvacuum.png,0.7,1,-0.2,0.15,right,66,2021-03-31_14h02.35.706,premup-three_ses-01_part-01_label-phase1,3.2.4,MacIntel,60,right,1.055000305,4,0,4,0,1,3,1,0,240,111,1,239,,,,,,,,,,,,,,,,,,
,,0,22,,,,,,,1,3,4,stim/34.jpeg,HouseObjects,2,stim/objects/HouseObjects/doormat.png,0.5,1,-0.2,0.15,right,66,2021-03-31_14h02.35.706,premup-three_ses-01_part-01_label-phase1,3.2.4,MacIntel,60,left,1.158000231,4,0,4,0,1,3,1,0,240,23,1,239,,,,,,,,,,,,,,,,,,
,,1,23,,,,,,,3,1,2,stim/12.jpeg,HouseObjects,2,stim/objects/HouseObjects/flyswatter2.png,0.9,4,0.2,-0.15,right,66,2021-03-31_14h02.35.706,premup-three_ses-01_part-01_label-phase1,3.2.4,MacIntel,60,right,0.908000231,4,0,4,0,1,3,1,0,240,177,1,239,,,,,,,,,,,,,,,,,,
,,1,24,,,,,,,2,6,2,stim/62.jpeg,Instruments,1,stim/objects/Instruments/electricdrumset2.png,0.7,4,0.2,-0.15,left,66,2021-03-31_14h02.35.706,premup-three_ses-01_part-01_label-phase1,3.2.4,MacIntel,60,left,0.687000275,4,0,4,0,1,3,1,0,240,133,1,239,,,,,,,,,,,,,,,,,,
,,1,25,,,,,,,2,6,2,stim/62.jpeg,Instruments,1,stim/objects/Instruments/electricdrumset2.png,0.7,3,-0.2,-0.15,left,66,2021-03-31_14h02.35.706,premup-three_ses-01_part-01_label-phase1,3.2.4,MacIntel,60,left,0.543000221,4,0,4,0,1,3,1,0,240,125,1,239,,,,,,,,,,,,,,,,,,
,,0,26,,,,,,,3,1,1,stim/11.jpeg,Instruments,1,stim/objects/Instruments/flutetrans2.png,0.1,3,-0.2,-0.15,left,66,2021-03-31_14h02.35.706,premup-three_ses-01_part-01_label-phase1,3.2.4,MacIntel,60,right,1.340000153,4,0,4,0,1,3,1,0,240,160,1,239,,,,,,,,,,,,,,,,,,
,,1,27,,,,,,,1,3,1,stim/31.jpeg,Instruments,1,stim/objects/Instruments/drums.png,0.5,1,-0.2,0.15,left,66,2021-03-31_14h02.35.706,premup-three_ses-01_part-01_label-phase1,3.2.4,MacIntel,60,left,1.109000206,4,0,4,0,1,3,1,0,240,4,1,239,,,,,,,,,,,,,,,,,,
,,0,28,,,,,,,1,3,2,stim/32.jpeg,HouseObjects,2,stim/objects/HouseObjects/cushion.png,0.5,1,-0.2,0.15,right,66,2021-03-31_14h02.35.706,premup-three_ses-01_part-01_label-phase1,3.2.4,MacIntel,60,left,0.808000088,4,0,4,0,1,3,1,0,240,29,1,239,,,,,,,,,,,,,,,,,,
,,1,29,,,,,,,1,4,3,stim/43.jpeg,HouseObjects,2,stim/objects/HouseObjects/garbagebin.png,0.5,3,-0.2,-0.15,right,66,2021-03-31_14h02.35.706,premup-three_ses-01_part-01_label-phase1,3.2.4,MacIntel,60,right,1.006000042,4,0,4,0,1,3,1,0,240,74,1,239,,,,,,,,,,,,,,,,,,
,,0,30,,,,,,,2,6,1,stim/61.jpeg,HouseObjects,2,stim/objects/HouseObjects/coffee2.png,0.3,3,-0.2,-0.15,right,66,2021-03-31_14h02.35.706,premup-three_ses-01_part-01_label-phase1,3.2.4,MacIntel,60,left,0.7900002,4,0,4,0,1,3,1,0,240,156,1,239,,,,,,,,,,,,,,,,,,
,,1,31,,,,,,,1,3,2,stim/32.jpeg,HouseObjects,2,stim/objects/HouseObjects/cushion.png,0.5,4,0.2,-0.15,right,66,2021-03-31_14h02.35.706,premup-three_ses-01_part-01_label-phase1,3.2.4,MacIntel,60,right,0.98300004,4,0,4,0,1,3,1,0,240,37,1,239,,,,,,,,,,,,,,,,,,
,,1,32,,,,,,,3,1,1,stim/11.jpeg,HouseObjects,2,stim/objects/HouseObjects/dustpan2.png,0.9,3,-0.2,-0.15,right,66,2021-03-31_14h02.35.706,premup-three_ses-01_part-01_label-phase1,3.2.4,MacIntel,60,right,1.002000332,4,0,4,0,1,3,1,0,240,192,1,239,,,,,,,,,,,,,,,,,,
,,1,33,,,,,,,2,5,4,stim/54.jpeg,HouseObjects,2,stim/objects/HouseObjects/handvacuum.png,0.7,4,0.2,-0.15,right,66,2021-03-31_14h02.35.706,premup-three_ses-01_part-01_label-phase1,3.2.4,MacIntel,60,right,0.92200017,4,0,4,0,1,3,1,0,240,103,1,239,,,,,,,,,,,,,,,,,,
,,0,34,,,,,,,3,1,4,stim/14.jpeg,HouseObjects,2,stim/objects/HouseObjects/glass2.png,0.9,4,0.2,-0.15,right,66,2021-03-31_14h02.35.706,premup-three_ses-01_part-01_label-phase1,3.2.4,MacIntel,60,left,1.241000175,4,0,4,0,1,3,1,0,240,191,1,239,,,,,,,,,,,,,,,,,,
,,0,35,,,,,,,3,2,2,stim/22.jpeg,HouseObjects,2,stim/objects/HouseObjects/hairdryer2.png,0.1,2,0.2,0.15,right,66,2021-03-31_14h02.35.706,premup-three_ses-01_part-01_label-phase1,3.2.4,MacIntel,60,left,0.68900013,4,0,4,0,1,3,1,0,240,237,1,239,,,,,,,,,,,,,,,,,,
,,1,36,,,,,,,2,5,3,stim/53.jpeg,HouseObjects,2,stim/objects/HouseObjects/handbrush.png,0.7,1,-0.2,0.15,right,66,2021-03-31_14h02.35.706,premup-three_ses-01_part-01_label-phase1,3.2.4,MacIntel,60,right,0.753000259,4,0,4,0,1,3,1,0,240,102,1,239,,,,,,,,,,,,,,,,,,
,,0,37,,,,,,,3,2,3,stim/23.jpeg,Instruments,1,stim/objects/Instruments/harp2.png,0.9,4,0.2,-0.15,left,66,2021-03-31_14h02.35.706,premup-three_ses-01_part-01_label-phase1,3.2.4,MacIntel,60,right,0.453999996,4,0,4,0,1,3,1,0,240,222,1,239,,,,,,,,,,,,,,,,,,
,,1,38,,,,,,,3,2,3,stim/23.jpeg,Instruments,1,stim/objects/Instruments/harp2.png,0.9,2,0.2,0.15,left,66,2021-03-31_14h02.35.706,premup-three_ses-01_part-01_label-phase1,3.2.4,MacIntel,60,left,0.572000265,4,0,4,0,1,3,1,0,240,218,1,239,,,,,,,,,,,,,,,,,,
,,1,39,,,,,,,3,2,1,stim/21.jpeg,Instruments,1,stim/objects/Instruments/guitarcase2.png,0.9,1,-0.2,0.15,left,66,2021-03-31_14h02.35.706,premup-three_ses-01_part-01_label-phase1,3.2.4,MacIntel,60,left,0.698000193,4,0,4,0,1,3,1,0,240,220,1,239,,,,,,,,,,,,,,,,,,
,,1,40,,,,,,,3,2,1,stim/21.jpeg,Instruments,1,stim/objects/Instruments/guitarcase2.png,0.9,1,-0.2,0.15,left,66,2021-03-31_14h02.35.706,premup-three_ses-01_part-01_label-phase1,3.2.4,MacIntel,60,left,0.503000259,4,0,4,0,1,3,1,0,240,216,1,239,,,,,,,,,,,,,,,,,,
,,0,41,,,,,,,2,6,3,stim/63.jpeg,Instruments,1,stim/objects/Instruments/electricguitar2.png,0.7,1,-0.2,0.15,left,66,2021-03-31_14h02.35.706,premup-three_ses-01_part-01_label-phase1,3.2.4,MacIntel,60,right,0.789000273,4,0,4,0,1,3,1,0,240,126,1,239,,,,,,,,,,,,,,,,,,
,,1,42,,,,,,,3,2,2,stim/22.jpeg,Instruments,1,stim/objects/Instruments/harmonica2.png,0.9,3,-0.2,-0.15,left,66,2021-03-31_14h02.35.706,premup-three_ses-01_part-01_label-phase1,3.2.4,MacIntel,60,left,0.944000244,4,0,4,0,1,3,1,0,240,217,1,239,,,,,,,,,,,,,,,,,,
,,0,43,,,,,,,1,4,1,stim/41.jpeg,HouseObjects,2,stim/objects/HouseObjects/dustpan.png,0.5,4,0.2,-0.15,right,66,2021-03-31_14h02.35.706,premup-three_ses-01_part-01_label-phase1,3.2.4,MacIntel,60,left,1.622000217,4,0,4,0,1,3,1,0,240,76,1,239,,,,,,,,,,,,,,,,,,
,,0,44,,,,,,,2,6,4,stim/64.jpeg,HouseObjects,2,stim/objects/HouseObjects/doormat2.png,0.3,4,0.2,-0.15,right,66,2021-03-31_14h02.35.706,premup-three_ses-01_part-01_label-phase1,3.2.4,MacIntel,60,left,0.667000055,4,0,4,0,1,3,1,0,240,151,1,239,,,,,,,,,,,,,,,,,,
,,1,45,,,,,,,1,3,4,stim/34.jpeg,HouseObjects,2,stim/objects/HouseObjects/doormat.png,0.5,3,-0.2,-0.15,right,66,2021-03-31_14h02.35.706,premup-three_ses-01_part-01_label-phase1,3.2.4,MacIntel,60,right,1.003000021,4,0,4,0,1,3,1,0,240,39,1,239,,,,,,,,,,,,,,,,,,
,,1,46,,,,,,,3,1,4,stim/14.jpeg,HouseObjects,2,stim/objects/HouseObjects/glass2.png,0.9,3,-0.2,-0.15,right,66,2021-03-31_14h02.35.706,premup-three_ses-01_part-01_label-phase1,3.2.4,MacIntel,60,right,1.403000116,4,0,4,0,1,3,1,0,240,179,1,239,,,,,,,,,,,,,,,,,,
,,0,47,,,,,,,2,6,3,stim/63.jpeg,HouseObjects,2,stim/objects/HouseObjects/dishsoap2.png,0.3,4,0.2,-0.15,right,66,2021-03-31_14h02.35.706,premup-three_ses-01_part-01_label-phase1,3.2.4,MacIntel,60,left,1.344000101,4,0,4,0,1,3,1,0,240,150,1,239,,,,,,,,,,,,,,,,,,
,,1,48,,,,,,,2,5,4,stim/54.jpeg,HouseObjects,2,stim/objects/HouseObjects/handvacuum.png,0.7,2,0.2,0.15,right,66,2021-03-31_14h02.35.706,premup-three_ses-01_part-01_label-phase1,3.2.4,MacIntel,60,right,0.826000214,4,0,4,0,1,3,1,0,240,107,1,239,,,,,,,,,,,,,,,,,,
,,1,49,,,,,,,3,2,3,stim/23.jpeg,Instruments,1,stim/objects/Instruments/harp2.png,0.9,3,-0.2,-0.15,left,66,2021-03-31_14h02.35.706,premup-three_ses-01_part-01_label-phase1,3.2.4,MacIntel,60,left,0.823000193,4,0,4,0,1,3,1,0,240,202,1,239,,,,,,,,,,,,,,,,,,
,,0,50,,,,,,,1,4,1,stim/41.jpeg,Instruments,1,stim/objects/Instruments/flutetrans.png,0.5,2,0.2,0.15,left,66,2021-03-31_14h02.35.706,premup-three_ses-01_part-01_label-phase1,3.2.4,MacIntel,60,right,1.054000139,4,0,4,0,1,3,1,0,240,52,1,239,,,,,,,,,,,,,,,,,,
,,0,51,,,,,,,2,5,4,stim/54.jpeg,Instruments,1,stim/objects/Instruments/hihat.png,0.3,2,0.2,0.15,left,66,2021-03-31_14h02.35.706,premup-three_ses-01_part-01_label-phase1,3.2.4,MacIntel,60,right,0.822000265,4,0,4,0,1,3,1,0,240,91,1,239,,,,,,,,,,,,,,,,,,
,,1,52,,,,,,,3,1,2,stim/12.jpeg,HouseObjects,2,stim/objects/HouseObjects/flyswatter2.png,0.9,1,-0.2,0.15,right,66,2021-03-31_14h02.35.706,premup-three_ses-01_part-01_label-phase1,3.2.4,MacIntel,60,right,0.940999985,4,0,4,0,1,3,1,0,240,169,1,239,,,,,,,,,,,,,,,,,,
,,0,53,,,,,,,1,4,1,stim/41.jpeg,HouseObjects,2,stim/objects/HouseObjects/dustpan.png,0.5,4,0.2,-0.15,right,66,2021-03-31_14h02.35.706,premup-three_ses-01_part-01_label-phase1,3.2.4,MacIntel,60,left,0.605000019,4,0,4,0,1,3,1,0,240,64,1,239,,,,,,,,,,,,,,,,,,
,,1,54,,,,,,,2,5,2,stim/52.jpeg,HouseObjects,2,stim/objects/HouseObjects/hairdryer.png,0.7,2,0.2,0.15,right,66,2021-03-31_14h02.35.706,premup-three_ses-01_part-01_label-phase1,3.2.4,MacIntel,60,right,0.775000334,4,0,4,0,1,3,1,0,240,105,1,239,,,,,,,,,,,,,,,,,,
,,1,55,,,,,,,2,6,1,stim/61.jpeg,Instruments,1,stim/objects/Instruments/drums2.png,0.7,1,-0.2,0.15,left,66,2021-03-31_14h02.35.706,premup-three_ses-01_part-01_label-phase1,3.2.4,MacIntel,60,left,1.289999962,4,0,4,0,1,3,1,0,240,128,1,239,,,,,,,,,,,,,,,,,,
,,1,56,,,,,,,3,1,1,stim/11.jpeg,HouseObjects,2,stim/objects/HouseObjects/dustpan2.png,0.9,2,0.2,0.15,right,66,2021-03-31_14h02.35.706,premup-three_ses-01_part-01_label-phase1,3.2.4,MacIntel,60,right,1.372000217,4,0,4,0,1,3,1,0,240,172,1,239,,,,,,,,,,,,,,,,,,
,,1,57,,,,,,,1,3,2,stim/32.jpeg,HouseObjects,2,stim/objects/HouseObjects/cushion.png,0.5,1,-0.2,0.15,right,66,2021-03-31_14h02.35.706,premup-three_ses-01_part-01_label-phase1,3.2.4,MacIntel,60,right,1.003000021,4,0,4,0,1,3,1,0,240,21,1,239,,,,,,,,,,,,,,,,,,
,,0,58,,,,,,,1,4,2,stim/42.jpeg,Instruments,1,stim/objects/Instruments/frenchhorn.png,0.5,4,0.2,-0.15,left,66,2021-03-31_14h02.35.706,premup-three_ses-01_part-01_label-phase1,3.2.4,MacIntel,60,right,1.00600028,4,0,4,0,1,3,1,0,240,57,1,239,,,,,,,,,,,,,,,,,,
,,0,59,,,,,,,1,3,3,stim/33.jpeg,Instruments,1,stim/objects/Instruments/electricguitar.png,0.5,4,0.2,-0.15,left,66,2021-03-31_14h02.35.706,premup-three_ses-01_part-01_label-phase1,3.2.4,MacIntel,60,right,0.976000071,4,0,4,0,1,3,1,0,240,14,1,239,,,,,,,,,,,,,,,,,,
,,1,60,,,,,,,1,3,4,stim/34.jpeg,HouseObjects,2,stim/objects/HouseObjects/doormat.png,0.5,1,-0.2,0.15,right,66,2021-03-31_14h02.35.706,premup-three_ses-01_part-01_label-phase1,3.2.4,MacIntel,60,right,0.974000216,4,0,4,0,1,3,1,0,240,27,1,239,,,,,,,,,,,,,,,,,,
,,1,61,,,,,,,2,6,1,stim/61.jpeg,Instruments,1,stim/objects/Instruments/drums2.png,0.7,1,-0.2,0.15,left,66,2021-03-31_14h02.35.706,premup-three_ses-01_part-01_label-phase1,3.2.4,MacIntel,60,left,0.820000172,4,0,4,0,1,3,1,0,240,136,1,239,,,,,,,,,,,,,,,,,,
,,1,62,,,,,,,3,1,1,stim/11.jpeg,HouseObjects,2,stim/objects/HouseObjects/dustpan2.png,0.9,4,0.2,-0.15,right,66,2021-03-31_14h02.35.706,premup-three_ses-01_part-01_label-phase1,3.2.4,MacIntel,60,right,1.055999994,4,0,4,0,1,3,1,0,240,180,1,239,,,,,,,,,,,,,,,,,,
,,1,63,,,,,,,3,1,1,stim/11.jpeg,HouseObjects,2,stim/objects/HouseObjects/dustpan2.png,0.9,1,-0.2,0.15,right,66,2021-03-31_14h02.35.706,premup-three_ses-01_part-01_label-phase1,3.2.4,MacIntel,60,right,0.819000006,4,0,4,0,1,3,1,0,240,164,1,239,,,,,,,,,,,,,,,,,,
,,0,64,,,,,,,1,3,4,stim/34.jpeg,Instruments,1,stim/objects/Instruments/flute.png,0.5,3,-0.2,-0.15,left,66,2021-03-31_14h02.35.706,premup-three_ses-01_part-01_label-phase1,3.2.4,MacIntel,60,right,0.871000051,4,0,4,0,1,3,1,0,240,15,1,239,,,,,,,,,,,,,,,,,,
,,1,65,,,,,,,3,2,4,stim/24.jpeg,Instruments,1,stim/objects/Instruments/hihat2.png,0.9,4,0.2,-0.15,left,66,2021-03-31_14h02.35.706,premup-three_ses-01_part-01_label-phase1,3.2.4,MacIntel,60,left,0.785000086,4,0,4,0,1,3,1,0,240,207,1,239,,,,,,,,,,,,,,,,,,
,,1,66,,,,,,,2,6,1,stim/61.jpeg,Instruments,1,stim/objects/Instruments/drums2.png,0.7,4,0.2,-0.15,left,66,2021-03-31_14h02.35.706,premup-three_ses-01_part-01_label-phase1,3.2.4,MacIntel,60,left,0.737000227,4,0,4,0,1,3,1,0,240,140,1,239,,,,,,,,,,,,,,,,,,
,,1,67,,,,,,,1,4,2,stim/42.jpeg,HouseObjects,2,stim/objects/HouseObjects/flyswatter.png,0.5,4,0.2,-0.15,right,66,2021-03-31_14h02.35.706,premup-three_ses-01_part-01_label-phase1,3.2.4,MacIntel,60,right,0.778000116,4,0,4,0,1,3,1,0,240,65,1,239,,,,,,,,,,,,,,,,,,
,,0,68,,,,,,,3,1,3,stim/13.jpeg,HouseObjects,2,stim/objects/HouseObjects/garbagebin2.png,0.9,2,0.2,0.15,right,66,2021-03-31_14h02.35.706,premup-three_ses-01_part-01_label-phase1,3.2.4,MacIntel,60,left,0.806000233,4,0,4,0,1,3,1,0,240,178,1,239,,,,,,,,,,,,,,,,,,
,,0,69,,,,,,,1,4,1,stim/41.jpeg,HouseObjects,2,stim/objects/HouseObjects/dustpan.png,0.5,4,0.2,-0.15,right,66,2021-03-31_14h02.35.706,premup-three_ses-01_part-01_label-phase1,3.2.4,MacIntel,60,left,1.721000195,4,0,4,0,1,3,1,0,240,68,1,239,,,,,,,,,,,,,,,,,,
,,1,70,,,,,,,3,1,4,stim/14.jpeg,HouseObjects,2,stim/objects/HouseObjects/glass2.png,0.9,1,-0.2,0.15,right,66,2021-03-31_14h02.35.706,premup-three_ses-01_part-01_label-phase1,3.2.4,MacIntel,60,right,0.804000378,4,0,4,0,1,3,1,0,240,183,1,239,,,,,,,,,,,,,,,,,,
,,0,71,,,,,,,1,4,2,stim/42.jpeg,Instruments,1,stim/objects/Instruments/frenchhorn.png,0.5,3,-0.2,-0.15,left,66,2021-03-31_14h02.35.706,premup-three_ses-01_part-01_label-phase1,3.2.4,MacIntel,60,right,0.822999954,4,0,4,0,1,3,1,0,240,53,1,239,,,,,,,,,,,,,,,,,,
,,0,72,,,,,,,2,5,3,stim/53.jpeg,Instruments,1,stim/objects/Instruments/harp.png,0.3,1,-0.2,0.15,left,66,2021-03-31_14h02.35.706,premup-three_ses-01_part-01_label-phase1,3.2.4,MacIntel,60,right,0.782999992,4,0,4,0,1,3,1,0,240,90,1,239,,,,,,,,,,,,,,,,,,
,,0,73,,,,,,,2,5,2,stim/52.jpeg,Instruments,1,stim/objects/Instruments/harmonica.png,0.3,1,-0.2,0.15,left,66,2021-03-31_14h02.35.706,premup-three_ses-01_part-01_label-phase1,3.2.4,MacIntel,60,right,0.772000074,4,0,4,0,1,3,1,0,240,89,1,239,,,,,,,,,,,,,,,,,,
,,1,74,,,,,,,1,4,3,stim/43.jpeg,HouseObjects,2,stim/objects/HouseObjects/garbagebin.png,0.5,1,-0.2,0.15,right,66,2021-03-31_14h02.35.706,premup-three_ses-01_part-01_label-phase1,3.2.4,MacIntel,60,right,1.072000265,4,0,4,0,1,3,1,0,240,78,1,239,,,,,,,,,,,,,,,,,,
,,1,75,,,,,,,3,1,2,stim/12.jpeg,HouseObjects,2,stim/objects/HouseObjects/flyswatter2.png,0.9,4,0.2,-0.15,right,66,2021-03-31_14h02.35.706,premup-three_ses-01_part-01_label-phase1,3.2.4,MacIntel,60,right,1.141000271,4,0,4,0,1,3,1,0,240,181,1,239,,,,,,,,,,,,,,,,,,
,,1,76,,,,,,,2,5,1,stim/51.jpeg,HouseObjects,2,stim/objects/HouseObjects/glassmop.png,0.7,3,-0.2,-0.15,right,66,2021-03-31_14h02.35.706,premup-three_ses-01_part-01_label-phase1,3.2.4,MacIntel,60,right,0.882000208,4,0,4,0,1,3,1,0,240,96,1,239,,,,,,,,,,,,,,,,,,
,,1,77,,,,,,,1,4,3,stim/43.jpeg,HouseObjects,2,stim/objects/HouseObjects/garbagebin.png,0.5,1,-0.2,0.15,right,66,2021-03-31_14h02.35.706,premup-three_ses-01_part-01_label-phase1,3.2.4,MacIntel,60,right,0.839000225,4,0,4,0,1,3,1,0,240,70,1,239,,,,,,,,,,,,,,,,,,
,,1,78,,,,,,,3,2,2,stim/22.jpeg,Instruments,1,stim/objects/Instruments/harmonica2.png,0.9,4,0.2,-0.15,left,66,2021-03-31_14h02.35.706,premup-three_ses-01_part-01_label-phase1,3.2.4,MacIntel,60,left,1.392000198,4,0,4,0,1,3,1,0,240,225,1,239,,,,,,,,,,,,,,,,,,
,,1,79,,,,,,,3,2,4,stim/24.jpeg,Instruments,1,stim/objects/Instruments/hihat2.png,0.9,1,-0.2,0.15,left,66,2021-03-31_14h02.35.706,premup-three_ses-01_part-01_label-phase1,3.2.4,MacIntel,60,left,0.527000189,4,0,4,0,1,3,1,0,240,219,1,239,,,,,,,,,,,,,,,,,,
,,0,80,,,,,,,1,4,4,stim/44.jpeg,Instruments,1,stim/objects/Instruments/grandpiano.png,0.5,3,-0.2,-0.15,left,66,2021-03-31_14h02.35.706,premup-three_ses-01_part-01_label-phase1,3.2.4,MacIntel,60,right,0.909000158,4,0,4,0,1,3,1,0,240,43,1,239,,,,,,,,,,,,,,,,,,
,,1,81,,,,,,,1,4,1,stim/41.jpeg,HouseObjects,2,stim/objects/HouseObjects/dustpan.png,0.5,1,-0.2,0.15,right,66,2021-03-31_14h02.35.706,premup-three_ses-01_part-01_label-phase1,3.2.4,MacIntel,60,right,1.144999981,4,0,4,0,1,3,1,0,240,60,1,239,,,,,,,,,,,,,,,,,,
,,1,82,,,,,,,3,2,1,stim/21.jpeg,Instruments,1,stim/objects/Instruments/guitarcase2.png,0.9,2,0.2,0.15,left,66,2021-03-31_14h02.35.706,premup-three_ses-01_part-01_label-phase1,3.2.4,MacIntel,60,left,0.645000219,4,0,4,0,1,3,1,0,240,224,1,239,,,,,,,,,,,,,,,,,,
,,1,83,,,,,,,1,3,1,stim/31.jpeg,HouseObjects,2,stim/objects/HouseObjects/coffee.png,0.5,1,-0.2,0.15,right,66,2021-03-31_14h02.35.706,premup-three_ses-01_part-01_label-phase1,3.2.4,MacIntel,60,right,0.738000154,4,0,4,0,1,3,1,0,240,32,1,239,,,,,,,,,,,,,,,,,,
,,0,84,,,,,,,1,4,2,stim/42.jpeg,HouseObjects,2,stim/objects/HouseObjects/flyswatter.png,0.5,2,0.2,0.15,right,66,2021-03-31_14h02.35.706,premup-three_ses-01_part-01_label-phase1,3.2.4,MacIntel,60,left,1.238000154,4,0,4,0,1,3,1,0,240,73,1,239,,,,,,,,,,,,,,,,,,
,,1,85,,,,,,,1,4,4,stim/44.jpeg,HouseObjects,2,stim/objects/HouseObjects/glass.png,0.5,2,0.2,0.15,right,66,2021-03-31_14h02.35.706,premup-three_ses-01_part-01_label-phase1,3.2.4,MacIntel,60,right,0.976000309,4,0,4,0,1,3,1,0,240,67,1,239,,,,,,,,,,,,,,,,,,
,,1,86,,,,,,,2,6,4,stim/64.jpeg,Instruments,1,stim/objects/Instruments/flute2.png,0.7,4,0.2,-0.15,left,66,2021-03-31_14h02.35.706,premup-three_ses-01_part-01_label-phase1,3.2.4,MacIntel,60,left,0.853000164,4,0,4,0,1,3,1,0,240,127,1,239,,,,,,,,,,,,,,,,,,
,,1,87,,,,,,,3,1,3,stim/13.jpeg,HouseObjects,2,stim/objects/HouseObjects/garbagebin2.png,0.9,3,-0.2,-0.15,right,66,2021-03-31_14h02.35.706,premup-three_ses-01_part-01_label-phase1,3.2.4,MacIntel,60,right,0.870000362,4,0,4,0,1,3,1,0,240,170,1,239,,,,,,,,,,,,,,,,,,
,,1,88,,,,,,,2,6,3,stim/63.jpeg,Instruments,1,stim/objects/Instruments/electricguitar2.png,0.7,2,0.2,0.15,left,66,2021-03-31_14h02.35.706,premup-three_ses-01_part-01_label-phase1,3.2.4,MacIntel,60,left,0.517000198,4,0,4,0,1,3,1,0,240,130,1,239,,,,,,,,,,,,,,,,,,
,,1,89,,,,,,,3,2,1,stim/21.jpeg,Instruments,1,stim/objects/Instruments/guitarcase2.png,0.9,2,0.2,0.15,left,66,2021-03-31_14h02.35.706,premup-three_ses-01_part-01_label-phase1,3.2.4,MacIntel,60,left,0.741000175,4,0,4,0,1,3,1,0,240,212,1,239,,,,,,,,,,,,,,,,,,
,,1,90,,,,,,,3,2,2,stim/22.jpeg,Instruments,1,stim/objects/Instruments/harmonica2.png,0.9,3,-0.2,-0.15,left,66,2021-03-31_14h02.35.706,premup-three_ses-01_part-01_label-phase1,3.2.4,MacIntel,60,left,0.529000044,4,0,4,0,1,3,1,0,240,213,1,239,,,,,,,,,,,,,,,,,,
,,1,91,,,,,,,2,5,3,stim/53.jpeg,HouseObjects,2,stim/objects/HouseObjects/handbrush.png,0.7,3,-0.2,-0.15,right,66,2021-03-31_14h02.35.706,premup-three_ses-01_part-01_label-phase1,3.2.4,MacIntel,60,right,0.875,4,0,4,0,1,3,1,0,240,94,1,239,,,,,,,,,,,,,,,,,,
,,1,92,,,,,,,2,5,3,stim/53.jpeg,HouseObjects,2,stim/objects/HouseObjects/handbrush.png,0.7,2,0.2,0.15,right,66,2021-03-31_14h02.35.706,premup-three_ses-01_part-01_label-phase1,3.2.4,MacIntel,60,right,0.451000214,4,0,4,0,1,3,1,0,240,98,1,239,,,,,,,,,,,,,,,,,,
,,1,93,,,,,,,1,4,3,stim/43.jpeg,HouseObjects,2,stim/objects/HouseObjects/garbagebin.png,0.5,4,0.2,-0.15,right,66,2021-03-31_14h02.35.706,premup-three_ses-01_part-01_label-phase1,3.2.4,MacIntel,60,right,1.170000076,4,0,4,0,1,3,1,0,240,62,1,239,,,,,,,,,,,,,,,,,,
,,0,94,,,,,,,2,5,2,stim/52.jpeg,Instruments,1,stim/objects/Instruments/harmonica.png,0.3,2,0.2,0.15,left,66,2021-03-31_14h02.35.706,premup-three_ses-01_part-01_label-phase1,3.2.4,MacIntel,60,right,0.675000191,4,0,4,0,1,3,1,0,240,85,1,239,,,,,,,,,,,,,,,,,,
,,1,95,,,,,,,3,1,3,stim/13.jpeg,HouseObjects,2,stim/objects/HouseObjects/garbagebin2.png,0.9,1,-0.2,0.15,right,66,2021-03-31_14h02.35.706,premup-three_ses-01_part-01_label-phase1,3.2.4,MacIntel,60,right,0.788000107,4,0,4,0,1,3,1,0,240,194,1,239,,,,,,,,,,,,,,,,,,
,,1,96,,,,,,,2,5,2,stim/52.jpeg,HouseObjects,2,stim/objects/HouseObjects/hairdryer.png,0.7,4,0.2,-0.15,right,66,2021-03-31_14h02.35.706,premup-three_ses-01_part-01_label-phase1,3.2.4,MacIntel,60,right,0.786000252,4,0,4,0,1,3,1,0,240,109,1,239,,,,,,,,,,,,,,,,,,
,,0,97,,,,,,,2,6,4,stim/64.jpeg,HouseObjects,2,stim/objects/HouseObjects/doormat2.png,0.3,2,0.2,0.15,right,66,2021-03-31_14h02.35.706,premup-three_ses-01_part-01_label-phase1,3.2.4,MacIntel,60,left,0.580000162,4,0,4,0,1,3,1,0,240,159,1,239,,,,,,,,,,,,,,,,,,
,,1,98,,,,,,,3,1,3,stim/13.jpeg,HouseObjects,2,stim/objects/HouseObjects/garbagebin2.png,0.9,3,-0.2,-0.15,right,66,2021-03-31_14h02.35.706,premup-three_ses-01_part-01_label-phase1,3.2.4,MacIntel,60,right,0.772000074,4,0,4,0,1,3,1,0,240,186,1,239,,,,,,,,,,,,,,,,,,
,,0,99,,,,,,,2,6,1,stim/61.jpeg,HouseObjects,2,stim/objects/HouseObjects/coffee2.png,0.3,3,-0.2,-0.15,right,66,2021-03-31_14h02.35.706,premup-three_ses-01_part-01_label-phase1,3.2.4,MacIntel,60,left,0.671000242,4,0,4,0,1,3,1,0,240,148,1,239,,,,,,,,,,,,,,,,,,
,,0,100,,,,,,,2,5,3,stim/53.jpeg,Instruments,1,stim/objects/Instruments/harp.png,0.3,4,0.2,-0.15,left,66,2021-03-31_14h02.35.706,premup-three_ses-01_part-01_label-phase1,3.2.4,MacIntel,60,right,0.737000227,4,0,4,0,1,3,1,0,240,86,1,239,,,,,,,,,,,,,,,,,,
,,1,101,,,,,,,1,3,1,stim/31.jpeg,HouseObjects,2,stim/objects/HouseObjects/coffee.png,0.5,2,0.2,0.15,right,66,2021-03-31_14h02.35.706,premup-three_ses-01_part-01_label-phase1,3.2.4,MacIntel,60,right,1.360000372,4,0,4,0,1,3,1,0,240,24,1,239,,,,,,,,,,,,,,,,,,
,,1,102,,,,,,,3,2,4,stim/24.jpeg,Instruments,1,stim/objects/Instruments/hihat2.png,0.9,4,0.2,-0.15,left,66,2021-03-31_14h02.35.706,premup-three_ses-01_part-01_label-phase1,3.2.4,MacIntel,60,left,0.936000109,4,0,4,0,1,3,1,0,240,215,1,239,,,,,,,,,,,,,,,,,,
,,1,103,,,,,,,1,3,3,stim/33.jpeg,HouseObjects,2,stim/objects/HouseObjects/dishsoap.png,0.5,3,-0.2,-0.15,right,66,2021-03-31_14h02.35.706,premup-three_ses-01_part-01_label-phase1,3.2.4,MacIntel,60,right,0.755000353,4,0,4,0,1,3,1,0,240,38,1,239,,,,,,,,,,,,,,,,,,
,,1,104,,,,,,,3,2,2,stim/22.jpeg,Instruments,1,stim/objects/Instruments/harmonica2.png,0.9,4,0.2,-0.15,left,66,2021-03-31_14h02.35.706,premup-three_ses-01_part-01_label-phase1,3.2.4,MacIntel,60,left,0.602000237,4,0,4,0,1,3,1,0,240,209,1,239,,,,,,,,,,,,,,,,,,
,,1,105,,,,,,,3,1,2,stim/12.jpeg,HouseObjects,2,stim/objects/HouseObjects/flyswatter2.png,0.9,2,0.2,0.15,right,66,2021-03-31_14h02.35.706,premup-three_ses-01_part-01_label-phase1,3.2.4,MacIntel,60,right,1.30700016,4,0,4,0,1,3,1,0,240,185,1,239,,,,,,,,,,,,,,,,,,
,,1,106,,,,,,,2,5,3,stim/53.jpeg,HouseObjects,2,stim/objects/HouseObjects/handbrush.png,0.7,3,-0.2,-0.15,right,66,2021-03-31_14h02.35.706,premup-three_ses-01_part-01_label-phase1,3.2.4,MacIntel,60,right,0.92200017,4,0,4,0,1,3,1,0,240,114,1,239,,,,,,,,,,,,,,,,,,
,,1,107,,,,,,,2,5,1,stim/51.jpeg,HouseObjects,2,stim/objects/HouseObjects/glassmop.png,0.7,4,0.2,-0.15,right,66,2021-03-31_14h02.35.706,premup-three_ses-01_part-01_label-phase1,3.2.4,MacIntel,60,right,1.060000181,4,0,4,0,1,3,1,0,240,112,1,239,,,,,,,,,,,,,,,,,,
,,1,108,,,,,,,2,6,4,stim/64.jpeg,Instruments,1,stim/objects/Instruments/flute2.png,0.7,2,0.2,0.15,left,66,2021-03-31_14h02.35.706,premup-three_ses-01_part-01_label-phase1,3.2.4,MacIntel,60,left,1.441000223,4,0,4,0,1,3,1,0,240,131,1,239,,,,,,,,,,,,,,,,,,
,,0,109,,,,,,,1,4,1,stim/41.jpeg,Instruments,1,stim/objects/Instruments/flutetrans.png,0.5,1,-0.2,0.15,left,66,2021-03-31_14h02.35.706,premup-three_ses-01_part-01_label-phase1,3.2.4,MacIntel,60,right,0.804000139,4,0,4,0,1,3,1,0,240,44,1,239,,,,,,,,,,,,,,,,,,
,,1,110,,,,,,,2,5,2,stim/52.jpeg,HouseObjects,2,stim/objects/HouseObjects/hairdryer.png,0.7,2,0.2,0.15,right,66,2021-03-31_14h02.35.706,premup-three_ses-01_part-01_label-phase1,3.2.4,MacIntel,60,right,1.174000263,4,0,4,0,1,3,1,0,240,101,1,239,,,,,,,,,,,,,,,,,,
,,1,111,,,,,,,2,5,3,stim/53.jpeg,HouseObjects,2,stim/objects/HouseObjects/handbrush.png,0.7,3,-0.2,-0.15,right,66,2021-03-31_14h02.35.706,premup-three_ses-01_part-01_label-phase1,3.2.4,MacIntel,60,right,0.794000149,4,0,4,0,1,3,1,0,240,118,1,239,,,,,,,,,,,,,,,,,,
,,0,112,,,,,,,3,1,3,stim/13.jpeg,Instruments,1,stim/objects/Instruments/gong2.png,0.1,2,0.2,0.15,left,66,2021-03-31_14h02.35.706,premup-three_ses-01_part-01_label-phase1,3.2.4,MacIntel,60,right,0.804000139,4,0,4,0,1,3,1,0,240,162,1,239,,,,,,,,,,,,,,,,,,
,,0,113,,,,,,,1,4,2,stim/42.jpeg,Instruments,1,stim/objects/Instruments/frenchhorn.png,0.5,2,0.2,0.15,left,66,2021-03-31_14h02.35.706,premup-three_ses-01_part-01_label-phase1,3.2.4,MacIntel,60,right,0.823000193,4,0,4,0,1,3,1,0,240,41,1,239,,,,,,,,,,,,,,,,,,
,,0,114,,,,,,,1,4,4,stim/44.jpeg,Instruments,1,stim/objects/Instruments/grandpiano.png,0.5,3,-0.2,-0.15,left,66,2021-03-31_14h02.35.706,premup-three_ses-01_part-01_label-phase1,3.2.4,MacIntel,60,right,0.519000292,4,0,4,0,1,3,1,0,240,51,1,239,,,,,,,,,,,,,,,,,,
,,1,115,,,,,,,1,3,2,stim/32.jpeg,HouseObjects,2,stim/objects/HouseObjects/cushion.png,0.5,3,-0.2,-0.15,right,66,2021-03-31_14h02.35.706,premup-three_ses-01_part-01_label-phase1,3.2.4,MacIntel,60,right,0.805000067,4,0,4,0,1,3,1,0,240,25,1,239,,,,,,,,,,,,,,,,,,
,,0,116,,,,,,,1,4,3,stim/43.jpeg,Instruments,1,stim/objects/Instruments/gong.png,0.5,4,0.2,-0.15,left,66,2021-03-31_14h02.35.706,premup-three_ses-01_part-01_label-phase1,3.2.4,MacIntel,60,right,0.945000172,4,0,4,0,1,3,1,0,240,42,1,239,,,,,,,,,,,,,,,,,,
,,1,117,,,,,,,3,2,4,stim/24.jpeg,Instruments,1,stim/objects/Instruments/hihat2.png,0.9,2,0.2,0.15,left,66,2021-03-31_14h02.35.706,premup-three_ses-01_part-01_label-phase1,3.2.4,MacIntel,60,left,0.659000158,4,0,4,0,1,3,1,0,240,227,1,239,,,,,,,,,,,,,,,,,,
,,1,118,,,,,,,3,1,2,stim/12.jpeg,HouseObjects,2,stim/objects/HouseObjects/flyswatter2.png,0.9,2,0.2,0.15,right,66,2021-03-31_14h02.35.706,premup-three_ses-01_part-01_label-phase1,3.2.4,MacIntel,60,right,0.900000334,4,0,4,0,1,3,1,0,240,173,1,239,,,,,,,,,,,,,,,,,,
,,0,119,,,,,,,1,3,2,stim/32.jpeg,Instruments,1,stim/objects/Instruments/electricdrumset.png,0.5,2,0.2,0.15,left,66,2021-03-31_14h02.35.706,premup-three_ses-01_part-01_label-phase1,3.2.4,MacIntel,60,right,1.053000212,4,0,4,0,1,3,1,0,240,17,1,239,,,,,,,,,,,,,,,,,,
,,1,120,,,,,,,3,2,1,stim/21.jpeg,Instruments,1,stim/objects/Instruments/guitarcase2.png,0.9,1,-0.2,0.15,left,66,2021-03-31_14h02.35.706,premup-three_ses-01_part-01_label-phase1,3.2.4,MacIntel,60,left,0.592000008,4,0,4,0,1,3,1,0,240,200,1,239,,,,,,,,,,,,,,,,,,
,,1,121,,,,,,,1,4,2,stim/42.jpeg,HouseObjects,2,stim/objects/HouseObjects/flyswatter.png,0.5,2,0.2,0.15,right,66,2021-03-31_14h02.35.706,premup-three_ses-01_part-01_label-phase1,3.2.4,MacIntel,60,right,1.003000021,4,0,4,0,1,3,1,0,240,61,1,239,,,,,,,,,,,,,,,,,,
,,1,122,,,,,,,2,6,3,stim/63.jpeg,Instruments,1,stim/objects/Instruments/electricguitar2.png,0.7,2,0.2,0.15,left,66,2021-03-31_14h02.35.706,premup-three_ses-01_part-01_label-phase1,3.2.4,MacIntel,60,left,1.386000156,4,0,4,0,1,3,1,0,240,134,1,239,,,,,,,,,,,,,,,,,,
,,1,123,,,,,,,3,1,3,stim/13.jpeg,HouseObjects,2,stim/objects/HouseObjects/garbagebin2.png,0.9,1,-0.2,0.15,right,66,2021-03-31_14h02.35.706,premup-three_ses-01_part-01_label-phase1,3.2.4,MacIntel,60,right,0.823000193,4,0,4,0,1,3,1,0,240,182,1,239,,,,,,,,,,,,,,,,,,
,,1,124,,,,,,,3,2,2,stim/22.jpeg,Instruments,1,stim/objects/Instruments/harmonica2.png,0.9,4,0.2,-0.15,left,66,2021-03-31_14h02.35.706,premup-three_ses-01_part-01_label-phase1,3.2.4,MacIntel,60,left,0.686000109,4,0,4,0,1,3,1,0,240,233,1,239,,,,,,,,,,,,,,,,,,
,,1,125,,,,,,,2,5,3,stim/53.jpeg,HouseObjects,2,stim/objects/HouseObjects/handbrush.png,0.7,3,-0.2,-0.15,right,66,2021-03-31_14h02.35.706,premup-three_ses-01_part-01_label-phase1,3.2.4,MacIntel,60,right,0.637000322,4,0,4,0,1,3,1,0,240,106,1,239,,,,,,,,,,,,,,,,,,
,,1,126,,,,,,,3,1,4,stim/14.jpeg,HouseObjects,2,stim/objects/HouseObjects/glass2.png,0.9,2,0.2,0.15,right,66,2021-03-31_14h02.35.706,premup-three_ses-01_part-01_label-phase1,3.2.4,MacIntel,60,right,0.870000124,4,0,4,0,1,3,1,0,240,171,1,239,,,,,,,,,,,,,,,,,,
,,1,127,,,,,,,2,6,3,stim/63.jpeg,Instruments,1,stim/objects/Instruments/electricguitar2.png,0.7,3,-0.2,-0.15,left,66,2021-03-31_14h02.35.706,premup-three_ses-01_part-01_label-phase1,3.2.4,MacIntel,60,left,1.105000257,4,0,4,0,1,3,1,0,240,142,1,239,,,,,,,,,,,,,,,,,,
,,1,128,,,,,,,2,5,1,stim/51.jpeg,HouseObjects,2,stim/objects/HouseObjects/glassmop.png,0.7,3,-0.2,-0.15,right,66,2021-03-31_14h02.35.706,premup-three_ses-01_part-01_label-phase1,3.2.4,MacIntel,60,right,0.580000162,4,0,4,0,1,3,1,0,240,116,1,239,,,,,,,,,,,,,,,,,,
