id_acc,key_resp_id.keys,key_resp_id.rt,key_resp_conf.keys,key_resp_conf.rt,assoc_acc,key_resp_assoc.keys,key_resp_assoc.rt,loc_acc,key_resp_loc.keys,key_resp_loc.rt,task_innerloop.thisRepN,task_innerloop.thisTrialN,task_innerloop.thisN,task_innerloop.thisIndex,task_innerloop.ran,task_innerloop.order,context_type,object_cat,PE_level,OvsN,obj_file,scn_file,corr_scn_cat,assoc_file,corr_scn_inst,corr_loc,participant,date,expName,psychopyVersion,OS,frameRate
1,right,1.27699995,2,3.756999969,0,2,5.60800004,0,1,2.847999811,1,0,200,11,1,199,1,2,0.5,1,stim/objects/HouseObjects/scale.png,stim/62.jpeg,6,stim/6.png,2,2,67,2021-04-07_08h04.48.074,premup-three_ses-02_part-03_label-phase3,3.2.4,Win32,60
1,right,2.290999889,,,0,,,0,,,1,0,200,179,1,199,0,2,0,2,stim/objects/Instruments/bassdrum4.png,,0,stim/0.png,0,0,67,2021-04-07_08h04.48.074,premup-three_ses-02_part-03_label-phase3,3.2.4,Win32,60
1,left,1.055999756,4,2.282999754,0,1,7.09499979,0,4,2.937000036,1,0,200,18,1,199,1,2,0.5,1,stim/objects/Instruments/triangle.png,stim/63.jpeg,6,stim/6.png,3,4,67,2021-04-07_08h04.48.074,premup-three_ses-02_part-03_label-phase3,3.2.4,Win32,60
1,left,1.469000101,4,2.451999903,0,3,2.946999788,0,1,4.41899991,1,0,200,15,1,199,1,2,0.5,1,stim/objects/Instruments/speaker.png,stim/64.jpeg,6,stim/6.png,4,1,67,2021-04-07_08h04.48.074,premup-three_ses-02_part-03_label-phase3,3.2.4,Win32,60
1,left,2.409999847,3,2.153000116,0,1,3.462999821,0,3,2.914000034,1,0,200,33,1,199,2,2,0.7,1,stim/objects/Instruments/vuvuzela.png,stim/11.jpeg,1,stim/1.png,1,2,67,2021-04-07_08h04.48.074,premup-three_ses-02_part-03_label-phase3,3.2.4,Win32,60
1,right,1.16899991,,,0,,,0,,,1,0,200,175,1,199,0,2,0,2,stim/objects/Instruments/accordion4.png,,0,stim/0.png,0,0,67,2021-04-07_08h04.48.074,premup-three_ses-02_part-03_label-phase3,3.2.4,Win32,60
1,left,1.309999943,,,0,,,0,,,1,0,200,177,1,199,0,2,0,2,stim/objects/Instruments/balalaika4.png,,0,stim/0.png,0,0,67,2021-04-07_08h04.48.074,premup-three_ses-02_part-03_label-phase3,3.2.4,Win32,60
1,left,1.77699995,,,0,,,0,,,1,0,200,133,1,199,0,2,0,2,stim/objects/Instruments/electricdrumset3.png,,0,stim/0.png,0,0,67,2021-04-07_08h04.48.074,premup-three_ses-02_part-03_label-phase3,3.2.4,Win32,60
1,left,2.349999905,4,1.671000004,0,3,3.019999981,0,2,1.193000078,1,0,200,25,1,199,2,1,0.3,1,stim/objects/HouseObjects/ashtray2.png,stim/12.jpeg,1,stim/1.png,2,2,67,2021-04-07_08h04.48.074,premup-three_ses-02_part-03_label-phase3,3.2.4,Win32,60
1,left,3.253000021,,,0,,,0,,,1,0,200,125,1,199,0,1,0,2,stim/objects/HouseObjects/doormat3.png,,0,stim/0.png,0,0,67,2021-04-07_08h04.48.074,premup-three_ses-02_part-03_label-phase3,3.2.4,Win32,60
1,right,1.823999882,2,4.530999899,0,3,6.196000099,0,2,1.069999933,1,0,200,87,1,199,3,1,0.9,1,stim/objects/HouseObjects/towel2.png,stim/44.jpeg,4,stim/4.png,4,3,67,2021-04-07_08h04.48.074,premup-three_ses-02_part-03_label-phase3,3.2.4,Win32,60
1,right,2.30099988,3,6.386999846,0,1,3.092000008,0,3,1.855000019,1,0,200,61,1,199,3,1,0.1,1,stim/objects/HouseObjects/dustpan2.png,stim/32.jpeg,3,stim/3.png,2,2,67,2021-04-07_08h04.48.074,premup-three_ses-02_part-03_label-phase3,3.2.4,Win32,60
1,right,0.967000008,,,0,,,0,,,1,0,200,192,1,199,0,2,0,2,stim/objects/Instruments/chime4.png,,0,stim/0.png,0,0,67,2021-04-07_08h04.48.074,premup-three_ses-02_part-03_label-phase3,3.2.4,Win32,60
1,right,1.053999901,3,2.763000011,0,4,3.621000051,0,2,3.409999847,1,0,200,17,1,199,1,2,0.5,1,stim/objects/Instruments/timbal.png,stim/62.jpeg,6,stim/6.png,2,4,67,2021-04-07_08h04.48.074,premup-three_ses-02_part-03_label-phase3,3.2.4,Win32,60
1,left,1.78399992,,,0,,,0,,,1,0,200,137,1,199,0,2,0,2,stim/objects/Instruments/frenchhorn3.png,,0,stim/0.png,0,0,67,2021-04-07_08h04.48.074,premup-three_ses-02_part-03_label-phase3,3.2.4,Win32,60
1,right,1.109999895,3,1.624000072,0,2,1.47699976,0,2,1.250999928,1,0,200,24,1,199,2,1,0.3,1,stim/objects/HouseObjects/wateringcan.png,stim/11.jpeg,1,stim/1.png,1,1,67,2021-04-07_08h04.48.074,premup-three_ses-02_part-03_label-phase3,3.2.4,Win32,60
1,right,3.447000027,,,0,,,0,,,1,0,200,195,1,199,0,2,0,2,stim/objects/Instruments/cymbal4.png,,0,stim/0.png,0,0,67,2021-04-07_08h04.48.074,premup-three_ses-02_part-03_label-phase3,3.2.4,Win32,60
1,right,1.265000105,2,1.910000086,0,4,1.911000013,0,3,1.595999956,1,0,200,22,1,199,2,1,0.3,1,stim/objects/HouseObjects/towel.png,stim/13.jpeg,1,stim/1.png,3,1,67,2021-04-07_08h04.48.074,premup-three_ses-02_part-03_label-phase3,3.2.4,Win32,60
1,left,2.055000067,,,0,,,0,,,1,0,200,118,1,199,0,2,0,2,stim/objects/Instruments/clarinet3.png,,0,stim/0.png,0,0,67,2021-04-07_08h04.48.074,premup-three_ses-02_part-03_label-phase3,3.2.4,Win32,60
1,right,0.756999969,,,0,,,0,,,1,0,200,146,1,199,0,1,0,2,stim/objects/HouseObjects/scale3.png,,0,stim/0.png,0,0,67,2021-04-07_08h04.48.074,premup-three_ses-02_part-03_label-phase3,3.2.4,Win32,60
1,right,1.011999846,,,0,,,0,,,1,0,200,145,1,199,0,1,0,2,stim/objects/HouseObjects/saw3.png,,0,stim/0.png,0,0,67,2021-04-07_08h04.48.074,premup-three_ses-02_part-03_label-phase3,3.2.4,Win32,60
1,right,0.869999886,,,0,,,0,,,1,0,200,104,1,199,0,1,0,2,stim/objects/HouseObjects/bleachbottle3.png,,0,stim/0.png,0,0,67,2021-04-07_08h04.48.074,premup-three_ses-02_part-03_label-phase3,3.2.4,Win32,60
1,right,1.017999887,,,0,,,0,,,1,0,200,190,1,199,0,2,0,2,stim/objects/Instruments/bassguitar4.png,,0,stim/0.png,0,0,67,2021-04-07_08h04.48.074,premup-three_ses-02_part-03_label-phase3,3.2.4,Win32,60
1,right,0.825999975,3,2.754999876,0,3,1.389999866,0,1,1.581999779,1,0,200,80,1,199,3,1,0.9,1,stim/objects/HouseObjects/saw2.png,stim/41.jpeg,4,stim/4.png,1,3,67,2021-04-07_08h04.48.074,premup-three_ses-02_part-03_label-phase3,3.2.4,Win32,60
1,right,1.605999947,,,0,,,0,,,1,0,200,139,1,199,0,2,0,2,stim/objects/Instruments/grandpiano3.png,,0,stim/0.png,0,0,67,2021-04-07_08h04.48.074,premup-three_ses-02_part-03_label-phase3,3.2.4,Win32,60
1,right,0.983999968,,,0,,,0,,,1,0,200,132,1,199,0,2,0,2,stim/objects/Instruments/drums3.png,,0,stim/0.png,0,0,67,2021-04-07_08h04.48.074,premup-three_ses-02_part-03_label-phase3,3.2.4,Win32,60
1,right,1.229999781,,,0,,,0,,,1,0,200,166,1,199,0,1,0,2,stim/objects/HouseObjects/ballofstring4.png,,0,stim/0.png,0,0,67,2021-04-07_08h04.48.074,premup-three_ses-02_part-03_label-phase3,3.2.4,Win32,60
1,left,2.099999905,,,0,,,0,,,1,0,200,187,1,199,0,1,0,2,stim/objects/HouseObjects/coffee4.png,,0,stim/0.png,0,0,67,2021-04-07_08h04.48.074,premup-three_ses-02_part-03_label-phase3,3.2.4,Win32,60
1,right,0.727999926,3,3.325999975,0,1,1.074999809,0,2,1.740999937,1,0,200,14,1,199,1,2,0.5,1,stim/objects/HouseObjects/teapot.png,stim/61.jpeg,6,stim/6.png,1,1,67,2021-04-07_08h04.48.074,premup-three_ses-02_part-03_label-phase3,3.2.4,Win32,60
1,left,1.776000023,,,0,,,0,,,1,0,200,127,1,199,0,1,0,2,stim/objects/HouseObjects/flyswatter3.png,,0,stim/0.png,0,0,67,2021-04-07_08h04.48.074,premup-three_ses-02_part-03_label-phase3,3.2.4,Win32,60
1,left,1.144999981,4,1.604000092,0,1,2.970999718,0,3,1.750999928,1,0,200,40,1,199,2,1,0.7,1,stim/objects/HouseObjects/blender2.png,stim/24.jpeg,2,stim/2.png,4,3,67,2021-04-07_08h04.48.074,premup-three_ses-02_part-03_label-phase3,3.2.4,Win32,60
1,right,1.980999947,,,0,,,0,,,1,0,200,119,1,199,0,2,0,2,stim/objects/Instruments/cornet3.png,,0,stim/0.png,0,0,67,2021-04-07_08h04.48.074,premup-three_ses-02_part-03_label-phase3,3.2.4,Win32,60
1,right,0.792999744,2,2.515999794,0,4,1.748999834,0,2,1.145999908,1,0,200,94,1,199,3,2,0.1,1,stim/objects/Instruments/trombone2.png,stim/43.jpeg,4,stim/4.png,3,4,67,2021-04-07_08h04.48.074,premup-three_ses-02_part-03_label-phase3,3.2.4,Win32,60
1,right,1.66899991,,,0,,,0,,,1,0,200,107,1,199,0,1,0,2,stim/objects/HouseObjects/broom3.png,,0,stim/0.png,0,0,67,2021-04-07_08h04.48.074,premup-three_ses-02_part-03_label-phase3,3.2.4,Win32,60
1,right,1.611999989,3,3.016999722,0,4,4.684999704,0,1,2.667999744,1,0,200,8,1,199,1,1,0.5,1,stim/objects/Instruments/hihat.png,stim/51.jpeg,5,stim/5.png,1,2,67,2021-04-07_08h04.48.074,premup-three_ses-02_part-03_label-phase3,3.2.4,Win32,60
1,left,2.492999792,3,1.566999912,0,2,1.966999769,0,3,1.961999893,1,0,200,53,1,199,2,2,0.3,1,stim/objects/Instruments/clarinet2.png,stim/21.jpeg,2,stim/2.png,1,1,67,2021-04-07_08h04.48.074,premup-three_ses-02_part-03_label-phase3,3.2.4,Win32,60
1,right,1.23300004,2,3.465999842,0,4,1.648999929,0,1,1.166999817,1,0,200,35,1,199,2,2,0.7,1,stim/objects/Instruments/accordion2.png,stim/13.jpeg,1,stim/1.png,3,2,67,2021-04-07_08h04.48.074,premup-three_ses-02_part-03_label-phase3,3.2.4,Win32,60
1,left,1.57799983,3,1.253000021,0,3,1.635999918,0,1,1.794999838,1,0,200,50,1,199,2,2,0.3,1,stim/objects/Instruments/bassguitar2.png,stim/22.jpeg,2,stim/2.png,2,4,67,2021-04-07_08h04.48.074,premup-three_ses-02_part-03_label-phase3,3.2.4,Win32,60
1,left,2.738999844,3,1.279000044,0,2,2.316999912,0,1,1.471999884,1,0,200,68,1,199,3,1,0.1,1,stim/objects/HouseObjects/handvacuum2.png,stim/31.jpeg,3,stim/3.png,1,2,67,2021-04-07_08h04.48.074,premup-three_ses-02_part-03_label-phase3,3.2.4,Win32,60
1,right,1.335999966,2,2.730000019,0,3,1.664999962,0,4,3.220999956,1,0,200,23,1,199,2,1,0.3,1,stim/objects/HouseObjects/vacuumcleaner.png,stim/14.jpeg,1,stim/1.png,4,1,67,2021-04-07_08h04.48.074,premup-three_ses-02_part-03_label-phase3,3.2.4,Win32,60
1,left,4.232000113,4,1.332000017,0,2,2.302000046,0,4,1.575999737,1,0,200,85,1,199,3,1,0.9,1,stim/objects/HouseObjects/thermometer2.png,stim/42.jpeg,4,stim/4.png,2,1,67,2021-04-07_08h04.48.074,premup-three_ses-02_part-03_label-phase3,3.2.4,Win32,60
1,left,1.391000032,4,1.119999886,0,1,1.736000061,0,4,3.404000044,1,0,200,82,1,199,3,1,0.9,1,stim/objects/HouseObjects/sponge2.png,stim/43.jpeg,4,stim/4.png,3,4,67,2021-04-07_08h04.48.074,premup-three_ses-02_part-03_label-phase3,3.2.4,Win32,60
1,left,2.603999853,4,1.100999832,0,3,5.477999926,0,1,0.746999741,1,0,200,54,1,199,2,2,0.3,1,stim/objects/Instruments/cornet2.png,stim/22.jpeg,2,stim/2.png,2,4,67,2021-04-07_08h04.48.074,premup-three_ses-02_part-03_label-phase3,3.2.4,Win32,60
1,left,1.420999765,,,0,,,0,,,1,0,200,165,1,199,0,1,0,2,stim/objects/HouseObjects/ashtray4.png,,0,stim/0.png,0,0,67,2021-04-07_08h04.48.074,premup-three_ses-02_part-03_label-phase3,3.2.4,Win32,60
1,left,0.953000069,4,1.138999939,0,3,1.757999897,0,2,1.529999971,1,0,200,67,1,199,3,1,0.1,1,stim/objects/HouseObjects/handbrush2.png,stim/34.jpeg,3,stim/3.png,4,3,67,2021-04-07_08h04.48.074,premup-three_ses-02_part-03_label-phase3,3.2.4,Win32,60
1,left,2.578999996,3,1.075999975,0,4,2.665999889,0,2,1.809000015,1,0,200,81,1,199,3,1,0.9,1,stim/objects/HouseObjects/scale2.png,stim/42.jpeg,4,stim/4.png,2,4,67,2021-04-07_08h04.48.074,premup-three_ses-02_part-03_label-phase3,3.2.4,Win32,60
1,right,1.621999741,,,0,,,0,,,1,0,200,141,1,199,0,1,0,2,stim/objects/HouseObjects/hairdryer3.png,,0,stim/0.png,0,0,67,2021-04-07_08h04.48.074,premup-three_ses-02_part-03_label-phase3,3.2.4,Win32,60
1,right,0.825000048,,,0,,,0,,,1,0,200,157,1,199,0,2,0,2,stim/objects/Instruments/timbal3.png,,0,stim/0.png,0,0,67,2021-04-07_08h04.48.074,premup-three_ses-02_part-03_label-phase3,3.2.4,Win32,60
1,right,1.017999887,3,2.234999895,0,1,1.484999895,0,4,1.659999847,1,0,200,3,1,199,1,1,0.5,1,stim/objects/HouseObjects/handvacuum.png,stim/52.jpeg,5,stim/5.png,2,4,67,2021-04-07_08h04.48.074,premup-three_ses-02_part-03_label-phase3,3.2.4,Win32,60
1,left,3.032000065,4,1.20299983,0,1,2.309999943,0,4,1.579999924,1,0,200,65,1,199,3,1,0.1,1,stim/objects/HouseObjects/glassmop2.png,stim/32.jpeg,3,stim/3.png,2,3,67,2021-04-07_08h04.48.074,premup-three_ses-02_part-03_label-phase3,3.2.4,Win32,60
1,right,1.291999817,3,1.386999846,0,3,1.207000017,0,3,1.29399991,1,0,200,91,1,199,3,2,0.1,1,stim/objects/Instruments/tambourine2.png,stim/44.jpeg,4,stim/4.png,4,4,67,2021-04-07_08h04.48.074,premup-three_ses-02_part-03_label-phase3,3.2.4,Win32,60
1,left,1.953999758,,,0,,,0,,,1,0,200,159,1,199,0,2,0,2,stim/objects/Instruments/trombone3.png,,0,stim/0.png,0,0,67,2021-04-07_08h04.48.074,premup-three_ses-02_part-03_label-phase3,3.2.4,Win32,60
1,right,1.267999887,3,1.730000019,0,1,0.948999882,0,3,2.639999866,1,0,200,39,1,199,2,2,0.7,1,stim/objects/Instruments/bassdrum2.png,stim/13.jpeg,1,stim/1.png,3,1,67,2021-04-07_08h04.48.074,premup-three_ses-02_part-03_label-phase3,3.2.4,Win32,60
1,right,2.184000015,2,2.151000023,0,3,1.99000001,0,3,1.331999779,1,0,200,88,1,199,3,1,0.9,1,stim/objects/HouseObjects/vacuumcleaner2.png,stim/41.jpeg,4,stim/4.png,1,2,67,2021-04-07_08h04.48.074,premup-three_ses-02_part-03_label-phase3,3.2.4,Win32,60
1,left,1.735999823,4,1.072999954,0,4,1.69299984,0,1,1.031999826,1,0,200,51,1,199,2,2,0.3,1,stim/objects/Instruments/cello2.png,stim/23.jpeg,2,stim/2.png,3,3,67,2021-04-07_08h04.48.074,premup-three_ses-02_part-03_label-phase3,3.2.4,Win32,60
1,right,1.835999966,,,0,,,0,,,1,0,200,185,1,199,0,1,0,2,stim/objects/HouseObjects/clothesdryingrack4.png,,0,stim/0.png,0,0,67,2021-04-07_08h04.48.074,premup-three_ses-02_part-03_label-phase3,3.2.4,Win32,60
1,right,0.678999901,4,1.687999964,0,3,2.913999796,0,2,3.223999977,1,0,200,48,1,199,2,1,0.7,1,stim/objects/HouseObjects/cushion2.png,stim/24.jpeg,2,stim/2.png,4,4,67,2021-04-07_08h04.48.074,premup-three_ses-02_part-03_label-phase3,3.2.4,Win32,60
1,right,1.544999838,,,0,,,0,,,1,0,200,168,1,199,0,1,0,2,stim/objects/HouseObjects/basket4.png,,0,stim/0.png,0,0,67,2021-04-07_08h04.48.074,premup-three_ses-02_part-03_label-phase3,3.2.4,Win32,60
1,right,0.830999851,,,0,,,0,,,1,0,200,172,1,199,0,2,0,2,stim/objects/Instruments/violin3.png,,0,stim/0.png,0,0,67,2021-04-07_08h04.48.074,premup-three_ses-02_part-03_label-phase3,3.2.4,Win32,60
1,right,0.653999805,4,2.261999846,0,1,2.378000021,0,2,2.383999825,1,0,200,32,1,199,2,2,0.7,1,stim/objects/Instruments/violin.png,stim/14.jpeg,1,stim/1.png,4,2,67,2021-04-07_08h04.48.074,premup-three_ses-02_part-03_label-phase3,3.2.4,Win32,60
1,left,3.613999844,4,1.079999924,0,1,2.917999744,0,3,1.399999857,1,0,200,57,1,199,2,2,0.3,1,stim/objects/Instruments/drums2.png,stim/21.jpeg,2,stim/2.png,1,3,67,2021-04-07_08h04.48.074,premup-three_ses-02_part-03_label-phase3,3.2.4,Win32,60
1,right,1.804999828,,,0,,,0,,,1,0,200,148,1,199,0,1,0,2,stim/objects/HouseObjects/spraybottle3.png,,0,stim/0.png,0,0,67,2021-04-07_08h04.48.074,premup-three_ses-02_part-03_label-phase3,3.2.4,Win32,60
1,right,0.671999931,4,1.552999973,0,3,1.503000021,0,2,1.475999832,1,0,200,62,1,199,3,1,0.1,1,stim/objects/HouseObjects/flyswatter2.png,stim/33.jpeg,3,stim/3.png,3,3,67,2021-04-07_08h04.48.074,premup-three_ses-02_part-03_label-phase3,3.2.4,Win32,60
1,right,1.253999949,4,1.494999886,0,2,1.566999912,0,4,1.582999945,1,0,200,78,1,199,3,2,0.9,1,stim/objects/Instruments/hihat2.png,stim/33.jpeg,3,stim/3.png,3,3,67,2021-04-07_08h04.48.074,premup-three_ses-02_part-03_label-phase3,3.2.4,Win32,60
1,right,0.947999954,,,0,,,0,,,1,0,200,164,1,199,0,1,0,2,stim/objects/HouseObjects/wateringcan3.png,,0,stim/0.png,0,0,67,2021-04-07_08h04.48.074,premup-three_ses-02_part-03_label-phase3,3.2.4,Win32,60
1,left,2.106999874,,,0,,,0,,,1,0,200,178,1,199,0,2,0,2,stim/objects/Instruments/banjo4.png,,0,stim/0.png,0,0,67,2021-04-07_08h04.48.074,premup-three_ses-02_part-03_label-phase3,3.2.4,Win32,60
1,left,0.983999968,4,0.914000034,0,1,3.666000128,0,4,1.539999962,1,0,200,75,1,199,3,2,0.9,1,stim/objects/Instruments/guitarcase2.png,stim/34.jpeg,3,stim/3.png,4,4,67,2021-04-07_08h04.48.074,premup-three_ses-02_part-03_label-phase3,3.2.4,Win32,60
1,right,1.883999825,3,1.871999979,0,2,3.635999918,0,2,2.384999752,1,0,200,66,1,199,3,1,0.1,1,stim/objects/HouseObjects/hairdryer2.png,stim/33.jpeg,3,stim/3.png,3,3,67,2021-04-07_08h04.48.074,premup-three_ses-02_part-03_label-phase3,3.2.4,Win32,60
1,right,3.197999716,,,0,,,0,,,1,0,200,136,1,199,0,2,0,2,stim/objects/Instruments/flutetrans3.png,,0,stim/0.png,0,0,67,2021-04-07_08h04.48.074,premup-three_ses-02_part-03_label-phase3,3.2.4,Win32,60
1,right,0.713999987,,,0,,,0,,,1,0,200,130,1,199,0,2,0,2,stim/objects/Instruments/cymbal3.png,,0,stim/0.png,0,0,67,2021-04-07_08h04.48.074,premup-three_ses-02_part-03_label-phase3,3.2.4,Win32,60
1,left,1.004999876,,,0,,,0,,,1,0,200,144,1,199,0,1,0,2,stim/objects/HouseObjects/safetypin3.png,,0,stim/0.png,0,0,67,2021-04-07_08h04.48.074,premup-three_ses-02_part-03_label-phase3,3.2.4,Win32,60
1,left,0.946000099,,,0,,,0,,,1,0,200,113,1,199,0,2,0,2,stim/objects/Instruments/banjo3.png,,0,stim/0.png,0,0,67,2021-04-07_08h04.48.074,premup-three_ses-02_part-03_label-phase3,3.2.4,Win32,60
1,left,1.938999891,,,0,,,0,,,1,0,200,102,1,199,0,1,0,2,stim/objects/HouseObjects/barbecuelighter3.png,,0,stim/0.png,0,0,67,2021-04-07_08h04.48.074,premup-three_ses-02_part-03_label-phase3,3.2.4,Win32,60
1,left,1.318000078,4,1.026000023,0,4,2.263000011,0,1,6.338999748,1,0,200,86,1,199,3,1,0.9,1,stim/objects/HouseObjects/thread2.png,stim/43.jpeg,4,stim/4.png,3,3,67,2021-04-07_08h04.48.074,premup-three_ses-02_part-03_label-phase3,3.2.4,Win32,60
1,left,3.335999966,4,1.05099988,0,2,3.011999846,0,1,3.718999863,1,0,200,1,1,199,1,1,0.5,1,stim/objects/HouseObjects/hairdryer.png,stim/54.jpeg,5,stim/5.png,4,3,67,2021-04-07_08h04.48.074,premup-three_ses-02_part-03_label-phase3,3.2.4,Win32,60
1,left,1.164000034,4,1.077000141,0,2,14.86999989,0,3,3.117000103,1,0,200,16,1,199,1,2,0.5,1,stim/objects/Instruments/tambourine.png,stim/61.jpeg,6,stim/6.png,1,2,67,2021-04-07_08h04.48.074,premup-three_ses-02_part-03_label-phase3,3.2.4,Win32,60
1,right,1.582999945,3,2.405999899,0,1,2.573999882,0,3,2.706999779,1,0,200,28,1,199,2,1,0.3,1,stim/objects/HouseObjects/basket2.png,stim/11.jpeg,1,stim/1.png,1,2,67,2021-04-07_08h04.48.074,premup-three_ses-02_part-03_label-phase3,3.2.4,Win32,60
1,right,2.027999878,,,0,,,0,,,1,0,200,171,1,199,0,2,0,2,stim/objects/Instruments/tuba3.png,,0,stim/0.png,0,0,67,2021-04-07_08h04.48.074,premup-three_ses-02_part-03_label-phase3,3.2.4,Win32,60
1,right,1.305000067,,,0,,,0,,,1,0,200,152,1,199,0,2,0,2,stim/objects/Instruments/harp3.png,,0,stim/0.png,0,0,67,2021-04-07_08h04.48.074,premup-three_ses-02_part-03_label-phase3,3.2.4,Win32,60
1,right,1.409999847,,,0,,,0,,,1,0,200,160,1,199,0,1,0,2,stim/objects/HouseObjects/thermometer3.png,,0,stim/0.png,0,0,67,2021-04-07_08h04.48.074,premup-three_ses-02_part-03_label-phase3,3.2.4,Win32,60
1,right,1.065000057,3,2.157999992,0,1,4.503999949,0,3,2.323999882,1,0,200,7,1,199,1,1,0.5,1,stim/objects/Instruments/harp.png,stim/54.jpeg,5,stim/5.png,4,4,67,2021-04-07_08h04.48.074,premup-three_ses-02_part-03_label-phase3,3.2.4,Win32,60
1,right,4.105999947,,,0,,,0,,,1,0,200,184,1,199,0,1,0,2,stim/objects/HouseObjects/clock4.png,,0,stim/0.png,0,0,67,2021-04-07_08h04.48.074,premup-three_ses-02_part-03_label-phase3,3.2.4,Win32,60
1,right,0.819999933,4,1.352999926,0,4,1.398000002,0,1,0.813999891,1,0,200,12,1,199,1,2,0.5,1,stim/objects/HouseObjects/sponge.png,stim/63.jpeg,6,stim/6.png,3,1,67,2021-04-07_08h04.48.074,premup-three_ses-02_part-03_label-phase3,3.2.4,Win32,60
1,right,3.031999826,,,0,,,0,,,1,0,200,134,1,199,0,2,0,2,stim/objects/Instruments/electricguitar3.png,,0,stim/0.png,0,0,67,2021-04-07_08h04.48.074,premup-three_ses-02_part-03_label-phase3,3.2.4,Win32,60
1,right,0.969000101,,,0,,,0,,,1,0,200,186,1,199,0,1,0,2,stim/objects/HouseObjects/clothespin4.png,,0,stim/0.png,0,0,67,2021-04-07_08h04.48.074,premup-three_ses-02_part-03_label-phase3,3.2.4,Win32,60
1,right,1.47699976,,,0,,,0,,,1,0,200,154,1,199,0,2,0,2,stim/objects/Instruments/saxophone3.png,,0,stim/0.png,0,0,67,2021-04-07_08h04.48.074,premup-three_ses-02_part-03_label-phase3,3.2.4,Win32,60
1,left,1.105000019,4,1.07799983,0,3,6.28399992,0,4,2.049999952,1,0,200,45,1,199,2,1,0.7,1,stim/objects/HouseObjects/clothesdryingrack2.png,stim/21.jpeg,2,stim/2.png,1,3,67,2021-04-07_08h04.48.074,premup-three_ses-02_part-03_label-phase3,3.2.4,Win32,60
1,right,1.420000076,,,0,,,0,,,1,0,200,109,1,199,0,1,0,2,stim/objects/HouseObjects/clock3.png,,0,stim/0.png,0,0,67,2021-04-07_08h04.48.074,premup-three_ses-02_part-03_label-phase3,3.2.4,Win32,60
1,left,1.055000067,4,0.784999847,0,3,3.040999889,0,2,1.361000061,1,0,200,98,1,199,3,2,0.1,1,stim/objects/Instruments/vuvuzela2.png,stim/43.jpeg,4,stim/4.png,3,3,67,2021-04-07_08h04.48.074,premup-three_ses-02_part-03_label-phase3,3.2.4,Win32,60
1,right,2.076999903,,,0,,,0,,,1,0,200,182,1,199,0,1,0,2,stim/objects/HouseObjects/broom4.png,,0,stim/0.png,0,0,67,2021-04-07_08h04.48.074,premup-three_ses-02_part-03_label-phase3,3.2.4,Win32,60
1,right,0.777999878,,,0,,,0,,,1,0,200,106,1,199,0,1,0,2,stim/objects/HouseObjects/bottle3.png,,0,stim/0.png,0,0,67,2021-04-07_08h04.48.074,premup-three_ses-02_part-03_label-phase3,3.2.4,Win32,60
1,right,0.941999912,,,0,,,0,,,1,0,200,143,1,199,0,1,0,2,stim/objects/HouseObjects/handvacuum3.png,,0,stim/0.png,0,0,67,2021-04-07_08h04.48.074,premup-three_ses-02_part-03_label-phase3,3.2.4,Win32,60
1,right,1.10199976,4,1.557999849,0,1,1.843999863,0,2,3.927000046,1,0,200,34,1,199,2,2,0.7,1,stim/objects/Instruments/xylophone.png,stim/12.jpeg,1,stim/1.png,2,3,67,2021-04-07_08h04.48.074,premup-three_ses-02_part-03_label-phase3,3.2.4,Win32,60
1,right,0.88499999,2,3.059999943,0,4,2.472999811,0,3,5.267999887,1,0,200,29,1,199,2,1,0.3,1,stim/objects/HouseObjects/bleachbottle2.png,stim/12.jpeg,1,stim/1.png,2,4,67,2021-04-07_08h04.48.074,premup-three_ses-02_part-03_label-phase3,3.2.4,Win32,60
1,right,2.457999945,,,0,,,0,,,1,0,200,115,1,199,0,2,0,2,stim/objects/Instruments/bassguitar3.png,,0,stim/0.png,0,0,67,2021-04-07_08h04.48.074,premup-three_ses-02_part-03_label-phase3,3.2.4,Win32,60
1,right,0.832999945,,,0,,,0,,,1,0,200,100,1,199,0,1,0,2,stim/objects/HouseObjects/ashtray3.png,,0,stim/0.png,0,0,67,2021-04-07_08h04.48.074,premup-three_ses-02_part-03_label-phase3,3.2.4,Win32,60
1,left,2.501999855,4,1.088000059,0,1,2.33100009,0,2,3.779000044,1,0,200,99,1,199,3,2,0.1,1,stim/objects/Instruments/xylophone2.png,stim/44.jpeg,4,stim/4.png,4,2,67,2021-04-07_08h04.48.074,premup-three_ses-02_part-03_label-phase3,3.2.4,Win32,60
1,right,1.938999891,2,1.336999893,0,4,2.178999901,0,4,3.705999851,1,0,200,10,1,199,1,2,0.5,1,stim/objects/HouseObjects/saw.png,stim/61.jpeg,6,stim/6.png,1,2,67,2021-04-07_08h04.48.074,premup-three_ses-02_part-03_label-phase3,3.2.4,Win32,60
1,left,1.875999928,4,0.904000044,0,1,2.265999794,0,2,1.195999861,1,0,200,83,1,199,3,1,0.9,1,stim/objects/HouseObjects/spraybottle2.png,stim/44.jpeg,4,stim/4.png,4,1,67,2021-04-07_08h04.48.074,premup-three_ses-02_part-03_label-phase3,3.2.4,Win32,60
1,left,2.152999878,3,2.16899991,0,2,1.791999817,0,4,1.360999823,1,0,200,93,1,199,3,2,0.1,1,stim/objects/Instruments/triangle2.png,stim/42.jpeg,4,stim/4.png,2,1,67,2021-04-07_08h04.48.074,premup-three_ses-02_part-03_label-phase3,3.2.4,Win32,60
1,left,1.058999777,3,1.449999809,0,4,1.04399991,0,2,1.128000021,1,0,200,30,1,199,2,2,0.7,1,stim/objects/Instruments/trumpet.png,stim/12.jpeg,1,stim/1.png,2,4,67,2021-04-07_08h04.48.074,premup-three_ses-02_part-03_label-phase3,3.2.4,Win32,60
1,right,2.795000076,,,0,,,0,,,1,0,200,161,1,199,0,1,0,2,stim/objects/HouseObjects/thread3.png,,0,stim/0.png,0,0,67,2021-04-07_08h04.48.074,premup-three_ses-02_part-03_label-phase3,3.2.4,Win32,60
1,right,0.690999985,2,2.405999899,0,1,1.625999928,0,4,2.290999889,1,0,200,71,1,199,3,2,0.9,1,stim/objects/Instruments/flutetrans2.png,stim/34.jpeg,3,stim/3.png,4,4,67,2021-04-07_08h04.48.074,premup-three_ses-02_part-03_label-phase3,3.2.4,Win32,60
1,right,1.176000118,4,1.475999832,0,4,4.164999723,0,3,2.167000055,1,0,200,41,1,199,2,1,0.7,1,stim/objects/HouseObjects/bottle2.png,stim/21.jpeg,2,stim/2.png,1,1,67,2021-04-07_08h04.48.074,premup-three_ses-02_part-03_label-phase3,3.2.4,Win32,60
1,right,1.395999908,,,0,,,0,,,1,0,200,101,1,199,0,1,0,2,stim/objects/HouseObjects/ballofstring3.png,,0,stim/0.png,0,0,67,2021-04-07_08h04.48.074,premup-three_ses-02_part-03_label-phase3,3.2.4,Win32,60
1,right,0.95299983,4,2.048000097,0,1,1.743000031,0,1,3.289999962,1,0,200,92,1,199,3,2,0.1,1,stim/objects/Instruments/timbal2.png,stim/41.jpeg,4,stim/4.png,1,1,67,2021-04-07_08h04.48.074,premup-three_ses-02_part-03_label-phase3,3.2.4,Win32,60
1,right,1.305000067,2,4.519999981,0,3,1.956999779,0,2,2.287999868,1,0,200,44,1,199,2,1,0.7,1,stim/objects/HouseObjects/clock2.png,stim/24.jpeg,2,stim/2.png,4,3,67,2021-04-07_08h04.48.074,premup-three_ses-02_part-03_label-phase3,3.2.4,Win32,60
1,right,0.726999998,,,0,,,0,,,1,0,200,188,1,199,0,1,0,2,stim/objects/HouseObjects/cushion4.png,,0,stim/0.png,0,0,67,2021-04-07_08h04.48.074,premup-three_ses-02_part-03_label-phase3,3.2.4,Win32,60
1,left,2.73699975,3,1.203000069,0,4,1.856999874,0,3,1.390000105,1,0,200,97,1,199,3,2,0.1,1,stim/objects/Instruments/violin2.png,stim/42.jpeg,4,stim/4.png,2,2,67,2021-04-07_08h04.48.074,premup-three_ses-02_part-03_label-phase3,3.2.4,Win32,60
1,right,0.786000013,,,0,,,0,,,1,0,200,181,1,199,0,1,0,2,stim/objects/HouseObjects/bottle4.png,,0,stim/0.png,0,0,67,2021-04-07_08h04.48.074,premup-three_ses-02_part-03_label-phase3,3.2.4,Win32,60
1,right,0.802999973,4,1.994999886,0,3,2.789999962,0,1,1.563999891,1,0,200,63,1,199,3,1,0.1,1,stim/objects/HouseObjects/garbagebin2.png,stim/34.jpeg,3,stim/3.png,4,4,67,2021-04-07_08h04.48.074,premup-three_ses-02_part-03_label-phase3,3.2.4,Win32,60
1,right,2.240999937,,,0,,,0,,,1,0,200,149,1,199,0,1,0,2,stim/objects/HouseObjects/teapot3.png,,0,stim/0.png,0,0,67,2021-04-07_08h04.48.074,premup-three_ses-02_part-03_label-phase3,3.2.4,Win32,60
1,right,0.804999828,,,0,,,0,,,1,0,200,167,1,199,0,1,0,2,stim/objects/HouseObjects/barbecuelighter4.png,,0,stim/0.png,0,0,67,2021-04-07_08h04.48.074,premup-three_ses-02_part-03_label-phase3,3.2.4,Win32,60
1,right,0.737999916,,,0,,,0,,,1,0,200,111,1,199,0,2,0,2,stim/objects/Instruments/acousticguitar3.png,,0,stim/0.png,0,0,67,2021-04-07_08h04.48.074,premup-three_ses-02_part-03_label-phase3,3.2.4,Win32,60
1,right,1.816999912,3,4.538999796,0,1,5.454999924,0,2,2.305999994,1,0,200,79,1,199,3,2,0.9,1,stim/objects/Instruments/saxophone2.png,stim/34.jpeg,3,stim/3.png,4,2,67,2021-04-07_08h04.48.074,premup-three_ses-02_part-03_label-phase3,3.2.4,Win32,60
1,right,2.454999924,,,0,,,0,,,1,0,200,151,1,199,0,2,0,2,stim/objects/Instruments/harmonica3.png,,0,stim/0.png,0,0,67,2021-04-07_08h04.48.074,premup-three_ses-02_part-03_label-phase3,3.2.4,Win32,60
1,right,0.736999989,4,2.933000088,0,2,2.450999975,0,4,1.536999702,1,0,200,55,1,199,2,2,0.3,1,stim/objects/Instruments/cymbal2.png,stim/23.jpeg,2,stim/2.png,3,4,67,2021-04-07_08h04.48.074,premup-three_ses-02_part-03_label-phase3,3.2.4,Win32,60
1,right,0.969000101,4,2.549999952,0,2,1.461999893,0,3,1.657999992,1,0,200,69,1,199,3,1,0.1,1,stim/objects/HouseObjects/safetypin2.png,stim/32.jpeg,3,stim/3.png,2,1,67,2021-04-07_08h04.48.074,premup-three_ses-02_part-03_label-phase3,3.2.4,Win32,60
1,right,1.677000046,,,0,,,0,,,1,0,200,129,1,199,0,1,0,2,stim/objects/HouseObjects/glass3.png,,0,stim/0.png,0,0,67,2021-04-07_08h04.48.074,premup-three_ses-02_part-03_label-phase3,3.2.4,Win32,60
1,left,1.912999868,4,1.073999882,0,2,4.726999998,0,2,5.737999916,1,0,200,37,1,199,2,2,0.7,1,stim/objects/Instruments/balalaika2.png,stim/11.jpeg,1,stim/1.png,1,4,67,2021-04-07_08h04.48.074,premup-three_ses-02_part-03_label-phase3,3.2.4,Win32,60
1,right,0.974999905,,,0,,,0,,,1,0,200,163,1,199,0,1,0,2,stim/objects/HouseObjects/vacuumcleaner3.png,,0,stim/0.png,0,0,67,2021-04-07_08h04.48.074,premup-three_ses-02_part-03_label-phase3,3.2.4,Win32,60
1,right,0.984999895,,,0,,,0,,,1,0,200,124,1,199,0,1,0,2,stim/objects/HouseObjects/dishsoap3.png,,0,stim/0.png,0,0,67,2021-04-07_08h04.48.074,premup-three_ses-02_part-03_label-phase3,3.2.4,Win32,60
1,right,0.768999815,,,0,,,0,,,1,0,200,121,1,199,0,1,0,2,stim/objects/HouseObjects/clothespin3.png,,0,stim/0.png,0,0,67,2021-04-07_08h04.48.074,premup-three_ses-02_part-03_label-phase3,3.2.4,Win32,60
1,right,0.769999981,2,2.500999928,0,1,1.495000124,0,3,3.340999842,1,0,200,13,1,199,1,2,0.5,1,stim/objects/HouseObjects/spraybottle.png,stim/64.jpeg,6,stim/6.png,4,3,67,2021-04-07_08h04.48.074,premup-three_ses-02_part-03_label-phase3,3.2.4,Win32,60
1,right,1.626999855,1,15.49299979,0,3,1.927999735,0,2,1.337000132,1,0,200,2,1,199,1,1,0.5,1,stim/objects/HouseObjects/handbrush.png,stim/51.jpeg,5,stim/5.png,1,1,67,2021-04-07_08h04.48.074,premup-three_ses-02_part-03_label-phase3,3.2.4,Win32,60
1,right,1.18599987,4,1.838000059,0,4,1.457999945,0,1,0.807999849,1,0,200,49,1,199,2,1,0.7,1,stim/objects/HouseObjects/dishsoap2.png,stim/21.jpeg,2,stim/2.png,1,4,67,2021-04-07_08h04.48.074,premup-three_ses-02_part-03_label-phase3,3.2.4,Win32,60
1,right,0.878999949,,,0,,,0,,,1,0,200,108,1,199,0,1,0,2,stim/objects/HouseObjects/bucket3.png,,0,stim/0.png,0,0,67,2021-04-07_08h04.48.074,premup-three_ses-02_part-03_label-phase3,3.2.4,Win32,60
1,right,0.750999928,4,1.921999931,0,2,1.81099987,0,1,0.500999928,1,0,200,74,1,199,3,2,0.9,1,stim/objects/Instruments/grandpiano2.png,stim/33.jpeg,3,stim/3.png,3,2,67,2021-04-07_08h04.48.074,premup-three_ses-02_part-03_label-phase3,3.2.4,Win32,60
1,left,1.721999884,4,1.357999802,0,4,2.753999949,0,2,1.576999903,1,0,200,47,1,199,2,1,0.7,1,stim/objects/HouseObjects/coffee2.png,stim/23.jpeg,2,stim/2.png,3,2,67,2021-04-07_08h04.48.074,premup-three_ses-02_part-03_label-phase3,3.2.4,Win32,60
1,right,1.315999985,,,0,,,0,,,1,0,200,199,1,199,0,2,0,2,stim/objects/Instruments/electricguitar4.png,,0,stim/0.png,0,0,67,2021-04-07_08h04.48.074,premup-three_ses-02_part-03_label-phase3,3.2.4,Win32,60
1,right,0.680999994,,,0,,,0,,,1,0,200,170,1,199,0,2,0,2,stim/objects/Instruments/trumpet3.png,,0,stim/0.png,0,0,67,2021-04-07_08h04.48.074,premup-three_ses-02_part-03_label-phase3,3.2.4,Win32,60
1,left,0.917999983,4,1.006000042,0,3,2.49000001,0,3,1.069999695,1,0,200,42,1,199,2,1,0.7,1,stim/objects/HouseObjects/broom2.png,stim/22.jpeg,2,stim/2.png,2,4,67,2021-04-07_08h04.48.074,premup-three_ses-02_part-03_label-phase3,3.2.4,Win32,60
1,right,0.863999844,,,0,,,0,,,1,0,200,197,1,199,0,2,0,2,stim/objects/Instruments/drums4.png,,0,stim/0.png,0,0,67,2021-04-07_08h04.48.074,premup-three_ses-02_part-03_label-phase3,3.2.4,Win32,60
1,right,0.541999817,4,1.724999905,0,1,0.86500001,0,3,2.284999847,1,0,200,96,1,199,3,2,0.1,1,stim/objects/Instruments/tuba2.png,stim/41.jpeg,4,stim/4.png,1,3,67,2021-04-07_08h04.48.074,premup-three_ses-02_part-03_label-phase3,3.2.4,Win32,60
1,right,1.500999928,1,2.056999922,0,2,1.544999838,0,2,1.195999861,1,0,200,58,1,199,2,2,0.3,1,stim/objects/Instruments/electricdrumset2.png,stim/22.jpeg,2,stim/2.png,2,2,67,2021-04-07_08h04.48.074,premup-three_ses-02_part-03_label-phase3,3.2.4,Win32,60
1,right,1.400000095,3,2.244999886,0,3,1.687999964,0,1,0.790999889,1,0,200,38,1,199,2,2,0.7,1,stim/objects/Instruments/banjo2.png,stim/12.jpeg,1,stim/1.png,2,2,67,2021-04-07_08h04.48.074,premup-three_ses-02_part-03_label-phase3,3.2.4,Win32,60
1,right,0.731999874,3,2.15899992,0,1,1.276999712,0,3,1.796999693,1,0,200,19,1,199,1,2,0.5,1,stim/objects/Instruments/trombone.png,stim/64.jpeg,6,stim/6.png,4,1,67,2021-04-07_08h04.48.074,premup-three_ses-02_part-03_label-phase3,3.2.4,Win32,60
1,right,1.312000036,,,0,,,0,,,1,0,200,110,1,199,0,2,0,2,stim/objects/Instruments/accordion3.png,,0,stim/0.png,0,0,67,2021-04-07_08h04.48.074,premup-three_ses-02_part-03_label-phase3,3.2.4,Win32,60
1,right,0.774999857,,,0,,,0,,,1,0,200,173,1,199,0,2,0,2,stim/objects/Instruments/vuvuzela3.png,,0,stim/0.png,0,0,67,2021-04-07_08h04.48.074,premup-three_ses-02_part-03_label-phase3,3.2.4,Win32,60
1,right,0.720000029,,,0,,,0,,,1,0,200,114,1,199,0,2,0,2,stim/objects/Instruments/bassdrum3.png,,0,stim/0.png,0,0,67,2021-04-07_08h04.48.074,premup-three_ses-02_part-03_label-phase3,3.2.4,Win32,60
1,left,1.145999908,4,1.388999939,0,4,1.937999964,0,1,3.694999933,1,0,200,27,1,199,2,1,0.3,1,stim/objects/HouseObjects/barbecuelighter2.png,stim/14.jpeg,1,stim/1.png,4,3,67,2021-04-07_08h04.48.074,premup-three_ses-02_part-03_label-phase3,3.2.4,Win32,60
1,right,2.769999981,4,1.223999739,0,2,1.059999943,0,2,0.802000046,1,0,200,36,1,199,2,2,0.7,1,stim/objects/Instruments/acousticguitar2.png,stim/14.jpeg,1,stim/1.png,4,4,67,2021-04-07_08h04.48.074,premup-three_ses-02_part-03_label-phase3,3.2.4,Win32,60
1,right,0.801000118,,,0,,,0,,,1,0,200,196,1,199,0,2,0,2,stim/objects/Instruments/doublebass4.png,,0,stim/0.png,0,0,67,2021-04-07_08h04.48.074,premup-three_ses-02_part-03_label-phase3,3.2.4,Win32,60
1,right,0.663999796,4,3.056999922,0,1,1.167999983,0,3,1.386999846,1,0,200,26,1,199,2,1,0.3,1,stim/objects/HouseObjects/ballofstring2.png,stim/13.jpeg,1,stim/1.png,3,3,67,2021-04-07_08h04.48.074,premup-three_ses-02_part-03_label-phase3,3.2.4,Win32,60
1,right,0.859999895,4,0.991999865,0,4,1.359999895,0,2,1.017999887,1,0,200,21,1,199,2,1,0.3,1,stim/objects/HouseObjects/thread.png,stim/12.jpeg,1,stim/1.png,2,3,67,2021-04-07_08h04.48.074,premup-three_ses-02_part-03_label-phase3,3.2.4,Win32,60
1,right,0.751999855,,,0,,,0,,,1,0,200,153,1,199,0,2,0,2,stim/objects/Instruments/hihat3.png,,0,stim/0.png,0,0,67,2021-04-07_08h04.48.074,premup-three_ses-02_part-03_label-phase3,3.2.4,Win32,60
1,right,1.414999962,,,0,,,0,,,1,0,200,135,1,199,0,2,0,2,stim/objects/Instruments/flute3.png,,0,stim/0.png,0,0,67,2021-04-07_08h04.48.074,premup-three_ses-02_part-03_label-phase3,3.2.4,Win32,60
1,right,1.804999828,,,0,,,0,,,1,0,200,189,1,199,0,1,0,2,stim/objects/HouseObjects/dishsoap4.png,,0,stim/0.png,0,0,67,2021-04-07_08h04.48.074,premup-three_ses-02_part-03_label-phase3,3.2.4,Win32,60
1,right,0.85800004,,,0,,,0,,,1,0,200,116,1,199,0,2,0,2,stim/objects/Instruments/cello3.png,,0,stim/0.png,0,0,67,2021-04-07_08h04.48.074,premup-three_ses-02_part-03_label-phase3,3.2.4,Win32,60
1,left,1.381000042,4,0.902999878,0,3,2.091999769,0,2,1.939999819,1,0,200,76,1,199,3,2,0.9,1,stim/objects/Instruments/harmonica2.png,stim/31.jpeg,3,stim/3.png,1,1,67,2021-04-07_08h04.48.074,premup-three_ses-02_part-03_label-phase3,3.2.4,Win32,60
1,right,1.799000025,3,4.7099998,0,1,1.311000109,0,3,1.795000076,1,0,200,95,1,199,3,2,0.1,1,stim/objects/Instruments/trumpet2.png,stim/44.jpeg,4,stim/4.png,4,1,67,2021-04-07_08h04.48.074,premup-three_ses-02_part-03_label-phase3,3.2.4,Win32,60
1,right,2.174000025,4,1.068000078,0,4,1.392999887,0,1,1.64199996,1,0,200,77,1,199,3,2,0.9,1,stim/objects/Instruments/harp2.png,stim/32.jpeg,3,stim/3.png,2,1,67,2021-04-07_08h04.48.074,premup-three_ses-02_part-03_label-phase3,3.2.4,Win32,60
1,right,1.160999775,,,0,,,0,,,1,0,200,147,1,199,0,1,0,2,stim/objects/HouseObjects/sponge3.png,,0,stim/0.png,0,0,67,2021-04-07_08h04.48.074,premup-three_ses-02_part-03_label-phase3,3.2.4,Win32,60
1,right,0.790999889,,,0,,,0,,,1,0,200,126,1,199,0,1,0,2,stim/objects/HouseObjects/dustpan3.png,,0,stim/0.png,0,0,67,2021-04-07_08h04.48.074,premup-three_ses-02_part-03_label-phase3,3.2.4,Win32,60
1,right,0.771999836,,,0,,,0,,,1,0,200,128,1,199,0,1,0,2,stim/objects/HouseObjects/garbagebin3.png,,0,stim/0.png,0,0,67,2021-04-07_08h04.48.074,premup-three_ses-02_part-03_label-phase3,3.2.4,Win32,60
1,right,0.578999758,2,2.105999947,0,2,1.816999912,0,4,0.835000038,1,0,200,56,1,199,2,2,0.3,1,stim/objects/Instruments/doublebass2.png,stim/24.jpeg,2,stim/2.png,4,3,67,2021-04-07_08h04.48.074,premup-three_ses-02_part-03_label-phase3,3.2.4,Win32,60
1,right,1.150999784,4,1.71600008,0,3,2.713000059,0,4,0.632999897,1,0,200,5,1,199,1,1,0.5,1,stim/objects/Instruments/guitarcase.png,stim/52.jpeg,5,stim/5.png,2,3,67,2021-04-07_08h04.48.074,premup-three_ses-02_part-03_label-phase3,3.2.4,Win32,60
1,right,0.796000004,,,0,,,0,,,1,0,200,198,1,199,0,2,0,2,stim/objects/Instruments/electricdrumset4.png,,0,stim/0.png,0,0,67,2021-04-07_08h04.48.074,premup-three_ses-02_part-03_label-phase3,3.2.4,Win32,60
1,right,0.628000021,,,0,,,0,,,1,0,200,123,1,199,0,1,0,2,stim/objects/HouseObjects/cushion3.png,,0,stim/0.png,0,0,67,2021-04-07_08h04.48.074,premup-three_ses-02_part-03_label-phase3,3.2.4,Win32,60
1,right,0.858999968,,,0,,,0,,,1,0,200,156,1,199,0,2,0,2,stim/objects/Instruments/tambourine3.png,,0,stim/0.png,0,0,67,2021-04-07_08h04.48.074,premup-three_ses-02_part-03_label-phase3,3.2.4,Win32,60
1,right,0.687999964,2,2.553999901,0,1,2.299999952,0,2,1.384000063,1,0,200,6,1,199,1,1,0.5,1,stim/objects/Instruments/harmonica.png,stim/53.jpeg,5,stim/5.png,3,3,67,2021-04-07_08h04.48.074,premup-three_ses-02_part-03_label-phase3,3.2.4,Win32,60
1,right,1.05099988,,,0,,,0,,,1,0,200,140,1,199,0,1,0,2,stim/objects/HouseObjects/glassmop3.png,,0,stim/0.png,0,0,67,2021-04-07_08h04.48.074,premup-three_ses-02_part-03_label-phase3,3.2.4,Win32,60
1,right,1.088999987,3,1.357999802,0,4,4.53399992,0,3,2.291999817,1,0,200,70,1,199,3,2,0.9,1,stim/objects/Instruments/flute2.png,stim/33.jpeg,3,stim/3.png,3,4,67,2021-04-07_08h04.48.074,premup-three_ses-02_part-03_label-phase3,3.2.4,Win32,60
1,right,0.674000025,,,0,,,0,,,1,0,200,194,1,199,0,2,0,2,stim/objects/Instruments/cornet4.png,,0,stim/0.png,0,0,67,2021-04-07_08h04.48.074,premup-three_ses-02_part-03_label-phase3,3.2.4,Win32,60
1,right,0.721999884,,,0,,,0,,,1,0,200,174,1,199,0,2,0,2,stim/objects/Instruments/xylophone3.png,,0,stim/0.png,0,0,67,2021-04-07_08h04.48.074,premup-three_ses-02_part-03_label-phase3,3.2.4,Win32,60
1,right,0.797999859,3,1.740999937,0,1,1.244999886,0,1,1.54399991,1,0,200,31,1,199,2,2,0.7,1,stim/objects/Instruments/tuba.png,stim/13.jpeg,1,stim/1.png,3,3,67,2021-04-07_08h04.48.074,premup-three_ses-02_part-03_label-phase3,3.2.4,Win32,60
1,right,1.386000156,,,0,,,0,,,1,0,200,150,1,199,0,2,0,2,stim/objects/Instruments/guitarcase3.png,,0,stim/0.png,0,0,67,2021-04-07_08h04.48.074,premup-three_ses-02_part-03_label-phase3,3.2.4,Win32,60
1,right,0.701999903,4,1.355000019,0,2,2.280999899,0,4,1.802999735,1,0,200,59,1,199,2,2,0.3,1,stim/objects/Instruments/electricguitar2.png,stim/23.jpeg,2,stim/2.png,3,1,67,2021-04-07_08h04.48.074,premup-three_ses-02_part-03_label-phase3,3.2.4,Win32,60
1,right,0.819999933,4,3.60800004,0,3,1.924000025,0,4,2.710999966,1,0,200,9,1,199,1,1,0.5,1,stim/objects/Instruments/saxophone.png,stim/52.jpeg,5,stim/5.png,2,2,67,2021-04-07_08h04.48.074,premup-three_ses-02_part-03_label-phase3,3.2.4,Win32,60
1,right,0.718999863,,,0,,,0,,,1,0,200,169,1,199,0,1,0,2,stim/objects/HouseObjects/bleachbottle4.png,,0,stim/0.png,0,0,67,2021-04-07_08h04.48.074,premup-three_ses-02_part-03_label-phase3,3.2.4,Win32,60
1,right,0.784999847,,,0,,,0,,,1,0,200,120,1,199,0,1,0,2,stim/objects/HouseObjects/clothesdryingrack3.png,,0,stim/0.png,0,0,67,2021-04-07_08h04.48.074,premup-three_ses-02_part-03_label-phase3,3.2.4,Win32,60
1,right,0.637999773,,,0,,,0,,,1,0,200,142,1,199,0,1,0,2,stim/objects/HouseObjects/handbrush3.png,,0,stim/0.png,0,0,67,2021-04-07_08h04.48.074,premup-three_ses-02_part-03_label-phase3,3.2.4,Win32,60
1,right,0.742999792,,,0,,,0,,,1,0,200,155,1,199,0,2,0,2,stim/objects/Instruments/speaker3.png,,0,stim/0.png,0,0,67,2021-04-07_08h04.48.074,premup-three_ses-02_part-03_label-phase3,3.2.4,Win32,60
1,right,0.563999891,,,0,,,0,,,1,0,200,138,1,199,0,2,0,2,stim/objects/Instruments/gong3.png,,0,stim/0.png,0,0,67,2021-04-07_08h04.48.074,premup-three_ses-02_part-03_label-phase3,3.2.4,Win32,60
1,right,0.572000027,1,2.458999872,0,2,4.639999866,0,1,3.260999918,1,0,200,52,1,199,2,2,0.3,1,stim/objects/Instruments/chime2.png,stim/24.jpeg,2,stim/2.png,4,1,67,2021-04-07_08h04.48.074,premup-three_ses-02_part-03_label-phase3,3.2.4,Win32,60
1,right,0.621000051,2,3.69900012,0,4,1.006999969,0,2,1.450999975,1,0,200,73,1,199,3,2,0.9,1,stim/objects/Instruments/gong2.png,stim/32.jpeg,3,stim/3.png,2,2,67,2021-04-07_08h04.48.074,premup-three_ses-02_part-03_label-phase3,3.2.4,Win32,60
1,right,0.641000032,,,0,,,0,,,1,0,200,191,1,199,0,2,0,2,stim/objects/Instruments/cello4.png,,0,stim/0.png,0,0,67,2021-04-07_08h04.48.074,premup-three_ses-02_part-03_label-phase3,3.2.4,Win32,60
1,left,1.032999992,4,1.52699995,0,4,3.012999773,0,1,1.164999962,1,0,200,43,1,199,2,1,0.7,1,stim/objects/HouseObjects/bucket2.png,stim/23.jpeg,2,stim/2.png,3,3,67,2021-04-07_08h04.48.074,premup-three_ses-02_part-03_label-phase3,3.2.4,Win32,60
1,right,0.939999819,,,0,,,0,,,1,0,200,105,1,199,0,1,0,2,stim/objects/HouseObjects/blender3.png,,0,stim/0.png,0,0,67,2021-04-07_08h04.48.074,premup-three_ses-02_part-03_label-phase3,3.2.4,Win32,60
1,right,0.743999958,,,0,,,0,,,1,0,200,112,1,199,0,2,0,2,stim/objects/Instruments/balalaika3.png,,0,stim/0.png,0,0,67,2021-04-07_08h04.48.074,premup-three_ses-02_part-03_label-phase3,3.2.4,Win32,60
1,right,0.557999849,2,1.934999943,0,1,1.356999874,0,3,1.016000032,1,0,200,84,1,199,3,1,0.9,1,stim/objects/HouseObjects/teapot2.png,stim/41.jpeg,4,stim/4.png,1,4,67,2021-04-07_08h04.48.074,premup-three_ses-02_part-03_label-phase3,3.2.4,Win32,60
1,right,0.859999895,4,1.762999773,0,3,1.322999954,0,4,1.884999752,1,0,200,60,1,199,3,1,0.1,1,stim/objects/HouseObjects/doormat2.png,stim/31.jpeg,3,stim/3.png,1,1,67,2021-04-07_08h04.48.074,premup-three_ses-02_part-03_label-phase3,3.2.4,Win32,60
1,right,0.859999895,,,0,,,0,,,1,0,200,180,1,199,0,1,0,2,stim/objects/HouseObjects/blender4.png,,0,stim/0.png,0,0,67,2021-04-07_08h04.48.074,premup-three_ses-02_part-03_label-phase3,3.2.4,Win32,60
1,right,1.09800005,4,1.731999874,0,4,0.796999931,0,3,3.019000053,1,0,200,46,1,199,2,1,0.7,1,stim/objects/HouseObjects/clothespin2.png,stim/22.jpeg,2,stim/2.png,2,3,67,2021-04-07_08h04.48.074,premup-three_ses-02_part-03_label-phase3,3.2.4,Win32,60
1,right,1.05099988,,,0,,,0,,,1,0,200,131,1,199,0,2,0,2,stim/objects/Instruments/doublebass3.png,,0,stim/0.png,0,0,67,2021-04-07_08h04.48.074,premup-three_ses-02_part-03_label-phase3,3.2.4,Win32,60
1,right,0.98699975,,,0,,,0,,,1,0,200,158,1,199,0,2,0,2,stim/objects/Instruments/triangle3.png,,0,stim/0.png,0,0,67,2021-04-07_08h04.48.074,premup-three_ses-02_part-03_label-phase3,3.2.4,Win32,60
1,right,0.664999962,,,0,,,0,,,1,0,200,103,1,199,0,1,0,2,stim/objects/HouseObjects/basket3.png,,0,stim/0.png,0,0,67,2021-04-07_08h04.48.074,premup-three_ses-02_part-03_label-phase3,3.2.4,Win32,60
1,right,0.599999905,4,1.807999849,0,2,1.729000092,0,1,1.973999977,1,0,200,72,1,199,3,2,0.9,1,stim/objects/Instruments/frenchhorn2.png,stim/31.jpeg,3,stim/3.png,1,1,67,2021-04-07_08h04.48.074,premup-three_ses-02_part-03_label-phase3,3.2.4,Win32,60
1,right,0.652999878,4,1.342999935,0,1,1.635999918,0,2,1.115999937,1,0,200,90,1,199,3,2,0.1,1,stim/objects/Instruments/speaker2.png,stim/43.jpeg,4,stim/4.png,3,1,67,2021-04-07_08h04.48.074,premup-three_ses-02_part-03_label-phase3,3.2.4,Win32,60
1,right,2.110999823,,,0,,,0,,,1,0,200,122,1,199,0,1,0,2,stim/objects/HouseObjects/coffee3.png,,0,stim/0.png,0,0,67,2021-04-07_08h04.48.074,premup-three_ses-02_part-03_label-phase3,3.2.4,Win32,60
1,right,0.897999763,,,0,,,0,,,1,0,200,162,1,199,0,1,0,2,stim/objects/HouseObjects/towel3.png,,0,stim/0.png,0,0,67,2021-04-07_08h04.48.074,premup-three_ses-02_part-03_label-phase3,3.2.4,Win32,60
1,right,0.740999937,4,1.154999971,0,3,1.819999933,0,1,2.633999825,1,0,200,20,1,199,2,1,0.3,1,stim/objects/HouseObjects/thermometer.png,stim/11.jpeg,1,stim/1.png,1,1,67,2021-04-07_08h04.48.074,premup-three_ses-02_part-03_label-phase3,3.2.4,Win32,60
1,right,0.917999983,4,1.23300004,0,1,0.923000097,0,2,3.404000044,1,0,200,4,1,199,1,1,0.5,1,stim/objects/HouseObjects/safetypin.png,stim/53.jpeg,5,stim/5.png,3,3,67,2021-04-07_08h04.48.074,premup-three_ses-02_part-03_label-phase3,3.2.4,Win32,60
1,right,0.742000103,,,0,,,0,,,1,0,200,193,1,199,0,2,0,2,stim/objects/Instruments/clarinet4.png,,0,stim/0.png,0,0,67,2021-04-07_08h04.48.074,premup-three_ses-02_part-03_label-phase3,3.2.4,Win32,60
1,right,0.595999956,4,1.220999956,0,3,1.762000084,0,4,1.573999882,1,0,200,89,1,199,3,1,0.9,1,stim/objects/HouseObjects/wateringcan2.png,stim/42.jpeg,4,stim/4.png,2,4,67,2021-04-07_08h04.48.074,premup-three_ses-02_part-03_label-phase3,3.2.4,Win32,60
1,right,1.046000004,4,1.100999832,0,4,2.326999903,0,3,1.866999865,1,0,200,0,1,199,1,1,0.5,1,stim/objects/HouseObjects/glassmop.png,stim/53.jpeg,5,stim/5.png,3,3,67,2021-04-07_08h04.48.074,premup-three_ses-02_part-03_label-phase3,3.2.4,Win32,60
1,right,1.070999861,,,0,,,0,,,1,0,200,117,1,199,0,2,0,2,stim/objects/Instruments/chime3.png,,0,stim/0.png,0,0,67,2021-04-07_08h04.48.074,premup-three_ses-02_part-03_label-phase3,3.2.4,Win32,60
1,right,0.857999802,1,2.108999968,0,1,0.914000034,0,3,2.281999826,1,0,200,64,1,199,3,1,0.1,1,stim/objects/HouseObjects/glass2.png,stim/31.jpeg,3,stim/3.png,1,1,67,2021-04-07_08h04.48.074,premup-three_ses-02_part-03_label-phase3,3.2.4,Win32,60
1,right,0.689999819,,,0,,,0,,,1,0,200,176,1,199,0,2,0,2,stim/objects/Instruments/acousticguitar4.png,,0,stim/0.png,0,0,67,2021-04-07_08h04.48.074,premup-three_ses-02_part-03_label-phase3,3.2.4,Win32,60
1,right,1.035999775,,,0,,,0,,,1,0,200,183,1,199,0,1,0,2,stim/objects/HouseObjects/bucket4.png,,0,stim/0.png,0,0,67,2021-04-07_08h04.48.074,premup-three_ses-02_part-03_label-phase3,3.2.4,Win32,60
