key_resp_pract.keys,key_resp_pract.rt,trial_acc,trial_index,practice_loop.thisRepN,practice_loop.thisTrialN,practice_loop.thisN,practice_loop.thisIndex,practice_loop.ran,practice_loop.order,scn_condition,scn_cat,scn_inst,scn_file,obj_cat,obj_cat_num,obj_file,trial_cond,quadrant,obj_x,obj_y,corr_ans,participant,date,expName,psychopyVersion,OS,frameRate,key_resp_trial.keys,key_resp_trial.rt,iterations.thisRepN,iterations.thisTrialN,iterations.thisN,iterations.thisIndex,iterations.ran,iterations.order,task_innerloop.thisRepN,task_innerloop.thisTrialN,task_innerloop.thisN,task_innerloop.thisIndex,task_innerloop.ran,task_innerloop.order,iteration_index,rating_acc,slider.response,slider.rt,slider_2.response,slider_2.rt,ratings.thisRepN,ratings.thisTrialN,ratings.thisN,ratings.thisIndex,ratings.ran,ratings.order,obj_cat_top,min_resp_top,max_resp_top,obj_cat_bottom,min_resp_bottom,max_resp_bottom
left,1.2900002,0,1,1,0,240,22,1,239,1,5,3,stim/53.jpeg,Instruments,2,stim/objects/Instruments/maraca.png,0.5,3,-0.2,-0.15,right,67,2021-04-05_08h06.00.807,premup-three_ses-01_part-01_label-phase1,3.2.4,Win32,60,,,,,,,,,,,,,,,,,,,,,,,,,,,,,,,,
,,0,2,1,0,240,165,1,239,3,3,2,stim/32.jpeg,Instruments,2,stim/objects/Instruments/musicsheet2.png,0.9,4,0.2,-0.15,right,67,2021-04-05_08h06.00.807,premup-three_ses-01_part-01_label-phase1,3.2.4,Win32,60,,,,,,,,,,,,,,,,,,,,,,,,,,,,,,,,
right,0.659000158,0,3,1,0,240,224,1,239,3,4,1,stim/41.jpeg,HouseObjects,1,stim/objects/HouseObjects/recyclingbin2.png,0.9,1,-0.2,0.15,left,67,2021-04-05_08h06.00.807,premup-three_ses-01_part-01_label-phase1,3.2.4,Win32,60,,,,,,,,,,,,,,,,,,,,,,,,,,,,,,,,
right,0.74000001,1,4,1,0,240,183,1,239,3,3,4,stim/34.jpeg,Instruments,2,stim/objects/Instruments/oboe2.png,0.9,1,-0.2,0.15,right,67,2021-04-05_08h06.00.807,premup-three_ses-01_part-01_label-phase1,3.2.4,Win32,60,,,,,,,,,,,,,,,,,,,,,,,,,,,,,,,,
left,0.625,1,5,1,0,240,83,1,239,2,1,4,stim/14.jpeg,HouseObjects,1,stim/objects/HouseObjects/rug.png,0.3,4,0.2,-0.15,left,67,2021-04-05_08h06.00.807,premup-three_ses-01_part-01_label-phase1,3.2.4,Win32,60,,,,,,,,,,,,,,,,,,,,,,,,,,,,,,,,
left,0.613000154,0,6,1,0,240,239,1,239,3,4,4,stim/44.jpeg,Instruments,2,stim/objects/Instruments/record_player2.png,0.1,3,-0.2,-0.15,right,67,2021-04-05_08h06.00.807,premup-three_ses-01_part-01_label-phase1,3.2.4,Win32,60,,,,,,,,,,,,,,,,,,,,,,,,,,,,,,,,
left,0.863000154,0,7,1,0,240,95,1,239,2,1,4,stim/14.jpeg,Instruments,2,stim/objects/Instruments/record_player.png,0.7,3,-0.2,-0.15,right,67,2021-04-05_08h06.00.807,premup-three_ses-01_part-01_label-phase1,3.2.4,Win32,60,,,,,,,,,,,,,,,,,,,,,,,,,,,,,,,,
right,1.00600028,1,8,1,0,240,65,1,239,1,6,2,stim/62.jpeg,Instruments,2,stim/objects/Instruments/musicsheet.png,0.5,2,0.2,0.15,right,67,2021-04-05_08h06.00.807,premup-three_ses-01_part-01_label-phase1,3.2.4,Win32,60,,,,,,,,,,,,,,,,,,,,,,,,,,,,,,,,
right,0.613000393,0,9,1,0,240,207,1,239,3,4,4,stim/44.jpeg,HouseObjects,1,stim/objects/HouseObjects/rug2.png,0.9,1,-0.2,0.15,left,67,2021-04-05_08h06.00.807,premup-three_ses-01_part-01_label-phase1,3.2.4,Win32,60,,,,,,,,,,,,,,,,,,,,,,,,,,,,,,,,
left,0.660000086,1,10,1,0,240,200,1,239,3,4,1,stim/41.jpeg,HouseObjects,1,stim/objects/HouseObjects/recyclingbin2.png,0.9,1,-0.2,0.15,left,67,2021-04-05_08h06.00.807,premup-three_ses-01_part-01_label-phase1,3.2.4,Win32,60,,,,,,,,,,,,,,,,,,,,,,,,,,,,,,,,
,,0,1,,,,,,,3,4,2,stim/42.jpeg,HouseObjects,1,stim/objects/HouseObjects/remote2.png,0.9,1,-0.2,0.15,left,67,2021-04-05_08h06.00.807,premup-three_ses-01_part-01_label-phase1,3.2.4,Win32,60,,,4,0,4,0,1,3,1,0,240,233,1,239,,,,,,,,,,,,,,,,,,
,,1,2,,,,,,,2,1,2,stim/12.jpeg,HouseObjects,1,stim/objects/HouseObjects/remote.png,0.3,2,0.2,0.15,left,67,2021-04-05_08h06.00.807,premup-three_ses-01_part-01_label-phase1,3.2.4,Win32,60,left,0.940999985,4,0,4,0,1,3,1,0,240,85,1,239,,,,,,,,,,,,,,,,,,
,,0,3,,,,,,,2,2,4,stim/24.jpeg,HouseObjects,1,stim/objects/HouseObjects/knife2.png,0.7,4,0.2,-0.15,left,67,2021-04-05_08h06.00.807,premup-three_ses-01_part-01_label-phase1,3.2.4,Win32,60,right,0.856000185,4,0,4,0,1,3,1,0,240,123,1,239,,,,,,,,,,,,,,,,,,
,,1,4,,,,,,,1,6,1,stim/61.jpeg,HouseObjects,1,stim/objects/HouseObjects/lintroller.png,0.5,1,-0.2,0.15,left,67,2021-04-05_08h06.00.807,premup-three_ses-01_part-01_label-phase1,3.2.4,Win32,60,left,0.861000061,4,0,4,0,1,3,1,0,240,56,1,239,,,,,,,,,,,,,,,,,,
,,1,5,,,,,,,1,6,2,stim/62.jpeg,HouseObjects,1,stim/objects/HouseObjects/match.png,0.5,3,-0.2,-0.15,left,67,2021-04-05_08h06.00.807,premup-three_ses-01_part-01_label-phase1,3.2.4,Win32,60,left,0.81400013,4,0,4,0,1,3,1,0,240,57,1,239,,,,,,,,,,,,,,,,,,
,,1,6,,,,,,,1,6,3,stim/63.jpeg,HouseObjects,1,stim/objects/HouseObjects/pan.png,0.5,4,0.2,-0.15,left,67,2021-04-05_08h06.00.807,premup-three_ses-01_part-01_label-phase1,3.2.4,Win32,60,left,0.979000092,4,0,4,0,1,3,1,0,240,46,1,239,,,,,,,,,,,,,,,,,,
,,0,7,,,,,,,2,2,4,stim/24.jpeg,HouseObjects,1,stim/objects/HouseObjects/knife2.png,0.7,2,0.2,0.15,left,67,2021-04-05_08h06.00.807,premup-three_ses-01_part-01_label-phase1,3.2.4,Win32,60,right,0.690000296,4,0,4,0,1,3,1,0,240,135,1,239,,,,,,,,,,,,,,,,,,
,,0,8,,,,,,,2,2,3,stim/23.jpeg,HouseObjects,1,stim/objects/HouseObjects/key2.png,0.7,1,-0.2,0.15,left,67,2021-04-05_08h06.00.807,premup-three_ses-01_part-01_label-phase1,3.2.4,Win32,60,right,0.936000109,4,0,4,0,1,3,1,0,240,126,1,239,,,,,,,,,,,,,,,,,,
,,1,9,,,,,,,1,5,1,stim/51.jpeg,Instruments,2,stim/objects/Instruments/keyboard.png,0.5,4,0.2,-0.15,right,67,2021-04-05_08h06.00.807,premup-three_ses-01_part-01_label-phase1,3.2.4,Win32,60,right,1.162000179,4,0,4,0,1,3,1,0,240,28,1,239,,,,,,,,,,,,,,,,,,
,,1,10,,,,,,,3,3,1,stim/31.jpeg,Instruments,2,stim/objects/Instruments/metronome2.png,0.9,1,-0.2,0.15,right,67,2021-04-05_08h06.00.807,premup-three_ses-01_part-01_label-phase1,3.2.4,Win32,60,right,1.275000334,4,0,4,0,1,3,1,0,240,172,1,239,,,,,,,,,,,,,,,,,,
,,0,11,,,,,,,1,6,4,stim/64.jpeg,Instruments,2,stim/objects/Instruments/oboe.png,0.5,2,0.2,0.15,right,67,2021-04-05_08h06.00.807,premup-three_ses-01_part-01_label-phase1,3.2.4,Win32,60,left,0.98900032,4,0,4,0,1,3,1,0,240,67,1,239,,,,,,,,,,,,,,,,,,
,,1,12,,,,,,,2,2,1,stim/21.jpeg,Instruments,2,stim/objects/Instruments/keyboard2.png,0.3,2,0.2,0.15,right,67,2021-04-05_08h06.00.807,premup-three_ses-01_part-01_label-phase1,3.2.4,Win32,60,right,0.931000233,4,0,4,0,1,3,1,0,240,148,1,239,,,,,,,,,,,,,,,,,,
,,0,13,,,,,,,1,5,2,stim/52.jpeg,HouseObjects,1,stim/objects/HouseObjects/ironingboard.png,0.5,2,0.2,0.15,left,67,2021-04-05_08h06.00.807,premup-three_ses-01_part-01_label-phase1,3.2.4,Win32,60,right,0.954000235,4,0,4,0,1,3,1,0,240,9,1,239,,,,,,,,,,,,,,,,,,
,,0,14,,,,,,,3,4,1,stim/41.jpeg,HouseObjects,1,stim/objects/HouseObjects/recyclingbin2.png,0.9,3,-0.2,-0.15,left,67,2021-04-05_08h06.00.807,premup-three_ses-01_part-01_label-phase1,3.2.4,Win32,60,right,1.310000181,4,0,4,0,1,3,1,0,240,204,1,239,,,,,,,,,,,,,,,,,,
,,0,15,,,,,,,3,3,3,stim/33.jpeg,Instruments,2,stim/objects/Instruments/musicstand2.png,0.9,1,-0.2,0.15,right,67,2021-04-05_08h06.00.807,premup-three_ses-01_part-01_label-phase1,3.2.4,Win32,60,left,0.88800025,4,0,4,0,1,3,1,0,240,170,1,239,,,,,,,,,,,,,,,,,,
,,0,16,,,,,,,3,4,3,stim/43.jpeg,HouseObjects,1,stim/objects/HouseObjects/rubbergloves2.png,0.9,3,-0.2,-0.15,left,67,2021-04-05_08h06.00.807,premup-three_ses-01_part-01_label-phase1,3.2.4,Win32,60,right,0.980000019,4,0,4,0,1,3,1,0,240,206,1,239,,,,,,,,,,,,,,,,,,
,,0,17,,,,,,,1,5,1,stim/51.jpeg,HouseObjects,1,stim/objects/HouseObjects/iron.png,0.5,1,-0.2,0.15,left,67,2021-04-05_08h06.00.807,premup-three_ses-01_part-01_label-phase1,3.2.4,Win32,60,right,0.917999983,4,0,4,0,1,3,1,0,240,16,1,239,,,,,,,,,,,,,,,,,,
,,1,18,,,,,,,3,3,3,stim/33.jpeg,Instruments,2,stim/objects/Instruments/musicstand2.png,0.9,2,0.2,0.15,right,67,2021-04-05_08h06.00.807,premup-three_ses-01_part-01_label-phase1,3.2.4,Win32,60,right,1.031000137,4,0,4,0,1,3,1,0,240,182,1,239,,,,,,,,,,,,,,,,,,
,,0,19,,,,,,,1,5,3,stim/53.jpeg,HouseObjects,1,stim/objects/HouseObjects/key.png,0.5,4,0.2,-0.15,left,67,2021-04-05_08h06.00.807,premup-three_ses-01_part-01_label-phase1,3.2.4,Win32,60,right,1.192000151,4,0,4,0,1,3,1,0,240,6,1,239,,,,,,,,,,,,,,,,,,
,,1,20,,,,,,,1,6,1,stim/61.jpeg,HouseObjects,1,stim/objects/HouseObjects/lintroller.png,0.5,2,0.2,0.15,left,67,2021-04-05_08h06.00.807,premup-three_ses-01_part-01_label-phase1,3.2.4,Win32,60,left,0.744000196,4,0,4,0,1,3,1,0,240,48,1,239,,,,,,,,,,,,,,,,,,
,,1,21,,,,,,,3,3,1,stim/31.jpeg,Instruments,2,stim/objects/Instruments/metronome2.png,0.9,3,-0.2,-0.15,right,67,2021-04-05_08h06.00.807,premup-three_ses-01_part-01_label-phase1,3.2.4,Win32,60,right,0.98900032,4,0,4,0,1,3,1,0,240,188,1,239,,,,,,,,,,,,,,,,,,
,,1,22,,,,,,,2,2,1,stim/21.jpeg,HouseObjects,1,stim/objects/HouseObjects/iron2.png,0.7,3,-0.2,-0.15,left,67,2021-04-05_08h06.00.807,premup-three_ses-01_part-01_label-phase1,3.2.4,Win32,60,left,1.108000278,4,0,4,0,1,3,1,0,240,140,1,239,,,,,,,,,,,,,,,,,,
,,1,23,,,,,,,1,6,4,stim/64.jpeg,HouseObjects,1,stim/objects/HouseObjects/pitcher.png,0.5,4,0.2,-0.15,left,67,2021-04-05_08h06.00.807,premup-three_ses-01_part-01_label-phase1,3.2.4,Win32,60,left,0.730000257,4,0,4,0,1,3,1,0,240,59,1,239,,,,,,,,,,,,,,,,,,
,,0,24,,,,,,,2,2,4,stim/24.jpeg,Instruments,2,stim/objects/Instruments/marimba2.png,0.3,3,-0.2,-0.15,right,67,2021-04-05_08h06.00.807,premup-three_ses-01_part-01_label-phase1,3.2.4,Win32,60,left,0.425000191,4,0,4,0,1,3,1,0,240,151,1,239,,,,,,,,,,,,,,,,,,
,,0,25,,,,,,,2,1,2,stim/12.jpeg,Instruments,2,stim/objects/Instruments/pipepiano.png,0.7,1,-0.2,0.15,right,67,2021-04-05_08h06.00.807,premup-three_ses-01_part-01_label-phase1,3.2.4,Win32,60,left,1.185000181,4,0,4,0,1,3,1,0,240,113,1,239,,,,,,,,,,,,,,,,,,
,,1,26,,,,,,,1,6,3,stim/63.jpeg,HouseObjects,1,stim/objects/HouseObjects/pan.png,0.5,1,-0.2,0.15,left,67,2021-04-05_08h06.00.807,premup-three_ses-01_part-01_label-phase1,3.2.4,Win32,60,left,1.004000187,4,0,4,0,1,3,1,0,240,42,1,239,,,,,,,,,,,,,,,,,,
,,1,27,,,,,,,1,6,1,stim/61.jpeg,HouseObjects,1,stim/objects/HouseObjects/lintroller.png,0.5,4,0.2,-0.15,left,67,2021-04-05_08h06.00.807,premup-three_ses-01_part-01_label-phase1,3.2.4,Win32,60,left,0.831000328,4,0,4,0,1,3,1,0,240,44,1,239,,,,,,,,,,,,,,,,,,
,,1,28,,,,,,,3,4,1,stim/41.jpeg,Instruments,2,stim/objects/Instruments/panflute2.png,0.1,1,-0.2,0.15,right,67,2021-04-05_08h06.00.807,premup-three_ses-01_part-01_label-phase1,3.2.4,Win32,60,right,0.723000288,4,0,4,0,1,3,1,0,240,236,1,239,,,,,,,,,,,,,,,,,,
,,1,29,,,,,,,1,5,2,stim/52.jpeg,Instruments,2,stim/objects/Instruments/laud.png,0.5,3,-0.2,-0.15,right,67,2021-04-05_08h06.00.807,premup-three_ses-01_part-01_label-phase1,3.2.4,Win32,60,right,1.334000111,4,0,4,0,1,3,1,0,240,25,1,239,,,,,,,,,,,,,,,,,,
,,1,30,,,,,,,2,2,3,stim/23.jpeg,HouseObjects,1,stim/objects/HouseObjects/key2.png,0.7,3,-0.2,-0.15,left,67,2021-04-05_08h06.00.807,premup-three_ses-01_part-01_label-phase1,3.2.4,Win32,60,left,1.620000362,4,0,4,0,1,3,1,0,240,130,1,239,,,,,,,,,,,,,,,,,,
,,0,31,,,,,,,3,4,2,stim/42.jpeg,HouseObjects,1,stim/objects/HouseObjects/remote2.png,0.9,4,0.2,-0.15,left,67,2021-04-05_08h06.00.807,premup-three_ses-01_part-01_label-phase1,3.2.4,Win32,60,right,0.886000156,4,0,4,0,1,3,1,0,240,217,1,239,,,,,,,,,,,,,,,,,,
,,1,32,,,,,,,1,5,2,stim/52.jpeg,Instruments,2,stim/objects/Instruments/laud.png,0.5,2,0.2,0.15,right,67,2021-04-05_08h06.00.807,premup-three_ses-01_part-01_label-phase1,3.2.4,Win32,60,right,1.231000185,4,0,4,0,1,3,1,0,240,29,1,239,,,,,,,,,,,,,,,,,,
,,0,33,,,,,,,3,4,2,stim/42.jpeg,HouseObjects,1,stim/objects/HouseObjects/remote2.png,0.9,3,-0.2,-0.15,left,67,2021-04-05_08h06.00.807,premup-three_ses-01_part-01_label-phase1,3.2.4,Win32,60,right,1.849000216,4,0,4,0,1,3,1,0,240,229,1,239,,,,,,,,,,,,,,,,,,
,,1,34,,,,,,,1,5,3,stim/53.jpeg,Instruments,2,stim/objects/Instruments/maraca.png,0.5,2,0.2,0.15,right,67,2021-04-05_08h06.00.807,premup-three_ses-01_part-01_label-phase1,3.2.4,Win32,60,right,1.052000046,4,0,4,0,1,3,1,0,240,34,1,239,,,,,,,,,,,,,,,,,,
,,0,35,,,,,,,1,6,3,stim/63.jpeg,Instruments,2,stim/objects/Instruments/musicstand.png,0.5,3,-0.2,-0.15,right,67,2021-04-05_08h06.00.807,premup-three_ses-01_part-01_label-phase1,3.2.4,Win32,60,left,0.661000252,4,0,4,0,1,3,1,0,240,70,1,239,,,,,,,,,,,,,,,,,,
,,1,36,,,,,,,2,1,3,stim/13.jpeg,Instruments,2,stim/objects/Instruments/record.png,0.7,4,0.2,-0.15,right,67,2021-04-05_08h06.00.807,premup-three_ses-01_part-01_label-phase1,3.2.4,Win32,60,right,1.295000315,4,0,4,0,1,3,1,0,240,106,1,239,,,,,,,,,,,,,,,,,,
,,0,37,,,,,,,3,4,4,stim/44.jpeg,HouseObjects,1,stim/objects/HouseObjects/rug2.png,0.9,2,0.2,0.15,left,67,2021-04-05_08h06.00.807,premup-three_ses-01_part-01_label-phase1,3.2.4,Win32,60,right,1.031000137,4,0,4,0,1,3,1,0,240,231,1,239,,,,,,,,,,,,,,,,,,
,,0,38,,,,,,,3,3,2,stim/32.jpeg,Instruments,2,stim/objects/Instruments/musicsheet2.png,0.9,4,0.2,-0.15,right,67,2021-04-05_08h06.00.807,premup-three_ses-01_part-01_label-phase1,3.2.4,Win32,60,,,4,0,4,0,1,3,1,0,240,173,1,239,,,,,,,,,,,,,,,,,,
,,1,39,,,,,,,2,1,3,stim/13.jpeg,Instruments,2,stim/objects/Instruments/record.png,0.7,4,0.2,-0.15,right,67,2021-04-05_08h06.00.807,premup-three_ses-01_part-01_label-phase1,3.2.4,Win32,60,right,0.870000124,4,0,4,0,1,3,1,0,240,110,1,239,,,,,,,,,,,,,,,,,,
,,1,40,,,,,,,3,4,4,stim/44.jpeg,HouseObjects,1,stim/objects/HouseObjects/rug2.png,0.9,2,0.2,0.15,left,67,2021-04-05_08h06.00.807,premup-three_ses-01_part-01_label-phase1,3.2.4,Win32,60,left,0.950000286,4,0,4,0,1,3,1,0,240,203,1,239,,,,,,,,,,,,,,,,,,
,,1,41,,,,,,,2,1,3,stim/13.jpeg,Instruments,2,stim/objects/Instruments/record.png,0.7,4,0.2,-0.15,right,67,2021-04-05_08h06.00.807,premup-three_ses-01_part-01_label-phase1,3.2.4,Win32,60,right,1.167999983,4,0,4,0,1,3,1,0,240,114,1,239,,,,,,,,,,,,,,,,,,
,,1,42,,,,,,,2,1,1,stim/11.jpeg,Instruments,2,stim/objects/Instruments/panflute.png,0.7,2,0.2,0.15,right,67,2021-04-05_08h06.00.807,premup-three_ses-01_part-01_label-phase1,3.2.4,Win32,60,right,1.058000326,4,0,4,0,1,3,1,0,240,112,1,239,,,,,,,,,,,,,,,,,,
,,1,43,,,,,,,1,5,2,stim/52.jpeg,HouseObjects,1,stim/objects/HouseObjects/ironingboard.png,0.5,1,-0.2,0.15,left,67,2021-04-05_08h06.00.807,premup-three_ses-01_part-01_label-phase1,3.2.4,Win32,60,left,1.00600028,4,0,4,0,1,3,1,0,240,13,1,239,,,,,,,,,,,,,,,,,,
,,1,44,,,,,,,2,1,4,stim/14.jpeg,Instruments,2,stim/objects/Instruments/record_player.png,0.7,3,-0.2,-0.15,right,67,2021-04-05_08h06.00.807,premup-three_ses-01_part-01_label-phase1,3.2.4,Win32,60,right,0.907000303,4,0,4,0,1,3,1,0,240,103,1,239,,,,,,,,,,,,,,,,,,
,,1,45,,,,,,,1,6,3,stim/63.jpeg,HouseObjects,1,stim/objects/HouseObjects/pan.png,0.5,1,-0.2,0.15,left,67,2021-04-05_08h06.00.807,premup-three_ses-01_part-01_label-phase1,3.2.4,Win32,60,left,0.819000244,4,0,4,0,1,3,1,0,240,58,1,239,,,,,,,,,,,,,,,,,,
,,0,46,,,,,,,1,6,2,stim/62.jpeg,Instruments,2,stim/objects/Instruments/musicsheet.png,0.5,1,-0.2,0.15,right,67,2021-04-05_08h06.00.807,premup-three_ses-01_part-01_label-phase1,3.2.4,Win32,60,left,0.740999937,4,0,4,0,1,3,1,0,240,73,1,239,,,,,,,,,,,,,,,,,,
,,1,47,,,,,,,2,1,2,stim/12.jpeg,Instruments,2,stim/objects/Instruments/pipepiano.png,0.7,3,-0.2,-0.15,right,67,2021-04-05_08h06.00.807,premup-three_ses-01_part-01_label-phase1,3.2.4,Win32,60,right,0.75999999,4,0,4,0,1,3,1,0,240,101,1,239,,,,,,,,,,,,,,,,,,
,,0,48,,,,,,,3,3,1,stim/31.jpeg,Instruments,2,stim/objects/Instruments/metronome2.png,0.9,4,0.2,-0.15,right,67,2021-04-05_08h06.00.807,premup-three_ses-01_part-01_label-phase1,3.2.4,Win32,60,left,0.997000217,4,0,4,0,1,3,1,0,240,168,1,239,,,,,,,,,,,,,,,,,,
,,0,49,,,,,,,1,6,4,stim/64.jpeg,Instruments,2,stim/objects/Instruments/oboe.png,0.5,3,-0.2,-0.15,right,67,2021-04-05_08h06.00.807,premup-three_ses-01_part-01_label-phase1,3.2.4,Win32,60,left,0.68200016,4,0,4,0,1,3,1,0,240,79,1,239,,,,,,,,,,,,,,,,,,
,,1,50,,,,,,,2,2,3,stim/23.jpeg,HouseObjects,1,stim/objects/HouseObjects/key2.png,0.7,2,0.2,0.15,left,67,2021-04-05_08h06.00.807,premup-three_ses-01_part-01_label-phase1,3.2.4,Win32,60,left,1.053000212,4,0,4,0,1,3,1,0,240,146,1,239,,,,,,,,,,,,,,,,,,
,,1,51,,,,,,,1,5,4,stim/54.jpeg,Instruments,2,stim/objects/Instruments/marimba.png,0.5,3,-0.2,-0.15,right,67,2021-04-05_08h06.00.807,premup-three_ses-01_part-01_label-phase1,3.2.4,Win32,60,right,0.859000206,4,0,4,0,1,3,1,0,240,31,1,239,,,,,,,,,,,,,,,,,,
,,0,52,,,,,,,1,5,3,stim/53.jpeg,HouseObjects,1,stim/objects/HouseObjects/key.png,0.5,2,0.2,0.15,left,67,2021-04-05_08h06.00.807,premup-three_ses-01_part-01_label-phase1,3.2.4,Win32,60,right,0.670000076,4,0,4,0,1,3,1,0,240,14,1,239,,,,,,,,,,,,,,,,,,
,,0,53,,,,,,,2,2,2,stim/22.jpeg,Instruments,2,stim/objects/Instruments/laud2.png,0.3,4,0.2,-0.15,right,67,2021-04-05_08h06.00.807,premup-three_ses-01_part-01_label-phase1,3.2.4,Win32,60,left,1.113000154,4,0,4,0,1,3,1,0,240,157,1,239,,,,,,,,,,,,,,,,,,
,,0,54,,,,,,,2,2,1,stim/21.jpeg,Instruments,2,stim/objects/Instruments/keyboard2.png,0.3,4,0.2,-0.15,right,67,2021-04-05_08h06.00.807,premup-three_ses-01_part-01_label-phase1,3.2.4,Win32,60,left,1.588999987,4,0,4,0,1,3,1,0,240,152,1,239,,,,,,,,,,,,,,,,,,
,,1,55,,,,,,,3,3,4,stim/34.jpeg,Instruments,2,stim/objects/Instruments/oboe2.png,0.9,1,-0.2,0.15,right,67,2021-04-05_08h06.00.807,premup-three_ses-01_part-01_label-phase1,3.2.4,Win32,60,right,1.332000017,4,0,4,0,1,3,1,0,240,199,1,239,,,,,,,,,,,,,,,,,,
,,1,56,,,,,,,3,3,3,stim/33.jpeg,HouseObjects,1,stim/objects/HouseObjects/pan2.png,0.1,4,0.2,-0.15,left,67,2021-04-05_08h06.00.807,premup-three_ses-01_part-01_label-phase1,3.2.4,Win32,60,left,0.883000135,4,0,4,0,1,3,1,0,240,162,1,239,,,,,,,,,,,,,,,,,,
,,1,57,,,,,,,2,2,2,stim/22.jpeg,HouseObjects,1,stim/objects/HouseObjects/ironingboard2.png,0.7,4,0.2,-0.15,left,67,2021-04-05_08h06.00.807,premup-three_ses-01_part-01_label-phase1,3.2.4,Win32,60,left,0.626000166,4,0,4,0,1,3,1,0,240,125,1,239,,,,,,,,,,,,,,,,,,
,,0,58,,,,,,,1,5,2,stim/52.jpeg,Instruments,2,stim/objects/Instruments/laud.png,0.5,4,0.2,-0.15,right,67,2021-04-05_08h06.00.807,premup-three_ses-01_part-01_label-phase1,3.2.4,Win32,60,left,0.536000013,4,0,4,0,1,3,1,0,240,37,1,239,,,,,,,,,,,,,,,,,,
,,1,59,,,,,,,3,3,3,stim/33.jpeg,Instruments,2,stim/objects/Instruments/musicstand2.png,0.9,3,-0.2,-0.15,right,67,2021-04-05_08h06.00.807,premup-three_ses-01_part-01_label-phase1,3.2.4,Win32,60,right,0.90500021,4,0,4,0,1,3,1,0,240,186,1,239,,,,,,,,,,,,,,,,,,
,,1,60,,,,,,,3,3,4,stim/34.jpeg,Instruments,2,stim/objects/Instruments/oboe2.png,0.9,3,-0.2,-0.15,right,67,2021-04-05_08h06.00.807,premup-three_ses-01_part-01_label-phase1,3.2.4,Win32,60,right,0.708000183,4,0,4,0,1,3,1,0,240,195,1,239,,,,,,,,,,,,,,,,,,
,,0,61,,,,,,,1,5,1,stim/51.jpeg,HouseObjects,1,stim/objects/HouseObjects/iron.png,0.5,1,-0.2,0.15,left,67,2021-04-05_08h06.00.807,premup-three_ses-01_part-01_label-phase1,3.2.4,Win32,60,right,0.59700036,4,0,4,0,1,3,1,0,240,4,1,239,,,,,,,,,,,,,,,,,,
,,1,62,,,,,,,3,3,1,stim/31.jpeg,Instruments,2,stim/objects/Instruments/metronome2.png,0.9,3,-0.2,-0.15,right,67,2021-04-05_08h06.00.807,premup-three_ses-01_part-01_label-phase1,3.2.4,Win32,60,right,1.198000193,4,0,4,0,1,3,1,0,240,192,1,239,,,,,,,,,,,,,,,,,,
,,0,63,,,,,,,2,2,4,stim/24.jpeg,HouseObjects,1,stim/objects/HouseObjects/knife2.png,0.7,4,0.2,-0.15,left,67,2021-04-05_08h06.00.807,premup-three_ses-01_part-01_label-phase1,3.2.4,Win32,60,right,1.187000036,4,0,4,0,1,3,1,0,240,147,1,239,,,,,,,,,,,,,,,,,,
,,0,64,,,,,,,1,5,3,stim/53.jpeg,HouseObjects,1,stim/objects/HouseObjects/key.png,0.5,1,-0.2,0.15,left,67,2021-04-05_08h06.00.807,premup-three_ses-01_part-01_label-phase1,3.2.4,Win32,60,right,0.826000214,4,0,4,0,1,3,1,0,240,2,1,239,,,,,,,,,,,,,,,,,,
,,1,65,,,,,,,1,5,2,stim/52.jpeg,HouseObjects,1,stim/objects/HouseObjects/ironingboard.png,0.5,2,0.2,0.15,left,67,2021-04-05_08h06.00.807,premup-three_ses-01_part-01_label-phase1,3.2.4,Win32,60,left,0.88800025,4,0,4,0,1,3,1,0,240,17,1,239,,,,,,,,,,,,,,,,,,
,,1,66,,,,,,,3,3,2,stim/32.jpeg,Instruments,2,stim/objects/Instruments/musicsheet2.png,0.9,4,0.2,-0.15,right,67,2021-04-05_08h06.00.807,premup-three_ses-01_part-01_label-phase1,3.2.4,Win32,60,right,1.105000257,4,0,4,0,1,3,1,0,240,165,1,239,,,,,,,,,,,,,,,,,,
,,0,67,,,,,,,2,1,3,stim/13.jpeg,HouseObjects,1,stim/objects/HouseObjects/rubbergloves.png,0.3,4,0.2,-0.15,left,67,2021-04-05_08h06.00.807,premup-three_ses-01_part-01_label-phase1,3.2.4,Win32,60,right,0.722000122,4,0,4,0,1,3,1,0,240,82,1,239,,,,,,,,,,,,,,,,,,
,,1,68,,,,,,,2,2,1,stim/21.jpeg,HouseObjects,1,stim/objects/HouseObjects/iron2.png,0.7,2,0.2,0.15,left,67,2021-04-05_08h06.00.807,premup-three_ses-01_part-01_label-phase1,3.2.4,Win32,60,left,1.208000183,4,0,4,0,1,3,1,0,240,128,1,239,,,,,,,,,,,,,,,,,,
,,0,69,,,,,,,2,1,3,stim/13.jpeg,Instruments,2,stim/objects/Instruments/record.png,0.7,4,0.2,-0.15,right,67,2021-04-05_08h06.00.807,premup-three_ses-01_part-01_label-phase1,3.2.4,Win32,60,left,1.108000278,4,0,4,0,1,3,1,0,240,94,1,239,,,,,,,,,,,,,,,,,,
,,0,70,,,,,,,2,2,3,stim/23.jpeg,HouseObjects,1,stim/objects/HouseObjects/key2.png,0.7,3,-0.2,-0.15,left,67,2021-04-05_08h06.00.807,premup-three_ses-01_part-01_label-phase1,3.2.4,Win32,60,right,1.098999977,4,0,4,0,1,3,1,0,240,142,1,239,,,,,,,,,,,,,,,,,,
,,0,71,,,,,,,1,6,4,stim/64.jpeg,Instruments,2,stim/objects/Instruments/oboe.png,0.5,3,-0.2,-0.15,right,67,2021-04-05_08h06.00.807,premup-three_ses-01_part-01_label-phase1,3.2.4,Win32,60,left,0.939000368,4,0,4,0,1,3,1,0,240,63,1,239,,,,,,,,,,,,,,,,,,
,,1,72,,,,,,,3,3,2,stim/32.jpeg,Instruments,2,stim/objects/Instruments/musicsheet2.png,0.9,4,0.2,-0.15,right,67,2021-04-05_08h06.00.807,premup-three_ses-01_part-01_label-phase1,3.2.4,Win32,60,right,1.413000107,4,0,4,0,1,3,1,0,240,181,1,239,,,,,,,,,,,,,,,,,,
,,0,73,,,,,,,1,5,4,stim/54.jpeg,HouseObjects,1,stim/objects/HouseObjects/knife.png,0.5,3,-0.2,-0.15,left,67,2021-04-05_08h06.00.807,premup-three_ses-01_part-01_label-phase1,3.2.4,Win32,60,right,0.792999983,4,0,4,0,1,3,1,0,240,15,1,239,,,,,,,,,,,,,,,,,,
,,0,74,,,,,,,3,4,1,stim/41.jpeg,HouseObjects,1,stim/objects/HouseObjects/recyclingbin2.png,0.9,3,-0.2,-0.15,left,67,2021-04-05_08h06.00.807,premup-three_ses-01_part-01_label-phase1,3.2.4,Win32,60,right,0.829000235,4,0,4,0,1,3,1,0,240,232,1,239,,,,,,,,,,,,,,,,,,
,,0,75,,,,,,,2,2,2,stim/22.jpeg,HouseObjects,1,stim/objects/HouseObjects/ironingboard2.png,0.7,4,0.2,-0.15,left,67,2021-04-05_08h06.00.807,premup-three_ses-01_part-01_label-phase1,3.2.4,Win32,60,right,1.389000177,4,0,4,0,1,3,1,0,240,141,1,239,,,,,,,,,,,,,,,,,,
,,0,76,,,,,,,3,3,1,stim/31.jpeg,Instruments,2,stim/objects/Instruments/metronome2.png,0.9,2,0.2,0.15,right,67,2021-04-05_08h06.00.807,premup-three_ses-01_part-01_label-phase1,3.2.4,Win32,60,left,1.14800024,4,0,4,0,1,3,1,0,240,176,1,239,,,,,,,,,,,,,,,,,,
,,0,77,,,,,,,1,6,3,stim/63.jpeg,Instruments,2,stim/objects/Instruments/musicstand.png,0.5,2,0.2,0.15,right,67,2021-04-05_08h06.00.807,premup-three_ses-01_part-01_label-phase1,3.2.4,Win32,60,left,0.73300004,4,0,4,0,1,3,1,0,240,78,1,239,,,,,,,,,,,,,,,,,,
,,1,78,,,,,,,1,5,3,stim/53.jpeg,Instruments,2,stim/objects/Instruments/maraca.png,0.5,3,-0.2,-0.15,right,67,2021-04-05_08h06.00.807,premup-three_ses-01_part-01_label-phase1,3.2.4,Win32,60,right,0.898000002,4,0,4,0,1,3,1,0,240,22,1,239,,,,,,,,,,,,,,,,,,
,,0,79,,,,,,,2,2,4,stim/24.jpeg,HouseObjects,1,stim/objects/HouseObjects/knife2.png,0.7,4,0.2,-0.15,left,67,2021-04-05_08h06.00.807,premup-three_ses-01_part-01_label-phase1,3.2.4,Win32,60,right,1.407000065,4,0,4,0,1,3,1,0,240,127,1,239,,,,,,,,,,,,,,,,,,
,,1,80,,,,,,,2,1,3,stim/13.jpeg,Instruments,2,stim/objects/Instruments/record.png,0.7,1,-0.2,0.15,right,67,2021-04-05_08h06.00.807,premup-three_ses-01_part-01_label-phase1,3.2.4,Win32,60,right,0.687000275,4,0,4,0,1,3,1,0,240,102,1,239,,,,,,,,,,,,,,,,,,
,,0,81,,,,,,,2,2,1,stim/21.jpeg,Instruments,2,stim/objects/Instruments/keyboard2.png,0.3,4,0.2,-0.15,right,67,2021-04-05_08h06.00.807,premup-three_ses-01_part-01_label-phase1,3.2.4,Win32,60,left,0.887000084,4,0,4,0,1,3,1,0,240,156,1,239,,,,,,,,,,,,,,,,,,
,,1,82,,,,,,,1,5,1,stim/51.jpeg,Instruments,2,stim/objects/Instruments/keyboard.png,0.5,1,-0.2,0.15,right,67,2021-04-05_08h06.00.807,premup-three_ses-01_part-01_label-phase1,3.2.4,Win32,60,right,1.076000214,4,0,4,0,1,3,1,0,240,32,1,239,,,,,,,,,,,,,,,,,,
,,1,83,,,,,,,3,4,2,stim/42.jpeg,HouseObjects,1,stim/objects/HouseObjects/remote2.png,0.9,3,-0.2,-0.15,left,67,2021-04-05_08h06.00.807,premup-three_ses-01_part-01_label-phase1,3.2.4,Win32,60,left,1.015000105,4,0,4,0,1,3,1,0,240,205,1,239,,,,,,,,,,,,,,,,,,
,,0,84,,,,,,,2,2,2,stim/22.jpeg,HouseObjects,1,stim/objects/HouseObjects/ironingboard2.png,0.7,3,-0.2,-0.15,left,67,2021-04-05_08h06.00.807,premup-three_ses-01_part-01_label-phase1,3.2.4,Win32,60,right,1.185000181,4,0,4,0,1,3,1,0,240,145,1,239,,,,,,,,,,,,,,,,,,
,,1,85,,,,,,,1,6,2,stim/62.jpeg,Instruments,2,stim/objects/Instruments/musicsheet.png,0.5,2,0.2,0.15,right,67,2021-04-05_08h06.00.807,premup-three_ses-01_part-01_label-phase1,3.2.4,Win32,60,right,1.5400002,4,0,4,0,1,3,1,0,240,77,1,239,,,,,,,,,,,,,,,,,,
,,0,86,,,,,,,1,6,4,stim/64.jpeg,HouseObjects,1,stim/objects/HouseObjects/pitcher.png,0.5,4,0.2,-0.15,left,67,2021-04-05_08h06.00.807,premup-three_ses-01_part-01_label-phase1,3.2.4,Win32,60,right,1.33100009,4,0,4,0,1,3,1,0,240,51,1,239,,,,,,,,,,,,,,,,,,
,,0,87,,,,,,,2,2,2,stim/22.jpeg,HouseObjects,1,stim/objects/HouseObjects/ironingboard2.png,0.7,1,-0.2,0.15,left,67,2021-04-05_08h06.00.807,premup-three_ses-01_part-01_label-phase1,3.2.4,Win32,60,right,0.858000278,4,0,4,0,1,3,1,0,240,133,1,239,,,,,,,,,,,,,,,,,,
,,0,88,,,,,,,3,4,3,stim/43.jpeg,HouseObjects,1,stim/objects/HouseObjects/rubbergloves2.png,0.9,2,0.2,0.15,left,67,2021-04-05_08h06.00.807,premup-three_ses-01_part-01_label-phase1,3.2.4,Win32,60,right,0.921000242,4,0,4,0,1,3,1,0,240,214,1,239,,,,,,,,,,,,,,,,,,
,,0,89,,,,,,,2,1,4,stim/14.jpeg,HouseObjects,1,stim/objects/HouseObjects/rug.png,0.3,3,-0.2,-0.15,left,67,2021-04-05_08h06.00.807,premup-three_ses-01_part-01_label-phase1,3.2.4,Win32,60,right,1.38800025,4,0,4,0,1,3,1,0,240,91,1,239,,,,,,,,,,,,,,,,,,
,,1,90,,,,,,,1,6,1,stim/61.jpeg,HouseObjects,1,stim/objects/HouseObjects/lintroller.png,0.5,2,0.2,0.15,left,67,2021-04-05_08h06.00.807,premup-three_ses-01_part-01_label-phase1,3.2.4,Win32,60,left,1.044000149,4,0,4,0,1,3,1,0,240,52,1,239,,,,,,,,,,,,,,,,,,
,,1,91,,,,,,,3,4,4,stim/44.jpeg,Instruments,2,stim/objects/Instruments/record_player2.png,0.1,3,-0.2,-0.15,right,67,2021-04-05_08h06.00.807,premup-three_ses-01_part-01_label-phase1,3.2.4,Win32,60,right,1.319000006,4,0,4,0,1,3,1,0,240,239,1,239,,,,,,,,,,,,,,,,,,
,,1,92,,,,,,,3,3,1,stim/31.jpeg,Instruments,2,stim/objects/Instruments/metronome2.png,0.9,2,0.2,0.15,right,67,2021-04-05_08h06.00.807,premup-three_ses-01_part-01_label-phase1,3.2.4,Win32,60,right,1.353000164,4,0,4,0,1,3,1,0,240,180,1,239,,,,,,,,,,,,,,,,,,
,,1,93,,,,,,,3,3,2,stim/32.jpeg,Instruments,2,stim/objects/Instruments/musicsheet2.png,0.9,4,0.2,-0.15,right,67,2021-04-05_08h06.00.807,premup-three_ses-01_part-01_label-phase1,3.2.4,Win32,60,right,1.036000013,4,0,4,0,1,3,1,0,240,189,1,239,,,,,,,,,,,,,,,,,,
,,0,94,,,,,,,1,6,1,stim/61.jpeg,Instruments,2,stim/objects/Instruments/metronome.png,0.5,3,-0.2,-0.15,right,67,2021-04-05_08h06.00.807,premup-three_ses-01_part-01_label-phase1,3.2.4,Win32,60,left,0.802000284,4,0,4,0,1,3,1,0,240,68,1,239,,,,,,,,,,,,,,,,,,
,,1,95,,,,,,,1,5,3,stim/53.jpeg,Instruments,2,stim/objects/Instruments/maraca.png,0.5,4,0.2,-0.15,right,67,2021-04-05_08h06.00.807,premup-three_ses-01_part-01_label-phase1,3.2.4,Win32,60,right,1.135000229,4,0,4,0,1,3,1,0,240,38,1,239,,,,,,,,,,,,,,,,,,
,,0,96,,,,,,,2,1,3,stim/13.jpeg,HouseObjects,1,stim/objects/HouseObjects/rubbergloves.png,0.3,1,-0.2,0.15,left,67,2021-04-05_08h06.00.807,premup-three_ses-01_part-01_label-phase1,3.2.4,Win32,60,right,0.79700017,4,0,4,0,1,3,1,0,240,90,1,239,,,,,,,,,,,,,,,,,,
,,1,97,,,,,,,1,5,1,stim/51.jpeg,Instruments,2,stim/objects/Instruments/keyboard.png,0.5,4,0.2,-0.15,right,67,2021-04-05_08h06.00.807,premup-three_ses-01_part-01_label-phase1,3.2.4,Win32,60,right,0.979000092,4,0,4,0,1,3,1,0,240,20,1,239,,,,,,,,,,,,,,,,,,
,,0,98,,,,,,,2,2,1,stim/21.jpeg,HouseObjects,1,stim/objects/HouseObjects/iron2.png,0.7,1,-0.2,0.15,left,67,2021-04-05_08h06.00.807,premup-three_ses-01_part-01_label-phase1,3.2.4,Win32,60,right,1.127000332,4,0,4,0,1,3,1,0,240,132,1,239,,,,,,,,,,,,,,,,,,
,,1,99,,,,,,,3,4,3,stim/43.jpeg,HouseObjects,1,stim/objects/HouseObjects/rubbergloves2.png,0.9,1,-0.2,0.15,left,67,2021-04-05_08h06.00.807,premup-three_ses-01_part-01_label-phase1,3.2.4,Win32,60,left,1.268000126,4,0,4,0,1,3,1,0,240,210,1,239,,,,,,,,,,,,,,,,,,
,,1,100,,,,,,,1,5,4,stim/54.jpeg,Instruments,2,stim/objects/Instruments/marimba.png,0.5,4,0.2,-0.15,right,67,2021-04-05_08h06.00.807,premup-three_ses-01_part-01_label-phase1,3.2.4,Win32,60,right,1.003000021,4,0,4,0,1,3,1,0,240,35,1,239,,,,,,,,,,,,,,,,,,
,,1,101,,,,,,,3,3,4,stim/34.jpeg,Instruments,2,stim/objects/Instruments/oboe2.png,0.9,2,0.2,0.15,right,67,2021-04-05_08h06.00.807,premup-three_ses-01_part-01_label-phase1,3.2.4,Win32,60,right,1.167000294,4,0,4,0,1,3,1,0,240,171,1,239,,,,,,,,,,,,,,,,,,
,,0,102,,,,,,,1,6,4,stim/64.jpeg,Instruments,2,stim/objects/Instruments/oboe.png,0.5,3,-0.2,-0.15,right,67,2021-04-05_08h06.00.807,premup-three_ses-01_part-01_label-phase1,3.2.4,Win32,60,left,0.788000107,4,0,4,0,1,3,1,0,240,75,1,239,,,,,,,,,,,,,,,,,,
,,0,103,,,,,,,2,1,3,stim/13.jpeg,HouseObjects,1,stim/objects/HouseObjects/rubbergloves.png,0.3,4,0.2,-0.15,left,67,2021-04-05_08h06.00.807,premup-three_ses-01_part-01_label-phase1,3.2.4,Win32,60,right,1.244000196,4,0,4,0,1,3,1,0,240,86,1,239,,,,,,,,,,,,,,,,,,
,,0,104,,,,,,,2,2,4,stim/24.jpeg,HouseObjects,1,stim/objects/HouseObjects/knife2.png,0.7,3,-0.2,-0.15,left,67,2021-04-05_08h06.00.807,premup-three_ses-01_part-01_label-phase1,3.2.4,Win32,60,right,1.103000164,4,0,4,0,1,3,1,0,240,139,1,239,,,,,,,,,,,,,,,,,,
,,1,105,,,,,,,2,2,3,stim/23.jpeg,HouseObjects,1,stim/objects/HouseObjects/key2.png,0.7,1,-0.2,0.15,left,67,2021-04-05_08h06.00.807,premup-three_ses-01_part-01_label-phase1,3.2.4,Win32,60,left,1.071000099,4,0,4,0,1,3,1,0,240,138,1,239,,,,,,,,,,,,,,,,,,
,,1,106,,,,,,,2,1,2,stim/12.jpeg,Instruments,2,stim/objects/Instruments/pipepiano.png,0.7,1,-0.2,0.15,right,67,2021-04-05_08h06.00.807,premup-three_ses-01_part-01_label-phase1,3.2.4,Win32,60,right,0.83700037,4,0,4,0,1,3,1,0,240,93,1,239,,,,,,,,,,,,,,,,,,
,,0,107,,,,,,,1,6,2,stim/62.jpeg,HouseObjects,1,stim/objects/HouseObjects/match.png,0.5,1,-0.2,0.15,left,67,2021-04-05_08h06.00.807,premup-three_ses-01_part-01_label-phase1,3.2.4,Win32,60,right,1.060000181,4,0,4,0,1,3,1,0,240,53,1,239,,,,,,,,,,,,,,,,,,
,,0,108,,,,,,,3,4,1,stim/41.jpeg,HouseObjects,1,stim/objects/HouseObjects/recyclingbin2.png,0.9,1,-0.2,0.15,left,67,2021-04-05_08h06.00.807,premup-three_ses-01_part-01_label-phase1,3.2.4,Win32,60,right,0.906000137,4,0,4,0,1,3,1,0,240,220,1,239,,,,,,,,,,,,,,,,,,
,,1,109,,,,,,,1,5,3,stim/53.jpeg,HouseObjects,1,stim/objects/HouseObjects/key.png,0.5,3,-0.2,-0.15,left,67,2021-04-05_08h06.00.807,premup-three_ses-01_part-01_label-phase1,3.2.4,Win32,60,left,1.391000271,4,0,4,0,1,3,1,0,240,10,1,239,,,,,,,,,,,,,,,,,,
,,1,110,,,,,,,3,4,1,stim/41.jpeg,HouseObjects,1,stim/objects/HouseObjects/recyclingbin2.png,0.9,1,-0.2,0.15,left,67,2021-04-05_08h06.00.807,premup-three_ses-01_part-01_label-phase1,3.2.4,Win32,60,left,1.11500001,4,0,4,0,1,3,1,0,240,224,1,239,,,,,,,,,,,,,,,,,,
,,1,111,,,,,,,3,4,3,stim/43.jpeg,HouseObjects,1,stim/objects/HouseObjects/rubbergloves2.png,0.9,2,0.2,0.15,left,67,2021-04-05_08h06.00.807,premup-three_ses-01_part-01_label-phase1,3.2.4,Win32,60,left,1.012000084,4,0,4,0,1,3,1,0,240,226,1,239,,,,,,,,,,,,,,,,,,
,,1,112,,,,,,,2,1,2,stim/12.jpeg,Instruments,2,stim/objects/Instruments/pipepiano.png,0.7,3,-0.2,-0.15,right,67,2021-04-05_08h06.00.807,premup-three_ses-01_part-01_label-phase1,3.2.4,Win32,60,right,0.766000032,4,0,4,0,1,3,1,0,240,97,1,239,,,,,,,,,,,,,,,,,,
,,1,113,,,,,,,3,4,1,stim/41.jpeg,HouseObjects,1,stim/objects/HouseObjects/recyclingbin2.png,0.9,1,-0.2,0.15,left,67,2021-04-05_08h06.00.807,premup-three_ses-01_part-01_label-phase1,3.2.4,Win32,60,left,0.816000223,4,0,4,0,1,3,1,0,240,200,1,239,,,,,,,,,,,,,,,,,,
,,1,114,,,,,,,3,4,4,stim/44.jpeg,HouseObjects,1,stim/objects/HouseObjects/rug2.png,0.9,2,0.2,0.15,left,67,2021-04-05_08h06.00.807,premup-three_ses-01_part-01_label-phase1,3.2.4,Win32,60,left,0.751000166,4,0,4,0,1,3,1,0,240,219,1,239,,,,,,,,,,,,,,,,,,
,,0,115,,,,,,,1,5,4,stim/54.jpeg,HouseObjects,1,stim/objects/HouseObjects/knife.png,0.5,4,0.2,-0.15,left,67,2021-04-05_08h06.00.807,premup-three_ses-01_part-01_label-phase1,3.2.4,Win32,60,right,0.890000105,4,0,4,0,1,3,1,0,240,19,1,239,,,,,,,,,,,,,,,,,,
,,1,116,,,,,,,3,3,4,stim/34.jpeg,Instruments,2,stim/objects/Instruments/oboe2.png,0.9,3,-0.2,-0.15,right,67,2021-04-05_08h06.00.807,premup-three_ses-01_part-01_label-phase1,3.2.4,Win32,60,right,1.425000191,4,0,4,0,1,3,1,0,240,191,1,239,,,,,,,,,,,,,,,,,,
,,1,117,,,,,,,3,3,4,stim/34.jpeg,Instruments,2,stim/objects/Instruments/oboe2.png,0.9,1,-0.2,0.15,right,67,2021-04-05_08h06.00.807,premup-three_ses-01_part-01_label-phase1,3.2.4,Win32,60,right,1.183000088,4,0,4,0,1,3,1,0,240,183,1,239,,,,,,,,,,,,,,,,,,
,,1,118,,,,,,,1,6,3,stim/63.jpeg,HouseObjects,1,stim/objects/HouseObjects/pan.png,0.5,4,0.2,-0.15,left,67,2021-04-05_08h06.00.807,premup-three_ses-01_part-01_label-phase1,3.2.4,Win32,60,left,0.759000063,4,0,4,0,1,3,1,0,240,50,1,239,,,,,,,,,,,,,,,,,,
,,0,119,,,,,,,2,2,4,stim/24.jpeg,HouseObjects,1,stim/objects/HouseObjects/knife2.png,0.7,3,-0.2,-0.15,left,67,2021-04-05_08h06.00.807,premup-three_ses-01_part-01_label-phase1,3.2.4,Win32,60,right,1.121000051,4,0,4,0,1,3,1,0,240,143,1,239,,,,,,,,,,,,,,,,,,
,,0,120,,,,,,,1,6,1,stim/61.jpeg,Instruments,2,stim/objects/Instruments/metronome.png,0.5,1,-0.2,0.15,right,67,2021-04-05_08h06.00.807,premup-three_ses-01_part-01_label-phase1,3.2.4,Win32,60,left,0.694000006,4,0,4,0,1,3,1,0,240,72,1,239,,,,,,,,,,,,,,,,,,
,,1,121,,,,,,,3,3,2,stim/32.jpeg,Instruments,2,stim/objects/Instruments/musicsheet2.png,0.9,1,-0.2,0.15,right,67,2021-04-05_08h06.00.807,premup-three_ses-01_part-01_label-phase1,3.2.4,Win32,60,right,0.907000065,4,0,4,0,1,3,1,0,240,185,1,239,,,,,,,,,,,,,,,,,,
,,0,122,,,,,,,2,2,2,stim/22.jpeg,HouseObjects,1,stim/objects/HouseObjects/ironingboard2.png,0.7,3,-0.2,-0.15,left,67,2021-04-05_08h06.00.807,premup-three_ses-01_part-01_label-phase1,3.2.4,Win32,60,right,1.271000147,4,0,4,0,1,3,1,0,240,137,1,239,,,,,,,,,,,,,,,,,,
,,0,123,,,,,,,2,1,4,stim/14.jpeg,HouseObjects,1,stim/objects/HouseObjects/rug.png,0.3,2,0.2,0.15,left,67,2021-04-05_08h06.00.807,premup-three_ses-01_part-01_label-phase1,3.2.4,Win32,60,right,1.058000326,4,0,4,0,1,3,1,0,240,87,1,239,,,,,,,,,,,,,,,,,,
,,1,124,,,,,,,3,3,4,stim/34.jpeg,Instruments,2,stim/objects/Instruments/oboe2.png,0.9,2,0.2,0.15,right,67,2021-04-05_08h06.00.807,premup-three_ses-01_part-01_label-phase1,3.2.4,Win32,60,right,0.661999941,4,0,4,0,1,3,1,0,240,175,1,239,,,,,,,,,,,,,,,,,,
,,0,125,,,,,,,1,6,1,stim/61.jpeg,Instruments,2,stim/objects/Instruments/metronome.png,0.5,2,0.2,0.15,right,67,2021-04-05_08h06.00.807,premup-three_ses-01_part-01_label-phase1,3.2.4,Win32,60,left,0.764000177,4,0,4,0,1,3,1,0,240,60,1,239,,,,,,,,,,,,,,,,,,
,,0,126,,,,,,,1,5,3,stim/53.jpeg,HouseObjects,1,stim/objects/HouseObjects/key.png,0.5,4,0.2,-0.15,left,67,2021-04-05_08h06.00.807,premup-three_ses-01_part-01_label-phase1,3.2.4,Win32,60,right,0.948000193,4,0,4,0,1,3,1,0,240,18,1,239,,,,,,,,,,,,,,,,,,
,,1,127,,,,,,,1,5,2,stim/52.jpeg,Instruments,2,stim/objects/Instruments/laud.png,0.5,2,0.2,0.15,right,67,2021-04-05_08h06.00.807,premup-three_ses-01_part-01_label-phase1,3.2.4,Win32,60,right,1.021000147,4,0,4,0,1,3,1,0,240,21,1,239,,,,,,,,,,,,,,,,,,
,,1,128,,,,,,,1,6,1,stim/61.jpeg,HouseObjects,1,stim/objects/HouseObjects/lintroller.png,0.5,4,0.2,-0.15,left,67,2021-04-05_08h06.00.807,premup-three_ses-01_part-01_label-phase1,3.2.4,Win32,60,left,0.825000048,4,0,4,0,1,3,1,0,240,40,1,239,,,,,,,,,,,,,,,,,,
,,0,129,,,,,,,3,4,3,stim/43.jpeg,HouseObjects,1,stim/objects/HouseObjects/rubbergloves2.png,0.9,2,0.2,0.15,left,67,2021-04-05_08h06.00.807,premup-three_ses-01_part-01_label-phase1,3.2.4,Win32,60,right,0.818000078,4,0,4,0,1,3,1,0,240,218,1,239,,,,,,,,,,,,,,,,,,
,,1,130,,,,,,,1,5,3,stim/53.jpeg,Instruments,2,stim/objects/Instruments/maraca.png,0.5,2,0.2,0.15,right,67,2021-04-05_08h06.00.807,premup-three_ses-01_part-01_label-phase1,3.2.4,Win32,60,right,0.912000179,4,0,4,0,1,3,1,0,240,26,1,239,,,,,,,,,,,,,,,,,,
,,0,131,,,,,,,3,4,2,stim/42.jpeg,HouseObjects,1,stim/objects/HouseObjects/remote2.png,0.9,1,-0.2,0.15,left,67,2021-04-05_08h06.00.807,premup-three_ses-01_part-01_label-phase1,3.2.4,Win32,60,right,0.83700037,4,0,4,0,1,3,1,0,240,201,1,239,,,,,,,,,,,,,,,,,,
,,1,132,,,,,,,2,2,2,stim/22.jpeg,Instruments,2,stim/objects/Instruments/laud2.png,0.3,3,-0.2,-0.15,right,67,2021-04-05_08h06.00.807,premup-three_ses-01_part-01_label-phase1,3.2.4,Win32,60,right,1.329000235,4,0,4,0,1,3,1,0,240,153,1,239,,,,,,,,,,,,,,,,,,
,,1,133,,,,,,,1,5,2,stim/52.jpeg,HouseObjects,1,stim/objects/HouseObjects/ironingboard.png,0.5,2,0.2,0.15,left,67,2021-04-05_08h06.00.807,premup-three_ses-01_part-01_label-phase1,3.2.4,Win32,60,left,1.119000196,4,0,4,0,1,3,1,0,240,1,1,239,,,,,,,,,,,,,,,,,,
,,0,134,,,,,,,1,6,4,stim/64.jpeg,Instruments,2,stim/objects/Instruments/oboe.png,0.5,1,-0.2,0.15,right,67,2021-04-05_08h06.00.807,premup-three_ses-01_part-01_label-phase1,3.2.4,Win32,60,left,1.38800025,4,0,4,0,1,3,1,0,240,71,1,239,,,,,,,,,,,,,,,,,,
,,1,135,,,,,,,3,4,4,stim/44.jpeg,HouseObjects,1,stim/objects/HouseObjects/rug2.png,0.9,4,0.2,-0.15,left,67,2021-04-05_08h06.00.807,premup-three_ses-01_part-01_label-phase1,3.2.4,Win32,60,left,1.068000317,4,0,4,0,1,3,1,0,240,211,1,239,,,,,,,,,,,,,,,,,,
,,1,136,,,,,,,3,4,3,stim/43.jpeg,HouseObjects,1,stim/objects/HouseObjects/rubbergloves2.png,0.9,1,-0.2,0.15,left,67,2021-04-05_08h06.00.807,premup-three_ses-01_part-01_label-phase1,3.2.4,Win32,60,left,0.923000097,4,0,4,0,1,3,1,0,240,234,1,239,,,,,,,,,,,,,,,,,,
,,0,137,,,,,,,1,5,2,stim/52.jpeg,HouseObjects,1,stim/objects/HouseObjects/ironingboard.png,0.5,3,-0.2,-0.15,left,67,2021-04-05_08h06.00.807,premup-three_ses-01_part-01_label-phase1,3.2.4,Win32,60,right,0.679000139,4,0,4,0,1,3,1,0,240,5,1,239,,,,,,,,,,,,,,,,,,
,,1,138,,,,,,,3,3,1,stim/31.jpeg,Instruments,2,stim/objects/Instruments/metronome2.png,0.9,3,-0.2,-0.15,right,67,2021-04-05_08h06.00.807,premup-three_ses-01_part-01_label-phase1,3.2.4,Win32,60,right,0.928000212,4,0,4,0,1,3,1,0,240,184,1,239,,,,,,,,,,,,,,,,,,
,,1,139,,,,,,,3,4,2,stim/42.jpeg,HouseObjects,1,stim/objects/HouseObjects/remote2.png,0.9,2,0.2,0.15,left,67,2021-04-05_08h06.00.807,premup-three_ses-01_part-01_label-phase1,3.2.4,Win32,60,left,0.528000116,4,0,4,0,1,3,1,0,240,225,1,239,,,,,,,,,,,,,,,,,,
,,0,140,,,,,,,2,1,4,stim/14.jpeg,Instruments,2,stim/objects/Instruments/record_player.png,0.7,2,0.2,0.15,right,67,2021-04-05_08h06.00.807,premup-three_ses-01_part-01_label-phase1,3.2.4,Win32,60,left,1.144000292,4,0,4,0,1,3,1,0,240,107,1,239,,,,,,,,,,,,,,,,,,
,,1,141,,,,,,,3,4,4,stim/44.jpeg,HouseObjects,1,stim/objects/HouseObjects/rug2.png,0.9,1,-0.2,0.15,left,67,2021-04-05_08h06.00.807,premup-three_ses-01_part-01_label-phase1,3.2.4,Win32,60,left,0.535000086,4,0,4,0,1,3,1,0,240,207,1,239,,,,,,,,,,,,,,,,,,
,,0,142,,,,,,,2,1,4,stim/14.jpeg,HouseObjects,1,stim/objects/HouseObjects/rug.png,0.3,4,0.2,-0.15,left,67,2021-04-05_08h06.00.807,premup-three_ses-01_part-01_label-phase1,3.2.4,Win32,60,right,0.765000105,4,0,4,0,1,3,1,0,240,83,1,239,,,,,,,,,,,,,,,,,,
,,0,143,,,,,,,2,2,1,stim/21.jpeg,HouseObjects,1,stim/objects/HouseObjects/iron2.png,0.7,1,-0.2,0.15,left,67,2021-04-05_08h06.00.807,premup-three_ses-01_part-01_label-phase1,3.2.4,Win32,60,right,0.996999979,4,0,4,0,1,3,1,0,240,136,1,239,,,,,,,,,,,,,,,,,,
,,1,144,,,,,,,1,5,4,stim/54.jpeg,HouseObjects,1,stim/objects/HouseObjects/knife.png,0.5,2,0.2,0.15,left,67,2021-04-05_08h06.00.807,premup-three_ses-01_part-01_label-phase1,3.2.4,Win32,60,left,0.693000078,4,0,4,0,1,3,1,0,240,7,1,239,,,,,,,,,,,,,,,,,,
,,1,145,,,,,,,3,4,1,stim/41.jpeg,HouseObjects,1,stim/objects/HouseObjects/recyclingbin2.png,0.9,1,-0.2,0.15,left,67,2021-04-05_08h06.00.807,premup-three_ses-01_part-01_label-phase1,3.2.4,Win32,60,left,0.54700017,4,0,4,0,1,3,1,0,240,228,1,239,,,,,,,,,,,,,,,,,,
,,0,146,,,,,,,2,1,1,stim/11.jpeg,Instruments,2,stim/objects/Instruments/panflute.png,0.7,2,0.2,0.15,right,67,2021-04-05_08h06.00.807,premup-three_ses-01_part-01_label-phase1,3.2.4,Win32,60,left,0.673000097,4,0,4,0,1,3,1,0,240,96,1,239,,,,,,,,,,,,,,,,,,
,,0,147,,,,,,,2,1,1,stim/11.jpeg,HouseObjects,1,stim/objects/HouseObjects/recyclingbin.png,0.3,4,0.2,-0.15,left,67,2021-04-05_08h06.00.807,premup-three_ses-01_part-01_label-phase1,3.2.4,Win32,60,right,0.723000288,4,0,4,0,1,3,1,0,240,84,1,239,,,,,,,,,,,,,,,,,,
,,0,148,,,,,,,2,2,1,stim/21.jpeg,HouseObjects,1,stim/objects/HouseObjects/iron2.png,0.7,1,-0.2,0.15,left,67,2021-04-05_08h06.00.807,premup-three_ses-01_part-01_label-phase1,3.2.4,Win32,60,right,1.191000223,4,0,4,0,1,3,1,0,240,124,1,239,,,,,,,,,,,,,,,,,,
,,1,149,,,,,,,2,1,1,stim/11.jpeg,Instruments,2,stim/objects/Instruments/panflute.png,0.7,3,-0.2,-0.15,right,67,2021-04-05_08h06.00.807,premup-three_ses-01_part-01_label-phase1,3.2.4,Win32,60,right,1.29700017,4,0,4,0,1,3,1,0,240,116,1,239,,,,,,,,,,,,,,,,,,
,,1,150,,,,,,,2,1,1,stim/11.jpeg,Instruments,2,stim/objects/Instruments/panflute.png,0.7,3,-0.2,-0.15,right,67,2021-04-05_08h06.00.807,premup-three_ses-01_part-01_label-phase1,3.2.4,Win32,60,right,1.065000057,4,0,4,0,1,3,1,0,240,104,1,239,,,,,,,,,,,,,,,,,,
,,1,151,,,,,,,3,3,3,stim/33.jpeg,Instruments,2,stim/objects/Instruments/musicstand2.png,0.9,2,0.2,0.15,right,67,2021-04-05_08h06.00.807,premup-three_ses-01_part-01_label-phase1,3.2.4,Win32,60,right,1.195000172,4,0,4,0,1,3,1,0,240,198,1,239,,,,,,,,,,,,,,,,,,
,,1,152,,,,,,,1,6,2,stim/62.jpeg,Instruments,2,stim/objects/Instruments/musicsheet.png,0.5,2,0.2,0.15,right,67,2021-04-05_08h06.00.807,premup-three_ses-01_part-01_label-phase1,3.2.4,Win32,60,right,1.279000044,4,0,4,0,1,3,1,0,240,65,1,239,,,,,,,,,,,,,,,,,,
,,0,153,,,,,,,3,4,3,stim/43.jpeg,HouseObjects,1,stim/objects/HouseObjects/rubbergloves2.png,0.9,3,-0.2,-0.15,left,67,2021-04-05_08h06.00.807,premup-three_ses-01_part-01_label-phase1,3.2.4,Win32,60,right,1.166000366,4,0,4,0,1,3,1,0,240,230,1,239,,,,,,,,,,,,,,,,,,
,,0,154,,,,,,,3,4,2,stim/42.jpeg,Instruments,2,stim/objects/Instruments/pipepiano2.png,0.1,3,-0.2,-0.15,right,67,2021-04-05_08h06.00.807,premup-three_ses-01_part-01_label-phase1,3.2.4,Win32,60,left,0.54700017,4,0,4,0,1,3,1,0,240,237,1,239,,,,,,,,,,,,,,,,,,
,,1,155,,,,,,,2,2,3,stim/23.jpeg,Instruments,2,stim/objects/Instruments/maraca2.png,0.3,1,-0.2,0.15,right,67,2021-04-05_08h06.00.807,premup-three_ses-01_part-01_label-phase1,3.2.4,Win32,60,right,0.886000156,4,0,4,0,1,3,1,0,240,150,1,239,,,,,,,,,,,,,,,,,,
,,0,156,,,,,,,3,3,3,stim/33.jpeg,Instruments,2,stim/objects/Instruments/musicstand2.png,0.9,1,-0.2,0.15,right,67,2021-04-05_08h06.00.807,premup-three_ses-01_part-01_label-phase1,3.2.4,Win32,60,left,1.069000006,4,0,4,0,1,3,1,0,240,194,1,239,,,,,,,,,,,,,,,,,,
,,1,157,,,,,,,3,4,3,stim/43.jpeg,HouseObjects,1,stim/objects/HouseObjects/rubbergloves2.png,0.9,4,0.2,-0.15,left,67,2021-04-05_08h06.00.807,premup-three_ses-01_part-01_label-phase1,3.2.4,Win32,60,left,0.6650002,4,0,4,0,1,3,1,0,240,202,1,239,,,,,,,,,,,,,,,,,,
,,1,158,,,,,,,3,3,3,stim/33.jpeg,Instruments,2,stim/objects/Instruments/musicstand2.png,0.9,2,0.2,0.15,right,67,2021-04-05_08h06.00.807,premup-three_ses-01_part-01_label-phase1,3.2.4,Win32,60,right,0.628999949,4,0,4,0,1,3,1,0,240,190,1,239,,,,,,,,,,,,,,,,,,
,,1,159,,,,,,,3,3,1,stim/31.jpeg,Instruments,2,stim/objects/Instruments/metronome2.png,0.9,1,-0.2,0.15,right,67,2021-04-05_08h06.00.807,premup-three_ses-01_part-01_label-phase1,3.2.4,Win32,60,right,0.556000233,4,0,4,0,1,3,1,0,240,196,1,239,,,,,,,,,,,,,,,,,,
,,1,160,,,,,,,2,2,2,stim/22.jpeg,HouseObjects,1,stim/objects/HouseObjects/ironingboard2.png,0.7,3,-0.2,-0.15,left,67,2021-04-05_08h06.00.807,premup-three_ses-01_part-01_label-phase1,3.2.4,Win32,60,left,0.600000143,4,0,4,0,1,3,1,0,240,121,1,239,,,,,,,,,,,,,,,,,,
,,0,161,,,,,,,1,5,3,stim/53.jpeg,Instruments,2,stim/objects/Instruments/maraca.png,0.5,3,-0.2,-0.15,right,67,2021-04-05_08h06.00.807,premup-three_ses-01_part-01_label-phase1,3.2.4,Win32,60,left,0.970000267,4,0,4,0,1,3,1,0,240,30,1,239,,,,,,,,,,,,,,,,,,
,,1,162,,,,,,,1,5,1,stim/51.jpeg,HouseObjects,1,stim/objects/HouseObjects/iron.png,0.5,1,-0.2,0.15,left,67,2021-04-05_08h06.00.807,premup-three_ses-01_part-01_label-phase1,3.2.4,Win32,60,left,1.065000057,4,0,4,0,1,3,1,0,240,8,1,239,,,,,,,,,,,,,,,,,,
,,1,163,,,,,,,3,4,4,stim/44.jpeg,HouseObjects,1,stim/objects/HouseObjects/rug2.png,0.9,2,0.2,0.15,left,67,2021-04-05_08h06.00.807,premup-three_ses-01_part-01_label-phase1,3.2.4,Win32,60,left,0.885000229,4,0,4,0,1,3,1,0,240,227,1,239,,,,,,,,,,,,,,,,,,
,,1,164,,,,,,,3,4,4,stim/44.jpeg,HouseObjects,1,stim/objects/HouseObjects/rug2.png,0.9,4,0.2,-0.15,left,67,2021-04-05_08h06.00.807,premup-three_ses-01_part-01_label-phase1,3.2.4,Win32,60,left,0.477000237,4,0,4,0,1,3,1,0,240,215,1,239,,,,,,,,,,,,,,,,,,
,,1,165,,,,,,,3,3,3,stim/33.jpeg,Instruments,2,stim/objects/Instruments/musicstand2.png,0.9,4,0.2,-0.15,right,67,2021-04-05_08h06.00.807,premup-three_ses-01_part-01_label-phase1,3.2.4,Win32,60,right,0.737000227,4,0,4,0,1,3,1,0,240,178,1,239,,,,,,,,,,,,,,,,,,
,,1,166,,,,,,,3,3,2,stim/32.jpeg,Instruments,2,stim/objects/Instruments/musicsheet2.png,0.9,3,-0.2,-0.15,right,67,2021-04-05_08h06.00.807,premup-three_ses-01_part-01_label-phase1,3.2.4,Win32,60,right,0.64199996,4,0,4,0,1,3,1,0,240,193,1,239,,,,,,,,,,,,,,,,,,
,,1,167,,,,,,,2,1,4,stim/14.jpeg,Instruments,2,stim/objects/Instruments/record_player.png,0.7,1,-0.2,0.15,right,67,2021-04-05_08h06.00.807,premup-three_ses-01_part-01_label-phase1,3.2.4,Win32,60,right,1.053000212,4,0,4,0,1,3,1,0,240,99,1,239,,,,,,,,,,,,,,,,,,
,,1,168,,,,,,,2,2,1,stim/21.jpeg,HouseObjects,1,stim/objects/HouseObjects/iron2.png,0.7,1,-0.2,0.15,left,67,2021-04-05_08h06.00.807,premup-three_ses-01_part-01_label-phase1,3.2.4,Win32,60,left,0.959000111,4,0,4,0,1,3,1,0,240,120,1,239,,,,,,,,,,,,,,,,,,
,,1,169,,,,,,,3,3,4,stim/34.jpeg,Instruments,2,stim/objects/Instruments/oboe2.png,0.9,4,0.2,-0.15,right,67,2021-04-05_08h06.00.807,premup-three_ses-01_part-01_label-phase1,3.2.4,Win32,60,right,0.661999941,4,0,4,0,1,3,1,0,240,167,1,239,,,,,,,,,,,,,,,,,,
,,0,170,,,,,,,3,3,4,stim/34.jpeg,HouseObjects,1,stim/objects/HouseObjects/pitcher2.png,0.1,3,-0.2,-0.15,left,67,2021-04-05_08h06.00.807,premup-three_ses-01_part-01_label-phase1,3.2.4,Win32,60,right,0.510000229,4,0,4,0,1,3,1,0,240,163,1,239,,,,,,,,,,,,,,,,,,
,,1,171,,,,,,,3,4,1,stim/41.jpeg,HouseObjects,1,stim/objects/HouseObjects/recyclingbin2.png,0.9,2,0.2,0.15,left,67,2021-04-05_08h06.00.807,premup-three_ses-01_part-01_label-phase1,3.2.4,Win32,60,left,1.01300025,4,0,4,0,1,3,1,0,240,216,1,239,,,,,,,,,,,,,,,,,,
,,1,172,,,,,,,1,6,2,stim/62.jpeg,HouseObjects,1,stim/objects/HouseObjects/match.png,0.5,1,-0.2,0.15,left,67,2021-04-05_08h06.00.807,premup-three_ses-01_part-01_label-phase1,3.2.4,Win32,60,left,0.963000059,4,0,4,0,1,3,1,0,240,49,1,239,,,,,,,,,,,,,,,,,,
,,1,173,,,,,,,1,5,1,stim/51.jpeg,HouseObjects,1,stim/objects/HouseObjects/iron.png,0.5,2,0.2,0.15,left,67,2021-04-05_08h06.00.807,premup-three_ses-01_part-01_label-phase1,3.2.4,Win32,60,left,0.723000288,4,0,4,0,1,3,1,0,240,12,1,239,,,,,,,,,,,,,,,,,,
,,0,174,,,,,,,3,4,3,stim/43.jpeg,Instruments,2,stim/objects/Instruments/record2.png,0.1,3,-0.2,-0.15,right,67,2021-04-05_08h06.00.807,premup-three_ses-01_part-01_label-phase1,3.2.4,Win32,60,left,0.684000254,4,0,4,0,1,3,1,0,240,238,1,239,,,,,,,,,,,,,,,,,,
,,0,175,,,,,,,2,1,2,stim/12.jpeg,HouseObjects,1,stim/objects/HouseObjects/remote.png,0.3,2,0.2,0.15,left,67,2021-04-05_08h06.00.807,premup-three_ses-01_part-01_label-phase1,3.2.4,Win32,60,right,0.805999994,4,0,4,0,1,3,1,0,240,81,1,239,,,,,,,,,,,,,,,,,,
,,0,176,,,,,,,1,6,2,stim/62.jpeg,Instruments,2,stim/objects/Instruments/musicsheet.png,0.5,1,-0.2,0.15,right,67,2021-04-05_08h06.00.807,premup-three_ses-01_part-01_label-phase1,3.2.4,Win32,60,left,0.81400013,4,0,4,0,1,3,1,0,240,69,1,239,,,,,,,,,,,,,,,,,,
,,0,177,,,,,,,2,1,4,stim/14.jpeg,Instruments,2,stim/objects/Instruments/record_player.png,0.7,3,-0.2,-0.15,right,67,2021-04-05_08h06.00.807,premup-three_ses-01_part-01_label-phase1,3.2.4,Win32,60,left,1.235000134,4,0,4,0,1,3,1,0,240,95,1,239,,,,,,,,,,,,,,,,,,
,,1,178,,,,,,,3,4,1,stim/41.jpeg,HouseObjects,1,stim/objects/HouseObjects/recyclingbin2.png,0.9,1,-0.2,0.15,left,67,2021-04-05_08h06.00.807,premup-three_ses-01_part-01_label-phase1,3.2.4,Win32,60,left,0.663000345,4,0,4,0,1,3,1,0,240,208,1,239,,,,,,,,,,,,,,,,,,
,,1,179,,,,,,,2,1,2,stim/12.jpeg,Instruments,2,stim/objects/Instruments/pipepiano.png,0.7,2,0.2,0.15,right,67,2021-04-05_08h06.00.807,premup-three_ses-01_part-01_label-phase1,3.2.4,Win32,60,right,0.758000135,4,0,4,0,1,3,1,0,240,109,1,239,,,,,,,,,,,,,,,,,,
,,0,180,,,,,,,1,6,3,stim/63.jpeg,Instruments,2,stim/objects/Instruments/musicstand.png,0.5,4,0.2,-0.15,right,67,2021-04-05_08h06.00.807,premup-three_ses-01_part-01_label-phase1,3.2.4,Win32,60,left,0.812000036,4,0,4,0,1,3,1,0,240,62,1,239,,,,,,,,,,,,,,,,,,
,,0,181,,,,,,,1,5,1,stim/51.jpeg,Instruments,2,stim/objects/Instruments/keyboard.png,0.5,4,0.2,-0.15,right,67,2021-04-05_08h06.00.807,premup-three_ses-01_part-01_label-phase1,3.2.4,Win32,60,left,1.103000164,4,0,4,0,1,3,1,0,240,36,1,239,,,,,,,,,,,,,,,,,,
,,0,182,,,,,,,1,6,3,stim/63.jpeg,Instruments,2,stim/objects/Instruments/musicstand.png,0.5,1,-0.2,0.15,right,67,2021-04-05_08h06.00.807,premup-three_ses-01_part-01_label-phase1,3.2.4,Win32,60,left,1.244000196,4,0,4,0,1,3,1,0,240,74,1,239,,,,,,,,,,,,,,,,,,
,,1,183,,,,,,,2,1,4,stim/14.jpeg,Instruments,2,stim/objects/Instruments/record_player.png,0.7,4,0.2,-0.15,right,67,2021-04-05_08h06.00.807,premup-three_ses-01_part-01_label-phase1,3.2.4,Win32,60,right,0.972000122,4,0,4,0,1,3,1,0,240,119,1,239,,,,,,,,,,,,,,,,,,
,,0,184,,,,,,,1,6,2,stim/62.jpeg,HouseObjects,1,stim/objects/HouseObjects/match.png,0.5,3,-0.2,-0.15,left,67,2021-04-05_08h06.00.807,premup-three_ses-01_part-01_label-phase1,3.2.4,Win32,60,right,0.994000196,4,0,4,0,1,3,1,0,240,41,1,239,,,,,,,,,,,,,,,,,,
,,1,185,,,,,,,3,3,4,stim/34.jpeg,Instruments,2,stim/objects/Instruments/oboe2.png,0.9,4,0.2,-0.15,right,67,2021-04-05_08h06.00.807,premup-three_ses-01_part-01_label-phase1,3.2.4,Win32,60,right,1.467000246,4,0,4,0,1,3,1,0,240,179,1,239,,,,,,,,,,,,,,,,,,
,,1,186,,,,,,,3,4,3,stim/43.jpeg,HouseObjects,1,stim/objects/HouseObjects/rubbergloves2.png,0.9,4,0.2,-0.15,left,67,2021-04-05_08h06.00.807,premup-three_ses-01_part-01_label-phase1,3.2.4,Win32,60,left,0.819000244,4,0,4,0,1,3,1,0,240,222,1,239,,,,,,,,,,,,,,,,,,
,,0,187,,,,,,,2,1,1,stim/11.jpeg,HouseObjects,1,stim/objects/HouseObjects/recyclingbin.png,0.3,1,-0.2,0.15,left,67,2021-04-05_08h06.00.807,premup-three_ses-01_part-01_label-phase1,3.2.4,Win32,60,right,0.883000135,4,0,4,0,1,3,1,0,240,80,1,239,,,,,,,,,,,,,,,,,,
,,0,188,,,,,,,1,6,1,stim/61.jpeg,Instruments,2,stim/objects/Instruments/metronome.png,0.5,3,-0.2,-0.15,right,67,2021-04-05_08h06.00.807,premup-three_ses-01_part-01_label-phase1,3.2.4,Win32,60,left,0.812000275,4,0,4,0,1,3,1,0,240,76,1,239,,,,,,,,,,,,,,,,,,
,,1,189,,,,,,,2,2,2,stim/22.jpeg,HouseObjects,1,stim/objects/HouseObjects/ironingboard2.png,0.7,3,-0.2,-0.15,left,67,2021-04-05_08h06.00.807,premup-three_ses-01_part-01_label-phase1,3.2.4,Win32,60,left,1.633000135,4,0,4,0,1,3,1,0,240,129,1,239,,,,,,,,,,,,,,,,,,
,,0,190,,,,,,,2,1,2,stim/12.jpeg,Instruments,2,stim/objects/Instruments/pipepiano.png,0.7,2,0.2,0.15,right,67,2021-04-05_08h06.00.807,premup-three_ses-01_part-01_label-phase1,3.2.4,Win32,60,left,0.927000046,4,0,4,0,1,3,1,0,240,105,1,239,,,,,,,,,,,,,,,,,,
,,1,191,,,,,,,1,5,1,stim/51.jpeg,Instruments,2,stim/objects/Instruments/keyboard.png,0.5,1,-0.2,0.15,right,67,2021-04-05_08h06.00.807,premup-three_ses-01_part-01_label-phase1,3.2.4,Win32,60,right,0.924000025,4,0,4,0,1,3,1,0,240,24,1,239,,,,,,,,,,,,,,,,,,
,,0,192,,,,,,,3,4,4,stim/44.jpeg,HouseObjects,1,stim/objects/HouseObjects/rug2.png,0.9,4,0.2,-0.15,left,67,2021-04-05_08h06.00.807,premup-three_ses-01_part-01_label-phase1,3.2.4,Win32,60,right,0.910000086,4,0,4,0,1,3,1,0,240,235,1,239,,,,,,,,,,,,,,,,,,
,,1,193,,,,,,,1,6,3,stim/63.jpeg,HouseObjects,1,stim/objects/HouseObjects/pan.png,0.5,3,-0.2,-0.15,left,67,2021-04-05_08h06.00.807,premup-three_ses-01_part-01_label-phase1,3.2.4,Win32,60,left,0.855000257,4,0,4,0,1,3,1,0,240,54,1,239,,,,,,,,,,,,,,,,,,
,,0,194,,,,,,,3,3,1,stim/31.jpeg,HouseObjects,1,stim/objects/HouseObjects/lintroller2.png,0.1,4,0.2,-0.15,left,67,2021-04-05_08h06.00.807,premup-three_ses-01_part-01_label-phase1,3.2.4,Win32,60,right,1.03000021,4,0,4,0,1,3,1,0,240,160,1,239,,,,,,,,,,,,,,,,,,
,,0,195,,,,,,,2,1,4,stim/14.jpeg,Instruments,2,stim/objects/Instruments/record_player.png,0.7,3,-0.2,-0.15,right,67,2021-04-05_08h06.00.807,premup-three_ses-01_part-01_label-phase1,3.2.4,Win32,60,left,1.292000055,4,0,4,0,1,3,1,0,240,111,1,239,,,,,,,,,,,,,,,,,,
,,0,196,,,,,,,3,3,4,stim/34.jpeg,Instruments,2,stim/objects/Instruments/oboe2.png,0.9,2,0.2,0.15,right,67,2021-04-05_08h06.00.807,premup-three_ses-01_part-01_label-phase1,3.2.4,Win32,60,left,1.183000088,4,0,4,0,1,3,1,0,240,187,1,239,,,,,,,,,,,,,,,,,,
,,1,197,,,,,,,2,1,4,stim/14.jpeg,Instruments,2,stim/objects/Instruments/record_player.png,0.7,4,0.2,-0.15,right,67,2021-04-05_08h06.00.807,premup-three_ses-01_part-01_label-phase1,3.2.4,Win32,60,right,0.985000372,4,0,4,0,1,3,1,0,240,115,1,239,,,,,,,,,,,,,,,,,,
,,1,198,,,,,,,3,4,2,stim/42.jpeg,HouseObjects,1,stim/objects/HouseObjects/remote2.png,0.9,3,-0.2,-0.15,left,67,2021-04-05_08h06.00.807,premup-three_ses-01_part-01_label-phase1,3.2.4,Win32,60,left,1.04700017,4,0,4,0,1,3,1,0,240,221,1,239,,,,,,,,,,,,,,,,,,
,,1,199,,,,,,,2,2,3,stim/23.jpeg,Instruments,2,stim/objects/Instruments/maraca2.png,0.3,2,0.2,0.15,right,67,2021-04-05_08h06.00.807,premup-three_ses-01_part-01_label-phase1,3.2.4,Win32,60,right,0.859000206,4,0,4,0,1,3,1,0,240,154,1,239,,,,,,,,,,,,,,,,,,
,,0,200,,,,,,,2,2,4,stim/24.jpeg,Instruments,2,stim/objects/Instruments/marimba2.png,0.3,2,0.2,0.15,right,67,2021-04-05_08h06.00.807,premup-three_ses-01_part-01_label-phase1,3.2.4,Win32,60,left,1.169000149,4,0,4,0,1,3,1,0,240,155,1,239,,,,,,,,,,,,,,,,,,
,,0,201,,,,,,,3,3,2,stim/32.jpeg,HouseObjects,1,stim/objects/HouseObjects/match2.png,0.1,4,0.2,-0.15,left,67,2021-04-05_08h06.00.807,premup-three_ses-01_part-01_label-phase1,3.2.4,Win32,60,right,0.698000193,4,0,4,0,1,3,1,0,240,161,1,239,,,,,,,,,,,,,,,,,,
,,1,202,,,,,,,3,4,2,stim/42.jpeg,HouseObjects,1,stim/objects/HouseObjects/remote2.png,0.9,1,-0.2,0.15,left,67,2021-04-05_08h06.00.807,premup-three_ses-01_part-01_label-phase1,3.2.4,Win32,60,left,0.820000172,4,0,4,0,1,3,1,0,240,209,1,239,,,,,,,,,,,,,,,,,,
,,1,203,,,,,,,3,3,3,stim/33.jpeg,Instruments,2,stim/objects/Instruments/musicstand2.png,0.9,2,0.2,0.15,right,67,2021-04-05_08h06.00.807,premup-three_ses-01_part-01_label-phase1,3.2.4,Win32,60,right,0.973999977,4,0,4,0,1,3,1,0,240,174,1,239,,,,,,,,,,,,,,,,,,
,,1,204,,,,,,,2,2,4,stim/24.jpeg,HouseObjects,1,stim/objects/HouseObjects/knife2.png,0.7,2,0.2,0.15,left,67,2021-04-05_08h06.00.807,premup-three_ses-01_part-01_label-phase1,3.2.4,Win32,60,left,0.857000113,4,0,4,0,1,3,1,0,240,131,1,239,,,,,,,,,,,,,,,,,,
,,0,205,,,,,,,2,2,4,stim/24.jpeg,Instruments,2,stim/objects/Instruments/marimba2.png,0.3,2,0.2,0.15,right,67,2021-04-05_08h06.00.807,premup-three_ses-01_part-01_label-phase1,3.2.4,Win32,60,left,0.482000351,4,0,4,0,1,3,1,0,240,159,1,239,,,,,,,,,,,,,,,,,,
,,1,206,,,,,,,2,1,1,stim/11.jpeg,Instruments,2,stim/objects/Instruments/panflute.png,0.7,1,-0.2,0.15,right,67,2021-04-05_08h06.00.807,premup-three_ses-01_part-01_label-phase1,3.2.4,Win32,60,right,0.884000063,4,0,4,0,1,3,1,0,240,108,1,239,,,,,,,,,,,,,,,,,,
,,1,207,,,,,,,1,5,4,stim/54.jpeg,HouseObjects,1,stim/objects/HouseObjects/knife.png,0.5,4,0.2,-0.15,left,67,2021-04-05_08h06.00.807,premup-three_ses-01_part-01_label-phase1,3.2.4,Win32,60,left,0.830000162,4,0,4,0,1,3,1,0,240,3,1,239,,,,,,,,,,,,,,,,,,
,,1,208,,,,,,,1,5,4,stim/54.jpeg,Instruments,2,stim/objects/Instruments/marimba.png,0.5,2,0.2,0.15,right,67,2021-04-05_08h06.00.807,premup-three_ses-01_part-01_label-phase1,3.2.4,Win32,60,right,0.960000038,4,0,4,0,1,3,1,0,240,23,1,239,,,,,,,,,,,,,,,,,,
,,1,209,,,,,,,2,1,1,stim/11.jpeg,Instruments,2,stim/objects/Instruments/panflute.png,0.7,1,-0.2,0.15,right,67,2021-04-05_08h06.00.807,premup-three_ses-01_part-01_label-phase1,3.2.4,Win32,60,right,0.964000225,4,0,4,0,1,3,1,0,240,92,1,239,,,,,,,,,,,,,,,,,,
,,1,210,,,,,,,1,6,4,stim/64.jpeg,HouseObjects,1,stim/objects/HouseObjects/pitcher.png,0.5,3,-0.2,-0.15,left,67,2021-04-05_08h06.00.807,premup-three_ses-01_part-01_label-phase1,3.2.4,Win32,60,left,0.859000206,4,0,4,0,1,3,1,0,240,47,1,239,,,,,,,,,,,,,,,,,,
,,0,211,,,,,,,2,1,3,stim/13.jpeg,Instruments,2,stim/objects/Instruments/record.png,0.7,1,-0.2,0.15,right,67,2021-04-05_08h06.00.807,premup-three_ses-01_part-01_label-phase1,3.2.4,Win32,60,left,1.017000198,4,0,4,0,1,3,1,0,240,118,1,239,,,,,,,,,,,,,,,,,,
,,0,212,,,,,,,1,6,4,stim/64.jpeg,HouseObjects,1,stim/objects/HouseObjects/pitcher.png,0.5,3,-0.2,-0.15,left,67,2021-04-05_08h06.00.807,premup-three_ses-01_part-01_label-phase1,3.2.4,Win32,60,right,1.628000259,4,0,4,0,1,3,1,0,240,43,1,239,,,,,,,,,,,,,,,,,,
,,1,213,,,,,,,1,6,4,stim/64.jpeg,HouseObjects,1,stim/objects/HouseObjects/pitcher.png,0.5,1,-0.2,0.15,left,67,2021-04-05_08h06.00.807,premup-three_ses-01_part-01_label-phase1,3.2.4,Win32,60,left,0.816000223,4,0,4,0,1,3,1,0,240,55,1,239,,,,,,,,,,,,,,,,,,
,,1,214,,,,,,,2,1,2,stim/12.jpeg,Instruments,2,stim/objects/Instruments/pipepiano.png,0.7,1,-0.2,0.15,right,67,2021-04-05_08h06.00.807,premup-three_ses-01_part-01_label-phase1,3.2.4,Win32,60,right,1.577000141,4,0,4,0,1,3,1,0,240,117,1,239,,,,,,,,,,,,,,,,,,
,,0,215,,,,,,,2,2,1,stim/21.jpeg,HouseObjects,1,stim/objects/HouseObjects/iron2.png,0.7,2,0.2,0.15,left,67,2021-04-05_08h06.00.807,premup-three_ses-01_part-01_label-phase1,3.2.4,Win32,60,right,1.499000072,4,0,4,0,1,3,1,0,240,144,1,239,,,,,,,,,,,,,,,,,,
,,0,216,,,,,,,2,2,3,stim/23.jpeg,HouseObjects,1,stim/objects/HouseObjects/key2.png,0.7,4,0.2,-0.15,left,67,2021-04-05_08h06.00.807,premup-three_ses-01_part-01_label-phase1,3.2.4,Win32,60,right,1.594000101,4,0,4,0,1,3,1,0,240,122,1,239,,,,,,,,,,,,,,,,,,
,,1,217,,,,,,,3,3,1,stim/31.jpeg,Instruments,2,stim/objects/Instruments/metronome2.png,0.9,1,-0.2,0.15,right,67,2021-04-05_08h06.00.807,premup-three_ses-01_part-01_label-phase1,3.2.4,Win32,60,right,0.722000122,4,0,4,0,1,3,1,0,240,164,1,239,,,,,,,,,,,,,,,,,,
,,1,218,,,,,,,2,1,1,stim/11.jpeg,HouseObjects,1,stim/objects/HouseObjects/recyclingbin.png,0.3,2,0.2,0.15,left,67,2021-04-05_08h06.00.807,premup-three_ses-01_part-01_label-phase1,3.2.4,Win32,60,left,0.907000065,4,0,4,0,1,3,1,0,240,88,1,239,,,,,,,,,,,,,,,,,,
,,0,219,,,,,,,1,6,2,stim/62.jpeg,Instruments,2,stim/objects/Instruments/musicsheet.png,0.5,4,0.2,-0.15,right,67,2021-04-05_08h06.00.807,premup-three_ses-01_part-01_label-phase1,3.2.4,Win32,60,left,1.34800005,4,0,4,0,1,3,1,0,240,61,1,239,,,,,,,,,,,,,,,,,,
,,1,220,,,,,,,3,4,2,stim/42.jpeg,HouseObjects,1,stim/objects/HouseObjects/remote2.png,0.9,2,0.2,0.15,left,67,2021-04-05_08h06.00.807,premup-three_ses-01_part-01_label-phase1,3.2.4,Win32,60,left,0.996000051,4,0,4,0,1,3,1,0,240,213,1,239,,,,,,,,,,,,,,,,,,
,,1,221,,,,,,,3,3,3,stim/33.jpeg,Instruments,2,stim/objects/Instruments/musicstand2.png,0.9,2,0.2,0.15,right,67,2021-04-05_08h06.00.807,premup-three_ses-01_part-01_label-phase1,3.2.4,Win32,60,right,0.982000113,4,0,4,0,1,3,1,0,240,166,1,239,,,,,,,,,,,,,,,,,,
,,1,222,,,,,,,1,5,1,stim/51.jpeg,HouseObjects,1,stim/objects/HouseObjects/iron.png,0.5,3,-0.2,-0.15,left,67,2021-04-05_08h06.00.807,premup-three_ses-01_part-01_label-phase1,3.2.4,Win32,60,left,0.836000204,4,0,4,0,1,3,1,0,240,0,1,239,,,,,,,,,,,,,,,,,,
,,0,223,,,,,,,1,5,4,stim/54.jpeg,HouseObjects,1,stim/objects/HouseObjects/knife.png,0.5,1,-0.2,0.15,left,67,2021-04-05_08h06.00.807,premup-three_ses-01_part-01_label-phase1,3.2.4,Win32,60,right,0.976000309,4,0,4,0,1,3,1,0,240,11,1,239,,,,,,,,,,,,,,,,,,
,,1,224,,,,,,,2,2,3,stim/23.jpeg,HouseObjects,1,stim/objects/HouseObjects/key2.png,0.7,2,0.2,0.15,left,67,2021-04-05_08h06.00.807,premup-three_ses-01_part-01_label-phase1,3.2.4,Win32,60,left,1.272000313,4,0,4,0,1,3,1,0,240,134,1,239,,,,,,,,,,,,,,,,,,
,,0,225,,,,,,,1,5,2,stim/52.jpeg,Instruments,2,stim/objects/Instruments/laud.png,0.5,4,0.2,-0.15,right,67,2021-04-05_08h06.00.807,premup-three_ses-01_part-01_label-phase1,3.2.4,Win32,60,left,1.237000227,4,0,4,0,1,3,1,0,240,33,1,239,,,,,,,,,,,,,,,,,,
,,0,226,,,,,,,1,6,3,stim/63.jpeg,Instruments,2,stim/objects/Instruments/musicstand.png,0.5,1,-0.2,0.15,right,67,2021-04-05_08h06.00.807,premup-three_ses-01_part-01_label-phase1,3.2.4,Win32,60,left,0.775000334,4,0,4,0,1,3,1,0,240,66,1,239,,,,,,,,,,,,,,,,,,
,,1,227,,,,,,,3,3,2,stim/32.jpeg,Instruments,2,stim/objects/Instruments/musicsheet2.png,0.9,3,-0.2,-0.15,right,67,2021-04-05_08h06.00.807,premup-three_ses-01_part-01_label-phase1,3.2.4,Win32,60,right,1.442000151,4,0,4,0,1,3,1,0,240,169,1,239,,,,,,,,,,,,,,,,,,
,,1,228,,,,,,,2,1,1,stim/11.jpeg,Instruments,2,stim/objects/Instruments/panflute.png,0.7,3,-0.2,-0.15,right,67,2021-04-05_08h06.00.807,premup-three_ses-01_part-01_label-phase1,3.2.4,Win32,60,right,1.043000221,4,0,4,0,1,3,1,0,240,100,1,239,,,,,,,,,,,,,,,,,,
,,1,229,,,,,,,2,1,2,stim/12.jpeg,HouseObjects,1,stim/objects/HouseObjects/remote.png,0.3,1,-0.2,0.15,left,67,2021-04-05_08h06.00.807,premup-three_ses-01_part-01_label-phase1,3.2.4,Win32,60,left,0.980000019,4,0,4,0,1,3,1,0,240,89,1,239,,,,,,,,,,,,,,,,,,
,,0,230,,,,,,,1,5,4,stim/54.jpeg,Instruments,2,stim/objects/Instruments/marimba.png,0.5,2,0.2,0.15,right,67,2021-04-05_08h06.00.807,premup-three_ses-01_part-01_label-phase1,3.2.4,Win32,60,left,0.940000057,4,0,4,0,1,3,1,0,240,27,1,239,,,,,,,,,,,,,,,,,,
,,1,231,,,,,,,3,4,1,stim/41.jpeg,HouseObjects,1,stim/objects/HouseObjects/recyclingbin2.png,0.9,3,-0.2,-0.15,left,67,2021-04-05_08h06.00.807,premup-three_ses-01_part-01_label-phase1,3.2.4,Win32,60,left,1.078000307,4,0,4,0,1,3,1,0,240,212,1,239,,,,,,,,,,,,,,,,,,
,,1,232,,,,,,,2,2,2,stim/22.jpeg,Instruments,2,stim/objects/Instruments/laud2.png,0.3,4,0.2,-0.15,right,67,2021-04-05_08h06.00.807,premup-three_ses-01_part-01_label-phase1,3.2.4,Win32,60,right,0.754000187,4,0,4,0,1,3,1,0,240,149,1,239,,,,,,,,,,,,,,,,,,
,,1,233,,,,,,,3,4,4,stim/44.jpeg,HouseObjects,1,stim/objects/HouseObjects/rug2.png,0.9,4,0.2,-0.15,left,67,2021-04-05_08h06.00.807,premup-three_ses-01_part-01_label-phase1,3.2.4,Win32,60,left,0.657000303,4,0,4,0,1,3,1,0,240,223,1,239,,,,,,,,,,,,,,,,,,
,,1,234,,,,,,,3,3,2,stim/32.jpeg,Instruments,2,stim/objects/Instruments/musicsheet2.png,0.9,4,0.2,-0.15,right,67,2021-04-05_08h06.00.807,premup-three_ses-01_part-01_label-phase1,3.2.4,Win32,60,right,0.859000206,4,0,4,0,1,3,1,0,240,197,1,239,,,,,,,,,,,,,,,,,,
,,0,235,,,,,,,1,5,4,stim/54.jpeg,Instruments,2,stim/objects/Instruments/marimba.png,0.5,3,-0.2,-0.15,right,67,2021-04-05_08h06.00.807,premup-three_ses-01_part-01_label-phase1,3.2.4,Win32,60,left,0.86400032,4,0,4,0,1,3,1,0,240,39,1,239,,,,,,,,,,,,,,,,,,
,,1,236,,,,,,,2,1,3,stim/13.jpeg,Instruments,2,stim/objects/Instruments/record.png,0.7,2,0.2,0.15,right,67,2021-04-05_08h06.00.807,premup-three_ses-01_part-01_label-phase1,3.2.4,Win32,60,right,1.238000154,4,0,4,0,1,3,1,0,240,98,1,239,,,,,,,,,,,,,,,,,,
,,1,237,,,,,,,3,3,2,stim/32.jpeg,Instruments,2,stim/objects/Instruments/musicsheet2.png,0.9,4,0.2,-0.15,right,67,2021-04-05_08h06.00.807,premup-three_ses-01_part-01_label-phase1,3.2.4,Win32,60,right,0.819000244,4,0,4,0,1,3,1,0,240,177,1,239,,,,,,,,,,,,,,,,,,
,,0,238,,,,,,,1,6,1,stim/61.jpeg,Instruments,2,stim/objects/Instruments/metronome.png,0.5,2,0.2,0.15,right,67,2021-04-05_08h06.00.807,premup-three_ses-01_part-01_label-phase1,3.2.4,Win32,60,left,0.746000051,4,0,4,0,1,3,1,0,240,64,1,239,,,,,,,,,,,,,,,,,,
,,1,239,,,,,,,2,2,3,stim/23.jpeg,Instruments,2,stim/objects/Instruments/maraca2.png,0.3,1,-0.2,0.15,right,67,2021-04-05_08h06.00.807,premup-three_ses-01_part-01_label-phase1,3.2.4,Win32,60,right,1.070000172,4,0,4,0,1,3,1,0,240,158,1,239,,,,,,,,,,,,,,,,,,
,,1,240,,,,,,,1,6,2,stim/62.jpeg,HouseObjects,1,stim/objects/HouseObjects/match.png,0.5,4,0.2,-0.15,left,67,2021-04-05_08h06.00.807,premup-three_ses-01_part-01_label-phase1,3.2.4,Win32,60,left,0.911000252,4,0,4,0,1,3,1,0,240,45,1,239,,,,,,,,,,,,,,,,,,
,,,,,,,,,,,6,,stim/61.jpeg,,,,,,,,,67,2021-04-05_08h06.00.807,premup-three_ses-01_part-01_label-phase1,3.2.4,Win32,60,,,4,0,4,0,1,3,,,,,,,1,0,31,30.5,,,1,0,6,5,1,5,Household items,5,15,Music items,85,95
,,,,,,,,,,,3,,stim/31.jpeg,,,,,,,,,67,2021-04-05_08h06.00.807,premup-three_ses-01_part-01_label-phase1,3.2.4,Win32,60,,,4,0,4,0,1,3,,,,,,,1,0,10,6.592000008,,,1,0,6,2,1,5,Household items,65,75,Music items,25,35
,,,,,,,,,,,2,,stim/21.jpeg,,,,,,,,,67,2021-04-05_08h06.00.807,premup-three_ses-01_part-01_label-phase1,3.2.4,Win32,60,,,4,0,4,0,1,3,,,,,,,1,0,80,12.99699998,,,1,0,6,1,1,5,Music items,45,55,Household items,45,55
,,,,,,,,,,,5,,stim/51.jpeg,,,,,,,,,67,2021-04-05_08h06.00.807,premup-three_ses-01_part-01_label-phase1,3.2.4,Win32,60,,,4,0,4,0,1,3,,,,,,,1,0,,,20,12.96200013,1,0,6,4,1,5,Music items,5,15,Household items,85,95
,,,,,,,,,,,4,,stim/41.jpeg,,,,,,,,,67,2021-04-05_08h06.00.807,premup-three_ses-01_part-01_label-phase1,3.2.4,Win32,60,,,4,0,4,0,1,3,,,,,,,1,0,95,4.948999882,,,1,0,6,3,1,5,Household items,65,75,Music items,25,35
,,,,,,,,,,,1,,stim/11.jpeg,,,,,,,,,67,2021-04-05_08h06.00.807,premup-three_ses-01_part-01_label-phase1,3.2.4,Win32,60,,,4,0,4,0,1,3,,,,,,,1,0,80,11.75999999,,,1,0,6,0,1,5,Household items,45,55,Music items,45,55
,,,,,,,,,,,,,,,,,,,,,,67,2021-04-05_08h06.00.807,premup-three_ses-01_part-01_label-phase1,3.2.4,Win32,60,,,4,0,4,0,1,3,,,,,,,,,,,,,,,,,,,,,,,,
,,0,1,,,,,,,2,2,1,stim/21.jpeg,Instruments,2,stim/objects/Instruments/keyboard2.png,0.3,4,0.2,-0.15,right,67,2021-04-05_08h06.00.807,premup-three_ses-01_part-01_label-phase1,3.2.4,Win32,60,,,4,0,4,0,1,3,1,0,240,156,1,239,,,,,,,,,,,,,,,,,,
,,0,2,,,,,,,2,2,3,stim/23.jpeg,HouseObjects,1,stim/objects/HouseObjects/key2.png,0.7,1,-0.2,0.15,left,67,2021-04-05_08h06.00.807,premup-three_ses-01_part-01_label-phase1,3.2.4,Win32,60,right,0.642000198,4,0,4,0,1,3,1,0,240,138,1,239,,,,,,,,,,,,,,,,,,
,,0,3,,,,,,,1,6,3,stim/63.jpeg,Instruments,2,stim/objects/Instruments/musicstand.png,0.5,3,-0.2,-0.15,right,67,2021-04-05_08h06.00.807,premup-three_ses-01_part-01_label-phase1,3.2.4,Win32,60,left,0.767000198,4,0,4,0,1,3,1,0,240,70,1,239,,,,,,,,,,,,,,,,,,
,,1,4,,,,,,,2,2,4,stim/24.jpeg,HouseObjects,1,stim/objects/HouseObjects/knife2.png,0.7,2,0.2,0.15,left,67,2021-04-05_08h06.00.807,premup-three_ses-01_part-01_label-phase1,3.2.4,Win32,60,left,0.78000021,4,0,4,0,1,3,1,0,240,135,1,239,,,,,,,,,,,,,,,,,,
,,1,5,,,,,,,2,1,3,stim/13.jpeg,Instruments,2,stim/objects/Instruments/record.png,0.7,1,-0.2,0.15,right,67,2021-04-05_08h06.00.807,premup-three_ses-01_part-01_label-phase1,3.2.4,Win32,60,right,0.821000099,4,0,4,0,1,3,1,0,240,102,1,239,,,,,,,,,,,,,,,,,,
,,1,6,,,,,,,2,2,3,stim/23.jpeg,HouseObjects,1,stim/objects/HouseObjects/key2.png,0.7,4,0.2,-0.15,left,67,2021-04-05_08h06.00.807,premup-three_ses-01_part-01_label-phase1,3.2.4,Win32,60,left,0.566000223,4,0,4,0,1,3,1,0,240,122,1,239,,,,,,,,,,,,,,,,,,
,,1,7,,,,,,,1,6,4,stim/64.jpeg,HouseObjects,1,stim/objects/HouseObjects/pitcher.png,0.5,4,0.2,-0.15,left,67,2021-04-05_08h06.00.807,premup-three_ses-01_part-01_label-phase1,3.2.4,Win32,60,left,0.837000132,4,0,4,0,1,3,1,0,240,51,1,239,,,,,,,,,,,,,,,,,,
,,0,8,,,,,,,2,2,1,stim/21.jpeg,HouseObjects,1,stim/objects/HouseObjects/iron2.png,0.7,1,-0.2,0.15,left,67,2021-04-05_08h06.00.807,premup-three_ses-01_part-01_label-phase1,3.2.4,Win32,60,right,0.751000166,4,0,4,0,1,3,1,0,240,132,1,239,,,,,,,,,,,,,,,,,,
,,1,9,,,,,,,2,1,4,stim/14.jpeg,Instruments,2,stim/objects/Instruments/record_player.png,0.7,2,0.2,0.15,right,67,2021-04-05_08h06.00.807,premup-three_ses-01_part-01_label-phase1,3.2.4,Win32,60,right,0.977000237,4,0,4,0,1,3,1,0,240,107,1,239,,,,,,,,,,,,,,,,,,
,,0,10,,,,,,,3,4,1,stim/41.jpeg,Instruments,2,stim/objects/Instruments/panflute2.png,0.1,1,-0.2,0.15,right,67,2021-04-05_08h06.00.807,premup-three_ses-01_part-01_label-phase1,3.2.4,Win32,60,left,0.754000187,4,0,4,0,1,3,1,0,240,236,1,239,,,,,,,,,,,,,,,,,,
,,1,11,,,,,,,1,5,1,stim/51.jpeg,HouseObjects,1,stim/objects/HouseObjects/iron.png,0.5,1,-0.2,0.15,left,67,2021-04-05_08h06.00.807,premup-three_ses-01_part-01_label-phase1,3.2.4,Win32,60,left,0.722000122,4,0,4,0,1,3,1,0,240,16,1,239,,,,,,,,,,,,,,,,,,
,,1,12,,,,,,,1,6,2,stim/62.jpeg,Instruments,2,stim/objects/Instruments/musicsheet.png,0.5,4,0.2,-0.15,right,67,2021-04-05_08h06.00.807,premup-three_ses-01_part-01_label-phase1,3.2.4,Win32,60,right,0.833000183,4,0,4,0,1,3,1,0,240,61,1,239,,,,,,,,,,,,,,,,,,
,,1,13,,,,,,,3,4,1,stim/41.jpeg,HouseObjects,1,stim/objects/HouseObjects/recyclingbin2.png,0.9,1,-0.2,0.15,left,67,2021-04-05_08h06.00.807,premup-three_ses-01_part-01_label-phase1,3.2.4,Win32,60,left,0.735000134,4,0,4,0,1,3,1,0,240,200,1,239,,,,,,,,,,,,,,,,,,
,,1,14,,,,,,,3,3,4,stim/34.jpeg,Instruments,2,stim/objects/Instruments/oboe2.png,0.9,4,0.2,-0.15,right,67,2021-04-05_08h06.00.807,premup-three_ses-01_part-01_label-phase1,3.2.4,Win32,60,right,0.73300004,4,0,4,0,1,3,1,0,240,167,1,239,,,,,,,,,,,,,,,,,,
,,1,15,,,,,,,1,6,1,stim/61.jpeg,HouseObjects,1,stim/objects/HouseObjects/lintroller.png,0.5,2,0.2,0.15,left,67,2021-04-05_08h06.00.807,premup-three_ses-01_part-01_label-phase1,3.2.4,Win32,60,left,0.804000139,4,0,4,0,1,3,1,0,240,52,1,239,,,,,,,,,,,,,,,,,,
,,0,16,,,,,,,2,2,2,stim/22.jpeg,HouseObjects,1,stim/objects/HouseObjects/ironingboard2.png,0.7,3,-0.2,-0.15,left,67,2021-04-05_08h06.00.807,premup-three_ses-01_part-01_label-phase1,3.2.4,Win32,60,right,0.862000227,4,0,4,0,1,3,1,0,240,121,1,239,,,,,,,,,,,,,,,,,,
,,1,17,,,,,,,2,2,1,stim/21.jpeg,HouseObjects,1,stim/objects/HouseObjects/iron2.png,0.7,1,-0.2,0.15,left,67,2021-04-05_08h06.00.807,premup-three_ses-01_part-01_label-phase1,3.2.4,Win32,60,left,0.840000153,4,0,4,0,1,3,1,0,240,124,1,239,,,,,,,,,,,,,,,,,,
,,1,18,,,,,,,3,3,1,stim/31.jpeg,Instruments,2,stim/objects/Instruments/metronome2.png,0.9,1,-0.2,0.15,right,67,2021-04-05_08h06.00.807,premup-three_ses-01_part-01_label-phase1,3.2.4,Win32,60,right,0.681000233,4,0,4,0,1,3,1,0,240,172,1,239,,,,,,,,,,,,,,,,,,
,,0,19,,,,,,,3,3,3,stim/33.jpeg,HouseObjects,1,stim/objects/HouseObjects/pan2.png,0.1,4,0.2,-0.15,left,67,2021-04-05_08h06.00.807,premup-three_ses-01_part-01_label-phase1,3.2.4,Win32,60,right,0.875000238,4,0,4,0,1,3,1,0,240,162,1,239,,,,,,,,,,,,,,,,,,
,,0,20,,,,,,,3,4,2,stim/42.jpeg,Instruments,2,stim/objects/Instruments/pipepiano2.png,0.1,3,-0.2,-0.15,right,67,2021-04-05_08h06.00.807,premup-three_ses-01_part-01_label-phase1,3.2.4,Win32,60,left,1.130000114,4,0,4,0,1,3,1,0,240,237,1,239,,,,,,,,,,,,,,,,,,
,,1,21,,,,,,,3,3,4,stim/34.jpeg,Instruments,2,stim/objects/Instruments/oboe2.png,0.9,1,-0.2,0.15,right,67,2021-04-05_08h06.00.807,premup-three_ses-01_part-01_label-phase1,3.2.4,Win32,60,right,0.565000296,4,0,4,0,1,3,1,0,240,199,1,239,,,,,,,,,,,,,,,,,,
,,1,22,,,,,,,3,4,2,stim/42.jpeg,HouseObjects,1,stim/objects/HouseObjects/remote2.png,0.9,1,-0.2,0.15,left,67,2021-04-05_08h06.00.807,premup-three_ses-01_part-01_label-phase1,3.2.4,Win32,60,left,0.770000219,4,0,4,0,1,3,1,0,240,233,1,239,,,,,,,,,,,,,,,,,,
,,0,23,,,,,,,2,1,4,stim/14.jpeg,Instruments,2,stim/objects/Instruments/record_player.png,0.7,4,0.2,-0.15,right,67,2021-04-05_08h06.00.807,premup-three_ses-01_part-01_label-phase1,3.2.4,Win32,60,left,0.937000275,4,0,4,0,1,3,1,0,240,119,1,239,,,,,,,,,,,,,,,,,,
,,1,24,,,,,,,2,1,3,stim/13.jpeg,HouseObjects,1,stim/objects/HouseObjects/rubbergloves.png,0.3,1,-0.2,0.15,left,67,2021-04-05_08h06.00.807,premup-three_ses-01_part-01_label-phase1,3.2.4,Win32,60,left,0.936000347,4,0,4,0,1,3,1,0,240,90,1,239,,,,,,,,,,,,,,,,,,
,,1,25,,,,,,,3,4,1,stim/41.jpeg,HouseObjects,1,stim/objects/HouseObjects/recyclingbin2.png,0.9,1,-0.2,0.15,left,67,2021-04-05_08h06.00.807,premup-three_ses-01_part-01_label-phase1,3.2.4,Win32,60,left,0.658000231,4,0,4,0,1,3,1,0,240,228,1,239,,,,,,,,,,,,,,,,,,
,,1,26,,,,,,,1,6,1,stim/61.jpeg,Instruments,2,stim/objects/Instruments/metronome.png,0.5,3,-0.2,-0.15,right,67,2021-04-05_08h06.00.807,premup-three_ses-01_part-01_label-phase1,3.2.4,Win32,60,right,0.906000376,4,0,4,0,1,3,1,0,240,76,1,239,,,,,,,,,,,,,,,,,,
,,0,27,,,,,,,1,5,1,stim/51.jpeg,Instruments,2,stim/objects/Instruments/keyboard.png,0.5,4,0.2,-0.15,right,67,2021-04-05_08h06.00.807,premup-three_ses-01_part-01_label-phase1,3.2.4,Win32,60,left,0.833000183,4,0,4,0,1,3,1,0,240,20,1,239,,,,,,,,,,,,,,,,,,
,,1,28,,,,,,,2,2,4,stim/24.jpeg,HouseObjects,1,stim/objects/HouseObjects/knife2.png,0.7,3,-0.2,-0.15,left,67,2021-04-05_08h06.00.807,premup-three_ses-01_part-01_label-phase1,3.2.4,Win32,60,left,1.015000105,4,0,4,0,1,3,1,0,240,139,1,239,,,,,,,,,,,,,,,,,,
,,1,29,,,,,,,1,6,3,stim/63.jpeg,HouseObjects,1,stim/objects/HouseObjects/pan.png,0.5,4,0.2,-0.15,left,67,2021-04-05_08h06.00.807,premup-three_ses-01_part-01_label-phase1,3.2.4,Win32,60,left,0.852000237,4,0,4,0,1,3,1,0,240,46,1,239,,,,,,,,,,,,,,,,,,
,,0,30,,,,,,,2,2,2,stim/22.jpeg,Instruments,2,stim/objects/Instruments/laud2.png,0.3,4,0.2,-0.15,right,67,2021-04-05_08h06.00.807,premup-three_ses-01_part-01_label-phase1,3.2.4,Win32,60,left,0.900000095,4,0,4,0,1,3,1,0,240,157,1,239,,,,,,,,,,,,,,,,,,
,,1,31,,,,,,,3,3,4,stim/34.jpeg,Instruments,2,stim/objects/Instruments/oboe2.png,0.9,1,-0.2,0.15,right,67,2021-04-05_08h06.00.807,premup-three_ses-01_part-01_label-phase1,3.2.4,Win32,60,right,0.664000034,4,0,4,0,1,3,1,0,240,183,1,239,,,,,,,,,,,,,,,,,,
,,0,32,,,,,,,1,5,4,stim/54.jpeg,HouseObjects,1,stim/objects/HouseObjects/knife.png,0.5,1,-0.2,0.15,left,67,2021-04-05_08h06.00.807,premup-three_ses-01_part-01_label-phase1,3.2.4,Win32,60,right,0.770000219,4,0,4,0,1,3,1,0,240,11,1,239,,,,,,,,,,,,,,,,,,
,,0,33,,,,,,,1,5,2,stim/52.jpeg,Instruments,2,stim/objects/Instruments/laud.png,0.5,2,0.2,0.15,right,67,2021-04-05_08h06.00.807,premup-three_ses-01_part-01_label-phase1,3.2.4,Win32,60,left,0.693000317,4,0,4,0,1,3,1,0,240,29,1,239,,,,,,,,,,,,,,,,,,
,,1,34,,,,,,,2,2,3,stim/23.jpeg,HouseObjects,1,stim/objects/HouseObjects/key2.png,0.7,3,-0.2,-0.15,left,67,2021-04-05_08h06.00.807,premup-three_ses-01_part-01_label-phase1,3.2.4,Win32,60,left,0.794000149,4,0,4,0,1,3,1,0,240,130,1,239,,,,,,,,,,,,,,,,,,
,,0,35,,,,,,,2,2,1,stim/21.jpeg,Instruments,2,stim/objects/Instruments/keyboard2.png,0.3,4,0.2,-0.15,right,67,2021-04-05_08h06.00.807,premup-three_ses-01_part-01_label-phase1,3.2.4,Win32,60,left,0.799000025,4,0,4,0,1,3,1,0,240,152,1,239,,,,,,,,,,,,,,,,,,
,,0,36,,,,,,,2,2,2,stim/22.jpeg,HouseObjects,1,stim/objects/HouseObjects/ironingboard2.png,0.7,3,-0.2,-0.15,left,67,2021-04-05_08h06.00.807,premup-three_ses-01_part-01_label-phase1,3.2.4,Win32,60,right,1.022000313,4,0,4,0,1,3,1,0,240,129,1,239,,,,,,,,,,,,,,,,,,
,,1,37,,,,,,,2,2,2,stim/22.jpeg,HouseObjects,1,stim/objects/HouseObjects/ironingboard2.png,0.7,3,-0.2,-0.15,left,67,2021-04-05_08h06.00.807,premup-three_ses-01_part-01_label-phase1,3.2.4,Win32,60,left,0.740000248,4,0,4,0,1,3,1,0,240,145,1,239,,,,,,,,,,,,,,,,,,
,,1,38,,,,,,,2,1,2,stim/12.jpeg,HouseObjects,1,stim/objects/HouseObjects/remote.png,0.3,2,0.2,0.15,left,67,2021-04-05_08h06.00.807,premup-three_ses-01_part-01_label-phase1,3.2.4,Win32,60,left,1.209000349,4,0,4,0,1,3,1,0,240,81,1,239,,,,,,,,,,,,,,,,,,
,,0,39,,,,,,,2,1,2,stim/12.jpeg,Instruments,2,stim/objects/Instruments/pipepiano.png,0.7,2,0.2,0.15,right,67,2021-04-05_08h06.00.807,premup-three_ses-01_part-01_label-phase1,3.2.4,Win32,60,left,1.328000307,4,0,4,0,1,3,1,0,240,105,1,239,,,,,,,,,,,,,,,,,,
,,1,40,,,,,,,2,2,1,stim/21.jpeg,HouseObjects,1,stim/objects/HouseObjects/iron2.png,0.7,2,0.2,0.15,left,67,2021-04-05_08h06.00.807,premup-three_ses-01_part-01_label-phase1,3.2.4,Win32,60,left,1.243000269,4,0,4,0,1,3,1,0,240,128,1,239,,,,,,,,,,,,,,,,,,
,,0,41,,,,,,,1,5,2,stim/52.jpeg,Instruments,2,stim/objects/Instruments/laud.png,0.5,4,0.2,-0.15,right,67,2021-04-05_08h06.00.807,premup-three_ses-01_part-01_label-phase1,3.2.4,Win32,60,left,1.130000114,4,0,4,0,1,3,1,0,240,37,1,239,,,,,,,,,,,,,,,,,,
,,1,42,,,,,,,2,1,2,stim/12.jpeg,Instruments,2,stim/objects/Instruments/pipepiano.png,0.7,1,-0.2,0.15,right,67,2021-04-05_08h06.00.807,premup-three_ses-01_part-01_label-phase1,3.2.4,Win32,60,right,1.17200017,4,0,4,0,1,3,1,0,240,113,1,239,,,,,,,,,,,,,,,,,,
,,1,43,,,,,,,3,4,3,stim/43.jpeg,HouseObjects,1,stim/objects/HouseObjects/rubbergloves2.png,0.9,3,-0.2,-0.15,left,67,2021-04-05_08h06.00.807,premup-three_ses-01_part-01_label-phase1,3.2.4,Win32,60,left,1.062000036,4,0,4,0,1,3,1,0,240,206,1,239,,,,,,,,,,,,,,,,,,
,,1,44,,,,,,,2,2,2,stim/22.jpeg,Instruments,2,stim/objects/Instruments/laud2.png,0.3,3,-0.2,-0.15,right,67,2021-04-05_08h06.00.807,premup-three_ses-01_part-01_label-phase1,3.2.4,Win32,60,right,0.849000216,4,0,4,0,1,3,1,0,240,153,1,239,,,,,,,,,,,,,,,,,,
,,1,45,,,,,,,1,5,4,stim/54.jpeg,HouseObjects,1,stim/objects/HouseObjects/knife.png,0.5,3,-0.2,-0.15,left,67,2021-04-05_08h06.00.807,premup-three_ses-01_part-01_label-phase1,3.2.4,Win32,60,left,1.266000271,4,0,4,0,1,3,1,0,240,15,1,239,,,,,,,,,,,,,,,,,,
,,0,46,,,,,,,2,2,4,stim/24.jpeg,HouseObjects,1,stim/objects/HouseObjects/knife2.png,0.7,2,0.2,0.15,left,67,2021-04-05_08h06.00.807,premup-three_ses-01_part-01_label-phase1,3.2.4,Win32,60,right,0.786000013,4,0,4,0,1,3,1,0,240,131,1,239,,,,,,,,,,,,,,,,,,
,,1,47,,,,,,,2,1,1,stim/11.jpeg,Instruments,2,stim/objects/Instruments/panflute.png,0.7,3,-0.2,-0.15,right,67,2021-04-05_08h06.00.807,premup-three_ses-01_part-01_label-phase1,3.2.4,Win32,60,right,0.810000181,4,0,4,0,1,3,1,0,240,116,1,239,,,,,,,,,,,,,,,,,,
,,1,48,,,,,,,2,1,1,stim/11.jpeg,Instruments,2,stim/objects/Instruments/panflute.png,0.7,3,-0.2,-0.15,right,67,2021-04-05_08h06.00.807,premup-three_ses-01_part-01_label-phase1,3.2.4,Win32,60,right,0.533000231,4,0,4,0,1,3,1,0,240,104,1,239,,,,,,,,,,,,,,,,,,
,,1,49,,,,,,,3,3,1,stim/31.jpeg,Instruments,2,stim/objects/Instruments/metronome2.png,0.9,3,-0.2,-0.15,right,67,2021-04-05_08h06.00.807,premup-three_ses-01_part-01_label-phase1,3.2.4,Win32,60,right,0.72900033,4,0,4,0,1,3,1,0,240,184,1,239,,,,,,,,,,,,,,,,,,
,,1,50,,,,,,,2,1,4,stim/14.jpeg,HouseObjects,1,stim/objects/HouseObjects/rug.png,0.3,2,0.2,0.15,left,67,2021-04-05_08h06.00.807,premup-three_ses-01_part-01_label-phase1,3.2.4,Win32,60,left,0.872000217,4,0,4,0,1,3,1,0,240,87,1,239,,,,,,,,,,,,,,,,,,
,,1,51,,,,,,,3,3,1,stim/31.jpeg,Instruments,2,stim/objects/Instruments/metronome2.png,0.9,3,-0.2,-0.15,right,67,2021-04-05_08h06.00.807,premup-three_ses-01_part-01_label-phase1,3.2.4,Win32,60,right,0.645000219,4,0,4,0,1,3,1,0,240,192,1,239,,,,,,,,,,,,,,,,,,
,,1,52,,,,,,,3,4,4,stim/44.jpeg,HouseObjects,1,stim/objects/HouseObjects/rug2.png,0.9,4,0.2,-0.15,left,67,2021-04-05_08h06.00.807,premup-three_ses-01_part-01_label-phase1,3.2.4,Win32,60,left,0.619000196,4,0,4,0,1,3,1,0,240,215,1,239,,,,,,,,,,,,,,,,,,
,,1,53,,,,,,,2,2,1,stim/21.jpeg,HouseObjects,1,stim/objects/HouseObjects/iron2.png,0.7,2,0.2,0.15,left,67,2021-04-05_08h06.00.807,premup-three_ses-01_part-01_label-phase1,3.2.4,Win32,60,left,0.935000181,4,0,4,0,1,3,1,0,240,144,1,239,,,,,,,,,,,,,,,,,,
,,1,54,,,,,,,1,6,2,stim/62.jpeg,Instruments,2,stim/objects/Instruments/musicsheet.png,0.5,2,0.2,0.15,right,67,2021-04-05_08h06.00.807,premup-three_ses-01_part-01_label-phase1,3.2.4,Win32,60,right,1.052000284,4,0,4,0,1,3,1,0,240,65,1,239,,,,,,,,,,,,,,,,,,
,,1,55,,,,,,,1,5,3,stim/53.jpeg,Instruments,2,stim/objects/Instruments/maraca.png,0.5,3,-0.2,-0.15,right,67,2021-04-05_08h06.00.807,premup-three_ses-01_part-01_label-phase1,3.2.4,Win32,60,right,0.74000001,4,0,4,0,1,3,1,0,240,22,1,239,,,,,,,,,,,,,,,,,,
,,0,56,,,,,,,2,2,2,stim/22.jpeg,HouseObjects,1,stim/objects/HouseObjects/ironingboard2.png,0.7,3,-0.2,-0.15,left,67,2021-04-05_08h06.00.807,premup-three_ses-01_part-01_label-phase1,3.2.4,Win32,60,right,1.071000099,4,0,4,0,1,3,1,0,240,137,1,239,,,,,,,,,,,,,,,,,,
,,1,57,,,,,,,3,4,4,stim/44.jpeg,HouseObjects,1,stim/objects/HouseObjects/rug2.png,0.9,2,0.2,0.15,left,67,2021-04-05_08h06.00.807,premup-three_ses-01_part-01_label-phase1,3.2.4,Win32,60,left,0.715000153,4,0,4,0,1,3,1,0,240,219,1,239,,,,,,,,,,,,,,,,,,
,,1,58,,,,,,,1,6,1,stim/61.jpeg,Instruments,2,stim/objects/Instruments/metronome.png,0.5,3,-0.2,-0.15,right,67,2021-04-05_08h06.00.807,premup-three_ses-01_part-01_label-phase1,3.2.4,Win32,60,right,0.802000046,4,0,4,0,1,3,1,0,240,68,1,239,,,,,,,,,,,,,,,,,,
,,1,59,,,,,,,2,1,1,stim/11.jpeg,Instruments,2,stim/objects/Instruments/panflute.png,0.7,3,-0.2,-0.15,right,67,2021-04-05_08h06.00.807,premup-three_ses-01_part-01_label-phase1,3.2.4,Win32,60,right,0.976000071,4,0,4,0,1,3,1,0,240,100,1,239,,,,,,,,,,,,,,,,,,
,,0,60,,,,,,,1,5,2,stim/52.jpeg,Instruments,2,stim/objects/Instruments/laud.png,0.5,2,0.2,0.15,right,67,2021-04-05_08h06.00.807,premup-three_ses-01_part-01_label-phase1,3.2.4,Win32,60,left,0.670000076,4,0,4,0,1,3,1,0,240,21,1,239,,,,,,,,,,,,,,,,,,
,,1,61,,,,,,,3,3,2,stim/32.jpeg,Instruments,2,stim/objects/Instruments/musicsheet2.png,0.9,4,0.2,-0.15,right,67,2021-04-05_08h06.00.807,premup-three_ses-01_part-01_label-phase1,3.2.4,Win32,60,right,0.874000072,4,0,4,0,1,3,1,0,240,197,1,239,,,,,,,,,,,,,,,,,,
,,1,62,,,,,,,3,4,4,stim/44.jpeg,HouseObjects,1,stim/objects/HouseObjects/rug2.png,0.9,2,0.2,0.15,left,67,2021-04-05_08h06.00.807,premup-three_ses-01_part-01_label-phase1,3.2.4,Win32,60,left,0.619000196,4,0,4,0,1,3,1,0,240,203,1,239,,,,,,,,,,,,,,,,,,
,,1,63,,,,,,,3,4,4,stim/44.jpeg,HouseObjects,1,stim/objects/HouseObjects/rug2.png,0.9,4,0.2,-0.15,left,67,2021-04-05_08h06.00.807,premup-three_ses-01_part-01_label-phase1,3.2.4,Win32,60,left,0.903000116,4,0,4,0,1,3,1,0,240,211,1,239,,,,,,,,,,,,,,,,,,
,,0,64,,,,,,,3,4,2,stim/42.jpeg,HouseObjects,1,stim/objects/HouseObjects/remote2.png,0.9,3,-0.2,-0.15,left,67,2021-04-05_08h06.00.807,premup-three_ses-01_part-01_label-phase1,3.2.4,Win32,60,right,0.889000177,4,0,4,0,1,3,1,0,240,221,1,239,,,,,,,,,,,,,,,,,,
,,1,65,,,,,,,3,3,3,stim/33.jpeg,Instruments,2,stim/objects/Instruments/musicstand2.png,0.9,2,0.2,0.15,right,67,2021-04-05_08h06.00.807,premup-three_ses-01_part-01_label-phase1,3.2.4,Win32,60,right,0.610000134,4,0,4,0,1,3,1,0,240,174,1,239,,,,,,,,,,,,,,,,,,
,,1,66,,,,,,,3,4,3,stim/43.jpeg,HouseObjects,1,stim/objects/HouseObjects/rubbergloves2.png,0.9,3,-0.2,-0.15,left,67,2021-04-05_08h06.00.807,premup-three_ses-01_part-01_label-phase1,3.2.4,Win32,60,left,1.017000198,4,0,4,0,1,3,1,0,240,230,1,239,,,,,,,,,,,,,,,,,,
,,0,67,,,,,,,2,1,4,stim/14.jpeg,HouseObjects,1,stim/objects/HouseObjects/rug.png,0.3,3,-0.2,-0.15,left,67,2021-04-05_08h06.00.807,premup-three_ses-01_part-01_label-phase1,3.2.4,Win32,60,right,0.868999958,4,0,4,0,1,3,1,0,240,91,1,239,,,,,,,,,,,,,,,,,,
,,0,68,,,,,,,2,1,1,stim/11.jpeg,Instruments,2,stim/objects/Instruments/panflute.png,0.7,2,0.2,0.15,right,67,2021-04-05_08h06.00.807,premup-three_ses-01_part-01_label-phase1,3.2.4,Win32,60,left,1.592000008,4,0,4,0,1,3,1,0,240,96,1,239,,,,,,,,,,,,,,,,,,
,,1,69,,,,,,,3,4,1,stim/41.jpeg,HouseObjects,1,stim/objects/HouseObjects/recyclingbin2.png,0.9,2,0.2,0.15,left,67,2021-04-05_08h06.00.807,premup-three_ses-01_part-01_label-phase1,3.2.4,Win32,60,left,0.79700017,4,0,4,0,1,3,1,0,240,216,1,239,,,,,,,,,,,,,,,,,,
,,1,70,,,,,,,3,3,4,stim/34.jpeg,Instruments,2,stim/objects/Instruments/oboe2.png,0.9,3,-0.2,-0.15,right,67,2021-04-05_08h06.00.807,premup-three_ses-01_part-01_label-phase1,3.2.4,Win32,60,right,0.573000193,4,0,4,0,1,3,1,0,240,191,1,239,,,,,,,,,,,,,,,,,,
,,0,71,,,,,,,1,6,1,stim/61.jpeg,HouseObjects,1,stim/objects/HouseObjects/lintroller.png,0.5,4,0.2,-0.15,left,67,2021-04-05_08h06.00.807,premup-three_ses-01_part-01_label-phase1,3.2.4,Win32,60,right,1.28000021,4,0,4,0,1,3,1,0,240,44,1,239,,,,,,,,,,,,,,,,,,
,,1,72,,,,,,,1,6,2,stim/62.jpeg,Instruments,2,stim/objects/Instruments/musicsheet.png,0.5,2,0.2,0.15,right,67,2021-04-05_08h06.00.807,premup-three_ses-01_part-01_label-phase1,3.2.4,Win32,60,right,1.03000021,4,0,4,0,1,3,1,0,240,77,1,239,,,,,,,,,,,,,,,,,,
,,1,73,,,,,,,1,5,3,stim/53.jpeg,HouseObjects,1,stim/objects/HouseObjects/key.png,0.5,2,0.2,0.15,left,67,2021-04-05_08h06.00.807,premup-three_ses-01_part-01_label-phase1,3.2.4,Win32,60,left,0.755000114,4,0,4,0,1,3,1,0,240,14,1,239,,,,,,,,,,,,,,,,,,
,,0,74,,,,,,,3,4,4,stim/44.jpeg,HouseObjects,1,stim/objects/HouseObjects/rug2.png,0.9,1,-0.2,0.15,left,67,2021-04-05_08h06.00.807,premup-three_ses-01_part-01_label-phase1,3.2.4,Win32,60,right,0.994000196,4,0,4,0,1,3,1,0,240,207,1,239,,,,,,,,,,,,,,,,,,
,,1,75,,,,,,,2,1,4,stim/14.jpeg,Instruments,2,stim/objects/Instruments/record_player.png,0.7,3,-0.2,-0.15,right,67,2021-04-05_08h06.00.807,premup-three_ses-01_part-01_label-phase1,3.2.4,Win32,60,right,1.292000294,4,0,4,0,1,3,1,0,240,111,1,239,,,,,,,,,,,,,,,,,,
,,1,76,,,,,,,1,5,1,stim/51.jpeg,HouseObjects,1,stim/objects/HouseObjects/iron.png,0.5,1,-0.2,0.15,left,67,2021-04-05_08h06.00.807,premup-three_ses-01_part-01_label-phase1,3.2.4,Win32,60,left,0.842000246,4,0,4,0,1,3,1,0,240,8,1,239,,,,,,,,,,,,,,,,,,
,,0,77,,,,,,,1,5,2,stim/52.jpeg,HouseObjects,1,stim/objects/HouseObjects/ironingboard.png,0.5,2,0.2,0.15,left,67,2021-04-05_08h06.00.807,premup-three_ses-01_part-01_label-phase1,3.2.4,Win32,60,right,0.805000305,4,0,4,0,1,3,1,0,240,1,1,239,,,,,,,,,,,,,,,,,,
,,0,78,,,,,,,1,6,4,stim/64.jpeg,HouseObjects,1,stim/objects/HouseObjects/pitcher.png,0.5,3,-0.2,-0.15,left,67,2021-04-05_08h06.00.807,premup-three_ses-01_part-01_label-phase1,3.2.4,Win32,60,right,1.120000124,4,0,4,0,1,3,1,0,240,43,1,239,,,,,,,,,,,,,,,,,,
,,1,79,,,,,,,3,4,4,stim/44.jpeg,HouseObjects,1,stim/objects/HouseObjects/rug2.png,0.9,4,0.2,-0.15,left,67,2021-04-05_08h06.00.807,premup-three_ses-01_part-01_label-phase1,3.2.4,Win32,60,left,0.691000223,4,0,4,0,1,3,1,0,240,223,1,239,,,,,,,,,,,,,,,,,,
,,1,80,,,,,,,2,2,4,stim/24.jpeg,HouseObjects,1,stim/objects/HouseObjects/knife2.png,0.7,4,0.2,-0.15,left,67,2021-04-05_08h06.00.807,premup-three_ses-01_part-01_label-phase1,3.2.4,Win32,60,left,1.068000317,4,0,4,0,1,3,1,0,240,147,1,239,,,,,,,,,,,,,,,,,,
,,1,81,,,,,,,3,4,4,stim/44.jpeg,Instruments,2,stim/objects/Instruments/record_player2.png,0.1,3,-0.2,-0.15,right,67,2021-04-05_08h06.00.807,premup-three_ses-01_part-01_label-phase1,3.2.4,Win32,60,right,0.600000143,4,0,4,0,1,3,1,0,240,239,1,239,,,,,,,,,,,,,,,,,,
,,1,82,,,,,,,3,3,3,stim/33.jpeg,Instruments,2,stim/objects/Instruments/musicstand2.png,0.9,2,0.2,0.15,right,67,2021-04-05_08h06.00.807,premup-three_ses-01_part-01_label-phase1,3.2.4,Win32,60,right,0.868000031,4,0,4,0,1,3,1,0,240,166,1,239,,,,,,,,,,,,,,,,,,
,,1,83,,,,,,,3,3,2,stim/32.jpeg,Instruments,2,stim/objects/Instruments/musicsheet2.png,0.9,4,0.2,-0.15,right,67,2021-04-05_08h06.00.807,premup-three_ses-01_part-01_label-phase1,3.2.4,Win32,60,right,0.792000294,4,0,4,0,1,3,1,0,240,189,1,239,,,,,,,,,,,,,,,,,,
,,1,84,,,,,,,1,5,1,stim/51.jpeg,HouseObjects,1,stim/objects/HouseObjects/iron.png,0.5,1,-0.2,0.15,left,67,2021-04-05_08h06.00.807,premup-three_ses-01_part-01_label-phase1,3.2.4,Win32,60,left,0.68200016,4,0,4,0,1,3,1,0,240,4,1,239,,,,,,,,,,,,,,,,,,
,,1,85,,,,,,,1,6,4,stim/64.jpeg,Instruments,2,stim/objects/Instruments/oboe.png,0.5,2,0.2,0.15,right,67,2021-04-05_08h06.00.807,premup-three_ses-01_part-01_label-phase1,3.2.4,Win32,60,right,0.723000288,4,0,4,0,1,3,1,0,240,67,1,239,,,,,,,,,,,,,,,,,,
,,1,86,,,,,,,3,4,3,stim/43.jpeg,HouseObjects,1,stim/objects/HouseObjects/rubbergloves2.png,0.9,4,0.2,-0.15,left,67,2021-04-05_08h06.00.807,premup-three_ses-01_part-01_label-phase1,3.2.4,Win32,60,left,0.828000069,4,0,4,0,1,3,1,0,240,222,1,239,,,,,,,,,,,,,,,,,,
,,1,87,,,,,,,3,4,3,stim/43.jpeg,HouseObjects,1,stim/objects/HouseObjects/rubbergloves2.png,0.9,2,0.2,0.15,left,67,2021-04-05_08h06.00.807,premup-three_ses-01_part-01_label-phase1,3.2.4,Win32,60,left,0.435000181,4,0,4,0,1,3,1,0,240,226,1,239,,,,,,,,,,,,,,,,,,
,,1,88,,,,,,,3,3,3,stim/33.jpeg,Instruments,2,stim/objects/Instruments/musicstand2.png,0.9,2,0.2,0.15,right,67,2021-04-05_08h06.00.807,premup-three_ses-01_part-01_label-phase1,3.2.4,Win32,60,right,0.742000341,4,0,4,0,1,3,1,0,240,182,1,239,,,,,,,,,,,,,,,,,,
,,0,89,,,,,,,3,4,1,stim/41.jpeg,HouseObjects,1,stim/objects/HouseObjects/recyclingbin2.png,0.9,3,-0.2,-0.15,left,67,2021-04-05_08h06.00.807,premup-three_ses-01_part-01_label-phase1,3.2.4,Win32,60,right,0.992000341,4,0,4,0,1,3,1,0,240,212,1,239,,,,,,,,,,,,,,,,,,
,,1,90,,,,,,,1,6,3,stim/63.jpeg,HouseObjects,1,stim/objects/HouseObjects/pan.png,0.5,4,0.2,-0.15,left,67,2021-04-05_08h06.00.807,premup-three_ses-01_part-01_label-phase1,3.2.4,Win32,60,left,1.034000158,4,0,4,0,1,3,1,0,240,50,1,239,,,,,,,,,,,,,,,,,,
,,1,91,,,,,,,1,6,2,stim/62.jpeg,Instruments,2,stim/objects/Instruments/musicsheet.png,0.5,1,-0.2,0.15,right,67,2021-04-05_08h06.00.807,premup-three_ses-01_part-01_label-phase1,3.2.4,Win32,60,right,0.777000189,4,0,4,0,1,3,1,0,240,73,1,239,,,,,,,,,,,,,,,,,,
,,0,92,,,,,,,1,6,3,stim/63.jpeg,Instruments,2,stim/objects/Instruments/musicstand.png,0.5,1,-0.2,0.15,right,67,2021-04-05_08h06.00.807,premup-three_ses-01_part-01_label-phase1,3.2.4,Win32,60,left,0.993000031,4,0,4,0,1,3,1,0,240,66,1,239,,,,,,,,,,,,,,,,,,
,,0,93,,,,,,,1,6,3,stim/63.jpeg,HouseObjects,1,stim/objects/HouseObjects/pan.png,0.5,1,-0.2,0.15,left,67,2021-04-05_08h06.00.807,premup-three_ses-01_part-01_label-phase1,3.2.4,Win32,60,right,0.695000172,4,0,4,0,1,3,1,0,240,42,1,239,,,,,,,,,,,,,,,,,,
,,1,94,,,,,,,3,4,4,stim/44.jpeg,HouseObjects,1,stim/objects/HouseObjects/rug2.png,0.9,2,0.2,0.15,left,67,2021-04-05_08h06.00.807,premup-three_ses-01_part-01_label-phase1,3.2.4,Win32,60,left,0.722000122,4,0,4,0,1,3,1,0,240,231,1,239,,,,,,,,,,,,,,,,,,
,,0,95,,,,,,,2,2,4,stim/24.jpeg,Instruments,2,stim/objects/Instruments/marimba2.png,0.3,2,0.2,0.15,right,67,2021-04-05_08h06.00.807,premup-three_ses-01_part-01_label-phase1,3.2.4,Win32,60,left,0.943000317,4,0,4,0,1,3,1,0,240,159,1,239,,,,,,,,,,,,,,,,,,
,,1,96,,,,,,,2,2,1,stim/21.jpeg,HouseObjects,1,stim/objects/HouseObjects/iron2.png,0.7,1,-0.2,0.15,left,67,2021-04-05_08h06.00.807,premup-three_ses-01_part-01_label-phase1,3.2.4,Win32,60,left,1.175000191,4,0,4,0,1,3,1,0,240,120,1,239,,,,,,,,,,,,,,,,,,
,,1,97,,,,,,,3,3,4,stim/34.jpeg,Instruments,2,stim/objects/Instruments/oboe2.png,0.9,2,0.2,0.15,right,67,2021-04-05_08h06.00.807,premup-three_ses-01_part-01_label-phase1,3.2.4,Win32,60,right,0.647000313,4,0,4,0,1,3,1,0,240,171,1,239,,,,,,,,,,,,,,,,,,
,,1,98,,,,,,,3,3,1,stim/31.jpeg,Instruments,2,stim/objects/Instruments/metronome2.png,0.9,4,0.2,-0.15,right,67,2021-04-05_08h06.00.807,premup-three_ses-01_part-01_label-phase1,3.2.4,Win32,60,right,0.761000156,4,0,4,0,1,3,1,0,240,168,1,239,,,,,,,,,,,,,,,,,,
,,1,99,,,,,,,1,5,2,stim/52.jpeg,HouseObjects,1,stim/objects/HouseObjects/ironingboard.png,0.5,2,0.2,0.15,left,67,2021-04-05_08h06.00.807,premup-three_ses-01_part-01_label-phase1,3.2.4,Win32,60,left,0.607000113,4,0,4,0,1,3,1,0,240,17,1,239,,,,,,,,,,,,,,,,,,
,,1,100,,,,,,,1,5,4,stim/54.jpeg,Instruments,2,stim/objects/Instruments/marimba.png,0.5,4,0.2,-0.15,right,67,2021-04-05_08h06.00.807,premup-three_ses-01_part-01_label-phase1,3.2.4,Win32,60,right,1.29700017,4,0,4,0,1,3,1,0,240,35,1,239,,,,,,,,,,,,,,,,,,
,,1,101,,,,,,,3,4,3,stim/43.jpeg,HouseObjects,1,stim/objects/HouseObjects/rubbergloves2.png,0.9,4,0.2,-0.15,left,67,2021-04-05_08h06.00.807,premup-three_ses-01_part-01_label-phase1,3.2.4,Win32,60,left,0.577000141,4,0,4,0,1,3,1,0,240,202,1,239,,,,,,,,,,,,,,,,,,
,,1,102,,,,,,,1,5,2,stim/52.jpeg,HouseObjects,1,stim/objects/HouseObjects/ironingboard.png,0.5,1,-0.2,0.15,left,67,2021-04-05_08h06.00.807,premup-three_ses-01_part-01_label-phase1,3.2.4,Win32,60,left,0.954000235,4,0,4,0,1,3,1,0,240,13,1,239,,,,,,,,,,,,,,,,,,
,,1,103,,,,,,,3,3,1,stim/31.jpeg,Instruments,2,stim/objects/Instruments/metronome2.png,0.9,1,-0.2,0.15,right,67,2021-04-05_08h06.00.807,premup-three_ses-01_part-01_label-phase1,3.2.4,Win32,60,right,0.531000137,4,0,4,0,1,3,1,0,240,164,1,239,,,,,,,,,,,,,,,,,,
,,0,104,,,,,,,3,3,1,stim/31.jpeg,HouseObjects,1,stim/objects/HouseObjects/lintroller2.png,0.1,4,0.2,-0.15,left,67,2021-04-05_08h06.00.807,premup-three_ses-01_part-01_label-phase1,3.2.4,Win32,60,right,0.680999994,4,0,4,0,1,3,1,0,240,160,1,239,,,,,,,,,,,,,,,,,,
,,1,105,,,,,,,2,1,3,stim/13.jpeg,Instruments,2,stim/objects/Instruments/record.png,0.7,4,0.2,-0.15,right,67,2021-04-05_08h06.00.807,premup-three_ses-01_part-01_label-phase1,3.2.4,Win32,60,right,1.105000257,4,0,4,0,1,3,1,0,240,94,1,239,,,,,,,,,,,,,,,,,,
,,1,106,,,,,,,2,2,3,stim/23.jpeg,HouseObjects,1,stim/objects/HouseObjects/key2.png,0.7,2,0.2,0.15,left,67,2021-04-05_08h06.00.807,premup-three_ses-01_part-01_label-phase1,3.2.4,Win32,60,left,0.853000164,4,0,4,0,1,3,1,0,240,134,1,239,,,,,,,,,,,,,,,,,,
,,1,107,,,,,,,3,4,2,stim/42.jpeg,HouseObjects,1,stim/objects/HouseObjects/remote2.png,0.9,3,-0.2,-0.15,left,67,2021-04-05_08h06.00.807,premup-three_ses-01_part-01_label-phase1,3.2.4,Win32,60,left,1.032000065,4,0,4,0,1,3,1,0,240,205,1,239,,,,,,,,,,,,,,,,,,
,,0,108,,,,,,,1,6,4,stim/64.jpeg,HouseObjects,1,stim/objects/HouseObjects/pitcher.png,0.5,4,0.2,-0.15,left,67,2021-04-05_08h06.00.807,premup-three_ses-01_part-01_label-phase1,3.2.4,Win32,60,right,1.088000059,4,0,4,0,1,3,1,0,240,59,1,239,,,,,,,,,,,,,,,,,,
,,1,109,,,,,,,2,1,3,stim/13.jpeg,Instruments,2,stim/objects/Instruments/record.png,0.7,4,0.2,-0.15,right,67,2021-04-05_08h06.00.807,premup-three_ses-01_part-01_label-phase1,3.2.4,Win32,60,right,0.88800025,4,0,4,0,1,3,1,0,240,110,1,239,,,,,,,,,,,,,,,,,,
,,0,110,,,,,,,2,1,2,stim/12.jpeg,Instruments,2,stim/objects/Instruments/pipepiano.png,0.7,1,-0.2,0.15,right,67,2021-04-05_08h06.00.807,premup-three_ses-01_part-01_label-phase1,3.2.4,Win32,60,left,0.795000315,4,0,4,0,1,3,1,0,240,117,1,239,,,,,,,,,,,,,,,,,,
,,1,111,,,,,,,3,3,2,stim/32.jpeg,Instruments,2,stim/objects/Instruments/musicsheet2.png,0.9,3,-0.2,-0.15,right,67,2021-04-05_08h06.00.807,premup-three_ses-01_part-01_label-phase1,3.2.4,Win32,60,right,0.758000135,4,0,4,0,1,3,1,0,240,193,1,239,,,,,,,,,,,,,,,,,,
,,1,112,,,,,,,3,4,3,stim/43.jpeg,HouseObjects,1,stim/objects/HouseObjects/rubbergloves2.png,0.9,1,-0.2,0.15,left,67,2021-04-05_08h06.00.807,premup-three_ses-01_part-01_label-phase1,3.2.4,Win32,60,left,1.12100029,4,0,4,0,1,3,1,0,240,210,1,239,,,,,,,,,,,,,,,,,,
,,0,113,,,,,,,1,6,2,stim/62.jpeg,HouseObjects,1,stim/objects/HouseObjects/match.png,0.5,4,0.2,-0.15,left,67,2021-04-05_08h06.00.807,premup-three_ses-01_part-01_label-phase1,3.2.4,Win32,60,right,1.023000002,4,0,4,0,1,3,1,0,240,45,1,239,,,,,,,,,,,,,,,,,,
,,0,114,,,,,,,2,1,4,stim/14.jpeg,Instruments,2,stim/objects/Instruments/record_player.png,0.7,1,-0.2,0.15,right,67,2021-04-05_08h06.00.807,premup-three_ses-01_part-01_label-phase1,3.2.4,Win32,60,left,1.487000227,4,0,4,0,1,3,1,0,240,99,1,239,,,,,,,,,,,,,,,,,,
,,0,115,,,,,,,1,6,3,stim/63.jpeg,Instruments,2,stim/objects/Instruments/musicstand.png,0.5,1,-0.2,0.15,right,67,2021-04-05_08h06.00.807,premup-three_ses-01_part-01_label-phase1,3.2.4,Win32,60,left,0.95200038,4,0,4,0,1,3,1,0,240,74,1,239,,,,,,,,,,,,,,,,,,
,,1,116,,,,,,,2,2,4,stim/24.jpeg,HouseObjects,1,stim/objects/HouseObjects/knife2.png,0.7,3,-0.2,-0.15,left,67,2021-04-05_08h06.00.807,premup-three_ses-01_part-01_label-phase1,3.2.4,Win32,60,left,1.146000147,4,0,4,0,1,3,1,0,240,143,1,239,,,,,,,,,,,,,,,,,,
,,0,117,,,,,,,1,5,1,stim/51.jpeg,Instruments,2,stim/objects/Instruments/keyboard.png,0.5,4,0.2,-0.15,right,67,2021-04-05_08h06.00.807,premup-three_ses-01_part-01_label-phase1,3.2.4,Win32,60,left,0.693000078,4,0,4,0,1,3,1,0,240,28,1,239,,,,,,,,,,,,,,,,,,
,,0,118,,,,,,,1,5,4,stim/54.jpeg,Instruments,2,stim/objects/Instruments/marimba.png,0.5,2,0.2,0.15,right,67,2021-04-05_08h06.00.807,premup-three_ses-01_part-01_label-phase1,3.2.4,Win32,60,left,0.702000141,4,0,4,0,1,3,1,0,240,23,1,239,,,,,,,,,,,,,,,,,,
,,0,119,,,,,,,2,2,1,stim/21.jpeg,Instruments,2,stim/objects/Instruments/keyboard2.png,0.3,2,0.2,0.15,right,67,2021-04-05_08h06.00.807,premup-three_ses-01_part-01_label-phase1,3.2.4,Win32,60,left,0.890000105,4,0,4,0,1,3,1,0,240,148,1,239,,,,,,,,,,,,,,,,,,
,,0,120,,,,,,,1,6,2,stim/62.jpeg,HouseObjects,1,stim/objects/HouseObjects/match.png,0.5,3,-0.2,-0.15,left,67,2021-04-05_08h06.00.807,premup-three_ses-01_part-01_label-phase1,3.2.4,Win32,60,right,0.959000349,4,0,4,0,1,3,1,0,240,41,1,239,,,,,,,,,,,,,,,,,,
,,0,121,,,,,,,1,6,2,stim/62.jpeg,Instruments,2,stim/objects/Instruments/musicsheet.png,0.5,1,-0.2,0.15,right,67,2021-04-05_08h06.00.807,premup-three_ses-01_part-01_label-phase1,3.2.4,Win32,60,left,0.903000116,4,0,4,0,1,3,1,0,240,69,1,239,,,,,,,,,,,,,,,,,,
,,0,122,,,,,,,1,6,1,stim/61.jpeg,Instruments,2,stim/objects/Instruments/metronome.png,0.5,1,-0.2,0.15,right,67,2021-04-05_08h06.00.807,premup-three_ses-01_part-01_label-phase1,3.2.4,Win32,60,left,1.319000006,4,0,4,0,1,3,1,0,240,72,1,239,,,,,,,,,,,,,,,,,,
,,0,123,,,,,,,1,6,3,stim/63.jpeg,HouseObjects,1,stim/objects/HouseObjects/pan.png,0.5,3,-0.2,-0.15,left,67,2021-04-05_08h06.00.807,premup-three_ses-01_part-01_label-phase1,3.2.4,Win32,60,right,1.099000216,4,0,4,0,1,3,1,0,240,54,1,239,,,,,,,,,,,,,,,,,,
,,1,124,,,,,,,3,3,2,stim/32.jpeg,Instruments,2,stim/objects/Instruments/musicsheet2.png,0.9,4,0.2,-0.15,right,67,2021-04-05_08h06.00.807,premup-three_ses-01_part-01_label-phase1,3.2.4,Win32,60,right,1.459000111,4,0,4,0,1,3,1,0,240,181,1,239,,,,,,,,,,,,,,,,,,
,,1,125,,,,,,,2,1,2,stim/12.jpeg,HouseObjects,1,stim/objects/HouseObjects/remote.png,0.3,2,0.2,0.15,left,67,2021-04-05_08h06.00.807,premup-three_ses-01_part-01_label-phase1,3.2.4,Win32,60,left,0.933000088,4,0,4,0,1,3,1,0,240,85,1,239,,,,,,,,,,,,,,,,,,
,,1,126,,,,,,,3,3,2,stim/32.jpeg,Instruments,2,stim/objects/Instruments/musicsheet2.png,0.9,3,-0.2,-0.15,right,67,2021-04-05_08h06.00.807,premup-three_ses-01_part-01_label-phase1,3.2.4,Win32,60,right,0.559000015,4,0,4,0,1,3,1,0,240,169,1,239,,,,,,,,,,,,,,,,,,
,,0,127,,,,,,,2,2,3,stim/23.jpeg,Instruments,2,stim/objects/Instruments/maraca2.png,0.3,1,-0.2,0.15,right,67,2021-04-05_08h06.00.807,premup-three_ses-01_part-01_label-phase1,3.2.4,Win32,60,left,0.728000164,4,0,4,0,1,3,1,0,240,158,1,239,,,,,,,,,,,,,,,,,,
,,1,128,,,,,,,3,4,4,stim/44.jpeg,HouseObjects,1,stim/objects/HouseObjects/rug2.png,0.9,4,0.2,-0.15,left,67,2021-04-05_08h06.00.807,premup-three_ses-01_part-01_label-phase1,3.2.4,Win32,60,left,0.741000175,4,0,4,0,1,3,1,0,240,235,1,239,,,,,,,,,,,,,,,,,,
,,1,129,,,,,,,3,4,1,stim/41.jpeg,HouseObjects,1,stim/objects/HouseObjects/recyclingbin2.png,0.9,3,-0.2,-0.15,left,67,2021-04-05_08h06.00.807,premup-three_ses-01_part-01_label-phase1,3.2.4,Win32,60,left,0.730000257,4,0,4,0,1,3,1,0,240,232,1,239,,,,,,,,,,,,,,,,,,
,,1,130,,,,,,,1,6,2,stim/62.jpeg,HouseObjects,1,stim/objects/HouseObjects/match.png,0.5,3,-0.2,-0.15,left,67,2021-04-05_08h06.00.807,premup-three_ses-01_part-01_label-phase1,3.2.4,Win32,60,left,0.697000265,4,0,4,0,1,3,1,0,240,57,1,239,,,,,,,,,,,,,,,,,,
,,1,131,,,,,,,3,4,2,stim/42.jpeg,HouseObjects,1,stim/objects/HouseObjects/remote2.png,0.9,3,-0.2,-0.15,left,67,2021-04-05_08h06.00.807,premup-three_ses-01_part-01_label-phase1,3.2.4,Win32,60,left,0.830000162,4,0,4,0,1,3,1,0,240,229,1,239,,,,,,,,,,,,,,,,,,
,,0,132,,,,,,,2,2,2,stim/22.jpeg,HouseObjects,1,stim/objects/HouseObjects/ironingboard2.png,0.7,4,0.2,-0.15,left,67,2021-04-05_08h06.00.807,premup-three_ses-01_part-01_label-phase1,3.2.4,Win32,60,right,1.068000078,4,0,4,0,1,3,1,0,240,141,1,239,,,,,,,,,,,,,,,,,,
,,1,133,,,,,,,3,4,4,stim/44.jpeg,HouseObjects,1,stim/objects/HouseObjects/rug2.png,0.9,2,0.2,0.15,left,67,2021-04-05_08h06.00.807,premup-three_ses-01_part-01_label-phase1,3.2.4,Win32,60,left,0.601000071,4,0,4,0,1,3,1,0,240,227,1,239,,,,,,,,,,,,,,,,,,
