key_resp_pract.keys,key_resp_pract.rt,trial_acc,trial_index,practice_loop.thisRepN,practice_loop.thisTrialN,practice_loop.thisN,practice_loop.thisIndex,practice_loop.ran,practice_loop.order,scn_condition,scn_cat,scn_inst,scn_file,obj_cat,obj_cat_num,obj_file,trial_cond,quadrant,obj_x,obj_y,corr_ans,participant,date,expName,psychopyVersion,OS,frameRate,key_resp_trial.keys,key_resp_trial.rt,iterations.thisRepN,iterations.thisTrialN,iterations.thisN,iterations.thisIndex,iterations.ran,iterations.order,task_innerloop.thisRepN,task_innerloop.thisTrialN,task_innerloop.thisN,task_innerloop.thisIndex,task_innerloop.ran,task_innerloop.order,iteration_index,rating_acc,slider.response,slider.rt,slider_2.response,slider_2.rt,ratings.thisRepN,ratings.thisTrialN,ratings.thisN,ratings.thisIndex,ratings.ran,ratings.order,obj_cat_top,min_resp_top,max_resp_top,obj_cat_bottom,min_resp_bottom,max_resp_bottom
right,1.634999752,0,1,1,0,240,210,1,239,3,6,3,stim/63.jpeg,HouseObjects,1,stim/objects/HouseObjects/clothesdryingrack2.png,0.9,4,0.2,-0.15,left,70,2021-04-07_13h04.20.699,premup-three_ses-01_part-01_label-phase1,3.2.4,Win32,60,,,,,,,,,,,,,,,,,,,,,,,,,,,,,,,,
,,0,2,1,0,240,82,1,239,2,3,3,stim/33.jpeg,HouseObjects,1,stim/objects/HouseObjects/clothesdryingrack.png,0.3,4,0.2,-0.15,left,70,2021-04-07_13h04.20.699,premup-three_ses-01_part-01_label-phase1,3.2.4,Win32,60,,,,,,,,,,,,,,,,,,,,,,,,,,,,,,,,
left,1.540999889,1,3,1,0,240,121,1,239,2,4,2,stim/42.jpeg,HouseObjects,1,stim/objects/HouseObjects/ballofstring2.png,0.7,3,-0.2,-0.15,left,70,2021-04-07_13h04.20.699,premup-three_ses-01_part-01_label-phase1,3.2.4,Win32,60,,,,,,,,,,,,,,,,,,,,,,,,,,,,,,,,
left,1.239999771,1,4,1,0,240,15,1,239,1,1,4,stim/14.jpeg,HouseObjects,1,stim/objects/HouseObjects/basket.png,0.5,3,-0.2,-0.15,left,70,2021-04-07_13h04.20.699,premup-three_ses-01_part-01_label-phase1,3.2.4,Win32,60,,,,,,,,,,,,,,,,,,,,,,,,,,,,,,,,
left,0.922999859,1,5,1,0,240,143,1,239,2,4,4,stim/44.jpeg,HouseObjects,1,stim/objects/HouseObjects/basket2.png,0.7,1,-0.2,0.15,left,70,2021-04-07_13h04.20.699,premup-three_ses-01_part-01_label-phase1,3.2.4,Win32,60,,,,,,,,,,,,,,,,,,,,,,,,,,,,,,,,
right,1.278999805,1,6,1,0,240,62,1,239,1,2,3,stim/23.jpeg,Instruments,2,stim/objects/Instruments/cello.png,0.5,4,0.2,-0.15,right,70,2021-04-07_13h04.20.699,premup-three_ses-01_part-01_label-phase1,3.2.4,Win32,60,,,,,,,,,,,,,,,,,,,,,,,,,,,,,,,,
left,0.869999886,1,7,1,0,240,137,1,239,2,4,2,stim/42.jpeg,HouseObjects,1,stim/objects/HouseObjects/ballofstring2.png,0.7,2,0.2,0.15,left,70,2021-04-07_13h04.20.699,premup-three_ses-01_part-01_label-phase1,3.2.4,Win32,60,,,,,,,,,,,,,,,,,,,,,,,,,,,,,,,,
left,1.401000023,1,8,1,0,240,160,1,239,3,5,1,stim/51.jpeg,HouseObjects,1,stim/objects/HouseObjects/bleachbottle2.png,0.1,1,-0.2,0.15,left,70,2021-04-07_13h04.20.699,premup-three_ses-01_part-01_label-phase1,3.2.4,Win32,60,,,,,,,,,,,,,,,,,,,,,,,,,,,,,,,,
left,1.166999817,1,9,1,0,240,225,1,239,3,6,2,stim/62.jpeg,HouseObjects,1,stim/objects/HouseObjects/clock2.png,0.9,4,0.2,-0.15,left,70,2021-04-07_13h04.20.699,premup-three_ses-01_part-01_label-phase1,3.2.4,Win32,60,,,,,,,,,,,,,,,,,,,,,,,,,,,,,,,,
left,0.684999943,0,10,1,0,240,154,1,239,2,4,3,stim/43.jpeg,Instruments,2,stim/objects/Instruments/balalaika2.png,0.3,1,-0.2,0.15,right,70,2021-04-07_13h04.20.699,premup-three_ses-01_part-01_label-phase1,3.2.4,Win32,60,,,,,,,,,,,,,,,,,,,,,,,,,,,,,,,,
,,0,1,,,,,,,1,1,1,stim/11.jpeg,HouseObjects,1,stim/objects/HouseObjects/ashtray.png,0.5,4,0.2,-0.15,left,70,2021-04-07_13h04.20.699,premup-three_ses-01_part-01_label-phase1,3.2.4,Win32,60,,,4,0,4,0,1,3,1,0,240,16,1,239,,,,,,,,,,,,,,,,,,
,,1,2,,,,,,,3,6,2,stim/62.jpeg,HouseObjects,1,stim/objects/HouseObjects/clock2.png,0.9,3,-0.2,-0.15,left,70,2021-04-07_13h04.20.699,premup-three_ses-01_part-01_label-phase1,3.2.4,Win32,60,left,0.928999901,4,0,4,0,1,3,1,0,240,229,1,239,,,,,,,,,,,,,,,,,,
,,0,3,,,,,,,1,1,2,stim/12.jpeg,Instruments,2,stim/objects/Instruments/acousticguitar.png,0.5,3,-0.2,-0.15,right,70,2021-04-07_13h04.20.699,premup-three_ses-01_part-01_label-phase1,3.2.4,Win32,60,left,1.090999842,4,0,4,0,1,3,1,0,240,33,1,239,,,,,,,,,,,,,,,,,,
,,1,4,,,,,,,3,6,1,stim/61.jpeg,HouseObjects,1,stim/objects/HouseObjects/bucket2.png,0.9,3,-0.2,-0.15,left,70,2021-04-07_13h04.20.699,premup-three_ses-01_part-01_label-phase1,3.2.4,Win32,60,left,0.825000048,4,0,4,0,1,3,1,0,240,228,1,239,,,,,,,,,,,,,,,,,,
,,1,5,,,,,,,2,3,3,stim/33.jpeg,Instruments,2,stim/objects/Instruments/cymbal.png,0.7,3,-0.2,-0.15,right,70,2021-04-07_13h04.20.699,premup-three_ses-01_part-01_label-phase1,3.2.4,Win32,60,right,1.063999891,4,0,4,0,1,3,1,0,240,102,1,239,,,,,,,,,,,,,,,,,,
,,0,6,,,,,,,2,4,1,stim/41.jpeg,HouseObjects,1,stim/objects/HouseObjects/ashtray2.png,0.7,4,0.2,-0.15,left,70,2021-04-07_13h04.20.699,premup-three_ses-01_part-01_label-phase1,3.2.4,Win32,60,right,1.240999937,4,0,4,0,1,3,1,0,240,144,1,239,,,,,,,,,,,,,,,,,,
,,0,7,,,,,,,1,2,2,stim/22.jpeg,HouseObjects,1,stim/objects/HouseObjects/blender.png,0.5,2,0.2,0.15,left,70,2021-04-07_13h04.20.699,premup-three_ses-01_part-01_label-phase1,3.2.4,Win32,60,right,1.628999949,4,0,4,0,1,3,1,0,240,49,1,239,,,,,,,,,,,,,,,,,,
,,1,8,,,,,,,2,3,1,stim/31.jpeg,Instruments,2,stim/objects/Instruments/clarinet.png,0.7,4,0.2,-0.15,right,70,2021-04-07_13h04.20.699,premup-three_ses-01_part-01_label-phase1,3.2.4,Win32,60,right,1.335000038,4,0,4,0,1,3,1,0,240,108,1,239,,,,,,,,,,,,,,,,,,
,,0,9,,,,,,,3,6,2,stim/62.jpeg,Instruments,2,stim/objects/Instruments/cornet2.png,0.1,1,-0.2,0.15,right,70,2021-04-07_13h04.20.699,premup-three_ses-01_part-01_label-phase1,3.2.4,Win32,60,left,0.949999809,4,0,4,0,1,3,1,0,240,237,1,239,,,,,,,,,,,,,,,,,,
,,0,10,,,,,,,2,3,2,stim/32.jpeg,Instruments,2,stim/objects/Instruments/cornet.png,0.7,1,-0.2,0.15,right,70,2021-04-07_13h04.20.699,premup-three_ses-01_part-01_label-phase1,3.2.4,Win32,60,,,4,0,4,0,1,3,1,0,240,109,1,239,,,,,,,,,,,,,,,,,,
,,1,11,,,,,,,2,4,3,stim/43.jpeg,HouseObjects,1,stim/objects/HouseObjects/barbecuelighter2.png,0.7,2,0.2,0.15,left,70,2021-04-07_13h04.20.699,premup-three_ses-01_part-01_label-phase1,3.2.4,Win32,60,left,1.427999973,4,0,4,0,1,3,1,0,240,122,1,239,,,,,,,,,,,,,,,,,,
,,0,12,,,,,,,3,6,2,stim/62.jpeg,HouseObjects,1,stim/objects/HouseObjects/clock2.png,0.9,2,0.2,0.15,left,70,2021-04-07_13h04.20.699,premup-three_ses-01_part-01_label-phase1,3.2.4,Win32,60,right,1.013999939,4,0,4,0,1,3,1,0,240,221,1,239,,,,,,,,,,,,,,,,,,
,,0,13,,,,,,,1,1,4,stim/14.jpeg,HouseObjects,1,stim/objects/HouseObjects/basket.png,0.5,3,-0.2,-0.15,left,70,2021-04-07_13h04.20.699,premup-three_ses-01_part-01_label-phase1,3.2.4,Win32,60,right,1.256000042,4,0,4,0,1,3,1,0,240,11,1,239,,,,,,,,,,,,,,,,,,
,,1,14,,,,,,,1,1,1,stim/11.jpeg,HouseObjects,1,stim/objects/HouseObjects/ashtray.png,0.5,2,0.2,0.15,left,70,2021-04-07_13h04.20.699,premup-three_ses-01_part-01_label-phase1,3.2.4,Win32,60,left,0.754999876,4,0,4,0,1,3,1,0,240,0,1,239,,,,,,,,,,,,,,,,,,
,,0,15,,,,,,,1,2,4,stim/24.jpeg,HouseObjects,1,stim/objects/HouseObjects/broom.png,0.5,4,0.2,-0.15,left,70,2021-04-07_13h04.20.699,premup-three_ses-01_part-01_label-phase1,3.2.4,Win32,60,right,1.369999886,4,0,4,0,1,3,1,0,240,51,1,239,,,,,,,,,,,,,,,,,,
,,0,16,,,,,,,2,3,4,stim/34.jpeg,Instruments,2,stim/objects/Instruments/doublebass.png,0.7,3,-0.2,-0.15,right,70,2021-04-07_13h04.20.699,premup-three_ses-01_part-01_label-phase1,3.2.4,Win32,60,left,0.799999952,4,0,4,0,1,3,1,0,240,111,1,239,,,,,,,,,,,,,,,,,,
,,1,17,,,,,,,3,5,4,stim/54.jpeg,HouseObjects,1,stim/objects/HouseObjects/broom2.png,0.1,4,0.2,-0.15,left,70,2021-04-07_13h04.20.699,premup-three_ses-01_part-01_label-phase1,3.2.4,Win32,60,left,0.926999807,4,0,4,0,1,3,1,0,240,163,1,239,,,,,,,,,,,,,,,,,,
,,0,18,,,,,,,1,2,2,stim/22.jpeg,Instruments,2,stim/objects/Instruments/bassguitar.png,0.5,1,-0.2,0.15,right,70,2021-04-07_13h04.20.699,premup-three_ses-01_part-01_label-phase1,3.2.4,Win32,60,left,0.971999884,4,0,4,0,1,3,1,0,240,69,1,239,,,,,,,,,,,,,,,,,,
,,0,19,,,,,,,1,1,3,stim/13.jpeg,Instruments,2,stim/objects/Instruments/balalaika.png,0.5,3,-0.2,-0.15,right,70,2021-04-07_13h04.20.699,premup-three_ses-01_part-01_label-phase1,3.2.4,Win32,60,left,0.822999716,4,0,4,0,1,3,1,0,240,38,1,239,,,,,,,,,,,,,,,,,,
,,0,20,,,,,,,3,5,1,stim/51.jpeg,Instruments,2,stim/objects/Instruments/bassdrum2.png,0.9,2,0.2,0.15,right,70,2021-04-07_13h04.20.699,premup-three_ses-01_part-01_label-phase1,3.2.4,Win32,60,,,4,0,4,0,1,3,1,0,240,180,1,239,,,,,,,,,,,,,,,,,,
,,1,21,,,,,,,2,4,1,stim/41.jpeg,HouseObjects,1,stim/objects/HouseObjects/ashtray2.png,0.7,2,0.2,0.15,left,70,2021-04-07_13h04.20.699,premup-three_ses-01_part-01_label-phase1,3.2.4,Win32,60,left,1.635999918,4,0,4,0,1,3,1,0,240,120,1,239,,,,,,,,,,,,,,,,,,
,,0,22,,,,,,,2,4,3,stim/43.jpeg,Instruments,2,stim/objects/Instruments/balalaika2.png,0.3,2,0.2,0.15,right,70,2021-04-07_13h04.20.699,premup-three_ses-01_part-01_label-phase1,3.2.4,Win32,60,left,0.815000057,4,0,4,0,1,3,1,0,240,158,1,239,,,,,,,,,,,,,,,,,,
,,0,23,,,,,,,3,6,1,stim/61.jpeg,Instruments,2,stim/objects/Instruments/clarinet2.png,0.1,4,0.2,-0.15,right,70,2021-04-07_13h04.20.699,premup-three_ses-01_part-01_label-phase1,3.2.4,Win32,60,left,1.410999775,4,0,4,0,1,3,1,0,240,236,1,239,,,,,,,,,,,,,,,,,,
,,0,24,,,,,,,1,2,2,stim/22.jpeg,Instruments,2,stim/objects/Instruments/bassguitar.png,0.5,1,-0.2,0.15,right,70,2021-04-07_13h04.20.699,premup-three_ses-01_part-01_label-phase1,3.2.4,Win32,60,left,1.55099988,4,0,4,0,1,3,1,0,240,61,1,239,,,,,,,,,,,,,,,,,,
,,0,25,,,,,,,1,2,1,stim/21.jpeg,HouseObjects,1,stim/objects/HouseObjects/bleachbottle.png,0.5,1,-0.2,0.15,left,70,2021-04-07_13h04.20.699,premup-three_ses-01_part-01_label-phase1,3.2.4,Win32,60,right,0.752999783,4,0,4,0,1,3,1,0,240,52,1,239,,,,,,,,,,,,,,,,,,
,,1,26,,,,,,,2,4,3,stim/43.jpeg,Instruments,2,stim/objects/Instruments/balalaika2.png,0.3,1,-0.2,0.15,right,70,2021-04-07_13h04.20.699,premup-three_ses-01_part-01_label-phase1,3.2.4,Win32,60,right,0.943000078,4,0,4,0,1,3,1,0,240,154,1,239,,,,,,,,,,,,,,,,,,
,,1,27,,,,,,,3,5,1,stim/51.jpeg,Instruments,2,stim/objects/Instruments/bassdrum2.png,0.9,1,-0.2,0.15,right,70,2021-04-07_13h04.20.699,premup-three_ses-01_part-01_label-phase1,3.2.4,Win32,60,right,1.000999928,4,0,4,0,1,3,1,0,240,188,1,239,,,,,,,,,,,,,,,,,,
,,0,28,,,,,,,1,1,2,stim/12.jpeg,HouseObjects,1,stim/objects/HouseObjects/ballofstring.png,0.5,2,0.2,0.15,left,70,2021-04-07_13h04.20.699,premup-three_ses-01_part-01_label-phase1,3.2.4,Win32,60,right,1.121000051,4,0,4,0,1,3,1,0,240,1,1,239,,,,,,,,,,,,,,,,,,
,,0,29,,,,,,,1,1,1,stim/11.jpeg,Instruments,2,stim/objects/Instruments/accordion.png,0.5,4,0.2,-0.15,right,70,2021-04-07_13h04.20.699,premup-three_ses-01_part-01_label-phase1,3.2.4,Win32,60,left,1.205999851,4,0,4,0,1,3,1,0,240,24,1,239,,,,,,,,,,,,,,,,,,
,,1,30,,,,,,,1,1,4,stim/14.jpeg,Instruments,2,stim/objects/Instruments/banjo.png,0.5,1,-0.2,0.15,right,70,2021-04-07_13h04.20.699,premup-three_ses-01_part-01_label-phase1,3.2.4,Win32,60,right,1.501999855,4,0,4,0,1,3,1,0,240,23,1,239,,,,,,,,,,,,,,,,,,
,,0,31,,,,,,,1,2,1,stim/21.jpeg,Instruments,2,stim/objects/Instruments/bassdrum.png,0.5,1,-0.2,0.15,right,70,2021-04-07_13h04.20.699,premup-three_ses-01_part-01_label-phase1,3.2.4,Win32,60,left,0.769999981,4,0,4,0,1,3,1,0,240,76,1,239,,,,,,,,,,,,,,,,,,
,,0,32,,,,,,,3,6,3,stim/63.jpeg,HouseObjects,1,stim/objects/HouseObjects/clothesdryingrack2.png,0.9,4,0.2,-0.15,left,70,2021-04-07_13h04.20.699,premup-three_ses-01_part-01_label-phase1,3.2.4,Win32,60,right,1.287999868,4,0,4,0,1,3,1,0,240,214,1,239,,,,,,,,,,,,,,,,,,
,,1,33,,,,,,,1,1,1,stim/11.jpeg,Instruments,2,stim/objects/Instruments/accordion.png,0.5,3,-0.2,-0.15,right,70,2021-04-07_13h04.20.699,premup-three_ses-01_part-01_label-phase1,3.2.4,Win32,60,right,0.763999939,4,0,4,0,1,3,1,0,240,36,1,239,,,,,,,,,,,,,,,,,,
,,0,34,,,,,,,3,5,2,stim/52.jpeg,HouseObjects,1,stim/objects/HouseObjects/blender2.png,0.1,3,-0.2,-0.15,left,70,2021-04-07_13h04.20.699,premup-three_ses-01_part-01_label-phase1,3.2.4,Win32,60,right,0.97699976,4,0,4,0,1,3,1,0,240,161,1,239,,,,,,,,,,,,,,,,,,
,,1,35,,,,,,,1,1,3,stim/13.jpeg,Instruments,2,stim/objects/Instruments/balalaika.png,0.5,2,0.2,0.15,right,70,2021-04-07_13h04.20.699,premup-three_ses-01_part-01_label-phase1,3.2.4,Win32,60,right,0.971999884,4,0,4,0,1,3,1,0,240,30,1,239,,,,,,,,,,,,,,,,,,
,,0,36,,,,,,,3,5,2,stim/52.jpeg,Instruments,2,stim/objects/Instruments/bassguitar2.png,0.9,1,-0.2,0.15,right,70,2021-04-07_13h04.20.699,premup-three_ses-01_part-01_label-phase1,3.2.4,Win32,60,left,0.832999945,4,0,4,0,1,3,1,0,240,189,1,239,,,,,,,,,,,,,,,,,,
,,1,37,,,,,,,3,5,3,stim/53.jpeg,Instruments,2,stim/objects/Instruments/cello2.png,0.9,2,0.2,0.15,right,70,2021-04-07_13h04.20.699,premup-three_ses-01_part-01_label-phase1,3.2.4,Win32,60,right,0.996999979,4,0,4,0,1,3,1,0,240,182,1,239,,,,,,,,,,,,,,,,,,
,,0,38,,,,,,,3,6,2,stim/62.jpeg,HouseObjects,1,stim/objects/HouseObjects/clock2.png,0.9,3,-0.2,-0.15,left,70,2021-04-07_13h04.20.699,premup-three_ses-01_part-01_label-phase1,3.2.4,Win32,60,right,1.441999912,4,0,4,0,1,3,1,0,240,213,1,239,,,,,,,,,,,,,,,,,,
,,0,39,,,,,,,1,1,2,stim/12.jpeg,HouseObjects,1,stim/objects/HouseObjects/ballofstring.png,0.5,4,0.2,-0.15,left,70,2021-04-07_13h04.20.699,premup-three_ses-01_part-01_label-phase1,3.2.4,Win32,60,right,0.914999962,4,0,4,0,1,3,1,0,240,17,1,239,,,,,,,,,,,,,,,,,,
,,0,40,,,,,,,2,4,4,stim/44.jpeg,HouseObjects,1,stim/objects/HouseObjects/basket2.png,0.7,1,-0.2,0.15,left,70,2021-04-07_13h04.20.699,premup-three_ses-01_part-01_label-phase1,3.2.4,Win32,60,right,1.416999817,4,0,4,0,1,3,1,0,240,143,1,239,,,,,,,,,,,,,,,,,,
,,1,41,,,,,,,1,2,2,stim/22.jpeg,HouseObjects,1,stim/objects/HouseObjects/blender.png,0.5,3,-0.2,-0.15,left,70,2021-04-07_13h04.20.699,premup-three_ses-01_part-01_label-phase1,3.2.4,Win32,60,left,1.487999916,4,0,4,0,1,3,1,0,240,41,1,239,,,,,,,,,,,,,,,,,,
,,0,42,,,,,,,1,1,2,stim/12.jpeg,HouseObjects,1,stim/objects/HouseObjects/ballofstring.png,0.5,3,-0.2,-0.15,left,70,2021-04-07_13h04.20.699,premup-three_ses-01_part-01_label-phase1,3.2.4,Win32,60,right,0.880000114,4,0,4,0,1,3,1,0,240,9,1,239,,,,,,,,,,,,,,,,,,
,,1,43,,,,,,,3,5,4,stim/54.jpeg,Instruments,2,stim/objects/Instruments/chime2.png,0.9,4,0.2,-0.15,right,70,2021-04-07_13h04.20.699,premup-three_ses-01_part-01_label-phase1,3.2.4,Win32,60,right,1.747999907,4,0,4,0,1,3,1,0,240,167,1,239,,,,,,,,,,,,,,,,,,
,,1,44,,,,,,,2,3,2,stim/32.jpeg,Instruments,2,stim/objects/Instruments/cornet.png,0.7,1,-0.2,0.15,right,70,2021-04-07_13h04.20.699,premup-three_ses-01_part-01_label-phase1,3.2.4,Win32,60,right,1.210000038,4,0,4,0,1,3,1,0,240,93,1,239,,,,,,,,,,,,,,,,,,
,,1,45,,,,,,,1,2,4,stim/24.jpeg,HouseObjects,1,stim/objects/HouseObjects/broom.png,0.5,4,0.2,-0.15,left,70,2021-04-07_13h04.20.699,premup-three_ses-01_part-01_label-phase1,3.2.4,Win32,60,left,0.718999863,4,0,4,0,1,3,1,0,240,43,1,239,,,,,,,,,,,,,,,,,,
,,0,46,,,,,,,2,4,1,stim/41.jpeg,Instruments,2,stim/objects/Instruments/accordion2.png,0.3,3,-0.2,-0.15,right,70,2021-04-07_13h04.20.699,premup-three_ses-01_part-01_label-phase1,3.2.4,Win32,60,left,0.835999966,4,0,4,0,1,3,1,0,240,152,1,239,,,,,,,,,,,,,,,,,,
,,0,47,,,,,,,1,2,4,stim/24.jpeg,Instruments,2,stim/objects/Instruments/chime.png,0.5,4,0.2,-0.15,right,70,2021-04-07_13h04.20.699,premup-three_ses-01_part-01_label-phase1,3.2.4,Win32,60,left,0.835999966,4,0,4,0,1,3,1,0,240,63,1,239,,,,,,,,,,,,,,,,,,
,,0,48,,,,,,,2,3,3,stim/33.jpeg,Instruments,2,stim/objects/Instruments/cymbal.png,0.7,2,0.2,0.15,right,70,2021-04-07_13h04.20.699,premup-three_ses-01_part-01_label-phase1,3.2.4,Win32,60,left,1.305999756,4,0,4,0,1,3,1,0,240,110,1,239,,,,,,,,,,,,,,,,,,
,,0,49,,,,,,,3,5,4,stim/54.jpeg,Instruments,2,stim/objects/Instruments/chime2.png,0.9,4,0.2,-0.15,right,70,2021-04-07_13h04.20.699,premup-three_ses-01_part-01_label-phase1,3.2.4,Win32,60,left,1.68599987,4,0,4,0,1,3,1,0,240,179,1,239,,,,,,,,,,,,,,,,,,
,,1,50,,,,,,,3,6,3,stim/63.jpeg,HouseObjects,1,stim/objects/HouseObjects/clothesdryingrack2.png,0.9,2,0.2,0.15,left,70,2021-04-07_13h04.20.699,premup-three_ses-01_part-01_label-phase1,3.2.4,Win32,60,left,1.363999844,4,0,4,0,1,3,1,0,240,218,1,239,,,,,,,,,,,,,,,,,,
,,1,51,,,,,,,2,3,2,stim/32.jpeg,Instruments,2,stim/objects/Instruments/cornet.png,0.7,4,0.2,-0.15,right,70,2021-04-07_13h04.20.699,premup-three_ses-01_part-01_label-phase1,3.2.4,Win32,60,right,0.625,4,0,4,0,1,3,1,0,240,117,1,239,,,,,,,,,,,,,,,,,,
,,1,52,,,,,,,3,5,2,stim/52.jpeg,Instruments,2,stim/objects/Instruments/bassguitar2.png,0.9,3,-0.2,-0.15,right,70,2021-04-07_13h04.20.699,premup-three_ses-01_part-01_label-phase1,3.2.4,Win32,60,right,1,4,0,4,0,1,3,1,0,240,177,1,239,,,,,,,,,,,,,,,,,,
,,1,53,,,,,,,3,6,4,stim/64.jpeg,HouseObjects,1,stim/objects/HouseObjects/clothespin2.png,0.9,2,0.2,0.15,left,70,2021-04-07_13h04.20.699,premup-three_ses-01_part-01_label-phase1,3.2.4,Win32,60,left,0.779000044,4,0,4,0,1,3,1,0,240,223,1,239,,,,,,,,,,,,,,,,,,
,,1,54,,,,,,,1,1,3,stim/13.jpeg,Instruments,2,stim/objects/Instruments/balalaika.png,0.5,4,0.2,-0.15,right,70,2021-04-07_13h04.20.699,premup-three_ses-01_part-01_label-phase1,3.2.4,Win32,60,right,0.678999901,4,0,4,0,1,3,1,0,240,26,1,239,,,,,,,,,,,,,,,,,,
,,1,55,,,,,,,3,5,2,stim/52.jpeg,Instruments,2,stim/objects/Instruments/bassguitar2.png,0.9,1,-0.2,0.15,right,70,2021-04-07_13h04.20.699,premup-three_ses-01_part-01_label-phase1,3.2.4,Win32,60,right,0.646999836,4,0,4,0,1,3,1,0,240,181,1,239,,,,,,,,,,,,,,,,,,
,,1,56,,,,,,,1,2,3,stim/23.jpeg,Instruments,2,stim/objects/Instruments/cello.png,0.5,4,0.2,-0.15,right,70,2021-04-07_13h04.20.699,premup-three_ses-01_part-01_label-phase1,3.2.4,Win32,60,right,0.629999876,4,0,4,0,1,3,1,0,240,74,1,239,,,,,,,,,,,,,,,,,,
,,1,57,,,,,,,2,3,2,stim/32.jpeg,Instruments,2,stim/objects/Instruments/cornet.png,0.7,1,-0.2,0.15,right,70,2021-04-07_13h04.20.699,premup-three_ses-01_part-01_label-phase1,3.2.4,Win32,60,right,0.635999918,4,0,4,0,1,3,1,0,240,105,1,239,,,,,,,,,,,,,,,,,,
,,1,58,,,,,,,3,5,2,stim/52.jpeg,Instruments,2,stim/objects/Instruments/bassguitar2.png,0.9,3,-0.2,-0.15,right,70,2021-04-07_13h04.20.699,premup-three_ses-01_part-01_label-phase1,3.2.4,Win32,60,right,0.684999943,4,0,4,0,1,3,1,0,240,193,1,239,,,,,,,,,,,,,,,,,,
,,0,59,,,,,,,2,3,2,stim/32.jpeg,HouseObjects,1,stim/objects/HouseObjects/clock.png,0.3,4,0.2,-0.15,left,70,2021-04-07_13h04.20.699,premup-three_ses-01_part-01_label-phase1,3.2.4,Win32,60,right,0.523999929,4,0,4,0,1,3,1,0,240,89,1,239,,,,,,,,,,,,,,,,,,
,,0,60,,,,,,,2,4,1,stim/41.jpeg,HouseObjects,1,stim/objects/HouseObjects/ashtray2.png,0.7,2,0.2,0.15,left,70,2021-04-07_13h04.20.699,premup-three_ses-01_part-01_label-phase1,3.2.4,Win32,60,right,0.849999905,4,0,4,0,1,3,1,0,240,136,1,239,,,,,,,,,,,,,,,,,,
,,0,61,,,,,,,2,4,1,stim/41.jpeg,Instruments,2,stim/objects/Instruments/accordion2.png,0.3,1,-0.2,0.15,right,70,2021-04-07_13h04.20.699,premup-three_ses-01_part-01_label-phase1,3.2.4,Win32,60,left,0.703999996,4,0,4,0,1,3,1,0,240,156,1,239,,,,,,,,,,,,,,,,,,
,,0,62,,,,,,,3,5,1,stim/51.jpeg,HouseObjects,1,stim/objects/HouseObjects/bleachbottle2.png,0.1,1,-0.2,0.15,left,70,2021-04-07_13h04.20.699,premup-three_ses-01_part-01_label-phase1,3.2.4,Win32,60,right,0.914999962,4,0,4,0,1,3,1,0,240,160,1,239,,,,,,,,,,,,,,,,,,
,,1,63,,,,,,,3,6,4,stim/64.jpeg,HouseObjects,1,stim/objects/HouseObjects/clothespin2.png,0.9,3,-0.2,-0.15,left,70,2021-04-07_13h04.20.699,premup-three_ses-01_part-01_label-phase1,3.2.4,Win32,60,left,0.747999907,4,0,4,0,1,3,1,0,240,231,1,239,,,,,,,,,,,,,,,,,,
,,1,64,,,,,,,3,5,3,stim/53.jpeg,Instruments,2,stim/objects/Instruments/cello2.png,0.9,1,-0.2,0.15,right,70,2021-04-07_13h04.20.699,premup-three_ses-01_part-01_label-phase1,3.2.4,Win32,60,right,0.823999882,4,0,4,0,1,3,1,0,240,198,1,239,,,,,,,,,,,,,,,,,,
,,1,65,,,,,,,3,5,4,stim/54.jpeg,Instruments,2,stim/objects/Instruments/chime2.png,0.9,3,-0.2,-0.15,right,70,2021-04-07_13h04.20.699,premup-three_ses-01_part-01_label-phase1,3.2.4,Win32,60,right,1.250999928,4,0,4,0,1,3,1,0,240,199,1,239,,,,,,,,,,,,,,,,,,
,,1,66,,,,,,,3,5,1,stim/51.jpeg,Instruments,2,stim/objects/Instruments/bassdrum2.png,0.9,1,-0.2,0.15,right,70,2021-04-07_13h04.20.699,premup-three_ses-01_part-01_label-phase1,3.2.4,Win32,60,right,0.805999994,4,0,4,0,1,3,1,0,240,172,1,239,,,,,,,,,,,,,,,,,,
,,1,67,,,,,,,3,5,2,stim/52.jpeg,Instruments,2,stim/objects/Instruments/bassguitar2.png,0.9,1,-0.2,0.15,right,70,2021-04-07_13h04.20.699,premup-three_ses-01_part-01_label-phase1,3.2.4,Win32,60,right,0.778999805,4,0,4,0,1,3,1,0,240,173,1,239,,,,,,,,,,,,,,,,,,
,,0,68,,,,,,,3,5,3,stim/53.jpeg,Instruments,2,stim/objects/Instruments/cello2.png,0.9,2,0.2,0.15,right,70,2021-04-07_13h04.20.699,premup-three_ses-01_part-01_label-phase1,3.2.4,Win32,60,left,1.285000086,4,0,4,0,1,3,1,0,240,186,1,239,,,,,,,,,,,,,,,,,,
,,1,69,,,,,,,2,4,4,stim/44.jpeg,Instruments,2,stim/objects/Instruments/banjo2.png,0.3,3,-0.2,-0.15,right,70,2021-04-07_13h04.20.699,premup-three_ses-01_part-01_label-phase1,3.2.4,Win32,60,right,1.342000008,4,0,4,0,1,3,1,0,240,155,1,239,,,,,,,,,,,,,,,,,,
,,0,70,,,,,,,1,1,1,stim/11.jpeg,HouseObjects,1,stim/objects/HouseObjects/ashtray.png,0.5,2,0.2,0.15,left,70,2021-04-07_13h04.20.699,premup-three_ses-01_part-01_label-phase1,3.2.4,Win32,60,right,1.201999903,4,0,4,0,1,3,1,0,240,8,1,239,,,,,,,,,,,,,,,,,,
,,0,71,,,,,,,2,3,1,stim/31.jpeg,Instruments,2,stim/objects/Instruments/clarinet.png,0.7,3,-0.2,-0.15,right,70,2021-04-07_13h04.20.699,premup-three_ses-01_part-01_label-phase1,3.2.4,Win32,60,left,1.064999819,4,0,4,0,1,3,1,0,240,112,1,239,,,,,,,,,,,,,,,,,,
,,1,72,,,,,,,3,6,3,stim/63.jpeg,HouseObjects,1,stim/objects/HouseObjects/clothesdryingrack2.png,0.9,2,0.2,0.15,left,70,2021-04-07_13h04.20.699,premup-three_ses-01_part-01_label-phase1,3.2.4,Win32,60,left,0.992999792,4,0,4,0,1,3,1,0,240,206,1,239,,,,,,,,,,,,,,,,,,
,,0,73,,,,,,,2,3,3,stim/33.jpeg,Instruments,2,stim/objects/Instruments/cymbal.png,0.7,1,-0.2,0.15,right,70,2021-04-07_13h04.20.699,premup-three_ses-01_part-01_label-phase1,3.2.4,Win32,60,left,0.789000034,4,0,4,0,1,3,1,0,240,94,1,239,,,,,,,,,,,,,,,,,,
,,0,74,,,,,,,1,2,3,stim/23.jpeg,HouseObjects,1,stim/objects/HouseObjects/bottle.png,0.5,2,0.2,0.15,left,70,2021-04-07_13h04.20.699,premup-three_ses-01_part-01_label-phase1,3.2.4,Win32,60,right,0.819999933,4,0,4,0,1,3,1,0,240,54,1,239,,,,,,,,,,,,,,,,,,
,,1,75,,,,,,,2,4,4,stim/44.jpeg,Instruments,2,stim/objects/Instruments/banjo2.png,0.3,1,-0.2,0.15,right,70,2021-04-07_13h04.20.699,premup-three_ses-01_part-01_label-phase1,3.2.4,Win32,60,right,0.661999941,4,0,4,0,1,3,1,0,240,151,1,239,,,,,,,,,,,,,,,,,,
,,0,76,,,,,,,1,1,2,stim/12.jpeg,HouseObjects,1,stim/objects/HouseObjects/ballofstring.png,0.5,1,-0.2,0.15,left,70,2021-04-07_13h04.20.699,premup-three_ses-01_part-01_label-phase1,3.2.4,Win32,60,right,0.871000051,4,0,4,0,1,3,1,0,240,13,1,239,,,,,,,,,,,,,,,,,,
,,1,77,,,,,,,3,6,3,stim/63.jpeg,HouseObjects,1,stim/objects/HouseObjects/clothesdryingrack2.png,0.9,4,0.2,-0.15,left,70,2021-04-07_13h04.20.699,premup-three_ses-01_part-01_label-phase1,3.2.4,Win32,60,left,0.713999987,4,0,4,0,1,3,1,0,240,222,1,239,,,,,,,,,,,,,,,,,,
,,0,78,,,,,,,3,5,3,stim/53.jpeg,HouseObjects,1,stim/objects/HouseObjects/bottle2.png,0.1,2,0.2,0.15,left,70,2021-04-07_13h04.20.699,premup-three_ses-01_part-01_label-phase1,3.2.4,Win32,60,right,0.662999868,4,0,4,0,1,3,1,0,240,162,1,239,,,,,,,,,,,,,,,,,,
,,0,79,,,,,,,1,2,1,stim/21.jpeg,HouseObjects,1,stim/objects/HouseObjects/bleachbottle.png,0.5,1,-0.2,0.15,left,70,2021-04-07_13h04.20.699,premup-three_ses-01_part-01_label-phase1,3.2.4,Win32,60,right,0.792999983,4,0,4,0,1,3,1,0,240,40,1,239,,,,,,,,,,,,,,,,,,
,,0,80,,,,,,,1,2,1,stim/21.jpeg,Instruments,2,stim/objects/Instruments/bassdrum.png,0.5,2,0.2,0.15,right,70,2021-04-07_13h04.20.699,premup-three_ses-01_part-01_label-phase1,3.2.4,Win32,60,left,0.882999897,4,0,4,0,1,3,1,0,240,72,1,239,,,,,,,,,,,,,,,,,,
,,0,81,,,,,,,2,3,1,stim/31.jpeg,Instruments,2,stim/objects/Instruments/clarinet.png,0.7,1,-0.2,0.15,right,70,2021-04-07_13h04.20.699,premup-three_ses-01_part-01_label-phase1,3.2.4,Win32,60,left,0.961999893,4,0,4,0,1,3,1,0,240,92,1,239,,,,,,,,,,,,,,,,,,
,,1,82,,,,,,,1,2,4,stim/24.jpeg,Instruments,2,stim/objects/Instruments/chime.png,0.5,3,-0.2,-0.15,right,70,2021-04-07_13h04.20.699,premup-three_ses-01_part-01_label-phase1,3.2.4,Win32,60,right,0.874000072,4,0,4,0,1,3,1,0,240,67,1,239,,,,,,,,,,,,,,,,,,
,,1,83,,,,,,,1,1,2,stim/12.jpeg,Instruments,2,stim/objects/Instruments/acousticguitar.png,0.5,2,0.2,0.15,right,70,2021-04-07_13h04.20.699,premup-three_ses-01_part-01_label-phase1,3.2.4,Win32,60,right,0.763999939,4,0,4,0,1,3,1,0,240,25,1,239,,,,,,,,,,,,,,,,,,
,,1,84,,,,,,,3,5,1,stim/51.jpeg,Instruments,2,stim/objects/Instruments/bassdrum2.png,0.9,1,-0.2,0.15,right,70,2021-04-07_13h04.20.699,premup-three_ses-01_part-01_label-phase1,3.2.4,Win32,60,right,0.821999788,4,0,4,0,1,3,1,0,240,168,1,239,,,,,,,,,,,,,,,,,,
,,1,85,,,,,,,1,2,4,stim/24.jpeg,Instruments,2,stim/objects/Instruments/chime.png,0.5,1,-0.2,0.15,right,70,2021-04-07_13h04.20.699,premup-three_ses-01_part-01_label-phase1,3.2.4,Win32,60,right,0.744999886,4,0,4,0,1,3,1,0,240,79,1,239,,,,,,,,,,,,,,,,,,
,,0,86,,,,,,,1,2,1,stim/21.jpeg,HouseObjects,1,stim/objects/HouseObjects/bleachbottle.png,0.5,1,-0.2,0.15,left,70,2021-04-07_13h04.20.699,premup-three_ses-01_part-01_label-phase1,3.2.4,Win32,60,right,0.842000008,4,0,4,0,1,3,1,0,240,44,1,239,,,,,,,,,,,,,,,,,,
,,1,87,,,,,,,1,2,1,stim/21.jpeg,Instruments,2,stim/objects/Instruments/bassdrum.png,0.5,2,0.2,0.15,right,70,2021-04-07_13h04.20.699,premup-three_ses-01_part-01_label-phase1,3.2.4,Win32,60,right,0.84100008,4,0,4,0,1,3,1,0,240,60,1,239,,,,,,,,,,,,,,,,,,
,,0,88,,,,,,,1,2,1,stim/21.jpeg,HouseObjects,1,stim/objects/HouseObjects/bleachbottle.png,0.5,4,0.2,-0.15,left,70,2021-04-07_13h04.20.699,premup-three_ses-01_part-01_label-phase1,3.2.4,Win32,60,right,1.411999941,4,0,4,0,1,3,1,0,240,48,1,239,,,,,,,,,,,,,,,,,,
,,0,89,,,,,,,1,2,3,stim/23.jpeg,HouseObjects,1,stim/objects/HouseObjects/bottle.png,0.5,1,-0.2,0.15,left,70,2021-04-07_13h04.20.699,premup-three_ses-01_part-01_label-phase1,3.2.4,Win32,60,right,0.910999775,4,0,4,0,1,3,1,0,240,46,1,239,,,,,,,,,,,,,,,,,,
,,0,90,,,,,,,2,4,4,stim/44.jpeg,HouseObjects,1,stim/objects/HouseObjects/basket2.png,0.7,1,-0.2,0.15,left,70,2021-04-07_13h04.20.699,premup-three_ses-01_part-01_label-phase1,3.2.4,Win32,60,right,0.894999743,4,0,4,0,1,3,1,0,240,123,1,239,,,,,,,,,,,,,,,,,,
,,1,91,,,,,,,1,1,4,stim/14.jpeg,HouseObjects,1,stim/objects/HouseObjects/basket.png,0.5,3,-0.2,-0.15,left,70,2021-04-07_13h04.20.699,premup-three_ses-01_part-01_label-phase1,3.2.4,Win32,60,left,0.992000103,4,0,4,0,1,3,1,0,240,15,1,239,,,,,,,,,,,,,,,,,,
,,1,92,,,,,,,1,2,4,stim/24.jpeg,Instruments,2,stim/objects/Instruments/chime.png,0.5,1,-0.2,0.15,right,70,2021-04-07_13h04.20.699,premup-three_ses-01_part-01_label-phase1,3.2.4,Win32,60,right,0.826999903,4,0,4,0,1,3,1,0,240,75,1,239,,,,,,,,,,,,,,,,,,
,,1,93,,,,,,,3,6,2,stim/62.jpeg,HouseObjects,1,stim/objects/HouseObjects/clock2.png,0.9,4,0.2,-0.15,left,70,2021-04-07_13h04.20.699,premup-three_ses-01_part-01_label-phase1,3.2.4,Win32,60,left,0.830999851,4,0,4,0,1,3,1,0,240,201,1,239,,,,,,,,,,,,,,,,,,
,,1,94,,,,,,,2,4,3,stim/43.jpeg,HouseObjects,1,stim/objects/HouseObjects/barbecuelighter2.png,0.7,2,0.2,0.15,left,70,2021-04-07_13h04.20.699,premup-three_ses-01_part-01_label-phase1,3.2.4,Win32,60,left,1.349999905,4,0,4,0,1,3,1,0,240,126,1,239,,,,,,,,,,,,,,,,,,
,,1,95,,,,,,,2,3,3,stim/33.jpeg,Instruments,2,stim/objects/Instruments/cymbal.png,0.7,3,-0.2,-0.15,right,70,2021-04-07_13h04.20.699,premup-three_ses-01_part-01_label-phase1,3.2.4,Win32,60,right,0.802999973,4,0,4,0,1,3,1,0,240,98,1,239,,,,,,,,,,,,,,,,,,
,,1,96,,,,,,,2,3,3,stim/33.jpeg,Instruments,2,stim/objects/Instruments/cymbal.png,0.7,1,-0.2,0.15,right,70,2021-04-07_13h04.20.699,premup-three_ses-01_part-01_label-phase1,3.2.4,Win32,60,right,0.701999903,4,0,4,0,1,3,1,0,240,114,1,239,,,,,,,,,,,,,,,,,,
,,0,97,,,,,,,2,3,1,stim/31.jpeg,HouseObjects,1,stim/objects/HouseObjects/bucket.png,0.3,3,-0.2,-0.15,left,70,2021-04-07_13h04.20.699,premup-three_ses-01_part-01_label-phase1,3.2.4,Win32,60,right,0.69299984,4,0,4,0,1,3,1,0,240,80,1,239,,,,,,,,,,,,,,,,,,
,,0,98,,,,,,,1,1,3,stim/13.jpeg,HouseObjects,1,stim/objects/HouseObjects/barbecuelighter.png,0.5,4,0.2,-0.15,left,70,2021-04-07_13h04.20.699,premup-three_ses-01_part-01_label-phase1,3.2.4,Win32,60,right,0.931999922,4,0,4,0,1,3,1,0,240,10,1,239,,,,,,,,,,,,,,,,,,
,,1,99,,,,,,,3,5,1,stim/51.jpeg,Instruments,2,stim/objects/Instruments/bassdrum2.png,0.9,1,-0.2,0.15,right,70,2021-04-07_13h04.20.699,premup-three_ses-01_part-01_label-phase1,3.2.4,Win32,60,right,0.739000082,4,0,4,0,1,3,1,0,240,184,1,239,,,,,,,,,,,,,,,,,,
,,0,100,,,,,,,1,1,3,stim/13.jpeg,HouseObjects,1,stim/objects/HouseObjects/barbecuelighter.png,0.5,1,-0.2,0.15,left,70,2021-04-07_13h04.20.699,premup-three_ses-01_part-01_label-phase1,3.2.4,Win32,60,right,0.898999929,4,0,4,0,1,3,1,0,240,6,1,239,,,,,,,,,,,,,,,,,,
,,1,101,,,,,,,2,3,3,stim/33.jpeg,HouseObjects,1,stim/objects/HouseObjects/clothesdryingrack.png,0.3,4,0.2,-0.15,left,70,2021-04-07_13h04.20.699,premup-three_ses-01_part-01_label-phase1,3.2.4,Win32,60,left,1.314999819,4,0,4,0,1,3,1,0,240,82,1,239,,,,,,,,,,,,,,,,,,
,,1,102,,,,,,,3,5,2,stim/52.jpeg,Instruments,2,stim/objects/Instruments/bassguitar2.png,0.9,3,-0.2,-0.15,right,70,2021-04-07_13h04.20.699,premup-three_ses-01_part-01_label-phase1,3.2.4,Win32,60,right,0.777999878,4,0,4,0,1,3,1,0,240,169,1,239,,,,,,,,,,,,,,,,,,
,,1,103,,,,,,,3,5,3,stim/53.jpeg,Instruments,2,stim/objects/Instruments/cello2.png,0.9,4,0.2,-0.15,right,70,2021-04-07_13h04.20.699,premup-three_ses-01_part-01_label-phase1,3.2.4,Win32,60,right,0.782999754,4,0,4,0,1,3,1,0,240,194,1,239,,,,,,,,,,,,,,,,,,
,,0,104,,,,,,,3,5,3,stim/53.jpeg,Instruments,2,stim/objects/Instruments/cello2.png,0.9,1,-0.2,0.15,right,70,2021-04-07_13h04.20.699,premup-three_ses-01_part-01_label-phase1,3.2.4,Win32,60,left,0.771999836,4,0,4,0,1,3,1,0,240,174,1,239,,,,,,,,,,,,,,,,,,
,,0,105,,,,,,,2,3,1,stim/31.jpeg,Instruments,2,stim/objects/Instruments/clarinet.png,0.7,3,-0.2,-0.15,right,70,2021-04-07_13h04.20.699,premup-three_ses-01_part-01_label-phase1,3.2.4,Win32,60,left,0.840999842,4,0,4,0,1,3,1,0,240,116,1,239,,,,,,,,,,,,,,,,,,
,,1,106,,,,,,,3,5,1,stim/51.jpeg,Instruments,2,stim/objects/Instruments/bassdrum2.png,0.9,3,-0.2,-0.15,right,70,2021-04-07_13h04.20.699,premup-three_ses-01_part-01_label-phase1,3.2.4,Win32,60,right,0.695999861,4,0,4,0,1,3,1,0,240,192,1,239,,,,,,,,,,,,,,,,,,
,,1,107,,,,,,,3,5,3,stim/53.jpeg,Instruments,2,stim/objects/Instruments/cello2.png,0.9,2,0.2,0.15,right,70,2021-04-07_13h04.20.699,premup-three_ses-01_part-01_label-phase1,3.2.4,Win32,60,right,1.178999901,4,0,4,0,1,3,1,0,240,178,1,239,,,,,,,,,,,,,,,,,,
,,1,108,,,,,,,2,3,4,stim/34.jpeg,HouseObjects,1,stim/objects/HouseObjects/clothespin.png,0.3,4,0.2,-0.15,left,70,2021-04-07_13h04.20.699,premup-three_ses-01_part-01_label-phase1,3.2.4,Win32,60,left,0.891000032,4,0,4,0,1,3,1,0,240,91,1,239,,,,,,,,,,,,,,,,,,
,,1,109,,,,,,,2,3,2,stim/32.jpeg,HouseObjects,1,stim/objects/HouseObjects/clock.png,0.3,3,-0.2,-0.15,left,70,2021-04-07_13h04.20.699,premup-three_ses-01_part-01_label-phase1,3.2.4,Win32,60,left,1.014999866,4,0,4,0,1,3,1,0,240,85,1,239,,,,,,,,,,,,,,,,,,
,,1,110,,,,,,,3,6,4,stim/64.jpeg,HouseObjects,1,stim/objects/HouseObjects/clothespin2.png,0.9,3,-0.2,-0.15,left,70,2021-04-07_13h04.20.699,premup-three_ses-01_part-01_label-phase1,3.2.4,Win32,60,left,0.76699996,4,0,4,0,1,3,1,0,240,211,1,239,,,,,,,,,,,,,,,,,,
,,1,111,,,,,,,1,1,4,stim/14.jpeg,Instruments,2,stim/objects/Instruments/banjo.png,0.5,1,-0.2,0.15,right,70,2021-04-07_13h04.20.699,premup-three_ses-01_part-01_label-phase1,3.2.4,Win32,60,right,0.79399991,4,0,4,0,1,3,1,0,240,27,1,239,,,,,,,,,,,,,,,,,,
,,1,112,,,,,,,3,5,4,stim/54.jpeg,Instruments,2,stim/objects/Instruments/chime2.png,0.9,2,0.2,0.15,right,70,2021-04-07_13h04.20.699,premup-three_ses-01_part-01_label-phase1,3.2.4,Win32,60,right,0.676999807,4,0,4,0,1,3,1,0,240,187,1,239,,,,,,,,,,,,,,,,,,
,,1,113,,,,,,,3,5,2,stim/52.jpeg,Instruments,2,stim/objects/Instruments/bassguitar2.png,0.9,2,0.2,0.15,right,70,2021-04-07_13h04.20.699,premup-three_ses-01_part-01_label-phase1,3.2.4,Win32,60,right,0.835000038,4,0,4,0,1,3,1,0,240,197,1,239,,,,,,,,,,,,,,,,,,
,,1,114,,,,,,,3,5,4,stim/54.jpeg,Instruments,2,stim/objects/Instruments/chime2.png,0.9,4,0.2,-0.15,right,70,2021-04-07_13h04.20.699,premup-three_ses-01_part-01_label-phase1,3.2.4,Win32,60,right,0.730000019,4,0,4,0,1,3,1,0,240,195,1,239,,,,,,,,,,,,,,,,,,
,,0,115,,,,,,,2,4,2,stim/42.jpeg,HouseObjects,1,stim/objects/HouseObjects/ballofstring2.png,0.7,4,0.2,-0.15,left,70,2021-04-07_13h04.20.699,premup-three_ses-01_part-01_label-phase1,3.2.4,Win32,60,right,1.220999956,4,0,4,0,1,3,1,0,240,141,1,239,,,,,,,,,,,,,,,,,,
,,1,116,,,,,,,3,6,1,stim/61.jpeg,HouseObjects,1,stim/objects/HouseObjects/bucket2.png,0.9,1,-0.2,0.15,left,70,2021-04-07_13h04.20.699,premup-three_ses-01_part-01_label-phase1,3.2.4,Win32,60,left,1.023999929,4,0,4,0,1,3,1,0,240,216,1,239,,,,,,,,,,,,,,,,,,
,,1,117,,,,,,,3,6,4,stim/64.jpeg,HouseObjects,1,stim/objects/HouseObjects/clothespin2.png,0.9,1,-0.2,0.15,left,70,2021-04-07_13h04.20.699,premup-three_ses-01_part-01_label-phase1,3.2.4,Win32,60,left,0.851999998,4,0,4,0,1,3,1,0,240,215,1,239,,,,,,,,,,,,,,,,,,
,,0,118,,,,,,,1,1,4,stim/14.jpeg,HouseObjects,1,stim/objects/HouseObjects/basket.png,0.5,4,0.2,-0.15,left,70,2021-04-07_13h04.20.699,premup-three_ses-01_part-01_label-phase1,3.2.4,Win32,60,right,0.990999937,4,0,4,0,1,3,1,0,240,3,1,239,,,,,,,,,,,,,,,,,,
,,0,119,,,,,,,1,2,2,stim/22.jpeg,HouseObjects,1,stim/objects/HouseObjects/blender.png,0.5,4,0.2,-0.15,left,70,2021-04-07_13h04.20.699,premup-three_ses-01_part-01_label-phase1,3.2.4,Win32,60,right,0.981999874,4,0,4,0,1,3,1,0,240,53,1,239,,,,,,,,,,,,,,,,,,
,,1,120,,,,,,,2,3,4,stim/34.jpeg,Instruments,2,stim/objects/Instruments/doublebass.png,0.7,3,-0.2,-0.15,right,70,2021-04-07_13h04.20.699,premup-three_ses-01_part-01_label-phase1,3.2.4,Win32,60,right,1.341999769,4,0,4,0,1,3,1,0,240,107,1,239,,,,,,,,,,,,,,,,,,
,,1,121,,,,,,,3,6,2,stim/62.jpeg,HouseObjects,1,stim/objects/HouseObjects/clock2.png,0.9,1,-0.2,0.15,left,70,2021-04-07_13h04.20.699,premup-three_ses-01_part-01_label-phase1,3.2.4,Win32,60,left,1.231999874,4,0,4,0,1,3,1,0,240,209,1,239,,,,,,,,,,,,,,,,,,
,,1,122,,,,,,,2,4,3,stim/43.jpeg,HouseObjects,1,stim/objects/HouseObjects/barbecuelighter2.png,0.7,4,0.2,-0.15,left,70,2021-04-07_13h04.20.699,premup-three_ses-01_part-01_label-phase1,3.2.4,Win32,60,left,0.9599998,4,0,4,0,1,3,1,0,240,142,1,239,,,,,,,,,,,,,,,,,,
,,0,123,,,,,,,1,1,3,stim/13.jpeg,Instruments,2,stim/objects/Instruments/balalaika.png,0.5,2,0.2,0.15,right,70,2021-04-07_13h04.20.699,premup-three_ses-01_part-01_label-phase1,3.2.4,Win32,60,left,1.143999815,4,0,4,0,1,3,1,0,240,22,1,239,,,,,,,,,,,,,,,,,,
,,0,124,,,,,,,1,2,4,stim/24.jpeg,HouseObjects,1,stim/objects/HouseObjects/broom.png,0.5,3,-0.2,-0.15,left,70,2021-04-07_13h04.20.699,premup-three_ses-01_part-01_label-phase1,3.2.4,Win32,60,right,0.789999962,4,0,4,0,1,3,1,0,240,47,1,239,,,,,,,,,,,,,,,,,,
,,1,125,,,,,,,1,2,3,stim/23.jpeg,HouseObjects,1,stim/objects/HouseObjects/bottle.png,0.5,1,-0.2,0.15,left,70,2021-04-07_13h04.20.699,premup-three_ses-01_part-01_label-phase1,3.2.4,Win32,60,left,0.734999895,4,0,4,0,1,3,1,0,240,58,1,239,,,,,,,,,,,,,,,,,,
,,1,126,,,,,,,3,6,3,stim/63.jpeg,HouseObjects,1,stim/objects/HouseObjects/clothesdryingrack2.png,0.9,2,0.2,0.15,left,70,2021-04-07_13h04.20.699,premup-three_ses-01_part-01_label-phase1,3.2.4,Win32,60,left,0.585999966,4,0,4,0,1,3,1,0,240,202,1,239,,,,,,,,,,,,,,,,,,
,,1,127,,,,,,,3,5,3,stim/53.jpeg,Instruments,2,stim/objects/Instruments/cello2.png,0.9,1,-0.2,0.15,right,70,2021-04-07_13h04.20.699,premup-three_ses-01_part-01_label-phase1,3.2.4,Win32,60,right,0.71600008,4,0,4,0,1,3,1,0,240,190,1,239,,,,,,,,,,,,,,,,,,
,,0,128,,,,,,,1,2,3,stim/23.jpeg,Instruments,2,stim/objects/Instruments/cello.png,0.5,3,-0.2,-0.15,right,70,2021-04-07_13h04.20.699,premup-three_ses-01_part-01_label-phase1,3.2.4,Win32,60,left,0.823999882,4,0,4,0,1,3,1,0,240,66,1,239,,,,,,,,,,,,,,,,,,
,,0,129,,,,,,,1,2,2,stim/22.jpeg,Instruments,2,stim/objects/Instruments/bassguitar.png,0.5,1,-0.2,0.15,right,70,2021-04-07_13h04.20.699,premup-three_ses-01_part-01_label-phase1,3.2.4,Win32,60,left,0.683000088,4,0,4,0,1,3,1,0,240,77,1,239,,,,,,,,,,,,,,,,,,
,,0,130,,,,,,,2,4,2,stim/42.jpeg,Instruments,2,stim/objects/Instruments/acousticguitar2.png,0.3,3,-0.2,-0.15,right,70,2021-04-07_13h04.20.699,premup-three_ses-01_part-01_label-phase1,3.2.4,Win32,60,left,0.748999834,4,0,4,0,1,3,1,0,240,157,1,239,,,,,,,,,,,,,,,,,,
,,1,131,,,,,,,3,5,1,stim/51.jpeg,Instruments,2,stim/objects/Instruments/bassdrum2.png,0.9,4,0.2,-0.15,right,70,2021-04-07_13h04.20.699,premup-three_ses-01_part-01_label-phase1,3.2.4,Win32,60,right,0.728999853,4,0,4,0,1,3,1,0,240,164,1,239,,,,,,,,,,,,,,,,,,
,,1,132,,,,,,,2,4,2,stim/42.jpeg,HouseObjects,1,stim/objects/HouseObjects/ballofstring2.png,0.7,4,0.2,-0.15,left,70,2021-04-07_13h04.20.699,premup-three_ses-01_part-01_label-phase1,3.2.4,Win32,60,left,0.679999828,4,0,4,0,1,3,1,0,240,125,1,239,,,,,,,,,,,,,,,,,,
,,0,133,,,,,,,2,4,3,stim/43.jpeg,Instruments,2,stim/objects/Instruments/balalaika2.png,0.3,3,-0.2,-0.15,right,70,2021-04-07_13h04.20.699,premup-three_ses-01_part-01_label-phase1,3.2.4,Win32,60,left,0.70600009,4,0,4,0,1,3,1,0,240,150,1,239,,,,,,,,,,,,,,,,,,
,,1,134,,,,,,,1,1,1,stim/11.jpeg,Instruments,2,stim/objects/Instruments/accordion.png,0.5,2,0.2,0.15,right,70,2021-04-07_13h04.20.699,premup-three_ses-01_part-01_label-phase1,3.2.4,Win32,60,right,1.114000082,4,0,4,0,1,3,1,0,240,32,1,239,,,,,,,,,,,,,,,,,,
,,0,135,,,,,,,2,3,2,stim/32.jpeg,Instruments,2,stim/objects/Instruments/cornet.png,0.7,2,0.2,0.15,right,70,2021-04-07_13h04.20.699,premup-three_ses-01_part-01_label-phase1,3.2.4,Win32,60,left,0.791999817,4,0,4,0,1,3,1,0,240,97,1,239,,,,,,,,,,,,,,,,,,
,,0,136,,,,,,,1,1,4,stim/14.jpeg,HouseObjects,1,stim/objects/HouseObjects/basket.png,0.5,4,0.2,-0.15,left,70,2021-04-07_13h04.20.699,premup-three_ses-01_part-01_label-phase1,3.2.4,Win32,60,right,1.32799983,4,0,4,0,1,3,1,0,240,7,1,239,,,,,,,,,,,,,,,,,,
,,0,137,,,,,,,1,1,2,stim/12.jpeg,Instruments,2,stim/objects/Instruments/acousticguitar.png,0.5,4,0.2,-0.15,right,70,2021-04-07_13h04.20.699,premup-three_ses-01_part-01_label-phase1,3.2.4,Win32,60,left,0.687000036,4,0,4,0,1,3,1,0,240,37,1,239,,,,,,,,,,,,,,,,,,
,,1,138,,,,,,,2,4,4,stim/44.jpeg,HouseObjects,1,stim/objects/HouseObjects/basket2.png,0.7,2,0.2,0.15,left,70,2021-04-07_13h04.20.699,premup-three_ses-01_part-01_label-phase1,3.2.4,Win32,60,left,0.738999844,4,0,4,0,1,3,1,0,240,139,1,239,,,,,,,,,,,,,,,,,,
,,1,139,,,,,,,1,1,3,stim/13.jpeg,HouseObjects,1,stim/objects/HouseObjects/barbecuelighter.png,0.5,3,-0.2,-0.15,left,70,2021-04-07_13h04.20.699,premup-three_ses-01_part-01_label-phase1,3.2.4,Win32,60,left,0.911999941,4,0,4,0,1,3,1,0,240,18,1,239,,,,,,,,,,,,,,,,,,
,,0,140,,,,,,,2,4,2,stim/42.jpeg,Instruments,2,stim/objects/Instruments/acousticguitar2.png,0.3,4,0.2,-0.15,right,70,2021-04-07_13h04.20.699,premup-three_ses-01_part-01_label-phase1,3.2.4,Win32,60,left,0.856999874,4,0,4,0,1,3,1,0,240,149,1,239,,,,,,,,,,,,,,,,,,
,,1,141,,,,,,,2,3,1,stim/31.jpeg,Instruments,2,stim/objects/Instruments/clarinet.png,0.7,1,-0.2,0.15,right,70,2021-04-07_13h04.20.699,premup-three_ses-01_part-01_label-phase1,3.2.4,Win32,60,right,0.970999956,4,0,4,0,1,3,1,0,240,100,1,239,,,,,,,,,,,,,,,,,,
,,0,142,,,,,,,2,4,1,stim/41.jpeg,HouseObjects,1,stim/objects/HouseObjects/ashtray2.png,0.7,2,0.2,0.15,left,70,2021-04-07_13h04.20.699,premup-three_ses-01_part-01_label-phase1,3.2.4,Win32,60,right,0.963999748,4,0,4,0,1,3,1,0,240,124,1,239,,,,,,,,,,,,,,,,,,
,,1,143,,,,,,,2,3,4,stim/34.jpeg,Instruments,2,stim/objects/Instruments/doublebass.png,0.7,4,0.2,-0.15,right,70,2021-04-07_13h04.20.699,premup-three_ses-01_part-01_label-phase1,3.2.4,Win32,60,right,0.946000099,4,0,4,0,1,3,1,0,240,119,1,239,,,,,,,,,,,,,,,,,,
,,1,144,,,,,,,1,2,3,stim/23.jpeg,Instruments,2,stim/objects/Instruments/cello.png,0.5,4,0.2,-0.15,right,70,2021-04-07_13h04.20.699,premup-three_ses-01_part-01_label-phase1,3.2.4,Win32,60,right,1.14199996,4,0,4,0,1,3,1,0,240,62,1,239,,,,,,,,,,,,,,,,,,
,,1,145,,,,,,,3,6,4,stim/64.jpeg,HouseObjects,1,stim/objects/HouseObjects/clothespin2.png,0.9,3,-0.2,-0.15,left,70,2021-04-07_13h04.20.699,premup-three_ses-01_part-01_label-phase1,3.2.4,Win32,60,left,0.710000038,4,0,4,0,1,3,1,0,240,219,1,239,,,,,,,,,,,,,,,,,,
,,1,146,,,,,,,3,6,1,stim/61.jpeg,HouseObjects,1,stim/objects/HouseObjects/bucket2.png,0.9,2,0.2,0.15,left,70,2021-04-07_13h04.20.699,premup-three_ses-01_part-01_label-phase1,3.2.4,Win32,60,left,0.638999939,4,0,4,0,1,3,1,0,240,208,1,239,,,,,,,,,,,,,,,,,,
,,1,147,,,,,,,2,4,2,stim/42.jpeg,HouseObjects,1,stim/objects/HouseObjects/ballofstring2.png,0.7,3,-0.2,-0.15,left,70,2021-04-07_13h04.20.699,premup-three_ses-01_part-01_label-phase1,3.2.4,Win32,60,left,0.921000004,4,0,4,0,1,3,1,0,240,145,1,239,,,,,,,,,,,,,,,,,,
,,1,148,,,,,,,2,4,2,stim/42.jpeg,HouseObjects,1,stim/objects/HouseObjects/ballofstring2.png,0.7,2,0.2,0.15,left,70,2021-04-07_13h04.20.699,premup-three_ses-01_part-01_label-phase1,3.2.4,Win32,60,left,0.67599988,4,0,4,0,1,3,1,0,240,137,1,239,,,,,,,,,,,,,,,,,,
,,0,149,,,,,,,1,2,4,stim/24.jpeg,HouseObjects,1,stim/objects/HouseObjects/broom.png,0.5,4,0.2,-0.15,left,70,2021-04-07_13h04.20.699,premup-three_ses-01_part-01_label-phase1,3.2.4,Win32,60,right,0.763999939,4,0,4,0,1,3,1,0,240,55,1,239,,,,,,,,,,,,,,,,,,
,,0,150,,,,,,,2,4,4,stim/44.jpeg,HouseObjects,1,stim/objects/HouseObjects/basket2.png,0.7,3,-0.2,-0.15,left,70,2021-04-07_13h04.20.699,premup-three_ses-01_part-01_label-phase1,3.2.4,Win32,60,right,0.863000154,4,0,4,0,1,3,1,0,240,147,1,239,,,,,,,,,,,,,,,,,,
,,1,151,,,,,,,3,6,2,stim/62.jpeg,HouseObjects,1,stim/objects/HouseObjects/clock2.png,0.9,3,-0.2,-0.15,left,70,2021-04-07_13h04.20.699,premup-three_ses-01_part-01_label-phase1,3.2.4,Win32,60,left,0.571999788,4,0,4,0,1,3,1,0,240,205,1,239,,,,,,,,,,,,,,,,,,
,,0,152,,,,,,,2,3,3,stim/33.jpeg,HouseObjects,1,stim/objects/HouseObjects/clothesdryingrack.png,0.3,1,-0.2,0.15,left,70,2021-04-07_13h04.20.699,premup-three_ses-01_part-01_label-phase1,3.2.4,Win32,60,right,0.775999784,4,0,4,0,1,3,1,0,240,86,1,239,,,,,,,,,,,,,,,,,,
,,1,153,,,,,,,3,5,2,stim/52.jpeg,Instruments,2,stim/objects/Instruments/bassguitar2.png,0.9,3,-0.2,-0.15,right,70,2021-04-07_13h04.20.699,premup-three_ses-01_part-01_label-phase1,3.2.4,Win32,60,right,1.092000008,4,0,4,0,1,3,1,0,240,185,1,239,,,,,,,,,,,,,,,,,,
,,1,154,,,,,,,2,4,2,stim/42.jpeg,HouseObjects,1,stim/objects/HouseObjects/ballofstring2.png,0.7,3,-0.2,-0.15,left,70,2021-04-07_13h04.20.699,premup-three_ses-01_part-01_label-phase1,3.2.4,Win32,60,left,0.745999813,4,0,4,0,1,3,1,0,240,121,1,239,,,,,,,,,,,,,,,,,,
,,0,155,,,,,,,2,3,3,stim/33.jpeg,HouseObjects,1,stim/objects/HouseObjects/clothesdryingrack.png,0.3,3,-0.2,-0.15,left,70,2021-04-07_13h04.20.699,premup-three_ses-01_part-01_label-phase1,3.2.4,Win32,60,right,0.671999931,4,0,4,0,1,3,1,0,240,90,1,239,,,,,,,,,,,,,,,,,,
,,1,156,,,,,,,2,4,1,stim/41.jpeg,Instruments,2,stim/objects/Instruments/accordion2.png,0.3,2,0.2,0.15,right,70,2021-04-07_13h04.20.699,premup-three_ses-01_part-01_label-phase1,3.2.4,Win32,60,right,1.306999922,4,0,4,0,1,3,1,0,240,148,1,239,,,,,,,,,,,,,,,,,,
,,1,157,,,,,,,3,5,3,stim/53.jpeg,Instruments,2,stim/objects/Instruments/cello2.png,0.9,3,-0.2,-0.15,right,70,2021-04-07_13h04.20.699,premup-three_ses-01_part-01_label-phase1,3.2.4,Win32,60,right,0.703999758,4,0,4,0,1,3,1,0,240,166,1,239,,,,,,,,,,,,,,,,,,
,,1,158,,,,,,,2,3,4,stim/34.jpeg,Instruments,2,stim/objects/Instruments/doublebass.png,0.7,1,-0.2,0.15,right,70,2021-04-07_13h04.20.699,premup-three_ses-01_part-01_label-phase1,3.2.4,Win32,60,right,0.829999924,4,0,4,0,1,3,1,0,240,95,1,239,,,,,,,,,,,,,,,,,,
,,0,159,,,,,,,3,6,4,stim/64.jpeg,Instruments,2,stim/objects/Instruments/doublebass2.png,0.1,3,-0.2,-0.15,right,70,2021-04-07_13h04.20.699,premup-three_ses-01_part-01_label-phase1,3.2.4,Win32,60,left,0.56799984,4,0,4,0,1,3,1,0,240,239,1,239,,,,,,,,,,,,,,,,,,
,,0,160,,,,,,,1,1,2,stim/12.jpeg,HouseObjects,1,stim/objects/HouseObjects/ballofstring.png,0.5,2,0.2,0.15,left,70,2021-04-07_13h04.20.699,premup-three_ses-01_part-01_label-phase1,3.2.4,Win32,60,right,1.079999924,4,0,4,0,1,3,1,0,240,5,1,239,,,,,,,,,,,,,,,,,,
,,1,161,,,,,,,3,6,1,stim/61.jpeg,HouseObjects,1,stim/objects/HouseObjects/bucket2.png,0.9,2,0.2,0.15,left,70,2021-04-07_13h04.20.699,premup-three_ses-01_part-01_label-phase1,3.2.4,Win32,60,left,0.588999987,4,0,4,0,1,3,1,0,240,200,1,239,,,,,,,,,,,,,,,,,,
,,1,162,,,,,,,2,4,1,stim/41.jpeg,HouseObjects,1,stim/objects/HouseObjects/ashtray2.png,0.7,2,0.2,0.15,left,70,2021-04-07_13h04.20.699,premup-three_ses-01_part-01_label-phase1,3.2.4,Win32,60,left,1.60800004,4,0,4,0,1,3,1,0,240,140,1,239,,,,,,,,,,,,,,,,,,
,,1,163,,,,,,,3,6,1,stim/61.jpeg,HouseObjects,1,stim/objects/HouseObjects/bucket2.png,0.9,2,0.2,0.15,left,70,2021-04-07_13h04.20.699,premup-three_ses-01_part-01_label-phase1,3.2.4,Win32,60,left,0.617000103,4,0,4,0,1,3,1,0,240,212,1,239,,,,,,,,,,,,,,,,,,
,,1,164,,,,,,,1,2,2,stim/22.jpeg,Instruments,2,stim/objects/Instruments/bassguitar.png,0.5,2,0.2,0.15,right,70,2021-04-07_13h04.20.699,premup-three_ses-01_part-01_label-phase1,3.2.4,Win32,60,right,0.897000074,4,0,4,0,1,3,1,0,240,73,1,239,,,,,,,,,,,,,,,,,,
,,1,165,,,,,,,3,6,4,stim/64.jpeg,HouseObjects,1,stim/objects/HouseObjects/clothespin2.png,0.9,4,0.2,-0.15,left,70,2021-04-07_13h04.20.699,premup-three_ses-01_part-01_label-phase1,3.2.4,Win32,60,left,0.62899971,4,0,4,0,1,3,1,0,240,227,1,239,,,,,,,,,,,,,,,,,,
,,1,166,,,,,,,3,5,4,stim/54.jpeg,Instruments,2,stim/objects/Instruments/chime2.png,0.9,2,0.2,0.15,right,70,2021-04-07_13h04.20.699,premup-three_ses-01_part-01_label-phase1,3.2.4,Win32,60,right,0.621999979,4,0,4,0,1,3,1,0,240,171,1,239,,,,,,,,,,,,,,,,,,
,,1,167,,,,,,,1,2,3,stim/23.jpeg,Instruments,2,stim/objects/Instruments/cello.png,0.5,2,0.2,0.15,right,70,2021-04-07_13h04.20.699,premup-three_ses-01_part-01_label-phase1,3.2.4,Win32,60,right,0.868999958,4,0,4,0,1,3,1,0,240,78,1,239,,,,,,,,,,,,,,,,,,
,,1,168,,,,,,,2,3,4,stim/34.jpeg,Instruments,2,stim/objects/Instruments/doublebass.png,0.7,4,0.2,-0.15,right,70,2021-04-07_13h04.20.699,premup-three_ses-01_part-01_label-phase1,3.2.4,Win32,60,right,0.817000151,4,0,4,0,1,3,1,0,240,99,1,239,,,,,,,,,,,,,,,,,,
,,1,169,,,,,,,3,6,1,stim/61.jpeg,HouseObjects,1,stim/objects/HouseObjects/bucket2.png,0.9,2,0.2,0.15,left,70,2021-04-07_13h04.20.699,premup-three_ses-01_part-01_label-phase1,3.2.4,Win32,60,left,0.582000017,4,0,4,0,1,3,1,0,240,224,1,239,,,,,,,,,,,,,,,,,,
,,0,170,,,,,,,3,6,3,stim/63.jpeg,Instruments,2,stim/objects/Instruments/cymbal2.png,0.1,4,0.2,-0.15,right,70,2021-04-07_13h04.20.699,premup-three_ses-01_part-01_label-phase1,3.2.4,Win32,60,left,0.792999983,4,0,4,0,1,3,1,0,240,238,1,239,,,,,,,,,,,,,,,,,,
,,1,171,,,,,,,3,6,2,stim/62.jpeg,HouseObjects,1,stim/objects/HouseObjects/clock2.png,0.9,4,0.2,-0.15,left,70,2021-04-07_13h04.20.699,premup-three_ses-01_part-01_label-phase1,3.2.4,Win32,60,left,0.55099988,4,0,4,0,1,3,1,0,240,217,1,239,,,,,,,,,,,,,,,,,,
,,1,172,,,,,,,2,4,1,stim/41.jpeg,HouseObjects,1,stim/objects/HouseObjects/ashtray2.png,0.7,4,0.2,-0.15,left,70,2021-04-07_13h04.20.699,premup-three_ses-01_part-01_label-phase1,3.2.4,Win32,60,left,0.982999802,4,0,4,0,1,3,1,0,240,132,1,239,,,,,,,,,,,,,,,,,,
,,0,173,,,,,,,1,1,4,stim/14.jpeg,HouseObjects,1,stim/objects/HouseObjects/basket.png,0.5,2,0.2,0.15,left,70,2021-04-07_13h04.20.699,premup-three_ses-01_part-01_label-phase1,3.2.4,Win32,60,right,0.858999968,4,0,4,0,1,3,1,0,240,19,1,239,,,,,,,,,,,,,,,,,,
,,1,174,,,,,,,3,6,2,stim/62.jpeg,HouseObjects,1,stim/objects/HouseObjects/clock2.png,0.9,1,-0.2,0.15,left,70,2021-04-07_13h04.20.699,premup-three_ses-01_part-01_label-phase1,3.2.4,Win32,60,left,0.573999882,4,0,4,0,1,3,1,0,240,233,1,239,,,,,,,,,,,,,,,,,,
,,1,175,,,,,,,3,5,4,stim/54.jpeg,Instruments,2,stim/objects/Instruments/chime2.png,0.9,3,-0.2,-0.15,right,70,2021-04-07_13h04.20.699,premup-three_ses-01_part-01_label-phase1,3.2.4,Win32,60,right,0.569999933,4,0,4,0,1,3,1,0,240,183,1,239,,,,,,,,,,,,,,,,,,
,,0,176,,,,,,,1,2,4,stim/24.jpeg,HouseObjects,1,stim/objects/HouseObjects/broom.png,0.5,2,0.2,0.15,left,70,2021-04-07_13h04.20.699,premup-three_ses-01_part-01_label-phase1,3.2.4,Win32,60,right,0.667999983,4,0,4,0,1,3,1,0,240,59,1,239,,,,,,,,,,,,,,,,,,
,,0,177,,,,,,,2,3,1,stim/31.jpeg,HouseObjects,1,stim/objects/HouseObjects/bucket.png,0.3,2,0.2,0.15,left,70,2021-04-07_13h04.20.699,premup-three_ses-01_part-01_label-phase1,3.2.4,Win32,60,right,0.71999979,4,0,4,0,1,3,1,0,240,84,1,239,,,,,,,,,,,,,,,,,,
,,1,178,,,,,,,2,3,1,stim/31.jpeg,Instruments,2,stim/objects/Instruments/clarinet.png,0.7,1,-0.2,0.15,right,70,2021-04-07_13h04.20.699,premup-three_ses-01_part-01_label-phase1,3.2.4,Win32,60,right,1.240999937,4,0,4,0,1,3,1,0,240,104,1,239,,,,,,,,,,,,,,,,,,
,,1,179,,,,,,,1,2,3,stim/23.jpeg,Instruments,2,stim/objects/Instruments/cello.png,0.5,4,0.2,-0.15,right,70,2021-04-07_13h04.20.699,premup-three_ses-01_part-01_label-phase1,3.2.4,Win32,60,right,0.858999968,4,0,4,0,1,3,1,0,240,70,1,239,,,,,,,,,,,,,,,,,,
,,1,180,,,,,,,3,5,3,stim/53.jpeg,Instruments,2,stim/objects/Instruments/cello2.png,0.9,2,0.2,0.15,right,70,2021-04-07_13h04.20.699,premup-three_ses-01_part-01_label-phase1,3.2.4,Win32,60,right,0.70600009,4,0,4,0,1,3,1,0,240,170,1,239,,,,,,,,,,,,,,,,,,
,,0,181,,,,,,,1,1,2,stim/12.jpeg,Instruments,2,stim/objects/Instruments/acousticguitar.png,0.5,3,-0.2,-0.15,right,70,2021-04-07_13h04.20.699,premup-three_ses-01_part-01_label-phase1,3.2.4,Win32,60,left,1.008999825,4,0,4,0,1,3,1,0,240,29,1,239,,,,,,,,,,,,,,,,,,
,,1,182,,,,,,,2,4,1,stim/41.jpeg,HouseObjects,1,stim/objects/HouseObjects/ashtray2.png,0.7,4,0.2,-0.15,left,70,2021-04-07_13h04.20.699,premup-three_ses-01_part-01_label-phase1,3.2.4,Win32,60,left,0.812999964,4,0,4,0,1,3,1,0,240,128,1,239,,,,,,,,,,,,,,,,,,
,,1,183,,,,,,,3,6,1,stim/61.jpeg,HouseObjects,1,stim/objects/HouseObjects/bucket2.png,0.9,2,0.2,0.15,left,70,2021-04-07_13h04.20.699,premup-three_ses-01_part-01_label-phase1,3.2.4,Win32,60,left,0.526000023,4,0,4,0,1,3,1,0,240,204,1,239,,,,,,,,,,,,,,,,,,
,,0,184,,,,,,,1,2,2,stim/22.jpeg,HouseObjects,1,stim/objects/HouseObjects/blender.png,0.5,3,-0.2,-0.15,left,70,2021-04-07_13h04.20.699,premup-three_ses-01_part-01_label-phase1,3.2.4,Win32,60,right,0.65199995,4,0,4,0,1,3,1,0,240,57,1,239,,,,,,,,,,,,,,,,,,
,,1,185,,,,,,,2,3,2,stim/32.jpeg,Instruments,2,stim/objects/Instruments/cornet.png,0.7,3,-0.2,-0.15,right,70,2021-04-07_13h04.20.699,premup-three_ses-01_part-01_label-phase1,3.2.4,Win32,60,right,0.796999931,4,0,4,0,1,3,1,0,240,113,1,239,,,,,,,,,,,,,,,,,,
,,1,186,,,,,,,3,6,1,stim/61.jpeg,HouseObjects,1,stim/objects/HouseObjects/bucket2.png,0.9,3,-0.2,-0.15,left,70,2021-04-07_13h04.20.699,premup-three_ses-01_part-01_label-phase1,3.2.4,Win32,60,left,0.678999901,4,0,4,0,1,3,1,0,240,220,1,239,,,,,,,,,,,,,,,,,,
,,1,187,,,,,,,2,4,4,stim/44.jpeg,HouseObjects,1,stim/objects/HouseObjects/basket2.png,0.7,4,0.2,-0.15,left,70,2021-04-07_13h04.20.699,premup-three_ses-01_part-01_label-phase1,3.2.4,Win32,60,left,1.006999969,4,0,4,0,1,3,1,0,240,135,1,239,,,,,,,,,,,,,,,,,,
,,0,188,,,,,,,1,2,3,stim/23.jpeg,HouseObjects,1,stim/objects/HouseObjects/bottle.png,0.5,1,-0.2,0.15,left,70,2021-04-07_13h04.20.699,premup-three_ses-01_part-01_label-phase1,3.2.4,Win32,60,right,1.163000107,4,0,4,0,1,3,1,0,240,42,1,239,,,,,,,,,,,,,,,,,,
,,1,189,,,,,,,3,6,4,stim/64.jpeg,HouseObjects,1,stim/objects/HouseObjects/clothespin2.png,0.9,1,-0.2,0.15,left,70,2021-04-07_13h04.20.699,premup-three_ses-01_part-01_label-phase1,3.2.4,Win32,60,left,0.566999912,4,0,4,0,1,3,1,0,240,207,1,239,,,,,,,,,,,,,,,,,,
,,0,190,,,,,,,1,2,2,stim/22.jpeg,HouseObjects,1,stim/objects/HouseObjects/blender.png,0.5,2,0.2,0.15,left,70,2021-04-07_13h04.20.699,premup-three_ses-01_part-01_label-phase1,3.2.4,Win32,60,right,1.072999954,4,0,4,0,1,3,1,0,240,45,1,239,,,,,,,,,,,,,,,,,,
,,1,191,,,,,,,3,6,4,stim/64.jpeg,HouseObjects,1,stim/objects/HouseObjects/clothespin2.png,0.9,1,-0.2,0.15,left,70,2021-04-07_13h04.20.699,premup-three_ses-01_part-01_label-phase1,3.2.4,Win32,60,left,0.595999956,4,0,4,0,1,3,1,0,240,235,1,239,,,,,,,,,,,,,,,,,,
,,1,192,,,,,,,1,2,4,stim/24.jpeg,Instruments,2,stim/objects/Instruments/chime.png,0.5,1,-0.2,0.15,right,70,2021-04-07_13h04.20.699,premup-three_ses-01_part-01_label-phase1,3.2.4,Win32,60,right,0.961999893,4,0,4,0,1,3,1,0,240,71,1,239,,,,,,,,,,,,,,,,,,
,,0,193,,,,,,,2,3,2,stim/32.jpeg,HouseObjects,1,stim/objects/HouseObjects/clock.png,0.3,2,0.2,0.15,left,70,2021-04-07_13h04.20.699,premup-three_ses-01_part-01_label-phase1,3.2.4,Win32,60,right,0.871999979,4,0,4,0,1,3,1,0,240,81,1,239,,,,,,,,,,,,,,,,,,
,,1,194,,,,,,,3,6,3,stim/63.jpeg,HouseObjects,1,stim/objects/HouseObjects/clothesdryingrack2.png,0.9,4,0.2,-0.15,left,70,2021-04-07_13h04.20.699,premup-three_ses-01_part-01_label-phase1,3.2.4,Win32,60,left,0.620000124,4,0,4,0,1,3,1,0,240,234,1,239,,,,,,,,,,,,,,,,,,
,,1,195,,,,,,,1,2,1,stim/21.jpeg,Instruments,2,stim/objects/Instruments/bassdrum.png,0.5,1,-0.2,0.15,right,70,2021-04-07_13h04.20.699,premup-three_ses-01_part-01_label-phase1,3.2.4,Win32,60,right,1.088000059,4,0,4,0,1,3,1,0,240,64,1,239,,,,,,,,,,,,,,,,,,
,,1,196,,,,,,,3,5,2,stim/52.jpeg,Instruments,2,stim/objects/Instruments/bassguitar2.png,0.9,4,0.2,-0.15,right,70,2021-04-07_13h04.20.699,premup-three_ses-01_part-01_label-phase1,3.2.4,Win32,60,right,0.754999876,4,0,4,0,1,3,1,0,240,165,1,239,,,,,,,,,,,,,,,,,,
,,0,197,,,,,,,2,4,3,stim/43.jpeg,HouseObjects,1,stim/objects/HouseObjects/barbecuelighter2.png,0.7,4,0.2,-0.15,left,70,2021-04-07_13h04.20.699,premup-three_ses-01_part-01_label-phase1,3.2.4,Win32,60,right,1.37899971,4,0,4,0,1,3,1,0,240,134,1,239,,,,,,,,,,,,,,,,,,
,,0,198,,,,,,,1,1,4,stim/14.jpeg,Instruments,2,stim/objects/Instruments/banjo.png,0.5,3,-0.2,-0.15,right,70,2021-04-07_13h04.20.699,premup-three_ses-01_part-01_label-phase1,3.2.4,Win32,60,left,0.868999958,4,0,4,0,1,3,1,0,240,39,1,239,,,,,,,,,,,,,,,,,,
,,1,199,,,,,,,2,3,1,stim/31.jpeg,Instruments,2,stim/objects/Instruments/clarinet.png,0.7,4,0.2,-0.15,right,70,2021-04-07_13h04.20.699,premup-three_ses-01_part-01_label-phase1,3.2.4,Win32,60,right,0.765000105,4,0,4,0,1,3,1,0,240,96,1,239,,,,,,,,,,,,,,,,,,
,,1,200,,,,,,,3,6,2,stim/62.jpeg,HouseObjects,1,stim/objects/HouseObjects/clock2.png,0.9,4,0.2,-0.15,left,70,2021-04-07_13h04.20.699,premup-three_ses-01_part-01_label-phase1,3.2.4,Win32,60,left,1.059999943,4,0,4,0,1,3,1,0,240,225,1,239,,,,,,,,,,,,,,,,,,
,,0,201,,,,,,,1,2,1,stim/21.jpeg,HouseObjects,1,stim/objects/HouseObjects/bleachbottle.png,0.5,3,-0.2,-0.15,left,70,2021-04-07_13h04.20.699,premup-three_ses-01_part-01_label-phase1,3.2.4,Win32,60,right,0.791999817,4,0,4,0,1,3,1,0,240,56,1,239,,,,,,,,,,,,,,,,,,
,,1,202,,,,,,,3,5,4,stim/54.jpeg,Instruments,2,stim/objects/Instruments/chime2.png,0.9,1,-0.2,0.15,right,70,2021-04-07_13h04.20.699,premup-three_ses-01_part-01_label-phase1,3.2.4,Win32,60,right,0.578000069,4,0,4,0,1,3,1,0,240,175,1,239,,,,,,,,,,,,,,,,,,
,,1,203,,,,,,,1,1,1,stim/11.jpeg,Instruments,2,stim/objects/Instruments/accordion.png,0.5,3,-0.2,-0.15,right,70,2021-04-07_13h04.20.699,premup-three_ses-01_part-01_label-phase1,3.2.4,Win32,60,right,0.921000004,4,0,4,0,1,3,1,0,240,20,1,239,,,,,,,,,,,,,,,,,,
,,1,204,,,,,,,3,6,3,stim/63.jpeg,HouseObjects,1,stim/objects/HouseObjects/clothesdryingrack2.png,0.9,4,0.2,-0.15,left,70,2021-04-07_13h04.20.699,premup-three_ses-01_part-01_label-phase1,3.2.4,Win32,60,left,0.595000029,4,0,4,0,1,3,1,0,240,210,1,239,,,,,,,,,,,,,,,,,,
,,1,205,,,,,,,1,1,3,stim/13.jpeg,HouseObjects,1,stim/objects/HouseObjects/barbecuelighter.png,0.5,1,-0.2,0.15,left,70,2021-04-07_13h04.20.699,premup-three_ses-01_part-01_label-phase1,3.2.4,Win32,60,left,0.888000011,4,0,4,0,1,3,1,0,240,14,1,239,,,,,,,,,,,,,,,,,,
,,1,206,,,,,,,3,5,4,stim/54.jpeg,Instruments,2,stim/objects/Instruments/chime2.png,0.9,2,0.2,0.15,right,70,2021-04-07_13h04.20.699,premup-three_ses-01_part-01_label-phase1,3.2.4,Win32,60,right,0.667999744,4,0,4,0,1,3,1,0,240,191,1,239,,,,,,,,,,,,,,,,,,
,,0,207,,,,,,,2,3,4,stim/34.jpeg,HouseObjects,1,stim/objects/HouseObjects/clothespin.png,0.3,1,-0.2,0.15,left,70,2021-04-07_13h04.20.699,premup-three_ses-01_part-01_label-phase1,3.2.4,Win32,60,right,0.90899992,4,0,4,0,1,3,1,0,240,87,1,239,,,,,,,,,,,,,,,,,,
,,0,208,,,,,,,2,4,3,stim/43.jpeg,HouseObjects,1,stim/objects/HouseObjects/barbecuelighter2.png,0.7,1,-0.2,0.15,left,70,2021-04-07_13h04.20.699,premup-three_ses-01_part-01_label-phase1,3.2.4,Win32,60,right,0.992999792,4,0,4,0,1,3,1,0,240,130,1,239,,,,,,,,,,,,,,,,,,
,,1,209,,,,,,,2,3,3,stim/33.jpeg,Instruments,2,stim/objects/Instruments/cymbal.png,0.7,1,-0.2,0.15,right,70,2021-04-07_13h04.20.699,premup-three_ses-01_part-01_label-phase1,3.2.4,Win32,60,right,0.88499999,4,0,4,0,1,3,1,0,240,118,1,239,,,,,,,,,,,,,,,,,,
,,1,210,,,,,,,1,1,3,stim/13.jpeg,HouseObjects,1,stim/objects/HouseObjects/barbecuelighter.png,0.5,3,-0.2,-0.15,left,70,2021-04-07_13h04.20.699,premup-three_ses-01_part-01_label-phase1,3.2.4,Win32,60,left,0.652999878,4,0,4,0,1,3,1,0,240,2,1,239,,,,,,,,,,,,,,,,,,
,,1,211,,,,,,,2,3,2,stim/32.jpeg,Instruments,2,stim/objects/Instruments/cornet.png,0.7,2,0.2,0.15,right,70,2021-04-07_13h04.20.699,premup-three_ses-01_part-01_label-phase1,3.2.4,Win32,60,right,0.719000101,4,0,4,0,1,3,1,0,240,101,1,239,,,,,,,,,,,,,,,,,,
,,1,212,,,,,,,2,3,3,stim/33.jpeg,Instruments,2,stim/objects/Instruments/cymbal.png,0.7,2,0.2,0.15,right,70,2021-04-07_13h04.20.699,premup-three_ses-01_part-01_label-phase1,3.2.4,Win32,60,right,0.704999924,4,0,4,0,1,3,1,0,240,106,1,239,,,,,,,,,,,,,,,,,,
,,0,213,,,,,,,1,1,1,stim/11.jpeg,Instruments,2,stim/objects/Instruments/accordion.png,0.5,3,-0.2,-0.15,right,70,2021-04-07_13h04.20.699,premup-three_ses-01_part-01_label-phase1,3.2.4,Win32,60,left,1.04399991,4,0,4,0,1,3,1,0,240,28,1,239,,,,,,,,,,,,,,,,,,
,,1,214,,,,,,,3,6,3,stim/63.jpeg,HouseObjects,1,stim/objects/HouseObjects/clothesdryingrack2.png,0.9,1,-0.2,0.15,left,70,2021-04-07_13h04.20.699,premup-three_ses-01_part-01_label-phase1,3.2.4,Win32,60,left,0.566999912,4,0,4,0,1,3,1,0,240,226,1,239,,,,,,,,,,,,,,,,,,
,,0,215,,,,,,,1,1,1,stim/11.jpeg,HouseObjects,1,stim/objects/HouseObjects/ashtray.png,0.5,4,0.2,-0.15,left,70,2021-04-07_13h04.20.699,premup-three_ses-01_part-01_label-phase1,3.2.4,Win32,60,right,1.122999907,4,0,4,0,1,3,1,0,240,12,1,239,,,,,,,,,,,,,,,,,,
,,1,216,,,,,,,2,4,4,stim/44.jpeg,HouseObjects,1,stim/objects/HouseObjects/basket2.png,0.7,3,-0.2,-0.15,left,70,2021-04-07_13h04.20.699,premup-three_ses-01_part-01_label-phase1,3.2.4,Win32,60,left,0.734999895,4,0,4,0,1,3,1,0,240,127,1,239,,,,,,,,,,,,,,,,,,
,,0,217,,,,,,,1,1,4,stim/14.jpeg,Instruments,2,stim/objects/Instruments/banjo.png,0.5,3,-0.2,-0.15,right,70,2021-04-07_13h04.20.699,premup-three_ses-01_part-01_label-phase1,3.2.4,Win32,60,left,0.957000017,4,0,4,0,1,3,1,0,240,31,1,239,,,,,,,,,,,,,,,,,,
,,1,218,,,,,,,2,4,4,stim/44.jpeg,HouseObjects,1,stim/objects/HouseObjects/basket2.png,0.7,3,-0.2,-0.15,left,70,2021-04-07_13h04.20.699,premup-three_ses-01_part-01_label-phase1,3.2.4,Win32,60,left,0.612999916,4,0,4,0,1,3,1,0,240,131,1,239,,,,,,,,,,,,,,,,,,
,,1,219,,,,,,,3,6,4,stim/64.jpeg,HouseObjects,1,stim/objects/HouseObjects/clothespin2.png,0.9,4,0.2,-0.15,left,70,2021-04-07_13h04.20.699,premup-three_ses-01_part-01_label-phase1,3.2.4,Win32,60,left,0.573999882,4,0,4,0,1,3,1,0,240,203,1,239,,,,,,,,,,,,,,,,,,
,,0,220,,,,,,,2,4,2,stim/42.jpeg,Instruments,2,stim/objects/Instruments/acousticguitar2.png,0.3,2,0.2,0.15,right,70,2021-04-07_13h04.20.699,premup-three_ses-01_part-01_label-phase1,3.2.4,Win32,60,left,1.032000065,4,0,4,0,1,3,1,0,240,153,1,239,,,,,,,,,,,,,,,,,,
,,1,221,,,,,,,2,4,3,stim/43.jpeg,HouseObjects,1,stim/objects/HouseObjects/barbecuelighter2.png,0.7,4,0.2,-0.15,left,70,2021-04-07_13h04.20.699,premup-three_ses-01_part-01_label-phase1,3.2.4,Win32,60,left,0.629999876,4,0,4,0,1,3,1,0,240,146,1,239,,,,,,,,,,,,,,,,,,
,,1,222,,,,,,,2,3,4,stim/34.jpeg,Instruments,2,stim/objects/Instruments/doublebass.png,0.7,4,0.2,-0.15,right,70,2021-04-07_13h04.20.699,premup-three_ses-01_part-01_label-phase1,3.2.4,Win32,60,right,0.642999887,4,0,4,0,1,3,1,0,240,115,1,239,,,,,,,,,,,,,,,,,,
,,0,223,,,,,,,1,1,4,stim/14.jpeg,Instruments,2,stim/objects/Instruments/banjo.png,0.5,2,0.2,0.15,right,70,2021-04-07_13h04.20.699,premup-three_ses-01_part-01_label-phase1,3.2.4,Win32,60,left,0.667999983,4,0,4,0,1,3,1,0,240,35,1,239,,,,,,,,,,,,,,,,,,
,,0,224,,,,,,,1,1,3,stim/13.jpeg,Instruments,2,stim/objects/Instruments/balalaika.png,0.5,4,0.2,-0.15,right,70,2021-04-07_13h04.20.699,premup-three_ses-01_part-01_label-phase1,3.2.4,Win32,60,left,0.68900013,4,0,4,0,1,3,1,0,240,34,1,239,,,,,,,,,,,,,,,,,,
,,1,225,,,,,,,1,2,1,stim/21.jpeg,Instruments,2,stim/objects/Instruments/bassdrum.png,0.5,4,0.2,-0.15,right,70,2021-04-07_13h04.20.699,premup-three_ses-01_part-01_label-phase1,3.2.4,Win32,60,right,0.926999807,4,0,4,0,1,3,1,0,240,68,1,239,,,,,,,,,,,,,,,,,,
,,1,226,,,,,,,1,1,2,stim/12.jpeg,Instruments,2,stim/objects/Instruments/acousticguitar.png,0.5,2,0.2,0.15,right,70,2021-04-07_13h04.20.699,premup-three_ses-01_part-01_label-phase1,3.2.4,Win32,60,right,0.739999771,4,0,4,0,1,3,1,0,240,21,1,239,,,,,,,,,,,,,,,,,,
,,1,227,,,,,,,3,5,1,stim/51.jpeg,Instruments,2,stim/objects/Instruments/bassdrum2.png,0.9,3,-0.2,-0.15,right,70,2021-04-07_13h04.20.699,premup-three_ses-01_part-01_label-phase1,3.2.4,Win32,60,right,0.586999893,4,0,4,0,1,3,1,0,240,196,1,239,,,,,,,,,,,,,,,,,,
,,0,228,,,,,,,2,3,4,stim/34.jpeg,HouseObjects,1,stim/objects/HouseObjects/clothespin.png,0.3,1,-0.2,0.15,left,70,2021-04-07_13h04.20.699,premup-three_ses-01_part-01_label-phase1,3.2.4,Win32,60,right,0.78399992,4,0,4,0,1,3,1,0,240,83,1,239,,,,,,,,,,,,,,,,,,
,,0,229,,,,,,,1,2,2,stim/22.jpeg,Instruments,2,stim/objects/Instruments/bassguitar.png,0.5,1,-0.2,0.15,right,70,2021-04-07_13h04.20.699,premup-three_ses-01_part-01_label-phase1,3.2.4,Win32,60,left,0.980999947,4,0,4,0,1,3,1,0,240,65,1,239,,,,,,,,,,,,,,,,,,
,,1,230,,,,,,,3,6,1,stim/61.jpeg,HouseObjects,1,stim/objects/HouseObjects/bucket2.png,0.9,4,0.2,-0.15,left,70,2021-04-07_13h04.20.699,premup-three_ses-01_part-01_label-phase1,3.2.4,Win32,60,left,0.519999981,4,0,4,0,1,3,1,0,240,232,1,239,,,,,,,,,,,,,,,,,,
,,1,231,,,,,,,3,5,1,stim/51.jpeg,Instruments,2,stim/objects/Instruments/bassdrum2.png,0.9,4,0.2,-0.15,right,70,2021-04-07_13h04.20.699,premup-three_ses-01_part-01_label-phase1,3.2.4,Win32,60,right,0.544999838,4,0,4,0,1,3,1,0,240,176,1,239,,,,,,,,,,,,,,,,,,
,,1,232,,,,,,,2,3,4,stim/34.jpeg,Instruments,2,stim/objects/Instruments/doublebass.png,0.7,3,-0.2,-0.15,right,70,2021-04-07_13h04.20.699,premup-three_ses-01_part-01_label-phase1,3.2.4,Win32,60,right,0.739000082,4,0,4,0,1,3,1,0,240,103,1,239,,,,,,,,,,,,,,,,,,
,,0,233,,,,,,,2,3,1,stim/31.jpeg,HouseObjects,1,stim/objects/HouseObjects/bucket.png,0.3,1,-0.2,0.15,left,70,2021-04-07_13h04.20.699,premup-three_ses-01_part-01_label-phase1,3.2.4,Win32,60,right,0.555999994,4,0,4,0,1,3,1,0,240,88,1,239,,,,,,,,,,,,,,,,,,
,,0,234,,,,,,,1,1,1,stim/11.jpeg,HouseObjects,1,stim/objects/HouseObjects/ashtray.png,0.5,2,0.2,0.15,left,70,2021-04-07_13h04.20.699,premup-three_ses-01_part-01_label-phase1,3.2.4,Win32,60,right,0.994999886,4,0,4,0,1,3,1,0,240,4,1,239,,,,,,,,,,,,,,,,,,
,,1,235,,,,,,,2,4,2,stim/42.jpeg,HouseObjects,1,stim/objects/HouseObjects/ballofstring2.png,0.7,2,0.2,0.15,left,70,2021-04-07_13h04.20.699,premup-three_ses-01_part-01_label-phase1,3.2.4,Win32,60,left,0.723999739,4,0,4,0,1,3,1,0,240,133,1,239,,,,,,,,,,,,,,,,,,
,,1,236,,,,,,,1,2,3,stim/23.jpeg,HouseObjects,1,stim/objects/HouseObjects/bottle.png,0.5,3,-0.2,-0.15,left,70,2021-04-07_13h04.20.699,premup-three_ses-01_part-01_label-phase1,3.2.4,Win32,60,left,0.977999926,4,0,4,0,1,3,1,0,240,50,1,239,,,,,,,,,,,,,,,,,,
,,1,237,,,,,,,2,4,2,stim/42.jpeg,HouseObjects,1,stim/objects/HouseObjects/ballofstring2.png,0.7,2,0.2,0.15,left,70,2021-04-07_13h04.20.699,premup-three_ses-01_part-01_label-phase1,3.2.4,Win32,60,left,0.553999901,4,0,4,0,1,3,1,0,240,129,1,239,,,,,,,,,,,,,,,,,,
,,1,238,,,,,,,2,4,3,stim/43.jpeg,HouseObjects,1,stim/objects/HouseObjects/barbecuelighter2.png,0.7,2,0.2,0.15,left,70,2021-04-07_13h04.20.699,premup-three_ses-01_part-01_label-phase1,3.2.4,Win32,60,left,0.802999973,4,0,4,0,1,3,1,0,240,138,1,239,,,,,,,,,,,,,,,,,,
,,1,239,,,,,,,2,4,4,stim/44.jpeg,Instruments,2,stim/objects/Instruments/banjo2.png,0.3,4,0.2,-0.15,right,70,2021-04-07_13h04.20.699,premup-three_ses-01_part-01_label-phase1,3.2.4,Win32,60,right,0.92599988,4,0,4,0,1,3,1,0,240,159,1,239,,,,,,,,,,,,,,,,,,
,,1,240,,,,,,,3,6,3,stim/63.jpeg,HouseObjects,1,stim/objects/HouseObjects/clothesdryingrack2.png,0.9,3,-0.2,-0.15,left,70,2021-04-07_13h04.20.699,premup-three_ses-01_part-01_label-phase1,3.2.4,Win32,60,left,0.56799984,4,0,4,0,1,3,1,0,240,230,1,239,,,,,,,,,,,,,,,,,,
,,,,,,,,,,,4,,stim/41.jpeg,,,,,,,,,70,2021-04-07_13h04.20.699,premup-three_ses-01_part-01_label-phase1,3.2.4,Win32,60,,,4,0,4,0,1,3,,,,,,,1,0,80,11.95099998,,,1,0,6,3,1,5,Household items,65,75,Music items,25,35
,,,,,,,,,,,5,,stim/51.jpeg,,,,,,,,,70,2021-04-07_13h04.20.699,premup-three_ses-01_part-01_label-phase1,3.2.4,Win32,60,,,4,0,4,0,1,3,,,,,,,1,0,94,8.303999901,,,1,0,6,4,1,5,Music items,5,15,Household items,85,95
,,,,,,,,,,,2,,stim/21.jpeg,,,,,,,,,70,2021-04-07_13h04.20.699,premup-three_ses-01_part-01_label-phase1,3.2.4,Win32,60,,,4,0,4,0,1,3,,,,,,,1,0,9,7.684999943,,,1,0,6,1,1,5,Music items,45,55,Household items,45,55
,,,,,,,,,,,1,,stim/11.jpeg,,,,,,,,,70,2021-04-07_13h04.20.699,premup-three_ses-01_part-01_label-phase1,3.2.4,Win32,60,,,4,0,4,0,1,3,,,,,,,1,0,40,7.406999826,,,1,0,6,0,1,5,Household items,45,55,Music items,45,55
,,,,,,,,,,,6,,stim/61.jpeg,,,,,,,,,70,2021-04-07_13h04.20.699,premup-three_ses-01_part-01_label-phase1,3.2.4,Win32,60,,,4,0,4,0,1,3,,,,,,,1,0,99,6.010999918,,,1,0,6,5,1,5,Household items,5,15,Music items,85,95
,,,,,,,,,,,3,,stim/31.jpeg,,,,,,,,,70,2021-04-07_13h04.20.699,premup-three_ses-01_part-01_label-phase1,3.2.4,Win32,60,,,4,0,4,0,1,3,,,,,,,1,0,28,8.752000093,,,1,0,6,2,1,5,Household items,65,75,Music items,25,35
,,,,,,,,,,,,,,,,,,,,,,70,2021-04-07_13h04.20.699,premup-three_ses-01_part-01_label-phase1,3.2.4,Win32,60,,,4,0,4,0,1,3,,,,,,,,,,,,,,,,,,,,,,,,
,,0,1,,,,,,,1,2,2,stim/22.jpeg,Instruments,2,stim/objects/Instruments/bassguitar.png,0.5,1,-0.2,0.15,right,70,2021-04-07_13h04.20.699,premup-three_ses-01_part-01_label-phase1,3.2.4,Win32,60,left,1.115999937,4,0,4,0,1,3,1,0,240,69,1,239,,,,,,,,,,,,,,,,,,
,,1,2,,,,,,,1,2,1,stim/21.jpeg,HouseObjects,1,stim/objects/HouseObjects/bleachbottle.png,0.5,1,-0.2,0.15,left,70,2021-04-07_13h04.20.699,premup-three_ses-01_part-01_label-phase1,3.2.4,Win32,60,left,0.857999802,4,0,4,0,1,3,1,0,240,52,1,239,,,,,,,,,,,,,,,,,,
,,0,3,,,,,,,1,2,2,stim/22.jpeg,HouseObjects,1,stim/objects/HouseObjects/blender.png,0.5,2,0.2,0.15,left,70,2021-04-07_13h04.20.699,premup-three_ses-01_part-01_label-phase1,3.2.4,Win32,60,right,1.197999954,4,0,4,0,1,3,1,0,240,49,1,239,,,,,,,,,,,,,,,,,,
,,1,4,,,,,,,3,6,1,stim/61.jpeg,HouseObjects,1,stim/objects/HouseObjects/bucket2.png,0.9,1,-0.2,0.15,left,70,2021-04-07_13h04.20.699,premup-three_ses-01_part-01_label-phase1,3.2.4,Win32,60,left,0.625999928,4,0,4,0,1,3,1,0,240,216,1,239,,,,,,,,,,,,,,,,,,
,,1,5,,,,,,,2,4,2,stim/42.jpeg,HouseObjects,1,stim/objects/HouseObjects/ballofstring2.png,0.7,2,0.2,0.15,left,70,2021-04-07_13h04.20.699,premup-three_ses-01_part-01_label-phase1,3.2.4,Win32,60,left,0.911999941,4,0,4,0,1,3,1,0,240,137,1,239,,,,,,,,,,,,,,,,,,
,,1,6,,,,,,,2,4,4,stim/44.jpeg,HouseObjects,1,stim/objects/HouseObjects/basket2.png,0.7,3,-0.2,-0.15,left,70,2021-04-07_13h04.20.699,premup-three_ses-01_part-01_label-phase1,3.2.4,Win32,60,left,0.638999939,4,0,4,0,1,3,1,0,240,147,1,239,,,,,,,,,,,,,,,,,,
,,1,7,,,,,,,3,5,3,stim/53.jpeg,Instruments,2,stim/objects/Instruments/cello2.png,0.9,1,-0.2,0.15,right,70,2021-04-07_13h04.20.699,premup-three_ses-01_part-01_label-phase1,3.2.4,Win32,60,right,1.138999939,4,0,4,0,1,3,1,0,240,198,1,239,,,,,,,,,,,,,,,,,,
,,0,8,,,,,,,1,2,2,stim/22.jpeg,HouseObjects,1,stim/objects/HouseObjects/blender.png,0.5,4,0.2,-0.15,left,70,2021-04-07_13h04.20.699,premup-three_ses-01_part-01_label-phase1,3.2.4,Win32,60,right,0.788999796,4,0,4,0,1,3,1,0,240,53,1,239,,,,,,,,,,,,,,,,,,
,,1,9,,,,,,,1,1,1,stim/11.jpeg,HouseObjects,1,stim/objects/HouseObjects/ashtray.png,0.5,2,0.2,0.15,left,70,2021-04-07_13h04.20.699,premup-three_ses-01_part-01_label-phase1,3.2.4,Win32,60,left,1.025999784,4,0,4,0,1,3,1,0,240,0,1,239,,,,,,,,,,,,,,,,,,
,,0,10,,,,,,,2,4,3,stim/43.jpeg,Instruments,2,stim/objects/Instruments/balalaika2.png,0.3,3,-0.2,-0.15,right,70,2021-04-07_13h04.20.699,premup-three_ses-01_part-01_label-phase1,3.2.4,Win32,60,left,0.710999727,4,0,4,0,1,3,1,0,240,150,1,239,,,,,,,,,,,,,,,,,,
,,0,11,,,,,,,2,4,4,stim/44.jpeg,Instruments,2,stim/objects/Instruments/banjo2.png,0.3,1,-0.2,0.15,right,70,2021-04-07_13h04.20.699,premup-three_ses-01_part-01_label-phase1,3.2.4,Win32,60,left,0.806999922,4,0,4,0,1,3,1,0,240,151,1,239,,,,,,,,,,,,,,,,,,
,,0,12,,,,,,,2,4,2,stim/42.jpeg,Instruments,2,stim/objects/Instruments/acousticguitar2.png,0.3,4,0.2,-0.15,right,70,2021-04-07_13h04.20.699,premup-three_ses-01_part-01_label-phase1,3.2.4,Win32,60,left,0.757999897,4,0,4,0,1,3,1,0,240,149,1,239,,,,,,,,,,,,,,,,,,
,,0,13,,,,,,,2,4,2,stim/42.jpeg,HouseObjects,1,stim/objects/HouseObjects/ballofstring2.png,0.7,3,-0.2,-0.15,left,70,2021-04-07_13h04.20.699,premup-three_ses-01_part-01_label-phase1,3.2.4,Win32,60,right,0.7099998,4,0,4,0,1,3,1,0,240,121,1,239,,,,,,,,,,,,,,,,,,
,,1,14,,,,,,,3,5,2,stim/52.jpeg,Instruments,2,stim/objects/Instruments/bassguitar2.png,0.9,1,-0.2,0.15,right,70,2021-04-07_13h04.20.699,premup-three_ses-01_part-01_label-phase1,3.2.4,Win32,60,right,0.632999897,4,0,4,0,1,3,1,0,240,189,1,239,,,,,,,,,,,,,,,,,,
,,0,15,,,,,,,2,3,2,stim/32.jpeg,Instruments,2,stim/objects/Instruments/cornet.png,0.7,2,0.2,0.15,right,70,2021-04-07_13h04.20.699,premup-three_ses-01_part-01_label-phase1,3.2.4,Win32,60,left,1.115999937,4,0,4,0,1,3,1,0,240,97,1,239,,,,,,,,,,,,,,,,,,
,,0,16,,,,,,,2,3,1,stim/31.jpeg,HouseObjects,1,stim/objects/HouseObjects/bucket.png,0.3,2,0.2,0.15,left,70,2021-04-07_13h04.20.699,premup-three_ses-01_part-01_label-phase1,3.2.4,Win32,60,right,0.688999891,4,0,4,0,1,3,1,0,240,84,1,239,,,,,,,,,,,,,,,,,,
,,1,17,,,,,,,2,4,2,stim/42.jpeg,HouseObjects,1,stim/objects/HouseObjects/ballofstring2.png,0.7,3,-0.2,-0.15,left,70,2021-04-07_13h04.20.699,premup-three_ses-01_part-01_label-phase1,3.2.4,Win32,60,left,1.198999882,4,0,4,0,1,3,1,0,240,145,1,239,,,,,,,,,,,,,,,,,,
,,0,18,,,,,,,2,4,3,stim/43.jpeg,HouseObjects,1,stim/objects/HouseObjects/barbecuelighter2.png,0.7,1,-0.2,0.15,left,70,2021-04-07_13h04.20.699,premup-three_ses-01_part-01_label-phase1,3.2.4,Win32,60,right,1.248999834,4,0,4,0,1,3,1,0,240,130,1,239,,,,,,,,,,,,,,,,,,
,,1,19,,,,,,,2,4,4,stim/44.jpeg,HouseObjects,1,stim/objects/HouseObjects/basket2.png,0.7,3,-0.2,-0.15,left,70,2021-04-07_13h04.20.699,premup-three_ses-01_part-01_label-phase1,3.2.4,Win32,60,left,0.874000072,4,0,4,0,1,3,1,0,240,127,1,239,,,,,,,,,,,,,,,,,,
,,1,20,,,,,,,3,6,4,stim/64.jpeg,HouseObjects,1,stim/objects/HouseObjects/clothespin2.png,0.9,1,-0.2,0.15,left,70,2021-04-07_13h04.20.699,premup-three_ses-01_part-01_label-phase1,3.2.4,Win32,60,left,0.605999947,4,0,4,0,1,3,1,0,240,207,1,239,,,,,,,,,,,,,,,,,,
,,1,21,,,,,,,1,1,1,stim/11.jpeg,HouseObjects,1,stim/objects/HouseObjects/ashtray.png,0.5,2,0.2,0.15,left,70,2021-04-07_13h04.20.699,premup-three_ses-01_part-01_label-phase1,3.2.4,Win32,60,left,0.700999975,4,0,4,0,1,3,1,0,240,4,1,239,,,,,,,,,,,,,,,,,,
,,0,22,,,,,,,2,4,2,stim/42.jpeg,Instruments,2,stim/objects/Instruments/acousticguitar2.png,0.3,3,-0.2,-0.15,right,70,2021-04-07_13h04.20.699,premup-three_ses-01_part-01_label-phase1,3.2.4,Win32,60,left,0.615999937,4,0,4,0,1,3,1,0,240,157,1,239,,,,,,,,,,,,,,,,,,
,,1,23,,,,,,,2,4,3,stim/43.jpeg,HouseObjects,1,stim/objects/HouseObjects/barbecuelighter2.png,0.7,2,0.2,0.15,left,70,2021-04-07_13h04.20.699,premup-three_ses-01_part-01_label-phase1,3.2.4,Win32,60,left,0.598999739,4,0,4,0,1,3,1,0,240,138,1,239,,,,,,,,,,,,,,,,,,
,,1,24,,,,,,,3,5,1,stim/51.jpeg,Instruments,2,stim/objects/Instruments/bassdrum2.png,0.9,3,-0.2,-0.15,right,70,2021-04-07_13h04.20.699,premup-three_ses-01_part-01_label-phase1,3.2.4,Win32,60,right,0.607999802,4,0,4,0,1,3,1,0,240,192,1,239,,,,,,,,,,,,,,,,,,
,,1,25,,,,,,,1,2,4,stim/24.jpeg,Instruments,2,stim/objects/Instruments/chime.png,0.5,4,0.2,-0.15,right,70,2021-04-07_13h04.20.699,premup-three_ses-01_part-01_label-phase1,3.2.4,Win32,60,right,0.837999821,4,0,4,0,1,3,1,0,240,63,1,239,,,,,,,,,,,,,,,,,,
,,1,26,,,,,,,2,4,1,stim/41.jpeg,HouseObjects,1,stim/objects/HouseObjects/ashtray2.png,0.7,2,0.2,0.15,left,70,2021-04-07_13h04.20.699,premup-three_ses-01_part-01_label-phase1,3.2.4,Win32,60,left,1.17599988,4,0,4,0,1,3,1,0,240,136,1,239,,,,,,,,,,,,,,,,,,
,,0,27,,,,,,,1,1,4,stim/14.jpeg,Instruments,2,stim/objects/Instruments/banjo.png,0.5,1,-0.2,0.15,right,70,2021-04-07_13h04.20.699,premup-three_ses-01_part-01_label-phase1,3.2.4,Win32,60,left,0.92599988,4,0,4,0,1,3,1,0,240,27,1,239,,,,,,,,,,,,,,,,,,
,,1,28,,,,,,,3,5,4,stim/54.jpeg,Instruments,2,stim/objects/Instruments/chime2.png,0.9,3,-0.2,-0.15,right,70,2021-04-07_13h04.20.699,premup-three_ses-01_part-01_label-phase1,3.2.4,Win32,60,right,0.527999878,4,0,4,0,1,3,1,0,240,183,1,239,,,,,,,,,,,,,,,,,,
,,0,29,,,,,,,3,6,3,stim/63.jpeg,Instruments,2,stim/objects/Instruments/cymbal2.png,0.1,4,0.2,-0.15,right,70,2021-04-07_13h04.20.699,premup-three_ses-01_part-01_label-phase1,3.2.4,Win32,60,left,0.5849998,4,0,4,0,1,3,1,0,240,238,1,239,,,,,,,,,,,,,,,,,,
,,1,30,,,,,,,1,2,1,stim/21.jpeg,HouseObjects,1,stim/objects/HouseObjects/bleachbottle.png,0.5,3,-0.2,-0.15,left,70,2021-04-07_13h04.20.699,premup-three_ses-01_part-01_label-phase1,3.2.4,Win32,60,left,0.924999952,4,0,4,0,1,3,1,0,240,56,1,239,,,,,,,,,,,,,,,,,,
,,0,31,,,,,,,2,3,2,stim/32.jpeg,Instruments,2,stim/objects/Instruments/cornet.png,0.7,1,-0.2,0.15,right,70,2021-04-07_13h04.20.699,premup-three_ses-01_part-01_label-phase1,3.2.4,Win32,60,left,0.774999857,4,0,4,0,1,3,1,0,240,109,1,239,,,,,,,,,,,,,,,,,,
,,1,32,,,,,,,1,2,4,stim/24.jpeg,HouseObjects,1,stim/objects/HouseObjects/broom.png,0.5,4,0.2,-0.15,left,70,2021-04-07_13h04.20.699,premup-three_ses-01_part-01_label-phase1,3.2.4,Win32,60,left,1.26699996,4,0,4,0,1,3,1,0,240,55,1,239,,,,,,,,,,,,,,,,,,
,,0,33,,,,,,,1,2,2,stim/22.jpeg,Instruments,2,stim/objects/Instruments/bassguitar.png,0.5,1,-0.2,0.15,right,70,2021-04-07_13h04.20.699,premup-three_ses-01_part-01_label-phase1,3.2.4,Win32,60,left,0.697999954,4,0,4,0,1,3,1,0,240,61,1,239,,,,,,,,,,,,,,,,,,
,,0,34,,,,,,,1,1,2,stim/12.jpeg,HouseObjects,1,stim/objects/HouseObjects/ballofstring.png,0.5,2,0.2,0.15,left,70,2021-04-07_13h04.20.699,premup-three_ses-01_part-01_label-phase1,3.2.4,Win32,60,right,0.812999725,4,0,4,0,1,3,1,0,240,5,1,239,,,,,,,,,,,,,,,,,,
,,1,35,,,,,,,3,5,1,stim/51.jpeg,Instruments,2,stim/objects/Instruments/bassdrum2.png,0.9,1,-0.2,0.15,right,70,2021-04-07_13h04.20.699,premup-three_ses-01_part-01_label-phase1,3.2.4,Win32,60,right,0.53399992,4,0,4,0,1,3,1,0,240,184,1,239,,,,,,,,,,,,,,,,,,
,,1,36,,,,,,,1,1,2,stim/12.jpeg,Instruments,2,stim/objects/Instruments/acousticguitar.png,0.5,3,-0.2,-0.15,right,70,2021-04-07_13h04.20.699,premup-three_ses-01_part-01_label-phase1,3.2.4,Win32,60,right,0.871999979,4,0,4,0,1,3,1,0,240,33,1,239,,,,,,,,,,,,,,,,,,
,,1,37,,,,,,,3,6,2,stim/62.jpeg,HouseObjects,1,stim/objects/HouseObjects/clock2.png,0.9,1,-0.2,0.15,left,70,2021-04-07_13h04.20.699,premup-three_ses-01_part-01_label-phase1,3.2.4,Win32,60,left,0.575000048,4,0,4,0,1,3,1,0,240,209,1,239,,,,,,,,,,,,,,,,,,
,,0,38,,,,,,,2,4,2,stim/42.jpeg,Instruments,2,stim/objects/Instruments/acousticguitar2.png,0.3,2,0.2,0.15,right,70,2021-04-07_13h04.20.699,premup-three_ses-01_part-01_label-phase1,3.2.4,Win32,60,left,0.597000122,4,0,4,0,1,3,1,0,240,153,1,239,,,,,,,,,,,,,,,,,,
,,1,39,,,,,,,3,5,4,stim/54.jpeg,Instruments,2,stim/objects/Instruments/chime2.png,0.9,3,-0.2,-0.15,right,70,2021-04-07_13h04.20.699,premup-three_ses-01_part-01_label-phase1,3.2.4,Win32,60,right,0.973999977,4,0,4,0,1,3,1,0,240,199,1,239,,,,,,,,,,,,,,,,,,
,,1,40,,,,,,,1,2,4,stim/24.jpeg,HouseObjects,1,stim/objects/HouseObjects/broom.png,0.5,3,-0.2,-0.15,left,70,2021-04-07_13h04.20.699,premup-three_ses-01_part-01_label-phase1,3.2.4,Win32,60,left,0.71999979,4,0,4,0,1,3,1,0,240,47,1,239,,,,,,,,,,,,,,,,,,
,,1,41,,,,,,,3,6,3,stim/63.jpeg,HouseObjects,1,stim/objects/HouseObjects/clothesdryingrack2.png,0.9,2,0.2,0.15,left,70,2021-04-07_13h04.20.699,premup-three_ses-01_part-01_label-phase1,3.2.4,Win32,60,left,0.671999931,4,0,4,0,1,3,1,0,240,202,1,239,,,,,,,,,,,,,,,,,,
,,1,42,,,,,,,2,3,4,stim/34.jpeg,Instruments,2,stim/objects/Instruments/doublebass.png,0.7,3,-0.2,-0.15,right,70,2021-04-07_13h04.20.699,premup-three_ses-01_part-01_label-phase1,3.2.4,Win32,60,right,0.978999853,4,0,4,0,1,3,1,0,240,111,1,239,,,,,,,,,,,,,,,,,,
,,1,43,,,,,,,1,1,4,stim/14.jpeg,Instruments,2,stim/objects/Instruments/banjo.png,0.5,2,0.2,0.15,right,70,2021-04-07_13h04.20.699,premup-three_ses-01_part-01_label-phase1,3.2.4,Win32,60,right,0.707999945,4,0,4,0,1,3,1,0,240,35,1,239,,,,,,,,,,,,,,,,,,
,,1,44,,,,,,,1,1,1,stim/11.jpeg,Instruments,2,stim/objects/Instruments/accordion.png,0.5,3,-0.2,-0.15,right,70,2021-04-07_13h04.20.699,premup-three_ses-01_part-01_label-phase1,3.2.4,Win32,60,right,0.687999964,4,0,4,0,1,3,1,0,240,36,1,239,,,,,,,,,,,,,,,,,,
,,1,45,,,,,,,2,3,1,stim/31.jpeg,Instruments,2,stim/objects/Instruments/clarinet.png,0.7,3,-0.2,-0.15,right,70,2021-04-07_13h04.20.699,premup-three_ses-01_part-01_label-phase1,3.2.4,Win32,60,right,0.694000006,4,0,4,0,1,3,1,0,240,112,1,239,,,,,,,,,,,,,,,,,,
,,1,46,,,,,,,1,1,2,stim/12.jpeg,Instruments,2,stim/objects/Instruments/acousticguitar.png,0.5,2,0.2,0.15,right,70,2021-04-07_13h04.20.699,premup-three_ses-01_part-01_label-phase1,3.2.4,Win32,60,right,0.712999821,4,0,4,0,1,3,1,0,240,21,1,239,,,,,,,,,,,,,,,,,,
,,1,47,,,,,,,3,5,4,stim/54.jpeg,Instruments,2,stim/objects/Instruments/chime2.png,0.9,4,0.2,-0.15,right,70,2021-04-07_13h04.20.699,premup-three_ses-01_part-01_label-phase1,3.2.4,Win32,60,right,0.555000067,4,0,4,0,1,3,1,0,240,167,1,239,,,,,,,,,,,,,,,,,,
,,1,48,,,,,,,3,6,1,stim/61.jpeg,HouseObjects,1,stim/objects/HouseObjects/bucket2.png,0.9,2,0.2,0.15,left,70,2021-04-07_13h04.20.699,premup-three_ses-01_part-01_label-phase1,3.2.4,Win32,60,left,0.552999735,4,0,4,0,1,3,1,0,240,208,1,239,,,,,,,,,,,,,,,,,,
,,1,49,,,,,,,2,3,3,stim/33.jpeg,Instruments,2,stim/objects/Instruments/cymbal.png,0.7,1,-0.2,0.15,right,70,2021-04-07_13h04.20.699,premup-three_ses-01_part-01_label-phase1,3.2.4,Win32,60,right,0.662999868,4,0,4,0,1,3,1,0,240,114,1,239,,,,,,,,,,,,,,,,,,
,,0,50,,,,,,,1,2,4,stim/24.jpeg,Instruments,2,stim/objects/Instruments/chime.png,0.5,3,-0.2,-0.15,right,70,2021-04-07_13h04.20.699,premup-three_ses-01_part-01_label-phase1,3.2.4,Win32,60,left,0.624000072,4,0,4,0,1,3,1,0,240,67,1,239,,,,,,,,,,,,,,,,,,
,,0,51,,,,,,,3,5,3,stim/53.jpeg,HouseObjects,1,stim/objects/HouseObjects/bottle2.png,0.1,2,0.2,0.15,left,70,2021-04-07_13h04.20.699,premup-three_ses-01_part-01_label-phase1,3.2.4,Win32,60,right,0.569999933,4,0,4,0,1,3,1,0,240,162,1,239,,,,,,,,,,,,,,,,,,
,,1,52,,,,,,,1,1,3,stim/13.jpeg,HouseObjects,1,stim/objects/HouseObjects/barbecuelighter.png,0.5,1,-0.2,0.15,left,70,2021-04-07_13h04.20.699,premup-three_ses-01_part-01_label-phase1,3.2.4,Win32,60,left,0.819000006,4,0,4,0,1,3,1,0,240,6,1,239,,,,,,,,,,,,,,,,,,
,,1,53,,,,,,,1,2,3,stim/23.jpeg,HouseObjects,1,stim/objects/HouseObjects/bottle.png,0.5,3,-0.2,-0.15,left,70,2021-04-07_13h04.20.699,premup-three_ses-01_part-01_label-phase1,3.2.4,Win32,60,left,0.794999838,4,0,4,0,1,3,1,0,240,50,1,239,,,,,,,,,,,,,,,,,,
,,1,54,,,,,,,3,6,2,stim/62.jpeg,HouseObjects,1,stim/objects/HouseObjects/clock2.png,0.9,1,-0.2,0.15,left,70,2021-04-07_13h04.20.699,premup-three_ses-01_part-01_label-phase1,3.2.4,Win32,60,left,0.549999952,4,0,4,0,1,3,1,0,240,233,1,239,,,,,,,,,,,,,,,,,,
,,0,55,,,,,,,1,1,1,stim/11.jpeg,HouseObjects,1,stim/objects/HouseObjects/ashtray.png,0.5,4,0.2,-0.15,left,70,2021-04-07_13h04.20.699,premup-three_ses-01_part-01_label-phase1,3.2.4,Win32,60,right,0.631999969,4,0,4,0,1,3,1,0,240,16,1,239,,,,,,,,,,,,,,,,,,
,,1,56,,,,,,,3,6,3,stim/63.jpeg,HouseObjects,1,stim/objects/HouseObjects/clothesdryingrack2.png,0.9,4,0.2,-0.15,left,70,2021-04-07_13h04.20.699,premup-three_ses-01_part-01_label-phase1,3.2.4,Win32,60,left,0.561999798,4,0,4,0,1,3,1,0,240,222,1,239,,,,,,,,,,,,,,,,,,
,,1,57,,,,,,,3,5,4,stim/54.jpeg,Instruments,2,stim/objects/Instruments/chime2.png,0.9,4,0.2,-0.15,right,70,2021-04-07_13h04.20.699,premup-three_ses-01_part-01_label-phase1,3.2.4,Win32,60,right,0.600999832,4,0,4,0,1,3,1,0,240,195,1,239,,,,,,,,,,,,,,,,,,
,,1,58,,,,,,,2,3,1,stim/31.jpeg,HouseObjects,1,stim/objects/HouseObjects/bucket.png,0.3,3,-0.2,-0.15,left,70,2021-04-07_13h04.20.699,premup-three_ses-01_part-01_label-phase1,3.2.4,Win32,60,left,0.672999859,4,0,4,0,1,3,1,0,240,80,1,239,,,,,,,,,,,,,,,,,,
,,1,59,,,,,,,2,3,3,stim/33.jpeg,Instruments,2,stim/objects/Instruments/cymbal.png,0.7,3,-0.2,-0.15,right,70,2021-04-07_13h04.20.699,premup-three_ses-01_part-01_label-phase1,3.2.4,Win32,60,right,0.552999973,4,0,4,0,1,3,1,0,240,98,1,239,,,,,,,,,,,,,,,,,,
,,1,60,,,,,,,2,3,4,stim/34.jpeg,Instruments,2,stim/objects/Instruments/doublebass.png,0.7,4,0.2,-0.15,right,70,2021-04-07_13h04.20.699,premup-three_ses-01_part-01_label-phase1,3.2.4,Win32,60,right,0.565000057,4,0,4,0,1,3,1,0,240,99,1,239,,,,,,,,,,,,,,,,,,
,,1,61,,,,,,,3,6,1,stim/61.jpeg,HouseObjects,1,stim/objects/HouseObjects/bucket2.png,0.9,3,-0.2,-0.15,left,70,2021-04-07_13h04.20.699,premup-three_ses-01_part-01_label-phase1,3.2.4,Win32,60,left,0.512999773,4,0,4,0,1,3,1,0,240,220,1,239,,,,,,,,,,,,,,,,,,
,,1,62,,,,,,,1,2,4,stim/24.jpeg,Instruments,2,stim/objects/Instruments/chime.png,0.5,1,-0.2,0.15,right,70,2021-04-07_13h04.20.699,premup-three_ses-01_part-01_label-phase1,3.2.4,Win32,60,right,0.617000103,4,0,4,0,1,3,1,0,240,75,1,239,,,,,,,,,,,,,,,,,,
,,0,63,,,,,,,1,2,4,stim/24.jpeg,Instruments,2,stim/objects/Instruments/chime.png,0.5,1,-0.2,0.15,right,70,2021-04-07_13h04.20.699,premup-three_ses-01_part-01_label-phase1,3.2.4,Win32,60,left,0.704999924,4,0,4,0,1,3,1,0,240,79,1,239,,,,,,,,,,,,,,,,,,
,,1,64,,,,,,,1,2,1,stim/21.jpeg,HouseObjects,1,stim/objects/HouseObjects/bleachbottle.png,0.5,1,-0.2,0.15,left,70,2021-04-07_13h04.20.699,premup-three_ses-01_part-01_label-phase1,3.2.4,Win32,60,left,0.734999895,4,0,4,0,1,3,1,0,240,44,1,239,,,,,,,,,,,,,,,,,,
,,0,65,,,,,,,1,2,4,stim/24.jpeg,HouseObjects,1,stim/objects/HouseObjects/broom.png,0.5,4,0.2,-0.15,left,70,2021-04-07_13h04.20.699,premup-three_ses-01_part-01_label-phase1,3.2.4,Win32,60,right,0.409999847,4,0,4,0,1,3,1,0,240,43,1,239,,,,,,,,,,,,,,,,,,
,,0,66,,,,,,,3,6,2,stim/62.jpeg,HouseObjects,1,stim/objects/HouseObjects/clock2.png,0.9,4,0.2,-0.15,left,70,2021-04-07_13h04.20.699,premup-three_ses-01_part-01_label-phase1,3.2.4,Win32,60,right,0.375999928,4,0,4,0,1,3,1,0,240,201,1,239,,,,,,,,,,,,,,,,,,
,,1,67,,,,,,,3,5,1,stim/51.jpeg,Instruments,2,stim/objects/Instruments/bassdrum2.png,0.9,3,-0.2,-0.15,right,70,2021-04-07_13h04.20.699,premup-three_ses-01_part-01_label-phase1,3.2.4,Win32,60,right,0.53399992,4,0,4,0,1,3,1,0,240,196,1,239,,,,,,,,,,,,,,,,,,
,,0,68,,,,,,,2,3,3,stim/33.jpeg,HouseObjects,1,stim/objects/HouseObjects/clothesdryingrack.png,0.3,1,-0.2,0.15,left,70,2021-04-07_13h04.20.699,premup-three_ses-01_part-01_label-phase1,3.2.4,Win32,60,right,1.273000002,4,0,4,0,1,3,1,0,240,86,1,239,,,,,,,,,,,,,,,,,,
,,1,69,,,,,,,1,1,2,stim/12.jpeg,Instruments,2,stim/objects/Instruments/acousticguitar.png,0.5,4,0.2,-0.15,right,70,2021-04-07_13h04.20.699,premup-three_ses-01_part-01_label-phase1,3.2.4,Win32,60,right,0.825999975,4,0,4,0,1,3,1,0,240,37,1,239,,,,,,,,,,,,,,,,,,
,,1,70,,,,,,,2,3,3,stim/33.jpeg,Instruments,2,stim/objects/Instruments/cymbal.png,0.7,1,-0.2,0.15,right,70,2021-04-07_13h04.20.699,premup-three_ses-01_part-01_label-phase1,3.2.4,Win32,60,right,0.660999775,4,0,4,0,1,3,1,0,240,94,1,239,,,,,,,,,,,,,,,,,,
,,1,71,,,,,,,2,4,1,stim/41.jpeg,HouseObjects,1,stim/objects/HouseObjects/ashtray2.png,0.7,4,0.2,-0.15,left,70,2021-04-07_13h04.20.699,premup-three_ses-01_part-01_label-phase1,3.2.4,Win32,60,left,0.579999924,4,0,4,0,1,3,1,0,240,132,1,239,,,,,,,,,,,,,,,,,,
,,1,72,,,,,,,3,5,4,stim/54.jpeg,Instruments,2,stim/objects/Instruments/chime2.png,0.9,2,0.2,0.15,right,70,2021-04-07_13h04.20.699,premup-three_ses-01_part-01_label-phase1,3.2.4,Win32,60,right,0.523000002,4,0,4,0,1,3,1,0,240,191,1,239,,,,,,,,,,,,,,,,,,
,,1,73,,,,,,,2,3,3,stim/33.jpeg,Instruments,2,stim/objects/Instruments/cymbal.png,0.7,2,0.2,0.15,right,70,2021-04-07_13h04.20.699,premup-three_ses-01_part-01_label-phase1,3.2.4,Win32,60,right,0.761999846,4,0,4,0,1,3,1,0,240,106,1,239,,,,,,,,,,,,,,,,,,
,,0,74,,,,,,,1,2,4,stim/24.jpeg,Instruments,2,stim/objects/Instruments/chime.png,0.5,1,-0.2,0.15,right,70,2021-04-07_13h04.20.699,premup-three_ses-01_part-01_label-phase1,3.2.4,Win32,60,left,0.606999874,4,0,4,0,1,3,1,0,240,71,1,239,,,,,,,,,,,,,,,,,,
,,1,75,,,,,,,1,2,2,stim/22.jpeg,HouseObjects,1,stim/objects/HouseObjects/blender.png,0.5,3,-0.2,-0.15,left,70,2021-04-07_13h04.20.699,premup-three_ses-01_part-01_label-phase1,3.2.4,Win32,60,left,0.519000053,4,0,4,0,1,3,1,0,240,41,1,239,,,,,,,,,,,,,,,,,,
,,0,76,,,,,,,2,4,1,stim/41.jpeg,Instruments,2,stim/objects/Instruments/accordion2.png,0.3,3,-0.2,-0.15,right,70,2021-04-07_13h04.20.699,premup-three_ses-01_part-01_label-phase1,3.2.4,Win32,60,left,0.583999872,4,0,4,0,1,3,1,0,240,152,1,239,,,,,,,,,,,,,,,,,,
,,1,77,,,,,,,3,5,4,stim/54.jpeg,Instruments,2,stim/objects/Instruments/chime2.png,0.9,4,0.2,-0.15,right,70,2021-04-07_13h04.20.699,premup-three_ses-01_part-01_label-phase1,3.2.4,Win32,60,right,0.577000141,4,0,4,0,1,3,1,0,240,179,1,239,,,,,,,,,,,,,,,,,,
,,0,78,,,,,,,1,1,1,stim/11.jpeg,HouseObjects,1,stim/objects/HouseObjects/ashtray.png,0.5,4,0.2,-0.15,left,70,2021-04-07_13h04.20.699,premup-three_ses-01_part-01_label-phase1,3.2.4,Win32,60,right,0.957000017,4,0,4,0,1,3,1,0,240,12,1,239,,,,,,,,,,,,,,,,,,
,,0,79,,,,,,,1,1,3,stim/13.jpeg,Instruments,2,stim/objects/Instruments/balalaika.png,0.5,3,-0.2,-0.15,right,70,2021-04-07_13h04.20.699,premup-three_ses-01_part-01_label-phase1,3.2.4,Win32,60,left,0.674999952,4,0,4,0,1,3,1,0,240,38,1,239,,,,,,,,,,,,,,,,,,
,,1,80,,,,,,,3,5,2,stim/52.jpeg,Instruments,2,stim/objects/Instruments/bassguitar2.png,0.9,3,-0.2,-0.15,right,70,2021-04-07_13h04.20.699,premup-three_ses-01_part-01_label-phase1,3.2.4,Win32,60,right,0.595000029,4,0,4,0,1,3,1,0,240,169,1,239,,,,,,,,,,,,,,,,,,
,,0,81,,,,,,,1,1,4,stim/14.jpeg,Instruments,2,stim/objects/Instruments/banjo.png,0.5,1,-0.2,0.15,right,70,2021-04-07_13h04.20.699,premup-three_ses-01_part-01_label-phase1,3.2.4,Win32,60,left,0.737999916,4,0,4,0,1,3,1,0,240,23,1,239,,,,,,,,,,,,,,,,,,
,,1,82,,,,,,,2,3,4,stim/34.jpeg,Instruments,2,stim/objects/Instruments/doublebass.png,0.7,4,0.2,-0.15,right,70,2021-04-07_13h04.20.699,premup-three_ses-01_part-01_label-phase1,3.2.4,Win32,60,right,0.596999884,4,0,4,0,1,3,1,0,240,115,1,239,,,,,,,,,,,,,,,,,,
,,1,83,,,,,,,2,4,2,stim/42.jpeg,HouseObjects,1,stim/objects/HouseObjects/ballofstring2.png,0.7,4,0.2,-0.15,left,70,2021-04-07_13h04.20.699,premup-three_ses-01_part-01_label-phase1,3.2.4,Win32,60,left,0.701999903,4,0,4,0,1,3,1,0,240,125,1,239,,,,,,,,,,,,,,,,,,
,,0,84,,,,,,,2,4,4,stim/44.jpeg,Instruments,2,stim/objects/Instruments/banjo2.png,0.3,3,-0.2,-0.15,right,70,2021-04-07_13h04.20.699,premup-three_ses-01_part-01_label-phase1,3.2.4,Win32,60,left,0.578999996,4,0,4,0,1,3,1,0,240,155,1,239,,,,,,,,,,,,,,,,,,
,,1,85,,,,,,,3,6,3,stim/63.jpeg,HouseObjects,1,stim/objects/HouseObjects/clothesdryingrack2.png,0.9,4,0.2,-0.15,left,70,2021-04-07_13h04.20.699,premup-three_ses-01_part-01_label-phase1,3.2.4,Win32,60,left,0.525999784,4,0,4,0,1,3,1,0,240,214,1,239,,,,,,,,,,,,,,,,,,
,,1,86,,,,,,,2,4,4,stim/44.jpeg,HouseObjects,1,stim/objects/HouseObjects/basket2.png,0.7,4,0.2,-0.15,left,70,2021-04-07_13h04.20.699,premup-three_ses-01_part-01_label-phase1,3.2.4,Win32,60,left,0.926999807,4,0,4,0,1,3,1,0,240,135,1,239,,,,,,,,,,,,,,,,,,
,,1,87,,,,,,,3,6,4,stim/64.jpeg,HouseObjects,1,stim/objects/HouseObjects/clothespin2.png,0.9,2,0.2,0.15,left,70,2021-04-07_13h04.20.699,premup-three_ses-01_part-01_label-phase1,3.2.4,Win32,60,left,0.582999945,4,0,4,0,1,3,1,0,240,223,1,239,,,,,,,,,,,,,,,,,,
,,0,88,,,,,,,1,2,1,stim/21.jpeg,Instruments,2,stim/objects/Instruments/bassdrum.png,0.5,4,0.2,-0.15,right,70,2021-04-07_13h04.20.699,premup-three_ses-01_part-01_label-phase1,3.2.4,Win32,60,left,0.899999857,4,0,4,0,1,3,1,0,240,68,1,239,,,,,,,,,,,,,,,,,,
,,1,89,,,,,,,3,6,4,stim/64.jpeg,HouseObjects,1,stim/objects/HouseObjects/clothespin2.png,0.9,3,-0.2,-0.15,left,70,2021-04-07_13h04.20.699,premup-three_ses-01_part-01_label-phase1,3.2.4,Win32,60,left,0.553999901,4,0,4,0,1,3,1,0,240,231,1,239,,,,,,,,,,,,,,,,,,
,,1,90,,,,,,,1,1,2,stim/12.jpeg,Instruments,2,stim/objects/Instruments/acousticguitar.png,0.5,2,0.2,0.15,right,70,2021-04-07_13h04.20.699,premup-three_ses-01_part-01_label-phase1,3.2.4,Win32,60,right,0.846999884,4,0,4,0,1,3,1,0,240,25,1,239,,,,,,,,,,,,,,,,,,
,,0,91,,,,,,,1,2,1,stim/21.jpeg,HouseObjects,1,stim/objects/HouseObjects/bleachbottle.png,0.5,1,-0.2,0.15,left,70,2021-04-07_13h04.20.699,premup-three_ses-01_part-01_label-phase1,3.2.4,Win32,60,right,0.725999832,4,0,4,0,1,3,1,0,240,40,1,239,,,,,,,,,,,,,,,,,,
,,1,92,,,,,,,2,4,1,stim/41.jpeg,HouseObjects,1,stim/objects/HouseObjects/ashtray2.png,0.7,2,0.2,0.15,left,70,2021-04-07_13h04.20.699,premup-three_ses-01_part-01_label-phase1,3.2.4,Win32,60,left,0.64199996,4,0,4,0,1,3,1,0,240,140,1,239,,,,,,,,,,,,,,,,,,
,,1,93,,,,,,,3,6,3,stim/63.jpeg,HouseObjects,1,stim/objects/HouseObjects/clothesdryingrack2.png,0.9,4,0.2,-0.15,left,70,2021-04-07_13h04.20.699,premup-three_ses-01_part-01_label-phase1,3.2.4,Win32,60,left,0.500999928,4,0,4,0,1,3,1,0,240,234,1,239,,,,,,,,,,,,,,,,,,
,,1,94,,,,,,,1,2,3,stim/23.jpeg,HouseObjects,1,stim/objects/HouseObjects/bottle.png,0.5,2,0.2,0.15,left,70,2021-04-07_13h04.20.699,premup-three_ses-01_part-01_label-phase1,3.2.4,Win32,60,left,0.5849998,4,0,4,0,1,3,1,0,240,54,1,239,,,,,,,,,,,,,,,,,,
,,0,95,,,,,,,2,4,1,stim/41.jpeg,Instruments,2,stim/objects/Instruments/accordion2.png,0.3,2,0.2,0.15,right,70,2021-04-07_13h04.20.699,premup-three_ses-01_part-01_label-phase1,3.2.4,Win32,60,left,0.561999798,4,0,4,0,1,3,1,0,240,148,1,239,,,,,,,,,,,,,,,,,,
,,0,96,,,,,,,3,5,2,stim/52.jpeg,HouseObjects,1,stim/objects/HouseObjects/blender2.png,0.1,3,-0.2,-0.15,left,70,2021-04-07_13h04.20.699,premup-three_ses-01_part-01_label-phase1,3.2.4,Win32,60,right,0.742000103,4,0,4,0,1,3,1,0,240,161,1,239,,,,,,,,,,,,,,,,,,
,,1,97,,,,,,,1,1,3,stim/13.jpeg,HouseObjects,1,stim/objects/HouseObjects/barbecuelighter.png,0.5,4,0.2,-0.15,left,70,2021-04-07_13h04.20.699,premup-three_ses-01_part-01_label-phase1,3.2.4,Win32,60,left,1.180999994,4,0,4,0,1,3,1,0,240,10,1,239,,,,,,,,,,,,,,,,,,
,,1,98,,,,,,,2,4,3,stim/43.jpeg,HouseObjects,1,stim/objects/HouseObjects/barbecuelighter2.png,0.7,4,0.2,-0.15,left,70,2021-04-07_13h04.20.699,premup-three_ses-01_part-01_label-phase1,3.2.4,Win32,60,left,0.627000093,4,0,4,0,1,3,1,0,240,134,1,239,,,,,,,,,,,,,,,,,,
,,1,99,,,,,,,2,3,1,stim/31.jpeg,Instruments,2,stim/objects/Instruments/clarinet.png,0.7,1,-0.2,0.15,right,70,2021-04-07_13h04.20.699,premup-three_ses-01_part-01_label-phase1,3.2.4,Win32,60,right,0.631000042,4,0,4,0,1,3,1,0,240,104,1,239,,,,,,,,,,,,,,,,,,
,,0,100,,,,,,,2,3,2,stim/32.jpeg,HouseObjects,1,stim/objects/HouseObjects/clock.png,0.3,2,0.2,0.15,left,70,2021-04-07_13h04.20.699,premup-three_ses-01_part-01_label-phase1,3.2.4,Win32,60,right,0.51699996,4,0,4,0,1,3,1,0,240,81,1,239,,,,,,,,,,,,,,,,,,
,,0,101,,,,,,,1,2,1,stim/21.jpeg,Instruments,2,stim/objects/Instruments/bassdrum.png,0.5,2,0.2,0.15,right,70,2021-04-07_13h04.20.699,premup-three_ses-01_part-01_label-phase1,3.2.4,Win32,60,left,0.699999809,4,0,4,0,1,3,1,0,240,60,1,239,,,,,,,,,,,,,,,,,,
,,1,102,,,,,,,3,6,1,stim/61.jpeg,HouseObjects,1,stim/objects/HouseObjects/bucket2.png,0.9,2,0.2,0.15,left,70,2021-04-07_13h04.20.699,premup-three_ses-01_part-01_label-phase1,3.2.4,Win32,60,left,0.530999899,4,0,4,0,1,3,1,0,240,224,1,239,,,,,,,,,,,,,,,,,,
,,1,103,,,,,,,3,6,4,stim/64.jpeg,HouseObjects,1,stim/objects/HouseObjects/clothespin2.png,0.9,1,-0.2,0.15,left,70,2021-04-07_13h04.20.699,premup-three_ses-01_part-01_label-phase1,3.2.4,Win32,60,left,0.528999805,4,0,4,0,1,3,1,0,240,235,1,239,,,,,,,,,,,,,,,,,,
,,1,104,,,,,,,3,5,3,stim/53.jpeg,Instruments,2,stim/objects/Instruments/cello2.png,0.9,2,0.2,0.15,right,70,2021-04-07_13h04.20.699,premup-three_ses-01_part-01_label-phase1,3.2.4,Win32,60,right,0.569999933,4,0,4,0,1,3,1,0,240,186,1,239,,,,,,,,,,,,,,,,,,
,,0,105,,,,,,,1,2,2,stim/22.jpeg,Instruments,2,stim/objects/Instruments/bassguitar.png,0.5,1,-0.2,0.15,right,70,2021-04-07_13h04.20.699,premup-three_ses-01_part-01_label-phase1,3.2.4,Win32,60,left,0.569000006,4,0,4,0,1,3,1,0,240,65,1,239,,,,,,,,,,,,,,,,,,
,,1,106,,,,,,,2,4,2,stim/42.jpeg,HouseObjects,1,stim/objects/HouseObjects/ballofstring2.png,0.7,2,0.2,0.15,left,70,2021-04-07_13h04.20.699,premup-three_ses-01_part-01_label-phase1,3.2.4,Win32,60,left,0.526000023,4,0,4,0,1,3,1,0,240,129,1,239,,,,,,,,,,,,,,,,,,
,,0,107,,,,,,,1,1,3,stim/13.jpeg,Instruments,2,stim/objects/Instruments/balalaika.png,0.5,4,0.2,-0.15,right,70,2021-04-07_13h04.20.699,premup-three_ses-01_part-01_label-phase1,3.2.4,Win32,60,left,0.631000042,4,0,4,0,1,3,1,0,240,26,1,239,,,,,,,,,,,,,,,,,,
,,1,108,,,,,,,3,6,4,stim/64.jpeg,HouseObjects,1,stim/objects/HouseObjects/clothespin2.png,0.9,1,-0.2,0.15,left,70,2021-04-07_13h04.20.699,premup-three_ses-01_part-01_label-phase1,3.2.4,Win32,60,left,0.579999924,4,0,4,0,1,3,1,0,240,215,1,239,,,,,,,,,,,,,,,,,,
,,0,109,,,,,,,3,6,1,stim/61.jpeg,Instruments,2,stim/objects/Instruments/clarinet2.png,0.1,4,0.2,-0.15,right,70,2021-04-07_13h04.20.699,premup-three_ses-01_part-01_label-phase1,3.2.4,Win32,60,left,0.495000124,4,0,4,0,1,3,1,0,240,236,1,239,,,,,,,,,,,,,,,,,,
,,1,110,,,,,,,3,5,2,stim/52.jpeg,Instruments,2,stim/objects/Instruments/bassguitar2.png,0.9,3,-0.2,-0.15,right,70,2021-04-07_13h04.20.699,premup-three_ses-01_part-01_label-phase1,3.2.4,Win32,60,right,0.522000074,4,0,4,0,1,3,1,0,240,185,1,239,,,,,,,,,,,,,,,,,,
,,1,111,,,,,,,1,1,3,stim/13.jpeg,HouseObjects,1,stim/objects/HouseObjects/barbecuelighter.png,0.5,3,-0.2,-0.15,left,70,2021-04-07_13h04.20.699,premup-three_ses-01_part-01_label-phase1,3.2.4,Win32,60,left,0.621999979,4,0,4,0,1,3,1,0,240,18,1,239,,,,,,,,,,,,,,,,,,
,,1,112,,,,,,,1,1,4,stim/14.jpeg,Instruments,2,stim/objects/Instruments/banjo.png,0.5,3,-0.2,-0.15,right,70,2021-04-07_13h04.20.699,premup-three_ses-01_part-01_label-phase1,3.2.4,Win32,60,right,0.626999855,4,0,4,0,1,3,1,0,240,31,1,239,,,,,,,,,,,,,,,,,,
,,1,113,,,,,,,2,4,1,stim/41.jpeg,HouseObjects,1,stim/objects/HouseObjects/ashtray2.png,0.7,4,0.2,-0.15,left,70,2021-04-07_13h04.20.699,premup-three_ses-01_part-01_label-phase1,3.2.4,Win32,60,left,0.657000065,4,0,4,0,1,3,1,0,240,144,1,239,,,,,,,,,,,,,,,,,,
,,1,114,,,,,,,1,2,3,stim/23.jpeg,Instruments,2,stim/objects/Instruments/cello.png,0.5,3,-0.2,-0.15,right,70,2021-04-07_13h04.20.699,premup-three_ses-01_part-01_label-phase1,3.2.4,Win32,60,right,0.464999914,4,0,4,0,1,3,1,0,240,66,1,239,,,,,,,,,,,,,,,,,,
,,1,115,,,,,,,2,4,3,stim/43.jpeg,HouseObjects,1,stim/objects/HouseObjects/barbecuelighter2.png,0.7,4,0.2,-0.15,left,70,2021-04-07_13h04.20.699,premup-three_ses-01_part-01_label-phase1,3.2.4,Win32,60,left,0.754999876,4,0,4,0,1,3,1,0,240,142,1,239,,,,,,,,,,,,,,,,,,
,,1,116,,,,,,,3,5,2,stim/52.jpeg,Instruments,2,stim/objects/Instruments/bassguitar2.png,0.9,1,-0.2,0.15,right,70,2021-04-07_13h04.20.699,premup-three_ses-01_part-01_label-phase1,3.2.4,Win32,60,right,0.510999918,4,0,4,0,1,3,1,0,240,181,1,239,,,,,,,,,,,,,,,,,,
,,1,117,,,,,,,3,6,2,stim/62.jpeg,HouseObjects,1,stim/objects/HouseObjects/clock2.png,0.9,3,-0.2,-0.15,left,70,2021-04-07_13h04.20.699,premup-three_ses-01_part-01_label-phase1,3.2.4,Win32,60,left,0.694000006,4,0,4,0,1,3,1,0,240,213,1,239,,,,,,,,,,,,,,,,,,
,,1,118,,,,,,,2,3,1,stim/31.jpeg,Instruments,2,stim/objects/Instruments/clarinet.png,0.7,4,0.2,-0.15,right,70,2021-04-07_13h04.20.699,premup-three_ses-01_part-01_label-phase1,3.2.4,Win32,60,right,0.510999918,4,0,4,0,1,3,1,0,240,96,1,239,,,,,,,,,,,,,,,,,,
,,0,119,,,,,,,1,1,4,stim/14.jpeg,HouseObjects,1,stim/objects/HouseObjects/basket.png,0.5,4,0.2,-0.15,left,70,2021-04-07_13h04.20.699,premup-three_ses-01_part-01_label-phase1,3.2.4,Win32,60,right,0.664999962,4,0,4,0,1,3,1,0,240,7,1,239,,,,,,,,,,,,,,,,,,
,,0,120,,,,,,,1,1,3,stim/13.jpeg,HouseObjects,1,stim/objects/HouseObjects/barbecuelighter.png,0.5,3,-0.2,-0.15,left,70,2021-04-07_13h04.20.699,premup-three_ses-01_part-01_label-phase1,3.2.4,Win32,60,right,0.647000074,4,0,4,0,1,3,1,0,240,2,1,239,,,,,,,,,,,,,,,,,,
,,1,121,,,,,,,2,4,2,stim/42.jpeg,HouseObjects,1,stim/objects/HouseObjects/ballofstring2.png,0.7,4,0.2,-0.15,left,70,2021-04-07_13h04.20.699,premup-three_ses-01_part-01_label-phase1,3.2.4,Win32,60,left,0.680999756,4,0,4,0,1,3,1,0,240,141,1,239,,,,,,,,,,,,,,,,,,
,,1,122,,,,,,,1,2,4,stim/24.jpeg,HouseObjects,1,stim/objects/HouseObjects/broom.png,0.5,2,0.2,0.15,left,70,2021-04-07_13h04.20.699,premup-three_ses-01_part-01_label-phase1,3.2.4,Win32,60,left,0.866999865,4,0,4,0,1,3,1,0,240,59,1,239,,,,,,,,,,,,,,,,,,
,,0,123,,,,,,,3,6,4,stim/64.jpeg,Instruments,2,stim/objects/Instruments/doublebass2.png,0.1,3,-0.2,-0.15,right,70,2021-04-07_13h04.20.699,premup-three_ses-01_part-01_label-phase1,3.2.4,Win32,60,left,0.511999846,4,0,4,0,1,3,1,0,240,239,1,239,,,,,,,,,,,,,,,,,,
,,1,124,,,,,,,1,1,4,stim/14.jpeg,HouseObjects,1,stim/objects/HouseObjects/basket.png,0.5,3,-0.2,-0.15,left,70,2021-04-07_13h04.20.699,premup-three_ses-01_part-01_label-phase1,3.2.4,Win32,60,left,0.617999792,4,0,4,0,1,3,1,0,240,15,1,239,,,,,,,,,,,,,,,,,,
,,0,125,,,,,,,2,3,1,stim/31.jpeg,Instruments,2,stim/objects/Instruments/clarinet.png,0.7,4,0.2,-0.15,right,70,2021-04-07_13h04.20.699,premup-three_ses-01_part-01_label-phase1,3.2.4,Win32,60,left,0.549000025,4,0,4,0,1,3,1,0,240,108,1,239,,,,,,,,,,,,,,,,,,
,,1,126,,,,,,,2,4,1,stim/41.jpeg,HouseObjects,1,stim/objects/HouseObjects/ashtray2.png,0.7,2,0.2,0.15,left,70,2021-04-07_13h04.20.699,premup-three_ses-01_part-01_label-phase1,3.2.4,Win32,60,left,0.575999975,4,0,4,0,1,3,1,0,240,120,1,239,,,,,,,,,,,,,,,,,,
,,1,127,,,,,,,3,5,4,stim/54.jpeg,Instruments,2,stim/objects/Instruments/chime2.png,0.9,2,0.2,0.15,right,70,2021-04-07_13h04.20.699,premup-three_ses-01_part-01_label-phase1,3.2.4,Win32,60,right,0.562000036,4,0,4,0,1,3,1,0,240,187,1,239,,,,,,,,,,,,,,,,,,
,,1,128,,,,,,,2,3,2,stim/32.jpeg,HouseObjects,1,stim/objects/HouseObjects/clock.png,0.3,3,-0.2,-0.15,left,70,2021-04-07_13h04.20.699,premup-three_ses-01_part-01_label-phase1,3.2.4,Win32,60,left,0.589999914,4,0,4,0,1,3,1,0,240,85,1,239,,,,,,,,,,,,,,,,,,
,,1,129,,,,,,,2,4,3,stim/43.jpeg,HouseObjects,1,stim/objects/HouseObjects/barbecuelighter2.png,0.7,4,0.2,-0.15,left,70,2021-04-07_13h04.20.699,premup-three_ses-01_part-01_label-phase1,3.2.4,Win32,60,left,0.562000036,4,0,4,0,1,3,1,0,240,146,1,239,,,,,,,,,,,,,,,,,,
,,0,130,,,,,,,1,2,2,stim/22.jpeg,HouseObjects,1,stim/objects/HouseObjects/blender.png,0.5,3,-0.2,-0.15,left,70,2021-04-07_13h04.20.699,premup-three_ses-01_part-01_label-phase1,3.2.4,Win32,60,right,0.755999804,4,0,4,0,1,3,1,0,240,57,1,239,,,,,,,,,,,,,,,,,,
,,1,131,,,,,,,3,5,2,stim/52.jpeg,Instruments,2,stim/objects/Instruments/bassguitar2.png,0.9,3,-0.2,-0.15,right,70,2021-04-07_13h04.20.699,premup-three_ses-01_part-01_label-phase1,3.2.4,Win32,60,right,0.59499979,4,0,4,0,1,3,1,0,240,177,1,239,,,,,,,,,,,,,,,,,,
,,1,132,,,,,,,2,3,3,stim/33.jpeg,Instruments,2,stim/objects/Instruments/cymbal.png,0.7,1,-0.2,0.15,right,70,2021-04-07_13h04.20.699,premup-three_ses-01_part-01_label-phase1,3.2.4,Win32,60,right,0.506999731,4,0,4,0,1,3,1,0,240,118,1,239,,,,,,,,,,,,,,,,,,
