key_resp_pract.keys,key_resp_pract.rt,trial_acc,trial_index,practice_loop.thisRepN,practice_loop.thisTrialN,practice_loop.thisN,practice_loop.thisIndex,practice_loop.ran,practice_loop.order,scn_condition,scn_cat,scn_inst,scn_file,obj_cat,obj_cat_num,obj_file,trial_cond,quadrant,obj_x,obj_y,corr_ans,participant,date,expName,psychopyVersion,OS,frameRate,key_resp_trial.keys,key_resp_trial.rt,iterations.thisRepN,iterations.thisTrialN,iterations.thisN,iterations.thisIndex,iterations.ran,iterations.order,task_innerloop.thisRepN,task_innerloop.thisTrialN,task_innerloop.thisN,task_innerloop.thisIndex,task_innerloop.ran,task_innerloop.order,iteration_index,rating_acc,slider.response,slider.rt,slider_2.response,slider_2.rt,ratings.thisRepN,ratings.thisTrialN,ratings.thisN,ratings.thisIndex,ratings.ran,ratings.order,obj_cat_top,min_resp_top,max_resp_top,obj_cat_bottom,min_resp_bottom,max_resp_bottom
right,0.786999941,0,1,1,0,240,231,1,239,3,2,4,stim/24.jpeg,Instruments,1,stim/objects/Instruments/hihat2.png,0.9,4,0.2,-0.15,left,71,2021-04-14_15h07.32.293,premup-three_ses-01_part-01_label-phase1,3.2.4,Win32,60,,,,,,,,,,,,,,,,,,,,,,,,,,,,,,,,
right,0.733999968,1,2,1,0,240,61,1,239,1,4,2,stim/42.jpeg,HouseObjects,2,stim/objects/HouseObjects/flyswatter.png,0.5,2,0.2,0.15,right,71,2021-04-14_15h07.32.293,premup-three_ses-01_part-01_label-phase1,3.2.4,Win32,60,,,,,,,,,,,,,,,,,,,,,,,,,,,,,,,,
right,0.612999916,0,3,1,0,240,54,1,239,1,4,3,stim/43.jpeg,Instruments,1,stim/objects/Instruments/gong.png,0.5,2,0.2,0.15,left,71,2021-04-14_15h07.32.293,premup-three_ses-01_part-01_label-phase1,3.2.4,Win32,60,,,,,,,,,,,,,,,,,,,,,,,,,,,,,,,,
right,0.467999935,1,4,1,0,240,171,1,239,3,1,4,stim/14.jpeg,HouseObjects,2,stim/objects/HouseObjects/glass2.png,0.9,2,0.2,0.15,right,71,2021-04-14_15h07.32.293,premup-three_ses-01_part-01_label-phase1,3.2.4,Win32,60,,,,,,,,,,,,,,,,,,,,,,,,,,,,,,,,
right,0.730999708,1,5,1,0,240,189,1,239,3,1,2,stim/12.jpeg,HouseObjects,2,stim/objects/HouseObjects/flyswatter2.png,0.9,4,0.2,-0.15,right,71,2021-04-14_15h07.32.293,premup-three_ses-01_part-01_label-phase1,3.2.4,Win32,60,,,,,,,,,,,,,,,,,,,,,,,,,,,,,,,,
left,0.604999781,0,6,1,0,240,67,1,239,1,4,4,stim/44.jpeg,HouseObjects,2,stim/objects/HouseObjects/glass.png,0.5,2,0.2,0.15,right,71,2021-04-14_15h07.32.293,premup-three_ses-01_part-01_label-phase1,3.2.4,Win32,60,,,,,,,,,,,,,,,,,,,,,,,,,,,,,,,,
left,0.538999796,1,7,1,0,240,43,1,239,1,4,4,stim/44.jpeg,Instruments,1,stim/objects/Instruments/grandpiano.png,0.5,3,-0.2,-0.15,left,71,2021-04-14_15h07.32.293,premup-three_ses-01_part-01_label-phase1,3.2.4,Win32,60,,,,,,,,,,,,,,,,,,,,,,,,,,,,,,,,
left,0.586999893,0,8,1,0,240,32,1,239,1,3,1,stim/31.jpeg,HouseObjects,2,stim/objects/HouseObjects/coffee.png,0.5,1,-0.2,0.15,right,71,2021-04-14_15h07.32.293,premup-three_ses-01_part-01_label-phase1,3.2.4,Win32,60,,,,,,,,,,,,,,,,,,,,,,,,,,,,,,,,
right,0.904999971,1,9,1,0,240,113,1,239,2,5,2,stim/52.jpeg,HouseObjects,2,stim/objects/HouseObjects/hairdryer.png,0.7,3,-0.2,-0.15,right,71,2021-04-14_15h07.32.293,premup-three_ses-01_part-01_label-phase1,3.2.4,Win32,60,,,,,,,,,,,,,,,,,,,,,,,,,,,,,,,,
right,1.055000067,0,10,1,0,240,1,1,239,1,3,2,stim/32.jpeg,Instruments,1,stim/objects/Instruments/electricdrumset.png,0.5,4,0.2,-0.15,left,71,2021-04-14_15h07.32.293,premup-three_ses-01_part-01_label-phase1,3.2.4,Win32,60,,,,,,,,,,,,,,,,,,,,,,,,,,,,,,,,
,,1,1,,,,,,,2,5,1,stim/51.jpeg,Instruments,1,stim/objects/Instruments/guitarcase.png,0.3,1,-0.2,0.15,left,71,2021-04-14_15h07.32.293,premup-three_ses-01_part-01_label-phase1,3.2.4,Win32,60,left,0.790999889,4,0,4,0,1,3,1,0,240,88,1,239,,,,,,,,,,,,,,,,,,
,,0,2,,,,,,,3,2,2,stim/22.jpeg,Instruments,1,stim/objects/Instruments/harmonica2.png,0.9,3,-0.2,-0.15,left,71,2021-04-14_15h07.32.293,premup-three_ses-01_part-01_label-phase1,3.2.4,Win32,60,right,0.646999836,4,0,4,0,1,3,1,0,240,213,1,239,,,,,,,,,,,,,,,,,,
,,1,3,,,,,,,2,6,2,stim/62.jpeg,HouseObjects,2,stim/objects/HouseObjects/cushion2.png,0.3,1,-0.2,0.15,right,71,2021-04-14_15h07.32.293,premup-three_ses-01_part-01_label-phase1,3.2.4,Win32,60,right,0.672999859,4,0,4,0,1,3,1,0,240,157,1,239,,,,,,,,,,,,,,,,,,
,,1,4,,,,,,,3,1,2,stim/12.jpeg,HouseObjects,2,stim/objects/HouseObjects/flyswatter2.png,0.9,4,0.2,-0.15,right,71,2021-04-14_15h07.32.293,premup-three_ses-01_part-01_label-phase1,3.2.4,Win32,60,right,0.859999895,4,0,4,0,1,3,1,0,240,177,1,239,,,,,,,,,,,,,,,,,,
,,1,5,,,,,,,3,1,3,stim/13.jpeg,HouseObjects,2,stim/objects/HouseObjects/garbagebin2.png,0.9,1,-0.2,0.15,right,71,2021-04-14_15h07.32.293,premup-three_ses-01_part-01_label-phase1,3.2.4,Win32,60,right,0.475999832,4,0,4,0,1,3,1,0,240,166,1,239,,,,,,,,,,,,,,,,,,
,,1,6,,,,,,,1,3,4,stim/34.jpeg,Instruments,1,stim/objects/Instruments/flute.png,0.5,3,-0.2,-0.15,left,71,2021-04-14_15h07.32.293,premup-three_ses-01_part-01_label-phase1,3.2.4,Win32,60,left,0.855999947,4,0,4,0,1,3,1,0,240,7,1,239,,,,,,,,,,,,,,,,,,
,,0,7,,,,,,,1,3,1,stim/31.jpeg,HouseObjects,2,stim/objects/HouseObjects/coffee.png,0.5,4,0.2,-0.15,right,71,2021-04-14_15h07.32.293,premup-three_ses-01_part-01_label-phase1,3.2.4,Win32,60,left,0.532999992,4,0,4,0,1,3,1,0,240,28,1,239,,,,,,,,,,,,,,,,,,
,,0,8,,,,,,,1,3,3,stim/33.jpeg,HouseObjects,2,stim/objects/HouseObjects/dishsoap.png,0.5,3,-0.2,-0.15,right,71,2021-04-14_15h07.32.293,premup-three_ses-01_part-01_label-phase1,3.2.4,Win32,60,left,0.893999815,4,0,4,0,1,3,1,0,240,38,1,239,,,,,,,,,,,,,,,,,,
,,1,9,,,,,,,2,6,1,stim/61.jpeg,Instruments,1,stim/objects/Instruments/drums2.png,0.7,1,-0.2,0.15,left,71,2021-04-14_15h07.32.293,premup-three_ses-01_part-01_label-phase1,3.2.4,Win32,60,left,1.108999968,4,0,4,0,1,3,1,0,240,136,1,239,,,,,,,,,,,,,,,,,,
,,1,10,,,,,,,2,5,1,stim/51.jpeg,Instruments,1,stim/objects/Instruments/guitarcase.png,0.3,3,-0.2,-0.15,left,71,2021-04-14_15h07.32.293,premup-three_ses-01_part-01_label-phase1,3.2.4,Win32,60,left,0.825000048,4,0,4,0,1,3,1,0,240,80,1,239,,,,,,,,,,,,,,,,,,
,,1,11,,,,,,,2,6,1,stim/61.jpeg,Instruments,1,stim/objects/Instruments/drums2.png,0.7,1,-0.2,0.15,left,71,2021-04-14_15h07.32.293,premup-three_ses-01_part-01_label-phase1,3.2.4,Win32,60,left,0.725999832,4,0,4,0,1,3,1,0,240,120,1,239,,,,,,,,,,,,,,,,,,
,,0,12,,,,,,,3,2,3,stim/23.jpeg,Instruments,1,stim/objects/Instruments/harp2.png,0.9,3,-0.2,-0.15,left,71,2021-04-14_15h07.32.293,premup-three_ses-01_part-01_label-phase1,3.2.4,Win32,60,right,0.818999767,4,0,4,0,1,3,1,0,240,202,1,239,,,,,,,,,,,,,,,,,,
,,0,13,,,,,,,3,1,3,stim/13.jpeg,HouseObjects,2,stim/objects/HouseObjects/garbagebin2.png,0.9,4,0.2,-0.15,right,71,2021-04-14_15h07.32.293,premup-three_ses-01_part-01_label-phase1,3.2.4,Win32,60,left,0.88499999,4,0,4,0,1,3,1,0,240,174,1,239,,,,,,,,,,,,,,,,,,
,,0,14,,,,,,,1,3,2,stim/32.jpeg,HouseObjects,2,stim/objects/HouseObjects/cushion.png,0.5,3,-0.2,-0.15,right,71,2021-04-14_15h07.32.293,premup-three_ses-01_part-01_label-phase1,3.2.4,Win32,60,left,0.809999943,4,0,4,0,1,3,1,0,240,25,1,239,,,,,,,,,,,,,,,,,,
,,0,15,,,,,,,1,4,3,stim/43.jpeg,HouseObjects,2,stim/objects/HouseObjects/garbagebin.png,0.5,4,0.2,-0.15,right,71,2021-04-14_15h07.32.293,premup-three_ses-01_part-01_label-phase1,3.2.4,Win32,60,left,1.128999949,4,0,4,0,1,3,1,0,240,62,1,239,,,,,,,,,,,,,,,,,,
,,0,16,,,,,,,2,5,3,stim/53.jpeg,HouseObjects,2,stim/objects/HouseObjects/handbrush.png,0.7,1,-0.2,0.15,right,71,2021-04-14_15h07.32.293,premup-three_ses-01_part-01_label-phase1,3.2.4,Win32,60,left,0.845000029,4,0,4,0,1,3,1,0,240,102,1,239,,,,,,,,,,,,,,,,,,
,,1,17,,,,,,,2,6,2,stim/62.jpeg,HouseObjects,2,stim/objects/HouseObjects/cushion2.png,0.3,2,0.2,0.15,right,71,2021-04-14_15h07.32.293,premup-three_ses-01_part-01_label-phase1,3.2.4,Win32,60,right,1.162999868,4,0,4,0,1,3,1,0,240,153,1,239,,,,,,,,,,,,,,,,,,
,,1,18,,,,,,,1,4,2,stim/42.jpeg,HouseObjects,2,stim/objects/HouseObjects/flyswatter.png,0.5,4,0.2,-0.15,right,71,2021-04-14_15h07.32.293,premup-three_ses-01_part-01_label-phase1,3.2.4,Win32,60,right,0.905999899,4,0,4,0,1,3,1,0,240,65,1,239,,,,,,,,,,,,,,,,,,
,,0,19,,,,,,,2,6,2,stim/62.jpeg,Instruments,1,stim/objects/Instruments/electricdrumset2.png,0.7,4,0.2,-0.15,left,71,2021-04-14_15h07.32.293,premup-three_ses-01_part-01_label-phase1,3.2.4,Win32,60,right,1.032999992,4,0,4,0,1,3,1,0,240,133,1,239,,,,,,,,,,,,,,,,,,
,,0,20,,,,,,,3,2,1,stim/21.jpeg,Instruments,1,stim/objects/Instruments/guitarcase2.png,0.9,1,-0.2,0.15,left,71,2021-04-14_15h07.32.293,premup-three_ses-01_part-01_label-phase1,3.2.4,Win32,60,right,1.276999712,4,0,4,0,1,3,1,0,240,216,1,239,,,,,,,,,,,,,,,,,,
,,0,21,,,,,,,2,5,2,stim/52.jpeg,HouseObjects,2,stim/objects/HouseObjects/hairdryer.png,0.7,1,-0.2,0.15,right,71,2021-04-14_15h07.32.293,premup-three_ses-01_part-01_label-phase1,3.2.4,Win32,60,left,1.181999922,4,0,4,0,1,3,1,0,240,97,1,239,,,,,,,,,,,,,,,,,,
,,0,22,,,,,,,3,2,4,stim/24.jpeg,Instruments,1,stim/objects/Instruments/hihat2.png,0.9,2,0.2,0.15,left,71,2021-04-14_15h07.32.293,premup-three_ses-01_part-01_label-phase1,3.2.4,Win32,60,right,1.230999947,4,0,4,0,1,3,1,0,240,227,1,239,,,,,,,,,,,,,,,,,,
,,1,23,,,,,,,2,5,1,stim/51.jpeg,HouseObjects,2,stim/objects/HouseObjects/glassmop.png,0.7,3,-0.2,-0.15,right,71,2021-04-14_15h07.32.293,premup-three_ses-01_part-01_label-phase1,3.2.4,Win32,60,right,1.445999861,4,0,4,0,1,3,1,0,240,96,1,239,,,,,,,,,,,,,,,,,,
,,0,24,,,,,,,3,1,1,stim/11.jpeg,HouseObjects,2,stim/objects/HouseObjects/dustpan2.png,0.9,1,-0.2,0.15,right,71,2021-04-14_15h07.32.293,premup-three_ses-01_part-01_label-phase1,3.2.4,Win32,60,left,1.580999851,4,0,4,0,1,3,1,0,240,164,1,239,,,,,,,,,,,,,,,,,,
,,1,25,,,,,,,3,2,4,stim/24.jpeg,Instruments,1,stim/objects/Instruments/hihat2.png,0.9,1,-0.2,0.15,left,71,2021-04-14_15h07.32.293,premup-three_ses-01_part-01_label-phase1,3.2.4,Win32,60,left,1.361000061,4,0,4,0,1,3,1,0,240,219,1,239,,,,,,,,,,,,,,,,,,
,,0,26,,,,,,,2,5,4,stim/54.jpeg,HouseObjects,2,stim/objects/HouseObjects/handvacuum.png,0.7,4,0.2,-0.15,right,71,2021-04-14_15h07.32.293,premup-three_ses-01_part-01_label-phase1,3.2.4,Win32,60,left,0.798999786,4,0,4,0,1,3,1,0,240,119,1,239,,,,,,,,,,,,,,,,,,
,,1,27,,,,,,,1,4,3,stim/43.jpeg,HouseObjects,2,stim/objects/HouseObjects/garbagebin.png,0.5,1,-0.2,0.15,right,71,2021-04-14_15h07.32.293,premup-three_ses-01_part-01_label-phase1,3.2.4,Win32,60,right,1.087999821,4,0,4,0,1,3,1,0,240,78,1,239,,,,,,,,,,,,,,,,,,
,,0,28,,,,,,,3,2,4,stim/24.jpeg,Instruments,1,stim/objects/Instruments/hihat2.png,0.9,4,0.2,-0.15,left,71,2021-04-14_15h07.32.293,premup-three_ses-01_part-01_label-phase1,3.2.4,Win32,60,right,1.072999954,4,0,4,0,1,3,1,0,240,231,1,239,,,,,,,,,,,,,,,,,,
,,0,29,,,,,,,1,3,3,stim/33.jpeg,Instruments,1,stim/objects/Instruments/electricguitar.png,0.5,4,0.2,-0.15,left,71,2021-04-14_15h07.32.293,premup-three_ses-01_part-01_label-phase1,3.2.4,Win32,60,right,1.24000001,4,0,4,0,1,3,1,0,240,6,1,239,,,,,,,,,,,,,,,,,,
,,1,30,,,,,,,3,1,1,stim/11.jpeg,HouseObjects,2,stim/objects/HouseObjects/dustpan2.png,0.9,3,-0.2,-0.15,right,71,2021-04-14_15h07.32.293,premup-three_ses-01_part-01_label-phase1,3.2.4,Win32,60,right,1.39199996,4,0,4,0,1,3,1,0,240,192,1,239,,,,,,,,,,,,,,,,,,
,,1,31,,,,,,,3,1,1,stim/11.jpeg,HouseObjects,2,stim/objects/HouseObjects/dustpan2.png,0.9,4,0.2,-0.15,right,71,2021-04-14_15h07.32.293,premup-three_ses-01_part-01_label-phase1,3.2.4,Win32,60,right,0.586999893,4,0,4,0,1,3,1,0,240,180,1,239,,,,,,,,,,,,,,,,,,
,,1,32,,,,,,,1,4,2,stim/42.jpeg,HouseObjects,2,stim/objects/HouseObjects/flyswatter.png,0.5,2,0.2,0.15,right,71,2021-04-14_15h07.32.293,premup-three_ses-01_part-01_label-phase1,3.2.4,Win32,60,right,0.809999943,4,0,4,0,1,3,1,0,240,61,1,239,,,,,,,,,,,,,,,,,,
,,1,33,,,,,,,3,2,2,stim/22.jpeg,Instruments,1,stim/objects/Instruments/harmonica2.png,0.9,1,-0.2,0.15,left,71,2021-04-14_15h07.32.293,premup-three_ses-01_part-01_label-phase1,3.2.4,Win32,60,left,1.047999859,4,0,4,0,1,3,1,0,240,201,1,239,,,,,,,,,,,,,,,,,,
,,0,34,,,,,,,1,4,3,stim/43.jpeg,Instruments,1,stim/objects/Instruments/gong.png,0.5,4,0.2,-0.15,left,71,2021-04-14_15h07.32.293,premup-three_ses-01_part-01_label-phase1,3.2.4,Win32,60,right,0.706999779,4,0,4,0,1,3,1,0,240,42,1,239,,,,,,,,,,,,,,,,,,
,,0,35,,,,,,,1,4,4,stim/44.jpeg,Instruments,1,stim/objects/Instruments/grandpiano.png,0.5,3,-0.2,-0.15,left,71,2021-04-14_15h07.32.293,premup-three_ses-01_part-01_label-phase1,3.2.4,Win32,60,right,0.805999994,4,0,4,0,1,3,1,0,240,51,1,239,,,,,,,,,,,,,,,,,,
,,1,36,,,,,,,3,2,1,stim/21.jpeg,Instruments,1,stim/objects/Instruments/guitarcase2.png,0.9,4,0.2,-0.15,left,71,2021-04-14_15h07.32.293,premup-three_ses-01_part-01_label-phase1,3.2.4,Win32,60,left,1.004999876,4,0,4,0,1,3,1,0,240,204,1,239,,,,,,,,,,,,,,,,,,
,,1,37,,,,,,,3,2,4,stim/24.jpeg,Instruments,1,stim/objects/Instruments/hihat2.png,0.9,4,0.2,-0.15,left,71,2021-04-14_15h07.32.293,premup-three_ses-01_part-01_label-phase1,3.2.4,Win32,60,left,0.816999912,4,0,4,0,1,3,1,0,240,207,1,239,,,,,,,,,,,,,,,,,,
,,1,38,,,,,,,2,5,1,stim/51.jpeg,HouseObjects,2,stim/objects/HouseObjects/glassmop.png,0.7,3,-0.2,-0.15,right,71,2021-04-14_15h07.32.293,premup-three_ses-01_part-01_label-phase1,3.2.4,Win32,60,right,1.289999723,4,0,4,0,1,3,1,0,240,116,1,239,,,,,,,,,,,,,,,,,,
,,1,39,,,,,,,2,5,4,stim/54.jpeg,HouseObjects,2,stim/objects/HouseObjects/handvacuum.png,0.7,1,-0.2,0.15,right,71,2021-04-14_15h07.32.293,premup-three_ses-01_part-01_label-phase1,3.2.4,Win32,60,right,0.539999962,4,0,4,0,1,3,1,0,240,99,1,239,,,,,,,,,,,,,,,,,,
,,0,40,,,,,,,1,4,2,stim/42.jpeg,Instruments,1,stim/objects/Instruments/frenchhorn.png,0.5,4,0.2,-0.15,left,71,2021-04-14_15h07.32.293,premup-three_ses-01_part-01_label-phase1,3.2.4,Win32,60,right,0.961999893,4,0,4,0,1,3,1,0,240,49,1,239,,,,,,,,,,,,,,,,,,
,,0,41,,,,,,,2,6,4,stim/64.jpeg,Instruments,1,stim/objects/Instruments/flute2.png,0.7,2,0.2,0.15,left,71,2021-04-14_15h07.32.293,premup-three_ses-01_part-01_label-phase1,3.2.4,Win32,60,right,1.072000027,4,0,4,0,1,3,1,0,240,131,1,239,,,,,,,,,,,,,,,,,,
,,1,42,,,,,,,1,3,2,stim/32.jpeg,HouseObjects,2,stim/objects/HouseObjects/cushion.png,0.5,1,-0.2,0.15,right,71,2021-04-14_15h07.32.293,premup-three_ses-01_part-01_label-phase1,3.2.4,Win32,60,right,1.200000048,4,0,4,0,1,3,1,0,240,29,1,239,,,,,,,,,,,,,,,,,,
,,1,43,,,,,,,3,2,4,stim/24.jpeg,Instruments,1,stim/objects/Instruments/hihat2.png,0.9,3,-0.2,-0.15,left,71,2021-04-14_15h07.32.293,premup-three_ses-01_part-01_label-phase1,3.2.4,Win32,60,left,1.110999823,4,0,4,0,1,3,1,0,240,211,1,239,,,,,,,,,,,,,,,,,,
,,1,44,,,,,,,3,1,4,stim/14.jpeg,HouseObjects,2,stim/objects/HouseObjects/glass2.png,0.9,1,-0.2,0.15,right,71,2021-04-14_15h07.32.293,premup-three_ses-01_part-01_label-phase1,3.2.4,Win32,60,right,0.90899992,4,0,4,0,1,3,1,0,240,183,1,239,,,,,,,,,,,,,,,,,,
,,1,45,,,,,,,2,6,2,stim/62.jpeg,HouseObjects,2,stim/objects/HouseObjects/cushion2.png,0.3,4,0.2,-0.15,right,71,2021-04-14_15h07.32.293,premup-three_ses-01_part-01_label-phase1,3.2.4,Win32,60,right,0.944999933,4,0,4,0,1,3,1,0,240,149,1,239,,,,,,,,,,,,,,,,,,
,,0,46,,,,,,,1,3,3,stim/33.jpeg,HouseObjects,2,stim/objects/HouseObjects/dishsoap.png,0.5,3,-0.2,-0.15,right,71,2021-04-14_15h07.32.293,premup-three_ses-01_part-01_label-phase1,3.2.4,Win32,60,left,0.801999807,4,0,4,0,1,3,1,0,240,30,1,239,,,,,,,,,,,,,,,,,,
,,1,47,,,,,,,2,5,4,stim/54.jpeg,HouseObjects,2,stim/objects/HouseObjects/handvacuum.png,0.7,1,-0.2,0.15,right,71,2021-04-14_15h07.32.293,premup-three_ses-01_part-01_label-phase1,3.2.4,Win32,60,right,0.944999933,4,0,4,0,1,3,1,0,240,111,1,239,,,,,,,,,,,,,,,,,,
,,0,48,,,,,,,3,1,1,stim/11.jpeg,Instruments,1,stim/objects/Instruments/flutetrans2.png,0.1,3,-0.2,-0.15,left,71,2021-04-14_15h07.32.293,premup-three_ses-01_part-01_label-phase1,3.2.4,Win32,60,right,0.868000031,4,0,4,0,1,3,1,0,240,160,1,239,,,,,,,,,,,,,,,,,,
,,1,49,,,,,,,1,3,2,stim/32.jpeg,HouseObjects,2,stim/objects/HouseObjects/cushion.png,0.5,1,-0.2,0.15,right,71,2021-04-14_15h07.32.293,premup-three_ses-01_part-01_label-phase1,3.2.4,Win32,60,right,1.469000101,4,0,4,0,1,3,1,0,240,33,1,239,,,,,,,,,,,,,,,,,,
,,0,50,,,,,,,2,5,2,stim/52.jpeg,Instruments,1,stim/objects/Instruments/harmonica.png,0.3,1,-0.2,0.15,left,71,2021-04-14_15h07.32.293,premup-three_ses-01_part-01_label-phase1,3.2.4,Win32,60,right,0.650999784,4,0,4,0,1,3,1,0,240,89,1,239,,,,,,,,,,,,,,,,,,
,,1,51,,,,,,,2,5,3,stim/53.jpeg,HouseObjects,2,stim/objects/HouseObjects/handbrush.png,0.7,2,0.2,0.15,right,71,2021-04-14_15h07.32.293,premup-three_ses-01_part-01_label-phase1,3.2.4,Win32,60,right,1.191999912,4,0,4,0,1,3,1,0,240,98,1,239,,,,,,,,,,,,,,,,,,
,,1,52,,,,,,,1,3,4,stim/34.jpeg,HouseObjects,2,stim/objects/HouseObjects/doormat.png,0.5,1,-0.2,0.15,right,71,2021-04-14_15h07.32.293,premup-three_ses-01_part-01_label-phase1,3.2.4,Win32,60,right,1.261999846,4,0,4,0,1,3,1,0,240,23,1,239,,,,,,,,,,,,,,,,,,
,,1,53,,,,,,,2,6,3,stim/63.jpeg,Instruments,1,stim/objects/Instruments/electricguitar2.png,0.7,2,0.2,0.15,left,71,2021-04-14_15h07.32.293,premup-three_ses-01_part-01_label-phase1,3.2.4,Win32,60,left,0.954999924,4,0,4,0,1,3,1,0,240,130,1,239,,,,,,,,,,,,,,,,,,
,,0,54,,,,,,,1,3,1,stim/31.jpeg,Instruments,1,stim/objects/Instruments/drums.png,0.5,2,0.2,0.15,left,71,2021-04-14_15h07.32.293,premup-three_ses-01_part-01_label-phase1,3.2.4,Win32,60,right,0.884000063,4,0,4,0,1,3,1,0,240,16,1,239,,,,,,,,,,,,,,,,,,
,,1,55,,,,,,,2,6,2,stim/62.jpeg,Instruments,1,stim/objects/Instruments/electricdrumset2.png,0.7,3,-0.2,-0.15,left,71,2021-04-14_15h07.32.293,premup-three_ses-01_part-01_label-phase1,3.2.4,Win32,60,left,1.212999821,4,0,4,0,1,3,1,0,240,129,1,239,,,,,,,,,,,,,,,,,,
,,1,56,,,,,,,2,6,2,stim/62.jpeg,Instruments,1,stim/objects/Instruments/electricdrumset2.png,0.7,1,-0.2,0.15,left,71,2021-04-14_15h07.32.293,premup-three_ses-01_part-01_label-phase1,3.2.4,Win32,60,left,0.523999929,4,0,4,0,1,3,1,0,240,141,1,239,,,,,,,,,,,,,,,,,,
,,1,57,,,,,,,3,2,4,stim/24.jpeg,Instruments,1,stim/objects/Instruments/hihat2.png,0.9,4,0.2,-0.15,left,71,2021-04-14_15h07.32.293,premup-three_ses-01_part-01_label-phase1,3.2.4,Win32,60,left,0.805000067,4,0,4,0,1,3,1,0,240,215,1,239,,,,,,,,,,,,,,,,,,
,,1,58,,,,,,,1,3,3,stim/33.jpeg,HouseObjects,2,stim/objects/HouseObjects/dishsoap.png,0.5,4,0.2,-0.15,right,71,2021-04-14_15h07.32.293,premup-three_ses-01_part-01_label-phase1,3.2.4,Win32,60,right,0.904000044,4,0,4,0,1,3,1,0,240,34,1,239,,,,,,,,,,,,,,,,,,
,,1,59,,,,,,,1,4,4,stim/44.jpeg,Instruments,1,stim/objects/Instruments/grandpiano.png,0.5,4,0.2,-0.15,left,71,2021-04-14_15h07.32.293,premup-three_ses-01_part-01_label-phase1,3.2.4,Win32,60,left,0.941999912,4,0,4,0,1,3,1,0,240,59,1,239,,,,,,,,,,,,,,,,,,
,,1,60,,,,,,,2,6,1,stim/61.jpeg,Instruments,1,stim/objects/Instruments/drums2.png,0.7,2,0.2,0.15,left,71,2021-04-14_15h07.32.293,premup-three_ses-01_part-01_label-phase1,3.2.4,Win32,60,left,0.981999874,4,0,4,0,1,3,1,0,240,124,1,239,,,,,,,,,,,,,,,,,,
,,0,61,,,,,,,1,4,2,stim/42.jpeg,Instruments,1,stim/objects/Instruments/frenchhorn.png,0.5,3,-0.2,-0.15,left,71,2021-04-14_15h07.32.293,premup-three_ses-01_part-01_label-phase1,3.2.4,Win32,60,right,1.296000004,4,0,4,0,1,3,1,0,240,45,1,239,,,,,,,,,,,,,,,,,,
,,0,62,,,,,,,3,1,3,stim/13.jpeg,Instruments,1,stim/objects/Instruments/gong2.png,0.1,2,0.2,0.15,left,71,2021-04-14_15h07.32.293,premup-three_ses-01_part-01_label-phase1,3.2.4,Win32,60,right,1.177999973,4,0,4,0,1,3,1,0,240,162,1,239,,,,,,,,,,,,,,,,,,
,,1,63,,,,,,,2,5,3,stim/53.jpeg,HouseObjects,2,stim/objects/HouseObjects/handbrush.png,0.7,3,-0.2,-0.15,right,71,2021-04-14_15h07.32.293,premup-three_ses-01_part-01_label-phase1,3.2.4,Win32,60,right,1.069000006,4,0,4,0,1,3,1,0,240,114,1,239,,,,,,,,,,,,,,,,,,
,,1,64,,,,,,,1,3,2,stim/32.jpeg,Instruments,1,stim/objects/Instruments/electricdrumset.png,0.5,2,0.2,0.15,left,71,2021-04-14_15h07.32.293,premup-three_ses-01_part-01_label-phase1,3.2.4,Win32,60,left,1.865999937,4,0,4,0,1,3,1,0,240,17,1,239,,,,,,,,,,,,,,,,,,
,,0,65,,,,,,,1,3,2,stim/32.jpeg,HouseObjects,2,stim/objects/HouseObjects/cushion.png,0.5,4,0.2,-0.15,right,71,2021-04-14_15h07.32.293,premup-three_ses-01_part-01_label-phase1,3.2.4,Win32,60,left,1.326999903,4,0,4,0,1,3,1,0,240,37,1,239,,,,,,,,,,,,,,,,,,
,,0,66,,,,,,,2,6,1,stim/61.jpeg,HouseObjects,2,stim/objects/HouseObjects/coffee2.png,0.3,3,-0.2,-0.15,right,71,2021-04-14_15h07.32.293,premup-three_ses-01_part-01_label-phase1,3.2.4,Win32,60,left,1.843999863,4,0,4,0,1,3,1,0,240,156,1,239,,,,,,,,,,,,,,,,,,
,,1,67,,,,,,,3,2,3,stim/23.jpeg,Instruments,1,stim/objects/Instruments/harp2.png,0.9,4,0.2,-0.15,left,71,2021-04-14_15h07.32.293,premup-three_ses-01_part-01_label-phase1,3.2.4,Win32,60,left,1.137000084,4,0,4,0,1,3,1,0,240,222,1,239,,,,,,,,,,,,,,,,,,
,,0,68,,,,,,,1,4,3,stim/43.jpeg,Instruments,1,stim/objects/Instruments/gong.png,0.5,4,0.2,-0.15,left,71,2021-04-14_15h07.32.293,premup-three_ses-01_part-01_label-phase1,3.2.4,Win32,60,right,0.988999844,4,0,4,0,1,3,1,0,240,46,1,239,,,,,,,,,,,,,,,,,,
,,0,69,,,,,,,1,3,4,stim/34.jpeg,HouseObjects,2,stim/objects/HouseObjects/doormat.png,0.5,3,-0.2,-0.15,right,71,2021-04-14_15h07.32.293,premup-three_ses-01_part-01_label-phase1,3.2.4,Win32,60,left,0.809000015,4,0,4,0,1,3,1,0,240,35,1,239,,,,,,,,,,,,,,,,,,
,,1,70,,,,,,,2,5,2,stim/52.jpeg,HouseObjects,2,stim/objects/HouseObjects/hairdryer.png,0.7,3,-0.2,-0.15,right,71,2021-04-14_15h07.32.293,premup-three_ses-01_part-01_label-phase1,3.2.4,Win32,60,right,1.269999743,4,0,4,0,1,3,1,0,240,113,1,239,,,,,,,,,,,,,,,,,,
,,0,71,,,,,,,1,3,1,stim/31.jpeg,Instruments,1,stim/objects/Instruments/drums.png,0.5,1,-0.2,0.15,left,71,2021-04-14_15h07.32.293,premup-three_ses-01_part-01_label-phase1,3.2.4,Win32,60,right,1.835000038,4,0,4,0,1,3,1,0,240,8,1,239,,,,,,,,,,,,,,,,,,
,,1,72,,,,,,,3,1,3,stim/13.jpeg,HouseObjects,2,stim/objects/HouseObjects/garbagebin2.png,0.9,1,-0.2,0.15,right,71,2021-04-14_15h07.32.293,premup-three_ses-01_part-01_label-phase1,3.2.4,Win32,60,right,1.261999846,4,0,4,0,1,3,1,0,240,194,1,239,,,,,,,,,,,,,,,,,,
,,1,73,,,,,,,3,2,2,stim/22.jpeg,Instruments,1,stim/objects/Instruments/harmonica2.png,0.9,3,-0.2,-0.15,left,71,2021-04-14_15h07.32.293,premup-three_ses-01_part-01_label-phase1,3.2.4,Win32,60,left,0.832000017,4,0,4,0,1,3,1,0,240,217,1,239,,,,,,,,,,,,,,,,,,
,,1,74,,,,,,,3,2,1,stim/21.jpeg,Instruments,1,stim/objects/Instruments/guitarcase2.png,0.9,2,0.2,0.15,left,71,2021-04-14_15h07.32.293,premup-three_ses-01_part-01_label-phase1,3.2.4,Win32,60,left,0.682999849,4,0,4,0,1,3,1,0,240,212,1,239,,,,,,,,,,,,,,,,,,
,,1,75,,,,,,,1,3,2,stim/32.jpeg,Instruments,1,stim/objects/Instruments/electricdrumset.png,0.5,4,0.2,-0.15,left,71,2021-04-14_15h07.32.293,premup-three_ses-01_part-01_label-phase1,3.2.4,Win32,60,left,1.017999887,4,0,4,0,1,3,1,0,240,13,1,239,,,,,,,,,,,,,,,,,,
,,1,76,,,,,,,3,1,2,stim/12.jpeg,HouseObjects,2,stim/objects/HouseObjects/flyswatter2.png,0.9,1,-0.2,0.15,right,71,2021-04-14_15h07.32.293,premup-three_ses-01_part-01_label-phase1,3.2.4,Win32,60,right,0.941999912,4,0,4,0,1,3,1,0,240,169,1,239,,,,,,,,,,,,,,,,,,
,,0,77,,,,,,,2,5,3,stim/53.jpeg,Instruments,1,stim/objects/Instruments/harp.png,0.3,1,-0.2,0.15,left,71,2021-04-14_15h07.32.293,premup-three_ses-01_part-01_label-phase1,3.2.4,Win32,60,right,0.94299984,4,0,4,0,1,3,1,0,240,82,1,239,,,,,,,,,,,,,,,,,,
,,1,78,,,,,,,1,4,1,stim/41.jpeg,Instruments,1,stim/objects/Instruments/flutetrans.png,0.5,2,0.2,0.15,left,71,2021-04-14_15h07.32.293,premup-three_ses-01_part-01_label-phase1,3.2.4,Win32,60,left,1.409999847,4,0,4,0,1,3,1,0,240,56,1,239,,,,,,,,,,,,,,,,,,
,,1,79,,,,,,,2,5,1,stim/51.jpeg,HouseObjects,2,stim/objects/HouseObjects/glassmop.png,0.7,2,0.2,0.15,right,71,2021-04-14_15h07.32.293,premup-three_ses-01_part-01_label-phase1,3.2.4,Win32,60,right,0.958999872,4,0,4,0,1,3,1,0,240,108,1,239,,,,,,,,,,,,,,,,,,
,,1,80,,,,,,,2,6,1,stim/61.jpeg,Instruments,1,stim/objects/Instruments/drums2.png,0.7,4,0.2,-0.15,left,71,2021-04-14_15h07.32.293,premup-three_ses-01_part-01_label-phase1,3.2.4,Win32,60,left,1.512000084,4,0,4,0,1,3,1,0,240,140,1,239,,,,,,,,,,,,,,,,,,
,,1,81,,,,,,,2,6,4,stim/64.jpeg,Instruments,1,stim/objects/Instruments/flute2.png,0.7,4,0.2,-0.15,left,71,2021-04-14_15h07.32.293,premup-three_ses-01_part-01_label-phase1,3.2.4,Win32,60,left,0.610999823,4,0,4,0,1,3,1,0,240,147,1,239,,,,,,,,,,,,,,,,,,
,,0,82,,,,,,,3,2,2,stim/22.jpeg,HouseObjects,2,stim/objects/HouseObjects/hairdryer2.png,0.1,2,0.2,0.15,right,71,2021-04-14_15h07.32.293,premup-three_ses-01_part-01_label-phase1,3.2.4,Win32,60,left,0.944999933,4,0,4,0,1,3,1,0,240,237,1,239,,,,,,,,,,,,,,,,,,
,,1,83,,,,,,,3,1,1,stim/11.jpeg,HouseObjects,2,stim/objects/HouseObjects/dustpan2.png,0.9,2,0.2,0.15,right,71,2021-04-14_15h07.32.293,premup-three_ses-01_part-01_label-phase1,3.2.4,Win32,60,right,1.016000032,4,0,4,0,1,3,1,0,240,196,1,239,,,,,,,,,,,,,,,,,,
,,1,84,,,,,,,3,1,2,stim/12.jpeg,HouseObjects,2,stim/objects/HouseObjects/flyswatter2.png,0.9,2,0.2,0.15,right,71,2021-04-14_15h07.32.293,premup-three_ses-01_part-01_label-phase1,3.2.4,Win32,60,right,0.563999891,4,0,4,0,1,3,1,0,240,197,1,239,,,,,,,,,,,,,,,,,,
,,1,85,,,,,,,2,6,2,stim/62.jpeg,Instruments,1,stim/objects/Instruments/electricdrumset2.png,0.7,3,-0.2,-0.15,left,71,2021-04-14_15h07.32.293,premup-three_ses-01_part-01_label-phase1,3.2.4,Win32,60,left,0.969000101,4,0,4,0,1,3,1,0,240,121,1,239,,,,,,,,,,,,,,,,,,
,,0,86,,,,,,,3,2,3,stim/23.jpeg,Instruments,1,stim/objects/Instruments/harp2.png,0.9,1,-0.2,0.15,left,71,2021-04-14_15h07.32.293,premup-three_ses-01_part-01_label-phase1,3.2.4,Win32,60,right,0.74000001,4,0,4,0,1,3,1,0,240,226,1,239,,,,,,,,,,,,,,,,,,
,,0,87,,,,,,,1,3,3,stim/33.jpeg,HouseObjects,2,stim/objects/HouseObjects/dishsoap.png,0.5,3,-0.2,-0.15,right,71,2021-04-14_15h07.32.293,premup-three_ses-01_part-01_label-phase1,3.2.4,Win32,60,left,1.046999931,4,0,4,0,1,3,1,0,240,22,1,239,,,,,,,,,,,,,,,,,,
,,0,88,,,,,,,1,3,2,stim/32.jpeg,Instruments,1,stim/objects/Instruments/electricdrumset.png,0.5,3,-0.2,-0.15,left,71,2021-04-14_15h07.32.293,premup-three_ses-01_part-01_label-phase1,3.2.4,Win32,60,right,0.555000067,4,0,4,0,1,3,1,0,240,5,1,239,,,,,,,,,,,,,,,,,,
,,1,89,,,,,,,3,1,3,stim/13.jpeg,HouseObjects,2,stim/objects/HouseObjects/garbagebin2.png,0.9,3,-0.2,-0.15,right,71,2021-04-14_15h07.32.293,premup-three_ses-01_part-01_label-phase1,3.2.4,Win32,60,right,0.881999731,4,0,4,0,1,3,1,0,240,170,1,239,,,,,,,,,,,,,,,,,,
,,1,90,,,,,,,1,4,3,stim/43.jpeg,Instruments,1,stim/objects/Instruments/gong.png,0.5,2,0.2,0.15,left,71,2021-04-14_15h07.32.293,premup-three_ses-01_part-01_label-phase1,3.2.4,Win32,60,left,1.145999908,4,0,4,0,1,3,1,0,240,54,1,239,,,,,,,,,,,,,,,,,,
,,1,91,,,,,,,2,6,4,stim/64.jpeg,Instruments,1,stim/objects/Instruments/flute2.png,0.7,3,-0.2,-0.15,left,71,2021-04-14_15h07.32.293,premup-three_ses-01_part-01_label-phase1,3.2.4,Win32,60,left,0.707999945,4,0,4,0,1,3,1,0,240,123,1,239,,,,,,,,,,,,,,,,,,
,,0,92,,,,,,,2,5,4,stim/54.jpeg,Instruments,1,stim/objects/Instruments/hihat.png,0.3,1,-0.2,0.15,left,71,2021-04-14_15h07.32.293,premup-three_ses-01_part-01_label-phase1,3.2.4,Win32,60,right,0.724999905,4,0,4,0,1,3,1,0,240,83,1,239,,,,,,,,,,,,,,,,,,
,,0,93,,,,,,,2,6,4,stim/64.jpeg,HouseObjects,2,stim/objects/HouseObjects/doormat2.png,0.3,4,0.2,-0.15,right,71,2021-04-14_15h07.32.293,premup-three_ses-01_part-01_label-phase1,3.2.4,Win32,60,left,0.655999899,4,0,4,0,1,3,1,0,240,151,1,239,,,,,,,,,,,,,,,,,,
,,1,94,,,,,,,1,3,2,stim/32.jpeg,Instruments,1,stim/objects/Instruments/electricdrumset.png,0.5,4,0.2,-0.15,left,71,2021-04-14_15h07.32.293,premup-three_ses-01_part-01_label-phase1,3.2.4,Win32,60,left,1.495999813,4,0,4,0,1,3,1,0,240,9,1,239,,,,,,,,,,,,,,,,,,
,,0,95,,,,,,,2,6,3,stim/63.jpeg,HouseObjects,2,stim/objects/HouseObjects/dishsoap2.png,0.3,2,0.2,0.15,right,71,2021-04-14_15h07.32.293,premup-three_ses-01_part-01_label-phase1,3.2.4,Win32,60,left,0.90199995,4,0,4,0,1,3,1,0,240,154,1,239,,,,,,,,,,,,,,,,,,
,,1,96,,,,,,,2,5,4,stim/54.jpeg,HouseObjects,2,stim/objects/HouseObjects/handvacuum.png,0.7,2,0.2,0.15,right,71,2021-04-14_15h07.32.293,premup-three_ses-01_part-01_label-phase1,3.2.4,Win32,60,right,0.838999987,4,0,4,0,1,3,1,0,240,107,1,239,,,,,,,,,,,,,,,,,,
,,1,97,,,,,,,2,5,4,stim/54.jpeg,HouseObjects,2,stim/objects/HouseObjects/handvacuum.png,0.7,4,0.2,-0.15,right,71,2021-04-14_15h07.32.293,premup-three_ses-01_part-01_label-phase1,3.2.4,Win32,60,right,0.605000019,4,0,4,0,1,3,1,0,240,103,1,239,,,,,,,,,,,,,,,,,,
,,1,98,,,,,,,1,4,3,stim/43.jpeg,Instruments,1,stim/objects/Instruments/gong.png,0.5,2,0.2,0.15,left,71,2021-04-14_15h07.32.293,premup-three_ses-01_part-01_label-phase1,3.2.4,Win32,60,left,1.046999931,4,0,4,0,1,3,1,0,240,58,1,239,,,,,,,,,,,,,,,,,,
,,1,99,,,,,,,2,5,2,stim/52.jpeg,HouseObjects,2,stim/objects/HouseObjects/hairdryer.png,0.7,3,-0.2,-0.15,right,71,2021-04-14_15h07.32.293,premup-three_ses-01_part-01_label-phase1,3.2.4,Win32,60,right,1.352999926,4,0,4,0,1,3,1,0,240,117,1,239,,,,,,,,,,,,,,,,,,
,,1,100,,,,,,,2,6,2,stim/62.jpeg,Instruments,1,stim/objects/Instruments/electricdrumset2.png,0.7,3,-0.2,-0.15,left,71,2021-04-14_15h07.32.293,premup-three_ses-01_part-01_label-phase1,3.2.4,Win32,60,left,0.850999832,4,0,4,0,1,3,1,0,240,125,1,239,,,,,,,,,,,,,,,,,,
,,0,101,,,,,,,2,6,3,stim/63.jpeg,Instruments,1,stim/objects/Instruments/electricguitar2.png,0.7,4,0.2,-0.15,left,71,2021-04-14_15h07.32.293,premup-three_ses-01_part-01_label-phase1,3.2.4,Win32,60,right,0.951999903,4,0,4,0,1,3,1,0,240,146,1,239,,,,,,,,,,,,,,,,,,
,,1,102,,,,,,,2,5,2,stim/52.jpeg,HouseObjects,2,stim/objects/HouseObjects/hairdryer.png,0.7,3,-0.2,-0.15,right,71,2021-04-14_15h07.32.293,premup-three_ses-01_part-01_label-phase1,3.2.4,Win32,60,right,1.671999931,4,0,4,0,1,3,1,0,240,93,1,239,,,,,,,,,,,,,,,,,,
,,1,103,,,,,,,2,6,3,stim/63.jpeg,Instruments,1,stim/objects/Instruments/electricguitar2.png,0.7,2,0.2,0.15,left,71,2021-04-14_15h07.32.293,premup-three_ses-01_part-01_label-phase1,3.2.4,Win32,60,left,0.775999784,4,0,4,0,1,3,1,0,240,134,1,239,,,,,,,,,,,,,,,,,,
,,1,104,,,,,,,2,5,4,stim/54.jpeg,HouseObjects,2,stim/objects/HouseObjects/handvacuum.png,0.7,4,0.2,-0.15,right,71,2021-04-14_15h07.32.293,premup-three_ses-01_part-01_label-phase1,3.2.4,Win32,60,right,0.612999916,4,0,4,0,1,3,1,0,240,115,1,239,,,,,,,,,,,,,,,,,,
,,1,105,,,,,,,2,5,3,stim/53.jpeg,HouseObjects,2,stim/objects/HouseObjects/handbrush.png,0.7,2,0.2,0.15,right,71,2021-04-14_15h07.32.293,premup-three_ses-01_part-01_label-phase1,3.2.4,Win32,60,right,0.828999996,4,0,4,0,1,3,1,0,240,110,1,239,,,,,,,,,,,,,,,,,,
,,1,106,,,,,,,3,1,3,stim/13.jpeg,HouseObjects,2,stim/objects/HouseObjects/garbagebin2.png,0.9,2,0.2,0.15,right,71,2021-04-14_15h07.32.293,premup-three_ses-01_part-01_label-phase1,3.2.4,Win32,60,right,0.761999846,4,0,4,0,1,3,1,0,240,190,1,239,,,,,,,,,,,,,,,,,,
,,1,107,,,,,,,3,1,2,stim/12.jpeg,HouseObjects,2,stim/objects/HouseObjects/flyswatter2.png,0.9,2,0.2,0.15,right,71,2021-04-14_15h07.32.293,premup-three_ses-01_part-01_label-phase1,3.2.4,Win32,60,right,0.733999968,4,0,4,0,1,3,1,0,240,173,1,239,,,,,,,,,,,,,,,,,,
,,0,108,,,,,,,1,4,2,stim/42.jpeg,HouseObjects,2,stim/objects/HouseObjects/flyswatter.png,0.5,3,-0.2,-0.15,right,71,2021-04-14_15h07.32.293,premup-three_ses-01_part-01_label-phase1,3.2.4,Win32,60,left,1.243999958,4,0,4,0,1,3,1,0,240,69,1,239,,,,,,,,,,,,,,,,,,
,,0,109,,,,,,,1,4,4,stim/44.jpeg,HouseObjects,2,stim/objects/HouseObjects/glass.png,0.5,4,0.2,-0.15,right,71,2021-04-14_15h07.32.293,premup-three_ses-01_part-01_label-phase1,3.2.4,Win32,60,left,1.118000031,4,0,4,0,1,3,1,0,240,63,1,239,,,,,,,,,,,,,,,,,,
,,0,110,,,,,,,2,6,3,stim/63.jpeg,Instruments,1,stim/objects/Instruments/electricguitar2.png,0.7,3,-0.2,-0.15,left,71,2021-04-14_15h07.32.293,premup-three_ses-01_part-01_label-phase1,3.2.4,Win32,60,right,1.40199995,4,0,4,0,1,3,1,0,240,122,1,239,,,,,,,,,,,,,,,,,,
,,1,111,,,,,,,2,6,4,stim/64.jpeg,Instruments,1,stim/objects/Instruments/flute2.png,0.7,2,0.2,0.15,left,71,2021-04-14_15h07.32.293,premup-three_ses-01_part-01_label-phase1,3.2.4,Win32,60,left,0.7099998,4,0,4,0,1,3,1,0,240,135,1,239,,,,,,,,,,,,,,,,,,
,,1,112,,,,,,,1,3,4,stim/34.jpeg,HouseObjects,2,stim/objects/HouseObjects/doormat.png,0.5,3,-0.2,-0.15,right,71,2021-04-14_15h07.32.293,premup-three_ses-01_part-01_label-phase1,3.2.4,Win32,60,right,1.191999912,4,0,4,0,1,3,1,0,240,39,1,239,,,,,,,,,,,,,,,,,,
,,1,113,,,,,,,1,4,2,stim/42.jpeg,Instruments,1,stim/objects/Instruments/frenchhorn.png,0.5,3,-0.2,-0.15,left,71,2021-04-14_15h07.32.293,premup-three_ses-01_part-01_label-phase1,3.2.4,Win32,60,left,0.880999804,4,0,4,0,1,3,1,0,240,53,1,239,,,,,,,,,,,,,,,,,,
,,0,114,,,,,,,1,3,3,stim/33.jpeg,Instruments,1,stim/objects/Instruments/electricguitar.png,0.5,3,-0.2,-0.15,left,71,2021-04-14_15h07.32.293,premup-three_ses-01_part-01_label-phase1,3.2.4,Win32,60,right,0.812999964,4,0,4,0,1,3,1,0,240,2,1,239,,,,,,,,,,,,,,,,,,
,,1,115,,,,,,,3,2,4,stim/24.jpeg,Instruments,1,stim/objects/Instruments/hihat2.png,0.9,1,-0.2,0.15,left,71,2021-04-14_15h07.32.293,premup-three_ses-01_part-01_label-phase1,3.2.4,Win32,60,left,0.796999931,4,0,4,0,1,3,1,0,240,203,1,239,,,,,,,,,,,,,,,,,,
,,1,116,,,,,,,3,1,4,stim/14.jpeg,HouseObjects,2,stim/objects/HouseObjects/glass2.png,0.9,1,-0.2,0.15,right,71,2021-04-14_15h07.32.293,premup-three_ses-01_part-01_label-phase1,3.2.4,Win32,60,right,0.732999802,4,0,4,0,1,3,1,0,240,199,1,239,,,,,,,,,,,,,,,,,,
,,0,117,,,,,,,1,4,1,stim/41.jpeg,HouseObjects,2,stim/objects/HouseObjects/dustpan.png,0.5,4,0.2,-0.15,right,71,2021-04-14_15h07.32.293,premup-three_ses-01_part-01_label-phase1,3.2.4,Win32,60,left,0.825999975,4,0,4,0,1,3,1,0,240,64,1,239,,,,,,,,,,,,,,,,,,
,,1,118,,,,,,,1,4,3,stim/43.jpeg,Instruments,1,stim/objects/Instruments/gong.png,0.5,1,-0.2,0.15,left,71,2021-04-14_15h07.32.293,premup-three_ses-01_part-01_label-phase1,3.2.4,Win32,60,left,1.355999947,4,0,4,0,1,3,1,0,240,50,1,239,,,,,,,,,,,,,,,,,,
,,1,119,,,,,,,1,4,1,stim/41.jpeg,Instruments,1,stim/objects/Instruments/flutetrans.png,0.5,2,0.2,0.15,left,71,2021-04-14_15h07.32.293,premup-three_ses-01_part-01_label-phase1,3.2.4,Win32,60,left,1.54399991,4,0,4,0,1,3,1,0,240,52,1,239,,,,,,,,,,,,,,,,,,
,,1,120,,,,,,,3,2,4,stim/24.jpeg,Instruments,1,stim/objects/Instruments/hihat2.png,0.9,3,-0.2,-0.15,left,71,2021-04-14_15h07.32.293,premup-three_ses-01_part-01_label-phase1,3.2.4,Win32,60,left,0.833999872,4,0,4,0,1,3,1,0,240,235,1,239,,,,,,,,,,,,,,,,,,
,,0,121,,,,,,,2,5,3,stim/53.jpeg,Instruments,1,stim/objects/Instruments/harp.png,0.3,4,0.2,-0.15,left,71,2021-04-14_15h07.32.293,premup-three_ses-01_part-01_label-phase1,3.2.4,Win32,60,right,0.816999912,4,0,4,0,1,3,1,0,240,86,1,239,,,,,,,,,,,,,,,,,,
,,1,122,,,,,,,3,1,3,stim/13.jpeg,HouseObjects,2,stim/objects/HouseObjects/garbagebin2.png,0.9,2,0.2,0.15,right,71,2021-04-14_15h07.32.293,premup-three_ses-01_part-01_label-phase1,3.2.4,Win32,60,right,1.278000116,4,0,4,0,1,3,1,0,240,178,1,239,,,,,,,,,,,,,,,,,,
,,0,123,,,,,,,2,6,4,stim/64.jpeg,HouseObjects,2,stim/objects/HouseObjects/doormat2.png,0.3,2,0.2,0.15,right,71,2021-04-14_15h07.32.293,premup-three_ses-01_part-01_label-phase1,3.2.4,Win32,60,left,0.703999996,4,0,4,0,1,3,1,0,240,159,1,239,,,,,,,,,,,,,,,,,,
,,1,124,,,,,,,1,4,3,stim/43.jpeg,HouseObjects,2,stim/objects/HouseObjects/garbagebin.png,0.5,3,-0.2,-0.15,right,71,2021-04-14_15h07.32.293,premup-three_ses-01_part-01_label-phase1,3.2.4,Win32,60,right,1.26699996,4,0,4,0,1,3,1,0,240,74,1,239,,,,,,,,,,,,,,,,,,
,,1,125,,,,,,,3,2,1,stim/21.jpeg,Instruments,1,stim/objects/Instruments/guitarcase2.png,0.9,1,-0.2,0.15,left,71,2021-04-14_15h07.32.293,premup-three_ses-01_part-01_label-phase1,3.2.4,Win32,60,left,0.960999966,4,0,4,0,1,3,1,0,240,200,1,239,,,,,,,,,,,,,,,,,,
,,1,126,,,,,,,2,5,2,stim/52.jpeg,HouseObjects,2,stim/objects/HouseObjects/hairdryer.png,0.7,4,0.2,-0.15,right,71,2021-04-14_15h07.32.293,premup-three_ses-01_part-01_label-phase1,3.2.4,Win32,60,right,0.615999937,4,0,4,0,1,3,1,0,240,109,1,239,,,,,,,,,,,,,,,,,,
,,1,127,,,,,,,3,1,2,stim/12.jpeg,HouseObjects,2,stim/objects/HouseObjects/flyswatter2.png,0.9,4,0.2,-0.15,right,71,2021-04-14_15h07.32.293,premup-three_ses-01_part-01_label-phase1,3.2.4,Win32,60,right,0.505999804,4,0,4,0,1,3,1,0,240,189,1,239,,,,,,,,,,,,,,,,,,
,,0,128,,,,,,,1,4,1,stim/41.jpeg,HouseObjects,2,stim/objects/HouseObjects/dustpan.png,0.5,1,-0.2,0.15,right,71,2021-04-14_15h07.32.293,premup-three_ses-01_part-01_label-phase1,3.2.4,Win32,60,,,4,0,4,0,1,3,1,0,240,72,1,239,,,,,,,,,,,,,,,,,,
,,0,129,,,,,,,1,3,3,stim/33.jpeg,HouseObjects,2,stim/objects/HouseObjects/dishsoap.png,0.5,2,0.2,0.15,right,71,2021-04-14_15h07.32.293,premup-three_ses-01_part-01_label-phase1,3.2.4,Win32,60,left,0.614000082,4,0,4,0,1,3,1,0,240,26,1,239,,,,,,,,,,,,,,,,,,
,,1,130,,,,,,,3,2,3,stim/23.jpeg,Instruments,1,stim/objects/Instruments/harp2.png,0.9,3,-0.2,-0.15,left,71,2021-04-14_15h07.32.293,premup-three_ses-01_part-01_label-phase1,3.2.4,Win32,60,left,0.576999903,4,0,4,0,1,3,1,0,240,206,1,239,,,,,,,,,,,,,,,,,,
,,1,131,,,,,,,3,1,4,stim/14.jpeg,HouseObjects,2,stim/objects/HouseObjects/glass2.png,0.9,2,0.2,0.15,right,71,2021-04-14_15h07.32.293,premup-three_ses-01_part-01_label-phase1,3.2.4,Win32,60,right,0.512999773,4,0,4,0,1,3,1,0,240,171,1,239,,,,,,,,,,,,,,,,,,
,,1,132,,,,,,,3,1,4,stim/14.jpeg,HouseObjects,2,stim/objects/HouseObjects/glass2.png,0.9,4,0.2,-0.15,right,71,2021-04-14_15h07.32.293,premup-three_ses-01_part-01_label-phase1,3.2.4,Win32,60,right,0.427999973,4,0,4,0,1,3,1,0,240,191,1,239,,,,,,,,,,,,,,,,,,
,,1,133,,,,,,,2,5,3,stim/53.jpeg,HouseObjects,2,stim/objects/HouseObjects/handbrush.png,0.7,3,-0.2,-0.15,right,71,2021-04-14_15h07.32.293,premup-three_ses-01_part-01_label-phase1,3.2.4,Win32,60,right,0.751999855,4,0,4,0,1,3,1,0,240,118,1,239,,,,,,,,,,,,,,,,,,
,,0,134,,,,,,,1,4,4,stim/44.jpeg,Instruments,1,stim/objects/Instruments/grandpiano.png,0.5,3,-0.2,-0.15,left,71,2021-04-14_15h07.32.293,premup-three_ses-01_part-01_label-phase1,3.2.4,Win32,60,right,0.575999737,4,0,4,0,1,3,1,0,240,43,1,239,,,,,,,,,,,,,,,,,,
,,0,135,,,,,,,1,3,2,stim/32.jpeg,Instruments,1,stim/objects/Instruments/electricdrumset.png,0.5,4,0.2,-0.15,left,71,2021-04-14_15h07.32.293,premup-three_ses-01_part-01_label-phase1,3.2.4,Win32,60,right,0.977999926,4,0,4,0,1,3,1,0,240,1,1,239,,,,,,,,,,,,,,,,,,
,,1,136,,,,,,,3,1,3,stim/13.jpeg,HouseObjects,2,stim/objects/HouseObjects/garbagebin2.png,0.9,3,-0.2,-0.15,right,71,2021-04-14_15h07.32.293,premup-three_ses-01_part-01_label-phase1,3.2.4,Win32,60,right,0.559000015,4,0,4,0,1,3,1,0,240,198,1,239,,,,,,,,,,,,,,,,,,
,,0,137,,,,,,,2,6,4,stim/64.jpeg,HouseObjects,2,stim/objects/HouseObjects/doormat2.png,0.3,1,-0.2,0.15,right,71,2021-04-14_15h07.32.293,premup-three_ses-01_part-01_label-phase1,3.2.4,Win32,60,left,0.65199995,4,0,4,0,1,3,1,0,240,155,1,239,,,,,,,,,,,,,,,,,,
,,1,138,,,,,,,1,4,4,stim/44.jpeg,HouseObjects,2,stim/objects/HouseObjects/glass.png,0.5,3,-0.2,-0.15,right,71,2021-04-14_15h07.32.293,premup-three_ses-01_part-01_label-phase1,3.2.4,Win32,60,right,0.628999949,4,0,4,0,1,3,1,0,240,71,1,239,,,,,,,,,,,,,,,,,,
,,1,139,,,,,,,2,6,1,stim/61.jpeg,Instruments,1,stim/objects/Instruments/drums2.png,0.7,1,-0.2,0.15,left,71,2021-04-14_15h07.32.293,premup-three_ses-01_part-01_label-phase1,3.2.4,Win32,60,left,1.112999916,4,0,4,0,1,3,1,0,240,128,1,239,,,,,,,,,,,,,,,,,,
,,0,140,,,,,,,3,2,2,stim/22.jpeg,Instruments,1,stim/objects/Instruments/harmonica2.png,0.9,4,0.2,-0.15,left,71,2021-04-14_15h07.32.293,premup-three_ses-01_part-01_label-phase1,3.2.4,Win32,60,right,1.085999966,4,0,4,0,1,3,1,0,240,225,1,239,,,,,,,,,,,,,,,,,,
,,1,141,,,,,,,2,5,2,stim/52.jpeg,HouseObjects,2,stim/objects/HouseObjects/hairdryer.png,0.7,2,0.2,0.15,right,71,2021-04-14_15h07.32.293,premup-three_ses-01_part-01_label-phase1,3.2.4,Win32,60,right,0.809999943,4,0,4,0,1,3,1,0,240,101,1,239,,,,,,,,,,,,,,,,,,
,,1,142,,,,,,,2,6,4,stim/64.jpeg,Instruments,1,stim/objects/Instruments/flute2.png,0.7,4,0.2,-0.15,left,71,2021-04-14_15h07.32.293,premup-three_ses-01_part-01_label-phase1,3.2.4,Win32,60,left,0.794999838,4,0,4,0,1,3,1,0,240,127,1,239,,,,,,,,,,,,,,,,,,
,,1,143,,,,,,,3,1,1,stim/11.jpeg,HouseObjects,2,stim/objects/HouseObjects/dustpan2.png,0.9,1,-0.2,0.15,right,71,2021-04-14_15h07.32.293,premup-three_ses-01_part-01_label-phase1,3.2.4,Win32,60,right,0.722000122,4,0,4,0,1,3,1,0,240,184,1,239,,,,,,,,,,,,,,,,,,
,,1,144,,,,,,,2,6,3,stim/63.jpeg,Instruments,1,stim/objects/Instruments/electricguitar2.png,0.7,3,-0.2,-0.15,left,71,2021-04-14_15h07.32.293,premup-three_ses-01_part-01_label-phase1,3.2.4,Win32,60,left,0.663999796,4,0,4,0,1,3,1,0,240,142,1,239,,,,,,,,,,,,,,,,,,
,,0,145,,,,,,,3,2,4,stim/24.jpeg,HouseObjects,2,stim/objects/HouseObjects/handvacuum2.png,0.1,3,-0.2,-0.15,right,71,2021-04-14_15h07.32.293,premup-three_ses-01_part-01_label-phase1,3.2.4,Win32,60,left,0.842000008,4,0,4,0,1,3,1,0,240,239,1,239,,,,,,,,,,,,,,,,,,
,,1,146,,,,,,,3,2,2,stim/22.jpeg,Instruments,1,stim/objects/Instruments/harmonica2.png,0.9,4,0.2,-0.15,left,71,2021-04-14_15h07.32.293,premup-three_ses-01_part-01_label-phase1,3.2.4,Win32,60,left,1.312000036,4,0,4,0,1,3,1,0,240,209,1,239,,,,,,,,,,,,,,,,,,
,,0,147,,,,,,,2,5,2,stim/52.jpeg,Instruments,1,stim/objects/Instruments/harmonica.png,0.3,2,0.2,0.15,left,71,2021-04-14_15h07.32.293,premup-three_ses-01_part-01_label-phase1,3.2.4,Win32,60,right,0.714999914,4,0,4,0,1,3,1,0,240,85,1,239,,,,,,,,,,,,,,,,,,
,,0,148,,,,,,,1,3,2,stim/32.jpeg,HouseObjects,2,stim/objects/HouseObjects/cushion.png,0.5,1,-0.2,0.15,right,71,2021-04-14_15h07.32.293,premup-three_ses-01_part-01_label-phase1,3.2.4,Win32,60,left,1.592999935,4,0,4,0,1,3,1,0,240,21,1,239,,,,,,,,,,,,,,,,,,
,,1,149,,,,,,,1,3,1,stim/31.jpeg,HouseObjects,2,stim/objects/HouseObjects/coffee.png,0.5,1,-0.2,0.15,right,71,2021-04-14_15h07.32.293,premup-three_ses-01_part-01_label-phase1,3.2.4,Win32,60,right,1.234999895,4,0,4,0,1,3,1,0,240,32,1,239,,,,,,,,,,,,,,,,,,
,,1,150,,,,,,,3,2,3,stim/23.jpeg,Instruments,1,stim/objects/Instruments/harp2.png,0.9,2,0.2,0.15,left,71,2021-04-14_15h07.32.293,premup-three_ses-01_part-01_label-phase1,3.2.4,Win32,60,left,0.855000019,4,0,4,0,1,3,1,0,240,218,1,239,,,,,,,,,,,,,,,,,,
,,0,151,,,,,,,1,3,4,stim/34.jpeg,Instruments,1,stim/objects/Instruments/flute.png,0.5,3,-0.2,-0.15,left,71,2021-04-14_15h07.32.293,premup-three_ses-01_part-01_label-phase1,3.2.4,Win32,60,right,0.841999769,4,0,4,0,1,3,1,0,240,15,1,239,,,,,,,,,,,,,,,,,,
,,1,152,,,,,,,3,1,2,stim/12.jpeg,HouseObjects,2,stim/objects/HouseObjects/flyswatter2.png,0.9,4,0.2,-0.15,right,71,2021-04-14_15h07.32.293,premup-three_ses-01_part-01_label-phase1,3.2.4,Win32,60,right,0.749000072,4,0,4,0,1,3,1,0,240,181,1,239,,,,,,,,,,,,,,,,,,
,,1,153,,,,,,,2,6,1,stim/61.jpeg,Instruments,1,stim/objects/Instruments/drums2.png,0.7,3,-0.2,-0.15,left,71,2021-04-14_15h07.32.293,premup-three_ses-01_part-01_label-phase1,3.2.4,Win32,60,left,0.796999931,4,0,4,0,1,3,1,0,240,132,1,239,,,,,,,,,,,,,,,,,,
,,0,154,,,,,,,2,6,1,stim/61.jpeg,HouseObjects,2,stim/objects/HouseObjects/coffee2.png,0.3,2,0.2,0.15,right,71,2021-04-14_15h07.32.293,premup-three_ses-01_part-01_label-phase1,3.2.4,Win32,60,left,0.743000031,4,0,4,0,1,3,1,0,240,152,1,239,,,,,,,,,,,,,,,,,,
,,0,155,,,,,,,3,2,3,stim/23.jpeg,Instruments,1,stim/objects/Instruments/harp2.png,0.9,1,-0.2,0.15,left,71,2021-04-14_15h07.32.293,premup-three_ses-01_part-01_label-phase1,3.2.4,Win32,60,right,1.298000097,4,0,4,0,1,3,1,0,240,214,1,239,,,,,,,,,,,,,,,,,,
,,0,156,,,,,,,1,3,1,stim/31.jpeg,Instruments,1,stim/objects/Instruments/drums.png,0.5,2,0.2,0.15,left,71,2021-04-14_15h07.32.293,premup-three_ses-01_part-01_label-phase1,3.2.4,Win32,60,right,1.712999821,4,0,4,0,1,3,1,0,240,0,1,239,,,,,,,,,,,,,,,,,,
,,1,157,,,,,,,3,2,3,stim/23.jpeg,Instruments,1,stim/objects/Instruments/harp2.png,0.9,4,0.2,-0.15,left,71,2021-04-14_15h07.32.293,premup-three_ses-01_part-01_label-phase1,3.2.4,Win32,60,left,1.142999887,4,0,4,0,1,3,1,0,240,230,1,239,,,,,,,,,,,,,,,,,,
,,1,158,,,,,,,2,5,2,stim/52.jpeg,HouseObjects,2,stim/objects/HouseObjects/hairdryer.png,0.7,2,0.2,0.15,right,71,2021-04-14_15h07.32.293,premup-three_ses-01_part-01_label-phase1,3.2.4,Win32,60,right,1.194999933,4,0,4,0,1,3,1,0,240,105,1,239,,,,,,,,,,,,,,,,,,
,,0,159,,,,,,,3,2,1,stim/21.jpeg,HouseObjects,2,stim/objects/HouseObjects/glassmop2.png,0.1,3,-0.2,-0.15,right,71,2021-04-14_15h07.32.293,premup-three_ses-01_part-01_label-phase1,3.2.4,Win32,60,left,1.027999878,4,0,4,0,1,3,1,0,240,236,1,239,,,,,,,,,,,,,,,,,,
,,0,160,,,,,,,1,4,1,stim/41.jpeg,Instruments,1,stim/objects/Instruments/flutetrans.png,0.5,2,0.2,0.15,left,71,2021-04-14_15h07.32.293,premup-three_ses-01_part-01_label-phase1,3.2.4,Win32,60,right,1.164000034,4,0,4,0,1,3,1,0,240,40,1,239,,,,,,,,,,,,,,,,,,
,,1,161,,,,,,,3,2,3,stim/23.jpeg,Instruments,1,stim/objects/Instruments/harp2.png,0.9,1,-0.2,0.15,left,71,2021-04-14_15h07.32.293,premup-three_ses-01_part-01_label-phase1,3.2.4,Win32,60,left,1.805000067,4,0,4,0,1,3,1,0,240,234,1,239,,,,,,,,,,,,,,,,,,
,,0,162,,,,,,,3,2,2,stim/22.jpeg,Instruments,1,stim/objects/Instruments/harmonica2.png,0.9,4,0.2,-0.15,left,71,2021-04-14_15h07.32.293,premup-three_ses-01_part-01_label-phase1,3.2.4,Win32,60,right,1.379999876,4,0,4,0,1,3,1,0,240,233,1,239,,,,,,,,,,,,,,,,,,
,,1,163,,,,,,,2,5,3,stim/53.jpeg,HouseObjects,2,stim/objects/HouseObjects/handbrush.png,0.7,3,-0.2,-0.15,right,71,2021-04-14_15h07.32.293,premup-three_ses-01_part-01_label-phase1,3.2.4,Win32,60,right,1.246999979,4,0,4,0,1,3,1,0,240,94,1,239,,,,,,,,,,,,,,,,,,
,,0,164,,,,,,,1,3,3,stim/33.jpeg,Instruments,1,stim/objects/Instruments/electricguitar.png,0.5,1,-0.2,0.15,left,71,2021-04-14_15h07.32.293,premup-three_ses-01_part-01_label-phase1,3.2.4,Win32,60,right,1.246999979,4,0,4,0,1,3,1,0,240,18,1,239,,,,,,,,,,,,,,,,,,
,,0,165,,,,,,,1,3,4,stim/34.jpeg,Instruments,1,stim/objects/Instruments/flute.png,0.5,2,0.2,0.15,left,71,2021-04-14_15h07.32.293,premup-three_ses-01_part-01_label-phase1,3.2.4,Win32,60,right,1.299999714,4,0,4,0,1,3,1,0,240,11,1,239,,,,,,,,,,,,,,,,,,
,,0,166,,,,,,,1,4,2,stim/42.jpeg,HouseObjects,2,stim/objects/HouseObjects/flyswatter.png,0.5,2,0.2,0.15,right,71,2021-04-14_15h07.32.293,premup-three_ses-01_part-01_label-phase1,3.2.4,Win32,60,left,0.890999794,4,0,4,0,1,3,1,0,240,77,1,239,,,,,,,,,,,,,,,,,,
,,1,167,,,,,,,1,3,4,stim/34.jpeg,HouseObjects,2,stim/objects/HouseObjects/doormat.png,0.5,1,-0.2,0.15,right,71,2021-04-14_15h07.32.293,premup-three_ses-01_part-01_label-phase1,3.2.4,Win32,60,right,1.532999754,4,0,4,0,1,3,1,0,240,31,1,239,,,,,,,,,,,,,,,,,,
,,1,168,,,,,,,2,5,1,stim/51.jpeg,HouseObjects,2,stim/objects/HouseObjects/glassmop.png,0.7,1,-0.2,0.15,right,71,2021-04-14_15h07.32.293,premup-three_ses-01_part-01_label-phase1,3.2.4,Win32,60,right,0.768999815,4,0,4,0,1,3,1,0,240,104,1,239,,,,,,,,,,,,,,,,,,
,,1,169,,,,,,,2,6,4,stim/64.jpeg,Instruments,1,stim/objects/Instruments/flute2.png,0.7,4,0.2,-0.15,left,71,2021-04-14_15h07.32.293,premup-three_ses-01_part-01_label-phase1,3.2.4,Win32,60,left,0.714999914,4,0,4,0,1,3,1,0,240,143,1,239,,,,,,,,,,,,,,,,,,
,,0,170,,,,,,,3,1,2,stim/12.jpeg,Instruments,1,stim/objects/Instruments/frenchhorn2.png,0.1,3,-0.2,-0.15,left,71,2021-04-14_15h07.32.293,premup-three_ses-01_part-01_label-phase1,3.2.4,Win32,60,right,0.634000063,4,0,4,0,1,3,1,0,240,161,1,239,,,,,,,,,,,,,,,,,,
,,0,171,,,,,,,2,6,1,stim/61.jpeg,HouseObjects,2,stim/objects/HouseObjects/coffee2.png,0.3,3,-0.2,-0.15,right,71,2021-04-14_15h07.32.293,premup-three_ses-01_part-01_label-phase1,3.2.4,Win32,60,left,0.713999987,4,0,4,0,1,3,1,0,240,148,1,239,,,,,,,,,,,,,,,,,,
,,1,172,,,,,,,1,4,1,stim/41.jpeg,Instruments,1,stim/objects/Instruments/flutetrans.png,0.5,4,0.2,-0.15,left,71,2021-04-14_15h07.32.293,premup-three_ses-01_part-01_label-phase1,3.2.4,Win32,60,left,0.946999788,4,0,4,0,1,3,1,0,240,48,1,239,,,,,,,,,,,,,,,,,,
,,1,173,,,,,,,2,6,3,stim/63.jpeg,Instruments,1,stim/objects/Instruments/electricguitar2.png,0.7,2,0.2,0.15,left,71,2021-04-14_15h07.32.293,premup-three_ses-01_part-01_label-phase1,3.2.4,Win32,60,left,0.888999939,4,0,4,0,1,3,1,0,240,138,1,239,,,,,,,,,,,,,,,,,,
,,1,174,,,,,,,2,5,3,stim/53.jpeg,HouseObjects,2,stim/objects/HouseObjects/handbrush.png,0.7,3,-0.2,-0.15,right,71,2021-04-14_15h07.32.293,premup-three_ses-01_part-01_label-phase1,3.2.4,Win32,60,right,0.629999876,4,0,4,0,1,3,1,0,240,106,1,239,,,,,,,,,,,,,,,,,,
,,1,175,,,,,,,3,1,4,stim/14.jpeg,HouseObjects,2,stim/objects/HouseObjects/glass2.png,0.9,3,-0.2,-0.15,right,71,2021-04-14_15h07.32.293,premup-three_ses-01_part-01_label-phase1,3.2.4,Win32,60,right,1.284999847,4,0,4,0,1,3,1,0,240,179,1,239,,,,,,,,,,,,,,,,,,
,,1,176,,,,,,,3,2,2,stim/22.jpeg,Instruments,1,stim/objects/Instruments/harmonica2.png,0.9,2,0.2,0.15,left,71,2021-04-14_15h07.32.293,premup-three_ses-01_part-01_label-phase1,3.2.4,Win32,60,left,1.022999763,4,0,4,0,1,3,1,0,240,221,1,239,,,,,,,,,,,,,,,,,,
,,1,177,,,,,,,3,1,3,stim/13.jpeg,HouseObjects,2,stim/objects/HouseObjects/garbagebin2.png,0.9,1,-0.2,0.15,right,71,2021-04-14_15h07.32.293,premup-three_ses-01_part-01_label-phase1,3.2.4,Win32,60,right,0.749000072,4,0,4,0,1,3,1,0,240,182,1,239,,,,,,,,,,,,,,,,,,
,,1,178,,,,,,,1,4,4,stim/44.jpeg,HouseObjects,2,stim/objects/HouseObjects/glass.png,0.5,3,-0.2,-0.15,right,71,2021-04-14_15h07.32.293,premup-three_ses-01_part-01_label-phase1,3.2.4,Win32,60,right,0.779999971,4,0,4,0,1,3,1,0,240,75,1,239,,,,,,,,,,,,,,,,,,
,,1,179,,,,,,,3,1,2,stim/12.jpeg,HouseObjects,2,stim/objects/HouseObjects/flyswatter2.png,0.9,2,0.2,0.15,right,71,2021-04-14_15h07.32.293,premup-three_ses-01_part-01_label-phase1,3.2.4,Win32,60,right,0.700999975,4,0,4,0,1,3,1,0,240,185,1,239,,,,,,,,,,,,,,,,,,
,,1,180,,,,,,,1,4,1,stim/41.jpeg,Instruments,1,stim/objects/Instruments/flutetrans.png,0.5,1,-0.2,0.15,left,71,2021-04-14_15h07.32.293,premup-three_ses-01_part-01_label-phase1,3.2.4,Win32,60,left,0.598999739,4,0,4,0,1,3,1,0,240,44,1,239,,,,,,,,,,,,,,,,,,
,,1,181,,,,,,,3,1,2,stim/12.jpeg,HouseObjects,2,stim/objects/HouseObjects/flyswatter2.png,0.9,3,-0.2,-0.15,right,71,2021-04-14_15h07.32.293,premup-three_ses-01_part-01_label-phase1,3.2.4,Win32,60,right,0.760999918,4,0,4,0,1,3,1,0,240,193,1,239,,,,,,,,,,,,,,,,,,
,,0,182,,,,,,,2,5,1,stim/51.jpeg,HouseObjects,2,stim/objects/HouseObjects/glassmop.png,0.7,4,0.2,-0.15,right,71,2021-04-14_15h07.32.293,premup-three_ses-01_part-01_label-phase1,3.2.4,Win32,60,left,0.662999868,4,0,4,0,1,3,1,0,240,112,1,239,,,,,,,,,,,,,,,,,,
,,0,183,,,,,,,1,4,4,stim/44.jpeg,Instruments,1,stim/objects/Instruments/grandpiano.png,0.5,2,0.2,0.15,left,71,2021-04-14_15h07.32.293,premup-three_ses-01_part-01_label-phase1,3.2.4,Win32,60,right,0.426999807,4,0,4,0,1,3,1,0,240,47,1,239,,,,,,,,,,,,,,,,,,
,,1,184,,,,,,,3,1,1,stim/11.jpeg,HouseObjects,2,stim/objects/HouseObjects/dustpan2.png,0.9,4,0.2,-0.15,right,71,2021-04-14_15h07.32.293,premup-three_ses-01_part-01_label-phase1,3.2.4,Win32,60,right,1.142999887,4,0,4,0,1,3,1,0,240,176,1,239,,,,,,,,,,,,,,,,,,
,,1,185,,,,,,,3,2,4,stim/24.jpeg,Instruments,1,stim/objects/Instruments/hihat2.png,0.9,1,-0.2,0.15,left,71,2021-04-14_15h07.32.293,premup-three_ses-01_part-01_label-phase1,3.2.4,Win32,60,left,0.900999784,4,0,4,0,1,3,1,0,240,223,1,239,,,,,,,,,,,,,,,,,,
,,0,186,,,,,,,2,5,4,stim/54.jpeg,Instruments,1,stim/objects/Instruments/hihat.png,0.3,2,0.2,0.15,left,71,2021-04-14_15h07.32.293,premup-three_ses-01_part-01_label-phase1,3.2.4,Win32,60,right,0.845999956,4,0,4,0,1,3,1,0,240,87,1,239,,,,,,,,,,,,,,,,,,
,,0,187,,,,,,,1,4,4,stim/44.jpeg,Instruments,1,stim/objects/Instruments/grandpiano.png,0.5,2,0.2,0.15,left,71,2021-04-14_15h07.32.293,premup-three_ses-01_part-01_label-phase1,3.2.4,Win32,60,right,0.980999947,4,0,4,0,1,3,1,0,240,55,1,239,,,,,,,,,,,,,,,,,,
,,0,188,,,,,,,2,6,3,stim/63.jpeg,HouseObjects,2,stim/objects/HouseObjects/dishsoap2.png,0.3,4,0.2,-0.15,right,71,2021-04-14_15h07.32.293,premup-three_ses-01_part-01_label-phase1,3.2.4,Win32,60,left,0.537999868,4,0,4,0,1,3,1,0,240,158,1,239,,,,,,,,,,,,,,,,,,
,,1,189,,,,,,,3,2,3,stim/23.jpeg,HouseObjects,2,stim/objects/HouseObjects/handbrush2.png,0.1,4,0.2,-0.15,right,71,2021-04-14_15h07.32.293,premup-three_ses-01_part-01_label-phase1,3.2.4,Win32,60,right,0.580999851,4,0,4,0,1,3,1,0,240,238,1,239,,,,,,,,,,,,,,,,,,
,,1,190,,,,,,,1,4,2,stim/42.jpeg,Instruments,1,stim/objects/Instruments/frenchhorn.png,0.5,2,0.2,0.15,left,71,2021-04-14_15h07.32.293,premup-three_ses-01_part-01_label-phase1,3.2.4,Win32,60,left,0.552999973,4,0,4,0,1,3,1,0,240,41,1,239,,,,,,,,,,,,,,,,,,
,,1,191,,,,,,,3,1,1,stim/11.jpeg,HouseObjects,2,stim/objects/HouseObjects/dustpan2.png,0.9,4,0.2,-0.15,right,71,2021-04-14_15h07.32.293,premup-three_ses-01_part-01_label-phase1,3.2.4,Win32,60,right,0.611000061,4,0,4,0,1,3,1,0,240,188,1,239,,,,,,,,,,,,,,,,,,
,,1,192,,,,,,,1,3,1,stim/31.jpeg,Instruments,1,stim/objects/Instruments/drums.png,0.5,1,-0.2,0.15,left,71,2021-04-14_15h07.32.293,premup-three_ses-01_part-01_label-phase1,3.2.4,Win32,60,left,1.191999912,4,0,4,0,1,3,1,0,240,4,1,239,,,,,,,,,,,,,,,,,,
,,0,193,,,,,,,1,3,1,stim/31.jpeg,Instruments,1,stim/objects/Instruments/drums.png,0.5,2,0.2,0.15,left,71,2021-04-14_15h07.32.293,premup-three_ses-01_part-01_label-phase1,3.2.4,Win32,60,right,0.807999849,4,0,4,0,1,3,1,0,240,12,1,239,,,,,,,,,,,,,,,,,,
,,1,194,,,,,,,3,1,4,stim/14.jpeg,HouseObjects,2,stim/objects/HouseObjects/glass2.png,0.9,4,0.2,-0.15,right,71,2021-04-14_15h07.32.293,premup-three_ses-01_part-01_label-phase1,3.2.4,Win32,60,right,0.665999889,4,0,4,0,1,3,1,0,240,187,1,239,,,,,,,,,,,,,,,,,,
,,0,195,,,,,,,1,4,1,stim/41.jpeg,HouseObjects,2,stim/objects/HouseObjects/dustpan.png,0.5,4,0.2,-0.15,right,71,2021-04-14_15h07.32.293,premup-three_ses-01_part-01_label-phase1,3.2.4,Win32,60,left,1.288999796,4,0,4,0,1,3,1,0,240,68,1,239,,,,,,,,,,,,,,,,,,
,,1,196,,,,,,,2,5,1,stim/51.jpeg,HouseObjects,2,stim/objects/HouseObjects/glassmop.png,0.7,4,0.2,-0.15,right,71,2021-04-14_15h07.32.293,premup-three_ses-01_part-01_label-phase1,3.2.4,Win32,60,right,1.042999983,4,0,4,0,1,3,1,0,240,100,1,239,,,,,,,,,,,,,,,,,,
,,1,197,,,,,,,1,4,3,stim/43.jpeg,HouseObjects,2,stim/objects/HouseObjects/garbagebin.png,0.5,1,-0.2,0.15,right,71,2021-04-14_15h07.32.293,premup-three_ses-01_part-01_label-phase1,3.2.4,Win32,60,right,0.606999874,4,0,4,0,1,3,1,0,240,70,1,239,,,,,,,,,,,,,,,,,,
,,1,198,,,,,,,2,6,2,stim/62.jpeg,Instruments,1,stim/objects/Instruments/electricdrumset2.png,0.7,4,0.2,-0.15,left,71,2021-04-14_15h07.32.293,premup-three_ses-01_part-01_label-phase1,3.2.4,Win32,60,left,0.5849998,4,0,4,0,1,3,1,0,240,145,1,239,,,,,,,,,,,,,,,,,,
,,1,199,,,,,,,2,6,3,stim/63.jpeg,Instruments,1,stim/objects/Instruments/electricguitar2.png,0.7,1,-0.2,0.15,left,71,2021-04-14_15h07.32.293,premup-three_ses-01_part-01_label-phase1,3.2.4,Win32,60,left,0.722999811,4,0,4,0,1,3,1,0,240,126,1,239,,,,,,,,,,,,,,,,,,
,,1,200,,,,,,,3,2,1,stim/21.jpeg,Instruments,1,stim/objects/Instruments/guitarcase2.png,0.9,2,0.2,0.15,left,71,2021-04-14_15h07.32.293,premup-three_ses-01_part-01_label-phase1,3.2.4,Win32,60,left,0.999999762,4,0,4,0,1,3,1,0,240,224,1,239,,,,,,,,,,,,,,,,,,
,,0,201,,,,,,,3,1,4,stim/14.jpeg,Instruments,1,stim/objects/Instruments/grandpiano2.png,0.1,2,0.2,0.15,left,71,2021-04-14_15h07.32.293,premup-three_ses-01_part-01_label-phase1,3.2.4,Win32,60,right,0.676000118,4,0,4,0,1,3,1,0,240,163,1,239,,,,,,,,,,,,,,,,,,
,,1,202,,,,,,,1,3,3,stim/33.jpeg,Instruments,1,stim/objects/Instruments/electricguitar.png,0.5,1,-0.2,0.15,left,71,2021-04-14_15h07.32.293,premup-three_ses-01_part-01_label-phase1,3.2.4,Win32,60,left,1.512999773,4,0,4,0,1,3,1,0,240,10,1,239,,,,,,,,,,,,,,,,,,
,,0,203,,,,,,,1,4,3,stim/43.jpeg,HouseObjects,2,stim/objects/HouseObjects/garbagebin.png,0.5,3,-0.2,-0.15,right,71,2021-04-14_15h07.32.293,premup-three_ses-01_part-01_label-phase1,3.2.4,Win32,60,left,1.404999971,4,0,4,0,1,3,1,0,240,66,1,239,,,,,,,,,,,,,,,,,,
,,0,204,,,,,,,1,3,1,stim/31.jpeg,HouseObjects,2,stim/objects/HouseObjects/coffee.png,0.5,3,-0.2,-0.15,right,71,2021-04-14_15h07.32.293,premup-three_ses-01_part-01_label-phase1,3.2.4,Win32,60,left,0.975000143,4,0,4,0,1,3,1,0,240,36,1,239,,,,,,,,,,,,,,,,,,
,,0,205,,,,,,,1,4,2,stim/42.jpeg,HouseObjects,2,stim/objects/HouseObjects/flyswatter.png,0.5,2,0.2,0.15,right,71,2021-04-14_15h07.32.293,premup-three_ses-01_part-01_label-phase1,3.2.4,Win32,60,,,4,0,4,0,1,3,1,0,240,73,1,239,,,,,,,,,,,,,,,,,,
,,1,206,,,,,,,3,1,4,stim/14.jpeg,HouseObjects,2,stim/objects/HouseObjects/glass2.png,0.9,3,-0.2,-0.15,right,71,2021-04-14_15h07.32.293,premup-three_ses-01_part-01_label-phase1,3.2.4,Win32,60,right,0.56099987,4,0,4,0,1,3,1,0,240,167,1,239,,,,,,,,,,,,,,,,,,
,,1,207,,,,,,,2,6,4,stim/64.jpeg,Instruments,1,stim/objects/Instruments/flute2.png,0.7,1,-0.2,0.15,left,71,2021-04-14_15h07.32.293,premup-three_ses-01_part-01_label-phase1,3.2.4,Win32,60,left,0.414999962,4,0,4,0,1,3,1,0,240,139,1,239,,,,,,,,,,,,,,,,,,
,,0,208,,,,,,,2,5,4,stim/54.jpeg,Instruments,1,stim/objects/Instruments/hihat.png,0.3,2,0.2,0.15,left,71,2021-04-14_15h07.32.293,premup-three_ses-01_part-01_label-phase1,3.2.4,Win32,60,right,0.52699995,4,0,4,0,1,3,1,0,240,91,1,239,,,,,,,,,,,,,,,,,,
,,1,209,,,,,,,3,2,1,stim/21.jpeg,Instruments,1,stim/objects/Instruments/guitarcase2.png,0.9,2,0.2,0.15,left,71,2021-04-14_15h07.32.293,premup-three_ses-01_part-01_label-phase1,3.2.4,Win32,60,left,0.779000044,4,0,4,0,1,3,1,0,240,232,1,239,,,,,,,,,,,,,,,,,,
,,0,210,,,,,,,2,5,2,stim/52.jpeg,Instruments,1,stim/objects/Instruments/harmonica.png,0.3,1,-0.2,0.15,left,71,2021-04-14_15h07.32.293,premup-three_ses-01_part-01_label-phase1,3.2.4,Win32,60,right,0.541999817,4,0,4,0,1,3,1,0,240,81,1,239,,,,,,,,,,,,,,,,,,
,,1,211,,,,,,,1,4,1,stim/41.jpeg,HouseObjects,2,stim/objects/HouseObjects/dustpan.png,0.5,1,-0.2,0.15,right,71,2021-04-14_15h07.32.293,premup-three_ses-01_part-01_label-phase1,3.2.4,Win32,60,right,0.763000011,4,0,4,0,1,3,1,0,240,60,1,239,,,,,,,,,,,,,,,,,,
,,0,212,,,,,,,1,3,4,stim/34.jpeg,Instruments,1,stim/objects/Instruments/flute.png,0.5,1,-0.2,0.15,left,71,2021-04-14_15h07.32.293,premup-three_ses-01_part-01_label-phase1,3.2.4,Win32,60,right,1.167999983,4,0,4,0,1,3,1,0,240,19,1,239,,,,,,,,,,,,,,,,,,
,,1,213,,,,,,,2,5,4,stim/54.jpeg,HouseObjects,2,stim/objects/HouseObjects/handvacuum.png,0.7,3,-0.2,-0.15,right,71,2021-04-14_15h07.32.293,premup-three_ses-01_part-01_label-phase1,3.2.4,Win32,60,right,0.677000046,4,0,4,0,1,3,1,0,240,95,1,239,,,,,,,,,,,,,,,,,,
,,1,214,,,,,,,2,5,1,stim/51.jpeg,HouseObjects,2,stim/objects/HouseObjects/glassmop.png,0.7,4,0.2,-0.15,right,71,2021-04-14_15h07.32.293,premup-three_ses-01_part-01_label-phase1,3.2.4,Win32,60,right,0.944999933,4,0,4,0,1,3,1,0,240,92,1,239,,,,,,,,,,,,,,,,,,
,,1,215,,,,,,,3,2,1,stim/21.jpeg,Instruments,1,stim/objects/Instruments/guitarcase2.png,0.9,1,-0.2,0.15,left,71,2021-04-14_15h07.32.293,premup-three_ses-01_part-01_label-phase1,3.2.4,Win32,60,left,0.616999865,4,0,4,0,1,3,1,0,240,220,1,239,,,,,,,,,,,,,,,,,,
,,1,216,,,,,,,2,6,1,stim/61.jpeg,Instruments,1,stim/objects/Instruments/drums2.png,0.7,4,0.2,-0.15,left,71,2021-04-14_15h07.32.293,premup-three_ses-01_part-01_label-phase1,3.2.4,Win32,60,left,0.632999897,4,0,4,0,1,3,1,0,240,144,1,239,,,,,,,,,,,,,,,,,,
,,1,217,,,,,,,3,2,2,stim/22.jpeg,Instruments,1,stim/objects/Instruments/harmonica2.png,0.9,3,-0.2,-0.15,left,71,2021-04-14_15h07.32.293,premup-three_ses-01_part-01_label-phase1,3.2.4,Win32,60,left,0.631999969,4,0,4,0,1,3,1,0,240,229,1,239,,,,,,,,,,,,,,,,,,
,,1,218,,,,,,,1,4,2,stim/42.jpeg,Instruments,1,stim/objects/Instruments/frenchhorn.png,0.5,4,0.2,-0.15,left,71,2021-04-14_15h07.32.293,premup-three_ses-01_part-01_label-phase1,3.2.4,Win32,60,left,0.922999859,4,0,4,0,1,3,1,0,240,57,1,239,,,,,,,,,,,,,,,,,,
,,0,219,,,,,,,1,3,4,stim/34.jpeg,Instruments,1,stim/objects/Instruments/flute.png,0.5,2,0.2,0.15,left,71,2021-04-14_15h07.32.293,premup-three_ses-01_part-01_label-phase1,3.2.4,Win32,60,right,0.596999884,4,0,4,0,1,3,1,0,240,3,1,239,,,,,,,,,,,,,,,,,,
,,0,220,,,,,,,1,4,1,stim/41.jpeg,HouseObjects,2,stim/objects/HouseObjects/dustpan.png,0.5,4,0.2,-0.15,right,71,2021-04-14_15h07.32.293,premup-three_ses-01_part-01_label-phase1,3.2.4,Win32,60,left,0.977999926,4,0,4,0,1,3,1,0,240,76,1,239,,,,,,,,,,,,,,,,,,
,,1,221,,,,,,,1,3,3,stim/33.jpeg,Instruments,1,stim/objects/Instruments/electricguitar.png,0.5,4,0.2,-0.15,left,71,2021-04-14_15h07.32.293,premup-three_ses-01_part-01_label-phase1,3.2.4,Win32,60,left,0.789000034,4,0,4,0,1,3,1,0,240,14,1,239,,,,,,,,,,,,,,,,,,
,,1,222,,,,,,,1,4,4,stim/44.jpeg,HouseObjects,2,stim/objects/HouseObjects/glass.png,0.5,1,-0.2,0.15,right,71,2021-04-14_15h07.32.293,premup-three_ses-01_part-01_label-phase1,3.2.4,Win32,60,right,0.572999954,4,0,4,0,1,3,1,0,240,79,1,239,,,,,,,,,,,,,,,,,,
,,0,223,,,,,,,3,1,4,stim/14.jpeg,HouseObjects,2,stim/objects/HouseObjects/glass2.png,0.9,2,0.2,0.15,right,71,2021-04-14_15h07.32.293,premup-three_ses-01_part-01_label-phase1,3.2.4,Win32,60,left,0.632999897,4,0,4,0,1,3,1,0,240,175,1,239,,,,,,,,,,,,,,,,,,
,,0,224,,,,,,,1,4,4,stim/44.jpeg,HouseObjects,2,stim/objects/HouseObjects/glass.png,0.5,2,0.2,0.15,right,71,2021-04-14_15h07.32.293,premup-three_ses-01_part-01_label-phase1,3.2.4,Win32,60,left,1.266000032,4,0,4,0,1,3,1,0,240,67,1,239,,,,,,,,,,,,,,,,,,
,,0,225,,,,,,,2,5,3,stim/53.jpeg,Instruments,1,stim/objects/Instruments/harp.png,0.3,1,-0.2,0.15,left,71,2021-04-14_15h07.32.293,premup-three_ses-01_part-01_label-phase1,3.2.4,Win32,60,right,0.592999935,4,0,4,0,1,3,1,0,240,90,1,239,,,,,,,,,,,,,,,,,,
,,0,226,,,,,,,2,6,3,stim/63.jpeg,HouseObjects,2,stim/objects/HouseObjects/dishsoap2.png,0.3,4,0.2,-0.15,right,71,2021-04-14_15h07.32.293,premup-three_ses-01_part-01_label-phase1,3.2.4,Win32,60,left,0.641000032,4,0,4,0,1,3,1,0,240,150,1,239,,,,,,,,,,,,,,,,,,
,,1,227,,,,,,,3,2,1,stim/21.jpeg,Instruments,1,stim/objects/Instruments/guitarcase2.png,0.9,1,-0.2,0.15,left,71,2021-04-14_15h07.32.293,premup-three_ses-01_part-01_label-phase1,3.2.4,Win32,60,left,0.81099987,4,0,4,0,1,3,1,0,240,208,1,239,,,,,,,,,,,,,,,,,,
,,1,228,,,,,,,3,2,1,stim/21.jpeg,Instruments,1,stim/objects/Instruments/guitarcase2.png,0.9,2,0.2,0.15,left,71,2021-04-14_15h07.32.293,premup-three_ses-01_part-01_label-phase1,3.2.4,Win32,60,left,0.707999945,4,0,4,0,1,3,1,0,240,228,1,239,,,,,,,,,,,,,,,,,,
,,1,229,,,,,,,1,3,4,stim/34.jpeg,HouseObjects,2,stim/objects/HouseObjects/doormat.png,0.5,1,-0.2,0.15,right,71,2021-04-14_15h07.32.293,premup-three_ses-01_part-01_label-phase1,3.2.4,Win32,60,right,0.753999949,4,0,4,0,1,3,1,0,240,27,1,239,,,,,,,,,,,,,,,,,,
,,1,230,,,,,,,2,6,2,stim/62.jpeg,Instruments,1,stim/objects/Instruments/electricdrumset2.png,0.7,2,0.2,0.15,left,71,2021-04-14_15h07.32.293,premup-three_ses-01_part-01_label-phase1,3.2.4,Win32,60,left,0.644999981,4,0,4,0,1,3,1,0,240,137,1,239,,,,,,,,,,,,,,,,,,
,,1,231,,,,,,,3,1,1,stim/11.jpeg,HouseObjects,2,stim/objects/HouseObjects/dustpan2.png,0.9,3,-0.2,-0.15,right,71,2021-04-14_15h07.32.293,premup-three_ses-01_part-01_label-phase1,3.2.4,Win32,60,right,0.80099988,4,0,4,0,1,3,1,0,240,168,1,239,,,,,,,,,,,,,,,,,,
,,0,232,,,,,,,1,3,1,stim/31.jpeg,HouseObjects,2,stim/objects/HouseObjects/coffee.png,0.5,2,0.2,0.15,right,71,2021-04-14_15h07.32.293,premup-three_ses-01_part-01_label-phase1,3.2.4,Win32,60,left,0.569000006,4,0,4,0,1,3,1,0,240,24,1,239,,,,,,,,,,,,,,,,,,
,,0,233,,,,,,,2,5,1,stim/51.jpeg,Instruments,1,stim/objects/Instruments/guitarcase.png,0.3,1,-0.2,0.15,left,71,2021-04-14_15h07.32.293,premup-three_ses-01_part-01_label-phase1,3.2.4,Win32,60,right,0.709000111,4,0,4,0,1,3,1,0,240,84,1,239,,,,,,,,,,,,,,,,,,
,,0,234,,,,,,,1,3,1,stim/31.jpeg,HouseObjects,2,stim/objects/HouseObjects/coffee.png,0.5,1,-0.2,0.15,right,71,2021-04-14_15h07.32.293,premup-three_ses-01_part-01_label-phase1,3.2.4,Win32,60,left,0.870999813,4,0,4,0,1,3,1,0,240,20,1,239,,,,,,,,,,,,,,,,,,
,,1,235,,,,,,,3,2,2,stim/22.jpeg,Instruments,1,stim/objects/Instruments/harmonica2.png,0.9,2,0.2,0.15,left,71,2021-04-14_15h07.32.293,premup-three_ses-01_part-01_label-phase1,3.2.4,Win32,60,left,0.662999868,4,0,4,0,1,3,1,0,240,205,1,239,,,,,,,,,,,,,,,,,,
,,1,236,,,,,,,3,1,1,stim/11.jpeg,HouseObjects,2,stim/objects/HouseObjects/dustpan2.png,0.9,2,0.2,0.15,right,71,2021-04-14_15h07.32.293,premup-three_ses-01_part-01_label-phase1,3.2.4,Win32,60,right,0.661999941,4,0,4,0,1,3,1,0,240,172,1,239,,,,,,,,,,,,,,,,,,
,,1,237,,,,,,,3,1,4,stim/14.jpeg,HouseObjects,2,stim/objects/HouseObjects/glass2.png,0.9,3,-0.2,-0.15,right,71,2021-04-14_15h07.32.293,premup-three_ses-01_part-01_label-phase1,3.2.4,Win32,60,right,0.622999907,4,0,4,0,1,3,1,0,240,195,1,239,,,,,,,,,,,,,,,,,,
,,1,238,,,,,,,3,1,2,stim/12.jpeg,HouseObjects,2,stim/objects/HouseObjects/flyswatter2.png,0.9,1,-0.2,0.15,right,71,2021-04-14_15h07.32.293,premup-three_ses-01_part-01_label-phase1,3.2.4,Win32,60,right,0.659000158,4,0,4,0,1,3,1,0,240,165,1,239,,,,,,,,,,,,,,,,,,
,,1,239,,,,,,,3,1,3,stim/13.jpeg,HouseObjects,2,stim/objects/HouseObjects/garbagebin2.png,0.9,3,-0.2,-0.15,right,71,2021-04-14_15h07.32.293,premup-three_ses-01_part-01_label-phase1,3.2.4,Win32,60,right,0.625,4,0,4,0,1,3,1,0,240,186,1,239,,,,,,,,,,,,,,,,,,
,,1,240,,,,,,,3,2,3,stim/23.jpeg,Instruments,1,stim/objects/Instruments/harp2.png,0.9,4,0.2,-0.15,left,71,2021-04-14_15h07.32.293,premup-three_ses-01_part-01_label-phase1,3.2.4,Win32,60,left,0.853999853,4,0,4,0,1,3,1,0,240,210,1,239,,,,,,,,,,,,,,,,,,
,,,,,,,,,,,3,,stim/31.jpeg,,,,,,,,,71,2021-04-14_15h07.32.293,premup-three_ses-01_part-01_label-phase1,3.2.4,Win32,60,,,4,0,4,0,1,3,,,,,,,1,0,84,6.161000013,,,1,0,6,2,1,5,Music items,65,75,Household items,25,35
,,,,,,,,,,,6,,stim/61.jpeg,,,,,,,,,71,2021-04-14_15h07.32.293,premup-three_ses-01_part-01_label-phase1,3.2.4,Win32,60,,,4,0,4,0,1,3,,,,,,,1,0,90,5.263000011,,,1,0,6,5,1,5,Music items,5,15,Household items,85,95
,,,,,,,,,,,1,,stim/11.jpeg,,,,,,,,,71,2021-04-14_15h07.32.293,premup-three_ses-01_part-01_label-phase1,3.2.4,Win32,60,,,4,0,4,0,1,3,,,,,,,1,0,5,6.10800004,,,1,0,6,0,1,5,Music items,45,55,Household items,45,55
,,,,,,,,,,,4,,stim/41.jpeg,,,,,,,,,71,2021-04-14_15h07.32.293,premup-three_ses-01_part-01_label-phase1,3.2.4,Win32,60,,,4,0,4,0,1,3,,,,,,,1,0,28,3.929000139,,,1,0,6,3,1,5,Music items,65,75,Household items,25,35
,,,,,,,,,,,5,,stim/51.jpeg,,,,,,,,,71,2021-04-14_15h07.32.293,premup-three_ses-01_part-01_label-phase1,3.2.4,Win32,60,,,4,0,4,0,1,3,,,,,,,1,0,22,3.437000036,,,1,0,6,4,1,5,Household items,5,15,Music items,85,95
,,,,,,,,,,,2,,stim/21.jpeg,,,,,,,,,71,2021-04-14_15h07.32.293,premup-three_ses-01_part-01_label-phase1,3.2.4,Win32,60,,,4,0,4,0,1,3,,,,,,,1,0,12,6.230000019,,,1,0,6,1,1,5,Household items,45,55,Music items,45,55
,,,,,,,,,,,,,,,,,,,,,,71,2021-04-14_15h07.32.293,premup-three_ses-01_part-01_label-phase1,3.2.4,Win32,60,,,4,0,4,0,1,3,,,,,,,,,,,,,,,,,,,,,,,,
,,0,1,,,,,,,3,2,2,stim/22.jpeg,Instruments,1,stim/objects/Instruments/harmonica2.png,0.9,4,0.2,-0.15,left,71,2021-04-14_15h07.32.293,premup-three_ses-01_part-01_label-phase1,3.2.4,Win32,60,right,0.924000025,4,0,4,0,1,3,1,0,240,209,1,239,,,,,,,,,,,,,,,,,,
,,1,2,,,,,,,3,1,3,stim/13.jpeg,HouseObjects,2,stim/objects/HouseObjects/garbagebin2.png,0.9,3,-0.2,-0.15,right,71,2021-04-14_15h07.32.293,premup-three_ses-01_part-01_label-phase1,3.2.4,Win32,60,right,0.648000002,4,0,4,0,1,3,1,0,240,170,1,239,,,,,,,,,,,,,,,,,,
,,0,3,,,,,,,2,5,4,stim/54.jpeg,Instruments,1,stim/objects/Instruments/hihat.png,0.3,1,-0.2,0.15,left,71,2021-04-14_15h07.32.293,premup-three_ses-01_part-01_label-phase1,3.2.4,Win32,60,right,0.680999994,4,0,4,0,1,3,1,0,240,83,1,239,,,,,,,,,,,,,,,,,,
,,1,4,,,,,,,3,2,2,stim/22.jpeg,Instruments,1,stim/objects/Instruments/harmonica2.png,0.9,3,-0.2,-0.15,left,71,2021-04-14_15h07.32.293,premup-three_ses-01_part-01_label-phase1,3.2.4,Win32,60,left,0.876999855,4,0,4,0,1,3,1,0,240,217,1,239,,,,,,,,,,,,,,,,,,
,,1,5,,,,,,,1,4,2,stim/42.jpeg,HouseObjects,2,stim/objects/HouseObjects/flyswatter.png,0.5,2,0.2,0.15,right,71,2021-04-14_15h07.32.293,premup-three_ses-01_part-01_label-phase1,3.2.4,Win32,60,right,0.689999819,4,0,4,0,1,3,1,0,240,61,1,239,,,,,,,,,,,,,,,,,,
,,0,6,,,,,,,1,4,1,stim/41.jpeg,Instruments,1,stim/objects/Instruments/flutetrans.png,0.5,4,0.2,-0.15,left,71,2021-04-14_15h07.32.293,premup-three_ses-01_part-01_label-phase1,3.2.4,Win32,60,right,0.805999994,4,0,4,0,1,3,1,0,240,48,1,239,,,,,,,,,,,,,,,,,,
,,1,7,,,,,,,3,1,1,stim/11.jpeg,HouseObjects,2,stim/objects/HouseObjects/dustpan2.png,0.9,4,0.2,-0.15,right,71,2021-04-14_15h07.32.293,premup-three_ses-01_part-01_label-phase1,3.2.4,Win32,60,right,0.740999937,4,0,4,0,1,3,1,0,240,176,1,239,,,,,,,,,,,,,,,,,,
,,1,8,,,,,,,3,1,3,stim/13.jpeg,HouseObjects,2,stim/objects/HouseObjects/garbagebin2.png,0.9,4,0.2,-0.15,right,71,2021-04-14_15h07.32.293,premup-three_ses-01_part-01_label-phase1,3.2.4,Win32,60,right,0.588000059,4,0,4,0,1,3,1,0,240,174,1,239,,,,,,,,,,,,,,,,,,
,,1,9,,,,,,,1,3,1,stim/31.jpeg,Instruments,1,stim/objects/Instruments/drums.png,0.5,1,-0.2,0.15,left,71,2021-04-14_15h07.32.293,premup-three_ses-01_part-01_label-phase1,3.2.4,Win32,60,left,0.622999907,4,0,4,0,1,3,1,0,240,8,1,239,,,,,,,,,,,,,,,,,,
,,0,10,,,,,,,3,2,2,stim/22.jpeg,Instruments,1,stim/objects/Instruments/harmonica2.png,0.9,2,0.2,0.15,left,71,2021-04-14_15h07.32.293,premup-three_ses-01_part-01_label-phase1,3.2.4,Win32,60,right,0.787999868,4,0,4,0,1,3,1,0,240,221,1,239,,,,,,,,,,,,,,,,,,
,,1,11,,,,,,,1,3,3,stim/33.jpeg,Instruments,1,stim/objects/Instruments/electricguitar.png,0.5,4,0.2,-0.15,left,71,2021-04-14_15h07.32.293,premup-three_ses-01_part-01_label-phase1,3.2.4,Win32,60,left,0.829999924,4,0,4,0,1,3,1,0,240,6,1,239,,,,,,,,,,,,,,,,,,
,,0,12,,,,,,,3,2,4,stim/24.jpeg,Instruments,1,stim/objects/Instruments/hihat2.png,0.9,4,0.2,-0.15,left,71,2021-04-14_15h07.32.293,premup-three_ses-01_part-01_label-phase1,3.2.4,Win32,60,right,0.957999706,4,0,4,0,1,3,1,0,240,231,1,239,,,,,,,,,,,,,,,,,,
,,0,13,,,,,,,1,3,1,stim/31.jpeg,HouseObjects,2,stim/objects/HouseObjects/coffee.png,0.5,3,-0.2,-0.15,right,71,2021-04-14_15h07.32.293,premup-three_ses-01_part-01_label-phase1,3.2.4,Win32,60,left,0.717999935,4,0,4,0,1,3,1,0,240,36,1,239,,,,,,,,,,,,,,,,,,
,,1,14,,,,,,,3,2,1,stim/21.jpeg,Instruments,1,stim/objects/Instruments/guitarcase2.png,0.9,2,0.2,0.15,left,71,2021-04-14_15h07.32.293,premup-three_ses-01_part-01_label-phase1,3.2.4,Win32,60,left,0.823999882,4,0,4,0,1,3,1,0,240,228,1,239,,,,,,,,,,,,,,,,,,
,,1,15,,,,,,,3,1,4,stim/14.jpeg,HouseObjects,2,stim/objects/HouseObjects/glass2.png,0.9,3,-0.2,-0.15,right,71,2021-04-14_15h07.32.293,premup-three_ses-01_part-01_label-phase1,3.2.4,Win32,60,right,0.612999916,4,0,4,0,1,3,1,0,240,179,1,239,,,,,,,,,,,,,,,,,,
,,1,16,,,,,,,1,4,4,stim/44.jpeg,Instruments,1,stim/objects/Instruments/grandpiano.png,0.5,2,0.2,0.15,left,71,2021-04-14_15h07.32.293,premup-three_ses-01_part-01_label-phase1,3.2.4,Win32,60,left,0.730999947,4,0,4,0,1,3,1,0,240,55,1,239,,,,,,,,,,,,,,,,,,
,,1,17,,,,,,,1,4,1,stim/41.jpeg,HouseObjects,2,stim/objects/HouseObjects/dustpan.png,0.5,1,-0.2,0.15,right,71,2021-04-14_15h07.32.293,premup-three_ses-01_part-01_label-phase1,3.2.4,Win32,60,right,0.526999712,4,0,4,0,1,3,1,0,240,60,1,239,,,,,,,,,,,,,,,,,,
,,0,18,,,,,,,2,5,1,stim/51.jpeg,Instruments,1,stim/objects/Instruments/guitarcase.png,0.3,3,-0.2,-0.15,left,71,2021-04-14_15h07.32.293,premup-three_ses-01_part-01_label-phase1,3.2.4,Win32,60,right,0.700999737,4,0,4,0,1,3,1,0,240,80,1,239,,,,,,,,,,,,,,,,,,
,,0,19,,,,,,,1,4,1,stim/41.jpeg,Instruments,1,stim/objects/Instruments/flutetrans.png,0.5,2,0.2,0.15,left,71,2021-04-14_15h07.32.293,premup-three_ses-01_part-01_label-phase1,3.2.4,Win32,60,right,0.944999933,4,0,4,0,1,3,1,0,240,56,1,239,,,,,,,,,,,,,,,,,,
,,1,20,,,,,,,2,6,1,stim/61.jpeg,Instruments,1,stim/objects/Instruments/drums2.png,0.7,1,-0.2,0.15,left,71,2021-04-14_15h07.32.293,premup-three_ses-01_part-01_label-phase1,3.2.4,Win32,60,left,0.987999916,4,0,4,0,1,3,1,0,240,120,1,239,,,,,,,,,,,,,,,,,,
,,1,21,,,,,,,1,4,3,stim/43.jpeg,HouseObjects,2,stim/objects/HouseObjects/garbagebin.png,0.5,1,-0.2,0.15,right,71,2021-04-14_15h07.32.293,premup-three_ses-01_part-01_label-phase1,3.2.4,Win32,60,right,1.128999949,4,0,4,0,1,3,1,0,240,78,1,239,,,,,,,,,,,,,,,,,,
,,0,22,,,,,,,1,3,2,stim/32.jpeg,HouseObjects,2,stim/objects/HouseObjects/cushion.png,0.5,1,-0.2,0.15,right,71,2021-04-14_15h07.32.293,premup-three_ses-01_part-01_label-phase1,3.2.4,Win32,60,left,0.552999973,4,0,4,0,1,3,1,0,240,33,1,239,,,,,,,,,,,,,,,,,,
,,1,23,,,,,,,2,5,2,stim/52.jpeg,HouseObjects,2,stim/objects/HouseObjects/hairdryer.png,0.7,2,0.2,0.15,right,71,2021-04-14_15h07.32.293,premup-three_ses-01_part-01_label-phase1,3.2.4,Win32,60,right,0.917000055,4,0,4,0,1,3,1,0,240,105,1,239,,,,,,,,,,,,,,,,,,
,,0,24,,,,,,,2,6,2,stim/62.jpeg,HouseObjects,2,stim/objects/HouseObjects/cushion2.png,0.3,4,0.2,-0.15,right,71,2021-04-14_15h07.32.293,premup-three_ses-01_part-01_label-phase1,3.2.4,Win32,60,left,0.531999826,4,0,4,0,1,3,1,0,240,149,1,239,,,,,,,,,,,,,,,,,,
,,1,25,,,,,,,3,1,2,stim/12.jpeg,HouseObjects,2,stim/objects/HouseObjects/flyswatter2.png,0.9,2,0.2,0.15,right,71,2021-04-14_15h07.32.293,premup-three_ses-01_part-01_label-phase1,3.2.4,Win32,60,right,0.634000063,4,0,4,0,1,3,1,0,240,197,1,239,,,,,,,,,,,,,,,,,,
,,1,26,,,,,,,3,1,4,stim/14.jpeg,HouseObjects,2,stim/objects/HouseObjects/glass2.png,0.9,4,0.2,-0.15,right,71,2021-04-14_15h07.32.293,premup-three_ses-01_part-01_label-phase1,3.2.4,Win32,60,right,0.529999971,4,0,4,0,1,3,1,0,240,187,1,239,,,,,,,,,,,,,,,,,,
,,1,27,,,,,,,3,1,1,stim/11.jpeg,HouseObjects,2,stim/objects/HouseObjects/dustpan2.png,0.9,2,0.2,0.15,right,71,2021-04-14_15h07.32.293,premup-three_ses-01_part-01_label-phase1,3.2.4,Win32,60,right,0.506999969,4,0,4,0,1,3,1,0,240,172,1,239,,,,,,,,,,,,,,,,,,
,,0,28,,,,,,,2,6,2,stim/62.jpeg,HouseObjects,2,stim/objects/HouseObjects/cushion2.png,0.3,1,-0.2,0.15,right,71,2021-04-14_15h07.32.293,premup-three_ses-01_part-01_label-phase1,3.2.4,Win32,60,left,0.678999901,4,0,4,0,1,3,1,0,240,157,1,239,,,,,,,,,,,,,,,,,,
,,1,29,,,,,,,2,6,2,stim/62.jpeg,Instruments,1,stim/objects/Instruments/electricdrumset2.png,0.7,2,0.2,0.15,left,71,2021-04-14_15h07.32.293,premup-three_ses-01_part-01_label-phase1,3.2.4,Win32,60,left,0.849999905,4,0,4,0,1,3,1,0,240,137,1,239,,,,,,,,,,,,,,,,,,
,,1,30,,,,,,,3,1,4,stim/14.jpeg,HouseObjects,2,stim/objects/HouseObjects/glass2.png,0.9,1,-0.2,0.15,right,71,2021-04-14_15h07.32.293,premup-three_ses-01_part-01_label-phase1,3.2.4,Win32,60,right,0.575999975,4,0,4,0,1,3,1,0,240,183,1,239,,,,,,,,,,,,,,,,,,
,,1,31,,,,,,,1,4,3,stim/43.jpeg,Instruments,1,stim/objects/Instruments/gong.png,0.5,4,0.2,-0.15,left,71,2021-04-14_15h07.32.293,premup-three_ses-01_part-01_label-phase1,3.2.4,Win32,60,left,0.708999872,4,0,4,0,1,3,1,0,240,42,1,239,,,,,,,,,,,,,,,,,,
,,0,32,,,,,,,2,6,4,stim/64.jpeg,Instruments,1,stim/objects/Instruments/flute2.png,0.7,2,0.2,0.15,left,71,2021-04-14_15h07.32.293,premup-three_ses-01_part-01_label-phase1,3.2.4,Win32,60,right,0.583999872,4,0,4,0,1,3,1,0,240,135,1,239,,,,,,,,,,,,,,,,,,
,,1,33,,,,,,,2,6,3,stim/63.jpeg,Instruments,1,stim/objects/Instruments/electricguitar2.png,0.7,3,-0.2,-0.15,left,71,2021-04-14_15h07.32.293,premup-three_ses-01_part-01_label-phase1,3.2.4,Win32,60,left,0.487999916,4,0,4,0,1,3,1,0,240,142,1,239,,,,,,,,,,,,,,,,,,
,,1,34,,,,,,,3,2,4,stim/24.jpeg,HouseObjects,2,stim/objects/HouseObjects/handvacuum2.png,0.1,3,-0.2,-0.15,right,71,2021-04-14_15h07.32.293,premup-three_ses-01_part-01_label-phase1,3.2.4,Win32,60,right,0.741999865,4,0,4,0,1,3,1,0,240,239,1,239,,,,,,,,,,,,,,,,,,
,,0,35,,,,,,,2,5,3,stim/53.jpeg,HouseObjects,2,stim/objects/HouseObjects/handbrush.png,0.7,3,-0.2,-0.15,right,71,2021-04-14_15h07.32.293,premup-three_ses-01_part-01_label-phase1,3.2.4,Win32,60,left,0.490999937,4,0,4,0,1,3,1,0,240,94,1,239,,,,,,,,,,,,,,,,,,
,,1,36,,,,,,,2,5,3,stim/53.jpeg,HouseObjects,2,stim/objects/HouseObjects/handbrush.png,0.7,2,0.2,0.15,right,71,2021-04-14_15h07.32.293,premup-three_ses-01_part-01_label-phase1,3.2.4,Win32,60,right,1.227999926,4,0,4,0,1,3,1,0,240,110,1,239,,,,,,,,,,,,,,,,,,
,,1,37,,,,,,,2,6,3,stim/63.jpeg,Instruments,1,stim/objects/Instruments/electricguitar2.png,0.7,2,0.2,0.15,left,71,2021-04-14_15h07.32.293,premup-three_ses-01_part-01_label-phase1,3.2.4,Win32,60,left,0.660000086,4,0,4,0,1,3,1,0,240,130,1,239,,,,,,,,,,,,,,,,,,
,,1,38,,,,,,,3,1,1,stim/11.jpeg,HouseObjects,2,stim/objects/HouseObjects/dustpan2.png,0.9,1,-0.2,0.15,right,71,2021-04-14_15h07.32.293,premup-three_ses-01_part-01_label-phase1,3.2.4,Win32,60,right,0.555999994,4,0,4,0,1,3,1,0,240,164,1,239,,,,,,,,,,,,,,,,,,
,,1,39,,,,,,,3,2,3,stim/23.jpeg,Instruments,1,stim/objects/Instruments/harp2.png,0.9,3,-0.2,-0.15,left,71,2021-04-14_15h07.32.293,premup-three_ses-01_part-01_label-phase1,3.2.4,Win32,60,left,0.695999861,4,0,4,0,1,3,1,0,240,206,1,239,,,,,,,,,,,,,,,,,,
,,0,40,,,,,,,2,5,3,stim/53.jpeg,Instruments,1,stim/objects/Instruments/harp.png,0.3,1,-0.2,0.15,left,71,2021-04-14_15h07.32.293,premup-three_ses-01_part-01_label-phase1,3.2.4,Win32,60,right,0.835999966,4,0,4,0,1,3,1,0,240,82,1,239,,,,,,,,,,,,,,,,,,
,,0,41,,,,,,,1,4,4,stim/44.jpeg,Instruments,1,stim/objects/Instruments/grandpiano.png,0.5,4,0.2,-0.15,left,71,2021-04-14_15h07.32.293,premup-three_ses-01_part-01_label-phase1,3.2.4,Win32,60,,,4,0,4,0,1,3,1,0,240,59,1,239,,,,,,,,,,,,,,,,,,
,,0,42,,,,,,,1,4,4,stim/44.jpeg,HouseObjects,2,stim/objects/HouseObjects/glass.png,0.5,3,-0.2,-0.15,right,71,2021-04-14_15h07.32.293,premup-three_ses-01_part-01_label-phase1,3.2.4,Win32,60,left,0.555000067,4,0,4,0,1,3,1,0,240,71,1,239,,,,,,,,,,,,,,,,,,
,,0,43,,,,,,,1,3,1,stim/31.jpeg,Instruments,1,stim/objects/Instruments/drums.png,0.5,2,0.2,0.15,left,71,2021-04-14_15h07.32.293,premup-three_ses-01_part-01_label-phase1,3.2.4,Win32,60,right,0.453000069,4,0,4,0,1,3,1,0,240,16,1,239,,,,,,,,,,,,,,,,,,
,,1,44,,,,,,,1,4,1,stim/41.jpeg,HouseObjects,2,stim/objects/HouseObjects/dustpan.png,0.5,4,0.2,-0.15,right,71,2021-04-14_15h07.32.293,premup-three_ses-01_part-01_label-phase1,3.2.4,Win32,60,right,0.578000069,4,0,4,0,1,3,1,0,240,68,1,239,,,,,,,,,,,,,,,,,,
,,1,45,,,,,,,1,3,1,stim/31.jpeg,Instruments,1,stim/objects/Instruments/drums.png,0.5,2,0.2,0.15,left,71,2021-04-14_15h07.32.293,premup-three_ses-01_part-01_label-phase1,3.2.4,Win32,60,left,0.717000008,4,0,4,0,1,3,1,0,240,12,1,239,,,,,,,,,,,,,,,,,,
,,1,46,,,,,,,1,4,4,stim/44.jpeg,HouseObjects,2,stim/objects/HouseObjects/glass.png,0.5,1,-0.2,0.15,right,71,2021-04-14_15h07.32.293,premup-three_ses-01_part-01_label-phase1,3.2.4,Win32,60,right,0.540999889,4,0,4,0,1,3,1,0,240,79,1,239,,,,,,,,,,,,,,,,,,
,,0,47,,,,,,,2,6,1,stim/61.jpeg,Instruments,1,stim/objects/Instruments/drums2.png,0.7,2,0.2,0.15,left,71,2021-04-14_15h07.32.293,premup-three_ses-01_part-01_label-phase1,3.2.4,Win32,60,right,0.48699975,4,0,4,0,1,3,1,0,240,124,1,239,,,,,,,,,,,,,,,,,,
,,1,48,,,,,,,3,2,3,stim/23.jpeg,Instruments,1,stim/objects/Instruments/harp2.png,0.9,3,-0.2,-0.15,left,71,2021-04-14_15h07.32.293,premup-three_ses-01_part-01_label-phase1,3.2.4,Win32,60,left,0.63499999,4,0,4,0,1,3,1,0,240,202,1,239,,,,,,,,,,,,,,,,,,
,,1,49,,,,,,,2,5,1,stim/51.jpeg,HouseObjects,2,stim/objects/HouseObjects/glassmop.png,0.7,4,0.2,-0.15,right,71,2021-04-14_15h07.32.293,premup-three_ses-01_part-01_label-phase1,3.2.4,Win32,60,right,0.788999796,4,0,4,0,1,3,1,0,240,100,1,239,,,,,,,,,,,,,,,,,,
,,0,50,,,,,,,3,1,1,stim/11.jpeg,Instruments,1,stim/objects/Instruments/flutetrans2.png,0.1,3,-0.2,-0.15,left,71,2021-04-14_15h07.32.293,premup-three_ses-01_part-01_label-phase1,3.2.4,Win32,60,right,0.631999969,4,0,4,0,1,3,1,0,240,160,1,239,,,,,,,,,,,,,,,,,,
,,1,51,,,,,,,1,3,2,stim/32.jpeg,Instruments,1,stim/objects/Instruments/electricdrumset.png,0.5,4,0.2,-0.15,left,71,2021-04-14_15h07.32.293,premup-three_ses-01_part-01_label-phase1,3.2.4,Win32,60,left,0.929000139,4,0,4,0,1,3,1,0,240,9,1,239,,,,,,,,,,,,,,,,,,
,,1,52,,,,,,,1,3,2,stim/32.jpeg,Instruments,1,stim/objects/Instruments/electricdrumset.png,0.5,3,-0.2,-0.15,left,71,2021-04-14_15h07.32.293,premup-three_ses-01_part-01_label-phase1,3.2.4,Win32,60,left,0.563999891,4,0,4,0,1,3,1,0,240,5,1,239,,,,,,,,,,,,,,,,,,
,,1,53,,,,,,,2,5,2,stim/52.jpeg,HouseObjects,2,stim/objects/HouseObjects/hairdryer.png,0.7,3,-0.2,-0.15,right,71,2021-04-14_15h07.32.293,premup-three_ses-01_part-01_label-phase1,3.2.4,Win32,60,right,0.662999868,4,0,4,0,1,3,1,0,240,113,1,239,,,,,,,,,,,,,,,,,,
,,0,54,,,,,,,1,3,2,stim/32.jpeg,HouseObjects,2,stim/objects/HouseObjects/cushion.png,0.5,4,0.2,-0.15,right,71,2021-04-14_15h07.32.293,premup-three_ses-01_part-01_label-phase1,3.2.4,Win32,60,left,0.680999994,4,0,4,0,1,3,1,0,240,37,1,239,,,,,,,,,,,,,,,,,,
,,1,55,,,,,,,2,6,2,stim/62.jpeg,Instruments,1,stim/objects/Instruments/electricdrumset2.png,0.7,4,0.2,-0.15,left,71,2021-04-14_15h07.32.293,premup-three_ses-01_part-01_label-phase1,3.2.4,Win32,60,left,0.625,4,0,4,0,1,3,1,0,240,145,1,239,,,,,,,,,,,,,,,,,,
,,1,56,,,,,,,1,4,3,stim/43.jpeg,HouseObjects,2,stim/objects/HouseObjects/garbagebin.png,0.5,1,-0.2,0.15,right,71,2021-04-14_15h07.32.293,premup-three_ses-01_part-01_label-phase1,3.2.4,Win32,60,right,0.618000031,4,0,4,0,1,3,1,0,240,70,1,239,,,,,,,,,,,,,,,,,,
,,1,57,,,,,,,2,5,1,stim/51.jpeg,HouseObjects,2,stim/objects/HouseObjects/glassmop.png,0.7,1,-0.2,0.15,right,71,2021-04-14_15h07.32.293,premup-three_ses-01_part-01_label-phase1,3.2.4,Win32,60,right,0.678999901,4,0,4,0,1,3,1,0,240,104,1,239,,,,,,,,,,,,,,,,,,
,,1,58,,,,,,,2,5,3,stim/53.jpeg,HouseObjects,2,stim/objects/HouseObjects/handbrush.png,0.7,1,-0.2,0.15,right,71,2021-04-14_15h07.32.293,premup-three_ses-01_part-01_label-phase1,3.2.4,Win32,60,right,0.852999926,4,0,4,0,1,3,1,0,240,102,1,239,,,,,,,,,,,,,,,,,,
,,1,59,,,,,,,2,6,4,stim/64.jpeg,Instruments,1,stim/objects/Instruments/flute2.png,0.7,3,-0.2,-0.15,left,71,2021-04-14_15h07.32.293,premup-three_ses-01_part-01_label-phase1,3.2.4,Win32,60,left,0.595999956,4,0,4,0,1,3,1,0,240,123,1,239,,,,,,,,,,,,,,,,,,
,,1,60,,,,,,,2,5,4,stim/54.jpeg,HouseObjects,2,stim/objects/HouseObjects/handvacuum.png,0.7,2,0.2,0.15,right,71,2021-04-14_15h07.32.293,premup-three_ses-01_part-01_label-phase1,3.2.4,Win32,60,right,0.629999876,4,0,4,0,1,3,1,0,240,107,1,239,,,,,,,,,,,,,,,,,,
,,1,61,,,,,,,3,2,1,stim/21.jpeg,Instruments,1,stim/objects/Instruments/guitarcase2.png,0.9,2,0.2,0.15,left,71,2021-04-14_15h07.32.293,premup-three_ses-01_part-01_label-phase1,3.2.4,Win32,60,left,0.546999931,4,0,4,0,1,3,1,0,240,212,1,239,,,,,,,,,,,,,,,,,,
,,1,62,,,,,,,2,5,4,stim/54.jpeg,HouseObjects,2,stim/objects/HouseObjects/handvacuum.png,0.7,1,-0.2,0.15,right,71,2021-04-14_15h07.32.293,premup-three_ses-01_part-01_label-phase1,3.2.4,Win32,60,right,0.523999929,4,0,4,0,1,3,1,0,240,99,1,239,,,,,,,,,,,,,,,,,,
,,0,63,,,,,,,2,6,4,stim/64.jpeg,HouseObjects,2,stim/objects/HouseObjects/doormat2.png,0.3,1,-0.2,0.15,right,71,2021-04-14_15h07.32.293,premup-three_ses-01_part-01_label-phase1,3.2.4,Win32,60,left,0.394999981,4,0,4,0,1,3,1,0,240,155,1,239,,,,,,,,,,,,,,,,,,
,,0,64,,,,,,,1,4,3,stim/43.jpeg,Instruments,1,stim/objects/Instruments/gong.png,0.5,2,0.2,0.15,left,71,2021-04-14_15h07.32.293,premup-three_ses-01_part-01_label-phase1,3.2.4,Win32,60,right,0.68900013,4,0,4,0,1,3,1,0,240,54,1,239,,,,,,,,,,,,,,,,,,
,,1,65,,,,,,,2,6,2,stim/62.jpeg,Instruments,1,stim/objects/Instruments/electricdrumset2.png,0.7,3,-0.2,-0.15,left,71,2021-04-14_15h07.32.293,premup-three_ses-01_part-01_label-phase1,3.2.4,Win32,60,left,0.648999929,4,0,4,0,1,3,1,0,240,129,1,239,,,,,,,,,,,,,,,,,,
,,1,66,,,,,,,2,6,1,stim/61.jpeg,Instruments,1,stim/objects/Instruments/drums2.png,0.7,3,-0.2,-0.15,left,71,2021-04-14_15h07.32.293,premup-three_ses-01_part-01_label-phase1,3.2.4,Win32,60,left,0.648999929,4,0,4,0,1,3,1,0,240,132,1,239,,,,,,,,,,,,,,,,,,
,,1,67,,,,,,,2,5,3,stim/53.jpeg,HouseObjects,2,stim/objects/HouseObjects/handbrush.png,0.7,3,-0.2,-0.15,right,71,2021-04-14_15h07.32.293,premup-three_ses-01_part-01_label-phase1,3.2.4,Win32,60,right,0.803999901,4,0,4,0,1,3,1,0,240,114,1,239,,,,,,,,,,,,,,,,,,
,,0,68,,,,,,,2,5,2,stim/52.jpeg,Instruments,1,stim/objects/Instruments/harmonica.png,0.3,1,-0.2,0.15,left,71,2021-04-14_15h07.32.293,premup-three_ses-01_part-01_label-phase1,3.2.4,Win32,60,right,1.042999983,4,0,4,0,1,3,1,0,240,89,1,239,,,,,,,,,,,,,,,,,,
,,1,69,,,,,,,3,2,1,stim/21.jpeg,Instruments,1,stim/objects/Instruments/guitarcase2.png,0.9,2,0.2,0.15,left,71,2021-04-14_15h07.32.293,premup-three_ses-01_part-01_label-phase1,3.2.4,Win32,60,left,0.663999796,4,0,4,0,1,3,1,0,240,232,1,239,,,,,,,,,,,,,,,,,,
,,1,70,,,,,,,2,5,2,stim/52.jpeg,HouseObjects,2,stim/objects/HouseObjects/hairdryer.png,0.7,1,-0.2,0.15,right,71,2021-04-14_15h07.32.293,premup-three_ses-01_part-01_label-phase1,3.2.4,Win32,60,right,0.679000139,4,0,4,0,1,3,1,0,240,97,1,239,,,,,,,,,,,,,,,,,,
,,0,71,,,,,,,2,6,4,stim/64.jpeg,HouseObjects,2,stim/objects/HouseObjects/doormat2.png,0.3,2,0.2,0.15,right,71,2021-04-14_15h07.32.293,premup-three_ses-01_part-01_label-phase1,3.2.4,Win32,60,left,0.54399991,4,0,4,0,1,3,1,0,240,159,1,239,,,,,,,,,,,,,,,,,,
,,1,72,,,,,,,3,2,4,stim/24.jpeg,Instruments,1,stim/objects/Instruments/hihat2.png,0.9,3,-0.2,-0.15,left,71,2021-04-14_15h07.32.293,premup-three_ses-01_part-01_label-phase1,3.2.4,Win32,60,left,0.792999983,4,0,4,0,1,3,1,0,240,211,1,239,,,,,,,,,,,,,,,,,,
,,1,73,,,,,,,3,1,1,stim/11.jpeg,HouseObjects,2,stim/objects/HouseObjects/dustpan2.png,0.9,2,0.2,0.15,right,71,2021-04-14_15h07.32.293,premup-three_ses-01_part-01_label-phase1,3.2.4,Win32,60,right,0.768999815,4,0,4,0,1,3,1,0,240,196,1,239,,,,,,,,,,,,,,,,,,
,,1,74,,,,,,,2,5,3,stim/53.jpeg,HouseObjects,2,stim/objects/HouseObjects/handbrush.png,0.7,3,-0.2,-0.15,right,71,2021-04-14_15h07.32.293,premup-three_ses-01_part-01_label-phase1,3.2.4,Win32,60,right,0.988999844,4,0,4,0,1,3,1,0,240,118,1,239,,,,,,,,,,,,,,,,,,
,,1,75,,,,,,,1,4,2,stim/42.jpeg,Instruments,1,stim/objects/Instruments/frenchhorn.png,0.5,4,0.2,-0.15,left,71,2021-04-14_15h07.32.293,premup-three_ses-01_part-01_label-phase1,3.2.4,Win32,60,left,0.665999889,4,0,4,0,1,3,1,0,240,57,1,239,,,,,,,,,,,,,,,,,,
,,0,76,,,,,,,1,4,2,stim/42.jpeg,Instruments,1,stim/objects/Instruments/frenchhorn.png,0.5,2,0.2,0.15,left,71,2021-04-14_15h07.32.293,premup-three_ses-01_part-01_label-phase1,3.2.4,Win32,60,right,0.860999823,4,0,4,0,1,3,1,0,240,41,1,239,,,,,,,,,,,,,,,,,,
,,0,77,,,,,,,1,3,4,stim/34.jpeg,HouseObjects,2,stim/objects/HouseObjects/doormat.png,0.5,1,-0.2,0.15,right,71,2021-04-14_15h07.32.293,premup-three_ses-01_part-01_label-phase1,3.2.4,Win32,60,left,0.907000065,4,0,4,0,1,3,1,0,240,31,1,239,,,,,,,,,,,,,,,,,,
,,1,78,,,,,,,3,1,2,stim/12.jpeg,HouseObjects,2,stim/objects/HouseObjects/flyswatter2.png,0.9,2,0.2,0.15,right,71,2021-04-14_15h07.32.293,premup-three_ses-01_part-01_label-phase1,3.2.4,Win32,60,right,0.544999838,4,0,4,0,1,3,1,0,240,185,1,239,,,,,,,,,,,,,,,,,,
,,1,79,,,,,,,1,4,2,stim/42.jpeg,HouseObjects,2,stim/objects/HouseObjects/flyswatter.png,0.5,2,0.2,0.15,right,71,2021-04-14_15h07.32.293,premup-three_ses-01_part-01_label-phase1,3.2.4,Win32,60,right,0.820999861,4,0,4,0,1,3,1,0,240,73,1,239,,,,,,,,,,,,,,,,,,
,,0,80,,,,,,,1,4,1,stim/41.jpeg,HouseObjects,2,stim/objects/HouseObjects/dustpan.png,0.5,4,0.2,-0.15,right,71,2021-04-14_15h07.32.293,premup-three_ses-01_part-01_label-phase1,3.2.4,Win32,60,left,0.854999781,4,0,4,0,1,3,1,0,240,64,1,239,,,,,,,,,,,,,,,,,,
,,1,81,,,,,,,2,6,3,stim/63.jpeg,Instruments,1,stim/objects/Instruments/electricguitar2.png,0.7,2,0.2,0.15,left,71,2021-04-14_15h07.32.293,premup-three_ses-01_part-01_label-phase1,3.2.4,Win32,60,left,1.068000078,4,0,4,0,1,3,1,0,240,138,1,239,,,,,,,,,,,,,,,,,,
,,1,82,,,,,,,1,4,1,stim/41.jpeg,HouseObjects,2,stim/objects/HouseObjects/dustpan.png,0.5,1,-0.2,0.15,right,71,2021-04-14_15h07.32.293,premup-three_ses-01_part-01_label-phase1,3.2.4,Win32,60,right,0.519999743,4,0,4,0,1,3,1,0,240,72,1,239,,,,,,,,,,,,,,,,,,
,,0,83,,,,,,,1,3,4,stim/34.jpeg,Instruments,1,stim/objects/Instruments/flute.png,0.5,1,-0.2,0.15,left,71,2021-04-14_15h07.32.293,premup-three_ses-01_part-01_label-phase1,3.2.4,Win32,60,right,1.046999931,4,0,4,0,1,3,1,0,240,19,1,239,,,,,,,,,,,,,,,,,,
,,0,84,,,,,,,3,1,4,stim/14.jpeg,Instruments,1,stim/objects/Instruments/grandpiano2.png,0.1,2,0.2,0.15,left,71,2021-04-14_15h07.32.293,premup-three_ses-01_part-01_label-phase1,3.2.4,Win32,60,right,0.782999992,4,0,4,0,1,3,1,0,240,163,1,239,,,,,,,,,,,,,,,,,,
,,1,85,,,,,,,3,2,1,stim/21.jpeg,Instruments,1,stim/objects/Instruments/guitarcase2.png,0.9,1,-0.2,0.15,left,71,2021-04-14_15h07.32.293,premup-three_ses-01_part-01_label-phase1,3.2.4,Win32,60,left,0.605999708,4,0,4,0,1,3,1,0,240,200,1,239,,,,,,,,,,,,,,,,,,
,,0,86,,,,,,,1,3,4,stim/34.jpeg,HouseObjects,2,stim/objects/HouseObjects/doormat.png,0.5,3,-0.2,-0.15,right,71,2021-04-14_15h07.32.293,premup-three_ses-01_part-01_label-phase1,3.2.4,Win32,60,left,0.867000103,4,0,4,0,1,3,1,0,240,39,1,239,,,,,,,,,,,,,,,,,,
,,1,87,,,,,,,1,3,2,stim/32.jpeg,Instruments,1,stim/objects/Instruments/electricdrumset.png,0.5,4,0.2,-0.15,left,71,2021-04-14_15h07.32.293,premup-three_ses-01_part-01_label-phase1,3.2.4,Win32,60,left,0.902999878,4,0,4,0,1,3,1,0,240,13,1,239,,,,,,,,,,,,,,,,,,
,,1,88,,,,,,,3,2,3,stim/23.jpeg,Instruments,1,stim/objects/Instruments/harp2.png,0.9,2,0.2,0.15,left,71,2021-04-14_15h07.32.293,premup-three_ses-01_part-01_label-phase1,3.2.4,Win32,60,left,0.645999908,4,0,4,0,1,3,1,0,240,218,1,239,,,,,,,,,,,,,,,,,,
,,0,89,,,,,,,3,2,1,stim/21.jpeg,HouseObjects,2,stim/objects/HouseObjects/glassmop2.png,0.1,3,-0.2,-0.15,right,71,2021-04-14_15h07.32.293,premup-three_ses-01_part-01_label-phase1,3.2.4,Win32,60,left,0.546999931,4,0,4,0,1,3,1,0,240,236,1,239,,,,,,,,,,,,,,,,,,
,,1,90,,,,,,,3,1,3,stim/13.jpeg,HouseObjects,2,stim/objects/HouseObjects/garbagebin2.png,0.9,2,0.2,0.15,right,71,2021-04-14_15h07.32.293,premup-three_ses-01_part-01_label-phase1,3.2.4,Win32,60,right,0.707000017,4,0,4,0,1,3,1,0,240,190,1,239,,,,,,,,,,,,,,,,,,
,,1,91,,,,,,,2,5,1,stim/51.jpeg,HouseObjects,2,stim/objects/HouseObjects/glassmop.png,0.7,3,-0.2,-0.15,right,71,2021-04-14_15h07.32.293,premup-three_ses-01_part-01_label-phase1,3.2.4,Win32,60,right,0.596999884,4,0,4,0,1,3,1,0,240,116,1,239,,,,,,,,,,,,,,,,,,
,,1,92,,,,,,,3,1,2,stim/12.jpeg,HouseObjects,2,stim/objects/HouseObjects/flyswatter2.png,0.9,1,-0.2,0.15,right,71,2021-04-14_15h07.32.293,premup-three_ses-01_part-01_label-phase1,3.2.4,Win32,60,right,0.674999952,4,0,4,0,1,3,1,0,240,165,1,239,,,,,,,,,,,,,,,,,,
,,1,93,,,,,,,1,4,4,stim/44.jpeg,HouseObjects,2,stim/objects/HouseObjects/glass.png,0.5,4,0.2,-0.15,right,71,2021-04-14_15h07.32.293,premup-three_ses-01_part-01_label-phase1,3.2.4,Win32,60,right,0.497999907,4,0,4,0,1,3,1,0,240,63,1,239,,,,,,,,,,,,,,,,,,
,,1,94,,,,,,,3,1,4,stim/14.jpeg,HouseObjects,2,stim/objects/HouseObjects/glass2.png,0.9,4,0.2,-0.15,right,71,2021-04-14_15h07.32.293,premup-three_ses-01_part-01_label-phase1,3.2.4,Win32,60,right,0.688999891,4,0,4,0,1,3,1,0,240,191,1,239,,,,,,,,,,,,,,,,,,
,,1,95,,,,,,,2,5,3,stim/53.jpeg,HouseObjects,2,stim/objects/HouseObjects/handbrush.png,0.7,2,0.2,0.15,right,71,2021-04-14_15h07.32.293,premup-three_ses-01_part-01_label-phase1,3.2.4,Win32,60,right,0.762000084,4,0,4,0,1,3,1,0,240,98,1,239,,,,,,,,,,,,,,,,,,
,,1,96,,,,,,,2,6,4,stim/64.jpeg,Instruments,1,stim/objects/Instruments/flute2.png,0.7,4,0.2,-0.15,left,71,2021-04-14_15h07.32.293,premup-three_ses-01_part-01_label-phase1,3.2.4,Win32,60,left,0.664999962,4,0,4,0,1,3,1,0,240,143,1,239,,,,,,,,,,,,,,,,,,
,,1,97,,,,,,,3,1,3,stim/13.jpeg,HouseObjects,2,stim/objects/HouseObjects/garbagebin2.png,0.9,2,0.2,0.15,right,71,2021-04-14_15h07.32.293,premup-three_ses-01_part-01_label-phase1,3.2.4,Win32,60,right,0.559000015,4,0,4,0,1,3,1,0,240,178,1,239,,,,,,,,,,,,,,,,,,
,,0,98,,,,,,,2,5,2,stim/52.jpeg,Instruments,1,stim/objects/Instruments/harmonica.png,0.3,2,0.2,0.15,left,71,2021-04-14_15h07.32.293,premup-three_ses-01_part-01_label-phase1,3.2.4,Win32,60,right,0.542999983,4,0,4,0,1,3,1,0,240,85,1,239,,,,,,,,,,,,,,,,,,
,,0,99,,,,,,,2,5,1,stim/51.jpeg,Instruments,1,stim/objects/Instruments/guitarcase.png,0.3,1,-0.2,0.15,left,71,2021-04-14_15h07.32.293,premup-three_ses-01_part-01_label-phase1,3.2.4,Win32,60,right,0.663999796,4,0,4,0,1,3,1,0,240,88,1,239,,,,,,,,,,,,,,,,,,
,,1,100,,,,,,,3,2,1,stim/21.jpeg,Instruments,1,stim/objects/Instruments/guitarcase2.png,0.9,1,-0.2,0.15,left,71,2021-04-14_15h07.32.293,premup-three_ses-01_part-01_label-phase1,3.2.4,Win32,60,left,0.791000128,4,0,4,0,1,3,1,0,240,220,1,239,,,,,,,,,,,,,,,,,,
,,0,101,,,,,,,1,3,3,stim/33.jpeg,HouseObjects,2,stim/objects/HouseObjects/dishsoap.png,0.5,4,0.2,-0.15,right,71,2021-04-14_15h07.32.293,premup-three_ses-01_part-01_label-phase1,3.2.4,Win32,60,left,1.010999918,4,0,4,0,1,3,1,0,240,34,1,239,,,,,,,,,,,,,,,,,,
,,0,102,,,,,,,1,3,3,stim/33.jpeg,HouseObjects,2,stim/objects/HouseObjects/dishsoap.png,0.5,3,-0.2,-0.15,right,71,2021-04-14_15h07.32.293,premup-three_ses-01_part-01_label-phase1,3.2.4,Win32,60,left,0.695999861,4,0,4,0,1,3,1,0,240,22,1,239,,,,,,,,,,,,,,,,,,
,,1,103,,,,,,,2,6,4,stim/64.jpeg,Instruments,1,stim/objects/Instruments/flute2.png,0.7,4,0.2,-0.15,left,71,2021-04-14_15h07.32.293,premup-three_ses-01_part-01_label-phase1,3.2.4,Win32,60,left,0.630000114,4,0,4,0,1,3,1,0,240,147,1,239,,,,,,,,,,,,,,,,,,
,,1,104,,,,,,,3,1,3,stim/13.jpeg,HouseObjects,2,stim/objects/HouseObjects/garbagebin2.png,0.9,1,-0.2,0.15,right,71,2021-04-14_15h07.32.293,premup-three_ses-01_part-01_label-phase1,3.2.4,Win32,60,right,0.611999989,4,0,4,0,1,3,1,0,240,166,1,239,,,,,,,,,,,,,,,,,,
,,1,105,,,,,,,3,2,2,stim/22.jpeg,Instruments,1,stim/objects/Instruments/harmonica2.png,0.9,3,-0.2,-0.15,left,71,2021-04-14_15h07.32.293,premup-three_ses-01_part-01_label-phase1,3.2.4,Win32,60,left,0.740999937,4,0,4,0,1,3,1,0,240,213,1,239,,,,,,,,,,,,,,,,,,
,,1,106,,,,,,,2,6,2,stim/62.jpeg,Instruments,1,stim/objects/Instruments/electricdrumset2.png,0.7,4,0.2,-0.15,left,71,2021-04-14_15h07.32.293,premup-three_ses-01_part-01_label-phase1,3.2.4,Win32,60,left,0.604999781,4,0,4,0,1,3,1,0,240,133,1,239,,,,,,,,,,,,,,,,,,
,,0,107,,,,,,,1,3,3,stim/33.jpeg,HouseObjects,2,stim/objects/HouseObjects/dishsoap.png,0.5,2,0.2,0.15,right,71,2021-04-14_15h07.32.293,premup-three_ses-01_part-01_label-phase1,3.2.4,Win32,60,left,0.537999868,4,0,4,0,1,3,1,0,240,26,1,239,,,,,,,,,,,,,,,,,,
,,0,108,,,,,,,3,2,3,stim/23.jpeg,HouseObjects,2,stim/objects/HouseObjects/handbrush2.png,0.1,4,0.2,-0.15,right,71,2021-04-14_15h07.32.293,premup-three_ses-01_part-01_label-phase1,3.2.4,Win32,60,left,0.564999819,4,0,4,0,1,3,1,0,240,238,1,239,,,,,,,,,,,,,,,,,,
,,1,109,,,,,,,3,2,3,stim/23.jpeg,Instruments,1,stim/objects/Instruments/harp2.png,0.9,1,-0.2,0.15,left,71,2021-04-14_15h07.32.293,premup-three_ses-01_part-01_label-phase1,3.2.4,Win32,60,left,0.46600008,4,0,4,0,1,3,1,0,240,214,1,239,,,,,,,,,,,,,,,,,,
,,0,110,,,,,,,1,4,2,stim/42.jpeg,Instruments,1,stim/objects/Instruments/frenchhorn.png,0.5,3,-0.2,-0.15,left,71,2021-04-14_15h07.32.293,premup-three_ses-01_part-01_label-phase1,3.2.4,Win32,60,right,0.714999914,4,0,4,0,1,3,1,0,240,45,1,239,,,,,,,,,,,,,,,,,,
,,1,111,,,,,,,3,1,3,stim/13.jpeg,HouseObjects,2,stim/objects/HouseObjects/garbagebin2.png,0.9,3,-0.2,-0.15,right,71,2021-04-14_15h07.32.293,premup-three_ses-01_part-01_label-phase1,3.2.4,Win32,60,right,0.73300004,4,0,4,0,1,3,1,0,240,186,1,239,,,,,,,,,,,,,,,,,,
,,1,112,,,,,,,3,2,1,stim/21.jpeg,Instruments,1,stim/objects/Instruments/guitarcase2.png,0.9,1,-0.2,0.15,left,71,2021-04-14_15h07.32.293,premup-three_ses-01_part-01_label-phase1,3.2.4,Win32,60,left,0.605999708,4,0,4,0,1,3,1,0,240,216,1,239,,,,,,,,,,,,,,,,,,
,,0,113,,,,,,,2,5,4,stim/54.jpeg,Instruments,1,stim/objects/Instruments/hihat.png,0.3,2,0.2,0.15,left,71,2021-04-14_15h07.32.293,premup-three_ses-01_part-01_label-phase1,3.2.4,Win32,60,right,0.556999922,4,0,4,0,1,3,1,0,240,87,1,239,,,,,,,,,,,,,,,,,,
,,1,114,,,,,,,3,2,1,stim/21.jpeg,Instruments,1,stim/objects/Instruments/guitarcase2.png,0.9,2,0.2,0.15,left,71,2021-04-14_15h07.32.293,premup-three_ses-01_part-01_label-phase1,3.2.4,Win32,60,left,0.66899991,4,0,4,0,1,3,1,0,240,224,1,239,,,,,,,,,,,,,,,,,,
,,1,115,,,,,,,3,1,2,stim/12.jpeg,HouseObjects,2,stim/objects/HouseObjects/flyswatter2.png,0.9,1,-0.2,0.15,right,71,2021-04-14_15h07.32.293,premup-three_ses-01_part-01_label-phase1,3.2.4,Win32,60,right,0.631000042,4,0,4,0,1,3,1,0,240,169,1,239,,,,,,,,,,,,,,,,,,
,,1,116,,,,,,,1,3,3,stim/33.jpeg,Instruments,1,stim/objects/Instruments/electricguitar.png,0.5,1,-0.2,0.15,left,71,2021-04-14_15h07.32.293,premup-three_ses-01_part-01_label-phase1,3.2.4,Win32,60,left,0.622999907,4,0,4,0,1,3,1,0,240,10,1,239,,,,,,,,,,,,,,,,,,
,,1,117,,,,,,,3,1,1,stim/11.jpeg,HouseObjects,2,stim/objects/HouseObjects/dustpan2.png,0.9,4,0.2,-0.15,right,71,2021-04-14_15h07.32.293,premup-three_ses-01_part-01_label-phase1,3.2.4,Win32,60,right,0.674999952,4,0,4,0,1,3,1,0,240,180,1,239,,,,,,,,,,,,,,,,,,
,,1,118,,,,,,,2,6,4,stim/64.jpeg,Instruments,1,stim/objects/Instruments/flute2.png,0.7,1,-0.2,0.15,left,71,2021-04-14_15h07.32.293,premup-three_ses-01_part-01_label-phase1,3.2.4,Win32,60,left,0.61500001,4,0,4,0,1,3,1,0,240,139,1,239,,,,,,,,,,,,,,,,,,
,,1,119,,,,,,,1,3,2,stim/32.jpeg,HouseObjects,2,stim/objects/HouseObjects/cushion.png,0.5,1,-0.2,0.15,right,71,2021-04-14_15h07.32.293,premup-three_ses-01_part-01_label-phase1,3.2.4,Win32,60,right,0.713999987,4,0,4,0,1,3,1,0,240,21,1,239,,,,,,,,,,,,,,,,,,
,,0,120,,,,,,,3,1,4,stim/14.jpeg,HouseObjects,2,stim/objects/HouseObjects/glass2.png,0.9,1,-0.2,0.15,right,71,2021-04-14_15h07.32.293,premup-three_ses-01_part-01_label-phase1,3.2.4,Win32,60,left,0.540999889,4,0,4,0,1,3,1,0,240,199,1,239,,,,,,,,,,,,,,,,,,
,,1,121,,,,,,,3,1,1,stim/11.jpeg,HouseObjects,2,stim/objects/HouseObjects/dustpan2.png,0.9,3,-0.2,-0.15,right,71,2021-04-14_15h07.32.293,premup-three_ses-01_part-01_label-phase1,3.2.4,Win32,60,right,0.734999895,4,0,4,0,1,3,1,0,240,192,1,239,,,,,,,,,,,,,,,,,,
,,1,122,,,,,,,3,2,1,stim/21.jpeg,Instruments,1,stim/objects/Instruments/guitarcase2.png,0.9,4,0.2,-0.15,left,71,2021-04-14_15h07.32.293,premup-three_ses-01_part-01_label-phase1,3.2.4,Win32,60,left,0.603999853,4,0,4,0,1,3,1,0,240,204,1,239,,,,,,,,,,,,,,,,,,
,,0,123,,,,,,,1,4,3,stim/43.jpeg,Instruments,1,stim/objects/Instruments/gong.png,0.5,1,-0.2,0.15,left,71,2021-04-14_15h07.32.293,premup-three_ses-01_part-01_label-phase1,3.2.4,Win32,60,right,0.730999708,4,0,4,0,1,3,1,0,240,50,1,239,,,,,,,,,,,,,,,,,,
,,0,124,,,,,,,1,4,3,stim/43.jpeg,Instruments,1,stim/objects/Instruments/gong.png,0.5,4,0.2,-0.15,left,71,2021-04-14_15h07.32.293,premup-three_ses-01_part-01_label-phase1,3.2.4,Win32,60,right,0.993999958,4,0,4,0,1,3,1,0,240,46,1,239,,,,,,,,,,,,,,,,,,
,,1,125,,,,,,,3,2,2,stim/22.jpeg,Instruments,1,stim/objects/Instruments/harmonica2.png,0.9,3,-0.2,-0.15,left,71,2021-04-14_15h07.32.293,premup-three_ses-01_part-01_label-phase1,3.2.4,Win32,60,left,0.880000114,4,0,4,0,1,3,1,0,240,229,1,239,,,,,,,,,,,,,,,,,,
,,1,126,,,,,,,2,5,1,stim/51.jpeg,HouseObjects,2,stim/objects/HouseObjects/glassmop.png,0.7,4,0.2,-0.15,right,71,2021-04-14_15h07.32.293,premup-three_ses-01_part-01_label-phase1,3.2.4,Win32,60,right,0.634000063,4,0,4,0,1,3,1,0,240,112,1,239,,,,,,,,,,,,,,,,,,
,,1,127,,,,,,,2,5,2,stim/52.jpeg,HouseObjects,2,stim/objects/HouseObjects/hairdryer.png,0.7,2,0.2,0.15,right,71,2021-04-14_15h07.32.293,premup-three_ses-01_part-01_label-phase1,3.2.4,Win32,60,right,0.683000088,4,0,4,0,1,3,1,0,240,101,1,239,,,,,,,,,,,,,,,,,,
,,1,128,,,,,,,2,6,1,stim/61.jpeg,Instruments,1,stim/objects/Instruments/drums2.png,0.7,4,0.2,-0.15,left,71,2021-04-14_15h07.32.293,premup-three_ses-01_part-01_label-phase1,3.2.4,Win32,60,left,0.602999926,4,0,4,0,1,3,1,0,240,144,1,239,,,,,,,,,,,,,,,,,,
,,0,129,,,,,,,1,3,1,stim/31.jpeg,Instruments,1,stim/objects/Instruments/drums.png,0.5,1,-0.2,0.15,left,71,2021-04-14_15h07.32.293,premup-three_ses-01_part-01_label-phase1,3.2.4,Win32,60,right,0.698999882,4,0,4,0,1,3,1,0,240,4,1,239,,,,,,,,,,,,,,,,,,
,,0,130,,,,,,,1,4,1,stim/41.jpeg,Instruments,1,stim/objects/Instruments/flutetrans.png,0.5,1,-0.2,0.15,left,71,2021-04-14_15h07.32.293,premup-three_ses-01_part-01_label-phase1,3.2.4,Win32,60,right,0.975999832,4,0,4,0,1,3,1,0,240,44,1,239,,,,,,,,,,,,,,,,,,
,,1,131,,,,,,,1,3,2,stim/32.jpeg,Instruments,1,stim/objects/Instruments/electricdrumset.png,0.5,4,0.2,-0.15,left,71,2021-04-14_15h07.32.293,premup-three_ses-01_part-01_label-phase1,3.2.4,Win32,60,left,0.697000027,4,0,4,0,1,3,1,0,240,1,1,239,,,,,,,,,,,,,,,,,,
,,1,132,,,,,,,3,1,3,stim/13.jpeg,HouseObjects,2,stim/objects/HouseObjects/garbagebin2.png,0.9,3,-0.2,-0.15,right,71,2021-04-14_15h07.32.293,premup-three_ses-01_part-01_label-phase1,3.2.4,Win32,60,right,0.816999912,4,0,4,0,1,3,1,0,240,198,1,239,,,,,,,,,,,,,,,,,,
