key_resp_trial.keys,key_resp_trial.rt,trial_acc,trial_index,iterations.thisRepN,iterations.thisTrialN,iterations.thisN,iterations.thisIndex,iterations.ran,iterations.order,task_innerloop.thisRepN,task_innerloop.thisTrialN,task_innerloop.thisN,task_innerloop.thisIndex,task_innerloop.ran,task_innerloop.order,scn_condition,scn_cat,scn_inst,scn_file,obj_cat,obj_cat_num,obj_file,trial_cond,quadrant,obj_x,obj_y,corr_ans,participant,date,expName,psychopyVersion,OS,frameRate,slider.response,slider.rt,slider_2.response,slider_2.rt,ratings.thisRepN,ratings.thisTrialN,ratings.thisN,ratings.thisIndex,ratings.ran,ratings.order,obj_cat_top,min_resp_top,max_resp_top,obj_cat_bottom,min_resp_bottom,max_resp_bottom,enc_trials.thisRepN,enc_trials.thisTrialN,enc_trials.thisN,enc_trials.thisIndex,enc_trials.ran,enc_trials.order,fillers,ratings_final.thisRepN,ratings_final.thisTrialN,ratings_final.thisN,ratings_final.thisIndex,ratings_final.ran,ratings_final.order
,,0,1,1,0,1,0,1,0,1,0,240,206,1,239,3,2,3,stim/23.jpeg,Instruments,1,stim/objects/Instruments/harp2.png,0.9,3,-0.2,-0.15,left,71,2021-04-15_15h04.42.338,premup-three_ses-02_part-02_label-phase2,3.2.4,Win32,60,,,,,,,,,,,,,,,,,,,,,,,,,,,,,
left,0.549999952,1,2,1,0,1,0,1,0,1,0,240,129,1,239,2,6,2,stim/62.jpeg,Instruments,1,stim/objects/Instruments/electricdrumset2.png,0.7,3,-0.2,-0.15,left,71,2021-04-15_15h04.42.338,premup-three_ses-02_part-02_label-phase2,3.2.4,Win32,60,,,,,,,,,,,,,,,,,,,,,,,,,,,,,
right,0.669999838,1,3,1,0,1,0,1,0,1,0,240,179,1,239,3,1,4,stim/14.jpeg,HouseObjects,2,stim/objects/HouseObjects/glass2.png,0.9,3,-0.2,-0.15,right,71,2021-04-15_15h04.42.338,premup-three_ses-02_part-02_label-phase2,3.2.4,Win32,60,,,,,,,,,,,,,,,,,,,,,,,,,,,,,
left,0.485999823,1,4,1,0,1,0,1,0,1,0,240,143,1,239,2,6,4,stim/64.jpeg,Instruments,1,stim/objects/Instruments/flute2.png,0.7,4,0.2,-0.15,left,71,2021-04-15_15h04.42.338,premup-three_ses-02_part-02_label-phase2,3.2.4,Win32,60,,,,,,,,,,,,,,,,,,,,,,,,,,,,,
right,0.61500001,0,5,1,0,1,0,1,0,1,0,240,50,1,239,1,4,3,stim/43.jpeg,Instruments,1,stim/objects/Instruments/gong.png,0.5,1,-0.2,0.15,left,71,2021-04-15_15h04.42.338,premup-three_ses-02_part-02_label-phase2,3.2.4,Win32,60,,,,,,,,,,,,,,,,,,,,,,,,,,,,,
left,0.595999956,0,6,1,0,1,0,1,0,1,0,240,96,1,239,2,5,1,stim/51.jpeg,HouseObjects,2,stim/objects/HouseObjects/glassmop.png,0.7,3,-0.2,-0.15,right,71,2021-04-15_15h04.42.338,premup-three_ses-02_part-02_label-phase2,3.2.4,Win32,60,,,,,,,,,,,,,,,,,,,,,,,,,,,,,
right,0.821999788,1,7,1,0,1,0,1,0,1,0,240,187,1,239,3,1,4,stim/14.jpeg,HouseObjects,2,stim/objects/HouseObjects/glass2.png,0.9,4,0.2,-0.15,right,71,2021-04-15_15h04.42.338,premup-three_ses-02_part-02_label-phase2,3.2.4,Win32,60,,,,,,,,,,,,,,,,,,,,,,,,,,,,,
left,0.644999981,1,8,1,0,1,0,1,0,1,0,240,142,1,239,2,6,3,stim/63.jpeg,Instruments,1,stim/objects/Instruments/electricguitar2.png,0.7,3,-0.2,-0.15,left,71,2021-04-15_15h04.42.338,premup-three_ses-02_part-02_label-phase2,3.2.4,Win32,60,,,,,,,,,,,,,,,,,,,,,,,,,,,,,
right,0.592000008,1,9,1,0,1,0,1,0,1,0,240,166,1,239,3,1,3,stim/13.jpeg,HouseObjects,2,stim/objects/HouseObjects/garbagebin2.png,0.9,1,-0.2,0.15,right,71,2021-04-15_15h04.42.338,premup-three_ses-02_part-02_label-phase2,3.2.4,Win32,60,,,,,,,,,,,,,,,,,,,,,,,,,,,,,
left,0.578999996,1,10,1,0,1,0,1,0,1,0,240,0,1,239,1,3,1,stim/31.jpeg,Instruments,1,stim/objects/Instruments/drums.png,0.5,2,0.2,0.15,left,71,2021-04-15_15h04.42.338,premup-three_ses-02_part-02_label-phase2,3.2.4,Win32,60,,,,,,,,,,,,,,,,,,,,,,,,,,,,,
,,0,11,1,0,1,0,1,0,1,0,240,209,1,239,3,2,2,stim/22.jpeg,Instruments,1,stim/objects/Instruments/harmonica2.png,0.9,4,0.2,-0.15,left,71,2021-04-15_15h04.42.338,premup-three_ses-02_part-02_label-phase2,3.2.4,Win32,60,,,,,,,,,,,,,,,,,,,,,,,,,,,,,
left,0.578999996,1,12,1,0,1,0,1,0,1,0,240,140,1,239,2,6,1,stim/61.jpeg,Instruments,1,stim/objects/Instruments/drums2.png,0.7,4,0.2,-0.15,left,71,2021-04-15_15h04.42.338,premup-three_ses-02_part-02_label-phase2,3.2.4,Win32,60,,,,,,,,,,,,,,,,,,,,,,,,,,,,,
left,0.450999975,1,13,1,0,1,0,1,0,1,0,240,136,1,239,2,6,1,stim/61.jpeg,Instruments,1,stim/objects/Instruments/drums2.png,0.7,1,-0.2,0.15,left,71,2021-04-15_15h04.42.338,premup-three_ses-02_part-02_label-phase2,3.2.4,Win32,60,,,,,,,,,,,,,,,,,,,,,,,,,,,,,
left,0.506999969,1,14,1,0,1,0,1,0,1,0,240,135,1,239,2,6,4,stim/64.jpeg,Instruments,1,stim/objects/Instruments/flute2.png,0.7,2,0.2,0.15,left,71,2021-04-15_15h04.42.338,premup-three_ses-02_part-02_label-phase2,3.2.4,Win32,60,,,,,,,,,,,,,,,,,,,,,,,,,,,,,
right,0.416999817,0,15,1,0,1,0,1,0,1,0,240,18,1,239,1,3,3,stim/33.jpeg,Instruments,1,stim/objects/Instruments/electricguitar.png,0.5,1,-0.2,0.15,left,71,2021-04-15_15h04.42.338,premup-three_ses-02_part-02_label-phase2,3.2.4,Win32,60,,,,,,,,,,,,,,,,,,,,,,,,,,,,,
left,0.5,1,16,1,0,1,0,1,0,1,0,240,200,1,239,3,2,1,stim/21.jpeg,Instruments,1,stim/objects/Instruments/guitarcase2.png,0.9,1,-0.2,0.15,left,71,2021-04-15_15h04.42.338,premup-three_ses-02_part-02_label-phase2,3.2.4,Win32,60,,,,,,,,,,,,,,,,,,,,,,,,,,,,,
left,0.541000128,0,17,1,0,1,0,1,0,1,0,240,116,1,239,2,5,1,stim/51.jpeg,HouseObjects,2,stim/objects/HouseObjects/glassmop.png,0.7,3,-0.2,-0.15,right,71,2021-04-15_15h04.42.338,premup-three_ses-02_part-02_label-phase2,3.2.4,Win32,60,,,,,,,,,,,,,,,,,,,,,,,,,,,,,
left,0.573999882,1,18,1,0,1,0,1,0,1,0,240,122,1,239,2,6,3,stim/63.jpeg,Instruments,1,stim/objects/Instruments/electricguitar2.png,0.7,3,-0.2,-0.15,left,71,2021-04-15_15h04.42.338,premup-three_ses-02_part-02_label-phase2,3.2.4,Win32,60,,,,,,,,,,,,,,,,,,,,,,,,,,,,,
right,0.498999834,1,19,1,0,1,0,1,0,1,0,240,186,1,239,3,1,3,stim/13.jpeg,HouseObjects,2,stim/objects/HouseObjects/garbagebin2.png,0.9,3,-0.2,-0.15,right,71,2021-04-15_15h04.42.338,premup-three_ses-02_part-02_label-phase2,3.2.4,Win32,60,,,,,,,,,,,,,,,,,,,,,,,,,,,,,
right,0.529999971,1,20,1,0,1,0,1,0,1,0,240,167,1,239,3,1,4,stim/14.jpeg,HouseObjects,2,stim/objects/HouseObjects/glass2.png,0.9,3,-0.2,-0.15,right,71,2021-04-15_15h04.42.338,premup-three_ses-02_part-02_label-phase2,3.2.4,Win32,60,,,,,,,,,,,,,,,,,,,,,,,,,,,,,
right,0.588000059,1,21,1,0,1,0,1,0,1,0,240,64,1,239,1,4,1,stim/41.jpeg,HouseObjects,2,stim/objects/HouseObjects/dustpan.png,0.5,4,0.2,-0.15,right,71,2021-04-15_15h04.42.338,premup-three_ses-02_part-02_label-phase2,3.2.4,Win32,60,,,,,,,,,,,,,,,,,,,,,,,,,,,,,
right,0.755999804,0,22,1,0,1,0,1,0,1,0,240,4,1,239,1,3,1,stim/31.jpeg,Instruments,1,stim/objects/Instruments/drums.png,0.5,1,-0.2,0.15,left,71,2021-04-15_15h04.42.338,premup-three_ses-02_part-02_label-phase2,3.2.4,Win32,60,,,,,,,,,,,,,,,,,,,,,,,,,,,,,
left,0.832999945,0,23,1,0,1,0,1,0,1,0,240,73,1,239,1,4,2,stim/42.jpeg,HouseObjects,2,stim/objects/HouseObjects/flyswatter.png,0.5,2,0.2,0.15,right,71,2021-04-15_15h04.42.338,premup-three_ses-02_part-02_label-phase2,3.2.4,Win32,60,,,,,,,,,,,,,,,,,,,,,,,,,,,,,
left,0.622999907,1,24,1,0,1,0,1,0,1,0,240,130,1,239,2,6,3,stim/63.jpeg,Instruments,1,stim/objects/Instruments/electricguitar2.png,0.7,2,0.2,0.15,left,71,2021-04-15_15h04.42.338,premup-three_ses-02_part-02_label-phase2,3.2.4,Win32,60,,,,,,,,,,,,,,,,,,,,,,,,,,,,,
left,0.613999844,1,25,1,0,1,0,1,0,1,0,240,80,1,239,2,5,1,stim/51.jpeg,Instruments,1,stim/objects/Instruments/guitarcase.png,0.3,3,-0.2,-0.15,left,71,2021-04-15_15h04.42.338,premup-three_ses-02_part-02_label-phase2,3.2.4,Win32,60,,,,,,,,,,,,,,,,,,,,,,,,,,,,,
left,0.5849998,1,26,1,0,1,0,1,0,1,0,240,133,1,239,2,6,2,stim/62.jpeg,Instruments,1,stim/objects/Instruments/electricdrumset2.png,0.7,4,0.2,-0.15,left,71,2021-04-15_15h04.42.338,premup-three_ses-02_part-02_label-phase2,3.2.4,Win32,60,,,,,,,,,,,,,,,,,,,,,,,,,,,,,
right,0.701999903,1,27,1,0,1,0,1,0,1,0,240,33,1,239,1,3,2,stim/32.jpeg,HouseObjects,2,stim/objects/HouseObjects/cushion.png,0.5,1,-0.2,0.15,right,71,2021-04-15_15h04.42.338,premup-three_ses-02_part-02_label-phase2,3.2.4,Win32,60,,,,,,,,,,,,,,,,,,,,,,,,,,,,,
left,0.580999851,0,28,1,0,1,0,1,0,1,0,240,149,1,239,2,6,2,stim/62.jpeg,HouseObjects,2,stim/objects/HouseObjects/cushion2.png,0.3,4,0.2,-0.15,right,71,2021-04-15_15h04.42.338,premup-three_ses-02_part-02_label-phase2,3.2.4,Win32,60,,,,,,,,,,,,,,,,,,,,,,,,,,,,,
left,0.710999727,1,29,1,0,1,0,1,0,1,0,240,220,1,239,3,2,1,stim/21.jpeg,Instruments,1,stim/objects/Instruments/guitarcase2.png,0.9,1,-0.2,0.15,left,71,2021-04-15_15h04.42.338,premup-three_ses-02_part-02_label-phase2,3.2.4,Win32,60,,,,,,,,,,,,,,,,,,,,,,,,,,,,,
right,0.714999914,1,30,1,0,1,0,1,0,1,0,240,111,1,239,2,5,4,stim/54.jpeg,HouseObjects,2,stim/objects/HouseObjects/handvacuum.png,0.7,1,-0.2,0.15,right,71,2021-04-15_15h04.42.338,premup-three_ses-02_part-02_label-phase2,3.2.4,Win32,60,,,,,,,,,,,,,,,,,,,,,,,,,,,,,
right,0.703999996,1,31,1,0,1,0,1,0,1,0,240,60,1,239,1,4,1,stim/41.jpeg,HouseObjects,2,stim/objects/HouseObjects/dustpan.png,0.5,1,-0.2,0.15,right,71,2021-04-15_15h04.42.338,premup-three_ses-02_part-02_label-phase2,3.2.4,Win32,60,,,,,,,,,,,,,,,,,,,,,,,,,,,,,
left,0.57799983,1,32,1,0,1,0,1,0,1,0,240,127,1,239,2,6,4,stim/64.jpeg,Instruments,1,stim/objects/Instruments/flute2.png,0.7,4,0.2,-0.15,left,71,2021-04-15_15h04.42.338,premup-three_ses-02_part-02_label-phase2,3.2.4,Win32,60,,,,,,,,,,,,,,,,,,,,,,,,,,,,,
right,0.838999987,0,33,1,0,1,0,1,0,1,0,240,12,1,239,1,3,1,stim/31.jpeg,Instruments,1,stim/objects/Instruments/drums.png,0.5,2,0.2,0.15,left,71,2021-04-15_15h04.42.338,premup-three_ses-02_part-02_label-phase2,3.2.4,Win32,60,,,,,,,,,,,,,,,,,,,,,,,,,,,,,
right,0.802999735,0,34,1,0,1,0,1,0,1,0,240,86,1,239,2,5,3,stim/53.jpeg,Instruments,1,stim/objects/Instruments/harp.png,0.3,4,0.2,-0.15,left,71,2021-04-15_15h04.42.338,premup-three_ses-02_part-02_label-phase2,3.2.4,Win32,60,,,,,,,,,,,,,,,,,,,,,,,,,,,,,
right,0.517999887,1,35,1,0,1,0,1,0,1,0,240,39,1,239,1,3,4,stim/34.jpeg,HouseObjects,2,stim/objects/HouseObjects/doormat.png,0.5,3,-0.2,-0.15,right,71,2021-04-15_15h04.42.338,premup-three_ses-02_part-02_label-phase2,3.2.4,Win32,60,,,,,,,,,,,,,,,,,,,,,,,,,,,,,
right,0.628999949,1,36,1,0,1,0,1,0,1,0,240,66,1,239,1,4,3,stim/43.jpeg,HouseObjects,2,stim/objects/HouseObjects/garbagebin.png,0.5,3,-0.2,-0.15,right,71,2021-04-15_15h04.42.338,premup-three_ses-02_part-02_label-phase2,3.2.4,Win32,60,,,,,,,,,,,,,,,,,,,,,,,,,,,,,
left,0.61500001,1,37,1,0,1,0,1,0,1,0,240,121,1,239,2,6,2,stim/62.jpeg,Instruments,1,stim/objects/Instruments/electricdrumset2.png,0.7,3,-0.2,-0.15,left,71,2021-04-15_15h04.42.338,premup-three_ses-02_part-02_label-phase2,3.2.4,Win32,60,,,,,,,,,,,,,,,,,,,,,,,,,,,,,
left,0.619999886,0,38,1,0,1,0,1,0,1,0,240,71,1,239,1,4,4,stim/44.jpeg,HouseObjects,2,stim/objects/HouseObjects/glass.png,0.5,3,-0.2,-0.15,right,71,2021-04-15_15h04.42.338,premup-three_ses-02_part-02_label-phase2,3.2.4,Win32,60,,,,,,,,,,,,,,,,,,,,,,,,,,,,,
left,0.67599988,1,39,1,0,1,0,1,0,1,0,240,212,1,239,3,2,1,stim/21.jpeg,Instruments,1,stim/objects/Instruments/guitarcase2.png,0.9,2,0.2,0.15,left,71,2021-04-15_15h04.42.338,premup-three_ses-02_part-02_label-phase2,3.2.4,Win32,60,,,,,,,,,,,,,,,,,,,,,,,,,,,,,
right,0.538000107,1,40,1,0,1,0,1,0,1,0,240,191,1,239,3,1,4,stim/14.jpeg,HouseObjects,2,stim/objects/HouseObjects/glass2.png,0.9,4,0.2,-0.15,right,71,2021-04-15_15h04.42.338,premup-three_ses-02_part-02_label-phase2,3.2.4,Win32,60,,,,,,,,,,,,,,,,,,,,,,,,,,,,,
left,0.523000002,1,41,1,0,1,0,1,0,1,0,240,132,1,239,2,6,1,stim/61.jpeg,Instruments,1,stim/objects/Instruments/drums2.png,0.7,3,-0.2,-0.15,left,71,2021-04-15_15h04.42.338,premup-three_ses-02_part-02_label-phase2,3.2.4,Win32,60,,,,,,,,,,,,,,,,,,,,,,,,,,,,,
right,0.690999985,0,42,1,0,1,0,1,0,1,0,240,52,1,239,1,4,1,stim/41.jpeg,Instruments,1,stim/objects/Instruments/flutetrans.png,0.5,2,0.2,0.15,left,71,2021-04-15_15h04.42.338,premup-three_ses-02_part-02_label-phase2,3.2.4,Win32,60,,,,,,,,,,,,,,,,,,,,,,,,,,,,,
left,0.875,0,43,1,0,1,0,1,0,1,0,240,35,1,239,1,3,4,stim/34.jpeg,HouseObjects,2,stim/objects/HouseObjects/doormat.png,0.5,3,-0.2,-0.15,right,71,2021-04-15_15h04.42.338,premup-three_ses-02_part-02_label-phase2,3.2.4,Win32,60,,,,,,,,,,,,,,,,,,,,,,,,,,,,,
right,0.575000048,1,44,1,0,1,0,1,0,1,0,240,164,1,239,3,1,1,stim/11.jpeg,HouseObjects,2,stim/objects/HouseObjects/dustpan2.png,0.9,1,-0.2,0.15,right,71,2021-04-15_15h04.42.338,premup-three_ses-02_part-02_label-phase2,3.2.4,Win32,60,,,,,,,,,,,,,,,,,,,,,,,,,,,,,
right,0.546000004,0,45,1,0,1,0,1,0,1,0,240,163,1,239,3,1,4,stim/14.jpeg,Instruments,1,stim/objects/Instruments/grandpiano2.png,0.1,2,0.2,0.15,left,71,2021-04-15_15h04.42.338,premup-three_ses-02_part-02_label-phase2,3.2.4,Win32,60,,,,,,,,,,,,,,,,,,,,,,,,,,,,,
left,0.558999777,1,46,1,0,1,0,1,0,1,0,240,224,1,239,3,2,1,stim/21.jpeg,Instruments,1,stim/objects/Instruments/guitarcase2.png,0.9,2,0.2,0.15,left,71,2021-04-15_15h04.42.338,premup-three_ses-02_part-02_label-phase2,3.2.4,Win32,60,,,,,,,,,,,,,,,,,,,,,,,,,,,,,
right,0.532000065,1,47,1,0,1,0,1,0,1,0,240,77,1,239,1,4,2,stim/42.jpeg,HouseObjects,2,stim/objects/HouseObjects/flyswatter.png,0.5,2,0.2,0.15,right,71,2021-04-15_15h04.42.338,premup-three_ses-02_part-02_label-phase2,3.2.4,Win32,60,,,,,,,,,,,,,,,,,,,,,,,,,,,,,
left,0.497999907,1,48,1,0,1,0,1,0,1,0,240,137,1,239,2,6,2,stim/62.jpeg,Instruments,1,stim/objects/Instruments/electricdrumset2.png,0.7,2,0.2,0.15,left,71,2021-04-15_15h04.42.338,premup-three_ses-02_part-02_label-phase2,3.2.4,Win32,60,,,,,,,,,,,,,,,,,,,,,,,,,,,,,
right,0.549999952,0,49,1,0,1,0,1,0,1,0,240,81,1,239,2,5,2,stim/52.jpeg,Instruments,1,stim/objects/Instruments/harmonica.png,0.3,1,-0.2,0.15,left,71,2021-04-15_15h04.42.338,premup-three_ses-02_part-02_label-phase2,3.2.4,Win32,60,,,,,,,,,,,,,,,,,,,,,,,,,,,,,
left,0.681999922,1,50,1,0,1,0,1,0,1,0,240,147,1,239,2,6,4,stim/64.jpeg,Instruments,1,stim/objects/Instruments/flute2.png,0.7,4,0.2,-0.15,left,71,2021-04-15_15h04.42.338,premup-three_ses-02_part-02_label-phase2,3.2.4,Win32,60,,,,,,,,,,,,,,,,,,,,,,,,,,,,,
left,0.698999882,0,51,1,0,1,0,1,0,1,0,240,155,1,239,2,6,4,stim/64.jpeg,HouseObjects,2,stim/objects/HouseObjects/doormat2.png,0.3,1,-0.2,0.15,right,71,2021-04-15_15h04.42.338,premup-three_ses-02_part-02_label-phase2,3.2.4,Win32,60,,,,,,,,,,,,,,,,,,,,,,,,,,,,,
right,0.622999907,0,52,1,0,1,0,1,0,1,0,240,51,1,239,1,4,4,stim/44.jpeg,Instruments,1,stim/objects/Instruments/grandpiano.png,0.5,3,-0.2,-0.15,left,71,2021-04-15_15h04.42.338,premup-three_ses-02_part-02_label-phase2,3.2.4,Win32,60,,,,,,,,,,,,,,,,,,,,,,,,,,,,,
right,0.582000017,1,53,1,0,1,0,1,0,1,0,240,184,1,239,3,1,1,stim/11.jpeg,HouseObjects,2,stim/objects/HouseObjects/dustpan2.png,0.9,1,-0.2,0.15,right,71,2021-04-15_15h04.42.338,premup-three_ses-02_part-02_label-phase2,3.2.4,Win32,60,,,,,,,,,,,,,,,,,,,,,,,,,,,,,
right,0.590999842,1,54,1,0,1,0,1,0,1,0,240,197,1,239,3,1,2,stim/12.jpeg,HouseObjects,2,stim/objects/HouseObjects/flyswatter2.png,0.9,2,0.2,0.15,right,71,2021-04-15_15h04.42.338,premup-three_ses-02_part-02_label-phase2,3.2.4,Win32,60,,,,,,,,,,,,,,,,,,,,,,,,,,,,,
right,0.672999859,0,55,1,0,1,0,1,0,1,0,240,11,1,239,1,3,4,stim/34.jpeg,Instruments,1,stim/objects/Instruments/flute.png,0.5,2,0.2,0.15,left,71,2021-04-15_15h04.42.338,premup-three_ses-02_part-02_label-phase2,3.2.4,Win32,60,,,,,,,,,,,,,,,,,,,,,,,,,,,,,
left,0.730999947,0,56,1,0,1,0,1,0,1,0,240,237,1,239,3,2,2,stim/22.jpeg,HouseObjects,2,stim/objects/HouseObjects/hairdryer2.png,0.1,2,0.2,0.15,right,71,2021-04-15_15h04.42.338,premup-three_ses-02_part-02_label-phase2,3.2.4,Win32,60,,,,,,,,,,,,,,,,,,,,,,,,,,,,,
right,0.592999935,1,57,1,0,1,0,1,0,1,0,240,114,1,239,2,5,3,stim/53.jpeg,HouseObjects,2,stim/objects/HouseObjects/handbrush.png,0.7,3,-0.2,-0.15,right,71,2021-04-15_15h04.42.338,premup-three_ses-02_part-02_label-phase2,3.2.4,Win32,60,,,,,,,,,,,,,,,,,,,,,,,,,,,,,
right,0.609999895,1,58,1,0,1,0,1,0,1,0,240,103,1,239,2,5,4,stim/54.jpeg,HouseObjects,2,stim/objects/HouseObjects/handvacuum.png,0.7,4,0.2,-0.15,right,71,2021-04-15_15h04.42.338,premup-three_ses-02_part-02_label-phase2,3.2.4,Win32,60,,,,,,,,,,,,,,,,,,,,,,,,,,,,,
right,0.626999855,1,59,1,0,1,0,1,0,1,0,240,38,1,239,1,3,3,stim/33.jpeg,HouseObjects,2,stim/objects/HouseObjects/dishsoap.png,0.5,3,-0.2,-0.15,right,71,2021-04-15_15h04.42.338,premup-three_ses-02_part-02_label-phase2,3.2.4,Win32,60,,,,,,,,,,,,,,,,,,,,,,,,,,,,,
left,0.540999889,0,60,1,0,1,0,1,0,1,0,240,157,1,239,2,6,2,stim/62.jpeg,HouseObjects,2,stim/objects/HouseObjects/cushion2.png,0.3,1,-0.2,0.15,right,71,2021-04-15_15h04.42.338,premup-three_ses-02_part-02_label-phase2,3.2.4,Win32,60,,,,,,,,,,,,,,,,,,,,,,,,,,,,,
right,0.540999889,1,61,1,0,1,0,1,0,1,0,240,165,1,239,3,1,2,stim/12.jpeg,HouseObjects,2,stim/objects/HouseObjects/flyswatter2.png,0.9,1,-0.2,0.15,right,71,2021-04-15_15h04.42.338,premup-three_ses-02_part-02_label-phase2,3.2.4,Win32,60,,,,,,,,,,,,,,,,,,,,,,,,,,,,,
right,0.529000044,0,62,1,0,1,0,1,0,1,0,240,41,1,239,1,4,2,stim/42.jpeg,Instruments,1,stim/objects/Instruments/frenchhorn.png,0.5,2,0.2,0.15,left,71,2021-04-15_15h04.42.338,premup-three_ses-02_part-02_label-phase2,3.2.4,Win32,60,,,,,,,,,,,,,,,,,,,,,,,,,,,,,
right,0.605999947,0,63,1,0,1,0,1,0,1,0,240,162,1,239,3,1,3,stim/13.jpeg,Instruments,1,stim/objects/Instruments/gong2.png,0.1,2,0.2,0.15,left,71,2021-04-15_15h04.42.338,premup-three_ses-02_part-02_label-phase2,3.2.4,Win32,60,,,,,,,,,,,,,,,,,,,,,,,,,,,,,
right,0.5849998,1,64,1,0,1,0,1,0,1,0,240,93,1,239,2,5,2,stim/52.jpeg,HouseObjects,2,stim/objects/HouseObjects/hairdryer.png,0.7,3,-0.2,-0.15,right,71,2021-04-15_15h04.42.338,premup-three_ses-02_part-02_label-phase2,3.2.4,Win32,60,,,,,,,,,,,,,,,,,,,,,,,,,,,,,
left,0.579999924,1,65,1,0,1,0,1,0,1,0,240,208,1,239,3,2,1,stim/21.jpeg,Instruments,1,stim/objects/Instruments/guitarcase2.png,0.9,1,-0.2,0.15,left,71,2021-04-15_15h04.42.338,premup-three_ses-02_part-02_label-phase2,3.2.4,Win32,60,,,,,,,,,,,,,,,,,,,,,,,,,,,,,
right,0.618000031,0,66,1,0,1,0,1,0,1,0,240,87,1,239,2,5,4,stim/54.jpeg,Instruments,1,stim/objects/Instruments/hihat.png,0.3,2,0.2,0.15,left,71,2021-04-15_15h04.42.338,premup-three_ses-02_part-02_label-phase2,3.2.4,Win32,60,,,,,,,,,,,,,,,,,,,,,,,,,,,,,
right,0.553999901,1,67,1,0,1,0,1,0,1,0,240,175,1,239,3,1,4,stim/14.jpeg,HouseObjects,2,stim/objects/HouseObjects/glass2.png,0.9,2,0.2,0.15,right,71,2021-04-15_15h04.42.338,premup-three_ses-02_part-02_label-phase2,3.2.4,Win32,60,,,,,,,,,,,,,,,,,,,,,,,,,,,,,
left,0.642999887,1,68,1,0,1,0,1,0,1,0,240,226,1,239,3,2,3,stim/23.jpeg,Instruments,1,stim/objects/Instruments/harp2.png,0.9,1,-0.2,0.15,left,71,2021-04-15_15h04.42.338,premup-three_ses-02_part-02_label-phase2,3.2.4,Win32,60,,,,,,,,,,,,,,,,,,,,,,,,,,,,,
right,0.563999891,1,69,1,0,1,0,1,0,1,0,240,172,1,239,3,1,1,stim/11.jpeg,HouseObjects,2,stim/objects/HouseObjects/dustpan2.png,0.9,2,0.2,0.15,right,71,2021-04-15_15h04.42.338,premup-three_ses-02_part-02_label-phase2,3.2.4,Win32,60,,,,,,,,,,,,,,,,,,,,,,,,,,,,,
left,0.616999865,0,70,1,0,1,0,1,0,1,0,240,67,1,239,1,4,4,stim/44.jpeg,HouseObjects,2,stim/objects/HouseObjects/glass.png,0.5,2,0.2,0.15,right,71,2021-04-15_15h04.42.338,premup-three_ses-02_part-02_label-phase2,3.2.4,Win32,60,,,,,,,,,,,,,,,,,,,,,,,,,,,,,
,,0,71,1,0,1,0,1,0,1,0,240,5,1,239,1,3,2,stim/32.jpeg,Instruments,1,stim/objects/Instruments/electricdrumset.png,0.5,3,-0.2,-0.15,left,71,2021-04-15_15h04.42.338,premup-three_ses-02_part-02_label-phase2,3.2.4,Win32,60,,,,,,,,,,,,,,,,,,,,,,,,,,,,,
right,0.738999844,1,72,1,0,1,0,1,0,1,0,240,185,1,239,3,1,2,stim/12.jpeg,HouseObjects,2,stim/objects/HouseObjects/flyswatter2.png,0.9,2,0.2,0.15,right,71,2021-04-15_15h04.42.338,premup-three_ses-02_part-02_label-phase2,3.2.4,Win32,60,,,,,,,,,,,,,,,,,,,,,,,,,,,,,
right,0.605000019,0,73,1,0,1,0,1,0,1,0,240,221,1,239,3,2,2,stim/22.jpeg,Instruments,1,stim/objects/Instruments/harmonica2.png,0.9,2,0.2,0.15,left,71,2021-04-15_15h04.42.338,premup-three_ses-02_part-02_label-phase2,3.2.4,Win32,60,,,,,,,,,,,,,,,,,,,,,,,,,,,,,
left,0.661999941,1,74,1,0,1,0,1,0,1,0,240,229,1,239,3,2,2,stim/22.jpeg,Instruments,1,stim/objects/Instruments/harmonica2.png,0.9,3,-0.2,-0.15,left,71,2021-04-15_15h04.42.338,premup-three_ses-02_part-02_label-phase2,3.2.4,Win32,60,,,,,,,,,,,,,,,,,,,,,,,,,,,,,
right,0.501999855,1,75,1,0,1,0,1,0,1,0,240,115,1,239,2,5,4,stim/54.jpeg,HouseObjects,2,stim/objects/HouseObjects/handvacuum.png,0.7,4,0.2,-0.15,right,71,2021-04-15_15h04.42.338,premup-three_ses-02_part-02_label-phase2,3.2.4,Win32,60,,,,,,,,,,,,,,,,,,,,,,,,,,,,,
right,0.727999926,0,76,1,0,1,0,1,0,1,0,240,7,1,239,1,3,4,stim/34.jpeg,Instruments,1,stim/objects/Instruments/flute.png,0.5,3,-0.2,-0.15,left,71,2021-04-15_15h04.42.338,premup-three_ses-02_part-02_label-phase2,3.2.4,Win32,60,,,,,,,,,,,,,,,,,,,,,,,,,,,,,
right,0.575999737,1,77,1,0,1,0,1,0,1,0,240,113,1,239,2,5,2,stim/52.jpeg,HouseObjects,2,stim/objects/HouseObjects/hairdryer.png,0.7,3,-0.2,-0.15,right,71,2021-04-15_15h04.42.338,premup-three_ses-02_part-02_label-phase2,3.2.4,Win32,60,,,,,,,,,,,,,,,,,,,,,,,,,,,,,
right,0.614999771,1,78,1,0,1,0,1,0,1,0,240,94,1,239,2,5,3,stim/53.jpeg,HouseObjects,2,stim/objects/HouseObjects/handbrush.png,0.7,3,-0.2,-0.15,right,71,2021-04-15_15h04.42.338,premup-three_ses-02_part-02_label-phase2,3.2.4,Win32,60,,,,,,,,,,,,,,,,,,,,,,,,,,,,,
left,0.611000061,1,79,1,0,1,0,1,0,1,0,240,13,1,239,1,3,2,stim/32.jpeg,Instruments,1,stim/objects/Instruments/electricdrumset.png,0.5,4,0.2,-0.15,left,71,2021-04-15_15h04.42.338,premup-three_ses-02_part-02_label-phase2,3.2.4,Win32,60,,,,,,,,,,,,,,,,,,,,,,,,,,,,,
left,0.645999908,1,80,1,0,1,0,1,0,1,0,240,228,1,239,3,2,1,stim/21.jpeg,Instruments,1,stim/objects/Instruments/guitarcase2.png,0.9,2,0.2,0.15,left,71,2021-04-15_15h04.42.338,premup-three_ses-02_part-02_label-phase2,3.2.4,Win32,60,,,,,,,,,,,,,,,,,,,,,,,,,,,,,
left,0.437000036,1,81,1,0,1,0,1,0,1,0,240,204,1,239,3,2,1,stim/21.jpeg,Instruments,1,stim/objects/Instruments/guitarcase2.png,0.9,4,0.2,-0.15,left,71,2021-04-15_15h04.42.338,premup-three_ses-02_part-02_label-phase2,3.2.4,Win32,60,,,,,,,,,,,,,,,,,,,,,,,,,,,,,
right,0.565000057,1,82,1,0,1,0,1,0,1,0,240,100,1,239,2,5,1,stim/51.jpeg,HouseObjects,2,stim/objects/HouseObjects/glassmop.png,0.7,4,0.2,-0.15,right,71,2021-04-15_15h04.42.338,premup-three_ses-02_part-02_label-phase2,3.2.4,Win32,60,,,,,,,,,,,,,,,,,,,,,,,,,,,,,
right,0.604000092,1,83,1,0,1,0,1,0,1,0,240,97,1,239,2,5,2,stim/52.jpeg,HouseObjects,2,stim/objects/HouseObjects/hairdryer.png,0.7,1,-0.2,0.15,right,71,2021-04-15_15h04.42.338,premup-three_ses-02_part-02_label-phase2,3.2.4,Win32,60,,,,,,,,,,,,,,,,,,,,,,,,,,,,,
right,0.477999926,0,84,1,0,1,0,1,0,1,0,240,9,1,239,1,3,2,stim/32.jpeg,Instruments,1,stim/objects/Instruments/electricdrumset.png,0.5,4,0.2,-0.15,left,71,2021-04-15_15h04.42.338,premup-three_ses-02_part-02_label-phase2,3.2.4,Win32,60,,,,,,,,,,,,,,,,,,,,,,,,,,,,,
right,0.622999907,1,85,1,0,1,0,1,0,1,0,240,178,1,239,3,1,3,stim/13.jpeg,HouseObjects,2,stim/objects/HouseObjects/garbagebin2.png,0.9,2,0.2,0.15,right,71,2021-04-15_15h04.42.338,premup-three_ses-02_part-02_label-phase2,3.2.4,Win32,60,,,,,,,,,,,,,,,,,,,,,,,,,,,,,
right,0.572999954,0,86,1,0,1,0,1,0,1,0,240,91,1,239,2,5,4,stim/54.jpeg,Instruments,1,stim/objects/Instruments/hihat.png,0.3,2,0.2,0.15,left,71,2021-04-15_15h04.42.338,premup-three_ses-02_part-02_label-phase2,3.2.4,Win32,60,,,,,,,,,,,,,,,,,,,,,,,,,,,,,
left,0.56099987,0,87,1,0,1,0,1,0,1,0,240,148,1,239,2,6,1,stim/61.jpeg,HouseObjects,2,stim/objects/HouseObjects/coffee2.png,0.3,3,-0.2,-0.15,right,71,2021-04-15_15h04.42.338,premup-three_ses-02_part-02_label-phase2,3.2.4,Win32,60,,,,,,,,,,,,,,,,,,,,,,,,,,,,,
left,0.539999962,1,88,1,0,1,0,1,0,1,0,240,219,1,239,3,2,4,stim/24.jpeg,Instruments,1,stim/objects/Instruments/hihat2.png,0.9,1,-0.2,0.15,left,71,2021-04-15_15h04.42.338,premup-three_ses-02_part-02_label-phase2,3.2.4,Win32,60,,,,,,,,,,,,,,,,,,,,,,,,,,,,,
right,0.562000036,1,89,1,0,1,0,1,0,1,0,240,74,1,239,1,4,3,stim/43.jpeg,HouseObjects,2,stim/objects/HouseObjects/garbagebin.png,0.5,3,-0.2,-0.15,right,71,2021-04-15_15h04.42.338,premup-three_ses-02_part-02_label-phase2,3.2.4,Win32,60,,,,,,,,,,,,,,,,,,,,,,,,,,,,,
left,0.582000017,1,90,1,0,1,0,1,0,1,0,240,141,1,239,2,6,2,stim/62.jpeg,Instruments,1,stim/objects/Instruments/electricdrumset2.png,0.7,1,-0.2,0.15,left,71,2021-04-15_15h04.42.338,premup-three_ses-02_part-02_label-phase2,3.2.4,Win32,60,,,,,,,,,,,,,,,,,,,,,,,,,,,,,
right,0.600999832,1,91,1,0,1,0,1,0,1,0,240,109,1,239,2,5,2,stim/52.jpeg,HouseObjects,2,stim/objects/HouseObjects/hairdryer.png,0.7,4,0.2,-0.15,right,71,2021-04-15_15h04.42.338,premup-three_ses-02_part-02_label-phase2,3.2.4,Win32,60,,,,,,,,,,,,,,,,,,,,,,,,,,,,,
right,0.53399992,1,92,1,0,1,0,1,0,1,0,240,194,1,239,3,1,3,stim/13.jpeg,HouseObjects,2,stim/objects/HouseObjects/garbagebin2.png,0.9,1,-0.2,0.15,right,71,2021-04-15_15h04.42.338,premup-three_ses-02_part-02_label-phase2,3.2.4,Win32,60,,,,,,,,,,,,,,,,,,,,,,,,,,,,,
right,0.562999964,1,93,1,0,1,0,1,0,1,0,240,102,1,239,2,5,3,stim/53.jpeg,HouseObjects,2,stim/objects/HouseObjects/handbrush.png,0.7,1,-0.2,0.15,right,71,2021-04-15_15h04.42.338,premup-three_ses-02_part-02_label-phase2,3.2.4,Win32,60,,,,,,,,,,,,,,,,,,,,,,,,,,,,,
left,0.683999777,1,94,1,0,1,0,1,0,1,0,240,19,1,239,1,3,4,stim/34.jpeg,Instruments,1,stim/objects/Instruments/flute.png,0.5,1,-0.2,0.15,left,71,2021-04-15_15h04.42.338,premup-three_ses-02_part-02_label-phase2,3.2.4,Win32,60,,,,,,,,,,,,,,,,,,,,,,,,,,,,,
right,0.5,1,95,1,0,1,0,1,0,1,0,240,182,1,239,3,1,3,stim/13.jpeg,HouseObjects,2,stim/objects/HouseObjects/garbagebin2.png,0.9,1,-0.2,0.15,right,71,2021-04-15_15h04.42.338,premup-three_ses-02_part-02_label-phase2,3.2.4,Win32,60,,,,,,,,,,,,,,,,,,,,,,,,,,,,,
right,0.614000082,1,96,1,0,1,0,1,0,1,0,240,76,1,239,1,4,1,stim/41.jpeg,HouseObjects,2,stim/objects/HouseObjects/dustpan.png,0.5,4,0.2,-0.15,right,71,2021-04-15_15h04.42.338,premup-three_ses-02_part-02_label-phase2,3.2.4,Win32,60,,,,,,,,,,,,,,,,,,,,,,,,,,,,,
left,0.655999899,1,97,1,0,1,0,1,0,1,0,240,120,1,239,2,6,1,stim/61.jpeg,Instruments,1,stim/objects/Instruments/drums2.png,0.7,1,-0.2,0.15,left,71,2021-04-15_15h04.42.338,premup-three_ses-02_part-02_label-phase2,3.2.4,Win32,60,,,,,,,,,,,,,,,,,,,,,,,,,,,,,
right,0.537999868,0,98,1,0,1,0,1,0,1,0,240,160,1,239,3,1,1,stim/11.jpeg,Instruments,1,stim/objects/Instruments/flutetrans2.png,0.1,3,-0.2,-0.15,left,71,2021-04-15_15h04.42.338,premup-three_ses-02_part-02_label-phase2,3.2.4,Win32,60,,,,,,,,,,,,,,,,,,,,,,,,,,,,,
right,0.563999891,0,99,1,0,1,0,1,0,1,0,240,40,1,239,1,4,1,stim/41.jpeg,Instruments,1,stim/objects/Instruments/flutetrans.png,0.5,2,0.2,0.15,left,71,2021-04-15_15h04.42.338,premup-three_ses-02_part-02_label-phase2,3.2.4,Win32,60,,,,,,,,,,,,,,,,,,,,,,,,,,,,,
right,0.654000044,0,100,1,0,1,0,1,0,1,0,240,43,1,239,1,4,4,stim/44.jpeg,Instruments,1,stim/objects/Instruments/grandpiano.png,0.5,3,-0.2,-0.15,left,71,2021-04-15_15h04.42.338,premup-three_ses-02_part-02_label-phase2,3.2.4,Win32,60,,,,,,,,,,,,,,,,,,,,,,,,,,,,,
left,0.58100009,0,101,1,0,1,0,1,0,1,0,240,153,1,239,2,6,2,stim/62.jpeg,HouseObjects,2,stim/objects/HouseObjects/cushion2.png,0.3,2,0.2,0.15,right,71,2021-04-15_15h04.42.338,premup-three_ses-02_part-02_label-phase2,3.2.4,Win32,60,,,,,,,,,,,,,,,,,,,,,,,,,,,,,
left,0.523999929,0,102,1,0,1,0,1,0,1,0,240,236,1,239,3,2,1,stim/21.jpeg,HouseObjects,2,stim/objects/HouseObjects/glassmop2.png,0.1,3,-0.2,-0.15,right,71,2021-04-15_15h04.42.338,premup-three_ses-02_part-02_label-phase2,3.2.4,Win32,60,,,,,,,,,,,,,,,,,,,,,,,,,,,,,
right,0.621999979,1,103,1,0,1,0,1,0,1,0,240,198,1,239,3,1,3,stim/13.jpeg,HouseObjects,2,stim/objects/HouseObjects/garbagebin2.png,0.9,3,-0.2,-0.15,right,71,2021-04-15_15h04.42.338,premup-three_ses-02_part-02_label-phase2,3.2.4,Win32,60,,,,,,,,,,,,,,,,,,,,,,,,,,,,,
left,0.628999949,1,104,1,0,1,0,1,0,1,0,240,126,1,239,2,6,3,stim/63.jpeg,Instruments,1,stim/objects/Instruments/electricguitar2.png,0.7,1,-0.2,0.15,left,71,2021-04-15_15h04.42.338,premup-three_ses-02_part-02_label-phase2,3.2.4,Win32,60,,,,,,,,,,,,,,,,,,,,,,,,,,,,,
right,0.769999743,1,105,1,0,1,0,1,0,1,0,240,23,1,239,1,3,4,stim/34.jpeg,HouseObjects,2,stim/objects/HouseObjects/doormat.png,0.5,1,-0.2,0.15,right,71,2021-04-15_15h04.42.338,premup-three_ses-02_part-02_label-phase2,3.2.4,Win32,60,,,,,,,,,,,,,,,,,,,,,,,,,,,,,
left,0.566999912,1,106,1,0,1,0,1,0,1,0,240,215,1,239,3,2,4,stim/24.jpeg,Instruments,1,stim/objects/Instruments/hihat2.png,0.9,4,0.2,-0.15,left,71,2021-04-15_15h04.42.338,premup-three_ses-02_part-02_label-phase2,3.2.4,Win32,60,,,,,,,,,,,,,,,,,,,,,,,,,,,,,
left,0.459000111,1,107,1,0,1,0,1,0,1,0,240,231,1,239,3,2,4,stim/24.jpeg,Instruments,1,stim/objects/Instruments/hihat2.png,0.9,4,0.2,-0.15,left,71,2021-04-15_15h04.42.338,premup-three_ses-02_part-02_label-phase2,3.2.4,Win32,60,,,,,,,,,,,,,,,,,,,,,,,,,,,,,
right,0.577000141,1,108,1,0,1,0,1,0,1,0,240,20,1,239,1,3,1,stim/31.jpeg,HouseObjects,2,stim/objects/HouseObjects/coffee.png,0.5,1,-0.2,0.15,right,71,2021-04-15_15h04.42.338,premup-three_ses-02_part-02_label-phase2,3.2.4,Win32,60,,,,,,,,,,,,,,,,,,,,,,,,,,,,,
left,0.583999872,0,109,1,0,1,0,1,0,1,0,240,238,1,239,3,2,3,stim/23.jpeg,HouseObjects,2,stim/objects/HouseObjects/handbrush2.png,0.1,4,0.2,-0.15,right,71,2021-04-15_15h04.42.338,premup-three_ses-02_part-02_label-phase2,3.2.4,Win32,60,,,,,,,,,,,,,,,,,,,,,,,,,,,,,
left,0.575999975,1,110,1,0,1,0,1,0,1,0,240,124,1,239,2,6,1,stim/61.jpeg,Instruments,1,stim/objects/Instruments/drums2.png,0.7,2,0.2,0.15,left,71,2021-04-15_15h04.42.338,premup-three_ses-02_part-02_label-phase2,3.2.4,Win32,60,,,,,,,,,,,,,,,,,,,,,,,,,,,,,
right,0.522999763,1,111,1,0,1,0,1,0,1,0,240,101,1,239,2,5,2,stim/52.jpeg,HouseObjects,2,stim/objects/HouseObjects/hairdryer.png,0.7,2,0.2,0.15,right,71,2021-04-15_15h04.42.338,premup-three_ses-02_part-02_label-phase2,3.2.4,Win32,60,,,,,,,,,,,,,,,,,,,,,,,,,,,,,
left,0.569999933,0,112,1,0,1,0,1,0,1,0,240,118,1,239,2,5,3,stim/53.jpeg,HouseObjects,2,stim/objects/HouseObjects/handbrush.png,0.7,3,-0.2,-0.15,right,71,2021-04-15_15h04.42.338,premup-three_ses-02_part-02_label-phase2,3.2.4,Win32,60,,,,,,,,,,,,,,,,,,,,,,,,,,,,,
left,0.743999958,1,113,1,0,1,0,1,0,1,0,240,211,1,239,3,2,4,stim/24.jpeg,Instruments,1,stim/objects/Instruments/hihat2.png,0.9,3,-0.2,-0.15,left,71,2021-04-15_15h04.42.338,premup-three_ses-02_part-02_label-phase2,3.2.4,Win32,60,,,,,,,,,,,,,,,,,,,,,,,,,,,,,
right,0.617999792,1,114,1,0,1,0,1,0,1,0,240,112,1,239,2,5,1,stim/51.jpeg,HouseObjects,2,stim/objects/HouseObjects/glassmop.png,0.7,4,0.2,-0.15,right,71,2021-04-15_15h04.42.338,premup-three_ses-02_part-02_label-phase2,3.2.4,Win32,60,,,,,,,,,,,,,,,,,,,,,,,,,,,,,
right,0.635999918,1,115,1,0,1,0,1,0,1,0,240,177,1,239,3,1,2,stim/12.jpeg,HouseObjects,2,stim/objects/HouseObjects/flyswatter2.png,0.9,4,0.2,-0.15,right,71,2021-04-15_15h04.42.338,premup-three_ses-02_part-02_label-phase2,3.2.4,Win32,60,,,,,,,,,,,,,,,,,,,,,,,,,,,,,
right,0.794999838,0,116,1,0,1,0,1,0,1,0,240,17,1,239,1,3,2,stim/32.jpeg,Instruments,1,stim/objects/Instruments/electricdrumset.png,0.5,2,0.2,0.15,left,71,2021-04-15_15h04.42.338,premup-three_ses-02_part-02_label-phase2,3.2.4,Win32,60,,,,,,,,,,,,,,,,,,,,,,,,,,,,,
left,0.630999804,0,117,1,0,1,0,1,0,1,0,240,150,1,239,2,6,3,stim/63.jpeg,HouseObjects,2,stim/objects/HouseObjects/dishsoap2.png,0.3,4,0.2,-0.15,right,71,2021-04-15_15h04.42.338,premup-three_ses-02_part-02_label-phase2,3.2.4,Win32,60,,,,,,,,,,,,,,,,,,,,,,,,,,,,,
left,0.524999857,1,118,1,0,1,0,1,0,1,0,240,134,1,239,2,6,3,stim/63.jpeg,Instruments,1,stim/objects/Instruments/electricguitar2.png,0.7,2,0.2,0.15,left,71,2021-04-15_15h04.42.338,premup-three_ses-02_part-02_label-phase2,3.2.4,Win32,60,,,,,,,,,,,,,,,,,,,,,,,,,,,,,
right,0.717000008,0,119,1,0,1,0,1,0,1,0,240,54,1,239,1,4,3,stim/43.jpeg,Instruments,1,stim/objects/Instruments/gong.png,0.5,2,0.2,0.15,left,71,2021-04-15_15h04.42.338,premup-three_ses-02_part-02_label-phase2,3.2.4,Win32,60,,,,,,,,,,,,,,,,,,,,,,,,,,,,,
right,0.648000002,1,120,1,0,1,0,1,0,1,0,240,29,1,239,1,3,2,stim/32.jpeg,HouseObjects,2,stim/objects/HouseObjects/cushion.png,0.5,1,-0.2,0.15,right,71,2021-04-15_15h04.42.338,premup-three_ses-02_part-02_label-phase2,3.2.4,Win32,60,,,,,,,,,,,,,,,,,,,,,,,,,,,,,
right,0.789999962,1,121,1,0,1,0,1,0,1,0,240,68,1,239,1,4,1,stim/41.jpeg,HouseObjects,2,stim/objects/HouseObjects/dustpan.png,0.5,4,0.2,-0.15,right,71,2021-04-15_15h04.42.338,premup-three_ses-02_part-02_label-phase2,3.2.4,Win32,60,,,,,,,,,,,,,,,,,,,,,,,,,,,,,
left,0.745999813,0,122,1,0,1,0,1,0,1,0,240,24,1,239,1,3,1,stim/31.jpeg,HouseObjects,2,stim/objects/HouseObjects/coffee.png,0.5,2,0.2,0.15,right,71,2021-04-15_15h04.42.338,premup-three_ses-02_part-02_label-phase2,3.2.4,Win32,60,,,,,,,,,,,,,,,,,,,,,,,,,,,,,
,,0,123,1,0,1,0,1,0,1,0,240,78,1,239,1,4,3,stim/43.jpeg,HouseObjects,2,stim/objects/HouseObjects/garbagebin.png,0.5,1,-0.2,0.15,right,71,2021-04-15_15h04.42.338,premup-three_ses-02_part-02_label-phase2,3.2.4,Win32,60,,,,,,,,,,,,,,,,,,,,,,,,,,,,,
right,0.695999861,1,124,1,0,1,0,1,0,1,0,240,21,1,239,1,3,2,stim/32.jpeg,HouseObjects,2,stim/objects/HouseObjects/cushion.png,0.5,1,-0.2,0.15,right,71,2021-04-15_15h04.42.338,premup-three_ses-02_part-02_label-phase2,3.2.4,Win32,60,,,,,,,,,,,,,,,,,,,,,,,,,,,,,
left,0.520999908,1,125,1,0,1,0,1,0,1,0,240,235,1,239,3,2,4,stim/24.jpeg,Instruments,1,stim/objects/Instruments/hihat2.png,0.9,3,-0.2,-0.15,left,71,2021-04-15_15h04.42.338,premup-three_ses-02_part-02_label-phase2,3.2.4,Win32,60,,,,,,,,,,,,,,,,,,,,,,,,,,,,,
right,0.598999977,1,126,1,0,1,0,1,0,1,0,240,79,1,239,1,4,4,stim/44.jpeg,HouseObjects,2,stim/objects/HouseObjects/glass.png,0.5,1,-0.2,0.15,right,71,2021-04-15_15h04.42.338,premup-three_ses-02_part-02_label-phase2,3.2.4,Win32,60,,,,,,,,,,,,,,,,,,,,,,,,,,,,,
right,0.502999783,1,127,1,0,1,0,1,0,1,0,240,106,1,239,2,5,3,stim/53.jpeg,HouseObjects,2,stim/objects/HouseObjects/handbrush.png,0.7,3,-0.2,-0.15,right,71,2021-04-15_15h04.42.338,premup-three_ses-02_part-02_label-phase2,3.2.4,Win32,60,,,,,,,,,,,,,,,,,,,,,,,,,,,,,
right,0.548999786,1,128,1,0,1,0,1,0,1,0,240,181,1,239,3,1,2,stim/12.jpeg,HouseObjects,2,stim/objects/HouseObjects/flyswatter2.png,0.9,4,0.2,-0.15,right,71,2021-04-15_15h04.42.338,premup-three_ses-02_part-02_label-phase2,3.2.4,Win32,60,,,,,,,,,,,,,,,,,,,,,,,,,,,,,
left,0.786000013,1,129,1,0,1,0,1,0,1,0,240,207,1,239,3,2,4,stim/24.jpeg,Instruments,1,stim/objects/Instruments/hihat2.png,0.9,4,0.2,-0.15,left,71,2021-04-15_15h04.42.338,premup-three_ses-02_part-02_label-phase2,3.2.4,Win32,60,,,,,,,,,,,,,,,,,,,,,,,,,,,,,
right,0.562999964,0,130,1,0,1,0,1,0,1,0,240,88,1,239,2,5,1,stim/51.jpeg,Instruments,1,stim/objects/Instruments/guitarcase.png,0.3,1,-0.2,0.15,left,71,2021-04-15_15h04.42.338,premup-three_ses-02_part-02_label-phase2,3.2.4,Win32,60,,,,,,,,,,,,,,,,,,,,,,,,,,,,,
right,0.526000023,1,131,1,0,1,0,1,0,1,0,240,169,1,239,3,1,2,stim/12.jpeg,HouseObjects,2,stim/objects/HouseObjects/flyswatter2.png,0.9,1,-0.2,0.15,right,71,2021-04-15_15h04.42.338,premup-three_ses-02_part-02_label-phase2,3.2.4,Win32,60,,,,,,,,,,,,,,,,,,,,,,,,,,,,,
left,0.547999859,1,132,1,0,1,0,1,0,1,0,240,225,1,239,3,2,2,stim/22.jpeg,Instruments,1,stim/objects/Instruments/harmonica2.png,0.9,4,0.2,-0.15,left,71,2021-04-15_15h04.42.338,premup-three_ses-02_part-02_label-phase2,3.2.4,Win32,60,,,,,,,,,,,,,,,,,,,,,,,,,,,,,
right,0.569999933,1,133,1,0,1,0,1,0,1,0,240,37,1,239,1,3,2,stim/32.jpeg,HouseObjects,2,stim/objects/HouseObjects/cushion.png,0.5,4,0.2,-0.15,right,71,2021-04-15_15h04.42.338,premup-three_ses-02_part-02_label-phase2,3.2.4,Win32,60,,,,,,,,,,,,,,,,,,,,,,,,,,,,,
right,0.669999838,0,134,1,0,1,0,1,0,1,0,240,90,1,239,2,5,3,stim/53.jpeg,Instruments,1,stim/objects/Instruments/harp.png,0.3,1,-0.2,0.15,left,71,2021-04-15_15h04.42.338,premup-three_ses-02_part-02_label-phase2,3.2.4,Win32,60,,,,,,,,,,,,,,,,,,,,,,,,,,,,,
right,0.670999765,0,135,1,0,1,0,1,0,1,0,240,53,1,239,1,4,2,stim/42.jpeg,Instruments,1,stim/objects/Instruments/frenchhorn.png,0.5,3,-0.2,-0.15,left,71,2021-04-15_15h04.42.338,premup-three_ses-02_part-02_label-phase2,3.2.4,Win32,60,,,,,,,,,,,,,,,,,,,,,,,,,,,,,
left,0.575999975,1,136,1,0,1,0,1,0,1,0,240,234,1,239,3,2,3,stim/23.jpeg,Instruments,1,stim/objects/Instruments/harp2.png,0.9,1,-0.2,0.15,left,71,2021-04-15_15h04.42.338,premup-three_ses-02_part-02_label-phase2,3.2.4,Win32,60,,,,,,,,,,,,,,,,,,,,,,,,,,,,,
right,0.527999878,1,137,1,0,1,0,1,0,1,0,240,69,1,239,1,4,2,stim/42.jpeg,HouseObjects,2,stim/objects/HouseObjects/flyswatter.png,0.5,3,-0.2,-0.15,right,71,2021-04-15_15h04.42.338,premup-three_ses-02_part-02_label-phase2,3.2.4,Win32,60,,,,,,,,,,,,,,,,,,,,,,,,,,,,,
left,0.476999998,1,138,1,0,1,0,1,0,1,0,240,203,1,239,3,2,4,stim/24.jpeg,Instruments,1,stim/objects/Instruments/hihat2.png,0.9,1,-0.2,0.15,left,71,2021-04-15_15h04.42.338,premup-three_ses-02_part-02_label-phase2,3.2.4,Win32,60,,,,,,,,,,,,,,,,,,,,,,,,,,,,,
right,0.602999926,1,139,1,0,1,0,1,0,1,0,240,70,1,239,1,4,3,stim/43.jpeg,HouseObjects,2,stim/objects/HouseObjects/garbagebin.png,0.5,1,-0.2,0.15,right,71,2021-04-15_15h04.42.338,premup-three_ses-02_part-02_label-phase2,3.2.4,Win32,60,,,,,,,,,,,,,,,,,,,,,,,,,,,,,
left,0.59800005,1,140,1,0,1,0,1,0,1,0,240,227,1,239,3,2,4,stim/24.jpeg,Instruments,1,stim/objects/Instruments/hihat2.png,0.9,2,0.2,0.15,left,71,2021-04-15_15h04.42.338,premup-three_ses-02_part-02_label-phase2,3.2.4,Win32,60,,,,,,,,,,,,,,,,,,,,,,,,,,,,,
left,0.518000126,1,141,1,0,1,0,1,0,1,0,240,232,1,239,3,2,1,stim/21.jpeg,Instruments,1,stim/objects/Instruments/guitarcase2.png,0.9,2,0.2,0.15,left,71,2021-04-15_15h04.42.338,premup-three_ses-02_part-02_label-phase2,3.2.4,Win32,60,,,,,,,,,,,,,,,,,,,,,,,,,,,,,
left,0.609999895,1,142,1,0,1,0,1,0,1,0,240,233,1,239,3,2,2,stim/22.jpeg,Instruments,1,stim/objects/Instruments/harmonica2.png,0.9,4,0.2,-0.15,left,71,2021-04-15_15h04.42.338,premup-three_ses-02_part-02_label-phase2,3.2.4,Win32,60,,,,,,,,,,,,,,,,,,,,,,,,,,,,,
right,0.611000061,0,143,1,0,1,0,1,0,1,0,240,6,1,239,1,3,3,stim/33.jpeg,Instruments,1,stim/objects/Instruments/electricguitar.png,0.5,4,0.2,-0.15,left,71,2021-04-15_15h04.42.338,premup-three_ses-02_part-02_label-phase2,3.2.4,Win32,60,,,,,,,,,,,,,,,,,,,,,,,,,,,,,
left,0.545000076,1,144,1,0,1,0,1,0,1,0,240,222,1,239,3,2,3,stim/23.jpeg,Instruments,1,stim/objects/Instruments/harp2.png,0.9,4,0.2,-0.15,left,71,2021-04-15_15h04.42.338,premup-three_ses-02_part-02_label-phase2,3.2.4,Win32,60,,,,,,,,,,,,,,,,,,,,,,,,,,,,,
right,0.528999805,1,145,1,0,1,0,1,0,1,0,240,193,1,239,3,1,2,stim/12.jpeg,HouseObjects,2,stim/objects/HouseObjects/flyswatter2.png,0.9,3,-0.2,-0.15,right,71,2021-04-15_15h04.42.338,premup-three_ses-02_part-02_label-phase2,3.2.4,Win32,60,,,,,,,,,,,,,,,,,,,,,,,,,,,,,
left,0.575999975,0,146,1,0,1,0,1,0,1,0,240,156,1,239,2,6,1,stim/61.jpeg,HouseObjects,2,stim/objects/HouseObjects/coffee2.png,0.3,3,-0.2,-0.15,right,71,2021-04-15_15h04.42.338,premup-three_ses-02_part-02_label-phase2,3.2.4,Win32,60,,,,,,,,,,,,,,,,,,,,,,,,,,,,,
left,0.652999878,1,147,1,0,1,0,1,0,1,0,240,205,1,239,3,2,2,stim/22.jpeg,Instruments,1,stim/objects/Instruments/harmonica2.png,0.9,2,0.2,0.15,left,71,2021-04-15_15h04.42.338,premup-three_ses-02_part-02_label-phase2,3.2.4,Win32,60,,,,,,,,,,,,,,,,,,,,,,,,,,,,,
right,0.60800004,1,148,1,0,1,0,1,0,1,0,240,195,1,239,3,1,4,stim/14.jpeg,HouseObjects,2,stim/objects/HouseObjects/glass2.png,0.9,3,-0.2,-0.15,right,71,2021-04-15_15h04.42.338,premup-three_ses-02_part-02_label-phase2,3.2.4,Win32,60,,,,,,,,,,,,,,,,,,,,,,,,,,,,,
right,0.744999886,1,149,1,0,1,0,1,0,1,0,240,25,1,239,1,3,2,stim/32.jpeg,HouseObjects,2,stim/objects/HouseObjects/cushion.png,0.5,3,-0.2,-0.15,right,71,2021-04-15_15h04.42.338,premup-three_ses-02_part-02_label-phase2,3.2.4,Win32,60,,,,,,,,,,,,,,,,,,,,,,,,,,,,,
,,0,150,1,0,1,0,1,0,1,0,240,72,1,239,1,4,1,stim/41.jpeg,HouseObjects,2,stim/objects/HouseObjects/dustpan.png,0.5,1,-0.2,0.15,right,71,2021-04-15_15h04.42.338,premup-three_ses-02_part-02_label-phase2,3.2.4,Win32,60,,,,,,,,,,,,,,,,,,,,,,,,,,,,,
right,0.557999849,1,151,1,0,1,0,1,0,1,0,240,199,1,239,3,1,4,stim/14.jpeg,HouseObjects,2,stim/objects/HouseObjects/glass2.png,0.9,1,-0.2,0.15,right,71,2021-04-15_15h04.42.338,premup-three_ses-02_part-02_label-phase2,3.2.4,Win32,60,,,,,,,,,,,,,,,,,,,,,,,,,,,,,
right,0.629999876,1,152,1,0,1,0,1,0,1,0,240,62,1,239,1,4,3,stim/43.jpeg,HouseObjects,2,stim/objects/HouseObjects/garbagebin.png,0.5,4,0.2,-0.15,right,71,2021-04-15_15h04.42.338,premup-three_ses-02_part-02_label-phase2,3.2.4,Win32,60,,,,,,,,,,,,,,,,,,,,,,,,,,,,,
left,0.451999903,1,153,1,0,1,0,1,0,1,0,240,217,1,239,3,2,2,stim/22.jpeg,Instruments,1,stim/objects/Instruments/harmonica2.png,0.9,3,-0.2,-0.15,left,71,2021-04-15_15h04.42.338,premup-three_ses-02_part-02_label-phase2,3.2.4,Win32,60,,,,,,,,,,,,,,,,,,,,,,,,,,,,,
right,0.502000093,0,154,1,0,1,0,1,0,1,0,240,83,1,239,2,5,4,stim/54.jpeg,Instruments,1,stim/objects/Instruments/hihat.png,0.3,1,-0.2,0.15,left,71,2021-04-15_15h04.42.338,premup-three_ses-02_part-02_label-phase2,3.2.4,Win32,60,,,,,,,,,,,,,,,,,,,,,,,,,,,,,
right,0.779999971,1,155,1,0,1,0,1,0,1,0,240,105,1,239,2,5,2,stim/52.jpeg,HouseObjects,2,stim/objects/HouseObjects/hairdryer.png,0.7,2,0.2,0.15,right,71,2021-04-15_15h04.42.338,premup-three_ses-02_part-02_label-phase2,3.2.4,Win32,60,,,,,,,,,,,,,,,,,,,,,,,,,,,,,
left,0.541999817,1,156,1,0,1,0,1,0,1,0,240,210,1,239,3,2,3,stim/23.jpeg,Instruments,1,stim/objects/Instruments/harp2.png,0.9,4,0.2,-0.15,left,71,2021-04-15_15h04.42.338,premup-three_ses-02_part-02_label-phase2,3.2.4,Win32,60,,,,,,,,,,,,,,,,,,,,,,,,,,,,,
right,0.496000051,1,157,1,0,1,0,1,0,1,0,240,188,1,239,3,1,1,stim/11.jpeg,HouseObjects,2,stim/objects/HouseObjects/dustpan2.png,0.9,4,0.2,-0.15,right,71,2021-04-15_15h04.42.338,premup-three_ses-02_part-02_label-phase2,3.2.4,Win32,60,,,,,,,,,,,,,,,,,,,,,,,,,,,,,
right,0.519999981,1,158,1,0,1,0,1,0,1,0,240,173,1,239,3,1,2,stim/12.jpeg,HouseObjects,2,stim/objects/HouseObjects/flyswatter2.png,0.9,2,0.2,0.15,right,71,2021-04-15_15h04.42.338,premup-three_ses-02_part-02_label-phase2,3.2.4,Win32,60,,,,,,,,,,,,,,,,,,,,,,,,,,,,,
left,0.694999933,0,159,1,0,1,0,1,0,1,0,240,26,1,239,1,3,3,stim/33.jpeg,HouseObjects,2,stim/objects/HouseObjects/dishsoap.png,0.5,2,0.2,0.15,right,71,2021-04-15_15h04.42.338,premup-three_ses-02_part-02_label-phase2,3.2.4,Win32,60,,,,,,,,,,,,,,,,,,,,,,,,,,,,,
right,0.575999975,1,160,1,0,1,0,1,0,1,0,240,117,1,239,2,5,2,stim/52.jpeg,HouseObjects,2,stim/objects/HouseObjects/hairdryer.png,0.7,3,-0.2,-0.15,right,71,2021-04-15_15h04.42.338,premup-three_ses-02_part-02_label-phase2,3.2.4,Win32,60,,,,,,,,,,,,,,,,,,,,,,,,,,,,,
right,0.682999849,1,161,1,0,1,0,1,0,1,0,240,110,1,239,2,5,3,stim/53.jpeg,HouseObjects,2,stim/objects/HouseObjects/handbrush.png,0.7,2,0.2,0.15,right,71,2021-04-15_15h04.42.338,premup-three_ses-02_part-02_label-phase2,3.2.4,Win32,60,,,,,,,,,,,,,,,,,,,,,,,,,,,,,
,,0,162,1,0,1,0,1,0,1,0,240,99,1,239,2,5,4,stim/54.jpeg,HouseObjects,2,stim/objects/HouseObjects/handvacuum.png,0.7,1,-0.2,0.15,right,71,2021-04-15_15h04.42.338,premup-three_ses-02_part-02_label-phase2,3.2.4,Win32,60,,,,,,,,,,,,,,,,,,,,,,,,,,,,,
right,0.617999792,1,163,1,0,1,0,1,0,1,0,240,159,1,239,2,6,4,stim/64.jpeg,HouseObjects,2,stim/objects/HouseObjects/doormat2.png,0.3,2,0.2,0.15,right,71,2021-04-15_15h04.42.338,premup-three_ses-02_part-02_label-phase2,3.2.4,Win32,60,,,,,,,,,,,,,,,,,,,,,,,,,,,,,
right,0.602999926,0,164,1,0,1,0,1,0,1,0,240,82,1,239,2,5,3,stim/53.jpeg,Instruments,1,stim/objects/Instruments/harp.png,0.3,1,-0.2,0.15,left,71,2021-04-15_15h04.42.338,premup-three_ses-02_part-02_label-phase2,3.2.4,Win32,60,,,,,,,,,,,,,,,,,,,,,,,,,,,,,
left,0.493999958,1,165,1,0,1,0,1,0,1,0,240,125,1,239,2,6,2,stim/62.jpeg,Instruments,1,stim/objects/Instruments/electricdrumset2.png,0.7,3,-0.2,-0.15,left,71,2021-04-15_15h04.42.338,premup-three_ses-02_part-02_label-phase2,3.2.4,Win32,60,,,,,,,,,,,,,,,,,,,,,,,,,,,,,
right,0.529999971,0,166,1,0,1,0,1,0,1,0,240,49,1,239,1,4,2,stim/42.jpeg,Instruments,1,stim/objects/Instruments/frenchhorn.png,0.5,4,0.2,-0.15,left,71,2021-04-15_15h04.42.338,premup-three_ses-02_part-02_label-phase2,3.2.4,Win32,60,,,,,,,,,,,,,,,,,,,,,,,,,,,,,
left,0.509000063,1,167,1,0,1,0,1,0,1,0,240,218,1,239,3,2,3,stim/23.jpeg,Instruments,1,stim/objects/Instruments/harp2.png,0.9,2,0.2,0.15,left,71,2021-04-15_15h04.42.338,premup-three_ses-02_part-02_label-phase2,3.2.4,Win32,60,,,,,,,,,,,,,,,,,,,,,,,,,,,,,
left,0.475999832,1,168,1,0,1,0,1,0,1,0,240,128,1,239,2,6,1,stim/61.jpeg,Instruments,1,stim/objects/Instruments/drums2.png,0.7,1,-0.2,0.15,left,71,2021-04-15_15h04.42.338,premup-three_ses-02_part-02_label-phase2,3.2.4,Win32,60,,,,,,,,,,,,,,,,,,,,,,,,,,,,,
right,0.596999884,1,169,1,0,1,0,1,0,1,0,240,95,1,239,2,5,4,stim/54.jpeg,HouseObjects,2,stim/objects/HouseObjects/handvacuum.png,0.7,3,-0.2,-0.15,right,71,2021-04-15_15h04.42.338,premup-three_ses-02_part-02_label-phase2,3.2.4,Win32,60,,,,,,,,,,,,,,,,,,,,,,,,,,,,,
left,0.443999767,0,170,1,0,1,0,1,0,1,0,240,154,1,239,2,6,3,stim/63.jpeg,HouseObjects,2,stim/objects/HouseObjects/dishsoap2.png,0.3,2,0.2,0.15,right,71,2021-04-15_15h04.42.338,premup-three_ses-02_part-02_label-phase2,3.2.4,Win32,60,,,,,,,,,,,,,,,,,,,,,,,,,,,,,
left,0.473999977,0,171,1,0,1,0,1,0,1,0,240,75,1,239,1,4,4,stim/44.jpeg,HouseObjects,2,stim/objects/HouseObjects/glass.png,0.5,3,-0.2,-0.15,right,71,2021-04-15_15h04.42.338,premup-three_ses-02_part-02_label-phase2,3.2.4,Win32,60,,,,,,,,,,,,,,,,,,,,,,,,,,,,,
right,0.513999939,0,172,1,0,1,0,1,0,1,0,240,85,1,239,2,5,2,stim/52.jpeg,Instruments,1,stim/objects/Instruments/harmonica.png,0.3,2,0.2,0.15,left,71,2021-04-15_15h04.42.338,premup-three_ses-02_part-02_label-phase2,3.2.4,Win32,60,,,,,,,,,,,,,,,,,,,,,,,,,,,,,
right,0.544999838,1,173,1,0,1,0,1,0,1,0,240,180,1,239,3,1,1,stim/11.jpeg,HouseObjects,2,stim/objects/HouseObjects/dustpan2.png,0.9,4,0.2,-0.15,right,71,2021-04-15_15h04.42.338,premup-three_ses-02_part-02_label-phase2,3.2.4,Win32,60,,,,,,,,,,,,,,,,,,,,,,,,,,,,,
right,0.559000015,1,174,1,0,1,0,1,0,1,0,240,22,1,239,1,3,3,stim/33.jpeg,HouseObjects,2,stim/objects/HouseObjects/dishsoap.png,0.5,3,-0.2,-0.15,right,71,2021-04-15_15h04.42.338,premup-three_ses-02_part-02_label-phase2,3.2.4,Win32,60,,,,,,,,,,,,,,,,,,,,,,,,,,,,,
left,0.697000027,1,175,1,0,1,0,1,0,1,0,240,213,1,239,3,2,2,stim/22.jpeg,Instruments,1,stim/objects/Instruments/harmonica2.png,0.9,3,-0.2,-0.15,left,71,2021-04-15_15h04.42.338,premup-three_ses-02_part-02_label-phase2,3.2.4,Win32,60,,,,,,,,,,,,,,,,,,,,,,,,,,,,,
right,0.518999815,1,176,1,0,1,0,1,0,1,0,240,170,1,239,3,1,3,stim/13.jpeg,HouseObjects,2,stim/objects/HouseObjects/garbagebin2.png,0.9,3,-0.2,-0.15,right,71,2021-04-15_15h04.42.338,premup-three_ses-02_part-02_label-phase2,3.2.4,Win32,60,,,,,,,,,,,,,,,,,,,,,,,,,,,,,
right,0.72300005,0,177,1,0,1,0,1,0,1,0,240,138,1,239,2,6,3,stim/63.jpeg,Instruments,1,stim/objects/Instruments/electricguitar2.png,0.7,2,0.2,0.15,left,71,2021-04-15_15h04.42.338,premup-three_ses-02_part-02_label-phase2,3.2.4,Win32,60,,,,,,,,,,,,,,,,,,,,,,,,,,,,,
left,0.600999832,0,178,1,0,1,0,1,0,1,0,240,158,1,239,2,6,3,stim/63.jpeg,HouseObjects,2,stim/objects/HouseObjects/dishsoap2.png,0.3,4,0.2,-0.15,right,71,2021-04-15_15h04.42.338,premup-three_ses-02_part-02_label-phase2,3.2.4,Win32,60,,,,,,,,,,,,,,,,,,,,,,,,,,,,,
left,0.763999939,1,179,1,0,1,0,1,0,1,0,240,216,1,239,3,2,1,stim/21.jpeg,Instruments,1,stim/objects/Instruments/guitarcase2.png,0.9,1,-0.2,0.15,left,71,2021-04-15_15h04.42.338,premup-three_ses-02_part-02_label-phase2,3.2.4,Win32,60,,,,,,,,,,,,,,,,,,,,,,,,,,,,,
right,0.813999891,0,180,1,0,1,0,1,0,1,0,240,16,1,239,1,3,1,stim/31.jpeg,Instruments,1,stim/objects/Instruments/drums.png,0.5,2,0.2,0.15,left,71,2021-04-15_15h04.42.338,premup-three_ses-02_part-02_label-phase2,3.2.4,Win32,60,,,,,,,,,,,,,,,,,,,,,,,,,,,,,
right,0.901000023,1,181,1,0,1,0,1,0,1,0,240,27,1,239,1,3,4,stim/34.jpeg,HouseObjects,2,stim/objects/HouseObjects/doormat.png,0.5,1,-0.2,0.15,right,71,2021-04-15_15h04.42.338,premup-three_ses-02_part-02_label-phase2,3.2.4,Win32,60,,,,,,,,,,,,,,,,,,,,,,,,,,,,,
left,0.61899972,1,182,1,0,1,0,1,0,1,0,240,223,1,239,3,2,4,stim/24.jpeg,Instruments,1,stim/objects/Instruments/hihat2.png,0.9,1,-0.2,0.15,left,71,2021-04-15_15h04.42.338,premup-three_ses-02_part-02_label-phase2,3.2.4,Win32,60,,,,,,,,,,,,,,,,,,,,,,,,,,,,,
left,0.731999874,0,183,1,0,1,0,1,0,1,0,240,152,1,239,2,6,1,stim/61.jpeg,HouseObjects,2,stim/objects/HouseObjects/coffee2.png,0.3,2,0.2,0.15,right,71,2021-04-15_15h04.42.338,premup-three_ses-02_part-02_label-phase2,3.2.4,Win32,60,,,,,,,,,,,,,,,,,,,,,,,,,,,,,
left,0.740999937,0,184,1,0,1,0,1,0,1,0,240,151,1,239,2,6,4,stim/64.jpeg,HouseObjects,2,stim/objects/HouseObjects/doormat2.png,0.3,4,0.2,-0.15,right,71,2021-04-15_15h04.42.338,premup-three_ses-02_part-02_label-phase2,3.2.4,Win32,60,,,,,,,,,,,,,,,,,,,,,,,,,,,,,
left,0.713999987,1,185,1,0,1,0,1,0,1,0,240,201,1,239,3,2,2,stim/22.jpeg,Instruments,1,stim/objects/Instruments/harmonica2.png,0.9,1,-0.2,0.15,left,71,2021-04-15_15h04.42.338,premup-three_ses-02_part-02_label-phase2,3.2.4,Win32,60,,,,,,,,,,,,,,,,,,,,,,,,,,,,,
left,0.569999933,1,186,1,0,1,0,1,0,1,0,240,214,1,239,3,2,3,stim/23.jpeg,Instruments,1,stim/objects/Instruments/harp2.png,0.9,1,-0.2,0.15,left,71,2021-04-15_15h04.42.338,premup-three_ses-02_part-02_label-phase2,3.2.4,Win32,60,,,,,,,,,,,,,,,,,,,,,,,,,,,,,
right,0.664999962,0,187,1,0,1,0,1,0,1,0,240,1,1,239,1,3,2,stim/32.jpeg,Instruments,1,stim/objects/Instruments/electricdrumset.png,0.5,4,0.2,-0.15,left,71,2021-04-15_15h04.42.338,premup-three_ses-02_part-02_label-phase2,3.2.4,Win32,60,,,,,,,,,,,,,,,,,,,,,,,,,,,,,
right,0.710000038,0,188,1,0,1,0,1,0,1,0,240,48,1,239,1,4,1,stim/41.jpeg,Instruments,1,stim/objects/Instruments/flutetrans.png,0.5,4,0.2,-0.15,left,71,2021-04-15_15h04.42.338,premup-three_ses-02_part-02_label-phase2,3.2.4,Win32,60,,,,,,,,,,,,,,,,,,,,,,,,,,,,,
right,0.671999931,1,189,1,0,1,0,1,0,1,0,240,183,1,239,3,1,4,stim/14.jpeg,HouseObjects,2,stim/objects/HouseObjects/glass2.png,0.9,1,-0.2,0.15,right,71,2021-04-15_15h04.42.338,premup-three_ses-02_part-02_label-phase2,3.2.4,Win32,60,,,,,,,,,,,,,,,,,,,,,,,,,,,,,
left,0.478999853,1,190,1,0,1,0,1,0,1,0,240,15,1,239,1,3,4,stim/34.jpeg,Instruments,1,stim/objects/Instruments/flute.png,0.5,3,-0.2,-0.15,left,71,2021-04-15_15h04.42.338,premup-three_ses-02_part-02_label-phase2,3.2.4,Win32,60,,,,,,,,,,,,,,,,,,,,,,,,,,,,,
left,0.603999853,1,191,1,0,1,0,1,0,1,0,240,145,1,239,2,6,2,stim/62.jpeg,Instruments,1,stim/objects/Instruments/electricdrumset2.png,0.7,4,0.2,-0.15,left,71,2021-04-15_15h04.42.338,premup-three_ses-02_part-02_label-phase2,3.2.4,Win32,60,,,,,,,,,,,,,,,,,,,,,,,,,,,,,
right,0.686999798,0,192,1,0,1,0,1,0,1,0,240,8,1,239,1,3,1,stim/31.jpeg,Instruments,1,stim/objects/Instruments/drums.png,0.5,1,-0.2,0.15,left,71,2021-04-15_15h04.42.338,premup-three_ses-02_part-02_label-phase2,3.2.4,Win32,60,,,,,,,,,,,,,,,,,,,,,,,,,,,,,
right,0.513999939,1,193,1,0,1,0,1,0,1,0,240,189,1,239,3,1,2,stim/12.jpeg,HouseObjects,2,stim/objects/HouseObjects/flyswatter2.png,0.9,4,0.2,-0.15,right,71,2021-04-15_15h04.42.338,premup-three_ses-02_part-02_label-phase2,3.2.4,Win32,60,,,,,,,,,,,,,,,,,,,,,,,,,,,,,
right,0.60199976,1,194,1,0,1,0,1,0,1,0,240,31,1,239,1,3,4,stim/34.jpeg,HouseObjects,2,stim/objects/HouseObjects/doormat.png,0.5,1,-0.2,0.15,right,71,2021-04-15_15h04.42.338,premup-three_ses-02_part-02_label-phase2,3.2.4,Win32,60,,,,,,,,,,,,,,,,,,,,,,,,,,,,,
,,0,195,1,0,1,0,1,0,1,0,240,2,1,239,1,3,3,stim/33.jpeg,Instruments,1,stim/objects/Instruments/electricguitar.png,0.5,3,-0.2,-0.15,left,71,2021-04-15_15h04.42.338,premup-three_ses-02_part-02_label-phase2,3.2.4,Win32,60,,,,,,,,,,,,,,,,,,,,,,,,,,,,,
left,0.765999794,1,196,1,0,1,0,1,0,1,0,240,139,1,239,2,6,4,stim/64.jpeg,Instruments,1,stim/objects/Instruments/flute2.png,0.7,1,-0.2,0.15,left,71,2021-04-15_15h04.42.338,premup-three_ses-02_part-02_label-phase2,3.2.4,Win32,60,,,,,,,,,,,,,,,,,,,,,,,,,,,,,
right,0.701999903,1,197,1,0,1,0,1,0,1,0,240,107,1,239,2,5,4,stim/54.jpeg,HouseObjects,2,stim/objects/HouseObjects/handvacuum.png,0.7,2,0.2,0.15,right,71,2021-04-15_15h04.42.338,premup-three_ses-02_part-02_label-phase2,3.2.4,Win32,60,,,,,,,,,,,,,,,,,,,,,,,,,,,,,
left,0.44900012,1,198,1,0,1,0,1,0,1,0,240,202,1,239,3,2,3,stim/23.jpeg,Instruments,1,stim/objects/Instruments/harp2.png,0.9,3,-0.2,-0.15,left,71,2021-04-15_15h04.42.338,premup-three_ses-02_part-02_label-phase2,3.2.4,Win32,60,,,,,,,,,,,,,,,,,,,,,,,,,,,,,
right,0.385999918,1,199,1,0,1,0,1,0,1,0,240,28,1,239,1,3,1,stim/31.jpeg,HouseObjects,2,stim/objects/HouseObjects/coffee.png,0.5,4,0.2,-0.15,right,71,2021-04-15_15h04.42.338,premup-three_ses-02_part-02_label-phase2,3.2.4,Win32,60,,,,,,,,,,,,,,,,,,,,,,,,,,,,,
left,0.480999947,0,200,1,0,1,0,1,0,1,0,240,239,1,239,3,2,4,stim/24.jpeg,HouseObjects,2,stim/objects/HouseObjects/handvacuum2.png,0.1,3,-0.2,-0.15,right,71,2021-04-15_15h04.42.338,premup-three_ses-02_part-02_label-phase2,3.2.4,Win32,60,,,,,,,,,,,,,,,,,,,,,,,,,,,,,
right,0.618999958,1,201,1,0,1,0,1,0,1,0,240,61,1,239,1,4,2,stim/42.jpeg,HouseObjects,2,stim/objects/HouseObjects/flyswatter.png,0.5,2,0.2,0.15,right,71,2021-04-15_15h04.42.338,premup-three_ses-02_part-02_label-phase2,3.2.4,Win32,60,,,,,,,,,,,,,,,,,,,,,,,,,,,,,
right,0.432999849,1,202,1,0,1,0,1,0,1,0,240,65,1,239,1,4,2,stim/42.jpeg,HouseObjects,2,stim/objects/HouseObjects/flyswatter.png,0.5,4,0.2,-0.15,right,71,2021-04-15_15h04.42.338,premup-three_ses-02_part-02_label-phase2,3.2.4,Win32,60,,,,,,,,,,,,,,,,,,,,,,,,,,,,,
left,0.525000095,1,203,1,0,1,0,1,0,1,0,240,131,1,239,2,6,4,stim/64.jpeg,Instruments,1,stim/objects/Instruments/flute2.png,0.7,2,0.2,0.15,left,71,2021-04-15_15h04.42.338,premup-three_ses-02_part-02_label-phase2,3.2.4,Win32,60,,,,,,,,,,,,,,,,,,,,,,,,,,,,,
right,0.776000023,0,204,1,0,1,0,1,0,1,0,240,57,1,239,1,4,2,stim/42.jpeg,Instruments,1,stim/objects/Instruments/frenchhorn.png,0.5,4,0.2,-0.15,left,71,2021-04-15_15h04.42.338,premup-three_ses-02_part-02_label-phase2,3.2.4,Win32,60,,,,,,,,,,,,,,,,,,,,,,,,,,,,,
,,0,205,1,0,1,0,1,0,1,0,240,59,1,239,1,4,4,stim/44.jpeg,Instruments,1,stim/objects/Instruments/grandpiano.png,0.5,4,0.2,-0.15,left,71,2021-04-15_15h04.42.338,premup-three_ses-02_part-02_label-phase2,3.2.4,Win32,60,,,,,,,,,,,,,,,,,,,,,,,,,,,,,
right,0.554999828,1,206,1,0,1,0,1,0,1,0,240,176,1,239,3,1,1,stim/11.jpeg,HouseObjects,2,stim/objects/HouseObjects/dustpan2.png,0.9,4,0.2,-0.15,right,71,2021-04-15_15h04.42.338,premup-three_ses-02_part-02_label-phase2,3.2.4,Win32,60,,,,,,,,,,,,,,,,,,,,,,,,,,,,,
right,0.528999805,0,207,1,0,1,0,1,0,1,0,240,56,1,239,1,4,1,stim/41.jpeg,Instruments,1,stim/objects/Instruments/flutetrans.png,0.5,2,0.2,0.15,left,71,2021-04-15_15h04.42.338,premup-three_ses-02_part-02_label-phase2,3.2.4,Win32,60,,,,,,,,,,,,,,,,,,,,,,,,,,,,,
right,0.661999941,0,208,1,0,1,0,1,0,1,0,240,46,1,239,1,4,3,stim/43.jpeg,Instruments,1,stim/objects/Instruments/gong.png,0.5,4,0.2,-0.15,left,71,2021-04-15_15h04.42.338,premup-three_ses-02_part-02_label-phase2,3.2.4,Win32,60,,,,,,,,,,,,,,,,,,,,,,,,,,,,,
right,0.453999996,1,209,1,0,1,0,1,0,1,0,240,190,1,239,3,1,3,stim/13.jpeg,HouseObjects,2,stim/objects/HouseObjects/garbagebin2.png,0.9,2,0.2,0.15,right,71,2021-04-15_15h04.42.338,premup-three_ses-02_part-02_label-phase2,3.2.4,Win32,60,,,,,,,,,,,,,,,,,,,,,,,,,,,,,
right,0.427999735,0,210,1,0,1,0,1,0,1,0,240,146,1,239,2,6,3,stim/63.jpeg,Instruments,1,stim/objects/Instruments/electricguitar2.png,0.7,4,0.2,-0.15,left,71,2021-04-15_15h04.42.338,premup-three_ses-02_part-02_label-phase2,3.2.4,Win32,60,,,,,,,,,,,,,,,,,,,,,,,,,,,,,
right,0.517999887,1,211,1,0,1,0,1,0,1,0,240,174,1,239,3,1,3,stim/13.jpeg,HouseObjects,2,stim/objects/HouseObjects/garbagebin2.png,0.9,4,0.2,-0.15,right,71,2021-04-15_15h04.42.338,premup-three_ses-02_part-02_label-phase2,3.2.4,Win32,60,,,,,,,,,,,,,,,,,,,,,,,,,,,,,
right,0.444000006,0,212,1,0,1,0,1,0,1,0,240,42,1,239,1,4,3,stim/43.jpeg,Instruments,1,stim/objects/Instruments/gong.png,0.5,4,0.2,-0.15,left,71,2021-04-15_15h04.42.338,premup-three_ses-02_part-02_label-phase2,3.2.4,Win32,60,,,,,,,,,,,,,,,,,,,,,,,,,,,,,
right,0.578999996,0,213,1,0,1,0,1,0,1,0,240,89,1,239,2,5,2,stim/52.jpeg,Instruments,1,stim/objects/Instruments/harmonica.png,0.3,1,-0.2,0.15,left,71,2021-04-15_15h04.42.338,premup-three_ses-02_part-02_label-phase2,3.2.4,Win32,60,,,,,,,,,,,,,,,,,,,,,,,,,,,,,
left,0.631000042,1,214,1,0,1,0,1,0,1,0,240,58,1,239,1,4,3,stim/43.jpeg,Instruments,1,stim/objects/Instruments/gong.png,0.5,2,0.2,0.15,left,71,2021-04-15_15h04.42.338,premup-three_ses-02_part-02_label-phase2,3.2.4,Win32,60,,,,,,,,,,,,,,,,,,,,,,,,,,,,,
right,0.530999899,0,215,1,0,1,0,1,0,1,0,240,161,1,239,3,1,2,stim/12.jpeg,Instruments,1,stim/objects/Instruments/frenchhorn2.png,0.1,3,-0.2,-0.15,left,71,2021-04-15_15h04.42.338,premup-three_ses-02_part-02_label-phase2,3.2.4,Win32,60,,,,,,,,,,,,,,,,,,,,,,,,,,,,,
left,0.674000025,0,216,1,0,1,0,1,0,1,0,240,63,1,239,1,4,4,stim/44.jpeg,HouseObjects,2,stim/objects/HouseObjects/glass.png,0.5,4,0.2,-0.15,right,71,2021-04-15_15h04.42.338,premup-three_ses-02_part-02_label-phase2,3.2.4,Win32,60,,,,,,,,,,,,,,,,,,,,,,,,,,,,,
right,0.48699975,1,217,1,0,1,0,1,0,1,0,240,32,1,239,1,3,1,stim/31.jpeg,HouseObjects,2,stim/objects/HouseObjects/coffee.png,0.5,1,-0.2,0.15,right,71,2021-04-15_15h04.42.338,premup-three_ses-02_part-02_label-phase2,3.2.4,Win32,60,,,,,,,,,,,,,,,,,,,,,,,,,,,,,
left,0.523000002,1,218,1,0,1,0,1,0,1,0,240,47,1,239,1,4,4,stim/44.jpeg,Instruments,1,stim/objects/Instruments/grandpiano.png,0.5,2,0.2,0.15,left,71,2021-04-15_15h04.42.338,premup-three_ses-02_part-02_label-phase2,3.2.4,Win32,60,,,,,,,,,,,,,,,,,,,,,,,,,,,,,
right,0.470999956,1,219,1,0,1,0,1,0,1,0,240,192,1,239,3,1,1,stim/11.jpeg,HouseObjects,2,stim/objects/HouseObjects/dustpan2.png,0.9,3,-0.2,-0.15,right,71,2021-04-15_15h04.42.338,premup-three_ses-02_part-02_label-phase2,3.2.4,Win32,60,,,,,,,,,,,,,,,,,,,,,,,,,,,,,
left,0.53399992,0,220,1,0,1,0,1,0,1,0,240,36,1,239,1,3,1,stim/31.jpeg,HouseObjects,2,stim/objects/HouseObjects/coffee.png,0.5,3,-0.2,-0.15,right,71,2021-04-15_15h04.42.338,premup-three_ses-02_part-02_label-phase2,3.2.4,Win32,60,,,,,,,,,,,,,,,,,,,,,,,,,,,,,
right,0.539000034,0,221,1,0,1,0,1,0,1,0,240,10,1,239,1,3,3,stim/33.jpeg,Instruments,1,stim/objects/Instruments/electricguitar.png,0.5,1,-0.2,0.15,left,71,2021-04-15_15h04.42.338,premup-three_ses-02_part-02_label-phase2,3.2.4,Win32,60,,,,,,,,,,,,,,,,,,,,,,,,,,,,,
right,0.610999823,1,222,1,0,1,0,1,0,1,0,240,92,1,239,2,5,1,stim/51.jpeg,HouseObjects,2,stim/objects/HouseObjects/glassmop.png,0.7,4,0.2,-0.15,right,71,2021-04-15_15h04.42.338,premup-three_ses-02_part-02_label-phase2,3.2.4,Win32,60,,,,,,,,,,,,,,,,,,,,,,,,,,,,,
right,0.476999998,1,223,1,0,1,0,1,0,1,0,240,98,1,239,2,5,3,stim/53.jpeg,HouseObjects,2,stim/objects/HouseObjects/handbrush.png,0.7,2,0.2,0.15,right,71,2021-04-15_15h04.42.338,premup-three_ses-02_part-02_label-phase2,3.2.4,Win32,60,,,,,,,,,,,,,,,,,,,,,,,,,,,,,
left,0.606999874,0,224,1,0,1,0,1,0,1,0,240,34,1,239,1,3,3,stim/33.jpeg,HouseObjects,2,stim/objects/HouseObjects/dishsoap.png,0.5,4,0.2,-0.15,right,71,2021-04-15_15h04.42.338,premup-three_ses-02_part-02_label-phase2,3.2.4,Win32,60,,,,,,,,,,,,,,,,,,,,,,,,,,,,,
right,0.571000099,0,225,1,0,1,0,1,0,1,0,240,45,1,239,1,4,2,stim/42.jpeg,Instruments,1,stim/objects/Instruments/frenchhorn.png,0.5,3,-0.2,-0.15,left,71,2021-04-15_15h04.42.338,premup-three_ses-02_part-02_label-phase2,3.2.4,Win32,60,,,,,,,,,,,,,,,,,,,,,,,,,,,,,
right,0.529999971,1,226,1,0,1,0,1,0,1,0,240,108,1,239,2,5,1,stim/51.jpeg,HouseObjects,2,stim/objects/HouseObjects/glassmop.png,0.7,2,0.2,0.15,right,71,2021-04-15_15h04.42.338,premup-three_ses-02_part-02_label-phase2,3.2.4,Win32,60,,,,,,,,,,,,,,,,,,,,,,,,,,,,,
right,0.564999819,1,227,1,0,1,0,1,0,1,0,240,171,1,239,3,1,4,stim/14.jpeg,HouseObjects,2,stim/objects/HouseObjects/glass2.png,0.9,2,0.2,0.15,right,71,2021-04-15_15h04.42.338,premup-three_ses-02_part-02_label-phase2,3.2.4,Win32,60,,,,,,,,,,,,,,,,,,,,,,,,,,,,,
left,0.522999763,0,228,1,0,1,0,1,0,1,0,240,168,1,239,3,1,1,stim/11.jpeg,HouseObjects,2,stim/objects/HouseObjects/dustpan2.png,0.9,3,-0.2,-0.15,right,71,2021-04-15_15h04.42.338,premup-three_ses-02_part-02_label-phase2,3.2.4,Win32,60,,,,,,,,,,,,,,,,,,,,,,,,,,,,,
right,0.467000008,0,229,1,0,1,0,1,0,1,0,240,84,1,239,2,5,1,stim/51.jpeg,Instruments,1,stim/objects/Instruments/guitarcase.png,0.3,1,-0.2,0.15,left,71,2021-04-15_15h04.42.338,premup-three_ses-02_part-02_label-phase2,3.2.4,Win32,60,,,,,,,,,,,,,,,,,,,,,,,,,,,,,
right,0.389999866,0,230,1,0,1,0,1,0,1,0,240,3,1,239,1,3,4,stim/34.jpeg,Instruments,1,stim/objects/Instruments/flute.png,0.5,2,0.2,0.15,left,71,2021-04-15_15h04.42.338,premup-three_ses-02_part-02_label-phase2,3.2.4,Win32,60,,,,,,,,,,,,,,,,,,,,,,,,,,,,,
right,0.546999931,1,231,1,0,1,0,1,0,1,0,240,196,1,239,3,1,1,stim/11.jpeg,HouseObjects,2,stim/objects/HouseObjects/dustpan2.png,0.9,2,0.2,0.15,right,71,2021-04-15_15h04.42.338,premup-three_ses-02_part-02_label-phase2,3.2.4,Win32,60,,,,,,,,,,,,,,,,,,,,,,,,,,,,,
left,0.697999716,1,232,1,0,1,0,1,0,1,0,240,14,1,239,1,3,3,stim/33.jpeg,Instruments,1,stim/objects/Instruments/electricguitar.png,0.5,4,0.2,-0.15,left,71,2021-04-15_15h04.42.338,premup-three_ses-02_part-02_label-phase2,3.2.4,Win32,60,,,,,,,,,,,,,,,,,,,,,,,,,,,,,
left,0.562999725,0,233,1,0,1,0,1,0,1,0,240,30,1,239,1,3,3,stim/33.jpeg,HouseObjects,2,stim/objects/HouseObjects/dishsoap.png,0.5,3,-0.2,-0.15,right,71,2021-04-15_15h04.42.338,premup-three_ses-02_part-02_label-phase2,3.2.4,Win32,60,,,,,,,,,,,,,,,,,,,,,,,,,,,,,
right,0.626999855,1,234,1,0,1,0,1,0,1,0,240,104,1,239,2,5,1,stim/51.jpeg,HouseObjects,2,stim/objects/HouseObjects/glassmop.png,0.7,1,-0.2,0.15,right,71,2021-04-15_15h04.42.338,premup-three_ses-02_part-02_label-phase2,3.2.4,Win32,60,,,,,,,,,,,,,,,,,,,,,,,,,,,,,
right,0.509000063,1,235,1,0,1,0,1,0,1,0,240,119,1,239,2,5,4,stim/54.jpeg,HouseObjects,2,stim/objects/HouseObjects/handvacuum.png,0.7,4,0.2,-0.15,right,71,2021-04-15_15h04.42.338,premup-three_ses-02_part-02_label-phase2,3.2.4,Win32,60,,,,,,,,,,,,,,,,,,,,,,,,,,,,,
right,0.626999855,0,236,1,0,1,0,1,0,1,0,240,44,1,239,1,4,1,stim/41.jpeg,Instruments,1,stim/objects/Instruments/flutetrans.png,0.5,1,-0.2,0.15,left,71,2021-04-15_15h04.42.338,premup-three_ses-02_part-02_label-phase2,3.2.4,Win32,60,,,,,,,,,,,,,,,,,,,,,,,,,,,,,
left,0.592999935,1,237,1,0,1,0,1,0,1,0,240,230,1,239,3,2,3,stim/23.jpeg,Instruments,1,stim/objects/Instruments/harp2.png,0.9,4,0.2,-0.15,left,71,2021-04-15_15h04.42.338,premup-three_ses-02_part-02_label-phase2,3.2.4,Win32,60,,,,,,,,,,,,,,,,,,,,,,,,,,,,,
left,0.726000071,1,238,1,0,1,0,1,0,1,0,240,123,1,239,2,6,4,stim/64.jpeg,Instruments,1,stim/objects/Instruments/flute2.png,0.7,3,-0.2,-0.15,left,71,2021-04-15_15h04.42.338,premup-three_ses-02_part-02_label-phase2,3.2.4,Win32,60,,,,,,,,,,,,,,,,,,,,,,,,,,,,,
right,0.544999838,0,239,1,0,1,0,1,0,1,0,240,55,1,239,1,4,4,stim/44.jpeg,Instruments,1,stim/objects/Instruments/grandpiano.png,0.5,2,0.2,0.15,left,71,2021-04-15_15h04.42.338,premup-three_ses-02_part-02_label-phase2,3.2.4,Win32,60,,,,,,,,,,,,,,,,,,,,,,,,,,,,,
left,0.513999939,1,240,1,0,1,0,1,0,1,0,240,144,1,239,2,6,1,stim/61.jpeg,Instruments,1,stim/objects/Instruments/drums2.png,0.7,4,0.2,-0.15,left,71,2021-04-15_15h04.42.338,premup-three_ses-02_part-02_label-phase2,3.2.4,Win32,60,,,,,,,,,,,,,,,,,,,,,,,,,,,,,
,,,,1,0,1,0,1,0,,,,,,,,3,,stim/31.jpeg,,,,,,,,,71,2021-04-15_15h04.42.338,premup-three_ses-02_part-02_label-phase2,3.2.4,Win32,60,70,6.210999966,,,1,0,6,2,1,5,Music items,65,75,Household items,25,35,,,,,,,,,,,,,
,,,,1,0,1,0,1,0,,,,,,,,5,,stim/51.jpeg,,,,,,,,,71,2021-04-15_15h04.42.338,premup-three_ses-02_part-02_label-phase2,3.2.4,Win32,60,90,3.235999823,,,1,0,6,4,1,5,Household items,5,15,Music items,85,95,,,,,,,,,,,,,
,,,,1,0,1,0,1,0,,,,,,,,2,,stim/21.jpeg,,,,,,,,,71,2021-04-15_15h04.42.338,premup-three_ses-02_part-02_label-phase2,3.2.4,Win32,60,10,3.739000082,,,1,0,6,1,1,5,Household items,45,55,Music items,45,55,,,,,,,,,,,,,
,,,,1,0,1,0,1,0,,,,,,,,4,,stim/41.jpeg,,,,,,,,,71,2021-04-15_15h04.42.338,premup-three_ses-02_part-02_label-phase2,3.2.4,Win32,60,32,3.305000067,,,1,0,6,3,1,5,Music items,65,75,Household items,25,35,,,,,,,,,,,,,
,,,,1,0,1,0,1,0,,,,,,,,1,,stim/11.jpeg,,,,,,,,,71,2021-04-15_15h04.42.338,premup-three_ses-02_part-02_label-phase2,3.2.4,Win32,60,18,9.230000019,,,1,0,6,0,1,5,Music items,45,55,Household items,45,55,,,,,,,,,,,,,
,,,,1,0,1,0,1,0,,,,,,,,6,,stim/61.jpeg,,,,,,,,,71,2021-04-15_15h04.42.338,premup-three_ses-02_part-02_label-phase2,3.2.4,Win32,60,88,2.797999859,,,1,0,6,5,1,5,Music items,5,15,Household items,85,95,,,,,,,,,,,,,
,,,,1,0,1,0,1,0,,,,,,,,,,,,,,,,,,,71,2021-04-15_15h04.42.338,premup-three_ses-02_part-02_label-phase2,3.2.4,Win32,60,,,,,,,,,,,,,,,,,,,,,,,,,,,,,
left,0.65199995,0,241,,,,,,,,,,,,,2,5,3,stim/53.jpeg,HouseObjects,2,stim/objects/HouseObjects/ashtray4.png,0.7,3,-0.2,-0.15,right,71,2021-04-15_15h04.42.338,premup-three_ses-02_part-02_label-phase2,3.2.4,Win32,60,,,,,,,,,,,,,,,,,1,0,330,90,1,329,1,,,,,,
right,0.57799983,1,242,,,,,,,,,,,,,3,1,4,stim/14.jpeg,HouseObjects,2,stim/objects/HouseObjects/match3.png,0.9,3,-0.2,-0.15,right,71,2021-04-15_15h04.42.338,premup-three_ses-02_part-02_label-phase2,3.2.4,Win32,60,,,,,,,,,,,,,,,,,1,0,330,197,1,329,2,,,,,,
right,0.585999966,1,243,,,,,,,,,,,,,2,5,2,stim/52.jpeg,HouseObjects,2,stim/objects/HouseObjects/wateringcan3.png,0.7,4,0.2,-0.15,right,71,2021-04-15_15h04.42.338,premup-three_ses-02_part-02_label-phase2,3.2.4,Win32,60,,,,,,,,,,,,,,,,,1,0,330,89,1,329,1,,,,,,
left,0.558999777,1,244,,,,,,,,,,,,,3,2,3,stim/23.jpeg,Instruments,1,stim/objects/Instruments/musicstand3.png,0.9,1,-0.2,0.15,left,71,2021-04-15_15h04.42.338,premup-three_ses-02_part-02_label-phase2,3.2.4,Win32,60,,,,,,,,,,,,,,,,,1,0,330,248,1,329,2,,,,,,
right,0.494999886,1,245,,,,,,,,,,,,,3,1,3,stim/13.jpeg,HouseObjects,2,stim/objects/HouseObjects/knife3.png,0.9,4,0.2,-0.15,right,71,2021-04-15_15h04.42.338,premup-three_ses-02_part-02_label-phase2,3.2.4,Win32,60,,,,,,,,,,,,,,,,,1,0,330,160,1,329,2,,,,,,
right,0.427000046,1,246,,,,,,,,,,,,,3,1,3,stim/13.jpeg,HouseObjects,2,stim/objects/HouseObjects/match3.png,0.9,4,0.2,-0.15,right,71,2021-04-15_15h04.42.338,premup-three_ses-02_part-02_label-phase2,3.2.4,Win32,60,,,,,,,,,,,,,,,,,1,0,330,172,1,329,2,,,,,,
right,0.556999922,1,247,,,,,,,,,,,,,3,1,1,stim/11.jpeg,HouseObjects,2,stim/objects/HouseObjects/pitcher3.png,0.9,2,0.2,0.15,right,71,2021-04-15_15h04.42.338,premup-three_ses-02_part-02_label-phase2,3.2.4,Win32,60,,,,,,,,,,,,,,,,,1,0,330,214,1,329,2,,,,,,
left,0.580999851,1,248,,,,,,,,,,,,,3,2,4,stim/24.jpeg,Instruments,1,stim/objects/Instruments/metronome3.png,0.9,1,-0.2,0.15,left,71,2021-04-15_15h04.42.338,premup-three_ses-02_part-02_label-phase2,3.2.4,Win32,60,,,,,,,,,,,,,,,,,1,0,330,281,1,329,2,,,,,,
right,0.492000103,0,249,,,,,,,,,,,,,3,1,2,stim/12.jpeg,Instruments,1,stim/objects/Instruments/metronome4.png,0.1,4,0.2,-0.15,left,71,2021-04-15_15h04.42.338,premup-three_ses-02_part-02_label-phase2,3.2.4,Win32,60,,,,,,,,,,,,,,,,,1,0,330,131,1,329,1,,,,,,
left,0.652999878,1,250,,,,,,,,,,,,,2,6,2,stim/62.jpeg,Instruments,1,stim/objects/Instruments/chime4.png,0.7,4,0.2,-0.15,left,71,2021-04-15_15h04.42.338,premup-three_ses-02_part-02_label-phase2,3.2.4,Win32,60,,,,,,,,,,,,,,,,,1,0,330,112,1,329,1,,,,,,
right,0.529999971,1,251,,,,,,,,,,,,,2,5,3,stim/53.jpeg,HouseObjects,2,stim/objects/HouseObjects/bleachbottle4.png,0.7,1,-0.2,0.15,right,71,2021-04-15_15h04.42.338,premup-three_ses-02_part-02_label-phase2,3.2.4,Win32,60,,,,,,,,,,,,,,,,,1,0,330,94,1,329,1,,,,,,
left,0.488999844,0,252,,,,,,,,,,,,,3,2,3,stim/23.jpeg,HouseObjects,2,stim/objects/HouseObjects/teapot4.png,0.1,2,0.2,0.15,right,71,2021-04-15_15h04.42.338,premup-three_ses-02_part-02_label-phase2,3.2.4,Win32,60,,,,,,,,,,,,,,,,,1,0,330,324,1,329,1,,,,,,
right,0.647000074,1,253,,,,,,,,,,,,,2,5,4,stim/54.jpeg,HouseObjects,2,stim/objects/HouseObjects/clothespin3.png,0.7,4,0.2,-0.15,right,71,2021-04-15_15h04.42.338,premup-three_ses-02_part-02_label-phase2,3.2.4,Win32,60,,,,,,,,,,,,,,,,,1,0,330,71,1,329,2,,,,,,
right,0.566999912,0,254,,,,,,,,,,,,,3,1,4,stim/14.jpeg,Instruments,1,stim/objects/Instruments/musicstand4.png,0.1,2,0.2,0.15,left,71,2021-04-15_15h04.42.338,premup-three_ses-02_part-02_label-phase2,3.2.4,Win32,60,,,,,,,,,,,,,,,,,1,0,330,133,1,329,1,,,,,,
left,0.766000032,1,255,,,,,,,,,,,,,2,5,2,stim/52.jpeg,Instruments,1,stim/objects/Instruments/tuba3.png,0.3,4,0.2,-0.15,left,71,2021-04-15_15h04.42.338,premup-three_ses-02_part-02_label-phase2,3.2.4,Win32,60,,,,,,,,,,,,,,,,,1,0,330,61,1,329,1,,,,,,
right,0.480999947,1,256,,,,,,,,,,,,,3,1,2,stim/12.jpeg,HouseObjects,2,stim/objects/HouseObjects/lintroller3.png,0.9,1,-0.2,0.15,right,71,2021-04-15_15h04.42.338,premup-three_ses-02_part-02_label-phase2,3.2.4,Win32,60,,,,,,,,,,,,,,,,,1,0,330,151,1,329,2,,,,,,
left,0.75999999,1,257,,,,,,,,,,,,,2,6,3,stim/63.jpeg,Instruments,1,stim/objects/Instruments/clarinet4.png,0.7,4,0.2,-0.15,left,71,2021-04-15_15h04.42.338,premup-three_ses-02_part-02_label-phase2,3.2.4,Win32,60,,,,,,,,,,,,,,,,,1,0,330,113,1,329,1,,,,,,
left,0.642999887,1,258,,,,,,,,,,,,,3,2,1,stim/21.jpeg,Instruments,1,stim/objects/Instruments/musicstand3.png,0.9,3,-0.2,-0.15,left,71,2021-04-15_15h04.42.338,premup-three_ses-02_part-02_label-phase2,3.2.4,Win32,60,,,,,,,,,,,,,,,,,1,0,330,278,1,329,2,,,,,,
left,0.691999912,1,259,,,,,,,,,,,,,3,2,3,stim/23.jpeg,Instruments,1,stim/objects/Instruments/musicsheet3.png,0.9,1,-0.2,0.15,left,71,2021-04-15_15h04.42.338,premup-three_ses-02_part-02_label-phase2,3.2.4,Win32,60,,,,,,,,,,,,,,,,,1,0,330,292,1,329,2,,,,,,
left,0.645999908,0,260,,,,,,,,,,,,,2,6,2,stim/62.jpeg,HouseObjects,2,stim/objects/HouseObjects/ironingboard4.png,0.3,1,-0.2,0.15,right,71,2021-04-15_15h04.42.338,premup-three_ses-02_part-02_label-phase2,3.2.4,Win32,60,,,,,,,,,,,,,,,,,1,0,330,128,1,329,1,,,,,,
right,0.589999914,1,261,,,,,,,,,,,,,3,1,3,stim/13.jpeg,HouseObjects,2,stim/objects/HouseObjects/pan3.png,0.9,3,-0.2,-0.15,right,71,2021-04-15_15h04.42.338,premup-three_ses-02_part-02_label-phase2,3.2.4,Win32,60,,,,,,,,,,,,,,,,,1,0,330,168,1,329,2,,,,,,
right,0.542000055,1,262,,,,,,,,,,,,,3,1,1,stim/11.jpeg,HouseObjects,2,stim/objects/HouseObjects/pan3.png,0.9,4,0.2,-0.15,right,71,2021-04-15_15h04.42.338,premup-three_ses-02_part-02_label-phase2,3.2.4,Win32,60,,,,,,,,,,,,,,,,,1,0,330,158,1,329,2,,,,,,
left,0.55099988,1,263,,,,,,,,,,,,,3,2,2,stim/22.jpeg,Instruments,1,stim/objects/Instruments/oboe3.png,0.9,2,0.2,0.15,left,71,2021-04-15_15h04.42.338,premup-three_ses-02_part-02_label-phase2,3.2.4,Win32,60,,,,,,,,,,,,,,,,,1,0,330,259,1,329,2,,,,,,
right,0.462999821,1,264,,,,,,,,,,,,,3,1,1,stim/11.jpeg,HouseObjects,2,stim/objects/HouseObjects/lintroller3.png,0.9,4,0.2,-0.15,right,71,2021-04-15_15h04.42.338,premup-three_ses-02_part-02_label-phase2,3.2.4,Win32,60,,,,,,,,,,,,,,,,,1,0,330,166,1,329,2,,,,,,
right,0.575999975,1,265,,,,,,,,,,,,,3,1,3,stim/13.jpeg,HouseObjects,2,stim/objects/HouseObjects/pan3.png,0.9,3,-0.2,-0.15,right,71,2021-04-15_15h04.42.338,premup-three_ses-02_part-02_label-phase2,3.2.4,Win32,60,,,,,,,,,,,,,,,,,1,0,330,208,1,329,2,,,,,,
right,0.572999954,1,266,,,,,,,,,,,,,2,5,3,stim/53.jpeg,HouseObjects,2,stim/objects/HouseObjects/clothesdryingrack3.png,0.7,3,-0.2,-0.15,right,71,2021-04-15_15h04.42.338,premup-three_ses-02_part-02_label-phase2,3.2.4,Win32,60,,,,,,,,,,,,,,,,,1,0,330,70,1,329,2,,,,,,
right,0.77699995,1,267,,,,,,,,,,,,,1,4,3,stim/43.jpeg,HouseObjects,2,stim/objects/HouseObjects/bottle3.png,0.5,4,0.2,-0.15,right,71,2021-04-15_15h04.42.338,premup-three_ses-02_part-02_label-phase2,3.2.4,Win32,60,,,,,,,,,,,,,,,,,1,0,330,46,1,329,2,,,,,,
right,0.610999823,1,268,,,,,,,,,,,,,3,1,2,stim/12.jpeg,HouseObjects,2,stim/objects/HouseObjects/knife3.png,0.9,1,-0.2,0.15,right,71,2021-04-15_15h04.42.338,premup-three_ses-02_part-02_label-phase2,3.2.4,Win32,60,,,,,,,,,,,,,,,,,1,0,330,215,1,329,2,,,,,,
right,0.506999969,0,269,,,,,,,,,,,,,3,2,1,stim/21.jpeg,Instruments,1,stim/objects/Instruments/musicstand3.png,0.9,2,0.2,0.15,left,71,2021-04-15_15h04.42.338,premup-three_ses-02_part-02_label-phase2,3.2.4,Win32,60,,,,,,,,,,,,,,,,,1,0,330,238,1,329,2,,,,,,
,,0,270,,,,,,,,,,,,,3,2,1,stim/21.jpeg,Instruments,1,stim/objects/Instruments/musicsheet3.png,0.9,4,0.2,-0.15,left,71,2021-04-15_15h04.42.338,premup-three_ses-02_part-02_label-phase2,3.2.4,Win32,60,,,,,,,,,,,,,,,,,1,0,330,282,1,329,2,,,,,,
right,0.680000067,0,271,,,,,,,,,,,,,3,2,3,stim/23.jpeg,Instruments,1,stim/objects/Instruments/marimba3.png,0.9,1,-0.2,0.15,left,71,2021-04-15_15h04.42.338,premup-three_ses-02_part-02_label-phase2,3.2.4,Win32,60,,,,,,,,,,,,,,,,,1,0,330,300,1,329,2,,,,,,
right,0.506000042,1,272,,,,,,,,,,,,,3,1,1,stim/11.jpeg,HouseObjects,2,stim/objects/HouseObjects/knife3.png,0.9,3,-0.2,-0.15,right,71,2021-04-15_15h04.42.338,premup-three_ses-02_part-02_label-phase2,3.2.4,Win32,60,,,,,,,,,,,,,,,,,1,0,330,210,1,329,2,,,,,,
left,0.679999828,1,273,,,,,,,,,,,,,1,3,4,stim/34.jpeg,Instruments,1,stim/objects/Instruments/banjo3.png,0.5,3,-0.2,-0.15,left,71,2021-04-15_15h04.42.338,premup-three_ses-02_part-02_label-phase2,3.2.4,Win32,60,,,,,,,,,,,,,,,,,1,0,330,3,1,329,2,,,,,,
right,0.570999861,1,274,,,,,,,,,,,,,3,1,4,stim/14.jpeg,HouseObjects,2,stim/objects/HouseObjects/knife3.png,0.9,4,0.2,-0.15,right,71,2021-04-15_15h04.42.338,premup-three_ses-02_part-02_label-phase2,3.2.4,Win32,60,,,,,,,,,,,,,,,,,1,0,330,165,1,329,2,,,,,,
right,0.583999872,1,275,,,,,,,,,,,,,1,4,3,stim/43.jpeg,HouseObjects,2,stim/objects/HouseObjects/clock3.png,0.5,1,-0.2,0.15,right,71,2021-04-15_15h04.42.338,premup-three_ses-02_part-02_label-phase2,3.2.4,Win32,60,,,,,,,,,,,,,,,,,1,0,330,54,1,329,2,,,,,,
left,0.527999878,0,276,,,,,,,,,,,,,3,2,4,stim/24.jpeg,HouseObjects,2,stim/objects/HouseObjects/scale4.png,0.1,2,0.2,0.15,right,71,2021-04-15_15h04.42.338,premup-three_ses-02_part-02_label-phase2,3.2.4,Win32,60,,,,,,,,,,,,,,,,,1,0,330,321,1,329,1,,,,,,
left,0.608999968,0,277,,,,,,,,,,,,,2,6,4,stim/64.jpeg,HouseObjects,2,stim/objects/HouseObjects/clothespin4.png,0.3,1,-0.2,0.15,right,71,2021-04-15_15h04.42.338,premup-three_ses-02_part-02_label-phase2,3.2.4,Win32,60,,,,,,,,,,,,,,,,,1,0,330,126,1,329,1,,,,,,
right,0.552999973,0,278,,,,,,,,,,,,,3,1,3,stim/13.jpeg,Instruments,1,stim/objects/Instruments/musicsheet4.png,0.1,1,-0.2,0.15,left,71,2021-04-15_15h04.42.338,premup-three_ses-02_part-02_label-phase2,3.2.4,Win32,60,,,,,,,,,,,,,,,,,1,0,330,132,1,329,1,,,,,,
right,0.574999809,1,279,,,,,,,,,,,,,3,1,1,stim/11.jpeg,HouseObjects,2,stim/objects/HouseObjects/pitcher3.png,0.9,1,-0.2,0.15,right,71,2021-04-15_15h04.42.338,premup-three_ses-02_part-02_label-phase2,3.2.4,Win32,60,,,,,,,,,,,,,,,,,1,0,330,194,1,329,2,,,,,,
left,0.559999943,1,280,,,,,,,,,,,,,2,6,3,stim/63.jpeg,Instruments,1,stim/objects/Instruments/cymbal3.png,0.7,1,-0.2,0.15,left,71,2021-04-15_15h04.42.338,premup-three_ses-02_part-02_label-phase2,3.2.4,Win32,60,,,,,,,,,,,,,,,,,1,0,330,105,1,329,2,,,,,,
right,0.663999796,1,281,,,,,,,,,,,,,1,3,2,stim/32.jpeg,HouseObjects,2,stim/objects/HouseObjects/safetypin3.png,0.5,3,-0.2,-0.15,right,71,2021-04-15_15h04.42.338,premup-three_ses-02_part-02_label-phase2,3.2.4,Win32,60,,,,,,,,,,,,,,,,,1,0,330,29,1,329,1,,,,,,
right,0.664000034,1,282,,,,,,,,,,,,,1,4,2,stim/42.jpeg,HouseObjects,2,stim/objects/HouseObjects/clock3.png,0.5,4,0.2,-0.15,right,71,2021-04-15_15h04.42.338,premup-three_ses-02_part-02_label-phase2,3.2.4,Win32,60,,,,,,,,,,,,,,,,,1,0,330,49,1,329,2,,,,,,
right,0.663000107,0,283,,,,,,,,,,,,,1,3,2,stim/32.jpeg,Instruments,1,stim/objects/Instruments/accordion3.png,0.5,1,-0.2,0.15,left,71,2021-04-15_15h04.42.338,premup-three_ses-02_part-02_label-phase2,3.2.4,Win32,60,,,,,,,,,,,,,,,,,1,0,330,5,1,329,2,,,,,,
left,0.611999989,1,284,,,,,,,,,,,,,3,2,1,stim/21.jpeg,Instruments,1,stim/objects/Instruments/oboe3.png,0.9,4,0.2,-0.15,left,71,2021-04-15_15h04.42.338,premup-three_ses-02_part-02_label-phase2,3.2.4,Win32,60,,,,,,,,,,,,,,,,,1,0,330,254,1,329,2,,,,,,
right,0.564999819,1,285,,,,,,,,,,,,,3,1,4,stim/14.jpeg,HouseObjects,2,stim/objects/HouseObjects/lintroller3.png,0.9,1,-0.2,0.15,right,71,2021-04-15_15h04.42.338,premup-three_ses-02_part-02_label-phase2,3.2.4,Win32,60,,,,,,,,,,,,,,,,,1,0,330,181,1,329,2,,,,,,
left,0.667000055,1,286,,,,,,,,,,,,,3,2,1,stim/21.jpeg,Instruments,1,stim/objects/Instruments/musicstand3.png,0.9,3,-0.2,-0.15,left,71,2021-04-15_15h04.42.338,premup-three_ses-02_part-02_label-phase2,3.2.4,Win32,60,,,,,,,,,,,,,,,,,1,0,330,298,1,329,2,,,,,,
right,0.617000103,0,287,,,,,,,,,,,,,1,4,2,stim/42.jpeg,Instruments,1,stim/objects/Instruments/chime3.png,0.5,4,0.2,-0.15,left,71,2021-04-15_15h04.42.338,premup-three_ses-02_part-02_label-phase2,3.2.4,Win32,60,,,,,,,,,,,,,,,,,1,0,330,37,1,329,2,,,,,,
left,0.522999763,1,288,,,,,,,,,,,,,1,3,3,stim/33.jpeg,Instruments,1,stim/objects/Instruments/saxophone3.png,0.5,3,-0.2,-0.15,left,71,2021-04-15_15h04.42.338,premup-three_ses-02_part-02_label-phase2,3.2.4,Win32,60,,,,,,,,,,,,,,,,,1,0,330,14,1,329,1,,,,,,
right,0.50999999,1,289,,,,,,,,,,,,,2,5,3,stim/53.jpeg,HouseObjects,2,stim/objects/HouseObjects/ironingboard3.png,0.7,2,0.2,0.15,right,71,2021-04-15_15h04.42.338,premup-three_ses-02_part-02_label-phase2,3.2.4,Win32,60,,,,,,,,,,,,,,,,,1,0,330,78,1,329,2,,,,,,
right,0.681999922,1,290,,,,,,,,,,,,,1,4,2,stim/42.jpeg,HouseObjects,2,stim/objects/HouseObjects/sponge3.png,0.5,2,0.2,0.15,right,71,2021-04-15_15h04.42.338,premup-three_ses-02_part-02_label-phase2,3.2.4,Win32,60,,,,,,,,,,,,,,,,,1,0,330,57,1,329,1,,,,,,
left,0.627000093,0,291,,,,,,,,,,,,,2,6,4,stim/64.jpeg,HouseObjects,2,stim/objects/HouseObjects/broom4.png,0.3,4,0.2,-0.15,right,71,2021-04-15_15h04.42.338,premup-three_ses-02_part-02_label-phase2,3.2.4,Win32,60,,,,,,,,,,,,,,,,,1,0,330,122,1,329,1,,,,,,
right,0.585000038,1,292,,,,,,,,,,,,,3,1,3,stim/13.jpeg,HouseObjects,2,stim/objects/HouseObjects/pitcher3.png,0.9,2,0.2,0.15,right,71,2021-04-15_15h04.42.338,premup-three_ses-02_part-02_label-phase2,3.2.4,Win32,60,,,,,,,,,,,,,,,,,1,0,330,164,1,329,2,,,,,,
right,0.54399991,1,293,,,,,,,,,,,,,3,1,3,stim/13.jpeg,HouseObjects,2,stim/objects/HouseObjects/lintroller3.png,0.9,4,0.2,-0.15,right,71,2021-04-15_15h04.42.338,premup-three_ses-02_part-02_label-phase2,3.2.4,Win32,60,,,,,,,,,,,,,,,,,1,0,330,216,1,329,2,,,,,,
left,0.641000032,1,294,,,,,,,,,,,,,2,6,1,stim/61.jpeg,Instruments,1,stim/objects/Instruments/laud3.png,0.7,3,-0.2,-0.15,left,71,2021-04-15_15h04.42.338,premup-three_ses-02_part-02_label-phase2,3.2.4,Win32,60,,,,,,,,,,,,,,,,,1,0,330,103,1,329,2,,,,,,
left,0.63499999,1,295,,,,,,,,,,,,,3,2,2,stim/22.jpeg,Instruments,1,stim/objects/Instruments/trumpet4.png,0.9,4,0.2,-0.15,left,71,2021-04-15_15h04.42.338,premup-three_ses-02_part-02_label-phase2,3.2.4,Win32,60,,,,,,,,,,,,,,,,,1,0,330,315,1,329,1,,,,,,
right,0.555999994,0,296,,,,,,,,,,,,,3,2,1,stim/21.jpeg,Instruments,1,stim/objects/Instruments/metronome3.png,0.9,3,-0.2,-0.15,left,71,2021-04-15_15h04.42.338,premup-three_ses-02_part-02_label-phase2,3.2.4,Win32,60,,,,,,,,,,,,,,,,,1,0,330,306,1,329,2,,,,,,
left,0.743000031,1,297,,,,,,,,,,,,,3,2,2,stim/22.jpeg,Instruments,1,stim/objects/Instruments/marimba3.png,0.9,1,-0.2,0.15,left,71,2021-04-15_15h04.42.338,premup-three_ses-02_part-02_label-phase2,3.2.4,Win32,60,,,,,,,,,,,,,,,,,1,0,330,255,1,329,2,,,,,,
right,0.572000027,0,298,,,,,,,,,,,,,1,3,3,stim/33.jpeg,Instruments,1,stim/objects/Instruments/panflute3.png,0.5,2,0.2,0.15,left,71,2021-04-15_15h04.42.338,premup-three_ses-02_part-02_label-phase2,3.2.4,Win32,60,,,,,,,,,,,,,,,,,1,0,330,10,1,329,1,,,,,,
left,0.575999975,1,299,,,,,,,,,,,,,3,2,1,stim/21.jpeg,Instruments,1,stim/objects/Instruments/musicstand3.png,0.9,2,0.2,0.15,left,71,2021-04-15_15h04.42.338,premup-three_ses-02_part-02_label-phase2,3.2.4,Win32,60,,,,,,,,,,,,,,,,,1,0,330,258,1,329,2,,,,,,
left,0.559999943,0,300,,,,,,,,,,,,,2,6,2,stim/62.jpeg,HouseObjects,2,stim/objects/HouseObjects/blender4.png,0.3,1,-0.2,0.15,right,71,2021-04-15_15h04.42.338,premup-three_ses-02_part-02_label-phase2,3.2.4,Win32,60,,,,,,,,,,,,,,,,,1,0,330,120,1,329,1,,,,,,
left,0.621999979,1,301,,,,,,,,,,,,,3,2,4,stim/24.jpeg,Instruments,1,stim/objects/Instruments/violin4.png,0.9,3,-0.2,-0.15,left,71,2021-04-15_15h04.42.338,premup-three_ses-02_part-02_label-phase2,3.2.4,Win32,60,,,,,,,,,,,,,,,,,1,0,330,317,1,329,1,,,,,,
left,0.682999849,0,302,,,,,,,,,,,,,1,3,1,stim/31.jpeg,HouseObjects,2,stim/objects/HouseObjects/ashtray3.png,0.5,4,0.2,-0.15,right,71,2021-04-15_15h04.42.338,premup-three_ses-02_part-02_label-phase2,3.2.4,Win32,60,,,,,,,,,,,,,,,,,1,0,330,20,1,329,2,,,,,,
left,0.647999763,1,303,,,,,,,,,,,,,2,6,2,stim/62.jpeg,Instruments,1,stim/objects/Instruments/doublebass3.png,0.7,3,-0.2,-0.15,left,71,2021-04-15_15h04.42.338,premup-three_ses-02_part-02_label-phase2,3.2.4,Win32,60,,,,,,,,,,,,,,,,,1,0,330,96,1,329,2,,,,,,
right,0.695999861,1,304,,,,,,,,,,,,,3,1,3,stim/13.jpeg,HouseObjects,2,stim/objects/HouseObjects/pitcher4.png,0.9,3,-0.2,-0.15,right,71,2021-04-15_15h04.42.338,premup-three_ses-02_part-02_label-phase2,3.2.4,Win32,60,,,,,,,,,,,,,,,,,1,0,330,224,1,329,1,,,,,,
left,0.572999954,1,305,,,,,,,,,,,,,3,2,1,stim/21.jpeg,Instruments,1,stim/objects/Instruments/marimba3.png,0.9,2,0.2,0.15,left,71,2021-04-15_15h04.42.338,premup-three_ses-02_part-02_label-phase2,3.2.4,Win32,60,,,,,,,,,,,,,,,,,1,0,330,270,1,329,2,,,,,,
left,0.596999884,1,306,,,,,,,,,,,,,2,6,4,stim/64.jpeg,Instruments,1,stim/objects/Instruments/cornet4.png,0.7,1,-0.2,0.15,left,71,2021-04-15_15h04.42.338,premup-three_ses-02_part-02_label-phase2,3.2.4,Win32,60,,,,,,,,,,,,,,,,,1,0,330,114,1,329,1,,,,,,
right,0.592999935,0,307,,,,,,,,,,,,,2,5,4,stim/54.jpeg,Instruments,1,stim/objects/Instruments/vuvuzela3.png,0.3,4,0.2,-0.15,left,71,2021-04-15_15h04.42.338,premup-three_ses-02_part-02_label-phase2,3.2.4,Win32,60,,,,,,,,,,,,,,,,,1,0,330,63,1,329,1,,,,,,
right,0.431999922,1,308,,,,,,,,,,,,,3,1,2,stim/12.jpeg,HouseObjects,2,stim/objects/HouseObjects/pan4.png,0.9,4,0.2,-0.15,right,71,2021-04-15_15h04.42.338,premup-three_ses-02_part-02_label-phase2,3.2.4,Win32,60,,,,,,,,,,,,,,,,,1,0,330,223,1,329,1,,,,,,
right,0.478999853,1,309,,,,,,,,,,,,,3,1,2,stim/12.jpeg,HouseObjects,2,stim/objects/HouseObjects/pitcher3.png,0.9,4,0.2,-0.15,right,71,2021-04-15_15h04.42.338,premup-three_ses-02_part-02_label-phase2,3.2.4,Win32,60,,,,,,,,,,,,,,,,,1,0,330,179,1,329,2,,,,,,
left,0.656999826,0,310,,,,,,,,,,,,,1,4,4,stim/44.jpeg,HouseObjects,2,stim/objects/HouseObjects/broom3.png,0.5,4,0.2,-0.15,right,71,2021-04-15_15h04.42.338,premup-three_ses-02_part-02_label-phase2,3.2.4,Win32,60,,,,,,,,,,,,,,,,,1,0,330,47,1,329,2,,,,,,
right,0.517999887,0,311,,,,,,,,,,,,,2,5,1,stim/51.jpeg,Instruments,1,stim/objects/Instruments/xylophone3.png,0.3,1,-0.2,0.15,left,71,2021-04-15_15h04.42.338,premup-three_ses-02_part-02_label-phase2,3.2.4,Win32,60,,,,,,,,,,,,,,,,,1,0,330,64,1,329,1,,,,,,
right,0.633999825,1,312,,,,,,,,,,,,,3,1,1,stim/11.jpeg,HouseObjects,2,stim/objects/HouseObjects/match3.png,0.9,1,-0.2,0.15,right,71,2021-04-15_15h04.42.338,premup-three_ses-02_part-02_label-phase2,3.2.4,Win32,60,,,,,,,,,,,,,,,,,1,0,330,162,1,329,2,,,,,,
right,0.630999804,1,313,,,,,,,,,,,,,1,4,4,stim/44.jpeg,HouseObjects,2,stim/objects/HouseObjects/teapot3.png,0.5,3,-0.2,-0.15,right,71,2021-04-15_15h04.42.338,premup-three_ses-02_part-02_label-phase2,3.2.4,Win32,60,,,,,,,,,,,,,,,,,1,0,330,59,1,329,1,,,,,,
left,0.459000111,0,314,,,,,,,,,,,,,2,5,3,stim/53.jpeg,HouseObjects,2,stim/objects/HouseObjects/key3.png,0.7,2,0.2,0.15,right,71,2021-04-15_15h04.42.338,premup-three_ses-02_part-02_label-phase2,3.2.4,Win32,60,,,,,,,,,,,,,,,,,1,0,330,74,1,329,2,,,,,,
right,0.749000072,1,315,,,,,,,,,,,,,2,5,1,stim/51.jpeg,HouseObjects,2,stim/objects/HouseObjects/barbecuelighter4.png,0.7,4,0.2,-0.15,right,71,2021-04-15_15h04.42.338,premup-three_ses-02_part-02_label-phase2,3.2.4,Win32,60,,,,,,,,,,,,,,,,,1,0,330,92,1,329,1,,,,,,
right,0.615999937,1,316,,,,,,,,,,,,,1,4,1,stim/41.jpeg,HouseObjects,2,stim/objects/HouseObjects/scale3.png,0.5,1,-0.2,0.15,right,71,2021-04-15_15h04.42.338,premup-three_ses-02_part-02_label-phase2,3.2.4,Win32,60,,,,,,,,,,,,,,,,,1,0,330,56,1,329,1,,,,,,
right,0.679999828,1,317,,,,,,,,,,,,,3,1,3,stim/13.jpeg,HouseObjects,2,stim/objects/HouseObjects/knife3.png,0.9,1,-0.2,0.15,right,71,2021-04-15_15h04.42.338,premup-three_ses-02_part-02_label-phase2,3.2.4,Win32,60,,,,,,,,,,,,,,,,,1,0,330,200,1,329,2,,,,,,
left,0.703999996,0,318,,,,,,,,,,,,,3,2,2,stim/22.jpeg,HouseObjects,2,stim/objects/HouseObjects/spraybottle4.png,0.1,1,-0.2,0.15,right,71,2021-04-15_15h04.42.338,premup-three_ses-02_part-02_label-phase2,3.2.4,Win32,60,,,,,,,,,,,,,,,,,1,0,330,323,1,329,1,,,,,,
,,0,319,,,,,,,,,,,,,2,6,1,stim/61.jpeg,Instruments,1,stim/objects/Instruments/cymbal3.png,0.7,4,0.2,-0.15,left,71,2021-04-15_15h04.42.338,premup-three_ses-02_part-02_label-phase2,3.2.4,Win32,60,,,,,,,,,,,,,,,,,1,0,330,95,1,329,2,,,,,,
,,0,320,,,,,,,,,,,,,3,1,2,stim/12.jpeg,HouseObjects,2,stim/objects/HouseObjects/pan3.png,0.9,4,0.2,-0.15,right,71,2021-04-15_15h04.42.338,premup-three_ses-02_part-02_label-phase2,3.2.4,Win32,60,,,,,,,,,,,,,,,,,1,0,330,143,1,329,2,,,,,,
right,0.571000099,1,321,,,,,,,,,,,,,1,4,2,stim/42.jpeg,HouseObjects,2,stim/objects/HouseObjects/blender3.png,0.5,1,-0.2,0.15,right,71,2021-04-15_15h04.42.338,premup-three_ses-02_part-02_label-phase2,3.2.4,Win32,60,,,,,,,,,,,,,,,,,1,0,330,45,1,329,2,,,,,,
right,0.427999973,1,322,,,,,,,,,,,,,3,1,2,stim/12.jpeg,HouseObjects,2,stim/objects/HouseObjects/pan3.png,0.9,1,-0.2,0.15,right,71,2021-04-15_15h04.42.338,premup-three_ses-02_part-02_label-phase2,3.2.4,Win32,60,,,,,,,,,,,,,,,,,1,0,330,183,1,329,2,,,,,,
right,0.512999773,0,323,,,,,,,,,,,,,3,1,4,stim/14.jpeg,Instruments,1,stim/objects/Instruments/record4.png,0.1,3,-0.2,-0.15,left,71,2021-04-15_15h04.42.338,premup-three_ses-02_part-02_label-phase2,3.2.4,Win32,60,,,,,,,,,,,,,,,,,1,0,330,137,1,329,1,,,,,,
right,0.450000048,0,324,,,,,,,,,,,,,3,2,1,stim/21.jpeg,Instruments,1,stim/objects/Instruments/oboe3.png,0.9,2,0.2,0.15,left,71,2021-04-15_15h04.42.338,premup-three_ses-02_part-02_label-phase2,3.2.4,Win32,60,,,,,,,,,,,,,,,,,1,0,330,294,1,329,2,,,,,,
left,0.551999807,1,325,,,,,,,,,,,,,2,6,3,stim/63.jpeg,Instruments,1,stim/objects/Instruments/maraca3.png,0.7,3,-0.2,-0.15,left,71,2021-04-15_15h04.42.338,premup-three_ses-02_part-02_label-phase2,3.2.4,Win32,60,,,,,,,,,,,,,,,,,1,0,330,109,1,329,2,,,,,,
left,0.584000111,1,326,,,,,,,,,,,,,3,2,3,stim/23.jpeg,Instruments,1,stim/objects/Instruments/musicsheet3.png,0.9,4,0.2,-0.15,left,71,2021-04-15_15h04.42.338,premup-three_ses-02_part-02_label-phase2,3.2.4,Win32,60,,,,,,,,,,,,,,,,,1,0,330,252,1,329,2,,,,,,
left,0.625,1,327,,,,,,,,,,,,,3,2,1,stim/21.jpeg,Instruments,1,stim/objects/Instruments/vuvuzela4.png,0.9,2,0.2,0.15,left,71,2021-04-15_15h04.42.338,premup-three_ses-02_part-02_label-phase2,3.2.4,Win32,60,,,,,,,,,,,,,,,,,1,0,330,318,1,329,1,,,,,,
right,0.480999708,0,328,,,,,,,,,,,,,2,5,4,stim/54.jpeg,Instruments,1,stim/objects/Instruments/balalaika4.png,0.3,4,0.2,-0.15,left,71,2021-04-15_15h04.42.338,premup-three_ses-02_part-02_label-phase2,3.2.4,Win32,60,,,,,,,,,,,,,,,,,1,0,330,67,1,329,1,,,,,,
left,0.554999828,1,329,,,,,,,,,,,,,3,2,4,stim/24.jpeg,Instruments,1,stim/objects/Instruments/musicsheet3.png,0.9,2,0.2,0.15,left,71,2021-04-15_15h04.42.338,premup-three_ses-02_part-02_label-phase2,3.2.4,Win32,60,,,,,,,,,,,,,,,,,1,0,330,277,1,329,2,,,,,,
right,0.549000025,1,330,,,,,,,,,,,,,3,1,2,stim/12.jpeg,HouseObjects,2,stim/objects/HouseObjects/knife3.png,0.9,1,-0.2,0.15,right,71,2021-04-15_15h04.42.338,premup-three_ses-02_part-02_label-phase2,3.2.4,Win32,60,,,,,,,,,,,,,,,,,1,0,330,175,1,329,2,,,,,,
right,0.498999834,1,331,,,,,,,,,,,,,1,3,3,stim/33.jpeg,HouseObjects,2,stim/objects/HouseObjects/basket3.png,0.5,4,0.2,-0.15,right,71,2021-04-15_15h04.42.338,premup-three_ses-02_part-02_label-phase2,3.2.4,Win32,60,,,,,,,,,,,,,,,,,1,0,330,18,1,329,2,,,,,,
right,0.67599988,0,332,,,,,,,,,,,,,1,4,1,stim/41.jpeg,Instruments,1,stim/objects/Instruments/speaker3.png,0.5,4,0.2,-0.15,left,71,2021-04-15_15h04.42.338,premup-three_ses-02_part-02_label-phase2,3.2.4,Win32,60,,,,,,,,,,,,,,,,,1,0,330,40,1,329,1,,,,,,
right,0.612999916,0,333,,,,,,,,,,,,,3,1,1,stim/11.jpeg,Instruments,1,stim/objects/Instruments/record_player4.png,0.1,1,-0.2,0.15,left,71,2021-04-15_15h04.42.338,premup-three_ses-02_part-02_label-phase2,3.2.4,Win32,60,,,,,,,,,,,,,,,,,1,0,330,138,1,329,1,,,,,,
right,0.710999966,1,334,,,,,,,,,,,,,2,5,4,stim/54.jpeg,HouseObjects,2,stim/objects/HouseObjects/clothesdryingrack3.png,0.7,1,-0.2,0.15,right,71,2021-04-15_15h04.42.338,premup-three_ses-02_part-02_label-phase2,3.2.4,Win32,60,,,,,,,,,,,,,,,,,1,0,330,75,1,329,2,,,,,,
left,0.579999924,1,335,,,,,,,,,,,,,3,2,3,stim/23.jpeg,Instruments,1,stim/objects/Instruments/oboe3.png,0.9,3,-0.2,-0.15,left,71,2021-04-15_15h04.42.338,premup-three_ses-02_part-02_label-phase2,3.2.4,Win32,60,,,,,,,,,,,,,,,,,1,0,330,304,1,329,2,,,,,,
,,0,336,,,,,,,,,,,,,2,5,2,stim/52.jpeg,Instruments,1,stim/objects/Instruments/accordion4.png,0.3,1,-0.2,0.15,left,71,2021-04-15_15h04.42.338,premup-three_ses-02_part-02_label-phase2,3.2.4,Win32,60,,,,,,,,,,,,,,,,,1,0,330,65,1,329,1,,,,,,
right,0.657999992,1,337,,,,,,,,,,,,,3,1,2,stim/12.jpeg,HouseObjects,2,stim/objects/HouseObjects/pan3.png,0.9,1,-0.2,0.15,right,71,2021-04-15_15h04.42.338,premup-three_ses-02_part-02_label-phase2,3.2.4,Win32,60,,,,,,,,,,,,,,,,,1,0,330,163,1,329,2,,,,,,
right,0.443000078,0,338,,,,,,,,,,,,,1,3,1,stim/31.jpeg,Instruments,1,stim/objects/Instruments/accordion3.png,0.5,1,-0.2,0.15,left,71,2021-04-15_15h04.42.338,premup-three_ses-02_part-02_label-phase2,3.2.4,Win32,60,,,,,,,,,,,,,,,,,1,0,330,0,1,329,2,,,,,,
right,0.434999943,1,339,,,,,,,,,,,,,1,4,4,stim/44.jpeg,HouseObjects,2,stim/objects/HouseObjects/saw3.png,0.5,2,0.2,0.15,right,71,2021-04-15_15h04.42.338,premup-three_ses-02_part-02_label-phase2,3.2.4,Win32,60,,,,,,,,,,,,,,,,,1,0,330,55,1,329,1,,,,,,
right,0.565999985,0,340,,,,,,,,,,,,,3,2,1,stim/21.jpeg,Instruments,1,stim/objects/Instruments/trombone4.png,0.9,2,0.2,0.15,left,71,2021-04-15_15h04.42.338,premup-three_ses-02_part-02_label-phase2,3.2.4,Win32,60,,,,,,,,,,,,,,,,,1,0,330,314,1,329,1,,,,,,
right,0.566999912,0,341,,,,,,,,,,,,,1,3,4,stim/34.jpeg,Instruments,1,stim/objects/Instruments/balalaika3.png,0.5,4,0.2,-0.15,left,71,2021-04-15_15h04.42.338,premup-three_ses-02_part-02_label-phase2,3.2.4,Win32,60,,,,,,,,,,,,,,,,,1,0,330,7,1,329,2,,,,,,
right,0.632999897,1,342,,,,,,,,,,,,,3,1,2,stim/12.jpeg,HouseObjects,2,stim/objects/HouseObjects/match3.png,0.9,2,0.2,0.15,right,71,2021-04-15_15h04.42.338,premup-three_ses-02_part-02_label-phase2,3.2.4,Win32,60,,,,,,,,,,,,,,,,,1,0,330,147,1,329,2,,,,,,
right,0.539999962,1,343,,,,,,,,,,,,,1,4,1,stim/41.jpeg,HouseObjects,2,stim/objects/HouseObjects/bucket3.png,0.5,2,0.2,0.15,right,71,2021-04-15_15h04.42.338,premup-three_ses-02_part-02_label-phase2,3.2.4,Win32,60,,,,,,,,,,,,,,,,,1,0,330,48,1,329,2,,,,,,
right,0.701999903,1,344,,,,,,,,,,,,,3,1,2,stim/12.jpeg,HouseObjects,2,stim/objects/HouseObjects/rubbergloves4.png,0.9,2,0.2,0.15,right,71,2021-04-15_15h04.42.338,premup-three_ses-02_part-02_label-phase2,3.2.4,Win32,60,,,,,,,,,,,,,,,,,1,0,330,227,1,329,1,,,,,,
right,0.576999903,0,345,,,,,,,,,,,,,1,4,1,stim/41.jpeg,Instruments,1,stim/objects/Instruments/trombone3.png,0.5,3,-0.2,-0.15,left,71,2021-04-15_15h04.42.338,premup-three_ses-02_part-02_label-phase2,3.2.4,Win32,60,,,,,,,,,,,,,,,,,1,0,330,44,1,329,1,,,,,,
left,0.678999901,1,346,,,,,,,,,,,,,2,6,1,stim/61.jpeg,Instruments,1,stim/objects/Instruments/cymbal4.png,0.7,1,-0.2,0.15,left,71,2021-04-15_15h04.42.338,premup-three_ses-02_part-02_label-phase2,3.2.4,Win32,60,,,,,,,,,,,,,,,,,1,0,330,115,1,329,1,,,,,,
right,0.570999861,1,347,,,,,,,,,,,,,3,1,3,stim/13.jpeg,HouseObjects,2,stim/objects/HouseObjects/pitcher3.png,0.9,3,-0.2,-0.15,right,71,2021-04-15_15h04.42.338,premup-three_ses-02_part-02_label-phase2,3.2.4,Win32,60,,,,,,,,,,,,,,,,,1,0,330,204,1,329,2,,,,,,
right,0.519999981,1,348,,,,,,,,,,,,,3,1,3,stim/13.jpeg,HouseObjects,2,stim/objects/HouseObjects/pan3.png,0.9,1,-0.2,0.15,right,71,2021-04-15_15h04.42.338,premup-three_ses-02_part-02_label-phase2,3.2.4,Win32,60,,,,,,,,,,,,,,,,,1,0,330,148,1,329,2,,,,,,
right,0.526000023,0,349,,,,,,,,,,,,,2,5,3,stim/53.jpeg,Instruments,1,stim/objects/Instruments/acousticguitar4.png,0.3,3,-0.2,-0.15,left,71,2021-04-15_15h04.42.338,premup-three_ses-02_part-02_label-phase2,3.2.4,Win32,60,,,,,,,,,,,,,,,,,1,0,330,66,1,329,1,,,,,,
left,0.779999971,0,350,,,,,,,,,,,,,3,2,2,stim/22.jpeg,HouseObjects,2,stim/objects/HouseObjects/towel4.png,0.1,2,0.2,0.15,right,71,2021-04-15_15h04.42.338,premup-three_ses-02_part-02_label-phase2,3.2.4,Win32,60,,,,,,,,,,,,,,,,,1,0,330,327,1,329,1,,,,,,
left,0.56799984,1,351,,,,,,,,,,,,,3,2,2,stim/22.jpeg,Instruments,1,stim/objects/Instruments/musicsheet3.png,0.9,4,0.2,-0.15,left,71,2021-04-15_15h04.42.338,premup-three_ses-02_part-02_label-phase2,3.2.4,Win32,60,,,,,,,,,,,,,,,,,1,0,330,267,1,329,2,,,,,,
right,0.530999899,1,352,,,,,,,,,,,,,3,1,4,stim/14.jpeg,HouseObjects,2,stim/objects/HouseObjects/pan3.png,0.9,4,0.2,-0.15,right,71,2021-04-15_15h04.42.338,premup-three_ses-02_part-02_label-phase2,3.2.4,Win32,60,,,,,,,,,,,,,,,,,1,0,330,213,1,329,2,,,,,,
right,0.567000151,1,353,,,,,,,,,,,,,1,3,3,stim/33.jpeg,HouseObjects,2,stim/objects/HouseObjects/barbecuelighter3.png,0.5,1,-0.2,0.15,right,71,2021-04-15_15h04.42.338,premup-three_ses-02_part-02_label-phase2,3.2.4,Win32,60,,,,,,,,,,,,,,,,,1,0,330,22,1,329,2,,,,,,
left,0.496000051,1,354,,,,,,,,,,,,,1,4,4,stim/44.jpeg,Instruments,1,stim/objects/Instruments/cornet3.png,0.5,4,0.2,-0.15,left,71,2021-04-15_15h04.42.338,premup-three_ses-02_part-02_label-phase2,3.2.4,Win32,60,,,,,,,,,,,,,,,,,1,0,330,39,1,329,2,,,,,,
left,0.505999804,1,355,,,,,,,,,,,,,3,2,3,stim/23.jpeg,Instruments,1,stim/objects/Instruments/musicstand3.png,0.9,3,-0.2,-0.15,left,71,2021-04-15_15h04.42.338,premup-three_ses-02_part-02_label-phase2,3.2.4,Win32,60,,,,,,,,,,,,,,,,,1,0,330,308,1,329,2,,,,,,
left,0.617000103,1,356,,,,,,,,,,,,,3,2,2,stim/22.jpeg,Instruments,1,stim/objects/Instruments/musicstand3.png,0.9,4,0.2,-0.15,left,71,2021-04-15_15h04.42.338,premup-three_ses-02_part-02_label-phase2,3.2.4,Win32,60,,,,,,,,,,,,,,,,,1,0,330,283,1,329,2,,,,,,
right,0.496999979,1,357,,,,,,,,,,,,,3,1,1,stim/11.jpeg,HouseObjects,2,stim/objects/HouseObjects/remote4.png,0.9,1,-0.2,0.15,right,71,2021-04-15_15h04.42.338,premup-three_ses-02_part-02_label-phase2,3.2.4,Win32,60,,,,,,,,,,,,,,,,,1,0,330,226,1,329,1,,,,,,
left,0.476999998,1,358,,,,,,,,,,,,,3,2,1,stim/21.jpeg,Instruments,1,stim/objects/Instruments/speaker4.png,0.9,2,0.2,0.15,left,71,2021-04-15_15h04.42.338,premup-three_ses-02_part-02_label-phase2,3.2.4,Win32,60,,,,,,,,,,,,,,,,,1,0,330,310,1,329,1,,,,,,
right,0.643999815,1,359,,,,,,,,,,,,,3,1,2,stim/12.jpeg,HouseObjects,2,stim/objects/HouseObjects/knife3.png,0.9,3,-0.2,-0.15,right,71,2021-04-15_15h04.42.338,premup-three_ses-02_part-02_label-phase2,3.2.4,Win32,60,,,,,,,,,,,,,,,,,1,0,330,155,1,329,2,,,,,,
left,0.633999825,0,360,,,,,,,,,,,,,3,2,1,stim/21.jpeg,HouseObjects,2,stim/objects/HouseObjects/thread4.png,0.1,3,-0.2,-0.15,right,71,2021-04-15_15h04.42.338,premup-three_ses-02_part-02_label-phase2,3.2.4,Win32,60,,,,,,,,,,,,,,,,,1,0,330,326,1,329,1,,,,,,
left,0.52699995,1,361,,,,,,,,,,,,,3,2,4,stim/24.jpeg,Instruments,1,stim/objects/Instruments/marimba3.png,0.9,4,0.2,-0.15,left,71,2021-04-15_15h04.42.338,premup-three_ses-02_part-02_label-phase2,3.2.4,Win32,60,,,,,,,,,,,,,,,,,1,0,330,285,1,329,2,,,,,,
right,0.51699996,0,362,,,,,,,,,,,,,1,3,4,stim/34.jpeg,Instruments,1,stim/objects/Instruments/pipepiano3.png,0.5,2,0.2,0.15,left,71,2021-04-15_15h04.42.338,premup-three_ses-02_part-02_label-phase2,3.2.4,Win32,60,,,,,,,,,,,,,,,,,1,0,330,11,1,329,1,,,,,,
right,0.486999989,1,363,,,,,,,,,,,,,3,1,4,stim/14.jpeg,HouseObjects,2,stim/objects/HouseObjects/match3.png,0.9,3,-0.2,-0.15,right,71,2021-04-15_15h04.42.338,premup-three_ses-02_part-02_label-phase2,3.2.4,Win32,60,,,,,,,,,,,,,,,,,1,0,330,177,1,329,2,,,,,,
right,0.447999954,1,364,,,,,,,,,,,,,1,3,4,stim/34.jpeg,HouseObjects,2,stim/objects/HouseObjects/basket3.png,0.5,1,-0.2,0.15,right,71,2021-04-15_15h04.42.338,premup-three_ses-02_part-02_label-phase2,3.2.4,Win32,60,,,,,,,,,,,,,,,,,1,0,330,23,1,329,2,,,,,,
right,0.430999994,1,365,,,,,,,,,,,,,3,1,1,stim/11.jpeg,HouseObjects,2,stim/objects/HouseObjects/knife3.png,0.9,4,0.2,-0.15,right,71,2021-04-15_15h04.42.338,premup-three_ses-02_part-02_label-phase2,3.2.4,Win32,60,,,,,,,,,,,,,,,,,1,0,330,170,1,329,2,,,,,,
left,0.573999882,1,366,,,,,,,,,,,,,3,2,4,stim/24.jpeg,Instruments,1,stim/objects/Instruments/musicsheet3.png,0.9,2,0.2,0.15,left,71,2021-04-15_15h04.42.338,premup-three_ses-02_part-02_label-phase2,3.2.4,Win32,60,,,,,,,,,,,,,,,,,1,0,330,297,1,329,2,,,,,,
left,0.578000069,0,367,,,,,,,,,,,,,3,2,4,stim/24.jpeg,HouseObjects,2,stim/objects/HouseObjects/wateringcan4.png,0.1,4,0.2,-0.15,right,71,2021-04-15_15h04.42.338,premup-three_ses-02_part-02_label-phase2,3.2.4,Win32,60,,,,,,,,,,,,,,,,,1,0,330,329,1,329,1,,,,,,
left,0.429999828,0,368,,,,,,,,,,,,,2,6,1,stim/61.jpeg,HouseObjects,2,stim/objects/HouseObjects/iron4.png,0.3,1,-0.2,0.15,right,71,2021-04-15_15h04.42.338,premup-three_ses-02_part-02_label-phase2,3.2.4,Win32,60,,,,,,,,,,,,,,,,,1,0,330,127,1,329,1,,,,,,
left,0.513000011,0,369,,,,,,,,,,,,,3,1,4,stim/14.jpeg,HouseObjects,2,stim/objects/HouseObjects/pitcher3.png,0.9,1,-0.2,0.15,right,71,2021-04-15_15h04.42.338,premup-three_ses-02_part-02_label-phase2,3.2.4,Win32,60,,,,,,,,,,,,,,,,,1,0,330,209,1,329,2,,,,,,
right,0.559999943,1,370,,,,,,,,,,,,,3,1,2,stim/12.jpeg,HouseObjects,2,stim/objects/HouseObjects/match3.png,0.9,3,-0.2,-0.15,right,71,2021-04-15_15h04.42.338,premup-three_ses-02_part-02_label-phase2,3.2.4,Win32,60,,,,,,,,,,,,,,,,,1,0,330,187,1,329,2,,,,,,
left,0.631000042,1,371,,,,,,,,,,,,,3,2,3,stim/23.jpeg,Instruments,1,stim/objects/Instruments/metronome3.png,0.9,2,0.2,0.15,left,71,2021-04-15_15h04.42.338,premup-three_ses-02_part-02_label-phase2,3.2.4,Win32,60,,,,,,,,,,,,,,,,,1,0,330,256,1,329,2,,,,,,
right,0.50999999,1,372,,,,,,,,,,,,,2,5,3,stim/53.jpeg,HouseObjects,2,stim/objects/HouseObjects/iron3.png,0.7,3,-0.2,-0.15,right,71,2021-04-15_15h04.42.338,premup-three_ses-02_part-02_label-phase2,3.2.4,Win32,60,,,,,,,,,,,,,,,,,1,0,330,82,1,329,2,,,,,,
left,0.49000001,1,373,,,,,,,,,,,,,1,3,2,stim/32.jpeg,Instruments,1,stim/objects/Instruments/bassdrum3.png,0.5,1,-0.2,0.15,left,71,2021-04-15_15h04.42.338,premup-three_ses-02_part-02_label-phase2,3.2.4,Win32,60,,,,,,,,,,,,,,,,,1,0,330,9,1,329,2,,,,,,
right,0.476000071,0,374,,,,,,,,,,,,,3,2,4,stim/24.jpeg,Instruments,1,stim/objects/Instruments/oboe3.png,0.9,4,0.2,-0.15,left,71,2021-04-15_15h04.42.338,premup-three_ses-02_part-02_label-phase2,3.2.4,Win32,60,,,,,,,,,,,,,,,,,1,0,330,269,1,329,2,,,,,,
right,0.589999914,0,375,,,,,,,,,,,,,1,4,3,stim/43.jpeg,Instruments,1,stim/objects/Instruments/bassguitar3.png,0.5,4,0.2,-0.15,left,71,2021-04-15_15h04.42.338,premup-three_ses-02_part-02_label-phase2,3.2.4,Win32,60,,,,,,,,,,,,,,,,,1,0,330,30,1,329,2,,,,,,
left,0.712999821,1,376,,,,,,,,,,,,,3,2,2,stim/22.jpeg,Instruments,1,stim/objects/Instruments/musicsheet3.png,0.9,3,-0.2,-0.15,left,71,2021-04-15_15h04.42.338,premup-three_ses-02_part-02_label-phase2,3.2.4,Win32,60,,,,,,,,,,,,,,,,,1,0,330,287,1,329,2,,,,,,
left,0.55099988,1,377,,,,,,,,,,,,,2,6,2,stim/62.jpeg,Instruments,1,stim/objects/Instruments/laud3.png,0.7,3,-0.2,-0.15,left,71,2021-04-15_15h04.42.338,premup-three_ses-02_part-02_label-phase2,3.2.4,Win32,60,,,,,,,,,,,,,,,,,1,0,330,108,1,329,2,,,,,,
left,0.680999994,0,378,,,,,,,,,,,,,1,3,3,stim/33.jpeg,HouseObjects,2,stim/objects/HouseObjects/remote3.png,0.5,2,0.2,0.15,right,71,2021-04-15_15h04.42.338,premup-three_ses-02_part-02_label-phase2,3.2.4,Win32,60,,,,,,,,,,,,,,,,,1,0,330,26,1,329,1,,,,,,
left,0.593999863,1,379,,,,,,,,,,,,,2,6,4,stim/64.jpeg,Instruments,1,stim/objects/Instruments/laud3.png,0.7,3,-0.2,-0.15,left,71,2021-04-15_15h04.42.338,premup-three_ses-02_part-02_label-phase2,3.2.4,Win32,60,,,,,,,,,,,,,,,,,1,0,330,98,1,329,2,,,,,,
left,0.695999861,0,380,,,,,,,,,,,,,2,6,3,stim/63.jpeg,HouseObjects,2,stim/objects/HouseObjects/key4.png,0.3,1,-0.2,0.15,right,71,2021-04-15_15h04.42.338,premup-three_ses-02_part-02_label-phase2,3.2.4,Win32,60,,,,,,,,,,,,,,,,,1,0,330,129,1,329,1,,,,,,
