key_resp_pract.keys,key_resp_pract.rt,trial_acc,trial_index,practice_loop.thisRepN,practice_loop.thisTrialN,practice_loop.thisN,practice_loop.thisIndex,practice_loop.ran,practice_loop.order,scn_condition,scn_cat,scn_inst,scn_file,obj_cat,obj_cat_num,obj_file,trial_cond,quadrant,obj_x,obj_y,corr_ans,participant,date,expName,psychopyVersion,OS,frameRate,key_resp_trial.keys,key_resp_trial.rt,iterations.thisRepN,iterations.thisTrialN,iterations.thisN,iterations.thisIndex,iterations.ran,iterations.order,task_innerloop.thisRepN,task_innerloop.thisTrialN,task_innerloop.thisN,task_innerloop.thisIndex,task_innerloop.ran,task_innerloop.order,iteration_index,rating_acc,slider.response,slider.rt,slider_2.response,slider_2.rt,ratings.thisRepN,ratings.thisTrialN,ratings.thisN,ratings.thisIndex,ratings.ran,ratings.order,obj_cat_top,min_resp_top,max_resp_top,obj_cat_bottom,min_resp_bottom,max_resp_bottom
,,0,1,1,0,240,51,1,239,1,6,4,stim/64.jpeg,HouseObjects,1,stim/objects/HouseObjects/pitcher.png,0.5,4,0.2,-0.15,left,72,2020-12-11_17h10.52.898,premup-three_ses-01_part-01_label-phase1,3.2.4,MacIntel,60,,,,,,,,,,,,,,,,,,,,,,,,,,,,,,,,
left,1.065999985,1,2,1,0,240,9,1,239,1,5,2,stim/52.jpeg,HouseObjects,1,stim/objects/HouseObjects/ironingboard.png,0.5,2,0.2,0.15,left,72,2020-12-11_17h10.52.898,premup-three_ses-01_part-01_label-phase1,3.2.4,MacIntel,60,,,,,,,,,,,,,,,,,,,,,,,,,,,,,,,,
right,1.599999905,0,3,1,0,240,216,1,239,3,4,1,stim/41.jpeg,HouseObjects,1,stim/objects/HouseObjects/recyclingbin2.png,0.9,2,0.2,0.15,left,72,2020-12-11_17h10.52.898,premup-three_ses-01_part-01_label-phase1,3.2.4,MacIntel,60,,,,,,,,,,,,,,,,,,,,,,,,,,,,,,,,
right,1.855000019,1,4,1,0,240,36,1,239,1,5,1,stim/51.jpeg,Instruments,2,stim/objects/Instruments/keyboard.png,0.5,4,0.2,-0.15,right,72,2020-12-11_17h10.52.898,premup-three_ses-01_part-01_label-phase1,3.2.4,MacIntel,60,,,,,,,,,,,,,,,,,,,,,,,,,,,,,,,,
left,1.365999937,1,5,1,0,240,210,1,239,3,4,3,stim/43.jpeg,HouseObjects,1,stim/objects/HouseObjects/rubbergloves2.png,0.9,1,-0.2,0.15,left,72,2020-12-11_17h10.52.898,premup-three_ses-01_part-01_label-phase1,3.2.4,MacIntel,60,,,,,,,,,,,,,,,,,,,,,,,,,,,,,,,,
left,1.605999947,1,6,1,0,240,87,1,239,2,1,4,stim/14.jpeg,HouseObjects,1,stim/objects/HouseObjects/rug.png,0.3,2,0.2,0.15,left,72,2020-12-11_17h10.52.898,premup-three_ses-01_part-01_label-phase1,3.2.4,MacIntel,60,,,,,,,,,,,,,,,,,,,,,,,,,,,,,,,,
,,0,7,1,0,240,14,1,239,1,5,3,stim/53.jpeg,HouseObjects,1,stim/objects/HouseObjects/key.png,0.5,2,0.2,0.15,left,72,2020-12-11_17h10.52.898,premup-three_ses-01_part-01_label-phase1,3.2.4,MacIntel,60,,,,,,,,,,,,,,,,,,,,,,,,,,,,,,,,
left,1.305999994,0,8,1,0,240,168,1,239,3,3,1,stim/31.jpeg,Instruments,2,stim/objects/Instruments/metronome2.png,0.9,4,0.2,-0.15,right,72,2020-12-11_17h10.52.898,premup-three_ses-01_part-01_label-phase1,3.2.4,MacIntel,60,,,,,,,,,,,,,,,,,,,,,,,,,,,,,,,,
left,1.790999889,0,9,1,0,240,194,1,239,3,3,3,stim/33.jpeg,Instruments,2,stim/objects/Instruments/musicstand2.png,0.9,1,-0.2,0.15,right,72,2020-12-11_17h10.52.898,premup-three_ses-01_part-01_label-phase1,3.2.4,MacIntel,60,,,,,,,,,,,,,,,,,,,,,,,,,,,,,,,,
right,1.622999907,1,10,1,0,240,38,1,239,1,5,3,stim/53.jpeg,Instruments,2,stim/objects/Instruments/maraca.png,0.5,4,0.2,-0.15,right,72,2020-12-11_17h10.52.898,premup-three_ses-01_part-01_label-phase1,3.2.4,MacIntel,60,,,,,,,,,,,,,,,,,,,,,,,,,,,,,,,,
,,0,1,,,,,,,1,6,3,stim/63.jpeg,Instruments,2,stim/objects/Instruments/musicstand.png,0.5,2,0.2,0.15,right,72,2020-12-11_17h10.52.898,premup-three_ses-01_part-01_label-phase1,3.2.4,MacIntel,60,,,4,0,4,0,1,3,1,0,240,78,1,239,,,,,,,,,,,,,,,,,,
,,1,2,,,,,,,1,5,3,stim/53.jpeg,Instruments,2,stim/objects/Instruments/maraca.png,0.5,3,-0.2,-0.15,right,72,2020-12-11_17h10.52.898,premup-three_ses-01_part-01_label-phase1,3.2.4,MacIntel,60,right,1.518999815,4,0,4,0,1,3,1,0,240,22,1,239,,,,,,,,,,,,,,,,,,
,,0,3,,,,,,,3,3,4,stim/34.jpeg,HouseObjects,1,stim/objects/HouseObjects/pitcher2.png,0.1,3,-0.2,-0.15,left,72,2020-12-11_17h10.52.898,premup-three_ses-01_part-01_label-phase1,3.2.4,MacIntel,60,right,0.906999826,4,0,4,0,1,3,1,0,240,163,1,239,,,,,,,,,,,,,,,,,,
,,1,4,,,,,,,3,4,3,stim/43.jpeg,HouseObjects,1,stim/objects/HouseObjects/rubbergloves2.png,0.9,1,-0.2,0.15,left,72,2020-12-11_17h10.52.898,premup-three_ses-01_part-01_label-phase1,3.2.4,MacIntel,60,left,1.447000027,4,0,4,0,1,3,1,0,240,210,1,239,,,,,,,,,,,,,,,,,,
,,1,5,,,,,,,3,3,4,stim/34.jpeg,Instruments,2,stim/objects/Instruments/oboe2.png,0.9,1,-0.2,0.15,right,72,2020-12-11_17h10.52.898,premup-three_ses-01_part-01_label-phase1,3.2.4,MacIntel,60,right,0.983999968,4,0,4,0,1,3,1,0,240,199,1,239,,,,,,,,,,,,,,,,,,
,,1,6,,,,,,,1,6,4,stim/64.jpeg,HouseObjects,1,stim/objects/HouseObjects/pitcher.png,0.5,3,-0.2,-0.15,left,72,2020-12-11_17h10.52.898,premup-three_ses-01_part-01_label-phase1,3.2.4,MacIntel,60,left,1.324999809,4,0,4,0,1,3,1,0,240,47,1,239,,,,,,,,,,,,,,,,,,
,,1,7,,,,,,,1,6,3,stim/63.jpeg,HouseObjects,1,stim/objects/HouseObjects/pan.png,0.5,4,0.2,-0.15,left,72,2020-12-11_17h10.52.898,premup-three_ses-01_part-01_label-phase1,3.2.4,MacIntel,60,left,1.342999935,4,0,4,0,1,3,1,0,240,50,1,239,,,,,,,,,,,,,,,,,,
,,0,8,,,,,,,2,1,3,stim/13.jpeg,Instruments,2,stim/objects/Instruments/record.png,0.7,2,0.2,0.15,right,72,2020-12-11_17h10.52.898,premup-three_ses-01_part-01_label-phase1,3.2.4,MacIntel,60,,,4,0,4,0,1,3,1,0,240,98,1,239,,,,,,,,,,,,,,,,,,
,,0,9,,,,,,,1,6,2,stim/62.jpeg,Instruments,2,stim/objects/Instruments/musicsheet.png,0.5,2,0.2,0.15,right,72,2020-12-11_17h10.52.898,premup-three_ses-01_part-01_label-phase1,3.2.4,MacIntel,60,left,0.858999968,4,0,4,0,1,3,1,0,240,77,1,239,,,,,,,,,,,,,,,,,,
,,0,10,,,,,,,3,4,4,stim/44.jpeg,HouseObjects,1,stim/objects/HouseObjects/rug2.png,0.9,4,0.2,-0.15,left,72,2020-12-11_17h10.52.898,premup-three_ses-01_part-01_label-phase1,3.2.4,MacIntel,60,right,1.248999834,4,0,4,0,1,3,1,0,240,235,1,239,,,,,,,,,,,,,,,,,,
,,1,11,,,,,,,2,2,3,stim/23.jpeg,Instruments,2,stim/objects/Instruments/maraca2.png,0.3,1,-0.2,0.15,right,72,2020-12-11_17h10.52.898,premup-three_ses-01_part-01_label-phase1,3.2.4,MacIntel,60,right,1.502999783,4,0,4,0,1,3,1,0,240,158,1,239,,,,,,,,,,,,,,,,,,
,,1,12,,,,,,,1,5,4,stim/54.jpeg,Instruments,2,stim/objects/Instruments/marimba.png,0.5,2,0.2,0.15,right,72,2020-12-11_17h10.52.898,premup-three_ses-01_part-01_label-phase1,3.2.4,MacIntel,60,right,1.203999996,4,0,4,0,1,3,1,0,240,23,1,239,,,,,,,,,,,,,,,,,,
,,0,13,,,,,,,3,3,4,stim/34.jpeg,Instruments,2,stim/objects/Instruments/oboe2.png,0.9,3,-0.2,-0.15,right,72,2020-12-11_17h10.52.898,premup-three_ses-01_part-01_label-phase1,3.2.4,MacIntel,60,left,1.576999903,4,0,4,0,1,3,1,0,240,195,1,239,,,,,,,,,,,,,,,,,,
,,0,14,,,,,,,1,6,3,stim/63.jpeg,Instruments,2,stim/objects/Instruments/musicstand.png,0.5,1,-0.2,0.15,right,72,2020-12-11_17h10.52.898,premup-three_ses-01_part-01_label-phase1,3.2.4,MacIntel,60,left,1.480000019,4,0,4,0,1,3,1,0,240,66,1,239,,,,,,,,,,,,,,,,,,
,,1,15,,,,,,,1,5,3,stim/53.jpeg,Instruments,2,stim/objects/Instruments/maraca.png,0.5,2,0.2,0.15,right,72,2020-12-11_17h10.52.898,premup-three_ses-01_part-01_label-phase1,3.2.4,MacIntel,60,right,1.236999989,4,0,4,0,1,3,1,0,240,26,1,239,,,,,,,,,,,,,,,,,,
,,1,16,,,,,,,3,4,1,stim/41.jpeg,HouseObjects,1,stim/objects/HouseObjects/recyclingbin2.png,0.9,1,-0.2,0.15,left,72,2020-12-11_17h10.52.898,premup-three_ses-01_part-01_label-phase1,3.2.4,MacIntel,60,left,1.72300005,4,0,4,0,1,3,1,0,240,208,1,239,,,,,,,,,,,,,,,,,,
,,0,17,,,,,,,1,5,4,stim/54.jpeg,HouseObjects,1,stim/objects/HouseObjects/knife.png,0.5,1,-0.2,0.15,left,72,2020-12-11_17h10.52.898,premup-three_ses-01_part-01_label-phase1,3.2.4,MacIntel,60,right,1.570999861,4,0,4,0,1,3,1,0,240,11,1,239,,,,,,,,,,,,,,,,,,
,,1,18,,,,,,,3,3,3,stim/33.jpeg,Instruments,2,stim/objects/Instruments/musicstand2.png,0.9,2,0.2,0.15,right,72,2020-12-11_17h10.52.898,premup-three_ses-01_part-01_label-phase1,3.2.4,MacIntel,60,right,1.394000053,4,0,4,0,1,3,1,0,240,182,1,239,,,,,,,,,,,,,,,,,,
,,1,19,,,,,,,3,3,2,stim/32.jpeg,Instruments,2,stim/objects/Instruments/musicsheet2.png,0.9,4,0.2,-0.15,right,72,2020-12-11_17h10.52.898,premup-three_ses-01_part-01_label-phase1,3.2.4,MacIntel,60,right,0.618999958,4,0,4,0,1,3,1,0,240,177,1,239,,,,,,,,,,,,,,,,,,
,,1,20,,,,,,,3,3,3,stim/33.jpeg,Instruments,2,stim/objects/Instruments/musicstand2.png,0.9,4,0.2,-0.15,right,72,2020-12-11_17h10.52.898,premup-three_ses-01_part-01_label-phase1,3.2.4,MacIntel,60,right,0.57799983,4,0,4,0,1,3,1,0,240,178,1,239,,,,,,,,,,,,,,,,,,
,,1,21,,,,,,,1,5,4,stim/54.jpeg,Instruments,2,stim/objects/Instruments/marimba.png,0.5,2,0.2,0.15,right,72,2020-12-11_17h10.52.898,premup-three_ses-01_part-01_label-phase1,3.2.4,MacIntel,60,right,0.738999844,4,0,4,0,1,3,1,0,240,27,1,239,,,,,,,,,,,,,,,,,,
,,1,22,,,,,,,1,6,3,stim/63.jpeg,HouseObjects,1,stim/objects/HouseObjects/pan.png,0.5,1,-0.2,0.15,left,72,2020-12-11_17h10.52.898,premup-three_ses-01_part-01_label-phase1,3.2.4,MacIntel,60,left,0.729000092,4,0,4,0,1,3,1,0,240,58,1,239,,,,,,,,,,,,,,,,,,
,,1,23,,,,,,,3,3,1,stim/31.jpeg,Instruments,2,stim/objects/Instruments/metronome2.png,0.9,2,0.2,0.15,right,72,2020-12-11_17h10.52.898,premup-three_ses-01_part-01_label-phase1,3.2.4,MacIntel,60,right,0.861000061,4,0,4,0,1,3,1,0,240,180,1,239,,,,,,,,,,,,,,,,,,
,,1,24,,,,,,,1,6,1,stim/61.jpeg,HouseObjects,1,stim/objects/HouseObjects/lintroller.png,0.5,4,0.2,-0.15,left,72,2020-12-11_17h10.52.898,premup-three_ses-01_part-01_label-phase1,3.2.4,MacIntel,60,left,1.132999897,4,0,4,0,1,3,1,0,240,40,1,239,,,,,,,,,,,,,,,,,,
,,1,25,,,,,,,3,4,2,stim/42.jpeg,HouseObjects,1,stim/objects/HouseObjects/remote2.png,0.9,3,-0.2,-0.15,left,72,2020-12-11_17h10.52.898,premup-three_ses-01_part-01_label-phase1,3.2.4,MacIntel,60,left,1.850999832,4,0,4,0,1,3,1,0,240,221,1,239,,,,,,,,,,,,,,,,,,
,,0,26,,,,,,,2,2,2,stim/22.jpeg,Instruments,2,stim/objects/Instruments/laud2.png,0.3,4,0.2,-0.15,right,72,2020-12-11_17h10.52.898,premup-three_ses-01_part-01_label-phase1,3.2.4,MacIntel,60,left,1.414999962,4,0,4,0,1,3,1,0,240,157,1,239,,,,,,,,,,,,,,,,,,
,,1,27,,,,,,,3,3,4,stim/34.jpeg,Instruments,2,stim/objects/Instruments/oboe2.png,0.9,2,0.2,0.15,right,72,2020-12-11_17h10.52.898,premup-three_ses-01_part-01_label-phase1,3.2.4,MacIntel,60,right,1.462999821,4,0,4,0,1,3,1,0,240,171,1,239,,,,,,,,,,,,,,,,,,
,,0,28,,,,,,,3,4,1,stim/41.jpeg,HouseObjects,1,stim/objects/HouseObjects/recyclingbin2.png,0.9,3,-0.2,-0.15,left,72,2020-12-11_17h10.52.898,premup-three_ses-01_part-01_label-phase1,3.2.4,MacIntel,60,,,4,0,4,0,1,3,1,0,240,232,1,239,,,,,,,,,,,,,,,,,,
,,0,29,,,,,,,2,2,2,stim/22.jpeg,HouseObjects,1,stim/objects/HouseObjects/ironingboard2.png,0.7,3,-0.2,-0.15,left,72,2020-12-11_17h10.52.898,premup-three_ses-01_part-01_label-phase1,3.2.4,MacIntel,60,right,1.88499999,4,0,4,0,1,3,1,0,240,121,1,239,,,,,,,,,,,,,,,,,,
,,1,30,,,,,,,3,4,1,stim/41.jpeg,HouseObjects,1,stim/objects/HouseObjects/recyclingbin2.png,0.9,1,-0.2,0.15,left,72,2020-12-11_17h10.52.898,premup-three_ses-01_part-01_label-phase1,3.2.4,MacIntel,60,left,1.473999739,4,0,4,0,1,3,1,0,240,200,1,239,,,,,,,,,,,,,,,,,,
,,0,31,,,,,,,2,1,1,stim/11.jpeg,Instruments,2,stim/objects/Instruments/panflute.png,0.7,3,-0.2,-0.15,right,72,2020-12-11_17h10.52.898,premup-three_ses-01_part-01_label-phase1,3.2.4,MacIntel,60,,,4,0,4,0,1,3,1,0,240,116,1,239,,,,,,,,,,,,,,,,,,
,,0,32,,,,,,,2,2,2,stim/22.jpeg,HouseObjects,1,stim/objects/HouseObjects/ironingboard2.png,0.7,4,0.2,-0.15,left,72,2020-12-11_17h10.52.898,premup-three_ses-01_part-01_label-phase1,3.2.4,MacIntel,60,,,4,0,4,0,1,3,1,0,240,125,1,239,,,,,,,,,,,,,,,,,,
,,1,33,,,,,,,3,4,3,stim/43.jpeg,HouseObjects,1,stim/objects/HouseObjects/rubbergloves2.png,0.9,3,-0.2,-0.15,left,72,2020-12-11_17h10.52.898,premup-three_ses-01_part-01_label-phase1,3.2.4,MacIntel,60,left,1.243999958,4,0,4,0,1,3,1,0,240,206,1,239,,,,,,,,,,,,,,,,,,
,,0,34,,,,,,,2,1,1,stim/11.jpeg,Instruments,2,stim/objects/Instruments/panflute.png,0.7,3,-0.2,-0.15,right,72,2020-12-11_17h10.52.898,premup-three_ses-01_part-01_label-phase1,3.2.4,MacIntel,60,left,1.138999939,4,0,4,0,1,3,1,0,240,100,1,239,,,,,,,,,,,,,,,,,,
,,0,35,,,,,,,1,5,3,stim/53.jpeg,HouseObjects,1,stim/objects/HouseObjects/key.png,0.5,4,0.2,-0.15,left,72,2020-12-11_17h10.52.898,premup-three_ses-01_part-01_label-phase1,3.2.4,MacIntel,60,right,1.172999859,4,0,4,0,1,3,1,0,240,18,1,239,,,,,,,,,,,,,,,,,,
,,0,36,,,,,,,1,5,1,stim/51.jpeg,Instruments,2,stim/objects/Instruments/keyboard.png,0.5,1,-0.2,0.15,right,72,2020-12-11_17h10.52.898,premup-three_ses-01_part-01_label-phase1,3.2.4,MacIntel,60,,,4,0,4,0,1,3,1,0,240,24,1,239,,,,,,,,,,,,,,,,,,
,,1,37,,,,,,,3,3,1,stim/31.jpeg,Instruments,2,stim/objects/Instruments/metronome2.png,0.9,3,-0.2,-0.15,right,72,2020-12-11_17h10.52.898,premup-three_ses-01_part-01_label-phase1,3.2.4,MacIntel,60,right,1.486000061,4,0,4,0,1,3,1,0,240,188,1,239,,,,,,,,,,,,,,,,,,
,,0,38,,,,,,,3,4,1,stim/41.jpeg,Instruments,2,stim/objects/Instruments/panflute2.png,0.1,1,-0.2,0.15,right,72,2020-12-11_17h10.52.898,premup-three_ses-01_part-01_label-phase1,3.2.4,MacIntel,60,left,1.290999889,4,0,4,0,1,3,1,0,240,236,1,239,,,,,,,,,,,,,,,,,,
,,0,39,,,,,,,2,1,1,stim/11.jpeg,Instruments,2,stim/objects/Instruments/panflute.png,0.7,2,0.2,0.15,right,72,2020-12-11_17h10.52.898,premup-three_ses-01_part-01_label-phase1,3.2.4,MacIntel,60,left,1.29399991,4,0,4,0,1,3,1,0,240,96,1,239,,,,,,,,,,,,,,,,,,
,,0,40,,,,,,,3,3,3,stim/33.jpeg,Instruments,2,stim/objects/Instruments/musicstand2.png,0.9,3,-0.2,-0.15,right,72,2020-12-11_17h10.52.898,premup-three_ses-01_part-01_label-phase1,3.2.4,MacIntel,60,,,4,0,4,0,1,3,1,0,240,186,1,239,,,,,,,,,,,,,,,,,,
,,0,41,,,,,,,2,2,3,stim/23.jpeg,Instruments,2,stim/objects/Instruments/maraca2.png,0.3,1,-0.2,0.15,right,72,2020-12-11_17h10.52.898,premup-three_ses-01_part-01_label-phase1,3.2.4,MacIntel,60,,,4,0,4,0,1,3,1,0,240,150,1,239,,,,,,,,,,,,,,,,,,
,,0,42,,,,,,,1,5,3,stim/53.jpeg,Instruments,2,stim/objects/Instruments/maraca.png,0.5,3,-0.2,-0.15,right,72,2020-12-11_17h10.52.898,premup-three_ses-01_part-01_label-phase1,3.2.4,MacIntel,60,,,4,0,4,0,1,3,1,0,240,30,1,239,,,,,,,,,,,,,,,,,,
,,0,43,,,,,,,1,5,3,stim/53.jpeg,HouseObjects,1,stim/objects/HouseObjects/key.png,0.5,2,0.2,0.15,left,72,2020-12-11_17h10.52.898,premup-three_ses-01_part-01_label-phase1,3.2.4,MacIntel,60,right,1.688999891,4,0,4,0,1,3,1,0,240,14,1,239,,,,,,,,,,,,,,,,,,
,,0,44,,,,,,,1,5,4,stim/54.jpeg,Instruments,2,stim/objects/Instruments/marimba.png,0.5,3,-0.2,-0.15,right,72,2020-12-11_17h10.52.898,premup-three_ses-01_part-01_label-phase1,3.2.4,MacIntel,60,,,4,0,4,0,1,3,1,0,240,31,1,239,,,,,,,,,,,,,,,,,,
,,0,45,,,,,,,1,6,4,stim/64.jpeg,Instruments,2,stim/objects/Instruments/oboe.png,0.5,3,-0.2,-0.15,right,72,2020-12-11_17h10.52.898,premup-three_ses-01_part-01_label-phase1,3.2.4,MacIntel,60,left,1.531999826,4,0,4,0,1,3,1,0,240,63,1,239,,,,,,,,,,,,,,,,,,
,,0,46,,,,,,,2,1,3,stim/13.jpeg,Instruments,2,stim/objects/Instruments/record.png,0.7,4,0.2,-0.15,right,72,2020-12-11_17h10.52.898,premup-three_ses-01_part-01_label-phase1,3.2.4,MacIntel,60,,,4,0,4,0,1,3,1,0,240,106,1,239,,,,,,,,,,,,,,,,,,
,,1,47,,,,,,,3,3,1,stim/31.jpeg,Instruments,2,stim/objects/Instruments/metronome2.png,0.9,3,-0.2,-0.15,right,72,2020-12-11_17h10.52.898,premup-three_ses-01_part-01_label-phase1,3.2.4,MacIntel,60,right,1.715999842,4,0,4,0,1,3,1,0,240,192,1,239,,,,,,,,,,,,,,,,,,
,,0,48,,,,,,,2,1,3,stim/13.jpeg,Instruments,2,stim/objects/Instruments/record.png,0.7,4,0.2,-0.15,right,72,2020-12-11_17h10.52.898,premup-three_ses-01_part-01_label-phase1,3.2.4,MacIntel,60,,,4,0,4,0,1,3,1,0,240,114,1,239,,,,,,,,,,,,,,,,,,
,,1,49,,,,,,,1,5,1,stim/51.jpeg,HouseObjects,1,stim/objects/HouseObjects/iron.png,0.5,2,0.2,0.15,left,72,2020-12-11_17h10.52.898,premup-three_ses-01_part-01_label-phase1,3.2.4,MacIntel,60,left,0.945999861,4,0,4,0,1,3,1,0,240,12,1,239,,,,,,,,,,,,,,,,,,
,,0,50,,,,,,,1,5,3,stim/53.jpeg,HouseObjects,1,stim/objects/HouseObjects/key.png,0.5,1,-0.2,0.15,left,72,2020-12-11_17h10.52.898,premup-three_ses-01_part-01_label-phase1,3.2.4,MacIntel,60,right,1.614999771,4,0,4,0,1,3,1,0,240,2,1,239,,,,,,,,,,,,,,,,,,
,,1,51,,,,,,,3,3,2,stim/32.jpeg,Instruments,2,stim/objects/Instruments/musicsheet2.png,0.9,4,0.2,-0.15,right,72,2020-12-11_17h10.52.898,premup-three_ses-01_part-01_label-phase1,3.2.4,MacIntel,60,right,1.544999838,4,0,4,0,1,3,1,0,240,173,1,239,,,,,,,,,,,,,,,,,,
,,0,52,,,,,,,3,4,2,stim/42.jpeg,HouseObjects,1,stim/objects/HouseObjects/remote2.png,0.9,2,0.2,0.15,left,72,2020-12-11_17h10.52.898,premup-three_ses-01_part-01_label-phase1,3.2.4,MacIntel,60,,,4,0,4,0,1,3,1,0,240,213,1,239,,,,,,,,,,,,,,,,,,
,,0,53,,,,,,,3,4,3,stim/43.jpeg,HouseObjects,1,stim/objects/HouseObjects/rubbergloves2.png,0.9,3,-0.2,-0.15,left,72,2020-12-11_17h10.52.898,premup-three_ses-01_part-01_label-phase1,3.2.4,MacIntel,60,,,4,0,4,0,1,3,1,0,240,230,1,239,,,,,,,,,,,,,,,,,,
,,1,54,,,,,,,3,3,4,stim/34.jpeg,Instruments,2,stim/objects/Instruments/oboe2.png,0.9,4,0.2,-0.15,right,72,2020-12-11_17h10.52.898,premup-three_ses-01_part-01_label-phase1,3.2.4,MacIntel,60,right,1.45299983,4,0,4,0,1,3,1,0,240,179,1,239,,,,,,,,,,,,,,,,,,
,,1,55,,,,,,,3,3,2,stim/32.jpeg,Instruments,2,stim/objects/Instruments/musicsheet2.png,0.9,4,0.2,-0.15,right,72,2020-12-11_17h10.52.898,premup-three_ses-01_part-01_label-phase1,3.2.4,MacIntel,60,right,0.598999977,4,0,4,0,1,3,1,0,240,181,1,239,,,,,,,,,,,,,,,,,,
,,1,56,,,,,,,2,2,1,stim/21.jpeg,HouseObjects,1,stim/objects/HouseObjects/iron2.png,0.7,1,-0.2,0.15,left,72,2020-12-11_17h10.52.898,premup-three_ses-01_part-01_label-phase1,3.2.4,MacIntel,60,left,1.479000092,4,0,4,0,1,3,1,0,240,136,1,239,,,,,,,,,,,,,,,,,,
,,1,57,,,,,,,3,4,1,stim/41.jpeg,HouseObjects,1,stim/objects/HouseObjects/recyclingbin2.png,0.9,1,-0.2,0.15,left,72,2020-12-11_17h10.52.898,premup-three_ses-01_part-01_label-phase1,3.2.4,MacIntel,60,left,1.495999813,4,0,4,0,1,3,1,0,240,228,1,239,,,,,,,,,,,,,,,,,,
,,0,58,,,,,,,2,1,1,stim/11.jpeg,Instruments,2,stim/objects/Instruments/panflute.png,0.7,2,0.2,0.15,right,72,2020-12-11_17h10.52.898,premup-three_ses-01_part-01_label-phase1,3.2.4,MacIntel,60,left,1.576999903,4,0,4,0,1,3,1,0,240,112,1,239,,,,,,,,,,,,,,,,,,
,,0,59,,,,,,,1,5,2,stim/52.jpeg,HouseObjects,1,stim/objects/HouseObjects/ironingboard.png,0.5,2,0.2,0.15,left,72,2020-12-11_17h10.52.898,premup-three_ses-01_part-01_label-phase1,3.2.4,MacIntel,60,right,1.337999821,4,0,4,0,1,3,1,0,240,9,1,239,,,,,,,,,,,,,,,,,,
,,0,60,,,,,,,2,2,1,stim/21.jpeg,Instruments,2,stim/objects/Instruments/keyboard2.png,0.3,4,0.2,-0.15,right,72,2020-12-11_17h10.52.898,premup-three_ses-01_part-01_label-phase1,3.2.4,MacIntel,60,,,4,0,4,0,1,3,1,0,240,156,1,239,,,,,,,,,,,,,,,,,,
,,1,61,,,,,,,2,1,4,stim/14.jpeg,Instruments,2,stim/objects/Instruments/record_player.png,0.7,1,-0.2,0.15,right,72,2020-12-11_17h10.52.898,premup-three_ses-01_part-01_label-phase1,3.2.4,MacIntel,60,right,1.485999823,4,0,4,0,1,3,1,0,240,99,1,239,,,,,,,,,,,,,,,,,,
,,0,62,,,,,,,3,4,4,stim/44.jpeg,Instruments,2,stim/objects/Instruments/record_player2.png,0.1,3,-0.2,-0.15,right,72,2020-12-11_17h10.52.898,premup-three_ses-01_part-01_label-phase1,3.2.4,MacIntel,60,left,1.150999784,4,0,4,0,1,3,1,0,240,239,1,239,,,,,,,,,,,,,,,,,,
,,1,63,,,,,,,3,3,2,stim/32.jpeg,Instruments,2,stim/objects/Instruments/musicsheet2.png,0.9,4,0.2,-0.15,right,72,2020-12-11_17h10.52.898,premup-three_ses-01_part-01_label-phase1,3.2.4,MacIntel,60,right,1.065999985,4,0,4,0,1,3,1,0,240,189,1,239,,,,,,,,,,,,,,,,,,
,,0,64,,,,,,,1,5,4,stim/54.jpeg,Instruments,2,stim/objects/Instruments/marimba.png,0.5,4,0.2,-0.15,right,72,2020-12-11_17h10.52.898,premup-three_ses-01_part-01_label-phase1,3.2.4,MacIntel,60,left,1.629999876,4,0,4,0,1,3,1,0,240,35,1,239,,,,,,,,,,,,,,,,,,
,,1,65,,,,,,,2,2,2,stim/22.jpeg,HouseObjects,1,stim/objects/HouseObjects/ironingboard2.png,0.7,3,-0.2,-0.15,left,72,2020-12-11_17h10.52.898,premup-three_ses-01_part-01_label-phase1,3.2.4,MacIntel,60,left,1.506999969,4,0,4,0,1,3,1,0,240,145,1,239,,,,,,,,,,,,,,,,,,
,,0,66,,,,,,,1,5,3,stim/53.jpeg,HouseObjects,1,stim/objects/HouseObjects/key.png,0.5,4,0.2,-0.15,left,72,2020-12-11_17h10.52.898,premup-three_ses-01_part-01_label-phase1,3.2.4,MacIntel,60,right,1.441999912,4,0,4,0,1,3,1,0,240,6,1,239,,,,,,,,,,,,,,,,,,
,,0,67,,,,,,,3,3,2,stim/32.jpeg,Instruments,2,stim/objects/Instruments/musicsheet2.png,0.9,4,0.2,-0.15,right,72,2020-12-11_17h10.52.898,premup-three_ses-01_part-01_label-phase1,3.2.4,MacIntel,60,,,4,0,4,0,1,3,1,0,240,165,1,239,,,,,,,,,,,,,,,,,,
,,1,68,,,,,,,3,4,4,stim/44.jpeg,HouseObjects,1,stim/objects/HouseObjects/rug2.png,0.9,4,0.2,-0.15,left,72,2020-12-11_17h10.52.898,premup-three_ses-01_part-01_label-phase1,3.2.4,MacIntel,60,left,1.365999937,4,0,4,0,1,3,1,0,240,211,1,239,,,,,,,,,,,,,,,,,,
,,1,69,,,,,,,2,1,3,stim/13.jpeg,HouseObjects,1,stim/objects/HouseObjects/rubbergloves.png,0.3,4,0.2,-0.15,left,72,2020-12-11_17h10.52.898,premup-three_ses-01_part-01_label-phase1,3.2.4,MacIntel,60,left,1.381999969,4,0,4,0,1,3,1,0,240,82,1,239,,,,,,,,,,,,,,,,,,
,,0,70,,,,,,,1,6,3,stim/63.jpeg,Instruments,2,stim/objects/Instruments/musicstand.png,0.5,4,0.2,-0.15,right,72,2020-12-11_17h10.52.898,premup-three_ses-01_part-01_label-phase1,3.2.4,MacIntel,60,left,0.986999989,4,0,4,0,1,3,1,0,240,62,1,239,,,,,,,,,,,,,,,,,,
,,0,71,,,,,,,3,4,3,stim/43.jpeg,HouseObjects,1,stim/objects/HouseObjects/rubbergloves2.png,0.9,4,0.2,-0.15,left,72,2020-12-11_17h10.52.898,premup-three_ses-01_part-01_label-phase1,3.2.4,MacIntel,60,,,4,0,4,0,1,3,1,0,240,202,1,239,,,,,,,,,,,,,,,,,,
,,0,72,,,,,,,2,1,2,stim/12.jpeg,Instruments,2,stim/objects/Instruments/pipepiano.png,0.7,3,-0.2,-0.15,right,72,2020-12-11_17h10.52.898,premup-three_ses-01_part-01_label-phase1,3.2.4,MacIntel,60,left,0.987999916,4,0,4,0,1,3,1,0,240,101,1,239,,,,,,,,,,,,,,,,,,
,,0,73,,,,,,,2,1,1,stim/11.jpeg,Instruments,2,stim/objects/Instruments/panflute.png,0.7,1,-0.2,0.15,right,72,2020-12-11_17h10.52.898,premup-three_ses-01_part-01_label-phase1,3.2.4,MacIntel,60,left,1.728999853,4,0,4,0,1,3,1,0,240,92,1,239,,,,,,,,,,,,,,,,,,
,,1,74,,,,,,,3,3,1,stim/31.jpeg,Instruments,2,stim/objects/Instruments/metronome2.png,0.9,1,-0.2,0.15,right,72,2020-12-11_17h10.52.898,premup-three_ses-01_part-01_label-phase1,3.2.4,MacIntel,60,right,1.089999914,4,0,4,0,1,3,1,0,240,196,1,239,,,,,,,,,,,,,,,,,,
,,0,75,,,,,,,1,6,4,stim/64.jpeg,Instruments,2,stim/objects/Instruments/oboe.png,0.5,1,-0.2,0.15,right,72,2020-12-11_17h10.52.898,premup-three_ses-01_part-01_label-phase1,3.2.4,MacIntel,60,left,0.944999695,4,0,4,0,1,3,1,0,240,71,1,239,,,,,,,,,,,,,,,,,,
,,1,76,,,,,,,2,2,1,stim/21.jpeg,HouseObjects,1,stim/objects/HouseObjects/iron2.png,0.7,2,0.2,0.15,left,72,2020-12-11_17h10.52.898,premup-three_ses-01_part-01_label-phase1,3.2.4,MacIntel,60,left,1.22300005,4,0,4,0,1,3,1,0,240,144,1,239,,,,,,,,,,,,,,,,,,
,,0,77,,,,,,,1,5,2,stim/52.jpeg,Instruments,2,stim/objects/Instruments/laud.png,0.5,3,-0.2,-0.15,right,72,2020-12-11_17h10.52.898,premup-three_ses-01_part-01_label-phase1,3.2.4,MacIntel,60,left,1.243999958,4,0,4,0,1,3,1,0,240,25,1,239,,,,,,,,,,,,,,,,,,
,,0,78,,,,,,,1,5,2,stim/52.jpeg,Instruments,2,stim/objects/Instruments/laud.png,0.5,4,0.2,-0.15,right,72,2020-12-11_17h10.52.898,premup-three_ses-01_part-01_label-phase1,3.2.4,MacIntel,60,,,4,0,4,0,1,3,1,0,240,37,1,239,,,,,,,,,,,,,,,,,,
,,0,79,,,,,,,2,2,4,stim/24.jpeg,HouseObjects,1,stim/objects/HouseObjects/knife2.png,0.7,2,0.2,0.15,left,72,2020-12-11_17h10.52.898,premup-three_ses-01_part-01_label-phase1,3.2.4,MacIntel,60,,,4,0,4,0,1,3,1,0,240,131,1,239,,,,,,,,,,,,,,,,,,
,,0,80,,,,,,,2,2,4,stim/24.jpeg,HouseObjects,1,stim/objects/HouseObjects/knife2.png,0.7,3,-0.2,-0.15,left,72,2020-12-11_17h10.52.898,premup-three_ses-01_part-01_label-phase1,3.2.4,MacIntel,60,right,1.558999777,4,0,4,0,1,3,1,0,240,139,1,239,,,,,,,,,,,,,,,,,,
,,1,81,,,,,,,2,2,4,stim/24.jpeg,HouseObjects,1,stim/objects/HouseObjects/knife2.png,0.7,4,0.2,-0.15,left,72,2020-12-11_17h10.52.898,premup-three_ses-01_part-01_label-phase1,3.2.4,MacIntel,60,left,1.248999834,4,0,4,0,1,3,1,0,240,123,1,239,,,,,,,,,,,,,,,,,,
,,1,82,,,,,,,1,6,4,stim/64.jpeg,Instruments,2,stim/objects/Instruments/oboe.png,0.5,2,0.2,0.15,right,72,2020-12-11_17h10.52.898,premup-three_ses-01_part-01_label-phase1,3.2.4,MacIntel,60,right,1.424000025,4,0,4,0,1,3,1,0,240,67,1,239,,,,,,,,,,,,,,,,,,
,,1,83,,,,,,,1,5,1,stim/51.jpeg,HouseObjects,1,stim/objects/HouseObjects/iron.png,0.5,1,-0.2,0.15,left,72,2020-12-11_17h10.52.898,premup-three_ses-01_part-01_label-phase1,3.2.4,MacIntel,60,left,1.076999903,4,0,4,0,1,3,1,0,240,4,1,239,,,,,,,,,,,,,,,,,,
,,1,84,,,,,,,1,5,1,stim/51.jpeg,HouseObjects,1,stim/objects/HouseObjects/iron.png,0.5,1,-0.2,0.15,left,72,2020-12-11_17h10.52.898,premup-three_ses-01_part-01_label-phase1,3.2.4,MacIntel,60,left,1.036999941,4,0,4,0,1,3,1,0,240,8,1,239,,,,,,,,,,,,,,,,,,
,,1,85,,,,,,,1,6,2,stim/62.jpeg,Instruments,2,stim/objects/Instruments/musicsheet.png,0.5,1,-0.2,0.15,right,72,2020-12-11_17h10.52.898,premup-three_ses-01_part-01_label-phase1,3.2.4,MacIntel,60,right,1.697000027,4,0,4,0,1,3,1,0,240,69,1,239,,,,,,,,,,,,,,,,,,
,,0,86,,,,,,,1,6,1,stim/61.jpeg,HouseObjects,1,stim/objects/HouseObjects/lintroller.png,0.5,1,-0.2,0.15,left,72,2020-12-11_17h10.52.898,premup-three_ses-01_part-01_label-phase1,3.2.4,MacIntel,60,right,0.586999893,4,0,4,0,1,3,1,0,240,56,1,239,,,,,,,,,,,,,,,,,,
,,1,87,,,,,,,1,6,4,stim/64.jpeg,Instruments,2,stim/objects/Instruments/oboe.png,0.5,3,-0.2,-0.15,right,72,2020-12-11_17h10.52.898,premup-three_ses-01_part-01_label-phase1,3.2.4,MacIntel,60,right,0.60800004,4,0,4,0,1,3,1,0,240,79,1,239,,,,,,,,,,,,,,,,,,
,,1,88,,,,,,,2,1,2,stim/12.jpeg,HouseObjects,1,stim/objects/HouseObjects/remote.png,0.3,2,0.2,0.15,left,72,2020-12-11_17h10.52.898,premup-three_ses-01_part-01_label-phase1,3.2.4,MacIntel,60,left,1.758999825,4,0,4,0,1,3,1,0,240,81,1,239,,,,,,,,,,,,,,,,,,
,,1,89,,,,,,,3,4,4,stim/44.jpeg,HouseObjects,1,stim/objects/HouseObjects/rug2.png,0.9,2,0.2,0.15,left,72,2020-12-11_17h10.52.898,premup-three_ses-01_part-01_label-phase1,3.2.4,MacIntel,60,left,1.407999754,4,0,4,0,1,3,1,0,240,219,1,239,,,,,,,,,,,,,,,,,,
,,0,90,,,,,,,1,5,2,stim/52.jpeg,Instruments,2,stim/objects/Instruments/laud.png,0.5,2,0.2,0.15,right,72,2020-12-11_17h10.52.898,premup-three_ses-01_part-01_label-phase1,3.2.4,MacIntel,60,left,1.355999947,4,0,4,0,1,3,1,0,240,29,1,239,,,,,,,,,,,,,,,,,,
,,1,91,,,,,,,3,3,3,stim/33.jpeg,Instruments,2,stim/objects/Instruments/musicstand2.png,0.9,1,-0.2,0.15,right,72,2020-12-11_17h10.52.898,premup-three_ses-01_part-01_label-phase1,3.2.4,MacIntel,60,right,0.656999826,4,0,4,0,1,3,1,0,240,194,1,239,,,,,,,,,,,,,,,,,,
,,1,92,,,,,,,2,1,3,stim/13.jpeg,HouseObjects,1,stim/objects/HouseObjects/rubbergloves.png,0.3,4,0.2,-0.15,left,72,2020-12-11_17h10.52.898,premup-three_ses-01_part-01_label-phase1,3.2.4,MacIntel,60,left,1.333999872,4,0,4,0,1,3,1,0,240,86,1,239,,,,,,,,,,,,,,,,,,
,,0,93,,,,,,,1,6,4,stim/64.jpeg,HouseObjects,1,stim/objects/HouseObjects/pitcher.png,0.5,4,0.2,-0.15,left,72,2020-12-11_17h10.52.898,premup-three_ses-01_part-01_label-phase1,3.2.4,MacIntel,60,right,1.05099988,4,0,4,0,1,3,1,0,240,59,1,239,,,,,,,,,,,,,,,,,,
,,1,94,,,,,,,2,2,4,stim/24.jpeg,HouseObjects,1,stim/objects/HouseObjects/knife2.png,0.7,2,0.2,0.15,left,72,2020-12-11_17h10.52.898,premup-three_ses-01_part-01_label-phase1,3.2.4,MacIntel,60,left,1.43599987,4,0,4,0,1,3,1,0,240,135,1,239,,,,,,,,,,,,,,,,,,
,,1,95,,,,,,,3,3,4,stim/34.jpeg,Instruments,2,stim/objects/Instruments/oboe2.png,0.9,1,-0.2,0.15,right,72,2020-12-11_17h10.52.898,premup-three_ses-01_part-01_label-phase1,3.2.4,MacIntel,60,right,1.122999907,4,0,4,0,1,3,1,0,240,183,1,239,,,,,,,,,,,,,,,,,,
,,1,96,,,,,,,3,3,1,stim/31.jpeg,Instruments,2,stim/objects/Instruments/metronome2.png,0.9,2,0.2,0.15,right,72,2020-12-11_17h10.52.898,premup-three_ses-01_part-01_label-phase1,3.2.4,MacIntel,60,right,0.911000013,4,0,4,0,1,3,1,0,240,176,1,239,,,,,,,,,,,,,,,,,,
,,0,97,,,,,,,1,6,2,stim/62.jpeg,HouseObjects,1,stim/objects/HouseObjects/match.png,0.5,1,-0.2,0.15,left,72,2020-12-11_17h10.52.898,premup-three_ses-01_part-01_label-phase1,3.2.4,MacIntel,60,right,1.144999981,4,0,4,0,1,3,1,0,240,53,1,239,,,,,,,,,,,,,,,,,,
,,1,98,,,,,,,2,2,2,stim/22.jpeg,HouseObjects,1,stim/objects/HouseObjects/ironingboard2.png,0.7,3,-0.2,-0.15,left,72,2020-12-11_17h10.52.898,premup-three_ses-01_part-01_label-phase1,3.2.4,MacIntel,60,left,0.9599998,4,0,4,0,1,3,1,0,240,137,1,239,,,,,,,,,,,,,,,,,,
,,1,99,,,,,,,3,4,1,stim/41.jpeg,HouseObjects,1,stim/objects/HouseObjects/recyclingbin2.png,0.9,3,-0.2,-0.15,left,72,2020-12-11_17h10.52.898,premup-three_ses-01_part-01_label-phase1,3.2.4,MacIntel,60,left,0.68599987,4,0,4,0,1,3,1,0,240,204,1,239,,,,,,,,,,,,,,,,,,
,,1,100,,,,,,,3,3,4,stim/34.jpeg,Instruments,2,stim/objects/Instruments/oboe2.png,0.9,4,0.2,-0.15,right,72,2020-12-11_17h10.52.898,premup-three_ses-01_part-01_label-phase1,3.2.4,MacIntel,60,right,0.855000019,4,0,4,0,1,3,1,0,240,167,1,239,,,,,,,,,,,,,,,,,,
,,1,101,,,,,,,3,4,2,stim/42.jpeg,HouseObjects,1,stim/objects/HouseObjects/remote2.png,0.9,1,-0.2,0.15,left,72,2020-12-11_17h10.52.898,premup-three_ses-01_part-01_label-phase1,3.2.4,MacIntel,60,left,1.207999945,4,0,4,0,1,3,1,0,240,233,1,239,,,,,,,,,,,,,,,,,,
,,0,102,,,,,,,3,3,1,stim/31.jpeg,HouseObjects,1,stim/objects/HouseObjects/lintroller2.png,0.1,4,0.2,-0.15,left,72,2020-12-11_17h10.52.898,premup-three_ses-01_part-01_label-phase1,3.2.4,MacIntel,60,right,0.799999952,4,0,4,0,1,3,1,0,240,160,1,239,,,,,,,,,,,,,,,,,,
,,0,103,,,,,,,3,4,3,stim/43.jpeg,Instruments,2,stim/objects/Instruments/record2.png,0.1,3,-0.2,-0.15,right,72,2020-12-11_17h10.52.898,premup-three_ses-01_part-01_label-phase1,3.2.4,MacIntel,60,left,1.034999847,4,0,4,0,1,3,1,0,240,238,1,239,,,,,,,,,,,,,,,,,,
,,1,104,,,,,,,3,3,2,stim/32.jpeg,Instruments,2,stim/objects/Instruments/musicsheet2.png,0.9,1,-0.2,0.15,right,72,2020-12-11_17h10.52.898,premup-three_ses-01_part-01_label-phase1,3.2.4,MacIntel,60,right,1.375,4,0,4,0,1,3,1,0,240,185,1,239,,,,,,,,,,,,,,,,,,
,,1,105,,,,,,,3,3,3,stim/33.jpeg,Instruments,2,stim/objects/Instruments/musicstand2.png,0.9,1,-0.2,0.15,right,72,2020-12-11_17h10.52.898,premup-three_ses-01_part-01_label-phase1,3.2.4,MacIntel,60,right,1.493000031,4,0,4,0,1,3,1,0,240,170,1,239,,,,,,,,,,,,,,,,,,
,,1,106,,,,,,,3,4,3,stim/43.jpeg,HouseObjects,1,stim/objects/HouseObjects/rubbergloves2.png,0.9,2,0.2,0.15,left,72,2020-12-11_17h10.52.898,premup-three_ses-01_part-01_label-phase1,3.2.4,MacIntel,60,left,1.096999884,4,0,4,0,1,3,1,0,240,226,1,239,,,,,,,,,,,,,,,,,,
,,0,107,,,,,,,2,2,4,stim/24.jpeg,Instruments,2,stim/objects/Instruments/marimba2.png,0.3,2,0.2,0.15,right,72,2020-12-11_17h10.52.898,premup-three_ses-01_part-01_label-phase1,3.2.4,MacIntel,60,left,1.125999928,4,0,4,0,1,3,1,0,240,155,1,239,,,,,,,,,,,,,,,,,,
,,0,108,,,,,,,2,2,2,stim/22.jpeg,HouseObjects,1,stim/objects/HouseObjects/ironingboard2.png,0.7,4,0.2,-0.15,left,72,2020-12-11_17h10.52.898,premup-three_ses-01_part-01_label-phase1,3.2.4,MacIntel,60,right,1.005000114,4,0,4,0,1,3,1,0,240,141,1,239,,,,,,,,,,,,,,,,,,
,,0,109,,,,,,,2,1,2,stim/12.jpeg,Instruments,2,stim/objects/Instruments/pipepiano.png,0.7,1,-0.2,0.15,right,72,2020-12-11_17h10.52.898,premup-three_ses-01_part-01_label-phase1,3.2.4,MacIntel,60,left,1.565999746,4,0,4,0,1,3,1,0,240,93,1,239,,,,,,,,,,,,,,,,,,
,,0,110,,,,,,,1,6,1,stim/61.jpeg,HouseObjects,1,stim/objects/HouseObjects/lintroller.png,0.5,2,0.2,0.15,left,72,2020-12-11_17h10.52.898,premup-three_ses-01_part-01_label-phase1,3.2.4,MacIntel,60,right,0.878000021,4,0,4,0,1,3,1,0,240,52,1,239,,,,,,,,,,,,,,,,,,
,,1,111,,,,,,,3,3,3,stim/33.jpeg,Instruments,2,stim/objects/Instruments/musicstand2.png,0.9,2,0.2,0.15,right,72,2020-12-11_17h10.52.898,premup-three_ses-01_part-01_label-phase1,3.2.4,MacIntel,60,right,0.776000023,4,0,4,0,1,3,1,0,240,174,1,239,,,,,,,,,,,,,,,,,,
,,1,112,,,,,,,2,2,4,stim/24.jpeg,HouseObjects,1,stim/objects/HouseObjects/knife2.png,0.7,4,0.2,-0.15,left,72,2020-12-11_17h10.52.898,premup-three_ses-01_part-01_label-phase1,3.2.4,MacIntel,60,left,0.995999813,4,0,4,0,1,3,1,0,240,147,1,239,,,,,,,,,,,,,,,,,,
,,0,113,,,,,,,2,2,1,stim/21.jpeg,Instruments,2,stim/objects/Instruments/keyboard2.png,0.3,4,0.2,-0.15,right,72,2020-12-11_17h10.52.898,premup-three_ses-01_part-01_label-phase1,3.2.4,MacIntel,60,left,1.039000034,4,0,4,0,1,3,1,0,240,152,1,239,,,,,,,,,,,,,,,,,,
,,1,114,,,,,,,3,4,4,stim/44.jpeg,HouseObjects,1,stim/objects/HouseObjects/rug2.png,0.9,1,-0.2,0.15,left,72,2020-12-11_17h10.52.898,premup-three_ses-01_part-01_label-phase1,3.2.4,MacIntel,60,left,1.176000118,4,0,4,0,1,3,1,0,240,207,1,239,,,,,,,,,,,,,,,,,,
,,0,115,,,,,,,1,6,4,stim/64.jpeg,HouseObjects,1,stim/objects/HouseObjects/pitcher.png,0.5,4,0.2,-0.15,left,72,2020-12-11_17h10.52.898,premup-three_ses-01_part-01_label-phase1,3.2.4,MacIntel,60,right,1.388999939,4,0,4,0,1,3,1,0,240,51,1,239,,,,,,,,,,,,,,,,,,
,,0,116,,,,,,,2,1,3,stim/13.jpeg,Instruments,2,stim/objects/Instruments/record.png,0.7,4,0.2,-0.15,right,72,2020-12-11_17h10.52.898,premup-three_ses-01_part-01_label-phase1,3.2.4,MacIntel,60,left,1.118999958,4,0,4,0,1,3,1,0,240,94,1,239,,,,,,,,,,,,,,,,,,
,,1,117,,,,,,,3,3,4,stim/34.jpeg,Instruments,2,stim/objects/Instruments/oboe2.png,0.9,2,0.2,0.15,right,72,2020-12-11_17h10.52.898,premup-three_ses-01_part-01_label-phase1,3.2.4,MacIntel,60,right,0.832000017,4,0,4,0,1,3,1,0,240,187,1,239,,,,,,,,,,,,,,,,,,
,,1,118,,,,,,,2,1,1,stim/11.jpeg,HouseObjects,1,stim/objects/HouseObjects/recyclingbin.png,0.3,2,0.2,0.15,left,72,2020-12-11_17h10.52.898,premup-three_ses-01_part-01_label-phase1,3.2.4,MacIntel,60,left,1.151999712,4,0,4,0,1,3,1,0,240,88,1,239,,,,,,,,,,,,,,,,,,
,,1,119,,,,,,,3,3,2,stim/32.jpeg,Instruments,2,stim/objects/Instruments/musicsheet2.png,0.9,3,-0.2,-0.15,right,72,2020-12-11_17h10.52.898,premup-three_ses-01_part-01_label-phase1,3.2.4,MacIntel,60,right,0.958999872,4,0,4,0,1,3,1,0,240,169,1,239,,,,,,,,,,,,,,,,,,
,,1,120,,,,,,,3,4,3,stim/43.jpeg,HouseObjects,1,stim/objects/HouseObjects/rubbergloves2.png,0.9,2,0.2,0.15,left,72,2020-12-11_17h10.52.898,premup-three_ses-01_part-01_label-phase1,3.2.4,MacIntel,60,left,1.157999754,4,0,4,0,1,3,1,0,240,214,1,239,,,,,,,,,,,,,,,,,,
,,0,121,,,,,,,2,1,3,stim/13.jpeg,Instruments,2,stim/objects/Instruments/record.png,0.7,1,-0.2,0.15,right,72,2020-12-11_17h10.52.898,premup-three_ses-01_part-01_label-phase1,3.2.4,MacIntel,60,left,1.03399992,4,0,4,0,1,3,1,0,240,118,1,239,,,,,,,,,,,,,,,,,,
,,1,122,,,,,,,2,1,3,stim/13.jpeg,Instruments,2,stim/objects/Instruments/record.png,0.7,1,-0.2,0.15,right,72,2020-12-11_17h10.52.898,premup-three_ses-01_part-01_label-phase1,3.2.4,MacIntel,60,right,0.662999868,4,0,4,0,1,3,1,0,240,102,1,239,,,,,,,,,,,,,,,,,,
,,1,123,,,,,,,2,1,4,stim/14.jpeg,Instruments,2,stim/objects/Instruments/record_player.png,0.7,4,0.2,-0.15,right,72,2020-12-11_17h10.52.898,premup-three_ses-01_part-01_label-phase1,3.2.4,MacIntel,60,right,0.86500001,4,0,4,0,1,3,1,0,240,115,1,239,,,,,,,,,,,,,,,,,,
,,1,124,,,,,,,1,5,3,stim/53.jpeg,HouseObjects,1,stim/objects/HouseObjects/key.png,0.5,3,-0.2,-0.15,left,72,2020-12-11_17h10.52.898,premup-three_ses-01_part-01_label-phase1,3.2.4,MacIntel,60,left,1.407999754,4,0,4,0,1,3,1,0,240,10,1,239,,,,,,,,,,,,,,,,,,
,,1,125,,,,,,,3,4,2,stim/42.jpeg,HouseObjects,1,stim/objects/HouseObjects/remote2.png,0.9,2,0.2,0.15,left,72,2020-12-11_17h10.52.898,premup-three_ses-01_part-01_label-phase1,3.2.4,MacIntel,60,left,1.652999878,4,0,4,0,1,3,1,0,240,225,1,239,,,,,,,,,,,,,,,,,,
,,1,126,,,,,,,3,4,1,stim/41.jpeg,HouseObjects,1,stim/objects/HouseObjects/recyclingbin2.png,0.9,1,-0.2,0.15,left,72,2020-12-11_17h10.52.898,premup-three_ses-01_part-01_label-phase1,3.2.4,MacIntel,60,left,0.718999863,4,0,4,0,1,3,1,0,240,220,1,239,,,,,,,,,,,,,,,,,,
,,0,127,,,,,,,1,5,1,stim/51.jpeg,HouseObjects,1,stim/objects/HouseObjects/iron.png,0.5,3,-0.2,-0.15,left,72,2020-12-11_17h10.52.898,premup-three_ses-01_part-01_label-phase1,3.2.4,MacIntel,60,right,1.569000006,4,0,4,0,1,3,1,0,240,0,1,239,,,,,,,,,,,,,,,,,,
,,1,128,,,,,,,3,3,1,stim/31.jpeg,Instruments,2,stim/objects/Instruments/metronome2.png,0.9,3,-0.2,-0.15,right,72,2020-12-11_17h10.52.898,premup-three_ses-01_part-01_label-phase1,3.2.4,MacIntel,60,right,0.757999897,4,0,4,0,1,3,1,0,240,184,1,239,,,,,,,,,,,,,,,,,,
,,0,129,,,,,,,1,6,1,stim/61.jpeg,HouseObjects,1,stim/objects/HouseObjects/lintroller.png,0.5,4,0.2,-0.15,left,72,2020-12-11_17h10.52.898,premup-three_ses-01_part-01_label-phase1,3.2.4,MacIntel,60,right,0.713999987,4,0,4,0,1,3,1,0,240,44,1,239,,,,,,,,,,,,,,,,,,
,,0,130,,,,,,,2,2,2,stim/22.jpeg,Instruments,2,stim/objects/Instruments/laud2.png,0.3,4,0.2,-0.15,right,72,2020-12-11_17h10.52.898,premup-three_ses-01_part-01_label-phase1,3.2.4,MacIntel,60,,,4,0,4,0,1,3,1,0,240,149,1,239,,,,,,,,,,,,,,,,,,
,,0,131,,,,,,,2,1,2,stim/12.jpeg,Instruments,2,stim/objects/Instruments/pipepiano.png,0.7,2,0.2,0.15,right,72,2020-12-11_17h10.52.898,premup-three_ses-01_part-01_label-phase1,3.2.4,MacIntel,60,left,0.979999781,4,0,4,0,1,3,1,0,240,105,1,239,,,,,,,,,,,,,,,,,,
,,1,132,,,,,,,1,6,2,stim/62.jpeg,Instruments,2,stim/objects/Instruments/musicsheet.png,0.5,1,-0.2,0.15,right,72,2020-12-11_17h10.52.898,premup-three_ses-01_part-01_label-phase1,3.2.4,MacIntel,60,right,0.731999874,4,0,4,0,1,3,1,0,240,73,1,239,,,,,,,,,,,,,,,,,,
,,0,133,,,,,,,2,2,1,stim/21.jpeg,HouseObjects,1,stim/objects/HouseObjects/iron2.png,0.7,3,-0.2,-0.15,left,72,2020-12-11_17h10.52.898,premup-three_ses-01_part-01_label-phase1,3.2.4,MacIntel,60,right,0.807999849,4,0,4,0,1,3,1,0,240,140,1,239,,,,,,,,,,,,,,,,,,
,,1,134,,,,,,,3,4,4,stim/44.jpeg,HouseObjects,1,stim/objects/HouseObjects/rug2.png,0.9,2,0.2,0.15,left,72,2020-12-11_17h10.52.898,premup-three_ses-01_part-01_label-phase1,3.2.4,MacIntel,60,left,0.613999844,4,0,4,0,1,3,1,0,240,203,1,239,,,,,,,,,,,,,,,,,,
,,0,135,,,,,,,2,2,2,stim/22.jpeg,HouseObjects,1,stim/objects/HouseObjects/ironingboard2.png,0.7,1,-0.2,0.15,left,72,2020-12-11_17h10.52.898,premup-three_ses-01_part-01_label-phase1,3.2.4,MacIntel,60,right,0.750999928,4,0,4,0,1,3,1,0,240,133,1,239,,,,,,,,,,,,,,,,,,
,,0,136,,,,,,,1,5,2,stim/52.jpeg,Instruments,2,stim/objects/Instruments/laud.png,0.5,2,0.2,0.15,right,72,2020-12-11_17h10.52.898,premup-three_ses-01_part-01_label-phase1,3.2.4,MacIntel,60,left,0.42599988,4,0,4,0,1,3,1,0,240,21,1,239,,,,,,,,,,,,,,,,,,
,,0,137,,,,,,,2,1,4,stim/14.jpeg,HouseObjects,1,stim/objects/HouseObjects/rug.png,0.3,4,0.2,-0.15,left,72,2020-12-11_17h10.52.898,premup-three_ses-01_part-01_label-phase1,3.2.4,MacIntel,60,right,0.778000116,4,0,4,0,1,3,1,0,240,83,1,239,,,,,,,,,,,,,,,,,,
,,1,138,,,,,,,1,5,1,stim/51.jpeg,HouseObjects,1,stim/objects/HouseObjects/iron.png,0.5,1,-0.2,0.15,left,72,2020-12-11_17h10.52.898,premup-three_ses-01_part-01_label-phase1,3.2.4,MacIntel,60,left,1.261999846,4,0,4,0,1,3,1,0,240,16,1,239,,,,,,,,,,,,,,,,,,
,,1,139,,,,,,,3,3,3,stim/33.jpeg,Instruments,2,stim/objects/Instruments/musicstand2.png,0.9,2,0.2,0.15,right,72,2020-12-11_17h10.52.898,premup-three_ses-01_part-01_label-phase1,3.2.4,MacIntel,60,right,0.795000076,4,0,4,0,1,3,1,0,240,190,1,239,,,,,,,,,,,,,,,,,,
,,1,140,,,,,,,1,6,1,stim/61.jpeg,Instruments,2,stim/objects/Instruments/metronome.png,0.5,3,-0.2,-0.15,right,72,2020-12-11_17h10.52.898,premup-three_ses-01_part-01_label-phase1,3.2.4,MacIntel,60,right,0.75999999,4,0,4,0,1,3,1,0,240,68,1,239,,,,,,,,,,,,,,,,,,
,,1,141,,,,,,,3,4,4,stim/44.jpeg,HouseObjects,1,stim/objects/HouseObjects/rug2.png,0.9,4,0.2,-0.15,left,72,2020-12-11_17h10.52.898,premup-three_ses-01_part-01_label-phase1,3.2.4,MacIntel,60,left,1.620999813,4,0,4,0,1,3,1,0,240,215,1,239,,,,,,,,,,,,,,,,,,
,,1,142,,,,,,,3,3,1,stim/31.jpeg,Instruments,2,stim/objects/Instruments/metronome2.png,0.9,1,-0.2,0.15,right,72,2020-12-11_17h10.52.898,premup-three_ses-01_part-01_label-phase1,3.2.4,MacIntel,60,right,1.637999773,4,0,4,0,1,3,1,0,240,172,1,239,,,,,,,,,,,,,,,,,,
,,0,143,,,,,,,1,6,4,stim/64.jpeg,HouseObjects,1,stim/objects/HouseObjects/pitcher.png,0.5,3,-0.2,-0.15,left,72,2020-12-11_17h10.52.898,premup-three_ses-01_part-01_label-phase1,3.2.4,MacIntel,60,right,0.818000078,4,0,4,0,1,3,1,0,240,43,1,239,,,,,,,,,,,,,,,,,,
,,1,144,,,,,,,2,1,4,stim/14.jpeg,HouseObjects,1,stim/objects/HouseObjects/rug.png,0.3,2,0.2,0.15,left,72,2020-12-11_17h10.52.898,premup-three_ses-01_part-01_label-phase1,3.2.4,MacIntel,60,left,0.963999748,4,0,4,0,1,3,1,0,240,87,1,239,,,,,,,,,,,,,,,,,,
,,1,145,,,,,,,3,4,2,stim/42.jpeg,HouseObjects,1,stim/objects/HouseObjects/remote2.png,0.9,1,-0.2,0.15,left,72,2020-12-11_17h10.52.898,premup-three_ses-01_part-01_label-phase1,3.2.4,MacIntel,60,left,0.764999866,4,0,4,0,1,3,1,0,240,209,1,239,,,,,,,,,,,,,,,,,,
,,0,146,,,,,,,2,1,2,stim/12.jpeg,Instruments,2,stim/objects/Instruments/pipepiano.png,0.7,2,0.2,0.15,right,72,2020-12-11_17h10.52.898,premup-three_ses-01_part-01_label-phase1,3.2.4,MacIntel,60,left,1.159999847,4,0,4,0,1,3,1,0,240,109,1,239,,,,,,,,,,,,,,,,,,
,,0,147,,,,,,,2,2,2,stim/22.jpeg,HouseObjects,1,stim/objects/HouseObjects/ironingboard2.png,0.7,3,-0.2,-0.15,left,72,2020-12-11_17h10.52.898,premup-three_ses-01_part-01_label-phase1,3.2.4,MacIntel,60,right,0.987999916,4,0,4,0,1,3,1,0,240,129,1,239,,,,,,,,,,,,,,,,,,
,,1,148,,,,,,,3,4,2,stim/42.jpeg,HouseObjects,1,stim/objects/HouseObjects/remote2.png,0.9,1,-0.2,0.15,left,72,2020-12-11_17h10.52.898,premup-three_ses-01_part-01_label-phase1,3.2.4,MacIntel,60,left,1.729000092,4,0,4,0,1,3,1,0,240,201,1,239,,,,,,,,,,,,,,,,,,
,,1,149,,,,,,,3,4,2,stim/42.jpeg,HouseObjects,1,stim/objects/HouseObjects/remote2.png,0.9,3,-0.2,-0.15,left,72,2020-12-11_17h10.52.898,premup-three_ses-01_part-01_label-phase1,3.2.4,MacIntel,60,left,0.697000027,4,0,4,0,1,3,1,0,240,229,1,239,,,,,,,,,,,,,,,,,,
,,0,150,,,,,,,1,6,3,stim/63.jpeg,Instruments,2,stim/objects/Instruments/musicstand.png,0.5,1,-0.2,0.15,right,72,2020-12-11_17h10.52.898,premup-three_ses-01_part-01_label-phase1,3.2.4,MacIntel,60,left,1.556999922,4,0,4,0,1,3,1,0,240,74,1,239,,,,,,,,,,,,,,,,,,
,,0,151,,,,,,,2,1,1,stim/11.jpeg,Instruments,2,stim/objects/Instruments/panflute.png,0.7,3,-0.2,-0.15,right,72,2020-12-11_17h10.52.898,premup-three_ses-01_part-01_label-phase1,3.2.4,MacIntel,60,left,1.108999968,4,0,4,0,1,3,1,0,240,104,1,239,,,,,,,,,,,,,,,,,,
,,1,152,,,,,,,3,4,3,stim/43.jpeg,HouseObjects,1,stim/objects/HouseObjects/rubbergloves2.png,0.9,2,0.2,0.15,left,72,2020-12-11_17h10.52.898,premup-three_ses-01_part-01_label-phase1,3.2.4,MacIntel,60,left,1.21999979,4,0,4,0,1,3,1,0,240,218,1,239,,,,,,,,,,,,,,,,,,
,,1,153,,,,,,,2,1,4,stim/14.jpeg,Instruments,2,stim/objects/Instruments/record_player.png,0.7,2,0.2,0.15,right,72,2020-12-11_17h10.52.898,premup-three_ses-01_part-01_label-phase1,3.2.4,MacIntel,60,right,0.835999966,4,0,4,0,1,3,1,0,240,107,1,239,,,,,,,,,,,,,,,,,,
,,1,154,,,,,,,1,5,2,stim/52.jpeg,HouseObjects,1,stim/objects/HouseObjects/ironingboard.png,0.5,1,-0.2,0.15,left,72,2020-12-11_17h10.52.898,premup-three_ses-01_part-01_label-phase1,3.2.4,MacIntel,60,left,1.032999992,4,0,4,0,1,3,1,0,240,13,1,239,,,,,,,,,,,,,,,,,,
,,1,155,,,,,,,2,1,4,stim/14.jpeg,Instruments,2,stim/objects/Instruments/record_player.png,0.7,3,-0.2,-0.15,right,72,2020-12-11_17h10.52.898,premup-three_ses-01_part-01_label-phase1,3.2.4,MacIntel,60,right,0.792999983,4,0,4,0,1,3,1,0,240,111,1,239,,,,,,,,,,,,,,,,,,
,,0,156,,,,,,,1,5,1,stim/51.jpeg,Instruments,2,stim/objects/Instruments/keyboard.png,0.5,4,0.2,-0.15,right,72,2020-12-11_17h10.52.898,premup-three_ses-01_part-01_label-phase1,3.2.4,MacIntel,60,left,1.256999969,4,0,4,0,1,3,1,0,240,36,1,239,,,,,,,,,,,,,,,,,,
,,0,157,,,,,,,1,6,1,stim/61.jpeg,HouseObjects,1,stim/objects/HouseObjects/lintroller.png,0.5,2,0.2,0.15,left,72,2020-12-11_17h10.52.898,premup-three_ses-01_part-01_label-phase1,3.2.4,MacIntel,60,right,1.414999962,4,0,4,0,1,3,1,0,240,48,1,239,,,,,,,,,,,,,,,,,,
,,1,158,,,,,,,3,3,1,stim/31.jpeg,Instruments,2,stim/objects/Instruments/metronome2.png,0.9,1,-0.2,0.15,right,72,2020-12-11_17h10.52.898,premup-three_ses-01_part-01_label-phase1,3.2.4,MacIntel,60,right,1.162999868,4,0,4,0,1,3,1,0,240,164,1,239,,,,,,,,,,,,,,,,,,
,,1,159,,,,,,,1,6,2,stim/62.jpeg,HouseObjects,1,stim/objects/HouseObjects/match.png,0.5,1,-0.2,0.15,left,72,2020-12-11_17h10.52.898,premup-three_ses-01_part-01_label-phase1,3.2.4,MacIntel,60,left,0.66899991,4,0,4,0,1,3,1,0,240,49,1,239,,,,,,,,,,,,,,,,,,
,,0,160,,,,,,,1,6,2,stim/62.jpeg,Instruments,2,stim/objects/Instruments/musicsheet.png,0.5,2,0.2,0.15,right,72,2020-12-11_17h10.52.898,premup-three_ses-01_part-01_label-phase1,3.2.4,MacIntel,60,left,0.779000044,4,0,4,0,1,3,1,0,240,65,1,239,,,,,,,,,,,,,,,,,,
,,0,161,,,,,,,3,3,2,stim/32.jpeg,Instruments,2,stim/objects/Instruments/musicsheet2.png,0.9,3,-0.2,-0.15,right,72,2020-12-11_17h10.52.898,premup-three_ses-01_part-01_label-phase1,3.2.4,MacIntel,60,left,1.68599987,4,0,4,0,1,3,1,0,240,193,1,239,,,,,,,,,,,,,,,,,,
,,0,162,,,,,,,3,4,1,stim/41.jpeg,HouseObjects,1,stim/objects/HouseObjects/recyclingbin2.png,0.9,2,0.2,0.15,left,72,2020-12-11_17h10.52.898,premup-three_ses-01_part-01_label-phase1,3.2.4,MacIntel,60,right,1.325999737,4,0,4,0,1,3,1,0,240,216,1,239,,,,,,,,,,,,,,,,,,
,,0,163,,,,,,,2,2,3,stim/23.jpeg,Instruments,2,stim/objects/Instruments/maraca2.png,0.3,2,0.2,0.15,right,72,2020-12-11_17h10.52.898,premup-three_ses-01_part-01_label-phase1,3.2.4,MacIntel,60,left,0.943000078,4,0,4,0,1,3,1,0,240,154,1,239,,,,,,,,,,,,,,,,,,
,,1,164,,,,,,,2,2,4,stim/24.jpeg,Instruments,2,stim/objects/Instruments/marimba2.png,0.3,2,0.2,0.15,right,72,2020-12-11_17h10.52.898,premup-three_ses-01_part-01_label-phase1,3.2.4,MacIntel,60,right,0.705000162,4,0,4,0,1,3,1,0,240,159,1,239,,,,,,,,,,,,,,,,,,
,,1,165,,,,,,,2,2,2,stim/22.jpeg,Instruments,2,stim/objects/Instruments/laud2.png,0.3,3,-0.2,-0.15,right,72,2020-12-11_17h10.52.898,premup-three_ses-01_part-01_label-phase1,3.2.4,MacIntel,60,right,0.477999926,4,0,4,0,1,3,1,0,240,153,1,239,,,,,,,,,,,,,,,,,,
,,0,166,,,,,,,1,6,2,stim/62.jpeg,Instruments,2,stim/objects/Instruments/musicsheet.png,0.5,4,0.2,-0.15,right,72,2020-12-11_17h10.52.898,premup-three_ses-01_part-01_label-phase1,3.2.4,MacIntel,60,left,1.707999945,4,0,4,0,1,3,1,0,240,61,1,239,,,,,,,,,,,,,,,,,,
,,1,167,,,,,,,2,1,1,stim/11.jpeg,Instruments,2,stim/objects/Instruments/panflute.png,0.7,1,-0.2,0.15,right,72,2020-12-11_17h10.52.898,premup-three_ses-01_part-01_label-phase1,3.2.4,MacIntel,60,right,1.391000032,4,0,4,0,1,3,1,0,240,108,1,239,,,,,,,,,,,,,,,,,,
,,0,168,,,,,,,2,1,4,stim/14.jpeg,HouseObjects,1,stim/objects/HouseObjects/rug.png,0.3,3,-0.2,-0.15,left,72,2020-12-11_17h10.52.898,premup-three_ses-01_part-01_label-phase1,3.2.4,MacIntel,60,right,0.558999777,4,0,4,0,1,3,1,0,240,91,1,239,,,,,,,,,,,,,,,,,,
,,1,169,,,,,,,3,4,3,stim/43.jpeg,HouseObjects,1,stim/objects/HouseObjects/rubbergloves2.png,0.9,4,0.2,-0.15,left,72,2020-12-11_17h10.52.898,premup-three_ses-01_part-01_label-phase1,3.2.4,MacIntel,60,left,0.879999876,4,0,4,0,1,3,1,0,240,222,1,239,,,,,,,,,,,,,,,,,,
,,0,170,,,,,,,1,5,3,stim/53.jpeg,Instruments,2,stim/objects/Instruments/maraca.png,0.5,4,0.2,-0.15,right,72,2020-12-11_17h10.52.898,premup-three_ses-01_part-01_label-phase1,3.2.4,MacIntel,60,left,1.267999887,4,0,4,0,1,3,1,0,240,38,1,239,,,,,,,,,,,,,,,,,,
,,1,171,,,,,,,2,2,4,stim/24.jpeg,Instruments,2,stim/objects/Instruments/marimba2.png,0.3,3,-0.2,-0.15,right,72,2020-12-11_17h10.52.898,premup-three_ses-01_part-01_label-phase1,3.2.4,MacIntel,60,right,0.603999853,4,0,4,0,1,3,1,0,240,151,1,239,,,,,,,,,,,,,,,,,,
,,0,172,,,,,,,2,2,3,stim/23.jpeg,HouseObjects,1,stim/objects/HouseObjects/key2.png,0.7,4,0.2,-0.15,left,72,2020-12-11_17h10.52.898,premup-three_ses-01_part-01_label-phase1,3.2.4,MacIntel,60,right,0.427999973,4,0,4,0,1,3,1,0,240,122,1,239,,,,,,,,,,,,,,,,,,
,,0,173,,,,,,,2,1,3,stim/13.jpeg,Instruments,2,stim/objects/Instruments/record.png,0.7,4,0.2,-0.15,right,72,2020-12-11_17h10.52.898,premup-three_ses-01_part-01_label-phase1,3.2.4,MacIntel,60,left,1.176999807,4,0,4,0,1,3,1,0,240,110,1,239,,,,,,,,,,,,,,,,,,
,,1,174,,,,,,,3,4,4,stim/44.jpeg,HouseObjects,1,stim/objects/HouseObjects/rug2.png,0.9,4,0.2,-0.15,left,72,2020-12-11_17h10.52.898,premup-three_ses-01_part-01_label-phase1,3.2.4,MacIntel,60,left,1.171999931,4,0,4,0,1,3,1,0,240,223,1,239,,,,,,,,,,,,,,,,,,
,,1,175,,,,,,,1,6,2,stim/62.jpeg,HouseObjects,1,stim/objects/HouseObjects/match.png,0.5,3,-0.2,-0.15,left,72,2020-12-11_17h10.52.898,premup-three_ses-01_part-01_label-phase1,3.2.4,MacIntel,60,left,1.540999889,4,0,4,0,1,3,1,0,240,57,1,239,,,,,,,,,,,,,,,,,,
,,1,176,,,,,,,3,3,4,stim/34.jpeg,Instruments,2,stim/objects/Instruments/oboe2.png,0.9,2,0.2,0.15,right,72,2020-12-11_17h10.52.898,premup-three_ses-01_part-01_label-phase1,3.2.4,MacIntel,60,right,1.635999918,4,0,4,0,1,3,1,0,240,175,1,239,,,,,,,,,,,,,,,,,,
,,1,177,,,,,,,1,6,4,stim/64.jpeg,HouseObjects,1,stim/objects/HouseObjects/pitcher.png,0.5,1,-0.2,0.15,left,72,2020-12-11_17h10.52.898,premup-three_ses-01_part-01_label-phase1,3.2.4,MacIntel,60,left,1.311999798,4,0,4,0,1,3,1,0,240,55,1,239,,,,,,,,,,,,,,,,,,
,,1,178,,,,,,,1,5,2,stim/52.jpeg,HouseObjects,1,stim/objects/HouseObjects/ironingboard.png,0.5,2,0.2,0.15,left,72,2020-12-11_17h10.52.898,premup-three_ses-01_part-01_label-phase1,3.2.4,MacIntel,60,left,1.556999922,4,0,4,0,1,3,1,0,240,1,1,239,,,,,,,,,,,,,,,,,,
,,1,179,,,,,,,1,5,4,stim/54.jpeg,HouseObjects,1,stim/objects/HouseObjects/knife.png,0.5,3,-0.2,-0.15,left,72,2020-12-11_17h10.52.898,premup-three_ses-01_part-01_label-phase1,3.2.4,MacIntel,60,left,1.020999908,4,0,4,0,1,3,1,0,240,15,1,239,,,,,,,,,,,,,,,,,,
,,0,180,,,,,,,3,3,2,stim/32.jpeg,Instruments,2,stim/objects/Instruments/musicsheet2.png,0.9,4,0.2,-0.15,right,72,2020-12-11_17h10.52.898,premup-three_ses-01_part-01_label-phase1,3.2.4,MacIntel,60,,,4,0,4,0,1,3,1,0,240,197,1,239,,,,,,,,,,,,,,,,,,
,,1,181,,,,,,,2,2,3,stim/23.jpeg,HouseObjects,1,stim/objects/HouseObjects/key2.png,0.7,2,0.2,0.15,left,72,2020-12-11_17h10.52.898,premup-three_ses-01_part-01_label-phase1,3.2.4,MacIntel,60,left,1.558999777,4,0,4,0,1,3,1,0,240,146,1,239,,,,,,,,,,,,,,,,,,
,,0,182,,,,,,,3,3,3,stim/33.jpeg,Instruments,2,stim/objects/Instruments/musicstand2.png,0.9,2,0.2,0.15,right,72,2020-12-11_17h10.52.898,premup-three_ses-01_part-01_label-phase1,3.2.4,MacIntel,60,left,1.406999826,4,0,4,0,1,3,1,0,240,166,1,239,,,,,,,,,,,,,,,,,,
,,1,183,,,,,,,3,4,4,stim/44.jpeg,HouseObjects,1,stim/objects/HouseObjects/rug2.png,0.9,2,0.2,0.15,left,72,2020-12-11_17h10.52.898,premup-three_ses-01_part-01_label-phase1,3.2.4,MacIntel,60,left,1.020999908,4,0,4,0,1,3,1,0,240,231,1,239,,,,,,,,,,,,,,,,,,
,,0,184,,,,,,,2,2,4,stim/24.jpeg,HouseObjects,1,stim/objects/HouseObjects/knife2.png,0.7,3,-0.2,-0.15,left,72,2020-12-11_17h10.52.898,premup-three_ses-01_part-01_label-phase1,3.2.4,MacIntel,60,right,1.18599987,4,0,4,0,1,3,1,0,240,143,1,239,,,,,,,,,,,,,,,,,,
,,1,185,,,,,,,3,4,2,stim/42.jpeg,HouseObjects,1,stim/objects/HouseObjects/remote2.png,0.9,4,0.2,-0.15,left,72,2020-12-11_17h10.52.898,premup-three_ses-01_part-01_label-phase1,3.2.4,MacIntel,60,left,0.604999781,4,0,4,0,1,3,1,0,240,217,1,239,,,,,,,,,,,,,,,,,,
,,1,186,,,,,,,1,6,1,stim/61.jpeg,Instruments,2,stim/objects/Instruments/metronome.png,0.5,1,-0.2,0.15,right,72,2020-12-11_17h10.52.898,premup-three_ses-01_part-01_label-phase1,3.2.4,MacIntel,60,right,1.411999941,4,0,4,0,1,3,1,0,240,72,1,239,,,,,,,,,,,,,,,,,,
,,0,187,,,,,,,1,5,1,stim/51.jpeg,Instruments,2,stim/objects/Instruments/keyboard.png,0.5,4,0.2,-0.15,right,72,2020-12-11_17h10.52.898,premup-three_ses-01_part-01_label-phase1,3.2.4,MacIntel,60,left,0.888999939,4,0,4,0,1,3,1,0,240,20,1,239,,,,,,,,,,,,,,,,,,
,,0,188,,,,,,,2,1,2,stim/12.jpeg,Instruments,2,stim/objects/Instruments/pipepiano.png,0.7,1,-0.2,0.15,right,72,2020-12-11_17h10.52.898,premup-three_ses-01_part-01_label-phase1,3.2.4,MacIntel,60,left,1.298999786,4,0,4,0,1,3,1,0,240,117,1,239,,,,,,,,,,,,,,,,,,
,,1,189,,,,,,,2,2,3,stim/23.jpeg,HouseObjects,1,stim/objects/HouseObjects/key2.png,0.7,3,-0.2,-0.15,left,72,2020-12-11_17h10.52.898,premup-three_ses-01_part-01_label-phase1,3.2.4,MacIntel,60,left,1.275999784,4,0,4,0,1,3,1,0,240,142,1,239,,,,,,,,,,,,,,,,,,
,,0,190,,,,,,,1,6,1,stim/61.jpeg,Instruments,2,stim/objects/Instruments/metronome.png,0.5,2,0.2,0.15,right,72,2020-12-11_17h10.52.898,premup-three_ses-01_part-01_label-phase1,3.2.4,MacIntel,60,left,1.580999851,4,0,4,0,1,3,1,0,240,64,1,239,,,,,,,,,,,,,,,,,,
,,0,191,,,,,,,1,6,3,stim/63.jpeg,HouseObjects,1,stim/objects/HouseObjects/pan.png,0.5,3,-0.2,-0.15,left,72,2020-12-11_17h10.52.898,premup-three_ses-01_part-01_label-phase1,3.2.4,MacIntel,60,right,0.646999836,4,0,4,0,1,3,1,0,240,54,1,239,,,,,,,,,,,,,,,,,,
,,0,192,,,,,,,1,5,1,stim/51.jpeg,Instruments,2,stim/objects/Instruments/keyboard.png,0.5,1,-0.2,0.15,right,72,2020-12-11_17h10.52.898,premup-three_ses-01_part-01_label-phase1,3.2.4,MacIntel,60,left,0.568999767,4,0,4,0,1,3,1,0,240,32,1,239,,,,,,,,,,,,,,,,,,
,,1,193,,,,,,,1,6,1,stim/61.jpeg,Instruments,2,stim/objects/Instruments/metronome.png,0.5,2,0.2,0.15,right,72,2020-12-11_17h10.52.898,premup-three_ses-01_part-01_label-phase1,3.2.4,MacIntel,60,right,1.365999699,4,0,4,0,1,3,1,0,240,60,1,239,,,,,,,,,,,,,,,,,,
,,1,194,,,,,,,2,2,4,stim/24.jpeg,HouseObjects,1,stim/objects/HouseObjects/knife2.png,0.7,4,0.2,-0.15,left,72,2020-12-11_17h10.52.898,premup-three_ses-01_part-01_label-phase1,3.2.4,MacIntel,60,left,0.94299984,4,0,4,0,1,3,1,0,240,127,1,239,,,,,,,,,,,,,,,,,,
,,0,195,,,,,,,2,1,4,stim/14.jpeg,Instruments,2,stim/objects/Instruments/record_player.png,0.7,3,-0.2,-0.15,right,72,2020-12-11_17h10.52.898,premup-three_ses-01_part-01_label-phase1,3.2.4,MacIntel,60,left,1.419999838,4,0,4,0,1,3,1,0,240,103,1,239,,,,,,,,,,,,,,,,,,
,,1,196,,,,,,,1,5,1,stim/51.jpeg,Instruments,2,stim/objects/Instruments/keyboard.png,0.5,4,0.2,-0.15,right,72,2020-12-11_17h10.52.898,premup-three_ses-01_part-01_label-phase1,3.2.4,MacIntel,60,right,0.576999903,4,0,4,0,1,3,1,0,240,28,1,239,,,,,,,,,,,,,,,,,,
,,0,197,,,,,,,3,4,1,stim/41.jpeg,HouseObjects,1,stim/objects/HouseObjects/recyclingbin2.png,0.9,3,-0.2,-0.15,left,72,2020-12-11_17h10.52.898,premup-three_ses-01_part-01_label-phase1,3.2.4,MacIntel,60,,,4,0,4,0,1,3,1,0,240,212,1,239,,,,,,,,,,,,,,,,,,
,,0,198,,,,,,,1,5,3,stim/53.jpeg,Instruments,2,stim/objects/Instruments/maraca.png,0.5,2,0.2,0.15,right,72,2020-12-11_17h10.52.898,premup-three_ses-01_part-01_label-phase1,3.2.4,MacIntel,60,left,0.542999744,4,0,4,0,1,3,1,0,240,34,1,239,,,,,,,,,,,,,,,,,,
,,0,199,,,,,,,1,6,2,stim/62.jpeg,HouseObjects,1,stim/objects/HouseObjects/match.png,0.5,4,0.2,-0.15,left,72,2020-12-11_17h10.52.898,premup-three_ses-01_part-01_label-phase1,3.2.4,MacIntel,60,right,0.818000078,4,0,4,0,1,3,1,0,240,45,1,239,,,,,,,,,,,,,,,,,,
,,0,200,,,,,,,2,2,1,stim/21.jpeg,HouseObjects,1,stim/objects/HouseObjects/iron2.png,0.7,2,0.2,0.15,left,72,2020-12-11_17h10.52.898,premup-three_ses-01_part-01_label-phase1,3.2.4,MacIntel,60,right,0.971999884,4,0,4,0,1,3,1,0,240,128,1,239,,,,,,,,,,,,,,,,,,
,,1,201,,,,,,,2,1,3,stim/13.jpeg,HouseObjects,1,stim/objects/HouseObjects/rubbergloves.png,0.3,1,-0.2,0.15,left,72,2020-12-11_17h10.52.898,premup-three_ses-01_part-01_label-phase1,3.2.4,MacIntel,60,left,1.014999866,4,0,4,0,1,3,1,0,240,90,1,239,,,,,,,,,,,,,,,,,,
,,0,202,,,,,,,1,6,4,stim/64.jpeg,Instruments,2,stim/objects/Instruments/oboe.png,0.5,3,-0.2,-0.15,right,72,2020-12-11_17h10.52.898,premup-three_ses-01_part-01_label-phase1,3.2.4,MacIntel,60,left,0.592999935,4,0,4,0,1,3,1,0,240,75,1,239,,,,,,,,,,,,,,,,,,
,,1,203,,,,,,,2,2,1,stim/21.jpeg,Instruments,2,stim/objects/Instruments/keyboard2.png,0.3,2,0.2,0.15,right,72,2020-12-11_17h10.52.898,premup-three_ses-01_part-01_label-phase1,3.2.4,MacIntel,60,right,0.635999918,4,0,4,0,1,3,1,0,240,148,1,239,,,,,,,,,,,,,,,,,,
,,1,204,,,,,,,3,4,3,stim/43.jpeg,HouseObjects,1,stim/objects/HouseObjects/rubbergloves2.png,0.9,1,-0.2,0.15,left,72,2020-12-11_17h10.52.898,premup-three_ses-01_part-01_label-phase1,3.2.4,MacIntel,60,left,0.730000019,4,0,4,0,1,3,1,0,240,234,1,239,,,,,,,,,,,,,,,,,,
,,0,205,,,,,,,3,3,1,stim/31.jpeg,Instruments,2,stim/objects/Instruments/metronome2.png,0.9,4,0.2,-0.15,right,72,2020-12-11_17h10.52.898,premup-three_ses-01_part-01_label-phase1,3.2.4,MacIntel,60,left,0.88499999,4,0,4,0,1,3,1,0,240,168,1,239,,,,,,,,,,,,,,,,,,
,,1,206,,,,,,,2,2,3,stim/23.jpeg,HouseObjects,1,stim/objects/HouseObjects/key2.png,0.7,2,0.2,0.15,left,72,2020-12-11_17h10.52.898,premup-three_ses-01_part-01_label-phase1,3.2.4,MacIntel,60,left,1.11500001,4,0,4,0,1,3,1,0,240,134,1,239,,,,,,,,,,,,,,,,,,
,,1,207,,,,,,,2,1,1,stim/11.jpeg,HouseObjects,1,stim/objects/HouseObjects/recyclingbin.png,0.3,4,0.2,-0.15,left,72,2020-12-11_17h10.52.898,premup-three_ses-01_part-01_label-phase1,3.2.4,MacIntel,60,left,1.020999908,4,0,4,0,1,3,1,0,240,84,1,239,,,,,,,,,,,,,,,,,,
,,1,208,,,,,,,3,4,1,stim/41.jpeg,HouseObjects,1,stim/objects/HouseObjects/recyclingbin2.png,0.9,1,-0.2,0.15,left,72,2020-12-11_17h10.52.898,premup-three_ses-01_part-01_label-phase1,3.2.4,MacIntel,60,left,1.092999697,4,0,4,0,1,3,1,0,240,224,1,239,,,,,,,,,,,,,,,,,,
,,0,209,,,,,,,2,1,1,stim/11.jpeg,HouseObjects,1,stim/objects/HouseObjects/recyclingbin.png,0.3,1,-0.2,0.15,left,72,2020-12-11_17h10.52.898,premup-three_ses-01_part-01_label-phase1,3.2.4,MacIntel,60,right,0.96999979,4,0,4,0,1,3,1,0,240,80,1,239,,,,,,,,,,,,,,,,,,
,,0,210,,,,,,,2,1,4,stim/14.jpeg,Instruments,2,stim/objects/Instruments/record_player.png,0.7,4,0.2,-0.15,right,72,2020-12-11_17h10.52.898,premup-three_ses-01_part-01_label-phase1,3.2.4,MacIntel,60,left,1.401000023,4,0,4,0,1,3,1,0,240,119,1,239,,,,,,,,,,,,,,,,,,
,,0,211,,,,,,,1,6,2,stim/62.jpeg,HouseObjects,1,stim/objects/HouseObjects/match.png,0.5,3,-0.2,-0.15,left,72,2020-12-11_17h10.52.898,premup-three_ses-01_part-01_label-phase1,3.2.4,MacIntel,60,right,1.377999783,4,0,4,0,1,3,1,0,240,41,1,239,,,,,,,,,,,,,,,,,,
,,1,212,,,,,,,2,2,1,stim/21.jpeg,HouseObjects,1,stim/objects/HouseObjects/iron2.png,0.7,1,-0.2,0.15,left,72,2020-12-11_17h10.52.898,premup-three_ses-01_part-01_label-phase1,3.2.4,MacIntel,60,left,0.81099987,4,0,4,0,1,3,1,0,240,120,1,239,,,,,,,,,,,,,,,,,,
,,1,213,,,,,,,3,4,4,stim/44.jpeg,HouseObjects,1,stim/objects/HouseObjects/rug2.png,0.9,2,0.2,0.15,left,72,2020-12-11_17h10.52.898,premup-three_ses-01_part-01_label-phase1,3.2.4,MacIntel,60,left,0.866999865,4,0,4,0,1,3,1,0,240,227,1,239,,,,,,,,,,,,,,,,,,
,,1,214,,,,,,,3,3,3,stim/33.jpeg,Instruments,2,stim/objects/Instruments/musicstand2.png,0.9,2,0.2,0.15,right,72,2020-12-11_17h10.52.898,premup-three_ses-01_part-01_label-phase1,3.2.4,MacIntel,60,right,1.296999931,4,0,4,0,1,3,1,0,240,198,1,239,,,,,,,,,,,,,,,,,,
,,0,215,,,,,,,3,4,2,stim/42.jpeg,Instruments,2,stim/objects/Instruments/pipepiano2.png,0.1,3,-0.2,-0.15,right,72,2020-12-11_17h10.52.898,premup-three_ses-01_part-01_label-phase1,3.2.4,MacIntel,60,left,1.249000072,4,0,4,0,1,3,1,0,240,237,1,239,,,,,,,,,,,,,,,,,,
,,0,216,,,,,,,1,5,4,stim/54.jpeg,Instruments,2,stim/objects/Instruments/marimba.png,0.5,3,-0.2,-0.15,right,72,2020-12-11_17h10.52.898,premup-three_ses-01_part-01_label-phase1,3.2.4,MacIntel,60,,,4,0,4,0,1,3,1,0,240,39,1,239,,,,,,,,,,,,,,,,,,
,,0,217,,,,,,,1,5,4,stim/54.jpeg,HouseObjects,1,stim/objects/HouseObjects/knife.png,0.5,4,0.2,-0.15,left,72,2020-12-11_17h10.52.898,premup-three_ses-01_part-01_label-phase1,3.2.4,MacIntel,60,right,0.864999771,4,0,4,0,1,3,1,0,240,3,1,239,,,,,,,,,,,,,,,,,,
,,1,218,,,,,,,1,6,3,stim/63.jpeg,HouseObjects,1,stim/objects/HouseObjects/pan.png,0.5,1,-0.2,0.15,left,72,2020-12-11_17h10.52.898,premup-three_ses-01_part-01_label-phase1,3.2.4,MacIntel,60,left,0.58100009,4,0,4,0,1,3,1,0,240,42,1,239,,,,,,,,,,,,,,,,,,
,,1,219,,,,,,,1,5,2,stim/52.jpeg,HouseObjects,1,stim/objects/HouseObjects/ironingboard.png,0.5,3,-0.2,-0.15,left,72,2020-12-11_17h10.52.898,premup-three_ses-01_part-01_label-phase1,3.2.4,MacIntel,60,left,0.602999926,4,0,4,0,1,3,1,0,240,5,1,239,,,,,,,,,,,,,,,,,,
,,1,220,,,,,,,2,2,1,stim/21.jpeg,HouseObjects,1,stim/objects/HouseObjects/iron2.png,0.7,1,-0.2,0.15,left,72,2020-12-11_17h10.52.898,premup-three_ses-01_part-01_label-phase1,3.2.4,MacIntel,60,left,0.944999933,4,0,4,0,1,3,1,0,240,124,1,239,,,,,,,,,,,,,,,,,,
,,1,221,,,,,,,1,6,3,stim/63.jpeg,Instruments,2,stim/objects/Instruments/musicstand.png,0.5,3,-0.2,-0.15,right,72,2020-12-11_17h10.52.898,premup-three_ses-01_part-01_label-phase1,3.2.4,MacIntel,60,right,1.332999945,4,0,4,0,1,3,1,0,240,70,1,239,,,,,,,,,,,,,,,,,,
,,1,222,,,,,,,2,2,3,stim/23.jpeg,HouseObjects,1,stim/objects/HouseObjects/key2.png,0.7,1,-0.2,0.15,left,72,2020-12-11_17h10.52.898,premup-three_ses-01_part-01_label-phase1,3.2.4,MacIntel,60,left,0.592000008,4,0,4,0,1,3,1,0,240,138,1,239,,,,,,,,,,,,,,,,,,
,,1,223,,,,,,,1,5,2,stim/52.jpeg,HouseObjects,1,stim/objects/HouseObjects/ironingboard.png,0.5,2,0.2,0.15,left,72,2020-12-11_17h10.52.898,premup-three_ses-01_part-01_label-phase1,3.2.4,MacIntel,60,left,0.645999908,4,0,4,0,1,3,1,0,240,17,1,239,,,,,,,,,,,,,,,,,,
,,1,224,,,,,,,2,1,2,stim/12.jpeg,Instruments,2,stim/objects/Instruments/pipepiano.png,0.7,1,-0.2,0.15,right,72,2020-12-11_17h10.52.898,premup-three_ses-01_part-01_label-phase1,3.2.4,MacIntel,60,right,1.001999855,4,0,4,0,1,3,1,0,240,113,1,239,,,,,,,,,,,,,,,,,,
,,1,225,,,,,,,1,6,1,stim/61.jpeg,Instruments,2,stim/objects/Instruments/metronome.png,0.5,3,-0.2,-0.15,right,72,2020-12-11_17h10.52.898,premup-three_ses-01_part-01_label-phase1,3.2.4,MacIntel,60,right,0.690999746,4,0,4,0,1,3,1,0,240,76,1,239,,,,,,,,,,,,,,,,,,
,,0,226,,,,,,,3,3,2,stim/32.jpeg,HouseObjects,1,stim/objects/HouseObjects/match2.png,0.1,4,0.2,-0.15,left,72,2020-12-11_17h10.52.898,premup-three_ses-01_part-01_label-phase1,3.2.4,MacIntel,60,right,1.324999809,4,0,4,0,1,3,1,0,240,161,1,239,,,,,,,,,,,,,,,,,,
,,1,227,,,,,,,2,2,1,stim/21.jpeg,HouseObjects,1,stim/objects/HouseObjects/iron2.png,0.7,1,-0.2,0.15,left,72,2020-12-11_17h10.52.898,premup-three_ses-01_part-01_label-phase1,3.2.4,MacIntel,60,left,1.320999861,4,0,4,0,1,3,1,0,240,132,1,239,,,,,,,,,,,,,,,,,,
,,0,228,,,,,,,1,6,3,stim/63.jpeg,HouseObjects,1,stim/objects/HouseObjects/pan.png,0.5,4,0.2,-0.15,left,72,2020-12-11_17h10.52.898,premup-three_ses-01_part-01_label-phase1,3.2.4,MacIntel,60,right,0.998999834,4,0,4,0,1,3,1,0,240,46,1,239,,,,,,,,,,,,,,,,,,
,,1,229,,,,,,,1,5,4,stim/54.jpeg,HouseObjects,1,stim/objects/HouseObjects/knife.png,0.5,2,0.2,0.15,left,72,2020-12-11_17h10.52.898,premup-three_ses-01_part-01_label-phase1,3.2.4,MacIntel,60,left,0.616999865,4,0,4,0,1,3,1,0,240,7,1,239,,,,,,,,,,,,,,,,,,
,,0,230,,,,,,,1,5,2,stim/52.jpeg,Instruments,2,stim/objects/Instruments/laud.png,0.5,4,0.2,-0.15,right,72,2020-12-11_17h10.52.898,premup-three_ses-01_part-01_label-phase1,3.2.4,MacIntel,60,left,0.517999887,4,0,4,0,1,3,1,0,240,33,1,239,,,,,,,,,,,,,,,,,,
,,0,231,,,,,,,2,1,2,stim/12.jpeg,Instruments,2,stim/objects/Instruments/pipepiano.png,0.7,3,-0.2,-0.15,right,72,2020-12-11_17h10.52.898,premup-three_ses-01_part-01_label-phase1,3.2.4,MacIntel,60,left,1.504999876,4,0,4,0,1,3,1,0,240,97,1,239,,,,,,,,,,,,,,,,,,
,,1,232,,,,,,,2,2,3,stim/23.jpeg,HouseObjects,1,stim/objects/HouseObjects/key2.png,0.7,1,-0.2,0.15,left,72,2020-12-11_17h10.52.898,premup-three_ses-01_part-01_label-phase1,3.2.4,MacIntel,60,left,1.616999865,4,0,4,0,1,3,1,0,240,126,1,239,,,,,,,,,,,,,,,,,,
,,0,233,,,,,,,2,1,2,stim/12.jpeg,HouseObjects,1,stim/objects/HouseObjects/remote.png,0.3,2,0.2,0.15,left,72,2020-12-11_17h10.52.898,premup-three_ses-01_part-01_label-phase1,3.2.4,MacIntel,60,right,1.427000046,4,0,4,0,1,3,1,0,240,85,1,239,,,,,,,,,,,,,,,,,,
,,1,234,,,,,,,3,4,2,stim/42.jpeg,HouseObjects,1,stim/objects/HouseObjects/remote2.png,0.9,3,-0.2,-0.15,left,72,2020-12-11_17h10.52.898,premup-three_ses-01_part-01_label-phase1,3.2.4,MacIntel,60,left,1.010999918,4,0,4,0,1,3,1,0,240,205,1,239,,,,,,,,,,,,,,,,,,
,,1,235,,,,,,,2,2,3,stim/23.jpeg,HouseObjects,1,stim/objects/HouseObjects/key2.png,0.7,3,-0.2,-0.15,left,72,2020-12-11_17h10.52.898,premup-three_ses-01_part-01_label-phase1,3.2.4,MacIntel,60,left,0.823999882,4,0,4,0,1,3,1,0,240,130,1,239,,,,,,,,,,,,,,,,,,
,,1,236,,,,,,,2,1,2,stim/12.jpeg,HouseObjects,1,stim/objects/HouseObjects/remote.png,0.3,1,-0.2,0.15,left,72,2020-12-11_17h10.52.898,premup-three_ses-01_part-01_label-phase1,3.2.4,MacIntel,60,left,0.970000029,4,0,4,0,1,3,1,0,240,89,1,239,,,,,,,,,,,,,,,,,,
,,1,237,,,,,,,3,3,4,stim/34.jpeg,Instruments,2,stim/objects/Instruments/oboe2.png,0.9,3,-0.2,-0.15,right,72,2020-12-11_17h10.52.898,premup-three_ses-01_part-01_label-phase1,3.2.4,MacIntel,60,right,1.22699976,4,0,4,0,1,3,1,0,240,191,1,239,,,,,,,,,,,,,,,,,,
,,0,238,,,,,,,2,1,4,stim/14.jpeg,Instruments,2,stim/objects/Instruments/record_player.png,0.7,3,-0.2,-0.15,right,72,2020-12-11_17h10.52.898,premup-three_ses-01_part-01_label-phase1,3.2.4,MacIntel,60,left,0.81400013,4,0,4,0,1,3,1,0,240,95,1,239,,,,,,,,,,,,,,,,,,
,,0,239,,,,,,,3,3,3,stim/33.jpeg,HouseObjects,1,stim/objects/HouseObjects/pan2.png,0.1,4,0.2,-0.15,left,72,2020-12-11_17h10.52.898,premup-three_ses-01_part-01_label-phase1,3.2.4,MacIntel,60,right,1.06799984,4,0,4,0,1,3,1,0,240,162,1,239,,,,,,,,,,,,,,,,,,
,,1,240,,,,,,,1,5,4,stim/54.jpeg,HouseObjects,1,stim/objects/HouseObjects/knife.png,0.5,4,0.2,-0.15,left,72,2020-12-11_17h10.52.898,premup-three_ses-01_part-01_label-phase1,3.2.4,MacIntel,60,left,0.437999964,4,0,4,0,1,3,1,0,240,19,1,239,,,,,,,,,,,,,,,,,,
,,,,,,,,,,,4,,stim/41.jpeg,,,,,,,,,72,2020-12-11_17h10.52.898,premup-three_ses-01_part-01_label-phase1,3.2.4,MacIntel,60,,,4,0,4,0,1,3,,,,,,,1,0,80,13.87799978,,,1,0,6,3,1,5,Household items,65,75,Music items,25,35
,,,,,,,,,,,3,,stim/31.jpeg,,,,,,,,,72,2020-12-11_17h10.52.898,premup-three_ses-01_part-01_label-phase1,3.2.4,MacIntel,60,,,4,0,4,0,1,3,,,,,,,1,0,,,20,8.254000187,1,0,6,2,1,5,Household items,65,75,Music items,25,35
,,,,,,,,,,,2,,stim/21.jpeg,,,,,,,,,72,2020-12-11_17h10.52.898,premup-three_ses-01_part-01_label-phase1,3.2.4,MacIntel,60,,,4,0,4,0,1,3,,,,,,,1,0,,,11,9.822000027,1,0,6,1,1,5,Music items,45,55,Household items,45,55
,,,,,,,,,,,1,,stim/11.jpeg,,,,,,,,,72,2020-12-11_17h10.52.898,premup-three_ses-01_part-01_label-phase1,3.2.4,MacIntel,60,,,4,0,4,0,1,3,,,,,,,1,0,,,50,3.920000076,1,0,6,0,1,5,Household items,45,55,Music items,45,55
,,,,,,,,,,,6,,stim/61.jpeg,,,,,,,,,72,2020-12-11_17h10.52.898,premup-three_ses-01_part-01_label-phase1,3.2.4,MacIntel,60,,,4,0,4,0,1,3,,,,,,,1,0,,,30,9.154000044,1,0,6,5,1,5,Household items,5,15,Music items,85,95
,,,,,,,,,,,5,,stim/51.jpeg,,,,,,,,,72,2020-12-11_17h10.52.898,premup-three_ses-01_part-01_label-phase1,3.2.4,MacIntel,60,,,4,0,4,0,1,3,,,,,,,1,0,,,30,10.63899994,1,0,6,4,1,5,Music items,5,15,Household items,85,95
,,,,,,,,,,,,,,,,,,,,,,72,2020-12-11_17h10.52.898,premup-three_ses-01_part-01_label-phase1,3.2.4,MacIntel,60,,,4,0,4,0,1,3,,,,,,,,,,,,,,,,,,,,,,,,
,,1,1,,,,,,,2,1,2,stim/12.jpeg,Instruments,2,stim/objects/Instruments/pipepiano.png,0.7,1,-0.2,0.15,right,72,2020-12-11_17h10.52.898,premup-three_ses-01_part-01_label-phase1,3.2.4,MacIntel,60,right,1.633999825,4,0,4,0,1,3,1,0,240,113,1,239,,,,,,,,,,,,,,,,,,
,,0,2,,,,,,,2,2,3,stim/23.jpeg,Instruments,2,stim/objects/Instruments/maraca2.png,0.3,2,0.2,0.15,right,72,2020-12-11_17h10.52.898,premup-three_ses-01_part-01_label-phase1,3.2.4,MacIntel,60,left,0.820999861,4,0,4,0,1,3,1,0,240,154,1,239,,,,,,,,,,,,,,,,,,
,,1,3,,,,,,,3,3,2,stim/32.jpeg,Instruments,2,stim/objects/Instruments/musicsheet2.png,0.9,4,0.2,-0.15,right,72,2020-12-11_17h10.52.898,premup-three_ses-01_part-01_label-phase1,3.2.4,MacIntel,60,right,0.905999899,4,0,4,0,1,3,1,0,240,197,1,239,,,,,,,,,,,,,,,,,,
,,1,4,,,,,,,3,4,2,stim/42.jpeg,HouseObjects,1,stim/objects/HouseObjects/remote2.png,0.9,3,-0.2,-0.15,left,72,2020-12-11_17h10.52.898,premup-three_ses-01_part-01_label-phase1,3.2.4,MacIntel,60,left,0.835999727,4,0,4,0,1,3,1,0,240,205,1,239,,,,,,,,,,,,,,,,,,
,,1,5,,,,,,,1,6,2,stim/62.jpeg,Instruments,2,stim/objects/Instruments/musicsheet.png,0.5,2,0.2,0.15,right,72,2020-12-11_17h10.52.898,premup-three_ses-01_part-01_label-phase1,3.2.4,MacIntel,60,right,1.200999737,4,0,4,0,1,3,1,0,240,77,1,239,,,,,,,,,,,,,,,,,,
,,0,6,,,,,,,1,5,2,stim/52.jpeg,Instruments,2,stim/objects/Instruments/laud.png,0.5,2,0.2,0.15,right,72,2020-12-11_17h10.52.898,premup-three_ses-01_part-01_label-phase1,3.2.4,MacIntel,60,left,1.339999914,4,0,4,0,1,3,1,0,240,21,1,239,,,,,,,,,,,,,,,,,,
,,0,7,,,,,,,1,6,4,stim/64.jpeg,HouseObjects,1,stim/objects/HouseObjects/pitcher.png,0.5,3,-0.2,-0.15,left,72,2020-12-11_17h10.52.898,premup-three_ses-01_part-01_label-phase1,3.2.4,MacIntel,60,right,0.868999958,4,0,4,0,1,3,1,0,240,43,1,239,,,,,,,,,,,,,,,,,,
,,0,8,,,,,,,3,3,4,stim/34.jpeg,HouseObjects,1,stim/objects/HouseObjects/pitcher2.png,0.1,3,-0.2,-0.15,left,72,2020-12-11_17h10.52.898,premup-three_ses-01_part-01_label-phase1,3.2.4,MacIntel,60,right,1.350999832,4,0,4,0,1,3,1,0,240,163,1,239,,,,,,,,,,,,,,,,,,
,,1,9,,,,,,,3,3,3,stim/33.jpeg,Instruments,2,stim/objects/Instruments/musicstand2.png,0.9,1,-0.2,0.15,right,72,2020-12-11_17h10.52.898,premup-three_ses-01_part-01_label-phase1,3.2.4,MacIntel,60,right,1.038999796,4,0,4,0,1,3,1,0,240,194,1,239,,,,,,,,,,,,,,,,,,
,,1,10,,,,,,,3,3,4,stim/34.jpeg,Instruments,2,stim/objects/Instruments/oboe2.png,0.9,2,0.2,0.15,right,72,2020-12-11_17h10.52.898,premup-three_ses-01_part-01_label-phase1,3.2.4,MacIntel,60,right,1.018999815,4,0,4,0,1,3,1,0,240,171,1,239,,,,,,,,,,,,,,,,,,
,,0,11,,,,,,,2,1,3,stim/13.jpeg,Instruments,2,stim/objects/Instruments/record.png,0.7,4,0.2,-0.15,right,72,2020-12-11_17h10.52.898,premup-three_ses-01_part-01_label-phase1,3.2.4,MacIntel,60,left,1.700999975,4,0,4,0,1,3,1,0,240,110,1,239,,,,,,,,,,,,,,,,,,
,,0,12,,,,,,,1,5,3,stim/53.jpeg,HouseObjects,1,stim/objects/HouseObjects/key.png,0.5,3,-0.2,-0.15,left,72,2020-12-11_17h10.52.898,premup-three_ses-01_part-01_label-phase1,3.2.4,MacIntel,60,right,1.578000069,4,0,4,0,1,3,1,0,240,10,1,239,,,,,,,,,,,,,,,,,,
,,1,13,,,,,,,3,4,3,stim/43.jpeg,HouseObjects,1,stim/objects/HouseObjects/rubbergloves2.png,0.9,4,0.2,-0.15,left,72,2020-12-11_17h10.52.898,premup-three_ses-01_part-01_label-phase1,3.2.4,MacIntel,60,left,0.67599988,4,0,4,0,1,3,1,0,240,202,1,239,,,,,,,,,,,,,,,,,,
,,0,14,,,,,,,1,6,2,stim/62.jpeg,HouseObjects,1,stim/objects/HouseObjects/match.png,0.5,4,0.2,-0.15,left,72,2020-12-11_17h10.52.898,premup-three_ses-01_part-01_label-phase1,3.2.4,MacIntel,60,right,0.895999908,4,0,4,0,1,3,1,0,240,45,1,239,,,,,,,,,,,,,,,,,,
,,0,15,,,,,,,2,1,2,stim/12.jpeg,Instruments,2,stim/objects/Instruments/pipepiano.png,0.7,3,-0.2,-0.15,right,72,2020-12-11_17h10.52.898,premup-three_ses-01_part-01_label-phase1,3.2.4,MacIntel,60,left,1.21600008,4,0,4,0,1,3,1,0,240,97,1,239,,,,,,,,,,,,,,,,,,
,,0,16,,,,,,,1,5,1,stim/51.jpeg,Instruments,2,stim/objects/Instruments/keyboard.png,0.5,4,0.2,-0.15,right,72,2020-12-11_17h10.52.898,premup-three_ses-01_part-01_label-phase1,3.2.4,MacIntel,60,left,1.024999857,4,0,4,0,1,3,1,0,240,20,1,239,,,,,,,,,,,,,,,,,,
,,1,17,,,,,,,3,4,2,stim/42.jpeg,HouseObjects,1,stim/objects/HouseObjects/remote2.png,0.9,1,-0.2,0.15,left,72,2020-12-11_17h10.52.898,premup-three_ses-01_part-01_label-phase1,3.2.4,MacIntel,60,left,1.802000046,4,0,4,0,1,3,1,0,240,209,1,239,,,,,,,,,,,,,,,,,,
,,0,18,,,,,,,1,5,4,stim/54.jpeg,Instruments,2,stim/objects/Instruments/marimba.png,0.5,3,-0.2,-0.15,right,72,2020-12-11_17h10.52.898,premup-three_ses-01_part-01_label-phase1,3.2.4,MacIntel,60,,,4,0,4,0,1,3,1,0,240,31,1,239,,,,,,,,,,,,,,,,,,
,,0,19,,,,,,,1,6,3,stim/63.jpeg,HouseObjects,1,stim/objects/HouseObjects/pan.png,0.5,1,-0.2,0.15,left,72,2020-12-11_17h10.52.898,premup-three_ses-01_part-01_label-phase1,3.2.4,MacIntel,60,right,0.869999886,4,0,4,0,1,3,1,0,240,42,1,239,,,,,,,,,,,,,,,,,,
,,1,20,,,,,,,3,4,4,stim/44.jpeg,HouseObjects,1,stim/objects/HouseObjects/rug2.png,0.9,2,0.2,0.15,left,72,2020-12-11_17h10.52.898,premup-three_ses-01_part-01_label-phase1,3.2.4,MacIntel,60,left,0.718999863,4,0,4,0,1,3,1,0,240,227,1,239,,,,,,,,,,,,,,,,,,
,,0,21,,,,,,,2,1,4,stim/14.jpeg,HouseObjects,1,stim/objects/HouseObjects/rug.png,0.3,4,0.2,-0.15,left,72,2020-12-11_17h10.52.898,premup-three_ses-01_part-01_label-phase1,3.2.4,MacIntel,60,right,1.240999937,4,0,4,0,1,3,1,0,240,83,1,239,,,,,,,,,,,,,,,,,,
,,1,22,,,,,,,3,4,3,stim/43.jpeg,HouseObjects,1,stim/objects/HouseObjects/rubbergloves2.png,0.9,2,0.2,0.15,left,72,2020-12-11_17h10.52.898,premup-three_ses-01_part-01_label-phase1,3.2.4,MacIntel,60,left,0.948999882,4,0,4,0,1,3,1,0,240,214,1,239,,,,,,,,,,,,,,,,,,
,,1,23,,,,,,,3,4,1,stim/41.jpeg,HouseObjects,1,stim/objects/HouseObjects/recyclingbin2.png,0.9,3,-0.2,-0.15,left,72,2020-12-11_17h10.52.898,premup-three_ses-01_part-01_label-phase1,3.2.4,MacIntel,60,left,0.858999968,4,0,4,0,1,3,1,0,240,212,1,239,,,,,,,,,,,,,,,,,,
,,0,24,,,,,,,1,5,2,stim/52.jpeg,HouseObjects,1,stim/objects/HouseObjects/ironingboard.png,0.5,2,0.2,0.15,left,72,2020-12-11_17h10.52.898,premup-three_ses-01_part-01_label-phase1,3.2.4,MacIntel,60,right,1.45299983,4,0,4,0,1,3,1,0,240,9,1,239,,,,,,,,,,,,,,,,,,
,,0,25,,,,,,,3,3,3,stim/33.jpeg,HouseObjects,1,stim/objects/HouseObjects/pan2.png,0.1,4,0.2,-0.15,left,72,2020-12-11_17h10.52.898,premup-three_ses-01_part-01_label-phase1,3.2.4,MacIntel,60,right,0.90899992,4,0,4,0,1,3,1,0,240,162,1,239,,,,,,,,,,,,,,,,,,
,,0,26,,,,,,,2,1,3,stim/13.jpeg,HouseObjects,1,stim/objects/HouseObjects/rubbergloves.png,0.3,1,-0.2,0.15,left,72,2020-12-11_17h10.52.898,premup-three_ses-01_part-01_label-phase1,3.2.4,MacIntel,60,right,1.242999792,4,0,4,0,1,3,1,0,240,90,1,239,,,,,,,,,,,,,,,,,,
,,1,27,,,,,,,2,1,2,stim/12.jpeg,Instruments,2,stim/objects/Instruments/pipepiano.png,0.7,1,-0.2,0.15,right,72,2020-12-11_17h10.52.898,premup-three_ses-01_part-01_label-phase1,3.2.4,MacIntel,60,right,0.766000032,4,0,4,0,1,3,1,0,240,93,1,239,,,,,,,,,,,,,,,,,,
,,1,28,,,,,,,3,3,1,stim/31.jpeg,Instruments,2,stim/objects/Instruments/metronome2.png,0.9,2,0.2,0.15,right,72,2020-12-11_17h10.52.898,premup-three_ses-01_part-01_label-phase1,3.2.4,MacIntel,60,right,0.954999924,4,0,4,0,1,3,1,0,240,180,1,239,,,,,,,,,,,,,,,,,,
,,1,29,,,,,,,3,3,2,stim/32.jpeg,Instruments,2,stim/objects/Instruments/musicsheet2.png,0.9,4,0.2,-0.15,right,72,2020-12-11_17h10.52.898,premup-three_ses-01_part-01_label-phase1,3.2.4,MacIntel,60,right,0.671000004,4,0,4,0,1,3,1,0,240,181,1,239,,,,,,,,,,,,,,,,,,
,,1,30,,,,,,,2,1,1,stim/11.jpeg,Instruments,2,stim/objects/Instruments/panflute.png,0.7,3,-0.2,-0.15,right,72,2020-12-11_17h10.52.898,premup-three_ses-01_part-01_label-phase1,3.2.4,MacIntel,60,right,1.743000031,4,0,4,0,1,3,1,0,240,100,1,239,,,,,,,,,,,,,,,,,,
,,0,31,,,,,,,1,5,4,stim/54.jpeg,Instruments,2,stim/objects/Instruments/marimba.png,0.5,3,-0.2,-0.15,right,72,2020-12-11_17h10.52.898,premup-three_ses-01_part-01_label-phase1,3.2.4,MacIntel,60,left,1.388999939,4,0,4,0,1,3,1,0,240,39,1,239,,,,,,,,,,,,,,,,,,
,,0,32,,,,,,,1,6,4,stim/64.jpeg,HouseObjects,1,stim/objects/HouseObjects/pitcher.png,0.5,1,-0.2,0.15,left,72,2020-12-11_17h10.52.898,premup-three_ses-01_part-01_label-phase1,3.2.4,MacIntel,60,right,0.943999767,4,0,4,0,1,3,1,0,240,55,1,239,,,,,,,,,,,,,,,,,,
,,1,33,,,,,,,3,3,1,stim/31.jpeg,Instruments,2,stim/objects/Instruments/metronome2.png,0.9,1,-0.2,0.15,right,72,2020-12-11_17h10.52.898,premup-three_ses-01_part-01_label-phase1,3.2.4,MacIntel,60,right,1.133999825,4,0,4,0,1,3,1,0,240,172,1,239,,,,,,,,,,,,,,,,,,
,,1,34,,,,,,,1,5,3,stim/53.jpeg,HouseObjects,1,stim/objects/HouseObjects/key.png,0.5,1,-0.2,0.15,left,72,2020-12-11_17h10.52.898,premup-three_ses-01_part-01_label-phase1,3.2.4,MacIntel,60,left,1.885999918,4,0,4,0,1,3,1,0,240,2,1,239,,,,,,,,,,,,,,,,,,
,,1,35,,,,,,,2,2,3,stim/23.jpeg,HouseObjects,1,stim/objects/HouseObjects/key2.png,0.7,3,-0.2,-0.15,left,72,2020-12-11_17h10.52.898,premup-three_ses-01_part-01_label-phase1,3.2.4,MacIntel,60,left,1.441999912,4,0,4,0,1,3,1,0,240,130,1,239,,,,,,,,,,,,,,,,,,
,,1,36,,,,,,,3,3,4,stim/34.jpeg,Instruments,2,stim/objects/Instruments/oboe2.png,0.9,4,0.2,-0.15,right,72,2020-12-11_17h10.52.898,premup-three_ses-01_part-01_label-phase1,3.2.4,MacIntel,60,right,0.937000036,4,0,4,0,1,3,1,0,240,167,1,239,,,,,,,,,,,,,,,,,,
,,1,37,,,,,,,3,3,4,stim/34.jpeg,Instruments,2,stim/objects/Instruments/oboe2.png,0.9,2,0.2,0.15,right,72,2020-12-11_17h10.52.898,premup-three_ses-01_part-01_label-phase1,3.2.4,MacIntel,60,right,0.824999809,4,0,4,0,1,3,1,0,240,175,1,239,,,,,,,,,,,,,,,,,,
,,1,38,,,,,,,3,4,4,stim/44.jpeg,HouseObjects,1,stim/objects/HouseObjects/rug2.png,0.9,4,0.2,-0.15,left,72,2020-12-11_17h10.52.898,premup-three_ses-01_part-01_label-phase1,3.2.4,MacIntel,60,left,0.821999788,4,0,4,0,1,3,1,0,240,211,1,239,,,,,,,,,,,,,,,,,,
,,1,39,,,,,,,2,1,4,stim/14.jpeg,Instruments,2,stim/objects/Instruments/record_player.png,0.7,3,-0.2,-0.15,right,72,2020-12-11_17h10.52.898,premup-three_ses-01_part-01_label-phase1,3.2.4,MacIntel,60,right,1.356999874,4,0,4,0,1,3,1,0,240,95,1,239,,,,,,,,,,,,,,,,,,
,,1,40,,,,,,,3,3,3,stim/33.jpeg,Instruments,2,stim/objects/Instruments/musicstand2.png,0.9,1,-0.2,0.15,right,72,2020-12-11_17h10.52.898,premup-three_ses-01_part-01_label-phase1,3.2.4,MacIntel,60,right,0.788999796,4,0,4,0,1,3,1,0,240,170,1,239,,,,,,,,,,,,,,,,,,
,,0,41,,,,,,,1,6,3,stim/63.jpeg,HouseObjects,1,stim/objects/HouseObjects/pan.png,0.5,4,0.2,-0.15,left,72,2020-12-11_17h10.52.898,premup-three_ses-01_part-01_label-phase1,3.2.4,MacIntel,60,right,1.046999931,4,0,4,0,1,3,1,0,240,50,1,239,,,,,,,,,,,,,,,,,,
,,1,42,,,,,,,3,4,2,stim/42.jpeg,HouseObjects,1,stim/objects/HouseObjects/remote2.png,0.9,2,0.2,0.15,left,72,2020-12-11_17h10.52.898,premup-three_ses-01_part-01_label-phase1,3.2.4,MacIntel,60,left,1.196999788,4,0,4,0,1,3,1,0,240,213,1,239,,,,,,,,,,,,,,,,,,
,,0,43,,,,,,,2,1,1,stim/11.jpeg,HouseObjects,1,stim/objects/HouseObjects/recyclingbin.png,0.3,4,0.2,-0.15,left,72,2020-12-11_17h10.52.898,premup-three_ses-01_part-01_label-phase1,3.2.4,MacIntel,60,right,1.309999943,4,0,4,0,1,3,1,0,240,84,1,239,,,,,,,,,,,,,,,,,,
,,1,44,,,,,,,3,3,1,stim/31.jpeg,Instruments,2,stim/objects/Instruments/metronome2.png,0.9,2,0.2,0.15,right,72,2020-12-11_17h10.52.898,premup-three_ses-01_part-01_label-phase1,3.2.4,MacIntel,60,right,0.731999874,4,0,4,0,1,3,1,0,240,176,1,239,,,,,,,,,,,,,,,,,,
,,1,45,,,,,,,3,3,1,stim/31.jpeg,Instruments,2,stim/objects/Instruments/metronome2.png,0.9,3,-0.2,-0.15,right,72,2020-12-11_17h10.52.898,premup-three_ses-01_part-01_label-phase1,3.2.4,MacIntel,60,right,0.664999962,4,0,4,0,1,3,1,0,240,188,1,239,,,,,,,,,,,,,,,,,,
,,1,46,,,,,,,2,2,2,stim/22.jpeg,HouseObjects,1,stim/objects/HouseObjects/ironingboard2.png,0.7,4,0.2,-0.15,left,72,2020-12-11_17h10.52.898,premup-three_ses-01_part-01_label-phase1,3.2.4,MacIntel,60,left,0.592000008,4,0,4,0,1,3,1,0,240,141,1,239,,,,,,,,,,,,,,,,,,
,,1,47,,,,,,,3,4,1,stim/41.jpeg,HouseObjects,1,stim/objects/HouseObjects/recyclingbin2.png,0.9,3,-0.2,-0.15,left,72,2020-12-11_17h10.52.898,premup-three_ses-01_part-01_label-phase1,3.2.4,MacIntel,60,left,0.786999941,4,0,4,0,1,3,1,0,240,204,1,239,,,,,,,,,,,,,,,,,,
,,1,48,,,,,,,2,1,4,stim/14.jpeg,Instruments,2,stim/objects/Instruments/record_player.png,0.7,4,0.2,-0.15,right,72,2020-12-11_17h10.52.898,premup-three_ses-01_part-01_label-phase1,3.2.4,MacIntel,60,right,0.895999908,4,0,4,0,1,3,1,0,240,115,1,239,,,,,,,,,,,,,,,,,,
,,1,49,,,,,,,3,3,2,stim/32.jpeg,Instruments,2,stim/objects/Instruments/musicsheet2.png,0.9,3,-0.2,-0.15,right,72,2020-12-11_17h10.52.898,premup-three_ses-01_part-01_label-phase1,3.2.4,MacIntel,60,right,1.332999945,4,0,4,0,1,3,1,0,240,193,1,239,,,,,,,,,,,,,,,,,,
,,1,50,,,,,,,2,2,3,stim/23.jpeg,HouseObjects,1,stim/objects/HouseObjects/key2.png,0.7,1,-0.2,0.15,left,72,2020-12-11_17h10.52.898,premup-three_ses-01_part-01_label-phase1,3.2.4,MacIntel,60,left,0.645999908,4,0,4,0,1,3,1,0,240,138,1,239,,,,,,,,,,,,,,,,,,
,,0,51,,,,,,,1,5,4,stim/54.jpeg,Instruments,2,stim/objects/Instruments/marimba.png,0.5,2,0.2,0.15,right,72,2020-12-11_17h10.52.898,premup-three_ses-01_part-01_label-phase1,3.2.4,MacIntel,60,left,0.731999874,4,0,4,0,1,3,1,0,240,27,1,239,,,,,,,,,,,,,,,,,,
,,0,52,,,,,,,2,2,1,stim/21.jpeg,Instruments,2,stim/objects/Instruments/keyboard2.png,0.3,2,0.2,0.15,right,72,2020-12-11_17h10.52.898,premup-three_ses-01_part-01_label-phase1,3.2.4,MacIntel,60,left,1.068000078,4,0,4,0,1,3,1,0,240,148,1,239,,,,,,,,,,,,,,,,,,
,,1,53,,,,,,,2,1,2,stim/12.jpeg,Instruments,2,stim/objects/Instruments/pipepiano.png,0.7,3,-0.2,-0.15,right,72,2020-12-11_17h10.52.898,premup-three_ses-01_part-01_label-phase1,3.2.4,MacIntel,60,right,1.160999775,4,0,4,0,1,3,1,0,240,101,1,239,,,,,,,,,,,,,,,,,,
,,1,54,,,,,,,2,2,1,stim/21.jpeg,HouseObjects,1,stim/objects/HouseObjects/iron2.png,0.7,3,-0.2,-0.15,left,72,2020-12-11_17h10.52.898,premup-three_ses-01_part-01_label-phase1,3.2.4,MacIntel,60,left,1.214999914,4,0,4,0,1,3,1,0,240,140,1,239,,,,,,,,,,,,,,,,,,
,,0,55,,,,,,,1,5,3,stim/53.jpeg,Instruments,2,stim/objects/Instruments/maraca.png,0.5,3,-0.2,-0.15,right,72,2020-12-11_17h10.52.898,premup-three_ses-01_part-01_label-phase1,3.2.4,MacIntel,60,left,1.875999928,4,0,4,0,1,3,1,0,240,30,1,239,,,,,,,,,,,,,,,,,,
,,1,56,,,,,,,2,1,2,stim/12.jpeg,Instruments,2,stim/objects/Instruments/pipepiano.png,0.7,1,-0.2,0.15,right,72,2020-12-11_17h10.52.898,premup-three_ses-01_part-01_label-phase1,3.2.4,MacIntel,60,right,1.005999804,4,0,4,0,1,3,1,0,240,117,1,239,,,,,,,,,,,,,,,,,,
,,1,57,,,,,,,1,6,4,stim/64.jpeg,Instruments,2,stim/objects/Instruments/oboe.png,0.5,3,-0.2,-0.15,right,72,2020-12-11_17h10.52.898,premup-three_ses-01_part-01_label-phase1,3.2.4,MacIntel,60,right,1.111999989,4,0,4,0,1,3,1,0,240,75,1,239,,,,,,,,,,,,,,,,,,
,,1,58,,,,,,,1,6,3,stim/63.jpeg,Instruments,2,stim/objects/Instruments/musicstand.png,0.5,4,0.2,-0.15,right,72,2020-12-11_17h10.52.898,premup-three_ses-01_part-01_label-phase1,3.2.4,MacIntel,60,right,1.049999952,4,0,4,0,1,3,1,0,240,62,1,239,,,,,,,,,,,,,,,,,,
,,0,59,,,,,,,1,6,3,stim/63.jpeg,HouseObjects,1,stim/objects/HouseObjects/pan.png,0.5,3,-0.2,-0.15,left,72,2020-12-11_17h10.52.898,premup-three_ses-01_part-01_label-phase1,3.2.4,MacIntel,60,right,0.860999823,4,0,4,0,1,3,1,0,240,54,1,239,,,,,,,,,,,,,,,,,,
,,1,60,,,,,,,2,2,1,stim/21.jpeg,HouseObjects,1,stim/objects/HouseObjects/iron2.png,0.7,1,-0.2,0.15,left,72,2020-12-11_17h10.52.898,premup-three_ses-01_part-01_label-phase1,3.2.4,MacIntel,60,left,0.602999926,4,0,4,0,1,3,1,0,240,124,1,239,,,,,,,,,,,,,,,,,,
,,1,61,,,,,,,2,2,4,stim/24.jpeg,HouseObjects,1,stim/objects/HouseObjects/knife2.png,0.7,2,0.2,0.15,left,72,2020-12-11_17h10.52.898,premup-three_ses-01_part-01_label-phase1,3.2.4,MacIntel,60,left,1.193000078,4,0,4,0,1,3,1,0,240,135,1,239,,,,,,,,,,,,,,,,,,
,,1,62,,,,,,,2,2,1,stim/21.jpeg,HouseObjects,1,stim/objects/HouseObjects/iron2.png,0.7,2,0.2,0.15,left,72,2020-12-11_17h10.52.898,premup-three_ses-01_part-01_label-phase1,3.2.4,MacIntel,60,left,0.484999895,4,0,4,0,1,3,1,0,240,128,1,239,,,,,,,,,,,,,,,,,,
,,0,63,,,,,,,3,3,1,stim/31.jpeg,Instruments,2,stim/objects/Instruments/metronome2.png,0.9,3,-0.2,-0.15,right,72,2020-12-11_17h10.52.898,premup-three_ses-01_part-01_label-phase1,3.2.4,MacIntel,60,left,0.723999977,4,0,4,0,1,3,1,0,240,192,1,239,,,,,,,,,,,,,,,,,,
,,0,64,,,,,,,3,4,2,stim/42.jpeg,Instruments,2,stim/objects/Instruments/pipepiano2.png,0.1,3,-0.2,-0.15,right,72,2020-12-11_17h10.52.898,premup-three_ses-01_part-01_label-phase1,3.2.4,MacIntel,60,left,1.705999851,4,0,4,0,1,3,1,0,240,237,1,239,,,,,,,,,,,,,,,,,,
,,1,65,,,,,,,3,4,4,stim/44.jpeg,HouseObjects,1,stim/objects/HouseObjects/rug2.png,0.9,4,0.2,-0.15,left,72,2020-12-11_17h10.52.898,premup-three_ses-01_part-01_label-phase1,3.2.4,MacIntel,60,left,0.468999863,4,0,4,0,1,3,1,0,240,223,1,239,,,,,,,,,,,,,,,,,,
,,1,66,,,,,,,2,1,1,stim/11.jpeg,Instruments,2,stim/objects/Instruments/panflute.png,0.7,3,-0.2,-0.15,right,72,2020-12-11_17h10.52.898,premup-three_ses-01_part-01_label-phase1,3.2.4,MacIntel,60,right,0.842999935,4,0,4,0,1,3,1,0,240,104,1,239,,,,,,,,,,,,,,,,,,
,,0,67,,,,,,,1,6,2,stim/62.jpeg,Instruments,2,stim/objects/Instruments/musicsheet.png,0.5,1,-0.2,0.15,right,72,2020-12-11_17h10.52.898,premup-three_ses-01_part-01_label-phase1,3.2.4,MacIntel,60,left,0.809999943,4,0,4,0,1,3,1,0,240,69,1,239,,,,,,,,,,,,,,,,,,
,,1,68,,,,,,,3,4,3,stim/43.jpeg,HouseObjects,1,stim/objects/HouseObjects/rubbergloves2.png,0.9,2,0.2,0.15,left,72,2020-12-11_17h10.52.898,premup-three_ses-01_part-01_label-phase1,3.2.4,MacIntel,60,left,1.56799984,4,0,4,0,1,3,1,0,240,226,1,239,,,,,,,,,,,,,,,,,,
,,0,69,,,,,,,2,1,3,stim/13.jpeg,HouseObjects,1,stim/objects/HouseObjects/rubbergloves.png,0.3,4,0.2,-0.15,left,72,2020-12-11_17h10.52.898,premup-three_ses-01_part-01_label-phase1,3.2.4,MacIntel,60,right,1.236000061,4,0,4,0,1,3,1,0,240,82,1,239,,,,,,,,,,,,,,,,,,
,,1,70,,,,,,,2,1,1,stim/11.jpeg,Instruments,2,stim/objects/Instruments/panflute.png,0.7,3,-0.2,-0.15,right,72,2020-12-11_17h10.52.898,premup-three_ses-01_part-01_label-phase1,3.2.4,MacIntel,60,right,0.569999933,4,0,4,0,1,3,1,0,240,116,1,239,,,,,,,,,,,,,,,,,,
,,1,71,,,,,,,3,3,4,stim/34.jpeg,Instruments,2,stim/objects/Instruments/oboe2.png,0.9,3,-0.2,-0.15,right,72,2020-12-11_17h10.52.898,premup-three_ses-01_part-01_label-phase1,3.2.4,MacIntel,60,right,0.632999897,4,0,4,0,1,3,1,0,240,195,1,239,,,,,,,,,,,,,,,,,,
,,1,72,,,,,,,2,2,1,stim/21.jpeg,HouseObjects,1,stim/objects/HouseObjects/iron2.png,0.7,2,0.2,0.15,left,72,2020-12-11_17h10.52.898,premup-three_ses-01_part-01_label-phase1,3.2.4,MacIntel,60,left,0.595000029,4,0,4,0,1,3,1,0,240,144,1,239,,,,,,,,,,,,,,,,,,
,,1,73,,,,,,,2,1,3,stim/13.jpeg,Instruments,2,stim/objects/Instruments/record.png,0.7,4,0.2,-0.15,right,72,2020-12-11_17h10.52.898,premup-three_ses-01_part-01_label-phase1,3.2.4,MacIntel,60,right,0.846999884,4,0,4,0,1,3,1,0,240,94,1,239,,,,,,,,,,,,,,,,,,
,,1,74,,,,,,,3,3,1,stim/31.jpeg,Instruments,2,stim/objects/Instruments/metronome2.png,0.9,3,-0.2,-0.15,right,72,2020-12-11_17h10.52.898,premup-three_ses-01_part-01_label-phase1,3.2.4,MacIntel,60,right,0.726999998,4,0,4,0,1,3,1,0,240,184,1,239,,,,,,,,,,,,,,,,,,
,,1,75,,,,,,,1,6,1,stim/61.jpeg,Instruments,2,stim/objects/Instruments/metronome.png,0.5,3,-0.2,-0.15,right,72,2020-12-11_17h10.52.898,premup-three_ses-01_part-01_label-phase1,3.2.4,MacIntel,60,right,1.227999926,4,0,4,0,1,3,1,0,240,76,1,239,,,,,,,,,,,,,,,,,,
,,1,76,,,,,,,3,4,1,stim/41.jpeg,HouseObjects,1,stim/objects/HouseObjects/recyclingbin2.png,0.9,2,0.2,0.15,left,72,2020-12-11_17h10.52.898,premup-three_ses-01_part-01_label-phase1,3.2.4,MacIntel,60,left,0.617999792,4,0,4,0,1,3,1,0,240,216,1,239,,,,,,,,,,,,,,,,,,
,,1,77,,,,,,,3,4,1,stim/41.jpeg,HouseObjects,1,stim/objects/HouseObjects/recyclingbin2.png,0.9,1,-0.2,0.15,left,72,2020-12-11_17h10.52.898,premup-three_ses-01_part-01_label-phase1,3.2.4,MacIntel,60,left,0.387000084,4,0,4,0,1,3,1,0,240,224,1,239,,,,,,,,,,,,,,,,,,
,,1,78,,,,,,,3,4,2,stim/42.jpeg,HouseObjects,1,stim/objects/HouseObjects/remote2.png,0.9,2,0.2,0.15,left,72,2020-12-11_17h10.52.898,premup-three_ses-01_part-01_label-phase1,3.2.4,MacIntel,60,left,0.436000109,4,0,4,0,1,3,1,0,240,225,1,239,,,,,,,,,,,,,,,,,,
,,0,79,,,,,,,3,4,3,stim/43.jpeg,Instruments,2,stim/objects/Instruments/record2.png,0.1,3,-0.2,-0.15,right,72,2020-12-11_17h10.52.898,premup-three_ses-01_part-01_label-phase1,3.2.4,MacIntel,60,left,0.63499999,4,0,4,0,1,3,1,0,240,238,1,239,,,,,,,,,,,,,,,,,,
,,0,80,,,,,,,1,6,1,stim/61.jpeg,HouseObjects,1,stim/objects/HouseObjects/lintroller.png,0.5,4,0.2,-0.15,left,72,2020-12-11_17h10.52.898,premup-three_ses-01_part-01_label-phase1,3.2.4,MacIntel,60,right,0.794999838,4,0,4,0,1,3,1,0,240,40,1,239,,,,,,,,,,,,,,,,,,
,,1,81,,,,,,,3,4,3,stim/43.jpeg,HouseObjects,1,stim/objects/HouseObjects/rubbergloves2.png,0.9,1,-0.2,0.15,left,72,2020-12-11_17h10.52.898,premup-three_ses-01_part-01_label-phase1,3.2.4,MacIntel,60,left,0.588999987,4,0,4,0,1,3,1,0,240,210,1,239,,,,,,,,,,,,,,,,,,
,,1,82,,,,,,,3,3,2,stim/32.jpeg,Instruments,2,stim/objects/Instruments/musicsheet2.png,0.9,4,0.2,-0.15,right,72,2020-12-11_17h10.52.898,premup-three_ses-01_part-01_label-phase1,3.2.4,MacIntel,60,right,1.20299983,4,0,4,0,1,3,1,0,240,177,1,239,,,,,,,,,,,,,,,,,,
,,1,83,,,,,,,2,2,4,stim/24.jpeg,HouseObjects,1,stim/objects/HouseObjects/knife2.png,0.7,4,0.2,-0.15,left,72,2020-12-11_17h10.52.898,premup-three_ses-01_part-01_label-phase1,3.2.4,MacIntel,60,left,0.808999777,4,0,4,0,1,3,1,0,240,127,1,239,,,,,,,,,,,,,,,,,,
,,1,84,,,,,,,1,5,3,stim/53.jpeg,Instruments,2,stim/objects/Instruments/maraca.png,0.5,3,-0.2,-0.15,right,72,2020-12-11_17h10.52.898,premup-three_ses-01_part-01_label-phase1,3.2.4,MacIntel,60,right,1.805000067,4,0,4,0,1,3,1,0,240,22,1,239,,,,,,,,,,,,,,,,,,
,,1,85,,,,,,,3,3,3,stim/33.jpeg,Instruments,2,stim/objects/Instruments/musicstand2.png,0.9,2,0.2,0.15,right,72,2020-12-11_17h10.52.898,premup-three_ses-01_part-01_label-phase1,3.2.4,MacIntel,60,right,0.953000069,4,0,4,0,1,3,1,0,240,174,1,239,,,,,,,,,,,,,,,,,,
,,1,86,,,,,,,2,1,1,stim/11.jpeg,Instruments,2,stim/objects/Instruments/panflute.png,0.7,1,-0.2,0.15,right,72,2020-12-11_17h10.52.898,premup-three_ses-01_part-01_label-phase1,3.2.4,MacIntel,60,right,1.036999941,4,0,4,0,1,3,1,0,240,92,1,239,,,,,,,,,,,,,,,,,,
,,0,87,,,,,,,2,2,1,stim/21.jpeg,Instruments,2,stim/objects/Instruments/keyboard2.png,0.3,4,0.2,-0.15,right,72,2020-12-11_17h10.52.898,premup-three_ses-01_part-01_label-phase1,3.2.4,MacIntel,60,left,1.066999912,4,0,4,0,1,3,1,0,240,152,1,239,,,,,,,,,,,,,,,,,,
,,1,88,,,,,,,1,6,2,stim/62.jpeg,Instruments,2,stim/objects/Instruments/musicsheet.png,0.5,1,-0.2,0.15,right,72,2020-12-11_17h10.52.898,premup-three_ses-01_part-01_label-phase1,3.2.4,MacIntel,60,right,1.057999849,4,0,4,0,1,3,1,0,240,73,1,239,,,,,,,,,,,,,,,,,,
,,1,89,,,,,,,3,4,4,stim/44.jpeg,HouseObjects,1,stim/objects/HouseObjects/rug2.png,0.9,2,0.2,0.15,left,72,2020-12-11_17h10.52.898,premup-three_ses-01_part-01_label-phase1,3.2.4,MacIntel,60,left,0.559000015,4,0,4,0,1,3,1,0,240,231,1,239,,,,,,,,,,,,,,,,,,
,,1,90,,,,,,,1,6,3,stim/63.jpeg,Instruments,2,stim/objects/Instruments/musicstand.png,0.5,1,-0.2,0.15,right,72,2020-12-11_17h10.52.898,premup-three_ses-01_part-01_label-phase1,3.2.4,MacIntel,60,right,1.058000088,4,0,4,0,1,3,1,0,240,66,1,239,,,,,,,,,,,,,,,,,,
,,1,91,,,,,,,3,3,3,stim/33.jpeg,Instruments,2,stim/objects/Instruments/musicstand2.png,0.9,2,0.2,0.15,right,72,2020-12-11_17h10.52.898,premup-three_ses-01_part-01_label-phase1,3.2.4,MacIntel,60,right,1.316999912,4,0,4,0,1,3,1,0,240,166,1,239,,,,,,,,,,,,,,,,,,
,,0,92,,,,,,,1,5,2,stim/52.jpeg,Instruments,2,stim/objects/Instruments/laud.png,0.5,3,-0.2,-0.15,right,72,2020-12-11_17h10.52.898,premup-three_ses-01_part-01_label-phase1,3.2.4,MacIntel,60,left,0.723999977,4,0,4,0,1,3,1,0,240,25,1,239,,,,,,,,,,,,,,,,,,
,,1,93,,,,,,,1,6,2,stim/62.jpeg,Instruments,2,stim/objects/Instruments/musicsheet.png,0.5,4,0.2,-0.15,right,72,2020-12-11_17h10.52.898,premup-three_ses-01_part-01_label-phase1,3.2.4,MacIntel,60,right,1.32799983,4,0,4,0,1,3,1,0,240,61,1,239,,,,,,,,,,,,,,,,,,
,,1,94,,,,,,,2,1,3,stim/13.jpeg,Instruments,2,stim/objects/Instruments/record.png,0.7,1,-0.2,0.15,right,72,2020-12-11_17h10.52.898,premup-three_ses-01_part-01_label-phase1,3.2.4,MacIntel,60,right,0.92599988,4,0,4,0,1,3,1,0,240,118,1,239,,,,,,,,,,,,,,,,,,
,,0,95,,,,,,,2,1,2,stim/12.jpeg,HouseObjects,1,stim/objects/HouseObjects/remote.png,0.3,1,-0.2,0.15,left,72,2020-12-11_17h10.52.898,premup-three_ses-01_part-01_label-phase1,3.2.4,MacIntel,60,right,0.736999989,4,0,4,0,1,3,1,0,240,89,1,239,,,,,,,,,,,,,,,,,,
,,1,96,,,,,,,2,2,1,stim/21.jpeg,HouseObjects,1,stim/objects/HouseObjects/iron2.png,0.7,1,-0.2,0.15,left,72,2020-12-11_17h10.52.898,premup-three_ses-01_part-01_label-phase1,3.2.4,MacIntel,60,left,0.528999805,4,0,4,0,1,3,1,0,240,120,1,239,,,,,,,,,,,,,,,,,,
,,1,97,,,,,,,2,2,3,stim/23.jpeg,HouseObjects,1,stim/objects/HouseObjects/key2.png,0.7,3,-0.2,-0.15,left,72,2020-12-11_17h10.52.898,premup-three_ses-01_part-01_label-phase1,3.2.4,MacIntel,60,left,0.650000095,4,0,4,0,1,3,1,0,240,142,1,239,,,,,,,,,,,,,,,,,,
,,1,98,,,,,,,3,4,2,stim/42.jpeg,HouseObjects,1,stim/objects/HouseObjects/remote2.png,0.9,1,-0.2,0.15,left,72,2020-12-11_17h10.52.898,premup-three_ses-01_part-01_label-phase1,3.2.4,MacIntel,60,left,0.541000128,4,0,4,0,1,3,1,0,240,233,1,239,,,,,,,,,,,,,,,,,,
,,1,99,,,,,,,2,2,4,stim/24.jpeg,HouseObjects,1,stim/objects/HouseObjects/knife2.png,0.7,3,-0.2,-0.15,left,72,2020-12-11_17h10.52.898,premup-three_ses-01_part-01_label-phase1,3.2.4,MacIntel,60,left,0.448999882,4,0,4,0,1,3,1,0,240,139,1,239,,,,,,,,,,,,,,,,,,
,,0,100,,,,,,,1,5,4,stim/54.jpeg,HouseObjects,1,stim/objects/HouseObjects/knife.png,0.5,4,0.2,-0.15,left,72,2020-12-11_17h10.52.898,premup-three_ses-01_part-01_label-phase1,3.2.4,MacIntel,60,right,1.005999804,4,0,4,0,1,3,1,0,240,19,1,239,,,,,,,,,,,,,,,,,,
,,1,101,,,,,,,3,3,2,stim/32.jpeg,Instruments,2,stim/objects/Instruments/musicsheet2.png,0.9,4,0.2,-0.15,right,72,2020-12-11_17h10.52.898,premup-three_ses-01_part-01_label-phase1,3.2.4,MacIntel,60,right,0.916999817,4,0,4,0,1,3,1,0,240,189,1,239,,,,,,,,,,,,,,,,,,
,,1,102,,,,,,,3,4,3,stim/43.jpeg,HouseObjects,1,stim/objects/HouseObjects/rubbergloves2.png,0.9,1,-0.2,0.15,left,72,2020-12-11_17h10.52.898,premup-three_ses-01_part-01_label-phase1,3.2.4,MacIntel,60,left,0.73699975,4,0,4,0,1,3,1,0,240,234,1,239,,,,,,,,,,,,,,,,,,
,,1,103,,,,,,,3,4,3,stim/43.jpeg,HouseObjects,1,stim/objects/HouseObjects/rubbergloves2.png,0.9,4,0.2,-0.15,left,72,2020-12-11_17h10.52.898,premup-three_ses-01_part-01_label-phase1,3.2.4,MacIntel,60,left,0.763999939,4,0,4,0,1,3,1,0,240,222,1,239,,,,,,,,,,,,,,,,,,
,,0,104,,,,,,,3,3,2,stim/32.jpeg,Instruments,2,stim/objects/Instruments/musicsheet2.png,0.9,4,0.2,-0.15,right,72,2020-12-11_17h10.52.898,premup-three_ses-01_part-01_label-phase1,3.2.4,MacIntel,60,left,1.779999971,4,0,4,0,1,3,1,0,240,173,1,239,,,,,,,,,,,,,,,,,,
,,1,105,,,,,,,1,6,4,stim/64.jpeg,Instruments,2,stim/objects/Instruments/oboe.png,0.5,3,-0.2,-0.15,right,72,2020-12-11_17h10.52.898,premup-three_ses-01_part-01_label-phase1,3.2.4,MacIntel,60,right,0.66899991,4,0,4,0,1,3,1,0,240,79,1,239,,,,,,,,,,,,,,,,,,
,,1,106,,,,,,,3,4,3,stim/43.jpeg,HouseObjects,1,stim/objects/HouseObjects/rubbergloves2.png,0.9,3,-0.2,-0.15,left,72,2020-12-11_17h10.52.898,premup-three_ses-01_part-01_label-phase1,3.2.4,MacIntel,60,left,0.667999983,4,0,4,0,1,3,1,0,240,230,1,239,,,,,,,,,,,,,,,,,,
,,1,107,,,,,,,2,1,4,stim/14.jpeg,Instruments,2,stim/objects/Instruments/record_player.png,0.7,3,-0.2,-0.15,right,72,2020-12-11_17h10.52.898,premup-three_ses-01_part-01_label-phase1,3.2.4,MacIntel,60,right,1.52699995,4,0,4,0,1,3,1,0,240,111,1,239,,,,,,,,,,,,,,,,,,
,,1,108,,,,,,,2,2,3,stim/23.jpeg,HouseObjects,1,stim/objects/HouseObjects/key2.png,0.7,1,-0.2,0.15,left,72,2020-12-11_17h10.52.898,premup-three_ses-01_part-01_label-phase1,3.2.4,MacIntel,60,left,0.746000051,4,0,4,0,1,3,1,0,240,126,1,239,,,,,,,,,,,,,,,,,,
,,0,109,,,,,,,3,3,2,stim/32.jpeg,HouseObjects,1,stim/objects/HouseObjects/match2.png,0.1,4,0.2,-0.15,left,72,2020-12-11_17h10.52.898,premup-three_ses-01_part-01_label-phase1,3.2.4,MacIntel,60,right,1.029999971,4,0,4,0,1,3,1,0,240,161,1,239,,,,,,,,,,,,,,,,,,
,,1,110,,,,,,,2,2,2,stim/22.jpeg,HouseObjects,1,stim/objects/HouseObjects/ironingboard2.png,0.7,4,0.2,-0.15,left,72,2020-12-11_17h10.52.898,premup-three_ses-01_part-01_label-phase1,3.2.4,MacIntel,60,left,0.753999949,4,0,4,0,1,3,1,0,240,125,1,239,,,,,,,,,,,,,,,,,,
,,1,111,,,,,,,2,2,2,stim/22.jpeg,HouseObjects,1,stim/objects/HouseObjects/ironingboard2.png,0.7,1,-0.2,0.15,left,72,2020-12-11_17h10.52.898,premup-three_ses-01_part-01_label-phase1,3.2.4,MacIntel,60,left,0.707999945,4,0,4,0,1,3,1,0,240,133,1,239,,,,,,,,,,,,,,,,,,
,,1,112,,,,,,,1,6,1,stim/61.jpeg,Instruments,2,stim/objects/Instruments/metronome.png,0.5,2,0.2,0.15,right,72,2020-12-11_17h10.52.898,premup-three_ses-01_part-01_label-phase1,3.2.4,MacIntel,60,right,1.402999878,4,0,4,0,1,3,1,0,240,64,1,239,,,,,,,,,,,,,,,,,,
,,1,113,,,,,,,3,3,4,stim/34.jpeg,Instruments,2,stim/objects/Instruments/oboe2.png,0.9,4,0.2,-0.15,right,72,2020-12-11_17h10.52.898,premup-three_ses-01_part-01_label-phase1,3.2.4,MacIntel,60,right,1.075999975,4,0,4,0,1,3,1,0,240,179,1,239,,,,,,,,,,,,,,,,,,
,,1,114,,,,,,,1,6,3,stim/63.jpeg,Instruments,2,stim/objects/Instruments/musicstand.png,0.5,3,-0.2,-0.15,right,72,2020-12-11_17h10.52.898,premup-three_ses-01_part-01_label-phase1,3.2.4,MacIntel,60,right,0.855000019,4,0,4,0,1,3,1,0,240,70,1,239,,,,,,,,,,,,,,,,,,
,,1,115,,,,,,,1,5,1,stim/51.jpeg,Instruments,2,stim/objects/Instruments/keyboard.png,0.5,4,0.2,-0.15,right,72,2020-12-11_17h10.52.898,premup-three_ses-01_part-01_label-phase1,3.2.4,MacIntel,60,right,0.903000116,4,0,4,0,1,3,1,0,240,28,1,239,,,,,,,,,,,,,,,,,,
,,1,116,,,,,,,2,2,3,stim/23.jpeg,HouseObjects,1,stim/objects/HouseObjects/key2.png,0.7,2,0.2,0.15,left,72,2020-12-11_17h10.52.898,premup-three_ses-01_part-01_label-phase1,3.2.4,MacIntel,60,left,0.663999796,4,0,4,0,1,3,1,0,240,134,1,239,,,,,,,,,,,,,,,,,,
,,1,117,,,,,,,3,4,4,stim/44.jpeg,HouseObjects,1,stim/objects/HouseObjects/rug2.png,0.9,2,0.2,0.15,left,72,2020-12-11_17h10.52.898,premup-three_ses-01_part-01_label-phase1,3.2.4,MacIntel,60,left,0.614999771,4,0,4,0,1,3,1,0,240,219,1,239,,,,,,,,,,,,,,,,,,
,,0,118,,,,,,,1,5,2,stim/52.jpeg,HouseObjects,1,stim/objects/HouseObjects/ironingboard.png,0.5,3,-0.2,-0.15,left,72,2020-12-11_17h10.52.898,premup-three_ses-01_part-01_label-phase1,3.2.4,MacIntel,60,right,0.891000032,4,0,4,0,1,3,1,0,240,5,1,239,,,,,,,,,,,,,,,,,,
,,0,119,,,,,,,2,1,2,stim/12.jpeg,HouseObjects,1,stim/objects/HouseObjects/remote.png,0.3,2,0.2,0.15,left,72,2020-12-11_17h10.52.898,premup-three_ses-01_part-01_label-phase1,3.2.4,MacIntel,60,right,1.189999819,4,0,4,0,1,3,1,0,240,85,1,239,,,,,,,,,,,,,,,,,,
,,1,120,,,,,,,1,6,1,stim/61.jpeg,Instruments,2,stim/objects/Instruments/metronome.png,0.5,3,-0.2,-0.15,right,72,2020-12-11_17h10.52.898,premup-three_ses-01_part-01_label-phase1,3.2.4,MacIntel,60,right,0.799000025,4,0,4,0,1,3,1,0,240,68,1,239,,,,,,,,,,,,,,,,,,
,,1,121,,,,,,,1,5,3,stim/53.jpeg,Instruments,2,stim/objects/Instruments/maraca.png,0.5,2,0.2,0.15,right,72,2020-12-11_17h10.52.898,premup-three_ses-01_part-01_label-phase1,3.2.4,MacIntel,60,right,1.070999861,4,0,4,0,1,3,1,0,240,26,1,239,,,,,,,,,,,,,,,,,,
,,1,122,,,,,,,2,2,4,stim/24.jpeg,HouseObjects,1,stim/objects/HouseObjects/knife2.png,0.7,2,0.2,0.15,left,72,2020-12-11_17h10.52.898,premup-three_ses-01_part-01_label-phase1,3.2.4,MacIntel,60,left,0.777999878,4,0,4,0,1,3,1,0,240,131,1,239,,,,,,,,,,,,,,,,,,
,,0,123,,,,,,,3,3,1,stim/31.jpeg,HouseObjects,1,stim/objects/HouseObjects/lintroller2.png,0.1,4,0.2,-0.15,left,72,2020-12-11_17h10.52.898,premup-three_ses-01_part-01_label-phase1,3.2.4,MacIntel,60,right,0.744999886,4,0,4,0,1,3,1,0,240,160,1,239,,,,,,,,,,,,,,,,,,
,,1,124,,,,,,,1,5,1,stim/51.jpeg,Instruments,2,stim/objects/Instruments/keyboard.png,0.5,1,-0.2,0.15,right,72,2020-12-11_17h10.52.898,premup-three_ses-01_part-01_label-phase1,3.2.4,MacIntel,60,right,1.18599987,4,0,4,0,1,3,1,0,240,24,1,239,,,,,,,,,,,,,,,,,,
,,1,125,,,,,,,3,3,1,stim/31.jpeg,Instruments,2,stim/objects/Instruments/metronome2.png,0.9,1,-0.2,0.15,right,72,2020-12-11_17h10.52.898,premup-three_ses-01_part-01_label-phase1,3.2.4,MacIntel,60,right,1.338000059,4,0,4,0,1,3,1,0,240,164,1,239,,,,,,,,,,,,,,,,,,
,,1,126,,,,,,,3,3,2,stim/32.jpeg,Instruments,2,stim/objects/Instruments/musicsheet2.png,0.9,3,-0.2,-0.15,right,72,2020-12-11_17h10.52.898,premup-three_ses-01_part-01_label-phase1,3.2.4,MacIntel,60,right,0.720999956,4,0,4,0,1,3,1,0,240,169,1,239,,,,,,,,,,,,,,,,,,
,,1,127,,,,,,,3,3,2,stim/32.jpeg,Instruments,2,stim/objects/Instruments/musicsheet2.png,0.9,1,-0.2,0.15,right,72,2020-12-11_17h10.52.898,premup-three_ses-01_part-01_label-phase1,3.2.4,MacIntel,60,right,1.32799983,4,0,4,0,1,3,1,0,240,185,1,239,,,,,,,,,,,,,,,,,,
,,0,128,,,,,,,1,6,1,stim/61.jpeg,HouseObjects,1,stim/objects/HouseObjects/lintroller.png,0.5,2,0.2,0.15,left,72,2020-12-11_17h10.52.898,premup-three_ses-01_part-01_label-phase1,3.2.4,MacIntel,60,,,4,0,4,0,1,3,1,0,240,48,1,239,,,,,,,,,,,,,,,,,,
,,1,129,,,,,,,2,1,4,stim/14.jpeg,Instruments,2,stim/objects/Instruments/record_player.png,0.7,4,0.2,-0.15,right,72,2020-12-11_17h10.52.898,premup-three_ses-01_part-01_label-phase1,3.2.4,MacIntel,60,right,1.650999784,4,0,4,0,1,3,1,0,240,119,1,239,,,,,,,,,,,,,,,,,,
,,1,130,,,,,,,2,1,3,stim/13.jpeg,Instruments,2,stim/objects/Instruments/record.png,0.7,4,0.2,-0.15,right,72,2020-12-11_17h10.52.898,premup-three_ses-01_part-01_label-phase1,3.2.4,MacIntel,60,right,0.661999941,4,0,4,0,1,3,1,0,240,114,1,239,,,,,,,,,,,,,,,,,,
