id_acc,key_resp_id.keys,key_resp_id.rt,key_resp_conf.keys,key_resp_conf.rt,assoc_acc,key_resp_assoc.keys,key_resp_assoc.rt,loc_acc,key_resp_loc.keys,key_resp_loc.rt,task_innerloop.thisRepN,task_innerloop.thisTrialN,task_innerloop.thisN,task_innerloop.thisIndex,task_innerloop.ran,task_innerloop.order,context_type,object_cat,PE_level,OvsN,obj_file,scn_file,corr_scn_cat,assoc_file,corr_scn_inst,corr_loc,participant,date,expName,psychopyVersion,OS,frameRate
1,right,1.605000019,3,3.473999977,0,4,7.342000008,0,4,4.250999928,1,0,200,74,1,199,3,2,0.9,1,stim/objects/Instruments/grandpiano2.png,stim/33.jpeg,3,stim/3.png,3,2,72,2020-12-13_14h23.34.591,premup-three_ses-02_part-03_label-phase3,3.2.4,MacIntel,60
1,left,2.971999884,,,0,,,0,,,1,0,200,154,1,199,0,2,0,2,stim/objects/Instruments/saxophone3.png,,0,stim/0.png,0,0,72,2020-12-13_14h23.34.591,premup-three_ses-02_part-03_label-phase3,3.2.4,MacIntel,60
1,right,3.932999849,2,2.440999985,0,2,1.347000122,0,4,2.260999918,1,0,200,70,1,199,3,2,0.9,1,stim/objects/Instruments/flute2.png,stim/33.jpeg,3,stim/3.png,3,4,72,2020-12-13_14h23.34.591,premup-three_ses-02_part-03_label-phase3,3.2.4,MacIntel,60
1,right,1.674000025,,,0,,,0,,,1,0,200,162,1,199,0,1,0,2,stim/objects/HouseObjects/towel3.png,,0,stim/0.png,0,0,72,2020-12-13_14h23.34.591,premup-three_ses-02_part-03_label-phase3,3.2.4,MacIntel,60
1,right,1.315999746,2,5.608999968,0,1,2.080000162,0,3,1.457999945,1,0,200,90,1,199,3,2,0.1,1,stim/objects/Instruments/speaker2.png,stim/43.jpeg,4,stim/4.png,3,1,72,2020-12-13_14h23.34.591,premup-three_ses-02_part-03_label-phase3,3.2.4,MacIntel,60
1,right,1.666000128,,,0,,,0,,,1,0,200,131,1,199,0,2,0,2,stim/objects/Instruments/doublebass3.png,,0,stim/0.png,0,0,72,2020-12-13_14h23.34.591,premup-three_ses-02_part-03_label-phase3,3.2.4,MacIntel,60
1,right,1.120000124,,,0,,,0,,,1,0,200,168,1,199,0,1,0,2,stim/objects/HouseObjects/basket4.png,,0,stim/0.png,0,0,72,2020-12-13_14h23.34.591,premup-three_ses-02_part-03_label-phase3,3.2.4,MacIntel,60
1,right,1.437999964,2,1.57799983,0,3,3.627000093,0,2,2.35199976,1,0,200,15,1,199,1,2,0.5,1,stim/objects/Instruments/speaker.png,stim/64.jpeg,6,stim/6.png,4,1,72,2020-12-13_14h23.34.591,premup-three_ses-02_part-03_label-phase3,3.2.4,MacIntel,60
1,left,1.454999924,3,2.28399992,0,4,7.021999836,0,2,2.888999939,1,0,200,9,1,199,1,1,0.5,1,stim/objects/Instruments/saxophone.png,stim/52.jpeg,5,stim/5.png,2,2,72,2020-12-13_14h23.34.591,premup-three_ses-02_part-03_label-phase3,3.2.4,MacIntel,60
1,right,2.394000053,,,0,,,0,,,1,0,200,161,1,199,0,1,0,2,stim/objects/HouseObjects/thread3.png,,0,stim/0.png,0,0,72,2020-12-13_14h23.34.591,premup-three_ses-02_part-03_label-phase3,3.2.4,MacIntel,60
1,right,1.230999947,,,0,,,0,,,1,0,200,110,1,199,0,2,0,2,stim/objects/Instruments/accordion3.png,,0,stim/0.png,0,0,72,2020-12-13_14h23.34.591,premup-three_ses-02_part-03_label-phase3,3.2.4,MacIntel,60
1,right,1.332999945,2,1.00999999,0,3,1.904000044,0,4,1.35800004,1,0,200,25,1,199,2,1,0.3,1,stim/objects/HouseObjects/ashtray2.png,stim/12.jpeg,1,stim/1.png,2,2,72,2020-12-13_14h23.34.591,premup-three_ses-02_part-03_label-phase3,3.2.4,MacIntel,60
1,left,3.697999954,3,1.478999853,0,1,1.934999943,0,3,1.546999931,1,0,200,49,1,199,2,1,0.7,1,stim/objects/HouseObjects/dishsoap2.png,stim/21.jpeg,2,stim/2.png,1,4,72,2020-12-13_14h23.34.591,premup-three_ses-02_part-03_label-phase3,3.2.4,MacIntel,60
1,right,1.157999992,2,2.494999886,0,3,1.089999914,0,4,1.145999908,1,0,200,69,1,199,3,1,0.1,1,stim/objects/HouseObjects/safetypin2.png,stim/32.jpeg,3,stim/3.png,2,1,72,2020-12-13_14h23.34.591,premup-three_ses-02_part-03_label-phase3,3.2.4,MacIntel,60
1,left,1.427000046,,,0,,,0,,,1,0,200,193,1,199,0,2,0,2,stim/objects/Instruments/clarinet4.png,,0,stim/0.png,0,0,72,2020-12-13_14h23.34.591,premup-three_ses-02_part-03_label-phase3,3.2.4,MacIntel,60
1,right,1.017999887,,,0,,,0,,,1,0,200,104,1,199,0,1,0,2,stim/objects/HouseObjects/bleachbottle3.png,,0,stim/0.png,0,0,72,2020-12-13_14h23.34.591,premup-three_ses-02_part-03_label-phase3,3.2.4,MacIntel,60
1,left,1.882999897,,,0,,,0,,,1,0,200,143,1,199,0,1,0,2,stim/objects/HouseObjects/handvacuum3.png,,0,stim/0.png,0,0,72,2020-12-13_14h23.34.591,premup-three_ses-02_part-03_label-phase3,3.2.4,MacIntel,60
1,right,1.919999838,,,0,,,0,,,1,0,200,169,1,199,0,1,0,2,stim/objects/HouseObjects/bleachbottle4.png,,0,stim/0.png,0,0,72,2020-12-13_14h23.34.591,premup-three_ses-02_part-03_label-phase3,3.2.4,MacIntel,60
1,left,7.081999779,,,0,,,0,,,1,0,200,139,1,199,0,2,0,2,stim/objects/Instruments/grandpiano3.png,,0,stim/0.png,0,0,72,2020-12-13_14h23.34.591,premup-three_ses-02_part-03_label-phase3,3.2.4,MacIntel,60
1,left,1.553999901,3,1.510999918,0,2,2.701999903,0,3,1.016000032,1,0,200,20,1,199,2,1,0.3,1,stim/objects/HouseObjects/thermometer.png,stim/11.jpeg,1,stim/1.png,1,1,72,2020-12-13_14h23.34.591,premup-three_ses-02_part-03_label-phase3,3.2.4,MacIntel,60
1,right,0.974999905,,,0,,,0,,,1,0,200,124,1,199,0,1,0,2,stim/objects/HouseObjects/dishsoap3.png,,0,stim/0.png,0,0,72,2020-12-13_14h23.34.591,premup-three_ses-02_part-03_label-phase3,3.2.4,MacIntel,60
1,right,0.980999947,,,0,,,0,,,1,0,200,119,1,199,0,2,0,2,stim/objects/Instruments/cornet3.png,,0,stim/0.png,0,0,72,2020-12-13_14h23.34.591,premup-three_ses-02_part-03_label-phase3,3.2.4,MacIntel,60
1,left,1.921000004,2,3.303999901,0,2,0.939999819,0,3,2.329999924,1,0,200,94,1,199,3,2,0.1,1,stim/objects/Instruments/trombone2.png,stim/43.jpeg,4,stim/4.png,3,4,72,2020-12-13_14h23.34.591,premup-three_ses-02_part-03_label-phase3,3.2.4,MacIntel,60
1,right,1.428999901,2,1.232999802,0,2,0.86500001,0,4,2.199999809,1,0,200,6,1,199,1,1,0.5,1,stim/objects/Instruments/harmonica.png,stim/53.jpeg,5,stim/5.png,3,3,72,2020-12-13_14h23.34.591,premup-three_ses-02_part-03_label-phase3,3.2.4,MacIntel,60
1,left,1.11899972,,,0,,,0,,,1,0,200,164,1,199,0,1,0,2,stim/objects/HouseObjects/wateringcan3.png,,0,stim/0.png,0,0,72,2020-12-13_14h23.34.591,premup-three_ses-02_part-03_label-phase3,3.2.4,MacIntel,60
1,left,1.357000113,,,0,,,0,,,1,0,200,171,1,199,0,2,0,2,stim/objects/Instruments/tuba3.png,,0,stim/0.png,0,0,72,2020-12-13_14h23.34.591,premup-three_ses-02_part-03_label-phase3,3.2.4,MacIntel,60
1,right,1.701999903,2,0.964999914,0,2,0.983999968,0,3,1.664999723,1,0,200,27,1,199,2,1,0.3,1,stim/objects/HouseObjects/barbecuelighter2.png,stim/14.jpeg,1,stim/1.png,4,3,72,2020-12-13_14h23.34.591,premup-three_ses-02_part-03_label-phase3,3.2.4,MacIntel,60
1,right,0.898999929,2,0.965999842,0,1,3.206999779,0,3,1.296999931,1,0,200,13,1,199,1,2,0.5,1,stim/objects/HouseObjects/spraybottle.png,stim/64.jpeg,6,stim/6.png,4,3,72,2020-12-13_14h23.34.591,premup-three_ses-02_part-03_label-phase3,3.2.4,MacIntel,60
1,right,1.651000023,,,0,,,0,,,1,0,200,187,1,199,0,1,0,2,stim/objects/HouseObjects/coffee4.png,,0,stim/0.png,0,0,72,2020-12-13_14h23.34.591,premup-three_ses-02_part-03_label-phase3,3.2.4,MacIntel,60
1,right,1.616999865,,,0,,,0,,,1,0,200,145,1,199,0,1,0,2,stim/objects/HouseObjects/saw3.png,,0,stim/0.png,0,0,72,2020-12-13_14h23.34.591,premup-three_ses-02_part-03_label-phase3,3.2.4,MacIntel,60
1,left,2.282999992,,,0,,,0,,,1,0,200,180,1,199,0,1,0,2,stim/objects/HouseObjects/blender4.png,,0,stim/0.png,0,0,72,2020-12-13_14h23.34.591,premup-three_ses-02_part-03_label-phase3,3.2.4,MacIntel,60
1,left,3.934999943,,,0,,,0,,,1,0,200,159,1,199,0,2,0,2,stim/objects/Instruments/trombone3.png,,0,stim/0.png,0,0,72,2020-12-13_14h23.34.591,premup-three_ses-02_part-03_label-phase3,3.2.4,MacIntel,60
1,right,3.945999861,2,1.061999798,0,3,0.787999868,0,3,2.22699976,1,0,200,58,1,199,2,2,0.3,1,stim/objects/Instruments/electricdrumset2.png,stim/22.jpeg,2,stim/2.png,2,2,72,2020-12-13_14h23.34.591,premup-three_ses-02_part-03_label-phase3,3.2.4,MacIntel,60
1,right,1.224999905,2,1.098999739,0,3,1.970999956,0,3,1.100999832,1,0,200,44,1,199,2,1,0.7,1,stim/objects/HouseObjects/clock2.png,stim/24.jpeg,2,stim/2.png,4,3,72,2020-12-13_14h23.34.591,premup-three_ses-02_part-03_label-phase3,3.2.4,MacIntel,60
1,left,1.796000004,1,2.161999941,0,1,0.769000053,0,4,2.338000059,1,0,200,98,1,199,3,2,0.1,1,stim/objects/Instruments/vuvuzela2.png,stim/43.jpeg,4,stim/4.png,3,3,72,2020-12-13_14h23.34.591,premup-three_ses-02_part-03_label-phase3,3.2.4,MacIntel,60
1,right,1.576999903,,,0,,,0,,,1,0,200,138,1,199,0,2,0,2,stim/objects/Instruments/gong3.png,,0,stim/0.png,0,0,72,2020-12-13_14h23.34.591,premup-three_ses-02_part-03_label-phase3,3.2.4,MacIntel,60
1,right,1.182999849,,,0,,,0,,,1,0,200,160,1,199,0,1,0,2,stim/objects/HouseObjects/thermometer3.png,,0,stim/0.png,0,0,72,2020-12-13_14h23.34.591,premup-three_ses-02_part-03_label-phase3,3.2.4,MacIntel,60
1,right,1.086999893,2,1.013999939,0,2,0.773000002,0,3,0.930999994,1,0,200,81,1,199,3,1,0.9,1,stim/objects/HouseObjects/scale2.png,stim/42.jpeg,4,stim/4.png,2,4,72,2020-12-13_14h23.34.591,premup-three_ses-02_part-03_label-phase3,3.2.4,MacIntel,60
1,left,2.286000013,2,3.990999937,0,2,0.91899991,0,4,1.693000078,1,0,200,16,1,199,1,2,0.5,1,stim/objects/Instruments/tambourine.png,stim/61.jpeg,6,stim/6.png,1,2,72,2020-12-13_14h23.34.591,premup-three_ses-02_part-03_label-phase3,3.2.4,MacIntel,60
1,left,1.987999916,,,0,,,0,,,1,0,200,190,1,199,0,2,0,2,stim/objects/Instruments/bassguitar4.png,,0,stim/0.png,0,0,72,2020-12-13_14h23.34.591,premup-three_ses-02_part-03_label-phase3,3.2.4,MacIntel,60
1,right,1.815999985,2,0.875999928,0,2,1.876999855,0,3,1.836999893,1,0,200,73,1,199,3,2,0.9,1,stim/objects/Instruments/gong2.png,stim/32.jpeg,3,stim/3.png,2,2,72,2020-12-13_14h23.34.591,premup-three_ses-02_part-03_label-phase3,3.2.4,MacIntel,60
1,left,1.252999783,,,0,,,0,,,1,0,200,111,1,199,0,2,0,2,stim/objects/Instruments/acousticguitar3.png,,0,stim/0.png,0,0,72,2020-12-13_14h23.34.591,premup-three_ses-02_part-03_label-phase3,3.2.4,MacIntel,60
1,left,3.282999992,2,1.000999928,0,2,0.878999949,0,2,0.140999794,1,0,200,17,1,199,1,2,0.5,1,stim/objects/Instruments/timbal.png,stim/62.jpeg,6,stim/6.png,2,4,72,2020-12-13_14h23.34.591,premup-three_ses-02_part-03_label-phase3,3.2.4,MacIntel,60
1,right,1.417999983,,,0,,,0,,,1,0,200,157,1,199,0,2,0,2,stim/objects/Instruments/timbal3.png,,0,stim/0.png,0,0,72,2020-12-13_14h23.34.591,premup-three_ses-02_part-03_label-phase3,3.2.4,MacIntel,60
1,right,0.947999954,,,0,,,0,,,1,0,200,141,1,199,0,1,0,2,stim/objects/HouseObjects/hairdryer3.png,,0,stim/0.png,0,0,72,2020-12-13_14h23.34.591,premup-three_ses-02_part-03_label-phase3,3.2.4,MacIntel,60
1,right,1.039999962,2,0.797999859,0,2,0.852999926,0,2,1.930999756,1,0,200,61,1,199,3,1,0.1,1,stim/objects/HouseObjects/dustpan2.png,stim/32.jpeg,3,stim/3.png,2,2,72,2020-12-13_14h23.34.591,premup-three_ses-02_part-03_label-phase3,3.2.4,MacIntel,60
1,left,0.997999907,,,0,,,0,,,1,0,200,179,1,199,0,2,0,2,stim/objects/Instruments/bassdrum4.png,,0,stim/0.png,0,0,72,2020-12-13_14h23.34.591,premup-three_ses-02_part-03_label-phase3,3.2.4,MacIntel,60
1,left,1.21600008,2,1.144000053,0,2,0.82400012,0,4,1.759000063,1,0,200,38,1,199,2,2,0.7,1,stim/objects/Instruments/banjo2.png,stim/12.jpeg,1,stim/1.png,2,2,72,2020-12-13_14h23.34.591,premup-three_ses-02_part-03_label-phase3,3.2.4,MacIntel,60
1,right,1.542000055,2,0.957999945,0,3,3.247999907,0,4,2.816999912,1,0,200,23,1,199,2,1,0.3,1,stim/objects/HouseObjects/vacuumcleaner.png,stim/14.jpeg,1,stim/1.png,4,1,72,2020-12-13_14h23.34.591,premup-three_ses-02_part-03_label-phase3,3.2.4,MacIntel,60
1,right,1.149999857,,,0,,,0,,,1,0,200,125,1,199,0,1,0,2,stim/objects/HouseObjects/doormat3.png,,0,stim/0.png,0,0,72,2020-12-13_14h23.34.591,premup-three_ses-02_part-03_label-phase3,3.2.4,MacIntel,60
1,left,1.716999769,2,0.832000017,0,1,1.582999945,0,4,1.254999876,1,0,200,8,1,199,1,1,0.5,1,stim/objects/Instruments/hihat.png,stim/51.jpeg,5,stim/5.png,1,2,72,2020-12-13_14h23.34.591,premup-three_ses-02_part-03_label-phase3,3.2.4,MacIntel,60
1,right,1.888999939,,,0,,,0,,,1,0,200,195,1,199,0,2,0,2,stim/objects/Instruments/cymbal4.png,,0,stim/0.png,0,0,72,2020-12-13_14h23.34.591,premup-three_ses-02_part-03_label-phase3,3.2.4,MacIntel,60
1,left,1.23300004,3,2.579999924,0,4,2.548999786,0,4,2.157999992,1,0,200,33,1,199,2,2,0.7,1,stim/objects/Instruments/vuvuzela.png,stim/11.jpeg,1,stim/1.png,1,2,72,2020-12-13_14h23.34.591,premup-three_ses-02_part-03_label-phase3,3.2.4,MacIntel,60
1,right,3.855000019,,,0,,,0,,,1,0,200,167,1,199,0,1,0,2,stim/objects/HouseObjects/barbecuelighter4.png,,0,stim/0.png,0,0,72,2020-12-13_14h23.34.591,premup-three_ses-02_part-03_label-phase3,3.2.4,MacIntel,60
1,left,1.353999853,3,1.678999901,0,3,1.767999887,0,2,3.241999865,1,0,200,52,1,199,2,2,0.3,1,stim/objects/Instruments/chime2.png,stim/24.jpeg,2,stim/2.png,4,1,72,2020-12-13_14h23.34.591,premup-three_ses-02_part-03_label-phase3,3.2.4,MacIntel,60
1,right,1.371999979,,,0,,,0,,,1,0,200,191,1,199,0,2,0,2,stim/objects/Instruments/cello4.png,,0,stim/0.png,0,0,72,2020-12-13_14h23.34.591,premup-three_ses-02_part-03_label-phase3,3.2.4,MacIntel,60
1,right,1.118999958,,,0,,,0,,,1,0,200,182,1,199,0,1,0,2,stim/objects/HouseObjects/broom4.png,,0,stim/0.png,0,0,72,2020-12-13_14h23.34.591,premup-three_ses-02_part-03_label-phase3,3.2.4,MacIntel,60
1,right,1.246999741,,,0,,,0,,,1,0,200,101,1,199,0,1,0,2,stim/objects/HouseObjects/ballofstring3.png,,0,stim/0.png,0,0,72,2020-12-13_14h23.34.591,premup-three_ses-02_part-03_label-phase3,3.2.4,MacIntel,60
1,right,0.946999788,2,2.400999784,0,2,2.746000051,0,2,1.894000053,1,0,200,41,1,199,2,1,0.7,1,stim/objects/HouseObjects/bottle2.png,stim/21.jpeg,2,stim/2.png,1,1,72,2020-12-13_14h23.34.591,premup-three_ses-02_part-03_label-phase3,3.2.4,MacIntel,60
1,right,1.13499999,2,1.02699995,0,2,1.796999931,0,2,5.244999886,1,0,200,78,1,199,3,2,0.9,1,stim/objects/Instruments/hihat2.png,stim/33.jpeg,3,stim/3.png,3,3,72,2020-12-13_14h23.34.591,premup-three_ses-02_part-03_label-phase3,3.2.4,MacIntel,60
1,right,1.085000038,,,0,,,0,,,1,0,200,146,1,199,0,1,0,2,stim/objects/HouseObjects/scale3.png,,0,stim/0.png,0,0,72,2020-12-13_14h23.34.591,premup-three_ses-02_part-03_label-phase3,3.2.4,MacIntel,60
1,right,1.315000057,2,0.825999975,0,3,3.128999949,0,2,3.025000095,1,0,200,5,1,199,1,1,0.5,1,stim/objects/Instruments/guitarcase.png,stim/52.jpeg,5,stim/5.png,2,3,72,2020-12-13_14h23.34.591,premup-three_ses-02_part-03_label-phase3,3.2.4,MacIntel,60
1,right,3.407999992,,,0,,,0,,,1,0,200,121,1,199,0,1,0,2,stim/objects/HouseObjects/clothespin3.png,,0,stim/0.png,0,0,72,2020-12-13_14h23.34.591,premup-three_ses-02_part-03_label-phase3,3.2.4,MacIntel,60
1,left,1.564999819,3,1.82799983,0,3,5.830999851,0,4,2.02699995,1,0,200,57,1,199,2,2,0.3,1,stim/objects/Instruments/drums2.png,stim/21.jpeg,2,stim/2.png,1,3,72,2020-12-13_14h23.34.591,premup-three_ses-02_part-03_label-phase3,3.2.4,MacIntel,60
1,right,1.657999992,2,1.292000055,0,1,3.772999763,0,4,1.299000025,1,0,200,99,1,199,3,2,0.1,1,stim/objects/Instruments/xylophone2.png,stim/44.jpeg,4,stim/4.png,4,2,72,2020-12-13_14h23.34.591,premup-three_ses-02_part-03_label-phase3,3.2.4,MacIntel,60
1,right,2.177999735,,,0,,,0,,,1,0,200,107,1,199,0,1,0,2,stim/objects/HouseObjects/broom3.png,,0,stim/0.png,0,0,72,2020-12-13_14h23.34.591,premup-three_ses-02_part-03_label-phase3,3.2.4,MacIntel,60
1,left,0.90899992,,,0,,,0,,,1,0,200,177,1,199,0,2,0,2,stim/objects/Instruments/balalaika4.png,,0,stim/0.png,0,0,72,2020-12-13_14h23.34.591,premup-three_ses-02_part-03_label-phase3,3.2.4,MacIntel,60
1,left,2.914999723,2,2.42599988,0,2,0.828999996,0,4,0.914000034,1,0,200,80,1,199,3,1,0.9,1,stim/objects/HouseObjects/saw2.png,stim/41.jpeg,4,stim/4.png,1,3,72,2020-12-13_14h23.34.591,premup-three_ses-02_part-03_label-phase3,3.2.4,MacIntel,60
1,right,1.21999979,,,0,,,0,,,1,0,200,126,1,199,0,1,0,2,stim/objects/HouseObjects/dustpan3.png,,0,stim/0.png,0,0,72,2020-12-13_14h23.34.591,premup-three_ses-02_part-03_label-phase3,3.2.4,MacIntel,60
1,left,0.987999916,3,2.144999981,0,3,1.243000031,0,4,1.964999914,1,0,200,92,1,199,3,2,0.1,1,stim/objects/Instruments/timbal2.png,stim/41.jpeg,4,stim/4.png,1,1,72,2020-12-13_14h23.34.591,premup-three_ses-02_part-03_label-phase3,3.2.4,MacIntel,60
1,right,0.888999939,2,2.116999865,0,1,1.823999882,0,3,1.287999868,1,0,200,12,1,199,1,2,0.5,1,stim/objects/HouseObjects/sponge.png,stim/63.jpeg,6,stim/6.png,3,1,72,2020-12-13_14h23.34.591,premup-three_ses-02_part-03_label-phase3,3.2.4,MacIntel,60
1,right,1.022999763,3,1.549000025,0,4,3.842999935,0,4,0.878000021,1,0,200,75,1,199,3,2,0.9,1,stim/objects/Instruments/guitarcase2.png,stim/34.jpeg,3,stim/3.png,4,4,72,2020-12-13_14h23.34.591,premup-three_ses-02_part-03_label-phase3,3.2.4,MacIntel,60
1,left,1.938999891,,,0,,,0,,,1,0,200,109,1,199,0,1,0,2,stim/objects/HouseObjects/clock3.png,,0,stim/0.png,0,0,72,2020-12-13_14h23.34.591,premup-three_ses-02_part-03_label-phase3,3.2.4,MacIntel,60
1,left,1.139999866,,,0,,,0,,,1,0,200,198,1,199,0,2,0,2,stim/objects/Instruments/electricdrumset4.png,,0,stim/0.png,0,0,72,2020-12-13_14h23.34.591,premup-three_ses-02_part-03_label-phase3,3.2.4,MacIntel,60
1,right,1.052000046,2,4.111999989,0,2,0.829999924,0,4,1.342000008,1,0,200,22,1,199,2,1,0.3,1,stim/objects/HouseObjects/towel.png,stim/13.jpeg,1,stim/1.png,3,1,72,2020-12-13_14h23.34.591,premup-three_ses-02_part-03_label-phase3,3.2.4,MacIntel,60
1,right,2.266000032,,,0,,,0,,,1,0,200,108,1,199,0,1,0,2,stim/objects/HouseObjects/bucket3.png,,0,stim/0.png,0,0,72,2020-12-13_14h23.34.591,premup-three_ses-02_part-03_label-phase3,3.2.4,MacIntel,60
1,right,2.181999922,3,1.467000008,0,2,2.332999945,0,3,1.132999897,1,0,200,85,1,199,3,1,0.9,1,stim/objects/HouseObjects/thermometer2.png,stim/42.jpeg,4,stim/4.png,2,1,72,2020-12-13_14h23.34.591,premup-three_ses-02_part-03_label-phase3,3.2.4,MacIntel,60
1,right,2.371000051,,,0,,,0,,,1,0,200,197,1,199,0,2,0,2,stim/objects/Instruments/drums4.png,,0,stim/0.png,0,0,72,2020-12-13_14h23.34.591,premup-three_ses-02_part-03_label-phase3,3.2.4,MacIntel,60
1,left,1.263999939,2,1.41899991,0,2,0.592000008,0,4,1.247999907,1,0,200,24,1,199,2,1,0.3,1,stim/objects/HouseObjects/wateringcan.png,stim/11.jpeg,1,stim/1.png,1,1,72,2020-12-13_14h23.34.591,premup-three_ses-02_part-03_label-phase3,3.2.4,MacIntel,60
1,right,1.242999792,,,0,,,0,,,1,0,200,185,1,199,0,1,0,2,stim/objects/HouseObjects/clothesdryingrack4.png,,0,stim/0.png,0,0,72,2020-12-13_14h23.34.591,premup-three_ses-02_part-03_label-phase3,3.2.4,MacIntel,60
1,right,1.730000019,2,1.911999702,0,2,0.536999941,0,3,1.010999918,1,0,200,50,1,199,2,2,0.3,1,stim/objects/Instruments/bassguitar2.png,stim/22.jpeg,2,stim/2.png,2,4,72,2020-12-13_14h23.34.591,premup-three_ses-02_part-03_label-phase3,3.2.4,MacIntel,60
1,left,1.519000053,2,1.085000038,0,4,2.132999897,0,2,1.313999891,1,0,200,7,1,199,1,1,0.5,1,stim/objects/Instruments/harp.png,stim/54.jpeg,5,stim/5.png,4,4,72,2020-12-13_14h23.34.591,premup-three_ses-02_part-03_label-phase3,3.2.4,MacIntel,60
1,left,1.426000118,2,0.876999855,0,2,1.915999889,0,1,1.303999901,1,0,200,3,1,199,1,1,0.5,1,stim/objects/HouseObjects/handvacuum.png,stim/52.jpeg,5,stim/5.png,2,4,72,2020-12-13_14h23.34.591,premup-three_ses-02_part-03_label-phase3,3.2.4,MacIntel,60
1,right,1.152999878,,,0,,,0,,,1,0,200,173,1,199,0,2,0,2,stim/objects/Instruments/vuvuzela3.png,,0,stim/0.png,0,0,72,2020-12-13_14h23.34.591,premup-three_ses-02_part-03_label-phase3,3.2.4,MacIntel,60
1,right,1.566999912,2,2.044999838,0,1,0.93599987,0,4,1.230999947,1,0,200,64,1,199,3,1,0.1,1,stim/objects/HouseObjects/glass2.png,stim/31.jpeg,3,stim/3.png,1,1,72,2020-12-13_14h23.34.591,premup-three_ses-02_part-03_label-phase3,3.2.4,MacIntel,60
1,left,1.011999846,,,0,,,0,,,1,0,200,196,1,199,0,2,0,2,stim/objects/Instruments/doublebass4.png,,0,stim/0.png,0,0,72,2020-12-13_14h23.34.591,premup-three_ses-02_part-03_label-phase3,3.2.4,MacIntel,60
1,left,1.597999811,,,0,,,0,,,1,0,200,170,1,199,0,2,0,2,stim/objects/Instruments/trumpet3.png,,0,stim/0.png,0,0,72,2020-12-13_14h23.34.591,premup-three_ses-02_part-03_label-phase3,3.2.4,MacIntel,60
1,left,3.434999943,,,0,,,0,,,1,0,200,151,1,199,0,2,0,2,stim/objects/Instruments/harmonica3.png,,0,stim/0.png,0,0,72,2020-12-13_14h23.34.591,premup-three_ses-02_part-03_label-phase3,3.2.4,MacIntel,60
1,right,1.896999836,,,0,,,0,,,1,0,200,175,1,199,0,2,0,2,stim/objects/Instruments/accordion4.png,,0,stim/0.png,0,0,72,2020-12-13_14h23.34.591,premup-three_ses-02_part-03_label-phase3,3.2.4,MacIntel,60
1,right,1.399999857,,,0,,,0,,,1,0,200,135,1,199,0,2,0,2,stim/objects/Instruments/flute3.png,,0,stim/0.png,0,0,72,2020-12-13_14h23.34.591,premup-three_ses-02_part-03_label-phase3,3.2.4,MacIntel,60
1,right,1.431999922,2,1.059999943,0,2,0.639999866,0,4,1.313999891,1,0,200,60,1,199,3,1,0.1,1,stim/objects/HouseObjects/doormat2.png,stim/31.jpeg,3,stim/3.png,1,1,72,2020-12-13_14h23.34.591,premup-three_ses-02_part-03_label-phase3,3.2.4,MacIntel,60
1,right,2.053999901,2,1.279999971,0,1,1.166999817,0,4,1.34499979,1,0,200,65,1,199,3,1,0.1,1,stim/objects/HouseObjects/glassmop2.png,stim/32.jpeg,3,stim/3.png,2,3,72,2020-12-13_14h23.34.591,premup-three_ses-02_part-03_label-phase3,3.2.4,MacIntel,60
1,right,0.818999767,1,1.482999802,0,2,1.101999998,0,4,0.854999781,1,0,200,14,1,199,1,2,0.5,1,stim/objects/HouseObjects/teapot.png,stim/61.jpeg,6,stim/6.png,1,1,72,2020-12-13_14h23.34.591,premup-three_ses-02_part-03_label-phase3,3.2.4,MacIntel,60
1,right,0.914000034,2,1.118000031,0,4,1.214999914,0,4,1.039999962,1,0,200,88,1,199,3,1,0.9,1,stim/objects/HouseObjects/vacuumcleaner2.png,stim/41.jpeg,4,stim/4.png,1,2,72,2020-12-13_14h23.34.591,premup-three_ses-02_part-03_label-phase3,3.2.4,MacIntel,60
1,left,1.335999727,,,0,,,0,,,1,0,200,133,1,199,0,2,0,2,stim/objects/Instruments/electricdrumset3.png,,0,stim/0.png,0,0,72,2020-12-13_14h23.34.591,premup-three_ses-02_part-03_label-phase3,3.2.4,MacIntel,60
1,right,0.900000095,,,0,,,0,,,1,0,200,148,1,199,0,1,0,2,stim/objects/HouseObjects/spraybottle3.png,,0,stim/0.png,0,0,72,2020-12-13_14h23.34.591,premup-three_ses-02_part-03_label-phase3,3.2.4,MacIntel,60
1,left,1.562000036,,,0,,,0,,,1,0,200,183,1,199,0,1,0,2,stim/objects/HouseObjects/bucket4.png,,0,stim/0.png,0,0,72,2020-12-13_14h23.34.591,premup-three_ses-02_part-03_label-phase3,3.2.4,MacIntel,60
1,right,1.231999874,,,0,,,0,,,1,0,200,106,1,199,0,1,0,2,stim/objects/HouseObjects/bottle3.png,,0,stim/0.png,0,0,72,2020-12-13_14h23.34.591,premup-three_ses-02_part-03_label-phase3,3.2.4,MacIntel,60
1,left,1.01699996,,,0,,,0,,,1,0,200,165,1,199,0,1,0,2,stim/objects/HouseObjects/ashtray4.png,,0,stim/0.png,0,0,72,2020-12-13_14h23.34.591,premup-three_ses-02_part-03_label-phase3,3.2.4,MacIntel,60
1,left,3.472000122,,,0,,,0,,,1,0,200,129,1,199,0,1,0,2,stim/objects/HouseObjects/glass3.png,,0,stim/0.png,0,0,72,2020-12-13_14h23.34.591,premup-three_ses-02_part-03_label-phase3,3.2.4,MacIntel,60
1,right,1.687999964,2,1.194999933,0,2,0.587999821,0,4,1.602999926,1,0,200,66,1,199,3,1,0.1,1,stim/objects/HouseObjects/hairdryer2.png,stim/33.jpeg,3,stim/3.png,3,3,72,2020-12-13_14h23.34.591,premup-three_ses-02_part-03_label-phase3,3.2.4,MacIntel,60
1,right,1.221999884,2,1.978999853,0,2,0.690999985,0,4,1.340999842,1,0,200,63,1,199,3,1,0.1,1,stim/objects/HouseObjects/garbagebin2.png,stim/34.jpeg,3,stim/3.png,4,4,72,2020-12-13_14h23.34.591,premup-three_ses-02_part-03_label-phase3,3.2.4,MacIntel,60
1,left,1.256999731,,,0,,,0,,,1,0,200,156,1,199,0,2,0,2,stim/objects/Instruments/tambourine3.png,,0,stim/0.png,0,0,72,2020-12-13_14h23.34.591,premup-three_ses-02_part-03_label-phase3,3.2.4,MacIntel,60
1,left,0.888000011,,,0,,,0,,,1,0,200,118,1,199,0,2,0,2,stim/objects/Instruments/clarinet3.png,,0,stim/0.png,0,0,72,2020-12-13_14h23.34.591,premup-three_ses-02_part-03_label-phase3,3.2.4,MacIntel,60
1,right,1.135999918,2,0.917000055,0,3,1.019999981,0,4,1.095000029,1,0,200,84,1,199,3,1,0.9,1,stim/objects/HouseObjects/teapot2.png,stim/41.jpeg,4,stim/4.png,1,4,72,2020-12-13_14h23.34.591,premup-three_ses-02_part-03_label-phase3,3.2.4,MacIntel,60
1,right,1.372999907,,,0,,,0,,,1,0,200,128,1,199,0,1,0,2,stim/objects/HouseObjects/garbagebin3.png,,0,stim/0.png,0,0,72,2020-12-13_14h23.34.591,premup-three_ses-02_part-03_label-phase3,3.2.4,MacIntel,60
1,right,1.082999945,,,0,,,0,,,1,0,200,123,1,199,0,1,0,2,stim/objects/HouseObjects/cushion3.png,,0,stim/0.png,0,0,72,2020-12-13_14h23.34.591,premup-three_ses-02_part-03_label-phase3,3.2.4,MacIntel,60
1,left,0.947999954,2,1.062000036,0,2,0.766999722,0,2,1.304999828,1,0,200,43,1,199,2,1,0.7,1,stim/objects/HouseObjects/bucket2.png,stim/23.jpeg,2,stim/2.png,3,3,72,2020-12-13_14h23.34.591,premup-three_ses-02_part-03_label-phase3,3.2.4,MacIntel,60
1,left,1.120999813,2,0.895999908,0,3,2.055000067,0,4,1.254999876,1,0,200,91,1,199,3,2,0.1,1,stim/objects/Instruments/tambourine2.png,stim/44.jpeg,4,stim/4.png,4,4,72,2020-12-13_14h23.34.591,premup-three_ses-02_part-03_label-phase3,3.2.4,MacIntel,60
1,left,1.275000095,2,0.875,0,3,1.41899991,0,4,0.94299984,1,0,200,67,1,199,3,1,0.1,1,stim/objects/HouseObjects/handbrush2.png,stim/34.jpeg,3,stim/3.png,4,3,72,2020-12-13_14h23.34.591,premup-three_ses-02_part-03_label-phase3,3.2.4,MacIntel,60
1,right,1.470999956,2,1.511999846,0,2,0.988999844,0,4,1.467999935,1,0,200,89,1,199,3,1,0.9,1,stim/objects/HouseObjects/wateringcan2.png,stim/42.jpeg,4,stim/4.png,2,4,72,2020-12-13_14h23.34.591,premup-three_ses-02_part-03_label-phase3,3.2.4,MacIntel,60
1,left,1.063999891,,,0,,,0,,,1,0,200,150,1,199,0,2,0,2,stim/objects/Instruments/guitarcase3.png,,0,stim/0.png,0,0,72,2020-12-13_14h23.34.591,premup-three_ses-02_part-03_label-phase3,3.2.4,MacIntel,60
1,left,1.750999928,2,1.044999838,0,3,0.764999866,0,2,2.325999975,1,0,200,2,1,199,1,1,0.5,1,stim/objects/HouseObjects/handbrush.png,stim/51.jpeg,5,stim/5.png,1,1,72,2020-12-13_14h23.34.591,premup-three_ses-02_part-03_label-phase3,3.2.4,MacIntel,60
1,left,3.137999773,2,0.81099987,0,4,2.16899991,0,2,1.290999889,1,0,200,76,1,199,3,2,0.9,1,stim/objects/Instruments/harmonica2.png,stim/31.jpeg,3,stim/3.png,1,1,72,2020-12-13_14h23.34.591,premup-three_ses-02_part-03_label-phase3,3.2.4,MacIntel,60
1,left,1.119999886,3,2.859999895,0,4,1.598999739,0,4,1.440999985,1,0,200,30,1,199,2,2,0.7,1,stim/objects/Instruments/trumpet.png,stim/12.jpeg,1,stim/1.png,2,4,72,2020-12-13_14h23.34.591,premup-three_ses-02_part-03_label-phase3,3.2.4,MacIntel,60
1,left,3.417000055,2,0.910999775,0,2,0.648999929,0,3,1.312999964,1,0,200,55,1,199,2,2,0.3,1,stim/objects/Instruments/cymbal2.png,stim/23.jpeg,2,stim/2.png,3,4,72,2020-12-13_14h23.34.591,premup-three_ses-02_part-03_label-phase3,3.2.4,MacIntel,60
1,right,1.095999956,,,0,,,0,,,1,0,200,199,1,199,0,2,0,2,stim/objects/Instruments/electricguitar4.png,,0,stim/0.png,0,0,72,2020-12-13_14h23.34.591,premup-three_ses-02_part-03_label-phase3,3.2.4,MacIntel,60
1,right,1.135999918,2,2.846999884,0,2,0.597999811,0,2,0.970000029,1,0,200,46,1,199,2,1,0.7,1,stim/objects/HouseObjects/clothespin2.png,stim/22.jpeg,2,stim/2.png,2,3,72,2020-12-13_14h23.34.591,premup-three_ses-02_part-03_label-phase3,3.2.4,MacIntel,60
1,left,2.386999846,3,2.214999914,0,2,1.644999981,0,4,1.50999999,1,0,200,82,1,199,3,1,0.9,1,stim/objects/HouseObjects/sponge2.png,stim/43.jpeg,4,stim/4.png,3,4,72,2020-12-13_14h23.34.591,premup-three_ses-02_part-03_label-phase3,3.2.4,MacIntel,60
1,right,2.319999933,,,0,,,0,,,1,0,200,158,1,199,0,2,0,2,stim/objects/Instruments/triangle3.png,,0,stim/0.png,0,0,72,2020-12-13_14h23.34.591,premup-three_ses-02_part-03_label-phase3,3.2.4,MacIntel,60
1,left,1.096999884,,,0,,,0,,,1,0,200,163,1,199,0,1,0,2,stim/objects/HouseObjects/vacuumcleaner3.png,,0,stim/0.png,0,0,72,2020-12-13_14h23.34.591,premup-three_ses-02_part-03_label-phase3,3.2.4,MacIntel,60
1,right,1.292000055,2,0.761999846,0,2,0.592000008,0,3,0.963999987,1,0,200,51,1,199,2,2,0.3,1,stim/objects/Instruments/cello2.png,stim/23.jpeg,2,stim/2.png,3,3,72,2020-12-13_14h23.34.591,premup-three_ses-02_part-03_label-phase3,3.2.4,MacIntel,60
1,left,1.0849998,2,0.976999998,0,3,0.890999794,0,4,0.921999931,1,0,200,40,1,199,2,1,0.7,1,stim/objects/HouseObjects/blender2.png,stim/24.jpeg,2,stim/2.png,4,3,72,2020-12-13_14h23.34.591,premup-three_ses-02_part-03_label-phase3,3.2.4,MacIntel,60
1,left,2.00999999,2,0.944000006,0,4,1.796999931,0,2,1.414999962,1,0,200,54,1,199,2,2,0.3,1,stim/objects/Instruments/cornet2.png,stim/22.jpeg,2,stim/2.png,2,4,72,2020-12-13_14h23.34.591,premup-three_ses-02_part-03_label-phase3,3.2.4,MacIntel,60
1,left,1.006999969,2,0.948999882,0,3,1.114999771,0,2,0.96600008,1,0,200,10,1,199,1,2,0.5,1,stim/objects/HouseObjects/saw.png,stim/61.jpeg,6,stim/6.png,1,2,72,2020-12-13_14h23.34.591,premup-three_ses-02_part-03_label-phase3,3.2.4,MacIntel,60
1,right,1.601999998,,,0,,,0,,,1,0,200,192,1,199,0,2,0,2,stim/objects/Instruments/chime4.png,,0,stim/0.png,0,0,72,2020-12-13_14h23.34.591,premup-three_ses-02_part-03_label-phase3,3.2.4,MacIntel,60
1,left,1.190999985,,,0,,,0,,,1,0,200,100,1,199,0,1,0,2,stim/objects/HouseObjects/ashtray3.png,,0,stim/0.png,0,0,72,2020-12-13_14h23.34.591,premup-three_ses-02_part-03_label-phase3,3.2.4,MacIntel,60
1,left,1.411000013,,,0,,,0,,,1,0,200,153,1,199,0,2,0,2,stim/objects/Instruments/hihat3.png,,0,stim/0.png,0,0,72,2020-12-13_14h23.34.591,premup-three_ses-02_part-03_label-phase3,3.2.4,MacIntel,60
1,left,1.662999868,,,0,,,0,,,1,0,200,127,1,199,0,1,0,2,stim/objects/HouseObjects/flyswatter3.png,,0,stim/0.png,0,0,72,2020-12-13_14h23.34.591,premup-three_ses-02_part-03_label-phase3,3.2.4,MacIntel,60
1,right,1.728999853,2,0.967000008,0,3,1.09800005,0,4,1.871999979,1,0,200,36,1,199,2,2,0.7,1,stim/objects/Instruments/acousticguitar2.png,stim/14.jpeg,1,stim/1.png,4,4,72,2020-12-13_14h23.34.591,premup-three_ses-02_part-03_label-phase3,3.2.4,MacIntel,60
1,right,1.25,,,0,,,0,,,1,0,200,144,1,199,0,1,0,2,stim/objects/HouseObjects/safetypin3.png,,0,stim/0.png,0,0,72,2020-12-13_14h23.34.591,premup-three_ses-02_part-03_label-phase3,3.2.4,MacIntel,60
1,right,1.177999973,,,0,,,0,,,1,0,200,114,1,199,0,2,0,2,stim/objects/Instruments/bassdrum3.png,,0,stim/0.png,0,0,72,2020-12-13_14h23.34.591,premup-three_ses-02_part-03_label-phase3,3.2.4,MacIntel,60
1,left,1.027999878,2,1.164999962,0,3,0.847999811,0,4,1.092999935,1,0,200,39,1,199,2,2,0.7,1,stim/objects/Instruments/bassdrum2.png,stim/13.jpeg,1,stim/1.png,3,1,72,2020-12-13_14h23.34.591,premup-three_ses-02_part-03_label-phase3,3.2.4,MacIntel,60
1,left,0.889999866,3,2.900999784,0,3,3.103999853,0,2,1.220000029,1,0,200,37,1,199,2,2,0.7,1,stim/objects/Instruments/balalaika2.png,stim/11.jpeg,1,stim/1.png,1,4,72,2020-12-13_14h23.34.591,premup-three_ses-02_part-03_label-phase3,3.2.4,MacIntel,60
1,left,1.585999966,,,0,,,0,,,1,0,200,140,1,199,0,1,0,2,stim/objects/HouseObjects/glassmop3.png,,0,stim/0.png,0,0,72,2020-12-13_14h23.34.591,premup-three_ses-02_part-03_label-phase3,3.2.4,MacIntel,60
1,right,1.069999933,,,0,,,0,,,1,0,200,155,1,199,0,2,0,2,stim/objects/Instruments/speaker3.png,,0,stim/0.png,0,0,72,2020-12-13_14h23.34.591,premup-three_ses-02_part-03_label-phase3,3.2.4,MacIntel,60
1,right,2.417000055,,,0,,,0,,,1,0,200,166,1,199,0,1,0,2,stim/objects/HouseObjects/ballofstring4.png,,0,stim/0.png,0,0,72,2020-12-13_14h23.34.591,premup-three_ses-02_part-03_label-phase3,3.2.4,MacIntel,60
1,right,1.832999945,2,0.714999914,0,2,0.529999971,0,3,1.108999968,1,0,200,29,1,199,2,1,0.3,1,stim/objects/HouseObjects/bleachbottle2.png,stim/12.jpeg,1,stim/1.png,2,4,72,2020-12-13_14h23.34.591,premup-three_ses-02_part-03_label-phase3,3.2.4,MacIntel,60
1,left,1.842999935,3,1.11199975,0,2,1.940999985,0,2,0.987999916,1,0,200,93,1,199,3,2,0.1,1,stim/objects/Instruments/triangle2.png,stim/42.jpeg,4,stim/4.png,2,1,72,2020-12-13_14h23.34.591,premup-three_ses-02_part-03_label-phase3,3.2.4,MacIntel,60
1,right,0.915999889,,,0,,,0,,,1,0,200,122,1,199,0,1,0,2,stim/objects/HouseObjects/coffee3.png,,0,stim/0.png,0,0,72,2020-12-13_14h23.34.591,premup-three_ses-02_part-03_label-phase3,3.2.4,MacIntel,60
1,right,0.717999935,2,0.945999861,0,3,1.05099988,0,4,1.064999819,1,0,200,28,1,199,2,1,0.3,1,stim/objects/HouseObjects/basket2.png,stim/11.jpeg,1,stim/1.png,1,2,72,2020-12-13_14h23.34.591,premup-three_ses-02_part-03_label-phase3,3.2.4,MacIntel,60
1,left,2.40899992,,,0,,,0,,,1,0,200,142,1,199,0,1,0,2,stim/objects/HouseObjects/handbrush3.png,,0,stim/0.png,0,0,72,2020-12-13_14h23.34.591,premup-three_ses-02_part-03_label-phase3,3.2.4,MacIntel,60
1,left,1.123999834,3,1.614000082,0,3,1.470000029,0,2,0.970999956,1,0,200,77,1,199,3,2,0.9,1,stim/objects/Instruments/harp2.png,stim/32.jpeg,3,stim/3.png,2,1,72,2020-12-13_14h23.34.591,premup-three_ses-02_part-03_label-phase3,3.2.4,MacIntel,60
1,right,2.200999975,2,1.049000025,0,3,0.94299984,0,4,1.318999767,1,0,200,96,1,199,3,2,0.1,1,stim/objects/Instruments/tuba2.png,stim/41.jpeg,4,stim/4.png,1,3,72,2020-12-13_14h23.34.591,premup-three_ses-02_part-03_label-phase3,3.2.4,MacIntel,60
1,right,1.019999981,,,0,,,0,,,1,0,200,194,1,199,0,2,0,2,stim/objects/Instruments/cornet4.png,,0,stim/0.png,0,0,72,2020-12-13_14h23.34.591,premup-three_ses-02_part-03_label-phase3,3.2.4,MacIntel,60
1,left,2.099999905,,,0,,,0,,,1,0,200,116,1,199,0,2,0,2,stim/objects/Instruments/cello3.png,,0,stim/0.png,0,0,72,2020-12-13_14h23.34.591,premup-three_ses-02_part-03_label-phase3,3.2.4,MacIntel,60
1,left,0.932999849,2,0.86199975,0,3,0.789999962,0,4,1.40199995,1,0,200,59,1,199,2,2,0.3,1,stim/objects/Instruments/electricguitar2.png,stim/23.jpeg,2,stim/2.png,3,1,72,2020-12-13_14h23.34.591,premup-three_ses-02_part-03_label-phase3,3.2.4,MacIntel,60
1,right,1.187999964,,,0,,,0,,,1,0,200,102,1,199,0,1,0,2,stim/objects/HouseObjects/barbecuelighter3.png,,0,stim/0.png,0,0,72,2020-12-13_14h23.34.591,premup-three_ses-02_part-03_label-phase3,3.2.4,MacIntel,60
1,right,1.18599987,2,1.63499999,0,3,0.799999952,0,4,1.296999931,1,0,200,62,1,199,3,1,0.1,1,stim/objects/HouseObjects/flyswatter2.png,stim/33.jpeg,3,stim/3.png,3,3,72,2020-12-13_14h23.34.591,premup-three_ses-02_part-03_label-phase3,3.2.4,MacIntel,60
1,left,0.922999859,3,1.260999918,0,2,2.451999903,0,4,0.933000088,1,0,200,32,1,199,2,2,0.7,1,stim/objects/Instruments/violin.png,stim/14.jpeg,1,stim/1.png,4,2,72,2020-12-13_14h23.34.591,premup-three_ses-02_part-03_label-phase3,3.2.4,MacIntel,60
1,left,1.338999987,3,1.460999966,0,3,0.996999979,0,4,1.234999895,1,0,200,56,1,199,2,2,0.3,1,stim/objects/Instruments/doublebass2.png,stim/24.jpeg,2,stim/2.png,4,3,72,2020-12-13_14h23.34.591,premup-three_ses-02_part-03_label-phase3,3.2.4,MacIntel,60
1,right,1.121000051,2,1.478999853,0,4,2.950999975,0,4,0.666999817,1,0,200,45,1,199,2,1,0.7,1,stim/objects/HouseObjects/clothesdryingrack2.png,stim/21.jpeg,2,stim/2.png,1,3,72,2020-12-13_14h23.34.591,premup-three_ses-02_part-03_label-phase3,3.2.4,MacIntel,60
1,right,1.039999962,,,0,,,0,,,1,0,200,184,1,199,0,1,0,2,stim/objects/HouseObjects/clock4.png,,0,stim/0.png,0,0,72,2020-12-13_14h23.34.591,premup-three_ses-02_part-03_label-phase3,3.2.4,MacIntel,60
1,right,0.879999876,2,0.930999756,0,2,1.049000025,0,4,1.352999926,1,0,200,21,1,199,2,1,0.3,1,stim/objects/HouseObjects/thread.png,stim/12.jpeg,1,stim/1.png,2,3,72,2020-12-13_14h23.34.591,premup-three_ses-02_part-03_label-phase3,3.2.4,MacIntel,60
1,left,4.549999952,,,0,,,0,,,1,0,200,186,1,199,0,1,0,2,stim/objects/HouseObjects/clothespin4.png,,0,stim/0.png,0,0,72,2020-12-13_14h23.34.591,premup-three_ses-02_part-03_label-phase3,3.2.4,MacIntel,60
1,right,1.248999834,,,0,,,0,,,1,0,200,117,1,199,0,2,0,2,stim/objects/Instruments/chime3.png,,0,stim/0.png,0,0,72,2020-12-13_14h23.34.591,premup-three_ses-02_part-03_label-phase3,3.2.4,MacIntel,60
1,right,2.163999796,,,0,,,0,,,1,0,200,103,1,199,0,1,0,2,stim/objects/HouseObjects/basket3.png,,0,stim/0.png,0,0,72,2020-12-13_14h23.34.591,premup-three_ses-02_part-03_label-phase3,3.2.4,MacIntel,60
1,right,1.319000006,2,0.779999971,0,2,1.30099988,0,3,0.999999762,1,0,200,0,1,199,1,1,0.5,1,stim/objects/HouseObjects/glassmop.png,stim/53.jpeg,5,stim/5.png,3,3,72,2020-12-13_14h23.34.591,premup-three_ses-02_part-03_label-phase3,3.2.4,MacIntel,60
1,right,2.088000059,2,0.815000057,0,4,1.122999907,0,4,1.521000147,1,0,200,4,1,199,1,1,0.5,1,stim/objects/HouseObjects/safetypin.png,stim/53.jpeg,5,stim/5.png,3,3,72,2020-12-13_14h23.34.591,premup-three_ses-02_part-03_label-phase3,3.2.4,MacIntel,60
1,left,0.971999884,,,0,,,0,,,1,0,200,105,1,199,0,1,0,2,stim/objects/HouseObjects/blender3.png,,0,stim/0.png,0,0,72,2020-12-13_14h23.34.591,premup-three_ses-02_part-03_label-phase3,3.2.4,MacIntel,60
1,left,1.566999912,,,0,,,0,,,1,0,200,172,1,199,0,2,0,2,stim/objects/Instruments/violin3.png,,0,stim/0.png,0,0,72,2020-12-13_14h23.34.591,premup-three_ses-02_part-03_label-phase3,3.2.4,MacIntel,60
1,left,1.282999992,2,0.879999876,0,3,0.80099988,0,4,0.802999735,1,0,200,83,1,199,3,1,0.9,1,stim/objects/HouseObjects/spraybottle2.png,stim/44.jpeg,4,stim/4.png,4,1,72,2020-12-13_14h23.34.591,premup-three_ses-02_part-03_label-phase3,3.2.4,MacIntel,60
1,right,0.932999849,2,1.131000042,0,2,1.005999804,0,2,2.443999767,1,0,200,47,1,199,2,1,0.7,1,stim/objects/HouseObjects/coffee2.png,stim/23.jpeg,2,stim/2.png,3,2,72,2020-12-13_14h23.34.591,premup-three_ses-02_part-03_label-phase3,3.2.4,MacIntel,60
1,left,1.236999989,2,0.951999903,0,3,1.054999828,0,4,0.869999886,1,0,200,68,1,199,3,1,0.1,1,stim/objects/HouseObjects/handvacuum2.png,stim/31.jpeg,3,stim/3.png,1,2,72,2020-12-13_14h23.34.591,premup-three_ses-02_part-03_label-phase3,3.2.4,MacIntel,60
1,right,0.849999905,2,2.36500001,0,1,3.521999836,0,4,1.599999905,1,0,200,48,1,199,2,1,0.7,1,stim/objects/HouseObjects/cushion2.png,stim/24.jpeg,2,stim/2.png,4,4,72,2020-12-13_14h23.34.591,premup-three_ses-02_part-03_label-phase3,3.2.4,MacIntel,60
1,right,1.122999907,,,0,,,0,,,1,0,200,120,1,199,0,1,0,2,stim/objects/HouseObjects/clothesdryingrack3.png,,0,stim/0.png,0,0,72,2020-12-13_14h23.34.591,premup-three_ses-02_part-03_label-phase3,3.2.4,MacIntel,60
1,right,0.911999941,2,0.948999882,0,2,0.81799984,0,4,1.051999807,1,0,200,31,1,199,2,2,0.7,1,stim/objects/Instruments/tuba.png,stim/13.jpeg,1,stim/1.png,3,3,72,2020-12-13_14h23.34.591,premup-three_ses-02_part-03_label-phase3,3.2.4,MacIntel,60
1,left,1.088999987,,,0,,,0,,,1,0,200,113,1,199,0,2,0,2,stim/objects/Instruments/banjo3.png,,0,stim/0.png,0,0,72,2020-12-13_14h23.34.591,premup-three_ses-02_part-03_label-phase3,3.2.4,MacIntel,60
1,left,0.883999825,,,0,,,0,,,1,0,200,132,1,199,0,2,0,2,stim/objects/Instruments/drums3.png,,0,stim/0.png,0,0,72,2020-12-13_14h23.34.591,premup-three_ses-02_part-03_label-phase3,3.2.4,MacIntel,60
1,right,0.937000036,,,0,,,0,,,1,0,200,189,1,199,0,1,0,2,stim/objects/HouseObjects/dishsoap4.png,,0,stim/0.png,0,0,72,2020-12-13_14h23.34.591,premup-three_ses-02_part-03_label-phase3,3.2.4,MacIntel,60
1,left,1.422999859,2,0.814999819,0,2,0.602999926,0,4,0.846999884,1,0,200,18,1,199,1,2,0.5,1,stim/objects/Instruments/triangle.png,stim/63.jpeg,6,stim/6.png,3,4,72,2020-12-13_14h23.34.591,premup-three_ses-02_part-03_label-phase3,3.2.4,MacIntel,60
1,right,1.750999928,,,0,,,0,,,1,0,200,147,1,199,0,1,0,2,stim/objects/HouseObjects/sponge3.png,,0,stim/0.png,0,0,72,2020-12-13_14h23.34.591,premup-three_ses-02_part-03_label-phase3,3.2.4,MacIntel,60
1,right,2.467999935,2,0.878000021,0,2,0.844000101,0,4,1.000999928,1,0,200,97,1,199,3,2,0.1,1,stim/objects/Instruments/violin2.png,stim/42.jpeg,4,stim/4.png,2,2,72,2020-12-13_14h23.34.591,premup-three_ses-02_part-03_label-phase3,3.2.4,MacIntel,60
1,right,0.902999878,,,0,,,0,,,1,0,200,115,1,199,0,2,0,2,stim/objects/Instruments/bassguitar3.png,,0,stim/0.png,0,0,72,2020-12-13_14h23.34.591,premup-three_ses-02_part-03_label-phase3,3.2.4,MacIntel,60
1,right,0.950999975,2,0.81099987,0,3,1.981999874,0,4,0.737999916,1,0,200,87,1,199,3,1,0.9,1,stim/objects/HouseObjects/towel2.png,stim/44.jpeg,4,stim/4.png,4,3,72,2020-12-13_14h23.34.591,premup-three_ses-02_part-03_label-phase3,3.2.4,MacIntel,60
1,right,0.85800004,2,0.694999933,0,4,1.603999853,0,2,0.888999939,1,0,200,79,1,199,3,2,0.9,1,stim/objects/Instruments/saxophone2.png,stim/34.jpeg,3,stim/3.png,4,2,72,2020-12-13_14h23.34.591,premup-three_ses-02_part-03_label-phase3,3.2.4,MacIntel,60
1,left,1.133000135,2,0.711999893,0,1,1.868000031,0,4,1.846999884,1,0,200,95,1,199,3,2,0.1,1,stim/objects/Instruments/trumpet2.png,stim/44.jpeg,4,stim/4.png,4,1,72,2020-12-13_14h23.34.591,premup-three_ses-02_part-03_label-phase3,3.2.4,MacIntel,60
1,right,0.92599988,2,0.82799983,0,3,2.072999954,0,4,0.933000088,1,0,200,11,1,199,1,2,0.5,1,stim/objects/HouseObjects/scale.png,stim/62.jpeg,6,stim/6.png,2,2,72,2020-12-13_14h23.34.591,premup-three_ses-02_part-03_label-phase3,3.2.4,MacIntel,60
1,left,1.018999815,2,0.950999975,0,3,1.410000086,0,4,0.948999882,1,0,200,1,1,199,1,1,0.5,1,stim/objects/HouseObjects/hairdryer.png,stim/54.jpeg,5,stim/5.png,4,3,72,2020-12-13_14h23.34.591,premup-three_ses-02_part-03_label-phase3,3.2.4,MacIntel,60
1,right,1.650000095,,,0,,,0,,,1,0,200,137,1,199,0,2,0,2,stim/objects/Instruments/frenchhorn3.png,,0,stim/0.png,0,0,72,2020-12-13_14h23.34.591,premup-three_ses-02_part-03_label-phase3,3.2.4,MacIntel,60
1,right,1.44900012,,,0,,,0,,,1,0,200,130,1,199,0,2,0,2,stim/objects/Instruments/cymbal3.png,,0,stim/0.png,0,0,72,2020-12-13_14h23.34.591,premup-three_ses-02_part-03_label-phase3,3.2.4,MacIntel,60
1,right,1.110999823,2,1.377000093,0,2,0.717999935,0,4,1.137000084,1,0,200,86,1,199,3,1,0.9,1,stim/objects/HouseObjects/thread2.png,stim/43.jpeg,4,stim/4.png,3,3,72,2020-12-13_14h23.34.591,premup-three_ses-02_part-03_label-phase3,3.2.4,MacIntel,60
1,right,1.186999798,2,0.778000116,0,1,2.108999968,0,4,1.371999979,1,0,200,42,1,199,2,1,0.7,1,stim/objects/HouseObjects/broom2.png,stim/22.jpeg,2,stim/2.png,2,4,72,2020-12-13_14h23.34.591,premup-three_ses-02_part-03_label-phase3,3.2.4,MacIntel,60
1,right,1.433000088,2,1.919999838,0,2,2.601000071,0,4,0.934000015,1,0,200,35,1,199,2,2,0.7,1,stim/objects/Instruments/accordion2.png,stim/13.jpeg,1,stim/1.png,3,2,72,2020-12-13_14h23.34.591,premup-three_ses-02_part-03_label-phase3,3.2.4,MacIntel,60
1,right,1.287999868,2,0.97699976,0,3,1.760999918,0,4,0.864999771,1,0,200,19,1,199,1,2,0.5,1,stim/objects/Instruments/trombone.png,stim/64.jpeg,6,stim/6.png,4,1,72,2020-12-13_14h23.34.591,premup-three_ses-02_part-03_label-phase3,3.2.4,MacIntel,60
1,left,1.905999899,2,2.951999903,0,1,2.921000004,0,4,1.118999958,1,0,200,26,1,199,2,1,0.3,1,stim/objects/HouseObjects/ballofstring2.png,stim/13.jpeg,1,stim/1.png,3,3,72,2020-12-13_14h23.34.591,premup-three_ses-02_part-03_label-phase3,3.2.4,MacIntel,60
1,right,0.719000101,,,0,,,0,,,1,0,200,188,1,199,0,1,0,2,stim/objects/HouseObjects/cushion4.png,,0,stim/0.png,0,0,72,2020-12-13_14h23.34.591,premup-three_ses-02_part-03_label-phase3,3.2.4,MacIntel,60
1,right,0.717999935,,,0,,,0,,,1,0,200,149,1,199,0,1,0,2,stim/objects/HouseObjects/teapot3.png,,0,stim/0.png,0,0,72,2020-12-13_14h23.34.591,premup-three_ses-02_part-03_label-phase3,3.2.4,MacIntel,60
1,right,0.782999992,2,1.078999996,0,1,1.3349998,0,4,2.921000004,1,0,200,53,1,199,2,2,0.3,1,stim/objects/Instruments/clarinet2.png,stim/21.jpeg,2,stim/2.png,1,1,72,2020-12-13_14h23.34.591,premup-three_ses-02_part-03_label-phase3,3.2.4,MacIntel,60
1,right,1.973999977,,,0,,,0,,,1,0,200,178,1,199,0,2,0,2,stim/objects/Instruments/banjo4.png,,0,stim/0.png,0,0,72,2020-12-13_14h23.34.591,premup-three_ses-02_part-03_label-phase3,3.2.4,MacIntel,60
1,right,0.916000128,,,0,,,0,,,1,0,200,181,1,199,0,1,0,2,stim/objects/HouseObjects/bottle4.png,,0,stim/0.png,0,0,72,2020-12-13_14h23.34.591,premup-three_ses-02_part-03_label-phase3,3.2.4,MacIntel,60
1,right,2.535999775,2,0.936999798,0,2,0.599999905,0,4,0.826999903,1,0,200,34,1,199,2,2,0.7,1,stim/objects/Instruments/xylophone.png,stim/12.jpeg,1,stim/1.png,2,3,72,2020-12-13_14h23.34.591,premup-three_ses-02_part-03_label-phase3,3.2.4,MacIntel,60
1,right,0.805999994,,,0,,,0,,,1,0,200,134,1,199,0,2,0,2,stim/objects/Instruments/electricguitar3.png,,0,stim/0.png,0,0,72,2020-12-13_14h23.34.591,premup-three_ses-02_part-03_label-phase3,3.2.4,MacIntel,60
1,left,0.898999929,,,0,,,0,,,1,0,200,112,1,199,0,2,0,2,stim/objects/Instruments/balalaika3.png,,0,stim/0.png,0,0,72,2020-12-13_14h23.34.591,premup-three_ses-02_part-03_label-phase3,3.2.4,MacIntel,60
1,right,0.931999922,,,0,,,0,,,1,0,200,136,1,199,0,2,0,2,stim/objects/Instruments/flutetrans3.png,,0,stim/0.png,0,0,72,2020-12-13_14h23.34.591,premup-three_ses-02_part-03_label-phase3,3.2.4,MacIntel,60
1,right,1.329999924,2,0.62899971,0,3,2.823999882,0,4,0.816999912,1,0,200,72,1,199,3,2,0.9,1,stim/objects/Instruments/frenchhorn2.png,stim/31.jpeg,3,stim/3.png,1,1,72,2020-12-13_14h23.34.591,premup-three_ses-02_part-03_label-phase3,3.2.4,MacIntel,60
1,right,0.736000061,,,0,,,0,,,1,0,200,174,1,199,0,2,0,2,stim/objects/Instruments/xylophone3.png,,0,stim/0.png,0,0,72,2020-12-13_14h23.34.591,premup-three_ses-02_part-03_label-phase3,3.2.4,MacIntel,60
1,left,1.156000137,,,0,,,0,,,1,0,200,152,1,199,0,2,0,2,stim/objects/Instruments/harp3.png,,0,stim/0.png,0,0,72,2020-12-13_14h23.34.591,premup-three_ses-02_part-03_label-phase3,3.2.4,MacIntel,60
1,right,1.205999851,,,0,,,0,,,1,0,200,176,1,199,0,2,0,2,stim/objects/Instruments/acousticguitar4.png,,0,stim/0.png,0,0,72,2020-12-13_14h23.34.591,premup-three_ses-02_part-03_label-phase3,3.2.4,MacIntel,60
1,left,1.983999968,2,0.861000061,0,2,0.707999945,0,4,0.954999924,1,0,200,71,1,199,3,2,0.9,1,stim/objects/Instruments/flutetrans2.png,stim/34.jpeg,3,stim/3.png,4,4,72,2020-12-13_14h23.34.591,premup-three_ses-02_part-03_label-phase3,3.2.4,MacIntel,60
