key_resp_trial.keys,key_resp_trial.rt,trial_acc,trial_index,iterations.thisRepN,iterations.thisTrialN,iterations.thisN,iterations.thisIndex,iterations.ran,iterations.order,task_innerloop.thisRepN,task_innerloop.thisTrialN,task_innerloop.thisN,task_innerloop.thisIndex,task_innerloop.ran,task_innerloop.order,scn_condition,scn_cat,scn_inst,scn_file,obj_cat,obj_cat_num,obj_file,trial_cond,quadrant,obj_x,obj_y,corr_ans,participant,date,expName,psychopyVersion,OS,frameRate,slider.response,slider.rt,slider_2.response,slider_2.rt,ratings.thisRepN,ratings.thisTrialN,ratings.thisN,ratings.thisIndex,ratings.ran,ratings.order,obj_cat_top,min_resp_top,max_resp_top,obj_cat_bottom,min_resp_bottom,max_resp_bottom,enc_trials.thisRepN,enc_trials.thisTrialN,enc_trials.thisN,enc_trials.thisIndex,enc_trials.ran,enc_trials.order,fillers,ratings_final.thisRepN,ratings_final.thisTrialN,ratings_final.thisN,ratings_final.thisIndex,ratings_final.ran,ratings_final.order
,,0,1,1,0,1,0,1,0,1,0,240,103,1,239,2,3,4,stim/34.jpeg,HouseObjects,2,stim/objects/HouseObjects/thread.png,0.7,3,-0.2,-0.15,right,73,2020-12-12_10h06.45.254,premup-three_ses-02_part-02_label-phase2,3.2.4,Win32,60,,,,,,,,,,,,,,,,,,,,,,,,,,,,,
left,0.686999798,1,2,1,0,1,0,1,0,1,0,240,225,1,239,3,6,2,stim/62.jpeg,Instruments,1,stim/objects/Instruments/trombone2.png,0.9,4,0.2,-0.15,left,73,2020-12-12_10h06.45.254,premup-three_ses-02_part-02_label-phase2,3.2.4,Win32,60,,,,,,,,,,,,,,,,,,,,,,,,,,,,,
right,0.664999962,1,3,1,0,1,0,1,0,1,0,240,108,1,239,2,3,1,stim/31.jpeg,HouseObjects,2,stim/objects/HouseObjects/spraybottle.png,0.7,2,0.2,0.15,right,73,2020-12-12_10h06.45.254,premup-three_ses-02_part-02_label-phase2,3.2.4,Win32,60,,,,,,,,,,,,,,,,,,,,,,,,,,,,,
left,0.59800005,1,4,1,0,1,0,1,0,1,0,240,230,1,239,3,6,3,stim/63.jpeg,Instruments,1,stim/objects/Instruments/trumpet2.png,0.9,3,-0.2,-0.15,left,73,2020-12-12_10h06.45.254,premup-three_ses-02_part-02_label-phase2,3.2.4,Win32,60,,,,,,,,,,,,,,,,,,,,,,,,,,,,,
,,0,5,1,0,1,0,1,0,1,0,240,9,1,239,1,1,2,stim/12.jpeg,Instruments,1,stim/objects/Instruments/pipepiano.png,0.5,3,-0.2,-0.15,left,73,2020-12-12_10h06.45.254,premup-three_ses-02_part-02_label-phase2,3.2.4,Win32,60,,,,,,,,,,,,,,,,,,,,,,,,,,,,,
right,0.588999748,1,6,1,0,1,0,1,0,1,0,240,75,1,239,1,2,4,stim/24.jpeg,HouseObjects,2,stim/objects/HouseObjects/sponge.png,0.5,1,-0.2,0.15,right,73,2020-12-12_10h06.45.254,premup-three_ses-02_part-02_label-phase2,3.2.4,Win32,60,,,,,,,,,,,,,,,,,,,,,,,,,,,,,
left,0.64199996,0,7,1,0,1,0,1,0,1,0,240,29,1,239,1,1,2,stim/12.jpeg,HouseObjects,2,stim/objects/HouseObjects/remote.png,0.5,1,-0.2,0.15,right,73,2020-12-12_10h06.45.254,premup-three_ses-02_part-02_label-phase2,3.2.4,Win32,60,,,,,,,,,,,,,,,,,,,,,,,,,,,,,
left,0.507999897,1,8,1,0,1,0,1,0,1,0,240,211,1,239,3,6,4,stim/64.jpeg,Instruments,1,stim/objects/Instruments/tuba2.png,0.9,2,0.2,0.15,left,73,2020-12-12_10h06.45.254,premup-three_ses-02_part-02_label-phase2,3.2.4,Win32,60,,,,,,,,,,,,,,,,,,,,,,,,,,,,,
right,0.515000105,0,9,1,0,1,0,1,0,1,0,240,124,1,239,2,4,1,stim/41.jpeg,Instruments,1,stim/objects/Instruments/panflute2.png,0.7,1,-0.2,0.15,left,73,2020-12-12_10h06.45.254,premup-three_ses-02_part-02_label-phase2,3.2.4,Win32,60,,,,,,,,,,,,,,,,,,,,,,,,,,,,,
left,0.557999849,1,10,1,0,1,0,1,0,1,0,240,210,1,239,3,6,3,stim/63.jpeg,Instruments,1,stim/objects/Instruments/trumpet2.png,0.9,3,-0.2,-0.15,left,73,2020-12-12_10h06.45.254,premup-three_ses-02_part-02_label-phase2,3.2.4,Win32,60,,,,,,,,,,,,,,,,,,,,,,,,,,,,,
left,0.569999933,0,11,1,0,1,0,1,0,1,0,240,151,1,239,2,4,4,stim/44.jpeg,HouseObjects,2,stim/objects/HouseObjects/rug2.png,0.3,4,0.2,-0.15,right,73,2020-12-12_10h06.45.254,premup-three_ses-02_part-02_label-phase2,3.2.4,Win32,60,,,,,,,,,,,,,,,,,,,,,,,,,,,,,
left,0.585000038,0,12,1,0,1,0,1,0,1,0,240,24,1,239,1,1,1,stim/11.jpeg,HouseObjects,2,stim/objects/HouseObjects/recyclingbin.png,0.5,2,0.2,0.15,right,73,2020-12-12_10h06.45.254,premup-three_ses-02_part-02_label-phase2,3.2.4,Win32,60,,,,,,,,,,,,,,,,,,,,,,,,,,,,,
right,0.759000063,1,13,1,0,1,0,1,0,1,0,240,173,1,239,3,5,2,stim/52.jpeg,HouseObjects,2,stim/objects/HouseObjects/saw2.png,0.9,3,-0.2,-0.15,right,73,2020-12-12_10h06.45.254,premup-three_ses-02_part-02_label-phase2,3.2.4,Win32,60,,,,,,,,,,,,,,,,,,,,,,,,,,,,,
right,0.849999905,0,14,1,0,1,0,1,0,1,0,240,52,1,239,1,2,1,stim/21.jpeg,Instruments,1,stim/objects/Instruments/saxophone.png,0.5,4,0.2,-0.15,left,73,2020-12-12_10h06.45.254,premup-three_ses-02_part-02_label-phase2,3.2.4,Win32,60,,,,,,,,,,,,,,,,,,,,,,,,,,,,,
right,0.835999966,1,15,1,0,1,0,1,0,1,0,240,183,1,239,3,5,4,stim/54.jpeg,HouseObjects,2,stim/objects/HouseObjects/sponge2.png,0.9,1,-0.2,0.15,right,73,2020-12-12_10h06.45.254,premup-three_ses-02_part-02_label-phase2,3.2.4,Win32,60,,,,,,,,,,,,,,,,,,,,,,,,,,,,,
,,0,16,1,0,1,0,1,0,1,0,240,92,1,239,2,3,1,stim/31.jpeg,HouseObjects,2,stim/objects/HouseObjects/spraybottle.png,0.7,3,-0.2,-0.15,right,73,2020-12-12_10h06.45.254,premup-three_ses-02_part-02_label-phase2,3.2.4,Win32,60,,,,,,,,,,,,,,,,,,,,,,,,,,,,,
left,0.667000055,1,17,1,0,1,0,1,0,1,0,240,59,1,239,1,2,4,stim/24.jpeg,Instruments,1,stim/objects/Instruments/timbal.png,0.5,1,-0.2,0.15,left,73,2020-12-12_10h06.45.254,premup-three_ses-02_part-02_label-phase2,3.2.4,Win32,60,,,,,,,,,,,,,,,,,,,,,,,,,,,,,
left,0.523999929,1,18,1,0,1,0,1,0,1,0,240,212,1,239,3,6,1,stim/61.jpeg,Instruments,1,stim/objects/Instruments/triangle2.png,0.9,3,-0.2,-0.15,left,73,2020-12-12_10h06.45.254,premup-three_ses-02_part-02_label-phase2,3.2.4,Win32,60,,,,,,,,,,,,,,,,,,,,,,,,,,,,,
right,0.440000057,1,19,1,0,1,0,1,0,1,0,240,63,1,239,1,2,4,stim/24.jpeg,HouseObjects,2,stim/objects/HouseObjects/sponge.png,0.5,2,0.2,0.15,right,73,2020-12-12_10h06.45.254,premup-three_ses-02_part-02_label-phase2,3.2.4,Win32,60,,,,,,,,,,,,,,,,,,,,,,,,,,,,,
left,0.832000017,1,20,1,0,1,0,1,0,1,0,240,16,1,239,1,1,1,stim/11.jpeg,Instruments,1,stim/objects/Instruments/panflute.png,0.5,2,0.2,0.15,left,73,2020-12-12_10h06.45.254,premup-three_ses-02_part-02_label-phase2,3.2.4,Win32,60,,,,,,,,,,,,,,,,,,,,,,,,,,,,,
left,0.578000069,0,21,1,0,1,0,1,0,1,0,240,60,1,239,1,2,1,stim/21.jpeg,HouseObjects,2,stim/objects/HouseObjects/safetypin.png,0.5,3,-0.2,-0.15,right,73,2020-12-12_10h06.45.254,premup-three_ses-02_part-02_label-phase2,3.2.4,Win32,60,,,,,,,,,,,,,,,,,,,,,,,,,,,,,
left,0.516000032,1,22,1,0,1,0,1,0,1,0,240,218,1,239,3,6,3,stim/63.jpeg,Instruments,1,stim/objects/Instruments/trumpet2.png,0.9,3,-0.2,-0.15,left,73,2020-12-12_10h06.45.254,premup-three_ses-02_part-02_label-phase2,3.2.4,Win32,60,,,,,,,,,,,,,,,,,,,,,,,,,,,,,
left,0.930999994,1,23,1,0,1,0,1,0,1,0,240,143,1,239,2,4,4,stim/44.jpeg,Instruments,1,stim/objects/Instruments/record_player2.png,0.7,1,-0.2,0.15,left,73,2020-12-12_10h06.45.254,premup-three_ses-02_part-02_label-phase2,3.2.4,Win32,60,,,,,,,,,,,,,,,,,,,,,,,,,,,,,
right,0.49000001,1,24,1,0,1,0,1,0,1,0,240,112,1,239,2,3,1,stim/31.jpeg,HouseObjects,2,stim/objects/HouseObjects/spraybottle.png,0.7,2,0.2,0.15,right,73,2020-12-12_10h06.45.254,premup-three_ses-02_part-02_label-phase2,3.2.4,Win32,60,,,,,,,,,,,,,,,,,,,,,,,,,,,,,
left,0.559999943,1,25,1,0,1,0,1,0,1,0,240,142,1,239,2,4,3,stim/43.jpeg,Instruments,1,stim/objects/Instruments/record2.png,0.7,1,-0.2,0.15,left,73,2020-12-12_10h06.45.254,premup-three_ses-02_part-02_label-phase2,3.2.4,Win32,60,,,,,,,,,,,,,,,,,,,,,,,,,,,,,
left,0.486999989,1,26,1,0,1,0,1,0,1,0,240,207,1,239,3,6,4,stim/64.jpeg,Instruments,1,stim/objects/Instruments/tuba2.png,0.9,4,0.2,-0.15,left,73,2020-12-12_10h06.45.254,premup-three_ses-02_part-02_label-phase2,3.2.4,Win32,60,,,,,,,,,,,,,,,,,,,,,,,,,,,,,
left,0.496000051,1,27,1,0,1,0,1,0,1,0,240,235,1,239,3,6,4,stim/64.jpeg,Instruments,1,stim/objects/Instruments/tuba2.png,0.9,1,-0.2,0.15,left,73,2020-12-12_10h06.45.254,premup-three_ses-02_part-02_label-phase2,3.2.4,Win32,60,,,,,,,,,,,,,,,,,,,,,,,,,,,,,
right,0.596999884,0,28,1,0,1,0,1,0,1,0,240,91,1,239,2,3,4,stim/34.jpeg,Instruments,1,stim/objects/Instruments/tuba.png,0.3,3,-0.2,-0.15,left,73,2020-12-12_10h06.45.254,premup-three_ses-02_part-02_label-phase2,3.2.4,Win32,60,,,,,,,,,,,,,,,,,,,,,,,,,,,,,
left,0.475999832,1,29,1,0,1,0,1,0,1,0,240,233,1,239,3,6,2,stim/62.jpeg,Instruments,1,stim/objects/Instruments/trombone2.png,0.9,1,-0.2,0.15,left,73,2020-12-12_10h06.45.254,premup-three_ses-02_part-02_label-phase2,3.2.4,Win32,60,,,,,,,,,,,,,,,,,,,,,,,,,,,,,
left,0.481999874,1,30,1,0,1,0,1,0,1,0,240,127,1,239,2,4,4,stim/44.jpeg,Instruments,1,stim/objects/Instruments/record_player2.png,0.7,1,-0.2,0.15,left,73,2020-12-12_10h06.45.254,premup-three_ses-02_part-02_label-phase2,3.2.4,Win32,60,,,,,,,,,,,,,,,,,,,,,,,,,,,,,
right,0.608999968,0,31,1,0,1,0,1,0,1,0,240,84,1,239,2,3,1,stim/31.jpeg,Instruments,1,stim/objects/Instruments/triangle.png,0.3,2,0.2,0.15,left,73,2020-12-12_10h06.45.254,premup-three_ses-02_part-02_label-phase2,3.2.4,Win32,60,,,,,,,,,,,,,,,,,,,,,,,,,,,,,
,,0,32,1,0,1,0,1,0,1,0,240,53,1,239,1,2,2,stim/22.jpeg,Instruments,1,stim/objects/Instruments/speaker.png,0.5,3,-0.2,-0.15,left,73,2020-12-12_10h06.45.254,premup-three_ses-02_part-02_label-phase2,3.2.4,Win32,60,,,,,,,,,,,,,,,,,,,,,,,,,,,,,
right,0.602999926,0,33,1,0,1,0,1,0,1,0,240,160,1,239,3,5,1,stim/51.jpeg,Instruments,1,stim/objects/Instruments/saxophone2.png,0.1,4,0.2,-0.15,left,73,2020-12-12_10h06.45.254,premup-three_ses-02_part-02_label-phase2,3.2.4,Win32,60,,,,,,,,,,,,,,,,,,,,,,,,,,,,,
,,0,34,1,0,1,0,1,0,1,0,240,190,1,239,3,5,3,stim/53.jpeg,HouseObjects,2,stim/objects/HouseObjects/scale2.png,0.9,2,0.2,0.15,right,73,2020-12-12_10h06.45.254,premup-three_ses-02_part-02_label-phase2,3.2.4,Win32,60,,,,,,,,,,,,,,,,,,,,,,,,,,,,,
left,0.532999992,0,35,1,0,1,0,1,0,1,0,240,236,1,239,3,6,1,stim/61.jpeg,HouseObjects,2,stim/objects/HouseObjects/spraybottle2.png,0.1,2,0.2,0.15,right,73,2020-12-12_10h06.45.254,premup-three_ses-02_part-02_label-phase2,3.2.4,Win32,60,,,,,,,,,,,,,,,,,,,,,,,,,,,,,
left,0.912999868,0,36,1,0,1,0,1,0,1,0,240,169,1,239,3,5,2,stim/52.jpeg,HouseObjects,2,stim/objects/HouseObjects/saw2.png,0.9,4,0.2,-0.15,right,73,2020-12-12_10h06.45.254,premup-three_ses-02_part-02_label-phase2,3.2.4,Win32,60,,,,,,,,,,,,,,,,,,,,,,,,,,,,,
,,0,37,1,0,1,0,1,0,1,0,240,148,1,239,2,4,1,stim/41.jpeg,HouseObjects,2,stim/objects/HouseObjects/recyclingbin2.png,0.3,4,0.2,-0.15,right,73,2020-12-12_10h06.45.254,premup-three_ses-02_part-02_label-phase2,3.2.4,Win32,60,,,,,,,,,,,,,,,,,,,,,,,,,,,,,
left,0.857999802,0,38,1,0,1,0,1,0,1,0,240,78,1,239,1,2,3,stim/23.jpeg,HouseObjects,2,stim/objects/HouseObjects/scale.png,0.5,1,-0.2,0.15,right,73,2020-12-12_10h06.45.254,premup-three_ses-02_part-02_label-phase2,3.2.4,Win32,60,,,,,,,,,,,,,,,,,,,,,,,,,,,,,
left,0.883000135,1,39,1,0,1,0,1,0,1,0,240,45,1,239,1,2,2,stim/22.jpeg,Instruments,1,stim/objects/Instruments/speaker.png,0.5,1,-0.2,0.15,left,73,2020-12-12_10h06.45.254,premup-three_ses-02_part-02_label-phase2,3.2.4,Win32,60,,,,,,,,,,,,,,,,,,,,,,,,,,,,,
right,0.677000046,0,40,1,0,1,0,1,0,1,0,240,42,1,239,1,2,3,stim/23.jpeg,Instruments,1,stim/objects/Instruments/tambourine.png,0.5,3,-0.2,-0.15,left,73,2020-12-12_10h06.45.254,premup-three_ses-02_part-02_label-phase2,3.2.4,Win32,60,,,,,,,,,,,,,,,,,,,,,,,,,,,,,
right,0.616999865,1,41,1,0,1,0,1,0,1,0,240,165,1,239,3,5,2,stim/52.jpeg,HouseObjects,2,stim/objects/HouseObjects/saw2.png,0.9,2,0.2,0.15,right,73,2020-12-12_10h06.45.254,premup-three_ses-02_part-02_label-phase2,3.2.4,Win32,60,,,,,,,,,,,,,,,,,,,,,,,,,,,,,
right,0.720999956,0,42,1,0,1,0,1,0,1,0,240,7,1,239,1,1,4,stim/14.jpeg,Instruments,1,stim/objects/Instruments/record_player.png,0.5,4,0.2,-0.15,left,73,2020-12-12_10h06.45.254,premup-three_ses-02_part-02_label-phase2,3.2.4,Win32,60,,,,,,,,,,,,,,,,,,,,,,,,,,,,,
right,0.621000051,1,43,1,0,1,0,1,0,1,0,240,193,1,239,3,5,2,stim/52.jpeg,HouseObjects,2,stim/objects/HouseObjects/saw2.png,0.9,3,-0.2,-0.15,right,73,2020-12-12_10h06.45.254,premup-three_ses-02_part-02_label-phase2,3.2.4,Win32,60,,,,,,,,,,,,,,,,,,,,,,,,,,,,,
left,0.695999861,1,44,1,0,1,0,1,0,1,0,240,14,1,239,1,1,3,stim/13.jpeg,Instruments,1,stim/objects/Instruments/record.png,0.5,1,-0.2,0.15,left,73,2020-12-12_10h06.45.254,premup-three_ses-02_part-02_label-phase2,3.2.4,Win32,60,,,,,,,,,,,,,,,,,,,,,,,,,,,,,
right,0.699999809,1,45,1,0,1,0,1,0,1,0,240,31,1,239,1,1,4,stim/14.jpeg,HouseObjects,2,stim/objects/HouseObjects/rug.png,0.5,1,-0.2,0.15,right,73,2020-12-12_10h06.45.254,premup-three_ses-02_part-02_label-phase2,3.2.4,Win32,60,,,,,,,,,,,,,,,,,,,,,,,,,,,,,
right,0.65199995,0,46,1,0,1,0,1,0,1,0,240,44,1,239,1,2,1,stim/21.jpeg,Instruments,1,stim/objects/Instruments/saxophone.png,0.5,3,-0.2,-0.15,left,73,2020-12-12_10h06.45.254,premup-three_ses-02_part-02_label-phase2,3.2.4,Win32,60,,,,,,,,,,,,,,,,,,,,,,,,,,,,,
left,0.855999947,1,47,1,0,1,0,1,0,1,0,240,128,1,239,2,4,1,stim/41.jpeg,Instruments,1,stim/objects/Instruments/panflute2.png,0.7,2,0.2,0.15,left,73,2020-12-12_10h06.45.254,premup-three_ses-02_part-02_label-phase2,3.2.4,Win32,60,,,,,,,,,,,,,,,,,,,,,,,,,,,,,
left,0.727999926,0,48,1,0,1,0,1,0,1,0,240,150,1,239,2,4,3,stim/43.jpeg,HouseObjects,2,stim/objects/HouseObjects/rubbergloves2.png,0.3,3,-0.2,-0.15,right,73,2020-12-12_10h06.45.254,premup-three_ses-02_part-02_label-phase2,3.2.4,Win32,60,,,,,,,,,,,,,,,,,,,,,,,,,,,,,
,,0,49,1,0,1,0,1,0,1,0,240,35,1,239,1,1,4,stim/14.jpeg,HouseObjects,2,stim/objects/HouseObjects/rug.png,0.5,3,-0.2,-0.15,right,73,2020-12-12_10h06.45.254,premup-three_ses-02_part-02_label-phase2,3.2.4,Win32,60,,,,,,,,,,,,,,,,,,,,,,,,,,,,,
right,0.934000015,1,50,1,0,1,0,1,0,1,0,240,66,1,239,1,2,3,stim/23.jpeg,HouseObjects,2,stim/objects/HouseObjects/scale.png,0.5,4,0.2,-0.15,right,73,2020-12-12_10h06.45.254,premup-three_ses-02_part-02_label-phase2,3.2.4,Win32,60,,,,,,,,,,,,,,,,,,,,,,,,,,,,,
left,0.840999842,0,51,1,0,1,0,1,0,1,0,240,61,1,239,1,2,2,stim/22.jpeg,HouseObjects,2,stim/objects/HouseObjects/saw.png,0.5,1,-0.2,0.15,right,73,2020-12-12_10h06.45.254,premup-three_ses-02_part-02_label-phase2,3.2.4,Win32,60,,,,,,,,,,,,,,,,,,,,,,,,,,,,,
left,0.777999878,0,52,1,0,1,0,1,0,1,0,240,32,1,239,1,1,1,stim/11.jpeg,HouseObjects,2,stim/objects/HouseObjects/recyclingbin.png,0.5,1,-0.2,0.15,right,73,2020-12-12_10h06.45.254,premup-three_ses-02_part-02_label-phase2,3.2.4,Win32,60,,,,,,,,,,,,,,,,,,,,,,,,,,,,,
,,0,53,1,0,1,0,1,0,1,0,240,85,1,239,2,3,2,stim/32.jpeg,Instruments,1,stim/objects/Instruments/trombone.png,0.3,2,0.2,0.15,left,73,2020-12-12_10h06.45.254,premup-three_ses-02_part-02_label-phase2,3.2.4,Win32,60,,,,,,,,,,,,,,,,,,,,,,,,,,,,,
right,0.562999725,0,54,1,0,1,0,1,0,1,0,240,40,1,239,1,2,1,stim/21.jpeg,Instruments,1,stim/objects/Instruments/saxophone.png,0.5,2,0.2,0.15,left,73,2020-12-12_10h06.45.254,premup-three_ses-02_part-02_label-phase2,3.2.4,Win32,60,,,,,,,,,,,,,,,,,,,,,,,,,,,,,
left,0.703999758,1,55,1,0,1,0,1,0,1,0,240,6,1,239,1,1,3,stim/13.jpeg,Instruments,1,stim/objects/Instruments/record.png,0.5,2,0.2,0.15,left,73,2020-12-12_10h06.45.254,premup-three_ses-02_part-02_label-phase2,3.2.4,Win32,60,,,,,,,,,,,,,,,,,,,,,,,,,,,,,
right,0.898000002,1,56,1,0,1,0,1,0,1,0,240,69,1,239,1,2,2,stim/22.jpeg,HouseObjects,2,stim/objects/HouseObjects/saw.png,0.5,1,-0.2,0.15,right,73,2020-12-12_10h06.45.254,premup-three_ses-02_part-02_label-phase2,3.2.4,Win32,60,,,,,,,,,,,,,,,,,,,,,,,,,,,,,
right,0.638999939,1,57,1,0,1,0,1,0,1,0,240,198,1,239,3,5,3,stim/53.jpeg,HouseObjects,2,stim/objects/HouseObjects/scale2.png,0.9,1,-0.2,0.15,right,73,2020-12-12_10h06.45.254,premup-three_ses-02_part-02_label-phase2,3.2.4,Win32,60,,,,,,,,,,,,,,,,,,,,,,,,,,,,,
right,0.865999937,0,58,1,0,1,0,1,0,1,0,240,56,1,239,1,2,1,stim/21.jpeg,Instruments,1,stim/objects/Instruments/saxophone.png,0.5,4,0.2,-0.15,left,73,2020-12-12_10h06.45.254,premup-three_ses-02_part-02_label-phase2,3.2.4,Win32,60,,,,,,,,,,,,,,,,,,,,,,,,,,,,,
right,0.639999866,1,59,1,0,1,0,1,0,1,0,240,196,1,239,3,5,1,stim/51.jpeg,HouseObjects,2,stim/objects/HouseObjects/safetypin2.png,0.9,3,-0.2,-0.15,right,73,2020-12-12_10h06.45.254,premup-three_ses-02_part-02_label-phase2,3.2.4,Win32,60,,,,,,,,,,,,,,,,,,,,,,,,,,,,,
right,0.720999956,1,60,1,0,1,0,1,0,1,0,240,113,1,239,2,3,2,stim/32.jpeg,HouseObjects,2,stim/objects/HouseObjects/teapot.png,0.7,3,-0.2,-0.15,right,73,2020-12-12_10h06.45.254,premup-three_ses-02_part-02_label-phase2,3.2.4,Win32,60,,,,,,,,,,,,,,,,,,,,,,,,,,,,,
left,0.590999842,0,61,1,0,1,0,1,0,1,0,240,27,1,239,1,1,4,stim/14.jpeg,HouseObjects,2,stim/objects/HouseObjects/rug.png,0.5,4,0.2,-0.15,right,73,2020-12-12_10h06.45.254,premup-three_ses-02_part-02_label-phase2,3.2.4,Win32,60,,,,,,,,,,,,,,,,,,,,,,,,,,,,,
right,0.681999922,1,62,1,0,1,0,1,0,1,0,240,171,1,239,3,5,4,stim/54.jpeg,HouseObjects,2,stim/objects/HouseObjects/sponge2.png,0.9,4,0.2,-0.15,right,73,2020-12-12_10h06.45.254,premup-three_ses-02_part-02_label-phase2,3.2.4,Win32,60,,,,,,,,,,,,,,,,,,,,,,,,,,,,,
left,0.549999952,1,63,1,0,1,0,1,0,1,0,240,205,1,239,3,6,2,stim/62.jpeg,Instruments,1,stim/objects/Instruments/trombone2.png,0.9,1,-0.2,0.15,left,73,2020-12-12_10h06.45.254,premup-three_ses-02_part-02_label-phase2,3.2.4,Win32,60,,,,,,,,,,,,,,,,,,,,,,,,,,,,,
right,0.361999989,0,64,1,0,1,0,1,0,1,0,240,222,1,239,3,6,3,stim/63.jpeg,Instruments,1,stim/objects/Instruments/trumpet2.png,0.9,1,-0.2,0.15,left,73,2020-12-12_10h06.45.254,premup-three_ses-02_part-02_label-phase2,3.2.4,Win32,60,,,,,,,,,,,,,,,,,,,,,,,,,,,,,
right,0.352999926,0,65,1,0,1,0,1,0,1,0,240,226,1,239,3,6,3,stim/63.jpeg,Instruments,1,stim/objects/Instruments/trumpet2.png,0.9,2,0.2,0.15,left,73,2020-12-12_10h06.45.254,premup-three_ses-02_part-02_label-phase2,3.2.4,Win32,60,,,,,,,,,,,,,,,,,,,,,,,,,,,,,
,,0,66,1,0,1,0,1,0,1,0,240,67,1,239,1,2,4,stim/24.jpeg,HouseObjects,2,stim/objects/HouseObjects/sponge.png,0.5,2,0.2,0.15,right,73,2020-12-12_10h06.45.254,premup-three_ses-02_part-02_label-phase2,3.2.4,Win32,60,,,,,,,,,,,,,,,,,,,,,,,,,,,,,
left,0.498999834,1,67,1,0,1,0,1,0,1,0,240,135,1,239,2,4,4,stim/44.jpeg,Instruments,1,stim/objects/Instruments/record_player2.png,0.7,4,0.2,-0.15,left,73,2020-12-12_10h06.45.254,premup-three_ses-02_part-02_label-phase2,3.2.4,Win32,60,,,,,,,,,,,,,,,,,,,,,,,,,,,,,
right,0.454999924,1,68,1,0,1,0,1,0,1,0,240,106,1,239,2,3,3,stim/33.jpeg,HouseObjects,2,stim/objects/HouseObjects/thermometer.png,0.7,1,-0.2,0.15,right,73,2020-12-12_10h06.45.254,premup-three_ses-02_part-02_label-phase2,3.2.4,Win32,60,,,,,,,,,,,,,,,,,,,,,,,,,,,,,
left,0.445999861,0,69,1,0,1,0,1,0,1,0,240,176,1,239,3,5,1,stim/51.jpeg,HouseObjects,2,stim/objects/HouseObjects/safetypin2.png,0.9,1,-0.2,0.15,right,73,2020-12-12_10h06.45.254,premup-three_ses-02_part-02_label-phase2,3.2.4,Win32,60,,,,,,,,,,,,,,,,,,,,,,,,,,,,,
left,0.638000011,0,70,1,0,1,0,1,0,1,0,240,28,1,239,1,1,1,stim/11.jpeg,HouseObjects,2,stim/objects/HouseObjects/recyclingbin.png,0.5,2,0.2,0.15,right,73,2020-12-12_10h06.45.254,premup-three_ses-02_part-02_label-phase2,3.2.4,Win32,60,,,,,,,,,,,,,,,,,,,,,,,,,,,,,
right,0.681999922,1,71,1,0,1,0,1,0,1,0,240,74,1,239,1,2,3,stim/23.jpeg,HouseObjects,2,stim/objects/HouseObjects/scale.png,0.5,2,0.2,0.15,right,73,2020-12-12_10h06.45.254,premup-three_ses-02_part-02_label-phase2,3.2.4,Win32,60,,,,,,,,,,,,,,,,,,,,,,,,,,,,,
right,0.606999874,1,72,1,0,1,0,1,0,1,0,240,76,1,239,1,2,1,stim/21.jpeg,HouseObjects,2,stim/objects/HouseObjects/safetypin.png,0.5,3,-0.2,-0.15,right,73,2020-12-12_10h06.45.254,premup-three_ses-02_part-02_label-phase2,3.2.4,Win32,60,,,,,,,,,,,,,,,,,,,,,,,,,,,,,
left,0.605999947,1,73,1,0,1,0,1,0,1,0,240,57,1,239,1,2,2,stim/22.jpeg,Instruments,1,stim/objects/Instruments/speaker.png,0.5,1,-0.2,0.15,left,73,2020-12-12_10h06.45.254,premup-three_ses-02_part-02_label-phase2,3.2.4,Win32,60,,,,,,,,,,,,,,,,,,,,,,,,,,,,,
right,0.716999769,0,74,1,0,1,0,1,0,1,0,240,11,1,239,1,1,4,stim/14.jpeg,Instruments,1,stim/objects/Instruments/record_player.png,0.5,4,0.2,-0.15,left,73,2020-12-12_10h06.45.254,premup-three_ses-02_part-02_label-phase2,3.2.4,Win32,60,,,,,,,,,,,,,,,,,,,,,,,,,,,,,
left,0.674999952,0,75,1,0,1,0,1,0,1,0,240,157,1,239,2,4,2,stim/42.jpeg,HouseObjects,2,stim/objects/HouseObjects/remote2.png,0.3,2,0.2,0.15,right,73,2020-12-12_10h06.45.254,premup-three_ses-02_part-02_label-phase2,3.2.4,Win32,60,,,,,,,,,,,,,,,,,,,,,,,,,,,,,
left,0.801999807,1,76,1,0,1,0,1,0,1,0,240,126,1,239,2,4,3,stim/43.jpeg,Instruments,1,stim/objects/Instruments/record2.png,0.7,3,-0.2,-0.15,left,73,2020-12-12_10h06.45.254,premup-three_ses-02_part-02_label-phase2,3.2.4,Win32,60,,,,,,,,,,,,,,,,,,,,,,,,,,,,,
right,0.588999987,1,77,1,0,1,0,1,0,1,0,240,62,1,239,1,2,3,stim/23.jpeg,HouseObjects,2,stim/objects/HouseObjects/scale.png,0.5,3,-0.2,-0.15,right,73,2020-12-12_10h06.45.254,premup-three_ses-02_part-02_label-phase2,3.2.4,Win32,60,,,,,,,,,,,,,,,,,,,,,,,,,,,,,
right,0.510999918,1,78,1,0,1,0,1,0,1,0,240,172,1,239,3,5,1,stim/51.jpeg,HouseObjects,2,stim/objects/HouseObjects/safetypin2.png,0.9,3,-0.2,-0.15,right,73,2020-12-12_10h06.45.254,premup-three_ses-02_part-02_label-phase2,3.2.4,Win32,60,,,,,,,,,,,,,,,,,,,,,,,,,,,,,
right,0.713999987,1,79,1,0,1,0,1,0,1,0,240,195,1,239,3,5,4,stim/54.jpeg,HouseObjects,2,stim/objects/HouseObjects/sponge2.png,0.9,2,0.2,0.15,right,73,2020-12-12_10h06.45.254,premup-three_ses-02_part-02_label-phase2,3.2.4,Win32,60,,,,,,,,,,,,,,,,,,,,,,,,,,,,,
,,0,80,1,0,1,0,1,0,1,0,240,104,1,239,2,3,1,stim/31.jpeg,HouseObjects,2,stim/objects/HouseObjects/spraybottle.png,0.7,1,-0.2,0.15,right,73,2020-12-12_10h06.45.254,premup-three_ses-02_part-02_label-phase2,3.2.4,Win32,60,,,,,,,,,,,,,,,,,,,,,,,,,,,,,
left,0.524999857,1,81,1,0,1,0,1,0,1,0,240,123,1,239,2,4,4,stim/44.jpeg,Instruments,1,stim/objects/Instruments/record_player2.png,0.7,3,-0.2,-0.15,left,73,2020-12-12_10h06.45.254,premup-three_ses-02_part-02_label-phase2,3.2.4,Win32,60,,,,,,,,,,,,,,,,,,,,,,,,,,,,,
left,0.808999777,1,82,1,0,1,0,1,0,1,0,240,234,1,239,3,6,3,stim/63.jpeg,Instruments,1,stim/objects/Instruments/trumpet2.png,0.9,4,0.2,-0.15,left,73,2020-12-12_10h06.45.254,premup-three_ses-02_part-02_label-phase2,3.2.4,Win32,60,,,,,,,,,,,,,,,,,,,,,,,,,,,,,
right,0.569000006,1,83,1,0,1,0,1,0,1,0,240,71,1,239,1,2,4,stim/24.jpeg,HouseObjects,2,stim/objects/HouseObjects/sponge.png,0.5,2,0.2,0.15,right,73,2020-12-12_10h06.45.254,premup-three_ses-02_part-02_label-phase2,3.2.4,Win32,60,,,,,,,,,,,,,,,,,,,,,,,,,,,,,
right,0.643999815,1,84,1,0,1,0,1,0,1,0,240,114,1,239,2,3,3,stim/33.jpeg,HouseObjects,2,stim/objects/HouseObjects/thermometer.png,0.7,4,0.2,-0.15,right,73,2020-12-12_10h06.45.254,premup-three_ses-02_part-02_label-phase2,3.2.4,Win32,60,,,,,,,,,,,,,,,,,,,,,,,,,,,,,
right,0.576999903,1,85,1,0,1,0,1,0,1,0,240,187,1,239,3,5,4,stim/54.jpeg,HouseObjects,2,stim/objects/HouseObjects/sponge2.png,0.9,1,-0.2,0.15,right,73,2020-12-12_10h06.45.254,premup-three_ses-02_part-02_label-phase2,3.2.4,Win32,60,,,,,,,,,,,,,,,,,,,,,,,,,,,,,
left,0.503999949,1,86,1,0,1,0,1,0,1,0,240,214,1,239,3,6,3,stim/63.jpeg,Instruments,1,stim/objects/Instruments/trumpet2.png,0.9,2,0.2,0.15,left,73,2020-12-12_10h06.45.254,premup-three_ses-02_part-02_label-phase2,3.2.4,Win32,60,,,,,,,,,,,,,,,,,,,,,,,,,,,,,
right,0.529999971,1,87,1,0,1,0,1,0,1,0,240,194,1,239,3,5,3,stim/53.jpeg,HouseObjects,2,stim/objects/HouseObjects/scale2.png,0.9,1,-0.2,0.15,right,73,2020-12-12_10h06.45.254,premup-three_ses-02_part-02_label-phase2,3.2.4,Win32,60,,,,,,,,,,,,,,,,,,,,,,,,,,,,,
left,0.471999884,1,88,1,0,1,0,1,0,1,0,240,227,1,239,3,6,4,stim/64.jpeg,Instruments,1,stim/objects/Instruments/tuba2.png,0.9,3,-0.2,-0.15,left,73,2020-12-12_10h06.45.254,premup-three_ses-02_part-02_label-phase2,3.2.4,Win32,60,,,,,,,,,,,,,,,,,,,,,,,,,,,,,
left,0.868000031,1,89,1,0,1,0,1,0,1,0,240,0,1,239,1,1,1,stim/11.jpeg,Instruments,1,stim/objects/Instruments/panflute.png,0.5,4,0.2,-0.15,left,73,2020-12-12_10h06.45.254,premup-three_ses-02_part-02_label-phase2,3.2.4,Win32,60,,,,,,,,,,,,,,,,,,,,,,,,,,,,,
right,0.568999767,0,90,1,0,1,0,1,0,1,0,240,162,1,239,3,5,3,stim/53.jpeg,Instruments,1,stim/objects/Instruments/tambourine2.png,0.1,4,0.2,-0.15,left,73,2020-12-12_10h06.45.254,premup-three_ses-02_part-02_label-phase2,3.2.4,Win32,60,,,,,,,,,,,,,,,,,,,,,,,,,,,,,
left,0.826999903,1,91,1,0,1,0,1,0,1,0,240,146,1,239,2,4,3,stim/43.jpeg,Instruments,1,stim/objects/Instruments/record2.png,0.7,1,-0.2,0.15,left,73,2020-12-12_10h06.45.254,premup-three_ses-02_part-02_label-phase2,3.2.4,Win32,60,,,,,,,,,,,,,,,,,,,,,,,,,,,,,
right,0.607999802,1,92,1,0,1,0,1,0,1,0,240,116,1,239,2,3,1,stim/31.jpeg,HouseObjects,2,stim/objects/HouseObjects/spraybottle.png,0.7,3,-0.2,-0.15,right,73,2020-12-12_10h06.45.254,premup-three_ses-02_part-02_label-phase2,3.2.4,Win32,60,,,,,,,,,,,,,,,,,,,,,,,,,,,,,
left,0.609999895,1,93,1,0,1,0,1,0,1,0,240,144,1,239,2,4,1,stim/41.jpeg,Instruments,1,stim/objects/Instruments/panflute2.png,0.7,1,-0.2,0.15,left,73,2020-12-12_10h06.45.254,premup-three_ses-02_part-02_label-phase2,3.2.4,Win32,60,,,,,,,,,,,,,,,,,,,,,,,,,,,,,
right,0.630000114,0,94,1,0,1,0,1,0,1,0,240,48,1,239,1,2,1,stim/21.jpeg,Instruments,1,stim/objects/Instruments/saxophone.png,0.5,3,-0.2,-0.15,left,73,2020-12-12_10h06.45.254,premup-three_ses-02_part-02_label-phase2,3.2.4,Win32,60,,,,,,,,,,,,,,,,,,,,,,,,,,,,,
right,0.681999922,1,95,1,0,1,0,1,0,1,0,240,188,1,239,3,5,1,stim/51.jpeg,HouseObjects,2,stim/objects/HouseObjects/safetypin2.png,0.9,4,0.2,-0.15,right,73,2020-12-12_10h06.45.254,premup-three_ses-02_part-02_label-phase2,3.2.4,Win32,60,,,,,,,,,,,,,,,,,,,,,,,,,,,,,
left,0.538999796,1,96,1,0,1,0,1,0,1,0,240,203,1,239,3,6,4,stim/64.jpeg,Instruments,1,stim/objects/Instruments/tuba2.png,0.9,3,-0.2,-0.15,left,73,2020-12-12_10h06.45.254,premup-three_ses-02_part-02_label-phase2,3.2.4,Win32,60,,,,,,,,,,,,,,,,,,,,,,,,,,,,,
right,0.687999964,1,97,1,0,1,0,1,0,1,0,240,22,1,239,1,1,3,stim/13.jpeg,HouseObjects,2,stim/objects/HouseObjects/rubbergloves.png,0.5,1,-0.2,0.15,right,73,2020-12-12_10h06.45.254,premup-three_ses-02_part-02_label-phase2,3.2.4,Win32,60,,,,,,,,,,,,,,,,,,,,,,,,,,,,,
left,0.573999882,1,98,1,0,1,0,1,0,1,0,240,206,1,239,3,6,3,stim/63.jpeg,Instruments,1,stim/objects/Instruments/trumpet2.png,0.9,3,-0.2,-0.15,left,73,2020-12-12_10h06.45.254,premup-three_ses-02_part-02_label-phase2,3.2.4,Win32,60,,,,,,,,,,,,,,,,,,,,,,,,,,,,,
right,0.680000067,1,99,1,0,1,0,1,0,1,0,240,95,1,239,2,3,4,stim/34.jpeg,HouseObjects,2,stim/objects/HouseObjects/thread.png,0.7,4,0.2,-0.15,right,73,2020-12-12_10h06.45.254,premup-three_ses-02_part-02_label-phase2,3.2.4,Win32,60,,,,,,,,,,,,,,,,,,,,,,,,,,,,,
right,0.779999971,0,100,1,0,1,0,1,0,1,0,240,13,1,239,1,1,2,stim/12.jpeg,Instruments,1,stim/objects/Instruments/pipepiano.png,0.5,1,-0.2,0.15,left,73,2020-12-12_10h06.45.254,premup-three_ses-02_part-02_label-phase2,3.2.4,Win32,60,,,,,,,,,,,,,,,,,,,,,,,,,,,,,
left,0.917999983,0,101,1,0,1,0,1,0,1,0,240,72,1,239,1,2,1,stim/21.jpeg,HouseObjects,2,stim/objects/HouseObjects/safetypin.png,0.5,4,0.2,-0.15,right,73,2020-12-12_10h06.45.254,premup-three_ses-02_part-02_label-phase2,3.2.4,Win32,60,,,,,,,,,,,,,,,,,,,,,,,,,,,,,
right,0.791000128,1,102,1,0,1,0,1,0,1,0,240,30,1,239,1,1,3,stim/13.jpeg,HouseObjects,2,stim/objects/HouseObjects/rubbergloves.png,0.5,3,-0.2,-0.15,right,73,2020-12-12_10h06.45.254,premup-three_ses-02_part-02_label-phase2,3.2.4,Win32,60,,,,,,,,,,,,,,,,,,,,,,,,,,,,,
right,0.775999784,1,103,1,0,1,0,1,0,1,0,240,170,1,239,3,5,3,stim/53.jpeg,HouseObjects,2,stim/objects/HouseObjects/scale2.png,0.9,3,-0.2,-0.15,right,73,2020-12-12_10h06.45.254,premup-three_ses-02_part-02_label-phase2,3.2.4,Win32,60,,,,,,,,,,,,,,,,,,,,,,,,,,,,,
left,0.464999914,1,104,1,0,1,0,1,0,1,0,240,231,1,239,3,6,4,stim/64.jpeg,Instruments,1,stim/objects/Instruments/tuba2.png,0.9,3,-0.2,-0.15,left,73,2020-12-12_10h06.45.254,premup-three_ses-02_part-02_label-phase2,3.2.4,Win32,60,,,,,,,,,,,,,,,,,,,,,,,,,,,,,
left,0.51699996,1,105,1,0,1,0,1,0,1,0,240,217,1,239,3,6,2,stim/62.jpeg,Instruments,1,stim/objects/Instruments/trombone2.png,0.9,1,-0.2,0.15,left,73,2020-12-12_10h06.45.254,premup-three_ses-02_part-02_label-phase2,3.2.4,Win32,60,,,,,,,,,,,,,,,,,,,,,,,,,,,,,
right,0.487999916,1,106,1,0,1,0,1,0,1,0,240,119,1,239,2,3,4,stim/34.jpeg,HouseObjects,2,stim/objects/HouseObjects/thread.png,0.7,3,-0.2,-0.15,right,73,2020-12-12_10h06.45.254,premup-three_ses-02_part-02_label-phase2,3.2.4,Win32,60,,,,,,,,,,,,,,,,,,,,,,,,,,,,,
right,0.623999834,1,107,1,0,1,0,1,0,1,0,240,98,1,239,2,3,3,stim/33.jpeg,HouseObjects,2,stim/objects/HouseObjects/thermometer.png,0.7,1,-0.2,0.15,right,73,2020-12-12_10h06.45.254,premup-three_ses-02_part-02_label-phase2,3.2.4,Win32,60,,,,,,,,,,,,,,,,,,,,,,,,,,,,,
left,0.502999783,1,108,1,0,1,0,1,0,1,0,240,219,1,239,3,6,4,stim/64.jpeg,Instruments,1,stim/objects/Instruments/tuba2.png,0.9,2,0.2,0.15,left,73,2020-12-12_10h06.45.254,premup-three_ses-02_part-02_label-phase2,3.2.4,Win32,60,,,,,,,,,,,,,,,,,,,,,,,,,,,,,
right,0.625,0,109,1,0,1,0,1,0,1,0,240,58,1,239,1,2,3,stim/23.jpeg,Instruments,1,stim/objects/Instruments/tambourine.png,0.5,1,-0.2,0.15,left,73,2020-12-12_10h06.45.254,premup-three_ses-02_part-02_label-phase2,3.2.4,Win32,60,,,,,,,,,,,,,,,,,,,,,,,,,,,,,
left,0.812999964,0,110,1,0,1,0,1,0,1,0,240,33,1,239,1,1,2,stim/12.jpeg,HouseObjects,2,stim/objects/HouseObjects/remote.png,0.5,2,0.2,0.15,right,73,2020-12-12_10h06.45.254,premup-three_ses-02_part-02_label-phase2,3.2.4,Win32,60,,,,,,,,,,,,,,,,,,,,,,,,,,,,,
left,0.570999861,1,111,1,0,1,0,1,0,1,0,240,228,1,239,3,6,1,stim/61.jpeg,Instruments,1,stim/objects/Instruments/triangle2.png,0.9,4,0.2,-0.15,left,73,2020-12-12_10h06.45.254,premup-three_ses-02_part-02_label-phase2,3.2.4,Win32,60,,,,,,,,,,,,,,,,,,,,,,,,,,,,,
,,0,112,1,0,1,0,1,0,1,0,240,39,1,239,1,1,4,stim/14.jpeg,HouseObjects,2,stim/objects/HouseObjects/rug.png,0.5,1,-0.2,0.15,right,73,2020-12-12_10h06.45.254,premup-three_ses-02_part-02_label-phase2,3.2.4,Win32,60,,,,,,,,,,,,,,,,,,,,,,,,,,,,,
right,0.92599988,1,113,1,0,1,0,1,0,1,0,240,102,1,239,2,3,3,stim/33.jpeg,HouseObjects,2,stim/objects/HouseObjects/thermometer.png,0.7,4,0.2,-0.15,right,73,2020-12-12_10h06.45.254,premup-three_ses-02_part-02_label-phase2,3.2.4,Win32,60,,,,,,,,,,,,,,,,,,,,,,,,,,,,,
left,0.938999891,1,114,1,0,1,0,1,0,1,0,240,145,1,239,2,4,2,stim/42.jpeg,Instruments,1,stim/objects/Instruments/pipepiano2.png,0.7,4,0.2,-0.15,left,73,2020-12-12_10h06.45.254,premup-three_ses-02_part-02_label-phase2,3.2.4,Win32,60,,,,,,,,,,,,,,,,,,,,,,,,,,,,,
left,0.549999952,1,115,1,0,1,0,1,0,1,0,240,132,1,239,2,4,1,stim/41.jpeg,Instruments,1,stim/objects/Instruments/panflute2.png,0.7,1,-0.2,0.15,left,73,2020-12-12_10h06.45.254,premup-three_ses-02_part-02_label-phase2,3.2.4,Win32,60,,,,,,,,,,,,,,,,,,,,,,,,,,,,,
right,0.553999901,0,116,1,0,1,0,1,0,1,0,240,82,1,239,2,3,3,stim/33.jpeg,Instruments,1,stim/objects/Instruments/trumpet.png,0.3,3,-0.2,-0.15,left,73,2020-12-12_10h06.45.254,premup-three_ses-02_part-02_label-phase2,3.2.4,Win32,60,,,,,,,,,,,,,,,,,,,,,,,,,,,,,
left,0.633999825,0,117,1,0,1,0,1,0,1,0,240,20,1,239,1,1,1,stim/11.jpeg,HouseObjects,2,stim/objects/HouseObjects/recyclingbin.png,0.5,3,-0.2,-0.15,right,73,2020-12-12_10h06.45.254,premup-three_ses-02_part-02_label-phase2,3.2.4,Win32,60,,,,,,,,,,,,,,,,,,,,,,,,,,,,,
left,0.889999866,1,118,1,0,1,0,1,0,1,0,240,122,1,239,2,4,3,stim/43.jpeg,Instruments,1,stim/objects/Instruments/record2.png,0.7,3,-0.2,-0.15,left,73,2020-12-12_10h06.45.254,premup-three_ses-02_part-02_label-phase2,3.2.4,Win32,60,,,,,,,,,,,,,,,,,,,,,,,,,,,,,
right,0.618000031,1,119,1,0,1,0,1,0,1,0,240,177,1,239,3,5,2,stim/52.jpeg,HouseObjects,2,stim/objects/HouseObjects/saw2.png,0.9,1,-0.2,0.15,right,73,2020-12-12_10h06.45.254,premup-three_ses-02_part-02_label-phase2,3.2.4,Win32,60,,,,,,,,,,,,,,,,,,,,,,,,,,,,,
left,0.734999895,1,120,1,0,1,0,1,0,1,0,240,41,1,239,1,2,2,stim/22.jpeg,Instruments,1,stim/objects/Instruments/speaker.png,0.5,4,0.2,-0.15,left,73,2020-12-12_10h06.45.254,premup-three_ses-02_part-02_label-phase2,3.2.4,Win32,60,,,,,,,,,,,,,,,,,,,,,,,,,,,,,
right,0.632999897,1,121,1,0,1,0,1,0,1,0,240,191,1,239,3,5,4,stim/54.jpeg,HouseObjects,2,stim/objects/HouseObjects/sponge2.png,0.9,2,0.2,0.15,right,73,2020-12-12_10h06.45.254,premup-three_ses-02_part-02_label-phase2,3.2.4,Win32,60,,,,,,,,,,,,,,,,,,,,,,,,,,,,,
right,0.605999947,1,122,1,0,1,0,1,0,1,0,240,37,1,239,1,1,2,stim/12.jpeg,HouseObjects,2,stim/objects/HouseObjects/remote.png,0.5,3,-0.2,-0.15,right,73,2020-12-12_10h06.45.254,premup-three_ses-02_part-02_label-phase2,3.2.4,Win32,60,,,,,,,,,,,,,,,,,,,,,,,,,,,,,
right,0.479999781,0,123,1,0,1,0,1,0,1,0,240,80,1,239,2,3,1,stim/31.jpeg,Instruments,1,stim/objects/Instruments/triangle.png,0.3,2,0.2,0.15,left,73,2020-12-12_10h06.45.254,premup-three_ses-02_part-02_label-phase2,3.2.4,Win32,60,,,,,,,,,,,,,,,,,,,,,,,,,,,,,
left,0.540999889,0,124,1,0,1,0,1,0,1,0,240,154,1,239,2,4,3,stim/43.jpeg,HouseObjects,2,stim/objects/HouseObjects/rubbergloves2.png,0.3,4,0.2,-0.15,right,73,2020-12-12_10h06.45.254,premup-three_ses-02_part-02_label-phase2,3.2.4,Win32,60,,,,,,,,,,,,,,,,,,,,,,,,,,,,,
left,0.680000067,1,125,1,0,1,0,1,0,1,0,240,224,1,239,3,6,1,stim/61.jpeg,Instruments,1,stim/objects/Instruments/triangle2.png,0.9,4,0.2,-0.15,left,73,2020-12-12_10h06.45.254,premup-three_ses-02_part-02_label-phase2,3.2.4,Win32,60,,,,,,,,,,,,,,,,,,,,,,,,,,,,,
right,0.529999971,0,126,1,0,1,0,1,0,1,0,240,5,1,239,1,1,2,stim/12.jpeg,Instruments,1,stim/objects/Instruments/pipepiano.png,0.5,2,0.2,0.15,left,73,2020-12-12_10h06.45.254,premup-three_ses-02_part-02_label-phase2,3.2.4,Win32,60,,,,,,,,,,,,,,,,,,,,,,,,,,,,,
right,0.725999832,0,127,1,0,1,0,1,0,1,0,240,46,1,239,1,2,3,stim/23.jpeg,Instruments,1,stim/objects/Instruments/tambourine.png,0.5,4,0.2,-0.15,left,73,2020-12-12_10h06.45.254,premup-three_ses-02_part-02_label-phase2,3.2.4,Win32,60,,,,,,,,,,,,,,,,,,,,,,,,,,,,,
left,0.691999912,1,128,1,0,1,0,1,0,1,0,240,138,1,239,2,4,3,stim/43.jpeg,Instruments,1,stim/objects/Instruments/record2.png,0.7,2,0.2,0.15,left,73,2020-12-12_10h06.45.254,premup-three_ses-02_part-02_label-phase2,3.2.4,Win32,60,,,,,,,,,,,,,,,,,,,,,,,,,,,,,
right,0.569000006,1,129,1,0,1,0,1,0,1,0,240,185,1,239,3,5,2,stim/52.jpeg,HouseObjects,2,stim/objects/HouseObjects/saw2.png,0.9,2,0.2,0.15,right,73,2020-12-12_10h06.45.254,premup-three_ses-02_part-02_label-phase2,3.2.4,Win32,60,,,,,,,,,,,,,,,,,,,,,,,,,,,,,
,,0,130,1,0,1,0,1,0,1,0,240,137,1,239,2,4,2,stim/42.jpeg,Instruments,1,stim/objects/Instruments/pipepiano2.png,0.7,2,0.2,0.15,left,73,2020-12-12_10h06.45.254,premup-three_ses-02_part-02_label-phase2,3.2.4,Win32,60,,,,,,,,,,,,,,,,,,,,,,,,,,,,,
right,0.622999907,0,131,1,0,1,0,1,0,1,0,240,12,1,239,1,1,1,stim/11.jpeg,Instruments,1,stim/objects/Instruments/panflute.png,0.5,1,-0.2,0.15,left,73,2020-12-12_10h06.45.254,premup-three_ses-02_part-02_label-phase2,3.2.4,Win32,60,,,,,,,,,,,,,,,,,,,,,,,,,,,,,
left,0.527999878,1,132,1,0,1,0,1,0,1,0,240,220,1,239,3,6,1,stim/61.jpeg,Instruments,1,stim/objects/Instruments/triangle2.png,0.9,4,0.2,-0.15,left,73,2020-12-12_10h06.45.254,premup-three_ses-02_part-02_label-phase2,3.2.4,Win32,60,,,,,,,,,,,,,,,,,,,,,,,,,,,,,
right,0.796999931,0,133,1,0,1,0,1,0,1,0,240,83,1,239,2,3,4,stim/34.jpeg,Instruments,1,stim/objects/Instruments/tuba.png,0.3,3,-0.2,-0.15,left,73,2020-12-12_10h06.45.254,premup-three_ses-02_part-02_label-phase2,3.2.4,Win32,60,,,,,,,,,,,,,,,,,,,,,,,,,,,,,
right,0.763999939,1,134,1,0,1,0,1,0,1,0,240,36,1,239,1,1,1,stim/11.jpeg,HouseObjects,2,stim/objects/HouseObjects/recyclingbin.png,0.5,2,0.2,0.15,right,73,2020-12-12_10h06.45.254,premup-three_ses-02_part-02_label-phase2,3.2.4,Win32,60,,,,,,,,,,,,,,,,,,,,,,,,,,,,,
right,0.674999952,0,135,1,0,1,0,1,0,1,0,240,1,1,239,1,1,2,stim/12.jpeg,Instruments,1,stim/objects/Instruments/pipepiano.png,0.5,4,0.2,-0.15,left,73,2020-12-12_10h06.45.254,premup-three_ses-02_part-02_label-phase2,3.2.4,Win32,60,,,,,,,,,,,,,,,,,,,,,,,,,,,,,
,,0,136,1,0,1,0,1,0,1,0,240,175,1,239,3,5,4,stim/54.jpeg,HouseObjects,2,stim/objects/HouseObjects/sponge2.png,0.9,3,-0.2,-0.15,right,73,2020-12-12_10h06.45.254,premup-three_ses-02_part-02_label-phase2,3.2.4,Win32,60,,,,,,,,,,,,,,,,,,,,,,,,,,,,,
left,0.703000069,0,137,1,0,1,0,1,0,1,0,240,152,1,239,2,4,1,stim/41.jpeg,HouseObjects,2,stim/objects/HouseObjects/recyclingbin2.png,0.3,3,-0.2,-0.15,right,73,2020-12-12_10h06.45.254,premup-three_ses-02_part-02_label-phase2,3.2.4,Win32,60,,,,,,,,,,,,,,,,,,,,,,,,,,,,,
right,0.595000029,1,138,1,0,1,0,1,0,1,0,240,186,1,239,3,5,3,stim/53.jpeg,HouseObjects,2,stim/objects/HouseObjects/scale2.png,0.9,2,0.2,0.15,right,73,2020-12-12_10h06.45.254,premup-three_ses-02_part-02_label-phase2,3.2.4,Win32,60,,,,,,,,,,,,,,,,,,,,,,,,,,,,,
left,0.664999962,1,139,1,0,1,0,1,0,1,0,240,8,1,239,1,1,1,stim/11.jpeg,Instruments,1,stim/objects/Instruments/panflute.png,0.5,2,0.2,0.15,left,73,2020-12-12_10h06.45.254,premup-three_ses-02_part-02_label-phase2,3.2.4,Win32,60,,,,,,,,,,,,,,,,,,,,,,,,,,,,,
right,0.563999891,1,140,1,0,1,0,1,0,1,0,240,23,1,239,1,1,4,stim/14.jpeg,HouseObjects,2,stim/objects/HouseObjects/rug.png,0.5,2,0.2,0.15,right,73,2020-12-12_10h06.45.254,premup-three_ses-02_part-02_label-phase2,3.2.4,Win32,60,,,,,,,,,,,,,,,,,,,,,,,,,,,,,
right,0.470999956,1,141,1,0,1,0,1,0,1,0,240,34,1,239,1,1,3,stim/13.jpeg,HouseObjects,2,stim/objects/HouseObjects/rubbergloves.png,0.5,3,-0.2,-0.15,right,73,2020-12-12_10h06.45.254,premup-three_ses-02_part-02_label-phase2,3.2.4,Win32,60,,,,,,,,,,,,,,,,,,,,,,,,,,,,,
right,0.523000002,0,142,1,0,1,0,1,0,1,0,240,86,1,239,2,3,3,stim/33.jpeg,Instruments,1,stim/objects/Instruments/trumpet.png,0.3,1,-0.2,0.15,left,73,2020-12-12_10h06.45.254,premup-three_ses-02_part-02_label-phase2,3.2.4,Win32,60,,,,,,,,,,,,,,,,,,,,,,,,,,,,,
right,0.720999956,1,143,1,0,1,0,1,0,1,0,240,115,1,239,2,3,4,stim/34.jpeg,HouseObjects,2,stim/objects/HouseObjects/thread.png,0.7,4,0.2,-0.15,right,73,2020-12-12_10h06.45.254,premup-three_ses-02_part-02_label-phase2,3.2.4,Win32,60,,,,,,,,,,,,,,,,,,,,,,,,,,,,,
left,0.575999975,0,144,1,0,1,0,1,0,1,0,240,156,1,239,2,4,1,stim/41.jpeg,HouseObjects,2,stim/objects/HouseObjects/recyclingbin2.png,0.3,4,0.2,-0.15,right,73,2020-12-12_10h06.45.254,premup-three_ses-02_part-02_label-phase2,3.2.4,Win32,60,,,,,,,,,,,,,,,,,,,,,,,,,,,,,
right,0.459000111,1,145,1,0,1,0,1,0,1,0,240,101,1,239,2,3,2,stim/32.jpeg,HouseObjects,2,stim/objects/HouseObjects/teapot.png,0.7,3,-0.2,-0.15,right,73,2020-12-12_10h06.45.254,premup-three_ses-02_part-02_label-phase2,3.2.4,Win32,60,,,,,,,,,,,,,,,,,,,,,,,,,,,,,
right,0.531999826,0,146,1,0,1,0,1,0,1,0,240,161,1,239,3,5,2,stim/52.jpeg,Instruments,1,stim/objects/Instruments/speaker2.png,0.1,3,-0.2,-0.15,left,73,2020-12-12_10h06.45.254,premup-three_ses-02_part-02_label-phase2,3.2.4,Win32,60,,,,,,,,,,,,,,,,,,,,,,,,,,,,,
left,0.824999809,1,147,1,0,1,0,1,0,1,0,240,140,1,239,2,4,1,stim/41.jpeg,Instruments,1,stim/objects/Instruments/panflute2.png,0.7,2,0.2,0.15,left,73,2020-12-12_10h06.45.254,premup-three_ses-02_part-02_label-phase2,3.2.4,Win32,60,,,,,,,,,,,,,,,,,,,,,,,,,,,,,
left,0.641999722,1,148,1,0,1,0,1,0,1,0,240,215,1,239,3,6,4,stim/64.jpeg,Instruments,1,stim/objects/Instruments/tuba2.png,0.9,3,-0.2,-0.15,left,73,2020-12-12_10h06.45.254,premup-three_ses-02_part-02_label-phase2,3.2.4,Win32,60,,,,,,,,,,,,,,,,,,,,,,,,,,,,,
right,0.559999943,1,149,1,0,1,0,1,0,1,0,240,94,1,239,2,3,3,stim/33.jpeg,HouseObjects,2,stim/objects/HouseObjects/thermometer.png,0.7,2,0.2,0.15,right,73,2020-12-12_10h06.45.254,premup-three_ses-02_part-02_label-phase2,3.2.4,Win32,60,,,,,,,,,,,,,,,,,,,,,,,,,,,,,
right,0.537999868,1,150,1,0,1,0,1,0,1,0,240,107,1,239,2,3,4,stim/34.jpeg,HouseObjects,2,stim/objects/HouseObjects/thread.png,0.7,2,0.2,0.15,right,73,2020-12-12_10h06.45.254,premup-three_ses-02_part-02_label-phase2,3.2.4,Win32,60,,,,,,,,,,,,,,,,,,,,,,,,,,,,,
left,0.555000067,1,151,1,0,1,0,1,0,1,0,240,90,1,239,2,3,3,stim/33.jpeg,Instruments,1,stim/objects/Instruments/trumpet.png,0.3,4,0.2,-0.15,left,73,2020-12-12_10h06.45.254,premup-three_ses-02_part-02_label-phase2,3.2.4,Win32,60,,,,,,,,,,,,,,,,,,,,,,,,,,,,,
left,0.500999928,0,152,1,0,1,0,1,0,1,0,240,118,1,239,2,3,3,stim/33.jpeg,HouseObjects,2,stim/objects/HouseObjects/thermometer.png,0.7,4,0.2,-0.15,right,73,2020-12-12_10h06.45.254,premup-three_ses-02_part-02_label-phase2,3.2.4,Win32,60,,,,,,,,,,,,,,,,,,,,,,,,,,,,,
right,0.782999992,0,153,1,0,1,0,1,0,1,0,240,134,1,239,2,4,3,stim/43.jpeg,Instruments,1,stim/objects/Instruments/record2.png,0.7,1,-0.2,0.15,left,73,2020-12-12_10h06.45.254,premup-three_ses-02_part-02_label-phase2,3.2.4,Win32,60,,,,,,,,,,,,,,,,,,,,,,,,,,,,,
right,0.789999962,0,154,1,0,1,0,1,0,1,0,240,17,1,239,1,1,2,stim/12.jpeg,Instruments,1,stim/objects/Instruments/pipepiano.png,0.5,4,0.2,-0.15,left,73,2020-12-12_10h06.45.254,premup-three_ses-02_part-02_label-phase2,3.2.4,Win32,60,,,,,,,,,,,,,,,,,,,,,,,,,,,,,
left,0.677000046,1,155,1,0,1,0,1,0,1,0,240,125,1,239,2,4,2,stim/42.jpeg,Instruments,1,stim/objects/Instruments/pipepiano2.png,0.7,4,0.2,-0.15,left,73,2020-12-12_10h06.45.254,premup-three_ses-02_part-02_label-phase2,3.2.4,Win32,60,,,,,,,,,,,,,,,,,,,,,,,,,,,,,
right,0.638000011,1,156,1,0,1,0,1,0,1,0,240,179,1,239,3,5,4,stim/54.jpeg,HouseObjects,2,stim/objects/HouseObjects/sponge2.png,0.9,3,-0.2,-0.15,right,73,2020-12-12_10h06.45.254,premup-three_ses-02_part-02_label-phase2,3.2.4,Win32,60,,,,,,,,,,,,,,,,,,,,,,,,,,,,,
left,0.603999853,0,157,1,0,1,0,1,0,1,0,240,111,1,239,2,3,4,stim/34.jpeg,HouseObjects,2,stim/objects/HouseObjects/thread.png,0.7,2,0.2,0.15,right,73,2020-12-12_10h06.45.254,premup-three_ses-02_part-02_label-phase2,3.2.4,Win32,60,,,,,,,,,,,,,,,,,,,,,,,,,,,,,
right,0.664000034,1,158,1,0,1,0,1,0,1,0,240,38,1,239,1,1,3,stim/13.jpeg,HouseObjects,2,stim/objects/HouseObjects/rubbergloves.png,0.5,2,0.2,0.15,right,73,2020-12-12_10h06.45.254,premup-three_ses-02_part-02_label-phase2,3.2.4,Win32,60,,,,,,,,,,,,,,,,,,,,,,,,,,,,,
right,0.617000103,1,159,1,0,1,0,1,0,1,0,240,70,1,239,1,2,3,stim/23.jpeg,HouseObjects,2,stim/objects/HouseObjects/scale.png,0.5,4,0.2,-0.15,right,73,2020-12-12_10h06.45.254,premup-three_ses-02_part-02_label-phase2,3.2.4,Win32,60,,,,,,,,,,,,,,,,,,,,,,,,,,,,,
left,0.513999939,1,160,1,0,1,0,1,0,1,0,240,208,1,239,3,6,1,stim/61.jpeg,Instruments,1,stim/objects/Instruments/triangle2.png,0.9,2,0.2,0.15,left,73,2020-12-12_10h06.45.254,premup-three_ses-02_part-02_label-phase2,3.2.4,Win32,60,,,,,,,,,,,,,,,,,,,,,,,,,,,,,
right,0.575999975,0,161,1,0,1,0,1,0,1,0,240,51,1,239,1,2,4,stim/24.jpeg,Instruments,1,stim/objects/Instruments/timbal.png,0.5,4,0.2,-0.15,left,73,2020-12-12_10h06.45.254,premup-three_ses-02_part-02_label-phase2,3.2.4,Win32,60,,,,,,,,,,,,,,,,,,,,,,,,,,,,,
left,0.585999966,1,162,1,0,1,0,1,0,1,0,240,139,1,239,2,4,4,stim/44.jpeg,Instruments,1,stim/objects/Instruments/record_player2.png,0.7,1,-0.2,0.15,left,73,2020-12-12_10h06.45.254,premup-three_ses-02_part-02_label-phase2,3.2.4,Win32,60,,,,,,,,,,,,,,,,,,,,,,,,,,,,,
left,0.835000038,1,163,1,0,1,0,1,0,1,0,240,141,1,239,2,4,2,stim/42.jpeg,Instruments,1,stim/objects/Instruments/pipepiano2.png,0.7,3,-0.2,-0.15,left,73,2020-12-12_10h06.45.254,premup-three_ses-02_part-02_label-phase2,3.2.4,Win32,60,,,,,,,,,,,,,,,,,,,,,,,,,,,,,
right,0.59100008,0,164,1,0,1,0,1,0,1,0,240,50,1,239,1,2,3,stim/23.jpeg,Instruments,1,stim/objects/Instruments/tambourine.png,0.5,4,0.2,-0.15,left,73,2020-12-12_10h06.45.254,premup-three_ses-02_part-02_label-phase2,3.2.4,Win32,60,,,,,,,,,,,,,,,,,,,,,,,,,,,,,
left,0.808000088,0,165,1,0,1,0,1,0,1,0,240,93,1,239,2,3,2,stim/32.jpeg,HouseObjects,2,stim/objects/HouseObjects/teapot.png,0.7,1,-0.2,0.15,right,73,2020-12-12_10h06.45.254,premup-three_ses-02_part-02_label-phase2,3.2.4,Win32,60,,,,,,,,,,,,,,,,,,,,,,,,,,,,,
left,0.501999855,1,166,1,0,1,0,1,0,1,0,240,202,1,239,3,6,3,stim/63.jpeg,Instruments,1,stim/objects/Instruments/trumpet2.png,0.9,4,0.2,-0.15,left,73,2020-12-12_10h06.45.254,premup-three_ses-02_part-02_label-phase2,3.2.4,Win32,60,,,,,,,,,,,,,,,,,,,,,,,,,,,,,
left,0.490999937,1,167,1,0,1,0,1,0,1,0,240,209,1,239,3,6,2,stim/62.jpeg,Instruments,1,stim/objects/Instruments/trombone2.png,0.9,4,0.2,-0.15,left,73,2020-12-12_10h06.45.254,premup-three_ses-02_part-02_label-phase2,3.2.4,Win32,60,,,,,,,,,,,,,,,,,,,,,,,,,,,,,
right,0.566999912,1,168,1,0,1,0,1,0,1,0,240,182,1,239,3,5,3,stim/53.jpeg,HouseObjects,2,stim/objects/HouseObjects/scale2.png,0.9,1,-0.2,0.15,right,73,2020-12-12_10h06.45.254,premup-three_ses-02_part-02_label-phase2,3.2.4,Win32,60,,,,,,,,,,,,,,,,,,,,,,,,,,,,,
right,0.45299983,1,169,1,0,1,0,1,0,1,0,240,26,1,239,1,1,3,stim/13.jpeg,HouseObjects,2,stim/objects/HouseObjects/rubbergloves.png,0.5,4,0.2,-0.15,right,73,2020-12-12_10h06.45.254,premup-three_ses-02_part-02_label-phase2,3.2.4,Win32,60,,,,,,,,,,,,,,,,,,,,,,,,,,,,,
left,0.507999897,0,170,1,0,1,0,1,0,1,0,240,181,1,239,3,5,2,stim/52.jpeg,HouseObjects,2,stim/objects/HouseObjects/saw2.png,0.9,4,0.2,-0.15,right,73,2020-12-12_10h06.45.254,premup-three_ses-02_part-02_label-phase2,3.2.4,Win32,60,,,,,,,,,,,,,,,,,,,,,,,,,,,,,
right,0.530999899,0,171,1,0,1,0,1,0,1,0,240,163,1,239,3,5,4,stim/54.jpeg,Instruments,1,stim/objects/Instruments/timbal2.png,0.1,1,-0.2,0.15,left,73,2020-12-12_10h06.45.254,premup-three_ses-02_part-02_label-phase2,3.2.4,Win32,60,,,,,,,,,,,,,,,,,,,,,,,,,,,,,
left,0.595999718,1,172,1,0,1,0,1,0,1,0,240,216,1,239,3,6,1,stim/61.jpeg,Instruments,1,stim/objects/Instruments/triangle2.png,0.9,2,0.2,0.15,left,73,2020-12-12_10h06.45.254,premup-three_ses-02_part-02_label-phase2,3.2.4,Win32,60,,,,,,,,,,,,,,,,,,,,,,,,,,,,,
right,0.496999979,0,173,1,0,1,0,1,0,1,0,240,43,1,239,1,2,4,stim/24.jpeg,Instruments,1,stim/objects/Instruments/timbal.png,0.5,3,-0.2,-0.15,left,73,2020-12-12_10h06.45.254,premup-three_ses-02_part-02_label-phase2,3.2.4,Win32,60,,,,,,,,,,,,,,,,,,,,,,,,,,,,,
left,0.656999826,0,174,1,0,1,0,1,0,1,0,240,239,1,239,3,6,4,stim/64.jpeg,HouseObjects,2,stim/objects/HouseObjects/thread2.png,0.1,4,0.2,-0.15,right,73,2020-12-12_10h06.45.254,premup-three_ses-02_part-02_label-phase2,3.2.4,Win32,60,,,,,,,,,,,,,,,,,,,,,,,,,,,,,
left,0.674000025,0,175,1,0,1,0,1,0,1,0,240,158,1,239,2,4,3,stim/43.jpeg,HouseObjects,2,stim/objects/HouseObjects/rubbergloves2.png,0.3,4,0.2,-0.15,right,73,2020-12-12_10h06.45.254,premup-three_ses-02_part-02_label-phase2,3.2.4,Win32,60,,,,,,,,,,,,,,,,,,,,,,,,,,,,,
right,0.527999878,1,176,1,0,1,0,1,0,1,0,240,178,1,239,3,5,3,stim/53.jpeg,HouseObjects,2,stim/objects/HouseObjects/scale2.png,0.9,1,-0.2,0.15,right,73,2020-12-12_10h06.45.254,premup-three_ses-02_part-02_label-phase2,3.2.4,Win32,60,,,,,,,,,,,,,,,,,,,,,,,,,,,,,
left,0.542999744,0,177,1,0,1,0,1,0,1,0,240,153,1,239,2,4,2,stim/42.jpeg,HouseObjects,2,stim/objects/HouseObjects/remote2.png,0.3,2,0.2,0.15,right,73,2020-12-12_10h06.45.254,premup-three_ses-02_part-02_label-phase2,3.2.4,Win32,60,,,,,,,,,,,,,,,,,,,,,,,,,,,,,
right,0.582999945,1,178,1,0,1,0,1,0,1,0,240,192,1,239,3,5,1,stim/51.jpeg,HouseObjects,2,stim/objects/HouseObjects/safetypin2.png,0.9,1,-0.2,0.15,right,73,2020-12-12_10h06.45.254,premup-three_ses-02_part-02_label-phase2,3.2.4,Win32,60,,,,,,,,,,,,,,,,,,,,,,,,,,,,,
left,0.561999798,1,179,1,0,1,0,1,0,1,0,240,121,1,239,2,4,2,stim/42.jpeg,Instruments,1,stim/objects/Instruments/pipepiano2.png,0.7,3,-0.2,-0.15,left,73,2020-12-12_10h06.45.254,premup-three_ses-02_part-02_label-phase2,3.2.4,Win32,60,,,,,,,,,,,,,,,,,,,,,,,,,,,,,
right,0.457999945,0,180,1,0,1,0,1,0,1,0,240,18,1,239,1,1,3,stim/13.jpeg,Instruments,1,stim/objects/Instruments/record.png,0.5,1,-0.2,0.15,left,73,2020-12-12_10h06.45.254,premup-three_ses-02_part-02_label-phase2,3.2.4,Win32,60,,,,,,,,,,,,,,,,,,,,,,,,,,,,,
right,0.61500001,1,181,1,0,1,0,1,0,1,0,240,117,1,239,2,3,2,stim/32.jpeg,HouseObjects,2,stim/objects/HouseObjects/teapot.png,0.7,1,-0.2,0.15,right,73,2020-12-12_10h06.45.254,premup-three_ses-02_part-02_label-phase2,3.2.4,Win32,60,,,,,,,,,,,,,,,,,,,,,,,,,,,,,
left,0.517999887,1,182,1,0,1,0,1,0,1,0,240,229,1,239,3,6,2,stim/62.jpeg,Instruments,1,stim/objects/Instruments/trombone2.png,0.9,4,0.2,-0.15,left,73,2020-12-12_10h06.45.254,premup-three_ses-02_part-02_label-phase2,3.2.4,Win32,60,,,,,,,,,,,,,,,,,,,,,,,,,,,,,
right,0.440999985,1,183,1,0,1,0,1,0,1,0,240,168,1,239,3,5,1,stim/51.jpeg,HouseObjects,2,stim/objects/HouseObjects/safetypin2.png,0.9,2,0.2,0.15,right,73,2020-12-12_10h06.45.254,premup-three_ses-02_part-02_label-phase2,3.2.4,Win32,60,,,,,,,,,,,,,,,,,,,,,,,,,,,,,
right,0.521999836,1,184,1,0,1,0,1,0,1,0,240,109,1,239,2,3,2,stim/32.jpeg,HouseObjects,2,stim/objects/HouseObjects/teapot.png,0.7,1,-0.2,0.15,right,73,2020-12-12_10h06.45.254,premup-three_ses-02_part-02_label-phase2,3.2.4,Win32,60,,,,,,,,,,,,,,,,,,,,,,,,,,,,,
right,0.464999914,1,185,1,0,1,0,1,0,1,0,240,164,1,239,3,5,1,stim/51.jpeg,HouseObjects,2,stim/objects/HouseObjects/safetypin2.png,0.9,2,0.2,0.15,right,73,2020-12-12_10h06.45.254,premup-three_ses-02_part-02_label-phase2,3.2.4,Win32,60,,,,,,,,,,,,,,,,,,,,,,,,,,,,,
left,0.769999743,0,186,1,0,1,0,1,0,1,0,240,25,1,239,1,1,2,stim/12.jpeg,HouseObjects,2,stim/objects/HouseObjects/remote.png,0.5,2,0.2,0.15,right,73,2020-12-12_10h06.45.254,premup-three_ses-02_part-02_label-phase2,3.2.4,Win32,60,,,,,,,,,,,,,,,,,,,,,,,,,,,,,
right,0.60800004,1,187,1,0,1,0,1,0,1,0,240,65,1,239,1,2,2,stim/22.jpeg,HouseObjects,2,stim/objects/HouseObjects/saw.png,0.5,2,0.2,0.15,right,73,2020-12-12_10h06.45.254,premup-three_ses-02_part-02_label-phase2,3.2.4,Win32,60,,,,,,,,,,,,,,,,,,,,,,,,,,,,,
left,0.571000099,1,188,1,0,1,0,1,0,1,0,240,213,1,239,3,6,2,stim/62.jpeg,Instruments,1,stim/objects/Instruments/trombone2.png,0.9,1,-0.2,0.15,left,73,2020-12-12_10h06.45.254,premup-three_ses-02_part-02_label-phase2,3.2.4,Win32,60,,,,,,,,,,,,,,,,,,,,,,,,,,,,,
right,0.64199996,1,189,1,0,1,0,1,0,1,0,240,97,1,239,2,3,2,stim/32.jpeg,HouseObjects,2,stim/objects/HouseObjects/teapot.png,0.7,4,0.2,-0.15,right,73,2020-12-12_10h06.45.254,premup-three_ses-02_part-02_label-phase2,3.2.4,Win32,60,,,,,,,,,,,,,,,,,,,,,,,,,,,,,
right,0.546999931,0,190,1,0,1,0,1,0,1,0,240,87,1,239,2,3,4,stim/34.jpeg,Instruments,1,stim/objects/Instruments/tuba.png,0.3,2,0.2,0.15,left,73,2020-12-12_10h06.45.254,premup-three_ses-02_part-02_label-phase2,3.2.4,Win32,60,,,,,,,,,,,,,,,,,,,,,,,,,,,,,
right,0.914999962,1,191,1,0,1,0,1,0,1,0,240,174,1,239,3,5,3,stim/53.jpeg,HouseObjects,2,stim/objects/HouseObjects/scale2.png,0.9,2,0.2,0.15,right,73,2020-12-12_10h06.45.254,premup-three_ses-02_part-02_label-phase2,3.2.4,Win32,60,,,,,,,,,,,,,,,,,,,,,,,,,,,,,
left,0.476999998,1,192,1,0,1,0,1,0,1,0,240,200,1,239,3,6,1,stim/61.jpeg,Instruments,1,stim/objects/Instruments/triangle2.png,0.9,3,-0.2,-0.15,left,73,2020-12-12_10h06.45.254,premup-three_ses-02_part-02_label-phase2,3.2.4,Win32,60,,,,,,,,,,,,,,,,,,,,,,,,,,,,,
left,0.638999939,0,193,1,0,1,0,1,0,1,0,240,155,1,239,2,4,4,stim/44.jpeg,HouseObjects,2,stim/objects/HouseObjects/rug2.png,0.3,2,0.2,0.15,right,73,2020-12-12_10h06.45.254,premup-three_ses-02_part-02_label-phase2,3.2.4,Win32,60,,,,,,,,,,,,,,,,,,,,,,,,,,,,,
right,0.652999878,1,194,1,0,1,0,1,0,1,0,240,197,1,239,3,5,2,stim/52.jpeg,HouseObjects,2,stim/objects/HouseObjects/saw2.png,0.9,2,0.2,0.15,right,73,2020-12-12_10h06.45.254,premup-three_ses-02_part-02_label-phase2,3.2.4,Win32,60,,,,,,,,,,,,,,,,,,,,,,,,,,,,,
left,0.707999945,1,195,1,0,1,0,1,0,1,0,240,133,1,239,2,4,2,stim/42.jpeg,Instruments,1,stim/objects/Instruments/pipepiano2.png,0.7,1,-0.2,0.15,left,73,2020-12-12_10h06.45.254,premup-three_ses-02_part-02_label-phase2,3.2.4,Win32,60,,,,,,,,,,,,,,,,,,,,,,,,,,,,,
left,0.603999853,1,196,1,0,1,0,1,0,1,0,240,223,1,239,3,6,4,stim/64.jpeg,Instruments,1,stim/objects/Instruments/tuba2.png,0.9,2,0.2,0.15,left,73,2020-12-12_10h06.45.254,premup-three_ses-02_part-02_label-phase2,3.2.4,Win32,60,,,,,,,,,,,,,,,,,,,,,,,,,,,,,
right,0.576999903,1,197,1,0,1,0,1,0,1,0,240,159,1,239,2,4,4,stim/44.jpeg,HouseObjects,2,stim/objects/HouseObjects/rug2.png,0.3,1,-0.2,0.15,right,73,2020-12-12_10h06.45.254,premup-three_ses-02_part-02_label-phase2,3.2.4,Win32,60,,,,,,,,,,,,,,,,,,,,,,,,,,,,,
right,0.507999897,0,198,1,0,1,0,1,0,1,0,240,47,1,239,1,2,4,stim/24.jpeg,Instruments,1,stim/objects/Instruments/timbal.png,0.5,3,-0.2,-0.15,left,73,2020-12-12_10h06.45.254,premup-three_ses-02_part-02_label-phase2,3.2.4,Win32,60,,,,,,,,,,,,,,,,,,,,,,,,,,,,,
right,0.597999811,1,199,1,0,1,0,1,0,1,0,240,199,1,239,3,5,4,stim/54.jpeg,HouseObjects,2,stim/objects/HouseObjects/sponge2.png,0.9,4,0.2,-0.15,right,73,2020-12-12_10h06.45.254,premup-three_ses-02_part-02_label-phase2,3.2.4,Win32,60,,,,,,,,,,,,,,,,,,,,,,,,,,,,,
right,0.785000086,0,200,1,0,1,0,1,0,1,0,240,3,1,239,1,1,4,stim/14.jpeg,Instruments,1,stim/objects/Instruments/record_player.png,0.5,4,0.2,-0.15,left,73,2020-12-12_10h06.45.254,premup-three_ses-02_part-02_label-phase2,3.2.4,Win32,60,,,,,,,,,,,,,,,,,,,,,,,,,,,,,
right,0.644999981,1,201,1,0,1,0,1,0,1,0,240,184,1,239,3,5,1,stim/51.jpeg,HouseObjects,2,stim/objects/HouseObjects/safetypin2.png,0.9,4,0.2,-0.15,right,73,2020-12-12_10h06.45.254,premup-three_ses-02_part-02_label-phase2,3.2.4,Win32,60,,,,,,,,,,,,,,,,,,,,,,,,,,,,,
right,0.625,1,202,1,0,1,0,1,0,1,0,240,96,1,239,2,3,1,stim/31.jpeg,HouseObjects,2,stim/objects/HouseObjects/spraybottle.png,0.7,4,0.2,-0.15,right,73,2020-12-12_10h06.45.254,premup-three_ses-02_part-02_label-phase2,3.2.4,Win32,60,,,,,,,,,,,,,,,,,,,,,,,,,,,,,
left,0.849999905,0,203,1,0,1,0,1,0,1,0,240,68,1,239,1,2,1,stim/21.jpeg,HouseObjects,2,stim/objects/HouseObjects/safetypin.png,0.5,3,-0.2,-0.15,right,73,2020-12-12_10h06.45.254,premup-three_ses-02_part-02_label-phase2,3.2.4,Win32,60,,,,,,,,,,,,,,,,,,,,,,,,,,,,,
right,0.599999905,1,204,1,0,1,0,1,0,1,0,240,189,1,239,3,5,2,stim/52.jpeg,HouseObjects,2,stim/objects/HouseObjects/saw2.png,0.9,3,-0.2,-0.15,right,73,2020-12-12_10h06.45.254,premup-three_ses-02_part-02_label-phase2,3.2.4,Win32,60,,,,,,,,,,,,,,,,,,,,,,,,,,,,,
left,0.75999999,1,205,1,0,1,0,1,0,1,0,240,130,1,239,2,4,3,stim/43.jpeg,Instruments,1,stim/objects/Instruments/record2.png,0.7,4,0.2,-0.15,left,73,2020-12-12_10h06.45.254,premup-three_ses-02_part-02_label-phase2,3.2.4,Win32,60,,,,,,,,,,,,,,,,,,,,,,,,,,,,,
right,0.515999794,0,206,1,0,1,0,1,0,1,0,240,49,1,239,1,2,2,stim/22.jpeg,Instruments,1,stim/objects/Instruments/speaker.png,0.5,4,0.2,-0.15,left,73,2020-12-12_10h06.45.254,premup-three_ses-02_part-02_label-phase2,3.2.4,Win32,60,,,,,,,,,,,,,,,,,,,,,,,,,,,,,
left,0.496999979,0,207,1,0,1,0,1,0,1,0,240,237,1,239,3,6,2,stim/62.jpeg,HouseObjects,2,stim/objects/HouseObjects/teapot2.png,0.1,1,-0.2,0.15,right,73,2020-12-12_10h06.45.254,premup-three_ses-02_part-02_label-phase2,3.2.4,Win32,60,,,,,,,,,,,,,,,,,,,,,,,,,,,,,
right,0.589999914,1,208,1,0,1,0,1,0,1,0,240,100,1,239,2,3,1,stim/31.jpeg,HouseObjects,2,stim/objects/HouseObjects/spraybottle.png,0.7,4,0.2,-0.15,right,73,2020-12-12_10h06.45.254,premup-three_ses-02_part-02_label-phase2,3.2.4,Win32,60,,,,,,,,,,,,,,,,,,,,,,,,,,,,,
right,0.548000097,0,209,1,0,1,0,1,0,1,0,240,88,1,239,2,3,1,stim/31.jpeg,Instruments,1,stim/objects/Instruments/triangle.png,0.3,3,-0.2,-0.15,left,73,2020-12-12_10h06.45.254,premup-three_ses-02_part-02_label-phase2,3.2.4,Win32,60,,,,,,,,,,,,,,,,,,,,,,,,,,,,,
right,0.859999895,1,210,1,0,1,0,1,0,1,0,240,110,1,239,2,3,3,stim/33.jpeg,HouseObjects,2,stim/objects/HouseObjects/thermometer.png,0.7,2,0.2,0.15,right,73,2020-12-12_10h06.45.254,premup-three_ses-02_part-02_label-phase2,3.2.4,Win32,60,,,,,,,,,,,,,,,,,,,,,,,,,,,,,
left,0.697999954,0,211,1,0,1,0,1,0,1,0,240,77,1,239,1,2,2,stim/22.jpeg,HouseObjects,2,stim/objects/HouseObjects/saw.png,0.5,3,-0.2,-0.15,right,73,2020-12-12_10h06.45.254,premup-three_ses-02_part-02_label-phase2,3.2.4,Win32,60,,,,,,,,,,,,,,,,,,,,,,,,,,,,,
left,0.785000086,1,212,1,0,1,0,1,0,1,0,240,120,1,239,2,4,1,stim/41.jpeg,Instruments,1,stim/objects/Instruments/panflute2.png,0.7,2,0.2,0.15,left,73,2020-12-12_10h06.45.254,premup-three_ses-02_part-02_label-phase2,3.2.4,Win32,60,,,,,,,,,,,,,,,,,,,,,,,,,,,,,
left,0.532000065,1,213,1,0,1,0,1,0,1,0,240,204,1,239,3,6,1,stim/61.jpeg,Instruments,1,stim/objects/Instruments/triangle2.png,0.9,3,-0.2,-0.15,left,73,2020-12-12_10h06.45.254,premup-three_ses-02_part-02_label-phase2,3.2.4,Win32,60,,,,,,,,,,,,,,,,,,,,,,,,,,,,,
right,0.392999887,0,214,1,0,1,0,1,0,1,0,240,19,1,239,1,1,4,stim/14.jpeg,Instruments,1,stim/objects/Instruments/record_player.png,0.5,1,-0.2,0.15,left,73,2020-12-12_10h06.45.254,premup-three_ses-02_part-02_label-phase2,3.2.4,Win32,60,,,,,,,,,,,,,,,,,,,,,,,,,,,,,
left,0.546999931,1,215,1,0,1,0,1,0,1,0,240,221,1,239,3,6,2,stim/62.jpeg,Instruments,1,stim/objects/Instruments/trombone2.png,0.9,1,-0.2,0.15,left,73,2020-12-12_10h06.45.254,premup-three_ses-02_part-02_label-phase2,3.2.4,Win32,60,,,,,,,,,,,,,,,,,,,,,,,,,,,,,
right,0.589999914,1,216,1,0,1,0,1,0,1,0,240,167,1,239,3,5,4,stim/54.jpeg,HouseObjects,2,stim/objects/HouseObjects/sponge2.png,0.9,1,-0.2,0.15,right,73,2020-12-12_10h06.45.254,premup-three_ses-02_part-02_label-phase2,3.2.4,Win32,60,,,,,,,,,,,,,,,,,,,,,,,,,,,,,
right,0.634000063,1,217,1,0,1,0,1,0,1,0,240,166,1,239,3,5,3,stim/53.jpeg,HouseObjects,2,stim/objects/HouseObjects/scale2.png,0.9,2,0.2,0.15,right,73,2020-12-12_10h06.45.254,premup-three_ses-02_part-02_label-phase2,3.2.4,Win32,60,,,,,,,,,,,,,,,,,,,,,,,,,,,,,
left,0.63499999,0,218,1,0,1,0,1,0,1,0,240,79,1,239,1,2,4,stim/24.jpeg,HouseObjects,2,stim/objects/HouseObjects/sponge.png,0.5,2,0.2,0.15,right,73,2020-12-12_10h06.45.254,premup-three_ses-02_part-02_label-phase2,3.2.4,Win32,60,,,,,,,,,,,,,,,,,,,,,,,,,,,,,
left,0.468999863,1,219,1,0,1,0,1,0,1,0,240,201,1,239,3,6,2,stim/62.jpeg,Instruments,1,stim/objects/Instruments/trombone2.png,0.9,1,-0.2,0.15,left,73,2020-12-12_10h06.45.254,premup-three_ses-02_part-02_label-phase2,3.2.4,Win32,60,,,,,,,,,,,,,,,,,,,,,,,,,,,,,
,,0,220,1,0,1,0,1,0,1,0,240,4,1,239,1,1,1,stim/11.jpeg,Instruments,1,stim/objects/Instruments/panflute.png,0.5,1,-0.2,0.15,left,73,2020-12-12_10h06.45.254,premup-three_ses-02_part-02_label-phase2,3.2.4,Win32,60,,,,,,,,,,,,,,,,,,,,,,,,,,,,,
right,0.513000011,1,221,1,0,1,0,1,0,1,0,240,99,1,239,2,3,4,stim/34.jpeg,HouseObjects,2,stim/objects/HouseObjects/thread.png,0.7,4,0.2,-0.15,right,73,2020-12-12_10h06.45.254,premup-three_ses-02_part-02_label-phase2,3.2.4,Win32,60,,,,,,,,,,,,,,,,,,,,,,,,,,,,,
right,0.513999939,0,222,1,0,1,0,1,0,1,0,240,54,1,239,1,2,3,stim/23.jpeg,Instruments,1,stim/objects/Instruments/tambourine.png,0.5,4,0.2,-0.15,left,73,2020-12-12_10h06.45.254,premup-three_ses-02_part-02_label-phase2,3.2.4,Win32,60,,,,,,,,,,,,,,,,,,,,,,,,,,,,,
left,0.677999973,0,223,1,0,1,0,1,0,1,0,240,64,1,239,1,2,1,stim/21.jpeg,HouseObjects,2,stim/objects/HouseObjects/safetypin.png,0.5,4,0.2,-0.15,right,73,2020-12-12_10h06.45.254,premup-three_ses-02_part-02_label-phase2,3.2.4,Win32,60,,,,,,,,,,,,,,,,,,,,,,,,,,,,,
right,0.517999887,0,224,1,0,1,0,1,0,1,0,240,55,1,239,1,2,4,stim/24.jpeg,Instruments,1,stim/objects/Instruments/timbal.png,0.5,2,0.2,0.15,left,73,2020-12-12_10h06.45.254,premup-three_ses-02_part-02_label-phase2,3.2.4,Win32,60,,,,,,,,,,,,,,,,,,,,,,,,,,,,,
right,0.697999954,0,225,1,0,1,0,1,0,1,0,240,15,1,239,1,1,4,stim/14.jpeg,Instruments,1,stim/objects/Instruments/record_player.png,0.5,3,-0.2,-0.15,left,73,2020-12-12_10h06.45.254,premup-three_ses-02_part-02_label-phase2,3.2.4,Win32,60,,,,,,,,,,,,,,,,,,,,,,,,,,,,,
left,0.672999859,1,226,1,0,1,0,1,0,1,0,240,131,1,239,2,4,4,stim/44.jpeg,Instruments,1,stim/objects/Instruments/record_player2.png,0.7,1,-0.2,0.15,left,73,2020-12-12_10h06.45.254,premup-three_ses-02_part-02_label-phase2,3.2.4,Win32,60,,,,,,,,,,,,,,,,,,,,,,,,,,,,,
right,0.640999794,1,227,1,0,1,0,1,0,1,0,240,21,1,239,1,1,2,stim/12.jpeg,HouseObjects,2,stim/objects/HouseObjects/remote.png,0.5,2,0.2,0.15,right,73,2020-12-12_10h06.45.254,premup-three_ses-02_part-02_label-phase2,3.2.4,Win32,60,,,,,,,,,,,,,,,,,,,,,,,,,,,,,
left,0.540999889,1,228,1,0,1,0,1,0,1,0,240,232,1,239,3,6,1,stim/61.jpeg,Instruments,1,stim/objects/Instruments/triangle2.png,0.9,2,0.2,0.15,left,73,2020-12-12_10h06.45.254,premup-three_ses-02_part-02_label-phase2,3.2.4,Win32,60,,,,,,,,,,,,,,,,,,,,,,,,,,,,,
right,0.544999838,0,229,1,0,1,0,1,0,1,0,240,136,1,239,2,4,1,stim/41.jpeg,Instruments,1,stim/objects/Instruments/panflute2.png,0.7,3,-0.2,-0.15,left,73,2020-12-12_10h06.45.254,premup-three_ses-02_part-02_label-phase2,3.2.4,Win32,60,,,,,,,,,,,,,,,,,,,,,,,,,,,,,
right,0.65199995,0,230,1,0,1,0,1,0,1,0,240,2,1,239,1,1,3,stim/13.jpeg,Instruments,1,stim/objects/Instruments/record.png,0.5,3,-0.2,-0.15,left,73,2020-12-12_10h06.45.254,premup-three_ses-02_part-02_label-phase2,3.2.4,Win32,60,,,,,,,,,,,,,,,,,,,,,,,,,,,,,
right,0.471999884,1,231,1,0,1,0,1,0,1,0,240,105,1,239,2,3,2,stim/32.jpeg,HouseObjects,2,stim/objects/HouseObjects/teapot.png,0.7,4,0.2,-0.15,right,73,2020-12-12_10h06.45.254,premup-three_ses-02_part-02_label-phase2,3.2.4,Win32,60,,,,,,,,,,,,,,,,,,,,,,,,,,,,,
right,0.623999834,0,232,1,0,1,0,1,0,1,0,240,89,1,239,2,3,2,stim/32.jpeg,Instruments,1,stim/objects/Instruments/trombone.png,0.3,3,-0.2,-0.15,left,73,2020-12-12_10h06.45.254,premup-three_ses-02_part-02_label-phase2,3.2.4,Win32,60,,,,,,,,,,,,,,,,,,,,,,,,,,,,,
left,0.936999798,1,233,1,0,1,0,1,0,1,0,240,10,1,239,1,1,3,stim/13.jpeg,Instruments,1,stim/objects/Instruments/record.png,0.5,3,-0.2,-0.15,left,73,2020-12-12_10h06.45.254,premup-three_ses-02_part-02_label-phase2,3.2.4,Win32,60,,,,,,,,,,,,,,,,,,,,,,,,,,,,,
right,0.496999979,1,234,1,0,1,0,1,0,1,0,240,180,1,239,3,5,1,stim/51.jpeg,HouseObjects,2,stim/objects/HouseObjects/safetypin2.png,0.9,4,0.2,-0.15,right,73,2020-12-12_10h06.45.254,premup-three_ses-02_part-02_label-phase2,3.2.4,Win32,60,,,,,,,,,,,,,,,,,,,,,,,,,,,,,
left,0.563999891,1,235,1,0,1,0,1,0,1,0,240,129,1,239,2,4,2,stim/42.jpeg,Instruments,1,stim/objects/Instruments/pipepiano2.png,0.7,1,-0.2,0.15,left,73,2020-12-12_10h06.45.254,premup-three_ses-02_part-02_label-phase2,3.2.4,Win32,60,,,,,,,,,,,,,,,,,,,,,,,,,,,,,
right,0.444999933,0,236,1,0,1,0,1,0,1,0,240,81,1,239,2,3,2,stim/32.jpeg,Instruments,1,stim/objects/Instruments/trombone.png,0.3,2,0.2,0.15,left,73,2020-12-12_10h06.45.254,premup-three_ses-02_part-02_label-phase2,3.2.4,Win32,60,,,,,,,,,,,,,,,,,,,,,,,,,,,,,
right,0.613000154,1,237,1,0,1,0,1,0,1,0,240,73,1,239,1,2,2,stim/22.jpeg,HouseObjects,2,stim/objects/HouseObjects/saw.png,0.5,1,-0.2,0.15,right,73,2020-12-12_10h06.45.254,premup-three_ses-02_part-02_label-phase2,3.2.4,Win32,60,,,,,,,,,,,,,,,,,,,,,,,,,,,,,
right,0.674000025,0,238,1,0,1,0,1,0,1,0,240,147,1,239,2,4,4,stim/44.jpeg,Instruments,1,stim/objects/Instruments/record_player2.png,0.7,2,0.2,0.15,left,73,2020-12-12_10h06.45.254,premup-three_ses-02_part-02_label-phase2,3.2.4,Win32,60,,,,,,,,,,,,,,,,,,,,,,,,,,,,,
left,0.805999994,0,239,1,0,1,0,1,0,1,0,240,238,1,239,3,6,3,stim/63.jpeg,HouseObjects,2,stim/objects/HouseObjects/thermometer2.png,0.1,4,0.2,-0.15,right,73,2020-12-12_10h06.45.254,premup-three_ses-02_part-02_label-phase2,3.2.4,Win32,60,,,,,,,,,,,,,,,,,,,,,,,,,,,,,
right,0.612999916,1,240,1,0,1,0,1,0,1,0,240,149,1,239,2,4,2,stim/42.jpeg,HouseObjects,2,stim/objects/HouseObjects/remote2.png,0.3,3,-0.2,-0.15,right,73,2020-12-12_10h06.45.254,premup-three_ses-02_part-02_label-phase2,3.2.4,Win32,60,,,,,,,,,,,,,,,,,,,,,,,,,,,,,
,,,,1,0,1,0,1,0,,,,,,,,3,,stim/31.jpeg,,,,,,,,,73,2020-12-12_10h06.45.254,premup-three_ses-02_part-02_label-phase2,3.2.4,Win32,60,30,5.934000015,,,1,0,6,2,1,5,Music items,65,75,Household items,25,35,,,,,,,,,,,,,
,,,,1,0,1,0,1,0,,,,,,,,4,,stim/41.jpeg,,,,,,,,,73,2020-12-12_10h06.45.254,premup-three_ses-02_part-02_label-phase2,3.2.4,Win32,60,20,3.352999926,,,1,0,6,3,1,5,Music items,65,75,Household items,25,35,,,,,,,,,,,,,
,,,,1,0,1,0,1,0,,,,,,,,5,,stim/51.jpeg,,,,,,,,,73,2020-12-12_10h06.45.254,premup-three_ses-02_part-02_label-phase2,3.2.4,Win32,60,10,5.433000088,,,1,0,6,4,1,5,Household items,5,15,Music items,85,95,,,,,,,,,,,,,
,,,,1,0,1,0,1,0,,,,,,,,2,,stim/21.jpeg,,,,,,,,,73,2020-12-12_10h06.45.254,premup-three_ses-02_part-02_label-phase2,3.2.4,Win32,60,30,3.437999964,,,1,0,6,1,1,5,Household items,45,55,Music items,45,55,,,,,,,,,,,,,
,,,,1,0,1,0,1,0,,,,,,,,6,,stim/61.jpeg,,,,,,,,,73,2020-12-12_10h06.45.254,premup-three_ses-02_part-02_label-phase2,3.2.4,Win32,60,90,2.70600009,,,1,0,6,5,1,5,Music items,5,15,Household items,85,95,,,,,,,,,,,,,
,,,,1,0,1,0,1,0,,,,,,,,1,,stim/11.jpeg,,,,,,,,,73,2020-12-12_10h06.45.254,premup-three_ses-02_part-02_label-phase2,3.2.4,Win32,60,39,5.327000141,,,1,0,6,0,1,5,Music items,45,55,Household items,45,55,,,,,,,,,,,,,
,,,,1,0,1,0,1,0,,,,,,,,,,,,,,,,,,,73,2020-12-12_10h06.45.254,premup-three_ses-02_part-02_label-phase2,3.2.4,Win32,60,,,,,,,,,,,,,,,,,,,,,,,,,,,,,
right,0.896999836,0,241,,,,,,,,,,,,,3,6,1,stim/61.jpeg,Instruments,1,stim/objects/Instruments/flutetrans3.png,0.9,3,-0.2,-0.15,left,73,2020-12-12_10h06.45.254,premup-three_ses-02_part-02_label-phase2,3.2.4,Win32,60,,,,,,,,,,,,,,,,,1,0,330,286,1,329,2,,,,,,
,,0,242,,,,,,,,,,,,,3,5,4,stim/54.jpeg,HouseObjects,2,stim/objects/HouseObjects/flyswatter3.png,0.9,4,0.2,-0.15,right,73,2020-12-12_10h06.45.254,premup-three_ses-02_part-02_label-phase2,3.2.4,Win32,60,,,,,,,,,,,,,,,,,1,0,330,197,1,329,2,,,,,,
left,0.480999947,0,243,,,,,,,,,,,,,3,5,3,stim/53.jpeg,HouseObjects,2,stim/objects/HouseObjects/dustpan3.png,0.9,1,-0.2,0.15,right,73,2020-12-12_10h06.45.254,premup-three_ses-02_part-02_label-phase2,3.2.4,Win32,60,,,,,,,,,,,,,,,,,1,0,330,196,1,329,2,,,,,,
right,0.707000017,1,244,,,,,,,,,,,,,1,2,3,stim/23.jpeg,HouseObjects,2,stim/objects/HouseObjects/clock3.png,0.5,4,0.2,-0.15,right,73,2020-12-12_10h06.45.254,premup-three_ses-02_part-02_label-phase2,3.2.4,Win32,60,,,,,,,,,,,,,,,,,1,0,330,54,1,329,2,,,,,,
left,0.523999929,1,245,,,,,,,,,,,,,3,6,3,stim/63.jpeg,Instruments,1,stim/objects/Instruments/flute3.png,0.9,3,-0.2,-0.15,left,73,2020-12-12_10h06.45.254,premup-three_ses-02_part-02_label-phase2,3.2.4,Win32,60,,,,,,,,,,,,,,,,,1,0,330,280,1,329,2,,,,,,
right,0.464999914,1,246,,,,,,,,,,,,,3,5,4,stim/54.jpeg,HouseObjects,2,stim/objects/HouseObjects/dustpan3.png,0.9,1,-0.2,0.15,right,73,2020-12-12_10h06.45.254,premup-three_ses-02_part-02_label-phase2,3.2.4,Win32,60,,,,,,,,,,,,,,,,,1,0,330,181,1,329,2,,,,,,
right,0.585999966,0,247,,,,,,,,,,,,,2,3,2,stim/32.jpeg,Instruments,1,stim/objects/Instruments/accordion4.png,0.3,4,0.2,-0.15,left,73,2020-12-12_10h06.45.254,premup-three_ses-02_part-02_label-phase2,3.2.4,Win32,60,,,,,,,,,,,,,,,,,1,0,330,65,1,329,1,,,,,,
right,0.672999859,1,248,,,,,,,,,,,,,1,1,1,stim/11.jpeg,HouseObjects,2,stim/objects/HouseObjects/ballofstring3.png,0.5,2,0.2,0.15,right,73,2020-12-12_10h06.45.254,premup-three_ses-02_part-02_label-phase2,3.2.4,Win32,60,,,,,,,,,,,,,,,,,1,0,330,16,1,329,2,,,,,,
right,0.522000074,1,249,,,,,,,,,,,,,3,5,3,stim/53.jpeg,HouseObjects,2,stim/objects/HouseObjects/doormat3.png,0.9,2,0.2,0.15,right,73,2020-12-12_10h06.45.254,premup-three_ses-02_part-02_label-phase2,3.2.4,Win32,60,,,,,,,,,,,,,,,,,1,0,330,180,1,329,2,,,,,,
left,0.591999769,1,250,,,,,,,,,,,,,2,4,1,stim/41.jpeg,Instruments,1,stim/objects/Instruments/electricguitar4.png,0.7,3,-0.2,-0.15,left,73,2020-12-12_10h06.45.254,premup-three_ses-02_part-02_label-phase2,3.2.4,Win32,60,,,,,,,,,,,,,,,,,1,0,330,119,1,329,1,,,,,,
left,0.529000044,1,251,,,,,,,,,,,,,3,6,3,stim/63.jpeg,Instruments,1,stim/objects/Instruments/frenchhorn3.png,0.9,3,-0.2,-0.15,left,73,2020-12-12_10h06.45.254,premup-three_ses-02_part-02_label-phase2,3.2.4,Win32,60,,,,,,,,,,,,,,,,,1,0,330,232,1,329,2,,,,,,
right,0.605999947,1,252,,,,,,,,,,,,,3,5,4,stim/54.jpeg,HouseObjects,2,stim/objects/HouseObjects/dustpan3.png,0.9,1,-0.2,0.15,right,73,2020-12-12_10h06.45.254,premup-three_ses-02_part-02_label-phase2,3.2.4,Win32,60,,,,,,,,,,,,,,,,,1,0,330,201,1,329,2,,,,,,
left,0.530999899,1,253,,,,,,,,,,,,,3,6,3,stim/63.jpeg,Instruments,1,stim/objects/Instruments/gong3.png,0.9,3,-0.2,-0.15,left,73,2020-12-12_10h06.45.254,premup-three_ses-02_part-02_label-phase2,3.2.4,Win32,60,,,,,,,,,,,,,,,,,1,0,330,268,1,329,2,,,,,,
left,0.596999884,1,254,,,,,,,,,,,,,3,6,3,stim/63.jpeg,Instruments,1,stim/objects/Instruments/flutetrans3.png,0.9,4,0.2,-0.15,left,73,2020-12-12_10h06.45.254,premup-three_ses-02_part-02_label-phase2,3.2.4,Win32,60,,,,,,,,,,,,,,,,,1,0,330,236,1,329,2,,,,,,
right,0.65899992,0,255,,,,,,,,,,,,,1,2,4,stim/24.jpeg,Instruments,1,stim/objects/Instruments/metronome3.png,0.5,2,0.2,0.15,left,73,2020-12-12_10h06.45.254,premup-three_ses-02_part-02_label-phase2,3.2.4,Win32,60,,,,,,,,,,,,,,,,,1,0,330,43,1,329,1,,,,,,
left,0.505999804,1,256,,,,,,,,,,,,,3,6,2,stim/62.jpeg,Instruments,1,stim/objects/Instruments/flute3.png,0.9,1,-0.2,0.15,left,73,2020-12-12_10h06.45.254,premup-three_ses-02_part-02_label-phase2,3.2.4,Win32,60,,,,,,,,,,,,,,,,,1,0,330,235,1,329,2,,,,,,
right,0.710000038,1,257,,,,,,,,,,,,,3,5,2,stim/52.jpeg,HouseObjects,2,stim/objects/HouseObjects/glass3.png,0.9,4,0.2,-0.15,right,73,2020-12-12_10h06.45.254,premup-three_ses-02_part-02_label-phase2,3.2.4,Win32,60,,,,,,,,,,,,,,,,,1,0,330,179,1,329,2,,,,,,
right,0.757999897,0,258,,,,,,,,,,,,,1,1,4,stim/14.jpeg,Instruments,1,stim/objects/Instruments/harmonica3.png,0.5,3,-0.2,-0.15,left,73,2020-12-12_10h06.45.254,premup-three_ses-02_part-02_label-phase2,3.2.4,Win32,60,,,,,,,,,,,,,,,,,1,0,330,11,1,329,1,,,,,,
right,0.790999889,0,259,,,,,,,,,,,,,1,2,3,stim/23.jpeg,Instruments,1,stim/objects/Instruments/bassguitar3.png,0.5,4,0.2,-0.15,left,73,2020-12-12_10h06.45.254,premup-three_ses-02_part-02_label-phase2,3.2.4,Win32,60,,,,,,,,,,,,,,,,,1,0,330,30,1,329,2,,,,,,
left,0.55099988,1,260,,,,,,,,,,,,,3,6,3,stim/63.jpeg,Instruments,1,stim/objects/Instruments/frenchhorn3.png,0.9,1,-0.2,0.15,left,73,2020-12-12_10h06.45.254,premup-three_ses-02_part-02_label-phase2,3.2.4,Win32,60,,,,,,,,,,,,,,,,,1,0,330,252,1,329,2,,,,,,
left,0.506999969,0,261,,,,,,,,,,,,,3,6,3,stim/63.jpeg,HouseObjects,2,stim/objects/HouseObjects/vacuumcleaner4.png,0.1,4,0.2,-0.15,right,73,2020-12-12_10h06.45.254,premup-three_ses-02_part-02_label-phase2,3.2.4,Win32,60,,,,,,,,,,,,,,,,,1,0,330,328,1,329,1,,,,,,
right,0.628000021,1,262,,,,,,,,,,,,,3,5,3,stim/53.jpeg,HouseObjects,2,stim/objects/HouseObjects/glass3.png,0.9,2,0.2,0.15,right,73,2020-12-12_10h06.45.254,premup-three_ses-02_part-02_label-phase2,3.2.4,Win32,60,,,,,,,,,,,,,,,,,1,0,330,204,1,329,2,,,,,,
left,0.757999897,1,263,,,,,,,,,,,,,2,4,1,stim/41.jpeg,Instruments,1,stim/objects/Instruments/cello4.png,0.7,1,-0.2,0.15,left,73,2020-12-12_10h06.45.254,premup-three_ses-02_part-02_label-phase2,3.2.4,Win32,60,,,,,,,,,,,,,,,,,1,0,330,111,1,329,1,,,,,,
left,0.55099988,1,264,,,,,,,,,,,,,3,6,2,stim/62.jpeg,Instruments,1,stim/objects/Instruments/gong3.png,0.9,4,0.2,-0.15,left,73,2020-12-12_10h06.45.254,premup-three_ses-02_part-02_label-phase2,3.2.4,Win32,60,,,,,,,,,,,,,,,,,1,0,330,243,1,329,2,,,,,,
right,0.774999857,0,265,,,,,,,,,,,,,2,4,3,stim/43.jpeg,Instruments,1,stim/objects/Instruments/drums3.png,0.7,3,-0.2,-0.15,left,73,2020-12-12_10h06.45.254,premup-three_ses-02_part-02_label-phase2,3.2.4,Win32,60,,,,,,,,,,,,,,,,,1,0,330,97,1,329,2,,,,,,
,,0,266,,,,,,,,,,,,,3,6,2,stim/62.jpeg,Instruments,1,stim/objects/Instruments/gong3.png,0.9,2,0.2,0.15,left,73,2020-12-12_10h06.45.254,premup-three_ses-02_part-02_label-phase2,3.2.4,Win32,60,,,,,,,,,,,,,,,,,1,0,330,283,1,329,2,,,,,,
left,0.495999813,1,267,,,,,,,,,,,,,2,4,2,stim/42.jpeg,Instruments,1,stim/objects/Instruments/electricguitar3.png,0.7,1,-0.2,0.15,left,73,2020-12-12_10h06.45.254,premup-three_ses-02_part-02_label-phase2,3.2.4,Win32,60,,,,,,,,,,,,,,,,,1,0,330,104,1,329,2,,,,,,
right,0.559999943,1,268,,,,,,,,,,,,,3,5,1,stim/51.jpeg,HouseObjects,2,stim/objects/HouseObjects/flyswatter3.png,0.9,4,0.2,-0.15,right,73,2020-12-12_10h06.45.254,premup-three_ses-02_part-02_label-phase2,3.2.4,Win32,60,,,,,,,,,,,,,,,,,1,0,330,142,1,329,2,,,,,,
right,0.711999893,1,269,,,,,,,,,,,,,2,3,3,stim/33.jpeg,HouseObjects,2,stim/objects/HouseObjects/ashtray4.png,0.7,1,-0.2,0.15,right,73,2020-12-12_10h06.45.254,premup-three_ses-02_part-02_label-phase2,3.2.4,Win32,60,,,,,,,,,,,,,,,,,1,0,330,90,1,329,1,,,,,,
right,0.460000038,1,270,,,,,,,,,,,,,3,5,2,stim/52.jpeg,HouseObjects,2,stim/objects/HouseObjects/glass3.png,0.9,2,0.2,0.15,right,73,2020-12-12_10h06.45.254,premup-three_ses-02_part-02_label-phase2,3.2.4,Win32,60,,,,,,,,,,,,,,,,,1,0,330,219,1,329,2,,,,,,
left,0.542000055,1,271,,,,,,,,,,,,,3,6,3,stim/63.jpeg,Instruments,1,stim/objects/Instruments/flutetrans3.png,0.9,1,-0.2,0.15,left,73,2020-12-12_10h06.45.254,premup-three_ses-02_part-02_label-phase2,3.2.4,Win32,60,,,,,,,,,,,,,,,,,1,0,330,256,1,329,2,,,,,,
right,0.465999842,1,272,,,,,,,,,,,,,2,3,4,stim/34.jpeg,HouseObjects,2,stim/objects/HouseObjects/dishsoap3.png,0.7,4,0.2,-0.15,right,73,2020-12-12_10h06.45.254,premup-three_ses-02_part-02_label-phase2,3.2.4,Win32,60,,,,,,,,,,,,,,,,,1,0,330,79,1,329,2,,,,,,
right,0.51699996,1,273,,,,,,,,,,,,,3,5,3,stim/53.jpeg,HouseObjects,2,stim/objects/HouseObjects/doormat3.png,0.9,3,-0.2,-0.15,right,73,2020-12-12_10h06.45.254,premup-three_ses-02_part-02_label-phase2,3.2.4,Win32,60,,,,,,,,,,,,,,,,,1,0,330,200,1,329,2,,,,,,
left,0.524999857,0,274,,,,,,,,,,,,,3,6,2,stim/62.jpeg,HouseObjects,2,stim/objects/HouseObjects/towel4.png,0.1,2,0.2,0.15,right,73,2020-12-12_10h06.45.254,premup-three_ses-02_part-02_label-phase2,3.2.4,Win32,60,,,,,,,,,,,,,,,,,1,0,330,327,1,329,1,,,,,,
left,0.519999981,1,275,,,,,,,,,,,,,3,6,4,stim/64.jpeg,Instruments,1,stim/objects/Instruments/gong3.png,0.9,2,0.2,0.15,left,73,2020-12-12_10h06.45.254,premup-three_ses-02_part-02_label-phase2,3.2.4,Win32,60,,,,,,,,,,,,,,,,,1,0,330,293,1,329,2,,,,,,
left,0.421999931,1,276,,,,,,,,,,,,,3,6,4,stim/64.jpeg,Instruments,1,stim/objects/Instruments/flutetrans3.png,0.9,1,-0.2,0.15,left,73,2020-12-12_10h06.45.254,premup-three_ses-02_part-02_label-phase2,3.2.4,Win32,60,,,,,,,,,,,,,,,,,1,0,330,281,1,329,2,,,,,,
left,0.36500001,1,277,,,,,,,,,,,,,3,6,4,stim/64.jpeg,Instruments,1,stim/objects/Instruments/violin4.png,0.9,3,-0.2,-0.15,left,73,2020-12-12_10h06.45.254,premup-three_ses-02_part-02_label-phase2,3.2.4,Win32,60,,,,,,,,,,,,,,,,,1,0,330,317,1,329,1,,,,,,
left,0.756999969,0,278,,,,,,,,,,,,,2,4,3,stim/43.jpeg,HouseObjects,2,stim/objects/HouseObjects/clothesdryingrack4.png,0.3,2,0.2,0.15,right,73,2020-12-12_10h06.45.254,premup-three_ses-02_part-02_label-phase2,3.2.4,Win32,60,,,,,,,,,,,,,,,,,1,0,330,125,1,329,1,,,,,,
left,0.605999947,1,279,,,,,,,,,,,,,2,4,2,stim/42.jpeg,Instruments,1,stim/objects/Instruments/cymbal3.png,0.7,4,0.2,-0.15,left,73,2020-12-12_10h06.45.254,premup-three_ses-02_part-02_label-phase2,3.2.4,Win32,60,,,,,,,,,,,,,,,,,1,0,330,100,1,329,2,,,,,,
right,0.777999878,1,280,,,,,,,,,,,,,2,3,2,stim/32.jpeg,HouseObjects,2,stim/objects/HouseObjects/pan3.png,0.7,2,0.2,0.15,right,73,2020-12-12_10h06.45.254,premup-three_ses-02_part-02_label-phase2,3.2.4,Win32,60,,,,,,,,,,,,,,,,,1,0,330,85,1,329,1,,,,,,
right,0.639999866,1,281,,,,,,,,,,,,,1,2,3,stim/23.jpeg,HouseObjects,2,stim/objects/HouseObjects/lintroller3.png,0.5,3,-0.2,-0.15,right,73,2020-12-12_10h06.45.254,premup-three_ses-02_part-02_label-phase2,3.2.4,Win32,60,,,,,,,,,,,,,,,,,1,0,330,58,1,329,1,,,,,,
right,0.773000002,0,282,,,,,,,,,,,,,1,1,1,stim/11.jpeg,Instruments,1,stim/objects/Instruments/bassdrum3.png,0.5,3,-0.2,-0.15,left,73,2020-12-12_10h06.45.254,premup-three_ses-02_part-02_label-phase2,3.2.4,Win32,60,,,,,,,,,,,,,,,,,1,0,330,4,1,329,2,,,,,,
right,0.760999918,1,283,,,,,,,,,,,,,3,5,3,stim/53.jpeg,HouseObjects,2,stim/objects/HouseObjects/dustpan3.png,0.9,4,0.2,-0.15,right,73,2020-12-12_10h06.45.254,premup-three_ses-02_part-02_label-phase2,3.2.4,Win32,60,,,,,,,,,,,,,,,,,1,0,330,156,1,329,2,,,,,,
right,0.646999836,1,284,,,,,,,,,,,,,3,5,4,stim/54.jpeg,HouseObjects,2,stim/objects/HouseObjects/glassmop4.png,0.9,3,-0.2,-0.15,right,73,2020-12-12_10h06.45.254,premup-three_ses-02_part-02_label-phase2,3.2.4,Win32,60,,,,,,,,,,,,,,,,,1,0,330,225,1,329,1,,,,,,
right,0.515999794,1,285,,,,,,,,,,,,,3,5,1,stim/51.jpeg,HouseObjects,2,stim/objects/HouseObjects/flyswatter3.png,0.9,4,0.2,-0.15,right,73,2020-12-12_10h06.45.254,premup-three_ses-02_part-02_label-phase2,3.2.4,Win32,60,,,,,,,,,,,,,,,,,1,0,330,202,1,329,2,,,,,,
right,0.485000134,1,286,,,,,,,,,,,,,3,5,2,stim/52.jpeg,HouseObjects,2,stim/objects/HouseObjects/doormat3.png,0.9,2,0.2,0.15,right,73,2020-12-12_10h06.45.254,premup-three_ses-02_part-02_label-phase2,3.2.4,Win32,60,,,,,,,,,,,,,,,,,1,0,330,215,1,329,2,,,,,,
right,0.58100009,0,287,,,,,,,,,,,,,2,3,1,stim/31.jpeg,Instruments,1,stim/objects/Instruments/musicstand3.png,0.3,2,0.2,0.15,left,73,2020-12-12_10h06.45.254,premup-three_ses-02_part-02_label-phase2,3.2.4,Win32,60,,,,,,,,,,,,,,,,,1,0,330,60,1,329,1,,,,,,
left,0.566999912,0,288,,,,,,,,,,,,,3,5,2,stim/52.jpeg,HouseObjects,2,stim/objects/HouseObjects/glass3.png,0.9,1,-0.2,0.15,right,73,2020-12-12_10h06.45.254,premup-three_ses-02_part-02_label-phase2,3.2.4,Win32,60,,,,,,,,,,,,,,,,,1,0,330,159,1,329,2,,,,,,
right,0.572999954,1,289,,,,,,,,,,,,,3,5,1,stim/51.jpeg,HouseObjects,2,stim/objects/HouseObjects/garbagebin3.png,0.9,4,0.2,-0.15,right,73,2020-12-12_10h06.45.254,premup-three_ses-02_part-02_label-phase2,3.2.4,Win32,60,,,,,,,,,,,,,,,,,1,0,330,218,1,329,2,,,,,,
right,0.724999905,1,290,,,,,,,,,,,,,3,5,4,stim/54.jpeg,HouseObjects,2,stim/objects/HouseObjects/glass3.png,0.9,3,-0.2,-0.15,right,73,2020-12-12_10h06.45.254,premup-three_ses-02_part-02_label-phase2,3.2.4,Win32,60,,,,,,,,,,,,,,,,,1,0,330,189,1,329,2,,,,,,
right,0.698999882,1,291,,,,,,,,,,,,,1,2,1,stim/21.jpeg,HouseObjects,2,stim/objects/HouseObjects/broom3.png,0.5,3,-0.2,-0.15,right,73,2020-12-12_10h06.45.254,premup-three_ses-02_part-02_label-phase2,3.2.4,Win32,60,,,,,,,,,,,,,,,,,1,0,330,52,1,329,2,,,,,,
right,0.710999966,0,292,,,,,,,,,,,,,2,3,2,stim/32.jpeg,Instruments,1,stim/objects/Instruments/bassdrum4.png,0.3,3,-0.2,-0.15,left,73,2020-12-12_10h06.45.254,premup-three_ses-02_part-02_label-phase2,3.2.4,Win32,60,,,,,,,,,,,,,,,,,1,0,330,69,1,329,1,,,,,,
left,0.431999922,1,293,,,,,,,,,,,,,3,6,4,stim/64.jpeg,Instruments,1,stim/objects/Instruments/gong3.png,0.9,2,0.2,0.15,left,73,2020-12-12_10h06.45.254,premup-three_ses-02_part-02_label-phase2,3.2.4,Win32,60,,,,,,,,,,,,,,,,,1,0,330,253,1,329,2,,,,,,
right,0.585999966,1,294,,,,,,,,,,,,,3,5,2,stim/52.jpeg,HouseObjects,2,stim/objects/HouseObjects/dustpan3.png,0.9,4,0.2,-0.15,right,73,2020-12-12_10h06.45.254,premup-three_ses-02_part-02_label-phase2,3.2.4,Win32,60,,,,,,,,,,,,,,,,,1,0,330,211,1,329,2,,,,,,
right,0.823999882,1,295,,,,,,,,,,,,,1,2,4,stim/24.jpeg,HouseObjects,2,stim/objects/HouseObjects/ironingboard3.png,0.5,1,-0.2,0.15,right,73,2020-12-12_10h06.45.254,premup-three_ses-02_part-02_label-phase2,3.2.4,Win32,60,,,,,,,,,,,,,,,,,1,0,330,55,1,329,1,,,,,,
left,0.644999981,0,296,,,,,,,,,,,,,2,4,1,stim/41.jpeg,HouseObjects,2,stim/objects/HouseObjects/coffee4.png,0.3,3,-0.2,-0.15,right,73,2020-12-12_10h06.45.254,premup-three_ses-02_part-02_label-phase2,3.2.4,Win32,60,,,,,,,,,,,,,,,,,1,0,330,127,1,329,1,,,,,,
right,0.580999851,1,297,,,,,,,,,,,,,3,5,3,stim/53.jpeg,HouseObjects,2,stim/objects/HouseObjects/garbagebin3.png,0.9,4,0.2,-0.15,right,73,2020-12-12_10h06.45.254,premup-three_ses-02_part-02_label-phase2,3.2.4,Win32,60,,,,,,,,,,,,,,,,,1,0,330,208,1,329,2,,,,,,
right,0.713999987,0,298,,,,,,,,,,,,,3,6,2,stim/62.jpeg,Instruments,1,stim/objects/Instruments/gong3.png,0.9,2,0.2,0.15,left,73,2020-12-12_10h06.45.254,premup-three_ses-02_part-02_label-phase2,3.2.4,Win32,60,,,,,,,,,,,,,,,,,1,0,330,263,1,329,2,,,,,,
right,0.921999931,1,299,,,,,,,,,,,,,3,5,2,stim/52.jpeg,HouseObjects,2,stim/objects/HouseObjects/garbagebin3.png,0.9,3,-0.2,-0.15,right,73,2020-12-12_10h06.45.254,premup-three_ses-02_part-02_label-phase2,3.2.4,Win32,60,,,,,,,,,,,,,,,,,1,0,330,183,1,329,2,,,,,,
right,0.775000095,1,300,,,,,,,,,,,,,1,1,4,stim/14.jpeg,HouseObjects,2,stim/objects/HouseObjects/basket3.png,0.5,1,-0.2,0.15,right,73,2020-12-12_10h06.45.254,premup-three_ses-02_part-02_label-phase2,3.2.4,Win32,60,,,,,,,,,,,,,,,,,1,0,330,23,1,329,2,,,,,,
right,0.697999954,1,301,,,,,,,,,,,,,1,2,2,stim/22.jpeg,HouseObjects,2,stim/objects/HouseObjects/clock3.png,0.5,2,0.2,0.15,right,73,2020-12-12_10h06.45.254,premup-three_ses-02_part-02_label-phase2,3.2.4,Win32,60,,,,,,,,,,,,,,,,,1,0,330,49,1,329,2,,,,,,
,,0,302,,,,,,,,,,,,,1,2,1,stim/21.jpeg,HouseObjects,2,stim/objects/HouseObjects/key3.png,0.5,4,0.2,-0.15,right,73,2020-12-12_10h06.45.254,premup-three_ses-02_part-02_label-phase2,3.2.4,Win32,60,,,,,,,,,,,,,,,,,1,0,330,56,1,329,1,,,,,,
right,0.444000006,1,303,,,,,,,,,,,,,2,3,3,stim/33.jpeg,HouseObjects,2,stim/objects/HouseObjects/clothesdryingrack3.png,0.7,4,0.2,-0.15,right,73,2020-12-12_10h06.45.254,premup-three_ses-02_part-02_label-phase2,3.2.4,Win32,60,,,,,,,,,,,,,,,,,1,0,330,70,1,329,2,,,,,,
right,0.487999916,1,304,,,,,,,,,,,,,2,3,2,stim/32.jpeg,HouseObjects,2,stim/objects/HouseObjects/cushion3.png,0.7,1,-0.2,0.15,right,73,2020-12-12_10h06.45.254,premup-three_ses-02_part-02_label-phase2,3.2.4,Win32,60,,,,,,,,,,,,,,,,,1,0,330,73,1,329,2,,,,,,
left,0.842999935,1,305,,,,,,,,,,,,,2,4,4,stim/44.jpeg,Instruments,1,stim/objects/Instruments/electricdrumset3.png,0.7,1,-0.2,0.15,left,73,2020-12-12_10h06.45.254,premup-three_ses-02_part-02_label-phase2,3.2.4,Win32,60,,,,,,,,,,,,,,,,,1,0,330,98,1,329,2,,,,,,
right,0.559000015,0,306,,,,,,,,,,,,,2,3,1,stim/31.jpeg,Instruments,1,stim/objects/Instruments/xylophone3.png,0.3,3,-0.2,-0.15,left,73,2020-12-12_10h06.45.254,premup-three_ses-02_part-02_label-phase2,3.2.4,Win32,60,,,,,,,,,,,,,,,,,1,0,330,64,1,329,1,,,,,,
right,0.820999861,0,307,,,,,,,,,,,,,1,1,3,stim/13.jpeg,Instruments,1,stim/objects/Instruments/keyboard3.png,0.5,2,0.2,0.15,left,73,2020-12-12_10h06.45.254,premup-three_ses-02_part-02_label-phase2,3.2.4,Win32,60,,,,,,,,,,,,,,,,,1,0,330,14,1,329,1,,,,,,
left,0.743999958,1,308,,,,,,,,,,,,,2,4,4,stim/44.jpeg,Instruments,1,stim/objects/Instruments/cornet4.png,0.7,4,0.2,-0.15,left,73,2020-12-12_10h06.45.254,premup-three_ses-02_part-02_label-phase2,3.2.4,Win32,60,,,,,,,,,,,,,,,,,1,0,330,114,1,329,1,,,,,,
left,0.809999943,0,309,,,,,,,,,,,,,2,3,1,stim/31.jpeg,HouseObjects,2,stim/objects/HouseObjects/clothesdryingrack3.png,0.7,1,-0.2,0.15,right,73,2020-12-12_10h06.45.254,premup-three_ses-02_part-02_label-phase2,3.2.4,Win32,60,,,,,,,,,,,,,,,,,1,0,330,80,1,329,2,,,,,,
right,0.661999941,0,310,,,,,,,,,,,,,1,1,2,stim/12.jpeg,Instruments,1,stim/objects/Instruments/bassdrum3.png,0.5,4,0.2,-0.15,left,73,2020-12-12_10h06.45.254,premup-three_ses-02_part-02_label-phase2,3.2.4,Win32,60,,,,,,,,,,,,,,,,,1,0,330,9,1,329,2,,,,,,
left,0.598999977,1,311,,,,,,,,,,,,,3,6,4,stim/64.jpeg,Instruments,1,stim/objects/Instruments/flute3.png,0.9,4,0.2,-0.15,left,73,2020-12-12_10h06.45.254,premup-three_ses-02_part-02_label-phase2,3.2.4,Win32,60,,,,,,,,,,,,,,,,,1,0,330,285,1,329,2,,,,,,
right,0.776000023,1,312,,,,,,,,,,,,,3,5,3,stim/53.jpeg,HouseObjects,2,stim/objects/HouseObjects/glass4.png,0.9,4,0.2,-0.15,right,73,2020-12-12_10h06.45.254,premup-three_ses-02_part-02_label-phase2,3.2.4,Win32,60,,,,,,,,,,,,,,,,,1,0,330,224,1,329,1,,,,,,
right,0.898999929,0,313,,,,,,,,,,,,,1,2,3,stim/23.jpeg,Instruments,1,stim/objects/Instruments/marimba3.png,0.5,2,0.2,0.15,left,73,2020-12-12_10h06.45.254,premup-three_ses-02_part-02_label-phase2,3.2.4,Win32,60,,,,,,,,,,,,,,,,,1,0,330,42,1,329,1,,,,,,
right,0.589999914,1,314,,,,,,,,,,,,,3,5,1,stim/51.jpeg,HouseObjects,2,stim/objects/HouseObjects/doormat3.png,0.9,1,-0.2,0.15,right,73,2020-12-12_10h06.45.254,premup-three_ses-02_part-02_label-phase2,3.2.4,Win32,60,,,,,,,,,,,,,,,,,1,0,330,150,1,329,2,,,,,,
right,0.706999779,1,315,,,,,,,,,,,,,1,2,2,stim/22.jpeg,HouseObjects,2,stim/objects/HouseObjects/bucket3.png,0.5,3,-0.2,-0.15,right,73,2020-12-12_10h06.45.254,premup-three_ses-02_part-02_label-phase2,3.2.4,Win32,60,,,,,,,,,,,,,,,,,1,0,330,53,1,329,2,,,,,,
left,0.532999992,1,316,,,,,,,,,,,,,3,6,4,stim/64.jpeg,Instruments,1,stim/objects/Instruments/flute3.png,0.9,1,-0.2,0.15,left,73,2020-12-12_10h06.45.254,premup-three_ses-02_part-02_label-phase2,3.2.4,Win32,60,,,,,,,,,,,,,,,,,1,0,330,305,1,329,2,,,,,,
right,0.671000004,1,317,,,,,,,,,,,,,1,1,2,stim/12.jpeg,HouseObjects,2,stim/objects/HouseObjects/iron3.png,0.5,2,0.2,0.15,right,73,2020-12-12_10h06.45.254,premup-three_ses-02_part-02_label-phase2,3.2.4,Win32,60,,,,,,,,,,,,,,,,,1,0,330,29,1,329,1,,,,,,
right,0.628999949,0,318,,,,,,,,,,,,,3,5,3,stim/53.jpeg,Instruments,1,stim/objects/Instruments/harmonica4.png,0.1,3,-0.2,-0.15,left,73,2020-12-12_10h06.45.254,premup-three_ses-02_part-02_label-phase2,3.2.4,Win32,60,,,,,,,,,,,,,,,,,1,0,330,136,1,329,1,,,,,,
right,0.694000006,1,319,,,,,,,,,,,,,1,1,3,stim/13.jpeg,HouseObjects,2,stim/objects/HouseObjects/hairdryer3.png,0.5,1,-0.2,0.15,right,73,2020-12-12_10h06.45.254,premup-three_ses-02_part-02_label-phase2,3.2.4,Win32,60,,,,,,,,,,,,,,,,,1,0,330,26,1,329,1,,,,,,
left,0.60800004,1,320,,,,,,,,,,,,,3,6,2,stim/62.jpeg,Instruments,1,stim/objects/Instruments/flutetrans3.png,0.9,4,0.2,-0.15,left,73,2020-12-12_10h06.45.254,premup-three_ses-02_part-02_label-phase2,3.2.4,Win32,60,,,,,,,,,,,,,,,,,1,0,330,291,1,329,2,,,,,,
left,0.534999847,1,321,,,,,,,,,,,,,3,6,2,stim/62.jpeg,Instruments,1,stim/objects/Instruments/maraca4.png,0.9,4,0.2,-0.15,left,73,2020-12-12_10h06.45.254,premup-three_ses-02_part-02_label-phase2,3.2.4,Win32,60,,,,,,,,,,,,,,,,,1,0,330,311,1,329,1,,,,,,
right,0.493999958,1,322,,,,,,,,,,,,,1,1,2,stim/12.jpeg,HouseObjects,2,stim/objects/HouseObjects/glassmop3.png,0.5,4,0.2,-0.15,right,73,2020-12-12_10h06.45.254,premup-three_ses-02_part-02_label-phase2,3.2.4,Win32,60,,,,,,,,,,,,,,,,,1,0,330,25,1,329,1,,,,,,
right,0.907999754,1,323,,,,,,,,,,,,,3,5,2,stim/52.jpeg,HouseObjects,2,stim/objects/HouseObjects/garbagebin3.png,0.9,2,0.2,0.15,right,73,2020-12-12_10h06.45.254,premup-three_ses-02_part-02_label-phase2,3.2.4,Win32,60,,,,,,,,,,,,,,,,,1,0,330,203,1,329,2,,,,,,
right,0.552999973,0,324,,,,,,,,,,,,,1,2,1,stim/21.jpeg,Instruments,1,stim/objects/Instruments/musicsheet3.png,0.5,1,-0.2,0.15,left,73,2020-12-12_10h06.45.254,premup-three_ses-02_part-02_label-phase2,3.2.4,Win32,60,,,,,,,,,,,,,,,,,1,0,330,44,1,329,1,,,,,,
left,0.539999962,1,325,,,,,,,,,,,,,3,6,1,stim/61.jpeg,Instruments,1,stim/objects/Instruments/gong3.png,0.9,4,0.2,-0.15,left,73,2020-12-12_10h06.45.254,premup-three_ses-02_part-02_label-phase2,3.2.4,Win32,60,,,,,,,,,,,,,,,,,1,0,330,298,1,329,2,,,,,,
right,0.620000124,0,326,,,,,,,,,,,,,1,1,1,stim/11.jpeg,Instruments,1,stim/objects/Instruments/banjo3.png,0.5,2,0.2,0.15,left,73,2020-12-12_10h06.45.254,premup-three_ses-02_part-02_label-phase2,3.2.4,Win32,60,,,,,,,,,,,,,,,,,1,0,330,8,1,329,2,,,,,,
,,0,327,,,,,,,,,,,,,1,2,3,stim/23.jpeg,Instruments,1,stim/objects/Instruments/cornet3.png,0.5,3,-0.2,-0.15,left,73,2020-12-12_10h06.45.254,premup-three_ses-02_part-02_label-phase2,3.2.4,Win32,60,,,,,,,,,,,,,,,,,1,0,330,34,1,329,2,,,,,,
left,0.541999817,0,328,,,,,,,,,,,,,3,6,3,stim/63.jpeg,HouseObjects,2,stim/objects/HouseObjects/ironingboard4.png,0.1,4,0.2,-0.15,right,73,2020-12-12_10h06.45.254,premup-three_ses-02_part-02_label-phase2,3.2.4,Win32,60,,,,,,,,,,,,,,,,,1,0,330,320,1,329,1,,,,,,
right,0.662999868,0,329,,,,,,,,,,,,,3,5,2,stim/52.jpeg,Instruments,1,stim/objects/Instruments/flutetrans4.png,0.1,4,0.2,-0.15,left,73,2020-12-12_10h06.45.254,premup-three_ses-02_part-02_label-phase2,3.2.4,Win32,60,,,,,,,,,,,,,,,,,1,0,330,131,1,329,1,,,,,,
left,0.541999817,1,330,,,,,,,,,,,,,3,6,3,stim/63.jpeg,Instruments,1,stim/objects/Instruments/flute3.png,0.9,1,-0.2,0.15,left,73,2020-12-12_10h06.45.254,premup-three_ses-02_part-02_label-phase2,3.2.4,Win32,60,,,,,,,,,,,,,,,,,1,0,330,300,1,329,2,,,,,,
left,0.555000067,0,331,,,,,,,,,,,,,3,6,2,stim/62.jpeg,HouseObjects,2,stim/objects/HouseObjects/lintroller4.png,0.1,4,0.2,-0.15,right,73,2020-12-12_10h06.45.254,premup-three_ses-02_part-02_label-phase2,3.2.4,Win32,60,,,,,,,,,,,,,,,,,1,0,330,323,1,329,1,,,,,,
right,0.582000017,1,332,,,,,,,,,,,,,1,2,3,stim/23.jpeg,HouseObjects,2,stim/objects/HouseObjects/blender3.png,0.5,2,0.2,0.15,right,73,2020-12-12_10h06.45.254,premup-three_ses-02_part-02_label-phase2,3.2.4,Win32,60,,,,,,,,,,,,,,,,,1,0,330,50,1,329,2,,,,,,
right,0.618999958,1,333,,,,,,,,,,,,,3,5,1,stim/51.jpeg,HouseObjects,2,stim/objects/HouseObjects/garbagebin3.png,0.9,1,-0.2,0.15,right,73,2020-12-12_10h06.45.254,premup-three_ses-02_part-02_label-phase2,3.2.4,Win32,60,,,,,,,,,,,,,,,,,1,0,330,198,1,329,2,,,,,,
right,0.41899991,1,334,,,,,,,,,,,,,3,5,1,stim/51.jpeg,HouseObjects,2,stim/objects/HouseObjects/garbagebin3.png,0.9,1,-0.2,0.15,right,73,2020-12-12_10h06.45.254,premup-three_ses-02_part-02_label-phase2,3.2.4,Win32,60,,,,,,,,,,,,,,,,,1,0,330,178,1,329,2,,,,,,
right,0.519999981,1,335,,,,,,,,,,,,,3,5,1,stim/51.jpeg,HouseObjects,2,stim/objects/HouseObjects/hairdryer4.png,0.9,4,0.2,-0.15,right,73,2020-12-12_10h06.45.254,premup-three_ses-02_part-02_label-phase2,3.2.4,Win32,60,,,,,,,,,,,,,,,,,1,0,330,226,1,329,1,,,,,,
left,0.947999954,0,336,,,,,,,,,,,,,2,4,2,stim/42.jpeg,HouseObjects,2,stim/objects/HouseObjects/clock4.png,0.3,2,0.2,0.15,right,73,2020-12-12_10h06.45.254,premup-three_ses-02_part-02_label-phase2,3.2.4,Win32,60,,,,,,,,,,,,,,,,,1,0,330,124,1,329,1,,,,,,
right,0.618999958,1,337,,,,,,,,,,,,,1,2,2,stim/22.jpeg,HouseObjects,2,stim/objects/HouseObjects/blender3.png,0.5,2,0.2,0.15,right,73,2020-12-12_10h06.45.254,premup-three_ses-02_part-02_label-phase2,3.2.4,Win32,60,,,,,,,,,,,,,,,,,1,0,330,45,1,329,2,,,,,,
left,0.523999929,1,338,,,,,,,,,,,,,3,6,1,stim/61.jpeg,Instruments,1,stim/objects/Instruments/musicsheet4.png,0.9,1,-0.2,0.15,left,73,2020-12-12_10h06.45.254,premup-three_ses-02_part-02_label-phase2,3.2.4,Win32,60,,,,,,,,,,,,,,,,,1,0,330,314,1,329,1,,,,,,
right,0.661000013,1,339,,,,,,,,,,,,,3,5,4,stim/54.jpeg,HouseObjects,2,stim/objects/HouseObjects/dustpan3.png,0.9,3,-0.2,-0.15,right,73,2020-12-12_10h06.45.254,premup-three_ses-02_part-02_label-phase2,3.2.4,Win32,60,,,,,,,,,,,,,,,,,1,0,330,141,1,329,2,,,,,,
right,0.59100008,0,340,,,,,,,,,,,,,2,3,2,stim/32.jpeg,Instruments,1,stim/objects/Instruments/oboe3.png,0.3,4,0.2,-0.15,left,73,2020-12-12_10h06.45.254,premup-three_ses-02_part-02_label-phase2,3.2.4,Win32,60,,,,,,,,,,,,,,,,,1,0,330,61,1,329,1,,,,,,
left,0.588999987,1,341,,,,,,,,,,,,,3,6,4,stim/64.jpeg,Instruments,1,stim/objects/Instruments/grandpiano3.png,0.9,3,-0.2,-0.15,left,73,2020-12-12_10h06.45.254,premup-three_ses-02_part-02_label-phase2,3.2.4,Win32,60,,,,,,,,,,,,,,,,,1,0,330,289,1,329,2,,,,,,
right,0.558000088,1,342,,,,,,,,,,,,,1,2,4,stim/24.jpeg,HouseObjects,2,stim/objects/HouseObjects/match3.png,0.5,3,-0.2,-0.15,right,73,2020-12-12_10h06.45.254,premup-three_ses-02_part-02_label-phase2,3.2.4,Win32,60,,,,,,,,,,,,,,,,,1,0,330,59,1,329,1,,,,,,
right,0.846999884,1,343,,,,,,,,,,,,,2,3,1,stim/31.jpeg,HouseObjects,2,stim/objects/HouseObjects/coffee3.png,0.7,4,0.2,-0.15,right,73,2020-12-12_10h06.45.254,premup-three_ses-02_part-02_label-phase2,3.2.4,Win32,60,,,,,,,,,,,,,,,,,1,0,330,72,1,329,2,,,,,,
left,0.77699995,1,344,,,,,,,,,,,,,3,6,1,stim/61.jpeg,Instruments,1,stim/objects/Instruments/flute3.png,0.9,2,0.2,0.15,left,73,2020-12-12_10h06.45.254,premup-three_ses-02_part-02_label-phase2,3.2.4,Win32,60,,,,,,,,,,,,,,,,,1,0,330,290,1,329,2,,,,,,
right,0.551999807,1,345,,,,,,,,,,,,,3,5,2,stim/52.jpeg,HouseObjects,2,stim/objects/HouseObjects/dustpan3.png,0.9,3,-0.2,-0.15,right,73,2020-12-12_10h06.45.254,premup-three_ses-02_part-02_label-phase2,3.2.4,Win32,60,,,,,,,,,,,,,,,,,1,0,330,151,1,329,2,,,,,,
right,0.617999792,0,346,,,,,,,,,,,,,1,2,1,stim/21.jpeg,Instruments,1,stim/objects/Instruments/chime3.png,0.5,2,0.2,0.15,left,73,2020-12-12_10h06.45.254,premup-three_ses-02_part-02_label-phase2,3.2.4,Win32,60,,,,,,,,,,,,,,,,,1,0,330,32,1,329,2,,,,,,
left,0.46999979,1,347,,,,,,,,,,,,,3,6,4,stim/64.jpeg,Instruments,1,stim/objects/Instruments/frenchhorn3.png,0.9,1,-0.2,0.15,left,73,2020-12-12_10h06.45.254,premup-three_ses-02_part-02_label-phase2,3.2.4,Win32,60,,,,,,,,,,,,,,,,,1,0,330,297,1,329,2,,,,,,
left,0.618999958,1,348,,,,,,,,,,,,,3,6,1,stim/61.jpeg,Instruments,1,stim/objects/Instruments/frenchhorn3.png,0.9,3,-0.2,-0.15,left,73,2020-12-12_10h06.45.254,premup-three_ses-02_part-02_label-phase2,3.2.4,Win32,60,,,,,,,,,,,,,,,,,1,0,330,262,1,329,2,,,,,,
right,0.572999716,0,349,,,,,,,,,,,,,1,1,4,stim/14.jpeg,Instruments,1,stim/objects/Instruments/balalaika3.png,0.5,1,-0.2,0.15,left,73,2020-12-12_10h06.45.254,premup-three_ses-02_part-02_label-phase2,3.2.4,Win32,60,,,,,,,,,,,,,,,,,1,0,330,7,1,329,2,,,,,,
left,0.53399992,1,350,,,,,,,,,,,,,3,6,1,stim/61.jpeg,Instruments,1,stim/objects/Instruments/grandpiano3.png,0.9,1,-0.2,0.15,left,73,2020-12-12_10h06.45.254,premup-three_ses-02_part-02_label-phase2,3.2.4,Win32,60,,,,,,,,,,,,,,,,,1,0,330,234,1,329,2,,,,,,
right,0.498999834,1,351,,,,,,,,,,,,,3,5,1,stim/51.jpeg,HouseObjects,2,stim/objects/HouseObjects/garbagebin3.png,0.9,4,0.2,-0.15,right,73,2020-12-12_10h06.45.254,premup-three_ses-02_part-02_label-phase2,3.2.4,Win32,60,,,,,,,,,,,,,,,,,1,0,330,158,1,329,2,,,,,,
right,0.872999907,0,352,,,,,,,,,,,,,3,5,2,stim/52.jpeg,Instruments,1,stim/objects/Instruments/guitarcase4.png,0.1,2,0.2,0.15,left,73,2020-12-12_10h06.45.254,premup-three_ses-02_part-02_label-phase2,3.2.4,Win32,60,,,,,,,,,,,,,,,,,1,0,330,135,1,329,1,,,,,,
left,0.496000051,1,353,,,,,,,,,,,,,3,6,2,stim/62.jpeg,Instruments,1,stim/objects/Instruments/flutetrans3.png,0.9,2,0.2,0.15,left,73,2020-12-12_10h06.45.254,premup-three_ses-02_part-02_label-phase2,3.2.4,Win32,60,,,,,,,,,,,,,,,,,1,0,330,251,1,329,2,,,,,,
right,0.494999886,1,354,,,,,,,,,,,,,3,5,2,stim/52.jpeg,HouseObjects,2,stim/objects/HouseObjects/flyswatter3.png,0.9,1,-0.2,0.15,right,73,2020-12-12_10h06.45.254,premup-three_ses-02_part-02_label-phase2,3.2.4,Win32,60,,,,,,,,,,,,,,,,,1,0,330,207,1,329,2,,,,,,
right,0.611999989,1,355,,,,,,,,,,,,,1,1,3,stim/13.jpeg,HouseObjects,2,stim/objects/HouseObjects/barbecuelighter3.png,0.5,3,-0.2,-0.15,right,73,2020-12-12_10h06.45.254,premup-three_ses-02_part-02_label-phase2,3.2.4,Win32,60,,,,,,,,,,,,,,,,,1,0,330,22,1,329,2,,,,,,
left,0.549999952,0,356,,,,,,,,,,,,,3,5,4,stim/54.jpeg,HouseObjects,2,stim/objects/HouseObjects/garbagebin3.png,0.9,3,-0.2,-0.15,right,73,2020-12-12_10h06.45.254,premup-three_ses-02_part-02_label-phase2,3.2.4,Win32,60,,,,,,,,,,,,,,,,,1,0,330,153,1,329,2,,,,,,
left,0.662999868,0,357,,,,,,,,,,,,,2,4,3,stim/43.jpeg,HouseObjects,2,stim/objects/HouseObjects/dishsoap4.png,0.3,1,-0.2,0.15,right,73,2020-12-12_10h06.45.254,premup-three_ses-02_part-02_label-phase2,3.2.4,Win32,60,,,,,,,,,,,,,,,,,1,0,330,129,1,329,1,,,,,,
right,0.833999872,0,358,,,,,,,,,,,,,3,5,3,stim/53.jpeg,Instruments,1,stim/objects/Instruments/frenchhorn4.png,0.1,4,0.2,-0.15,left,73,2020-12-12_10h06.45.254,premup-three_ses-02_part-02_label-phase2,3.2.4,Win32,60,,,,,,,,,,,,,,,,,1,0,330,132,1,329,1,,,,,,
left,0.516999722,1,359,,,,,,,,,,,,,3,6,1,stim/61.jpeg,Instruments,1,stim/objects/Instruments/grandpiano3.png,0.9,1,-0.2,0.15,left,73,2020-12-12_10h06.45.254,premup-three_ses-02_part-02_label-phase2,3.2.4,Win32,60,,,,,,,,,,,,,,,,,1,0,330,254,1,329,2,,,,,,
right,0.577000141,0,360,,,,,,,,,,,,,2,4,2,stim/42.jpeg,Instruments,1,stim/objects/Instruments/doublebass4.png,0.7,4,0.2,-0.15,left,73,2020-12-12_10h06.45.254,premup-three_ses-02_part-02_label-phase2,3.2.4,Win32,60,,,,,,,,,,,,,,,,,1,0,330,116,1,329,1,,,,,,
left,0.532999992,1,361,,,,,,,,,,,,,3,6,3,stim/63.jpeg,Instruments,1,stim/objects/Instruments/gong3.png,0.9,4,0.2,-0.15,left,73,2020-12-12_10h06.45.254,premup-three_ses-02_part-02_label-phase2,3.2.4,Win32,60,,,,,,,,,,,,,,,,,1,0,330,248,1,329,2,,,,,,
left,0.70600009,1,362,,,,,,,,,,,,,2,4,1,stim/41.jpeg,Instruments,1,stim/objects/Instruments/cymbal4.png,0.7,2,0.2,0.15,left,73,2020-12-12_10h06.45.254,premup-three_ses-02_part-02_label-phase2,3.2.4,Win32,60,,,,,,,,,,,,,,,,,1,0,330,115,1,329,1,,,,,,
left,0.521999836,1,363,,,,,,,,,,,,,2,3,3,stim/33.jpeg,Instruments,1,stim/objects/Instruments/violin3.png,0.3,1,-0.2,0.15,left,73,2020-12-12_10h06.45.254,premup-three_ses-02_part-02_label-phase2,3.2.4,Win32,60,,,,,,,,,,,,,,,,,1,0,330,62,1,329,1,,,,,,
right,0.615999937,1,364,,,,,,,,,,,,,3,5,3,stim/53.jpeg,HouseObjects,2,stim/objects/HouseObjects/flyswatter3.png,0.9,1,-0.2,0.15,right,73,2020-12-12_10h06.45.254,premup-three_ses-02_part-02_label-phase2,3.2.4,Win32,60,,,,,,,,,,,,,,,,,1,0,330,212,1,329,2,,,,,,
right,0.494999886,1,365,,,,,,,,,,,,,3,5,3,stim/53.jpeg,HouseObjects,2,stim/objects/HouseObjects/doormat3.png,0.9,2,0.2,0.15,right,73,2020-12-12_10h06.45.254,premup-three_ses-02_part-02_label-phase2,3.2.4,Win32,60,,,,,,,,,,,,,,,,,1,0,330,140,1,329,2,,,,,,
left,0.934000015,1,366,,,,,,,,,,,,,2,4,3,stim/43.jpeg,Instruments,1,stim/objects/Instruments/drums4.png,0.7,4,0.2,-0.15,left,73,2020-12-12_10h06.45.254,premup-three_ses-02_part-02_label-phase2,3.2.4,Win32,60,,,,,,,,,,,,,,,,,1,0,330,117,1,329,1,,,,,,
right,0.509000063,1,367,,,,,,,,,,,,,3,5,4,stim/54.jpeg,HouseObjects,2,stim/objects/HouseObjects/garbagebin3.png,0.9,3,-0.2,-0.15,right,73,2020-12-12_10h06.45.254,premup-three_ses-02_part-02_label-phase2,3.2.4,Win32,60,,,,,,,,,,,,,,,,,1,0,330,193,1,329,2,,,,,,
right,0.814999819,0,368,,,,,,,,,,,,,1,1,3,stim/13.jpeg,Instruments,1,stim/objects/Instruments/acousticguitar3.png,0.5,3,-0.2,-0.15,left,73,2020-12-12_10h06.45.254,premup-three_ses-02_part-02_label-phase2,3.2.4,Win32,60,,,,,,,,,,,,,,,,,1,0,330,6,1,329,2,,,,,,
right,0.521999836,1,369,,,,,,,,,,,,,3,5,3,stim/53.jpeg,HouseObjects,2,stim/objects/HouseObjects/glass3.png,0.9,2,0.2,0.15,right,73,2020-12-12_10h06.45.254,premup-three_ses-02_part-02_label-phase2,3.2.4,Win32,60,,,,,,,,,,,,,,,,,1,0,330,144,1,329,2,,,,,,
left,0.626999855,0,370,,,,,,,,,,,,,2,4,1,stim/41.jpeg,HouseObjects,2,stim/objects/HouseObjects/bucket4.png,0.3,1,-0.2,0.15,right,73,2020-12-12_10h06.45.254,premup-three_ses-02_part-02_label-phase2,3.2.4,Win32,60,,,,,,,,,,,,,,,,,1,0,330,123,1,329,1,,,,,,
right,0.691999912,0,371,,,,,,,,,,,,,2,4,4,stim/44.jpeg,Instruments,1,stim/objects/Instruments/doublebass3.png,0.7,2,0.2,0.15,left,73,2020-12-12_10h06.45.254,premup-three_ses-02_part-02_label-phase2,3.2.4,Win32,60,,,,,,,,,,,,,,,,,1,0,330,106,1,329,2,,,,,,
right,0.641999722,0,372,,,,,,,,,,,,,3,5,4,stim/54.jpeg,Instruments,1,stim/objects/Instruments/gong4.png,0.1,2,0.2,0.15,left,73,2020-12-12_10h06.45.254,premup-three_ses-02_part-02_label-phase2,3.2.4,Win32,60,,,,,,,,,,,,,,,,,1,0,330,133,1,329,1,,,,,,
left,0.633000135,0,373,,,,,,,,,,,,,3,5,4,stim/54.jpeg,HouseObjects,2,stim/objects/HouseObjects/doormat3.png,0.9,4,0.2,-0.15,right,73,2020-12-12_10h06.45.254,premup-three_ses-02_part-02_label-phase2,3.2.4,Win32,60,,,,,,,,,,,,,,,,,1,0,330,185,1,329,2,,,,,,
right,0.595999956,1,374,,,,,,,,,,,,,3,5,4,stim/54.jpeg,HouseObjects,2,stim/objects/HouseObjects/glass3.png,0.9,2,0.2,0.15,right,73,2020-12-12_10h06.45.254,premup-three_ses-02_part-02_label-phase2,3.2.4,Win32,60,,,,,,,,,,,,,,,,,1,0,330,169,1,329,2,,,,,,
right,0.440999985,1,375,,,,,,,,,,,,,3,5,3,stim/53.jpeg,HouseObjects,2,stim/objects/HouseObjects/dustpan3.png,0.9,4,0.2,-0.15,right,73,2020-12-12_10h06.45.254,premup-three_ses-02_part-02_label-phase2,3.2.4,Win32,60,,,,,,,,,,,,,,,,,1,0,330,176,1,329,2,,,,,,
right,0.634999752,1,376,,,,,,,,,,,,,3,5,1,stim/51.jpeg,HouseObjects,2,stim/objects/HouseObjects/doormat3.png,0.9,2,0.2,0.15,right,73,2020-12-12_10h06.45.254,premup-three_ses-02_part-02_label-phase2,3.2.4,Win32,60,,,,,,,,,,,,,,,,,1,0,330,210,1,329,2,,,,,,
left,0.691999912,1,377,,,,,,,,,,,,,3,6,3,stim/63.jpeg,Instruments,1,stim/objects/Instruments/gong3.png,0.9,4,0.2,-0.15,left,73,2020-12-12_10h06.45.254,premup-three_ses-02_part-02_label-phase2,3.2.4,Win32,60,,,,,,,,,,,,,,,,,1,0,330,288,1,329,2,,,,,,
left,0.502999783,1,378,,,,,,,,,,,,,3,6,1,stim/61.jpeg,Instruments,1,stim/objects/Instruments/grandpiano3.png,0.9,1,-0.2,0.15,left,73,2020-12-12_10h06.45.254,premup-three_ses-02_part-02_label-phase2,3.2.4,Win32,60,,,,,,,,,,,,,,,,,1,0,330,294,1,329,2,,,,,,
right,0.549999952,1,379,,,,,,,,,,,,,3,5,4,stim/54.jpeg,HouseObjects,2,stim/objects/HouseObjects/flyswatter3.png,0.9,2,0.2,0.15,right,73,2020-12-12_10h06.45.254,premup-three_ses-02_part-02_label-phase2,3.2.4,Win32,60,,,,,,,,,,,,,,,,,1,0,330,177,1,329,2,,,,,,
left,0.457999945,1,380,,,,,,,,,,,,,3,6,1,stim/61.jpeg,Instruments,1,stim/objects/Instruments/flute3.png,0.9,1,-0.2,0.15,left,73,2020-12-12_10h06.45.254,premup-three_ses-02_part-02_label-phase2,3.2.4,Win32,60,,,,,,,,,,,,,,,,,1,0,330,270,1,329,2,,,,,,
left,0.365999699,1,381,,,,,,,,,,,,,3,6,4,stim/64.jpeg,Instruments,1,stim/objects/Instruments/gong3.png,0.9,1,-0.2,0.15,left,73,2020-12-12_10h06.45.254,premup-three_ses-02_part-02_label-phase2,3.2.4,Win32,60,,,,,,,,,,,,,,,,,1,0,330,233,1,329,2,,,,,,
