id_acc,key_resp_id.keys,key_resp_id.rt,key_resp_conf.keys,key_resp_conf.rt,assoc_acc,key_resp_assoc.keys,key_resp_assoc.rt,loc_acc,key_resp_loc.keys,key_resp_loc.rt,task_innerloop.thisRepN,task_innerloop.thisTrialN,task_innerloop.thisN,task_innerloop.thisIndex,task_innerloop.ran,task_innerloop.order,context_type,object_cat,PE_level,OvsN,obj_file,scn_file,corr_scn_cat,assoc_file,corr_scn_inst,corr_loc,participant,date,expName,psychopyVersion,OS,frameRate
1,right,1.235999823,4,5.301000118,0,4,13.26399994,0,4,1.406000137,1,0,200,60,1,199,3,1,0.1,1,stim/objects/Instruments/flute4.png,stim/51.jpeg,5,stim/5.png,1,3,73,2020-12-13_10h03.23.599,premup-three_ses-02_part-03_label-phase3,3.2.4,Win32,60
1,right,1.055999994,3,6.504000187,0,2,5.414999962,0,2,1.484999895,1,0,200,65,1,199,3,1,0.1,1,stim/objects/Instruments/guitarcase4.png,stim/52.jpeg,5,stim/5.png,2,2,73,2020-12-13_10h03.23.599,premup-three_ses-02_part-03_label-phase3,3.2.4,Win32,60
1,right,3.247999907,,,0,,,0,,,1,0,200,163,1,199,0,1,0,2,stim/objects/Instruments/vuvuzela.png,,0,stim/0.png,0,0,73,2020-12-13_10h03.23.599,premup-three_ses-02_part-03_label-phase3,3.2.4,Win32,60
1,right,6.486000061,,,0,,,0,,,1,0,200,198,1,199,0,2,0,2,stim/objects/HouseObjects/cushion2.png,,0,stim/0.png,0,0,73,2020-12-13_10h03.23.599,premup-three_ses-02_part-03_label-phase3,3.2.4,Win32,60
1,right,5.321000099,,,0,,,0,,,1,0,200,101,1,199,0,1,0,2,stim/objects/Instruments/acousticguitar.png,,0,stim/0.png,0,0,73,2020-12-13_10h03.23.599,premup-three_ses-02_part-03_label-phase3,3.2.4,Win32,60
1,right,1.013999939,,,0,,,0,,,1,0,200,191,1,199,0,2,0,2,stim/objects/HouseObjects/bottle2.png,,0,stim/0.png,0,0,73,2020-12-13_10h03.23.599,premup-three_ses-02_part-03_label-phase3,3.2.4,Win32,60
1,left,1.042999983,4,1.397000074,0,3,8.691999912,0,3,1.223999977,1,0,200,56,1,199,2,2,0.3,1,stim/objects/HouseObjects/clothespin4.png,stim/44.jpeg,4,stim/4.png,4,4,73,2020-12-13_10h03.23.599,premup-three_ses-02_part-03_label-phase3,3.2.4,Win32,60
1,left,1.573999882,4,0.964999914,0,3,2.641000032,0,4,2.411000013,1,0,200,35,1,199,2,2,0.7,1,stim/objects/HouseObjects/ashtray4.png,stim/33.jpeg,3,stim/3.png,3,1,73,2020-12-13_10h03.23.599,premup-three_ses-02_part-03_label-phase3,3.2.4,Win32,60
1,right,1.438999891,,,0,,,0,,,1,0,200,150,1,199,0,2,0,2,stim/objects/HouseObjects/glassmop.png,,0,stim/0.png,0,0,73,2020-12-13_10h03.23.599,premup-three_ses-02_part-03_label-phase3,3.2.4,Win32,60
1,right,1.753999949,,,0,,,0,,,1,0,200,147,1,199,0,1,0,2,stim/objects/Instruments/marimba.png,,0,stim/0.png,0,0,73,2020-12-13_10h03.23.599,premup-three_ses-02_part-03_label-phase3,3.2.4,Win32,60
1,left,2.386999846,,,0,,,0,,,1,0,200,135,1,199,0,2,0,2,stim/objects/HouseObjects/doormat.png,,0,stim/0.png,0,0,73,2020-12-13_10h03.23.599,premup-three_ses-02_part-03_label-phase3,3.2.4,Win32,60
1,right,2.824999809,,,0,,,0,,,1,0,200,102,1,199,0,1,0,2,stim/objects/Instruments/balalaika.png,,0,stim/0.png,0,0,73,2020-12-13_10h03.23.599,premup-three_ses-02_part-03_label-phase3,3.2.4,Win32,60
1,right,0.809000015,4,1.818000078,0,4,1.367000103,0,3,7.226999998,1,0,200,77,1,199,3,2,0.9,1,stim/objects/HouseObjects/handbrush4.png,stim/52.jpeg,5,stim/5.png,2,1,73,2020-12-13_10h03.23.599,premup-three_ses-02_part-03_label-phase3,3.2.4,Win32,60
1,right,1.575000048,,,0,,,0,,,1,0,200,172,1,199,0,2,0,2,stim/objects/HouseObjects/towel.png,,0,stim/0.png,0,0,73,2020-12-13_10h03.23.599,premup-three_ses-02_part-03_label-phase3,3.2.4,Win32,60
1,right,3.085999966,,,0,,,0,,,1,0,200,136,1,199,0,2,0,2,stim/objects/HouseObjects/dustpan.png,,0,stim/0.png,0,0,73,2020-12-13_10h03.23.599,premup-three_ses-02_part-03_label-phase3,3.2.4,Win32,60
1,right,0.888000011,4,1.732000113,0,4,0.707999945,0,4,0.859999895,1,0,200,14,1,199,1,2,0.5,1,stim/objects/Instruments/musicsheet3.png,stim/21.jpeg,2,stim/2.png,1,1,73,2020-12-13_10h03.23.599,premup-three_ses-02_part-03_label-phase3,3.2.4,Win32,60
1,right,4.530999899,,,0,,,0,,,1,0,200,192,1,199,0,2,0,2,stim/objects/HouseObjects/broom2.png,,0,stim/0.png,0,0,73,2020-12-13_10h03.23.599,premup-three_ses-02_part-03_label-phase3,3.2.4,Win32,60
1,right,1.345999956,,,0,,,0,,,1,0,200,112,1,199,0,2,0,2,stim/objects/HouseObjects/barbecuelighter.png,,0,stim/0.png,0,0,73,2020-12-13_10h03.23.599,premup-three_ses-02_part-03_label-phase3,3.2.4,Win32,60
1,right,1.049000025,,,0,,,0,,,1,0,200,105,1,199,0,1,0,2,stim/objects/Instruments/bassguitar.png,,0,stim/0.png,0,0,73,2020-12-13_10h03.23.599,premup-three_ses-02_part-03_label-phase3,3.2.4,Win32,60
1,right,1.65199995,4,1.148000002,0,4,0.963000059,0,4,0.746999979,1,0,200,9,1,199,1,1,0.5,1,stim/objects/HouseObjects/iron3.png,stim/12.jpeg,1,stim/1.png,2,2,73,2020-12-13_10h03.23.599,premup-three_ses-02_part-03_label-phase3,3.2.4,Win32,60
1,right,1.278000116,,,0,,,0,,,1,0,200,107,1,199,0,1,0,2,stim/objects/Instruments/chime.png,,0,stim/0.png,0,0,73,2020-12-13_10h03.23.599,premup-three_ses-02_part-03_label-phase3,3.2.4,Win32,60
1,right,1.220999956,,,0,,,0,,,1,0,200,175,1,199,0,2,0,2,stim/objects/HouseObjects/ashtray2.png,,0,stim/0.png,0,0,73,2020-12-13_10h03.23.599,premup-three_ses-02_part-03_label-phase3,3.2.4,Win32,60
1,left,0.854000092,,,0,,,0,,,1,0,200,142,1,199,0,1,0,2,stim/objects/Instruments/harp.png,,0,stim/0.png,0,0,73,2020-12-13_10h03.23.599,premup-three_ses-02_part-03_label-phase3,3.2.4,Win32,60
1,right,1.77699995,,,0,,,0,,,1,0,200,195,1,199,0,2,0,2,stim/objects/HouseObjects/clothesdryingrack2.png,,0,stim/0.png,0,0,73,2020-12-13_10h03.23.599,premup-three_ses-02_part-03_label-phase3,3.2.4,Win32,60
1,left,1.648999929,3,1.06799984,0,4,2.424999952,0,4,0.72300005,1,0,200,99,1,199,3,2,0.1,1,stim/objects/HouseObjects/wateringcan4.png,stim/64.jpeg,6,stim/6.png,4,2,73,2020-12-13_10h03.23.599,premup-three_ses-02_part-03_label-phase3,3.2.4,Win32,60
1,right,2.275000095,2,2.355000019,0,3,5.400000095,0,4,0,1,0,200,27,1,199,2,1,0.3,1,stim/objects/Instruments/balalaika4.png,stim/34.jpeg,3,stim/3.png,4,2,73,2020-12-13_10h03.23.599,premup-three_ses-02_part-03_label-phase3,3.2.4,Win32,60
1,right,5.063999891,3,2.277999878,0,3,2.246999979,0,4,1.422999859,1,0,200,95,1,199,3,2,0.1,1,stim/objects/HouseObjects/pan4.png,stim/64.jpeg,6,stim/6.png,4,2,73,2020-12-13_10h03.23.599,premup-three_ses-02_part-03_label-phase3,3.2.4,Win32,60
1,right,1.977999926,2,1.810000181,0,2,0.546000004,0,4,2.132999897,1,0,200,53,1,199,2,2,0.3,1,stim/objects/HouseObjects/bucket4.png,stim/41.jpeg,4,stim/4.png,1,1,73,2020-12-13_10h03.23.599,premup-three_ses-02_part-03_label-phase3,3.2.4,Win32,60
1,right,1.539000034,,,0,,,0,,,1,0,200,118,1,199,0,2,0,2,stim/objects/HouseObjects/bucket.png,,0,stim/0.png,0,0,73,2020-12-13_10h03.23.599,premup-three_ses-02_part-03_label-phase3,3.2.4,Win32,60
1,right,1.197999954,,,0,,,0,,,1,0,200,155,1,199,0,2,0,2,stim/objects/HouseObjects/ironingboard.png,,0,stim/0.png,0,0,73,2020-12-13_10h03.23.599,premup-three_ses-02_part-03_label-phase3,3.2.4,Win32,60
1,right,1.042999983,2,1.832000017,0,3,4.406999826,0,1,2.397000074,1,0,200,76,1,199,3,2,0.9,1,stim/objects/HouseObjects/hairdryer4.png,stim/51.jpeg,5,stim/5.png,1,4,73,2020-12-13_10h03.23.599,premup-three_ses-02_part-03_label-phase3,3.2.4,Win32,60
1,right,2.148000002,,,0,,,0,,,1,0,200,117,1,199,0,2,0,2,stim/objects/HouseObjects/broom.png,,0,stim/0.png,0,0,73,2020-12-13_10h03.23.599,premup-three_ses-02_part-03_label-phase3,3.2.4,Win32,60
1,right,1.055000067,3,4.10800004,0,4,1.414999962,0,4,1.276000023,1,0,200,28,1,199,2,1,0.3,1,stim/objects/Instruments/banjo4.png,stim/31.jpeg,3,stim/3.png,1,3,73,2020-12-13_10h03.23.599,premup-three_ses-02_part-03_label-phase3,3.2.4,Win32,60
1,left,1.792999983,3,1.358999968,0,3,3.809000015,0,1,2.198999882,1,0,200,81,1,199,3,1,0.9,1,stim/objects/Instruments/maraca4.png,stim/62.jpeg,6,stim/6.png,2,4,73,2020-12-13_10h03.23.599,premup-three_ses-02_part-03_label-phase3,3.2.4,Win32,60
1,left,1.944000006,,,0,,,0,,,1,0,200,183,1,199,0,1,0,2,stim/objects/Instruments/clarinet2.png,,0,stim/0.png,0,0,73,2020-12-13_10h03.23.599,premup-three_ses-02_part-03_label-phase3,3.2.4,Win32,60
1,right,2.134000063,,,0,,,0,,,1,0,200,196,1,199,0,2,0,2,stim/objects/HouseObjects/clothespin2.png,,0,stim/0.png,0,0,73,2020-12-13_10h03.23.599,premup-three_ses-02_part-03_label-phase3,3.2.4,Win32,60
1,right,1.838999987,,,0,,,0,,,1,0,200,115,1,199,0,2,0,2,stim/objects/HouseObjects/blender.png,,0,stim/0.png,0,0,73,2020-12-13_10h03.23.599,premup-three_ses-02_part-03_label-phase3,3.2.4,Win32,60
1,left,1.79399991,3,1.226000071,0,4,2.595999956,0,2,1.46600008,1,0,200,21,1,199,2,1,0.3,1,stim/objects/Instruments/oboe3.png,stim/32.jpeg,3,stim/3.png,2,4,73,2020-12-13_10h03.23.599,premup-three_ses-02_part-03_label-phase3,3.2.4,Win32,60
1,right,1.354999781,3,3.156999826,0,1,2.49000001,0,4,3.798000097,1,0,200,73,1,199,3,2,0.9,1,stim/objects/HouseObjects/garbagebin4.png,stim/52.jpeg,5,stim/5.png,2,1,73,2020-12-13_10h03.23.599,premup-three_ses-02_part-03_label-phase3,3.2.4,Win32,60
1,left,1.361000061,4,0.967999935,0,3,2.806999922,0,2,1,1,0,200,88,1,199,3,1,0.9,1,stim/objects/Instruments/vuvuzela4.png,stim/61.jpeg,6,stim/6.png,1,4,73,2020-12-13_10h03.23.599,premup-three_ses-02_part-03_label-phase3,3.2.4,Win32,60
1,left,3.799000025,,,0,,,0,,,1,0,200,169,1,199,0,1,0,2,stim/objects/Instruments/bassdrum2.png,,0,stim/0.png,0,0,73,2020-12-13_10h03.23.599,premup-three_ses-02_part-03_label-phase3,3.2.4,Win32,60
1,right,2.433000088,,,0,,,0,,,1,0,200,144,1,199,0,1,0,2,stim/objects/Instruments/keyboard.png,,0,stim/0.png,0,0,73,2020-12-13_10h03.23.599,premup-three_ses-02_part-03_label-phase3,3.2.4,Win32,60
1,left,1.904000044,2,1.235000134,0,2,2.157999992,0,2,0.797999859,1,0,200,80,1,199,3,1,0.9,1,stim/objects/Instruments/laud4.png,stim/61.jpeg,6,stim/6.png,1,2,73,2020-12-13_10h03.23.599,premup-three_ses-02_part-03_label-phase3,3.2.4,Win32,60
1,right,2.890999794,,,0,,,0,,,1,0,200,173,1,199,0,2,0,2,stim/objects/HouseObjects/vacuumcleaner.png,,0,stim/0.png,0,0,73,2020-12-13_10h03.23.599,premup-three_ses-02_part-03_label-phase3,3.2.4,Win32,60
1,right,1.671999931,,,0,,,0,,,1,0,200,180,1,199,0,1,0,2,stim/objects/Instruments/bassguitar2.png,,0,stim/0.png,0,0,73,2020-12-13_10h03.23.599,premup-three_ses-02_part-03_label-phase3,3.2.4,Win32,60
1,right,0.672999859,1,2.552999973,0,1,1.801000118,0,4,0.684999943,1,0,200,34,1,199,2,2,0.7,1,stim/objects/HouseObjects/wateringcan3.png,stim/32.jpeg,3,stim/3.png,2,3,73,2020-12-13_10h03.23.599,premup-three_ses-02_part-03_label-phase3,3.2.4,Win32,60
1,right,1.56400013,2,4.913000107,0,4,1.731000185,0,1,1.181999922,1,0,200,18,1,199,1,2,0.5,1,stim/objects/HouseObjects/lintroller3.png,stim/23.jpeg,2,stim/2.png,3,3,73,2020-12-13_10h03.23.599,premup-three_ses-02_part-03_label-phase3,3.2.4,Win32,60
1,right,3.420000076,,,0,,,0,,,1,0,200,154,1,199,0,2,0,2,stim/objects/HouseObjects/iron.png,,0,stim/0.png,0,0,73,2020-12-13_10h03.23.599,premup-three_ses-02_part-03_label-phase3,3.2.4,Win32,60
1,right,1.082999945,,,0,,,0,,,1,0,200,176,1,199,0,2,0,2,stim/objects/HouseObjects/ballofstring2.png,,0,stim/0.png,0,0,73,2020-12-13_10h03.23.599,premup-three_ses-02_part-03_label-phase3,3.2.4,Win32,60
1,left,0.795000076,4,0.963000059,0,4,12.01399994,0,2,2.162999868,1,0,200,62,1,199,3,1,0.1,1,stim/objects/Instruments/frenchhorn4.png,stim/53.jpeg,5,stim/5.png,3,4,73,2020-12-13_10h03.23.599,premup-three_ses-02_part-03_label-phase3,3.2.4,Win32,60
1,right,4.116000175,,,0,,,0,,,1,0,200,111,1,199,0,2,0,2,stim/objects/HouseObjects/ballofstring.png,,0,stim/0.png,0,0,73,2020-12-13_10h03.23.599,premup-three_ses-02_part-03_label-phase3,3.2.4,Win32,60
1,left,1.123999834,3,1.260999918,0,4,2.078999996,0,2,0.756999969,1,0,200,67,1,199,3,1,0.1,1,stim/objects/Instruments/harp4.png,stim/54.jpeg,5,stim/5.png,4,2,73,2020-12-13_10h03.23.599,premup-three_ses-02_part-03_label-phase3,3.2.4,Win32,60
1,right,5.214999914,2,0.902999878,0,2,1.736000061,0,2,1.187000036,1,0,200,83,1,199,3,1,0.9,1,stim/objects/Instruments/metronome4.png,stim/64.jpeg,6,stim/6.png,4,2,73,2020-12-13_10h03.23.599,premup-three_ses-02_part-03_label-phase3,3.2.4,Win32,60
1,right,0.990999937,,,0,,,0,,,1,0,200,181,1,199,0,1,0,2,stim/objects/Instruments/cello2.png,,0,stim/0.png,0,0,73,2020-12-13_10h03.23.599,premup-three_ses-02_part-03_label-phase3,3.2.4,Win32,60
1,left,1.869999886,3,0.787999868,0,1,2.220999956,0,3,1.141000032,1,0,200,24,1,199,2,1,0.3,1,stim/objects/Instruments/xylophone3.png,stim/31.jpeg,3,stim/3.png,1,3,73,2020-12-13_10h03.23.599,premup-three_ses-02_part-03_label-phase3,3.2.4,Win32,60
1,right,1.951999903,,,0,,,0,,,1,0,200,164,1,199,0,1,0,2,stim/objects/Instruments/xylophone.png,,0,stim/0.png,0,0,73,2020-12-13_10h03.23.599,premup-three_ses-02_part-03_label-phase3,3.2.4,Win32,60
1,right,1.618000031,2,0.930999994,0,4,1.23300004,0,2,0.724999905,1,0,200,15,1,199,1,2,0.5,1,stim/objects/HouseObjects/ironingboard3.png,stim/24.jpeg,2,stim/2.png,4,1,73,2020-12-13_10h03.23.599,premup-three_ses-02_part-03_label-phase3,3.2.4,Win32,60
1,right,5.18900013,2,2.105999947,0,4,2.671000004,0,2,0.618999958,1,0,200,91,1,199,3,2,0.1,1,stim/objects/HouseObjects/key4.png,stim/64.jpeg,6,stim/6.png,4,4,73,2020-12-13_10h03.23.599,premup-three_ses-02_part-03_label-phase3,3.2.4,Win32,60
1,right,6.118000031,2,2.89199996,0,3,1.911000013,0,1,0.84800005,1,0,200,26,1,199,2,1,0.3,1,stim/objects/Instruments/acousticguitar4.png,stim/33.jpeg,3,stim/3.png,3,3,73,2020-12-13_10h03.23.599,premup-three_ses-02_part-03_label-phase3,3.2.4,Win32,60
1,left,2.234999895,,,0,,,0,,,1,0,200,110,1,199,0,2,0,2,stim/objects/HouseObjects/ashtray.png,,0,stim/0.png,0,0,73,2020-12-13_10h03.23.599,premup-three_ses-02_part-03_label-phase3,3.2.4,Win32,60
1,left,1.528000116,4,1.406000137,0,1,2.883999825,0,1,1.424000025,1,0,200,92,1,199,3,2,0.1,1,stim/objects/HouseObjects/knife4.png,stim/61.jpeg,6,stim/6.png,1,3,73,2020-12-13_10h03.23.599,premup-three_ses-02_part-03_label-phase3,3.2.4,Win32,60
1,right,4.209000111,,,0,,,0,,,1,0,200,153,1,199,0,2,0,2,stim/objects/HouseObjects/handvacuum.png,,0,stim/0.png,0,0,73,2020-12-13_10h03.23.599,premup-three_ses-02_part-03_label-phase3,3.2.4,Win32,60
1,right,1.443000078,,,0,,,0,,,1,0,200,140,1,199,0,1,0,2,stim/objects/Instruments/guitarcase.png,,0,stim/0.png,0,0,73,2020-12-13_10h03.23.599,premup-three_ses-02_part-03_label-phase3,3.2.4,Win32,60
1,left,0.812000036,4,0.77699995,0,2,1.756000042,0,2,1.872999907,1,0,200,2,1,199,1,1,0.5,1,stim/objects/Instruments/harp3.png,stim/11.jpeg,1,stim/1.png,1,2,73,2020-12-13_10h03.23.599,premup-three_ses-02_part-03_label-phase3,3.2.4,Win32,60
1,right,3.628999949,3,1.976999998,0,3,1.406999826,0,2,4.980999947,1,0,200,49,1,199,2,1,0.7,1,stim/objects/Instruments/electricguitar4.png,stim/41.jpeg,4,stim/4.png,1,3,73,2020-12-13_10h03.23.599,premup-three_ses-02_part-03_label-phase3,3.2.4,Win32,60
1,right,2.039000034,4,1.160000086,0,4,0.878999949,0,4,1.406000137,1,0,200,3,1,199,1,1,0.5,1,stim/objects/Instruments/hihat3.png,stim/12.jpeg,1,stim/1.png,2,3,73,2020-12-13_10h03.23.599,premup-three_ses-02_part-03_label-phase3,3.2.4,Win32,60
1,right,3.504000187,,,0,,,0,,,1,0,200,194,1,199,0,2,0,2,stim/objects/HouseObjects/clock2.png,,0,stim/0.png,0,0,73,2020-12-13_10h03.23.599,premup-three_ses-02_part-03_label-phase3,3.2.4,Win32,60
1,left,1.345999956,,,0,,,0,,,1,0,200,108,1,199,0,1,0,2,stim/objects/Instruments/clarinet.png,,0,stim/0.png,0,0,73,2020-12-13_10h03.23.599,premup-three_ses-02_part-03_label-phase3,3.2.4,Win32,60
1,right,0.982000113,,,0,,,0,,,1,0,200,133,1,199,0,2,0,2,stim/objects/HouseObjects/cushion.png,,0,stim/0.png,0,0,73,2020-12-13_10h03.23.599,premup-three_ses-02_part-03_label-phase3,3.2.4,Win32,60
1,left,0.743999958,,,0,,,0,,,1,0,200,170,1,199,0,2,0,2,stim/objects/HouseObjects/pan.png,,0,stim/0.png,0,0,73,2020-12-13_10h03.23.599,premup-three_ses-02_part-03_label-phase3,3.2.4,Win32,60
1,right,1.207000017,,,0,,,0,,,1,0,200,132,1,199,0,2,0,2,stim/objects/HouseObjects/coffee.png,,0,stim/0.png,0,0,73,2020-12-13_10h03.23.599,premup-three_ses-02_part-03_label-phase3,3.2.4,Win32,60
1,right,0.940999985,1,1.623000145,0,3,1.026000023,0,1,1.05099988,1,0,200,57,1,199,2,2,0.3,1,stim/objects/HouseObjects/coffee4.png,stim/41.jpeg,4,stim/4.png,1,3,73,2020-12-13_10h03.23.599,premup-three_ses-02_part-03_label-phase3,3.2.4,Win32,60
1,left,1.257000208,,,0,,,0,,,1,0,200,149,1,199,0,1,0,2,stim/objects/Instruments/musicsheet.png,,0,stim/0.png,0,0,73,2020-12-13_10h03.23.599,premup-three_ses-02_part-03_label-phase3,3.2.4,Win32,60
1,left,1.265000105,,,0,,,0,,,1,0,200,109,1,199,0,1,0,2,stim/objects/Instruments/cornet.png,,0,stim/0.png,0,0,73,2020-12-13_10h03.23.599,premup-three_ses-02_part-03_label-phase3,3.2.4,Win32,60
1,right,0.698999882,4,1.78399992,0,4,1.329999924,0,4,1.537000179,1,0,200,75,1,199,3,2,0.9,1,stim/objects/HouseObjects/glassmop4.png,stim/54.jpeg,5,stim/5.png,4,3,73,2020-12-13_10h03.23.599,premup-three_ses-02_part-03_label-phase3,3.2.4,Win32,60
1,left,1.212000132,3,1.386000156,0,3,3.664000034,0,3,1.452000141,1,0,200,16,1,199,1,2,0.5,1,stim/objects/HouseObjects/key3.png,stim/21.jpeg,2,stim/2.png,1,4,73,2020-12-13_10h03.23.599,premup-three_ses-02_part-03_label-phase3,3.2.4,Win32,60
1,right,6.096999884,,,0,,,0,,,1,0,200,151,1,199,0,2,0,2,stim/objects/HouseObjects/hairdryer.png,,0,stim/0.png,0,0,73,2020-12-13_10h03.23.599,premup-three_ses-02_part-03_label-phase3,3.2.4,Win32,60
1,right,1.755000114,,,0,,,0,,,1,0,200,189,1,199,0,1,0,2,stim/objects/Instruments/electricguitar2.png,,0,stim/0.png,0,0,73,2020-12-13_10h03.23.599,premup-three_ses-02_part-03_label-phase3,3.2.4,Win32,60
1,left,1.050000191,4,0.913000107,0,4,1.026000023,0,2,1.627000093,1,0,200,42,1,199,2,1,0.7,1,stim/objects/Instruments/chime4.png,stim/42.jpeg,4,stim/4.png,2,4,73,2020-12-13_10h03.23.599,premup-three_ses-02_part-03_label-phase3,3.2.4,Win32,60
1,right,2.957999945,,,0,,,0,,,1,0,200,162,1,199,0,1,0,2,stim/objects/Instruments/violin.png,,0,stim/0.png,0,0,73,2020-12-13_10h03.23.599,premup-three_ses-02_part-03_label-phase3,3.2.4,Win32,60
1,left,2.282000065,,,0,,,0,,,1,0,200,128,1,199,0,1,0,2,stim/objects/Instruments/gong.png,,0,stim/0.png,0,0,73,2020-12-13_10h03.23.599,premup-three_ses-02_part-03_label-phase3,3.2.4,Win32,60
1,left,0.772000074,2,1.242000103,0,1,1.76699996,0,1,2.78399992,1,0,200,86,1,199,3,1,0.9,1,stim/objects/Instruments/oboe4.png,stim/63.jpeg,6,stim/6.png,3,1,73,2020-12-13_10h03.23.599,premup-three_ses-02_part-03_label-phase3,3.2.4,Win32,60
1,right,2.465000153,,,0,,,0,,,1,0,200,160,1,199,0,1,0,2,stim/objects/Instruments/musicstand.png,,0,stim/0.png,0,0,73,2020-12-13_10h03.23.599,premup-three_ses-02_part-03_label-phase3,3.2.4,Win32,60
1,left,1.293000221,,,0,,,0,,,1,0,200,106,1,199,0,1,0,2,stim/objects/Instruments/cello.png,,0,stim/0.png,0,0,73,2020-12-13_10h03.23.599,premup-three_ses-02_part-03_label-phase3,3.2.4,Win32,60
1,left,0.801000118,3,1.008999825,0,1,1.92599988,0,1,1.282999992,1,0,200,41,1,199,2,1,0.7,1,stim/objects/Instruments/cello4.png,stim/41.jpeg,4,stim/4.png,1,1,73,2020-12-13_10h03.23.599,premup-three_ses-02_part-03_label-phase3,3.2.4,Win32,60
1,right,1.468999863,,,0,,,0,,,1,0,200,178,1,199,0,2,0,2,stim/objects/HouseObjects/basket2.png,,0,stim/0.png,0,0,73,2020-12-13_10h03.23.599,premup-three_ses-02_part-03_label-phase3,3.2.4,Win32,60
1,left,1.389000177,,,0,,,0,,,1,0,200,134,1,199,0,2,0,2,stim/objects/HouseObjects/dishsoap.png,,0,stim/0.png,0,0,73,2020-12-13_10h03.23.599,premup-three_ses-02_part-03_label-phase3,3.2.4,Win32,60
1,left,4.513000011,,,0,,,0,,,1,0,200,141,1,199,0,1,0,2,stim/objects/Instruments/harmonica.png,,0,stim/0.png,0,0,73,2020-12-13_10h03.23.599,premup-three_ses-02_part-03_label-phase3,3.2.4,Win32,60
1,left,2.471999884,4,1.19299984,0,4,1.904000044,0,2,1.882999897,1,0,200,94,1,199,3,2,0.1,1,stim/objects/HouseObjects/match4.png,stim/63.jpeg,6,stim/6.png,3,2,73,2020-12-13_10h03.23.599,premup-three_ses-02_part-03_label-phase3,3.2.4,Win32,60
1,left,1.11500001,4,0.850999832,0,1,1.194000006,0,3,1.10800004,1,0,200,47,1,199,2,1,0.7,1,stim/objects/Instruments/drums4.png,stim/43.jpeg,4,stim/4.png,3,4,73,2020-12-13_10h03.23.599,premup-three_ses-02_part-03_label-phase3,3.2.4,Win32,60
1,left,4.151000023,3,1.13499999,0,4,2.224999905,0,2,1.319000006,1,0,200,85,1,199,3,1,0.9,1,stim/objects/Instruments/musicstand4.png,stim/62.jpeg,6,stim/6.png,2,2,73,2020-12-13_10h03.23.599,premup-three_ses-02_part-03_label-phase3,3.2.4,Win32,60
1,right,3.566999912,3,5.450999975,0,2,1.322999954,0,1,2.07400012,1,0,200,51,1,199,2,2,0.3,1,stim/objects/HouseObjects/bottle4.png,stim/43.jpeg,4,stim/4.png,3,3,73,2020-12-13_10h03.23.599,premup-three_ses-02_part-03_label-phase3,3.2.4,Win32,60
1,right,1.367999792,,,0,,,0,,,1,0,200,152,1,199,0,2,0,2,stim/objects/HouseObjects/handbrush.png,,0,stim/0.png,0,0,73,2020-12-13_10h03.23.599,premup-three_ses-02_part-03_label-phase3,3.2.4,Win32,60
1,right,0.937000036,2,3.808000088,0,3,3.013999939,0,2,0.441999912,1,0,200,36,1,199,2,2,0.7,1,stim/objects/HouseObjects/ballofstring4.png,stim/34.jpeg,3,stim/3.png,4,4,73,2020-12-13_10h03.23.599,premup-three_ses-02_part-03_label-phase3,3.2.4,Win32,60
1,right,1.049000025,,,0,,,0,,,1,0,200,171,1,199,0,2,0,2,stim/objects/HouseObjects/pitcher.png,,0,stim/0.png,0,0,73,2020-12-13_10h03.23.599,premup-three_ses-02_part-03_label-phase3,3.2.4,Win32,60
1,left,1.02699995,3,0.787000179,0,3,1.207000017,0,2,1.062999964,1,0,200,0,1,199,1,1,0.5,1,stim/objects/Instruments/guitarcase3.png,stim/13.jpeg,1,stim/1.png,3,1,73,2020-12-13_10h03.23.599,premup-three_ses-02_part-03_label-phase3,3.2.4,Win32,60
1,right,1.669000149,,,0,,,0,,,1,0,200,182,1,199,0,1,0,2,stim/objects/Instruments/chime2.png,,0,stim/0.png,0,0,73,2020-12-13_10h03.23.599,premup-three_ses-02_part-03_label-phase3,3.2.4,Win32,60
1,right,4.513000011,1,2.01699996,0,3,1.446000099,0,3,1.347000122,1,0,200,52,1,199,2,2,0.3,1,stim/objects/HouseObjects/broom4.png,stim/44.jpeg,4,stim/4.png,4,2,73,2020-12-13_10h03.23.599,premup-three_ses-02_part-03_label-phase3,3.2.4,Win32,60
1,right,1.559999943,,,0,,,0,,,1,0,200,157,1,199,0,2,0,2,stim/objects/HouseObjects/knife.png,,0,stim/0.png,0,0,73,2020-12-13_10h03.23.599,premup-three_ses-02_part-03_label-phase3,3.2.4,Win32,60
1,left,1.172999859,2,1.476000071,0,1,1.815999985,0,3,0.715000153,1,0,200,10,1,199,1,2,0.5,1,stim/objects/Instruments/laud3.png,stim/21.jpeg,2,stim/2.png,1,1,73,2020-12-13_10h03.23.599,premup-three_ses-02_part-03_label-phase3,3.2.4,Win32,60
1,right,1.25,2,1.769999981,0,2,2.496999979,0,2,2.171000004,1,0,200,61,1,199,3,1,0.1,1,stim/objects/Instruments/flutetrans4.png,stim/52.jpeg,5,stim/5.png,2,4,73,2020-12-13_10h03.23.599,premup-three_ses-02_part-03_label-phase3,3.2.4,Win32,60
1,left,2.642999887,3,1.837000132,0,4,3.493999958,0,2,0.933000088,1,0,200,44,1,199,2,1,0.7,1,stim/objects/Instruments/cornet4.png,stim/44.jpeg,4,stim/4.png,4,4,73,2020-12-13_10h03.23.599,premup-three_ses-02_part-03_label-phase3,3.2.4,Win32,60
1,right,3.078000069,2,1.013000011,0,3,3.967999935,0,4,1.207999945,1,0,200,39,1,199,2,2,0.7,1,stim/objects/HouseObjects/bleachbottle4.png,stim/33.jpeg,3,stim/3.png,3,2,73,2020-12-13_10h03.23.599,premup-three_ses-02_part-03_label-phase3,3.2.4,Win32,60
1,left,1.573000193,,,0,,,0,,,1,0,200,124,1,199,0,1,0,2,stim/objects/Instruments/electricguitar.png,,0,stim/0.png,0,0,73,2020-12-13_10h03.23.599,premup-three_ses-02_part-03_label-phase3,3.2.4,Win32,60
1,right,1.525000095,3,1.758000135,0,1,1.59100008,0,2,0.867999792,1,0,200,13,1,199,1,2,0.5,1,stim/objects/Instruments/metronome3.png,stim/24.jpeg,2,stim/2.png,4,2,73,2020-12-13_10h03.23.599,premup-three_ses-02_part-03_label-phase3,3.2.4,Win32,60
1,right,2.251000166,3,2.328000069,0,2,0.014000177,0,3,3.05099988,1,0,200,90,1,199,3,2,0.1,1,stim/objects/HouseObjects/ironingboard4.png,stim/63.jpeg,6,stim/6.png,3,4,73,2020-12-13_10h03.23.599,premup-three_ses-02_part-03_label-phase3,3.2.4,Win32,60
1,left,1.079000235,4,1.267999887,0,4,2.141000032,0,4,1.200000048,1,0,200,30,1,199,2,2,0.7,1,stim/objects/HouseObjects/pan3.png,stim/32.jpeg,3,stim/3.png,2,2,73,2020-12-13_10h03.23.599,premup-three_ses-02_part-03_label-phase3,3.2.4,Win32,60
1,right,3.798000097,,,0,,,0,,,1,0,200,138,1,199,0,2,0,2,stim/objects/HouseObjects/garbagebin.png,,0,stim/0.png,0,0,73,2020-12-13_10h03.23.599,premup-three_ses-02_part-03_label-phase3,3.2.4,Win32,60
1,right,5.027000189,2,1.433000088,0,3,2.334000111,0,3,2.095000029,1,0,200,64,1,199,3,1,0.1,1,stim/objects/Instruments/grandpiano4.png,stim/51.jpeg,5,stim/5.png,1,4,73,2020-12-13_10h03.23.599,premup-three_ses-02_part-03_label-phase3,3.2.4,Win32,60
1,right,1.029999971,4,2.69900012,0,4,1.246999979,0,2,1.845999956,1,0,200,71,1,199,3,2,0.9,1,stim/objects/HouseObjects/dustpan4.png,stim/54.jpeg,5,stim/5.png,4,2,73,2020-12-13_10h03.23.599,premup-three_ses-02_part-03_label-phase3,3.2.4,Win32,60
1,left,9.333999872,4,1.123999834,0,1,1.266000032,0,2,2.46600008,1,0,200,20,1,199,2,1,0.3,1,stim/objects/Instruments/musicstand3.png,stim/31.jpeg,3,stim/3.png,1,2,73,2020-12-13_10h03.23.599,premup-three_ses-02_part-03_label-phase3,3.2.4,Win32,60
1,left,1.53399992,4,1.541000128,0,4,1.628000021,0,4,1.495999813,1,0,200,11,1,199,1,2,0.5,1,stim/objects/Instruments/maraca3.png,stim/22.jpeg,2,stim/2.png,2,3,73,2020-12-13_10h03.23.599,premup-three_ses-02_part-03_label-phase3,3.2.4,Win32,60
1,left,1.263000011,,,0,,,0,,,1,0,200,161,1,199,0,1,0,2,stim/objects/Instruments/oboe.png,,0,stim/0.png,0,0,73,2020-12-13_10h03.23.599,premup-three_ses-02_part-03_label-phase3,3.2.4,Win32,60
1,right,1.277000189,3,1.985999823,0,3,1.608999968,0,1,2.690999985,1,0,200,48,1,199,2,1,0.7,1,stim/objects/Instruments/electricdrumset4.png,stim/44.jpeg,4,stim/4.png,4,3,73,2020-12-13_10h03.23.599,premup-three_ses-02_part-03_label-phase3,3.2.4,Win32,60
1,right,1.15899992,2,1.080999851,0,4,1.662000179,0,2,1.336999893,1,0,200,82,1,199,3,1,0.9,1,stim/objects/Instruments/marimba4.png,stim/63.jpeg,6,stim/6.png,3,3,73,2020-12-13_10h03.23.599,premup-three_ses-02_part-03_label-phase3,3.2.4,Win32,60
1,right,0.996999979,1,1.36500001,0,4,1.853999853,0,2,1.789000034,1,0,200,6,1,199,1,1,0.5,1,stim/objects/HouseObjects/hairdryer3.png,stim/13.jpeg,1,stim/1.png,3,1,73,2020-12-13_10h03.23.599,premup-three_ses-02_part-03_label-phase3,3.2.4,Win32,60
1,right,1.641000032,,,0,,,0,,,1,0,200,168,1,199,0,1,0,2,stim/objects/Instruments/banjo2.png,,0,stim/0.png,0,0,73,2020-12-13_10h03.23.599,premup-three_ses-02_part-03_label-phase3,3.2.4,Win32,60
1,right,1.407000065,3,2.547999859,0,4,1.419000149,0,4,0.421999931,1,0,200,38,1,199,2,2,0.7,1,stim/objects/HouseObjects/basket4.png,stim/32.jpeg,3,stim/3.png,2,2,73,2020-12-13_10h03.23.599,premup-three_ses-02_part-03_label-phase3,3.2.4,Win32,60
1,left,1.261000156,,,0,,,0,,,1,0,200,131,1,199,0,2,0,2,stim/objects/HouseObjects/clothespin.png,,0,stim/0.png,0,0,73,2020-12-13_10h03.23.599,premup-three_ses-02_part-03_label-phase3,3.2.4,Win32,60
1,right,1.687999964,2,1.632999897,0,3,1.220999956,0,4,2.082999945,1,0,200,19,1,199,1,2,0.5,1,stim/objects/HouseObjects/match3.png,stim/24.jpeg,2,stim/2.png,4,3,73,2020-12-13_10h03.23.599,premup-three_ses-02_part-03_label-phase3,3.2.4,Win32,60
1,right,3.736000061,2,1.24000001,0,3,0.847999811,0,4,1.120000124,1,0,200,54,1,199,2,2,0.3,1,stim/objects/HouseObjects/clock4.png,stim/42.jpeg,4,stim/4.png,2,2,73,2020-12-13_10h03.23.599,premup-three_ses-02_part-03_label-phase3,3.2.4,Win32,60
1,right,1.836999893,1,1.184999943,0,1,1.312000036,0,4,1.378000021,1,0,200,78,1,199,3,2,0.9,1,stim/objects/HouseObjects/handvacuum4.png,stim/53.jpeg,5,stim/5.png,3,3,73,2020-12-13_10h03.23.599,premup-three_ses-02_part-03_label-phase3,3.2.4,Win32,60
1,right,6.207999945,,,0,,,0,,,1,0,200,143,1,199,0,1,0,2,stim/objects/Instruments/hihat.png,,0,stim/0.png,0,0,73,2020-12-13_10h03.23.599,premup-three_ses-02_part-03_label-phase3,3.2.4,Win32,60
1,left,0.967000008,4,1.017000198,0,4,1.368999958,0,2,1.493000031,1,0,200,59,1,199,2,2,0.3,1,stim/objects/HouseObjects/dishsoap4.png,stim/43.jpeg,4,stim/4.png,3,1,73,2020-12-13_10h03.23.599,premup-three_ses-02_part-03_label-phase3,3.2.4,Win32,60
1,right,1.08100009,2,1.605999947,0,4,1.022000074,0,1,2.294000149,1,0,200,33,1,199,2,2,0.7,1,stim/objects/HouseObjects/vacuumcleaner3.png,stim/31.jpeg,3,stim/3.png,1,3,73,2020-12-13_10h03.23.599,premup-three_ses-02_part-03_label-phase3,3.2.4,Win32,60
1,right,5.726999998,2,0.981999874,0,4,0.721999884,0,2,1.311000109,1,0,200,69,1,199,3,1,0.1,1,stim/objects/Instruments/keyboard4.png,stim/52.jpeg,5,stim/5.png,2,4,73,2020-12-13_10h03.23.599,premup-three_ses-02_part-03_label-phase3,3.2.4,Win32,60
1,left,2.47300005,,,0,,,0,,,1,0,200,114,1,199,0,2,0,2,stim/objects/HouseObjects/bleachbottle.png,,0,stim/0.png,0,0,73,2020-12-13_10h03.23.599,premup-three_ses-02_part-03_label-phase3,3.2.4,Win32,60
1,right,1.271000147,,,0,,,0,,,1,0,200,188,1,199,0,1,0,2,stim/objects/Instruments/electricdrumset2.png,,0,stim/0.png,0,0,73,2020-12-13_10h03.23.599,premup-three_ses-02_part-03_label-phase3,3.2.4,Win32,60
1,right,1.374000072,,,0,,,0,,,1,0,200,120,1,199,0,1,0,2,stim/objects/Instruments/cymbal.png,,0,stim/0.png,0,0,73,2020-12-13_10h03.23.599,premup-three_ses-02_part-03_label-phase3,3.2.4,Win32,60
1,left,0.980000019,4,1.005999804,0,3,1.348999977,0,4,0.43599987,1,0,200,37,1,199,2,2,0.7,1,stim/objects/HouseObjects/barbecuelighter4.png,stim/31.jpeg,3,stim/3.png,1,1,73,2020-12-13_10h03.23.599,premup-three_ses-02_part-03_label-phase3,3.2.4,Win32,60
1,right,1.684000015,2,1.092000008,0,3,1.407000065,0,2,1.549999952,1,0,200,45,1,199,2,1,0.7,1,stim/objects/Instruments/cymbal4.png,stim/41.jpeg,4,stim/4.png,1,2,73,2020-12-13_10h03.23.599,premup-three_ses-02_part-03_label-phase3,3.2.4,Win32,60
1,left,2.023000002,3,1.25999999,0,1,1.654000044,0,2,1.582000017,1,0,200,25,1,199,2,1,0.3,1,stim/objects/Instruments/accordion4.png,stim/32.jpeg,3,stim/3.png,2,4,73,2020-12-13_10h03.23.599,premup-three_ses-02_part-03_label-phase3,3.2.4,Win32,60
1,right,1.200000048,,,0,,,0,,,1,0,200,113,1,199,0,2,0,2,stim/objects/HouseObjects/basket.png,,0,stim/0.png,0,0,73,2020-12-13_10h03.23.599,premup-three_ses-02_part-03_label-phase3,3.2.4,Win32,60
1,left,1.104000092,,,0,,,0,,,1,0,200,125,1,199,0,1,0,2,stim/objects/Instruments/flute.png,,0,stim/0.png,0,0,73,2020-12-13_10h03.23.599,premup-three_ses-02_part-03_label-phase3,3.2.4,Win32,60
1,right,1.031000137,,,0,,,0,,,1,0,200,185,1,199,0,1,0,2,stim/objects/Instruments/cymbal2.png,,0,stim/0.png,0,0,73,2020-12-13_10h03.23.599,premup-three_ses-02_part-03_label-phase3,3.2.4,Win32,60
1,right,1.099999905,,,0,,,0,,,1,0,200,159,1,199,0,2,0,2,stim/objects/HouseObjects/match.png,,0,stim/0.png,0,0,73,2020-12-13_10h03.23.599,premup-three_ses-02_part-03_label-phase3,3.2.4,Win32,60
1,right,1.578999996,2,1.108999968,0,4,0.822999954,0,4,1.037000179,1,0,200,40,1,199,2,1,0.7,1,stim/objects/Instruments/bassguitar4.png,stim/44.jpeg,4,stim/4.png,4,1,73,2020-12-13_10h03.23.599,premup-three_ses-02_part-03_label-phase3,3.2.4,Win32,60
1,left,1.999000072,3,1.065000057,0,3,2.830000162,0,1,1.52699995,1,0,200,68,1,199,3,1,0.1,1,stim/objects/Instruments/hihat4.png,stim/51.jpeg,5,stim/5.png,1,2,73,2020-12-13_10h03.23.599,premup-three_ses-02_part-03_label-phase3,3.2.4,Win32,60
1,right,2.164000034,,,0,,,0,,,1,0,200,129,1,199,0,1,0,2,stim/objects/Instruments/grandpiano.png,,0,stim/0.png,0,0,73,2020-12-13_10h03.23.599,premup-three_ses-02_part-03_label-phase3,3.2.4,Win32,60
1,left,1.338999987,3,1.436999798,0,4,0.744999886,0,3,0.021999836,1,0,200,29,1,199,2,1,0.3,1,stim/objects/Instruments/bassdrum4.png,stim/32.jpeg,3,stim/3.png,2,3,73,2020-12-13_10h03.23.599,premup-three_ses-02_part-03_label-phase3,3.2.4,Win32,60
1,right,2.498000145,,,0,,,0,,,1,0,200,139,1,199,0,2,0,2,stim/objects/HouseObjects/glass.png,,0,stim/0.png,0,0,73,2020-12-13_10h03.23.599,premup-three_ses-02_part-03_label-phase3,3.2.4,Win32,60
1,right,3.492000103,4,3.05099988,0,4,2.752000093,0,2,0.986999989,1,0,200,12,1,199,1,2,0.5,1,stim/objects/Instruments/marimba3.png,stim/23.jpeg,2,stim/2.png,3,2,73,2020-12-13_10h03.23.599,premup-three_ses-02_part-03_label-phase3,3.2.4,Win32,60
1,right,2,2,1.278000116,0,3,0.860999823,0,4,0.607000113,1,0,200,32,1,199,2,2,0.7,1,stim/objects/HouseObjects/towel3.png,stim/34.jpeg,3,stim/3.png,4,2,73,2020-12-13_10h03.23.599,premup-three_ses-02_part-03_label-phase3,3.2.4,Win32,60
1,right,3.493000031,3,3.140000105,0,1,1.473999977,0,4,0.535000086,1,0,200,66,1,199,3,1,0.1,1,stim/objects/Instruments/harmonica4.png,stim/53.jpeg,5,stim/5.png,3,3,73,2020-12-13_10h03.23.599,premup-three_ses-02_part-03_label-phase3,3.2.4,Win32,60
1,right,7.776000023,,,0,,,0,,,1,0,200,130,1,199,0,2,0,2,stim/objects/HouseObjects/clothesdryingrack.png,,0,stim/0.png,0,0,73,2020-12-13_10h03.23.599,premup-three_ses-02_part-03_label-phase3,3.2.4,Win32,60
1,left,0.723999977,,,0,,,0,,,1,0,200,184,1,199,0,1,0,2,stim/objects/Instruments/cornet2.png,,0,stim/0.png,0,0,73,2020-12-13_10h03.23.599,premup-three_ses-02_part-03_label-phase3,3.2.4,Win32,60
1,right,1.180000067,,,0,,,0,,,1,0,200,179,1,199,0,2,0,2,stim/objects/HouseObjects/bleachbottle2.png,,0,stim/0.png,0,0,73,2020-12-13_10h03.23.599,premup-three_ses-02_part-03_label-phase3,3.2.4,Win32,60
1,right,1.178999901,,,0,,,0,,,1,0,200,167,1,199,0,1,0,2,stim/objects/Instruments/balalaika2.png,,0,stim/0.png,0,0,73,2020-12-13_10h03.23.599,premup-three_ses-02_part-03_label-phase3,3.2.4,Win32,60
1,right,0.815999985,,,0,,,0,,,1,0,200,137,1,199,0,2,0,2,stim/objects/HouseObjects/flyswatter.png,,0,stim/0.png,0,0,73,2020-12-13_10h03.23.599,premup-three_ses-02_part-03_label-phase3,3.2.4,Win32,60
1,right,1.332000017,,,0,,,0,,,1,0,200,123,1,199,0,1,0,2,stim/objects/Instruments/electricdrumset.png,,0,stim/0.png,0,0,73,2020-12-13_10h03.23.599,premup-three_ses-02_part-03_label-phase3,3.2.4,Win32,60
1,right,1.078000069,,,0,,,0,,,1,0,200,174,1,199,0,2,0,2,stim/objects/HouseObjects/wateringcan.png,,0,stim/0.png,0,0,73,2020-12-13_10h03.23.599,premup-three_ses-02_part-03_label-phase3,3.2.4,Win32,60
1,left,1.172999859,,,0,,,0,,,1,0,200,100,1,199,0,1,0,2,stim/objects/Instruments/accordion.png,,0,stim/0.png,0,0,73,2020-12-13_10h03.23.599,premup-three_ses-02_part-03_label-phase3,3.2.4,Win32,60
1,right,1.816999912,,,0,,,0,,,1,0,200,103,1,199,0,1,0,2,stim/objects/Instruments/banjo.png,,0,stim/0.png,0,0,73,2020-12-13_10h03.23.599,premup-three_ses-02_part-03_label-phase3,3.2.4,Win32,60
1,left,0.629999876,,,0,,,0,,,1,0,200,187,1,199,0,1,0,2,stim/objects/Instruments/drums2.png,,0,stim/0.png,0,0,73,2020-12-13_10h03.23.599,premup-three_ses-02_part-03_label-phase3,3.2.4,Win32,60
1,right,0.861000061,2,1.562000036,0,3,1.184000015,0,2,1.095999956,1,0,200,72,1,199,3,2,0.9,1,stim/objects/HouseObjects/flyswatter4.png,stim/51.jpeg,5,stim/5.png,1,1,73,2020-12-13_10h03.23.599,premup-three_ses-02_part-03_label-phase3,3.2.4,Win32,60
1,left,1.476000071,4,1.08100009,0,1,1.740999937,0,2,1.199999809,1,0,200,23,1,199,2,1,0.3,1,stim/objects/Instruments/vuvuzela3.png,stim/34.jpeg,3,stim/3.png,4,4,73,2020-12-13_10h03.23.599,premup-three_ses-02_part-03_label-phase3,3.2.4,Win32,60
1,left,1.207999945,4,0.856999874,0,4,1.035000086,0,3,1.104000092,1,0,200,70,1,199,3,2,0.9,1,stim/objects/HouseObjects/doormat4.png,stim/53.jpeg,5,stim/5.png,3,1,73,2020-12-13_10h03.23.599,premup-three_ses-02_part-03_label-phase3,3.2.4,Win32,60
1,left,0.923000097,3,1.598999977,0,2,1.450999975,0,1,0.11500001,1,0,200,43,1,199,2,1,0.7,1,stim/objects/Instruments/clarinet4.png,stim/43.jpeg,4,stim/4.png,3,3,73,2020-12-13_10h03.23.599,premup-three_ses-02_part-03_label-phase3,3.2.4,Win32,60
1,right,2.674000025,,,0,,,0,,,1,0,200,104,1,199,0,1,0,2,stim/objects/Instruments/bassdrum.png,,0,stim/0.png,0,0,73,2020-12-13_10h03.23.599,premup-three_ses-02_part-03_label-phase3,3.2.4,Win32,60
1,right,1.053999901,,,0,,,0,,,1,0,200,190,1,199,0,2,0,2,stim/objects/HouseObjects/blender2.png,,0,stim/0.png,0,0,73,2020-12-13_10h03.23.599,premup-three_ses-02_part-03_label-phase3,3.2.4,Win32,60
1,right,0.996999979,1,2.434999943,0,3,0.866000175,0,4,0.844000101,1,0,200,31,1,199,2,2,0.7,1,stim/objects/HouseObjects/pitcher3.png,stim/33.jpeg,3,stim/3.png,3,2,73,2020-12-13_10h03.23.599,premup-three_ses-02_part-03_label-phase3,3.2.4,Win32,60
1,right,1.143999815,,,0,,,0,,,1,0,200,148,1,199,0,1,0,2,stim/objects/Instruments/metronome.png,,0,stim/0.png,0,0,73,2020-12-13_10h03.23.599,premup-three_ses-02_part-03_label-phase3,3.2.4,Win32,60
1,right,1.049999952,,,0,,,0,,,1,0,200,199,1,199,0,2,0,2,stim/objects/HouseObjects/dishsoap2.png,,0,stim/0.png,0,0,73,2020-12-13_10h03.23.599,premup-three_ses-02_part-03_label-phase3,3.2.4,Win32,60
1,right,1.078999996,2,1.821999788,0,4,1.335999966,0,3,1.263999939,1,0,200,1,1,199,1,1,0.5,1,stim/objects/Instruments/harmonica3.png,stim/14.jpeg,1,stim/1.png,4,3,73,2020-12-13_10h03.23.599,premup-three_ses-02_part-03_label-phase3,3.2.4,Win32,60
1,right,3.188999891,1,3.288000107,0,1,0.973999977,0,2,0.894999981,1,0,200,84,1,199,3,1,0.9,1,stim/objects/Instruments/musicsheet4.png,stim/61.jpeg,6,stim/6.png,1,1,73,2020-12-13_10h03.23.599,premup-three_ses-02_part-03_label-phase3,3.2.4,Win32,60
1,left,1.893999815,,,0,,,0,,,1,0,200,156,1,199,0,2,0,2,stim/objects/HouseObjects/key.png,,0,stim/0.png,0,0,73,2020-12-13_10h03.23.599,premup-three_ses-02_part-03_label-phase3,3.2.4,Win32,60
1,left,1.394999981,3,1.832999945,0,4,0.984999895,0,2,1.075000048,1,0,200,22,1,199,2,1,0.3,1,stim/objects/Instruments/violin3.png,stim/33.jpeg,3,stim/3.png,3,1,73,2020-12-13_10h03.23.599,premup-three_ses-02_part-03_label-phase3,3.2.4,Win32,60
1,right,1.051000118,3,2.786999941,0,3,1.31099987,0,2,0.703999996,1,0,200,93,1,199,3,2,0.1,1,stim/objects/HouseObjects/lintroller4.png,stim/62.jpeg,6,stim/6.png,2,4,73,2020-12-13_10h03.23.599,premup-three_ses-02_part-03_label-phase3,3.2.4,Win32,60
1,right,2.197000027,,,0,,,0,,,1,0,200,121,1,199,0,1,0,2,stim/objects/Instruments/doublebass.png,,0,stim/0.png,0,0,73,2020-12-13_10h03.23.599,premup-three_ses-02_part-03_label-phase3,3.2.4,Win32,60
1,right,0.989000082,2,1.135999918,0,4,1.00999999,0,2,1.292000055,1,0,200,17,1,199,1,2,0.5,1,stim/objects/HouseObjects/knife3.png,stim/22.jpeg,2,stim/2.png,2,2,73,2020-12-13_10h03.23.599,premup-three_ses-02_part-03_label-phase3,3.2.4,Win32,60
1,right,1.264999866,2,1.797999859,0,2,2.114000082,0,1,0.493999958,1,0,200,98,1,199,3,2,0.1,1,stim/objects/HouseObjects/vacuumcleaner4.png,stim/63.jpeg,6,stim/6.png,3,4,73,2020-12-13_10h03.23.599,premup-three_ses-02_part-03_label-phase3,3.2.4,Win32,60
1,right,1.368000031,,,0,,,0,,,1,0,200,177,1,199,0,2,0,2,stim/objects/HouseObjects/barbecuelighter2.png,,0,stim/0.png,0,0,73,2020-12-13_10h03.23.599,premup-three_ses-02_part-03_label-phase3,3.2.4,Win32,60
1,left,1.328999996,,,0,,,0,,,1,0,200,122,1,199,0,1,0,2,stim/objects/Instruments/drums.png,,0,stim/0.png,0,0,73,2020-12-13_10h03.23.599,premup-three_ses-02_part-03_label-phase3,3.2.4,Win32,60
1,left,0.684999943,,,0,,,0,,,1,0,200,127,1,199,0,1,0,2,stim/objects/Instruments/frenchhorn.png,,0,stim/0.png,0,0,73,2020-12-13_10h03.23.599,premup-three_ses-02_part-03_label-phase3,3.2.4,Win32,60
1,left,0.891000032,,,0,,,0,,,1,0,200,146,1,199,0,1,0,2,stim/objects/Instruments/maraca.png,,0,stim/0.png,0,0,73,2020-12-13_10h03.23.599,premup-three_ses-02_part-03_label-phase3,3.2.4,Win32,60
1,right,1.424999952,2,1.191999912,0,1,0.849999905,0,2,0.888999939,1,0,200,50,1,199,2,2,0.3,1,stim/objects/HouseObjects/blender4.png,stim/42.jpeg,4,stim/4.png,2,2,73,2020-12-13_10h03.23.599,premup-three_ses-02_part-03_label-phase3,3.2.4,Win32,60
1,left,1.25999999,3,1.667000055,0,3,1.388000011,0,1,3.804000139,1,0,200,55,1,199,2,2,0.3,1,stim/objects/HouseObjects/clothesdryingrack4.png,stim/43.jpeg,4,stim/4.png,3,2,73,2020-12-13_10h03.23.599,premup-three_ses-02_part-03_label-phase3,3.2.4,Win32,60
1,right,1.167999983,2,1.878999949,0,3,0.965000153,0,2,0.394000053,1,0,200,89,1,199,3,1,0.9,1,stim/objects/Instruments/xylophone4.png,stim/62.jpeg,6,stim/6.png,2,4,73,2020-12-13_10h03.23.599,premup-three_ses-02_part-03_label-phase3,3.2.4,Win32,60
1,left,2.45299983,4,1.161000013,0,4,1.209000111,0,2,0.736999989,1,0,200,46,1,199,2,1,0.7,1,stim/objects/Instruments/doublebass4.png,stim/42.jpeg,4,stim/4.png,2,4,73,2020-12-13_10h03.23.599,premup-three_ses-02_part-03_label-phase3,3.2.4,Win32,60
1,right,0.91899991,,,0,,,0,,,1,0,200,116,1,199,0,2,0,2,stim/objects/HouseObjects/bottle.png,,0,stim/0.png,0,0,73,2020-12-13_10h03.23.599,premup-three_ses-02_part-03_label-phase3,3.2.4,Win32,60
1,right,1.299999952,2,1.005000114,0,3,1.881999969,0,2,1.023999929,1,0,200,7,1,199,1,1,0.5,1,stim/objects/HouseObjects/handbrush3.png,stim/14.jpeg,1,stim/1.png,4,2,73,2020-12-13_10h03.23.599,premup-three_ses-02_part-03_label-phase3,3.2.4,Win32,60
1,right,0.954999924,2,1.065000057,0,1,2.277000189,0,3,0.769000053,1,0,200,63,1,199,3,1,0.1,1,stim/objects/Instruments/gong4.png,stim/54.jpeg,5,stim/5.png,4,2,73,2020-12-13_10h03.23.599,premup-three_ses-02_part-03_label-phase3,3.2.4,Win32,60
1,left,1.850999832,,,0,,,0,,,1,0,200,186,1,199,0,1,0,2,stim/objects/Instruments/doublebass2.png,,0,stim/0.png,0,0,73,2020-12-13_10h03.23.599,premup-three_ses-02_part-03_label-phase3,3.2.4,Win32,60
1,right,0.92599988,,,0,,,0,,,1,0,200,166,1,199,0,1,0,2,stim/objects/Instruments/acousticguitar2.png,,0,stim/0.png,0,0,73,2020-12-13_10h03.23.599,premup-three_ses-02_part-03_label-phase3,3.2.4,Win32,60
1,right,0.786000013,,,0,,,0,,,1,0,200,158,1,199,0,2,0,2,stim/objects/HouseObjects/lintroller.png,,0,stim/0.png,0,0,73,2020-12-13_10h03.23.599,premup-three_ses-02_part-03_label-phase3,3.2.4,Win32,60
1,right,1.137000084,,,0,,,0,,,1,0,200,165,1,199,0,1,0,2,stim/objects/Instruments/accordion2.png,,0,stim/0.png,0,0,73,2020-12-13_10h03.23.599,premup-three_ses-02_part-03_label-phase3,3.2.4,Win32,60
1,left,0.600999832,3,1.150000095,0,4,1.540999889,0,3,1.323999882,1,0,200,87,1,199,3,1,0.9,1,stim/objects/Instruments/violin4.png,stim/64.jpeg,6,stim/6.png,4,3,73,2020-12-13_10h03.23.599,premup-three_ses-02_part-03_label-phase3,3.2.4,Win32,60
1,right,1.354000092,2,1.167999983,0,3,0.645999908,0,2,0.735000134,1,0,200,8,1,199,1,1,0.5,1,stim/objects/HouseObjects/handvacuum3.png,stim/11.jpeg,1,stim/1.png,1,4,73,2020-12-13_10h03.23.599,premup-three_ses-02_part-03_label-phase3,3.2.4,Win32,60
1,right,1.276000023,,,0,,,0,,,1,0,200,119,1,199,0,2,0,2,stim/objects/HouseObjects/clock.png,,0,stim/0.png,0,0,73,2020-12-13_10h03.23.599,premup-three_ses-02_part-03_label-phase3,3.2.4,Win32,60
1,right,0.937999964,,,0,,,0,,,1,0,200,145,1,199,0,1,0,2,stim/objects/Instruments/laud.png,,0,stim/0.png,0,0,73,2020-12-13_10h03.23.599,premup-three_ses-02_part-03_label-phase3,3.2.4,Win32,60
1,left,0.815000057,3,2.167000055,0,2,1.290999889,0,3,0.527999878,1,0,200,74,1,199,3,2,0.9,1,stim/objects/HouseObjects/glass4.png,stim/53.jpeg,5,stim/5.png,3,4,73,2020-12-13_10h03.23.599,premup-three_ses-02_part-03_label-phase3,3.2.4,Win32,60
1,left,0.915999889,3,0.815000057,0,2,2.983999968,0,2,0.802999973,1,0,200,58,1,199,2,2,0.3,1,stim/objects/HouseObjects/cushion4.png,stim/42.jpeg,4,stim/4.png,2,2,73,2020-12-13_10h03.23.599,premup-three_ses-02_part-03_label-phase3,3.2.4,Win32,60
1,right,0.916999817,2,1.288000107,0,3,0.792000055,0,2,0.878000021,1,0,200,96,1,199,3,2,0.1,1,stim/objects/HouseObjects/pitcher4.png,stim/61.jpeg,6,stim/6.png,1,4,73,2020-12-13_10h03.23.599,premup-three_ses-02_part-03_label-phase3,3.2.4,Win32,60
1,right,2.391000032,4,2.138999939,0,3,0.693999767,0,2,0.960000038,1,0,200,4,1,199,1,1,0.5,1,stim/objects/Instruments/keyboard3.png,stim/13.jpeg,1,stim/1.png,3,2,73,2020-12-13_10h03.23.599,premup-three_ses-02_part-03_label-phase3,3.2.4,Win32,60
1,right,1.301000118,2,1.342000008,0,1,1.157000065,0,3,0.417000055,1,0,200,79,1,199,3,2,0.9,1,stim/objects/HouseObjects/iron4.png,stim/54.jpeg,5,stim/5.png,4,2,73,2020-12-13_10h03.23.599,premup-three_ses-02_part-03_label-phase3,3.2.4,Win32,60
1,right,0.904000044,2,1.180999994,0,4,2.296999931,0,2,0.803999901,1,0,200,97,1,199,3,2,0.1,1,stim/objects/HouseObjects/towel4.png,stim/62.jpeg,6,stim/6.png,2,2,73,2020-12-13_10h03.23.599,premup-three_ses-02_part-03_label-phase3,3.2.4,Win32,60
1,right,4.287999868,,,0,,,0,,,1,0,200,193,1,199,0,2,0,2,stim/objects/HouseObjects/bucket2.png,,0,stim/0.png,0,0,73,2020-12-13_10h03.23.599,premup-three_ses-02_part-03_label-phase3,3.2.4,Win32,60
1,left,1.245000124,4,0.919000149,0,3,2.430000067,0,2,0.995000124,1,0,200,5,1,199,1,1,0.5,1,stim/objects/HouseObjects/glassmop3.png,stim/12.jpeg,1,stim/1.png,2,4,73,2020-12-13_10h03.23.599,premup-three_ses-02_part-03_label-phase3,3.2.4,Win32,60
1,right,4.351999998,,,0,,,0,,,1,0,200,197,1,199,0,2,0,2,stim/objects/HouseObjects/coffee2.png,,0,stim/0.png,0,0,73,2020-12-13_10h03.23.599,premup-three_ses-02_part-03_label-phase3,3.2.4,Win32,60
1,left,0.799000025,,,0,,,0,,,1,0,200,126,1,199,0,1,0,2,stim/objects/Instruments/flutetrans.png,,0,stim/0.png,0,0,73,2020-12-13_10h03.23.599,premup-three_ses-02_part-03_label-phase3,3.2.4,Win32,60
