key_resp_pract.keys,key_resp_pract.rt,trial_acc,trial_index,practice_loop.thisRepN,practice_loop.thisTrialN,practice_loop.thisN,practice_loop.thisIndex,practice_loop.ran,practice_loop.order,scn_condition,scn_cat,scn_inst,scn_file,obj_cat,obj_cat_num,obj_file,trial_cond,quadrant,obj_x,obj_y,corr_ans,participant,date,expName,psychopyVersion,OS,frameRate,key_resp_trial.keys,key_resp_trial.rt,iterations.thisRepN,iterations.thisTrialN,iterations.thisN,iterations.thisIndex,iterations.ran,iterations.order,task_innerloop.thisRepN,task_innerloop.thisTrialN,task_innerloop.thisN,task_innerloop.thisIndex,task_innerloop.ran,task_innerloop.order,iteration_index,rating_acc,slider.response,slider.rt,slider_2.response,slider_2.rt,ratings.thisRepN,ratings.thisTrialN,ratings.thisN,ratings.thisIndex,ratings.ran,ratings.order,obj_cat_top,min_resp_top,max_resp_top,obj_cat_bottom,min_resp_bottom,max_resp_bottom
,,0,1,1,0,240,14,1,239,1,3,3,stim/33.jpeg,Instruments,1,stim/objects/Instruments/electricguitar.png,0.5,4,0.2,-0.15,left,76,2020-12-09_20h05.35.267,premup-three_ses-01_part-01_label-phase1,3.2.4,Win32,60,,,,,,,,,,,,,,,,,,,,,,,,,,,,,,,,
left,1.055999994,0,2,1,0,240,155,1,239,2,6,4,stim/64.jpeg,HouseObjects,2,stim/objects/HouseObjects/doormat2.png,0.3,1,-0.2,0.15,right,76,2020-12-09_20h05.35.267,premup-three_ses-01_part-01_label-phase1,3.2.4,Win32,60,,,,,,,,,,,,,,,,,,,,,,,,,,,,,,,,
right,1.238999844,0,3,1,0,240,0,1,239,1,3,1,stim/31.jpeg,Instruments,1,stim/objects/Instruments/drums.png,0.5,2,0.2,0.15,left,76,2020-12-09_20h05.35.267,premup-three_ses-01_part-01_label-phase1,3.2.4,Win32,60,,,,,,,,,,,,,,,,,,,,,,,,,,,,,,,,
left,1.055999994,0,4,1,0,240,157,1,239,2,6,2,stim/62.jpeg,HouseObjects,2,stim/objects/HouseObjects/cushion2.png,0.3,1,-0.2,0.15,right,76,2020-12-09_20h05.35.267,premup-three_ses-01_part-01_label-phase1,3.2.4,Win32,60,,,,,,,,,,,,,,,,,,,,,,,,,,,,,,,,
right,0.99000001,0,5,1,0,240,55,1,239,1,4,4,stim/44.jpeg,Instruments,1,stim/objects/Instruments/grandpiano.png,0.5,2,0.2,0.15,left,76,2020-12-09_20h05.35.267,premup-three_ses-01_part-01_label-phase1,3.2.4,Win32,60,,,,,,,,,,,,,,,,,,,,,,,,,,,,,,,,
left,0.929000139,1,6,1,0,240,205,1,239,3,2,2,stim/22.jpeg,Instruments,1,stim/objects/Instruments/harmonica2.png,0.9,2,0.2,0.15,left,76,2020-12-09_20h05.35.267,premup-three_ses-01_part-01_label-phase1,3.2.4,Win32,60,,,,,,,,,,,,,,,,,,,,,,,,,,,,,,,,
left,1.008999825,0,7,1,0,240,239,1,239,3,2,4,stim/24.jpeg,HouseObjects,2,stim/objects/HouseObjects/handvacuum2.png,0.1,3,-0.2,-0.15,right,76,2020-12-09_20h05.35.267,premup-three_ses-01_part-01_label-phase1,3.2.4,Win32,60,,,,,,,,,,,,,,,,,,,,,,,,,,,,,,,,
left,0.976999998,0,8,1,0,240,238,1,239,3,2,3,stim/23.jpeg,HouseObjects,2,stim/objects/HouseObjects/handbrush2.png,0.1,4,0.2,-0.15,right,76,2020-12-09_20h05.35.267,premup-three_ses-01_part-01_label-phase1,3.2.4,Win32,60,,,,,,,,,,,,,,,,,,,,,,,,,,,,,,,,
right,1.265000105,0,9,1,0,240,43,1,239,1,4,4,stim/44.jpeg,Instruments,1,stim/objects/Instruments/grandpiano.png,0.5,3,-0.2,-0.15,left,76,2020-12-09_20h05.35.267,premup-three_ses-01_part-01_label-phase1,3.2.4,Win32,60,,,,,,,,,,,,,,,,,,,,,,,,,,,,,,,,
left,1.082000017,1,10,1,0,240,56,1,239,1,4,1,stim/41.jpeg,Instruments,1,stim/objects/Instruments/flutetrans.png,0.5,2,0.2,0.15,left,76,2020-12-09_20h05.35.267,premup-three_ses-01_part-01_label-phase1,3.2.4,Win32,60,,,,,,,,,,,,,,,,,,,,,,,,,,,,,,,,
,,1,1,,,,,,,3,1,2,stim/12.jpeg,Instruments,1,stim/objects/Instruments/frenchhorn2.png,0.1,3,-0.2,-0.15,left,76,2020-12-09_20h05.35.267,premup-three_ses-01_part-01_label-phase1,3.2.4,Win32,60,left,0.726999998,4,0,4,0,1,3,1,0,240,161,1,239,,,,,,,,,,,,,,,,,,
,,0,2,,,,,,,3,2,1,stim/21.jpeg,Instruments,1,stim/objects/Instruments/guitarcase2.png,0.9,2,0.2,0.15,left,76,2020-12-09_20h05.35.267,premup-three_ses-01_part-01_label-phase1,3.2.4,Win32,60,right,0.902999878,4,0,4,0,1,3,1,0,240,232,1,239,,,,,,,,,,,,,,,,,,
,,0,3,,,,,,,3,1,1,stim/11.jpeg,HouseObjects,2,stim/objects/HouseObjects/dustpan2.png,0.9,2,0.2,0.15,right,76,2020-12-09_20h05.35.267,premup-three_ses-01_part-01_label-phase1,3.2.4,Win32,60,left,0.861999989,4,0,4,0,1,3,1,0,240,172,1,239,,,,,,,,,,,,,,,,,,
,,1,4,,,,,,,1,3,1,stim/31.jpeg,Instruments,1,stim/objects/Instruments/drums.png,0.5,1,-0.2,0.15,left,76,2020-12-09_20h05.35.267,premup-three_ses-01_part-01_label-phase1,3.2.4,Win32,60,left,1.222000122,4,0,4,0,1,3,1,0,240,8,1,239,,,,,,,,,,,,,,,,,,
,,1,5,,,,,,,1,3,3,stim/33.jpeg,Instruments,1,stim/objects/Instruments/electricguitar.png,0.5,4,0.2,-0.15,left,76,2020-12-09_20h05.35.267,premup-three_ses-01_part-01_label-phase1,3.2.4,Win32,60,left,0.873999834,4,0,4,0,1,3,1,0,240,14,1,239,,,,,,,,,,,,,,,,,,
,,1,6,,,,,,,2,5,1,stim/51.jpeg,HouseObjects,2,stim/objects/HouseObjects/glassmop.png,0.7,4,0.2,-0.15,right,76,2020-12-09_20h05.35.267,premup-three_ses-01_part-01_label-phase1,3.2.4,Win32,60,right,0.921999931,4,0,4,0,1,3,1,0,240,100,1,239,,,,,,,,,,,,,,,,,,
,,0,7,,,,,,,3,2,4,stim/24.jpeg,HouseObjects,2,stim/objects/HouseObjects/handvacuum2.png,0.1,3,-0.2,-0.15,right,76,2020-12-09_20h05.35.267,premup-three_ses-01_part-01_label-phase1,3.2.4,Win32,60,left,0.773000002,4,0,4,0,1,3,1,0,240,239,1,239,,,,,,,,,,,,,,,,,,
,,1,8,,,,,,,2,5,3,stim/53.jpeg,HouseObjects,2,stim/objects/HouseObjects/handbrush.png,0.7,3,-0.2,-0.15,right,76,2020-12-09_20h05.35.267,premup-three_ses-01_part-01_label-phase1,3.2.4,Win32,60,right,1.184000015,4,0,4,0,1,3,1,0,240,118,1,239,,,,,,,,,,,,,,,,,,
,,1,9,,,,,,,1,3,2,stim/32.jpeg,Instruments,1,stim/objects/Instruments/electricdrumset.png,0.5,2,0.2,0.15,left,76,2020-12-09_20h05.35.267,premup-three_ses-01_part-01_label-phase1,3.2.4,Win32,60,left,1.269000053,4,0,4,0,1,3,1,0,240,17,1,239,,,,,,,,,,,,,,,,,,
,,0,10,,,,,,,2,5,2,stim/52.jpeg,HouseObjects,2,stim/objects/HouseObjects/hairdryer.png,0.7,2,0.2,0.15,right,76,2020-12-09_20h05.35.267,premup-three_ses-01_part-01_label-phase1,3.2.4,Win32,60,left,1.06400013,4,0,4,0,1,3,1,0,240,101,1,239,,,,,,,,,,,,,,,,,,
,,0,11,,,,,,,3,1,4,stim/14.jpeg,HouseObjects,2,stim/objects/HouseObjects/glass2.png,0.9,3,-0.2,-0.15,right,76,2020-12-09_20h05.35.267,premup-three_ses-01_part-01_label-phase1,3.2.4,Win32,60,left,1.080000162,4,0,4,0,1,3,1,0,240,179,1,239,,,,,,,,,,,,,,,,,,
,,1,12,,,,,,,1,3,3,stim/33.jpeg,HouseObjects,2,stim/objects/HouseObjects/dishsoap.png,0.5,3,-0.2,-0.15,right,76,2020-12-09_20h05.35.267,premup-three_ses-01_part-01_label-phase1,3.2.4,Win32,60,right,1.147000074,4,0,4,0,1,3,1,0,240,22,1,239,,,,,,,,,,,,,,,,,,
,,0,13,,,,,,,3,2,1,stim/21.jpeg,Instruments,1,stim/objects/Instruments/guitarcase2.png,0.9,1,-0.2,0.15,left,76,2020-12-09_20h05.35.267,premup-three_ses-01_part-01_label-phase1,3.2.4,Win32,60,right,1.222999811,4,0,4,0,1,3,1,0,240,216,1,239,,,,,,,,,,,,,,,,,,
,,1,14,,,,,,,1,3,3,stim/33.jpeg,Instruments,1,stim/objects/Instruments/electricguitar.png,0.5,3,-0.2,-0.15,left,76,2020-12-09_20h05.35.267,premup-three_ses-01_part-01_label-phase1,3.2.4,Win32,60,left,1.343999863,4,0,4,0,1,3,1,0,240,2,1,239,,,,,,,,,,,,,,,,,,
,,0,15,,,,,,,1,4,1,stim/41.jpeg,Instruments,1,stim/objects/Instruments/flutetrans.png,0.5,1,-0.2,0.15,left,76,2020-12-09_20h05.35.267,premup-three_ses-01_part-01_label-phase1,3.2.4,Win32,60,right,1.101999998,4,0,4,0,1,3,1,0,240,44,1,239,,,,,,,,,,,,,,,,,,
,,1,16,,,,,,,2,5,3,stim/53.jpeg,Instruments,1,stim/objects/Instruments/harp.png,0.3,1,-0.2,0.15,left,76,2020-12-09_20h05.35.267,premup-three_ses-01_part-01_label-phase1,3.2.4,Win32,60,left,0.90199995,4,0,4,0,1,3,1,0,240,82,1,239,,,,,,,,,,,,,,,,,,
,,0,17,,,,,,,1,3,4,stim/34.jpeg,HouseObjects,2,stim/objects/HouseObjects/doormat.png,0.5,1,-0.2,0.15,right,76,2020-12-09_20h05.35.267,premup-three_ses-01_part-01_label-phase1,3.2.4,Win32,60,left,1.656000137,4,0,4,0,1,3,1,0,240,23,1,239,,,,,,,,,,,,,,,,,,
,,0,18,,,,,,,2,5,3,stim/53.jpeg,Instruments,1,stim/objects/Instruments/harp.png,0.3,1,-0.2,0.15,left,76,2020-12-09_20h05.35.267,premup-three_ses-01_part-01_label-phase1,3.2.4,Win32,60,,,4,0,4,0,1,3,1,0,240,90,1,239,,,,,,,,,,,,,,,,,,
,,1,19,,,,,,,1,3,2,stim/32.jpeg,Instruments,1,stim/objects/Instruments/electricdrumset.png,0.5,3,-0.2,-0.15,left,76,2020-12-09_20h05.35.267,premup-three_ses-01_part-01_label-phase1,3.2.4,Win32,60,left,0.89199996,4,0,4,0,1,3,1,0,240,5,1,239,,,,,,,,,,,,,,,,,,
,,0,20,,,,,,,1,4,2,stim/42.jpeg,Instruments,1,stim/objects/Instruments/frenchhorn.png,0.5,2,0.2,0.15,left,76,2020-12-09_20h05.35.267,premup-three_ses-01_part-01_label-phase1,3.2.4,Win32,60,right,0.836000204,4,0,4,0,1,3,1,0,240,41,1,239,,,,,,,,,,,,,,,,,,
,,1,21,,,,,,,2,6,1,stim/61.jpeg,Instruments,1,stim/objects/Instruments/drums2.png,0.7,1,-0.2,0.15,left,76,2020-12-09_20h05.35.267,premup-three_ses-01_part-01_label-phase1,3.2.4,Win32,60,left,1.021999836,4,0,4,0,1,3,1,0,240,128,1,239,,,,,,,,,,,,,,,,,,
,,0,22,,,,,,,3,1,2,stim/12.jpeg,HouseObjects,2,stim/objects/HouseObjects/flyswatter2.png,0.9,2,0.2,0.15,right,76,2020-12-09_20h05.35.267,premup-three_ses-01_part-01_label-phase1,3.2.4,Win32,60,left,0.796000004,4,0,4,0,1,3,1,0,240,185,1,239,,,,,,,,,,,,,,,,,,
,,0,23,,,,,,,3,1,4,stim/14.jpeg,HouseObjects,2,stim/objects/HouseObjects/glass2.png,0.9,4,0.2,-0.15,right,76,2020-12-09_20h05.35.267,premup-three_ses-01_part-01_label-phase1,3.2.4,Win32,60,left,0.78399992,4,0,4,0,1,3,1,0,240,187,1,239,,,,,,,,,,,,,,,,,,
,,0,24,,,,,,,3,2,4,stim/24.jpeg,Instruments,1,stim/objects/Instruments/hihat2.png,0.9,3,-0.2,-0.15,left,76,2020-12-09_20h05.35.267,premup-three_ses-01_part-01_label-phase1,3.2.4,Win32,60,right,1.608999968,4,0,4,0,1,3,1,0,240,211,1,239,,,,,,,,,,,,,,,,,,
,,1,25,,,,,,,3,2,3,stim/23.jpeg,Instruments,1,stim/objects/Instruments/harp2.png,0.9,4,0.2,-0.15,left,76,2020-12-09_20h05.35.267,premup-three_ses-01_part-01_label-phase1,3.2.4,Win32,60,left,1.221999884,4,0,4,0,1,3,1,0,240,230,1,239,,,,,,,,,,,,,,,,,,
,,0,26,,,,,,,1,4,4,stim/44.jpeg,HouseObjects,2,stim/objects/HouseObjects/glass.png,0.5,2,0.2,0.15,right,76,2020-12-09_20h05.35.267,premup-three_ses-01_part-01_label-phase1,3.2.4,Win32,60,left,0.970000029,4,0,4,0,1,3,1,0,240,67,1,239,,,,,,,,,,,,,,,,,,
,,1,27,,,,,,,1,3,4,stim/34.jpeg,Instruments,1,stim/objects/Instruments/flute.png,0.5,2,0.2,0.15,left,76,2020-12-09_20h05.35.267,premup-three_ses-01_part-01_label-phase1,3.2.4,Win32,60,left,1.499000072,4,0,4,0,1,3,1,0,240,3,1,239,,,,,,,,,,,,,,,,,,
,,0,28,,,,,,,1,3,2,stim/32.jpeg,HouseObjects,2,stim/objects/HouseObjects/cushion.png,0.5,1,-0.2,0.15,right,76,2020-12-09_20h05.35.267,premup-three_ses-01_part-01_label-phase1,3.2.4,Win32,60,left,0.791000128,4,0,4,0,1,3,1,0,240,33,1,239,,,,,,,,,,,,,,,,,,
,,1,29,,,,,,,2,6,1,stim/61.jpeg,HouseObjects,2,stim/objects/HouseObjects/coffee2.png,0.3,2,0.2,0.15,right,76,2020-12-09_20h05.35.267,premup-three_ses-01_part-01_label-phase1,3.2.4,Win32,60,right,1.126999855,4,0,4,0,1,3,1,0,240,152,1,239,,,,,,,,,,,,,,,,,,
,,1,30,,,,,,,3,1,1,stim/11.jpeg,HouseObjects,2,stim/objects/HouseObjects/dustpan2.png,0.9,3,-0.2,-0.15,right,76,2020-12-09_20h05.35.267,premup-three_ses-01_part-01_label-phase1,3.2.4,Win32,60,right,1.121000051,4,0,4,0,1,3,1,0,240,192,1,239,,,,,,,,,,,,,,,,,,
,,1,31,,,,,,,1,3,4,stim/34.jpeg,Instruments,1,stim/objects/Instruments/flute.png,0.5,3,-0.2,-0.15,left,76,2020-12-09_20h05.35.267,premup-three_ses-01_part-01_label-phase1,3.2.4,Win32,60,left,0.924999952,4,0,4,0,1,3,1,0,240,15,1,239,,,,,,,,,,,,,,,,,,
,,1,32,,,,,,,2,6,4,stim/64.jpeg,HouseObjects,2,stim/objects/HouseObjects/doormat2.png,0.3,2,0.2,0.15,right,76,2020-12-09_20h05.35.267,premup-three_ses-01_part-01_label-phase1,3.2.4,Win32,60,right,1.063999891,4,0,4,0,1,3,1,0,240,159,1,239,,,,,,,,,,,,,,,,,,
,,0,33,,,,,,,1,4,1,stim/41.jpeg,HouseObjects,2,stim/objects/HouseObjects/dustpan.png,0.5,4,0.2,-0.15,right,76,2020-12-09_20h05.35.267,premup-three_ses-01_part-01_label-phase1,3.2.4,Win32,60,left,0.889000177,4,0,4,0,1,3,1,0,240,68,1,239,,,,,,,,,,,,,,,,,,
,,1,34,,,,,,,3,1,3,stim/13.jpeg,Instruments,1,stim/objects/Instruments/gong2.png,0.1,2,0.2,0.15,left,76,2020-12-09_20h05.35.267,premup-three_ses-01_part-01_label-phase1,3.2.4,Win32,60,left,1.123000145,4,0,4,0,1,3,1,0,240,162,1,239,,,,,,,,,,,,,,,,,,
,,1,35,,,,,,,3,2,2,stim/22.jpeg,Instruments,1,stim/objects/Instruments/harmonica2.png,0.9,3,-0.2,-0.15,left,76,2020-12-09_20h05.35.267,premup-three_ses-01_part-01_label-phase1,3.2.4,Win32,60,left,1.292999983,4,0,4,0,1,3,1,0,240,229,1,239,,,,,,,,,,,,,,,,,,
,,0,36,,,,,,,2,6,4,stim/64.jpeg,Instruments,1,stim/objects/Instruments/flute2.png,0.7,3,-0.2,-0.15,left,76,2020-12-09_20h05.35.267,premup-three_ses-01_part-01_label-phase1,3.2.4,Win32,60,right,1.457000017,4,0,4,0,1,3,1,0,240,123,1,239,,,,,,,,,,,,,,,,,,
,,1,37,,,,,,,2,6,3,stim/63.jpeg,Instruments,1,stim/objects/Instruments/electricguitar2.png,0.7,1,-0.2,0.15,left,76,2020-12-09_20h05.35.267,premup-three_ses-01_part-01_label-phase1,3.2.4,Win32,60,left,1.327000141,4,0,4,0,1,3,1,0,240,126,1,239,,,,,,,,,,,,,,,,,,
,,0,38,,,,,,,1,4,1,stim/41.jpeg,HouseObjects,2,stim/objects/HouseObjects/dustpan.png,0.5,1,-0.2,0.15,right,76,2020-12-09_20h05.35.267,premup-three_ses-01_part-01_label-phase1,3.2.4,Win32,60,left,0.92599988,4,0,4,0,1,3,1,0,240,72,1,239,,,,,,,,,,,,,,,,,,
,,0,39,,,,,,,2,6,1,stim/61.jpeg,HouseObjects,2,stim/objects/HouseObjects/coffee2.png,0.3,3,-0.2,-0.15,right,76,2020-12-09_20h05.35.267,premup-three_ses-01_part-01_label-phase1,3.2.4,Win32,60,left,0.976999998,4,0,4,0,1,3,1,0,240,148,1,239,,,,,,,,,,,,,,,,,,
,,1,40,,,,,,,1,4,3,stim/43.jpeg,HouseObjects,2,stim/objects/HouseObjects/garbagebin.png,0.5,3,-0.2,-0.15,right,76,2020-12-09_20h05.35.267,premup-three_ses-01_part-01_label-phase1,3.2.4,Win32,60,right,1.256000042,4,0,4,0,1,3,1,0,240,66,1,239,,,,,,,,,,,,,,,,,,
,,0,41,,,,,,,3,1,4,stim/14.jpeg,HouseObjects,2,stim/objects/HouseObjects/glass2.png,0.9,3,-0.2,-0.15,right,76,2020-12-09_20h05.35.267,premup-three_ses-01_part-01_label-phase1,3.2.4,Win32,60,left,0.980999947,4,0,4,0,1,3,1,0,240,195,1,239,,,,,,,,,,,,,,,,,,
,,0,42,,,,,,,3,1,4,stim/14.jpeg,Instruments,1,stim/objects/Instruments/grandpiano2.png,0.1,2,0.2,0.15,left,76,2020-12-09_20h05.35.267,premup-three_ses-01_part-01_label-phase1,3.2.4,Win32,60,right,1.01699996,4,0,4,0,1,3,1,0,240,163,1,239,,,,,,,,,,,,,,,,,,
,,0,43,,,,,,,2,6,2,stim/62.jpeg,Instruments,1,stim/objects/Instruments/electricdrumset2.png,0.7,3,-0.2,-0.15,left,76,2020-12-09_20h05.35.267,premup-three_ses-01_part-01_label-phase1,3.2.4,Win32,60,right,1.417999983,4,0,4,0,1,3,1,0,240,129,1,239,,,,,,,,,,,,,,,,,,
,,1,44,,,,,,,2,6,4,stim/64.jpeg,Instruments,1,stim/objects/Instruments/flute2.png,0.7,2,0.2,0.15,left,76,2020-12-09_20h05.35.267,premup-three_ses-01_part-01_label-phase1,3.2.4,Win32,60,left,0.976999998,4,0,4,0,1,3,1,0,240,135,1,239,,,,,,,,,,,,,,,,,,
,,1,45,,,,,,,1,4,4,stim/44.jpeg,HouseObjects,2,stim/objects/HouseObjects/glass.png,0.5,3,-0.2,-0.15,right,76,2020-12-09_20h05.35.267,premup-three_ses-01_part-01_label-phase1,3.2.4,Win32,60,right,0.943000078,4,0,4,0,1,3,1,0,240,75,1,239,,,,,,,,,,,,,,,,,,
,,1,46,,,,,,,3,2,2,stim/22.jpeg,Instruments,1,stim/objects/Instruments/harmonica2.png,0.9,2,0.2,0.15,left,76,2020-12-09_20h05.35.267,premup-three_ses-01_part-01_label-phase1,3.2.4,Win32,60,left,1.233999968,4,0,4,0,1,3,1,0,240,221,1,239,,,,,,,,,,,,,,,,,,
,,0,47,,,,,,,3,1,3,stim/13.jpeg,HouseObjects,2,stim/objects/HouseObjects/garbagebin2.png,0.9,1,-0.2,0.15,right,76,2020-12-09_20h05.35.267,premup-three_ses-01_part-01_label-phase1,3.2.4,Win32,60,left,1.367000103,4,0,4,0,1,3,1,0,240,194,1,239,,,,,,,,,,,,,,,,,,
,,0,48,,,,,,,3,2,3,stim/23.jpeg,Instruments,1,stim/objects/Instruments/harp2.png,0.9,3,-0.2,-0.15,left,76,2020-12-09_20h05.35.267,premup-three_ses-01_part-01_label-phase1,3.2.4,Win32,60,right,1.223999977,4,0,4,0,1,3,1,0,240,202,1,239,,,,,,,,,,,,,,,,,,
,,0,49,,,,,,,2,6,2,stim/62.jpeg,Instruments,1,stim/objects/Instruments/electricdrumset2.png,0.7,2,0.2,0.15,left,76,2020-12-09_20h05.35.267,premup-three_ses-01_part-01_label-phase1,3.2.4,Win32,60,right,1.253999949,4,0,4,0,1,3,1,0,240,137,1,239,,,,,,,,,,,,,,,,,,
,,1,50,,,,,,,2,5,1,stim/51.jpeg,HouseObjects,2,stim/objects/HouseObjects/glassmop.png,0.7,2,0.2,0.15,right,76,2020-12-09_20h05.35.267,premup-three_ses-01_part-01_label-phase1,3.2.4,Win32,60,right,1.111999989,4,0,4,0,1,3,1,0,240,108,1,239,,,,,,,,,,,,,,,,,,
,,1,51,,,,,,,2,6,2,stim/62.jpeg,Instruments,1,stim/objects/Instruments/electricdrumset2.png,0.7,1,-0.2,0.15,left,76,2020-12-09_20h05.35.267,premup-three_ses-01_part-01_label-phase1,3.2.4,Win32,60,left,1.355999947,4,0,4,0,1,3,1,0,240,141,1,239,,,,,,,,,,,,,,,,,,
,,1,52,,,,,,,3,1,4,stim/14.jpeg,HouseObjects,2,stim/objects/HouseObjects/glass2.png,0.9,2,0.2,0.15,right,76,2020-12-09_20h05.35.267,premup-three_ses-01_part-01_label-phase1,3.2.4,Win32,60,right,1.171000004,4,0,4,0,1,3,1,0,240,171,1,239,,,,,,,,,,,,,,,,,,
,,1,53,,,,,,,2,5,2,stim/52.jpeg,HouseObjects,2,stim/objects/HouseObjects/hairdryer.png,0.7,3,-0.2,-0.15,right,76,2020-12-09_20h05.35.267,premup-three_ses-01_part-01_label-phase1,3.2.4,Win32,60,right,1.429999828,4,0,4,0,1,3,1,0,240,117,1,239,,,,,,,,,,,,,,,,,,
,,1,54,,,,,,,2,6,4,stim/64.jpeg,HouseObjects,2,stim/objects/HouseObjects/doormat2.png,0.3,4,0.2,-0.15,right,76,2020-12-09_20h05.35.267,premup-three_ses-01_part-01_label-phase1,3.2.4,Win32,60,right,1.438999891,4,0,4,0,1,3,1,0,240,151,1,239,,,,,,,,,,,,,,,,,,
,,0,55,,,,,,,3,1,3,stim/13.jpeg,HouseObjects,2,stim/objects/HouseObjects/garbagebin2.png,0.9,3,-0.2,-0.15,right,76,2020-12-09_20h05.35.267,premup-three_ses-01_part-01_label-phase1,3.2.4,Win32,60,left,0.960999966,4,0,4,0,1,3,1,0,240,170,1,239,,,,,,,,,,,,,,,,,,
,,0,56,,,,,,,1,4,3,stim/43.jpeg,Instruments,1,stim/objects/Instruments/gong.png,0.5,1,-0.2,0.15,left,76,2020-12-09_20h05.35.267,premup-three_ses-01_part-01_label-phase1,3.2.4,Win32,60,right,0.881000042,4,0,4,0,1,3,1,0,240,50,1,239,,,,,,,,,,,,,,,,,,
,,1,57,,,,,,,2,5,2,stim/52.jpeg,HouseObjects,2,stim/objects/HouseObjects/hairdryer.png,0.7,4,0.2,-0.15,right,76,2020-12-09_20h05.35.267,premup-three_ses-01_part-01_label-phase1,3.2.4,Win32,60,right,1.586999893,4,0,4,0,1,3,1,0,240,109,1,239,,,,,,,,,,,,,,,,,,
,,0,58,,,,,,,2,5,1,stim/51.jpeg,Instruments,1,stim/objects/Instruments/guitarcase.png,0.3,1,-0.2,0.15,left,76,2020-12-09_20h05.35.267,premup-three_ses-01_part-01_label-phase1,3.2.4,Win32,60,right,0.743000031,4,0,4,0,1,3,1,0,240,88,1,239,,,,,,,,,,,,,,,,,,
,,1,59,,,,,,,1,3,4,stim/34.jpeg,Instruments,1,stim/objects/Instruments/flute.png,0.5,3,-0.2,-0.15,left,76,2020-12-09_20h05.35.267,premup-three_ses-01_part-01_label-phase1,3.2.4,Win32,60,left,1.464000225,4,0,4,0,1,3,1,0,240,7,1,239,,,,,,,,,,,,,,,,,,
,,1,60,,,,,,,1,3,1,stim/31.jpeg,Instruments,1,stim/objects/Instruments/drums.png,0.5,2,0.2,0.15,left,76,2020-12-09_20h05.35.267,premup-three_ses-01_part-01_label-phase1,3.2.4,Win32,60,left,0.898999929,4,0,4,0,1,3,1,0,240,16,1,239,,,,,,,,,,,,,,,,,,
,,0,61,,,,,,,2,6,2,stim/62.jpeg,Instruments,1,stim/objects/Instruments/electricdrumset2.png,0.7,3,-0.2,-0.15,left,76,2020-12-09_20h05.35.267,premup-three_ses-01_part-01_label-phase1,3.2.4,Win32,60,right,1.114000082,4,0,4,0,1,3,1,0,240,121,1,239,,,,,,,,,,,,,,,,,,
,,1,62,,,,,,,2,5,3,stim/53.jpeg,HouseObjects,2,stim/objects/HouseObjects/handbrush.png,0.7,3,-0.2,-0.15,right,76,2020-12-09_20h05.35.267,premup-three_ses-01_part-01_label-phase1,3.2.4,Win32,60,right,1.194000006,4,0,4,0,1,3,1,0,240,114,1,239,,,,,,,,,,,,,,,,,,
,,1,63,,,,,,,2,6,4,stim/64.jpeg,HouseObjects,2,stim/objects/HouseObjects/doormat2.png,0.3,1,-0.2,0.15,right,76,2020-12-09_20h05.35.267,premup-three_ses-01_part-01_label-phase1,3.2.4,Win32,60,right,1.625,4,0,4,0,1,3,1,0,240,155,1,239,,,,,,,,,,,,,,,,,,
,,1,64,,,,,,,3,2,3,stim/23.jpeg,Instruments,1,stim/objects/Instruments/harp2.png,0.9,1,-0.2,0.15,left,76,2020-12-09_20h05.35.267,premup-three_ses-01_part-01_label-phase1,3.2.4,Win32,60,left,1.375,4,0,4,0,1,3,1,0,240,226,1,239,,,,,,,,,,,,,,,,,,
,,1,65,,,,,,,1,3,3,stim/33.jpeg,Instruments,1,stim/objects/Instruments/electricguitar.png,0.5,4,0.2,-0.15,left,76,2020-12-09_20h05.35.267,premup-three_ses-01_part-01_label-phase1,3.2.4,Win32,60,left,1.21999979,4,0,4,0,1,3,1,0,240,6,1,239,,,,,,,,,,,,,,,,,,
,,1,66,,,,,,,3,2,1,stim/21.jpeg,HouseObjects,2,stim/objects/HouseObjects/glassmop2.png,0.1,3,-0.2,-0.15,right,76,2020-12-09_20h05.35.267,premup-three_ses-01_part-01_label-phase1,3.2.4,Win32,60,right,1.361000061,4,0,4,0,1,3,1,0,240,236,1,239,,,,,,,,,,,,,,,,,,
,,0,67,,,,,,,3,2,4,stim/24.jpeg,Instruments,1,stim/objects/Instruments/hihat2.png,0.9,4,0.2,-0.15,left,76,2020-12-09_20h05.35.267,premup-three_ses-01_part-01_label-phase1,3.2.4,Win32,60,right,0.890000105,4,0,4,0,1,3,1,0,240,231,1,239,,,,,,,,,,,,,,,,,,
,,1,68,,,,,,,2,5,4,stim/54.jpeg,Instruments,1,stim/objects/Instruments/hihat.png,0.3,1,-0.2,0.15,left,76,2020-12-09_20h05.35.267,premup-three_ses-01_part-01_label-phase1,3.2.4,Win32,60,left,1.282000065,4,0,4,0,1,3,1,0,240,83,1,239,,,,,,,,,,,,,,,,,,
,,0,69,,,,,,,1,3,3,stim/33.jpeg,Instruments,1,stim/objects/Instruments/electricguitar.png,0.5,1,-0.2,0.15,left,76,2020-12-09_20h05.35.267,premup-three_ses-01_part-01_label-phase1,3.2.4,Win32,60,,,4,0,4,0,1,3,1,0,240,10,1,239,,,,,,,,,,,,,,,,,,
,,0,70,,,,,,,3,1,3,stim/13.jpeg,HouseObjects,2,stim/objects/HouseObjects/garbagebin2.png,0.9,3,-0.2,-0.15,right,76,2020-12-09_20h05.35.267,premup-three_ses-01_part-01_label-phase1,3.2.4,Win32,60,left,1.003999949,4,0,4,0,1,3,1,0,240,198,1,239,,,,,,,,,,,,,,,,,,
,,1,71,,,,,,,1,4,1,stim/41.jpeg,HouseObjects,2,stim/objects/HouseObjects/dustpan.png,0.5,1,-0.2,0.15,right,76,2020-12-09_20h05.35.267,premup-three_ses-01_part-01_label-phase1,3.2.4,Win32,60,right,1.085999966,4,0,4,0,1,3,1,0,240,60,1,239,,,,,,,,,,,,,,,,,,
,,1,72,,,,,,,1,4,2,stim/42.jpeg,Instruments,1,stim/objects/Instruments/frenchhorn.png,0.5,4,0.2,-0.15,left,76,2020-12-09_20h05.35.267,premup-three_ses-01_part-01_label-phase1,3.2.4,Win32,60,left,1.309000015,4,0,4,0,1,3,1,0,240,49,1,239,,,,,,,,,,,,,,,,,,
,,0,73,,,,,,,1,4,3,stim/43.jpeg,HouseObjects,2,stim/objects/HouseObjects/garbagebin.png,0.5,4,0.2,-0.15,right,76,2020-12-09_20h05.35.267,premup-three_ses-01_part-01_label-phase1,3.2.4,Win32,60,left,1.092000008,4,0,4,0,1,3,1,0,240,62,1,239,,,,,,,,,,,,,,,,,,
,,1,74,,,,,,,3,2,2,stim/22.jpeg,Instruments,1,stim/objects/Instruments/harmonica2.png,0.9,4,0.2,-0.15,left,76,2020-12-09_20h05.35.267,premup-three_ses-01_part-01_label-phase1,3.2.4,Win32,60,left,1.225000143,4,0,4,0,1,3,1,0,240,233,1,239,,,,,,,,,,,,,,,,,,
,,1,75,,,,,,,2,5,2,stim/52.jpeg,HouseObjects,2,stim/objects/HouseObjects/hairdryer.png,0.7,1,-0.2,0.15,right,76,2020-12-09_20h05.35.267,premup-three_ses-01_part-01_label-phase1,3.2.4,Win32,60,right,0.854999781,4,0,4,0,1,3,1,0,240,97,1,239,,,,,,,,,,,,,,,,,,
,,0,76,,,,,,,1,4,3,stim/43.jpeg,Instruments,1,stim/objects/Instruments/gong.png,0.5,2,0.2,0.15,left,76,2020-12-09_20h05.35.267,premup-three_ses-01_part-01_label-phase1,3.2.4,Win32,60,right,1.308999777,4,0,4,0,1,3,1,0,240,58,1,239,,,,,,,,,,,,,,,,,,
,,0,77,,,,,,,3,1,2,stim/12.jpeg,HouseObjects,2,stim/objects/HouseObjects/flyswatter2.png,0.9,4,0.2,-0.15,right,76,2020-12-09_20h05.35.267,premup-three_ses-01_part-01_label-phase1,3.2.4,Win32,60,left,1.027999878,4,0,4,0,1,3,1,0,240,181,1,239,,,,,,,,,,,,,,,,,,
,,1,78,,,,,,,3,1,2,stim/12.jpeg,HouseObjects,2,stim/objects/HouseObjects/flyswatter2.png,0.9,2,0.2,0.15,right,76,2020-12-09_20h05.35.267,premup-three_ses-01_part-01_label-phase1,3.2.4,Win32,60,right,0.953999996,4,0,4,0,1,3,1,0,240,173,1,239,,,,,,,,,,,,,,,,,,
,,0,79,,,,,,,3,2,4,stim/24.jpeg,Instruments,1,stim/objects/Instruments/hihat2.png,0.9,1,-0.2,0.15,left,76,2020-12-09_20h05.35.267,premup-three_ses-01_part-01_label-phase1,3.2.4,Win32,60,right,1.204999924,4,0,4,0,1,3,1,0,240,219,1,239,,,,,,,,,,,,,,,,,,
,,1,80,,,,,,,1,4,2,stim/42.jpeg,Instruments,1,stim/objects/Instruments/frenchhorn.png,0.5,4,0.2,-0.15,left,76,2020-12-09_20h05.35.267,premup-three_ses-01_part-01_label-phase1,3.2.4,Win32,60,left,1.449999809,4,0,4,0,1,3,1,0,240,57,1,239,,,,,,,,,,,,,,,,,,
,,1,81,,,,,,,2,6,2,stim/62.jpeg,HouseObjects,2,stim/objects/HouseObjects/cushion2.png,0.3,2,0.2,0.15,right,76,2020-12-09_20h05.35.267,premup-three_ses-01_part-01_label-phase1,3.2.4,Win32,60,right,1.164000034,4,0,4,0,1,3,1,0,240,153,1,239,,,,,,,,,,,,,,,,,,
,,0,82,,,,,,,1,3,1,stim/31.jpeg,HouseObjects,2,stim/objects/HouseObjects/coffee.png,0.5,1,-0.2,0.15,right,76,2020-12-09_20h05.35.267,premup-three_ses-01_part-01_label-phase1,3.2.4,Win32,60,left,0.934000015,4,0,4,0,1,3,1,0,240,32,1,239,,,,,,,,,,,,,,,,,,
,,1,83,,,,,,,1,4,4,stim/44.jpeg,HouseObjects,2,stim/objects/HouseObjects/glass.png,0.5,3,-0.2,-0.15,right,76,2020-12-09_20h05.35.267,premup-three_ses-01_part-01_label-phase1,3.2.4,Win32,60,right,1.230999947,4,0,4,0,1,3,1,0,240,71,1,239,,,,,,,,,,,,,,,,,,
,,0,84,,,,,,,2,5,3,stim/53.jpeg,HouseObjects,2,stim/objects/HouseObjects/handbrush.png,0.7,2,0.2,0.15,right,76,2020-12-09_20h05.35.267,premup-three_ses-01_part-01_label-phase1,3.2.4,Win32,60,left,0.912000179,4,0,4,0,1,3,1,0,240,110,1,239,,,,,,,,,,,,,,,,,,
,,1,85,,,,,,,2,5,4,stim/54.jpeg,HouseObjects,2,stim/objects/HouseObjects/handvacuum.png,0.7,4,0.2,-0.15,right,76,2020-12-09_20h05.35.267,premup-three_ses-01_part-01_label-phase1,3.2.4,Win32,60,right,0.546000004,4,0,4,0,1,3,1,0,240,115,1,239,,,,,,,,,,,,,,,,,,
,,0,86,,,,,,,2,6,1,stim/61.jpeg,Instruments,1,stim/objects/Instruments/drums2.png,0.7,2,0.2,0.15,left,76,2020-12-09_20h05.35.267,premup-three_ses-01_part-01_label-phase1,3.2.4,Win32,60,right,1.039999962,4,0,4,0,1,3,1,0,240,124,1,239,,,,,,,,,,,,,,,,,,
,,1,87,,,,,,,1,4,1,stim/41.jpeg,Instruments,1,stim/objects/Instruments/flutetrans.png,0.5,2,0.2,0.15,left,76,2020-12-09_20h05.35.267,premup-three_ses-01_part-01_label-phase1,3.2.4,Win32,60,left,0.888999939,4,0,4,0,1,3,1,0,240,52,1,239,,,,,,,,,,,,,,,,,,
,,1,88,,,,,,,1,4,3,stim/43.jpeg,Instruments,1,stim/objects/Instruments/gong.png,0.5,2,0.2,0.15,left,76,2020-12-09_20h05.35.267,premup-three_ses-01_part-01_label-phase1,3.2.4,Win32,60,left,1.094000101,4,0,4,0,1,3,1,0,240,54,1,239,,,,,,,,,,,,,,,,,,
,,0,89,,,,,,,1,4,1,stim/41.jpeg,HouseObjects,2,stim/objects/HouseObjects/dustpan.png,0.5,4,0.2,-0.15,right,76,2020-12-09_20h05.35.267,premup-three_ses-01_part-01_label-phase1,3.2.4,Win32,60,left,0.804999828,4,0,4,0,1,3,1,0,240,76,1,239,,,,,,,,,,,,,,,,,,
,,0,90,,,,,,,1,3,1,stim/31.jpeg,HouseObjects,2,stim/objects/HouseObjects/coffee.png,0.5,4,0.2,-0.15,right,76,2020-12-09_20h05.35.267,premup-three_ses-01_part-01_label-phase1,3.2.4,Win32,60,left,0.974999905,4,0,4,0,1,3,1,0,240,28,1,239,,,,,,,,,,,,,,,,,,
,,0,91,,,,,,,2,6,4,stim/64.jpeg,Instruments,1,stim/objects/Instruments/flute2.png,0.7,4,0.2,-0.15,left,76,2020-12-09_20h05.35.267,premup-three_ses-01_part-01_label-phase1,3.2.4,Win32,60,right,0.801999807,4,0,4,0,1,3,1,0,240,127,1,239,,,,,,,,,,,,,,,,,,
,,0,92,,,,,,,3,2,3,stim/23.jpeg,HouseObjects,2,stim/objects/HouseObjects/handbrush2.png,0.1,4,0.2,-0.15,right,76,2020-12-09_20h05.35.267,premup-three_ses-01_part-01_label-phase1,3.2.4,Win32,60,left,0.748000145,4,0,4,0,1,3,1,0,240,238,1,239,,,,,,,,,,,,,,,,,,
,,1,93,,,,,,,2,6,3,stim/63.jpeg,Instruments,1,stim/objects/Instruments/electricguitar2.png,0.7,4,0.2,-0.15,left,76,2020-12-09_20h05.35.267,premup-three_ses-01_part-01_label-phase1,3.2.4,Win32,60,left,1.197999954,4,0,4,0,1,3,1,0,240,146,1,239,,,,,,,,,,,,,,,,,,
,,0,94,,,,,,,1,4,2,stim/42.jpeg,HouseObjects,2,stim/objects/HouseObjects/flyswatter.png,0.5,2,0.2,0.15,right,76,2020-12-09_20h05.35.267,premup-three_ses-01_part-01_label-phase1,3.2.4,Win32,60,left,1.254000187,4,0,4,0,1,3,1,0,240,73,1,239,,,,,,,,,,,,,,,,,,
,,1,95,,,,,,,3,1,4,stim/14.jpeg,HouseObjects,2,stim/objects/HouseObjects/glass2.png,0.9,2,0.2,0.15,right,76,2020-12-09_20h05.35.267,premup-three_ses-01_part-01_label-phase1,3.2.4,Win32,60,right,1.065999985,4,0,4,0,1,3,1,0,240,175,1,239,,,,,,,,,,,,,,,,,,
,,1,96,,,,,,,3,2,2,stim/22.jpeg,Instruments,1,stim/objects/Instruments/harmonica2.png,0.9,3,-0.2,-0.15,left,76,2020-12-09_20h05.35.267,premup-three_ses-01_part-01_label-phase1,3.2.4,Win32,60,left,1.064999819,4,0,4,0,1,3,1,0,240,217,1,239,,,,,,,,,,,,,,,,,,
,,1,97,,,,,,,2,5,1,stim/51.jpeg,HouseObjects,2,stim/objects/HouseObjects/glassmop.png,0.7,1,-0.2,0.15,right,76,2020-12-09_20h05.35.267,premup-three_ses-01_part-01_label-phase1,3.2.4,Win32,60,right,0.91899991,4,0,4,0,1,3,1,0,240,104,1,239,,,,,,,,,,,,,,,,,,
,,1,98,,,,,,,1,4,4,stim/44.jpeg,Instruments,1,stim/objects/Instruments/grandpiano.png,0.5,2,0.2,0.15,left,76,2020-12-09_20h05.35.267,premup-three_ses-01_part-01_label-phase1,3.2.4,Win32,60,left,0.996000051,4,0,4,0,1,3,1,0,240,55,1,239,,,,,,,,,,,,,,,,,,
,,1,99,,,,,,,1,3,1,stim/31.jpeg,HouseObjects,2,stim/objects/HouseObjects/coffee.png,0.5,3,-0.2,-0.15,right,76,2020-12-09_20h05.35.267,premup-three_ses-01_part-01_label-phase1,3.2.4,Win32,60,right,1.082000017,4,0,4,0,1,3,1,0,240,36,1,239,,,,,,,,,,,,,,,,,,
,,0,100,,,,,,,1,3,1,stim/31.jpeg,HouseObjects,2,stim/objects/HouseObjects/coffee.png,0.5,2,0.2,0.15,right,76,2020-12-09_20h05.35.267,premup-three_ses-01_part-01_label-phase1,3.2.4,Win32,60,left,1.40199995,4,0,4,0,1,3,1,0,240,24,1,239,,,,,,,,,,,,,,,,,,
,,1,101,,,,,,,2,6,3,stim/63.jpeg,Instruments,1,stim/objects/Instruments/electricguitar2.png,0.7,3,-0.2,-0.15,left,76,2020-12-09_20h05.35.267,premup-three_ses-01_part-01_label-phase1,3.2.4,Win32,60,left,1.44900012,4,0,4,0,1,3,1,0,240,122,1,239,,,,,,,,,,,,,,,,,,
,,1,102,,,,,,,1,3,4,stim/34.jpeg,HouseObjects,2,stim/objects/HouseObjects/doormat.png,0.5,1,-0.2,0.15,right,76,2020-12-09_20h05.35.267,premup-three_ses-01_part-01_label-phase1,3.2.4,Win32,60,right,1.125999928,4,0,4,0,1,3,1,0,240,31,1,239,,,,,,,,,,,,,,,,,,
,,1,103,,,,,,,3,2,1,stim/21.jpeg,Instruments,1,stim/objects/Instruments/guitarcase2.png,0.9,4,0.2,-0.15,left,76,2020-12-09_20h05.35.267,premup-three_ses-01_part-01_label-phase1,3.2.4,Win32,60,left,0.970999956,4,0,4,0,1,3,1,0,240,204,1,239,,,,,,,,,,,,,,,,,,
,,1,104,,,,,,,3,1,3,stim/13.jpeg,HouseObjects,2,stim/objects/HouseObjects/garbagebin2.png,0.9,1,-0.2,0.15,right,76,2020-12-09_20h05.35.267,premup-three_ses-01_part-01_label-phase1,3.2.4,Win32,60,right,0.960999966,4,0,4,0,1,3,1,0,240,182,1,239,,,,,,,,,,,,,,,,,,
,,0,105,,,,,,,3,1,1,stim/11.jpeg,HouseObjects,2,stim/objects/HouseObjects/dustpan2.png,0.9,3,-0.2,-0.15,right,76,2020-12-09_20h05.35.267,premup-three_ses-01_part-01_label-phase1,3.2.4,Win32,60,left,0.986999989,4,0,4,0,1,3,1,0,240,168,1,239,,,,,,,,,,,,,,,,,,
,,1,106,,,,,,,2,5,1,stim/51.jpeg,HouseObjects,2,stim/objects/HouseObjects/glassmop.png,0.7,4,0.2,-0.15,right,76,2020-12-09_20h05.35.267,premup-three_ses-01_part-01_label-phase1,3.2.4,Win32,60,right,1.036000013,4,0,4,0,1,3,1,0,240,92,1,239,,,,,,,,,,,,,,,,,,
,,0,107,,,,,,,1,3,2,stim/32.jpeg,HouseObjects,2,stim/objects/HouseObjects/cushion.png,0.5,1,-0.2,0.15,right,76,2020-12-09_20h05.35.267,premup-three_ses-01_part-01_label-phase1,3.2.4,Win32,60,left,0.98300004,4,0,4,0,1,3,1,0,240,21,1,239,,,,,,,,,,,,,,,,,,
,,1,108,,,,,,,2,6,2,stim/62.jpeg,Instruments,1,stim/objects/Instruments/electricdrumset2.png,0.7,4,0.2,-0.15,left,76,2020-12-09_20h05.35.267,premup-three_ses-01_part-01_label-phase1,3.2.4,Win32,60,left,1.133000135,4,0,4,0,1,3,1,0,240,145,1,239,,,,,,,,,,,,,,,,,,
,,0,109,,,,,,,1,4,1,stim/41.jpeg,Instruments,1,stim/objects/Instruments/flutetrans.png,0.5,2,0.2,0.15,left,76,2020-12-09_20h05.35.267,premup-three_ses-01_part-01_label-phase1,3.2.4,Win32,60,right,0.973999977,4,0,4,0,1,3,1,0,240,56,1,239,,,,,,,,,,,,,,,,,,
,,1,110,,,,,,,3,2,4,stim/24.jpeg,Instruments,1,stim/objects/Instruments/hihat2.png,0.9,1,-0.2,0.15,left,76,2020-12-09_20h05.35.267,premup-three_ses-01_part-01_label-phase1,3.2.4,Win32,60,left,0.722000122,4,0,4,0,1,3,1,0,240,223,1,239,,,,,,,,,,,,,,,,,,
,,1,111,,,,,,,2,5,2,stim/52.jpeg,HouseObjects,2,stim/objects/HouseObjects/hairdryer.png,0.7,3,-0.2,-0.15,right,76,2020-12-09_20h05.35.267,premup-three_ses-01_part-01_label-phase1,3.2.4,Win32,60,right,0.898000002,4,0,4,0,1,3,1,0,240,113,1,239,,,,,,,,,,,,,,,,,,
,,0,112,,,,,,,1,4,4,stim/44.jpeg,Instruments,1,stim/objects/Instruments/grandpiano.png,0.5,3,-0.2,-0.15,left,76,2020-12-09_20h05.35.267,premup-three_ses-01_part-01_label-phase1,3.2.4,Win32,60,right,1.217999935,4,0,4,0,1,3,1,0,240,43,1,239,,,,,,,,,,,,,,,,,,
,,0,113,,,,,,,2,5,4,stim/54.jpeg,Instruments,1,stim/objects/Instruments/hihat.png,0.3,2,0.2,0.15,left,76,2020-12-09_20h05.35.267,premup-three_ses-01_part-01_label-phase1,3.2.4,Win32,60,right,0.756000042,4,0,4,0,1,3,1,0,240,87,1,239,,,,,,,,,,,,,,,,,,
,,1,114,,,,,,,1,3,2,stim/32.jpeg,HouseObjects,2,stim/objects/HouseObjects/cushion.png,0.5,3,-0.2,-0.15,right,76,2020-12-09_20h05.35.267,premup-three_ses-01_part-01_label-phase1,3.2.4,Win32,60,right,1.520999908,4,0,4,0,1,3,1,0,240,25,1,239,,,,,,,,,,,,,,,,,,
,,0,115,,,,,,,2,5,1,stim/51.jpeg,HouseObjects,2,stim/objects/HouseObjects/glassmop.png,0.7,3,-0.2,-0.15,right,76,2020-12-09_20h05.35.267,premup-three_ses-01_part-01_label-phase1,3.2.4,Win32,60,left,1.219000101,4,0,4,0,1,3,1,0,240,96,1,239,,,,,,,,,,,,,,,,,,
,,1,116,,,,,,,1,4,2,stim/42.jpeg,Instruments,1,stim/objects/Instruments/frenchhorn.png,0.5,3,-0.2,-0.15,left,76,2020-12-09_20h05.35.267,premup-three_ses-01_part-01_label-phase1,3.2.4,Win32,60,left,1.460000038,4,0,4,0,1,3,1,0,240,53,1,239,,,,,,,,,,,,,,,,,,
,,1,117,,,,,,,2,6,2,stim/62.jpeg,HouseObjects,2,stim/objects/HouseObjects/cushion2.png,0.3,1,-0.2,0.15,right,76,2020-12-09_20h05.35.267,premup-three_ses-01_part-01_label-phase1,3.2.4,Win32,60,right,0.985999823,4,0,4,0,1,3,1,0,240,157,1,239,,,,,,,,,,,,,,,,,,
,,0,118,,,,,,,1,4,2,stim/42.jpeg,HouseObjects,2,stim/objects/HouseObjects/flyswatter.png,0.5,4,0.2,-0.15,right,76,2020-12-09_20h05.35.267,premup-three_ses-01_part-01_label-phase1,3.2.4,Win32,60,left,1.277999878,4,0,4,0,1,3,1,0,240,65,1,239,,,,,,,,,,,,,,,,,,
,,1,119,,,,,,,1,4,3,stim/43.jpeg,HouseObjects,2,stim/objects/HouseObjects/garbagebin.png,0.5,1,-0.2,0.15,right,76,2020-12-09_20h05.35.267,premup-three_ses-01_part-01_label-phase1,3.2.4,Win32,60,right,1.30700016,4,0,4,0,1,3,1,0,240,78,1,239,,,,,,,,,,,,,,,,,,
,,1,120,,,,,,,2,5,3,stim/53.jpeg,HouseObjects,2,stim/objects/HouseObjects/handbrush.png,0.7,2,0.2,0.15,right,76,2020-12-09_20h05.35.267,premup-three_ses-01_part-01_label-phase1,3.2.4,Win32,60,right,0.896999836,4,0,4,0,1,3,1,0,240,98,1,239,,,,,,,,,,,,,,,,,,
,,0,121,,,,,,,3,1,1,stim/11.jpeg,HouseObjects,2,stim/objects/HouseObjects/dustpan2.png,0.9,2,0.2,0.15,right,76,2020-12-09_20h05.35.267,premup-three_ses-01_part-01_label-phase1,3.2.4,Win32,60,left,1.127000093,4,0,4,0,1,3,1,0,240,196,1,239,,,,,,,,,,,,,,,,,,
,,0,122,,,,,,,2,5,2,stim/52.jpeg,Instruments,1,stim/objects/Instruments/harmonica.png,0.3,2,0.2,0.15,left,76,2020-12-09_20h05.35.267,premup-three_ses-01_part-01_label-phase1,3.2.4,Win32,60,right,0.875,4,0,4,0,1,3,1,0,240,85,1,239,,,,,,,,,,,,,,,,,,
,,1,123,,,,,,,3,2,1,stim/21.jpeg,Instruments,1,stim/objects/Instruments/guitarcase2.png,0.9,2,0.2,0.15,left,76,2020-12-09_20h05.35.267,premup-three_ses-01_part-01_label-phase1,3.2.4,Win32,60,left,1.013000011,4,0,4,0,1,3,1,0,240,228,1,239,,,,,,,,,,,,,,,,,,
,,0,124,,,,,,,1,4,4,stim/44.jpeg,Instruments,1,stim/objects/Instruments/grandpiano.png,0.5,4,0.2,-0.15,left,76,2020-12-09_20h05.35.267,premup-three_ses-01_part-01_label-phase1,3.2.4,Win32,60,right,0.828000069,4,0,4,0,1,3,1,0,240,59,1,239,,,,,,,,,,,,,,,,,,
,,1,125,,,,,,,2,6,3,stim/63.jpeg,Instruments,1,stim/objects/Instruments/electricguitar2.png,0.7,2,0.2,0.15,left,76,2020-12-09_20h05.35.267,premup-three_ses-01_part-01_label-phase1,3.2.4,Win32,60,left,0.768999815,4,0,4,0,1,3,1,0,240,130,1,239,,,,,,,,,,,,,,,,,,
,,0,126,,,,,,,2,6,4,stim/64.jpeg,Instruments,1,stim/objects/Instruments/flute2.png,0.7,2,0.2,0.15,left,76,2020-12-09_20h05.35.267,premup-three_ses-01_part-01_label-phase1,3.2.4,Win32,60,right,1.299000025,4,0,4,0,1,3,1,0,240,131,1,239,,,,,,,,,,,,,,,,,,
,,1,127,,,,,,,2,5,1,stim/51.jpeg,HouseObjects,2,stim/objects/HouseObjects/glassmop.png,0.7,3,-0.2,-0.15,right,76,2020-12-09_20h05.35.267,premup-three_ses-01_part-01_label-phase1,3.2.4,Win32,60,right,0.730000019,4,0,4,0,1,3,1,0,240,116,1,239,,,,,,,,,,,,,,,,,,
,,1,128,,,,,,,2,6,2,stim/62.jpeg,Instruments,1,stim/objects/Instruments/electricdrumset2.png,0.7,4,0.2,-0.15,left,76,2020-12-09_20h05.35.267,premup-three_ses-01_part-01_label-phase1,3.2.4,Win32,60,left,1.105999947,4,0,4,0,1,3,1,0,240,133,1,239,,,,,,,,,,,,,,,,,,
,,0,129,,,,,,,2,5,2,stim/52.jpeg,Instruments,1,stim/objects/Instruments/harmonica.png,0.3,1,-0.2,0.15,left,76,2020-12-09_20h05.35.267,premup-three_ses-01_part-01_label-phase1,3.2.4,Win32,60,right,0.840999842,4,0,4,0,1,3,1,0,240,81,1,239,,,,,,,,,,,,,,,,,,
,,0,130,,,,,,,1,4,4,stim/44.jpeg,HouseObjects,2,stim/objects/HouseObjects/glass.png,0.5,1,-0.2,0.15,right,76,2020-12-09_20h05.35.267,premup-three_ses-01_part-01_label-phase1,3.2.4,Win32,60,left,1.330999851,4,0,4,0,1,3,1,0,240,79,1,239,,,,,,,,,,,,,,,,,,
,,1,131,,,,,,,2,6,1,stim/61.jpeg,Instruments,1,stim/objects/Instruments/drums2.png,0.7,4,0.2,-0.15,left,76,2020-12-09_20h05.35.267,premup-three_ses-01_part-01_label-phase1,3.2.4,Win32,60,left,1.055999994,4,0,4,0,1,3,1,0,240,144,1,239,,,,,,,,,,,,,,,,,,
,,1,132,,,,,,,3,1,2,stim/12.jpeg,HouseObjects,2,stim/objects/HouseObjects/flyswatter2.png,0.9,2,0.2,0.15,right,76,2020-12-09_20h05.35.267,premup-three_ses-01_part-01_label-phase1,3.2.4,Win32,60,right,1.189999819,4,0,4,0,1,3,1,0,240,197,1,239,,,,,,,,,,,,,,,,,,
,,1,133,,,,,,,2,5,3,stim/53.jpeg,HouseObjects,2,stim/objects/HouseObjects/handbrush.png,0.7,3,-0.2,-0.15,right,76,2020-12-09_20h05.35.267,premup-three_ses-01_part-01_label-phase1,3.2.4,Win32,60,right,0.982000113,4,0,4,0,1,3,1,0,240,106,1,239,,,,,,,,,,,,,,,,,,
,,1,134,,,,,,,1,3,3,stim/33.jpeg,Instruments,1,stim/objects/Instruments/electricguitar.png,0.5,1,-0.2,0.15,left,76,2020-12-09_20h05.35.267,premup-three_ses-01_part-01_label-phase1,3.2.4,Win32,60,left,1.195000172,4,0,4,0,1,3,1,0,240,18,1,239,,,,,,,,,,,,,,,,,,
,,0,135,,,,,,,1,4,3,stim/43.jpeg,Instruments,1,stim/objects/Instruments/gong.png,0.5,4,0.2,-0.15,left,76,2020-12-09_20h05.35.267,premup-three_ses-01_part-01_label-phase1,3.2.4,Win32,60,right,0.826000214,4,0,4,0,1,3,1,0,240,42,1,239,,,,,,,,,,,,,,,,,,
,,0,136,,,,,,,1,3,4,stim/34.jpeg,HouseObjects,2,stim/objects/HouseObjects/doormat.png,0.5,1,-0.2,0.15,right,76,2020-12-09_20h05.35.267,premup-three_ses-01_part-01_label-phase1,3.2.4,Win32,60,left,0.703999996,4,0,4,0,1,3,1,0,240,27,1,239,,,,,,,,,,,,,,,,,,
,,1,137,,,,,,,3,1,2,stim/12.jpeg,HouseObjects,2,stim/objects/HouseObjects/flyswatter2.png,0.9,4,0.2,-0.15,right,76,2020-12-09_20h05.35.267,premup-three_ses-01_part-01_label-phase1,3.2.4,Win32,60,right,1.084000111,4,0,4,0,1,3,1,0,240,177,1,239,,,,,,,,,,,,,,,,,,
,,1,138,,,,,,,2,6,3,stim/63.jpeg,Instruments,1,stim/objects/Instruments/electricguitar2.png,0.7,2,0.2,0.15,left,76,2020-12-09_20h05.35.267,premup-three_ses-01_part-01_label-phase1,3.2.4,Win32,60,left,1.296000004,4,0,4,0,1,3,1,0,240,138,1,239,,,,,,,,,,,,,,,,,,
,,1,139,,,,,,,3,2,2,stim/22.jpeg,Instruments,1,stim/objects/Instruments/harmonica2.png,0.9,3,-0.2,-0.15,left,76,2020-12-09_20h05.35.267,premup-three_ses-01_part-01_label-phase1,3.2.4,Win32,60,left,1.082000017,4,0,4,0,1,3,1,0,240,213,1,239,,,,,,,,,,,,,,,,,,
,,1,140,,,,,,,3,1,2,stim/12.jpeg,HouseObjects,2,stim/objects/HouseObjects/flyswatter2.png,0.9,1,-0.2,0.15,right,76,2020-12-09_20h05.35.267,premup-three_ses-01_part-01_label-phase1,3.2.4,Win32,60,right,1.013999939,4,0,4,0,1,3,1,0,240,169,1,239,,,,,,,,,,,,,,,,,,
,,1,141,,,,,,,2,5,3,stim/53.jpeg,HouseObjects,2,stim/objects/HouseObjects/handbrush.png,0.7,1,-0.2,0.15,right,76,2020-12-09_20h05.35.267,premup-three_ses-01_part-01_label-phase1,3.2.4,Win32,60,right,0.944000006,4,0,4,0,1,3,1,0,240,102,1,239,,,,,,,,,,,,,,,,,,
,,1,142,,,,,,,2,6,1,stim/61.jpeg,Instruments,1,stim/objects/Instruments/drums2.png,0.7,1,-0.2,0.15,left,76,2020-12-09_20h05.35.267,premup-three_ses-01_part-01_label-phase1,3.2.4,Win32,60,left,0.621999979,4,0,4,0,1,3,1,0,240,120,1,239,,,,,,,,,,,,,,,,,,
,,1,143,,,,,,,3,2,3,stim/23.jpeg,Instruments,1,stim/objects/Instruments/harp2.png,0.9,4,0.2,-0.15,left,76,2020-12-09_20h05.35.267,premup-three_ses-01_part-01_label-phase1,3.2.4,Win32,60,left,1.217000008,4,0,4,0,1,3,1,0,240,210,1,239,,,,,,,,,,,,,,,,,,
,,1,144,,,,,,,3,1,1,stim/11.jpeg,HouseObjects,2,stim/objects/HouseObjects/dustpan2.png,0.9,1,-0.2,0.15,right,76,2020-12-09_20h05.35.267,premup-three_ses-01_part-01_label-phase1,3.2.4,Win32,60,right,0.882999897,4,0,4,0,1,3,1,0,240,184,1,239,,,,,,,,,,,,,,,,,,
,,0,145,,,,,,,2,6,4,stim/64.jpeg,Instruments,1,stim/objects/Instruments/flute2.png,0.7,1,-0.2,0.15,left,76,2020-12-09_20h05.35.267,premup-three_ses-01_part-01_label-phase1,3.2.4,Win32,60,right,1.135999918,4,0,4,0,1,3,1,0,240,139,1,239,,,,,,,,,,,,,,,,,,
,,1,146,,,,,,,2,5,4,stim/54.jpeg,HouseObjects,2,stim/objects/HouseObjects/handvacuum.png,0.7,4,0.2,-0.15,right,76,2020-12-09_20h05.35.267,premup-three_ses-01_part-01_label-phase1,3.2.4,Win32,60,right,0.809999943,4,0,4,0,1,3,1,0,240,119,1,239,,,,,,,,,,,,,,,,,,
,,1,147,,,,,,,2,5,4,stim/54.jpeg,HouseObjects,2,stim/objects/HouseObjects/handvacuum.png,0.7,4,0.2,-0.15,right,76,2020-12-09_20h05.35.267,premup-three_ses-01_part-01_label-phase1,3.2.4,Win32,60,right,0.851000071,4,0,4,0,1,3,1,0,240,103,1,239,,,,,,,,,,,,,,,,,,
,,0,148,,,,,,,1,4,2,stim/42.jpeg,HouseObjects,2,stim/objects/HouseObjects/flyswatter.png,0.5,2,0.2,0.15,right,76,2020-12-09_20h05.35.267,premup-three_ses-01_part-01_label-phase1,3.2.4,Win32,60,left,1.181999922,4,0,4,0,1,3,1,0,240,77,1,239,,,,,,,,,,,,,,,,,,
,,1,149,,,,,,,2,5,4,stim/54.jpeg,HouseObjects,2,stim/objects/HouseObjects/handvacuum.png,0.7,1,-0.2,0.15,right,76,2020-12-09_20h05.35.267,premup-three_ses-01_part-01_label-phase1,3.2.4,Win32,60,right,1,4,0,4,0,1,3,1,0,240,99,1,239,,,,,,,,,,,,,,,,,,
,,0,150,,,,,,,3,1,4,stim/14.jpeg,HouseObjects,2,stim/objects/HouseObjects/glass2.png,0.9,4,0.2,-0.15,right,76,2020-12-09_20h05.35.267,premup-three_ses-01_part-01_label-phase1,3.2.4,Win32,60,left,0.927999973,4,0,4,0,1,3,1,0,240,191,1,239,,,,,,,,,,,,,,,,,,
,,1,151,,,,,,,3,2,3,stim/23.jpeg,Instruments,1,stim/objects/Instruments/harp2.png,0.9,1,-0.2,0.15,left,76,2020-12-09_20h05.35.267,premup-three_ses-01_part-01_label-phase1,3.2.4,Win32,60,left,1.04399991,4,0,4,0,1,3,1,0,240,214,1,239,,,,,,,,,,,,,,,,,,
,,0,152,,,,,,,1,4,4,stim/44.jpeg,HouseObjects,2,stim/objects/HouseObjects/glass.png,0.5,4,0.2,-0.15,right,76,2020-12-09_20h05.35.267,premup-three_ses-01_part-01_label-phase1,3.2.4,Win32,60,left,1.21600008,4,0,4,0,1,3,1,0,240,63,1,239,,,,,,,,,,,,,,,,,,
,,0,153,,,,,,,1,3,2,stim/32.jpeg,Instruments,1,stim/objects/Instruments/electricdrumset.png,0.5,4,0.2,-0.15,left,76,2020-12-09_20h05.35.267,premup-three_ses-01_part-01_label-phase1,3.2.4,Win32,60,right,0.98300004,4,0,4,0,1,3,1,0,240,1,1,239,,,,,,,,,,,,,,,,,,
,,0,154,,,,,,,1,3,3,stim/33.jpeg,HouseObjects,2,stim/objects/HouseObjects/dishsoap.png,0.5,2,0.2,0.15,right,76,2020-12-09_20h05.35.267,premup-three_ses-01_part-01_label-phase1,3.2.4,Win32,60,left,1.009000063,4,0,4,0,1,3,1,0,240,26,1,239,,,,,,,,,,,,,,,,,,
,,1,155,,,,,,,3,1,3,stim/13.jpeg,HouseObjects,2,stim/objects/HouseObjects/garbagebin2.png,0.9,3,-0.2,-0.15,right,76,2020-12-09_20h05.35.267,premup-three_ses-01_part-01_label-phase1,3.2.4,Win32,60,right,0.811999798,4,0,4,0,1,3,1,0,240,186,1,239,,,,,,,,,,,,,,,,,,
,,0,156,,,,,,,2,6,1,stim/61.jpeg,HouseObjects,2,stim/objects/HouseObjects/coffee2.png,0.3,3,-0.2,-0.15,right,76,2020-12-09_20h05.35.267,premup-three_ses-01_part-01_label-phase1,3.2.4,Win32,60,left,1.316999912,4,0,4,0,1,3,1,0,240,156,1,239,,,,,,,,,,,,,,,,,,
,,1,157,,,,,,,3,1,1,stim/11.jpeg,HouseObjects,2,stim/objects/HouseObjects/dustpan2.png,0.9,4,0.2,-0.15,right,76,2020-12-09_20h05.35.267,premup-three_ses-01_part-01_label-phase1,3.2.4,Win32,60,right,1.010999918,4,0,4,0,1,3,1,0,240,188,1,239,,,,,,,,,,,,,,,,,,
,,0,158,,,,,,,2,5,4,stim/54.jpeg,Instruments,1,stim/objects/Instruments/hihat.png,0.3,2,0.2,0.15,left,76,2020-12-09_20h05.35.267,premup-three_ses-01_part-01_label-phase1,3.2.4,Win32,60,right,0.753000021,4,0,4,0,1,3,1,0,240,91,1,239,,,,,,,,,,,,,,,,,,
,,1,159,,,,,,,1,4,2,stim/42.jpeg,Instruments,1,stim/objects/Instruments/frenchhorn.png,0.5,3,-0.2,-0.15,left,76,2020-12-09_20h05.35.267,premup-three_ses-01_part-01_label-phase1,3.2.4,Win32,60,left,0.838999987,4,0,4,0,1,3,1,0,240,45,1,239,,,,,,,,,,,,,,,,,,
,,0,160,,,,,,,1,4,4,stim/44.jpeg,Instruments,1,stim/objects/Instruments/grandpiano.png,0.5,3,-0.2,-0.15,left,76,2020-12-09_20h05.35.267,premup-three_ses-01_part-01_label-phase1,3.2.4,Win32,60,right,0.766000032,4,0,4,0,1,3,1,0,240,51,1,239,,,,,,,,,,,,,,,,,,
,,0,161,,,,,,,1,3,2,stim/32.jpeg,HouseObjects,2,stim/objects/HouseObjects/cushion.png,0.5,1,-0.2,0.15,right,76,2020-12-09_20h05.35.267,premup-three_ses-01_part-01_label-phase1,3.2.4,Win32,60,left,1.052999973,4,0,4,0,1,3,1,0,240,29,1,239,,,,,,,,,,,,,,,,,,
,,1,162,,,,,,,1,4,3,stim/43.jpeg,HouseObjects,2,stim/objects/HouseObjects/garbagebin.png,0.5,3,-0.2,-0.15,right,76,2020-12-09_20h05.35.267,premup-three_ses-01_part-01_label-phase1,3.2.4,Win32,60,right,1.004999876,4,0,4,0,1,3,1,0,240,74,1,239,,,,,,,,,,,,,,,,,,
,,1,163,,,,,,,1,3,2,stim/32.jpeg,Instruments,1,stim/objects/Instruments/electricdrumset.png,0.5,4,0.2,-0.15,left,76,2020-12-09_20h05.35.267,premup-three_ses-01_part-01_label-phase1,3.2.4,Win32,60,left,0.834000111,4,0,4,0,1,3,1,0,240,13,1,239,,,,,,,,,,,,,,,,,,
,,0,164,,,,,,,3,1,3,stim/13.jpeg,HouseObjects,2,stim/objects/HouseObjects/garbagebin2.png,0.9,2,0.2,0.15,right,76,2020-12-09_20h05.35.267,premup-three_ses-01_part-01_label-phase1,3.2.4,Win32,60,left,0.919999838,4,0,4,0,1,3,1,0,240,178,1,239,,,,,,,,,,,,,,,,,,
,,1,165,,,,,,,3,2,2,stim/22.jpeg,Instruments,1,stim/objects/Instruments/harmonica2.png,0.9,2,0.2,0.15,left,76,2020-12-09_20h05.35.267,premup-three_ses-01_part-01_label-phase1,3.2.4,Win32,60,left,0.690999985,4,0,4,0,1,3,1,0,240,205,1,239,,,,,,,,,,,,,,,,,,
,,0,166,,,,,,,2,5,2,stim/52.jpeg,Instruments,1,stim/objects/Instruments/harmonica.png,0.3,1,-0.2,0.15,left,76,2020-12-09_20h05.35.267,premup-three_ses-01_part-01_label-phase1,3.2.4,Win32,60,right,0.455000162,4,0,4,0,1,3,1,0,240,89,1,239,,,,,,,,,,,,,,,,,,
,,1,167,,,,,,,3,2,2,stim/22.jpeg,Instruments,1,stim/objects/Instruments/harmonica2.png,0.9,4,0.2,-0.15,left,76,2020-12-09_20h05.35.267,premup-three_ses-01_part-01_label-phase1,3.2.4,Win32,60,left,0.38499999,4,0,4,0,1,3,1,0,240,209,1,239,,,,,,,,,,,,,,,,,,
,,0,168,,,,,,,2,6,2,stim/62.jpeg,Instruments,1,stim/objects/Instruments/electricdrumset2.png,0.7,3,-0.2,-0.15,left,76,2020-12-09_20h05.35.267,premup-three_ses-01_part-01_label-phase1,3.2.4,Win32,60,right,0.924000025,4,0,4,0,1,3,1,0,240,125,1,239,,,,,,,,,,,,,,,,,,
,,1,169,,,,,,,3,2,3,stim/23.jpeg,Instruments,1,stim/objects/Instruments/harp2.png,0.9,1,-0.2,0.15,left,76,2020-12-09_20h05.35.267,premup-three_ses-01_part-01_label-phase1,3.2.4,Win32,60,left,0.791000128,4,0,4,0,1,3,1,0,240,234,1,239,,,,,,,,,,,,,,,,,,
,,0,170,,,,,,,2,5,4,stim/54.jpeg,HouseObjects,2,stim/objects/HouseObjects/handvacuum.png,0.7,3,-0.2,-0.15,right,76,2020-12-09_20h05.35.267,premup-three_ses-01_part-01_label-phase1,3.2.4,Win32,60,left,0.651000023,4,0,4,0,1,3,1,0,240,95,1,239,,,,,,,,,,,,,,,,,,
,,0,171,,,,,,,3,2,3,stim/23.jpeg,Instruments,1,stim/objects/Instruments/harp2.png,0.9,2,0.2,0.15,left,76,2020-12-09_20h05.35.267,premup-three_ses-01_part-01_label-phase1,3.2.4,Win32,60,right,1.253999949,4,0,4,0,1,3,1,0,240,218,1,239,,,,,,,,,,,,,,,,,,
,,1,172,,,,,,,3,1,2,stim/12.jpeg,HouseObjects,2,stim/objects/HouseObjects/flyswatter2.png,0.9,3,-0.2,-0.15,right,76,2020-12-09_20h05.35.267,premup-three_ses-01_part-01_label-phase1,3.2.4,Win32,60,right,0.971000195,4,0,4,0,1,3,1,0,240,193,1,239,,,,,,,,,,,,,,,,,,
,,1,173,,,,,,,1,3,4,stim/34.jpeg,Instruments,1,stim/objects/Instruments/flute.png,0.5,2,0.2,0.15,left,76,2020-12-09_20h05.35.267,premup-three_ses-01_part-01_label-phase1,3.2.4,Win32,60,left,0.902999878,4,0,4,0,1,3,1,0,240,11,1,239,,,,,,,,,,,,,,,,,,
,,1,174,,,,,,,2,5,1,stim/51.jpeg,HouseObjects,2,stim/objects/HouseObjects/glassmop.png,0.7,4,0.2,-0.15,right,76,2020-12-09_20h05.35.267,premup-three_ses-01_part-01_label-phase1,3.2.4,Win32,60,right,0.832000017,4,0,4,0,1,3,1,0,240,112,1,239,,,,,,,,,,,,,,,,,,
,,1,175,,,,,,,1,3,2,stim/32.jpeg,Instruments,1,stim/objects/Instruments/electricdrumset.png,0.5,4,0.2,-0.15,left,76,2020-12-09_20h05.35.267,premup-three_ses-01_part-01_label-phase1,3.2.4,Win32,60,left,0.616999865,4,0,4,0,1,3,1,0,240,9,1,239,,,,,,,,,,,,,,,,,,
,,1,176,,,,,,,1,3,1,stim/31.jpeg,Instruments,1,stim/objects/Instruments/drums.png,0.5,1,-0.2,0.15,left,76,2020-12-09_20h05.35.267,premup-three_ses-01_part-01_label-phase1,3.2.4,Win32,60,left,0.862999916,4,0,4,0,1,3,1,0,240,4,1,239,,,,,,,,,,,,,,,,,,
,,1,177,,,,,,,1,4,2,stim/42.jpeg,HouseObjects,2,stim/objects/HouseObjects/flyswatter.png,0.5,2,0.2,0.15,right,76,2020-12-09_20h05.35.267,premup-three_ses-01_part-01_label-phase1,3.2.4,Win32,60,right,0.769999981,4,0,4,0,1,3,1,0,240,61,1,239,,,,,,,,,,,,,,,,,,
,,0,178,,,,,,,1,3,4,stim/34.jpeg,HouseObjects,2,stim/objects/HouseObjects/doormat.png,0.5,3,-0.2,-0.15,right,76,2020-12-09_20h05.35.267,premup-three_ses-01_part-01_label-phase1,3.2.4,Win32,60,left,0.904000044,4,0,4,0,1,3,1,0,240,35,1,239,,,,,,,,,,,,,,,,,,
,,1,179,,,,,,,1,4,2,stim/42.jpeg,HouseObjects,2,stim/objects/HouseObjects/flyswatter.png,0.5,3,-0.2,-0.15,right,76,2020-12-09_20h05.35.267,premup-three_ses-01_part-01_label-phase1,3.2.4,Win32,60,right,0.674999952,4,0,4,0,1,3,1,0,240,69,1,239,,,,,,,,,,,,,,,,,,
,,1,180,,,,,,,2,6,3,stim/63.jpeg,Instruments,1,stim/objects/Instruments/electricguitar2.png,0.7,2,0.2,0.15,left,76,2020-12-09_20h05.35.267,premup-three_ses-01_part-01_label-phase1,3.2.4,Win32,60,left,0.830000162,4,0,4,0,1,3,1,0,240,134,1,239,,,,,,,,,,,,,,,,,,
,,1,181,,,,,,,3,1,1,stim/11.jpeg,HouseObjects,2,stim/objects/HouseObjects/dustpan2.png,0.9,1,-0.2,0.15,right,76,2020-12-09_20h05.35.267,premup-three_ses-01_part-01_label-phase1,3.2.4,Win32,60,right,0.983999968,4,0,4,0,1,3,1,0,240,164,1,239,,,,,,,,,,,,,,,,,,
,,1,182,,,,,,,2,6,4,stim/64.jpeg,Instruments,1,stim/objects/Instruments/flute2.png,0.7,4,0.2,-0.15,left,76,2020-12-09_20h05.35.267,premup-three_ses-01_part-01_label-phase1,3.2.4,Win32,60,left,0.407000065,4,0,4,0,1,3,1,0,240,143,1,239,,,,,,,,,,,,,,,,,,
,,0,183,,,,,,,3,2,3,stim/23.jpeg,Instruments,1,stim/objects/Instruments/harp2.png,0.9,3,-0.2,-0.15,left,76,2020-12-09_20h05.35.267,premup-three_ses-01_part-01_label-phase1,3.2.4,Win32,60,right,0.384000063,4,0,4,0,1,3,1,0,240,206,1,239,,,,,,,,,,,,,,,,,,
,,0,184,,,,,,,2,6,2,stim/62.jpeg,HouseObjects,2,stim/objects/HouseObjects/cushion2.png,0.3,4,0.2,-0.15,right,76,2020-12-09_20h05.35.267,premup-three_ses-01_part-01_label-phase1,3.2.4,Win32,60,left,0.495999813,4,0,4,0,1,3,1,0,240,149,1,239,,,,,,,,,,,,,,,,,,
,,1,185,,,,,,,1,3,4,stim/34.jpeg,HouseObjects,2,stim/objects/HouseObjects/doormat.png,0.5,3,-0.2,-0.15,right,76,2020-12-09_20h05.35.267,premup-three_ses-01_part-01_label-phase1,3.2.4,Win32,60,right,0.837000132,4,0,4,0,1,3,1,0,240,39,1,239,,,,,,,,,,,,,,,,,,
,,0,186,,,,,,,1,3,1,stim/31.jpeg,Instruments,1,stim/objects/Instruments/drums.png,0.5,2,0.2,0.15,left,76,2020-12-09_20h05.35.267,premup-three_ses-01_part-01_label-phase1,3.2.4,Win32,60,right,0.825000048,4,0,4,0,1,3,1,0,240,0,1,239,,,,,,,,,,,,,,,,,,
,,1,187,,,,,,,3,2,3,stim/23.jpeg,Instruments,1,stim/objects/Instruments/harp2.png,0.9,4,0.2,-0.15,left,76,2020-12-09_20h05.35.267,premup-three_ses-01_part-01_label-phase1,3.2.4,Win32,60,left,0.825000048,4,0,4,0,1,3,1,0,240,222,1,239,,,,,,,,,,,,,,,,,,
,,1,188,,,,,,,1,3,3,stim/33.jpeg,HouseObjects,2,stim/objects/HouseObjects/dishsoap.png,0.5,3,-0.2,-0.15,right,76,2020-12-09_20h05.35.267,premup-three_ses-01_part-01_label-phase1,3.2.4,Win32,60,right,1.009000063,4,0,4,0,1,3,1,0,240,30,1,239,,,,,,,,,,,,,,,,,,
,,1,189,,,,,,,1,3,4,stim/34.jpeg,Instruments,1,stim/objects/Instruments/flute.png,0.5,1,-0.2,0.15,left,76,2020-12-09_20h05.35.267,premup-three_ses-01_part-01_label-phase1,3.2.4,Win32,60,left,1.051000118,4,0,4,0,1,3,1,0,240,19,1,239,,,,,,,,,,,,,,,,,,
,,1,190,,,,,,,3,2,4,stim/24.jpeg,Instruments,1,stim/objects/Instruments/hihat2.png,0.9,2,0.2,0.15,left,76,2020-12-09_20h05.35.267,premup-three_ses-01_part-01_label-phase1,3.2.4,Win32,60,left,0.991000175,4,0,4,0,1,3,1,0,240,227,1,239,,,,,,,,,,,,,,,,,,
,,0,191,,,,,,,2,5,3,stim/53.jpeg,Instruments,1,stim/objects/Instruments/harp.png,0.3,4,0.2,-0.15,left,76,2020-12-09_20h05.35.267,premup-three_ses-01_part-01_label-phase1,3.2.4,Win32,60,right,0.77699995,4,0,4,0,1,3,1,0,240,86,1,239,,,,,,,,,,,,,,,,,,
,,0,192,,,,,,,3,1,3,stim/13.jpeg,HouseObjects,2,stim/objects/HouseObjects/garbagebin2.png,0.9,2,0.2,0.15,right,76,2020-12-09_20h05.35.267,premup-three_ses-01_part-01_label-phase1,3.2.4,Win32,60,left,0.854000092,4,0,4,0,1,3,1,0,240,190,1,239,,,,,,,,,,,,,,,,,,
,,1,193,,,,,,,2,5,2,stim/52.jpeg,HouseObjects,2,stim/objects/HouseObjects/hairdryer.png,0.7,3,-0.2,-0.15,right,76,2020-12-09_20h05.35.267,premup-three_ses-01_part-01_label-phase1,3.2.4,Win32,60,right,0.807999849,4,0,4,0,1,3,1,0,240,93,1,239,,,,,,,,,,,,,,,,,,
,,1,194,,,,,,,1,4,1,stim/41.jpeg,Instruments,1,stim/objects/Instruments/flutetrans.png,0.5,4,0.2,-0.15,left,76,2020-12-09_20h05.35.267,premup-three_ses-01_part-01_label-phase1,3.2.4,Win32,60,left,0.648000002,4,0,4,0,1,3,1,0,240,48,1,239,,,,,,,,,,,,,,,,,,
,,1,195,,,,,,,3,1,4,stim/14.jpeg,HouseObjects,2,stim/objects/HouseObjects/glass2.png,0.9,1,-0.2,0.15,right,76,2020-12-09_20h05.35.267,premup-three_ses-01_part-01_label-phase1,3.2.4,Win32,60,right,0.893000126,4,0,4,0,1,3,1,0,240,183,1,239,,,,,,,,,,,,,,,,,,
,,1,196,,,,,,,1,4,4,stim/44.jpeg,Instruments,1,stim/objects/Instruments/grandpiano.png,0.5,2,0.2,0.15,left,76,2020-12-09_20h05.35.267,premup-three_ses-01_part-01_label-phase1,3.2.4,Win32,60,left,0.755000114,4,0,4,0,1,3,1,0,240,47,1,239,,,,,,,,,,,,,,,,,,
,,1,197,,,,,,,3,1,1,stim/11.jpeg,HouseObjects,2,stim/objects/HouseObjects/dustpan2.png,0.9,4,0.2,-0.15,right,76,2020-12-09_20h05.35.267,premup-three_ses-01_part-01_label-phase1,3.2.4,Win32,60,right,1.07400012,4,0,4,0,1,3,1,0,240,176,1,239,,,,,,,,,,,,,,,,,,
,,1,198,,,,,,,1,4,1,stim/41.jpeg,Instruments,1,stim/objects/Instruments/flutetrans.png,0.5,2,0.2,0.15,left,76,2020-12-09_20h05.35.267,premup-three_ses-01_part-01_label-phase1,3.2.4,Win32,60,left,0.816999912,4,0,4,0,1,3,1,0,240,40,1,239,,,,,,,,,,,,,,,,,,
,,0,199,,,,,,,1,4,3,stim/43.jpeg,HouseObjects,2,stim/objects/HouseObjects/garbagebin.png,0.5,1,-0.2,0.15,right,76,2020-12-09_20h05.35.267,premup-three_ses-01_part-01_label-phase1,3.2.4,Win32,60,left,1.374000072,4,0,4,0,1,3,1,0,240,70,1,239,,,,,,,,,,,,,,,,,,
,,1,200,,,,,,,1,3,3,stim/33.jpeg,HouseObjects,2,stim/objects/HouseObjects/dishsoap.png,0.5,3,-0.2,-0.15,right,76,2020-12-09_20h05.35.267,premup-three_ses-01_part-01_label-phase1,3.2.4,Win32,60,right,0.907999992,4,0,4,0,1,3,1,0,240,38,1,239,,,,,,,,,,,,,,,,,,
,,0,201,,,,,,,2,6,3,stim/63.jpeg,HouseObjects,2,stim/objects/HouseObjects/dishsoap2.png,0.3,4,0.2,-0.15,right,76,2020-12-09_20h05.35.267,premup-three_ses-01_part-01_label-phase1,3.2.4,Win32,60,left,0.782999992,4,0,4,0,1,3,1,0,240,150,1,239,,,,,,,,,,,,,,,,,,
,,1,202,,,,,,,2,5,3,stim/53.jpeg,HouseObjects,2,stim/objects/HouseObjects/handbrush.png,0.7,3,-0.2,-0.15,right,76,2020-12-09_20h05.35.267,premup-three_ses-01_part-01_label-phase1,3.2.4,Win32,60,right,0.674999952,4,0,4,0,1,3,1,0,240,94,1,239,,,,,,,,,,,,,,,,,,
,,0,203,,,,,,,1,4,1,stim/41.jpeg,HouseObjects,2,stim/objects/HouseObjects/dustpan.png,0.5,4,0.2,-0.15,right,76,2020-12-09_20h05.35.267,premup-three_ses-01_part-01_label-phase1,3.2.4,Win32,60,left,0.713999987,4,0,4,0,1,3,1,0,240,64,1,239,,,,,,,,,,,,,,,,,,
,,0,204,,,,,,,1,3,1,stim/31.jpeg,Instruments,1,stim/objects/Instruments/drums.png,0.5,2,0.2,0.15,left,76,2020-12-09_20h05.35.267,premup-three_ses-01_part-01_label-phase1,3.2.4,Win32,60,right,0.459000111,4,0,4,0,1,3,1,0,240,12,1,239,,,,,,,,,,,,,,,,,,
,,1,205,,,,,,,2,6,4,stim/64.jpeg,Instruments,1,stim/objects/Instruments/flute2.png,0.7,4,0.2,-0.15,left,76,2020-12-09_20h05.35.267,premup-three_ses-01_part-01_label-phase1,3.2.4,Win32,60,left,0.796000004,4,0,4,0,1,3,1,0,240,147,1,239,,,,,,,,,,,,,,,,,,
,,0,206,,,,,,,2,5,1,stim/51.jpeg,Instruments,1,stim/objects/Instruments/guitarcase.png,0.3,3,-0.2,-0.15,left,76,2020-12-09_20h05.35.267,premup-three_ses-01_part-01_label-phase1,3.2.4,Win32,60,right,0.755000114,4,0,4,0,1,3,1,0,240,80,1,239,,,,,,,,,,,,,,,,,,
,,1,207,,,,,,,3,1,1,stim/11.jpeg,Instruments,1,stim/objects/Instruments/flutetrans2.png,0.1,3,-0.2,-0.15,left,76,2020-12-09_20h05.35.267,premup-three_ses-01_part-01_label-phase1,3.2.4,Win32,60,left,0.822000027,4,0,4,0,1,3,1,0,240,160,1,239,,,,,,,,,,,,,,,,,,
,,0,208,,,,,,,2,6,1,stim/61.jpeg,Instruments,1,stim/objects/Instruments/drums2.png,0.7,3,-0.2,-0.15,left,76,2020-12-09_20h05.35.267,premup-three_ses-01_part-01_label-phase1,3.2.4,Win32,60,right,0.693000078,4,0,4,0,1,3,1,0,240,132,1,239,,,,,,,,,,,,,,,,,,
,,1,209,,,,,,,3,2,4,stim/24.jpeg,Instruments,1,stim/objects/Instruments/hihat2.png,0.9,4,0.2,-0.15,left,76,2020-12-09_20h05.35.267,premup-three_ses-01_part-01_label-phase1,3.2.4,Win32,60,left,0.312000036,4,0,4,0,1,3,1,0,240,215,1,239,,,,,,,,,,,,,,,,,,
,,0,210,,,,,,,2,6,1,stim/61.jpeg,Instruments,1,stim/objects/Instruments/drums2.png,0.7,4,0.2,-0.15,left,76,2020-12-09_20h05.35.267,premup-three_ses-01_part-01_label-phase1,3.2.4,Win32,60,right,0.52699995,4,0,4,0,1,3,1,0,240,140,1,239,,,,,,,,,,,,,,,,,,
,,1,211,,,,,,,2,6,1,stim/61.jpeg,Instruments,1,stim/objects/Instruments/drums2.png,0.7,1,-0.2,0.15,left,76,2020-12-09_20h05.35.267,premup-three_ses-01_part-01_label-phase1,3.2.4,Win32,60,left,1.036000013,4,0,4,0,1,3,1,0,240,136,1,239,,,,,,,,,,,,,,,,,,
,,0,212,,,,,,,2,5,1,stim/51.jpeg,Instruments,1,stim/objects/Instruments/guitarcase.png,0.3,1,-0.2,0.15,left,76,2020-12-09_20h05.35.267,premup-three_ses-01_part-01_label-phase1,3.2.4,Win32,60,right,0.672999859,4,0,4,0,1,3,1,0,240,84,1,239,,,,,,,,,,,,,,,,,,
,,0,213,,,,,,,3,1,1,stim/11.jpeg,HouseObjects,2,stim/objects/HouseObjects/dustpan2.png,0.9,4,0.2,-0.15,right,76,2020-12-09_20h05.35.267,premup-three_ses-01_part-01_label-phase1,3.2.4,Win32,60,left,0.967999935,4,0,4,0,1,3,1,0,240,180,1,239,,,,,,,,,,,,,,,,,,
,,1,214,,,,,,,3,1,3,stim/13.jpeg,HouseObjects,2,stim/objects/HouseObjects/garbagebin2.png,0.9,1,-0.2,0.15,right,76,2020-12-09_20h05.35.267,premup-three_ses-01_part-01_label-phase1,3.2.4,Win32,60,right,1.222000122,4,0,4,0,1,3,1,0,240,166,1,239,,,,,,,,,,,,,,,,,,
,,1,215,,,,,,,2,5,4,stim/54.jpeg,HouseObjects,2,stim/objects/HouseObjects/handvacuum.png,0.7,1,-0.2,0.15,right,76,2020-12-09_20h05.35.267,premup-three_ses-01_part-01_label-phase1,3.2.4,Win32,60,right,0.851000071,4,0,4,0,1,3,1,0,240,111,1,239,,,,,,,,,,,,,,,,,,
,,1,216,,,,,,,3,2,4,stim/24.jpeg,Instruments,1,stim/objects/Instruments/hihat2.png,0.9,4,0.2,-0.15,left,76,2020-12-09_20h05.35.267,premup-three_ses-01_part-01_label-phase1,3.2.4,Win32,60,left,0.773000002,4,0,4,0,1,3,1,0,240,207,1,239,,,,,,,,,,,,,,,,,,
,,1,217,,,,,,,1,3,1,stim/31.jpeg,HouseObjects,2,stim/objects/HouseObjects/coffee.png,0.5,1,-0.2,0.15,right,76,2020-12-09_20h05.35.267,premup-three_ses-01_part-01_label-phase1,3.2.4,Win32,60,right,1.025000095,4,0,4,0,1,3,1,0,240,20,1,239,,,,,,,,,,,,,,,,,,
,,0,218,,,,,,,2,6,3,stim/63.jpeg,HouseObjects,2,stim/objects/HouseObjects/dishsoap2.png,0.3,4,0.2,-0.15,right,76,2020-12-09_20h05.35.267,premup-three_ses-01_part-01_label-phase1,3.2.4,Win32,60,left,0.752000093,4,0,4,0,1,3,1,0,240,158,1,239,,,,,,,,,,,,,,,,,,
,,1,219,,,,,,,1,3,3,stim/33.jpeg,HouseObjects,2,stim/objects/HouseObjects/dishsoap.png,0.5,4,0.2,-0.15,right,76,2020-12-09_20h05.35.267,premup-three_ses-01_part-01_label-phase1,3.2.4,Win32,60,right,0.885999918,4,0,4,0,1,3,1,0,240,34,1,239,,,,,,,,,,,,,,,,,,
,,0,220,,,,,,,1,3,2,stim/32.jpeg,HouseObjects,2,stim/objects/HouseObjects/cushion.png,0.5,4,0.2,-0.15,right,76,2020-12-09_20h05.35.267,premup-three_ses-01_part-01_label-phase1,3.2.4,Win32,60,left,0.769000053,4,0,4,0,1,3,1,0,240,37,1,239,,,,,,,,,,,,,,,,,,
,,1,221,,,,,,,3,2,2,stim/22.jpeg,HouseObjects,2,stim/objects/HouseObjects/hairdryer2.png,0.1,2,0.2,0.15,right,76,2020-12-09_20h05.35.267,premup-three_ses-01_part-01_label-phase1,3.2.4,Win32,60,right,1.114000082,4,0,4,0,1,3,1,0,240,237,1,239,,,,,,,,,,,,,,,,,,
,,0,222,,,,,,,2,6,3,stim/63.jpeg,HouseObjects,2,stim/objects/HouseObjects/dishsoap2.png,0.3,2,0.2,0.15,right,76,2020-12-09_20h05.35.267,premup-three_ses-01_part-01_label-phase1,3.2.4,Win32,60,left,1.23300004,4,0,4,0,1,3,1,0,240,154,1,239,,,,,,,,,,,,,,,,,,
,,0,223,,,,,,,3,2,4,stim/24.jpeg,Instruments,1,stim/objects/Instruments/hihat2.png,0.9,1,-0.2,0.15,left,76,2020-12-09_20h05.35.267,premup-three_ses-01_part-01_label-phase1,3.2.4,Win32,60,right,0.924999952,4,0,4,0,1,3,1,0,240,203,1,239,,,,,,,,,,,,,,,,,,
,,1,224,,,,,,,3,2,1,stim/21.jpeg,Instruments,1,stim/objects/Instruments/guitarcase2.png,0.9,2,0.2,0.15,left,76,2020-12-09_20h05.35.267,premup-three_ses-01_part-01_label-phase1,3.2.4,Win32,60,left,0.714999914,4,0,4,0,1,3,1,0,240,224,1,239,,,,,,,,,,,,,,,,,,
,,1,225,,,,,,,3,1,3,stim/13.jpeg,HouseObjects,2,stim/objects/HouseObjects/garbagebin2.png,0.9,4,0.2,-0.15,right,76,2020-12-09_20h05.35.267,premup-three_ses-01_part-01_label-phase1,3.2.4,Win32,60,right,0.789999962,4,0,4,0,1,3,1,0,240,174,1,239,,,,,,,,,,,,,,,,,,
,,1,226,,,,,,,3,2,2,stim/22.jpeg,Instruments,1,stim/objects/Instruments/harmonica2.png,0.9,4,0.2,-0.15,left,76,2020-12-09_20h05.35.267,premup-three_ses-01_part-01_label-phase1,3.2.4,Win32,60,left,0.943000078,4,0,4,0,1,3,1,0,240,225,1,239,,,,,,,,,,,,,,,,,,
,,1,227,,,,,,,3,2,1,stim/21.jpeg,Instruments,1,stim/objects/Instruments/guitarcase2.png,0.9,2,0.2,0.15,left,76,2020-12-09_20h05.35.267,premup-three_ses-01_part-01_label-phase1,3.2.4,Win32,60,left,0.792000055,4,0,4,0,1,3,1,0,240,212,1,239,,,,,,,,,,,,,,,,,,
,,1,228,,,,,,,3,2,1,stim/21.jpeg,Instruments,1,stim/objects/Instruments/guitarcase2.png,0.9,1,-0.2,0.15,left,76,2020-12-09_20h05.35.267,premup-three_ses-01_part-01_label-phase1,3.2.4,Win32,60,left,0.871999979,4,0,4,0,1,3,1,0,240,208,1,239,,,,,,,,,,,,,,,,,,
,,1,229,,,,,,,3,2,1,stim/21.jpeg,Instruments,1,stim/objects/Instruments/guitarcase2.png,0.9,1,-0.2,0.15,left,76,2020-12-09_20h05.35.267,premup-three_ses-01_part-01_label-phase1,3.2.4,Win32,60,left,0.837000132,4,0,4,0,1,3,1,0,240,220,1,239,,,,,,,,,,,,,,,,,,
,,1,230,,,,,,,2,6,3,stim/63.jpeg,Instruments,1,stim/objects/Instruments/electricguitar2.png,0.7,3,-0.2,-0.15,left,76,2020-12-09_20h05.35.267,premup-three_ses-01_part-01_label-phase1,3.2.4,Win32,60,left,0.93200016,4,0,4,0,1,3,1,0,240,142,1,239,,,,,,,,,,,,,,,,,,
,,1,231,,,,,,,3,1,2,stim/12.jpeg,HouseObjects,2,stim/objects/HouseObjects/flyswatter2.png,0.9,4,0.2,-0.15,right,76,2020-12-09_20h05.35.267,premup-three_ses-01_part-01_label-phase1,3.2.4,Win32,60,right,0.898000002,4,0,4,0,1,3,1,0,240,189,1,239,,,,,,,,,,,,,,,,,,
,,0,232,,,,,,,3,1,4,stim/14.jpeg,HouseObjects,2,stim/objects/HouseObjects/glass2.png,0.9,3,-0.2,-0.15,right,76,2020-12-09_20h05.35.267,premup-three_ses-01_part-01_label-phase1,3.2.4,Win32,60,left,0.881000042,4,0,4,0,1,3,1,0,240,167,1,239,,,,,,,,,,,,,,,,,,
,,1,233,,,,,,,2,5,4,stim/54.jpeg,HouseObjects,2,stim/objects/HouseObjects/handvacuum.png,0.7,2,0.2,0.15,right,76,2020-12-09_20h05.35.267,premup-three_ses-01_part-01_label-phase1,3.2.4,Win32,60,right,0.694000006,4,0,4,0,1,3,1,0,240,107,1,239,,,,,,,,,,,,,,,,,,
,,1,234,,,,,,,3,1,2,stim/12.jpeg,HouseObjects,2,stim/objects/HouseObjects/flyswatter2.png,0.9,1,-0.2,0.15,right,76,2020-12-09_20h05.35.267,premup-three_ses-01_part-01_label-phase1,3.2.4,Win32,60,right,1.191000223,4,0,4,0,1,3,1,0,240,165,1,239,,,,,,,,,,,,,,,,,,
,,1,235,,,,,,,3,2,2,stim/22.jpeg,Instruments,1,stim/objects/Instruments/harmonica2.png,0.9,1,-0.2,0.15,left,76,2020-12-09_20h05.35.267,premup-three_ses-01_part-01_label-phase1,3.2.4,Win32,60,left,1.157999992,4,0,4,0,1,3,1,0,240,201,1,239,,,,,,,,,,,,,,,,,,
,,0,236,,,,,,,3,2,1,stim/21.jpeg,Instruments,1,stim/objects/Instruments/guitarcase2.png,0.9,1,-0.2,0.15,left,76,2020-12-09_20h05.35.267,premup-three_ses-01_part-01_label-phase1,3.2.4,Win32,60,right,1.06099987,4,0,4,0,1,3,1,0,240,200,1,239,,,,,,,,,,,,,,,,,,
,,0,237,,,,,,,3,2,4,stim/24.jpeg,Instruments,1,stim/objects/Instruments/hihat2.png,0.9,3,-0.2,-0.15,left,76,2020-12-09_20h05.35.267,premup-three_ses-01_part-01_label-phase1,3.2.4,Win32,60,right,0.957999945,4,0,4,0,1,3,1,0,240,235,1,239,,,,,,,,,,,,,,,,,,
,,1,238,,,,,,,1,4,3,stim/43.jpeg,Instruments,1,stim/objects/Instruments/gong.png,0.5,4,0.2,-0.15,left,76,2020-12-09_20h05.35.267,premup-three_ses-01_part-01_label-phase1,3.2.4,Win32,60,left,0.958999872,4,0,4,0,1,3,1,0,240,46,1,239,,,,,,,,,,,,,,,,,,
,,1,239,,,,,,,3,1,4,stim/14.jpeg,HouseObjects,2,stim/objects/HouseObjects/glass2.png,0.9,1,-0.2,0.15,right,76,2020-12-09_20h05.35.267,premup-three_ses-01_part-01_label-phase1,3.2.4,Win32,60,right,0.845000029,4,0,4,0,1,3,1,0,240,199,1,239,,,,,,,,,,,,,,,,,,
,,1,240,,,,,,,2,5,2,stim/52.jpeg,HouseObjects,2,stim/objects/HouseObjects/hairdryer.png,0.7,2,0.2,0.15,right,76,2020-12-09_20h05.35.267,premup-three_ses-01_part-01_label-phase1,3.2.4,Win32,60,right,0.805000067,4,0,4,0,1,3,1,0,240,105,1,239,,,,,,,,,,,,,,,,,,
,,,,,,,,,,,5,,stim/51.jpeg,,,,,,,,,76,2020-12-09_20h05.35.267,premup-three_ses-01_part-01_label-phase1,3.2.4,Win32,60,,,4,0,4,0,1,3,,,,,,,1,0,90,17.5769999,,,1,0,6,4,1,5,Household items,5,15,Music items,85,95
,,,,,,,,,,,3,,stim/31.jpeg,,,,,,,,,76,2020-12-09_20h05.35.267,premup-three_ses-01_part-01_label-phase1,3.2.4,Win32,60,,,4,0,4,0,1,3,,,,,,,1,0,58,11.26899981,,,1,0,6,2,1,5,Music items,65,75,Household items,25,35
,,,,,,,,,,,4,,stim/41.jpeg,,,,,,,,,76,2020-12-09_20h05.35.267,premup-three_ses-01_part-01_label-phase1,3.2.4,Win32,60,,,4,0,4,0,1,3,,,,,,,1,0,41,9.536000013,,,1,0,6,3,1,5,Music items,65,75,Household items,25,35
,,,,,,,,,,,2,,stim/21.jpeg,,,,,,,,,76,2020-12-09_20h05.35.267,premup-three_ses-01_part-01_label-phase1,3.2.4,Win32,60,,,4,0,4,0,1,3,,,,,,,1,0,15,7.401000023,,,1,0,6,1,1,5,Household items,45,55,Music items,45,55
,,,,,,,,,,,6,,stim/61.jpeg,,,,,,,,,76,2020-12-09_20h05.35.267,premup-three_ses-01_part-01_label-phase1,3.2.4,Win32,60,,,4,0,4,0,1,3,,,,,,,1,0,69,24.02499986,,,1,0,6,5,1,5,Music items,5,15,Household items,85,95
,,,,,,,,,,,1,,stim/11.jpeg,,,,,,,,,76,2020-12-09_20h05.35.267,premup-three_ses-01_part-01_label-phase1,3.2.4,Win32,60,,,4,0,4,0,1,3,,,,,,,1,0,31,6.568000078,,,1,0,6,0,1,5,Music items,45,55,Household items,45,55
,,,,,,,,,,,,,,,,,,,,,,76,2020-12-09_20h05.35.267,premup-three_ses-01_part-01_label-phase1,3.2.4,Win32,60,,,4,0,4,0,1,3,,,,,,,,,,,,,,,,,,,,,,,,
,,0,1,,,,,,,1,4,4,stim/44.jpeg,HouseObjects,2,stim/objects/HouseObjects/glass.png,0.5,4,0.2,-0.15,right,76,2020-12-09_20h05.35.267,premup-three_ses-01_part-01_label-phase1,3.2.4,Win32,60,left,1.131000042,4,0,4,0,1,3,1,0,240,63,1,239,,,,,,,,,,,,,,,,,,
,,1,2,,,,,,,1,3,3,stim/33.jpeg,HouseObjects,2,stim/objects/HouseObjects/dishsoap.png,0.5,3,-0.2,-0.15,right,76,2020-12-09_20h05.35.267,premup-three_ses-01_part-01_label-phase1,3.2.4,Win32,60,right,0.835999966,4,0,4,0,1,3,1,0,240,30,1,239,,,,,,,,,,,,,,,,,,
,,1,3,,,,,,,3,2,4,stim/24.jpeg,Instruments,1,stim/objects/Instruments/hihat2.png,0.9,2,0.2,0.15,left,76,2020-12-09_20h05.35.267,premup-three_ses-01_part-01_label-phase1,3.2.4,Win32,60,left,0.883000135,4,0,4,0,1,3,1,0,240,227,1,239,,,,,,,,,,,,,,,,,,
,,1,4,,,,,,,3,1,2,stim/12.jpeg,HouseObjects,2,stim/objects/HouseObjects/flyswatter2.png,0.9,4,0.2,-0.15,right,76,2020-12-09_20h05.35.267,premup-three_ses-01_part-01_label-phase1,3.2.4,Win32,60,right,0.86500001,4,0,4,0,1,3,1,0,240,177,1,239,,,,,,,,,,,,,,,,,,
,,0,5,,,,,,,1,4,2,stim/42.jpeg,HouseObjects,2,stim/objects/HouseObjects/flyswatter.png,0.5,2,0.2,0.15,right,76,2020-12-09_20h05.35.267,premup-three_ses-01_part-01_label-phase1,3.2.4,Win32,60,left,0.730999947,4,0,4,0,1,3,1,0,240,77,1,239,,,,,,,,,,,,,,,,,,
,,1,6,,,,,,,1,3,2,stim/32.jpeg,Instruments,1,stim/objects/Instruments/electricdrumset.png,0.5,2,0.2,0.15,left,76,2020-12-09_20h05.35.267,premup-three_ses-01_part-01_label-phase1,3.2.4,Win32,60,left,0.792999983,4,0,4,0,1,3,1,0,240,17,1,239,,,,,,,,,,,,,,,,,,
,,0,7,,,,,,,1,4,1,stim/41.jpeg,Instruments,1,stim/objects/Instruments/flutetrans.png,0.5,1,-0.2,0.15,left,76,2020-12-09_20h05.35.267,premup-three_ses-01_part-01_label-phase1,3.2.4,Win32,60,right,0.694000006,4,0,4,0,1,3,1,0,240,44,1,239,,,,,,,,,,,,,,,,,,
,,1,8,,,,,,,3,1,2,stim/12.jpeg,HouseObjects,2,stim/objects/HouseObjects/flyswatter2.png,0.9,4,0.2,-0.15,right,76,2020-12-09_20h05.35.267,premup-three_ses-01_part-01_label-phase1,3.2.4,Win32,60,right,0.787999868,4,0,4,0,1,3,1,0,240,181,1,239,,,,,,,,,,,,,,,,,,
,,0,9,,,,,,,1,3,1,stim/31.jpeg,HouseObjects,2,stim/objects/HouseObjects/coffee.png,0.5,3,-0.2,-0.15,right,76,2020-12-09_20h05.35.267,premup-three_ses-01_part-01_label-phase1,3.2.4,Win32,60,left,0.647000074,4,0,4,0,1,3,1,0,240,36,1,239,,,,,,,,,,,,,,,,,,
,,0,10,,,,,,,1,3,2,stim/32.jpeg,HouseObjects,2,stim/objects/HouseObjects/cushion.png,0.5,1,-0.2,0.15,right,76,2020-12-09_20h05.35.267,premup-three_ses-01_part-01_label-phase1,3.2.4,Win32,60,left,0.889999866,4,0,4,0,1,3,1,0,240,29,1,239,,,,,,,,,,,,,,,,,,
,,0,11,,,,,,,3,2,2,stim/22.jpeg,Instruments,1,stim/objects/Instruments/harmonica2.png,0.9,4,0.2,-0.15,left,76,2020-12-09_20h05.35.267,premup-three_ses-01_part-01_label-phase1,3.2.4,Win32,60,right,0.969000101,4,0,4,0,1,3,1,0,240,209,1,239,,,,,,,,,,,,,,,,,,
,,1,12,,,,,,,3,2,3,stim/23.jpeg,Instruments,1,stim/objects/Instruments/harp2.png,0.9,2,0.2,0.15,left,76,2020-12-09_20h05.35.267,premup-three_ses-01_part-01_label-phase1,3.2.4,Win32,60,left,0.880000114,4,0,4,0,1,3,1,0,240,218,1,239,,,,,,,,,,,,,,,,,,
,,1,13,,,,,,,1,4,4,stim/44.jpeg,HouseObjects,2,stim/objects/HouseObjects/glass.png,0.5,3,-0.2,-0.15,right,76,2020-12-09_20h05.35.267,premup-three_ses-01_part-01_label-phase1,3.2.4,Win32,60,right,0.809000015,4,0,4,0,1,3,1,0,240,75,1,239,,,,,,,,,,,,,,,,,,
,,1,14,,,,,,,3,1,2,stim/12.jpeg,HouseObjects,2,stim/objects/HouseObjects/flyswatter2.png,0.9,2,0.2,0.15,right,76,2020-12-09_20h05.35.267,premup-three_ses-01_part-01_label-phase1,3.2.4,Win32,60,right,0.754000187,4,0,4,0,1,3,1,0,240,197,1,239,,,,,,,,,,,,,,,,,,
,,1,15,,,,,,,2,6,2,stim/62.jpeg,Instruments,1,stim/objects/Instruments/electricdrumset2.png,0.7,2,0.2,0.15,left,76,2020-12-09_20h05.35.267,premup-three_ses-01_part-01_label-phase1,3.2.4,Win32,60,left,0.900000095,4,0,4,0,1,3,1,0,240,137,1,239,,,,,,,,,,,,,,,,,,
,,0,16,,,,,,,1,4,3,stim/43.jpeg,Instruments,1,stim/objects/Instruments/gong.png,0.5,4,0.2,-0.15,left,76,2020-12-09_20h05.35.267,premup-three_ses-01_part-01_label-phase1,3.2.4,Win32,60,right,0.894999981,4,0,4,0,1,3,1,0,240,42,1,239,,,,,,,,,,,,,,,,,,
,,0,17,,,,,,,2,6,1,stim/61.jpeg,HouseObjects,2,stim/objects/HouseObjects/coffee2.png,0.3,3,-0.2,-0.15,right,76,2020-12-09_20h05.35.267,premup-three_ses-01_part-01_label-phase1,3.2.4,Win32,60,left,0.944999933,4,0,4,0,1,3,1,0,240,156,1,239,,,,,,,,,,,,,,,,,,
,,0,18,,,,,,,2,6,4,stim/64.jpeg,Instruments,1,stim/objects/Instruments/flute2.png,0.7,2,0.2,0.15,left,76,2020-12-09_20h05.35.267,premup-three_ses-01_part-01_label-phase1,3.2.4,Win32,60,right,0.924000025,4,0,4,0,1,3,1,0,240,135,1,239,,,,,,,,,,,,,,,,,,
,,1,19,,,,,,,3,2,2,stim/22.jpeg,Instruments,1,stim/objects/Instruments/harmonica2.png,0.9,2,0.2,0.15,left,76,2020-12-09_20h05.35.267,premup-three_ses-01_part-01_label-phase1,3.2.4,Win32,60,left,0.954999924,4,0,4,0,1,3,1,0,240,205,1,239,,,,,,,,,,,,,,,,,,
,,0,20,,,,,,,3,2,3,stim/23.jpeg,Instruments,1,stim/objects/Instruments/harp2.png,0.9,1,-0.2,0.15,left,76,2020-12-09_20h05.35.267,premup-three_ses-01_part-01_label-phase1,3.2.4,Win32,60,right,0.64199996,4,0,4,0,1,3,1,0,240,234,1,239,,,,,,,,,,,,,,,,,,
,,0,21,,,,,,,2,5,3,stim/53.jpeg,Instruments,1,stim/objects/Instruments/harp.png,0.3,1,-0.2,0.15,left,76,2020-12-09_20h05.35.267,premup-three_ses-01_part-01_label-phase1,3.2.4,Win32,60,right,0.668000221,4,0,4,0,1,3,1,0,240,82,1,239,,,,,,,,,,,,,,,,,,
,,1,22,,,,,,,1,3,4,stim/34.jpeg,Instruments,1,stim/objects/Instruments/flute.png,0.5,3,-0.2,-0.15,left,76,2020-12-09_20h05.35.267,premup-three_ses-01_part-01_label-phase1,3.2.4,Win32,60,left,0.73300004,4,0,4,0,1,3,1,0,240,7,1,239,,,,,,,,,,,,,,,,,,
,,0,23,,,,,,,2,6,4,stim/64.jpeg,Instruments,1,stim/objects/Instruments/flute2.png,0.7,2,0.2,0.15,left,76,2020-12-09_20h05.35.267,premup-three_ses-01_part-01_label-phase1,3.2.4,Win32,60,right,0.954999924,4,0,4,0,1,3,1,0,240,131,1,239,,,,,,,,,,,,,,,,,,
,,0,24,,,,,,,3,2,1,stim/21.jpeg,Instruments,1,stim/objects/Instruments/guitarcase2.png,0.9,1,-0.2,0.15,left,76,2020-12-09_20h05.35.267,premup-three_ses-01_part-01_label-phase1,3.2.4,Win32,60,right,1.133000135,4,0,4,0,1,3,1,0,240,200,1,239,,,,,,,,,,,,,,,,,,
,,0,25,,,,,,,3,2,4,stim/24.jpeg,HouseObjects,2,stim/objects/HouseObjects/handvacuum2.png,0.1,3,-0.2,-0.15,right,76,2020-12-09_20h05.35.267,premup-three_ses-01_part-01_label-phase1,3.2.4,Win32,60,left,0.960000038,4,0,4,0,1,3,1,0,240,239,1,239,,,,,,,,,,,,,,,,,,
,,0,26,,,,,,,1,3,1,stim/31.jpeg,Instruments,1,stim/objects/Instruments/drums.png,0.5,1,-0.2,0.15,left,76,2020-12-09_20h05.35.267,premup-three_ses-01_part-01_label-phase1,3.2.4,Win32,60,right,0.780999899,4,0,4,0,1,3,1,0,240,8,1,239,,,,,,,,,,,,,,,,,,
,,1,27,,,,,,,3,1,3,stim/13.jpeg,HouseObjects,2,stim/objects/HouseObjects/garbagebin2.png,0.9,1,-0.2,0.15,right,76,2020-12-09_20h05.35.267,premup-three_ses-01_part-01_label-phase1,3.2.4,Win32,60,right,1.309999943,4,0,4,0,1,3,1,0,240,166,1,239,,,,,,,,,,,,,,,,,,
,,1,28,,,,,,,3,2,1,stim/21.jpeg,Instruments,1,stim/objects/Instruments/guitarcase2.png,0.9,2,0.2,0.15,left,76,2020-12-09_20h05.35.267,premup-three_ses-01_part-01_label-phase1,3.2.4,Win32,60,left,0.703000069,4,0,4,0,1,3,1,0,240,212,1,239,,,,,,,,,,,,,,,,,,
,,0,29,,,,,,,3,2,4,stim/24.jpeg,Instruments,1,stim/objects/Instruments/hihat2.png,0.9,4,0.2,-0.15,left,76,2020-12-09_20h05.35.267,premup-three_ses-01_part-01_label-phase1,3.2.4,Win32,60,right,0.851000071,4,0,4,0,1,3,1,0,240,215,1,239,,,,,,,,,,,,,,,,,,
,,1,30,,,,,,,1,4,4,stim/44.jpeg,Instruments,1,stim/objects/Instruments/grandpiano.png,0.5,3,-0.2,-0.15,left,76,2020-12-09_20h05.35.267,premup-three_ses-01_part-01_label-phase1,3.2.4,Win32,60,left,0.789999962,4,0,4,0,1,3,1,0,240,51,1,239,,,,,,,,,,,,,,,,,,
,,1,31,,,,,,,3,1,2,stim/12.jpeg,HouseObjects,2,stim/objects/HouseObjects/flyswatter2.png,0.9,2,0.2,0.15,right,76,2020-12-09_20h05.35.267,premup-three_ses-01_part-01_label-phase1,3.2.4,Win32,60,right,0.822000027,4,0,4,0,1,3,1,0,240,173,1,239,,,,,,,,,,,,,,,,,,
,,0,32,,,,,,,1,3,1,stim/31.jpeg,HouseObjects,2,stim/objects/HouseObjects/coffee.png,0.5,4,0.2,-0.15,right,76,2020-12-09_20h05.35.267,premup-three_ses-01_part-01_label-phase1,3.2.4,Win32,60,left,0.911999941,4,0,4,0,1,3,1,0,240,28,1,239,,,,,,,,,,,,,,,,,,
,,1,33,,,,,,,1,3,2,stim/32.jpeg,HouseObjects,2,stim/objects/HouseObjects/cushion.png,0.5,1,-0.2,0.15,right,76,2020-12-09_20h05.35.267,premup-three_ses-01_part-01_label-phase1,3.2.4,Win32,60,right,0.736999989,4,0,4,0,1,3,1,0,240,33,1,239,,,,,,,,,,,,,,,,,,
,,1,34,,,,,,,2,6,3,stim/63.jpeg,Instruments,1,stim/objects/Instruments/electricguitar2.png,0.7,2,0.2,0.15,left,76,2020-12-09_20h05.35.267,premup-three_ses-01_part-01_label-phase1,3.2.4,Win32,60,left,0.627000093,4,0,4,0,1,3,1,0,240,130,1,239,,,,,,,,,,,,,,,,,,
,,1,35,,,,,,,3,1,2,stim/12.jpeg,HouseObjects,2,stim/objects/HouseObjects/flyswatter2.png,0.9,1,-0.2,0.15,right,76,2020-12-09_20h05.35.267,premup-three_ses-01_part-01_label-phase1,3.2.4,Win32,60,right,0.616000175,4,0,4,0,1,3,1,0,240,165,1,239,,,,,,,,,,,,,,,,,,
,,0,36,,,,,,,1,3,1,stim/31.jpeg,HouseObjects,2,stim/objects/HouseObjects/coffee.png,0.5,2,0.2,0.15,right,76,2020-12-09_20h05.35.267,premup-three_ses-01_part-01_label-phase1,3.2.4,Win32,60,left,0.63499999,4,0,4,0,1,3,1,0,240,24,1,239,,,,,,,,,,,,,,,,,,
,,1,37,,,,,,,2,5,2,stim/52.jpeg,HouseObjects,2,stim/objects/HouseObjects/hairdryer.png,0.7,1,-0.2,0.15,right,76,2020-12-09_20h05.35.267,premup-three_ses-01_part-01_label-phase1,3.2.4,Win32,60,right,0.790999889,4,0,4,0,1,3,1,0,240,97,1,239,,,,,,,,,,,,,,,,,,
,,1,38,,,,,,,1,4,3,stim/43.jpeg,Instruments,1,stim/objects/Instruments/gong.png,0.5,2,0.2,0.15,left,76,2020-12-09_20h05.35.267,premup-three_ses-01_part-01_label-phase1,3.2.4,Win32,60,left,0.705000162,4,0,4,0,1,3,1,0,240,58,1,239,,,,,,,,,,,,,,,,,,
,,0,39,,,,,,,2,5,4,stim/54.jpeg,Instruments,1,stim/objects/Instruments/hihat.png,0.3,1,-0.2,0.15,left,76,2020-12-09_20h05.35.267,premup-three_ses-01_part-01_label-phase1,3.2.4,Win32,60,right,0.782999992,4,0,4,0,1,3,1,0,240,83,1,239,,,,,,,,,,,,,,,,,,
,,1,40,,,,,,,3,2,4,stim/24.jpeg,Instruments,1,stim/objects/Instruments/hihat2.png,0.9,3,-0.2,-0.15,left,76,2020-12-09_20h05.35.267,premup-three_ses-01_part-01_label-phase1,3.2.4,Win32,60,left,0.942000151,4,0,4,0,1,3,1,0,240,211,1,239,,,,,,,,,,,,,,,,,,
,,1,41,,,,,,,2,5,1,stim/51.jpeg,HouseObjects,2,stim/objects/HouseObjects/glassmop.png,0.7,4,0.2,-0.15,right,76,2020-12-09_20h05.35.267,premup-three_ses-01_part-01_label-phase1,3.2.4,Win32,60,right,0.734999895,4,0,4,0,1,3,1,0,240,112,1,239,,,,,,,,,,,,,,,,,,
,,1,42,,,,,,,3,2,2,stim/22.jpeg,Instruments,1,stim/objects/Instruments/harmonica2.png,0.9,4,0.2,-0.15,left,76,2020-12-09_20h05.35.267,premup-three_ses-01_part-01_label-phase1,3.2.4,Win32,60,left,1.034999847,4,0,4,0,1,3,1,0,240,233,1,239,,,,,,,,,,,,,,,,,,
,,0,43,,,,,,,2,6,2,stim/62.jpeg,Instruments,1,stim/objects/Instruments/electricdrumset2.png,0.7,3,-0.2,-0.15,left,76,2020-12-09_20h05.35.267,premup-three_ses-01_part-01_label-phase1,3.2.4,Win32,60,right,0.67200017,4,0,4,0,1,3,1,0,240,129,1,239,,,,,,,,,,,,,,,,,,
,,1,44,,,,,,,3,1,4,stim/14.jpeg,HouseObjects,2,stim/objects/HouseObjects/glass2.png,0.9,1,-0.2,0.15,right,76,2020-12-09_20h05.35.267,premup-three_ses-01_part-01_label-phase1,3.2.4,Win32,60,right,1,4,0,4,0,1,3,1,0,240,199,1,239,,,,,,,,,,,,,,,,,,
,,1,45,,,,,,,2,6,2,stim/62.jpeg,Instruments,1,stim/objects/Instruments/electricdrumset2.png,0.7,3,-0.2,-0.15,left,76,2020-12-09_20h05.35.267,premup-three_ses-01_part-01_label-phase1,3.2.4,Win32,60,left,0.848999977,4,0,4,0,1,3,1,0,240,121,1,239,,,,,,,,,,,,,,,,,,
,,0,46,,,,,,,2,6,1,stim/61.jpeg,Instruments,1,stim/objects/Instruments/drums2.png,0.7,3,-0.2,-0.15,left,76,2020-12-09_20h05.35.267,premup-three_ses-01_part-01_label-phase1,3.2.4,Win32,60,right,0.738999844,4,0,4,0,1,3,1,0,240,132,1,239,,,,,,,,,,,,,,,,,,
,,1,47,,,,,,,3,2,2,stim/22.jpeg,Instruments,1,stim/objects/Instruments/harmonica2.png,0.9,4,0.2,-0.15,left,76,2020-12-09_20h05.35.267,premup-three_ses-01_part-01_label-phase1,3.2.4,Win32,60,left,0.861999989,4,0,4,0,1,3,1,0,240,225,1,239,,,,,,,,,,,,,,,,,,
,,1,48,,,,,,,3,1,1,stim/11.jpeg,HouseObjects,2,stim/objects/HouseObjects/dustpan2.png,0.9,2,0.2,0.15,right,76,2020-12-09_20h05.35.267,premup-three_ses-01_part-01_label-phase1,3.2.4,Win32,60,right,0.891000032,4,0,4,0,1,3,1,0,240,172,1,239,,,,,,,,,,,,,,,,,,
,,1,49,,,,,,,3,1,3,stim/13.jpeg,HouseObjects,2,stim/objects/HouseObjects/garbagebin2.png,0.9,3,-0.2,-0.15,right,76,2020-12-09_20h05.35.267,premup-three_ses-01_part-01_label-phase1,3.2.4,Win32,60,right,0.983999968,4,0,4,0,1,3,1,0,240,198,1,239,,,,,,,,,,,,,,,,,,
,,1,50,,,,,,,3,1,1,stim/11.jpeg,HouseObjects,2,stim/objects/HouseObjects/dustpan2.png,0.9,4,0.2,-0.15,right,76,2020-12-09_20h05.35.267,premup-three_ses-01_part-01_label-phase1,3.2.4,Win32,60,right,0.885999918,4,0,4,0,1,3,1,0,240,176,1,239,,,,,,,,,,,,,,,,,,
,,1,51,,,,,,,1,3,3,stim/33.jpeg,Instruments,1,stim/objects/Instruments/electricguitar.png,0.5,1,-0.2,0.15,left,76,2020-12-09_20h05.35.267,premup-three_ses-01_part-01_label-phase1,3.2.4,Win32,60,left,0.916000128,4,0,4,0,1,3,1,0,240,18,1,239,,,,,,,,,,,,,,,,,,
,,1,52,,,,,,,1,4,2,stim/42.jpeg,Instruments,1,stim/objects/Instruments/frenchhorn.png,0.5,4,0.2,-0.15,left,76,2020-12-09_20h05.35.267,premup-three_ses-01_part-01_label-phase1,3.2.4,Win32,60,left,1.037999868,4,0,4,0,1,3,1,0,240,49,1,239,,,,,,,,,,,,,,,,,,
,,1,53,,,,,,,2,5,2,stim/52.jpeg,HouseObjects,2,stim/objects/HouseObjects/hairdryer.png,0.7,2,0.2,0.15,right,76,2020-12-09_20h05.35.267,premup-three_ses-01_part-01_label-phase1,3.2.4,Win32,60,right,0.792000055,4,0,4,0,1,3,1,0,240,105,1,239,,,,,,,,,,,,,,,,,,
,,0,54,,,,,,,1,3,4,stim/34.jpeg,HouseObjects,2,stim/objects/HouseObjects/doormat.png,0.5,1,-0.2,0.15,right,76,2020-12-09_20h05.35.267,premup-three_ses-01_part-01_label-phase1,3.2.4,Win32,60,left,0.753000021,4,0,4,0,1,3,1,0,240,27,1,239,,,,,,,,,,,,,,,,,,
,,0,55,,,,,,,3,2,3,stim/23.jpeg,HouseObjects,2,stim/objects/HouseObjects/handbrush2.png,0.1,4,0.2,-0.15,right,76,2020-12-09_20h05.35.267,premup-three_ses-01_part-01_label-phase1,3.2.4,Win32,60,left,1.029999971,4,0,4,0,1,3,1,0,240,238,1,239,,,,,,,,,,,,,,,,,,
,,1,56,,,,,,,3,2,1,stim/21.jpeg,Instruments,1,stim/objects/Instruments/guitarcase2.png,0.9,1,-0.2,0.15,left,76,2020-12-09_20h05.35.267,premup-three_ses-01_part-01_label-phase1,3.2.4,Win32,60,left,1.154999971,4,0,4,0,1,3,1,0,240,208,1,239,,,,,,,,,,,,,,,,,,
,,1,57,,,,,,,1,4,3,stim/43.jpeg,HouseObjects,2,stim/objects/HouseObjects/garbagebin.png,0.5,3,-0.2,-0.15,right,76,2020-12-09_20h05.35.267,premup-three_ses-01_part-01_label-phase1,3.2.4,Win32,60,right,0.675000191,4,0,4,0,1,3,1,0,240,74,1,239,,,,,,,,,,,,,,,,,,
,,1,58,,,,,,,2,6,2,stim/62.jpeg,Instruments,1,stim/objects/Instruments/electricdrumset2.png,0.7,1,-0.2,0.15,left,76,2020-12-09_20h05.35.267,premup-three_ses-01_part-01_label-phase1,3.2.4,Win32,60,left,1.041000128,4,0,4,0,1,3,1,0,240,141,1,239,,,,,,,,,,,,,,,,,,
,,0,59,,,,,,,1,4,1,stim/41.jpeg,HouseObjects,2,stim/objects/HouseObjects/dustpan.png,0.5,4,0.2,-0.15,right,76,2020-12-09_20h05.35.267,premup-three_ses-01_part-01_label-phase1,3.2.4,Win32,60,left,1.016000032,4,0,4,0,1,3,1,0,240,68,1,239,,,,,,,,,,,,,,,,,,
,,0,60,,,,,,,2,5,3,stim/53.jpeg,Instruments,1,stim/objects/Instruments/harp.png,0.3,4,0.2,-0.15,left,76,2020-12-09_20h05.35.267,premup-three_ses-01_part-01_label-phase1,3.2.4,Win32,60,right,0.809999943,4,0,4,0,1,3,1,0,240,86,1,239,,,,,,,,,,,,,,,,,,
,,0,61,,,,,,,1,3,1,stim/31.jpeg,HouseObjects,2,stim/objects/HouseObjects/coffee.png,0.5,1,-0.2,0.15,right,76,2020-12-09_20h05.35.267,premup-three_ses-01_part-01_label-phase1,3.2.4,Win32,60,left,0.838999987,4,0,4,0,1,3,1,0,240,20,1,239,,,,,,,,,,,,,,,,,,
,,0,62,,,,,,,3,2,1,stim/21.jpeg,HouseObjects,2,stim/objects/HouseObjects/glassmop2.png,0.1,3,-0.2,-0.15,right,76,2020-12-09_20h05.35.267,premup-three_ses-01_part-01_label-phase1,3.2.4,Win32,60,left,1.092999935,4,0,4,0,1,3,1,0,240,236,1,239,,,,,,,,,,,,,,,,,,
,,0,63,,,,,,,2,6,1,stim/61.jpeg,Instruments,1,stim/objects/Instruments/drums2.png,0.7,1,-0.2,0.15,left,76,2020-12-09_20h05.35.267,premup-three_ses-01_part-01_label-phase1,3.2.4,Win32,60,right,1.128999949,4,0,4,0,1,3,1,0,240,120,1,239,,,,,,,,,,,,,,,,,,
,,1,64,,,,,,,1,3,3,stim/33.jpeg,Instruments,1,stim/objects/Instruments/electricguitar.png,0.5,4,0.2,-0.15,left,76,2020-12-09_20h05.35.267,premup-three_ses-01_part-01_label-phase1,3.2.4,Win32,60,left,0.488999844,4,0,4,0,1,3,1,0,240,6,1,239,,,,,,,,,,,,,,,,,,
,,1,65,,,,,,,3,1,1,stim/11.jpeg,HouseObjects,2,stim/objects/HouseObjects/dustpan2.png,0.9,3,-0.2,-0.15,right,76,2020-12-09_20h05.35.267,premup-three_ses-01_part-01_label-phase1,3.2.4,Win32,60,right,0.775999784,4,0,4,0,1,3,1,0,240,192,1,239,,,,,,,,,,,,,,,,,,
,,0,66,,,,,,,2,5,2,stim/52.jpeg,HouseObjects,2,stim/objects/HouseObjects/hairdryer.png,0.7,2,0.2,0.15,right,76,2020-12-09_20h05.35.267,premup-three_ses-01_part-01_label-phase1,3.2.4,Win32,60,left,0.758000135,4,0,4,0,1,3,1,0,240,101,1,239,,,,,,,,,,,,,,,,,,
,,0,67,,,,,,,1,3,2,stim/32.jpeg,Instruments,1,stim/objects/Instruments/electricdrumset.png,0.5,3,-0.2,-0.15,left,76,2020-12-09_20h05.35.267,premup-three_ses-01_part-01_label-phase1,3.2.4,Win32,60,right,0.740999937,4,0,4,0,1,3,1,0,240,5,1,239,,,,,,,,,,,,,,,,,,
,,1,68,,,,,,,3,1,1,stim/11.jpeg,HouseObjects,2,stim/objects/HouseObjects/dustpan2.png,0.9,1,-0.2,0.15,right,76,2020-12-09_20h05.35.267,premup-three_ses-01_part-01_label-phase1,3.2.4,Win32,60,right,0.690000057,4,0,4,0,1,3,1,0,240,184,1,239,,,,,,,,,,,,,,,,,,
,,0,69,,,,,,,1,4,3,stim/43.jpeg,HouseObjects,2,stim/objects/HouseObjects/garbagebin.png,0.5,1,-0.2,0.15,right,76,2020-12-09_20h05.35.267,premup-three_ses-01_part-01_label-phase1,3.2.4,Win32,60,left,0.570000172,4,0,4,0,1,3,1,0,240,70,1,239,,,,,,,,,,,,,,,,,,
,,1,70,,,,,,,2,5,4,stim/54.jpeg,HouseObjects,2,stim/objects/HouseObjects/handvacuum.png,0.7,2,0.2,0.15,right,76,2020-12-09_20h05.35.267,premup-three_ses-01_part-01_label-phase1,3.2.4,Win32,60,right,0.648000002,4,0,4,0,1,3,1,0,240,107,1,239,,,,,,,,,,,,,,,,,,
,,1,71,,,,,,,3,2,2,stim/22.jpeg,Instruments,1,stim/objects/Instruments/harmonica2.png,0.9,3,-0.2,-0.15,left,76,2020-12-09_20h05.35.267,premup-three_ses-01_part-01_label-phase1,3.2.4,Win32,60,left,0.823999882,4,0,4,0,1,3,1,0,240,213,1,239,,,,,,,,,,,,,,,,,,
,,0,72,,,,,,,1,4,1,stim/41.jpeg,Instruments,1,stim/objects/Instruments/flutetrans.png,0.5,4,0.2,-0.15,left,76,2020-12-09_20h05.35.267,premup-three_ses-01_part-01_label-phase1,3.2.4,Win32,60,right,0.497999907,4,0,4,0,1,3,1,0,240,48,1,239,,,,,,,,,,,,,,,,,,
,,1,73,,,,,,,2,6,1,stim/61.jpeg,Instruments,1,stim/objects/Instruments/drums2.png,0.7,4,0.2,-0.15,left,76,2020-12-09_20h05.35.267,premup-three_ses-01_part-01_label-phase1,3.2.4,Win32,60,left,0.463000059,4,0,4,0,1,3,1,0,240,140,1,239,,,,,,,,,,,,,,,,,,
,,1,74,,,,,,,1,3,2,stim/32.jpeg,HouseObjects,2,stim/objects/HouseObjects/cushion.png,0.5,1,-0.2,0.15,right,76,2020-12-09_20h05.35.267,premup-three_ses-01_part-01_label-phase1,3.2.4,Win32,60,right,0.618000031,4,0,4,0,1,3,1,0,240,21,1,239,,,,,,,,,,,,,,,,,,
,,1,75,,,,,,,3,1,1,stim/11.jpeg,Instruments,1,stim/objects/Instruments/flutetrans2.png,0.1,3,-0.2,-0.15,left,76,2020-12-09_20h05.35.267,premup-three_ses-01_part-01_label-phase1,3.2.4,Win32,60,left,0.536999941,4,0,4,0,1,3,1,0,240,160,1,239,,,,,,,,,,,,,,,,,,
,,0,76,,,,,,,1,4,4,stim/44.jpeg,Instruments,1,stim/objects/Instruments/grandpiano.png,0.5,2,0.2,0.15,left,76,2020-12-09_20h05.35.267,premup-three_ses-01_part-01_label-phase1,3.2.4,Win32,60,right,0.736000061,4,0,4,0,1,3,1,0,240,47,1,239,,,,,,,,,,,,,,,,,,
,,0,77,,,,,,,1,3,3,stim/33.jpeg,Instruments,1,stim/objects/Instruments/electricguitar.png,0.5,4,0.2,-0.15,left,76,2020-12-09_20h05.35.267,premup-three_ses-01_part-01_label-phase1,3.2.4,Win32,60,right,0.618999958,4,0,4,0,1,3,1,0,240,14,1,239,,,,,,,,,,,,,,,,,,
,,1,78,,,,,,,2,5,1,stim/51.jpeg,HouseObjects,2,stim/objects/HouseObjects/glassmop.png,0.7,2,0.2,0.15,right,76,2020-12-09_20h05.35.267,premup-three_ses-01_part-01_label-phase1,3.2.4,Win32,60,right,0.696000099,4,0,4,0,1,3,1,0,240,108,1,239,,,,,,,,,,,,,,,,,,
,,1,79,,,,,,,2,5,3,stim/53.jpeg,Instruments,1,stim/objects/Instruments/harp.png,0.3,1,-0.2,0.15,left,76,2020-12-09_20h05.35.267,premup-three_ses-01_part-01_label-phase1,3.2.4,Win32,60,left,0.73300004,4,0,4,0,1,3,1,0,240,90,1,239,,,,,,,,,,,,,,,,,,
,,0,80,,,,,,,1,4,2,stim/42.jpeg,Instruments,1,stim/objects/Instruments/frenchhorn.png,0.5,3,-0.2,-0.15,left,76,2020-12-09_20h05.35.267,premup-three_ses-01_part-01_label-phase1,3.2.4,Win32,60,right,0.734999895,4,0,4,0,1,3,1,0,240,53,1,239,,,,,,,,,,,,,,,,,,
,,1,81,,,,,,,1,3,1,stim/31.jpeg,Instruments,1,stim/objects/Instruments/drums.png,0.5,2,0.2,0.15,left,76,2020-12-09_20h05.35.267,premup-three_ses-01_part-01_label-phase1,3.2.4,Win32,60,left,0.427000046,4,0,4,0,1,3,1,0,240,0,1,239,,,,,,,,,,,,,,,,,,
,,1,82,,,,,,,3,1,2,stim/12.jpeg,HouseObjects,2,stim/objects/HouseObjects/flyswatter2.png,0.9,4,0.2,-0.15,right,76,2020-12-09_20h05.35.267,premup-three_ses-01_part-01_label-phase1,3.2.4,Win32,60,right,0.434999943,4,0,4,0,1,3,1,0,240,189,1,239,,,,,,,,,,,,,,,,,,
,,0,83,,,,,,,1,4,2,stim/42.jpeg,HouseObjects,2,stim/objects/HouseObjects/flyswatter.png,0.5,2,0.2,0.15,right,76,2020-12-09_20h05.35.267,premup-three_ses-01_part-01_label-phase1,3.2.4,Win32,60,left,0.486999989,4,0,4,0,1,3,1,0,240,73,1,239,,,,,,,,,,,,,,,,,,
,,1,84,,,,,,,1,3,2,stim/32.jpeg,HouseObjects,2,stim/objects/HouseObjects/cushion.png,0.5,3,-0.2,-0.15,right,76,2020-12-09_20h05.35.267,premup-three_ses-01_part-01_label-phase1,3.2.4,Win32,60,right,0.245000124,4,0,4,0,1,3,1,0,240,25,1,239,,,,,,,,,,,,,,,,,,
,,1,85,,,,,,,3,1,3,stim/13.jpeg,HouseObjects,2,stim/objects/HouseObjects/garbagebin2.png,0.9,4,0.2,-0.15,right,76,2020-12-09_20h05.35.267,premup-three_ses-01_part-01_label-phase1,3.2.4,Win32,60,right,1.023000002,4,0,4,0,1,3,1,0,240,174,1,239,,,,,,,,,,,,,,,,,,
,,0,86,,,,,,,1,3,3,stim/33.jpeg,HouseObjects,2,stim/objects/HouseObjects/dishsoap.png,0.5,2,0.2,0.15,right,76,2020-12-09_20h05.35.267,premup-three_ses-01_part-01_label-phase1,3.2.4,Win32,60,left,0.636999846,4,0,4,0,1,3,1,0,240,26,1,239,,,,,,,,,,,,,,,,,,
,,0,87,,,,,,,3,2,3,stim/23.jpeg,Instruments,1,stim/objects/Instruments/harp2.png,0.9,4,0.2,-0.15,left,76,2020-12-09_20h05.35.267,premup-three_ses-01_part-01_label-phase1,3.2.4,Win32,60,right,1.103999853,4,0,4,0,1,3,1,0,240,210,1,239,,,,,,,,,,,,,,,,,,
,,0,88,,,,,,,2,6,2,stim/62.jpeg,Instruments,1,stim/objects/Instruments/electricdrumset2.png,0.7,4,0.2,-0.15,left,76,2020-12-09_20h05.35.267,premup-three_ses-01_part-01_label-phase1,3.2.4,Win32,60,right,0.941000223,4,0,4,0,1,3,1,0,240,133,1,239,,,,,,,,,,,,,,,,,,
,,1,89,,,,,,,1,4,3,stim/43.jpeg,Instruments,1,stim/objects/Instruments/gong.png,0.5,4,0.2,-0.15,left,76,2020-12-09_20h05.35.267,premup-three_ses-01_part-01_label-phase1,3.2.4,Win32,60,left,1.142999887,4,0,4,0,1,3,1,0,240,46,1,239,,,,,,,,,,,,,,,,,,
,,1,90,,,,,,,1,3,2,stim/32.jpeg,Instruments,1,stim/objects/Instruments/electricdrumset.png,0.5,4,0.2,-0.15,left,76,2020-12-09_20h05.35.267,premup-three_ses-01_part-01_label-phase1,3.2.4,Win32,60,left,0.882999897,4,0,4,0,1,3,1,0,240,1,1,239,,,,,,,,,,,,,,,,,,
,,0,91,,,,,,,2,6,1,stim/61.jpeg,Instruments,1,stim/objects/Instruments/drums2.png,0.7,1,-0.2,0.15,left,76,2020-12-09_20h05.35.267,premup-three_ses-01_part-01_label-phase1,3.2.4,Win32,60,right,0.790999889,4,0,4,0,1,3,1,0,240,136,1,239,,,,,,,,,,,,,,,,,,
,,1,92,,,,,,,1,4,1,stim/41.jpeg,HouseObjects,2,stim/objects/HouseObjects/dustpan.png,0.5,4,0.2,-0.15,right,76,2020-12-09_20h05.35.267,premup-three_ses-01_part-01_label-phase1,3.2.4,Win32,60,right,0.851000071,4,0,4,0,1,3,1,0,240,64,1,239,,,,,,,,,,,,,,,,,,
,,1,93,,,,,,,2,6,3,stim/63.jpeg,Instruments,1,stim/objects/Instruments/electricguitar2.png,0.7,2,0.2,0.15,left,76,2020-12-09_20h05.35.267,premup-three_ses-01_part-01_label-phase1,3.2.4,Win32,60,left,0.717000008,4,0,4,0,1,3,1,0,240,134,1,239,,,,,,,,,,,,,,,,,,
,,0,94,,,,,,,1,3,2,stim/32.jpeg,Instruments,1,stim/objects/Instruments/electricdrumset.png,0.5,4,0.2,-0.15,left,76,2020-12-09_20h05.35.267,premup-three_ses-01_part-01_label-phase1,3.2.4,Win32,60,right,0.679999828,4,0,4,0,1,3,1,0,240,13,1,239,,,,,,,,,,,,,,,,,,
,,1,95,,,,,,,2,5,1,stim/51.jpeg,HouseObjects,2,stim/objects/HouseObjects/glassmop.png,0.7,1,-0.2,0.15,right,76,2020-12-09_20h05.35.267,premup-three_ses-01_part-01_label-phase1,3.2.4,Win32,60,right,0.636999846,4,0,4,0,1,3,1,0,240,104,1,239,,,,,,,,,,,,,,,,,,
,,0,96,,,,,,,2,6,1,stim/61.jpeg,HouseObjects,2,stim/objects/HouseObjects/coffee2.png,0.3,3,-0.2,-0.15,right,76,2020-12-09_20h05.35.267,premup-three_ses-01_part-01_label-phase1,3.2.4,Win32,60,left,0.606999874,4,0,4,0,1,3,1,0,240,148,1,239,,,,,,,,,,,,,,,,,,
,,1,97,,,,,,,3,1,3,stim/13.jpeg,HouseObjects,2,stim/objects/HouseObjects/garbagebin2.png,0.9,3,-0.2,-0.15,right,76,2020-12-09_20h05.35.267,premup-three_ses-01_part-01_label-phase1,3.2.4,Win32,60,right,0.758999825,4,0,4,0,1,3,1,0,240,186,1,239,,,,,,,,,,,,,,,,,,
,,0,98,,,,,,,1,3,4,stim/34.jpeg,HouseObjects,2,stim/objects/HouseObjects/doormat.png,0.5,3,-0.2,-0.15,right,76,2020-12-09_20h05.35.267,premup-three_ses-01_part-01_label-phase1,3.2.4,Win32,60,left,0.796000004,4,0,4,0,1,3,1,0,240,35,1,239,,,,,,,,,,,,,,,,,,
,,1,99,,,,,,,3,2,4,stim/24.jpeg,Instruments,1,stim/objects/Instruments/hihat2.png,0.9,1,-0.2,0.15,left,76,2020-12-09_20h05.35.267,premup-three_ses-01_part-01_label-phase1,3.2.4,Win32,60,left,0.795000076,4,0,4,0,1,3,1,0,240,219,1,239,,,,,,,,,,,,,,,,,,
,,0,100,,,,,,,2,5,4,stim/54.jpeg,Instruments,1,stim/objects/Instruments/hihat.png,0.3,2,0.2,0.15,left,76,2020-12-09_20h05.35.267,premup-three_ses-01_part-01_label-phase1,3.2.4,Win32,60,right,0.655999899,4,0,4,0,1,3,1,0,240,87,1,239,,,,,,,,,,,,,,,,,,
,,1,101,,,,,,,3,1,4,stim/14.jpeg,HouseObjects,2,stim/objects/HouseObjects/glass2.png,0.9,4,0.2,-0.15,right,76,2020-12-09_20h05.35.267,premup-three_ses-01_part-01_label-phase1,3.2.4,Win32,60,right,0.691999912,4,0,4,0,1,3,1,0,240,187,1,239,,,,,,,,,,,,,,,,,,
,,1,102,,,,,,,2,5,3,stim/53.jpeg,HouseObjects,2,stim/objects/HouseObjects/handbrush.png,0.7,3,-0.2,-0.15,right,76,2020-12-09_20h05.35.267,premup-three_ses-01_part-01_label-phase1,3.2.4,Win32,60,right,0.64199996,4,0,4,0,1,3,1,0,240,106,1,239,,,,,,,,,,,,,,,,,,
,,1,103,,,,,,,2,5,4,stim/54.jpeg,HouseObjects,2,stim/objects/HouseObjects/handvacuum.png,0.7,1,-0.2,0.15,right,76,2020-12-09_20h05.35.267,premup-three_ses-01_part-01_label-phase1,3.2.4,Win32,60,right,0.593999863,4,0,4,0,1,3,1,0,240,111,1,239,,,,,,,,,,,,,,,,,,
,,0,104,,,,,,,2,6,4,stim/64.jpeg,HouseObjects,2,stim/objects/HouseObjects/doormat2.png,0.3,1,-0.2,0.15,right,76,2020-12-09_20h05.35.267,premup-three_ses-01_part-01_label-phase1,3.2.4,Win32,60,left,0.649999857,4,0,4,0,1,3,1,0,240,155,1,239,,,,,,,,,,,,,,,,,,
,,1,105,,,,,,,2,5,3,stim/53.jpeg,HouseObjects,2,stim/objects/HouseObjects/handbrush.png,0.7,1,-0.2,0.15,right,76,2020-12-09_20h05.35.267,premup-three_ses-01_part-01_label-phase1,3.2.4,Win32,60,right,0.492999792,4,0,4,0,1,3,1,0,240,102,1,239,,,,,,,,,,,,,,,,,,
,,1,106,,,,,,,3,2,4,stim/24.jpeg,Instruments,1,stim/objects/Instruments/hihat2.png,0.9,4,0.2,-0.15,left,76,2020-12-09_20h05.35.267,premup-three_ses-01_part-01_label-phase1,3.2.4,Win32,60,left,0.638000011,4,0,4,0,1,3,1,0,240,207,1,239,,,,,,,,,,,,,,,,,,
,,1,107,,,,,,,3,1,3,stim/13.jpeg,HouseObjects,2,stim/objects/HouseObjects/garbagebin2.png,0.9,1,-0.2,0.15,right,76,2020-12-09_20h05.35.267,premup-three_ses-01_part-01_label-phase1,3.2.4,Win32,60,right,0.188999891,4,0,4,0,1,3,1,0,240,182,1,239,,,,,,,,,,,,,,,,,,
,,1,108,,,,,,,2,6,4,stim/64.jpeg,Instruments,1,stim/objects/Instruments/flute2.png,0.7,4,0.2,-0.15,left,76,2020-12-09_20h05.35.267,premup-three_ses-01_part-01_label-phase1,3.2.4,Win32,60,left,0.371999979,4,0,4,0,1,3,1,0,240,147,1,239,,,,,,,,,,,,,,,,,,
,,1,109,,,,,,,2,5,2,stim/52.jpeg,HouseObjects,2,stim/objects/HouseObjects/hairdryer.png,0.7,3,-0.2,-0.15,right,76,2020-12-09_20h05.35.267,premup-three_ses-01_part-01_label-phase1,3.2.4,Win32,60,right,0.608999968,4,0,4,0,1,3,1,0,240,117,1,239,,,,,,,,,,,,,,,,,,
,,1,110,,,,,,,3,2,4,stim/24.jpeg,Instruments,1,stim/objects/Instruments/hihat2.png,0.9,1,-0.2,0.15,left,76,2020-12-09_20h05.35.267,premup-three_ses-01_part-01_label-phase1,3.2.4,Win32,60,left,0.64199996,4,0,4,0,1,3,1,0,240,223,1,239,,,,,,,,,,,,,,,,,,
,,1,111,,,,,,,1,4,3,stim/43.jpeg,HouseObjects,2,stim/objects/HouseObjects/garbagebin.png,0.5,4,0.2,-0.15,right,76,2020-12-09_20h05.35.267,premup-three_ses-01_part-01_label-phase1,3.2.4,Win32,60,right,0.662999868,4,0,4,0,1,3,1,0,240,62,1,239,,,,,,,,,,,,,,,,,,
,,1,112,,,,,,,3,2,4,stim/24.jpeg,Instruments,1,stim/objects/Instruments/hihat2.png,0.9,3,-0.2,-0.15,left,76,2020-12-09_20h05.35.267,premup-three_ses-01_part-01_label-phase1,3.2.4,Win32,60,left,0.506999969,4,0,4,0,1,3,1,0,240,235,1,239,,,,,,,,,,,,,,,,,,
,,1,113,,,,,,,3,1,4,stim/14.jpeg,HouseObjects,2,stim/objects/HouseObjects/glass2.png,0.9,3,-0.2,-0.15,right,76,2020-12-09_20h05.35.267,premup-three_ses-01_part-01_label-phase1,3.2.4,Win32,60,right,0.509000063,4,0,4,0,1,3,1,0,240,179,1,239,,,,,,,,,,,,,,,,,,
,,1,114,,,,,,,2,6,1,stim/61.jpeg,Instruments,1,stim/objects/Instruments/drums2.png,0.7,4,0.2,-0.15,left,76,2020-12-09_20h05.35.267,premup-three_ses-01_part-01_label-phase1,3.2.4,Win32,60,left,0.473999977,4,0,4,0,1,3,1,0,240,144,1,239,,,,,,,,,,,,,,,,,,
,,0,115,,,,,,,3,2,3,stim/23.jpeg,Instruments,1,stim/objects/Instruments/harp2.png,0.9,1,-0.2,0.15,left,76,2020-12-09_20h05.35.267,premup-three_ses-01_part-01_label-phase1,3.2.4,Win32,60,right,0.273999929,4,0,4,0,1,3,1,0,240,226,1,239,,,,,,,,,,,,,,,,,,
,,1,116,,,,,,,2,6,2,stim/62.jpeg,Instruments,1,stim/objects/Instruments/electricdrumset2.png,0.7,4,0.2,-0.15,left,76,2020-12-09_20h05.35.267,premup-three_ses-01_part-01_label-phase1,3.2.4,Win32,60,left,0.867000103,4,0,4,0,1,3,1,0,240,145,1,239,,,,,,,,,,,,,,,,,,
,,0,117,,,,,,,1,3,1,stim/31.jpeg,Instruments,1,stim/objects/Instruments/drums.png,0.5,2,0.2,0.15,left,76,2020-12-09_20h05.35.267,premup-three_ses-01_part-01_label-phase1,3.2.4,Win32,60,right,0.677000046,4,0,4,0,1,3,1,0,240,12,1,239,,,,,,,,,,,,,,,,,,
,,1,118,,,,,,,3,2,3,stim/23.jpeg,Instruments,1,stim/objects/Instruments/harp2.png,0.9,4,0.2,-0.15,left,76,2020-12-09_20h05.35.267,premup-three_ses-01_part-01_label-phase1,3.2.4,Win32,60,left,0.973999977,4,0,4,0,1,3,1,0,240,222,1,239,,,,,,,,,,,,,,,,,,
,,1,119,,,,,,,2,5,4,stim/54.jpeg,HouseObjects,2,stim/objects/HouseObjects/handvacuum.png,0.7,4,0.2,-0.15,right,76,2020-12-09_20h05.35.267,premup-three_ses-01_part-01_label-phase1,3.2.4,Win32,60,right,0.657000065,4,0,4,0,1,3,1,0,240,115,1,239,,,,,,,,,,,,,,,,,,
,,1,120,,,,,,,2,5,3,stim/53.jpeg,HouseObjects,2,stim/objects/HouseObjects/handbrush.png,0.7,2,0.2,0.15,right,76,2020-12-09_20h05.35.267,premup-three_ses-01_part-01_label-phase1,3.2.4,Win32,60,right,0.594000101,4,0,4,0,1,3,1,0,240,110,1,239,,,,,,,,,,,,,,,,,,
,,0,121,,,,,,,3,1,1,stim/11.jpeg,HouseObjects,2,stim/objects/HouseObjects/dustpan2.png,0.9,4,0.2,-0.15,right,76,2020-12-09_20h05.35.267,premup-three_ses-01_part-01_label-phase1,3.2.4,Win32,60,left,0.663999796,4,0,4,0,1,3,1,0,240,180,1,239,,,,,,,,,,,,,,,,,,
,,0,122,,,,,,,2,6,3,stim/63.jpeg,HouseObjects,2,stim/objects/HouseObjects/dishsoap2.png,0.3,4,0.2,-0.15,right,76,2020-12-09_20h05.35.267,premup-three_ses-01_part-01_label-phase1,3.2.4,Win32,60,left,0.842000008,4,0,4,0,1,3,1,0,240,158,1,239,,,,,,,,,,,,,,,,,,
,,1,123,,,,,,,1,3,3,stim/33.jpeg,HouseObjects,2,stim/objects/HouseObjects/dishsoap.png,0.5,3,-0.2,-0.15,right,76,2020-12-09_20h05.35.267,premup-three_ses-01_part-01_label-phase1,3.2.4,Win32,60,right,0.60800004,4,0,4,0,1,3,1,0,240,22,1,239,,,,,,,,,,,,,,,,,,
,,1,124,,,,,,,1,3,4,stim/34.jpeg,Instruments,1,stim/objects/Instruments/flute.png,0.5,2,0.2,0.15,left,76,2020-12-09_20h05.35.267,premup-three_ses-01_part-01_label-phase1,3.2.4,Win32,60,left,0.753999949,4,0,4,0,1,3,1,0,240,11,1,239,,,,,,,,,,,,,,,,,,
,,1,125,,,,,,,1,4,4,stim/44.jpeg,HouseObjects,2,stim/objects/HouseObjects/glass.png,0.5,2,0.2,0.15,right,76,2020-12-09_20h05.35.267,premup-three_ses-01_part-01_label-phase1,3.2.4,Win32,60,right,0.697000027,4,0,4,0,1,3,1,0,240,67,1,239,,,,,,,,,,,,,,,,,,
,,1,126,,,,,,,1,3,4,stim/34.jpeg,Instruments,1,stim/objects/Instruments/flute.png,0.5,3,-0.2,-0.15,left,76,2020-12-09_20h05.35.267,premup-three_ses-01_part-01_label-phase1,3.2.4,Win32,60,left,0.780999899,4,0,4,0,1,3,1,0,240,15,1,239,,,,,,,,,,,,,,,,,,
,,0,127,,,,,,,1,3,3,stim/33.jpeg,HouseObjects,2,stim/objects/HouseObjects/dishsoap.png,0.5,4,0.2,-0.15,right,76,2020-12-09_20h05.35.267,premup-three_ses-01_part-01_label-phase1,3.2.4,Win32,60,left,0.653000116,4,0,4,0,1,3,1,0,240,34,1,239,,,,,,,,,,,,,,,,,,
,,0,128,,,,,,,1,4,2,stim/42.jpeg,Instruments,1,stim/objects/Instruments/frenchhorn.png,0.5,4,0.2,-0.15,left,76,2020-12-09_20h05.35.267,premup-three_ses-01_part-01_label-phase1,3.2.4,Win32,60,right,0.769000053,4,0,4,0,1,3,1,0,240,57,1,239,,,,,,,,,,,,,,,,,,
,,1,129,,,,,,,3,1,2,stim/12.jpeg,HouseObjects,2,stim/objects/HouseObjects/flyswatter2.png,0.9,2,0.2,0.15,right,76,2020-12-09_20h05.35.267,premup-three_ses-01_part-01_label-phase1,3.2.4,Win32,60,right,0.647000074,4,0,4,0,1,3,1,0,240,185,1,239,,,,,,,,,,,,,,,,,,
,,1,130,,,,,,,3,1,4,stim/14.jpeg,HouseObjects,2,stim/objects/HouseObjects/glass2.png,0.9,3,-0.2,-0.15,right,76,2020-12-09_20h05.35.267,premup-three_ses-01_part-01_label-phase1,3.2.4,Win32,60,right,0.813999891,4,0,4,0,1,3,1,0,240,167,1,239,,,,,,,,,,,,,,,,,,
,,1,131,,,,,,,1,3,2,stim/32.jpeg,HouseObjects,2,stim/objects/HouseObjects/cushion.png,0.5,4,0.2,-0.15,right,76,2020-12-09_20h05.35.267,premup-three_ses-01_part-01_label-phase1,3.2.4,Win32,60,right,0.771000147,4,0,4,0,1,3,1,0,240,37,1,239,,,,,,,,,,,,,,,,,,
,,0,132,,,,,,,2,5,2,stim/52.jpeg,Instruments,1,stim/objects/Instruments/harmonica.png,0.3,1,-0.2,0.15,left,76,2020-12-09_20h05.35.267,premup-three_ses-01_part-01_label-phase1,3.2.4,Win32,60,right,0.99000001,4,0,4,0,1,3,1,0,240,89,1,239,,,,,,,,,,,,,,,,,,
