id_acc,key_resp_id.keys,key_resp_id.rt,key_resp_conf.keys,key_resp_conf.rt,assoc_acc,key_resp_assoc.keys,key_resp_assoc.rt,loc_acc,key_resp_loc.keys,key_resp_loc.rt,task_innerloop.thisRepN,task_innerloop.thisTrialN,task_innerloop.thisN,task_innerloop.thisIndex,task_innerloop.ran,task_innerloop.order,context_type,object_cat,PE_level,OvsN,obj_file,scn_file,corr_scn_cat,assoc_file,corr_scn_inst,corr_loc,participant,date,expName,psychopyVersion,OS,frameRate
1,left,1.671000004,2,5.32799983,0,2,6.840999842,0,1,2.986999989,1,0,200,66,1,199,3,1,0.1,1,stim/objects/HouseObjects/hairdryer2.png,stim/33.jpeg,3,stim/3.png,3,3,77,2020-12-11_15h04.56.972,premup-three_ses-02_part-03_label-phase3,3.2.4,Win32,60
1,left,4.220999956,,,0,,,0,,,1,0,200,182,1,199,0,1,0,2,stim/objects/HouseObjects/broom4.png,,0,stim/0.png,0,0,77,2020-12-11_15h04.56.972,premup-three_ses-02_part-03_label-phase3,3.2.4,Win32,60
1,left,1.396000147,4,2.10199976,0,3,4.193000078,0,3,2.589999914,1,0,200,14,1,199,1,2,0.5,1,stim/objects/HouseObjects/teapot.png,stim/61.jpeg,6,stim/6.png,1,1,77,2020-12-11_15h04.56.972,premup-three_ses-02_part-03_label-phase3,3.2.4,Win32,60
1,left,2.057999849,4,1.818999767,0,1,4.930999756,0,1,1.380999804,1,0,200,12,1,199,1,2,0.5,1,stim/objects/HouseObjects/sponge.png,stim/63.jpeg,6,stim/6.png,3,1,77,2020-12-11_15h04.56.972,premup-three_ses-02_part-03_label-phase3,3.2.4,Win32,60
1,left,6.171999931,,,0,,,0,,,1,0,200,145,1,199,0,1,0,2,stim/objects/HouseObjects/saw3.png,,0,stim/0.png,0,0,77,2020-12-11_15h04.56.972,premup-three_ses-02_part-03_label-phase3,3.2.4,Win32,60
1,left,0.989999771,,,0,,,0,,,1,0,200,108,1,199,0,1,0,2,stim/objects/HouseObjects/bucket3.png,,0,stim/0.png,0,0,77,2020-12-11_15h04.56.972,premup-three_ses-02_part-03_label-phase3,3.2.4,Win32,60
1,left,1.387000084,,,0,,,0,,,1,0,200,143,1,199,0,1,0,2,stim/objects/HouseObjects/handvacuum3.png,,0,stim/0.png,0,0,77,2020-12-11_15h04.56.972,premup-three_ses-02_part-03_label-phase3,3.2.4,Win32,60
1,left,1.130000114,4,1.569999933,0,3,8.740999937,0,4,2.772000074,1,0,200,92,1,199,3,2,0.1,1,stim/objects/Instruments/timbal2.png,stim/41.jpeg,4,stim/4.png,1,1,77,2020-12-11_15h04.56.972,premup-three_ses-02_part-03_label-phase3,3.2.4,Win32,60
1,right,1.894999981,3,5.328999996,0,2,13.50699997,0,3,2.674999714,1,0,200,17,1,199,1,2,0.5,1,stim/objects/Instruments/timbal.png,stim/62.jpeg,6,stim/6.png,2,4,77,2020-12-11_15h04.56.972,premup-three_ses-02_part-03_label-phase3,3.2.4,Win32,60
1,right,1.496000051,,,0,,,0,,,1,0,200,188,1,199,0,1,0,2,stim/objects/HouseObjects/cushion4.png,,0,stim/0.png,0,0,77,2020-12-11_15h04.56.972,premup-three_ses-02_part-03_label-phase3,3.2.4,Win32,60
1,left,1.51699996,,,0,,,0,,,1,0,200,193,1,199,0,2,0,2,stim/objects/Instruments/clarinet4.png,,0,stim/0.png,0,0,77,2020-12-11_15h04.56.972,premup-three_ses-02_part-03_label-phase3,3.2.4,Win32,60
1,left,0.98300004,4,1.294999838,0,3,6.133000135,0,3,2.207999945,1,0,200,75,1,199,3,2,0.9,1,stim/objects/Instruments/guitarcase2.png,stim/34.jpeg,3,stim/3.png,4,4,77,2020-12-11_15h04.56.972,premup-three_ses-02_part-03_label-phase3,3.2.4,Win32,60
1,left,1.499999762,4,1.260999918,0,2,2.811999798,0,2,4.077000141,1,0,200,86,1,199,3,1,0.9,1,stim/objects/HouseObjects/thread2.png,stim/43.jpeg,4,stim/4.png,3,3,77,2020-12-11_15h04.56.972,premup-three_ses-02_part-03_label-phase3,3.2.4,Win32,60
1,right,1.634999752,,,0,,,0,,,1,0,200,131,1,199,0,2,0,2,stim/objects/Instruments/doublebass3.png,,0,stim/0.png,0,0,77,2020-12-11_15h04.56.972,premup-three_ses-02_part-03_label-phase3,3.2.4,Win32,60
1,right,1.274999857,2,2.421999931,0,4,13.30299997,0,4,5.421999931,1,0,200,2,1,199,1,1,0.5,1,stim/objects/HouseObjects/handbrush.png,stim/51.jpeg,5,stim/5.png,1,1,77,2020-12-11_15h04.56.972,premup-three_ses-02_part-03_label-phase3,3.2.4,Win32,60
1,left,1.633999825,,,0,,,0,,,1,0,200,177,1,199,0,2,0,2,stim/objects/Instruments/balalaika4.png,,0,stim/0.png,0,0,77,2020-12-11_15h04.56.972,premup-three_ses-02_part-03_label-phase3,3.2.4,Win32,60
1,right,0.845999956,,,0,,,0,,,1,0,200,184,1,199,0,1,0,2,stim/objects/HouseObjects/clock4.png,,0,stim/0.png,0,0,77,2020-12-11_15h04.56.972,premup-three_ses-02_part-03_label-phase3,3.2.4,Win32,60
1,left,1.005999804,4,1.677999973,0,2,5.298000097,0,3,3.05099988,1,0,200,30,1,199,2,2,0.7,1,stim/objects/Instruments/trumpet.png,stim/12.jpeg,1,stim/1.png,2,4,77,2020-12-11_15h04.56.972,premup-three_ses-02_part-03_label-phase3,3.2.4,Win32,60
1,right,1.120999813,4,1.717000008,0,4,9.573999882,0,2,1.523999929,1,0,200,80,1,199,3,1,0.9,1,stim/objects/HouseObjects/saw2.png,stim/41.jpeg,4,stim/4.png,1,3,77,2020-12-11_15h04.56.972,premup-three_ses-02_part-03_label-phase3,3.2.4,Win32,60
1,right,1.247999907,,,0,,,0,,,1,0,200,107,1,199,0,1,0,2,stim/objects/HouseObjects/broom3.png,,0,stim/0.png,0,0,77,2020-12-11_15h04.56.972,premup-three_ses-02_part-03_label-phase3,3.2.4,Win32,60
1,right,1.006000042,3,2.14199996,0,4,6.318999767,0,1,0.974999905,1,0,200,72,1,199,3,2,0.9,1,stim/objects/Instruments/frenchhorn2.png,stim/31.jpeg,3,stim/3.png,1,1,77,2020-12-11_15h04.56.972,premup-three_ses-02_part-03_label-phase3,3.2.4,Win32,60
1,right,0.88499999,4,1.414999962,0,1,3.477999926,0,3,1.038999796,1,0,200,65,1,199,3,1,0.1,1,stim/objects/HouseObjects/glassmop2.png,stim/32.jpeg,3,stim/3.png,2,3,77,2020-12-11_15h04.56.972,premup-three_ses-02_part-03_label-phase3,3.2.4,Win32,60
1,left,1.178999901,4,1.486999989,0,1,7.378999949,0,2,1.197999954,1,0,200,51,1,199,2,2,0.3,1,stim/objects/Instruments/cello2.png,stim/23.jpeg,2,stim/2.png,3,3,77,2020-12-11_15h04.56.972,premup-three_ses-02_part-03_label-phase3,3.2.4,Win32,60
1,left,1.529999971,4,2.471999884,0,3,8.204999924,0,2,3.507999897,1,0,200,8,1,199,1,1,0.5,1,stim/objects/Instruments/hihat.png,stim/51.jpeg,5,stim/5.png,1,2,77,2020-12-11_15h04.56.972,premup-three_ses-02_part-03_label-phase3,3.2.4,Win32,60
1,right,5.125,2,2.369999886,0,4,4.193000078,0,1,3.815999746,1,0,200,95,1,199,3,2,0.1,1,stim/objects/Instruments/trumpet2.png,stim/44.jpeg,4,stim/4.png,4,1,77,2020-12-11_15h04.56.972,premup-three_ses-02_part-03_label-phase3,3.2.4,Win32,60
1,right,3.131999969,2,2.035000086,0,3,4.027999878,0,3,2.247999907,1,0,200,67,1,199,3,1,0.1,1,stim/objects/HouseObjects/handbrush2.png,stim/34.jpeg,3,stim/3.png,4,3,77,2020-12-11_15h04.56.972,premup-three_ses-02_part-03_label-phase3,3.2.4,Win32,60
1,right,1.578000069,1,4.184000015,0,2,4.883999825,0,3,1.039999962,1,0,200,99,1,199,3,2,0.1,1,stim/objects/Instruments/xylophone2.png,stim/44.jpeg,4,stim/4.png,4,2,77,2020-12-11_15h04.56.972,premup-three_ses-02_part-03_label-phase3,3.2.4,Win32,60
1,left,2.224999905,4,1.61500001,0,3,3.632999897,0,3,2.649999857,1,0,200,55,1,199,2,2,0.3,1,stim/objects/Instruments/cymbal2.png,stim/23.jpeg,2,stim/2.png,3,4,77,2020-12-11_15h04.56.972,premup-three_ses-02_part-03_label-phase3,3.2.4,Win32,60
1,right,3.315999985,,,0,,,0,,,1,0,200,180,1,199,0,1,0,2,stim/objects/HouseObjects/blender4.png,,0,stim/0.png,0,0,77,2020-12-11_15h04.56.972,premup-three_ses-02_part-03_label-phase3,3.2.4,Win32,60
1,right,1.178999901,,,0,,,0,,,1,0,200,194,1,199,0,2,0,2,stim/objects/Instruments/cornet4.png,,0,stim/0.png,0,0,77,2020-12-11_15h04.56.972,premup-three_ses-02_part-03_label-phase3,3.2.4,Win32,60
1,left,1.184000015,,,0,,,0,,,1,0,200,171,1,199,0,2,0,2,stim/objects/Instruments/tuba3.png,,0,stim/0.png,0,0,77,2020-12-11_15h04.56.972,premup-three_ses-02_part-03_label-phase3,3.2.4,Win32,60
1,right,1.016000032,,,0,,,0,,,1,0,200,190,1,199,0,2,0,2,stim/objects/Instruments/bassguitar4.png,,0,stim/0.png,0,0,77,2020-12-11_15h04.56.972,premup-three_ses-02_part-03_label-phase3,3.2.4,Win32,60
1,right,1.924999952,,,0,,,0,,,1,0,200,156,1,199,0,2,0,2,stim/objects/Instruments/tambourine3.png,,0,stim/0.png,0,0,77,2020-12-11_15h04.56.972,premup-three_ses-02_part-03_label-phase3,3.2.4,Win32,60
1,left,1.93599987,4,1.818000078,0,4,4.945999861,0,3,1.07799983,1,0,200,41,1,199,2,1,0.7,1,stim/objects/HouseObjects/bottle2.png,stim/21.jpeg,2,stim/2.png,1,1,77,2020-12-11_15h04.56.972,premup-three_ses-02_part-03_label-phase3,3.2.4,Win32,60
1,left,5.166999817,,,0,,,0,,,1,0,200,198,1,199,0,2,0,2,stim/objects/Instruments/electricdrumset4.png,,0,stim/0.png,0,0,77,2020-12-11_15h04.56.972,premup-three_ses-02_part-03_label-phase3,3.2.4,Win32,60
1,right,1.384999752,,,0,,,0,,,1,0,200,124,1,199,0,1,0,2,stim/objects/HouseObjects/dishsoap3.png,,0,stim/0.png,0,0,77,2020-12-11_15h04.56.972,premup-three_ses-02_part-03_label-phase3,3.2.4,Win32,60
1,left,3.048000097,3,1.674999952,0,2,2.438999891,0,3,3.257999897,1,0,200,38,1,199,2,2,0.7,1,stim/objects/Instruments/banjo2.png,stim/12.jpeg,1,stim/1.png,2,2,77,2020-12-11_15h04.56.972,premup-three_ses-02_part-03_label-phase3,3.2.4,Win32,60
1,left,3.014999866,,,0,,,0,,,1,0,200,142,1,199,0,1,0,2,stim/objects/HouseObjects/handbrush3.png,,0,stim/0.png,0,0,77,2020-12-11_15h04.56.972,premup-three_ses-02_part-03_label-phase3,3.2.4,Win32,60
1,left,5.460999966,3,3.234999895,0,2,1.694999933,0,2,3.809000015,1,0,200,71,1,199,3,2,0.9,1,stim/objects/Instruments/flutetrans2.png,stim/34.jpeg,3,stim/3.png,4,4,77,2020-12-11_15h04.56.972,premup-three_ses-02_part-03_label-phase3,3.2.4,Win32,60
1,right,4.13499999,,,0,,,0,,,1,0,200,128,1,199,0,1,0,2,stim/objects/HouseObjects/garbagebin3.png,,0,stim/0.png,0,0,77,2020-12-11_15h04.56.972,premup-three_ses-02_part-03_label-phase3,3.2.4,Win32,60
1,left,1.731999874,3,1.485000134,0,1,3.00999999,0,4,2.381999969,1,0,200,79,1,199,3,2,0.9,1,stim/objects/Instruments/saxophone2.png,stim/34.jpeg,3,stim/3.png,4,2,77,2020-12-11_15h04.56.972,premup-three_ses-02_part-03_label-phase3,3.2.4,Win32,60
1,left,1.269000053,,,0,,,0,,,1,0,200,121,1,199,0,1,0,2,stim/objects/HouseObjects/clothespin3.png,,0,stim/0.png,0,0,77,2020-12-11_15h04.56.972,premup-three_ses-02_part-03_label-phase3,3.2.4,Win32,60
1,left,1.194000006,,,0,,,0,,,1,0,200,137,1,199,0,2,0,2,stim/objects/Instruments/frenchhorn3.png,,0,stim/0.png,0,0,77,2020-12-11_15h04.56.972,premup-three_ses-02_part-03_label-phase3,3.2.4,Win32,60
1,left,1.079999924,4,1.108999729,0,2,3.348999977,0,1,1.937000036,1,0,200,49,1,199,2,1,0.7,1,stim/objects/HouseObjects/dishsoap2.png,stim/21.jpeg,2,stim/2.png,1,4,77,2020-12-11_15h04.56.972,premup-three_ses-02_part-03_label-phase3,3.2.4,Win32,60
1,left,9.197999954,,,0,,,0,,,1,0,200,136,1,199,0,2,0,2,stim/objects/Instruments/flutetrans3.png,,0,stim/0.png,0,0,77,2020-12-11_15h04.56.972,premup-three_ses-02_part-03_label-phase3,3.2.4,Win32,60
1,left,0.818999767,4,1.324999809,0,3,2.950999975,0,2,1.823999882,1,0,200,22,1,199,2,1,0.3,1,stim/objects/HouseObjects/towel.png,stim/13.jpeg,1,stim/1.png,3,1,77,2020-12-11_15h04.56.972,premup-three_ses-02_part-03_label-phase3,3.2.4,Win32,60
1,right,7.487999916,,,0,,,0,,,1,0,200,187,1,199,0,1,0,2,stim/objects/HouseObjects/coffee4.png,,0,stim/0.png,0,0,77,2020-12-11_15h04.56.972,premup-three_ses-02_part-03_label-phase3,3.2.4,Win32,60
1,left,3.046000004,3,1.378999949,0,1,2.433999777,0,2,1.43599987,1,0,200,43,1,199,2,1,0.7,1,stim/objects/HouseObjects/bucket2.png,stim/23.jpeg,2,stim/2.png,3,3,77,2020-12-11_15h04.56.972,premup-three_ses-02_part-03_label-phase3,3.2.4,Win32,60
1,left,1.445999861,4,1.082000017,0,1,1.676000118,0,3,1.812000036,1,0,200,27,1,199,2,1,0.3,1,stim/objects/HouseObjects/barbecuelighter2.png,stim/14.jpeg,1,stim/1.png,4,3,77,2020-12-11_15h04.56.972,premup-three_ses-02_part-03_label-phase3,3.2.4,Win32,60
1,left,1.048000097,,,0,,,0,,,1,0,200,116,1,199,0,2,0,2,stim/objects/Instruments/cello3.png,,0,stim/0.png,0,0,77,2020-12-11_15h04.56.972,premup-three_ses-02_part-03_label-phase3,3.2.4,Win32,60
1,right,2.223999977,,,0,,,0,,,1,0,200,141,1,199,0,1,0,2,stim/objects/HouseObjects/hairdryer3.png,,0,stim/0.png,0,0,77,2020-12-11_15h04.56.972,premup-three_ses-02_part-03_label-phase3,3.2.4,Win32,60
1,right,1.179999828,,,0,,,0,,,1,0,200,106,1,199,0,1,0,2,stim/objects/HouseObjects/bottle3.png,,0,stim/0.png,0,0,77,2020-12-11_15h04.56.972,premup-three_ses-02_part-03_label-phase3,3.2.4,Win32,60
1,right,0.808000088,,,0,,,0,,,1,0,200,117,1,199,0,2,0,2,stim/objects/Instruments/chime3.png,,0,stim/0.png,0,0,77,2020-12-11_15h04.56.972,premup-three_ses-02_part-03_label-phase3,3.2.4,Win32,60
1,right,1.093999863,3,2.362999916,0,4,3.70299983,0,3,1.258999825,1,0,200,42,1,199,2,1,0.7,1,stim/objects/HouseObjects/broom2.png,stim/22.jpeg,2,stim/2.png,2,4,77,2020-12-11_15h04.56.972,premup-three_ses-02_part-03_label-phase3,3.2.4,Win32,60
1,left,4.920999765,,,0,,,0,,,1,0,200,105,1,199,0,1,0,2,stim/objects/HouseObjects/blender3.png,,0,stim/0.png,0,0,77,2020-12-11_15h04.56.972,premup-three_ses-02_part-03_label-phase3,3.2.4,Win32,60
1,left,0.901000023,3,1.707999706,0,4,9.787999868,0,4,3.417999983,1,0,200,9,1,199,1,1,0.5,1,stim/objects/Instruments/saxophone.png,stim/52.jpeg,5,stim/5.png,2,2,77,2020-12-11_15h04.56.972,premup-three_ses-02_part-03_label-phase3,3.2.4,Win32,60
1,left,1.695999861,3,1.860999823,0,3,8.248999834,0,3,1.497999907,1,0,200,97,1,199,3,2,0.1,1,stim/objects/Instruments/violin2.png,stim/42.jpeg,4,stim/4.png,2,2,77,2020-12-11_15h04.56.972,premup-three_ses-02_part-03_label-phase3,3.2.4,Win32,60
1,left,1.217999935,4,1.214999914,0,1,2.954999924,0,3,2.786999941,1,0,200,25,1,199,2,1,0.3,1,stim/objects/HouseObjects/ashtray2.png,stim/12.jpeg,1,stim/1.png,2,2,77,2020-12-11_15h04.56.972,premup-three_ses-02_part-03_label-phase3,3.2.4,Win32,60
1,right,1.140999794,3,4.715999842,0,3,4.250999928,0,4,2.740999937,1,0,200,90,1,199,3,2,0.1,1,stim/objects/Instruments/speaker2.png,stim/43.jpeg,4,stim/4.png,3,1,77,2020-12-11_15h04.56.972,premup-three_ses-02_part-03_label-phase3,3.2.4,Win32,60
1,left,1.162999868,,,0,,,0,,,1,0,200,144,1,199,0,1,0,2,stim/objects/HouseObjects/safetypin3.png,,0,stim/0.png,0,0,77,2020-12-11_15h04.56.972,premup-three_ses-02_part-03_label-phase3,3.2.4,Win32,60
1,right,1.730999947,3,2.46999979,0,2,2.815999985,0,3,1.225999832,1,0,200,26,1,199,2,1,0.3,1,stim/objects/HouseObjects/ballofstring2.png,stim/13.jpeg,1,stim/1.png,3,3,77,2020-12-11_15h04.56.972,premup-three_ses-02_part-03_label-phase3,3.2.4,Win32,60
1,left,1.243000031,3,1.321000099,0,1,2.180999756,0,4,2.161000013,1,0,200,7,1,199,1,1,0.5,1,stim/objects/Instruments/harp.png,stim/54.jpeg,5,stim/5.png,4,4,77,2020-12-11_15h04.56.972,premup-three_ses-02_part-03_label-phase3,3.2.4,Win32,60
1,left,1.102999926,4,1.054999828,0,2,4.286999941,0,1,0.891000032,1,0,200,62,1,199,3,1,0.1,1,stim/objects/HouseObjects/flyswatter2.png,stim/33.jpeg,3,stim/3.png,3,3,77,2020-12-11_15h04.56.972,premup-three_ses-02_part-03_label-phase3,3.2.4,Win32,60
1,right,1.399999857,2,1.915999889,0,2,4.947999954,0,3,3.148999929,1,0,200,83,1,199,3,1,0.9,1,stim/objects/HouseObjects/spraybottle2.png,stim/44.jpeg,4,stim/4.png,4,1,77,2020-12-11_15h04.56.972,premup-three_ses-02_part-03_label-phase3,3.2.4,Win32,60
1,right,1.937999964,2,1.450999975,0,3,3.404000044,0,3,1.53399992,1,0,200,47,1,199,2,1,0.7,1,stim/objects/HouseObjects/coffee2.png,stim/23.jpeg,2,stim/2.png,3,2,77,2020-12-11_15h04.56.972,premup-three_ses-02_part-03_label-phase3,3.2.4,Win32,60
1,left,3.50999999,,,0,,,0,,,1,0,200,158,1,199,0,2,0,2,stim/objects/Instruments/triangle3.png,,0,stim/0.png,0,0,77,2020-12-11_15h04.56.972,premup-three_ses-02_part-03_label-phase3,3.2.4,Win32,60
1,right,0.852999926,3,1.66899991,0,4,2.237999916,0,2,1.796999931,1,0,200,15,1,199,1,2,0.5,1,stim/objects/Instruments/speaker.png,stim/64.jpeg,6,stim/6.png,4,1,77,2020-12-11_15h04.56.972,premup-three_ses-02_part-03_label-phase3,3.2.4,Win32,60
1,right,4.674000025,2,1.715999842,0,1,3.134000063,0,1,1.750999928,1,0,200,34,1,199,2,2,0.7,1,stim/objects/Instruments/xylophone.png,stim/12.jpeg,1,stim/1.png,2,3,77,2020-12-11_15h04.56.972,premup-three_ses-02_part-03_label-phase3,3.2.4,Win32,60
1,left,1.144999981,,,0,,,0,,,1,0,200,135,1,199,0,2,0,2,stim/objects/Instruments/flute3.png,,0,stim/0.png,0,0,77,2020-12-11_15h04.56.972,premup-three_ses-02_part-03_label-phase3,3.2.4,Win32,60
1,left,1.36500001,,,0,,,0,,,1,0,200,115,1,199,0,2,0,2,stim/objects/Instruments/bassguitar3.png,,0,stim/0.png,0,0,77,2020-12-11_15h04.56.972,premup-three_ses-02_part-03_label-phase3,3.2.4,Win32,60
1,left,2.94900012,3,2.983999729,0,3,7.086999893,0,4,1.992999792,1,0,200,96,1,199,3,2,0.1,1,stim/objects/Instruments/tuba2.png,stim/41.jpeg,4,stim/4.png,1,3,77,2020-12-11_15h04.56.972,premup-three_ses-02_part-03_label-phase3,3.2.4,Win32,60
1,left,2.911000013,,,0,,,0,,,1,0,200,138,1,199,0,2,0,2,stim/objects/Instruments/gong3.png,,0,stim/0.png,0,0,77,2020-12-11_15h04.56.972,premup-three_ses-02_part-03_label-phase3,3.2.4,Win32,60
1,right,1.434000015,,,0,,,0,,,1,0,200,147,1,199,0,1,0,2,stim/objects/HouseObjects/sponge3.png,,0,stim/0.png,0,0,77,2020-12-11_15h04.56.972,premup-three_ses-02_part-03_label-phase3,3.2.4,Win32,60
1,left,2.136999846,3,1.546999931,0,3,8.8349998,0,4,1.328999996,1,0,200,1,1,199,1,1,0.5,1,stim/objects/HouseObjects/hairdryer.png,stim/54.jpeg,5,stim/5.png,4,3,77,2020-12-11_15h04.56.972,premup-three_ses-02_part-03_label-phase3,3.2.4,Win32,60
1,right,1.201999903,,,0,,,0,,,1,0,200,120,1,199,0,1,0,2,stim/objects/HouseObjects/clothesdryingrack3.png,,0,stim/0.png,0,0,77,2020-12-11_15h04.56.972,premup-three_ses-02_part-03_label-phase3,3.2.4,Win32,60
1,left,1.007999897,4,1.677999973,0,4,3.120999813,0,2,2.339999914,1,0,200,73,1,199,3,2,0.9,1,stim/objects/Instruments/gong2.png,stim/32.jpeg,3,stim/3.png,2,2,77,2020-12-11_15h04.56.972,premup-three_ses-02_part-03_label-phase3,3.2.4,Win32,60
1,left,1.16899991,,,0,,,0,,,1,0,200,172,1,199,0,2,0,2,stim/objects/Instruments/violin3.png,,0,stim/0.png,0,0,77,2020-12-11_15h04.56.972,premup-three_ses-02_part-03_label-phase3,3.2.4,Win32,60
1,left,1.434000015,,,0,,,0,,,1,0,200,167,1,199,0,1,0,2,stim/objects/HouseObjects/barbecuelighter4.png,,0,stim/0.png,0,0,77,2020-12-11_15h04.56.972,premup-three_ses-02_part-03_label-phase3,3.2.4,Win32,60
1,right,1.127999783,3,1.412999868,0,2,3.063999891,0,3,2.16899991,1,0,200,10,1,199,1,2,0.5,1,stim/objects/HouseObjects/saw.png,stim/61.jpeg,6,stim/6.png,1,2,77,2020-12-11_15h04.56.972,premup-three_ses-02_part-03_label-phase3,3.2.4,Win32,60
1,right,1.517999887,,,0,,,0,,,1,0,200,103,1,199,0,1,0,2,stim/objects/HouseObjects/basket3.png,,0,stim/0.png,0,0,77,2020-12-11_15h04.56.972,premup-three_ses-02_part-03_label-phase3,3.2.4,Win32,60
1,right,0.790999889,4,2.263999939,0,3,4.947000027,0,4,4.364999771,1,0,200,77,1,199,3,2,0.9,1,stim/objects/Instruments/harp2.png,stim/32.jpeg,3,stim/3.png,2,1,77,2020-12-11_15h04.56.972,premup-three_ses-02_part-03_label-phase3,3.2.4,Win32,60
1,left,2.546999931,2,1.809999943,0,4,3.833999872,0,2,2.352999926,1,0,200,3,1,199,1,1,0.5,1,stim/objects/HouseObjects/handvacuum.png,stim/52.jpeg,5,stim/5.png,2,4,77,2020-12-11_15h04.56.972,premup-three_ses-02_part-03_label-phase3,3.2.4,Win32,60
1,right,3.414999962,,,0,,,0,,,1,0,200,129,1,199,0,1,0,2,stim/objects/HouseObjects/glass3.png,,0,stim/0.png,0,0,77,2020-12-11_15h04.56.972,premup-three_ses-02_part-03_label-phase3,3.2.4,Win32,60
1,right,1.134000063,3,1.913000107,0,2,1.718999863,0,3,1.623999834,1,0,200,40,1,199,2,1,0.7,1,stim/objects/HouseObjects/blender2.png,stim/24.jpeg,2,stim/2.png,4,3,77,2020-12-11_15h04.56.972,premup-three_ses-02_part-03_label-phase3,3.2.4,Win32,60
1,right,1.417999983,3,7.117999792,0,2,1.67599988,0,3,0.980000019,1,0,200,16,1,199,1,2,0.5,1,stim/objects/Instruments/tambourine.png,stim/61.jpeg,6,stim/6.png,1,2,77,2020-12-11_15h04.56.972,premup-three_ses-02_part-03_label-phase3,3.2.4,Win32,60
1,right,1.723999977,,,0,,,0,,,1,0,200,185,1,199,0,1,0,2,stim/objects/HouseObjects/clothesdryingrack4.png,,0,stim/0.png,0,0,77,2020-12-11_15h04.56.972,premup-three_ses-02_part-03_label-phase3,3.2.4,Win32,60
1,left,1.096999884,4,1.188999891,0,1,1.383999825,0,3,0.951999903,1,0,200,45,1,199,2,1,0.7,1,stim/objects/HouseObjects/clothesdryingrack2.png,stim/21.jpeg,2,stim/2.png,1,3,77,2020-12-11_15h04.56.972,premup-three_ses-02_part-03_label-phase3,3.2.4,Win32,60
1,left,1.45299983,4,1.167999744,0,2,2.525999784,0,4,1.183999777,1,0,200,56,1,199,2,2,0.3,1,stim/objects/Instruments/doublebass2.png,stim/24.jpeg,2,stim/2.png,4,3,77,2020-12-11_15h04.56.972,premup-three_ses-02_part-03_label-phase3,3.2.4,Win32,60
1,left,1.515000105,4,1.151999712,0,4,1.232999802,0,3,3.06799984,1,0,200,48,1,199,2,1,0.7,1,stim/objects/HouseObjects/cushion2.png,stim/24.jpeg,2,stim/2.png,4,4,77,2020-12-11_15h04.56.972,premup-three_ses-02_part-03_label-phase3,3.2.4,Win32,60
1,right,1.085999966,3,1.884000063,0,2,2.413999796,0,3,1.835999727,1,0,200,63,1,199,3,1,0.1,1,stim/objects/HouseObjects/garbagebin2.png,stim/34.jpeg,3,stim/3.png,4,4,77,2020-12-11_15h04.56.972,premup-three_ses-02_part-03_label-phase3,3.2.4,Win32,60
1,right,1.165999889,,,0,,,0,,,1,0,200,191,1,199,0,2,0,2,stim/objects/Instruments/cello4.png,,0,stim/0.png,0,0,77,2020-12-11_15h04.56.972,premup-three_ses-02_part-03_label-phase3,3.2.4,Win32,60
1,right,0.730999947,,,0,,,0,,,1,0,200,176,1,199,0,2,0,2,stim/objects/Instruments/acousticguitar4.png,,0,stim/0.png,0,0,77,2020-12-11_15h04.56.972,premup-three_ses-02_part-03_label-phase3,3.2.4,Win32,60
1,right,0.896999836,,,0,,,0,,,1,0,200,104,1,199,0,1,0,2,stim/objects/HouseObjects/bleachbottle3.png,,0,stim/0.png,0,0,77,2020-12-11_15h04.56.972,premup-three_ses-02_part-03_label-phase3,3.2.4,Win32,60
1,left,3.144000053,3,1.40899992,0,3,4.412999868,0,3,0.838999987,1,0,200,44,1,199,2,1,0.7,1,stim/objects/HouseObjects/clock2.png,stim/24.jpeg,2,stim/2.png,4,3,77,2020-12-11_15h04.56.972,premup-three_ses-02_part-03_label-phase3,3.2.4,Win32,60
1,right,1.429999828,,,0,,,0,,,1,0,200,130,1,199,0,2,0,2,stim/objects/Instruments/cymbal3.png,,0,stim/0.png,0,0,77,2020-12-11_15h04.56.972,premup-three_ses-02_part-03_label-phase3,3.2.4,Win32,60
1,right,2.895999908,2,1.617999792,0,3,3.099999905,0,1,1.391000032,1,0,200,31,1,199,2,2,0.7,1,stim/objects/Instruments/tuba.png,stim/13.jpeg,1,stim/1.png,3,3,77,2020-12-11_15h04.56.972,premup-three_ses-02_part-03_label-phase3,3.2.4,Win32,60
1,right,0.746000051,,,0,,,0,,,1,0,200,199,1,199,0,2,0,2,stim/objects/Instruments/electricguitar4.png,,0,stim/0.png,0,0,77,2020-12-11_15h04.56.972,premup-three_ses-02_part-03_label-phase3,3.2.4,Win32,60
1,right,4.993000031,,,0,,,0,,,1,0,200,127,1,199,0,1,0,2,stim/objects/HouseObjects/flyswatter3.png,,0,stim/0.png,0,0,77,2020-12-11_15h04.56.972,premup-three_ses-02_part-03_label-phase3,3.2.4,Win32,60
1,left,1.773000002,4,1.868000031,0,2,3.437999964,0,4,2.365999937,1,0,200,74,1,199,3,2,0.9,1,stim/objects/Instruments/grandpiano2.png,stim/33.jpeg,3,stim/3.png,3,2,77,2020-12-11_15h04.56.972,premup-three_ses-02_part-03_label-phase3,3.2.4,Win32,60
1,right,0.923999786,,,0,,,0,,,1,0,200,150,1,199,0,2,0,2,stim/objects/Instruments/guitarcase3.png,,0,stim/0.png,0,0,77,2020-12-11_15h04.56.972,premup-three_ses-02_part-03_label-phase3,3.2.4,Win32,60
1,right,0.855999947,4,2.069999933,0,1,2.84800005,0,3,1.167999983,1,0,200,61,1,199,3,1,0.1,1,stim/objects/HouseObjects/dustpan2.png,stim/32.jpeg,3,stim/3.png,2,2,77,2020-12-11_15h04.56.972,premup-three_ses-02_part-03_label-phase3,3.2.4,Win32,60
1,right,0.809999704,4,1.714999914,0,3,6.315999985,0,1,1.475999832,1,0,200,13,1,199,1,2,0.5,1,stim/objects/HouseObjects/spraybottle.png,stim/64.jpeg,6,stim/6.png,4,3,77,2020-12-11_15h04.56.972,premup-three_ses-02_part-03_label-phase3,3.2.4,Win32,60
1,left,3.22699976,,,0,,,0,,,1,0,200,109,1,199,0,1,0,2,stim/objects/HouseObjects/clock3.png,,0,stim/0.png,0,0,77,2020-12-11_15h04.56.972,premup-three_ses-02_part-03_label-phase3,3.2.4,Win32,60
1,right,0.851999998,,,0,,,0,,,1,0,200,174,1,199,0,2,0,2,stim/objects/Instruments/xylophone3.png,,0,stim/0.png,0,0,77,2020-12-11_15h04.56.972,premup-three_ses-02_part-03_label-phase3,3.2.4,Win32,60
1,right,0.597000122,,,0,,,0,,,1,0,200,111,1,199,0,2,0,2,stim/objects/Instruments/acousticguitar3.png,,0,stim/0.png,0,0,77,2020-12-11_15h04.56.972,premup-three_ses-02_part-03_label-phase3,3.2.4,Win32,60
1,left,2.073999882,,,0,,,0,,,1,0,200,102,1,199,0,1,0,2,stim/objects/HouseObjects/barbecuelighter3.png,,0,stim/0.png,0,0,77,2020-12-11_15h04.56.972,premup-three_ses-02_part-03_label-phase3,3.2.4,Win32,60
1,right,1.767999887,2,2.618000031,0,4,3.494999886,0,3,1.352999926,1,0,200,19,1,199,1,2,0.5,1,stim/objects/Instruments/trombone.png,stim/64.jpeg,6,stim/6.png,4,1,77,2020-12-11_15h04.56.972,premup-three_ses-02_part-03_label-phase3,3.2.4,Win32,60
1,right,1.013999939,,,0,,,0,,,1,0,200,139,1,199,0,2,0,2,stim/objects/Instruments/grandpiano3.png,,0,stim/0.png,0,0,77,2020-12-11_15h04.56.972,premup-three_ses-02_part-03_label-phase3,3.2.4,Win32,60
1,right,0.7099998,4,1.18599987,0,3,8.181999922,0,3,1.326999903,1,0,200,98,1,199,3,2,0.1,1,stim/objects/Instruments/vuvuzela2.png,stim/43.jpeg,4,stim/4.png,3,3,77,2020-12-11_15h04.56.972,premup-three_ses-02_part-03_label-phase3,3.2.4,Win32,60
1,right,0.61500001,4,1.292999983,0,1,1.265999794,0,1,1.344000101,1,0,200,85,1,199,3,1,0.9,1,stim/objects/HouseObjects/thermometer2.png,stim/42.jpeg,4,stim/4.png,2,1,77,2020-12-11_15h04.56.972,premup-three_ses-02_part-03_label-phase3,3.2.4,Win32,60
1,right,0.713999987,4,3.516000032,0,4,2.667000055,0,1,0.740999937,1,0,200,39,1,199,2,2,0.7,1,stim/objects/Instruments/bassdrum2.png,stim/13.jpeg,1,stim/1.png,3,1,77,2020-12-11_15h04.56.972,premup-three_ses-02_part-03_label-phase3,3.2.4,Win32,60
1,left,2.361999989,,,0,,,0,,,1,0,200,170,1,199,0,2,0,2,stim/objects/Instruments/trumpet3.png,,0,stim/0.png,0,0,77,2020-12-11_15h04.56.972,premup-three_ses-02_part-03_label-phase3,3.2.4,Win32,60
1,right,1.342000008,3,1.273999929,0,2,1.936999798,0,3,2.585000038,1,0,200,78,1,199,3,2,0.9,1,stim/objects/Instruments/hihat2.png,stim/33.jpeg,3,stim/3.png,3,3,77,2020-12-11_15h04.56.972,premup-three_ses-02_part-03_label-phase3,3.2.4,Win32,60
1,right,2.41899991,,,0,,,0,,,1,0,200,159,1,199,0,2,0,2,stim/objects/Instruments/trombone3.png,,0,stim/0.png,0,0,77,2020-12-11_15h04.56.972,premup-three_ses-02_part-03_label-phase3,3.2.4,Win32,60
1,right,0.762000084,,,0,,,0,,,1,0,200,195,1,199,0,2,0,2,stim/objects/Instruments/cymbal4.png,,0,stim/0.png,0,0,77,2020-12-11_15h04.56.972,premup-three_ses-02_part-03_label-phase3,3.2.4,Win32,60
1,right,1.248999834,3,1.161999941,0,2,2.51699996,0,1,1.392999887,1,0,200,21,1,199,2,1,0.3,1,stim/objects/HouseObjects/thread.png,stim/12.jpeg,1,stim/1.png,2,3,77,2020-12-11_15h04.56.972,premup-three_ses-02_part-03_label-phase3,3.2.4,Win32,60
1,right,0.569000006,,,0,,,0,,,1,0,200,175,1,199,0,2,0,2,stim/objects/Instruments/accordion4.png,,0,stim/0.png,0,0,77,2020-12-11_15h04.56.972,premup-three_ses-02_part-03_label-phase3,3.2.4,Win32,60
1,right,2.536000013,,,0,,,0,,,1,0,200,151,1,199,0,2,0,2,stim/objects/Instruments/harmonica3.png,,0,stim/0.png,0,0,77,2020-12-11_15h04.56.972,premup-three_ses-02_part-03_label-phase3,3.2.4,Win32,60
1,left,1.554999828,,,0,,,0,,,1,0,200,110,1,199,0,2,0,2,stim/objects/Instruments/accordion3.png,,0,stim/0.png,0,0,77,2020-12-11_15h04.56.972,premup-three_ses-02_part-03_label-phase3,3.2.4,Win32,60
1,right,1.412999868,,,0,,,0,,,1,0,200,100,1,199,0,1,0,2,stim/objects/HouseObjects/ashtray3.png,,0,stim/0.png,0,0,77,2020-12-11_15h04.56.972,premup-three_ses-02_part-03_label-phase3,3.2.4,Win32,60
1,right,2.003000021,3,1.417999983,0,3,5.410999775,0,4,3.115999937,1,0,200,76,1,199,3,2,0.9,1,stim/objects/Instruments/harmonica2.png,stim/31.jpeg,3,stim/3.png,1,1,77,2020-12-11_15h04.56.972,premup-three_ses-02_part-03_label-phase3,3.2.4,Win32,60
1,right,1.78399992,3,2.634999752,0,2,2.197999954,0,2,3.592999935,1,0,200,84,1,199,3,1,0.9,1,stim/objects/HouseObjects/teapot2.png,stim/41.jpeg,4,stim/4.png,1,4,77,2020-12-11_15h04.56.972,premup-three_ses-02_part-03_label-phase3,3.2.4,Win32,60
1,right,1.037999868,,,0,,,0,,,1,0,200,148,1,199,0,1,0,2,stim/objects/HouseObjects/spraybottle3.png,,0,stim/0.png,0,0,77,2020-12-11_15h04.56.972,premup-three_ses-02_part-03_label-phase3,3.2.4,Win32,60
1,right,0.621999979,,,0,,,0,,,1,0,200,166,1,199,0,1,0,2,stim/objects/HouseObjects/ballofstring4.png,,0,stim/0.png,0,0,77,2020-12-11_15h04.56.972,premup-three_ses-02_part-03_label-phase3,3.2.4,Win32,60
1,right,0.976000071,3,2.042000055,0,1,1.642999887,0,3,1.322999954,1,0,200,20,1,199,2,1,0.3,1,stim/objects/HouseObjects/thermometer.png,stim/11.jpeg,1,stim/1.png,1,1,77,2020-12-11_15h04.56.972,premup-three_ses-02_part-03_label-phase3,3.2.4,Win32,60
1,right,1.052999973,3,3.102999926,0,2,1.911999941,0,2,1.480999947,1,0,200,0,1,199,1,1,0.5,1,stim/objects/HouseObjects/glassmop.png,stim/53.jpeg,5,stim/5.png,3,3,77,2020-12-11_15h04.56.972,premup-three_ses-02_part-03_label-phase3,3.2.4,Win32,60
1,left,1.352999926,,,0,,,0,,,1,0,200,112,1,199,0,2,0,2,stim/objects/Instruments/balalaika3.png,,0,stim/0.png,0,0,77,2020-12-11_15h04.56.972,premup-three_ses-02_part-03_label-phase3,3.2.4,Win32,60
1,right,0.798999786,,,0,,,0,,,1,0,200,132,1,199,0,2,0,2,stim/objects/Instruments/drums3.png,,0,stim/0.png,0,0,77,2020-12-11_15h04.56.972,premup-three_ses-02_part-03_label-phase3,3.2.4,Win32,60
1,right,1.199999809,,,0,,,0,,,1,0,200,162,1,199,0,1,0,2,stim/objects/HouseObjects/towel3.png,,0,stim/0.png,0,0,77,2020-12-11_15h04.56.972,premup-three_ses-02_part-03_label-phase3,3.2.4,Win32,60
1,right,1.868999958,3,1.871999741,0,4,1.299000025,0,3,0.984999895,1,0,200,68,1,199,3,1,0.1,1,stim/objects/HouseObjects/handvacuum2.png,stim/31.jpeg,3,stim/3.png,1,2,77,2020-12-11_15h04.56.972,premup-three_ses-02_part-03_label-phase3,3.2.4,Win32,60
1,left,1.343999863,,,0,,,0,,,1,0,200,196,1,199,0,2,0,2,stim/objects/Instruments/doublebass4.png,,0,stim/0.png,0,0,77,2020-12-11_15h04.56.972,premup-three_ses-02_part-03_label-phase3,3.2.4,Win32,60
1,right,0.835000038,,,0,,,0,,,1,0,200,161,1,199,0,1,0,2,stim/objects/HouseObjects/thread3.png,,0,stim/0.png,0,0,77,2020-12-11_15h04.56.972,premup-three_ses-02_part-03_label-phase3,3.2.4,Win32,60
1,right,0.842000008,,,0,,,0,,,1,0,200,165,1,199,0,1,0,2,stim/objects/HouseObjects/ashtray4.png,,0,stim/0.png,0,0,77,2020-12-11_15h04.56.972,premup-three_ses-02_part-03_label-phase3,3.2.4,Win32,60
1,right,0.924000025,,,0,,,0,,,1,0,200,157,1,199,0,2,0,2,stim/objects/Instruments/timbal3.png,,0,stim/0.png,0,0,77,2020-12-11_15h04.56.972,premup-three_ses-02_part-03_label-phase3,3.2.4,Win32,60
1,right,0.587999821,2,1.713999987,0,2,2.600999832,0,3,0.949999809,1,0,200,82,1,199,3,1,0.9,1,stim/objects/HouseObjects/sponge2.png,stim/43.jpeg,4,stim/4.png,3,4,77,2020-12-11_15h04.56.972,premup-three_ses-02_part-03_label-phase3,3.2.4,Win32,60
1,right,0.931999922,,,0,,,0,,,1,0,200,126,1,199,0,1,0,2,stim/objects/HouseObjects/dustpan3.png,,0,stim/0.png,0,0,77,2020-12-11_15h04.56.972,premup-three_ses-02_part-03_label-phase3,3.2.4,Win32,60
1,right,0.612999916,2,6.616999865,0,3,1.825999975,0,4,1.268999815,1,0,200,11,1,199,1,2,0.5,1,stim/objects/HouseObjects/scale.png,stim/62.jpeg,6,stim/6.png,2,2,77,2020-12-11_15h04.56.972,premup-three_ses-02_part-03_label-phase3,3.2.4,Win32,60
1,right,6.386999846,,,0,,,0,,,1,0,200,118,1,199,0,2,0,2,stim/objects/Instruments/clarinet3.png,,0,stim/0.png,0,0,77,2020-12-11_15h04.56.972,premup-three_ses-02_part-03_label-phase3,3.2.4,Win32,60
1,right,0.86199975,4,1.316999912,0,2,3.891000032,0,4,1.017999887,1,0,200,5,1,199,1,1,0.5,1,stim/objects/Instruments/guitarcase.png,stim/52.jpeg,5,stim/5.png,2,3,77,2020-12-11_15h04.56.972,premup-three_ses-02_part-03_label-phase3,3.2.4,Win32,60
1,right,1.295000076,4,1.332000017,0,3,2.101000071,0,1,1.121999979,1,0,200,69,1,199,3,1,0.1,1,stim/objects/HouseObjects/safetypin2.png,stim/32.jpeg,3,stim/3.png,2,1,77,2020-12-11_15h04.56.972,premup-three_ses-02_part-03_label-phase3,3.2.4,Win32,60
1,left,2.744999886,2,2.371999741,0,3,2.359999895,0,2,1.628000021,1,0,200,32,1,199,2,2,0.7,1,stim/objects/Instruments/violin.png,stim/14.jpeg,1,stim/1.png,4,2,77,2020-12-11_15h04.56.972,premup-three_ses-02_part-03_label-phase3,3.2.4,Win32,60
1,right,0.802000046,,,0,,,0,,,1,0,200,163,1,199,0,1,0,2,stim/objects/HouseObjects/vacuumcleaner3.png,,0,stim/0.png,0,0,77,2020-12-11_15h04.56.972,premup-three_ses-02_part-03_label-phase3,3.2.4,Win32,60
1,right,0.548999786,,,0,,,0,,,1,0,200,169,1,199,0,1,0,2,stim/objects/HouseObjects/bleachbottle4.png,,0,stim/0.png,0,0,77,2020-12-11_15h04.56.972,premup-three_ses-02_part-03_label-phase3,3.2.4,Win32,60
1,right,0.579999924,,,0,,,0,,,1,0,200,134,1,199,0,2,0,2,stim/objects/Instruments/electricguitar3.png,,0,stim/0.png,0,0,77,2020-12-11_15h04.56.972,premup-three_ses-02_part-03_label-phase3,3.2.4,Win32,60
1,right,1.187999964,,,0,,,0,,,1,0,200,149,1,199,0,1,0,2,stim/objects/HouseObjects/teapot3.png,,0,stim/0.png,0,0,77,2020-12-11_15h04.56.972,premup-three_ses-02_part-03_label-phase3,3.2.4,Win32,60
1,right,0.674000025,,,0,,,0,,,1,0,200,160,1,199,0,1,0,2,stim/objects/HouseObjects/thermometer3.png,,0,stim/0.png,0,0,77,2020-12-11_15h04.56.972,premup-three_ses-02_part-03_label-phase3,3.2.4,Win32,60
1,right,0.707000017,3,3.485999823,0,4,1.124999762,0,2,1.230999947,1,0,200,23,1,199,2,1,0.3,1,stim/objects/HouseObjects/vacuumcleaner.png,stim/14.jpeg,1,stim/1.png,4,1,77,2020-12-11_15h04.56.972,premup-three_ses-02_part-03_label-phase3,3.2.4,Win32,60
1,right,0.764999866,,,0,,,0,,,1,0,200,168,1,199,0,1,0,2,stim/objects/HouseObjects/basket4.png,,0,stim/0.png,0,0,77,2020-12-11_15h04.56.972,premup-three_ses-02_part-03_label-phase3,3.2.4,Win32,60
1,right,0.523000002,,,0,,,0,,,1,0,200,125,1,199,0,1,0,2,stim/objects/HouseObjects/doormat3.png,,0,stim/0.png,0,0,77,2020-12-11_15h04.56.972,premup-three_ses-02_part-03_label-phase3,3.2.4,Win32,60
1,right,1.27699995,,,0,,,0,,,1,0,200,179,1,199,0,2,0,2,stim/objects/Instruments/bassdrum4.png,,0,stim/0.png,0,0,77,2020-12-11_15h04.56.972,premup-three_ses-02_part-03_label-phase3,3.2.4,Win32,60
1,left,5.075999737,,,0,,,0,,,1,0,200,133,1,199,0,2,0,2,stim/objects/Instruments/electricdrumset3.png,,0,stim/0.png,0,0,77,2020-12-11_15h04.56.972,premup-three_ses-02_part-03_label-phase3,3.2.4,Win32,60
1,right,0.753999949,,,0,,,0,,,1,0,200,155,1,199,0,2,0,2,stim/objects/Instruments/speaker3.png,,0,stim/0.png,0,0,77,2020-12-11_15h04.56.972,premup-three_ses-02_part-03_label-phase3,3.2.4,Win32,60
1,right,1.140999794,3,1.684000015,0,4,1.18599987,0,1,1.349999905,1,0,200,94,1,199,3,2,0.1,1,stim/objects/Instruments/trombone2.png,stim/43.jpeg,4,stim/4.png,3,4,77,2020-12-11_15h04.56.972,premup-three_ses-02_part-03_label-phase3,3.2.4,Win32,60
1,right,0.964999914,,,0,,,0,,,1,0,200,186,1,199,0,1,0,2,stim/objects/HouseObjects/clothespin4.png,,0,stim/0.png,0,0,77,2020-12-11_15h04.56.972,premup-three_ses-02_part-03_label-phase3,3.2.4,Win32,60
1,left,1.812000036,3,1.805999994,0,4,1.178999901,0,2,3.762000084,1,0,200,35,1,199,2,2,0.7,1,stim/objects/Instruments/accordion2.png,stim/13.jpeg,1,stim/1.png,3,2,77,2020-12-11_15h04.56.972,premup-three_ses-02_part-03_label-phase3,3.2.4,Win32,60
1,right,0.846999884,4,1.637000084,0,3,1.967999935,0,3,1.059999943,1,0,200,87,1,199,3,1,0.9,1,stim/objects/HouseObjects/towel2.png,stim/44.jpeg,4,stim/4.png,4,3,77,2020-12-11_15h04.56.972,premup-three_ses-02_part-03_label-phase3,3.2.4,Win32,60
1,right,0.514999866,4,2.526999712,0,4,13.83399987,0,2,1.286000013,1,0,200,91,1,199,3,2,0.1,1,stim/objects/Instruments/tambourine2.png,stim/44.jpeg,4,stim/4.png,4,4,77,2020-12-11_15h04.56.972,premup-three_ses-02_part-03_label-phase3,3.2.4,Win32,60
1,right,6.562000036,,,0,,,0,,,1,0,200,197,1,199,0,2,0,2,stim/objects/Instruments/drums4.png,,0,stim/0.png,0,0,77,2020-12-11_15h04.56.972,premup-three_ses-02_part-03_label-phase3,3.2.4,Win32,60
1,left,1.359999895,,,0,,,0,,,1,0,200,154,1,199,0,2,0,2,stim/objects/Instruments/saxophone3.png,,0,stim/0.png,0,0,77,2020-12-11_15h04.56.972,premup-three_ses-02_part-03_label-phase3,3.2.4,Win32,60
1,left,1.78399992,4,1.221999884,0,2,1.395999908,0,3,1.674000025,1,0,200,46,1,199,2,1,0.7,1,stim/objects/HouseObjects/clothespin2.png,stim/22.jpeg,2,stim/2.png,2,3,77,2020-12-11_15h04.56.972,premup-three_ses-02_part-03_label-phase3,3.2.4,Win32,60
1,left,6.752000093,3,1.243000031,0,1,1.48300004,0,1,5.680999756,1,0,200,93,1,199,3,2,0.1,1,stim/objects/Instruments/triangle2.png,stim/42.jpeg,4,stim/4.png,2,1,77,2020-12-11_15h04.56.972,premup-three_ses-02_part-03_label-phase3,3.2.4,Win32,60
1,right,0.877000093,1,6.019999981,0,3,5.05099988,0,3,0.761999846,1,0,200,81,1,199,3,1,0.9,1,stim/objects/HouseObjects/scale2.png,stim/42.jpeg,4,stim/4.png,2,4,77,2020-12-11_15h04.56.972,premup-three_ses-02_part-03_label-phase3,3.2.4,Win32,60
1,right,1.414000034,,,0,,,0,,,1,0,200,164,1,199,0,1,0,2,stim/objects/HouseObjects/wateringcan3.png,,0,stim/0.png,0,0,77,2020-12-11_15h04.56.972,premup-three_ses-02_part-03_label-phase3,3.2.4,Win32,60
1,left,0.872999907,,,0,,,0,,,1,0,200,178,1,199,0,2,0,2,stim/objects/Instruments/banjo4.png,,0,stim/0.png,0,0,77,2020-12-11_15h04.56.972,premup-three_ses-02_part-03_label-phase3,3.2.4,Win32,60
1,right,0.911999941,,,0,,,0,,,1,0,200,173,1,199,0,2,0,2,stim/objects/Instruments/vuvuzela3.png,,0,stim/0.png,0,0,77,2020-12-11_15h04.56.972,premup-three_ses-02_part-03_label-phase3,3.2.4,Win32,60
1,right,4.589999914,,,0,,,0,,,1,0,200,113,1,199,0,2,0,2,stim/objects/Instruments/banjo3.png,,0,stim/0.png,0,0,77,2020-12-11_15h04.56.972,premup-three_ses-02_part-03_label-phase3,3.2.4,Win32,60
1,right,0.885999918,,,0,,,0,,,1,0,200,140,1,199,0,1,0,2,stim/objects/HouseObjects/glassmop3.png,,0,stim/0.png,0,0,77,2020-12-11_15h04.56.972,premup-three_ses-02_part-03_label-phase3,3.2.4,Win32,60
1,left,2.838999748,3,1.20299983,0,3,3.350999832,0,4,0.898999929,1,0,200,88,1,199,3,1,0.9,1,stim/objects/HouseObjects/vacuumcleaner2.png,stim/41.jpeg,4,stim/4.png,1,2,77,2020-12-11_15h04.56.972,premup-three_ses-02_part-03_label-phase3,3.2.4,Win32,60
1,right,0.909999847,3,1.906999826,0,4,2.822999954,0,3,3.680000067,1,0,200,24,1,199,2,1,0.3,1,stim/objects/HouseObjects/wateringcan.png,stim/11.jpeg,1,stim/1.png,1,1,77,2020-12-11_15h04.56.972,premup-three_ses-02_part-03_label-phase3,3.2.4,Win32,60
1,left,1.760999918,2,2.007999897,0,2,4.309999943,0,3,0.980999708,1,0,200,89,1,199,3,1,0.9,1,stim/objects/HouseObjects/wateringcan2.png,stim/42.jpeg,4,stim/4.png,2,4,77,2020-12-11_15h04.56.972,premup-three_ses-02_part-03_label-phase3,3.2.4,Win32,60
1,right,1.122999907,3,3.118999958,0,3,3.797999859,0,2,3.143999815,1,0,200,6,1,199,1,1,0.5,1,stim/objects/Instruments/harmonica.png,stim/53.jpeg,5,stim/5.png,3,3,77,2020-12-11_15h04.56.972,premup-three_ses-02_part-03_label-phase3,3.2.4,Win32,60
1,right,0.654000044,,,0,,,0,,,1,0,200,181,1,199,0,1,0,2,stim/objects/HouseObjects/bottle4.png,,0,stim/0.png,0,0,77,2020-12-11_15h04.56.972,premup-three_ses-02_part-03_label-phase3,3.2.4,Win32,60
1,right,1.424999952,,,0,,,0,,,1,0,200,153,1,199,0,2,0,2,stim/objects/Instruments/hihat3.png,,0,stim/0.png,0,0,77,2020-12-11_15h04.56.972,premup-three_ses-02_part-03_label-phase3,3.2.4,Win32,60
1,right,0.545000076,,,0,,,0,,,1,0,200,123,1,199,0,1,0,2,stim/objects/HouseObjects/cushion3.png,,0,stim/0.png,0,0,77,2020-12-11_15h04.56.972,premup-three_ses-02_part-03_label-phase3,3.2.4,Win32,60
1,left,3.827000141,4,1.144999981,0,3,6.905999899,0,4,1.082999945,1,0,200,58,1,199,2,2,0.3,1,stim/objects/Instruments/electricdrumset2.png,stim/22.jpeg,2,stim/2.png,2,2,77,2020-12-11_15h04.56.972,premup-three_ses-02_part-03_label-phase3,3.2.4,Win32,60
1,left,1.569999933,4,1.177999973,0,1,4.641000032,0,3,2.289000034,1,0,200,4,1,199,1,1,0.5,1,stim/objects/HouseObjects/safetypin.png,stim/53.jpeg,5,stim/5.png,3,3,77,2020-12-11_15h04.56.972,premup-three_ses-02_part-03_label-phase3,3.2.4,Win32,60
1,right,1.11500001,,,0,,,0,,,1,0,200,122,1,199,0,1,0,2,stim/objects/HouseObjects/coffee3.png,,0,stim/0.png,0,0,77,2020-12-11_15h04.56.972,premup-three_ses-02_part-03_label-phase3,3.2.4,Win32,60
1,right,0.960999966,,,0,,,0,,,1,0,200,119,1,199,0,2,0,2,stim/objects/Instruments/cornet3.png,,0,stim/0.png,0,0,77,2020-12-11_15h04.56.972,premup-three_ses-02_part-03_label-phase3,3.2.4,Win32,60
1,right,0.565999746,,,0,,,0,,,1,0,200,114,1,199,0,2,0,2,stim/objects/Instruments/bassdrum3.png,,0,stim/0.png,0,0,77,2020-12-11_15h04.56.972,premup-three_ses-02_part-03_label-phase3,3.2.4,Win32,60
1,right,0.504999876,4,1.889999866,0,3,3.22699976,0,1,1.585999727,1,0,200,29,1,199,2,1,0.3,1,stim/objects/HouseObjects/bleachbottle2.png,stim/12.jpeg,1,stim/1.png,2,4,77,2020-12-11_15h04.56.972,premup-three_ses-02_part-03_label-phase3,3.2.4,Win32,60
1,right,0.598999977,,,0,,,0,,,1,0,200,189,1,199,0,1,0,2,stim/objects/HouseObjects/dishsoap4.png,,0,stim/0.png,0,0,77,2020-12-11_15h04.56.972,premup-three_ses-02_part-03_label-phase3,3.2.4,Win32,60
1,left,4.099999905,2,1.703999758,0,3,2.992999792,0,4,1.370000124,1,0,200,70,1,199,3,2,0.9,1,stim/objects/Instruments/flute2.png,stim/33.jpeg,3,stim/3.png,3,4,77,2020-12-11_15h04.56.972,premup-three_ses-02_part-03_label-phase3,3.2.4,Win32,60
1,right,1.664999962,,,0,,,0,,,1,0,200,101,1,199,0,1,0,2,stim/objects/HouseObjects/ballofstring3.png,,0,stim/0.png,0,0,77,2020-12-11_15h04.56.972,premup-three_ses-02_part-03_label-phase3,3.2.4,Win32,60
1,left,2.546999931,,,0,,,0,,,1,0,200,146,1,199,0,1,0,2,stim/objects/HouseObjects/scale3.png,,0,stim/0.png,0,0,77,2020-12-11_15h04.56.972,premup-three_ses-02_part-03_label-phase3,3.2.4,Win32,60
1,right,0.854999781,,,0,,,0,,,1,0,200,192,1,199,0,2,0,2,stim/objects/Instruments/chime4.png,,0,stim/0.png,0,0,77,2020-12-11_15h04.56.972,premup-three_ses-02_part-03_label-phase3,3.2.4,Win32,60
1,left,3.337999821,4,1.515999794,0,1,5.055999994,0,2,1.001999855,1,0,200,57,1,199,2,2,0.3,1,stim/objects/Instruments/drums2.png,stim/21.jpeg,2,stim/2.png,1,3,77,2020-12-11_15h04.56.972,premup-three_ses-02_part-03_label-phase3,3.2.4,Win32,60
1,left,1.285999775,4,2.030999899,0,2,4.88499999,0,1,0.787999868,1,0,200,53,1,199,2,2,0.3,1,stim/objects/Instruments/clarinet2.png,stim/21.jpeg,2,stim/2.png,1,1,77,2020-12-11_15h04.56.972,premup-three_ses-02_part-03_label-phase3,3.2.4,Win32,60
1,right,1.144999981,2,1.628999949,0,3,2.759000063,0,2,1.095999956,1,0,200,59,1,199,2,2,0.3,1,stim/objects/Instruments/electricguitar2.png,stim/23.jpeg,2,stim/2.png,3,1,77,2020-12-11_15h04.56.972,premup-three_ses-02_part-03_label-phase3,3.2.4,Win32,60
1,right,1.022000074,4,1.838000059,0,3,3.791000128,0,3,2.118000031,1,0,200,33,1,199,2,2,0.7,1,stim/objects/Instruments/vuvuzela.png,stim/11.jpeg,1,stim/1.png,1,2,77,2020-12-11_15h04.56.972,premup-three_ses-02_part-03_label-phase3,3.2.4,Win32,60
1,right,2.389999866,,,0,,,0,,,1,0,200,183,1,199,0,1,0,2,stim/objects/HouseObjects/bucket4.png,,0,stim/0.png,0,0,77,2020-12-11_15h04.56.972,premup-three_ses-02_part-03_label-phase3,3.2.4,Win32,60
1,right,0.988999844,,,0,,,0,,,1,0,200,152,1,199,0,2,0,2,stim/objects/Instruments/harp3.png,,0,stim/0.png,0,0,77,2020-12-11_15h04.56.972,premup-three_ses-02_part-03_label-phase3,3.2.4,Win32,60
1,right,0.734999895,3,2.361000061,0,3,3.682999849,0,3,0.81099987,1,0,200,36,1,199,2,2,0.7,1,stim/objects/Instruments/acousticguitar2.png,stim/14.jpeg,1,stim/1.png,4,4,77,2020-12-11_15h04.56.972,premup-three_ses-02_part-03_label-phase3,3.2.4,Win32,60
1,right,0.858999968,4,1.354999781,0,4,3.231999874,0,1,1.559999943,1,0,200,52,1,199,2,2,0.3,1,stim/objects/Instruments/chime2.png,stim/24.jpeg,2,stim/2.png,4,1,77,2020-12-11_15h04.56.972,premup-three_ses-02_part-03_label-phase3,3.2.4,Win32,60
1,left,1.603999853,3,2.381999969,0,1,1.904999971,0,4,3.275999784,1,0,200,54,1,199,2,2,0.3,1,stim/objects/Instruments/cornet2.png,stim/22.jpeg,2,stim/2.png,2,4,77,2020-12-11_15h04.56.972,premup-three_ses-02_part-03_label-phase3,3.2.4,Win32,60
1,left,2.770999908,3,2.237999916,0,1,4.454999924,0,3,0.847000122,1,0,200,18,1,199,1,2,0.5,1,stim/objects/Instruments/triangle.png,stim/63.jpeg,6,stim/6.png,3,4,77,2020-12-11_15h04.56.972,premup-three_ses-02_part-03_label-phase3,3.2.4,Win32,60
1,right,2.965999842,3,3.260999918,0,4,1.733999968,0,3,2.018999815,1,0,200,60,1,199,3,1,0.1,1,stim/objects/HouseObjects/doormat2.png,stim/31.jpeg,3,stim/3.png,1,1,77,2020-12-11_15h04.56.972,premup-three_ses-02_part-03_label-phase3,3.2.4,Win32,60
1,left,1.446999788,4,1.067000151,0,2,2.532999992,0,3,0.85199976,1,0,200,64,1,199,3,1,0.1,1,stim/objects/HouseObjects/glass2.png,stim/31.jpeg,3,stim/3.png,1,1,77,2020-12-11_15h04.56.972,premup-three_ses-02_part-03_label-phase3,3.2.4,Win32,60
1,right,4.700999975,2,1.878000021,0,3,1.65199995,0,4,3.382999897,1,0,200,37,1,199,2,2,0.7,1,stim/objects/Instruments/balalaika2.png,stim/11.jpeg,1,stim/1.png,1,4,77,2020-12-11_15h04.56.972,premup-three_ses-02_part-03_label-phase3,3.2.4,Win32,60
1,right,0.798000097,4,1.284999847,0,2,2.144999743,0,4,1.763999939,1,0,200,28,1,199,2,1,0.3,1,stim/objects/HouseObjects/basket2.png,stim/11.jpeg,1,stim/1.png,1,2,77,2020-12-11_15h04.56.972,premup-three_ses-02_part-03_label-phase3,3.2.4,Win32,60
1,right,0.660999775,3,12.57200003,0,2,3.023999929,0,3,1.646999836,1,0,200,50,1,199,2,2,0.3,1,stim/objects/Instruments/bassguitar2.png,stim/22.jpeg,2,stim/2.png,2,4,77,2020-12-11_15h04.56.972,premup-three_ses-02_part-03_label-phase3,3.2.4,Win32,60
