key_resp_trial.keys,key_resp_trial.rt,trial_acc,trial_index,iterations.thisRepN,iterations.thisTrialN,iterations.thisN,iterations.thisIndex,iterations.ran,iterations.order,task_innerloop.thisRepN,task_innerloop.thisTrialN,task_innerloop.thisN,task_innerloop.thisIndex,task_innerloop.ran,task_innerloop.order,scn_condition,scn_cat,scn_inst,scn_file,obj_cat,obj_cat_num,obj_file,trial_cond,quadrant,obj_x,obj_y,corr_ans,participant,date,expName,psychopyVersion,OS,frameRate,slider.response,slider.rt,slider_2.response,slider_2.rt,ratings.thisRepN,ratings.thisTrialN,ratings.thisN,ratings.thisIndex,ratings.ran,ratings.order,obj_cat_top,min_resp_top,max_resp_top,obj_cat_bottom,min_resp_bottom,max_resp_bottom,enc_trials.thisRepN,enc_trials.thisTrialN,enc_trials.thisN,enc_trials.thisIndex,enc_trials.ran,enc_trials.order,fillers,ratings_final.thisRepN,ratings_final.thisTrialN,ratings_final.thisN,ratings_final.thisIndex,ratings_final.ran,ratings_final.order
,,0,1,1,0,1,0,1,0,1,0,240,129,1,239,2,2,2,stim/22.jpeg,HouseObjects,1,stim/objects/HouseObjects/ironingboard2.png,0.7,3,-0.2,-0.15,left,77,2020-12-10_17h05.37.922,premup-three_ses-02_part-02_label-phase2,3.2.4,Win32,60,,,,,,,,,,,,,,,,,,,,,,,,,,,,,
,,0,2,1,0,1,0,1,0,1,0,240,43,1,239,1,6,4,stim/64.jpeg,HouseObjects,1,stim/objects/HouseObjects/pitcher.png,0.5,3,-0.2,-0.15,left,77,2020-12-10_17h05.37.922,premup-three_ses-02_part-02_label-phase2,3.2.4,Win32,60,,,,,,,,,,,,,,,,,,,,,,,,,,,,,
left,0.686000109,1,3,1,0,1,0,1,0,1,0,240,226,1,239,3,4,3,stim/43.jpeg,HouseObjects,1,stim/objects/HouseObjects/rubbergloves2.png,0.9,2,0.2,0.15,left,77,2020-12-10_17h05.37.922,premup-three_ses-02_part-02_label-phase2,3.2.4,Win32,60,,,,,,,,,,,,,,,,,,,,,,,,,,,,,
left,0.621000051,1,4,1,0,1,0,1,0,1,0,240,225,1,239,3,4,2,stim/42.jpeg,HouseObjects,1,stim/objects/HouseObjects/remote2.png,0.9,2,0.2,0.15,left,77,2020-12-10_17h05.37.922,premup-three_ses-02_part-02_label-phase2,3.2.4,Win32,60,,,,,,,,,,,,,,,,,,,,,,,,,,,,,
left,0.724000216,1,5,1,0,1,0,1,0,1,0,240,210,1,239,3,4,3,stim/43.jpeg,HouseObjects,1,stim/objects/HouseObjects/rubbergloves2.png,0.9,1,-0.2,0.15,left,77,2020-12-10_17h05.37.922,premup-three_ses-02_part-02_label-phase2,3.2.4,Win32,60,,,,,,,,,,,,,,,,,,,,,,,,,,,,,
right,0.678000212,1,6,1,0,1,0,1,0,1,0,240,74,1,239,1,6,3,stim/63.jpeg,Instruments,2,stim/objects/Instruments/musicstand.png,0.5,1,-0.2,0.15,right,77,2020-12-10_17h05.37.922,premup-three_ses-02_part-02_label-phase2,3.2.4,Win32,60,,,,,,,,,,,,,,,,,,,,,,,,,,,,,
right,0.732000351,1,7,1,0,1,0,1,0,1,0,240,104,1,239,2,1,1,stim/11.jpeg,Instruments,2,stim/objects/Instruments/panflute.png,0.7,3,-0.2,-0.15,right,77,2020-12-10_17h05.37.922,premup-three_ses-02_part-02_label-phase2,3.2.4,Win32,60,,,,,,,,,,,,,,,,,,,,,,,,,,,,,
left,0.703000307,1,8,1,0,1,0,1,0,1,0,240,144,1,239,2,2,1,stim/21.jpeg,HouseObjects,1,stim/objects/HouseObjects/iron2.png,0.7,2,0.2,0.15,left,77,2020-12-10_17h05.37.922,premup-three_ses-02_part-02_label-phase2,3.2.4,Win32,60,,,,,,,,,,,,,,,,,,,,,,,,,,,,,
left,0.728000164,0,9,1,0,1,0,1,0,1,0,240,39,1,239,1,5,4,stim/54.jpeg,Instruments,2,stim/objects/Instruments/marimba.png,0.5,3,-0.2,-0.15,right,77,2020-12-10_17h05.37.922,premup-three_ses-02_part-02_label-phase2,3.2.4,Win32,60,,,,,,,,,,,,,,,,,,,,,,,,,,,,,
,,0,10,1,0,1,0,1,0,1,0,240,96,1,239,2,1,1,stim/11.jpeg,Instruments,2,stim/objects/Instruments/panflute.png,0.7,2,0.2,0.15,right,77,2020-12-10_17h05.37.922,premup-three_ses-02_part-02_label-phase2,3.2.4,Win32,60,,,,,,,,,,,,,,,,,,,,,,,,,,,,,
right,0.668000221,1,11,1,0,1,0,1,0,1,0,240,170,1,239,3,3,3,stim/33.jpeg,Instruments,2,stim/objects/Instruments/musicstand2.png,0.9,1,-0.2,0.15,right,77,2020-12-10_17h05.37.922,premup-three_ses-02_part-02_label-phase2,3.2.4,Win32,60,,,,,,,,,,,,,,,,,,,,,,,,,,,,,
right,0.563000202,1,12,1,0,1,0,1,0,1,0,240,166,1,239,3,3,3,stim/33.jpeg,Instruments,2,stim/objects/Instruments/musicstand2.png,0.9,2,0.2,0.15,right,77,2020-12-10_17h05.37.922,premup-three_ses-02_part-02_label-phase2,3.2.4,Win32,60,,,,,,,,,,,,,,,,,,,,,,,,,,,,,
left,0.677000284,0,13,1,0,1,0,1,0,1,0,240,103,1,239,2,1,4,stim/14.jpeg,Instruments,2,stim/objects/Instruments/record_player.png,0.7,3,-0.2,-0.15,right,77,2020-12-10_17h05.37.922,premup-three_ses-02_part-02_label-phase2,3.2.4,Win32,60,,,,,,,,,,,,,,,,,,,,,,,,,,,,,
left,0.723000288,1,14,1,0,1,0,1,0,1,0,240,201,1,239,3,4,2,stim/42.jpeg,HouseObjects,1,stim/objects/HouseObjects/remote2.png,0.9,1,-0.2,0.15,left,77,2020-12-10_17h05.37.922,premup-three_ses-02_part-02_label-phase2,3.2.4,Win32,60,,,,,,,,,,,,,,,,,,,,,,,,,,,,,
right,0.676000357,1,15,1,0,1,0,1,0,1,0,240,112,1,239,2,1,1,stim/11.jpeg,Instruments,2,stim/objects/Instruments/panflute.png,0.7,2,0.2,0.15,right,77,2020-12-10_17h05.37.922,premup-three_ses-02_part-02_label-phase2,3.2.4,Win32,60,,,,,,,,,,,,,,,,,,,,,,,,,,,,,
left,0.603000164,1,16,1,0,1,0,1,0,1,0,240,124,1,239,2,2,1,stim/21.jpeg,HouseObjects,1,stim/objects/HouseObjects/iron2.png,0.7,1,-0.2,0.15,left,77,2020-12-10_17h05.37.922,premup-three_ses-02_part-02_label-phase2,3.2.4,Win32,60,,,,,,,,,,,,,,,,,,,,,,,,,,,,,
right,0.690000057,1,17,1,0,1,0,1,0,1,0,240,179,1,239,3,3,4,stim/34.jpeg,Instruments,2,stim/objects/Instruments/oboe2.png,0.9,4,0.2,-0.15,right,77,2020-12-10_17h05.37.922,premup-three_ses-02_part-02_label-phase2,3.2.4,Win32,60,,,,,,,,,,,,,,,,,,,,,,,,,,,,,
left,0.588000298,1,18,1,0,1,0,1,0,1,0,240,120,1,239,2,2,1,stim/21.jpeg,HouseObjects,1,stim/objects/HouseObjects/iron2.png,0.7,1,-0.2,0.15,left,77,2020-12-10_17h05.37.922,premup-three_ses-02_part-02_label-phase2,3.2.4,Win32,60,,,,,,,,,,,,,,,,,,,,,,,,,,,,,
left,0.815000057,0,19,1,0,1,0,1,0,1,0,240,171,1,239,3,3,4,stim/34.jpeg,Instruments,2,stim/objects/Instruments/oboe2.png,0.9,2,0.2,0.15,right,77,2020-12-10_17h05.37.922,premup-three_ses-02_part-02_label-phase2,3.2.4,Win32,60,,,,,,,,,,,,,,,,,,,,,,,,,,,,,
,,0,20,1,0,1,0,1,0,1,0,240,58,1,239,1,6,3,stim/63.jpeg,HouseObjects,1,stim/objects/HouseObjects/pan.png,0.5,1,-0.2,0.15,left,77,2020-12-10_17h05.37.922,premup-three_ses-02_part-02_label-phase2,3.2.4,Win32,60,,,,,,,,,,,,,,,,,,,,,,,,,,,,,
right,0.795000076,1,21,1,0,1,0,1,0,1,0,240,113,1,239,2,1,2,stim/12.jpeg,Instruments,2,stim/objects/Instruments/pipepiano.png,0.7,1,-0.2,0.15,right,77,2020-12-10_17h05.37.922,premup-three_ses-02_part-02_label-phase2,3.2.4,Win32,60,,,,,,,,,,,,,,,,,,,,,,,,,,,,,
left,0.588000059,0,22,1,0,1,0,1,0,1,0,240,153,1,239,2,2,2,stim/22.jpeg,Instruments,2,stim/objects/Instruments/laud2.png,0.3,3,-0.2,-0.15,right,77,2020-12-10_17h05.37.922,premup-three_ses-02_part-02_label-phase2,3.2.4,Win32,60,,,,,,,,,,,,,,,,,,,,,,,,,,,,,
left,0.571000099,1,23,1,0,1,0,1,0,1,0,240,122,1,239,2,2,3,stim/23.jpeg,HouseObjects,1,stim/objects/HouseObjects/key2.png,0.7,4,0.2,-0.15,left,77,2020-12-10_17h05.37.922,premup-three_ses-02_part-02_label-phase2,3.2.4,Win32,60,,,,,,,,,,,,,,,,,,,,,,,,,,,,,
right,0.607000113,1,24,1,0,1,0,1,0,1,0,240,176,1,239,3,3,1,stim/31.jpeg,Instruments,2,stim/objects/Instruments/metronome2.png,0.9,2,0.2,0.15,right,77,2020-12-10_17h05.37.922,premup-three_ses-02_part-02_label-phase2,3.2.4,Win32,60,,,,,,,,,,,,,,,,,,,,,,,,,,,,,
left,0.590000153,1,25,1,0,1,0,1,0,1,0,240,141,1,239,2,2,2,stim/22.jpeg,HouseObjects,1,stim/objects/HouseObjects/ironingboard2.png,0.7,4,0.2,-0.15,left,77,2020-12-10_17h05.37.922,premup-three_ses-02_part-02_label-phase2,3.2.4,Win32,60,,,,,,,,,,,,,,,,,,,,,,,,,,,,,
right,0.539000034,1,26,1,0,1,0,1,0,1,0,240,98,1,239,2,1,3,stim/13.jpeg,Instruments,2,stim/objects/Instruments/record.png,0.7,2,0.2,0.15,right,77,2020-12-10_17h05.37.922,premup-three_ses-02_part-02_label-phase2,3.2.4,Win32,60,,,,,,,,,,,,,,,,,,,,,,,,,,,,,
right,0.605000257,1,27,1,0,1,0,1,0,1,0,240,70,1,239,1,6,3,stim/63.jpeg,Instruments,2,stim/objects/Instruments/musicstand.png,0.5,3,-0.2,-0.15,right,77,2020-12-10_17h05.37.922,premup-three_ses-02_part-02_label-phase2,3.2.4,Win32,60,,,,,,,,,,,,,,,,,,,,,,,,,,,,,
right,0.596000195,1,28,1,0,1,0,1,0,1,0,240,165,1,239,3,3,2,stim/32.jpeg,Instruments,2,stim/objects/Instruments/musicsheet2.png,0.9,4,0.2,-0.15,right,77,2020-12-10_17h05.37.922,premup-three_ses-02_part-02_label-phase2,3.2.4,Win32,60,,,,,,,,,,,,,,,,,,,,,,,,,,,,,
right,0.555000305,0,29,1,0,1,0,1,0,1,0,240,47,1,239,1,6,4,stim/64.jpeg,HouseObjects,1,stim/objects/HouseObjects/pitcher.png,0.5,3,-0.2,-0.15,left,77,2020-12-10_17h05.37.922,premup-three_ses-02_part-02_label-phase2,3.2.4,Win32,60,,,,,,,,,,,,,,,,,,,,,,,,,,,,,
right,0.815000057,1,30,1,0,1,0,1,0,1,0,240,21,1,239,1,5,2,stim/52.jpeg,Instruments,2,stim/objects/Instruments/laud.png,0.5,2,0.2,0.15,right,77,2020-12-10_17h05.37.922,premup-three_ses-02_part-02_label-phase2,3.2.4,Win32,60,,,,,,,,,,,,,,,,,,,,,,,,,,,,,
right,0.732000113,0,31,1,0,1,0,1,0,1,0,240,81,1,239,2,1,2,stim/12.jpeg,HouseObjects,1,stim/objects/HouseObjects/remote.png,0.3,2,0.2,0.15,left,77,2020-12-10_17h05.37.922,premup-three_ses-02_part-02_label-phase2,3.2.4,Win32,60,,,,,,,,,,,,,,,,,,,,,,,,,,,,,
left,0.787000179,1,32,1,0,1,0,1,0,1,0,240,224,1,239,3,4,1,stim/41.jpeg,HouseObjects,1,stim/objects/HouseObjects/recyclingbin2.png,0.9,1,-0.2,0.15,left,77,2020-12-10_17h05.37.922,premup-three_ses-02_part-02_label-phase2,3.2.4,Win32,60,,,,,,,,,,,,,,,,,,,,,,,,,,,,,
right,0.511000156,1,33,1,0,1,0,1,0,1,0,240,167,1,239,3,3,4,stim/34.jpeg,Instruments,2,stim/objects/Instruments/oboe2.png,0.9,4,0.2,-0.15,right,77,2020-12-10_17h05.37.922,premup-three_ses-02_part-02_label-phase2,3.2.4,Win32,60,,,,,,,,,,,,,,,,,,,,,,,,,,,,,
right,0.675000191,1,34,1,0,1,0,1,0,1,0,240,154,1,239,2,2,3,stim/23.jpeg,Instruments,2,stim/objects/Instruments/maraca2.png,0.3,2,0.2,0.15,right,77,2020-12-10_17h05.37.922,premup-three_ses-02_part-02_label-phase2,3.2.4,Win32,60,,,,,,,,,,,,,,,,,,,,,,,,,,,,,
right,0.637000322,1,35,1,0,1,0,1,0,1,0,240,188,1,239,3,3,1,stim/31.jpeg,Instruments,2,stim/objects/Instruments/metronome2.png,0.9,3,-0.2,-0.15,right,77,2020-12-10_17h05.37.922,premup-three_ses-02_part-02_label-phase2,3.2.4,Win32,60,,,,,,,,,,,,,,,,,,,,,,,,,,,,,
right,0.784000158,1,36,1,0,1,0,1,0,1,0,240,71,1,239,1,6,4,stim/64.jpeg,Instruments,2,stim/objects/Instruments/oboe.png,0.5,1,-0.2,0.15,right,77,2020-12-10_17h05.37.922,premup-three_ses-02_part-02_label-phase2,3.2.4,Win32,60,,,,,,,,,,,,,,,,,,,,,,,,,,,,,
left,0.527000189,0,37,1,0,1,0,1,0,1,0,240,116,1,239,2,1,1,stim/11.jpeg,Instruments,2,stim/objects/Instruments/panflute.png,0.7,3,-0.2,-0.15,right,77,2020-12-10_17h05.37.922,premup-three_ses-02_part-02_label-phase2,3.2.4,Win32,60,,,,,,,,,,,,,,,,,,,,,,,,,,,,,
,,0,38,1,0,1,0,1,0,1,0,240,152,1,239,2,2,1,stim/21.jpeg,Instruments,2,stim/objects/Instruments/keyboard2.png,0.3,4,0.2,-0.15,right,77,2020-12-10_17h05.37.922,premup-three_ses-02_part-02_label-phase2,3.2.4,Win32,60,,,,,,,,,,,,,,,,,,,,,,,,,,,,,
left,0.754000187,1,39,1,0,1,0,1,0,1,0,240,235,1,239,3,4,4,stim/44.jpeg,HouseObjects,1,stim/objects/HouseObjects/rug2.png,0.9,4,0.2,-0.15,left,77,2020-12-10_17h05.37.922,premup-three_ses-02_part-02_label-phase2,3.2.4,Win32,60,,,,,,,,,,,,,,,,,,,,,,,,,,,,,
left,0.618999958,0,40,1,0,1,0,1,0,1,0,240,20,1,239,1,5,1,stim/51.jpeg,Instruments,2,stim/objects/Instruments/keyboard.png,0.5,4,0.2,-0.15,right,77,2020-12-10_17h05.37.922,premup-three_ses-02_part-02_label-phase2,3.2.4,Win32,60,,,,,,,,,,,,,,,,,,,,,,,,,,,,,
right,0.762000084,0,41,1,0,1,0,1,0,1,0,240,86,1,239,2,1,3,stim/13.jpeg,HouseObjects,1,stim/objects/HouseObjects/rubbergloves.png,0.3,4,0.2,-0.15,left,77,2020-12-10_17h05.37.922,premup-three_ses-02_part-02_label-phase2,3.2.4,Win32,60,,,,,,,,,,,,,,,,,,,,,,,,,,,,,
left,0.578999996,1,42,1,0,1,0,1,0,1,0,240,218,1,239,3,4,3,stim/43.jpeg,HouseObjects,1,stim/objects/HouseObjects/rubbergloves2.png,0.9,2,0.2,0.15,left,77,2020-12-10_17h05.37.922,premup-three_ses-02_part-02_label-phase2,3.2.4,Win32,60,,,,,,,,,,,,,,,,,,,,,,,,,,,,,
left,0.520000219,1,43,1,0,1,0,1,0,1,0,240,142,1,239,2,2,3,stim/23.jpeg,HouseObjects,1,stim/objects/HouseObjects/key2.png,0.7,3,-0.2,-0.15,left,77,2020-12-10_17h05.37.922,premup-three_ses-02_part-02_label-phase2,3.2.4,Win32,60,,,,,,,,,,,,,,,,,,,,,,,,,,,,,
right,0.586000204,1,44,1,0,1,0,1,0,1,0,240,192,1,239,3,3,1,stim/31.jpeg,Instruments,2,stim/objects/Instruments/metronome2.png,0.9,3,-0.2,-0.15,right,77,2020-12-10_17h05.37.922,premup-three_ses-02_part-02_label-phase2,3.2.4,Win32,60,,,,,,,,,,,,,,,,,,,,,,,,,,,,,
right,0.685000181,1,45,1,0,1,0,1,0,1,0,240,67,1,239,1,6,4,stim/64.jpeg,Instruments,2,stim/objects/Instruments/oboe.png,0.5,2,0.2,0.15,right,77,2020-12-10_17h05.37.922,premup-three_ses-02_part-02_label-phase2,3.2.4,Win32,60,,,,,,,,,,,,,,,,,,,,,,,,,,,,,
left,0.575000286,0,46,1,0,1,0,1,0,1,0,240,22,1,239,1,5,3,stim/53.jpeg,Instruments,2,stim/objects/Instruments/maraca.png,0.5,3,-0.2,-0.15,right,77,2020-12-10_17h05.37.922,premup-three_ses-02_part-02_label-phase2,3.2.4,Win32,60,,,,,,,,,,,,,,,,,,,,,,,,,,,,,
left,0.641000271,0,47,1,0,1,0,1,0,1,0,240,68,1,239,1,6,1,stim/61.jpeg,Instruments,2,stim/objects/Instruments/metronome.png,0.5,3,-0.2,-0.15,right,77,2020-12-10_17h05.37.922,premup-three_ses-02_part-02_label-phase2,3.2.4,Win32,60,,,,,,,,,,,,,,,,,,,,,,,,,,,,,
left,0.795000076,1,48,1,0,1,0,1,0,1,0,240,127,1,239,2,2,4,stim/24.jpeg,HouseObjects,1,stim/objects/HouseObjects/knife2.png,0.7,4,0.2,-0.15,left,77,2020-12-10_17h05.37.922,premup-three_ses-02_part-02_label-phase2,3.2.4,Win32,60,,,,,,,,,,,,,,,,,,,,,,,,,,,,,
right,0.59100008,1,49,1,0,1,0,1,0,1,0,240,75,1,239,1,6,4,stim/64.jpeg,Instruments,2,stim/objects/Instruments/oboe.png,0.5,3,-0.2,-0.15,right,77,2020-12-10_17h05.37.922,premup-three_ses-02_part-02_label-phase2,3.2.4,Win32,60,,,,,,,,,,,,,,,,,,,,,,,,,,,,,
,,0,50,1,0,1,0,1,0,1,0,240,190,1,239,3,3,3,stim/33.jpeg,Instruments,2,stim/objects/Instruments/musicstand2.png,0.9,2,0.2,0.15,right,77,2020-12-10_17h05.37.922,premup-three_ses-02_part-02_label-phase2,3.2.4,Win32,60,,,,,,,,,,,,,,,,,,,,,,,,,,,,,
,,0,51,1,0,1,0,1,0,1,0,240,45,1,239,1,6,2,stim/62.jpeg,HouseObjects,1,stim/objects/HouseObjects/match.png,0.5,4,0.2,-0.15,left,77,2020-12-10_17h05.37.922,premup-three_ses-02_part-02_label-phase2,3.2.4,Win32,60,,,,,,,,,,,,,,,,,,,,,,,,,,,,,
left,0.534000158,0,52,1,0,1,0,1,0,1,0,240,150,1,239,2,2,3,stim/23.jpeg,Instruments,2,stim/objects/Instruments/maraca2.png,0.3,1,-0.2,0.15,right,77,2020-12-10_17h05.37.922,premup-three_ses-02_part-02_label-phase2,3.2.4,Win32,60,,,,,,,,,,,,,,,,,,,,,,,,,,,,,
right,0.628000021,1,53,1,0,1,0,1,0,1,0,240,182,1,239,3,3,3,stim/33.jpeg,Instruments,2,stim/objects/Instruments/musicstand2.png,0.9,2,0.2,0.15,right,77,2020-12-10_17h05.37.922,premup-three_ses-02_part-02_label-phase2,3.2.4,Win32,60,,,,,,,,,,,,,,,,,,,,,,,,,,,,,
right,0.760000229,1,54,1,0,1,0,1,0,1,0,240,114,1,239,2,1,3,stim/13.jpeg,Instruments,2,stim/objects/Instruments/record.png,0.7,4,0.2,-0.15,right,77,2020-12-10_17h05.37.922,premup-three_ses-02_part-02_label-phase2,3.2.4,Win32,60,,,,,,,,,,,,,,,,,,,,,,,,,,,,,
left,0.734000206,1,55,1,0,1,0,1,0,1,0,240,3,1,239,1,5,4,stim/54.jpeg,HouseObjects,1,stim/objects/HouseObjects/knife.png,0.5,4,0.2,-0.15,left,77,2020-12-10_17h05.37.922,premup-three_ses-02_part-02_label-phase2,3.2.4,Win32,60,,,,,,,,,,,,,,,,,,,,,,,,,,,,,
right,0.735000134,1,56,1,0,1,0,1,0,1,0,240,23,1,239,1,5,4,stim/54.jpeg,Instruments,2,stim/objects/Instruments/marimba.png,0.5,2,0.2,0.15,right,77,2020-12-10_17h05.37.922,premup-three_ses-02_part-02_label-phase2,3.2.4,Win32,60,,,,,,,,,,,,,,,,,,,,,,,,,,,,,
left,0.666000128,1,57,1,0,1,0,1,0,1,0,240,15,1,239,1,5,4,stim/54.jpeg,HouseObjects,1,stim/objects/HouseObjects/knife.png,0.5,3,-0.2,-0.15,left,77,2020-12-10_17h05.37.922,premup-three_ses-02_part-02_label-phase2,3.2.4,Win32,60,,,,,,,,,,,,,,,,,,,,,,,,,,,,,
,,0,58,1,0,1,0,1,0,1,0,240,14,1,239,1,5,3,stim/53.jpeg,HouseObjects,1,stim/objects/HouseObjects/key.png,0.5,2,0.2,0.15,left,77,2020-12-10_17h05.37.922,premup-three_ses-02_part-02_label-phase2,3.2.4,Win32,60,,,,,,,,,,,,,,,,,,,,,,,,,,,,,
right,0.599000216,1,59,1,0,1,0,1,0,1,0,240,97,1,239,2,1,2,stim/12.jpeg,Instruments,2,stim/objects/Instruments/pipepiano.png,0.7,3,-0.2,-0.15,right,77,2020-12-10_17h05.37.922,premup-three_ses-02_part-02_label-phase2,3.2.4,Win32,60,,,,,,,,,,,,,,,,,,,,,,,,,,,,,
right,0.65500021,1,60,1,0,1,0,1,0,1,0,240,175,1,239,3,3,4,stim/34.jpeg,Instruments,2,stim/objects/Instruments/oboe2.png,0.9,2,0.2,0.15,right,77,2020-12-10_17h05.37.922,premup-three_ses-02_part-02_label-phase2,3.2.4,Win32,60,,,,,,,,,,,,,,,,,,,,,,,,,,,,,
left,0.690000296,0,61,1,0,1,0,1,0,1,0,240,159,1,239,2,2,4,stim/24.jpeg,Instruments,2,stim/objects/Instruments/marimba2.png,0.3,2,0.2,0.15,right,77,2020-12-10_17h05.37.922,premup-three_ses-02_part-02_label-phase2,3.2.4,Win32,60,,,,,,,,,,,,,,,,,,,,,,,,,,,,,
right,0.607000113,1,62,1,0,1,0,1,0,1,0,240,102,1,239,2,1,3,stim/13.jpeg,Instruments,2,stim/objects/Instruments/record.png,0.7,1,-0.2,0.15,right,77,2020-12-10_17h05.37.922,premup-three_ses-02_part-02_label-phase2,3.2.4,Win32,60,,,,,,,,,,,,,,,,,,,,,,,,,,,,,
right,0.647000074,0,63,1,0,1,0,1,0,1,0,240,85,1,239,2,1,2,stim/12.jpeg,HouseObjects,1,stim/objects/HouseObjects/remote.png,0.3,2,0.2,0.15,left,77,2020-12-10_17h05.37.922,premup-three_ses-02_part-02_label-phase2,3.2.4,Win32,60,,,,,,,,,,,,,,,,,,,,,,,,,,,,,
right,0.679000139,1,64,1,0,1,0,1,0,1,0,240,69,1,239,1,6,2,stim/62.jpeg,Instruments,2,stim/objects/Instruments/musicsheet.png,0.5,1,-0.2,0.15,right,77,2020-12-10_17h05.37.922,premup-three_ses-02_part-02_label-phase2,3.2.4,Win32,60,,,,,,,,,,,,,,,,,,,,,,,,,,,,,
left,0.677000046,1,65,1,0,1,0,1,0,1,0,240,84,1,239,2,1,1,stim/11.jpeg,HouseObjects,1,stim/objects/HouseObjects/recyclingbin.png,0.3,4,0.2,-0.15,left,77,2020-12-10_17h05.37.922,premup-three_ses-02_part-02_label-phase2,3.2.4,Win32,60,,,,,,,,,,,,,,,,,,,,,,,,,,,,,
left,0.656000137,1,66,1,0,1,0,1,0,1,0,240,223,1,239,3,4,4,stim/44.jpeg,HouseObjects,1,stim/objects/HouseObjects/rug2.png,0.9,4,0.2,-0.15,left,77,2020-12-10_17h05.37.922,premup-three_ses-02_part-02_label-phase2,3.2.4,Win32,60,,,,,,,,,,,,,,,,,,,,,,,,,,,,,
right,0.799999952,1,67,1,0,1,0,1,0,1,0,240,168,1,239,3,3,1,stim/31.jpeg,Instruments,2,stim/objects/Instruments/metronome2.png,0.9,4,0.2,-0.15,right,77,2020-12-10_17h05.37.922,premup-three_ses-02_part-02_label-phase2,3.2.4,Win32,60,,,,,,,,,,,,,,,,,,,,,,,,,,,,,
right,0.607000113,1,68,1,0,1,0,1,0,1,0,240,195,1,239,3,3,4,stim/34.jpeg,Instruments,2,stim/objects/Instruments/oboe2.png,0.9,3,-0.2,-0.15,right,77,2020-12-10_17h05.37.922,premup-three_ses-02_part-02_label-phase2,3.2.4,Win32,60,,,,,,,,,,,,,,,,,,,,,,,,,,,,,
left,0.579000235,1,69,1,0,1,0,1,0,1,0,240,131,1,239,2,2,4,stim/24.jpeg,HouseObjects,1,stim/objects/HouseObjects/knife2.png,0.7,2,0.2,0.15,left,77,2020-12-10_17h05.37.922,premup-three_ses-02_part-02_label-phase2,3.2.4,Win32,60,,,,,,,,,,,,,,,,,,,,,,,,,,,,,
left,0.854000092,1,70,1,0,1,0,1,0,1,0,240,17,1,239,1,5,2,stim/52.jpeg,HouseObjects,1,stim/objects/HouseObjects/ironingboard.png,0.5,2,0.2,0.15,left,77,2020-12-10_17h05.37.922,premup-three_ses-02_part-02_label-phase2,3.2.4,Win32,60,,,,,,,,,,,,,,,,,,,,,,,,,,,,,
right,0.693000317,0,71,1,0,1,0,1,0,1,0,240,42,1,239,1,6,3,stim/63.jpeg,HouseObjects,1,stim/objects/HouseObjects/pan.png,0.5,1,-0.2,0.15,left,77,2020-12-10_17h05.37.922,premup-three_ses-02_part-02_label-phase2,3.2.4,Win32,60,,,,,,,,,,,,,,,,,,,,,,,,,,,,,
,,0,72,1,0,1,0,1,0,1,0,240,32,1,239,1,5,1,stim/51.jpeg,Instruments,2,stim/objects/Instruments/keyboard.png,0.5,1,-0.2,0.15,right,77,2020-12-10_17h05.37.922,premup-three_ses-02_part-02_label-phase2,3.2.4,Win32,60,,,,,,,,,,,,,,,,,,,,,,,,,,,,,
right,0.644000292,1,73,1,0,1,0,1,0,1,0,240,164,1,239,3,3,1,stim/31.jpeg,Instruments,2,stim/objects/Instruments/metronome2.png,0.9,1,-0.2,0.15,right,77,2020-12-10_17h05.37.922,premup-three_ses-02_part-02_label-phase2,3.2.4,Win32,60,,,,,,,,,,,,,,,,,,,,,,,,,,,,,
right,0.674000263,0,74,1,0,1,0,1,0,1,0,240,80,1,239,2,1,1,stim/11.jpeg,HouseObjects,1,stim/objects/HouseObjects/recyclingbin.png,0.3,1,-0.2,0.15,left,77,2020-12-10_17h05.37.922,premup-three_ses-02_part-02_label-phase2,3.2.4,Win32,60,,,,,,,,,,,,,,,,,,,,,,,,,,,,,
right,0.653000116,1,75,1,0,1,0,1,0,1,0,240,194,1,239,3,3,3,stim/33.jpeg,Instruments,2,stim/objects/Instruments/musicstand2.png,0.9,1,-0.2,0.15,right,77,2020-12-10_17h05.37.922,premup-three_ses-02_part-02_label-phase2,3.2.4,Win32,60,,,,,,,,,,,,,,,,,,,,,,,,,,,,,
left,0.609000206,0,76,1,0,1,0,1,0,1,0,240,156,1,239,2,2,1,stim/21.jpeg,Instruments,2,stim/objects/Instruments/keyboard2.png,0.3,4,0.2,-0.15,right,77,2020-12-10_17h05.37.922,premup-three_ses-02_part-02_label-phase2,3.2.4,Win32,60,,,,,,,,,,,,,,,,,,,,,,,,,,,,,
right,0.520000219,0,77,1,0,1,0,1,0,1,0,240,202,1,239,3,4,3,stim/43.jpeg,HouseObjects,1,stim/objects/HouseObjects/rubbergloves2.png,0.9,4,0.2,-0.15,left,77,2020-12-10_17h05.37.922,premup-three_ses-02_part-02_label-phase2,3.2.4,Win32,60,,,,,,,,,,,,,,,,,,,,,,,,,,,,,
,,0,78,1,0,1,0,1,0,1,0,240,16,1,239,1,5,1,stim/51.jpeg,HouseObjects,1,stim/objects/HouseObjects/iron.png,0.5,1,-0.2,0.15,left,77,2020-12-10_17h05.37.922,premup-three_ses-02_part-02_label-phase2,3.2.4,Win32,60,,,,,,,,,,,,,,,,,,,,,,,,,,,,,
right,0.562000036,0,79,1,0,1,0,1,0,1,0,240,51,1,239,1,6,4,stim/64.jpeg,HouseObjects,1,stim/objects/HouseObjects/pitcher.png,0.5,4,0.2,-0.15,left,77,2020-12-10_17h05.37.922,premup-three_ses-02_part-02_label-phase2,3.2.4,Win32,60,,,,,,,,,,,,,,,,,,,,,,,,,,,,,
right,0.676000118,1,80,1,0,1,0,1,0,1,0,240,78,1,239,1,6,3,stim/63.jpeg,Instruments,2,stim/objects/Instruments/musicstand.png,0.5,2,0.2,0.15,right,77,2020-12-10_17h05.37.922,premup-three_ses-02_part-02_label-phase2,3.2.4,Win32,60,,,,,,,,,,,,,,,,,,,,,,,,,,,,,
,,0,81,1,0,1,0,1,0,1,0,240,90,1,239,2,1,3,stim/13.jpeg,HouseObjects,1,stim/objects/HouseObjects/rubbergloves.png,0.3,1,-0.2,0.15,left,77,2020-12-10_17h05.37.922,premup-three_ses-02_part-02_label-phase2,3.2.4,Win32,60,,,,,,,,,,,,,,,,,,,,,,,,,,,,,
left,0.82400012,0,82,1,0,1,0,1,0,1,0,240,115,1,239,2,1,4,stim/14.jpeg,Instruments,2,stim/objects/Instruments/record_player.png,0.7,4,0.2,-0.15,right,77,2020-12-10_17h05.37.922,premup-three_ses-02_part-02_label-phase2,3.2.4,Win32,60,,,,,,,,,,,,,,,,,,,,,,,,,,,,,
left,0.561000109,1,83,1,0,1,0,1,0,1,0,240,205,1,239,3,4,2,stim/42.jpeg,HouseObjects,1,stim/objects/HouseObjects/remote2.png,0.9,3,-0.2,-0.15,left,77,2020-12-10_17h05.37.922,premup-three_ses-02_part-02_label-phase2,3.2.4,Win32,60,,,,,,,,,,,,,,,,,,,,,,,,,,,,,
left,0.516000032,0,84,1,0,1,0,1,0,1,0,240,238,1,239,3,4,3,stim/43.jpeg,Instruments,2,stim/objects/Instruments/record2.png,0.1,3,-0.2,-0.15,right,77,2020-12-10_17h05.37.922,premup-three_ses-02_part-02_label-phase2,3.2.4,Win32,60,,,,,,,,,,,,,,,,,,,,,,,,,,,,,
,,0,85,1,0,1,0,1,0,1,0,240,1,1,239,1,5,2,stim/52.jpeg,HouseObjects,1,stim/objects/HouseObjects/ironingboard.png,0.5,2,0.2,0.15,left,77,2020-12-10_17h05.37.922,premup-three_ses-02_part-02_label-phase2,3.2.4,Win32,60,,,,,,,,,,,,,,,,,,,,,,,,,,,,,
right,0.613000154,1,86,1,0,1,0,1,0,1,0,240,119,1,239,2,1,4,stim/14.jpeg,Instruments,2,stim/objects/Instruments/record_player.png,0.7,4,0.2,-0.15,right,77,2020-12-10_17h05.37.922,premup-three_ses-02_part-02_label-phase2,3.2.4,Win32,60,,,,,,,,,,,,,,,,,,,,,,,,,,,,,
left,0.671000242,1,87,1,0,1,0,1,0,1,0,240,126,1,239,2,2,3,stim/23.jpeg,HouseObjects,1,stim/objects/HouseObjects/key2.png,0.7,1,-0.2,0.15,left,77,2020-12-10_17h05.37.922,premup-three_ses-02_part-02_label-phase2,3.2.4,Win32,60,,,,,,,,,,,,,,,,,,,,,,,,,,,,,
right,0.564000368,0,88,1,0,1,0,1,0,1,0,240,49,1,239,1,6,2,stim/62.jpeg,HouseObjects,1,stim/objects/HouseObjects/match.png,0.5,1,-0.2,0.15,left,77,2020-12-10_17h05.37.922,premup-three_ses-02_part-02_label-phase2,3.2.4,Win32,60,,,,,,,,,,,,,,,,,,,,,,,,,,,,,
right,0.54700017,1,89,1,0,1,0,1,0,1,0,240,177,1,239,3,3,2,stim/32.jpeg,Instruments,2,stim/objects/Instruments/musicsheet2.png,0.9,4,0.2,-0.15,right,77,2020-12-10_17h05.37.922,premup-three_ses-02_part-02_label-phase2,3.2.4,Win32,60,,,,,,,,,,,,,,,,,,,,,,,,,,,,,
right,0.455000162,1,90,1,0,1,0,1,0,1,0,240,106,1,239,2,1,3,stim/13.jpeg,Instruments,2,stim/objects/Instruments/record.png,0.7,4,0.2,-0.15,right,77,2020-12-10_17h05.37.922,premup-three_ses-02_part-02_label-phase2,3.2.4,Win32,60,,,,,,,,,,,,,,,,,,,,,,,,,,,,,
left,0.455000162,1,91,1,0,1,0,1,0,1,0,240,0,1,239,1,5,1,stim/51.jpeg,HouseObjects,1,stim/objects/HouseObjects/iron.png,0.5,3,-0.2,-0.15,left,77,2020-12-10_17h05.37.922,premup-three_ses-02_part-02_label-phase2,3.2.4,Win32,60,,,,,,,,,,,,,,,,,,,,,,,,,,,,,
left,0.407000065,1,92,1,0,1,0,1,0,1,0,240,5,1,239,1,5,2,stim/52.jpeg,HouseObjects,1,stim/objects/HouseObjects/ironingboard.png,0.5,3,-0.2,-0.15,left,77,2020-12-10_17h05.37.922,premup-three_ses-02_part-02_label-phase2,3.2.4,Win32,60,,,,,,,,,,,,,,,,,,,,,,,,,,,,,
right,0.692000151,0,93,1,0,1,0,1,0,1,0,240,88,1,239,2,1,1,stim/11.jpeg,HouseObjects,1,stim/objects/HouseObjects/recyclingbin.png,0.3,2,0.2,0.15,left,77,2020-12-10_17h05.37.922,premup-three_ses-02_part-02_label-phase2,3.2.4,Win32,60,,,,,,,,,,,,,,,,,,,,,,,,,,,,,
right,0.522000313,0,94,1,0,1,0,1,0,1,0,240,18,1,239,1,5,3,stim/53.jpeg,HouseObjects,1,stim/objects/HouseObjects/key.png,0.5,4,0.2,-0.15,left,77,2020-12-10_17h05.37.922,premup-three_ses-02_part-02_label-phase2,3.2.4,Win32,60,,,,,,,,,,,,,,,,,,,,,,,,,,,,,
,,0,95,1,0,1,0,1,0,1,0,240,101,1,239,2,1,2,stim/12.jpeg,Instruments,2,stim/objects/Instruments/pipepiano.png,0.7,3,-0.2,-0.15,right,77,2020-12-10_17h05.37.922,premup-three_ses-02_part-02_label-phase2,3.2.4,Win32,60,,,,,,,,,,,,,,,,,,,,,,,,,,,,,
left,0.549000263,0,96,1,0,1,0,1,0,1,0,240,33,1,239,1,5,2,stim/52.jpeg,Instruments,2,stim/objects/Instruments/laud.png,0.5,4,0.2,-0.15,right,77,2020-12-10_17h05.37.922,premup-three_ses-02_part-02_label-phase2,3.2.4,Win32,60,,,,,,,,,,,,,,,,,,,,,,,,,,,,,
left,0.579000235,1,97,1,0,1,0,1,0,1,0,240,214,1,239,3,4,3,stim/43.jpeg,HouseObjects,1,stim/objects/HouseObjects/rubbergloves2.png,0.9,2,0.2,0.15,left,77,2020-12-10_17h05.37.922,premup-three_ses-02_part-02_label-phase2,3.2.4,Win32,60,,,,,,,,,,,,,,,,,,,,,,,,,,,,,
right,0.671000242,1,98,1,0,1,0,1,0,1,0,240,77,1,239,1,6,2,stim/62.jpeg,Instruments,2,stim/objects/Instruments/musicsheet.png,0.5,2,0.2,0.15,right,77,2020-12-10_17h05.37.922,premup-three_ses-02_part-02_label-phase2,3.2.4,Win32,60,,,,,,,,,,,,,,,,,,,,,,,,,,,,,
left,0.583000183,0,99,1,0,1,0,1,0,1,0,240,95,1,239,2,1,4,stim/14.jpeg,Instruments,2,stim/objects/Instruments/record_player.png,0.7,3,-0.2,-0.15,right,77,2020-12-10_17h05.37.922,premup-three_ses-02_part-02_label-phase2,3.2.4,Win32,60,,,,,,,,,,,,,,,,,,,,,,,,,,,,,
left,0.786000013,0,100,1,0,1,0,1,0,1,0,240,35,1,239,1,5,4,stim/54.jpeg,Instruments,2,stim/objects/Instruments/marimba.png,0.5,4,0.2,-0.15,right,77,2020-12-10_17h05.37.922,premup-three_ses-02_part-02_label-phase2,3.2.4,Win32,60,,,,,,,,,,,,,,,,,,,,,,,,,,,,,
right,0.726000309,1,101,1,0,1,0,1,0,1,0,240,118,1,239,2,1,3,stim/13.jpeg,Instruments,2,stim/objects/Instruments/record.png,0.7,1,-0.2,0.15,right,77,2020-12-10_17h05.37.922,premup-three_ses-02_part-02_label-phase2,3.2.4,Win32,60,,,,,,,,,,,,,,,,,,,,,,,,,,,,,
right,0.567000151,1,102,1,0,1,0,1,0,1,0,240,198,1,239,3,3,3,stim/33.jpeg,Instruments,2,stim/objects/Instruments/musicstand2.png,0.9,2,0.2,0.15,right,77,2020-12-10_17h05.37.922,premup-three_ses-02_part-02_label-phase2,3.2.4,Win32,60,,,,,,,,,,,,,,,,,,,,,,,,,,,,,
right,0.640000105,1,103,1,0,1,0,1,0,1,0,240,117,1,239,2,1,2,stim/12.jpeg,Instruments,2,stim/objects/Instruments/pipepiano.png,0.7,1,-0.2,0.15,right,77,2020-12-10_17h05.37.922,premup-three_ses-02_part-02_label-phase2,3.2.4,Win32,60,,,,,,,,,,,,,,,,,,,,,,,,,,,,,
left,0.744000196,1,104,1,0,1,0,1,0,1,0,240,146,1,239,2,2,3,stim/23.jpeg,HouseObjects,1,stim/objects/HouseObjects/key2.png,0.7,2,0.2,0.15,left,77,2020-12-10_17h05.37.922,premup-three_ses-02_part-02_label-phase2,3.2.4,Win32,60,,,,,,,,,,,,,,,,,,,,,,,,,,,,,
right,0.761000156,1,105,1,0,1,0,1,0,1,0,240,93,1,239,2,1,2,stim/12.jpeg,Instruments,2,stim/objects/Instruments/pipepiano.png,0.7,1,-0.2,0.15,right,77,2020-12-10_17h05.37.922,premup-three_ses-02_part-02_label-phase2,3.2.4,Win32,60,,,,,,,,,,,,,,,,,,,,,,,,,,,,,
left,0.536000252,1,106,1,0,1,0,1,0,1,0,240,140,1,239,2,2,1,stim/21.jpeg,HouseObjects,1,stim/objects/HouseObjects/iron2.png,0.7,3,-0.2,-0.15,left,77,2020-12-10_17h05.37.922,premup-three_ses-02_part-02_label-phase2,3.2.4,Win32,60,,,,,,,,,,,,,,,,,,,,,,,,,,,,,
left,0.558000088,1,107,1,0,1,0,1,0,1,0,240,143,1,239,2,2,4,stim/24.jpeg,HouseObjects,1,stim/objects/HouseObjects/knife2.png,0.7,3,-0.2,-0.15,left,77,2020-12-10_17h05.37.922,premup-three_ses-02_part-02_label-phase2,3.2.4,Win32,60,,,,,,,,,,,,,,,,,,,,,,,,,,,,,
left,0.778000116,0,108,1,0,1,0,1,0,1,0,240,24,1,239,1,5,1,stim/51.jpeg,Instruments,2,stim/objects/Instruments/keyboard.png,0.5,1,-0.2,0.15,right,77,2020-12-10_17h05.37.922,premup-three_ses-02_part-02_label-phase2,3.2.4,Win32,60,,,,,,,,,,,,,,,,,,,,,,,,,,,,,
,,0,109,1,0,1,0,1,0,1,0,240,11,1,239,1,5,4,stim/54.jpeg,HouseObjects,1,stim/objects/HouseObjects/knife.png,0.5,1,-0.2,0.15,left,77,2020-12-10_17h05.37.922,premup-three_ses-02_part-02_label-phase2,3.2.4,Win32,60,,,,,,,,,,,,,,,,,,,,,,,,,,,,,
right,0.546000242,1,110,1,0,1,0,1,0,1,0,240,169,1,239,3,3,2,stim/32.jpeg,Instruments,2,stim/objects/Instruments/musicsheet2.png,0.9,3,-0.2,-0.15,right,77,2020-12-10_17h05.37.922,premup-three_ses-02_part-02_label-phase2,3.2.4,Win32,60,,,,,,,,,,,,,,,,,,,,,,,,,,,,,
left,0.643000126,0,111,1,0,1,0,1,0,1,0,240,187,1,239,3,3,4,stim/34.jpeg,Instruments,2,stim/objects/Instruments/oboe2.png,0.9,2,0.2,0.15,right,77,2020-12-10_17h05.37.922,premup-three_ses-02_part-02_label-phase2,3.2.4,Win32,60,,,,,,,,,,,,,,,,,,,,,,,,,,,,,
,,0,112,1,0,1,0,1,0,1,0,240,89,1,239,2,1,2,stim/12.jpeg,HouseObjects,1,stim/objects/HouseObjects/remote.png,0.3,1,-0.2,0.15,left,77,2020-12-10_17h05.37.922,premup-three_ses-02_part-02_label-phase2,3.2.4,Win32,60,,,,,,,,,,,,,,,,,,,,,,,,,,,,,
left,0.552000046,1,113,1,0,1,0,1,0,1,0,240,163,1,239,3,3,4,stim/34.jpeg,HouseObjects,1,stim/objects/HouseObjects/pitcher2.png,0.1,3,-0.2,-0.15,left,77,2020-12-10_17h05.37.922,premup-three_ses-02_part-02_label-phase2,3.2.4,Win32,60,,,,,,,,,,,,,,,,,,,,,,,,,,,,,
right,0.624000072,0,114,1,0,1,0,1,0,1,0,240,53,1,239,1,6,2,stim/62.jpeg,HouseObjects,1,stim/objects/HouseObjects/match.png,0.5,1,-0.2,0.15,left,77,2020-12-10_17h05.37.922,premup-three_ses-02_part-02_label-phase2,3.2.4,Win32,60,,,,,,,,,,,,,,,,,,,,,,,,,,,,,
right,0.674000263,1,115,1,0,1,0,1,0,1,0,240,65,1,239,1,6,2,stim/62.jpeg,Instruments,2,stim/objects/Instruments/musicsheet.png,0.5,2,0.2,0.15,right,77,2020-12-10_17h05.37.922,premup-three_ses-02_part-02_label-phase2,3.2.4,Win32,60,,,,,,,,,,,,,,,,,,,,,,,,,,,,,
right,0.713000298,1,116,1,0,1,0,1,0,1,0,240,172,1,239,3,3,1,stim/31.jpeg,Instruments,2,stim/objects/Instruments/metronome2.png,0.9,1,-0.2,0.15,right,77,2020-12-10_17h05.37.922,premup-three_ses-02_part-02_label-phase2,3.2.4,Win32,60,,,,,,,,,,,,,,,,,,,,,,,,,,,,,
right,0.536000252,1,117,1,0,1,0,1,0,1,0,240,178,1,239,3,3,3,stim/33.jpeg,Instruments,2,stim/objects/Instruments/musicstand2.png,0.9,4,0.2,-0.15,right,77,2020-12-10_17h05.37.922,premup-three_ses-02_part-02_label-phase2,3.2.4,Win32,60,,,,,,,,,,,,,,,,,,,,,,,,,,,,,
right,0.458000183,0,118,1,0,1,0,1,0,1,0,240,46,1,239,1,6,3,stim/63.jpeg,HouseObjects,1,stim/objects/HouseObjects/pan.png,0.5,4,0.2,-0.15,left,77,2020-12-10_17h05.37.922,premup-three_ses-02_part-02_label-phase2,3.2.4,Win32,60,,,,,,,,,,,,,,,,,,,,,,,,,,,,,
left,0.752000332,1,119,1,0,1,0,1,0,1,0,240,9,1,239,1,5,2,stim/52.jpeg,HouseObjects,1,stim/objects/HouseObjects/ironingboard.png,0.5,2,0.2,0.15,left,77,2020-12-10_17h05.37.922,premup-three_ses-02_part-02_label-phase2,3.2.4,Win32,60,,,,,,,,,,,,,,,,,,,,,,,,,,,,,
right,0.563000202,0,120,1,0,1,0,1,0,1,0,240,161,1,239,3,3,2,stim/32.jpeg,HouseObjects,1,stim/objects/HouseObjects/match2.png,0.1,4,0.2,-0.15,left,77,2020-12-10_17h05.37.922,premup-three_ses-02_part-02_label-phase2,3.2.4,Win32,60,,,,,,,,,,,,,,,,,,,,,,,,,,,,,
right,0.529000282,1,121,1,0,1,0,1,0,1,0,240,185,1,239,3,3,2,stim/32.jpeg,Instruments,2,stim/objects/Instruments/musicsheet2.png,0.9,1,-0.2,0.15,right,77,2020-12-10_17h05.37.922,premup-three_ses-02_part-02_label-phase2,3.2.4,Win32,60,,,,,,,,,,,,,,,,,,,,,,,,,,,,,
left,0.579000235,0,122,1,0,1,0,1,0,1,0,240,31,1,239,1,5,4,stim/54.jpeg,Instruments,2,stim/objects/Instruments/marimba.png,0.5,3,-0.2,-0.15,right,77,2020-12-10_17h05.37.922,premup-three_ses-02_part-02_label-phase2,3.2.4,Win32,60,,,,,,,,,,,,,,,,,,,,,,,,,,,,,
right,0.545000076,1,123,1,0,1,0,1,0,1,0,240,111,1,239,2,1,4,stim/14.jpeg,Instruments,2,stim/objects/Instruments/record_player.png,0.7,3,-0.2,-0.15,right,77,2020-12-10_17h05.37.922,premup-three_ses-02_part-02_label-phase2,3.2.4,Win32,60,,,,,,,,,,,,,,,,,,,,,,,,,,,,,
left,0.809000015,1,124,1,0,1,0,1,0,1,0,240,139,1,239,2,2,4,stim/24.jpeg,HouseObjects,1,stim/objects/HouseObjects/knife2.png,0.7,3,-0.2,-0.15,left,77,2020-12-10_17h05.37.922,premup-three_ses-02_part-02_label-phase2,3.2.4,Win32,60,,,,,,,,,,,,,,,,,,,,,,,,,,,,,
right,0.583000183,1,125,1,0,1,0,1,0,1,0,240,99,1,239,2,1,4,stim/14.jpeg,Instruments,2,stim/objects/Instruments/record_player.png,0.7,1,-0.2,0.15,right,77,2020-12-10_17h05.37.922,premup-three_ses-02_part-02_label-phase2,3.2.4,Win32,60,,,,,,,,,,,,,,,,,,,,,,,,,,,,,
right,0.479000092,1,126,1,0,1,0,1,0,1,0,240,110,1,239,2,1,3,stim/13.jpeg,Instruments,2,stim/objects/Instruments/record.png,0.7,4,0.2,-0.15,right,77,2020-12-10_17h05.37.922,premup-three_ses-02_part-02_label-phase2,3.2.4,Win32,60,,,,,,,,,,,,,,,,,,,,,,,,,,,,,
left,0.620000124,1,127,1,0,1,0,1,0,1,0,240,7,1,239,1,5,4,stim/54.jpeg,HouseObjects,1,stim/objects/HouseObjects/knife.png,0.5,2,0.2,0.15,left,77,2020-12-10_17h05.37.922,premup-three_ses-02_part-02_label-phase2,3.2.4,Win32,60,,,,,,,,,,,,,,,,,,,,,,,,,,,,,
right,0.508000135,1,128,1,0,1,0,1,0,1,0,240,186,1,239,3,3,3,stim/33.jpeg,Instruments,2,stim/objects/Instruments/musicstand2.png,0.9,3,-0.2,-0.15,right,77,2020-12-10_17h05.37.922,premup-three_ses-02_part-02_label-phase2,3.2.4,Win32,60,,,,,,,,,,,,,,,,,,,,,,,,,,,,,
left,0.78000021,1,129,1,0,1,0,1,0,1,0,240,208,1,239,3,4,1,stim/41.jpeg,HouseObjects,1,stim/objects/HouseObjects/recyclingbin2.png,0.9,1,-0.2,0.15,left,77,2020-12-10_17h05.37.922,premup-three_ses-02_part-02_label-phase2,3.2.4,Win32,60,,,,,,,,,,,,,,,,,,,,,,,,,,,,,
left,0.593000174,0,130,1,0,1,0,1,0,1,0,240,155,1,239,2,2,4,stim/24.jpeg,Instruments,2,stim/objects/Instruments/marimba2.png,0.3,2,0.2,0.15,right,77,2020-12-10_17h05.37.922,premup-three_ses-02_part-02_label-phase2,3.2.4,Win32,60,,,,,,,,,,,,,,,,,,,,,,,,,,,,,
left,0.684000254,1,131,1,0,1,0,1,0,1,0,240,204,1,239,3,4,1,stim/41.jpeg,HouseObjects,1,stim/objects/HouseObjects/recyclingbin2.png,0.9,3,-0.2,-0.15,left,77,2020-12-10_17h05.37.922,premup-three_ses-02_part-02_label-phase2,3.2.4,Win32,60,,,,,,,,,,,,,,,,,,,,,,,,,,,,,
left,0.475000143,1,132,1,0,1,0,1,0,1,0,240,133,1,239,2,2,2,stim/22.jpeg,HouseObjects,1,stim/objects/HouseObjects/ironingboard2.png,0.7,1,-0.2,0.15,left,77,2020-12-10_17h05.37.922,premup-three_ses-02_part-02_label-phase2,3.2.4,Win32,60,,,,,,,,,,,,,,,,,,,,,,,,,,,,,
left,0.522000313,1,133,1,0,1,0,1,0,1,0,240,213,1,239,3,4,2,stim/42.jpeg,HouseObjects,1,stim/objects/HouseObjects/remote2.png,0.9,2,0.2,0.15,left,77,2020-12-10_17h05.37.922,premup-three_ses-02_part-02_label-phase2,3.2.4,Win32,60,,,,,,,,,,,,,,,,,,,,,,,,,,,,,
left,0.769000292,0,134,1,0,1,0,1,0,1,0,240,34,1,239,1,5,3,stim/53.jpeg,Instruments,2,stim/objects/Instruments/maraca.png,0.5,2,0.2,0.15,right,77,2020-12-10_17h05.37.922,premup-three_ses-02_part-02_label-phase2,3.2.4,Win32,60,,,,,,,,,,,,,,,,,,,,,,,,,,,,,
left,0.588000059,1,135,1,0,1,0,1,0,1,0,240,145,1,239,2,2,2,stim/22.jpeg,HouseObjects,1,stim/objects/HouseObjects/ironingboard2.png,0.7,3,-0.2,-0.15,left,77,2020-12-10_17h05.37.922,premup-three_ses-02_part-02_label-phase2,3.2.4,Win32,60,,,,,,,,,,,,,,,,,,,,,,,,,,,,,
right,0.638000011,0,136,1,0,1,0,1,0,1,0,240,54,1,239,1,6,3,stim/63.jpeg,HouseObjects,1,stim/objects/HouseObjects/pan.png,0.5,3,-0.2,-0.15,left,77,2020-12-10_17h05.37.922,premup-three_ses-02_part-02_label-phase2,3.2.4,Win32,60,,,,,,,,,,,,,,,,,,,,,,,,,,,,,
right,0.567000151,1,137,1,0,1,0,1,0,1,0,240,189,1,239,3,3,2,stim/32.jpeg,Instruments,2,stim/objects/Instruments/musicsheet2.png,0.9,4,0.2,-0.15,right,77,2020-12-10_17h05.37.922,premup-three_ses-02_part-02_label-phase2,3.2.4,Win32,60,,,,,,,,,,,,,,,,,,,,,,,,,,,,,
left,0.687000275,0,138,1,0,1,0,1,0,1,0,240,239,1,239,3,4,4,stim/44.jpeg,Instruments,2,stim/objects/Instruments/record_player2.png,0.1,3,-0.2,-0.15,right,77,2020-12-10_17h05.37.922,premup-three_ses-02_part-02_label-phase2,3.2.4,Win32,60,,,,,,,,,,,,,,,,,,,,,,,,,,,,,
,,0,139,1,0,1,0,1,0,1,0,240,233,1,239,3,4,2,stim/42.jpeg,HouseObjects,1,stim/objects/HouseObjects/remote2.png,0.9,1,-0.2,0.15,left,77,2020-12-10_17h05.37.922,premup-three_ses-02_part-02_label-phase2,3.2.4,Win32,60,,,,,,,,,,,,,,,,,,,,,,,,,,,,,
right,0.771000147,1,140,1,0,1,0,1,0,1,0,240,183,1,239,3,3,4,stim/34.jpeg,Instruments,2,stim/objects/Instruments/oboe2.png,0.9,1,-0.2,0.15,right,77,2020-12-10_17h05.37.922,premup-three_ses-02_part-02_label-phase2,3.2.4,Win32,60,,,,,,,,,,,,,,,,,,,,,,,,,,,,,
right,0.488000154,0,141,1,0,1,0,1,0,1,0,240,160,1,239,3,3,1,stim/31.jpeg,HouseObjects,1,stim/objects/HouseObjects/lintroller2.png,0.1,4,0.2,-0.15,left,77,2020-12-10_17h05.37.922,premup-three_ses-02_part-02_label-phase2,3.2.4,Win32,60,,,,,,,,,,,,,,,,,,,,,,,,,,,,,
left,0.708000183,0,142,1,0,1,0,1,0,1,0,240,196,1,239,3,3,1,stim/31.jpeg,Instruments,2,stim/objects/Instruments/metronome2.png,0.9,1,-0.2,0.15,right,77,2020-12-10_17h05.37.922,premup-three_ses-02_part-02_label-phase2,3.2.4,Win32,60,,,,,,,,,,,,,,,,,,,,,,,,,,,,,
right,0.791000128,1,143,1,0,1,0,1,0,1,0,240,72,1,239,1,6,1,stim/61.jpeg,Instruments,2,stim/objects/Instruments/metronome.png,0.5,1,-0.2,0.15,right,77,2020-12-10_17h05.37.922,premup-three_ses-02_part-02_label-phase2,3.2.4,Win32,60,,,,,,,,,,,,,,,,,,,,,,,,,,,,,
right,0.451000214,1,144,1,0,1,0,1,0,1,0,240,181,1,239,3,3,2,stim/32.jpeg,Instruments,2,stim/objects/Instruments/musicsheet2.png,0.9,4,0.2,-0.15,right,77,2020-12-10_17h05.37.922,premup-three_ses-02_part-02_label-phase2,3.2.4,Win32,60,,,,,,,,,,,,,,,,,,,,,,,,,,,,,
left,0.718000174,1,145,1,0,1,0,1,0,1,0,240,6,1,239,1,5,3,stim/53.jpeg,HouseObjects,1,stim/objects/HouseObjects/key.png,0.5,4,0.2,-0.15,left,77,2020-12-10_17h05.37.922,premup-three_ses-02_part-02_label-phase2,3.2.4,Win32,60,,,,,,,,,,,,,,,,,,,,,,,,,,,,,
left,0.608999968,1,146,1,0,1,0,1,0,1,0,240,229,1,239,3,4,2,stim/42.jpeg,HouseObjects,1,stim/objects/HouseObjects/remote2.png,0.9,3,-0.2,-0.15,left,77,2020-12-10_17h05.37.922,premup-three_ses-02_part-02_label-phase2,3.2.4,Win32,60,,,,,,,,,,,,,,,,,,,,,,,,,,,,,
right,0.54700017,0,147,1,0,1,0,1,0,1,0,240,83,1,239,2,1,4,stim/14.jpeg,HouseObjects,1,stim/objects/HouseObjects/rug.png,0.3,4,0.2,-0.15,left,77,2020-12-10_17h05.37.922,premup-three_ses-02_part-02_label-phase2,3.2.4,Win32,60,,,,,,,,,,,,,,,,,,,,,,,,,,,,,
right,0.659000158,0,148,1,0,1,0,1,0,1,0,240,132,1,239,2,2,1,stim/21.jpeg,HouseObjects,1,stim/objects/HouseObjects/iron2.png,0.7,1,-0.2,0.15,left,77,2020-12-10_17h05.37.922,premup-three_ses-02_part-02_label-phase2,3.2.4,Win32,60,,,,,,,,,,,,,,,,,,,,,,,,,,,,,
left,0.583000183,1,149,1,0,1,0,1,0,1,0,240,136,1,239,2,2,1,stim/21.jpeg,HouseObjects,1,stim/objects/HouseObjects/iron2.png,0.7,1,-0.2,0.15,left,77,2020-12-10_17h05.37.922,premup-three_ses-02_part-02_label-phase2,3.2.4,Win32,60,,,,,,,,,,,,,,,,,,,,,,,,,,,,,
left,0.619000196,0,150,1,0,1,0,1,0,1,0,240,108,1,239,2,1,1,stim/11.jpeg,Instruments,2,stim/objects/Instruments/panflute.png,0.7,1,-0.2,0.15,right,77,2020-12-10_17h05.37.922,premup-three_ses-02_part-02_label-phase2,3.2.4,Win32,60,,,,,,,,,,,,,,,,,,,,,,,,,,,,,
left,0.619000196,0,151,1,0,1,0,1,0,1,0,240,149,1,239,2,2,2,stim/22.jpeg,Instruments,2,stim/objects/Instruments/laud2.png,0.3,4,0.2,-0.15,right,77,2020-12-10_17h05.37.922,premup-three_ses-02_part-02_label-phase2,3.2.4,Win32,60,,,,,,,,,,,,,,,,,,,,,,,,,,,,,
right,0.563000202,0,152,1,0,1,0,1,0,1,0,240,91,1,239,2,1,4,stim/14.jpeg,HouseObjects,1,stim/objects/HouseObjects/rug.png,0.3,3,-0.2,-0.15,left,77,2020-12-10_17h05.37.922,premup-three_ses-02_part-02_label-phase2,3.2.4,Win32,60,,,,,,,,,,,,,,,,,,,,,,,,,,,,,
left,0.575000048,1,153,1,0,1,0,1,0,1,0,240,209,1,239,3,4,2,stim/42.jpeg,HouseObjects,1,stim/objects/HouseObjects/remote2.png,0.9,1,-0.2,0.15,left,77,2020-12-10_17h05.37.922,premup-three_ses-02_part-02_label-phase2,3.2.4,Win32,60,,,,,,,,,,,,,,,,,,,,,,,,,,,,,
right,0.668000221,0,154,1,0,1,0,1,0,1,0,240,82,1,239,2,1,3,stim/13.jpeg,HouseObjects,1,stim/objects/HouseObjects/rubbergloves.png,0.3,4,0.2,-0.15,left,77,2020-12-10_17h05.37.922,premup-three_ses-02_part-02_label-phase2,3.2.4,Win32,60,,,,,,,,,,,,,,,,,,,,,,,,,,,,,
,,0,155,1,0,1,0,1,0,1,0,240,28,1,239,1,5,1,stim/51.jpeg,Instruments,2,stim/objects/Instruments/keyboard.png,0.5,4,0.2,-0.15,right,77,2020-12-10_17h05.37.922,premup-three_ses-02_part-02_label-phase2,3.2.4,Win32,60,,,,,,,,,,,,,,,,,,,,,,,,,,,,,
right,0.492000341,0,156,1,0,1,0,1,0,1,0,240,19,1,239,1,5,4,stim/54.jpeg,HouseObjects,1,stim/objects/HouseObjects/knife.png,0.5,4,0.2,-0.15,left,77,2020-12-10_17h05.37.922,premup-three_ses-02_part-02_label-phase2,3.2.4,Win32,60,,,,,,,,,,,,,,,,,,,,,,,,,,,,,
left,0.404000044,1,157,1,0,1,0,1,0,1,0,240,203,1,239,3,4,4,stim/44.jpeg,HouseObjects,1,stim/objects/HouseObjects/rug2.png,0.9,2,0.2,0.15,left,77,2020-12-10_17h05.37.922,premup-three_ses-02_part-02_label-phase2,3.2.4,Win32,60,,,,,,,,,,,,,,,,,,,,,,,,,,,,,
left,0.43200016,0,158,1,0,1,0,1,0,1,0,240,184,1,239,3,3,1,stim/31.jpeg,Instruments,2,stim/objects/Instruments/metronome2.png,0.9,3,-0.2,-0.15,right,77,2020-12-10_17h05.37.922,premup-three_ses-02_part-02_label-phase2,3.2.4,Win32,60,,,,,,,,,,,,,,,,,,,,,,,,,,,,,
right,0.550000191,1,159,1,0,1,0,1,0,1,0,240,61,1,239,1,6,2,stim/62.jpeg,Instruments,2,stim/objects/Instruments/musicsheet.png,0.5,4,0.2,-0.15,right,77,2020-12-10_17h05.37.922,premup-three_ses-02_part-02_label-phase2,3.2.4,Win32,60,,,,,,,,,,,,,,,,,,,,,,,,,,,,,
right,0.473000288,1,160,1,0,1,0,1,0,1,0,240,193,1,239,3,3,2,stim/32.jpeg,Instruments,2,stim/objects/Instruments/musicsheet2.png,0.9,3,-0.2,-0.15,right,77,2020-12-10_17h05.37.922,premup-three_ses-02_part-02_label-phase2,3.2.4,Win32,60,,,,,,,,,,,,,,,,,,,,,,,,,,,,,
left,0.458000183,1,161,1,0,1,0,1,0,1,0,240,8,1,239,1,5,1,stim/51.jpeg,HouseObjects,1,stim/objects/HouseObjects/iron.png,0.5,1,-0.2,0.15,left,77,2020-12-10_17h05.37.922,premup-three_ses-02_part-02_label-phase2,3.2.4,Win32,60,,,,,,,,,,,,,,,,,,,,,,,,,,,,,
right,0.414000034,0,162,1,0,1,0,1,0,1,0,240,123,1,239,2,2,4,stim/24.jpeg,HouseObjects,1,stim/objects/HouseObjects/knife2.png,0.7,4,0.2,-0.15,left,77,2020-12-10_17h05.37.922,premup-three_ses-02_part-02_label-phase2,3.2.4,Win32,60,,,,,,,,,,,,,,,,,,,,,,,,,,,,,
right,0.534000158,1,163,1,0,1,0,1,0,1,0,240,157,1,239,2,2,2,stim/22.jpeg,Instruments,2,stim/objects/Instruments/laud2.png,0.3,4,0.2,-0.15,right,77,2020-12-10_17h05.37.922,premup-three_ses-02_part-02_label-phase2,3.2.4,Win32,60,,,,,,,,,,,,,,,,,,,,,,,,,,,,,
right,0.695000172,1,164,1,0,1,0,1,0,1,0,240,105,1,239,2,1,2,stim/12.jpeg,Instruments,2,stim/objects/Instruments/pipepiano.png,0.7,2,0.2,0.15,right,77,2020-12-10_17h05.37.922,premup-three_ses-02_part-02_label-phase2,3.2.4,Win32,60,,,,,,,,,,,,,,,,,,,,,,,,,,,,,
right,0.853000164,1,165,1,0,1,0,1,0,1,0,240,94,1,239,2,1,3,stim/13.jpeg,Instruments,2,stim/objects/Instruments/record.png,0.7,4,0.2,-0.15,right,77,2020-12-10_17h05.37.922,premup-three_ses-02_part-02_label-phase2,3.2.4,Win32,60,,,,,,,,,,,,,,,,,,,,,,,,,,,,,
left,0.641000032,1,166,1,0,1,0,1,0,1,0,240,10,1,239,1,5,3,stim/53.jpeg,HouseObjects,1,stim/objects/HouseObjects/key.png,0.5,3,-0.2,-0.15,left,77,2020-12-10_17h05.37.922,premup-three_ses-02_part-02_label-phase2,3.2.4,Win32,60,,,,,,,,,,,,,,,,,,,,,,,,,,,,,
right,0.75999999,1,167,1,0,1,0,1,0,1,0,240,62,1,239,1,6,3,stim/63.jpeg,Instruments,2,stim/objects/Instruments/musicstand.png,0.5,4,0.2,-0.15,right,77,2020-12-10_17h05.37.922,premup-three_ses-02_part-02_label-phase2,3.2.4,Win32,60,,,,,,,,,,,,,,,,,,,,,,,,,,,,,
right,0.718000174,0,168,1,0,1,0,1,0,1,0,240,41,1,239,1,6,2,stim/62.jpeg,HouseObjects,1,stim/objects/HouseObjects/match.png,0.5,3,-0.2,-0.15,left,77,2020-12-10_17h05.37.922,premup-three_ses-02_part-02_label-phase2,3.2.4,Win32,60,,,,,,,,,,,,,,,,,,,,,,,,,,,,,
left,0.525000334,1,169,1,0,1,0,1,0,1,0,240,212,1,239,3,4,1,stim/41.jpeg,HouseObjects,1,stim/objects/HouseObjects/recyclingbin2.png,0.9,3,-0.2,-0.15,left,77,2020-12-10_17h05.37.922,premup-three_ses-02_part-02_label-phase2,3.2.4,Win32,60,,,,,,,,,,,,,,,,,,,,,,,,,,,,,
left,0.528000355,0,170,1,0,1,0,1,0,1,0,240,148,1,239,2,2,1,stim/21.jpeg,Instruments,2,stim/objects/Instruments/keyboard2.png,0.3,2,0.2,0.15,right,77,2020-12-10_17h05.37.922,premup-three_ses-02_part-02_label-phase2,3.2.4,Win32,60,,,,,,,,,,,,,,,,,,,,,,,,,,,,,
left,0.592000246,1,171,1,0,1,0,1,0,1,0,240,221,1,239,3,4,2,stim/42.jpeg,HouseObjects,1,stim/objects/HouseObjects/remote2.png,0.9,3,-0.2,-0.15,left,77,2020-12-10_17h05.37.922,premup-three_ses-02_part-02_label-phase2,3.2.4,Win32,60,,,,,,,,,,,,,,,,,,,,,,,,,,,,,
left,0.548000336,1,172,1,0,1,0,1,0,1,0,240,138,1,239,2,2,3,stim/23.jpeg,HouseObjects,1,stim/objects/HouseObjects/key2.png,0.7,1,-0.2,0.15,left,77,2020-12-10_17h05.37.922,premup-three_ses-02_part-02_label-phase2,3.2.4,Win32,60,,,,,,,,,,,,,,,,,,,,,,,,,,,,,
right,0.642000198,1,173,1,0,1,0,1,0,1,0,240,197,1,239,3,3,2,stim/32.jpeg,Instruments,2,stim/objects/Instruments/musicsheet2.png,0.9,4,0.2,-0.15,right,77,2020-12-10_17h05.37.922,premup-three_ses-02_part-02_label-phase2,3.2.4,Win32,60,,,,,,,,,,,,,,,,,,,,,,,,,,,,,
right,0.623000145,0,174,1,0,1,0,1,0,1,0,240,2,1,239,1,5,3,stim/53.jpeg,HouseObjects,1,stim/objects/HouseObjects/key.png,0.5,1,-0.2,0.15,left,77,2020-12-10_17h05.37.922,premup-three_ses-02_part-02_label-phase2,3.2.4,Win32,60,,,,,,,,,,,,,,,,,,,,,,,,,,,,,
left,0.688000202,1,175,1,0,1,0,1,0,1,0,240,135,1,239,2,2,4,stim/24.jpeg,HouseObjects,1,stim/objects/HouseObjects/knife2.png,0.7,2,0.2,0.15,left,77,2020-12-10_17h05.37.922,premup-three_ses-02_part-02_label-phase2,3.2.4,Win32,60,,,,,,,,,,,,,,,,,,,,,,,,,,,,,
left,0.589000225,1,176,1,0,1,0,1,0,1,0,240,207,1,239,3,4,4,stim/44.jpeg,HouseObjects,1,stim/objects/HouseObjects/rug2.png,0.9,1,-0.2,0.15,left,77,2020-12-10_17h05.37.922,premup-three_ses-02_part-02_label-phase2,3.2.4,Win32,60,,,,,,,,,,,,,,,,,,,,,,,,,,,,,
left,0.485000134,1,177,1,0,1,0,1,0,1,0,240,234,1,239,3,4,3,stim/43.jpeg,HouseObjects,1,stim/objects/HouseObjects/rubbergloves2.png,0.9,1,-0.2,0.15,left,77,2020-12-10_17h05.37.922,premup-three_ses-02_part-02_label-phase2,3.2.4,Win32,60,,,,,,,,,,,,,,,,,,,,,,,,,,,,,
left,0.700000048,1,178,1,0,1,0,1,0,1,0,240,215,1,239,3,4,4,stim/44.jpeg,HouseObjects,1,stim/objects/HouseObjects/rug2.png,0.9,4,0.2,-0.15,left,77,2020-12-10_17h05.37.922,premup-three_ses-02_part-02_label-phase2,3.2.4,Win32,60,,,,,,,,,,,,,,,,,,,,,,,,,,,,,
left,0.446000099,1,179,1,0,1,0,1,0,1,0,240,227,1,239,3,4,4,stim/44.jpeg,HouseObjects,1,stim/objects/HouseObjects/rug2.png,0.9,2,0.2,0.15,left,77,2020-12-10_17h05.37.922,premup-three_ses-02_part-02_label-phase2,3.2.4,Win32,60,,,,,,,,,,,,,,,,,,,,,,,,,,,,,
right,0.516000032,0,180,1,0,1,0,1,0,1,0,240,162,1,239,3,3,3,stim/33.jpeg,HouseObjects,1,stim/objects/HouseObjects/pan2.png,0.1,4,0.2,-0.15,left,77,2020-12-10_17h05.37.922,premup-three_ses-02_part-02_label-phase2,3.2.4,Win32,60,,,,,,,,,,,,,,,,,,,,,,,,,,,,,
right,0.652000189,0,181,1,0,1,0,1,0,1,0,240,59,1,239,1,6,4,stim/64.jpeg,HouseObjects,1,stim/objects/HouseObjects/pitcher.png,0.5,4,0.2,-0.15,left,77,2020-12-10_17h05.37.922,premup-three_ses-02_part-02_label-phase2,3.2.4,Win32,60,,,,,,,,,,,,,,,,,,,,,,,,,,,,,
right,0.577000141,0,182,1,0,1,0,1,0,1,0,240,55,1,239,1,6,4,stim/64.jpeg,HouseObjects,1,stim/objects/HouseObjects/pitcher.png,0.5,1,-0.2,0.15,left,77,2020-12-10_17h05.37.922,premup-three_ses-02_part-02_label-phase2,3.2.4,Win32,60,,,,,,,,,,,,,,,,,,,,,,,,,,,,,
,,0,183,1,0,1,0,1,0,1,0,240,12,1,239,1,5,1,stim/51.jpeg,HouseObjects,1,stim/objects/HouseObjects/iron.png,0.5,2,0.2,0.15,left,77,2020-12-10_17h05.37.922,premup-three_ses-02_part-02_label-phase2,3.2.4,Win32,60,,,,,,,,,,,,,,,,,,,,,,,,,,,,,
left,0.605000019,1,184,1,0,1,0,1,0,1,0,240,128,1,239,2,2,1,stim/21.jpeg,HouseObjects,1,stim/objects/HouseObjects/iron2.png,0.7,2,0.2,0.15,left,77,2020-12-10_17h05.37.922,premup-three_ses-02_part-02_label-phase2,3.2.4,Win32,60,,,,,,,,,,,,,,,,,,,,,,,,,,,,,
left,0.647000074,1,185,1,0,1,0,1,0,1,0,240,121,1,239,2,2,2,stim/22.jpeg,HouseObjects,1,stim/objects/HouseObjects/ironingboard2.png,0.7,3,-0.2,-0.15,left,77,2020-12-10_17h05.37.922,premup-three_ses-02_part-02_label-phase2,3.2.4,Win32,60,,,,,,,,,,,,,,,,,,,,,,,,,,,,,
left,0.536000252,0,186,1,0,1,0,1,0,1,0,240,151,1,239,2,2,4,stim/24.jpeg,Instruments,2,stim/objects/Instruments/marimba2.png,0.3,3,-0.2,-0.15,right,77,2020-12-10_17h05.37.922,premup-three_ses-02_part-02_label-phase2,3.2.4,Win32,60,,,,,,,,,,,,,,,,,,,,,,,,,,,,,
,,0,187,1,0,1,0,1,0,1,0,240,26,1,239,1,5,3,stim/53.jpeg,Instruments,2,stim/objects/Instruments/maraca.png,0.5,2,0.2,0.15,right,77,2020-12-10_17h05.37.922,premup-three_ses-02_part-02_label-phase2,3.2.4,Win32,60,,,,,,,,,,,,,,,,,,,,,,,,,,,,,
left,0.579000235,1,188,1,0,1,0,1,0,1,0,240,125,1,239,2,2,2,stim/22.jpeg,HouseObjects,1,stim/objects/HouseObjects/ironingboard2.png,0.7,4,0.2,-0.15,left,77,2020-12-10_17h05.37.922,premup-three_ses-02_part-02_label-phase2,3.2.4,Win32,60,,,,,,,,,,,,,,,,,,,,,,,,,,,,,
right,0.573000193,1,189,1,0,1,0,1,0,1,0,240,64,1,239,1,6,1,stim/61.jpeg,Instruments,2,stim/objects/Instruments/metronome.png,0.5,2,0.2,0.15,right,77,2020-12-10_17h05.37.922,premup-three_ses-02_part-02_label-phase2,3.2.4,Win32,60,,,,,,,,,,,,,,,,,,,,,,,,,,,,,
right,0.505000353,0,190,1,0,1,0,1,0,1,0,240,222,1,239,3,4,3,stim/43.jpeg,HouseObjects,1,stim/objects/HouseObjects/rubbergloves2.png,0.9,4,0.2,-0.15,left,77,2020-12-10_17h05.37.922,premup-three_ses-02_part-02_label-phase2,3.2.4,Win32,60,,,,,,,,,,,,,,,,,,,,,,,,,,,,,
left,0.514000177,0,191,1,0,1,0,1,0,1,0,240,27,1,239,1,5,4,stim/54.jpeg,Instruments,2,stim/objects/Instruments/marimba.png,0.5,2,0.2,0.15,right,77,2020-12-10_17h05.37.922,premup-three_ses-02_part-02_label-phase2,3.2.4,Win32,60,,,,,,,,,,,,,,,,,,,,,,,,,,,,,
right,0.542000294,0,192,1,0,1,0,1,0,1,0,240,147,1,239,2,2,4,stim/24.jpeg,HouseObjects,1,stim/objects/HouseObjects/knife2.png,0.7,4,0.2,-0.15,left,77,2020-12-10_17h05.37.922,premup-three_ses-02_part-02_label-phase2,3.2.4,Win32,60,,,,,,,,,,,,,,,,,,,,,,,,,,,,,
left,0.622000217,1,193,1,0,1,0,1,0,1,0,240,217,1,239,3,4,2,stim/42.jpeg,HouseObjects,1,stim/objects/HouseObjects/remote2.png,0.9,4,0.2,-0.15,left,77,2020-12-10_17h05.37.922,premup-three_ses-02_part-02_label-phase2,3.2.4,Win32,60,,,,,,,,,,,,,,,,,,,,,,,,,,,,,
left,0.525000334,1,194,1,0,1,0,1,0,1,0,240,232,1,239,3,4,1,stim/41.jpeg,HouseObjects,1,stim/objects/HouseObjects/recyclingbin2.png,0.9,3,-0.2,-0.15,left,77,2020-12-10_17h05.37.922,premup-three_ses-02_part-02_label-phase2,3.2.4,Win32,60,,,,,,,,,,,,,,,,,,,,,,,,,,,,,
left,0.559000015,1,195,1,0,1,0,1,0,1,0,240,211,1,239,3,4,4,stim/44.jpeg,HouseObjects,1,stim/objects/HouseObjects/rug2.png,0.9,4,0.2,-0.15,left,77,2020-12-10_17h05.37.922,premup-three_ses-02_part-02_label-phase2,3.2.4,Win32,60,,,,,,,,,,,,,,,,,,,,,,,,,,,,,
left,0.46600008,1,196,1,0,1,0,1,0,1,0,240,134,1,239,2,2,3,stim/23.jpeg,HouseObjects,1,stim/objects/HouseObjects/key2.png,0.7,2,0.2,0.15,left,77,2020-12-10_17h05.37.922,premup-three_ses-02_part-02_label-phase2,3.2.4,Win32,60,,,,,,,,,,,,,,,,,,,,,,,,,,,,,
left,0.404000282,0,197,1,0,1,0,1,0,1,0,240,30,1,239,1,5,3,stim/53.jpeg,Instruments,2,stim/objects/Instruments/maraca.png,0.5,3,-0.2,-0.15,right,77,2020-12-10_17h05.37.922,premup-three_ses-02_part-02_label-phase2,3.2.4,Win32,60,,,,,,,,,,,,,,,,,,,,,,,,,,,,,
left,0.610000134,1,198,1,0,1,0,1,0,1,0,240,200,1,239,3,4,1,stim/41.jpeg,HouseObjects,1,stim/objects/HouseObjects/recyclingbin2.png,0.9,1,-0.2,0.15,left,77,2020-12-10_17h05.37.922,premup-three_ses-02_part-02_label-phase2,3.2.4,Win32,60,,,,,,,,,,,,,,,,,,,,,,,,,,,,,
right,0.664000034,0,199,1,0,1,0,1,0,1,0,240,48,1,239,1,6,1,stim/61.jpeg,HouseObjects,1,stim/objects/HouseObjects/lintroller.png,0.5,2,0.2,0.15,left,77,2020-12-10_17h05.37.922,premup-three_ses-02_part-02_label-phase2,3.2.4,Win32,60,,,,,,,,,,,,,,,,,,,,,,,,,,,,,
left,0.452000141,1,200,1,0,1,0,1,0,1,0,240,4,1,239,1,5,1,stim/51.jpeg,HouseObjects,1,stim/objects/HouseObjects/iron.png,0.5,1,-0.2,0.15,left,77,2020-12-10_17h05.37.922,premup-three_ses-02_part-02_label-phase2,3.2.4,Win32,60,,,,,,,,,,,,,,,,,,,,,,,,,,,,,
right,0.549000025,0,201,1,0,1,0,1,0,1,0,240,56,1,239,1,6,1,stim/61.jpeg,HouseObjects,1,stim/objects/HouseObjects/lintroller.png,0.5,1,-0.2,0.15,left,77,2020-12-10_17h05.37.922,premup-three_ses-02_part-02_label-phase2,3.2.4,Win32,60,,,,,,,,,,,,,,,,,,,,,,,,,,,,,
left,0.451000214,0,202,1,0,1,0,1,0,1,0,240,29,1,239,1,5,2,stim/52.jpeg,Instruments,2,stim/objects/Instruments/laud.png,0.5,2,0.2,0.15,right,77,2020-12-10_17h05.37.922,premup-three_ses-02_part-02_label-phase2,3.2.4,Win32,60,,,,,,,,,,,,,,,,,,,,,,,,,,,,,
left,0.519000053,1,203,1,0,1,0,1,0,1,0,240,230,1,239,3,4,3,stim/43.jpeg,HouseObjects,1,stim/objects/HouseObjects/rubbergloves2.png,0.9,3,-0.2,-0.15,left,77,2020-12-10_17h05.37.922,premup-three_ses-02_part-02_label-phase2,3.2.4,Win32,60,,,,,,,,,,,,,,,,,,,,,,,,,,,,,
right,0.507000208,1,204,1,0,1,0,1,0,1,0,240,173,1,239,3,3,2,stim/32.jpeg,Instruments,2,stim/objects/Instruments/musicsheet2.png,0.9,4,0.2,-0.15,right,77,2020-12-10_17h05.37.922,premup-three_ses-02_part-02_label-phase2,3.2.4,Win32,60,,,,,,,,,,,,,,,,,,,,,,,,,,,,,
left,0.450999975,0,205,1,0,1,0,1,0,1,0,240,25,1,239,1,5,2,stim/52.jpeg,Instruments,2,stim/objects/Instruments/laud.png,0.5,3,-0.2,-0.15,right,77,2020-12-10_17h05.37.922,premup-three_ses-02_part-02_label-phase2,3.2.4,Win32,60,,,,,,,,,,,,,,,,,,,,,,,,,,,,,
right,0.726999998,1,206,1,0,1,0,1,0,1,0,240,92,1,239,2,1,1,stim/11.jpeg,Instruments,2,stim/objects/Instruments/panflute.png,0.7,1,-0.2,0.15,right,77,2020-12-10_17h05.37.922,premup-three_ses-02_part-02_label-phase2,3.2.4,Win32,60,,,,,,,,,,,,,,,,,,,,,,,,,,,,,
left,0.737000227,1,207,1,0,1,0,1,0,1,0,240,13,1,239,1,5,2,stim/52.jpeg,HouseObjects,1,stim/objects/HouseObjects/ironingboard.png,0.5,1,-0.2,0.15,left,77,2020-12-10_17h05.37.922,premup-three_ses-02_part-02_label-phase2,3.2.4,Win32,60,,,,,,,,,,,,,,,,,,,,,,,,,,,,,
right,0.636000156,0,208,1,0,1,0,1,0,1,0,240,50,1,239,1,6,3,stim/63.jpeg,HouseObjects,1,stim/objects/HouseObjects/pan.png,0.5,4,0.2,-0.15,left,77,2020-12-10_17h05.37.922,premup-three_ses-02_part-02_label-phase2,3.2.4,Win32,60,,,,,,,,,,,,,,,,,,,,,,,,,,,,,
right,0.608000278,1,209,1,0,1,0,1,0,1,0,240,60,1,239,1,6,1,stim/61.jpeg,Instruments,2,stim/objects/Instruments/metronome.png,0.5,2,0.2,0.15,right,77,2020-12-10_17h05.37.922,premup-three_ses-02_part-02_label-phase2,3.2.4,Win32,60,,,,,,,,,,,,,,,,,,,,,,,,,,,,,
right,0.590000391,1,210,1,0,1,0,1,0,1,0,240,180,1,239,3,3,1,stim/31.jpeg,Instruments,2,stim/objects/Instruments/metronome2.png,0.9,2,0.2,0.15,right,77,2020-12-10_17h05.37.922,premup-three_ses-02_part-02_label-phase2,3.2.4,Win32,60,,,,,,,,,,,,,,,,,,,,,,,,,,,,,
left,0.556000233,1,211,1,0,1,0,1,0,1,0,240,87,1,239,2,1,4,stim/14.jpeg,HouseObjects,1,stim/objects/HouseObjects/rug.png,0.3,2,0.2,0.15,left,77,2020-12-10_17h05.37.922,premup-three_ses-02_part-02_label-phase2,3.2.4,Win32,60,,,,,,,,,,,,,,,,,,,,,,,,,,,,,
left,0.644999981,1,212,1,0,1,0,1,0,1,0,240,219,1,239,3,4,4,stim/44.jpeg,HouseObjects,1,stim/objects/HouseObjects/rug2.png,0.9,2,0.2,0.15,left,77,2020-12-10_17h05.37.922,premup-three_ses-02_part-02_label-phase2,3.2.4,Win32,60,,,,,,,,,,,,,,,,,,,,,,,,,,,,,
left,0.494000196,1,213,1,0,1,0,1,0,1,0,240,220,1,239,3,4,1,stim/41.jpeg,HouseObjects,1,stim/objects/HouseObjects/recyclingbin2.png,0.9,1,-0.2,0.15,left,77,2020-12-10_17h05.37.922,premup-three_ses-02_part-02_label-phase2,3.2.4,Win32,60,,,,,,,,,,,,,,,,,,,,,,,,,,,,,
left,0.486999989,0,214,1,0,1,0,1,0,1,0,240,79,1,239,1,6,4,stim/64.jpeg,Instruments,2,stim/objects/Instruments/oboe.png,0.5,3,-0.2,-0.15,right,77,2020-12-10_17h05.37.922,premup-three_ses-02_part-02_label-phase2,3.2.4,Win32,60,,,,,,,,,,,,,,,,,,,,,,,,,,,,,
right,0.724000216,1,215,1,0,1,0,1,0,1,0,240,66,1,239,1,6,3,stim/63.jpeg,Instruments,2,stim/objects/Instruments/musicstand.png,0.5,1,-0.2,0.15,right,77,2020-12-10_17h05.37.922,premup-three_ses-02_part-02_label-phase2,3.2.4,Win32,60,,,,,,,,,,,,,,,,,,,,,,,,,,,,,
right,0.641000271,1,216,1,0,1,0,1,0,1,0,240,107,1,239,2,1,4,stim/14.jpeg,Instruments,2,stim/objects/Instruments/record_player.png,0.7,2,0.2,0.15,right,77,2020-12-10_17h05.37.922,premup-three_ses-02_part-02_label-phase2,3.2.4,Win32,60,,,,,,,,,,,,,,,,,,,,,,,,,,,,,
right,0.500000238,0,217,1,0,1,0,1,0,1,0,240,52,1,239,1,6,1,stim/61.jpeg,HouseObjects,1,stim/objects/HouseObjects/lintroller.png,0.5,2,0.2,0.15,left,77,2020-12-10_17h05.37.922,premup-three_ses-02_part-02_label-phase2,3.2.4,Win32,60,,,,,,,,,,,,,,,,,,,,,,,,,,,,,
left,0.575999975,1,218,1,0,1,0,1,0,1,0,240,231,1,239,3,4,4,stim/44.jpeg,HouseObjects,1,stim/objects/HouseObjects/rug2.png,0.9,2,0.2,0.15,left,77,2020-12-10_17h05.37.922,premup-three_ses-02_part-02_label-phase2,3.2.4,Win32,60,,,,,,,,,,,,,,,,,,,,,,,,,,,,,
left,0.503000021,0,219,1,0,1,0,1,0,1,0,240,37,1,239,1,5,2,stim/52.jpeg,Instruments,2,stim/objects/Instruments/laud.png,0.5,4,0.2,-0.15,right,77,2020-12-10_17h05.37.922,premup-three_ses-02_part-02_label-phase2,3.2.4,Win32,60,,,,,,,,,,,,,,,,,,,,,,,,,,,,,
right,0.6650002,1,220,1,0,1,0,1,0,1,0,240,174,1,239,3,3,3,stim/33.jpeg,Instruments,2,stim/objects/Instruments/musicstand2.png,0.9,2,0.2,0.15,right,77,2020-12-10_17h05.37.922,premup-three_ses-02_part-02_label-phase2,3.2.4,Win32,60,,,,,,,,,,,,,,,,,,,,,,,,,,,,,
right,0.603000164,1,221,1,0,1,0,1,0,1,0,240,109,1,239,2,1,2,stim/12.jpeg,Instruments,2,stim/objects/Instruments/pipepiano.png,0.7,2,0.2,0.15,right,77,2020-12-10_17h05.37.922,premup-three_ses-02_part-02_label-phase2,3.2.4,Win32,60,,,,,,,,,,,,,,,,,,,,,,,,,,,,,
left,0.720000029,1,222,1,0,1,0,1,0,1,0,240,57,1,239,1,6,2,stim/62.jpeg,HouseObjects,1,stim/objects/HouseObjects/match.png,0.5,3,-0.2,-0.15,left,77,2020-12-10_17h05.37.922,premup-three_ses-02_part-02_label-phase2,3.2.4,Win32,60,,,,,,,,,,,,,,,,,,,,,,,,,,,,,
left,0.585000038,1,223,1,0,1,0,1,0,1,0,240,130,1,239,2,2,3,stim/23.jpeg,HouseObjects,1,stim/objects/HouseObjects/key2.png,0.7,3,-0.2,-0.15,left,77,2020-12-10_17h05.37.922,premup-three_ses-02_part-02_label-phase2,3.2.4,Win32,60,,,,,,,,,,,,,,,,,,,,,,,,,,,,,
right,0.44900012,1,224,1,0,1,0,1,0,1,0,240,199,1,239,3,3,4,stim/34.jpeg,Instruments,2,stim/objects/Instruments/oboe2.png,0.9,1,-0.2,0.15,right,77,2020-12-10_17h05.37.922,premup-three_ses-02_part-02_label-phase2,3.2.4,Win32,60,,,,,,,,,,,,,,,,,,,,,,,,,,,,,
left,0.567000151,1,225,1,0,1,0,1,0,1,0,240,206,1,239,3,4,3,stim/43.jpeg,HouseObjects,1,stim/objects/HouseObjects/rubbergloves2.png,0.9,3,-0.2,-0.15,left,77,2020-12-10_17h05.37.922,premup-three_ses-02_part-02_label-phase2,3.2.4,Win32,60,,,,,,,,,,,,,,,,,,,,,,,,,,,,,
left,0.623000145,0,226,1,0,1,0,1,0,1,0,240,158,1,239,2,2,3,stim/23.jpeg,Instruments,2,stim/objects/Instruments/maraca2.png,0.3,1,-0.2,0.15,right,77,2020-12-10_17h05.37.922,premup-three_ses-02_part-02_label-phase2,3.2.4,Win32,60,,,,,,,,,,,,,,,,,,,,,,,,,,,,,
left,0.693000317,0,227,1,0,1,0,1,0,1,0,240,36,1,239,1,5,1,stim/51.jpeg,Instruments,2,stim/objects/Instruments/keyboard.png,0.5,4,0.2,-0.15,right,77,2020-12-10_17h05.37.922,premup-three_ses-02_part-02_label-phase2,3.2.4,Win32,60,,,,,,,,,,,,,,,,,,,,,,,,,,,,,
right,0.644000053,1,228,1,0,1,0,1,0,1,0,240,76,1,239,1,6,1,stim/61.jpeg,Instruments,2,stim/objects/Instruments/metronome.png,0.5,3,-0.2,-0.15,right,77,2020-12-10_17h05.37.922,premup-three_ses-02_part-02_label-phase2,3.2.4,Win32,60,,,,,,,,,,,,,,,,,,,,,,,,,,,,,
left,0.632000208,0,229,1,0,1,0,1,0,1,0,240,237,1,239,3,4,2,stim/42.jpeg,Instruments,2,stim/objects/Instruments/pipepiano2.png,0.1,3,-0.2,-0.15,right,77,2020-12-10_17h05.37.922,premup-three_ses-02_part-02_label-phase2,3.2.4,Win32,60,,,,,,,,,,,,,,,,,,,,,,,,,,,,,
left,0.624000311,1,230,1,0,1,0,1,0,1,0,240,216,1,239,3,4,1,stim/41.jpeg,HouseObjects,1,stim/objects/HouseObjects/recyclingbin2.png,0.9,2,0.2,0.15,left,77,2020-12-10_17h05.37.922,premup-three_ses-02_part-02_label-phase2,3.2.4,Win32,60,,,,,,,,,,,,,,,,,,,,,,,,,,,,,
,,0,231,1,0,1,0,1,0,1,0,240,38,1,239,1,5,3,stim/53.jpeg,Instruments,2,stim/objects/Instruments/maraca.png,0.5,4,0.2,-0.15,right,77,2020-12-10_17h05.37.922,premup-three_ses-02_part-02_label-phase2,3.2.4,Win32,60,,,,,,,,,,,,,,,,,,,,,,,,,,,,,
left,0.424000025,0,232,1,0,1,0,1,0,1,0,240,100,1,239,2,1,1,stim/11.jpeg,Instruments,2,stim/objects/Instruments/panflute.png,0.7,3,-0.2,-0.15,right,77,2020-12-10_17h05.37.922,premup-three_ses-02_part-02_label-phase2,3.2.4,Win32,60,,,,,,,,,,,,,,,,,,,,,,,,,,,,,
left,0.725000143,1,233,1,0,1,0,1,0,1,0,240,137,1,239,2,2,2,stim/22.jpeg,HouseObjects,1,stim/objects/HouseObjects/ironingboard2.png,0.7,3,-0.2,-0.15,left,77,2020-12-10_17h05.37.922,premup-three_ses-02_part-02_label-phase2,3.2.4,Win32,60,,,,,,,,,,,,,,,,,,,,,,,,,,,,,
right,0.647000074,1,234,1,0,1,0,1,0,1,0,240,63,1,239,1,6,4,stim/64.jpeg,Instruments,2,stim/objects/Instruments/oboe.png,0.5,3,-0.2,-0.15,right,77,2020-12-10_17h05.37.922,premup-three_ses-02_part-02_label-phase2,3.2.4,Win32,60,,,,,,,,,,,,,,,,,,,,,,,,,,,,,
right,0.666000366,0,235,1,0,1,0,1,0,1,0,240,40,1,239,1,6,1,stim/61.jpeg,HouseObjects,1,stim/objects/HouseObjects/lintroller.png,0.5,4,0.2,-0.15,left,77,2020-12-10_17h05.37.922,premup-three_ses-02_part-02_label-phase2,3.2.4,Win32,60,,,,,,,,,,,,,,,,,,,,,,,,,,,,,
right,0.664000034,1,236,1,0,1,0,1,0,1,0,240,73,1,239,1,6,2,stim/62.jpeg,Instruments,2,stim/objects/Instruments/musicsheet.png,0.5,1,-0.2,0.15,right,77,2020-12-10_17h05.37.922,premup-three_ses-02_part-02_label-phase2,3.2.4,Win32,60,,,,,,,,,,,,,,,,,,,,,,,,,,,,,
right,0.542000294,1,237,1,0,1,0,1,0,1,0,240,191,1,239,3,3,4,stim/34.jpeg,Instruments,2,stim/objects/Instruments/oboe2.png,0.9,3,-0.2,-0.15,right,77,2020-12-10_17h05.37.922,premup-three_ses-02_part-02_label-phase2,3.2.4,Win32,60,,,,,,,,,,,,,,,,,,,,,,,,,,,,,
left,0.670000315,1,238,1,0,1,0,1,0,1,0,240,228,1,239,3,4,1,stim/41.jpeg,HouseObjects,1,stim/objects/HouseObjects/recyclingbin2.png,0.9,1,-0.2,0.15,left,77,2020-12-10_17h05.37.922,premup-three_ses-02_part-02_label-phase2,3.2.4,Win32,60,,,,,,,,,,,,,,,,,,,,,,,,,,,,,
right,0.437000036,0,239,1,0,1,0,1,0,1,0,240,44,1,239,1,6,1,stim/61.jpeg,HouseObjects,1,stim/objects/HouseObjects/lintroller.png,0.5,4,0.2,-0.15,left,77,2020-12-10_17h05.37.922,premup-three_ses-02_part-02_label-phase2,3.2.4,Win32,60,,,,,,,,,,,,,,,,,,,,,,,,,,,,,
left,0.514000177,0,240,1,0,1,0,1,0,1,0,240,236,1,239,3,4,1,stim/41.jpeg,Instruments,2,stim/objects/Instruments/panflute2.png,0.1,1,-0.2,0.15,right,77,2020-12-10_17h05.37.922,premup-three_ses-02_part-02_label-phase2,3.2.4,Win32,60,,,,,,,,,,,,,,,,,,,,,,,,,,,,,
,,,,1,0,1,0,1,0,,,,,,,,6,,stim/61.jpeg,,,,,,,,,77,2020-12-10_17h05.37.922,premup-three_ses-02_part-02_label-phase2,3.2.4,Win32,60,40,8.219000101,,,1,0,6,5,1,5,Household items,5,15,Music items,85,95,,,,,,,,,,,,,
,,,,1,0,1,0,1,0,,,,,,,,5,,stim/51.jpeg,,,,,,,,,77,2020-12-10_17h05.37.922,premup-three_ses-02_part-02_label-phase2,3.2.4,Win32,60,59,13.22000003,,,1,0,6,4,1,5,Music items,5,15,Household items,85,95,,,,,,,,,,,,,
,,,,1,0,1,0,1,0,,,,,,,,2,,stim/21.jpeg,,,,,,,,,77,2020-12-10_17h05.37.922,premup-three_ses-02_part-02_label-phase2,3.2.4,Win32,60,23,9.067000151,,,1,0,6,1,1,5,Music items,45,55,Household items,45,55,,,,,,,,,,,,,
,,,,1,0,1,0,1,0,,,,,,,,1,,stim/11.jpeg,,,,,,,,,77,2020-12-10_17h05.37.922,premup-three_ses-02_part-02_label-phase2,3.2.4,Win32,60,21,7.316999912,,,1,0,6,0,1,5,Household items,45,55,Music items,45,55,,,,,,,,,,,,,
,,,,1,0,1,0,1,0,,,,,,,,3,,stim/31.jpeg,,,,,,,,,77,2020-12-10_17h05.37.922,premup-three_ses-02_part-02_label-phase2,3.2.4,Win32,60,6,8.062000036,,,1,0,6,2,1,5,Household items,65,75,Music items,25,35,,,,,,,,,,,,,
,,,,1,0,1,0,1,0,,,,,,,,4,,stim/41.jpeg,,,,,,,,,77,2020-12-10_17h05.37.922,premup-three_ses-02_part-02_label-phase2,3.2.4,Win32,60,90,9.36500001,,,1,0,6,3,1,5,Household items,65,75,Music items,25,35,,,,,,,,,,,,,
,,,,1,0,1,0,1,0,,,,,,,,,,,,,,,,,,,77,2020-12-10_17h05.37.922,premup-three_ses-02_part-02_label-phase2,3.2.4,Win32,60,,,,,,,,,,,,,,,,,,,,,,,,,,,,,
left,0.808000088,0,241,,,,,,,,,,,,,3,3,1,stim/31.jpeg,Instruments,2,stim/objects/Instruments/grandpiano.png,0.9,3,-0.2,-0.15,right,77,2020-12-10_17h05.37.922,premup-three_ses-02_part-02_label-phase2,3.2.4,Win32,60,,,,,,,,,,,,,,,,,1,0,330,174,1,329,2,,,,,,
left,0.745000124,1,242,,,,,,,,,,,,,1,5,1,stim/51.jpeg,HouseObjects,1,stim/objects/HouseObjects/ashtray.png,0.5,3,-0.2,-0.15,left,77,2020-12-10_17h05.37.922,premup-three_ses-02_part-02_label-phase2,3.2.4,Win32,60,,,,,,,,,,,,,,,,,1,0,330,0,1,329,2,,,,,,
right,0.59800005,1,243,,,,,,,,,,,,,3,3,2,stim/32.jpeg,Instruments,2,stim/objects/Instruments/frenchhorn.png,0.9,1,-0.2,0.15,right,77,2020-12-10_17h05.37.922,premup-three_ses-02_part-02_label-phase2,3.2.4,Win32,60,,,,,,,,,,,,,,,,,1,0,330,147,1,329,2,,,,,,
left,0.679000139,1,244,,,,,,,,,,,,,3,4,2,stim/42.jpeg,HouseObjects,1,stim/objects/HouseObjects/wateringcan2.png,0.9,4,0.2,-0.15,left,77,2020-12-10_17h05.37.922,premup-three_ses-02_part-02_label-phase2,3.2.4,Win32,60,,,,,,,,,,,,,,,,,1,0,330,319,1,329,1,,,,,,
left,0.706000328,1,245,,,,,,,,,,,,,1,5,2,stim/52.jpeg,HouseObjects,1,stim/objects/HouseObjects/bleachbottle.png,0.5,1,-0.2,0.15,left,77,2020-12-10_17h05.37.922,premup-three_ses-02_part-02_label-phase2,3.2.4,Win32,60,,,,,,,,,,,,,,,,,1,0,330,9,1,329,2,,,,,,
right,0.821000099,1,246,,,,,,,,,,,,,1,5,2,stim/52.jpeg,Instruments,2,stim/objects/Instruments/acousticguitar.png,0.5,1,-0.2,0.15,right,77,2020-12-10_17h05.37.922,premup-three_ses-02_part-02_label-phase2,3.2.4,Win32,60,,,,,,,,,,,,,,,,,1,0,330,21,1,329,2,,,,,,
left,0.678000212,1,247,,,,,,,,,,,,,3,4,4,stim/44.jpeg,HouseObjects,1,stim/objects/HouseObjects/garbagebin.png,0.9,3,-0.2,-0.15,left,77,2020-12-10_17h05.37.922,premup-three_ses-02_part-02_label-phase2,3.2.4,Win32,60,,,,,,,,,,,,,,,,,1,0,330,233,1,329,2,,,,,,
right,0.494000196,1,248,,,,,,,,,,,,,3,3,3,stim/33.jpeg,Instruments,2,stim/objects/Instruments/frenchhorn.png,0.9,1,-0.2,0.15,right,77,2020-12-10_17h05.37.922,premup-three_ses-02_part-02_label-phase2,3.2.4,Win32,60,,,,,,,,,,,,,,,,,1,0,330,172,1,329,2,,,,,,
left,0.519000053,1,249,,,,,,,,,,,,,3,4,4,stim/44.jpeg,HouseObjects,1,stim/objects/HouseObjects/flyswatter.png,0.9,3,-0.2,-0.15,left,77,2020-12-10_17h05.37.922,premup-three_ses-02_part-02_label-phase2,3.2.4,Win32,60,,,,,,,,,,,,,,,,,1,0,330,257,1,329,2,,,,,,
right,0.543000221,0,250,,,,,,,,,,,,,1,6,4,stim/64.jpeg,HouseObjects,1,stim/objects/HouseObjects/bottle.png,0.5,3,-0.2,-0.15,left,77,2020-12-10_17h05.37.922,premup-three_ses-02_part-02_label-phase2,3.2.4,Win32,60,,,,,,,,,,,,,,,,,1,0,330,31,1,329,2,,,,,,
left,0.702000141,1,251,,,,,,,,,,,,,3,4,2,stim/42.jpeg,HouseObjects,1,stim/objects/HouseObjects/dustpan.png,0.9,4,0.2,-0.15,left,77,2020-12-10_17h05.37.922,premup-three_ses-02_part-02_label-phase2,3.2.4,Win32,60,,,,,,,,,,,,,,,,,1,0,330,231,1,329,2,,,,,,
right,0.59100008,1,252,,,,,,,,,,,,,2,1,3,stim/13.jpeg,Instruments,2,stim/objects/Instruments/tuba.png,0.7,3,-0.2,-0.15,right,77,2020-12-10_17h05.37.922,premup-three_ses-02_part-02_label-phase2,3.2.4,Win32,60,,,,,,,,,,,,,,,,,1,0,330,86,1,329,1,,,,,,
right,0.725000143,1,253,,,,,,,,,,,,,1,5,4,stim/54.jpeg,Instruments,2,stim/objects/Instruments/banjo.png,0.5,2,0.2,0.15,right,77,2020-12-10_17h05.37.922,premup-three_ses-02_part-02_label-phase2,3.2.4,Win32,60,,,,,,,,,,,,,,,,,1,0,330,23,1,329,2,,,,,,
left,0.524000168,0,254,,,,,,,,,,,,,1,5,2,stim/52.jpeg,Instruments,2,stim/objects/Instruments/balalaika.png,0.5,2,0.2,0.15,right,77,2020-12-10_17h05.37.922,premup-three_ses-02_part-02_label-phase2,3.2.4,Win32,60,,,,,,,,,,,,,,,,,1,0,330,17,1,329,2,,,,,,
right,0.630000114,1,255,,,,,,,,,,,,,1,6,2,stim/62.jpeg,Instruments,2,stim/objects/Instruments/cornet.png,0.5,2,0.2,0.15,right,77,2020-12-10_17h05.37.922,premup-three_ses-02_part-02_label-phase2,3.2.4,Win32,60,,,,,,,,,,,,,,,,,1,0,330,49,1,329,2,,,,,,
left,0.653000116,1,256,,,,,,,,,,,,,3,4,1,stim/41.jpeg,HouseObjects,1,stim/objects/HouseObjects/glass.png,0.9,2,0.2,0.15,left,77,2020-12-10_17h05.37.922,premup-three_ses-02_part-02_label-phase2,3.2.4,Win32,60,,,,,,,,,,,,,,,,,1,0,330,294,1,329,2,,,,,,
right,0.572000265,1,257,,,,,,,,,,,,,3,3,3,stim/33.jpeg,Instruments,2,stim/objects/Instruments/grandpiano2.png,0.9,2,0.2,0.15,right,77,2020-12-10_17h05.37.922,premup-three_ses-02_part-02_label-phase2,3.2.4,Win32,60,,,,,,,,,,,,,,,,,1,0,330,224,1,329,1,,,,,,
right,0.614000082,1,258,,,,,,,,,,,,,3,3,1,stim/31.jpeg,Instruments,2,stim/objects/Instruments/flute.png,0.9,2,0.2,0.15,right,77,2020-12-10_17h05.37.922,premup-three_ses-02_part-02_label-phase2,3.2.4,Win32,60,,,,,,,,,,,,,,,,,1,0,330,170,1,329,2,,,,,,
right,0.859000206,0,259,,,,,,,,,,,,,2,1,3,stim/13.jpeg,HouseObjects,1,stim/objects/HouseObjects/ballofstring2.png,0.3,3,-0.2,-0.15,left,77,2020-12-10_17h05.37.922,premup-three_ses-02_part-02_label-phase2,3.2.4,Win32,60,,,,,,,,,,,,,,,,,1,0,330,66,1,329,1,,,,,,
left,0.723000288,1,260,,,,,,,,,,,,,2,2,2,stim/22.jpeg,HouseObjects,1,stim/objects/HouseObjects/clothespin2.png,0.7,3,-0.2,-0.15,left,77,2020-12-10_17h05.37.922,premup-three_ses-02_part-02_label-phase2,3.2.4,Win32,60,,,,,,,,,,,,,,,,,1,0,330,116,1,329,1,,,,,,
right,0.582000017,1,261,,,,,,,,,,,,,3,3,4,stim/34.jpeg,Instruments,2,stim/objects/Instruments/flute.png,0.9,4,0.2,-0.15,right,77,2020-12-10_17h05.37.922,premup-three_ses-02_part-02_label-phase2,3.2.4,Win32,60,,,,,,,,,,,,,,,,,1,0,330,165,1,329,2,,,,,,
right,0.514000177,1,262,,,,,,,,,,,,,3,3,1,stim/31.jpeg,Instruments,2,stim/objects/Instruments/gong.png,0.9,3,-0.2,-0.15,right,77,2020-12-10_17h05.37.922,premup-three_ses-02_part-02_label-phase2,3.2.4,Win32,60,,,,,,,,,,,,,,,,,1,0,330,198,1,329,2,,,,,,
right,0.67200017,0,263,,,,,,,,,,,,,3,3,3,stim/33.jpeg,HouseObjects,1,stim/objects/HouseObjects/flyswatter2.png,0.1,3,-0.2,-0.15,left,77,2020-12-10_17h05.37.922,premup-three_ses-02_part-02_label-phase2,3.2.4,Win32,60,,,,,,,,,,,,,,,,,1,0,330,132,1,329,1,,,,,,
right,0.633000135,0,264,,,,,,,,,,,,,3,3,1,stim/31.jpeg,HouseObjects,1,stim/objects/HouseObjects/doormat2.png,0.1,1,-0.2,0.15,left,77,2020-12-10_17h05.37.922,premup-three_ses-02_part-02_label-phase2,3.2.4,Win32,60,,,,,,,,,,,,,,,,,1,0,330,130,1,329,1,,,,,,
left,0.568000078,1,265,,,,,,,,,,,,,3,4,4,stim/44.jpeg,HouseObjects,1,stim/objects/HouseObjects/glass.png,0.9,3,-0.2,-0.15,left,77,2020-12-10_17h05.37.922,premup-three_ses-02_part-02_label-phase2,3.2.4,Win32,60,,,,,,,,,,,,,,,,,1,0,330,289,1,329,2,,,,,,
right,0.542000294,1,266,,,,,,,,,,,,,1,6,2,stim/62.jpeg,Instruments,2,stim/objects/Instruments/bassguitar.png,0.5,4,0.2,-0.15,right,77,2020-12-10_17h05.37.922,premup-three_ses-02_part-02_label-phase2,3.2.4,Win32,60,,,,,,,,,,,,,,,,,1,0,330,45,1,329,2,,,,,,
right,0.590000153,1,267,,,,,,,,,,,,,3,3,3,stim/33.jpeg,Instruments,2,stim/objects/Instruments/grandpiano.png,0.9,3,-0.2,-0.15,right,77,2020-12-10_17h05.37.922,premup-three_ses-02_part-02_label-phase2,3.2.4,Win32,60,,,,,,,,,,,,,,,,,1,0,330,144,1,329,2,,,,,,
left,0.611000061,0,268,,,,,,,,,,,,,2,2,1,stim/21.jpeg,Instruments,2,stim/objects/Instruments/drums2.png,0.3,3,-0.2,-0.15,right,77,2020-12-10_17h05.37.922,premup-three_ses-02_part-02_label-phase2,3.2.4,Win32,60,,,,,,,,,,,,,,,,,1,0,330,127,1,329,1,,,,,,
right,0.658000231,1,269,,,,,,,,,,,,,3,3,4,stim/34.jpeg,Instruments,2,stim/objects/Instruments/frenchhorn.png,0.9,2,0.2,0.15,right,77,2020-12-10_17h05.37.922,premup-three_ses-02_part-02_label-phase2,3.2.4,Win32,60,,,,,,,,,,,,,,,,,1,0,330,217,1,329,2,,,,,,
right,0.700000286,0,270,,,,,,,,,,,,,1,5,1,stim/51.jpeg,HouseObjects,1,stim/objects/HouseObjects/bleachbottle.png,0.5,4,0.2,-0.15,left,77,2020-12-10_17h05.37.922,premup-three_ses-02_part-02_label-phase2,3.2.4,Win32,60,,,,,,,,,,,,,,,,,1,0,330,4,1,329,2,,,,,,
left,0.707000256,1,271,,,,,,,,,,,,,3,4,4,stim/44.jpeg,HouseObjects,1,stim/objects/HouseObjects/spraybottle2.png,0.9,1,-0.2,0.15,left,77,2020-12-10_17h05.37.922,premup-three_ses-02_part-02_label-phase2,3.2.4,Win32,60,,,,,,,,,,,,,,,,,1,0,330,313,1,329,1,,,,,,
right,0.502000093,1,272,,,,,,,,,,,,,3,3,1,stim/31.jpeg,Instruments,2,stim/objects/Instruments/grandpiano.png,0.9,2,0.2,0.15,right,77,2020-12-10_17h05.37.922,premup-three_ses-02_part-02_label-phase2,3.2.4,Win32,60,,,,,,,,,,,,,,,,,1,0,330,194,1,329,2,,,,,,
left,0.670000315,1,273,,,,,,,,,,,,,3,4,3,stim/43.jpeg,HouseObjects,1,stim/objects/HouseObjects/flyswatter.png,0.9,1,-0.2,0.15,left,77,2020-12-10_17h05.37.922,premup-three_ses-02_part-02_label-phase2,3.2.4,Win32,60,,,,,,,,,,,,,,,,,1,0,330,232,1,329,2,,,,,,
right,0.60800004,1,274,,,,,,,,,,,,,3,3,2,stim/32.jpeg,Instruments,2,stim/objects/Instruments/flutetrans.png,0.9,1,-0.2,0.15,right,77,2020-12-10_17h05.37.922,premup-three_ses-02_part-02_label-phase2,3.2.4,Win32,60,,,,,,,,,,,,,,,,,1,0,330,151,1,329,2,,,,,,
right,0.536000252,1,275,,,,,,,,,,,,,3,3,1,stim/31.jpeg,Instruments,2,stim/objects/Instruments/flute.png,0.9,2,0.2,0.15,right,77,2020-12-10_17h05.37.922,premup-three_ses-02_part-02_label-phase2,3.2.4,Win32,60,,,,,,,,,,,,,,,,,1,0,330,210,1,329,2,,,,,,
left,0.506000042,1,276,,,,,,,,,,,,,2,2,1,stim/21.jpeg,HouseObjects,1,stim/objects/HouseObjects/coffee.png,0.7,3,-0.2,-0.15,left,77,2020-12-10_17h05.37.922,premup-three_ses-02_part-02_label-phase2,3.2.4,Win32,60,,,,,,,,,,,,,,,,,1,0,330,107,1,329,2,,,,,,
left,0.673000097,1,277,,,,,,,,,,,,,3,4,4,stim/44.jpeg,HouseObjects,1,stim/objects/HouseObjects/doormat.png,0.9,2,0.2,0.15,left,77,2020-12-10_17h05.37.922,premup-three_ses-02_part-02_label-phase2,3.2.4,Win32,60,,,,,,,,,,,,,,,,,1,0,330,285,1,329,2,,,,,,
left,0.812000036,1,278,,,,,,,,,,,,,2,2,1,stim/21.jpeg,HouseObjects,1,stim/objects/HouseObjects/dishsoap2.png,0.7,4,0.2,-0.15,left,77,2020-12-10_17h05.37.922,premup-three_ses-02_part-02_label-phase2,3.2.4,Win32,60,,,,,,,,,,,,,,,,,1,0,330,119,1,329,1,,,,,,
right,0.734000206,1,279,,,,,,,,,,,,,3,3,3,stim/33.jpeg,Instruments,2,stim/objects/Instruments/gong.png,0.9,3,-0.2,-0.15,right,77,2020-12-10_17h05.37.922,premup-three_ses-02_part-02_label-phase2,3.2.4,Win32,60,,,,,,,,,,,,,,,,,1,0,330,168,1,329,2,,,,,,
left,0.579000235,1,280,,,,,,,,,,,,,3,4,3,stim/43.jpeg,HouseObjects,1,stim/objects/HouseObjects/dustpan.png,0.9,2,0.2,0.15,left,77,2020-12-10_17h05.37.922,premup-three_ses-02_part-02_label-phase2,3.2.4,Win32,60,,,,,,,,,,,,,,,,,1,0,330,296,1,329,2,,,,,,
right,0.715000391,1,281,,,,,,,,,,,,,2,1,4,stim/14.jpeg,Instruments,2,stim/objects/Instruments/doublebass.png,0.7,4,0.2,-0.15,right,77,2020-12-10_17h05.37.922,premup-three_ses-02_part-02_label-phase2,3.2.4,Win32,60,,,,,,,,,,,,,,,,,1,0,330,71,1,329,2,,,,,,
left,0.714000225,1,282,,,,,,,,,,,,,3,4,3,stim/43.jpeg,HouseObjects,1,stim/objects/HouseObjects/doormat.png,0.9,1,-0.2,0.15,left,77,2020-12-10_17h05.37.922,premup-three_ses-02_part-02_label-phase2,3.2.4,Win32,60,,,,,,,,,,,,,,,,,1,0,330,280,1,329,2,,,,,,
left,0.584000111,0,283,,,,,,,,,,,,,2,2,3,stim/23.jpeg,Instruments,2,stim/objects/Instruments/cello2.png,0.3,3,-0.2,-0.15,right,77,2020-12-10_17h05.37.922,premup-three_ses-02_part-02_label-phase2,3.2.4,Win32,60,,,,,,,,,,,,,,,,,1,0,330,121,1,329,1,,,,,,
left,0.516000032,1,284,,,,,,,,,,,,,1,5,4,stim/54.jpeg,HouseObjects,1,stim/objects/HouseObjects/hairdryer.png,0.5,3,-0.2,-0.15,left,77,2020-12-10_17h05.37.922,premup-three_ses-02_part-02_label-phase2,3.2.4,Win32,60,,,,,,,,,,,,,,,,,1,0,330,11,1,329,1,,,,,,
right,0.548000097,0,285,,,,,,,,,,,,,2,1,1,stim/11.jpeg,HouseObjects,1,stim/objects/HouseObjects/wateringcan.png,0.3,1,-0.2,0.15,left,77,2020-12-10_17h05.37.922,premup-three_ses-02_part-02_label-phase2,3.2.4,Win32,60,,,,,,,,,,,,,,,,,1,0,330,64,1,329,1,,,,,,
left,0.525000095,1,286,,,,,,,,,,,,,3,3,4,stim/34.jpeg,HouseObjects,1,stim/objects/HouseObjects/handbrush2.png,0.1,3,-0.2,-0.15,left,77,2020-12-10_17h05.37.922,premup-three_ses-02_part-02_label-phase2,3.2.4,Win32,60,,,,,,,,,,,,,,,,,1,0,330,137,1,329,1,,,,,,
right,0.450000286,1,287,,,,,,,,,,,,,1,6,3,stim/63.jpeg,Instruments,2,stim/objects/Instruments/bassguitar.png,0.5,4,0.2,-0.15,right,77,2020-12-10_17h05.37.922,premup-three_ses-02_part-02_label-phase2,3.2.4,Win32,60,,,,,,,,,,,,,,,,,1,0,330,50,1,329,2,,,,,,
right,0.505000114,1,288,,,,,,,,,,,,,3,3,2,stim/32.jpeg,Instruments,2,stim/objects/Instruments/flute.png,0.9,2,0.2,0.15,right,77,2020-12-10_17h05.37.922,premup-three_ses-02_part-02_label-phase2,3.2.4,Win32,60,,,,,,,,,,,,,,,,,1,0,330,215,1,329,2,,,,,,
left,0.809000015,1,289,,,,,,,,,,,,,3,4,4,stim/44.jpeg,HouseObjects,1,stim/objects/HouseObjects/dustpan.png,0.9,2,0.2,0.15,left,77,2020-12-10_17h05.37.922,premup-three_ses-02_part-02_label-phase2,3.2.4,Win32,60,,,,,,,,,,,,,,,,,1,0,330,301,1,329,2,,,,,,
left,0.847000122,1,290,,,,,,,,,,,,,2,1,2,stim/12.jpeg,HouseObjects,1,stim/objects/HouseObjects/thread.png,0.3,3,-0.2,-0.15,left,77,2020-12-10_17h05.37.922,premup-three_ses-02_part-02_label-phase2,3.2.4,Win32,60,,,,,,,,,,,,,,,,,1,0,330,61,1,329,1,,,,,,
left,0.795000076,1,291,,,,,,,,,,,,,3,4,1,stim/41.jpeg,HouseObjects,1,stim/objects/HouseObjects/glass.png,0.9,4,0.2,-0.15,left,77,2020-12-10_17h05.37.922,premup-three_ses-02_part-02_label-phase2,3.2.4,Win32,60,,,,,,,,,,,,,,,,,1,0,330,254,1,329,2,,,,,,
,,0,292,,,,,,,,,,,,,3,4,1,stim/41.jpeg,HouseObjects,1,stim/objects/HouseObjects/vacuumcleaner2.png,0.9,2,0.2,0.15,left,77,2020-12-10_17h05.37.922,premup-three_ses-02_part-02_label-phase2,3.2.4,Win32,60,,,,,,,,,,,,,,,,,1,0,330,318,1,329,1,,,,,,
left,0.656000137,1,293,,,,,,,,,,,,,3,4,1,stim/41.jpeg,HouseObjects,1,stim/objects/HouseObjects/flyswatter.png,0.9,1,-0.2,0.15,left,77,2020-12-10_17h05.37.922,premup-three_ses-02_part-02_label-phase2,3.2.4,Win32,60,,,,,,,,,,,,,,,,,1,0,330,282,1,329,2,,,,,,
right,0.613000154,1,294,,,,,,,,,,,,,3,3,4,stim/34.jpeg,Instruments,2,stim/objects/Instruments/grandpiano.png,0.9,1,-0.2,0.15,right,77,2020-12-10_17h05.37.922,premup-three_ses-02_part-02_label-phase2,3.2.4,Win32,60,,,,,,,,,,,,,,,,,1,0,330,189,1,329,2,,,,,,
right,0.613000154,1,295,,,,,,,,,,,,,2,1,2,stim/12.jpeg,Instruments,2,stim/objects/Instruments/xylophone.png,0.7,3,-0.2,-0.15,right,77,2020-12-10_17h05.37.922,premup-three_ses-02_part-02_label-phase2,3.2.4,Win32,60,,,,,,,,,,,,,,,,,1,0,330,89,1,329,1,,,,,,
right,0.671000004,1,296,,,,,,,,,,,,,3,3,3,stim/33.jpeg,Instruments,2,stim/objects/Instruments/frenchhorn.png,0.9,4,0.2,-0.15,right,77,2020-12-10_17h05.37.922,premup-three_ses-02_part-02_label-phase2,3.2.4,Win32,60,,,,,,,,,,,,,,,,,1,0,330,192,1,329,2,,,,,,
right,0.624000072,1,297,,,,,,,,,,,,,3,3,3,stim/33.jpeg,Instruments,2,stim/objects/Instruments/flutetrans.png,0.9,2,0.2,0.15,right,77,2020-12-10_17h05.37.922,premup-three_ses-02_part-02_label-phase2,3.2.4,Win32,60,,,,,,,,,,,,,,,,,1,0,330,196,1,329,2,,,,,,
right,0.52300024,0,298,,,,,,,,,,,,,3,4,1,stim/41.jpeg,HouseObjects,1,stim/objects/HouseObjects/doormat.png,0.9,4,0.2,-0.15,left,77,2020-12-10_17h05.37.922,premup-three_ses-02_part-02_label-phase2,3.2.4,Win32,60,,,,,,,,,,,,,,,,,1,0,330,270,1,329,2,,,,,,
left,0.516000271,1,299,,,,,,,,,,,,,3,4,3,stim/43.jpeg,HouseObjects,1,stim/objects/HouseObjects/garbagebin.png,0.9,3,-0.2,-0.15,left,77,2020-12-10_17h05.37.922,premup-three_ses-02_part-02_label-phase2,3.2.4,Win32,60,,,,,,,,,,,,,,,,,1,0,330,288,1,329,2,,,,,,
right,0.684000015,1,300,,,,,,,,,,,,,3,3,4,stim/34.jpeg,Instruments,2,stim/objects/Instruments/flutetrans.png,0.9,3,-0.2,-0.15,right,77,2020-12-10_17h05.37.922,premup-three_ses-02_part-02_label-phase2,3.2.4,Win32,60,,,,,,,,,,,,,,,,,1,0,330,181,1,329,2,,,,,,
right,0.719000101,1,301,,,,,,,,,,,,,3,3,3,stim/33.jpeg,Instruments,2,stim/objects/Instruments/gong.png,0.9,2,0.2,0.15,right,77,2020-12-10_17h05.37.922,premup-three_ses-02_part-02_label-phase2,3.2.4,Win32,60,,,,,,,,,,,,,,,,,1,0,330,208,1,329,2,,,,,,
right,0.57400012,1,302,,,,,,,,,,,,,3,3,4,stim/34.jpeg,Instruments,2,stim/objects/Instruments/saxophone2.png,0.9,2,0.2,0.15,right,77,2020-12-10_17h05.37.922,premup-three_ses-02_part-02_label-phase2,3.2.4,Win32,60,,,,,,,,,,,,,,,,,1,0,330,229,1,329,1,,,,,,
left,0.701000214,1,303,,,,,,,,,,,,,3,4,2,stim/42.jpeg,HouseObjects,1,stim/objects/HouseObjects/garbagebin.png,0.9,1,-0.2,0.15,left,77,2020-12-10_17h05.37.922,premup-three_ses-02_part-02_label-phase2,3.2.4,Win32,60,,,,,,,,,,,,,,,,,1,0,330,283,1,329,2,,,,,,
right,0.475000143,1,304,,,,,,,,,,,,,3,3,2,stim/32.jpeg,Instruments,2,stim/objects/Instruments/frenchhorn.png,0.9,4,0.2,-0.15,right,77,2020-12-10_17h05.37.922,premup-three_ses-02_part-02_label-phase2,3.2.4,Win32,60,,,,,,,,,,,,,,,,,1,0,330,207,1,329,2,,,,,,
right,0.625000238,1,305,,,,,,,,,,,,,3,3,1,stim/31.jpeg,Instruments,2,stim/objects/Instruments/gong.png,0.9,3,-0.2,-0.15,right,77,2020-12-10_17h05.37.922,premup-three_ses-02_part-02_label-phase2,3.2.4,Win32,60,,,,,,,,,,,,,,,,,1,0,330,178,1,329,2,,,,,,
left,0.606000185,0,306,,,,,,,,,,,,,1,5,3,stim/53.jpeg,Instruments,2,stim/objects/Instruments/balalaika.png,0.5,4,0.2,-0.15,right,77,2020-12-10_17h05.37.922,premup-three_ses-02_part-02_label-phase2,3.2.4,Win32,60,,,,,,,,,,,,,,,,,1,0,330,22,1,329,2,,,,,,
right,0.586000204,1,307,,,,,,,,,,,,,3,3,1,stim/31.jpeg,Instruments,2,stim/objects/Instruments/frenchhorn.png,0.9,1,-0.2,0.15,right,77,2020-12-10_17h05.37.922,premup-three_ses-02_part-02_label-phase2,3.2.4,Win32,60,,,,,,,,,,,,,,,,,1,0,330,202,1,329,2,,,,,,
left,0.537000179,1,308,,,,,,,,,,,,,3,4,4,stim/44.jpeg,HouseObjects,1,stim/objects/HouseObjects/glass.png,0.9,3,-0.2,-0.15,left,77,2020-12-10_17h05.37.922,premup-three_ses-02_part-02_label-phase2,3.2.4,Win32,60,,,,,,,,,,,,,,,,,1,0,330,269,1,329,2,,,,,,
left,0.560000181,1,309,,,,,,,,,,,,,3,4,3,stim/43.jpeg,HouseObjects,1,stim/objects/HouseObjects/flyswatter.png,0.9,4,0.2,-0.15,left,77,2020-12-10_17h05.37.922,premup-three_ses-02_part-02_label-phase2,3.2.4,Win32,60,,,,,,,,,,,,,,,,,1,0,330,292,1,329,2,,,,,,
right,0.600000143,0,310,,,,,,,,,,,,,3,3,3,stim/33.jpeg,HouseObjects,1,stim/objects/HouseObjects/hairdryer2.png,0.1,3,-0.2,-0.15,left,77,2020-12-10_17h05.37.922,premup-three_ses-02_part-02_label-phase2,3.2.4,Win32,60,,,,,,,,,,,,,,,,,1,0,330,136,1,329,1,,,,,,
left,0.674000263,0,311,,,,,,,,,,,,,3,4,3,stim/43.jpeg,Instruments,2,stim/objects/Instruments/trombone2.png,0.1,4,0.2,-0.15,right,77,2020-12-10_17h05.37.922,premup-three_ses-02_part-02_label-phase2,3.2.4,Win32,60,,,,,,,,,,,,,,,,,1,0,330,324,1,329,1,,,,,,
left,0.583000183,0,312,,,,,,,,,,,,,3,4,1,stim/41.jpeg,Instruments,2,stim/objects/Instruments/tuba2.png,0.1,3,-0.2,-0.15,right,77,2020-12-10_17h05.37.922,premup-three_ses-02_part-02_label-phase2,3.2.4,Win32,60,,,,,,,,,,,,,,,,,1,0,330,326,1,329,1,,,,,,
right,0.752000093,1,313,,,,,,,,,,,,,3,3,4,stim/34.jpeg,Instruments,2,stim/objects/Instruments/guitarcase2.png,0.9,4,0.2,-0.15,right,77,2020-12-10_17h05.37.922,premup-three_ses-02_part-02_label-phase2,3.2.4,Win32,60,,,,,,,,,,,,,,,,,1,0,330,225,1,329,1,,,,,,
right,0.535000086,1,314,,,,,,,,,,,,,3,3,4,stim/34.jpeg,Instruments,2,stim/objects/Instruments/flute.png,0.9,2,0.2,0.15,right,77,2020-12-10_17h05.37.922,premup-three_ses-02_part-02_label-phase2,3.2.4,Win32,60,,,,,,,,,,,,,,,,,1,0,330,185,1,329,2,,,,,,
left,0.506999969,1,315,,,,,,,,,,,,,2,2,4,stim/24.jpeg,HouseObjects,1,stim/objects/HouseObjects/clock2.png,0.7,3,-0.2,-0.15,left,77,2020-12-10_17h05.37.922,premup-three_ses-02_part-02_label-phase2,3.2.4,Win32,60,,,,,,,,,,,,,,,,,1,0,330,114,1,329,1,,,,,,
right,0.579000235,1,316,,,,,,,,,,,,,3,3,4,stim/34.jpeg,Instruments,2,stim/objects/Instruments/flutetrans.png,0.9,3,-0.2,-0.15,right,77,2020-12-10_17h05.37.922,premup-three_ses-02_part-02_label-phase2,3.2.4,Win32,60,,,,,,,,,,,,,,,,,1,0,330,141,1,329,2,,,,,,
left,0.553000212,1,317,,,,,,,,,,,,,3,4,4,stim/44.jpeg,HouseObjects,1,stim/objects/HouseObjects/garbagebin.png,0.9,3,-0.2,-0.15,left,77,2020-12-10_17h05.37.922,premup-three_ses-02_part-02_label-phase2,3.2.4,Win32,60,,,,,,,,,,,,,,,,,1,0,330,293,1,329,2,,,,,,
left,0.588000298,0,318,,,,,,,,,,,,,3,4,4,stim/44.jpeg,Instruments,2,stim/objects/Instruments/tambourine2.png,0.1,4,0.2,-0.15,right,77,2020-12-10_17h05.37.922,premup-three_ses-02_part-02_label-phase2,3.2.4,Win32,60,,,,,,,,,,,,,,,,,1,0,330,321,1,329,1,,,,,,
right,0.562000275,1,319,,,,,,,,,,,,,3,3,1,stim/31.jpeg,Instruments,2,stim/objects/Instruments/frenchhorn.png,0.9,2,0.2,0.15,right,77,2020-12-10_17h05.37.922,premup-three_ses-02_part-02_label-phase2,3.2.4,Win32,60,,,,,,,,,,,,,,,,,1,0,330,142,1,329,2,,,,,,
right,0.521000147,1,320,,,,,,,,,,,,,2,1,2,stim/12.jpeg,Instruments,2,stim/objects/Instruments/trumpet.png,0.7,4,0.2,-0.15,right,77,2020-12-10_17h05.37.922,premup-three_ses-02_part-02_label-phase2,3.2.4,Win32,60,,,,,,,,,,,,,,,,,1,0,330,85,1,329,1,,,,,,
right,0.747000217,1,321,,,,,,,,,,,,,2,2,1,stim/21.jpeg,Instruments,2,stim/objects/Instruments/clarinet2.png,0.3,1,-0.2,0.15,right,77,2020-12-10_17h05.37.922,premup-three_ses-02_part-02_label-phase2,3.2.4,Win32,60,,,,,,,,,,,,,,,,,1,0,330,123,1,329,1,,,,,,
right,0.677000046,0,322,,,,,,,,,,,,,3,3,2,stim/32.jpeg,HouseObjects,1,stim/objects/HouseObjects/glassmop2.png,0.1,3,-0.2,-0.15,left,77,2020-12-10_17h05.37.922,premup-three_ses-02_part-02_label-phase2,3.2.4,Win32,60,,,,,,,,,,,,,,,,,1,0,330,135,1,329,1,,,,,,
right,0.636000156,0,323,,,,,,,,,,,,,2,2,4,stim/24.jpeg,HouseObjects,1,stim/objects/HouseObjects/cushion2.png,0.7,4,0.2,-0.15,left,77,2020-12-10_17h05.37.922,premup-three_ses-02_part-02_label-phase2,3.2.4,Win32,60,,,,,,,,,,,,,,,,,1,0,330,118,1,329,1,,,,,,
right,0.664000273,0,324,,,,,,,,,,,,,1,6,2,stim/62.jpeg,HouseObjects,1,stim/objects/HouseObjects/scale.png,0.5,2,0.2,0.15,left,77,2020-12-10_17h05.37.922,premup-three_ses-02_part-02_label-phase2,3.2.4,Win32,60,,,,,,,,,,,,,,,,,1,0,330,41,1,329,1,,,,,,
,,0,325,,,,,,,,,,,,,2,2,2,stim/22.jpeg,HouseObjects,1,stim/objects/HouseObjects/dishsoap.png,0.7,2,0.2,0.15,left,77,2020-12-10_17h05.37.922,premup-three_ses-02_part-02_label-phase2,3.2.4,Win32,60,,,,,,,,,,,,,,,,,1,0,330,104,1,329,2,,,,,,
left,0.437000275,1,326,,,,,,,,,,,,,2,2,3,stim/23.jpeg,HouseObjects,1,stim/objects/HouseObjects/clothespin.png,0.7,2,0.2,0.15,left,77,2020-12-10_17h05.37.922,premup-three_ses-02_part-02_label-phase2,3.2.4,Win32,60,,,,,,,,,,,,,,,,,1,0,330,101,1,329,2,,,,,,
right,0.569000006,1,327,,,,,,,,,,,,,1,6,3,stim/63.jpeg,Instruments,2,stim/objects/Instruments/cello.png,0.5,1,-0.2,0.15,right,77,2020-12-10_17h05.37.922,premup-three_ses-02_part-02_label-phase2,3.2.4,Win32,60,,,,,,,,,,,,,,,,,1,0,330,46,1,329,2,,,,,,
left,0.634000063,1,328,,,,,,,,,,,,,3,4,2,stim/42.jpeg,HouseObjects,1,stim/objects/HouseObjects/dustpan.png,0.9,4,0.2,-0.15,left,77,2020-12-10_17h05.37.922,premup-three_ses-02_part-02_label-phase2,3.2.4,Win32,60,,,,,,,,,,,,,,,,,1,0,330,271,1,329,2,,,,,,
right,0.644000053,1,329,,,,,,,,,,,,,3,3,1,stim/31.jpeg,Instruments,2,stim/objects/Instruments/frenchhorn.png,0.9,1,-0.2,0.15,right,77,2020-12-10_17h05.37.922,premup-three_ses-02_part-02_label-phase2,3.2.4,Win32,60,,,,,,,,,,,,,,,,,1,0,330,162,1,329,2,,,,,,
right,0.694000244,1,330,,,,,,,,,,,,,2,1,3,stim/13.jpeg,Instruments,2,stim/objects/Instruments/drums.png,0.7,2,0.2,0.15,right,77,2020-12-10_17h05.37.922,premup-three_ses-02_part-02_label-phase2,3.2.4,Win32,60,,,,,,,,,,,,,,,,,1,0,330,82,1,329,2,,,,,,
right,0.542000294,1,331,,,,,,,,,,,,,1,6,4,stim/64.jpeg,Instruments,2,stim/objects/Instruments/cello.png,0.5,4,0.2,-0.15,right,77,2020-12-10_17h05.37.922,premup-three_ses-02_part-02_label-phase2,3.2.4,Win32,60,,,,,,,,,,,,,,,,,1,0,330,51,1,329,2,,,,,,
right,0.577000141,0,332,,,,,,,,,,,,,1,6,3,stim/63.jpeg,HouseObjects,1,stim/objects/HouseObjects/sponge.png,0.5,1,-0.2,0.15,left,77,2020-12-10_17h05.37.922,premup-three_ses-02_part-02_label-phase2,3.2.4,Win32,60,,,,,,,,,,,,,,,,,1,0,330,42,1,329,1,,,,,,
right,0.447000027,1,333,,,,,,,,,,,,,1,6,1,stim/61.jpeg,Instruments,2,stim/objects/Instruments/tambourine.png,0.5,2,0.2,0.15,right,77,2020-12-10_17h05.37.922,premup-three_ses-02_part-02_label-phase2,3.2.4,Win32,60,,,,,,,,,,,,,,,,,1,0,330,56,1,329,1,,,,,,
left,0.675000191,0,334,,,,,,,,,,,,,2,2,2,stim/22.jpeg,Instruments,2,stim/objects/Instruments/bassguitar2.png,0.3,4,0.2,-0.15,right,77,2020-12-10_17h05.37.922,premup-three_ses-02_part-02_label-phase2,3.2.4,Win32,60,,,,,,,,,,,,,,,,,1,0,330,120,1,329,1,,,,,,
right,0.495000124,1,335,,,,,,,,,,,,,3,3,2,stim/32.jpeg,Instruments,2,stim/objects/Instruments/gong.png,0.9,4,0.2,-0.15,right,77,2020-12-10_17h05.37.922,premup-three_ses-02_part-02_label-phase2,3.2.4,Win32,60,,,,,,,,,,,,,,,,,1,0,330,183,1,329,2,,,,,,
left,0.564000368,1,336,,,,,,,,,,,,,2,2,4,stim/24.jpeg,HouseObjects,1,stim/objects/HouseObjects/cushion.png,0.7,1,-0.2,0.15,left,77,2020-12-10_17h05.37.922,premup-three_ses-02_part-02_label-phase2,3.2.4,Win32,60,,,,,,,,,,,,,,,,,1,0,330,98,1,329,2,,,,,,
right,0.736000299,0,337,,,,,,,,,,,,,3,4,4,stim/44.jpeg,HouseObjects,1,stim/objects/HouseObjects/flyswatter.png,0.9,2,0.2,0.15,left,77,2020-12-10_17h05.37.922,premup-three_ses-02_part-02_label-phase2,3.2.4,Win32,60,,,,,,,,,,,,,,,,,1,0,330,237,1,329,2,,,,,,
left,0.635000229,1,338,,,,,,,,,,,,,3,4,2,stim/42.jpeg,HouseObjects,1,stim/objects/HouseObjects/doormat.png,0.9,1,-0.2,0.15,left,77,2020-12-10_17h05.37.922,premup-three_ses-02_part-02_label-phase2,3.2.4,Win32,60,,,,,,,,,,,,,,,,,1,0,330,235,1,329,2,,,,,,
left,0.701000214,1,339,,,,,,,,,,,,,3,4,3,stim/43.jpeg,HouseObjects,1,stim/objects/HouseObjects/dustpan.png,0.9,4,0.2,-0.15,left,77,2020-12-10_17h05.37.922,premup-three_ses-02_part-02_label-phase2,3.2.4,Win32,60,,,,,,,,,,,,,,,,,1,0,330,256,1,329,2,,,,,,
left,0.65500021,1,340,,,,,,,,,,,,,1,5,3,stim/53.jpeg,HouseObjects,1,stim/objects/HouseObjects/barbecuelighter.png,0.5,1,-0.2,0.15,left,77,2020-12-10_17h05.37.922,premup-three_ses-02_part-02_label-phase2,3.2.4,Win32,60,,,,,,,,,,,,,,,,,1,0,330,2,1,329,2,,,,,,
right,0.783000231,0,341,,,,,,,,,,,,,2,2,1,stim/21.jpeg,HouseObjects,1,stim/objects/HouseObjects/cushion.png,0.7,2,0.2,0.15,left,77,2020-12-10_17h05.37.922,premup-three_ses-02_part-02_label-phase2,3.2.4,Win32,60,,,,,,,,,,,,,,,,,1,0,330,103,1,329,2,,,,,,
left,0.588000059,1,342,,,,,,,,,,,,,3,4,1,stim/41.jpeg,HouseObjects,1,stim/objects/HouseObjects/garbagebin.png,0.9,3,-0.2,-0.15,left,77,2020-12-10_17h05.37.922,premup-three_ses-02_part-02_label-phase2,3.2.4,Win32,60,,,,,,,,,,,,,,,,,1,0,330,278,1,329,2,,,,,,
left,0.501000166,0,343,,,,,,,,,,,,,1,6,1,stim/61.jpeg,Instruments,2,stim/objects/Instruments/chime.png,0.5,3,-0.2,-0.15,right,77,2020-12-10_17h05.37.922,premup-three_ses-02_part-02_label-phase2,3.2.4,Win32,60,,,,,,,,,,,,,,,,,1,0,330,52,1,329,2,,,,,,
right,0.618000269,0,344,,,,,,,,,,,,,1,6,1,stim/61.jpeg,HouseObjects,1,stim/objects/HouseObjects/teapot.png,0.5,1,-0.2,0.15,left,77,2020-12-10_17h05.37.922,premup-three_ses-02_part-02_label-phase2,3.2.4,Win32,60,,,,,,,,,,,,,,,,,1,0,330,44,1,329,1,,,,,,
right,0.61400032,1,345,,,,,,,,,,,,,3,3,2,stim/32.jpeg,Instruments,2,stim/objects/Instruments/gong.png,0.9,3,-0.2,-0.15,right,77,2020-12-10_17h05.37.922,premup-three_ses-02_part-02_label-phase2,3.2.4,Win32,60,,,,,,,,,,,,,,,,,1,0,330,163,1,329,2,,,,,,
right,0.714000225,1,346,,,,,,,,,,,,,2,1,4,stim/14.jpeg,Instruments,2,stim/objects/Instruments/electricguitar.png,0.7,4,0.2,-0.15,right,77,2020-12-10_17h05.37.922,premup-three_ses-02_part-02_label-phase2,3.2.4,Win32,60,,,,,,,,,,,,,,,,,1,0,330,79,1,329,2,,,,,,
left,0.713000059,1,347,,,,,,,,,,,,,2,2,3,stim/23.jpeg,HouseObjects,1,stim/objects/HouseObjects/dishsoap.png,0.7,1,-0.2,0.15,left,77,2020-12-10_17h05.37.922,premup-three_ses-02_part-02_label-phase2,3.2.4,Win32,60,,,,,,,,,,,,,,,,,1,0,330,109,1,329,2,,,,,,
,,0,348,,,,,,,,,,,,,3,3,2,stim/32.jpeg,Instruments,2,stim/objects/Instruments/harp2.png,0.9,1,-0.2,0.15,right,77,2020-12-10_17h05.37.922,premup-three_ses-02_part-02_label-phase2,3.2.4,Win32,60,,,,,,,,,,,,,,,,,1,0,330,227,1,329,1,,,,,,
right,0.583000183,1,349,,,,,,,,,,,,,1,5,4,stim/54.jpeg,Instruments,2,stim/objects/Instruments/harp.png,0.5,4,0.2,-0.15,right,77,2020-12-10_17h05.37.922,premup-three_ses-02_part-02_label-phase2,3.2.4,Win32,60,,,,,,,,,,,,,,,,,1,0,330,27,1,329,1,,,,,,
right,0.586000204,1,350,,,,,,,,,,,,,3,3,2,stim/32.jpeg,Instruments,2,stim/objects/Instruments/flute.png,0.9,4,0.2,-0.15,right,77,2020-12-10_17h05.37.922,premup-three_ses-02_part-02_label-phase2,3.2.4,Win32,60,,,,,,,,,,,,,,,,,1,0,330,155,1,329,2,,,,,,
left,0.573000193,1,351,,,,,,,,,,,,,3,4,4,stim/44.jpeg,HouseObjects,1,stim/objects/HouseObjects/towel2.png,0.9,3,-0.2,-0.15,left,77,2020-12-10_17h05.37.922,premup-three_ses-02_part-02_label-phase2,3.2.4,Win32,60,,,,,,,,,,,,,,,,,1,0,330,317,1,329,1,,,,,,
right,0.759000063,0,352,,,,,,,,,,,,,3,3,2,stim/32.jpeg,HouseObjects,1,stim/objects/HouseObjects/dustpan2.png,0.1,2,0.2,0.15,left,77,2020-12-10_17h05.37.922,premup-three_ses-02_part-02_label-phase2,3.2.4,Win32,60,,,,,,,,,,,,,,,,,1,0,330,131,1,329,1,,,,,,
right,0.775000095,1,353,,,,,,,,,,,,,3,3,4,stim/34.jpeg,Instruments,2,stim/objects/Instruments/grandpiano.png,0.9,4,0.2,-0.15,right,77,2020-12-10_17h05.37.922,premup-three_ses-02_part-02_label-phase2,3.2.4,Win32,60,,,,,,,,,,,,,,,,,1,0,330,149,1,329,2,,,,,,
left,0.651000023,1,354,,,,,,,,,,,,,3,4,2,stim/42.jpeg,HouseObjects,1,stim/objects/HouseObjects/glass.png,0.9,4,0.2,-0.15,left,77,2020-12-10_17h05.37.922,premup-three_ses-02_part-02_label-phase2,3.2.4,Win32,60,,,,,,,,,,,,,,,,,1,0,330,279,1,329,2,,,,,,
right,0.677000284,1,355,,,,,,,,,,,,,3,3,2,stim/32.jpeg,Instruments,2,stim/objects/Instruments/flutetrans.png,0.9,1,-0.2,0.15,right,77,2020-12-10_17h05.37.922,premup-three_ses-02_part-02_label-phase2,3.2.4,Win32,60,,,,,,,,,,,,,,,,,1,0,330,211,1,329,2,,,,,,
right,0.632000208,1,356,,,,,,,,,,,,,3,3,1,stim/31.jpeg,Instruments,2,stim/objects/Instruments/harmonica2.png,0.9,1,-0.2,0.15,right,77,2020-12-10_17h05.37.922,premup-three_ses-02_part-02_label-phase2,3.2.4,Win32,60,,,,,,,,,,,,,,,,,1,0,330,226,1,329,1,,,,,,
right,0.690000296,0,357,,,,,,,,,,,,,3,3,1,stim/31.jpeg,HouseObjects,1,stim/objects/HouseObjects/handvacuum2.png,0.1,2,0.2,0.15,left,77,2020-12-10_17h05.37.922,premup-three_ses-02_part-02_label-phase2,3.2.4,Win32,60,,,,,,,,,,,,,,,,,1,0,330,138,1,329,1,,,,,,
,,0,358,,,,,,,,,,,,,2,2,2,stim/22.jpeg,Instruments,2,stim/objects/Instruments/electricdrumset2.png,0.3,2,0.2,0.15,right,77,2020-12-10_17h05.37.922,premup-three_ses-02_part-02_label-phase2,3.2.4,Win32,60,,,,,,,,,,,,,,,,,1,0,330,128,1,329,1,,,,,,
right,0.49000001,0,359,,,,,,,,,,,,,1,5,4,stim/54.jpeg,HouseObjects,1,stim/objects/HouseObjects/barbecuelighter.png,0.5,2,0.2,0.15,left,77,2020-12-10_17h05.37.922,premup-three_ses-02_part-02_label-phase2,3.2.4,Win32,60,,,,,,,,,,,,,,,,,1,0,330,7,1,329,2,,,,,,
right,0.601999998,1,360,,,,,,,,,,,,,2,1,3,stim/13.jpeg,Instruments,2,stim/objects/Instruments/bassdrum2.png,0.7,1,-0.2,0.15,right,77,2020-12-10_17h05.37.922,premup-three_ses-02_part-02_label-phase2,3.2.4,Win32,60,,,,,,,,,,,,,,,,,1,0,330,94,1,329,1,,,,,,
left,0.515000105,0,361,,,,,,,,,,,,,3,3,2,stim/32.jpeg,Instruments,2,stim/objects/Instruments/frenchhorn.png,0.9,2,0.2,0.15,right,77,2020-12-10_17h05.37.922,premup-three_ses-02_part-02_label-phase2,3.2.4,Win32,60,,,,,,,,,,,,,,,,,1,0,330,167,1,329,2,,,,,,
right,0.512000322,1,362,,,,,,,,,,,,,3,3,2,stim/32.jpeg,Instruments,2,stim/objects/Instruments/gong.png,0.9,1,-0.2,0.15,right,77,2020-12-10_17h05.37.922,premup-three_ses-02_part-02_label-phase2,3.2.4,Win32,60,,,,,,,,,,,,,,,,,1,0,330,203,1,329,2,,,,,,
right,0.511000156,0,363,,,,,,,,,,,,,2,1,4,stim/14.jpeg,HouseObjects,1,stim/objects/HouseObjects/vacuumcleaner.png,0.3,1,-0.2,0.15,left,77,2020-12-10_17h05.37.922,premup-three_ses-02_part-02_label-phase2,3.2.4,Win32,60,,,,,,,,,,,,,,,,,1,0,330,63,1,329,1,,,,,,
right,0.550000191,1,364,,,,,,,,,,,,,1,6,1,stim/61.jpeg,Instruments,2,stim/objects/Instruments/clarinet.png,0.5,4,0.2,-0.15,right,77,2020-12-10_17h05.37.922,premup-three_ses-02_part-02_label-phase2,3.2.4,Win32,60,,,,,,,,,,,,,,,,,1,0,330,48,1,329,2,,,,,,
left,0.5400002,1,365,,,,,,,,,,,,,3,4,4,stim/44.jpeg,HouseObjects,1,stim/objects/HouseObjects/dustpan.png,0.9,1,-0.2,0.15,left,77,2020-12-10_17h05.37.922,premup-three_ses-02_part-02_label-phase2,3.2.4,Win32,60,,,,,,,,,,,,,,,,,1,0,330,241,1,329,2,,,,,,
right,0.559000254,1,366,,,,,,,,,,,,,3,3,4,stim/34.jpeg,Instruments,2,stim/objects/Instruments/gong.png,0.9,4,0.2,-0.15,right,77,2020-12-10_17h05.37.922,premup-three_ses-02_part-02_label-phase2,3.2.4,Win32,60,,,,,,,,,,,,,,,,,1,0,330,213,1,329,2,,,,,,
left,0.582000256,1,367,,,,,,,,,,,,,2,2,4,stim/24.jpeg,HouseObjects,1,stim/objects/HouseObjects/coffee.png,0.7,4,0.2,-0.15,left,77,2020-12-10_17h05.37.922,premup-three_ses-02_part-02_label-phase2,3.2.4,Win32,60,,,,,,,,,,,,,,,,,1,0,330,102,1,329,2,,,,,,
right,0.430000067,1,368,,,,,,,,,,,,,3,3,3,stim/33.jpeg,Instruments,2,stim/objects/Instruments/flute.png,0.9,1,-0.2,0.15,right,77,2020-12-10_17h05.37.922,premup-three_ses-02_part-02_label-phase2,3.2.4,Win32,60,,,,,,,,,,,,,,,,,1,0,330,180,1,329,2,,,,,,
left,0.566000223,1,369,,,,,,,,,,,,,3,4,4,stim/44.jpeg,HouseObjects,1,stim/objects/HouseObjects/dustpan.png,0.9,3,-0.2,-0.15,left,77,2020-12-10_17h05.37.922,premup-three_ses-02_part-02_label-phase2,3.2.4,Win32,60,,,,,,,,,,,,,,,,,1,0,330,281,1,329,2,,,,,,
left,0.48300004,0,370,,,,,,,,,,,,,3,3,1,stim/31.jpeg,Instruments,2,stim/objects/Instruments/flutetrans.png,0.9,3,-0.2,-0.15,right,77,2020-12-10_17h05.37.922,premup-three_ses-02_part-02_label-phase2,3.2.4,Win32,60,,,,,,,,,,,,,,,,,1,0,330,166,1,329,2,,,,,,
left,0.712000132,1,371,,,,,,,,,,,,,1,5,2,stim/52.jpeg,HouseObjects,1,stim/objects/HouseObjects/ashtray.png,0.5,3,-0.2,-0.15,left,77,2020-12-10_17h05.37.922,premup-three_ses-02_part-02_label-phase2,3.2.4,Win32,60,,,,,,,,,,,,,,,,,1,0,330,5,1,329,2,,,,,,
right,0.610000134,1,372,,,,,,,,,,,,,2,1,4,stim/14.jpeg,Instruments,2,stim/objects/Instruments/violin.png,0.7,2,0.2,0.15,right,77,2020-12-10_17h05.37.922,premup-three_ses-02_part-02_label-phase2,3.2.4,Win32,60,,,,,,,,,,,,,,,,,1,0,330,87,1,329,1,,,,,,
left,0.572000265,1,373,,,,,,,,,,,,,2,2,3,stim/23.jpeg,HouseObjects,1,stim/objects/HouseObjects/coffee.png,0.7,3,-0.2,-0.15,left,77,2020-12-10_17h05.37.922,premup-three_ses-02_part-02_label-phase2,3.2.4,Win32,60,,,,,,,,,,,,,,,,,1,0,330,97,1,329,2,,,,,,
right,0.533000231,1,374,,,,,,,,,,,,,1,5,2,stim/52.jpeg,Instruments,2,stim/objects/Instruments/saxophone.png,0.5,2,0.2,0.15,right,77,2020-12-10_17h05.37.922,premup-three_ses-02_part-02_label-phase2,3.2.4,Win32,60,,,,,,,,,,,,,,,,,1,0,330,29,1,329,1,,,,,,
left,0.776000261,1,375,,,,,,,,,,,,,3,4,2,stim/42.jpeg,HouseObjects,1,stim/objects/HouseObjects/thermometer2.png,0.9,1,-0.2,0.15,left,77,2020-12-10_17h05.37.922,premup-three_ses-02_part-02_label-phase2,3.2.4,Win32,60,,,,,,,,,,,,,,,,,1,0,330,315,1,329,1,,,,,,
right,0.571000099,1,376,,,,,,,,,,,,,2,1,1,stim/11.jpeg,Instruments,2,stim/objects/Instruments/vuvuzela.png,0.7,2,0.2,0.15,right,77,2020-12-10_17h05.37.922,premup-three_ses-02_part-02_label-phase2,3.2.4,Win32,60,,,,,,,,,,,,,,,,,1,0,330,88,1,329,1,,,,,,
left,0.651000261,0,377,,,,,,,,,,,,,3,3,3,stim/33.jpeg,Instruments,2,stim/objects/Instruments/flutetrans.png,0.9,3,-0.2,-0.15,right,77,2020-12-10_17h05.37.922,premup-three_ses-02_part-02_label-phase2,3.2.4,Win32,60,,,,,,,,,,,,,,,,,1,0,330,216,1,329,2,,,,,,
left,0.745000124,1,378,,,,,,,,,,,,,2,1,2,stim/12.jpeg,HouseObjects,1,stim/objects/HouseObjects/ashtray2.png,0.3,2,0.2,0.15,left,77,2020-12-10_17h05.37.922,premup-three_ses-02_part-02_label-phase2,3.2.4,Win32,60,,,,,,,,,,,,,,,,,1,0,330,65,1,329,1,,,,,,
right,0.518000126,0,379,,,,,,,,,,,,,3,4,2,stim/42.jpeg,HouseObjects,1,stim/objects/HouseObjects/doormat.png,0.9,4,0.2,-0.15,left,77,2020-12-10_17h05.37.922,premup-three_ses-02_part-02_label-phase2,3.2.4,Win32,60,,,,,,,,,,,,,,,,,1,0,330,275,1,329,2,,,,,,
left,0.591000319,1,380,,,,,,,,,,,,,3,4,1,stim/41.jpeg,HouseObjects,1,stim/objects/HouseObjects/doormat.png,0.9,2,0.2,0.15,left,77,2020-12-10_17h05.37.922,premup-three_ses-02_part-02_label-phase2,3.2.4,Win32,60,,,,,,,,,,,,,,,,,1,0,330,230,1,329,2,,,,,,
left,0.521000147,1,381,,,,,,,,,,,,,3,4,1,stim/41.jpeg,HouseObjects,1,stim/objects/HouseObjects/flyswatter.png,0.9,1,-0.2,0.15,left,77,2020-12-10_17h05.37.922,premup-three_ses-02_part-02_label-phase2,3.2.4,Win32,60,,,,,,,,,,,,,,,,,1,0,330,302,1,329,2,,,,,,
left,0.493000031,1,382,,,,,,,,,,,,,3,4,4,stim/44.jpeg,HouseObjects,1,stim/objects/HouseObjects/doormat.png,0.9,1,-0.2,0.15,left,77,2020-12-10_17h05.37.922,premup-three_ses-02_part-02_label-phase2,3.2.4,Win32,60,,,,,,,,,,,,,,,,,1,0,330,245,1,329,2,,,,,,
