key_resp_pract.keys,key_resp_pract.rt,trial_acc,trial_index,practice_loop.thisRepN,practice_loop.thisTrialN,practice_loop.thisN,practice_loop.thisIndex,practice_loop.ran,practice_loop.order,scn_condition,scn_cat,scn_inst,scn_file,obj_cat,obj_cat_num,obj_file,trial_cond,quadrant,obj_x,obj_y,corr_ans,participant,date,expName,psychopyVersion,OS,frameRate,key_resp_trial.keys,key_resp_trial.rt,iterations.thisRepN,iterations.thisTrialN,iterations.thisN,iterations.thisIndex,iterations.ran,iterations.order,task_innerloop.thisRepN,task_innerloop.thisTrialN,task_innerloop.thisN,task_innerloop.thisIndex,task_innerloop.ran,task_innerloop.order,iteration_index,rating_acc,slider.response,slider.rt,slider_2.response,slider_2.rt,ratings.thisRepN,ratings.thisTrialN,ratings.thisN,ratings.thisIndex,ratings.ran,ratings.order,obj_cat_top,min_resp_top,max_resp_top,obj_cat_bottom,min_resp_bottom,max_resp_bottom
left,1.291000128,0,1,1,0,240,117,1,239,2,1,2,stim/12.jpeg,Instruments,2,stim/objects/Instruments/pipepiano.png,0.7,1,-0.2,0.15,right,77,2020-12-09_16h00.34.777,premup-three_ses-01_part-01_label-phase1,3.2.4,Win32,60,,,,,,,,,,,,,,,,,,,,,,,,,,,,,,,,
left,1.636000156,1,2,1,0,240,161,1,239,3,3,2,stim/32.jpeg,HouseObjects,1,stim/objects/HouseObjects/match2.png,0.1,4,0.2,-0.15,left,77,2020-12-09_16h00.34.777,premup-three_ses-01_part-01_label-phase1,3.2.4,Win32,60,,,,,,,,,,,,,,,,,,,,,,,,,,,,,,,,
right,0.893000364,0,3,1,0,240,142,1,239,2,2,3,stim/23.jpeg,HouseObjects,1,stim/objects/HouseObjects/key2.png,0.7,3,-0.2,-0.15,left,77,2020-12-09_16h00.34.777,premup-three_ses-01_part-01_label-phase1,3.2.4,Win32,60,,,,,,,,,,,,,,,,,,,,,,,,,,,,,,,,
right,1.214000225,1,4,1,0,240,112,1,239,2,1,1,stim/11.jpeg,Instruments,2,stim/objects/Instruments/panflute.png,0.7,2,0.2,0.15,right,77,2020-12-09_16h00.34.777,premup-three_ses-01_part-01_label-phase1,3.2.4,Win32,60,,,,,,,,,,,,,,,,,,,,,,,,,,,,,,,,
left,0.598000288,0,5,1,0,240,118,1,239,2,1,3,stim/13.jpeg,Instruments,2,stim/objects/Instruments/record.png,0.7,1,-0.2,0.15,right,77,2020-12-09_16h00.34.777,premup-three_ses-01_part-01_label-phase1,3.2.4,Win32,60,,,,,,,,,,,,,,,,,,,,,,,,,,,,,,,,
left,0.380000353,0,6,1,0,240,116,1,239,2,1,1,stim/11.jpeg,Instruments,2,stim/objects/Instruments/panflute.png,0.7,3,-0.2,-0.15,right,77,2020-12-09_16h00.34.777,premup-three_ses-01_part-01_label-phase1,3.2.4,Win32,60,,,,,,,,,,,,,,,,,,,,,,,,,,,,,,,,
,,0,7,1,0,240,7,1,239,1,5,4,stim/54.jpeg,HouseObjects,1,stim/objects/HouseObjects/knife.png,0.5,2,0.2,0.15,left,77,2020-12-09_16h00.34.777,premup-three_ses-01_part-01_label-phase1,3.2.4,Win32,60,,,,,,,,,,,,,,,,,,,,,,,,,,,,,,,,
right,1.021000147,0,8,1,0,240,90,1,239,2,1,3,stim/13.jpeg,HouseObjects,1,stim/objects/HouseObjects/rubbergloves.png,0.3,1,-0.2,0.15,left,77,2020-12-09_16h00.34.777,premup-three_ses-01_part-01_label-phase1,3.2.4,Win32,60,,,,,,,,,,,,,,,,,,,,,,,,,,,,,,,,
,,0,9,1,0,240,81,1,239,2,1,2,stim/12.jpeg,HouseObjects,1,stim/objects/HouseObjects/remote.png,0.3,2,0.2,0.15,left,77,2020-12-09_16h00.34.777,premup-three_ses-01_part-01_label-phase1,3.2.4,Win32,60,,,,,,,,,,,,,,,,,,,,,,,,,,,,,,,,
left,0.957000256,0,10,1,0,240,177,1,239,3,3,2,stim/32.jpeg,Instruments,2,stim/objects/Instruments/musicsheet2.png,0.9,4,0.2,-0.15,right,77,2020-12-09_16h00.34.777,premup-three_ses-01_part-01_label-phase1,3.2.4,Win32,60,,,,,,,,,,,,,,,,,,,,,,,,,,,,,,,,
,,1,1,,,,,,,1,5,2,stim/52.jpeg,HouseObjects,1,stim/objects/HouseObjects/ironingboard.png,0.5,1,-0.2,0.15,left,77,2020-12-09_16h00.34.777,premup-three_ses-01_part-01_label-phase1,3.2.4,Win32,60,left,1.230999947,4,0,4,0,1,3,1,0,240,13,1,239,,,,,,,,,,,,,,,,,,
,,1,2,,,,,,,3,4,1,stim/41.jpeg,HouseObjects,1,stim/objects/HouseObjects/recyclingbin2.png,0.9,2,0.2,0.15,left,77,2020-12-09_16h00.34.777,premup-three_ses-01_part-01_label-phase1,3.2.4,Win32,60,left,1.456000328,4,0,4,0,1,3,1,0,240,216,1,239,,,,,,,,,,,,,,,,,,
,,0,3,,,,,,,2,2,4,stim/24.jpeg,HouseObjects,1,stim/objects/HouseObjects/knife2.png,0.7,3,-0.2,-0.15,left,77,2020-12-09_16h00.34.777,premup-three_ses-01_part-01_label-phase1,3.2.4,Win32,60,right,0.820000172,4,0,4,0,1,3,1,0,240,143,1,239,,,,,,,,,,,,,,,,,,
,,0,4,,,,,,,1,6,3,stim/63.jpeg,HouseObjects,1,stim/objects/HouseObjects/pan.png,0.5,3,-0.2,-0.15,left,77,2020-12-09_16h00.34.777,premup-three_ses-01_part-01_label-phase1,3.2.4,Win32,60,,,4,0,4,0,1,3,1,0,240,54,1,239,,,,,,,,,,,,,,,,,,
,,1,5,,,,,,,1,5,2,stim/52.jpeg,Instruments,2,stim/objects/Instruments/laud.png,0.5,2,0.2,0.15,right,77,2020-12-09_16h00.34.777,premup-three_ses-01_part-01_label-phase1,3.2.4,Win32,60,right,1.78000021,4,0,4,0,1,3,1,0,240,21,1,239,,,,,,,,,,,,,,,,,,
,,1,6,,,,,,,1,5,1,stim/51.jpeg,Instruments,2,stim/objects/Instruments/keyboard.png,0.5,4,0.2,-0.15,right,77,2020-12-09_16h00.34.777,premup-three_ses-01_part-01_label-phase1,3.2.4,Win32,60,right,1.174000025,4,0,4,0,1,3,1,0,240,28,1,239,,,,,,,,,,,,,,,,,,
,,1,7,,,,,,,1,5,1,stim/51.jpeg,Instruments,2,stim/objects/Instruments/keyboard.png,0.5,1,-0.2,0.15,right,77,2020-12-09_16h00.34.777,premup-three_ses-01_part-01_label-phase1,3.2.4,Win32,60,right,1.019000053,4,0,4,0,1,3,1,0,240,24,1,239,,,,,,,,,,,,,,,,,,
,,1,8,,,,,,,2,1,3,stim/13.jpeg,Instruments,2,stim/objects/Instruments/record.png,0.7,1,-0.2,0.15,right,77,2020-12-09_16h00.34.777,premup-three_ses-01_part-01_label-phase1,3.2.4,Win32,60,right,1.187000036,4,0,4,0,1,3,1,0,240,102,1,239,,,,,,,,,,,,,,,,,,
,,1,9,,,,,,,2,2,2,stim/22.jpeg,HouseObjects,1,stim/objects/HouseObjects/ironingboard2.png,0.7,4,0.2,-0.15,left,77,2020-12-09_16h00.34.777,premup-three_ses-01_part-01_label-phase1,3.2.4,Win32,60,left,1.40500021,4,0,4,0,1,3,1,0,240,125,1,239,,,,,,,,,,,,,,,,,,
,,1,10,,,,,,,1,6,4,stim/64.jpeg,Instruments,2,stim/objects/Instruments/oboe.png,0.5,3,-0.2,-0.15,right,77,2020-12-09_16h00.34.777,premup-three_ses-01_part-01_label-phase1,3.2.4,Win32,60,right,0.987000227,4,0,4,0,1,3,1,0,240,79,1,239,,,,,,,,,,,,,,,,,,
,,0,11,,,,,,,2,2,1,stim/21.jpeg,HouseObjects,1,stim/objects/HouseObjects/iron2.png,0.7,1,-0.2,0.15,left,77,2020-12-09_16h00.34.777,premup-three_ses-01_part-01_label-phase1,3.2.4,Win32,60,right,1.421000242,4,0,4,0,1,3,1,0,240,136,1,239,,,,,,,,,,,,,,,,,,
,,1,12,,,,,,,1,6,3,stim/63.jpeg,Instruments,2,stim/objects/Instruments/musicstand.png,0.5,1,-0.2,0.15,right,77,2020-12-09_16h00.34.777,premup-three_ses-01_part-01_label-phase1,3.2.4,Win32,60,right,0.947000027,4,0,4,0,1,3,1,0,240,66,1,239,,,,,,,,,,,,,,,,,,
,,0,13,,,,,,,2,2,2,stim/22.jpeg,Instruments,2,stim/objects/Instruments/laud2.png,0.3,4,0.2,-0.15,right,77,2020-12-09_16h00.34.777,premup-three_ses-01_part-01_label-phase1,3.2.4,Win32,60,left,0.735000134,4,0,4,0,1,3,1,0,240,149,1,239,,,,,,,,,,,,,,,,,,
,,0,14,,,,,,,3,3,4,stim/34.jpeg,Instruments,2,stim/objects/Instruments/oboe2.png,0.9,3,-0.2,-0.15,right,77,2020-12-09_16h00.34.777,premup-three_ses-01_part-01_label-phase1,3.2.4,Win32,60,left,1.310000181,4,0,4,0,1,3,1,0,240,195,1,239,,,,,,,,,,,,,,,,,,
,,1,15,,,,,,,3,3,1,stim/31.jpeg,Instruments,2,stim/objects/Instruments/metronome2.png,0.9,3,-0.2,-0.15,right,77,2020-12-09_16h00.34.777,premup-three_ses-01_part-01_label-phase1,3.2.4,Win32,60,right,1.14800024,4,0,4,0,1,3,1,0,240,184,1,239,,,,,,,,,,,,,,,,,,
,,1,16,,,,,,,2,2,1,stim/21.jpeg,Instruments,2,stim/objects/Instruments/keyboard2.png,0.3,2,0.2,0.15,right,77,2020-12-09_16h00.34.777,premup-three_ses-01_part-01_label-phase1,3.2.4,Win32,60,right,1.065000296,4,0,4,0,1,3,1,0,240,148,1,239,,,,,,,,,,,,,,,,,,
,,0,17,,,,,,,2,1,1,stim/11.jpeg,Instruments,2,stim/objects/Instruments/panflute.png,0.7,1,-0.2,0.15,right,77,2020-12-09_16h00.34.777,premup-three_ses-01_part-01_label-phase1,3.2.4,Win32,60,left,1.111000299,4,0,4,0,1,3,1,0,240,92,1,239,,,,,,,,,,,,,,,,,,
,,0,18,,,,,,,1,6,2,stim/62.jpeg,Instruments,2,stim/objects/Instruments/musicsheet.png,0.5,4,0.2,-0.15,right,77,2020-12-09_16h00.34.777,premup-three_ses-01_part-01_label-phase1,3.2.4,Win32,60,left,1.247000217,4,0,4,0,1,3,1,0,240,61,1,239,,,,,,,,,,,,,,,,,,
,,0,19,,,,,,,2,2,1,stim/21.jpeg,HouseObjects,1,stim/objects/HouseObjects/iron2.png,0.7,1,-0.2,0.15,left,77,2020-12-09_16h00.34.777,premup-three_ses-01_part-01_label-phase1,3.2.4,Win32,60,right,0.758000135,4,0,4,0,1,3,1,0,240,132,1,239,,,,,,,,,,,,,,,,,,
,,0,20,,,,,,,1,5,3,stim/53.jpeg,Instruments,2,stim/objects/Instruments/maraca.png,0.5,3,-0.2,-0.15,right,77,2020-12-09_16h00.34.777,premup-three_ses-01_part-01_label-phase1,3.2.4,Win32,60,left,1.657000303,4,0,4,0,1,3,1,0,240,22,1,239,,,,,,,,,,,,,,,,,,
,,0,21,,,,,,,3,3,3,stim/33.jpeg,HouseObjects,1,stim/objects/HouseObjects/pan2.png,0.1,4,0.2,-0.15,left,77,2020-12-09_16h00.34.777,premup-three_ses-01_part-01_label-phase1,3.2.4,Win32,60,right,0.873000145,4,0,4,0,1,3,1,0,240,162,1,239,,,,,,,,,,,,,,,,,,
,,0,22,,,,,,,1,6,4,stim/64.jpeg,HouseObjects,1,stim/objects/HouseObjects/pitcher.png,0.5,4,0.2,-0.15,left,77,2020-12-09_16h00.34.777,premup-three_ses-01_part-01_label-phase1,3.2.4,Win32,60,right,1.197000265,4,0,4,0,1,3,1,0,240,59,1,239,,,,,,,,,,,,,,,,,,
,,1,23,,,,,,,1,5,2,stim/52.jpeg,HouseObjects,1,stim/objects/HouseObjects/ironingboard.png,0.5,2,0.2,0.15,left,77,2020-12-09_16h00.34.777,premup-three_ses-01_part-01_label-phase1,3.2.4,Win32,60,left,0.939000368,4,0,4,0,1,3,1,0,240,1,1,239,,,,,,,,,,,,,,,,,,
,,1,24,,,,,,,1,5,3,stim/53.jpeg,HouseObjects,1,stim/objects/HouseObjects/key.png,0.5,3,-0.2,-0.15,left,77,2020-12-09_16h00.34.777,premup-three_ses-01_part-01_label-phase1,3.2.4,Win32,60,left,0.796000004,4,0,4,0,1,3,1,0,240,10,1,239,,,,,,,,,,,,,,,,,,
,,0,25,,,,,,,3,3,4,stim/34.jpeg,Instruments,2,stim/objects/Instruments/oboe2.png,0.9,4,0.2,-0.15,right,77,2020-12-09_16h00.34.777,premup-three_ses-01_part-01_label-phase1,3.2.4,Win32,60,left,1.748000145,4,0,4,0,1,3,1,0,240,179,1,239,,,,,,,,,,,,,,,,,,
,,0,26,,,,,,,3,4,4,stim/44.jpeg,HouseObjects,1,stim/objects/HouseObjects/rug2.png,0.9,4,0.2,-0.15,left,77,2020-12-09_16h00.34.777,premup-three_ses-01_part-01_label-phase1,3.2.4,Win32,60,right,1.132000208,4,0,4,0,1,3,1,0,240,211,1,239,,,,,,,,,,,,,,,,,,
,,0,27,,,,,,,1,5,4,stim/54.jpeg,HouseObjects,1,stim/objects/HouseObjects/knife.png,0.5,3,-0.2,-0.15,left,77,2020-12-09_16h00.34.777,premup-three_ses-01_part-01_label-phase1,3.2.4,Win32,60,right,0.534000158,4,0,4,0,1,3,1,0,240,15,1,239,,,,,,,,,,,,,,,,,,
,,1,28,,,,,,,2,1,3,stim/13.jpeg,HouseObjects,1,stim/objects/HouseObjects/rubbergloves.png,0.3,4,0.2,-0.15,left,77,2020-12-09_16h00.34.777,premup-three_ses-01_part-01_label-phase1,3.2.4,Win32,60,left,1.33100009,4,0,4,0,1,3,1,0,240,86,1,239,,,,,,,,,,,,,,,,,,
,,0,29,,,,,,,3,3,2,stim/32.jpeg,Instruments,2,stim/objects/Instruments/musicsheet2.png,0.9,4,0.2,-0.15,right,77,2020-12-09_16h00.34.777,premup-three_ses-01_part-01_label-phase1,3.2.4,Win32,60,left,1.686000109,4,0,4,0,1,3,1,0,240,173,1,239,,,,,,,,,,,,,,,,,,
,,1,30,,,,,,,2,2,4,stim/24.jpeg,HouseObjects,1,stim/objects/HouseObjects/knife2.png,0.7,2,0.2,0.15,left,77,2020-12-09_16h00.34.777,premup-three_ses-01_part-01_label-phase1,3.2.4,Win32,60,left,1.267000198,4,0,4,0,1,3,1,0,240,135,1,239,,,,,,,,,,,,,,,,,,
,,0,31,,,,,,,3,4,4,stim/44.jpeg,HouseObjects,1,stim/objects/HouseObjects/rug2.png,0.9,1,-0.2,0.15,left,77,2020-12-09_16h00.34.777,premup-three_ses-01_part-01_label-phase1,3.2.4,Win32,60,right,1.743000031,4,0,4,0,1,3,1,0,240,207,1,239,,,,,,,,,,,,,,,,,,
,,0,32,,,,,,,1,6,2,stim/62.jpeg,HouseObjects,1,stim/objects/HouseObjects/match.png,0.5,4,0.2,-0.15,left,77,2020-12-09_16h00.34.777,premup-three_ses-01_part-01_label-phase1,3.2.4,Win32,60,right,1.072000265,4,0,4,0,1,3,1,0,240,45,1,239,,,,,,,,,,,,,,,,,,
,,0,33,,,,,,,3,3,3,stim/33.jpeg,Instruments,2,stim/objects/Instruments/musicstand2.png,0.9,1,-0.2,0.15,right,77,2020-12-09_16h00.34.777,premup-three_ses-01_part-01_label-phase1,3.2.4,Win32,60,,,4,0,4,0,1,3,1,0,240,170,1,239,,,,,,,,,,,,,,,,,,
,,0,34,,,,,,,1,5,4,stim/54.jpeg,Instruments,2,stim/objects/Instruments/marimba.png,0.5,2,0.2,0.15,right,77,2020-12-09_16h00.34.777,premup-three_ses-01_part-01_label-phase1,3.2.4,Win32,60,left,0.90500021,4,0,4,0,1,3,1,0,240,23,1,239,,,,,,,,,,,,,,,,,,
,,0,35,,,,,,,1,5,3,stim/53.jpeg,Instruments,2,stim/objects/Instruments/maraca.png,0.5,4,0.2,-0.15,right,77,2020-12-09_16h00.34.777,premup-three_ses-01_part-01_label-phase1,3.2.4,Win32,60,left,0.96600008,4,0,4,0,1,3,1,0,240,38,1,239,,,,,,,,,,,,,,,,,,
,,0,36,,,,,,,2,1,1,stim/11.jpeg,Instruments,2,stim/objects/Instruments/panflute.png,0.7,3,-0.2,-0.15,right,77,2020-12-09_16h00.34.777,premup-three_ses-01_part-01_label-phase1,3.2.4,Win32,60,left,1.445000172,4,0,4,0,1,3,1,0,240,116,1,239,,,,,,,,,,,,,,,,,,
,,1,37,,,,,,,3,3,2,stim/32.jpeg,Instruments,2,stim/objects/Instruments/musicsheet2.png,0.9,1,-0.2,0.15,right,77,2020-12-09_16h00.34.777,premup-three_ses-01_part-01_label-phase1,3.2.4,Win32,60,right,1.029000282,4,0,4,0,1,3,1,0,240,185,1,239,,,,,,,,,,,,,,,,,,
,,0,38,,,,,,,3,4,3,stim/43.jpeg,HouseObjects,1,stim/objects/HouseObjects/rubbergloves2.png,0.9,1,-0.2,0.15,left,77,2020-12-09_16h00.34.777,premup-three_ses-01_part-01_label-phase1,3.2.4,Win32,60,right,0.86400032,4,0,4,0,1,3,1,0,240,210,1,239,,,,,,,,,,,,,,,,,,
,,1,39,,,,,,,2,2,4,stim/24.jpeg,HouseObjects,1,stim/objects/HouseObjects/knife2.png,0.7,4,0.2,-0.15,left,77,2020-12-09_16h00.34.777,premup-three_ses-01_part-01_label-phase1,3.2.4,Win32,60,left,1.330000162,4,0,4,0,1,3,1,0,240,127,1,239,,,,,,,,,,,,,,,,,,
,,1,40,,,,,,,2,1,1,stim/11.jpeg,HouseObjects,1,stim/objects/HouseObjects/recyclingbin.png,0.3,4,0.2,-0.15,left,77,2020-12-09_16h00.34.777,premup-three_ses-01_part-01_label-phase1,3.2.4,Win32,60,left,1.534000158,4,0,4,0,1,3,1,0,240,84,1,239,,,,,,,,,,,,,,,,,,
,,1,41,,,,,,,3,4,1,stim/41.jpeg,Instruments,2,stim/objects/Instruments/panflute2.png,0.1,1,-0.2,0.15,right,77,2020-12-09_16h00.34.777,premup-three_ses-01_part-01_label-phase1,3.2.4,Win32,60,right,0.911000252,4,0,4,0,1,3,1,0,240,236,1,239,,,,,,,,,,,,,,,,,,
,,1,42,,,,,,,2,2,4,stim/24.jpeg,Instruments,2,stim/objects/Instruments/marimba2.png,0.3,2,0.2,0.15,right,77,2020-12-09_16h00.34.777,premup-three_ses-01_part-01_label-phase1,3.2.4,Win32,60,right,0.976000309,4,0,4,0,1,3,1,0,240,159,1,239,,,,,,,,,,,,,,,,,,
,,1,43,,,,,,,1,5,3,stim/53.jpeg,HouseObjects,1,stim/objects/HouseObjects/key.png,0.5,4,0.2,-0.15,left,77,2020-12-09_16h00.34.777,premup-three_ses-01_part-01_label-phase1,3.2.4,Win32,60,left,1.071000099,4,0,4,0,1,3,1,0,240,18,1,239,,,,,,,,,,,,,,,,,,
,,0,44,,,,,,,3,4,3,stim/43.jpeg,Instruments,2,stim/objects/Instruments/record2.png,0.1,3,-0.2,-0.15,right,77,2020-12-09_16h00.34.777,premup-three_ses-01_part-01_label-phase1,3.2.4,Win32,60,left,1.055000067,4,0,4,0,1,3,1,0,240,238,1,239,,,,,,,,,,,,,,,,,,
,,1,45,,,,,,,1,6,3,stim/63.jpeg,HouseObjects,1,stim/objects/HouseObjects/pan.png,0.5,1,-0.2,0.15,left,77,2020-12-09_16h00.34.777,premup-three_ses-01_part-01_label-phase1,3.2.4,Win32,60,left,1.349000216,4,0,4,0,1,3,1,0,240,42,1,239,,,,,,,,,,,,,,,,,,
,,0,46,,,,,,,3,3,2,stim/32.jpeg,Instruments,2,stim/objects/Instruments/musicsheet2.png,0.9,3,-0.2,-0.15,right,77,2020-12-09_16h00.34.777,premup-three_ses-01_part-01_label-phase1,3.2.4,Win32,60,,,4,0,4,0,1,3,1,0,240,169,1,239,,,,,,,,,,,,,,,,,,
,,0,47,,,,,,,1,5,4,stim/54.jpeg,Instruments,2,stim/objects/Instruments/marimba.png,0.5,3,-0.2,-0.15,right,77,2020-12-09_16h00.34.777,premup-three_ses-01_part-01_label-phase1,3.2.4,Win32,60,left,0.909000158,4,0,4,0,1,3,1,0,240,31,1,239,,,,,,,,,,,,,,,,,,
,,0,48,,,,,,,2,1,2,stim/12.jpeg,Instruments,2,stim/objects/Instruments/pipepiano.png,0.7,2,0.2,0.15,right,77,2020-12-09_16h00.34.777,premup-three_ses-01_part-01_label-phase1,3.2.4,Win32,60,left,0.978000164,4,0,4,0,1,3,1,0,240,105,1,239,,,,,,,,,,,,,,,,,,
,,0,49,,,,,,,1,6,1,stim/61.jpeg,HouseObjects,1,stim/objects/HouseObjects/lintroller.png,0.5,4,0.2,-0.15,left,77,2020-12-09_16h00.34.777,premup-three_ses-01_part-01_label-phase1,3.2.4,Win32,60,right,1.235000134,4,0,4,0,1,3,1,0,240,44,1,239,,,,,,,,,,,,,,,,,,
,,1,50,,,,,,,3,3,1,stim/31.jpeg,Instruments,2,stim/objects/Instruments/metronome2.png,0.9,2,0.2,0.15,right,77,2020-12-09_16h00.34.777,premup-three_ses-01_part-01_label-phase1,3.2.4,Win32,60,right,0.882000208,4,0,4,0,1,3,1,0,240,176,1,239,,,,,,,,,,,,,,,,,,
,,0,51,,,,,,,3,3,1,stim/31.jpeg,HouseObjects,1,stim/objects/HouseObjects/lintroller2.png,0.1,4,0.2,-0.15,left,77,2020-12-09_16h00.34.777,premup-three_ses-01_part-01_label-phase1,3.2.4,Win32,60,right,0.893000364,4,0,4,0,1,3,1,0,240,160,1,239,,,,,,,,,,,,,,,,,,
,,0,52,,,,,,,3,3,2,stim/32.jpeg,Instruments,2,stim/objects/Instruments/musicsheet2.png,0.9,4,0.2,-0.15,right,77,2020-12-09_16h00.34.777,premup-three_ses-01_part-01_label-phase1,3.2.4,Win32,60,left,0.674000025,4,0,4,0,1,3,1,0,240,189,1,239,,,,,,,,,,,,,,,,,,
,,1,53,,,,,,,2,1,4,stim/14.jpeg,Instruments,2,stim/objects/Instruments/record_player.png,0.7,4,0.2,-0.15,right,77,2020-12-09_16h00.34.777,premup-three_ses-01_part-01_label-phase1,3.2.4,Win32,60,right,0.989000082,4,0,4,0,1,3,1,0,240,115,1,239,,,,,,,,,,,,,,,,,,
,,0,54,,,,,,,2,2,2,stim/22.jpeg,Instruments,2,stim/objects/Instruments/laud2.png,0.3,4,0.2,-0.15,right,77,2020-12-09_16h00.34.777,premup-three_ses-01_part-01_label-phase1,3.2.4,Win32,60,left,0.926000118,4,0,4,0,1,3,1,0,240,157,1,239,,,,,,,,,,,,,,,,,,
,,0,55,,,,,,,3,4,4,stim/44.jpeg,HouseObjects,1,stim/objects/HouseObjects/rug2.png,0.9,2,0.2,0.15,left,77,2020-12-09_16h00.34.777,premup-three_ses-01_part-01_label-phase1,3.2.4,Win32,60,right,1.118000269,4,0,4,0,1,3,1,0,240,203,1,239,,,,,,,,,,,,,,,,,,
,,1,56,,,,,,,3,4,3,stim/43.jpeg,HouseObjects,1,stim/objects/HouseObjects/rubbergloves2.png,0.9,3,-0.2,-0.15,left,77,2020-12-09_16h00.34.777,premup-three_ses-01_part-01_label-phase1,3.2.4,Win32,60,left,0.645000219,4,0,4,0,1,3,1,0,240,230,1,239,,,,,,,,,,,,,,,,,,
,,1,57,,,,,,,1,6,4,stim/64.jpeg,HouseObjects,1,stim/objects/HouseObjects/pitcher.png,0.5,3,-0.2,-0.15,left,77,2020-12-09_16h00.34.777,premup-three_ses-01_part-01_label-phase1,3.2.4,Win32,60,left,1.248000145,4,0,4,0,1,3,1,0,240,43,1,239,,,,,,,,,,,,,,,,,,
,,1,58,,,,,,,2,1,2,stim/12.jpeg,Instruments,2,stim/objects/Instruments/pipepiano.png,0.7,1,-0.2,0.15,right,77,2020-12-09_16h00.34.777,premup-three_ses-01_part-01_label-phase1,3.2.4,Win32,60,right,1.220000267,4,0,4,0,1,3,1,0,240,93,1,239,,,,,,,,,,,,,,,,,,
,,0,59,,,,,,,2,1,4,stim/14.jpeg,HouseObjects,1,stim/objects/HouseObjects/rug.png,0.3,4,0.2,-0.15,left,77,2020-12-09_16h00.34.777,premup-three_ses-01_part-01_label-phase1,3.2.4,Win32,60,right,1.1650002,4,0,4,0,1,3,1,0,240,83,1,239,,,,,,,,,,,,,,,,,,
,,1,60,,,,,,,3,3,1,stim/31.jpeg,Instruments,2,stim/objects/Instruments/metronome2.png,0.9,1,-0.2,0.15,right,77,2020-12-09_16h00.34.777,premup-three_ses-01_part-01_label-phase1,3.2.4,Win32,60,right,0.902000189,4,0,4,0,1,3,1,0,240,172,1,239,,,,,,,,,,,,,,,,,,
,,1,61,,,,,,,2,2,3,stim/23.jpeg,HouseObjects,1,stim/objects/HouseObjects/key2.png,0.7,3,-0.2,-0.15,left,77,2020-12-09_16h00.34.777,premup-three_ses-01_part-01_label-phase1,3.2.4,Win32,60,left,0.713000059,4,0,4,0,1,3,1,0,240,142,1,239,,,,,,,,,,,,,,,,,,
,,0,62,,,,,,,1,6,3,stim/63.jpeg,Instruments,2,stim/objects/Instruments/musicstand.png,0.5,4,0.2,-0.15,right,77,2020-12-09_16h00.34.777,premup-three_ses-01_part-01_label-phase1,3.2.4,Win32,60,left,0.953000069,4,0,4,0,1,3,1,0,240,62,1,239,,,,,,,,,,,,,,,,,,
,,1,63,,,,,,,2,1,3,stim/13.jpeg,Instruments,2,stim/objects/Instruments/record.png,0.7,2,0.2,0.15,right,77,2020-12-09_16h00.34.777,premup-three_ses-01_part-01_label-phase1,3.2.4,Win32,60,right,1.298000336,4,0,4,0,1,3,1,0,240,98,1,239,,,,,,,,,,,,,,,,,,
,,0,64,,,,,,,3,4,3,stim/43.jpeg,HouseObjects,1,stim/objects/HouseObjects/rubbergloves2.png,0.9,2,0.2,0.15,left,77,2020-12-09_16h00.34.777,premup-three_ses-01_part-01_label-phase1,3.2.4,Win32,60,right,0.869000196,4,0,4,0,1,3,1,0,240,226,1,239,,,,,,,,,,,,,,,,,,
,,1,65,,,,,,,3,4,1,stim/41.jpeg,HouseObjects,1,stim/objects/HouseObjects/recyclingbin2.png,0.9,1,-0.2,0.15,left,77,2020-12-09_16h00.34.777,premup-three_ses-01_part-01_label-phase1,3.2.4,Win32,60,left,0.690000296,4,0,4,0,1,3,1,0,240,220,1,239,,,,,,,,,,,,,,,,,,
,,1,66,,,,,,,2,2,3,stim/23.jpeg,HouseObjects,1,stim/objects/HouseObjects/key2.png,0.7,3,-0.2,-0.15,left,77,2020-12-09_16h00.34.777,premup-three_ses-01_part-01_label-phase1,3.2.4,Win32,60,left,0.760000229,4,0,4,0,1,3,1,0,240,130,1,239,,,,,,,,,,,,,,,,,,
,,0,67,,,,,,,3,4,3,stim/43.jpeg,HouseObjects,1,stim/objects/HouseObjects/rubbergloves2.png,0.9,2,0.2,0.15,left,77,2020-12-09_16h00.34.777,premup-three_ses-01_part-01_label-phase1,3.2.4,Win32,60,right,0.909000158,4,0,4,0,1,3,1,0,240,218,1,239,,,,,,,,,,,,,,,,,,
,,1,68,,,,,,,2,1,3,stim/13.jpeg,Instruments,2,stim/objects/Instruments/record.png,0.7,4,0.2,-0.15,right,77,2020-12-09_16h00.34.777,premup-three_ses-01_part-01_label-phase1,3.2.4,Win32,60,right,0.948000193,4,0,4,0,1,3,1,0,240,114,1,239,,,,,,,,,,,,,,,,,,
,,0,69,,,,,,,1,6,4,stim/64.jpeg,Instruments,2,stim/objects/Instruments/oboe.png,0.5,3,-0.2,-0.15,right,77,2020-12-09_16h00.34.777,premup-three_ses-01_part-01_label-phase1,3.2.4,Win32,60,left,0.859000206,4,0,4,0,1,3,1,0,240,75,1,239,,,,,,,,,,,,,,,,,,
,,1,70,,,,,,,2,2,4,stim/24.jpeg,HouseObjects,1,stim/objects/HouseObjects/knife2.png,0.7,3,-0.2,-0.15,left,77,2020-12-09_16h00.34.777,premup-three_ses-01_part-01_label-phase1,3.2.4,Win32,60,left,0.572000265,4,0,4,0,1,3,1,0,240,139,1,239,,,,,,,,,,,,,,,,,,
,,0,71,,,,,,,2,2,4,stim/24.jpeg,Instruments,2,stim/objects/Instruments/marimba2.png,0.3,3,-0.2,-0.15,right,77,2020-12-09_16h00.34.777,premup-three_ses-01_part-01_label-phase1,3.2.4,Win32,60,left,0.80700016,4,0,4,0,1,3,1,0,240,151,1,239,,,,,,,,,,,,,,,,,,
,,1,72,,,,,,,1,5,4,stim/54.jpeg,HouseObjects,1,stim/objects/HouseObjects/knife.png,0.5,1,-0.2,0.15,left,77,2020-12-09_16h00.34.777,premup-three_ses-01_part-01_label-phase1,3.2.4,Win32,60,left,0.632000208,4,0,4,0,1,3,1,0,240,11,1,239,,,,,,,,,,,,,,,,,,
,,1,73,,,,,,,2,1,4,stim/14.jpeg,Instruments,2,stim/objects/Instruments/record_player.png,0.7,1,-0.2,0.15,right,77,2020-12-09_16h00.34.777,premup-three_ses-01_part-01_label-phase1,3.2.4,Win32,60,right,0.956000328,4,0,4,0,1,3,1,0,240,99,1,239,,,,,,,,,,,,,,,,,,
,,0,74,,,,,,,3,4,1,stim/41.jpeg,HouseObjects,1,stim/objects/HouseObjects/recyclingbin2.png,0.9,1,-0.2,0.15,left,77,2020-12-09_16h00.34.777,premup-three_ses-01_part-01_label-phase1,3.2.4,Win32,60,right,1.078000307,4,0,4,0,1,3,1,0,240,228,1,239,,,,,,,,,,,,,,,,,,
,,1,75,,,,,,,3,4,1,stim/41.jpeg,HouseObjects,1,stim/objects/HouseObjects/recyclingbin2.png,0.9,3,-0.2,-0.15,left,77,2020-12-09_16h00.34.777,premup-three_ses-01_part-01_label-phase1,3.2.4,Win32,60,left,0.858000278,4,0,4,0,1,3,1,0,240,204,1,239,,,,,,,,,,,,,,,,,,
,,1,76,,,,,,,3,3,3,stim/33.jpeg,Instruments,2,stim/objects/Instruments/musicstand2.png,0.9,2,0.2,0.15,right,77,2020-12-09_16h00.34.777,premup-three_ses-01_part-01_label-phase1,3.2.4,Win32,60,right,1.000000238,4,0,4,0,1,3,1,0,240,190,1,239,,,,,,,,,,,,,,,,,,
,,0,77,,,,,,,2,1,4,stim/14.jpeg,Instruments,2,stim/objects/Instruments/record_player.png,0.7,3,-0.2,-0.15,right,77,2020-12-09_16h00.34.777,premup-three_ses-01_part-01_label-phase1,3.2.4,Win32,60,left,0.978000164,4,0,4,0,1,3,1,0,240,111,1,239,,,,,,,,,,,,,,,,,,
,,1,78,,,,,,,1,6,3,stim/63.jpeg,Instruments,2,stim/objects/Instruments/musicstand.png,0.5,2,0.2,0.15,right,77,2020-12-09_16h00.34.777,premup-three_ses-01_part-01_label-phase1,3.2.4,Win32,60,right,1.175000191,4,0,4,0,1,3,1,0,240,78,1,239,,,,,,,,,,,,,,,,,,
,,0,79,,,,,,,1,6,2,stim/62.jpeg,HouseObjects,1,stim/objects/HouseObjects/match.png,0.5,3,-0.2,-0.15,left,77,2020-12-09_16h00.34.777,premup-three_ses-01_part-01_label-phase1,3.2.4,Win32,60,right,1.396000147,4,0,4,0,1,3,1,0,240,57,1,239,,,,,,,,,,,,,,,,,,
,,1,80,,,,,,,2,2,1,stim/21.jpeg,HouseObjects,1,stim/objects/HouseObjects/iron2.png,0.7,3,-0.2,-0.15,left,77,2020-12-09_16h00.34.777,premup-three_ses-01_part-01_label-phase1,3.2.4,Win32,60,left,0.707000256,4,0,4,0,1,3,1,0,240,140,1,239,,,,,,,,,,,,,,,,,,
,,0,81,,,,,,,1,5,1,stim/51.jpeg,HouseObjects,1,stim/objects/HouseObjects/iron.png,0.5,2,0.2,0.15,left,77,2020-12-09_16h00.34.777,premup-three_ses-01_part-01_label-phase1,3.2.4,Win32,60,right,0.761000156,4,0,4,0,1,3,1,0,240,12,1,239,,,,,,,,,,,,,,,,,,
,,0,82,,,,,,,2,2,3,stim/23.jpeg,HouseObjects,1,stim/objects/HouseObjects/key2.png,0.7,2,0.2,0.15,left,77,2020-12-09_16h00.34.777,premup-three_ses-01_part-01_label-phase1,3.2.4,Win32,60,right,1.356000185,4,0,4,0,1,3,1,0,240,146,1,239,,,,,,,,,,,,,,,,,,
,,1,83,,,,,,,2,1,4,stim/14.jpeg,HouseObjects,1,stim/objects/HouseObjects/rug.png,0.3,3,-0.2,-0.15,left,77,2020-12-09_16h00.34.777,premup-three_ses-01_part-01_label-phase1,3.2.4,Win32,60,left,1.170000076,4,0,4,0,1,3,1,0,240,91,1,239,,,,,,,,,,,,,,,,,,
,,1,84,,,,,,,2,1,4,stim/14.jpeg,Instruments,2,stim/objects/Instruments/record_player.png,0.7,2,0.2,0.15,right,77,2020-12-09_16h00.34.777,premup-three_ses-01_part-01_label-phase1,3.2.4,Win32,60,right,0.674000025,4,0,4,0,1,3,1,0,240,107,1,239,,,,,,,,,,,,,,,,,,
,,1,85,,,,,,,3,4,2,stim/42.jpeg,HouseObjects,1,stim/objects/HouseObjects/remote2.png,0.9,1,-0.2,0.15,left,77,2020-12-09_16h00.34.777,premup-three_ses-01_part-01_label-phase1,3.2.4,Win32,60,left,0.785000086,4,0,4,0,1,3,1,0,240,201,1,239,,,,,,,,,,,,,,,,,,
,,0,86,,,,,,,2,1,4,stim/14.jpeg,Instruments,2,stim/objects/Instruments/record_player.png,0.7,3,-0.2,-0.15,right,77,2020-12-09_16h00.34.777,premup-three_ses-01_part-01_label-phase1,3.2.4,Win32,60,left,1.059000015,4,0,4,0,1,3,1,0,240,95,1,239,,,,,,,,,,,,,,,,,,
,,1,87,,,,,,,3,3,1,stim/31.jpeg,Instruments,2,stim/objects/Instruments/metronome2.png,0.9,4,0.2,-0.15,right,77,2020-12-09_16h00.34.777,premup-three_ses-01_part-01_label-phase1,3.2.4,Win32,60,right,0.85800004,4,0,4,0,1,3,1,0,240,168,1,239,,,,,,,,,,,,,,,,,,
,,0,88,,,,,,,2,1,1,stim/11.jpeg,HouseObjects,1,stim/objects/HouseObjects/recyclingbin.png,0.3,2,0.2,0.15,left,77,2020-12-09_16h00.34.777,premup-three_ses-01_part-01_label-phase1,3.2.4,Win32,60,right,1.207000256,4,0,4,0,1,3,1,0,240,88,1,239,,,,,,,,,,,,,,,,,,
,,0,89,,,,,,,3,3,4,stim/34.jpeg,Instruments,2,stim/objects/Instruments/oboe2.png,0.9,1,-0.2,0.15,right,77,2020-12-09_16h00.34.777,premup-three_ses-01_part-01_label-phase1,3.2.4,Win32,60,left,0.586000204,4,0,4,0,1,3,1,0,240,183,1,239,,,,,,,,,,,,,,,,,,
,,0,90,,,,,,,1,5,4,stim/54.jpeg,HouseObjects,1,stim/objects/HouseObjects/knife.png,0.5,4,0.2,-0.15,left,77,2020-12-09_16h00.34.777,premup-three_ses-01_part-01_label-phase1,3.2.4,Win32,60,right,0.556000233,4,0,4,0,1,3,1,0,240,3,1,239,,,,,,,,,,,,,,,,,,
,,0,91,,,,,,,3,3,3,stim/33.jpeg,Instruments,2,stim/objects/Instruments/musicstand2.png,0.9,4,0.2,-0.15,right,77,2020-12-09_16h00.34.777,premup-three_ses-01_part-01_label-phase1,3.2.4,Win32,60,left,0.798000336,4,0,4,0,1,3,1,0,240,178,1,239,,,,,,,,,,,,,,,,,,
,,1,92,,,,,,,1,5,1,stim/51.jpeg,HouseObjects,1,stim/objects/HouseObjects/iron.png,0.5,1,-0.2,0.15,left,77,2020-12-09_16h00.34.777,premup-three_ses-01_part-01_label-phase1,3.2.4,Win32,60,left,0.958000183,4,0,4,0,1,3,1,0,240,16,1,239,,,,,,,,,,,,,,,,,,
,,0,93,,,,,,,3,3,4,stim/34.jpeg,Instruments,2,stim/objects/Instruments/oboe2.png,0.9,3,-0.2,-0.15,right,77,2020-12-09_16h00.34.777,premup-three_ses-01_part-01_label-phase1,3.2.4,Win32,60,left,1.042000055,4,0,4,0,1,3,1,0,240,191,1,239,,,,,,,,,,,,,,,,,,
,,0,94,,,,,,,2,2,3,stim/23.jpeg,Instruments,2,stim/objects/Instruments/maraca2.png,0.3,1,-0.2,0.15,right,77,2020-12-09_16h00.34.777,premup-three_ses-01_part-01_label-phase1,3.2.4,Win32,60,left,1.443000317,4,0,4,0,1,3,1,0,240,158,1,239,,,,,,,,,,,,,,,,,,
,,1,95,,,,,,,3,3,2,stim/32.jpeg,Instruments,2,stim/objects/Instruments/musicsheet2.png,0.9,4,0.2,-0.15,right,77,2020-12-09_16h00.34.777,premup-three_ses-01_part-01_label-phase1,3.2.4,Win32,60,right,0.669000149,4,0,4,0,1,3,1,0,240,181,1,239,,,,,,,,,,,,,,,,,,
,,1,96,,,,,,,1,6,2,stim/62.jpeg,Instruments,2,stim/objects/Instruments/musicsheet.png,0.5,1,-0.2,0.15,right,77,2020-12-09_16h00.34.777,premup-three_ses-01_part-01_label-phase1,3.2.4,Win32,60,right,1.259000063,4,0,4,0,1,3,1,0,240,69,1,239,,,,,,,,,,,,,,,,,,
,,1,97,,,,,,,2,2,4,stim/24.jpeg,HouseObjects,1,stim/objects/HouseObjects/knife2.png,0.7,2,0.2,0.15,left,77,2020-12-09_16h00.34.777,premup-three_ses-01_part-01_label-phase1,3.2.4,Win32,60,left,0.76300025,4,0,4,0,1,3,1,0,240,131,1,239,,,,,,,,,,,,,,,,,,
,,0,98,,,,,,,2,2,3,stim/23.jpeg,HouseObjects,1,stim/objects/HouseObjects/key2.png,0.7,1,-0.2,0.15,left,77,2020-12-09_16h00.34.777,premup-three_ses-01_part-01_label-phase1,3.2.4,Win32,60,right,0.976000309,4,0,4,0,1,3,1,0,240,126,1,239,,,,,,,,,,,,,,,,,,
,,1,99,,,,,,,1,5,2,stim/52.jpeg,HouseObjects,1,stim/objects/HouseObjects/ironingboard.png,0.5,3,-0.2,-0.15,left,77,2020-12-09_16h00.34.777,premup-three_ses-01_part-01_label-phase1,3.2.4,Win32,60,left,0.670000076,4,0,4,0,1,3,1,0,240,5,1,239,,,,,,,,,,,,,,,,,,
,,0,100,,,,,,,2,2,1,stim/21.jpeg,HouseObjects,1,stim/objects/HouseObjects/iron2.png,0.7,2,0.2,0.15,left,77,2020-12-09_16h00.34.777,premup-three_ses-01_part-01_label-phase1,3.2.4,Win32,60,right,1.0400002,4,0,4,0,1,3,1,0,240,144,1,239,,,,,,,,,,,,,,,,,,
,,1,101,,,,,,,1,6,4,stim/64.jpeg,HouseObjects,1,stim/objects/HouseObjects/pitcher.png,0.5,1,-0.2,0.15,left,77,2020-12-09_16h00.34.777,premup-three_ses-01_part-01_label-phase1,3.2.4,Win32,60,left,0.583000183,4,0,4,0,1,3,1,0,240,55,1,239,,,,,,,,,,,,,,,,,,
,,1,102,,,,,,,2,2,2,stim/22.jpeg,HouseObjects,1,stim/objects/HouseObjects/ironingboard2.png,0.7,3,-0.2,-0.15,left,77,2020-12-09_16h00.34.777,premup-three_ses-01_part-01_label-phase1,3.2.4,Win32,60,left,0.762000084,4,0,4,0,1,3,1,0,240,145,1,239,,,,,,,,,,,,,,,,,,
,,0,103,,,,,,,1,5,3,stim/53.jpeg,HouseObjects,1,stim/objects/HouseObjects/key.png,0.5,2,0.2,0.15,left,77,2020-12-09_16h00.34.777,premup-three_ses-01_part-01_label-phase1,3.2.4,Win32,60,right,0.837000132,4,0,4,0,1,3,1,0,240,14,1,239,,,,,,,,,,,,,,,,,,
,,0,104,,,,,,,3,3,3,stim/33.jpeg,Instruments,2,stim/objects/Instruments/musicstand2.png,0.9,2,0.2,0.15,right,77,2020-12-09_16h00.34.777,premup-three_ses-01_part-01_label-phase1,3.2.4,Win32,60,left,1.310000181,4,0,4,0,1,3,1,0,240,198,1,239,,,,,,,,,,,,,,,,,,
,,0,105,,,,,,,2,1,2,stim/12.jpeg,HouseObjects,1,stim/objects/HouseObjects/remote.png,0.3,1,-0.2,0.15,left,77,2020-12-09_16h00.34.777,premup-three_ses-01_part-01_label-phase1,3.2.4,Win32,60,right,0.886000156,4,0,4,0,1,3,1,0,240,89,1,239,,,,,,,,,,,,,,,,,,
,,0,106,,,,,,,3,4,4,stim/44.jpeg,HouseObjects,1,stim/objects/HouseObjects/rug2.png,0.9,4,0.2,-0.15,left,77,2020-12-09_16h00.34.777,premup-three_ses-01_part-01_label-phase1,3.2.4,Win32,60,right,0.658000231,4,0,4,0,1,3,1,0,240,235,1,239,,,,,,,,,,,,,,,,,,
,,1,107,,,,,,,2,1,1,stim/11.jpeg,HouseObjects,1,stim/objects/HouseObjects/recyclingbin.png,0.3,1,-0.2,0.15,left,77,2020-12-09_16h00.34.777,premup-three_ses-01_part-01_label-phase1,3.2.4,Win32,60,left,0.945000172,4,0,4,0,1,3,1,0,240,80,1,239,,,,,,,,,,,,,,,,,,
,,0,108,,,,,,,3,4,4,stim/44.jpeg,HouseObjects,1,stim/objects/HouseObjects/rug2.png,0.9,2,0.2,0.15,left,77,2020-12-09_16h00.34.777,premup-three_ses-01_part-01_label-phase1,3.2.4,Win32,60,right,1.560000181,4,0,4,0,1,3,1,0,240,231,1,239,,,,,,,,,,,,,,,,,,
,,0,109,,,,,,,1,5,2,stim/52.jpeg,Instruments,2,stim/objects/Instruments/laud.png,0.5,2,0.2,0.15,right,77,2020-12-09_16h00.34.777,premup-three_ses-01_part-01_label-phase1,3.2.4,Win32,60,left,0.867000103,4,0,4,0,1,3,1,0,240,29,1,239,,,,,,,,,,,,,,,,,,
,,1,110,,,,,,,1,5,1,stim/51.jpeg,HouseObjects,1,stim/objects/HouseObjects/iron.png,0.5,3,-0.2,-0.15,left,77,2020-12-09_16h00.34.777,premup-three_ses-01_part-01_label-phase1,3.2.4,Win32,60,left,0.946000099,4,0,4,0,1,3,1,0,240,0,1,239,,,,,,,,,,,,,,,,,,
,,0,111,,,,,,,1,6,4,stim/64.jpeg,Instruments,2,stim/objects/Instruments/oboe.png,0.5,1,-0.2,0.15,right,77,2020-12-09_16h00.34.777,premup-three_ses-01_part-01_label-phase1,3.2.4,Win32,60,left,0.822000265,4,0,4,0,1,3,1,0,240,71,1,239,,,,,,,,,,,,,,,,,,
,,0,112,,,,,,,2,2,4,stim/24.jpeg,Instruments,2,stim/objects/Instruments/marimba2.png,0.3,2,0.2,0.15,right,77,2020-12-09_16h00.34.777,premup-three_ses-01_part-01_label-phase1,3.2.4,Win32,60,left,0.82400012,4,0,4,0,1,3,1,0,240,155,1,239,,,,,,,,,,,,,,,,,,
,,0,113,,,,,,,2,1,3,stim/13.jpeg,HouseObjects,1,stim/objects/HouseObjects/rubbergloves.png,0.3,4,0.2,-0.15,left,77,2020-12-09_16h00.34.777,premup-three_ses-01_part-01_label-phase1,3.2.4,Win32,60,right,0.576000214,4,0,4,0,1,3,1,0,240,82,1,239,,,,,,,,,,,,,,,,,,
,,0,114,,,,,,,1,6,1,stim/61.jpeg,HouseObjects,1,stim/objects/HouseObjects/lintroller.png,0.5,2,0.2,0.15,left,77,2020-12-09_16h00.34.777,premup-three_ses-01_part-01_label-phase1,3.2.4,Win32,60,right,1.027000189,4,0,4,0,1,3,1,0,240,48,1,239,,,,,,,,,,,,,,,,,,
,,0,115,,,,,,,3,3,4,stim/34.jpeg,Instruments,2,stim/objects/Instruments/oboe2.png,0.9,1,-0.2,0.15,right,77,2020-12-09_16h00.34.777,premup-three_ses-01_part-01_label-phase1,3.2.4,Win32,60,left,0.399000168,4,0,4,0,1,3,1,0,240,199,1,239,,,,,,,,,,,,,,,,,,
,,1,116,,,,,,,3,4,4,stim/44.jpeg,HouseObjects,1,stim/objects/HouseObjects/rug2.png,0.9,2,0.2,0.15,left,77,2020-12-09_16h00.34.777,premup-three_ses-01_part-01_label-phase1,3.2.4,Win32,60,left,0.622000217,4,0,4,0,1,3,1,0,240,227,1,239,,,,,,,,,,,,,,,,,,
,,1,117,,,,,,,2,2,3,stim/23.jpeg,HouseObjects,1,stim/objects/HouseObjects/key2.png,0.7,1,-0.2,0.15,left,77,2020-12-09_16h00.34.777,premup-three_ses-01_part-01_label-phase1,3.2.4,Win32,60,left,1.190000057,4,0,4,0,1,3,1,0,240,138,1,239,,,,,,,,,,,,,,,,,,
,,1,118,,,,,,,1,5,1,stim/51.jpeg,Instruments,2,stim/objects/Instruments/keyboard.png,0.5,4,0.2,-0.15,right,77,2020-12-09_16h00.34.777,premup-three_ses-01_part-01_label-phase1,3.2.4,Win32,60,right,0.83100009,4,0,4,0,1,3,1,0,240,20,1,239,,,,,,,,,,,,,,,,,,
,,1,119,,,,,,,3,3,2,stim/32.jpeg,Instruments,2,stim/objects/Instruments/musicsheet2.png,0.9,4,0.2,-0.15,right,77,2020-12-09_16h00.34.777,premup-three_ses-01_part-01_label-phase1,3.2.4,Win32,60,right,0.933000088,4,0,4,0,1,3,1,0,240,177,1,239,,,,,,,,,,,,,,,,,,
,,0,120,,,,,,,3,3,3,stim/33.jpeg,Instruments,2,stim/objects/Instruments/musicstand2.png,0.9,1,-0.2,0.15,right,77,2020-12-09_16h00.34.777,premup-three_ses-01_part-01_label-phase1,3.2.4,Win32,60,left,0.810000181,4,0,4,0,1,3,1,0,240,194,1,239,,,,,,,,,,,,,,,,,,
,,1,121,,,,,,,1,5,1,stim/51.jpeg,HouseObjects,1,stim/objects/HouseObjects/iron.png,0.5,1,-0.2,0.15,left,77,2020-12-09_16h00.34.777,premup-three_ses-01_part-01_label-phase1,3.2.4,Win32,60,left,0.857000351,4,0,4,0,1,3,1,0,240,4,1,239,,,,,,,,,,,,,,,,,,
,,0,122,,,,,,,1,5,2,stim/52.jpeg,HouseObjects,1,stim/objects/HouseObjects/ironingboard.png,0.5,2,0.2,0.15,left,77,2020-12-09_16h00.34.777,premup-three_ses-01_part-01_label-phase1,3.2.4,Win32,60,right,0.947999954,4,0,4,0,1,3,1,0,240,9,1,239,,,,,,,,,,,,,,,,,,
,,1,123,,,,,,,3,4,3,stim/43.jpeg,HouseObjects,1,stim/objects/HouseObjects/rubbergloves2.png,0.9,2,0.2,0.15,left,77,2020-12-09_16h00.34.777,premup-three_ses-01_part-01_label-phase1,3.2.4,Win32,60,left,1.081000328,4,0,4,0,1,3,1,0,240,214,1,239,,,,,,,,,,,,,,,,,,
,,0,124,,,,,,,2,2,4,stim/24.jpeg,HouseObjects,1,stim/objects/HouseObjects/knife2.png,0.7,4,0.2,-0.15,left,77,2020-12-09_16h00.34.777,premup-three_ses-01_part-01_label-phase1,3.2.4,Win32,60,right,1.1650002,4,0,4,0,1,3,1,0,240,147,1,239,,,,,,,,,,,,,,,,,,
,,1,125,,,,,,,3,4,2,stim/42.jpeg,HouseObjects,1,stim/objects/HouseObjects/remote2.png,0.9,4,0.2,-0.15,left,77,2020-12-09_16h00.34.777,premup-three_ses-01_part-01_label-phase1,3.2.4,Win32,60,left,1.08100009,4,0,4,0,1,3,1,0,240,217,1,239,,,,,,,,,,,,,,,,,,
,,1,126,,,,,,,3,3,3,stim/33.jpeg,Instruments,2,stim/objects/Instruments/musicstand2.png,0.9,3,-0.2,-0.15,right,77,2020-12-09_16h00.34.777,premup-three_ses-01_part-01_label-phase1,3.2.4,Win32,60,right,0.778000116,4,0,4,0,1,3,1,0,240,186,1,239,,,,,,,,,,,,,,,,,,
,,1,127,,,,,,,2,2,4,stim/24.jpeg,HouseObjects,1,stim/objects/HouseObjects/knife2.png,0.7,4,0.2,-0.15,left,77,2020-12-09_16h00.34.777,premup-three_ses-01_part-01_label-phase1,3.2.4,Win32,60,left,1.633000135,4,0,4,0,1,3,1,0,240,123,1,239,,,,,,,,,,,,,,,,,,
,,0,128,,,,,,,2,1,2,stim/12.jpeg,HouseObjects,1,stim/objects/HouseObjects/remote.png,0.3,2,0.2,0.15,left,77,2020-12-09_16h00.34.777,premup-three_ses-01_part-01_label-phase1,3.2.4,Win32,60,right,1.212000132,4,0,4,0,1,3,1,0,240,85,1,239,,,,,,,,,,,,,,,,,,
,,0,129,,,,,,,1,6,1,stim/61.jpeg,HouseObjects,1,stim/objects/HouseObjects/lintroller.png,0.5,1,-0.2,0.15,left,77,2020-12-09_16h00.34.777,premup-three_ses-01_part-01_label-phase1,3.2.4,Win32,60,right,0.835000038,4,0,4,0,1,3,1,0,240,56,1,239,,,,,,,,,,,,,,,,,,
,,0,130,,,,,,,1,6,2,stim/62.jpeg,HouseObjects,1,stim/objects/HouseObjects/match.png,0.5,1,-0.2,0.15,left,77,2020-12-09_16h00.34.777,premup-three_ses-01_part-01_label-phase1,3.2.4,Win32,60,right,0.955000162,4,0,4,0,1,3,1,0,240,53,1,239,,,,,,,,,,,,,,,,,,
,,0,131,,,,,,,1,5,2,stim/52.jpeg,Instruments,2,stim/objects/Instruments/laud.png,0.5,4,0.2,-0.15,right,77,2020-12-09_16h00.34.777,premup-three_ses-01_part-01_label-phase1,3.2.4,Win32,60,left,0.770000219,4,0,4,0,1,3,1,0,240,37,1,239,,,,,,,,,,,,,,,,,,
,,1,132,,,,,,,2,1,2,stim/12.jpeg,Instruments,2,stim/objects/Instruments/pipepiano.png,0.7,1,-0.2,0.15,right,77,2020-12-09_16h00.34.777,premup-three_ses-01_part-01_label-phase1,3.2.4,Win32,60,right,0.88100028,4,0,4,0,1,3,1,0,240,117,1,239,,,,,,,,,,,,,,,,,,
,,0,133,,,,,,,3,4,2,stim/42.jpeg,HouseObjects,1,stim/objects/HouseObjects/remote2.png,0.9,1,-0.2,0.15,left,77,2020-12-09_16h00.34.777,premup-three_ses-01_part-01_label-phase1,3.2.4,Win32,60,right,1.058000088,4,0,4,0,1,3,1,0,240,209,1,239,,,,,,,,,,,,,,,,,,
,,1,134,,,,,,,3,3,4,stim/34.jpeg,HouseObjects,1,stim/objects/HouseObjects/pitcher2.png,0.1,3,-0.2,-0.15,left,77,2020-12-09_16h00.34.777,premup-three_ses-01_part-01_label-phase1,3.2.4,Win32,60,left,0.658000231,4,0,4,0,1,3,1,0,240,163,1,239,,,,,,,,,,,,,,,,,,
,,0,135,,,,,,,1,6,3,stim/63.jpeg,HouseObjects,1,stim/objects/HouseObjects/pan.png,0.5,4,0.2,-0.15,left,77,2020-12-09_16h00.34.777,premup-three_ses-01_part-01_label-phase1,3.2.4,Win32,60,right,0.904000282,4,0,4,0,1,3,1,0,240,46,1,239,,,,,,,,,,,,,,,,,,
,,0,136,,,,,,,1,5,3,stim/53.jpeg,Instruments,2,stim/objects/Instruments/maraca.png,0.5,3,-0.2,-0.15,right,77,2020-12-09_16h00.34.777,premup-three_ses-01_part-01_label-phase1,3.2.4,Win32,60,left,0.888000011,4,0,4,0,1,3,1,0,240,30,1,239,,,,,,,,,,,,,,,,,,
,,0,137,,,,,,,1,5,4,stim/54.jpeg,HouseObjects,1,stim/objects/HouseObjects/knife.png,0.5,4,0.2,-0.15,left,77,2020-12-09_16h00.34.777,premup-three_ses-01_part-01_label-phase1,3.2.4,Win32,60,right,0.868999958,4,0,4,0,1,3,1,0,240,19,1,239,,,,,,,,,,,,,,,,,,
,,0,138,,,,,,,1,5,3,stim/53.jpeg,Instruments,2,stim/objects/Instruments/maraca.png,0.5,2,0.2,0.15,right,77,2020-12-09_16h00.34.777,premup-three_ses-01_part-01_label-phase1,3.2.4,Win32,60,left,0.720000267,4,0,4,0,1,3,1,0,240,34,1,239,,,,,,,,,,,,,,,,,,
,,1,139,,,,,,,3,3,3,stim/33.jpeg,Instruments,2,stim/objects/Instruments/musicstand2.png,0.9,2,0.2,0.15,right,77,2020-12-09_16h00.34.777,premup-three_ses-01_part-01_label-phase1,3.2.4,Win32,60,right,1.310000181,4,0,4,0,1,3,1,0,240,166,1,239,,,,,,,,,,,,,,,,,,
,,1,140,,,,,,,2,2,2,stim/22.jpeg,HouseObjects,1,stim/objects/HouseObjects/ironingboard2.png,0.7,4,0.2,-0.15,left,77,2020-12-09_16h00.34.777,premup-three_ses-01_part-01_label-phase1,3.2.4,Win32,60,left,1.072000027,4,0,4,0,1,3,1,0,240,141,1,239,,,,,,,,,,,,,,,,,,
,,1,141,,,,,,,3,4,3,stim/43.jpeg,HouseObjects,1,stim/objects/HouseObjects/rubbergloves2.png,0.9,3,-0.2,-0.15,left,77,2020-12-09_16h00.34.777,premup-three_ses-01_part-01_label-phase1,3.2.4,Win32,60,left,0.950000286,4,0,4,0,1,3,1,0,240,206,1,239,,,,,,,,,,,,,,,,,,
,,0,142,,,,,,,1,6,1,stim/61.jpeg,Instruments,2,stim/objects/Instruments/metronome.png,0.5,3,-0.2,-0.15,right,77,2020-12-09_16h00.34.777,premup-three_ses-01_part-01_label-phase1,3.2.4,Win32,60,left,1.053000212,4,0,4,0,1,3,1,0,240,68,1,239,,,,,,,,,,,,,,,,,,
,,1,143,,,,,,,1,5,3,stim/53.jpeg,Instruments,2,stim/objects/Instruments/maraca.png,0.5,2,0.2,0.15,right,77,2020-12-09_16h00.34.777,premup-three_ses-01_part-01_label-phase1,3.2.4,Win32,60,right,1.002000332,4,0,4,0,1,3,1,0,240,26,1,239,,,,,,,,,,,,,,,,,,
,,1,144,,,,,,,3,3,3,stim/33.jpeg,Instruments,2,stim/objects/Instruments/musicstand2.png,0.9,2,0.2,0.15,right,77,2020-12-09_16h00.34.777,premup-three_ses-01_part-01_label-phase1,3.2.4,Win32,60,right,0.663000107,4,0,4,0,1,3,1,0,240,174,1,239,,,,,,,,,,,,,,,,,,
,,0,145,,,,,,,3,4,2,stim/42.jpeg,HouseObjects,1,stim/objects/HouseObjects/remote2.png,0.9,2,0.2,0.15,left,77,2020-12-09_16h00.34.777,premup-three_ses-01_part-01_label-phase1,3.2.4,Win32,60,right,1.49000001,4,0,4,0,1,3,1,0,240,225,1,239,,,,,,,,,,,,,,,,,,
,,1,146,,,,,,,2,2,3,stim/23.jpeg,Instruments,2,stim/objects/Instruments/maraca2.png,0.3,2,0.2,0.15,right,77,2020-12-09_16h00.34.777,premup-three_ses-01_part-01_label-phase1,3.2.4,Win32,60,right,1.224000216,4,0,4,0,1,3,1,0,240,154,1,239,,,,,,,,,,,,,,,,,,
,,1,147,,,,,,,1,5,2,stim/52.jpeg,Instruments,2,stim/objects/Instruments/laud.png,0.5,4,0.2,-0.15,right,77,2020-12-09_16h00.34.777,premup-three_ses-01_part-01_label-phase1,3.2.4,Win32,60,right,1.391000271,4,0,4,0,1,3,1,0,240,33,1,239,,,,,,,,,,,,,,,,,,
,,0,148,,,,,,,2,1,3,stim/13.jpeg,Instruments,2,stim/objects/Instruments/record.png,0.7,4,0.2,-0.15,right,77,2020-12-09_16h00.34.777,premup-three_ses-01_part-01_label-phase1,3.2.4,Win32,60,left,1.144000292,4,0,4,0,1,3,1,0,240,94,1,239,,,,,,,,,,,,,,,,,,
,,1,149,,,,,,,3,4,2,stim/42.jpeg,HouseObjects,1,stim/objects/HouseObjects/remote2.png,0.9,3,-0.2,-0.15,left,77,2020-12-09_16h00.34.777,premup-three_ses-01_part-01_label-phase1,3.2.4,Win32,60,left,0.70600009,4,0,4,0,1,3,1,0,240,205,1,239,,,,,,,,,,,,,,,,,,
,,1,150,,,,,,,2,2,2,stim/22.jpeg,HouseObjects,1,stim/objects/HouseObjects/ironingboard2.png,0.7,3,-0.2,-0.15,left,77,2020-12-09_16h00.34.777,premup-three_ses-01_part-01_label-phase1,3.2.4,Win32,60,left,0.960000277,4,0,4,0,1,3,1,0,240,121,1,239,,,,,,,,,,,,,,,,,,
,,0,151,,,,,,,1,6,1,stim/61.jpeg,HouseObjects,1,stim/objects/HouseObjects/lintroller.png,0.5,2,0.2,0.15,left,77,2020-12-09_16h00.34.777,premup-three_ses-01_part-01_label-phase1,3.2.4,Win32,60,right,1.170000076,4,0,4,0,1,3,1,0,240,52,1,239,,,,,,,,,,,,,,,,,,
,,1,152,,,,,,,2,1,4,stim/14.jpeg,HouseObjects,1,stim/objects/HouseObjects/rug.png,0.3,2,0.2,0.15,left,77,2020-12-09_16h00.34.777,premup-three_ses-01_part-01_label-phase1,3.2.4,Win32,60,left,1.046000242,4,0,4,0,1,3,1,0,240,87,1,239,,,,,,,,,,,,,,,,,,
,,1,153,,,,,,,1,5,4,stim/54.jpeg,Instruments,2,stim/objects/Instruments/marimba.png,0.5,2,0.2,0.15,right,77,2020-12-09_16h00.34.777,premup-three_ses-01_part-01_label-phase1,3.2.4,Win32,60,right,1.143000364,4,0,4,0,1,3,1,0,240,27,1,239,,,,,,,,,,,,,,,,,,
,,1,154,,,,,,,2,1,2,stim/12.jpeg,Instruments,2,stim/objects/Instruments/pipepiano.png,0.7,2,0.2,0.15,right,77,2020-12-09_16h00.34.777,premup-three_ses-01_part-01_label-phase1,3.2.4,Win32,60,right,0.634000063,4,0,4,0,1,3,1,0,240,109,1,239,,,,,,,,,,,,,,,,,,
,,0,155,,,,,,,3,3,4,stim/34.jpeg,Instruments,2,stim/objects/Instruments/oboe2.png,0.9,4,0.2,-0.15,right,77,2020-12-09_16h00.34.777,premup-three_ses-01_part-01_label-phase1,3.2.4,Win32,60,left,0.833000183,4,0,4,0,1,3,1,0,240,167,1,239,,,,,,,,,,,,,,,,,,
,,0,156,,,,,,,2,1,4,stim/14.jpeg,Instruments,2,stim/objects/Instruments/record_player.png,0.7,3,-0.2,-0.15,right,77,2020-12-09_16h00.34.777,premup-three_ses-01_part-01_label-phase1,3.2.4,Win32,60,left,0.912000179,4,0,4,0,1,3,1,0,240,103,1,239,,,,,,,,,,,,,,,,,,
,,0,157,,,,,,,1,6,4,stim/64.jpeg,Instruments,2,stim/objects/Instruments/oboe.png,0.5,2,0.2,0.15,right,77,2020-12-09_16h00.34.777,premup-three_ses-01_part-01_label-phase1,3.2.4,Win32,60,left,1.424000263,4,0,4,0,1,3,1,0,240,67,1,239,,,,,,,,,,,,,,,,,,
,,1,158,,,,,,,2,2,1,stim/21.jpeg,Instruments,2,stim/objects/Instruments/keyboard2.png,0.3,4,0.2,-0.15,right,77,2020-12-09_16h00.34.777,premup-three_ses-01_part-01_label-phase1,3.2.4,Win32,60,right,0.713000059,4,0,4,0,1,3,1,0,240,152,1,239,,,,,,,,,,,,,,,,,,
,,1,159,,,,,,,3,3,1,stim/31.jpeg,Instruments,2,stim/objects/Instruments/metronome2.png,0.9,3,-0.2,-0.15,right,77,2020-12-09_16h00.34.777,premup-three_ses-01_part-01_label-phase1,3.2.4,Win32,60,right,1.059000254,4,0,4,0,1,3,1,0,240,188,1,239,,,,,,,,,,,,,,,,,,
,,0,160,,,,,,,2,1,2,stim/12.jpeg,Instruments,2,stim/objects/Instruments/pipepiano.png,0.7,1,-0.2,0.15,right,77,2020-12-09_16h00.34.777,premup-three_ses-01_part-01_label-phase1,3.2.4,Win32,60,left,1.103000164,4,0,4,0,1,3,1,0,240,113,1,239,,,,,,,,,,,,,,,,,,
,,0,161,,,,,,,2,1,2,stim/12.jpeg,Instruments,2,stim/objects/Instruments/pipepiano.png,0.7,3,-0.2,-0.15,right,77,2020-12-09_16h00.34.777,premup-three_ses-01_part-01_label-phase1,3.2.4,Win32,60,left,1.110000134,4,0,4,0,1,3,1,0,240,97,1,239,,,,,,,,,,,,,,,,,,
,,1,162,,,,,,,2,2,2,stim/22.jpeg,HouseObjects,1,stim/objects/HouseObjects/ironingboard2.png,0.7,1,-0.2,0.15,left,77,2020-12-09_16h00.34.777,premup-three_ses-01_part-01_label-phase1,3.2.4,Win32,60,left,1.020000219,4,0,4,0,1,3,1,0,240,133,1,239,,,,,,,,,,,,,,,,,,
,,0,163,,,,,,,1,5,1,stim/51.jpeg,Instruments,2,stim/objects/Instruments/keyboard.png,0.5,4,0.2,-0.15,right,77,2020-12-09_16h00.34.777,premup-three_ses-01_part-01_label-phase1,3.2.4,Win32,60,left,1.529000282,4,0,4,0,1,3,1,0,240,36,1,239,,,,,,,,,,,,,,,,,,
,,0,164,,,,,,,2,2,2,stim/22.jpeg,Instruments,2,stim/objects/Instruments/laud2.png,0.3,3,-0.2,-0.15,right,77,2020-12-09_16h00.34.777,premup-three_ses-01_part-01_label-phase1,3.2.4,Win32,60,left,0.765000343,4,0,4,0,1,3,1,0,240,153,1,239,,,,,,,,,,,,,,,,,,
,,1,165,,,,,,,3,3,2,stim/32.jpeg,Instruments,2,stim/objects/Instruments/musicsheet2.png,0.9,4,0.2,-0.15,right,77,2020-12-09_16h00.34.777,premup-three_ses-01_part-01_label-phase1,3.2.4,Win32,60,right,0.715000153,4,0,4,0,1,3,1,0,240,165,1,239,,,,,,,,,,,,,,,,,,
,,1,166,,,,,,,1,5,4,stim/54.jpeg,Instruments,2,stim/objects/Instruments/marimba.png,0.5,4,0.2,-0.15,right,77,2020-12-09_16h00.34.777,premup-three_ses-01_part-01_label-phase1,3.2.4,Win32,60,right,0.918000221,4,0,4,0,1,3,1,0,240,35,1,239,,,,,,,,,,,,,,,,,,
,,1,167,,,,,,,3,4,1,stim/41.jpeg,HouseObjects,1,stim/objects/HouseObjects/recyclingbin2.png,0.9,3,-0.2,-0.15,left,77,2020-12-09_16h00.34.777,premup-three_ses-01_part-01_label-phase1,3.2.4,Win32,60,left,0.810000181,4,0,4,0,1,3,1,0,240,212,1,239,,,,,,,,,,,,,,,,,,
,,0,168,,,,,,,1,6,2,stim/62.jpeg,Instruments,2,stim/objects/Instruments/musicsheet.png,0.5,1,-0.2,0.15,right,77,2020-12-09_16h00.34.777,premup-three_ses-01_part-01_label-phase1,3.2.4,Win32,60,left,1.732000113,4,0,4,0,1,3,1,0,240,73,1,239,,,,,,,,,,,,,,,,,,
,,1,169,,,,,,,2,2,1,stim/21.jpeg,HouseObjects,1,stim/objects/HouseObjects/iron2.png,0.7,1,-0.2,0.15,left,77,2020-12-09_16h00.34.777,premup-three_ses-01_part-01_label-phase1,3.2.4,Win32,60,left,0.750000238,4,0,4,0,1,3,1,0,240,124,1,239,,,,,,,,,,,,,,,,,,
,,1,170,,,,,,,2,1,4,stim/14.jpeg,Instruments,2,stim/objects/Instruments/record_player.png,0.7,4,0.2,-0.15,right,77,2020-12-09_16h00.34.777,premup-three_ses-01_part-01_label-phase1,3.2.4,Win32,60,right,1.000000238,4,0,4,0,1,3,1,0,240,119,1,239,,,,,,,,,,,,,,,,,,
,,0,171,,,,,,,2,1,3,stim/13.jpeg,HouseObjects,1,stim/objects/HouseObjects/rubbergloves.png,0.3,1,-0.2,0.15,left,77,2020-12-09_16h00.34.777,premup-three_ses-01_part-01_label-phase1,3.2.4,Win32,60,right,0.746000051,4,0,4,0,1,3,1,0,240,90,1,239,,,,,,,,,,,,,,,,,,
,,0,172,,,,,,,3,3,1,stim/31.jpeg,Instruments,2,stim/objects/Instruments/metronome2.png,0.9,1,-0.2,0.15,right,77,2020-12-09_16h00.34.777,premup-three_ses-01_part-01_label-phase1,3.2.4,Win32,60,left,0.828999996,4,0,4,0,1,3,1,0,240,164,1,239,,,,,,,,,,,,,,,,,,
,,1,173,,,,,,,1,6,4,stim/64.jpeg,HouseObjects,1,stim/objects/HouseObjects/pitcher.png,0.5,3,-0.2,-0.15,left,77,2020-12-09_16h00.34.777,premup-three_ses-01_part-01_label-phase1,3.2.4,Win32,60,left,0.767000198,4,0,4,0,1,3,1,0,240,47,1,239,,,,,,,,,,,,,,,,,,
,,0,174,,,,,,,1,6,3,stim/63.jpeg,HouseObjects,1,stim/objects/HouseObjects/pan.png,0.5,1,-0.2,0.15,left,77,2020-12-09_16h00.34.777,premup-three_ses-01_part-01_label-phase1,3.2.4,Win32,60,right,0.930000305,4,0,4,0,1,3,1,0,240,58,1,239,,,,,,,,,,,,,,,,,,
,,1,175,,,,,,,3,4,3,stim/43.jpeg,HouseObjects,1,stim/objects/HouseObjects/rubbergloves2.png,0.9,4,0.2,-0.15,left,77,2020-12-09_16h00.34.777,premup-three_ses-01_part-01_label-phase1,3.2.4,Win32,60,left,0.878000259,4,0,4,0,1,3,1,0,240,222,1,239,,,,,,,,,,,,,,,,,,
,,0,176,,,,,,,1,6,3,stim/63.jpeg,Instruments,2,stim/objects/Instruments/musicstand.png,0.5,3,-0.2,-0.15,right,77,2020-12-09_16h00.34.777,premup-three_ses-01_part-01_label-phase1,3.2.4,Win32,60,left,0.973000288,4,0,4,0,1,3,1,0,240,70,1,239,,,,,,,,,,,,,,,,,,
,,0,177,,,,,,,1,6,4,stim/64.jpeg,Instruments,2,stim/objects/Instruments/oboe.png,0.5,3,-0.2,-0.15,right,77,2020-12-09_16h00.34.777,premup-three_ses-01_part-01_label-phase1,3.2.4,Win32,60,left,0.734000206,4,0,4,0,1,3,1,0,240,63,1,239,,,,,,,,,,,,,,,,,,
,,0,178,,,,,,,1,6,3,stim/63.jpeg,Instruments,2,stim/objects/Instruments/musicstand.png,0.5,1,-0.2,0.15,right,77,2020-12-09_16h00.34.777,premup-three_ses-01_part-01_label-phase1,3.2.4,Win32,60,left,0.819000244,4,0,4,0,1,3,1,0,240,74,1,239,,,,,,,,,,,,,,,,,,
,,1,179,,,,,,,2,1,1,stim/11.jpeg,Instruments,2,stim/objects/Instruments/panflute.png,0.7,2,0.2,0.15,right,77,2020-12-09_16h00.34.777,premup-three_ses-01_part-01_label-phase1,3.2.4,Win32,60,right,0.89800024,4,0,4,0,1,3,1,0,240,112,1,239,,,,,,,,,,,,,,,,,,
,,0,180,,,,,,,1,5,1,stim/51.jpeg,Instruments,2,stim/objects/Instruments/keyboard.png,0.5,1,-0.2,0.15,right,77,2020-12-09_16h00.34.777,premup-three_ses-01_part-01_label-phase1,3.2.4,Win32,60,left,1.041000366,4,0,4,0,1,3,1,0,240,32,1,239,,,,,,,,,,,,,,,,,,
,,1,181,,,,,,,2,2,1,stim/21.jpeg,HouseObjects,1,stim/objects/HouseObjects/iron2.png,0.7,1,-0.2,0.15,left,77,2020-12-09_16h00.34.777,premup-three_ses-01_part-01_label-phase1,3.2.4,Win32,60,left,0.701000214,4,0,4,0,1,3,1,0,240,120,1,239,,,,,,,,,,,,,,,,,,
,,0,182,,,,,,,3,4,4,stim/44.jpeg,Instruments,2,stim/objects/Instruments/record_player2.png,0.1,3,-0.2,-0.15,right,77,2020-12-09_16h00.34.777,premup-three_ses-01_part-01_label-phase1,3.2.4,Win32,60,left,1.269000292,4,0,4,0,1,3,1,0,240,239,1,239,,,,,,,,,,,,,,,,,,
,,1,183,,,,,,,3,4,1,stim/41.jpeg,HouseObjects,1,stim/objects/HouseObjects/recyclingbin2.png,0.9,1,-0.2,0.15,left,77,2020-12-09_16h00.34.777,premup-three_ses-01_part-01_label-phase1,3.2.4,Win32,60,left,1.046000242,4,0,4,0,1,3,1,0,240,224,1,239,,,,,,,,,,,,,,,,,,
,,0,184,,,,,,,1,6,1,stim/61.jpeg,HouseObjects,1,stim/objects/HouseObjects/lintroller.png,0.5,4,0.2,-0.15,left,77,2020-12-09_16h00.34.777,premup-three_ses-01_part-01_label-phase1,3.2.4,Win32,60,right,0.877000332,4,0,4,0,1,3,1,0,240,40,1,239,,,,,,,,,,,,,,,,,,
,,0,185,,,,,,,3,4,2,stim/42.jpeg,Instruments,2,stim/objects/Instruments/pipepiano2.png,0.1,3,-0.2,-0.15,right,77,2020-12-09_16h00.34.777,premup-three_ses-01_part-01_label-phase1,3.2.4,Win32,60,left,0.787000179,4,0,4,0,1,3,1,0,240,237,1,239,,,,,,,,,,,,,,,,,,
,,1,186,,,,,,,3,4,4,stim/44.jpeg,HouseObjects,1,stim/objects/HouseObjects/rug2.png,0.9,4,0.2,-0.15,left,77,2020-12-09_16h00.34.777,premup-three_ses-01_part-01_label-phase1,3.2.4,Win32,60,left,1.213999987,4,0,4,0,1,3,1,0,240,215,1,239,,,,,,,,,,,,,,,,,,
,,0,187,,,,,,,2,2,2,stim/22.jpeg,HouseObjects,1,stim/objects/HouseObjects/ironingboard2.png,0.7,3,-0.2,-0.15,left,77,2020-12-09_16h00.34.777,premup-three_ses-01_part-01_label-phase1,3.2.4,Win32,60,right,0.727000237,4,0,4,0,1,3,1,0,240,137,1,239,,,,,,,,,,,,,,,,,,
,,0,188,,,,,,,2,1,3,stim/13.jpeg,Instruments,2,stim/objects/Instruments/record.png,0.7,1,-0.2,0.15,right,77,2020-12-09_16h00.34.777,premup-three_ses-01_part-01_label-phase1,3.2.4,Win32,60,left,0.730000257,4,0,4,0,1,3,1,0,240,118,1,239,,,,,,,,,,,,,,,,,,
,,0,189,,,,,,,3,3,1,stim/31.jpeg,Instruments,2,stim/objects/Instruments/metronome2.png,0.9,3,-0.2,-0.15,right,77,2020-12-09_16h00.34.777,premup-three_ses-01_part-01_label-phase1,3.2.4,Win32,60,left,0.532000065,4,0,4,0,1,3,1,0,240,192,1,239,,,,,,,,,,,,,,,,,,
,,1,190,,,,,,,3,4,2,stim/42.jpeg,HouseObjects,1,stim/objects/HouseObjects/remote2.png,0.9,3,-0.2,-0.15,left,77,2020-12-09_16h00.34.777,premup-three_ses-01_part-01_label-phase1,3.2.4,Win32,60,left,0.899000168,4,0,4,0,1,3,1,0,240,221,1,239,,,,,,,,,,,,,,,,,,
,,0,191,,,,,,,1,5,2,stim/52.jpeg,HouseObjects,1,stim/objects/HouseObjects/ironingboard.png,0.5,2,0.2,0.15,left,77,2020-12-09_16h00.34.777,premup-three_ses-01_part-01_label-phase1,3.2.4,Win32,60,right,0.719000101,4,0,4,0,1,3,1,0,240,17,1,239,,,,,,,,,,,,,,,,,,
,,1,192,,,,,,,1,6,1,stim/61.jpeg,Instruments,2,stim/objects/Instruments/metronome.png,0.5,3,-0.2,-0.15,right,77,2020-12-09_16h00.34.777,premup-three_ses-01_part-01_label-phase1,3.2.4,Win32,60,right,1.00600028,4,0,4,0,1,3,1,0,240,76,1,239,,,,,,,,,,,,,,,,,,
,,1,193,,,,,,,3,3,4,stim/34.jpeg,Instruments,2,stim/objects/Instruments/oboe2.png,0.9,2,0.2,0.15,right,77,2020-12-09_16h00.34.777,premup-three_ses-01_part-01_label-phase1,3.2.4,Win32,60,right,0.633000374,4,0,4,0,1,3,1,0,240,187,1,239,,,,,,,,,,,,,,,,,,
,,0,194,,,,,,,1,6,1,stim/61.jpeg,Instruments,2,stim/objects/Instruments/metronome.png,0.5,1,-0.2,0.15,right,77,2020-12-09_16h00.34.777,premup-three_ses-01_part-01_label-phase1,3.2.4,Win32,60,left,1.049000263,4,0,4,0,1,3,1,0,240,72,1,239,,,,,,,,,,,,,,,,,,
,,1,195,,,,,,,3,4,2,stim/42.jpeg,HouseObjects,1,stim/objects/HouseObjects/remote2.png,0.9,3,-0.2,-0.15,left,77,2020-12-09_16h00.34.777,premup-three_ses-01_part-01_label-phase1,3.2.4,Win32,60,left,1.200000048,4,0,4,0,1,3,1,0,240,229,1,239,,,,,,,,,,,,,,,,,,
,,1,196,,,,,,,1,6,2,stim/62.jpeg,Instruments,2,stim/objects/Instruments/musicsheet.png,0.5,2,0.2,0.15,right,77,2020-12-09_16h00.34.777,premup-three_ses-01_part-01_label-phase1,3.2.4,Win32,60,right,0.569000244,4,0,4,0,1,3,1,0,240,77,1,239,,,,,,,,,,,,,,,,,,
,,0,197,,,,,,,2,1,1,stim/11.jpeg,Instruments,2,stim/objects/Instruments/panflute.png,0.7,3,-0.2,-0.15,right,77,2020-12-09_16h00.34.777,premup-three_ses-01_part-01_label-phase1,3.2.4,Win32,60,left,0.757000208,4,0,4,0,1,3,1,0,240,100,1,239,,,,,,,,,,,,,,,,,,
,,0,198,,,,,,,3,4,4,stim/44.jpeg,HouseObjects,1,stim/objects/HouseObjects/rug2.png,0.9,4,0.2,-0.15,left,77,2020-12-09_16h00.34.777,premup-three_ses-01_part-01_label-phase1,3.2.4,Win32,60,right,0.504000187,4,0,4,0,1,3,1,0,240,223,1,239,,,,,,,,,,,,,,,,,,
,,0,199,,,,,,,2,2,3,stim/23.jpeg,Instruments,2,stim/objects/Instruments/maraca2.png,0.3,1,-0.2,0.15,right,77,2020-12-09_16h00.34.777,premup-three_ses-01_part-01_label-phase1,3.2.4,Win32,60,left,1.119000196,4,0,4,0,1,3,1,0,240,150,1,239,,,,,,,,,,,,,,,,,,
,,1,200,,,,,,,1,5,1,stim/51.jpeg,HouseObjects,1,stim/objects/HouseObjects/iron.png,0.5,1,-0.2,0.15,left,77,2020-12-09_16h00.34.777,premup-three_ses-01_part-01_label-phase1,3.2.4,Win32,60,left,0.946000099,4,0,4,0,1,3,1,0,240,8,1,239,,,,,,,,,,,,,,,,,,
,,0,201,,,,,,,2,1,1,stim/11.jpeg,Instruments,2,stim/objects/Instruments/panflute.png,0.7,3,-0.2,-0.15,right,77,2020-12-09_16h00.34.777,premup-three_ses-01_part-01_label-phase1,3.2.4,Win32,60,left,1.720000029,4,0,4,0,1,3,1,0,240,104,1,239,,,,,,,,,,,,,,,,,,
,,1,202,,,,,,,2,1,3,stim/13.jpeg,Instruments,2,stim/objects/Instruments/record.png,0.7,4,0.2,-0.15,right,77,2020-12-09_16h00.34.777,premup-three_ses-01_part-01_label-phase1,3.2.4,Win32,60,right,0.620000124,4,0,4,0,1,3,1,0,240,110,1,239,,,,,,,,,,,,,,,,,,
,,1,203,,,,,,,3,3,2,stim/32.jpeg,Instruments,2,stim/objects/Instruments/musicsheet2.png,0.9,4,0.2,-0.15,right,77,2020-12-09_16h00.34.777,premup-three_ses-01_part-01_label-phase1,3.2.4,Win32,60,right,0.552000284,4,0,4,0,1,3,1,0,240,197,1,239,,,,,,,,,,,,,,,,,,
,,0,204,,,,,,,1,6,3,stim/63.jpeg,HouseObjects,1,stim/objects/HouseObjects/pan.png,0.5,4,0.2,-0.15,left,77,2020-12-09_16h00.34.777,premup-three_ses-01_part-01_label-phase1,3.2.4,Win32,60,right,0.914000273,4,0,4,0,1,3,1,0,240,50,1,239,,,,,,,,,,,,,,,,,,
,,1,205,,,,,,,3,4,1,stim/41.jpeg,HouseObjects,1,stim/objects/HouseObjects/recyclingbin2.png,0.9,1,-0.2,0.15,left,77,2020-12-09_16h00.34.777,premup-three_ses-01_part-01_label-phase1,3.2.4,Win32,60,left,0.927000046,4,0,4,0,1,3,1,0,240,208,1,239,,,,,,,,,,,,,,,,,,
,,0,206,,,,,,,2,2,3,stim/23.jpeg,HouseObjects,1,stim/objects/HouseObjects/key2.png,0.7,2,0.2,0.15,left,77,2020-12-09_16h00.34.777,premup-three_ses-01_part-01_label-phase1,3.2.4,Win32,60,right,0.668000221,4,0,4,0,1,3,1,0,240,134,1,239,,,,,,,,,,,,,,,,,,
,,0,207,,,,,,,2,1,3,stim/13.jpeg,Instruments,2,stim/objects/Instruments/record.png,0.7,4,0.2,-0.15,right,77,2020-12-09_16h00.34.777,premup-three_ses-01_part-01_label-phase1,3.2.4,Win32,60,left,0.943000078,4,0,4,0,1,3,1,0,240,106,1,239,,,,,,,,,,,,,,,,,,
,,1,208,,,,,,,3,4,3,stim/43.jpeg,HouseObjects,1,stim/objects/HouseObjects/rubbergloves2.png,0.9,4,0.2,-0.15,left,77,2020-12-09_16h00.34.777,premup-three_ses-01_part-01_label-phase1,3.2.4,Win32,60,left,1.351000071,4,0,4,0,1,3,1,0,240,202,1,239,,,,,,,,,,,,,,,,,,
,,1,209,,,,,,,2,1,1,stim/11.jpeg,Instruments,2,stim/objects/Instruments/panflute.png,0.7,2,0.2,0.15,right,77,2020-12-09_16h00.34.777,premup-three_ses-01_part-01_label-phase1,3.2.4,Win32,60,right,1.067000151,4,0,4,0,1,3,1,0,240,96,1,239,,,,,,,,,,,,,,,,,,
,,1,210,,,,,,,2,1,2,stim/12.jpeg,HouseObjects,1,stim/objects/HouseObjects/remote.png,0.3,2,0.2,0.15,left,77,2020-12-09_16h00.34.777,premup-three_ses-01_part-01_label-phase1,3.2.4,Win32,60,left,0.832000017,4,0,4,0,1,3,1,0,240,81,1,239,,,,,,,,,,,,,,,,,,
,,1,211,,,,,,,2,2,2,stim/22.jpeg,HouseObjects,1,stim/objects/HouseObjects/ironingboard2.png,0.7,3,-0.2,-0.15,left,77,2020-12-09_16h00.34.777,premup-three_ses-01_part-01_label-phase1,3.2.4,Win32,60,left,0.88499999,4,0,4,0,1,3,1,0,240,129,1,239,,,,,,,,,,,,,,,,,,
,,0,212,,,,,,,1,5,4,stim/54.jpeg,HouseObjects,1,stim/objects/HouseObjects/knife.png,0.5,2,0.2,0.15,left,77,2020-12-09_16h00.34.777,premup-three_ses-01_part-01_label-phase1,3.2.4,Win32,60,right,0.690999985,4,0,4,0,1,3,1,0,240,7,1,239,,,,,,,,,,,,,,,,,,
,,1,213,,,,,,,1,5,3,stim/53.jpeg,HouseObjects,1,stim/objects/HouseObjects/key.png,0.5,1,-0.2,0.15,left,77,2020-12-09_16h00.34.777,premup-three_ses-01_part-01_label-phase1,3.2.4,Win32,60,left,0.575000048,4,0,4,0,1,3,1,0,240,2,1,239,,,,,,,,,,,,,,,,,,
,,1,214,,,,,,,3,3,2,stim/32.jpeg,Instruments,2,stim/objects/Instruments/musicsheet2.png,0.9,3,-0.2,-0.15,right,77,2020-12-09_16h00.34.777,premup-three_ses-01_part-01_label-phase1,3.2.4,Win32,60,right,0.883000135,4,0,4,0,1,3,1,0,240,193,1,239,,,,,,,,,,,,,,,,,,
,,0,215,,,,,,,3,3,2,stim/32.jpeg,HouseObjects,1,stim/objects/HouseObjects/match2.png,0.1,4,0.2,-0.15,left,77,2020-12-09_16h00.34.777,premup-three_ses-01_part-01_label-phase1,3.2.4,Win32,60,right,0.709000111,4,0,4,0,1,3,1,0,240,161,1,239,,,,,,,,,,,,,,,,,,
,,1,216,,,,,,,1,6,2,stim/62.jpeg,HouseObjects,1,stim/objects/HouseObjects/match.png,0.5,3,-0.2,-0.15,left,77,2020-12-09_16h00.34.777,premup-three_ses-01_part-01_label-phase1,3.2.4,Win32,60,left,1.116000175,4,0,4,0,1,3,1,0,240,41,1,239,,,,,,,,,,,,,,,,,,
,,0,217,,,,,,,3,3,1,stim/31.jpeg,Instruments,2,stim/objects/Instruments/metronome2.png,0.9,1,-0.2,0.15,right,77,2020-12-09_16h00.34.777,premup-three_ses-01_part-01_label-phase1,3.2.4,Win32,60,left,1.59800005,4,0,4,0,1,3,1,0,240,196,1,239,,,,,,,,,,,,,,,,,,
,,0,218,,,,,,,1,5,4,stim/54.jpeg,Instruments,2,stim/objects/Instruments/marimba.png,0.5,3,-0.2,-0.15,right,77,2020-12-09_16h00.34.777,premup-three_ses-01_part-01_label-phase1,3.2.4,Win32,60,left,0.589000225,4,0,4,0,1,3,1,0,240,39,1,239,,,,,,,,,,,,,,,,,,
,,1,219,,,,,,,3,4,1,stim/41.jpeg,HouseObjects,1,stim/objects/HouseObjects/recyclingbin2.png,0.9,3,-0.2,-0.15,left,77,2020-12-09_16h00.34.777,premup-three_ses-01_part-01_label-phase1,3.2.4,Win32,60,left,0.640000105,4,0,4,0,1,3,1,0,240,232,1,239,,,,,,,,,,,,,,,,,,
,,1,220,,,,,,,2,1,1,stim/11.jpeg,Instruments,2,stim/objects/Instruments/panflute.png,0.7,1,-0.2,0.15,right,77,2020-12-09_16h00.34.777,premup-three_ses-01_part-01_label-phase1,3.2.4,Win32,60,right,0.694000006,4,0,4,0,1,3,1,0,240,108,1,239,,,,,,,,,,,,,,,,,,
,,1,221,,,,,,,3,3,4,stim/34.jpeg,Instruments,2,stim/objects/Instruments/oboe2.png,0.9,2,0.2,0.15,right,77,2020-12-09_16h00.34.777,premup-three_ses-01_part-01_label-phase1,3.2.4,Win32,60,right,0.934000254,4,0,4,0,1,3,1,0,240,171,1,239,,,,,,,,,,,,,,,,,,
,,0,222,,,,,,,3,4,1,stim/41.jpeg,HouseObjects,1,stim/objects/HouseObjects/recyclingbin2.png,0.9,1,-0.2,0.15,left,77,2020-12-09_16h00.34.777,premup-three_ses-01_part-01_label-phase1,3.2.4,Win32,60,right,0.900000095,4,0,4,0,1,3,1,0,240,200,1,239,,,,,,,,,,,,,,,,,,
,,0,223,,,,,,,3,3,1,stim/31.jpeg,Instruments,2,stim/objects/Instruments/metronome2.png,0.9,2,0.2,0.15,right,77,2020-12-09_16h00.34.777,premup-three_ses-01_part-01_label-phase1,3.2.4,Win32,60,left,0.918000221,4,0,4,0,1,3,1,0,240,180,1,239,,,,,,,,,,,,,,,,,,
,,0,224,,,,,,,3,4,3,stim/43.jpeg,HouseObjects,1,stim/objects/HouseObjects/rubbergloves2.png,0.9,1,-0.2,0.15,left,77,2020-12-09_16h00.34.777,premup-three_ses-01_part-01_label-phase1,3.2.4,Win32,60,right,0.427000046,4,0,4,0,1,3,1,0,240,234,1,239,,,,,,,,,,,,,,,,,,
,,0,225,,,,,,,2,1,2,stim/12.jpeg,Instruments,2,stim/objects/Instruments/pipepiano.png,0.7,3,-0.2,-0.15,right,77,2020-12-09_16h00.34.777,premup-three_ses-01_part-01_label-phase1,3.2.4,Win32,60,left,0.511000156,4,0,4,0,1,3,1,0,240,101,1,239,,,,,,,,,,,,,,,,,,
,,0,226,,,,,,,1,6,1,stim/61.jpeg,Instruments,2,stim/objects/Instruments/metronome.png,0.5,2,0.2,0.15,right,77,2020-12-09_16h00.34.777,premup-three_ses-01_part-01_label-phase1,3.2.4,Win32,60,left,0.78000021,4,0,4,0,1,3,1,0,240,60,1,239,,,,,,,,,,,,,,,,,,
,,0,227,,,,,,,1,5,2,stim/52.jpeg,Instruments,2,stim/objects/Instruments/laud.png,0.5,3,-0.2,-0.15,right,77,2020-12-09_16h00.34.777,premup-three_ses-01_part-01_label-phase1,3.2.4,Win32,60,left,0.630000114,4,0,4,0,1,3,1,0,240,25,1,239,,,,,,,,,,,,,,,,,,
,,1,228,,,,,,,1,6,2,stim/62.jpeg,Instruments,2,stim/objects/Instruments/musicsheet.png,0.5,2,0.2,0.15,right,77,2020-12-09_16h00.34.777,premup-three_ses-01_part-01_label-phase1,3.2.4,Win32,60,right,1.066000223,4,0,4,0,1,3,1,0,240,65,1,239,,,,,,,,,,,,,,,,,,
,,1,229,,,,,,,3,4,4,stim/44.jpeg,HouseObjects,1,stim/objects/HouseObjects/rug2.png,0.9,2,0.2,0.15,left,77,2020-12-09_16h00.34.777,premup-three_ses-01_part-01_label-phase1,3.2.4,Win32,60,left,0.802999973,4,0,4,0,1,3,1,0,240,219,1,239,,,,,,,,,,,,,,,,,,
,,0,230,,,,,,,1,6,2,stim/62.jpeg,HouseObjects,1,stim/objects/HouseObjects/match.png,0.5,1,-0.2,0.15,left,77,2020-12-09_16h00.34.777,premup-three_ses-01_part-01_label-phase1,3.2.4,Win32,60,right,0.796000242,4,0,4,0,1,3,1,0,240,49,1,239,,,,,,,,,,,,,,,,,,
,,1,231,,,,,,,1,6,1,stim/61.jpeg,Instruments,2,stim/objects/Instruments/metronome.png,0.5,2,0.2,0.15,right,77,2020-12-09_16h00.34.777,premup-three_ses-01_part-01_label-phase1,3.2.4,Win32,60,right,1.455000162,4,0,4,0,1,3,1,0,240,64,1,239,,,,,,,,,,,,,,,,,,
,,1,232,,,,,,,2,2,3,stim/23.jpeg,HouseObjects,1,stim/objects/HouseObjects/key2.png,0.7,4,0.2,-0.15,left,77,2020-12-09_16h00.34.777,premup-three_ses-01_part-01_label-phase1,3.2.4,Win32,60,left,1.020000219,4,0,4,0,1,3,1,0,240,122,1,239,,,,,,,,,,,,,,,,,,
,,0,233,,,,,,,1,6,4,stim/64.jpeg,HouseObjects,1,stim/objects/HouseObjects/pitcher.png,0.5,4,0.2,-0.15,left,77,2020-12-09_16h00.34.777,premup-three_ses-01_part-01_label-phase1,3.2.4,Win32,60,right,0.916000128,4,0,4,0,1,3,1,0,240,51,1,239,,,,,,,,,,,,,,,,,,
,,1,234,,,,,,,2,2,1,stim/21.jpeg,HouseObjects,1,stim/objects/HouseObjects/iron2.png,0.7,2,0.2,0.15,left,77,2020-12-09_16h00.34.777,premup-three_ses-01_part-01_label-phase1,3.2.4,Win32,60,left,0.791000128,4,0,4,0,1,3,1,0,240,128,1,239,,,,,,,,,,,,,,,,,,
,,1,235,,,,,,,3,3,3,stim/33.jpeg,Instruments,2,stim/objects/Instruments/musicstand2.png,0.9,2,0.2,0.15,right,77,2020-12-09_16h00.34.777,premup-three_ses-01_part-01_label-phase1,3.2.4,Win32,60,right,0.919000149,4,0,4,0,1,3,1,0,240,182,1,239,,,,,,,,,,,,,,,,,,
,,1,236,,,,,,,3,4,2,stim/42.jpeg,HouseObjects,1,stim/objects/HouseObjects/remote2.png,0.9,1,-0.2,0.15,left,77,2020-12-09_16h00.34.777,premup-three_ses-01_part-01_label-phase1,3.2.4,Win32,60,left,0.951000214,4,0,4,0,1,3,1,0,240,233,1,239,,,,,,,,,,,,,,,,,,
,,1,237,,,,,,,2,2,1,stim/21.jpeg,Instruments,2,stim/objects/Instruments/keyboard2.png,0.3,4,0.2,-0.15,right,77,2020-12-09_16h00.34.777,premup-three_ses-01_part-01_label-phase1,3.2.4,Win32,60,right,1.158000231,4,0,4,0,1,3,1,0,240,156,1,239,,,,,,,,,,,,,,,,,,
,,1,238,,,,,,,1,5,3,stim/53.jpeg,HouseObjects,1,stim/objects/HouseObjects/key.png,0.5,4,0.2,-0.15,left,77,2020-12-09_16h00.34.777,premup-three_ses-01_part-01_label-phase1,3.2.4,Win32,60,left,0.931000233,4,0,4,0,1,3,1,0,240,6,1,239,,,,,,,,,,,,,,,,,,
,,1,239,,,,,,,3,4,2,stim/42.jpeg,HouseObjects,1,stim/objects/HouseObjects/remote2.png,0.9,2,0.2,0.15,left,77,2020-12-09_16h00.34.777,premup-three_ses-01_part-01_label-phase1,3.2.4,Win32,60,left,1.069000244,4,0,4,0,1,3,1,0,240,213,1,239,,,,,,,,,,,,,,,,,,
,,1,240,,,,,,,3,3,4,stim/34.jpeg,Instruments,2,stim/objects/Instruments/oboe2.png,0.9,2,0.2,0.15,right,77,2020-12-09_16h00.34.777,premup-three_ses-01_part-01_label-phase1,3.2.4,Win32,60,right,0.926000357,4,0,4,0,1,3,1,0,240,175,1,239,,,,,,,,,,,,,,,,,,
,,,,,,,,,,,3,,stim/31.jpeg,,,,,,,,,77,2020-12-09_16h00.34.777,premup-three_ses-01_part-01_label-phase1,3.2.4,Win32,60,,,4,0,4,0,1,3,,,,,,,1,0,40,11.97500014,,,1,0,6,2,1,5,Household items,65,75,Music items,25,35
,,,,,,,,,,,4,,stim/41.jpeg,,,,,,,,,77,2020-12-09_16h00.34.777,premup-three_ses-01_part-01_label-phase1,3.2.4,Win32,60,,,4,0,4,0,1,3,,,,,,,1,1,70,10.125,,,1,0,6,3,1,5,Household items,65,75,Music items,25,35
,,,,,,,,,,,1,,stim/11.jpeg,,,,,,,,,77,2020-12-09_16h00.34.777,premup-three_ses-01_part-01_label-phase1,3.2.4,Win32,60,,,4,0,4,0,1,3,,,,,,,1,1,40,6.118000031,,,1,0,6,0,1,5,Household items,45,55,Music items,45,55
,,,,,,,,,,,5,,stim/51.jpeg,,,,,,,,,77,2020-12-09_16h00.34.777,premup-three_ses-01_part-01_label-phase1,3.2.4,Win32,60,,,4,0,4,0,1,3,,,,,,,1,1,70,3.011999846,,,1,0,6,4,1,5,Music items,5,15,Household items,85,95
,,,,,,,,,,,6,,stim/61.jpeg,,,,,,,,,77,2020-12-09_16h00.34.777,premup-three_ses-01_part-01_label-phase1,3.2.4,Win32,60,,,4,0,4,0,1,3,,,,,,,1,1,47,8.15500021,,,1,0,6,5,1,5,Household items,5,15,Music items,85,95
,,,,,,,,,,,2,,stim/21.jpeg,,,,,,,,,77,2020-12-09_16h00.34.777,premup-three_ses-01_part-01_label-phase1,3.2.4,Win32,60,,,4,0,4,0,1,3,,,,,,,1,1,64,4.578000069,,,1,0,6,1,1,5,Music items,45,55,Household items,45,55
,,,,,,,,,,,,,,,,,,,,,,77,2020-12-09_16h00.34.777,premup-three_ses-01_part-01_label-phase1,3.2.4,Win32,60,,,4,0,4,0,1,3,,,,,,,,,,,,,,,,,,,,,,,,
,,0,1,,,,,,,1,5,4,stim/54.jpeg,Instruments,2,stim/objects/Instruments/marimba.png,0.5,2,0.2,0.15,right,77,2020-12-09_16h00.34.777,premup-three_ses-01_part-01_label-phase1,3.2.4,Win32,60,left,0.887000322,4,0,4,0,1,3,1,0,240,23,1,239,,,,,,,,,,,,,,,,,,
,,1,2,,,,,,,1,5,2,stim/52.jpeg,HouseObjects,1,stim/objects/HouseObjects/ironingboard.png,0.5,2,0.2,0.15,left,77,2020-12-09_16h00.34.777,premup-three_ses-01_part-01_label-phase1,3.2.4,Win32,60,left,0.882000208,4,0,4,0,1,3,1,0,240,17,1,239,,,,,,,,,,,,,,,,,,
,,1,3,,,,,,,1,6,1,stim/61.jpeg,Instruments,2,stim/objects/Instruments/metronome.png,0.5,3,-0.2,-0.15,right,77,2020-12-09_16h00.34.777,premup-three_ses-01_part-01_label-phase1,3.2.4,Win32,60,right,0.725000143,4,0,4,0,1,3,1,0,240,68,1,239,,,,,,,,,,,,,,,,,,
,,0,4,,,,,,,3,3,2,stim/32.jpeg,Instruments,2,stim/objects/Instruments/musicsheet2.png,0.9,4,0.2,-0.15,right,77,2020-12-09_16h00.34.777,premup-three_ses-01_part-01_label-phase1,3.2.4,Win32,60,left,0.629000187,4,0,4,0,1,3,1,0,240,177,1,239,,,,,,,,,,,,,,,,,,
,,0,5,,,,,,,3,4,2,stim/42.jpeg,HouseObjects,1,stim/objects/HouseObjects/remote2.png,0.9,3,-0.2,-0.15,left,77,2020-12-09_16h00.34.777,premup-three_ses-01_part-01_label-phase1,3.2.4,Win32,60,right,0.970000029,4,0,4,0,1,3,1,0,240,221,1,239,,,,,,,,,,,,,,,,,,
,,1,6,,,,,,,3,3,4,stim/34.jpeg,Instruments,2,stim/objects/Instruments/oboe2.png,0.9,3,-0.2,-0.15,right,77,2020-12-09_16h00.34.777,premup-three_ses-01_part-01_label-phase1,3.2.4,Win32,60,right,0.714000225,4,0,4,0,1,3,1,0,240,195,1,239,,,,,,,,,,,,,,,,,,
,,1,7,,,,,,,2,1,4,stim/14.jpeg,HouseObjects,1,stim/objects/HouseObjects/rug.png,0.3,3,-0.2,-0.15,left,77,2020-12-09_16h00.34.777,premup-three_ses-01_part-01_label-phase1,3.2.4,Win32,60,left,1.195000172,4,0,4,0,1,3,1,0,240,91,1,239,,,,,,,,,,,,,,,,,,
,,0,8,,,,,,,1,6,4,stim/64.jpeg,Instruments,2,stim/objects/Instruments/oboe.png,0.5,3,-0.2,-0.15,right,77,2020-12-09_16h00.34.777,premup-three_ses-01_part-01_label-phase1,3.2.4,Win32,60,left,1.825999975,4,0,4,0,1,3,1,0,240,63,1,239,,,,,,,,,,,,,,,,,,
,,1,9,,,,,,,3,3,2,stim/32.jpeg,Instruments,2,stim/objects/Instruments/musicsheet2.png,0.9,4,0.2,-0.15,right,77,2020-12-09_16h00.34.777,premup-three_ses-01_part-01_label-phase1,3.2.4,Win32,60,right,0.999000072,4,0,4,0,1,3,1,0,240,181,1,239,,,,,,,,,,,,,,,,,,
,,1,10,,,,,,,2,1,1,stim/11.jpeg,Instruments,2,stim/objects/Instruments/panflute.png,0.7,1,-0.2,0.15,right,77,2020-12-09_16h00.34.777,premup-three_ses-01_part-01_label-phase1,3.2.4,Win32,60,right,0.993000269,4,0,4,0,1,3,1,0,240,108,1,239,,,,,,,,,,,,,,,,,,
,,1,11,,,,,,,3,3,3,stim/33.jpeg,Instruments,2,stim/objects/Instruments/musicstand2.png,0.9,2,0.2,0.15,right,77,2020-12-09_16h00.34.777,premup-three_ses-01_part-01_label-phase1,3.2.4,Win32,60,right,1.510000229,4,0,4,0,1,3,1,0,240,198,1,239,,,,,,,,,,,,,,,,,,
,,1,12,,,,,,,2,2,3,stim/23.jpeg,HouseObjects,1,stim/objects/HouseObjects/key2.png,0.7,3,-0.2,-0.15,left,77,2020-12-09_16h00.34.777,premup-three_ses-01_part-01_label-phase1,3.2.4,Win32,60,left,1.23300004,4,0,4,0,1,3,1,0,240,130,1,239,,,,,,,,,,,,,,,,,,
,,1,13,,,,,,,2,1,4,stim/14.jpeg,Instruments,2,stim/objects/Instruments/record_player.png,0.7,1,-0.2,0.15,right,77,2020-12-09_16h00.34.777,premup-three_ses-01_part-01_label-phase1,3.2.4,Win32,60,right,1.143000126,4,0,4,0,1,3,1,0,240,99,1,239,,,,,,,,,,,,,,,,,,
,,0,14,,,,,,,2,1,4,stim/14.jpeg,Instruments,2,stim/objects/Instruments/record_player.png,0.7,2,0.2,0.15,right,77,2020-12-09_16h00.34.777,premup-three_ses-01_part-01_label-phase1,3.2.4,Win32,60,left,0.968000174,4,0,4,0,1,3,1,0,240,107,1,239,,,,,,,,,,,,,,,,,,
,,1,15,,,,,,,3,4,1,stim/41.jpeg,HouseObjects,1,stim/objects/HouseObjects/recyclingbin2.png,0.9,2,0.2,0.15,left,77,2020-12-09_16h00.34.777,premup-three_ses-01_part-01_label-phase1,3.2.4,Win32,60,left,1.50600028,4,0,4,0,1,3,1,0,240,216,1,239,,,,,,,,,,,,,,,,,,
,,1,16,,,,,,,3,3,2,stim/32.jpeg,Instruments,2,stim/objects/Instruments/musicsheet2.png,0.9,4,0.2,-0.15,right,77,2020-12-09_16h00.34.777,premup-three_ses-01_part-01_label-phase1,3.2.4,Win32,60,right,0.864000082,4,0,4,0,1,3,1,0,240,189,1,239,,,,,,,,,,,,,,,,,,
,,1,17,,,,,,,2,1,3,stim/13.jpeg,Instruments,2,stim/objects/Instruments/record.png,0.7,4,0.2,-0.15,right,77,2020-12-09_16h00.34.777,premup-three_ses-01_part-01_label-phase1,3.2.4,Win32,60,right,0.84100008,4,0,4,0,1,3,1,0,240,106,1,239,,,,,,,,,,,,,,,,,,
,,0,18,,,,,,,3,4,4,stim/44.jpeg,Instruments,2,stim/objects/Instruments/record_player2.png,0.1,3,-0.2,-0.15,right,77,2020-12-09_16h00.34.777,premup-three_ses-01_part-01_label-phase1,3.2.4,Win32,60,left,0.706000328,4,0,4,0,1,3,1,0,240,239,1,239,,,,,,,,,,,,,,,,,,
,,0,19,,,,,,,2,1,4,stim/14.jpeg,Instruments,2,stim/objects/Instruments/record_player.png,0.7,3,-0.2,-0.15,right,77,2020-12-09_16h00.34.777,premup-three_ses-01_part-01_label-phase1,3.2.4,Win32,60,left,0.796000242,4,0,4,0,1,3,1,0,240,111,1,239,,,,,,,,,,,,,,,,,,
,,0,20,,,,,,,2,1,2,stim/12.jpeg,HouseObjects,1,stim/objects/HouseObjects/remote.png,0.3,2,0.2,0.15,left,77,2020-12-09_16h00.34.777,premup-three_ses-01_part-01_label-phase1,3.2.4,Win32,60,right,0.845999956,4,0,4,0,1,3,1,0,240,81,1,239,,,,,,,,,,,,,,,,,,
,,1,21,,,,,,,1,5,4,stim/54.jpeg,HouseObjects,1,stim/objects/HouseObjects/knife.png,0.5,3,-0.2,-0.15,left,77,2020-12-09_16h00.34.777,premup-three_ses-01_part-01_label-phase1,3.2.4,Win32,60,left,0.93900013,4,0,4,0,1,3,1,0,240,15,1,239,,,,,,,,,,,,,,,,,,
,,1,22,,,,,,,3,4,4,stim/44.jpeg,HouseObjects,1,stim/objects/HouseObjects/rug2.png,0.9,1,-0.2,0.15,left,77,2020-12-09_16h00.34.777,premup-three_ses-01_part-01_label-phase1,3.2.4,Win32,60,left,0.958000183,4,0,4,0,1,3,1,0,240,207,1,239,,,,,,,,,,,,,,,,,,
,,1,23,,,,,,,3,4,4,stim/44.jpeg,HouseObjects,1,stim/objects/HouseObjects/rug2.png,0.9,2,0.2,0.15,left,77,2020-12-09_16h00.34.777,premup-three_ses-01_part-01_label-phase1,3.2.4,Win32,60,left,0.869000196,4,0,4,0,1,3,1,0,240,231,1,239,,,,,,,,,,,,,,,,,,
,,1,24,,,,,,,2,2,2,stim/22.jpeg,HouseObjects,1,stim/objects/HouseObjects/ironingboard2.png,0.7,3,-0.2,-0.15,left,77,2020-12-09_16h00.34.777,premup-three_ses-01_part-01_label-phase1,3.2.4,Win32,60,left,1.244000196,4,0,4,0,1,3,1,0,240,145,1,239,,,,,,,,,,,,,,,,,,
,,1,25,,,,,,,1,5,3,stim/53.jpeg,Instruments,2,stim/objects/Instruments/maraca.png,0.5,4,0.2,-0.15,right,77,2020-12-09_16h00.34.777,premup-three_ses-01_part-01_label-phase1,3.2.4,Win32,60,right,0.786000252,4,0,4,0,1,3,1,0,240,38,1,239,,,,,,,,,,,,,,,,,,
,,1,26,,,,,,,3,3,1,stim/31.jpeg,Instruments,2,stim/objects/Instruments/metronome2.png,0.9,1,-0.2,0.15,right,77,2020-12-09_16h00.34.777,premup-three_ses-01_part-01_label-phase1,3.2.4,Win32,60,right,0.81400013,4,0,4,0,1,3,1,0,240,164,1,239,,,,,,,,,,,,,,,,,,
,,1,27,,,,,,,3,3,2,stim/32.jpeg,Instruments,2,stim/objects/Instruments/musicsheet2.png,0.9,3,-0.2,-0.15,right,77,2020-12-09_16h00.34.777,premup-three_ses-01_part-01_label-phase1,3.2.4,Win32,60,right,1.320000172,4,0,4,0,1,3,1,0,240,169,1,239,,,,,,,,,,,,,,,,,,
,,0,28,,,,,,,3,3,1,stim/31.jpeg,HouseObjects,1,stim/objects/HouseObjects/lintroller2.png,0.1,4,0.2,-0.15,left,77,2020-12-09_16h00.34.777,premup-three_ses-01_part-01_label-phase1,3.2.4,Win32,60,right,0.822000265,4,0,4,0,1,3,1,0,240,160,1,239,,,,,,,,,,,,,,,,,,
,,1,29,,,,,,,2,1,2,stim/12.jpeg,Instruments,2,stim/objects/Instruments/pipepiano.png,0.7,2,0.2,0.15,right,77,2020-12-09_16h00.34.777,premup-three_ses-01_part-01_label-phase1,3.2.4,Win32,60,right,1.051000118,4,0,4,0,1,3,1,0,240,109,1,239,,,,,,,,,,,,,,,,,,
,,0,30,,,,,,,1,5,1,stim/51.jpeg,Instruments,2,stim/objects/Instruments/keyboard.png,0.5,1,-0.2,0.15,right,77,2020-12-09_16h00.34.777,premup-three_ses-01_part-01_label-phase1,3.2.4,Win32,60,left,0.874000072,4,0,4,0,1,3,1,0,240,32,1,239,,,,,,,,,,,,,,,,,,
,,0,31,,,,,,,3,4,1,stim/41.jpeg,Instruments,2,stim/objects/Instruments/panflute2.png,0.1,1,-0.2,0.15,right,77,2020-12-09_16h00.34.777,premup-three_ses-01_part-01_label-phase1,3.2.4,Win32,60,left,1.318000317,4,0,4,0,1,3,1,0,240,236,1,239,,,,,,,,,,,,,,,,,,
,,1,32,,,,,,,2,2,1,stim/21.jpeg,Instruments,2,stim/objects/Instruments/keyboard2.png,0.3,2,0.2,0.15,right,77,2020-12-09_16h00.34.777,premup-three_ses-01_part-01_label-phase1,3.2.4,Win32,60,right,1.38499999,4,0,4,0,1,3,1,0,240,148,1,239,,,,,,,,,,,,,,,,,,
,,0,33,,,,,,,2,2,3,stim/23.jpeg,HouseObjects,1,stim/objects/HouseObjects/key2.png,0.7,4,0.2,-0.15,left,77,2020-12-09_16h00.34.777,premup-three_ses-01_part-01_label-phase1,3.2.4,Win32,60,right,0.726000071,4,0,4,0,1,3,1,0,240,122,1,239,,,,,,,,,,,,,,,,,,
,,1,34,,,,,,,2,2,3,stim/23.jpeg,Instruments,2,stim/objects/Instruments/maraca2.png,0.3,1,-0.2,0.15,right,77,2020-12-09_16h00.34.777,premup-three_ses-01_part-01_label-phase1,3.2.4,Win32,60,right,0.986000061,4,0,4,0,1,3,1,0,240,150,1,239,,,,,,,,,,,,,,,,,,
,,1,35,,,,,,,2,2,2,stim/22.jpeg,HouseObjects,1,stim/objects/HouseObjects/ironingboard2.png,0.7,3,-0.2,-0.15,left,77,2020-12-09_16h00.34.777,premup-three_ses-01_part-01_label-phase1,3.2.4,Win32,60,left,0.647000313,4,0,4,0,1,3,1,0,240,121,1,239,,,,,,,,,,,,,,,,,,
,,1,36,,,,,,,3,3,4,stim/34.jpeg,Instruments,2,stim/objects/Instruments/oboe2.png,0.9,3,-0.2,-0.15,right,77,2020-12-09_16h00.34.777,premup-three_ses-01_part-01_label-phase1,3.2.4,Win32,60,right,1.036000013,4,0,4,0,1,3,1,0,240,191,1,239,,,,,,,,,,,,,,,,,,
,,1,37,,,,,,,1,5,3,stim/53.jpeg,HouseObjects,1,stim/objects/HouseObjects/key.png,0.5,4,0.2,-0.15,left,77,2020-12-09_16h00.34.777,premup-three_ses-01_part-01_label-phase1,3.2.4,Win32,60,left,1.65500021,4,0,4,0,1,3,1,0,240,6,1,239,,,,,,,,,,,,,,,,,,
,,1,38,,,,,,,1,6,1,stim/61.jpeg,Instruments,2,stim/objects/Instruments/metronome.png,0.5,1,-0.2,0.15,right,77,2020-12-09_16h00.34.777,premup-three_ses-01_part-01_label-phase1,3.2.4,Win32,60,right,0.919000149,4,0,4,0,1,3,1,0,240,72,1,239,,,,,,,,,,,,,,,,,,
,,0,39,,,,,,,2,1,4,stim/14.jpeg,HouseObjects,1,stim/objects/HouseObjects/rug.png,0.3,2,0.2,0.15,left,77,2020-12-09_16h00.34.777,premup-three_ses-01_part-01_label-phase1,3.2.4,Win32,60,right,1.063000202,4,0,4,0,1,3,1,0,240,87,1,239,,,,,,,,,,,,,,,,,,
,,0,40,,,,,,,2,2,3,stim/23.jpeg,HouseObjects,1,stim/objects/HouseObjects/key2.png,0.7,2,0.2,0.15,left,77,2020-12-09_16h00.34.777,premup-three_ses-01_part-01_label-phase1,3.2.4,Win32,60,right,0.994000196,4,0,4,0,1,3,1,0,240,146,1,239,,,,,,,,,,,,,,,,,,
,,0,41,,,,,,,2,1,1,stim/11.jpeg,HouseObjects,1,stim/objects/HouseObjects/recyclingbin.png,0.3,2,0.2,0.15,left,77,2020-12-09_16h00.34.777,premup-three_ses-01_part-01_label-phase1,3.2.4,Win32,60,right,1.269000053,4,0,4,0,1,3,1,0,240,88,1,239,,,,,,,,,,,,,,,,,,
,,1,42,,,,,,,3,3,4,stim/34.jpeg,Instruments,2,stim/objects/Instruments/oboe2.png,0.9,2,0.2,0.15,right,77,2020-12-09_16h00.34.777,premup-three_ses-01_part-01_label-phase1,3.2.4,Win32,60,right,0.944999933,4,0,4,0,1,3,1,0,240,175,1,239,,,,,,,,,,,,,,,,,,
,,0,43,,,,,,,1,6,1,stim/61.jpeg,Instruments,2,stim/objects/Instruments/metronome.png,0.5,2,0.2,0.15,right,77,2020-12-09_16h00.34.777,premup-three_ses-01_part-01_label-phase1,3.2.4,Win32,60,left,1.431000233,4,0,4,0,1,3,1,0,240,64,1,239,,,,,,,,,,,,,,,,,,
,,0,44,,,,,,,3,3,4,stim/34.jpeg,Instruments,2,stim/objects/Instruments/oboe2.png,0.9,2,0.2,0.15,right,77,2020-12-09_16h00.34.777,premup-three_ses-01_part-01_label-phase1,3.2.4,Win32,60,left,0.819000244,4,0,4,0,1,3,1,0,240,171,1,239,,,,,,,,,,,,,,,,,,
,,1,45,,,,,,,1,6,4,stim/64.jpeg,Instruments,2,stim/objects/Instruments/oboe.png,0.5,1,-0.2,0.15,right,77,2020-12-09_16h00.34.777,premup-three_ses-01_part-01_label-phase1,3.2.4,Win32,60,right,0.821000338,4,0,4,0,1,3,1,0,240,71,1,239,,,,,,,,,,,,,,,,,,
,,1,46,,,,,,,3,4,2,stim/42.jpeg,HouseObjects,1,stim/objects/HouseObjects/remote2.png,0.9,2,0.2,0.15,left,77,2020-12-09_16h00.34.777,premup-three_ses-01_part-01_label-phase1,3.2.4,Win32,60,left,0.853000164,4,0,4,0,1,3,1,0,240,213,1,239,,,,,,,,,,,,,,,,,,
,,1,47,,,,,,,3,3,1,stim/31.jpeg,Instruments,2,stim/objects/Instruments/metronome2.png,0.9,3,-0.2,-0.15,right,77,2020-12-09_16h00.34.777,premup-three_ses-01_part-01_label-phase1,3.2.4,Win32,60,right,0.782000065,4,0,4,0,1,3,1,0,240,184,1,239,,,,,,,,,,,,,,,,,,
,,1,48,,,,,,,1,6,4,stim/64.jpeg,HouseObjects,1,stim/objects/HouseObjects/pitcher.png,0.5,4,0.2,-0.15,left,77,2020-12-09_16h00.34.777,premup-three_ses-01_part-01_label-phase1,3.2.4,Win32,60,left,1.279000044,4,0,4,0,1,3,1,0,240,59,1,239,,,,,,,,,,,,,,,,,,
,,0,49,,,,,,,1,6,2,stim/62.jpeg,HouseObjects,1,stim/objects/HouseObjects/match.png,0.5,3,-0.2,-0.15,left,77,2020-12-09_16h00.34.777,premup-three_ses-01_part-01_label-phase1,3.2.4,Win32,60,right,0.777000189,4,0,4,0,1,3,1,0,240,57,1,239,,,,,,,,,,,,,,,,,,
,,0,50,,,,,,,1,5,1,stim/51.jpeg,Instruments,2,stim/objects/Instruments/keyboard.png,0.5,4,0.2,-0.15,right,77,2020-12-09_16h00.34.777,premup-three_ses-01_part-01_label-phase1,3.2.4,Win32,60,left,0.954000235,4,0,4,0,1,3,1,0,240,20,1,239,,,,,,,,,,,,,,,,,,
,,1,51,,,,,,,2,2,4,stim/24.jpeg,HouseObjects,1,stim/objects/HouseObjects/knife2.png,0.7,4,0.2,-0.15,left,77,2020-12-09_16h00.34.777,premup-three_ses-01_part-01_label-phase1,3.2.4,Win32,60,left,0.656000137,4,0,4,0,1,3,1,0,240,147,1,239,,,,,,,,,,,,,,,,,,
,,0,52,,,,,,,2,2,1,stim/21.jpeg,HouseObjects,1,stim/objects/HouseObjects/iron2.png,0.7,1,-0.2,0.15,left,77,2020-12-09_16h00.34.777,premup-three_ses-01_part-01_label-phase1,3.2.4,Win32,60,right,0.600000143,4,0,4,0,1,3,1,0,240,136,1,239,,,,,,,,,,,,,,,,,,
,,1,53,,,,,,,3,3,3,stim/33.jpeg,Instruments,2,stim/objects/Instruments/musicstand2.png,0.9,1,-0.2,0.15,right,77,2020-12-09_16h00.34.777,premup-three_ses-01_part-01_label-phase1,3.2.4,Win32,60,right,1.369000196,4,0,4,0,1,3,1,0,240,170,1,239,,,,,,,,,,,,,,,,,,
,,1,54,,,,,,,1,5,1,stim/51.jpeg,HouseObjects,1,stim/objects/HouseObjects/iron.png,0.5,1,-0.2,0.15,left,77,2020-12-09_16h00.34.777,premup-three_ses-01_part-01_label-phase1,3.2.4,Win32,60,left,0.99000001,4,0,4,0,1,3,1,0,240,16,1,239,,,,,,,,,,,,,,,,,,
,,0,55,,,,,,,2,2,1,stim/21.jpeg,HouseObjects,1,stim/objects/HouseObjects/iron2.png,0.7,1,-0.2,0.15,left,77,2020-12-09_16h00.34.777,premup-three_ses-01_part-01_label-phase1,3.2.4,Win32,60,right,1.099000216,4,0,4,0,1,3,1,0,240,120,1,239,,,,,,,,,,,,,,,,,,
,,0,56,,,,,,,3,3,2,stim/32.jpeg,Instruments,2,stim/objects/Instruments/musicsheet2.png,0.9,4,0.2,-0.15,right,77,2020-12-09_16h00.34.777,premup-three_ses-01_part-01_label-phase1,3.2.4,Win32,60,left,0.859000206,4,0,4,0,1,3,1,0,240,197,1,239,,,,,,,,,,,,,,,,,,
,,0,57,,,,,,,1,5,2,stim/52.jpeg,Instruments,2,stim/objects/Instruments/laud.png,0.5,4,0.2,-0.15,right,77,2020-12-09_16h00.34.777,premup-three_ses-01_part-01_label-phase1,3.2.4,Win32,60,left,0.722000122,4,0,4,0,1,3,1,0,240,33,1,239,,,,,,,,,,,,,,,,,,
,,0,58,,,,,,,1,6,4,stim/64.jpeg,Instruments,2,stim/objects/Instruments/oboe.png,0.5,3,-0.2,-0.15,right,77,2020-12-09_16h00.34.777,premup-three_ses-01_part-01_label-phase1,3.2.4,Win32,60,left,1.268000126,4,0,4,0,1,3,1,0,240,79,1,239,,,,,,,,,,,,,,,,,,
,,1,59,,,,,,,3,4,2,stim/42.jpeg,HouseObjects,1,stim/objects/HouseObjects/remote2.png,0.9,3,-0.2,-0.15,left,77,2020-12-09_16h00.34.777,premup-three_ses-01_part-01_label-phase1,3.2.4,Win32,60,left,0.865000248,4,0,4,0,1,3,1,0,240,205,1,239,,,,,,,,,,,,,,,,,,
,,0,60,,,,,,,2,2,2,stim/22.jpeg,Instruments,2,stim/objects/Instruments/laud2.png,0.3,3,-0.2,-0.15,right,77,2020-12-09_16h00.34.777,premup-three_ses-01_part-01_label-phase1,3.2.4,Win32,60,left,1.267000198,4,0,4,0,1,3,1,0,240,153,1,239,,,,,,,,,,,,,,,,,,
,,1,61,,,,,,,1,6,3,stim/63.jpeg,Instruments,2,stim/objects/Instruments/musicstand.png,0.5,4,0.2,-0.15,right,77,2020-12-09_16h00.34.777,premup-three_ses-01_part-01_label-phase1,3.2.4,Win32,60,right,0.908000231,4,0,4,0,1,3,1,0,240,62,1,239,,,,,,,,,,,,,,,,,,
,,0,62,,,,,,,3,4,3,stim/43.jpeg,HouseObjects,1,stim/objects/HouseObjects/rubbergloves2.png,0.9,2,0.2,0.15,left,77,2020-12-09_16h00.34.777,premup-three_ses-01_part-01_label-phase1,3.2.4,Win32,60,right,0.69900012,4,0,4,0,1,3,1,0,240,218,1,239,,,,,,,,,,,,,,,,,,
,,0,63,,,,,,,3,4,1,stim/41.jpeg,HouseObjects,1,stim/objects/HouseObjects/recyclingbin2.png,0.9,3,-0.2,-0.15,left,77,2020-12-09_16h00.34.777,premup-three_ses-01_part-01_label-phase1,3.2.4,Win32,60,right,1.443000078,4,0,4,0,1,3,1,0,240,232,1,239,,,,,,,,,,,,,,,,,,
,,1,64,,,,,,,3,4,4,stim/44.jpeg,HouseObjects,1,stim/objects/HouseObjects/rug2.png,0.9,2,0.2,0.15,left,77,2020-12-09_16h00.34.777,premup-three_ses-01_part-01_label-phase1,3.2.4,Win32,60,left,0.656000376,4,0,4,0,1,3,1,0,240,219,1,239,,,,,,,,,,,,,,,,,,
,,1,65,,,,,,,1,6,1,stim/61.jpeg,Instruments,2,stim/objects/Instruments/metronome.png,0.5,2,0.2,0.15,right,77,2020-12-09_16h00.34.777,premup-three_ses-01_part-01_label-phase1,3.2.4,Win32,60,right,0.946000338,4,0,4,0,1,3,1,0,240,60,1,239,,,,,,,,,,,,,,,,,,
,,0,66,,,,,,,1,6,3,stim/63.jpeg,HouseObjects,1,stim/objects/HouseObjects/pan.png,0.5,1,-0.2,0.15,left,77,2020-12-09_16h00.34.777,premup-three_ses-01_part-01_label-phase1,3.2.4,Win32,60,right,0.869000196,4,0,4,0,1,3,1,0,240,58,1,239,,,,,,,,,,,,,,,,,,
,,0,67,,,,,,,2,1,3,stim/13.jpeg,HouseObjects,1,stim/objects/HouseObjects/rubbergloves.png,0.3,4,0.2,-0.15,left,77,2020-12-09_16h00.34.777,premup-three_ses-01_part-01_label-phase1,3.2.4,Win32,60,right,1.08100009,4,0,4,0,1,3,1,0,240,86,1,239,,,,,,,,,,,,,,,,,,
,,1,68,,,,,,,3,3,1,stim/31.jpeg,Instruments,2,stim/objects/Instruments/metronome2.png,0.9,2,0.2,0.15,right,77,2020-12-09_16h00.34.777,premup-three_ses-01_part-01_label-phase1,3.2.4,Win32,60,right,1.061000109,4,0,4,0,1,3,1,0,240,176,1,239,,,,,,,,,,,,,,,,,,
,,1,69,,,,,,,3,4,4,stim/44.jpeg,HouseObjects,1,stim/objects/HouseObjects/rug2.png,0.9,4,0.2,-0.15,left,77,2020-12-09_16h00.34.777,premup-three_ses-01_part-01_label-phase1,3.2.4,Win32,60,left,0.784000158,4,0,4,0,1,3,1,0,240,215,1,239,,,,,,,,,,,,,,,,,,
,,0,70,,,,,,,1,6,3,stim/63.jpeg,Instruments,2,stim/objects/Instruments/musicstand.png,0.5,3,-0.2,-0.15,right,77,2020-12-09_16h00.34.777,premup-three_ses-01_part-01_label-phase1,3.2.4,Win32,60,left,1.248000145,4,0,4,0,1,3,1,0,240,70,1,239,,,,,,,,,,,,,,,,,,
,,1,71,,,,,,,1,5,2,stim/52.jpeg,Instruments,2,stim/objects/Instruments/laud.png,0.5,4,0.2,-0.15,right,77,2020-12-09_16h00.34.777,premup-three_ses-01_part-01_label-phase1,3.2.4,Win32,60,right,0.880000114,4,0,4,0,1,3,1,0,240,37,1,239,,,,,,,,,,,,,,,,,,
,,0,72,,,,,,,2,1,2,stim/12.jpeg,HouseObjects,1,stim/objects/HouseObjects/remote.png,0.3,1,-0.2,0.15,left,77,2020-12-09_16h00.34.777,premup-three_ses-01_part-01_label-phase1,3.2.4,Win32,60,right,0.824000359,4,0,4,0,1,3,1,0,240,89,1,239,,,,,,,,,,,,,,,,,,
,,0,73,,,,,,,1,6,3,stim/63.jpeg,HouseObjects,1,stim/objects/HouseObjects/pan.png,0.5,1,-0.2,0.15,left,77,2020-12-09_16h00.34.777,premup-three_ses-01_part-01_label-phase1,3.2.4,Win32,60,right,1.374000072,4,0,4,0,1,3,1,0,240,42,1,239,,,,,,,,,,,,,,,,,,
,,1,74,,,,,,,3,4,3,stim/43.jpeg,HouseObjects,1,stim/objects/HouseObjects/rubbergloves2.png,0.9,3,-0.2,-0.15,left,77,2020-12-09_16h00.34.777,premup-three_ses-01_part-01_label-phase1,3.2.4,Win32,60,left,0.676000357,4,0,4,0,1,3,1,0,240,206,1,239,,,,,,,,,,,,,,,,,,
,,1,75,,,,,,,2,2,3,stim/23.jpeg,HouseObjects,1,stim/objects/HouseObjects/key2.png,0.7,1,-0.2,0.15,left,77,2020-12-09_16h00.34.777,premup-three_ses-01_part-01_label-phase1,3.2.4,Win32,60,left,1.042000294,4,0,4,0,1,3,1,0,240,138,1,239,,,,,,,,,,,,,,,,,,
,,1,76,,,,,,,3,4,3,stim/43.jpeg,HouseObjects,1,stim/objects/HouseObjects/rubbergloves2.png,0.9,4,0.2,-0.15,left,77,2020-12-09_16h00.34.777,premup-three_ses-01_part-01_label-phase1,3.2.4,Win32,60,left,1.06400013,4,0,4,0,1,3,1,0,240,202,1,239,,,,,,,,,,,,,,,,,,
,,1,77,,,,,,,3,3,1,stim/31.jpeg,Instruments,2,stim/objects/Instruments/metronome2.png,0.9,3,-0.2,-0.15,right,77,2020-12-09_16h00.34.777,premup-three_ses-01_part-01_label-phase1,3.2.4,Win32,60,right,0.712000132,4,0,4,0,1,3,1,0,240,188,1,239,,,,,,,,,,,,,,,,,,
,,1,78,,,,,,,2,1,4,stim/14.jpeg,Instruments,2,stim/objects/Instruments/record_player.png,0.7,3,-0.2,-0.15,right,77,2020-12-09_16h00.34.777,premup-three_ses-01_part-01_label-phase1,3.2.4,Win32,60,right,0.89800024,4,0,4,0,1,3,1,0,240,103,1,239,,,,,,,,,,,,,,,,,,
,,1,79,,,,,,,1,5,3,stim/53.jpeg,Instruments,2,stim/objects/Instruments/maraca.png,0.5,3,-0.2,-0.15,right,77,2020-12-09_16h00.34.777,premup-three_ses-01_part-01_label-phase1,3.2.4,Win32,60,right,1.109000206,4,0,4,0,1,3,1,0,240,22,1,239,,,,,,,,,,,,,,,,,,
,,1,80,,,,,,,2,2,2,stim/22.jpeg,HouseObjects,1,stim/objects/HouseObjects/ironingboard2.png,0.7,4,0.2,-0.15,left,77,2020-12-09_16h00.34.777,premup-three_ses-01_part-01_label-phase1,3.2.4,Win32,60,left,0.947000265,4,0,4,0,1,3,1,0,240,125,1,239,,,,,,,,,,,,,,,,,,
,,1,81,,,,,,,3,4,3,stim/43.jpeg,HouseObjects,1,stim/objects/HouseObjects/rubbergloves2.png,0.9,2,0.2,0.15,left,77,2020-12-09_16h00.34.777,premup-three_ses-01_part-01_label-phase1,3.2.4,Win32,60,left,0.93900013,4,0,4,0,1,3,1,0,240,214,1,239,,,,,,,,,,,,,,,,,,
,,1,82,,,,,,,1,5,4,stim/54.jpeg,HouseObjects,1,stim/objects/HouseObjects/knife.png,0.5,1,-0.2,0.15,left,77,2020-12-09_16h00.34.777,premup-three_ses-01_part-01_label-phase1,3.2.4,Win32,60,left,1.412000179,4,0,4,0,1,3,1,0,240,11,1,239,,,,,,,,,,,,,,,,,,
,,1,83,,,,,,,2,2,4,stim/24.jpeg,Instruments,2,stim/objects/Instruments/marimba2.png,0.3,2,0.2,0.15,right,77,2020-12-09_16h00.34.777,premup-three_ses-01_part-01_label-phase1,3.2.4,Win32,60,right,0.74000001,4,0,4,0,1,3,1,0,240,159,1,239,,,,,,,,,,,,,,,,,,
,,1,84,,,,,,,1,5,1,stim/51.jpeg,Instruments,2,stim/objects/Instruments/keyboard.png,0.5,4,0.2,-0.15,right,77,2020-12-09_16h00.34.777,premup-three_ses-01_part-01_label-phase1,3.2.4,Win32,60,right,0.717000008,4,0,4,0,1,3,1,0,240,28,1,239,,,,,,,,,,,,,,,,,,
,,1,85,,,,,,,3,3,3,stim/33.jpeg,Instruments,2,stim/objects/Instruments/musicstand2.png,0.9,4,0.2,-0.15,right,77,2020-12-09_16h00.34.777,premup-three_ses-01_part-01_label-phase1,3.2.4,Win32,60,right,0.815000296,4,0,4,0,1,3,1,0,240,178,1,239,,,,,,,,,,,,,,,,,,
,,1,86,,,,,,,3,4,2,stim/42.jpeg,HouseObjects,1,stim/objects/HouseObjects/remote2.png,0.9,2,0.2,0.15,left,77,2020-12-09_16h00.34.777,premup-three_ses-01_part-01_label-phase1,3.2.4,Win32,60,left,0.963000059,4,0,4,0,1,3,1,0,240,225,1,239,,,,,,,,,,,,,,,,,,
,,1,87,,,,,,,2,1,2,stim/12.jpeg,Instruments,2,stim/objects/Instruments/pipepiano.png,0.7,3,-0.2,-0.15,right,77,2020-12-09_16h00.34.777,premup-three_ses-01_part-01_label-phase1,3.2.4,Win32,60,right,0.958000183,4,0,4,0,1,3,1,0,240,101,1,239,,,,,,,,,,,,,,,,,,
,,1,88,,,,,,,3,4,3,stim/43.jpeg,HouseObjects,1,stim/objects/HouseObjects/rubbergloves2.png,0.9,4,0.2,-0.15,left,77,2020-12-09_16h00.34.777,premup-three_ses-01_part-01_label-phase1,3.2.4,Win32,60,left,1.259000063,4,0,4,0,1,3,1,0,240,222,1,239,,,,,,,,,,,,,,,,,,
,,1,89,,,,,,,2,1,1,stim/11.jpeg,Instruments,2,stim/objects/Instruments/panflute.png,0.7,3,-0.2,-0.15,right,77,2020-12-09_16h00.34.777,premup-three_ses-01_part-01_label-phase1,3.2.4,Win32,60,right,1.247000217,4,0,4,0,1,3,1,0,240,116,1,239,,,,,,,,,,,,,,,,,,
,,0,90,,,,,,,1,6,4,stim/64.jpeg,HouseObjects,1,stim/objects/HouseObjects/pitcher.png,0.5,1,-0.2,0.15,left,77,2020-12-09_16h00.34.777,premup-three_ses-01_part-01_label-phase1,3.2.4,Win32,60,right,0.899000168,4,0,4,0,1,3,1,0,240,55,1,239,,,,,,,,,,,,,,,,,,
,,1,91,,,,,,,3,3,1,stim/31.jpeg,Instruments,2,stim/objects/Instruments/metronome2.png,0.9,3,-0.2,-0.15,right,77,2020-12-09_16h00.34.777,premup-three_ses-01_part-01_label-phase1,3.2.4,Win32,60,right,1.038000107,4,0,4,0,1,3,1,0,240,192,1,239,,,,,,,,,,,,,,,,,,
,,1,92,,,,,,,3,4,3,stim/43.jpeg,HouseObjects,1,stim/objects/HouseObjects/rubbergloves2.png,0.9,2,0.2,0.15,left,77,2020-12-09_16h00.34.777,premup-three_ses-01_part-01_label-phase1,3.2.4,Win32,60,left,0.843000174,4,0,4,0,1,3,1,0,240,226,1,239,,,,,,,,,,,,,,,,,,
,,0,93,,,,,,,2,2,1,stim/21.jpeg,HouseObjects,1,stim/objects/HouseObjects/iron2.png,0.7,2,0.2,0.15,left,77,2020-12-09_16h00.34.777,premup-three_ses-01_part-01_label-phase1,3.2.4,Win32,60,right,1.020000219,4,0,4,0,1,3,1,0,240,144,1,239,,,,,,,,,,,,,,,,,,
,,1,94,,,,,,,1,5,2,stim/52.jpeg,HouseObjects,1,stim/objects/HouseObjects/ironingboard.png,0.5,2,0.2,0.15,left,77,2020-12-09_16h00.34.777,premup-three_ses-01_part-01_label-phase1,3.2.4,Win32,60,left,1.26300025,4,0,4,0,1,3,1,0,240,1,1,239,,,,,,,,,,,,,,,,,,
,,1,95,,,,,,,2,2,1,stim/21.jpeg,Instruments,2,stim/objects/Instruments/keyboard2.png,0.3,4,0.2,-0.15,right,77,2020-12-09_16h00.34.777,premup-three_ses-01_part-01_label-phase1,3.2.4,Win32,60,right,0.970000267,4,0,4,0,1,3,1,0,240,152,1,239,,,,,,,,,,,,,,,,,,
,,0,96,,,,,,,1,6,3,stim/63.jpeg,HouseObjects,1,stim/objects/HouseObjects/pan.png,0.5,4,0.2,-0.15,left,77,2020-12-09_16h00.34.777,premup-three_ses-01_part-01_label-phase1,3.2.4,Win32,60,right,0.753000021,4,0,4,0,1,3,1,0,240,46,1,239,,,,,,,,,,,,,,,,,,
,,0,97,,,,,,,2,2,1,stim/21.jpeg,HouseObjects,1,stim/objects/HouseObjects/iron2.png,0.7,1,-0.2,0.15,left,77,2020-12-09_16h00.34.777,premup-three_ses-01_part-01_label-phase1,3.2.4,Win32,60,right,0.900000095,4,0,4,0,1,3,1,0,240,132,1,239,,,,,,,,,,,,,,,,,,
,,1,98,,,,,,,3,4,2,stim/42.jpeg,HouseObjects,1,stim/objects/HouseObjects/remote2.png,0.9,1,-0.2,0.15,left,77,2020-12-09_16h00.34.777,premup-three_ses-01_part-01_label-phase1,3.2.4,Win32,60,left,0.908000231,4,0,4,0,1,3,1,0,240,201,1,239,,,,,,,,,,,,,,,,,,
,,1,99,,,,,,,2,1,4,stim/14.jpeg,Instruments,2,stim/objects/Instruments/record_player.png,0.7,4,0.2,-0.15,right,77,2020-12-09_16h00.34.777,premup-three_ses-01_part-01_label-phase1,3.2.4,Win32,60,right,0.859000206,4,0,4,0,1,3,1,0,240,115,1,239,,,,,,,,,,,,,,,,,,
,,1,100,,,,,,,1,5,2,stim/52.jpeg,HouseObjects,1,stim/objects/HouseObjects/ironingboard.png,0.5,3,-0.2,-0.15,left,77,2020-12-09_16h00.34.777,premup-three_ses-01_part-01_label-phase1,3.2.4,Win32,60,left,0.673000097,4,0,4,0,1,3,1,0,240,5,1,239,,,,,,,,,,,,,,,,,,
,,1,101,,,,,,,3,3,1,stim/31.jpeg,Instruments,2,stim/objects/Instruments/metronome2.png,0.9,4,0.2,-0.15,right,77,2020-12-09_16h00.34.777,premup-three_ses-01_part-01_label-phase1,3.2.4,Win32,60,right,0.702000141,4,0,4,0,1,3,1,0,240,168,1,239,,,,,,,,,,,,,,,,,,
,,1,102,,,,,,,2,1,3,stim/13.jpeg,Instruments,2,stim/objects/Instruments/record.png,0.7,1,-0.2,0.15,right,77,2020-12-09_16h00.34.777,premup-three_ses-01_part-01_label-phase1,3.2.4,Win32,60,right,1.484000206,4,0,4,0,1,3,1,0,240,118,1,239,,,,,,,,,,,,,,,,,,
,,0,103,,,,,,,2,1,1,stim/11.jpeg,HouseObjects,1,stim/objects/HouseObjects/recyclingbin.png,0.3,4,0.2,-0.15,left,77,2020-12-09_16h00.34.777,premup-three_ses-01_part-01_label-phase1,3.2.4,Win32,60,right,1.059999943,4,0,4,0,1,3,1,0,240,84,1,239,,,,,,,,,,,,,,,,,,
,,1,104,,,,,,,2,2,3,stim/23.jpeg,HouseObjects,1,stim/objects/HouseObjects/key2.png,0.7,2,0.2,0.15,left,77,2020-12-09_16h00.34.777,premup-three_ses-01_part-01_label-phase1,3.2.4,Win32,60,left,0.762000084,4,0,4,0,1,3,1,0,240,134,1,239,,,,,,,,,,,,,,,,,,
,,1,105,,,,,,,3,3,3,stim/33.jpeg,Instruments,2,stim/objects/Instruments/musicstand2.png,0.9,1,-0.2,0.15,right,77,2020-12-09_16h00.34.777,premup-three_ses-01_part-01_label-phase1,3.2.4,Win32,60,right,1.056000233,4,0,4,0,1,3,1,0,240,194,1,239,,,,,,,,,,,,,,,,,,
,,1,106,,,,,,,1,6,3,stim/63.jpeg,Instruments,2,stim/objects/Instruments/musicstand.png,0.5,1,-0.2,0.15,right,77,2020-12-09_16h00.34.777,premup-three_ses-01_part-01_label-phase1,3.2.4,Win32,60,right,0.728000164,4,0,4,0,1,3,1,0,240,66,1,239,,,,,,,,,,,,,,,,,,
,,0,107,,,,,,,1,5,4,stim/54.jpeg,Instruments,2,stim/objects/Instruments/marimba.png,0.5,3,-0.2,-0.15,right,77,2020-12-09_16h00.34.777,premup-three_ses-01_part-01_label-phase1,3.2.4,Win32,60,left,0.537000179,4,0,4,0,1,3,1,0,240,39,1,239,,,,,,,,,,,,,,,,,,
,,1,108,,,,,,,2,2,4,stim/24.jpeg,Instruments,2,stim/objects/Instruments/marimba2.png,0.3,2,0.2,0.15,right,77,2020-12-09_16h00.34.777,premup-three_ses-01_part-01_label-phase1,3.2.4,Win32,60,right,0.963000298,4,0,4,0,1,3,1,0,240,155,1,239,,,,,,,,,,,,,,,,,,
,,1,109,,,,,,,3,3,4,stim/34.jpeg,Instruments,2,stim/objects/Instruments/oboe2.png,0.9,4,0.2,-0.15,right,77,2020-12-09_16h00.34.777,premup-three_ses-01_part-01_label-phase1,3.2.4,Win32,60,right,0.694000006,4,0,4,0,1,3,1,0,240,179,1,239,,,,,,,,,,,,,,,,,,
,,0,110,,,,,,,1,6,1,stim/61.jpeg,HouseObjects,1,stim/objects/HouseObjects/lintroller.png,0.5,4,0.2,-0.15,left,77,2020-12-09_16h00.34.777,premup-three_ses-01_part-01_label-phase1,3.2.4,Win32,60,right,0.947000265,4,0,4,0,1,3,1,0,240,40,1,239,,,,,,,,,,,,,,,,,,
,,0,111,,,,,,,2,2,1,stim/21.jpeg,Instruments,2,stim/objects/Instruments/keyboard2.png,0.3,4,0.2,-0.15,right,77,2020-12-09_16h00.34.777,premup-three_ses-01_part-01_label-phase1,3.2.4,Win32,60,left,0.855000257,4,0,4,0,1,3,1,0,240,156,1,239,,,,,,,,,,,,,,,,,,
,,1,112,,,,,,,3,4,1,stim/41.jpeg,HouseObjects,1,stim/objects/HouseObjects/recyclingbin2.png,0.9,1,-0.2,0.15,left,77,2020-12-09_16h00.34.777,premup-three_ses-01_part-01_label-phase1,3.2.4,Win32,60,left,0.715000153,4,0,4,0,1,3,1,0,240,228,1,239,,,,,,,,,,,,,,,,,,
,,0,113,,,,,,,1,6,3,stim/63.jpeg,HouseObjects,1,stim/objects/HouseObjects/pan.png,0.5,3,-0.2,-0.15,left,77,2020-12-09_16h00.34.777,premup-three_ses-01_part-01_label-phase1,3.2.4,Win32,60,right,0.948000193,4,0,4,0,1,3,1,0,240,54,1,239,,,,,,,,,,,,,,,,,,
,,1,114,,,,,,,3,4,3,stim/43.jpeg,HouseObjects,1,stim/objects/HouseObjects/rubbergloves2.png,0.9,1,-0.2,0.15,left,77,2020-12-09_16h00.34.777,premup-three_ses-01_part-01_label-phase1,3.2.4,Win32,60,left,0.688000202,4,0,4,0,1,3,1,0,240,234,1,239,,,,,,,,,,,,,,,,,,
,,0,115,,,,,,,1,5,2,stim/52.jpeg,Instruments,2,stim/objects/Instruments/laud.png,0.5,3,-0.2,-0.15,right,77,2020-12-09_16h00.34.777,premup-three_ses-01_part-01_label-phase1,3.2.4,Win32,60,left,0.609000206,4,0,4,0,1,3,1,0,240,25,1,239,,,,,,,,,,,,,,,,,,
,,1,116,,,,,,,1,5,1,stim/51.jpeg,Instruments,2,stim/objects/Instruments/keyboard.png,0.5,4,0.2,-0.15,right,77,2020-12-09_16h00.34.777,premup-three_ses-01_part-01_label-phase1,3.2.4,Win32,60,right,0.696000099,4,0,4,0,1,3,1,0,240,36,1,239,,,,,,,,,,,,,,,,,,
,,0,117,,,,,,,1,6,1,stim/61.jpeg,HouseObjects,1,stim/objects/HouseObjects/lintroller.png,0.5,1,-0.2,0.15,left,77,2020-12-09_16h00.34.777,premup-three_ses-01_part-01_label-phase1,3.2.4,Win32,60,right,0.927000046,4,0,4,0,1,3,1,0,240,56,1,239,,,,,,,,,,,,,,,,,,
,,0,118,,,,,,,3,3,2,stim/32.jpeg,Instruments,2,stim/objects/Instruments/musicsheet2.png,0.9,3,-0.2,-0.15,right,77,2020-12-09_16h00.34.777,premup-three_ses-01_part-01_label-phase1,3.2.4,Win32,60,left,1.044000149,4,0,4,0,1,3,1,0,240,193,1,239,,,,,,,,,,,,,,,,,,
,,1,119,,,,,,,2,1,3,stim/13.jpeg,HouseObjects,1,stim/objects/HouseObjects/rubbergloves.png,0.3,4,0.2,-0.15,left,77,2020-12-09_16h00.34.777,premup-three_ses-01_part-01_label-phase1,3.2.4,Win32,60,left,0.724000216,4,0,4,0,1,3,1,0,240,82,1,239,,,,,,,,,,,,,,,,,,
,,1,120,,,,,,,3,4,1,stim/41.jpeg,HouseObjects,1,stim/objects/HouseObjects/recyclingbin2.png,0.9,1,-0.2,0.15,left,77,2020-12-09_16h00.34.777,premup-three_ses-01_part-01_label-phase1,3.2.4,Win32,60,left,0.821000338,4,0,4,0,1,3,1,0,240,220,1,239,,,,,,,,,,,,,,,,,,
,,0,121,,,,,,,1,5,1,stim/51.jpeg,HouseObjects,1,stim/objects/HouseObjects/iron.png,0.5,2,0.2,0.15,left,77,2020-12-09_16h00.34.777,premup-three_ses-01_part-01_label-phase1,3.2.4,Win32,60,right,1.292000294,4,0,4,0,1,3,1,0,240,12,1,239,,,,,,,,,,,,,,,,,,
,,1,122,,,,,,,1,6,2,stim/62.jpeg,Instruments,2,stim/objects/Instruments/musicsheet.png,0.5,2,0.2,0.15,right,77,2020-12-09_16h00.34.777,premup-three_ses-01_part-01_label-phase1,3.2.4,Win32,60,right,0.891000032,4,0,4,0,1,3,1,0,240,65,1,239,,,,,,,,,,,,,,,,,,
,,0,123,,,,,,,2,1,1,stim/11.jpeg,Instruments,2,stim/objects/Instruments/panflute.png,0.7,3,-0.2,-0.15,right,77,2020-12-09_16h00.34.777,premup-three_ses-01_part-01_label-phase1,3.2.4,Win32,60,left,1.046000242,4,0,4,0,1,3,1,0,240,100,1,239,,,,,,,,,,,,,,,,,,
,,1,124,,,,,,,3,4,2,stim/42.jpeg,HouseObjects,1,stim/objects/HouseObjects/remote2.png,0.9,4,0.2,-0.15,left,77,2020-12-09_16h00.34.777,premup-three_ses-01_part-01_label-phase1,3.2.4,Win32,60,left,0.82400012,4,0,4,0,1,3,1,0,240,217,1,239,,,,,,,,,,,,,,,,,,
,,0,125,,,,,,,2,2,2,stim/22.jpeg,HouseObjects,1,stim/objects/HouseObjects/ironingboard2.png,0.7,3,-0.2,-0.15,left,77,2020-12-09_16h00.34.777,premup-three_ses-01_part-01_label-phase1,3.2.4,Win32,60,right,0.714000225,4,0,4,0,1,3,1,0,240,137,1,239,,,,,,,,,,,,,,,,,,
,,1,126,,,,,,,3,4,1,stim/41.jpeg,HouseObjects,1,stim/objects/HouseObjects/recyclingbin2.png,0.9,1,-0.2,0.15,left,77,2020-12-09_16h00.34.777,premup-three_ses-01_part-01_label-phase1,3.2.4,Win32,60,left,0.936000109,4,0,4,0,1,3,1,0,240,208,1,239,,,,,,,,,,,,,,,,,,
,,1,127,,,,,,,1,6,2,stim/62.jpeg,Instruments,2,stim/objects/Instruments/musicsheet.png,0.5,2,0.2,0.15,right,77,2020-12-09_16h00.34.777,premup-three_ses-01_part-01_label-phase1,3.2.4,Win32,60,right,1.041000366,4,0,4,0,1,3,1,0,240,77,1,239,,,,,,,,,,,,,,,,,,
,,1,128,,,,,,,3,3,4,stim/34.jpeg,Instruments,2,stim/objects/Instruments/oboe2.png,0.9,1,-0.2,0.15,right,77,2020-12-09_16h00.34.777,premup-three_ses-01_part-01_label-phase1,3.2.4,Win32,60,right,0.685000181,4,0,4,0,1,3,1,0,240,199,1,239,,,,,,,,,,,,,,,,,,
,,1,129,,,,,,,3,3,4,stim/34.jpeg,Instruments,2,stim/objects/Instruments/oboe2.png,0.9,4,0.2,-0.15,right,77,2020-12-09_16h00.34.777,premup-three_ses-01_part-01_label-phase1,3.2.4,Win32,60,right,0.572000027,4,0,4,0,1,3,1,0,240,167,1,239,,,,,,,,,,,,,,,,,,
,,0,130,,,,,,,1,5,4,stim/54.jpeg,Instruments,2,stim/objects/Instruments/marimba.png,0.5,2,0.2,0.15,right,77,2020-12-09_16h00.34.777,premup-three_ses-01_part-01_label-phase1,3.2.4,Win32,60,left,0.944000244,4,0,4,0,1,3,1,0,240,27,1,239,,,,,,,,,,,,,,,,,,
,,0,131,,,,,,,1,6,2,stim/62.jpeg,HouseObjects,1,stim/objects/HouseObjects/match.png,0.5,3,-0.2,-0.15,left,77,2020-12-09_16h00.34.777,premup-three_ses-01_part-01_label-phase1,3.2.4,Win32,60,right,1.002000332,4,0,4,0,1,3,1,0,240,41,1,239,,,,,,,,,,,,,,,,,,
,,1,132,,,,,,,2,1,4,stim/14.jpeg,Instruments,2,stim/objects/Instruments/record_player.png,0.7,3,-0.2,-0.15,right,77,2020-12-09_16h00.34.777,premup-three_ses-01_part-01_label-phase1,3.2.4,Win32,60,right,0.778000116,4,0,4,0,1,3,1,0,240,95,1,239,,,,,,,,,,,,,,,,,,
,,0,133,,,,,,,3,3,2,stim/32.jpeg,HouseObjects,1,stim/objects/HouseObjects/match2.png,0.1,4,0.2,-0.15,left,77,2020-12-09_16h00.34.777,premup-three_ses-01_part-01_label-phase1,3.2.4,Win32,60,right,0.637000322,4,0,4,0,1,3,1,0,240,161,1,239,,,,,,,,,,,,,,,,,,
