key_resp_trial.keys,key_resp_trial.rt,trial_acc,trial_index,iterations.thisRepN,iterations.thisTrialN,iterations.thisN,iterations.thisIndex,iterations.ran,iterations.order,task_innerloop.thisRepN,task_innerloop.thisTrialN,task_innerloop.thisN,task_innerloop.thisIndex,task_innerloop.ran,task_innerloop.order,scn_condition,scn_cat,scn_inst,scn_file,obj_cat,obj_cat_num,obj_file,trial_cond,quadrant,obj_x,obj_y,corr_ans,participant,date,expName,psychopyVersion,OS,frameRate,slider.response,slider.rt,slider_2.response,slider_2.rt,ratings.thisRepN,ratings.thisTrialN,ratings.thisN,ratings.thisIndex,ratings.ran,ratings.order,obj_cat_top,min_resp_top,max_resp_top,obj_cat_bottom,min_resp_bottom,max_resp_bottom,enc_trials.thisRepN,enc_trials.thisTrialN,enc_trials.thisN,enc_trials.thisIndex,enc_trials.ran,enc_trials.order,fillers,ratings_final.thisRepN,ratings_final.thisTrialN,ratings_final.thisN,ratings_final.thisIndex,ratings_final.ran,ratings_final.order
,,0,1,1,0,1,0,1,0,1,0,240,130,1,239,2,4,3,stim/43.jpeg,Instruments,1,stim/objects/Instruments/record2.png,0.7,4,0.2,-0.15,left,78,2020-12-08_10h03.56.235,premup-three_ses-02_part-02_label-phase2,3.2.4,Win32,60,,,,,,,,,,,,,,,,,,,,,,,,,,,,,
left,0.667999983,1,2,1,0,1,0,1,0,1,0,240,137,1,239,2,4,2,stim/42.jpeg,Instruments,1,stim/objects/Instruments/pipepiano2.png,0.7,2,0.2,0.15,left,78,2020-12-08_10h03.56.235,premup-three_ses-02_part-02_label-phase2,3.2.4,Win32,60,,,,,,,,,,,,,,,,,,,,,,,,,,,,,
right,0.734999895,1,3,1,0,1,0,1,0,1,0,240,152,1,239,2,4,1,stim/41.jpeg,HouseObjects,2,stim/objects/HouseObjects/recyclingbin2.png,0.3,3,-0.2,-0.15,right,78,2020-12-08_10h03.56.235,premup-three_ses-02_part-02_label-phase2,3.2.4,Win32,60,,,,,,,,,,,,,,,,,,,,,,,,,,,,,
right,0.875,1,4,1,0,1,0,1,0,1,0,240,170,1,239,3,5,3,stim/53.jpeg,HouseObjects,2,stim/objects/HouseObjects/scale2.png,0.9,3,-0.2,-0.15,right,78,2020-12-08_10h03.56.235,premup-three_ses-02_part-02_label-phase2,3.2.4,Win32,60,,,,,,,,,,,,,,,,,,,,,,,,,,,,,
left,0.808999777,1,5,1,0,1,0,1,0,1,0,240,55,1,239,1,2,4,stim/24.jpeg,Instruments,1,stim/objects/Instruments/timbal.png,0.5,2,0.2,0.15,left,78,2020-12-08_10h03.56.235,premup-three_ses-02_part-02_label-phase2,3.2.4,Win32,60,,,,,,,,,,,,,,,,,,,,,,,,,,,,,
left,0.921999931,0,6,1,0,1,0,1,0,1,0,240,92,1,239,2,3,1,stim/31.jpeg,HouseObjects,2,stim/objects/HouseObjects/spraybottle.png,0.7,3,-0.2,-0.15,right,78,2020-12-08_10h03.56.235,premup-three_ses-02_part-02_label-phase2,3.2.4,Win32,60,,,,,,,,,,,,,,,,,,,,,,,,,,,,,
left,0.733999968,0,7,1,0,1,0,1,0,1,0,240,29,1,239,1,1,2,stim/12.jpeg,HouseObjects,2,stim/objects/HouseObjects/remote.png,0.5,1,-0.2,0.15,right,78,2020-12-08_10h03.56.235,premup-three_ses-02_part-02_label-phase2,3.2.4,Win32,60,,,,,,,,,,,,,,,,,,,,,,,,,,,,,
left,0.916999817,1,8,1,0,1,0,1,0,1,0,240,53,1,239,1,2,2,stim/22.jpeg,Instruments,1,stim/objects/Instruments/speaker.png,0.5,3,-0.2,-0.15,left,78,2020-12-08_10h03.56.235,premup-three_ses-02_part-02_label-phase2,3.2.4,Win32,60,,,,,,,,,,,,,,,,,,,,,,,,,,,,,
right,0.852999926,1,9,1,0,1,0,1,0,1,0,240,148,1,239,2,4,1,stim/41.jpeg,HouseObjects,2,stim/objects/HouseObjects/recyclingbin2.png,0.3,4,0.2,-0.15,right,78,2020-12-08_10h03.56.235,premup-three_ses-02_part-02_label-phase2,3.2.4,Win32,60,,,,,,,,,,,,,,,,,,,,,,,,,,,,,
,,0,10,1,0,1,0,1,0,1,0,240,114,1,239,2,3,3,stim/33.jpeg,HouseObjects,2,stim/objects/HouseObjects/thermometer.png,0.7,4,0.2,-0.15,right,78,2020-12-08_10h03.56.235,premup-three_ses-02_part-02_label-phase2,3.2.4,Win32,60,,,,,,,,,,,,,,,,,,,,,,,,,,,,,
left,0.566999912,1,11,1,0,1,0,1,0,1,0,240,212,1,239,3,6,1,stim/61.jpeg,Instruments,1,stim/objects/Instruments/triangle2.png,0.9,3,-0.2,-0.15,left,78,2020-12-08_10h03.56.235,premup-three_ses-02_part-02_label-phase2,3.2.4,Win32,60,,,,,,,,,,,,,,,,,,,,,,,,,,,,,
left,0.832999945,1,12,1,0,1,0,1,0,1,0,240,138,1,239,2,4,3,stim/43.jpeg,Instruments,1,stim/objects/Instruments/record2.png,0.7,2,0.2,0.15,left,78,2020-12-08_10h03.56.235,premup-three_ses-02_part-02_label-phase2,3.2.4,Win32,60,,,,,,,,,,,,,,,,,,,,,,,,,,,,,
left,0.736000061,0,13,1,0,1,0,1,0,1,0,240,28,1,239,1,1,1,stim/11.jpeg,HouseObjects,2,stim/objects/HouseObjects/recyclingbin.png,0.5,2,0.2,0.15,right,78,2020-12-08_10h03.56.235,premup-three_ses-02_part-02_label-phase2,3.2.4,Win32,60,,,,,,,,,,,,,,,,,,,,,,,,,,,,,
right,0.885999918,0,14,1,0,1,0,1,0,1,0,240,89,1,239,2,3,2,stim/32.jpeg,Instruments,1,stim/objects/Instruments/trombone.png,0.3,3,-0.2,-0.15,left,78,2020-12-08_10h03.56.235,premup-three_ses-02_part-02_label-phase2,3.2.4,Win32,60,,,,,,,,,,,,,,,,,,,,,,,,,,,,,
left,0.586000204,1,15,1,0,1,0,1,0,1,0,240,226,1,239,3,6,3,stim/63.jpeg,Instruments,1,stim/objects/Instruments/trumpet2.png,0.9,2,0.2,0.15,left,78,2020-12-08_10h03.56.235,premup-three_ses-02_part-02_label-phase2,3.2.4,Win32,60,,,,,,,,,,,,,,,,,,,,,,,,,,,,,
right,0.663000107,1,16,1,0,1,0,1,0,1,0,240,60,1,239,1,2,1,stim/21.jpeg,HouseObjects,2,stim/objects/HouseObjects/safetypin.png,0.5,3,-0.2,-0.15,right,78,2020-12-08_10h03.56.235,premup-three_ses-02_part-02_label-phase2,3.2.4,Win32,60,,,,,,,,,,,,,,,,,,,,,,,,,,,,,
left,0.584000111,1,17,1,0,1,0,1,0,1,0,240,222,1,239,3,6,3,stim/63.jpeg,Instruments,1,stim/objects/Instruments/trumpet2.png,0.9,1,-0.2,0.15,left,78,2020-12-08_10h03.56.235,premup-three_ses-02_part-02_label-phase2,3.2.4,Win32,60,,,,,,,,,,,,,,,,,,,,,,,,,,,,,
left,0.850999832,1,18,1,0,1,0,1,0,1,0,240,122,1,239,2,4,3,stim/43.jpeg,Instruments,1,stim/objects/Instruments/record2.png,0.7,3,-0.2,-0.15,left,78,2020-12-08_10h03.56.235,premup-three_ses-02_part-02_label-phase2,3.2.4,Win32,60,,,,,,,,,,,,,,,,,,,,,,,,,,,,,
right,0.849000216,1,19,1,0,1,0,1,0,1,0,240,115,1,239,2,3,4,stim/34.jpeg,HouseObjects,2,stim/objects/HouseObjects/thread.png,0.7,4,0.2,-0.15,right,78,2020-12-08_10h03.56.235,premup-three_ses-02_part-02_label-phase2,3.2.4,Win32,60,,,,,,,,,,,,,,,,,,,,,,,,,,,,,
,,0,20,1,0,1,0,1,0,1,0,240,22,1,239,1,1,3,stim/13.jpeg,HouseObjects,2,stim/objects/HouseObjects/rubbergloves.png,0.5,1,-0.2,0.15,right,78,2020-12-08_10h03.56.235,premup-three_ses-02_part-02_label-phase2,3.2.4,Win32,60,,,,,,,,,,,,,,,,,,,,,,,,,,,,,
left,0.847999811,0,21,1,0,1,0,1,0,1,0,240,111,1,239,2,3,4,stim/34.jpeg,HouseObjects,2,stim/objects/HouseObjects/thread.png,0.7,2,0.2,0.15,right,78,2020-12-08_10h03.56.235,premup-three_ses-02_part-02_label-phase2,3.2.4,Win32,60,,,,,,,,,,,,,,,,,,,,,,,,,,,,,
right,0.569999933,1,22,1,0,1,0,1,0,1,0,240,176,1,239,3,5,1,stim/51.jpeg,HouseObjects,2,stim/objects/HouseObjects/safetypin2.png,0.9,1,-0.2,0.15,right,78,2020-12-08_10h03.56.235,premup-three_ses-02_part-02_label-phase2,3.2.4,Win32,60,,,,,,,,,,,,,,,,,,,,,,,,,,,,,
left,0.888000011,0,23,1,0,1,0,1,0,1,0,240,112,1,239,2,3,1,stim/31.jpeg,HouseObjects,2,stim/objects/HouseObjects/spraybottle.png,0.7,2,0.2,0.15,right,78,2020-12-08_10h03.56.235,premup-three_ses-02_part-02_label-phase2,3.2.4,Win32,60,,,,,,,,,,,,,,,,,,,,,,,,,,,,,
right,0.70299983,1,24,1,0,1,0,1,0,1,0,240,102,1,239,2,3,3,stim/33.jpeg,HouseObjects,2,stim/objects/HouseObjects/thermometer.png,0.7,4,0.2,-0.15,right,78,2020-12-08_10h03.56.235,premup-three_ses-02_part-02_label-phase2,3.2.4,Win32,60,,,,,,,,,,,,,,,,,,,,,,,,,,,,,
right,0.772000074,0,25,1,0,1,0,1,0,1,0,240,57,1,239,1,2,2,stim/22.jpeg,Instruments,1,stim/objects/Instruments/speaker.png,0.5,1,-0.2,0.15,left,78,2020-12-08_10h03.56.235,premup-three_ses-02_part-02_label-phase2,3.2.4,Win32,60,,,,,,,,,,,,,,,,,,,,,,,,,,,,,
left,0.562999964,0,26,1,0,1,0,1,0,1,0,240,239,1,239,3,6,4,stim/64.jpeg,HouseObjects,2,stim/objects/HouseObjects/thread2.png,0.1,4,0.2,-0.15,right,78,2020-12-08_10h03.56.235,premup-three_ses-02_part-02_label-phase2,3.2.4,Win32,60,,,,,,,,,,,,,,,,,,,,,,,,,,,,,
left,0.777999878,0,27,1,0,1,0,1,0,1,0,240,20,1,239,1,1,1,stim/11.jpeg,HouseObjects,2,stim/objects/HouseObjects/recyclingbin.png,0.5,3,-0.2,-0.15,right,78,2020-12-08_10h03.56.235,premup-three_ses-02_part-02_label-phase2,3.2.4,Win32,60,,,,,,,,,,,,,,,,,,,,,,,,,,,,,
left,0.835000038,0,28,1,0,1,0,1,0,1,0,240,35,1,239,1,1,4,stim/14.jpeg,HouseObjects,2,stim/objects/HouseObjects/rug.png,0.5,3,-0.2,-0.15,right,78,2020-12-08_10h03.56.235,premup-three_ses-02_part-02_label-phase2,3.2.4,Win32,60,,,,,,,,,,,,,,,,,,,,,,,,,,,,,
left,0.690999985,1,29,1,0,1,0,1,0,1,0,240,134,1,239,2,4,3,stim/43.jpeg,Instruments,1,stim/objects/Instruments/record2.png,0.7,1,-0.2,0.15,left,78,2020-12-08_10h03.56.235,premup-three_ses-02_part-02_label-phase2,3.2.4,Win32,60,,,,,,,,,,,,,,,,,,,,,,,,,,,,,
,,0,30,1,0,1,0,1,0,1,0,240,139,1,239,2,4,4,stim/44.jpeg,Instruments,1,stim/objects/Instruments/record_player2.png,0.7,1,-0.2,0.15,left,78,2020-12-08_10h03.56.235,premup-three_ses-02_part-02_label-phase2,3.2.4,Win32,60,,,,,,,,,,,,,,,,,,,,,,,,,,,,,
right,0.802999973,0,31,1,0,1,0,1,0,1,0,240,7,1,239,1,1,4,stim/14.jpeg,Instruments,1,stim/objects/Instruments/record_player.png,0.5,4,0.2,-0.15,left,78,2020-12-08_10h03.56.235,premup-three_ses-02_part-02_label-phase2,3.2.4,Win32,60,,,,,,,,,,,,,,,,,,,,,,,,,,,,,
left,0.570999861,1,32,1,0,1,0,1,0,1,0,240,211,1,239,3,6,4,stim/64.jpeg,Instruments,1,stim/objects/Instruments/tuba2.png,0.9,2,0.2,0.15,left,78,2020-12-08_10h03.56.235,premup-three_ses-02_part-02_label-phase2,3.2.4,Win32,60,,,,,,,,,,,,,,,,,,,,,,,,,,,,,
,,0,33,1,0,1,0,1,0,1,0,240,78,1,239,1,2,3,stim/23.jpeg,HouseObjects,2,stim/objects/HouseObjects/scale.png,0.5,1,-0.2,0.15,right,78,2020-12-08_10h03.56.235,premup-three_ses-02_part-02_label-phase2,3.2.4,Win32,60,,,,,,,,,,,,,,,,,,,,,,,,,,,,,
right,0.523999929,1,34,1,0,1,0,1,0,1,0,240,69,1,239,1,2,2,stim/22.jpeg,HouseObjects,2,stim/objects/HouseObjects/saw.png,0.5,1,-0.2,0.15,right,78,2020-12-08_10h03.56.235,premup-three_ses-02_part-02_label-phase2,3.2.4,Win32,60,,,,,,,,,,,,,,,,,,,,,,,,,,,,,
right,0.590999842,0,35,1,0,1,0,1,0,1,0,240,162,1,239,3,5,3,stim/53.jpeg,Instruments,1,stim/objects/Instruments/tambourine2.png,0.1,4,0.2,-0.15,left,78,2020-12-08_10h03.56.235,premup-three_ses-02_part-02_label-phase2,3.2.4,Win32,60,,,,,,,,,,,,,,,,,,,,,,,,,,,,,
left,0.569999933,1,36,1,0,1,0,1,0,1,0,240,204,1,239,3,6,1,stim/61.jpeg,Instruments,1,stim/objects/Instruments/triangle2.png,0.9,3,-0.2,-0.15,left,78,2020-12-08_10h03.56.235,premup-three_ses-02_part-02_label-phase2,3.2.4,Win32,60,,,,,,,,,,,,,,,,,,,,,,,,,,,,,
right,0.56099987,1,37,1,0,1,0,1,0,1,0,240,178,1,239,3,5,3,stim/53.jpeg,HouseObjects,2,stim/objects/HouseObjects/scale2.png,0.9,1,-0.2,0.15,right,78,2020-12-08_10h03.56.235,premup-three_ses-02_part-02_label-phase2,3.2.4,Win32,60,,,,,,,,,,,,,,,,,,,,,,,,,,,,,
left,0.55099988,0,38,1,0,1,0,1,0,1,0,240,237,1,239,3,6,2,stim/62.jpeg,HouseObjects,2,stim/objects/HouseObjects/teapot2.png,0.1,1,-0.2,0.15,right,78,2020-12-08_10h03.56.235,premup-three_ses-02_part-02_label-phase2,3.2.4,Win32,60,,,,,,,,,,,,,,,,,,,,,,,,,,,,,
right,0.571000099,1,39,1,0,1,0,1,0,1,0,240,165,1,239,3,5,2,stim/52.jpeg,HouseObjects,2,stim/objects/HouseObjects/saw2.png,0.9,2,0.2,0.15,right,78,2020-12-08_10h03.56.235,premup-three_ses-02_part-02_label-phase2,3.2.4,Win32,60,,,,,,,,,,,,,,,,,,,,,,,,,,,,,
left,0.52699995,1,40,1,0,1,0,1,0,1,0,240,219,1,239,3,6,4,stim/64.jpeg,Instruments,1,stim/objects/Instruments/tuba2.png,0.9,2,0.2,0.15,left,78,2020-12-08_10h03.56.235,premup-three_ses-02_part-02_label-phase2,3.2.4,Win32,60,,,,,,,,,,,,,,,,,,,,,,,,,,,,,
right,0.670000076,0,41,1,0,1,0,1,0,1,0,240,56,1,239,1,2,1,stim/21.jpeg,Instruments,1,stim/objects/Instruments/saxophone.png,0.5,4,0.2,-0.15,left,78,2020-12-08_10h03.56.235,premup-three_ses-02_part-02_label-phase2,3.2.4,Win32,60,,,,,,,,,,,,,,,,,,,,,,,,,,,,,
left,0.654999971,0,42,1,0,1,0,1,0,1,0,240,23,1,239,1,1,4,stim/14.jpeg,HouseObjects,2,stim/objects/HouseObjects/rug.png,0.5,2,0.2,0.15,right,78,2020-12-08_10h03.56.235,premup-three_ses-02_part-02_label-phase2,3.2.4,Win32,60,,,,,,,,,,,,,,,,,,,,,,,,,,,,,
,,0,43,1,0,1,0,1,0,1,0,240,9,1,239,1,1,2,stim/12.jpeg,Instruments,1,stim/objects/Instruments/pipepiano.png,0.5,3,-0.2,-0.15,left,78,2020-12-08_10h03.56.235,premup-three_ses-02_part-02_label-phase2,3.2.4,Win32,60,,,,,,,,,,,,,,,,,,,,,,,,,,,,,
right,0.670000076,1,44,1,0,1,0,1,0,1,0,240,65,1,239,1,2,2,stim/22.jpeg,HouseObjects,2,stim/objects/HouseObjects/saw.png,0.5,2,0.2,0.15,right,78,2020-12-08_10h03.56.235,premup-three_ses-02_part-02_label-phase2,3.2.4,Win32,60,,,,,,,,,,,,,,,,,,,,,,,,,,,,,
right,0.49000001,1,45,1,0,1,0,1,0,1,0,240,196,1,239,3,5,1,stim/51.jpeg,HouseObjects,2,stim/objects/HouseObjects/safetypin2.png,0.9,3,-0.2,-0.15,right,78,2020-12-08_10h03.56.235,premup-three_ses-02_part-02_label-phase2,3.2.4,Win32,60,,,,,,,,,,,,,,,,,,,,,,,,,,,,,
left,0.656000137,1,46,1,0,1,0,1,0,1,0,240,146,1,239,2,4,3,stim/43.jpeg,Instruments,1,stim/objects/Instruments/record2.png,0.7,1,-0.2,0.15,left,78,2020-12-08_10h03.56.235,premup-three_ses-02_part-02_label-phase2,3.2.4,Win32,60,,,,,,,,,,,,,,,,,,,,,,,,,,,,,
,,0,47,1,0,1,0,1,0,1,0,240,119,1,239,2,3,4,stim/34.jpeg,HouseObjects,2,stim/objects/HouseObjects/thread.png,0.7,3,-0.2,-0.15,right,78,2020-12-08_10h03.56.235,premup-three_ses-02_part-02_label-phase2,3.2.4,Win32,60,,,,,,,,,,,,,,,,,,,,,,,,,,,,,
right,0.56099987,1,48,1,0,1,0,1,0,1,0,240,70,1,239,1,2,3,stim/23.jpeg,HouseObjects,2,stim/objects/HouseObjects/scale.png,0.5,4,0.2,-0.15,right,78,2020-12-08_10h03.56.235,premup-three_ses-02_part-02_label-phase2,3.2.4,Win32,60,,,,,,,,,,,,,,,,,,,,,,,,,,,,,
left,0.578999996,1,49,1,0,1,0,1,0,1,0,240,142,1,239,2,4,3,stim/43.jpeg,Instruments,1,stim/objects/Instruments/record2.png,0.7,1,-0.2,0.15,left,78,2020-12-08_10h03.56.235,premup-three_ses-02_part-02_label-phase2,3.2.4,Win32,60,,,,,,,,,,,,,,,,,,,,,,,,,,,,,
right,0.688999891,1,50,1,0,1,0,1,0,1,0,240,190,1,239,3,5,3,stim/53.jpeg,HouseObjects,2,stim/objects/HouseObjects/scale2.png,0.9,2,0.2,0.15,right,78,2020-12-08_10h03.56.235,premup-three_ses-02_part-02_label-phase2,3.2.4,Win32,60,,,,,,,,,,,,,,,,,,,,,,,,,,,,,
right,0.654999971,1,51,1,0,1,0,1,0,1,0,240,76,1,239,1,2,1,stim/21.jpeg,HouseObjects,2,stim/objects/HouseObjects/safetypin.png,0.5,3,-0.2,-0.15,right,78,2020-12-08_10h03.56.235,premup-three_ses-02_part-02_label-phase2,3.2.4,Win32,60,,,,,,,,,,,,,,,,,,,,,,,,,,,,,
,,0,52,1,0,1,0,1,0,1,0,240,81,1,239,2,3,2,stim/32.jpeg,Instruments,1,stim/objects/Instruments/trombone.png,0.3,2,0.2,0.15,left,78,2020-12-08_10h03.56.235,premup-three_ses-02_part-02_label-phase2,3.2.4,Win32,60,,,,,,,,,,,,,,,,,,,,,,,,,,,,,
right,0.458000183,1,53,1,0,1,0,1,0,1,0,240,181,1,239,3,5,2,stim/52.jpeg,HouseObjects,2,stim/objects/HouseObjects/saw2.png,0.9,4,0.2,-0.15,right,78,2020-12-08_10h03.56.235,premup-three_ses-02_part-02_label-phase2,3.2.4,Win32,60,,,,,,,,,,,,,,,,,,,,,,,,,,,,,
right,0.55700016,0,54,1,0,1,0,1,0,1,0,240,140,1,239,2,4,1,stim/41.jpeg,Instruments,1,stim/objects/Instruments/panflute2.png,0.7,2,0.2,0.15,left,78,2020-12-08_10h03.56.235,premup-three_ses-02_part-02_label-phase2,3.2.4,Win32,60,,,,,,,,,,,,,,,,,,,,,,,,,,,,,
left,0.555999994,1,55,1,0,1,0,1,0,1,0,240,220,1,239,3,6,1,stim/61.jpeg,Instruments,1,stim/objects/Instruments/triangle2.png,0.9,4,0.2,-0.15,left,78,2020-12-08_10h03.56.235,premup-three_ses-02_part-02_label-phase2,3.2.4,Win32,60,,,,,,,,,,,,,,,,,,,,,,,,,,,,,
right,0.487999916,1,56,1,0,1,0,1,0,1,0,240,188,1,239,3,5,1,stim/51.jpeg,HouseObjects,2,stim/objects/HouseObjects/safetypin2.png,0.9,4,0.2,-0.15,right,78,2020-12-08_10h03.56.235,premup-three_ses-02_part-02_label-phase2,3.2.4,Win32,60,,,,,,,,,,,,,,,,,,,,,,,,,,,,,
right,0.930999994,1,57,1,0,1,0,1,0,1,0,240,32,1,239,1,1,1,stim/11.jpeg,HouseObjects,2,stim/objects/HouseObjects/recyclingbin.png,0.5,1,-0.2,0.15,right,78,2020-12-08_10h03.56.235,premup-three_ses-02_part-02_label-phase2,3.2.4,Win32,60,,,,,,,,,,,,,,,,,,,,,,,,,,,,,
left,0.61500001,1,58,1,0,1,0,1,0,1,0,240,123,1,239,2,4,4,stim/44.jpeg,Instruments,1,stim/objects/Instruments/record_player2.png,0.7,3,-0.2,-0.15,left,78,2020-12-08_10h03.56.235,premup-three_ses-02_part-02_label-phase2,3.2.4,Win32,60,,,,,,,,,,,,,,,,,,,,,,,,,,,,,
left,0.592999935,1,59,1,0,1,0,1,0,1,0,240,201,1,239,3,6,2,stim/62.jpeg,Instruments,1,stim/objects/Instruments/trombone2.png,0.9,1,-0.2,0.15,left,78,2020-12-08_10h03.56.235,premup-three_ses-02_part-02_label-phase2,3.2.4,Win32,60,,,,,,,,,,,,,,,,,,,,,,,,,,,,,
left,0.47300005,1,60,1,0,1,0,1,0,1,0,240,218,1,239,3,6,3,stim/63.jpeg,Instruments,1,stim/objects/Instruments/trumpet2.png,0.9,3,-0.2,-0.15,left,78,2020-12-08_10h03.56.235,premup-three_ses-02_part-02_label-phase2,3.2.4,Win32,60,,,,,,,,,,,,,,,,,,,,,,,,,,,,,
right,0.677000046,0,61,1,0,1,0,1,0,1,0,240,11,1,239,1,1,4,stim/14.jpeg,Instruments,1,stim/objects/Instruments/record_player.png,0.5,4,0.2,-0.15,left,78,2020-12-08_10h03.56.235,premup-three_ses-02_part-02_label-phase2,3.2.4,Win32,60,,,,,,,,,,,,,,,,,,,,,,,,,,,,,
right,0.478999853,1,62,1,0,1,0,1,0,1,0,240,180,1,239,3,5,1,stim/51.jpeg,HouseObjects,2,stim/objects/HouseObjects/safetypin2.png,0.9,4,0.2,-0.15,right,78,2020-12-08_10h03.56.235,premup-three_ses-02_part-02_label-phase2,3.2.4,Win32,60,,,,,,,,,,,,,,,,,,,,,,,,,,,,,
left,0.468000174,1,63,1,0,1,0,1,0,1,0,240,223,1,239,3,6,4,stim/64.jpeg,Instruments,1,stim/objects/Instruments/tuba2.png,0.9,2,0.2,0.15,left,78,2020-12-08_10h03.56.235,premup-three_ses-02_part-02_label-phase2,3.2.4,Win32,60,,,,,,,,,,,,,,,,,,,,,,,,,,,,,
,,0,64,1,0,1,0,1,0,1,0,240,124,1,239,2,4,1,stim/41.jpeg,Instruments,1,stim/objects/Instruments/panflute2.png,0.7,1,-0.2,0.15,left,78,2020-12-08_10h03.56.235,premup-three_ses-02_part-02_label-phase2,3.2.4,Win32,60,,,,,,,,,,,,,,,,,,,,,,,,,,,,,
right,0.470999956,1,65,1,0,1,0,1,0,1,0,240,63,1,239,1,2,4,stim/24.jpeg,HouseObjects,2,stim/objects/HouseObjects/sponge.png,0.5,2,0.2,0.15,right,78,2020-12-08_10h03.56.235,premup-three_ses-02_part-02_label-phase2,3.2.4,Win32,60,,,,,,,,,,,,,,,,,,,,,,,,,,,,,
left,0.545000076,1,66,1,0,1,0,1,0,1,0,240,206,1,239,3,6,3,stim/63.jpeg,Instruments,1,stim/objects/Instruments/trumpet2.png,0.9,3,-0.2,-0.15,left,78,2020-12-08_10h03.56.235,premup-three_ses-02_part-02_label-phase2,3.2.4,Win32,60,,,,,,,,,,,,,,,,,,,,,,,,,,,,,
right,0.669999838,0,67,1,0,1,0,1,0,1,0,240,85,1,239,2,3,2,stim/32.jpeg,Instruments,1,stim/objects/Instruments/trombone.png,0.3,2,0.2,0.15,left,78,2020-12-08_10h03.56.235,premup-three_ses-02_part-02_label-phase2,3.2.4,Win32,60,,,,,,,,,,,,,,,,,,,,,,,,,,,,,
right,0.584000111,1,68,1,0,1,0,1,0,1,0,240,198,1,239,3,5,3,stim/53.jpeg,HouseObjects,2,stim/objects/HouseObjects/scale2.png,0.9,1,-0.2,0.15,right,78,2020-12-08_10h03.56.235,premup-three_ses-02_part-02_label-phase2,3.2.4,Win32,60,,,,,,,,,,,,,,,,,,,,,,,,,,,,,
left,0.809000015,1,69,1,0,1,0,1,0,1,0,240,231,1,239,3,6,4,stim/64.jpeg,Instruments,1,stim/objects/Instruments/tuba2.png,0.9,3,-0.2,-0.15,left,78,2020-12-08_10h03.56.235,premup-three_ses-02_part-02_label-phase2,3.2.4,Win32,60,,,,,,,,,,,,,,,,,,,,,,,,,,,,,
right,0.771000147,1,70,1,0,1,0,1,0,1,0,240,34,1,239,1,1,3,stim/13.jpeg,HouseObjects,2,stim/objects/HouseObjects/rubbergloves.png,0.5,3,-0.2,-0.15,right,78,2020-12-08_10h03.56.235,premup-three_ses-02_part-02_label-phase2,3.2.4,Win32,60,,,,,,,,,,,,,,,,,,,,,,,,,,,,,
left,0.519000053,1,71,1,0,1,0,1,0,1,0,240,227,1,239,3,6,4,stim/64.jpeg,Instruments,1,stim/objects/Instruments/tuba2.png,0.9,3,-0.2,-0.15,left,78,2020-12-08_10h03.56.235,premup-three_ses-02_part-02_label-phase2,3.2.4,Win32,60,,,,,,,,,,,,,,,,,,,,,,,,,,,,,
right,0.571000099,1,72,1,0,1,0,1,0,1,0,240,99,1,239,2,3,4,stim/34.jpeg,HouseObjects,2,stim/objects/HouseObjects/thread.png,0.7,4,0.2,-0.15,right,78,2020-12-08_10h03.56.235,premup-three_ses-02_part-02_label-phase2,3.2.4,Win32,60,,,,,,,,,,,,,,,,,,,,,,,,,,,,,
right,0.563999891,0,73,1,0,1,0,1,0,1,0,240,163,1,239,3,5,4,stim/54.jpeg,Instruments,1,stim/objects/Instruments/timbal2.png,0.1,1,-0.2,0.15,left,78,2020-12-08_10h03.56.235,premup-three_ses-02_part-02_label-phase2,3.2.4,Win32,60,,,,,,,,,,,,,,,,,,,,,,,,,,,,,
left,0.690999985,1,74,1,0,1,0,1,0,1,0,240,12,1,239,1,1,1,stim/11.jpeg,Instruments,1,stim/objects/Instruments/panflute.png,0.5,1,-0.2,0.15,left,78,2020-12-08_10h03.56.235,premup-three_ses-02_part-02_label-phase2,3.2.4,Win32,60,,,,,,,,,,,,,,,,,,,,,,,,,,,,,
right,0.644999981,1,75,1,0,1,0,1,0,1,0,240,74,1,239,1,2,3,stim/23.jpeg,HouseObjects,2,stim/objects/HouseObjects/scale.png,0.5,2,0.2,0.15,right,78,2020-12-08_10h03.56.235,premup-three_ses-02_part-02_label-phase2,3.2.4,Win32,60,,,,,,,,,,,,,,,,,,,,,,,,,,,,,
right,0.506999969,0,76,1,0,1,0,1,0,1,0,240,50,1,239,1,2,3,stim/23.jpeg,Instruments,1,stim/objects/Instruments/tambourine.png,0.5,4,0.2,-0.15,left,78,2020-12-08_10h03.56.235,premup-three_ses-02_part-02_label-phase2,3.2.4,Win32,60,,,,,,,,,,,,,,,,,,,,,,,,,,,,,
left,0.703999996,0,77,1,0,1,0,1,0,1,0,240,159,1,239,2,4,4,stim/44.jpeg,HouseObjects,2,stim/objects/HouseObjects/rug2.png,0.3,1,-0.2,0.15,right,78,2020-12-08_10h03.56.235,premup-three_ses-02_part-02_label-phase2,3.2.4,Win32,60,,,,,,,,,,,,,,,,,,,,,,,,,,,,,
right,0.589999914,1,78,1,0,1,0,1,0,1,0,240,71,1,239,1,2,4,stim/24.jpeg,HouseObjects,2,stim/objects/HouseObjects/sponge.png,0.5,2,0.2,0.15,right,78,2020-12-08_10h03.56.235,premup-three_ses-02_part-02_label-phase2,3.2.4,Win32,60,,,,,,,,,,,,,,,,,,,,,,,,,,,,,
left,0.671999931,1,79,1,0,1,0,1,0,1,0,240,125,1,239,2,4,2,stim/42.jpeg,Instruments,1,stim/objects/Instruments/pipepiano2.png,0.7,4,0.2,-0.15,left,78,2020-12-08_10h03.56.235,premup-three_ses-02_part-02_label-phase2,3.2.4,Win32,60,,,,,,,,,,,,,,,,,,,,,,,,,,,,,
left,0.921999931,0,80,1,0,1,0,1,0,1,0,240,156,1,239,2,4,1,stim/41.jpeg,HouseObjects,2,stim/objects/HouseObjects/recyclingbin2.png,0.3,4,0.2,-0.15,right,78,2020-12-08_10h03.56.235,premup-three_ses-02_part-02_label-phase2,3.2.4,Win32,60,,,,,,,,,,,,,,,,,,,,,,,,,,,,,
,,0,81,1,0,1,0,1,0,1,0,240,88,1,239,2,3,1,stim/31.jpeg,Instruments,1,stim/objects/Instruments/triangle.png,0.3,3,-0.2,-0.15,left,78,2020-12-08_10h03.56.235,premup-three_ses-02_part-02_label-phase2,3.2.4,Win32,60,,,,,,,,,,,,,,,,,,,,,,,,,,,,,
left,0.605000019,0,82,1,0,1,0,1,0,1,0,240,113,1,239,2,3,2,stim/32.jpeg,HouseObjects,2,stim/objects/HouseObjects/teapot.png,0.7,3,-0.2,-0.15,right,78,2020-12-08_10h03.56.235,premup-three_ses-02_part-02_label-phase2,3.2.4,Win32,60,,,,,,,,,,,,,,,,,,,,,,,,,,,,,
left,0.738999844,1,83,1,0,1,0,1,0,1,0,240,136,1,239,2,4,1,stim/41.jpeg,Instruments,1,stim/objects/Instruments/panflute2.png,0.7,3,-0.2,-0.15,left,78,2020-12-08_10h03.56.235,premup-three_ses-02_part-02_label-phase2,3.2.4,Win32,60,,,,,,,,,,,,,,,,,,,,,,,,,,,,,
left,0.690999985,0,84,1,0,1,0,1,0,1,0,240,36,1,239,1,1,1,stim/11.jpeg,HouseObjects,2,stim/objects/HouseObjects/recyclingbin.png,0.5,2,0.2,0.15,right,78,2020-12-08_10h03.56.235,premup-three_ses-02_part-02_label-phase2,3.2.4,Win32,60,,,,,,,,,,,,,,,,,,,,,,,,,,,,,
right,0.694999933,0,85,1,0,1,0,1,0,1,0,240,87,1,239,2,3,4,stim/34.jpeg,Instruments,1,stim/objects/Instruments/tuba.png,0.3,2,0.2,0.15,left,78,2020-12-08_10h03.56.235,premup-three_ses-02_part-02_label-phase2,3.2.4,Win32,60,,,,,,,,,,,,,,,,,,,,,,,,,,,,,
right,0.870000124,1,86,1,0,1,0,1,0,1,0,240,182,1,239,3,5,3,stim/53.jpeg,HouseObjects,2,stim/objects/HouseObjects/scale2.png,0.9,1,-0.2,0.15,right,78,2020-12-08_10h03.56.235,premup-three_ses-02_part-02_label-phase2,3.2.4,Win32,60,,,,,,,,,,,,,,,,,,,,,,,,,,,,,
left,0.589999914,1,87,1,0,1,0,1,0,1,0,240,209,1,239,3,6,2,stim/62.jpeg,Instruments,1,stim/objects/Instruments/trombone2.png,0.9,4,0.2,-0.15,left,78,2020-12-08_10h03.56.235,premup-three_ses-02_part-02_label-phase2,3.2.4,Win32,60,,,,,,,,,,,,,,,,,,,,,,,,,,,,,
left,0.673999786,1,88,1,0,1,0,1,0,1,0,240,15,1,239,1,1,4,stim/14.jpeg,Instruments,1,stim/objects/Instruments/record_player.png,0.5,3,-0.2,-0.15,left,78,2020-12-08_10h03.56.235,premup-three_ses-02_part-02_label-phase2,3.2.4,Win32,60,,,,,,,,,,,,,,,,,,,,,,,,,,,,,
right,0.693000078,1,89,1,0,1,0,1,0,1,0,240,103,1,239,2,3,4,stim/34.jpeg,HouseObjects,2,stim/objects/HouseObjects/thread.png,0.7,3,-0.2,-0.15,right,78,2020-12-08_10h03.56.235,premup-three_ses-02_part-02_label-phase2,3.2.4,Win32,60,,,,,,,,,,,,,,,,,,,,,,,,,,,,,
right,0.657000065,1,90,1,0,1,0,1,0,1,0,240,61,1,239,1,2,2,stim/22.jpeg,HouseObjects,2,stim/objects/HouseObjects/saw.png,0.5,1,-0.2,0.15,right,78,2020-12-08_10h03.56.235,premup-three_ses-02_part-02_label-phase2,3.2.4,Win32,60,,,,,,,,,,,,,,,,,,,,,,,,,,,,,
right,0.545000076,1,91,1,0,1,0,1,0,1,0,240,184,1,239,3,5,1,stim/51.jpeg,HouseObjects,2,stim/objects/HouseObjects/safetypin2.png,0.9,4,0.2,-0.15,right,78,2020-12-08_10h03.56.235,premup-three_ses-02_part-02_label-phase2,3.2.4,Win32,60,,,,,,,,,,,,,,,,,,,,,,,,,,,,,
right,0.493999958,1,92,1,0,1,0,1,0,1,0,240,64,1,239,1,2,1,stim/21.jpeg,HouseObjects,2,stim/objects/HouseObjects/safetypin.png,0.5,4,0.2,-0.15,right,78,2020-12-08_10h03.56.235,premup-three_ses-02_part-02_label-phase2,3.2.4,Win32,60,,,,,,,,,,,,,,,,,,,,,,,,,,,,,
left,0.71600008,0,93,1,0,1,0,1,0,1,0,240,109,1,239,2,3,2,stim/32.jpeg,HouseObjects,2,stim/objects/HouseObjects/teapot.png,0.7,1,-0.2,0.15,right,78,2020-12-08_10h03.56.235,premup-three_ses-02_part-02_label-phase2,3.2.4,Win32,60,,,,,,,,,,,,,,,,,,,,,,,,,,,,,
right,0.601000071,0,94,1,0,1,0,1,0,1,0,240,48,1,239,1,2,1,stim/21.jpeg,Instruments,1,stim/objects/Instruments/saxophone.png,0.5,3,-0.2,-0.15,left,78,2020-12-08_10h03.56.235,premup-three_ses-02_part-02_label-phase2,3.2.4,Win32,60,,,,,,,,,,,,,,,,,,,,,,,,,,,,,
left,0.588000059,0,95,1,0,1,0,1,0,1,0,240,155,1,239,2,4,4,stim/44.jpeg,HouseObjects,2,stim/objects/HouseObjects/rug2.png,0.3,2,0.2,0.15,right,78,2020-12-08_10h03.56.235,premup-three_ses-02_part-02_label-phase2,3.2.4,Win32,60,,,,,,,,,,,,,,,,,,,,,,,,,,,,,
right,0.638999939,1,96,1,0,1,0,1,0,1,0,240,169,1,239,3,5,2,stim/52.jpeg,HouseObjects,2,stim/objects/HouseObjects/saw2.png,0.9,4,0.2,-0.15,right,78,2020-12-08_10h03.56.235,premup-three_ses-02_part-02_label-phase2,3.2.4,Win32,60,,,,,,,,,,,,,,,,,,,,,,,,,,,,,
left,0.643999815,1,97,1,0,1,0,1,0,1,0,240,0,1,239,1,1,1,stim/11.jpeg,Instruments,1,stim/objects/Instruments/panflute.png,0.5,4,0.2,-0.15,left,78,2020-12-08_10h03.56.235,premup-three_ses-02_part-02_label-phase2,3.2.4,Win32,60,,,,,,,,,,,,,,,,,,,,,,,,,,,,,
left,0.722000122,0,98,1,0,1,0,1,0,1,0,240,153,1,239,2,4,2,stim/42.jpeg,HouseObjects,2,stim/objects/HouseObjects/remote2.png,0.3,2,0.2,0.15,right,78,2020-12-08_10h03.56.235,premup-three_ses-02_part-02_label-phase2,3.2.4,Win32,60,,,,,,,,,,,,,,,,,,,,,,,,,,,,,
,,0,99,1,0,1,0,1,0,1,0,240,167,1,239,3,5,4,stim/54.jpeg,HouseObjects,2,stim/objects/HouseObjects/sponge2.png,0.9,1,-0.2,0.15,right,78,2020-12-08_10h03.56.235,premup-three_ses-02_part-02_label-phase2,3.2.4,Win32,60,,,,,,,,,,,,,,,,,,,,,,,,,,,,,
left,0.588000059,1,100,1,0,1,0,1,0,1,0,240,4,1,239,1,1,1,stim/11.jpeg,Instruments,1,stim/objects/Instruments/panflute.png,0.5,1,-0.2,0.15,left,78,2020-12-08_10h03.56.235,premup-three_ses-02_part-02_label-phase2,3.2.4,Win32,60,,,,,,,,,,,,,,,,,,,,,,,,,,,,,
left,0.605999947,1,101,1,0,1,0,1,0,1,0,240,144,1,239,2,4,1,stim/41.jpeg,Instruments,1,stim/objects/Instruments/panflute2.png,0.7,1,-0.2,0.15,left,78,2020-12-08_10h03.56.235,premup-three_ses-02_part-02_label-phase2,3.2.4,Win32,60,,,,,,,,,,,,,,,,,,,,,,,,,,,,,
right,0.751999855,0,102,1,0,1,0,1,0,1,0,240,52,1,239,1,2,1,stim/21.jpeg,Instruments,1,stim/objects/Instruments/saxophone.png,0.5,4,0.2,-0.15,left,78,2020-12-08_10h03.56.235,premup-three_ses-02_part-02_label-phase2,3.2.4,Win32,60,,,,,,,,,,,,,,,,,,,,,,,,,,,,,
right,0.701999903,0,103,1,0,1,0,1,0,1,0,240,43,1,239,1,2,4,stim/24.jpeg,Instruments,1,stim/objects/Instruments/timbal.png,0.5,3,-0.2,-0.15,left,78,2020-12-08_10h03.56.235,premup-three_ses-02_part-02_label-phase2,3.2.4,Win32,60,,,,,,,,,,,,,,,,,,,,,,,,,,,,,
left,0.722000122,0,104,1,0,1,0,1,0,1,0,240,100,1,239,2,3,1,stim/31.jpeg,HouseObjects,2,stim/objects/HouseObjects/spraybottle.png,0.7,4,0.2,-0.15,right,78,2020-12-08_10h03.56.235,premup-three_ses-02_part-02_label-phase2,3.2.4,Win32,60,,,,,,,,,,,,,,,,,,,,,,,,,,,,,
right,0.690000057,1,105,1,0,1,0,1,0,1,0,240,79,1,239,1,2,4,stim/24.jpeg,HouseObjects,2,stim/objects/HouseObjects/sponge.png,0.5,2,0.2,0.15,right,78,2020-12-08_10h03.56.235,premup-three_ses-02_part-02_label-phase2,3.2.4,Win32,60,,,,,,,,,,,,,,,,,,,,,,,,,,,,,
left,0.686000109,0,106,1,0,1,0,1,0,1,0,240,104,1,239,2,3,1,stim/31.jpeg,HouseObjects,2,stim/objects/HouseObjects/spraybottle.png,0.7,1,-0.2,0.15,right,78,2020-12-08_10h03.56.235,premup-three_ses-02_part-02_label-phase2,3.2.4,Win32,60,,,,,,,,,,,,,,,,,,,,,,,,,,,,,
left,0.664000034,1,107,1,0,1,0,1,0,1,0,240,5,1,239,1,1,2,stim/12.jpeg,Instruments,1,stim/objects/Instruments/pipepiano.png,0.5,2,0.2,0.15,left,78,2020-12-08_10h03.56.235,premup-three_ses-02_part-02_label-phase2,3.2.4,Win32,60,,,,,,,,,,,,,,,,,,,,,,,,,,,,,
left,0.772000074,0,108,1,0,1,0,1,0,1,0,240,27,1,239,1,1,4,stim/14.jpeg,HouseObjects,2,stim/objects/HouseObjects/rug.png,0.5,4,0.2,-0.15,right,78,2020-12-08_10h03.56.235,premup-three_ses-02_part-02_label-phase2,3.2.4,Win32,60,,,,,,,,,,,,,,,,,,,,,,,,,,,,,
right,0.562999964,1,109,1,0,1,0,1,0,1,0,240,174,1,239,3,5,3,stim/53.jpeg,HouseObjects,2,stim/objects/HouseObjects/scale2.png,0.9,2,0.2,0.15,right,78,2020-12-08_10h03.56.235,premup-three_ses-02_part-02_label-phase2,3.2.4,Win32,60,,,,,,,,,,,,,,,,,,,,,,,,,,,,,
right,0.740999937,0,110,1,0,1,0,1,0,1,0,240,46,1,239,1,2,3,stim/23.jpeg,Instruments,1,stim/objects/Instruments/tambourine.png,0.5,4,0.2,-0.15,left,78,2020-12-08_10h03.56.235,premup-three_ses-02_part-02_label-phase2,3.2.4,Win32,60,,,,,,,,,,,,,,,,,,,,,,,,,,,,,
left,0.657000065,1,111,1,0,1,0,1,0,1,0,240,126,1,239,2,4,3,stim/43.jpeg,Instruments,1,stim/objects/Instruments/record2.png,0.7,3,-0.2,-0.15,left,78,2020-12-08_10h03.56.235,premup-three_ses-02_part-02_label-phase2,3.2.4,Win32,60,,,,,,,,,,,,,,,,,,,,,,,,,,,,,
right,0.791000128,0,112,1,0,1,0,1,0,1,0,240,83,1,239,2,3,4,stim/34.jpeg,Instruments,1,stim/objects/Instruments/tuba.png,0.3,3,-0.2,-0.15,left,78,2020-12-08_10h03.56.235,premup-three_ses-02_part-02_label-phase2,3.2.4,Win32,60,,,,,,,,,,,,,,,,,,,,,,,,,,,,,
left,0.845999956,1,113,1,0,1,0,1,0,1,0,240,86,1,239,2,3,3,stim/33.jpeg,Instruments,1,stim/objects/Instruments/trumpet.png,0.3,1,-0.2,0.15,left,78,2020-12-08_10h03.56.235,premup-three_ses-02_part-02_label-phase2,3.2.4,Win32,60,,,,,,,,,,,,,,,,,,,,,,,,,,,,,
right,0.604000092,1,114,1,0,1,0,1,0,1,0,240,175,1,239,3,5,4,stim/54.jpeg,HouseObjects,2,stim/objects/HouseObjects/sponge2.png,0.9,3,-0.2,-0.15,right,78,2020-12-08_10h03.56.235,premup-three_ses-02_part-02_label-phase2,3.2.4,Win32,60,,,,,,,,,,,,,,,,,,,,,,,,,,,,,
right,0.525000095,1,115,1,0,1,0,1,0,1,0,240,194,1,239,3,5,3,stim/53.jpeg,HouseObjects,2,stim/objects/HouseObjects/scale2.png,0.9,1,-0.2,0.15,right,78,2020-12-08_10h03.56.235,premup-three_ses-02_part-02_label-phase2,3.2.4,Win32,60,,,,,,,,,,,,,,,,,,,,,,,,,,,,,
left,0.731999874,0,116,1,0,1,0,1,0,1,0,240,25,1,239,1,1,2,stim/12.jpeg,HouseObjects,2,stim/objects/HouseObjects/remote.png,0.5,2,0.2,0.15,right,78,2020-12-08_10h03.56.235,premup-three_ses-02_part-02_label-phase2,3.2.4,Win32,60,,,,,,,,,,,,,,,,,,,,,,,,,,,,,
left,0.586000204,1,117,1,0,1,0,1,0,1,0,240,229,1,239,3,6,2,stim/62.jpeg,Instruments,1,stim/objects/Instruments/trombone2.png,0.9,4,0.2,-0.15,left,78,2020-12-08_10h03.56.235,premup-three_ses-02_part-02_label-phase2,3.2.4,Win32,60,,,,,,,,,,,,,,,,,,,,,,,,,,,,,
right,0.553999901,1,118,1,0,1,0,1,0,1,0,240,183,1,239,3,5,4,stim/54.jpeg,HouseObjects,2,stim/objects/HouseObjects/sponge2.png,0.9,1,-0.2,0.15,right,78,2020-12-08_10h03.56.235,premup-three_ses-02_part-02_label-phase2,3.2.4,Win32,60,,,,,,,,,,,,,,,,,,,,,,,,,,,,,
left,0.769000053,0,119,1,0,1,0,1,0,1,0,240,150,1,239,2,4,3,stim/43.jpeg,HouseObjects,2,stim/objects/HouseObjects/rubbergloves2.png,0.3,3,-0.2,-0.15,right,78,2020-12-08_10h03.56.235,premup-three_ses-02_part-02_label-phase2,3.2.4,Win32,60,,,,,,,,,,,,,,,,,,,,,,,,,,,,,
left,0.68599987,1,120,1,0,1,0,1,0,1,0,240,2,1,239,1,1,3,stim/13.jpeg,Instruments,1,stim/objects/Instruments/record.png,0.5,3,-0.2,-0.15,left,78,2020-12-08_10h03.56.235,premup-three_ses-02_part-02_label-phase2,3.2.4,Win32,60,,,,,,,,,,,,,,,,,,,,,,,,,,,,,
right,0.855999947,1,121,1,0,1,0,1,0,1,0,240,97,1,239,2,3,2,stim/32.jpeg,HouseObjects,2,stim/objects/HouseObjects/teapot.png,0.7,4,0.2,-0.15,right,78,2020-12-08_10h03.56.235,premup-three_ses-02_part-02_label-phase2,3.2.4,Win32,60,,,,,,,,,,,,,,,,,,,,,,,,,,,,,
right,0.771999836,1,122,1,0,1,0,1,0,1,0,240,106,1,239,2,3,3,stim/33.jpeg,HouseObjects,2,stim/objects/HouseObjects/thermometer.png,0.7,1,-0.2,0.15,right,78,2020-12-08_10h03.56.235,premup-three_ses-02_part-02_label-phase2,3.2.4,Win32,60,,,,,,,,,,,,,,,,,,,,,,,,,,,,,
left,0.622999907,1,123,1,0,1,0,1,0,1,0,240,213,1,239,3,6,2,stim/62.jpeg,Instruments,1,stim/objects/Instruments/trombone2.png,0.9,1,-0.2,0.15,left,78,2020-12-08_10h03.56.235,premup-three_ses-02_part-02_label-phase2,3.2.4,Win32,60,,,,,,,,,,,,,,,,,,,,,,,,,,,,,
left,0.756999969,0,124,1,0,1,0,1,0,1,0,240,33,1,239,1,1,2,stim/12.jpeg,HouseObjects,2,stim/objects/HouseObjects/remote.png,0.5,2,0.2,0.15,right,78,2020-12-08_10h03.56.235,premup-three_ses-02_part-02_label-phase2,3.2.4,Win32,60,,,,,,,,,,,,,,,,,,,,,,,,,,,,,
right,0.855999947,0,125,1,0,1,0,1,0,1,0,240,59,1,239,1,2,4,stim/24.jpeg,Instruments,1,stim/objects/Instruments/timbal.png,0.5,1,-0.2,0.15,left,78,2020-12-08_10h03.56.235,premup-three_ses-02_part-02_label-phase2,3.2.4,Win32,60,,,,,,,,,,,,,,,,,,,,,,,,,,,,,
right,0.873000145,1,126,1,0,1,0,1,0,1,0,240,96,1,239,2,3,1,stim/31.jpeg,HouseObjects,2,stim/objects/HouseObjects/spraybottle.png,0.7,4,0.2,-0.15,right,78,2020-12-08_10h03.56.235,premup-three_ses-02_part-02_label-phase2,3.2.4,Win32,60,,,,,,,,,,,,,,,,,,,,,,,,,,,,,
right,0.703999996,1,127,1,0,1,0,1,0,1,0,240,110,1,239,2,3,3,stim/33.jpeg,HouseObjects,2,stim/objects/HouseObjects/thermometer.png,0.7,2,0.2,0.15,right,78,2020-12-08_10h03.56.235,premup-three_ses-02_part-02_label-phase2,3.2.4,Win32,60,,,,,,,,,,,,,,,,,,,,,,,,,,,,,
left,0.740999937,1,128,1,0,1,0,1,0,1,0,240,141,1,239,2,4,2,stim/42.jpeg,Instruments,1,stim/objects/Instruments/pipepiano2.png,0.7,3,-0.2,-0.15,left,78,2020-12-08_10h03.56.235,premup-three_ses-02_part-02_label-phase2,3.2.4,Win32,60,,,,,,,,,,,,,,,,,,,,,,,,,,,,,
,,0,129,1,0,1,0,1,0,1,0,240,51,1,239,1,2,4,stim/24.jpeg,Instruments,1,stim/objects/Instruments/timbal.png,0.5,4,0.2,-0.15,left,78,2020-12-08_10h03.56.235,premup-three_ses-02_part-02_label-phase2,3.2.4,Win32,60,,,,,,,,,,,,,,,,,,,,,,,,,,,,,
left,0.556999922,1,130,1,0,1,0,1,0,1,0,240,16,1,239,1,1,1,stim/11.jpeg,Instruments,1,stim/objects/Instruments/panflute.png,0.5,2,0.2,0.15,left,78,2020-12-08_10h03.56.235,premup-three_ses-02_part-02_label-phase2,3.2.4,Win32,60,,,,,,,,,,,,,,,,,,,,,,,,,,,,,
right,0.664999962,1,131,1,0,1,0,1,0,1,0,240,117,1,239,2,3,2,stim/32.jpeg,HouseObjects,2,stim/objects/HouseObjects/teapot.png,0.7,1,-0.2,0.15,right,78,2020-12-08_10h03.56.235,premup-three_ses-02_part-02_label-phase2,3.2.4,Win32,60,,,,,,,,,,,,,,,,,,,,,,,,,,,,,
left,0.605999947,1,132,1,0,1,0,1,0,1,0,240,128,1,239,2,4,1,stim/41.jpeg,Instruments,1,stim/objects/Instruments/panflute2.png,0.7,2,0.2,0.15,left,78,2020-12-08_10h03.56.235,premup-three_ses-02_part-02_label-phase2,3.2.4,Win32,60,,,,,,,,,,,,,,,,,,,,,,,,,,,,,
right,0.57400012,0,133,1,0,1,0,1,0,1,0,240,160,1,239,3,5,1,stim/51.jpeg,Instruments,1,stim/objects/Instruments/saxophone2.png,0.1,4,0.2,-0.15,left,78,2020-12-08_10h03.56.235,premup-three_ses-02_part-02_label-phase2,3.2.4,Win32,60,,,,,,,,,,,,,,,,,,,,,,,,,,,,,
right,0.635999918,0,134,1,0,1,0,1,0,1,0,240,91,1,239,2,3,4,stim/34.jpeg,Instruments,1,stim/objects/Instruments/tuba.png,0.3,3,-0.2,-0.15,left,78,2020-12-08_10h03.56.235,premup-three_ses-02_part-02_label-phase2,3.2.4,Win32,60,,,,,,,,,,,,,,,,,,,,,,,,,,,,,
left,0.640000105,0,135,1,0,1,0,1,0,1,0,240,37,1,239,1,1,2,stim/12.jpeg,HouseObjects,2,stim/objects/HouseObjects/remote.png,0.5,3,-0.2,-0.15,right,78,2020-12-08_10h03.56.235,premup-three_ses-02_part-02_label-phase2,3.2.4,Win32,60,,,,,,,,,,,,,,,,,,,,,,,,,,,,,
right,0.640999794,0,136,1,0,1,0,1,0,1,0,240,58,1,239,1,2,3,stim/23.jpeg,Instruments,1,stim/objects/Instruments/tambourine.png,0.5,1,-0.2,0.15,left,78,2020-12-08_10h03.56.235,premup-three_ses-02_part-02_label-phase2,3.2.4,Win32,60,,,,,,,,,,,,,,,,,,,,,,,,,,,,,
left,0.585000038,0,137,1,0,1,0,1,0,1,0,240,21,1,239,1,1,2,stim/12.jpeg,HouseObjects,2,stim/objects/HouseObjects/remote.png,0.5,2,0.2,0.15,right,78,2020-12-08_10h03.56.235,premup-three_ses-02_part-02_label-phase2,3.2.4,Win32,60,,,,,,,,,,,,,,,,,,,,,,,,,,,,,
right,0.627000093,1,138,1,0,1,0,1,0,1,0,240,116,1,239,2,3,1,stim/31.jpeg,HouseObjects,2,stim/objects/HouseObjects/spraybottle.png,0.7,3,-0.2,-0.15,right,78,2020-12-08_10h03.56.235,premup-three_ses-02_part-02_label-phase2,3.2.4,Win32,60,,,,,,,,,,,,,,,,,,,,,,,,,,,,,
left,0.512999773,1,139,1,0,1,0,1,0,1,0,240,214,1,239,3,6,3,stim/63.jpeg,Instruments,1,stim/objects/Instruments/trumpet2.png,0.9,2,0.2,0.15,left,78,2020-12-08_10h03.56.235,premup-three_ses-02_part-02_label-phase2,3.2.4,Win32,60,,,,,,,,,,,,,,,,,,,,,,,,,,,,,
left,0.595000029,1,140,1,0,1,0,1,0,1,0,240,8,1,239,1,1,1,stim/11.jpeg,Instruments,1,stim/objects/Instruments/panflute.png,0.5,2,0.2,0.15,left,78,2020-12-08_10h03.56.235,premup-three_ses-02_part-02_label-phase2,3.2.4,Win32,60,,,,,,,,,,,,,,,,,,,,,,,,,,,,,
left,0.739000082,0,141,1,0,1,0,1,0,1,0,240,154,1,239,2,4,3,stim/43.jpeg,HouseObjects,2,stim/objects/HouseObjects/rubbergloves2.png,0.3,4,0.2,-0.15,right,78,2020-12-08_10h03.56.235,premup-three_ses-02_part-02_label-phase2,3.2.4,Win32,60,,,,,,,,,,,,,,,,,,,,,,,,,,,,,
right,0.571000099,1,142,1,0,1,0,1,0,1,0,240,195,1,239,3,5,4,stim/54.jpeg,HouseObjects,2,stim/objects/HouseObjects/sponge2.png,0.9,2,0.2,0.15,right,78,2020-12-08_10h03.56.235,premup-three_ses-02_part-02_label-phase2,3.2.4,Win32,60,,,,,,,,,,,,,,,,,,,,,,,,,,,,,
right,0.603000164,1,143,1,0,1,0,1,0,1,0,240,191,1,239,3,5,4,stim/54.jpeg,HouseObjects,2,stim/objects/HouseObjects/sponge2.png,0.9,2,0.2,0.15,right,78,2020-12-08_10h03.56.235,premup-three_ses-02_part-02_label-phase2,3.2.4,Win32,60,,,,,,,,,,,,,,,,,,,,,,,,,,,,,
left,0.654000044,1,144,1,0,1,0,1,0,1,0,240,132,1,239,2,4,1,stim/41.jpeg,Instruments,1,stim/objects/Instruments/panflute2.png,0.7,1,-0.2,0.15,left,78,2020-12-08_10h03.56.235,premup-three_ses-02_part-02_label-phase2,3.2.4,Win32,60,,,,,,,,,,,,,,,,,,,,,,,,,,,,,
,,0,145,1,0,1,0,1,0,1,0,240,80,1,239,2,3,1,stim/31.jpeg,Instruments,1,stim/objects/Instruments/triangle.png,0.3,2,0.2,0.15,left,78,2020-12-08_10h03.56.235,premup-three_ses-02_part-02_label-phase2,3.2.4,Win32,60,,,,,,,,,,,,,,,,,,,,,,,,,,,,,
left,0.774999857,0,146,1,0,1,0,1,0,1,0,240,105,1,239,2,3,2,stim/32.jpeg,HouseObjects,2,stim/objects/HouseObjects/teapot.png,0.7,4,0.2,-0.15,right,78,2020-12-08_10h03.56.235,premup-three_ses-02_part-02_label-phase2,3.2.4,Win32,60,,,,,,,,,,,,,,,,,,,,,,,,,,,,,
right,0.54700017,1,147,1,0,1,0,1,0,1,0,240,172,1,239,3,5,1,stim/51.jpeg,HouseObjects,2,stim/objects/HouseObjects/safetypin2.png,0.9,3,-0.2,-0.15,right,78,2020-12-08_10h03.56.235,premup-three_ses-02_part-02_label-phase2,3.2.4,Win32,60,,,,,,,,,,,,,,,,,,,,,,,,,,,,,
left,0.523000002,1,148,1,0,1,0,1,0,1,0,240,200,1,239,3,6,1,stim/61.jpeg,Instruments,1,stim/objects/Instruments/triangle2.png,0.9,3,-0.2,-0.15,left,78,2020-12-08_10h03.56.235,premup-three_ses-02_part-02_label-phase2,3.2.4,Win32,60,,,,,,,,,,,,,,,,,,,,,,,,,,,,,
right,0.444000006,1,149,1,0,1,0,1,0,1,0,240,166,1,239,3,5,3,stim/53.jpeg,HouseObjects,2,stim/objects/HouseObjects/scale2.png,0.9,2,0.2,0.15,right,78,2020-12-08_10h03.56.235,premup-three_ses-02_part-02_label-phase2,3.2.4,Win32,60,,,,,,,,,,,,,,,,,,,,,,,,,,,,,
left,0.50999999,1,150,1,0,1,0,1,0,1,0,240,221,1,239,3,6,2,stim/62.jpeg,Instruments,1,stim/objects/Instruments/trombone2.png,0.9,1,-0.2,0.15,left,78,2020-12-08_10h03.56.235,premup-three_ses-02_part-02_label-phase2,3.2.4,Win32,60,,,,,,,,,,,,,,,,,,,,,,,,,,,,,
left,0.53000021,1,151,1,0,1,0,1,0,1,0,240,208,1,239,3,6,1,stim/61.jpeg,Instruments,1,stim/objects/Instruments/triangle2.png,0.9,2,0.2,0.15,left,78,2020-12-08_10h03.56.235,premup-three_ses-02_part-02_label-phase2,3.2.4,Win32,60,,,,,,,,,,,,,,,,,,,,,,,,,,,,,
left,0.517999887,1,152,1,0,1,0,1,0,1,0,240,207,1,239,3,6,4,stim/64.jpeg,Instruments,1,stim/objects/Instruments/tuba2.png,0.9,4,0.2,-0.15,left,78,2020-12-08_10h03.56.235,premup-three_ses-02_part-02_label-phase2,3.2.4,Win32,60,,,,,,,,,,,,,,,,,,,,,,,,,,,,,
left,0.639999866,1,153,1,0,1,0,1,0,1,0,240,19,1,239,1,1,4,stim/14.jpeg,Instruments,1,stim/objects/Instruments/record_player.png,0.5,1,-0.2,0.15,left,78,2020-12-08_10h03.56.235,premup-three_ses-02_part-02_label-phase2,3.2.4,Win32,60,,,,,,,,,,,,,,,,,,,,,,,,,,,,,
right,0.511999846,1,154,1,0,1,0,1,0,1,0,240,168,1,239,3,5,1,stim/51.jpeg,HouseObjects,2,stim/objects/HouseObjects/safetypin2.png,0.9,2,0.2,0.15,right,78,2020-12-08_10h03.56.235,premup-three_ses-02_part-02_label-phase2,3.2.4,Win32,60,,,,,,,,,,,,,,,,,,,,,,,,,,,,,
left,0.507999897,1,155,1,0,1,0,1,0,1,0,240,202,1,239,3,6,3,stim/63.jpeg,Instruments,1,stim/objects/Instruments/trumpet2.png,0.9,4,0.2,-0.15,left,78,2020-12-08_10h03.56.235,premup-three_ses-02_part-02_label-phase2,3.2.4,Win32,60,,,,,,,,,,,,,,,,,,,,,,,,,,,,,
right,0.755000114,0,156,1,0,1,0,1,0,1,0,240,49,1,239,1,2,2,stim/22.jpeg,Instruments,1,stim/objects/Instruments/speaker.png,0.5,4,0.2,-0.15,left,78,2020-12-08_10h03.56.235,premup-three_ses-02_part-02_label-phase2,3.2.4,Win32,60,,,,,,,,,,,,,,,,,,,,,,,,,,,,,
right,0.58100009,1,157,1,0,1,0,1,0,1,0,240,94,1,239,2,3,3,stim/33.jpeg,HouseObjects,2,stim/objects/HouseObjects/thermometer.png,0.7,2,0.2,0.15,right,78,2020-12-08_10h03.56.235,premup-three_ses-02_part-02_label-phase2,3.2.4,Win32,60,,,,,,,,,,,,,,,,,,,,,,,,,,,,,
,,0,158,1,0,1,0,1,0,1,0,240,90,1,239,2,3,3,stim/33.jpeg,Instruments,1,stim/objects/Instruments/trumpet.png,0.3,4,0.2,-0.15,left,78,2020-12-08_10h03.56.235,premup-three_ses-02_part-02_label-phase2,3.2.4,Win32,60,,,,,,,,,,,,,,,,,,,,,,,,,,,,,
right,0.524000168,1,159,1,0,1,0,1,0,1,0,240,186,1,239,3,5,3,stim/53.jpeg,HouseObjects,2,stim/objects/HouseObjects/scale2.png,0.9,2,0.2,0.15,right,78,2020-12-08_10h03.56.235,premup-three_ses-02_part-02_label-phase2,3.2.4,Win32,60,,,,,,,,,,,,,,,,,,,,,,,,,,,,,
right,0.687999964,1,160,1,0,1,0,1,0,1,0,240,118,1,239,2,3,3,stim/33.jpeg,HouseObjects,2,stim/objects/HouseObjects/thermometer.png,0.7,4,0.2,-0.15,right,78,2020-12-08_10h03.56.235,premup-three_ses-02_part-02_label-phase2,3.2.4,Win32,60,,,,,,,,,,,,,,,,,,,,,,,,,,,,,
left,0.64199996,1,161,1,0,1,0,1,0,1,0,240,40,1,239,1,2,1,stim/21.jpeg,Instruments,1,stim/objects/Instruments/saxophone.png,0.5,2,0.2,0.15,left,78,2020-12-08_10h03.56.235,premup-three_ses-02_part-02_label-phase2,3.2.4,Win32,60,,,,,,,,,,,,,,,,,,,,,,,,,,,,,
left,0.55700016,0,162,1,0,1,0,1,0,1,0,240,66,1,239,1,2,3,stim/23.jpeg,HouseObjects,2,stim/objects/HouseObjects/scale.png,0.5,4,0.2,-0.15,right,78,2020-12-08_10h03.56.235,premup-three_ses-02_part-02_label-phase2,3.2.4,Win32,60,,,,,,,,,,,,,,,,,,,,,,,,,,,,,
right,0.486999989,1,163,1,0,1,0,1,0,1,0,240,164,1,239,3,5,1,stim/51.jpeg,HouseObjects,2,stim/objects/HouseObjects/safetypin2.png,0.9,2,0.2,0.15,right,78,2020-12-08_10h03.56.235,premup-three_ses-02_part-02_label-phase2,3.2.4,Win32,60,,,,,,,,,,,,,,,,,,,,,,,,,,,,,
right,0.625,0,164,1,0,1,0,1,0,1,0,240,1,1,239,1,1,2,stim/12.jpeg,Instruments,1,stim/objects/Instruments/pipepiano.png,0.5,4,0.2,-0.15,left,78,2020-12-08_10h03.56.235,premup-three_ses-02_part-02_label-phase2,3.2.4,Win32,60,,,,,,,,,,,,,,,,,,,,,,,,,,,,,
right,0.541999817,1,165,1,0,1,0,1,0,1,0,240,192,1,239,3,5,1,stim/51.jpeg,HouseObjects,2,stim/objects/HouseObjects/safetypin2.png,0.9,1,-0.2,0.15,right,78,2020-12-08_10h03.56.235,premup-three_ses-02_part-02_label-phase2,3.2.4,Win32,60,,,,,,,,,,,,,,,,,,,,,,,,,,,,,
left,0.559000015,1,166,1,0,1,0,1,0,1,0,240,225,1,239,3,6,2,stim/62.jpeg,Instruments,1,stim/objects/Instruments/trombone2.png,0.9,4,0.2,-0.15,left,78,2020-12-08_10h03.56.235,premup-three_ses-02_part-02_label-phase2,3.2.4,Win32,60,,,,,,,,,,,,,,,,,,,,,,,,,,,,,
right,0.523999929,1,167,1,0,1,0,1,0,1,0,240,31,1,239,1,1,4,stim/14.jpeg,HouseObjects,2,stim/objects/HouseObjects/rug.png,0.5,1,-0.2,0.15,right,78,2020-12-08_10h03.56.235,premup-three_ses-02_part-02_label-phase2,3.2.4,Win32,60,,,,,,,,,,,,,,,,,,,,,,,,,,,,,
left,0.579999924,1,168,1,0,1,0,1,0,1,0,240,145,1,239,2,4,2,stim/42.jpeg,Instruments,1,stim/objects/Instruments/pipepiano2.png,0.7,4,0.2,-0.15,left,78,2020-12-08_10h03.56.235,premup-three_ses-02_part-02_label-phase2,3.2.4,Win32,60,,,,,,,,,,,,,,,,,,,,,,,,,,,,,
right,0.517999887,0,169,1,0,1,0,1,0,1,0,240,41,1,239,1,2,2,stim/22.jpeg,Instruments,1,stim/objects/Instruments/speaker.png,0.5,4,0.2,-0.15,left,78,2020-12-08_10h03.56.235,premup-three_ses-02_part-02_label-phase2,3.2.4,Win32,60,,,,,,,,,,,,,,,,,,,,,,,,,,,,,
left,0.592999935,1,170,1,0,1,0,1,0,1,0,240,17,1,239,1,1,2,stim/12.jpeg,Instruments,1,stim/objects/Instruments/pipepiano.png,0.5,4,0.2,-0.15,left,78,2020-12-08_10h03.56.235,premup-three_ses-02_part-02_label-phase2,3.2.4,Win32,60,,,,,,,,,,,,,,,,,,,,,,,,,,,,,
left,0.60800004,1,171,1,0,1,0,1,0,1,0,240,131,1,239,2,4,4,stim/44.jpeg,Instruments,1,stim/objects/Instruments/record_player2.png,0.7,1,-0.2,0.15,left,78,2020-12-08_10h03.56.235,premup-three_ses-02_part-02_label-phase2,3.2.4,Win32,60,,,,,,,,,,,,,,,,,,,,,,,,,,,,,
right,0.624000072,0,172,1,0,1,0,1,0,1,0,240,14,1,239,1,1,3,stim/13.jpeg,Instruments,1,stim/objects/Instruments/record.png,0.5,1,-0.2,0.15,left,78,2020-12-08_10h03.56.235,premup-three_ses-02_part-02_label-phase2,3.2.4,Win32,60,,,,,,,,,,,,,,,,,,,,,,,,,,,,,
left,0.661000013,1,173,1,0,1,0,1,0,1,0,240,147,1,239,2,4,4,stim/44.jpeg,Instruments,1,stim/objects/Instruments/record_player2.png,0.7,2,0.2,0.15,left,78,2020-12-08_10h03.56.235,premup-three_ses-02_part-02_label-phase2,3.2.4,Win32,60,,,,,,,,,,,,,,,,,,,,,,,,,,,,,
left,0.84100008,0,174,1,0,1,0,1,0,1,0,240,67,1,239,1,2,4,stim/24.jpeg,HouseObjects,2,stim/objects/HouseObjects/sponge.png,0.5,2,0.2,0.15,right,78,2020-12-08_10h03.56.235,premup-three_ses-02_part-02_label-phase2,3.2.4,Win32,60,,,,,,,,,,,,,,,,,,,,,,,,,,,,,
right,0.855000019,1,175,1,0,1,0,1,0,1,0,240,75,1,239,1,2,4,stim/24.jpeg,HouseObjects,2,stim/objects/HouseObjects/sponge.png,0.5,1,-0.2,0.15,right,78,2020-12-08_10h03.56.235,premup-three_ses-02_part-02_label-phase2,3.2.4,Win32,60,,,,,,,,,,,,,,,,,,,,,,,,,,,,,
right,0.647000074,1,176,1,0,1,0,1,0,1,0,240,179,1,239,3,5,4,stim/54.jpeg,HouseObjects,2,stim/objects/HouseObjects/sponge2.png,0.9,3,-0.2,-0.15,right,78,2020-12-08_10h03.56.235,premup-three_ses-02_part-02_label-phase2,3.2.4,Win32,60,,,,,,,,,,,,,,,,,,,,,,,,,,,,,
left,0.656999826,0,177,1,0,1,0,1,0,1,0,240,151,1,239,2,4,4,stim/44.jpeg,HouseObjects,2,stim/objects/HouseObjects/rug2.png,0.3,4,0.2,-0.15,right,78,2020-12-08_10h03.56.235,premup-three_ses-02_part-02_label-phase2,3.2.4,Win32,60,,,,,,,,,,,,,,,,,,,,,,,,,,,,,
left,0.523999929,1,178,1,0,1,0,1,0,1,0,240,233,1,239,3,6,2,stim/62.jpeg,Instruments,1,stim/objects/Instruments/trombone2.png,0.9,1,-0.2,0.15,left,78,2020-12-08_10h03.56.235,premup-three_ses-02_part-02_label-phase2,3.2.4,Win32,60,,,,,,,,,,,,,,,,,,,,,,,,,,,,,
right,0.67200017,1,179,1,0,1,0,1,0,1,0,240,107,1,239,2,3,4,stim/34.jpeg,HouseObjects,2,stim/objects/HouseObjects/thread.png,0.7,2,0.2,0.15,right,78,2020-12-08_10h03.56.235,premup-three_ses-02_part-02_label-phase2,3.2.4,Win32,60,,,,,,,,,,,,,,,,,,,,,,,,,,,,,
left,0.547999859,1,180,1,0,1,0,1,0,1,0,240,205,1,239,3,6,2,stim/62.jpeg,Instruments,1,stim/objects/Instruments/trombone2.png,0.9,1,-0.2,0.15,left,78,2020-12-08_10h03.56.235,premup-three_ses-02_part-02_label-phase2,3.2.4,Win32,60,,,,,,,,,,,,,,,,,,,,,,,,,,,,,
right,0.687999964,0,181,1,0,1,0,1,0,1,0,240,18,1,239,1,1,3,stim/13.jpeg,Instruments,1,stim/objects/Instruments/record.png,0.5,1,-0.2,0.15,left,78,2020-12-08_10h03.56.235,premup-three_ses-02_part-02_label-phase2,3.2.4,Win32,60,,,,,,,,,,,,,,,,,,,,,,,,,,,,,
left,0.560000181,1,182,1,0,1,0,1,0,1,0,240,143,1,239,2,4,4,stim/44.jpeg,Instruments,1,stim/objects/Instruments/record_player2.png,0.7,1,-0.2,0.15,left,78,2020-12-08_10h03.56.235,premup-three_ses-02_part-02_label-phase2,3.2.4,Win32,60,,,,,,,,,,,,,,,,,,,,,,,,,,,,,
left,0.822999954,1,183,1,0,1,0,1,0,1,0,240,42,1,239,1,2,3,stim/23.jpeg,Instruments,1,stim/objects/Instruments/tambourine.png,0.5,3,-0.2,-0.15,left,78,2020-12-08_10h03.56.235,premup-three_ses-02_part-02_label-phase2,3.2.4,Win32,60,,,,,,,,,,,,,,,,,,,,,,,,,,,,,
left,0.707000017,1,184,1,0,1,0,1,0,1,0,240,129,1,239,2,4,2,stim/42.jpeg,Instruments,1,stim/objects/Instruments/pipepiano2.png,0.7,1,-0.2,0.15,left,78,2020-12-08_10h03.56.235,premup-three_ses-02_part-02_label-phase2,3.2.4,Win32,60,,,,,,,,,,,,,,,,,,,,,,,,,,,,,
,,0,185,1,0,1,0,1,0,1,0,240,120,1,239,2,4,1,stim/41.jpeg,Instruments,1,stim/objects/Instruments/panflute2.png,0.7,2,0.2,0.15,left,78,2020-12-08_10h03.56.235,premup-three_ses-02_part-02_label-phase2,3.2.4,Win32,60,,,,,,,,,,,,,,,,,,,,,,,,,,,,,
left,0.457999945,1,186,1,0,1,0,1,0,1,0,240,203,1,239,3,6,4,stim/64.jpeg,Instruments,1,stim/objects/Instruments/tuba2.png,0.9,3,-0.2,-0.15,left,78,2020-12-08_10h03.56.235,premup-three_ses-02_part-02_label-phase2,3.2.4,Win32,60,,,,,,,,,,,,,,,,,,,,,,,,,,,,,
right,0.519999981,1,187,1,0,1,0,1,0,1,0,240,187,1,239,3,5,4,stim/54.jpeg,HouseObjects,2,stim/objects/HouseObjects/sponge2.png,0.9,1,-0.2,0.15,right,78,2020-12-08_10h03.56.235,premup-three_ses-02_part-02_label-phase2,3.2.4,Win32,60,,,,,,,,,,,,,,,,,,,,,,,,,,,,,
left,0.805999994,0,188,1,0,1,0,1,0,1,0,240,24,1,239,1,1,1,stim/11.jpeg,HouseObjects,2,stim/objects/HouseObjects/recyclingbin.png,0.5,2,0.2,0.15,right,78,2020-12-08_10h03.56.235,premup-three_ses-02_part-02_label-phase2,3.2.4,Win32,60,,,,,,,,,,,,,,,,,,,,,,,,,,,,,
right,0.49000001,1,189,1,0,1,0,1,0,1,0,240,185,1,239,3,5,2,stim/52.jpeg,HouseObjects,2,stim/objects/HouseObjects/saw2.png,0.9,2,0.2,0.15,right,78,2020-12-08_10h03.56.235,premup-three_ses-02_part-02_label-phase2,3.2.4,Win32,60,,,,,,,,,,,,,,,,,,,,,,,,,,,,,
left,0.475000143,0,190,1,0,1,0,1,0,1,0,240,238,1,239,3,6,3,stim/63.jpeg,HouseObjects,2,stim/objects/HouseObjects/thermometer2.png,0.1,4,0.2,-0.15,right,78,2020-12-08_10h03.56.235,premup-three_ses-02_part-02_label-phase2,3.2.4,Win32,60,,,,,,,,,,,,,,,,,,,,,,,,,,,,,
left,0.453000069,1,191,1,0,1,0,1,0,1,0,240,232,1,239,3,6,1,stim/61.jpeg,Instruments,1,stim/objects/Instruments/triangle2.png,0.9,2,0.2,0.15,left,78,2020-12-08_10h03.56.235,premup-three_ses-02_part-02_label-phase2,3.2.4,Win32,60,,,,,,,,,,,,,,,,,,,,,,,,,,,,,
right,0.621999979,1,192,1,0,1,0,1,0,1,0,240,171,1,239,3,5,4,stim/54.jpeg,HouseObjects,2,stim/objects/HouseObjects/sponge2.png,0.9,4,0.2,-0.15,right,78,2020-12-08_10h03.56.235,premup-three_ses-02_part-02_label-phase2,3.2.4,Win32,60,,,,,,,,,,,,,,,,,,,,,,,,,,,,,
right,0.588000059,0,193,1,0,1,0,1,0,1,0,240,6,1,239,1,1,3,stim/13.jpeg,Instruments,1,stim/objects/Instruments/record.png,0.5,2,0.2,0.15,left,78,2020-12-08_10h03.56.235,premup-three_ses-02_part-02_label-phase2,3.2.4,Win32,60,,,,,,,,,,,,,,,,,,,,,,,,,,,,,
left,0.636000156,1,194,1,0,1,0,1,0,1,0,240,13,1,239,1,1,2,stim/12.jpeg,Instruments,1,stim/objects/Instruments/pipepiano.png,0.5,1,-0.2,0.15,left,78,2020-12-08_10h03.56.235,premup-three_ses-02_part-02_label-phase2,3.2.4,Win32,60,,,,,,,,,,,,,,,,,,,,,,,,,,,,,
left,0.605000019,1,195,1,0,1,0,1,0,1,0,240,228,1,239,3,6,1,stim/61.jpeg,Instruments,1,stim/objects/Instruments/triangle2.png,0.9,4,0.2,-0.15,left,78,2020-12-08_10h03.56.235,premup-three_ses-02_part-02_label-phase2,3.2.4,Win32,60,,,,,,,,,,,,,,,,,,,,,,,,,,,,,
right,0.571000099,1,196,1,0,1,0,1,0,1,0,240,177,1,239,3,5,2,stim/52.jpeg,HouseObjects,2,stim/objects/HouseObjects/saw2.png,0.9,1,-0.2,0.15,right,78,2020-12-08_10h03.56.235,premup-three_ses-02_part-02_label-phase2,3.2.4,Win32,60,,,,,,,,,,,,,,,,,,,,,,,,,,,,,
left,0.626999855,0,197,1,0,1,0,1,0,1,0,240,39,1,239,1,1,4,stim/14.jpeg,HouseObjects,2,stim/objects/HouseObjects/rug.png,0.5,1,-0.2,0.15,right,78,2020-12-08_10h03.56.235,premup-three_ses-02_part-02_label-phase2,3.2.4,Win32,60,,,,,,,,,,,,,,,,,,,,,,,,,,,,,
left,0.738999844,0,198,1,0,1,0,1,0,1,0,240,62,1,239,1,2,3,stim/23.jpeg,HouseObjects,2,stim/objects/HouseObjects/scale.png,0.5,3,-0.2,-0.15,right,78,2020-12-08_10h03.56.235,premup-three_ses-02_part-02_label-phase2,3.2.4,Win32,60,,,,,,,,,,,,,,,,,,,,,,,,,,,,,
left,0.789000034,0,199,1,0,1,0,1,0,1,0,240,98,1,239,2,3,3,stim/33.jpeg,HouseObjects,2,stim/objects/HouseObjects/thermometer.png,0.7,1,-0.2,0.15,right,78,2020-12-08_10h03.56.235,premup-three_ses-02_part-02_label-phase2,3.2.4,Win32,60,,,,,,,,,,,,,,,,,,,,,,,,,,,,,
left,0.608999968,0,200,1,0,1,0,1,0,1,0,240,38,1,239,1,1,3,stim/13.jpeg,HouseObjects,2,stim/objects/HouseObjects/rubbergloves.png,0.5,2,0.2,0.15,right,78,2020-12-08_10h03.56.235,premup-three_ses-02_part-02_label-phase2,3.2.4,Win32,60,,,,,,,,,,,,,,,,,,,,,,,,,,,,,
left,0.525000095,1,201,1,0,1,0,1,0,1,0,240,217,1,239,3,6,2,stim/62.jpeg,Instruments,1,stim/objects/Instruments/trombone2.png,0.9,1,-0.2,0.15,left,78,2020-12-08_10h03.56.235,premup-three_ses-02_part-02_label-phase2,3.2.4,Win32,60,,,,,,,,,,,,,,,,,,,,,,,,,,,,,
left,0.571000099,1,202,1,0,1,0,1,0,1,0,240,210,1,239,3,6,3,stim/63.jpeg,Instruments,1,stim/objects/Instruments/trumpet2.png,0.9,3,-0.2,-0.15,left,78,2020-12-08_10h03.56.235,premup-three_ses-02_part-02_label-phase2,3.2.4,Win32,60,,,,,,,,,,,,,,,,,,,,,,,,,,,,,
right,0.687000036,1,203,1,0,1,0,1,0,1,0,240,157,1,239,2,4,2,stim/42.jpeg,HouseObjects,2,stim/objects/HouseObjects/remote2.png,0.3,2,0.2,0.15,right,78,2020-12-08_10h03.56.235,premup-three_ses-02_part-02_label-phase2,3.2.4,Win32,60,,,,,,,,,,,,,,,,,,,,,,,,,,,,,
right,0.589999914,1,204,1,0,1,0,1,0,1,0,240,73,1,239,1,2,2,stim/22.jpeg,HouseObjects,2,stim/objects/HouseObjects/saw.png,0.5,1,-0.2,0.15,right,78,2020-12-08_10h03.56.235,premup-three_ses-02_part-02_label-phase2,3.2.4,Win32,60,,,,,,,,,,,,,,,,,,,,,,,,,,,,,
left,0.496000051,1,205,1,0,1,0,1,0,1,0,240,216,1,239,3,6,1,stim/61.jpeg,Instruments,1,stim/objects/Instruments/triangle2.png,0.9,2,0.2,0.15,left,78,2020-12-08_10h03.56.235,premup-three_ses-02_part-02_label-phase2,3.2.4,Win32,60,,,,,,,,,,,,,,,,,,,,,,,,,,,,,
right,0.683000088,0,206,1,0,1,0,1,0,1,0,240,161,1,239,3,5,2,stim/52.jpeg,Instruments,1,stim/objects/Instruments/speaker2.png,0.1,3,-0.2,-0.15,left,78,2020-12-08_10h03.56.235,premup-three_ses-02_part-02_label-phase2,3.2.4,Win32,60,,,,,,,,,,,,,,,,,,,,,,,,,,,,,
right,0.754999876,1,207,1,0,1,0,1,0,1,0,240,101,1,239,2,3,2,stim/32.jpeg,HouseObjects,2,stim/objects/HouseObjects/teapot.png,0.7,3,-0.2,-0.15,right,78,2020-12-08_10h03.56.235,premup-three_ses-02_part-02_label-phase2,3.2.4,Win32,60,,,,,,,,,,,,,,,,,,,,,,,,,,,,,
left,0.524999857,1,208,1,0,1,0,1,0,1,0,240,215,1,239,3,6,4,stim/64.jpeg,Instruments,1,stim/objects/Instruments/tuba2.png,0.9,3,-0.2,-0.15,left,78,2020-12-08_10h03.56.235,premup-three_ses-02_part-02_label-phase2,3.2.4,Win32,60,,,,,,,,,,,,,,,,,,,,,,,,,,,,,
right,0.691999912,1,209,1,0,1,0,1,0,1,0,240,95,1,239,2,3,4,stim/34.jpeg,HouseObjects,2,stim/objects/HouseObjects/thread.png,0.7,4,0.2,-0.15,right,78,2020-12-08_10h03.56.235,premup-three_ses-02_part-02_label-phase2,3.2.4,Win32,60,,,,,,,,,,,,,,,,,,,,,,,,,,,,,
right,0.690999985,1,210,1,0,1,0,1,0,1,0,240,189,1,239,3,5,2,stim/52.jpeg,HouseObjects,2,stim/objects/HouseObjects/saw2.png,0.9,3,-0.2,-0.15,right,78,2020-12-08_10h03.56.235,premup-three_ses-02_part-02_label-phase2,3.2.4,Win32,60,,,,,,,,,,,,,,,,,,,,,,,,,,,,,
left,0.592000008,1,211,1,0,1,0,1,0,1,0,240,121,1,239,2,4,2,stim/42.jpeg,Instruments,1,stim/objects/Instruments/pipepiano2.png,0.7,3,-0.2,-0.15,left,78,2020-12-08_10h03.56.235,premup-three_ses-02_part-02_label-phase2,3.2.4,Win32,60,,,,,,,,,,,,,,,,,,,,,,,,,,,,,
left,0.637000084,1,212,1,0,1,0,1,0,1,0,240,82,1,239,2,3,3,stim/33.jpeg,Instruments,1,stim/objects/Instruments/trumpet.png,0.3,3,-0.2,-0.15,left,78,2020-12-08_10h03.56.235,premup-three_ses-02_part-02_label-phase2,3.2.4,Win32,60,,,,,,,,,,,,,,,,,,,,,,,,,,,,,
,,0,213,1,0,1,0,1,0,1,0,240,133,1,239,2,4,2,stim/42.jpeg,Instruments,1,stim/objects/Instruments/pipepiano2.png,0.7,1,-0.2,0.15,left,78,2020-12-08_10h03.56.235,premup-three_ses-02_part-02_label-phase2,3.2.4,Win32,60,,,,,,,,,,,,,,,,,,,,,,,,,,,,,
right,0.674000025,1,214,1,0,1,0,1,0,1,0,240,77,1,239,1,2,2,stim/22.jpeg,HouseObjects,2,stim/objects/HouseObjects/saw.png,0.5,3,-0.2,-0.15,right,78,2020-12-08_10h03.56.235,premup-three_ses-02_part-02_label-phase2,3.2.4,Win32,60,,,,,,,,,,,,,,,,,,,,,,,,,,,,,
left,0.508000135,1,215,1,0,1,0,1,0,1,0,240,234,1,239,3,6,3,stim/63.jpeg,Instruments,1,stim/objects/Instruments/trumpet2.png,0.9,4,0.2,-0.15,left,78,2020-12-08_10h03.56.235,premup-three_ses-02_part-02_label-phase2,3.2.4,Win32,60,,,,,,,,,,,,,,,,,,,,,,,,,,,,,
left,0.654999971,1,216,1,0,1,0,1,0,1,0,240,230,1,239,3,6,3,stim/63.jpeg,Instruments,1,stim/objects/Instruments/trumpet2.png,0.9,3,-0.2,-0.15,left,78,2020-12-08_10h03.56.235,premup-three_ses-02_part-02_label-phase2,3.2.4,Win32,60,,,,,,,,,,,,,,,,,,,,,,,,,,,,,
right,0.48300004,0,217,1,0,1,0,1,0,1,0,240,3,1,239,1,1,4,stim/14.jpeg,Instruments,1,stim/objects/Instruments/record_player.png,0.5,4,0.2,-0.15,left,78,2020-12-08_10h03.56.235,premup-three_ses-02_part-02_label-phase2,3.2.4,Win32,60,,,,,,,,,,,,,,,,,,,,,,,,,,,,,
right,0.621999979,0,218,1,0,1,0,1,0,1,0,240,44,1,239,1,2,1,stim/21.jpeg,Instruments,1,stim/objects/Instruments/saxophone.png,0.5,3,-0.2,-0.15,left,78,2020-12-08_10h03.56.235,premup-three_ses-02_part-02_label-phase2,3.2.4,Win32,60,,,,,,,,,,,,,,,,,,,,,,,,,,,,,
left,0.710000038,1,219,1,0,1,0,1,0,1,0,240,135,1,239,2,4,4,stim/44.jpeg,Instruments,1,stim/objects/Instruments/record_player2.png,0.7,4,0.2,-0.15,left,78,2020-12-08_10h03.56.235,premup-three_ses-02_part-02_label-phase2,3.2.4,Win32,60,,,,,,,,,,,,,,,,,,,,,,,,,,,,,
left,0.605000019,1,220,1,0,1,0,1,0,1,0,240,54,1,239,1,2,3,stim/23.jpeg,Instruments,1,stim/objects/Instruments/tambourine.png,0.5,4,0.2,-0.15,left,78,2020-12-08_10h03.56.235,premup-three_ses-02_part-02_label-phase2,3.2.4,Win32,60,,,,,,,,,,,,,,,,,,,,,,,,,,,,,
right,0.662999868,0,221,1,0,1,0,1,0,1,0,240,47,1,239,1,2,4,stim/24.jpeg,Instruments,1,stim/objects/Instruments/timbal.png,0.5,3,-0.2,-0.15,left,78,2020-12-08_10h03.56.235,premup-three_ses-02_part-02_label-phase2,3.2.4,Win32,60,,,,,,,,,,,,,,,,,,,,,,,,,,,,,
left,0.51699996,1,222,1,0,1,0,1,0,1,0,240,235,1,239,3,6,4,stim/64.jpeg,Instruments,1,stim/objects/Instruments/tuba2.png,0.9,1,-0.2,0.15,left,78,2020-12-08_10h03.56.235,premup-three_ses-02_part-02_label-phase2,3.2.4,Win32,60,,,,,,,,,,,,,,,,,,,,,,,,,,,,,
right,0.554000139,1,223,1,0,1,0,1,0,1,0,240,197,1,239,3,5,2,stim/52.jpeg,HouseObjects,2,stim/objects/HouseObjects/saw2.png,0.9,2,0.2,0.15,right,78,2020-12-08_10h03.56.235,premup-three_ses-02_part-02_label-phase2,3.2.4,Win32,60,,,,,,,,,,,,,,,,,,,,,,,,,,,,,
left,0.610000134,0,224,1,0,1,0,1,0,1,0,240,72,1,239,1,2,1,stim/21.jpeg,HouseObjects,2,stim/objects/HouseObjects/safetypin.png,0.5,4,0.2,-0.15,right,78,2020-12-08_10h03.56.235,premup-three_ses-02_part-02_label-phase2,3.2.4,Win32,60,,,,,,,,,,,,,,,,,,,,,,,,,,,,,
left,0.455999851,1,225,1,0,1,0,1,0,1,0,240,84,1,239,2,3,1,stim/31.jpeg,Instruments,1,stim/objects/Instruments/triangle.png,0.3,2,0.2,0.15,left,78,2020-12-08_10h03.56.235,premup-three_ses-02_part-02_label-phase2,3.2.4,Win32,60,,,,,,,,,,,,,,,,,,,,,,,,,,,,,
left,0.724999905,0,226,1,0,1,0,1,0,1,0,240,26,1,239,1,1,3,stim/13.jpeg,HouseObjects,2,stim/objects/HouseObjects/rubbergloves.png,0.5,4,0.2,-0.15,right,78,2020-12-08_10h03.56.235,premup-three_ses-02_part-02_label-phase2,3.2.4,Win32,60,,,,,,,,,,,,,,,,,,,,,,,,,,,,,
left,0.490999937,0,227,1,0,1,0,1,0,1,0,240,236,1,239,3,6,1,stim/61.jpeg,HouseObjects,2,stim/objects/HouseObjects/spraybottle2.png,0.1,2,0.2,0.15,right,78,2020-12-08_10h03.56.235,premup-three_ses-02_part-02_label-phase2,3.2.4,Win32,60,,,,,,,,,,,,,,,,,,,,,,,,,,,,,
left,0.769999981,1,228,1,0,1,0,1,0,1,0,240,224,1,239,3,6,1,stim/61.jpeg,Instruments,1,stim/objects/Instruments/triangle2.png,0.9,4,0.2,-0.15,left,78,2020-12-08_10h03.56.235,premup-three_ses-02_part-02_label-phase2,3.2.4,Win32,60,,,,,,,,,,,,,,,,,,,,,,,,,,,,,
right,0.629999876,1,229,1,0,1,0,1,0,1,0,240,199,1,239,3,5,4,stim/54.jpeg,HouseObjects,2,stim/objects/HouseObjects/sponge2.png,0.9,4,0.2,-0.15,right,78,2020-12-08_10h03.56.235,premup-three_ses-02_part-02_label-phase2,3.2.4,Win32,60,,,,,,,,,,,,,,,,,,,,,,,,,,,,,
left,0.75999999,0,230,1,0,1,0,1,0,1,0,240,68,1,239,1,2,1,stim/21.jpeg,HouseObjects,2,stim/objects/HouseObjects/safetypin.png,0.5,3,-0.2,-0.15,right,78,2020-12-08_10h03.56.235,premup-three_ses-02_part-02_label-phase2,3.2.4,Win32,60,,,,,,,,,,,,,,,,,,,,,,,,,,,,,
left,0.654000044,1,231,1,0,1,0,1,0,1,0,240,127,1,239,2,4,4,stim/44.jpeg,Instruments,1,stim/objects/Instruments/record_player2.png,0.7,1,-0.2,0.15,left,78,2020-12-08_10h03.56.235,premup-three_ses-02_part-02_label-phase2,3.2.4,Win32,60,,,,,,,,,,,,,,,,,,,,,,,,,,,,,
right,0.674999952,1,232,1,0,1,0,1,0,1,0,240,149,1,239,2,4,2,stim/42.jpeg,HouseObjects,2,stim/objects/HouseObjects/remote2.png,0.3,3,-0.2,-0.15,right,78,2020-12-08_10h03.56.235,premup-three_ses-02_part-02_label-phase2,3.2.4,Win32,60,,,,,,,,,,,,,,,,,,,,,,,,,,,,,
right,0.65899992,0,233,1,0,1,0,1,0,1,0,240,45,1,239,1,2,2,stim/22.jpeg,Instruments,1,stim/objects/Instruments/speaker.png,0.5,1,-0.2,0.15,left,78,2020-12-08_10h03.56.235,premup-three_ses-02_part-02_label-phase2,3.2.4,Win32,60,,,,,,,,,,,,,,,,,,,,,,,,,,,,,
left,0.680999994,0,234,1,0,1,0,1,0,1,0,240,158,1,239,2,4,3,stim/43.jpeg,HouseObjects,2,stim/objects/HouseObjects/rubbergloves2.png,0.3,4,0.2,-0.15,right,78,2020-12-08_10h03.56.235,premup-three_ses-02_part-02_label-phase2,3.2.4,Win32,60,,,,,,,,,,,,,,,,,,,,,,,,,,,,,
right,0.557999849,1,235,1,0,1,0,1,0,1,0,240,173,1,239,3,5,2,stim/52.jpeg,HouseObjects,2,stim/objects/HouseObjects/saw2.png,0.9,3,-0.2,-0.15,right,78,2020-12-08_10h03.56.235,premup-three_ses-02_part-02_label-phase2,3.2.4,Win32,60,,,,,,,,,,,,,,,,,,,,,,,,,,,,,
left,0.707000017,0,236,1,0,1,0,1,0,1,0,240,30,1,239,1,1,3,stim/13.jpeg,HouseObjects,2,stim/objects/HouseObjects/rubbergloves.png,0.5,3,-0.2,-0.15,right,78,2020-12-08_10h03.56.235,premup-three_ses-02_part-02_label-phase2,3.2.4,Win32,60,,,,,,,,,,,,,,,,,,,,,,,,,,,,,
right,0.777999878,1,237,1,0,1,0,1,0,1,0,240,93,1,239,2,3,2,stim/32.jpeg,HouseObjects,2,stim/objects/HouseObjects/teapot.png,0.7,1,-0.2,0.15,right,78,2020-12-08_10h03.56.235,premup-three_ses-02_part-02_label-phase2,3.2.4,Win32,60,,,,,,,,,,,,,,,,,,,,,,,,,,,,,
right,0.608999968,1,238,1,0,1,0,1,0,1,0,240,193,1,239,3,5,2,stim/52.jpeg,HouseObjects,2,stim/objects/HouseObjects/saw2.png,0.9,3,-0.2,-0.15,right,78,2020-12-08_10h03.56.235,premup-three_ses-02_part-02_label-phase2,3.2.4,Win32,60,,,,,,,,,,,,,,,,,,,,,,,,,,,,,
left,0.595999956,1,239,1,0,1,0,1,0,1,0,240,10,1,239,1,1,3,stim/13.jpeg,Instruments,1,stim/objects/Instruments/record.png,0.5,3,-0.2,-0.15,left,78,2020-12-08_10h03.56.235,premup-three_ses-02_part-02_label-phase2,3.2.4,Win32,60,,,,,,,,,,,,,,,,,,,,,,,,,,,,,
right,0.799999952,1,240,1,0,1,0,1,0,1,0,240,108,1,239,2,3,1,stim/31.jpeg,HouseObjects,2,stim/objects/HouseObjects/spraybottle.png,0.7,2,0.2,0.15,right,78,2020-12-08_10h03.56.235,premup-three_ses-02_part-02_label-phase2,3.2.4,Win32,60,,,,,,,,,,,,,,,,,,,,,,,,,,,,,
,,,,1,0,1,0,1,0,,,,,,,,5,,stim/51.jpeg,,,,,,,,,78,2020-12-08_10h03.56.235,premup-three_ses-02_part-02_label-phase2,3.2.4,Win32,60,97,8.756999969,,,1,0,6,4,1,5,Household items,5,15,Music items,85,95,,,,,,,,,,,,,
,,,,1,0,1,0,1,0,,,,,,,,4,,stim/41.jpeg,,,,,,,,,78,2020-12-08_10h03.56.235,premup-three_ses-02_part-02_label-phase2,3.2.4,Win32,60,90,4.07400012,,,1,0,6,3,1,5,Music items,65,75,Household items,25,35,,,,,,,,,,,,,
,,,,1,0,1,0,1,0,,,,,,,,2,,stim/21.jpeg,,,,,,,,,78,2020-12-08_10h03.56.235,premup-three_ses-02_part-02_label-phase2,3.2.4,Win32,60,60,7.071000099,,,1,0,6,1,1,5,Household items,45,55,Music items,45,55,,,,,,,,,,,,,
,,,,1,0,1,0,1,0,,,,,,,,3,,stim/31.jpeg,,,,,,,,,78,2020-12-08_10h03.56.235,premup-three_ses-02_part-02_label-phase2,3.2.4,Win32,60,20,5.84800005,,,1,0,6,2,1,5,Music items,65,75,Household items,25,35,,,,,,,,,,,,,
,,,,1,0,1,0,1,0,,,,,,,,6,,stim/61.jpeg,,,,,,,,,78,2020-12-08_10h03.56.235,premup-three_ses-02_part-02_label-phase2,3.2.4,Win32,60,97,3.59100008,,,1,0,6,5,1,5,Music items,5,15,Household items,85,95,,,,,,,,,,,,,
,,,,1,0,1,0,1,0,,,,,,,,1,,stim/11.jpeg,,,,,,,,,78,2020-12-08_10h03.56.235,premup-three_ses-02_part-02_label-phase2,3.2.4,Win32,60,50,3.908000231,,,1,0,6,0,1,5,Music items,45,55,Household items,45,55,,,,,,,,,,,,,
,,,,1,0,1,0,1,0,,,,,,,,,,,,,,,,,,,78,2020-12-08_10h03.56.235,premup-three_ses-02_part-02_label-phase2,3.2.4,Win32,60,,,,,,,,,,,,,,,,,,,,,,,,,,,,,
left,0.879999876,0,241,,,,,,,,,,,,,3,5,2,stim/52.jpeg,HouseObjects,2,stim/objects/HouseObjects/dustpan3.png,0.9,4,0.2,-0.15,right,78,2020-12-08_10h03.56.235,premup-three_ses-02_part-02_label-phase2,3.2.4,Win32,60,,,,,,,,,,,,,,,,,1,0,330,191,1,329,2,,,,,,
,,0,242,,,,,,,,,,,,,3,5,4,stim/54.jpeg,HouseObjects,2,stim/objects/HouseObjects/glass3.png,0.9,1,-0.2,0.15,right,78,2020-12-08_10h03.56.235,premup-three_ses-02_part-02_label-phase2,3.2.4,Win32,60,,,,,,,,,,,,,,,,,1,0,330,149,1,329,2,,,,,,
right,0.59100008,1,243,,,,,,,,,,,,,3,5,1,stim/51.jpeg,HouseObjects,2,stim/objects/HouseObjects/garbagebin3.png,0.9,4,0.2,-0.15,right,78,2020-12-08_10h03.56.235,premup-three_ses-02_part-02_label-phase2,3.2.4,Win32,60,,,,,,,,,,,,,,,,,1,0,330,158,1,329,2,,,,,,
left,0.644000053,1,244,,,,,,,,,,,,,2,4,4,stim/44.jpeg,Instruments,1,stim/objects/Instruments/cornet4.png,0.7,4,0.2,-0.15,left,78,2020-12-08_10h03.56.235,premup-three_ses-02_part-02_label-phase2,3.2.4,Win32,60,,,,,,,,,,,,,,,,,1,0,330,114,1,329,1,,,,,,
left,0.537999868,1,245,,,,,,,,,,,,,3,6,3,stim/63.jpeg,Instruments,1,stim/objects/Instruments/oboe4.png,0.9,1,-0.2,0.15,left,78,2020-12-08_10h03.56.235,premup-three_ses-02_part-02_label-phase2,3.2.4,Win32,60,,,,,,,,,,,,,,,,,1,0,330,316,1,329,1,,,,,,
left,0.487999916,1,246,,,,,,,,,,,,,3,6,3,stim/63.jpeg,Instruments,1,stim/objects/Instruments/frenchhorn3.png,0.9,1,-0.2,0.15,left,78,2020-12-08_10h03.56.235,premup-three_ses-02_part-02_label-phase2,3.2.4,Win32,60,,,,,,,,,,,,,,,,,1,0,330,252,1,329,2,,,,,,
left,0.576999903,1,247,,,,,,,,,,,,,3,6,1,stim/61.jpeg,Instruments,1,stim/objects/Instruments/frenchhorn3.png,0.9,3,-0.2,-0.15,left,78,2020-12-08_10h03.56.235,premup-three_ses-02_part-02_label-phase2,3.2.4,Win32,60,,,,,,,,,,,,,,,,,1,0,330,262,1,329,2,,,,,,
right,0.555000067,1,248,,,,,,,,,,,,,3,5,3,stim/53.jpeg,HouseObjects,2,stim/objects/HouseObjects/glass3.png,0.9,3,-0.2,-0.15,right,78,2020-12-08_10h03.56.235,premup-three_ses-02_part-02_label-phase2,3.2.4,Win32,60,,,,,,,,,,,,,,,,,1,0,330,164,1,329,2,,,,,,
right,0.820999861,0,249,,,,,,,,,,,,,2,3,3,stim/33.jpeg,Instruments,1,stim/objects/Instruments/violin3.png,0.3,1,-0.2,0.15,left,78,2020-12-08_10h03.56.235,premup-three_ses-02_part-02_label-phase2,3.2.4,Win32,60,,,,,,,,,,,,,,,,,1,0,330,62,1,329,1,,,,,,
right,0.661000013,0,250,,,,,,,,,,,,,1,2,2,stim/22.jpeg,Instruments,1,stim/objects/Instruments/chime3.png,0.5,1,-0.2,0.15,left,78,2020-12-08_10h03.56.235,premup-three_ses-02_part-02_label-phase2,3.2.4,Win32,60,,,,,,,,,,,,,,,,,1,0,330,37,1,329,2,,,,,,
left,0.513000011,1,251,,,,,,,,,,,,,3,6,1,stim/61.jpeg,Instruments,1,stim/objects/Instruments/frenchhorn3.png,0.9,4,0.2,-0.15,left,78,2020-12-08_10h03.56.235,premup-three_ses-02_part-02_label-phase2,3.2.4,Win32,60,,,,,,,,,,,,,,,,,1,0,330,242,1,329,2,,,,,,
left,0.555000067,1,252,,,,,,,,,,,,,3,6,2,stim/62.jpeg,Instruments,1,stim/objects/Instruments/gong3.png,0.9,2,0.2,0.15,left,78,2020-12-08_10h03.56.235,premup-three_ses-02_part-02_label-phase2,3.2.4,Win32,60,,,,,,,,,,,,,,,,,1,0,330,283,1,329,2,,,,,,
left,0.544999838,1,253,,,,,,,,,,,,,3,6,3,stim/63.jpeg,Instruments,1,stim/objects/Instruments/flute3.png,0.9,3,-0.2,-0.15,left,78,2020-12-08_10h03.56.235,premup-three_ses-02_part-02_label-phase2,3.2.4,Win32,60,,,,,,,,,,,,,,,,,1,0,330,280,1,329,2,,,,,,
right,0.538999796,1,254,,,,,,,,,,,,,3,5,3,stim/53.jpeg,HouseObjects,2,stim/objects/HouseObjects/glass3.png,0.9,2,0.2,0.15,right,78,2020-12-08_10h03.56.235,premup-three_ses-02_part-02_label-phase2,3.2.4,Win32,60,,,,,,,,,,,,,,,,,1,0,330,204,1,329,2,,,,,,
left,0.522000074,1,255,,,,,,,,,,,,,3,6,2,stim/62.jpeg,Instruments,1,stim/objects/Instruments/frenchhorn3.png,0.9,4,0.2,-0.15,left,78,2020-12-08_10h03.56.235,premup-three_ses-02_part-02_label-phase2,3.2.4,Win32,60,,,,,,,,,,,,,,,,,1,0,330,267,1,329,2,,,,,,
right,0.394000053,1,256,,,,,,,,,,,,,3,5,3,stim/53.jpeg,HouseObjects,2,stim/objects/HouseObjects/dustpan3.png,0.9,1,-0.2,0.15,right,78,2020-12-08_10h03.56.235,premup-three_ses-02_part-02_label-phase2,3.2.4,Win32,60,,,,,,,,,,,,,,,,,1,0,330,216,1,329,2,,,,,,
left,0.578999996,1,257,,,,,,,,,,,,,1,1,3,stim/13.jpeg,Instruments,1,stim/objects/Instruments/keyboard3.png,0.5,2,0.2,0.15,left,78,2020-12-08_10h03.56.235,premup-three_ses-02_part-02_label-phase2,3.2.4,Win32,60,,,,,,,,,,,,,,,,,1,0,330,14,1,329,1,,,,,,
,,0,258,,,,,,,,,,,,,2,4,1,stim/41.jpeg,Instruments,1,stim/objects/Instruments/cymbal3.png,0.7,3,-0.2,-0.15,left,78,2020-12-08_10h03.56.235,premup-three_ses-02_part-02_label-phase2,3.2.4,Win32,60,,,,,,,,,,,,,,,,,1,0,330,95,1,329,2,,,,,,
right,0.470000029,1,259,,,,,,,,,,,,,3,5,1,stim/51.jpeg,HouseObjects,2,stim/objects/HouseObjects/doormat3.png,0.9,1,-0.2,0.15,right,78,2020-12-08_10h03.56.235,premup-three_ses-02_part-02_label-phase2,3.2.4,Win32,60,,,,,,,,,,,,,,,,,1,0,330,150,1,329,2,,,,,,
right,0.454999924,1,260,,,,,,,,,,,,,3,5,1,stim/51.jpeg,HouseObjects,2,stim/objects/HouseObjects/flyswatter3.png,0.9,4,0.2,-0.15,right,78,2020-12-08_10h03.56.235,premup-three_ses-02_part-02_label-phase2,3.2.4,Win32,60,,,,,,,,,,,,,,,,,1,0,330,202,1,329,2,,,,,,
left,0.644999981,0,261,,,,,,,,,,,,,2,3,4,stim/34.jpeg,HouseObjects,2,stim/objects/HouseObjects/dishsoap3.png,0.7,4,0.2,-0.15,right,78,2020-12-08_10h03.56.235,premup-three_ses-02_part-02_label-phase2,3.2.4,Win32,60,,,,,,,,,,,,,,,,,1,0,330,79,1,329,2,,,,,,
right,0.503000021,1,262,,,,,,,,,,,,,3,5,3,stim/53.jpeg,HouseObjects,2,stim/objects/HouseObjects/dustpan3.png,0.9,1,-0.2,0.15,right,78,2020-12-08_10h03.56.235,premup-three_ses-02_part-02_label-phase2,3.2.4,Win32,60,,,,,,,,,,,,,,,,,1,0,330,196,1,329,2,,,,,,
right,0.440000057,1,263,,,,,,,,,,,,,3,5,1,stim/51.jpeg,HouseObjects,2,stim/objects/HouseObjects/dustpan3.png,0.9,2,0.2,0.15,right,78,2020-12-08_10h03.56.235,premup-three_ses-02_part-02_label-phase2,3.2.4,Win32,60,,,,,,,,,,,,,,,,,1,0,330,146,1,329,2,,,,,,
right,0.470000029,1,264,,,,,,,,,,,,,3,5,1,stim/51.jpeg,HouseObjects,2,stim/objects/HouseObjects/doormat3.png,0.9,3,-0.2,-0.15,right,78,2020-12-08_10h03.56.235,premup-three_ses-02_part-02_label-phase2,3.2.4,Win32,60,,,,,,,,,,,,,,,,,1,0,330,190,1,329,2,,,,,,
right,0.467000008,1,265,,,,,,,,,,,,,3,5,3,stim/53.jpeg,HouseObjects,2,stim/objects/HouseObjects/glass3.png,0.9,2,0.2,0.15,right,78,2020-12-08_10h03.56.235,premup-three_ses-02_part-02_label-phase2,3.2.4,Win32,60,,,,,,,,,,,,,,,,,1,0,330,144,1,329,2,,,,,,
left,0.737999916,1,266,,,,,,,,,,,,,2,4,2,stim/42.jpeg,Instruments,1,stim/objects/Instruments/doublebass3.png,0.7,2,0.2,0.15,left,78,2020-12-08_10h03.56.235,premup-three_ses-02_part-02_label-phase2,3.2.4,Win32,60,,,,,,,,,,,,,,,,,1,0,330,96,1,329,2,,,,,,
right,0.806999922,0,267,,,,,,,,,,,,,2,3,1,stim/31.jpeg,Instruments,1,stim/objects/Instruments/musicstand3.png,0.3,2,0.2,0.15,left,78,2020-12-08_10h03.56.235,premup-three_ses-02_part-02_label-phase2,3.2.4,Win32,60,,,,,,,,,,,,,,,,,1,0,330,60,1,329,1,,,,,,
left,0.638999939,1,268,,,,,,,,,,,,,2,4,4,stim/44.jpeg,Instruments,1,stim/objects/Instruments/drums3.png,0.7,4,0.2,-0.15,left,78,2020-12-08_10h03.56.235,premup-three_ses-02_part-02_label-phase2,3.2.4,Win32,60,,,,,,,,,,,,,,,,,1,0,330,102,1,329,2,,,,,,
right,0.511000156,1,269,,,,,,,,,,,,,3,5,2,stim/52.jpeg,HouseObjects,2,stim/objects/HouseObjects/doormat3.png,0.9,4,0.2,-0.15,right,78,2020-12-08_10h03.56.235,premup-three_ses-02_part-02_label-phase2,3.2.4,Win32,60,,,,,,,,,,,,,,,,,1,0,330,175,1,329,2,,,,,,
left,0.688999891,1,270,,,,,,,,,,,,,1,1,1,stim/11.jpeg,Instruments,1,stim/objects/Instruments/accordion3.png,0.5,4,0.2,-0.15,left,78,2020-12-08_10h03.56.235,premup-three_ses-02_part-02_label-phase2,3.2.4,Win32,60,,,,,,,,,,,,,,,,,1,0,330,0,1,329,2,,,,,,
left,0.507999897,1,271,,,,,,,,,,,,,3,6,1,stim/61.jpeg,Instruments,1,stim/objects/Instruments/grandpiano3.png,0.9,1,-0.2,0.15,left,78,2020-12-08_10h03.56.235,premup-three_ses-02_part-02_label-phase2,3.2.4,Win32,60,,,,,,,,,,,,,,,,,1,0,330,234,1,329,2,,,,,,
right,0.769999981,1,272,,,,,,,,,,,,,2,3,1,stim/31.jpeg,HouseObjects,2,stim/objects/HouseObjects/coffee3.png,0.7,4,0.2,-0.15,right,78,2020-12-08_10h03.56.235,premup-three_ses-02_part-02_label-phase2,3.2.4,Win32,60,,,,,,,,,,,,,,,,,1,0,330,72,1,329,2,,,,,,
left,0.476999998,1,273,,,,,,,,,,,,,3,6,3,stim/63.jpeg,Instruments,1,stim/objects/Instruments/flutetrans3.png,0.9,1,-0.2,0.15,left,78,2020-12-08_10h03.56.235,premup-three_ses-02_part-02_label-phase2,3.2.4,Win32,60,,,,,,,,,,,,,,,,,1,0,330,256,1,329,2,,,,,,
right,0.472999811,1,274,,,,,,,,,,,,,3,5,3,stim/53.jpeg,HouseObjects,2,stim/objects/HouseObjects/doormat3.png,0.9,4,0.2,-0.15,right,78,2020-12-08_10h03.56.235,premup-three_ses-02_part-02_label-phase2,3.2.4,Win32,60,,,,,,,,,,,,,,,,,1,0,330,160,1,329,2,,,,,,
left,0.671000004,1,275,,,,,,,,,,,,,2,3,4,stim/34.jpeg,Instruments,1,stim/objects/Instruments/vuvuzela3.png,0.3,4,0.2,-0.15,left,78,2020-12-08_10h03.56.235,premup-three_ses-02_part-02_label-phase2,3.2.4,Win32,60,,,,,,,,,,,,,,,,,1,0,330,63,1,329,1,,,,,,
right,0.552000046,1,276,,,,,,,,,,,,,2,3,1,stim/31.jpeg,HouseObjects,2,stim/objects/HouseObjects/dishsoap3.png,0.7,1,-0.2,0.15,right,78,2020-12-08_10h03.56.235,premup-three_ses-02_part-02_label-phase2,3.2.4,Win32,60,,,,,,,,,,,,,,,,,1,0,330,84,1,329,2,,,,,,
right,0.489000082,1,277,,,,,,,,,,,,,2,3,1,stim/31.jpeg,HouseObjects,2,stim/objects/HouseObjects/clothespin3.png,0.7,1,-0.2,0.15,right,78,2020-12-08_10h03.56.235,premup-three_ses-02_part-02_label-phase2,3.2.4,Win32,60,,,,,,,,,,,,,,,,,1,0,330,76,1,329,2,,,,,,
left,0.605000019,0,278,,,,,,,,,,,,,1,1,4,stim/14.jpeg,HouseObjects,2,stim/objects/HouseObjects/ashtray3.png,0.5,1,-0.2,0.15,right,78,2020-12-08_10h03.56.235,premup-three_ses-02_part-02_label-phase2,3.2.4,Win32,60,,,,,,,,,,,,,,,,,1,0,330,15,1,329,2,,,,,,
right,0.524999857,1,279,,,,,,,,,,,,,3,5,2,stim/52.jpeg,HouseObjects,2,stim/objects/HouseObjects/glass3.png,0.9,4,0.2,-0.15,right,78,2020-12-08_10h03.56.235,premup-three_ses-02_part-02_label-phase2,3.2.4,Win32,60,,,,,,,,,,,,,,,,,1,0,330,179,1,329,2,,,,,,
right,0.749000072,1,280,,,,,,,,,,,,,1,2,3,stim/23.jpeg,HouseObjects,2,stim/objects/HouseObjects/blender3.png,0.5,2,0.2,0.15,right,78,2020-12-08_10h03.56.235,premup-three_ses-02_part-02_label-phase2,3.2.4,Win32,60,,,,,,,,,,,,,,,,,1,0,330,50,1,329,2,,,,,,
left,0.593999863,1,281,,,,,,,,,,,,,1,1,3,stim/13.jpeg,Instruments,1,stim/objects/Instruments/guitarcase3.png,0.5,1,-0.2,0.15,left,78,2020-12-08_10h03.56.235,premup-three_ses-02_part-02_label-phase2,3.2.4,Win32,60,,,,,,,,,,,,,,,,,1,0,330,10,1,329,1,,,,,,
left,0.503000021,1,282,,,,,,,,,,,,,3,6,4,stim/64.jpeg,Instruments,1,stim/objects/Instruments/flutetrans3.png,0.9,2,0.2,0.15,left,78,2020-12-08_10h03.56.235,premup-three_ses-02_part-02_label-phase2,3.2.4,Win32,60,,,,,,,,,,,,,,,,,1,0,330,241,1,329,2,,,,,,
left,0.411000013,1,283,,,,,,,,,,,,,3,6,4,stim/64.jpeg,Instruments,1,stim/objects/Instruments/gong3.png,0.9,1,-0.2,0.15,left,78,2020-12-08_10h03.56.235,premup-three_ses-02_part-02_label-phase2,3.2.4,Win32,60,,,,,,,,,,,,,,,,,1,0,330,273,1,329,2,,,,,,
left,0.51699996,1,284,,,,,,,,,,,,,3,6,2,stim/62.jpeg,Instruments,1,stim/objects/Instruments/flutetrans3.png,0.9,2,0.2,0.15,left,78,2020-12-08_10h03.56.235,premup-three_ses-02_part-02_label-phase2,3.2.4,Win32,60,,,,,,,,,,,,,,,,,1,0,330,271,1,329,2,,,,,,
left,0.486999989,1,285,,,,,,,,,,,,,3,6,3,stim/63.jpeg,Instruments,1,stim/objects/Instruments/marimba4.png,0.9,3,-0.2,-0.15,left,78,2020-12-08_10h03.56.235,premup-three_ses-02_part-02_label-phase2,3.2.4,Win32,60,,,,,,,,,,,,,,,,,1,0,330,312,1,329,1,,,,,,
left,0.4599998,1,286,,,,,,,,,,,,,3,6,3,stim/63.jpeg,Instruments,1,stim/objects/Instruments/grandpiano3.png,0.9,3,-0.2,-0.15,left,78,2020-12-08_10h03.56.235,premup-three_ses-02_part-02_label-phase2,3.2.4,Win32,60,,,,,,,,,,,,,,,,,1,0,330,244,1,329,2,,,,,,
left,0.444000006,1,287,,,,,,,,,,,,,3,6,4,stim/64.jpeg,Instruments,1,stim/objects/Instruments/grandpiano3.png,0.9,3,-0.2,-0.15,left,78,2020-12-08_10h03.56.235,premup-three_ses-02_part-02_label-phase2,3.2.4,Win32,60,,,,,,,,,,,,,,,,,1,0,330,289,1,329,2,,,,,,
right,0.60800004,1,288,,,,,,,,,,,,,1,1,2,stim/12.jpeg,HouseObjects,2,stim/objects/HouseObjects/glassmop3.png,0.5,4,0.2,-0.15,right,78,2020-12-08_10h03.56.235,premup-three_ses-02_part-02_label-phase2,3.2.4,Win32,60,,,,,,,,,,,,,,,,,1,0,330,25,1,329,1,,,,,,
left,0.460000038,1,289,,,,,,,,,,,,,3,6,3,stim/63.jpeg,Instruments,1,stim/objects/Instruments/flute3.png,0.9,2,0.2,0.15,left,78,2020-12-08_10h03.56.235,premup-three_ses-02_part-02_label-phase2,3.2.4,Win32,60,,,,,,,,,,,,,,,,,1,0,330,260,1,329,2,,,,,,
right,0.486000061,1,290,,,,,,,,,,,,,3,5,2,stim/52.jpeg,HouseObjects,2,stim/objects/HouseObjects/garbagebin3.png,0.9,2,0.2,0.15,right,78,2020-12-08_10h03.56.235,premup-three_ses-02_part-02_label-phase2,3.2.4,Win32,60,,,,,,,,,,,,,,,,,1,0,330,203,1,329,2,,,,,,
right,0.489000082,1,291,,,,,,,,,,,,,3,5,2,stim/52.jpeg,HouseObjects,2,stim/objects/HouseObjects/garbagebin3.png,0.9,4,0.2,-0.15,right,78,2020-12-08_10h03.56.235,premup-three_ses-02_part-02_label-phase2,3.2.4,Win32,60,,,,,,,,,,,,,,,,,1,0,330,163,1,329,2,,,,,,
right,0.626999855,1,292,,,,,,,,,,,,,2,3,2,stim/32.jpeg,HouseObjects,2,stim/objects/HouseObjects/cushion3.png,0.7,1,-0.2,0.15,right,78,2020-12-08_10h03.56.235,premup-three_ses-02_part-02_label-phase2,3.2.4,Win32,60,,,,,,,,,,,,,,,,,1,0,330,73,1,329,2,,,,,,
left,0.519000053,0,293,,,,,,,,,,,,,3,6,3,stim/63.jpeg,HouseObjects,2,stim/objects/HouseObjects/match4.png,0.1,2,0.2,0.15,right,78,2020-12-08_10h03.56.235,premup-three_ses-02_part-02_label-phase2,3.2.4,Win32,60,,,,,,,,,,,,,,,,,1,0,330,324,1,329,1,,,,,,
right,0.595999956,0,294,,,,,,,,,,,,,1,2,2,stim/22.jpeg,Instruments,1,stim/objects/Instruments/maraca3.png,0.5,3,-0.2,-0.15,left,78,2020-12-08_10h03.56.235,premup-three_ses-02_part-02_label-phase2,3.2.4,Win32,60,,,,,,,,,,,,,,,,,1,0,330,41,1,329,1,,,,,,
right,0.473999977,1,295,,,,,,,,,,,,,3,5,1,stim/51.jpeg,HouseObjects,2,stim/objects/HouseObjects/glass3.png,0.9,3,-0.2,-0.15,right,78,2020-12-08_10h03.56.235,premup-three_ses-02_part-02_label-phase2,3.2.4,Win32,60,,,,,,,,,,,,,,,,,1,0,330,214,1,329,2,,,,,,
left,0.654999971,1,296,,,,,,,,,,,,,1,1,2,stim/12.jpeg,Instruments,1,stim/objects/Instruments/bassdrum3.png,0.5,4,0.2,-0.15,left,78,2020-12-08_10h03.56.235,premup-three_ses-02_part-02_label-phase2,3.2.4,Win32,60,,,,,,,,,,,,,,,,,1,0,330,9,1,329,2,,,,,,
right,0.441999912,1,297,,,,,,,,,,,,,3,5,4,stim/54.jpeg,HouseObjects,2,stim/objects/HouseObjects/dustpan3.png,0.9,2,0.2,0.15,right,78,2020-12-08_10h03.56.235,premup-three_ses-02_part-02_label-phase2,3.2.4,Win32,60,,,,,,,,,,,,,,,,,1,0,330,161,1,329,2,,,,,,
left,0.523000002,0,298,,,,,,,,,,,,,2,4,2,stim/42.jpeg,HouseObjects,2,stim/objects/HouseObjects/cushion4.png,0.3,2,0.2,0.15,right,78,2020-12-08_10h03.56.235,premup-three_ses-02_part-02_label-phase2,3.2.4,Win32,60,,,,,,,,,,,,,,,,,1,0,330,128,1,329,1,,,,,,
right,0.493999958,1,299,,,,,,,,,,,,,3,5,2,stim/52.jpeg,HouseObjects,2,stim/objects/HouseObjects/dustpan3.png,0.9,3,-0.2,-0.15,right,78,2020-12-08_10h03.56.235,premup-three_ses-02_part-02_label-phase2,3.2.4,Win32,60,,,,,,,,,,,,,,,,,1,0,330,151,1,329,2,,,,,,
left,0.506999969,1,300,,,,,,,,,,,,,3,6,2,stim/62.jpeg,Instruments,1,stim/objects/Instruments/flutetrans3.png,0.9,2,0.2,0.15,left,78,2020-12-08_10h03.56.235,premup-three_ses-02_part-02_label-phase2,3.2.4,Win32,60,,,,,,,,,,,,,,,,,1,0,330,251,1,329,2,,,,,,
right,0.589999914,1,301,,,,,,,,,,,,,1,2,2,stim/22.jpeg,HouseObjects,2,stim/objects/HouseObjects/knife3.png,0.5,2,0.2,0.15,right,78,2020-12-08_10h03.56.235,premup-three_ses-02_part-02_label-phase2,3.2.4,Win32,60,,,,,,,,,,,,,,,,,1,0,330,57,1,329,1,,,,,,
left,0.463999987,1,302,,,,,,,,,,,,,3,6,2,stim/62.jpeg,Instruments,1,stim/objects/Instruments/flute3.png,0.9,3,-0.2,-0.15,left,78,2020-12-08_10h03.56.235,premup-three_ses-02_part-02_label-phase2,3.2.4,Win32,60,,,,,,,,,,,,,,,,,1,0,330,255,1,329,2,,,,,,
right,0.459000111,0,303,,,,,,,,,,,,,3,5,4,stim/54.jpeg,Instruments,1,stim/objects/Instruments/harp4.png,0.1,2,0.2,0.15,left,78,2020-12-08_10h03.56.235,premup-three_ses-02_part-02_label-phase2,3.2.4,Win32,60,,,,,,,,,,,,,,,,,1,0,330,137,1,329,1,,,,,,
left,0.684000015,1,304,,,,,,,,,,,,,2,4,1,stim/41.jpeg,Instruments,1,stim/objects/Instruments/electricguitar4.png,0.7,3,-0.2,-0.15,left,78,2020-12-08_10h03.56.235,premup-three_ses-02_part-02_label-phase2,3.2.4,Win32,60,,,,,,,,,,,,,,,,,1,0,330,119,1,329,1,,,,,,
left,0.637000084,1,305,,,,,,,,,,,,,1,2,3,stim/23.jpeg,Instruments,1,stim/objects/Instruments/marimba3.png,0.5,2,0.2,0.15,left,78,2020-12-08_10h03.56.235,premup-three_ses-02_part-02_label-phase2,3.2.4,Win32,60,,,,,,,,,,,,,,,,,1,0,330,42,1,329,1,,,,,,
left,0.558000088,0,306,,,,,,,,,,,,,3,6,2,stim/62.jpeg,HouseObjects,2,stim/objects/HouseObjects/towel4.png,0.1,2,0.2,0.15,right,78,2020-12-08_10h03.56.235,premup-three_ses-02_part-02_label-phase2,3.2.4,Win32,60,,,,,,,,,,,,,,,,,1,0,330,327,1,329,1,,,,,,
right,0.544000149,1,307,,,,,,,,,,,,,3,5,3,stim/53.jpeg,HouseObjects,2,stim/objects/HouseObjects/doormat3.png,0.9,2,0.2,0.15,right,78,2020-12-08_10h03.56.235,premup-three_ses-02_part-02_label-phase2,3.2.4,Win32,60,,,,,,,,,,,,,,,,,1,0,330,140,1,329,2,,,,,,
right,0.645999908,1,308,,,,,,,,,,,,,3,5,4,stim/54.jpeg,HouseObjects,2,stim/objects/HouseObjects/glass3.png,0.9,1,-0.2,0.15,right,78,2020-12-08_10h03.56.235,premup-three_ses-02_part-02_label-phase2,3.2.4,Win32,60,,,,,,,,,,,,,,,,,1,0,330,209,1,329,2,,,,,,
left,0.707000017,0,309,,,,,,,,,,,,,1,2,1,stim/21.jpeg,HouseObjects,2,stim/objects/HouseObjects/key3.png,0.5,4,0.2,-0.15,right,78,2020-12-08_10h03.56.235,premup-three_ses-02_part-02_label-phase2,3.2.4,Win32,60,,,,,,,,,,,,,,,,,1,0,330,56,1,329,1,,,,,,
right,0.707000017,1,310,,,,,,,,,,,,,1,2,4,stim/24.jpeg,HouseObjects,2,stim/objects/HouseObjects/match3.png,0.5,3,-0.2,-0.15,right,78,2020-12-08_10h03.56.235,premup-three_ses-02_part-02_label-phase2,3.2.4,Win32,60,,,,,,,,,,,,,,,,,1,0,330,59,1,329,1,,,,,,
left,0.505000114,1,311,,,,,,,,,,,,,3,6,3,stim/63.jpeg,Instruments,1,stim/objects/Instruments/gong3.png,0.9,4,0.2,-0.15,left,78,2020-12-08_10h03.56.235,premup-three_ses-02_part-02_label-phase2,3.2.4,Win32,60,,,,,,,,,,,,,,,,,1,0,330,288,1,329,2,,,,,,
left,0.476000071,1,312,,,,,,,,,,,,,3,6,4,stim/64.jpeg,Instruments,1,stim/objects/Instruments/grandpiano3.png,0.9,1,-0.2,0.15,left,78,2020-12-08_10h03.56.235,premup-three_ses-02_part-02_label-phase2,3.2.4,Win32,60,,,,,,,,,,,,,,,,,1,0,330,269,1,329,2,,,,,,
left,0.430000067,1,313,,,,,,,,,,,,,3,6,4,stim/64.jpeg,Instruments,1,stim/objects/Instruments/flute3.png,0.9,4,0.2,-0.15,left,78,2020-12-08_10h03.56.235,premup-three_ses-02_part-02_label-phase2,3.2.4,Win32,60,,,,,,,,,,,,,,,,,1,0,330,285,1,329,2,,,,,,
right,0.589999914,1,314,,,,,,,,,,,,,2,3,3,stim/33.jpeg,HouseObjects,2,stim/objects/HouseObjects/coffee3.png,0.7,1,-0.2,0.15,right,78,2020-12-08_10h03.56.235,premup-three_ses-02_part-02_label-phase2,3.2.4,Win32,60,,,,,,,,,,,,,,,,,1,0,330,82,1,329,2,,,,,,
left,0.618999958,1,315,,,,,,,,,,,,,2,4,3,stim/43.jpeg,Instruments,1,stim/objects/Instruments/electricguitar3.png,0.7,4,0.2,-0.15,left,78,2020-12-08_10h03.56.235,premup-three_ses-02_part-02_label-phase2,3.2.4,Win32,60,,,,,,,,,,,,,,,,,1,0,330,109,1,329,2,,,,,,
right,0.444999933,1,316,,,,,,,,,,,,,3,5,4,stim/54.jpeg,HouseObjects,2,stim/objects/HouseObjects/iron4.png,0.9,2,0.2,0.15,right,78,2020-12-08_10h03.56.235,premup-three_ses-02_part-02_label-phase2,3.2.4,Win32,60,,,,,,,,,,,,,,,,,1,0,330,229,1,329,1,,,,,,
left,0.53399992,0,317,,,,,,,,,,,,,1,1,1,stim/11.jpeg,HouseObjects,2,stim/objects/HouseObjects/handvacuum3.png,0.5,4,0.2,-0.15,right,78,2020-12-08_10h03.56.235,premup-three_ses-02_part-02_label-phase2,3.2.4,Win32,60,,,,,,,,,,,,,,,,,1,0,330,28,1,329,1,,,,,,
left,0.676000118,1,318,,,,,,,,,,,,,2,4,1,stim/41.jpeg,Instruments,1,stim/objects/Instruments/drums3.png,0.7,3,-0.2,-0.15,left,78,2020-12-08_10h03.56.235,premup-three_ses-02_part-02_label-phase2,3.2.4,Win32,60,,,,,,,,,,,,,,,,,1,0,330,107,1,329,2,,,,,,
left,0.592999935,1,319,,,,,,,,,,,,,3,6,3,stim/63.jpeg,Instruments,1,stim/objects/Instruments/frenchhorn3.png,0.9,2,0.2,0.15,left,78,2020-12-08_10h03.56.235,premup-three_ses-02_part-02_label-phase2,3.2.4,Win32,60,,,,,,,,,,,,,,,,,1,0,330,292,1,329,2,,,,,,
right,0.503000021,1,320,,,,,,,,,,,,,3,5,3,stim/53.jpeg,HouseObjects,2,stim/objects/HouseObjects/dustpan3.png,0.9,4,0.2,-0.15,right,78,2020-12-08_10h03.56.235,premup-three_ses-02_part-02_label-phase2,3.2.4,Win32,60,,,,,,,,,,,,,,,,,1,0,330,156,1,329,2,,,,,,
left,0.719000101,1,321,,,,,,,,,,,,,1,2,1,stim/21.jpeg,Instruments,1,stim/objects/Instruments/laud3.png,0.5,1,-0.2,0.15,left,78,2020-12-08_10h03.56.235,premup-three_ses-02_part-02_label-phase2,3.2.4,Win32,60,,,,,,,,,,,,,,,,,1,0,330,40,1,329,1,,,,,,
left,0.773000002,0,322,,,,,,,,,,,,,1,1,2,stim/12.jpeg,HouseObjects,2,stim/objects/HouseObjects/barbecuelighter3.png,0.5,1,-0.2,0.15,right,78,2020-12-08_10h03.56.235,premup-three_ses-02_part-02_label-phase2,3.2.4,Win32,60,,,,,,,,,,,,,,,,,1,0,330,17,1,329,2,,,,,,
right,0.539000034,1,323,,,,,,,,,,,,,3,5,2,stim/52.jpeg,HouseObjects,2,stim/objects/HouseObjects/dustpan3.png,0.9,1,-0.2,0.15,right,78,2020-12-08_10h03.56.235,premup-three_ses-02_part-02_label-phase2,3.2.4,Win32,60,,,,,,,,,,,,,,,,,1,0,330,171,1,329,2,,,,,,
right,0.715999842,1,324,,,,,,,,,,,,,1,1,4,stim/14.jpeg,HouseObjects,2,stim/objects/HouseObjects/handbrush3.png,0.5,2,0.2,0.15,right,78,2020-12-08_10h03.56.235,premup-three_ses-02_part-02_label-phase2,3.2.4,Win32,60,,,,,,,,,,,,,,,,,1,0,330,27,1,329,1,,,,,,
right,0.459000111,1,325,,,,,,,,,,,,,3,5,4,stim/54.jpeg,HouseObjects,2,stim/objects/HouseObjects/doormat3.png,0.9,2,0.2,0.15,right,78,2020-12-08_10h03.56.235,premup-three_ses-02_part-02_label-phase2,3.2.4,Win32,60,,,,,,,,,,,,,,,,,1,0,330,145,1,329,2,,,,,,
right,0.639999866,0,326,,,,,,,,,,,,,2,3,4,stim/34.jpeg,Instruments,1,stim/objects/Instruments/balalaika4.png,0.3,2,0.2,0.15,left,78,2020-12-08_10h03.56.235,premup-three_ses-02_part-02_label-phase2,3.2.4,Win32,60,,,,,,,,,,,,,,,,,1,0,330,67,1,329,1,,,,,,
right,0.493000031,0,327,,,,,,,,,,,,,2,3,2,stim/32.jpeg,Instruments,1,stim/objects/Instruments/oboe3.png,0.3,4,0.2,-0.15,left,78,2020-12-08_10h03.56.235,premup-three_ses-02_part-02_label-phase2,3.2.4,Win32,60,,,,,,,,,,,,,,,,,1,0,330,61,1,329,1,,,,,,
right,0.488000154,1,328,,,,,,,,,,,,,3,5,1,stim/51.jpeg,HouseObjects,2,stim/objects/HouseObjects/dustpan3.png,0.9,2,0.2,0.15,right,78,2020-12-08_10h03.56.235,premup-three_ses-02_part-02_label-phase2,3.2.4,Win32,60,,,,,,,,,,,,,,,,,1,0,330,186,1,329,2,,,,,,
right,0.523999929,1,329,,,,,,,,,,,,,3,5,2,stim/52.jpeg,HouseObjects,2,stim/objects/HouseObjects/flyswatter3.png,0.9,1,-0.2,0.15,right,78,2020-12-08_10h03.56.235,premup-three_ses-02_part-02_label-phase2,3.2.4,Win32,60,,,,,,,,,,,,,,,,,1,0,330,167,1,329,2,,,,,,
right,0.523000002,0,330,,,,,,,,,,,,,3,5,2,stim/52.jpeg,Instruments,1,stim/objects/Instruments/keyboard4.png,0.1,4,0.2,-0.15,left,78,2020-12-08_10h03.56.235,premup-three_ses-02_part-02_label-phase2,3.2.4,Win32,60,,,,,,,,,,,,,,,,,1,0,330,139,1,329,1,,,,,,
right,0.487999916,1,331,,,,,,,,,,,,,3,5,2,stim/52.jpeg,HouseObjects,2,stim/objects/HouseObjects/doormat3.png,0.9,1,-0.2,0.15,right,78,2020-12-08_10h03.56.235,premup-three_ses-02_part-02_label-phase2,3.2.4,Win32,60,,,,,,,,,,,,,,,,,1,0,330,155,1,329,2,,,,,,
right,0.406000137,1,332,,,,,,,,,,,,,3,5,1,stim/51.jpeg,HouseObjects,2,stim/objects/HouseObjects/dustpan3.png,0.9,2,0.2,0.15,right,78,2020-12-08_10h03.56.235,premup-three_ses-02_part-02_label-phase2,3.2.4,Win32,60,,,,,,,,,,,,,,,,,1,0,330,166,1,329,2,,,,,,
left,0.674999952,0,333,,,,,,,,,,,,,1,2,2,stim/22.jpeg,HouseObjects,2,stim/objects/HouseObjects/clock3.png,0.5,2,0.2,0.15,right,78,2020-12-08_10h03.56.235,premup-three_ses-02_part-02_label-phase2,3.2.4,Win32,60,,,,,,,,,,,,,,,,,1,0,330,49,1,329,2,,,,,,
right,0.470999956,1,334,,,,,,,,,,,,,3,5,2,stim/52.jpeg,HouseObjects,2,stim/objects/HouseObjects/garbagebin4.png,0.9,1,-0.2,0.15,right,78,2020-12-08_10h03.56.235,premup-three_ses-02_part-02_label-phase2,3.2.4,Win32,60,,,,,,,,,,,,,,,,,1,0,330,223,1,329,1,,,,,,
right,0.572000027,0,335,,,,,,,,,,,,,3,5,4,stim/54.jpeg,Instruments,1,stim/objects/Instruments/gong4.png,0.1,2,0.2,0.15,left,78,2020-12-08_10h03.56.235,premup-three_ses-02_part-02_label-phase2,3.2.4,Win32,60,,,,,,,,,,,,,,,,,1,0,330,133,1,329,1,,,,,,
left,0.625999928,1,336,,,,,,,,,,,,,1,2,3,stim/23.jpeg,Instruments,1,stim/objects/Instruments/clarinet3.png,0.5,1,-0.2,0.15,left,78,2020-12-08_10h03.56.235,premup-three_ses-02_part-02_label-phase2,3.2.4,Win32,60,,,,,,,,,,,,,,,,,1,0,330,38,1,329,2,,,,,,
,,0,337,,,,,,,,,,,,,1,2,2,stim/22.jpeg,HouseObjects,2,stim/objects/HouseObjects/blender3.png,0.5,2,0.2,0.15,right,78,2020-12-08_10h03.56.235,premup-three_ses-02_part-02_label-phase2,3.2.4,Win32,60,,,,,,,,,,,,,,,,,1,0,330,45,1,329,2,,,,,,
right,0.477999926,0,338,,,,,,,,,,,,,1,2,4,stim/24.jpeg,Instruments,1,stim/objects/Instruments/cello3.png,0.5,4,0.2,-0.15,left,78,2020-12-08_10h03.56.235,premup-three_ses-02_part-02_label-phase2,3.2.4,Win32,60,,,,,,,,,,,,,,,,,1,0,330,31,1,329,2,,,,,,
right,0.588999987,0,339,,,,,,,,,,,,,1,1,1,stim/11.jpeg,Instruments,1,stim/objects/Instruments/bassdrum3.png,0.5,3,-0.2,-0.15,left,78,2020-12-08_10h03.56.235,premup-three_ses-02_part-02_label-phase2,3.2.4,Win32,60,,,,,,,,,,,,,,,,,1,0,330,4,1,329,2,,,,,,
left,0.640000105,0,340,,,,,,,,,,,,,1,2,3,stim/23.jpeg,HouseObjects,2,stim/objects/HouseObjects/clock3.png,0.5,4,0.2,-0.15,right,78,2020-12-08_10h03.56.235,premup-three_ses-02_part-02_label-phase2,3.2.4,Win32,60,,,,,,,,,,,,,,,,,1,0,330,54,1,329,2,,,,,,
right,0.557999849,1,341,,,,,,,,,,,,,3,5,2,stim/52.jpeg,HouseObjects,2,stim/objects/HouseObjects/flyswatter3.png,0.9,2,0.2,0.15,right,78,2020-12-08_10h03.56.235,premup-three_ses-02_part-02_label-phase2,3.2.4,Win32,60,,,,,,,,,,,,,,,,,1,0,330,147,1,329,2,,,,,,
right,0.559999943,1,342,,,,,,,,,,,,,3,5,3,stim/53.jpeg,HouseObjects,2,stim/objects/HouseObjects/flyswatter3.png,0.9,3,-0.2,-0.15,right,78,2020-12-08_10h03.56.235,premup-three_ses-02_part-02_label-phase2,3.2.4,Win32,60,,,,,,,,,,,,,,,,,1,0,330,192,1,329,2,,,,,,
left,0.552999973,1,343,,,,,,,,,,,,,3,6,3,stim/63.jpeg,Instruments,1,stim/objects/Instruments/flute3.png,0.9,1,-0.2,0.15,left,78,2020-12-08_10h03.56.235,premup-three_ses-02_part-02_label-phase2,3.2.4,Win32,60,,,,,,,,,,,,,,,,,1,0,330,300,1,329,2,,,,,,
left,0.657000065,0,344,,,,,,,,,,,,,2,4,1,stim/41.jpeg,HouseObjects,2,stim/objects/HouseObjects/coffee4.png,0.3,3,-0.2,-0.15,right,78,2020-12-08_10h03.56.235,premup-three_ses-02_part-02_label-phase2,3.2.4,Win32,60,,,,,,,,,,,,,,,,,1,0,330,127,1,329,1,,,,,,
right,0.826999903,1,345,,,,,,,,,,,,,2,3,3,stim/33.jpeg,HouseObjects,2,stim/objects/HouseObjects/pitcher3.png,0.7,2,0.2,0.15,right,78,2020-12-08_10h03.56.235,premup-three_ses-02_part-02_label-phase2,3.2.4,Win32,60,,,,,,,,,,,,,,,,,1,0,330,86,1,329,1,,,,,,
left,0.723999977,0,346,,,,,,,,,,,,,1,2,4,stim/24.jpeg,HouseObjects,2,stim/objects/HouseObjects/ironingboard3.png,0.5,1,-0.2,0.15,right,78,2020-12-08_10h03.56.235,premup-three_ses-02_part-02_label-phase2,3.2.4,Win32,60,,,,,,,,,,,,,,,,,1,0,330,55,1,329,1,,,,,,
right,0.573999882,1,347,,,,,,,,,,,,,3,5,4,stim/54.jpeg,HouseObjects,2,stim/objects/HouseObjects/doormat3.png,0.9,2,0.2,0.15,right,78,2020-12-08_10h03.56.235,premup-three_ses-02_part-02_label-phase2,3.2.4,Win32,60,,,,,,,,,,,,,,,,,1,0,330,205,1,329,2,,,,,,
left,0.527999878,1,348,,,,,,,,,,,,,3,6,2,stim/62.jpeg,Instruments,1,stim/objects/Instruments/frenchhorn3.png,0.9,2,0.2,0.15,left,78,2020-12-08_10h03.56.235,premup-three_ses-02_part-02_label-phase2,3.2.4,Win32,60,,,,,,,,,,,,,,,,,1,0,330,307,1,329,2,,,,,,
left,0.561999798,1,349,,,,,,,,,,,,,3,6,2,stim/62.jpeg,Instruments,1,stim/objects/Instruments/gong3.png,0.9,4,0.2,-0.15,left,78,2020-12-08_10h03.56.235,premup-three_ses-02_part-02_label-phase2,3.2.4,Win32,60,,,,,,,,,,,,,,,,,1,0,330,243,1,329,2,,,,,,
left,0.512000084,1,350,,,,,,,,,,,,,3,6,1,stim/61.jpeg,Instruments,1,stim/objects/Instruments/flute3.png,0.9,1,-0.2,0.15,left,78,2020-12-08_10h03.56.235,premup-three_ses-02_part-02_label-phase2,3.2.4,Win32,60,,,,,,,,,,,,,,,,,1,0,330,230,1,329,2,,,,,,
right,0.654999971,0,351,,,,,,,,,,,,,2,3,2,stim/32.jpeg,Instruments,1,stim/objects/Instruments/accordion4.png,0.3,4,0.2,-0.15,left,78,2020-12-08_10h03.56.235,premup-three_ses-02_part-02_label-phase2,3.2.4,Win32,60,,,,,,,,,,,,,,,,,1,0,330,65,1,329,1,,,,,,
left,0.722000122,1,352,,,,,,,,,,,,,1,2,1,stim/21.jpeg,Instruments,1,stim/objects/Instruments/cello3.png,0.5,4,0.2,-0.15,left,78,2020-12-08_10h03.56.235,premup-three_ses-02_part-02_label-phase2,3.2.4,Win32,60,,,,,,,,,,,,,,,,,1,0,330,36,1,329,2,,,,,,
right,0.555999994,1,353,,,,,,,,,,,,,3,5,3,stim/53.jpeg,HouseObjects,2,stim/objects/HouseObjects/doormat4.png,0.9,1,-0.2,0.15,right,78,2020-12-08_10h03.56.235,premup-three_ses-02_part-02_label-phase2,3.2.4,Win32,60,,,,,,,,,,,,,,,,,1,0,330,220,1,329,1,,,,,,
right,0.628000021,0,354,,,,,,,,,,,,,1,1,2,stim/12.jpeg,Instruments,1,stim/objects/Instruments/acousticguitar3.png,0.5,2,0.2,0.15,left,78,2020-12-08_10h03.56.235,premup-three_ses-02_part-02_label-phase2,3.2.4,Win32,60,,,,,,,,,,,,,,,,,1,0,330,1,1,329,2,,,,,,
,,0,355,,,,,,,,,,,,,2,4,4,stim/44.jpeg,Instruments,1,stim/objects/Instruments/bassguitar4.png,0.7,1,-0.2,0.15,left,78,2020-12-08_10h03.56.235,premup-three_ses-02_part-02_label-phase2,3.2.4,Win32,60,,,,,,,,,,,,,,,,,1,0,330,110,1,329,1,,,,,,
right,0.562999964,1,356,,,,,,,,,,,,,2,4,3,stim/43.jpeg,HouseObjects,2,stim/objects/HouseObjects/bottle4.png,0.3,3,-0.2,-0.15,right,78,2020-12-08_10h03.56.235,premup-three_ses-02_part-02_label-phase2,3.2.4,Win32,60,,,,,,,,,,,,,,,,,1,0,330,121,1,329,1,,,,,,
left,0.60800004,0,357,,,,,,,,,,,,,1,1,4,stim/14.jpeg,HouseObjects,2,stim/objects/HouseObjects/bleachbottle3.png,0.5,3,-0.2,-0.15,right,78,2020-12-08_10h03.56.235,premup-three_ses-02_part-02_label-phase2,3.2.4,Win32,60,,,,,,,,,,,,,,,,,1,0,330,19,1,329,2,,,,,,
left,0.508000135,1,358,,,,,,,,,,,,,3,6,4,stim/64.jpeg,Instruments,1,stim/objects/Instruments/frenchhorn3.png,0.9,3,-0.2,-0.15,left,78,2020-12-08_10h03.56.235,premup-three_ses-02_part-02_label-phase2,3.2.4,Win32,60,,,,,,,,,,,,,,,,,1,0,330,277,1,329,2,,,,,,
right,0.440000057,1,359,,,,,,,,,,,,,3,5,1,stim/51.jpeg,HouseObjects,2,stim/objects/HouseObjects/glass3.png,0.9,1,-0.2,0.15,right,78,2020-12-08_10h03.56.235,premup-three_ses-02_part-02_label-phase2,3.2.4,Win32,60,,,,,,,,,,,,,,,,,1,0,330,154,1,329,2,,,,,,
left,0.625999928,0,360,,,,,,,,,,,,,1,2,4,stim/24.jpeg,HouseObjects,2,stim/objects/HouseObjects/bottle3.png,0.5,1,-0.2,0.15,right,78,2020-12-08_10h03.56.235,premup-three_ses-02_part-02_label-phase2,3.2.4,Win32,60,,,,,,,,,,,,,,,,,1,0,330,51,1,329,2,,,,,,
right,0.598999977,0,361,,,,,,,,,,,,,1,1,3,stim/13.jpeg,Instruments,1,stim/objects/Instruments/balalaika3.png,0.5,1,-0.2,0.15,left,78,2020-12-08_10h03.56.235,premup-three_ses-02_part-02_label-phase2,3.2.4,Win32,60,,,,,,,,,,,,,,,,,1,0,330,2,1,329,2,,,,,,
right,0.496000051,1,362,,,,,,,,,,,,,3,5,2,stim/52.jpeg,HouseObjects,2,stim/objects/HouseObjects/doormat3.png,0.9,3,-0.2,-0.15,right,78,2020-12-08_10h03.56.235,premup-three_ses-02_part-02_label-phase2,3.2.4,Win32,60,,,,,,,,,,,,,,,,,1,0,330,195,1,329,2,,,,,,
left,0.574999809,1,363,,,,,,,,,,,,,3,6,1,stim/61.jpeg,Instruments,1,stim/objects/Instruments/grandpiano3.png,0.9,4,0.2,-0.15,left,78,2020-12-08_10h03.56.235,premup-three_ses-02_part-02_label-phase2,3.2.4,Win32,60,,,,,,,,,,,,,,,,,1,0,330,274,1,329,2,,,,,,
left,0.493999958,1,364,,,,,,,,,,,,,3,6,4,stim/64.jpeg,Instruments,1,stim/objects/Instruments/flute3.png,0.9,1,-0.2,0.15,left,78,2020-12-08_10h03.56.235,premup-three_ses-02_part-02_label-phase2,3.2.4,Win32,60,,,,,,,,,,,,,,,,,1,0,330,305,1,329,2,,,,,,
left,0.529000044,1,365,,,,,,,,,,,,,3,6,1,stim/61.jpeg,Instruments,1,stim/objects/Instruments/vuvuzela4.png,0.9,4,0.2,-0.15,left,78,2020-12-08_10h03.56.235,premup-three_ses-02_part-02_label-phase2,3.2.4,Win32,60,,,,,,,,,,,,,,,,,1,0,330,318,1,329,1,,,,,,
right,0.521000147,1,366,,,,,,,,,,,,,2,4,3,stim/43.jpeg,HouseObjects,2,stim/objects/HouseObjects/dishsoap4.png,0.3,1,-0.2,0.15,right,78,2020-12-08_10h03.56.235,premup-three_ses-02_part-02_label-phase2,3.2.4,Win32,60,,,,,,,,,,,,,,,,,1,0,330,129,1,329,1,,,,,,
right,0.556999922,1,367,,,,,,,,,,,,,3,5,4,stim/54.jpeg,HouseObjects,2,stim/objects/HouseObjects/dustpan3.png,0.9,3,-0.2,-0.15,right,78,2020-12-08_10h03.56.235,premup-three_ses-02_part-02_label-phase2,3.2.4,Win32,60,,,,,,,,,,,,,,,,,1,0,330,141,1,329,2,,,,,,
left,0.628000021,1,368,,,,,,,,,,,,,3,6,2,stim/62.jpeg,Instruments,1,stim/objects/Instruments/flutetrans3.png,0.9,3,-0.2,-0.15,left,78,2020-12-08_10h03.56.235,premup-three_ses-02_part-02_label-phase2,3.2.4,Win32,60,,,,,,,,,,,,,,,,,1,0,330,231,1,329,2,,,,,,
left,0.479000092,1,369,,,,,,,,,,,,,3,6,4,stim/64.jpeg,Instruments,1,stim/objects/Instruments/flute3.png,0.9,4,0.2,-0.15,left,78,2020-12-08_10h03.56.235,premup-three_ses-02_part-02_label-phase2,3.2.4,Win32,60,,,,,,,,,,,,,,,,,1,0,330,245,1,329,2,,,,,,
right,0.438000202,1,370,,,,,,,,,,,,,3,5,2,stim/52.jpeg,HouseObjects,2,stim/objects/HouseObjects/garbagebin3.png,0.9,1,-0.2,0.15,right,78,2020-12-08_10h03.56.235,premup-three_ses-02_part-02_label-phase2,3.2.4,Win32,60,,,,,,,,,,,,,,,,,1,0,330,143,1,329,2,,,,,,
right,0.720000029,1,371,,,,,,,,,,,,,1,2,1,stim/21.jpeg,HouseObjects,2,stim/objects/HouseObjects/bucket3.png,0.5,4,0.2,-0.15,right,78,2020-12-08_10h03.56.235,premup-three_ses-02_part-02_label-phase2,3.2.4,Win32,60,,,,,,,,,,,,,,,,,1,0,330,48,1,329,2,,,,,,
right,0.523000002,1,372,,,,,,,,,,,,,3,5,3,stim/53.jpeg,HouseObjects,2,stim/objects/HouseObjects/handvacuum4.png,0.9,3,-0.2,-0.15,right,78,2020-12-08_10h03.56.235,premup-three_ses-02_part-02_label-phase2,3.2.4,Win32,60,,,,,,,,,,,,,,,,,1,0,330,228,1,329,1,,,,,,
right,0.486000061,1,373,,,,,,,,,,,,,3,5,4,stim/54.jpeg,HouseObjects,2,stim/objects/HouseObjects/doormat3.png,0.9,3,-0.2,-0.15,right,78,2020-12-08_10h03.56.235,premup-three_ses-02_part-02_label-phase2,3.2.4,Win32,60,,,,,,,,,,,,,,,,,1,0,330,165,1,329,2,,,,,,
left,0.676999807,0,374,,,,,,,,,,,,,1,1,4,stim/14.jpeg,HouseObjects,2,stim/objects/HouseObjects/basket3.png,0.5,1,-0.2,0.15,right,78,2020-12-08_10h03.56.235,premup-three_ses-02_part-02_label-phase2,3.2.4,Win32,60,,,,,,,,,,,,,,,,,1,0,330,23,1,329,2,,,,,,
left,0.593999863,1,375,,,,,,,,,,,,,3,6,3,stim/63.jpeg,Instruments,1,stim/objects/Instruments/gong3.png,0.9,4,0.2,-0.15,left,78,2020-12-08_10h03.56.235,premup-three_ses-02_part-02_label-phase2,3.2.4,Win32,60,,,,,,,,,,,,,,,,,1,0,330,248,1,329,2,,,,,,
left,0.832000017,1,376,,,,,,,,,,,,,2,4,2,stim/42.jpeg,Instruments,1,stim/objects/Instruments/chime4.png,0.7,4,0.2,-0.15,left,78,2020-12-08_10h03.56.235,premup-three_ses-02_part-02_label-phase2,3.2.4,Win32,60,,,,,,,,,,,,,,,,,1,0,330,112,1,329,1,,,,,,
left,0.525999784,0,377,,,,,,,,,,,,,3,6,1,stim/61.jpeg,HouseObjects,2,stim/objects/HouseObjects/knife4.png,0.1,3,-0.2,-0.15,right,78,2020-12-08_10h03.56.235,premup-three_ses-02_part-02_label-phase2,3.2.4,Win32,60,,,,,,,,,,,,,,,,,1,0,330,322,1,329,1,,,,,,
right,0.771000147,1,378,,,,,,,,,,,,,3,5,3,stim/53.jpeg,HouseObjects,2,stim/objects/HouseObjects/flyswatter3.png,0.9,2,0.2,0.15,right,78,2020-12-08_10h03.56.235,premup-three_ses-02_part-02_label-phase2,3.2.4,Win32,60,,,,,,,,,,,,,,,,,1,0,330,172,1,329,2,,,,,,
left,0.855999947,0,379,,,,,,,,,,,,,1,2,2,stim/22.jpeg,HouseObjects,2,stim/objects/HouseObjects/bucket3.png,0.5,3,-0.2,-0.15,right,78,2020-12-08_10h03.56.235,premup-three_ses-02_part-02_label-phase2,3.2.4,Win32,60,,,,,,,,,,,,,,,,,1,0,330,53,1,329,2,,,,,,
right,0.478000164,1,380,,,,,,,,,,,,,3,5,1,stim/51.jpeg,HouseObjects,2,stim/objects/HouseObjects/dustpan3.png,0.9,4,0.2,-0.15,right,78,2020-12-08_10h03.56.235,premup-three_ses-02_part-02_label-phase2,3.2.4,Win32,60,,,,,,,,,,,,,,,,,1,0,330,206,1,329,2,,,,,,
left,0.678999901,1,381,,,,,,,,,,,,,2,3,1,stim/31.jpeg,Instruments,1,stim/objects/Instruments/banjo4.png,0.3,3,-0.2,-0.15,left,78,2020-12-08_10h03.56.235,premup-three_ses-02_part-02_label-phase2,3.2.4,Win32,60,,,,,,,,,,,,,,,,,1,0,330,68,1,329,1,,,,,,
